usingWebGL,participant,session,date,expName,psychopyVersion,OS,frameRate,PROLIFIC_PID,STUDY_ID,SESSION_ID,signatures_friend,signatures_foe,band_ranges_top,band_ranges_bottom,formitemText,formtype,formundefined,formitemWidth,formindex,formresponse,formrt,key_resp_2.keys,key_resp_2.rt,tute_resp.keys,tute_resp.rt,tutorial.thisRepN,tutorial.thisTrialN,tutorial.thisN,tutorial.thisIndex,tutorial.ran,key_resp_4.keys,key_resp_4.rt,key_resp.keys,key_resp.corr,lines_presented,is_signal_presented,trials.thisRepN,trials.thisTrialN,trials.thisN,trials.thisIndex,trials.ran,vessel,active_band,lines,is_signal,supported_pos,catch_trial,key_resp.rt,debrief_formindex,debrief_formitemText,debrief_formtype,debrief_formitemWidth,debrief_formresponse,debrief_formrt,phases.thisRepN,phases.thisTrialN,phases.thisN,phases.thisIndex,phases.ran,phases.order,phase,key_resp_3.keys,trustitemText,trusttype,trustitemWidth,trustindex,trustresponse,trustrt,support_status.thisRepN,support_status.thisTrialN,support_status.thisN,support_status.thisIndex,support_status.ran,support_status.order,key_resp_5.keys,key_resp_5.rt,globalClockTime,userAgent
TRUE,60732f9319c4d853c8df24f9,001,2022-04-29_03h16.56.832,classification_task,2021.2.3,MacIntel,60.0024001,60732f9319c4d853c8df24f9,626b377229c10585ec392f8a,626b3c200681088f22753111,,,,,,,,,,,,,,,,,,,,,,,,,,,,,,,,,,,,,,,,,,,,,,,,,,,,,,,,,,,,,,,,,,,,
,60732f9319c4d853c8df24f9,001,2022-04-29_03h16.56.832,classification_task,2021.2.3,MacIntel,60.0024001,60732f9319c4d853c8df24f9,626b377229c10585ec392f8a,626b3c200681088f22753111,"[[""0.283"",""0.443"",""0.866"",""0.950""],[""0.320"",""0.492"",""0.753"",""0.903""]]","[[""0.077"",""0.227"",""0.606"",""0.679""],[""0.144"",""0.409"",""0.547"",""0.799""]]","[1,10]","[100,1000]",Video game experience,,,0.7,0,,,,,,,,,,,,,,,,,,,,,,,,,,,,,,,,,,,,,,,,,,,,,,,,,,,,,,,,,,,
,60732f9319c4d853c8df24f9,001,2022-04-29_03h16.56.832,classification_task,2021.2.3,MacIntel,60.0024001,60732f9319c4d853c8df24f9,626b377229c10585ec392f8a,626b3c200681088f22753111,,,,,Approximately how many hours did you spend playing video games in the last week?,,,0.7,0,20,,,,,,,,,,,,,,,,,,,,,,,,,,,,,,,,,,,,,,,,,,,,,,,,,,,,,,,,,,
,60732f9319c4d853c8df24f9,001,2022-04-29_03h16.56.832,classification_task,2021.2.3,MacIntel,60.0024001,60732f9319c4d853c8df24f9,626b377229c10585ec392f8a,626b3c200681088f22753111,,,,,"Which game did you play the most this year? (Enter ""None"" if you didn't play any)",,,0.7,0,match masters,,,,,,,,,,,,,,,,,,,,,,,,,,,,,,,,,,,,,,,,,,,,,,,,,,,,,,,,,,
,60732f9319c4d853c8df24f9,001,2022-04-29_03h16.56.832,classification_task,2021.2.3,MacIntel,60.0024001,60732f9319c4d853c8df24f9,626b377229c10585ec392f8a,626b3c200681088f22753111,,,,,Visual perception,,,0.7,0,,,,,,,,,,,,,,,,,,,,,,,,,,,,,,,,,,,,,,,,,,,,,,,,,,,,,,,,,,,
,60732f9319c4d853c8df24f9,001,2022-04-29_03h16.56.832,classification_task,2021.2.3,MacIntel,60.0024001,60732f9319c4d853c8df24f9,626b377229c10585ec392f8a,626b3c200681088f22753111,,,,,Do you have any form of color blindness?,,,0.7,0,No,29.7977,,,,,,,,,,,,,,,,,,,,,,,,,,,,,,,,,,,,,,,,,,,,,,,,,,,,,,,,,
,60732f9319c4d853c8df24f9,001,2022-04-29_03h16.56.832,classification_task,2021.2.3,MacIntel,60.0024001,60732f9319c4d853c8df24f9,626b377229c10585ec392f8a,626b3c200681088f22753111,,,,,Do you use software to change the colour temperature of your screen (e.g. f.lux)?,,,0.7,0,No,35.3752,,,,,,,,,,,,,,,,,,,,,,,,,,,,,,,,,,,,,,,,,,,,,,,,,,,,,,,,,
,60732f9319c4d853c8df24f9,001,2022-04-29_03h16.56.832,classification_task,2021.2.3,MacIntel,60.0024001,60732f9319c4d853c8df24f9,626b377229c10585ec392f8a,626b3c200681088f22753111,,,,,,,,,,,,space,31.5877,space,9.7821,0,0,0,0,1,,,,,,,,,,,,,,,,,,,,,,,,,,,,,,,,,,,,,,,,,,,,,,,,
,60732f9319c4d853c8df24f9,001,2022-04-29_03h16.56.832,classification_task,2021.2.3,MacIntel,60.0024001,60732f9319c4d853c8df24f9,626b377229c10585ec392f8a,626b3c200681088f22753111,,,,,,,,,,,,,,space,7.2302,1,0,1,0,1,,,,,,,,,,,,,,,,,,,,,,,,,,,,,,,,,,,,,,,,,,,,,,,,
,60732f9319c4d853c8df24f9,001,2022-04-29_03h16.56.832,classification_task,2021.2.3,MacIntel,60.0024001,60732f9319c4d853c8df24f9,626b377229c10585ec392f8a,626b3c200681088f22753111,,,,,,,,,,,,,,space,20.9819,2,0,2,0,1,,,,,,,,,,,,,,,,,,,,,,,,,,,,,,,,,,,,,,,,,,,,,,,,
,60732f9319c4d853c8df24f9,001,2022-04-29_03h16.56.832,classification_task,2021.2.3,MacIntel,60.0024001,60732f9319c4d853c8df24f9,626b377229c10585ec392f8a,626b3c200681088f22753111,,,,,,,,,,,,,,space,7.0647,3,0,3,0,1,,,,,,,,,,,,,,,,,,,,,,,,,,,,,,,,,,,,,,,,,,,,,,,,
,60732f9319c4d853c8df24f9,001,2022-04-29_03h16.56.832,classification_task,2021.2.3,MacIntel,60.0024001,60732f9319c4d853c8df24f9,626b377229c10585ec392f8a,626b3c200681088f22753111,,,,,,,,,,,,,,space,17.4994,4,0,4,0,1,,,,,,,,,,,,,,,,,,,,,,,,,,,,,,,,,,,,,,,,,,,,,,,,
,60732f9319c4d853c8df24f9,001,2022-04-29_03h16.56.832,classification_task,2021.2.3,MacIntel,60.0024001,60732f9319c4d853c8df24f9,626b377229c10585ec392f8a,626b3c200681088f22753111,,,,,,,,,,,,,,,,,,,,,space,21.8721,,0,"[""0.283"",""0.443"",""0.111"",""0.950""]","[1,1,0,1]",0,0,0,0,1,0,0,,,1,FALSE,,,,,,,,,,,,,,,,,,,,,,,,,,,,,,,
,60732f9319c4d853c8df24f9,001,2022-04-29_03h16.56.832,classification_task,2021.2.3,MacIntel,60.0024001,60732f9319c4d853c8df24f9,626b377229c10585ec392f8a,626b3c200681088f22753111,,,,,,,,,,,,,,,,,,,,,,,l,1,"[""0.077"",""0.640"",""0.606"",""0.679""]","[1,0,1,1]",0,1,1,1,1,1,0,,,1,FALSE,6.1787,,,,,,,,,,,,,,,,,,,,,,,,,,,,,,
,60732f9319c4d853c8df24f9,001,2022-04-29_03h16.56.832,classification_task,2021.2.3,MacIntel,60.0024001,60732f9319c4d853c8df24f9,626b377229c10585ec392f8a,626b3c200681088f22753111,,,,,,,,,,,,,,,,,,,,,,,a,0,"[""0.144"",""0.111"",""0.547"",""0.799""]","[1,0,1,1]",0,2,2,2,1,1,1,,,1,FALSE,6.2119,,,,,,,,,,,,,,,,,,,,,,,,,,,,,,
,60732f9319c4d853c8df24f9,001,2022-04-29_03h16.56.832,classification_task,2021.2.3,MacIntel,60.0024001,60732f9319c4d853c8df24f9,626b377229c10585ec392f8a,626b3c200681088f22753111,,,,,,,,,,,,,,,,,,,,,,,l,1,"[""0.640"",""0.409"",""0.547"",""0.799""]","[0,1,1,1]",0,3,3,3,1,1,1,,,1,FALSE,6.4984,,,,,,,,,,,,,,,,,,,,,,,,,,,,,,
,60732f9319c4d853c8df24f9,001,2022-04-29_03h16.56.832,classification_task,2021.2.3,MacIntel,60.0024001,60732f9319c4d853c8df24f9,626b377229c10585ec392f8a,626b3c200681088f22753111,,,,,,,,,,,,,,,,,,,,,,,a,1,"[""0.320"",""0.492"",""0.027"",""0.903""]","[1,1,0,1]",0,4,4,4,1,0,1,,,1,FALSE,5.3298,,,,,,,,,,,,,,,,,,,,,,,,,,,,,,
,60732f9319c4d853c8df24f9,001,2022-04-29_03h16.56.832,classification_task,2021.2.3,MacIntel,60.0024001,60732f9319c4d853c8df24f9,626b377229c10585ec392f8a,626b3c200681088f22753111,,,,,,,,,,,,,,,,,,,,,,,a,1,"[""0.320"",""0.492"",""0.753"",""0.027""]","[1,1,1,0]",0,5,5,5,1,0,1,,,1,FALSE,5.4491,,,,,,,,,,,,,,,,,,,,,,,,,,,,,,
,60732f9319c4d853c8df24f9,001,2022-04-29_03h16.56.832,classification_task,2021.2.3,MacIntel,60.0024001,60732f9319c4d853c8df24f9,626b377229c10585ec392f8a,626b3c200681088f22753111,,,,,,,,,,,,,,,,,,,,,,,l,1,"[""0.144"",""0.409"",""0.547"",""0.190""]","[1,1,1,0]",0,6,6,6,1,1,1,,,1,FALSE,6.0135,,,,,,,,,,,,,,,,,,,,,,,,,,,,,,
,60732f9319c4d853c8df24f9,001,2022-04-29_03h16.56.832,classification_task,2021.2.3,MacIntel,60.0024001,60732f9319c4d853c8df24f9,626b377229c10585ec392f8a,626b3c200681088f22753111,,,,,,,,,,,,,,,,,,,,,,,a,1,"[""0.283"",""0.361"",""0.866"",""0.950""]","[1,0,1,1]",0,7,7,7,1,0,0,,,1,FALSE,8.093,,,,,,,,,,,,,,,,,,,,,,,,,,,,,,
,60732f9319c4d853c8df24f9,001,2022-04-29_03h16.56.832,classification_task,2021.2.3,MacIntel,60.0024001,60732f9319c4d853c8df24f9,626b377229c10585ec392f8a,626b3c200681088f22753111,,,,,,,,,,,,,,,,,,,,,,,l,1,"[""0.035"",""0.227"",""0.606"",""0.679""]","[0,1,1,1]",0,8,8,8,1,1,0,,,1,FALSE,3.9139,,,,,,,,,,,,,,,,,,,,,,,,,,,,,,
,60732f9319c4d853c8df24f9,001,2022-04-29_03h16.56.832,classification_task,2021.2.3,MacIntel,60.0024001,60732f9319c4d853c8df24f9,626b377229c10585ec392f8a,626b3c200681088f22753111,,,,,,,,,,,,,,,,,,,,,,,l,1,"[""0.077"",""0.227"",""0.606"",""0.368""]","[1,1,1,0]",0,9,9,9,1,1,0,,,1,FALSE,6.5131,,,,,,,,,,,,,,,,,,,,,,,,,,,,,,
,60732f9319c4d853c8df24f9,001,2022-04-29_03h16.56.832,classification_task,2021.2.3,MacIntel,60.0024001,60732f9319c4d853c8df24f9,626b377229c10585ec392f8a,626b3c200681088f22753111,,,,,,,,,,,,,,,,,,,,,,,l,1,"[""0.144"",""0.409"",""0.363"",""0.799""]","[1,1,0,1]",0,10,10,10,1,1,1,,,1,FALSE,5.3955,,,,,,,,,,,,,,,,,,,,,,,,,,,,,,
,60732f9319c4d853c8df24f9,001,2022-04-29_03h16.56.832,classification_task,2021.2.3,MacIntel,60.0024001,60732f9319c4d853c8df24f9,626b377229c10585ec392f8a,626b3c200681088f22753111,,,,,,,,,,,,,,,,,,,,,,,a,1,"[""0.111"",""0.492"",""0.753"",""0.903""]","[0,1,1,1]",0,11,11,11,1,0,1,,,1,FALSE,5.8814,,,,,,,,,,,,,,,,,,,,,,,,,,,,,,
,60732f9319c4d853c8df24f9,001,2022-04-29_03h16.56.832,classification_task,2021.2.3,MacIntel,60.0024001,60732f9319c4d853c8df24f9,626b377229c10585ec392f8a,626b3c200681088f22753111,,,,,,,,,,,,,,,,,,,,,,,l,1,"[""0.077"",""0.227"",""0.640"",""0.679""]","[1,1,0,1]",0,12,12,12,1,1,0,,,1,FALSE,6.6137,,,,,,,,,,,,,,,,,,,,,,,,,,,,,,
,60732f9319c4d853c8df24f9,001,2022-04-29_03h16.56.832,classification_task,2021.2.3,MacIntel,60.0024001,60732f9319c4d853c8df24f9,626b377229c10585ec392f8a,626b3c200681088f22753111,,,,,,,,,,,,,,,,,,,,,,,a,1,"[""0.283"",""0.443"",""0.866"",""0.717""]","[1,1,1,0]",0,13,13,13,1,0,0,,,1,FALSE,5.3817,,,,,,,,,,,,,,,,,,,,,,,,,,,,,,
,60732f9319c4d853c8df24f9,001,2022-04-29_03h16.56.832,classification_task,2021.2.3,MacIntel,60.0024001,60732f9319c4d853c8df24f9,626b377229c10585ec392f8a,626b3c200681088f22753111,,,,,,,,,,,,,,,,,,,,,,,a,1,"[""0.320"",""0.719"",""0.753"",""0.903""]","[1,0,1,1]",0,14,14,14,1,0,1,,,1,FALSE,6.995,,,,,,,,,,,,,,,,,,,,,,,,,,,,,,
,60732f9319c4d853c8df24f9,001,2022-04-29_03h16.56.832,classification_task,2021.2.3,MacIntel,60.0024001,60732f9319c4d853c8df24f9,626b377229c10585ec392f8a,626b3c200681088f22753111,,,,,,,,,,,,,,,,,,,,,,,l,0,"[""0.640"",""0.443"",""0.866"",""0.950""]","[0,1,1,1]",0,15,15,15,1,0,0,,,1,FALSE,8.2699,,,,,,,,,,,,,,,,,,,,,,,,,,,,,,
,60732f9319c4d853c8df24f9,001,2022-04-29_03h16.56.832,classification_task,2021.2.3,MacIntel,60.0024001,60732f9319c4d853c8df24f9,626b377229c10585ec392f8a,626b3c200681088f22753111,,,,,,,,,,,,,,,,,,,,,,,l,1,"[""0.077"",""0.227"",""0.368"",""0.679""]","[1,1,0,1]",0,16,16,16,1,1,0,,,1,FALSE,6.2322,,,,,,,,,,,,,,,,,,,,,,,,,,,,,,
,60732f9319c4d853c8df24f9,001,2022-04-29_03h16.56.832,classification_task,2021.2.3,MacIntel,60.0024001,60732f9319c4d853c8df24f9,626b377229c10585ec392f8a,626b3c200681088f22753111,,,,,,,,,,,,,,,,,,,,,,,a,1,"[""0.320"",""0.191"",""0.753"",""0.903""]","[1,0,1,1]",0,17,17,17,1,0,1,,,1,FALSE,5.6631,,,,,,,,,,,,,,,,,,,,,,,,,,,,,,
,60732f9319c4d853c8df24f9,001,2022-04-29_03h16.56.832,classification_task,2021.2.3,MacIntel,60.0024001,60732f9319c4d853c8df24f9,626b377229c10585ec392f8a,626b3c200681088f22753111,,,,,,,,,,,,,,,,,,,,,,,l,1,"[""0.144"",""0.409"",""0.027"",""0.799""]","[1,1,0,1]",0,18,18,18,1,1,1,,,1,FALSE,8.679,,,,,,,,,,,,,,,,,,,,,,,,,,,,,,
,60732f9319c4d853c8df24f9,001,2022-04-29_03h16.56.832,classification_task,2021.2.3,MacIntel,60.0024001,60732f9319c4d853c8df24f9,626b377229c10585ec392f8a,626b3c200681088f22753111,,,,,,,,,,,,,,,,,,,,,,,l,1,"[""0.027"",""0.227"",""0.606"",""0.679""]","[0,1,1,1]",0,19,19,19,1,1,0,,,1,FALSE,3.631,,,,,,,,,,,,,,,,,,,,,,,,,,,,,,
,60732f9319c4d853c8df24f9,001,2022-04-29_03h16.56.832,classification_task,2021.2.3,MacIntel,60.0024001,60732f9319c4d853c8df24f9,626b377229c10585ec392f8a,626b3c200681088f22753111,,,,,,,,,,,,,,,,,,,,,,,l,1,"[""0.077"",""0.227"",""0.606"",""0.191""]","[1,1,1,0]",0,20,20,20,1,1,0,,,1,FALSE,4.101,,,,,,,,,,,,,,,,,,,,,,,,,,,,,,
,60732f9319c4d853c8df24f9,001,2022-04-29_03h16.56.832,classification_task,2021.2.3,MacIntel,60.0024001,60732f9319c4d853c8df24f9,626b377229c10585ec392f8a,626b3c200681088f22753111,,,,,,,,,,,,,,,,,,,,,,,l,1,"[""0.077"",""0.363"",""0.606"",""0.679""]","[1,0,1,1]",0,21,21,21,1,1,0,,,1,FALSE,5.7505,,,,,,,,,,,,,,,,,,,,,,,,,,,,,,
,60732f9319c4d853c8df24f9,001,2022-04-29_03h16.56.832,classification_task,2021.2.3,MacIntel,60.0024001,60732f9319c4d853c8df24f9,626b377229c10585ec392f8a,626b3c200681088f22753111,,,,,,,,,,,,,,,,,,,,,,,a,1,"[""0.320"",""0.492"",""0.181"",""0.903""]","[1,1,0,1]",0,22,22,22,1,0,1,,,1,FALSE,6.0461,,,,,,,,,,,,,,,,,,,,,,,,,,,,,,
,60732f9319c4d853c8df24f9,001,2022-04-29_03h16.56.832,classification_task,2021.2.3,MacIntel,60.0024001,60732f9319c4d853c8df24f9,626b377229c10585ec392f8a,626b3c200681088f22753111,,,,,,,,,,,,,,,,,,,,,,,a,1,"[""0.035"",""0.492"",""0.753"",""0.903""]","[0,1,1,1]",0,23,23,23,1,0,1,,,1,FALSE,6.2313,,,,,,,,,,,,,,,,,,,,,,,,,,,,,,
,60732f9319c4d853c8df24f9,001,2022-04-29_03h16.56.832,classification_task,2021.2.3,MacIntel,60.0024001,60732f9319c4d853c8df24f9,626b377229c10585ec392f8a,626b3c200681088f22753111,,,,,,,,,,,,,,,,,,,,,,,a,1,"[""0.283"",""0.191"",""0.866"",""0.950""]","[1,0,1,1]",0,24,24,24,1,0,0,,,1,FALSE,5.8761,,,,,,,,,,,,,,,,,,,,,,,,,,,,,,
,60732f9319c4d853c8df24f9,001,2022-04-29_03h16.56.832,classification_task,2021.2.3,MacIntel,60.0024001,60732f9319c4d853c8df24f9,626b377229c10585ec392f8a,626b3c200681088f22753111,,,,,,,,,,,,,,,,,,,,,,,a,1,"[""0.181"",""0.443"",""0.866"",""0.950""]","[0,1,1,1]",0,25,25,25,1,0,0,,,1,FALSE,6.4198,,,,,,,,,,,,,,,,,,,,,,,,,,,,,,
,60732f9319c4d853c8df24f9,001,2022-04-29_03h16.56.832,classification_task,2021.2.3,MacIntel,60.0024001,60732f9319c4d853c8df24f9,626b377229c10585ec392f8a,626b3c200681088f22753111,,,,,,,,,,,,,,,,,,,,,,,a,1,"[""0.283"",""0.443"",""0.866"",""0.181""]","[1,1,1,0]",0,26,26,26,1,0,0,,,1,FALSE,2.932,,,,,,,,,,,,,,,,,,,,,,,,,,,,,,
,60732f9319c4d853c8df24f9,001,2022-04-29_03h16.56.832,classification_task,2021.2.3,MacIntel,60.0024001,60732f9319c4d853c8df24f9,626b377229c10585ec392f8a,626b3c200681088f22753111,,,,,,,,,,,,,,,,,,,,,,,l,1,"[""0.144"",""0.038"",""0.547"",""0.799""]","[1,0,1,1]",0,27,27,27,1,1,1,,,1,FALSE,4.1601,,,,,,,,,,,,,,,,,,,,,,,,,,,,,,
,60732f9319c4d853c8df24f9,001,2022-04-29_03h16.56.832,classification_task,2021.2.3,MacIntel,60.0024001,60732f9319c4d853c8df24f9,626b377229c10585ec392f8a,626b3c200681088f22753111,,,,,,,,,,,,,,,,,,,,,,,l,1,"[""0.144"",""0.409"",""0.547"",""0.355""]","[1,1,1,0]",0,28,28,28,1,1,1,,,1,FALSE,4.1836,,,,,,,,,,,,,,,,,,,,,,,,,,,,,,
,60732f9319c4d853c8df24f9,001,2022-04-29_03h16.56.832,classification_task,2021.2.3,MacIntel,60.0024001,60732f9319c4d853c8df24f9,626b377229c10585ec392f8a,626b3c200681088f22753111,,,,,,,,,,,,,,,,,,,,,,,a,1,"[""0.320"",""0.492"",""0.753"",""0.191""]","[1,1,1,0]",0,29,29,29,1,0,1,,,1,FALSE,4.9316,,,,,,,,,,,,,,,,,,,,,,,,,,,,,,
,60732f9319c4d853c8df24f9,001,2022-04-29_03h16.56.832,classification_task,2021.2.3,MacIntel,60.0024001,60732f9319c4d853c8df24f9,626b377229c10585ec392f8a,626b3c200681088f22753111,,,,,,,,,,,,,,,,,,,,,,,a,1,"[""0.283"",""0.443"",""0.719"",""0.950""]","[1,1,0,1]",0,30,30,30,1,0,0,,,1,FALSE,3.4632,,,,,,,,,,,,,,,,,,,,,,,,,,,,,,
,60732f9319c4d853c8df24f9,001,2022-04-29_03h16.56.832,classification_task,2021.2.3,MacIntel,60.0024001,60732f9319c4d853c8df24f9,626b377229c10585ec392f8a,626b3c200681088f22753111,,,,,,,,,,,,,,,,,,,,,,,l,1,"[""0.191"",""0.409"",""0.547"",""0.799""]","[0,1,1,1]",0,31,31,31,1,1,1,,,1,FALSE,3.5621,,,,,,,,,,,,,,,,,,,,,,,,,,,,,,
,60732f9319c4d853c8df24f9,001,2022-04-29_03h16.56.832,classification_task,2021.2.3,MacIntel,60.0024001,60732f9319c4d853c8df24f9,626b377229c10585ec392f8a,626b3c200681088f22753111,,,,,,,,,,,,,,,,,,,,,,,l,0,"[""0.283"",""0.443"",""0.866"",""0.191""]","[1,1,1,0]",0,32,32,32,1,0,0,,,1,FALSE,7.3777,,,,,,,,,,,,,,,,,,,,,,,,,,,,,,
,60732f9319c4d853c8df24f9,001,2022-04-29_03h16.56.832,classification_task,2021.2.3,MacIntel,60.0024001,60732f9319c4d853c8df24f9,626b377229c10585ec392f8a,626b3c200681088f22753111,,,,,,,,,,,,,,,,,,,,,,,a,0,"[""0.144"",""0.409"",""0.361"",""0.799""]","[1,1,0,1]",0,33,33,33,1,1,1,,,1,FALSE,5.3653,,,,,,,,,,,,,,,,,,,,,,,,,,,,,,
,60732f9319c4d853c8df24f9,001,2022-04-29_03h16.56.832,classification_task,2021.2.3,MacIntel,60.0024001,60732f9319c4d853c8df24f9,626b377229c10585ec392f8a,626b3c200681088f22753111,,,,,,,,,,,,,,,,,,,,,,,a,0,"[""0.355"",""0.409"",""0.547"",""0.799""]","[0,1,1,1]",0,34,34,34,1,1,1,,,1,FALSE,1.5472,,,,,,,,,,,,,,,,,,,,,,,,,,,,,,
,60732f9319c4d853c8df24f9,001,2022-04-29_03h16.56.832,classification_task,2021.2.3,MacIntel,60.0024001,60732f9319c4d853c8df24f9,626b377229c10585ec392f8a,626b3c200681088f22753111,,,,,,,,,,,,,,,,,,,,,,,a,0,"[""0.077"",""0.227"",""0.606"",""0.363""]","[1,1,1,0]",0,35,35,35,1,1,0,,,1,FALSE,2.4354,,,,,,,,,,,,,,,,,,,,,,,,,,,,,,
,60732f9319c4d853c8df24f9,001,2022-04-29_03h16.56.832,classification_task,2021.2.3,MacIntel,60.0024001,60732f9319c4d853c8df24f9,626b377229c10585ec392f8a,626b3c200681088f22753111,,,,,,,,,,,,,,,,,,,,,,,l,0,"[""0.283"",""0.443"",""0.038"",""0.950""]","[1,1,0,1]",0,36,36,36,1,0,0,,,1,FALSE,1.3267,,,,,,,,,,,,,,,,,,,,,,,,,,,,,,
,60732f9319c4d853c8df24f9,001,2022-04-29_03h16.56.832,classification_task,2021.2.3,MacIntel,60.0024001,60732f9319c4d853c8df24f9,626b377229c10585ec392f8a,626b3c200681088f22753111,,,,,,,,,,,,,,,,,,,,,,,l,1,"[""0.077"",""0.227"",""0.027"",""0.679""]","[1,1,0,1]",0,37,37,37,1,1,0,,,1,FALSE,1.5105,,,,,,,,,,,,,,,,,,,,,,,,,,,,,,
,60732f9319c4d853c8df24f9,001,2022-04-29_03h16.56.832,classification_task,2021.2.3,MacIntel,60.0024001,60732f9319c4d853c8df24f9,626b377229c10585ec392f8a,626b3c200681088f22753111,,,,,,,,,,,,,,,,,,,,,,,l,0,"[""0.320"",""0.492"",""0.753"",""0.181""]","[1,1,1,0]",0,38,38,38,1,0,1,,,1,FALSE,2.8129,,,,,,,,,,,,,,,,,,,,,,,,,,,,,,
,60732f9319c4d853c8df24f9,001,2022-04-29_03h16.56.832,classification_task,2021.2.3,MacIntel,60.0024001,60732f9319c4d853c8df24f9,626b377229c10585ec392f8a,626b3c200681088f22753111,,,,,,,,,,,,,,,,,,,,,,,l,0,"[""0.320"",""0.492"",""0.191"",""0.903""]","[1,1,0,1]",0,39,39,39,1,0,1,,,1,FALSE,3.3135,,,,,,,,,,,,,,,,,,,,,,,,,,,,,,
,60732f9319c4d853c8df24f9,001,2022-04-29_03h16.56.832,classification_task,2021.2.3,MacIntel,60.0024001,60732f9319c4d853c8df24f9,626b377229c10585ec392f8a,626b3c200681088f22753111,,,,,,,,,,,,,,,,,,,,,,,a,1,"[""0.717"",""0.492"",""0.753"",""0.903""]","[0,1,1,1]",0,40,40,40,1,0,1,,,1,FALSE,1.2661,,,,,,,,,,,,,,,,,,,,,,,,,,,,,,
,60732f9319c4d853c8df24f9,001,2022-04-29_03h16.56.832,classification_task,2021.2.3,MacIntel,60.0024001,60732f9319c4d853c8df24f9,626b377229c10585ec392f8a,626b3c200681088f22753111,,,,,,,,,,,,,,,,,,,,,,,l,1,"[""0.144"",""0.640"",""0.547"",""0.799""]","[1,0,1,1]",0,41,41,41,1,1,1,,,1,FALSE,1.6103,,,,,,,,,,,,,,,,,,,,,,,,,,,,,,
,60732f9319c4d853c8df24f9,001,2022-04-29_03h16.56.832,classification_task,2021.2.3,MacIntel,60.0024001,60732f9319c4d853c8df24f9,626b377229c10585ec392f8a,626b3c200681088f22753111,,,,,,,,,,,,,,,,,,,,,,,l,0,"[""0.283"",""0.361"",""0.866"",""0.950""]","[1,0,1,1]",0,42,42,42,1,0,0,,,1,FALSE,2.2901,,,,,,,,,,,,,,,,,,,,,,,,,,,,,,
,60732f9319c4d853c8df24f9,001,2022-04-29_03h16.56.832,classification_task,2021.2.3,MacIntel,60.0024001,60732f9319c4d853c8df24f9,626b377229c10585ec392f8a,626b3c200681088f22753111,,,,,,,,,,,,,,,,,,,,,,,l,0,"[""0.320"",""0.713"",""0.753"",""0.903""]","[1,0,1,1]",0,43,43,43,1,0,1,,,1,FALSE,1.5472,,,,,,,,,,,,,,,,,,,,,,,,,,,,,,
,60732f9319c4d853c8df24f9,001,2022-04-29_03h16.56.832,classification_task,2021.2.3,MacIntel,60.0024001,60732f9319c4d853c8df24f9,626b377229c10585ec392f8a,626b3c200681088f22753111,,,,,,,,,,,,,,,,,,,,,,,a,0,"[""0.190"",""0.227"",""0.606"",""0.679""]","[0,1,1,1]",0,44,44,44,1,1,0,,,1,FALSE,1.3743,,,,,,,,,,,,,,,,,,,,,,,,,,,,,,
,60732f9319c4d853c8df24f9,001,2022-04-29_03h16.56.832,classification_task,2021.2.3,MacIntel,60.0024001,60732f9319c4d853c8df24f9,626b377229c10585ec392f8a,626b3c200681088f22753111,,,,,,,,,,,,,,,,,,,,,,,a,0,"[""0.144"",""0.409"",""0.547"",""0.361""]","[1,1,1,0]",0,45,45,45,1,1,1,,,1,FALSE,2.5081,,,,,,,,,,,,,,,,,,,,,,,,,,,,,,
,60732f9319c4d853c8df24f9,001,2022-04-29_03h16.56.832,classification_task,2021.2.3,MacIntel,60.0024001,60732f9319c4d853c8df24f9,626b377229c10585ec392f8a,626b3c200681088f22753111,,,,,,,,,,,,,,,,,,,,,,,l,0,"[""0.368"",""0.443"",""0.866"",""0.950""]","[0,1,1,1]",0,46,46,46,1,0,0,,,1,FALSE,1.516,,,,,,,,,,,,,,,,,,,,,,,,,,,,,,
,60732f9319c4d853c8df24f9,001,2022-04-29_03h16.56.832,classification_task,2021.2.3,MacIntel,60.0024001,60732f9319c4d853c8df24f9,626b377229c10585ec392f8a,626b3c200681088f22753111,,,,,,,,,,,,,,,,,,,,,,,l,1,"[""0.077"",""0.719"",""0.606"",""0.679""]","[1,0,1,1]",0,47,47,47,1,1,0,,,1,FALSE,2.6737,,,,,,,,,,,,,,,,,,,,,,,,,,,,,,
,60732f9319c4d853c8df24f9,001,2022-04-29_03h16.56.832,classification_task,2021.2.3,MacIntel,60.0024001,60732f9319c4d853c8df24f9,626b377229c10585ec392f8a,626b3c200681088f22753111,,,,,,,,,,,,,,,,,,,,,,,l,1,"[""0.144"",""0.181"",""0.547"",""0.799""]","[1,0,1,1]",0,48,48,48,1,1,1,,,1,FALSE,3.565,,,,,,,,,,,,,,,,,,,,,,,,,,,,,,
,60732f9319c4d853c8df24f9,001,2022-04-29_03h16.56.832,classification_task,2021.2.3,MacIntel,60.0024001,60732f9319c4d853c8df24f9,626b377229c10585ec392f8a,626b3c200681088f22753111,,,,,,,,,,,,,,,,,,,,,,,a,0,"[""0.077"",""0.227"",""0.717"",""0.679""]","[1,1,0,1]",0,49,49,49,1,1,0,,,1,FALSE,2.9138,,,,,,,,,,,,,,,,,,,,,,,,,,,,,,
,60732f9319c4d853c8df24f9,001,2022-04-29_03h16.56.832,classification_task,2021.2.3,MacIntel,60.0024001,60732f9319c4d853c8df24f9,626b377229c10585ec392f8a,626b3c200681088f22753111,,,,,,,,,,,,,,,,,,,,,,,a,1,"[""0.283"",""0.443"",""0.191"",""0.950""]","[1,1,0,1]",0,50,50,50,1,0,0,,,1,FALSE,1.8833,,,,,,,,,,,,,,,,,,,,,,,,,,,,,,
,60732f9319c4d853c8df24f9,001,2022-04-29_03h16.56.832,classification_task,2021.2.3,MacIntel,60.0024001,60732f9319c4d853c8df24f9,626b377229c10585ec392f8a,626b3c200681088f22753111,,,,,,,,,,,,,,,,,,,,,,,l,0,"[""0.320"",""0.190"",""0.753"",""0.903""]","[1,0,1,1]",0,51,51,51,1,0,1,,,1,FALSE,1.2424,,,,,,,,,,,,,,,,,,,,,,,,,,,,,,
,60732f9319c4d853c8df24f9,001,2022-04-29_03h16.56.832,classification_task,2021.2.3,MacIntel,60.0024001,60732f9319c4d853c8df24f9,626b377229c10585ec392f8a,626b3c200681088f22753111,,,,,,,,,,,,,,,,,,,,,,,l,0,"[""0.355"",""0.492"",""0.753"",""0.903""]","[0,1,1,1]",0,52,52,52,1,0,1,,,1,FALSE,2.0762,,,,,,,,,,,,,,,,,,,,,,,,,,,,,,
,60732f9319c4d853c8df24f9,001,2022-04-29_03h16.56.832,classification_task,2021.2.3,MacIntel,60.0024001,60732f9319c4d853c8df24f9,626b377229c10585ec392f8a,626b3c200681088f22753111,,,,,,,,,,,,,,,,,,,,,,,a,0,"[""0.077"",""0.355"",""0.606"",""0.679""]","[1,0,1,1]",0,53,53,53,1,1,0,,,1,FALSE,1.9826,,,,,,,,,,,,,,,,,,,,,,,,,,,,,,
,60732f9319c4d853c8df24f9,001,2022-04-29_03h16.56.832,classification_task,2021.2.3,MacIntel,60.0024001,60732f9319c4d853c8df24f9,626b377229c10585ec392f8a,626b3c200681088f22753111,,,,,,,,,,,,,,,,,,,,,,,a,0,"[""0.640"",""0.227"",""0.606"",""0.679""]","[0,1,1,1]",0,54,54,54,1,1,0,,,1,FALSE,1.8617,,,,,,,,,,,,,,,,,,,,,,,,,,,,,,
,60732f9319c4d853c8df24f9,001,2022-04-29_03h16.56.832,classification_task,2021.2.3,MacIntel,60.0024001,60732f9319c4d853c8df24f9,626b377229c10585ec392f8a,626b3c200681088f22753111,,,,,,,,,,,,,,,,,,,,,,,l,0,"[""0.640"",""0.443"",""0.866"",""0.950""]","[0,1,1,1]",0,55,55,55,1,0,0,,,1,FALSE,3.7646,,,,,,,,,,,,,,,,,,,,,,,,,,,,,,
,60732f9319c4d853c8df24f9,001,2022-04-29_03h16.56.832,classification_task,2021.2.3,MacIntel,60.0024001,60732f9319c4d853c8df24f9,626b377229c10585ec392f8a,626b3c200681088f22753111,,,,,,,,,,,,,,,,,,,,,,,l,0,"[""0.283"",""0.355"",""0.866"",""0.950""]","[1,0,1,1]",0,56,56,56,1,0,0,,,1,FALSE,1.1486,,,,,,,,,,,,,,,,,,,,,,,,,,,,,,
,60732f9319c4d853c8df24f9,001,2022-04-29_03h16.56.832,classification_task,2021.2.3,MacIntel,60.0024001,60732f9319c4d853c8df24f9,626b377229c10585ec392f8a,626b3c200681088f22753111,,,,,,,,,,,,,,,,,,,,,,,l,1,"[""0.038"",""0.409"",""0.547"",""0.799""]","[0,1,1,1]",0,57,57,57,1,1,1,,,1,FALSE,1.7308,,,,,,,,,,,,,,,,,,,,,,,,,,,,,,
,60732f9319c4d853c8df24f9,001,2022-04-29_03h16.56.832,classification_task,2021.2.3,MacIntel,60.0024001,60732f9319c4d853c8df24f9,626b377229c10585ec392f8a,626b3c200681088f22753111,,,,,,,,,,,,,,,,,,,,,,,l,0,"[""0.320"",""0.492"",""0.753"",""0.713""]","[1,1,1,0]",0,58,58,58,1,0,1,,,1,FALSE,2.5287,,,,,,,,,,,,,,,,,,,,,,,,,,,,,,
,60732f9319c4d853c8df24f9,001,2022-04-29_03h16.56.832,classification_task,2021.2.3,MacIntel,60.0024001,60732f9319c4d853c8df24f9,626b377229c10585ec392f8a,626b3c200681088f22753111,,,,,,,,,,,,,,,,,,,,,,,l,0,"[""0.320"",""0.492"",""0.355"",""0.903""]","[1,1,0,1]",0,59,59,59,1,0,1,,,1,FALSE,1.9311,,,,,,,,,,,,,,,,,,,,,,,,,,,,,,
,60732f9319c4d853c8df24f9,001,2022-04-29_03h16.56.832,classification_task,2021.2.3,MacIntel,60.0024001,60732f9319c4d853c8df24f9,626b377229c10585ec392f8a,626b3c200681088f22753111,,,,,,,,,,,,,,,,,,,,,,,a,0,"[""0.144"",""0.409"",""0.111"",""0.799""]","[1,1,0,1]",0,60,60,60,1,1,1,,,1,FALSE,1.3977,,,,,,,,,,,,,,,,,,,,,,,,,,,,,,
,60732f9319c4d853c8df24f9,001,2022-04-29_03h16.56.832,classification_task,2021.2.3,MacIntel,60.0024001,60732f9319c4d853c8df24f9,626b377229c10585ec392f8a,626b3c200681088f22753111,,,,,,,,,,,,,,,,,,,,,,,a,0,"[""0.077"",""0.227"",""0.606"",""0.038""]","[1,1,1,0]",0,61,61,61,1,1,0,,,1,FALSE,1.8114,,,,,,,,,,,,,,,,,,,,,,,,,,,,,,
,60732f9319c4d853c8df24f9,001,2022-04-29_03h16.56.832,classification_task,2021.2.3,MacIntel,60.0024001,60732f9319c4d853c8df24f9,626b377229c10585ec392f8a,626b3c200681088f22753111,,,,,,,,,,,,,,,,,,,,,,,a,0,"[""0.144"",""0.409"",""0.547"",""0.035""]","[1,1,1,0]",0,62,62,62,1,1,1,,,1,FALSE,1.691,,,,,,,,,,,,,,,,,,,,,,,,,,,,,,
,60732f9319c4d853c8df24f9,001,2022-04-29_03h16.56.832,classification_task,2021.2.3,MacIntel,60.0024001,60732f9319c4d853c8df24f9,626b377229c10585ec392f8a,626b3c200681088f22753111,,,,,,,,,,,,,,,,,,,,,,,l,0,"[""0.283"",""0.443"",""0.866"",""0.717""]","[1,1,1,0]",0,63,63,63,1,0,0,,,1,FALSE,1.7875,,,,,,,,,,,,,,,,,,,,,,,,,,,,,,
,60732f9319c4d853c8df24f9,001,2022-04-29_03h16.56.832,classification_task,2021.2.3,MacIntel,60.0024001,60732f9319c4d853c8df24f9,626b377229c10585ec392f8a,626b3c200681088f22753111,,,,,,,,,,,,,,,,,,,,,,,,,,,,,,,,,,,,,,,0, ,,0,6.731518225,571.5886,0,0,0,0,1,2,1,,,,,,,,,,,,,,,,,
,60732f9319c4d853c8df24f9,001,2022-04-29_03h16.56.832,classification_task,2021.2.3,MacIntel,60.0024001,60732f9319c4d853c8df24f9,626b377229c10585ec392f8a,626b3c200681088f22753111,,,,,,,,,,,,,,,,,,,,,,,,,,,,,,,,,,,,,,,1,  ,,0,7.343864822,508.1547,0,0,0,0,1,2,1,,,,,,,,,,,,,,,,,
,60732f9319c4d853c8df24f9,001,2022-04-29_03h16.56.832,classification_task,2021.2.3,MacIntel,60.0024001,60732f9319c4d853c8df24f9,626b377229c10585ec392f8a,626b3c200681088f22753111,,,,,,,,,,,,,,,,,,,,,,,,,,,,,,,,,,,,,,,2,  ,,0,4.776096781,517.5985,0,0,0,0,1,2,1,,,,,,,,,,,,,,,,,
,60732f9319c4d853c8df24f9,001,2022-04-29_03h16.56.832,classification_task,2021.2.3,MacIntel,60.0024001,60732f9319c4d853c8df24f9,626b377229c10585ec392f8a,626b3c200681088f22753111,,,,,,,,,,,,,,,,,,,,,,,,,,,,,,,,,,,,,,,,,,,,,0,0,0,0,1,,1,,,,,,,,,,,,,,,,,
,60732f9319c4d853c8df24f9,001,2022-04-29_03h16.56.832,classification_task,2021.2.3,MacIntel,60.0024001,60732f9319c4d853c8df24f9,626b377229c10585ec392f8a,626b3c200681088f22753111,,,,,,,,,,,,,,,,,,,,,space,11.4254,l,0,"[""0.283"",""0.443"",""0.866"",""0.363""]","[1,1,1,0]",0,0,0,0,1,0,0,,,1,FALSE,7.1042,,,,,,,,,,,,,,,,,,,,,,,,,,,,,,
,60732f9319c4d853c8df24f9,001,2022-04-29_03h16.56.832,classification_task,2021.2.3,MacIntel,60.0024001,60732f9319c4d853c8df24f9,626b377229c10585ec392f8a,626b3c200681088f22753111,,,,,,,,,,,,,,,,,,,,,,,a,0,"[""0.144"",""0.409"",""0.547"",""0.368""]","[1,1,1,0]",0,1,1,1,1,1,1,,,1,FALSE,3.6184,,,,,,,,,,,,,,,,,,,,,,,,,,,,,,
,60732f9319c4d853c8df24f9,001,2022-04-29_03h16.56.832,classification_task,2021.2.3,MacIntel,60.0024001,60732f9319c4d853c8df24f9,626b377229c10585ec392f8a,626b3c200681088f22753111,,,,,,,,,,,,,,,,,,,,,,,l,1,"[""0.144"",""0.409"",""0.190"",""0.799""]","[1,1,0,1]",0,2,2,2,1,1,1,,,1,FALSE,3.3661,,,,,,,,,,,,,,,,,,,,,,,,,,,,,,
,60732f9319c4d853c8df24f9,001,2022-04-29_03h16.56.832,classification_task,2021.2.3,MacIntel,60.0024001,60732f9319c4d853c8df24f9,626b377229c10585ec392f8a,626b3c200681088f22753111,,,,,,,,,,,,,,,,,,,,,,,l,1,"[""0.719"",""0.409"",""0.547"",""0.799""]","[0,1,1,1]",0,3,3,3,1,1,1,,,1,FALSE,1.2134,,,,,,,,,,,,,,,,,,,,,,,,,,,,,,
,60732f9319c4d853c8df24f9,001,2022-04-29_03h16.56.832,classification_task,2021.2.3,MacIntel,60.0024001,60732f9319c4d853c8df24f9,626b377229c10585ec392f8a,626b3c200681088f22753111,,,,,,,,,,,,,,,,,,,,,,,a,0,"[""0.077"",""0.227"",""0.606"",""0.717""]","[1,1,1,0]",0,4,4,4,1,1,0,,,1,FALSE,3.4687,,,,,,,,,,,,,,,,,,,,,,,,,,,,,,
,60732f9319c4d853c8df24f9,001,2022-04-29_03h16.56.832,classification_task,2021.2.3,MacIntel,60.0024001,60732f9319c4d853c8df24f9,626b377229c10585ec392f8a,626b3c200681088f22753111,,,,,,,,,,,,,,,,,,,,,,,a,1,"[""0.320"",""0.719"",""0.753"",""0.903""]","[1,0,1,1]",0,5,5,5,1,0,1,,,1,FALSE,1.4646,,,,,,,,,,,,,,,,,,,,,,,,,,,,,,
,60732f9319c4d853c8df24f9,001,2022-04-29_03h16.56.832,classification_task,2021.2.3,MacIntel,60.0024001,60732f9319c4d853c8df24f9,626b377229c10585ec392f8a,626b3c200681088f22753111,,,,,,,,,,,,,,,,,,,,,,,l,1,"[""0.144"",""0.355"",""0.547"",""0.799""]","[1,0,1,1]",0,6,6,6,1,1,1,,,1,FALSE,0.6123,,,,,,,,,,,,,,,,,,,,,,,,,,,,,,
,60732f9319c4d853c8df24f9,001,2022-04-29_03h16.56.832,classification_task,2021.2.3,MacIntel,60.0024001,60732f9319c4d853c8df24f9,626b377229c10585ec392f8a,626b3c200681088f22753111,,,,,,,,,,,,,,,,,,,,,,,a,1,"[""0.320"",""0.492"",""0.753"",""0.190""]","[1,1,1,0]",0,7,7,7,1,0,1,,,1,FALSE,0.5557,,,,,,,,,,,,,,,,,,,,,,,,,,,,,,
,60732f9319c4d853c8df24f9,001,2022-04-29_03h16.56.832,classification_task,2021.2.3,MacIntel,60.0024001,60732f9319c4d853c8df24f9,626b377229c10585ec392f8a,626b3c200681088f22753111,,,,,,,,,,,,,,,,,,,,,,,a,0,"[""0.111"",""0.227"",""0.606"",""0.679""]","[0,1,1,1]",0,8,8,8,1,1,0,,,1,FALSE,4.372,,,,,,,,,,,,,,,,,,,,,,,,,,,,,,
,60732f9319c4d853c8df24f9,001,2022-04-29_03h16.56.832,classification_task,2021.2.3,MacIntel,60.0024001,60732f9319c4d853c8df24f9,626b377229c10585ec392f8a,626b3c200681088f22753111,,,,,,,,,,,,,,,,,,,,,,,a,0,"[""0.077"",""0.227"",""0.035"",""0.679""]","[1,1,0,1]",0,9,9,9,1,1,0,,,1,FALSE,4.4303,,,,,,,,,,,,,,,,,,,,,,,,,,,,,,
,60732f9319c4d853c8df24f9,001,2022-04-29_03h16.56.832,classification_task,2021.2.3,MacIntel,60.0024001,60732f9319c4d853c8df24f9,626b377229c10585ec392f8a,626b3c200681088f22753111,,,,,,,,,,,,,,,,,,,,,,,l,0,"[""0.283"",""0.035"",""0.866"",""0.950""]","[1,0,1,1]",0,10,10,10,1,0,0,,,1,FALSE,2.1146,,,,,,,,,,,,,,,,,,,,,,,,,,,,,,
,60732f9319c4d853c8df24f9,001,2022-04-29_03h16.56.832,classification_task,2021.2.3,MacIntel,60.0024001,60732f9319c4d853c8df24f9,626b377229c10585ec392f8a,626b3c200681088f22753111,,,,,,,,,,,,,,,,,,,,,,,l,1,"[""0.077"",""0.191"",""0.606"",""0.679""]","[1,0,1,1]",0,11,11,11,1,1,0,,,1,FALSE,0.8773,,,,,,,,,,,,,,,,,,,,,,,,,,,,,,
,60732f9319c4d853c8df24f9,001,2022-04-29_03h16.56.832,classification_task,2021.2.3,MacIntel,60.0024001,60732f9319c4d853c8df24f9,626b377229c10585ec392f8a,626b3c200681088f22753111,,,,,,,,,,,,,,,,,,,,,,,a,1,"[""0.320"",""0.492"",""0.190"",""0.903""]","[1,1,0,1]",0,12,12,12,1,0,1,,,1,FALSE,2.0232,,,,,,,,,,,,,,,,,,,,,,,,,,,,,,
,60732f9319c4d853c8df24f9,001,2022-04-29_03h16.56.832,classification_task,2021.2.3,MacIntel,60.0024001,60732f9319c4d853c8df24f9,626b377229c10585ec392f8a,626b3c200681088f22753111,,,,,,,,,,,,,,,,,,,,,,,a,1,"[""0.283"",""0.443"",""0.027"",""0.950""]","[1,1,0,1]",0,13,13,13,1,0,0,,,1,FALSE,2.8171,,,,,,,,,,,,,,,,,,,,,,,,,,,,,,
,60732f9319c4d853c8df24f9,001,2022-04-29_03h16.56.832,classification_task,2021.2.3,MacIntel,60.0024001,60732f9319c4d853c8df24f9,626b377229c10585ec392f8a,626b3c200681088f22753111,,,,,,,,,,,,,,,,,,,,,,,a,1,"[""0.190"",""0.492"",""0.753"",""0.903""]","[0,1,1,1]",0,14,14,14,1,0,1,,,1,FALSE,1.064,,,,,,,,,,,,,,,,,,,,,,,,,,,,,,
,60732f9319c4d853c8df24f9,001,2022-04-29_03h16.56.832,classification_task,2021.2.3,MacIntel,60.0024001,60732f9319c4d853c8df24f9,626b377229c10585ec392f8a,626b3c200681088f22753111,,,,,,,,,,,,,,,,,,,,,,,l,0,"[""0.111"",""0.443"",""0.866"",""0.950""]","[0,1,1,1]",0,15,15,15,1,0,0,,,1,FALSE,2.0048,,,,,,,,,,,,,,,,,,,,,,,,,,,,,,
,60732f9319c4d853c8df24f9,001,2022-04-29_03h16.56.832,classification_task,2021.2.3,MacIntel,60.0024001,60732f9319c4d853c8df24f9,626b377229c10585ec392f8a,626b3c200681088f22753111,,,,,,,,,,,,,,,,,,,,,,,l,1,"[""0.077"",""0.227"",""0.181"",""0.679""]","[1,1,0,1]",0,16,16,16,1,1,0,,,1,FALSE,1.3447,,,,,,,,,,,,,,,,,,,,,,,,,,,,,,
,60732f9319c4d853c8df24f9,001,2022-04-29_03h16.56.832,classification_task,2021.2.3,MacIntel,60.0024001,60732f9319c4d853c8df24f9,626b377229c10585ec392f8a,626b3c200681088f22753111,,,,,,,,,,,,,,,,,,,,,,,a,1,"[""0.038"",""0.443"",""0.866"",""0.950""]","[0,1,1,1]",0,17,17,17,1,0,0,,,1,FALSE,0.9188,,,,,,,,,,,,,,,,,,,,,,,,,,,,,,
,60732f9319c4d853c8df24f9,001,2022-04-29_03h16.56.832,classification_task,2021.2.3,MacIntel,60.0024001,60732f9319c4d853c8df24f9,626b377229c10585ec392f8a,626b3c200681088f22753111,,,,,,,,,,,,,,,,,,,,,,,a,1,"[""0.320"",""0.492"",""0.035"",""0.903""]","[1,1,0,1]",0,18,18,18,1,0,1,,,1,FALSE,1.0893,,,,,,,,,,,,,,,,,,,,,,,,,,,,,,
,60732f9319c4d853c8df24f9,001,2022-04-29_03h16.56.832,classification_task,2021.2.3,MacIntel,60.0024001,60732f9319c4d853c8df24f9,626b377229c10585ec392f8a,626b3c200681088f22753111,,,,,,,,,,,,,,,,,,,,,,,a,1,"[""0.283"",""0.443"",""0.866"",""0.719""]","[1,1,1,0]",0,19,19,19,1,0,0,,,1,FALSE,1.7188,,,,,,,,,,,,,,,,,,,,,,,,,,,,,,
,60732f9319c4d853c8df24f9,001,2022-04-29_03h16.56.832,classification_task,2021.2.3,MacIntel,60.0024001,60732f9319c4d853c8df24f9,626b377229c10585ec392f8a,626b3c200681088f22753111,,,,,,,,,,,,,,,,,,,,,,,l,1,"[""0.181"",""0.409"",""0.547"",""0.799""]","[0,1,1,1]",0,20,20,20,1,1,1,,,1,FALSE,1.3479,,,,,,,,,,,,,,,,,,,,,,,,,,,,,,
,60732f9319c4d853c8df24f9,001,2022-04-29_03h16.56.832,classification_task,2021.2.3,MacIntel,60.0024001,60732f9319c4d853c8df24f9,626b377229c10585ec392f8a,626b3c200681088f22753111,,,,,,,,,,,,,,,,,,,,,,,a,0,"[""0.111"",""0.227"",""0.606"",""0.679""]","[0,1,1,1]",0,21,21,21,1,1,0,,,1,FALSE,1.154,,,,,,,,,,,,,,,,,,,,,,,,,,,,,,
,60732f9319c4d853c8df24f9,001,2022-04-29_03h16.56.832,classification_task,2021.2.3,MacIntel,60.0024001,60732f9319c4d853c8df24f9,626b377229c10585ec392f8a,626b3c200681088f22753111,,,,,,,,,,,,,,,,,,,,,,,l,1,"[""0.144"",""0.355"",""0.547"",""0.799""]","[1,0,1,1]",0,22,22,22,1,1,1,,,1,FALSE,1.1888,,,,,,,,,,,,,,,,,,,,,,,,,,,,,,
,60732f9319c4d853c8df24f9,001,2022-04-29_03h16.56.832,classification_task,2021.2.3,MacIntel,60.0024001,60732f9319c4d853c8df24f9,626b377229c10585ec392f8a,626b3c200681088f22753111,,,,,,,,,,,,,,,,,,,,,,,a,1,"[""0.320"",""0.027"",""0.753"",""0.903""]","[1,0,1,1]",0,23,23,23,1,0,1,,,1,FALSE,0.6721,,,,,,,,,,,,,,,,,,,,,,,,,,,,,,
,60732f9319c4d853c8df24f9,001,2022-04-29_03h16.56.832,classification_task,2021.2.3,MacIntel,60.0024001,60732f9319c4d853c8df24f9,626b377229c10585ec392f8a,626b3c200681088f22753111,,,,,,,,,,,,,,,,,,,,,,,l,1,"[""0.144"",""0.409"",""0.547"",""0.368""]","[1,1,1,0]",0,24,24,24,1,1,1,,,1,FALSE,0.94,,,,,,,,,,,,,,,,,,,,,,,,,,,,,,
,60732f9319c4d853c8df24f9,001,2022-04-29_03h16.56.832,classification_task,2021.2.3,MacIntel,60.0024001,60732f9319c4d853c8df24f9,626b377229c10585ec392f8a,626b3c200681088f22753111,,,,,,,,,,,,,,,,,,,,,,,a,1,"[""0.320"",""0.492"",""0.753"",""0.355""]","[1,1,1,0]",0,25,25,25,1,0,1,,,1,FALSE,0.6726,,,,,,,,,,,,,,,,,,,,,,,,,,,,,,
,60732f9319c4d853c8df24f9,001,2022-04-29_03h16.56.832,classification_task,2021.2.3,MacIntel,60.0024001,60732f9319c4d853c8df24f9,626b377229c10585ec392f8a,626b3c200681088f22753111,,,,,,,,,,,,,,,,,,,,,,,l,1,"[""0.077"",""0.227"",""0.606"",""0.181""]","[1,1,1,0]",0,26,26,26,1,1,0,,,1,FALSE,1.4466,,,,,,,,,,,,,,,,,,,,,,,,,,,,,,
,60732f9319c4d853c8df24f9,001,2022-04-29_03h16.56.832,classification_task,2021.2.3,MacIntel,60.0024001,60732f9319c4d853c8df24f9,626b377229c10585ec392f8a,626b3c200681088f22753111,,,,,,,,,,,,,,,,,,,,,,,a,1,"[""0.283"",""0.181"",""0.866"",""0.950""]","[1,0,1,1]",0,27,27,27,1,0,0,,,1,FALSE,1.7094,,,,,,,,,,,,,,,,,,,,,,,,,,,,,,
,60732f9319c4d853c8df24f9,001,2022-04-29_03h16.56.832,classification_task,2021.2.3,MacIntel,60.0024001,60732f9319c4d853c8df24f9,626b377229c10585ec392f8a,626b3c200681088f22753111,,,,,,,,,,,,,,,,,,,,,,,a,0,"[""0.077"",""0.035"",""0.606"",""0.679""]","[1,0,1,1]",0,28,28,28,1,1,0,,,1,FALSE,1.4201,,,,,,,,,,,,,,,,,,,,,,,,,,,,,,
,60732f9319c4d853c8df24f9,001,2022-04-29_03h16.56.832,classification_task,2021.2.3,MacIntel,60.0024001,60732f9319c4d853c8df24f9,626b377229c10585ec392f8a,626b3c200681088f22753111,,,,,,,,,,,,,,,,,,,,,,,a,1,"[""0.717"",""0.492"",""0.753"",""0.903""]","[0,1,1,1]",0,29,29,29,1,0,1,,,1,FALSE,1.1774,,,,,,,,,,,,,,,,,,,,,,,,,,,,,,
,60732f9319c4d853c8df24f9,001,2022-04-29_03h16.56.832,classification_task,2021.2.3,MacIntel,60.0024001,60732f9319c4d853c8df24f9,626b377229c10585ec392f8a,626b3c200681088f22753111,,,,,,,,,,,,,,,,,,,,,,,l,0,"[""0.283"",""0.443"",""0.361"",""0.950""]","[1,1,0,1]",0,30,30,30,1,0,0,,,1,FALSE,2.8187,,,,,,,,,,,,,,,,,,,,,,,,,,,,,,
,60732f9319c4d853c8df24f9,001,2022-04-29_03h16.56.832,classification_task,2021.2.3,MacIntel,60.0024001,60732f9319c4d853c8df24f9,626b377229c10585ec392f8a,626b3c200681088f22753111,,,,,,,,,,,,,,,,,,,,,,,l,1,"[""0.144"",""0.409"",""0.355"",""0.799""]","[1,1,0,1]",0,31,31,31,1,1,1,,,1,FALSE,1.4631,,,,,,,,,,,,,,,,,,,,,,,,,,,,,,
,60732f9319c4d853c8df24f9,001,2022-04-29_03h16.56.832,classification_task,2021.2.3,MacIntel,60.0024001,60732f9319c4d853c8df24f9,626b377229c10585ec392f8a,626b3c200681088f22753111,,,,,,,,,,,,,,,,,,,,,,,l,1,"[""0.144"",""0.717"",""0.547"",""0.799""]","[1,0,1,1]",0,32,32,32,1,1,1,,,1,FALSE,1.5221,,,,,,,,,,,,,,,,,,,,,,,,,,,,,,
,60732f9319c4d853c8df24f9,001,2022-04-29_03h16.56.832,classification_task,2021.2.3,MacIntel,60.0024001,60732f9319c4d853c8df24f9,626b377229c10585ec392f8a,626b3c200681088f22753111,,,,,,,,,,,,,,,,,,,,,,,a,1,"[""0.320"",""0.492"",""0.191"",""0.903""]","[1,1,0,1]",0,33,33,33,1,0,1,,,1,FALSE,0.9535,,,,,,,,,,,,,,,,,,,,,,,,,,,,,,
,60732f9319c4d853c8df24f9,001,2022-04-29_03h16.56.832,classification_task,2021.2.3,MacIntel,60.0024001,60732f9319c4d853c8df24f9,626b377229c10585ec392f8a,626b3c200681088f22753111,,,,,,,,,,,,,,,,,,,,,,,a,1,"[""0.320"",""0.492"",""0.753"",""0.181""]","[1,1,1,0]",0,34,34,34,1,0,1,,,1,FALSE,0.6038,,,,,,,,,,,,,,,,,,,,,,,,,,,,,,
,60732f9319c4d853c8df24f9,001,2022-04-29_03h16.56.832,classification_task,2021.2.3,MacIntel,60.0024001,60732f9319c4d853c8df24f9,626b377229c10585ec392f8a,626b3c200681088f22753111,,,,,,,,,,,,,,,,,,,,,,,l,1,"[""0.190"",""0.409"",""0.547"",""0.799""]","[0,1,1,1]",0,35,35,35,1,1,1,,,1,FALSE,0.5745,,,,,,,,,,,,,,,,,,,,,,,,,,,,,,
,60732f9319c4d853c8df24f9,001,2022-04-29_03h16.56.832,classification_task,2021.2.3,MacIntel,60.0024001,60732f9319c4d853c8df24f9,626b377229c10585ec392f8a,626b3c200681088f22753111,,,,,,,,,,,,,,,,,,,,,,,l,1,"[""0.144"",""0.409"",""0.547"",""0.111""]","[1,1,1,0]",0,36,36,36,1,1,1,,,1,FALSE,0.7527,,,,,,,,,,,,,,,,,,,,,,,,,,,,,,
,60732f9319c4d853c8df24f9,001,2022-04-29_03h16.56.832,classification_task,2021.2.3,MacIntel,60.0024001,60732f9319c4d853c8df24f9,626b377229c10585ec392f8a,626b3c200681088f22753111,,,,,,,,,,,,,,,,,,,,,,,l,0,"[""0.283"",""0.443"",""0.355"",""0.950""]","[1,1,0,1]",0,37,37,37,1,0,0,,,1,FALSE,3.422,,,,,,,,,,,,,,,,,,,,,,,,,,,,,,
,60732f9319c4d853c8df24f9,001,2022-04-29_03h16.56.832,classification_task,2021.2.3,MacIntel,60.0024001,60732f9319c4d853c8df24f9,626b377229c10585ec392f8a,626b3c200681088f22753111,,,,,,,,,,,,,,,,,,,,,,,l,1,"[""0.144"",""0.409"",""0.355"",""0.799""]","[1,1,0,1]",0,38,38,38,1,1,1,,,1,FALSE,1.0599,,,,,,,,,,,,,,,,,,,,,,,,,,,,,,
,60732f9319c4d853c8df24f9,001,2022-04-29_03h16.56.832,classification_task,2021.2.3,MacIntel,60.0024001,60732f9319c4d853c8df24f9,626b377229c10585ec392f8a,626b3c200681088f22753111,,,,,,,,,,,,,,,,,,,,,,,a,1,"[""0.283"",""0.640"",""0.866"",""0.950""]","[1,0,1,1]",0,39,39,39,1,0,0,,,1,FALSE,2.2857,,,,,,,,,,,,,,,,,,,,,,,,,,,,,,
,60732f9319c4d853c8df24f9,001,2022-04-29_03h16.56.832,classification_task,2021.2.3,MacIntel,60.0024001,60732f9319c4d853c8df24f9,626b377229c10585ec392f8a,626b3c200681088f22753111,,,,,,,,,,,,,,,,,,,,,,,a,0,"[""0.111"",""0.227"",""0.606"",""0.679""]","[0,1,1,1]",0,40,40,40,1,1,0,,,1,FALSE,0.9971,,,,,,,,,,,,,,,,,,,,,,,,,,,,,,
,60732f9319c4d853c8df24f9,001,2022-04-29_03h16.56.832,classification_task,2021.2.3,MacIntel,60.0024001,60732f9319c4d853c8df24f9,626b377229c10585ec392f8a,626b3c200681088f22753111,,,,,,,,,,,,,,,,,,,,,,,a,1,"[""0.320"",""0.640"",""0.753"",""0.903""]","[1,0,1,1]",0,41,41,41,1,0,1,,,1,FALSE,0.7863,,,,,,,,,,,,,,,,,,,,,,,,,,,,,,
,60732f9319c4d853c8df24f9,001,2022-04-29_03h16.56.832,classification_task,2021.2.3,MacIntel,60.0024001,60732f9319c4d853c8df24f9,626b377229c10585ec392f8a,626b3c200681088f22753111,,,,,,,,,,,,,,,,,,,,,,,a,0,"[""0.077"",""0.227"",""0.606"",""0.038""]","[1,1,1,0]",0,42,42,42,1,1,0,,,1,FALSE,2.9707,,,,,,,,,,,,,,,,,,,,,,,,,,,,,,
,60732f9319c4d853c8df24f9,001,2022-04-29_03h16.56.832,classification_task,2021.2.3,MacIntel,60.0024001,60732f9319c4d853c8df24f9,626b377229c10585ec392f8a,626b3c200681088f22753111,,,,,,,,,,,,,,,,,,,,,,,l,0,"[""0.283"",""0.443"",""0.866"",""0.355""]","[1,1,1,0]",0,43,43,43,1,0,0,,,1,FALSE,1.7135,,,,,,,,,,,,,,,,,,,,,,,,,,,,,,
,60732f9319c4d853c8df24f9,001,2022-04-29_03h16.56.832,classification_task,2021.2.3,MacIntel,60.0024001,60732f9319c4d853c8df24f9,626b377229c10585ec392f8a,626b3c200681088f22753111,,,,,,,,,,,,,,,,,,,,,,,a,1,"[""0.191"",""0.492"",""0.753"",""0.903""]","[0,1,1,1]",0,44,44,44,1,0,1,,,1,FALSE,0.8885,,,,,,,,,,,,,,,,,,,,,,,,,,,,,,
,60732f9319c4d853c8df24f9,001,2022-04-29_03h16.56.832,classification_task,2021.2.3,MacIntel,60.0024001,60732f9319c4d853c8df24f9,626b377229c10585ec392f8a,626b3c200681088f22753111,,,,,,,,,,,,,,,,,,,,,,,a,1,"[""0.111"",""0.443"",""0.866"",""0.950""]","[0,1,1,1]",0,45,45,45,1,0,0,,,1,FALSE,1.0549,,,,,,,,,,,,,,,,,,,,,,,,,,,,,,
,60732f9319c4d853c8df24f9,001,2022-04-29_03h16.56.832,classification_task,2021.2.3,MacIntel,60.0024001,60732f9319c4d853c8df24f9,626b377229c10585ec392f8a,626b3c200681088f22753111,,,,,,,,,,,,,,,,,,,,,,,a,0,"[""0.077"",""0.227"",""0.355"",""0.679""]","[1,1,0,1]",0,46,46,46,1,1,0,,,1,FALSE,0.9297,,,,,,,,,,,,,,,,,,,,,,,,,,,,,,
,60732f9319c4d853c8df24f9,001,2022-04-29_03h16.56.832,classification_task,2021.2.3,MacIntel,60.0024001,60732f9319c4d853c8df24f9,626b377229c10585ec392f8a,626b3c200681088f22753111,,,,,,,,,,,,,,,,,,,,,,,l,1,"[""0.077"",""0.111"",""0.606"",""0.679""]","[1,0,1,1]",0,47,47,47,1,1,0,,,1,FALSE,1.9177,,,,,,,,,,,,,,,,,,,,,,,,,,,,,,
,60732f9319c4d853c8df24f9,001,2022-04-29_03h16.56.832,classification_task,2021.2.3,MacIntel,60.0024001,60732f9319c4d853c8df24f9,626b377229c10585ec392f8a,626b3c200681088f22753111,,,,,,,,,,,,,,,,,,,,,,,a,1,"[""0.320"",""0.492"",""0.753"",""0.719""]","[1,1,1,0]",0,48,48,48,1,0,1,,,1,FALSE,1.4727,,,,,,,,,,,,,,,,,,,,,,,,,,,,,,
,60732f9319c4d853c8df24f9,001,2022-04-29_03h16.56.832,classification_task,2021.2.3,MacIntel,60.0024001,60732f9319c4d853c8df24f9,626b377229c10585ec392f8a,626b3c200681088f22753111,,,,,,,,,,,,,,,,,,,,,,,l,0,"[""0.283"",""0.443"",""0.355"",""0.950""]","[1,1,0,1]",0,49,49,49,1,0,0,,,1,FALSE,1.3609,,,,,,,,,,,,,,,,,,,,,,,,,,,,,,
,60732f9319c4d853c8df24f9,001,2022-04-29_03h16.56.832,classification_task,2021.2.3,MacIntel,60.0024001,60732f9319c4d853c8df24f9,626b377229c10585ec392f8a,626b3c200681088f22753111,,,,,,,,,,,,,,,,,,,,,,,a,1,"[""0.283"",""0.368"",""0.866"",""0.950""]","[1,0,1,1]",0,50,50,50,1,0,0,,,1,FALSE,1.4552,,,,,,,,,,,,,,,,,,,,,,,,,,,,,,
,60732f9319c4d853c8df24f9,001,2022-04-29_03h16.56.832,classification_task,2021.2.3,MacIntel,60.0024001,60732f9319c4d853c8df24f9,626b377229c10585ec392f8a,626b3c200681088f22753111,,,,,,,,,,,,,,,,,,,,,,,a,0,"[""0.144"",""0.190"",""0.547"",""0.799""]","[1,0,1,1]",0,51,51,51,1,1,1,,,1,FALSE,1.1258,,,,,,,,,,,,,,,,,,,,,,,,,,,,,,
,60732f9319c4d853c8df24f9,001,2022-04-29_03h16.56.832,classification_task,2021.2.3,MacIntel,60.0024001,60732f9319c4d853c8df24f9,626b377229c10585ec392f8a,626b3c200681088f22753111,,,,,,,,,,,,,,,,,,,,,,,a,0,"[""0.077"",""0.035"",""0.606"",""0.679""]","[1,0,1,1]",0,52,52,52,1,1,0,,,1,FALSE,1.8533,,,,,,,,,,,,,,,,,,,,,,,,,,,,,,
,60732f9319c4d853c8df24f9,001,2022-04-29_03h16.56.832,classification_task,2021.2.3,MacIntel,60.0024001,60732f9319c4d853c8df24f9,626b377229c10585ec392f8a,626b3c200681088f22753111,,,,,,,,,,,,,,,,,,,,,,,a,0,"[""0.077"",""0.227"",""0.606"",""0.027""]","[1,1,1,0]",0,53,53,53,1,1,0,,,1,FALSE,1.4478,,,,,,,,,,,,,,,,,,,,,,,,,,,,,,
,60732f9319c4d853c8df24f9,001,2022-04-29_03h16.56.832,classification_task,2021.2.3,MacIntel,60.0024001,60732f9319c4d853c8df24f9,626b377229c10585ec392f8a,626b3c200681088f22753111,,,,,,,,,,,,,,,,,,,,,,,l,1,"[""0.363"",""0.227"",""0.606"",""0.679""]","[0,1,1,1]",0,54,54,54,1,1,0,,,1,FALSE,0.9107,,,,,,,,,,,,,,,,,,,,,,,,,,,,,,
,60732f9319c4d853c8df24f9,001,2022-04-29_03h16.56.832,classification_task,2021.2.3,MacIntel,60.0024001,60732f9319c4d853c8df24f9,626b377229c10585ec392f8a,626b3c200681088f22753111,,,,,,,,,,,,,,,,,,,,,,,l,0,"[""0.719"",""0.492"",""0.753"",""0.903""]","[0,1,1,1]",0,55,55,55,1,0,1,,,1,FALSE,0.8534,,,,,,,,,,,,,,,,,,,,,,,,,,,,,,
,60732f9319c4d853c8df24f9,001,2022-04-29_03h16.56.832,classification_task,2021.2.3,MacIntel,60.0024001,60732f9319c4d853c8df24f9,626b377229c10585ec392f8a,626b3c200681088f22753111,,,,,,,,,,,,,,,,,,,,,,,a,0,"[""0.144"",""0.409"",""0.547"",""0.368""]","[1,1,1,0]",0,56,56,56,1,1,1,,,1,FALSE,0.7403,,,,,,,,,,,,,,,,,,,,,,,,,,,,,,
,60732f9319c4d853c8df24f9,001,2022-04-29_03h16.56.832,classification_task,2021.2.3,MacIntel,60.0024001,60732f9319c4d853c8df24f9,626b377229c10585ec392f8a,626b3c200681088f22753111,,,,,,,,,,,,,,,,,,,,,,,l,1,"[""0.144"",""0.409"",""0.355"",""0.799""]","[1,1,0,1]",0,57,57,57,1,1,1,,,1,FALSE,2.1871,,,,,,,,,,,,,,,,,,,,,,,,,,,,,,
,60732f9319c4d853c8df24f9,001,2022-04-29_03h16.56.832,classification_task,2021.2.3,MacIntel,60.0024001,60732f9319c4d853c8df24f9,626b377229c10585ec392f8a,626b3c200681088f22753111,,,,,,,,,,,,,,,,,,,,,,,l,0,"[""0.361"",""0.443"",""0.866"",""0.950""]","[0,1,1,1]",0,58,58,58,1,0,0,,,1,FALSE,2.3382,,,,,,,,,,,,,,,,,,,,,,,,,,,,,,
,60732f9319c4d853c8df24f9,001,2022-04-29_03h16.56.832,classification_task,2021.2.3,MacIntel,60.0024001,60732f9319c4d853c8df24f9,626b377229c10585ec392f8a,626b3c200681088f22753111,,,,,,,,,,,,,,,,,,,,,,,a,0,"[""0.191"",""0.409"",""0.547"",""0.799""]","[0,1,1,1]",0,59,59,59,1,1,1,,,1,FALSE,1.4638,,,,,,,,,,,,,,,,,,,,,,,,,,,,,,
,60732f9319c4d853c8df24f9,001,2022-04-29_03h16.56.832,classification_task,2021.2.3,MacIntel,60.0024001,60732f9319c4d853c8df24f9,626b377229c10585ec392f8a,626b3c200681088f22753111,,,,,,,,,,,,,,,,,,,,,,,l,0,"[""0.283"",""0.443"",""0.866"",""0.111""]","[1,1,1,0]",0,60,60,60,1,0,0,,,1,FALSE,2.6216,,,,,,,,,,,,,,,,,,,,,,,,,,,,,,
,60732f9319c4d853c8df24f9,001,2022-04-29_03h16.56.832,classification_task,2021.2.3,MacIntel,60.0024001,60732f9319c4d853c8df24f9,626b377229c10585ec392f8a,626b3c200681088f22753111,,,,,,,,,,,,,,,,,,,,,,,a,0,"[""0.077"",""0.227"",""0.361"",""0.679""]","[1,1,0,1]",0,61,61,61,1,1,0,,,1,FALSE,1.7807,,,,,,,,,,,,,,,,,,,,,,,,,,,,,,
,60732f9319c4d853c8df24f9,001,2022-04-29_03h16.56.832,classification_task,2021.2.3,MacIntel,60.0024001,60732f9319c4d853c8df24f9,626b377229c10585ec392f8a,626b3c200681088f22753111,,,,,,,,,,,,,,,,,,,,,,,a,1,"[""0.320"",""0.492"",""0.181"",""0.903""]","[1,1,0,1]",0,62,62,62,1,0,1,,,1,FALSE,2.2206,,,,,,,,,,,,,,,,,,,,,,,,,,,,,,
,60732f9319c4d853c8df24f9,001,2022-04-29_03h16.56.832,classification_task,2021.2.3,MacIntel,60.0024001,60732f9319c4d853c8df24f9,626b377229c10585ec392f8a,626b3c200681088f22753111,,,,,,,,,,,,,,,,,,,,,,,a,1,"[""0.320"",""0.181"",""0.753"",""0.903""]","[1,0,1,1]",0,63,63,63,1,0,1,,,1,FALSE,1.4121,,,,,,,,,,,,,,,,,,,,,,,,,,,,,,
,60732f9319c4d853c8df24f9,001,2022-04-29_03h16.56.832,classification_task,2021.2.3,MacIntel,60.0024001,60732f9319c4d853c8df24f9,626b377229c10585ec392f8a,626b3c200681088f22753111,,,,,,,,,,,,,,,,,,,,,,,,,,,,,,,,,,,,,,,0, ,,0,0.847571282,199.0191,0,1,1,1,1,2,2,,,,,,,,,,,,,,,,,
,60732f9319c4d853c8df24f9,001,2022-04-29_03h16.56.832,classification_task,2021.2.3,MacIntel,60.0024001,60732f9319c4d853c8df24f9,626b377229c10585ec392f8a,626b3c200681088f22753111,,,,,,,,,,,,,,,,,,,,,,,,,,,,,,,,,,,,,,,1,  ,,0,7.122832158,208.1687,0,1,1,1,1,2,2,,,,,,,,,,,,,,,,,
,60732f9319c4d853c8df24f9,001,2022-04-29_03h16.56.832,classification_task,2021.2.3,MacIntel,60.0024001,60732f9319c4d853c8df24f9,626b377229c10585ec392f8a,626b3c200681088f22753111,,,,,,,,,,,,,,,,,,,,,,,,,,,,,,,,,,,,,,,2,  ,,0,7.903278402,220.385,0,1,1,1,1,2,2,,,,,,,,,,,,,,,,,
,60732f9319c4d853c8df24f9,001,2022-04-29_03h16.56.832,classification_task,2021.2.3,MacIntel,60.0024001,60732f9319c4d853c8df24f9,626b377229c10585ec392f8a,626b3c200681088f22753111,,,,,,,,,,,,,,,,,,,,,,,,,,,,,,,,,,,,,,,,,,,,,0,1,1,1,1,,2,,,,,,,,,,,,,,,,,
,60732f9319c4d853c8df24f9,001,2022-04-29_03h16.56.832,classification_task,2021.2.3,MacIntel,60.0024001,60732f9319c4d853c8df24f9,626b377229c10585ec392f8a,626b3c200681088f22753111,,,,,,,,,,,,,,,,,,,,,space,12.1329,a,0,"[""0.144"",""0.409"",""0.547"",""0.717""]","[1,1,1,0]",0,0,0,0,1,1,1,,,1,FALSE,4.3643,,,,,,,,,,,,,,,,,,,,,,,,,,,,,,
,60732f9319c4d853c8df24f9,001,2022-04-29_03h16.56.832,classification_task,2021.2.3,MacIntel,60.0024001,60732f9319c4d853c8df24f9,626b377229c10585ec392f8a,626b3c200681088f22753111,,,,,,,,,,,,,,,,,,,,,,,l,0,"[""0.320"",""0.492"",""0.753"",""0.361""]","[1,1,1,0]",0,1,1,1,1,0,1,,,1,FALSE,1.8517,,,,,,,,,,,,,,,,,,,,,,,,,,,,,,
,60732f9319c4d853c8df24f9,001,2022-04-29_03h16.56.832,classification_task,2021.2.3,MacIntel,60.0024001,60732f9319c4d853c8df24f9,626b377229c10585ec392f8a,626b3c200681088f22753111,,,,,,,,,,,,,,,,,,,,,,,l,0,"[""0.320"",""0.492"",""0.035"",""0.903""]","[1,1,0,1]",0,2,2,2,1,0,1,,,1,FALSE,3.6474,,,,,,,,,,,,,,,,,,,,,,,,,,,,,,
,60732f9319c4d853c8df24f9,001,2022-04-29_03h16.56.832,classification_task,2021.2.3,MacIntel,60.0024001,60732f9319c4d853c8df24f9,626b377229c10585ec392f8a,626b3c200681088f22753111,,,,,,,,,,,,,,,,,,,,,,,a,0,"[""0.363"",""0.409"",""0.547"",""0.799""]","[0,1,1,1]",0,3,3,3,1,1,1,,,1,FALSE,2.2991,,,,,,,,,,,,,,,,,,,,,,,,,,,,,,
,60732f9319c4d853c8df24f9,001,2022-04-29_03h16.56.832,classification_task,2021.2.3,MacIntel,60.0024001,60732f9319c4d853c8df24f9,626b377229c10585ec392f8a,626b3c200681088f22753111,,,,,,,,,,,,,,,,,,,,,,,l,0,"[""0.719"",""0.443"",""0.866"",""0.950""]","[0,1,1,1]",0,4,4,4,1,0,0,,,1,FALSE,2.58,,,,,,,,,,,,,,,,,,,,,,,,,,,,,,
,60732f9319c4d853c8df24f9,001,2022-04-29_03h16.56.832,classification_task,2021.2.3,MacIntel,60.0024001,60732f9319c4d853c8df24f9,626b377229c10585ec392f8a,626b3c200681088f22753111,,,,,,,,,,,,,,,,,,,,,,,a,0,"[""0.077"",""0.191"",""0.606"",""0.679""]","[1,0,1,1]",0,5,5,5,1,1,0,,,1,FALSE,2.0587,,,,,,,,,,,,,,,,,,,,,,,,,,,,,,
,60732f9319c4d853c8df24f9,001,2022-04-29_03h16.56.832,classification_task,2021.2.3,MacIntel,60.0024001,60732f9319c4d853c8df24f9,626b377229c10585ec392f8a,626b3c200681088f22753111,,,,,,,,,,,,,,,,,,,,,,,a,0,"[""0.027"",""0.227"",""0.606"",""0.679""]","[0,1,1,1]",0,6,6,6,1,1,0,,,1,FALSE,1.3156,,,,,,,,,,,,,,,,,,,,,,,,,,,,,,
,60732f9319c4d853c8df24f9,001,2022-04-29_03h16.56.832,classification_task,2021.2.3,MacIntel,60.0024001,60732f9319c4d853c8df24f9,626b377229c10585ec392f8a,626b3c200681088f22753111,,,,,,,,,,,,,,,,,,,,,,,l,0,"[""0.283"",""0.443"",""0.866"",""0.719""]","[1,1,1,0]",0,7,7,7,1,0,0,,,1,FALSE,1.6603,,,,,,,,,,,,,,,,,,,,,,,,,,,,,,
,60732f9319c4d853c8df24f9,001,2022-04-29_03h16.56.832,classification_task,2021.2.3,MacIntel,60.0024001,60732f9319c4d853c8df24f9,626b377229c10585ec392f8a,626b3c200681088f22753111,,,,,,,,,,,,,,,,,,,,,,,a,0,"[""0.077"",""0.227"",""0.713"",""0.679""]","[1,1,0,1]",0,8,8,8,1,1,0,,,1,FALSE,1.3062,,,,,,,,,,,,,,,,,,,,,,,,,,,,,,
,60732f9319c4d853c8df24f9,001,2022-04-29_03h16.56.832,classification_task,2021.2.3,MacIntel,60.0024001,60732f9319c4d853c8df24f9,626b377229c10585ec392f8a,626b3c200681088f22753111,,,,,,,,,,,,,,,,,,,,,,,l,0,"[""0.283"",""0.038"",""0.866"",""0.950""]","[1,0,1,1]",0,9,9,9,1,0,0,,,1,FALSE,1.8811,,,,,,,,,,,,,,,,,,,,,,,,,,,,,,
,60732f9319c4d853c8df24f9,001,2022-04-29_03h16.56.832,classification_task,2021.2.3,MacIntel,60.0024001,60732f9319c4d853c8df24f9,626b377229c10585ec392f8a,626b3c200681088f22753111,,,,,,,,,,,,,,,,,,,,,,,l,0,"[""0.320"",""0.035"",""0.753"",""0.903""]","[1,0,1,1]",0,10,10,10,1,0,1,,,1,FALSE,3.1267,,,,,,,,,,,,,,,,,,,,,,,,,,,,,,
,60732f9319c4d853c8df24f9,001,2022-04-29_03h16.56.832,classification_task,2021.2.3,MacIntel,60.0024001,60732f9319c4d853c8df24f9,626b377229c10585ec392f8a,626b3c200681088f22753111,,,,,,,,,,,,,,,,,,,,,,,a,0,"[""0.144"",""0.361"",""0.547"",""0.799""]","[1,0,1,1]",0,11,11,11,1,1,1,,,1,FALSE,1.2344,,,,,,,,,,,,,,,,,,,,,,,,,,,,,,
,60732f9319c4d853c8df24f9,001,2022-04-29_03h16.56.832,classification_task,2021.2.3,MacIntel,60.0024001,60732f9319c4d853c8df24f9,626b377229c10585ec392f8a,626b3c200681088f22753111,,,,,,,,,,,,,,,,,,,,,,,a,0,"[""0.144"",""0.409"",""0.111"",""0.799""]","[1,1,0,1]",0,12,12,12,1,1,1,,,1,FALSE,1.36,,,,,,,,,,,,,,,,,,,,,,,,,,,,,,
,60732f9319c4d853c8df24f9,001,2022-04-29_03h16.56.832,classification_task,2021.2.3,MacIntel,60.0024001,60732f9319c4d853c8df24f9,626b377229c10585ec392f8a,626b3c200681088f22753111,,,,,,,,,,,,,,,,,,,,,,,a,1,"[""0.283"",""0.443"",""0.111"",""0.950""]","[1,1,0,1]",0,13,13,13,1,0,0,,,1,FALSE,3.4088,,,,,,,,,,,,,,,,,,,,,,,,,,,,,,
,60732f9319c4d853c8df24f9,001,2022-04-29_03h16.56.832,classification_task,2021.2.3,MacIntel,60.0024001,60732f9319c4d853c8df24f9,626b377229c10585ec392f8a,626b3c200681088f22753111,,,,,,,,,,,,,,,,,,,,,,,a,0,"[""0.077"",""0.227"",""0.606"",""0.363""]","[1,1,1,0]",0,14,14,14,1,1,0,,,1,FALSE,2.3632,,,,,,,,,,,,,,,,,,,,,,,,,,,,,,
,60732f9319c4d853c8df24f9,001,2022-04-29_03h16.56.832,classification_task,2021.2.3,MacIntel,60.0024001,60732f9319c4d853c8df24f9,626b377229c10585ec392f8a,626b3c200681088f22753111,,,,,,,,,,,,,,,,,,,,,,,l,0,"[""0.363"",""0.492"",""0.753"",""0.903""]","[0,1,1,1]",0,15,15,15,1,0,1,,,1,FALSE,3.8547,,,,,,,,,,,,,,,,,,,,,,,,,,,,,,
,60732f9319c4d853c8df24f9,001,2022-04-29_03h16.56.832,classification_task,2021.2.3,MacIntel,60.0024001,60732f9319c4d853c8df24f9,626b377229c10585ec392f8a,626b3c200681088f22753111,,,,,,,,,,,,,,,,,,,,,,,a,0,"[""0.144"",""0.409"",""0.355"",""0.799""]","[1,1,0,1]",0,16,16,16,1,1,1,,,1,FALSE,1.9502,,,,,,,,,,,,,,,,,,,,,,,,,,,,,,
,60732f9319c4d853c8df24f9,001,2022-04-29_03h16.56.832,classification_task,2021.2.3,MacIntel,60.0024001,60732f9319c4d853c8df24f9,626b377229c10585ec392f8a,626b3c200681088f22753111,,,,,,,,,,,,,,,,,,,,,,,a,0,"[""0.144"",""0.035"",""0.547"",""0.799""]","[1,0,1,1]",0,17,17,17,1,1,1,,,1,FALSE,2.5935,,,,,,,,,,,,,,,,,,,,,,,,,,,,,,
,60732f9319c4d853c8df24f9,001,2022-04-29_03h16.56.832,classification_task,2021.2.3,MacIntel,60.0024001,60732f9319c4d853c8df24f9,626b377229c10585ec392f8a,626b3c200681088f22753111,,,,,,,,,,,,,,,,,,,,,,,l,0,"[""0.320"",""0.492"",""0.713"",""0.903""]","[1,1,0,1]",0,18,18,18,1,0,1,,,1,FALSE,1.3864,,,,,,,,,,,,,,,,,,,,,,,,,,,,,,
,60732f9319c4d853c8df24f9,001,2022-04-29_03h16.56.832,classification_task,2021.2.3,MacIntel,60.0024001,60732f9319c4d853c8df24f9,626b377229c10585ec392f8a,626b3c200681088f22753111,,,,,,,,,,,,,,,,,,,,,,,a,0,"[""0.077"",""0.227"",""0.606"",""0.355""]","[1,1,1,0]",0,19,19,19,1,1,0,,,1,FALSE,2.444,,,,,,,,,,,,,,,,,,,,,,,,,,,,,,
,60732f9319c4d853c8df24f9,001,2022-04-29_03h16.56.832,classification_task,2021.2.3,MacIntel,60.0024001,60732f9319c4d853c8df24f9,626b377229c10585ec392f8a,626b3c200681088f22753111,,,,,,,,,,,,,,,,,,,,,,,a,0,"[""0.077"",""0.227"",""0.035"",""0.679""]","[1,1,0,1]",0,20,20,20,1,1,0,,,1,FALSE,2.3156,,,,,,,,,,,,,,,,,,,,,,,,,,,,,,
,60732f9319c4d853c8df24f9,001,2022-04-29_03h16.56.832,classification_task,2021.2.3,MacIntel,60.0024001,60732f9319c4d853c8df24f9,626b377229c10585ec392f8a,626b3c200681088f22753111,,,,,,,,,,,,,,,,,,,,,,,l,0,"[""0.320"",""0.492"",""0.753"",""0.027""]","[1,1,1,0]",0,21,21,21,1,0,1,,,1,FALSE,2.1622,,,,,,,,,,,,,,,,,,,,,,,,,,,,,,
,60732f9319c4d853c8df24f9,001,2022-04-29_03h16.56.832,classification_task,2021.2.3,MacIntel,60.0024001,60732f9319c4d853c8df24f9,626b377229c10585ec392f8a,626b3c200681088f22753111,,,,,,,,,,,,,,,,,,,,,,,l,1,"[""0.640"",""0.227"",""0.606"",""0.679""]","[0,1,1,1]",0,22,22,22,1,1,0,,,1,FALSE,3.4591,,,,,,,,,,,,,,,,,,,,,,,,,,,,,,
,60732f9319c4d853c8df24f9,001,2022-04-29_03h16.56.832,classification_task,2021.2.3,MacIntel,60.0024001,60732f9319c4d853c8df24f9,626b377229c10585ec392f8a,626b3c200681088f22753111,,,,,,,,,,,,,,,,,,,,,,,a,1,"[""0.283"",""0.443"",""0.866"",""0.361""]","[1,1,1,0]",0,23,23,23,1,0,0,,,1,FALSE,2.9148,,,,,,,,,,,,,,,,,,,,,,,,,,,,,,
,60732f9319c4d853c8df24f9,001,2022-04-29_03h16.56.832,classification_task,2021.2.3,MacIntel,60.0024001,60732f9319c4d853c8df24f9,626b377229c10585ec392f8a,626b3c200681088f22753111,,,,,,,,,,,,,,,,,,,,,,,l,0,"[""0.320"",""0.191"",""0.753"",""0.903""]","[1,0,1,1]",0,24,24,24,1,0,1,,,1,FALSE,1.8169,,,,,,,,,,,,,,,,,,,,,,,,,,,,,,
,60732f9319c4d853c8df24f9,001,2022-04-29_03h16.56.832,classification_task,2021.2.3,MacIntel,60.0024001,60732f9319c4d853c8df24f9,626b377229c10585ec392f8a,626b3c200681088f22753111,,,,,,,,,,,,,,,,,,,,,,,l,0,"[""0.283"",""0.713"",""0.866"",""0.950""]","[1,0,1,1]",0,25,25,25,1,0,0,,,1,FALSE,2.6768,,,,,,,,,,,,,,,,,,,,,,,,,,,,,,
,60732f9319c4d853c8df24f9,001,2022-04-29_03h16.56.832,classification_task,2021.2.3,MacIntel,60.0024001,60732f9319c4d853c8df24f9,626b377229c10585ec392f8a,626b3c200681088f22753111,,,,,,,,,,,,,,,,,,,,,,,a,0,"[""0.077"",""0.190"",""0.606"",""0.679""]","[1,0,1,1]",0,26,26,26,1,1,0,,,1,FALSE,0.9641,,,,,,,,,,,,,,,,,,,,,,,,,,,,,,
,60732f9319c4d853c8df24f9,001,2022-04-29_03h16.56.832,classification_task,2021.2.3,MacIntel,60.0024001,60732f9319c4d853c8df24f9,626b377229c10585ec392f8a,626b3c200681088f22753111,,,,,,,,,,,,,,,,,,,,,,,a,0,"[""0.191"",""0.409"",""0.547"",""0.799""]","[0,1,1,1]",0,27,27,27,1,1,1,,,1,FALSE,1.7562,,,,,,,,,,,,,,,,,,,,,,,,,,,,,,
,60732f9319c4d853c8df24f9,001,2022-04-29_03h16.56.832,classification_task,2021.2.3,MacIntel,60.0024001,60732f9319c4d853c8df24f9,626b377229c10585ec392f8a,626b3c200681088f22753111,,,,,,,,,,,,,,,,,,,,,,,a,0,"[""0.144"",""0.409"",""0.547"",""0.355""]","[1,1,1,0]",0,28,28,28,1,1,1,,,1,FALSE,1.6594,,,,,,,,,,,,,,,,,,,,,,,,,,,,,,
,60732f9319c4d853c8df24f9,001,2022-04-29_03h16.56.832,classification_task,2021.2.3,MacIntel,60.0024001,60732f9319c4d853c8df24f9,626b377229c10585ec392f8a,626b3c200681088f22753111,,,,,,,,,,,,,,,,,,,,,,,l,0,"[""0.191"",""0.492"",""0.753"",""0.903""]","[0,1,1,1]",0,29,29,29,1,0,1,,,1,FALSE,1.3337,,,,,,,,,,,,,,,,,,,,,,,,,,,,,,
,60732f9319c4d853c8df24f9,001,2022-04-29_03h16.56.832,classification_task,2021.2.3,MacIntel,60.0024001,60732f9319c4d853c8df24f9,626b377229c10585ec392f8a,626b3c200681088f22753111,,,,,,,,,,,,,,,,,,,,,,,l,0,"[""0.283"",""0.443"",""0.038"",""0.950""]","[1,1,0,1]",0,30,30,30,1,0,0,,,1,FALSE,1.6772,,,,,,,,,,,,,,,,,,,,,,,,,,,,,,
,60732f9319c4d853c8df24f9,001,2022-04-29_03h16.56.832,classification_task,2021.2.3,MacIntel,60.0024001,60732f9319c4d853c8df24f9,626b377229c10585ec392f8a,626b3c200681088f22753111,,,,,,,,,,,,,,,,,,,,,,,l,0,"[""0.719"",""0.443"",""0.866"",""0.950""]","[0,1,1,1]",0,31,31,31,1,0,0,,,1,FALSE,1.674,,,,,,,,,,,,,,,,,,,,,,,,,,,,,,
,60732f9319c4d853c8df24f9,001,2022-04-29_03h16.56.832,classification_task,2021.2.3,MacIntel,60.0024001,60732f9319c4d853c8df24f9,626b377229c10585ec392f8a,626b3c200681088f22753111,,,,,,,,,,,,,,,,,,,,,,,a,0,"[""0.077"",""0.355"",""0.606"",""0.679""]","[1,0,1,1]",0,32,32,32,1,1,0,,,1,FALSE,1.7379,,,,,,,,,,,,,,,,,,,,,,,,,,,,,,
,60732f9319c4d853c8df24f9,001,2022-04-29_03h16.56.832,classification_task,2021.2.3,MacIntel,60.0024001,60732f9319c4d853c8df24f9,626b377229c10585ec392f8a,626b3c200681088f22753111,,,,,,,,,,,,,,,,,,,,,,,a,1,"[""0.283"",""0.443"",""0.866"",""0.190""]","[1,1,1,0]",0,33,33,33,1,0,0,,,1,FALSE,2.8279,,,,,,,,,,,,,,,,,,,,,,,,,,,,,,
,60732f9319c4d853c8df24f9,001,2022-04-29_03h16.56.832,classification_task,2021.2.3,MacIntel,60.0024001,60732f9319c4d853c8df24f9,626b377229c10585ec392f8a,626b3c200681088f22753111,,,,,,,,,,,,,,,,,,,,,,,a,0,"[""0.144"",""0.409"",""0.547"",""0.035""]","[1,1,1,0]",0,34,34,34,1,1,1,,,1,FALSE,2.2962,,,,,,,,,,,,,,,,,,,,,,,,,,,,,,
,60732f9319c4d853c8df24f9,001,2022-04-29_03h16.56.832,classification_task,2021.2.3,MacIntel,60.0024001,60732f9319c4d853c8df24f9,626b377229c10585ec392f8a,626b3c200681088f22753111,,,,,,,,,,,,,,,,,,,,,,,l,0,"[""0.320"",""0.492"",""0.035"",""0.903""]","[1,1,0,1]",0,35,35,35,1,0,1,,,1,FALSE,1.5908,,,,,,,,,,,,,,,,,,,,,,,,,,,,,,
,60732f9319c4d853c8df24f9,001,2022-04-29_03h16.56.832,classification_task,2021.2.3,MacIntel,60.0024001,60732f9319c4d853c8df24f9,626b377229c10585ec392f8a,626b3c200681088f22753111,,,,,,,,,,,,,,,,,,,,,,,a,0,"[""0.144"",""0.409"",""0.363"",""0.799""]","[1,1,0,1]",0,36,36,36,1,1,1,,,1,FALSE,2.9139,,,,,,,,,,,,,,,,,,,,,,,,,,,,,,
,60732f9319c4d853c8df24f9,001,2022-04-29_03h16.56.832,classification_task,2021.2.3,MacIntel,60.0024001,60732f9319c4d853c8df24f9,626b377229c10585ec392f8a,626b3c200681088f22753111,,,,,,,,,,,,,,,,,,,,,,,a,1,"[""0.283"",""0.035"",""0.866"",""0.950""]","[1,0,1,1]",0,37,37,37,1,0,0,,,1,FALSE,2.5487,,,,,,,,,,,,,,,,,,,,,,,,,,,,,,
,60732f9319c4d853c8df24f9,001,2022-04-29_03h16.56.832,classification_task,2021.2.3,MacIntel,60.0024001,60732f9319c4d853c8df24f9,626b377229c10585ec392f8a,626b3c200681088f22753111,,,,,,,,,,,,,,,,,,,,,,,a,0,"[""0.077"",""0.227"",""0.606"",""0.713""]","[1,1,1,0]",0,38,38,38,1,1,0,,,1,FALSE,1.2296,,,,,,,,,,,,,,,,,,,,,,,,,,,,,,
,60732f9319c4d853c8df24f9,001,2022-04-29_03h16.56.832,classification_task,2021.2.3,MacIntel,60.0024001,60732f9319c4d853c8df24f9,626b377229c10585ec392f8a,626b3c200681088f22753111,,,,,,,,,,,,,,,,,,,,,,,a,0,"[""0.077"",""0.227"",""0.027"",""0.679""]","[1,1,0,1]",0,39,39,39,1,1,0,,,1,FALSE,1.8004,,,,,,,,,,,,,,,,,,,,,,,,,,,,,,
,60732f9319c4d853c8df24f9,001,2022-04-29_03h16.56.832,classification_task,2021.2.3,MacIntel,60.0024001,60732f9319c4d853c8df24f9,626b377229c10585ec392f8a,626b3c200681088f22753111,,,,,,,,,,,,,,,,,,,,,,,a,0,"[""0.144"",""0.038"",""0.547"",""0.799""]","[1,0,1,1]",0,40,40,40,1,1,1,,,1,FALSE,2.9579,,,,,,,,,,,,,,,,,,,,,,,,,,,,,,
,60732f9319c4d853c8df24f9,001,2022-04-29_03h16.56.832,classification_task,2021.2.3,MacIntel,60.0024001,60732f9319c4d853c8df24f9,626b377229c10585ec392f8a,626b3c200681088f22753111,,,,,,,,,,,,,,,,,,,,,,,l,1,"[""0.361"",""0.409"",""0.547"",""0.799""]","[0,1,1,1]",0,41,41,41,1,1,1,,,1,FALSE,2.115,,,,,,,,,,,,,,,,,,,,,,,,,,,,,,
,60732f9319c4d853c8df24f9,001,2022-04-29_03h16.56.832,classification_task,2021.2.3,MacIntel,60.0024001,60732f9319c4d853c8df24f9,626b377229c10585ec392f8a,626b3c200681088f22753111,,,,,,,,,,,,,,,,,,,,,,,l,1,"[""0.640"",""0.227"",""0.606"",""0.679""]","[0,1,1,1]",0,42,42,42,1,1,0,,,1,FALSE,1.4549,,,,,,,,,,,,,,,,,,,,,,,,,,,,,,
,60732f9319c4d853c8df24f9,001,2022-04-29_03h16.56.832,classification_task,2021.2.3,MacIntel,60.0024001,60732f9319c4d853c8df24f9,626b377229c10585ec392f8a,626b3c200681088f22753111,,,,,,,,,,,,,,,,,,,,,,,l,0,"[""0.320"",""0.492"",""0.753"",""0.713""]","[1,1,1,0]",0,43,43,43,1,0,1,,,1,FALSE,1.3444,,,,,,,,,,,,,,,,,,,,,,,,,,,,,,
,60732f9319c4d853c8df24f9,001,2022-04-29_03h16.56.832,classification_task,2021.2.3,MacIntel,60.0024001,60732f9319c4d853c8df24f9,626b377229c10585ec392f8a,626b3c200681088f22753111,,,,,,,,,,,,,,,,,,,,,,,l,0,"[""0.283"",""0.443"",""0.355"",""0.950""]","[1,1,0,1]",0,44,44,44,1,0,0,,,1,FALSE,2.2254,,,,,,,,,,,,,,,,,,,,,,,,,,,,,,
,60732f9319c4d853c8df24f9,001,2022-04-29_03h16.56.832,classification_task,2021.2.3,MacIntel,60.0024001,60732f9319c4d853c8df24f9,626b377229c10585ec392f8a,626b3c200681088f22753111,,,,,,,,,,,,,,,,,,,,,,,l,0,"[""0.320"",""0.111"",""0.753"",""0.903""]","[1,0,1,1]",0,45,45,45,1,0,1,,,1,FALSE,1.4,,,,,,,,,,,,,,,,,,,,,,,,,,,,,,
,60732f9319c4d853c8df24f9,001,2022-04-29_03h16.56.832,classification_task,2021.2.3,MacIntel,60.0024001,60732f9319c4d853c8df24f9,626b377229c10585ec392f8a,626b3c200681088f22753111,,,,,,,,,,,,,,,,,,,,,,,l,0,"[""0.355"",""0.492"",""0.753"",""0.903""]","[0,1,1,1]",0,46,46,46,1,0,1,,,1,FALSE,1.5596,,,,,,,,,,,,,,,,,,,,,,,,,,,,,,
,60732f9319c4d853c8df24f9,001,2022-04-29_03h16.56.832,classification_task,2021.2.3,MacIntel,60.0024001,60732f9319c4d853c8df24f9,626b377229c10585ec392f8a,626b3c200681088f22753111,,,,,,,,,,,,,,,,,,,,,,,a,1,"[""0.355"",""0.443"",""0.866"",""0.950""]","[0,1,1,1]",0,47,47,47,1,0,0,,,1,FALSE,3.3284,,,,,,,,,,,,,,,,,,,,,,,,,,,,,,
,60732f9319c4d853c8df24f9,001,2022-04-29_03h16.56.832,classification_task,2021.2.3,MacIntel,60.0024001,60732f9319c4d853c8df24f9,626b377229c10585ec392f8a,626b3c200681088f22753111,,,,,,,,,,,,,,,,,,,,,,,l,1,"[""0.077"",""0.227"",""0.361"",""0.679""]","[1,1,0,1]",0,48,48,48,1,1,0,,,1,FALSE,1.7558,,,,,,,,,,,,,,,,,,,,,,,,,,,,,,
,60732f9319c4d853c8df24f9,001,2022-04-29_03h16.56.832,classification_task,2021.2.3,MacIntel,60.0024001,60732f9319c4d853c8df24f9,626b377229c10585ec392f8a,626b3c200681088f22753111,,,,,,,,,,,,,,,,,,,,,,,a,0,"[""0.144"",""0.409"",""0.181"",""0.799""]","[1,1,0,1]",0,49,49,49,1,1,1,,,1,FALSE,2.5802,,,,,,,,,,,,,,,,,,,,,,,,,,,,,,
,60732f9319c4d853c8df24f9,001,2022-04-29_03h16.56.832,classification_task,2021.2.3,MacIntel,60.0024001,60732f9319c4d853c8df24f9,626b377229c10585ec392f8a,626b3c200681088f22753111,,,,,,,,,,,,,,,,,,,,,,,a,1,"[""0.320"",""0.355"",""0.753"",""0.903""]","[1,0,1,1]",0,50,50,50,1,0,1,,,1,FALSE,2.3565,,,,,,,,,,,,,,,,,,,,,,,,,,,,,,
,60732f9319c4d853c8df24f9,001,2022-04-29_03h16.56.832,classification_task,2021.2.3,MacIntel,60.0024001,60732f9319c4d853c8df24f9,626b377229c10585ec392f8a,626b3c200681088f22753111,,,,,,,,,,,,,,,,,,,,,,,a,0,"[""0.144"",""0.409"",""0.547"",""0.640""]","[1,1,1,0]",0,51,51,51,1,1,1,,,1,FALSE,2.7028,,,,,,,,,,,,,,,,,,,,,,,,,,,,,,
,60732f9319c4d853c8df24f9,001,2022-04-29_03h16.56.832,classification_task,2021.2.3,MacIntel,60.0024001,60732f9319c4d853c8df24f9,626b377229c10585ec392f8a,626b3c200681088f22753111,,,,,,,,,,,,,,,,,,,,,,,l,1,"[""0.111"",""0.227"",""0.606"",""0.679""]","[0,1,1,1]",0,52,52,52,1,1,0,,,1,FALSE,1.1349,,,,,,,,,,,,,,,,,,,,,,,,,,,,,,
,60732f9319c4d853c8df24f9,001,2022-04-29_03h16.56.832,classification_task,2021.2.3,MacIntel,60.0024001,60732f9319c4d853c8df24f9,626b377229c10585ec392f8a,626b3c200681088f22753111,,,,,,,,,,,,,,,,,,,,,,,l,0,"[""0.283"",""0.361"",""0.866"",""0.950""]","[1,0,1,1]",0,53,53,53,1,0,0,,,1,FALSE,1.5947,,,,,,,,,,,,,,,,,,,,,,,,,,,,,,
,60732f9319c4d853c8df24f9,001,2022-04-29_03h16.56.832,classification_task,2021.2.3,MacIntel,60.0024001,60732f9319c4d853c8df24f9,626b377229c10585ec392f8a,626b3c200681088f22753111,,,,,,,,,,,,,,,,,,,,,,,a,0,"[""0.077"",""0.227"",""0.606"",""0.190""]","[1,1,1,0]",0,54,54,54,1,1,0,,,1,FALSE,1.5245,,,,,,,,,,,,,,,,,,,,,,,,,,,,,,
,60732f9319c4d853c8df24f9,001,2022-04-29_03h16.56.832,classification_task,2021.2.3,MacIntel,60.0024001,60732f9319c4d853c8df24f9,626b377229c10585ec392f8a,626b3c200681088f22753111,,,,,,,,,,,,,,,,,,,,,,,a,1,"[""0.320"",""0.492"",""0.753"",""0.111""]","[1,1,1,0]",0,55,55,55,1,0,1,,,1,FALSE,2.2825,,,,,,,,,,,,,,,,,,,,,,,,,,,,,,
,60732f9319c4d853c8df24f9,001,2022-04-29_03h16.56.832,classification_task,2021.2.3,MacIntel,60.0024001,60732f9319c4d853c8df24f9,626b377229c10585ec392f8a,626b3c200681088f22753111,,,,,,,,,,,,,,,,,,,,,,,a,1,"[""0.320"",""0.492"",""0.035"",""0.903""]","[1,1,0,1]",0,56,56,56,1,0,1,,,1,FALSE,4.6094,,,,,,,,,,,,,,,,,,,,,,,,,,,,,,
,60732f9319c4d853c8df24f9,001,2022-04-29_03h16.56.832,classification_task,2021.2.3,MacIntel,60.0024001,60732f9319c4d853c8df24f9,626b377229c10585ec392f8a,626b3c200681088f22753111,,,,,,,,,,,,,,,,,,,,,,,a,0,"[""0.077"",""0.355"",""0.606"",""0.679""]","[1,0,1,1]",0,57,57,57,1,1,0,,,1,FALSE,1.7701,,,,,,,,,,,,,,,,,,,,,,,,,,,,,,
,60732f9319c4d853c8df24f9,001,2022-04-29_03h16.56.832,classification_task,2021.2.3,MacIntel,60.0024001,60732f9319c4d853c8df24f9,626b377229c10585ec392f8a,626b3c200681088f22753111,,,,,,,,,,,,,,,,,,,,,,,l,0,"[""0.181"",""0.492"",""0.753"",""0.903""]","[0,1,1,1]",0,58,58,58,1,0,1,,,1,FALSE,1.1052,,,,,,,,,,,,,,,,,,,,,,,,,,,,,,
,60732f9319c4d853c8df24f9,001,2022-04-29_03h16.56.832,classification_task,2021.2.3,MacIntel,60.0024001,60732f9319c4d853c8df24f9,626b377229c10585ec392f8a,626b3c200681088f22753111,,,,,,,,,,,,,,,,,,,,,,,a,1,"[""0.363"",""0.443"",""0.866"",""0.950""]","[0,1,1,1]",0,59,59,59,1,0,0,,,1,FALSE,1.2592,,,,,,,,,,,,,,,,,,,,,,,,,,,,,,
,60732f9319c4d853c8df24f9,001,2022-04-29_03h16.56.832,classification_task,2021.2.3,MacIntel,60.0024001,60732f9319c4d853c8df24f9,626b377229c10585ec392f8a,626b3c200681088f22753111,,,,,,,,,,,,,,,,,,,,,,,l,1,"[""0.144"",""0.191"",""0.547"",""0.799""]","[1,0,1,1]",0,60,60,60,1,1,1,,,1,FALSE,1.4783,,,,,,,,,,,,,,,,,,,,,,,,,,,,,,
,60732f9319c4d853c8df24f9,001,2022-04-29_03h16.56.832,classification_task,2021.2.3,MacIntel,60.0024001,60732f9319c4d853c8df24f9,626b377229c10585ec392f8a,626b3c200681088f22753111,,,,,,,,,,,,,,,,,,,,,,,l,0,"[""0.283"",""0.443"",""0.640"",""0.950""]","[1,1,0,1]",0,61,61,61,1,0,0,,,1,FALSE,1.4257,,,,,,,,,,,,,,,,,,,,,,,,,,,,,,
,60732f9319c4d853c8df24f9,001,2022-04-29_03h16.56.832,classification_task,2021.2.3,MacIntel,60.0024001,60732f9319c4d853c8df24f9,626b377229c10585ec392f8a,626b3c200681088f22753111,,,,,,,,,,,,,,,,,,,,,,,l,0,"[""0.283"",""0.443"",""0.866"",""0.190""]","[1,1,1,0]",0,62,62,62,1,0,0,,,1,FALSE,1.3582,,,,,,,,,,,,,,,,,,,,,,,,,,,,,,
,60732f9319c4d853c8df24f9,001,2022-04-29_03h16.56.832,classification_task,2021.2.3,MacIntel,60.0024001,60732f9319c4d853c8df24f9,626b377229c10585ec392f8a,626b3c200681088f22753111,,,,,,,,,,,,,,,,,,,,,,,l,1,"[""0.181"",""0.409"",""0.547"",""0.799""]","[0,1,1,1]",0,63,63,63,1,1,1,,,1,FALSE,1.3924,,,,,,,,,,,,,,,,,,,,,,,,,,,,,,
,60732f9319c4d853c8df24f9,001,2022-04-29_03h16.56.832,classification_task,2021.2.3,MacIntel,60.0024001,60732f9319c4d853c8df24f9,626b377229c10585ec392f8a,626b3c200681088f22753111,,,,,,,,,,,,,,,,,,,,,,,,,,,,,,,,,,,,,,,0, ,,0,1.851231812,237.4589,0,2,2,2,1,2,3,,,,,,,,,,,,,,,,,
,60732f9319c4d853c8df24f9,001,2022-04-29_03h16.56.832,classification_task,2021.2.3,MacIntel,60.0024001,60732f9319c4d853c8df24f9,626b377229c10585ec392f8a,626b3c200681088f22753111,,,,,,,,,,,,,,,,,,,,,,,,,,,,,,,,,,,,,,,1,  ,,0,4.829144621,232.4236,0,2,2,2,1,2,3,,,,,,,,,,,,,,,,,
,60732f9319c4d853c8df24f9,001,2022-04-29_03h16.56.832,classification_task,2021.2.3,MacIntel,60.0024001,60732f9319c4d853c8df24f9,626b377229c10585ec392f8a,626b3c200681088f22753111,,,,,,,,,,,,,,,,,,,,,,,,,,,,,,,,,,,,,,,2,  ,,0,10,224.5762,0,2,2,2,1,2,3,,,,,,,,,,,,,,,,,
,60732f9319c4d853c8df24f9,001,2022-04-29_03h16.56.832,classification_task,2021.2.3,MacIntel,60.0024001,60732f9319c4d853c8df24f9,626b377229c10585ec392f8a,626b3c200681088f22753111,,,,,,,,,,,,,,,,,,,,,,,,,,,,,,,,,,,,,,,,,,,,,0,2,2,2,1,,3,,,,,,,,,,,,,,,,,
,60732f9319c4d853c8df24f9,001,2022-04-29_03h16.56.832,classification_task,2021.2.3,MacIntel,60.0024001,60732f9319c4d853c8df24f9,626b377229c10585ec392f8a,626b3c200681088f22753111,,,,,,,,,,,,,,,,,,,,,,,,,,,,,,,,,,,,,,,,,,,,,,,,,,,,,I believe the aid is a competent performer,,0.7,0,5,1055.4046,0,0,0,0,1,0,,,,
,60732f9319c4d853c8df24f9,001,2022-04-29_03h16.56.832,classification_task,2021.2.3,MacIntel,60.0024001,60732f9319c4d853c8df24f9,626b377229c10585ec392f8a,626b3c200681088f22753111,,,,,,,,,,,,,,,,,,,,,,,,,,,,,,,,,,,,,,,,,,,,,,,,,,,,,I trust the aid,,0.7,0,5,1053.3507,0,0,0,0,1,0,,,,
,60732f9319c4d853c8df24f9,001,2022-04-29_03h16.56.832,classification_task,2021.2.3,MacIntel,60.0024001,60732f9319c4d853c8df24f9,626b377229c10585ec392f8a,626b3c200681088f22753111,,,,,,,,,,,,,,,,,,,,,,,,,,,,,,,,,,,,,,,,,,,,,,,,,,,,,I have confidence in the advice given by the aid,,0.7,0,5,1056.389,0,0,0,0,1,0,,,,
,60732f9319c4d853c8df24f9,001,2022-04-29_03h16.56.832,classification_task,2021.2.3,MacIntel,60.0024001,60732f9319c4d853c8df24f9,626b377229c10585ec392f8a,626b3c200681088f22753111,,,,,,,,,,,,,,,,,,,,,,,,,,,,,,,,,,,,,,,,,,,,,,,,,,,,,I can depend on the aid,,0.7,0,5,1058.1183,0,0,0,0,1,0,,,,
,60732f9319c4d853c8df24f9,001,2022-04-29_03h16.56.832,classification_task,2021.2.3,MacIntel,60.0024001,60732f9319c4d853c8df24f9,626b377229c10585ec392f8a,626b3c200681088f22753111,,,,,,,,,,,,,,,,,,,,,,,,,,,,,,,,,,,,,,,,,,,,,,,,,,,,,I can rely on the aid to behave in consistent ways,,0.7,0,5,1061.8753,0,0,0,0,1,0,,,,
,60732f9319c4d853c8df24f9,001,2022-04-29_03h16.56.832,classification_task,2021.2.3,MacIntel,60.0024001,60732f9319c4d853c8df24f9,626b377229c10585ec392f8a,626b3c200681088f22753111,,,,,,,,,,,,,,,,,,,,,,,,,,,,,,,,,,,,,,,,,,,,,,,,,,,,,I can rely on the aid to do its best every time I take its advice,,0.7,0,5,1064.0152,0,0,0,0,1,0,,,,
,60732f9319c4d853c8df24f9,001,2022-04-29_03h16.56.832,classification_task,2021.2.3,MacIntel,60.0024001,60732f9319c4d853c8df24f9,626b377229c10585ec392f8a,626b3c200681088f22753111,,,,,,,,,,,,,,,,,,,,,,,,,,,,,,,,,,,,,,,,,,,,,,,,,,,,,"On trials you completed with assistance from the aid, how frequently did you think the aid was correct?",,0.7,0,100,,0,0,0,0,1,0,,,,
,60732f9319c4d853c8df24f9,001,2022-04-29_03h16.56.832,classification_task,2021.2.3,MacIntel,60.0024001,60732f9319c4d853c8df24f9,626b377229c10585ec392f8a,626b3c200681088f22753111,,,,,,,,,,,,,,,,,,,,,,,,,,,,,,,,,,,,,,,,,,,,,,,,,,,,,"On trials you completed without the aid, how frequently did you think you were correct?",,0.7,0,20,,0,0,0,0,1,0,,,,
,60732f9319c4d853c8df24f9,001,2022-04-29_03h16.56.832,classification_task,2021.2.3,MacIntel,60.0024001,60732f9319c4d853c8df24f9,626b377229c10585ec392f8a,626b3c200681088f22753111,,,,,,,,,,,,,,,,,,,,,,,,,,,,,,,,,,,,,,,,,,,,,,,,,,,,,,,,,,,0,0,0,0,1,,,,,
,60732f9319c4d853c8df24f9,001,2022-04-29_03h16.56.832,classification_task,2021.2.3,MacIntel,60.0024001,60732f9319c4d853c8df24f9,626b377229c10585ec392f8a,626b3c200681088f22753111,,,,,,,,,,,,,,,,,,,,,,,,,,,,,,,,,,,,,,,,,,,,,,,,,,,,,,,,,,,,,,,,,space,10.0063,1092.2953,
,60732f9319c4d853c8df24f9,001,2022-04-29_03h16.56.832,classification_task,2021.2.3,MacIntel,60.0024001,60732f9319c4d853c8df24f9,626b377229c10585ec392f8a,626b3c200681088f22753111,,,,,,,,,,,,,,,,,,,,,,,,,,,,,,,,,,,,,,,,,,,,,,,,,,,,,,,,,,,,,,,,,,,,"Mozilla/5.0 (Macintosh; Intel Mac OS X 10_14_6) AppleWebKit/537.36 (KHTML, like Gecko) Chrome/100.0.4896.127 Safari/537.36"
