usingWebGL,participant,session,date,expName,psychopyVersion,OS,frameRate,PROLIFIC_PID,STUDY_ID,SESSION_ID,signatures_friend,signatures_foe,band_ranges_top,band_ranges_bottom,formitemText,formtype,formundefined,formitemWidth,formindex,formresponse,formrt,key_resp_2.keys,key_resp_2.rt,tute_resp.keys,tute_resp.rt,tutorial.thisRepN,tutorial.thisTrialN,tutorial.thisN,tutorial.thisIndex,tutorial.ran,key_resp_4.keys,key_resp_4.rt,key_resp.keys,key_resp.corr,key_resp.rt,lines_presented,is_signal_presented,trials.thisRepN,trials.thisTrialN,trials.thisN,trials.thisIndex,trials.ran,vessel,active_band,lines,is_signal,supported_pos,catch_trial,debrief_formindex,debrief_formitemText,debrief_formtype,debrief_formitemWidth,debrief_formresponse,debrief_formrt,phases.thisRepN,phases.thisTrialN,phases.thisN,phases.thisIndex,phases.ran,phases.order,phase,key_resp_3.keys,trustitemText,trusttype,trustitemWidth,trustindex,trustresponse,trustrt,support_status.thisRepN,support_status.thisTrialN,support_status.thisN,support_status.thisIndex,support_status.ran,support_status.order,key_resp_5.keys,key_resp_5.rt,globalClockTime,userAgent
TRUE,607728dc0b4f8590b94ae57c,001,2022-04-28_22h30.58.120,classification_task,2021.2.3,Win32,61.26324818,607728dc0b4f8590b94ae57c,626b377229c10585ec392f89,626b4db21560075100387b37,,,,,,,,,,,,,,,,,,,,,,,,,,,,,,,,,,,,,,,,,,,,,,,,,,,,,,,,,,,,,,,,,,,,
,607728dc0b4f8590b94ae57c,001,2022-04-28_22h30.58.120,classification_task,2021.2.3,Win32,61.26324818,607728dc0b4f8590b94ae57c,626b377229c10585ec392f89,626b4db21560075100387b37,"[[""0.309"",""0.443"",""0.869"",""0.926""],[""0.201"",""0.494"",""0.693"",""0.971""]]","[[""0.066"",""0.356"",""0.604"",""0.734""],[""0.106"",""0.259"",""0.534"",""0.776""]]","[1,10]","[100,1000]",Video game experience,,,0.7,0,,,,,,,,,,,,,,,,,,,,,,,,,,,,,,,,,,,,,,,,,,,,,,,,,,,,,,,,,,,
,607728dc0b4f8590b94ae57c,001,2022-04-28_22h30.58.120,classification_task,2021.2.3,Win32,61.26324818,607728dc0b4f8590b94ae57c,626b377229c10585ec392f89,626b4db21560075100387b37,,,,,Approximately how many hours did you spend playing video games in the last week?,,,0.7,0,25,,,,,,,,,,,,,,,,,,,,,,,,,,,,,,,,,,,,,,,,,,,,,,,,,,,,,,,,,,
,607728dc0b4f8590b94ae57c,001,2022-04-28_22h30.58.120,classification_task,2021.2.3,Win32,61.26324818,607728dc0b4f8590b94ae57c,626b377229c10585ec392f89,626b4db21560075100387b37,,,,,"Which game did you play the most this year? (Enter ""None"" if you didn't play any)",,,0.7,0,League of Legends,,,,,,,,,,,,,,,,,,,,,,,,,,,,,,,,,,,,,,,,,,,,,,,,,,,,,,,,,,
,607728dc0b4f8590b94ae57c,001,2022-04-28_22h30.58.120,classification_task,2021.2.3,Win32,61.26324818,607728dc0b4f8590b94ae57c,626b377229c10585ec392f89,626b4db21560075100387b37,,,,,Visual perception,,,0.7,0,,,,,,,,,,,,,,,,,,,,,,,,,,,,,,,,,,,,,,,,,,,,,,,,,,,,,,,,,,,
,607728dc0b4f8590b94ae57c,001,2022-04-28_22h30.58.120,classification_task,2021.2.3,Win32,61.26324818,607728dc0b4f8590b94ae57c,626b377229c10585ec392f89,626b4db21560075100387b37,,,,,Do you have any form of color blindness?,,,0.7,0,No,21.1592,,,,,,,,,,,,,,,,,,,,,,,,,,,,,,,,,,,,,,,,,,,,,,,,,,,,,,,,,
,607728dc0b4f8590b94ae57c,001,2022-04-28_22h30.58.120,classification_task,2021.2.3,Win32,61.26324818,607728dc0b4f8590b94ae57c,626b377229c10585ec392f89,626b4db21560075100387b37,,,,,Do you use software to change the colour temperature of your screen (e.g. f.lux)?,,,0.7,0,No,22.7551,,,,,,,,,,,,,,,,,,,,,,,,,,,,,,,,,,,,,,,,,,,,,,,,,,,,,,,,,
,607728dc0b4f8590b94ae57c,001,2022-04-28_22h30.58.120,classification_task,2021.2.3,Win32,61.26324818,607728dc0b4f8590b94ae57c,626b377229c10585ec392f89,626b4db21560075100387b37,,,,,,,,,,,,space,17.9577,space,15.6466,0,0,0,0,1,,,,,,,,,,,,,,,,,,,,,,,,,,,,,,,,,,,,,,,,,,,,,,,,
,607728dc0b4f8590b94ae57c,001,2022-04-28_22h30.58.120,classification_task,2021.2.3,Win32,61.26324818,607728dc0b4f8590b94ae57c,626b377229c10585ec392f89,626b4db21560075100387b37,,,,,,,,,,,,,,space,7.2524,1,0,1,0,1,,,,,,,,,,,,,,,,,,,,,,,,,,,,,,,,,,,,,,,,,,,,,,,,
,607728dc0b4f8590b94ae57c,001,2022-04-28_22h30.58.120,classification_task,2021.2.3,Win32,61.26324818,607728dc0b4f8590b94ae57c,626b377229c10585ec392f89,626b4db21560075100387b37,,,,,,,,,,,,,,space,24.3562,2,0,2,0,1,,,,,,,,,,,,,,,,,,,,,,,,,,,,,,,,,,,,,,,,,,,,,,,,
,607728dc0b4f8590b94ae57c,001,2022-04-28_22h30.58.120,classification_task,2021.2.3,Win32,61.26324818,607728dc0b4f8590b94ae57c,626b377229c10585ec392f89,626b4db21560075100387b37,,,,,,,,,,,,,,space,12.8109,3,0,3,0,1,,,,,,,,,,,,,,,,,,,,,,,,,,,,,,,,,,,,,,,,,,,,,,,,
,607728dc0b4f8590b94ae57c,001,2022-04-28_22h30.58.120,classification_task,2021.2.3,Win32,61.26324818,607728dc0b4f8590b94ae57c,626b377229c10585ec392f89,626b4db21560075100387b37,,,,,,,,,,,,,,space,10.8148,4,0,4,0,1,,,,,,,,,,,,,,,,,,,,,,,,,,,,,,,,,,,,,,,,,,,,,,,,
,607728dc0b4f8590b94ae57c,001,2022-04-28_22h30.58.120,classification_task,2021.2.3,Win32,61.26324818,607728dc0b4f8590b94ae57c,626b377229c10585ec392f89,626b4db21560075100387b37,,,,,,,,,,,,,,,,,,,,,space,10.4551,l,1,4.9972,"[""0.066"",""0.167"",""0.604"",""0.734""]","[1,0,1,1]",0,0,0,0,1,1,0,,,0,FALSE,,,,,,,,,,,,,,,,,,,,,,,,,,,,,,
,607728dc0b4f8590b94ae57c,001,2022-04-28_22h30.58.120,classification_task,2021.2.3,Win32,61.26324818,607728dc0b4f8590b94ae57c,626b377229c10585ec392f89,626b4db21560075100387b37,,,,,,,,,,,,,,,,,,,,,,,l,1,2.4192,"[""0.066"",""0.356"",""0.604"",""0.398""]","[1,1,1,0]",0,1,1,1,1,1,0,,,0,FALSE,,,,,,,,,,,,,,,,,,,,,,,,,,,,,,
,607728dc0b4f8590b94ae57c,001,2022-04-28_22h30.58.120,classification_task,2021.2.3,Win32,61.26324818,607728dc0b4f8590b94ae57c,626b377229c10585ec392f89,626b4db21560075100387b37,,,,,,,,,,,,,,,,,,,,,,,a,1,5.8764,"[""0.201"",""0.494"",""0.693"",""0.155""]","[1,1,1,0]",0,2,2,2,1,0,1,,,0,FALSE,,,,,,,,,,,,,,,,,,,,,,,,,,,,,,
,607728dc0b4f8590b94ae57c,001,2022-04-28_22h30.58.120,classification_task,2021.2.3,Win32,61.26324818,607728dc0b4f8590b94ae57c,626b377229c10585ec392f89,626b4db21560075100387b37,,,,,,,,,,,,,,,,,,,,,,,l,0,2.3771,"[""0.815"",""0.443"",""0.869"",""0.926""]","[0,1,1,1]",0,3,3,3,1,0,0,,,0,FALSE,,,,,,,,,,,,,,,,,,,,,,,,,,,,,,
,607728dc0b4f8590b94ae57c,001,2022-04-28_22h30.58.120,classification_task,2021.2.3,Win32,61.26324818,607728dc0b4f8590b94ae57c,626b377229c10585ec392f89,626b4db21560075100387b37,,,,,,,,,,,,,,,,,,,,,,,l,1,4.0887,"[""0.568"",""0.259"",""0.534"",""0.776""]","[0,1,1,1]",0,4,4,4,1,1,1,,,0,FALSE,,,,,,,,,,,,,,,,,,,,,,,,,,,,,,
,607728dc0b4f8590b94ae57c,001,2022-04-28_22h30.58.120,classification_task,2021.2.3,Win32,61.26324818,607728dc0b4f8590b94ae57c,626b377229c10585ec392f89,626b4db21560075100387b37,,,,,,,,,,,,,,,,,,,,,,,l,1,1.7726,"[""0.150"",""0.356"",""0.604"",""0.734""]","[0,1,1,1]",0,5,5,5,1,1,0,,,0,FALSE,,,,,,,,,,,,,,,,,,,,,,,,,,,,,,
,607728dc0b4f8590b94ae57c,001,2022-04-28_22h30.58.120,classification_task,2021.2.3,Win32,61.26324818,607728dc0b4f8590b94ae57c,626b377229c10585ec392f89,626b4db21560075100387b37,,,,,,,,,,,,,,,,,,,,,,,l,1,4.2292,"[""0.106"",""0.259"",""0.534"",""0.155""]","[1,1,1,0]",0,6,6,6,1,1,1,,,0,FALSE,,,,,,,,,,,,,,,,,,,,,,,,,,,,,,
,607728dc0b4f8590b94ae57c,001,2022-04-28_22h30.58.120,classification_task,2021.2.3,Win32,61.26324818,607728dc0b4f8590b94ae57c,626b377229c10585ec392f89,626b4db21560075100387b37,,,,,,,,,,,,,,,,,,,,,,,a,1,2.424,"[""0.309"",""0.443"",""0.869"",""0.815""]","[1,1,1,0]",0,7,7,7,1,0,0,,,0,FALSE,,,,,,,,,,,,,,,,,,,,,,,,,,,,,,
,607728dc0b4f8590b94ae57c,001,2022-04-28_22h30.58.120,classification_task,2021.2.3,Win32,61.26324818,607728dc0b4f8590b94ae57c,626b377229c10585ec392f89,626b4db21560075100387b37,,,,,,,,,,,,,,,,,,,,,,,l,1,2.717,"[""0.066"",""0.356"",""0.401"",""0.734""]","[1,1,0,1]",0,8,8,8,1,1,0,,,0,FALSE,,,,,,,,,,,,,,,,,,,,,,,,,,,,,,
,607728dc0b4f8590b94ae57c,001,2022-04-28_22h30.58.120,classification_task,2021.2.3,Win32,61.26324818,607728dc0b4f8590b94ae57c,626b377229c10585ec392f89,626b4db21560075100387b37,,,,,,,,,,,,,,,,,,,,,,,l,1,2.5519,"[""0.106"",""0.403"",""0.534"",""0.776""]","[1,0,1,1]",0,9,9,9,1,1,1,,,0,FALSE,,,,,,,,,,,,,,,,,,,,,,,,,,,,,,
,607728dc0b4f8590b94ae57c,001,2022-04-28_22h30.58.120,classification_task,2021.2.3,Win32,61.26324818,607728dc0b4f8590b94ae57c,626b377229c10585ec392f89,626b4db21560075100387b37,,,,,,,,,,,,,,,,,,,,,,,a,1,1.8001,"[""0.201"",""0.396"",""0.693"",""0.971""]","[1,0,1,1]",0,10,10,10,1,0,1,,,0,FALSE,,,,,,,,,,,,,,,,,,,,,,,,,,,,,,
,607728dc0b4f8590b94ae57c,001,2022-04-28_22h30.58.120,classification_task,2021.2.3,Win32,61.26324818,607728dc0b4f8590b94ae57c,626b377229c10585ec392f89,626b4db21560075100387b37,,,,,,,,,,,,,,,,,,,,,,,l,0,4.907,"[""0.408"",""0.494"",""0.693"",""0.971""]","[0,1,1,1]",0,11,11,11,1,0,1,,,0,FALSE,,,,,,,,,,,,,,,,,,,,,,,,,,,,,,
,607728dc0b4f8590b94ae57c,001,2022-04-28_22h30.58.120,classification_task,2021.2.3,Win32,61.26324818,607728dc0b4f8590b94ae57c,626b377229c10585ec392f89,626b4db21560075100387b37,,,,,,,,,,,,,,,,,,,,,,,l,1,1.9822,"[""0.106"",""0.259"",""0.810"",""0.776""]","[1,1,0,1]",0,12,12,12,1,1,1,,,0,FALSE,,,,,,,,,,,,,,,,,,,,,,,,,,,,,,
,607728dc0b4f8590b94ae57c,001,2022-04-28_22h30.58.120,classification_task,2021.2.3,Win32,61.26324818,607728dc0b4f8590b94ae57c,626b377229c10585ec392f89,626b4db21560075100387b37,,,,,,,,,,,,,,,,,,,,,,,a,1,2.4461,"[""0.309"",""0.568"",""0.869"",""0.926""]","[1,0,1,1]",0,13,13,13,1,0,0,,,0,FALSE,,,,,,,,,,,,,,,,,,,,,,,,,,,,,,
,607728dc0b4f8590b94ae57c,001,2022-04-28_22h30.58.120,classification_task,2021.2.3,Win32,61.26324818,607728dc0b4f8590b94ae57c,626b377229c10585ec392f89,626b4db21560075100387b37,,,,,,,,,,,,,,,,,,,,,,,a,1,3.459,"[""0.309"",""0.443"",""0.143"",""0.926""]","[1,1,0,1]",0,14,14,14,1,0,0,,,0,FALSE,,,,,,,,,,,,,,,,,,,,,,,,,,,,,,
,607728dc0b4f8590b94ae57c,001,2022-04-28_22h30.58.120,classification_task,2021.2.3,Win32,61.26324818,607728dc0b4f8590b94ae57c,626b377229c10585ec392f89,626b4db21560075100387b37,,,,,,,,,,,,,,,,,,,,,,,l,0,3.2512,"[""0.201"",""0.494"",""0.031"",""0.971""]","[1,1,0,1]",0,15,15,15,1,0,1,,,0,FALSE,,,,,,,,,,,,,,,,,,,,,,,,,,,,,,
,607728dc0b4f8590b94ae57c,001,2022-04-28_22h30.58.120,classification_task,2021.2.3,Win32,61.26324818,607728dc0b4f8590b94ae57c,626b377229c10585ec392f89,626b4db21560075100387b37,,,,,,,,,,,,,,,,,,,,,,,l,1,2.893,"[""0.066"",""0.143"",""0.604"",""0.734""]","[1,0,1,1]",0,16,16,16,1,1,0,,,0,FALSE,,,,,,,,,,,,,,,,,,,,,,,,,,,,,,
,607728dc0b4f8590b94ae57c,001,2022-04-28_22h30.58.120,classification_task,2021.2.3,Win32,61.26324818,607728dc0b4f8590b94ae57c,626b377229c10585ec392f89,626b4db21560075100387b37,,,,,,,,,,,,,,,,,,,,,,,l,0,2.0878,"[""0.309"",""0.031"",""0.869"",""0.926""]","[1,0,1,1]",0,17,17,17,1,0,0,,,0,FALSE,,,,,,,,,,,,,,,,,,,,,,,,,,,,,,
,607728dc0b4f8590b94ae57c,001,2022-04-28_22h30.58.120,classification_task,2021.2.3,Win32,61.26324818,607728dc0b4f8590b94ae57c,626b377229c10585ec392f89,626b4db21560075100387b37,,,,,,,,,,,,,,,,,,,,,,,a,1,2.0094,"[""0.309"",""0.443"",""0.401"",""0.926""]","[1,1,0,1]",0,18,18,18,1,0,0,,,0,FALSE,,,,,,,,,,,,,,,,,,,,,,,,,,,,,,
,607728dc0b4f8590b94ae57c,001,2022-04-28_22h30.58.120,classification_task,2021.2.3,Win32,61.26324818,607728dc0b4f8590b94ae57c,626b377229c10585ec392f89,626b4db21560075100387b37,,,,,,,,,,,,,,,,,,,,,,,a,1,3.4238,"[""0.201"",""0.494"",""0.693"",""0.655""]","[1,1,1,0]",0,19,19,19,1,0,1,,,0,FALSE,,,,,,,,,,,,,,,,,,,,,,,,,,,,,,
,607728dc0b4f8590b94ae57c,001,2022-04-28_22h30.58.120,classification_task,2021.2.3,Win32,61.26324818,607728dc0b4f8590b94ae57c,626b377229c10585ec392f89,626b4db21560075100387b37,,,,,,,,,,,,,,,,,,,,,,,l,1,2.2009,"[""0.827"",""0.259"",""0.534"",""0.776""]","[0,1,1,1]",0,20,20,20,1,1,1,,,0,FALSE,,,,,,,,,,,,,,,,,,,,,,,,,,,,,,
,607728dc0b4f8590b94ae57c,001,2022-04-28_22h30.58.120,classification_task,2021.2.3,Win32,61.26324818,607728dc0b4f8590b94ae57c,626b377229c10585ec392f89,626b4db21560075100387b37,,,,,,,,,,,,,,,,,,,,,,,l,1,2.2995,"[""0.106"",""0.259"",""0.534"",""0.810""]","[1,1,1,0]",0,21,21,21,1,1,1,,,0,FALSE,,,,,,,,,,,,,,,,,,,,,,,,,,,,,,
,607728dc0b4f8590b94ae57c,001,2022-04-28_22h30.58.120,classification_task,2021.2.3,Win32,61.26324818,607728dc0b4f8590b94ae57c,626b377229c10585ec392f89,626b4db21560075100387b37,,,,,,,,,,,,,,,,,,,,,,,a,1,5.3491,"[""0.201"",""0.494"",""0.167"",""0.971""]","[1,1,0,1]",0,22,22,22,1,0,1,,,0,FALSE,,,,,,,,,,,,,,,,,,,,,,,,,,,,,,
,607728dc0b4f8590b94ae57c,001,2022-04-28_22h30.58.120,classification_task,2021.2.3,Win32,61.26324818,607728dc0b4f8590b94ae57c,626b377229c10585ec392f89,626b4db21560075100387b37,,,,,,,,,,,,,,,,,,,,,,,a,1,1.6832,"[""0.201"",""0.396"",""0.693"",""0.971""]","[1,0,1,1]",0,23,23,23,1,0,1,,,0,FALSE,,,,,,,,,,,,,,,,,,,,,,,,,,,,,,
,607728dc0b4f8590b94ae57c,001,2022-04-28_22h30.58.120,classification_task,2021.2.3,Win32,61.26324818,607728dc0b4f8590b94ae57c,626b377229c10585ec392f89,626b4db21560075100387b37,,,,,,,,,,,,,,,,,,,,,,,l,1,1.8339,"[""0.106"",""0.259"",""0.398"",""0.776""]","[1,1,0,1]",0,24,24,24,1,1,1,,,0,FALSE,,,,,,,,,,,,,,,,,,,,,,,,,,,,,,
,607728dc0b4f8590b94ae57c,001,2022-04-28_22h30.58.120,classification_task,2021.2.3,Win32,61.26324818,607728dc0b4f8590b94ae57c,626b377229c10585ec392f89,626b4db21560075100387b37,,,,,,,,,,,,,,,,,,,,,,,a,0,4.0138,"[""0.810"",""0.356"",""0.604"",""0.734""]","[0,1,1,1]",0,25,25,25,1,1,0,,,0,FALSE,,,,,,,,,,,,,,,,,,,,,,,,,,,,,,
,607728dc0b4f8590b94ae57c,001,2022-04-28_22h30.58.120,classification_task,2021.2.3,Win32,61.26324818,607728dc0b4f8590b94ae57c,626b377229c10585ec392f89,626b4db21560075100387b37,,,,,,,,,,,,,,,,,,,,,,,l,1,5.7008,"[""0.066"",""0.356"",""0.396"",""0.734""]","[1,1,0,1]",0,26,26,26,1,1,0,,,0,FALSE,,,,,,,,,,,,,,,,,,,,,,,,,,,,,,
,607728dc0b4f8590b94ae57c,001,2022-04-28_22h30.58.120,classification_task,2021.2.3,Win32,61.26324818,607728dc0b4f8590b94ae57c,626b377229c10585ec392f89,626b4db21560075100387b37,,,,,,,,,,,,,,,,,,,,,,,a,1,3.9189,"[""0.815"",""0.494"",""0.693"",""0.971""]","[0,1,1,1]",0,27,27,27,1,0,1,,,0,FALSE,,,,,,,,,,,,,,,,,,,,,,,,,,,,,,
,607728dc0b4f8590b94ae57c,001,2022-04-28_22h30.58.120,classification_task,2021.2.3,Win32,61.26324818,607728dc0b4f8590b94ae57c,626b377229c10585ec392f89,626b4db21560075100387b37,,,,,,,,,,,,,,,,,,,,,,,l,1,5.2251,"[""0.066"",""0.356"",""0.604"",""0.827""]","[1,1,1,0]",0,28,28,28,1,1,0,,,0,FALSE,,,,,,,,,,,,,,,,,,,,,,,,,,,,,,
,607728dc0b4f8590b94ae57c,001,2022-04-28_22h30.58.120,classification_task,2021.2.3,Win32,61.26324818,607728dc0b4f8590b94ae57c,626b377229c10585ec392f89,626b4db21560075100387b37,,,,,,,,,,,,,,,,,,,,,,,a,1,4.7663,"[""0.309"",""0.443"",""0.869"",""0.150""]","[1,1,1,0]",0,29,29,29,1,0,0,,,0,FALSE,,,,,,,,,,,,,,,,,,,,,,,,,,,,,,
,607728dc0b4f8590b94ae57c,001,2022-04-28_22h30.58.120,classification_task,2021.2.3,Win32,61.26324818,607728dc0b4f8590b94ae57c,626b377229c10585ec392f89,626b4db21560075100387b37,,,,,,,,,,,,,,,,,,,,,,,l,1,1.9643,"[""0.106"",""0.403"",""0.534"",""0.776""]","[1,0,1,1]",0,30,30,30,1,1,1,,,0,FALSE,,,,,,,,,,,,,,,,,,,,,,,,,,,,,,
,607728dc0b4f8590b94ae57c,001,2022-04-28_22h30.58.120,classification_task,2021.2.3,Win32,61.26324818,607728dc0b4f8590b94ae57c,626b377229c10585ec392f89,626b4db21560075100387b37,,,,,,,,,,,,,,,,,,,,,,,a,1,3.6405,"[""0.815"",""0.443"",""0.869"",""0.926""]","[0,1,1,1]",0,31,31,31,1,0,0,,,0,FALSE,,,,,,,,,,,,,,,,,,,,,,,,,,,,,,
,607728dc0b4f8590b94ae57c,001,2022-04-28_22h30.58.120,classification_task,2021.2.3,Win32,61.26324818,607728dc0b4f8590b94ae57c,626b377229c10585ec392f89,626b4db21560075100387b37,,,,,,,,,,,,,,,,,,,,,,,a,0,3.8536,"[""0.143"",""0.356"",""0.604"",""0.734""]","[0,1,1,1]",0,32,32,32,1,1,0,,,0,FALSE,,,,,,,,,,,,,,,,,,,,,,,,,,,,,,
,607728dc0b4f8590b94ae57c,001,2022-04-28_22h30.58.120,classification_task,2021.2.3,Win32,61.26324818,607728dc0b4f8590b94ae57c,626b377229c10585ec392f89,626b4db21560075100387b37,,,,,,,,,,,,,,,,,,,,,,,l,0,3.0142,"[""0.309"",""0.443"",""0.869"",""0.031""]","[1,1,1,0]",0,33,33,33,1,0,0,,,0,FALSE,,,,,,,,,,,,,,,,,,,,,,,,,,,,,,
,607728dc0b4f8590b94ae57c,001,2022-04-28_22h30.58.120,classification_task,2021.2.3,Win32,61.26324818,607728dc0b4f8590b94ae57c,626b377229c10585ec392f89,626b4db21560075100387b37,,,,,,,,,,,,,,,,,,,,,,,l,1,1.575,"[""0.106"",""0.259"",""0.155"",""0.776""]","[1,1,0,1]",0,34,34,34,1,1,1,,,0,FALSE,,,,,,,,,,,,,,,,,,,,,,,,,,,,,,
,607728dc0b4f8590b94ae57c,001,2022-04-28_22h30.58.120,classification_task,2021.2.3,Win32,61.26324818,607728dc0b4f8590b94ae57c,626b377229c10585ec392f89,626b4db21560075100387b37,,,,,,,,,,,,,,,,,,,,,,,a,0,2.0243,"[""0.066"",""0.827"",""0.604"",""0.734""]","[1,0,1,1]",0,35,35,35,1,1,0,,,0,FALSE,,,,,,,,,,,,,,,,,,,,,,,,,,,,,,
,607728dc0b4f8590b94ae57c,001,2022-04-28_22h30.58.120,classification_task,2021.2.3,Win32,61.26324818,607728dc0b4f8590b94ae57c,626b377229c10585ec392f89,626b4db21560075100387b37,,,,,,,,,,,,,,,,,,,,,,,a,1,1.5845,"[""0.401"",""0.494"",""0.693"",""0.971""]","[0,1,1,1]",0,36,36,36,1,0,1,,,0,FALSE,,,,,,,,,,,,,,,,,,,,,,,,,,,,,,
,607728dc0b4f8590b94ae57c,001,2022-04-28_22h30.58.120,classification_task,2021.2.3,Win32,61.26324818,607728dc0b4f8590b94ae57c,626b377229c10585ec392f89,626b4db21560075100387b37,,,,,,,,,,,,,,,,,,,,,,,l,1,1.915,"[""0.106"",""0.143"",""0.534"",""0.776""]","[1,0,1,1]",0,37,37,37,1,1,1,,,0,FALSE,,,,,,,,,,,,,,,,,,,,,,,,,,,,,,
,607728dc0b4f8590b94ae57c,001,2022-04-28_22h30.58.120,classification_task,2021.2.3,Win32,61.26324818,607728dc0b4f8590b94ae57c,626b377229c10585ec392f89,626b4db21560075100387b37,,,,,,,,,,,,,,,,,,,,,,,a,1,1.1927,"[""0.201"",""0.494"",""0.693"",""0.167""]","[1,1,1,0]",0,38,38,38,1,0,1,,,0,FALSE,,,,,,,,,,,,,,,,,,,,,,,,,,,,,,
,607728dc0b4f8590b94ae57c,001,2022-04-28_22h30.58.120,classification_task,2021.2.3,Win32,61.26324818,607728dc0b4f8590b94ae57c,626b377229c10585ec392f89,626b4db21560075100387b37,,,,,,,,,,,,,,,,,,,,,,,a,0,1.2816,"[""0.066"",""0.356"",""0.604"",""0.810""]","[1,1,1,0]",0,39,39,39,1,1,0,,,0,FALSE,,,,,,,,,,,,,,,,,,,,,,,,,,,,,,
,607728dc0b4f8590b94ae57c,001,2022-04-28_22h30.58.120,classification_task,2021.2.3,Win32,61.26324818,607728dc0b4f8590b94ae57c,626b377229c10585ec392f89,626b4db21560075100387b37,,,,,,,,,,,,,,,,,,,,,,,l,1,2.2408,"[""0.810"",""0.259"",""0.534"",""0.776""]","[0,1,1,1]",0,40,40,40,1,1,1,,,0,FALSE,,,,,,,,,,,,,,,,,,,,,,,,,,,,,,
,607728dc0b4f8590b94ae57c,001,2022-04-28_22h30.58.120,classification_task,2021.2.3,Win32,61.26324818,607728dc0b4f8590b94ae57c,626b377229c10585ec392f89,626b4db21560075100387b37,,,,,,,,,,,,,,,,,,,,,,,a,1,1.7554,"[""0.201"",""0.396"",""0.693"",""0.971""]","[1,0,1,1]",0,41,41,41,1,0,1,,,0,FALSE,,,,,,,,,,,,,,,,,,,,,,,,,,,,,,
,607728dc0b4f8590b94ae57c,001,2022-04-28_22h30.58.120,classification_task,2021.2.3,Win32,61.26324818,607728dc0b4f8590b94ae57c,626b377229c10585ec392f89,626b4db21560075100387b37,,,,,,,,,,,,,,,,,,,,,,,a,1,1.2874,"[""0.201"",""0.494"",""0.155"",""0.971""]","[1,1,0,1]",0,42,42,42,1,0,1,,,0,FALSE,,,,,,,,,,,,,,,,,,,,,,,,,,,,,,
,607728dc0b4f8590b94ae57c,001,2022-04-28_22h30.58.120,classification_task,2021.2.3,Win32,61.26324818,607728dc0b4f8590b94ae57c,626b377229c10585ec392f89,626b4db21560075100387b37,,,,,,,,,,,,,,,,,,,,,,,l,0,1.7494,"[""0.401"",""0.443"",""0.869"",""0.926""]","[0,1,1,1]",0,43,43,43,1,0,0,,,0,FALSE,,,,,,,,,,,,,,,,,,,,,,,,,,,,,,
,607728dc0b4f8590b94ae57c,001,2022-04-28_22h30.58.120,classification_task,2021.2.3,Win32,61.26324818,607728dc0b4f8590b94ae57c,626b377229c10585ec392f89,626b4db21560075100387b37,,,,,,,,,,,,,,,,,,,,,,,l,1,1.3115,"[""0.106"",""0.259"",""0.534"",""0.568""]","[1,1,1,0]",0,44,44,44,1,1,1,,,0,FALSE,,,,,,,,,,,,,,,,,,,,,,,,,,,,,,
,607728dc0b4f8590b94ae57c,001,2022-04-28_22h30.58.120,classification_task,2021.2.3,Win32,61.26324818,607728dc0b4f8590b94ae57c,626b377229c10585ec392f89,626b4db21560075100387b37,,,,,,,,,,,,,,,,,,,,,,,a,1,1.1835,"[""0.309"",""0.443"",""0.403"",""0.926""]","[1,1,0,1]",0,45,45,45,1,0,0,,,0,FALSE,,,,,,,,,,,,,,,,,,,,,,,,,,,,,,
,607728dc0b4f8590b94ae57c,001,2022-04-28_22h30.58.120,classification_task,2021.2.3,Win32,61.26324818,607728dc0b4f8590b94ae57c,626b377229c10585ec392f89,626b4db21560075100387b37,,,,,,,,,,,,,,,,,,,,,,,a,1,1.0007,"[""0.309"",""0.401"",""0.869"",""0.926""]","[1,0,1,1]",0,46,46,46,1,0,0,,,0,FALSE,,,,,,,,,,,,,,,,,,,,,,,,,,,,,,
,607728dc0b4f8590b94ae57c,001,2022-04-28_22h30.58.120,classification_task,2021.2.3,Win32,61.26324818,607728dc0b4f8590b94ae57c,626b377229c10585ec392f89,626b4db21560075100387b37,,,,,,,,,,,,,,,,,,,,,,,l,1,1.2159,"[""0.066"",""0.356"",""0.031"",""0.734""]","[1,1,0,1]",0,47,47,47,1,1,0,,,0,FALSE,,,,,,,,,,,,,,,,,,,,,,,,,,,,,,
,607728dc0b4f8590b94ae57c,001,2022-04-28_22h30.58.120,classification_task,2021.2.3,Win32,61.26324818,607728dc0b4f8590b94ae57c,626b377229c10585ec392f89,626b4db21560075100387b37,,,,,,,,,,,,,,,,,,,,,,,a,1,2.129,"[""0.201"",""0.494"",""0.568"",""0.971""]","[1,1,0,1]",0,48,48,48,1,0,1,,,0,FALSE,,,,,,,,,,,,,,,,,,,,,,,,,,,,,,
,607728dc0b4f8590b94ae57c,001,2022-04-28_22h30.58.120,classification_task,2021.2.3,Win32,61.26324818,607728dc0b4f8590b94ae57c,626b377229c10585ec392f89,626b4db21560075100387b37,,,,,,,,,,,,,,,,,,,,,,,a,1,1.3016,"[""0.150"",""0.494"",""0.693"",""0.971""]","[0,1,1,1]",0,49,49,49,1,0,1,,,0,FALSE,,,,,,,,,,,,,,,,,,,,,,,,,,,,,,
,607728dc0b4f8590b94ae57c,001,2022-04-28_22h30.58.120,classification_task,2021.2.3,Win32,61.26324818,607728dc0b4f8590b94ae57c,626b377229c10585ec392f89,626b4db21560075100387b37,,,,,,,,,,,,,,,,,,,,,,,a,0,1.0499,"[""0.150"",""0.356"",""0.604"",""0.734""]","[0,1,1,1]",0,50,50,50,1,1,0,,,0,FALSE,,,,,,,,,,,,,,,,,,,,,,,,,,,,,,
,607728dc0b4f8590b94ae57c,001,2022-04-28_22h30.58.120,classification_task,2021.2.3,Win32,61.26324818,607728dc0b4f8590b94ae57c,626b377229c10585ec392f89,626b4db21560075100387b37,,,,,,,,,,,,,,,,,,,,,,,a,0,1.216,"[""0.066"",""0.398"",""0.604"",""0.734""]","[1,0,1,1]",0,51,51,51,1,1,0,,,0,FALSE,,,,,,,,,,,,,,,,,,,,,,,,,,,,,,
,607728dc0b4f8590b94ae57c,001,2022-04-28_22h30.58.120,classification_task,2021.2.3,Win32,61.26324818,607728dc0b4f8590b94ae57c,626b377229c10585ec392f89,626b4db21560075100387b37,,,,,,,,,,,,,,,,,,,,,,,l,0,1.3559,"[""0.201"",""0.494"",""0.693"",""0.815""]","[1,1,1,0]",0,52,52,52,1,0,1,,,0,FALSE,,,,,,,,,,,,,,,,,,,,,,,,,,,,,,
,607728dc0b4f8590b94ae57c,001,2022-04-28_22h30.58.120,classification_task,2021.2.3,Win32,61.26324818,607728dc0b4f8590b94ae57c,626b377229c10585ec392f89,626b4db21560075100387b37,,,,,,,,,,,,,,,,,,,,,,,l,1,1.9116,"[""0.066"",""0.356"",""0.401"",""0.734""]","[1,1,0,1]",0,53,53,53,1,1,0,,,0,FALSE,,,,,,,,,,,,,,,,,,,,,,,,,,,,,,
,607728dc0b4f8590b94ae57c,001,2022-04-28_22h30.58.120,classification_task,2021.2.3,Win32,61.26324818,607728dc0b4f8590b94ae57c,626b377229c10585ec392f89,626b4db21560075100387b37,,,,,,,,,,,,,,,,,,,,,,,l,1,1.2534,"[""0.106"",""0.398"",""0.534"",""0.776""]","[1,0,1,1]",0,54,54,54,1,1,1,,,0,FALSE,,,,,,,,,,,,,,,,,,,,,,,,,,,,,,
,607728dc0b4f8590b94ae57c,001,2022-04-28_22h30.58.120,classification_task,2021.2.3,Win32,61.26324818,607728dc0b4f8590b94ae57c,626b377229c10585ec392f89,626b4db21560075100387b37,,,,,,,,,,,,,,,,,,,,,,,l,1,0.9098,"[""0.106"",""0.259"",""0.534"",""0.396""]","[1,1,1,0]",0,55,55,55,1,1,1,,,0,FALSE,,,,,,,,,,,,,,,,,,,,,,,,,,,,,,
,607728dc0b4f8590b94ae57c,001,2022-04-28_22h30.58.120,classification_task,2021.2.3,Win32,61.26324818,607728dc0b4f8590b94ae57c,626b377229c10585ec392f89,626b4db21560075100387b37,,,,,,,,,,,,,,,,,,,,,,,a,1,1.1014,"[""0.309"",""0.031"",""0.869"",""0.926""]","[1,0,1,1]",0,56,56,56,1,0,0,,,0,FALSE,,,,,,,,,,,,,,,,,,,,,,,,,,,,,,
,607728dc0b4f8590b94ae57c,001,2022-04-28_22h30.58.120,classification_task,2021.2.3,Win32,61.26324818,607728dc0b4f8590b94ae57c,626b377229c10585ec392f89,626b4db21560075100387b37,,,,,,,,,,,,,,,,,,,,,,,a,1,1.4691,"[""0.309"",""0.443"",""0.869"",""0.396""]","[1,1,1,0]",0,57,57,57,1,0,0,,,0,FALSE,,,,,,,,,,,,,,,,,,,,,,,,,,,,,,
,607728dc0b4f8590b94ae57c,001,2022-04-28_22h30.58.120,classification_task,2021.2.3,Win32,61.26324818,607728dc0b4f8590b94ae57c,626b377229c10585ec392f89,626b4db21560075100387b37,,,,,,,,,,,,,,,,,,,,,,,l,0,1.3402,"[""0.143"",""0.443"",""0.869"",""0.926""]","[0,1,1,1]",0,58,58,58,1,0,0,,,0,FALSE,,,,,,,,,,,,,,,,,,,,,,,,,,,,,,
,607728dc0b4f8590b94ae57c,001,2022-04-28_22h30.58.120,classification_task,2021.2.3,Win32,61.26324818,607728dc0b4f8590b94ae57c,626b377229c10585ec392f89,626b4db21560075100387b37,,,,,,,,,,,,,,,,,,,,,,,a,1,0.9833,"[""0.309"",""0.443"",""0.143"",""0.926""]","[1,1,0,1]",0,59,59,59,1,0,0,,,0,FALSE,,,,,,,,,,,,,,,,,,,,,,,,,,,,,,
,607728dc0b4f8590b94ae57c,001,2022-04-28_22h30.58.120,classification_task,2021.2.3,Win32,61.26324818,607728dc0b4f8590b94ae57c,626b377229c10585ec392f89,626b4db21560075100387b37,,,,,,,,,,,,,,,,,,,,,,,a,0,1.1388,"[""0.655"",""0.259"",""0.534"",""0.776""]","[0,1,1,1]",0,60,60,60,1,1,1,,,0,FALSE,,,,,,,,,,,,,,,,,,,,,,,,,,,,,,
,607728dc0b4f8590b94ae57c,001,2022-04-28_22h30.58.120,classification_task,2021.2.3,Win32,61.26324818,607728dc0b4f8590b94ae57c,626b377229c10585ec392f89,626b4db21560075100387b37,,,,,,,,,,,,,,,,,,,,,,,l,1,1.1997,"[""0.106"",""0.259"",""0.815"",""0.776""]","[1,1,0,1]",0,61,61,61,1,1,1,,,0,FALSE,,,,,,,,,,,,,,,,,,,,,,,,,,,,,,
,607728dc0b4f8590b94ae57c,001,2022-04-28_22h30.58.120,classification_task,2021.2.3,Win32,61.26324818,607728dc0b4f8590b94ae57c,626b377229c10585ec392f89,626b4db21560075100387b37,,,,,,,,,,,,,,,,,,,,,,,a,0,1.1689,"[""0.066"",""0.356"",""0.604"",""0.568""]","[1,1,1,0]",0,62,62,62,1,1,0,,,0,FALSE,,,,,,,,,,,,,,,,,,,,,,,,,,,,,,
,607728dc0b4f8590b94ae57c,001,2022-04-28_22h30.58.120,classification_task,2021.2.3,Win32,61.26324818,607728dc0b4f8590b94ae57c,626b377229c10585ec392f89,626b4db21560075100387b37,,,,,,,,,,,,,,,,,,,,,,,l,0,1.106,"[""0.201"",""0.568"",""0.693"",""0.971""]","[1,0,1,1]",0,63,63,63,1,0,1,,,0,FALSE,,,,,,,,,,,,,,,,,,,,,,,,,,,,,,
,607728dc0b4f8590b94ae57c,001,2022-04-28_22h30.58.120,classification_task,2021.2.3,Win32,61.26324818,607728dc0b4f8590b94ae57c,626b377229c10585ec392f89,626b4db21560075100387b37,,,,,,,,,,,,,,,,,,,,,,,,,,,,,,,,,,,,,,,0, ,,0,0.466857108,366.31,0,0,0,0,1,2,1,,,,,,,,,,,,,,,,,
,607728dc0b4f8590b94ae57c,001,2022-04-28_22h30.58.120,classification_task,2021.2.3,Win32,61.26324818,607728dc0b4f8590b94ae57c,626b377229c10585ec392f89,626b4db21560075100387b37,,,,,,,,,,,,,,,,,,,,,,,,,,,,,,,,,,,,,,,1,  ,,0,5.182448887,371.7521,0,0,0,0,1,2,1,,,,,,,,,,,,,,,,,
,607728dc0b4f8590b94ae57c,001,2022-04-28_22h30.58.120,classification_task,2021.2.3,Win32,61.26324818,607728dc0b4f8590b94ae57c,626b377229c10585ec392f89,626b4db21560075100387b37,,,,,,,,,,,,,,,,,,,,,,,,,,,,,,,,,,,,,,,2,  ,,0,1.252789785,377.7281,0,0,0,0,1,2,1,,,,,,,,,,,,,,,,,
,607728dc0b4f8590b94ae57c,001,2022-04-28_22h30.58.120,classification_task,2021.2.3,Win32,61.26324818,607728dc0b4f8590b94ae57c,626b377229c10585ec392f89,626b4db21560075100387b37,,,,,,,,,,,,,,,,,,,,,,,,,,,,,,,,,,,,,,,,,,,,,0,0,0,0,1,,1,,,,,,,,,,,,,,,,,
,607728dc0b4f8590b94ae57c,001,2022-04-28_22h30.58.120,classification_task,2021.2.3,Win32,61.26324818,607728dc0b4f8590b94ae57c,626b377229c10585ec392f89,626b4db21560075100387b37,,,,,,,,,,,,,,,,,,,,,space,5.3081,l,1,2.8801,"[""0.815"",""0.259"",""0.534"",""0.776""]","[0,1,1,1]",0,0,0,0,1,1,1,,,0,FALSE,,,,,,,,,,,,,,,,,,,,,,,,,,,,,,
,607728dc0b4f8590b94ae57c,001,2022-04-28_22h30.58.120,classification_task,2021.2.3,Win32,61.26324818,607728dc0b4f8590b94ae57c,626b377229c10585ec392f89,626b4db21560075100387b37,,,,,,,,,,,,,,,,,,,,,,,l,1,1.5757,"[""0.106"",""0.259"",""0.534"",""0.401""]","[1,1,1,0]",0,1,1,1,1,1,1,,,0,FALSE,,,,,,,,,,,,,,,,,,,,,,,,,,,,,,
,607728dc0b4f8590b94ae57c,001,2022-04-28_22h30.58.120,classification_task,2021.2.3,Win32,61.26324818,607728dc0b4f8590b94ae57c,626b377229c10585ec392f89,626b4db21560075100387b37,,,,,,,,,,,,,,,,,,,,,,,a,1,2.0139,"[""0.568"",""0.443"",""0.869"",""0.926""]","[0,1,1,1]",0,2,2,2,1,0,0,,,0,FALSE,,,,,,,,,,,,,,,,,,,,,,,,,,,,,,
,607728dc0b4f8590b94ae57c,001,2022-04-28_22h30.58.120,classification_task,2021.2.3,Win32,61.26324818,607728dc0b4f8590b94ae57c,626b377229c10585ec392f89,626b4db21560075100387b37,,,,,,,,,,,,,,,,,,,,,,,l,1,4.2304,"[""0.066"",""0.356"",""0.604"",""0.810""]","[1,1,1,0]",0,3,3,3,1,1,0,,,0,FALSE,,,,,,,,,,,,,,,,,,,,,,,,,,,,,,
,607728dc0b4f8590b94ae57c,001,2022-04-28_22h30.58.120,classification_task,2021.2.3,Win32,61.26324818,607728dc0b4f8590b94ae57c,626b377229c10585ec392f89,626b4db21560075100387b37,,,,,,,,,,,,,,,,,,,,,,,a,1,0.8307,"[""0.309"",""0.031"",""0.869"",""0.926""]","[1,0,1,1]",0,4,4,4,1,0,0,,,0,FALSE,,,,,,,,,,,,,,,,,,,,,,,,,,,,,,
,607728dc0b4f8590b94ae57c,001,2022-04-28_22h30.58.120,classification_task,2021.2.3,Win32,61.26324818,607728dc0b4f8590b94ae57c,626b377229c10585ec392f89,626b4db21560075100387b37,,,,,,,,,,,,,,,,,,,,,,,a,1,1.9056,"[""0.201"",""0.494"",""0.693"",""0.396""]","[1,1,1,0]",0,5,5,5,1,0,1,,,0,FALSE,,,,,,,,,,,,,,,,,,,,,,,,,,,,,,
,607728dc0b4f8590b94ae57c,001,2022-04-28_22h30.58.120,classification_task,2021.2.3,Win32,61.26324818,607728dc0b4f8590b94ae57c,626b377229c10585ec392f89,626b4db21560075100387b37,,,,,,,,,,,,,,,,,,,,,,,a,1,0.8819,"[""0.201"",""0.398"",""0.693"",""0.971""]","[1,0,1,1]",0,6,6,6,1,0,1,,,0,FALSE,,,,,,,,,,,,,,,,,,,,,,,,,,,,,,
,607728dc0b4f8590b94ae57c,001,2022-04-28_22h30.58.120,classification_task,2021.2.3,Win32,61.26324818,607728dc0b4f8590b94ae57c,626b377229c10585ec392f89,626b4db21560075100387b37,,,,,,,,,,,,,,,,,,,,,,,l,1,1.1493,"[""0.106"",""0.259"",""0.827"",""0.776""]","[1,1,0,1]",0,7,7,7,1,1,1,,,0,FALSE,,,,,,,,,,,,,,,,,,,,,,,,,,,,,,
,607728dc0b4f8590b94ae57c,001,2022-04-28_22h30.58.120,classification_task,2021.2.3,Win32,61.26324818,607728dc0b4f8590b94ae57c,626b377229c10585ec392f89,626b4db21560075100387b37,,,,,,,,,,,,,,,,,,,,,,,a,1,1.016,"[""0.150"",""0.494"",""0.693"",""0.971""]","[0,1,1,1]",0,8,8,8,1,0,1,,,0,FALSE,,,,,,,,,,,,,,,,,,,,,,,,,,,,,,
,607728dc0b4f8590b94ae57c,001,2022-04-28_22h30.58.120,classification_task,2021.2.3,Win32,61.26324818,607728dc0b4f8590b94ae57c,626b377229c10585ec392f89,626b4db21560075100387b37,,,,,,,,,,,,,,,,,,,,,,,l,1,1.3908,"[""0.066"",""0.408"",""0.604"",""0.734""]","[1,0,1,1]",0,9,9,9,1,1,0,,,0,FALSE,,,,,,,,,,,,,,,,,,,,,,,,,,,,,,
,607728dc0b4f8590b94ae57c,001,2022-04-28_22h30.58.120,classification_task,2021.2.3,Win32,61.26324818,607728dc0b4f8590b94ae57c,626b377229c10585ec392f89,626b4db21560075100387b37,,,,,,,,,,,,,,,,,,,,,,,a,1,0.5991,"[""0.309"",""0.443"",""0.869"",""0.167""]","[1,1,1,0]",0,10,10,10,1,0,0,,,0,FALSE,,,,,,,,,,,,,,,,,,,,,,,,,,,,,,
,607728dc0b4f8590b94ae57c,001,2022-04-28_22h30.58.120,classification_task,2021.2.3,Win32,61.26324818,607728dc0b4f8590b94ae57c,626b377229c10585ec392f89,626b4db21560075100387b37,,,,,,,,,,,,,,,,,,,,,,,a,1,1.1381,"[""0.201"",""0.494"",""0.655"",""0.971""]","[1,1,0,1]",0,11,11,11,1,0,1,,,0,FALSE,,,,,,,,,,,,,,,,,,,,,,,,,,,,,,
,607728dc0b4f8590b94ae57c,001,2022-04-28_22h30.58.120,classification_task,2021.2.3,Win32,61.26324818,607728dc0b4f8590b94ae57c,626b377229c10585ec392f89,626b4db21560075100387b37,,,,,,,,,,,,,,,,,,,,,,,a,1,0.8451,"[""0.309"",""0.443"",""0.815"",""0.926""]","[1,1,0,1]",0,12,12,12,1,0,0,,,0,FALSE,,,,,,,,,,,,,,,,,,,,,,,,,,,,,,
,607728dc0b4f8590b94ae57c,001,2022-04-28_22h30.58.120,classification_task,2021.2.3,Win32,61.26324818,607728dc0b4f8590b94ae57c,626b377229c10585ec392f89,626b4db21560075100387b37,,,,,,,,,,,,,,,,,,,,,,,l,1,0.5828,"[""0.066"",""0.356"",""0.810"",""0.734""]","[1,1,0,1]",0,13,13,13,1,1,0,,,0,FALSE,,,,,,,,,,,,,,,,,,,,,,,,,,,,,,
,607728dc0b4f8590b94ae57c,001,2022-04-28_22h30.58.120,classification_task,2021.2.3,Win32,61.26324818,607728dc0b4f8590b94ae57c,626b377229c10585ec392f89,626b4db21560075100387b37,,,,,,,,,,,,,,,,,,,,,,,l,1,0.6581,"[""0.150"",""0.356"",""0.604"",""0.734""]","[0,1,1,1]",0,14,14,14,1,1,0,,,0,FALSE,,,,,,,,,,,,,,,,,,,,,,,,,,,,,,
,607728dc0b4f8590b94ae57c,001,2022-04-28_22h30.58.120,classification_task,2021.2.3,Win32,61.26324818,607728dc0b4f8590b94ae57c,626b377229c10585ec392f89,626b4db21560075100387b37,,,,,,,,,,,,,,,,,,,,,,,l,1,1.0791,"[""0.106"",""0.401"",""0.534"",""0.776""]","[1,0,1,1]",0,15,15,15,1,1,1,,,0,FALSE,,,,,,,,,,,,,,,,,,,,,,,,,,,,,,
,607728dc0b4f8590b94ae57c,001,2022-04-28_22h30.58.120,classification_task,2021.2.3,Win32,61.26324818,607728dc0b4f8590b94ae57c,626b377229c10585ec392f89,626b4db21560075100387b37,,,,,,,,,,,,,,,,,,,,,,,l,1,1.2059,"[""0.398"",""0.356"",""0.604"",""0.734""]","[0,1,1,1]",0,16,16,16,1,1,0,,,0,FALSE,,,,,,,,,,,,,,,,,,,,,,,,,,,,,,
,607728dc0b4f8590b94ae57c,001,2022-04-28_22h30.58.120,classification_task,2021.2.3,Win32,61.26324818,607728dc0b4f8590b94ae57c,626b377229c10585ec392f89,626b4db21560075100387b37,,,,,,,,,,,,,,,,,,,,,,,a,1,0.9868,"[""0.201"",""0.815"",""0.693"",""0.971""]","[1,0,1,1]",0,17,17,17,1,0,1,,,0,FALSE,,,,,,,,,,,,,,,,,,,,,,,,,,,,,,
,607728dc0b4f8590b94ae57c,001,2022-04-28_22h30.58.120,classification_task,2021.2.3,Win32,61.26324818,607728dc0b4f8590b94ae57c,626b377229c10585ec392f89,626b4db21560075100387b37,,,,,,,,,,,,,,,,,,,,,,,l,1,1.0379,"[""0.106"",""0.568"",""0.534"",""0.776""]","[1,0,1,1]",0,18,18,18,1,1,1,,,0,FALSE,,,,,,,,,,,,,,,,,,,,,,,,,,,,,,
,607728dc0b4f8590b94ae57c,001,2022-04-28_22h30.58.120,classification_task,2021.2.3,Win32,61.26324818,607728dc0b4f8590b94ae57c,626b377229c10585ec392f89,626b4db21560075100387b37,,,,,,,,,,,,,,,,,,,,,,,l,1,1.3342,"[""0.066"",""0.408"",""0.604"",""0.734""]","[1,0,1,1]",0,19,19,19,1,1,0,,,0,FALSE,,,,,,,,,,,,,,,,,,,,,,,,,,,,,,
,607728dc0b4f8590b94ae57c,001,2022-04-28_22h30.58.120,classification_task,2021.2.3,Win32,61.26324818,607728dc0b4f8590b94ae57c,626b377229c10585ec392f89,626b4db21560075100387b37,,,,,,,,,,,,,,,,,,,,,,,a,0,1.7116,"[""0.396"",""0.259"",""0.534"",""0.776""]","[0,1,1,1]",0,20,20,20,1,1,1,,,0,FALSE,,,,,,,,,,,,,,,,,,,,,,,,,,,,,,
,607728dc0b4f8590b94ae57c,001,2022-04-28_22h30.58.120,classification_task,2021.2.3,Win32,61.26324818,607728dc0b4f8590b94ae57c,626b377229c10585ec392f89,626b4db21560075100387b37,,,,,,,,,,,,,,,,,,,,,,,a,1,1.0304,"[""0.309"",""0.655"",""0.869"",""0.926""]","[1,0,1,1]",0,21,21,21,1,0,0,,,0,FALSE,,,,,,,,,,,,,,,,,,,,,,,,,,,,,,
,607728dc0b4f8590b94ae57c,001,2022-04-28_22h30.58.120,classification_task,2021.2.3,Win32,61.26324818,607728dc0b4f8590b94ae57c,626b377229c10585ec392f89,626b4db21560075100387b37,,,,,,,,,,,,,,,,,,,,,,,a,1,0.5445,"[""0.655"",""0.443"",""0.869"",""0.926""]","[0,1,1,1]",0,22,22,22,1,0,0,,,0,FALSE,,,,,,,,,,,,,,,,,,,,,,,,,,,,,,
,607728dc0b4f8590b94ae57c,001,2022-04-28_22h30.58.120,classification_task,2021.2.3,Win32,61.26324818,607728dc0b4f8590b94ae57c,626b377229c10585ec392f89,626b4db21560075100387b37,,,,,,,,,,,,,,,,,,,,,,,a,1,1.0625,"[""0.201"",""0.494"",""0.693"",""0.568""]","[1,1,1,0]",0,23,23,23,1,0,1,,,0,FALSE,,,,,,,,,,,,,,,,,,,,,,,,,,,,,,
,607728dc0b4f8590b94ae57c,001,2022-04-28_22h30.58.120,classification_task,2021.2.3,Win32,61.26324818,607728dc0b4f8590b94ae57c,626b377229c10585ec392f89,626b4db21560075100387b37,,,,,,,,,,,,,,,,,,,,,,,a,1,1.2426,"[""0.201"",""0.494"",""0.031"",""0.971""]","[1,1,0,1]",0,24,24,24,1,0,1,,,0,FALSE,,,,,,,,,,,,,,,,,,,,,,,,,,,,,,
,607728dc0b4f8590b94ae57c,001,2022-04-28_22h30.58.120,classification_task,2021.2.3,Win32,61.26324818,607728dc0b4f8590b94ae57c,626b377229c10585ec392f89,626b4db21560075100387b37,,,,,,,,,,,,,,,,,,,,,,,a,1,1.1711,"[""0.810"",""0.494"",""0.693"",""0.971""]","[0,1,1,1]",0,25,25,25,1,0,1,,,0,FALSE,,,,,,,,,,,,,,,,,,,,,,,,,,,,,,
,607728dc0b4f8590b94ae57c,001,2022-04-28_22h30.58.120,classification_task,2021.2.3,Win32,61.26324818,607728dc0b4f8590b94ae57c,626b377229c10585ec392f89,626b4db21560075100387b37,,,,,,,,,,,,,,,,,,,,,,,l,1,1.0578,"[""0.106"",""0.259"",""0.534"",""0.155""]","[1,1,1,0]",0,26,26,26,1,1,1,,,0,FALSE,,,,,,,,,,,,,,,,,,,,,,,,,,,,,,
,607728dc0b4f8590b94ae57c,001,2022-04-28_22h30.58.120,classification_task,2021.2.3,Win32,61.26324818,607728dc0b4f8590b94ae57c,626b377229c10585ec392f89,626b4db21560075100387b37,,,,,,,,,,,,,,,,,,,,,,,a,1,0.9996,"[""0.309"",""0.443"",""0.408"",""0.926""]","[1,1,0,1]",0,27,27,27,1,0,0,,,0,FALSE,,,,,,,,,,,,,,,,,,,,,,,,,,,,,,
,607728dc0b4f8590b94ae57c,001,2022-04-28_22h30.58.120,classification_task,2021.2.3,Win32,61.26324818,607728dc0b4f8590b94ae57c,626b377229c10585ec392f89,626b4db21560075100387b37,,,,,,,,,,,,,,,,,,,,,,,l,1,1.8381,"[""0.106"",""0.259"",""0.568"",""0.776""]","[1,1,0,1]",0,28,28,28,1,1,1,,,0,FALSE,,,,,,,,,,,,,,,,,,,,,,,,,,,,,,
,607728dc0b4f8590b94ae57c,001,2022-04-28_22h30.58.120,classification_task,2021.2.3,Win32,61.26324818,607728dc0b4f8590b94ae57c,626b377229c10585ec392f89,626b4db21560075100387b37,,,,,,,,,,,,,,,,,,,,,,,a,1,0.8283,"[""0.309"",""0.443"",""0.869"",""0.815""]","[1,1,1,0]",0,29,29,29,1,0,0,,,0,FALSE,,,,,,,,,,,,,,,,,,,,,,,,,,,,,,
,607728dc0b4f8590b94ae57c,001,2022-04-28_22h30.58.120,classification_task,2021.2.3,Win32,61.26324818,607728dc0b4f8590b94ae57c,626b377229c10585ec392f89,626b4db21560075100387b37,,,,,,,,,,,,,,,,,,,,,,,l,1,0.8998,"[""0.066"",""0.356"",""0.604"",""0.408""]","[1,1,1,0]",0,30,30,30,1,1,0,,,0,FALSE,,,,,,,,,,,,,,,,,,,,,,,,,,,,,,
,607728dc0b4f8590b94ae57c,001,2022-04-28_22h30.58.120,classification_task,2021.2.3,Win32,61.26324818,607728dc0b4f8590b94ae57c,626b377229c10585ec392f89,626b4db21560075100387b37,,,,,,,,,,,,,,,,,,,,,,,l,1,1.0139,"[""0.066"",""0.356"",""0.150"",""0.734""]","[1,1,0,1]",0,31,31,31,1,1,0,,,0,FALSE,,,,,,,,,,,,,,,,,,,,,,,,,,,,,,
,607728dc0b4f8590b94ae57c,001,2022-04-28_22h30.58.120,classification_task,2021.2.3,Win32,61.26324818,607728dc0b4f8590b94ae57c,626b377229c10585ec392f89,626b4db21560075100387b37,,,,,,,,,,,,,,,,,,,,,,,a,0,1.1404,"[""0.031"",""0.259"",""0.534"",""0.776""]","[0,1,1,1]",0,32,32,32,1,1,1,,,0,FALSE,,,,,,,,,,,,,,,,,,,,,,,,,,,,,,
,607728dc0b4f8590b94ae57c,001,2022-04-28_22h30.58.120,classification_task,2021.2.3,Win32,61.26324818,607728dc0b4f8590b94ae57c,626b377229c10585ec392f89,626b4db21560075100387b37,,,,,,,,,,,,,,,,,,,,,,,a,1,1.2711,"[""0.201"",""0.408"",""0.693"",""0.971""]","[1,0,1,1]",0,33,33,33,1,0,1,,,0,FALSE,,,,,,,,,,,,,,,,,,,,,,,,,,,,,,
,607728dc0b4f8590b94ae57c,001,2022-04-28_22h30.58.120,classification_task,2021.2.3,Win32,61.26324818,607728dc0b4f8590b94ae57c,626b377229c10585ec392f89,626b4db21560075100387b37,,,,,,,,,,,,,,,,,,,,,,,l,1,1.0759,"[""0.106"",""0.167"",""0.534"",""0.776""]","[1,0,1,1]",0,34,34,34,1,1,1,,,0,FALSE,,,,,,,,,,,,,,,,,,,,,,,,,,,,,,
,607728dc0b4f8590b94ae57c,001,2022-04-28_22h30.58.120,classification_task,2021.2.3,Win32,61.26324818,607728dc0b4f8590b94ae57c,626b377229c10585ec392f89,626b4db21560075100387b37,,,,,,,,,,,,,,,,,,,,,,,l,1,1.3008,"[""0.066"",""0.155"",""0.604"",""0.734""]","[1,0,1,1]",0,35,35,35,1,1,0,,,0,FALSE,,,,,,,,,,,,,,,,,,,,,,,,,,,,,,
,607728dc0b4f8590b94ae57c,001,2022-04-28_22h30.58.120,classification_task,2021.2.3,Win32,61.26324818,607728dc0b4f8590b94ae57c,626b377229c10585ec392f89,626b4db21560075100387b37,,,,,,,,,,,,,,,,,,,,,,,a,1,1.035,"[""0.155"",""0.443"",""0.869"",""0.926""]","[0,1,1,1]",0,36,36,36,1,0,0,,,0,FALSE,,,,,,,,,,,,,,,,,,,,,,,,,,,,,,
,607728dc0b4f8590b94ae57c,001,2022-04-28_22h30.58.120,classification_task,2021.2.3,Win32,61.26324818,607728dc0b4f8590b94ae57c,626b377229c10585ec392f89,626b4db21560075100387b37,,,,,,,,,,,,,,,,,,,,,,,l,1,0.6884,"[""0.066"",""0.356"",""0.810"",""0.734""]","[1,1,0,1]",0,37,37,37,1,1,0,,,0,FALSE,,,,,,,,,,,,,,,,,,,,,,,,,,,,,,
,607728dc0b4f8590b94ae57c,001,2022-04-28_22h30.58.120,classification_task,2021.2.3,Win32,61.26324818,607728dc0b4f8590b94ae57c,626b377229c10585ec392f89,626b4db21560075100387b37,,,,,,,,,,,,,,,,,,,,,,,l,1,1.4534,"[""0.106"",""0.259"",""0.155"",""0.776""]","[1,1,0,1]",0,38,38,38,1,1,1,,,0,FALSE,,,,,,,,,,,,,,,,,,,,,,,,,,,,,,
,607728dc0b4f8590b94ae57c,001,2022-04-28_22h30.58.120,classification_task,2021.2.3,Win32,61.26324818,607728dc0b4f8590b94ae57c,626b377229c10585ec392f89,626b4db21560075100387b37,,,,,,,,,,,,,,,,,,,,,,,l,1,1.4841,"[""0.106"",""0.259"",""0.534"",""0.810""]","[1,1,1,0]",0,39,39,39,1,1,1,,,0,FALSE,,,,,,,,,,,,,,,,,,,,,,,,,,,,,,
,607728dc0b4f8590b94ae57c,001,2022-04-28_22h30.58.120,classification_task,2021.2.3,Win32,61.26324818,607728dc0b4f8590b94ae57c,626b377229c10585ec392f89,626b4db21560075100387b37,,,,,,,,,,,,,,,,,,,,,,,a,1,1.0482,"[""0.201"",""0.494"",""0.810"",""0.971""]","[1,1,0,1]",0,40,40,40,1,0,1,,,0,FALSE,,,,,,,,,,,,,,,,,,,,,,,,,,,,,,
,607728dc0b4f8590b94ae57c,001,2022-04-28_22h30.58.120,classification_task,2021.2.3,Win32,61.26324818,607728dc0b4f8590b94ae57c,626b377229c10585ec392f89,626b4db21560075100387b37,,,,,,,,,,,,,,,,,,,,,,,a,1,0.8117,"[""0.309"",""0.815"",""0.869"",""0.926""]","[1,0,1,1]",0,41,41,41,1,0,0,,,0,FALSE,,,,,,,,,,,,,,,,,,,,,,,,,,,,,,
,607728dc0b4f8590b94ae57c,001,2022-04-28_22h30.58.120,classification_task,2021.2.3,Win32,61.26324818,607728dc0b4f8590b94ae57c,626b377229c10585ec392f89,626b4db21560075100387b37,,,,,,,,,,,,,,,,,,,,,,,a,1,0.5439,"[""0.309"",""0.443"",""0.869"",""0.143""]","[1,1,1,0]",0,42,42,42,1,0,0,,,0,FALSE,,,,,,,,,,,,,,,,,,,,,,,,,,,,,,
,607728dc0b4f8590b94ae57c,001,2022-04-28_22h30.58.120,classification_task,2021.2.3,Win32,61.26324818,607728dc0b4f8590b94ae57c,626b377229c10585ec392f89,626b4db21560075100387b37,,,,,,,,,,,,,,,,,,,,,,,a,1,1.103,"[""0.408"",""0.494"",""0.693"",""0.971""]","[0,1,1,1]",0,43,43,43,1,0,1,,,0,FALSE,,,,,,,,,,,,,,,,,,,,,,,,,,,,,,
,607728dc0b4f8590b94ae57c,001,2022-04-28_22h30.58.120,classification_task,2021.2.3,Win32,61.26324818,607728dc0b4f8590b94ae57c,626b377229c10585ec392f89,626b4db21560075100387b37,,,,,,,,,,,,,,,,,,,,,,,l,1,0.9052,"[""0.568"",""0.356"",""0.604"",""0.734""]","[0,1,1,1]",0,44,44,44,1,1,0,,,0,FALSE,,,,,,,,,,,,,,,,,,,,,,,,,,,,,,
,607728dc0b4f8590b94ae57c,001,2022-04-28_22h30.58.120,classification_task,2021.2.3,Win32,61.26324818,607728dc0b4f8590b94ae57c,626b377229c10585ec392f89,626b4db21560075100387b37,,,,,,,,,,,,,,,,,,,,,,,a,1,0.9952,"[""0.201"",""0.494"",""0.693"",""0.396""]","[1,1,1,0]",0,45,45,45,1,0,1,,,0,FALSE,,,,,,,,,,,,,,,,,,,,,,,,,,,,,,
,607728dc0b4f8590b94ae57c,001,2022-04-28_22h30.58.120,classification_task,2021.2.3,Win32,61.26324818,607728dc0b4f8590b94ae57c,626b377229c10585ec392f89,626b4db21560075100387b37,,,,,,,,,,,,,,,,,,,,,,,a,1,1.1565,"[""0.309"",""0.443"",""0.396"",""0.926""]","[1,1,0,1]",0,46,46,46,1,0,0,,,0,FALSE,,,,,,,,,,,,,,,,,,,,,,,,,,,,,,
,607728dc0b4f8590b94ae57c,001,2022-04-28_22h30.58.120,classification_task,2021.2.3,Win32,61.26324818,607728dc0b4f8590b94ae57c,626b377229c10585ec392f89,626b4db21560075100387b37,,,,,,,,,,,,,,,,,,,,,,,l,1,0.7166,"[""0.066"",""0.356"",""0.604"",""0.810""]","[1,1,1,0]",0,47,47,47,1,1,0,,,0,FALSE,,,,,,,,,,,,,,,,,,,,,,,,,,,,,,
,607728dc0b4f8590b94ae57c,001,2022-04-28_22h30.58.120,classification_task,2021.2.3,Win32,61.26324818,607728dc0b4f8590b94ae57c,626b377229c10585ec392f89,626b4db21560075100387b37,,,,,,,,,,,,,,,,,,,,,,,l,1,1.039,"[""0.106"",""0.403"",""0.534"",""0.776""]","[1,0,1,1]",0,48,48,48,1,1,1,,,0,FALSE,,,,,,,,,,,,,,,,,,,,,,,,,,,,,,
,607728dc0b4f8590b94ae57c,001,2022-04-28_22h30.58.120,classification_task,2021.2.3,Win32,61.26324818,607728dc0b4f8590b94ae57c,626b377229c10585ec392f89,626b4db21560075100387b37,,,,,,,,,,,,,,,,,,,,,,,a,1,0.7551,"[""0.309"",""0.396"",""0.869"",""0.926""]","[1,0,1,1]",0,49,49,49,1,0,0,,,0,FALSE,,,,,,,,,,,,,,,,,,,,,,,,,,,,,,
,607728dc0b4f8590b94ae57c,001,2022-04-28_22h30.58.120,classification_task,2021.2.3,Win32,61.26324818,607728dc0b4f8590b94ae57c,626b377229c10585ec392f89,626b4db21560075100387b37,,,,,,,,,,,,,,,,,,,,,,,a,0,1.1176,"[""0.066"",""0.356"",""0.604"",""0.167""]","[1,1,1,0]",0,50,50,50,1,1,0,,,0,FALSE,,,,,,,,,,,,,,,,,,,,,,,,,,,,,,
,607728dc0b4f8590b94ae57c,001,2022-04-28_22h30.58.120,classification_task,2021.2.3,Win32,61.26324818,607728dc0b4f8590b94ae57c,626b377229c10585ec392f89,626b4db21560075100387b37,,,,,,,,,,,,,,,,,,,,,,,a,0,1.1257,"[""0.066"",""0.356"",""0.167"",""0.734""]","[1,1,0,1]",0,51,51,51,1,1,0,,,0,FALSE,,,,,,,,,,,,,,,,,,,,,,,,,,,,,,
,607728dc0b4f8590b94ae57c,001,2022-04-28_22h30.58.120,classification_task,2021.2.3,Win32,61.26324818,607728dc0b4f8590b94ae57c,626b377229c10585ec392f89,626b4db21560075100387b37,,,,,,,,,,,,,,,,,,,,,,,a,1,0.9484,"[""0.150"",""0.443"",""0.869"",""0.926""]","[0,1,1,1]",0,52,52,52,1,0,0,,,0,FALSE,,,,,,,,,,,,,,,,,,,,,,,,,,,,,,
,607728dc0b4f8590b94ae57c,001,2022-04-28_22h30.58.120,classification_task,2021.2.3,Win32,61.26324818,607728dc0b4f8590b94ae57c,626b377229c10585ec392f89,626b4db21560075100387b37,,,,,,,,,,,,,,,,,,,,,,,a,1,1.0058,"[""0.201"",""0.396"",""0.693"",""0.971""]","[1,0,1,1]",0,53,53,53,1,0,1,,,0,FALSE,,,,,,,,,,,,,,,,,,,,,,,,,,,,,,
,607728dc0b4f8590b94ae57c,001,2022-04-28_22h30.58.120,classification_task,2021.2.3,Win32,61.26324818,607728dc0b4f8590b94ae57c,626b377229c10585ec392f89,626b4db21560075100387b37,,,,,,,,,,,,,,,,,,,,,,,a,1,1.2781,"[""0.201"",""0.494"",""0.693"",""0.031""]","[1,1,1,0]",0,54,54,54,1,0,1,,,0,FALSE,,,,,,,,,,,,,,,,,,,,,,,,,,,,,,
,607728dc0b4f8590b94ae57c,001,2022-04-28_22h30.58.120,classification_task,2021.2.3,Win32,61.26324818,607728dc0b4f8590b94ae57c,626b377229c10585ec392f89,626b4db21560075100387b37,,,,,,,,,,,,,,,,,,,,,,,a,0,0.8726,"[""0.810"",""0.259"",""0.534"",""0.776""]","[0,1,1,1]",0,55,55,55,1,1,1,,,0,FALSE,,,,,,,,,,,,,,,,,,,,,,,,,,,,,,
,607728dc0b4f8590b94ae57c,001,2022-04-28_22h30.58.120,classification_task,2021.2.3,Win32,61.26324818,607728dc0b4f8590b94ae57c,626b377229c10585ec392f89,626b4db21560075100387b37,,,,,,,,,,,,,,,,,,,,,,,a,1,1.0886,"[""0.201"",""0.494"",""0.150"",""0.971""]","[1,1,0,1]",0,56,56,56,1,0,1,,,0,FALSE,,,,,,,,,,,,,,,,,,,,,,,,,,,,,,
,607728dc0b4f8590b94ae57c,001,2022-04-28_22h30.58.120,classification_task,2021.2.3,Win32,61.26324818,607728dc0b4f8590b94ae57c,626b377229c10585ec392f89,626b4db21560075100387b37,,,,,,,,,,,,,,,,,,,,,,,a,0,0.7899,"[""0.150"",""0.356"",""0.604"",""0.734""]","[0,1,1,1]",0,57,57,57,1,1,0,,,0,FALSE,,,,,,,,,,,,,,,,,,,,,,,,,,,,,,
,607728dc0b4f8590b94ae57c,001,2022-04-28_22h30.58.120,classification_task,2021.2.3,Win32,61.26324818,607728dc0b4f8590b94ae57c,626b377229c10585ec392f89,626b4db21560075100387b37,,,,,,,,,,,,,,,,,,,,,,,a,1,0.8656,"[""0.309"",""0.443"",""0.869"",""0.568""]","[1,1,1,0]",0,58,58,58,1,0,0,,,0,FALSE,,,,,,,,,,,,,,,,,,,,,,,,,,,,,,
,607728dc0b4f8590b94ae57c,001,2022-04-28_22h30.58.120,classification_task,2021.2.3,Win32,61.26324818,607728dc0b4f8590b94ae57c,626b377229c10585ec392f89,626b4db21560075100387b37,,,,,,,,,,,,,,,,,,,,,,,a,0,1.1052,"[""0.066"",""0.396"",""0.604"",""0.734""]","[1,0,1,1]",0,59,59,59,1,1,0,,,0,FALSE,,,,,,,,,,,,,,,,,,,,,,,,,,,,,,
,607728dc0b4f8590b94ae57c,001,2022-04-28_22h30.58.120,classification_task,2021.2.3,Win32,61.26324818,607728dc0b4f8590b94ae57c,626b377229c10585ec392f89,626b4db21560075100387b37,,,,,,,,,,,,,,,,,,,,,,,l,1,1.1364,"[""0.106"",""0.259"",""0.396"",""0.776""]","[1,1,0,1]",0,60,60,60,1,1,1,,,0,FALSE,,,,,,,,,,,,,,,,,,,,,,,,,,,,,,
,607728dc0b4f8590b94ae57c,001,2022-04-28_22h30.58.120,classification_task,2021.2.3,Win32,61.26324818,607728dc0b4f8590b94ae57c,626b377229c10585ec392f89,626b4db21560075100387b37,,,,,,,,,,,,,,,,,,,,,,,a,1,0.5979,"[""0.309"",""0.443"",""0.655"",""0.926""]","[1,1,0,1]",0,61,61,61,1,0,0,,,0,FALSE,,,,,,,,,,,,,,,,,,,,,,,,,,,,,,
,607728dc0b4f8590b94ae57c,001,2022-04-28_22h30.58.120,classification_task,2021.2.3,Win32,61.26324818,607728dc0b4f8590b94ae57c,626b377229c10585ec392f89,626b4db21560075100387b37,,,,,,,,,,,,,,,,,,,,,,,l,1,1.0853,"[""0.106"",""0.259"",""0.534"",""0.401""]","[1,1,1,0]",0,62,62,62,1,1,1,,,0,FALSE,,,,,,,,,,,,,,,,,,,,,,,,,,,,,,
,607728dc0b4f8590b94ae57c,001,2022-04-28_22h30.58.120,classification_task,2021.2.3,Win32,61.26324818,607728dc0b4f8590b94ae57c,626b377229c10585ec392f89,626b4db21560075100387b37,,,,,,,,,,,,,,,,,,,,,,,a,1,0.7267,"[""0.827"",""0.494"",""0.693"",""0.971""]","[0,1,1,1]",0,63,63,63,1,0,1,,,0,FALSE,,,,,,,,,,,,,,,,,,,,,,,,,,,,,,
,607728dc0b4f8590b94ae57c,001,2022-04-28_22h30.58.120,classification_task,2021.2.3,Win32,61.26324818,607728dc0b4f8590b94ae57c,626b377229c10585ec392f89,626b4db21560075100387b37,,,,,,,,,,,,,,,,,,,,,,,,,,,,,,,,,,,,,,,0, ,,0,0.972099849,150.8104,0,1,1,1,1,2,2,,,,,,,,,,,,,,,,,
,607728dc0b4f8590b94ae57c,001,2022-04-28_22h30.58.120,classification_task,2021.2.3,Win32,61.26324818,607728dc0b4f8590b94ae57c,626b377229c10585ec392f89,626b4db21560075100387b37,,,,,,,,,,,,,,,,,,,,,,,,,,,,,,,,,,,,,,,1,  ,,0,1.982583189,152.4504,0,1,1,1,1,2,2,,,,,,,,,,,,,,,,,
,607728dc0b4f8590b94ae57c,001,2022-04-28_22h30.58.120,classification_task,2021.2.3,Win32,61.26324818,607728dc0b4f8590b94ae57c,626b377229c10585ec392f89,626b4db21560075100387b37,,,,,,,,,,,,,,,,,,,,,,,,,,,,,,,,,,,,,,,2,  ,,0,1.056307686,154.9853,0,1,1,1,1,2,2,,,,,,,,,,,,,,,,,
,607728dc0b4f8590b94ae57c,001,2022-04-28_22h30.58.120,classification_task,2021.2.3,Win32,61.26324818,607728dc0b4f8590b94ae57c,626b377229c10585ec392f89,626b4db21560075100387b37,,,,,,,,,,,,,,,,,,,,,,,,,,,,,,,,,,,,,,,,,,,,,0,1,1,1,1,,2,,,,,,,,,,,,,,,,,
,607728dc0b4f8590b94ae57c,001,2022-04-28_22h30.58.120,classification_task,2021.2.3,Win32,61.26324818,607728dc0b4f8590b94ae57c,626b377229c10585ec392f89,626b4db21560075100387b37,,,,,,,,,,,,,,,,,,,,,space,13.8534,l,1,1.23,"[""0.106"",""0.398"",""0.534"",""0.776""]","[1,0,1,1]",0,0,0,0,1,1,1,,,0,FALSE,,,,,,,,,,,,,,,,,,,,,,,,,,,,,,
,607728dc0b4f8590b94ae57c,001,2022-04-28_22h30.58.120,classification_task,2021.2.3,Win32,61.26324818,607728dc0b4f8590b94ae57c,626b377229c10585ec392f89,626b4db21560075100387b37,,,,,,,,,,,,,,,,,,,,,,,a,0,1.085,"[""0.066"",""0.356"",""0.604"",""0.815""]","[1,1,1,0]",0,1,1,1,1,1,0,,,0,FALSE,,,,,,,,,,,,,,,,,,,,,,,,,,,,,,
,607728dc0b4f8590b94ae57c,001,2022-04-28_22h30.58.120,classification_task,2021.2.3,Win32,61.26324818,607728dc0b4f8590b94ae57c,626b377229c10585ec392f89,626b4db21560075100387b37,,,,,,,,,,,,,,,,,,,,,,,a,0,1.4104,"[""0.066"",""0.401"",""0.604"",""0.734""]","[1,0,1,1]",0,2,2,2,1,1,0,,,0,FALSE,,,,,,,,,,,,,,,,,,,,,,,,,,,,,,
,607728dc0b4f8590b94ae57c,001,2022-04-28_22h30.58.120,classification_task,2021.2.3,Win32,61.26324818,607728dc0b4f8590b94ae57c,626b377229c10585ec392f89,626b4db21560075100387b37,,,,,,,,,,,,,,,,,,,,,,,a,1,1.085,"[""0.309"",""0.443"",""0.815"",""0.926""]","[1,1,0,1]",0,3,3,3,1,0,0,,,0,FALSE,,,,,,,,,,,,,,,,,,,,,,,,,,,,,,
,607728dc0b4f8590b94ae57c,001,2022-04-28_22h30.58.120,classification_task,2021.2.3,Win32,61.26324818,607728dc0b4f8590b94ae57c,626b377229c10585ec392f89,626b4db21560075100387b37,,,,,,,,,,,,,,,,,,,,,,,a,1,1.3097,"[""0.201"",""0.494"",""0.655"",""0.971""]","[1,1,0,1]",0,4,4,4,1,0,1,,,0,FALSE,,,,,,,,,,,,,,,,,,,,,,,,,,,,,,
,607728dc0b4f8590b94ae57c,001,2022-04-28_22h30.58.120,classification_task,2021.2.3,Win32,61.26324818,607728dc0b4f8590b94ae57c,626b377229c10585ec392f89,626b4db21560075100387b37,,,,,,,,,,,,,,,,,,,,,,,l,1,1.2129,"[""0.106"",""0.259"",""0.534"",""0.155""]","[1,1,1,0]",0,5,5,5,1,1,1,,,0,FALSE,,,,,,,,,,,,,,,,,,,,,,,,,,,,,,
,607728dc0b4f8590b94ae57c,001,2022-04-28_22h30.58.120,classification_task,2021.2.3,Win32,61.26324818,607728dc0b4f8590b94ae57c,626b377229c10585ec392f89,626b4db21560075100387b37,,,,,,,,,,,,,,,,,,,,,,,a,1,1.0665,"[""0.309"",""0.398"",""0.869"",""0.926""]","[1,0,1,1]",0,6,6,6,1,0,0,,,0,FALSE,,,,,,,,,,,,,,,,,,,,,,,,,,,,,,
,607728dc0b4f8590b94ae57c,001,2022-04-28_22h30.58.120,classification_task,2021.2.3,Win32,61.26324818,607728dc0b4f8590b94ae57c,626b377229c10585ec392f89,626b4db21560075100387b37,,,,,,,,,,,,,,,,,,,,,,,a,1,1.2037,"[""0.201"",""0.810"",""0.693"",""0.971""]","[1,0,1,1]",0,7,7,7,1,0,1,,,0,FALSE,,,,,,,,,,,,,,,,,,,,,,,,,,,,,,
,607728dc0b4f8590b94ae57c,001,2022-04-28_22h30.58.120,classification_task,2021.2.3,Win32,61.26324818,607728dc0b4f8590b94ae57c,626b377229c10585ec392f89,626b4db21560075100387b37,,,,,,,,,,,,,,,,,,,,,,,a,1,0.8878,"[""0.155"",""0.443"",""0.869"",""0.926""]","[0,1,1,1]",0,8,8,8,1,0,0,,,0,FALSE,,,,,,,,,,,,,,,,,,,,,,,,,,,,,,
,607728dc0b4f8590b94ae57c,001,2022-04-28_22h30.58.120,classification_task,2021.2.3,Win32,61.26324818,607728dc0b4f8590b94ae57c,626b377229c10585ec392f89,626b4db21560075100387b37,,,,,,,,,,,,,,,,,,,,,,,a,0,1.2837,"[""0.155"",""0.259"",""0.534"",""0.776""]","[0,1,1,1]",0,9,9,9,1,1,1,,,0,FALSE,,,,,,,,,,,,,,,,,,,,,,,,,,,,,,
,607728dc0b4f8590b94ae57c,001,2022-04-28_22h30.58.120,classification_task,2021.2.3,Win32,61.26324818,607728dc0b4f8590b94ae57c,626b377229c10585ec392f89,626b4db21560075100387b37,,,,,,,,,,,,,,,,,,,,,,,l,1,1.1502,"[""0.106"",""0.259"",""0.150"",""0.776""]","[1,1,0,1]",0,10,10,10,1,1,1,,,0,FALSE,,,,,,,,,,,,,,,,,,,,,,,,,,,,,,
,607728dc0b4f8590b94ae57c,001,2022-04-28_22h30.58.120,classification_task,2021.2.3,Win32,61.26324818,607728dc0b4f8590b94ae57c,626b377229c10585ec392f89,626b4db21560075100387b37,,,,,,,,,,,,,,,,,,,,,,,a,0,1.7499,"[""0.066"",""0.356"",""0.150"",""0.734""]","[1,1,0,1]",0,11,11,11,1,1,0,,,0,FALSE,,,,,,,,,,,,,,,,,,,,,,,,,,,,,,
,607728dc0b4f8590b94ae57c,001,2022-04-28_22h30.58.120,classification_task,2021.2.3,Win32,61.26324818,607728dc0b4f8590b94ae57c,626b377229c10585ec392f89,626b4db21560075100387b37,,,,,,,,,,,,,,,,,,,,,,,a,0,1.0492,"[""0.655"",""0.356"",""0.604"",""0.734""]","[0,1,1,1]",0,12,12,12,1,1,0,,,0,FALSE,,,,,,,,,,,,,,,,,,,,,,,,,,,,,,
,607728dc0b4f8590b94ae57c,001,2022-04-28_22h30.58.120,classification_task,2021.2.3,Win32,61.26324818,607728dc0b4f8590b94ae57c,626b377229c10585ec392f89,626b4db21560075100387b37,,,,,,,,,,,,,,,,,,,,,,,a,1,1.3541,"[""0.309"",""0.443"",""0.869"",""0.655""]","[1,1,1,0]",0,13,13,13,1,0,0,,,0,FALSE,,,,,,,,,,,,,,,,,,,,,,,,,,,,,,
,607728dc0b4f8590b94ae57c,001,2022-04-28_22h30.58.120,classification_task,2021.2.3,Win32,61.26324818,607728dc0b4f8590b94ae57c,626b377229c10585ec392f89,626b4db21560075100387b37,,,,,,,,,,,,,,,,,,,,,,,a,1,1.2159,"[""0.201"",""0.494"",""0.693"",""0.815""]","[1,1,1,0]",0,14,14,14,1,0,1,,,0,FALSE,,,,,,,,,,,,,,,,,,,,,,,,,,,,,,
,607728dc0b4f8590b94ae57c,001,2022-04-28_22h30.58.120,classification_task,2021.2.3,Win32,61.26324818,607728dc0b4f8590b94ae57c,626b377229c10585ec392f89,626b4db21560075100387b37,,,,,,,,,,,,,,,,,,,,,,,a,1,0.8666,"[""0.810"",""0.494"",""0.693"",""0.971""]","[0,1,1,1]",0,15,15,15,1,0,1,,,0,FALSE,,,,,,,,,,,,,,,,,,,,,,,,,,,,,,
,607728dc0b4f8590b94ae57c,001,2022-04-28_22h30.58.120,classification_task,2021.2.3,Win32,61.26324818,607728dc0b4f8590b94ae57c,626b377229c10585ec392f89,626b4db21560075100387b37,,,,,,,,,,,,,,,,,,,,,,,a,0,0.976,"[""0.066"",""0.155"",""0.604"",""0.734""]","[1,0,1,1]",0,16,16,16,1,1,0,,,0,FALSE,,,,,,,,,,,,,,,,,,,,,,,,,,,,,,
,607728dc0b4f8590b94ae57c,001,2022-04-28_22h30.58.120,classification_task,2021.2.3,Win32,61.26324818,607728dc0b4f8590b94ae57c,626b377229c10585ec392f89,626b4db21560075100387b37,,,,,,,,,,,,,,,,,,,,,,,l,1,1.1084,"[""0.106"",""0.259"",""0.401"",""0.776""]","[1,1,0,1]",0,17,17,17,1,1,1,,,0,FALSE,,,,,,,,,,,,,,,,,,,,,,,,,,,,,,
,607728dc0b4f8590b94ae57c,001,2022-04-28_22h30.58.120,classification_task,2021.2.3,Win32,61.26324818,607728dc0b4f8590b94ae57c,626b377229c10585ec392f89,626b4db21560075100387b37,,,,,,,,,,,,,,,,,,,,,,,a,1,0.9901,"[""0.201"",""0.494"",""0.693"",""0.155""]","[1,1,1,0]",0,18,18,18,1,0,1,,,0,FALSE,,,,,,,,,,,,,,,,,,,,,,,,,,,,,,
,607728dc0b4f8590b94ae57c,001,2022-04-28_22h30.58.120,classification_task,2021.2.3,Win32,61.26324818,607728dc0b4f8590b94ae57c,626b377229c10585ec392f89,626b4db21560075100387b37,,,,,,,,,,,,,,,,,,,,,,,a,1,1.2332,"[""0.309"",""0.155"",""0.869"",""0.926""]","[1,0,1,1]",0,19,19,19,1,0,0,,,0,FALSE,,,,,,,,,,,,,,,,,,,,,,,,,,,,,,
,607728dc0b4f8590b94ae57c,001,2022-04-28_22h30.58.120,classification_task,2021.2.3,Win32,61.26324818,607728dc0b4f8590b94ae57c,626b377229c10585ec392f89,626b4db21560075100387b37,,,,,,,,,,,,,,,,,,,,,,,a,1,0.9568,"[""0.201"",""0.494"",""0.655"",""0.971""]","[1,1,0,1]",0,20,20,20,1,0,1,,,0,FALSE,,,,,,,,,,,,,,,,,,,,,,,,,,,,,,
,607728dc0b4f8590b94ae57c,001,2022-04-28_22h30.58.120,classification_task,2021.2.3,Win32,61.26324818,607728dc0b4f8590b94ae57c,626b377229c10585ec392f89,626b4db21560075100387b37,,,,,,,,,,,,,,,,,,,,,,,l,0,1.433,"[""0.309"",""0.443"",""0.869"",""0.403""]","[1,1,1,0]",0,21,21,21,1,0,0,,,0,FALSE,,,,,,,,,,,,,,,,,,,,,,,,,,,,,,
,607728dc0b4f8590b94ae57c,001,2022-04-28_22h30.58.120,classification_task,2021.2.3,Win32,61.26324818,607728dc0b4f8590b94ae57c,626b377229c10585ec392f89,626b4db21560075100387b37,,,,,,,,,,,,,,,,,,,,,,,a,0,1.5196,"[""0.150"",""0.356"",""0.604"",""0.734""]","[0,1,1,1]",0,22,22,22,1,1,0,,,0,FALSE,,,,,,,,,,,,,,,,,,,,,,,,,,,,,,
,607728dc0b4f8590b94ae57c,001,2022-04-28_22h30.58.120,classification_task,2021.2.3,Win32,61.26324818,607728dc0b4f8590b94ae57c,626b377229c10585ec392f89,626b4db21560075100387b37,,,,,,,,,,,,,,,,,,,,,,,a,1,1.5823,"[""0.403"",""0.494"",""0.693"",""0.971""]","[0,1,1,1]",0,23,23,23,1,0,1,,,0,FALSE,,,,,,,,,,,,,,,,,,,,,,,,,,,,,,
,607728dc0b4f8590b94ae57c,001,2022-04-28_22h30.58.120,classification_task,2021.2.3,Win32,61.26324818,607728dc0b4f8590b94ae57c,626b377229c10585ec392f89,626b4db21560075100387b37,,,,,,,,,,,,,,,,,,,,,,,l,1,0.9342,"[""0.106"",""0.259"",""0.534"",""0.815""]","[1,1,1,0]",0,24,24,24,1,1,1,,,0,FALSE,,,,,,,,,,,,,,,,,,,,,,,,,,,,,,
,607728dc0b4f8590b94ae57c,001,2022-04-28_22h30.58.120,classification_task,2021.2.3,Win32,61.26324818,607728dc0b4f8590b94ae57c,626b377229c10585ec392f89,626b4db21560075100387b37,,,,,,,,,,,,,,,,,,,,,,,a,1,1.2155,"[""0.309"",""0.443"",""0.155"",""0.926""]","[1,1,0,1]",0,25,25,25,1,0,0,,,0,FALSE,,,,,,,,,,,,,,,,,,,,,,,,,,,,,,
,607728dc0b4f8590b94ae57c,001,2022-04-28_22h30.58.120,classification_task,2021.2.3,Win32,61.26324818,607728dc0b4f8590b94ae57c,626b377229c10585ec392f89,626b4db21560075100387b37,,,,,,,,,,,,,,,,,,,,,,,l,1,1.3208,"[""0.066"",""0.356"",""0.604"",""0.150""]","[1,1,1,0]",0,26,26,26,1,1,0,,,0,FALSE,,,,,,,,,,,,,,,,,,,,,,,,,,,,,,
,607728dc0b4f8590b94ae57c,001,2022-04-28_22h30.58.120,classification_task,2021.2.3,Win32,61.26324818,607728dc0b4f8590b94ae57c,626b377229c10585ec392f89,626b4db21560075100387b37,,,,,,,,,,,,,,,,,,,,,,,l,1,0.9324,"[""0.106"",""0.396"",""0.534"",""0.776""]","[1,0,1,1]",0,27,27,27,1,1,1,,,0,FALSE,,,,,,,,,,,,,,,,,,,,,,,,,,,,,,
,607728dc0b4f8590b94ae57c,001,2022-04-28_22h30.58.120,classification_task,2021.2.3,Win32,61.26324818,607728dc0b4f8590b94ae57c,626b377229c10585ec392f89,626b4db21560075100387b37,,,,,,,,,,,,,,,,,,,,,,,a,1,0.8734,"[""0.403"",""0.443"",""0.869"",""0.926""]","[0,1,1,1]",0,28,28,28,1,0,0,,,0,FALSE,,,,,,,,,,,,,,,,,,,,,,,,,,,,,,
,607728dc0b4f8590b94ae57c,001,2022-04-28_22h30.58.120,classification_task,2021.2.3,Win32,61.26324818,607728dc0b4f8590b94ae57c,626b377229c10585ec392f89,626b4db21560075100387b37,,,,,,,,,,,,,,,,,,,,,,,a,0,0.9081,"[""0.066"",""0.356"",""0.815"",""0.734""]","[1,1,0,1]",0,29,29,29,1,1,0,,,0,FALSE,,,,,,,,,,,,,,,,,,,,,,,,,,,,,,
,607728dc0b4f8590b94ae57c,001,2022-04-28_22h30.58.120,classification_task,2021.2.3,Win32,61.26324818,607728dc0b4f8590b94ae57c,626b377229c10585ec392f89,626b4db21560075100387b37,,,,,,,,,,,,,,,,,,,,,,,a,1,1.0365,"[""0.201"",""0.167"",""0.693"",""0.971""]","[1,0,1,1]",0,30,30,30,1,0,1,,,0,FALSE,,,,,,,,,,,,,,,,,,,,,,,,,,,,,,
,607728dc0b4f8590b94ae57c,001,2022-04-28_22h30.58.120,classification_task,2021.2.3,Win32,61.26324818,607728dc0b4f8590b94ae57c,626b377229c10585ec392f89,626b4db21560075100387b37,,,,,,,,,,,,,,,,,,,,,,,l,1,1.6392,"[""0.143"",""0.259"",""0.534"",""0.776""]","[0,1,1,1]",0,31,31,31,1,1,1,,,0,FALSE,,,,,,,,,,,,,,,,,,,,,,,,,,,,,,
,607728dc0b4f8590b94ae57c,001,2022-04-28_22h30.58.120,classification_task,2021.2.3,Win32,61.26324818,607728dc0b4f8590b94ae57c,626b377229c10585ec392f89,626b4db21560075100387b37,,,,,,,,,,,,,,,,,,,,,,,a,0,0.7602,"[""0.066"",""0.356"",""0.815"",""0.734""]","[1,1,0,1]",0,32,32,32,1,1,0,,,0,FALSE,,,,,,,,,,,,,,,,,,,,,,,,,,,,,,
,607728dc0b4f8590b94ae57c,001,2022-04-28_22h30.58.120,classification_task,2021.2.3,Win32,61.26324818,607728dc0b4f8590b94ae57c,626b377229c10585ec392f89,626b4db21560075100387b37,,,,,,,,,,,,,,,,,,,,,,,a,1,1.901,"[""0.201"",""0.494"",""0.693"",""0.401""]","[1,1,1,0]",0,33,33,33,1,0,1,,,0,FALSE,,,,,,,,,,,,,,,,,,,,,,,,,,,,,,
,607728dc0b4f8590b94ae57c,001,2022-04-28_22h30.58.120,classification_task,2021.2.3,Win32,61.26324818,607728dc0b4f8590b94ae57c,626b377229c10585ec392f89,626b4db21560075100387b37,,,,,,,,,,,,,,,,,,,,,,,a,0,0.8099,"[""0.066"",""0.356"",""0.604"",""0.150""]","[1,1,1,0]",0,34,34,34,1,1,0,,,0,FALSE,,,,,,,,,,,,,,,,,,,,,,,,,,,,,,
,607728dc0b4f8590b94ae57c,001,2022-04-28_22h30.58.120,classification_task,2021.2.3,Win32,61.26324818,607728dc0b4f8590b94ae57c,626b377229c10585ec392f89,626b4db21560075100387b37,,,,,,,,,,,,,,,,,,,,,,,a,1,0.9168,"[""0.309"",""0.443"",""0.869"",""0.143""]","[1,1,1,0]",0,35,35,35,1,0,0,,,0,FALSE,,,,,,,,,,,,,,,,,,,,,,,,,,,,,,
,607728dc0b4f8590b94ae57c,001,2022-04-28_22h30.58.120,classification_task,2021.2.3,Win32,61.26324818,607728dc0b4f8590b94ae57c,626b377229c10585ec392f89,626b4db21560075100387b37,,,,,,,,,,,,,,,,,,,,,,,a,0,0.7587,"[""0.066"",""0.398"",""0.604"",""0.734""]","[1,0,1,1]",0,36,36,36,1,1,0,,,0,FALSE,,,,,,,,,,,,,,,,,,,,,,,,,,,,,,
,607728dc0b4f8590b94ae57c,001,2022-04-28_22h30.58.120,classification_task,2021.2.3,Win32,61.26324818,607728dc0b4f8590b94ae57c,626b377229c10585ec392f89,626b4db21560075100387b37,,,,,,,,,,,,,,,,,,,,,,,a,1,1.1557,"[""0.309"",""0.443"",""0.401"",""0.926""]","[1,1,0,1]",0,37,37,37,1,0,0,,,0,FALSE,,,,,,,,,,,,,,,,,,,,,,,,,,,,,,
,607728dc0b4f8590b94ae57c,001,2022-04-28_22h30.58.120,classification_task,2021.2.3,Win32,61.26324818,607728dc0b4f8590b94ae57c,626b377229c10585ec392f89,626b4db21560075100387b37,,,,,,,,,,,,,,,,,,,,,,,a,1,1.1205,"[""0.201"",""0.494"",""0.655"",""0.971""]","[1,1,0,1]",0,38,38,38,1,0,1,,,0,FALSE,,,,,,,,,,,,,,,,,,,,,,,,,,,,,,
,607728dc0b4f8590b94ae57c,001,2022-04-28_22h30.58.120,classification_task,2021.2.3,Win32,61.26324818,607728dc0b4f8590b94ae57c,626b377229c10585ec392f89,626b4db21560075100387b37,,,,,,,,,,,,,,,,,,,,,,,l,1,0.7595,"[""0.106"",""0.259"",""0.534"",""0.403""]","[1,1,1,0]",0,39,39,39,1,1,1,,,0,FALSE,,,,,,,,,,,,,,,,,,,,,,,,,,,,,,
,607728dc0b4f8590b94ae57c,001,2022-04-28_22h30.58.120,classification_task,2021.2.3,Win32,61.26324818,607728dc0b4f8590b94ae57c,626b377229c10585ec392f89,626b4db21560075100387b37,,,,,,,,,,,,,,,,,,,,,,,a,1,1.2526,"[""0.150"",""0.494"",""0.693"",""0.971""]","[0,1,1,1]",0,40,40,40,1,0,1,,,0,FALSE,,,,,,,,,,,,,,,,,,,,,,,,,,,,,,
,607728dc0b4f8590b94ae57c,001,2022-04-28_22h30.58.120,classification_task,2021.2.3,Win32,61.26324818,607728dc0b4f8590b94ae57c,626b377229c10585ec392f89,626b4db21560075100387b37,,,,,,,,,,,,,,,,,,,,,,,a,1,0.8492,"[""0.398"",""0.443"",""0.869"",""0.926""]","[0,1,1,1]",0,41,41,41,1,0,0,,,0,FALSE,,,,,,,,,,,,,,,,,,,,,,,,,,,,,,
,607728dc0b4f8590b94ae57c,001,2022-04-28_22h30.58.120,classification_task,2021.2.3,Win32,61.26324818,607728dc0b4f8590b94ae57c,626b377229c10585ec392f89,626b4db21560075100387b37,,,,,,,,,,,,,,,,,,,,,,,a,1,1.1656,"[""0.309"",""0.568"",""0.869"",""0.926""]","[1,0,1,1]",0,42,42,42,1,0,0,,,0,FALSE,,,,,,,,,,,,,,,,,,,,,,,,,,,,,,
,607728dc0b4f8590b94ae57c,001,2022-04-28_22h30.58.120,classification_task,2021.2.3,Win32,61.26324818,607728dc0b4f8590b94ae57c,626b377229c10585ec392f89,626b4db21560075100387b37,,,,,,,,,,,,,,,,,,,,,,,l,1,0.9536,"[""0.106"",""0.403"",""0.534"",""0.776""]","[1,0,1,1]",0,43,43,43,1,1,1,,,0,FALSE,,,,,,,,,,,,,,,,,,,,,,,,,,,,,,
,607728dc0b4f8590b94ae57c,001,2022-04-28_22h30.58.120,classification_task,2021.2.3,Win32,61.26324818,607728dc0b4f8590b94ae57c,626b377229c10585ec392f89,626b4db21560075100387b37,,,,,,,,,,,,,,,,,,,,,,,a,0,1.8161,"[""0.031"",""0.259"",""0.534"",""0.776""]","[0,1,1,1]",0,44,44,44,1,1,1,,,0,FALSE,,,,,,,,,,,,,,,,,,,,,,,,,,,,,,
,607728dc0b4f8590b94ae57c,001,2022-04-28_22h30.58.120,classification_task,2021.2.3,Win32,61.26324818,607728dc0b4f8590b94ae57c,626b377229c10585ec392f89,626b4db21560075100387b37,,,,,,,,,,,,,,,,,,,,,,,l,1,0.9288,"[""0.106"",""0.259"",""0.398"",""0.776""]","[1,1,0,1]",0,45,45,45,1,1,1,,,0,FALSE,,,,,,,,,,,,,,,,,,,,,,,,,,,,,,
,607728dc0b4f8590b94ae57c,001,2022-04-28_22h30.58.120,classification_task,2021.2.3,Win32,61.26324818,607728dc0b4f8590b94ae57c,626b377229c10585ec392f89,626b4db21560075100387b37,,,,,,,,,,,,,,,,,,,,,,,a,0,1.3505,"[""0.167"",""0.356"",""0.604"",""0.734""]","[0,1,1,1]",0,46,46,46,1,1,0,,,0,FALSE,,,,,,,,,,,,,,,,,,,,,,,,,,,,,,
,607728dc0b4f8590b94ae57c,001,2022-04-28_22h30.58.120,classification_task,2021.2.3,Win32,61.26324818,607728dc0b4f8590b94ae57c,626b377229c10585ec392f89,626b4db21560075100387b37,,,,,,,,,,,,,,,,,,,,,,,a,1,0.8824,"[""0.201"",""0.810"",""0.693"",""0.971""]","[1,0,1,1]",0,47,47,47,1,0,1,,,0,FALSE,,,,,,,,,,,,,,,,,,,,,,,,,,,,,,
,607728dc0b4f8590b94ae57c,001,2022-04-28_22h30.58.120,classification_task,2021.2.3,Win32,61.26324818,607728dc0b4f8590b94ae57c,626b377229c10585ec392f89,626b4db21560075100387b37,,,,,,,,,,,,,,,,,,,,,,,a,0,0.7445,"[""0.066"",""0.356"",""0.604"",""0.815""]","[1,1,1,0]",0,48,48,48,1,1,0,,,0,FALSE,,,,,,,,,,,,,,,,,,,,,,,,,,,,,,
,607728dc0b4f8590b94ae57c,001,2022-04-28_22h30.58.120,classification_task,2021.2.3,Win32,61.26324818,607728dc0b4f8590b94ae57c,626b377229c10585ec392f89,626b4db21560075100387b37,,,,,,,,,,,,,,,,,,,,,,,a,1,0.9281,"[""0.201"",""0.150"",""0.693"",""0.971""]","[1,0,1,1]",0,49,49,49,1,0,1,,,0,FALSE,,,,,,,,,,,,,,,,,,,,,,,,,,,,,,
,607728dc0b4f8590b94ae57c,001,2022-04-28_22h30.58.120,classification_task,2021.2.3,Win32,61.26324818,607728dc0b4f8590b94ae57c,626b377229c10585ec392f89,626b4db21560075100387b37,,,,,,,,,,,,,,,,,,,,,,,a,0,0.7011,"[""0.167"",""0.259"",""0.534"",""0.776""]","[0,1,1,1]",0,50,50,50,1,1,1,,,0,FALSE,,,,,,,,,,,,,,,,,,,,,,,,,,,,,,
,607728dc0b4f8590b94ae57c,001,2022-04-28_22h30.58.120,classification_task,2021.2.3,Win32,61.26324818,607728dc0b4f8590b94ae57c,626b377229c10585ec392f89,626b4db21560075100387b37,,,,,,,,,,,,,,,,,,,,,,,a,1,0.8901,"[""0.201"",""0.494"",""0.693"",""0.655""]","[1,1,1,0]",0,51,51,51,1,0,1,,,0,FALSE,,,,,,,,,,,,,,,,,,,,,,,,,,,,,,
,607728dc0b4f8590b94ae57c,001,2022-04-28_22h30.58.120,classification_task,2021.2.3,Win32,61.26324818,607728dc0b4f8590b94ae57c,626b377229c10585ec392f89,626b4db21560075100387b37,,,,,,,,,,,,,,,,,,,,,,,a,1,0.6626,"[""0.396"",""0.443"",""0.869"",""0.926""]","[0,1,1,1]",0,52,52,52,1,0,0,,,0,FALSE,,,,,,,,,,,,,,,,,,,,,,,,,,,,,,
,607728dc0b4f8590b94ae57c,001,2022-04-28_22h30.58.120,classification_task,2021.2.3,Win32,61.26324818,607728dc0b4f8590b94ae57c,626b377229c10585ec392f89,626b4db21560075100387b37,,,,,,,,,,,,,,,,,,,,,,,l,1,0.9606,"[""0.106"",""0.259"",""0.534"",""0.155""]","[1,1,1,0]",0,53,53,53,1,1,1,,,0,FALSE,,,,,,,,,,,,,,,,,,,,,,,,,,,,,,
,607728dc0b4f8590b94ae57c,001,2022-04-28_22h30.58.120,classification_task,2021.2.3,Win32,61.26324818,607728dc0b4f8590b94ae57c,626b377229c10585ec392f89,626b4db21560075100387b37,,,,,,,,,,,,,,,,,,,,,,,a,0,0.6046,"[""0.655"",""0.356"",""0.604"",""0.734""]","[0,1,1,1]",0,54,54,54,1,1,0,,,0,FALSE,,,,,,,,,,,,,,,,,,,,,,,,,,,,,,
,607728dc0b4f8590b94ae57c,001,2022-04-28_22h30.58.120,classification_task,2021.2.3,Win32,61.26324818,607728dc0b4f8590b94ae57c,626b377229c10585ec392f89,626b4db21560075100387b37,,,,,,,,,,,,,,,,,,,,,,,a,1,0.8325,"[""0.201"",""0.494"",""0.031"",""0.971""]","[1,1,0,1]",0,55,55,55,1,0,1,,,0,FALSE,,,,,,,,,,,,,,,,,,,,,,,,,,,,,,
,607728dc0b4f8590b94ae57c,001,2022-04-28_22h30.58.120,classification_task,2021.2.3,Win32,61.26324818,607728dc0b4f8590b94ae57c,626b377229c10585ec392f89,626b4db21560075100387b37,,,,,,,,,,,,,,,,,,,,,,,a,1,0.7527,"[""0.309"",""0.401"",""0.869"",""0.926""]","[1,0,1,1]",0,56,56,56,1,0,0,,,0,FALSE,,,,,,,,,,,,,,,,,,,,,,,,,,,,,,
,607728dc0b4f8590b94ae57c,001,2022-04-28_22h30.58.120,classification_task,2021.2.3,Win32,61.26324818,607728dc0b4f8590b94ae57c,626b377229c10585ec392f89,626b4db21560075100387b37,,,,,,,,,,,,,,,,,,,,,,,a,1,0.8534,"[""0.403"",""0.494"",""0.693"",""0.971""]","[0,1,1,1]",0,57,57,57,1,0,1,,,0,FALSE,,,,,,,,,,,,,,,,,,,,,,,,,,,,,,
,607728dc0b4f8590b94ae57c,001,2022-04-28_22h30.58.120,classification_task,2021.2.3,Win32,61.26324818,607728dc0b4f8590b94ae57c,626b377229c10585ec392f89,626b4db21560075100387b37,,,,,,,,,,,,,,,,,,,,,,,a,1,1.4104,"[""0.309"",""0.443"",""0.869"",""0.155""]","[1,1,1,0]",0,58,58,58,1,0,0,,,0,FALSE,,,,,,,,,,,,,,,,,,,,,,,,,,,,,,
,607728dc0b4f8590b94ae57c,001,2022-04-28_22h30.58.120,classification_task,2021.2.3,Win32,61.26324818,607728dc0b4f8590b94ae57c,626b377229c10585ec392f89,626b4db21560075100387b37,,,,,,,,,,,,,,,,,,,,,,,l,1,0.6687,"[""0.106"",""0.259"",""0.143"",""0.776""]","[1,1,0,1]",0,59,59,59,1,1,1,,,0,FALSE,,,,,,,,,,,,,,,,,,,,,,,,,,,,,,
,607728dc0b4f8590b94ae57c,001,2022-04-28_22h30.58.120,classification_task,2021.2.3,Win32,61.26324818,607728dc0b4f8590b94ae57c,626b377229c10585ec392f89,626b4db21560075100387b37,,,,,,,,,,,,,,,,,,,,,,,a,0,0.7722,"[""0.066"",""0.356"",""0.655"",""0.734""]","[1,1,0,1]",0,60,60,60,1,1,0,,,0,FALSE,,,,,,,,,,,,,,,,,,,,,,,,,,,,,,
,607728dc0b4f8590b94ae57c,001,2022-04-28_22h30.58.120,classification_task,2021.2.3,Win32,61.26324818,607728dc0b4f8590b94ae57c,626b377229c10585ec392f89,626b4db21560075100387b37,,,,,,,,,,,,,,,,,,,,,,,l,1,0.8575,"[""0.066"",""0.396"",""0.604"",""0.734""]","[1,0,1,1]",0,61,61,61,1,1,0,,,0,FALSE,,,,,,,,,,,,,,,,,,,,,,,,,,,,,,
,607728dc0b4f8590b94ae57c,001,2022-04-28_22h30.58.120,classification_task,2021.2.3,Win32,61.26324818,607728dc0b4f8590b94ae57c,626b377229c10585ec392f89,626b4db21560075100387b37,,,,,,,,,,,,,,,,,,,,,,,l,1,0.8324,"[""0.106"",""0.655"",""0.534"",""0.776""]","[1,0,1,1]",0,62,62,62,1,1,1,,,0,FALSE,,,,,,,,,,,,,,,,,,,,,,,,,,,,,,
,607728dc0b4f8590b94ae57c,001,2022-04-28_22h30.58.120,classification_task,2021.2.3,Win32,61.26324818,607728dc0b4f8590b94ae57c,626b377229c10585ec392f89,626b4db21560075100387b37,,,,,,,,,,,,,,,,,,,,,,,a,1,1.1272,"[""0.309"",""0.443"",""0.031"",""0.926""]","[1,1,0,1]",0,63,63,63,1,0,0,,,0,FALSE,,,,,,,,,,,,,,,,,,,,,,,,,,,,,,
,607728dc0b4f8590b94ae57c,001,2022-04-28_22h30.58.120,classification_task,2021.2.3,Win32,61.26324818,607728dc0b4f8590b94ae57c,626b377229c10585ec392f89,626b4db21560075100387b37,,,,,,,,,,,,,,,,,,,,,,,,,,,,,,,,,,,,,,,0, ,,0,1.617687558,152.0196,0,2,2,2,1,2,3,,,,,,,,,,,,,,,,,
,607728dc0b4f8590b94ae57c,001,2022-04-28_22h30.58.120,classification_task,2021.2.3,Win32,61.26324818,607728dc0b4f8590b94ae57c,626b377229c10585ec392f89,626b4db21560075100387b37,,,,,,,,,,,,,,,,,,,,,,,,,,,,,,,,,,,,,,,1,  ,,0,1.814169656,153.3306,0,2,2,2,1,2,3,,,,,,,,,,,,,,,,,
,607728dc0b4f8590b94ae57c,001,2022-04-28_22h30.58.120,classification_task,2021.2.3,Win32,61.26324818,607728dc0b4f8590b94ae57c,626b377229c10585ec392f89,626b4db21560075100387b37,,,,,,,,,,,,,,,,,,,,,,,,,,,,,,,,,,,,,,,2,  ,,0,4.677206145,154.4367,0,2,2,2,1,2,3,,,,,,,,,,,,,,,,,
,607728dc0b4f8590b94ae57c,001,2022-04-28_22h30.58.120,classification_task,2021.2.3,Win32,61.26324818,607728dc0b4f8590b94ae57c,626b377229c10585ec392f89,626b4db21560075100387b37,,,,,,,,,,,,,,,,,,,,,,,,,,,,,,,,,,,,,,,,,,,,,0,2,2,2,1,,3,,,,,,,,,,,,,,,,,
,607728dc0b4f8590b94ae57c,001,2022-04-28_22h30.58.120,classification_task,2021.2.3,Win32,61.26324818,607728dc0b4f8590b94ae57c,626b377229c10585ec392f89,626b4db21560075100387b37,,,,,,,,,,,,,,,,,,,,,,,,,,,,,,,,,,,,,,,,,,,,,,,,,,,,,I believe the aid is a competent performer,,0.7,0,4,711.3459,0,0,0,0,1,0,,,,
,607728dc0b4f8590b94ae57c,001,2022-04-28_22h30.58.120,classification_task,2021.2.3,Win32,61.26324818,607728dc0b4f8590b94ae57c,626b377229c10585ec392f89,626b4db21560075100387b37,,,,,,,,,,,,,,,,,,,,,,,,,,,,,,,,,,,,,,,,,,,,,,,,,,,,,I trust the aid,,0.7,0,4,713.0086,0,0,0,0,1,0,,,,
,607728dc0b4f8590b94ae57c,001,2022-04-28_22h30.58.120,classification_task,2021.2.3,Win32,61.26324818,607728dc0b4f8590b94ae57c,626b377229c10585ec392f89,626b4db21560075100387b37,,,,,,,,,,,,,,,,,,,,,,,,,,,,,,,,,,,,,,,,,,,,,,,,,,,,,I have confidence in the advice given by the aid,,0.7,0,4,714.716,0,0,0,0,1,0,,,,
,607728dc0b4f8590b94ae57c,001,2022-04-28_22h30.58.120,classification_task,2021.2.3,Win32,61.26324818,607728dc0b4f8590b94ae57c,626b377229c10585ec392f89,626b4db21560075100387b37,,,,,,,,,,,,,,,,,,,,,,,,,,,,,,,,,,,,,,,,,,,,,,,,,,,,,I can depend on the aid,,0.7,0,5,716.1961,0,0,0,0,1,0,,,,
,607728dc0b4f8590b94ae57c,001,2022-04-28_22h30.58.120,classification_task,2021.2.3,Win32,61.26324818,607728dc0b4f8590b94ae57c,626b377229c10585ec392f89,626b4db21560075100387b37,,,,,,,,,,,,,,,,,,,,,,,,,,,,,,,,,,,,,,,,,,,,,,,,,,,,,I can rely on the aid to behave in consistent ways,,0.7,0,5,717.9835,0,0,0,0,1,0,,,,
,607728dc0b4f8590b94ae57c,001,2022-04-28_22h30.58.120,classification_task,2021.2.3,Win32,61.26324818,607728dc0b4f8590b94ae57c,626b377229c10585ec392f89,626b4db21560075100387b37,,,,,,,,,,,,,,,,,,,,,,,,,,,,,,,,,,,,,,,,,,,,,,,,,,,,,I can rely on the aid to do its best every time I take its advice,,0.7,0,5,719.7647,0,0,0,0,1,0,,,,
,607728dc0b4f8590b94ae57c,001,2022-04-28_22h30.58.120,classification_task,2021.2.3,Win32,61.26324818,607728dc0b4f8590b94ae57c,626b377229c10585ec392f89,626b4db21560075100387b37,,,,,,,,,,,,,,,,,,,,,,,,,,,,,,,,,,,,,,,,,,,,,,,,,,,,,"On trials you completed with assistance from the aid, how frequently did you think the aid was correct?",,0.7,0,90%,,0,0,0,0,1,0,,,,
,607728dc0b4f8590b94ae57c,001,2022-04-28_22h30.58.120,classification_task,2021.2.3,Win32,61.26324818,607728dc0b4f8590b94ae57c,626b377229c10585ec392f89,626b4db21560075100387b37,,,,,,,,,,,,,,,,,,,,,,,,,,,,,,,,,,,,,,,,,,,,,,,,,,,,,"On trials you completed without the aid, how frequently did you think you were correct?",,0.7,0,60%,,0,0,0,0,1,0,,,,
,607728dc0b4f8590b94ae57c,001,2022-04-28_22h30.58.120,classification_task,2021.2.3,Win32,61.26324818,607728dc0b4f8590b94ae57c,626b377229c10585ec392f89,626b4db21560075100387b37,,,,,,,,,,,,,,,,,,,,,,,,,,,,,,,,,,,,,,,,,,,,,,,,,,,,,,,,,,,0,0,0,0,1,,,,,
,607728dc0b4f8590b94ae57c,001,2022-04-28_22h30.58.120,classification_task,2021.2.3,Win32,61.26324818,607728dc0b4f8590b94ae57c,626b377229c10585ec392f89,626b4db21560075100387b37,,,,,,,,,,,,,,,,,,,,,,,,,,,,,,,,,,,,,,,,,,,,,,,,,,,,,,,,,,,,,,,,,space,6.4277,744.432,
,607728dc0b4f8590b94ae57c,001,2022-04-28_22h30.58.120,classification_task,2021.2.3,Win32,61.26324818,607728dc0b4f8590b94ae57c,626b377229c10585ec392f89,626b4db21560075100387b37,,,,,,,,,,,,,,,,,,,,,,,,,,,,,,,,,,,,,,,,,,,,,,,,,,,,,,,,,,,,,,,,,,,,"Mozilla/5.0 (Windows NT 10.0; Win64; x64) AppleWebKit/537.36 (KHTML, like Gecko) Chrome/100.0.4896.127 Safari/537.36"
