usingWebGL,participant,session,date,expName,psychopyVersion,OS,frameRate,PROLIFIC_PID,STUDY_ID,SESSION_ID,signatures_friend,signatures_foe,band_ranges_top,band_ranges_bottom,formitemText,formtype,formundefined,formitemWidth,formindex,formresponse,formrt,key_resp_2.keys,key_resp_2.rt,tute_resp.keys,tute_resp.rt,tutorial.thisRepN,tutorial.thisTrialN,tutorial.thisN,tutorial.thisIndex,tutorial.ran,key_resp_4.keys,key_resp_4.rt,key_resp.keys,key_resp.corr,key_resp.rt,lines_presented,is_signal_presented,trials.thisRepN,trials.thisTrialN,trials.thisN,trials.thisIndex,trials.ran,vessel,active_band,lines,is_signal,supported_pos,catch_trial,debrief_formindex,debrief_formitemText,debrief_formtype,debrief_formitemWidth,debrief_formresponse,debrief_formrt,phases.thisRepN,phases.thisTrialN,phases.thisN,phases.thisIndex,phases.ran,phases.order,phase,key_resp_3.keys,trustitemText,trusttype,trustitemWidth,trustindex,trustresponse,trustrt,support_status.thisRepN,support_status.thisTrialN,support_status.thisN,support_status.thisIndex,support_status.ran,support_status.order,key_resp_5.keys,key_resp_5.rt,globalClockTime,userAgent
TRUE,607b6943b02ad525b94b458b,001,2022-04-29_02h10.26.876,classification_task,2021.2.3,Win32,143.472023,607b6943b02ad525b94b458b,626b377229c10585ec392f89,626b394432a306a23d9b7ee8,,,,,,,,,,,,,,,,,,,,,,,,,,,,,,,,,,,,,,,,,,,,,,,,,,,,,,,,,,,,,,,,,,,,
,607b6943b02ad525b94b458b,001,2022-04-29_02h10.26.876,classification_task,2021.2.3,Win32,143.472023,607b6943b02ad525b94b458b,626b377229c10585ec392f89,626b394432a306a23d9b7ee8,"[[""0.202"",""0.533"",""0.745"",""0.875""],[""0.168"",""0.365"",""0.709"",""0.964""]]","[[""0.098"",""0.294"",""0.668"",""0.785""],[""0.134"",""0.255"",""0.444"",""0.826""]]","[1,10]","[100,1000]",Video game experience,,,0.7,0,,,,,,,,,,,,,,,,,,,,,,,,,,,,,,,,,,,,,,,,,,,,,,,,,,,,,,,,,,,
,607b6943b02ad525b94b458b,001,2022-04-29_02h10.26.876,classification_task,2021.2.3,Win32,143.472023,607b6943b02ad525b94b458b,626b377229c10585ec392f89,626b394432a306a23d9b7ee8,,,,,Approximately how many hours did you spend playing video games in the last week?,,,0.7,0,40,,,,,,,,,,,,,,,,,,,,,,,,,,,,,,,,,,,,,,,,,,,,,,,,,,,,,,,,,,
,607b6943b02ad525b94b458b,001,2022-04-29_02h10.26.876,classification_task,2021.2.3,Win32,143.472023,607b6943b02ad525b94b458b,626b377229c10585ec392f89,626b394432a306a23d9b7ee8,,,,,"Which game did you play the most this year? (Enter ""None"" if you didn't play any)",,,0.7,0,elden ring,,,,,,,,,,,,,,,,,,,,,,,,,,,,,,,,,,,,,,,,,,,,,,,,,,,,,,,,,,
,607b6943b02ad525b94b458b,001,2022-04-29_02h10.26.876,classification_task,2021.2.3,Win32,143.472023,607b6943b02ad525b94b458b,626b377229c10585ec392f89,626b394432a306a23d9b7ee8,,,,,Visual perception,,,0.7,0,,,,,,,,,,,,,,,,,,,,,,,,,,,,,,,,,,,,,,,,,,,,,,,,,,,,,,,,,,,
,607b6943b02ad525b94b458b,001,2022-04-29_02h10.26.876,classification_task,2021.2.3,Win32,143.472023,607b6943b02ad525b94b458b,626b377229c10585ec392f89,626b394432a306a23d9b7ee8,,,,,Do you have any form of color blindness?,,,0.7,0,No,12.5908,,,,,,,,,,,,,,,,,,,,,,,,,,,,,,,,,,,,,,,,,,,,,,,,,,,,,,,,,
,607b6943b02ad525b94b458b,001,2022-04-29_02h10.26.876,classification_task,2021.2.3,Win32,143.472023,607b6943b02ad525b94b458b,626b377229c10585ec392f89,626b394432a306a23d9b7ee8,,,,,Do you use software to change the colour temperature of your screen (e.g. f.lux)?,,,0.7,0,Yes,13.0518,,,,,,,,,,,,,,,,,,,,,,,,,,,,,,,,,,,,,,,,,,,,,,,,,,,,,,,,,
,607b6943b02ad525b94b458b,001,2022-04-29_02h10.26.876,classification_task,2021.2.3,Win32,143.472023,607b6943b02ad525b94b458b,626b377229c10585ec392f89,626b394432a306a23d9b7ee8,,,,,,,,,,,,space,17.8021,space,18.6312,0,0,0,0,1,,,,,,,,,,,,,,,,,,,,,,,,,,,,,,,,,,,,,,,,,,,,,,,,
,607b6943b02ad525b94b458b,001,2022-04-29_02h10.26.876,classification_task,2021.2.3,Win32,143.472023,607b6943b02ad525b94b458b,626b377229c10585ec392f89,626b394432a306a23d9b7ee8,,,,,,,,,,,,,,space,7.7817,1,0,1,0,1,,,,,,,,,,,,,,,,,,,,,,,,,,,,,,,,,,,,,,,,,,,,,,,,
,607b6943b02ad525b94b458b,001,2022-04-29_02h10.26.876,classification_task,2021.2.3,Win32,143.472023,607b6943b02ad525b94b458b,626b377229c10585ec392f89,626b394432a306a23d9b7ee8,,,,,,,,,,,,,,space,18.6976,2,0,2,0,1,,,,,,,,,,,,,,,,,,,,,,,,,,,,,,,,,,,,,,,,,,,,,,,,
,607b6943b02ad525b94b458b,001,2022-04-29_02h10.26.876,classification_task,2021.2.3,Win32,143.472023,607b6943b02ad525b94b458b,626b377229c10585ec392f89,626b394432a306a23d9b7ee8,,,,,,,,,,,,,,space,5.2656,3,0,3,0,1,,,,,,,,,,,,,,,,,,,,,,,,,,,,,,,,,,,,,,,,,,,,,,,,
,607b6943b02ad525b94b458b,001,2022-04-29_02h10.26.876,classification_task,2021.2.3,Win32,143.472023,607b6943b02ad525b94b458b,626b377229c10585ec392f89,626b394432a306a23d9b7ee8,,,,,,,,,,,,,,space,8.6432,4,0,4,0,1,,,,,,,,,,,,,,,,,,,,,,,,,,,,,,,,,,,,,,,,,,,,,,,,
,607b6943b02ad525b94b458b,001,2022-04-29_02h10.26.876,classification_task,2021.2.3,Win32,143.472023,607b6943b02ad525b94b458b,626b377229c10585ec392f89,626b394432a306a23d9b7ee8,,,,,,,,,,,,,,,,,,,,,space,63.5733,l,1,3.7593,"[""0.098"",""0.630"",""0.668"",""0.785""]","[1,0,1,1]",0,0,0,0,1,1,0,,,0,FALSE,,,,,,,,,,,,,,,,,,,,,,,,,,,,,,
,607b6943b02ad525b94b458b,001,2022-04-29_02h10.26.876,classification_task,2021.2.3,Win32,143.472023,607b6943b02ad525b94b458b,626b377229c10585ec392f89,626b394432a306a23d9b7ee8,,,,,,,,,,,,,,,,,,,,,,,l,1,4.0497,"[""0.098"",""0.294"",""0.668"",""0.922""]","[1,1,1,0]",0,1,1,1,1,1,0,,,0,FALSE,,,,,,,,,,,,,,,,,,,,,,,,,,,,,,
,607b6943b02ad525b94b458b,001,2022-04-29_02h10.26.876,classification_task,2021.2.3,Win32,143.472023,607b6943b02ad525b94b458b,626b377229c10585ec392f89,626b394432a306a23d9b7ee8,,,,,,,,,,,,,,,,,,,,,,,a,1,2.3534,"[""0.202"",""0.584"",""0.745"",""0.875""]","[1,0,1,1]",0,2,2,2,1,0,0,,,0,FALSE,,,,,,,,,,,,,,,,,,,,,,,,,,,,,,
,607b6943b02ad525b94b458b,001,2022-04-29_02h10.26.876,classification_task,2021.2.3,Win32,143.472023,607b6943b02ad525b94b458b,626b377229c10585ec392f89,626b394432a306a23d9b7ee8,,,,,,,,,,,,,,,,,,,,,,,l,1,5.578,"[""0.134"",""0.588"",""0.444"",""0.826""]","[1,0,1,1]",0,3,3,3,1,1,1,,,0,FALSE,,,,,,,,,,,,,,,,,,,,,,,,,,,,,,
,607b6943b02ad525b94b458b,001,2022-04-29_02h10.26.876,classification_task,2021.2.3,Win32,143.472023,607b6943b02ad525b94b458b,626b377229c10585ec392f89,626b394432a306a23d9b7ee8,,,,,,,,,,,,,,,,,,,,,,,a,1,6.9572,"[""0.922"",""0.533"",""0.745"",""0.875""]","[0,1,1,1]",0,4,4,4,1,0,0,,,0,FALSE,,,,,,,,,,,,,,,,,,,,,,,,,,,,,,
,607b6943b02ad525b94b458b,001,2022-04-29_02h10.26.876,classification_task,2021.2.3,Win32,143.472023,607b6943b02ad525b94b458b,626b377229c10585ec392f89,626b394432a306a23d9b7ee8,,,,,,,,,,,,,,,,,,,,,,,a,1,8.3114,"[""0.168"",""0.365"",""0.709"",""0.577""]","[1,1,1,0]",0,5,5,5,1,0,1,,,0,FALSE,,,,,,,,,,,,,,,,,,,,,,,,,,,,,,
,607b6943b02ad525b94b458b,001,2022-04-29_02h10.26.876,classification_task,2021.2.3,Win32,143.472023,607b6943b02ad525b94b458b,626b377229c10585ec392f89,626b394432a306a23d9b7ee8,,,,,,,,,,,,,,,,,,,,,,,l,1,8.3623,"[""0.588"",""0.255"",""0.444"",""0.826""]","[0,1,1,1]",0,6,6,6,1,1,1,,,0,FALSE,,,,,,,,,,,,,,,,,,,,,,,,,,,,,,
,607b6943b02ad525b94b458b,001,2022-04-29_02h10.26.876,classification_task,2021.2.3,Win32,143.472023,607b6943b02ad525b94b458b,626b377229c10585ec392f89,626b394432a306a23d9b7ee8,,,,,,,,,,,,,,,,,,,,,,,l,1,6.0125,"[""0.922"",""0.294"",""0.668"",""0.785""]","[0,1,1,1]",0,7,7,7,1,1,0,,,0,FALSE,,,,,,,,,,,,,,,,,,,,,,,,,,,,,,
,607b6943b02ad525b94b458b,001,2022-04-29_02h10.26.876,classification_task,2021.2.3,Win32,143.472023,607b6943b02ad525b94b458b,626b377229c10585ec392f89,626b394432a306a23d9b7ee8,,,,,,,,,,,,,,,,,,,,,,,a,1,8.8236,"[""0.202"",""0.533"",""0.745"",""0.051""]","[1,1,1,0]",0,8,8,8,1,0,0,,,0,FALSE,,,,,,,,,,,,,,,,,,,,,,,,,,,,,,
,607b6943b02ad525b94b458b,001,2022-04-29_02h10.26.876,classification_task,2021.2.3,Win32,143.472023,607b6943b02ad525b94b458b,626b377229c10585ec392f89,626b394432a306a23d9b7ee8,,,,,,,,,,,,,,,,,,,,,,,,0,,"[""0.202"",""0.533"",""0.922"",""0.875""]","[1,1,0,1]",0,9,9,9,1,0,0,,,0,FALSE,,,,,,,,,,,,,,,,,,,,,,,,,,,,,,
,607b6943b02ad525b94b458b,001,2022-04-29_02h10.26.876,classification_task,2021.2.3,Win32,143.472023,607b6943b02ad525b94b458b,626b377229c10585ec392f89,626b394432a306a23d9b7ee8,,,,,,,,,,,,,,,,,,,,,,,a,1,5.8452,"[""0.168"",""0.365"",""0.571"",""0.964""]","[1,1,0,1]",0,10,10,10,1,0,1,,,0,FALSE,,,,,,,,,,,,,,,,,,,,,,,,,,,,,,
,607b6943b02ad525b94b458b,001,2022-04-29_02h10.26.876,classification_task,2021.2.3,Win32,143.472023,607b6943b02ad525b94b458b,626b377229c10585ec392f89,626b394432a306a23d9b7ee8,,,,,,,,,,,,,,,,,,,,,,,l,1,3.907,"[""0.134"",""0.255"",""0.577"",""0.826""]","[1,1,0,1]",0,11,11,11,1,1,1,,,0,FALSE,,,,,,,,,,,,,,,,,,,,,,,,,,,,,,
,607b6943b02ad525b94b458b,001,2022-04-29_02h10.26.876,classification_task,2021.2.3,Win32,143.472023,607b6943b02ad525b94b458b,626b377229c10585ec392f89,626b394432a306a23d9b7ee8,,,,,,,,,,,,,,,,,,,,,,,l,1,3.5041,"[""0.134"",""0.255"",""0.444"",""0.567""]","[1,1,1,0]",0,12,12,12,1,1,1,,,0,FALSE,,,,,,,,,,,,,,,,,,,,,,,,,,,,,,
,607b6943b02ad525b94b458b,001,2022-04-29_02h10.26.876,classification_task,2021.2.3,Win32,143.472023,607b6943b02ad525b94b458b,626b377229c10585ec392f89,626b394432a306a23d9b7ee8,,,,,,,,,,,,,,,,,,,,,,,a,1,4.5175,"[""0.614"",""0.365"",""0.709"",""0.964""]","[0,1,1,1]",0,13,13,13,1,0,1,,,0,FALSE,,,,,,,,,,,,,,,,,,,,,,,,,,,,,,
,607b6943b02ad525b94b458b,001,2022-04-29_02h10.26.876,classification_task,2021.2.3,Win32,143.472023,607b6943b02ad525b94b458b,626b377229c10585ec392f89,626b394432a306a23d9b7ee8,,,,,,,,,,,,,,,,,,,,,,,l,1,4.8073,"[""0.098"",""0.294"",""0.619"",""0.785""]","[1,1,0,1]",0,14,14,14,1,1,0,,,0,FALSE,,,,,,,,,,,,,,,,,,,,,,,,,,,,,,
,607b6943b02ad525b94b458b,001,2022-04-29_02h10.26.876,classification_task,2021.2.3,Win32,143.472023,607b6943b02ad525b94b458b,626b377229c10585ec392f89,626b394432a306a23d9b7ee8,,,,,,,,,,,,,,,,,,,,,,,a,1,5.0219,"[""0.168"",""0.588"",""0.709"",""0.964""]","[1,0,1,1]",0,15,15,15,1,0,1,,,0,FALSE,,,,,,,,,,,,,,,,,,,,,,,,,,,,,,
,607b6943b02ad525b94b458b,001,2022-04-29_02h10.26.876,classification_task,2021.2.3,Win32,143.472023,607b6943b02ad525b94b458b,626b377229c10585ec392f89,626b394432a306a23d9b7ee8,,,,,,,,,,,,,,,,,,,,,,,l,0,5.365,"[""0.202"",""0.533"",""0.059"",""0.875""]","[1,1,0,1]",0,16,16,16,1,0,0,,,0,FALSE,,,,,,,,,,,,,,,,,,,,,,,,,,,,,,
,607b6943b02ad525b94b458b,001,2022-04-29_02h10.26.876,classification_task,2021.2.3,Win32,143.472023,607b6943b02ad525b94b458b,626b377229c10585ec392f89,626b394432a306a23d9b7ee8,,,,,,,,,,,,,,,,,,,,,,,l,1,5.688,"[""0.134"",""0.255"",""0.922"",""0.826""]","[1,1,0,1]",0,17,17,17,1,1,1,,,0,FALSE,,,,,,,,,,,,,,,,,,,,,,,,,,,,,,
,607b6943b02ad525b94b458b,001,2022-04-29_02h10.26.876,classification_task,2021.2.3,Win32,143.472023,607b6943b02ad525b94b458b,626b377229c10585ec392f89,626b394432a306a23d9b7ee8,,,,,,,,,,,,,,,,,,,,,,,a,1,6.0826,"[""0.168"",""0.365"",""0.709"",""0.911""]","[1,1,1,0]",0,18,18,18,1,0,1,,,0,FALSE,,,,,,,,,,,,,,,,,,,,,,,,,,,,,,
,607b6943b02ad525b94b458b,001,2022-04-29_02h10.26.876,classification_task,2021.2.3,Win32,143.472023,607b6943b02ad525b94b458b,626b377229c10585ec392f89,626b394432a306a23d9b7ee8,,,,,,,,,,,,,,,,,,,,,,,l,1,5.4023,"[""0.098"",""0.294"",""0.668"",""0.331""]","[1,1,1,0]",0,19,19,19,1,1,0,,,0,FALSE,,,,,,,,,,,,,,,,,,,,,,,,,,,,,,
,607b6943b02ad525b94b458b,001,2022-04-29_02h10.26.876,classification_task,2021.2.3,Win32,143.472023,607b6943b02ad525b94b458b,626b377229c10585ec392f89,626b394432a306a23d9b7ee8,,,,,,,,,,,,,,,,,,,,,,,a,1,5.2136,"[""0.571"",""0.533"",""0.745"",""0.875""]","[0,1,1,1]",0,20,20,20,1,0,0,,,0,FALSE,,,,,,,,,,,,,,,,,,,,,,,,,,,,,,
,607b6943b02ad525b94b458b,001,2022-04-29_02h10.26.876,classification_task,2021.2.3,Win32,143.472023,607b6943b02ad525b94b458b,626b377229c10585ec392f89,626b394432a306a23d9b7ee8,,,,,,,,,,,,,,,,,,,,,,,l,1,4.4526,"[""0.134"",""0.567"",""0.444"",""0.826""]","[1,0,1,1]",0,21,21,21,1,1,1,,,0,FALSE,,,,,,,,,,,,,,,,,,,,,,,,,,,,,,
,607b6943b02ad525b94b458b,001,2022-04-29_02h10.26.876,classification_task,2021.2.3,Win32,143.472023,607b6943b02ad525b94b458b,626b377229c10585ec392f89,626b394432a306a23d9b7ee8,,,,,,,,,,,,,,,,,,,,,,,a,0,6.4537,"[""0.098"",""0.059"",""0.668"",""0.785""]","[1,0,1,1]",0,22,22,22,1,1,0,,,0,FALSE,,,,,,,,,,,,,,,,,,,,,,,,,,,,,,
,607b6943b02ad525b94b458b,001,2022-04-29_02h10.26.876,classification_task,2021.2.3,Win32,143.472023,607b6943b02ad525b94b458b,626b377229c10585ec392f89,626b394432a306a23d9b7ee8,,,,,,,,,,,,,,,,,,,,,,,l,0,5.9894,"[""0.202"",""0.331"",""0.745"",""0.875""]","[1,0,1,1]",0,23,23,23,1,0,0,,,0,FALSE,,,,,,,,,,,,,,,,,,,,,,,,,,,,,,
,607b6943b02ad525b94b458b,001,2022-04-29_02h10.26.876,classification_task,2021.2.3,Win32,143.472023,607b6943b02ad525b94b458b,626b377229c10585ec392f89,626b394432a306a23d9b7ee8,,,,,,,,,,,,,,,,,,,,,,,a,1,5.1562,"[""0.584"",""0.365"",""0.709"",""0.964""]","[0,1,1,1]",0,24,24,24,1,0,1,,,0,FALSE,,,,,,,,,,,,,,,,,,,,,,,,,,,,,,
,607b6943b02ad525b94b458b,001,2022-04-29_02h10.26.876,classification_task,2021.2.3,Win32,143.472023,607b6943b02ad525b94b458b,626b377229c10585ec392f89,626b394432a306a23d9b7ee8,,,,,,,,,,,,,,,,,,,,,,,a,1,5.7753,"[""0.202"",""0.533"",""0.745"",""0.331""]","[1,1,1,0]",0,25,25,25,1,0,0,,,0,FALSE,,,,,,,,,,,,,,,,,,,,,,,,,,,,,,
,607b6943b02ad525b94b458b,001,2022-04-29_02h10.26.876,classification_task,2021.2.3,Win32,143.472023,607b6943b02ad525b94b458b,626b377229c10585ec392f89,626b394432a306a23d9b7ee8,,,,,,,,,,,,,,,,,,,,,,,a,1,5.4079,"[""0.168"",""0.365"",""0.614"",""0.964""]","[1,1,0,1]",0,26,26,26,1,0,1,,,0,FALSE,,,,,,,,,,,,,,,,,,,,,,,,,,,,,,
,607b6943b02ad525b94b458b,001,2022-04-29_02h10.26.876,classification_task,2021.2.3,Win32,143.472023,607b6943b02ad525b94b458b,626b377229c10585ec392f89,626b394432a306a23d9b7ee8,,,,,,,,,,,,,,,,,,,,,,,a,1,5.6776,"[""0.168"",""0.567"",""0.709"",""0.964""]","[1,0,1,1]",0,27,27,27,1,0,1,,,0,FALSE,,,,,,,,,,,,,,,,,,,,,,,,,,,,,,
,607b6943b02ad525b94b458b,001,2022-04-29_02h10.26.876,classification_task,2021.2.3,Win32,143.472023,607b6943b02ad525b94b458b,626b377229c10585ec392f89,626b394432a306a23d9b7ee8,,,,,,,,,,,,,,,,,,,,,,,l,1,3.6814,"[""0.098"",""0.294"",""0.571"",""0.785""]","[1,1,0,1]",0,28,28,28,1,1,0,,,0,FALSE,,,,,,,,,,,,,,,,,,,,,,,,,,,,,,
,607b6943b02ad525b94b458b,001,2022-04-29_02h10.26.876,classification_task,2021.2.3,Win32,143.472023,607b6943b02ad525b94b458b,626b377229c10585ec392f89,626b394432a306a23d9b7ee8,,,,,,,,,,,,,,,,,,,,,,,a,0,8.7081,"[""0.577"",""0.294"",""0.668"",""0.785""]","[0,1,1,1]",0,29,29,29,1,1,0,,,0,FALSE,,,,,,,,,,,,,,,,,,,,,,,,,,,,,,
,607b6943b02ad525b94b458b,001,2022-04-29_02h10.26.876,classification_task,2021.2.3,Win32,143.472023,607b6943b02ad525b94b458b,626b377229c10585ec392f89,626b394432a306a23d9b7ee8,,,,,,,,,,,,,,,,,,,,,,,l,1,4.6742,"[""0.134"",""0.255"",""0.444"",""0.571""]","[1,1,1,0]",0,30,30,30,1,1,1,,,0,FALSE,,,,,,,,,,,,,,,,,,,,,,,,,,,,,,
,607b6943b02ad525b94b458b,001,2022-04-29_02h10.26.876,classification_task,2021.2.3,Win32,143.472023,607b6943b02ad525b94b458b,626b377229c10585ec392f89,626b394432a306a23d9b7ee8,,,,,,,,,,,,,,,,,,,,,,,l,1,5.587,"[""0.911"",""0.255"",""0.444"",""0.826""]","[0,1,1,1]",0,31,31,31,1,1,1,,,0,FALSE,,,,,,,,,,,,,,,,,,,,,,,,,,,,,,
,607b6943b02ad525b94b458b,001,2022-04-29_02h10.26.876,classification_task,2021.2.3,Win32,143.472023,607b6943b02ad525b94b458b,626b377229c10585ec392f89,626b394432a306a23d9b7ee8,,,,,,,,,,,,,,,,,,,,,,,a,1,8.028,"[""0.584"",""0.533"",""0.745"",""0.875""]","[0,1,1,1]",0,32,32,32,1,0,0,,,0,FALSE,,,,,,,,,,,,,,,,,,,,,,,,,,,,,,
,607b6943b02ad525b94b458b,001,2022-04-29_02h10.26.876,classification_task,2021.2.3,Win32,143.472023,607b6943b02ad525b94b458b,626b377229c10585ec392f89,626b394432a306a23d9b7ee8,,,,,,,,,,,,,,,,,,,,,,,l,0,6.9866,"[""0.168"",""0.365"",""0.571"",""0.964""]","[1,1,0,1]",0,33,33,33,1,0,1,,,0,FALSE,,,,,,,,,,,,,,,,,,,,,,,,,,,,,,
,607b6943b02ad525b94b458b,001,2022-04-29_02h10.26.876,classification_task,2021.2.3,Win32,143.472023,607b6943b02ad525b94b458b,626b377229c10585ec392f89,626b394432a306a23d9b7ee8,,,,,,,,,,,,,,,,,,,,,,,a,1,5.113,"[""0.202"",""0.584"",""0.745"",""0.875""]","[1,0,1,1]",0,34,34,34,1,0,0,,,0,FALSE,,,,,,,,,,,,,,,,,,,,,,,,,,,,,,
,607b6943b02ad525b94b458b,001,2022-04-29_02h10.26.876,classification_task,2021.2.3,Win32,143.472023,607b6943b02ad525b94b458b,626b377229c10585ec392f89,626b394432a306a23d9b7ee8,,,,,,,,,,,,,,,,,,,,,,,a,1,4.3659,"[""0.168"",""0.365"",""0.709"",""0.619""]","[1,1,1,0]",0,35,35,35,1,0,1,,,0,FALSE,,,,,,,,,,,,,,,,,,,,,,,,,,,,,,
,607b6943b02ad525b94b458b,001,2022-04-29_02h10.26.876,classification_task,2021.2.3,Win32,143.472023,607b6943b02ad525b94b458b,626b377229c10585ec392f89,626b394432a306a23d9b7ee8,,,,,,,,,,,,,,,,,,,,,,,a,0,5.0338,"[""0.098"",""0.294"",""0.577"",""0.785""]","[1,1,0,1]",0,36,36,36,1,1,0,,,0,FALSE,,,,,,,,,,,,,,,,,,,,,,,,,,,,,,
,607b6943b02ad525b94b458b,001,2022-04-29_02h10.26.876,classification_task,2021.2.3,Win32,143.472023,607b6943b02ad525b94b458b,626b377229c10585ec392f89,626b394432a306a23d9b7ee8,,,,,,,,,,,,,,,,,,,,,,,a,0,5.4888,"[""0.630"",""0.294"",""0.668"",""0.785""]","[0,1,1,1]",0,37,37,37,1,1,0,,,0,FALSE,,,,,,,,,,,,,,,,,,,,,,,,,,,,,,
,607b6943b02ad525b94b458b,001,2022-04-29_02h10.26.876,classification_task,2021.2.3,Win32,143.472023,607b6943b02ad525b94b458b,626b377229c10585ec392f89,626b394432a306a23d9b7ee8,,,,,,,,,,,,,,,,,,,,,,,l,0,3.85,"[""0.168"",""0.051"",""0.709"",""0.964""]","[1,0,1,1]",0,38,38,38,1,0,1,,,0,FALSE,,,,,,,,,,,,,,,,,,,,,,,,,,,,,,
,607b6943b02ad525b94b458b,001,2022-04-29_02h10.26.876,classification_task,2021.2.3,Win32,143.472023,607b6943b02ad525b94b458b,626b377229c10585ec392f89,626b394432a306a23d9b7ee8,,,,,,,,,,,,,,,,,,,,,,,l,1,3.4335,"[""0.482"",""0.255"",""0.444"",""0.826""]","[0,1,1,1]",0,39,39,39,1,1,1,,,0,FALSE,,,,,,,,,,,,,,,,,,,,,,,,,,,,,,
,607b6943b02ad525b94b458b,001,2022-04-29_02h10.26.876,classification_task,2021.2.3,Win32,143.472023,607b6943b02ad525b94b458b,626b377229c10585ec392f89,626b394432a306a23d9b7ee8,,,,,,,,,,,,,,,,,,,,,,,l,0,4.8771,"[""0.202"",""0.533"",""0.745"",""0.630""]","[1,1,1,0]",0,40,40,40,1,0,0,,,0,FALSE,,,,,,,,,,,,,,,,,,,,,,,,,,,,,,
,607b6943b02ad525b94b458b,001,2022-04-29_02h10.26.876,classification_task,2021.2.3,Win32,143.472023,607b6943b02ad525b94b458b,626b377229c10585ec392f89,626b394432a306a23d9b7ee8,,,,,,,,,,,,,,,,,,,,,,,l,1,7.7392,"[""0.134"",""0.255"",""0.444"",""0.922""]","[1,1,1,0]",0,41,41,41,1,1,1,,,0,FALSE,,,,,,,,,,,,,,,,,,,,,,,,,,,,,,
,607b6943b02ad525b94b458b,001,2022-04-29_02h10.26.876,classification_task,2021.2.3,Win32,143.472023,607b6943b02ad525b94b458b,626b377229c10585ec392f89,626b394432a306a23d9b7ee8,,,,,,,,,,,,,,,,,,,,,,,a,0,7.5621,"[""0.134"",""0.482"",""0.444"",""0.826""]","[1,0,1,1]",0,42,42,42,1,1,1,,,0,FALSE,,,,,,,,,,,,,,,,,,,,,,,,,,,,,,
,607b6943b02ad525b94b458b,001,2022-04-29_02h10.26.876,classification_task,2021.2.3,Win32,143.472023,607b6943b02ad525b94b458b,626b377229c10585ec392f89,626b394432a306a23d9b7ee8,,,,,,,,,,,,,,,,,,,,,,,l,0,5.2017,"[""0.202"",""0.533"",""0.571"",""0.875""]","[1,1,0,1]",0,43,43,43,1,0,0,,,0,FALSE,,,,,,,,,,,,,,,,,,,,,,,,,,,,,,
,607b6943b02ad525b94b458b,001,2022-04-29_02h10.26.876,classification_task,2021.2.3,Win32,143.472023,607b6943b02ad525b94b458b,626b377229c10585ec392f89,626b394432a306a23d9b7ee8,,,,,,,,,,,,,,,,,,,,,,,a,1,4.8646,"[""0.584"",""0.365"",""0.709"",""0.964""]","[0,1,1,1]",0,44,44,44,1,0,1,,,0,FALSE,,,,,,,,,,,,,,,,,,,,,,,,,,,,,,
,607b6943b02ad525b94b458b,001,2022-04-29_02h10.26.876,classification_task,2021.2.3,Win32,143.472023,607b6943b02ad525b94b458b,626b377229c10585ec392f89,626b394432a306a23d9b7ee8,,,,,,,,,,,,,,,,,,,,,,,a,0,5.8891,"[""0.134"",""0.255"",""0.331"",""0.826""]","[1,1,0,1]",0,45,45,45,1,1,1,,,0,FALSE,,,,,,,,,,,,,,,,,,,,,,,,,,,,,,
,607b6943b02ad525b94b458b,001,2022-04-29_02h10.26.876,classification_task,2021.2.3,Win32,143.472023,607b6943b02ad525b94b458b,626b377229c10585ec392f89,626b394432a306a23d9b7ee8,,,,,,,,,,,,,,,,,,,,,,,l,1,3.8015,"[""0.098"",""0.571"",""0.668"",""0.785""]","[1,0,1,1]",0,46,46,46,1,1,0,,,0,FALSE,,,,,,,,,,,,,,,,,,,,,,,,,,,,,,
,607b6943b02ad525b94b458b,001,2022-04-29_02h10.26.876,classification_task,2021.2.3,Win32,143.472023,607b6943b02ad525b94b458b,626b377229c10585ec392f89,626b394432a306a23d9b7ee8,,,,,,,,,,,,,,,,,,,,,,,l,1,2.8927,"[""0.098"",""0.294"",""0.668"",""0.571""]","[1,1,1,0]",0,47,47,47,1,1,0,,,0,FALSE,,,,,,,,,,,,,,,,,,,,,,,,,,,,,,
,607b6943b02ad525b94b458b,001,2022-04-29_02h10.26.876,classification_task,2021.2.3,Win32,143.472023,607b6943b02ad525b94b458b,626b377229c10585ec392f89,626b394432a306a23d9b7ee8,,,,,,,,,,,,,,,,,,,,,,,l,0,3.5324,"[""0.168"",""0.365"",""0.482"",""0.964""]","[1,1,0,1]",0,48,48,48,1,0,1,,,0,FALSE,,,,,,,,,,,,,,,,,,,,,,,,,,,,,,
,607b6943b02ad525b94b458b,001,2022-04-29_02h10.26.876,classification_task,2021.2.3,Win32,143.472023,607b6943b02ad525b94b458b,626b377229c10585ec392f89,626b394432a306a23d9b7ee8,,,,,,,,,,,,,,,,,,,,,,,a,0,3.7321,"[""0.134"",""0.255"",""0.588"",""0.826""]","[1,1,0,1]",0,49,49,49,1,1,1,,,0,FALSE,,,,,,,,,,,,,,,,,,,,,,,,,,,,,,
,607b6943b02ad525b94b458b,001,2022-04-29_02h10.26.876,classification_task,2021.2.3,Win32,143.472023,607b6943b02ad525b94b458b,626b377229c10585ec392f89,626b394432a306a23d9b7ee8,,,,,,,,,,,,,,,,,,,,,,,l,0,3.996,"[""0.168"",""0.365"",""0.709"",""0.331""]","[1,1,1,0]",0,50,50,50,1,0,1,,,0,FALSE,,,,,,,,,,,,,,,,,,,,,,,,,,,,,,
,607b6943b02ad525b94b458b,001,2022-04-29_02h10.26.876,classification_task,2021.2.3,Win32,143.472023,607b6943b02ad525b94b458b,626b377229c10585ec392f89,626b394432a306a23d9b7ee8,,,,,,,,,,,,,,,,,,,,,,,l,1,5.2948,"[""0.051"",""0.294"",""0.668"",""0.785""]","[0,1,1,1]",0,51,51,51,1,1,0,,,0,FALSE,,,,,,,,,,,,,,,,,,,,,,,,,,,,,,
,607b6943b02ad525b94b458b,001,2022-04-29_02h10.26.876,classification_task,2021.2.3,Win32,143.472023,607b6943b02ad525b94b458b,626b377229c10585ec392f89,626b394432a306a23d9b7ee8,,,,,,,,,,,,,,,,,,,,,,,a,0,8.5801,"[""0.098"",""0.294"",""0.668"",""0.331""]","[1,1,1,0]",0,52,52,52,1,1,0,,,0,FALSE,,,,,,,,,,,,,,,,,,,,,,,,,,,,,,
,607b6943b02ad525b94b458b,001,2022-04-29_02h10.26.876,classification_task,2021.2.3,Win32,143.472023,607b6943b02ad525b94b458b,626b377229c10585ec392f89,626b394432a306a23d9b7ee8,,,,,,,,,,,,,,,,,,,,,,,l,1,4.8088,"[""0.098"",""0.588"",""0.668"",""0.785""]","[1,0,1,1]",0,53,53,53,1,1,0,,,0,FALSE,,,,,,,,,,,,,,,,,,,,,,,,,,,,,,
,607b6943b02ad525b94b458b,001,2022-04-29_02h10.26.876,classification_task,2021.2.3,Win32,143.472023,607b6943b02ad525b94b458b,626b377229c10585ec392f89,626b394432a306a23d9b7ee8,,,,,,,,,,,,,,,,,,,,,,,l,1,3.5656,"[""0.134"",""0.619"",""0.444"",""0.826""]","[1,0,1,1]",0,54,54,54,1,1,1,,,0,FALSE,,,,,,,,,,,,,,,,,,,,,,,,,,,,,,
,607b6943b02ad525b94b458b,001,2022-04-29_02h10.26.876,classification_task,2021.2.3,Win32,143.472023,607b6943b02ad525b94b458b,626b377229c10585ec392f89,626b394432a306a23d9b7ee8,,,,,,,,,,,,,,,,,,,,,,,,0,,"[""0.134"",""0.255"",""0.444"",""0.922""]","[1,1,1,0]",0,55,55,55,1,1,1,,,0,FALSE,,,,,,,,,,,,,,,,,,,,,,,,,,,,,,
,607b6943b02ad525b94b458b,001,2022-04-29_02h10.26.876,classification_task,2021.2.3,Win32,143.472023,607b6943b02ad525b94b458b,626b377229c10585ec392f89,626b394432a306a23d9b7ee8,,,,,,,,,,,,,,,,,,,,,,,l,0,0.0096,"[""0.051"",""0.533"",""0.745"",""0.875""]","[0,1,1,1]",0,56,56,56,1,0,0,,,0,FALSE,,,,,,,,,,,,,,,,,,,,,,,,,,,,,,
,607b6943b02ad525b94b458b,001,2022-04-29_02h10.26.876,classification_task,2021.2.3,Win32,143.472023,607b6943b02ad525b94b458b,626b377229c10585ec392f89,626b394432a306a23d9b7ee8,,,,,,,,,,,,,,,,,,,,,,,a,0,3.7851,"[""0.630"",""0.255"",""0.444"",""0.826""]","[0,1,1,1]",0,57,57,57,1,1,1,,,0,FALSE,,,,,,,,,,,,,,,,,,,,,,,,,,,,,,
,607b6943b02ad525b94b458b,001,2022-04-29_02h10.26.876,classification_task,2021.2.3,Win32,143.472023,607b6943b02ad525b94b458b,626b377229c10585ec392f89,626b394432a306a23d9b7ee8,,,,,,,,,,,,,,,,,,,,,,,l,0,4.9896,"[""0.567"",""0.365"",""0.709"",""0.964""]","[0,1,1,1]",0,58,58,58,1,0,1,,,0,FALSE,,,,,,,,,,,,,,,,,,,,,,,,,,,,,,
,607b6943b02ad525b94b458b,001,2022-04-29_02h10.26.876,classification_task,2021.2.3,Win32,143.472023,607b6943b02ad525b94b458b,626b377229c10585ec392f89,626b394432a306a23d9b7ee8,,,,,,,,,,,,,,,,,,,,,,,l,0,4.595,"[""0.202"",""0.331"",""0.745"",""0.875""]","[1,0,1,1]",0,59,59,59,1,0,0,,,0,FALSE,,,,,,,,,,,,,,,,,,,,,,,,,,,,,,
,607b6943b02ad525b94b458b,001,2022-04-29_02h10.26.876,classification_task,2021.2.3,Win32,143.472023,607b6943b02ad525b94b458b,626b377229c10585ec392f89,626b394432a306a23d9b7ee8,,,,,,,,,,,,,,,,,,,,,,,a,1,7.6067,"[""0.202"",""0.533"",""0.482"",""0.875""]","[1,1,0,1]",0,60,60,60,1,0,0,,,0,FALSE,,,,,,,,,,,,,,,,,,,,,,,,,,,,,,
,607b6943b02ad525b94b458b,001,2022-04-29_02h10.26.876,classification_task,2021.2.3,Win32,143.472023,607b6943b02ad525b94b458b,626b377229c10585ec392f89,626b394432a306a23d9b7ee8,,,,,,,,,,,,,,,,,,,,,,,a,1,3.7038,"[""0.168"",""0.567"",""0.709"",""0.964""]","[1,0,1,1]",0,61,61,61,1,0,1,,,0,FALSE,,,,,,,,,,,,,,,,,,,,,,,,,,,,,,
,607b6943b02ad525b94b458b,001,2022-04-29_02h10.26.876,classification_task,2021.2.3,Win32,143.472023,607b6943b02ad525b94b458b,626b377229c10585ec392f89,626b394432a306a23d9b7ee8,,,,,,,,,,,,,,,,,,,,,,,a,1,3.5634,"[""0.202"",""0.533"",""0.745"",""0.588""]","[1,1,1,0]",0,62,62,62,1,0,0,,,0,FALSE,,,,,,,,,,,,,,,,,,,,,,,,,,,,,,
,607b6943b02ad525b94b458b,001,2022-04-29_02h10.26.876,classification_task,2021.2.3,Win32,143.472023,607b6943b02ad525b94b458b,626b377229c10585ec392f89,626b394432a306a23d9b7ee8,,,,,,,,,,,,,,,,,,,,,,,a,0,2.2836,"[""0.098"",""0.294"",""0.614"",""0.785""]","[1,1,0,1]",0,63,63,63,1,1,0,,,0,FALSE,,,,,,,,,,,,,,,,,,,,,,,,,,,,,,
,607b6943b02ad525b94b458b,001,2022-04-29_02h10.26.876,classification_task,2021.2.3,Win32,143.472023,607b6943b02ad525b94b458b,626b377229c10585ec392f89,626b394432a306a23d9b7ee8,,,,,,,,,,,,,,,,,,,,,,,,,,,,,,,,,,,,,,,0, ,,0,3.848717189,589.1748,0,0,0,0,1,2,1,,,,,,,,,,,,,,,,,
,607b6943b02ad525b94b458b,001,2022-04-29_02h10.26.876,classification_task,2021.2.3,Win32,143.472023,607b6943b02ad525b94b458b,626b377229c10585ec392f89,626b394432a306a23d9b7ee8,,,,,,,,,,,,,,,,,,,,,,,,,,,,,,,,,,,,,,,1,  ,,0,4.828533731,597.9659,0,0,0,0,1,2,1,,,,,,,,,,,,,,,,,
,607b6943b02ad525b94b458b,001,2022-04-29_02h10.26.876,classification_task,2021.2.3,Win32,143.472023,607b6943b02ad525b94b458b,626b377229c10585ec392f89,626b394432a306a23d9b7ee8,,,,,,,,,,,,,,,,,,,,,,,,,,,,,,,,,,,,,,,2,  ,,0,5.563395577,603.4813,0,0,0,0,1,2,1,,,,,,,,,,,,,,,,,
,607b6943b02ad525b94b458b,001,2022-04-29_02h10.26.876,classification_task,2021.2.3,Win32,143.472023,607b6943b02ad525b94b458b,626b377229c10585ec392f89,626b394432a306a23d9b7ee8,,,,,,,,,,,,,,,,,,,,,,,,,,,,,,,,,,,,,,,,,,,,,0,0,0,0,1,,1,,,,,,,,,,,,,,,,,
,607b6943b02ad525b94b458b,001,2022-04-29_02h10.26.876,classification_task,2021.2.3,Win32,143.472023,607b6943b02ad525b94b458b,626b377229c10585ec392f89,626b394432a306a23d9b7ee8,,,,,,,,,,,,,,,,,,,,,space,15.1367,a,1,5.3717,"[""0.168"",""0.365"",""0.709"",""0.059""]","[1,1,1,0]",0,0,0,0,1,0,1,,,0,FALSE,,,,,,,,,,,,,,,,,,,,,,,,,,,,,,
,607b6943b02ad525b94b458b,001,2022-04-29_02h10.26.876,classification_task,2021.2.3,Win32,143.472023,607b6943b02ad525b94b458b,626b377229c10585ec392f89,626b394432a306a23d9b7ee8,,,,,,,,,,,,,,,,,,,,,,,l,1,4.42,"[""0.098"",""0.294"",""0.482"",""0.785""]","[1,1,0,1]",0,1,1,1,1,1,0,,,0,FALSE,,,,,,,,,,,,,,,,,,,,,,,,,,,,,,
,607b6943b02ad525b94b458b,001,2022-04-29_02h10.26.876,classification_task,2021.2.3,Win32,143.472023,607b6943b02ad525b94b458b,626b377229c10585ec392f89,626b394432a306a23d9b7ee8,,,,,,,,,,,,,,,,,,,,,,,a,1,1.7314,"[""0.202"",""0.533"",""0.745"",""0.051""]","[1,1,1,0]",0,2,2,2,1,0,0,,,0,FALSE,,,,,,,,,,,,,,,,,,,,,,,,,,,,,,
,607b6943b02ad525b94b458b,001,2022-04-29_02h10.26.876,classification_task,2021.2.3,Win32,143.472023,607b6943b02ad525b94b458b,626b377229c10585ec392f89,626b394432a306a23d9b7ee8,,,,,,,,,,,,,,,,,,,,,,,l,1,1.5165,"[""0.098"",""0.294"",""0.668"",""0.051""]","[1,1,1,0]",0,3,3,3,1,1,0,,,0,FALSE,,,,,,,,,,,,,,,,,,,,,,,,,,,,,,
,607b6943b02ad525b94b458b,001,2022-04-29_02h10.26.876,classification_task,2021.2.3,Win32,143.472023,607b6943b02ad525b94b458b,626b377229c10585ec392f89,626b394432a306a23d9b7ee8,,,,,,,,,,,,,,,,,,,,,,,a,1,0.743,"[""0.202"",""0.533"",""0.046"",""0.875""]","[1,1,0,1]",0,4,4,4,1,0,0,,,0,FALSE,,,,,,,,,,,,,,,,,,,,,,,,,,,,,,
,607b6943b02ad525b94b458b,001,2022-04-29_02h10.26.876,classification_task,2021.2.3,Win32,143.472023,607b6943b02ad525b94b458b,626b377229c10585ec392f89,626b394432a306a23d9b7ee8,,,,,,,,,,,,,,,,,,,,,,,a,1,0.6464,"[""0.630"",""0.533"",""0.745"",""0.875""]","[0,1,1,1]",0,5,5,5,1,0,0,,,0,FALSE,,,,,,,,,,,,,,,,,,,,,,,,,,,,,,
,607b6943b02ad525b94b458b,001,2022-04-29_02h10.26.876,classification_task,2021.2.3,Win32,143.472023,607b6943b02ad525b94b458b,626b377229c10585ec392f89,626b394432a306a23d9b7ee8,,,,,,,,,,,,,,,,,,,,,,,a,0,3.699,"[""0.619"",""0.255"",""0.444"",""0.826""]","[0,1,1,1]",0,6,6,6,1,1,1,,,0,FALSE,,,,,,,,,,,,,,,,,,,,,,,,,,,,,,
,607b6943b02ad525b94b458b,001,2022-04-29_02h10.26.876,classification_task,2021.2.3,Win32,143.472023,607b6943b02ad525b94b458b,626b377229c10585ec392f89,626b394432a306a23d9b7ee8,,,,,,,,,,,,,,,,,,,,,,,a,1,2.8772,"[""0.202"",""0.911"",""0.745"",""0.875""]","[1,0,1,1]",0,7,7,7,1,0,0,,,0,FALSE,,,,,,,,,,,,,,,,,,,,,,,,,,,,,,
,607b6943b02ad525b94b458b,001,2022-04-29_02h10.26.876,classification_task,2021.2.3,Win32,143.472023,607b6943b02ad525b94b458b,626b377229c10585ec392f89,626b394432a306a23d9b7ee8,,,,,,,,,,,,,,,,,,,,,,,l,1,0.882,"[""0.098"",""0.588"",""0.668"",""0.785""]","[1,0,1,1]",0,8,8,8,1,1,0,,,0,FALSE,,,,,,,,,,,,,,,,,,,,,,,,,,,,,,
,607b6943b02ad525b94b458b,001,2022-04-29_02h10.26.876,classification_task,2021.2.3,Win32,143.472023,607b6943b02ad525b94b458b,626b377229c10585ec392f89,626b394432a306a23d9b7ee8,,,,,,,,,,,,,,,,,,,,,,,l,1,1.2369,"[""0.571"",""0.294"",""0.668"",""0.785""]","[0,1,1,1]",0,9,9,9,1,1,0,,,0,FALSE,,,,,,,,,,,,,,,,,,,,,,,,,,,,,,
,607b6943b02ad525b94b458b,001,2022-04-29_02h10.26.876,classification_task,2021.2.3,Win32,143.472023,607b6943b02ad525b94b458b,626b377229c10585ec392f89,626b394432a306a23d9b7ee8,,,,,,,,,,,,,,,,,,,,,,,a,1,4.8298,"[""0.567"",""0.365"",""0.709"",""0.964""]","[0,1,1,1]",0,10,10,10,1,0,1,,,0,FALSE,,,,,,,,,,,,,,,,,,,,,,,,,,,,,,
,607b6943b02ad525b94b458b,001,2022-04-29_02h10.26.876,classification_task,2021.2.3,Win32,143.472023,607b6943b02ad525b94b458b,626b377229c10585ec392f89,626b394432a306a23d9b7ee8,,,,,,,,,,,,,,,,,,,,,,,l,1,2.711,"[""0.134"",""0.255"",""0.577"",""0.826""]","[1,1,0,1]",0,11,11,11,1,1,1,,,0,FALSE,,,,,,,,,,,,,,,,,,,,,,,,,,,,,,
,607b6943b02ad525b94b458b,001,2022-04-29_02h10.26.876,classification_task,2021.2.3,Win32,143.472023,607b6943b02ad525b94b458b,626b377229c10585ec392f89,626b394432a306a23d9b7ee8,,,,,,,,,,,,,,,,,,,,,,,l,0,3.6522,"[""0.168"",""0.365"",""0.046"",""0.964""]","[1,1,0,1]",0,12,12,12,1,0,1,,,0,FALSE,,,,,,,,,,,,,,,,,,,,,,,,,,,,,,
,607b6943b02ad525b94b458b,001,2022-04-29_02h10.26.876,classification_task,2021.2.3,Win32,143.472023,607b6943b02ad525b94b458b,626b377229c10585ec392f89,626b394432a306a23d9b7ee8,,,,,,,,,,,,,,,,,,,,,,,l,0,2.2222,"[""0.168"",""0.922"",""0.709"",""0.964""]","[1,0,1,1]",0,13,13,13,1,0,1,,,0,FALSE,,,,,,,,,,,,,,,,,,,,,,,,,,,,,,
,607b6943b02ad525b94b458b,001,2022-04-29_02h10.26.876,classification_task,2021.2.3,Win32,143.472023,607b6943b02ad525b94b458b,626b377229c10585ec392f89,626b394432a306a23d9b7ee8,,,,,,,,,,,,,,,,,,,,,,,a,0,4.5232,"[""0.134"",""0.482"",""0.444"",""0.826""]","[1,0,1,1]",0,14,14,14,1,1,1,,,0,FALSE,,,,,,,,,,,,,,,,,,,,,,,,,,,,,,
,607b6943b02ad525b94b458b,001,2022-04-29_02h10.26.876,classification_task,2021.2.3,Win32,143.472023,607b6943b02ad525b94b458b,626b377229c10585ec392f89,626b394432a306a23d9b7ee8,,,,,,,,,,,,,,,,,,,,,,,l,1,3.9894,"[""0.134"",""0.255"",""0.444"",""0.922""]","[1,1,1,0]",0,15,15,15,1,1,1,,,0,FALSE,,,,,,,,,,,,,,,,,,,,,,,,,,,,,,
,607b6943b02ad525b94b458b,001,2022-04-29_02h10.26.876,classification_task,2021.2.3,Win32,143.472023,607b6943b02ad525b94b458b,626b377229c10585ec392f89,626b394432a306a23d9b7ee8,,,,,,,,,,,,,,,,,,,,,,,a,1,3.0217,"[""0.202"",""0.533"",""0.588"",""0.875""]","[1,1,0,1]",0,16,16,16,1,0,0,,,0,FALSE,,,,,,,,,,,,,,,,,,,,,,,,,,,,,,
,607b6943b02ad525b94b458b,001,2022-04-29_02h10.26.876,classification_task,2021.2.3,Win32,143.472023,607b6943b02ad525b94b458b,626b377229c10585ec392f89,626b394432a306a23d9b7ee8,,,,,,,,,,,,,,,,,,,,,,,a,1,1.5096,"[""0.168"",""0.365"",""0.709"",""0.051""]","[1,1,1,0]",0,17,17,17,1,0,1,,,0,FALSE,,,,,,,,,,,,,,,,,,,,,,,,,,,,,,
,607b6943b02ad525b94b458b,001,2022-04-29_02h10.26.876,classification_task,2021.2.3,Win32,143.472023,607b6943b02ad525b94b458b,626b377229c10585ec392f89,626b394432a306a23d9b7ee8,,,,,,,,,,,,,,,,,,,,,,,l,1,1.1819,"[""0.098"",""0.294"",""0.668"",""0.482""]","[1,1,1,0]",0,18,18,18,1,1,0,,,0,FALSE,,,,,,,,,,,,,,,,,,,,,,,,,,,,,,
,607b6943b02ad525b94b458b,001,2022-04-29_02h10.26.876,classification_task,2021.2.3,Win32,143.472023,607b6943b02ad525b94b458b,626b377229c10585ec392f89,626b394432a306a23d9b7ee8,,,,,,,,,,,,,,,,,,,,,,,l,1,0.9674,"[""0.331"",""0.294"",""0.668"",""0.785""]","[0,1,1,1]",0,19,19,19,1,1,0,,,0,FALSE,,,,,,,,,,,,,,,,,,,,,,,,,,,,,,
,607b6943b02ad525b94b458b,001,2022-04-29_02h10.26.876,classification_task,2021.2.3,Win32,143.472023,607b6943b02ad525b94b458b,626b377229c10585ec392f89,626b394432a306a23d9b7ee8,,,,,,,,,,,,,,,,,,,,,,,a,1,0.7381,"[""0.046"",""0.533"",""0.745"",""0.875""]","[0,1,1,1]",0,20,20,20,1,0,0,,,0,FALSE,,,,,,,,,,,,,,,,,,,,,,,,,,,,,,
,607b6943b02ad525b94b458b,001,2022-04-29_02h10.26.876,classification_task,2021.2.3,Win32,143.472023,607b6943b02ad525b94b458b,626b377229c10585ec392f89,626b394432a306a23d9b7ee8,,,,,,,,,,,,,,,,,,,,,,,l,1,1.5866,"[""0.134"",""0.255"",""0.059"",""0.826""]","[1,1,0,1]",0,21,21,21,1,1,1,,,0,FALSE,,,,,,,,,,,,,,,,,,,,,,,,,,,,,,
,607b6943b02ad525b94b458b,001,2022-04-29_02h10.26.876,classification_task,2021.2.3,Win32,143.472023,607b6943b02ad525b94b458b,626b377229c10585ec392f89,626b394432a306a23d9b7ee8,,,,,,,,,,,,,,,,,,,,,,,l,0,6.5132,"[""0.168"",""0.365"",""0.911"",""0.964""]","[1,1,0,1]",0,22,22,22,1,0,1,,,0,FALSE,,,,,,,,,,,,,,,,,,,,,,,,,,,,,,
,607b6943b02ad525b94b458b,001,2022-04-29_02h10.26.876,classification_task,2021.2.3,Win32,143.472023,607b6943b02ad525b94b458b,626b377229c10585ec392f89,626b394432a306a23d9b7ee8,,,,,,,,,,,,,,,,,,,,,,,l,1,1.1316,"[""0.098"",""0.294"",""0.630"",""0.785""]","[1,1,0,1]",0,23,23,23,1,1,0,,,0,FALSE,,,,,,,,,,,,,,,,,,,,,,,,,,,,,,
,607b6943b02ad525b94b458b,001,2022-04-29_02h10.26.876,classification_task,2021.2.3,Win32,143.472023,607b6943b02ad525b94b458b,626b377229c10585ec392f89,626b394432a306a23d9b7ee8,,,,,,,,,,,,,,,,,,,,,,,a,1,2.6733,"[""0.202"",""0.533"",""0.745"",""0.571""]","[1,1,1,0]",0,24,24,24,1,0,0,,,0,FALSE,,,,,,,,,,,,,,,,,,,,,,,,,,,,,,
,607b6943b02ad525b94b458b,001,2022-04-29_02h10.26.876,classification_task,2021.2.3,Win32,143.472023,607b6943b02ad525b94b458b,626b377229c10585ec392f89,626b394432a306a23d9b7ee8,,,,,,,,,,,,,,,,,,,,,,,l,1,1.5498,"[""0.098"",""0.567"",""0.668"",""0.785""]","[1,0,1,1]",0,25,25,25,1,1,0,,,0,FALSE,,,,,,,,,,,,,,,,,,,,,,,,,,,,,,
,607b6943b02ad525b94b458b,001,2022-04-29_02h10.26.876,classification_task,2021.2.3,Win32,143.472023,607b6943b02ad525b94b458b,626b377229c10585ec392f89,626b394432a306a23d9b7ee8,,,,,,,,,,,,,,,,,,,,,,,a,1,0.816,"[""0.202"",""0.046"",""0.745"",""0.875""]","[1,0,1,1]",0,26,26,26,1,0,0,,,0,FALSE,,,,,,,,,,,,,,,,,,,,,,,,,,,,,,
,607b6943b02ad525b94b458b,001,2022-04-29_02h10.26.876,classification_task,2021.2.3,Win32,143.472023,607b6943b02ad525b94b458b,626b377229c10585ec392f89,626b394432a306a23d9b7ee8,,,,,,,,,,,,,,,,,,,,,,,a,0,1.4241,"[""0.134"",""0.051"",""0.444"",""0.826""]","[1,0,1,1]",0,27,27,27,1,1,1,,,0,FALSE,,,,,,,,,,,,,,,,,,,,,,,,,,,,,,
,607b6943b02ad525b94b458b,001,2022-04-29_02h10.26.876,classification_task,2021.2.3,Win32,143.472023,607b6943b02ad525b94b458b,626b377229c10585ec392f89,626b394432a306a23d9b7ee8,,,,,,,,,,,,,,,,,,,,,,,l,1,0.8683,"[""0.051"",""0.255"",""0.444"",""0.826""]","[0,1,1,1]",0,28,28,28,1,1,1,,,0,FALSE,,,,,,,,,,,,,,,,,,,,,,,,,,,,,,
,607b6943b02ad525b94b458b,001,2022-04-29_02h10.26.876,classification_task,2021.2.3,Win32,143.472023,607b6943b02ad525b94b458b,626b377229c10585ec392f89,626b394432a306a23d9b7ee8,,,,,,,,,,,,,,,,,,,,,,,l,0,1.8771,"[""0.168"",""0.584"",""0.709"",""0.964""]","[1,0,1,1]",0,29,29,29,1,0,1,,,0,FALSE,,,,,,,,,,,,,,,,,,,,,,,,,,,,,,
,607b6943b02ad525b94b458b,001,2022-04-29_02h10.26.876,classification_task,2021.2.3,Win32,143.472023,607b6943b02ad525b94b458b,626b377229c10585ec392f89,626b394432a306a23d9b7ee8,,,,,,,,,,,,,,,,,,,,,,,l,0,2.6442,"[""0.567"",""0.365"",""0.709"",""0.964""]","[0,1,1,1]",0,30,30,30,1,0,1,,,0,FALSE,,,,,,,,,,,,,,,,,,,,,,,,,,,,,,
,607b6943b02ad525b94b458b,001,2022-04-29_02h10.26.876,classification_task,2021.2.3,Win32,143.472023,607b6943b02ad525b94b458b,626b377229c10585ec392f89,626b394432a306a23d9b7ee8,,,,,,,,,,,,,,,,,,,,,,,a,0,5.1525,"[""0.134"",""0.255"",""0.444"",""0.619""]","[1,1,1,0]",0,31,31,31,1,1,1,,,0,FALSE,,,,,,,,,,,,,,,,,,,,,,,,,,,,,,
,607b6943b02ad525b94b458b,001,2022-04-29_02h10.26.876,classification_task,2021.2.3,Win32,143.472023,607b6943b02ad525b94b458b,626b377229c10585ec392f89,626b394432a306a23d9b7ee8,,,,,,,,,,,,,,,,,,,,,,,a,1,2.1336,"[""0.202"",""0.567"",""0.745"",""0.875""]","[1,0,1,1]",0,32,32,32,1,0,0,,,0,FALSE,,,,,,,,,,,,,,,,,,,,,,,,,,,,,,
,607b6943b02ad525b94b458b,001,2022-04-29_02h10.26.876,classification_task,2021.2.3,Win32,143.472023,607b6943b02ad525b94b458b,626b377229c10585ec392f89,626b394432a306a23d9b7ee8,,,,,,,,,,,,,,,,,,,,,,,a,0,1.4214,"[""0.134"",""0.922"",""0.444"",""0.826""]","[1,0,1,1]",0,33,33,33,1,1,1,,,0,FALSE,,,,,,,,,,,,,,,,,,,,,,,,,,,,,,
,607b6943b02ad525b94b458b,001,2022-04-29_02h10.26.876,classification_task,2021.2.3,Win32,143.472023,607b6943b02ad525b94b458b,626b377229c10585ec392f89,626b394432a306a23d9b7ee8,,,,,,,,,,,,,,,,,,,,,,,a,1,0.9694,"[""0.202"",""0.533"",""0.571"",""0.875""]","[1,1,0,1]",0,34,34,34,1,0,0,,,0,FALSE,,,,,,,,,,,,,,,,,,,,,,,,,,,,,,
,607b6943b02ad525b94b458b,001,2022-04-29_02h10.26.876,classification_task,2021.2.3,Win32,143.472023,607b6943b02ad525b94b458b,626b377229c10585ec392f89,626b394432a306a23d9b7ee8,,,,,,,,,,,,,,,,,,,,,,,l,1,0.6596,"[""0.619"",""0.294"",""0.668"",""0.785""]","[0,1,1,1]",0,35,35,35,1,1,0,,,0,FALSE,,,,,,,,,,,,,,,,,,,,,,,,,,,,,,
,607b6943b02ad525b94b458b,001,2022-04-29_02h10.26.876,classification_task,2021.2.3,Win32,143.472023,607b6943b02ad525b94b458b,626b377229c10585ec392f89,626b394432a306a23d9b7ee8,,,,,,,,,,,,,,,,,,,,,,,l,0,1.2729,"[""0.168"",""0.365"",""0.709"",""0.614""]","[1,1,1,0]",0,36,36,36,1,0,1,,,0,FALSE,,,,,,,,,,,,,,,,,,,,,,,,,,,,,,
,607b6943b02ad525b94b458b,001,2022-04-29_02h10.26.876,classification_task,2021.2.3,Win32,143.472023,607b6943b02ad525b94b458b,626b377229c10585ec392f89,626b394432a306a23d9b7ee8,,,,,,,,,,,,,,,,,,,,,,,a,1,1.1427,"[""0.331"",""0.533"",""0.745"",""0.875""]","[0,1,1,1]",0,37,37,37,1,0,0,,,0,FALSE,,,,,,,,,,,,,,,,,,,,,,,,,,,,,,
,607b6943b02ad525b94b458b,001,2022-04-29_02h10.26.876,classification_task,2021.2.3,Win32,143.472023,607b6943b02ad525b94b458b,626b377229c10585ec392f89,626b394432a306a23d9b7ee8,,,,,,,,,,,,,,,,,,,,,,,a,1,1.2912,"[""0.202"",""0.533"",""0.745"",""0.577""]","[1,1,1,0]",0,38,38,38,1,0,0,,,0,FALSE,,,,,,,,,,,,,,,,,,,,,,,,,,,,,,
,607b6943b02ad525b94b458b,001,2022-04-29_02h10.26.876,classification_task,2021.2.3,Win32,143.472023,607b6943b02ad525b94b458b,626b377229c10585ec392f89,626b394432a306a23d9b7ee8,,,,,,,,,,,,,,,,,,,,,,,a,0,1.6346,"[""0.577"",""0.255"",""0.444"",""0.826""]","[0,1,1,1]",0,39,39,39,1,1,1,,,0,FALSE,,,,,,,,,,,,,,,,,,,,,,,,,,,,,,
,607b6943b02ad525b94b458b,001,2022-04-29_02h10.26.876,classification_task,2021.2.3,Win32,143.472023,607b6943b02ad525b94b458b,626b377229c10585ec392f89,626b394432a306a23d9b7ee8,,,,,,,,,,,,,,,,,,,,,,,a,1,1.5198,"[""0.614"",""0.365"",""0.709"",""0.964""]","[0,1,1,1]",0,40,40,40,1,0,1,,,0,FALSE,,,,,,,,,,,,,,,,,,,,,,,,,,,,,,
,607b6943b02ad525b94b458b,001,2022-04-29_02h10.26.876,classification_task,2021.2.3,Win32,143.472023,607b6943b02ad525b94b458b,626b377229c10585ec392f89,626b394432a306a23d9b7ee8,,,,,,,,,,,,,,,,,,,,,,,l,0,4.5961,"[""0.168"",""0.482"",""0.709"",""0.964""]","[1,0,1,1]",0,41,41,41,1,0,1,,,0,FALSE,,,,,,,,,,,,,,,,,,,,,,,,,,,,,,
,607b6943b02ad525b94b458b,001,2022-04-29_02h10.26.876,classification_task,2021.2.3,Win32,143.472023,607b6943b02ad525b94b458b,626b377229c10585ec392f89,626b394432a306a23d9b7ee8,,,,,,,,,,,,,,,,,,,,,,,l,1,0.8486,"[""0.098"",""0.294"",""0.922"",""0.785""]","[1,1,0,1]",0,42,42,42,1,1,0,,,0,FALSE,,,,,,,,,,,,,,,,,,,,,,,,,,,,,,
,607b6943b02ad525b94b458b,001,2022-04-29_02h10.26.876,classification_task,2021.2.3,Win32,143.472023,607b6943b02ad525b94b458b,626b377229c10585ec392f89,626b394432a306a23d9b7ee8,,,,,,,,,,,,,,,,,,,,,,,l,1,1.0645,"[""0.098"",""0.482"",""0.668"",""0.785""]","[1,0,1,1]",0,43,43,43,1,1,0,,,0,FALSE,,,,,,,,,,,,,,,,,,,,,,,,,,,,,,
,607b6943b02ad525b94b458b,001,2022-04-29_02h10.26.876,classification_task,2021.2.3,Win32,143.472023,607b6943b02ad525b94b458b,626b377229c10585ec392f89,626b394432a306a23d9b7ee8,,,,,,,,,,,,,,,,,,,,,,,a,0,1.2804,"[""0.134"",""0.255"",""0.444"",""0.614""]","[1,1,1,0]",0,44,44,44,1,1,1,,,0,FALSE,,,,,,,,,,,,,,,,,,,,,,,,,,,,,,
,607b6943b02ad525b94b458b,001,2022-04-29_02h10.26.876,classification_task,2021.2.3,Win32,143.472023,607b6943b02ad525b94b458b,626b377229c10585ec392f89,626b394432a306a23d9b7ee8,,,,,,,,,,,,,,,,,,,,,,,a,1,0.9756,"[""0.168"",""0.365"",""0.584"",""0.964""]","[1,1,0,1]",0,45,45,45,1,0,1,,,0,FALSE,,,,,,,,,,,,,,,,,,,,,,,,,,,,,,
,607b6943b02ad525b94b458b,001,2022-04-29_02h10.26.876,classification_task,2021.2.3,Win32,143.472023,607b6943b02ad525b94b458b,626b377229c10585ec392f89,626b394432a306a23d9b7ee8,,,,,,,,,,,,,,,,,,,,,,,l,1,2.4448,"[""0.134"",""0.255"",""0.331"",""0.826""]","[1,1,0,1]",0,46,46,46,1,1,1,,,0,FALSE,,,,,,,,,,,,,,,,,,,,,,,,,,,,,,
,607b6943b02ad525b94b458b,001,2022-04-29_02h10.26.876,classification_task,2021.2.3,Win32,143.472023,607b6943b02ad525b94b458b,626b377229c10585ec392f89,626b394432a306a23d9b7ee8,,,,,,,,,,,,,,,,,,,,,,,l,1,0.8367,"[""0.098"",""0.294"",""0.668"",""0.922""]","[1,1,1,0]",0,47,47,47,1,1,0,,,0,FALSE,,,,,,,,,,,,,,,,,,,,,,,,,,,,,,
,607b6943b02ad525b94b458b,001,2022-04-29_02h10.26.876,classification_task,2021.2.3,Win32,143.472023,607b6943b02ad525b94b458b,626b377229c10585ec392f89,626b394432a306a23d9b7ee8,,,,,,,,,,,,,,,,,,,,,,,l,1,1.0815,"[""0.134"",""0.255"",""0.614"",""0.826""]","[1,1,0,1]",0,48,48,48,1,1,1,,,0,FALSE,,,,,,,,,,,,,,,,,,,,,,,,,,,,,,
,607b6943b02ad525b94b458b,001,2022-04-29_02h10.26.876,classification_task,2021.2.3,Win32,143.472023,607b6943b02ad525b94b458b,626b377229c10585ec392f89,626b394432a306a23d9b7ee8,,,,,,,,,,,,,,,,,,,,,,,l,1,0.9923,"[""0.331"",""0.255"",""0.444"",""0.826""]","[0,1,1,1]",0,49,49,49,1,1,1,,,0,FALSE,,,,,,,,,,,,,,,,,,,,,,,,,,,,,,
,607b6943b02ad525b94b458b,001,2022-04-29_02h10.26.876,classification_task,2021.2.3,Win32,143.472023,607b6943b02ad525b94b458b,626b377229c10585ec392f89,626b394432a306a23d9b7ee8,,,,,,,,,,,,,,,,,,,,,,,a,1,1.6952,"[""0.046"",""0.365"",""0.709"",""0.964""]","[0,1,1,1]",0,50,50,50,1,0,1,,,0,FALSE,,,,,,,,,,,,,,,,,,,,,,,,,,,,,,
,607b6943b02ad525b94b458b,001,2022-04-29_02h10.26.876,classification_task,2021.2.3,Win32,143.472023,607b6943b02ad525b94b458b,626b377229c10585ec392f89,626b394432a306a23d9b7ee8,,,,,,,,,,,,,,,,,,,,,,,a,1,2.0167,"[""0.911"",""0.533"",""0.745"",""0.875""]","[0,1,1,1]",0,51,51,51,1,0,0,,,0,FALSE,,,,,,,,,,,,,,,,,,,,,,,,,,,,,,
,607b6943b02ad525b94b458b,001,2022-04-29_02h10.26.876,classification_task,2021.2.3,Win32,143.472023,607b6943b02ad525b94b458b,626b377229c10585ec392f89,626b394432a306a23d9b7ee8,,,,,,,,,,,,,,,,,,,,,,,l,1,1.0484,"[""0.098"",""0.294"",""0.922"",""0.785""]","[1,1,0,1]",0,52,52,52,1,1,0,,,0,FALSE,,,,,,,,,,,,,,,,,,,,,,,,,,,,,,
,607b6943b02ad525b94b458b,001,2022-04-29_02h10.26.876,classification_task,2021.2.3,Win32,143.472023,607b6943b02ad525b94b458b,626b377229c10585ec392f89,626b394432a306a23d9b7ee8,,,,,,,,,,,,,,,,,,,,,,,a,1,2.0647,"[""0.202"",""0.533"",""0.482"",""0.875""]","[1,1,0,1]",0,53,53,53,1,0,0,,,0,FALSE,,,,,,,,,,,,,,,,,,,,,,,,,,,,,,
,607b6943b02ad525b94b458b,001,2022-04-29_02h10.26.876,classification_task,2021.2.3,Win32,143.472023,607b6943b02ad525b94b458b,626b377229c10585ec392f89,626b394432a306a23d9b7ee8,,,,,,,,,,,,,,,,,,,,,,,a,1,1.3369,"[""0.202"",""0.533"",""0.745"",""0.619""]","[1,1,1,0]",0,54,54,54,1,0,0,,,0,FALSE,,,,,,,,,,,,,,,,,,,,,,,,,,,,,,
,607b6943b02ad525b94b458b,001,2022-04-29_02h10.26.876,classification_task,2021.2.3,Win32,143.472023,607b6943b02ad525b94b458b,626b377229c10585ec392f89,626b394432a306a23d9b7ee8,,,,,,,,,,,,,,,,,,,,,,,l,0,2.47,"[""0.168"",""0.911"",""0.709"",""0.964""]","[1,0,1,1]",0,55,55,55,1,0,1,,,0,FALSE,,,,,,,,,,,,,,,,,,,,,,,,,,,,,,
,607b6943b02ad525b94b458b,001,2022-04-29_02h10.26.876,classification_task,2021.2.3,Win32,143.472023,607b6943b02ad525b94b458b,626b377229c10585ec392f89,626b394432a306a23d9b7ee8,,,,,,,,,,,,,,,,,,,,,,,a,0,2.253,"[""0.134"",""0.255"",""0.444"",""0.922""]","[1,1,1,0]",0,56,56,56,1,1,1,,,0,FALSE,,,,,,,,,,,,,,,,,,,,,,,,,,,,,,
,607b6943b02ad525b94b458b,001,2022-04-29_02h10.26.876,classification_task,2021.2.3,Win32,143.472023,607b6943b02ad525b94b458b,626b377229c10585ec392f89,626b394432a306a23d9b7ee8,,,,,,,,,,,,,,,,,,,,,,,a,1,0.9796,"[""0.168"",""0.365"",""0.709"",""0.619""]","[1,1,1,0]",0,57,57,57,1,0,1,,,0,FALSE,,,,,,,,,,,,,,,,,,,,,,,,,,,,,,
,607b6943b02ad525b94b458b,001,2022-04-29_02h10.26.876,classification_task,2021.2.3,Win32,143.472023,607b6943b02ad525b94b458b,626b377229c10585ec392f89,626b394432a306a23d9b7ee8,,,,,,,,,,,,,,,,,,,,,,,a,1,1.5418,"[""0.202"",""0.922"",""0.745"",""0.875""]","[1,0,1,1]",0,58,58,58,1,0,0,,,0,FALSE,,,,,,,,,,,,,,,,,,,,,,,,,,,,,,
,607b6943b02ad525b94b458b,001,2022-04-29_02h10.26.876,classification_task,2021.2.3,Win32,143.472023,607b6943b02ad525b94b458b,626b377229c10585ec392f89,626b394432a306a23d9b7ee8,,,,,,,,,,,,,,,,,,,,,,,l,1,1.1531,"[""0.584"",""0.294"",""0.668"",""0.785""]","[0,1,1,1]",0,59,59,59,1,1,0,,,0,FALSE,,,,,,,,,,,,,,,,,,,,,,,,,,,,,,
,607b6943b02ad525b94b458b,001,2022-04-29_02h10.26.876,classification_task,2021.2.3,Win32,143.472023,607b6943b02ad525b94b458b,626b377229c10585ec392f89,626b394432a306a23d9b7ee8,,,,,,,,,,,,,,,,,,,,,,,a,0,2.0195,"[""0.134"",""0.571"",""0.444"",""0.826""]","[1,0,1,1]",0,60,60,60,1,1,1,,,0,FALSE,,,,,,,,,,,,,,,,,,,,,,,,,,,,,,
,607b6943b02ad525b94b458b,001,2022-04-29_02h10.26.876,classification_task,2021.2.3,Win32,143.472023,607b6943b02ad525b94b458b,626b377229c10585ec392f89,626b394432a306a23d9b7ee8,,,,,,,,,,,,,,,,,,,,,,,l,1,1.2381,"[""0.098"",""0.294"",""0.668"",""0.630""]","[1,1,1,0]",0,61,61,61,1,1,0,,,0,FALSE,,,,,,,,,,,,,,,,,,,,,,,,,,,,,,
,607b6943b02ad525b94b458b,001,2022-04-29_02h10.26.876,classification_task,2021.2.3,Win32,143.472023,607b6943b02ad525b94b458b,626b377229c10585ec392f89,626b394432a306a23d9b7ee8,,,,,,,,,,,,,,,,,,,,,,,l,1,0.8886,"[""0.098"",""0.571"",""0.668"",""0.785""]","[1,0,1,1]",0,62,62,62,1,1,0,,,0,FALSE,,,,,,,,,,,,,,,,,,,,,,,,,,,,,,
,607b6943b02ad525b94b458b,001,2022-04-29_02h10.26.876,classification_task,2021.2.3,Win32,143.472023,607b6943b02ad525b94b458b,626b377229c10585ec392f89,626b394432a306a23d9b7ee8,,,,,,,,,,,,,,,,,,,,,,,l,0,1.1227,"[""0.168"",""0.365"",""0.046"",""0.964""]","[1,1,0,1]",0,63,63,63,1,0,1,,,0,FALSE,,,,,,,,,,,,,,,,,,,,,,,,,,,,,,
,607b6943b02ad525b94b458b,001,2022-04-29_02h10.26.876,classification_task,2021.2.3,Win32,143.472023,607b6943b02ad525b94b458b,626b377229c10585ec392f89,626b394432a306a23d9b7ee8,,,,,,,,,,,,,,,,,,,,,,,,,,,,,,,,,,,,,,,0, ,,0,2.599452051,210.6364,0,1,1,1,1,2,2,,,,,,,,,,,,,,,,,
,607b6943b02ad525b94b458b,001,2022-04-29_02h10.26.876,classification_task,2021.2.3,Win32,143.472023,607b6943b02ad525b94b458b,626b377229c10585ec392f89,626b394432a306a23d9b7ee8,,,,,,,,,,,,,,,,,,,,,,,,,,,,,,,,,,,,,,,1,  ,,0,2.844406747,215.8426,0,1,1,1,1,2,2,,,,,,,,,,,,,,,,,
,607b6943b02ad525b94b458b,001,2022-04-29_02h10.26.876,classification_task,2021.2.3,Win32,143.472023,607b6943b02ad525b94b458b,626b377229c10585ec392f89,626b394432a306a23d9b7ee8,,,,,,,,,,,,,,,,,,,,,,,,,,,,,,,,,,,,,,,2,  ,,0,1.080738317,220.3561,0,1,1,1,1,2,2,,,,,,,,,,,,,,,,,
,607b6943b02ad525b94b458b,001,2022-04-29_02h10.26.876,classification_task,2021.2.3,Win32,143.472023,607b6943b02ad525b94b458b,626b377229c10585ec392f89,626b394432a306a23d9b7ee8,,,,,,,,,,,,,,,,,,,,,,,,,,,,,,,,,,,,,,,,,,,,,0,1,1,1,1,,2,,,,,,,,,,,,,,,,,
,607b6943b02ad525b94b458b,001,2022-04-29_02h10.26.876,classification_task,2021.2.3,Win32,143.472023,607b6943b02ad525b94b458b,626b377229c10585ec392f89,626b394432a306a23d9b7ee8,,,,,,,,,,,,,,,,,,,,,space,5.8654,l,0,1.761,"[""0.571"",""0.365"",""0.709"",""0.964""]","[0,1,1,1]",0,0,0,0,1,0,1,,,0,FALSE,,,,,,,,,,,,,,,,,,,,,,,,,,,,,,
,607b6943b02ad525b94b458b,001,2022-04-29_02h10.26.876,classification_task,2021.2.3,Win32,143.472023,607b6943b02ad525b94b458b,626b377229c10585ec392f89,626b394432a306a23d9b7ee8,,,,,,,,,,,,,,,,,,,,,,,a,1,4.9307,"[""0.168"",""0.365"",""0.709"",""0.046""]","[1,1,1,0]",0,1,1,1,1,0,1,,,0,FALSE,,,,,,,,,,,,,,,,,,,,,,,,,,,,,,
,607b6943b02ad525b94b458b,001,2022-04-29_02h10.26.876,classification_task,2021.2.3,Win32,143.472023,607b6943b02ad525b94b458b,626b377229c10585ec392f89,626b394432a306a23d9b7ee8,,,,,,,,,,,,,,,,,,,,,,,a,1,1.8674,"[""0.168"",""0.365"",""0.922"",""0.964""]","[1,1,0,1]",0,2,2,2,1,0,1,,,0,FALSE,,,,,,,,,,,,,,,,,,,,,,,,,,,,,,
,607b6943b02ad525b94b458b,001,2022-04-29_02h10.26.876,classification_task,2021.2.3,Win32,143.472023,607b6943b02ad525b94b458b,626b377229c10585ec392f89,626b394432a306a23d9b7ee8,,,,,,,,,,,,,,,,,,,,,,,a,1,2.614,"[""0.202"",""0.533"",""0.745"",""0.051""]","[1,1,1,0]",0,3,3,3,1,0,0,,,0,FALSE,,,,,,,,,,,,,,,,,,,,,,,,,,,,,,
,607b6943b02ad525b94b458b,001,2022-04-29_02h10.26.876,classification_task,2021.2.3,Win32,143.472023,607b6943b02ad525b94b458b,626b377229c10585ec392f89,626b394432a306a23d9b7ee8,,,,,,,,,,,,,,,,,,,,,,,l,0,2.1982,"[""0.588"",""0.533"",""0.745"",""0.875""]","[0,1,1,1]",0,4,4,4,1,0,0,,,0,FALSE,,,,,,,,,,,,,,,,,,,,,,,,,,,,,,
,607b6943b02ad525b94b458b,001,2022-04-29_02h10.26.876,classification_task,2021.2.3,Win32,143.472023,607b6943b02ad525b94b458b,626b377229c10585ec392f89,626b394432a306a23d9b7ee8,,,,,,,,,,,,,,,,,,,,,,,l,1,1.0449,"[""0.134"",""0.255"",""0.444"",""0.567""]","[1,1,1,0]",0,5,5,5,1,1,1,,,0,FALSE,,,,,,,,,,,,,,,,,,,,,,,,,,,,,,
,607b6943b02ad525b94b458b,001,2022-04-29_02h10.26.876,classification_task,2021.2.3,Win32,143.472023,607b6943b02ad525b94b458b,626b377229c10585ec392f89,626b394432a306a23d9b7ee8,,,,,,,,,,,,,,,,,,,,,,,a,0,3.1254,"[""0.098"",""0.294"",""0.614"",""0.785""]","[1,1,0,1]",0,6,6,6,1,1,0,,,0,FALSE,,,,,,,,,,,,,,,,,,,,,,,,,,,,,,
,607b6943b02ad525b94b458b,001,2022-04-29_02h10.26.876,classification_task,2021.2.3,Win32,143.472023,607b6943b02ad525b94b458b,626b377229c10585ec392f89,626b394432a306a23d9b7ee8,,,,,,,,,,,,,,,,,,,,,,,l,1,1.8021,"[""0.134"",""0.255"",""0.922"",""0.826""]","[1,1,0,1]",0,7,7,7,1,1,1,,,0,FALSE,,,,,,,,,,,,,,,,,,,,,,,,,,,,,,
,607b6943b02ad525b94b458b,001,2022-04-29_02h10.26.876,classification_task,2021.2.3,Win32,143.472023,607b6943b02ad525b94b458b,626b377229c10585ec392f89,626b394432a306a23d9b7ee8,,,,,,,,,,,,,,,,,,,,,,,a,0,2.3543,"[""0.482"",""0.255"",""0.444"",""0.826""]","[0,1,1,1]",0,8,8,8,1,1,1,,,0,FALSE,,,,,,,,,,,,,,,,,,,,,,,,,,,,,,
,607b6943b02ad525b94b458b,001,2022-04-29_02h10.26.876,classification_task,2021.2.3,Win32,143.472023,607b6943b02ad525b94b458b,626b377229c10585ec392f89,626b394432a306a23d9b7ee8,,,,,,,,,,,,,,,,,,,,,,,a,1,1.92,"[""0.202"",""0.567"",""0.745"",""0.875""]","[1,0,1,1]",0,9,9,9,1,0,0,,,0,FALSE,,,,,,,,,,,,,,,,,,,,,,,,,,,,,,
,607b6943b02ad525b94b458b,001,2022-04-29_02h10.26.876,classification_task,2021.2.3,Win32,143.472023,607b6943b02ad525b94b458b,626b377229c10585ec392f89,626b394432a306a23d9b7ee8,,,,,,,,,,,,,,,,,,,,,,,l,0,1.7987,"[""0.202"",""0.533"",""0.630"",""0.875""]","[1,1,0,1]",0,10,10,10,1,0,0,,,0,FALSE,,,,,,,,,,,,,,,,,,,,,,,,,,,,,,
,607b6943b02ad525b94b458b,001,2022-04-29_02h10.26.876,classification_task,2021.2.3,Win32,143.472023,607b6943b02ad525b94b458b,626b377229c10585ec392f89,626b394432a306a23d9b7ee8,,,,,,,,,,,,,,,,,,,,,,,l,1,1.835,"[""0.098"",""0.294"",""0.668"",""0.571""]","[1,1,1,0]",0,11,11,11,1,1,0,,,0,FALSE,,,,,,,,,,,,,,,,,,,,,,,,,,,,,,
,607b6943b02ad525b94b458b,001,2022-04-29_02h10.26.876,classification_task,2021.2.3,Win32,143.472023,607b6943b02ad525b94b458b,626b377229c10585ec392f89,626b394432a306a23d9b7ee8,,,,,,,,,,,,,,,,,,,,,,,a,0,1.0981,"[""0.134"",""0.630"",""0.444"",""0.826""]","[1,0,1,1]",0,12,12,12,1,1,1,,,0,FALSE,,,,,,,,,,,,,,,,,,,,,,,,,,,,,,
,607b6943b02ad525b94b458b,001,2022-04-29_02h10.26.876,classification_task,2021.2.3,Win32,143.472023,607b6943b02ad525b94b458b,626b377229c10585ec392f89,626b394432a306a23d9b7ee8,,,,,,,,,,,,,,,,,,,,,,,l,1,2.3629,"[""0.922"",""0.294"",""0.668"",""0.785""]","[0,1,1,1]",0,13,13,13,1,1,0,,,0,FALSE,,,,,,,,,,,,,,,,,,,,,,,,,,,,,,
,607b6943b02ad525b94b458b,001,2022-04-29_02h10.26.876,classification_task,2021.2.3,Win32,143.472023,607b6943b02ad525b94b458b,626b377229c10585ec392f89,626b394432a306a23d9b7ee8,,,,,,,,,,,,,,,,,,,,,,,a,0,2.0066,"[""0.098"",""0.567"",""0.668"",""0.785""]","[1,0,1,1]",0,14,14,14,1,1,0,,,0,FALSE,,,,,,,,,,,,,,,,,,,,,,,,,,,,,,
,607b6943b02ad525b94b458b,001,2022-04-29_02h10.26.876,classification_task,2021.2.3,Win32,143.472023,607b6943b02ad525b94b458b,626b377229c10585ec392f89,626b394432a306a23d9b7ee8,,,,,,,,,,,,,,,,,,,,,,,l,0,3.8989,"[""0.168"",""0.567"",""0.709"",""0.964""]","[1,0,1,1]",0,15,15,15,1,0,1,,,0,FALSE,,,,,,,,,,,,,,,,,,,,,,,,,,,,,,
,607b6943b02ad525b94b458b,001,2022-04-29_02h10.26.876,classification_task,2021.2.3,Win32,143.472023,607b6943b02ad525b94b458b,626b377229c10585ec392f89,626b394432a306a23d9b7ee8,,,,,,,,,,,,,,,,,,,,,,,a,0,2.0406,"[""0.134"",""0.255"",""0.567"",""0.826""]","[1,1,0,1]",0,16,16,16,1,1,1,,,0,FALSE,,,,,,,,,,,,,,,,,,,,,,,,,,,,,,
,607b6943b02ad525b94b458b,001,2022-04-29_02h10.26.876,classification_task,2021.2.3,Win32,143.472023,607b6943b02ad525b94b458b,626b377229c10585ec392f89,626b394432a306a23d9b7ee8,,,,,,,,,,,,,,,,,,,,,,,a,1,4.5566,"[""0.202"",""0.619"",""0.745"",""0.875""]","[1,0,1,1]",0,17,17,17,1,0,0,,,0,FALSE,,,,,,,,,,,,,,,,,,,,,,,,,,,,,,
,607b6943b02ad525b94b458b,001,2022-04-29_02h10.26.876,classification_task,2021.2.3,Win32,143.472023,607b6943b02ad525b94b458b,626b377229c10585ec392f89,626b394432a306a23d9b7ee8,,,,,,,,,,,,,,,,,,,,,,,l,1,1.6168,"[""0.046"",""0.255"",""0.444"",""0.826""]","[0,1,1,1]",0,18,18,18,1,1,1,,,0,FALSE,,,,,,,,,,,,,,,,,,,,,,,,,,,,,,
,607b6943b02ad525b94b458b,001,2022-04-29_02h10.26.876,classification_task,2021.2.3,Win32,143.472023,607b6943b02ad525b94b458b,626b377229c10585ec392f89,626b394432a306a23d9b7ee8,,,,,,,,,,,,,,,,,,,,,,,l,0,6.0695,"[""0.202"",""0.533"",""0.331"",""0.875""]","[1,1,0,1]",0,19,19,19,1,0,0,,,0,FALSE,,,,,,,,,,,,,,,,,,,,,,,,,,,,,,
,607b6943b02ad525b94b458b,001,2022-04-29_02h10.26.876,classification_task,2021.2.3,Win32,143.472023,607b6943b02ad525b94b458b,626b377229c10585ec392f89,626b394432a306a23d9b7ee8,,,,,,,,,,,,,,,,,,,,,,,l,0,1.3359,"[""0.168"",""0.365"",""0.709"",""0.046""]","[1,1,1,0]",0,20,20,20,1,0,1,,,0,FALSE,,,,,,,,,,,,,,,,,,,,,,,,,,,,,,
,607b6943b02ad525b94b458b,001,2022-04-29_02h10.26.876,classification_task,2021.2.3,Win32,143.472023,607b6943b02ad525b94b458b,626b377229c10585ec392f89,626b394432a306a23d9b7ee8,,,,,,,,,,,,,,,,,,,,,,,a,0,1.5908,"[""0.059"",""0.294"",""0.668"",""0.785""]","[0,1,1,1]",0,21,21,21,1,1,0,,,0,FALSE,,,,,,,,,,,,,,,,,,,,,,,,,,,,,,
,607b6943b02ad525b94b458b,001,2022-04-29_02h10.26.876,classification_task,2021.2.3,Win32,143.472023,607b6943b02ad525b94b458b,626b377229c10585ec392f89,626b394432a306a23d9b7ee8,,,,,,,,,,,,,,,,,,,,,,,a,1,3.2087,"[""0.168"",""0.482"",""0.709"",""0.964""]","[1,0,1,1]",0,22,22,22,1,0,1,,,0,FALSE,,,,,,,,,,,,,,,,,,,,,,,,,,,,,,
,607b6943b02ad525b94b458b,001,2022-04-29_02h10.26.876,classification_task,2021.2.3,Win32,143.472023,607b6943b02ad525b94b458b,626b377229c10585ec392f89,626b394432a306a23d9b7ee8,,,,,,,,,,,,,,,,,,,,,,,l,1,5.2278,"[""0.098"",""0.294"",""0.630"",""0.785""]","[1,1,0,1]",0,23,23,23,1,1,0,,,0,FALSE,,,,,,,,,,,,,,,,,,,,,,,,,,,,,,
,607b6943b02ad525b94b458b,001,2022-04-29_02h10.26.876,classification_task,2021.2.3,Win32,143.472023,607b6943b02ad525b94b458b,626b377229c10585ec392f89,626b394432a306a23d9b7ee8,,,,,,,,,,,,,,,,,,,,,,,a,1,2.6952,"[""0.046"",""0.365"",""0.709"",""0.964""]","[0,1,1,1]",0,24,24,24,1,0,1,,,0,FALSE,,,,,,,,,,,,,,,,,,,,,,,,,,,,,,
,607b6943b02ad525b94b458b,001,2022-04-29_02h10.26.876,classification_task,2021.2.3,Win32,143.472023,607b6943b02ad525b94b458b,626b377229c10585ec392f89,626b394432a306a23d9b7ee8,,,,,,,,,,,,,,,,,,,,,,,l,1,5.1863,"[""0.134"",""0.922"",""0.444"",""0.826""]","[1,0,1,1]",0,25,25,25,1,1,1,,,0,FALSE,,,,,,,,,,,,,,,,,,,,,,,,,,,,,,
,607b6943b02ad525b94b458b,001,2022-04-29_02h10.26.876,classification_task,2021.2.3,Win32,143.472023,607b6943b02ad525b94b458b,626b377229c10585ec392f89,626b394432a306a23d9b7ee8,,,,,,,,,,,,,,,,,,,,,,,l,1,6.4359,"[""0.098"",""0.294"",""0.668"",""0.584""]","[1,1,1,0]",0,26,26,26,1,1,0,,,0,FALSE,,,,,,,,,,,,,,,,,,,,,,,,,,,,,,
,607b6943b02ad525b94b458b,001,2022-04-29_02h10.26.876,classification_task,2021.2.3,Win32,143.472023,607b6943b02ad525b94b458b,626b377229c10585ec392f89,626b394432a306a23d9b7ee8,,,,,,,,,,,,,,,,,,,,,,,a,0,5.1266,"[""0.098"",""0.614"",""0.668"",""0.785""]","[1,0,1,1]",0,27,27,27,1,1,0,,,0,FALSE,,,,,,,,,,,,,,,,,,,,,,,,,,,,,,
,607b6943b02ad525b94b458b,001,2022-04-29_02h10.26.876,classification_task,2021.2.3,Win32,143.472023,607b6943b02ad525b94b458b,626b377229c10585ec392f89,626b394432a306a23d9b7ee8,,,,,,,,,,,,,,,,,,,,,,,l,0,2.5716,"[""0.619"",""0.533"",""0.745"",""0.875""]","[0,1,1,1]",0,28,28,28,1,0,0,,,0,FALSE,,,,,,,,,,,,,,,,,,,,,,,,,,,,,,
,607b6943b02ad525b94b458b,001,2022-04-29_02h10.26.876,classification_task,2021.2.3,Win32,143.472023,607b6943b02ad525b94b458b,626b377229c10585ec392f89,626b394432a306a23d9b7ee8,,,,,,,,,,,,,,,,,,,,,,,a,1,3.5795,"[""0.168"",""0.365"",""0.911"",""0.964""]","[1,1,0,1]",0,29,29,29,1,0,1,,,0,FALSE,,,,,,,,,,,,,,,,,,,,,,,,,,,,,,
,607b6943b02ad525b94b458b,001,2022-04-29_02h10.26.876,classification_task,2021.2.3,Win32,143.472023,607b6943b02ad525b94b458b,626b377229c10585ec392f89,626b394432a306a23d9b7ee8,,,,,,,,,,,,,,,,,,,,,,,l,1,2.6496,"[""0.134"",""0.255"",""0.444"",""0.567""]","[1,1,1,0]",0,30,30,30,1,1,1,,,0,FALSE,,,,,,,,,,,,,,,,,,,,,,,,,,,,,,
,607b6943b02ad525b94b458b,001,2022-04-29_02h10.26.876,classification_task,2021.2.3,Win32,143.472023,607b6943b02ad525b94b458b,626b377229c10585ec392f89,626b394432a306a23d9b7ee8,,,,,,,,,,,,,,,,,,,,,,,l,0,1.1533,"[""0.202"",""0.533"",""0.745"",""0.911""]","[1,1,1,0]",0,31,31,31,1,0,0,,,0,FALSE,,,,,,,,,,,,,,,,,,,,,,,,,,,,,,
,607b6943b02ad525b94b458b,001,2022-04-29_02h10.26.876,classification_task,2021.2.3,Win32,143.472023,607b6943b02ad525b94b458b,626b377229c10585ec392f89,626b394432a306a23d9b7ee8,,,,,,,,,,,,,,,,,,,,,,,a,0,2.3406,"[""0.134"",""0.255"",""0.444"",""0.619""]","[1,1,1,0]",0,32,32,32,1,1,1,,,0,FALSE,,,,,,,,,,,,,,,,,,,,,,,,,,,,,,
,607b6943b02ad525b94b458b,001,2022-04-29_02h10.26.876,classification_task,2021.2.3,Win32,143.472023,607b6943b02ad525b94b458b,626b377229c10585ec392f89,626b394432a306a23d9b7ee8,,,,,,,,,,,,,,,,,,,,,,,a,0,1.1621,"[""0.134"",""0.255"",""0.331"",""0.826""]","[1,1,0,1]",0,33,33,33,1,1,1,,,0,FALSE,,,,,,,,,,,,,,,,,,,,,,,,,,,,,,
,607b6943b02ad525b94b458b,001,2022-04-29_02h10.26.876,classification_task,2021.2.3,Win32,143.472023,607b6943b02ad525b94b458b,626b377229c10585ec392f89,626b394432a306a23d9b7ee8,,,,,,,,,,,,,,,,,,,,,,,l,0,0.9308,"[""0.168"",""0.365"",""0.482"",""0.964""]","[1,1,0,1]",0,34,34,34,1,0,1,,,0,FALSE,,,,,,,,,,,,,,,,,,,,,,,,,,,,,,
,607b6943b02ad525b94b458b,001,2022-04-29_02h10.26.876,classification_task,2021.2.3,Win32,143.472023,607b6943b02ad525b94b458b,626b377229c10585ec392f89,626b394432a306a23d9b7ee8,,,,,,,,,,,,,,,,,,,,,,,l,0,2.646,"[""0.168"",""0.365"",""0.709"",""0.567""]","[1,1,1,0]",0,35,35,35,1,0,1,,,0,FALSE,,,,,,,,,,,,,,,,,,,,,,,,,,,,,,
,607b6943b02ad525b94b458b,001,2022-04-29_02h10.26.876,classification_task,2021.2.3,Win32,143.472023,607b6943b02ad525b94b458b,626b377229c10585ec392f89,626b394432a306a23d9b7ee8,,,,,,,,,,,,,,,,,,,,,,,l,1,3.4827,"[""0.098"",""0.294"",""0.619"",""0.785""]","[1,1,0,1]",0,36,36,36,1,1,0,,,0,FALSE,,,,,,,,,,,,,,,,,,,,,,,,,,,,,,
,607b6943b02ad525b94b458b,001,2022-04-29_02h10.26.876,classification_task,2021.2.3,Win32,143.472023,607b6943b02ad525b94b458b,626b377229c10585ec392f89,626b394432a306a23d9b7ee8,,,,,,,,,,,,,,,,,,,,,,,a,0,1.1633,"[""0.134"",""0.482"",""0.444"",""0.826""]","[1,0,1,1]",0,37,37,37,1,1,1,,,0,FALSE,,,,,,,,,,,,,,,,,,,,,,,,,,,,,,
,607b6943b02ad525b94b458b,001,2022-04-29_02h10.26.876,classification_task,2021.2.3,Win32,143.472023,607b6943b02ad525b94b458b,626b377229c10585ec392f89,626b394432a306a23d9b7ee8,,,,,,,,,,,,,,,,,,,,,,,l,0,4.5835,"[""0.331"",""0.533"",""0.745"",""0.875""]","[0,1,1,1]",0,38,38,38,1,0,0,,,0,FALSE,,,,,,,,,,,,,,,,,,,,,,,,,,,,,,
,607b6943b02ad525b94b458b,001,2022-04-29_02h10.26.876,classification_task,2021.2.3,Win32,143.472023,607b6943b02ad525b94b458b,626b377229c10585ec392f89,626b394432a306a23d9b7ee8,,,,,,,,,,,,,,,,,,,,,,,l,0,1.9473,"[""0.202"",""0.533"",""0.911"",""0.875""]","[1,1,0,1]",0,39,39,39,1,0,0,,,0,FALSE,,,,,,,,,,,,,,,,,,,,,,,,,,,,,,
,607b6943b02ad525b94b458b,001,2022-04-29_02h10.26.876,classification_task,2021.2.3,Win32,143.472023,607b6943b02ad525b94b458b,626b377229c10585ec392f89,626b394432a306a23d9b7ee8,,,,,,,,,,,,,,,,,,,,,,,a,1,1.7247,"[""0.202"",""0.533"",""0.745"",""0.051""]","[1,1,1,0]",0,40,40,40,1,0,0,,,0,FALSE,,,,,,,,,,,,,,,,,,,,,,,,,,,,,,
,607b6943b02ad525b94b458b,001,2022-04-29_02h10.26.876,classification_task,2021.2.3,Win32,143.472023,607b6943b02ad525b94b458b,626b377229c10585ec392f89,626b394432a306a23d9b7ee8,,,,,,,,,,,,,,,,,,,,,,,l,0,2.4587,"[""0.168"",""0.911"",""0.709"",""0.964""]","[1,0,1,1]",0,41,41,41,1,0,1,,,0,FALSE,,,,,,,,,,,,,,,,,,,,,,,,,,,,,,
,607b6943b02ad525b94b458b,001,2022-04-29_02h10.26.876,classification_task,2021.2.3,Win32,143.472023,607b6943b02ad525b94b458b,626b377229c10585ec392f89,626b394432a306a23d9b7ee8,,,,,,,,,,,,,,,,,,,,,,,l,1,2.5246,"[""0.584"",""0.255"",""0.444"",""0.826""]","[0,1,1,1]",0,42,42,42,1,1,1,,,0,FALSE,,,,,,,,,,,,,,,,,,,,,,,,,,,,,,
,607b6943b02ad525b94b458b,001,2022-04-29_02h10.26.876,classification_task,2021.2.3,Win32,143.472023,607b6943b02ad525b94b458b,626b377229c10585ec392f89,626b394432a306a23d9b7ee8,,,,,,,,,,,,,,,,,,,,,,,l,1,2.7909,"[""0.331"",""0.294"",""0.668"",""0.785""]","[0,1,1,1]",0,43,43,43,1,1,0,,,0,FALSE,,,,,,,,,,,,,,,,,,,,,,,,,,,,,,
,607b6943b02ad525b94b458b,001,2022-04-29_02h10.26.876,classification_task,2021.2.3,Win32,143.472023,607b6943b02ad525b94b458b,626b377229c10585ec392f89,626b394432a306a23d9b7ee8,,,,,,,,,,,,,,,,,,,,,,,l,0,2.4463,"[""0.331"",""0.365"",""0.709"",""0.964""]","[0,1,1,1]",0,44,44,44,1,0,1,,,0,FALSE,,,,,,,,,,,,,,,,,,,,,,,,,,,,,,
,607b6943b02ad525b94b458b,001,2022-04-29_02h10.26.876,classification_task,2021.2.3,Win32,143.472023,607b6943b02ad525b94b458b,626b377229c10585ec392f89,626b394432a306a23d9b7ee8,,,,,,,,,,,,,,,,,,,,,,,a,1,0.8352,"[""0.202"",""0.046"",""0.745"",""0.875""]","[1,0,1,1]",0,45,45,45,1,0,0,,,0,FALSE,,,,,,,,,,,,,,,,,,,,,,,,,,,,,,
,607b6943b02ad525b94b458b,001,2022-04-29_02h10.26.876,classification_task,2021.2.3,Win32,143.472023,607b6943b02ad525b94b458b,626b377229c10585ec392f89,626b394432a306a23d9b7ee8,,,,,,,,,,,,,,,,,,,,,,,a,0,1.3836,"[""0.098"",""0.294"",""0.668"",""0.577""]","[1,1,1,0]",0,46,46,46,1,1,0,,,0,FALSE,,,,,,,,,,,,,,,,,,,,,,,,,,,,,,
,607b6943b02ad525b94b458b,001,2022-04-29_02h10.26.876,classification_task,2021.2.3,Win32,143.472023,607b6943b02ad525b94b458b,626b377229c10585ec392f89,626b394432a306a23d9b7ee8,,,,,,,,,,,,,,,,,,,,,,,a,0,1.2499,"[""0.098"",""0.482"",""0.668"",""0.785""]","[1,0,1,1]",0,47,47,47,1,1,0,,,0,FALSE,,,,,,,,,,,,,,,,,,,,,,,,,,,,,,
,607b6943b02ad525b94b458b,001,2022-04-29_02h10.26.876,classification_task,2021.2.3,Win32,143.472023,607b6943b02ad525b94b458b,626b377229c10585ec392f89,626b394432a306a23d9b7ee8,,,,,,,,,,,,,,,,,,,,,,,a,1,1.4468,"[""0.202"",""0.533"",""0.619"",""0.875""]","[1,1,0,1]",0,48,48,48,1,0,0,,,0,FALSE,,,,,,,,,,,,,,,,,,,,,,,,,,,,,,
,607b6943b02ad525b94b458b,001,2022-04-29_02h10.26.876,classification_task,2021.2.3,Win32,143.472023,607b6943b02ad525b94b458b,626b377229c10585ec392f89,626b394432a306a23d9b7ee8,,,,,,,,,,,,,,,,,,,,,,,l,0,1.7158,"[""0.567"",""0.533"",""0.745"",""0.875""]","[0,1,1,1]",0,49,49,49,1,0,0,,,0,FALSE,,,,,,,,,,,,,,,,,,,,,,,,,,,,,,
,607b6943b02ad525b94b458b,001,2022-04-29_02h10.26.876,classification_task,2021.2.3,Win32,143.472023,607b6943b02ad525b94b458b,626b377229c10585ec392f89,626b394432a306a23d9b7ee8,,,,,,,,,,,,,,,,,,,,,,,a,1,1.2498,"[""0.168"",""0.365"",""0.709"",""0.619""]","[1,1,1,0]",0,50,50,50,1,0,1,,,0,FALSE,,,,,,,,,,,,,,,,,,,,,,,,,,,,,,
,607b6943b02ad525b94b458b,001,2022-04-29_02h10.26.876,classification_task,2021.2.3,Win32,143.472023,607b6943b02ad525b94b458b,626b377229c10585ec392f89,626b394432a306a23d9b7ee8,,,,,,,,,,,,,,,,,,,,,,,l,0,1.1939,"[""0.202"",""0.533"",""0.745"",""0.922""]","[1,1,1,0]",0,51,51,51,1,0,0,,,0,FALSE,,,,,,,,,,,,,,,,,,,,,,,,,,,,,,
,607b6943b02ad525b94b458b,001,2022-04-29_02h10.26.876,classification_task,2021.2.3,Win32,143.472023,607b6943b02ad525b94b458b,626b377229c10585ec392f89,626b394432a306a23d9b7ee8,,,,,,,,,,,,,,,,,,,,,,,a,1,1.2983,"[""0.202"",""0.577"",""0.745"",""0.875""]","[1,0,1,1]",0,52,52,52,1,0,0,,,0,FALSE,,,,,,,,,,,,,,,,,,,,,,,,,,,,,,
,607b6943b02ad525b94b458b,001,2022-04-29_02h10.26.876,classification_task,2021.2.3,Win32,143.472023,607b6943b02ad525b94b458b,626b377229c10585ec392f89,626b394432a306a23d9b7ee8,,,,,,,,,,,,,,,,,,,,,,,a,0,1.8478,"[""0.134"",""0.255"",""0.619"",""0.826""]","[1,1,0,1]",0,53,53,53,1,1,1,,,0,FALSE,,,,,,,,,,,,,,,,,,,,,,,,,,,,,,
,607b6943b02ad525b94b458b,001,2022-04-29_02h10.26.876,classification_task,2021.2.3,Win32,143.472023,607b6943b02ad525b94b458b,626b377229c10585ec392f89,626b394432a306a23d9b7ee8,,,,,,,,,,,,,,,,,,,,,,,l,1,1.1993,"[""0.922"",""0.294"",""0.668"",""0.785""]","[0,1,1,1]",0,54,54,54,1,1,0,,,0,FALSE,,,,,,,,,,,,,,,,,,,,,,,,,,,,,,
,607b6943b02ad525b94b458b,001,2022-04-29_02h10.26.876,classification_task,2021.2.3,Win32,143.472023,607b6943b02ad525b94b458b,626b377229c10585ec392f89,626b394432a306a23d9b7ee8,,,,,,,,,,,,,,,,,,,,,,,a,1,3.971,"[""0.168"",""0.365"",""0.331"",""0.964""]","[1,1,0,1]",0,55,55,55,1,0,1,,,0,FALSE,,,,,,,,,,,,,,,,,,,,,,,,,,,,,,
,607b6943b02ad525b94b458b,001,2022-04-29_02h10.26.876,classification_task,2021.2.3,Win32,143.472023,607b6943b02ad525b94b458b,626b377229c10585ec392f89,626b394432a306a23d9b7ee8,,,,,,,,,,,,,,,,,,,,,,,l,1,1.2945,"[""0.922"",""0.255"",""0.444"",""0.826""]","[0,1,1,1]",0,56,56,56,1,1,1,,,0,FALSE,,,,,,,,,,,,,,,,,,,,,,,,,,,,,,
,607b6943b02ad525b94b458b,001,2022-04-29_02h10.26.876,classification_task,2021.2.3,Win32,143.472023,607b6943b02ad525b94b458b,626b377229c10585ec392f89,626b394432a306a23d9b7ee8,,,,,,,,,,,,,,,,,,,,,,,a,1,3.293,"[""0.168"",""0.571"",""0.709"",""0.964""]","[1,0,1,1]",0,57,57,57,1,0,1,,,0,FALSE,,,,,,,,,,,,,,,,,,,,,,,,,,,,,,
,607b6943b02ad525b94b458b,001,2022-04-29_02h10.26.876,classification_task,2021.2.3,Win32,143.472023,607b6943b02ad525b94b458b,626b377229c10585ec392f89,626b394432a306a23d9b7ee8,,,,,,,,,,,,,,,,,,,,,,,l,1,3.6896,"[""0.098"",""0.294"",""0.482"",""0.785""]","[1,1,0,1]",0,58,58,58,1,1,0,,,0,FALSE,,,,,,,,,,,,,,,,,,,,,,,,,,,,,,
,607b6943b02ad525b94b458b,001,2022-04-29_02h10.26.876,classification_task,2021.2.3,Win32,143.472023,607b6943b02ad525b94b458b,626b377229c10585ec392f89,626b394432a306a23d9b7ee8,,,,,,,,,,,,,,,,,,,,,,,a,0,0.9743,"[""0.134"",""0.255"",""0.444"",""0.630""]","[1,1,1,0]",0,59,59,59,1,1,1,,,0,FALSE,,,,,,,,,,,,,,,,,,,,,,,,,,,,,,
,607b6943b02ad525b94b458b,001,2022-04-29_02h10.26.876,classification_task,2021.2.3,Win32,143.472023,607b6943b02ad525b94b458b,626b377229c10585ec392f89,626b394432a306a23d9b7ee8,,,,,,,,,,,,,,,,,,,,,,,a,0,1.681,"[""0.098"",""0.294"",""0.668"",""0.331""]","[1,1,1,0]",0,60,60,60,1,1,0,,,0,FALSE,,,,,,,,,,,,,,,,,,,,,,,,,,,,,,
,607b6943b02ad525b94b458b,001,2022-04-29_02h10.26.876,classification_task,2021.2.3,Win32,143.472023,607b6943b02ad525b94b458b,626b377229c10585ec392f89,626b394432a306a23d9b7ee8,,,,,,,,,,,,,,,,,,,,,,,l,0,3.7296,"[""0.619"",""0.365"",""0.709"",""0.964""]","[0,1,1,1]",0,61,61,61,1,0,1,,,0,FALSE,,,,,,,,,,,,,,,,,,,,,,,,,,,,,,
,607b6943b02ad525b94b458b,001,2022-04-29_02h10.26.876,classification_task,2021.2.3,Win32,143.472023,607b6943b02ad525b94b458b,626b377229c10585ec392f89,626b394432a306a23d9b7ee8,,,,,,,,,,,,,,,,,,,,,,,a,0,3.2399,"[""0.098"",""0.630"",""0.668"",""0.785""]","[1,0,1,1]",0,62,62,62,1,1,0,,,0,FALSE,,,,,,,,,,,,,,,,,,,,,,,,,,,,,,
,607b6943b02ad525b94b458b,001,2022-04-29_02h10.26.876,classification_task,2021.2.3,Win32,143.472023,607b6943b02ad525b94b458b,626b377229c10585ec392f89,626b394432a306a23d9b7ee8,,,,,,,,,,,,,,,,,,,,,,,a,0,1.3297,"[""0.134"",""0.567"",""0.444"",""0.826""]","[1,0,1,1]",0,63,63,63,1,1,1,,,0,FALSE,,,,,,,,,,,,,,,,,,,,,,,,,,,,,,
,607b6943b02ad525b94b458b,001,2022-04-29_02h10.26.876,classification_task,2021.2.3,Win32,143.472023,607b6943b02ad525b94b458b,626b377229c10585ec392f89,626b394432a306a23d9b7ee8,,,,,,,,,,,,,,,,,,,,,,,,,,,,,,,,,,,,,,,0, ,,0,0.958259847,237.5978,0,2,2,2,1,2,3,,,,,,,,,,,,,,,,,
,607b6943b02ad525b94b458b,001,2022-04-29_02h10.26.876,classification_task,2021.2.3,Win32,143.472023,607b6943b02ad525b94b458b,626b377229c10585ec392f89,626b394432a306a23d9b7ee8,,,,,,,,,,,,,,,,,,,,,,,,,,,,,,,,,,,,,,,1,  ,,0,6.273761281,244.9542,0,2,2,2,1,2,3,,,,,,,,,,,,,,,,,
,607b6943b02ad525b94b458b,001,2022-04-29_02h10.26.876,classification_task,2021.2.3,Win32,143.472023,607b6943b02ad525b94b458b,626b377229c10585ec392f89,626b394432a306a23d9b7ee8,,,,,,,,,,,,,,,,,,,,,,,,,,,,,,,,,,,,,,,2,  ,,0,9.752108099,245.6489,0,2,2,2,1,2,3,,,,,,,,,,,,,,,,,
,607b6943b02ad525b94b458b,001,2022-04-29_02h10.26.876,classification_task,2021.2.3,Win32,143.472023,607b6943b02ad525b94b458b,626b377229c10585ec392f89,626b394432a306a23d9b7ee8,,,,,,,,,,,,,,,,,,,,,,,,,,,,,,,,,,,,,,,,,,,,,0,2,2,2,1,,3,,,,,,,,,,,,,,,,,
,607b6943b02ad525b94b458b,001,2022-04-29_02h10.26.876,classification_task,2021.2.3,Win32,143.472023,607b6943b02ad525b94b458b,626b377229c10585ec392f89,626b394432a306a23d9b7ee8,,,,,,,,,,,,,,,,,,,,,,,,,,,,,,,,,,,,,,,,,,,,,,,,,,,,,I believe the aid is a competent performer,,0.7,0,5,1092.604,0,0,0,0,1,0,,,,
,607b6943b02ad525b94b458b,001,2022-04-29_02h10.26.876,classification_task,2021.2.3,Win32,143.472023,607b6943b02ad525b94b458b,626b377229c10585ec392f89,626b394432a306a23d9b7ee8,,,,,,,,,,,,,,,,,,,,,,,,,,,,,,,,,,,,,,,,,,,,,,,,,,,,,I trust the aid,,0.7,0,5,1093.9907,0,0,0,0,1,0,,,,
,607b6943b02ad525b94b458b,001,2022-04-29_02h10.26.876,classification_task,2021.2.3,Win32,143.472023,607b6943b02ad525b94b458b,626b377229c10585ec392f89,626b394432a306a23d9b7ee8,,,,,,,,,,,,,,,,,,,,,,,,,,,,,,,,,,,,,,,,,,,,,,,,,,,,,I have confidence in the advice given by the aid,,0.7,0,5,1095.5723,0,0,0,0,1,0,,,,
,607b6943b02ad525b94b458b,001,2022-04-29_02h10.26.876,classification_task,2021.2.3,Win32,143.472023,607b6943b02ad525b94b458b,626b377229c10585ec392f89,626b394432a306a23d9b7ee8,,,,,,,,,,,,,,,,,,,,,,,,,,,,,,,,,,,,,,,,,,,,,,,,,,,,,I can depend on the aid,,0.7,0,5,1096.6057,0,0,0,0,1,0,,,,
,607b6943b02ad525b94b458b,001,2022-04-29_02h10.26.876,classification_task,2021.2.3,Win32,143.472023,607b6943b02ad525b94b458b,626b377229c10585ec392f89,626b394432a306a23d9b7ee8,,,,,,,,,,,,,,,,,,,,,,,,,,,,,,,,,,,,,,,,,,,,,,,,,,,,,I can rely on the aid to behave in consistent ways,,0.7,0,5,1097.8746,0,0,0,0,1,0,,,,
,607b6943b02ad525b94b458b,001,2022-04-29_02h10.26.876,classification_task,2021.2.3,Win32,143.472023,607b6943b02ad525b94b458b,626b377229c10585ec392f89,626b394432a306a23d9b7ee8,,,,,,,,,,,,,,,,,,,,,,,,,,,,,,,,,,,,,,,,,,,,,,,,,,,,,I can rely on the aid to do its best every time I take its advice,,0.7,0,5,1098.6364,0,0,0,0,1,0,,,,
,607b6943b02ad525b94b458b,001,2022-04-29_02h10.26.876,classification_task,2021.2.3,Win32,143.472023,607b6943b02ad525b94b458b,626b377229c10585ec392f89,626b394432a306a23d9b7ee8,,,,,,,,,,,,,,,,,,,,,,,,,,,,,,,,,,,,,,,,,,,,,,,,,,,,,"On trials you completed with assistance from the aid, how frequently did you think the aid was correct?",,0.7,0,100%,,0,0,0,0,1,0,,,,
,607b6943b02ad525b94b458b,001,2022-04-29_02h10.26.876,classification_task,2021.2.3,Win32,143.472023,607b6943b02ad525b94b458b,626b377229c10585ec392f89,626b394432a306a23d9b7ee8,,,,,,,,,,,,,,,,,,,,,,,,,,,,,,,,,,,,,,,,,,,,,,,,,,,,,"On trials you completed without the aid, how frequently did you think you were correct?",,0.7,0,60%,,0,0,0,0,1,0,,,,
,607b6943b02ad525b94b458b,001,2022-04-29_02h10.26.876,classification_task,2021.2.3,Win32,143.472023,607b6943b02ad525b94b458b,626b377229c10585ec392f89,626b394432a306a23d9b7ee8,,,,,,,,,,,,,,,,,,,,,,,,,,,,,,,,,,,,,,,,,,,,,,,,,,,,,,,,,,,0,0,0,0,1,,,,,
,607b6943b02ad525b94b458b,001,2022-04-29_02h10.26.876,classification_task,2021.2.3,Win32,143.472023,607b6943b02ad525b94b458b,626b377229c10585ec392f89,626b394432a306a23d9b7ee8,,,,,,,,,,,,,,,,,,,,,,,,,,,,,,,,,,,,,,,,,,,,,,,,,,,,,,,,,,,,,,,,,space,6.2239,1126.2054,
,607b6943b02ad525b94b458b,001,2022-04-29_02h10.26.876,classification_task,2021.2.3,Win32,143.472023,607b6943b02ad525b94b458b,626b377229c10585ec392f89,626b394432a306a23d9b7ee8,,,,,,,,,,,,,,,,,,,,,,,,,,,,,,,,,,,,,,,,,,,,,,,,,,,,,,,,,,,,,,,,,,,,"Mozilla/5.0 (Windows NT 10.0; Win64; x64) AppleWebKit/537.36 (KHTML, like Gecko) Chrome/101.0.4951.41 Safari/537.36"
