usingWebGL,participant,session,date,expName,psychopyVersion,OS,frameRate,PROLIFIC_PID,STUDY_ID,SESSION_ID,signatures_friend,signatures_foe,band_ranges_top,band_ranges_bottom,formitemText,formtype,formundefined,formitemWidth,formindex,formresponse,formrt,key_resp_2.keys,key_resp_2.rt,tute_resp.keys,tute_resp.rt,tutorial.thisRepN,tutorial.thisTrialN,tutorial.thisN,tutorial.thisIndex,tutorial.ran,key_resp_4.keys,key_resp_4.rt,key_resp.keys,key_resp.corr,key_resp.rt,lines_presented,is_signal_presented,trials.thisRepN,trials.thisTrialN,trials.thisN,trials.thisIndex,trials.ran,vessel,active_band,lines,is_signal,supported_pos,catch_trial,debrief_formindex,debrief_formitemText,debrief_formtype,debrief_formitemWidth,debrief_formresponse,debrief_formrt,phases.thisRepN,phases.thisTrialN,phases.thisN,phases.thisIndex,phases.ran,phases.order,phase,key_resp_3.keys,trustitemText,trusttype,trustitemWidth,trustindex,trustresponse,trustrt,support_status.thisRepN,support_status.thisTrialN,support_status.thisN,support_status.thisIndex,support_status.ran,support_status.order,key_resp_5.keys,key_resp_5.rt,globalClockTime,userAgent
TRUE,607f85f6c1ea0861504ac890,001,2022-04-28_21h02.55.840,classification_task,2021.2.3,Win32,60.73858115,607f85f6c1ea0861504ac890,626b377229c10585ec392f8a,626b392580c8a2837ca6cbdb,,,,,,,,,,,,,,,,,,,,,,,,,,,,,,,,,,,,,,,,,,,,,,,,,,,,,,,,,,,,,,,,,,,,
,607f85f6c1ea0861504ac890,001,2022-04-28_21h02.55.840,classification_task,2021.2.3,Win32,60.73858115,607f85f6c1ea0861504ac890,626b377229c10585ec392f8a,626b392580c8a2837ca6cbdb,"[[""0.204"",""0.553"",""0.681"",""0.917""],[""0.313"",""0.411"",""0.881"",""0.970""]]","[[""0.048"",""0.264"",""0.449"",""0.781""],[""0.109"",""0.360"",""0.489"",""0.828""]]","[1,10]","[100,1000]",Video game experience,,,0.7,0,,,,,,,,,,,,,,,,,,,,,,,,,,,,,,,,,,,,,,,,,,,,,,,,,,,,,,,,,,,
,607f85f6c1ea0861504ac890,001,2022-04-28_21h02.55.840,classification_task,2021.2.3,Win32,60.73858115,607f85f6c1ea0861504ac890,626b377229c10585ec392f8a,626b392580c8a2837ca6cbdb,,,,,Approximately how many hours did you spend playing video games in the last week?,,,0.7,0,10,,,,,,,,,,,,,,,,,,,,,,,,,,,,,,,,,,,,,,,,,,,,,,,,,,,,,,,,,,
,607f85f6c1ea0861504ac890,001,2022-04-28_21h02.55.840,classification_task,2021.2.3,Win32,60.73858115,607f85f6c1ea0861504ac890,626b377229c10585ec392f8a,626b392580c8a2837ca6cbdb,,,,,"Which game did you play the most this year? (Enter ""None"" if you didn't play any)",,,0.7,0,Genshin impact,,,,,,,,,,,,,,,,,,,,,,,,,,,,,,,,,,,,,,,,,,,,,,,,,,,,,,,,,,
,607f85f6c1ea0861504ac890,001,2022-04-28_21h02.55.840,classification_task,2021.2.3,Win32,60.73858115,607f85f6c1ea0861504ac890,626b377229c10585ec392f8a,626b392580c8a2837ca6cbdb,,,,,Visual perception,,,0.7,0,,,,,,,,,,,,,,,,,,,,,,,,,,,,,,,,,,,,,,,,,,,,,,,,,,,,,,,,,,,
,607f85f6c1ea0861504ac890,001,2022-04-28_21h02.55.840,classification_task,2021.2.3,Win32,60.73858115,607f85f6c1ea0861504ac890,626b377229c10585ec392f8a,626b392580c8a2837ca6cbdb,,,,,Do you have any form of color blindness?,,,0.7,0,No,27.3018,,,,,,,,,,,,,,,,,,,,,,,,,,,,,,,,,,,,,,,,,,,,,,,,,,,,,,,,,
,607f85f6c1ea0861504ac890,001,2022-04-28_21h02.55.840,classification_task,2021.2.3,Win32,60.73858115,607f85f6c1ea0861504ac890,626b377229c10585ec392f8a,626b392580c8a2837ca6cbdb,,,,,Do you use software to change the colour temperature of your screen (e.g. f.lux)?,,,0.7,0,No,29.821,,,,,,,,,,,,,,,,,,,,,,,,,,,,,,,,,,,,,,,,,,,,,,,,,,,,,,,,,
,607f85f6c1ea0861504ac890,001,2022-04-28_21h02.55.840,classification_task,2021.2.3,Win32,60.73858115,607f85f6c1ea0861504ac890,626b377229c10585ec392f8a,626b392580c8a2837ca6cbdb,,,,,,,,,,,,space,27.3615,space,5.6137,0,0,0,0,1,,,,,,,,,,,,,,,,,,,,,,,,,,,,,,,,,,,,,,,,,,,,,,,,
,607f85f6c1ea0861504ac890,001,2022-04-28_21h02.55.840,classification_task,2021.2.3,Win32,60.73858115,607f85f6c1ea0861504ac890,626b377229c10585ec392f8a,626b392580c8a2837ca6cbdb,,,,,,,,,,,,,,space,5.3015,1,0,1,0,1,,,,,,,,,,,,,,,,,,,,,,,,,,,,,,,,,,,,,,,,,,,,,,,,
,607f85f6c1ea0861504ac890,001,2022-04-28_21h02.55.840,classification_task,2021.2.3,Win32,60.73858115,607f85f6c1ea0861504ac890,626b377229c10585ec392f8a,626b392580c8a2837ca6cbdb,,,,,,,,,,,,,,space,33.8242,2,0,2,0,1,,,,,,,,,,,,,,,,,,,,,,,,,,,,,,,,,,,,,,,,,,,,,,,,
,607f85f6c1ea0861504ac890,001,2022-04-28_21h02.55.840,classification_task,2021.2.3,Win32,60.73858115,607f85f6c1ea0861504ac890,626b377229c10585ec392f8a,626b392580c8a2837ca6cbdb,,,,,,,,,,,,,,space,14.981,3,0,3,0,1,,,,,,,,,,,,,,,,,,,,,,,,,,,,,,,,,,,,,,,,,,,,,,,,
,607f85f6c1ea0861504ac890,001,2022-04-28_21h02.55.840,classification_task,2021.2.3,Win32,60.73858115,607f85f6c1ea0861504ac890,626b377229c10585ec392f8a,626b392580c8a2837ca6cbdb,,,,,,,,,,,,,,space,9.9639,4,0,4,0,1,,,,,,,,,,,,,,,,,,,,,,,,,,,,,,,,,,,,,,,,,,,,,,,,
,607f85f6c1ea0861504ac890,001,2022-04-28_21h02.55.840,classification_task,2021.2.3,Win32,60.73858115,607f85f6c1ea0861504ac890,626b377229c10585ec392f8a,626b392580c8a2837ca6cbdb,,,,,,,,,,,,,,,,,,,,,space,12.4235,l,1,2.7476,"[""0.109"",""0.739"",""0.489"",""0.828""]","[1,0,1,1]",0,0,0,0,1,1,1,,,0,FALSE,,,,,,,,,,,,,,,,,,,,,,,,,,,,,,
,607f85f6c1ea0861504ac890,001,2022-04-28_21h02.55.840,classification_task,2021.2.3,Win32,60.73858115,607f85f6c1ea0861504ac890,626b377229c10585ec392f8a,626b392580c8a2837ca6cbdb,,,,,,,,,,,,,,,,,,,,,,,a,1,3.0994,"[""0.204"",""0.621"",""0.681"",""0.917""]","[1,0,1,1]",0,1,1,1,1,0,0,,,0,FALSE,,,,,,,,,,,,,,,,,,,,,,,,,,,,,,
,607f85f6c1ea0861504ac890,001,2022-04-28_21h02.55.840,classification_task,2021.2.3,Win32,60.73858115,607f85f6c1ea0861504ac890,626b377229c10585ec392f8a,626b392580c8a2837ca6cbdb,,,,,,,,,,,,,,,,,,,,,,,l,1,2.9167,"[""0.048"",""0.264"",""0.166"",""0.781""]","[1,1,0,1]",0,2,2,2,1,1,0,,,0,FALSE,,,,,,,,,,,,,,,,,,,,,,,,,,,,,,
,607f85f6c1ea0861504ac890,001,2022-04-28_21h02.55.840,classification_task,2021.2.3,Win32,60.73858115,607f85f6c1ea0861504ac890,626b377229c10585ec392f8a,626b392580c8a2837ca6cbdb,,,,,,,,,,,,,,,,,,,,,,,a,1,2.6658,"[""0.313"",""0.411"",""0.881"",""0.614""]","[1,1,1,0]",0,3,3,3,1,0,1,,,0,FALSE,,,,,,,,,,,,,,,,,,,,,,,,,,,,,,
,607f85f6c1ea0861504ac890,001,2022-04-28_21h02.55.840,classification_task,2021.2.3,Win32,60.73858115,607f85f6c1ea0861504ac890,626b377229c10585ec392f8a,626b392580c8a2837ca6cbdb,,,,,,,,,,,,,,,,,,,,,,,a,1,2.3995,"[""0.204"",""0.553"",""0.609"",""0.917""]","[1,1,0,1]",0,4,4,4,1,0,0,,,0,FALSE,,,,,,,,,,,,,,,,,,,,,,,,,,,,,,
,607f85f6c1ea0861504ac890,001,2022-04-28_21h02.55.840,classification_task,2021.2.3,Win32,60.73858115,607f85f6c1ea0861504ac890,626b377229c10585ec392f8a,626b392580c8a2837ca6cbdb,,,,,,,,,,,,,,,,,,,,,,,l,1,1.7834,"[""0.048"",""0.634"",""0.449"",""0.781""]","[1,0,1,1]",0,5,5,5,1,1,0,,,0,FALSE,,,,,,,,,,,,,,,,,,,,,,,,,,,,,,
,607f85f6c1ea0861504ac890,001,2022-04-28_21h02.55.840,classification_task,2021.2.3,Win32,60.73858115,607f85f6c1ea0861504ac890,626b377229c10585ec392f8a,626b392580c8a2837ca6cbdb,,,,,,,,,,,,,,,,,,,,,,,a,0,3.0993,"[""0.727"",""0.264"",""0.449"",""0.781""]","[0,1,1,1]",0,6,6,6,1,1,0,,,0,FALSE,,,,,,,,,,,,,,,,,,,,,,,,,,,,,,
,607f85f6c1ea0861504ac890,001,2022-04-28_21h02.55.840,classification_task,2021.2.3,Win32,60.73858115,607f85f6c1ea0861504ac890,626b377229c10585ec392f8a,626b392580c8a2837ca6cbdb,,,,,,,,,,,,,,,,,,,,,,,a,1,3.5822,"[""0.313"",""0.411"",""0.739"",""0.970""]","[1,1,0,1]",0,7,7,7,1,0,1,,,0,FALSE,,,,,,,,,,,,,,,,,,,,,,,,,,,,,,
,607f85f6c1ea0861504ac890,001,2022-04-28_21h02.55.840,classification_task,2021.2.3,Win32,60.73858115,607f85f6c1ea0861504ac890,626b377229c10585ec392f8a,626b392580c8a2837ca6cbdb,,,,,,,,,,,,,,,,,,,,,,,a,1,5.9314,"[""0.727"",""0.553"",""0.681"",""0.917""]","[0,1,1,1]",0,8,8,8,1,0,0,,,0,FALSE,,,,,,,,,,,,,,,,,,,,,,,,,,,,,,
,607f85f6c1ea0861504ac890,001,2022-04-28_21h02.55.840,classification_task,2021.2.3,Win32,60.73858115,607f85f6c1ea0861504ac890,626b377229c10585ec392f8a,626b392580c8a2837ca6cbdb,,,,,,,,,,,,,,,,,,,,,,,l,1,2.9662,"[""0.048"",""0.264"",""0.449"",""0.599""]","[1,1,1,0]",0,9,9,9,1,1,0,,,0,FALSE,,,,,,,,,,,,,,,,,,,,,,,,,,,,,,
,607f85f6c1ea0861504ac890,001,2022-04-28_21h02.55.840,classification_task,2021.2.3,Win32,60.73858115,607f85f6c1ea0861504ac890,626b377229c10585ec392f8a,626b392580c8a2837ca6cbdb,,,,,,,,,,,,,,,,,,,,,,,a,1,4.048,"[""0.313"",""0.599"",""0.881"",""0.970""]","[1,0,1,1]",0,10,10,10,1,0,1,,,0,FALSE,,,,,,,,,,,,,,,,,,,,,,,,,,,,,,
,607f85f6c1ea0861504ac890,001,2022-04-28_21h02.55.840,classification_task,2021.2.3,Win32,60.73858115,607f85f6c1ea0861504ac890,626b377229c10585ec392f8a,626b392580c8a2837ca6cbdb,,,,,,,,,,,,,,,,,,,,,,,a,0,5.5316,"[""0.166"",""0.360"",""0.489"",""0.828""]","[0,1,1,1]",0,11,11,11,1,1,1,,,0,FALSE,,,,,,,,,,,,,,,,,,,,,,,,,,,,,,
,607f85f6c1ea0861504ac890,001,2022-04-28_21h02.55.840,classification_task,2021.2.3,Win32,60.73858115,607f85f6c1ea0861504ac890,626b377229c10585ec392f8a,626b392580c8a2837ca6cbdb,,,,,,,,,,,,,,,,,,,,,,,a,1,6.008,"[""0.204"",""0.553"",""0.681"",""0.609""]","[1,1,1,0]",0,12,12,12,1,0,0,,,0,FALSE,,,,,,,,,,,,,,,,,,,,,,,,,,,,,,
,607f85f6c1ea0861504ac890,001,2022-04-28_21h02.55.840,classification_task,2021.2.3,Win32,60.73858115,607f85f6c1ea0861504ac890,626b377229c10585ec392f8a,626b392580c8a2837ca6cbdb,,,,,,,,,,,,,,,,,,,,,,,a,1,4.1483,"[""0.614"",""0.411"",""0.881"",""0.970""]","[0,1,1,1]",0,13,13,13,1,0,1,,,0,FALSE,,,,,,,,,,,,,,,,,,,,,,,,,,,,,,
,607f85f6c1ea0861504ac890,001,2022-04-28_21h02.55.840,classification_task,2021.2.3,Win32,60.73858115,607f85f6c1ea0861504ac890,626b377229c10585ec392f8a,626b392580c8a2837ca6cbdb,,,,,,,,,,,,,,,,,,,,,,,l,1,5.0489,"[""0.109"",""0.360"",""0.739"",""0.828""]","[1,1,0,1]",0,14,14,14,1,1,1,,,0,FALSE,,,,,,,,,,,,,,,,,,,,,,,,,,,,,,
,607f85f6c1ea0861504ac890,001,2022-04-28_21h02.55.840,classification_task,2021.2.3,Win32,60.73858115,607f85f6c1ea0861504ac890,626b377229c10585ec392f8a,626b392580c8a2837ca6cbdb,,,,,,,,,,,,,,,,,,,,,,,l,1,3.632,"[""0.109"",""0.360"",""0.489"",""0.162""]","[1,1,1,0]",0,15,15,15,1,1,1,,,0,FALSE,,,,,,,,,,,,,,,,,,,,,,,,,,,,,,
,607f85f6c1ea0861504ac890,001,2022-04-28_21h02.55.840,classification_task,2021.2.3,Win32,60.73858115,607f85f6c1ea0861504ac890,626b377229c10585ec392f8a,626b392580c8a2837ca6cbdb,,,,,,,,,,,,,,,,,,,,,,,a,1,2.5662,"[""0.313"",""0.411"",""0.881"",""0.729""]","[1,1,1,0]",0,16,16,16,1,0,1,,,0,FALSE,,,,,,,,,,,,,,,,,,,,,,,,,,,,,,
,607f85f6c1ea0861504ac890,001,2022-04-28_21h02.55.840,classification_task,2021.2.3,Win32,60.73858115,607f85f6c1ea0861504ac890,626b377229c10585ec392f8a,626b392580c8a2837ca6cbdb,,,,,,,,,,,,,,,,,,,,,,,a,1,2.4325,"[""0.204"",""0.606"",""0.681"",""0.917""]","[1,0,1,1]",0,17,17,17,1,0,0,,,0,FALSE,,,,,,,,,,,,,,,,,,,,,,,,,,,,,,
,607f85f6c1ea0861504ac890,001,2022-04-28_21h02.55.840,classification_task,2021.2.3,Win32,60.73858115,607f85f6c1ea0861504ac890,626b377229c10585ec392f8a,626b392580c8a2837ca6cbdb,,,,,,,,,,,,,,,,,,,,,,,l,1,5.9147,"[""0.609"",""0.360"",""0.489"",""0.828""]","[0,1,1,1]",0,18,18,18,1,1,1,,,0,FALSE,,,,,,,,,,,,,,,,,,,,,,,,,,,,,,
,607f85f6c1ea0861504ac890,001,2022-04-28_21h02.55.840,classification_task,2021.2.3,Win32,60.73858115,607f85f6c1ea0861504ac890,626b377229c10585ec392f8a,626b392580c8a2837ca6cbdb,,,,,,,,,,,,,,,,,,,,,,,a,1,5.4825,"[""0.612"",""0.411"",""0.881"",""0.970""]","[0,1,1,1]",0,19,19,19,1,0,1,,,0,FALSE,,,,,,,,,,,,,,,,,,,,,,,,,,,,,,
,607f85f6c1ea0861504ac890,001,2022-04-28_21h02.55.840,classification_task,2021.2.3,Win32,60.73858115,607f85f6c1ea0861504ac890,626b377229c10585ec392f8a,626b392580c8a2837ca6cbdb,,,,,,,,,,,,,,,,,,,,,,,a,1,2.7325,"[""0.313"",""0.727"",""0.881"",""0.970""]","[1,0,1,1]",0,20,20,20,1,0,1,,,0,FALSE,,,,,,,,,,,,,,,,,,,,,,,,,,,,,,
,607f85f6c1ea0861504ac890,001,2022-04-28_21h02.55.840,classification_task,2021.2.3,Win32,60.73858115,607f85f6c1ea0861504ac890,626b377229c10585ec392f8a,626b392580c8a2837ca6cbdb,,,,,,,,,,,,,,,,,,,,,,,a,1,1.9487,"[""0.204"",""0.553"",""0.739"",""0.917""]","[1,1,0,1]",0,21,21,21,1,0,0,,,0,FALSE,,,,,,,,,,,,,,,,,,,,,,,,,,,,,,
,607f85f6c1ea0861504ac890,001,2022-04-28_21h02.55.840,classification_task,2021.2.3,Win32,60.73858115,607f85f6c1ea0861504ac890,626b377229c10585ec392f8a,626b392580c8a2837ca6cbdb,,,,,,,,,,,,,,,,,,,,,,,a,1,1.6169,"[""0.204"",""0.553"",""0.681"",""0.729""]","[1,1,1,0]",0,22,22,22,1,0,0,,,0,FALSE,,,,,,,,,,,,,,,,,,,,,,,,,,,,,,
,607f85f6c1ea0861504ac890,001,2022-04-28_21h02.55.840,classification_task,2021.2.3,Win32,60.73858115,607f85f6c1ea0861504ac890,626b377229c10585ec392f8a,626b392580c8a2837ca6cbdb,,,,,,,,,,,,,,,,,,,,,,,l,1,2.2489,"[""0.109"",""0.612"",""0.489"",""0.828""]","[1,0,1,1]",0,23,23,23,1,1,1,,,0,FALSE,,,,,,,,,,,,,,,,,,,,,,,,,,,,,,
,607f85f6c1ea0861504ac890,001,2022-04-28_21h02.55.840,classification_task,2021.2.3,Win32,60.73858115,607f85f6c1ea0861504ac890,626b377229c10585ec392f8a,626b392580c8a2837ca6cbdb,,,,,,,,,,,,,,,,,,,,,,,a,0,3.2982,"[""0.621"",""0.264"",""0.449"",""0.781""]","[0,1,1,1]",0,24,24,24,1,1,0,,,0,FALSE,,,,,,,,,,,,,,,,,,,,,,,,,,,,,,
,607f85f6c1ea0861504ac890,001,2022-04-28_21h02.55.840,classification_task,2021.2.3,Win32,60.73858115,607f85f6c1ea0861504ac890,626b377229c10585ec392f8a,626b392580c8a2837ca6cbdb,,,,,,,,,,,,,,,,,,,,,,,a,1,2.0487,"[""0.313"",""0.411"",""0.727"",""0.970""]","[1,1,0,1]",0,25,25,25,1,0,1,,,0,FALSE,,,,,,,,,,,,,,,,,,,,,,,,,,,,,,
,607f85f6c1ea0861504ac890,001,2022-04-28_21h02.55.840,classification_task,2021.2.3,Win32,60.73858115,607f85f6c1ea0861504ac890,626b377229c10585ec392f8a,626b392580c8a2837ca6cbdb,,,,,,,,,,,,,,,,,,,,,,,l,1,2.0498,"[""0.109"",""0.360"",""0.489"",""0.612""]","[1,1,1,0]",0,26,26,26,1,1,1,,,0,FALSE,,,,,,,,,,,,,,,,,,,,,,,,,,,,,,
,607f85f6c1ea0861504ac890,001,2022-04-28_21h02.55.840,classification_task,2021.2.3,Win32,60.73858115,607f85f6c1ea0861504ac890,626b377229c10585ec392f8a,626b392580c8a2837ca6cbdb,,,,,,,,,,,,,,,,,,,,,,,l,1,1.9165,"[""0.109"",""0.360"",""0.162"",""0.828""]","[1,1,0,1]",0,27,27,27,1,1,1,,,0,FALSE,,,,,,,,,,,,,,,,,,,,,,,,,,,,,,
,607f85f6c1ea0861504ac890,001,2022-04-28_21h02.55.840,classification_task,2021.2.3,Win32,60.73858115,607f85f6c1ea0861504ac890,626b377229c10585ec392f8a,626b392580c8a2837ca6cbdb,,,,,,,,,,,,,,,,,,,,,,,l,0,4.3316,"[""0.609"",""0.553"",""0.681"",""0.917""]","[0,1,1,1]",0,28,28,28,1,0,0,,,0,FALSE,,,,,,,,,,,,,,,,,,,,,,,,,,,,,,
,607f85f6c1ea0861504ac890,001,2022-04-28_21h02.55.840,classification_task,2021.2.3,Win32,60.73858115,607f85f6c1ea0861504ac890,626b377229c10585ec392f8a,626b392580c8a2837ca6cbdb,,,,,,,,,,,,,,,,,,,,,,,l,1,2.5826,"[""0.048"",""0.729"",""0.449"",""0.781""]","[1,0,1,1]",0,29,29,29,1,1,0,,,0,FALSE,,,,,,,,,,,,,,,,,,,,,,,,,,,,,,
,607f85f6c1ea0861504ac890,001,2022-04-28_21h02.55.840,classification_task,2021.2.3,Win32,60.73858115,607f85f6c1ea0861504ac890,626b377229c10585ec392f8a,626b392580c8a2837ca6cbdb,,,,,,,,,,,,,,,,,,,,,,,l,1,4.8824,"[""0.048"",""0.264"",""0.166"",""0.781""]","[1,1,0,1]",0,30,30,30,1,1,0,,,0,FALSE,,,,,,,,,,,,,,,,,,,,,,,,,,,,,,
,607f85f6c1ea0861504ac890,001,2022-04-28_21h02.55.840,classification_task,2021.2.3,Win32,60.73858115,607f85f6c1ea0861504ac890,626b377229c10585ec392f8a,626b392580c8a2837ca6cbdb,,,,,,,,,,,,,,,,,,,,,,,l,1,2.682,"[""0.048"",""0.264"",""0.449"",""0.621""]","[1,1,1,0]",0,31,31,31,1,1,0,,,0,FALSE,,,,,,,,,,,,,,,,,,,,,,,,,,,,,,
,607f85f6c1ea0861504ac890,001,2022-04-28_21h02.55.840,classification_task,2021.2.3,Win32,60.73858115,607f85f6c1ea0861504ac890,626b377229c10585ec392f8a,626b392580c8a2837ca6cbdb,,,,,,,,,,,,,,,,,,,,,,,l,1,4.7815,"[""0.048"",""0.264"",""0.162"",""0.781""]","[1,1,0,1]",0,32,32,32,1,1,0,,,0,FALSE,,,,,,,,,,,,,,,,,,,,,,,,,,,,,,
,607f85f6c1ea0861504ac890,001,2022-04-28_21h02.55.840,classification_task,2021.2.3,Win32,60.73858115,607f85f6c1ea0861504ac890,626b377229c10585ec392f8a,626b392580c8a2837ca6cbdb,,,,,,,,,,,,,,,,,,,,,,,a,0,5.2985,"[""0.048"",""0.739"",""0.449"",""0.781""]","[1,0,1,1]",0,33,33,33,1,1,0,,,0,FALSE,,,,,,,,,,,,,,,,,,,,,,,,,,,,,,
,607f85f6c1ea0861504ac890,001,2022-04-28_21h02.55.840,classification_task,2021.2.3,Win32,60.73858115,607f85f6c1ea0861504ac890,626b377229c10585ec392f8a,626b392580c8a2837ca6cbdb,,,,,,,,,,,,,,,,,,,,,,,l,1,2.6494,"[""0.727"",""0.264"",""0.449"",""0.781""]","[0,1,1,1]",0,34,34,34,1,1,0,,,0,FALSE,,,,,,,,,,,,,,,,,,,,,,,,,,,,,,
,607f85f6c1ea0861504ac890,001,2022-04-28_21h02.55.840,classification_task,2021.2.3,Win32,60.73858115,607f85f6c1ea0861504ac890,626b377229c10585ec392f8a,626b392580c8a2837ca6cbdb,,,,,,,,,,,,,,,,,,,,,,,a,1,2.4003,"[""0.313"",""0.411"",""0.150"",""0.970""]","[1,1,0,1]",0,35,35,35,1,0,1,,,0,FALSE,,,,,,,,,,,,,,,,,,,,,,,,,,,,,,
,607f85f6c1ea0861504ac890,001,2022-04-28_21h02.55.840,classification_task,2021.2.3,Win32,60.73858115,607f85f6c1ea0861504ac890,626b377229c10585ec392f8a,626b392580c8a2837ca6cbdb,,,,,,,,,,,,,,,,,,,,,,,l,1,2.1159,"[""0.612"",""0.360"",""0.489"",""0.828""]","[0,1,1,1]",0,36,36,36,1,1,1,,,0,FALSE,,,,,,,,,,,,,,,,,,,,,,,,,,,,,,
,607f85f6c1ea0861504ac890,001,2022-04-28_21h02.55.840,classification_task,2021.2.3,Win32,60.73858115,607f85f6c1ea0861504ac890,626b377229c10585ec392f8a,626b392580c8a2837ca6cbdb,,,,,,,,,,,,,,,,,,,,,,,a,1,1.9988,"[""0.204"",""0.553"",""0.150"",""0.917""]","[1,1,0,1]",0,37,37,37,1,0,0,,,0,FALSE,,,,,,,,,,,,,,,,,,,,,,,,,,,,,,
,607f85f6c1ea0861504ac890,001,2022-04-28_21h02.55.840,classification_task,2021.2.3,Win32,60.73858115,607f85f6c1ea0861504ac890,626b377229c10585ec392f8a,626b392580c8a2837ca6cbdb,,,,,,,,,,,,,,,,,,,,,,,a,1,1.9166,"[""0.313"",""0.411"",""0.881"",""0.729""]","[1,1,1,0]",0,38,38,38,1,0,1,,,0,FALSE,,,,,,,,,,,,,,,,,,,,,,,,,,,,,,
,607f85f6c1ea0861504ac890,001,2022-04-28_21h02.55.840,classification_task,2021.2.3,Win32,60.73858115,607f85f6c1ea0861504ac890,626b377229c10585ec392f8a,626b392580c8a2837ca6cbdb,,,,,,,,,,,,,,,,,,,,,,,l,1,2.1495,"[""0.109"",""0.360"",""0.162"",""0.828""]","[1,1,0,1]",0,39,39,39,1,1,1,,,0,FALSE,,,,,,,,,,,,,,,,,,,,,,,,,,,,,,
,607f85f6c1ea0861504ac890,001,2022-04-28_21h02.55.840,classification_task,2021.2.3,Win32,60.73858115,607f85f6c1ea0861504ac890,626b377229c10585ec392f8a,626b392580c8a2837ca6cbdb,,,,,,,,,,,,,,,,,,,,,,,a,0,2.1165,"[""0.109"",""0.360"",""0.489"",""0.727""]","[1,1,1,0]",0,40,40,40,1,1,1,,,0,FALSE,,,,,,,,,,,,,,,,,,,,,,,,,,,,,,
,607f85f6c1ea0861504ac890,001,2022-04-28_21h02.55.840,classification_task,2021.2.3,Win32,60.73858115,607f85f6c1ea0861504ac890,626b377229c10585ec392f8a,626b392580c8a2837ca6cbdb,,,,,,,,,,,,,,,,,,,,,,,l,1,1.649,"[""0.048"",""0.264"",""0.449"",""0.162""]","[1,1,1,0]",0,41,41,41,1,1,0,,,0,FALSE,,,,,,,,,,,,,,,,,,,,,,,,,,,,,,
,607f85f6c1ea0861504ac890,001,2022-04-28_21h02.55.840,classification_task,2021.2.3,Win32,60.73858115,607f85f6c1ea0861504ac890,626b377229c10585ec392f8a,626b392580c8a2837ca6cbdb,,,,,,,,,,,,,,,,,,,,,,,a,1,1.866,"[""0.204"",""0.553"",""0.681"",""0.606""]","[1,1,1,0]",0,42,42,42,1,0,0,,,0,FALSE,,,,,,,,,,,,,,,,,,,,,,,,,,,,,,
,607f85f6c1ea0861504ac890,001,2022-04-28_21h02.55.840,classification_task,2021.2.3,Win32,60.73858115,607f85f6c1ea0861504ac890,626b377229c10585ec392f8a,626b392580c8a2837ca6cbdb,,,,,,,,,,,,,,,,,,,,,,,l,1,2.1993,"[""0.109"",""0.609"",""0.489"",""0.828""]","[1,0,1,1]",0,43,43,43,1,1,1,,,0,FALSE,,,,,,,,,,,,,,,,,,,,,,,,,,,,,,
,607f85f6c1ea0861504ac890,001,2022-04-28_21h02.55.840,classification_task,2021.2.3,Win32,60.73858115,607f85f6c1ea0861504ac890,626b377229c10585ec392f8a,626b392580c8a2837ca6cbdb,,,,,,,,,,,,,,,,,,,,,,,a,1,1.5665,"[""0.313"",""0.729"",""0.881"",""0.970""]","[1,0,1,1]",0,44,44,44,1,0,1,,,0,FALSE,,,,,,,,,,,,,,,,,,,,,,,,,,,,,,
,607f85f6c1ea0861504ac890,001,2022-04-28_21h02.55.840,classification_task,2021.2.3,Win32,60.73858115,607f85f6c1ea0861504ac890,626b377229c10585ec392f8a,626b392580c8a2837ca6cbdb,,,,,,,,,,,,,,,,,,,,,,,l,0,2.9831,"[""0.627"",""0.553"",""0.681"",""0.917""]","[0,1,1,1]",0,45,45,45,1,0,0,,,0,FALSE,,,,,,,,,,,,,,,,,,,,,,,,,,,,,,
,607f85f6c1ea0861504ac890,001,2022-04-28_21h02.55.840,classification_task,2021.2.3,Win32,60.73858115,607f85f6c1ea0861504ac890,626b377229c10585ec392f8a,626b392580c8a2837ca6cbdb,,,,,,,,,,,,,,,,,,,,,,,a,1,1.1327,"[""0.627"",""0.411"",""0.881"",""0.970""]","[0,1,1,1]",0,46,46,46,1,0,1,,,0,FALSE,,,,,,,,,,,,,,,,,,,,,,,,,,,,,,
,607f85f6c1ea0861504ac890,001,2022-04-28_21h02.55.840,classification_task,2021.2.3,Win32,60.73858115,607f85f6c1ea0861504ac890,626b377229c10585ec392f8a,626b392580c8a2837ca6cbdb,,,,,,,,,,,,,,,,,,,,,,,a,1,1.416,"[""0.204"",""0.150"",""0.681"",""0.917""]","[1,0,1,1]",0,47,47,47,1,0,0,,,0,FALSE,,,,,,,,,,,,,,,,,,,,,,,,,,,,,,
,607f85f6c1ea0861504ac890,001,2022-04-28_21h02.55.840,classification_task,2021.2.3,Win32,60.73858115,607f85f6c1ea0861504ac890,626b377229c10585ec392f8a,626b392580c8a2837ca6cbdb,,,,,,,,,,,,,,,,,,,,,,,l,0,2.5666,"[""0.313"",""0.411"",""0.881"",""0.634""]","[1,1,1,0]",0,48,48,48,1,0,1,,,0,FALSE,,,,,,,,,,,,,,,,,,,,,,,,,,,,,,
,607f85f6c1ea0861504ac890,001,2022-04-28_21h02.55.840,classification_task,2021.2.3,Win32,60.73858115,607f85f6c1ea0861504ac890,626b377229c10585ec392f8a,626b392580c8a2837ca6cbdb,,,,,,,,,,,,,,,,,,,,,,,a,1,0.9333,"[""0.606"",""0.411"",""0.881"",""0.970""]","[0,1,1,1]",0,49,49,49,1,0,1,,,0,FALSE,,,,,,,,,,,,,,,,,,,,,,,,,,,,,,
,607f85f6c1ea0861504ac890,001,2022-04-28_21h02.55.840,classification_task,2021.2.3,Win32,60.73858115,607f85f6c1ea0861504ac890,626b377229c10585ec392f8a,626b392580c8a2837ca6cbdb,,,,,,,,,,,,,,,,,,,,,,,l,1,1.0671,"[""0.109"",""0.360"",""0.489"",""0.612""]","[1,1,1,0]",0,50,50,50,1,1,1,,,0,FALSE,,,,,,,,,,,,,,,,,,,,,,,,,,,,,,
,607f85f6c1ea0861504ac890,001,2022-04-28_21h02.55.840,classification_task,2021.2.3,Win32,60.73858115,607f85f6c1ea0861504ac890,626b377229c10585ec392f8a,626b392580c8a2837ca6cbdb,,,,,,,,,,,,,,,,,,,,,,,l,1,1.1833,"[""0.048"",""0.264"",""0.729"",""0.781""]","[1,1,0,1]",0,51,51,51,1,1,0,,,0,FALSE,,,,,,,,,,,,,,,,,,,,,,,,,,,,,,
,607f85f6c1ea0861504ac890,001,2022-04-28_21h02.55.840,classification_task,2021.2.3,Win32,60.73858115,607f85f6c1ea0861504ac890,626b377229c10585ec392f8a,626b392580c8a2837ca6cbdb,,,,,,,,,,,,,,,,,,,,,,,a,1,0.783,"[""0.204"",""0.553"",""0.599"",""0.917""]","[1,1,0,1]",0,52,52,52,1,0,0,,,0,FALSE,,,,,,,,,,,,,,,,,,,,,,,,,,,,,,
,607f85f6c1ea0861504ac890,001,2022-04-28_21h02.55.840,classification_task,2021.2.3,Win32,60.73858115,607f85f6c1ea0861504ac890,626b377229c10585ec392f8a,626b392580c8a2837ca6cbdb,,,,,,,,,,,,,,,,,,,,,,,a,0,0.9834,"[""0.109"",""0.627"",""0.489"",""0.828""]","[1,0,1,1]",0,53,53,53,1,1,1,,,0,FALSE,,,,,,,,,,,,,,,,,,,,,,,,,,,,,,
,607f85f6c1ea0861504ac890,001,2022-04-28_21h02.55.840,classification_task,2021.2.3,Win32,60.73858115,607f85f6c1ea0861504ac890,626b377229c10585ec392f8a,626b392580c8a2837ca6cbdb,,,,,,,,,,,,,,,,,,,,,,,l,0,1.2503,"[""0.313"",""0.411"",""0.729"",""0.970""]","[1,1,0,1]",0,54,54,54,1,0,1,,,0,FALSE,,,,,,,,,,,,,,,,,,,,,,,,,,,,,,
,607f85f6c1ea0861504ac890,001,2022-04-28_21h02.55.840,classification_task,2021.2.3,Win32,60.73858115,607f85f6c1ea0861504ac890,626b377229c10585ec392f8a,626b392580c8a2837ca6cbdb,,,,,,,,,,,,,,,,,,,,,,,a,1,1.1165,"[""0.729"",""0.553"",""0.681"",""0.917""]","[0,1,1,1]",0,55,55,55,1,0,0,,,0,FALSE,,,,,,,,,,,,,,,,,,,,,,,,,,,,,,
,607f85f6c1ea0861504ac890,001,2022-04-28_21h02.55.840,classification_task,2021.2.3,Win32,60.73858115,607f85f6c1ea0861504ac890,626b377229c10585ec392f8a,626b392580c8a2837ca6cbdb,,,,,,,,,,,,,,,,,,,,,,,l,1,0.9503,"[""0.048"",""0.621"",""0.449"",""0.781""]","[1,0,1,1]",0,56,56,56,1,1,0,,,0,FALSE,,,,,,,,,,,,,,,,,,,,,,,,,,,,,,
,607f85f6c1ea0861504ac890,001,2022-04-28_21h02.55.840,classification_task,2021.2.3,Win32,60.73858115,607f85f6c1ea0861504ac890,626b377229c10585ec392f8a,626b392580c8a2837ca6cbdb,,,,,,,,,,,,,,,,,,,,,,,l,1,1.3167,"[""0.614"",""0.360"",""0.489"",""0.828""]","[0,1,1,1]",0,57,57,57,1,1,1,,,0,FALSE,,,,,,,,,,,,,,,,,,,,,,,,,,,,,,
,607f85f6c1ea0861504ac890,001,2022-04-28_21h02.55.840,classification_task,2021.2.3,Win32,60.73858115,607f85f6c1ea0861504ac890,626b377229c10585ec392f8a,626b392580c8a2837ca6cbdb,,,,,,,,,,,,,,,,,,,,,,,a,1,1.2166,"[""0.204"",""0.553"",""0.681"",""0.727""]","[1,1,1,0]",0,58,58,58,1,0,0,,,0,FALSE,,,,,,,,,,,,,,,,,,,,,,,,,,,,,,
,607f85f6c1ea0861504ac890,001,2022-04-28_21h02.55.840,classification_task,2021.2.3,Win32,60.73858115,607f85f6c1ea0861504ac890,626b377229c10585ec392f8a,626b392580c8a2837ca6cbdb,,,,,,,,,,,,,,,,,,,,,,,a,0,1.1505,"[""0.109"",""0.360"",""0.606"",""0.828""]","[1,1,0,1]",0,59,59,59,1,1,1,,,0,FALSE,,,,,,,,,,,,,,,,,,,,,,,,,,,,,,
,607f85f6c1ea0861504ac890,001,2022-04-28_21h02.55.840,classification_task,2021.2.3,Win32,60.73858115,607f85f6c1ea0861504ac890,626b377229c10585ec392f8a,626b392580c8a2837ca6cbdb,,,,,,,,,,,,,,,,,,,,,,,a,1,1.6828,"[""0.313"",""0.609"",""0.881"",""0.970""]","[1,0,1,1]",0,60,60,60,1,0,1,,,0,FALSE,,,,,,,,,,,,,,,,,,,,,,,,,,,,,,
,607f85f6c1ea0861504ac890,001,2022-04-28_21h02.55.840,classification_task,2021.2.3,Win32,60.73858115,607f85f6c1ea0861504ac890,626b377229c10585ec392f8a,626b392580c8a2837ca6cbdb,,,,,,,,,,,,,,,,,,,,,,,l,1,1.0159,"[""0.048"",""0.264"",""0.449"",""0.627""]","[1,1,1,0]",0,61,61,61,1,1,0,,,0,FALSE,,,,,,,,,,,,,,,,,,,,,,,,,,,,,,
,607f85f6c1ea0861504ac890,001,2022-04-28_21h02.55.840,classification_task,2021.2.3,Win32,60.73858115,607f85f6c1ea0861504ac890,626b377229c10585ec392f8a,626b392580c8a2837ca6cbdb,,,,,,,,,,,,,,,,,,,,,,,l,0,2.1663,"[""0.204"",""0.599"",""0.681"",""0.917""]","[1,0,1,1]",0,62,62,62,1,0,0,,,0,FALSE,,,,,,,,,,,,,,,,,,,,,,,,,,,,,,
,607f85f6c1ea0861504ac890,001,2022-04-28_21h02.55.840,classification_task,2021.2.3,Win32,60.73858115,607f85f6c1ea0861504ac890,626b377229c10585ec392f8a,626b392580c8a2837ca6cbdb,,,,,,,,,,,,,,,,,,,,,,,a,0,1.6168,"[""0.609"",""0.264"",""0.449"",""0.781""]","[0,1,1,1]",0,63,63,63,1,1,0,,,0,FALSE,,,,,,,,,,,,,,,,,,,,,,,,,,,,,,
,607f85f6c1ea0861504ac890,001,2022-04-28_21h02.55.840,classification_task,2021.2.3,Win32,60.73858115,607f85f6c1ea0861504ac890,626b377229c10585ec392f8a,626b392580c8a2837ca6cbdb,,,,,,,,,,,,,,,,,,,,,,,,,,,,,,,,,,,,,,,0, ,,0,10,393.3709,0,0,0,0,1,2,1,,,,,,,,,,,,,,,,,
,607f85f6c1ea0861504ac890,001,2022-04-28_21h02.55.840,classification_task,2021.2.3,Win32,60.73858115,607f85f6c1ea0861504ac890,626b377229c10585ec392f8a,626b392580c8a2837ca6cbdb,,,,,,,,,,,,,,,,,,,,,,,,,,,,,,,,,,,,,,,1,  ,,0,8.237985009,398.8348,0,0,0,0,1,2,1,,,,,,,,,,,,,,,,,
,607f85f6c1ea0861504ac890,001,2022-04-28_21h02.55.840,classification_task,2021.2.3,Win32,60.73858115,607f85f6c1ea0861504ac890,626b377229c10585ec392f8a,626b392580c8a2837ca6cbdb,,,,,,,,,,,,,,,,,,,,,,,,,,,,,,,,,,,,,,,2,  ,,0,0,404.4158,0,0,0,0,1,2,1,,,,,,,,,,,,,,,,,
,607f85f6c1ea0861504ac890,001,2022-04-28_21h02.55.840,classification_task,2021.2.3,Win32,60.73858115,607f85f6c1ea0861504ac890,626b377229c10585ec392f8a,626b392580c8a2837ca6cbdb,,,,,,,,,,,,,,,,,,,,,,,,,,,,,,,,,,,,,,,,,,,,,0,0,0,0,1,,1,,,,,,,,,,,,,,,,,
,607f85f6c1ea0861504ac890,001,2022-04-28_21h02.55.840,classification_task,2021.2.3,Win32,60.73858115,607f85f6c1ea0861504ac890,626b377229c10585ec392f8a,626b392580c8a2837ca6cbdb,,,,,,,,,,,,,,,,,,,,,space,123.6391,a,0,4.0908,"[""0.048"",""0.264"",""0.150"",""0.781""]","[1,1,0,1]",0,0,0,0,1,1,0,,,0,FALSE,,,,,,,,,,,,,,,,,,,,,,,,,,,,,,
,607f85f6c1ea0861504ac890,001,2022-04-28_21h02.55.840,classification_task,2021.2.3,Win32,60.73858115,607f85f6c1ea0861504ac890,626b377229c10585ec392f8a,626b392580c8a2837ca6cbdb,,,,,,,,,,,,,,,,,,,,,,,a,0,2.4818,"[""0.109"",""0.166"",""0.489"",""0.828""]","[1,0,1,1]",0,1,1,1,1,1,1,,,0,FALSE,,,,,,,,,,,,,,,,,,,,,,,,,,,,,,
,607f85f6c1ea0861504ac890,001,2022-04-28_21h02.55.840,classification_task,2021.2.3,Win32,60.73858115,607f85f6c1ea0861504ac890,626b377229c10585ec392f8a,626b392580c8a2837ca6cbdb,,,,,,,,,,,,,,,,,,,,,,,a,1,3.2653,"[""0.204"",""0.553"",""0.681"",""0.739""]","[1,1,1,0]",0,2,2,2,1,0,0,,,0,FALSE,,,,,,,,,,,,,,,,,,,,,,,,,,,,,,
,607f85f6c1ea0861504ac890,001,2022-04-28_21h02.55.840,classification_task,2021.2.3,Win32,60.73858115,607f85f6c1ea0861504ac890,626b377229c10585ec392f8a,626b392580c8a2837ca6cbdb,,,,,,,,,,,,,,,,,,,,,,,a,1,2.8334,"[""0.204"",""0.553"",""0.609"",""0.917""]","[1,1,0,1]",0,3,3,3,1,0,0,,,0,FALSE,,,,,,,,,,,,,,,,,,,,,,,,,,,,,,
,607f85f6c1ea0861504ac890,001,2022-04-28_21h02.55.840,classification_task,2021.2.3,Win32,60.73858115,607f85f6c1ea0861504ac890,626b377229c10585ec392f8a,626b392580c8a2837ca6cbdb,,,,,,,,,,,,,,,,,,,,,,,a,1,2.2999,"[""0.204"",""0.162"",""0.681"",""0.917""]","[1,0,1,1]",0,4,4,4,1,0,0,,,0,FALSE,,,,,,,,,,,,,,,,,,,,,,,,,,,,,,
,607f85f6c1ea0861504ac890,001,2022-04-28_21h02.55.840,classification_task,2021.2.3,Win32,60.73858115,607f85f6c1ea0861504ac890,626b377229c10585ec392f8a,626b392580c8a2837ca6cbdb,,,,,,,,,,,,,,,,,,,,,,,l,1,1.3992,"[""0.109"",""0.360"",""0.162"",""0.828""]","[1,1,0,1]",0,5,5,5,1,1,1,,,0,FALSE,,,,,,,,,,,,,,,,,,,,,,,,,,,,,,
,607f85f6c1ea0861504ac890,001,2022-04-28_21h02.55.840,classification_task,2021.2.3,Win32,60.73858115,607f85f6c1ea0861504ac890,626b377229c10585ec392f8a,626b392580c8a2837ca6cbdb,,,,,,,,,,,,,,,,,,,,,,,l,1,1.3489,"[""0.048"",""0.264"",""0.449"",""0.634""]","[1,1,1,0]",0,6,6,6,1,1,0,,,0,FALSE,,,,,,,,,,,,,,,,,,,,,,,,,,,,,,
,607f85f6c1ea0861504ac890,001,2022-04-28_21h02.55.840,classification_task,2021.2.3,Win32,60.73858115,607f85f6c1ea0861504ac890,626b377229c10585ec392f8a,626b392580c8a2837ca6cbdb,,,,,,,,,,,,,,,,,,,,,,,a,0,2.8486,"[""0.109"",""0.360"",""0.489"",""0.739""]","[1,1,1,0]",0,7,7,7,1,1,1,,,0,FALSE,,,,,,,,,,,,,,,,,,,,,,,,,,,,,,
,607f85f6c1ea0861504ac890,001,2022-04-28_21h02.55.840,classification_task,2021.2.3,Win32,60.73858115,607f85f6c1ea0861504ac890,626b377229c10585ec392f8a,626b392580c8a2837ca6cbdb,,,,,,,,,,,,,,,,,,,,,,,a,1,4.1822,"[""0.150"",""0.553"",""0.681"",""0.917""]","[0,1,1,1]",0,8,8,8,1,0,0,,,0,FALSE,,,,,,,,,,,,,,,,,,,,,,,,,,,,,,
,607f85f6c1ea0861504ac890,001,2022-04-28_21h02.55.840,classification_task,2021.2.3,Win32,60.73858115,607f85f6c1ea0861504ac890,626b377229c10585ec392f8a,626b392580c8a2837ca6cbdb,,,,,,,,,,,,,,,,,,,,,,,l,1,3.4497,"[""0.048"",""0.162"",""0.449"",""0.781""]","[1,0,1,1]",0,9,9,9,1,1,0,,,0,FALSE,,,,,,,,,,,,,,,,,,,,,,,,,,,,,,
,607f85f6c1ea0861504ac890,001,2022-04-28_21h02.55.840,classification_task,2021.2.3,Win32,60.73858115,607f85f6c1ea0861504ac890,626b377229c10585ec392f8a,626b392580c8a2837ca6cbdb,,,,,,,,,,,,,,,,,,,,,,,a,1,3.9819,"[""0.313"",""0.150"",""0.881"",""0.970""]","[1,0,1,1]",0,10,10,10,1,0,1,,,0,FALSE,,,,,,,,,,,,,,,,,,,,,,,,,,,,,,
,607f85f6c1ea0861504ac890,001,2022-04-28_21h02.55.840,classification_task,2021.2.3,Win32,60.73858115,607f85f6c1ea0861504ac890,626b377229c10585ec392f8a,626b392580c8a2837ca6cbdb,,,,,,,,,,,,,,,,,,,,,,,l,0,2.25,"[""0.313"",""0.411"",""0.634"",""0.970""]","[1,1,0,1]",0,11,11,11,1,0,1,,,0,FALSE,,,,,,,,,,,,,,,,,,,,,,,,,,,,,,
,607f85f6c1ea0861504ac890,001,2022-04-28_21h02.55.840,classification_task,2021.2.3,Win32,60.73858115,607f85f6c1ea0861504ac890,626b377229c10585ec392f8a,626b392580c8a2837ca6cbdb,,,,,,,,,,,,,,,,,,,,,,,l,1,2.1998,"[""0.150"",""0.360"",""0.489"",""0.828""]","[0,1,1,1]",0,12,12,12,1,1,1,,,0,FALSE,,,,,,,,,,,,,,,,,,,,,,,,,,,,,,
,607f85f6c1ea0861504ac890,001,2022-04-28_21h02.55.840,classification_task,2021.2.3,Win32,60.73858115,607f85f6c1ea0861504ac890,626b377229c10585ec392f8a,626b392580c8a2837ca6cbdb,,,,,,,,,,,,,,,,,,,,,,,a,1,3.6832,"[""0.627"",""0.411"",""0.881"",""0.970""]","[0,1,1,1]",0,13,13,13,1,0,1,,,0,FALSE,,,,,,,,,,,,,,,,,,,,,,,,,,,,,,
,607f85f6c1ea0861504ac890,001,2022-04-28_21h02.55.840,classification_task,2021.2.3,Win32,60.73858115,607f85f6c1ea0861504ac890,626b377229c10585ec392f8a,626b392580c8a2837ca6cbdb,,,,,,,,,,,,,,,,,,,,,,,l,1,5.7486,"[""0.739"",""0.264"",""0.449"",""0.781""]","[0,1,1,1]",0,14,14,14,1,1,0,,,0,FALSE,,,,,,,,,,,,,,,,,,,,,,,,,,,,,,
,607f85f6c1ea0861504ac890,001,2022-04-28_21h02.55.840,classification_task,2021.2.3,Win32,60.73858115,607f85f6c1ea0861504ac890,626b377229c10585ec392f8a,626b392580c8a2837ca6cbdb,,,,,,,,,,,,,,,,,,,,,,,l,0,1.8321,"[""0.313"",""0.411"",""0.881"",""0.739""]","[1,1,1,0]",0,15,15,15,1,0,1,,,0,FALSE,,,,,,,,,,,,,,,,,,,,,,,,,,,,,,
,607f85f6c1ea0861504ac890,001,2022-04-28_21h02.55.840,classification_task,2021.2.3,Win32,60.73858115,607f85f6c1ea0861504ac890,626b377229c10585ec392f8a,626b392580c8a2837ca6cbdb,,,,,,,,,,,,,,,,,,,,,,,l,1,4.2311,"[""0.048"",""0.606"",""0.449"",""0.781""]","[1,0,1,1]",0,16,16,16,1,1,0,,,0,FALSE,,,,,,,,,,,,,,,,,,,,,,,,,,,,,,
,607f85f6c1ea0861504ac890,001,2022-04-28_21h02.55.840,classification_task,2021.2.3,Win32,60.73858115,607f85f6c1ea0861504ac890,626b377229c10585ec392f8a,626b392580c8a2837ca6cbdb,,,,,,,,,,,,,,,,,,,,,,,a,1,3.5321,"[""0.204"",""0.553"",""0.681"",""0.606""]","[1,1,1,0]",0,17,17,17,1,0,0,,,0,FALSE,,,,,,,,,,,,,,,,,,,,,,,,,,,,,,
,607f85f6c1ea0861504ac890,001,2022-04-28_21h02.55.840,classification_task,2021.2.3,Win32,60.73858115,607f85f6c1ea0861504ac890,626b377229c10585ec392f8a,626b392580c8a2837ca6cbdb,,,,,,,,,,,,,,,,,,,,,,,a,1,1.7491,"[""0.313"",""0.599"",""0.881"",""0.970""]","[1,0,1,1]",0,18,18,18,1,0,1,,,0,FALSE,,,,,,,,,,,,,,,,,,,,,,,,,,,,,,
,607f85f6c1ea0861504ac890,001,2022-04-28_21h02.55.840,classification_task,2021.2.3,Win32,60.73858115,607f85f6c1ea0861504ac890,626b377229c10585ec392f8a,626b392580c8a2837ca6cbdb,,,,,,,,,,,,,,,,,,,,,,,a,1,2.1492,"[""0.729"",""0.411"",""0.881"",""0.970""]","[0,1,1,1]",0,19,19,19,1,0,1,,,0,FALSE,,,,,,,,,,,,,,,,,,,,,,,,,,,,,,
,607f85f6c1ea0861504ac890,001,2022-04-28_21h02.55.840,classification_task,2021.2.3,Win32,60.73858115,607f85f6c1ea0861504ac890,626b377229c10585ec392f8a,626b392580c8a2837ca6cbdb,,,,,,,,,,,,,,,,,,,,,,,l,1,2.1997,"[""0.109"",""0.150"",""0.489"",""0.828""]","[1,0,1,1]",0,20,20,20,1,1,1,,,0,FALSE,,,,,,,,,,,,,,,,,,,,,,,,,,,,,,
,607f85f6c1ea0861504ac890,001,2022-04-28_21h02.55.840,classification_task,2021.2.3,Win32,60.73858115,607f85f6c1ea0861504ac890,626b377229c10585ec392f8a,626b392580c8a2837ca6cbdb,,,,,,,,,,,,,,,,,,,,,,,l,1,3.4489,"[""0.048"",""0.264"",""0.612"",""0.781""]","[1,1,0,1]",0,21,21,21,1,1,0,,,0,FALSE,,,,,,,,,,,,,,,,,,,,,,,,,,,,,,
,607f85f6c1ea0861504ac890,001,2022-04-28_21h02.55.840,classification_task,2021.2.3,Win32,60.73858115,607f85f6c1ea0861504ac890,626b377229c10585ec392f8a,626b392580c8a2837ca6cbdb,,,,,,,,,,,,,,,,,,,,,,,a,1,3.0987,"[""0.204"",""0.553"",""0.621"",""0.917""]","[1,1,0,1]",0,22,22,22,1,0,0,,,0,FALSE,,,,,,,,,,,,,,,,,,,,,,,,,,,,,,
,607f85f6c1ea0861504ac890,001,2022-04-28_21h02.55.840,classification_task,2021.2.3,Win32,60.73858115,607f85f6c1ea0861504ac890,626b377229c10585ec392f8a,626b392580c8a2837ca6cbdb,,,,,,,,,,,,,,,,,,,,,,,a,1,2.9329,"[""0.614"",""0.553"",""0.681"",""0.917""]","[0,1,1,1]",0,23,23,23,1,0,0,,,0,FALSE,,,,,,,,,,,,,,,,,,,,,,,,,,,,,,
,607f85f6c1ea0861504ac890,001,2022-04-28_21h02.55.840,classification_task,2021.2.3,Win32,60.73858115,607f85f6c1ea0861504ac890,626b377229c10585ec392f8a,626b392580c8a2837ca6cbdb,,,,,,,,,,,,,,,,,,,,,,,l,1,2.6994,"[""0.162"",""0.360"",""0.489"",""0.828""]","[0,1,1,1]",0,24,24,24,1,1,1,,,0,FALSE,,,,,,,,,,,,,,,,,,,,,,,,,,,,,,
,607f85f6c1ea0861504ac890,001,2022-04-28_21h02.55.840,classification_task,2021.2.3,Win32,60.73858115,607f85f6c1ea0861504ac890,626b377229c10585ec392f8a,626b392580c8a2837ca6cbdb,,,,,,,,,,,,,,,,,,,,,,,l,1,3.1982,"[""0.627"",""0.264"",""0.449"",""0.781""]","[0,1,1,1]",0,25,25,25,1,1,0,,,0,FALSE,,,,,,,,,,,,,,,,,,,,,,,,,,,,,,
,607f85f6c1ea0861504ac890,001,2022-04-28_21h02.55.840,classification_task,2021.2.3,Win32,60.73858115,607f85f6c1ea0861504ac890,626b377229c10585ec392f8a,626b392580c8a2837ca6cbdb,,,,,,,,,,,,,,,,,,,,,,,a,1,2.4153,"[""0.313"",""0.411"",""0.599"",""0.970""]","[1,1,0,1]",0,26,26,26,1,0,1,,,0,FALSE,,,,,,,,,,,,,,,,,,,,,,,,,,,,,,
,607f85f6c1ea0861504ac890,001,2022-04-28_21h02.55.840,classification_task,2021.2.3,Win32,60.73858115,607f85f6c1ea0861504ac890,626b377229c10585ec392f8a,626b392580c8a2837ca6cbdb,,,,,,,,,,,,,,,,,,,,,,,a,1,1.8823,"[""0.313"",""0.411"",""0.881"",""0.150""]","[1,1,1,0]",0,27,27,27,1,0,1,,,0,FALSE,,,,,,,,,,,,,,,,,,,,,,,,,,,,,,
,607f85f6c1ea0861504ac890,001,2022-04-28_21h02.55.840,classification_task,2021.2.3,Win32,60.73858115,607f85f6c1ea0861504ac890,626b377229c10585ec392f8a,626b392580c8a2837ca6cbdb,,,,,,,,,,,,,,,,,,,,,,,a,0,3.1154,"[""0.048"",""0.264"",""0.449"",""0.166""]","[1,1,1,0]",0,28,28,28,1,1,0,,,0,FALSE,,,,,,,,,,,,,,,,,,,,,,,,,,,,,,
,607f85f6c1ea0861504ac890,001,2022-04-28_21h02.55.840,classification_task,2021.2.3,Win32,60.73858115,607f85f6c1ea0861504ac890,626b377229c10585ec392f8a,626b392580c8a2837ca6cbdb,,,,,,,,,,,,,,,,,,,,,,,l,0,3.1994,"[""0.204"",""0.727"",""0.681"",""0.917""]","[1,0,1,1]",0,29,29,29,1,0,0,,,0,FALSE,,,,,,,,,,,,,,,,,,,,,,,,,,,,,,
,607f85f6c1ea0861504ac890,001,2022-04-28_21h02.55.840,classification_task,2021.2.3,Win32,60.73858115,607f85f6c1ea0861504ac890,626b377229c10585ec392f8a,626b392580c8a2837ca6cbdb,,,,,,,,,,,,,,,,,,,,,,,l,1,3.9313,"[""0.109"",""0.360"",""0.609"",""0.828""]","[1,1,0,1]",0,30,30,30,1,1,1,,,0,FALSE,,,,,,,,,,,,,,,,,,,,,,,,,,,,,,
,607f85f6c1ea0861504ac890,001,2022-04-28_21h02.55.840,classification_task,2021.2.3,Win32,60.73858115,607f85f6c1ea0861504ac890,626b377229c10585ec392f8a,626b392580c8a2837ca6cbdb,,,,,,,,,,,,,,,,,,,,,,,a,0,2.7657,"[""0.109"",""0.360"",""0.489"",""0.627""]","[1,1,1,0]",0,31,31,31,1,1,1,,,0,FALSE,,,,,,,,,,,,,,,,,,,,,,,,,,,,,,
,607f85f6c1ea0861504ac890,001,2022-04-28_21h02.55.840,classification_task,2021.2.3,Win32,60.73858115,607f85f6c1ea0861504ac890,626b377229c10585ec392f8a,626b392580c8a2837ca6cbdb,,,,,,,,,,,,,,,,,,,,,,,l,1,2.565,"[""0.048"",""0.264"",""0.634"",""0.781""]","[1,1,0,1]",0,32,32,32,1,1,0,,,0,FALSE,,,,,,,,,,,,,,,,,,,,,,,,,,,,,,
,607f85f6c1ea0861504ac890,001,2022-04-28_21h02.55.840,classification_task,2021.2.3,Win32,60.73858115,607f85f6c1ea0861504ac890,626b377229c10585ec392f8a,626b392580c8a2837ca6cbdb,,,,,,,,,,,,,,,,,,,,,,,l,1,2.5165,"[""0.048"",""0.264"",""0.449"",""0.599""]","[1,1,1,0]",0,33,33,33,1,1,0,,,0,FALSE,,,,,,,,,,,,,,,,,,,,,,,,,,,,,,
,607f85f6c1ea0861504ac890,001,2022-04-28_21h02.55.840,classification_task,2021.2.3,Win32,60.73858115,607f85f6c1ea0861504ac890,626b377229c10585ec392f8a,626b392580c8a2837ca6cbdb,,,,,,,,,,,,,,,,,,,,,,,a,1,2.4995,"[""0.204"",""0.553"",""0.729"",""0.917""]","[1,1,0,1]",0,34,34,34,1,0,0,,,0,FALSE,,,,,,,,,,,,,,,,,,,,,,,,,,,,,,
,607f85f6c1ea0861504ac890,001,2022-04-28_21h02.55.840,classification_task,2021.2.3,Win32,60.73858115,607f85f6c1ea0861504ac890,626b377229c10585ec392f8a,626b392580c8a2837ca6cbdb,,,,,,,,,,,,,,,,,,,,,,,a,1,2.2158,"[""0.204"",""0.553"",""0.681"",""0.606""]","[1,1,1,0]",0,35,35,35,1,0,0,,,0,FALSE,,,,,,,,,,,,,,,,,,,,,,,,,,,,,,
,607f85f6c1ea0861504ac890,001,2022-04-28_21h02.55.840,classification_task,2021.2.3,Win32,60.73858115,607f85f6c1ea0861504ac890,626b377229c10585ec392f8a,626b392580c8a2837ca6cbdb,,,,,,,,,,,,,,,,,,,,,,,l,0,2.6989,"[""0.727"",""0.411"",""0.881"",""0.970""]","[0,1,1,1]",0,36,36,36,1,0,1,,,0,FALSE,,,,,,,,,,,,,,,,,,,,,,,,,,,,,,
,607f85f6c1ea0861504ac890,001,2022-04-28_21h02.55.840,classification_task,2021.2.3,Win32,60.73858115,607f85f6c1ea0861504ac890,626b377229c10585ec392f8a,626b392580c8a2837ca6cbdb,,,,,,,,,,,,,,,,,,,,,,,l,1,0.95,"[""0.109"",""0.360"",""0.489"",""0.621""]","[1,1,1,0]",0,37,37,37,1,1,1,,,0,FALSE,,,,,,,,,,,,,,,,,,,,,,,,,,,,,,
,607f85f6c1ea0861504ac890,001,2022-04-28_21h02.55.840,classification_task,2021.2.3,Win32,60.73858115,607f85f6c1ea0861504ac890,626b377229c10585ec392f8a,626b392580c8a2837ca6cbdb,,,,,,,,,,,,,,,,,,,,,,,l,1,1.7654,"[""0.048"",""0.739"",""0.449"",""0.781""]","[1,0,1,1]",0,38,38,38,1,1,0,,,0,FALSE,,,,,,,,,,,,,,,,,,,,,,,,,,,,,,
,607f85f6c1ea0861504ac890,001,2022-04-28_21h02.55.840,classification_task,2021.2.3,Win32,60.73858115,607f85f6c1ea0861504ac890,626b377229c10585ec392f8a,626b392580c8a2837ca6cbdb,,,,,,,,,,,,,,,,,,,,,,,a,0,2.5315,"[""0.109"",""0.609"",""0.489"",""0.828""]","[1,0,1,1]",0,39,39,39,1,1,1,,,0,FALSE,,,,,,,,,,,,,,,,,,,,,,,,,,,,,,
,607f85f6c1ea0861504ac890,001,2022-04-28_21h02.55.840,classification_task,2021.2.3,Win32,60.73858115,607f85f6c1ea0861504ac890,626b377229c10585ec392f8a,626b392580c8a2837ca6cbdb,,,,,,,,,,,,,,,,,,,,,,,a,1,1.5989,"[""0.627"",""0.553"",""0.681"",""0.917""]","[0,1,1,1]",0,40,40,40,1,0,0,,,0,FALSE,,,,,,,,,,,,,,,,,,,,,,,,,,,,,,
,607f85f6c1ea0861504ac890,001,2022-04-28_21h02.55.840,classification_task,2021.2.3,Win32,60.73858115,607f85f6c1ea0861504ac890,626b377229c10585ec392f8a,626b392580c8a2837ca6cbdb,,,,,,,,,,,,,,,,,,,,,,,l,1,1.6988,"[""0.109"",""0.360"",""0.727"",""0.828""]","[1,1,0,1]",0,41,41,41,1,1,1,,,0,FALSE,,,,,,,,,,,,,,,,,,,,,,,,,,,,,,
,607f85f6c1ea0861504ac890,001,2022-04-28_21h02.55.840,classification_task,2021.2.3,Win32,60.73858115,607f85f6c1ea0861504ac890,626b377229c10585ec392f8a,626b392580c8a2837ca6cbdb,,,,,,,,,,,,,,,,,,,,,,,a,0,2.3652,"[""0.739"",""0.264"",""0.449"",""0.781""]","[0,1,1,1]",0,42,42,42,1,1,0,,,0,FALSE,,,,,,,,,,,,,,,,,,,,,,,,,,,,,,
,607f85f6c1ea0861504ac890,001,2022-04-28_21h02.55.840,classification_task,2021.2.3,Win32,60.73858115,607f85f6c1ea0861504ac890,626b377229c10585ec392f8a,626b392580c8a2837ca6cbdb,,,,,,,,,,,,,,,,,,,,,,,a,1,1.8157,"[""0.204"",""0.612"",""0.681"",""0.917""]","[1,0,1,1]",0,43,43,43,1,0,0,,,0,FALSE,,,,,,,,,,,,,,,,,,,,,,,,,,,,,,
,607f85f6c1ea0861504ac890,001,2022-04-28_21h02.55.840,classification_task,2021.2.3,Win32,60.73858115,607f85f6c1ea0861504ac890,626b377229c10585ec392f8a,626b392580c8a2837ca6cbdb,,,,,,,,,,,,,,,,,,,,,,,l,0,2.8328,"[""0.313"",""0.606"",""0.881"",""0.970""]","[1,0,1,1]",0,44,44,44,1,0,1,,,0,FALSE,,,,,,,,,,,,,,,,,,,,,,,,,,,,,,
,607f85f6c1ea0861504ac890,001,2022-04-28_21h02.55.840,classification_task,2021.2.3,Win32,60.73858115,607f85f6c1ea0861504ac890,626b377229c10585ec392f8a,626b392580c8a2837ca6cbdb,,,,,,,,,,,,,,,,,,,,,,,l,0,1.4335,"[""0.313"",""0.411"",""0.614"",""0.970""]","[1,1,0,1]",0,45,45,45,1,0,1,,,0,FALSE,,,,,,,,,,,,,,,,,,,,,,,,,,,,,,
,607f85f6c1ea0861504ac890,001,2022-04-28_21h02.55.840,classification_task,2021.2.3,Win32,60.73858115,607f85f6c1ea0861504ac890,626b377229c10585ec392f8a,626b392580c8a2837ca6cbdb,,,,,,,,,,,,,,,,,,,,,,,a,1,0.8831,"[""0.313"",""0.411"",""0.881"",""0.166""]","[1,1,1,0]",0,46,46,46,1,0,1,,,0,FALSE,,,,,,,,,,,,,,,,,,,,,,,,,,,,,,
,607f85f6c1ea0861504ac890,001,2022-04-28_21h02.55.840,classification_task,2021.2.3,Win32,60.73858115,607f85f6c1ea0861504ac890,626b377229c10585ec392f8a,626b392580c8a2837ca6cbdb,,,,,,,,,,,,,,,,,,,,,,,a,0,1.0994,"[""0.729"",""0.360"",""0.489"",""0.828""]","[0,1,1,1]",0,47,47,47,1,1,1,,,0,FALSE,,,,,,,,,,,,,,,,,,,,,,,,,,,,,,
,607f85f6c1ea0861504ac890,001,2022-04-28_21h02.55.840,classification_task,2021.2.3,Win32,60.73858115,607f85f6c1ea0861504ac890,626b377229c10585ec392f8a,626b392580c8a2837ca6cbdb,,,,,,,,,,,,,,,,,,,,,,,l,1,2.7151,"[""0.048"",""0.264"",""0.166"",""0.781""]","[1,1,0,1]",0,48,48,48,1,1,0,,,0,FALSE,,,,,,,,,,,,,,,,,,,,,,,,,,,,,,
,607f85f6c1ea0861504ac890,001,2022-04-28_21h02.55.840,classification_task,2021.2.3,Win32,60.73858115,607f85f6c1ea0861504ac890,626b377229c10585ec392f8a,626b392580c8a2837ca6cbdb,,,,,,,,,,,,,,,,,,,,,,,l,0,2.9978,"[""0.313"",""0.411"",""0.881"",""0.739""]","[1,1,1,0]",0,49,49,49,1,0,1,,,0,FALSE,,,,,,,,,,,,,,,,,,,,,,,,,,,,,,
,607f85f6c1ea0861504ac890,001,2022-04-28_21h02.55.840,classification_task,2021.2.3,Win32,60.73858115,607f85f6c1ea0861504ac890,626b377229c10585ec392f8a,626b392580c8a2837ca6cbdb,,,,,,,,,,,,,,,,,,,,,,,l,1,3.1146,"[""0.048"",""0.264"",""0.449"",""0.166""]","[1,1,1,0]",0,50,50,50,1,1,0,,,0,FALSE,,,,,,,,,,,,,,,,,,,,,,,,,,,,,,
,607f85f6c1ea0861504ac890,001,2022-04-28_21h02.55.840,classification_task,2021.2.3,Win32,60.73858115,607f85f6c1ea0861504ac890,626b377229c10585ec392f8a,626b392580c8a2837ca6cbdb,,,,,,,,,,,,,,,,,,,,,,,a,0,1.9987,"[""0.109"",""0.360"",""0.489"",""0.612""]","[1,1,1,0]",0,51,51,51,1,1,1,,,0,FALSE,,,,,,,,,,,,,,,,,,,,,,,,,,,,,,
,607f85f6c1ea0861504ac890,001,2022-04-28_21h02.55.840,classification_task,2021.2.3,Win32,60.73858115,607f85f6c1ea0861504ac890,626b377229c10585ec392f8a,626b392580c8a2837ca6cbdb,,,,,,,,,,,,,,,,,,,,,,,a,1,1.9153,"[""0.204"",""0.553"",""0.681"",""0.727""]","[1,1,1,0]",0,52,52,52,1,0,0,,,0,FALSE,,,,,,,,,,,,,,,,,,,,,,,,,,,,,,
,607f85f6c1ea0861504ac890,001,2022-04-28_21h02.55.840,classification_task,2021.2.3,Win32,60.73858115,607f85f6c1ea0861504ac890,626b377229c10585ec392f8a,626b392580c8a2837ca6cbdb,,,,,,,,,,,,,,,,,,,,,,,l,0,1.9989,"[""0.313"",""0.606"",""0.881"",""0.970""]","[1,0,1,1]",0,53,53,53,1,0,1,,,0,FALSE,,,,,,,,,,,,,,,,,,,,,,,,,,,,,,
,607f85f6c1ea0861504ac890,001,2022-04-28_21h02.55.840,classification_task,2021.2.3,Win32,60.73858115,607f85f6c1ea0861504ac890,626b377229c10585ec392f8a,626b392580c8a2837ca6cbdb,,,,,,,,,,,,,,,,,,,,,,,a,1,1.0005,"[""0.634"",""0.411"",""0.881"",""0.970""]","[0,1,1,1]",0,54,54,54,1,0,1,,,0,FALSE,,,,,,,,,,,,,,,,,,,,,,,,,,,,,,
,607f85f6c1ea0861504ac890,001,2022-04-28_21h02.55.840,classification_task,2021.2.3,Win32,60.73858115,607f85f6c1ea0861504ac890,626b377229c10585ec392f8a,626b392580c8a2837ca6cbdb,,,,,,,,,,,,,,,,,,,,,,,l,1,1.3166,"[""0.109"",""0.360"",""0.739"",""0.828""]","[1,1,0,1]",0,55,55,55,1,1,1,,,0,FALSE,,,,,,,,,,,,,,,,,,,,,,,,,,,,,,
,607f85f6c1ea0861504ac890,001,2022-04-28_21h02.55.840,classification_task,2021.2.3,Win32,60.73858115,607f85f6c1ea0861504ac890,626b377229c10585ec392f8a,626b392580c8a2837ca6cbdb,,,,,,,,,,,,,,,,,,,,,,,a,1,1.8484,"[""0.162"",""0.553"",""0.681"",""0.917""]","[0,1,1,1]",0,56,56,56,1,0,0,,,0,FALSE,,,,,,,,,,,,,,,,,,,,,,,,,,,,,,
,607f85f6c1ea0861504ac890,001,2022-04-28_21h02.55.840,classification_task,2021.2.3,Win32,60.73858115,607f85f6c1ea0861504ac890,626b377229c10585ec392f8a,626b392580c8a2837ca6cbdb,,,,,,,,,,,,,,,,,,,,,,,l,0,1.6317,"[""0.313"",""0.411"",""0.729"",""0.970""]","[1,1,0,1]",0,57,57,57,1,0,1,,,0,FALSE,,,,,,,,,,,,,,,,,,,,,,,,,,,,,,
,607f85f6c1ea0861504ac890,001,2022-04-28_21h02.55.840,classification_task,2021.2.3,Win32,60.73858115,607f85f6c1ea0861504ac890,626b377229c10585ec392f8a,626b392580c8a2837ca6cbdb,,,,,,,,,,,,,,,,,,,,,,,l,1,1.7999,"[""0.621"",""0.360"",""0.489"",""0.828""]","[0,1,1,1]",0,58,58,58,1,1,1,,,0,FALSE,,,,,,,,,,,,,,,,,,,,,,,,,,,,,,
,607f85f6c1ea0861504ac890,001,2022-04-28_21h02.55.840,classification_task,2021.2.3,Win32,60.73858115,607f85f6c1ea0861504ac890,626b377229c10585ec392f8a,626b392580c8a2837ca6cbdb,,,,,,,,,,,,,,,,,,,,,,,a,0,1.0501,"[""0.109"",""0.614"",""0.489"",""0.828""]","[1,0,1,1]",0,59,59,59,1,1,1,,,0,FALSE,,,,,,,,,,,,,,,,,,,,,,,,,,,,,,
,607f85f6c1ea0861504ac890,001,2022-04-28_21h02.55.840,classification_task,2021.2.3,Win32,60.73858115,607f85f6c1ea0861504ac890,626b377229c10585ec392f8a,626b392580c8a2837ca6cbdb,,,,,,,,,,,,,,,,,,,,,,,a,0,0.8146,"[""0.048"",""0.727"",""0.449"",""0.781""]","[1,0,1,1]",0,60,60,60,1,1,0,,,0,FALSE,,,,,,,,,,,,,,,,,,,,,,,,,,,,,,
,607f85f6c1ea0861504ac890,001,2022-04-28_21h02.55.840,classification_task,2021.2.3,Win32,60.73858115,607f85f6c1ea0861504ac890,626b377229c10585ec392f8a,626b392580c8a2837ca6cbdb,,,,,,,,,,,,,,,,,,,,,,,a,1,1.1496,"[""0.204"",""0.739"",""0.681"",""0.917""]","[1,0,1,1]",0,61,61,61,1,0,0,,,0,FALSE,,,,,,,,,,,,,,,,,,,,,,,,,,,,,,
,607f85f6c1ea0861504ac890,001,2022-04-28_21h02.55.840,classification_task,2021.2.3,Win32,60.73858115,607f85f6c1ea0861504ac890,626b377229c10585ec392f8a,626b392580c8a2837ca6cbdb,,,,,,,,,,,,,,,,,,,,,,,l,1,0.9995,"[""0.150"",""0.264"",""0.449"",""0.781""]","[0,1,1,1]",0,62,62,62,1,1,0,,,0,FALSE,,,,,,,,,,,,,,,,,,,,,,,,,,,,,,
,607f85f6c1ea0861504ac890,001,2022-04-28_21h02.55.840,classification_task,2021.2.3,Win32,60.73858115,607f85f6c1ea0861504ac890,626b377229c10585ec392f8a,626b392580c8a2837ca6cbdb,,,,,,,,,,,,,,,,,,,,,,,a,1,1.0828,"[""0.204"",""0.553"",""0.634"",""0.917""]","[1,1,0,1]",0,63,63,63,1,0,0,,,0,FALSE,,,,,,,,,,,,,,,,,,,,,,,,,,,,,,
,607f85f6c1ea0861504ac890,001,2022-04-28_21h02.55.840,classification_task,2021.2.3,Win32,60.73858115,607f85f6c1ea0861504ac890,626b377229c10585ec392f8a,626b392580c8a2837ca6cbdb,,,,,,,,,,,,,,,,,,,,,,,,,,,,,,,,,,,,,,,0, ,,0,10,352.4483,0,1,1,1,1,2,2,,,,,,,,,,,,,,,,,
,607f85f6c1ea0861504ac890,001,2022-04-28_21h02.55.840,classification_task,2021.2.3,Win32,60.73858115,607f85f6c1ea0861504ac890,626b377229c10585ec392f8a,626b392580c8a2837ca6cbdb,,,,,,,,,,,,,,,,,,,,,,,,,,,,,,,,,,,,,,,1,  ,,0,10,354.6646,0,1,1,1,1,2,2,,,,,,,,,,,,,,,,,
,607f85f6c1ea0861504ac890,001,2022-04-28_21h02.55.840,classification_task,2021.2.3,Win32,60.73858115,607f85f6c1ea0861504ac890,626b377229c10585ec392f8a,626b392580c8a2837ca6cbdb,,,,,,,,,,,,,,,,,,,,,,,,,,,,,,,,,,,,,,,2,  ,,0,1.968694885,359.0133,0,1,1,1,1,2,2,,,,,,,,,,,,,,,,,
,607f85f6c1ea0861504ac890,001,2022-04-28_21h02.55.840,classification_task,2021.2.3,Win32,60.73858115,607f85f6c1ea0861504ac890,626b377229c10585ec392f8a,626b392580c8a2837ca6cbdb,,,,,,,,,,,,,,,,,,,,,,,,,,,,,,,,,,,,,,,,,,,,,0,1,1,1,1,,2,,,,,,,,,,,,,,,,,
,607f85f6c1ea0861504ac890,001,2022-04-28_21h02.55.840,classification_task,2021.2.3,Win32,60.73858115,607f85f6c1ea0861504ac890,626b377229c10585ec392f8a,626b392580c8a2837ca6cbdb,,,,,,,,,,,,,,,,,,,,,space,6.7334,l,0,2.5123,"[""0.614"",""0.411"",""0.881"",""0.970""]","[0,1,1,1]",0,0,0,0,1,0,1,,,0,FALSE,,,,,,,,,,,,,,,,,,,,,,,,,,,,,,
,607f85f6c1ea0861504ac890,001,2022-04-28_21h02.55.840,classification_task,2021.2.3,Win32,60.73858115,607f85f6c1ea0861504ac890,626b377229c10585ec392f8a,626b392580c8a2837ca6cbdb,,,,,,,,,,,,,,,,,,,,,,,a,1,2.2665,"[""0.599"",""0.553"",""0.681"",""0.917""]","[0,1,1,1]",0,1,1,1,1,0,0,,,0,FALSE,,,,,,,,,,,,,,,,,,,,,,,,,,,,,,
,607f85f6c1ea0861504ac890,001,2022-04-28_21h02.55.840,classification_task,2021.2.3,Win32,60.73858115,607f85f6c1ea0861504ac890,626b377229c10585ec392f8a,626b392580c8a2837ca6cbdb,,,,,,,,,,,,,,,,,,,,,,,l,1,2.1003,"[""0.048"",""0.727"",""0.449"",""0.781""]","[1,0,1,1]",0,2,2,2,1,1,0,,,0,FALSE,,,,,,,,,,,,,,,,,,,,,,,,,,,,,,
,607f85f6c1ea0861504ac890,001,2022-04-28_21h02.55.840,classification_task,2021.2.3,Win32,60.73858115,607f85f6c1ea0861504ac890,626b377229c10585ec392f8a,626b392580c8a2837ca6cbdb,,,,,,,,,,,,,,,,,,,,,,,a,1,2.3334,"[""0.313"",""0.411"",""0.634"",""0.970""]","[1,1,0,1]",0,3,3,3,1,0,1,,,0,FALSE,,,,,,,,,,,,,,,,,,,,,,,,,,,,,,
,607f85f6c1ea0861504ac890,001,2022-04-28_21h02.55.840,classification_task,2021.2.3,Win32,60.73858115,607f85f6c1ea0861504ac890,626b377229c10585ec392f8a,626b392580c8a2837ca6cbdb,,,,,,,,,,,,,,,,,,,,,,,a,0,1.5335,"[""0.048"",""0.264"",""0.609"",""0.781""]","[1,1,0,1]",0,4,4,4,1,1,0,,,0,FALSE,,,,,,,,,,,,,,,,,,,,,,,,,,,,,,
,607f85f6c1ea0861504ac890,001,2022-04-28_21h02.55.840,classification_task,2021.2.3,Win32,60.73858115,607f85f6c1ea0861504ac890,626b377229c10585ec392f8a,626b392580c8a2837ca6cbdb,,,,,,,,,,,,,,,,,,,,,,,a,0,2.8332,"[""0.048"",""0.264"",""0.449"",""0.634""]","[1,1,1,0]",0,5,5,5,1,1,0,,,0,FALSE,,,,,,,,,,,,,,,,,,,,,,,,,,,,,,
,607f85f6c1ea0861504ac890,001,2022-04-28_21h02.55.840,classification_task,2021.2.3,Win32,60.73858115,607f85f6c1ea0861504ac890,626b377229c10585ec392f8a,626b392580c8a2837ca6cbdb,,,,,,,,,,,,,,,,,,,,,,,l,1,2.5833,"[""0.109"",""0.739"",""0.489"",""0.828""]","[1,0,1,1]",0,6,6,6,1,1,1,,,0,FALSE,,,,,,,,,,,,,,,,,,,,,,,,,,,,,,
,607f85f6c1ea0861504ac890,001,2022-04-28_21h02.55.840,classification_task,2021.2.3,Win32,60.73858115,607f85f6c1ea0861504ac890,626b377229c10585ec392f8a,626b392580c8a2837ca6cbdb,,,,,,,,,,,,,,,,,,,,,,,a,0,1.1668,"[""0.109"",""0.360"",""0.162"",""0.828""]","[1,1,0,1]",0,7,7,7,1,1,1,,,0,FALSE,,,,,,,,,,,,,,,,,,,,,,,,,,,,,,
,607f85f6c1ea0861504ac890,001,2022-04-28_21h02.55.840,classification_task,2021.2.3,Win32,60.73858115,607f85f6c1ea0861504ac890,626b377229c10585ec392f8a,626b392580c8a2837ca6cbdb,,,,,,,,,,,,,,,,,,,,,,,a,1,0.9836,"[""0.204"",""0.553"",""0.612"",""0.917""]","[1,1,0,1]",0,8,8,8,1,0,0,,,0,FALSE,,,,,,,,,,,,,,,,,,,,,,,,,,,,,,
,607f85f6c1ea0861504ac890,001,2022-04-28_21h02.55.840,classification_task,2021.2.3,Win32,60.73858115,607f85f6c1ea0861504ac890,626b377229c10585ec392f8a,626b392580c8a2837ca6cbdb,,,,,,,,,,,,,,,,,,,,,,,l,1,0.9839,"[""0.621"",""0.360"",""0.489"",""0.828""]","[0,1,1,1]",0,9,9,9,1,1,1,,,0,FALSE,,,,,,,,,,,,,,,,,,,,,,,,,,,,,,
,607f85f6c1ea0861504ac890,001,2022-04-28_21h02.55.840,classification_task,2021.2.3,Win32,60.73858115,607f85f6c1ea0861504ac890,626b377229c10585ec392f8a,626b392580c8a2837ca6cbdb,,,,,,,,,,,,,,,,,,,,,,,a,1,2.5662,"[""0.204"",""0.553"",""0.681"",""0.621""]","[1,1,1,0]",0,10,10,10,1,0,0,,,0,FALSE,,,,,,,,,,,,,,,,,,,,,,,,,,,,,,
,607f85f6c1ea0861504ac890,001,2022-04-28_21h02.55.840,classification_task,2021.2.3,Win32,60.73858115,607f85f6c1ea0861504ac890,626b377229c10585ec392f8a,626b392580c8a2837ca6cbdb,,,,,,,,,,,,,,,,,,,,,,,l,1,1.1171,"[""0.162"",""0.264"",""0.449"",""0.781""]","[0,1,1,1]",0,11,11,11,1,1,0,,,0,FALSE,,,,,,,,,,,,,,,,,,,,,,,,,,,,,,
,607f85f6c1ea0861504ac890,001,2022-04-28_21h02.55.840,classification_task,2021.2.3,Win32,60.73858115,607f85f6c1ea0861504ac890,626b377229c10585ec392f8a,626b392580c8a2837ca6cbdb,,,,,,,,,,,,,,,,,,,,,,,l,1,1.0504,"[""0.109"",""0.360"",""0.489"",""0.166""]","[1,1,1,0]",0,12,12,12,1,1,1,,,0,FALSE,,,,,,,,,,,,,,,,,,,,,,,,,,,,,,
,607f85f6c1ea0861504ac890,001,2022-04-28_21h02.55.840,classification_task,2021.2.3,Win32,60.73858115,607f85f6c1ea0861504ac890,626b377229c10585ec392f8a,626b392580c8a2837ca6cbdb,,,,,,,,,,,,,,,,,,,,,,,l,0,2.3,"[""0.313"",""0.614"",""0.881"",""0.970""]","[1,0,1,1]",0,13,13,13,1,0,1,,,0,FALSE,,,,,,,,,,,,,,,,,,,,,,,,,,,,,,
,607f85f6c1ea0861504ac890,001,2022-04-28_21h02.55.840,classification_task,2021.2.3,Win32,60.73858115,607f85f6c1ea0861504ac890,626b377229c10585ec392f8a,626b392580c8a2837ca6cbdb,,,,,,,,,,,,,,,,,,,,,,,a,1,1.4171,"[""0.204"",""0.150"",""0.681"",""0.917""]","[1,0,1,1]",0,14,14,14,1,0,0,,,0,FALSE,,,,,,,,,,,,,,,,,,,,,,,,,,,,,,
,607f85f6c1ea0861504ac890,001,2022-04-28_21h02.55.840,classification_task,2021.2.3,Win32,60.73858115,607f85f6c1ea0861504ac890,626b377229c10585ec392f8a,626b392580c8a2837ca6cbdb,,,,,,,,,,,,,,,,,,,,,,,a,1,2.1501,"[""0.313"",""0.411"",""0.881"",""0.634""]","[1,1,1,0]",0,15,15,15,1,0,1,,,0,FALSE,,,,,,,,,,,,,,,,,,,,,,,,,,,,,,
,607f85f6c1ea0861504ac890,001,2022-04-28_21h02.55.840,classification_task,2021.2.3,Win32,60.73858115,607f85f6c1ea0861504ac890,626b377229c10585ec392f8a,626b392580c8a2837ca6cbdb,,,,,,,,,,,,,,,,,,,,,,,a,1,1.9839,"[""0.204"",""0.150"",""0.681"",""0.917""]","[1,0,1,1]",0,16,16,16,1,0,0,,,0,FALSE,,,,,,,,,,,,,,,,,,,,,,,,,,,,,,
,607f85f6c1ea0861504ac890,001,2022-04-28_21h02.55.840,classification_task,2021.2.3,Win32,60.73858115,607f85f6c1ea0861504ac890,626b377229c10585ec392f8a,626b392580c8a2837ca6cbdb,,,,,,,,,,,,,,,,,,,,,,,l,1,1.3001,"[""0.109"",""0.599"",""0.489"",""0.828""]","[1,0,1,1]",0,17,17,17,1,1,1,,,0,FALSE,,,,,,,,,,,,,,,,,,,,,,,,,,,,,,
,607f85f6c1ea0861504ac890,001,2022-04-28_21h02.55.840,classification_task,2021.2.3,Win32,60.73858115,607f85f6c1ea0861504ac890,626b377229c10585ec392f8a,626b392580c8a2837ca6cbdb,,,,,,,,,,,,,,,,,,,,,,,l,0,1.3501,"[""0.313"",""0.411"",""0.881"",""0.621""]","[1,1,1,0]",0,18,18,18,1,0,1,,,0,FALSE,,,,,,,,,,,,,,,,,,,,,,,,,,,,,,
,607f85f6c1ea0861504ac890,001,2022-04-28_21h02.55.840,classification_task,2021.2.3,Win32,60.73858115,607f85f6c1ea0861504ac890,626b377229c10585ec392f8a,626b392580c8a2837ca6cbdb,,,,,,,,,,,,,,,,,,,,,,,l,1,1.9667,"[""0.048"",""0.264"",""0.166"",""0.781""]","[1,1,0,1]",0,19,19,19,1,1,0,,,0,FALSE,,,,,,,,,,,,,,,,,,,,,,,,,,,,,,
,607f85f6c1ea0861504ac890,001,2022-04-28_21h02.55.840,classification_task,2021.2.3,Win32,60.73858115,607f85f6c1ea0861504ac890,626b377229c10585ec392f8a,626b392580c8a2837ca6cbdb,,,,,,,,,,,,,,,,,,,,,,,l,0,1.3331,"[""0.313"",""0.411"",""0.739"",""0.970""]","[1,1,0,1]",0,20,20,20,1,0,1,,,0,FALSE,,,,,,,,,,,,,,,,,,,,,,,,,,,,,,
,607f85f6c1ea0861504ac890,001,2022-04-28_21h02.55.840,classification_task,2021.2.3,Win32,60.73858115,607f85f6c1ea0861504ac890,626b377229c10585ec392f8a,626b392580c8a2837ca6cbdb,,,,,,,,,,,,,,,,,,,,,,,l,0,0.9002,"[""0.313"",""0.739"",""0.881"",""0.970""]","[1,0,1,1]",0,21,21,21,1,0,1,,,0,FALSE,,,,,,,,,,,,,,,,,,,,,,,,,,,,,,
,607f85f6c1ea0861504ac890,001,2022-04-28_21h02.55.840,classification_task,2021.2.3,Win32,60.73858115,607f85f6c1ea0861504ac890,626b377229c10585ec392f8a,626b392580c8a2837ca6cbdb,,,,,,,,,,,,,,,,,,,,,,,a,0,2.0334,"[""0.614"",""0.264"",""0.449"",""0.781""]","[0,1,1,1]",0,22,22,22,1,1,0,,,0,FALSE,,,,,,,,,,,,,,,,,,,,,,,,,,,,,,
,607f85f6c1ea0861504ac890,001,2022-04-28_21h02.55.840,classification_task,2021.2.3,Win32,60.73858115,607f85f6c1ea0861504ac890,626b377229c10585ec392f8a,626b392580c8a2837ca6cbdb,,,,,,,,,,,,,,,,,,,,,,,l,0,1.2002,"[""0.204"",""0.553"",""0.681"",""0.634""]","[1,1,1,0]",0,23,23,23,1,0,0,,,0,FALSE,,,,,,,,,,,,,,,,,,,,,,,,,,,,,,
,607f85f6c1ea0861504ac890,001,2022-04-28_21h02.55.840,classification_task,2021.2.3,Win32,60.73858115,607f85f6c1ea0861504ac890,626b377229c10585ec392f8a,626b392580c8a2837ca6cbdb,,,,,,,,,,,,,,,,,,,,,,,a,0,1.2834,"[""0.048"",""0.627"",""0.449"",""0.781""]","[1,0,1,1]",0,24,24,24,1,1,0,,,0,FALSE,,,,,,,,,,,,,,,,,,,,,,,,,,,,,,
,607f85f6c1ea0861504ac890,001,2022-04-28_21h02.55.840,classification_task,2021.2.3,Win32,60.73858115,607f85f6c1ea0861504ac890,626b377229c10585ec392f8a,626b392580c8a2837ca6cbdb,,,,,,,,,,,,,,,,,,,,,,,l,0,1.7169,"[""0.606"",""0.411"",""0.881"",""0.970""]","[0,1,1,1]",0,25,25,25,1,0,1,,,0,FALSE,,,,,,,,,,,,,,,,,,,,,,,,,,,,,,
,607f85f6c1ea0861504ac890,001,2022-04-28_21h02.55.840,classification_task,2021.2.3,Win32,60.73858115,607f85f6c1ea0861504ac890,626b377229c10585ec392f8a,626b392580c8a2837ca6cbdb,,,,,,,,,,,,,,,,,,,,,,,a,0,0.8168,"[""0.048"",""0.264"",""0.449"",""0.729""]","[1,1,1,0]",0,26,26,26,1,1,0,,,0,FALSE,,,,,,,,,,,,,,,,,,,,,,,,,,,,,,
,607f85f6c1ea0861504ac890,001,2022-04-28_21h02.55.840,classification_task,2021.2.3,Win32,60.73858115,607f85f6c1ea0861504ac890,626b377229c10585ec392f8a,626b392580c8a2837ca6cbdb,,,,,,,,,,,,,,,,,,,,,,,l,1,2.8657,"[""0.109"",""0.360"",""0.729"",""0.828""]","[1,1,0,1]",0,27,27,27,1,1,1,,,0,FALSE,,,,,,,,,,,,,,,,,,,,,,,,,,,,,,
,607f85f6c1ea0861504ac890,001,2022-04-28_21h02.55.840,classification_task,2021.2.3,Win32,60.73858115,607f85f6c1ea0861504ac890,626b377229c10585ec392f8a,626b392580c8a2837ca6cbdb,,,,,,,,,,,,,,,,,,,,,,,l,0,1.8161,"[""0.204"",""0.553"",""0.729"",""0.917""]","[1,1,0,1]",0,28,28,28,1,0,0,,,0,FALSE,,,,,,,,,,,,,,,,,,,,,,,,,,,,,,
,607f85f6c1ea0861504ac890,001,2022-04-28_21h02.55.840,classification_task,2021.2.3,Win32,60.73858115,607f85f6c1ea0861504ac890,626b377229c10585ec392f8a,626b392580c8a2837ca6cbdb,,,,,,,,,,,,,,,,,,,,,,,a,0,1.2,"[""0.729"",""0.360"",""0.489"",""0.828""]","[0,1,1,1]",0,29,29,29,1,1,1,,,0,FALSE,,,,,,,,,,,,,,,,,,,,,,,,,,,,,,
,607f85f6c1ea0861504ac890,001,2022-04-28_21h02.55.840,classification_task,2021.2.3,Win32,60.73858115,607f85f6c1ea0861504ac890,626b377229c10585ec392f8a,626b392580c8a2837ca6cbdb,,,,,,,,,,,,,,,,,,,,,,,l,1,1.2,"[""0.109"",""0.360"",""0.489"",""0.614""]","[1,1,1,0]",0,30,30,30,1,1,1,,,0,FALSE,,,,,,,,,,,,,,,,,,,,,,,,,,,,,,
,607f85f6c1ea0861504ac890,001,2022-04-28_21h02.55.840,classification_task,2021.2.3,Win32,60.73858115,607f85f6c1ea0861504ac890,626b377229c10585ec392f8a,626b392580c8a2837ca6cbdb,,,,,,,,,,,,,,,,,,,,,,,a,1,2.8995,"[""0.634"",""0.553"",""0.681"",""0.917""]","[0,1,1,1]",0,31,31,31,1,0,0,,,0,FALSE,,,,,,,,,,,,,,,,,,,,,,,,,,,,,,
,607f85f6c1ea0861504ac890,001,2022-04-28_21h02.55.840,classification_task,2021.2.3,Win32,60.73858115,607f85f6c1ea0861504ac890,626b377229c10585ec392f8a,626b392580c8a2837ca6cbdb,,,,,,,,,,,,,,,,,,,,,,,l,0,2.2156,"[""0.204"",""0.553"",""0.739"",""0.917""]","[1,1,0,1]",0,32,32,32,1,0,0,,,0,FALSE,,,,,,,,,,,,,,,,,,,,,,,,,,,,,,
,607f85f6c1ea0861504ac890,001,2022-04-28_21h02.55.840,classification_task,2021.2.3,Win32,60.73858115,607f85f6c1ea0861504ac890,626b377229c10585ec392f8a,626b392580c8a2837ca6cbdb,,,,,,,,,,,,,,,,,,,,,,,l,1,1.0836,"[""0.048"",""0.264"",""0.634"",""0.781""]","[1,1,0,1]",0,33,33,33,1,1,0,,,0,FALSE,,,,,,,,,,,,,,,,,,,,,,,,,,,,,,
,607f85f6c1ea0861504ac890,001,2022-04-28_21h02.55.840,classification_task,2021.2.3,Win32,60.73858115,607f85f6c1ea0861504ac890,626b377229c10585ec392f8a,626b392580c8a2837ca6cbdb,,,,,,,,,,,,,,,,,,,,,,,a,0,0.9668,"[""0.109"",""0.150"",""0.489"",""0.828""]","[1,0,1,1]",0,34,34,34,1,1,1,,,0,FALSE,,,,,,,,,,,,,,,,,,,,,,,,,,,,,,
,607f85f6c1ea0861504ac890,001,2022-04-28_21h02.55.840,classification_task,2021.2.3,Win32,60.73858115,607f85f6c1ea0861504ac890,626b377229c10585ec392f8a,626b392580c8a2837ca6cbdb,,,,,,,,,,,,,,,,,,,,,,,l,0,1.0833,"[""0.614"",""0.553"",""0.681"",""0.917""]","[0,1,1,1]",0,35,35,35,1,0,0,,,0,FALSE,,,,,,,,,,,,,,,,,,,,,,,,,,,,,,
,607f85f6c1ea0861504ac890,001,2022-04-28_21h02.55.840,classification_task,2021.2.3,Win32,60.73858115,607f85f6c1ea0861504ac890,626b377229c10585ec392f8a,626b392580c8a2837ca6cbdb,,,,,,,,,,,,,,,,,,,,,,,l,1,1.0332,"[""0.109"",""0.360"",""0.606"",""0.828""]","[1,1,0,1]",0,36,36,36,1,1,1,,,0,FALSE,,,,,,,,,,,,,,,,,,,,,,,,,,,,,,
,607f85f6c1ea0861504ac890,001,2022-04-28_21h02.55.840,classification_task,2021.2.3,Win32,60.73858115,607f85f6c1ea0861504ac890,626b377229c10585ec392f8a,626b392580c8a2837ca6cbdb,,,,,,,,,,,,,,,,,,,,,,,a,0,0.9154,"[""0.048"",""0.264"",""0.449"",""0.599""]","[1,1,1,0]",0,37,37,37,1,1,0,,,0,FALSE,,,,,,,,,,,,,,,,,,,,,,,,,,,,,,
,607f85f6c1ea0861504ac890,001,2022-04-28_21h02.55.840,classification_task,2021.2.3,Win32,60.73858115,607f85f6c1ea0861504ac890,626b377229c10585ec392f8a,626b392580c8a2837ca6cbdb,,,,,,,,,,,,,,,,,,,,,,,a,0,1.1835,"[""0.048"",""0.612"",""0.449"",""0.781""]","[1,0,1,1]",0,38,38,38,1,1,0,,,0,FALSE,,,,,,,,,,,,,,,,,,,,,,,,,,,,,,
,607f85f6c1ea0861504ac890,001,2022-04-28_21h02.55.840,classification_task,2021.2.3,Win32,60.73858115,607f85f6c1ea0861504ac890,626b377229c10585ec392f8a,626b392580c8a2837ca6cbdb,,,,,,,,,,,,,,,,,,,,,,,l,0,1.4336,"[""0.313"",""0.411"",""0.881"",""0.739""]","[1,1,1,0]",0,39,39,39,1,0,1,,,0,FALSE,,,,,,,,,,,,,,,,,,,,,,,,,,,,,,
,607f85f6c1ea0861504ac890,001,2022-04-28_21h02.55.840,classification_task,2021.2.3,Win32,60.73858115,607f85f6c1ea0861504ac890,626b377229c10585ec392f8a,626b392580c8a2837ca6cbdb,,,,,,,,,,,,,,,,,,,,,,,l,0,0.8837,"[""0.739"",""0.411"",""0.881"",""0.970""]","[0,1,1,1]",0,40,40,40,1,0,1,,,0,FALSE,,,,,,,,,,,,,,,,,,,,,,,,,,,,,,
,607f85f6c1ea0861504ac890,001,2022-04-28_21h02.55.840,classification_task,2021.2.3,Win32,60.73858115,607f85f6c1ea0861504ac890,626b377229c10585ec392f8a,626b392580c8a2837ca6cbdb,,,,,,,,,,,,,,,,,,,,,,,l,0,1.2666,"[""0.313"",""0.411"",""0.609"",""0.970""]","[1,1,0,1]",0,41,41,41,1,0,1,,,0,FALSE,,,,,,,,,,,,,,,,,,,,,,,,,,,,,,
,607f85f6c1ea0861504ac890,001,2022-04-28_21h02.55.840,classification_task,2021.2.3,Win32,60.73858115,607f85f6c1ea0861504ac890,626b377229c10585ec392f8a,626b392580c8a2837ca6cbdb,,,,,,,,,,,,,,,,,,,,,,,a,0,0.8329,"[""0.109"",""0.360"",""0.489"",""0.634""]","[1,1,1,0]",0,42,42,42,1,1,1,,,0,FALSE,,,,,,,,,,,,,,,,,,,,,,,,,,,,,,
,607f85f6c1ea0861504ac890,001,2022-04-28_21h02.55.840,classification_task,2021.2.3,Win32,60.73858115,607f85f6c1ea0861504ac890,626b377229c10585ec392f8a,626b392580c8a2837ca6cbdb,,,,,,,,,,,,,,,,,,,,,,,a,1,1.6664,"[""0.204"",""0.553"",""0.681"",""0.621""]","[1,1,1,0]",0,43,43,43,1,0,0,,,0,FALSE,,,,,,,,,,,,,,,,,,,,,,,,,,,,,,
,607f85f6c1ea0861504ac890,001,2022-04-28_21h02.55.840,classification_task,2021.2.3,Win32,60.73858115,607f85f6c1ea0861504ac890,626b377229c10585ec392f8a,626b392580c8a2837ca6cbdb,,,,,,,,,,,,,,,,,,,,,,,a,0,1.1336,"[""0.729"",""0.360"",""0.489"",""0.828""]","[0,1,1,1]",0,44,44,44,1,1,1,,,0,FALSE,,,,,,,,,,,,,,,,,,,,,,,,,,,,,,
,607f85f6c1ea0861504ac890,001,2022-04-28_21h02.55.840,classification_task,2021.2.3,Win32,60.73858115,607f85f6c1ea0861504ac890,626b377229c10585ec392f8a,626b392580c8a2837ca6cbdb,,,,,,,,,,,,,,,,,,,,,,,l,0,0.5498,"[""0.313"",""0.729"",""0.881"",""0.970""]","[1,0,1,1]",0,45,45,45,1,0,1,,,0,FALSE,,,,,,,,,,,,,,,,,,,,,,,,,,,,,,
,607f85f6c1ea0861504ac890,001,2022-04-28_21h02.55.840,classification_task,2021.2.3,Win32,60.73858115,607f85f6c1ea0861504ac890,626b377229c10585ec392f8a,626b392580c8a2837ca6cbdb,,,,,,,,,,,,,,,,,,,,,,,a,0,3.1006,"[""0.614"",""0.264"",""0.449"",""0.781""]","[0,1,1,1]",0,46,46,46,1,1,0,,,0,FALSE,,,,,,,,,,,,,,,,,,,,,,,,,,,,,,
,607f85f6c1ea0861504ac890,001,2022-04-28_21h02.55.840,classification_task,2021.2.3,Win32,60.73858115,607f85f6c1ea0861504ac890,626b377229c10585ec392f8a,626b392580c8a2837ca6cbdb,,,,,,,,,,,,,,,,,,,,,,,a,1,1.2845,"[""0.204"",""0.739"",""0.681"",""0.917""]","[1,0,1,1]",0,47,47,47,1,0,0,,,0,FALSE,,,,,,,,,,,,,,,,,,,,,,,,,,,,,,
,607f85f6c1ea0861504ac890,001,2022-04-28_21h02.55.840,classification_task,2021.2.3,Win32,60.73858115,607f85f6c1ea0861504ac890,626b377229c10585ec392f8a,626b392580c8a2837ca6cbdb,,,,,,,,,,,,,,,,,,,,,,,l,1,0.3839,"[""0.109"",""0.360"",""0.634"",""0.828""]","[1,1,0,1]",0,48,48,48,1,1,1,,,0,FALSE,,,,,,,,,,,,,,,,,,,,,,,,,,,,,,
,607f85f6c1ea0861504ac890,001,2022-04-28_21h02.55.840,classification_task,2021.2.3,Win32,60.73858115,607f85f6c1ea0861504ac890,626b377229c10585ec392f8a,626b392580c8a2837ca6cbdb,,,,,,,,,,,,,,,,,,,,,,,l,0,0.7848,"[""0.599"",""0.411"",""0.881"",""0.970""]","[0,1,1,1]",0,49,49,49,1,0,1,,,0,FALSE,,,,,,,,,,,,,,,,,,,,,,,,,,,,,,
,607f85f6c1ea0861504ac890,001,2022-04-28_21h02.55.840,classification_task,2021.2.3,Win32,60.73858115,607f85f6c1ea0861504ac890,626b377229c10585ec392f8a,626b392580c8a2837ca6cbdb,,,,,,,,,,,,,,,,,,,,,,,l,1,1.4162,"[""0.048"",""0.729"",""0.449"",""0.781""]","[1,0,1,1]",0,50,50,50,1,1,0,,,0,FALSE,,,,,,,,,,,,,,,,,,,,,,,,,,,,,,
,607f85f6c1ea0861504ac890,001,2022-04-28_21h02.55.840,classification_task,2021.2.3,Win32,60.73858115,607f85f6c1ea0861504ac890,626b377229c10585ec392f8a,626b392580c8a2837ca6cbdb,,,,,,,,,,,,,,,,,,,,,,,a,1,1.1836,"[""0.204"",""0.553"",""0.166"",""0.917""]","[1,1,0,1]",0,51,51,51,1,0,0,,,0,FALSE,,,,,,,,,,,,,,,,,,,,,,,,,,,,,,
,607f85f6c1ea0861504ac890,001,2022-04-28_21h02.55.840,classification_task,2021.2.3,Win32,60.73858115,607f85f6c1ea0861504ac890,626b377229c10585ec392f8a,626b392580c8a2837ca6cbdb,,,,,,,,,,,,,,,,,,,,,,,l,0,1.2166,"[""0.204"",""0.599"",""0.681"",""0.917""]","[1,0,1,1]",0,52,52,52,1,0,0,,,0,FALSE,,,,,,,,,,,,,,,,,,,,,,,,,,,,,,
,607f85f6c1ea0861504ac890,001,2022-04-28_21h02.55.840,classification_task,2021.2.3,Win32,60.73858115,607f85f6c1ea0861504ac890,626b377229c10585ec392f8a,626b392580c8a2837ca6cbdb,,,,,,,,,,,,,,,,,,,,,,,a,0,2.7828,"[""0.739"",""0.360"",""0.489"",""0.828""]","[0,1,1,1]",0,53,53,53,1,1,1,,,0,FALSE,,,,,,,,,,,,,,,,,,,,,,,,,,,,,,
,607f85f6c1ea0861504ac890,001,2022-04-28_21h02.55.840,classification_task,2021.2.3,Win32,60.73858115,607f85f6c1ea0861504ac890,626b377229c10585ec392f8a,626b392580c8a2837ca6cbdb,,,,,,,,,,,,,,,,,,,,,,,l,1,0.9166,"[""0.609"",""0.264"",""0.449"",""0.781""]","[0,1,1,1]",0,54,54,54,1,1,0,,,0,FALSE,,,,,,,,,,,,,,,,,,,,,,,,,,,,,,
,607f85f6c1ea0861504ac890,001,2022-04-28_21h02.55.840,classification_task,2021.2.3,Win32,60.73858115,607f85f6c1ea0861504ac890,626b377229c10585ec392f8a,626b392580c8a2837ca6cbdb,,,,,,,,,,,,,,,,,,,,,,,l,0,1.8823,"[""0.313"",""0.411"",""0.614"",""0.970""]","[1,1,0,1]",0,55,55,55,1,0,1,,,0,FALSE,,,,,,,,,,,,,,,,,,,,,,,,,,,,,,
,607f85f6c1ea0861504ac890,001,2022-04-28_21h02.55.840,classification_task,2021.2.3,Win32,60.73858115,607f85f6c1ea0861504ac890,626b377229c10585ec392f8a,626b392580c8a2837ca6cbdb,,,,,,,,,,,,,,,,,,,,,,,a,0,0.6503,"[""0.048"",""0.264"",""0.449"",""0.609""]","[1,1,1,0]",0,56,56,56,1,1,0,,,0,FALSE,,,,,,,,,,,,,,,,,,,,,,,,,,,,,,
,607f85f6c1ea0861504ac890,001,2022-04-28_21h02.55.840,classification_task,2021.2.3,Win32,60.73858115,607f85f6c1ea0861504ac890,626b377229c10585ec392f8a,626b392580c8a2837ca6cbdb,,,,,,,,,,,,,,,,,,,,,,,a,0,0.8839,"[""0.109"",""0.360"",""0.489"",""0.166""]","[1,1,1,0]",0,57,57,57,1,1,1,,,0,FALSE,,,,,,,,,,,,,,,,,,,,,,,,,,,,,,
,607f85f6c1ea0861504ac890,001,2022-04-28_21h02.55.840,classification_task,2021.2.3,Win32,60.73858115,607f85f6c1ea0861504ac890,626b377229c10585ec392f8a,626b392580c8a2837ca6cbdb,,,,,,,,,,,,,,,,,,,,,,,a,0,1.7998,"[""0.048"",""0.264"",""0.627"",""0.781""]","[1,1,0,1]",0,58,58,58,1,1,0,,,0,FALSE,,,,,,,,,,,,,,,,,,,,,,,,,,,,,,
,607f85f6c1ea0861504ac890,001,2022-04-28_21h02.55.840,classification_task,2021.2.3,Win32,60.73858115,607f85f6c1ea0861504ac890,626b377229c10585ec392f8a,626b392580c8a2837ca6cbdb,,,,,,,,,,,,,,,,,,,,,,,l,1,1.4825,"[""0.109"",""0.727"",""0.489"",""0.828""]","[1,0,1,1]",0,59,59,59,1,1,1,,,0,FALSE,,,,,,,,,,,,,,,,,,,,,,,,,,,,,,
,607f85f6c1ea0861504ac890,001,2022-04-28_21h02.55.840,classification_task,2021.2.3,Win32,60.73858115,607f85f6c1ea0861504ac890,626b377229c10585ec392f8a,626b392580c8a2837ca6cbdb,,,,,,,,,,,,,,,,,,,,,,,l,0,2.8663,"[""0.313"",""0.166"",""0.881"",""0.970""]","[1,0,1,1]",0,60,60,60,1,0,1,,,0,FALSE,,,,,,,,,,,,,,,,,,,,,,,,,,,,,,
,607f85f6c1ea0861504ac890,001,2022-04-28_21h02.55.840,classification_task,2021.2.3,Win32,60.73858115,607f85f6c1ea0861504ac890,626b377229c10585ec392f8a,626b392580c8a2837ca6cbdb,,,,,,,,,,,,,,,,,,,,,,,l,0,1.6494,"[""0.313"",""0.411"",""0.881"",""0.634""]","[1,1,1,0]",0,61,61,61,1,0,1,,,0,FALSE,,,,,,,,,,,,,,,,,,,,,,,,,,,,,,
,607f85f6c1ea0861504ac890,001,2022-04-28_21h02.55.840,classification_task,2021.2.3,Win32,60.73858115,607f85f6c1ea0861504ac890,626b377229c10585ec392f8a,626b392580c8a2837ca6cbdb,,,,,,,,,,,,,,,,,,,,,,,a,1,1.2829,"[""0.204"",""0.553"",""0.681"",""0.621""]","[1,1,1,0]",0,62,62,62,1,0,0,,,0,FALSE,,,,,,,,,,,,,,,,,,,,,,,,,,,,,,
,607f85f6c1ea0861504ac890,001,2022-04-28_21h02.55.840,classification_task,2021.2.3,Win32,60.73858115,607f85f6c1ea0861504ac890,626b377229c10585ec392f8a,626b392580c8a2837ca6cbdb,,,,,,,,,,,,,,,,,,,,,,,l,0,1.0499,"[""0.739"",""0.553"",""0.681"",""0.917""]","[0,1,1,1]",0,63,63,63,1,0,0,,,0,FALSE,,,,,,,,,,,,,,,,,,,,,,,,,,,,,,
,607f85f6c1ea0861504ac890,001,2022-04-28_21h02.55.840,classification_task,2021.2.3,Win32,60.73858115,607f85f6c1ea0861504ac890,626b377229c10585ec392f8a,626b392580c8a2837ca6cbdb,,,,,,,,,,,,,,,,,,,,,,,,,,,,,,,,,,,,,,,0, ,,0,10,174.8329,0,2,2,2,1,2,3,,,,,,,,,,,,,,,,,
,607f85f6c1ea0861504ac890,001,2022-04-28_21h02.55.840,classification_task,2021.2.3,Win32,60.73858115,607f85f6c1ea0861504ac890,626b377229c10585ec392f8a,626b392580c8a2837ca6cbdb,,,,,,,,,,,,,,,,,,,,,,,,,,,,,,,,,,,,,,,1,  ,,0,7.066798942,176.9241,0,2,2,2,1,2,3,,,,,,,,,,,,,,,,,
,607f85f6c1ea0861504ac890,001,2022-04-28_21h02.55.840,classification_task,2021.2.3,Win32,60.73858115,607f85f6c1ea0861504ac890,626b377229c10585ec392f8a,626b392580c8a2837ca6cbdb,,,,,,,,,,,,,,,,,,,,,,,,,,,,,,,,,,,,,,,2,  ,,0,4.345513668,181.1228,0,2,2,2,1,2,3,,,,,,,,,,,,,,,,,
,607f85f6c1ea0861504ac890,001,2022-04-28_21h02.55.840,classification_task,2021.2.3,Win32,60.73858115,607f85f6c1ea0861504ac890,626b377229c10585ec392f8a,626b392580c8a2837ca6cbdb,,,,,,,,,,,,,,,,,,,,,,,,,,,,,,,,,,,,,,,,,,,,,0,2,2,2,1,,3,,,,,,,,,,,,,,,,,
,607f85f6c1ea0861504ac890,001,2022-04-28_21h02.55.840,classification_task,2021.2.3,Win32,60.73858115,607f85f6c1ea0861504ac890,626b377229c10585ec392f8a,626b392580c8a2837ca6cbdb,,,,,,,,,,,,,,,,,,,,,,,,,,,,,,,,,,,,,,,,,,,,,,,,,,,,,I believe the aid is a competent performer,,0.7,0,5,1166.8909,0,0,0,0,1,0,,,,
,607f85f6c1ea0861504ac890,001,2022-04-28_21h02.55.840,classification_task,2021.2.3,Win32,60.73858115,607f85f6c1ea0861504ac890,626b377229c10585ec392f8a,626b392580c8a2837ca6cbdb,,,,,,,,,,,,,,,,,,,,,,,,,,,,,,,,,,,,,,,,,,,,,,,,,,,,,I trust the aid,,0.7,0,5,1168.2258,0,0,0,0,1,0,,,,
,607f85f6c1ea0861504ac890,001,2022-04-28_21h02.55.840,classification_task,2021.2.3,Win32,60.73858115,607f85f6c1ea0861504ac890,626b377229c10585ec392f8a,626b392580c8a2837ca6cbdb,,,,,,,,,,,,,,,,,,,,,,,,,,,,,,,,,,,,,,,,,,,,,,,,,,,,,I have confidence in the advice given by the aid,,0.7,0,5,1170.1467,0,0,0,0,1,0,,,,
,607f85f6c1ea0861504ac890,001,2022-04-28_21h02.55.840,classification_task,2021.2.3,Win32,60.73858115,607f85f6c1ea0861504ac890,626b377229c10585ec392f8a,626b392580c8a2837ca6cbdb,,,,,,,,,,,,,,,,,,,,,,,,,,,,,,,,,,,,,,,,,,,,,,,,,,,,,I can depend on the aid,,0.7,0,4,1172.8493,0,0,0,0,1,0,,,,
,607f85f6c1ea0861504ac890,001,2022-04-28_21h02.55.840,classification_task,2021.2.3,Win32,60.73858115,607f85f6c1ea0861504ac890,626b377229c10585ec392f8a,626b392580c8a2837ca6cbdb,,,,,,,,,,,,,,,,,,,,,,,,,,,,,,,,,,,,,,,,,,,,,,,,,,,,,I can rely on the aid to behave in consistent ways,,0.7,0,4,1175.741,0,0,0,0,1,0,,,,
,607f85f6c1ea0861504ac890,001,2022-04-28_21h02.55.840,classification_task,2021.2.3,Win32,60.73858115,607f85f6c1ea0861504ac890,626b377229c10585ec392f8a,626b392580c8a2837ca6cbdb,,,,,,,,,,,,,,,,,,,,,,,,,,,,,,,,,,,,,,,,,,,,,,,,,,,,,I can rely on the aid to do its best every time I take its advice,,0.7,0,4,1184.4393,0,0,0,0,1,0,,,,
,607f85f6c1ea0861504ac890,001,2022-04-28_21h02.55.840,classification_task,2021.2.3,Win32,60.73858115,607f85f6c1ea0861504ac890,626b377229c10585ec392f8a,626b392580c8a2837ca6cbdb,,,,,,,,,,,,,,,,,,,,,,,,,,,,,,,,,,,,,,,,,,,,,,,,,,,,,"On trials you completed with assistance from the aid, how frequently did you think the aid was correct?",,0.7,0,80%,,0,0,0,0,1,0,,,,
,607f85f6c1ea0861504ac890,001,2022-04-28_21h02.55.840,classification_task,2021.2.3,Win32,60.73858115,607f85f6c1ea0861504ac890,626b377229c10585ec392f8a,626b392580c8a2837ca6cbdb,,,,,,,,,,,,,,,,,,,,,,,,,,,,,,,,,,,,,,,,,,,,,,,,,,,,,"On trials you completed without the aid, how frequently did you think you were correct?",,0.7,0,45%,,0,0,0,0,1,0,,,,
,607f85f6c1ea0861504ac890,001,2022-04-28_21h02.55.840,classification_task,2021.2.3,Win32,60.73858115,607f85f6c1ea0861504ac890,626b377229c10585ec392f8a,626b392580c8a2837ca6cbdb,,,,,,,,,,,,,,,,,,,,,,,,,,,,,,,,,,,,,,,,,,,,,,,,,,,,,,,,,,,0,0,0,0,1,,,,,
,607f85f6c1ea0861504ac890,001,2022-04-28_21h02.55.840,classification_task,2021.2.3,Win32,60.73858115,607f85f6c1ea0861504ac890,626b377229c10585ec392f8a,626b392580c8a2837ca6cbdb,,,,,,,,,,,,,,,,,,,,,,,,,,,,,,,,,,,,,,,,,,,,,,,,,,,,,,,,,,,,,,,,,space,6.1348,1203.8904,
,607f85f6c1ea0861504ac890,001,2022-04-28_21h02.55.840,classification_task,2021.2.3,Win32,60.73858115,607f85f6c1ea0861504ac890,626b377229c10585ec392f8a,626b392580c8a2837ca6cbdb,,,,,,,,,,,,,,,,,,,,,,,,,,,,,,,,,,,,,,,,,,,,,,,,,,,,,,,,,,,,,,,,,,,,"Mozilla/5.0 (Windows NT 10.0; Win64; x64) AppleWebKit/537.36 (KHTML, like Gecko) Chrome/99.0.4844.84 Safari/537.36 OPR/85.0.4341.75"
