usingWebGL,participant,session,date,expName,psychopyVersion,OS,frameRate,study_id,signatures_friend,signatures_foe,band_ranges_top,band_ranges_bottom,formitemText,formtype,formundefined,formitemWidth,formindex,formresponse,formrt,key_resp_2.keys,key_resp_2.rt,tute_resp.keys,tute_resp.rt,tutorial.thisRepN,tutorial.thisTrialN,tutorial.thisN,tutorial.thisIndex,tutorial.ran,key_resp_4.keys,key_resp_4.rt,key_resp.keys,key_resp.corr,key_resp.rt,lines_presented,is_signal_presented,trials.thisRepN,trials.thisTrialN,trials.thisN,trials.thisIndex,trials.ran,vessel,active_band,lines,is_signal,supported_pos,catch_trial,debrief_formindex,debrief_formitemText,debrief_formtype,debrief_formitemWidth,debrief_formresponse,debrief_formrt,phases.thisRepN,phases.thisTrialN,phases.thisN,phases.thisIndex,phases.ran,phases.order,phase,key_resp_3.keys,trustitemText,trusttype,trustitemWidth,trustindex,trustresponse,trustrt,support_status.thisRepN,support_status.thisTrialN,support_status.thisN,support_status.thisIndex,support_status.ran,support_status.order,key_resp_5.keys,key_resp_5.rt,globalClockTime,userAgent,manualCondition
TRUE,608252263bd38a91cf28c121,627c69960b1eff972bd1fead,2022-05-11_21h57.57.442,classification_task,2021.2.3,Win32,59.81934558,627c6715c52fd12f31907bcf,,,,,,,,,,,,,,,,,,,,,,,,,,,,,,,,,,,,,,,,,,,,,,,,,,,,,,,,,,,,,,,,,,,,,
,608252263bd38a91cf28c121,627c69960b1eff972bd1fead,2022-05-11_21h57.57.442,classification_task,2021.2.3,Win32,59.81934558,627c6715c52fd12f31907bcf,"[[""0.288"",""0.419"",""0.844"",""0.931""],[""0.177"",""0.472"",""0.888"",""0.967""]]","[[""0.035"",""0.232"",""0.521"",""0.788""],[""0.104"",""0.372"",""0.556"",""0.734""]]","[1,10]","[100,1000]",Video game experience,,,0.7,0,,,,,,,,,,,,,,,,,,,,,,,,,,,,,,,,,,,,,,,,,,,,,,,,,,,,,,,,,,,,
,608252263bd38a91cf28c121,627c69960b1eff972bd1fead,2022-05-11_21h57.57.442,classification_task,2021.2.3,Win32,59.81934558,627c6715c52fd12f31907bcf,,,,,Approximately how many hours did you spend playing video games in the last week?,,,0.7,0,3,,,,,,,,,,,,,,,,,,,,,,,,,,,,,,,,,,,,,,,,,,,,,,,,,,,,,,,,,,,
,608252263bd38a91cf28c121,627c69960b1eff972bd1fead,2022-05-11_21h57.57.442,classification_task,2021.2.3,Win32,59.81934558,627c6715c52fd12f31907bcf,,,,,"Which game did you play the most this year? (Enter ""None"" if you didn't play any)",,,0.7,0,Apex Legends,,,,,,,,,,,,,,,,,,,,,,,,,,,,,,,,,,,,,,,,,,,,,,,,,,,,,,,,,,,
,608252263bd38a91cf28c121,627c69960b1eff972bd1fead,2022-05-11_21h57.57.442,classification_task,2021.2.3,Win32,59.81934558,627c6715c52fd12f31907bcf,,,,,Visual perception,,,0.7,0,,,,,,,,,,,,,,,,,,,,,,,,,,,,,,,,,,,,,,,,,,,,,,,,,,,,,,,,,,,,
,608252263bd38a91cf28c121,627c69960b1eff972bd1fead,2022-05-11_21h57.57.442,classification_task,2021.2.3,Win32,59.81934558,627c6715c52fd12f31907bcf,,,,,Do you have any form of color blindness?,,,0.7,0,No,24.7729,,,,,,,,,,,,,,,,,,,,,,,,,,,,,,,,,,,,,,,,,,,,,,,,,,,,,,,,,,
,608252263bd38a91cf28c121,627c69960b1eff972bd1fead,2022-05-11_21h57.57.442,classification_task,2021.2.3,Win32,59.81934558,627c6715c52fd12f31907bcf,,,,,Do you use software to change the colour temperature of your screen (e.g. f.lux)?,,,0.7,0,No,26.7466,,,,,,,,,,,,,,,,,,,,,,,,,,,,,,,,,,,,,,,,,,,,,,,,,,,,,,,,,,
,608252263bd38a91cf28c121,627c69960b1eff972bd1fead,2022-05-11_21h57.57.442,classification_task,2021.2.3,Win32,59.81934558,627c6715c52fd12f31907bcf,,,,,,,,,,,,space,12.5907,space,8.9666,0,0,0,0,1,,,,,,,,,,,,,,,,,,,,,,,,,,,,,,,,,,,,,,,,,,,,,,,,,
,608252263bd38a91cf28c121,627c69960b1eff972bd1fead,2022-05-11_21h57.57.442,classification_task,2021.2.3,Win32,59.81934558,627c6715c52fd12f31907bcf,,,,,,,,,,,,,,space,4.3647,1,0,1,0,1,,,,,,,,,,,,,,,,,,,,,,,,,,,,,,,,,,,,,,,,,,,,,,,,,
,608252263bd38a91cf28c121,627c69960b1eff972bd1fead,2022-05-11_21h57.57.442,classification_task,2021.2.3,Win32,59.81934558,627c6715c52fd12f31907bcf,,,,,,,,,,,,,,space,9.0859,2,0,2,0,1,,,,,,,,,,,,,,,,,,,,,,,,,,,,,,,,,,,,,,,,,,,,,,,,,
,608252263bd38a91cf28c121,627c69960b1eff972bd1fead,2022-05-11_21h57.57.442,classification_task,2021.2.3,Win32,59.81934558,627c6715c52fd12f31907bcf,,,,,,,,,,,,,,space,12.2685,3,0,3,0,1,,,,,,,,,,,,,,,,,,,,,,,,,,,,,,,,,,,,,,,,,,,,,,,,,
,608252263bd38a91cf28c121,627c69960b1eff972bd1fead,2022-05-11_21h57.57.442,classification_task,2021.2.3,Win32,59.81934558,627c6715c52fd12f31907bcf,,,,,,,,,,,,,,space,9.0857,4,0,4,0,1,,,,,,,,,,,,,,,,,,,,,,,,,,,,,,,,,,,,,,,,,,,,,,,,,
,608252263bd38a91cf28c121,627c69960b1eff972bd1fead,2022-05-11_21h57.57.442,classification_task,2021.2.3,Win32,59.81934558,627c6715c52fd12f31907bcf,,,,,,,,,,,,,,,,,,,,,space,8.1396,a,0,8.6888,"[""0.035"",""0.232"",""0.621"",""0.788""]","[1,1,0,1]",0,0,0,0,1,1,0,,,1,FALSE,,,,,,,,,,,,,,,,,,,,,,,,,,,,,,,
,608252263bd38a91cf28c121,627c69960b1eff972bd1fead,2022-05-11_21h57.57.442,classification_task,2021.2.3,Win32,59.81934558,627c6715c52fd12f31907bcf,,,,,,,,,,,,,,,,,,,,,,,a,1,6.5803,"[""0.177"",""0.472"",""0.888"",""0.613""]","[1,1,1,0]",0,1,1,1,1,0,1,,,1,FALSE,,,,,,,,,,,,,,,,,,,,,,,,,,,,,,,
,608252263bd38a91cf28c121,627c69960b1eff972bd1fead,2022-05-11_21h57.57.442,classification_task,2021.2.3,Win32,59.81934558,627c6715c52fd12f31907bcf,,,,,,,,,,,,,,,,,,,,,,,l,0,4.9671,"[""0.177"",""0.647"",""0.888"",""0.967""]","[1,0,1,1]",0,2,2,2,1,0,1,,,1,FALSE,,,,,,,,,,,,,,,,,,,,,,,,,,,,,,,
,608252263bd38a91cf28c121,627c69960b1eff972bd1fead,2022-05-11_21h57.57.442,classification_task,2021.2.3,Win32,59.81934558,627c6715c52fd12f31907bcf,,,,,,,,,,,,,,,,,,,,,,,a,1,1.7993,"[""0.597"",""0.419"",""0.844"",""0.931""]","[0,1,1,1]",0,3,3,3,1,0,0,,,1,FALSE,,,,,,,,,,,,,,,,,,,,,,,,,,,,,,,
,608252263bd38a91cf28c121,627c69960b1eff972bd1fead,2022-05-11_21h57.57.442,classification_task,2021.2.3,Win32,59.81934558,627c6715c52fd12f31907bcf,,,,,,,,,,,,,,,,,,,,,,,l,0,3.6509,"[""0.177"",""0.472"",""0.672"",""0.967""]","[1,1,0,1]",0,4,4,4,1,0,1,,,1,FALSE,,,,,,,,,,,,,,,,,,,,,,,,,,,,,,,
,608252263bd38a91cf28c121,627c69960b1eff972bd1fead,2022-05-11_21h57.57.442,classification_task,2021.2.3,Win32,59.81934558,627c6715c52fd12f31907bcf,,,,,,,,,,,,,,,,,,,,,,,l,1,7.6692,"[""0.618"",""0.372"",""0.556"",""0.734""]","[0,1,1,1]",0,5,5,5,1,1,1,,,1,FALSE,,,,,,,,,,,,,,,,,,,,,,,,,,,,,,,
,608252263bd38a91cf28c121,627c69960b1eff972bd1fead,2022-05-11_21h57.57.442,classification_task,2021.2.3,Win32,59.81934558,627c6715c52fd12f31907bcf,,,,,,,,,,,,,,,,,,,,,,,a,1,2.4342,"[""0.288"",""0.419"",""0.844"",""0.618""]","[1,1,1,0]",0,6,6,6,1,0,0,,,1,FALSE,,,,,,,,,,,,,,,,,,,,,,,,,,,,,,,
,608252263bd38a91cf28c121,627c69960b1eff972bd1fead,2022-05-11_21h57.57.442,classification_task,2021.2.3,Win32,59.81934558,627c6715c52fd12f31907bcf,,,,,,,,,,,,,,,,,,,,,,,a,0,1.5172,"[""0.035"",""0.070"",""0.521"",""0.788""]","[1,0,1,1]",0,7,7,7,1,1,0,,,1,FALSE,,,,,,,,,,,,,,,,,,,,,,,,,,,,,,,
,608252263bd38a91cf28c121,627c69960b1eff972bd1fead,2022-05-11_21h57.57.442,classification_task,2021.2.3,Win32,59.81934558,627c6715c52fd12f31907bcf,,,,,,,,,,,,,,,,,,,,,,,a,1,1.5352,"[""0.288"",""0.621"",""0.844"",""0.931""]","[1,0,1,1]",0,8,8,8,1,0,0,,,1,FALSE,,,,,,,,,,,,,,,,,,,,,,,,,,,,,,,
,608252263bd38a91cf28c121,627c69960b1eff972bd1fead,2022-05-11_21h57.57.442,classification_task,2021.2.3,Win32,59.81934558,627c6715c52fd12f31907bcf,,,,,,,,,,,,,,,,,,,,,,,l,1,5.218,"[""0.104"",""0.372"",""0.556"",""0.656""]","[1,1,1,0]",0,9,9,9,1,1,1,,,1,FALSE,,,,,,,,,,,,,,,,,,,,,,,,,,,,,,,
,608252263bd38a91cf28c121,627c69960b1eff972bd1fead,2022-05-11_21h57.57.442,classification_task,2021.2.3,Win32,59.81934558,627c6715c52fd12f31907bcf,,,,,,,,,,,,,,,,,,,,,,,a,0,1.8835,"[""0.035"",""0.232"",""0.521"",""0.699""]","[1,1,1,0]",0,10,10,10,1,1,0,,,1,FALSE,,,,,,,,,,,,,,,,,,,,,,,,,,,,,,,
,608252263bd38a91cf28c121,627c69960b1eff972bd1fead,2022-05-11_21h57.57.442,classification_task,2021.2.3,Win32,59.81934558,627c6715c52fd12f31907bcf,,,,,,,,,,,,,,,,,,,,,,,l,1,2.0515,"[""0.104"",""0.372"",""0.606"",""0.734""]","[1,1,0,1]",0,11,11,11,1,1,1,,,1,FALSE,,,,,,,,,,,,,,,,,,,,,,,,,,,,,,,
,608252263bd38a91cf28c121,627c69960b1eff972bd1fead,2022-05-11_21h57.57.442,classification_task,2021.2.3,Win32,59.81934558,627c6715c52fd12f31907bcf,,,,,,,,,,,,,,,,,,,,,,,a,1,1.5482,"[""0.288"",""0.419"",""0.692"",""0.931""]","[1,1,0,1]",0,12,12,12,1,0,0,,,1,FALSE,,,,,,,,,,,,,,,,,,,,,,,,,,,,,,,
,608252263bd38a91cf28c121,627c69960b1eff972bd1fead,2022-05-11_21h57.57.442,classification_task,2021.2.3,Win32,59.81934558,627c6715c52fd12f31907bcf,,,,,,,,,,,,,,,,,,,,,,,l,0,1.7162,"[""0.672"",""0.472"",""0.888"",""0.967""]","[0,1,1,1]",0,13,13,13,1,0,1,,,1,FALSE,,,,,,,,,,,,,,,,,,,,,,,,,,,,,,,
,608252263bd38a91cf28c121,627c69960b1eff972bd1fead,2022-05-11_21h57.57.442,classification_task,2021.2.3,Win32,59.81934558,627c6715c52fd12f31907bcf,,,,,,,,,,,,,,,,,,,,,,,a,0,3.0182,"[""0.104"",""0.647"",""0.556"",""0.734""]","[1,0,1,1]",0,14,14,14,1,1,1,,,1,FALSE,,,,,,,,,,,,,,,,,,,,,,,,,,,,,,,
,608252263bd38a91cf28c121,627c69960b1eff972bd1fead,2022-05-11_21h57.57.442,classification_task,2021.2.3,Win32,59.81934558,627c6715c52fd12f31907bcf,,,,,,,,,,,,,,,,,,,,,,,l,1,1.6658,"[""0.671"",""0.232"",""0.521"",""0.788""]","[0,1,1,1]",0,15,15,15,1,1,0,,,1,FALSE,,,,,,,,,,,,,,,,,,,,,,,,,,,,,,,
,608252263bd38a91cf28c121,627c69960b1eff972bd1fead,2022-05-11_21h57.57.442,classification_task,2021.2.3,Win32,59.81934558,627c6715c52fd12f31907bcf,,,,,,,,,,,,,,,,,,,,,,,l,0,1.2002,"[""0.288"",""0.419"",""0.844"",""0.070""]","[1,1,1,0]",0,16,16,16,1,0,0,,,1,FALSE,,,,,,,,,,,,,,,,,,,,,,,,,,,,,,,
,608252263bd38a91cf28c121,627c69960b1eff972bd1fead,2022-05-11_21h57.57.442,classification_task,2021.2.3,Win32,59.81934558,627c6715c52fd12f31907bcf,,,,,,,,,,,,,,,,,,,,,,,l,1,1.2669,"[""0.035"",""0.232"",""0.622"",""0.788""]","[1,1,0,1]",0,17,17,17,1,1,0,,,1,FALSE,,,,,,,,,,,,,,,,,,,,,,,,,,,,,,,
,608252263bd38a91cf28c121,627c69960b1eff972bd1fead,2022-05-11_21h57.57.442,classification_task,2021.2.3,Win32,59.81934558,627c6715c52fd12f31907bcf,,,,,,,,,,,,,,,,,,,,,,,a,0,0.8486,"[""0.035"",""0.232"",""0.521"",""0.613""]","[1,1,1,0]",0,18,18,18,1,1,0,,,1,FALSE,,,,,,,,,,,,,,,,,,,,,,,,,,,,,,,
,608252263bd38a91cf28c121,627c69960b1eff972bd1fead,2022-05-11_21h57.57.442,classification_task,2021.2.3,Win32,59.81934558,627c6715c52fd12f31907bcf,,,,,,,,,,,,,,,,,,,,,,,l,0,0.6771,"[""0.177"",""0.472"",""0.656"",""0.967""]","[1,1,0,1]",0,19,19,19,1,0,1,,,1,FALSE,,,,,,,,,,,,,,,,,,,,,,,,,,,,,,,
,608252263bd38a91cf28c121,627c69960b1eff972bd1fead,2022-05-11_21h57.57.442,classification_task,2021.2.3,Win32,59.81934558,627c6715c52fd12f31907bcf,,,,,,,,,,,,,,,,,,,,,,,l,1,2.5154,"[""0.035"",""0.613"",""0.521"",""0.788""]","[1,0,1,1]",0,20,20,20,1,1,0,,,1,FALSE,,,,,,,,,,,,,,,,,,,,,,,,,,,,,,,
,608252263bd38a91cf28c121,627c69960b1eff972bd1fead,2022-05-11_21h57.57.442,classification_task,2021.2.3,Win32,59.81934558,627c6715c52fd12f31907bcf,,,,,,,,,,,,,,,,,,,,,,,l,1,1.901,"[""0.104"",""0.613"",""0.556"",""0.734""]","[1,0,1,1]",0,21,21,21,1,1,1,,,1,FALSE,,,,,,,,,,,,,,,,,,,,,,,,,,,,,,,
,608252263bd38a91cf28c121,627c69960b1eff972bd1fead,2022-05-11_21h57.57.442,classification_task,2021.2.3,Win32,59.81934558,627c6715c52fd12f31907bcf,,,,,,,,,,,,,,,,,,,,,,,a,1,1.5691,"[""0.288"",""0.688"",""0.844"",""0.931""]","[1,0,1,1]",0,22,22,22,1,0,0,,,1,FALSE,,,,,,,,,,,,,,,,,,,,,,,,,,,,,,,
,608252263bd38a91cf28c121,627c69960b1eff972bd1fead,2022-05-11_21h57.57.442,classification_task,2021.2.3,Win32,59.81934558,627c6715c52fd12f31907bcf,,,,,,,,,,,,,,,,,,,,,,,a,0,1.0197,"[""0.622"",""0.372"",""0.556"",""0.734""]","[0,1,1,1]",0,23,23,23,1,1,1,,,1,FALSE,,,,,,,,,,,,,,,,,,,,,,,,,,,,,,,
,608252263bd38a91cf28c121,627c69960b1eff972bd1fead,2022-05-11_21h57.57.442,classification_task,2021.2.3,Win32,59.81934558,627c6715c52fd12f31907bcf,,,,,,,,,,,,,,,,,,,,,,,l,0,1.5003,"[""0.177"",""0.472"",""0.888"",""0.692""]","[1,1,1,0]",0,24,24,24,1,0,1,,,1,FALSE,,,,,,,,,,,,,,,,,,,,,,,,,,,,,,,
,608252263bd38a91cf28c121,627c69960b1eff972bd1fead,2022-05-11_21h57.57.442,classification_task,2021.2.3,Win32,59.81934558,627c6715c52fd12f31907bcf,,,,,,,,,,,,,,,,,,,,,,,l,0,0.7328,"[""0.621"",""0.472"",""0.888"",""0.967""]","[0,1,1,1]",0,25,25,25,1,0,1,,,1,FALSE,,,,,,,,,,,,,,,,,,,,,,,,,,,,,,,
,608252263bd38a91cf28c121,627c69960b1eff972bd1fead,2022-05-11_21h57.57.442,classification_task,2021.2.3,Win32,59.81934558,627c6715c52fd12f31907bcf,,,,,,,,,,,,,,,,,,,,,,,l,1,0.7302,"[""0.672"",""0.232"",""0.521"",""0.788""]","[0,1,1,1]",0,26,26,26,1,1,0,,,1,FALSE,,,,,,,,,,,,,,,,,,,,,,,,,,,,,,,
,608252263bd38a91cf28c121,627c69960b1eff972bd1fead,2022-05-11_21h57.57.442,classification_task,2021.2.3,Win32,59.81934558,627c6715c52fd12f31907bcf,,,,,,,,,,,,,,,,,,,,,,,a,0,0.5664,"[""0.104"",""0.372"",""0.556"",""0.621""]","[1,1,1,0]",0,27,27,27,1,1,1,,,1,FALSE,,,,,,,,,,,,,,,,,,,,,,,,,,,,,,,
,608252263bd38a91cf28c121,627c69960b1eff972bd1fead,2022-05-11_21h57.57.442,classification_task,2021.2.3,Win32,59.81934558,627c6715c52fd12f31907bcf,,,,,,,,,,,,,,,,,,,,,,,a,1,2.747,"[""0.672"",""0.419"",""0.844"",""0.931""]","[0,1,1,1]",0,28,28,28,1,0,0,,,1,FALSE,,,,,,,,,,,,,,,,,,,,,,,,,,,,,,,
,608252263bd38a91cf28c121,627c69960b1eff972bd1fead,2022-05-11_21h57.57.442,classification_task,2021.2.3,Win32,59.81934558,627c6715c52fd12f31907bcf,,,,,,,,,,,,,,,,,,,,,,,a,1,4.1793,"[""0.288"",""0.419"",""0.692"",""0.931""]","[1,1,0,1]",0,29,29,29,1,0,0,,,1,FALSE,,,,,,,,,,,,,,,,,,,,,,,,,,,,,,,
,608252263bd38a91cf28c121,627c69960b1eff972bd1fead,2022-05-11_21h57.57.442,classification_task,2021.2.3,Win32,59.81934558,627c6715c52fd12f31907bcf,,,,,,,,,,,,,,,,,,,,,,,l,0,1.71,"[""0.177"",""0.688"",""0.888"",""0.967""]","[1,0,1,1]",0,30,30,30,1,0,1,,,1,FALSE,,,,,,,,,,,,,,,,,,,,,,,,,,,,,,,
,608252263bd38a91cf28c121,627c69960b1eff972bd1fead,2022-05-11_21h57.57.442,classification_task,2021.2.3,Win32,59.81934558,627c6715c52fd12f31907bcf,,,,,,,,,,,,,,,,,,,,,,,a,0,0.55,"[""0.104"",""0.372"",""0.597"",""0.734""]","[1,1,0,1]",0,31,31,31,1,1,1,,,1,FALSE,,,,,,,,,,,,,,,,,,,,,,,,,,,,,,,
,608252263bd38a91cf28c121,627c69960b1eff972bd1fead,2022-05-11_21h57.57.442,classification_task,2021.2.3,Win32,59.81934558,627c6715c52fd12f31907bcf,,,,,,,,,,,,,,,,,,,,,,,a,0,0.0697,"[""0.651"",""0.372"",""0.556"",""0.734""]","[0,1,1,1]",0,32,32,32,1,1,1,,,1,FALSE,,,,,,,,,,,,,,,,,,,,,,,,,,,,,,,
,608252263bd38a91cf28c121,627c69960b1eff972bd1fead,2022-05-11_21h57.57.442,classification_task,2021.2.3,Win32,59.81934558,627c6715c52fd12f31907bcf,,,,,,,,,,,,,,,,,,,,,,,a,0,0.5881,"[""0.104"",""0.372"",""0.699"",""0.734""]","[1,1,0,1]",0,33,33,33,1,1,1,,,1,FALSE,,,,,,,,,,,,,,,,,,,,,,,,,,,,,,,
,608252263bd38a91cf28c121,627c69960b1eff972bd1fead,2022-05-11_21h57.57.442,classification_task,2021.2.3,Win32,59.81934558,627c6715c52fd12f31907bcf,,,,,,,,,,,,,,,,,,,,,,,a,0,0.5498,"[""0.104"",""0.372"",""0.556"",""0.692""]","[1,1,1,0]",0,34,34,34,1,1,1,,,1,FALSE,,,,,,,,,,,,,,,,,,,,,,,,,,,,,,,
,608252263bd38a91cf28c121,627c69960b1eff972bd1fead,2022-05-11_21h57.57.442,classification_task,2021.2.3,Win32,59.81934558,627c6715c52fd12f31907bcf,,,,,,,,,,,,,,,,,,,,,,,a,1,0.533,"[""0.288"",""0.419"",""0.844"",""0.692""]","[1,1,1,0]",0,35,35,35,1,0,0,,,1,FALSE,,,,,,,,,,,,,,,,,,,,,,,,,,,,,,,
,608252263bd38a91cf28c121,627c69960b1eff972bd1fead,2022-05-11_21h57.57.442,classification_task,2021.2.3,Win32,59.81934558,627c6715c52fd12f31907bcf,,,,,,,,,,,,,,,,,,,,,,,l,1,0.8907,"[""0.035"",""0.621"",""0.521"",""0.788""]","[1,0,1,1]",0,36,36,36,1,1,0,,,1,FALSE,,,,,,,,,,,,,,,,,,,,,,,,,,,,,,,
,608252263bd38a91cf28c121,627c69960b1eff972bd1fead,2022-05-11_21h57.57.442,classification_task,2021.2.3,Win32,59.81934558,627c6715c52fd12f31907bcf,,,,,,,,,,,,,,,,,,,,,,,l,1,0.5995,"[""0.035"",""0.232"",""0.597"",""0.788""]","[1,1,0,1]",0,37,37,37,1,1,0,,,1,FALSE,,,,,,,,,,,,,,,,,,,,,,,,,,,,,,,
,608252263bd38a91cf28c121,627c69960b1eff972bd1fead,2022-05-11_21h57.57.442,classification_task,2021.2.3,Win32,59.81934558,627c6715c52fd12f31907bcf,,,,,,,,,,,,,,,,,,,,,,,l,0,0.7237,"[""0.177"",""0.647"",""0.888"",""0.967""]","[1,0,1,1]",0,38,38,38,1,0,1,,,1,FALSE,,,,,,,,,,,,,,,,,,,,,,,,,,,,,,,
,608252263bd38a91cf28c121,627c69960b1eff972bd1fead,2022-05-11_21h57.57.442,classification_task,2021.2.3,Win32,59.81934558,627c6715c52fd12f31907bcf,,,,,,,,,,,,,,,,,,,,,,,l,0,0.7186,"[""0.656"",""0.419"",""0.844"",""0.931""]","[0,1,1,1]",0,39,39,39,1,0,0,,,1,FALSE,,,,,,,,,,,,,,,,,,,,,,,,,,,,,,,
,608252263bd38a91cf28c121,627c69960b1eff972bd1fead,2022-05-11_21h57.57.442,classification_task,2021.2.3,Win32,59.81934558,627c6715c52fd12f31907bcf,,,,,,,,,,,,,,,,,,,,,,,a,0,0.4662,"[""0.613"",""0.232"",""0.521"",""0.788""]","[0,1,1,1]",0,40,40,40,1,1,0,,,1,FALSE,,,,,,,,,,,,,,,,,,,,,,,,,,,,,,,
,608252263bd38a91cf28c121,627c69960b1eff972bd1fead,2022-05-11_21h57.57.442,classification_task,2021.2.3,Win32,59.81934558,627c6715c52fd12f31907bcf,,,,,,,,,,,,,,,,,,,,,,,a,1,0.3833,"[""0.692"",""0.472"",""0.888"",""0.967""]","[0,1,1,1]",0,41,41,41,1,0,1,,,1,FALSE,,,,,,,,,,,,,,,,,,,,,,,,,,,,,,,
,608252263bd38a91cf28c121,627c69960b1eff972bd1fead,2022-05-11_21h57.57.442,classification_task,2021.2.3,Win32,59.81934558,627c6715c52fd12f31907bcf,,,,,,,,,,,,,,,,,,,,,,,l,1,0.4663,"[""0.104"",""0.656"",""0.556"",""0.734""]","[1,0,1,1]",0,42,42,42,1,1,1,,,1,FALSE,,,,,,,,,,,,,,,,,,,,,,,,,,,,,,,
,608252263bd38a91cf28c121,627c69960b1eff972bd1fead,2022-05-11_21h57.57.442,classification_task,2021.2.3,Win32,59.81934558,627c6715c52fd12f31907bcf,,,,,,,,,,,,,,,,,,,,,,,a,1,0.25,"[""0.177"",""0.472"",""0.888"",""0.692""]","[1,1,1,0]",0,43,43,43,1,0,1,,,1,FALSE,,,,,,,,,,,,,,,,,,,,,,,,,,,,,,,
,608252263bd38a91cf28c121,627c69960b1eff972bd1fead,2022-05-11_21h57.57.442,classification_task,2021.2.3,Win32,59.81934558,627c6715c52fd12f31907bcf,,,,,,,,,,,,,,,,,,,,,,,l,0,0.2352,"[""0.288"",""0.419"",""0.651"",""0.931""]","[1,1,0,1]",0,44,44,44,1,0,0,,,1,FALSE,,,,,,,,,,,,,,,,,,,,,,,,,,,,,,,
,608252263bd38a91cf28c121,627c69960b1eff972bd1fead,2022-05-11_21h57.57.442,classification_task,2021.2.3,Win32,59.81934558,627c6715c52fd12f31907bcf,,,,,,,,,,,,,,,,,,,,,,,l,0,0.2708,"[""0.288"",""0.699"",""0.844"",""0.931""]","[1,0,1,1]",0,45,45,45,1,0,0,,,1,FALSE,,,,,,,,,,,,,,,,,,,,,,,,,,,,,,,
,608252263bd38a91cf28c121,627c69960b1eff972bd1fead,2022-05-11_21h57.57.442,classification_task,2021.2.3,Win32,59.81934558,627c6715c52fd12f31907bcf,,,,,,,,,,,,,,,,,,,,,,,l,1,0.2165,"[""0.035"",""0.232"",""0.521"",""0.651""]","[1,1,1,0]",0,46,46,46,1,1,0,,,1,FALSE,,,,,,,,,,,,,,,,,,,,,,,,,,,,,,,
,608252263bd38a91cf28c121,627c69960b1eff972bd1fead,2022-05-11_21h57.57.442,classification_task,2021.2.3,Win32,59.81934558,627c6715c52fd12f31907bcf,,,,,,,,,,,,,,,,,,,,,,,a,1,0.2515,"[""0.177"",""0.472"",""0.622"",""0.967""]","[1,1,0,1]",0,47,47,47,1,0,1,,,1,FALSE,,,,,,,,,,,,,,,,,,,,,,,,,,,,,,,
,608252263bd38a91cf28c121,627c69960b1eff972bd1fead,2022-05-11_21h57.57.442,classification_task,2021.2.3,Win32,59.81934558,627c6715c52fd12f31907bcf,,,,,,,,,,,,,,,,,,,,,,,a,1,0.2217,"[""0.621"",""0.472"",""0.888"",""0.967""]","[0,1,1,1]",0,48,48,48,1,0,1,,,1,FALSE,,,,,,,,,,,,,,,,,,,,,,,,,,,,,,,
,608252263bd38a91cf28c121,627c69960b1eff972bd1fead,2022-05-11_21h57.57.442,classification_task,2021.2.3,Win32,59.81934558,627c6715c52fd12f31907bcf,,,,,,,,,,,,,,,,,,,,,,,a,1,0.1997,"[""0.288"",""0.688"",""0.844"",""0.931""]","[1,0,1,1]",0,49,49,49,1,0,0,,,1,FALSE,,,,,,,,,,,,,,,,,,,,,,,,,,,,,,,
,608252263bd38a91cf28c121,627c69960b1eff972bd1fead,2022-05-11_21h57.57.442,classification_task,2021.2.3,Win32,59.81934558,627c6715c52fd12f31907bcf,,,,,,,,,,,,,,,,,,,,,,,a,1,0.204,"[""0.647"",""0.419"",""0.844"",""0.931""]","[0,1,1,1]",0,50,50,50,1,0,0,,,1,FALSE,,,,,,,,,,,,,,,,,,,,,,,,,,,,,,,
,608252263bd38a91cf28c121,627c69960b1eff972bd1fead,2022-05-11_21h57.57.442,classification_task,2021.2.3,Win32,59.81934558,627c6715c52fd12f31907bcf,,,,,,,,,,,,,,,,,,,,,,,a,1,0.2341,"[""0.177"",""0.472"",""0.692"",""0.967""]","[1,1,0,1]",0,51,51,51,1,0,1,,,1,FALSE,,,,,,,,,,,,,,,,,,,,,,,,,,,,,,,
,608252263bd38a91cf28c121,627c69960b1eff972bd1fead,2022-05-11_21h57.57.442,classification_task,2021.2.3,Win32,59.81934558,627c6715c52fd12f31907bcf,,,,,,,,,,,,,,,,,,,,,,,a,1,0.401,"[""0.177"",""0.472"",""0.888"",""0.656""]","[1,1,1,0]",0,52,52,52,1,0,1,,,1,FALSE,,,,,,,,,,,,,,,,,,,,,,,,,,,,,,,
,608252263bd38a91cf28c121,627c69960b1eff972bd1fead,2022-05-11_21h57.57.442,classification_task,2021.2.3,Win32,59.81934558,627c6715c52fd12f31907bcf,,,,,,,,,,,,,,,,,,,,,,,a,1,0.7325,"[""0.177"",""0.651"",""0.888"",""0.967""]","[1,0,1,1]",0,53,53,53,1,0,1,,,1,FALSE,,,,,,,,,,,,,,,,,,,,,,,,,,,,,,,
,608252263bd38a91cf28c121,627c69960b1eff972bd1fead,2022-05-11_21h57.57.442,classification_task,2021.2.3,Win32,59.81934558,627c6715c52fd12f31907bcf,,,,,,,,,,,,,,,,,,,,,,,a,0,0.7335,"[""0.622"",""0.372"",""0.556"",""0.734""]","[0,1,1,1]",0,54,54,54,1,1,1,,,1,FALSE,,,,,,,,,,,,,,,,,,,,,,,,,,,,,,,
,608252263bd38a91cf28c121,627c69960b1eff972bd1fead,2022-05-11_21h57.57.442,classification_task,2021.2.3,Win32,59.81934558,627c6715c52fd12f31907bcf,,,,,,,,,,,,,,,,,,,,,,,a,0,0.3512,"[""0.035"",""0.232"",""0.521"",""0.622""]","[1,1,1,0]",0,55,55,55,1,1,0,,,1,FALSE,,,,,,,,,,,,,,,,,,,,,,,,,,,,,,,
,608252263bd38a91cf28c121,627c69960b1eff972bd1fead,2022-05-11_21h57.57.442,classification_task,2021.2.3,Win32,59.81934558,627c6715c52fd12f31907bcf,,,,,,,,,,,,,,,,,,,,,,,l,1,0.2567,"[""0.104"",""0.372"",""0.699"",""0.734""]","[1,1,0,1]",0,56,56,56,1,1,1,,,1,FALSE,,,,,,,,,,,,,,,,,,,,,,,,,,,,,,,
,608252263bd38a91cf28c121,627c69960b1eff972bd1fead,2022-05-11_21h57.57.442,classification_task,2021.2.3,Win32,59.81934558,627c6715c52fd12f31907bcf,,,,,,,,,,,,,,,,,,,,,,,l,1,0.3503,"[""0.656"",""0.232"",""0.521"",""0.788""]","[0,1,1,1]",0,57,57,57,1,1,0,,,1,FALSE,,,,,,,,,,,,,,,,,,,,,,,,,,,,,,,
,608252263bd38a91cf28c121,627c69960b1eff972bd1fead,2022-05-11_21h57.57.442,classification_task,2021.2.3,Win32,59.81934558,627c6715c52fd12f31907bcf,,,,,,,,,,,,,,,,,,,,,,,l,1,0.6652,"[""0.035"",""0.232"",""0.672"",""0.788""]","[1,1,0,1]",0,58,58,58,1,1,0,,,1,FALSE,,,,,,,,,,,,,,,,,,,,,,,,,,,,,,,
,608252263bd38a91cf28c121,627c69960b1eff972bd1fead,2022-05-11_21h57.57.442,classification_task,2021.2.3,Win32,59.81934558,627c6715c52fd12f31907bcf,,,,,,,,,,,,,,,,,,,,,,,l,1,1.3653,"[""0.104"",""0.372"",""0.556"",""0.597""]","[1,1,1,0]",0,59,59,59,1,1,1,,,1,FALSE,,,,,,,,,,,,,,,,,,,,,,,,,,,,,,,
,608252263bd38a91cf28c121,627c69960b1eff972bd1fead,2022-05-11_21h57.57.442,classification_task,2021.2.3,Win32,59.81934558,627c6715c52fd12f31907bcf,,,,,,,,,,,,,,,,,,,,,,,l,1,0.6997,"[""0.035"",""0.622"",""0.521"",""0.788""]","[1,0,1,1]",0,60,60,60,1,1,0,,,1,FALSE,,,,,,,,,,,,,,,,,,,,,,,,,,,,,,,
,608252263bd38a91cf28c121,627c69960b1eff972bd1fead,2022-05-11_21h57.57.442,classification_task,2021.2.3,Win32,59.81934558,627c6715c52fd12f31907bcf,,,,,,,,,,,,,,,,,,,,,,,l,1,1.2836,"[""0.104"",""0.656"",""0.556"",""0.734""]","[1,0,1,1]",0,61,61,61,1,1,1,,,1,FALSE,,,,,,,,,,,,,,,,,,,,,,,,,,,,,,,
,608252263bd38a91cf28c121,627c69960b1eff972bd1fead,2022-05-11_21h57.57.442,classification_task,2021.2.3,Win32,59.81934558,627c6715c52fd12f31907bcf,,,,,,,,,,,,,,,,,,,,,,,l,0,0.8504,"[""0.288"",""0.419"",""0.844"",""0.671""]","[1,1,1,0]",0,62,62,62,1,0,0,,,1,FALSE,,,,,,,,,,,,,,,,,,,,,,,,,,,,,,,
,608252263bd38a91cf28c121,627c69960b1eff972bd1fead,2022-05-11_21h57.57.442,classification_task,2021.2.3,Win32,59.81934558,627c6715c52fd12f31907bcf,,,,,,,,,,,,,,,,,,,,,,,l,0,0.5021,"[""0.288"",""0.419"",""0.692"",""0.931""]","[1,1,0,1]",0,63,63,63,1,0,0,,,1,FALSE,,,,,,,,,,,,,,,,,,,,,,,,,,,,,,,
,608252263bd38a91cf28c121,627c69960b1eff972bd1fead,2022-05-11_21h57.57.442,classification_task,2021.2.3,Win32,59.81934558,627c6715c52fd12f31907bcf,,,,,,,,,,,,,,,,,,,,,,,,,,,,,,,,,,,,,,,0, ,,0,5.055114265,279.7868,0,0,0,0,1,2,1,,,,,,,,,,,,,,,,,,
,608252263bd38a91cf28c121,627c69960b1eff972bd1fead,2022-05-11_21h57.57.442,classification_task,2021.2.3,Win32,59.81934558,627c6715c52fd12f31907bcf,,,,,,,,,,,,,,,,,,,,,,,,,,,,,,,,,,,,,,,1,  ,,0,8.215020576,285.805,0,0,0,0,1,2,1,,,,,,,,,,,,,,,,,,
,608252263bd38a91cf28c121,627c69960b1eff972bd1fead,2022-05-11_21h57.57.442,classification_task,2021.2.3,Win32,59.81934558,627c6715c52fd12f31907bcf,,,,,,,,,,,,,,,,,,,,,,,,,,,,,,,,,,,,,,,2,  ,,0,2.40961274,292.1901,0,0,0,0,1,2,1,,,,,,,,,,,,,,,,,,
,608252263bd38a91cf28c121,627c69960b1eff972bd1fead,2022-05-11_21h57.57.442,classification_task,2021.2.3,Win32,59.81934558,627c6715c52fd12f31907bcf,,,,,,,,,,,,,,,,,,,,,,,,,,,,,,,,,,,,,,,,,,,,,0,0,0,0,1,,1,,,,,,,,,,,,,,,,,,
,608252263bd38a91cf28c121,627c69960b1eff972bd1fead,2022-05-11_21h57.57.442,classification_task,2021.2.3,Win32,59.81934558,627c6715c52fd12f31907bcf,,,,,,,,,,,,,,,,,,,,,space,23.8173,l,1,2.3795,"[""0.104"",""0.372"",""0.556"",""0.647""]","[1,1,1,0]",0,0,0,0,1,1,1,,,1,FALSE,,,,,,,,,,,,,,,,,,,,,,,,,,,,,,,
,608252263bd38a91cf28c121,627c69960b1eff972bd1fead,2022-05-11_21h57.57.442,classification_task,2021.2.3,Win32,59.81934558,627c6715c52fd12f31907bcf,,,,,,,,,,,,,,,,,,,,,,,a,1,0.7372,"[""0.177"",""0.688"",""0.888"",""0.967""]","[1,0,1,1]",0,1,1,1,1,0,1,,,1,FALSE,,,,,,,,,,,,,,,,,,,,,,,,,,,,,,,
,608252263bd38a91cf28c121,627c69960b1eff972bd1fead,2022-05-11_21h57.57.442,classification_task,2021.2.3,Win32,59.81934558,627c6715c52fd12f31907bcf,,,,,,,,,,,,,,,,,,,,,,,l,0,2.0662,"[""0.288"",""0.419"",""0.844"",""0.671""]","[1,1,1,0]",0,2,2,2,1,0,0,,,1,FALSE,,,,,,,,,,,,,,,,,,,,,,,,,,,,,,,
,608252263bd38a91cf28c121,627c69960b1eff972bd1fead,2022-05-11_21h57.57.442,classification_task,2021.2.3,Win32,59.81934558,627c6715c52fd12f31907bcf,,,,,,,,,,,,,,,,,,,,,,,a,1,1.0668,"[""0.177"",""0.472"",""0.888"",""0.606""]","[1,1,1,0]",0,3,3,3,1,0,1,,,1,FALSE,,,,,,,,,,,,,,,,,,,,,,,,,,,,,,,
,608252263bd38a91cf28c121,627c69960b1eff972bd1fead,2022-05-11_21h57.57.442,classification_task,2021.2.3,Win32,59.81934558,627c6715c52fd12f31907bcf,,,,,,,,,,,,,,,,,,,,,,,a,0,0.7965,"[""0.035"",""0.232"",""0.613"",""0.788""]","[1,1,0,1]",0,4,4,4,1,1,0,,,1,FALSE,,,,,,,,,,,,,,,,,,,,,,,,,,,,,,,
,608252263bd38a91cf28c121,627c69960b1eff972bd1fead,2022-05-11_21h57.57.442,classification_task,2021.2.3,Win32,59.81934558,627c6715c52fd12f31907bcf,,,,,,,,,,,,,,,,,,,,,,,l,0,0.6329,"[""0.618"",""0.419"",""0.844"",""0.931""]","[0,1,1,1]",0,5,5,5,1,0,0,,,1,FALSE,,,,,,,,,,,,,,,,,,,,,,,,,,,,,,,
,608252263bd38a91cf28c121,627c69960b1eff972bd1fead,2022-05-11_21h57.57.442,classification_task,2021.2.3,Win32,59.81934558,627c6715c52fd12f31907bcf,,,,,,,,,,,,,,,,,,,,,,,a,1,0.5674,"[""0.288"",""0.688"",""0.844"",""0.931""]","[1,0,1,1]",0,6,6,6,1,0,0,,,1,FALSE,,,,,,,,,,,,,,,,,,,,,,,,,,,,,,,
,608252263bd38a91cf28c121,627c69960b1eff972bd1fead,2022-05-11_21h57.57.442,classification_task,2021.2.3,Win32,59.81934558,627c6715c52fd12f31907bcf,,,,,,,,,,,,,,,,,,,,,,,l,1,1.0659,"[""0.104"",""0.622"",""0.556"",""0.734""]","[1,0,1,1]",0,7,7,7,1,1,1,,,1,FALSE,,,,,,,,,,,,,,,,,,,,,,,,,,,,,,,
,608252263bd38a91cf28c121,627c69960b1eff972bd1fead,2022-05-11_21h57.57.442,classification_task,2021.2.3,Win32,59.81934558,627c6715c52fd12f31907bcf,,,,,,,,,,,,,,,,,,,,,,,a,0,0.8334,"[""0.035"",""0.672"",""0.521"",""0.788""]","[1,0,1,1]",0,8,8,8,1,1,0,,,1,FALSE,,,,,,,,,,,,,,,,,,,,,,,,,,,,,,,
,608252263bd38a91cf28c121,627c69960b1eff972bd1fead,2022-05-11_21h57.57.442,classification_task,2021.2.3,Win32,59.81934558,627c6715c52fd12f31907bcf,,,,,,,,,,,,,,,,,,,,,,,l,1,2.6019,"[""0.104"",""0.372"",""0.671"",""0.734""]","[1,1,0,1]",0,9,9,9,1,1,1,,,1,FALSE,,,,,,,,,,,,,,,,,,,,,,,,,,,,,,,
,608252263bd38a91cf28c121,627c69960b1eff972bd1fead,2022-05-11_21h57.57.442,classification_task,2021.2.3,Win32,59.81934558,627c6715c52fd12f31907bcf,,,,,,,,,,,,,,,,,,,,,,,a,1,0.565,"[""0.692"",""0.472"",""0.888"",""0.967""]","[0,1,1,1]",0,10,10,10,1,0,1,,,1,FALSE,,,,,,,,,,,,,,,,,,,,,,,,,,,,,,,
,608252263bd38a91cf28c121,627c69960b1eff972bd1fead,2022-05-11_21h57.57.442,classification_task,2021.2.3,Win32,59.81934558,627c6715c52fd12f31907bcf,,,,,,,,,,,,,,,,,,,,,,,a,0,1.1662,"[""0.035"",""0.232"",""0.521"",""0.597""]","[1,1,1,0]",0,11,11,11,1,1,0,,,1,FALSE,,,,,,,,,,,,,,,,,,,,,,,,,,,,,,,
,608252263bd38a91cf28c121,627c69960b1eff972bd1fead,2022-05-11_21h57.57.442,classification_task,2021.2.3,Win32,59.81934558,627c6715c52fd12f31907bcf,,,,,,,,,,,,,,,,,,,,,,,l,1,0.7668,"[""0.688"",""0.372"",""0.556"",""0.734""]","[0,1,1,1]",0,12,12,12,1,1,1,,,1,FALSE,,,,,,,,,,,,,,,,,,,,,,,,,,,,,,,
,608252263bd38a91cf28c121,627c69960b1eff972bd1fead,2022-05-11_21h57.57.442,classification_task,2021.2.3,Win32,59.81934558,627c6715c52fd12f31907bcf,,,,,,,,,,,,,,,,,,,,,,,a,1,0.8335,"[""0.177"",""0.472"",""0.597"",""0.967""]","[1,1,0,1]",0,13,13,13,1,0,1,,,1,FALSE,,,,,,,,,,,,,,,,,,,,,,,,,,,,,,,
,608252263bd38a91cf28c121,627c69960b1eff972bd1fead,2022-05-11_21h57.57.442,classification_task,2021.2.3,Win32,59.81934558,627c6715c52fd12f31907bcf,,,,,,,,,,,,,,,,,,,,,,,l,0,1.5333,"[""0.288"",""0.419"",""0.671"",""0.931""]","[1,1,0,1]",0,14,14,14,1,0,0,,,1,FALSE,,,,,,,,,,,,,,,,,,,,,,,,,,,,,,,
,608252263bd38a91cf28c121,627c69960b1eff972bd1fead,2022-05-11_21h57.57.442,classification_task,2021.2.3,Win32,59.81934558,627c6715c52fd12f31907bcf,,,,,,,,,,,,,,,,,,,,,,,l,1,0.9992,"[""0.671"",""0.232"",""0.521"",""0.788""]","[0,1,1,1]",0,15,15,15,1,1,0,,,1,FALSE,,,,,,,,,,,,,,,,,,,,,,,,,,,,,,,
,608252263bd38a91cf28c121,627c69960b1eff972bd1fead,2022-05-11_21h57.57.442,classification_task,2021.2.3,Win32,59.81934558,627c6715c52fd12f31907bcf,,,,,,,,,,,,,,,,,,,,,,,a,1,0.6157,"[""0.618"",""0.472"",""0.888"",""0.967""]","[0,1,1,1]",0,16,16,16,1,0,1,,,1,FALSE,,,,,,,,,,,,,,,,,,,,,,,,,,,,,,,
,608252263bd38a91cf28c121,627c69960b1eff972bd1fead,2022-05-11_21h57.57.442,classification_task,2021.2.3,Win32,59.81934558,627c6715c52fd12f31907bcf,,,,,,,,,,,,,,,,,,,,,,,a,1,0.7488,"[""0.651"",""0.419"",""0.844"",""0.931""]","[0,1,1,1]",0,17,17,17,1,0,0,,,1,FALSE,,,,,,,,,,,,,,,,,,,,,,,,,,,,,,,
,608252263bd38a91cf28c121,627c69960b1eff972bd1fead,2022-05-11_21h57.57.442,classification_task,2021.2.3,Win32,59.81934558,627c6715c52fd12f31907bcf,,,,,,,,,,,,,,,,,,,,,,,l,1,0.8148,"[""0.035"",""0.232"",""0.647"",""0.788""]","[1,1,0,1]",0,18,18,18,1,1,0,,,1,FALSE,,,,,,,,,,,,,,,,,,,,,,,,,,,,,,,
,608252263bd38a91cf28c121,627c69960b1eff972bd1fead,2022-05-11_21h57.57.442,classification_task,2021.2.3,Win32,59.81934558,627c6715c52fd12f31907bcf,,,,,,,,,,,,,,,,,,,,,,,l,1,0.6827,"[""0.104"",""0.372"",""0.556"",""0.613""]","[1,1,1,0]",0,19,19,19,1,1,1,,,1,FALSE,,,,,,,,,,,,,,,,,,,,,,,,,,,,,,,
,608252263bd38a91cf28c121,627c69960b1eff972bd1fead,2022-05-11_21h57.57.442,classification_task,2021.2.3,Win32,59.81934558,627c6715c52fd12f31907bcf,,,,,,,,,,,,,,,,,,,,,,,a,1,0.6504,"[""0.288"",""0.419"",""0.844"",""0.621""]","[1,1,1,0]",0,20,20,20,1,0,0,,,1,FALSE,,,,,,,,,,,,,,,,,,,,,,,,,,,,,,,
,608252263bd38a91cf28c121,627c69960b1eff972bd1fead,2022-05-11_21h57.57.442,classification_task,2021.2.3,Win32,59.81934558,627c6715c52fd12f31907bcf,,,,,,,,,,,,,,,,,,,,,,,a,1,0.8381,"[""0.288"",""0.622"",""0.844"",""0.931""]","[1,0,1,1]",0,21,21,21,1,0,0,,,1,FALSE,,,,,,,,,,,,,,,,,,,,,,,,,,,,,,,
,608252263bd38a91cf28c121,627c69960b1eff972bd1fead,2022-05-11_21h57.57.442,classification_task,2021.2.3,Win32,59.81934558,627c6715c52fd12f31907bcf,,,,,,,,,,,,,,,,,,,,,,,a,1,0.7324,"[""0.177"",""0.472"",""0.888"",""0.688""]","[1,1,1,0]",0,22,22,22,1,0,1,,,1,FALSE,,,,,,,,,,,,,,,,,,,,,,,,,,,,,,,
,608252263bd38a91cf28c121,627c69960b1eff972bd1fead,2022-05-11_21h57.57.442,classification_task,2021.2.3,Win32,59.81934558,627c6715c52fd12f31907bcf,,,,,,,,,,,,,,,,,,,,,,,l,1,1.389,"[""0.035"",""0.232"",""0.521"",""0.647""]","[1,1,1,0]",0,23,23,23,1,1,0,,,1,FALSE,,,,,,,,,,,,,,,,,,,,,,,,,,,,,,,
,608252263bd38a91cf28c121,627c69960b1eff972bd1fead,2022-05-11_21h57.57.442,classification_task,2021.2.3,Win32,59.81934558,627c6715c52fd12f31907bcf,,,,,,,,,,,,,,,,,,,,,,,a,1,0.5165,"[""0.177"",""0.472"",""0.672"",""0.967""]","[1,1,0,1]",0,24,24,24,1,0,1,,,1,FALSE,,,,,,,,,,,,,,,,,,,,,,,,,,,,,,,
,608252263bd38a91cf28c121,627c69960b1eff972bd1fead,2022-05-11_21h57.57.442,classification_task,2021.2.3,Win32,59.81934558,627c6715c52fd12f31907bcf,,,,,,,,,,,,,,,,,,,,,,,a,1,0.5165,"[""0.177"",""0.656"",""0.888"",""0.967""]","[1,0,1,1]",0,25,25,25,1,0,1,,,1,FALSE,,,,,,,,,,,,,,,,,,,,,,,,,,,,,,,
,608252263bd38a91cf28c121,627c69960b1eff972bd1fead,2022-05-11_21h57.57.442,classification_task,2021.2.3,Win32,59.81934558,627c6715c52fd12f31907bcf,,,,,,,,,,,,,,,,,,,,,,,a,1,1.0676,"[""0.288"",""0.419"",""0.621"",""0.931""]","[1,1,0,1]",0,26,26,26,1,0,0,,,1,FALSE,,,,,,,,,,,,,,,,,,,,,,,,,,,,,,,
,608252263bd38a91cf28c121,627c69960b1eff972bd1fead,2022-05-11_21h57.57.442,classification_task,2021.2.3,Win32,59.81934558,627c6715c52fd12f31907bcf,,,,,,,,,,,,,,,,,,,,,,,a,0,0.7509,"[""0.647"",""0.232"",""0.521"",""0.788""]","[0,1,1,1]",0,27,27,27,1,1,0,,,1,FALSE,,,,,,,,,,,,,,,,,,,,,,,,,,,,,,,
,608252263bd38a91cf28c121,627c69960b1eff972bd1fead,2022-05-11_21h57.57.442,classification_task,2021.2.3,Win32,59.81934558,627c6715c52fd12f31907bcf,,,,,,,,,,,,,,,,,,,,,,,l,1,0.8823,"[""0.692"",""0.372"",""0.556"",""0.734""]","[0,1,1,1]",0,28,28,28,1,1,1,,,1,FALSE,,,,,,,,,,,,,,,,,,,,,,,,,,,,,,,
,608252263bd38a91cf28c121,627c69960b1eff972bd1fead,2022-05-11_21h57.57.442,classification_task,2021.2.3,Win32,59.81934558,627c6715c52fd12f31907bcf,,,,,,,,,,,,,,,,,,,,,,,l,1,1.4032,"[""0.104"",""0.656"",""0.556"",""0.734""]","[1,0,1,1]",0,29,29,29,1,1,1,,,1,FALSE,,,,,,,,,,,,,,,,,,,,,,,,,,,,,,,
,608252263bd38a91cf28c121,627c69960b1eff972bd1fead,2022-05-11_21h57.57.442,classification_task,2021.2.3,Win32,59.81934558,627c6715c52fd12f31907bcf,,,,,,,,,,,,,,,,,,,,,,,l,1,0.7161,"[""0.104"",""0.372"",""0.622"",""0.734""]","[1,1,0,1]",0,30,30,30,1,1,1,,,1,FALSE,,,,,,,,,,,,,,,,,,,,,,,,,,,,,,,
,608252263bd38a91cf28c121,627c69960b1eff972bd1fead,2022-05-11_21h57.57.442,classification_task,2021.2.3,Win32,59.81934558,627c6715c52fd12f31907bcf,,,,,,,,,,,,,,,,,,,,,,,l,1,0.6818,"[""0.035"",""0.692"",""0.521"",""0.788""]","[1,0,1,1]",0,31,31,31,1,1,0,,,1,FALSE,,,,,,,,,,,,,,,,,,,,,,,,,,,,,,,
,608252263bd38a91cf28c121,627c69960b1eff972bd1fead,2022-05-11_21h57.57.442,classification_task,2021.2.3,Win32,59.81934558,627c6715c52fd12f31907bcf,,,,,,,,,,,,,,,,,,,,,,,l,1,0.4493,"[""0.035"",""0.618"",""0.521"",""0.788""]","[1,0,1,1]",0,32,32,32,1,1,0,,,1,FALSE,,,,,,,,,,,,,,,,,,,,,,,,,,,,,,,
,608252263bd38a91cf28c121,627c69960b1eff972bd1fead,2022-05-11_21h57.57.442,classification_task,2021.2.3,Win32,59.81934558,627c6715c52fd12f31907bcf,,,,,,,,,,,,,,,,,,,,,,,a,1,0.4983,"[""0.177"",""0.472"",""0.888"",""0.618""]","[1,1,1,0]",0,33,33,33,1,0,1,,,1,FALSE,,,,,,,,,,,,,,,,,,,,,,,,,,,,,,,
,608252263bd38a91cf28c121,627c69960b1eff972bd1fead,2022-05-11_21h57.57.442,classification_task,2021.2.3,Win32,59.81934558,627c6715c52fd12f31907bcf,,,,,,,,,,,,,,,,,,,,,,,a,0,0.7133,"[""0.035"",""0.232"",""0.692"",""0.788""]","[1,1,0,1]",0,34,34,34,1,1,0,,,1,FALSE,,,,,,,,,,,,,,,,,,,,,,,,,,,,,,,
,608252263bd38a91cf28c121,627c69960b1eff972bd1fead,2022-05-11_21h57.57.442,classification_task,2021.2.3,Win32,59.81934558,627c6715c52fd12f31907bcf,,,,,,,,,,,,,,,,,,,,,,,l,1,0.8464,"[""0.104"",""0.688"",""0.556"",""0.734""]","[1,0,1,1]",0,35,35,35,1,1,1,,,1,FALSE,,,,,,,,,,,,,,,,,,,,,,,,,,,,,,,
,608252263bd38a91cf28c121,627c69960b1eff972bd1fead,2022-05-11_21h57.57.442,classification_task,2021.2.3,Win32,59.81934558,627c6715c52fd12f31907bcf,,,,,,,,,,,,,,,,,,,,,,,l,1,0.6808,"[""0.621"",""0.232"",""0.521"",""0.788""]","[0,1,1,1]",0,36,36,36,1,1,0,,,1,FALSE,,,,,,,,,,,,,,,,,,,,,,,,,,,,,,,
,608252263bd38a91cf28c121,627c69960b1eff972bd1fead,2022-05-11_21h57.57.442,classification_task,2021.2.3,Win32,59.81934558,627c6715c52fd12f31907bcf,,,,,,,,,,,,,,,,,,,,,,,l,0,0.5327,"[""0.288"",""0.419"",""0.844"",""0.618""]","[1,1,1,0]",0,37,37,37,1,0,0,,,1,FALSE,,,,,,,,,,,,,,,,,,,,,,,,,,,,,,,
,608252263bd38a91cf28c121,627c69960b1eff972bd1fead,2022-05-11_21h57.57.442,classification_task,2021.2.3,Win32,59.81934558,627c6715c52fd12f31907bcf,,,,,,,,,,,,,,,,,,,,,,,l,1,0.5166,"[""0.035"",""0.232"",""0.521"",""0.651""]","[1,1,1,0]",0,38,38,38,1,1,0,,,1,FALSE,,,,,,,,,,,,,,,,,,,,,,,,,,,,,,,
,608252263bd38a91cf28c121,627c69960b1eff972bd1fead,2022-05-11_21h57.57.442,classification_task,2021.2.3,Win32,59.81934558,627c6715c52fd12f31907bcf,,,,,,,,,,,,,,,,,,,,,,,l,1,0.6503,"[""0.688"",""0.372"",""0.556"",""0.734""]","[0,1,1,1]",0,39,39,39,1,1,1,,,1,FALSE,,,,,,,,,,,,,,,,,,,,,,,,,,,,,,,
,608252263bd38a91cf28c121,627c69960b1eff972bd1fead,2022-05-11_21h57.57.442,classification_task,2021.2.3,Win32,59.81934558,627c6715c52fd12f31907bcf,,,,,,,,,,,,,,,,,,,,,,,a,1,0.4842,"[""0.177"",""0.622"",""0.888"",""0.967""]","[1,0,1,1]",0,40,40,40,1,0,1,,,1,FALSE,,,,,,,,,,,,,,,,,,,,,,,,,,,,,,,
,608252263bd38a91cf28c121,627c69960b1eff972bd1fead,2022-05-11_21h57.57.442,classification_task,2021.2.3,Win32,59.81934558,627c6715c52fd12f31907bcf,,,,,,,,,,,,,,,,,,,,,,,a,1,0.5846,"[""0.656"",""0.472"",""0.888"",""0.967""]","[0,1,1,1]",0,41,41,41,1,0,1,,,1,FALSE,,,,,,,,,,,,,,,,,,,,,,,,,,,,,,,
,608252263bd38a91cf28c121,627c69960b1eff972bd1fead,2022-05-11_21h57.57.442,classification_task,2021.2.3,Win32,59.81934558,627c6715c52fd12f31907bcf,,,,,,,,,,,,,,,,,,,,,,,a,1,0.4486,"[""0.177"",""0.472"",""0.618"",""0.967""]","[1,1,0,1]",0,42,42,42,1,0,1,,,1,FALSE,,,,,,,,,,,,,,,,,,,,,,,,,,,,,,,
,608252263bd38a91cf28c121,627c69960b1eff972bd1fead,2022-05-11_21h57.57.442,classification_task,2021.2.3,Win32,59.81934558,627c6715c52fd12f31907bcf,,,,,,,,,,,,,,,,,,,,,,,a,1,0.9336,"[""0.288"",""0.606"",""0.844"",""0.931""]","[1,0,1,1]",0,43,43,43,1,0,0,,,1,FALSE,,,,,,,,,,,,,,,,,,,,,,,,,,,,,,,
,608252263bd38a91cf28c121,627c69960b1eff972bd1fead,2022-05-11_21h57.57.442,classification_task,2021.2.3,Win32,59.81934558,627c6715c52fd12f31907bcf,,,,,,,,,,,,,,,,,,,,,,,a,1,0.6031,"[""0.622"",""0.419"",""0.844"",""0.931""]","[0,1,1,1]",0,44,44,44,1,0,0,,,1,FALSE,,,,,,,,,,,,,,,,,,,,,,,,,,,,,,,
,608252263bd38a91cf28c121,627c69960b1eff972bd1fead,2022-05-11_21h57.57.442,classification_task,2021.2.3,Win32,59.81934558,627c6715c52fd12f31907bcf,,,,,,,,,,,,,,,,,,,,,,,a,1,0.5368,"[""0.288"",""0.419"",""0.613"",""0.931""]","[1,1,0,1]",0,45,45,45,1,0,0,,,1,FALSE,,,,,,,,,,,,,,,,,,,,,,,,,,,,,,,
,608252263bd38a91cf28c121,627c69960b1eff972bd1fead,2022-05-11_21h57.57.442,classification_task,2021.2.3,Win32,59.81934558,627c6715c52fd12f31907bcf,,,,,,,,,,,,,,,,,,,,,,,l,1,0.6636,"[""0.104"",""0.372"",""0.699"",""0.734""]","[1,1,0,1]",0,46,46,46,1,1,1,,,1,FALSE,,,,,,,,,,,,,,,,,,,,,,,,,,,,,,,
,608252263bd38a91cf28c121,627c69960b1eff972bd1fead,2022-05-11_21h57.57.442,classification_task,2021.2.3,Win32,59.81934558,627c6715c52fd12f31907bcf,,,,,,,,,,,,,,,,,,,,,,,l,1,0.4197,"[""0.104"",""0.372"",""0.556"",""0.692""]","[1,1,1,0]",0,47,47,47,1,1,1,,,1,FALSE,,,,,,,,,,,,,,,,,,,,,,,,,,,,,,,
,608252263bd38a91cf28c121,627c69960b1eff972bd1fead,2022-05-11_21h57.57.442,classification_task,2021.2.3,Win32,59.81934558,627c6715c52fd12f31907bcf,,,,,,,,,,,,,,,,,,,,,,,l,0,0.5336,"[""0.672"",""0.472"",""0.888"",""0.967""]","[0,1,1,1]",0,48,48,48,1,0,1,,,1,FALSE,,,,,,,,,,,,,,,,,,,,,,,,,,,,,,,
,608252263bd38a91cf28c121,627c69960b1eff972bd1fead,2022-05-11_21h57.57.442,classification_task,2021.2.3,Win32,59.81934558,627c6715c52fd12f31907bcf,,,,,,,,,,,,,,,,,,,,,,,a,1,0.5462,"[""0.288"",""0.419"",""0.844"",""0.672""]","[1,1,1,0]",0,49,49,49,1,0,0,,,1,FALSE,,,,,,,,,,,,,,,,,,,,,,,,,,,,,,,
,608252263bd38a91cf28c121,627c69960b1eff972bd1fead,2022-05-11_21h57.57.442,classification_task,2021.2.3,Win32,59.81934558,627c6715c52fd12f31907bcf,,,,,,,,,,,,,,,,,,,,,,,a,0,0.5631,"[""0.104"",""0.372"",""0.692"",""0.734""]","[1,1,0,1]",0,50,50,50,1,1,1,,,1,FALSE,,,,,,,,,,,,,,,,,,,,,,,,,,,,,,,
,608252263bd38a91cf28c121,627c69960b1eff972bd1fead,2022-05-11_21h57.57.442,classification_task,2021.2.3,Win32,59.81934558,627c6715c52fd12f31907bcf,,,,,,,,,,,,,,,,,,,,,,,l,1,0.5345,"[""0.104"",""0.651"",""0.556"",""0.734""]","[1,0,1,1]",0,51,51,51,1,1,1,,,1,FALSE,,,,,,,,,,,,,,,,,,,,,,,,,,,,,,,
,608252263bd38a91cf28c121,627c69960b1eff972bd1fead,2022-05-11_21h57.57.442,classification_task,2021.2.3,Win32,59.81934558,627c6715c52fd12f31907bcf,,,,,,,,,,,,,,,,,,,,,,,l,1,0.8872,"[""0.606"",""0.232"",""0.521"",""0.788""]","[0,1,1,1]",0,52,52,52,1,1,0,,,1,FALSE,,,,,,,,,,,,,,,,,,,,,,,,,,,,,,,
,608252263bd38a91cf28c121,627c69960b1eff972bd1fead,2022-05-11_21h57.57.442,classification_task,2021.2.3,Win32,59.81934558,627c6715c52fd12f31907bcf,,,,,,,,,,,,,,,,,,,,,,,a,0,0.6979,"[""0.035"",""0.232"",""0.521"",""0.597""]","[1,1,1,0]",0,53,53,53,1,1,0,,,1,FALSE,,,,,,,,,,,,,,,,,,,,,,,,,,,,,,,
,608252263bd38a91cf28c121,627c69960b1eff972bd1fead,2022-05-11_21h57.57.442,classification_task,2021.2.3,Win32,59.81934558,627c6715c52fd12f31907bcf,,,,,,,,,,,,,,,,,,,,,,,l,0,0.7326,"[""0.177"",""0.472"",""0.651"",""0.967""]","[1,1,0,1]",0,54,54,54,1,0,1,,,1,FALSE,,,,,,,,,,,,,,,,,,,,,,,,,,,,,,,
,608252263bd38a91cf28c121,627c69960b1eff972bd1fead,2022-05-11_21h57.57.442,classification_task,2021.2.3,Win32,59.81934558,627c6715c52fd12f31907bcf,,,,,,,,,,,,,,,,,,,,,,,a,0,0.7004,"[""0.597"",""0.372"",""0.556"",""0.734""]","[0,1,1,1]",0,55,55,55,1,1,1,,,1,FALSE,,,,,,,,,,,,,,,,,,,,,,,,,,,,,,,
,608252263bd38a91cf28c121,627c69960b1eff972bd1fead,2022-05-11_21h57.57.442,classification_task,2021.2.3,Win32,59.81934558,627c6715c52fd12f31907bcf,,,,,,,,,,,,,,,,,,,,,,,a,1,1.4671,"[""0.288"",""0.671"",""0.844"",""0.931""]","[1,0,1,1]",0,56,56,56,1,0,0,,,1,FALSE,,,,,,,,,,,,,,,,,,,,,,,,,,,,,,,
,608252263bd38a91cf28c121,627c69960b1eff972bd1fead,2022-05-11_21h57.57.442,classification_task,2021.2.3,Win32,59.81934558,627c6715c52fd12f31907bcf,,,,,,,,,,,,,,,,,,,,,,,a,1,0.4319,"[""0.177"",""0.622"",""0.888"",""0.967""]","[1,0,1,1]",0,57,57,57,1,0,1,,,1,FALSE,,,,,,,,,,,,,,,,,,,,,,,,,,,,,,,
,608252263bd38a91cf28c121,627c69960b1eff972bd1fead,2022-05-11_21h57.57.442,classification_task,2021.2.3,Win32,59.81934558,627c6715c52fd12f31907bcf,,,,,,,,,,,,,,,,,,,,,,,a,1,0.7651,"[""0.177"",""0.472"",""0.888"",""0.699""]","[1,1,1,0]",0,58,58,58,1,0,1,,,1,FALSE,,,,,,,,,,,,,,,,,,,,,,,,,,,,,,,
,608252263bd38a91cf28c121,627c69960b1eff972bd1fead,2022-05-11_21h57.57.442,classification_task,2021.2.3,Win32,59.81934558,627c6715c52fd12f31907bcf,,,,,,,,,,,,,,,,,,,,,,,a,1,0.9965,"[""0.288"",""0.419"",""0.622"",""0.931""]","[1,1,0,1]",0,59,59,59,1,0,0,,,1,FALSE,,,,,,,,,,,,,,,,,,,,,,,,,,,,,,,
,608252263bd38a91cf28c121,627c69960b1eff972bd1fead,2022-05-11_21h57.57.442,classification_task,2021.2.3,Win32,59.81934558,627c6715c52fd12f31907bcf,,,,,,,,,,,,,,,,,,,,,,,l,1,0.6811,"[""0.104"",""0.372"",""0.556"",""0.070""]","[1,1,1,0]",0,60,60,60,1,1,1,,,1,FALSE,,,,,,,,,,,,,,,,,,,,,,,,,,,,,,,
,608252263bd38a91cf28c121,627c69960b1eff972bd1fead,2022-05-11_21h57.57.442,classification_task,2021.2.3,Win32,59.81934558,627c6715c52fd12f31907bcf,,,,,,,,,,,,,,,,,,,,,,,l,1,0.6547,"[""0.035"",""0.232"",""0.671"",""0.788""]","[1,1,0,1]",0,61,61,61,1,1,0,,,1,FALSE,,,,,,,,,,,,,,,,,,,,,,,,,,,,,,,
,608252263bd38a91cf28c121,627c69960b1eff972bd1fead,2022-05-11_21h57.57.442,classification_task,2021.2.3,Win32,59.81934558,627c6715c52fd12f31907bcf,,,,,,,,,,,,,,,,,,,,,,,l,1,0.4657,"[""0.035"",""0.597"",""0.521"",""0.788""]","[1,0,1,1]",0,62,62,62,1,1,0,,,1,FALSE,,,,,,,,,,,,,,,,,,,,,,,,,,,,,,,
,608252263bd38a91cf28c121,627c69960b1eff972bd1fead,2022-05-11_21h57.57.442,classification_task,2021.2.3,Win32,59.81934558,627c6715c52fd12f31907bcf,,,,,,,,,,,,,,,,,,,,,,,a,1,0.716,"[""0.688"",""0.419"",""0.844"",""0.931""]","[0,1,1,1]",0,63,63,63,1,0,0,,,1,FALSE,,,,,,,,,,,,,,,,,,,,,,,,,,,,,,,
,608252263bd38a91cf28c121,627c69960b1eff972bd1fead,2022-05-11_21h57.57.442,classification_task,2021.2.3,Win32,59.81934558,627c6715c52fd12f31907bcf,,,,,,,,,,,,,,,,,,,,,,,,,,,,,,,,,,,,,,,0, ,,0,5.251078171,145.1654,0,1,1,1,1,2,2,,,,,,,,,,,,,,,,,,
,608252263bd38a91cf28c121,627c69960b1eff972bd1fead,2022-05-11_21h57.57.442,classification_task,2021.2.3,Win32,59.81934558,627c6715c52fd12f31907bcf,,,,,,,,,,,,,,,,,,,,,,,,,,,,,,,,,,,,,,,1,  ,,0,6.62281991,146.1568,0,1,1,1,1,2,2,,,,,,,,,,,,,,,,,,
,608252263bd38a91cf28c121,627c69960b1eff972bd1fead,2022-05-11_21h57.57.442,classification_task,2021.2.3,Win32,59.81934558,627c6715c52fd12f31907bcf,,,,,,,,,,,,,,,,,,,,,,,,,,,,,,,,,,,,,,,2,  ,,0,3.511905509,147.2654,0,1,1,1,1,2,2,,,,,,,,,,,,,,,,,,
,608252263bd38a91cf28c121,627c69960b1eff972bd1fead,2022-05-11_21h57.57.442,classification_task,2021.2.3,Win32,59.81934558,627c6715c52fd12f31907bcf,,,,,,,,,,,,,,,,,,,,,,,,,,,,,,,,,,,,,,,,,,,,,0,1,1,1,1,,2,,,,,,,,,,,,,,,,,,
,608252263bd38a91cf28c121,627c69960b1eff972bd1fead,2022-05-11_21h57.57.442,classification_task,2021.2.3,Win32,59.81934558,627c6715c52fd12f31907bcf,,,,,,,,,,,,,,,,,,,,,space,6.7701,l,1,3.4811,"[""0.618"",""0.372"",""0.556"",""0.734""]","[0,1,1,1]",0,0,0,0,1,1,1,,,1,FALSE,,,,,,,,,,,,,,,,,,,,,,,,,,,,,,,
,608252263bd38a91cf28c121,627c69960b1eff972bd1fead,2022-05-11_21h57.57.442,classification_task,2021.2.3,Win32,59.81934558,627c6715c52fd12f31907bcf,,,,,,,,,,,,,,,,,,,,,,,a,1,2.778,"[""0.288"",""0.419"",""0.844"",""0.070""]","[1,1,1,0]",0,1,1,1,1,0,0,,,1,FALSE,,,,,,,,,,,,,,,,,,,,,,,,,,,,,,,
,608252263bd38a91cf28c121,627c69960b1eff972bd1fead,2022-05-11_21h57.57.442,classification_task,2021.2.3,Win32,59.81934558,627c6715c52fd12f31907bcf,,,,,,,,,,,,,,,,,,,,,,,a,1,3.6278,"[""0.177"",""0.472"",""0.888"",""0.621""]","[1,1,1,0]",0,2,2,2,1,0,1,,,1,FALSE,,,,,,,,,,,,,,,,,,,,,,,,,,,,,,,
,608252263bd38a91cf28c121,627c69960b1eff972bd1fead,2022-05-11_21h57.57.442,classification_task,2021.2.3,Win32,59.81934558,627c6715c52fd12f31907bcf,,,,,,,,,,,,,,,,,,,,,,,l,1,1.9283,"[""0.035"",""0.672"",""0.521"",""0.788""]","[1,0,1,1]",0,3,3,3,1,1,0,,,1,FALSE,,,,,,,,,,,,,,,,,,,,,,,,,,,,,,,
,608252263bd38a91cf28c121,627c69960b1eff972bd1fead,2022-05-11_21h57.57.442,classification_task,2021.2.3,Win32,59.81934558,627c6715c52fd12f31907bcf,,,,,,,,,,,,,,,,,,,,,,,l,1,1.8004,"[""0.104"",""0.372"",""0.622"",""0.734""]","[1,1,0,1]",0,4,4,4,1,1,1,,,1,FALSE,,,,,,,,,,,,,,,,,,,,,,,,,,,,,,,
,608252263bd38a91cf28c121,627c69960b1eff972bd1fead,2022-05-11_21h57.57.442,classification_task,2021.2.3,Win32,59.81934558,627c6715c52fd12f31907bcf,,,,,,,,,,,,,,,,,,,,,,,l,1,1.6539,"[""0.104"",""0.597"",""0.556"",""0.734""]","[1,0,1,1]",0,5,5,5,1,1,1,,,1,FALSE,,,,,,,,,,,,,,,,,,,,,,,,,,,,,,,
,608252263bd38a91cf28c121,627c69960b1eff972bd1fead,2022-05-11_21h57.57.442,classification_task,2021.2.3,Win32,59.81934558,627c6715c52fd12f31907bcf,,,,,,,,,,,,,,,,,,,,,,,a,0,0.9908,"[""0.104"",""0.372"",""0.556"",""0.651""]","[1,1,1,0]",0,6,6,6,1,1,1,,,1,FALSE,,,,,,,,,,,,,,,,,,,,,,,,,,,,,,,
,608252263bd38a91cf28c121,627c69960b1eff972bd1fead,2022-05-11_21h57.57.442,classification_task,2021.2.3,Win32,59.81934558,627c6715c52fd12f31907bcf,,,,,,,,,,,,,,,,,,,,,,,a,1,1.3705,"[""0.177"",""0.472"",""0.647"",""0.967""]","[1,1,0,1]",0,7,7,7,1,0,1,,,1,FALSE,,,,,,,,,,,,,,,,,,,,,,,,,,,,,,,
,608252263bd38a91cf28c121,627c69960b1eff972bd1fead,2022-05-11_21h57.57.442,classification_task,2021.2.3,Win32,59.81934558,627c6715c52fd12f31907bcf,,,,,,,,,,,,,,,,,,,,,,,a,1,0.9038,"[""0.647"",""0.472"",""0.888"",""0.967""]","[0,1,1,1]",0,8,8,8,1,0,1,,,1,FALSE,,,,,,,,,,,,,,,,,,,,,,,,,,,,,,,
,608252263bd38a91cf28c121,627c69960b1eff972bd1fead,2022-05-11_21h57.57.442,classification_task,2021.2.3,Win32,59.81934558,627c6715c52fd12f31907bcf,,,,,,,,,,,,,,,,,,,,,,,a,1,1.0804,"[""0.288"",""0.419"",""0.618"",""0.931""]","[1,1,0,1]",0,9,9,9,1,0,0,,,1,FALSE,,,,,,,,,,,,,,,,,,,,,,,,,,,,,,,
,608252263bd38a91cf28c121,627c69960b1eff972bd1fead,2022-05-11_21h57.57.442,classification_task,2021.2.3,Win32,59.81934558,627c6715c52fd12f31907bcf,,,,,,,,,,,,,,,,,,,,,,,a,0,1.5186,"[""0.035"",""0.232"",""0.672"",""0.788""]","[1,1,0,1]",0,10,10,10,1,1,0,,,1,FALSE,,,,,,,,,,,,,,,,,,,,,,,,,,,,,,,
,608252263bd38a91cf28c121,627c69960b1eff972bd1fead,2022-05-11_21h57.57.442,classification_task,2021.2.3,Win32,59.81934558,627c6715c52fd12f31907bcf,,,,,,,,,,,,,,,,,,,,,,,a,1,0.7998,"[""0.288"",""0.671"",""0.844"",""0.931""]","[1,0,1,1]",0,11,11,11,1,0,0,,,1,FALSE,,,,,,,,,,,,,,,,,,,,,,,,,,,,,,,
,608252263bd38a91cf28c121,627c69960b1eff972bd1fead,2022-05-11_21h57.57.442,classification_task,2021.2.3,Win32,59.81934558,627c6715c52fd12f31907bcf,,,,,,,,,,,,,,,,,,,,,,,a,1,0.7843,"[""0.656"",""0.419"",""0.844"",""0.931""]","[0,1,1,1]",0,12,12,12,1,0,0,,,1,FALSE,,,,,,,,,,,,,,,,,,,,,,,,,,,,,,,
,608252263bd38a91cf28c121,627c69960b1eff972bd1fead,2022-05-11_21h57.57.442,classification_task,2021.2.3,Win32,59.81934558,627c6715c52fd12f31907bcf,,,,,,,,,,,,,,,,,,,,,,,l,1,0.9156,"[""0.035"",""0.232"",""0.521"",""0.618""]","[1,1,1,0]",0,13,13,13,1,1,0,,,1,FALSE,,,,,,,,,,,,,,,,,,,,,,,,,,,,,,,
,608252263bd38a91cf28c121,627c69960b1eff972bd1fead,2022-05-11_21h57.57.442,classification_task,2021.2.3,Win32,59.81934558,627c6715c52fd12f31907bcf,,,,,,,,,,,,,,,,,,,,,,,l,1,0.882,"[""0.656"",""0.232"",""0.521"",""0.788""]","[0,1,1,1]",0,14,14,14,1,1,0,,,1,FALSE,,,,,,,,,,,,,,,,,,,,,,,,,,,,,,,
,608252263bd38a91cf28c121,627c69960b1eff972bd1fead,2022-05-11_21h57.57.442,classification_task,2021.2.3,Win32,59.81934558,627c6715c52fd12f31907bcf,,,,,,,,,,,,,,,,,,,,,,,l,0,1.3511,"[""0.177"",""0.699"",""0.888"",""0.967""]","[1,0,1,1]",0,15,15,15,1,0,1,,,1,FALSE,,,,,,,,,,,,,,,,,,,,,,,,,,,,,,,
,608252263bd38a91cf28c121,627c69960b1eff972bd1fead,2022-05-11_21h57.57.442,classification_task,2021.2.3,Win32,59.81934558,627c6715c52fd12f31907bcf,,,,,,,,,,,,,,,,,,,,,,,l,0,1.1016,"[""0.288"",""0.419"",""0.844"",""0.070""]","[1,1,1,0]",0,16,16,16,1,0,0,,,1,FALSE,,,,,,,,,,,,,,,,,,,,,,,,,,,,,,,
,608252263bd38a91cf28c121,627c69960b1eff972bd1fead,2022-05-11_21h57.57.442,classification_task,2021.2.3,Win32,59.81934558,627c6715c52fd12f31907bcf,,,,,,,,,,,,,,,,,,,,,,,l,1,3.1848,"[""0.104"",""0.372"",""0.556"",""0.621""]","[1,1,1,0]",0,17,17,17,1,1,1,,,1,FALSE,,,,,,,,,,,,,,,,,,,,,,,,,,,,,,,
,608252263bd38a91cf28c121,627c69960b1eff972bd1fead,2022-05-11_21h57.57.442,classification_task,2021.2.3,Win32,59.81934558,627c6715c52fd12f31907bcf,,,,,,,,,,,,,,,,,,,,,,,l,1,1.0321,"[""0.104"",""0.372"",""0.070"",""0.734""]","[1,1,0,1]",0,18,18,18,1,1,1,,,1,FALSE,,,,,,,,,,,,,,,,,,,,,,,,,,,,,,,
,608252263bd38a91cf28c121,627c69960b1eff972bd1fead,2022-05-11_21h57.57.442,classification_task,2021.2.3,Win32,59.81934558,627c6715c52fd12f31907bcf,,,,,,,,,,,,,,,,,,,,,,,a,1,0.5833,"[""0.672"",""0.419"",""0.844"",""0.931""]","[0,1,1,1]",0,19,19,19,1,0,0,,,1,FALSE,,,,,,,,,,,,,,,,,,,,,,,,,,,,,,,
,608252263bd38a91cf28c121,627c69960b1eff972bd1fead,2022-05-11_21h57.57.442,classification_task,2021.2.3,Win32,59.81934558,627c6715c52fd12f31907bcf,,,,,,,,,,,,,,,,,,,,,,,a,0,1.0159,"[""0.035"",""0.232"",""0.597"",""0.788""]","[1,1,0,1]",0,20,20,20,1,1,0,,,1,FALSE,,,,,,,,,,,,,,,,,,,,,,,,,,,,,,,
,608252263bd38a91cf28c121,627c69960b1eff972bd1fead,2022-05-11_21h57.57.442,classification_task,2021.2.3,Win32,59.81934558,627c6715c52fd12f31907bcf,,,,,,,,,,,,,,,,,,,,,,,a,1,1.6818,"[""0.177"",""0.597"",""0.888"",""0.967""]","[1,0,1,1]",0,21,21,21,1,0,1,,,1,FALSE,,,,,,,,,,,,,,,,,,,,,,,,,,,,,,,
,608252263bd38a91cf28c121,627c69960b1eff972bd1fead,2022-05-11_21h57.57.442,classification_task,2021.2.3,Win32,59.81934558,627c6715c52fd12f31907bcf,,,,,,,,,,,,,,,,,,,,,,,a,1,0.7484,"[""0.622"",""0.472"",""0.888"",""0.967""]","[0,1,1,1]",0,22,22,22,1,0,1,,,1,FALSE,,,,,,,,,,,,,,,,,,,,,,,,,,,,,,,
,608252263bd38a91cf28c121,627c69960b1eff972bd1fead,2022-05-11_21h57.57.442,classification_task,2021.2.3,Win32,59.81934558,627c6715c52fd12f31907bcf,,,,,,,,,,,,,,,,,,,,,,,l,1,1.4171,"[""0.035"",""0.597"",""0.521"",""0.788""]","[1,0,1,1]",0,23,23,23,1,1,0,,,1,FALSE,,,,,,,,,,,,,,,,,,,,,,,,,,,,,,,
,608252263bd38a91cf28c121,627c69960b1eff972bd1fead,2022-05-11_21h57.57.442,classification_task,2021.2.3,Win32,59.81934558,627c6715c52fd12f31907bcf,,,,,,,,,,,,,,,,,,,,,,,l,1,1.1152,"[""0.692"",""0.232"",""0.521"",""0.788""]","[0,1,1,1]",0,24,24,24,1,1,0,,,1,FALSE,,,,,,,,,,,,,,,,,,,,,,,,,,,,,,,
,608252263bd38a91cf28c121,627c69960b1eff972bd1fead,2022-05-11_21h57.57.442,classification_task,2021.2.3,Win32,59.81934558,627c6715c52fd12f31907bcf,,,,,,,,,,,,,,,,,,,,,,,a,1,0.9837,"[""0.177"",""0.472"",""0.672"",""0.967""]","[1,1,0,1]",0,25,25,25,1,0,1,,,1,FALSE,,,,,,,,,,,,,,,,,,,,,,,,,,,,,,,
,608252263bd38a91cf28c121,627c69960b1eff972bd1fead,2022-05-11_21h57.57.442,classification_task,2021.2.3,Win32,59.81934558,627c6715c52fd12f31907bcf,,,,,,,,,,,,,,,,,,,,,,,l,1,0.6316,"[""0.035"",""0.232"",""0.521"",""0.692""]","[1,1,1,0]",0,26,26,26,1,1,0,,,1,FALSE,,,,,,,,,,,,,,,,,,,,,,,,,,,,,,,
,608252263bd38a91cf28c121,627c69960b1eff972bd1fead,2022-05-11_21h57.57.442,classification_task,2021.2.3,Win32,59.81934558,627c6715c52fd12f31907bcf,,,,,,,,,,,,,,,,,,,,,,,a,0,1.0162,"[""0.699"",""0.372"",""0.556"",""0.734""]","[0,1,1,1]",0,27,27,27,1,1,1,,,1,FALSE,,,,,,,,,,,,,,,,,,,,,,,,,,,,,,,
,608252263bd38a91cf28c121,627c69960b1eff972bd1fead,2022-05-11_21h57.57.442,classification_task,2021.2.3,Win32,59.81934558,627c6715c52fd12f31907bcf,,,,,,,,,,,,,,,,,,,,,,,l,0,0.8639,"[""0.177"",""0.472"",""0.888"",""0.688""]","[1,1,1,0]",0,28,28,28,1,0,1,,,1,FALSE,,,,,,,,,,,,,,,,,,,,,,,,,,,,,,,
,608252263bd38a91cf28c121,627c69960b1eff972bd1fead,2022-05-11_21h57.57.442,classification_task,2021.2.3,Win32,59.81934558,627c6715c52fd12f31907bcf,,,,,,,,,,,,,,,,,,,,,,,a,1,0.6118,"[""0.288"",""0.656"",""0.844"",""0.931""]","[1,0,1,1]",0,29,29,29,1,0,0,,,1,FALSE,,,,,,,,,,,,,,,,,,,,,,,,,,,,,,,
,608252263bd38a91cf28c121,627c69960b1eff972bd1fead,2022-05-11_21h57.57.442,classification_task,2021.2.3,Win32,59.81934558,627c6715c52fd12f31907bcf,,,,,,,,,,,,,,,,,,,,,,,a,1,0.8341,"[""0.288"",""0.419"",""0.597"",""0.931""]","[1,1,0,1]",0,30,30,30,1,0,0,,,1,FALSE,,,,,,,,,,,,,,,,,,,,,,,,,,,,,,,
,608252263bd38a91cf28c121,627c69960b1eff972bd1fead,2022-05-11_21h57.57.442,classification_task,2021.2.3,Win32,59.81934558,627c6715c52fd12f31907bcf,,,,,,,,,,,,,,,,,,,,,,,l,1,0.6858,"[""0.104"",""0.597"",""0.556"",""0.734""]","[1,0,1,1]",0,31,31,31,1,1,1,,,1,FALSE,,,,,,,,,,,,,,,,,,,,,,,,,,,,,,,
,608252263bd38a91cf28c121,627c69960b1eff972bd1fead,2022-05-11_21h57.57.442,classification_task,2021.2.3,Win32,59.81934558,627c6715c52fd12f31907bcf,,,,,,,,,,,,,,,,,,,,,,,a,1,0.5345,"[""0.177"",""0.622"",""0.888"",""0.967""]","[1,0,1,1]",0,32,32,32,1,0,1,,,1,FALSE,,,,,,,,,,,,,,,,,,,,,,,,,,,,,,,
,608252263bd38a91cf28c121,627c69960b1eff972bd1fead,2022-05-11_21h57.57.442,classification_task,2021.2.3,Win32,59.81934558,627c6715c52fd12f31907bcf,,,,,,,,,,,,,,,,,,,,,,,a,1,0.5324,"[""0.288"",""0.419"",""0.844"",""0.613""]","[1,1,1,0]",0,33,33,33,1,0,0,,,1,FALSE,,,,,,,,,,,,,,,,,,,,,,,,,,,,,,,
,608252263bd38a91cf28c121,627c69960b1eff972bd1fead,2022-05-11_21h57.57.442,classification_task,2021.2.3,Win32,59.81934558,627c6715c52fd12f31907bcf,,,,,,,,,,,,,,,,,,,,,,,l,0,0.7839,"[""0.647"",""0.419"",""0.844"",""0.931""]","[0,1,1,1]",0,34,34,34,1,0,0,,,1,FALSE,,,,,,,,,,,,,,,,,,,,,,,,,,,,,,,
,608252263bd38a91cf28c121,627c69960b1eff972bd1fead,2022-05-11_21h57.57.442,classification_task,2021.2.3,Win32,59.81934558,627c6715c52fd12f31907bcf,,,,,,,,,,,,,,,,,,,,,,,a,1,0.4684,"[""0.288"",""0.672"",""0.844"",""0.931""]","[1,0,1,1]",0,35,35,35,1,0,0,,,1,FALSE,,,,,,,,,,,,,,,,,,,,,,,,,,,,,,,
,608252263bd38a91cf28c121,627c69960b1eff972bd1fead,2022-05-11_21h57.57.442,classification_task,2021.2.3,Win32,59.81934558,627c6715c52fd12f31907bcf,,,,,,,,,,,,,,,,,,,,,,,l,1,1.1334,"[""0.621"",""0.232"",""0.521"",""0.788""]","[0,1,1,1]",0,36,36,36,1,1,0,,,1,FALSE,,,,,,,,,,,,,,,,,,,,,,,,,,,,,,,
,608252263bd38a91cf28c121,627c69960b1eff972bd1fead,2022-05-11_21h57.57.442,classification_task,2021.2.3,Win32,59.81934558,627c6715c52fd12f31907bcf,,,,,,,,,,,,,,,,,,,,,,,l,1,0.8328,"[""0.104"",""0.372"",""0.556"",""0.672""]","[1,1,1,0]",0,37,37,37,1,1,1,,,1,FALSE,,,,,,,,,,,,,,,,,,,,,,,,,,,,,,,
,608252263bd38a91cf28c121,627c69960b1eff972bd1fead,2022-05-11_21h57.57.442,classification_task,2021.2.3,Win32,59.81934558,627c6715c52fd12f31907bcf,,,,,,,,,,,,,,,,,,,,,,,l,1,0.7667,"[""0.104"",""0.692"",""0.556"",""0.734""]","[1,0,1,1]",0,38,38,38,1,1,1,,,1,FALSE,,,,,,,,,,,,,,,,,,,,,,,,,,,,,,,
,608252263bd38a91cf28c121,627c69960b1eff972bd1fead,2022-05-11_21h57.57.442,classification_task,2021.2.3,Win32,59.81934558,627c6715c52fd12f31907bcf,,,,,,,,,,,,,,,,,,,,,,,a,1,0.4162,"[""0.288"",""0.419"",""0.621"",""0.931""]","[1,1,0,1]",0,39,39,39,1,0,0,,,1,FALSE,,,,,,,,,,,,,,,,,,,,,,,,,,,,,,,
,608252263bd38a91cf28c121,627c69960b1eff972bd1fead,2022-05-11_21h57.57.442,classification_task,2021.2.3,Win32,59.81934558,627c6715c52fd12f31907bcf,,,,,,,,,,,,,,,,,,,,,,,a,0,1.1322,"[""0.035"",""0.232"",""0.521"",""0.613""]","[1,1,1,0]",0,40,40,40,1,1,0,,,1,FALSE,,,,,,,,,,,,,,,,,,,,,,,,,,,,,,,
,608252263bd38a91cf28c121,627c69960b1eff972bd1fead,2022-05-11_21h57.57.442,classification_task,2021.2.3,Win32,59.81934558,627c6715c52fd12f31907bcf,,,,,,,,,,,,,,,,,,,,,,,a,0,0.7314,"[""0.035"",""0.622"",""0.521"",""0.788""]","[1,0,1,1]",0,41,41,41,1,1,0,,,1,FALSE,,,,,,,,,,,,,,,,,,,,,,,,,,,,,,,
,608252263bd38a91cf28c121,627c69960b1eff972bd1fead,2022-05-11_21h57.57.442,classification_task,2021.2.3,Win32,59.81934558,627c6715c52fd12f31907bcf,,,,,,,,,,,,,,,,,,,,,,,l,1,3.3649,"[""0.647"",""0.372"",""0.556"",""0.734""]","[0,1,1,1]",0,42,42,42,1,1,1,,,1,FALSE,,,,,,,,,,,,,,,,,,,,,,,,,,,,,,,
,608252263bd38a91cf28c121,627c69960b1eff972bd1fead,2022-05-11_21h57.57.442,classification_task,2021.2.3,Win32,59.81934558,627c6715c52fd12f31907bcf,,,,,,,,,,,,,,,,,,,,,,,a,1,0.7997,"[""0.177"",""0.472"",""0.888"",""0.671""]","[1,1,1,0]",0,43,43,43,1,0,1,,,1,FALSE,,,,,,,,,,,,,,,,,,,,,,,,,,,,,,,
,608252263bd38a91cf28c121,627c69960b1eff972bd1fead,2022-05-11_21h57.57.442,classification_task,2021.2.3,Win32,59.81934558,627c6715c52fd12f31907bcf,,,,,,,,,,,,,,,,,,,,,,,a,1,4.1176,"[""0.672"",""0.472"",""0.888"",""0.967""]","[0,1,1,1]",0,44,44,44,1,0,1,,,1,FALSE,,,,,,,,,,,,,,,,,,,,,,,,,,,,,,,
,608252263bd38a91cf28c121,627c69960b1eff972bd1fead,2022-05-11_21h57.57.442,classification_task,2021.2.3,Win32,59.81934558,627c6715c52fd12f31907bcf,,,,,,,,,,,,,,,,,,,,,,,l,0,0.7164,"[""0.177"",""0.472"",""0.671"",""0.967""]","[1,1,0,1]",0,45,45,45,1,0,1,,,1,FALSE,,,,,,,,,,,,,,,,,,,,,,,,,,,,,,,
,608252263bd38a91cf28c121,627c69960b1eff972bd1fead,2022-05-11_21h57.57.442,classification_task,2021.2.3,Win32,59.81934558,627c6715c52fd12f31907bcf,,,,,,,,,,,,,,,,,,,,,,,l,1,1.1349,"[""0.035"",""0.232"",""0.597"",""0.788""]","[1,1,0,1]",0,46,46,46,1,1,0,,,1,FALSE,,,,,,,,,,,,,,,,,,,,,,,,,,,,,,,
,608252263bd38a91cf28c121,627c69960b1eff972bd1fead,2022-05-11_21h57.57.442,classification_task,2021.2.3,Win32,59.81934558,627c6715c52fd12f31907bcf,,,,,,,,,,,,,,,,,,,,,,,l,1,0.9678,"[""0.104"",""0.372"",""0.622"",""0.734""]","[1,1,0,1]",0,47,47,47,1,1,1,,,1,FALSE,,,,,,,,,,,,,,,,,,,,,,,,,,,,,,,
,608252263bd38a91cf28c121,627c69960b1eff972bd1fead,2022-05-11_21h57.57.442,classification_task,2021.2.3,Win32,59.81934558,627c6715c52fd12f31907bcf,,,,,,,,,,,,,,,,,,,,,,,a,1,0.7317,"[""0.288"",""0.419"",""0.844"",""0.621""]","[1,1,1,0]",0,48,48,48,1,0,0,,,1,FALSE,,,,,,,,,,,,,,,,,,,,,,,,,,,,,,,
,608252263bd38a91cf28c121,627c69960b1eff972bd1fead,2022-05-11_21h57.57.442,classification_task,2021.2.3,Win32,59.81934558,627c6715c52fd12f31907bcf,,,,,,,,,,,,,,,,,,,,,,,a,1,1.4712,"[""0.647"",""0.472"",""0.888"",""0.967""]","[0,1,1,1]",0,49,49,49,1,0,1,,,1,FALSE,,,,,,,,,,,,,,,,,,,,,,,,,,,,,,,
,608252263bd38a91cf28c121,627c69960b1eff972bd1fead,2022-05-11_21h57.57.442,classification_task,2021.2.3,Win32,59.81934558,627c6715c52fd12f31907bcf,,,,,,,,,,,,,,,,,,,,,,,l,1,1.5347,"[""0.104"",""0.647"",""0.556"",""0.734""]","[1,0,1,1]",0,50,50,50,1,1,1,,,1,FALSE,,,,,,,,,,,,,,,,,,,,,,,,,,,,,,,
,608252263bd38a91cf28c121,627c69960b1eff972bd1fead,2022-05-11_21h57.57.442,classification_task,2021.2.3,Win32,59.81934558,627c6715c52fd12f31907bcf,,,,,,,,,,,,,,,,,,,,,,,l,0,0.8649,"[""0.177"",""0.472"",""0.888"",""0.656""]","[1,1,1,0]",0,51,51,51,1,0,1,,,1,FALSE,,,,,,,,,,,,,,,,,,,,,,,,,,,,,,,
,608252263bd38a91cf28c121,627c69960b1eff972bd1fead,2022-05-11_21h57.57.442,classification_task,2021.2.3,Win32,59.81934558,627c6715c52fd12f31907bcf,,,,,,,,,,,,,,,,,,,,,,,l,0,0.6179,"[""0.177"",""0.472"",""0.692"",""0.967""]","[1,1,0,1]",0,52,52,52,1,0,1,,,1,FALSE,,,,,,,,,,,,,,,,,,,,,,,,,,,,,,,
,608252263bd38a91cf28c121,627c69960b1eff972bd1fead,2022-05-11_21h57.57.442,classification_task,2021.2.3,Win32,59.81934558,627c6715c52fd12f31907bcf,,,,,,,,,,,,,,,,,,,,,,,l,0,0.8487,"[""0.177"",""0.647"",""0.888"",""0.967""]","[1,0,1,1]",0,53,53,53,1,0,1,,,1,FALSE,,,,,,,,,,,,,,,,,,,,,,,,,,,,,,,
,608252263bd38a91cf28c121,627c69960b1eff972bd1fead,2022-05-11_21h57.57.442,classification_task,2021.2.3,Win32,59.81934558,627c6715c52fd12f31907bcf,,,,,,,,,,,,,,,,,,,,,,,a,1,0.6004,"[""0.622"",""0.419"",""0.844"",""0.931""]","[0,1,1,1]",0,54,54,54,1,0,0,,,1,FALSE,,,,,,,,,,,,,,,,,,,,,,,,,,,,,,,
,608252263bd38a91cf28c121,627c69960b1eff972bd1fead,2022-05-11_21h57.57.442,classification_task,2021.2.3,Win32,59.81934558,627c6715c52fd12f31907bcf,,,,,,,,,,,,,,,,,,,,,,,a,0,0.5987,"[""0.035"",""0.232"",""0.618"",""0.788""]","[1,1,0,1]",0,55,55,55,1,1,0,,,1,FALSE,,,,,,,,,,,,,,,,,,,,,,,,,,,,,,,
,608252263bd38a91cf28c121,627c69960b1eff972bd1fead,2022-05-11_21h57.57.442,classification_task,2021.2.3,Win32,59.81934558,627c6715c52fd12f31907bcf,,,,,,,,,,,,,,,,,,,,,,,l,1,0.7868,"[""0.104"",""0.372"",""0.556"",""0.671""]","[1,1,1,0]",0,56,56,56,1,1,1,,,1,FALSE,,,,,,,,,,,,,,,,,,,,,,,,,,,,,,,
,608252263bd38a91cf28c121,627c69960b1eff972bd1fead,2022-05-11_21h57.57.442,classification_task,2021.2.3,Win32,59.81934558,627c6715c52fd12f31907bcf,,,,,,,,,,,,,,,,,,,,,,,a,1,0.4644,"[""0.288"",""0.621"",""0.844"",""0.931""]","[1,0,1,1]",0,57,57,57,1,0,0,,,1,FALSE,,,,,,,,,,,,,,,,,,,,,,,,,,,,,,,
,608252263bd38a91cf28c121,627c69960b1eff972bd1fead,2022-05-11_21h57.57.442,classification_task,2021.2.3,Win32,59.81934558,627c6715c52fd12f31907bcf,,,,,,,,,,,,,,,,,,,,,,,a,0,0.4502,"[""0.688"",""0.232"",""0.521"",""0.788""]","[0,1,1,1]",0,58,58,58,1,1,0,,,1,FALSE,,,,,,,,,,,,,,,,,,,,,,,,,,,,,,,
,608252263bd38a91cf28c121,627c69960b1eff972bd1fead,2022-05-11_21h57.57.442,classification_task,2021.2.3,Win32,59.81934558,627c6715c52fd12f31907bcf,,,,,,,,,,,,,,,,,,,,,,,a,1,0.4478,"[""0.288"",""0.419"",""0.651"",""0.931""]","[1,1,0,1]",0,59,59,59,1,0,0,,,1,FALSE,,,,,,,,,,,,,,,,,,,,,,,,,,,,,,,
,608252263bd38a91cf28c121,627c69960b1eff972bd1fead,2022-05-11_21h57.57.442,classification_task,2021.2.3,Win32,59.81934558,627c6715c52fd12f31907bcf,,,,,,,,,,,,,,,,,,,,,,,l,1,0.6832,"[""0.656"",""0.372"",""0.556"",""0.734""]","[0,1,1,1]",0,60,60,60,1,1,1,,,1,FALSE,,,,,,,,,,,,,,,,,,,,,,,,,,,,,,,
,608252263bd38a91cf28c121,627c69960b1eff972bd1fead,2022-05-11_21h57.57.442,classification_task,2021.2.3,Win32,59.81934558,627c6715c52fd12f31907bcf,,,,,,,,,,,,,,,,,,,,,,,a,0,0.3788,"[""0.035"",""0.622"",""0.521"",""0.788""]","[1,0,1,1]",0,61,61,61,1,1,0,,,1,FALSE,,,,,,,,,,,,,,,,,,,,,,,,,,,,,,,
,608252263bd38a91cf28c121,627c69960b1eff972bd1fead,2022-05-11_21h57.57.442,classification_task,2021.2.3,Win32,59.81934558,627c6715c52fd12f31907bcf,,,,,,,,,,,,,,,,,,,,,,,a,0,0.75,"[""0.035"",""0.232"",""0.521"",""0.613""]","[1,1,1,0]",0,62,62,62,1,1,0,,,1,FALSE,,,,,,,,,,,,,,,,,,,,,,,,,,,,,,,
,608252263bd38a91cf28c121,627c69960b1eff972bd1fead,2022-05-11_21h57.57.442,classification_task,2021.2.3,Win32,59.81934558,627c6715c52fd12f31907bcf,,,,,,,,,,,,,,,,,,,,,,,l,1,0.7507,"[""0.104"",""0.372"",""0.606"",""0.734""]","[1,1,0,1]",0,63,63,63,1,1,1,,,1,FALSE,,,,,,,,,,,,,,,,,,,,,,,,,,,,,,,
,608252263bd38a91cf28c121,627c69960b1eff972bd1fead,2022-05-11_21h57.57.442,classification_task,2021.2.3,Win32,59.81934558,627c6715c52fd12f31907bcf,,,,,,,,,,,,,,,,,,,,,,,,,,,,,,,,,,,,,,,0, ,,0,9.366305256,152.8678,0,2,2,2,1,2,3,,,,,,,,,,,,,,,,,,
,608252263bd38a91cf28c121,627c69960b1eff972bd1fead,2022-05-11_21h57.57.442,classification_task,2021.2.3,Win32,59.81934558,627c6715c52fd12f31907bcf,,,,,,,,,,,,,,,,,,,,,,,,,,,,,,,,,,,,,,,1,  ,,0,9.660249247,151.4953,0,2,2,2,1,2,3,,,,,,,,,,,,,,,,,,
,608252263bd38a91cf28c121,627c69960b1eff972bd1fead,2022-05-11_21h57.57.442,classification_task,2021.2.3,Win32,59.81934558,627c6715c52fd12f31907bcf,,,,,,,,,,,,,,,,,,,,,,,,,,,,,,,,,,,,,,,2,  ,,0,9.684744268,153.9168,0,2,2,2,1,2,3,,,,,,,,,,,,,,,,,,
,608252263bd38a91cf28c121,627c69960b1eff972bd1fead,2022-05-11_21h57.57.442,classification_task,2021.2.3,Win32,59.81934558,627c6715c52fd12f31907bcf,,,,,,,,,,,,,,,,,,,,,,,,,,,,,,,,,,,,,,,,,,,,,0,2,2,2,1,,3,,,,,,,,,,,,,,,,,,
,608252263bd38a91cf28c121,627c69960b1eff972bd1fead,2022-05-11_21h57.57.442,classification_task,2021.2.3,Win32,59.81934558,627c6715c52fd12f31907bcf,,,,,,,,,,,,,,,,,,,,,,,,,,,,,,,,,,,,,,,,,,,,,,,,,,,,,I believe the aid is a competent performer,,0.7,0,4,651.3793,0,0,0,0,1,0,,,,,
,608252263bd38a91cf28c121,627c69960b1eff972bd1fead,2022-05-11_21h57.57.442,classification_task,2021.2.3,Win32,59.81934558,627c6715c52fd12f31907bcf,,,,,,,,,,,,,,,,,,,,,,,,,,,,,,,,,,,,,,,,,,,,,,,,,,,,,I trust the aid,,0.7,0,3,651.9173,0,0,0,0,1,0,,,,,
,608252263bd38a91cf28c121,627c69960b1eff972bd1fead,2022-05-11_21h57.57.442,classification_task,2021.2.3,Win32,59.81934558,627c6715c52fd12f31907bcf,,,,,,,,,,,,,,,,,,,,,,,,,,,,,,,,,,,,,,,,,,,,,,,,,,,,,I have confidence in the advice given by the aid,,0.7,0,5,654.999,0,0,0,0,1,0,,,,,
,608252263bd38a91cf28c121,627c69960b1eff972bd1fead,2022-05-11_21h57.57.442,classification_task,2021.2.3,Win32,59.81934558,627c6715c52fd12f31907bcf,,,,,,,,,,,,,,,,,,,,,,,,,,,,,,,,,,,,,,,,,,,,,,,,,,,,,I can depend on the aid,,0.7,0,1,657.8185,0,0,0,0,1,0,,,,,
,608252263bd38a91cf28c121,627c69960b1eff972bd1fead,2022-05-11_21h57.57.442,classification_task,2021.2.3,Win32,59.81934558,627c6715c52fd12f31907bcf,,,,,,,,,,,,,,,,,,,,,,,,,,,,,,,,,,,,,,,,,,,,,,,,,,,,,I can rely on the aid to behave in consistent ways,,0.7,0,2,659.481,0,0,0,0,1,0,,,,,
,608252263bd38a91cf28c121,627c69960b1eff972bd1fead,2022-05-11_21h57.57.442,classification_task,2021.2.3,Win32,59.81934558,627c6715c52fd12f31907bcf,,,,,,,,,,,,,,,,,,,,,,,,,,,,,,,,,,,,,,,,,,,,,,,,,,,,,I can rely on the aid to do its best every time I take its advice,,0.7,0,4,661.8321,0,0,0,0,1,0,,,,,
,608252263bd38a91cf28c121,627c69960b1eff972bd1fead,2022-05-11_21h57.57.442,classification_task,2021.2.3,Win32,59.81934558,627c6715c52fd12f31907bcf,,,,,,,,,,,,,,,,,,,,,,,,,,,,,,,,,,,,,,,,,,,,,,,,,,,,,"On trials you completed with assistance from the aid, how frequently did you think the aid was correct?",,0.7,0,40%,,0,0,0,0,1,0,,,,,
,608252263bd38a91cf28c121,627c69960b1eff972bd1fead,2022-05-11_21h57.57.442,classification_task,2021.2.3,Win32,59.81934558,627c6715c52fd12f31907bcf,,,,,,,,,,,,,,,,,,,,,,,,,,,,,,,,,,,,,,,,,,,,,,,,,,,,,"On trials you completed without the aid, how frequently did you think you were correct?",,0.7,0,20%,,0,0,0,0,1,0,,,,,
,608252263bd38a91cf28c121,627c69960b1eff972bd1fead,2022-05-11_21h57.57.442,classification_task,2021.2.3,Win32,59.81934558,627c6715c52fd12f31907bcf,,,,,,,,,,,,,,,,,,,,,,,,,,,,,,,,,,,,,,,,,,,,,,,,,,,,,,,,,,,0,0,0,0,1,,,,,,
,608252263bd38a91cf28c121,627c69960b1eff972bd1fead,2022-05-11_21h57.57.442,classification_task,2021.2.3,Win32,59.81934558,627c6715c52fd12f31907bcf,,,,,,,,,,,,,,,,,,,,,,,,,,,,,,,,,,,,,,,,,,,,,,,,,,,,,,,,,,,,,,,,,s,7.1667,683.9204,,
,608252263bd38a91cf28c121,627c69960b1eff972bd1fead,2022-05-11_21h57.57.442,classification_task,2021.2.3,Win32,59.81934558,627c6715c52fd12f31907bcf,,,,,,,,,,,,,,,,,,,,,,,,,,,,,,,,,,,,,,,,,,,,,,,,,,,,,,,,,,,,,,,,,,,,"Mozilla/5.0 (Windows NT 10.0; Win64; x64) AppleWebKit/537.36 (KHTML, like Gecko) Chrome/101.0.4951.54 Safari/537.36",
,608252263bd38a91cf28c121,627c69960b1eff972bd1fead,2022-05-11_21h57.57.442,classification_task,2021.2.3,Win32,59.81934558,627c6715c52fd12f31907bcf,,,,,,,,,,,,,,,,,,,,,,,,,,,,,,,,,,,,,,,,,,,,,,,,,,,,,,,,,,,,,,,,,,,,,FADING
