usingWebGL,participant,session,date,expName,psychopyVersion,OS,frameRate,PROLIFIC_PID,STUDY_ID,SESSION_ID,signatures_friend,signatures_foe,band_ranges_top,band_ranges_bottom,formitemText,formtype,formundefined,formitemWidth,formindex,formresponse,formrt,key_resp_2.keys,key_resp_2.rt,tute_resp.keys,tute_resp.rt,tutorial.thisRepN,tutorial.thisTrialN,tutorial.thisN,tutorial.thisIndex,tutorial.ran,key_resp_4.keys,key_resp_4.rt,key_resp.keys,key_resp.corr,lines_presented,is_signal_presented,trials.thisRepN,trials.thisTrialN,trials.thisN,trials.thisIndex,trials.ran,vessel,active_band,lines,is_signal,supported_pos,catch_trial,key_resp.rt,debrief_formindex,debrief_formitemText,debrief_formtype,debrief_formitemWidth,debrief_formresponse,debrief_formrt,phases.thisRepN,phases.thisTrialN,phases.thisN,phases.thisIndex,phases.ran,phases.order,phase,key_resp_3.keys,trustitemText,trusttype,trustitemWidth,trustindex,trustresponse,trustrt,support_status.thisRepN,support_status.thisTrialN,support_status.thisN,support_status.thisIndex,support_status.ran,support_status.order,key_resp_5.keys,key_resp_5.rt,globalClockTime,userAgent
TRUE,6087bfacd4e23fe0f68c9aa1,001,2022-04-28_21h10.18.418,classification_task,2021.2.3,Win32,60.0276127,6087bfacd4e23fe0f68c9aa1,626b377229c10585ec392f8a,626b3acfe3fbd43542785a2f,,,,,,,,,,,,,,,,,,,,,,,,,,,,,,,,,,,,,,,,,,,,,,,,,,,,,,,,,,,,,,,,,,,,
,6087bfacd4e23fe0f68c9aa1,001,2022-04-28_21h10.18.418,classification_task,2021.2.3,Win32,60.0276127,6087bfacd4e23fe0f68c9aa1,626b377229c10585ec392f8a,626b3acfe3fbd43542785a2f,"[[""0.258"",""0.430"",""0.786"",""0.871""],[""0.162"",""0.357"",""0.910"",""0.960""]]","[[""0.085"",""0.320"",""0.617"",""0.826""],[""0.127"",""0.197"",""0.483"",""0.694""]]","[1,10]","[100,1000]",Video game experience,,,0.7,0,,,,,,,,,,,,,,,,,,,,,,,,,,,,,,,,,,,,,,,,,,,,,,,,,,,,,,,,,,,
,6087bfacd4e23fe0f68c9aa1,001,2022-04-28_21h10.18.418,classification_task,2021.2.3,Win32,60.0276127,6087bfacd4e23fe0f68c9aa1,626b377229c10585ec392f8a,626b3acfe3fbd43542785a2f,,,,,Approximately how many hours did you spend playing video games in the last week?,,,0.7,0,6,,,,,,,,,,,,,,,,,,,,,,,,,,,,,,,,,,,,,,,,,,,,,,,,,,,,,,,,,,
,6087bfacd4e23fe0f68c9aa1,001,2022-04-28_21h10.18.418,classification_task,2021.2.3,Win32,60.0276127,6087bfacd4e23fe0f68c9aa1,626b377229c10585ec392f8a,626b3acfe3fbd43542785a2f,,,,,"Which game did you play the most this year? (Enter ""None"" if you didn't play any)",,,0.7,0,Genshin Impact,,,,,,,,,,,,,,,,,,,,,,,,,,,,,,,,,,,,,,,,,,,,,,,,,,,,,,,,,,
,6087bfacd4e23fe0f68c9aa1,001,2022-04-28_21h10.18.418,classification_task,2021.2.3,Win32,60.0276127,6087bfacd4e23fe0f68c9aa1,626b377229c10585ec392f8a,626b3acfe3fbd43542785a2f,,,,,Visual perception,,,0.7,0,,,,,,,,,,,,,,,,,,,,,,,,,,,,,,,,,,,,,,,,,,,,,,,,,,,,,,,,,,,
,6087bfacd4e23fe0f68c9aa1,001,2022-04-28_21h10.18.418,classification_task,2021.2.3,Win32,60.0276127,6087bfacd4e23fe0f68c9aa1,626b377229c10585ec392f8a,626b3acfe3fbd43542785a2f,,,,,Do you have any form of color blindness?,,,0.7,0,No,25.8615,,,,,,,,,,,,,,,,,,,,,,,,,,,,,,,,,,,,,,,,,,,,,,,,,,,,,,,,,
,6087bfacd4e23fe0f68c9aa1,001,2022-04-28_21h10.18.418,classification_task,2021.2.3,Win32,60.0276127,6087bfacd4e23fe0f68c9aa1,626b377229c10585ec392f8a,626b3acfe3fbd43542785a2f,,,,,Do you use software to change the colour temperature of your screen (e.g. f.lux)?,,,0.7,0,No,28.5616,,,,,,,,,,,,,,,,,,,,,,,,,,,,,,,,,,,,,,,,,,,,,,,,,,,,,,,,,
,6087bfacd4e23fe0f68c9aa1,001,2022-04-28_21h10.18.418,classification_task,2021.2.3,Win32,60.0276127,6087bfacd4e23fe0f68c9aa1,626b377229c10585ec392f8a,626b3acfe3fbd43542785a2f,,,,,,,,,,,,space,17.4093,space,4.2425,0,0,0,0,1,,,,,,,,,,,,,,,,,,,,,,,,,,,,,,,,,,,,,,,,,,,,,,,,
,6087bfacd4e23fe0f68c9aa1,001,2022-04-28_21h10.18.418,classification_task,2021.2.3,Win32,60.0276127,6087bfacd4e23fe0f68c9aa1,626b377229c10585ec392f8a,626b3acfe3fbd43542785a2f,,,,,,,,,,,,,,space,4.5233,1,0,1,0,1,,,,,,,,,,,,,,,,,,,,,,,,,,,,,,,,,,,,,,,,,,,,,,,,
,6087bfacd4e23fe0f68c9aa1,001,2022-04-28_21h10.18.418,classification_task,2021.2.3,Win32,60.0276127,6087bfacd4e23fe0f68c9aa1,626b377229c10585ec392f8a,626b3acfe3fbd43542785a2f,,,,,,,,,,,,,,space,9.4946,2,0,2,0,1,,,,,,,,,,,,,,,,,,,,,,,,,,,,,,,,,,,,,,,,,,,,,,,,
,6087bfacd4e23fe0f68c9aa1,001,2022-04-28_21h10.18.418,classification_task,2021.2.3,Win32,60.0276127,6087bfacd4e23fe0f68c9aa1,626b377229c10585ec392f8a,626b3acfe3fbd43542785a2f,,,,,,,,,,,,,,space,12.2437,3,0,3,0,1,,,,,,,,,,,,,,,,,,,,,,,,,,,,,,,,,,,,,,,,,,,,,,,,
,6087bfacd4e23fe0f68c9aa1,001,2022-04-28_21h10.18.418,classification_task,2021.2.3,Win32,60.0276127,6087bfacd4e23fe0f68c9aa1,626b377229c10585ec392f8a,626b3acfe3fbd43542785a2f,,,,,,,,,,,,,,space,8.0953,4,0,4,0,1,,,,,,,,,,,,,,,,,,,,,,,,,,,,,,,,,,,,,,,,,,,,,,,,
,6087bfacd4e23fe0f68c9aa1,001,2022-04-28_21h10.18.418,classification_task,2021.2.3,Win32,60.0276127,6087bfacd4e23fe0f68c9aa1,626b377229c10585ec392f8a,626b3acfe3fbd43542785a2f,,,,,,,,,,,,,,,,,,,,,space,12.2217,,0,"[""0.551"",""0.430"",""0.786"",""0.871""]","[0,1,1,1]",0,0,0,0,1,0,0,,,1,FALSE,,,,,,,,,,,,,,,,,,,,,,,,,,,,,,,
,6087bfacd4e23fe0f68c9aa1,001,2022-04-28_21h10.18.418,classification_task,2021.2.3,Win32,60.0276127,6087bfacd4e23fe0f68c9aa1,626b377229c10585ec392f8a,626b3acfe3fbd43542785a2f,,,,,,,,,,,,,,,,,,,,,,,l,1,"[""0.127"",""0.197"",""0.552"",""0.694""]","[1,1,0,1]",0,1,1,1,1,1,1,,,1,FALSE,2.8726,,,,,,,,,,,,,,,,,,,,,,,,,,,,,,
,6087bfacd4e23fe0f68c9aa1,001,2022-04-28_21h10.18.418,classification_task,2021.2.3,Win32,60.0276127,6087bfacd4e23fe0f68c9aa1,626b377229c10585ec392f8a,626b3acfe3fbd43542785a2f,,,,,,,,,,,,,,,,,,,,,,,a,1,"[""0.258"",""0.430"",""0.786"",""0.039""]","[1,1,1,0]",0,2,2,2,1,0,0,,,1,FALSE,2.7888,,,,,,,,,,,,,,,,,,,,,,,,,,,,,,
,6087bfacd4e23fe0f68c9aa1,001,2022-04-28_21h10.18.418,classification_task,2021.2.3,Win32,60.0276127,6087bfacd4e23fe0f68c9aa1,626b377229c10585ec392f8a,626b3acfe3fbd43542785a2f,,,,,,,,,,,,,,,,,,,,,,,l,1,"[""0.085"",""0.320"",""0.531"",""0.826""]","[1,1,0,1]",0,3,3,3,1,1,0,,,1,FALSE,1.7175,,,,,,,,,,,,,,,,,,,,,,,,,,,,,,
,6087bfacd4e23fe0f68c9aa1,001,2022-04-28_21h10.18.418,classification_task,2021.2.3,Win32,60.0276127,6087bfacd4e23fe0f68c9aa1,626b377229c10585ec392f8a,626b3acfe3fbd43542785a2f,,,,,,,,,,,,,,,,,,,,,,,l,1,"[""0.085"",""0.320"",""0.617"",""0.660""]","[1,1,1,0]",0,4,4,4,1,1,0,,,1,FALSE,1.6326,,,,,,,,,,,,,,,,,,,,,,,,,,,,,,
,6087bfacd4e23fe0f68c9aa1,001,2022-04-28_21h10.18.418,classification_task,2021.2.3,Win32,60.0276127,6087bfacd4e23fe0f68c9aa1,626b377229c10585ec392f8a,626b3acfe3fbd43542785a2f,,,,,,,,,,,,,,,,,,,,,,,a,1,"[""0.258"",""0.430"",""0.517"",""0.871""]","[1,1,0,1]",0,5,5,5,1,0,0,,,1,FALSE,1.7309,,,,,,,,,,,,,,,,,,,,,,,,,,,,,,
,6087bfacd4e23fe0f68c9aa1,001,2022-04-28_21h10.18.418,classification_task,2021.2.3,Win32,60.0276127,6087bfacd4e23fe0f68c9aa1,626b377229c10585ec392f8a,626b3acfe3fbd43542785a2f,,,,,,,,,,,,,,,,,,,,,,,a,0,"[""0.544"",""0.197"",""0.483"",""0.694""]","[0,1,1,1]",0,6,6,6,1,1,1,,,1,FALSE,2.1664,,,,,,,,,,,,,,,,,,,,,,,,,,,,,,
,6087bfacd4e23fe0f68c9aa1,001,2022-04-28_21h10.18.418,classification_task,2021.2.3,Win32,60.0276127,6087bfacd4e23fe0f68c9aa1,626b377229c10585ec392f8a,626b3acfe3fbd43542785a2f,,,,,,,,,,,,,,,,,,,,,,,a,0,"[""0.552"",""0.320"",""0.617"",""0.826""]","[0,1,1,1]",0,7,7,7,1,1,0,,,1,FALSE,2.6006,,,,,,,,,,,,,,,,,,,,,,,,,,,,,,
,6087bfacd4e23fe0f68c9aa1,001,2022-04-28_21h10.18.418,classification_task,2021.2.3,Win32,60.0276127,6087bfacd4e23fe0f68c9aa1,626b377229c10585ec392f8a,626b3acfe3fbd43542785a2f,,,,,,,,,,,,,,,,,,,,,,,a,1,"[""0.162"",""0.357"",""0.910"",""0.533""]","[1,1,1,0]",0,8,8,8,1,0,1,,,1,FALSE,2.4583,,,,,,,,,,,,,,,,,,,,,,,,,,,,,,
,6087bfacd4e23fe0f68c9aa1,001,2022-04-28_21h10.18.418,classification_task,2021.2.3,Win32,60.0276127,6087bfacd4e23fe0f68c9aa1,626b377229c10585ec392f8a,626b3acfe3fbd43542785a2f,,,,,,,,,,,,,,,,,,,,,,,l,0,"[""0.162"",""0.357"",""0.656"",""0.960""]","[1,1,0,1]",0,9,9,9,1,0,1,,,1,FALSE,1.5491,,,,,,,,,,,,,,,,,,,,,,,,,,,,,,
,6087bfacd4e23fe0f68c9aa1,001,2022-04-28_21h10.18.418,classification_task,2021.2.3,Win32,60.0276127,6087bfacd4e23fe0f68c9aa1,626b377229c10585ec392f8a,626b3acfe3fbd43542785a2f,,,,,,,,,,,,,,,,,,,,,,,a,1,"[""0.258"",""0.531"",""0.786"",""0.871""]","[1,0,1,1]",0,10,10,10,1,0,0,,,1,FALSE,3.0522,,,,,,,,,,,,,,,,,,,,,,,,,,,,,,
,6087bfacd4e23fe0f68c9aa1,001,2022-04-28_21h10.18.418,classification_task,2021.2.3,Win32,60.0276127,6087bfacd4e23fe0f68c9aa1,626b377229c10585ec392f8a,626b3acfe3fbd43542785a2f,,,,,,,,,,,,,,,,,,,,,,,l,1,"[""0.085"",""0.544"",""0.617"",""0.826""]","[1,0,1,1]",0,11,11,11,1,1,0,,,1,FALSE,4.732,,,,,,,,,,,,,,,,,,,,,,,,,,,,,,
,6087bfacd4e23fe0f68c9aa1,001,2022-04-28_21h10.18.418,classification_task,2021.2.3,Win32,60.0276127,6087bfacd4e23fe0f68c9aa1,626b377229c10585ec392f8a,626b3acfe3fbd43542785a2f,,,,,,,,,,,,,,,,,,,,,,,a,0,"[""0.127"",""0.557"",""0.483"",""0.694""]","[1,0,1,1]",0,12,12,12,1,1,1,,,1,FALSE,3.0846,,,,,,,,,,,,,,,,,,,,,,,,,,,,,,
,6087bfacd4e23fe0f68c9aa1,001,2022-04-28_21h10.18.418,classification_task,2021.2.3,Win32,60.0276127,6087bfacd4e23fe0f68c9aa1,626b377229c10585ec392f8a,626b3acfe3fbd43542785a2f,,,,,,,,,,,,,,,,,,,,,,,l,0,"[""0.656"",""0.357"",""0.910"",""0.960""]","[0,1,1,1]",0,13,13,13,1,0,1,,,1,FALSE,2.9159,,,,,,,,,,,,,,,,,,,,,,,,,,,,,,
,6087bfacd4e23fe0f68c9aa1,001,2022-04-28_21h10.18.418,classification_task,2021.2.3,Win32,60.0276127,6087bfacd4e23fe0f68c9aa1,626b377229c10585ec392f8a,626b3acfe3fbd43542785a2f,,,,,,,,,,,,,,,,,,,,,,,l,0,"[""0.162"",""0.533"",""0.910"",""0.960""]","[1,0,1,1]",0,14,14,14,1,0,1,,,1,FALSE,1.2818,,,,,,,,,,,,,,,,,,,,,,,,,,,,,,
,6087bfacd4e23fe0f68c9aa1,001,2022-04-28_21h10.18.418,classification_task,2021.2.3,Win32,60.0276127,6087bfacd4e23fe0f68c9aa1,626b377229c10585ec392f8a,626b3acfe3fbd43542785a2f,,,,,,,,,,,,,,,,,,,,,,,a,0,"[""0.127"",""0.197"",""0.483"",""0.752""]","[1,1,1,0]",0,15,15,15,1,1,1,,,1,FALSE,2.6658,,,,,,,,,,,,,,,,,,,,,,,,,,,,,,
,6087bfacd4e23fe0f68c9aa1,001,2022-04-28_21h10.18.418,classification_task,2021.2.3,Win32,60.0276127,6087bfacd4e23fe0f68c9aa1,626b377229c10585ec392f8a,626b3acfe3fbd43542785a2f,,,,,,,,,,,,,,,,,,,,,,,l,0,"[""0.162"",""0.357"",""0.531"",""0.960""]","[1,1,0,1]",0,16,16,16,1,0,1,,,1,FALSE,7.1647,,,,,,,,,,,,,,,,,,,,,,,,,,,,,,
,6087bfacd4e23fe0f68c9aa1,001,2022-04-28_21h10.18.418,classification_task,2021.2.3,Win32,60.0276127,6087bfacd4e23fe0f68c9aa1,626b377229c10585ec392f8a,626b3acfe3fbd43542785a2f,,,,,,,,,,,,,,,,,,,,,,,a,0,"[""0.557"",""0.197"",""0.483"",""0.694""]","[0,1,1,1]",0,17,17,17,1,1,1,,,1,FALSE,4.5974,,,,,,,,,,,,,,,,,,,,,,,,,,,,,,
,6087bfacd4e23fe0f68c9aa1,001,2022-04-28_21h10.18.418,classification_task,2021.2.3,Win32,60.0276127,6087bfacd4e23fe0f68c9aa1,626b377229c10585ec392f8a,626b3acfe3fbd43542785a2f,,,,,,,,,,,,,,,,,,,,,,,a,1,"[""0.258"",""0.430"",""0.752"",""0.871""]","[1,1,0,1]",0,18,18,18,1,0,0,,,1,FALSE,5.8549,,,,,,,,,,,,,,,,,,,,,,,,,,,,,,
,6087bfacd4e23fe0f68c9aa1,001,2022-04-28_21h10.18.418,classification_task,2021.2.3,Win32,60.0276127,6087bfacd4e23fe0f68c9aa1,626b377229c10585ec392f8a,626b3acfe3fbd43542785a2f,,,,,,,,,,,,,,,,,,,,,,,l,1,"[""0.127"",""0.197"",""0.483"",""0.049""]","[1,1,1,0]",0,19,19,19,1,1,1,,,1,FALSE,4.4718,,,,,,,,,,,,,,,,,,,,,,,,,,,,,,
,6087bfacd4e23fe0f68c9aa1,001,2022-04-28_21h10.18.418,classification_task,2021.2.3,Win32,60.0276127,6087bfacd4e23fe0f68c9aa1,626b377229c10585ec392f8a,626b3acfe3fbd43542785a2f,,,,,,,,,,,,,,,,,,,,,,,a,0,"[""0.551"",""0.320"",""0.617"",""0.826""]","[0,1,1,1]",0,20,20,20,1,1,0,,,1,FALSE,2.9244,,,,,,,,,,,,,,,,,,,,,,,,,,,,,,
,6087bfacd4e23fe0f68c9aa1,001,2022-04-28_21h10.18.418,classification_task,2021.2.3,Win32,60.0276127,6087bfacd4e23fe0f68c9aa1,626b377229c10585ec392f8a,626b3acfe3fbd43542785a2f,,,,,,,,,,,,,,,,,,,,,,,a,0,"[""0.085"",""0.320"",""0.617"",""0.660""]","[1,1,1,0]",0,21,21,21,1,1,0,,,1,FALSE,2.0858,,,,,,,,,,,,,,,,,,,,,,,,,,,,,,
,6087bfacd4e23fe0f68c9aa1,001,2022-04-28_21h10.18.418,classification_task,2021.2.3,Win32,60.0276127,6087bfacd4e23fe0f68c9aa1,626b377229c10585ec392f8a,626b3acfe3fbd43542785a2f,,,,,,,,,,,,,,,,,,,,,,,l,1,"[""0.127"",""0.197"",""0.031"",""0.694""]","[1,1,0,1]",0,22,22,22,1,1,1,,,1,FALSE,1.2219,,,,,,,,,,,,,,,,,,,,,,,,,,,,,,
,6087bfacd4e23fe0f68c9aa1,001,2022-04-28_21h10.18.418,classification_task,2021.2.3,Win32,60.0276127,6087bfacd4e23fe0f68c9aa1,626b377229c10585ec392f8a,626b3acfe3fbd43542785a2f,,,,,,,,,,,,,,,,,,,,,,,l,0,"[""0.162"",""0.357"",""0.910"",""0.039""]","[1,1,1,0]",0,23,23,23,1,0,1,,,1,FALSE,1.1002,,,,,,,,,,,,,,,,,,,,,,,,,,,,,,
,6087bfacd4e23fe0f68c9aa1,001,2022-04-28_21h10.18.418,classification_task,2021.2.3,Win32,60.0276127,6087bfacd4e23fe0f68c9aa1,626b377229c10585ec392f8a,626b3acfe3fbd43542785a2f,,,,,,,,,,,,,,,,,,,,,,,l,0,"[""0.656"",""0.430"",""0.786"",""0.871""]","[0,1,1,1]",0,24,24,24,1,0,0,,,1,FALSE,6.1508,,,,,,,,,,,,,,,,,,,,,,,,,,,,,,
,6087bfacd4e23fe0f68c9aa1,001,2022-04-28_21h10.18.418,classification_task,2021.2.3,Win32,60.0276127,6087bfacd4e23fe0f68c9aa1,626b377229c10585ec392f8a,626b3acfe3fbd43542785a2f,,,,,,,,,,,,,,,,,,,,,,,l,1,"[""0.127"",""0.654"",""0.483"",""0.694""]","[1,0,1,1]",0,25,25,25,1,1,1,,,1,FALSE,1.5225,,,,,,,,,,,,,,,,,,,,,,,,,,,,,,
,6087bfacd4e23fe0f68c9aa1,001,2022-04-28_21h10.18.418,classification_task,2021.2.3,Win32,60.0276127,6087bfacd4e23fe0f68c9aa1,626b377229c10585ec392f8a,626b3acfe3fbd43542785a2f,,,,,,,,,,,,,,,,,,,,,,,l,0,"[""0.162"",""0.533"",""0.910"",""0.960""]","[1,0,1,1]",0,26,26,26,1,0,1,,,1,FALSE,1.9795,,,,,,,,,,,,,,,,,,,,,,,,,,,,,,
,6087bfacd4e23fe0f68c9aa1,001,2022-04-28_21h10.18.418,classification_task,2021.2.3,Win32,60.0276127,6087bfacd4e23fe0f68c9aa1,626b377229c10585ec392f8a,626b3acfe3fbd43542785a2f,,,,,,,,,,,,,,,,,,,,,,,a,0,"[""0.085"",""0.551"",""0.617"",""0.826""]","[1,0,1,1]",0,27,27,27,1,1,0,,,1,FALSE,2.1931,,,,,,,,,,,,,,,,,,,,,,,,,,,,,,
,6087bfacd4e23fe0f68c9aa1,001,2022-04-28_21h10.18.418,classification_task,2021.2.3,Win32,60.0276127,6087bfacd4e23fe0f68c9aa1,626b377229c10585ec392f8a,626b3acfe3fbd43542785a2f,,,,,,,,,,,,,,,,,,,,,,,l,1,"[""0.085"",""0.320"",""0.733"",""0.826""]","[1,1,0,1]",0,28,28,28,1,1,0,,,1,FALSE,0.2999,,,,,,,,,,,,,,,,,,,,,,,,,,,,,,
,6087bfacd4e23fe0f68c9aa1,001,2022-04-28_21h10.18.418,classification_task,2021.2.3,Win32,60.0276127,6087bfacd4e23fe0f68c9aa1,626b377229c10585ec392f8a,626b3acfe3fbd43542785a2f,,,,,,,,,,,,,,,,,,,,,,,a,1,"[""0.258"",""0.430"",""0.786"",""0.551""]","[1,1,1,0]",0,29,29,29,1,0,0,,,1,FALSE,1.0168,,,,,,,,,,,,,,,,,,,,,,,,,,,,,,
,6087bfacd4e23fe0f68c9aa1,001,2022-04-28_21h10.18.418,classification_task,2021.2.3,Win32,60.0276127,6087bfacd4e23fe0f68c9aa1,626b377229c10585ec392f8a,626b3acfe3fbd43542785a2f,,,,,,,,,,,,,,,,,,,,,,,l,0,"[""0.258"",""0.557"",""0.786"",""0.871""]","[1,0,1,1]",0,30,30,30,1,0,0,,,1,FALSE,0.5497,,,,,,,,,,,,,,,,,,,,,,,,,,,,,,
,6087bfacd4e23fe0f68c9aa1,001,2022-04-28_21h10.18.418,classification_task,2021.2.3,Win32,60.0276127,6087bfacd4e23fe0f68c9aa1,626b377229c10585ec392f8a,626b3acfe3fbd43542785a2f,,,,,,,,,,,,,,,,,,,,,,,a,1,"[""0.660"",""0.357"",""0.910"",""0.960""]","[0,1,1,1]",0,31,31,31,1,0,1,,,1,FALSE,1.9272,,,,,,,,,,,,,,,,,,,,,,,,,,,,,,
,6087bfacd4e23fe0f68c9aa1,001,2022-04-28_21h10.18.418,classification_task,2021.2.3,Win32,60.0276127,6087bfacd4e23fe0f68c9aa1,626b377229c10585ec392f8a,626b3acfe3fbd43542785a2f,,,,,,,,,,,,,,,,,,,,,,,a,0,"[""0.085"",""0.025"",""0.617"",""0.826""]","[1,0,1,1]",0,32,32,32,1,1,0,,,1,FALSE,0.908,,,,,,,,,,,,,,,,,,,,,,,,,,,,,,
,6087bfacd4e23fe0f68c9aa1,001,2022-04-28_21h10.18.418,classification_task,2021.2.3,Win32,60.0276127,6087bfacd4e23fe0f68c9aa1,626b377229c10585ec392f8a,626b3acfe3fbd43542785a2f,,,,,,,,,,,,,,,,,,,,,,,l,1,"[""0.127"",""0.531"",""0.483"",""0.694""]","[1,0,1,1]",0,33,33,33,1,1,1,,,1,FALSE,3.8354,,,,,,,,,,,,,,,,,,,,,,,,,,,,,,
,6087bfacd4e23fe0f68c9aa1,001,2022-04-28_21h10.18.418,classification_task,2021.2.3,Win32,60.0276127,6087bfacd4e23fe0f68c9aa1,626b377229c10585ec392f8a,626b3acfe3fbd43542785a2f,,,,,,,,,,,,,,,,,,,,,,,l,0,"[""0.552"",""0.430"",""0.786"",""0.871""]","[0,1,1,1]",0,34,34,34,1,0,0,,,1,FALSE,0.9508,,,,,,,,,,,,,,,,,,,,,,,,,,,,,,
,6087bfacd4e23fe0f68c9aa1,001,2022-04-28_21h10.18.418,classification_task,2021.2.3,Win32,60.0276127,6087bfacd4e23fe0f68c9aa1,626b377229c10585ec392f8a,626b3acfe3fbd43542785a2f,,,,,,,,,,,,,,,,,,,,,,,a,1,"[""0.162"",""0.039"",""0.910"",""0.960""]","[1,0,1,1]",0,35,35,35,1,0,1,,,1,FALSE,1.049,,,,,,,,,,,,,,,,,,,,,,,,,,,,,,
,6087bfacd4e23fe0f68c9aa1,001,2022-04-28_21h10.18.418,classification_task,2021.2.3,Win32,60.0276127,6087bfacd4e23fe0f68c9aa1,626b377229c10585ec392f8a,626b3acfe3fbd43542785a2f,,,,,,,,,,,,,,,,,,,,,,,a,1,"[""0.162"",""0.357"",""0.031"",""0.960""]","[1,1,0,1]",0,36,36,36,1,0,1,,,1,FALSE,0.7991,,,,,,,,,,,,,,,,,,,,,,,,,,,,,,
,6087bfacd4e23fe0f68c9aa1,001,2022-04-28_21h10.18.418,classification_task,2021.2.3,Win32,60.0276127,6087bfacd4e23fe0f68c9aa1,626b377229c10585ec392f8a,626b3acfe3fbd43542785a2f,,,,,,,,,,,,,,,,,,,,,,,l,0,"[""0.660"",""0.357"",""0.910"",""0.960""]","[0,1,1,1]",0,37,37,37,1,0,1,,,1,FALSE,0.6989,,,,,,,,,,,,,,,,,,,,,,,,,,,,,,
,6087bfacd4e23fe0f68c9aa1,001,2022-04-28_21h10.18.418,classification_task,2021.2.3,Win32,60.0276127,6087bfacd4e23fe0f68c9aa1,626b377229c10585ec392f8a,626b3acfe3fbd43542785a2f,,,,,,,,,,,,,,,,,,,,,,,l,1,"[""0.127"",""0.197"",""0.752"",""0.694""]","[1,1,0,1]",0,38,38,38,1,1,1,,,1,FALSE,0.8403,,,,,,,,,,,,,,,,,,,,,,,,,,,,,,
,6087bfacd4e23fe0f68c9aa1,001,2022-04-28_21h10.18.418,classification_task,2021.2.3,Win32,60.0276127,6087bfacd4e23fe0f68c9aa1,626b377229c10585ec392f8a,626b3acfe3fbd43542785a2f,,,,,,,,,,,,,,,,,,,,,,,a,0,"[""0.544"",""0.320"",""0.617"",""0.826""]","[0,1,1,1]",0,39,39,39,1,1,0,,,1,FALSE,0.7521,,,,,,,,,,,,,,,,,,,,,,,,,,,,,,
,6087bfacd4e23fe0f68c9aa1,001,2022-04-28_21h10.18.418,classification_task,2021.2.3,Win32,60.0276127,6087bfacd4e23fe0f68c9aa1,626b377229c10585ec392f8a,626b3acfe3fbd43542785a2f,,,,,,,,,,,,,,,,,,,,,,,l,0,"[""0.258"",""0.430"",""0.049"",""0.871""]","[1,1,0,1]",0,40,40,40,1,0,0,,,1,FALSE,0.9819,,,,,,,,,,,,,,,,,,,,,,,,,,,,,,
,6087bfacd4e23fe0f68c9aa1,001,2022-04-28_21h10.18.418,classification_task,2021.2.3,Win32,60.0276127,6087bfacd4e23fe0f68c9aa1,626b377229c10585ec392f8a,626b3acfe3fbd43542785a2f,,,,,,,,,,,,,,,,,,,,,,,a,0,"[""0.085"",""0.320"",""0.517"",""0.826""]","[1,1,0,1]",0,41,41,41,1,1,0,,,1,FALSE,0.8496,,,,,,,,,,,,,,,,,,,,,,,,,,,,,,
,6087bfacd4e23fe0f68c9aa1,001,2022-04-28_21h10.18.418,classification_task,2021.2.3,Win32,60.0276127,6087bfacd4e23fe0f68c9aa1,626b377229c10585ec392f8a,626b3acfe3fbd43542785a2f,,,,,,,,,,,,,,,,,,,,,,,a,1,"[""0.258"",""0.430"",""0.786"",""0.031""]","[1,1,1,0]",0,42,42,42,1,0,0,,,1,FALSE,0.8502,,,,,,,,,,,,,,,,,,,,,,,,,,,,,,
,6087bfacd4e23fe0f68c9aa1,001,2022-04-28_21h10.18.418,classification_task,2021.2.3,Win32,60.0276127,6087bfacd4e23fe0f68c9aa1,626b377229c10585ec392f8a,626b3acfe3fbd43542785a2f,,,,,,,,,,,,,,,,,,,,,,,a,0,"[""0.127"",""0.197"",""0.483"",""0.049""]","[1,1,1,0]",0,43,43,43,1,1,1,,,1,FALSE,0.383,,,,,,,,,,,,,,,,,,,,,,,,,,,,,,
,6087bfacd4e23fe0f68c9aa1,001,2022-04-28_21h10.18.418,classification_task,2021.2.3,Win32,60.0276127,6087bfacd4e23fe0f68c9aa1,626b377229c10585ec392f8a,626b3acfe3fbd43542785a2f,,,,,,,,,,,,,,,,,,,,,,,a,1,"[""0.258"",""0.517"",""0.786"",""0.871""]","[1,0,1,1]",0,44,44,44,1,0,0,,,1,FALSE,0.5513,,,,,,,,,,,,,,,,,,,,,,,,,,,,,,
,6087bfacd4e23fe0f68c9aa1,001,2022-04-28_21h10.18.418,classification_task,2021.2.3,Win32,60.0276127,6087bfacd4e23fe0f68c9aa1,626b377229c10585ec392f8a,626b3acfe3fbd43542785a2f,,,,,,,,,,,,,,,,,,,,,,,l,1,"[""0.085"",""0.320"",""0.617"",""0.031""]","[1,1,1,0]",0,45,45,45,1,1,0,,,1,FALSE,0.7001,,,,,,,,,,,,,,,,,,,,,,,,,,,,,,
,6087bfacd4e23fe0f68c9aa1,001,2022-04-28_21h10.18.418,classification_task,2021.2.3,Win32,60.0276127,6087bfacd4e23fe0f68c9aa1,626b377229c10585ec392f8a,626b3acfe3fbd43542785a2f,,,,,,,,,,,,,,,,,,,,,,,l,1,"[""0.031"",""0.197"",""0.483"",""0.694""]","[0,1,1,1]",0,46,46,46,1,1,1,,,1,FALSE,0.8018,,,,,,,,,,,,,,,,,,,,,,,,,,,,,,
,6087bfacd4e23fe0f68c9aa1,001,2022-04-28_21h10.18.418,classification_task,2021.2.3,Win32,60.0276127,6087bfacd4e23fe0f68c9aa1,626b377229c10585ec392f8a,626b3acfe3fbd43542785a2f,,,,,,,,,,,,,,,,,,,,,,,a,1,"[""0.162"",""0.357"",""0.910"",""0.660""]","[1,1,1,0]",0,47,47,47,1,0,1,,,1,FALSE,0.8043,,,,,,,,,,,,,,,,,,,,,,,,,,,,,,
,6087bfacd4e23fe0f68c9aa1,001,2022-04-28_21h10.18.418,classification_task,2021.2.3,Win32,60.0276127,6087bfacd4e23fe0f68c9aa1,626b377229c10585ec392f8a,626b3acfe3fbd43542785a2f,,,,,,,,,,,,,,,,,,,,,,,a,0,"[""0.733"",""0.320"",""0.617"",""0.826""]","[0,1,1,1]",0,48,48,48,1,1,0,,,1,FALSE,0.6687,,,,,,,,,,,,,,,,,,,,,,,,,,,,,,
,6087bfacd4e23fe0f68c9aa1,001,2022-04-28_21h10.18.418,classification_task,2021.2.3,Win32,60.0276127,6087bfacd4e23fe0f68c9aa1,626b377229c10585ec392f8a,626b3acfe3fbd43542785a2f,,,,,,,,,,,,,,,,,,,,,,,a,0,"[""0.531"",""0.197"",""0.483"",""0.694""]","[0,1,1,1]",0,49,49,49,1,1,1,,,1,FALSE,1.4485,,,,,,,,,,,,,,,,,,,,,,,,,,,,,,
,6087bfacd4e23fe0f68c9aa1,001,2022-04-28_21h10.18.418,classification_task,2021.2.3,Win32,60.0276127,6087bfacd4e23fe0f68c9aa1,626b377229c10585ec392f8a,626b3acfe3fbd43542785a2f,,,,,,,,,,,,,,,,,,,,,,,l,1,"[""0.085"",""0.552"",""0.617"",""0.826""]","[1,0,1,1]",0,50,50,50,1,1,0,,,1,FALSE,0.5818,,,,,,,,,,,,,,,,,,,,,,,,,,,,,,
,6087bfacd4e23fe0f68c9aa1,001,2022-04-28_21h10.18.418,classification_task,2021.2.3,Win32,60.0276127,6087bfacd4e23fe0f68c9aa1,626b377229c10585ec392f8a,626b3acfe3fbd43542785a2f,,,,,,,,,,,,,,,,,,,,,,,l,1,"[""0.127"",""0.197"",""0.483"",""0.551""]","[1,1,1,0]",0,51,51,51,1,1,1,,,1,FALSE,1.1342,,,,,,,,,,,,,,,,,,,,,,,,,,,,,,
,6087bfacd4e23fe0f68c9aa1,001,2022-04-28_21h10.18.418,classification_task,2021.2.3,Win32,60.0276127,6087bfacd4e23fe0f68c9aa1,626b377229c10585ec392f8a,626b3acfe3fbd43542785a2f,,,,,,,,,,,,,,,,,,,,,,,a,0,"[""0.127"",""0.197"",""0.557"",""0.694""]","[1,1,0,1]",0,52,52,52,1,1,1,,,1,FALSE,0.8843,,,,,,,,,,,,,,,,,,,,,,,,,,,,,,
,6087bfacd4e23fe0f68c9aa1,001,2022-04-28_21h10.18.418,classification_task,2021.2.3,Win32,60.0276127,6087bfacd4e23fe0f68c9aa1,626b377229c10585ec392f8a,626b3acfe3fbd43542785a2f,,,,,,,,,,,,,,,,,,,,,,,l,0,"[""0.162"",""0.357"",""0.910"",""0.031""]","[1,1,1,0]",0,53,53,53,1,0,1,,,1,FALSE,0.7352,,,,,,,,,,,,,,,,,,,,,,,,,,,,,,
,6087bfacd4e23fe0f68c9aa1,001,2022-04-28_21h10.18.418,classification_task,2021.2.3,Win32,60.0276127,6087bfacd4e23fe0f68c9aa1,626b377229c10585ec392f8a,626b3acfe3fbd43542785a2f,,,,,,,,,,,,,,,,,,,,,,,l,0,"[""0.258"",""0.430"",""0.786"",""0.660""]","[1,1,1,0]",0,54,54,54,1,0,0,,,1,FALSE,0.9547,,,,,,,,,,,,,,,,,,,,,,,,,,,,,,
,6087bfacd4e23fe0f68c9aa1,001,2022-04-28_21h10.18.418,classification_task,2021.2.3,Win32,60.0276127,6087bfacd4e23fe0f68c9aa1,626b377229c10585ec392f8a,626b3acfe3fbd43542785a2f,,,,,,,,,,,,,,,,,,,,,,,l,1,"[""0.085"",""0.320"",""0.617"",""0.733""]","[1,1,1,0]",0,55,55,55,1,1,0,,,1,FALSE,0.8508,,,,,,,,,,,,,,,,,,,,,,,,,,,,,,
,6087bfacd4e23fe0f68c9aa1,001,2022-04-28_21h10.18.418,classification_task,2021.2.3,Win32,60.0276127,6087bfacd4e23fe0f68c9aa1,626b377229c10585ec392f8a,626b3acfe3fbd43542785a2f,,,,,,,,,,,,,,,,,,,,,,,a,1,"[""0.162"",""0.039"",""0.910"",""0.960""]","[1,0,1,1]",0,56,56,56,1,0,1,,,1,FALSE,0.7195,,,,,,,,,,,,,,,,,,,,,,,,,,,,,,
,6087bfacd4e23fe0f68c9aa1,001,2022-04-28_21h10.18.418,classification_task,2021.2.3,Win32,60.0276127,6087bfacd4e23fe0f68c9aa1,626b377229c10585ec392f8a,626b3acfe3fbd43542785a2f,,,,,,,,,,,,,,,,,,,,,,,a,0,"[""0.085"",""0.320"",""0.552"",""0.826""]","[1,1,0,1]",0,57,57,57,1,1,0,,,1,FALSE,0.684,,,,,,,,,,,,,,,,,,,,,,,,,,,,,,
,6087bfacd4e23fe0f68c9aa1,001,2022-04-28_21h10.18.418,classification_task,2021.2.3,Win32,60.0276127,6087bfacd4e23fe0f68c9aa1,626b377229c10585ec392f8a,626b3acfe3fbd43542785a2f,,,,,,,,,,,,,,,,,,,,,,,l,0,"[""0.752"",""0.430"",""0.786"",""0.871""]","[0,1,1,1]",0,58,58,58,1,0,0,,,1,FALSE,0.4024,,,,,,,,,,,,,,,,,,,,,,,,,,,,,,
,6087bfacd4e23fe0f68c9aa1,001,2022-04-28_21h10.18.418,classification_task,2021.2.3,Win32,60.0276127,6087bfacd4e23fe0f68c9aa1,626b377229c10585ec392f8a,626b3acfe3fbd43542785a2f,,,,,,,,,,,,,,,,,,,,,,,a,1,"[""0.258"",""0.430"",""0.551"",""0.871""]","[1,1,0,1]",0,59,59,59,1,0,0,,,1,FALSE,1.581,,,,,,,,,,,,,,,,,,,,,,,,,,,,,,
,6087bfacd4e23fe0f68c9aa1,001,2022-04-28_21h10.18.418,classification_task,2021.2.3,Win32,60.0276127,6087bfacd4e23fe0f68c9aa1,626b377229c10585ec392f8a,626b3acfe3fbd43542785a2f,,,,,,,,,,,,,,,,,,,,,,,a,0,"[""0.127"",""0.656"",""0.483"",""0.694""]","[1,0,1,1]",0,60,60,60,1,1,1,,,1,FALSE,4.234,,,,,,,,,,,,,,,,,,,,,,,,,,,,,,
,6087bfacd4e23fe0f68c9aa1,001,2022-04-28_21h10.18.418,classification_task,2021.2.3,Win32,60.0276127,6087bfacd4e23fe0f68c9aa1,626b377229c10585ec392f8a,626b3acfe3fbd43542785a2f,,,,,,,,,,,,,,,,,,,,,,,l,0,"[""0.733"",""0.357"",""0.910"",""0.960""]","[0,1,1,1]",0,61,61,61,1,0,1,,,1,FALSE,1.7168,,,,,,,,,,,,,,,,,,,,,,,,,,,,,,
,6087bfacd4e23fe0f68c9aa1,001,2022-04-28_21h10.18.418,classification_task,2021.2.3,Win32,60.0276127,6087bfacd4e23fe0f68c9aa1,626b377229c10585ec392f8a,626b3acfe3fbd43542785a2f,,,,,,,,,,,,,,,,,,,,,,,a,1,"[""0.162"",""0.357"",""0.544"",""0.960""]","[1,1,0,1]",0,62,62,62,1,0,1,,,1,FALSE,1.5503,,,,,,,,,,,,,,,,,,,,,,,,,,,,,,
,6087bfacd4e23fe0f68c9aa1,001,2022-04-28_21h10.18.418,classification_task,2021.2.3,Win32,60.0276127,6087bfacd4e23fe0f68c9aa1,626b377229c10585ec392f8a,626b3acfe3fbd43542785a2f,,,,,,,,,,,,,,,,,,,,,,,l,0,"[""0.258"",""0.039"",""0.786"",""0.871""]","[1,0,1,1]",0,63,63,63,1,0,0,,,1,FALSE,0.6675,,,,,,,,,,,,,,,,,,,,,,,,,,,,,,
,6087bfacd4e23fe0f68c9aa1,001,2022-04-28_21h10.18.418,classification_task,2021.2.3,Win32,60.0276127,6087bfacd4e23fe0f68c9aa1,626b377229c10585ec392f8a,626b3acfe3fbd43542785a2f,,,,,,,,,,,,,,,,,,,,,,,,,,,,,,,,,,,,,,,0, ,,0,0.890897137,307.4528,0,0,0,0,1,2,1,,,,,,,,,,,,,,,,,
,6087bfacd4e23fe0f68c9aa1,001,2022-04-28_21h10.18.418,classification_task,2021.2.3,Win32,60.0276127,6087bfacd4e23fe0f68c9aa1,626b377229c10585ec392f8a,626b3acfe3fbd43542785a2f,,,,,,,,,,,,,,,,,,,,,,,,,,,,,,,,,,,,,,,1,  ,,0,6.647314931,312.5493,0,0,0,0,1,2,1,,,,,,,,,,,,,,,,,
,6087bfacd4e23fe0f68c9aa1,001,2022-04-28_21h10.18.418,classification_task,2021.2.3,Win32,60.0276127,6087bfacd4e23fe0f68c9aa1,626b377229c10585ec392f8a,626b3acfe3fbd43542785a2f,,,,,,,,,,,,,,,,,,,,,,,,,,,,,,,,,,,,,,,2,  ,,0,1.429796946,314.7792,0,0,0,0,1,2,1,,,,,,,,,,,,,,,,,
,6087bfacd4e23fe0f68c9aa1,001,2022-04-28_21h10.18.418,classification_task,2021.2.3,Win32,60.0276127,6087bfacd4e23fe0f68c9aa1,626b377229c10585ec392f8a,626b3acfe3fbd43542785a2f,,,,,,,,,,,,,,,,,,,,,,,,,,,,,,,,,,,,,,,,,,,,,0,0,0,0,1,,1,,,,,,,,,,,,,,,,,
,6087bfacd4e23fe0f68c9aa1,001,2022-04-28_21h10.18.418,classification_task,2021.2.3,Win32,60.0276127,6087bfacd4e23fe0f68c9aa1,626b377229c10585ec392f8a,626b3acfe3fbd43542785a2f,,,,,,,,,,,,,,,,,,,,,space,36.6039,l,0,"[""0.162"",""0.357"",""0.552"",""0.960""]","[1,1,0,1]",0,0,0,0,1,0,1,,,1,FALSE,2.9353,,,,,,,,,,,,,,,,,,,,,,,,,,,,,,
,6087bfacd4e23fe0f68c9aa1,001,2022-04-28_21h10.18.418,classification_task,2021.2.3,Win32,60.0276127,6087bfacd4e23fe0f68c9aa1,626b377229c10585ec392f8a,626b3acfe3fbd43542785a2f,,,,,,,,,,,,,,,,,,,,,,,a,1,"[""0.656"",""0.357"",""0.910"",""0.960""]","[0,1,1,1]",0,1,1,1,1,0,1,,,1,FALSE,0.5058,,,,,,,,,,,,,,,,,,,,,,,,,,,,,,
,6087bfacd4e23fe0f68c9aa1,001,2022-04-28_21h10.18.418,classification_task,2021.2.3,Win32,60.0276127,6087bfacd4e23fe0f68c9aa1,626b377229c10585ec392f8a,626b3acfe3fbd43542785a2f,,,,,,,,,,,,,,,,,,,,,,,a,0,"[""0.085"",""0.320"",""0.617"",""0.660""]","[1,1,1,0]",0,2,2,2,1,1,0,,,1,FALSE,0.7853,,,,,,,,,,,,,,,,,,,,,,,,,,,,,,
,6087bfacd4e23fe0f68c9aa1,001,2022-04-28_21h10.18.418,classification_task,2021.2.3,Win32,60.0276127,6087bfacd4e23fe0f68c9aa1,626b377229c10585ec392f8a,626b3acfe3fbd43542785a2f,,,,,,,,,,,,,,,,,,,,,,,l,0,"[""0.162"",""0.733"",""0.910"",""0.960""]","[1,0,1,1]",0,3,3,3,1,0,1,,,1,FALSE,0.6843,,,,,,,,,,,,,,,,,,,,,,,,,,,,,,
,6087bfacd4e23fe0f68c9aa1,001,2022-04-28_21h10.18.418,classification_task,2021.2.3,Win32,60.0276127,6087bfacd4e23fe0f68c9aa1,626b377229c10585ec392f8a,626b3acfe3fbd43542785a2f,,,,,,,,,,,,,,,,,,,,,,,a,0,"[""0.127"",""0.197"",""0.654"",""0.694""]","[1,1,0,1]",0,4,4,4,1,1,1,,,1,FALSE,2.1439,,,,,,,,,,,,,,,,,,,,,,,,,,,,,,
,6087bfacd4e23fe0f68c9aa1,001,2022-04-28_21h10.18.418,classification_task,2021.2.3,Win32,60.0276127,6087bfacd4e23fe0f68c9aa1,626b377229c10585ec392f8a,626b3acfe3fbd43542785a2f,,,,,,,,,,,,,,,,,,,,,,,l,0,"[""0.258"",""0.733"",""0.786"",""0.871""]","[1,0,1,1]",0,5,5,5,1,0,0,,,1,FALSE,0.2526,,,,,,,,,,,,,,,,,,,,,,,,,,,,,,
,6087bfacd4e23fe0f68c9aa1,001,2022-04-28_21h10.18.418,classification_task,2021.2.3,Win32,60.0276127,6087bfacd4e23fe0f68c9aa1,626b377229c10585ec392f8a,626b3acfe3fbd43542785a2f,,,,,,,,,,,,,,,,,,,,,,,l,1,"[""0.127"",""0.733"",""0.483"",""0.694""]","[1,0,1,1]",0,6,6,6,1,1,1,,,1,FALSE,0.5005,,,,,,,,,,,,,,,,,,,,,,,,,,,,,,
,6087bfacd4e23fe0f68c9aa1,001,2022-04-28_21h10.18.418,classification_task,2021.2.3,Win32,60.0276127,6087bfacd4e23fe0f68c9aa1,626b377229c10585ec392f8a,626b3acfe3fbd43542785a2f,,,,,,,,,,,,,,,,,,,,,,,a,0,"[""0.085"",""0.320"",""0.733"",""0.826""]","[1,1,0,1]",0,7,7,7,1,1,0,,,1,FALSE,2.32,,,,,,,,,,,,,,,,,,,,,,,,,,,,,,
,6087bfacd4e23fe0f68c9aa1,001,2022-04-28_21h10.18.418,classification_task,2021.2.3,Win32,60.0276127,6087bfacd4e23fe0f68c9aa1,626b377229c10585ec392f8a,626b3acfe3fbd43542785a2f,,,,,,,,,,,,,,,,,,,,,,,l,0,"[""0.162"",""0.357"",""0.910"",""0.752""]","[1,1,1,0]",0,8,8,8,1,0,1,,,1,FALSE,1.4513,,,,,,,,,,,,,,,,,,,,,,,,,,,,,,
,6087bfacd4e23fe0f68c9aa1,001,2022-04-28_21h10.18.418,classification_task,2021.2.3,Win32,60.0276127,6087bfacd4e23fe0f68c9aa1,626b377229c10585ec392f8a,626b3acfe3fbd43542785a2f,,,,,,,,,,,,,,,,,,,,,,,a,1,"[""0.258"",""0.430"",""0.654"",""0.871""]","[1,1,0,1]",0,9,9,9,1,0,0,,,1,FALSE,0.6546,,,,,,,,,,,,,,,,,,,,,,,,,,,,,,
,6087bfacd4e23fe0f68c9aa1,001,2022-04-28_21h10.18.418,classification_task,2021.2.3,Win32,60.0276127,6087bfacd4e23fe0f68c9aa1,626b377229c10585ec392f8a,626b3acfe3fbd43542785a2f,,,,,,,,,,,,,,,,,,,,,,,a,1,"[""0.258"",""0.430"",""0.786"",""0.557""]","[1,1,1,0]",0,10,10,10,1,0,0,,,1,FALSE,0.7349,,,,,,,,,,,,,,,,,,,,,,,,,,,,,,
,6087bfacd4e23fe0f68c9aa1,001,2022-04-28_21h10.18.418,classification_task,2021.2.3,Win32,60.0276127,6087bfacd4e23fe0f68c9aa1,626b377229c10585ec392f8a,626b3acfe3fbd43542785a2f,,,,,,,,,,,,,,,,,,,,,,,l,1,"[""0.049"",""0.320"",""0.617"",""0.826""]","[0,1,1,1]",0,11,11,11,1,1,0,,,1,FALSE,0.483,,,,,,,,,,,,,,,,,,,,,,,,,,,,,,
,6087bfacd4e23fe0f68c9aa1,001,2022-04-28_21h10.18.418,classification_task,2021.2.3,Win32,60.0276127,6087bfacd4e23fe0f68c9aa1,626b377229c10585ec392f8a,626b3acfe3fbd43542785a2f,,,,,,,,,,,,,,,,,,,,,,,a,1,"[""0.049"",""0.430"",""0.786"",""0.871""]","[0,1,1,1]",0,12,12,12,1,0,0,,,1,FALSE,1.0653,,,,,,,,,,,,,,,,,,,,,,,,,,,,,,
,6087bfacd4e23fe0f68c9aa1,001,2022-04-28_21h10.18.418,classification_task,2021.2.3,Win32,60.0276127,6087bfacd4e23fe0f68c9aa1,626b377229c10585ec392f8a,626b3acfe3fbd43542785a2f,,,,,,,,,,,,,,,,,,,,,,,a,0,"[""0.552"",""0.197"",""0.483"",""0.694""]","[0,1,1,1]",0,13,13,13,1,1,1,,,1,FALSE,1.1707,,,,,,,,,,,,,,,,,,,,,,,,,,,,,,
,6087bfacd4e23fe0f68c9aa1,001,2022-04-28_21h10.18.418,classification_task,2021.2.3,Win32,60.0276127,6087bfacd4e23fe0f68c9aa1,626b377229c10585ec392f8a,626b3acfe3fbd43542785a2f,,,,,,,,,,,,,,,,,,,,,,,a,0,"[""0.085"",""0.654"",""0.617"",""0.826""]","[1,0,1,1]",0,14,14,14,1,1,0,,,1,FALSE,1.7003,,,,,,,,,,,,,,,,,,,,,,,,,,,,,,
,6087bfacd4e23fe0f68c9aa1,001,2022-04-28_21h10.18.418,classification_task,2021.2.3,Win32,60.0276127,6087bfacd4e23fe0f68c9aa1,626b377229c10585ec392f8a,626b3acfe3fbd43542785a2f,,,,,,,,,,,,,,,,,,,,,,,a,0,"[""0.127"",""0.197"",""0.483"",""0.531""]","[1,1,1,0]",0,15,15,15,1,1,1,,,1,FALSE,0.6679,,,,,,,,,,,,,,,,,,,,,,,,,,,,,,
,6087bfacd4e23fe0f68c9aa1,001,2022-04-28_21h10.18.418,classification_task,2021.2.3,Win32,60.0276127,6087bfacd4e23fe0f68c9aa1,626b377229c10585ec392f8a,626b3acfe3fbd43542785a2f,,,,,,,,,,,,,,,,,,,,,,,a,0,"[""0.127"",""0.197"",""0.533"",""0.694""]","[1,1,0,1]",0,16,16,16,1,1,1,,,1,FALSE,0.6191,,,,,,,,,,,,,,,,,,,,,,,,,,,,,,
,6087bfacd4e23fe0f68c9aa1,001,2022-04-28_21h10.18.418,classification_task,2021.2.3,Win32,60.0276127,6087bfacd4e23fe0f68c9aa1,626b377229c10585ec392f8a,626b3acfe3fbd43542785a2f,,,,,,,,,,,,,,,,,,,,,,,l,0,"[""0.162"",""0.357"",""0.654"",""0.960""]","[1,1,0,1]",0,17,17,17,1,0,1,,,1,FALSE,0.5363,,,,,,,,,,,,,,,,,,,,,,,,,,,,,,
,6087bfacd4e23fe0f68c9aa1,001,2022-04-28_21h10.18.418,classification_task,2021.2.3,Win32,60.0276127,6087bfacd4e23fe0f68c9aa1,626b377229c10585ec392f8a,626b3acfe3fbd43542785a2f,,,,,,,,,,,,,,,,,,,,,,,a,1,"[""0.258"",""0.430"",""0.786"",""0.531""]","[1,1,1,0]",0,18,18,18,1,0,0,,,1,FALSE,0.4528,,,,,,,,,,,,,,,,,,,,,,,,,,,,,,
,6087bfacd4e23fe0f68c9aa1,001,2022-04-28_21h10.18.418,classification_task,2021.2.3,Win32,60.0276127,6087bfacd4e23fe0f68c9aa1,626b377229c10585ec392f8a,626b3acfe3fbd43542785a2f,,,,,,,,,,,,,,,,,,,,,,,l,1,"[""0.085"",""0.752"",""0.617"",""0.826""]","[1,0,1,1]",0,19,19,19,1,1,0,,,1,FALSE,0.5502,,,,,,,,,,,,,,,,,,,,,,,,,,,,,,
,6087bfacd4e23fe0f68c9aa1,001,2022-04-28_21h10.18.418,classification_task,2021.2.3,Win32,60.0276127,6087bfacd4e23fe0f68c9aa1,626b377229c10585ec392f8a,626b3acfe3fbd43542785a2f,,,,,,,,,,,,,,,,,,,,,,,l,0,"[""0.162"",""0.357"",""0.910"",""0.552""]","[1,1,1,0]",0,20,20,20,1,0,1,,,1,FALSE,0.5007,,,,,,,,,,,,,,,,,,,,,,,,,,,,,,
,6087bfacd4e23fe0f68c9aa1,001,2022-04-28_21h10.18.418,classification_task,2021.2.3,Win32,60.0276127,6087bfacd4e23fe0f68c9aa1,626b377229c10585ec392f8a,626b3acfe3fbd43542785a2f,,,,,,,,,,,,,,,,,,,,,,,l,1,"[""0.552"",""0.197"",""0.483"",""0.694""]","[0,1,1,1]",0,21,21,21,1,1,1,,,1,FALSE,1.8999,,,,,,,,,,,,,,,,,,,,,,,,,,,,,,
,6087bfacd4e23fe0f68c9aa1,001,2022-04-28_21h10.18.418,classification_task,2021.2.3,Win32,60.0276127,6087bfacd4e23fe0f68c9aa1,626b377229c10585ec392f8a,626b3acfe3fbd43542785a2f,,,,,,,,,,,,,,,,,,,,,,,l,1,"[""0.656"",""0.320"",""0.617"",""0.826""]","[0,1,1,1]",0,22,22,22,1,1,0,,,1,FALSE,0.6054,,,,,,,,,,,,,,,,,,,,,,,,,,,,,,
,6087bfacd4e23fe0f68c9aa1,001,2022-04-28_21h10.18.418,classification_task,2021.2.3,Win32,60.0276127,6087bfacd4e23fe0f68c9aa1,626b377229c10585ec392f8a,626b3acfe3fbd43542785a2f,,,,,,,,,,,,,,,,,,,,,,,a,1,"[""0.031"",""0.357"",""0.910"",""0.960""]","[0,1,1,1]",0,23,23,23,1,0,1,,,1,FALSE,0.8328,,,,,,,,,,,,,,,,,,,,,,,,,,,,,,
,6087bfacd4e23fe0f68c9aa1,001,2022-04-28_21h10.18.418,classification_task,2021.2.3,Win32,60.0276127,6087bfacd4e23fe0f68c9aa1,626b377229c10585ec392f8a,626b3acfe3fbd43542785a2f,,,,,,,,,,,,,,,,,,,,,,,a,1,"[""0.752"",""0.430"",""0.786"",""0.871""]","[0,1,1,1]",0,24,24,24,1,0,0,,,1,FALSE,1.4676,,,,,,,,,,,,,,,,,,,,,,,,,,,,,,
,6087bfacd4e23fe0f68c9aa1,001,2022-04-28_21h10.18.418,classification_task,2021.2.3,Win32,60.0276127,6087bfacd4e23fe0f68c9aa1,626b377229c10585ec392f8a,626b3acfe3fbd43542785a2f,,,,,,,,,,,,,,,,,,,,,,,a,0,"[""0.085"",""0.320"",""0.752"",""0.826""]","[1,1,0,1]",0,25,25,25,1,1,0,,,1,FALSE,1.1497,,,,,,,,,,,,,,,,,,,,,,,,,,,,,,
,6087bfacd4e23fe0f68c9aa1,001,2022-04-28_21h10.18.418,classification_task,2021.2.3,Win32,60.0276127,6087bfacd4e23fe0f68c9aa1,626b377229c10585ec392f8a,626b3acfe3fbd43542785a2f,,,,,,,,,,,,,,,,,,,,,,,a,1,"[""0.258"",""0.430"",""0.544"",""0.871""]","[1,1,0,1]",0,26,26,26,1,0,0,,,1,FALSE,1.0342,,,,,,,,,,,,,,,,,,,,,,,,,,,,,,
,6087bfacd4e23fe0f68c9aa1,001,2022-04-28_21h10.18.418,classification_task,2021.2.3,Win32,60.0276127,6087bfacd4e23fe0f68c9aa1,626b377229c10585ec392f8a,626b3acfe3fbd43542785a2f,,,,,,,,,,,,,,,,,,,,,,,l,0,"[""0.258"",""0.656"",""0.786"",""0.871""]","[1,0,1,1]",0,27,27,27,1,0,0,,,1,FALSE,0.6853,,,,,,,,,,,,,,,,,,,,,,,,,,,,,,
,6087bfacd4e23fe0f68c9aa1,001,2022-04-28_21h10.18.418,classification_task,2021.2.3,Win32,60.0276127,6087bfacd4e23fe0f68c9aa1,626b377229c10585ec392f8a,626b3acfe3fbd43542785a2f,,,,,,,,,,,,,,,,,,,,,,,l,1,"[""0.127"",""0.752"",""0.483"",""0.694""]","[1,0,1,1]",0,28,28,28,1,1,1,,,1,FALSE,0.3515,,,,,,,,,,,,,,,,,,,,,,,,,,,,,,
,6087bfacd4e23fe0f68c9aa1,001,2022-04-28_21h10.18.418,classification_task,2021.2.3,Win32,60.0276127,6087bfacd4e23fe0f68c9aa1,626b377229c10585ec392f8a,626b3acfe3fbd43542785a2f,,,,,,,,,,,,,,,,,,,,,,,l,0,"[""0.162"",""0.656"",""0.910"",""0.960""]","[1,0,1,1]",0,29,29,29,1,0,1,,,1,FALSE,0.4179,,,,,,,,,,,,,,,,,,,,,,,,,,,,,,
,6087bfacd4e23fe0f68c9aa1,001,2022-04-28_21h10.18.418,classification_task,2021.2.3,Win32,60.0276127,6087bfacd4e23fe0f68c9aa1,626b377229c10585ec392f8a,626b3acfe3fbd43542785a2f,,,,,,,,,,,,,,,,,,,,,,,a,0,"[""0.127"",""0.197"",""0.483"",""0.551""]","[1,1,1,0]",0,30,30,30,1,1,1,,,1,FALSE,0.334,,,,,,,,,,,,,,,,,,,,,,,,,,,,,,
,6087bfacd4e23fe0f68c9aa1,001,2022-04-28_21h10.18.418,classification_task,2021.2.3,Win32,60.0276127,6087bfacd4e23fe0f68c9aa1,626b377229c10585ec392f8a,626b3acfe3fbd43542785a2f,,,,,,,,,,,,,,,,,,,,,,,l,1,"[""0.085"",""0.320"",""0.617"",""0.752""]","[1,1,1,0]",0,31,31,31,1,1,0,,,1,FALSE,0.0514,,,,,,,,,,,,,,,,,,,,,,,,,,,,,,
,6087bfacd4e23fe0f68c9aa1,001,2022-04-28_21h10.18.418,classification_task,2021.2.3,Win32,60.0276127,6087bfacd4e23fe0f68c9aa1,626b377229c10585ec392f8a,626b3acfe3fbd43542785a2f,,,,,,,,,,,,,,,,,,,,,,,a,1,"[""0.025"",""0.430"",""0.786"",""0.871""]","[0,1,1,1]",0,32,32,32,1,0,0,,,1,FALSE,1.0012,,,,,,,,,,,,,,,,,,,,,,,,,,,,,,
,6087bfacd4e23fe0f68c9aa1,001,2022-04-28_21h10.18.418,classification_task,2021.2.3,Win32,60.0276127,6087bfacd4e23fe0f68c9aa1,626b377229c10585ec392f8a,626b3acfe3fbd43542785a2f,,,,,,,,,,,,,,,,,,,,,,,a,1,"[""0.258"",""0.031"",""0.786"",""0.871""]","[1,0,1,1]",0,33,33,33,1,0,0,,,1,FALSE,0.6376,,,,,,,,,,,,,,,,,,,,,,,,,,,,,,
,6087bfacd4e23fe0f68c9aa1,001,2022-04-28_21h10.18.418,classification_task,2021.2.3,Win32,60.0276127,6087bfacd4e23fe0f68c9aa1,626b377229c10585ec392f8a,626b3acfe3fbd43542785a2f,,,,,,,,,,,,,,,,,,,,,,,a,1,"[""0.752"",""0.357"",""0.910"",""0.960""]","[0,1,1,1]",0,34,34,34,1,0,1,,,1,FALSE,0.6496,,,,,,,,,,,,,,,,,,,,,,,,,,,,,,
,6087bfacd4e23fe0f68c9aa1,001,2022-04-28_21h10.18.418,classification_task,2021.2.3,Win32,60.0276127,6087bfacd4e23fe0f68c9aa1,626b377229c10585ec392f8a,626b3acfe3fbd43542785a2f,,,,,,,,,,,,,,,,,,,,,,,l,1,"[""0.557"",""0.197"",""0.483"",""0.694""]","[0,1,1,1]",0,35,35,35,1,1,1,,,1,FALSE,0.5027,,,,,,,,,,,,,,,,,,,,,,,,,,,,,,
,6087bfacd4e23fe0f68c9aa1,001,2022-04-28_21h10.18.418,classification_task,2021.2.3,Win32,60.0276127,6087bfacd4e23fe0f68c9aa1,626b377229c10585ec392f8a,626b3acfe3fbd43542785a2f,,,,,,,,,,,,,,,,,,,,,,,l,0,"[""0.162"",""0.552"",""0.910"",""0.960""]","[1,0,1,1]",0,36,36,36,1,0,1,,,1,FALSE,0.4672,,,,,,,,,,,,,,,,,,,,,,,,,,,,,,
,6087bfacd4e23fe0f68c9aa1,001,2022-04-28_21h10.18.418,classification_task,2021.2.3,Win32,60.0276127,6087bfacd4e23fe0f68c9aa1,626b377229c10585ec392f8a,626b3acfe3fbd43542785a2f,,,,,,,,,,,,,,,,,,,,,,,a,0,"[""0.127"",""0.197"",""0.483"",""0.533""]","[1,1,1,0]",0,37,37,37,1,1,1,,,1,FALSE,0.4177,,,,,,,,,,,,,,,,,,,,,,,,,,,,,,
,6087bfacd4e23fe0f68c9aa1,001,2022-04-28_21h10.18.418,classification_task,2021.2.3,Win32,60.0276127,6087bfacd4e23fe0f68c9aa1,626b377229c10585ec392f8a,626b3acfe3fbd43542785a2f,,,,,,,,,,,,,,,,,,,,,,,l,0,"[""0.258"",""0.430"",""0.025"",""0.871""]","[1,1,0,1]",0,38,38,38,1,0,0,,,1,FALSE,0.0352,,,,,,,,,,,,,,,,,,,,,,,,,,,,,,
,6087bfacd4e23fe0f68c9aa1,001,2022-04-28_21h10.18.418,classification_task,2021.2.3,Win32,60.0276127,6087bfacd4e23fe0f68c9aa1,626b377229c10585ec392f8a,626b3acfe3fbd43542785a2f,,,,,,,,,,,,,,,,,,,,,,,l,0,"[""0.162"",""0.357"",""0.517"",""0.960""]","[1,1,0,1]",0,39,39,39,1,0,1,,,1,FALSE,0.3012,,,,,,,,,,,,,,,,,,,,,,,,,,,,,,
,6087bfacd4e23fe0f68c9aa1,001,2022-04-28_21h10.18.418,classification_task,2021.2.3,Win32,60.0276127,6087bfacd4e23fe0f68c9aa1,626b377229c10585ec392f8a,626b3acfe3fbd43542785a2f,,,,,,,,,,,,,,,,,,,,,,,a,1,"[""0.258"",""0.430"",""0.786"",""0.654""]","[1,1,1,0]",0,40,40,40,1,0,0,,,1,FALSE,0.5365,,,,,,,,,,,,,,,,,,,,,,,,,,,,,,
,6087bfacd4e23fe0f68c9aa1,001,2022-04-28_21h10.18.418,classification_task,2021.2.3,Win32,60.0276127,6087bfacd4e23fe0f68c9aa1,626b377229c10585ec392f8a,626b3acfe3fbd43542785a2f,,,,,,,,,,,,,,,,,,,,,,,l,0,"[""0.162"",""0.357"",""0.910"",""0.544""]","[1,1,1,0]",0,41,41,41,1,0,1,,,1,FALSE,0.6017,,,,,,,,,,,,,,,,,,,,,,,,,,,,,,
,6087bfacd4e23fe0f68c9aa1,001,2022-04-28_21h10.18.418,classification_task,2021.2.3,Win32,60.0276127,6087bfacd4e23fe0f68c9aa1,626b377229c10585ec392f8a,626b3acfe3fbd43542785a2f,,,,,,,,,,,,,,,,,,,,,,,a,0,"[""0.085"",""0.656"",""0.617"",""0.826""]","[1,0,1,1]",0,42,42,42,1,1,0,,,1,FALSE,0.7359,,,,,,,,,,,,,,,,,,,,,,,,,,,,,,
,6087bfacd4e23fe0f68c9aa1,001,2022-04-28_21h10.18.418,classification_task,2021.2.3,Win32,60.0276127,6087bfacd4e23fe0f68c9aa1,626b377229c10585ec392f8a,626b3acfe3fbd43542785a2f,,,,,,,,,,,,,,,,,,,,,,,a,0,"[""0.127"",""0.533"",""0.483"",""0.694""]","[1,0,1,1]",0,43,43,43,1,1,1,,,1,FALSE,0.6507,,,,,,,,,,,,,,,,,,,,,,,,,,,,,,
,6087bfacd4e23fe0f68c9aa1,001,2022-04-28_21h10.18.418,classification_task,2021.2.3,Win32,60.0276127,6087bfacd4e23fe0f68c9aa1,626b377229c10585ec392f8a,626b3acfe3fbd43542785a2f,,,,,,,,,,,,,,,,,,,,,,,l,1,"[""0.557"",""0.320"",""0.617"",""0.826""]","[0,1,1,1]",0,44,44,44,1,1,0,,,1,FALSE,0.3332,,,,,,,,,,,,,,,,,,,,,,,,,,,,,,
,6087bfacd4e23fe0f68c9aa1,001,2022-04-28_21h10.18.418,classification_task,2021.2.3,Win32,60.0276127,6087bfacd4e23fe0f68c9aa1,626b377229c10585ec392f8a,626b3acfe3fbd43542785a2f,,,,,,,,,,,,,,,,,,,,,,,a,0,"[""0.127"",""0.197"",""0.533"",""0.694""]","[1,1,0,1]",0,45,45,45,1,1,1,,,1,FALSE,0.3681,,,,,,,,,,,,,,,,,,,,,,,,,,,,,,
,6087bfacd4e23fe0f68c9aa1,001,2022-04-28_21h10.18.418,classification_task,2021.2.3,Win32,60.0276127,6087bfacd4e23fe0f68c9aa1,626b377229c10585ec392f8a,626b3acfe3fbd43542785a2f,,,,,,,,,,,,,,,,,,,,,,,l,1,"[""0.085"",""0.320"",""0.617"",""0.025""]","[1,1,1,0]",0,46,46,46,1,1,0,,,1,FALSE,0.4002,,,,,,,,,,,,,,,,,,,,,,,,,,,,,,
,6087bfacd4e23fe0f68c9aa1,001,2022-04-28_21h10.18.418,classification_task,2021.2.3,Win32,60.0276127,6087bfacd4e23fe0f68c9aa1,626b377229c10585ec392f8a,626b3acfe3fbd43542785a2f,,,,,,,,,,,,,,,,,,,,,,,a,0,"[""0.085"",""0.320"",""0.031"",""0.826""]","[1,1,0,1]",0,47,47,47,1,1,0,,,1,FALSE,0.5166,,,,,,,,,,,,,,,,,,,,,,,,,,,,,,
,6087bfacd4e23fe0f68c9aa1,001,2022-04-28_21h10.18.418,classification_task,2021.2.3,Win32,60.0276127,6087bfacd4e23fe0f68c9aa1,626b377229c10585ec392f8a,626b3acfe3fbd43542785a2f,,,,,,,,,,,,,,,,,,,,,,,a,0,"[""0.127"",""0.197"",""0.557"",""0.694""]","[1,1,0,1]",0,48,48,48,1,1,1,,,1,FALSE,0.4014,,,,,,,,,,,,,,,,,,,,,,,,,,,,,,
,6087bfacd4e23fe0f68c9aa1,001,2022-04-28_21h10.18.418,classification_task,2021.2.3,Win32,60.0276127,6087bfacd4e23fe0f68c9aa1,626b377229c10585ec392f8a,626b3acfe3fbd43542785a2f,,,,,,,,,,,,,,,,,,,,,,,a,0,"[""0.552"",""0.320"",""0.617"",""0.826""]","[0,1,1,1]",0,49,49,49,1,1,0,,,1,FALSE,0.5339,,,,,,,,,,,,,,,,,,,,,,,,,,,,,,
,6087bfacd4e23fe0f68c9aa1,001,2022-04-28_21h10.18.418,classification_task,2021.2.3,Win32,60.0276127,6087bfacd4e23fe0f68c9aa1,626b377229c10585ec392f8a,626b3acfe3fbd43542785a2f,,,,,,,,,,,,,,,,,,,,,,,a,1,"[""0.517"",""0.430"",""0.786"",""0.871""]","[0,1,1,1]",0,50,50,50,1,0,0,,,1,FALSE,0.5485,,,,,,,,,,,,,,,,,,,,,,,,,,,,,,
,6087bfacd4e23fe0f68c9aa1,001,2022-04-28_21h10.18.418,classification_task,2021.2.3,Win32,60.0276127,6087bfacd4e23fe0f68c9aa1,626b377229c10585ec392f8a,626b3acfe3fbd43542785a2f,,,,,,,,,,,,,,,,,,,,,,,a,1,"[""0.258"",""0.656"",""0.786"",""0.871""]","[1,0,1,1]",0,51,51,51,1,0,0,,,1,FALSE,1.7479,,,,,,,,,,,,,,,,,,,,,,,,,,,,,,
,6087bfacd4e23fe0f68c9aa1,001,2022-04-28_21h10.18.418,classification_task,2021.2.3,Win32,60.0276127,6087bfacd4e23fe0f68c9aa1,626b377229c10585ec392f8a,626b3acfe3fbd43542785a2f,,,,,,,,,,,,,,,,,,,,,,,l,0,"[""0.752"",""0.357"",""0.910"",""0.960""]","[0,1,1,1]",0,52,52,52,1,0,1,,,1,FALSE,0.4835,,,,,,,,,,,,,,,,,,,,,,,,,,,,,,
,6087bfacd4e23fe0f68c9aa1,001,2022-04-28_21h10.18.418,classification_task,2021.2.3,Win32,60.0276127,6087bfacd4e23fe0f68c9aa1,626b377229c10585ec392f8a,626b3acfe3fbd43542785a2f,,,,,,,,,,,,,,,,,,,,,,,l,1,"[""0.656"",""0.197"",""0.483"",""0.694""]","[0,1,1,1]",0,53,53,53,1,1,1,,,1,FALSE,0.1169,,,,,,,,,,,,,,,,,,,,,,,,,,,,,,
,6087bfacd4e23fe0f68c9aa1,001,2022-04-28_21h10.18.418,classification_task,2021.2.3,Win32,60.0276127,6087bfacd4e23fe0f68c9aa1,626b377229c10585ec392f8a,626b3acfe3fbd43542785a2f,,,,,,,,,,,,,,,,,,,,,,,l,0,"[""0.258"",""0.430"",""0.786"",""0.660""]","[1,1,1,0]",0,54,54,54,1,0,0,,,1,FALSE,1.418,,,,,,,,,,,,,,,,,,,,,,,,,,,,,,
,6087bfacd4e23fe0f68c9aa1,001,2022-04-28_21h10.18.418,classification_task,2021.2.3,Win32,60.0276127,6087bfacd4e23fe0f68c9aa1,626b377229c10585ec392f8a,626b3acfe3fbd43542785a2f,,,,,,,,,,,,,,,,,,,,,,,a,0,"[""0.127"",""0.531"",""0.483"",""0.694""]","[1,0,1,1]",0,55,55,55,1,1,1,,,1,FALSE,1.6026,,,,,,,,,,,,,,,,,,,,,,,,,,,,,,
,6087bfacd4e23fe0f68c9aa1,001,2022-04-28_21h10.18.418,classification_task,2021.2.3,Win32,60.0276127,6087bfacd4e23fe0f68c9aa1,626b377229c10585ec392f8a,626b3acfe3fbd43542785a2f,,,,,,,,,,,,,,,,,,,,,,,l,1,"[""0.085"",""0.656"",""0.617"",""0.826""]","[1,0,1,1]",0,56,56,56,1,1,0,,,1,FALSE,0.7682,,,,,,,,,,,,,,,,,,,,,,,,,,,,,,
,6087bfacd4e23fe0f68c9aa1,001,2022-04-28_21h10.18.418,classification_task,2021.2.3,Win32,60.0276127,6087bfacd4e23fe0f68c9aa1,626b377229c10585ec392f8a,626b3acfe3fbd43542785a2f,,,,,,,,,,,,,,,,,,,,,,,a,1,"[""0.162"",""0.544"",""0.910"",""0.960""]","[1,0,1,1]",0,57,57,57,1,0,1,,,1,FALSE,0.7669,,,,,,,,,,,,,,,,,,,,,,,,,,,,,,
,6087bfacd4e23fe0f68c9aa1,001,2022-04-28_21h10.18.418,classification_task,2021.2.3,Win32,60.0276127,6087bfacd4e23fe0f68c9aa1,626b377229c10585ec392f8a,626b3acfe3fbd43542785a2f,,,,,,,,,,,,,,,,,,,,,,,l,1,"[""0.085"",""0.320"",""0.031"",""0.826""]","[1,1,0,1]",0,58,58,58,1,1,0,,,1,FALSE,0.7343,,,,,,,,,,,,,,,,,,,,,,,,,,,,,,
,6087bfacd4e23fe0f68c9aa1,001,2022-04-28_21h10.18.418,classification_task,2021.2.3,Win32,60.0276127,6087bfacd4e23fe0f68c9aa1,626b377229c10585ec392f8a,626b3acfe3fbd43542785a2f,,,,,,,,,,,,,,,,,,,,,,,a,0,"[""0.085"",""0.320"",""0.617"",""0.039""]","[1,1,1,0]",0,59,59,59,1,1,0,,,1,FALSE,0.685,,,,,,,,,,,,,,,,,,,,,,,,,,,,,,
,6087bfacd4e23fe0f68c9aa1,001,2022-04-28_21h10.18.418,classification_task,2021.2.3,Win32,60.0276127,6087bfacd4e23fe0f68c9aa1,626b377229c10585ec392f8a,626b3acfe3fbd43542785a2f,,,,,,,,,,,,,,,,,,,,,,,a,1,"[""0.162"",""0.357"",""0.910"",""0.557""]","[1,1,1,0]",0,60,60,60,1,0,1,,,1,FALSE,0.5,,,,,,,,,,,,,,,,,,,,,,,,,,,,,,
,6087bfacd4e23fe0f68c9aa1,001,2022-04-28_21h10.18.418,classification_task,2021.2.3,Win32,60.0276127,6087bfacd4e23fe0f68c9aa1,626b377229c10585ec392f8a,626b3acfe3fbd43542785a2f,,,,,,,,,,,,,,,,,,,,,,,a,1,"[""0.258"",""0.430"",""0.025"",""0.871""]","[1,1,0,1]",0,61,61,61,1,0,0,,,1,FALSE,1.1511,,,,,,,,,,,,,,,,,,,,,,,,,,,,,,
,6087bfacd4e23fe0f68c9aa1,001,2022-04-28_21h10.18.418,classification_task,2021.2.3,Win32,60.0276127,6087bfacd4e23fe0f68c9aa1,626b377229c10585ec392f8a,626b3acfe3fbd43542785a2f,,,,,,,,,,,,,,,,,,,,,,,a,1,"[""0.162"",""0.357"",""0.654"",""0.960""]","[1,1,0,1]",0,62,62,62,1,0,1,,,1,FALSE,0.4511,,,,,,,,,,,,,,,,,,,,,,,,,,,,,,
,6087bfacd4e23fe0f68c9aa1,001,2022-04-28_21h10.18.418,classification_task,2021.2.3,Win32,60.0276127,6087bfacd4e23fe0f68c9aa1,626b377229c10585ec392f8a,626b3acfe3fbd43542785a2f,,,,,,,,,,,,,,,,,,,,,,,l,1,"[""0.127"",""0.197"",""0.483"",""0.752""]","[1,1,1,0]",0,63,63,63,1,1,1,,,1,FALSE,0.6333,,,,,,,,,,,,,,,,,,,,,,,,,,,,,,
,6087bfacd4e23fe0f68c9aa1,001,2022-04-28_21h10.18.418,classification_task,2021.2.3,Win32,60.0276127,6087bfacd4e23fe0f68c9aa1,626b377229c10585ec392f8a,626b3acfe3fbd43542785a2f,,,,,,,,,,,,,,,,,,,,,,,,,,,,,,,,,,,,,,,0, ,,0,0.749607938,155.4215,0,1,1,1,1,2,2,,,,,,,,,,,,,,,,,
,6087bfacd4e23fe0f68c9aa1,001,2022-04-28_21h10.18.418,classification_task,2021.2.3,Win32,60.0276127,6087bfacd4e23fe0f68c9aa1,626b377229c10585ec392f8a,626b3acfe3fbd43542785a2f,,,,,,,,,,,,,,,,,,,,,,,,,,,,,,,,,,,,,,,1,  ,,0,2.860148786,159.7041,0,1,1,1,1,2,2,,,,,,,,,,,,,,,,,
,6087bfacd4e23fe0f68c9aa1,001,2022-04-28_21h10.18.418,classification_task,2021.2.3,Win32,60.0276127,6087bfacd4e23fe0f68c9aa1,626b377229c10585ec392f8a,626b3acfe3fbd43542785a2f,,,,,,,,,,,,,,,,,,,,,,,,,,,,,,,,,,,,,,,2,  ,,0,7.13985345,165.3864,0,1,1,1,1,2,2,,,,,,,,,,,,,,,,,
,6087bfacd4e23fe0f68c9aa1,001,2022-04-28_21h10.18.418,classification_task,2021.2.3,Win32,60.0276127,6087bfacd4e23fe0f68c9aa1,626b377229c10585ec392f8a,626b3acfe3fbd43542785a2f,,,,,,,,,,,,,,,,,,,,,,,,,,,,,,,,,,,,,,,,,,,,,0,1,1,1,1,,2,,,,,,,,,,,,,,,,,
,6087bfacd4e23fe0f68c9aa1,001,2022-04-28_21h10.18.418,classification_task,2021.2.3,Win32,60.0276127,6087bfacd4e23fe0f68c9aa1,626b377229c10585ec392f8a,626b3acfe3fbd43542785a2f,,,,,,,,,,,,,,,,,,,,,space,6.4627,l,0,"[""0.258"",""0.039"",""0.786"",""0.871""]","[1,0,1,1]",0,0,0,0,1,0,0,,,1,FALSE,3.1639,,,,,,,,,,,,,,,,,,,,,,,,,,,,,,
,6087bfacd4e23fe0f68c9aa1,001,2022-04-28_21h10.18.418,classification_task,2021.2.3,Win32,60.0276127,6087bfacd4e23fe0f68c9aa1,626b377229c10585ec392f8a,626b3acfe3fbd43542785a2f,,,,,,,,,,,,,,,,,,,,,,,a,0,"[""0.085"",""0.049"",""0.617"",""0.826""]","[1,0,1,1]",0,1,1,1,1,1,0,,,1,FALSE,2.6007,,,,,,,,,,,,,,,,,,,,,,,,,,,,,,
,6087bfacd4e23fe0f68c9aa1,001,2022-04-28_21h10.18.418,classification_task,2021.2.3,Win32,60.0276127,6087bfacd4e23fe0f68c9aa1,626b377229c10585ec392f8a,626b3acfe3fbd43542785a2f,,,,,,,,,,,,,,,,,,,,,,,a,1,"[""0.162"",""0.049"",""0.910"",""0.960""]","[1,0,1,1]",0,2,2,2,1,0,1,,,1,FALSE,1.6186,,,,,,,,,,,,,,,,,,,,,,,,,,,,,,
,6087bfacd4e23fe0f68c9aa1,001,2022-04-28_21h10.18.418,classification_task,2021.2.3,Win32,60.0276127,6087bfacd4e23fe0f68c9aa1,626b377229c10585ec392f8a,626b3acfe3fbd43542785a2f,,,,,,,,,,,,,,,,,,,,,,,l,1,"[""0.127"",""0.654"",""0.483"",""0.694""]","[1,0,1,1]",0,3,3,3,1,1,1,,,1,FALSE,1.234,,,,,,,,,,,,,,,,,,,,,,,,,,,,,,
,6087bfacd4e23fe0f68c9aa1,001,2022-04-28_21h10.18.418,classification_task,2021.2.3,Win32,60.0276127,6087bfacd4e23fe0f68c9aa1,626b377229c10585ec392f8a,626b3acfe3fbd43542785a2f,,,,,,,,,,,,,,,,,,,,,,,a,0,"[""0.127"",""0.197"",""0.557"",""0.694""]","[1,1,0,1]",0,4,4,4,1,1,1,,,1,FALSE,0.4839,,,,,,,,,,,,,,,,,,,,,,,,,,,,,,
,6087bfacd4e23fe0f68c9aa1,001,2022-04-28_21h10.18.418,classification_task,2021.2.3,Win32,60.0276127,6087bfacd4e23fe0f68c9aa1,626b377229c10585ec392f8a,626b3acfe3fbd43542785a2f,,,,,,,,,,,,,,,,,,,,,,,a,1,"[""0.551"",""0.430"",""0.786"",""0.871""]","[0,1,1,1]",0,5,5,5,1,0,0,,,1,FALSE,0.3019,,,,,,,,,,,,,,,,,,,,,,,,,,,,,,
,6087bfacd4e23fe0f68c9aa1,001,2022-04-28_21h10.18.418,classification_task,2021.2.3,Win32,60.0276127,6087bfacd4e23fe0f68c9aa1,626b377229c10585ec392f8a,626b3acfe3fbd43542785a2f,,,,,,,,,,,,,,,,,,,,,,,a,0,"[""0.085"",""0.320"",""0.551"",""0.826""]","[1,1,0,1]",0,6,6,6,1,1,0,,,1,FALSE,0.0679,,,,,,,,,,,,,,,,,,,,,,,,,,,,,,
,6087bfacd4e23fe0f68c9aa1,001,2022-04-28_21h10.18.418,classification_task,2021.2.3,Win32,60.0276127,6087bfacd4e23fe0f68c9aa1,626b377229c10585ec392f8a,626b3acfe3fbd43542785a2f,,,,,,,,,,,,,,,,,,,,,,,l,1,"[""0.085"",""0.320"",""0.617"",""0.656""]","[1,1,1,0]",0,7,7,7,1,1,0,,,1,FALSE,0.3528,,,,,,,,,,,,,,,,,,,,,,,,,,,,,,
,6087bfacd4e23fe0f68c9aa1,001,2022-04-28_21h10.18.418,classification_task,2021.2.3,Win32,60.0276127,6087bfacd4e23fe0f68c9aa1,626b377229c10585ec392f8a,626b3acfe3fbd43542785a2f,,,,,,,,,,,,,,,,,,,,,,,l,1,"[""0.544"",""0.320"",""0.617"",""0.826""]","[0,1,1,1]",0,8,8,8,1,1,0,,,1,FALSE,0.868,,,,,,,,,,,,,,,,,,,,,,,,,,,,,,
,6087bfacd4e23fe0f68c9aa1,001,2022-04-28_21h10.18.418,classification_task,2021.2.3,Win32,60.0276127,6087bfacd4e23fe0f68c9aa1,626b377229c10585ec392f8a,626b3acfe3fbd43542785a2f,,,,,,,,,,,,,,,,,,,,,,,l,0,"[""0.162"",""0.357"",""0.910"",""0.031""]","[1,1,1,0]",0,9,9,9,1,0,1,,,1,FALSE,0.8349,,,,,,,,,,,,,,,,,,,,,,,,,,,,,,
,6087bfacd4e23fe0f68c9aa1,001,2022-04-28_21h10.18.418,classification_task,2021.2.3,Win32,60.0276127,6087bfacd4e23fe0f68c9aa1,626b377229c10585ec392f8a,626b3acfe3fbd43542785a2f,,,,,,,,,,,,,,,,,,,,,,,a,0,"[""0.656"",""0.197"",""0.483"",""0.694""]","[0,1,1,1]",0,10,10,10,1,1,1,,,1,FALSE,0.7005,,,,,,,,,,,,,,,,,,,,,,,,,,,,,,
,6087bfacd4e23fe0f68c9aa1,001,2022-04-28_21h10.18.418,classification_task,2021.2.3,Win32,60.0276127,6087bfacd4e23fe0f68c9aa1,626b377229c10585ec392f8a,626b3acfe3fbd43542785a2f,,,,,,,,,,,,,,,,,,,,,,,a,1,"[""0.258"",""0.430"",""0.786"",""0.517""]","[1,1,1,0]",0,11,11,11,1,0,0,,,1,FALSE,0.6996,,,,,,,,,,,,,,,,,,,,,,,,,,,,,,
,6087bfacd4e23fe0f68c9aa1,001,2022-04-28_21h10.18.418,classification_task,2021.2.3,Win32,60.0276127,6087bfacd4e23fe0f68c9aa1,626b377229c10585ec392f8a,626b3acfe3fbd43542785a2f,,,,,,,,,,,,,,,,,,,,,,,a,1,"[""0.258"",""0.430"",""0.533"",""0.871""]","[1,1,0,1]",0,12,12,12,1,0,0,,,1,FALSE,0.6013,,,,,,,,,,,,,,,,,,,,,,,,,,,,,,
,6087bfacd4e23fe0f68c9aa1,001,2022-04-28_21h10.18.418,classification_task,2021.2.3,Win32,60.0276127,6087bfacd4e23fe0f68c9aa1,626b377229c10585ec392f8a,626b3acfe3fbd43542785a2f,,,,,,,,,,,,,,,,,,,,,,,l,0,"[""0.551"",""0.357"",""0.910"",""0.960""]","[0,1,1,1]",0,13,13,13,1,0,1,,,1,FALSE,0.7703,,,,,,,,,,,,,,,,,,,,,,,,,,,,,,
,6087bfacd4e23fe0f68c9aa1,001,2022-04-28_21h10.18.418,classification_task,2021.2.3,Win32,60.0276127,6087bfacd4e23fe0f68c9aa1,626b377229c10585ec392f8a,626b3acfe3fbd43542785a2f,,,,,,,,,,,,,,,,,,,,,,,a,1,"[""0.162"",""0.357"",""0.031"",""0.960""]","[1,1,0,1]",0,14,14,14,1,0,1,,,1,FALSE,0.6514,,,,,,,,,,,,,,,,,,,,,,,,,,,,,,
,6087bfacd4e23fe0f68c9aa1,001,2022-04-28_21h10.18.418,classification_task,2021.2.3,Win32,60.0276127,6087bfacd4e23fe0f68c9aa1,626b377229c10585ec392f8a,626b3acfe3fbd43542785a2f,,,,,,,,,,,,,,,,,,,,,,,l,1,"[""0.127"",""0.197"",""0.483"",""0.531""]","[1,1,1,0]",0,15,15,15,1,1,1,,,1,FALSE,0.8854,,,,,,,,,,,,,,,,,,,,,,,,,,,,,,
,6087bfacd4e23fe0f68c9aa1,001,2022-04-28_21h10.18.418,classification_task,2021.2.3,Win32,60.0276127,6087bfacd4e23fe0f68c9aa1,626b377229c10585ec392f8a,626b3acfe3fbd43542785a2f,,,,,,,,,,,,,,,,,,,,,,,l,0,"[""0.752"",""0.430"",""0.786"",""0.871""]","[0,1,1,1]",0,16,16,16,1,0,0,,,1,FALSE,0.7188,,,,,,,,,,,,,,,,,,,,,,,,,,,,,,
,6087bfacd4e23fe0f68c9aa1,001,2022-04-28_21h10.18.418,classification_task,2021.2.3,Win32,60.0276127,6087bfacd4e23fe0f68c9aa1,626b377229c10585ec392f8a,626b3acfe3fbd43542785a2f,,,,,,,,,,,,,,,,,,,,,,,a,0,"[""0.127"",""0.197"",""0.483"",""0.660""]","[1,1,1,0]",0,17,17,17,1,1,1,,,1,FALSE,0.7842,,,,,,,,,,,,,,,,,,,,,,,,,,,,,,
,6087bfacd4e23fe0f68c9aa1,001,2022-04-28_21h10.18.418,classification_task,2021.2.3,Win32,60.0276127,6087bfacd4e23fe0f68c9aa1,626b377229c10585ec392f8a,626b3acfe3fbd43542785a2f,,,,,,,,,,,,,,,,,,,,,,,a,0,"[""0.557"",""0.320"",""0.617"",""0.826""]","[0,1,1,1]",0,18,18,18,1,1,0,,,1,FALSE,1.9338,,,,,,,,,,,,,,,,,,,,,,,,,,,,,,
,6087bfacd4e23fe0f68c9aa1,001,2022-04-28_21h10.18.418,classification_task,2021.2.3,Win32,60.0276127,6087bfacd4e23fe0f68c9aa1,626b377229c10585ec392f8a,626b3acfe3fbd43542785a2f,,,,,,,,,,,,,,,,,,,,,,,l,0,"[""0.162"",""0.357"",""0.049"",""0.960""]","[1,1,0,1]",0,19,19,19,1,0,1,,,1,FALSE,0.9848,,,,,,,,,,,,,,,,,,,,,,,,,,,,,,
,6087bfacd4e23fe0f68c9aa1,001,2022-04-28_21h10.18.418,classification_task,2021.2.3,Win32,60.0276127,6087bfacd4e23fe0f68c9aa1,626b377229c10585ec392f8a,626b3acfe3fbd43542785a2f,,,,,,,,,,,,,,,,,,,,,,,a,0,"[""0.085"",""0.320"",""0.617"",""0.656""]","[1,1,1,0]",0,20,20,20,1,1,0,,,1,FALSE,0.6863,,,,,,,,,,,,,,,,,,,,,,,,,,,,,,
,6087bfacd4e23fe0f68c9aa1,001,2022-04-28_21h10.18.418,classification_task,2021.2.3,Win32,60.0276127,6087bfacd4e23fe0f68c9aa1,626b377229c10585ec392f8a,626b3acfe3fbd43542785a2f,,,,,,,,,,,,,,,,,,,,,,,a,1,"[""0.258"",""0.430"",""0.786"",""0.517""]","[1,1,1,0]",0,21,21,21,1,0,0,,,1,FALSE,0.3179,,,,,,,,,,,,,,,,,,,,,,,,,,,,,,
,6087bfacd4e23fe0f68c9aa1,001,2022-04-28_21h10.18.418,classification_task,2021.2.3,Win32,60.0276127,6087bfacd4e23fe0f68c9aa1,626b377229c10585ec392f8a,626b3acfe3fbd43542785a2f,,,,,,,,,,,,,,,,,,,,,,,l,1,"[""0.733"",""0.197"",""0.483"",""0.694""]","[0,1,1,1]",0,22,22,22,1,1,1,,,1,FALSE,0.2799,,,,,,,,,,,,,,,,,,,,,,,,,,,,,,
,6087bfacd4e23fe0f68c9aa1,001,2022-04-28_21h10.18.418,classification_task,2021.2.3,Win32,60.0276127,6087bfacd4e23fe0f68c9aa1,626b377229c10585ec392f8a,626b3acfe3fbd43542785a2f,,,,,,,,,,,,,,,,,,,,,,,a,0,"[""0.085"",""0.320"",""0.533"",""0.826""]","[1,1,0,1]",0,23,23,23,1,1,0,,,1,FALSE,0.1004,,,,,,,,,,,,,,,,,,,,,,,,,,,,,,
,6087bfacd4e23fe0f68c9aa1,001,2022-04-28_21h10.18.418,classification_task,2021.2.3,Win32,60.0276127,6087bfacd4e23fe0f68c9aa1,626b377229c10585ec392f8a,626b3acfe3fbd43542785a2f,,,,,,,,,,,,,,,,,,,,,,,a,0,"[""0.127"",""0.552"",""0.483"",""0.694""]","[1,0,1,1]",0,24,24,24,1,1,1,,,1,FALSE,1.1501,,,,,,,,,,,,,,,,,,,,,,,,,,,,,,
,6087bfacd4e23fe0f68c9aa1,001,2022-04-28_21h10.18.418,classification_task,2021.2.3,Win32,60.0276127,6087bfacd4e23fe0f68c9aa1,626b377229c10585ec392f8a,626b3acfe3fbd43542785a2f,,,,,,,,,,,,,,,,,,,,,,,l,0,"[""0.258"",""0.654"",""0.786"",""0.871""]","[1,0,1,1]",0,25,25,25,1,0,0,,,1,FALSE,0.0177,,,,,,,,,,,,,,,,,,,,,,,,,,,,,,
,6087bfacd4e23fe0f68c9aa1,001,2022-04-28_21h10.18.418,classification_task,2021.2.3,Win32,60.0276127,6087bfacd4e23fe0f68c9aa1,626b377229c10585ec392f8a,626b3acfe3fbd43542785a2f,,,,,,,,,,,,,,,,,,,,,,,a,1,"[""0.162"",""0.039"",""0.910"",""0.960""]","[1,0,1,1]",0,26,26,26,1,0,1,,,1,FALSE,0.7849,,,,,,,,,,,,,,,,,,,,,,,,,,,,,,
,6087bfacd4e23fe0f68c9aa1,001,2022-04-28_21h10.18.418,classification_task,2021.2.3,Win32,60.0276127,6087bfacd4e23fe0f68c9aa1,626b377229c10585ec392f8a,626b3acfe3fbd43542785a2f,,,,,,,,,,,,,,,,,,,,,,,l,0,"[""0.162"",""0.357"",""0.910"",""0.517""]","[1,1,1,0]",0,27,27,27,1,0,1,,,1,FALSE,1.0157,,,,,,,,,,,,,,,,,,,,,,,,,,,,,,
,6087bfacd4e23fe0f68c9aa1,001,2022-04-28_21h10.18.418,classification_task,2021.2.3,Win32,60.0276127,6087bfacd4e23fe0f68c9aa1,626b377229c10585ec392f8a,626b3acfe3fbd43542785a2f,,,,,,,,,,,,,,,,,,,,,,,l,0,"[""0.258"",""0.430"",""0.656"",""0.871""]","[1,1,0,1]",0,28,28,28,1,0,0,,,1,FALSE,4.0347,,,,,,,,,,,,,,,,,,,,,,,,,,,,,,
,6087bfacd4e23fe0f68c9aa1,001,2022-04-28_21h10.18.418,classification_task,2021.2.3,Win32,60.0276127,6087bfacd4e23fe0f68c9aa1,626b377229c10585ec392f8a,626b3acfe3fbd43542785a2f,,,,,,,,,,,,,,,,,,,,,,,l,0,"[""0.551"",""0.357"",""0.910"",""0.960""]","[0,1,1,1]",0,29,29,29,1,0,1,,,1,FALSE,2.2,,,,,,,,,,,,,,,,,,,,,,,,,,,,,,
,6087bfacd4e23fe0f68c9aa1,001,2022-04-28_21h10.18.418,classification_task,2021.2.3,Win32,60.0276127,6087bfacd4e23fe0f68c9aa1,626b377229c10585ec392f8a,626b3acfe3fbd43542785a2f,,,,,,,,,,,,,,,,,,,,,,,a,0,"[""0.085"",""0.517"",""0.617"",""0.826""]","[1,0,1,1]",0,30,30,30,1,1,0,,,1,FALSE,0.4497,,,,,,,,,,,,,,,,,,,,,,,,,,,,,,
,6087bfacd4e23fe0f68c9aa1,001,2022-04-28_21h10.18.418,classification_task,2021.2.3,Win32,60.0276127,6087bfacd4e23fe0f68c9aa1,626b377229c10585ec392f8a,626b3acfe3fbd43542785a2f,,,,,,,,,,,,,,,,,,,,,,,a,0,"[""0.127"",""0.197"",""0.517"",""0.694""]","[1,1,0,1]",0,31,31,31,1,1,1,,,1,FALSE,0.7679,,,,,,,,,,,,,,,,,,,,,,,,,,,,,,
,6087bfacd4e23fe0f68c9aa1,001,2022-04-28_21h10.18.418,classification_task,2021.2.3,Win32,60.0276127,6087bfacd4e23fe0f68c9aa1,626b377229c10585ec392f8a,626b3acfe3fbd43542785a2f,,,,,,,,,,,,,,,,,,,,,,,l,1,"[""0.127"",""0.197"",""0.654"",""0.694""]","[1,1,0,1]",0,32,32,32,1,1,1,,,1,FALSE,5.4671,,,,,,,,,,,,,,,,,,,,,,,,,,,,,,
,6087bfacd4e23fe0f68c9aa1,001,2022-04-28_21h10.18.418,classification_task,2021.2.3,Win32,60.0276127,6087bfacd4e23fe0f68c9aa1,626b377229c10585ec392f8a,626b3acfe3fbd43542785a2f,,,,,,,,,,,,,,,,,,,,,,,a,0,"[""0.531"",""0.197"",""0.483"",""0.694""]","[0,1,1,1]",0,33,33,33,1,1,1,,,1,FALSE,0.7845,,,,,,,,,,,,,,,,,,,,,,,,,,,,,,
,6087bfacd4e23fe0f68c9aa1,001,2022-04-28_21h10.18.418,classification_task,2021.2.3,Win32,60.0276127,6087bfacd4e23fe0f68c9aa1,626b377229c10585ec392f8a,626b3acfe3fbd43542785a2f,,,,,,,,,,,,,,,,,,,,,,,a,1,"[""0.162"",""0.660"",""0.910"",""0.960""]","[1,0,1,1]",0,34,34,34,1,0,1,,,1,FALSE,2.6661,,,,,,,,,,,,,,,,,,,,,,,,,,,,,,
,6087bfacd4e23fe0f68c9aa1,001,2022-04-28_21h10.18.418,classification_task,2021.2.3,Win32,60.0276127,6087bfacd4e23fe0f68c9aa1,626b377229c10585ec392f8a,626b3acfe3fbd43542785a2f,,,,,,,,,,,,,,,,,,,,,,,a,1,"[""0.162"",""0.357"",""0.031"",""0.960""]","[1,1,0,1]",0,35,35,35,1,0,1,,,1,FALSE,2.8347,,,,,,,,,,,,,,,,,,,,,,,,,,,,,,
,6087bfacd4e23fe0f68c9aa1,001,2022-04-28_21h10.18.418,classification_task,2021.2.3,Win32,60.0276127,6087bfacd4e23fe0f68c9aa1,626b377229c10585ec392f8a,626b3acfe3fbd43542785a2f,,,,,,,,,,,,,,,,,,,,,,,a,1,"[""0.258"",""0.430"",""0.517"",""0.871""]","[1,1,0,1]",0,36,36,36,1,0,0,,,1,FALSE,0.7162,,,,,,,,,,,,,,,,,,,,,,,,,,,,,,
,6087bfacd4e23fe0f68c9aa1,001,2022-04-28_21h10.18.418,classification_task,2021.2.3,Win32,60.0276127,6087bfacd4e23fe0f68c9aa1,626b377229c10585ec392f8a,626b3acfe3fbd43542785a2f,,,,,,,,,,,,,,,,,,,,,,,a,0,"[""0.127"",""0.197"",""0.483"",""0.656""]","[1,1,1,0]",0,37,37,37,1,1,1,,,1,FALSE,0.7344,,,,,,,,,,,,,,,,,,,,,,,,,,,,,,
,6087bfacd4e23fe0f68c9aa1,001,2022-04-28_21h10.18.418,classification_task,2021.2.3,Win32,60.0276127,6087bfacd4e23fe0f68c9aa1,626b377229c10585ec392f8a,626b3acfe3fbd43542785a2f,,,,,,,,,,,,,,,,,,,,,,,l,0,"[""0.258"",""0.544"",""0.786"",""0.871""]","[1,0,1,1]",0,38,38,38,1,0,0,,,1,FALSE,0.6522,,,,,,,,,,,,,,,,,,,,,,,,,,,,,,
,6087bfacd4e23fe0f68c9aa1,001,2022-04-28_21h10.18.418,classification_task,2021.2.3,Win32,60.0276127,6087bfacd4e23fe0f68c9aa1,626b377229c10585ec392f8a,626b3acfe3fbd43542785a2f,,,,,,,,,,,,,,,,,,,,,,,l,0,"[""0.162"",""0.357"",""0.910"",""0.733""]","[1,1,1,0]",0,39,39,39,1,0,1,,,1,FALSE,0.4173,,,,,,,,,,,,,,,,,,,,,,,,,,,,,,
,6087bfacd4e23fe0f68c9aa1,001,2022-04-28_21h10.18.418,classification_task,2021.2.3,Win32,60.0276127,6087bfacd4e23fe0f68c9aa1,626b377229c10585ec392f8a,626b3acfe3fbd43542785a2f,,,,,,,,,,,,,,,,,,,,,,,l,1,"[""0.031"",""0.320"",""0.617"",""0.826""]","[0,1,1,1]",0,40,40,40,1,1,0,,,1,FALSE,4.134,,,,,,,,,,,,,,,,,,,,,,,,,,,,,,
,6087bfacd4e23fe0f68c9aa1,001,2022-04-28_21h10.18.418,classification_task,2021.2.3,Win32,60.0276127,6087bfacd4e23fe0f68c9aa1,626b377229c10585ec392f8a,626b3acfe3fbd43542785a2f,,,,,,,,,,,,,,,,,,,,,,,a,1,"[""0.258"",""0.430"",""0.786"",""0.544""]","[1,1,1,0]",0,41,41,41,1,0,0,,,1,FALSE,7.9158,,,,,,,,,,,,,,,,,,,,,,,,,,,,,,
,6087bfacd4e23fe0f68c9aa1,001,2022-04-28_21h10.18.418,classification_task,2021.2.3,Win32,60.0276127,6087bfacd4e23fe0f68c9aa1,626b377229c10585ec392f8a,626b3acfe3fbd43542785a2f,,,,,,,,,,,,,,,,,,,,,,,a,1,"[""0.733"",""0.357"",""0.910"",""0.960""]","[0,1,1,1]",0,42,42,42,1,0,1,,,1,FALSE,2.0844,,,,,,,,,,,,,,,,,,,,,,,,,,,,,,
,6087bfacd4e23fe0f68c9aa1,001,2022-04-28_21h10.18.418,classification_task,2021.2.3,Win32,60.0276127,6087bfacd4e23fe0f68c9aa1,626b377229c10585ec392f8a,626b3acfe3fbd43542785a2f,,,,,,,,,,,,,,,,,,,,,,,,0,"[""0.085"",""0.320"",""0.617"",""0.517""]","[1,1,1,0]",0,43,43,43,1,1,0,,,1,FALSE,,,,,,,,,,,,,,,,,,,,,,,,,,,,,,,
,6087bfacd4e23fe0f68c9aa1,001,2022-04-28_21h10.18.418,classification_task,2021.2.3,Win32,60.0276127,6087bfacd4e23fe0f68c9aa1,626b377229c10585ec392f8a,626b3acfe3fbd43542785a2f,,,,,,,,,,,,,,,,,,,,,,,a,0,"[""0.085"",""0.733"",""0.617"",""0.826""]","[1,0,1,1]",0,44,44,44,1,1,0,,,1,FALSE,1.2439,,,,,,,,,,,,,,,,,,,,,,,,,,,,,,
,6087bfacd4e23fe0f68c9aa1,001,2022-04-28_21h10.18.418,classification_task,2021.2.3,Win32,60.0276127,6087bfacd4e23fe0f68c9aa1,626b377229c10585ec392f8a,626b3acfe3fbd43542785a2f,,,,,,,,,,,,,,,,,,,,,,,l,0,"[""0.039"",""0.430"",""0.786"",""0.871""]","[0,1,1,1]",0,45,45,45,1,0,0,,,1,FALSE,1.3165,,,,,,,,,,,,,,,,,,,,,,,,,,,,,,
,6087bfacd4e23fe0f68c9aa1,001,2022-04-28_21h10.18.418,classification_task,2021.2.3,Win32,60.0276127,6087bfacd4e23fe0f68c9aa1,626b377229c10585ec392f8a,626b3acfe3fbd43542785a2f,,,,,,,,,,,,,,,,,,,,,,,a,0,"[""0.085"",""0.320"",""0.752"",""0.826""]","[1,1,0,1]",0,46,46,46,1,1,0,,,1,FALSE,1.383,,,,,,,,,,,,,,,,,,,,,,,,,,,,,,
,6087bfacd4e23fe0f68c9aa1,001,2022-04-28_21h10.18.418,classification_task,2021.2.3,Win32,60.0276127,6087bfacd4e23fe0f68c9aa1,626b377229c10585ec392f8a,626b3acfe3fbd43542785a2f,,,,,,,,,,,,,,,,,,,,,,,l,1,"[""0.127"",""0.531"",""0.483"",""0.694""]","[1,0,1,1]",0,47,47,47,1,1,1,,,1,FALSE,3.1823,,,,,,,,,,,,,,,,,,,,,,,,,,,,,,
,6087bfacd4e23fe0f68c9aa1,001,2022-04-28_21h10.18.418,classification_task,2021.2.3,Win32,60.0276127,6087bfacd4e23fe0f68c9aa1,626b377229c10585ec392f8a,626b3acfe3fbd43542785a2f,,,,,,,,,,,,,,,,,,,,,,,l,1,"[""0.127"",""0.197"",""0.483"",""0.025""]","[1,1,1,0]",0,48,48,48,1,1,1,,,1,FALSE,0.8163,,,,,,,,,,,,,,,,,,,,,,,,,,,,,,
,6087bfacd4e23fe0f68c9aa1,001,2022-04-28_21h10.18.418,classification_task,2021.2.3,Win32,60.0276127,6087bfacd4e23fe0f68c9aa1,626b377229c10585ec392f8a,626b3acfe3fbd43542785a2f,,,,,,,,,,,,,,,,,,,,,,,a,1,"[""0.162"",""0.656"",""0.910"",""0.960""]","[1,0,1,1]",0,49,49,49,1,0,1,,,1,FALSE,3.6704,,,,,,,,,,,,,,,,,,,,,,,,,,,,,,
,6087bfacd4e23fe0f68c9aa1,001,2022-04-28_21h10.18.418,classification_task,2021.2.3,Win32,60.0276127,6087bfacd4e23fe0f68c9aa1,626b377229c10585ec392f8a,626b3acfe3fbd43542785a2f,,,,,,,,,,,,,,,,,,,,,,,l,0,"[""0.654"",""0.357"",""0.910"",""0.960""]","[0,1,1,1]",0,50,50,50,1,0,1,,,1,FALSE,1.2343,,,,,,,,,,,,,,,,,,,,,,,,,,,,,,
,6087bfacd4e23fe0f68c9aa1,001,2022-04-28_21h10.18.418,classification_task,2021.2.3,Win32,60.0276127,6087bfacd4e23fe0f68c9aa1,626b377229c10585ec392f8a,626b3acfe3fbd43542785a2f,,,,,,,,,,,,,,,,,,,,,,,a,1,"[""0.162"",""0.357"",""0.910"",""0.544""]","[1,1,1,0]",0,51,51,51,1,0,1,,,1,FALSE,1.3183,,,,,,,,,,,,,,,,,,,,,,,,,,,,,,
,6087bfacd4e23fe0f68c9aa1,001,2022-04-28_21h10.18.418,classification_task,2021.2.3,Win32,60.0276127,6087bfacd4e23fe0f68c9aa1,626b377229c10585ec392f8a,626b3acfe3fbd43542785a2f,,,,,,,,,,,,,,,,,,,,,,,a,1,"[""0.258"",""0.430"",""0.786"",""0.752""]","[1,1,1,0]",0,52,52,52,1,0,0,,,1,FALSE,2.3178,,,,,,,,,,,,,,,,,,,,,,,,,,,,,,
,6087bfacd4e23fe0f68c9aa1,001,2022-04-28_21h10.18.418,classification_task,2021.2.3,Win32,60.0276127,6087bfacd4e23fe0f68c9aa1,626b377229c10585ec392f8a,626b3acfe3fbd43542785a2f,,,,,,,,,,,,,,,,,,,,,,,l,0,"[""0.258"",""0.430"",""0.531"",""0.871""]","[1,1,0,1]",0,53,53,53,1,0,0,,,1,FALSE,1.267,,,,,,,,,,,,,,,,,,,,,,,,,,,,,,
,6087bfacd4e23fe0f68c9aa1,001,2022-04-28_21h10.18.418,classification_task,2021.2.3,Win32,60.0276127,6087bfacd4e23fe0f68c9aa1,626b377229c10585ec392f8a,626b3acfe3fbd43542785a2f,,,,,,,,,,,,,,,,,,,,,,,l,0,"[""0.654"",""0.430"",""0.786"",""0.871""]","[0,1,1,1]",0,54,54,54,1,0,0,,,1,FALSE,1.3509,,,,,,,,,,,,,,,,,,,,,,,,,,,,,,
,6087bfacd4e23fe0f68c9aa1,001,2022-04-28_21h10.18.418,classification_task,2021.2.3,Win32,60.0276127,6087bfacd4e23fe0f68c9aa1,626b377229c10585ec392f8a,626b3acfe3fbd43542785a2f,,,,,,,,,,,,,,,,,,,,,,,a,0,"[""0.517"",""0.320"",""0.617"",""0.826""]","[0,1,1,1]",0,55,55,55,1,1,0,,,1,FALSE,2.0678,,,,,,,,,,,,,,,,,,,,,,,,,,,,,,
,6087bfacd4e23fe0f68c9aa1,001,2022-04-28_21h10.18.418,classification_task,2021.2.3,Win32,60.0276127,6087bfacd4e23fe0f68c9aa1,626b377229c10585ec392f8a,626b3acfe3fbd43542785a2f,,,,,,,,,,,,,,,,,,,,,,,a,0,"[""0.039"",""0.197"",""0.483"",""0.694""]","[0,1,1,1]",0,56,56,56,1,1,1,,,1,FALSE,2.6,,,,,,,,,,,,,,,,,,,,,,,,,,,,,,
,6087bfacd4e23fe0f68c9aa1,001,2022-04-28_21h10.18.418,classification_task,2021.2.3,Win32,60.0276127,6087bfacd4e23fe0f68c9aa1,626b377229c10585ec392f8a,626b3acfe3fbd43542785a2f,,,,,,,,,,,,,,,,,,,,,,,l,0,"[""0.258"",""0.656"",""0.786"",""0.871""]","[1,0,1,1]",0,57,57,57,1,0,0,,,1,FALSE,1.0353,,,,,,,,,,,,,,,,,,,,,,,,,,,,,,
,6087bfacd4e23fe0f68c9aa1,001,2022-04-28_21h10.18.418,classification_task,2021.2.3,Win32,60.0276127,6087bfacd4e23fe0f68c9aa1,626b377229c10585ec392f8a,626b3acfe3fbd43542785a2f,,,,,,,,,,,,,,,,,,,,,,,l,1,"[""0.127"",""0.544"",""0.483"",""0.694""]","[1,0,1,1]",0,58,58,58,1,1,1,,,1,FALSE,1.5379,,,,,,,,,,,,,,,,,,,,,,,,,,,,,,
,6087bfacd4e23fe0f68c9aa1,001,2022-04-28_21h10.18.418,classification_task,2021.2.3,Win32,60.0276127,6087bfacd4e23fe0f68c9aa1,626b377229c10585ec392f8a,626b3acfe3fbd43542785a2f,,,,,,,,,,,,,,,,,,,,,,,a,1,"[""0.162"",""0.357"",""0.752"",""0.960""]","[1,1,0,1]",0,59,59,59,1,0,1,,,1,FALSE,2.8488,,,,,,,,,,,,,,,,,,,,,,,,,,,,,,
,6087bfacd4e23fe0f68c9aa1,001,2022-04-28_21h10.18.418,classification_task,2021.2.3,Win32,60.0276127,6087bfacd4e23fe0f68c9aa1,626b377229c10585ec392f8a,626b3acfe3fbd43542785a2f,,,,,,,,,,,,,,,,,,,,,,,l,1,"[""0.085"",""0.320"",""0.617"",""0.733""]","[1,1,1,0]",0,60,60,60,1,1,0,,,1,FALSE,0.5495,,,,,,,,,,,,,,,,,,,,,,,,,,,,,,
,6087bfacd4e23fe0f68c9aa1,001,2022-04-28_21h10.18.418,classification_task,2021.2.3,Win32,60.0276127,6087bfacd4e23fe0f68c9aa1,626b377229c10585ec392f8a,626b3acfe3fbd43542785a2f,,,,,,,,,,,,,,,,,,,,,,,a,0,"[""0.085"",""0.531"",""0.617"",""0.826""]","[1,0,1,1]",0,61,61,61,1,1,0,,,1,FALSE,3.0521,,,,,,,,,,,,,,,,,,,,,,,,,,,,,,
,6087bfacd4e23fe0f68c9aa1,001,2022-04-28_21h10.18.418,classification_task,2021.2.3,Win32,60.0276127,6087bfacd4e23fe0f68c9aa1,626b377229c10585ec392f8a,626b3acfe3fbd43542785a2f,,,,,,,,,,,,,,,,,,,,,,,l,1,"[""0.127"",""0.197"",""0.039"",""0.694""]","[1,1,0,1]",0,62,62,62,1,1,1,,,1,FALSE,0.9839,,,,,,,,,,,,,,,,,,,,,,,,,,,,,,
,6087bfacd4e23fe0f68c9aa1,001,2022-04-28_21h10.18.418,classification_task,2021.2.3,Win32,60.0276127,6087bfacd4e23fe0f68c9aa1,626b377229c10585ec392f8a,626b3acfe3fbd43542785a2f,,,,,,,,,,,,,,,,,,,,,,,l,1,"[""0.085"",""0.320"",""0.039"",""0.826""]","[1,1,0,1]",0,63,63,63,1,1,0,,,1,FALSE,0.567,,,,,,,,,,,,,,,,,,,,,,,,,,,,,,
,6087bfacd4e23fe0f68c9aa1,001,2022-04-28_21h10.18.418,classification_task,2021.2.3,Win32,60.0276127,6087bfacd4e23fe0f68c9aa1,626b377229c10585ec392f8a,626b3acfe3fbd43542785a2f,,,,,,,,,,,,,,,,,,,,,,,,,,,,,,,,,,,,,,,0, ,,0,0,183.611,0,2,2,2,1,2,3,,,,,,,,,,,,,,,,,
,6087bfacd4e23fe0f68c9aa1,001,2022-04-28_21h10.18.418,classification_task,2021.2.3,Win32,60.0276127,6087bfacd4e23fe0f68c9aa1,626b377229c10585ec392f8a,626b3acfe3fbd43542785a2f,,,,,,,,,,,,,,,,,,,,,,,,,,,,,,,,,,,,,,,1,  ,,0,6.377714631,186.1759,0,2,2,2,1,2,3,,,,,,,,,,,,,,,,,
,6087bfacd4e23fe0f68c9aa1,001,2022-04-28_21h10.18.418,classification_task,2021.2.3,Win32,60.0276127,6087bfacd4e23fe0f68c9aa1,626b377229c10585ec392f8a,626b3acfe3fbd43542785a2f,,,,,,,,,,,,,,,,,,,,,,,,,,,,,,,,,,,,,,,2,  ,,0,4.14992114,187.3845,0,2,2,2,1,2,3,,,,,,,,,,,,,,,,,
,6087bfacd4e23fe0f68c9aa1,001,2022-04-28_21h10.18.418,classification_task,2021.2.3,Win32,60.0276127,6087bfacd4e23fe0f68c9aa1,626b377229c10585ec392f8a,626b3acfe3fbd43542785a2f,,,,,,,,,,,,,,,,,,,,,,,,,,,,,,,,,,,,,,,,,,,,,0,2,2,2,1,,3,,,,,,,,,,,,,,,,,
,6087bfacd4e23fe0f68c9aa1,001,2022-04-28_21h10.18.418,classification_task,2021.2.3,Win32,60.0276127,6087bfacd4e23fe0f68c9aa1,626b377229c10585ec392f8a,626b3acfe3fbd43542785a2f,,,,,,,,,,,,,,,,,,,,,,,,,,,,,,,,,,,,,,,,,,,,,,,,,,,,,I believe the aid is a competent performer,,0.7,0,4,692.4082,0,0,0,0,1,0,,,,
,6087bfacd4e23fe0f68c9aa1,001,2022-04-28_21h10.18.418,classification_task,2021.2.3,Win32,60.0276127,6087bfacd4e23fe0f68c9aa1,626b377229c10585ec392f8a,626b3acfe3fbd43542785a2f,,,,,,,,,,,,,,,,,,,,,,,,,,,,,,,,,,,,,,,,,,,,,,,,,,,,,I trust the aid,,0.7,0,5,694.8422,0,0,0,0,1,0,,,,
,6087bfacd4e23fe0f68c9aa1,001,2022-04-28_21h10.18.418,classification_task,2021.2.3,Win32,60.0276127,6087bfacd4e23fe0f68c9aa1,626b377229c10585ec392f8a,626b3acfe3fbd43542785a2f,,,,,,,,,,,,,,,,,,,,,,,,,,,,,,,,,,,,,,,,,,,,,,,,,,,,,I have confidence in the advice given by the aid,,0.7,0,5,696.4529,0,0,0,0,1,0,,,,
,6087bfacd4e23fe0f68c9aa1,001,2022-04-28_21h10.18.418,classification_task,2021.2.3,Win32,60.0276127,6087bfacd4e23fe0f68c9aa1,626b377229c10585ec392f8a,626b3acfe3fbd43542785a2f,,,,,,,,,,,,,,,,,,,,,,,,,,,,,,,,,,,,,,,,,,,,,,,,,,,,,I can depend on the aid,,0.7,0,5,697.3006,0,0,0,0,1,0,,,,
,6087bfacd4e23fe0f68c9aa1,001,2022-04-28_21h10.18.418,classification_task,2021.2.3,Win32,60.0276127,6087bfacd4e23fe0f68c9aa1,626b377229c10585ec392f8a,626b3acfe3fbd43542785a2f,,,,,,,,,,,,,,,,,,,,,,,,,,,,,,,,,,,,,,,,,,,,,,,,,,,,,I can rely on the aid to behave in consistent ways,,0.7,0,5,699.271,0,0,0,0,1,0,,,,
,6087bfacd4e23fe0f68c9aa1,001,2022-04-28_21h10.18.418,classification_task,2021.2.3,Win32,60.0276127,6087bfacd4e23fe0f68c9aa1,626b377229c10585ec392f8a,626b3acfe3fbd43542785a2f,,,,,,,,,,,,,,,,,,,,,,,,,,,,,,,,,,,,,,,,,,,,,,,,,,,,,I can rely on the aid to do its best every time I take its advice,,0.7,0,4,700.6275,0,0,0,0,1,0,,,,
,6087bfacd4e23fe0f68c9aa1,001,2022-04-28_21h10.18.418,classification_task,2021.2.3,Win32,60.0276127,6087bfacd4e23fe0f68c9aa1,626b377229c10585ec392f8a,626b3acfe3fbd43542785a2f,,,,,,,,,,,,,,,,,,,,,,,,,,,,,,,,,,,,,,,,,,,,,,,,,,,,,"On trials you completed with assistance from the aid, how frequently did you think the aid was correct?",,0.7,0,100%,,0,0,0,0,1,0,,,,
,6087bfacd4e23fe0f68c9aa1,001,2022-04-28_21h10.18.418,classification_task,2021.2.3,Win32,60.0276127,6087bfacd4e23fe0f68c9aa1,626b377229c10585ec392f8a,626b3acfe3fbd43542785a2f,,,,,,,,,,,,,,,,,,,,,,,,,,,,,,,,,,,,,,,,,,,,,,,,,,,,,"On trials you completed without the aid, how frequently did you think you were correct?",,0.7,0,60%,,0,0,0,0,1,0,,,,
,6087bfacd4e23fe0f68c9aa1,001,2022-04-28_21h10.18.418,classification_task,2021.2.3,Win32,60.0276127,6087bfacd4e23fe0f68c9aa1,626b377229c10585ec392f8a,626b3acfe3fbd43542785a2f,,,,,,,,,,,,,,,,,,,,,,,,,,,,,,,,,,,,,,,,,,,,,,,,,,,,,,,,,,,0,0,0,0,1,,,,,
,6087bfacd4e23fe0f68c9aa1,001,2022-04-28_21h10.18.418,classification_task,2021.2.3,Win32,60.0276127,6087bfacd4e23fe0f68c9aa1,626b377229c10585ec392f8a,626b3acfe3fbd43542785a2f,,,,,,,,,,,,,,,,,,,,,,,,,,,,,,,,,,,,,,,,,,,,,,,,,,,,,,,,,,,,,,,,,space,7.169,726.1321,
,6087bfacd4e23fe0f68c9aa1,001,2022-04-28_21h10.18.418,classification_task,2021.2.3,Win32,60.0276127,6087bfacd4e23fe0f68c9aa1,626b377229c10585ec392f8a,626b3acfe3fbd43542785a2f,,,,,,,,,,,,,,,,,,,,,,,,,,,,,,,,,,,,,,,,,,,,,,,,,,,,,,,,,,,,,,,,,,,,"Mozilla/5.0 (Windows NT 10.0; Win64; x64) AppleWebKit/537.36 (KHTML, like Gecko) Chrome/100.0.4896.127 Safari/537.36"
