usingWebGL,participant,session,date,expName,psychopyVersion,OS,frameRate,PROLIFIC_PID,STUDY_ID,SESSION_ID,signatures_friend,signatures_foe,band_ranges_top,band_ranges_bottom,formitemText,formtype,formundefined,formitemWidth,formindex,formresponse,formrt,key_resp_2.keys,key_resp_2.rt,tute_resp.keys,tute_resp.rt,tutorial.thisRepN,tutorial.thisTrialN,tutorial.thisN,tutorial.thisIndex,tutorial.ran,key_resp_4.keys,key_resp_4.rt,key_resp.keys,key_resp.corr,key_resp.rt,lines_presented,is_signal_presented,trials.thisRepN,trials.thisTrialN,trials.thisN,trials.thisIndex,trials.ran,vessel,active_band,lines,is_signal,supported_pos,catch_trial,debrief_formindex,debrief_formitemText,debrief_formtype,debrief_formitemWidth,debrief_formresponse,debrief_formrt,phases.thisRepN,phases.thisTrialN,phases.thisN,phases.thisIndex,phases.ran,phases.order,phase,key_resp_3.keys,trustitemText,trusttype,trustitemWidth,trustindex,trustresponse,trustrt,support_status.thisRepN,support_status.thisTrialN,support_status.thisN,support_status.thisIndex,support_status.ran,support_status.order,key_resp_5.keys,key_resp_5.rt,globalClockTime,userAgent
TRUE,608bbdf084f82ffc3da1381d,001,2022-04-28_21h05.54.486,classification_task,2021.2.3,Win32,143.5132032,608bbdf084f82ffc3da1381d,626b377229c10585ec392f89,626b39cf7b0808b54565651d,,,,,,,,,,,,,,,,,,,,,,,,,,,,,,,,,,,,,,,,,,,,,,,,,,,,,,,,,,,,,,,,,,,,
,608bbdf084f82ffc3da1381d,001,2022-04-28_21h05.54.486,classification_task,2021.2.3,Win32,143.5132032,608bbdf084f82ffc3da1381d,626b377229c10585ec392f89,626b39cf7b0808b54565651d,"[[""0.274"",""0.527"",""0.783"",""0.905""],[""0.169"",""0.342"",""0.747"",""0.956""]]","[[""0.035"",""0.382"",""0.662"",""0.708""],[""0.095"",""0.210"",""0.445"",""0.820""]]","[1,10]","[100,1000]",Video game experience,,,0.7,0,,,,,,,,,,,,,,,,,,,,,,,,,,,,,,,,,,,,,,,,,,,,,,,,,,,,,,,,,,,
,608bbdf084f82ffc3da1381d,001,2022-04-28_21h05.54.486,classification_task,2021.2.3,Win32,143.5132032,608bbdf084f82ffc3da1381d,626b377229c10585ec392f89,626b39cf7b0808b54565651d,,,,,Approximately how many hours did you spend playing video games in the last week?,,,0.7,0,20,,,,,,,,,,,,,,,,,,,,,,,,,,,,,,,,,,,,,,,,,,,,,,,,,,,,,,,,,,
,608bbdf084f82ffc3da1381d,001,2022-04-28_21h05.54.486,classification_task,2021.2.3,Win32,143.5132032,608bbdf084f82ffc3da1381d,626b377229c10585ec392f89,626b39cf7b0808b54565651d,,,,,"Which game did you play the most this year? (Enter ""None"" if you didn't play any)",,,0.7,0,League of legends,,,,,,,,,,,,,,,,,,,,,,,,,,,,,,,,,,,,,,,,,,,,,,,,,,,,,,,,,,
,608bbdf084f82ffc3da1381d,001,2022-04-28_21h05.54.486,classification_task,2021.2.3,Win32,143.5132032,608bbdf084f82ffc3da1381d,626b377229c10585ec392f89,626b39cf7b0808b54565651d,,,,,Visual perception,,,0.7,0,,,,,,,,,,,,,,,,,,,,,,,,,,,,,,,,,,,,,,,,,,,,,,,,,,,,,,,,,,,
,608bbdf084f82ffc3da1381d,001,2022-04-28_21h05.54.486,classification_task,2021.2.3,Win32,143.5132032,608bbdf084f82ffc3da1381d,626b377229c10585ec392f89,626b39cf7b0808b54565651d,,,,,Do you have any form of color blindness?,,,0.7,0,No,27.4076,,,,,,,,,,,,,,,,,,,,,,,,,,,,,,,,,,,,,,,,,,,,,,,,,,,,,,,,,
,608bbdf084f82ffc3da1381d,001,2022-04-28_21h05.54.486,classification_task,2021.2.3,Win32,143.5132032,608bbdf084f82ffc3da1381d,626b377229c10585ec392f89,626b39cf7b0808b54565651d,,,,,Do you use software to change the colour temperature of your screen (e.g. f.lux)?,,,0.7,0,Yes,30.2811,,,,,,,,,,,,,,,,,,,,,,,,,,,,,,,,,,,,,,,,,,,,,,,,,,,,,,,,,
,608bbdf084f82ffc3da1381d,001,2022-04-28_21h05.54.486,classification_task,2021.2.3,Win32,143.5132032,608bbdf084f82ffc3da1381d,626b377229c10585ec392f89,626b39cf7b0808b54565651d,,,,,,,,,,,,space,36.0067,space,8.1582,0,0,0,0,1,,,,,,,,,,,,,,,,,,,,,,,,,,,,,,,,,,,,,,,,,,,,,,,,
,608bbdf084f82ffc3da1381d,001,2022-04-28_21h05.54.486,classification_task,2021.2.3,Win32,143.5132032,608bbdf084f82ffc3da1381d,626b377229c10585ec392f89,626b39cf7b0808b54565651d,,,,,,,,,,,,,,space,9.3746,1,0,1,0,1,,,,,,,,,,,,,,,,,,,,,,,,,,,,,,,,,,,,,,,,,,,,,,,,
,608bbdf084f82ffc3da1381d,001,2022-04-28_21h05.54.486,classification_task,2021.2.3,Win32,143.5132032,608bbdf084f82ffc3da1381d,626b377229c10585ec392f89,626b39cf7b0808b54565651d,,,,,,,,,,,,,,space,30.3633,2,0,2,0,1,,,,,,,,,,,,,,,,,,,,,,,,,,,,,,,,,,,,,,,,,,,,,,,,
,608bbdf084f82ffc3da1381d,001,2022-04-28_21h05.54.486,classification_task,2021.2.3,Win32,143.5132032,608bbdf084f82ffc3da1381d,626b377229c10585ec392f89,626b39cf7b0808b54565651d,,,,,,,,,,,,,,space,8.357,3,0,3,0,1,,,,,,,,,,,,,,,,,,,,,,,,,,,,,,,,,,,,,,,,,,,,,,,,
,608bbdf084f82ffc3da1381d,001,2022-04-28_21h05.54.486,classification_task,2021.2.3,Win32,143.5132032,608bbdf084f82ffc3da1381d,626b377229c10585ec392f89,626b39cf7b0808b54565651d,,,,,,,,,,,,,,space,24.0572,4,0,4,0,1,,,,,,,,,,,,,,,,,,,,,,,,,,,,,,,,,,,,,,,,,,,,,,,,
,608bbdf084f82ffc3da1381d,001,2022-04-28_21h05.54.486,classification_task,2021.2.3,Win32,143.5132032,608bbdf084f82ffc3da1381d,626b377229c10585ec392f89,626b39cf7b0808b54565651d,,,,,,,,,,,,,,,,,,,,,space,17.4776,l,1,7.2722,"[""0.035"",""0.382"",""0.662"",""0.859""]","[1,1,1,0]",0,0,0,0,1,1,0,,,1,FALSE,,,,,,,,,,,,,,,,,,,,,,,,,,,,,,
,608bbdf084f82ffc3da1381d,001,2022-04-28_21h05.54.486,classification_task,2021.2.3,Win32,143.5132032,608bbdf084f82ffc3da1381d,626b377229c10585ec392f89,626b39cf7b0808b54565651d,,,,,,,,,,,,,,,,,,,,,,,a,1,5.6852,"[""0.169"",""0.583"",""0.747"",""0.956""]","[1,0,1,1]",0,1,1,1,1,0,1,,,1,FALSE,,,,,,,,,,,,,,,,,,,,,,,,,,,,,,
,608bbdf084f82ffc3da1381d,001,2022-04-28_21h05.54.486,classification_task,2021.2.3,Win32,143.5132032,608bbdf084f82ffc3da1381d,626b377229c10585ec392f89,626b39cf7b0808b54565651d,,,,,,,,,,,,,,,,,,,,,,,l,1,3.486,"[""0.095"",""0.210"",""0.445"",""0.489""]","[1,1,1,0]",0,2,2,2,1,1,1,,,1,FALSE,,,,,,,,,,,,,,,,,,,,,,,,,,,,,,
,608bbdf084f82ffc3da1381d,001,2022-04-28_21h05.54.486,classification_task,2021.2.3,Win32,143.5132032,608bbdf084f82ffc3da1381d,626b377229c10585ec392f89,626b39cf7b0808b54565651d,,,,,,,,,,,,,,,,,,,,,,,,0,,"[""0.585"",""0.527"",""0.783"",""0.905""]","[0,1,1,1]",0,3,3,3,1,0,0,,,1,FALSE,,,,,,,,,,,,,,,,,,,,,,,,,,,,,,
,608bbdf084f82ffc3da1381d,001,2022-04-28_21h05.54.486,classification_task,2021.2.3,Win32,143.5132032,608bbdf084f82ffc3da1381d,626b377229c10585ec392f89,626b39cf7b0808b54565651d,,,,,,,,,,,,,,,,,,,,,,,a,1,3.6622,"[""0.274"",""0.527"",""0.625"",""0.905""]","[1,1,0,1]",0,4,4,4,1,0,0,,,1,FALSE,,,,,,,,,,,,,,,,,,,,,,,,,,,,,,
,608bbdf084f82ffc3da1381d,001,2022-04-28_21h05.54.486,classification_task,2021.2.3,Win32,143.5132032,608bbdf084f82ffc3da1381d,626b377229c10585ec392f89,626b39cf7b0808b54565651d,,,,,,,,,,,,,,,,,,,,,,,a,1,3.9451,"[""0.854"",""0.342"",""0.747"",""0.956""]","[0,1,1,1]",0,5,5,5,1,0,1,,,1,FALSE,,,,,,,,,,,,,,,,,,,,,,,,,,,,,,
,608bbdf084f82ffc3da1381d,001,2022-04-28_21h05.54.486,classification_task,2021.2.3,Win32,143.5132032,608bbdf084f82ffc3da1381d,626b377229c10585ec392f89,626b39cf7b0808b54565651d,,,,,,,,,,,,,,,,,,,,,,,a,1,2.211,"[""0.169"",""0.342"",""0.583"",""0.956""]","[1,1,0,1]",0,6,6,6,1,0,1,,,1,FALSE,,,,,,,,,,,,,,,,,,,,,,,,,,,,,,
,608bbdf084f82ffc3da1381d,001,2022-04-28_21h05.54.486,classification_task,2021.2.3,Win32,143.5132032,608bbdf084f82ffc3da1381d,626b377229c10585ec392f89,626b39cf7b0808b54565651d,,,,,,,,,,,,,,,,,,,,,,,a,1,1.8757,"[""0.274"",""0.527"",""0.783"",""0.871""]","[1,1,1,0]",0,7,7,7,1,0,0,,,1,FALSE,,,,,,,,,,,,,,,,,,,,,,,,,,,,,,
,608bbdf084f82ffc3da1381d,001,2022-04-28_21h05.54.486,classification_task,2021.2.3,Win32,143.5132032,608bbdf084f82ffc3da1381d,626b377229c10585ec392f89,626b39cf7b0808b54565651d,,,,,,,,,,,,,,,,,,,,,,,l,1,2.139,"[""0.095"",""0.210"",""0.571"",""0.820""]","[1,1,0,1]",0,8,8,8,1,1,1,,,1,FALSE,,,,,,,,,,,,,,,,,,,,,,,,,,,,,,
,608bbdf084f82ffc3da1381d,001,2022-04-28_21h05.54.486,classification_task,2021.2.3,Win32,143.5132032,608bbdf084f82ffc3da1381d,626b377229c10585ec392f89,626b39cf7b0808b54565651d,,,,,,,,,,,,,,,,,,,,,,,l,1,2.4031,"[""0.095"",""0.585"",""0.445"",""0.820""]","[1,0,1,1]",0,9,9,9,1,1,1,,,1,FALSE,,,,,,,,,,,,,,,,,,,,,,,,,,,,,,
,608bbdf084f82ffc3da1381d,001,2022-04-28_21h05.54.486,classification_task,2021.2.3,Win32,143.5132032,608bbdf084f82ffc3da1381d,626b377229c10585ec392f89,626b39cf7b0808b54565651d,,,,,,,,,,,,,,,,,,,,,,,l,1,2.755,"[""0.035"",""0.871"",""0.662"",""0.708""]","[1,0,1,1]",0,10,10,10,1,1,0,,,1,FALSE,,,,,,,,,,,,,,,,,,,,,,,,,,,,,,
,608bbdf084f82ffc3da1381d,001,2022-04-28_21h05.54.486,classification_task,2021.2.3,Win32,143.5132032,608bbdf084f82ffc3da1381d,626b377229c10585ec392f89,626b39cf7b0808b54565651d,,,,,,,,,,,,,,,,,,,,,,,a,1,1.9783,"[""0.169"",""0.342"",""0.747"",""0.871""]","[1,1,1,0]",0,11,11,11,1,0,1,,,1,FALSE,,,,,,,,,,,,,,,,,,,,,,,,,,,,,,
,608bbdf084f82ffc3da1381d,001,2022-04-28_21h05.54.486,classification_task,2021.2.3,Win32,143.5132032,608bbdf084f82ffc3da1381d,626b377229c10585ec392f89,626b39cf7b0808b54565651d,,,,,,,,,,,,,,,,,,,,,,,a,1,5.1461,"[""0.274"",""0.585"",""0.783"",""0.905""]","[1,0,1,1]",0,12,12,12,1,0,0,,,1,FALSE,,,,,,,,,,,,,,,,,,,,,,,,,,,,,,
,608bbdf084f82ffc3da1381d,001,2022-04-28_21h05.54.486,classification_task,2021.2.3,Win32,143.5132032,608bbdf084f82ffc3da1381d,626b377229c10585ec392f89,626b39cf7b0808b54565651d,,,,,,,,,,,,,,,,,,,,,,,a,0,4.1377,"[""0.585"",""0.210"",""0.445"",""0.820""]","[0,1,1,1]",0,13,13,13,1,1,1,,,1,FALSE,,,,,,,,,,,,,,,,,,,,,,,,,,,,,,
,608bbdf084f82ffc3da1381d,001,2022-04-28_21h05.54.486,classification_task,2021.2.3,Win32,143.5132032,608bbdf084f82ffc3da1381d,626b377229c10585ec392f89,626b39cf7b0808b54565651d,,,,,,,,,,,,,,,,,,,,,,,l,1,8.4854,"[""0.602"",""0.382"",""0.662"",""0.708""]","[0,1,1,1]",0,14,14,14,1,1,0,,,1,FALSE,,,,,,,,,,,,,,,,,,,,,,,,,,,,,,
,608bbdf084f82ffc3da1381d,001,2022-04-28_21h05.54.486,classification_task,2021.2.3,Win32,143.5132032,608bbdf084f82ffc3da1381d,626b377229c10585ec392f89,626b39cf7b0808b54565651d,,,,,,,,,,,,,,,,,,,,,,,l,1,5.6529,"[""0.035"",""0.382"",""0.854"",""0.708""]","[1,1,0,1]",0,15,15,15,1,1,0,,,1,FALSE,,,,,,,,,,,,,,,,,,,,,,,,,,,,,,
,608bbdf084f82ffc3da1381d,001,2022-04-28_21h05.54.486,classification_task,2021.2.3,Win32,143.5132032,608bbdf084f82ffc3da1381d,626b377229c10585ec392f89,626b39cf7b0808b54565651d,,,,,,,,,,,,,,,,,,,,,,,a,1,5.1161,"[""0.169"",""0.871"",""0.747"",""0.956""]","[1,0,1,1]",0,16,16,16,1,0,1,,,1,FALSE,,,,,,,,,,,,,,,,,,,,,,,,,,,,,,
,608bbdf084f82ffc3da1381d,001,2022-04-28_21h05.54.486,classification_task,2021.2.3,Win32,143.5132032,608bbdf084f82ffc3da1381d,626b377229c10585ec392f89,626b39cf7b0808b54565651d,,,,,,,,,,,,,,,,,,,,,,,l,1,6.5267,"[""0.035"",""0.382"",""0.867"",""0.708""]","[1,1,0,1]",0,17,17,17,1,1,0,,,1,FALSE,,,,,,,,,,,,,,,,,,,,,,,,,,,,,,
,608bbdf084f82ffc3da1381d,001,2022-04-28_21h05.54.486,classification_task,2021.2.3,Win32,143.5132032,608bbdf084f82ffc3da1381d,626b377229c10585ec392f89,626b39cf7b0808b54565651d,,,,,,,,,,,,,,,,,,,,,,,a,1,7.4959,"[""0.274"",""0.527"",""0.859"",""0.905""]","[1,1,0,1]",0,18,18,18,1,0,0,,,1,FALSE,,,,,,,,,,,,,,,,,,,,,,,,,,,,,,
,608bbdf084f82ffc3da1381d,001,2022-04-28_21h05.54.486,classification_task,2021.2.3,Win32,143.5132032,608bbdf084f82ffc3da1381d,626b377229c10585ec392f89,626b39cf7b0808b54565651d,,,,,,,,,,,,,,,,,,,,,,,l,1,3.6505,"[""0.095"",""0.210"",""0.445"",""0.625""]","[1,1,1,0]",0,19,19,19,1,1,1,,,1,FALSE,,,,,,,,,,,,,,,,,,,,,,,,,,,,,,
,608bbdf084f82ffc3da1381d,001,2022-04-28_21h05.54.486,classification_task,2021.2.3,Win32,143.5132032,608bbdf084f82ffc3da1381d,626b377229c10585ec392f89,626b39cf7b0808b54565651d,,,,,,,,,,,,,,,,,,,,,,,a,1,7.3892,"[""0.169"",""0.342"",""0.747"",""0.487""]","[1,1,1,0]",0,20,20,20,1,0,1,,,1,FALSE,,,,,,,,,,,,,,,,,,,,,,,,,,,,,,
,608bbdf084f82ffc3da1381d,001,2022-04-28_21h05.54.486,classification_task,2021.2.3,Win32,143.5132032,608bbdf084f82ffc3da1381d,626b377229c10585ec392f89,626b39cf7b0808b54565651d,,,,,,,,,,,,,,,,,,,,,,,a,1,8.3107,"[""0.274"",""0.527"",""0.783"",""0.602""]","[1,1,1,0]",0,21,21,21,1,0,0,,,1,FALSE,,,,,,,,,,,,,,,,,,,,,,,,,,,,,,
,608bbdf084f82ffc3da1381d,001,2022-04-28_21h05.54.486,classification_task,2021.2.3,Win32,143.5132032,608bbdf084f82ffc3da1381d,626b377229c10585ec392f89,626b39cf7b0808b54565651d,,,,,,,,,,,,,,,,,,,,,,,l,1,5.8266,"[""0.035"",""0.382"",""0.662"",""0.860""]","[1,1,1,0]",0,22,22,22,1,1,0,,,1,FALSE,,,,,,,,,,,,,,,,,,,,,,,,,,,,,,
,608bbdf084f82ffc3da1381d,001,2022-04-28_21h05.54.486,classification_task,2021.2.3,Win32,143.5132032,608bbdf084f82ffc3da1381d,626b377229c10585ec392f89,626b39cf7b0808b54565651d,,,,,,,,,,,,,,,,,,,,,,,a,1,4.5681,"[""0.871"",""0.527"",""0.783"",""0.905""]","[0,1,1,1]",0,23,23,23,1,0,0,,,1,FALSE,,,,,,,,,,,,,,,,,,,,,,,,,,,,,,
,608bbdf084f82ffc3da1381d,001,2022-04-28_21h05.54.486,classification_task,2021.2.3,Win32,143.5132032,608bbdf084f82ffc3da1381d,626b377229c10585ec392f89,626b39cf7b0808b54565651d,,,,,,,,,,,,,,,,,,,,,,,l,1,4.6182,"[""0.583"",""0.382"",""0.662"",""0.708""]","[0,1,1,1]",0,24,24,24,1,1,0,,,1,FALSE,,,,,,,,,,,,,,,,,,,,,,,,,,,,,,
,608bbdf084f82ffc3da1381d,001,2022-04-28_21h05.54.486,classification_task,2021.2.3,Win32,143.5132032,608bbdf084f82ffc3da1381d,626b377229c10585ec392f89,626b39cf7b0808b54565651d,,,,,,,,,,,,,,,,,,,,,,,l,1,7.1511,"[""0.095"",""0.493"",""0.445"",""0.820""]","[1,0,1,1]",0,25,25,25,1,1,1,,,1,FALSE,,,,,,,,,,,,,,,,,,,,,,,,,,,,,,
,608bbdf084f82ffc3da1381d,001,2022-04-28_21h05.54.486,classification_task,2021.2.3,Win32,143.5132032,608bbdf084f82ffc3da1381d,626b377229c10585ec392f89,626b39cf7b0808b54565651d,,,,,,,,,,,,,,,,,,,,,,,l,0,3.6861,"[""0.489"",""0.342"",""0.747"",""0.956""]","[0,1,1,1]",0,26,26,26,1,0,1,,,1,FALSE,,,,,,,,,,,,,,,,,,,,,,,,,,,,,,
,608bbdf084f82ffc3da1381d,001,2022-04-28_21h05.54.486,classification_task,2021.2.3,Win32,143.5132032,608bbdf084f82ffc3da1381d,626b377229c10585ec392f89,626b39cf7b0808b54565651d,,,,,,,,,,,,,,,,,,,,,,,l,1,5.8266,"[""0.854"",""0.210"",""0.445"",""0.820""]","[0,1,1,1]",0,27,27,27,1,1,1,,,1,FALSE,,,,,,,,,,,,,,,,,,,,,,,,,,,,,,
,608bbdf084f82ffc3da1381d,001,2022-04-28_21h05.54.486,classification_task,2021.2.3,Win32,143.5132032,608bbdf084f82ffc3da1381d,626b377229c10585ec392f89,626b39cf7b0808b54565651d,,,,,,,,,,,,,,,,,,,,,,,l,1,6.4239,"[""0.095"",""0.210"",""0.860"",""0.820""]","[1,1,0,1]",0,28,28,28,1,1,1,,,1,FALSE,,,,,,,,,,,,,,,,,,,,,,,,,,,,,,
,608bbdf084f82ffc3da1381d,001,2022-04-28_21h05.54.486,classification_task,2021.2.3,Win32,143.5132032,608bbdf084f82ffc3da1381d,626b377229c10585ec392f89,626b39cf7b0808b54565651d,,,,,,,,,,,,,,,,,,,,,,,a,1,7.7987,"[""0.169"",""0.342"",""0.583"",""0.956""]","[1,1,0,1]",0,29,29,29,1,0,1,,,1,FALSE,,,,,,,,,,,,,,,,,,,,,,,,,,,,,,
,608bbdf084f82ffc3da1381d,001,2022-04-28_21h05.54.486,classification_task,2021.2.3,Win32,143.5132032,608bbdf084f82ffc3da1381d,626b377229c10585ec392f89,626b39cf7b0808b54565651d,,,,,,,,,,,,,,,,,,,,,,,l,1,7.3274,"[""0.035"",""0.854"",""0.662"",""0.708""]","[1,0,1,1]",0,30,30,30,1,1,0,,,1,FALSE,,,,,,,,,,,,,,,,,,,,,,,,,,,,,,
,608bbdf084f82ffc3da1381d,001,2022-04-28_21h05.54.486,classification_task,2021.2.3,Win32,143.5132032,608bbdf084f82ffc3da1381d,626b377229c10585ec392f89,626b39cf7b0808b54565651d,,,,,,,,,,,,,,,,,,,,,,,a,1,1.8752,"[""0.274"",""0.571"",""0.783"",""0.905""]","[1,0,1,1]",0,31,31,31,1,0,0,,,1,FALSE,,,,,,,,,,,,,,,,,,,,,,,,,,,,,,
,608bbdf084f82ffc3da1381d,001,2022-04-28_21h05.54.486,classification_task,2021.2.3,Win32,143.5132032,608bbdf084f82ffc3da1381d,626b377229c10585ec392f89,626b39cf7b0808b54565651d,,,,,,,,,,,,,,,,,,,,,,,a,0,4.2697,"[""0.095"",""0.210"",""0.854"",""0.820""]","[1,1,0,1]",0,32,32,32,1,1,1,,,1,FALSE,,,,,,,,,,,,,,,,,,,,,,,,,,,,,,
,608bbdf084f82ffc3da1381d,001,2022-04-28_21h05.54.486,classification_task,2021.2.3,Win32,143.5132032,608bbdf084f82ffc3da1381d,626b377229c10585ec392f89,626b39cf7b0808b54565651d,,,,,,,,,,,,,,,,,,,,,,,a,0,3.6322,"[""0.095"",""0.585"",""0.445"",""0.820""]","[1,0,1,1]",0,33,33,33,1,1,1,,,1,FALSE,,,,,,,,,,,,,,,,,,,,,,,,,,,,,,
,608bbdf084f82ffc3da1381d,001,2022-04-28_21h05.54.486,classification_task,2021.2.3,Win32,143.5132032,608bbdf084f82ffc3da1381d,626b377229c10585ec392f89,626b39cf7b0808b54565651d,,,,,,,,,,,,,,,,,,,,,,,l,1,1.9811,"[""0.493"",""0.382"",""0.662"",""0.708""]","[0,1,1,1]",0,34,34,34,1,1,0,,,1,FALSE,,,,,,,,,,,,,,,,,,,,,,,,,,,,,,
,608bbdf084f82ffc3da1381d,001,2022-04-28_21h05.54.486,classification_task,2021.2.3,Win32,143.5132032,608bbdf084f82ffc3da1381d,626b377229c10585ec392f89,626b39cf7b0808b54565651d,,,,,,,,,,,,,,,,,,,,,,,a,0,1.7226,"[""0.035"",""0.382"",""0.662"",""0.871""]","[1,1,1,0]",0,35,35,35,1,1,0,,,1,FALSE,,,,,,,,,,,,,,,,,,,,,,,,,,,,,,
,608bbdf084f82ffc3da1381d,001,2022-04-28_21h05.54.486,classification_task,2021.2.3,Win32,143.5132032,608bbdf084f82ffc3da1381d,626b377229c10585ec392f89,626b39cf7b0808b54565651d,,,,,,,,,,,,,,,,,,,,,,,l,1,1.424,"[""0.035"",""0.382"",""0.493"",""0.708""]","[1,1,0,1]",0,36,36,36,1,1,0,,,1,FALSE,,,,,,,,,,,,,,,,,,,,,,,,,,,,,,
,608bbdf084f82ffc3da1381d,001,2022-04-28_21h05.54.486,classification_task,2021.2.3,Win32,143.5132032,608bbdf084f82ffc3da1381d,626b377229c10585ec392f89,626b39cf7b0808b54565651d,,,,,,,,,,,,,,,,,,,,,,,l,1,0.9934,"[""0.095"",""0.210"",""0.445"",""0.585""]","[1,1,1,0]",0,37,37,37,1,1,1,,,1,FALSE,,,,,,,,,,,,,,,,,,,,,,,,,,,,,,
,608bbdf084f82ffc3da1381d,001,2022-04-28_21h05.54.486,classification_task,2021.2.3,Win32,143.5132032,608bbdf084f82ffc3da1381d,626b377229c10585ec392f89,626b39cf7b0808b54565651d,,,,,,,,,,,,,,,,,,,,,,,a,1,0.9308,"[""0.274"",""0.527"",""0.783"",""0.487""]","[1,1,1,0]",0,38,38,38,1,0,0,,,1,FALSE,,,,,,,,,,,,,,,,,,,,,,,,,,,,,,
,608bbdf084f82ffc3da1381d,001,2022-04-28_21h05.54.486,classification_task,2021.2.3,Win32,143.5132032,608bbdf084f82ffc3da1381d,626b377229c10585ec392f89,626b39cf7b0808b54565651d,,,,,,,,,,,,,,,,,,,,,,,l,0,0.8982,"[""0.867"",""0.342"",""0.747"",""0.956""]","[0,1,1,1]",0,39,39,39,1,0,1,,,1,FALSE,,,,,,,,,,,,,,,,,,,,,,,,,,,,,,
,608bbdf084f82ffc3da1381d,001,2022-04-28_21h05.54.486,classification_task,2021.2.3,Win32,143.5132032,608bbdf084f82ffc3da1381d,626b377229c10585ec392f89,626b39cf7b0808b54565651d,,,,,,,,,,,,,,,,,,,,,,,l,0,1.1084,"[""0.867"",""0.527"",""0.783"",""0.905""]","[0,1,1,1]",0,40,40,40,1,0,0,,,1,FALSE,,,,,,,,,,,,,,,,,,,,,,,,,,,,,,
,608bbdf084f82ffc3da1381d,001,2022-04-28_21h05.54.486,classification_task,2021.2.3,Win32,143.5132032,608bbdf084f82ffc3da1381d,626b377229c10585ec392f89,626b39cf7b0808b54565651d,,,,,,,,,,,,,,,,,,,,,,,a,0,0.6879,"[""0.859"",""0.210"",""0.445"",""0.820""]","[0,1,1,1]",0,41,41,41,1,1,1,,,1,FALSE,,,,,,,,,,,,,,,,,,,,,,,,,,,,,,
,608bbdf084f82ffc3da1381d,001,2022-04-28_21h05.54.486,classification_task,2021.2.3,Win32,143.5132032,608bbdf084f82ffc3da1381d,626b377229c10585ec392f89,626b39cf7b0808b54565651d,,,,,,,,,,,,,,,,,,,,,,,a,1,0.653,"[""0.274"",""0.854"",""0.783"",""0.905""]","[1,0,1,1]",0,42,42,42,1,0,0,,,1,FALSE,,,,,,,,,,,,,,,,,,,,,,,,,,,,,,
,608bbdf084f82ffc3da1381d,001,2022-04-28_21h05.54.486,classification_task,2021.2.3,Win32,143.5132032,608bbdf084f82ffc3da1381d,626b377229c10585ec392f89,626b39cf7b0808b54565651d,,,,,,,,,,,,,,,,,,,,,,,l,1,0.6321,"[""0.035"",""0.859"",""0.662"",""0.708""]","[1,0,1,1]",0,43,43,43,1,1,0,,,1,FALSE,,,,,,,,,,,,,,,,,,,,,,,,,,,,,,
,608bbdf084f82ffc3da1381d,001,2022-04-28_21h05.54.486,classification_task,2021.2.3,Win32,143.5132032,608bbdf084f82ffc3da1381d,626b377229c10585ec392f89,626b39cf7b0808b54565651d,,,,,,,,,,,,,,,,,,,,,,,l,0,3.7014,"[""0.169"",""0.602"",""0.747"",""0.956""]","[1,0,1,1]",0,44,44,44,1,0,1,,,1,FALSE,,,,,,,,,,,,,,,,,,,,,,,,,,,,,,
,608bbdf084f82ffc3da1381d,001,2022-04-28_21h05.54.486,classification_task,2021.2.3,Win32,143.5132032,608bbdf084f82ffc3da1381d,626b377229c10585ec392f89,626b39cf7b0808b54565651d,,,,,,,,,,,,,,,,,,,,,,,l,0,1.1252,"[""0.274"",""0.527"",""0.493"",""0.905""]","[1,1,0,1]",0,45,45,45,1,0,0,,,1,FALSE,,,,,,,,,,,,,,,,,,,,,,,,,,,,,,
,608bbdf084f82ffc3da1381d,001,2022-04-28_21h05.54.486,classification_task,2021.2.3,Win32,143.5132032,608bbdf084f82ffc3da1381d,626b377229c10585ec392f89,626b39cf7b0808b54565651d,,,,,,,,,,,,,,,,,,,,,,,a,1,0.816,"[""0.169"",""0.342"",""0.571"",""0.956""]","[1,1,0,1]",0,46,46,46,1,0,1,,,1,FALSE,,,,,,,,,,,,,,,,,,,,,,,,,,,,,,
,608bbdf084f82ffc3da1381d,001,2022-04-28_21h05.54.486,classification_task,2021.2.3,Win32,143.5132032,608bbdf084f82ffc3da1381d,626b377229c10585ec392f89,626b39cf7b0808b54565651d,,,,,,,,,,,,,,,,,,,,,,,a,1,1.313,"[""0.169"",""0.342"",""0.747"",""0.854""]","[1,1,1,0]",0,47,47,47,1,0,1,,,1,FALSE,,,,,,,,,,,,,,,,,,,,,,,,,,,,,,
,608bbdf084f82ffc3da1381d,001,2022-04-28_21h05.54.486,classification_task,2021.2.3,Win32,143.5132032,608bbdf084f82ffc3da1381d,626b377229c10585ec392f89,626b39cf7b0808b54565651d,,,,,,,,,,,,,,,,,,,,,,,l,1,0.8407,"[""0.602"",""0.382"",""0.662"",""0.708""]","[0,1,1,1]",0,48,48,48,1,1,0,,,1,FALSE,,,,,,,,,,,,,,,,,,,,,,,,,,,,,,
,608bbdf084f82ffc3da1381d,001,2022-04-28_21h05.54.486,classification_task,2021.2.3,Win32,143.5132032,608bbdf084f82ffc3da1381d,626b377229c10585ec392f89,626b39cf7b0808b54565651d,,,,,,,,,,,,,,,,,,,,,,,l,1,1.1739,"[""0.035"",""0.382"",""0.662"",""0.860""]","[1,1,1,0]",0,49,49,49,1,1,0,,,1,FALSE,,,,,,,,,,,,,,,,,,,,,,,,,,,,,,
,608bbdf084f82ffc3da1381d,001,2022-04-28_21h05.54.486,classification_task,2021.2.3,Win32,143.5132032,608bbdf084f82ffc3da1381d,626b377229c10585ec392f89,626b39cf7b0808b54565651d,,,,,,,,,,,,,,,,,,,,,,,l,0,0.8517,"[""0.274"",""0.527"",""0.783"",""0.571""]","[1,1,1,0]",0,50,50,50,1,0,0,,,1,FALSE,,,,,,,,,,,,,,,,,,,,,,,,,,,,,,
,608bbdf084f82ffc3da1381d,001,2022-04-28_21h05.54.486,classification_task,2021.2.3,Win32,143.5132032,608bbdf084f82ffc3da1381d,626b377229c10585ec392f89,626b39cf7b0808b54565651d,,,,,,,,,,,,,,,,,,,,,,,a,1,0.8126,"[""0.169"",""0.342"",""0.747"",""0.487""]","[1,1,1,0]",0,51,51,51,1,0,1,,,1,FALSE,,,,,,,,,,,,,,,,,,,,,,,,,,,,,,
,608bbdf084f82ffc3da1381d,001,2022-04-28_21h05.54.486,classification_task,2021.2.3,Win32,143.5132032,608bbdf084f82ffc3da1381d,626b377229c10585ec392f89,626b39cf7b0808b54565651d,,,,,,,,,,,,,,,,,,,,,,,l,0,1.542,"[""0.169"",""0.871"",""0.747"",""0.956""]","[1,0,1,1]",0,52,52,52,1,0,1,,,1,FALSE,,,,,,,,,,,,,,,,,,,,,,,,,,,,,,
,608bbdf084f82ffc3da1381d,001,2022-04-28_21h05.54.486,classification_task,2021.2.3,Win32,143.5132032,608bbdf084f82ffc3da1381d,626b377229c10585ec392f89,626b39cf7b0808b54565651d,,,,,,,,,,,,,,,,,,,,,,,a,0,1.0073,"[""0.095"",""0.860"",""0.445"",""0.820""]","[1,0,1,1]",0,53,53,53,1,1,1,,,1,FALSE,,,,,,,,,,,,,,,,,,,,,,,,,,,,,,
,608bbdf084f82ffc3da1381d,001,2022-04-28_21h05.54.486,classification_task,2021.2.3,Win32,143.5132032,608bbdf084f82ffc3da1381d,626b377229c10585ec392f89,626b39cf7b0808b54565651d,,,,,,,,,,,,,,,,,,,,,,,l,0,0.8198,"[""0.625"",""0.527"",""0.783"",""0.905""]","[0,1,1,1]",0,54,54,54,1,0,0,,,1,FALSE,,,,,,,,,,,,,,,,,,,,,,,,,,,,,,
,608bbdf084f82ffc3da1381d,001,2022-04-28_21h05.54.486,classification_task,2021.2.3,Win32,143.5132032,608bbdf084f82ffc3da1381d,626b377229c10585ec392f89,626b39cf7b0808b54565651d,,,,,,,,,,,,,,,,,,,,,,,l,1,0.4238,"[""0.095"",""0.210"",""0.854"",""0.820""]","[1,1,0,1]",0,55,55,55,1,1,1,,,1,FALSE,,,,,,,,,,,,,,,,,,,,,,,,,,,,,,
,608bbdf084f82ffc3da1381d,001,2022-04-28_21h05.54.486,classification_task,2021.2.3,Win32,143.5132032,608bbdf084f82ffc3da1381d,626b377229c10585ec392f89,626b39cf7b0808b54565651d,,,,,,,,,,,,,,,,,,,,,,,l,0,0.2156,"[""0.169"",""0.342"",""0.487"",""0.956""]","[1,1,0,1]",0,56,56,56,1,0,1,,,1,FALSE,,,,,,,,,,,,,,,,,,,,,,,,,,,,,,
,608bbdf084f82ffc3da1381d,001,2022-04-28_21h05.54.486,classification_task,2021.2.3,Win32,143.5132032,608bbdf084f82ffc3da1381d,626b377229c10585ec392f89,626b39cf7b0808b54565651d,,,,,,,,,,,,,,,,,,,,,,,a,0,0.2483,"[""0.860"",""0.210"",""0.445"",""0.820""]","[0,1,1,1]",0,57,57,57,1,1,1,,,1,FALSE,,,,,,,,,,,,,,,,,,,,,,,,,,,,,,
,608bbdf084f82ffc3da1381d,001,2022-04-28_21h05.54.486,classification_task,2021.2.3,Win32,143.5132032,608bbdf084f82ffc3da1381d,626b377229c10585ec392f89,626b39cf7b0808b54565651d,,,,,,,,,,,,,,,,,,,,,,,l,1,0.2155,"[""0.035"",""0.382"",""0.602"",""0.708""]","[1,1,0,1]",0,58,58,58,1,1,0,,,1,FALSE,,,,,,,,,,,,,,,,,,,,,,,,,,,,,,
,608bbdf084f82ffc3da1381d,001,2022-04-28_21h05.54.486,classification_task,2021.2.3,Win32,143.5132032,608bbdf084f82ffc3da1381d,626b377229c10585ec392f89,626b39cf7b0808b54565651d,,,,,,,,,,,,,,,,,,,,,,,l,0,0.8894,"[""0.274"",""0.527"",""0.854"",""0.905""]","[1,1,0,1]",0,59,59,59,1,0,0,,,1,FALSE,,,,,,,,,,,,,,,,,,,,,,,,,,,,,,
,608bbdf084f82ffc3da1381d,001,2022-04-28_21h05.54.486,classification_task,2021.2.3,Win32,143.5132032,608bbdf084f82ffc3da1381d,626b377229c10585ec392f89,626b39cf7b0808b54565651d,,,,,,,,,,,,,,,,,,,,,,,l,0,0.2293,"[""0.274"",""0.854"",""0.783"",""0.905""]","[1,0,1,1]",0,60,60,60,1,0,0,,,1,FALSE,,,,,,,,,,,,,,,,,,,,,,,,,,,,,,
,608bbdf084f82ffc3da1381d,001,2022-04-28_21h05.54.486,classification_task,2021.2.3,Win32,143.5132032,608bbdf084f82ffc3da1381d,626b377229c10585ec392f89,626b39cf7b0808b54565651d,,,,,,,,,,,,,,,,,,,,,,,l,1,0.2502,"[""0.095"",""0.210"",""0.445"",""0.860""]","[1,1,1,0]",0,61,61,61,1,1,1,,,1,FALSE,,,,,,,,,,,,,,,,,,,,,,,,,,,,,,
,608bbdf084f82ffc3da1381d,001,2022-04-28_21h05.54.486,classification_task,2021.2.3,Win32,143.5132032,608bbdf084f82ffc3da1381d,626b377229c10585ec392f89,626b39cf7b0808b54565651d,,,,,,,,,,,,,,,,,,,,,,,l,0,0.5072,"[""0.854"",""0.342"",""0.747"",""0.956""]","[0,1,1,1]",0,62,62,62,1,0,1,,,1,FALSE,,,,,,,,,,,,,,,,,,,,,,,,,,,,,,
,608bbdf084f82ffc3da1381d,001,2022-04-28_21h05.54.486,classification_task,2021.2.3,Win32,143.5132032,608bbdf084f82ffc3da1381d,626b377229c10585ec392f89,626b39cf7b0808b54565651d,,,,,,,,,,,,,,,,,,,,,,,l,1,0.521,"[""0.035"",""0.867"",""0.662"",""0.708""]","[1,0,1,1]",0,63,63,63,1,1,0,,,1,FALSE,,,,,,,,,,,,,,,,,,,,,,,,,,,,,,
,608bbdf084f82ffc3da1381d,001,2022-04-28_21h05.54.486,classification_task,2021.2.3,Win32,143.5132032,608bbdf084f82ffc3da1381d,626b377229c10585ec392f89,626b39cf7b0808b54565651d,,,,,,,,,,,,,,,,,,,,,,,,,,,,,,,,,,,,,,,0, ,,0,0,449.9016,0,0,0,0,1,2,1,,,,,,,,,,,,,,,,,
,608bbdf084f82ffc3da1381d,001,2022-04-28_21h05.54.486,classification_task,2021.2.3,Win32,143.5132032,608bbdf084f82ffc3da1381d,626b377229c10585ec392f89,626b39cf7b0808b54565651d,,,,,,,,,,,,,,,,,,,,,,,,,,,,,,,,,,,,,,,1,  ,,0,2.844405252,457.6538,0,0,0,0,1,2,1,,,,,,,,,,,,,,,,,
,608bbdf084f82ffc3da1381d,001,2022-04-28_21h05.54.486,classification_task,2021.2.3,Win32,143.5132032,608bbdf084f82ffc3da1381d,626b377229c10585ec392f89,626b39cf7b0808b54565651d,,,,,,,,,,,,,,,,,,,,,,,,,,,,,,,,,,,,,,,2,  ,,0,4.975504605,463.6686,0,0,0,0,1,2,1,,,,,,,,,,,,,,,,,
,608bbdf084f82ffc3da1381d,001,2022-04-28_21h05.54.486,classification_task,2021.2.3,Win32,143.5132032,608bbdf084f82ffc3da1381d,626b377229c10585ec392f89,626b39cf7b0808b54565651d,,,,,,,,,,,,,,,,,,,,,,,,,,,,,,,,,,,,,,,,,,,,,0,0,0,0,1,,1,,,,,,,,,,,,,,,,,
,608bbdf084f82ffc3da1381d,001,2022-04-28_21h05.54.486,classification_task,2021.2.3,Win32,143.5132032,608bbdf084f82ffc3da1381d,626b377229c10585ec392f89,626b39cf7b0808b54565651d,,,,,,,,,,,,,,,,,,,,,space,11.6276,a,1,5.1006,"[""0.867"",""0.527"",""0.783"",""0.905""]","[0,1,1,1]",0,0,0,0,1,0,0,,,1,FALSE,,,,,,,,,,,,,,,,,,,,,,,,,,,,,,
,608bbdf084f82ffc3da1381d,001,2022-04-28_21h05.54.486,classification_task,2021.2.3,Win32,143.5132032,608bbdf084f82ffc3da1381d,626b377229c10585ec392f89,626b39cf7b0808b54565651d,,,,,,,,,,,,,,,,,,,,,,,l,0,3.0003,"[""0.274"",""0.527"",""0.595"",""0.905""]","[1,1,0,1]",0,1,1,1,1,0,0,,,1,FALSE,,,,,,,,,,,,,,,,,,,,,,,,,,,,,,
,608bbdf084f82ffc3da1381d,001,2022-04-28_21h05.54.486,classification_task,2021.2.3,Win32,143.5132032,608bbdf084f82ffc3da1381d,626b377229c10585ec392f89,626b39cf7b0808b54565651d,,,,,,,,,,,,,,,,,,,,,,,a,1,3.9635,"[""0.859"",""0.342"",""0.747"",""0.956""]","[0,1,1,1]",0,2,2,2,1,0,1,,,1,FALSE,,,,,,,,,,,,,,,,,,,,,,,,,,,,,,
,608bbdf084f82ffc3da1381d,001,2022-04-28_21h05.54.486,classification_task,2021.2.3,Win32,143.5132032,608bbdf084f82ffc3da1381d,626b377229c10585ec392f89,626b39cf7b0808b54565651d,,,,,,,,,,,,,,,,,,,,,,,a,1,2.7063,"[""0.169"",""0.342"",""0.747"",""0.871""]","[1,1,1,0]",0,3,3,3,1,0,1,,,1,FALSE,,,,,,,,,,,,,,,,,,,,,,,,,,,,,,
,608bbdf084f82ffc3da1381d,001,2022-04-28_21h05.54.486,classification_task,2021.2.3,Win32,143.5132032,608bbdf084f82ffc3da1381d,626b377229c10585ec392f89,626b39cf7b0808b54565651d,,,,,,,,,,,,,,,,,,,,,,,a,0,2.2088,"[""0.035"",""0.382"",""0.489"",""0.708""]","[1,1,0,1]",0,4,4,4,1,1,0,,,1,FALSE,,,,,,,,,,,,,,,,,,,,,,,,,,,,,,
,608bbdf084f82ffc3da1381d,001,2022-04-28_21h05.54.486,classification_task,2021.2.3,Win32,143.5132032,608bbdf084f82ffc3da1381d,626b377229c10585ec392f89,626b39cf7b0808b54565651d,,,,,,,,,,,,,,,,,,,,,,,a,0,1.0212,"[""0.035"",""0.585"",""0.662"",""0.708""]","[1,0,1,1]",0,5,5,5,1,1,0,,,1,FALSE,,,,,,,,,,,,,,,,,,,,,,,,,,,,,,
,608bbdf084f82ffc3da1381d,001,2022-04-28_21h05.54.486,classification_task,2021.2.3,Win32,143.5132032,608bbdf084f82ffc3da1381d,626b377229c10585ec392f89,626b39cf7b0808b54565651d,,,,,,,,,,,,,,,,,,,,,,,l,0,1.035,"[""0.274"",""0.527"",""0.783"",""0.860""]","[1,1,1,0]",0,6,6,6,1,0,0,,,1,FALSE,,,,,,,,,,,,,,,,,,,,,,,,,,,,,,
,608bbdf084f82ffc3da1381d,001,2022-04-28_21h05.54.486,classification_task,2021.2.3,Win32,143.5132032,608bbdf084f82ffc3da1381d,626b377229c10585ec392f89,626b39cf7b0808b54565651d,,,,,,,,,,,,,,,,,,,,,,,l,0,0.6285,"[""0.274"",""0.859"",""0.783"",""0.905""]","[1,0,1,1]",0,7,7,7,1,0,0,,,1,FALSE,,,,,,,,,,,,,,,,,,,,,,,,,,,,,,
,608bbdf084f82ffc3da1381d,001,2022-04-28_21h05.54.486,classification_task,2021.2.3,Win32,143.5132032,608bbdf084f82ffc3da1381d,626b377229c10585ec392f89,626b39cf7b0808b54565651d,,,,,,,,,,,,,,,,,,,,,,,l,1,0.5905,"[""0.035"",""0.382"",""0.662"",""0.571""]","[1,1,1,0]",0,8,8,8,1,1,0,,,1,FALSE,,,,,,,,,,,,,,,,,,,,,,,,,,,,,,
,608bbdf084f82ffc3da1381d,001,2022-04-28_21h05.54.486,classification_task,2021.2.3,Win32,143.5132032,608bbdf084f82ffc3da1381d,626b377229c10585ec392f89,626b39cf7b0808b54565651d,,,,,,,,,,,,,,,,,,,,,,,l,1,0.9124,"[""0.095"",""0.210"",""0.445"",""0.860""]","[1,1,1,0]",0,9,9,9,1,1,1,,,1,FALSE,,,,,,,,,,,,,,,,,,,,,,,,,,,,,,
,608bbdf084f82ffc3da1381d,001,2022-04-28_21h05.54.486,classification_task,2021.2.3,Win32,143.5132032,608bbdf084f82ffc3da1381d,626b377229c10585ec392f89,626b39cf7b0808b54565651d,,,,,,,,,,,,,,,,,,,,,,,a,1,0.5627,"[""0.169"",""0.342"",""0.860"",""0.956""]","[1,1,0,1]",0,10,10,10,1,0,1,,,1,FALSE,,,,,,,,,,,,,,,,,,,,,,,,,,,,,,
,608bbdf084f82ffc3da1381d,001,2022-04-28_21h05.54.486,classification_task,2021.2.3,Win32,143.5132032,608bbdf084f82ffc3da1381d,626b377229c10585ec392f89,626b39cf7b0808b54565651d,,,,,,,,,,,,,,,,,,,,,,,a,1,0.4655,"[""0.169"",""0.583"",""0.747"",""0.956""]","[1,0,1,1]",0,11,11,11,1,0,1,,,1,FALSE,,,,,,,,,,,,,,,,,,,,,,,,,,,,,,
,608bbdf084f82ffc3da1381d,001,2022-04-28_21h05.54.486,classification_task,2021.2.3,Win32,143.5132032,608bbdf084f82ffc3da1381d,626b377229c10585ec392f89,626b39cf7b0808b54565651d,,,,,,,,,,,,,,,,,,,,,,,a,0,1.0281,"[""0.867"",""0.382"",""0.662"",""0.708""]","[0,1,1,1]",0,12,12,12,1,1,0,,,1,FALSE,,,,,,,,,,,,,,,,,,,,,,,,,,,,,,
,608bbdf084f82ffc3da1381d,001,2022-04-28_21h05.54.486,classification_task,2021.2.3,Win32,143.5132032,608bbdf084f82ffc3da1381d,626b377229c10585ec392f89,626b39cf7b0808b54565651d,,,,,,,,,,,,,,,,,,,,,,,l,1,0.6461,"[""0.854"",""0.210"",""0.445"",""0.820""]","[0,1,1,1]",0,13,13,13,1,1,1,,,1,FALSE,,,,,,,,,,,,,,,,,,,,,,,,,,,,,,
,608bbdf084f82ffc3da1381d,001,2022-04-28_21h05.54.486,classification_task,2021.2.3,Win32,143.5132032,608bbdf084f82ffc3da1381d,626b377229c10585ec392f89,626b39cf7b0808b54565651d,,,,,,,,,,,,,,,,,,,,,,,l,1,0.41,"[""0.095"",""0.210"",""0.487"",""0.820""]","[1,1,0,1]",0,14,14,14,1,1,1,,,1,FALSE,,,,,,,,,,,,,,,,,,,,,,,,,,,,,,
,608bbdf084f82ffc3da1381d,001,2022-04-28_21h05.54.486,classification_task,2021.2.3,Win32,143.5132032,608bbdf084f82ffc3da1381d,626b377229c10585ec392f89,626b39cf7b0808b54565651d,,,,,,,,,,,,,,,,,,,,,,,l,1,0.4169,"[""0.095"",""0.854"",""0.445"",""0.820""]","[1,0,1,1]",0,15,15,15,1,1,1,,,1,FALSE,,,,,,,,,,,,,,,,,,,,,,,,,,,,,,
,608bbdf084f82ffc3da1381d,001,2022-04-28_21h05.54.486,classification_task,2021.2.3,Win32,143.5132032,608bbdf084f82ffc3da1381d,626b377229c10585ec392f89,626b39cf7b0808b54565651d,,,,,,,,,,,,,,,,,,,,,,,l,0,0.7918,"[""0.274"",""0.527"",""0.783"",""0.854""]","[1,1,1,0]",0,16,16,16,1,0,0,,,1,FALSE,,,,,,,,,,,,,,,,,,,,,,,,,,,,,,
,608bbdf084f82ffc3da1381d,001,2022-04-28_21h05.54.486,classification_task,2021.2.3,Win32,143.5132032,608bbdf084f82ffc3da1381d,626b377229c10585ec392f89,626b39cf7b0808b54565651d,,,,,,,,,,,,,,,,,,,,,,,l,1,0.5796,"[""0.854"",""0.210"",""0.445"",""0.820""]","[0,1,1,1]",0,17,17,17,1,1,1,,,1,FALSE,,,,,,,,,,,,,,,,,,,,,,,,,,,,,,
,608bbdf084f82ffc3da1381d,001,2022-04-28_21h05.54.486,classification_task,2021.2.3,Win32,143.5132032,608bbdf084f82ffc3da1381d,626b377229c10585ec392f89,626b39cf7b0808b54565651d,,,,,,,,,,,,,,,,,,,,,,,a,0,1.0409,"[""0.035"",""0.493"",""0.662"",""0.708""]","[1,0,1,1]",0,18,18,18,1,1,0,,,1,FALSE,,,,,,,,,,,,,,,,,,,,,,,,,,,,,,
,608bbdf084f82ffc3da1381d,001,2022-04-28_21h05.54.486,classification_task,2021.2.3,Win32,143.5132032,608bbdf084f82ffc3da1381d,626b377229c10585ec392f89,626b39cf7b0808b54565651d,,,,,,,,,,,,,,,,,,,,,,,l,1,1.2311,"[""0.035"",""0.382"",""0.662"",""0.595""]","[1,1,1,0]",0,19,19,19,1,1,0,,,1,FALSE,,,,,,,,,,,,,,,,,,,,,,,,,,,,,,
,608bbdf084f82ffc3da1381d,001,2022-04-28_21h05.54.486,classification_task,2021.2.3,Win32,143.5132032,608bbdf084f82ffc3da1381d,626b377229c10585ec392f89,626b39cf7b0808b54565651d,,,,,,,,,,,,,,,,,,,,,,,l,0,0.7921,"[""0.585"",""0.527"",""0.783"",""0.905""]","[0,1,1,1]",0,20,20,20,1,0,0,,,1,FALSE,,,,,,,,,,,,,,,,,,,,,,,,,,,,,,
,608bbdf084f82ffc3da1381d,001,2022-04-28_21h05.54.486,classification_task,2021.2.3,Win32,143.5132032,608bbdf084f82ffc3da1381d,626b377229c10585ec392f89,626b39cf7b0808b54565651d,,,,,,,,,,,,,,,,,,,,,,,a,1,0.8993,"[""0.169"",""0.342"",""0.860"",""0.956""]","[1,1,0,1]",0,21,21,21,1,0,1,,,1,FALSE,,,,,,,,,,,,,,,,,,,,,,,,,,,,,,
,608bbdf084f82ffc3da1381d,001,2022-04-28_21h05.54.486,classification_task,2021.2.3,Win32,143.5132032,608bbdf084f82ffc3da1381d,626b377229c10585ec392f89,626b39cf7b0808b54565651d,,,,,,,,,,,,,,,,,,,,,,,l,1,1.5418,"[""0.095"",""0.210"",""0.859"",""0.820""]","[1,1,0,1]",0,22,22,22,1,1,1,,,1,FALSE,,,,,,,,,,,,,,,,,,,,,,,,,,,,,,
,608bbdf084f82ffc3da1381d,001,2022-04-28_21h05.54.486,classification_task,2021.2.3,Win32,143.5132032,608bbdf084f82ffc3da1381d,626b377229c10585ec392f89,626b39cf7b0808b54565651d,,,,,,,,,,,,,,,,,,,,,,,l,0,1.507,"[""0.274"",""0.527"",""0.854"",""0.905""]","[1,1,0,1]",0,23,23,23,1,0,0,,,1,FALSE,,,,,,,,,,,,,,,,,,,,,,,,,,,,,,
,608bbdf084f82ffc3da1381d,001,2022-04-28_21h05.54.486,classification_task,2021.2.3,Win32,143.5132032,608bbdf084f82ffc3da1381d,626b377229c10585ec392f89,626b39cf7b0808b54565651d,,,,,,,,,,,,,,,,,,,,,,,a,1,0.8406,"[""0.169"",""0.859"",""0.747"",""0.956""]","[1,0,1,1]",0,24,24,24,1,0,1,,,1,FALSE,,,,,,,,,,,,,,,,,,,,,,,,,,,,,,
,608bbdf084f82ffc3da1381d,001,2022-04-28_21h05.54.486,classification_task,2021.2.3,Win32,143.5132032,608bbdf084f82ffc3da1381d,626b377229c10585ec392f89,626b39cf7b0808b54565651d,,,,,,,,,,,,,,,,,,,,,,,a,1,0.8199,"[""0.169"",""0.342"",""0.747"",""0.493""]","[1,1,1,0]",0,25,25,25,1,0,1,,,1,FALSE,,,,,,,,,,,,,,,,,,,,,,,,,,,,,,
,608bbdf084f82ffc3da1381d,001,2022-04-28_21h05.54.486,classification_task,2021.2.3,Win32,143.5132032,608bbdf084f82ffc3da1381d,626b377229c10585ec392f89,626b39cf7b0808b54565651d,,,,,,,,,,,,,,,,,,,,,,,l,1,0.4622,"[""0.095"",""0.210"",""0.445"",""0.487""]","[1,1,1,0]",0,26,26,26,1,1,1,,,1,FALSE,,,,,,,,,,,,,,,,,,,,,,,,,,,,,,
,608bbdf084f82ffc3da1381d,001,2022-04-28_21h05.54.486,classification_task,2021.2.3,Win32,143.5132032,608bbdf084f82ffc3da1381d,626b377229c10585ec392f89,626b39cf7b0808b54565651d,,,,,,,,,,,,,,,,,,,,,,,a,1,0.5001,"[""0.871"",""0.342"",""0.747"",""0.956""]","[0,1,1,1]",0,27,27,27,1,0,1,,,1,FALSE,,,,,,,,,,,,,,,,,,,,,,,,,,,,,,
,608bbdf084f82ffc3da1381d,001,2022-04-28_21h05.54.486,classification_task,2021.2.3,Win32,143.5132032,608bbdf084f82ffc3da1381d,626b377229c10585ec392f89,626b39cf7b0808b54565651d,,,,,,,,,,,,,,,,,,,,,,,a,1,1.0622,"[""0.274"",""0.625"",""0.783"",""0.905""]","[1,0,1,1]",0,28,28,28,1,0,0,,,1,FALSE,,,,,,,,,,,,,,,,,,,,,,,,,,,,,,
,608bbdf084f82ffc3da1381d,001,2022-04-28_21h05.54.486,classification_task,2021.2.3,Win32,143.5132032,608bbdf084f82ffc3da1381d,626b377229c10585ec392f89,626b39cf7b0808b54565651d,,,,,,,,,,,,,,,,,,,,,,,l,1,1.2295,"[""0.095"",""0.487"",""0.445"",""0.820""]","[1,0,1,1]",0,29,29,29,1,1,1,,,1,FALSE,,,,,,,,,,,,,,,,,,,,,,,,,,,,,,
,608bbdf084f82ffc3da1381d,001,2022-04-28_21h05.54.486,classification_task,2021.2.3,Win32,143.5132032,608bbdf084f82ffc3da1381d,626b377229c10585ec392f89,626b39cf7b0808b54565651d,,,,,,,,,,,,,,,,,,,,,,,a,0,1.4366,"[""0.035"",""0.382"",""0.602"",""0.708""]","[1,1,0,1]",0,30,30,30,1,1,0,,,1,FALSE,,,,,,,,,,,,,,,,,,,,,,,,,,,,,,
,608bbdf084f82ffc3da1381d,001,2022-04-28_21h05.54.486,classification_task,2021.2.3,Win32,143.5132032,608bbdf084f82ffc3da1381d,626b377229c10585ec392f89,626b39cf7b0808b54565651d,,,,,,,,,,,,,,,,,,,,,,,a,0,1.273,"[""0.487"",""0.382"",""0.662"",""0.708""]","[0,1,1,1]",0,31,31,31,1,1,0,,,1,FALSE,,,,,,,,,,,,,,,,,,,,,,,,,,,,,,
,608bbdf084f82ffc3da1381d,001,2022-04-28_21h05.54.486,classification_task,2021.2.3,Win32,143.5132032,608bbdf084f82ffc3da1381d,626b377229c10585ec392f89,626b39cf7b0808b54565651d,,,,,,,,,,,,,,,,,,,,,,,a,0,0.6682,"[""0.035"",""0.571"",""0.662"",""0.708""]","[1,0,1,1]",0,32,32,32,1,1,0,,,1,FALSE,,,,,,,,,,,,,,,,,,,,,,,,,,,,,,
,608bbdf084f82ffc3da1381d,001,2022-04-28_21h05.54.486,classification_task,2021.2.3,Win32,143.5132032,608bbdf084f82ffc3da1381d,626b377229c10585ec392f89,626b39cf7b0808b54565651d,,,,,,,,,,,,,,,,,,,,,,,a,1,0.6392,"[""0.274"",""0.527"",""0.493"",""0.905""]","[1,1,0,1]",0,33,33,33,1,0,0,,,1,FALSE,,,,,,,,,,,,,,,,,,,,,,,,,,,,,,
,608bbdf084f82ffc3da1381d,001,2022-04-28_21h05.54.486,classification_task,2021.2.3,Win32,143.5132032,608bbdf084f82ffc3da1381d,626b377229c10585ec392f89,626b39cf7b0808b54565651d,,,,,,,,,,,,,,,,,,,,,,,a,1,0.7004,"[""0.274"",""0.527"",""0.783"",""0.854""]","[1,1,1,0]",0,34,34,34,1,0,0,,,1,FALSE,,,,,,,,,,,,,,,,,,,,,,,,,,,,,,
,608bbdf084f82ffc3da1381d,001,2022-04-28_21h05.54.486,classification_task,2021.2.3,Win32,143.5132032,608bbdf084f82ffc3da1381d,626b377229c10585ec392f89,626b39cf7b0808b54565651d,,,,,,,,,,,,,,,,,,,,,,,a,1,1.1718,"[""0.169"",""0.487"",""0.747"",""0.956""]","[1,0,1,1]",0,35,35,35,1,0,1,,,1,FALSE,,,,,,,,,,,,,,,,,,,,,,,,,,,,,,
,608bbdf084f82ffc3da1381d,001,2022-04-28_21h05.54.486,classification_task,2021.2.3,Win32,143.5132032,608bbdf084f82ffc3da1381d,626b377229c10585ec392f89,626b39cf7b0808b54565651d,,,,,,,,,,,,,,,,,,,,,,,l,0,1.1309,"[""0.602"",""0.527"",""0.783"",""0.905""]","[0,1,1,1]",0,36,36,36,1,0,0,,,1,FALSE,,,,,,,,,,,,,,,,,,,,,,,,,,,,,,
,608bbdf084f82ffc3da1381d,001,2022-04-28_21h05.54.486,classification_task,2021.2.3,Win32,143.5132032,608bbdf084f82ffc3da1381d,626b377229c10585ec392f89,626b39cf7b0808b54565651d,,,,,,,,,,,,,,,,,,,,,,,l,1,0.8473,"[""0.095"",""0.210"",""0.867"",""0.820""]","[1,1,0,1]",0,37,37,37,1,1,1,,,1,FALSE,,,,,,,,,,,,,,,,,,,,,,,,,,,,,,
,608bbdf084f82ffc3da1381d,001,2022-04-28_21h05.54.486,classification_task,2021.2.3,Win32,143.5132032,608bbdf084f82ffc3da1381d,626b377229c10585ec392f89,626b39cf7b0808b54565651d,,,,,,,,,,,,,,,,,,,,,,,l,1,0.41,"[""0.871"",""0.210"",""0.445"",""0.820""]","[0,1,1,1]",0,38,38,38,1,1,1,,,1,FALSE,,,,,,,,,,,,,,,,,,,,,,,,,,,,,,
,608bbdf084f82ffc3da1381d,001,2022-04-28_21h05.54.486,classification_task,2021.2.3,Win32,143.5132032,608bbdf084f82ffc3da1381d,626b377229c10585ec392f89,626b39cf7b0808b54565651d,,,,,,,,,,,,,,,,,,,,,,,a,1,0.6044,"[""0.169"",""0.342"",""0.747"",""0.595""]","[1,1,1,0]",0,39,39,39,1,0,1,,,1,FALSE,,,,,,,,,,,,,,,,,,,,,,,,,,,,,,
,608bbdf084f82ffc3da1381d,001,2022-04-28_21h05.54.486,classification_task,2021.2.3,Win32,143.5132032,608bbdf084f82ffc3da1381d,626b377229c10585ec392f89,626b39cf7b0808b54565651d,,,,,,,,,,,,,,,,,,,,,,,a,1,0.8792,"[""0.274"",""0.489"",""0.783"",""0.905""]","[1,0,1,1]",0,40,40,40,1,0,0,,,1,FALSE,,,,,,,,,,,,,,,,,,,,,,,,,,,,,,
,608bbdf084f82ffc3da1381d,001,2022-04-28_21h05.54.486,classification_task,2021.2.3,Win32,143.5132032,608bbdf084f82ffc3da1381d,626b377229c10585ec392f89,626b39cf7b0808b54565651d,,,,,,,,,,,,,,,,,,,,,,,l,1,0.842,"[""0.035"",""0.382"",""0.867"",""0.708""]","[1,1,0,1]",0,41,41,41,1,1,0,,,1,FALSE,,,,,,,,,,,,,,,,,,,,,,,,,,,,,,
,608bbdf084f82ffc3da1381d,001,2022-04-28_21h05.54.486,classification_task,2021.2.3,Win32,143.5132032,608bbdf084f82ffc3da1381d,626b377229c10585ec392f89,626b39cf7b0808b54565651d,,,,,,,,,,,,,,,,,,,,,,,a,1,0.5975,"[""0.595"",""0.342"",""0.747"",""0.956""]","[0,1,1,1]",0,42,42,42,1,0,1,,,1,FALSE,,,,,,,,,,,,,,,,,,,,,,,,,,,,,,
,608bbdf084f82ffc3da1381d,001,2022-04-28_21h05.54.486,classification_task,2021.2.3,Win32,143.5132032,608bbdf084f82ffc3da1381d,626b377229c10585ec392f89,626b39cf7b0808b54565651d,,,,,,,,,,,,,,,,,,,,,,,a,0,0.5628,"[""0.035"",""0.382"",""0.662"",""0.595""]","[1,1,1,0]",0,43,43,43,1,1,0,,,1,FALSE,,,,,,,,,,,,,,,,,,,,,,,,,,,,,,
,608bbdf084f82ffc3da1381d,001,2022-04-28_21h05.54.486,classification_task,2021.2.3,Win32,143.5132032,608bbdf084f82ffc3da1381d,626b377229c10585ec392f89,626b39cf7b0808b54565651d,,,,,,,,,,,,,,,,,,,,,,,l,1,0.6461,"[""0.095"",""0.210"",""0.445"",""0.860""]","[1,1,1,0]",0,44,44,44,1,1,1,,,1,FALSE,,,,,,,,,,,,,,,,,,,,,,,,,,,,,,
,608bbdf084f82ffc3da1381d,001,2022-04-28_21h05.54.486,classification_task,2021.2.3,Win32,143.5132032,608bbdf084f82ffc3da1381d,626b377229c10585ec392f89,626b39cf7b0808b54565651d,,,,,,,,,,,,,,,,,,,,,,,l,1,0.3614,"[""0.095"",""0.571"",""0.445"",""0.820""]","[1,0,1,1]",0,45,45,45,1,1,1,,,1,FALSE,,,,,,,,,,,,,,,,,,,,,,,,,,,,,,
,608bbdf084f82ffc3da1381d,001,2022-04-28_21h05.54.486,classification_task,2021.2.3,Win32,143.5132032,608bbdf084f82ffc3da1381d,626b377229c10585ec392f89,626b39cf7b0808b54565651d,,,,,,,,,,,,,,,,,,,,,,,a,0,1.1339,"[""0.493"",""0.382"",""0.662"",""0.708""]","[0,1,1,1]",0,46,46,46,1,1,0,,,1,FALSE,,,,,,,,,,,,,,,,,,,,,,,,,,,,,,
,608bbdf084f82ffc3da1381d,001,2022-04-28_21h05.54.486,classification_task,2021.2.3,Win32,143.5132032,608bbdf084f82ffc3da1381d,626b377229c10585ec392f89,626b39cf7b0808b54565651d,,,,,,,,,,,,,,,,,,,,,,,a,1,0.4657,"[""0.169"",""0.342"",""0.871"",""0.956""]","[1,1,0,1]",0,47,47,47,1,0,1,,,1,FALSE,,,,,,,,,,,,,,,,,,,,,,,,,,,,,,
,608bbdf084f82ffc3da1381d,001,2022-04-28_21h05.54.486,classification_task,2021.2.3,Win32,143.5132032,608bbdf084f82ffc3da1381d,626b377229c10585ec392f89,626b39cf7b0808b54565651d,,,,,,,,,,,,,,,,,,,,,,,a,0,0.9654,"[""0.035"",""0.867"",""0.662"",""0.708""]","[1,0,1,1]",0,48,48,48,1,1,0,,,1,FALSE,,,,,,,,,,,,,,,,,,,,,,,,,,,,,,
,608bbdf084f82ffc3da1381d,001,2022-04-28_21h05.54.486,classification_task,2021.2.3,Win32,143.5132032,608bbdf084f82ffc3da1381d,626b377229c10585ec392f89,626b39cf7b0808b54565651d,,,,,,,,,,,,,,,,,,,,,,,a,1,0.5977,"[""0.274"",""0.585"",""0.783"",""0.905""]","[1,0,1,1]",0,49,49,49,1,0,0,,,1,FALSE,,,,,,,,,,,,,,,,,,,,,,,,,,,,,,
,608bbdf084f82ffc3da1381d,001,2022-04-28_21h05.54.486,classification_task,2021.2.3,Win32,143.5132032,608bbdf084f82ffc3da1381d,626b377229c10585ec392f89,626b39cf7b0808b54565651d,,,,,,,,,,,,,,,,,,,,,,,a,1,0.9878,"[""0.274"",""0.527"",""0.783"",""0.871""]","[1,1,1,0]",0,50,50,50,1,0,0,,,1,FALSE,,,,,,,,,,,,,,,,,,,,,,,,,,,,,,
,608bbdf084f82ffc3da1381d,001,2022-04-28_21h05.54.486,classification_task,2021.2.3,Win32,143.5132032,608bbdf084f82ffc3da1381d,626b377229c10585ec392f89,626b39cf7b0808b54565651d,,,,,,,,,,,,,,,,,,,,,,,l,1,0.9308,"[""0.095"",""0.493"",""0.445"",""0.820""]","[1,0,1,1]",0,51,51,51,1,1,1,,,1,FALSE,,,,,,,,,,,,,,,,,,,,,,,,,,,,,,
,608bbdf084f82ffc3da1381d,001,2022-04-28_21h05.54.486,classification_task,2021.2.3,Win32,143.5132032,608bbdf084f82ffc3da1381d,626b377229c10585ec392f89,626b39cf7b0808b54565651d,,,,,,,,,,,,,,,,,,,,,,,a,0,0.9863,"[""0.035"",""0.382"",""0.662"",""0.854""]","[1,1,1,0]",0,52,52,52,1,1,0,,,1,FALSE,,,,,,,,,,,,,,,,,,,,,,,,,,,,,,
,608bbdf084f82ffc3da1381d,001,2022-04-28_21h05.54.486,classification_task,2021.2.3,Win32,143.5132032,608bbdf084f82ffc3da1381d,626b377229c10585ec392f89,626b39cf7b0808b54565651d,,,,,,,,,,,,,,,,,,,,,,,a,1,0.8613,"[""0.169"",""0.342"",""0.747"",""0.585""]","[1,1,1,0]",0,53,53,53,1,0,1,,,1,FALSE,,,,,,,,,,,,,,,,,,,,,,,,,,,,,,
,608bbdf084f82ffc3da1381d,001,2022-04-28_21h05.54.486,classification_task,2021.2.3,Win32,143.5132032,608bbdf084f82ffc3da1381d,626b377229c10585ec392f89,626b39cf7b0808b54565651d,,,,,,,,,,,,,,,,,,,,,,,a,1,0.4677,"[""0.169"",""0.625"",""0.747"",""0.956""]","[1,0,1,1]",0,54,54,54,1,0,1,,,1,FALSE,,,,,,,,,,,,,,,,,,,,,,,,,,,,,,
,608bbdf084f82ffc3da1381d,001,2022-04-28_21h05.54.486,classification_task,2021.2.3,Win32,143.5132032,608bbdf084f82ffc3da1381d,626b377229c10585ec392f89,626b39cf7b0808b54565651d,,,,,,,,,,,,,,,,,,,,,,,l,1,1.0697,"[""0.095"",""0.210"",""0.571"",""0.820""]","[1,1,0,1]",0,55,55,55,1,1,1,,,1,FALSE,,,,,,,,,,,,,,,,,,,,,,,,,,,,,,
,608bbdf084f82ffc3da1381d,001,2022-04-28_21h05.54.486,classification_task,2021.2.3,Win32,143.5132032,608bbdf084f82ffc3da1381d,626b377229c10585ec392f89,626b39cf7b0808b54565651d,,,,,,,,,,,,,,,,,,,,,,,l,1,0.4934,"[""0.602"",""0.210"",""0.445"",""0.820""]","[0,1,1,1]",0,56,56,56,1,1,1,,,1,FALSE,,,,,,,,,,,,,,,,,,,,,,,,,,,,,,
,608bbdf084f82ffc3da1381d,001,2022-04-28_21h05.54.486,classification_task,2021.2.3,Win32,143.5132032,608bbdf084f82ffc3da1381d,626b377229c10585ec392f89,626b39cf7b0808b54565651d,,,,,,,,,,,,,,,,,,,,,,,a,1,3.4379,"[""0.859"",""0.527"",""0.783"",""0.905""]","[0,1,1,1]",0,57,57,57,1,0,0,,,1,FALSE,,,,,,,,,,,,,,,,,,,,,,,,,,,,,,
,608bbdf084f82ffc3da1381d,001,2022-04-28_21h05.54.486,classification_task,2021.2.3,Win32,143.5132032,608bbdf084f82ffc3da1381d,626b377229c10585ec392f89,626b39cf7b0808b54565651d,,,,,,,,,,,,,,,,,,,,,,,a,0,0.9069,"[""0.035"",""0.382"",""0.602"",""0.708""]","[1,1,0,1]",0,58,58,58,1,1,0,,,1,FALSE,,,,,,,,,,,,,,,,,,,,,,,,,,,,,,
,608bbdf084f82ffc3da1381d,001,2022-04-28_21h05.54.486,classification_task,2021.2.3,Win32,143.5132032,608bbdf084f82ffc3da1381d,626b377229c10585ec392f89,626b39cf7b0808b54565651d,,,,,,,,,,,,,,,,,,,,,,,a,1,0.632,"[""0.274"",""0.527"",""0.871"",""0.905""]","[1,1,0,1]",0,59,59,59,1,0,0,,,1,FALSE,,,,,,,,,,,,,,,,,,,,,,,,,,,,,,
,608bbdf084f82ffc3da1381d,001,2022-04-28_21h05.54.486,classification_task,2021.2.3,Win32,143.5132032,608bbdf084f82ffc3da1381d,626b377229c10585ec392f89,626b39cf7b0808b54565651d,,,,,,,,,,,,,,,,,,,,,,,l,1,0.431,"[""0.571"",""0.382"",""0.662"",""0.708""]","[0,1,1,1]",0,60,60,60,1,1,0,,,1,FALSE,,,,,,,,,,,,,,,,,,,,,,,,,,,,,,
,608bbdf084f82ffc3da1381d,001,2022-04-28_21h05.54.486,classification_task,2021.2.3,Win32,143.5132032,608bbdf084f82ffc3da1381d,626b377229c10585ec392f89,626b39cf7b0808b54565651d,,,,,,,,,,,,,,,,,,,,,,,l,1,0.8057,"[""0.095"",""0.210"",""0.445"",""0.859""]","[1,1,1,0]",0,61,61,61,1,1,1,,,1,FALSE,,,,,,,,,,,,,,,,,,,,,,,,,,,,,,
,608bbdf084f82ffc3da1381d,001,2022-04-28_21h05.54.486,classification_task,2021.2.3,Win32,143.5132032,608bbdf084f82ffc3da1381d,626b377229c10585ec392f89,626b39cf7b0808b54565651d,,,,,,,,,,,,,,,,,,,,,,,a,1,0.5974,"[""0.169"",""0.342"",""0.860"",""0.956""]","[1,1,0,1]",0,62,62,62,1,0,1,,,1,FALSE,,,,,,,,,,,,,,,,,,,,,,,,,,,,,,
,608bbdf084f82ffc3da1381d,001,2022-04-28_21h05.54.486,classification_task,2021.2.3,Win32,143.5132032,608bbdf084f82ffc3da1381d,626b377229c10585ec392f89,626b39cf7b0808b54565651d,,,,,,,,,,,,,,,,,,,,,,,a,1,0.5462,"[""0.859"",""0.342"",""0.747"",""0.956""]","[0,1,1,1]",0,63,63,63,1,0,1,,,1,FALSE,,,,,,,,,,,,,,,,,,,,,,,,,,,,,,
,608bbdf084f82ffc3da1381d,001,2022-04-28_21h05.54.486,classification_task,2021.2.3,Win32,143.5132032,608bbdf084f82ffc3da1381d,626b377229c10585ec392f89,626b39cf7b0808b54565651d,,,,,,,,,,,,,,,,,,,,,,,,,,,,,,,,,,,,,,,0, ,,0,0,149.1867,0,1,1,1,1,2,2,,,,,,,,,,,,,,,,,
,608bbdf084f82ffc3da1381d,001,2022-04-28_21h05.54.486,classification_task,2021.2.3,Win32,143.5132032,608bbdf084f82ffc3da1381d,626b377229c10585ec392f89,626b39cf7b0808b54565651d,,,,,,,,,,,,,,,,,,,,,,,,,,,,,,,,,,,,,,,1,  ,,0,3.897707231,151.2355,0,1,1,1,1,2,2,,,,,,,,,,,,,,,,,
,608bbdf084f82ffc3da1381d,001,2022-04-28_21h05.54.486,classification_task,2021.2.3,Win32,143.5132032,608bbdf084f82ffc3da1381d,626b377229c10585ec392f89,626b39cf7b0808b54565651d,,,,,,,,,,,,,,,,,,,,,,,,,,,,,,,,,,,,,,,2,  ,,0,1.37468156,155.4941,0,1,1,1,1,2,2,,,,,,,,,,,,,,,,,
,608bbdf084f82ffc3da1381d,001,2022-04-28_21h05.54.486,classification_task,2021.2.3,Win32,143.5132032,608bbdf084f82ffc3da1381d,626b377229c10585ec392f89,626b39cf7b0808b54565651d,,,,,,,,,,,,,,,,,,,,,,,,,,,,,,,,,,,,,,,,,,,,,0,1,1,1,1,,2,,,,,,,,,,,,,,,,,
,608bbdf084f82ffc3da1381d,001,2022-04-28_21h05.54.486,classification_task,2021.2.3,Win32,143.5132032,608bbdf084f82ffc3da1381d,626b377229c10585ec392f89,626b39cf7b0808b54565651d,,,,,,,,,,,,,,,,,,,,,space,9.3548,a,1,1.8654,"[""0.571"",""0.527"",""0.783"",""0.905""]","[0,1,1,1]",0,0,0,0,1,0,0,,,1,FALSE,,,,,,,,,,,,,,,,,,,,,,,,,,,,,,
,608bbdf084f82ffc3da1381d,001,2022-04-28_21h05.54.486,classification_task,2021.2.3,Win32,143.5132032,608bbdf084f82ffc3da1381d,626b377229c10585ec392f89,626b39cf7b0808b54565651d,,,,,,,,,,,,,,,,,,,,,,,a,0,1.3423,"[""0.571"",""0.210"",""0.445"",""0.820""]","[0,1,1,1]",0,1,1,1,1,1,1,,,1,FALSE,,,,,,,,,,,,,,,,,,,,,,,,,,,,,,
,608bbdf084f82ffc3da1381d,001,2022-04-28_21h05.54.486,classification_task,2021.2.3,Win32,143.5132032,608bbdf084f82ffc3da1381d,626b377229c10585ec392f89,626b39cf7b0808b54565651d,,,,,,,,,,,,,,,,,,,,,,,l,1,1.0975,"[""0.095"",""0.602"",""0.445"",""0.820""]","[1,0,1,1]",0,2,2,2,1,1,1,,,1,FALSE,,,,,,,,,,,,,,,,,,,,,,,,,,,,,,
,608bbdf084f82ffc3da1381d,001,2022-04-28_21h05.54.486,classification_task,2021.2.3,Win32,143.5132032,608bbdf084f82ffc3da1381d,626b377229c10585ec392f89,626b39cf7b0808b54565651d,,,,,,,,,,,,,,,,,,,,,,,l,0,0.6461,"[""0.169"",""0.342"",""0.747"",""0.867""]","[1,1,1,0]",0,3,3,3,1,0,1,,,1,FALSE,,,,,,,,,,,,,,,,,,,,,,,,,,,,,,
,608bbdf084f82ffc3da1381d,001,2022-04-28_21h05.54.486,classification_task,2021.2.3,Win32,143.5132032,608bbdf084f82ffc3da1381d,626b377229c10585ec392f89,626b39cf7b0808b54565651d,,,,,,,,,,,,,,,,,,,,,,,l,1,0.8404,"[""0.035"",""0.860"",""0.662"",""0.708""]","[1,0,1,1]",0,4,4,4,1,1,0,,,1,FALSE,,,,,,,,,,,,,,,,,,,,,,,,,,,,,,
,608bbdf084f82ffc3da1381d,001,2022-04-28_21h05.54.486,classification_task,2021.2.3,Win32,143.5132032,608bbdf084f82ffc3da1381d,626b377229c10585ec392f89,626b39cf7b0808b54565651d,,,,,,,,,,,,,,,,,,,,,,,l,0,0.7085,"[""0.274"",""0.527"",""0.867"",""0.905""]","[1,1,0,1]",0,5,5,5,1,0,0,,,1,FALSE,,,,,,,,,,,,,,,,,,,,,,,,,,,,,,
,608bbdf084f82ffc3da1381d,001,2022-04-28_21h05.54.486,classification_task,2021.2.3,Win32,143.5132032,608bbdf084f82ffc3da1381d,626b377229c10585ec392f89,626b39cf7b0808b54565651d,,,,,,,,,,,,,,,,,,,,,,,l,1,0.681,"[""0.860"",""0.382"",""0.662"",""0.708""]","[0,1,1,1]",0,6,6,6,1,1,0,,,1,FALSE,,,,,,,,,,,,,,,,,,,,,,,,,,,,,,
,608bbdf084f82ffc3da1381d,001,2022-04-28_21h05.54.486,classification_task,2021.2.3,Win32,143.5132032,608bbdf084f82ffc3da1381d,626b377229c10585ec392f89,626b39cf7b0808b54565651d,,,,,,,,,,,,,,,,,,,,,,,a,1,0.5187,"[""0.274"",""0.527"",""0.783"",""0.602""]","[1,1,1,0]",0,7,7,7,1,0,0,,,1,FALSE,,,,,,,,,,,,,,,,,,,,,,,,,,,,,,
,608bbdf084f82ffc3da1381d,001,2022-04-28_21h05.54.486,classification_task,2021.2.3,Win32,143.5132032,608bbdf084f82ffc3da1381d,626b377229c10585ec392f89,626b39cf7b0808b54565651d,,,,,,,,,,,,,,,,,,,,,,,l,1,0.9408,"[""0.035"",""0.382"",""0.662"",""0.854""]","[1,1,1,0]",0,8,8,8,1,1,0,,,1,FALSE,,,,,,,,,,,,,,,,,,,,,,,,,,,,,,
,608bbdf084f82ffc3da1381d,001,2022-04-28_21h05.54.486,classification_task,2021.2.3,Win32,143.5132032,608bbdf084f82ffc3da1381d,626b377229c10585ec392f89,626b39cf7b0808b54565651d,,,,,,,,,,,,,,,,,,,,,,,l,0,0.875,"[""0.860"",""0.342"",""0.747"",""0.956""]","[0,1,1,1]",0,9,9,9,1,0,1,,,1,FALSE,,,,,,,,,,,,,,,,,,,,,,,,,,,,,,
,608bbdf084f82ffc3da1381d,001,2022-04-28_21h05.54.486,classification_task,2021.2.3,Win32,143.5132032,608bbdf084f82ffc3da1381d,626b377229c10585ec392f89,626b39cf7b0808b54565651d,,,,,,,,,,,,,,,,,,,,,,,a,1,0.4933,"[""0.274"",""0.595"",""0.783"",""0.905""]","[1,0,1,1]",0,10,10,10,1,0,0,,,1,FALSE,,,,,,,,,,,,,,,,,,,,,,,,,,,,,,
,608bbdf084f82ffc3da1381d,001,2022-04-28_21h05.54.486,classification_task,2021.2.3,Win32,143.5132032,608bbdf084f82ffc3da1381d,626b377229c10585ec392f89,626b39cf7b0808b54565651d,,,,,,,,,,,,,,,,,,,,,,,a,1,0.5072,"[""0.169"",""0.860"",""0.747"",""0.956""]","[1,0,1,1]",0,11,11,11,1,0,1,,,1,FALSE,,,,,,,,,,,,,,,,,,,,,,,,,,,,,,
,608bbdf084f82ffc3da1381d,001,2022-04-28_21h05.54.486,classification_task,2021.2.3,Win32,143.5132032,608bbdf084f82ffc3da1381d,626b377229c10585ec392f89,626b39cf7b0808b54565651d,,,,,,,,,,,,,,,,,,,,,,,a,0,0.4239,"[""0.095"",""0.210"",""0.445"",""0.859""]","[1,1,1,0]",0,12,12,12,1,1,1,,,1,FALSE,,,,,,,,,,,,,,,,,,,,,,,,,,,,,,
,608bbdf084f82ffc3da1381d,001,2022-04-28_21h05.54.486,classification_task,2021.2.3,Win32,143.5132032,608bbdf084f82ffc3da1381d,626b377229c10585ec392f89,626b39cf7b0808b54565651d,,,,,,,,,,,,,,,,,,,,,,,a,0,0.4238,"[""0.095"",""0.210"",""0.493"",""0.820""]","[1,1,0,1]",0,13,13,13,1,1,1,,,1,FALSE,,,,,,,,,,,,,,,,,,,,,,,,,,,,,,
,608bbdf084f82ffc3da1381d,001,2022-04-28_21h05.54.486,classification_task,2021.2.3,Win32,143.5132032,608bbdf084f82ffc3da1381d,626b377229c10585ec392f89,626b39cf7b0808b54565651d,,,,,,,,,,,,,,,,,,,,,,,a,0,0.3717,"[""0.035"",""0.382"",""0.583"",""0.708""]","[1,1,0,1]",0,14,14,14,1,1,0,,,1,FALSE,,,,,,,,,,,,,,,,,,,,,,,,,,,,,,
,608bbdf084f82ffc3da1381d,001,2022-04-28_21h05.54.486,classification_task,2021.2.3,Win32,143.5132032,608bbdf084f82ffc3da1381d,626b377229c10585ec392f89,626b39cf7b0808b54565651d,,,,,,,,,,,,,,,,,,,,,,,l,0,0.2504,"[""0.169"",""0.342"",""0.487"",""0.956""]","[1,1,0,1]",0,15,15,15,1,0,1,,,1,FALSE,,,,,,,,,,,,,,,,,,,,,,,,,,,,,,
,608bbdf084f82ffc3da1381d,001,2022-04-28_21h05.54.486,classification_task,2021.2.3,Win32,143.5132032,608bbdf084f82ffc3da1381d,626b377229c10585ec392f89,626b39cf7b0808b54565651d,,,,,,,,,,,,,,,,,,,,,,,a,0,0.2627,"[""0.035"",""0.382"",""0.662"",""0.493""]","[1,1,1,0]",0,16,16,16,1,1,0,,,1,FALSE,,,,,,,,,,,,,,,,,,,,,,,,,,,,,,
,608bbdf084f82ffc3da1381d,001,2022-04-28_21h05.54.486,classification_task,2021.2.3,Win32,143.5132032,608bbdf084f82ffc3da1381d,626b377229c10585ec392f89,626b39cf7b0808b54565651d,,,,,,,,,,,,,,,,,,,,,,,a,0,0.2365,"[""0.571"",""0.382"",""0.662"",""0.708""]","[0,1,1,1]",0,17,17,17,1,1,0,,,1,FALSE,,,,,,,,,,,,,,,,,,,,,,,,,,,,,,
,608bbdf084f82ffc3da1381d,001,2022-04-28_21h05.54.486,classification_task,2021.2.3,Win32,143.5132032,608bbdf084f82ffc3da1381d,626b377229c10585ec392f89,626b39cf7b0808b54565651d,,,,,,,,,,,,,,,,,,,,,,,l,0,0.1992,"[""0.169"",""0.859"",""0.747"",""0.956""]","[1,0,1,1]",0,18,18,18,1,0,1,,,1,FALSE,,,,,,,,,,,,,,,,,,,,,,,,,,,,,,
,608bbdf084f82ffc3da1381d,001,2022-04-28_21h05.54.486,classification_task,2021.2.3,Win32,143.5132032,608bbdf084f82ffc3da1381d,626b377229c10585ec392f89,626b39cf7b0808b54565651d,,,,,,,,,,,,,,,,,,,,,,,a,1,0.3544,"[""0.274"",""0.867"",""0.783"",""0.905""]","[1,0,1,1]",0,19,19,19,1,0,0,,,1,FALSE,,,,,,,,,,,,,,,,,,,,,,,,,,,,,,
,608bbdf084f82ffc3da1381d,001,2022-04-28_21h05.54.486,classification_task,2021.2.3,Win32,143.5132032,608bbdf084f82ffc3da1381d,626b377229c10585ec392f89,626b39cf7b0808b54565651d,,,,,,,,,,,,,,,,,,,,,,,l,1,0.2431,"[""0.095"",""0.210"",""0.445"",""0.583""]","[1,1,1,0]",0,20,20,20,1,1,1,,,1,FALSE,,,,,,,,,,,,,,,,,,,,,,,,,,,,,,
,608bbdf084f82ffc3da1381d,001,2022-04-28_21h05.54.486,classification_task,2021.2.3,Win32,143.5132032,608bbdf084f82ffc3da1381d,626b377229c10585ec392f89,626b39cf7b0808b54565651d,,,,,,,,,,,,,,,,,,,,,,,l,1,0.3752,"[""0.035"",""0.487"",""0.662"",""0.708""]","[1,0,1,1]",0,21,21,21,1,1,0,,,1,FALSE,,,,,,,,,,,,,,,,,,,,,,,,,,,,,,
,608bbdf084f82ffc3da1381d,001,2022-04-28_21h05.54.486,classification_task,2021.2.3,Win32,143.5132032,608bbdf084f82ffc3da1381d,626b377229c10585ec392f89,626b39cf7b0808b54565651d,,,,,,,,,,,,,,,,,,,,,,,a,1,0.2987,"[""0.274"",""0.527"",""0.854"",""0.905""]","[1,1,0,1]",0,22,22,22,1,0,0,,,1,FALSE,,,,,,,,,,,,,,,,,,,,,,,,,,,,,,
,608bbdf084f82ffc3da1381d,001,2022-04-28_21h05.54.486,classification_task,2021.2.3,Win32,143.5132032,608bbdf084f82ffc3da1381d,626b377229c10585ec392f89,626b39cf7b0808b54565651d,,,,,,,,,,,,,,,,,,,,,,,a,1,0.2111,"[""0.871"",""0.342"",""0.747"",""0.956""]","[0,1,1,1]",0,23,23,23,1,0,1,,,1,FALSE,,,,,,,,,,,,,,,,,,,,,,,,,,,,,,
,608bbdf084f82ffc3da1381d,001,2022-04-28_21h05.54.486,classification_task,2021.2.3,Win32,143.5132032,608bbdf084f82ffc3da1381d,626b377229c10585ec392f89,626b39cf7b0808b54565651d,,,,,,,,,,,,,,,,,,,,,,,a,0,0.4794,"[""0.095"",""0.210"",""0.854"",""0.820""]","[1,1,0,1]",0,24,24,24,1,1,1,,,1,FALSE,,,,,,,,,,,,,,,,,,,,,,,,,,,,,,
,608bbdf084f82ffc3da1381d,001,2022-04-28_21h05.54.486,classification_task,2021.2.3,Win32,143.5132032,608bbdf084f82ffc3da1381d,626b377229c10585ec392f89,626b39cf7b0808b54565651d,,,,,,,,,,,,,,,,,,,,,,,a,1,0.4031,"[""0.274"",""0.527"",""0.783"",""0.860""]","[1,1,1,0]",0,25,25,25,1,0,0,,,1,FALSE,,,,,,,,,,,,,,,,,,,,,,,,,,,,,,
,608bbdf084f82ffc3da1381d,001,2022-04-28_21h05.54.486,classification_task,2021.2.3,Win32,143.5132032,608bbdf084f82ffc3da1381d,626b377229c10585ec392f89,626b39cf7b0808b54565651d,,,,,,,,,,,,,,,,,,,,,,,l,1,0.2241,"[""0.035"",""0.382"",""0.860"",""0.708""]","[1,1,0,1]",0,26,26,26,1,1,0,,,1,FALSE,,,,,,,,,,,,,,,,,,,,,,,,,,,,,,
,608bbdf084f82ffc3da1381d,001,2022-04-28_21h05.54.486,classification_task,2021.2.3,Win32,143.5132032,608bbdf084f82ffc3da1381d,626b377229c10585ec392f89,626b39cf7b0808b54565651d,,,,,,,,,,,,,,,,,,,,,,,a,1,0.1968,"[""0.169"",""0.342"",""0.747"",""0.571""]","[1,1,1,0]",0,27,27,27,1,0,1,,,1,FALSE,,,,,,,,,,,,,,,,,,,,,,,,,,,,,,
,608bbdf084f82ffc3da1381d,001,2022-04-28_21h05.54.486,classification_task,2021.2.3,Win32,143.5132032,608bbdf084f82ffc3da1381d,626b377229c10585ec392f89,626b39cf7b0808b54565651d,,,,,,,,,,,,,,,,,,,,,,,l,0,0.2154,"[""0.595"",""0.527"",""0.783"",""0.905""]","[0,1,1,1]",0,28,28,28,1,0,0,,,1,FALSE,,,,,,,,,,,,,,,,,,,,,,,,,,,,,,
,608bbdf084f82ffc3da1381d,001,2022-04-28_21h05.54.486,classification_task,2021.2.3,Win32,143.5132032,608bbdf084f82ffc3da1381d,626b377229c10585ec392f89,626b39cf7b0808b54565651d,,,,,,,,,,,,,,,,,,,,,,,a,1,0.2017,"[""0.169"",""0.342"",""0.867"",""0.956""]","[1,1,0,1]",0,29,29,29,1,0,1,,,1,FALSE,,,,,,,,,,,,,,,,,,,,,,,,,,,,,,
,608bbdf084f82ffc3da1381d,001,2022-04-28_21h05.54.486,classification_task,2021.2.3,Win32,143.5132032,608bbdf084f82ffc3da1381d,626b377229c10585ec392f89,626b39cf7b0808b54565651d,,,,,,,,,,,,,,,,,,,,,,,l,1,0.2433,"[""0.095"",""0.859"",""0.445"",""0.820""]","[1,0,1,1]",0,30,30,30,1,1,1,,,1,FALSE,,,,,,,,,,,,,,,,,,,,,,,,,,,,,,
,608bbdf084f82ffc3da1381d,001,2022-04-28_21h05.54.486,classification_task,2021.2.3,Win32,143.5132032,608bbdf084f82ffc3da1381d,626b377229c10585ec392f89,626b39cf7b0808b54565651d,,,,,,,,,,,,,,,,,,,,,,,l,1,0.2503,"[""0.585"",""0.210"",""0.445"",""0.820""]","[0,1,1,1]",0,31,31,31,1,1,1,,,1,FALSE,,,,,,,,,,,,,,,,,,,,,,,,,,,,,,
,608bbdf084f82ffc3da1381d,001,2022-04-28_21h05.54.486,classification_task,2021.2.3,Win32,143.5132032,608bbdf084f82ffc3da1381d,626b377229c10585ec392f89,626b39cf7b0808b54565651d,,,,,,,,,,,,,,,,,,,,,,,a,1,0.2202,"[""0.867"",""0.527"",""0.783"",""0.905""]","[0,1,1,1]",0,32,32,32,1,0,0,,,1,FALSE,,,,,,,,,,,,,,,,,,,,,,,,,,,,,,
,608bbdf084f82ffc3da1381d,001,2022-04-28_21h05.54.486,classification_task,2021.2.3,Win32,143.5132032,608bbdf084f82ffc3da1381d,626b377229c10585ec392f89,626b39cf7b0808b54565651d,,,,,,,,,,,,,,,,,,,,,,,l,0,0.1949,"[""0.169"",""0.342"",""0.747"",""0.583""]","[1,1,1,0]",0,33,33,33,1,0,1,,,1,FALSE,,,,,,,,,,,,,,,,,,,,,,,,,,,,,,
,608bbdf084f82ffc3da1381d,001,2022-04-28_21h05.54.486,classification_task,2021.2.3,Win32,143.5132032,608bbdf084f82ffc3da1381d,626b377229c10585ec392f89,626b39cf7b0808b54565651d,,,,,,,,,,,,,,,,,,,,,,,l,0,0.424,"[""0.274"",""0.527"",""0.860"",""0.905""]","[1,1,0,1]",0,34,34,34,1,0,0,,,1,FALSE,,,,,,,,,,,,,,,,,,,,,,,,,,,,,,
,608bbdf084f82ffc3da1381d,001,2022-04-28_21h05.54.486,classification_task,2021.2.3,Win32,143.5132032,608bbdf084f82ffc3da1381d,626b377229c10585ec392f89,626b39cf7b0808b54565651d,,,,,,,,,,,,,,,,,,,,,,,a,1,0.41,"[""0.487"",""0.342"",""0.747"",""0.956""]","[0,1,1,1]",0,35,35,35,1,0,1,,,1,FALSE,,,,,,,,,,,,,,,,,,,,,,,,,,,,,,
,608bbdf084f82ffc3da1381d,001,2022-04-28_21h05.54.486,classification_task,2021.2.3,Win32,143.5132032,608bbdf084f82ffc3da1381d,626b377229c10585ec392f89,626b39cf7b0808b54565651d,,,,,,,,,,,,,,,,,,,,,,,a,0,0.2782,"[""0.095"",""0.210"",""0.583"",""0.820""]","[1,1,0,1]",0,36,36,36,1,1,1,,,1,FALSE,,,,,,,,,,,,,,,,,,,,,,,,,,,,,,
,608bbdf084f82ffc3da1381d,001,2022-04-28_21h05.54.486,classification_task,2021.2.3,Win32,143.5132032,608bbdf084f82ffc3da1381d,626b377229c10585ec392f89,626b39cf7b0808b54565651d,,,,,,,,,,,,,,,,,,,,,,,a,1,0.4029,"[""0.169"",""0.860"",""0.747"",""0.956""]","[1,0,1,1]",0,37,37,37,1,0,1,,,1,FALSE,,,,,,,,,,,,,,,,,,,,,,,,,,,,,,
,608bbdf084f82ffc3da1381d,001,2022-04-28_21h05.54.486,classification_task,2021.2.3,Win32,143.5132032,608bbdf084f82ffc3da1381d,626b377229c10585ec392f89,626b39cf7b0808b54565651d,,,,,,,,,,,,,,,,,,,,,,,a,0,0.542,"[""0.035"",""0.382"",""0.662"",""0.487""]","[1,1,1,0]",0,38,38,38,1,1,0,,,1,FALSE,,,,,,,,,,,,,,,,,,,,,,,,,,,,,,
,608bbdf084f82ffc3da1381d,001,2022-04-28_21h05.54.486,classification_task,2021.2.3,Win32,143.5132032,608bbdf084f82ffc3da1381d,626b377229c10585ec392f89,626b39cf7b0808b54565651d,,,,,,,,,,,,,,,,,,,,,,,a,0,0.5627,"[""0.095"",""0.210"",""0.445"",""0.625""]","[1,1,1,0]",0,39,39,39,1,1,1,,,1,FALSE,,,,,,,,,,,,,,,,,,,,,,,,,,,,,,
,608bbdf084f82ffc3da1381d,001,2022-04-28_21h05.54.486,classification_task,2021.2.3,Win32,143.5132032,608bbdf084f82ffc3da1381d,626b377229c10585ec392f89,626b39cf7b0808b54565651d,,,,,,,,,,,,,,,,,,,,,,,a,0,0.6044,"[""0.095"",""0.487"",""0.445"",""0.820""]","[1,0,1,1]",0,40,40,40,1,1,1,,,1,FALSE,,,,,,,,,,,,,,,,,,,,,,,,,,,,,,
,608bbdf084f82ffc3da1381d,001,2022-04-28_21h05.54.486,classification_task,2021.2.3,Win32,143.5132032,608bbdf084f82ffc3da1381d,626b377229c10585ec392f89,626b39cf7b0808b54565651d,,,,,,,,,,,,,,,,,,,,,,,l,1,0.4378,"[""0.489"",""0.382"",""0.662"",""0.708""]","[0,1,1,1]",0,41,41,41,1,1,0,,,1,FALSE,,,,,,,,,,,,,,,,,,,,,,,,,,,,,,
,608bbdf084f82ffc3da1381d,001,2022-04-28_21h05.54.486,classification_task,2021.2.3,Win32,143.5132032,608bbdf084f82ffc3da1381d,626b377229c10585ec392f89,626b39cf7b0808b54565651d,,,,,,,,,,,,,,,,,,,,,,,l,0,0.5699,"[""0.274"",""0.527"",""0.783"",""0.602""]","[1,1,1,0]",0,42,42,42,1,0,0,,,1,FALSE,,,,,,,,,,,,,,,,,,,,,,,,,,,,,,
,608bbdf084f82ffc3da1381d,001,2022-04-28_21h05.54.486,classification_task,2021.2.3,Win32,143.5132032,608bbdf084f82ffc3da1381d,626b377229c10585ec392f89,626b39cf7b0808b54565651d,,,,,,,,,,,,,,,,,,,,,,,l,0,0.4267,"[""0.169"",""0.342"",""0.867"",""0.956""]","[1,1,0,1]",0,43,43,43,1,0,1,,,1,FALSE,,,,,,,,,,,,,,,,,,,,,,,,,,,,,,
,608bbdf084f82ffc3da1381d,001,2022-04-28_21h05.54.486,classification_task,2021.2.3,Win32,143.5132032,608bbdf084f82ffc3da1381d,626b377229c10585ec392f89,626b39cf7b0808b54565651d,,,,,,,,,,,,,,,,,,,,,,,l,0,0.5767,"[""0.274"",""0.854"",""0.783"",""0.905""]","[1,0,1,1]",0,44,44,44,1,0,0,,,1,FALSE,,,,,,,,,,,,,,,,,,,,,,,,,,,,,,
,608bbdf084f82ffc3da1381d,001,2022-04-28_21h05.54.486,classification_task,2021.2.3,Win32,143.5132032,608bbdf084f82ffc3da1381d,626b377229c10585ec392f89,626b39cf7b0808b54565651d,,,,,,,,,,,,,,,,,,,,,,,l,1,0.7502,"[""0.035"",""0.382"",""0.860"",""0.708""]","[1,1,0,1]",0,45,45,45,1,1,0,,,1,FALSE,,,,,,,,,,,,,,,,,,,,,,,,,,,,,,
,608bbdf084f82ffc3da1381d,001,2022-04-28_21h05.54.486,classification_task,2021.2.3,Win32,143.5132032,608bbdf084f82ffc3da1381d,626b377229c10585ec392f89,626b39cf7b0808b54565651d,,,,,,,,,,,,,,,,,,,,,,,a,0,0.4239,"[""0.493"",""0.210"",""0.445"",""0.820""]","[0,1,1,1]",0,46,46,46,1,1,1,,,1,FALSE,,,,,,,,,,,,,,,,,,,,,,,,,,,,,,
,608bbdf084f82ffc3da1381d,001,2022-04-28_21h05.54.486,classification_task,2021.2.3,Win32,143.5132032,608bbdf084f82ffc3da1381d,626b377229c10585ec392f89,626b39cf7b0808b54565651d,,,,,,,,,,,,,,,,,,,,,,,l,1,0.7989,"[""0.035"",""0.854"",""0.662"",""0.708""]","[1,0,1,1]",0,47,47,47,1,1,0,,,1,FALSE,,,,,,,,,,,,,,,,,,,,,,,,,,,,,,
,608bbdf084f82ffc3da1381d,001,2022-04-28_21h05.54.486,classification_task,2021.2.3,Win32,143.5132032,608bbdf084f82ffc3da1381d,626b377229c10585ec392f89,626b39cf7b0808b54565651d,,,,,,,,,,,,,,,,,,,,,,,a,0,0.6825,"[""0.854"",""0.210"",""0.445"",""0.820""]","[0,1,1,1]",0,48,48,48,1,1,1,,,1,FALSE,,,,,,,,,,,,,,,,,,,,,,,,,,,,,,
,608bbdf084f82ffc3da1381d,001,2022-04-28_21h05.54.486,classification_task,2021.2.3,Win32,143.5132032,608bbdf084f82ffc3da1381d,626b377229c10585ec392f89,626b39cf7b0808b54565651d,,,,,,,,,,,,,,,,,,,,,,,a,1,0.3823,"[""0.274"",""0.527"",""0.783"",""0.487""]","[1,1,1,0]",0,49,49,49,1,0,0,,,1,FALSE,,,,,,,,,,,,,,,,,,,,,,,,,,,,,,
,608bbdf084f82ffc3da1381d,001,2022-04-28_21h05.54.486,classification_task,2021.2.3,Win32,143.5132032,608bbdf084f82ffc3da1381d,626b377229c10585ec392f89,626b39cf7b0808b54565651d,,,,,,,,,,,,,,,,,,,,,,,l,1,0.3783,"[""0.035"",""0.382"",""0.625"",""0.708""]","[1,1,0,1]",0,50,50,50,1,1,0,,,1,FALSE,,,,,,,,,,,,,,,,,,,,,,,,,,,,,,
,608bbdf084f82ffc3da1381d,001,2022-04-28_21h05.54.486,classification_task,2021.2.3,Win32,143.5132032,608bbdf084f82ffc3da1381d,626b377229c10585ec392f89,626b39cf7b0808b54565651d,,,,,,,,,,,,,,,,,,,,,,,a,1,0.5212,"[""0.274"",""0.527"",""0.487"",""0.905""]","[1,1,0,1]",0,51,51,51,1,0,0,,,1,FALSE,,,,,,,,,,,,,,,,,,,,,,,,,,,,,,
,608bbdf084f82ffc3da1381d,001,2022-04-28_21h05.54.486,classification_task,2021.2.3,Win32,143.5132032,608bbdf084f82ffc3da1381d,626b377229c10585ec392f89,626b39cf7b0808b54565651d,,,,,,,,,,,,,,,,,,,,,,,a,0,0.3917,"[""0.095"",""0.210"",""0.854"",""0.820""]","[1,1,0,1]",0,52,52,52,1,1,1,,,1,FALSE,,,,,,,,,,,,,,,,,,,,,,,,,,,,,,
,608bbdf084f82ffc3da1381d,001,2022-04-28_21h05.54.486,classification_task,2021.2.3,Win32,143.5132032,608bbdf084f82ffc3da1381d,626b377229c10585ec392f89,626b39cf7b0808b54565651d,,,,,,,,,,,,,,,,,,,,,,,a,0,0.542,"[""0.585"",""0.382"",""0.662"",""0.708""]","[0,1,1,1]",0,53,53,53,1,1,0,,,1,FALSE,,,,,,,,,,,,,,,,,,,,,,,,,,,,,,
,608bbdf084f82ffc3da1381d,001,2022-04-28_21h05.54.486,classification_task,2021.2.3,Win32,143.5132032,608bbdf084f82ffc3da1381d,626b377229c10585ec392f89,626b39cf7b0808b54565651d,,,,,,,,,,,,,,,,,,,,,,,l,1,0.2406,"[""0.095"",""0.860"",""0.445"",""0.820""]","[1,0,1,1]",0,54,54,54,1,1,1,,,1,FALSE,,,,,,,,,,,,,,,,,,,,,,,,,,,,,,
,608bbdf084f82ffc3da1381d,001,2022-04-28_21h05.54.486,classification_task,2021.2.3,Win32,143.5132032,608bbdf084f82ffc3da1381d,626b377229c10585ec392f89,626b39cf7b0808b54565651d,,,,,,,,,,,,,,,,,,,,,,,l,1,0.2017,"[""0.035"",""0.382"",""0.662"",""0.493""]","[1,1,1,0]",0,55,55,55,1,1,0,,,1,FALSE,,,,,,,,,,,,,,,,,,,,,,,,,,,,,,
,608bbdf084f82ffc3da1381d,001,2022-04-28_21h05.54.486,classification_task,2021.2.3,Win32,143.5132032,608bbdf084f82ffc3da1381d,626b377229c10585ec392f89,626b39cf7b0808b54565651d,,,,,,,,,,,,,,,,,,,,,,,a,1,0.3425,"[""0.169"",""0.860"",""0.747"",""0.956""]","[1,0,1,1]",0,56,56,56,1,0,1,,,1,FALSE,,,,,,,,,,,,,,,,,,,,,,,,,,,,,,
,608bbdf084f82ffc3da1381d,001,2022-04-28_21h05.54.486,classification_task,2021.2.3,Win32,143.5132032,608bbdf084f82ffc3da1381d,626b377229c10585ec392f89,626b39cf7b0808b54565651d,,,,,,,,,,,,,,,,,,,,,,,l,0,0.1808,"[""0.169"",""0.342"",""0.860"",""0.956""]","[1,1,0,1]",0,57,57,57,1,0,1,,,1,FALSE,,,,,,,,,,,,,,,,,,,,,,,,,,,,,,
,608bbdf084f82ffc3da1381d,001,2022-04-28_21h05.54.486,classification_task,2021.2.3,Win32,143.5132032,608bbdf084f82ffc3da1381d,626b377229c10585ec392f89,626b39cf7b0808b54565651d,,,,,,,,,,,,,,,,,,,,,,,a,1,0.2102,"[""0.585"",""0.342"",""0.747"",""0.956""]","[0,1,1,1]",0,58,58,58,1,0,1,,,1,FALSE,,,,,,,,,,,,,,,,,,,,,,,,,,,,,,
,608bbdf084f82ffc3da1381d,001,2022-04-28_21h05.54.486,classification_task,2021.2.3,Win32,143.5132032,608bbdf084f82ffc3da1381d,626b377229c10585ec392f89,626b39cf7b0808b54565651d,,,,,,,,,,,,,,,,,,,,,,,l,1,1.4099,"[""0.095"",""0.210"",""0.445"",""0.867""]","[1,1,1,0]",0,59,59,59,1,1,1,,,1,FALSE,,,,,,,,,,,,,,,,,,,,,,,,,,,,,,
,608bbdf084f82ffc3da1381d,001,2022-04-28_21h05.54.486,classification_task,2021.2.3,Win32,143.5132032,608bbdf084f82ffc3da1381d,626b377229c10585ec392f89,626b39cf7b0808b54565651d,,,,,,,,,,,,,,,,,,,,,,,a,1,0.4933,"[""0.169"",""0.342"",""0.747"",""0.585""]","[1,1,1,0]",0,60,60,60,1,0,1,,,1,FALSE,,,,,,,,,,,,,,,,,,,,,,,,,,,,,,
,608bbdf084f82ffc3da1381d,001,2022-04-28_21h05.54.486,classification_task,2021.2.3,Win32,143.5132032,608bbdf084f82ffc3da1381d,626b377229c10585ec392f89,626b39cf7b0808b54565651d,,,,,,,,,,,,,,,,,,,,,,,a,1,0.9707,"[""0.274"",""0.854"",""0.783"",""0.905""]","[1,0,1,1]",0,61,61,61,1,0,0,,,1,FALSE,,,,,,,,,,,,,,,,,,,,,,,,,,,,,,
,608bbdf084f82ffc3da1381d,001,2022-04-28_21h05.54.486,classification_task,2021.2.3,Win32,143.5132032,608bbdf084f82ffc3da1381d,626b377229c10585ec392f89,626b39cf7b0808b54565651d,,,,,,,,,,,,,,,,,,,,,,,l,1,1.0618,"[""0.035"",""0.583"",""0.662"",""0.708""]","[1,0,1,1]",0,62,62,62,1,1,0,,,1,FALSE,,,,,,,,,,,,,,,,,,,,,,,,,,,,,,
,608bbdf084f82ffc3da1381d,001,2022-04-28_21h05.54.486,classification_task,2021.2.3,Win32,143.5132032,608bbdf084f82ffc3da1381d,626b377229c10585ec392f89,626b39cf7b0808b54565651d,,,,,,,,,,,,,,,,,,,,,,,a,1,0.9795,"[""0.860"",""0.527"",""0.783"",""0.905""]","[0,1,1,1]",0,63,63,63,1,0,0,,,1,FALSE,,,,,,,,,,,,,,,,,,,,,,,,,,,,,,
,608bbdf084f82ffc3da1381d,001,2022-04-28_21h05.54.486,classification_task,2021.2.3,Win32,143.5132032,608bbdf084f82ffc3da1381d,626b377229c10585ec392f89,626b39cf7b0808b54565651d,,,,,,,,,,,,,,,,,,,,,,,,,,,,,,,,,,,,,,,0, ,,0,0,111.6309,0,2,2,2,1,2,3,,,,,,,,,,,,,,,,,
,608bbdf084f82ffc3da1381d,001,2022-04-28_21h05.54.486,classification_task,2021.2.3,Win32,143.5132032,608bbdf084f82ffc3da1381d,626b377229c10585ec392f89,626b39cf7b0808b54565651d,,,,,,,,,,,,,,,,,,,,,,,,,,,,,,,,,,,,,,,1,  ,,0,2.33000196,114.0234,0,2,2,2,1,2,3,,,,,,,,,,,,,,,,,
,608bbdf084f82ffc3da1381d,001,2022-04-28_21h05.54.486,classification_task,2021.2.3,Win32,143.5132032,608bbdf084f82ffc3da1381d,626b377229c10585ec392f89,626b39cf7b0808b54565651d,,,,,,,,,,,,,,,,,,,,,,,,,,,,,,,,,,,,,,,2,  ,,0,5.146972369,115.3788,0,2,2,2,1,2,3,,,,,,,,,,,,,,,,,
,608bbdf084f82ffc3da1381d,001,2022-04-28_21h05.54.486,classification_task,2021.2.3,Win32,143.5132032,608bbdf084f82ffc3da1381d,626b377229c10585ec392f89,626b39cf7b0808b54565651d,,,,,,,,,,,,,,,,,,,,,,,,,,,,,,,,,,,,,,,,,,,,,0,2,2,2,1,,3,,,,,,,,,,,,,,,,,
,608bbdf084f82ffc3da1381d,001,2022-04-28_21h05.54.486,classification_task,2021.2.3,Win32,143.5132032,608bbdf084f82ffc3da1381d,626b377229c10585ec392f89,626b39cf7b0808b54565651d,,,,,,,,,,,,,,,,,,,,,,,,,,,,,,,,,,,,,,,,,,,,,,,,,,,,,I believe the aid is a competent performer,,0.7,0,5,751.0028,0,0,0,0,1,0,,,,
,608bbdf084f82ffc3da1381d,001,2022-04-28_21h05.54.486,classification_task,2021.2.3,Win32,143.5132032,608bbdf084f82ffc3da1381d,626b377229c10585ec392f89,626b39cf7b0808b54565651d,,,,,,,,,,,,,,,,,,,,,,,,,,,,,,,,,,,,,,,,,,,,,,,,,,,,,I trust the aid,,0.7,0,5,752.5651,0,0,0,0,1,0,,,,
,608bbdf084f82ffc3da1381d,001,2022-04-28_21h05.54.486,classification_task,2021.2.3,Win32,143.5132032,608bbdf084f82ffc3da1381d,626b377229c10585ec392f89,626b39cf7b0808b54565651d,,,,,,,,,,,,,,,,,,,,,,,,,,,,,,,,,,,,,,,,,,,,,,,,,,,,,I have confidence in the advice given by the aid,,0.7,0,5,755.0927,0,0,0,0,1,0,,,,
,608bbdf084f82ffc3da1381d,001,2022-04-28_21h05.54.486,classification_task,2021.2.3,Win32,143.5132032,608bbdf084f82ffc3da1381d,626b377229c10585ec392f89,626b39cf7b0808b54565651d,,,,,,,,,,,,,,,,,,,,,,,,,,,,,,,,,,,,,,,,,,,,,,,,,,,,,I can depend on the aid,,0.7,0,5,757.4032,0,0,0,0,1,0,,,,
,608bbdf084f82ffc3da1381d,001,2022-04-28_21h05.54.486,classification_task,2021.2.3,Win32,143.5132032,608bbdf084f82ffc3da1381d,626b377229c10585ec392f89,626b39cf7b0808b54565651d,,,,,,,,,,,,,,,,,,,,,,,,,,,,,,,,,,,,,,,,,,,,,,,,,,,,,I can rely on the aid to behave in consistent ways,,0.7,0,5,759.4997,0,0,0,0,1,0,,,,
,608bbdf084f82ffc3da1381d,001,2022-04-28_21h05.54.486,classification_task,2021.2.3,Win32,143.5132032,608bbdf084f82ffc3da1381d,626b377229c10585ec392f89,626b39cf7b0808b54565651d,,,,,,,,,,,,,,,,,,,,,,,,,,,,,,,,,,,,,,,,,,,,,,,,,,,,,I can rely on the aid to do its best every time I take its advice,,0.7,0,5,764.0145,0,0,0,0,1,0,,,,
,608bbdf084f82ffc3da1381d,001,2022-04-28_21h05.54.486,classification_task,2021.2.3,Win32,143.5132032,608bbdf084f82ffc3da1381d,626b377229c10585ec392f89,626b39cf7b0808b54565651d,,,,,,,,,,,,,,,,,,,,,,,,,,,,,,,,,,,,,,,,,,,,,,,,,,,,,"On trials you completed with assistance from the aid, how frequently did you think the aid was correct?",,0.7,0,100%,,0,0,0,0,1,0,,,,
,608bbdf084f82ffc3da1381d,001,2022-04-28_21h05.54.486,classification_task,2021.2.3,Win32,143.5132032,608bbdf084f82ffc3da1381d,626b377229c10585ec392f89,626b39cf7b0808b54565651d,,,,,,,,,,,,,,,,,,,,,,,,,,,,,,,,,,,,,,,,,,,,,,,,,,,,,"On trials you completed without the aid, how frequently did you think you were correct?",,0.7,0,50%,,0,0,0,0,1,0,,,,
,608bbdf084f82ffc3da1381d,001,2022-04-28_21h05.54.486,classification_task,2021.2.3,Win32,143.5132032,608bbdf084f82ffc3da1381d,626b377229c10585ec392f89,626b39cf7b0808b54565651d,,,,,,,,,,,,,,,,,,,,,,,,,,,,,,,,,,,,,,,,,,,,,,,,,,,,,,,,,,,0,0,0,0,1,,,,,
,608bbdf084f82ffc3da1381d,001,2022-04-28_21h05.54.486,classification_task,2021.2.3,Win32,143.5132032,608bbdf084f82ffc3da1381d,626b377229c10585ec392f89,626b39cf7b0808b54565651d,,,,,,,,,,,,,,,,,,,,,,,,,,,,,,,,,,,,,,,,,,,,,,,,,,,,,,,,,,,,,,,,,return,12.754,798.6738,
,608bbdf084f82ffc3da1381d,001,2022-04-28_21h05.54.486,classification_task,2021.2.3,Win32,143.5132032,608bbdf084f82ffc3da1381d,626b377229c10585ec392f89,626b39cf7b0808b54565651d,,,,,,,,,,,,,,,,,,,,,,,,,,,,,,,,,,,,,,,,,,,,,,,,,,,,,,,,,,,,,,,,,,,,"Mozilla/5.0 (Windows NT 10.0; Win64; x64) AppleWebKit/537.36 (KHTML, like Gecko) Chrome/99.0.4844.84 Safari/537.36 OPR/85.0.4341.72"
