usingWebGL,participant,session,date,expName,psychopyVersion,OS,frameRate,study_id,signatures_friend,signatures_foe,band_ranges_top,band_ranges_bottom,formitemText,formtype,formundefined,formitemWidth,formindex,formresponse,formrt,key_resp_2.keys,key_resp_2.rt,tute_resp.keys,tute_resp.rt,tutorial.thisRepN,tutorial.thisTrialN,tutorial.thisN,tutorial.thisIndex,tutorial.ran,key_resp_4.keys,key_resp_4.rt,key_resp.keys,key_resp.corr,lines_presented,is_signal_presented,trials.thisRepN,trials.thisTrialN,trials.thisN,trials.thisIndex,trials.ran,vessel,active_band,lines,is_signal,supported_pos,catch_trial,key_resp.rt,debrief_formindex,debrief_formitemText,debrief_formtype,debrief_formitemWidth,debrief_formresponse,debrief_formrt,phases.thisRepN,phases.thisTrialN,phases.thisN,phases.thisIndex,phases.ran,phases.order,phase,key_resp_3.keys,trustitemText,trusttype,trustitemWidth,trustindex,trustresponse,trustrt,support_status.thisRepN,support_status.thisTrialN,support_status.thisN,support_status.thisIndex,support_status.ran,support_status.order,key_resp_5.keys,key_resp_5.rt,globalClockTime,userAgent,manualCondition
TRUE,6090a1a1ee7410df2cb47b12,627c6f2fd75714cd160e7ec0,2022-05-12_04h21.50.803,classification_task,2021.2.3,Win32,147.4926254,627c6715c52fd12f31907bcf,,,,,,,,,,,,,,,,,,,,,,,,,,,,,,,,,,,,,,,,,,,,,,,,,,,,,,,,,,,,,,,,,,,,,
,6090a1a1ee7410df2cb47b12,627c6f2fd75714cd160e7ec0,2022-05-12_04h21.50.803,classification_task,2021.2.3,Win32,147.4926254,627c6715c52fd12f31907bcf,"[[""0.222"",""0.336"",""0.756"",""0.913""],[""0.295"",""0.564"",""0.653"",""0.877""]]","[[""0.149"",""0.415"",""0.506"",""0.708""],[""0.115"",""0.380"",""0.469"",""0.817""]]","[1,10]","[100,1000]",Video game experience,,,0.7,0,,,,,,,,,,,,,,,,,,,,,,,,,,,,,,,,,,,,,,,,,,,,,,,,,,,,,,,,,,,,
,6090a1a1ee7410df2cb47b12,627c6f2fd75714cd160e7ec0,2022-05-12_04h21.50.803,classification_task,2021.2.3,Win32,147.4926254,627c6715c52fd12f31907bcf,,,,,Approximately how many hours did you spend playing video games in the last week?,,,0.7,0,30,,,,,,,,,,,,,,,,,,,,,,,,,,,,,,,,,,,,,,,,,,,,,,,,,,,,,,,,,,,
,6090a1a1ee7410df2cb47b12,627c6f2fd75714cd160e7ec0,2022-05-12_04h21.50.803,classification_task,2021.2.3,Win32,147.4926254,627c6715c52fd12f31907bcf,,,,,"Which game did you play the most this year? (Enter ""None"" if you didn't play any)",,,0.7,0,league of legends,,,,,,,,,,,,,,,,,,,,,,,,,,,,,,,,,,,,,,,,,,,,,,,,,,,,,,,,,,,
,6090a1a1ee7410df2cb47b12,627c6f2fd75714cd160e7ec0,2022-05-12_04h21.50.803,classification_task,2021.2.3,Win32,147.4926254,627c6715c52fd12f31907bcf,,,,,Visual perception,,,0.7,0,,,,,,,,,,,,,,,,,,,,,,,,,,,,,,,,,,,,,,,,,,,,,,,,,,,,,,,,,,,,
,6090a1a1ee7410df2cb47b12,627c6f2fd75714cd160e7ec0,2022-05-12_04h21.50.803,classification_task,2021.2.3,Win32,147.4926254,627c6715c52fd12f31907bcf,,,,,Do you have any form of color blindness?,,,0.7,0,No,20.1167,,,,,,,,,,,,,,,,,,,,,,,,,,,,,,,,,,,,,,,,,,,,,,,,,,,,,,,,,,
,6090a1a1ee7410df2cb47b12,627c6f2fd75714cd160e7ec0,2022-05-12_04h21.50.803,classification_task,2021.2.3,Win32,147.4926254,627c6715c52fd12f31907bcf,,,,,Do you use software to change the colour temperature of your screen (e.g. f.lux)?,,,0.7,0,No,24.7535,,,,,,,,,,,,,,,,,,,,,,,,,,,,,,,,,,,,,,,,,,,,,,,,,,,,,,,,,,
,6090a1a1ee7410df2cb47b12,627c6f2fd75714cd160e7ec0,2022-05-12_04h21.50.803,classification_task,2021.2.3,Win32,147.4926254,627c6715c52fd12f31907bcf,,,,,,,,,,,,space,73.8,space,9.0836,0,0,0,0,1,,,,,,,,,,,,,,,,,,,,,,,,,,,,,,,,,,,,,,,,,,,,,,,,,
,6090a1a1ee7410df2cb47b12,627c6f2fd75714cd160e7ec0,2022-05-12_04h21.50.803,classification_task,2021.2.3,Win32,147.4926254,627c6715c52fd12f31907bcf,,,,,,,,,,,,,,space,9.5007,1,0,1,0,1,,,,,,,,,,,,,,,,,,,,,,,,,,,,,,,,,,,,,,,,,,,,,,,,,
,6090a1a1ee7410df2cb47b12,627c6f2fd75714cd160e7ec0,2022-05-12_04h21.50.803,classification_task,2021.2.3,Win32,147.4926254,627c6715c52fd12f31907bcf,,,,,,,,,,,,,,space,25.0119,2,0,2,0,1,,,,,,,,,,,,,,,,,,,,,,,,,,,,,,,,,,,,,,,,,,,,,,,,,
,6090a1a1ee7410df2cb47b12,627c6f2fd75714cd160e7ec0,2022-05-12_04h21.50.803,classification_task,2021.2.3,Win32,147.4926254,627c6715c52fd12f31907bcf,,,,,,,,,,,,,,space,27.9668,3,0,3,0,1,,,,,,,,,,,,,,,,,,,,,,,,,,,,,,,,,,,,,,,,,,,,,,,,,
,6090a1a1ee7410df2cb47b12,627c6f2fd75714cd160e7ec0,2022-05-12_04h21.50.803,classification_task,2021.2.3,Win32,147.4926254,627c6715c52fd12f31907bcf,,,,,,,,,,,,,,space,19.8504,4,0,4,0,1,,,,,,,,,,,,,,,,,,,,,,,,,,,,,,,,,,,,,,,,,,,,,,,,,
,6090a1a1ee7410df2cb47b12,627c6f2fd75714cd160e7ec0,2022-05-12_04h21.50.803,classification_task,2021.2.3,Win32,147.4926254,627c6715c52fd12f31907bcf,,,,,,,,,,,,,,,,,,,,,space,15.9836,,0,"[""0.222"",""0.336"",""0.756"",""0.045""]","[1,1,1,0]",0,0,0,0,1,0,0,,,0,FALSE,,,,,,,,,,,,,,,,,,,,,,,,,,,,,,,,
,6090a1a1ee7410df2cb47b12,627c6f2fd75714cd160e7ec0,2022-05-12_04h21.50.803,classification_task,2021.2.3,Win32,147.4926254,627c6715c52fd12f31907bcf,,,,,,,,,,,,,,,,,,,,,,,l,1,"[""0.115"",""0.380"",""0.954"",""0.817""]","[1,1,0,1]",0,1,1,1,1,1,1,,,0,FALSE,3.2335,,,,,,,,,,,,,,,,,,,,,,,,,,,,,,,
,6090a1a1ee7410df2cb47b12,627c6f2fd75714cd160e7ec0,2022-05-12_04h21.50.803,classification_task,2021.2.3,Win32,147.4926254,627c6715c52fd12f31907bcf,,,,,,,,,,,,,,,,,,,,,,,l,1,"[""0.115"",""0.380"",""0.469"",""0.962""]","[1,1,1,0]",0,2,2,2,1,1,1,,,0,FALSE,2.4165,,,,,,,,,,,,,,,,,,,,,,,,,,,,,,,
,6090a1a1ee7410df2cb47b12,627c6f2fd75714cd160e7ec0,2022-05-12_04h21.50.803,classification_task,2021.2.3,Win32,147.4926254,627c6715c52fd12f31907bcf,,,,,,,,,,,,,,,,,,,,,,,l,1,"[""0.149"",""0.415"",""0.954"",""0.708""]","[1,1,0,1]",0,3,3,3,1,1,0,,,0,FALSE,2.1653,,,,,,,,,,,,,,,,,,,,,,,,,,,,,,,
,6090a1a1ee7410df2cb47b12,627c6f2fd75714cd160e7ec0,2022-05-12_04h21.50.803,classification_task,2021.2.3,Win32,147.4926254,627c6715c52fd12f31907bcf,,,,,,,,,,,,,,,,,,,,,,,a,1,"[""0.295"",""0.564"",""0.954"",""0.877""]","[1,1,0,1]",0,4,4,4,1,0,1,,,0,FALSE,2.8005,,,,,,,,,,,,,,,,,,,,,,,,,,,,,,,
,6090a1a1ee7410df2cb47b12,627c6f2fd75714cd160e7ec0,2022-05-12_04h21.50.803,classification_task,2021.2.3,Win32,147.4926254,627c6715c52fd12f31907bcf,,,,,,,,,,,,,,,,,,,,,,,a,1,"[""0.954"",""0.336"",""0.756"",""0.913""]","[0,1,1,1]",0,5,5,5,1,0,0,,,0,FALSE,2.2511,,,,,,,,,,,,,,,,,,,,,,,,,,,,,,,
,6090a1a1ee7410df2cb47b12,627c6f2fd75714cd160e7ec0,2022-05-12_04h21.50.803,classification_task,2021.2.3,Win32,147.4926254,627c6715c52fd12f31907bcf,,,,,,,,,,,,,,,,,,,,,,,l,1,"[""0.149"",""0.962"",""0.506"",""0.708""]","[1,0,1,1]",0,6,6,6,1,1,0,,,0,FALSE,2.7494,,,,,,,,,,,,,,,,,,,,,,,,,,,,,,,
,6090a1a1ee7410df2cb47b12,627c6f2fd75714cd160e7ec0,2022-05-12_04h21.50.803,classification_task,2021.2.3,Win32,147.4926254,627c6715c52fd12f31907bcf,,,,,,,,,,,,,,,,,,,,,,,l,1,"[""0.149"",""0.415"",""0.506"",""0.035""]","[1,1,1,0]",0,7,7,7,1,1,0,,,0,FALSE,5.451,,,,,,,,,,,,,,,,,,,,,,,,,,,,,,,
,6090a1a1ee7410df2cb47b12,627c6f2fd75714cd160e7ec0,2022-05-12_04h21.50.803,classification_task,2021.2.3,Win32,147.4926254,627c6715c52fd12f31907bcf,,,,,,,,,,,,,,,,,,,,,,,l,1,"[""0.969"",""0.415"",""0.506"",""0.708""]","[0,1,1,1]",0,8,8,8,1,1,0,,,0,FALSE,4.5509,,,,,,,,,,,,,,,,,,,,,,,,,,,,,,,
,6090a1a1ee7410df2cb47b12,627c6f2fd75714cd160e7ec0,2022-05-12_04h21.50.803,classification_task,2021.2.3,Win32,147.4926254,627c6715c52fd12f31907bcf,,,,,,,,,,,,,,,,,,,,,,,a,1,"[""0.222"",""0.058"",""0.756"",""0.913""]","[1,0,1,1]",0,9,9,9,1,0,0,,,0,FALSE,3.3337,,,,,,,,,,,,,,,,,,,,,,,,,,,,,,,
,6090a1a1ee7410df2cb47b12,627c6f2fd75714cd160e7ec0,2022-05-12_04h21.50.803,classification_task,2021.2.3,Win32,147.4926254,627c6715c52fd12f31907bcf,,,,,,,,,,,,,,,,,,,,,,,l,1,"[""0.115"",""0.035"",""0.469"",""0.817""]","[1,0,1,1]",0,10,10,10,1,1,1,,,0,FALSE,5.1673,,,,,,,,,,,,,,,,,,,,,,,,,,,,,,,
,6090a1a1ee7410df2cb47b12,627c6f2fd75714cd160e7ec0,2022-05-12_04h21.50.803,classification_task,2021.2.3,Win32,147.4926254,627c6715c52fd12f31907bcf,,,,,,,,,,,,,,,,,,,,,,,a,1,"[""0.295"",""0.564"",""0.653"",""0.036""]","[1,1,1,0]",0,11,11,11,1,0,1,,,0,FALSE,4.8838,,,,,,,,,,,,,,,,,,,,,,,,,,,,,,,
,6090a1a1ee7410df2cb47b12,627c6f2fd75714cd160e7ec0,2022-05-12_04h21.50.803,classification_task,2021.2.3,Win32,147.4926254,627c6715c52fd12f31907bcf,,,,,,,,,,,,,,,,,,,,,,,l,1,"[""0.971"",""0.380"",""0.469"",""0.817""]","[0,1,1,1]",0,12,12,12,1,1,1,,,0,FALSE,3.2012,,,,,,,,,,,,,,,,,,,,,,,,,,,,,,,
,6090a1a1ee7410df2cb47b12,627c6f2fd75714cd160e7ec0,2022-05-12_04h21.50.803,classification_task,2021.2.3,Win32,147.4926254,627c6715c52fd12f31907bcf,,,,,,,,,,,,,,,,,,,,,,,a,1,"[""0.222"",""0.336"",""0.954"",""0.913""]","[1,1,0,1]",0,13,13,13,1,0,0,,,0,FALSE,2.6337,,,,,,,,,,,,,,,,,,,,,,,,,,,,,,,
,6090a1a1ee7410df2cb47b12,627c6f2fd75714cd160e7ec0,2022-05-12_04h21.50.803,classification_task,2021.2.3,Win32,147.4926254,627c6715c52fd12f31907bcf,,,,,,,,,,,,,,,,,,,,,,,a,1,"[""0.073"",""0.564"",""0.653"",""0.877""]","[0,1,1,1]",0,14,14,14,1,0,1,,,0,FALSE,5.0503,,,,,,,,,,,,,,,,,,,,,,,,,,,,,,,
,6090a1a1ee7410df2cb47b12,627c6f2fd75714cd160e7ec0,2022-05-12_04h21.50.803,classification_task,2021.2.3,Win32,147.4926254,627c6715c52fd12f31907bcf,,,,,,,,,,,,,,,,,,,,,,,a,1,"[""0.295"",""0.035"",""0.653"",""0.877""]","[1,0,1,1]",0,15,15,15,1,0,1,,,0,FALSE,5.9012,,,,,,,,,,,,,,,,,,,,,,,,,,,,,,,
,6090a1a1ee7410df2cb47b12,627c6f2fd75714cd160e7ec0,2022-05-12_04h21.50.803,classification_task,2021.2.3,Win32,147.4926254,627c6715c52fd12f31907bcf,,,,,,,,,,,,,,,,,,,,,,,l,1,"[""0.115"",""0.380"",""0.187"",""0.817""]","[1,1,0,1]",0,16,16,16,1,1,1,,,0,FALSE,2.5178,,,,,,,,,,,,,,,,,,,,,,,,,,,,,,,
,6090a1a1ee7410df2cb47b12,627c6f2fd75714cd160e7ec0,2022-05-12_04h21.50.803,classification_task,2021.2.3,Win32,147.4926254,627c6715c52fd12f31907bcf,,,,,,,,,,,,,,,,,,,,,,,a,1,"[""0.222"",""0.952"",""0.756"",""0.913""]","[1,0,1,1]",0,17,17,17,1,0,0,,,0,FALSE,2.8671,,,,,,,,,,,,,,,,,,,,,,,,,,,,,,,
,6090a1a1ee7410df2cb47b12,627c6f2fd75714cd160e7ec0,2022-05-12_04h21.50.803,classification_task,2021.2.3,Win32,147.4926254,627c6715c52fd12f31907bcf,,,,,,,,,,,,,,,,,,,,,,,l,1,"[""0.115"",""0.380"",""0.469"",""0.952""]","[1,1,1,0]",0,18,18,18,1,1,1,,,0,FALSE,2.5671,,,,,,,,,,,,,,,,,,,,,,,,,,,,,,,
,6090a1a1ee7410df2cb47b12,627c6f2fd75714cd160e7ec0,2022-05-12_04h21.50.803,classification_task,2021.2.3,Win32,147.4926254,627c6715c52fd12f31907bcf,,,,,,,,,,,,,,,,,,,,,,,a,1,"[""0.295"",""0.564"",""0.045"",""0.877""]","[1,1,0,1]",0,19,19,19,1,0,1,,,0,FALSE,5.3846,,,,,,,,,,,,,,,,,,,,,,,,,,,,,,,
,6090a1a1ee7410df2cb47b12,627c6f2fd75714cd160e7ec0,2022-05-12_04h21.50.803,classification_task,2021.2.3,Win32,147.4926254,627c6715c52fd12f31907bcf,,,,,,,,,,,,,,,,,,,,,,,l,1,"[""0.115"",""0.045"",""0.469"",""0.817""]","[1,0,1,1]",0,20,20,20,1,1,1,,,0,FALSE,4.5676,,,,,,,,,,,,,,,,,,,,,,,,,,,,,,,
,6090a1a1ee7410df2cb47b12,627c6f2fd75714cd160e7ec0,2022-05-12_04h21.50.803,classification_task,2021.2.3,Win32,147.4926254,627c6715c52fd12f31907bcf,,,,,,,,,,,,,,,,,,,,,,,a,1,"[""0.295"",""0.564"",""0.653"",""0.050""]","[1,1,1,0]",0,21,21,21,1,0,1,,,0,FALSE,6.4004,,,,,,,,,,,,,,,,,,,,,,,,,,,,,,,
,6090a1a1ee7410df2cb47b12,627c6f2fd75714cd160e7ec0,2022-05-12_04h21.50.803,classification_task,2021.2.3,Win32,147.4926254,627c6715c52fd12f31907bcf,,,,,,,,,,,,,,,,,,,,,,,l,1,"[""0.962"",""0.415"",""0.506"",""0.708""]","[0,1,1,1]",0,22,22,22,1,1,0,,,0,FALSE,5.0177,,,,,,,,,,,,,,,,,,,,,,,,,,,,,,,
,6090a1a1ee7410df2cb47b12,627c6f2fd75714cd160e7ec0,2022-05-12_04h21.50.803,classification_task,2021.2.3,Win32,147.4926254,627c6715c52fd12f31907bcf,,,,,,,,,,,,,,,,,,,,,,,l,1,"[""0.149"",""0.415"",""0.506"",""0.060""]","[1,1,1,0]",0,23,23,23,1,1,0,,,0,FALSE,5.449,,,,,,,,,,,,,,,,,,,,,,,,,,,,,,,
,6090a1a1ee7410df2cb47b12,627c6f2fd75714cd160e7ec0,2022-05-12_04h21.50.803,classification_task,2021.2.3,Win32,147.4926254,627c6715c52fd12f31907bcf,,,,,,,,,,,,,,,,,,,,,,,a,1,"[""0.295"",""0.045"",""0.653"",""0.877""]","[1,0,1,1]",0,24,24,24,1,0,1,,,0,FALSE,5.3513,,,,,,,,,,,,,,,,,,,,,,,,,,,,,,,
,6090a1a1ee7410df2cb47b12,627c6f2fd75714cd160e7ec0,2022-05-12_04h21.50.803,classification_task,2021.2.3,Win32,147.4926254,627c6715c52fd12f31907bcf,,,,,,,,,,,,,,,,,,,,,,,a,1,"[""0.060"",""0.336"",""0.756"",""0.913""]","[0,1,1,1]",0,25,25,25,1,0,0,,,0,FALSE,4.7835,,,,,,,,,,,,,,,,,,,,,,,,,,,,,,,
,6090a1a1ee7410df2cb47b12,627c6f2fd75714cd160e7ec0,2022-05-12_04h21.50.803,classification_task,2021.2.3,Win32,147.4926254,627c6715c52fd12f31907bcf,,,,,,,,,,,,,,,,,,,,,,,a,1,"[""0.222"",""0.336"",""0.756"",""0.969""]","[1,1,1,0]",0,26,26,26,1,0,0,,,0,FALSE,4.5842,,,,,,,,,,,,,,,,,,,,,,,,,,,,,,,
,6090a1a1ee7410df2cb47b12,627c6f2fd75714cd160e7ec0,2022-05-12_04h21.50.803,classification_task,2021.2.3,Win32,147.4926254,627c6715c52fd12f31907bcf,,,,,,,,,,,,,,,,,,,,,,,a,1,"[""0.222"",""0.336"",""0.045"",""0.913""]","[1,1,0,1]",0,27,27,27,1,0,0,,,0,FALSE,5.6013,,,,,,,,,,,,,,,,,,,,,,,,,,,,,,,
,6090a1a1ee7410df2cb47b12,627c6f2fd75714cd160e7ec0,2022-05-12_04h21.50.803,classification_task,2021.2.3,Win32,147.4926254,627c6715c52fd12f31907bcf,,,,,,,,,,,,,,,,,,,,,,,l,1,"[""0.149"",""0.415"",""0.035"",""0.708""]","[1,1,0,1]",0,28,28,28,1,1,0,,,0,FALSE,3.2673,,,,,,,,,,,,,,,,,,,,,,,,,,,,,,,
,6090a1a1ee7410df2cb47b12,627c6f2fd75714cd160e7ec0,2022-05-12_04h21.50.803,classification_task,2021.2.3,Win32,147.4926254,627c6715c52fd12f31907bcf,,,,,,,,,,,,,,,,,,,,,,,a,1,"[""0.050"",""0.564"",""0.653"",""0.877""]","[0,1,1,1]",0,29,29,29,1,0,1,,,0,FALSE,2.7673,,,,,,,,,,,,,,,,,,,,,,,,,,,,,,,
,6090a1a1ee7410df2cb47b12,627c6f2fd75714cd160e7ec0,2022-05-12_04h21.50.803,classification_task,2021.2.3,Win32,147.4926254,627c6715c52fd12f31907bcf,,,,,,,,,,,,,,,,,,,,,,,l,1,"[""0.053"",""0.380"",""0.469"",""0.817""]","[0,1,1,1]",0,30,30,30,1,1,1,,,0,FALSE,2.1338,,,,,,,,,,,,,,,,,,,,,,,,,,,,,,,
,6090a1a1ee7410df2cb47b12,627c6f2fd75714cd160e7ec0,2022-05-12_04h21.50.803,classification_task,2021.2.3,Win32,147.4926254,627c6715c52fd12f31907bcf,,,,,,,,,,,,,,,,,,,,,,,l,1,"[""0.149"",""0.971"",""0.506"",""0.708""]","[1,0,1,1]",0,31,31,31,1,1,0,,,0,FALSE,5.0172,,,,,,,,,,,,,,,,,,,,,,,,,,,,,,,
,6090a1a1ee7410df2cb47b12,627c6f2fd75714cd160e7ec0,2022-05-12_04h21.50.803,classification_task,2021.2.3,Win32,147.4926254,627c6715c52fd12f31907bcf,,,,,,,,,,,,,,,,,,,,,,,a,1,"[""0.050"",""0.336"",""0.756"",""0.913""]","[0,1,1,1]",0,32,32,32,1,0,0,,,0,FALSE,3.8999,,,,,,,,,,,,,,,,,,,,,,,,,,,,,,,
,6090a1a1ee7410df2cb47b12,627c6f2fd75714cd160e7ec0,2022-05-12_04h21.50.803,classification_task,2021.2.3,Win32,147.4926254,627c6715c52fd12f31907bcf,,,,,,,,,,,,,,,,,,,,,,,a,0,"[""0.149"",""0.415"",""0.257"",""0.708""]","[1,1,0,1]",0,33,33,33,1,1,0,,,0,FALSE,3.9343,,,,,,,,,,,,,,,,,,,,,,,,,,,,,,,
,6090a1a1ee7410df2cb47b12,627c6f2fd75714cd160e7ec0,2022-05-12_04h21.50.803,classification_task,2021.2.3,Win32,147.4926254,627c6715c52fd12f31907bcf,,,,,,,,,,,,,,,,,,,,,,,a,0,"[""0.149"",""0.971"",""0.506"",""0.708""]","[1,0,1,1]",0,34,34,34,1,1,0,,,0,FALSE,3.15,,,,,,,,,,,,,,,,,,,,,,,,,,,,,,,
,6090a1a1ee7410df2cb47b12,627c6f2fd75714cd160e7ec0,2022-05-12_04h21.50.803,classification_task,2021.2.3,Win32,147.4926254,627c6715c52fd12f31907bcf,,,,,,,,,,,,,,,,,,,,,,,a,0,"[""0.045"",""0.380"",""0.469"",""0.817""]","[0,1,1,1]",0,35,35,35,1,1,1,,,0,FALSE,2.317,,,,,,,,,,,,,,,,,,,,,,,,,,,,,,,
,6090a1a1ee7410df2cb47b12,627c6f2fd75714cd160e7ec0,2022-05-12_04h21.50.803,classification_task,2021.2.3,Win32,147.4926254,627c6715c52fd12f31907bcf,,,,,,,,,,,,,,,,,,,,,,,a,0,"[""0.115"",""0.380"",""0.469"",""0.187""]","[1,1,1,0]",0,36,36,36,1,1,1,,,0,FALSE,2.7661,,,,,,,,,,,,,,,,,,,,,,,,,,,,,,,
,6090a1a1ee7410df2cb47b12,627c6f2fd75714cd160e7ec0,2022-05-12_04h21.50.803,classification_task,2021.2.3,Win32,147.4926254,627c6715c52fd12f31907bcf,,,,,,,,,,,,,,,,,,,,,,,a,1,"[""0.295"",""0.564"",""0.060"",""0.877""]","[1,1,0,1]",0,37,37,37,1,0,1,,,0,FALSE,2.649,,,,,,,,,,,,,,,,,,,,,,,,,,,,,,,
,6090a1a1ee7410df2cb47b12,627c6f2fd75714cd160e7ec0,2022-05-12_04h21.50.803,classification_task,2021.2.3,Win32,147.4926254,627c6715c52fd12f31907bcf,,,,,,,,,,,,,,,,,,,,,,,a,1,"[""0.295"",""0.564"",""0.653"",""0.045""]","[1,1,1,0]",0,38,38,38,1,0,1,,,0,FALSE,2.7013,,,,,,,,,,,,,,,,,,,,,,,,,,,,,,,
,6090a1a1ee7410df2cb47b12,627c6f2fd75714cd160e7ec0,2022-05-12_04h21.50.803,classification_task,2021.2.3,Win32,147.4926254,627c6715c52fd12f31907bcf,,,,,,,,,,,,,,,,,,,,,,,a,1,"[""0.295"",""0.257"",""0.653"",""0.877""]","[1,0,1,1]",0,39,39,39,1,0,1,,,0,FALSE,2.7835,,,,,,,,,,,,,,,,,,,,,,,,,,,,,,,
,6090a1a1ee7410df2cb47b12,627c6f2fd75714cd160e7ec0,2022-05-12_04h21.50.803,classification_task,2021.2.3,Win32,147.4926254,627c6715c52fd12f31907bcf,,,,,,,,,,,,,,,,,,,,,,,l,1,"[""0.962"",""0.415"",""0.506"",""0.708""]","[0,1,1,1]",0,40,40,40,1,1,0,,,0,FALSE,1.7836,,,,,,,,,,,,,,,,,,,,,,,,,,,,,,,
,6090a1a1ee7410df2cb47b12,627c6f2fd75714cd160e7ec0,2022-05-12_04h21.50.803,classification_task,2021.2.3,Win32,147.4926254,627c6715c52fd12f31907bcf,,,,,,,,,,,,,,,,,,,,,,,a,0,"[""0.149"",""0.415"",""0.506"",""0.187""]","[1,1,1,0]",0,41,41,41,1,1,0,,,0,FALSE,2.9352,,,,,,,,,,,,,,,,,,,,,,,,,,,,,,,
,6090a1a1ee7410df2cb47b12,627c6f2fd75714cd160e7ec0,2022-05-12_04h21.50.803,classification_task,2021.2.3,Win32,147.4926254,627c6715c52fd12f31907bcf,,,,,,,,,,,,,,,,,,,,,,,l,0,"[""0.222"",""0.954"",""0.756"",""0.913""]","[1,0,1,1]",0,42,42,42,1,0,0,,,0,FALSE,1.4503,,,,,,,,,,,,,,,,,,,,,,,,,,,,,,,
,6090a1a1ee7410df2cb47b12,627c6f2fd75714cd160e7ec0,2022-05-12_04h21.50.803,classification_task,2021.2.3,Win32,147.4926254,627c6715c52fd12f31907bcf,,,,,,,,,,,,,,,,,,,,,,,l,0,"[""0.060"",""0.564"",""0.653"",""0.877""]","[0,1,1,1]",0,43,43,43,1,0,1,,,0,FALSE,1.7513,,,,,,,,,,,,,,,,,,,,,,,,,,,,,,,
,6090a1a1ee7410df2cb47b12,627c6f2fd75714cd160e7ec0,2022-05-12_04h21.50.803,classification_task,2021.2.3,Win32,147.4926254,627c6715c52fd12f31907bcf,,,,,,,,,,,,,,,,,,,,,,,a,1,"[""0.222"",""0.336"",""0.035"",""0.913""]","[1,1,0,1]",0,44,44,44,1,0,0,,,0,FALSE,4.0685,,,,,,,,,,,,,,,,,,,,,,,,,,,,,,,
,6090a1a1ee7410df2cb47b12,627c6f2fd75714cd160e7ec0,2022-05-12_04h21.50.803,classification_task,2021.2.3,Win32,147.4926254,627c6715c52fd12f31907bcf,,,,,,,,,,,,,,,,,,,,,,,l,0,"[""0.222"",""0.336"",""0.756"",""0.962""]","[1,1,1,0]",0,45,45,45,1,0,0,,,0,FALSE,2.0166,,,,,,,,,,,,,,,,,,,,,,,,,,,,,,,
,6090a1a1ee7410df2cb47b12,627c6f2fd75714cd160e7ec0,2022-05-12_04h21.50.803,classification_task,2021.2.3,Win32,147.4926254,627c6715c52fd12f31907bcf,,,,,,,,,,,,,,,,,,,,,,,a,0,"[""0.115"",""0.045"",""0.469"",""0.817""]","[1,0,1,1]",0,46,46,46,1,1,1,,,0,FALSE,3.1662,,,,,,,,,,,,,,,,,,,,,,,,,,,,,,,
,6090a1a1ee7410df2cb47b12,627c6f2fd75714cd160e7ec0,2022-05-12_04h21.50.803,classification_task,2021.2.3,Win32,147.4926254,627c6715c52fd12f31907bcf,,,,,,,,,,,,,,,,,,,,,,,l,1,"[""0.115"",""0.380"",""0.058"",""0.817""]","[1,1,0,1]",0,47,47,47,1,1,1,,,0,FALSE,1.9505,,,,,,,,,,,,,,,,,,,,,,,,,,,,,,,
,6090a1a1ee7410df2cb47b12,627c6f2fd75714cd160e7ec0,2022-05-12_04h21.50.803,classification_task,2021.2.3,Win32,147.4926254,627c6715c52fd12f31907bcf,,,,,,,,,,,,,,,,,,,,,,,l,1,"[""0.149"",""0.954"",""0.506"",""0.708""]","[1,0,1,1]",0,48,48,48,1,1,0,,,0,FALSE,1.9329,,,,,,,,,,,,,,,,,,,,,,,,,,,,,,,
,6090a1a1ee7410df2cb47b12,627c6f2fd75714cd160e7ec0,2022-05-12_04h21.50.803,classification_task,2021.2.3,Win32,147.4926254,627c6715c52fd12f31907bcf,,,,,,,,,,,,,,,,,,,,,,,a,1,"[""0.222"",""0.336"",""0.756"",""0.073""]","[1,1,1,0]",0,49,49,49,1,0,0,,,0,FALSE,1.8337,,,,,,,,,,,,,,,,,,,,,,,,,,,,,,,
,6090a1a1ee7410df2cb47b12,627c6f2fd75714cd160e7ec0,2022-05-12_04h21.50.803,classification_task,2021.2.3,Win32,147.4926254,627c6715c52fd12f31907bcf,,,,,,,,,,,,,,,,,,,,,,,a,1,"[""0.971"",""0.564"",""0.653"",""0.877""]","[0,1,1,1]",0,50,50,50,1,0,1,,,0,FALSE,3.4001,,,,,,,,,,,,,,,,,,,,,,,,,,,,,,,
,6090a1a1ee7410df2cb47b12,627c6f2fd75714cd160e7ec0,2022-05-12_04h21.50.803,classification_task,2021.2.3,Win32,147.4926254,627c6715c52fd12f31907bcf,,,,,,,,,,,,,,,,,,,,,,,a,0,"[""0.115"",""0.380"",""0.469"",""0.187""]","[1,1,1,0]",0,51,51,51,1,1,1,,,0,FALSE,1.9011,,,,,,,,,,,,,,,,,,,,,,,,,,,,,,,
,6090a1a1ee7410df2cb47b12,627c6f2fd75714cd160e7ec0,2022-05-12_04h21.50.803,classification_task,2021.2.3,Win32,147.4926254,627c6715c52fd12f31907bcf,,,,,,,,,,,,,,,,,,,,,,,a,0,"[""0.149"",""0.415"",""0.954"",""0.708""]","[1,1,0,1]",0,52,52,52,1,1,0,,,0,FALSE,2.9997,,,,,,,,,,,,,,,,,,,,,,,,,,,,,,,
,6090a1a1ee7410df2cb47b12,627c6f2fd75714cd160e7ec0,2022-05-12_04h21.50.803,classification_task,2021.2.3,Win32,147.4926254,627c6715c52fd12f31907bcf,,,,,,,,,,,,,,,,,,,,,,,l,1,"[""0.115"",""0.045"",""0.469"",""0.817""]","[1,0,1,1]",0,53,53,53,1,1,1,,,0,FALSE,2.9005,,,,,,,,,,,,,,,,,,,,,,,,,,,,,,,
,6090a1a1ee7410df2cb47b12,627c6f2fd75714cd160e7ec0,2022-05-12_04h21.50.803,classification_task,2021.2.3,Win32,147.4926254,627c6715c52fd12f31907bcf,,,,,,,,,,,,,,,,,,,,,,,a,0,"[""0.149"",""0.415"",""0.506"",""0.954""]","[1,1,1,0]",0,54,54,54,1,1,0,,,0,FALSE,2.9504,,,,,,,,,,,,,,,,,,,,,,,,,,,,,,,
,6090a1a1ee7410df2cb47b12,627c6f2fd75714cd160e7ec0,2022-05-12_04h21.50.803,classification_task,2021.2.3,Win32,147.4926254,627c6715c52fd12f31907bcf,,,,,,,,,,,,,,,,,,,,,,,a,1,"[""0.222"",""0.336"",""0.954"",""0.913""]","[1,1,0,1]",0,55,55,55,1,0,0,,,0,FALSE,1.1166,,,,,,,,,,,,,,,,,,,,,,,,,,,,,,,
,6090a1a1ee7410df2cb47b12,627c6f2fd75714cd160e7ec0,2022-05-12_04h21.50.803,classification_task,2021.2.3,Win32,147.4926254,627c6715c52fd12f31907bcf,,,,,,,,,,,,,,,,,,,,,,,l,1,"[""0.058"",""0.415"",""0.506"",""0.708""]","[0,1,1,1]",0,56,56,56,1,1,0,,,0,FALSE,2.3006,,,,,,,,,,,,,,,,,,,,,,,,,,,,,,,
,6090a1a1ee7410df2cb47b12,627c6f2fd75714cd160e7ec0,2022-05-12_04h21.50.803,classification_task,2021.2.3,Win32,147.4926254,627c6715c52fd12f31907bcf,,,,,,,,,,,,,,,,,,,,,,,l,0,"[""0.954"",""0.336"",""0.756"",""0.913""]","[0,1,1,1]",0,57,57,57,1,0,0,,,0,FALSE,2.034,,,,,,,,,,,,,,,,,,,,,,,,,,,,,,,
,6090a1a1ee7410df2cb47b12,627c6f2fd75714cd160e7ec0,2022-05-12_04h21.50.803,classification_task,2021.2.3,Win32,147.4926254,627c6715c52fd12f31907bcf,,,,,,,,,,,,,,,,,,,,,,,a,1,"[""0.295"",""0.564"",""0.971"",""0.877""]","[1,1,0,1]",0,58,58,58,1,0,1,,,0,FALSE,5.0334,,,,,,,,,,,,,,,,,,,,,,,,,,,,,,,
,6090a1a1ee7410df2cb47b12,627c6f2fd75714cd160e7ec0,2022-05-12_04h21.50.803,classification_task,2021.2.3,Win32,147.4926254,627c6715c52fd12f31907bcf,,,,,,,,,,,,,,,,,,,,,,,a,1,"[""0.222"",""0.954"",""0.756"",""0.913""]","[1,0,1,1]",0,59,59,59,1,0,0,,,0,FALSE,1.8332,,,,,,,,,,,,,,,,,,,,,,,,,,,,,,,
,6090a1a1ee7410df2cb47b12,627c6f2fd75714cd160e7ec0,2022-05-12_04h21.50.803,classification_task,2021.2.3,Win32,147.4926254,627c6715c52fd12f31907bcf,,,,,,,,,,,,,,,,,,,,,,,l,1,"[""0.115"",""0.380"",""0.969"",""0.817""]","[1,1,0,1]",0,60,60,60,1,1,1,,,0,FALSE,1.9506,,,,,,,,,,,,,,,,,,,,,,,,,,,,,,,
,6090a1a1ee7410df2cb47b12,627c6f2fd75714cd160e7ec0,2022-05-12_04h21.50.803,classification_task,2021.2.3,Win32,147.4926254,627c6715c52fd12f31907bcf,,,,,,,,,,,,,,,,,,,,,,,a,0,"[""0.058"",""0.380"",""0.469"",""0.817""]","[0,1,1,1]",0,61,61,61,1,1,1,,,0,FALSE,3.1849,,,,,,,,,,,,,,,,,,,,,,,,,,,,,,,
,6090a1a1ee7410df2cb47b12,627c6f2fd75714cd160e7ec0,2022-05-12_04h21.50.803,classification_task,2021.2.3,Win32,147.4926254,627c6715c52fd12f31907bcf,,,,,,,,,,,,,,,,,,,,,,,a,1,"[""0.295"",""0.036"",""0.653"",""0.877""]","[1,0,1,1]",0,62,62,62,1,0,1,,,0,FALSE,1.9834,,,,,,,,,,,,,,,,,,,,,,,,,,,,,,,
,6090a1a1ee7410df2cb47b12,627c6f2fd75714cd160e7ec0,2022-05-12_04h21.50.803,classification_task,2021.2.3,Win32,147.4926254,627c6715c52fd12f31907bcf,,,,,,,,,,,,,,,,,,,,,,,l,0,"[""0.295"",""0.564"",""0.653"",""0.036""]","[1,1,1,0]",0,63,63,63,1,0,1,,,0,FALSE,1.7835,,,,,,,,,,,,,,,,,,,,,,,,,,,,,,,
,6090a1a1ee7410df2cb47b12,627c6f2fd75714cd160e7ec0,2022-05-12_04h21.50.803,classification_task,2021.2.3,Win32,147.4926254,627c6715c52fd12f31907bcf,,,,,,,,,,,,,,,,,,,,,,,,,,,,,,,,,,,,,,,0, ,,0,4.828532236,515.1216,0,0,0,0,1,2,1,,,,,,,,,,,,,,,,,,
,6090a1a1ee7410df2cb47b12,627c6f2fd75714cd160e7ec0,2022-05-12_04h21.50.803,classification_task,2021.2.3,Win32,147.4926254,627c6715c52fd12f31907bcf,,,,,,,,,,,,,,,,,,,,,,,,,,,,,,,,,,,,,,,1,  ,,0,9.066235548,520.6038,0,0,0,0,1,2,1,,,,,,,,,,,,,,,,,,
,6090a1a1ee7410df2cb47b12,627c6f2fd75714cd160e7ec0,2022-05-12_04h21.50.803,classification_task,2021.2.3,Win32,147.4926254,627c6715c52fd12f31907bcf,,,,,,,,,,,,,,,,,,,,,,,,,,,,,,,,,,,,,,,2,  ,,0,1.840094062,529.3863,0,0,0,0,1,2,1,,,,,,,,,,,,,,,,,,
,6090a1a1ee7410df2cb47b12,627c6f2fd75714cd160e7ec0,2022-05-12_04h21.50.803,classification_task,2021.2.3,Win32,147.4926254,627c6715c52fd12f31907bcf,,,,,,,,,,,,,,,,,,,,,,,,,,,,,,,,,,,,,,,,,,,,,0,0,0,0,1,,1,,,,,,,,,,,,,,,,,,
,6090a1a1ee7410df2cb47b12,627c6f2fd75714cd160e7ec0,2022-05-12_04h21.50.803,classification_task,2021.2.3,Win32,147.4926254,627c6715c52fd12f31907bcf,,,,,,,,,,,,,,,,,,,,,space,14.5504,a,1,"[""0.050"",""0.564"",""0.653"",""0.877""]","[0,1,1,1]",0,0,0,0,1,0,1,,,0,FALSE,5.8182,,,,,,,,,,,,,,,,,,,,,,,,,,,,,,,
,6090a1a1ee7410df2cb47b12,627c6f2fd75714cd160e7ec0,2022-05-12_04h21.50.803,classification_task,2021.2.3,Win32,147.4926254,627c6715c52fd12f31907bcf,,,,,,,,,,,,,,,,,,,,,,,l,1,"[""0.149"",""0.415"",""0.506"",""0.036""]","[1,1,1,0]",0,1,1,1,1,1,0,,,0,FALSE,2.1011,,,,,,,,,,,,,,,,,,,,,,,,,,,,,,,
,6090a1a1ee7410df2cb47b12,627c6f2fd75714cd160e7ec0,2022-05-12_04h21.50.803,classification_task,2021.2.3,Win32,147.4926254,627c6715c52fd12f31907bcf,,,,,,,,,,,,,,,,,,,,,,,a,1,"[""0.222"",""0.954"",""0.756"",""0.913""]","[1,0,1,1]",0,2,2,2,1,0,0,,,0,FALSE,1.8508,,,,,,,,,,,,,,,,,,,,,,,,,,,,,,,
,6090a1a1ee7410df2cb47b12,627c6f2fd75714cd160e7ec0,2022-05-12_04h21.50.803,classification_task,2021.2.3,Win32,147.4926254,627c6715c52fd12f31907bcf,,,,,,,,,,,,,,,,,,,,,,,l,0,"[""0.295"",""0.564"",""0.653"",""0.954""]","[1,1,1,0]",0,3,3,3,1,0,1,,,0,FALSE,2.467,,,,,,,,,,,,,,,,,,,,,,,,,,,,,,,
,6090a1a1ee7410df2cb47b12,627c6f2fd75714cd160e7ec0,2022-05-12_04h21.50.803,classification_task,2021.2.3,Win32,147.4926254,627c6715c52fd12f31907bcf,,,,,,,,,,,,,,,,,,,,,,,a,1,"[""0.053"",""0.336"",""0.756"",""0.913""]","[0,1,1,1]",0,4,4,4,1,0,0,,,0,FALSE,1.8839,,,,,,,,,,,,,,,,,,,,,,,,,,,,,,,
,6090a1a1ee7410df2cb47b12,627c6f2fd75714cd160e7ec0,2022-05-12_04h21.50.803,classification_task,2021.2.3,Win32,147.4926254,627c6715c52fd12f31907bcf,,,,,,,,,,,,,,,,,,,,,,,a,1,"[""0.222"",""0.336"",""0.756"",""0.073""]","[1,1,1,0]",0,5,5,5,1,0,0,,,0,FALSE,1.8334,,,,,,,,,,,,,,,,,,,,,,,,,,,,,,,
,6090a1a1ee7410df2cb47b12,627c6f2fd75714cd160e7ec0,2022-05-12_04h21.50.803,classification_task,2021.2.3,Win32,147.4926254,627c6715c52fd12f31907bcf,,,,,,,,,,,,,,,,,,,,,,,l,0,"[""0.295"",""0.952"",""0.653"",""0.877""]","[1,0,1,1]",0,6,6,6,1,0,1,,,0,FALSE,1.2345,,,,,,,,,,,,,,,,,,,,,,,,,,,,,,,
,6090a1a1ee7410df2cb47b12,627c6f2fd75714cd160e7ec0,2022-05-12_04h21.50.803,classification_task,2021.2.3,Win32,147.4926254,627c6715c52fd12f31907bcf,,,,,,,,,,,,,,,,,,,,,,,l,1,"[""0.149"",""0.035"",""0.506"",""0.708""]","[1,0,1,1]",0,7,7,7,1,1,0,,,0,FALSE,1.2826,,,,,,,,,,,,,,,,,,,,,,,,,,,,,,,
,6090a1a1ee7410df2cb47b12,627c6f2fd75714cd160e7ec0,2022-05-12_04h21.50.803,classification_task,2021.2.3,Win32,147.4926254,627c6715c52fd12f31907bcf,,,,,,,,,,,,,,,,,,,,,,,l,1,"[""0.149"",""0.415"",""0.060"",""0.708""]","[1,1,0,1]",0,8,8,8,1,1,0,,,0,FALSE,1.1667,,,,,,,,,,,,,,,,,,,,,,,,,,,,,,,
,6090a1a1ee7410df2cb47b12,627c6f2fd75714cd160e7ec0,2022-05-12_04h21.50.803,classification_task,2021.2.3,Win32,147.4926254,627c6715c52fd12f31907bcf,,,,,,,,,,,,,,,,,,,,,,,a,0,"[""0.115"",""0.060"",""0.469"",""0.817""]","[1,0,1,1]",0,9,9,9,1,1,1,,,0,FALSE,2.018,,,,,,,,,,,,,,,,,,,,,,,,,,,,,,,
,6090a1a1ee7410df2cb47b12,627c6f2fd75714cd160e7ec0,2022-05-12_04h21.50.803,classification_task,2021.2.3,Win32,147.4926254,627c6715c52fd12f31907bcf,,,,,,,,,,,,,,,,,,,,,,,a,0,"[""0.073"",""0.380"",""0.469"",""0.817""]","[0,1,1,1]",0,10,10,10,1,1,1,,,0,FALSE,1.7164,,,,,,,,,,,,,,,,,,,,,,,,,,,,,,,
,6090a1a1ee7410df2cb47b12,627c6f2fd75714cd160e7ec0,2022-05-12_04h21.50.803,classification_task,2021.2.3,Win32,147.4926254,627c6715c52fd12f31907bcf,,,,,,,,,,,,,,,,,,,,,,,a,0,"[""0.115"",""0.380"",""0.469"",""0.035""]","[1,1,1,0]",0,11,11,11,1,1,1,,,0,FALSE,2.8006,,,,,,,,,,,,,,,,,,,,,,,,,,,,,,,
,6090a1a1ee7410df2cb47b12,627c6f2fd75714cd160e7ec0,2022-05-12_04h21.50.803,classification_task,2021.2.3,Win32,147.4926254,627c6715c52fd12f31907bcf,,,,,,,,,,,,,,,,,,,,,,,l,1,"[""0.187"",""0.415"",""0.506"",""0.708""]","[0,1,1,1]",0,12,12,12,1,1,0,,,0,FALSE,1.3671,,,,,,,,,,,,,,,,,,,,,,,,,,,,,,,
,6090a1a1ee7410df2cb47b12,627c6f2fd75714cd160e7ec0,2022-05-12_04h21.50.803,classification_task,2021.2.3,Win32,147.4926254,627c6715c52fd12f31907bcf,,,,,,,,,,,,,,,,,,,,,,,a,0,"[""0.115"",""0.380"",""0.073"",""0.817""]","[1,1,0,1]",0,13,13,13,1,1,1,,,0,FALSE,2.4171,,,,,,,,,,,,,,,,,,,,,,,,,,,,,,,
,6090a1a1ee7410df2cb47b12,627c6f2fd75714cd160e7ec0,2022-05-12_04h21.50.803,classification_task,2021.2.3,Win32,147.4926254,627c6715c52fd12f31907bcf,,,,,,,,,,,,,,,,,,,,,,,a,1,"[""0.295"",""0.564"",""0.971"",""0.877""]","[1,1,0,1]",0,14,14,14,1,0,1,,,0,FALSE,2.1835,,,,,,,,,,,,,,,,,,,,,,,,,,,,,,,
,6090a1a1ee7410df2cb47b12,627c6f2fd75714cd160e7ec0,2022-05-12_04h21.50.803,classification_task,2021.2.3,Win32,147.4926254,627c6715c52fd12f31907bcf,,,,,,,,,,,,,,,,,,,,,,,a,1,"[""0.222"",""0.336"",""0.257"",""0.913""]","[1,1,0,1]",0,15,15,15,1,0,0,,,0,FALSE,1.0838,,,,,,,,,,,,,,,,,,,,,,,,,,,,,,,
,6090a1a1ee7410df2cb47b12,627c6f2fd75714cd160e7ec0,2022-05-12_04h21.50.803,classification_task,2021.2.3,Win32,147.4926254,627c6715c52fd12f31907bcf,,,,,,,,,,,,,,,,,,,,,,,a,1,"[""0.295"",""0.564"",""0.653"",""0.073""]","[1,1,1,0]",0,16,16,16,1,0,1,,,0,FALSE,1.8338,,,,,,,,,,,,,,,,,,,,,,,,,,,,,,,
,6090a1a1ee7410df2cb47b12,627c6f2fd75714cd160e7ec0,2022-05-12_04h21.50.803,classification_task,2021.2.3,Win32,147.4926254,627c6715c52fd12f31907bcf,,,,,,,,,,,,,,,,,,,,,,,a,1,"[""0.295"",""0.564"",""0.073"",""0.877""]","[1,1,0,1]",0,17,17,17,1,0,1,,,0,FALSE,1.3169,,,,,,,,,,,,,,,,,,,,,,,,,,,,,,,
,6090a1a1ee7410df2cb47b12,627c6f2fd75714cd160e7ec0,2022-05-12_04h21.50.803,classification_task,2021.2.3,Win32,147.4926254,627c6715c52fd12f31907bcf,,,,,,,,,,,,,,,,,,,,,,,l,1,"[""0.149"",""0.415"",""0.257"",""0.708""]","[1,1,0,1]",0,18,18,18,1,1,0,,,0,FALSE,1.0833,,,,,,,,,,,,,,,,,,,,,,,,,,,,,,,
,6090a1a1ee7410df2cb47b12,627c6f2fd75714cd160e7ec0,2022-05-12_04h21.50.803,classification_task,2021.2.3,Win32,147.4926254,627c6715c52fd12f31907bcf,,,,,,,,,,,,,,,,,,,,,,,a,0,"[""0.036"",""0.380"",""0.469"",""0.817""]","[0,1,1,1]",0,19,19,19,1,1,1,,,0,FALSE,2.0334,,,,,,,,,,,,,,,,,,,,,,,,,,,,,,,
,6090a1a1ee7410df2cb47b12,627c6f2fd75714cd160e7ec0,2022-05-12_04h21.50.803,classification_task,2021.2.3,Win32,147.4926254,627c6715c52fd12f31907bcf,,,,,,,,,,,,,,,,,,,,,,,a,0,"[""0.115"",""0.380"",""0.469"",""0.060""]","[1,1,1,0]",0,20,20,20,1,1,1,,,0,FALSE,1.3663,,,,,,,,,,,,,,,,,,,,,,,,,,,,,,,
,6090a1a1ee7410df2cb47b12,627c6f2fd75714cd160e7ec0,2022-05-12_04h21.50.803,classification_task,2021.2.3,Win32,147.4926254,627c6715c52fd12f31907bcf,,,,,,,,,,,,,,,,,,,,,,,l,0,"[""0.295"",""0.954"",""0.653"",""0.877""]","[1,0,1,1]",0,21,21,21,1,0,1,,,0,FALSE,0.8343,,,,,,,,,,,,,,,,,,,,,,,,,,,,,,,
,6090a1a1ee7410df2cb47b12,627c6f2fd75714cd160e7ec0,2022-05-12_04h21.50.803,classification_task,2021.2.3,Win32,147.4926254,627c6715c52fd12f31907bcf,,,,,,,,,,,,,,,,,,,,,,,l,1,"[""0.115"",""0.952"",""0.469"",""0.817""]","[1,0,1,1]",0,22,22,22,1,1,1,,,0,FALSE,1.2002,,,,,,,,,,,,,,,,,,,,,,,,,,,,,,,
,6090a1a1ee7410df2cb47b12,627c6f2fd75714cd160e7ec0,2022-05-12_04h21.50.803,classification_task,2021.2.3,Win32,147.4926254,627c6715c52fd12f31907bcf,,,,,,,,,,,,,,,,,,,,,,,l,1,"[""0.149"",""0.415"",""0.506"",""0.073""]","[1,1,1,0]",0,23,23,23,1,1,0,,,0,FALSE,0.8831,,,,,,,,,,,,,,,,,,,,,,,,,,,,,,,
,6090a1a1ee7410df2cb47b12,627c6f2fd75714cd160e7ec0,2022-05-12_04h21.50.803,classification_task,2021.2.3,Win32,147.4926254,627c6715c52fd12f31907bcf,,,,,,,,,,,,,,,,,,,,,,,l,1,"[""0.149"",""0.971"",""0.506"",""0.708""]","[1,0,1,1]",0,24,24,24,1,1,0,,,0,FALSE,0.6497,,,,,,,,,,,,,,,,,,,,,,,,,,,,,,,
,6090a1a1ee7410df2cb47b12,627c6f2fd75714cd160e7ec0,2022-05-12_04h21.50.803,classification_task,2021.2.3,Win32,147.4926254,627c6715c52fd12f31907bcf,,,,,,,,,,,,,,,,,,,,,,,l,1,"[""0.954"",""0.415"",""0.506"",""0.708""]","[0,1,1,1]",0,25,25,25,1,1,0,,,0,FALSE,0.5329,,,,,,,,,,,,,,,,,,,,,,,,,,,,,,,
,6090a1a1ee7410df2cb47b12,627c6f2fd75714cd160e7ec0,2022-05-12_04h21.50.803,classification_task,2021.2.3,Win32,147.4926254,627c6715c52fd12f31907bcf,,,,,,,,,,,,,,,,,,,,,,,a,1,"[""0.222"",""0.050"",""0.756"",""0.913""]","[1,0,1,1]",0,26,26,26,1,0,0,,,0,FALSE,0.6164,,,,,,,,,,,,,,,,,,,,,,,,,,,,,,,
,6090a1a1ee7410df2cb47b12,627c6f2fd75714cd160e7ec0,2022-05-12_04h21.50.803,classification_task,2021.2.3,Win32,147.4926254,627c6715c52fd12f31907bcf,,,,,,,,,,,,,,,,,,,,,,,a,1,"[""0.222"",""0.336"",""0.962"",""0.913""]","[1,1,0,1]",0,27,27,27,1,0,0,,,0,FALSE,1.4337,,,,,,,,,,,,,,,,,,,,,,,,,,,,,,,
,6090a1a1ee7410df2cb47b12,627c6f2fd75714cd160e7ec0,2022-05-12_04h21.50.803,classification_task,2021.2.3,Win32,147.4926254,627c6715c52fd12f31907bcf,,,,,,,,,,,,,,,,,,,,,,,a,0,"[""0.115"",""0.380"",""0.971"",""0.817""]","[1,1,0,1]",0,28,28,28,1,1,1,,,0,FALSE,2.1005,,,,,,,,,,,,,,,,,,,,,,,,,,,,,,,
,6090a1a1ee7410df2cb47b12,627c6f2fd75714cd160e7ec0,2022-05-12_04h21.50.803,classification_task,2021.2.3,Win32,147.4926254,627c6715c52fd12f31907bcf,,,,,,,,,,,,,,,,,,,,,,,a,1,"[""0.045"",""0.336"",""0.756"",""0.913""]","[0,1,1,1]",0,29,29,29,1,0,0,,,0,FALSE,0.6511,,,,,,,,,,,,,,,,,,,,,,,,,,,,,,,
,6090a1a1ee7410df2cb47b12,627c6f2fd75714cd160e7ec0,2022-05-12_04h21.50.803,classification_task,2021.2.3,Win32,147.4926254,627c6715c52fd12f31907bcf,,,,,,,,,,,,,,,,,,,,,,,a,1,"[""0.222"",""0.336"",""0.756"",""0.050""]","[1,1,1,0]",0,30,30,30,1,0,0,,,0,FALSE,0.5205,,,,,,,,,,,,,,,,,,,,,,,,,,,,,,,
,6090a1a1ee7410df2cb47b12,627c6f2fd75714cd160e7ec0,2022-05-12_04h21.50.803,classification_task,2021.2.3,Win32,147.4926254,627c6715c52fd12f31907bcf,,,,,,,,,,,,,,,,,,,,,,,l,0,"[""0.962"",""0.564"",""0.653"",""0.877""]","[0,1,1,1]",0,31,31,31,1,0,1,,,0,FALSE,1.8499,,,,,,,,,,,,,,,,,,,,,,,,,,,,,,,
,6090a1a1ee7410df2cb47b12,627c6f2fd75714cd160e7ec0,2022-05-12_04h21.50.803,classification_task,2021.2.3,Win32,147.4926254,627c6715c52fd12f31907bcf,,,,,,,,,,,,,,,,,,,,,,,a,0,"[""0.115"",""0.380"",""0.058"",""0.817""]","[1,1,0,1]",0,32,32,32,1,1,1,,,0,FALSE,1.4343,,,,,,,,,,,,,,,,,,,,,,,,,,,,,,,
,6090a1a1ee7410df2cb47b12,627c6f2fd75714cd160e7ec0,2022-05-12_04h21.50.803,classification_task,2021.2.3,Win32,147.4926254,627c6715c52fd12f31907bcf,,,,,,,,,,,,,,,,,,,,,,,a,1,"[""0.222"",""0.336"",""0.756"",""0.257""]","[1,1,1,0]",0,33,33,33,1,0,0,,,0,FALSE,0.661,,,,,,,,,,,,,,,,,,,,,,,,,,,,,,,
,6090a1a1ee7410df2cb47b12,627c6f2fd75714cd160e7ec0,2022-05-12_04h21.50.803,classification_task,2021.2.3,Win32,147.4926254,627c6715c52fd12f31907bcf,,,,,,,,,,,,,,,,,,,,,,,a,0,"[""0.952"",""0.380"",""0.469"",""0.817""]","[0,1,1,1]",0,34,34,34,1,1,1,,,0,FALSE,1.8836,,,,,,,,,,,,,,,,,,,,,,,,,,,,,,,
,6090a1a1ee7410df2cb47b12,627c6f2fd75714cd160e7ec0,2022-05-12_04h21.50.803,classification_task,2021.2.3,Win32,147.4926254,627c6715c52fd12f31907bcf,,,,,,,,,,,,,,,,,,,,,,,l,0,"[""0.952"",""0.564"",""0.653"",""0.877""]","[0,1,1,1]",0,35,35,35,1,0,1,,,0,FALSE,1.7002,,,,,,,,,,,,,,,,,,,,,,,,,,,,,,,
,6090a1a1ee7410df2cb47b12,627c6f2fd75714cd160e7ec0,2022-05-12_04h21.50.803,classification_task,2021.2.3,Win32,147.4926254,627c6715c52fd12f31907bcf,,,,,,,,,,,,,,,,,,,,,,,l,0,"[""0.295"",""0.257"",""0.653"",""0.877""]","[1,0,1,1]",0,36,36,36,1,0,1,,,0,FALSE,1.0006,,,,,,,,,,,,,,,,,,,,,,,,,,,,,,,
,6090a1a1ee7410df2cb47b12,627c6f2fd75714cd160e7ec0,2022-05-12_04h21.50.803,classification_task,2021.2.3,Win32,147.4926254,627c6715c52fd12f31907bcf,,,,,,,,,,,,,,,,,,,,,,,l,1,"[""0.149"",""0.187"",""0.506"",""0.708""]","[1,0,1,1]",0,37,37,37,1,1,0,,,0,FALSE,0.8006,,,,,,,,,,,,,,,,,,,,,,,,,,,,,,,
,6090a1a1ee7410df2cb47b12,627c6f2fd75714cd160e7ec0,2022-05-12_04h21.50.803,classification_task,2021.2.3,Win32,147.4926254,627c6715c52fd12f31907bcf,,,,,,,,,,,,,,,,,,,,,,,a,1,"[""0.295"",""0.564"",""0.058"",""0.877""]","[1,1,0,1]",0,38,38,38,1,0,1,,,0,FALSE,1.6174,,,,,,,,,,,,,,,,,,,,,,,,,,,,,,,
,6090a1a1ee7410df2cb47b12,627c6f2fd75714cd160e7ec0,2022-05-12_04h21.50.803,classification_task,2021.2.3,Win32,147.4926254,627c6715c52fd12f31907bcf,,,,,,,,,,,,,,,,,,,,,,,a,0,"[""0.115"",""0.060"",""0.469"",""0.817""]","[1,0,1,1]",0,39,39,39,1,1,1,,,0,FALSE,2.7168,,,,,,,,,,,,,,,,,,,,,,,,,,,,,,,
,6090a1a1ee7410df2cb47b12,627c6f2fd75714cd160e7ec0,2022-05-12_04h21.50.803,classification_task,2021.2.3,Win32,147.4926254,627c6715c52fd12f31907bcf,,,,,,,,,,,,,,,,,,,,,,,a,1,"[""0.962"",""0.336"",""0.756"",""0.913""]","[0,1,1,1]",0,40,40,40,1,0,0,,,0,FALSE,0.6836,,,,,,,,,,,,,,,,,,,,,,,,,,,,,,,
,6090a1a1ee7410df2cb47b12,627c6f2fd75714cd160e7ec0,2022-05-12_04h21.50.803,classification_task,2021.2.3,Win32,147.4926254,627c6715c52fd12f31907bcf,,,,,,,,,,,,,,,,,,,,,,,l,1,"[""0.050"",""0.415"",""0.506"",""0.708""]","[0,1,1,1]",0,41,41,41,1,1,0,,,0,FALSE,0.6999,,,,,,,,,,,,,,,,,,,,,,,,,,,,,,,
,6090a1a1ee7410df2cb47b12,627c6f2fd75714cd160e7ec0,2022-05-12_04h21.50.803,classification_task,2021.2.3,Win32,147.4926254,627c6715c52fd12f31907bcf,,,,,,,,,,,,,,,,,,,,,,,l,1,"[""0.149"",""0.415"",""0.506"",""0.962""]","[1,1,1,0]",0,42,42,42,1,1,0,,,0,FALSE,0.8352,,,,,,,,,,,,,,,,,,,,,,,,,,,,,,,
,6090a1a1ee7410df2cb47b12,627c6f2fd75714cd160e7ec0,2022-05-12_04h21.50.803,classification_task,2021.2.3,Win32,147.4926254,627c6715c52fd12f31907bcf,,,,,,,,,,,,,,,,,,,,,,,l,1,"[""0.149"",""0.415"",""0.954"",""0.708""]","[1,1,0,1]",0,43,43,43,1,1,0,,,0,FALSE,0.8999,,,,,,,,,,,,,,,,,,,,,,,,,,,,,,,
,6090a1a1ee7410df2cb47b12,627c6f2fd75714cd160e7ec0,2022-05-12_04h21.50.803,classification_task,2021.2.3,Win32,147.4926254,627c6715c52fd12f31907bcf,,,,,,,,,,,,,,,,,,,,,,,a,1,"[""0.222"",""0.336"",""0.058"",""0.913""]","[1,1,0,1]",0,44,44,44,1,0,0,,,0,FALSE,0.8675,,,,,,,,,,,,,,,,,,,,,,,,,,,,,,,
,6090a1a1ee7410df2cb47b12,627c6f2fd75714cd160e7ec0,2022-05-12_04h21.50.803,classification_task,2021.2.3,Win32,147.4926254,627c6715c52fd12f31907bcf,,,,,,,,,,,,,,,,,,,,,,,a,0,"[""0.115"",""0.380"",""0.469"",""0.187""]","[1,1,1,0]",0,45,45,45,1,1,1,,,0,FALSE,1.9337,,,,,,,,,,,,,,,,,,,,,,,,,,,,,,,
,6090a1a1ee7410df2cb47b12,627c6f2fd75714cd160e7ec0,2022-05-12_04h21.50.803,classification_task,2021.2.3,Win32,147.4926254,627c6715c52fd12f31907bcf,,,,,,,,,,,,,,,,,,,,,,,a,1,"[""0.222"",""0.050"",""0.756"",""0.913""]","[1,0,1,1]",0,46,46,46,1,0,0,,,0,FALSE,1.2179,,,,,,,,,,,,,,,,,,,,,,,,,,,,,,,
,6090a1a1ee7410df2cb47b12,627c6f2fd75714cd160e7ec0,2022-05-12_04h21.50.803,classification_task,2021.2.3,Win32,147.4926254,627c6715c52fd12f31907bcf,,,,,,,,,,,,,,,,,,,,,,,a,1,"[""0.295"",""0.564"",""0.653"",""0.971""]","[1,1,1,0]",0,47,47,47,1,0,1,,,0,FALSE,2.3326,,,,,,,,,,,,,,,,,,,,,,,,,,,,,,,
,6090a1a1ee7410df2cb47b12,627c6f2fd75714cd160e7ec0,2022-05-12_04h21.50.803,classification_task,2021.2.3,Win32,147.4926254,627c6715c52fd12f31907bcf,,,,,,,,,,,,,,,,,,,,,,,a,1,"[""0.222"",""0.336"",""0.053"",""0.913""]","[1,1,0,1]",0,48,48,48,1,0,0,,,0,FALSE,0.6842,,,,,,,,,,,,,,,,,,,,,,,,,,,,,,,
,6090a1a1ee7410df2cb47b12,627c6f2fd75714cd160e7ec0,2022-05-12_04h21.50.803,classification_task,2021.2.3,Win32,147.4926254,627c6715c52fd12f31907bcf,,,,,,,,,,,,,,,,,,,,,,,a,1,"[""0.222"",""0.336"",""0.756"",""0.971""]","[1,1,1,0]",0,49,49,49,1,0,0,,,0,FALSE,0.5672,,,,,,,,,,,,,,,,,,,,,,,,,,,,,,,
,6090a1a1ee7410df2cb47b12,627c6f2fd75714cd160e7ec0,2022-05-12_04h21.50.803,classification_task,2021.2.3,Win32,147.4926254,627c6715c52fd12f31907bcf,,,,,,,,,,,,,,,,,,,,,,,a,0,"[""0.073"",""0.380"",""0.469"",""0.817""]","[0,1,1,1]",0,50,50,50,1,1,1,,,0,FALSE,1.6505,,,,,,,,,,,,,,,,,,,,,,,,,,,,,,,
,6090a1a1ee7410df2cb47b12,627c6f2fd75714cd160e7ec0,2022-05-12_04h21.50.803,classification_task,2021.2.3,Win32,147.4926254,627c6715c52fd12f31907bcf,,,,,,,,,,,,,,,,,,,,,,,a,1,"[""0.295"",""0.036"",""0.653"",""0.877""]","[1,0,1,1]",0,51,51,51,1,0,1,,,0,FALSE,1.2502,,,,,,,,,,,,,,,,,,,,,,,,,,,,,,,
,6090a1a1ee7410df2cb47b12,627c6f2fd75714cd160e7ec0,2022-05-12_04h21.50.803,classification_task,2021.2.3,Win32,147.4926254,627c6715c52fd12f31907bcf,,,,,,,,,,,,,,,,,,,,,,,l,1,"[""0.115"",""0.060"",""0.469"",""0.817""]","[1,0,1,1]",0,52,52,52,1,1,1,,,0,FALSE,2.9001,,,,,,,,,,,,,,,,,,,,,,,,,,,,,,,
,6090a1a1ee7410df2cb47b12,627c6f2fd75714cd160e7ec0,2022-05-12_04h21.50.803,classification_task,2021.2.3,Win32,147.4926254,627c6715c52fd12f31907bcf,,,,,,,,,,,,,,,,,,,,,,,a,1,"[""0.035"",""0.564"",""0.653"",""0.877""]","[0,1,1,1]",0,53,53,53,1,0,1,,,0,FALSE,2.0172,,,,,,,,,,,,,,,,,,,,,,,,,,,,,,,
,6090a1a1ee7410df2cb47b12,627c6f2fd75714cd160e7ec0,2022-05-12_04h21.50.803,classification_task,2021.2.3,Win32,147.4926254,627c6715c52fd12f31907bcf,,,,,,,,,,,,,,,,,,,,,,,a,1,"[""0.295"",""0.564"",""0.962"",""0.877""]","[1,1,0,1]",0,54,54,54,1,0,1,,,0,FALSE,1.6511,,,,,,,,,,,,,,,,,,,,,,,,,,,,,,,
,6090a1a1ee7410df2cb47b12,627c6f2fd75714cd160e7ec0,2022-05-12_04h21.50.803,classification_task,2021.2.3,Win32,147.4926254,627c6715c52fd12f31907bcf,,,,,,,,,,,,,,,,,,,,,,,l,1,"[""0.149"",""0.415"",""0.036"",""0.708""]","[1,1,0,1]",0,55,55,55,1,1,0,,,0,FALSE,0.8503,,,,,,,,,,,,,,,,,,,,,,,,,,,,,,,
,6090a1a1ee7410df2cb47b12,627c6f2fd75714cd160e7ec0,2022-05-12_04h21.50.803,classification_task,2021.2.3,Win32,147.4926254,627c6715c52fd12f31907bcf,,,,,,,,,,,,,,,,,,,,,,,a,0,"[""0.115"",""0.380"",""0.469"",""0.962""]","[1,1,1,0]",0,56,56,56,1,1,1,,,0,FALSE,4.3005,,,,,,,,,,,,,,,,,,,,,,,,,,,,,,,
,6090a1a1ee7410df2cb47b12,627c6f2fd75714cd160e7ec0,2022-05-12_04h21.50.803,classification_task,2021.2.3,Win32,147.4926254,627c6715c52fd12f31907bcf,,,,,,,,,,,,,,,,,,,,,,,a,0,"[""0.149"",""0.415"",""0.506"",""0.045""]","[1,1,1,0]",0,57,57,57,1,1,0,,,0,FALSE,0.5675,,,,,,,,,,,,,,,,,,,,,,,,,,,,,,,
,6090a1a1ee7410df2cb47b12,627c6f2fd75714cd160e7ec0,2022-05-12_04h21.50.803,classification_task,2021.2.3,Win32,147.4926254,627c6715c52fd12f31907bcf,,,,,,,,,,,,,,,,,,,,,,,a,1,"[""0.295"",""0.564"",""0.653"",""0.053""]","[1,1,1,0]",0,58,58,58,1,0,1,,,0,FALSE,1.401,,,,,,,,,,,,,,,,,,,,,,,,,,,,,,,
,6090a1a1ee7410df2cb47b12,627c6f2fd75714cd160e7ec0,2022-05-12_04h21.50.803,classification_task,2021.2.3,Win32,147.4926254,627c6715c52fd12f31907bcf,,,,,,,,,,,,,,,,,,,,,,,a,0,"[""0.115"",""0.380"",""0.187"",""0.817""]","[1,1,0,1]",0,59,59,59,1,1,1,,,0,FALSE,1.9672,,,,,,,,,,,,,,,,,,,,,,,,,,,,,,,
,6090a1a1ee7410df2cb47b12,627c6f2fd75714cd160e7ec0,2022-05-12_04h21.50.803,classification_task,2021.2.3,Win32,147.4926254,627c6715c52fd12f31907bcf,,,,,,,,,,,,,,,,,,,,,,,a,0,"[""0.954"",""0.415"",""0.506"",""0.708""]","[0,1,1,1]",0,60,60,60,1,1,0,,,0,FALSE,0.6004,,,,,,,,,,,,,,,,,,,,,,,,,,,,,,,
,6090a1a1ee7410df2cb47b12,627c6f2fd75714cd160e7ec0,2022-05-12_04h21.50.803,classification_task,2021.2.3,Win32,147.4926254,627c6715c52fd12f31907bcf,,,,,,,,,,,,,,,,,,,,,,,a,1,"[""0.222"",""0.952"",""0.756"",""0.913""]","[1,0,1,1]",0,61,61,61,1,0,0,,,0,FALSE,0.9835,,,,,,,,,,,,,,,,,,,,,,,,,,,,,,,
,6090a1a1ee7410df2cb47b12,627c6f2fd75714cd160e7ec0,2022-05-12_04h21.50.803,classification_task,2021.2.3,Win32,147.4926254,627c6715c52fd12f31907bcf,,,,,,,,,,,,,,,,,,,,,,,l,1,"[""0.149"",""0.045"",""0.506"",""0.708""]","[1,0,1,1]",0,62,62,62,1,1,0,,,0,FALSE,0.5505,,,,,,,,,,,,,,,,,,,,,,,,,,,,,,,
,6090a1a1ee7410df2cb47b12,627c6f2fd75714cd160e7ec0,2022-05-12_04h21.50.803,classification_task,2021.2.3,Win32,147.4926254,627c6715c52fd12f31907bcf,,,,,,,,,,,,,,,,,,,,,,,a,1,"[""0.073"",""0.336"",""0.756"",""0.913""]","[0,1,1,1]",0,63,63,63,1,0,0,,,0,FALSE,0.7007,,,,,,,,,,,,,,,,,,,,,,,,,,,,,,,
,6090a1a1ee7410df2cb47b12,627c6f2fd75714cd160e7ec0,2022-05-12_04h21.50.803,classification_task,2021.2.3,Win32,147.4926254,627c6715c52fd12f31907bcf,,,,,,,,,,,,,,,,,,,,,,,,,,,,,,,,,,,,,,,0, ,,0,3.603762493,187.7761,0,1,1,1,1,2,2,,,,,,,,,,,,,,,,,,
,6090a1a1ee7410df2cb47b12,627c6f2fd75714cd160e7ec0,2022-05-12_04h21.50.803,classification_task,2021.2.3,Win32,147.4926254,627c6715c52fd12f31907bcf,,,,,,,,,,,,,,,,,,,,,,,,,,,,,,,,,,,,,,,1,  ,,0,6.028806584,186.2101,0,1,1,1,1,2,2,,,,,,,,,,,,,,,,,,
,6090a1a1ee7410df2cb47b12,627c6f2fd75714cd160e7ec0,2022-05-12_04h21.50.803,classification_task,2021.2.3,Win32,147.4926254,627c6715c52fd12f31907bcf,,,,,,,,,,,,,,,,,,,,,,,,,,,,,,,,,,,,,,,2,  ,,0,0.884773663,189.6597,0,1,1,1,1,2,2,,,,,,,,,,,,,,,,,,
,6090a1a1ee7410df2cb47b12,627c6f2fd75714cd160e7ec0,2022-05-12_04h21.50.803,classification_task,2021.2.3,Win32,147.4926254,627c6715c52fd12f31907bcf,,,,,,,,,,,,,,,,,,,,,,,,,,,,,,,,,,,,,,,,,,,,,0,1,1,1,1,,2,,,,,,,,,,,,,,,,,,
,6090a1a1ee7410df2cb47b12,627c6f2fd75714cd160e7ec0,2022-05-12_04h21.50.803,classification_task,2021.2.3,Win32,147.4926254,627c6715c52fd12f31907bcf,,,,,,,,,,,,,,,,,,,,,space,11.0503,a,0,"[""0.969"",""0.415"",""0.506"",""0.708""]","[0,1,1,1]",0,0,0,0,1,1,0,,,0,FALSE,1.684,,,,,,,,,,,,,,,,,,,,,,,,,,,,,,,
,6090a1a1ee7410df2cb47b12,627c6f2fd75714cd160e7ec0,2022-05-12_04h21.50.803,classification_task,2021.2.3,Win32,147.4926254,627c6715c52fd12f31907bcf,,,,,,,,,,,,,,,,,,,,,,,l,1,"[""0.149"",""0.058"",""0.506"",""0.708""]","[1,0,1,1]",0,1,1,1,1,1,0,,,0,FALSE,2.6338,,,,,,,,,,,,,,,,,,,,,,,,,,,,,,,
,6090a1a1ee7410df2cb47b12,627c6f2fd75714cd160e7ec0,2022-05-12_04h21.50.803,classification_task,2021.2.3,Win32,147.4926254,627c6715c52fd12f31907bcf,,,,,,,,,,,,,,,,,,,,,,,l,0,"[""0.295"",""0.564"",""0.653"",""0.971""]","[1,1,1,0]",0,2,2,2,1,0,1,,,0,FALSE,3.117,,,,,,,,,,,,,,,,,,,,,,,,,,,,,,,
,6090a1a1ee7410df2cb47b12,627c6f2fd75714cd160e7ec0,2022-05-12_04h21.50.803,classification_task,2021.2.3,Win32,147.4926254,627c6715c52fd12f31907bcf,,,,,,,,,,,,,,,,,,,,,,,a,0,"[""0.115"",""0.058"",""0.469"",""0.817""]","[1,0,1,1]",0,3,3,3,1,1,1,,,0,FALSE,2.5509,,,,,,,,,,,,,,,,,,,,,,,,,,,,,,,
,6090a1a1ee7410df2cb47b12,627c6f2fd75714cd160e7ec0,2022-05-12_04h21.50.803,classification_task,2021.2.3,Win32,147.4926254,627c6715c52fd12f31907bcf,,,,,,,,,,,,,,,,,,,,,,,l,0,"[""0.222"",""0.187"",""0.756"",""0.913""]","[1,0,1,1]",0,4,4,4,1,0,0,,,0,FALSE,1.9,,,,,,,,,,,,,,,,,,,,,,,,,,,,,,,
,6090a1a1ee7410df2cb47b12,627c6f2fd75714cd160e7ec0,2022-05-12_04h21.50.803,classification_task,2021.2.3,Win32,147.4926254,627c6715c52fd12f31907bcf,,,,,,,,,,,,,,,,,,,,,,,a,1,"[""0.295"",""0.564"",""0.954"",""0.877""]","[1,1,0,1]",0,5,5,5,1,0,1,,,0,FALSE,1.4007,,,,,,,,,,,,,,,,,,,,,,,,,,,,,,,
,6090a1a1ee7410df2cb47b12,627c6f2fd75714cd160e7ec0,2022-05-12_04h21.50.803,classification_task,2021.2.3,Win32,147.4926254,627c6715c52fd12f31907bcf,,,,,,,,,,,,,,,,,,,,,,,l,0,"[""0.222"",""0.336"",""0.756"",""0.971""]","[1,1,1,0]",0,6,6,6,1,0,0,,,0,FALSE,3.1005,,,,,,,,,,,,,,,,,,,,,,,,,,,,,,,
,6090a1a1ee7410df2cb47b12,627c6f2fd75714cd160e7ec0,2022-05-12_04h21.50.803,classification_task,2021.2.3,Win32,147.4926254,627c6715c52fd12f31907bcf,,,,,,,,,,,,,,,,,,,,,,,a,1,"[""0.969"",""0.564"",""0.653"",""0.877""]","[0,1,1,1]",0,7,7,7,1,0,1,,,0,FALSE,1.2007,,,,,,,,,,,,,,,,,,,,,,,,,,,,,,,
,6090a1a1ee7410df2cb47b12,627c6f2fd75714cd160e7ec0,2022-05-12_04h21.50.803,classification_task,2021.2.3,Win32,147.4926254,627c6715c52fd12f31907bcf,,,,,,,,,,,,,,,,,,,,,,,l,0,"[""0.222"",""0.336"",""0.971"",""0.913""]","[1,1,0,1]",0,8,8,8,1,0,0,,,0,FALSE,1.6504,,,,,,,,,,,,,,,,,,,,,,,,,,,,,,,
,6090a1a1ee7410df2cb47b12,627c6f2fd75714cd160e7ec0,2022-05-12_04h21.50.803,classification_task,2021.2.3,Win32,147.4926254,627c6715c52fd12f31907bcf,,,,,,,,,,,,,,,,,,,,,,,l,1,"[""0.149"",""0.415"",""0.506"",""0.058""]","[1,1,1,0]",0,9,9,9,1,1,0,,,0,FALSE,2.7342,,,,,,,,,,,,,,,,,,,,,,,,,,,,,,,
,6090a1a1ee7410df2cb47b12,627c6f2fd75714cd160e7ec0,2022-05-12_04h21.50.803,classification_task,2021.2.3,Win32,147.4926254,627c6715c52fd12f31907bcf,,,,,,,,,,,,,,,,,,,,,,,l,0,"[""0.050"",""0.336"",""0.756"",""0.913""]","[0,1,1,1]",0,10,10,10,1,0,0,,,0,FALSE,3.1838,,,,,,,,,,,,,,,,,,,,,,,,,,,,,,,
,6090a1a1ee7410df2cb47b12,627c6f2fd75714cd160e7ec0,2022-05-12_04h21.50.803,classification_task,2021.2.3,Win32,147.4926254,627c6715c52fd12f31907bcf,,,,,,,,,,,,,,,,,,,,,,,l,1,"[""0.115"",""0.380"",""0.469"",""0.962""]","[1,1,1,0]",0,11,11,11,1,1,1,,,0,FALSE,4.4171,,,,,,,,,,,,,,,,,,,,,,,,,,,,,,,
,6090a1a1ee7410df2cb47b12,627c6f2fd75714cd160e7ec0,2022-05-12_04h21.50.803,classification_task,2021.2.3,Win32,147.4926254,627c6715c52fd12f31907bcf,,,,,,,,,,,,,,,,,,,,,,,a,0,"[""0.971"",""0.380"",""0.469"",""0.817""]","[0,1,1,1]",0,12,12,12,1,1,1,,,0,FALSE,1.5672,,,,,,,,,,,,,,,,,,,,,,,,,,,,,,,
,6090a1a1ee7410df2cb47b12,627c6f2fd75714cd160e7ec0,2022-05-12_04h21.50.803,classification_task,2021.2.3,Win32,147.4926254,627c6715c52fd12f31907bcf,,,,,,,,,,,,,,,,,,,,,,,a,0,"[""0.149"",""0.415"",""0.050"",""0.708""]","[1,1,0,1]",0,13,13,13,1,1,0,,,0,FALSE,2.3999,,,,,,,,,,,,,,,,,,,,,,,,,,,,,,,
,6090a1a1ee7410df2cb47b12,627c6f2fd75714cd160e7ec0,2022-05-12_04h21.50.803,classification_task,2021.2.3,Win32,147.4926254,627c6715c52fd12f31907bcf,,,,,,,,,,,,,,,,,,,,,,,a,1,"[""0.295"",""0.060"",""0.653"",""0.877""]","[1,0,1,1]",0,14,14,14,1,0,1,,,0,FALSE,2.7346,,,,,,,,,,,,,,,,,,,,,,,,,,,,,,,
,6090a1a1ee7410df2cb47b12,627c6f2fd75714cd160e7ec0,2022-05-12_04h21.50.803,classification_task,2021.2.3,Win32,147.4926254,627c6715c52fd12f31907bcf,,,,,,,,,,,,,,,,,,,,,,,l,1,"[""0.115"",""0.380"",""0.060"",""0.817""]","[1,1,0,1]",0,15,15,15,1,1,1,,,0,FALSE,2.4839,,,,,,,,,,,,,,,,,,,,,,,,,,,,,,,
,6090a1a1ee7410df2cb47b12,627c6f2fd75714cd160e7ec0,2022-05-12_04h21.50.803,classification_task,2021.2.3,Win32,147.4926254,627c6715c52fd12f31907bcf,,,,,,,,,,,,,,,,,,,,,,,a,1,"[""0.050"",""0.336"",""0.756"",""0.913""]","[0,1,1,1]",0,16,16,16,1,0,0,,,0,FALSE,2.9338,,,,,,,,,,,,,,,,,,,,,,,,,,,,,,,
,6090a1a1ee7410df2cb47b12,627c6f2fd75714cd160e7ec0,2022-05-12_04h21.50.803,classification_task,2021.2.3,Win32,147.4926254,627c6715c52fd12f31907bcf,,,,,,,,,,,,,,,,,,,,,,,a,1,"[""0.222"",""0.336"",""0.954"",""0.913""]","[1,1,0,1]",0,17,17,17,1,0,0,,,0,FALSE,1.1836,,,,,,,,,,,,,,,,,,,,,,,,,,,,,,,
,6090a1a1ee7410df2cb47b12,627c6f2fd75714cd160e7ec0,2022-05-12_04h21.50.803,classification_task,2021.2.3,Win32,147.4926254,627c6715c52fd12f31907bcf,,,,,,,,,,,,,,,,,,,,,,,a,1,"[""0.295"",""0.564"",""0.653"",""0.952""]","[1,1,1,0]",0,18,18,18,1,0,1,,,0,FALSE,2.6507,,,,,,,,,,,,,,,,,,,,,,,,,,,,,,,
,6090a1a1ee7410df2cb47b12,627c6f2fd75714cd160e7ec0,2022-05-12_04h21.50.803,classification_task,2021.2.3,Win32,147.4926254,627c6715c52fd12f31907bcf,,,,,,,,,,,,,,,,,,,,,,,l,0,"[""0.295"",""0.962"",""0.653"",""0.877""]","[1,0,1,1]",0,19,19,19,1,0,1,,,0,FALSE,1.7661,,,,,,,,,,,,,,,,,,,,,,,,,,,,,,,
,6090a1a1ee7410df2cb47b12,627c6f2fd75714cd160e7ec0,2022-05-12_04h21.50.803,classification_task,2021.2.3,Win32,147.4926254,627c6715c52fd12f31907bcf,,,,,,,,,,,,,,,,,,,,,,,a,1,"[""0.222"",""0.336"",""0.756"",""0.050""]","[1,1,1,0]",0,20,20,20,1,0,0,,,0,FALSE,2.5836,,,,,,,,,,,,,,,,,,,,,,,,,,,,,,,
,6090a1a1ee7410df2cb47b12,627c6f2fd75714cd160e7ec0,2022-05-12_04h21.50.803,classification_task,2021.2.3,Win32,147.4926254,627c6715c52fd12f31907bcf,,,,,,,,,,,,,,,,,,,,,,,l,1,"[""0.115"",""0.380"",""0.035"",""0.817""]","[1,1,0,1]",0,21,21,21,1,1,1,,,0,FALSE,2.2837,,,,,,,,,,,,,,,,,,,,,,,,,,,,,,,
,6090a1a1ee7410df2cb47b12,627c6f2fd75714cd160e7ec0,2022-05-12_04h21.50.803,classification_task,2021.2.3,Win32,147.4926254,627c6715c52fd12f31907bcf,,,,,,,,,,,,,,,,,,,,,,,l,1,"[""0.149"",""0.415"",""0.954"",""0.708""]","[1,1,0,1]",0,22,22,22,1,1,0,,,0,FALSE,1.6336,,,,,,,,,,,,,,,,,,,,,,,,,,,,,,,
,6090a1a1ee7410df2cb47b12,627c6f2fd75714cd160e7ec0,2022-05-12_04h21.50.803,classification_task,2021.2.3,Win32,147.4926254,627c6715c52fd12f31907bcf,,,,,,,,,,,,,,,,,,,,,,,l,1,"[""0.060"",""0.380"",""0.469"",""0.817""]","[0,1,1,1]",0,23,23,23,1,1,1,,,0,FALSE,1.5507,,,,,,,,,,,,,,,,,,,,,,,,,,,,,,,
,6090a1a1ee7410df2cb47b12,627c6f2fd75714cd160e7ec0,2022-05-12_04h21.50.803,classification_task,2021.2.3,Win32,147.4926254,627c6715c52fd12f31907bcf,,,,,,,,,,,,,,,,,,,,,,,a,0,"[""0.149"",""0.954"",""0.506"",""0.708""]","[1,0,1,1]",0,24,24,24,1,1,0,,,0,FALSE,2.1322,,,,,,,,,,,,,,,,,,,,,,,,,,,,,,,
,6090a1a1ee7410df2cb47b12,627c6f2fd75714cd160e7ec0,2022-05-12_04h21.50.803,classification_task,2021.2.3,Win32,147.4926254,627c6715c52fd12f31907bcf,,,,,,,,,,,,,,,,,,,,,,,a,1,"[""0.295"",""0.564"",""0.045"",""0.877""]","[1,1,0,1]",0,25,25,25,1,0,1,,,0,FALSE,2.0508,,,,,,,,,,,,,,,,,,,,,,,,,,,,,,,
,6090a1a1ee7410df2cb47b12,627c6f2fd75714cd160e7ec0,2022-05-12_04h21.50.803,classification_task,2021.2.3,Win32,147.4926254,627c6715c52fd12f31907bcf,,,,,,,,,,,,,,,,,,,,,,,a,1,"[""0.073"",""0.564"",""0.653"",""0.877""]","[0,1,1,1]",0,26,26,26,1,0,1,,,0,FALSE,1.7835,,,,,,,,,,,,,,,,,,,,,,,,,,,,,,,
,6090a1a1ee7410df2cb47b12,627c6f2fd75714cd160e7ec0,2022-05-12_04h21.50.803,classification_task,2021.2.3,Win32,147.4926254,627c6715c52fd12f31907bcf,,,,,,,,,,,,,,,,,,,,,,,l,1,"[""0.115"",""0.035"",""0.469"",""0.817""]","[1,0,1,1]",0,27,27,27,1,1,1,,,0,FALSE,1.7338,,,,,,,,,,,,,,,,,,,,,,,,,,,,,,,
,6090a1a1ee7410df2cb47b12,627c6f2fd75714cd160e7ec0,2022-05-12_04h21.50.803,classification_task,2021.2.3,Win32,147.4926254,627c6715c52fd12f31907bcf,,,,,,,,,,,,,,,,,,,,,,,l,1,"[""0.060"",""0.415"",""0.506"",""0.708""]","[0,1,1,1]",0,28,28,28,1,1,0,,,0,FALSE,1.4158,,,,,,,,,,,,,,,,,,,,,,,,,,,,,,,
,6090a1a1ee7410df2cb47b12,627c6f2fd75714cd160e7ec0,2022-05-12_04h21.50.803,classification_task,2021.2.3,Win32,147.4926254,627c6715c52fd12f31907bcf,,,,,,,,,,,,,,,,,,,,,,,l,1,"[""0.149"",""0.415"",""0.506"",""0.969""]","[1,1,1,0]",0,29,29,29,1,1,0,,,0,FALSE,1.5628,,,,,,,,,,,,,,,,,,,,,,,,,,,,,,,
,6090a1a1ee7410df2cb47b12,627c6f2fd75714cd160e7ec0,2022-05-12_04h21.50.803,classification_task,2021.2.3,Win32,147.4926254,627c6715c52fd12f31907bcf,,,,,,,,,,,,,,,,,,,,,,,l,1,"[""0.115"",""0.380"",""0.469"",""0.045""]","[1,1,1,0]",0,30,30,30,1,1,1,,,0,FALSE,3.2674,,,,,,,,,,,,,,,,,,,,,,,,,,,,,,,
,6090a1a1ee7410df2cb47b12,627c6f2fd75714cd160e7ec0,2022-05-12_04h21.50.803,classification_task,2021.2.3,Win32,147.4926254,627c6715c52fd12f31907bcf,,,,,,,,,,,,,,,,,,,,,,,a,1,"[""0.222"",""0.073"",""0.756"",""0.913""]","[1,0,1,1]",0,31,31,31,1,0,0,,,0,FALSE,2.0843,,,,,,,,,,,,,,,,,,,,,,,,,,,,,,,
,6090a1a1ee7410df2cb47b12,627c6f2fd75714cd160e7ec0,2022-05-12_04h21.50.803,classification_task,2021.2.3,Win32,147.4926254,627c6715c52fd12f31907bcf,,,,,,,,,,,,,,,,,,,,,,,a,1,"[""0.222"",""0.060"",""0.756"",""0.913""]","[1,0,1,1]",0,32,32,32,1,0,0,,,0,FALSE,1.1338,,,,,,,,,,,,,,,,,,,,,,,,,,,,,,,
,6090a1a1ee7410df2cb47b12,627c6f2fd75714cd160e7ec0,2022-05-12_04h21.50.803,classification_task,2021.2.3,Win32,147.4926254,627c6715c52fd12f31907bcf,,,,,,,,,,,,,,,,,,,,,,,a,0,"[""0.115"",""0.380"",""0.257"",""0.817""]","[1,1,0,1]",0,33,33,33,1,1,1,,,0,FALSE,2.1174,,,,,,,,,,,,,,,,,,,,,,,,,,,,,,,
,6090a1a1ee7410df2cb47b12,627c6f2fd75714cd160e7ec0,2022-05-12_04h21.50.803,classification_task,2021.2.3,Win32,147.4926254,627c6715c52fd12f31907bcf,,,,,,,,,,,,,,,,,,,,,,,l,0,"[""0.222"",""0.336"",""0.756"",""0.954""]","[1,1,1,0]",0,34,34,34,1,0,0,,,0,FALSE,1.3506,,,,,,,,,,,,,,,,,,,,,,,,,,,,,,,
,6090a1a1ee7410df2cb47b12,627c6f2fd75714cd160e7ec0,2022-05-12_04h21.50.803,classification_task,2021.2.3,Win32,147.4926254,627c6715c52fd12f31907bcf,,,,,,,,,,,,,,,,,,,,,,,l,0,"[""0.295"",""0.564"",""0.952"",""0.877""]","[1,1,0,1]",0,35,35,35,1,0,1,,,0,FALSE,1.8488,,,,,,,,,,,,,,,,,,,,,,,,,,,,,,,
,6090a1a1ee7410df2cb47b12,627c6f2fd75714cd160e7ec0,2022-05-12_04h21.50.803,classification_task,2021.2.3,Win32,147.4926254,627c6715c52fd12f31907bcf,,,,,,,,,,,,,,,,,,,,,,,a,1,"[""0.295"",""0.969"",""0.653"",""0.877""]","[1,0,1,1]",0,36,36,36,1,0,1,,,0,FALSE,1.1671,,,,,,,,,,,,,,,,,,,,,,,,,,,,,,,
,6090a1a1ee7410df2cb47b12,627c6f2fd75714cd160e7ec0,2022-05-12_04h21.50.803,classification_task,2021.2.3,Win32,147.4926254,627c6715c52fd12f31907bcf,,,,,,,,,,,,,,,,,,,,,,,l,1,"[""0.115"",""0.045"",""0.469"",""0.817""]","[1,0,1,1]",0,37,37,37,1,1,1,,,0,FALSE,3.2839,,,,,,,,,,,,,,,,,,,,,,,,,,,,,,,
,6090a1a1ee7410df2cb47b12,627c6f2fd75714cd160e7ec0,2022-05-12_04h21.50.803,classification_task,2021.2.3,Win32,147.4926254,627c6715c52fd12f31907bcf,,,,,,,,,,,,,,,,,,,,,,,l,1,"[""0.149"",""0.415"",""0.036"",""0.708""]","[1,1,0,1]",0,38,38,38,1,1,0,,,0,FALSE,3.2339,,,,,,,,,,,,,,,,,,,,,,,,,,,,,,,
,6090a1a1ee7410df2cb47b12,627c6f2fd75714cd160e7ec0,2022-05-12_04h21.50.803,classification_task,2021.2.3,Win32,147.4926254,627c6715c52fd12f31907bcf,,,,,,,,,,,,,,,,,,,,,,,a,1,"[""0.036"",""0.564"",""0.653"",""0.877""]","[0,1,1,1]",0,39,39,39,1,0,1,,,0,FALSE,1.6503,,,,,,,,,,,,,,,,,,,,,,,,,,,,,,,
,6090a1a1ee7410df2cb47b12,627c6f2fd75714cd160e7ec0,2022-05-12_04h21.50.803,classification_task,2021.2.3,Win32,147.4926254,627c6715c52fd12f31907bcf,,,,,,,,,,,,,,,,,,,,,,,a,0,"[""0.058"",""0.415"",""0.506"",""0.708""]","[0,1,1,1]",0,40,40,40,1,1,0,,,0,FALSE,2.2786,,,,,,,,,,,,,,,,,,,,,,,,,,,,,,,
,6090a1a1ee7410df2cb47b12,627c6f2fd75714cd160e7ec0,2022-05-12_04h21.50.803,classification_task,2021.2.3,Win32,147.4926254,627c6715c52fd12f31907bcf,,,,,,,,,,,,,,,,,,,,,,,l,1,"[""0.149"",""0.415"",""0.506"",""0.971""]","[1,1,1,0]",0,41,41,41,1,1,0,,,0,FALSE,1.3328,,,,,,,,,,,,,,,,,,,,,,,,,,,,,,,
,6090a1a1ee7410df2cb47b12,627c6f2fd75714cd160e7ec0,2022-05-12_04h21.50.803,classification_task,2021.2.3,Win32,147.4926254,627c6715c52fd12f31907bcf,,,,,,,,,,,,,,,,,,,,,,,a,0,"[""0.060"",""0.380"",""0.469"",""0.817""]","[0,1,1,1]",0,42,42,42,1,1,1,,,0,FALSE,2.751,,,,,,,,,,,,,,,,,,,,,,,,,,,,,,,
,6090a1a1ee7410df2cb47b12,627c6f2fd75714cd160e7ec0,2022-05-12_04h21.50.803,classification_task,2021.2.3,Win32,147.4926254,627c6715c52fd12f31907bcf,,,,,,,,,,,,,,,,,,,,,,,a,1,"[""0.222"",""0.336"",""0.187"",""0.913""]","[1,1,0,1]",0,43,43,43,1,0,0,,,0,FALSE,2.4008,,,,,,,,,,,,,,,,,,,,,,,,,,,,,,,
,6090a1a1ee7410df2cb47b12,627c6f2fd75714cd160e7ec0,2022-05-12_04h21.50.803,classification_task,2021.2.3,Win32,147.4926254,627c6715c52fd12f31907bcf,,,,,,,,,,,,,,,,,,,,,,,l,1,"[""0.115"",""0.380"",""0.469"",""0.058""]","[1,1,1,0]",0,44,44,44,1,1,1,,,0,FALSE,2.634,,,,,,,,,,,,,,,,,,,,,,,,,,,,,,,
,6090a1a1ee7410df2cb47b12,627c6f2fd75714cd160e7ec0,2022-05-12_04h21.50.803,classification_task,2021.2.3,Win32,147.4926254,627c6715c52fd12f31907bcf,,,,,,,,,,,,,,,,,,,,,,,l,0,"[""0.295"",""0.564"",""0.653"",""0.954""]","[1,1,1,0]",0,45,45,45,1,0,1,,,0,FALSE,3.4837,,,,,,,,,,,,,,,,,,,,,,,,,,,,,,,
,6090a1a1ee7410df2cb47b12,627c6f2fd75714cd160e7ec0,2022-05-12_04h21.50.803,classification_task,2021.2.3,Win32,147.4926254,627c6715c52fd12f31907bcf,,,,,,,,,,,,,,,,,,,,,,,l,1,"[""0.149"",""0.952"",""0.506"",""0.708""]","[1,0,1,1]",0,46,46,46,1,1,0,,,0,FALSE,3.6667,,,,,,,,,,,,,,,,,,,,,,,,,,,,,,,
,6090a1a1ee7410df2cb47b12,627c6f2fd75714cd160e7ec0,2022-05-12_04h21.50.803,classification_task,2021.2.3,Win32,147.4926254,627c6715c52fd12f31907bcf,,,,,,,,,,,,,,,,,,,,,,,a,1,"[""0.058"",""0.336"",""0.756"",""0.913""]","[0,1,1,1]",0,47,47,47,1,0,0,,,0,FALSE,2.0676,,,,,,,,,,,,,,,,,,,,,,,,,,,,,,,
,6090a1a1ee7410df2cb47b12,627c6f2fd75714cd160e7ec0,2022-05-12_04h21.50.803,classification_task,2021.2.3,Win32,147.4926254,627c6715c52fd12f31907bcf,,,,,,,,,,,,,,,,,,,,,,,l,1,"[""0.149"",""0.415"",""0.506"",""0.035""]","[1,1,1,0]",0,48,48,48,1,1,0,,,0,FALSE,1.5838,,,,,,,,,,,,,,,,,,,,,,,,,,,,,,,
,6090a1a1ee7410df2cb47b12,627c6f2fd75714cd160e7ec0,2022-05-12_04h21.50.803,classification_task,2021.2.3,Win32,147.4926254,627c6715c52fd12f31907bcf,,,,,,,,,,,,,,,,,,,,,,,a,1,"[""0.222"",""0.336"",""0.053"",""0.913""]","[1,1,0,1]",0,49,49,49,1,0,0,,,0,FALSE,1.2505,,,,,,,,,,,,,,,,,,,,,,,,,,,,,,,
,6090a1a1ee7410df2cb47b12,627c6f2fd75714cd160e7ec0,2022-05-12_04h21.50.803,classification_task,2021.2.3,Win32,147.4926254,627c6715c52fd12f31907bcf,,,,,,,,,,,,,,,,,,,,,,,l,1,"[""0.952"",""0.380"",""0.469"",""0.817""]","[0,1,1,1]",0,50,50,50,1,1,1,,,0,FALSE,2.6836,,,,,,,,,,,,,,,,,,,,,,,,,,,,,,,
,6090a1a1ee7410df2cb47b12,627c6f2fd75714cd160e7ec0,2022-05-12_04h21.50.803,classification_task,2021.2.3,Win32,147.4926254,627c6715c52fd12f31907bcf,,,,,,,,,,,,,,,,,,,,,,,l,1,"[""0.053"",""0.415"",""0.506"",""0.708""]","[0,1,1,1]",0,51,51,51,1,1,0,,,0,FALSE,2.6524,,,,,,,,,,,,,,,,,,,,,,,,,,,,,,,
,6090a1a1ee7410df2cb47b12,627c6f2fd75714cd160e7ec0,2022-05-12_04h21.50.803,classification_task,2021.2.3,Win32,147.4926254,627c6715c52fd12f31907bcf,,,,,,,,,,,,,,,,,,,,,,,a,1,"[""0.222"",""0.336"",""0.756"",""0.257""]","[1,1,1,0]",0,52,52,52,1,0,0,,,0,FALSE,2.7175,,,,,,,,,,,,,,,,,,,,,,,,,,,,,,,
,6090a1a1ee7410df2cb47b12,627c6f2fd75714cd160e7ec0,2022-05-12_04h21.50.803,classification_task,2021.2.3,Win32,147.4926254,627c6715c52fd12f31907bcf,,,,,,,,,,,,,,,,,,,,,,,a,1,"[""0.295"",""0.564"",""0.073"",""0.877""]","[1,1,0,1]",0,53,53,53,1,0,1,,,0,FALSE,2.5501,,,,,,,,,,,,,,,,,,,,,,,,,,,,,,,
,6090a1a1ee7410df2cb47b12,627c6f2fd75714cd160e7ec0,2022-05-12_04h21.50.803,classification_task,2021.2.3,Win32,147.4926254,627c6715c52fd12f31907bcf,,,,,,,,,,,,,,,,,,,,,,,l,0,"[""0.050"",""0.564"",""0.653"",""0.877""]","[0,1,1,1]",0,54,54,54,1,0,1,,,0,FALSE,3.1832,,,,,,,,,,,,,,,,,,,,,,,,,,,,,,,
,6090a1a1ee7410df2cb47b12,627c6f2fd75714cd160e7ec0,2022-05-12_04h21.50.803,classification_task,2021.2.3,Win32,147.4926254,627c6715c52fd12f31907bcf,,,,,,,,,,,,,,,,,,,,,,,l,1,"[""0.149"",""0.971"",""0.506"",""0.708""]","[1,0,1,1]",0,55,55,55,1,1,0,,,0,FALSE,1.9678,,,,,,,,,,,,,,,,,,,,,,,,,,,,,,,
,6090a1a1ee7410df2cb47b12,627c6f2fd75714cd160e7ec0,2022-05-12_04h21.50.803,classification_task,2021.2.3,Win32,147.4926254,627c6715c52fd12f31907bcf,,,,,,,,,,,,,,,,,,,,,,,a,0,"[""0.115"",""0.380"",""0.073"",""0.817""]","[1,1,0,1]",0,56,56,56,1,1,1,,,0,FALSE,3.6833,,,,,,,,,,,,,,,,,,,,,,,,,,,,,,,
,6090a1a1ee7410df2cb47b12,627c6f2fd75714cd160e7ec0,2022-05-12_04h21.50.803,classification_task,2021.2.3,Win32,147.4926254,627c6715c52fd12f31907bcf,,,,,,,,,,,,,,,,,,,,,,,l,1,"[""0.149"",""0.415"",""0.187"",""0.708""]","[1,1,0,1]",0,57,57,57,1,1,0,,,0,FALSE,1.8838,,,,,,,,,,,,,,,,,,,,,,,,,,,,,,,
,6090a1a1ee7410df2cb47b12,627c6f2fd75714cd160e7ec0,2022-05-12_04h21.50.803,classification_task,2021.2.3,Win32,147.4926254,627c6715c52fd12f31907bcf,,,,,,,,,,,,,,,,,,,,,,,a,1,"[""0.295"",""0.564"",""0.653"",""0.971""]","[1,1,1,0]",0,58,58,58,1,0,1,,,0,FALSE,2.2179,,,,,,,,,,,,,,,,,,,,,,,,,,,,,,,
,6090a1a1ee7410df2cb47b12,627c6f2fd75714cd160e7ec0,2022-05-12_04h21.50.803,classification_task,2021.2.3,Win32,147.4926254,627c6715c52fd12f31907bcf,,,,,,,,,,,,,,,,,,,,,,,l,0,"[""0.295"",""0.050"",""0.653"",""0.877""]","[1,0,1,1]",0,59,59,59,1,0,1,,,0,FALSE,2.9335,,,,,,,,,,,,,,,,,,,,,,,,,,,,,,,
,6090a1a1ee7410df2cb47b12,627c6f2fd75714cd160e7ec0,2022-05-12_04h21.50.803,classification_task,2021.2.3,Win32,147.4926254,627c6715c52fd12f31907bcf,,,,,,,,,,,,,,,,,,,,,,,a,0,"[""0.115"",""0.380"",""0.469"",""0.257""]","[1,1,1,0]",0,60,60,60,1,1,1,,,0,FALSE,2.65,,,,,,,,,,,,,,,,,,,,,,,,,,,,,,,
,6090a1a1ee7410df2cb47b12,627c6f2fd75714cd160e7ec0,2022-05-12_04h21.50.803,classification_task,2021.2.3,Win32,147.4926254,627c6715c52fd12f31907bcf,,,,,,,,,,,,,,,,,,,,,,,a,1,"[""0.222"",""0.050"",""0.756"",""0.913""]","[1,0,1,1]",0,61,61,61,1,0,0,,,0,FALSE,4.7172,,,,,,,,,,,,,,,,,,,,,,,,,,,,,,,
,6090a1a1ee7410df2cb47b12,627c6f2fd75714cd160e7ec0,2022-05-12_04h21.50.803,classification_task,2021.2.3,Win32,147.4926254,627c6715c52fd12f31907bcf,,,,,,,,,,,,,,,,,,,,,,,a,1,"[""0.073"",""0.336"",""0.756"",""0.913""]","[0,1,1,1]",0,62,62,62,1,0,0,,,0,FALSE,3.2175,,,,,,,,,,,,,,,,,,,,,,,,,,,,,,,
,6090a1a1ee7410df2cb47b12,627c6f2fd75714cd160e7ec0,2022-05-12_04h21.50.803,classification_task,2021.2.3,Win32,147.4926254,627c6715c52fd12f31907bcf,,,,,,,,,,,,,,,,,,,,,,,l,1,"[""0.115"",""0.971"",""0.469"",""0.817""]","[1,0,1,1]",0,63,63,63,1,1,1,,,0,FALSE,2.901,,,,,,,,,,,,,,,,,,,,,,,,,,,,,,,
,6090a1a1ee7410df2cb47b12,627c6f2fd75714cd160e7ec0,2022-05-12_04h21.50.803,classification_task,2021.2.3,Win32,147.4926254,627c6715c52fd12f31907bcf,,,,,,,,,,,,,,,,,,,,,,,,,,,,,,,,,,,,,,,0, ,,0,2.109543406,243.3316,0,2,2,2,1,2,3,,,,,,,,,,,,,,,,,,
,6090a1a1ee7410df2cb47b12,627c6f2fd75714cd160e7ec0,2022-05-12_04h21.50.803,classification_task,2021.2.3,Win32,147.4926254,627c6715c52fd12f31907bcf,,,,,,,,,,,,,,,,,,,,,,,,,,,,,,,,,,,,,,,1,  ,,0,7.743484225,248.1817,0,2,2,2,1,2,3,,,,,,,,,,,,,,,,,,
,6090a1a1ee7410df2cb47b12,627c6f2fd75714cd160e7ec0,2022-05-12_04h21.50.803,classification_task,2021.2.3,Win32,147.4926254,627c6715c52fd12f31907bcf,,,,,,,,,,,,,,,,,,,,,,,,,,,,,,,,,,,,,,,2,  ,,0,0,232.298,0,2,2,2,1,2,3,,,,,,,,,,,,,,,,,,
,6090a1a1ee7410df2cb47b12,627c6f2fd75714cd160e7ec0,2022-05-12_04h21.50.803,classification_task,2021.2.3,Win32,147.4926254,627c6715c52fd12f31907bcf,,,,,,,,,,,,,,,,,,,,,,,,,,,,,,,,,,,,,,,,,,,,,0,2,2,2,1,,3,,,,,,,,,,,,,,,,,,
,6090a1a1ee7410df2cb47b12,627c6f2fd75714cd160e7ec0,2022-05-12_04h21.50.803,classification_task,2021.2.3,Win32,147.4926254,627c6715c52fd12f31907bcf,,,,,,,,,,,,,,,,,,,,,,,,,,,,,,,,,,,,,,,,,,,,,,,,,,,,,I believe the aid is a competent performer,,0.7,0,5,987.1594,0,0,0,0,1,0,,,,,
,6090a1a1ee7410df2cb47b12,627c6f2fd75714cd160e7ec0,2022-05-12_04h21.50.803,classification_task,2021.2.3,Win32,147.4926254,627c6715c52fd12f31907bcf,,,,,,,,,,,,,,,,,,,,,,,,,,,,,,,,,,,,,,,,,,,,,,,,,,,,,I trust the aid,,0.7,0,5,988.5249,0,0,0,0,1,0,,,,,
,6090a1a1ee7410df2cb47b12,627c6f2fd75714cd160e7ec0,2022-05-12_04h21.50.803,classification_task,2021.2.3,Win32,147.4926254,627c6715c52fd12f31907bcf,,,,,,,,,,,,,,,,,,,,,,,,,,,,,,,,,,,,,,,,,,,,,,,,,,,,,I have confidence in the advice given by the aid,,0.7,0,4,990.6061,0,0,0,0,1,0,,,,,
,6090a1a1ee7410df2cb47b12,627c6f2fd75714cd160e7ec0,2022-05-12_04h21.50.803,classification_task,2021.2.3,Win32,147.4926254,627c6715c52fd12f31907bcf,,,,,,,,,,,,,,,,,,,,,,,,,,,,,,,,,,,,,,,,,,,,,,,,,,,,,I can depend on the aid,,0.7,0,5,992.655,0,0,0,0,1,0,,,,,
,6090a1a1ee7410df2cb47b12,627c6f2fd75714cd160e7ec0,2022-05-12_04h21.50.803,classification_task,2021.2.3,Win32,147.4926254,627c6715c52fd12f31907bcf,,,,,,,,,,,,,,,,,,,,,,,,,,,,,,,,,,,,,,,,,,,,,,,,,,,,,I can rely on the aid to behave in consistent ways,,0.7,0,4,995.5709,0,0,0,0,1,0,,,,,
,6090a1a1ee7410df2cb47b12,627c6f2fd75714cd160e7ec0,2022-05-12_04h21.50.803,classification_task,2021.2.3,Win32,147.4926254,627c6715c52fd12f31907bcf,,,,,,,,,,,,,,,,,,,,,,,,,,,,,,,,,,,,,,,,,,,,,,,,,,,,,I can rely on the aid to do its best every time I take its advice,,0.7,0,5,1000.2417,0,0,0,0,1,0,,,,,
,6090a1a1ee7410df2cb47b12,627c6f2fd75714cd160e7ec0,2022-05-12_04h21.50.803,classification_task,2021.2.3,Win32,147.4926254,627c6715c52fd12f31907bcf,,,,,,,,,,,,,,,,,,,,,,,,,,,,,,,,,,,,,,,,,,,,,,,,,,,,,"On trials you completed with assistance from the aid, how frequently did you think the aid was correct?",,0.7,0,90%,,0,0,0,0,1,0,,,,,
,6090a1a1ee7410df2cb47b12,627c6f2fd75714cd160e7ec0,2022-05-12_04h21.50.803,classification_task,2021.2.3,Win32,147.4926254,627c6715c52fd12f31907bcf,,,,,,,,,,,,,,,,,,,,,,,,,,,,,,,,,,,,,,,,,,,,,,,,,,,,,"On trials you completed without the aid, how frequently did you think you were correct?",,0.7,0,65%,,0,0,0,0,1,0,,,,,
,6090a1a1ee7410df2cb47b12,627c6f2fd75714cd160e7ec0,2022-05-12_04h21.50.803,classification_task,2021.2.3,Win32,147.4926254,627c6715c52fd12f31907bcf,,,,,,,,,,,,,,,,,,,,,,,,,,,,,,,,,,,,,,,,,,,,,,,,,,,,,,,,,,,0,0,0,0,1,,,,,,
,6090a1a1ee7410df2cb47b12,627c6f2fd75714cd160e7ec0,2022-05-12_04h21.50.803,classification_task,2021.2.3,Win32,147.4926254,627c6715c52fd12f31907bcf,,,,,,,,,,,,,,,,,,,,,,,,,,,,,,,,,,,,,,,,,,,,,,,,,,,,,,,,,,,,,,,,,space,10.0494,1038.0464,,
,6090a1a1ee7410df2cb47b12,627c6f2fd75714cd160e7ec0,2022-05-12_04h21.50.803,classification_task,2021.2.3,Win32,147.4926254,627c6715c52fd12f31907bcf,,,,,,,,,,,,,,,,,,,,,,,,,,,,,,,,,,,,,,,,,,,,,,,,,,,,,,,,,,,,,,,,,,,,"Mozilla/5.0 (Windows NT 10.0; Win64; x64) AppleWebKit/537.36 (KHTML, like Gecko) Chrome/101.0.4951.54 Safari/537.36",
,6090a1a1ee7410df2cb47b12,627c6f2fd75714cd160e7ec0,2022-05-12_04h21.50.803,classification_task,2021.2.3,Win32,147.4926254,627c6715c52fd12f31907bcf,,,,,,,,,,,,,,,,,,,,,,,,,,,,,,,,,,,,,,,,,,,,,,,,,,,,,,,,,,,,,,,,,,,,,HIGHLIGHT
