usingWebGL,participant,session,date,expName,psychopyVersion,OS,frameRate,PROLIFIC_PID,STUDY_ID,SESSION_ID,signatures_friend,signatures_foe,band_ranges_top,band_ranges_bottom,formitemText,formtype,formundefined,formitemWidth,formindex,formresponse,formrt,key_resp_2.keys,key_resp_2.rt,tute_resp.keys,tute_resp.rt,tutorial.thisRepN,tutorial.thisTrialN,tutorial.thisN,tutorial.thisIndex,tutorial.ran,key_resp_4.keys,key_resp_4.rt,key_resp.keys,key_resp.corr,key_resp.rt,lines_presented,is_signal_presented,trials.thisRepN,trials.thisTrialN,trials.thisN,trials.thisIndex,trials.ran,vessel,active_band,lines,is_signal,supported_pos,catch_trial,debrief_formindex,debrief_formitemText,debrief_formtype,debrief_formitemWidth,debrief_formresponse,debrief_formrt,phases.thisRepN,phases.thisTrialN,phases.thisN,phases.thisIndex,phases.ran,phases.order,phase,key_resp_3.keys,trustitemText,trusttype,trustitemWidth,trustindex,trustresponse,trustrt,support_status.thisRepN,support_status.thisTrialN,support_status.thisN,support_status.thisIndex,support_status.ran,support_status.order,key_resp_5.keys,key_resp_5.rt,globalClockTime,userAgent
TRUE,60990c861b856e3f6988306e,001,2022-04-29_03h09.26.130,classification_task,2021.2.3,Win32,60.47777442,60990c861b856e3f6988306e,626b377229c10585ec392f89,626b3aa76733f5a63aea1639,,,,,,,,,,,,,,,,,,,,,,,,,,,,,,,,,,,,,,,,,,,,,,,,,,,,,,,,,,,,,,,,,,,,
,60990c861b856e3f6988306e,001,2022-04-29_03h09.26.130,classification_task,2021.2.3,Win32,60.47777442,60990c861b856e3f6988306e,626b377229c10585ec392f89,626b3aa76733f5a63aea1639,"[[""0.297"",""0.545"",""0.922"",""0.965""],[""0.212"",""0.461"",""0.591"",""0.852""]]","[[""0.065"",""0.411"",""0.671"",""0.728""],[""0.100"",""0.357"",""0.494"",""0.782""]]","[1,10]","[100,1000]",Video game experience,,,0.7,0,,,,,,,,,,,,,,,,,,,,,,,,,,,,,,,,,,,,,,,,,,,,,,,,,,,,,,,,,,,
,60990c861b856e3f6988306e,001,2022-04-29_03h09.26.130,classification_task,2021.2.3,Win32,60.47777442,60990c861b856e3f6988306e,626b377229c10585ec392f89,626b3aa76733f5a63aea1639,,,,,Approximately how many hours did you spend playing video games in the last week?,,,0.7,0,30,,,,,,,,,,,,,,,,,,,,,,,,,,,,,,,,,,,,,,,,,,,,,,,,,,,,,,,,,,
,60990c861b856e3f6988306e,001,2022-04-29_03h09.26.130,classification_task,2021.2.3,Win32,60.47777442,60990c861b856e3f6988306e,626b377229c10585ec392f89,626b3aa76733f5a63aea1639,,,,,"Which game did you play the most this year? (Enter ""None"" if you didn't play any)",,,0.7,0,Satisfactory,,,,,,,,,,,,,,,,,,,,,,,,,,,,,,,,,,,,,,,,,,,,,,,,,,,,,,,,,,
,60990c861b856e3f6988306e,001,2022-04-29_03h09.26.130,classification_task,2021.2.3,Win32,60.47777442,60990c861b856e3f6988306e,626b377229c10585ec392f89,626b3aa76733f5a63aea1639,,,,,Visual perception,,,0.7,0,,,,,,,,,,,,,,,,,,,,,,,,,,,,,,,,,,,,,,,,,,,,,,,,,,,,,,,,,,,
,60990c861b856e3f6988306e,001,2022-04-29_03h09.26.130,classification_task,2021.2.3,Win32,60.47777442,60990c861b856e3f6988306e,626b377229c10585ec392f89,626b3aa76733f5a63aea1639,,,,,Do you have any form of color blindness?,,,0.7,0,No,21.951,,,,,,,,,,,,,,,,,,,,,,,,,,,,,,,,,,,,,,,,,,,,,,,,,,,,,,,,,
,60990c861b856e3f6988306e,001,2022-04-29_03h09.26.130,classification_task,2021.2.3,Win32,60.47777442,60990c861b856e3f6988306e,626b377229c10585ec392f89,626b3aa76733f5a63aea1639,,,,,Do you use software to change the colour temperature of your screen (e.g. f.lux)?,,,0.7,0,No,23.1652,,,,,,,,,,,,,,,,,,,,,,,,,,,,,,,,,,,,,,,,,,,,,,,,,,,,,,,,,
,60990c861b856e3f6988306e,001,2022-04-29_03h09.26.130,classification_task,2021.2.3,Win32,60.47777442,60990c861b856e3f6988306e,626b377229c10585ec392f89,626b3aa76733f5a63aea1639,,,,,,,,,,,,space,14.474,space,6.0338,0,0,0,0,1,,,,,,,,,,,,,,,,,,,,,,,,,,,,,,,,,,,,,,,,,,,,,,,,
,60990c861b856e3f6988306e,001,2022-04-29_03h09.26.130,classification_task,2021.2.3,Win32,60.47777442,60990c861b856e3f6988306e,626b377229c10585ec392f89,626b3aa76733f5a63aea1639,,,,,,,,,,,,,,space,5.8111,1,0,1,0,1,,,,,,,,,,,,,,,,,,,,,,,,,,,,,,,,,,,,,,,,,,,,,,,,
,60990c861b856e3f6988306e,001,2022-04-29_03h09.26.130,classification_task,2021.2.3,Win32,60.47777442,60990c861b856e3f6988306e,626b377229c10585ec392f89,626b3aa76733f5a63aea1639,,,,,,,,,,,,,,space,10.7526,2,0,2,0,1,,,,,,,,,,,,,,,,,,,,,,,,,,,,,,,,,,,,,,,,,,,,,,,,
,60990c861b856e3f6988306e,001,2022-04-29_03h09.26.130,classification_task,2021.2.3,Win32,60.47777442,60990c861b856e3f6988306e,626b377229c10585ec392f89,626b3aa76733f5a63aea1639,,,,,,,,,,,,,,space,7.3091,3,0,3,0,1,,,,,,,,,,,,,,,,,,,,,,,,,,,,,,,,,,,,,,,,,,,,,,,,
,60990c861b856e3f6988306e,001,2022-04-29_03h09.26.130,classification_task,2021.2.3,Win32,60.47777442,60990c861b856e3f6988306e,626b377229c10585ec392f89,626b3aa76733f5a63aea1639,,,,,,,,,,,,,,space,17.0419,4,0,4,0,1,,,,,,,,,,,,,,,,,,,,,,,,,,,,,,,,,,,,,,,,,,,,,,,,
,60990c861b856e3f6988306e,001,2022-04-29_03h09.26.130,classification_task,2021.2.3,Win32,60.47777442,60990c861b856e3f6988306e,626b377229c10585ec392f89,626b3aa76733f5a63aea1639,,,,,,,,,,,,,,,,,,,,,space,9.392,a,1,5.7125,"[""0.212"",""0.141"",""0.591"",""0.852""]","[1,0,1,1]",0,0,0,0,1,0,1,,,1,FALSE,,,,,,,,,,,,,,,,,,,,,,,,,,,,,,
,60990c861b856e3f6988306e,001,2022-04-29_03h09.26.130,classification_task,2021.2.3,Win32,60.47777442,60990c861b856e3f6988306e,626b377229c10585ec392f89,626b3aa76733f5a63aea1639,,,,,,,,,,,,,,,,,,,,,,,a,1,6.665,"[""0.297"",""0.628"",""0.922"",""0.965""]","[1,0,1,1]",0,1,1,1,1,0,0,,,1,FALSE,,,,,,,,,,,,,,,,,,,,,,,,,,,,,,
,60990c861b856e3f6988306e,001,2022-04-29_03h09.26.130,classification_task,2021.2.3,Win32,60.47777442,60990c861b856e3f6988306e,626b377229c10585ec392f89,626b3aa76733f5a63aea1639,,,,,,,,,,,,,,,,,,,,,,,l,1,2.1195,"[""0.065"",""0.258"",""0.671"",""0.728""]","[1,0,1,1]",0,2,2,2,1,1,0,,,1,FALSE,,,,,,,,,,,,,,,,,,,,,,,,,,,,,,
,60990c861b856e3f6988306e,001,2022-04-29_03h09.26.130,classification_task,2021.2.3,Win32,60.47777442,60990c861b856e3f6988306e,626b377229c10585ec392f89,626b3aa76733f5a63aea1639,,,,,,,,,,,,,,,,,,,,,,,a,1,3.1754,"[""0.212"",""0.461"",""0.591"",""0.252""]","[1,1,1,0]",0,3,3,3,1,0,1,,,1,FALSE,,,,,,,,,,,,,,,,,,,,,,,,,,,,,,
,60990c861b856e3f6988306e,001,2022-04-29_03h09.26.130,classification_task,2021.2.3,Win32,60.47777442,60990c861b856e3f6988306e,626b377229c10585ec392f89,626b3aa76733f5a63aea1639,,,,,,,,,,,,,,,,,,,,,,,l,1,2.5142,"[""0.100"",""0.357"",""0.494"",""0.169""]","[1,1,1,0]",0,4,4,4,1,1,1,,,1,FALSE,,,,,,,,,,,,,,,,,,,,,,,,,,,,,,
,60990c861b856e3f6988306e,001,2022-04-29_03h09.26.130,classification_task,2021.2.3,Win32,60.47777442,60990c861b856e3f6988306e,626b377229c10585ec392f89,626b3aa76733f5a63aea1639,,,,,,,,,,,,,,,,,,,,,,,,0,,"[""0.626"",""0.461"",""0.591"",""0.852""]","[0,1,1,1]",0,5,5,5,1,0,1,,,1,FALSE,,,,,,,,,,,,,,,,,,,,,,,,,,,,,,
,60990c861b856e3f6988306e,001,2022-04-29_03h09.26.130,classification_task,2021.2.3,Win32,60.47777442,60990c861b856e3f6988306e,626b377229c10585ec392f89,626b3aa76733f5a63aea1639,,,,,,,,,,,,,,,,,,,,,,,a,1,5.3416,"[""0.297"",""0.545"",""0.134"",""0.965""]","[1,1,0,1]",0,6,6,6,1,0,0,,,1,FALSE,,,,,,,,,,,,,,,,,,,,,,,,,,,,,,
,60990c861b856e3f6988306e,001,2022-04-29_03h09.26.130,classification_task,2021.2.3,Win32,60.47777442,60990c861b856e3f6988306e,626b377229c10585ec392f89,626b3aa76733f5a63aea1639,,,,,,,,,,,,,,,,,,,,,,,l,1,5.386,"[""0.100"",""0.357"",""0.252"",""0.782""]","[1,1,0,1]",0,7,7,7,1,1,1,,,1,FALSE,,,,,,,,,,,,,,,,,,,,,,,,,,,,,,
,60990c861b856e3f6988306e,001,2022-04-29_03h09.26.130,classification_task,2021.2.3,Win32,60.47777442,60990c861b856e3f6988306e,626b377229c10585ec392f89,626b3aa76733f5a63aea1639,,,,,,,,,,,,,,,,,,,,,,,l,1,5.8763,"[""0.065"",""0.411"",""0.671"",""0.172""]","[1,1,1,0]",0,8,8,8,1,1,0,,,1,FALSE,,,,,,,,,,,,,,,,,,,,,,,,,,,,,,
,60990c861b856e3f6988306e,001,2022-04-29_03h09.26.130,classification_task,2021.2.3,Win32,60.47777442,60990c861b856e3f6988306e,626b377229c10585ec392f89,626b3aa76733f5a63aea1639,,,,,,,,,,,,,,,,,,,,,,,a,1,5.3317,"[""0.134"",""0.545"",""0.922"",""0.965""]","[0,1,1,1]",0,9,9,9,1,0,0,,,1,FALSE,,,,,,,,,,,,,,,,,,,,,,,,,,,,,,
,60990c861b856e3f6988306e,001,2022-04-29_03h09.26.130,classification_task,2021.2.3,Win32,60.47777442,60990c861b856e3f6988306e,626b377229c10585ec392f89,626b3aa76733f5a63aea1639,,,,,,,,,,,,,,,,,,,,,,,a,1,7.5278,"[""0.297"",""0.545"",""0.922"",""0.178""]","[1,1,1,0]",0,10,10,10,1,0,0,,,1,FALSE,,,,,,,,,,,,,,,,,,,,,,,,,,,,,,
,60990c861b856e3f6988306e,001,2022-04-29_03h09.26.130,classification_task,2021.2.3,Win32,60.47777442,60990c861b856e3f6988306e,626b377229c10585ec392f89,626b3aa76733f5a63aea1639,,,,,,,,,,,,,,,,,,,,,,,l,1,5.7073,"[""0.100"",""0.144"",""0.494"",""0.782""]","[1,0,1,1]",0,11,11,11,1,1,1,,,1,FALSE,,,,,,,,,,,,,,,,,,,,,,,,,,,,,,
,60990c861b856e3f6988306e,001,2022-04-29_03h09.26.130,classification_task,2021.2.3,Win32,60.47777442,60990c861b856e3f6988306e,626b377229c10585ec392f89,626b3aa76733f5a63aea1639,,,,,,,,,,,,,,,,,,,,,,,a,1,4.0377,"[""0.212"",""0.461"",""0.252"",""0.852""]","[1,1,0,1]",0,12,12,12,1,0,1,,,1,FALSE,,,,,,,,,,,,,,,,,,,,,,,,,,,,,,
,60990c861b856e3f6988306e,001,2022-04-29_03h09.26.130,classification_task,2021.2.3,Win32,60.47777442,60990c861b856e3f6988306e,626b377229c10585ec392f89,626b3aa76733f5a63aea1639,,,,,,,,,,,,,,,,,,,,,,,l,1,2.7657,"[""0.065"",""0.411"",""0.259"",""0.728""]","[1,1,0,1]",0,13,13,13,1,1,0,,,1,FALSE,,,,,,,,,,,,,,,,,,,,,,,,,,,,,,
,60990c861b856e3f6988306e,001,2022-04-29_03h09.26.130,classification_task,2021.2.3,Win32,60.47777442,60990c861b856e3f6988306e,626b377229c10585ec392f89,626b3aa76733f5a63aea1639,,,,,,,,,,,,,,,,,,,,,,,l,1,5.8527,"[""0.178"",""0.357"",""0.494"",""0.782""]","[0,1,1,1]",0,14,14,14,1,1,1,,,1,FALSE,,,,,,,,,,,,,,,,,,,,,,,,,,,,,,
,60990c861b856e3f6988306e,001,2022-04-29_03h09.26.130,classification_task,2021.2.3,Win32,60.47777442,60990c861b856e3f6988306e,626b377229c10585ec392f89,626b3aa76733f5a63aea1639,,,,,,,,,,,,,,,,,,,,,,,l,1,5.2087,"[""0.144"",""0.411"",""0.671"",""0.728""]","[0,1,1,1]",0,15,15,15,1,1,0,,,1,FALSE,,,,,,,,,,,,,,,,,,,,,,,,,,,,,,
,60990c861b856e3f6988306e,001,2022-04-29_03h09.26.130,classification_task,2021.2.3,Win32,60.47777442,60990c861b856e3f6988306e,626b377229c10585ec392f89,626b3aa76733f5a63aea1639,,,,,,,,,,,,,,,,,,,,,,,a,1,5.5084,"[""0.212"",""0.258"",""0.591"",""0.852""]","[1,0,1,1]",0,16,16,16,1,0,1,,,1,FALSE,,,,,,,,,,,,,,,,,,,,,,,,,,,,,,
,60990c861b856e3f6988306e,001,2022-04-29_03h09.26.130,classification_task,2021.2.3,Win32,60.47777442,60990c861b856e3f6988306e,626b377229c10585ec392f89,626b3aa76733f5a63aea1639,,,,,,,,,,,,,,,,,,,,,,,a,1,2.5648,"[""0.172"",""0.545"",""0.922"",""0.965""]","[0,1,1,1]",0,17,17,17,1,0,0,,,1,FALSE,,,,,,,,,,,,,,,,,,,,,,,,,,,,,,
,60990c861b856e3f6988306e,001,2022-04-29_03h09.26.130,classification_task,2021.2.3,Win32,60.47777442,60990c861b856e3f6988306e,626b377229c10585ec392f89,626b3aa76733f5a63aea1639,,,,,,,,,,,,,,,,,,,,,,,l,1,2.4012,"[""0.100"",""0.357"",""0.157"",""0.782""]","[1,1,0,1]",0,18,18,18,1,1,1,,,1,FALSE,,,,,,,,,,,,,,,,,,,,,,,,,,,,,,
,60990c861b856e3f6988306e,001,2022-04-29_03h09.26.130,classification_task,2021.2.3,Win32,60.47777442,60990c861b856e3f6988306e,626b377229c10585ec392f89,626b3aa76733f5a63aea1639,,,,,,,,,,,,,,,,,,,,,,,l,1,4.2304,"[""0.100"",""0.357"",""0.494"",""0.157""]","[1,1,1,0]",0,19,19,19,1,1,1,,,1,FALSE,,,,,,,,,,,,,,,,,,,,,,,,,,,,,,
,60990c861b856e3f6988306e,001,2022-04-29_03h09.26.130,classification_task,2021.2.3,Win32,60.47777442,60990c861b856e3f6988306e,626b377229c10585ec392f89,626b3aa76733f5a63aea1639,,,,,,,,,,,,,,,,,,,,,,,l,1,3.2588,"[""0.065"",""0.411"",""0.253"",""0.728""]","[1,1,0,1]",0,20,20,20,1,1,0,,,1,FALSE,,,,,,,,,,,,,,,,,,,,,,,,,,,,,,
,60990c861b856e3f6988306e,001,2022-04-29_03h09.26.130,classification_task,2021.2.3,Win32,60.47777442,60990c861b856e3f6988306e,626b377229c10585ec392f89,626b3aa76733f5a63aea1639,,,,,,,,,,,,,,,,,,,,,,,a,1,2.6576,"[""0.626"",""0.461"",""0.591"",""0.852""]","[0,1,1,1]",0,21,21,21,1,0,1,,,1,FALSE,,,,,,,,,,,,,,,,,,,,,,,,,,,,,,
,60990c861b856e3f6988306e,001,2022-04-29_03h09.26.130,classification_task,2021.2.3,Win32,60.47777442,60990c861b856e3f6988306e,626b377229c10585ec392f89,626b3aa76733f5a63aea1639,,,,,,,,,,,,,,,,,,,,,,,a,1,2.169,"[""0.297"",""0.545"",""0.157"",""0.965""]","[1,1,0,1]",0,22,22,22,1,0,0,,,1,FALSE,,,,,,,,,,,,,,,,,,,,,,,,,,,,,,
,60990c861b856e3f6988306e,001,2022-04-29_03h09.26.130,classification_task,2021.2.3,Win32,60.47777442,60990c861b856e3f6988306e,626b377229c10585ec392f89,626b3aa76733f5a63aea1639,,,,,,,,,,,,,,,,,,,,,,,l,1,6.0429,"[""0.100"",""0.252"",""0.494"",""0.782""]","[1,0,1,1]",0,23,23,23,1,1,1,,,1,FALSE,,,,,,,,,,,,,,,,,,,,,,,,,,,,,,
,60990c861b856e3f6988306e,001,2022-04-29_03h09.26.130,classification_task,2021.2.3,Win32,60.47777442,60990c861b856e3f6988306e,626b377229c10585ec392f89,626b3aa76733f5a63aea1639,,,,,,,,,,,,,,,,,,,,,,,a,1,3.6291,"[""0.297"",""0.545"",""0.922"",""0.178""]","[1,1,1,0]",0,24,24,24,1,0,0,,,1,FALSE,,,,,,,,,,,,,,,,,,,,,,,,,,,,,,
,60990c861b856e3f6988306e,001,2022-04-29_03h09.26.130,classification_task,2021.2.3,Win32,60.47777442,60990c861b856e3f6988306e,626b377229c10585ec392f89,626b3aa76733f5a63aea1639,,,,,,,,,,,,,,,,,,,,,,,l,1,4.0449,"[""0.065"",""0.628"",""0.671"",""0.728""]","[1,0,1,1]",0,25,25,25,1,1,0,,,1,FALSE,,,,,,,,,,,,,,,,,,,,,,,,,,,,,,
,60990c861b856e3f6988306e,001,2022-04-29_03h09.26.130,classification_task,2021.2.3,Win32,60.47777442,60990c861b856e3f6988306e,626b377229c10585ec392f89,626b3aa76733f5a63aea1639,,,,,,,,,,,,,,,,,,,,,,,l,1,3.9621,"[""0.253"",""0.411"",""0.671"",""0.728""]","[0,1,1,1]",0,26,26,26,1,1,0,,,1,FALSE,,,,,,,,,,,,,,,,,,,,,,,,,,,,,,
,60990c861b856e3f6988306e,001,2022-04-29_03h09.26.130,classification_task,2021.2.3,Win32,60.47777442,60990c861b856e3f6988306e,626b377229c10585ec392f89,626b3aa76733f5a63aea1639,,,,,,,,,,,,,,,,,,,,,,,a,1,1.7086,"[""0.212"",""0.461"",""0.591"",""0.253""]","[1,1,1,0]",0,27,27,27,1,0,1,,,1,FALSE,,,,,,,,,,,,,,,,,,,,,,,,,,,,,,
,60990c861b856e3f6988306e,001,2022-04-29_03h09.26.130,classification_task,2021.2.3,Win32,60.47777442,60990c861b856e3f6988306e,626b377229c10585ec392f89,626b3aa76733f5a63aea1639,,,,,,,,,,,,,,,,,,,,,,,l,1,4.3129,"[""0.178"",""0.357"",""0.494"",""0.782""]","[0,1,1,1]",0,28,28,28,1,1,1,,,1,FALSE,,,,,,,,,,,,,,,,,,,,,,,,,,,,,,
,60990c861b856e3f6988306e,001,2022-04-29_03h09.26.130,classification_task,2021.2.3,Win32,60.47777442,60990c861b856e3f6988306e,626b377229c10585ec392f89,626b3aa76733f5a63aea1639,,,,,,,,,,,,,,,,,,,,,,,a,1,2.278,"[""0.212"",""0.461"",""0.253"",""0.852""]","[1,1,0,1]",0,29,29,29,1,0,1,,,1,FALSE,,,,,,,,,,,,,,,,,,,,,,,,,,,,,,
,60990c861b856e3f6988306e,001,2022-04-29_03h09.26.130,classification_task,2021.2.3,Win32,60.47777442,60990c861b856e3f6988306e,626b377229c10585ec392f89,626b3aa76733f5a63aea1639,,,,,,,,,,,,,,,,,,,,,,,l,1,2.945,"[""0.065"",""0.411"",""0.671"",""0.626""]","[1,1,1,0]",0,30,30,30,1,1,0,,,1,FALSE,,,,,,,,,,,,,,,,,,,,,,,,,,,,,,
,60990c861b856e3f6988306e,001,2022-04-29_03h09.26.130,classification_task,2021.2.3,Win32,60.47777442,60990c861b856e3f6988306e,626b377229c10585ec392f89,626b3aa76733f5a63aea1639,,,,,,,,,,,,,,,,,,,,,,,a,1,1.772,"[""0.297"",""0.134"",""0.922"",""0.965""]","[1,0,1,1]",0,31,31,31,1,0,0,,,1,FALSE,,,,,,,,,,,,,,,,,,,,,,,,,,,,,,
,60990c861b856e3f6988306e,001,2022-04-29_03h09.26.130,classification_task,2021.2.3,Win32,60.47777442,60990c861b856e3f6988306e,626b377229c10585ec392f89,626b3aa76733f5a63aea1639,,,,,,,,,,,,,,,,,,,,,,,a,1,3.048,"[""0.626"",""0.545"",""0.922"",""0.965""]","[0,1,1,1]",0,32,32,32,1,0,0,,,1,FALSE,,,,,,,,,,,,,,,,,,,,,,,,,,,,,,
,60990c861b856e3f6988306e,001,2022-04-29_03h09.26.130,classification_task,2021.2.3,Win32,60.47777442,60990c861b856e3f6988306e,626b377229c10585ec392f89,626b3aa76733f5a63aea1639,,,,,,,,,,,,,,,,,,,,,,,l,0,4.3674,"[""0.212"",""0.461"",""0.144"",""0.852""]","[1,1,0,1]",0,33,33,33,1,0,1,,,1,FALSE,,,,,,,,,,,,,,,,,,,,,,,,,,,,,,
,60990c861b856e3f6988306e,001,2022-04-29_03h09.26.130,classification_task,2021.2.3,Win32,60.47777442,60990c861b856e3f6988306e,626b377229c10585ec392f89,626b3aa76733f5a63aea1639,,,,,,,,,,,,,,,,,,,,,,,l,1,6.9011,"[""0.100"",""0.357"",""0.247"",""0.782""]","[1,1,0,1]",0,34,34,34,1,1,1,,,1,FALSE,,,,,,,,,,,,,,,,,,,,,,,,,,,,,,
,60990c861b856e3f6988306e,001,2022-04-29_03h09.26.130,classification_task,2021.2.3,Win32,60.47777442,60990c861b856e3f6988306e,626b377229c10585ec392f89,626b3aa76733f5a63aea1639,,,,,,,,,,,,,,,,,,,,,,,a,0,1.1149,"[""0.259"",""0.357"",""0.494"",""0.782""]","[0,1,1,1]",0,35,35,35,1,1,1,,,1,FALSE,,,,,,,,,,,,,,,,,,,,,,,,,,,,,,
,60990c861b856e3f6988306e,001,2022-04-29_03h09.26.130,classification_task,2021.2.3,Win32,60.47777442,60990c861b856e3f6988306e,626b377229c10585ec392f89,626b3aa76733f5a63aea1639,,,,,,,,,,,,,,,,,,,,,,,a,1,1.1709,"[""0.297"",""0.545"",""0.922"",""0.157""]","[1,1,1,0]",0,36,36,36,1,0,0,,,1,FALSE,,,,,,,,,,,,,,,,,,,,,,,,,,,,,,
,60990c861b856e3f6988306e,001,2022-04-29_03h09.26.130,classification_task,2021.2.3,Win32,60.47777442,60990c861b856e3f6988306e,626b377229c10585ec392f89,626b3aa76733f5a63aea1639,,,,,,,,,,,,,,,,,,,,,,,l,1,1.5419,"[""0.065"",""0.411"",""0.671"",""0.157""]","[1,1,1,0]",0,37,37,37,1,1,0,,,1,FALSE,,,,,,,,,,,,,,,,,,,,,,,,,,,,,,
,60990c861b856e3f6988306e,001,2022-04-29_03h09.26.130,classification_task,2021.2.3,Win32,60.47777442,60990c861b856e3f6988306e,626b377229c10585ec392f89,626b3aa76733f5a63aea1639,,,,,,,,,,,,,,,,,,,,,,,a,0,1.3259,"[""0.100"",""0.357"",""0.494"",""0.144""]","[1,1,1,0]",0,38,38,38,1,1,1,,,1,FALSE,,,,,,,,,,,,,,,,,,,,,,,,,,,,,,
,60990c861b856e3f6988306e,001,2022-04-29_03h09.26.130,classification_task,2021.2.3,Win32,60.47777442,60990c861b856e3f6988306e,626b377229c10585ec392f89,626b3aa76733f5a63aea1639,,,,,,,,,,,,,,,,,,,,,,,a,1,1.1685,"[""0.212"",""0.252"",""0.591"",""0.852""]","[1,0,1,1]",0,39,39,39,1,0,1,,,1,FALSE,,,,,,,,,,,,,,,,,,,,,,,,,,,,,,
,60990c861b856e3f6988306e,001,2022-04-29_03h09.26.130,classification_task,2021.2.3,Win32,60.47777442,60990c861b856e3f6988306e,626b377229c10585ec392f89,626b3aa76733f5a63aea1639,,,,,,,,,,,,,,,,,,,,,,,a,1,0.9352,"[""0.212"",""0.461"",""0.591"",""0.252""]","[1,1,1,0]",0,40,40,40,1,0,1,,,1,FALSE,,,,,,,,,,,,,,,,,,,,,,,,,,,,,,
,60990c861b856e3f6988306e,001,2022-04-29_03h09.26.130,classification_task,2021.2.3,Win32,60.47777442,60990c861b856e3f6988306e,626b377229c10585ec392f89,626b3aa76733f5a63aea1639,,,,,,,,,,,,,,,,,,,,,,,l,1,0.8392,"[""0.065"",""0.411"",""0.253"",""0.728""]","[1,1,0,1]",0,41,41,41,1,1,0,,,1,FALSE,,,,,,,,,,,,,,,,,,,,,,,,,,,,,,
,60990c861b856e3f6988306e,001,2022-04-29_03h09.26.130,classification_task,2021.2.3,Win32,60.47777442,60990c861b856e3f6988306e,626b377229c10585ec392f89,626b3aa76733f5a63aea1639,,,,,,,,,,,,,,,,,,,,,,,a,1,1.6621,"[""0.253"",""0.461"",""0.591"",""0.852""]","[0,1,1,1]",0,42,42,42,1,0,1,,,1,FALSE,,,,,,,,,,,,,,,,,,,,,,,,,,,,,,
,60990c861b856e3f6988306e,001,2022-04-29_03h09.26.130,classification_task,2021.2.3,Win32,60.47777442,60990c861b856e3f6988306e,626b377229c10585ec392f89,626b3aa76733f5a63aea1639,,,,,,,,,,,,,,,,,,,,,,,a,1,2.2631,"[""0.297"",""0.545"",""0.178"",""0.965""]","[1,1,0,1]",0,43,43,43,1,0,0,,,1,FALSE,,,,,,,,,,,,,,,,,,,,,,,,,,,,,,
,60990c861b856e3f6988306e,001,2022-04-29_03h09.26.130,classification_task,2021.2.3,Win32,60.47777442,60990c861b856e3f6988306e,626b377229c10585ec392f89,626b3aa76733f5a63aea1639,,,,,,,,,,,,,,,,,,,,,,,l,1,0.5115,"[""0.100"",""0.628"",""0.494"",""0.782""]","[1,0,1,1]",0,44,44,44,1,1,1,,,1,FALSE,,,,,,,,,,,,,,,,,,,,,,,,,,,,,,
,60990c861b856e3f6988306e,001,2022-04-29_03h09.26.130,classification_task,2021.2.3,Win32,60.47777442,60990c861b856e3f6988306e,626b377229c10585ec392f89,626b3aa76733f5a63aea1639,,,,,,,,,,,,,,,,,,,,,,,l,1,0.7057,"[""0.065"",""0.253"",""0.671"",""0.728""]","[1,0,1,1]",0,45,45,45,1,1,0,,,1,FALSE,,,,,,,,,,,,,,,,,,,,,,,,,,,,,,
,60990c861b856e3f6988306e,001,2022-04-29_03h09.26.130,classification_task,2021.2.3,Win32,60.47777442,60990c861b856e3f6988306e,626b377229c10585ec392f89,626b3aa76733f5a63aea1639,,,,,,,,,,,,,,,,,,,,,,,l,1,2.1172,"[""0.253"",""0.411"",""0.671"",""0.728""]","[0,1,1,1]",0,46,46,46,1,1,0,,,1,FALSE,,,,,,,,,,,,,,,,,,,,,,,,,,,,,,
,60990c861b856e3f6988306e,001,2022-04-29_03h09.26.130,classification_task,2021.2.3,Win32,60.47777442,60990c861b856e3f6988306e,626b377229c10585ec392f89,626b3aa76733f5a63aea1639,,,,,,,,,,,,,,,,,,,,,,,a,1,0.7278,"[""0.297"",""0.252"",""0.922"",""0.965""]","[1,0,1,1]",0,47,47,47,1,0,0,,,1,FALSE,,,,,,,,,,,,,,,,,,,,,,,,,,,,,,
,60990c861b856e3f6988306e,001,2022-04-29_03h09.26.130,classification_task,2021.2.3,Win32,60.47777442,60990c861b856e3f6988306e,626b377229c10585ec392f89,626b3aa76733f5a63aea1639,,,,,,,,,,,,,,,,,,,,,,,l,1,0.9507,"[""0.100"",""0.357"",""0.494"",""0.259""]","[1,1,1,0]",0,48,48,48,1,1,1,,,1,FALSE,,,,,,,,,,,,,,,,,,,,,,,,,,,,,,
,60990c861b856e3f6988306e,001,2022-04-29_03h09.26.130,classification_task,2021.2.3,Win32,60.47777442,60990c861b856e3f6988306e,626b377229c10585ec392f89,626b3aa76733f5a63aea1639,,,,,,,,,,,,,,,,,,,,,,,a,1,0.9162,"[""0.297"",""0.247"",""0.922"",""0.965""]","[1,0,1,1]",0,49,49,49,1,0,0,,,1,FALSE,,,,,,,,,,,,,,,,,,,,,,,,,,,,,,
,60990c861b856e3f6988306e,001,2022-04-29_03h09.26.130,classification_task,2021.2.3,Win32,60.47777442,60990c861b856e3f6988306e,626b377229c10585ec392f89,626b3aa76733f5a63aea1639,,,,,,,,,,,,,,,,,,,,,,,a,1,1.2666,"[""0.297"",""0.545"",""0.172"",""0.965""]","[1,1,0,1]",0,50,50,50,1,0,0,,,1,FALSE,,,,,,,,,,,,,,,,,,,,,,,,,,,,,,
,60990c861b856e3f6988306e,001,2022-04-29_03h09.26.130,classification_task,2021.2.3,Win32,60.47777442,60990c861b856e3f6988306e,626b377229c10585ec392f89,626b3aa76733f5a63aea1639,,,,,,,,,,,,,,,,,,,,,,,l,1,1.4672,"[""0.100"",""0.357"",""0.178"",""0.782""]","[1,1,0,1]",0,51,51,51,1,1,1,,,1,FALSE,,,,,,,,,,,,,,,,,,,,,,,,,,,,,,
,60990c861b856e3f6988306e,001,2022-04-29_03h09.26.130,classification_task,2021.2.3,Win32,60.47777442,60990c861b856e3f6988306e,626b377229c10585ec392f89,626b3aa76733f5a63aea1639,,,,,,,,,,,,,,,,,,,,,,,l,1,0.7666,"[""0.065"",""0.411"",""0.178"",""0.728""]","[1,1,0,1]",0,52,52,52,1,1,0,,,1,FALSE,,,,,,,,,,,,,,,,,,,,,,,,,,,,,,
,60990c861b856e3f6988306e,001,2022-04-29_03h09.26.130,classification_task,2021.2.3,Win32,60.47777442,60990c861b856e3f6988306e,626b377229c10585ec392f89,626b3aa76733f5a63aea1639,,,,,,,,,,,,,,,,,,,,,,,l,0,1.7664,"[""0.212"",""0.461"",""0.591"",""0.141""]","[1,1,1,0]",0,53,53,53,1,0,1,,,1,FALSE,,,,,,,,,,,,,,,,,,,,,,,,,,,,,,
,60990c861b856e3f6988306e,001,2022-04-29_03h09.26.130,classification_task,2021.2.3,Win32,60.47777442,60990c861b856e3f6988306e,626b377229c10585ec392f89,626b3aa76733f5a63aea1639,,,,,,,,,,,,,,,,,,,,,,,l,1,0.7341,"[""0.100"",""0.626"",""0.494"",""0.782""]","[1,0,1,1]",0,54,54,54,1,1,1,,,1,FALSE,,,,,,,,,,,,,,,,,,,,,,,,,,,,,,
,60990c861b856e3f6988306e,001,2022-04-29_03h09.26.130,classification_task,2021.2.3,Win32,60.47777442,60990c861b856e3f6988306e,626b377229c10585ec392f89,626b3aa76733f5a63aea1639,,,,,,,,,,,,,,,,,,,,,,,l,1,0.7167,"[""0.065"",""0.169"",""0.671"",""0.728""]","[1,0,1,1]",0,55,55,55,1,1,0,,,1,FALSE,,,,,,,,,,,,,,,,,,,,,,,,,,,,,,
,60990c861b856e3f6988306e,001,2022-04-29_03h09.26.130,classification_task,2021.2.3,Win32,60.47777442,60990c861b856e3f6988306e,626b377229c10585ec392f89,626b3aa76733f5a63aea1639,,,,,,,,,,,,,,,,,,,,,,,a,1,0.7661,"[""0.297"",""0.545"",""0.922"",""0.178""]","[1,1,1,0]",0,56,56,56,1,0,0,,,1,FALSE,,,,,,,,,,,,,,,,,,,,,,,,,,,,,,
,60990c861b856e3f6988306e,001,2022-04-29_03h09.26.130,classification_task,2021.2.3,Win32,60.47777442,60990c861b856e3f6988306e,626b377229c10585ec392f89,626b3aa76733f5a63aea1639,,,,,,,,,,,,,,,,,,,,,,,l,1,1.6501,"[""0.065"",""0.411"",""0.671"",""0.247""]","[1,1,1,0]",0,57,57,57,1,1,0,,,1,FALSE,,,,,,,,,,,,,,,,,,,,,,,,,,,,,,
,60990c861b856e3f6988306e,001,2022-04-29_03h09.26.130,classification_task,2021.2.3,Win32,60.47777442,60990c861b856e3f6988306e,626b377229c10585ec392f89,626b3aa76733f5a63aea1639,,,,,,,,,,,,,,,,,,,,,,,a,1,0.6,"[""0.626"",""0.545"",""0.922"",""0.965""]","[0,1,1,1]",0,58,58,58,1,0,0,,,1,FALSE,,,,,,,,,,,,,,,,,,,,,,,,,,,,,,
,60990c861b856e3f6988306e,001,2022-04-29_03h09.26.130,classification_task,2021.2.3,Win32,60.47777442,60990c861b856e3f6988306e,626b377229c10585ec392f89,626b3aa76733f5a63aea1639,,,,,,,,,,,,,,,,,,,,,,,a,0,1.3501,"[""0.157"",""0.357"",""0.494"",""0.782""]","[0,1,1,1]",0,59,59,59,1,1,1,,,1,FALSE,,,,,,,,,,,,,,,,,,,,,,,,,,,,,,
,60990c861b856e3f6988306e,001,2022-04-29_03h09.26.130,classification_task,2021.2.3,Win32,60.47777442,60990c861b856e3f6988306e,626b377229c10585ec392f89,626b3aa76733f5a63aea1639,,,,,,,,,,,,,,,,,,,,,,,a,1,1.9835,"[""0.212"",""0.461"",""0.259"",""0.852""]","[1,1,0,1]",0,60,60,60,1,0,1,,,1,FALSE,,,,,,,,,,,,,,,,,,,,,,,,,,,,,,
,60990c861b856e3f6988306e,001,2022-04-29_03h09.26.130,classification_task,2021.2.3,Win32,60.47777442,60990c861b856e3f6988306e,626b377229c10585ec392f89,626b3aa76733f5a63aea1639,,,,,,,,,,,,,,,,,,,,,,,l,0,1.8666,"[""0.212"",""0.178"",""0.591"",""0.852""]","[1,0,1,1]",0,61,61,61,1,0,1,,,1,FALSE,,,,,,,,,,,,,,,,,,,,,,,,,,,,,,
,60990c861b856e3f6988306e,001,2022-04-29_03h09.26.130,classification_task,2021.2.3,Win32,60.47777442,60990c861b856e3f6988306e,626b377229c10585ec392f89,626b3aa76733f5a63aea1639,,,,,,,,,,,,,,,,,,,,,,,a,0,1.2503,"[""0.258"",""0.411"",""0.671"",""0.728""]","[0,1,1,1]",0,62,62,62,1,1,0,,,1,FALSE,,,,,,,,,,,,,,,,,,,,,,,,,,,,,,
,60990c861b856e3f6988306e,001,2022-04-29_03h09.26.130,classification_task,2021.2.3,Win32,60.47777442,60990c861b856e3f6988306e,626b377229c10585ec392f89,626b3aa76733f5a63aea1639,,,,,,,,,,,,,,,,,,,,,,,a,1,1.4166,"[""0.628"",""0.461"",""0.591"",""0.852""]","[0,1,1,1]",0,63,63,63,1,0,1,,,1,FALSE,,,,,,,,,,,,,,,,,,,,,,,,,,,,,,
,60990c861b856e3f6988306e,001,2022-04-29_03h09.26.130,classification_task,2021.2.3,Win32,60.47777442,60990c861b856e3f6988306e,626b377229c10585ec392f89,626b3aa76733f5a63aea1639,,,,,,,,,,,,,,,,,,,,,,,,,,,,,,,,,,,,,,,0, ,,0,6.445228297,381.5661,0,0,0,0,1,2,1,,,,,,,,,,,,,,,,,
,60990c861b856e3f6988306e,001,2022-04-29_03h09.26.130,classification_task,2021.2.3,Win32,60.47777442,60990c861b856e3f6988306e,626b377229c10585ec392f89,626b3aa76733f5a63aea1639,,,,,,,,,,,,,,,,,,,,,,,,,,,,,,,,,,,,,,,1,  ,,0,8.478346071,371.9479,0,0,0,0,1,2,1,,,,,,,,,,,,,,,,,
,60990c861b856e3f6988306e,001,2022-04-29_03h09.26.130,classification_task,2021.2.3,Win32,60.47777442,60990c861b856e3f6988306e,626b377229c10585ec392f89,626b3aa76733f5a63aea1639,,,,,,,,,,,,,,,,,,,,,,,,,,,,,,,,,,,,,,,2,  ,,0,6.224769743,376.7472,0,0,0,0,1,2,1,,,,,,,,,,,,,,,,,
,60990c861b856e3f6988306e,001,2022-04-29_03h09.26.130,classification_task,2021.2.3,Win32,60.47777442,60990c861b856e3f6988306e,626b377229c10585ec392f89,626b3aa76733f5a63aea1639,,,,,,,,,,,,,,,,,,,,,,,,,,,,,,,,,,,,,,,,,,,,,0,0,0,0,1,,1,,,,,,,,,,,,,,,,,
,60990c861b856e3f6988306e,001,2022-04-29_03h09.26.130,classification_task,2021.2.3,Win32,60.47777442,60990c861b856e3f6988306e,626b377229c10585ec392f89,626b3aa76733f5a63aea1639,,,,,,,,,,,,,,,,,,,,,space,8.3509,l,0,8.6176,"[""0.212"",""0.178"",""0.591"",""0.852""]","[1,0,1,1]",0,0,0,0,1,0,1,,,1,FALSE,,,,,,,,,,,,,,,,,,,,,,,,,,,,,,
,60990c861b856e3f6988306e,001,2022-04-29_03h09.26.130,classification_task,2021.2.3,Win32,60.47777442,60990c861b856e3f6988306e,626b377229c10585ec392f89,626b3aa76733f5a63aea1639,,,,,,,,,,,,,,,,,,,,,,,l,1,5.1667,"[""0.157"",""0.411"",""0.671"",""0.728""]","[0,1,1,1]",0,1,1,1,1,1,0,,,1,FALSE,,,,,,,,,,,,,,,,,,,,,,,,,,,,,,
,60990c861b856e3f6988306e,001,2022-04-29_03h09.26.130,classification_task,2021.2.3,Win32,60.47777442,60990c861b856e3f6988306e,626b377229c10585ec392f89,626b3aa76733f5a63aea1639,,,,,,,,,,,,,,,,,,,,,,,a,0,5.5005,"[""0.141"",""0.357"",""0.494"",""0.782""]","[0,1,1,1]",0,2,2,2,1,1,1,,,1,FALSE,,,,,,,,,,,,,,,,,,,,,,,,,,,,,,
,60990c861b856e3f6988306e,001,2022-04-29_03h09.26.130,classification_task,2021.2.3,Win32,60.47777442,60990c861b856e3f6988306e,626b377229c10585ec392f89,626b3aa76733f5a63aea1639,,,,,,,,,,,,,,,,,,,,,,,l,1,1.9,"[""0.100"",""0.258"",""0.494"",""0.782""]","[1,0,1,1]",0,3,3,3,1,1,1,,,1,FALSE,,,,,,,,,,,,,,,,,,,,,,,,,,,,,,
,60990c861b856e3f6988306e,001,2022-04-29_03h09.26.130,classification_task,2021.2.3,Win32,60.47777442,60990c861b856e3f6988306e,626b377229c10585ec392f89,626b3aa76733f5a63aea1639,,,,,,,,,,,,,,,,,,,,,,,a,1,1.4998,"[""0.157"",""0.545"",""0.922"",""0.965""]","[0,1,1,1]",0,4,4,4,1,0,0,,,1,FALSE,,,,,,,,,,,,,,,,,,,,,,,,,,,,,,
,60990c861b856e3f6988306e,001,2022-04-29_03h09.26.130,classification_task,2021.2.3,Win32,60.47777442,60990c861b856e3f6988306e,626b377229c10585ec392f89,626b3aa76733f5a63aea1639,,,,,,,,,,,,,,,,,,,,,,,a,1,6.7504,"[""0.178"",""0.461"",""0.591"",""0.852""]","[0,1,1,1]",0,5,5,5,1,0,1,,,1,FALSE,,,,,,,,,,,,,,,,,,,,,,,,,,,,,,
,60990c861b856e3f6988306e,001,2022-04-29_03h09.26.130,classification_task,2021.2.3,Win32,60.47777442,60990c861b856e3f6988306e,626b377229c10585ec392f89,626b3aa76733f5a63aea1639,,,,,,,,,,,,,,,,,,,,,,,a,1,1.5002,"[""0.297"",""0.545"",""0.922"",""0.258""]","[1,1,1,0]",0,6,6,6,1,0,0,,,1,FALSE,,,,,,,,,,,,,,,,,,,,,,,,,,,,,,
,60990c861b856e3f6988306e,001,2022-04-29_03h09.26.130,classification_task,2021.2.3,Win32,60.47777442,60990c861b856e3f6988306e,626b377229c10585ec392f89,626b3aa76733f5a63aea1639,,,,,,,,,,,,,,,,,,,,,,,a,1,0.7,"[""0.297"",""0.157"",""0.922"",""0.965""]","[1,0,1,1]",0,7,7,7,1,0,0,,,1,FALSE,,,,,,,,,,,,,,,,,,,,,,,,,,,,,,
,60990c861b856e3f6988306e,001,2022-04-29_03h09.26.130,classification_task,2021.2.3,Win32,60.47777442,60990c861b856e3f6988306e,626b377229c10585ec392f89,626b3aa76733f5a63aea1639,,,,,,,,,,,,,,,,,,,,,,,l,0,2.8505,"[""0.212"",""0.461"",""0.591"",""0.247""]","[1,1,1,0]",0,8,8,8,1,0,1,,,1,FALSE,,,,,,,,,,,,,,,,,,,,,,,,,,,,,,
,60990c861b856e3f6988306e,001,2022-04-29_03h09.26.130,classification_task,2021.2.3,Win32,60.47777442,60990c861b856e3f6988306e,626b377229c10585ec392f89,626b3aa76733f5a63aea1639,,,,,,,,,,,,,,,,,,,,,,,l,1,0.9001,"[""0.065"",""0.411"",""0.157"",""0.728""]","[1,1,0,1]",0,9,9,9,1,1,0,,,1,FALSE,,,,,,,,,,,,,,,,,,,,,,,,,,,,,,
,60990c861b856e3f6988306e,001,2022-04-29_03h09.26.130,classification_task,2021.2.3,Win32,60.47777442,60990c861b856e3f6988306e,626b377229c10585ec392f89,626b3aa76733f5a63aea1639,,,,,,,,,,,,,,,,,,,,,,,l,0,1.3168,"[""0.212"",""0.461"",""0.259"",""0.852""]","[1,1,0,1]",0,10,10,10,1,0,1,,,1,FALSE,,,,,,,,,,,,,,,,,,,,,,,,,,,,,,
,60990c861b856e3f6988306e,001,2022-04-29_03h09.26.130,classification_task,2021.2.3,Win32,60.47777442,60990c861b856e3f6988306e,626b377229c10585ec392f89,626b3aa76733f5a63aea1639,,,,,,,,,,,,,,,,,,,,,,,l,1,0.8835,"[""0.065"",""0.411"",""0.671"",""0.247""]","[1,1,1,0]",0,11,11,11,1,1,0,,,1,FALSE,,,,,,,,,,,,,,,,,,,,,,,,,,,,,,
,60990c861b856e3f6988306e,001,2022-04-29_03h09.26.130,classification_task,2021.2.3,Win32,60.47777442,60990c861b856e3f6988306e,626b377229c10585ec392f89,626b3aa76733f5a63aea1639,,,,,,,,,,,,,,,,,,,,,,,l,1,0.6335,"[""0.100"",""0.357"",""0.157"",""0.782""]","[1,1,0,1]",0,12,12,12,1,1,1,,,1,FALSE,,,,,,,,,,,,,,,,,,,,,,,,,,,,,,
,60990c861b856e3f6988306e,001,2022-04-29_03h09.26.130,classification_task,2021.2.3,Win32,60.47777442,60990c861b856e3f6988306e,626b377229c10585ec392f89,626b3aa76733f5a63aea1639,,,,,,,,,,,,,,,,,,,,,,,a,1,0.9336,"[""0.297"",""0.545"",""0.258"",""0.965""]","[1,1,0,1]",0,13,13,13,1,0,0,,,1,FALSE,,,,,,,,,,,,,,,,,,,,,,,,,,,,,,
,60990c861b856e3f6988306e,001,2022-04-29_03h09.26.130,classification_task,2021.2.3,Win32,60.47777442,60990c861b856e3f6988306e,626b377229c10585ec392f89,626b3aa76733f5a63aea1639,,,,,,,,,,,,,,,,,,,,,,,l,1,1.0169,"[""0.100"",""0.357"",""0.494"",""0.178""]","[1,1,1,0]",0,14,14,14,1,1,1,,,1,FALSE,,,,,,,,,,,,,,,,,,,,,,,,,,,,,,
,60990c861b856e3f6988306e,001,2022-04-29_03h09.26.130,classification_task,2021.2.3,Win32,60.47777442,60990c861b856e3f6988306e,626b377229c10585ec392f89,626b3aa76733f5a63aea1639,,,,,,,,,,,,,,,,,,,,,,,l,1,0.6827,"[""0.065"",""0.253"",""0.671"",""0.728""]","[1,0,1,1]",0,15,15,15,1,1,0,,,1,FALSE,,,,,,,,,,,,,,,,,,,,,,,,,,,,,,
,60990c861b856e3f6988306e,001,2022-04-29_03h09.26.130,classification_task,2021.2.3,Win32,60.47777442,60990c861b856e3f6988306e,626b377229c10585ec392f89,626b3aa76733f5a63aea1639,,,,,,,,,,,,,,,,,,,,,,,l,0,1.7832,"[""0.297"",""0.545"",""0.247"",""0.965""]","[1,1,0,1]",0,16,16,16,1,0,0,,,1,FALSE,,,,,,,,,,,,,,,,,,,,,,,,,,,,,,
,60990c861b856e3f6988306e,001,2022-04-29_03h09.26.130,classification_task,2021.2.3,Win32,60.47777442,60990c861b856e3f6988306e,626b377229c10585ec392f89,626b3aa76733f5a63aea1639,,,,,,,,,,,,,,,,,,,,,,,l,0,1.2169,"[""0.212"",""0.461"",""0.591"",""0.253""]","[1,1,1,0]",0,17,17,17,1,0,1,,,1,FALSE,,,,,,,,,,,,,,,,,,,,,,,,,,,,,,
,60990c861b856e3f6988306e,001,2022-04-29_03h09.26.130,classification_task,2021.2.3,Win32,60.47777442,60990c861b856e3f6988306e,626b377229c10585ec392f89,626b3aa76733f5a63aea1639,,,,,,,,,,,,,,,,,,,,,,,l,1,1.4338,"[""0.628"",""0.357"",""0.494"",""0.782""]","[0,1,1,1]",0,18,18,18,1,1,1,,,1,FALSE,,,,,,,,,,,,,,,,,,,,,,,,,,,,,,
,60990c861b856e3f6988306e,001,2022-04-29_03h09.26.130,classification_task,2021.2.3,Win32,60.47777442,60990c861b856e3f6988306e,626b377229c10585ec392f89,626b3aa76733f5a63aea1639,,,,,,,,,,,,,,,,,,,,,,,l,0,5.8501,"[""0.212"",""0.258"",""0.591"",""0.852""]","[1,0,1,1]",0,19,19,19,1,0,1,,,1,FALSE,,,,,,,,,,,,,,,,,,,,,,,,,,,,,,
,60990c861b856e3f6988306e,001,2022-04-29_03h09.26.130,classification_task,2021.2.3,Win32,60.47777442,60990c861b856e3f6988306e,626b377229c10585ec392f89,626b3aa76733f5a63aea1639,,,,,,,,,,,,,,,,,,,,,,,a,1,1.0171,"[""0.169"",""0.461"",""0.591"",""0.852""]","[0,1,1,1]",0,20,20,20,1,0,1,,,1,FALSE,,,,,,,,,,,,,,,,,,,,,,,,,,,,,,
,60990c861b856e3f6988306e,001,2022-04-29_03h09.26.130,classification_task,2021.2.3,Win32,60.47777442,60990c861b856e3f6988306e,626b377229c10585ec392f89,626b3aa76733f5a63aea1639,,,,,,,,,,,,,,,,,,,,,,,l,1,0.8997,"[""0.065"",""0.411"",""0.258"",""0.728""]","[1,1,0,1]",0,21,21,21,1,1,0,,,1,FALSE,,,,,,,,,,,,,,,,,,,,,,,,,,,,,,
,60990c861b856e3f6988306e,001,2022-04-29_03h09.26.130,classification_task,2021.2.3,Win32,60.47777442,60990c861b856e3f6988306e,626b377229c10585ec392f89,626b3aa76733f5a63aea1639,,,,,,,,,,,,,,,,,,,,,,,l,1,0.5669,"[""0.100"",""0.357"",""0.157"",""0.782""]","[1,1,0,1]",0,22,22,22,1,1,1,,,1,FALSE,,,,,,,,,,,,,,,,,,,,,,,,,,,,,,
,60990c861b856e3f6988306e,001,2022-04-29_03h09.26.130,classification_task,2021.2.3,Win32,60.47777442,60990c861b856e3f6988306e,626b377229c10585ec392f89,626b3aa76733f5a63aea1639,,,,,,,,,,,,,,,,,,,,,,,a,1,1.0328,"[""0.297"",""0.545"",""0.922"",""0.178""]","[1,1,1,0]",0,23,23,23,1,0,0,,,1,FALSE,,,,,,,,,,,,,,,,,,,,,,,,,,,,,,
,60990c861b856e3f6988306e,001,2022-04-29_03h09.26.130,classification_task,2021.2.3,Win32,60.47777442,60990c861b856e3f6988306e,626b377229c10585ec392f89,626b3aa76733f5a63aea1639,,,,,,,,,,,,,,,,,,,,,,,l,1,1.567,"[""0.100"",""0.253"",""0.494"",""0.782""]","[1,0,1,1]",0,24,24,24,1,1,1,,,1,FALSE,,,,,,,,,,,,,,,,,,,,,,,,,,,,,,
,60990c861b856e3f6988306e,001,2022-04-29_03h09.26.130,classification_task,2021.2.3,Win32,60.47777442,60990c861b856e3f6988306e,626b377229c10585ec392f89,626b3aa76733f5a63aea1639,,,,,,,,,,,,,,,,,,,,,,,l,1,1.7825,"[""0.065"",""0.411"",""0.671"",""0.134""]","[1,1,1,0]",0,25,25,25,1,1,0,,,1,FALSE,,,,,,,,,,,,,,,,,,,,,,,,,,,,,,
,60990c861b856e3f6988306e,001,2022-04-29_03h09.26.130,classification_task,2021.2.3,Win32,60.47777442,60990c861b856e3f6988306e,626b377229c10585ec392f89,626b3aa76733f5a63aea1639,,,,,,,,,,,,,,,,,,,,,,,l,1,2.3834,"[""0.065"",""0.247"",""0.671"",""0.728""]","[1,0,1,1]",0,26,26,26,1,1,0,,,1,FALSE,,,,,,,,,,,,,,,,,,,,,,,,,,,,,,
,60990c861b856e3f6988306e,001,2022-04-29_03h09.26.130,classification_task,2021.2.3,Win32,60.47777442,60990c861b856e3f6988306e,626b377229c10585ec392f89,626b3aa76733f5a63aea1639,,,,,,,,,,,,,,,,,,,,,,,a,1,1.2165,"[""0.212"",""0.461"",""0.628"",""0.852""]","[1,1,0,1]",0,27,27,27,1,0,1,,,1,FALSE,,,,,,,,,,,,,,,,,,,,,,,,,,,,,,
,60990c861b856e3f6988306e,001,2022-04-29_03h09.26.130,classification_task,2021.2.3,Win32,60.47777442,60990c861b856e3f6988306e,626b377229c10585ec392f89,626b3aa76733f5a63aea1639,,,,,,,,,,,,,,,,,,,,,,,a,1,0.7666,"[""0.247"",""0.545"",""0.922"",""0.965""]","[0,1,1,1]",0,28,28,28,1,0,0,,,1,FALSE,,,,,,,,,,,,,,,,,,,,,,,,,,,,,,
,60990c861b856e3f6988306e,001,2022-04-29_03h09.26.130,classification_task,2021.2.3,Win32,60.47777442,60990c861b856e3f6988306e,626b377229c10585ec392f89,626b3aa76733f5a63aea1639,,,,,,,,,,,,,,,,,,,,,,,l,1,2.3,"[""0.157"",""0.411"",""0.671"",""0.728""]","[0,1,1,1]",0,29,29,29,1,1,0,,,1,FALSE,,,,,,,,,,,,,,,,,,,,,,,,,,,,,,
,60990c861b856e3f6988306e,001,2022-04-29_03h09.26.130,classification_task,2021.2.3,Win32,60.47777442,60990c861b856e3f6988306e,626b377229c10585ec392f89,626b3aa76733f5a63aea1639,,,,,,,,,,,,,,,,,,,,,,,a,1,0.6834,"[""0.297"",""0.628"",""0.922"",""0.965""]","[1,0,1,1]",0,30,30,30,1,0,0,,,1,FALSE,,,,,,,,,,,,,,,,,,,,,,,,,,,,,,
,60990c861b856e3f6988306e,001,2022-04-29_03h09.26.130,classification_task,2021.2.3,Win32,60.47777442,60990c861b856e3f6988306e,626b377229c10585ec392f89,626b3aa76733f5a63aea1639,,,,,,,,,,,,,,,,,,,,,,,l,1,0.8832,"[""0.100"",""0.357"",""0.494"",""0.178""]","[1,1,1,0]",0,31,31,31,1,1,1,,,1,FALSE,,,,,,,,,,,,,,,,,,,,,,,,,,,,,,
,60990c861b856e3f6988306e,001,2022-04-29_03h09.26.130,classification_task,2021.2.3,Win32,60.47777442,60990c861b856e3f6988306e,626b377229c10585ec392f89,626b3aa76733f5a63aea1639,,,,,,,,,,,,,,,,,,,,,,,l,1,1.5164,"[""0.065"",""0.258"",""0.671"",""0.728""]","[1,0,1,1]",0,32,32,32,1,1,0,,,1,FALSE,,,,,,,,,,,,,,,,,,,,,,,,,,,,,,
,60990c861b856e3f6988306e,001,2022-04-29_03h09.26.130,classification_task,2021.2.3,Win32,60.47777442,60990c861b856e3f6988306e,626b377229c10585ec392f89,626b3aa76733f5a63aea1639,,,,,,,,,,,,,,,,,,,,,,,l,1,1.4666,"[""0.157"",""0.357"",""0.494"",""0.782""]","[0,1,1,1]",0,33,33,33,1,1,1,,,1,FALSE,,,,,,,,,,,,,,,,,,,,,,,,,,,,,,
,60990c861b856e3f6988306e,001,2022-04-29_03h09.26.130,classification_task,2021.2.3,Win32,60.47777442,60990c861b856e3f6988306e,626b377229c10585ec392f89,626b3aa76733f5a63aea1639,,,,,,,,,,,,,,,,,,,,,,,l,1,0.8334,"[""0.100"",""0.134"",""0.494"",""0.782""]","[1,0,1,1]",0,34,34,34,1,1,1,,,1,FALSE,,,,,,,,,,,,,,,,,,,,,,,,,,,,,,
,60990c861b856e3f6988306e,001,2022-04-29_03h09.26.130,classification_task,2021.2.3,Win32,60.47777442,60990c861b856e3f6988306e,626b377229c10585ec392f89,626b3aa76733f5a63aea1639,,,,,,,,,,,,,,,,,,,,,,,a,1,1.9662,"[""0.212"",""0.253"",""0.591"",""0.852""]","[1,0,1,1]",0,35,35,35,1,0,1,,,1,FALSE,,,,,,,,,,,,,,,,,,,,,,,,,,,,,,
,60990c861b856e3f6988306e,001,2022-04-29_03h09.26.130,classification_task,2021.2.3,Win32,60.47777442,60990c861b856e3f6988306e,626b377229c10585ec392f89,626b3aa76733f5a63aea1639,,,,,,,,,,,,,,,,,,,,,,,a,1,0.6838,"[""0.297"",""0.545"",""0.922"",""0.157""]","[1,1,1,0]",0,36,36,36,1,0,0,,,1,FALSE,,,,,,,,,,,,,,,,,,,,,,,,,,,,,,
,60990c861b856e3f6988306e,001,2022-04-29_03h09.26.130,classification_task,2021.2.3,Win32,60.47777442,60990c861b856e3f6988306e,626b377229c10585ec392f89,626b3aa76733f5a63aea1639,,,,,,,,,,,,,,,,,,,,,,,a,1,1.5668,"[""0.626"",""0.461"",""0.591"",""0.852""]","[0,1,1,1]",0,37,37,37,1,0,1,,,1,FALSE,,,,,,,,,,,,,,,,,,,,,,,,,,,,,,
,60990c861b856e3f6988306e,001,2022-04-29_03h09.26.130,classification_task,2021.2.3,Win32,60.47777442,60990c861b856e3f6988306e,626b377229c10585ec392f89,626b3aa76733f5a63aea1639,,,,,,,,,,,,,,,,,,,,,,,l,1,0.7835,"[""0.100"",""0.357"",""0.494"",""0.258""]","[1,1,1,0]",0,38,38,38,1,1,1,,,1,FALSE,,,,,,,,,,,,,,,,,,,,,,,,,,,,,,
,60990c861b856e3f6988306e,001,2022-04-29_03h09.26.130,classification_task,2021.2.3,Win32,60.47777442,60990c861b856e3f6988306e,626b377229c10585ec392f89,626b3aa76733f5a63aea1639,,,,,,,,,,,,,,,,,,,,,,,a,1,0.7998,"[""0.157"",""0.545"",""0.922"",""0.965""]","[0,1,1,1]",0,39,39,39,1,0,0,,,1,FALSE,,,,,,,,,,,,,,,,,,,,,,,,,,,,,,
,60990c861b856e3f6988306e,001,2022-04-29_03h09.26.130,classification_task,2021.2.3,Win32,60.47777442,60990c861b856e3f6988306e,626b377229c10585ec392f89,626b3aa76733f5a63aea1639,,,,,,,,,,,,,,,,,,,,,,,a,1,1.1668,"[""0.212"",""0.461"",""0.172"",""0.852""]","[1,1,0,1]",0,40,40,40,1,0,1,,,1,FALSE,,,,,,,,,,,,,,,,,,,,,,,,,,,,,,
,60990c861b856e3f6988306e,001,2022-04-29_03h09.26.130,classification_task,2021.2.3,Win32,60.47777442,60990c861b856e3f6988306e,626b377229c10585ec392f89,626b3aa76733f5a63aea1639,,,,,,,,,,,,,,,,,,,,,,,a,1,0.9168,"[""0.297"",""0.253"",""0.922"",""0.965""]","[1,0,1,1]",0,41,41,41,1,0,0,,,1,FALSE,,,,,,,,,,,,,,,,,,,,,,,,,,,,,,
,60990c861b856e3f6988306e,001,2022-04-29_03h09.26.130,classification_task,2021.2.3,Win32,60.47777442,60990c861b856e3f6988306e,626b377229c10585ec392f89,626b3aa76733f5a63aea1639,,,,,,,,,,,,,,,,,,,,,,,l,1,1.0499,"[""0.626"",""0.411"",""0.671"",""0.728""]","[0,1,1,1]",0,42,42,42,1,1,0,,,1,FALSE,,,,,,,,,,,,,,,,,,,,,,,,,,,,,,
,60990c861b856e3f6988306e,001,2022-04-29_03h09.26.130,classification_task,2021.2.3,Win32,60.47777442,60990c861b856e3f6988306e,626b377229c10585ec392f89,626b3aa76733f5a63aea1639,,,,,,,,,,,,,,,,,,,,,,,l,1,1.0168,"[""0.065"",""0.411"",""0.671"",""0.626""]","[1,1,1,0]",0,43,43,43,1,1,0,,,1,FALSE,,,,,,,,,,,,,,,,,,,,,,,,,,,,,,
,60990c861b856e3f6988306e,001,2022-04-29_03h09.26.130,classification_task,2021.2.3,Win32,60.47777442,60990c861b856e3f6988306e,626b377229c10585ec392f89,626b3aa76733f5a63aea1639,,,,,,,,,,,,,,,,,,,,,,,l,1,2.5838,"[""0.100"",""0.357"",""0.141"",""0.782""]","[1,1,0,1]",0,44,44,44,1,1,1,,,1,FALSE,,,,,,,,,,,,,,,,,,,,,,,,,,,,,,
,60990c861b856e3f6988306e,001,2022-04-29_03h09.26.130,classification_task,2021.2.3,Win32,60.47777442,60990c861b856e3f6988306e,626b377229c10585ec392f89,626b3aa76733f5a63aea1639,,,,,,,,,,,,,,,,,,,,,,,a,1,0.7829,"[""0.297"",""0.545"",""0.258"",""0.965""]","[1,1,0,1]",0,45,45,45,1,0,0,,,1,FALSE,,,,,,,,,,,,,,,,,,,,,,,,,,,,,,
,60990c861b856e3f6988306e,001,2022-04-29_03h09.26.130,classification_task,2021.2.3,Win32,60.47777442,60990c861b856e3f6988306e,626b377229c10585ec392f89,626b3aa76733f5a63aea1639,,,,,,,,,,,,,,,,,,,,,,,l,0,2.0172,"[""0.212"",""0.461"",""0.591"",""0.259""]","[1,1,1,0]",0,46,46,46,1,0,1,,,1,FALSE,,,,,,,,,,,,,,,,,,,,,,,,,,,,,,
,60990c861b856e3f6988306e,001,2022-04-29_03h09.26.130,classification_task,2021.2.3,Win32,60.47777442,60990c861b856e3f6988306e,626b377229c10585ec392f89,626b3aa76733f5a63aea1639,,,,,,,,,,,,,,,,,,,,,,,l,1,1.0166,"[""0.065"",""0.411"",""0.144"",""0.728""]","[1,1,0,1]",0,47,47,47,1,1,0,,,1,FALSE,,,,,,,,,,,,,,,,,,,,,,,,,,,,,,
,60990c861b856e3f6988306e,001,2022-04-29_03h09.26.130,classification_task,2021.2.3,Win32,60.47777442,60990c861b856e3f6988306e,626b377229c10585ec392f89,626b3aa76733f5a63aea1639,,,,,,,,,,,,,,,,,,,,,,,l,1,1.2666,"[""0.065"",""0.411"",""0.157"",""0.728""]","[1,1,0,1]",0,48,48,48,1,1,0,,,1,FALSE,,,,,,,,,,,,,,,,,,,,,,,,,,,,,,
,60990c861b856e3f6988306e,001,2022-04-29_03h09.26.130,classification_task,2021.2.3,Win32,60.47777442,60990c861b856e3f6988306e,626b377229c10585ec392f89,626b3aa76733f5a63aea1639,,,,,,,,,,,,,,,,,,,,,,,l,1,0.8166,"[""0.065"",""0.411"",""0.671"",""0.141""]","[1,1,1,0]",0,49,49,49,1,1,0,,,1,FALSE,,,,,,,,,,,,,,,,,,,,,,,,,,,,,,
,60990c861b856e3f6988306e,001,2022-04-29_03h09.26.130,classification_task,2021.2.3,Win32,60.47777442,60990c861b856e3f6988306e,626b377229c10585ec392f89,626b3aa76733f5a63aea1639,,,,,,,,,,,,,,,,,,,,,,,a,1,0.6336,"[""0.626"",""0.545"",""0.922"",""0.965""]","[0,1,1,1]",0,50,50,50,1,0,0,,,1,FALSE,,,,,,,,,,,,,,,,,,,,,,,,,,,,,,
,60990c861b856e3f6988306e,001,2022-04-29_03h09.26.130,classification_task,2021.2.3,Win32,60.47777442,60990c861b856e3f6988306e,626b377229c10585ec392f89,626b3aa76733f5a63aea1639,,,,,,,,,,,,,,,,,,,,,,,l,1,2.2666,"[""0.626"",""0.411"",""0.671"",""0.728""]","[0,1,1,1]",0,51,51,51,1,1,0,,,1,FALSE,,,,,,,,,,,,,,,,,,,,,,,,,,,,,,
,60990c861b856e3f6988306e,001,2022-04-29_03h09.26.130,classification_task,2021.2.3,Win32,60.47777442,60990c861b856e3f6988306e,626b377229c10585ec392f89,626b3aa76733f5a63aea1639,,,,,,,,,,,,,,,,,,,,,,,l,1,0.9831,"[""0.100"",""0.357"",""0.494"",""0.258""]","[1,1,1,0]",0,52,52,52,1,1,1,,,1,FALSE,,,,,,,,,,,,,,,,,,,,,,,,,,,,,,
,60990c861b856e3f6988306e,001,2022-04-29_03h09.26.130,classification_task,2021.2.3,Win32,60.47777442,60990c861b856e3f6988306e,626b377229c10585ec392f89,626b3aa76733f5a63aea1639,,,,,,,,,,,,,,,,,,,,,,,a,1,0.7166,"[""0.297"",""0.626"",""0.922"",""0.965""]","[1,0,1,1]",0,53,53,53,1,0,0,,,1,FALSE,,,,,,,,,,,,,,,,,,,,,,,,,,,,,,
,60990c861b856e3f6988306e,001,2022-04-29_03h09.26.130,classification_task,2021.2.3,Win32,60.47777442,60990c861b856e3f6988306e,626b377229c10585ec392f89,626b3aa76733f5a63aea1639,,,,,,,,,,,,,,,,,,,,,,,l,1,0.8338,"[""0.100"",""0.258"",""0.494"",""0.782""]","[1,0,1,1]",0,54,54,54,1,1,1,,,1,FALSE,,,,,,,,,,,,,,,,,,,,,,,,,,,,,,
,60990c861b856e3f6988306e,001,2022-04-29_03h09.26.130,classification_task,2021.2.3,Win32,60.47777442,60990c861b856e3f6988306e,626b377229c10585ec392f89,626b3aa76733f5a63aea1639,,,,,,,,,,,,,,,,,,,,,,,l,1,0.8166,"[""0.065"",""0.172"",""0.671"",""0.728""]","[1,0,1,1]",0,55,55,55,1,1,0,,,1,FALSE,,,,,,,,,,,,,,,,,,,,,,,,,,,,,,
,60990c861b856e3f6988306e,001,2022-04-29_03h09.26.130,classification_task,2021.2.3,Win32,60.47777442,60990c861b856e3f6988306e,626b377229c10585ec392f89,626b3aa76733f5a63aea1639,,,,,,,,,,,,,,,,,,,,,,,a,1,1.9505,"[""0.212"",""0.461"",""0.591"",""0.258""]","[1,1,1,0]",0,56,56,56,1,0,1,,,1,FALSE,,,,,,,,,,,,,,,,,,,,,,,,,,,,,,
,60990c861b856e3f6988306e,001,2022-04-29_03h09.26.130,classification_task,2021.2.3,Win32,60.47777442,60990c861b856e3f6988306e,626b377229c10585ec392f89,626b3aa76733f5a63aea1639,,,,,,,,,,,,,,,,,,,,,,,a,1,1.4504,"[""0.258"",""0.461"",""0.591"",""0.852""]","[0,1,1,1]",0,57,57,57,1,0,1,,,1,FALSE,,,,,,,,,,,,,,,,,,,,,,,,,,,,,,
,60990c861b856e3f6988306e,001,2022-04-29_03h09.26.130,classification_task,2021.2.3,Win32,60.47777442,60990c861b856e3f6988306e,626b377229c10585ec392f89,626b3aa76733f5a63aea1639,,,,,,,,,,,,,,,,,,,,,,,a,1,1.0337,"[""0.212"",""0.141"",""0.591"",""0.852""]","[1,0,1,1]",0,58,58,58,1,0,1,,,1,FALSE,,,,,,,,,,,,,,,,,,,,,,,,,,,,,,
,60990c861b856e3f6988306e,001,2022-04-29_03h09.26.130,classification_task,2021.2.3,Win32,60.47777442,60990c861b856e3f6988306e,626b377229c10585ec392f89,626b3aa76733f5a63aea1639,,,,,,,,,,,,,,,,,,,,,,,l,1,1.6335,"[""0.253"",""0.357"",""0.494"",""0.782""]","[0,1,1,1]",0,59,59,59,1,1,1,,,1,FALSE,,,,,,,,,,,,,,,,,,,,,,,,,,,,,,
,60990c861b856e3f6988306e,001,2022-04-29_03h09.26.130,classification_task,2021.2.3,Win32,60.47777442,60990c861b856e3f6988306e,626b377229c10585ec392f89,626b3aa76733f5a63aea1639,,,,,,,,,,,,,,,,,,,,,,,l,1,0.7335,"[""0.100"",""0.357"",""0.141"",""0.782""]","[1,1,0,1]",0,60,60,60,1,1,1,,,1,FALSE,,,,,,,,,,,,,,,,,,,,,,,,,,,,,,
,60990c861b856e3f6988306e,001,2022-04-29_03h09.26.130,classification_task,2021.2.3,Win32,60.47777442,60990c861b856e3f6988306e,626b377229c10585ec392f89,626b3aa76733f5a63aea1639,,,,,,,,,,,,,,,,,,,,,,,a,1,1.0837,"[""0.212"",""0.461"",""0.628"",""0.852""]","[1,1,0,1]",0,61,61,61,1,0,1,,,1,FALSE,,,,,,,,,,,,,,,,,,,,,,,,,,,,,,
,60990c861b856e3f6988306e,001,2022-04-29_03h09.26.130,classification_task,2021.2.3,Win32,60.47777442,60990c861b856e3f6988306e,626b377229c10585ec392f89,626b3aa76733f5a63aea1639,,,,,,,,,,,,,,,,,,,,,,,a,1,0.8152,"[""0.297"",""0.545"",""0.178"",""0.965""]","[1,1,0,1]",0,62,62,62,1,0,0,,,1,FALSE,,,,,,,,,,,,,,,,,,,,,,,,,,,,,,
,60990c861b856e3f6988306e,001,2022-04-29_03h09.26.130,classification_task,2021.2.3,Win32,60.47777442,60990c861b856e3f6988306e,626b377229c10585ec392f89,626b3aa76733f5a63aea1639,,,,,,,,,,,,,,,,,,,,,,,a,1,0.8331,"[""0.297"",""0.545"",""0.922"",""0.628""]","[1,1,1,0]",0,63,63,63,1,0,0,,,1,FALSE,,,,,,,,,,,,,,,,,,,,,,,,,,,,,,
,60990c861b856e3f6988306e,001,2022-04-29_03h09.26.130,classification_task,2021.2.3,Win32,60.47777442,60990c861b856e3f6988306e,626b377229c10585ec392f89,626b3aa76733f5a63aea1639,,,,,,,,,,,,,,,,,,,,,,,,,,,,,,,,,,,,,,,0, ,,0,3.554771703,181.9194,0,1,1,1,1,2,2,,,,,,,,,,,,,,,,,
,60990c861b856e3f6988306e,001,2022-04-29_03h09.26.130,classification_task,2021.2.3,Win32,60.47777442,60990c861b856e3f6988306e,626b377229c10585ec392f89,626b3aa76733f5a63aea1639,,,,,,,,,,,,,,,,,,,,,,,,,,,,,,,,,,,,,,,1,  ,,0,4.387615128,184.9874,0,1,1,1,1,2,2,,,,,,,,,,,,,,,,,
,60990c861b856e3f6988306e,001,2022-04-29_03h09.26.130,classification_task,2021.2.3,Win32,60.47777442,60990c861b856e3f6988306e,626b377229c10585ec392f89,626b3aa76733f5a63aea1639,,,,,,,,,,,,,,,,,,,,,,,,,,,,,,,,,,,,,,,2,  ,,0,5.85733882,188.4543,0,1,1,1,1,2,2,,,,,,,,,,,,,,,,,
,60990c861b856e3f6988306e,001,2022-04-29_03h09.26.130,classification_task,2021.2.3,Win32,60.47777442,60990c861b856e3f6988306e,626b377229c10585ec392f89,626b3aa76733f5a63aea1639,,,,,,,,,,,,,,,,,,,,,,,,,,,,,,,,,,,,,,,,,,,,,0,1,1,1,1,,2,,,,,,,,,,,,,,,,,
,60990c861b856e3f6988306e,001,2022-04-29_03h09.26.130,classification_task,2021.2.3,Win32,60.47777442,60990c861b856e3f6988306e,626b377229c10585ec392f89,626b3aa76733f5a63aea1639,,,,,,,,,,,,,,,,,,,,,space,8.9281,l,1,1.384,"[""0.065"",""0.178"",""0.671"",""0.728""]","[1,0,1,1]",0,0,0,0,1,1,0,,,1,FALSE,,,,,,,,,,,,,,,,,,,,,,,,,,,,,,
,60990c861b856e3f6988306e,001,2022-04-29_03h09.26.130,classification_task,2021.2.3,Win32,60.47777442,60990c861b856e3f6988306e,626b377229c10585ec392f89,626b3aa76733f5a63aea1639,,,,,,,,,,,,,,,,,,,,,,,a,1,3.5836,"[""0.212"",""0.461"",""0.591"",""0.172""]","[1,1,1,0]",0,1,1,1,1,0,1,,,1,FALSE,,,,,,,,,,,,,,,,,,,,,,,,,,,,,,
,60990c861b856e3f6988306e,001,2022-04-29_03h09.26.130,classification_task,2021.2.3,Win32,60.47777442,60990c861b856e3f6988306e,626b377229c10585ec392f89,626b3aa76733f5a63aea1639,,,,,,,,,,,,,,,,,,,,,,,l,1,1.4833,"[""0.252"",""0.357"",""0.494"",""0.782""]","[0,1,1,1]",0,2,2,2,1,1,1,,,1,FALSE,,,,,,,,,,,,,,,,,,,,,,,,,,,,,,
,60990c861b856e3f6988306e,001,2022-04-29_03h09.26.130,classification_task,2021.2.3,Win32,60.47777442,60990c861b856e3f6988306e,626b377229c10585ec392f89,626b3aa76733f5a63aea1639,,,,,,,,,,,,,,,,,,,,,,,a,1,1.0498,"[""0.212"",""0.157"",""0.591"",""0.852""]","[1,0,1,1]",0,3,3,3,1,0,1,,,1,FALSE,,,,,,,,,,,,,,,,,,,,,,,,,,,,,,
,60990c861b856e3f6988306e,001,2022-04-29_03h09.26.130,classification_task,2021.2.3,Win32,60.47777442,60990c861b856e3f6988306e,626b377229c10585ec392f89,626b3aa76733f5a63aea1639,,,,,,,,,,,,,,,,,,,,,,,a,1,1.1331,"[""0.212"",""0.461"",""0.141"",""0.852""]","[1,1,0,1]",0,4,4,4,1,0,1,,,1,FALSE,,,,,,,,,,,,,,,,,,,,,,,,,,,,,,
,60990c861b856e3f6988306e,001,2022-04-29_03h09.26.130,classification_task,2021.2.3,Win32,60.47777442,60990c861b856e3f6988306e,626b377229c10585ec392f89,626b3aa76733f5a63aea1639,,,,,,,,,,,,,,,,,,,,,,,l,1,0.6832,"[""0.100"",""0.357"",""0.494"",""0.247""]","[1,1,1,0]",0,5,5,5,1,1,1,,,1,FALSE,,,,,,,,,,,,,,,,,,,,,,,,,,,,,,
,60990c861b856e3f6988306e,001,2022-04-29_03h09.26.130,classification_task,2021.2.3,Win32,60.47777442,60990c861b856e3f6988306e,626b377229c10585ec392f89,626b3aa76733f5a63aea1639,,,,,,,,,,,,,,,,,,,,,,,a,1,0.8338,"[""0.297"",""0.253"",""0.922"",""0.965""]","[1,0,1,1]",0,6,6,6,1,0,0,,,1,FALSE,,,,,,,,,,,,,,,,,,,,,,,,,,,,,,
,60990c861b856e3f6988306e,001,2022-04-29_03h09.26.130,classification_task,2021.2.3,Win32,60.47777442,60990c861b856e3f6988306e,626b377229c10585ec392f89,626b3aa76733f5a63aea1639,,,,,,,,,,,,,,,,,,,,,,,l,1,1.4666,"[""0.065"",""0.411"",""0.671"",""0.247""]","[1,1,1,0]",0,7,7,7,1,1,0,,,1,FALSE,,,,,,,,,,,,,,,,,,,,,,,,,,,,,,
,60990c861b856e3f6988306e,001,2022-04-29_03h09.26.130,classification_task,2021.2.3,Win32,60.47777442,60990c861b856e3f6988306e,626b377229c10585ec392f89,626b3aa76733f5a63aea1639,,,,,,,,,,,,,,,,,,,,,,,a,1,1.3167,"[""0.297"",""0.545"",""0.922"",""0.172""]","[1,1,1,0]",0,8,8,8,1,0,0,,,1,FALSE,,,,,,,,,,,,,,,,,,,,,,,,,,,,,,
,60990c861b856e3f6988306e,001,2022-04-29_03h09.26.130,classification_task,2021.2.3,Win32,60.47777442,60990c861b856e3f6988306e,626b377229c10585ec392f89,626b3aa76733f5a63aea1639,,,,,,,,,,,,,,,,,,,,,,,a,1,0.9497,"[""0.297"",""0.545"",""0.144"",""0.965""]","[1,1,0,1]",0,9,9,9,1,0,0,,,1,FALSE,,,,,,,,,,,,,,,,,,,,,,,,,,,,,,
,60990c861b856e3f6988306e,001,2022-04-29_03h09.26.130,classification_task,2021.2.3,Win32,60.47777442,60990c861b856e3f6988306e,626b377229c10585ec392f89,626b3aa76733f5a63aea1639,,,,,,,,,,,,,,,,,,,,,,,l,1,1.3838,"[""0.100"",""0.141"",""0.494"",""0.782""]","[1,0,1,1]",0,10,10,10,1,1,1,,,1,FALSE,,,,,,,,,,,,,,,,,,,,,,,,,,,,,,
,60990c861b856e3f6988306e,001,2022-04-29_03h09.26.130,classification_task,2021.2.3,Win32,60.47777442,60990c861b856e3f6988306e,626b377229c10585ec392f89,626b3aa76733f5a63aea1639,,,,,,,,,,,,,,,,,,,,,,,l,1,1.217,"[""0.100"",""0.357"",""0.169"",""0.782""]","[1,1,0,1]",0,11,11,11,1,1,1,,,1,FALSE,,,,,,,,,,,,,,,,,,,,,,,,,,,,,,
,60990c861b856e3f6988306e,001,2022-04-29_03h09.26.130,classification_task,2021.2.3,Win32,60.47777442,60990c861b856e3f6988306e,626b377229c10585ec392f89,626b3aa76733f5a63aea1639,,,,,,,,,,,,,,,,,,,,,,,a,0,1.6837,"[""0.626"",""0.411"",""0.671"",""0.728""]","[0,1,1,1]",0,12,12,12,1,1,0,,,1,FALSE,,,,,,,,,,,,,,,,,,,,,,,,,,,,,,
,60990c861b856e3f6988306e,001,2022-04-29_03h09.26.130,classification_task,2021.2.3,Win32,60.47777442,60990c861b856e3f6988306e,626b377229c10585ec392f89,626b3aa76733f5a63aea1639,,,,,,,,,,,,,,,,,,,,,,,a,1,0.667,"[""0.252"",""0.545"",""0.922"",""0.965""]","[0,1,1,1]",0,13,13,13,1,0,0,,,1,FALSE,,,,,,,,,,,,,,,,,,,,,,,,,,,,,,
,60990c861b856e3f6988306e,001,2022-04-29_03h09.26.130,classification_task,2021.2.3,Win32,60.47777442,60990c861b856e3f6988306e,626b377229c10585ec392f89,626b3aa76733f5a63aea1639,,,,,,,,,,,,,,,,,,,,,,,a,1,1.3669,"[""0.628"",""0.461"",""0.591"",""0.852""]","[0,1,1,1]",0,14,14,14,1,0,1,,,1,FALSE,,,,,,,,,,,,,,,,,,,,,,,,,,,,,,
,60990c861b856e3f6988306e,001,2022-04-29_03h09.26.130,classification_task,2021.2.3,Win32,60.47777442,60990c861b856e3f6988306e,626b377229c10585ec392f89,626b3aa76733f5a63aea1639,,,,,,,,,,,,,,,,,,,,,,,l,1,0.9005,"[""0.065"",""0.411"",""0.172"",""0.728""]","[1,1,0,1]",0,15,15,15,1,1,0,,,1,FALSE,,,,,,,,,,,,,,,,,,,,,,,,,,,,,,
,60990c861b856e3f6988306e,001,2022-04-29_03h09.26.130,classification_task,2021.2.3,Win32,60.47777442,60990c861b856e3f6988306e,626b377229c10585ec392f89,626b3aa76733f5a63aea1639,,,,,,,,,,,,,,,,,,,,,,,a,1,0.7499,"[""0.178"",""0.545"",""0.922"",""0.965""]","[0,1,1,1]",0,16,16,16,1,0,0,,,1,FALSE,,,,,,,,,,,,,,,,,,,,,,,,,,,,,,
,60990c861b856e3f6988306e,001,2022-04-29_03h09.26.130,classification_task,2021.2.3,Win32,60.47777442,60990c861b856e3f6988306e,626b377229c10585ec392f89,626b3aa76733f5a63aea1639,,,,,,,,,,,,,,,,,,,,,,,a,1,0.967,"[""0.212"",""0.628"",""0.591"",""0.852""]","[1,0,1,1]",0,17,17,17,1,0,1,,,1,FALSE,,,,,,,,,,,,,,,,,,,,,,,,,,,,,,
,60990c861b856e3f6988306e,001,2022-04-29_03h09.26.130,classification_task,2021.2.3,Win32,60.47777442,60990c861b856e3f6988306e,626b377229c10585ec392f89,626b3aa76733f5a63aea1639,,,,,,,,,,,,,,,,,,,,,,,l,1,0.8334,"[""0.100"",""0.252"",""0.494"",""0.782""]","[1,0,1,1]",0,18,18,18,1,1,1,,,1,FALSE,,,,,,,,,,,,,,,,,,,,,,,,,,,,,,
,60990c861b856e3f6988306e,001,2022-04-29_03h09.26.130,classification_task,2021.2.3,Win32,60.47777442,60990c861b856e3f6988306e,626b377229c10585ec392f89,626b3aa76733f5a63aea1639,,,,,,,,,,,,,,,,,,,,,,,a,1,0.85,"[""0.212"",""0.461"",""0.626"",""0.852""]","[1,1,0,1]",0,19,19,19,1,0,1,,,1,FALSE,,,,,,,,,,,,,,,,,,,,,,,,,,,,,,
,60990c861b856e3f6988306e,001,2022-04-29_03h09.26.130,classification_task,2021.2.3,Win32,60.47777442,60990c861b856e3f6988306e,626b377229c10585ec392f89,626b3aa76733f5a63aea1639,,,,,,,,,,,,,,,,,,,,,,,l,1,1.4331,"[""0.065"",""0.411"",""0.671"",""0.259""]","[1,1,1,0]",0,20,20,20,1,1,0,,,1,FALSE,,,,,,,,,,,,,,,,,,,,,,,,,,,,,,
,60990c861b856e3f6988306e,001,2022-04-29_03h09.26.130,classification_task,2021.2.3,Win32,60.47777442,60990c861b856e3f6988306e,626b377229c10585ec392f89,626b3aa76733f5a63aea1639,,,,,,,,,,,,,,,,,,,,,,,a,1,0.8503,"[""0.297"",""0.172"",""0.922"",""0.965""]","[1,0,1,1]",0,21,21,21,1,0,0,,,1,FALSE,,,,,,,,,,,,,,,,,,,,,,,,,,,,,,
,60990c861b856e3f6988306e,001,2022-04-29_03h09.26.130,classification_task,2021.2.3,Win32,60.47777442,60990c861b856e3f6988306e,626b377229c10585ec392f89,626b3aa76733f5a63aea1639,,,,,,,,,,,,,,,,,,,,,,,l,1,2.8669,"[""0.178"",""0.411"",""0.671"",""0.728""]","[0,1,1,1]",0,22,22,22,1,1,0,,,1,FALSE,,,,,,,,,,,,,,,,,,,,,,,,,,,,,,
,60990c861b856e3f6988306e,001,2022-04-29_03h09.26.130,classification_task,2021.2.3,Win32,60.47777442,60990c861b856e3f6988306e,626b377229c10585ec392f89,626b3aa76733f5a63aea1639,,,,,,,,,,,,,,,,,,,,,,,l,1,1.435,"[""0.157"",""0.357"",""0.494"",""0.782""]","[0,1,1,1]",0,23,23,23,1,1,1,,,1,FALSE,,,,,,,,,,,,,,,,,,,,,,,,,,,,,,
,60990c861b856e3f6988306e,001,2022-04-29_03h09.26.130,classification_task,2021.2.3,Win32,60.47777442,60990c861b856e3f6988306e,626b377229c10585ec392f89,626b3aa76733f5a63aea1639,,,,,,,,,,,,,,,,,,,,,,,a,1,0.9333,"[""0.297"",""0.545"",""0.259"",""0.965""]","[1,1,0,1]",0,24,24,24,1,0,0,,,1,FALSE,,,,,,,,,,,,,,,,,,,,,,,,,,,,,,
,60990c861b856e3f6988306e,001,2022-04-29_03h09.26.130,classification_task,2021.2.3,Win32,60.47777442,60990c861b856e3f6988306e,626b377229c10585ec392f89,626b3aa76733f5a63aea1639,,,,,,,,,,,,,,,,,,,,,,,l,1,1.2168,"[""0.100"",""0.357"",""0.494"",""0.169""]","[1,1,1,0]",0,25,25,25,1,1,1,,,1,FALSE,,,,,,,,,,,,,,,,,,,,,,,,,,,,,,
,60990c861b856e3f6988306e,001,2022-04-29_03h09.26.130,classification_task,2021.2.3,Win32,60.47777442,60990c861b856e3f6988306e,626b377229c10585ec392f89,626b3aa76733f5a63aea1639,,,,,,,,,,,,,,,,,,,,,,,l,1,0.8172,"[""0.100"",""0.357"",""0.144"",""0.782""]","[1,1,0,1]",0,26,26,26,1,1,1,,,1,FALSE,,,,,,,,,,,,,,,,,,,,,,,,,,,,,,
,60990c861b856e3f6988306e,001,2022-04-29_03h09.26.130,classification_task,2021.2.3,Win32,60.47777442,60990c861b856e3f6988306e,626b377229c10585ec392f89,626b3aa76733f5a63aea1639,,,,,,,,,,,,,,,,,,,,,,,a,1,0.6829,"[""0.297"",""0.545"",""0.922"",""0.178""]","[1,1,1,0]",0,27,27,27,1,0,0,,,1,FALSE,,,,,,,,,,,,,,,,,,,,,,,,,,,,,,
,60990c861b856e3f6988306e,001,2022-04-29_03h09.26.130,classification_task,2021.2.3,Win32,60.47777442,60990c861b856e3f6988306e,626b377229c10585ec392f89,626b3aa76733f5a63aea1639,,,,,,,,,,,,,,,,,,,,,,,a,1,1.1833,"[""0.134"",""0.461"",""0.591"",""0.852""]","[0,1,1,1]",0,28,28,28,1,0,1,,,1,FALSE,,,,,,,,,,,,,,,,,,,,,,,,,,,,,,
,60990c861b856e3f6988306e,001,2022-04-29_03h09.26.130,classification_task,2021.2.3,Win32,60.47777442,60990c861b856e3f6988306e,626b377229c10585ec392f89,626b3aa76733f5a63aea1639,,,,,,,,,,,,,,,,,,,,,,,l,1,1.3336,"[""0.065"",""0.141"",""0.671"",""0.728""]","[1,0,1,1]",0,29,29,29,1,1,0,,,1,FALSE,,,,,,,,,,,,,,,,,,,,,,,,,,,,,,
,60990c861b856e3f6988306e,001,2022-04-29_03h09.26.130,classification_task,2021.2.3,Win32,60.47777442,60990c861b856e3f6988306e,626b377229c10585ec392f89,626b3aa76733f5a63aea1639,,,,,,,,,,,,,,,,,,,,,,,a,1,1.5,"[""0.212"",""0.461"",""0.591"",""0.144""]","[1,1,1,0]",0,30,30,30,1,0,1,,,1,FALSE,,,,,,,,,,,,,,,,,,,,,,,,,,,,,,
,60990c861b856e3f6988306e,001,2022-04-29_03h09.26.130,classification_task,2021.2.3,Win32,60.47777442,60990c861b856e3f6988306e,626b377229c10585ec392f89,626b3aa76733f5a63aea1639,,,,,,,,,,,,,,,,,,,,,,,l,1,1.2165,"[""0.065"",""0.411"",""0.157"",""0.728""]","[1,1,0,1]",0,31,31,31,1,1,0,,,1,FALSE,,,,,,,,,,,,,,,,,,,,,,,,,,,,,,
,60990c861b856e3f6988306e,001,2022-04-29_03h09.26.130,classification_task,2021.2.3,Win32,60.47777442,60990c861b856e3f6988306e,626b377229c10585ec392f89,626b3aa76733f5a63aea1639,,,,,,,,,,,,,,,,,,,,,,,l,0,1.4168,"[""0.212"",""0.461"",""0.591"",""0.172""]","[1,1,1,0]",0,32,32,32,1,0,1,,,1,FALSE,,,,,,,,,,,,,,,,,,,,,,,,,,,,,,
,60990c861b856e3f6988306e,001,2022-04-29_03h09.26.130,classification_task,2021.2.3,Win32,60.47777442,60990c861b856e3f6988306e,626b377229c10585ec392f89,626b3aa76733f5a63aea1639,,,,,,,,,,,,,,,,,,,,,,,a,1,0.7168,"[""0.297"",""0.545"",""0.178"",""0.965""]","[1,1,0,1]",0,33,33,33,1,0,0,,,1,FALSE,,,,,,,,,,,,,,,,,,,,,,,,,,,,,,
,60990c861b856e3f6988306e,001,2022-04-29_03h09.26.130,classification_task,2021.2.3,Win32,60.47777442,60990c861b856e3f6988306e,626b377229c10585ec392f89,626b3aa76733f5a63aea1639,,,,,,,,,,,,,,,,,,,,,,,l,1,1.2819,"[""0.065"",""0.411"",""0.259"",""0.728""]","[1,1,0,1]",0,34,34,34,1,1,0,,,1,FALSE,,,,,,,,,,,,,,,,,,,,,,,,,,,,,,
,60990c861b856e3f6988306e,001,2022-04-29_03h09.26.130,classification_task,2021.2.3,Win32,60.47777442,60990c861b856e3f6988306e,626b377229c10585ec392f89,626b3aa76733f5a63aea1639,,,,,,,,,,,,,,,,,,,,,,,l,1,0.5334,"[""0.065"",""0.144"",""0.671"",""0.728""]","[1,0,1,1]",0,35,35,35,1,1,0,,,1,FALSE,,,,,,,,,,,,,,,,,,,,,,,,,,,,,,
,60990c861b856e3f6988306e,001,2022-04-29_03h09.26.130,classification_task,2021.2.3,Win32,60.47777442,60990c861b856e3f6988306e,626b377229c10585ec392f89,626b3aa76733f5a63aea1639,,,,,,,,,,,,,,,,,,,,,,,a,1,1.1164,"[""0.212"",""0.461"",""0.252"",""0.852""]","[1,1,0,1]",0,36,36,36,1,0,1,,,1,FALSE,,,,,,,,,,,,,,,,,,,,,,,,,,,,,,
,60990c861b856e3f6988306e,001,2022-04-29_03h09.26.130,classification_task,2021.2.3,Win32,60.47777442,60990c861b856e3f6988306e,626b377229c10585ec392f89,626b3aa76733f5a63aea1639,,,,,,,,,,,,,,,,,,,,,,,l,1,1.0667,"[""0.258"",""0.357"",""0.494"",""0.782""]","[0,1,1,1]",0,37,37,37,1,1,1,,,1,FALSE,,,,,,,,,,,,,,,,,,,,,,,,,,,,,,
,60990c861b856e3f6988306e,001,2022-04-29_03h09.26.130,classification_task,2021.2.3,Win32,60.47777442,60990c861b856e3f6988306e,626b377229c10585ec392f89,626b3aa76733f5a63aea1639,,,,,,,,,,,,,,,,,,,,,,,a,0,1.5833,"[""0.626"",""0.411"",""0.671"",""0.728""]","[0,1,1,1]",0,38,38,38,1,1,0,,,1,FALSE,,,,,,,,,,,,,,,,,,,,,,,,,,,,,,
,60990c861b856e3f6988306e,001,2022-04-29_03h09.26.130,classification_task,2021.2.3,Win32,60.47777442,60990c861b856e3f6988306e,626b377229c10585ec392f89,626b3aa76733f5a63aea1639,,,,,,,,,,,,,,,,,,,,,,,l,0,0.8,"[""0.297"",""0.545"",""0.922"",""0.178""]","[1,1,1,0]",0,39,39,39,1,0,0,,,1,FALSE,,,,,,,,,,,,,,,,,,,,,,,,,,,,,,
,60990c861b856e3f6988306e,001,2022-04-29_03h09.26.130,classification_task,2021.2.3,Win32,60.47777442,60990c861b856e3f6988306e,626b377229c10585ec392f89,626b3aa76733f5a63aea1639,,,,,,,,,,,,,,,,,,,,,,,l,1,0.9167,"[""0.100"",""0.157"",""0.494"",""0.782""]","[1,0,1,1]",0,40,40,40,1,1,1,,,1,FALSE,,,,,,,,,,,,,,,,,,,,,,,,,,,,,,
,60990c861b856e3f6988306e,001,2022-04-29_03h09.26.130,classification_task,2021.2.3,Win32,60.47777442,60990c861b856e3f6988306e,626b377229c10585ec392f89,626b3aa76733f5a63aea1639,,,,,,,,,,,,,,,,,,,,,,,a,1,0.7836,"[""0.212"",""0.252"",""0.591"",""0.852""]","[1,0,1,1]",0,41,41,41,1,0,1,,,1,FALSE,,,,,,,,,,,,,,,,,,,,,,,,,,,,,,
,60990c861b856e3f6988306e,001,2022-04-29_03h09.26.130,classification_task,2021.2.3,Win32,60.47777442,60990c861b856e3f6988306e,626b377229c10585ec392f89,626b3aa76733f5a63aea1639,,,,,,,,,,,,,,,,,,,,,,,l,1,1.1997,"[""0.100"",""0.357"",""0.494"",""0.259""]","[1,1,1,0]",0,42,42,42,1,1,1,,,1,FALSE,,,,,,,,,,,,,,,,,,,,,,,,,,,,,,
,60990c861b856e3f6988306e,001,2022-04-29_03h09.26.130,classification_task,2021.2.3,Win32,60.47777442,60990c861b856e3f6988306e,626b377229c10585ec392f89,626b3aa76733f5a63aea1639,,,,,,,,,,,,,,,,,,,,,,,a,1,0.5999,"[""0.297"",""0.247"",""0.922"",""0.965""]","[1,0,1,1]",0,43,43,43,1,0,0,,,1,FALSE,,,,,,,,,,,,,,,,,,,,,,,,,,,,,,
,60990c861b856e3f6988306e,001,2022-04-29_03h09.26.130,classification_task,2021.2.3,Win32,60.47777442,60990c861b856e3f6988306e,626b377229c10585ec392f89,626b3aa76733f5a63aea1639,,,,,,,,,,,,,,,,,,,,,,,a,1,0.9335,"[""0.134"",""0.461"",""0.591"",""0.852""]","[0,1,1,1]",0,44,44,44,1,0,1,,,1,FALSE,,,,,,,,,,,,,,,,,,,,,,,,,,,,,,
,60990c861b856e3f6988306e,001,2022-04-29_03h09.26.130,classification_task,2021.2.3,Win32,60.47777442,60990c861b856e3f6988306e,626b377229c10585ec392f89,626b3aa76733f5a63aea1639,,,,,,,,,,,,,,,,,,,,,,,l,1,1.0665,"[""0.065"",""0.411"",""0.671"",""0.178""]","[1,1,1,0]",0,45,45,45,1,1,0,,,1,FALSE,,,,,,,,,,,,,,,,,,,,,,,,,,,,,,
,60990c861b856e3f6988306e,001,2022-04-29_03h09.26.130,classification_task,2021.2.3,Win32,60.47777442,60990c861b856e3f6988306e,626b377229c10585ec392f89,626b3aa76733f5a63aea1639,,,,,,,,,,,,,,,,,,,,,,,l,1,0.9834,"[""0.100"",""0.357"",""0.157"",""0.782""]","[1,1,0,1]",0,46,46,46,1,1,1,,,1,FALSE,,,,,,,,,,,,,,,,,,,,,,,,,,,,,,
,60990c861b856e3f6988306e,001,2022-04-29_03h09.26.130,classification_task,2021.2.3,Win32,60.47777442,60990c861b856e3f6988306e,626b377229c10585ec392f89,626b3aa76733f5a63aea1639,,,,,,,,,,,,,,,,,,,,,,,a,1,0.5827,"[""0.247"",""0.545"",""0.922"",""0.965""]","[0,1,1,1]",0,47,47,47,1,0,0,,,1,FALSE,,,,,,,,,,,,,,,,,,,,,,,,,,,,,,
,60990c861b856e3f6988306e,001,2022-04-29_03h09.26.130,classification_task,2021.2.3,Win32,60.47777442,60990c861b856e3f6988306e,626b377229c10585ec392f89,626b3aa76733f5a63aea1639,,,,,,,,,,,,,,,,,,,,,,,l,1,1.9996,"[""0.169"",""0.411"",""0.671"",""0.728""]","[0,1,1,1]",0,48,48,48,1,1,0,,,1,FALSE,,,,,,,,,,,,,,,,,,,,,,,,,,,,,,
,60990c861b856e3f6988306e,001,2022-04-29_03h09.26.130,classification_task,2021.2.3,Win32,60.47777442,60990c861b856e3f6988306e,626b377229c10585ec392f89,626b3aa76733f5a63aea1639,,,,,,,,,,,,,,,,,,,,,,,a,1,0.967,"[""0.212"",""0.461"",""0.253"",""0.852""]","[1,1,0,1]",0,49,49,49,1,0,1,,,1,FALSE,,,,,,,,,,,,,,,,,,,,,,,,,,,,,,
,60990c861b856e3f6988306e,001,2022-04-29_03h09.26.130,classification_task,2021.2.3,Win32,60.47777442,60990c861b856e3f6988306e,626b377229c10585ec392f89,626b3aa76733f5a63aea1639,,,,,,,,,,,,,,,,,,,,,,,a,1,0.9833,"[""0.297"",""0.545"",""0.922"",""0.169""]","[1,1,1,0]",0,50,50,50,1,0,0,,,1,FALSE,,,,,,,,,,,,,,,,,,,,,,,,,,,,,,
,60990c861b856e3f6988306e,001,2022-04-29_03h09.26.130,classification_task,2021.2.3,Win32,60.47777442,60990c861b856e3f6988306e,626b377229c10585ec392f89,626b3aa76733f5a63aea1639,,,,,,,,,,,,,,,,,,,,,,,l,1,1.0837,"[""0.253"",""0.357"",""0.494"",""0.782""]","[0,1,1,1]",0,51,51,51,1,1,1,,,1,FALSE,,,,,,,,,,,,,,,,,,,,,,,,,,,,,,
,60990c861b856e3f6988306e,001,2022-04-29_03h09.26.130,classification_task,2021.2.3,Win32,60.47777442,60990c861b856e3f6988306e,626b377229c10585ec392f89,626b3aa76733f5a63aea1639,,,,,,,,,,,,,,,,,,,,,,,a,0,1.1498,"[""0.065"",""0.411"",""0.671"",""0.626""]","[1,1,1,0]",0,52,52,52,1,1,0,,,1,FALSE,,,,,,,,,,,,,,,,,,,,,,,,,,,,,,
,60990c861b856e3f6988306e,001,2022-04-29_03h09.26.130,classification_task,2021.2.3,Win32,60.47777442,60990c861b856e3f6988306e,626b377229c10585ec392f89,626b3aa76733f5a63aea1639,,,,,,,,,,,,,,,,,,,,,,,l,1,0.6667,"[""0.065"",""0.178"",""0.671"",""0.728""]","[1,0,1,1]",0,53,53,53,1,1,0,,,1,FALSE,,,,,,,,,,,,,,,,,,,,,,,,,,,,,,
,60990c861b856e3f6988306e,001,2022-04-29_03h09.26.130,classification_task,2021.2.3,Win32,60.47777442,60990c861b856e3f6988306e,626b377229c10585ec392f89,626b3aa76733f5a63aea1639,,,,,,,,,,,,,,,,,,,,,,,a,1,1.8837,"[""0.157"",""0.461"",""0.591"",""0.852""]","[0,1,1,1]",0,54,54,54,1,0,1,,,1,FALSE,,,,,,,,,,,,,,,,,,,,,,,,,,,,,,
,60990c861b856e3f6988306e,001,2022-04-29_03h09.26.130,classification_task,2021.2.3,Win32,60.47777442,60990c861b856e3f6988306e,626b377229c10585ec392f89,626b3aa76733f5a63aea1639,,,,,,,,,,,,,,,,,,,,,,,l,1,0.8325,"[""0.100"",""0.252"",""0.494"",""0.782""]","[1,0,1,1]",0,55,55,55,1,1,1,,,1,FALSE,,,,,,,,,,,,,,,,,,,,,,,,,,,,,,
,60990c861b856e3f6988306e,001,2022-04-29_03h09.26.130,classification_task,2021.2.3,Win32,60.47777442,60990c861b856e3f6988306e,626b377229c10585ec392f89,626b3aa76733f5a63aea1639,,,,,,,,,,,,,,,,,,,,,,,l,1,0.8003,"[""0.100"",""0.357"",""0.494"",""0.259""]","[1,1,1,0]",0,56,56,56,1,1,1,,,1,FALSE,,,,,,,,,,,,,,,,,,,,,,,,,,,,,,
,60990c861b856e3f6988306e,001,2022-04-29_03h09.26.130,classification_task,2021.2.3,Win32,60.47777442,60990c861b856e3f6988306e,626b377229c10585ec392f89,626b3aa76733f5a63aea1639,,,,,,,,,,,,,,,,,,,,,,,a,1,2.0327,"[""0.212"",""0.169"",""0.591"",""0.852""]","[1,0,1,1]",0,57,57,57,1,0,1,,,1,FALSE,,,,,,,,,,,,,,,,,,,,,,,,,,,,,,
,60990c861b856e3f6988306e,001,2022-04-29_03h09.26.130,classification_task,2021.2.3,Win32,60.47777442,60990c861b856e3f6988306e,626b377229c10585ec392f89,626b3aa76733f5a63aea1639,,,,,,,,,,,,,,,,,,,,,,,l,0,0.7831,"[""0.157"",""0.545"",""0.922"",""0.965""]","[0,1,1,1]",0,58,58,58,1,0,0,,,1,FALSE,,,,,,,,,,,,,,,,,,,,,,,,,,,,,,
,60990c861b856e3f6988306e,001,2022-04-29_03h09.26.130,classification_task,2021.2.3,Win32,60.47777442,60990c861b856e3f6988306e,626b377229c10585ec392f89,626b3aa76733f5a63aea1639,,,,,,,,,,,,,,,,,,,,,,,l,1,0.9328,"[""0.065"",""0.411"",""0.144"",""0.728""]","[1,1,0,1]",0,59,59,59,1,1,0,,,1,FALSE,,,,,,,,,,,,,,,,,,,,,,,,,,,,,,
,60990c861b856e3f6988306e,001,2022-04-29_03h09.26.130,classification_task,2021.2.3,Win32,60.47777442,60990c861b856e3f6988306e,626b377229c10585ec392f89,626b3aa76733f5a63aea1639,,,,,,,,,,,,,,,,,,,,,,,a,1,0.7666,"[""0.297"",""0.545"",""0.247"",""0.965""]","[1,1,0,1]",0,60,60,60,1,0,0,,,1,FALSE,,,,,,,,,,,,,,,,,,,,,,,,,,,,,,
,60990c861b856e3f6988306e,001,2022-04-29_03h09.26.130,classification_task,2021.2.3,Win32,60.47777442,60990c861b856e3f6988306e,626b377229c10585ec392f89,626b3aa76733f5a63aea1639,,,,,,,,,,,,,,,,,,,,,,,a,1,1.9336,"[""0.212"",""0.461"",""0.591"",""0.628""]","[1,1,1,0]",0,61,61,61,1,0,1,,,1,FALSE,,,,,,,,,,,,,,,,,,,,,,,,,,,,,,
,60990c861b856e3f6988306e,001,2022-04-29_03h09.26.130,classification_task,2021.2.3,Win32,60.47777442,60990c861b856e3f6988306e,626b377229c10585ec392f89,626b3aa76733f5a63aea1639,,,,,,,,,,,,,,,,,,,,,,,a,1,0.617,"[""0.297"",""0.157"",""0.922"",""0.965""]","[1,0,1,1]",0,62,62,62,1,0,0,,,1,FALSE,,,,,,,,,,,,,,,,,,,,,,,,,,,,,,
,60990c861b856e3f6988306e,001,2022-04-29_03h09.26.130,classification_task,2021.2.3,Win32,60.47777442,60990c861b856e3f6988306e,626b377229c10585ec392f89,626b3aa76733f5a63aea1639,,,,,,,,,,,,,,,,,,,,,,,l,1,0.9668,"[""0.100"",""0.357"",""0.157"",""0.782""]","[1,1,0,1]",0,63,63,63,1,1,1,,,1,FALSE,,,,,,,,,,,,,,,,,,,,,,,,,,,,,,
,60990c861b856e3f6988306e,001,2022-04-29_03h09.26.130,classification_task,2021.2.3,Win32,60.47777442,60990c861b856e3f6988306e,626b377229c10585ec392f89,626b3aa76733f5a63aea1639,,,,,,,,,,,,,,,,,,,,,,,,,,,,,,,,,,,,,,,0, ,,0,3.554771703,151.7452,0,2,2,2,1,2,3,,,,,,,,,,,,,,,,,
,60990c861b856e3f6988306e,001,2022-04-29_03h09.26.130,classification_task,2021.2.3,Win32,60.47777442,60990c861b856e3f6988306e,626b377229c10585ec392f89,626b3aa76733f5a63aea1639,,,,,,,,,,,,,,,,,,,,,,,,,,,,,,,,,,,,,,,1,  ,,0,4.755046051,153.6384,0,2,2,2,1,2,3,,,,,,,,,,,,,,,,,
,60990c861b856e3f6988306e,001,2022-04-29_03h09.26.130,classification_task,2021.2.3,Win32,60.47777442,60990c861b856e3f6988306e,626b377229c10585ec392f89,626b3aa76733f5a63aea1639,,,,,,,,,,,,,,,,,,,,,,,,,,,,,,,,,,,,,,,2,  ,,0,8.796786204,155.2059,0,2,2,2,1,2,3,,,,,,,,,,,,,,,,,
,60990c861b856e3f6988306e,001,2022-04-29_03h09.26.130,classification_task,2021.2.3,Win32,60.47777442,60990c861b856e3f6988306e,626b377229c10585ec392f89,626b3aa76733f5a63aea1639,,,,,,,,,,,,,,,,,,,,,,,,,,,,,,,,,,,,,,,,,,,,,0,2,2,2,1,,3,,,,,,,,,,,,,,,,,
,60990c861b856e3f6988306e,001,2022-04-29_03h09.26.130,classification_task,2021.2.3,Win32,60.47777442,60990c861b856e3f6988306e,626b377229c10585ec392f89,626b3aa76733f5a63aea1639,,,,,,,,,,,,,,,,,,,,,,,,,,,,,,,,,,,,,,,,,,,,,,,,,,,,,I believe the aid is a competent performer,,0.7,0,3,748.7985,0,0,0,0,1,0,,,,
,60990c861b856e3f6988306e,001,2022-04-29_03h09.26.130,classification_task,2021.2.3,Win32,60.47777442,60990c861b856e3f6988306e,626b377229c10585ec392f89,626b3aa76733f5a63aea1639,,,,,,,,,,,,,,,,,,,,,,,,,,,,,,,,,,,,,,,,,,,,,,,,,,,,,I trust the aid,,0.7,0,3,749.3691,0,0,0,0,1,0,,,,
,60990c861b856e3f6988306e,001,2022-04-29_03h09.26.130,classification_task,2021.2.3,Win32,60.47777442,60990c861b856e3f6988306e,626b377229c10585ec392f89,626b3aa76733f5a63aea1639,,,,,,,,,,,,,,,,,,,,,,,,,,,,,,,,,,,,,,,,,,,,,,,,,,,,,I have confidence in the advice given by the aid,,0.7,0,3,751.7074,0,0,0,0,1,0,,,,
,60990c861b856e3f6988306e,001,2022-04-29_03h09.26.130,classification_task,2021.2.3,Win32,60.47777442,60990c861b856e3f6988306e,626b377229c10585ec392f89,626b3aa76733f5a63aea1639,,,,,,,,,,,,,,,,,,,,,,,,,,,,,,,,,,,,,,,,,,,,,,,,,,,,,I can depend on the aid,,0.7,0,3,754.3168,0,0,0,0,1,0,,,,
,60990c861b856e3f6988306e,001,2022-04-29_03h09.26.130,classification_task,2021.2.3,Win32,60.47777442,60990c861b856e3f6988306e,626b377229c10585ec392f89,626b3aa76733f5a63aea1639,,,,,,,,,,,,,,,,,,,,,,,,,,,,,,,,,,,,,,,,,,,,,,,,,,,,,I can rely on the aid to behave in consistent ways,,0.7,0,4,758.3058,0,0,0,0,1,0,,,,
,60990c861b856e3f6988306e,001,2022-04-29_03h09.26.130,classification_task,2021.2.3,Win32,60.47777442,60990c861b856e3f6988306e,626b377229c10585ec392f89,626b3aa76733f5a63aea1639,,,,,,,,,,,,,,,,,,,,,,,,,,,,,,,,,,,,,,,,,,,,,,,,,,,,,I can rely on the aid to do its best every time I take its advice,,0.7,0,4,760.4967,0,0,0,0,1,0,,,,
,60990c861b856e3f6988306e,001,2022-04-29_03h09.26.130,classification_task,2021.2.3,Win32,60.47777442,60990c861b856e3f6988306e,626b377229c10585ec392f89,626b3aa76733f5a63aea1639,,,,,,,,,,,,,,,,,,,,,,,,,,,,,,,,,,,,,,,,,,,,,,,,,,,,,"On trials you completed with assistance from the aid, how frequently did you think the aid was correct?",,0.7,0,70%,,0,0,0,0,1,0,,,,
,60990c861b856e3f6988306e,001,2022-04-29_03h09.26.130,classification_task,2021.2.3,Win32,60.47777442,60990c861b856e3f6988306e,626b377229c10585ec392f89,626b3aa76733f5a63aea1639,,,,,,,,,,,,,,,,,,,,,,,,,,,,,,,,,,,,,,,,,,,,,,,,,,,,,"On trials you completed without the aid, how frequently did you think you were correct?",,0.7,0,60%,,0,0,0,0,1,0,,,,
,60990c861b856e3f6988306e,001,2022-04-29_03h09.26.130,classification_task,2021.2.3,Win32,60.47777442,60990c861b856e3f6988306e,626b377229c10585ec392f89,626b3aa76733f5a63aea1639,,,,,,,,,,,,,,,,,,,,,,,,,,,,,,,,,,,,,,,,,,,,,,,,,,,,,,,,,,,0,0,0,0,1,,,,,
,60990c861b856e3f6988306e,001,2022-04-29_03h09.26.130,classification_task,2021.2.3,Win32,60.47777442,60990c861b856e3f6988306e,626b377229c10585ec392f89,626b3aa76733f5a63aea1639,,,,,,,,,,,,,,,,,,,,,,,,,,,,,,,,,,,,,,,,,,,,,,,,,,,,,,,,,,,,,,,,,space,7.5085,782.7535,
,60990c861b856e3f6988306e,001,2022-04-29_03h09.26.130,classification_task,2021.2.3,Win32,60.47777442,60990c861b856e3f6988306e,626b377229c10585ec392f89,626b3aa76733f5a63aea1639,,,,,,,,,,,,,,,,,,,,,,,,,,,,,,,,,,,,,,,,,,,,,,,,,,,,,,,,,,,,,,,,,,,,"Mozilla/5.0 (Windows NT 10.0; Win64; x64) AppleWebKit/537.36 (KHTML, like Gecko) Chrome/100.0.4896.127 Safari/537.36"
