usingWebGL,participant,session,date,expName,psychopyVersion,OS,frameRate,PROLIFIC_PID,STUDY_ID,SESSION_ID,signatures_friend,signatures_foe,band_ranges_top,band_ranges_bottom,formitemText,formtype,formundefined,formitemWidth,formindex,formresponse,formrt,key_resp_2.keys,key_resp_2.rt,tute_resp.keys,tute_resp.rt,tutorial.thisRepN,tutorial.thisTrialN,tutorial.thisN,tutorial.thisIndex,tutorial.ran,key_resp_4.keys,key_resp_4.rt,key_resp.keys,key_resp.corr,lines_presented,is_signal_presented,trials.thisRepN,trials.thisTrialN,trials.thisN,trials.thisIndex,trials.ran,vessel,active_band,lines,is_signal,supported_pos,catch_trial,key_resp.rt,debrief_formindex,debrief_formitemText,debrief_formtype,debrief_formitemWidth,debrief_formresponse,debrief_formrt,phases.thisRepN,phases.thisTrialN,phases.thisN,phases.thisIndex,phases.ran,phases.order,phase,key_resp_3.keys,trustitemText,trusttype,trustitemWidth,trustindex,trustresponse,trustrt,support_status.thisRepN,support_status.thisTrialN,support_status.thisN,support_status.thisIndex,support_status.ran,support_status.order,key_resp_5.keys,key_resp_5.rt,globalClockTime,userAgent
TRUE,609d1224afa6945618b68f1f,001,2022-04-29_10h56.18.091,classification_task,2021.2.3,Win32,59.95922773,609d1224afa6945618b68f1f,626b377229c10585ec392f8a,626b3c4f6871a29d61042c9f,,,,,,,,,,,,,,,,,,,,,,,,,,,,,,,,,,,,,,,,,,,,,,,,,,,,,,,,,,,,,,,,,,,,
,609d1224afa6945618b68f1f,001,2022-04-29_10h56.18.091,classification_task,2021.2.3,Win32,59.95922773,609d1224afa6945618b68f1f,626b377229c10585ec392f8a,626b3c4f6871a29d61042c9f,"[[""0.195"",""0.442"",""0.624"",""0.932""],[""0.250"",""0.536"",""0.853"",""0.890""]]","[[""0.044"",""0.407"",""0.482"",""0.804""],[""0.148"",""0.353"",""0.659"",""0.699""]]","[1,10]","[100,1000]",Video game experience,,,0.7,0,,,,,,,,,,,,,,,,,,,,,,,,,,,,,,,,,,,,,,,,,,,,,,,,,,,,,,,,,,,
,609d1224afa6945618b68f1f,001,2022-04-29_10h56.18.091,classification_task,2021.2.3,Win32,59.95922773,609d1224afa6945618b68f1f,626b377229c10585ec392f8a,626b3c4f6871a29d61042c9f,,,,,Approximately how many hours did you spend playing video games in the last week?,,,0.7,0,0,,,,,,,,,,,,,,,,,,,,,,,,,,,,,,,,,,,,,,,,,,,,,,,,,,,,,,,,,,
,609d1224afa6945618b68f1f,001,2022-04-29_10h56.18.091,classification_task,2021.2.3,Win32,59.95922773,609d1224afa6945618b68f1f,626b377229c10585ec392f8a,626b3c4f6871a29d61042c9f,,,,,"Which game did you play the most this year? (Enter ""None"" if you didn't play any)",,,0.7,0,None,,,,,,,,,,,,,,,,,,,,,,,,,,,,,,,,,,,,,,,,,,,,,,,,,,,,,,,,,,
,609d1224afa6945618b68f1f,001,2022-04-29_10h56.18.091,classification_task,2021.2.3,Win32,59.95922773,609d1224afa6945618b68f1f,626b377229c10585ec392f8a,626b3c4f6871a29d61042c9f,,,,,Visual perception,,,0.7,0,,,,,,,,,,,,,,,,,,,,,,,,,,,,,,,,,,,,,,,,,,,,,,,,,,,,,,,,,,,
,609d1224afa6945618b68f1f,001,2022-04-29_10h56.18.091,classification_task,2021.2.3,Win32,59.95922773,609d1224afa6945618b68f1f,626b377229c10585ec392f8a,626b3c4f6871a29d61042c9f,,,,,Do you have any form of color blindness?,,,0.7,0,No,29.3471,,,,,,,,,,,,,,,,,,,,,,,,,,,,,,,,,,,,,,,,,,,,,,,,,,,,,,,,,
,609d1224afa6945618b68f1f,001,2022-04-29_10h56.18.091,classification_task,2021.2.3,Win32,59.95922773,609d1224afa6945618b68f1f,626b377229c10585ec392f8a,626b3c4f6871a29d61042c9f,,,,,Do you use software to change the colour temperature of your screen (e.g. f.lux)?,,,0.7,0,No,33.2902,,,,,,,,,,,,,,,,,,,,,,,,,,,,,,,,,,,,,,,,,,,,,,,,,,,,,,,,,
,609d1224afa6945618b68f1f,001,2022-04-29_10h56.18.091,classification_task,2021.2.3,Win32,59.95922773,609d1224afa6945618b68f1f,626b377229c10585ec392f8a,626b3c4f6871a29d61042c9f,,,,,,,,,,,,space,112.4088,space,20.2027,0,0,0,0,1,,,,,,,,,,,,,,,,,,,,,,,,,,,,,,,,,,,,,,,,,,,,,,,,
,609d1224afa6945618b68f1f,001,2022-04-29_10h56.18.091,classification_task,2021.2.3,Win32,59.95922773,609d1224afa6945618b68f1f,626b377229c10585ec392f8a,626b3c4f6871a29d61042c9f,,,,,,,,,,,,,,space,13.0575,1,0,1,0,1,,,,,,,,,,,,,,,,,,,,,,,,,,,,,,,,,,,,,,,,,,,,,,,,
,609d1224afa6945618b68f1f,001,2022-04-29_10h56.18.091,classification_task,2021.2.3,Win32,59.95922773,609d1224afa6945618b68f1f,626b377229c10585ec392f8a,626b3c4f6871a29d61042c9f,,,,,,,,,,,,,,space,64.1817,2,0,2,0,1,,,,,,,,,,,,,,,,,,,,,,,,,,,,,,,,,,,,,,,,,,,,,,,,
,609d1224afa6945618b68f1f,001,2022-04-29_10h56.18.091,classification_task,2021.2.3,Win32,59.95922773,609d1224afa6945618b68f1f,626b377229c10585ec392f8a,626b3c4f6871a29d61042c9f,,,,,,,,,,,,,,space,16.0981,3,0,3,0,1,,,,,,,,,,,,,,,,,,,,,,,,,,,,,,,,,,,,,,,,,,,,,,,,
,609d1224afa6945618b68f1f,001,2022-04-29_10h56.18.091,classification_task,2021.2.3,Win32,59.95922773,609d1224afa6945618b68f1f,626b377229c10585ec392f8a,626b3c4f6871a29d61042c9f,,,,,,,,,,,,,,space,31.5431,4,0,4,0,1,,,,,,,,,,,,,,,,,,,,,,,,,,,,,,,,,,,,,,,,,,,,,,,,
,609d1224afa6945618b68f1f,001,2022-04-29_10h56.18.091,classification_task,2021.2.3,Win32,59.95922773,609d1224afa6945618b68f1f,626b377229c10585ec392f8a,626b3c4f6871a29d61042c9f,,,,,,,,,,,,,,,,,,,,,space,30.6953,,0,"[""0.738"",""0.407"",""0.482"",""0.804""]","[0,1,1,1]",0,0,0,0,1,1,0,,,0,FALSE,,,,,,,,,,,,,,,,,,,,,,,,,,,,,,,
,609d1224afa6945618b68f1f,001,2022-04-29_10h56.18.091,classification_task,2021.2.3,Win32,59.95922773,609d1224afa6945618b68f1f,626b377229c10585ec392f8a,626b3c4f6871a29d61042c9f,,,,,,,,,,,,,,,,,,,,,,,a,1,"[""0.764"",""0.442"",""0.624"",""0.932""]","[0,1,1,1]",0,1,1,1,1,0,0,,,0,FALSE,5.9667,,,,,,,,,,,,,,,,,,,,,,,,,,,,,,
,609d1224afa6945618b68f1f,001,2022-04-29_10h56.18.091,classification_task,2021.2.3,Win32,59.95922773,609d1224afa6945618b68f1f,626b377229c10585ec392f8a,626b3c4f6871a29d61042c9f,,,,,,,,,,,,,,,,,,,,,,,a,1,"[""0.250"",""0.738"",""0.853"",""0.890""]","[1,0,1,1]",0,2,2,2,1,0,1,,,0,FALSE,6.0334,,,,,,,,,,,,,,,,,,,,,,,,,,,,,,
,609d1224afa6945618b68f1f,001,2022-04-29_10h56.18.091,classification_task,2021.2.3,Win32,59.95922773,609d1224afa6945618b68f1f,626b377229c10585ec392f8a,626b3c4f6871a29d61042c9f,,,,,,,,,,,,,,,,,,,,,,,l,1,"[""0.148"",""0.353"",""0.659"",""0.749""]","[1,1,1,0]",0,3,3,3,1,1,1,,,0,FALSE,6.9281,,,,,,,,,,,,,,,,,,,,,,,,,,,,,,
,609d1224afa6945618b68f1f,001,2022-04-29_10h56.18.091,classification_task,2021.2.3,Win32,59.95922773,609d1224afa6945618b68f1f,626b377229c10585ec392f8a,626b3c4f6871a29d61042c9f,,,,,,,,,,,,,,,,,,,,,,,a,1,"[""0.250"",""0.536"",""0.853"",""0.762""]","[1,1,1,0]",0,4,4,4,1,0,1,,,0,FALSE,5.9792,,,,,,,,,,,,,,,,,,,,,,,,,,,,,,
,609d1224afa6945618b68f1f,001,2022-04-29_10h56.18.091,classification_task,2021.2.3,Win32,59.95922773,609d1224afa6945618b68f1f,626b377229c10585ec392f8a,626b3c4f6871a29d61042c9f,,,,,,,,,,,,,,,,,,,,,,,a,1,"[""0.195"",""0.442"",""0.738"",""0.932""]","[1,1,0,1]",0,5,5,5,1,0,0,,,0,FALSE,4.5566,,,,,,,,,,,,,,,,,,,,,,,,,,,,,,
,609d1224afa6945618b68f1f,001,2022-04-29_10h56.18.091,classification_task,2021.2.3,Win32,59.95922773,609d1224afa6945618b68f1f,626b377229c10585ec392f8a,626b3c4f6871a29d61042c9f,,,,,,,,,,,,,,,,,,,,,,,a,1,"[""0.195"",""0.579"",""0.624"",""0.932""]","[1,0,1,1]",0,6,6,6,1,0,0,,,0,FALSE,5.3313,,,,,,,,,,,,,,,,,,,,,,,,,,,,,,
,609d1224afa6945618b68f1f,001,2022-04-29_10h56.18.091,classification_task,2021.2.3,Win32,59.95922773,609d1224afa6945618b68f1f,626b377229c10585ec392f8a,626b3c4f6871a29d61042c9f,,,,,,,,,,,,,,,,,,,,,,,a,1,"[""0.195"",""0.442"",""0.624"",""0.313""]","[1,1,1,0]",0,7,7,7,1,0,0,,,0,FALSE,7.4778,,,,,,,,,,,,,,,,,,,,,,,,,,,,,,
,609d1224afa6945618b68f1f,001,2022-04-29_10h56.18.091,classification_task,2021.2.3,Win32,59.95922773,609d1224afa6945618b68f1f,626b377229c10585ec392f8a,626b3c4f6871a29d61042c9f,,,,,,,,,,,,,,,,,,,,,,,,0,"[""0.577"",""0.536"",""0.853"",""0.890""]","[0,1,1,1]",0,8,8,8,1,0,1,,,0,FALSE,,,,,,,,,,,,,,,,,,,,,,,,,,,,,,,
,609d1224afa6945618b68f1f,001,2022-04-29_10h56.18.091,classification_task,2021.2.3,Win32,59.95922773,609d1224afa6945618b68f1f,626b377229c10585ec392f8a,626b3c4f6871a29d61042c9f,,,,,,,,,,,,,,,,,,,,,,,l,1,"[""0.148"",""0.765"",""0.659"",""0.699""]","[1,0,1,1]",0,9,9,9,1,1,1,,,0,FALSE,9.3193,,,,,,,,,,,,,,,,,,,,,,,,,,,,,,
,609d1224afa6945618b68f1f,001,2022-04-29_10h56.18.091,classification_task,2021.2.3,Win32,59.95922773,609d1224afa6945618b68f1f,626b377229c10585ec392f8a,626b3c4f6871a29d61042c9f,,,,,,,,,,,,,,,,,,,,,,,,0,"[""0.044"",""0.407"",""0.482"",""0.098""]","[1,1,1,0]",0,10,10,10,1,1,0,,,0,FALSE,,,,,,,,,,,,,,,,,,,,,,,,,,,,,,,
,609d1224afa6945618b68f1f,001,2022-04-29_10h56.18.091,classification_task,2021.2.3,Win32,59.95922773,609d1224afa6945618b68f1f,626b377229c10585ec392f8a,626b3c4f6871a29d61042c9f,,,,,,,,,,,,,,,,,,,,,,,,0,"[""0.044"",""0.098"",""0.482"",""0.804""]","[1,0,1,1]",0,11,11,11,1,1,0,,,0,FALSE,,,,,,,,,,,,,,,,,,,,,,,,,,,,,,,
,609d1224afa6945618b68f1f,001,2022-04-29_10h56.18.091,classification_task,2021.2.3,Win32,59.95922773,609d1224afa6945618b68f1f,626b377229c10585ec392f8a,626b3c4f6871a29d61042c9f,,,,,,,,,,,,,,,,,,,,,,,,0,"[""0.287"",""0.353"",""0.659"",""0.699""]","[0,1,1,1]",0,12,12,12,1,1,1,,,0,FALSE,,,,,,,,,,,,,,,,,,,,,,,,,,,,,,,
,609d1224afa6945618b68f1f,001,2022-04-29_10h56.18.091,classification_task,2021.2.3,Win32,59.95922773,609d1224afa6945618b68f1f,626b377229c10585ec392f8a,626b3c4f6871a29d61042c9f,,,,,,,,,,,,,,,,,,,,,,,l,1,"[""0.044"",""0.407"",""0.313"",""0.804""]","[1,1,0,1]",0,13,13,13,1,1,0,,,0,FALSE,6.1619,,,,,,,,,,,,,,,,,,,,,,,,,,,,,,
,609d1224afa6945618b68f1f,001,2022-04-29_10h56.18.091,classification_task,2021.2.3,Win32,59.95922773,609d1224afa6945618b68f1f,626b377229c10585ec392f8a,626b3c4f6871a29d61042c9f,,,,,,,,,,,,,,,,,,,,,,,a,1,"[""0.250"",""0.536"",""0.590"",""0.890""]","[1,1,0,1]",0,14,14,14,1,0,1,,,0,FALSE,6.632,,,,,,,,,,,,,,,,,,,,,,,,,,,,,,
,609d1224afa6945618b68f1f,001,2022-04-29_10h56.18.091,classification_task,2021.2.3,Win32,59.95922773,609d1224afa6945618b68f1f,626b377229c10585ec392f8a,626b3c4f6871a29d61042c9f,,,,,,,,,,,,,,,,,,,,,,,l,1,"[""0.148"",""0.353"",""0.749"",""0.699""]","[1,1,0,1]",0,15,15,15,1,1,1,,,0,FALSE,5.0572,,,,,,,,,,,,,,,,,,,,,,,,,,,,,,
,609d1224afa6945618b68f1f,001,2022-04-29_10h56.18.091,classification_task,2021.2.3,Win32,59.95922773,609d1224afa6945618b68f1f,626b377229c10585ec392f8a,626b3c4f6871a29d61042c9f,,,,,,,,,,,,,,,,,,,,,,,,0,"[""0.195"",""0.442"",""0.624"",""0.764""]","[1,1,1,0]",0,16,16,16,1,0,0,,,0,FALSE,,,,,,,,,,,,,,,,,,,,,,,,,,,,,,,
,609d1224afa6945618b68f1f,001,2022-04-29_10h56.18.091,classification_task,2021.2.3,Win32,59.95922773,609d1224afa6945618b68f1f,626b377229c10585ec392f8a,626b3c4f6871a29d61042c9f,,,,,,,,,,,,,,,,,,,,,,,a,1,"[""0.195"",""0.442"",""0.765"",""0.932""]","[1,1,0,1]",0,17,17,17,1,0,0,,,0,FALSE,4.7785,,,,,,,,,,,,,,,,,,,,,,,,,,,,,,
,609d1224afa6945618b68f1f,001,2022-04-29_10h56.18.091,classification_task,2021.2.3,Win32,59.95922773,609d1224afa6945618b68f1f,626b377229c10585ec392f8a,626b3c4f6871a29d61042c9f,,,,,,,,,,,,,,,,,,,,,,,a,1,"[""0.250"",""0.587"",""0.853"",""0.890""]","[1,0,1,1]",0,18,18,18,1,0,1,,,0,FALSE,5.8806,,,,,,,,,,,,,,,,,,,,,,,,,,,,,,
,609d1224afa6945618b68f1f,001,2022-04-29_10h56.18.091,classification_task,2021.2.3,Win32,59.95922773,609d1224afa6945618b68f1f,626b377229c10585ec392f8a,626b3c4f6871a29d61042c9f,,,,,,,,,,,,,,,,,,,,,,,l,1,"[""0.148"",""0.590"",""0.659"",""0.699""]","[1,0,1,1]",0,19,19,19,1,1,1,,,0,FALSE,8.1391,,,,,,,,,,,,,,,,,,,,,,,,,,,,,,
,609d1224afa6945618b68f1f,001,2022-04-29_10h56.18.091,classification_task,2021.2.3,Win32,59.95922773,609d1224afa6945618b68f1f,626b377229c10585ec392f8a,626b3c4f6871a29d61042c9f,,,,,,,,,,,,,,,,,,,,,,,a,1,"[""0.195"",""0.738"",""0.624"",""0.932""]","[1,0,1,1]",0,20,20,20,1,0,0,,,0,FALSE,6.4253,,,,,,,,,,,,,,,,,,,,,,,,,,,,,,
,609d1224afa6945618b68f1f,001,2022-04-29_10h56.18.091,classification_task,2021.2.3,Win32,59.95922773,609d1224afa6945618b68f1f,626b377229c10585ec392f8a,626b3c4f6871a29d61042c9f,,,,,,,,,,,,,,,,,,,,,,,l,1,"[""0.148"",""0.353"",""0.659"",""0.762""]","[1,1,1,0]",0,21,21,21,1,1,1,,,0,FALSE,5.9963,,,,,,,,,,,,,,,,,,,,,,,,,,,,,,
,609d1224afa6945618b68f1f,001,2022-04-29_10h56.18.091,classification_task,2021.2.3,Win32,59.95922773,609d1224afa6945618b68f1f,626b377229c10585ec392f8a,626b3c4f6871a29d61042c9f,,,,,,,,,,,,,,,,,,,,,,,l,1,"[""0.044"",""0.407"",""0.762"",""0.804""]","[1,1,0,1]",0,22,22,22,1,1,0,,,0,FALSE,7.6979,,,,,,,,,,,,,,,,,,,,,,,,,,,,,,
,609d1224afa6945618b68f1f,001,2022-04-29_10h56.18.091,classification_task,2021.2.3,Win32,59.95922773,609d1224afa6945618b68f1f,626b377229c10585ec392f8a,626b3c4f6871a29d61042c9f,,,,,,,,,,,,,,,,,,,,,,,l,1,"[""0.098"",""0.353"",""0.659"",""0.699""]","[0,1,1,1]",0,23,23,23,1,1,1,,,0,FALSE,7.217,,,,,,,,,,,,,,,,,,,,,,,,,,,,,,
,609d1224afa6945618b68f1f,001,2022-04-29_10h56.18.091,classification_task,2021.2.3,Win32,59.95922773,609d1224afa6945618b68f1f,626b377229c10585ec392f8a,626b3c4f6871a29d61042c9f,,,,,,,,,,,,,,,,,,,,,,,l,1,"[""0.148"",""0.353"",""0.313"",""0.699""]","[1,1,0,1]",0,24,24,24,1,1,1,,,0,FALSE,5.1145,,,,,,,,,,,,,,,,,,,,,,,,,,,,,,
,609d1224afa6945618b68f1f,001,2022-04-29_10h56.18.091,classification_task,2021.2.3,Win32,59.95922773,609d1224afa6945618b68f1f,626b377229c10585ec392f8a,626b3c4f6871a29d61042c9f,,,,,,,,,,,,,,,,,,,,,,,a,1,"[""0.250"",""0.536"",""0.764"",""0.890""]","[1,1,0,1]",0,25,25,25,1,0,1,,,0,FALSE,5.6885,,,,,,,,,,,,,,,,,,,,,,,,,,,,,,
,609d1224afa6945618b68f1f,001,2022-04-29_10h56.18.091,classification_task,2021.2.3,Win32,59.95922773,609d1224afa6945618b68f1f,626b377229c10585ec392f8a,626b3c4f6871a29d61042c9f,,,,,,,,,,,,,,,,,,,,,,,,0,"[""0.590"",""0.442"",""0.624"",""0.932""]","[0,1,1,1]",0,26,26,26,1,0,0,,,0,FALSE,,,,,,,,,,,,,,,,,,,,,,,,,,,,,,,
,609d1224afa6945618b68f1f,001,2022-04-29_10h56.18.091,classification_task,2021.2.3,Win32,59.95922773,609d1224afa6945618b68f1f,626b377229c10585ec392f8a,626b3c4f6871a29d61042c9f,,,,,,,,,,,,,,,,,,,,,,,a,0,"[""0.044"",""0.587"",""0.482"",""0.804""]","[1,0,1,1]",0,27,27,27,1,1,0,,,0,FALSE,6.8612,,,,,,,,,,,,,,,,,,,,,,,,,,,,,,
,609d1224afa6945618b68f1f,001,2022-04-29_10h56.18.091,classification_task,2021.2.3,Win32,59.95922773,609d1224afa6945618b68f1f,626b377229c10585ec392f8a,626b3c4f6871a29d61042c9f,,,,,,,,,,,,,,,,,,,,,,,,0,"[""0.590"",""0.407"",""0.482"",""0.804""]","[0,1,1,1]",0,28,28,28,1,1,0,,,0,FALSE,,,,,,,,,,,,,,,,,,,,,,,,,,,,,,,
,609d1224afa6945618b68f1f,001,2022-04-29_10h56.18.091,classification_task,2021.2.3,Win32,59.95922773,609d1224afa6945618b68f1f,626b377229c10585ec392f8a,626b3c4f6871a29d61042c9f,,,,,,,,,,,,,,,,,,,,,,,,0,"[""0.757"",""0.536"",""0.853"",""0.890""]","[0,1,1,1]",0,29,29,29,1,0,1,,,0,FALSE,,,,,,,,,,,,,,,,,,,,,,,,,,,,,,,
,609d1224afa6945618b68f1f,001,2022-04-29_10h56.18.091,classification_task,2021.2.3,Win32,59.95922773,609d1224afa6945618b68f1f,626b377229c10585ec392f8a,626b3c4f6871a29d61042c9f,,,,,,,,,,,,,,,,,,,,,,,a,1,"[""0.250"",""0.536"",""0.853"",""0.579""]","[1,1,1,0]",0,30,30,30,1,0,1,,,0,FALSE,6.4311,,,,,,,,,,,,,,,,,,,,,,,,,,,,,,
,609d1224afa6945618b68f1f,001,2022-04-29_10h56.18.091,classification_task,2021.2.3,Win32,59.95922773,609d1224afa6945618b68f1f,626b377229c10585ec392f8a,626b3c4f6871a29d61042c9f,,,,,,,,,,,,,,,,,,,,,,,a,0,"[""0.044"",""0.407"",""0.482"",""0.739""]","[1,1,1,0]",0,31,31,31,1,1,0,,,0,FALSE,6.7989,,,,,,,,,,,,,,,,,,,,,,,,,,,,,,
,609d1224afa6945618b68f1f,001,2022-04-29_10h56.18.091,classification_task,2021.2.3,Win32,59.95922773,609d1224afa6945618b68f1f,626b377229c10585ec392f8a,626b3c4f6871a29d61042c9f,,,,,,,,,,,,,,,,,,,,,,,a,1,"[""0.590"",""0.442"",""0.624"",""0.932""]","[0,1,1,1]",0,32,32,32,1,0,0,,,0,FALSE,7.598,,,,,,,,,,,,,,,,,,,,,,,,,,,,,,
,609d1224afa6945618b68f1f,001,2022-04-29_10h56.18.091,classification_task,2021.2.3,Win32,59.95922773,609d1224afa6945618b68f1f,626b377229c10585ec392f8a,626b3c4f6871a29d61042c9f,,,,,,,,,,,,,,,,,,,,,,,l,1,"[""0.757"",""0.353"",""0.659"",""0.699""]","[0,1,1,1]",0,33,33,33,1,1,1,,,0,FALSE,5.2731,,,,,,,,,,,,,,,,,,,,,,,,,,,,,,
,609d1224afa6945618b68f1f,001,2022-04-29_10h56.18.091,classification_task,2021.2.3,Win32,59.95922773,609d1224afa6945618b68f1f,626b377229c10585ec392f8a,626b3c4f6871a29d61042c9f,,,,,,,,,,,,,,,,,,,,,,,a,0,"[""0.044"",""0.757"",""0.482"",""0.804""]","[1,0,1,1]",0,34,34,34,1,1,0,,,0,FALSE,5.2248,,,,,,,,,,,,,,,,,,,,,,,,,,,,,,
,609d1224afa6945618b68f1f,001,2022-04-29_10h56.18.091,classification_task,2021.2.3,Win32,59.95922773,609d1224afa6945618b68f1f,626b377229c10585ec392f8a,626b3c4f6871a29d61042c9f,,,,,,,,,,,,,,,,,,,,,,,l,1,"[""0.738"",""0.407"",""0.482"",""0.804""]","[0,1,1,1]",0,35,35,35,1,1,0,,,0,FALSE,4.6454,,,,,,,,,,,,,,,,,,,,,,,,,,,,,,
,609d1224afa6945618b68f1f,001,2022-04-29_10h56.18.091,classification_task,2021.2.3,Win32,59.95922773,609d1224afa6945618b68f1f,626b377229c10585ec392f8a,626b3c4f6871a29d61042c9f,,,,,,,,,,,,,,,,,,,,,,,a,0,"[""0.148"",""0.313"",""0.659"",""0.699""]","[1,0,1,1]",0,36,36,36,1,1,1,,,0,FALSE,2.0508,,,,,,,,,,,,,,,,,,,,,,,,,,,,,,
,609d1224afa6945618b68f1f,001,2022-04-29_10h56.18.091,classification_task,2021.2.3,Win32,59.95922773,609d1224afa6945618b68f1f,626b377229c10585ec392f8a,626b3c4f6871a29d61042c9f,,,,,,,,,,,,,,,,,,,,,,,l,0,"[""0.764"",""0.536"",""0.853"",""0.890""]","[0,1,1,1]",0,37,37,37,1,0,1,,,0,FALSE,4.3352,,,,,,,,,,,,,,,,,,,,,,,,,,,,,,
,609d1224afa6945618b68f1f,001,2022-04-29_10h56.18.091,classification_task,2021.2.3,Win32,59.95922773,609d1224afa6945618b68f1f,626b377229c10585ec392f8a,626b3c4f6871a29d61042c9f,,,,,,,,,,,,,,,,,,,,,,,a,0,"[""0.044"",""0.407"",""0.762"",""0.804""]","[1,1,0,1]",0,38,38,38,1,1,0,,,0,FALSE,2.8129,,,,,,,,,,,,,,,,,,,,,,,,,,,,,,
,609d1224afa6945618b68f1f,001,2022-04-29_10h56.18.091,classification_task,2021.2.3,Win32,59.95922773,609d1224afa6945618b68f1f,626b377229c10585ec392f8a,626b3c4f6871a29d61042c9f,,,,,,,,,,,,,,,,,,,,,,,l,1,"[""0.044"",""0.407"",""0.482"",""0.738""]","[1,1,1,0]",0,39,39,39,1,1,0,,,0,FALSE,2.1858,,,,,,,,,,,,,,,,,,,,,,,,,,,,,,
,609d1224afa6945618b68f1f,001,2022-04-29_10h56.18.091,classification_task,2021.2.3,Win32,59.95922773,609d1224afa6945618b68f1f,626b377229c10585ec392f8a,626b3c4f6871a29d61042c9f,,,,,,,,,,,,,,,,,,,,,,,l,0,"[""0.195"",""0.587"",""0.624"",""0.932""]","[1,0,1,1]",0,40,40,40,1,0,0,,,0,FALSE,1.5022,,,,,,,,,,,,,,,,,,,,,,,,,,,,,,
,609d1224afa6945618b68f1f,001,2022-04-29_10h56.18.091,classification_task,2021.2.3,Win32,59.95922773,609d1224afa6945618b68f1f,626b377229c10585ec392f8a,626b3c4f6871a29d61042c9f,,,,,,,,,,,,,,,,,,,,,,,a,1,"[""0.195"",""0.442"",""0.624"",""0.757""]","[1,1,1,0]",0,41,41,41,1,0,0,,,0,FALSE,2.4297,,,,,,,,,,,,,,,,,,,,,,,,,,,,,,
,609d1224afa6945618b68f1f,001,2022-04-29_10h56.18.091,classification_task,2021.2.3,Win32,59.95922773,609d1224afa6945618b68f1f,626b377229c10585ec392f8a,626b3c4f6871a29d61042c9f,,,,,,,,,,,,,,,,,,,,,,,a,0,"[""0.148"",""0.353"",""0.659"",""0.590""]","[1,1,1,0]",0,42,42,42,1,1,1,,,0,FALSE,3.7058,,,,,,,,,,,,,,,,,,,,,,,,,,,,,,
,609d1224afa6945618b68f1f,001,2022-04-29_10h56.18.091,classification_task,2021.2.3,Win32,59.95922773,609d1224afa6945618b68f1f,626b377229c10585ec392f8a,626b3c4f6871a29d61042c9f,,,,,,,,,,,,,,,,,,,,,,,a,1,"[""0.250"",""0.536"",""0.853"",""0.287""]","[1,1,1,0]",0,43,43,43,1,0,1,,,0,FALSE,3.9541,,,,,,,,,,,,,,,,,,,,,,,,,,,,,,
,609d1224afa6945618b68f1f,001,2022-04-29_10h56.18.091,classification_task,2021.2.3,Win32,59.95922773,609d1224afa6945618b68f1f,626b377229c10585ec392f8a,626b3c4f6871a29d61042c9f,,,,,,,,,,,,,,,,,,,,,,,l,0,"[""0.250"",""0.536"",""0.590"",""0.890""]","[1,1,0,1]",0,44,44,44,1,0,1,,,0,FALSE,2.6899,,,,,,,,,,,,,,,,,,,,,,,,,,,,,,
,609d1224afa6945618b68f1f,001,2022-04-29_10h56.18.091,classification_task,2021.2.3,Win32,59.95922773,609d1224afa6945618b68f1f,626b377229c10585ec392f8a,626b3c4f6871a29d61042c9f,,,,,,,,,,,,,,,,,,,,,,,a,1,"[""0.250"",""0.587"",""0.853"",""0.890""]","[1,0,1,1]",0,45,45,45,1,0,1,,,0,FALSE,3.6897,,,,,,,,,,,,,,,,,,,,,,,,,,,,,,
,609d1224afa6945618b68f1f,001,2022-04-29_10h56.18.091,classification_task,2021.2.3,Win32,59.95922773,609d1224afa6945618b68f1f,626b377229c10585ec392f8a,626b3c4f6871a29d61042c9f,,,,,,,,,,,,,,,,,,,,,,,a,0,"[""0.148"",""0.353"",""0.762"",""0.699""]","[1,1,0,1]",0,46,46,46,1,1,1,,,0,FALSE,3.1497,,,,,,,,,,,,,,,,,,,,,,,,,,,,,,
,609d1224afa6945618b68f1f,001,2022-04-29_10h56.18.091,classification_task,2021.2.3,Win32,59.95922773,609d1224afa6945618b68f1f,626b377229c10585ec392f8a,626b3c4f6871a29d61042c9f,,,,,,,,,,,,,,,,,,,,,,,a,1,"[""0.195"",""0.442"",""0.590"",""0.932""]","[1,1,0,1]",0,47,47,47,1,0,0,,,0,FALSE,4.1327,,,,,,,,,,,,,,,,,,,,,,,,,,,,,,
,609d1224afa6945618b68f1f,001,2022-04-29_10h56.18.091,classification_task,2021.2.3,Win32,59.95922773,609d1224afa6945618b68f1f,626b377229c10585ec392f8a,626b3c4f6871a29d61042c9f,,,,,,,,,,,,,,,,,,,,,,,l,1,"[""0.765"",""0.407"",""0.482"",""0.804""]","[0,1,1,1]",0,48,48,48,1,1,0,,,0,FALSE,7.3192,,,,,,,,,,,,,,,,,,,,,,,,,,,,,,
,609d1224afa6945618b68f1f,001,2022-04-29_10h56.18.091,classification_task,2021.2.3,Win32,59.95922773,609d1224afa6945618b68f1f,626b377229c10585ec392f8a,626b3c4f6871a29d61042c9f,,,,,,,,,,,,,,,,,,,,,,,a,1,"[""0.739"",""0.442"",""0.624"",""0.932""]","[0,1,1,1]",0,49,49,49,1,0,0,,,0,FALSE,2.8244,,,,,,,,,,,,,,,,,,,,,,,,,,,,,,
,609d1224afa6945618b68f1f,001,2022-04-29_10h56.18.091,classification_task,2021.2.3,Win32,59.95922773,609d1224afa6945618b68f1f,626b377229c10585ec392f8a,626b3c4f6871a29d61042c9f,,,,,,,,,,,,,,,,,,,,,,,l,0,"[""0.250"",""0.764"",""0.853"",""0.890""]","[1,0,1,1]",0,50,50,50,1,0,1,,,0,FALSE,3.38,,,,,,,,,,,,,,,,,,,,,,,,,,,,,,
,609d1224afa6945618b68f1f,001,2022-04-29_10h56.18.091,classification_task,2021.2.3,Win32,59.95922773,609d1224afa6945618b68f1f,626b377229c10585ec392f8a,626b3c4f6871a29d61042c9f,,,,,,,,,,,,,,,,,,,,,,,l,0,"[""0.250"",""0.536"",""0.098"",""0.890""]","[1,1,0,1]",0,51,51,51,1,0,1,,,0,FALSE,1.7352,,,,,,,,,,,,,,,,,,,,,,,,,,,,,,
,609d1224afa6945618b68f1f,001,2022-04-29_10h56.18.091,classification_task,2021.2.3,Win32,59.95922773,609d1224afa6945618b68f1f,626b377229c10585ec392f8a,626b3c4f6871a29d61042c9f,,,,,,,,,,,,,,,,,,,,,,,a,1,"[""0.250"",""0.536"",""0.853"",""0.098""]","[1,1,1,0]",0,52,52,52,1,0,1,,,0,FALSE,1.1543,,,,,,,,,,,,,,,,,,,,,,,,,,,,,,
,609d1224afa6945618b68f1f,001,2022-04-29_10h56.18.091,classification_task,2021.2.3,Win32,59.95922773,609d1224afa6945618b68f1f,626b377229c10585ec392f8a,626b3c4f6871a29d61042c9f,,,,,,,,,,,,,,,,,,,,,,,a,1,"[""0.195"",""0.442"",""0.738"",""0.932""]","[1,1,0,1]",0,53,53,53,1,0,0,,,0,FALSE,2.7149,,,,,,,,,,,,,,,,,,,,,,,,,,,,,,
,609d1224afa6945618b68f1f,001,2022-04-29_10h56.18.091,classification_task,2021.2.3,Win32,59.95922773,609d1224afa6945618b68f1f,626b377229c10585ec392f8a,626b3c4f6871a29d61042c9f,,,,,,,,,,,,,,,,,,,,,,,l,0,"[""0.590"",""0.536"",""0.853"",""0.890""]","[0,1,1,1]",0,54,54,54,1,0,1,,,0,FALSE,2.9269,,,,,,,,,,,,,,,,,,,,,,,,,,,,,,
,609d1224afa6945618b68f1f,001,2022-04-29_10h56.18.091,classification_task,2021.2.3,Win32,59.95922773,609d1224afa6945618b68f1f,626b377229c10585ec392f8a,626b3c4f6871a29d61042c9f,,,,,,,,,,,,,,,,,,,,,,,a,1,"[""0.195"",""0.590"",""0.624"",""0.932""]","[1,0,1,1]",0,55,55,55,1,0,0,,,0,FALSE,1.9823,,,,,,,,,,,,,,,,,,,,,,,,,,,,,,
,609d1224afa6945618b68f1f,001,2022-04-29_10h56.18.091,classification_task,2021.2.3,Win32,59.95922773,609d1224afa6945618b68f1f,626b377229c10585ec392f8a,626b3c4f6871a29d61042c9f,,,,,,,,,,,,,,,,,,,,,,,a,0,"[""0.044"",""0.407"",""0.749"",""0.804""]","[1,1,0,1]",0,56,56,56,1,1,0,,,0,FALSE,3.9341,,,,,,,,,,,,,,,,,,,,,,,,,,,,,,
,609d1224afa6945618b68f1f,001,2022-04-29_10h56.18.091,classification_task,2021.2.3,Win32,59.95922773,609d1224afa6945618b68f1f,626b377229c10585ec392f8a,626b3c4f6871a29d61042c9f,,,,,,,,,,,,,,,,,,,,,,,a,0,"[""0.148"",""0.353"",""0.659"",""0.579""]","[1,1,1,0]",0,57,57,57,1,1,1,,,0,FALSE,1.1325,,,,,,,,,,,,,,,,,,,,,,,,,,,,,,
,609d1224afa6945618b68f1f,001,2022-04-29_10h56.18.091,classification_task,2021.2.3,Win32,59.95922773,609d1224afa6945618b68f1f,626b377229c10585ec392f8a,626b3c4f6871a29d61042c9f,,,,,,,,,,,,,,,,,,,,,,,l,1,"[""0.044"",""0.098"",""0.482"",""0.804""]","[1,0,1,1]",0,58,58,58,1,1,0,,,0,FALSE,1.7977,,,,,,,,,,,,,,,,,,,,,,,,,,,,,,
,609d1224afa6945618b68f1f,001,2022-04-29_10h56.18.091,classification_task,2021.2.3,Win32,59.95922773,609d1224afa6945618b68f1f,626b377229c10585ec392f8a,626b3c4f6871a29d61042c9f,,,,,,,,,,,,,,,,,,,,,,,l,1,"[""0.148"",""0.353"",""0.738"",""0.699""]","[1,1,0,1]",0,59,59,59,1,1,1,,,0,FALSE,2.0167,,,,,,,,,,,,,,,,,,,,,,,,,,,,,,
,609d1224afa6945618b68f1f,001,2022-04-29_10h56.18.091,classification_task,2021.2.3,Win32,59.95922773,609d1224afa6945618b68f1f,626b377229c10585ec392f8a,626b3c4f6871a29d61042c9f,,,,,,,,,,,,,,,,,,,,,,,l,1,"[""0.765"",""0.353"",""0.659"",""0.699""]","[0,1,1,1]",0,60,60,60,1,1,1,,,0,FALSE,0.996,,,,,,,,,,,,,,,,,,,,,,,,,,,,,,
,609d1224afa6945618b68f1f,001,2022-04-29_10h56.18.091,classification_task,2021.2.3,Win32,59.95922773,609d1224afa6945618b68f1f,626b377229c10585ec392f8a,626b3c4f6871a29d61042c9f,,,,,,,,,,,,,,,,,,,,,,,a,0,"[""0.044"",""0.407"",""0.482"",""0.577""]","[1,1,1,0]",0,61,61,61,1,1,0,,,0,FALSE,2.4245,,,,,,,,,,,,,,,,,,,,,,,,,,,,,,
,609d1224afa6945618b68f1f,001,2022-04-29_10h56.18.091,classification_task,2021.2.3,Win32,59.95922773,609d1224afa6945618b68f1f,626b377229c10585ec392f8a,626b3c4f6871a29d61042c9f,,,,,,,,,,,,,,,,,,,,,,,a,1,"[""0.195"",""0.442"",""0.624"",""0.765""]","[1,1,1,0]",0,62,62,62,1,0,0,,,0,FALSE,1.2321,,,,,,,,,,,,,,,,,,,,,,,,,,,,,,
,609d1224afa6945618b68f1f,001,2022-04-29_10h56.18.091,classification_task,2021.2.3,Win32,59.95922773,609d1224afa6945618b68f1f,626b377229c10585ec392f8a,626b3c4f6871a29d61042c9f,,,,,,,,,,,,,,,,,,,,,,,l,1,"[""0.148"",""0.287"",""0.659"",""0.699""]","[1,0,1,1]",0,63,63,63,1,1,1,,,0,FALSE,1.714,,,,,,,,,,,,,,,,,,,,,,,,,,,,,,
,609d1224afa6945618b68f1f,001,2022-04-29_10h56.18.091,classification_task,2021.2.3,Win32,59.95922773,609d1224afa6945618b68f1f,626b377229c10585ec392f8a,626b3c4f6871a29d61042c9f,,,,,,,,,,,,,,,,,,,,,,,,,,,,,,,,,,,,,,,0, ,,0,0.831955467,765.6953,0,0,0,0,1,2,1,,,,,,,,,,,,,,,,,
,609d1224afa6945618b68f1f,001,2022-04-29_10h56.18.091,classification_task,2021.2.3,Win32,59.95922773,609d1224afa6945618b68f1f,626b377229c10585ec392f8a,626b3c4f6871a29d61042c9f,,,,,,,,,,,,,,,,,,,,,,,,,,,,,,,,,,,,,,,1,  ,,0,9.305831129,772.0716,0,0,0,0,1,2,1,,,,,,,,,,,,,,,,,
,609d1224afa6945618b68f1f,001,2022-04-29_10h56.18.091,classification_task,2021.2.3,Win32,59.95922773,609d1224afa6945618b68f1f,626b377229c10585ec392f8a,626b3c4f6871a29d61042c9f,,,,,,,,,,,,,,,,,,,,,,,,,,,,,,,,,,,,,,,2,  ,,0,7.652391975,779.3283,0,0,0,0,1,2,1,,,,,,,,,,,,,,,,,
,609d1224afa6945618b68f1f,001,2022-04-29_10h56.18.091,classification_task,2021.2.3,Win32,59.95922773,609d1224afa6945618b68f1f,626b377229c10585ec392f8a,626b3c4f6871a29d61042c9f,,,,,,,,,,,,,,,,,,,,,,,,,,,,,,,,,,,,,,,,,,,,,0,0,0,0,1,,1,,,,,,,,,,,,,,,,,
,609d1224afa6945618b68f1f,001,2022-04-29_10h56.18.091,classification_task,2021.2.3,Win32,59.95922773,609d1224afa6945618b68f1f,626b377229c10585ec392f8a,626b3c4f6871a29d61042c9f,,,,,,,,,,,,,,,,,,,,,space,47.3867,l,0,"[""0.250"",""0.536"",""0.739"",""0.890""]","[1,1,0,1]",0,0,0,0,1,0,1,,,0,FALSE,5.8556,,,,,,,,,,,,,,,,,,,,,,,,,,,,,,
,609d1224afa6945618b68f1f,001,2022-04-29_10h56.18.091,classification_task,2021.2.3,Win32,59.95922773,609d1224afa6945618b68f1f,626b377229c10585ec392f8a,626b3c4f6871a29d61042c9f,,,,,,,,,,,,,,,,,,,,,,,l,0,"[""0.250"",""0.757"",""0.853"",""0.890""]","[1,0,1,1]",0,1,1,1,1,0,1,,,0,FALSE,4.0216,,,,,,,,,,,,,,,,,,,,,,,,,,,,,,
,609d1224afa6945618b68f1f,001,2022-04-29_10h56.18.091,classification_task,2021.2.3,Win32,59.95922773,609d1224afa6945618b68f1f,626b377229c10585ec392f8a,626b3c4f6871a29d61042c9f,,,,,,,,,,,,,,,,,,,,,,,a,0,"[""0.044"",""0.579"",""0.482"",""0.804""]","[1,0,1,1]",0,2,2,2,1,1,0,,,0,FALSE,7.5664,,,,,,,,,,,,,,,,,,,,,,,,,,,,,,
,609d1224afa6945618b68f1f,001,2022-04-29_10h56.18.091,classification_task,2021.2.3,Win32,59.95922773,609d1224afa6945618b68f1f,626b377229c10585ec392f8a,626b3c4f6871a29d61042c9f,,,,,,,,,,,,,,,,,,,,,,,l,0,"[""0.195"",""0.442"",""0.757"",""0.932""]","[1,1,0,1]",0,3,3,3,1,0,0,,,0,FALSE,5.2544,,,,,,,,,,,,,,,,,,,,,,,,,,,,,,
,609d1224afa6945618b68f1f,001,2022-04-29_10h56.18.091,classification_task,2021.2.3,Win32,59.95922773,609d1224afa6945618b68f1f,626b377229c10585ec392f8a,626b3c4f6871a29d61042c9f,,,,,,,,,,,,,,,,,,,,,,,a,1,"[""0.757"",""0.536"",""0.853"",""0.890""]","[0,1,1,1]",0,4,4,4,1,0,1,,,0,FALSE,4.5082,,,,,,,,,,,,,,,,,,,,,,,,,,,,,,
,609d1224afa6945618b68f1f,001,2022-04-29_10h56.18.091,classification_task,2021.2.3,Win32,59.95922773,609d1224afa6945618b68f1f,626b377229c10585ec392f8a,626b3c4f6871a29d61042c9f,,,,,,,,,,,,,,,,,,,,,,,a,1,"[""0.250"",""0.536"",""0.853"",""0.579""]","[1,1,1,0]",0,5,5,5,1,0,1,,,0,FALSE,1.5244,,,,,,,,,,,,,,,,,,,,,,,,,,,,,,
,609d1224afa6945618b68f1f,001,2022-04-29_10h56.18.091,classification_task,2021.2.3,Win32,59.95922773,609d1224afa6945618b68f1f,626b377229c10585ec392f8a,626b3c4f6871a29d61042c9f,,,,,,,,,,,,,,,,,,,,,,,a,0,"[""0.148"",""0.353"",""0.764"",""0.699""]","[1,1,0,1]",0,6,6,6,1,1,1,,,0,FALSE,1.0357,,,,,,,,,,,,,,,,,,,,,,,,,,,,,,
,609d1224afa6945618b68f1f,001,2022-04-29_10h56.18.091,classification_task,2021.2.3,Win32,59.95922773,609d1224afa6945618b68f1f,626b377229c10585ec392f8a,626b3c4f6871a29d61042c9f,,,,,,,,,,,,,,,,,,,,,,,a,0,"[""0.577"",""0.407"",""0.482"",""0.804""]","[0,1,1,1]",0,7,7,7,1,1,0,,,0,FALSE,5.1411,,,,,,,,,,,,,,,,,,,,,,,,,,,,,,
,609d1224afa6945618b68f1f,001,2022-04-29_10h56.18.091,classification_task,2021.2.3,Win32,59.95922773,609d1224afa6945618b68f1f,626b377229c10585ec392f8a,626b3c4f6871a29d61042c9f,,,,,,,,,,,,,,,,,,,,,,,l,1,"[""0.764"",""0.353"",""0.659"",""0.699""]","[0,1,1,1]",0,8,8,8,1,1,1,,,0,FALSE,3.5037,,,,,,,,,,,,,,,,,,,,,,,,,,,,,,
,609d1224afa6945618b68f1f,001,2022-04-29_10h56.18.091,classification_task,2021.2.3,Win32,59.95922773,609d1224afa6945618b68f1f,626b377229c10585ec392f8a,626b3c4f6871a29d61042c9f,,,,,,,,,,,,,,,,,,,,,,,a,0,"[""0.148"",""0.353"",""0.659"",""0.590""]","[1,1,1,0]",0,9,9,9,1,1,1,,,0,FALSE,1.6612,,,,,,,,,,,,,,,,,,,,,,,,,,,,,,
,609d1224afa6945618b68f1f,001,2022-04-29_10h56.18.091,classification_task,2021.2.3,Win32,59.95922773,609d1224afa6945618b68f1f,626b377229c10585ec392f8a,626b3c4f6871a29d61042c9f,,,,,,,,,,,,,,,,,,,,,,,a,1,"[""0.738"",""0.442"",""0.624"",""0.932""]","[0,1,1,1]",0,10,10,10,1,0,0,,,0,FALSE,2.1309,,,,,,,,,,,,,,,,,,,,,,,,,,,,,,
,609d1224afa6945618b68f1f,001,2022-04-29_10h56.18.091,classification_task,2021.2.3,Win32,59.95922773,609d1224afa6945618b68f1f,626b377229c10585ec392f8a,626b3c4f6871a29d61042c9f,,,,,,,,,,,,,,,,,,,,,,,l,1,"[""0.044"",""0.407"",""0.738"",""0.804""]","[1,1,0,1]",0,11,11,11,1,1,0,,,0,FALSE,1.3566,,,,,,,,,,,,,,,,,,,,,,,,,,,,,,
,609d1224afa6945618b68f1f,001,2022-04-29_10h56.18.091,classification_task,2021.2.3,Win32,59.95922773,609d1224afa6945618b68f1f,626b377229c10585ec392f8a,626b3c4f6871a29d61042c9f,,,,,,,,,,,,,,,,,,,,,,,a,1,"[""0.195"",""0.765"",""0.624"",""0.932""]","[1,0,1,1]",0,12,12,12,1,0,0,,,0,FALSE,0.8297,,,,,,,,,,,,,,,,,,,,,,,,,,,,,,
,609d1224afa6945618b68f1f,001,2022-04-29_10h56.18.091,classification_task,2021.2.3,Win32,59.95922773,609d1224afa6945618b68f1f,626b377229c10585ec392f8a,626b3c4f6871a29d61042c9f,,,,,,,,,,,,,,,,,,,,,,,l,1,"[""0.148"",""0.765"",""0.659"",""0.699""]","[1,0,1,1]",0,13,13,13,1,1,1,,,0,FALSE,5.4481,,,,,,,,,,,,,,,,,,,,,,,,,,,,,,
,609d1224afa6945618b68f1f,001,2022-04-29_10h56.18.091,classification_task,2021.2.3,Win32,59.95922773,609d1224afa6945618b68f1f,626b377229c10585ec392f8a,626b3c4f6871a29d61042c9f,,,,,,,,,,,,,,,,,,,,,,,l,0,"[""0.195"",""0.442"",""0.624"",""0.762""]","[1,1,1,0]",0,14,14,14,1,0,0,,,0,FALSE,2.1372,,,,,,,,,,,,,,,,,,,,,,,,,,,,,,
,609d1224afa6945618b68f1f,001,2022-04-29_10h56.18.091,classification_task,2021.2.3,Win32,59.95922773,609d1224afa6945618b68f1f,626b377229c10585ec392f8a,626b3c4f6871a29d61042c9f,,,,,,,,,,,,,,,,,,,,,,,l,1,"[""0.044"",""0.407"",""0.482"",""0.287""]","[1,1,1,0]",0,15,15,15,1,1,0,,,0,FALSE,1.9368,,,,,,,,,,,,,,,,,,,,,,,,,,,,,,
,609d1224afa6945618b68f1f,001,2022-04-29_10h56.18.091,classification_task,2021.2.3,Win32,59.95922773,609d1224afa6945618b68f1f,626b377229c10585ec392f8a,626b3c4f6871a29d61042c9f,,,,,,,,,,,,,,,,,,,,,,,a,1,"[""0.195"",""0.442"",""0.624"",""0.590""]","[1,1,1,0]",0,16,16,16,1,0,0,,,0,FALSE,1.3953,,,,,,,,,,,,,,,,,,,,,,,,,,,,,,
,609d1224afa6945618b68f1f,001,2022-04-29_10h56.18.091,classification_task,2021.2.3,Win32,59.95922773,609d1224afa6945618b68f1f,626b377229c10585ec392f8a,626b3c4f6871a29d61042c9f,,,,,,,,,,,,,,,,,,,,,,,l,1,"[""0.738"",""0.407"",""0.482"",""0.804""]","[0,1,1,1]",0,17,17,17,1,1,0,,,0,FALSE,1.1447,,,,,,,,,,,,,,,,,,,,,,,,,,,,,,
,609d1224afa6945618b68f1f,001,2022-04-29_10h56.18.091,classification_task,2021.2.3,Win32,59.95922773,609d1224afa6945618b68f1f,626b377229c10585ec392f8a,626b3c4f6871a29d61042c9f,,,,,,,,,,,,,,,,,,,,,,,l,0,"[""0.195"",""0.442"",""0.738"",""0.932""]","[1,1,0,1]",0,18,18,18,1,0,0,,,0,FALSE,7.443,,,,,,,,,,,,,,,,,,,,,,,,,,,,,,
,609d1224afa6945618b68f1f,001,2022-04-29_10h56.18.091,classification_task,2021.2.3,Win32,59.95922773,609d1224afa6945618b68f1f,626b377229c10585ec392f8a,626b3c4f6871a29d61042c9f,,,,,,,,,,,,,,,,,,,,,,,l,1,"[""0.148"",""0.738"",""0.659"",""0.699""]","[1,0,1,1]",0,19,19,19,1,1,1,,,0,FALSE,2.516,,,,,,,,,,,,,,,,,,,,,,,,,,,,,,
,609d1224afa6945618b68f1f,001,2022-04-29_10h56.18.091,classification_task,2021.2.3,Win32,59.95922773,609d1224afa6945618b68f1f,626b377229c10585ec392f8a,626b3c4f6871a29d61042c9f,,,,,,,,,,,,,,,,,,,,,,,a,1,"[""0.250"",""0.738"",""0.853"",""0.890""]","[1,0,1,1]",0,20,20,20,1,0,1,,,0,FALSE,3.0712,,,,,,,,,,,,,,,,,,,,,,,,,,,,,,
,609d1224afa6945618b68f1f,001,2022-04-29_10h56.18.091,classification_task,2021.2.3,Win32,59.95922773,609d1224afa6945618b68f1f,626b377229c10585ec392f8a,626b3c4f6871a29d61042c9f,,,,,,,,,,,,,,,,,,,,,,,a,1,"[""0.287"",""0.536"",""0.853"",""0.890""]","[0,1,1,1]",0,21,21,21,1,0,1,,,0,FALSE,1.0643,,,,,,,,,,,,,,,,,,,,,,,,,,,,,,
,609d1224afa6945618b68f1f,001,2022-04-29_10h56.18.091,classification_task,2021.2.3,Win32,59.95922773,609d1224afa6945618b68f1f,626b377229c10585ec392f8a,626b3c4f6871a29d61042c9f,,,,,,,,,,,,,,,,,,,,,,,l,0,"[""0.195"",""0.739"",""0.624"",""0.932""]","[1,0,1,1]",0,22,22,22,1,0,0,,,0,FALSE,2.478,,,,,,,,,,,,,,,,,,,,,,,,,,,,,,
,609d1224afa6945618b68f1f,001,2022-04-29_10h56.18.091,classification_task,2021.2.3,Win32,59.95922773,609d1224afa6945618b68f1f,626b377229c10585ec392f8a,626b3c4f6871a29d61042c9f,,,,,,,,,,,,,,,,,,,,,,,a,0,"[""0.148"",""0.353"",""0.587"",""0.699""]","[1,1,0,1]",0,23,23,23,1,1,1,,,0,FALSE,3.5295,,,,,,,,,,,,,,,,,,,,,,,,,,,,,,
,609d1224afa6945618b68f1f,001,2022-04-29_10h56.18.091,classification_task,2021.2.3,Win32,59.95922773,609d1224afa6945618b68f1f,626b377229c10585ec392f8a,626b3c4f6871a29d61042c9f,,,,,,,,,,,,,,,,,,,,,,,l,0,"[""0.250"",""0.536"",""0.577"",""0.890""]","[1,1,0,1]",0,24,24,24,1,0,1,,,0,FALSE,3.8812,,,,,,,,,,,,,,,,,,,,,,,,,,,,,,
,609d1224afa6945618b68f1f,001,2022-04-29_10h56.18.091,classification_task,2021.2.3,Win32,59.95922773,609d1224afa6945618b68f1f,626b377229c10585ec392f8a,626b3c4f6871a29d61042c9f,,,,,,,,,,,,,,,,,,,,,,,a,0,"[""0.044"",""0.407"",""0.762"",""0.804""]","[1,1,0,1]",0,25,25,25,1,1,0,,,0,FALSE,0.8539,,,,,,,,,,,,,,,,,,,,,,,,,,,,,,
,609d1224afa6945618b68f1f,001,2022-04-29_10h56.18.091,classification_task,2021.2.3,Win32,59.95922773,609d1224afa6945618b68f1f,626b377229c10585ec392f8a,626b3c4f6871a29d61042c9f,,,,,,,,,,,,,,,,,,,,,,,a,1,"[""0.739"",""0.442"",""0.624"",""0.932""]","[0,1,1,1]",0,26,26,26,1,0,0,,,0,FALSE,0.9391,,,,,,,,,,,,,,,,,,,,,,,,,,,,,,
,609d1224afa6945618b68f1f,001,2022-04-29_10h56.18.091,classification_task,2021.2.3,Win32,59.95922773,609d1224afa6945618b68f1f,626b377229c10585ec392f8a,626b3c4f6871a29d61042c9f,,,,,,,,,,,,,,,,,,,,,,,l,1,"[""0.148"",""0.353"",""0.659"",""0.577""]","[1,1,1,0]",0,27,27,27,1,1,1,,,0,FALSE,3.9125,,,,,,,,,,,,,,,,,,,,,,,,,,,,,,
,609d1224afa6945618b68f1f,001,2022-04-29_10h56.18.091,classification_task,2021.2.3,Win32,59.95922773,609d1224afa6945618b68f1f,626b377229c10585ec392f8a,626b3c4f6871a29d61042c9f,,,,,,,,,,,,,,,,,,,,,,,l,1,"[""0.738"",""0.353"",""0.659"",""0.699""]","[0,1,1,1]",0,28,28,28,1,1,1,,,0,FALSE,1.8442,,,,,,,,,,,,,,,,,,,,,,,,,,,,,,
,609d1224afa6945618b68f1f,001,2022-04-29_10h56.18.091,classification_task,2021.2.3,Win32,59.95922773,609d1224afa6945618b68f1f,626b377229c10585ec392f8a,626b3c4f6871a29d61042c9f,,,,,,,,,,,,,,,,,,,,,,,l,1,"[""0.044"",""0.407"",""0.482"",""0.765""]","[1,1,1,0]",0,29,29,29,1,1,0,,,0,FALSE,1.5834,,,,,,,,,,,,,,,,,,,,,,,,,,,,,,
,609d1224afa6945618b68f1f,001,2022-04-29_10h56.18.091,classification_task,2021.2.3,Win32,59.95922773,609d1224afa6945618b68f1f,626b377229c10585ec392f8a,626b3c4f6871a29d61042c9f,,,,,,,,,,,,,,,,,,,,,,,a,1,"[""0.250"",""0.536"",""0.853"",""0.313""]","[1,1,1,0]",0,30,30,30,1,0,1,,,0,FALSE,3.4125,,,,,,,,,,,,,,,,,,,,,,,,,,,,,,
,609d1224afa6945618b68f1f,001,2022-04-29_10h56.18.091,classification_task,2021.2.3,Win32,59.95922773,609d1224afa6945618b68f1f,626b377229c10585ec392f8a,626b3c4f6871a29d61042c9f,,,,,,,,,,,,,,,,,,,,,,,l,1,"[""0.044"",""0.764"",""0.482"",""0.804""]","[1,0,1,1]",0,31,31,31,1,1,0,,,0,FALSE,1.3659,,,,,,,,,,,,,,,,,,,,,,,,,,,,,,
,609d1224afa6945618b68f1f,001,2022-04-29_10h56.18.091,classification_task,2021.2.3,Win32,59.95922773,609d1224afa6945618b68f1f,626b377229c10585ec392f8a,626b3c4f6871a29d61042c9f,,,,,,,,,,,,,,,,,,,,,,,l,1,"[""0.044"",""0.098"",""0.482"",""0.804""]","[1,0,1,1]",0,32,32,32,1,1,0,,,0,FALSE,5.3912,,,,,,,,,,,,,,,,,,,,,,,,,,,,,,
,609d1224afa6945618b68f1f,001,2022-04-29_10h56.18.091,classification_task,2021.2.3,Win32,59.95922773,609d1224afa6945618b68f1f,626b377229c10585ec392f8a,626b3c4f6871a29d61042c9f,,,,,,,,,,,,,,,,,,,,,,,l,0,"[""0.579"",""0.536"",""0.853"",""0.890""]","[0,1,1,1]",0,33,33,33,1,0,1,,,0,FALSE,2.0842,,,,,,,,,,,,,,,,,,,,,,,,,,,,,,
,609d1224afa6945618b68f1f,001,2022-04-29_10h56.18.091,classification_task,2021.2.3,Win32,59.95922773,609d1224afa6945618b68f1f,626b377229c10585ec392f8a,626b3c4f6871a29d61042c9f,,,,,,,,,,,,,,,,,,,,,,,a,1,"[""0.195"",""0.442"",""0.624"",""0.287""]","[1,1,1,0]",0,34,34,34,1,0,0,,,0,FALSE,2.113,,,,,,,,,,,,,,,,,,,,,,,,,,,,,,
,609d1224afa6945618b68f1f,001,2022-04-29_10h56.18.091,classification_task,2021.2.3,Win32,59.95922773,609d1224afa6945618b68f1f,626b377229c10585ec392f8a,626b3c4f6871a29d61042c9f,,,,,,,,,,,,,,,,,,,,,,,l,1,"[""0.313"",""0.407"",""0.482"",""0.804""]","[0,1,1,1]",0,35,35,35,1,1,0,,,0,FALSE,2.6709,,,,,,,,,,,,,,,,,,,,,,,,,,,,,,
,609d1224afa6945618b68f1f,001,2022-04-29_10h56.18.091,classification_task,2021.2.3,Win32,59.95922773,609d1224afa6945618b68f1f,626b377229c10585ec392f8a,626b3c4f6871a29d61042c9f,,,,,,,,,,,,,,,,,,,,,,,l,1,"[""0.148"",""0.353"",""0.764"",""0.699""]","[1,1,0,1]",0,36,36,36,1,1,1,,,0,FALSE,4.2021,,,,,,,,,,,,,,,,,,,,,,,,,,,,,,
,609d1224afa6945618b68f1f,001,2022-04-29_10h56.18.091,classification_task,2021.2.3,Win32,59.95922773,609d1224afa6945618b68f1f,626b377229c10585ec392f8a,626b3c4f6871a29d61042c9f,,,,,,,,,,,,,,,,,,,,,,,l,0,"[""0.250"",""0.536"",""0.853"",""0.577""]","[1,1,1,0]",0,37,37,37,1,0,1,,,0,FALSE,1.6423,,,,,,,,,,,,,,,,,,,,,,,,,,,,,,
,609d1224afa6945618b68f1f,001,2022-04-29_10h56.18.091,classification_task,2021.2.3,Win32,59.95922773,609d1224afa6945618b68f1f,626b377229c10585ec392f8a,626b3c4f6871a29d61042c9f,,,,,,,,,,,,,,,,,,,,,,,a,0,"[""0.148"",""0.353"",""0.659"",""0.764""]","[1,1,1,0]",0,38,38,38,1,1,1,,,0,FALSE,2.5953,,,,,,,,,,,,,,,,,,,,,,,,,,,,,,
,609d1224afa6945618b68f1f,001,2022-04-29_10h56.18.091,classification_task,2021.2.3,Win32,59.95922773,609d1224afa6945618b68f1f,626b377229c10585ec392f8a,626b3c4f6871a29d61042c9f,,,,,,,,,,,,,,,,,,,,,,,a,1,"[""0.287"",""0.442"",""0.624"",""0.932""]","[0,1,1,1]",0,39,39,39,1,0,0,,,0,FALSE,3.1164,,,,,,,,,,,,,,,,,,,,,,,,,,,,,,
,609d1224afa6945618b68f1f,001,2022-04-29_10h56.18.091,classification_task,2021.2.3,Win32,59.95922773,609d1224afa6945618b68f1f,626b377229c10585ec392f8a,626b3c4f6871a29d61042c9f,,,,,,,,,,,,,,,,,,,,,,,a,1,"[""0.195"",""0.442"",""0.765"",""0.932""]","[1,1,0,1]",0,40,40,40,1,0,0,,,0,FALSE,2.2924,,,,,,,,,,,,,,,,,,,,,,,,,,,,,,
,609d1224afa6945618b68f1f,001,2022-04-29_10h56.18.091,classification_task,2021.2.3,Win32,59.95922773,609d1224afa6945618b68f1f,626b377229c10585ec392f8a,626b3c4f6871a29d61042c9f,,,,,,,,,,,,,,,,,,,,,,,l,1,"[""0.044"",""0.407"",""0.482"",""0.587""]","[1,1,1,0]",0,41,41,41,1,1,0,,,0,FALSE,3.4218,,,,,,,,,,,,,,,,,,,,,,,,,,,,,,
,609d1224afa6945618b68f1f,001,2022-04-29_10h56.18.091,classification_task,2021.2.3,Win32,59.95922773,609d1224afa6945618b68f1f,626b377229c10585ec392f8a,626b3c4f6871a29d61042c9f,,,,,,,,,,,,,,,,,,,,,,,l,1,"[""0.044"",""0.407"",""0.757"",""0.804""]","[1,1,0,1]",0,42,42,42,1,1,0,,,0,FALSE,5.2624,,,,,,,,,,,,,,,,,,,,,,,,,,,,,,
,609d1224afa6945618b68f1f,001,2022-04-29_10h56.18.091,classification_task,2021.2.3,Win32,59.95922773,609d1224afa6945618b68f1f,626b377229c10585ec392f8a,626b3c4f6871a29d61042c9f,,,,,,,,,,,,,,,,,,,,,,,a,1,"[""0.250"",""0.590"",""0.853"",""0.890""]","[1,0,1,1]",0,43,43,43,1,0,1,,,0,FALSE,1.9125,,,,,,,,,,,,,,,,,,,,,,,,,,,,,,
,609d1224afa6945618b68f1f,001,2022-04-29_10h56.18.091,classification_task,2021.2.3,Win32,59.95922773,609d1224afa6945618b68f1f,626b377229c10585ec392f8a,626b3c4f6871a29d61042c9f,,,,,,,,,,,,,,,,,,,,,,,a,1,"[""0.195"",""0.579"",""0.624"",""0.932""]","[1,0,1,1]",0,44,44,44,1,0,0,,,0,FALSE,3.0703,,,,,,,,,,,,,,,,,,,,,,,,,,,,,,
,609d1224afa6945618b68f1f,001,2022-04-29_10h56.18.091,classification_task,2021.2.3,Win32,59.95922773,609d1224afa6945618b68f1f,626b377229c10585ec392f8a,626b3c4f6871a29d61042c9f,,,,,,,,,,,,,,,,,,,,,,,a,1,"[""0.250"",""0.536"",""0.738"",""0.890""]","[1,1,0,1]",0,45,45,45,1,0,1,,,0,FALSE,3.5958,,,,,,,,,,,,,,,,,,,,,,,,,,,,,,
,609d1224afa6945618b68f1f,001,2022-04-29_10h56.18.091,classification_task,2021.2.3,Win32,59.95922773,609d1224afa6945618b68f1f,626b377229c10585ec392f8a,626b3c4f6871a29d61042c9f,,,,,,,,,,,,,,,,,,,,,,,l,1,"[""0.739"",""0.353"",""0.659"",""0.699""]","[0,1,1,1]",0,46,46,46,1,1,1,,,0,FALSE,2.8247,,,,,,,,,,,,,,,,,,,,,,,,,,,,,,
,609d1224afa6945618b68f1f,001,2022-04-29_10h56.18.091,classification_task,2021.2.3,Win32,59.95922773,609d1224afa6945618b68f1f,626b377229c10585ec392f8a,626b3c4f6871a29d61042c9f,,,,,,,,,,,,,,,,,,,,,,,a,0,"[""0.148"",""0.577"",""0.659"",""0.699""]","[1,0,1,1]",0,47,47,47,1,1,1,,,0,FALSE,3.5288,,,,,,,,,,,,,,,,,,,,,,,,,,,,,,
,609d1224afa6945618b68f1f,001,2022-04-29_10h56.18.091,classification_task,2021.2.3,Win32,59.95922773,609d1224afa6945618b68f1f,626b377229c10585ec392f8a,626b3c4f6871a29d61042c9f,,,,,,,,,,,,,,,,,,,,,,,l,0,"[""0.250"",""0.536"",""0.853"",""0.287""]","[1,1,1,0]",0,48,48,48,1,0,1,,,0,FALSE,4.707,,,,,,,,,,,,,,,,,,,,,,,,,,,,,,
,609d1224afa6945618b68f1f,001,2022-04-29_10h56.18.091,classification_task,2021.2.3,Win32,59.95922773,609d1224afa6945618b68f1f,626b377229c10585ec392f8a,626b3c4f6871a29d61042c9f,,,,,,,,,,,,,,,,,,,,,,,a,1,"[""0.195"",""0.287"",""0.624"",""0.932""]","[1,0,1,1]",0,49,49,49,1,0,0,,,0,FALSE,3.2865,,,,,,,,,,,,,,,,,,,,,,,,,,,,,,
,609d1224afa6945618b68f1f,001,2022-04-29_10h56.18.091,classification_task,2021.2.3,Win32,59.95922773,609d1224afa6945618b68f1f,626b377229c10585ec392f8a,626b3c4f6871a29d61042c9f,,,,,,,,,,,,,,,,,,,,,,,a,1,"[""0.195"",""0.442"",""0.624"",""0.590""]","[1,1,1,0]",0,50,50,50,1,0,0,,,0,FALSE,1.0792,,,,,,,,,,,,,,,,,,,,,,,,,,,,,,
,609d1224afa6945618b68f1f,001,2022-04-29_10h56.18.091,classification_task,2021.2.3,Win32,59.95922773,609d1224afa6945618b68f1f,626b377229c10585ec392f8a,626b3c4f6871a29d61042c9f,,,,,,,,,,,,,,,,,,,,,,,a,0,"[""0.148"",""0.353"",""0.587"",""0.699""]","[1,1,0,1]",0,51,51,51,1,1,1,,,0,FALSE,6.4956,,,,,,,,,,,,,,,,,,,,,,,,,,,,,,
,609d1224afa6945618b68f1f,001,2022-04-29_10h56.18.091,classification_task,2021.2.3,Win32,59.95922773,609d1224afa6945618b68f1f,626b377229c10585ec392f8a,626b3c4f6871a29d61042c9f,,,,,,,,,,,,,,,,,,,,,,,a,1,"[""0.250"",""0.536"",""0.738"",""0.890""]","[1,1,0,1]",0,52,52,52,1,0,1,,,0,FALSE,2.0078,,,,,,,,,,,,,,,,,,,,,,,,,,,,,,
,609d1224afa6945618b68f1f,001,2022-04-29_10h56.18.091,classification_task,2021.2.3,Win32,59.95922773,609d1224afa6945618b68f1f,626b377229c10585ec392f8a,626b3c4f6871a29d61042c9f,,,,,,,,,,,,,,,,,,,,,,,a,1,"[""0.195"",""0.442"",""0.738"",""0.932""]","[1,1,0,1]",0,53,53,53,1,0,0,,,0,FALSE,3.8089,,,,,,,,,,,,,,,,,,,,,,,,,,,,,,
,609d1224afa6945618b68f1f,001,2022-04-29_10h56.18.091,classification_task,2021.2.3,Win32,59.95922773,609d1224afa6945618b68f1f,626b377229c10585ec392f8a,626b3c4f6871a29d61042c9f,,,,,,,,,,,,,,,,,,,,,,,l,1,"[""0.148"",""0.749"",""0.659"",""0.699""]","[1,0,1,1]",0,54,54,54,1,1,1,,,0,FALSE,3.4137,,,,,,,,,,,,,,,,,,,,,,,,,,,,,,
,609d1224afa6945618b68f1f,001,2022-04-29_10h56.18.091,classification_task,2021.2.3,Win32,59.95922773,609d1224afa6945618b68f1f,626b377229c10585ec392f8a,626b3c4f6871a29d61042c9f,,,,,,,,,,,,,,,,,,,,,,,l,0,"[""0.250"",""0.762"",""0.853"",""0.890""]","[1,0,1,1]",0,55,55,55,1,0,1,,,0,FALSE,3.7809,,,,,,,,,,,,,,,,,,,,,,,,,,,,,,
,609d1224afa6945618b68f1f,001,2022-04-29_10h56.18.091,classification_task,2021.2.3,Win32,59.95922773,609d1224afa6945618b68f1f,626b377229c10585ec392f8a,626b3c4f6871a29d61042c9f,,,,,,,,,,,,,,,,,,,,,,,l,1,"[""0.044"",""0.407"",""0.749"",""0.804""]","[1,1,0,1]",0,56,56,56,1,1,0,,,0,FALSE,1.831,,,,,,,,,,,,,,,,,,,,,,,,,,,,,,
,609d1224afa6945618b68f1f,001,2022-04-29_10h56.18.091,classification_task,2021.2.3,Win32,59.95922773,609d1224afa6945618b68f1f,626b377229c10585ec392f8a,626b3c4f6871a29d61042c9f,,,,,,,,,,,,,,,,,,,,,,,l,1,"[""0.287"",""0.407"",""0.482"",""0.804""]","[0,1,1,1]",0,57,57,57,1,1,0,,,0,FALSE,0.7634,,,,,,,,,,,,,,,,,,,,,,,,,,,,,,
,609d1224afa6945618b68f1f,001,2022-04-29_10h56.18.091,classification_task,2021.2.3,Win32,59.95922773,609d1224afa6945618b68f1f,626b377229c10585ec392f8a,626b3c4f6871a29d61042c9f,,,,,,,,,,,,,,,,,,,,,,,a,0,"[""0.579"",""0.353"",""0.659"",""0.699""]","[0,1,1,1]",0,58,58,58,1,1,1,,,0,FALSE,4.6018,,,,,,,,,,,,,,,,,,,,,,,,,,,,,,
,609d1224afa6945618b68f1f,001,2022-04-29_10h56.18.091,classification_task,2021.2.3,Win32,59.95922773,609d1224afa6945618b68f1f,626b377229c10585ec392f8a,626b3c4f6871a29d61042c9f,,,,,,,,,,,,,,,,,,,,,,,a,1,"[""0.098"",""0.442"",""0.624"",""0.932""]","[0,1,1,1]",0,59,59,59,1,0,0,,,0,FALSE,3.2133,,,,,,,,,,,,,,,,,,,,,,,,,,,,,,
,609d1224afa6945618b68f1f,001,2022-04-29_10h56.18.091,classification_task,2021.2.3,Win32,59.95922773,609d1224afa6945618b68f1f,626b377229c10585ec392f8a,626b3c4f6871a29d61042c9f,,,,,,,,,,,,,,,,,,,,,,,l,1,"[""0.044"",""0.407"",""0.482"",""0.762""]","[1,1,1,0]",0,60,60,60,1,1,0,,,0,FALSE,2.2674,,,,,,,,,,,,,,,,,,,,,,,,,,,,,,
,609d1224afa6945618b68f1f,001,2022-04-29_10h56.18.091,classification_task,2021.2.3,Win32,59.95922773,609d1224afa6945618b68f1f,626b377229c10585ec392f8a,626b3c4f6871a29d61042c9f,,,,,,,,,,,,,,,,,,,,,,,l,1,"[""0.148"",""0.353"",""0.659"",""0.738""]","[1,1,1,0]",0,61,61,61,1,1,1,,,0,FALSE,4.6044,,,,,,,,,,,,,,,,,,,,,,,,,,,,,,
,609d1224afa6945618b68f1f,001,2022-04-29_10h56.18.091,classification_task,2021.2.3,Win32,59.95922773,609d1224afa6945618b68f1f,626b377229c10585ec392f8a,626b3c4f6871a29d61042c9f,,,,,,,,,,,,,,,,,,,,,,,l,1,"[""0.044"",""0.762"",""0.482"",""0.804""]","[1,0,1,1]",0,62,62,62,1,1,0,,,0,FALSE,2.8262,,,,,,,,,,,,,,,,,,,,,,,,,,,,,,
,609d1224afa6945618b68f1f,001,2022-04-29_10h56.18.091,classification_task,2021.2.3,Win32,59.95922773,609d1224afa6945618b68f1f,626b377229c10585ec392f8a,626b3c4f6871a29d61042c9f,,,,,,,,,,,,,,,,,,,,,,,a,1,"[""0.287"",""0.536"",""0.853"",""0.890""]","[0,1,1,1]",0,63,63,63,1,0,1,,,0,FALSE,2.1769,,,,,,,,,,,,,,,,,,,,,,,,,,,,,,
,609d1224afa6945618b68f1f,001,2022-04-29_10h56.18.091,classification_task,2021.2.3,Win32,59.95922773,609d1224afa6945618b68f1f,626b377229c10585ec392f8a,626b3c4f6871a29d61042c9f,,,,,,,,,,,,,,,,,,,,,,,,,,,,,,,,,,,,,,,0, ,,0,3.036541005,319.0969,0,1,1,1,1,2,2,,,,,,,,,,,,,,,,,
,609d1224afa6945618b68f1f,001,2022-04-29_10h56.18.091,classification_task,2021.2.3,Win32,59.95922773,609d1224afa6945618b68f1f,626b377229c10585ec392f8a,626b3c4f6871a29d61042c9f,,,,,,,,,,,,,,,,,,,,,,,,,,,,,,,,,,,,,,,1,  ,,0,5.482253086,326.917,0,1,1,1,1,2,2,,,,,,,,,,,,,,,,,
,609d1224afa6945618b68f1f,001,2022-04-29_10h56.18.091,classification_task,2021.2.3,Win32,59.95922773,609d1224afa6945618b68f1f,626b377229c10585ec392f8a,626b3c4f6871a29d61042c9f,,,,,,,,,,,,,,,,,,,,,,,,,,,,,,,,,,,,,,,2,  ,,0,2.933201058,331.4166,0,1,1,1,1,2,2,,,,,,,,,,,,,,,,,
,609d1224afa6945618b68f1f,001,2022-04-29_10h56.18.091,classification_task,2021.2.3,Win32,59.95922773,609d1224afa6945618b68f1f,626b377229c10585ec392f8a,626b3c4f6871a29d61042c9f,,,,,,,,,,,,,,,,,,,,,,,,,,,,,,,,,,,,,,,,,,,,,0,1,1,1,1,,2,,,,,,,,,,,,,,,,,
,609d1224afa6945618b68f1f,001,2022-04-29_10h56.18.091,classification_task,2021.2.3,Win32,59.95922773,609d1224afa6945618b68f1f,626b377229c10585ec392f8a,626b3c4f6871a29d61042c9f,,,,,,,,,,,,,,,,,,,,,space,14.6936,a,1,"[""0.195"",""0.442"",""0.624"",""0.287""]","[1,1,1,0]",0,0,0,0,1,0,0,,,0,FALSE,3.977,,,,,,,,,,,,,,,,,,,,,,,,,,,,,,
,609d1224afa6945618b68f1f,001,2022-04-29_10h56.18.091,classification_task,2021.2.3,Win32,59.95922773,609d1224afa6945618b68f1f,626b377229c10585ec392f8a,626b3c4f6871a29d61042c9f,,,,,,,,,,,,,,,,,,,,,,,l,1,"[""0.738"",""0.353"",""0.659"",""0.699""]","[0,1,1,1]",0,1,1,1,1,1,1,,,0,FALSE,2.3851,,,,,,,,,,,,,,,,,,,,,,,,,,,,,,
,609d1224afa6945618b68f1f,001,2022-04-29_10h56.18.091,classification_task,2021.2.3,Win32,59.95922773,609d1224afa6945618b68f1f,626b377229c10585ec392f8a,626b3c4f6871a29d61042c9f,,,,,,,,,,,,,,,,,,,,,,,l,1,"[""0.044"",""0.738"",""0.482"",""0.804""]","[1,0,1,1]",0,2,2,2,1,1,0,,,0,FALSE,4.6392,,,,,,,,,,,,,,,,,,,,,,,,,,,,,,
,609d1224afa6945618b68f1f,001,2022-04-29_10h56.18.091,classification_task,2021.2.3,Win32,59.95922773,609d1224afa6945618b68f1f,626b377229c10585ec392f8a,626b3c4f6871a29d61042c9f,,,,,,,,,,,,,,,,,,,,,,,a,0,"[""0.738"",""0.407"",""0.482"",""0.804""]","[0,1,1,1]",0,3,3,3,1,1,0,,,0,FALSE,4.1441,,,,,,,,,,,,,,,,,,,,,,,,,,,,,,
,609d1224afa6945618b68f1f,001,2022-04-29_10h56.18.091,classification_task,2021.2.3,Win32,59.95922773,609d1224afa6945618b68f1f,626b377229c10585ec392f8a,626b3c4f6871a29d61042c9f,,,,,,,,,,,,,,,,,,,,,,,l,0,"[""0.765"",""0.442"",""0.624"",""0.932""]","[0,1,1,1]",0,4,4,4,1,0,0,,,0,FALSE,7.8653,,,,,,,,,,,,,,,,,,,,,,,,,,,,,,
,609d1224afa6945618b68f1f,001,2022-04-29_10h56.18.091,classification_task,2021.2.3,Win32,59.95922773,609d1224afa6945618b68f1f,626b377229c10585ec392f8a,626b3c4f6871a29d61042c9f,,,,,,,,,,,,,,,,,,,,,,,a,1,"[""0.250"",""0.536"",""0.590"",""0.890""]","[1,1,0,1]",0,5,5,5,1,0,1,,,0,FALSE,3.0091,,,,,,,,,,,,,,,,,,,,,,,,,,,,,,
,609d1224afa6945618b68f1f,001,2022-04-29_10h56.18.091,classification_task,2021.2.3,Win32,59.95922773,609d1224afa6945618b68f1f,626b377229c10585ec392f8a,626b3c4f6871a29d61042c9f,,,,,,,,,,,,,,,,,,,,,,,l,1,"[""0.148"",""0.287"",""0.659"",""0.699""]","[1,0,1,1]",0,6,6,6,1,1,1,,,0,FALSE,3.3467,,,,,,,,,,,,,,,,,,,,,,,,,,,,,,
,609d1224afa6945618b68f1f,001,2022-04-29_10h56.18.091,classification_task,2021.2.3,Win32,59.95922773,609d1224afa6945618b68f1f,626b377229c10585ec392f8a,626b3c4f6871a29d61042c9f,,,,,,,,,,,,,,,,,,,,,,,l,1,"[""0.148"",""0.353"",""0.098"",""0.699""]","[1,1,0,1]",0,7,7,7,1,1,1,,,0,FALSE,3.8601,,,,,,,,,,,,,,,,,,,,,,,,,,,,,,
,609d1224afa6945618b68f1f,001,2022-04-29_10h56.18.091,classification_task,2021.2.3,Win32,59.95922773,609d1224afa6945618b68f1f,626b377229c10585ec392f8a,626b3c4f6871a29d61042c9f,,,,,,,,,,,,,,,,,,,,,,,a,1,"[""0.250"",""0.287"",""0.853"",""0.890""]","[1,0,1,1]",0,8,8,8,1,0,1,,,0,FALSE,1.6966,,,,,,,,,,,,,,,,,,,,,,,,,,,,,,
,609d1224afa6945618b68f1f,001,2022-04-29_10h56.18.091,classification_task,2021.2.3,Win32,59.95922773,609d1224afa6945618b68f1f,626b377229c10585ec392f8a,626b3c4f6871a29d61042c9f,,,,,,,,,,,,,,,,,,,,,,,a,1,"[""0.195"",""0.442"",""0.587"",""0.932""]","[1,1,0,1]",0,9,9,9,1,0,0,,,0,FALSE,3.9322,,,,,,,,,,,,,,,,,,,,,,,,,,,,,,
,609d1224afa6945618b68f1f,001,2022-04-29_10h56.18.091,classification_task,2021.2.3,Win32,59.95922773,609d1224afa6945618b68f1f,626b377229c10585ec392f8a,626b3c4f6871a29d61042c9f,,,,,,,,,,,,,,,,,,,,,,,l,0,"[""0.250"",""0.536"",""0.853"",""0.757""]","[1,1,1,0]",0,10,10,10,1,0,1,,,0,FALSE,1.8123,,,,,,,,,,,,,,,,,,,,,,,,,,,,,,
,609d1224afa6945618b68f1f,001,2022-04-29_10h56.18.091,classification_task,2021.2.3,Win32,59.95922773,609d1224afa6945618b68f1f,626b377229c10585ec392f8a,626b3c4f6871a29d61042c9f,,,,,,,,,,,,,,,,,,,,,,,l,1,"[""0.044"",""0.407"",""0.482"",""0.579""]","[1,1,1,0]",0,11,11,11,1,1,0,,,0,FALSE,3.0394,,,,,,,,,,,,,,,,,,,,,,,,,,,,,,
,609d1224afa6945618b68f1f,001,2022-04-29_10h56.18.091,classification_task,2021.2.3,Win32,59.95922773,609d1224afa6945618b68f1f,626b377229c10585ec392f8a,626b3c4f6871a29d61042c9f,,,,,,,,,,,,,,,,,,,,,,,a,0,"[""0.148"",""0.353"",""0.659"",""0.579""]","[1,1,1,0]",0,12,12,12,1,1,1,,,0,FALSE,4.199,,,,,,,,,,,,,,,,,,,,,,,,,,,,,,
,609d1224afa6945618b68f1f,001,2022-04-29_10h56.18.091,classification_task,2021.2.3,Win32,59.95922773,609d1224afa6945618b68f1f,626b377229c10585ec392f8a,626b3c4f6871a29d61042c9f,,,,,,,,,,,,,,,,,,,,,,,a,1,"[""0.757"",""0.536"",""0.853"",""0.890""]","[0,1,1,1]",0,13,13,13,1,0,1,,,0,FALSE,2.1088,,,,,,,,,,,,,,,,,,,,,,,,,,,,,,
,609d1224afa6945618b68f1f,001,2022-04-29_10h56.18.091,classification_task,2021.2.3,Win32,59.95922773,609d1224afa6945618b68f1f,626b377229c10585ec392f8a,626b3c4f6871a29d61042c9f,,,,,,,,,,,,,,,,,,,,,,,a,0,"[""0.044"",""0.407"",""0.749"",""0.804""]","[1,1,0,1]",0,14,14,14,1,1,0,,,0,FALSE,4.2722,,,,,,,,,,,,,,,,,,,,,,,,,,,,,,
,609d1224afa6945618b68f1f,001,2022-04-29_10h56.18.091,classification_task,2021.2.3,Win32,59.95922773,609d1224afa6945618b68f1f,626b377229c10585ec392f8a,626b3c4f6871a29d61042c9f,,,,,,,,,,,,,,,,,,,,,,,l,0,"[""0.195"",""0.098"",""0.624"",""0.932""]","[1,0,1,1]",0,15,15,15,1,0,0,,,0,FALSE,4.2813,,,,,,,,,,,,,,,,,,,,,,,,,,,,,,
,609d1224afa6945618b68f1f,001,2022-04-29_10h56.18.091,classification_task,2021.2.3,Win32,59.95922773,609d1224afa6945618b68f1f,626b377229c10585ec392f8a,626b3c4f6871a29d61042c9f,,,,,,,,,,,,,,,,,,,,,,,a,1,"[""0.749"",""0.536"",""0.853"",""0.890""]","[0,1,1,1]",0,16,16,16,1,0,1,,,0,FALSE,2.4847,,,,,,,,,,,,,,,,,,,,,,,,,,,,,,
,609d1224afa6945618b68f1f,001,2022-04-29_10h56.18.091,classification_task,2021.2.3,Win32,59.95922773,609d1224afa6945618b68f1f,626b377229c10585ec392f8a,626b3c4f6871a29d61042c9f,,,,,,,,,,,,,,,,,,,,,,,a,0,"[""0.044"",""0.407"",""0.579"",""0.804""]","[1,1,0,1]",0,17,17,17,1,1,0,,,0,FALSE,2.1545,,,,,,,,,,,,,,,,,,,,,,,,,,,,,,
,609d1224afa6945618b68f1f,001,2022-04-29_10h56.18.091,classification_task,2021.2.3,Win32,59.95922773,609d1224afa6945618b68f1f,626b377229c10585ec392f8a,626b3c4f6871a29d61042c9f,,,,,,,,,,,,,,,,,,,,,,,l,0,"[""0.739"",""0.442"",""0.624"",""0.932""]","[0,1,1,1]",0,18,18,18,1,0,0,,,0,FALSE,9.2233,,,,,,,,,,,,,,,,,,,,,,,,,,,,,,
,609d1224afa6945618b68f1f,001,2022-04-29_10h56.18.091,classification_task,2021.2.3,Win32,59.95922773,609d1224afa6945618b68f1f,626b377229c10585ec392f8a,626b3c4f6871a29d61042c9f,,,,,,,,,,,,,,,,,,,,,,,l,1,"[""0.148"",""0.749"",""0.659"",""0.699""]","[1,0,1,1]",0,19,19,19,1,1,1,,,0,FALSE,6.0717,,,,,,,,,,,,,,,,,,,,,,,,,,,,,,
,609d1224afa6945618b68f1f,001,2022-04-29_10h56.18.091,classification_task,2021.2.3,Win32,59.95922773,609d1224afa6945618b68f1f,626b377229c10585ec392f8a,626b3c4f6871a29d61042c9f,,,,,,,,,,,,,,,,,,,,,,,l,1,"[""0.044"",""0.407"",""0.482"",""0.098""]","[1,1,1,0]",0,20,20,20,1,1,0,,,0,FALSE,2.9444,,,,,,,,,,,,,,,,,,,,,,,,,,,,,,
,609d1224afa6945618b68f1f,001,2022-04-29_10h56.18.091,classification_task,2021.2.3,Win32,59.95922773,609d1224afa6945618b68f1f,626b377229c10585ec392f8a,626b3c4f6871a29d61042c9f,,,,,,,,,,,,,,,,,,,,,,,a,0,"[""0.757"",""0.353"",""0.659"",""0.699""]","[0,1,1,1]",0,21,21,21,1,1,1,,,0,FALSE,5.8883,,,,,,,,,,,,,,,,,,,,,,,,,,,,,,
,609d1224afa6945618b68f1f,001,2022-04-29_10h56.18.091,classification_task,2021.2.3,Win32,59.95922773,609d1224afa6945618b68f1f,626b377229c10585ec392f8a,626b3c4f6871a29d61042c9f,,,,,,,,,,,,,,,,,,,,,,,l,0,"[""0.195"",""0.442"",""0.624"",""0.738""]","[1,1,1,0]",0,22,22,22,1,0,0,,,0,FALSE,4.2614,,,,,,,,,,,,,,,,,,,,,,,,,,,,,,
,609d1224afa6945618b68f1f,001,2022-04-29_10h56.18.091,classification_task,2021.2.3,Win32,59.95922773,609d1224afa6945618b68f1f,626b377229c10585ec392f8a,626b3c4f6871a29d61042c9f,,,,,,,,,,,,,,,,,,,,,,,a,1,"[""0.250"",""0.590"",""0.853"",""0.890""]","[1,0,1,1]",0,23,23,23,1,0,1,,,0,FALSE,1.547,,,,,,,,,,,,,,,,,,,,,,,,,,,,,,
,609d1224afa6945618b68f1f,001,2022-04-29_10h56.18.091,classification_task,2021.2.3,Win32,59.95922773,609d1224afa6945618b68f1f,626b377229c10585ec392f8a,626b3c4f6871a29d61042c9f,,,,,,,,,,,,,,,,,,,,,,,l,0,"[""0.195"",""0.442"",""0.765"",""0.932""]","[1,1,0,1]",0,24,24,24,1,0,0,,,0,FALSE,3.2199,,,,,,,,,,,,,,,,,,,,,,,,,,,,,,
,609d1224afa6945618b68f1f,001,2022-04-29_10h56.18.091,classification_task,2021.2.3,Win32,59.95922773,609d1224afa6945618b68f1f,626b377229c10585ec392f8a,626b3c4f6871a29d61042c9f,,,,,,,,,,,,,,,,,,,,,,,l,1,"[""0.148"",""0.353"",""0.749"",""0.699""]","[1,1,0,1]",0,25,25,25,1,1,1,,,0,FALSE,2.0883,,,,,,,,,,,,,,,,,,,,,,,,,,,,,,
,609d1224afa6945618b68f1f,001,2022-04-29_10h56.18.091,classification_task,2021.2.3,Win32,59.95922773,609d1224afa6945618b68f1f,626b377229c10585ec392f8a,626b3c4f6871a29d61042c9f,,,,,,,,,,,,,,,,,,,,,,,l,0,"[""0.195"",""0.739"",""0.624"",""0.932""]","[1,0,1,1]",0,26,26,26,1,0,0,,,0,FALSE,2.3339,,,,,,,,,,,,,,,,,,,,,,,,,,,,,,
,609d1224afa6945618b68f1f,001,2022-04-29_10h56.18.091,classification_task,2021.2.3,Win32,59.95922773,609d1224afa6945618b68f1f,626b377229c10585ec392f8a,626b3c4f6871a29d61042c9f,,,,,,,,,,,,,,,,,,,,,,,a,1,"[""0.250"",""0.536"",""0.738"",""0.890""]","[1,1,0,1]",0,27,27,27,1,0,1,,,0,FALSE,3.6968,,,,,,,,,,,,,,,,,,,,,,,,,,,,,,
,609d1224afa6945618b68f1f,001,2022-04-29_10h56.18.091,classification_task,2021.2.3,Win32,59.95922773,609d1224afa6945618b68f1f,626b377229c10585ec392f8a,626b3c4f6871a29d61042c9f,,,,,,,,,,,,,,,,,,,,,,,a,0,"[""0.749"",""0.407"",""0.482"",""0.804""]","[0,1,1,1]",0,28,28,28,1,1,0,,,0,FALSE,1.9859,,,,,,,,,,,,,,,,,,,,,,,,,,,,,,
,609d1224afa6945618b68f1f,001,2022-04-29_10h56.18.091,classification_task,2021.2.3,Win32,59.95922773,609d1224afa6945618b68f1f,626b377229c10585ec392f8a,626b3c4f6871a29d61042c9f,,,,,,,,,,,,,,,,,,,,,,,l,1,"[""0.044"",""0.287"",""0.482"",""0.804""]","[1,0,1,1]",0,29,29,29,1,1,0,,,0,FALSE,9.1877,,,,,,,,,,,,,,,,,,,,,,,,,,,,,,
,609d1224afa6945618b68f1f,001,2022-04-29_10h56.18.091,classification_task,2021.2.3,Win32,59.95922773,609d1224afa6945618b68f1f,626b377229c10585ec392f8a,626b3c4f6871a29d61042c9f,,,,,,,,,,,,,,,,,,,,,,,l,0,"[""0.250"",""0.536"",""0.853"",""0.287""]","[1,1,1,0]",0,30,30,30,1,0,1,,,0,FALSE,2.0712,,,,,,,,,,,,,,,,,,,,,,,,,,,,,,
,609d1224afa6945618b68f1f,001,2022-04-29_10h56.18.091,classification_task,2021.2.3,Win32,59.95922773,609d1224afa6945618b68f1f,626b377229c10585ec392f8a,626b3c4f6871a29d61042c9f,,,,,,,,,,,,,,,,,,,,,,,a,0,"[""0.148"",""0.353"",""0.659"",""0.287""]","[1,1,1,0]",0,31,31,31,1,1,1,,,0,FALSE,4.235,,,,,,,,,,,,,,,,,,,,,,,,,,,,,,
,609d1224afa6945618b68f1f,001,2022-04-29_10h56.18.091,classification_task,2021.2.3,Win32,59.95922773,609d1224afa6945618b68f1f,626b377229c10585ec392f8a,626b3c4f6871a29d61042c9f,,,,,,,,,,,,,,,,,,,,,,,l,0,"[""0.739"",""0.442"",""0.624"",""0.932""]","[0,1,1,1]",0,32,32,32,1,0,0,,,0,FALSE,4.4614,,,,,,,,,,,,,,,,,,,,,,,,,,,,,,
,609d1224afa6945618b68f1f,001,2022-04-29_10h56.18.091,classification_task,2021.2.3,Win32,59.95922773,609d1224afa6945618b68f1f,626b377229c10585ec392f8a,626b3c4f6871a29d61042c9f,,,,,,,,,,,,,,,,,,,,,,,a,0,"[""0.590"",""0.353"",""0.659"",""0.699""]","[0,1,1,1]",0,33,33,33,1,1,1,,,0,FALSE,2.0885,,,,,,,,,,,,,,,,,,,,,,,,,,,,,,
,609d1224afa6945618b68f1f,001,2022-04-29_10h56.18.091,classification_task,2021.2.3,Win32,59.95922773,609d1224afa6945618b68f1f,626b377229c10585ec392f8a,626b3c4f6871a29d61042c9f,,,,,,,,,,,,,,,,,,,,,,,l,0,"[""0.250"",""0.536"",""0.853"",""0.579""]","[1,1,1,0]",0,34,34,34,1,0,1,,,0,FALSE,1.5835,,,,,,,,,,,,,,,,,,,,,,,,,,,,,,
,609d1224afa6945618b68f1f,001,2022-04-29_10h56.18.091,classification_task,2021.2.3,Win32,59.95922773,609d1224afa6945618b68f1f,626b377229c10585ec392f8a,626b3c4f6871a29d61042c9f,,,,,,,,,,,,,,,,,,,,,,,l,0,"[""0.195"",""0.764"",""0.624"",""0.932""]","[1,0,1,1]",0,35,35,35,1,0,0,,,0,FALSE,4.5288,,,,,,,,,,,,,,,,,,,,,,,,,,,,,,
,609d1224afa6945618b68f1f,001,2022-04-29_10h56.18.091,classification_task,2021.2.3,Win32,59.95922773,609d1224afa6945618b68f1f,626b377229c10585ec392f8a,626b3c4f6871a29d61042c9f,,,,,,,,,,,,,,,,,,,,,,,a,0,"[""0.148"",""0.353"",""0.659"",""0.579""]","[1,1,1,0]",0,36,36,36,1,1,1,,,0,FALSE,4.5299,,,,,,,,,,,,,,,,,,,,,,,,,,,,,,
,609d1224afa6945618b68f1f,001,2022-04-29_10h56.18.091,classification_task,2021.2.3,Win32,59.95922773,609d1224afa6945618b68f1f,626b377229c10585ec392f8a,626b3c4f6871a29d61042c9f,,,,,,,,,,,,,,,,,,,,,,,a,0,"[""0.739"",""0.407"",""0.482"",""0.804""]","[0,1,1,1]",0,37,37,37,1,1,0,,,0,FALSE,1.2312,,,,,,,,,,,,,,,,,,,,,,,,,,,,,,
,609d1224afa6945618b68f1f,001,2022-04-29_10h56.18.091,classification_task,2021.2.3,Win32,59.95922773,609d1224afa6945618b68f1f,626b377229c10585ec392f8a,626b3c4f6871a29d61042c9f,,,,,,,,,,,,,,,,,,,,,,,a,0,"[""0.148"",""0.287"",""0.659"",""0.699""]","[1,0,1,1]",0,38,38,38,1,1,1,,,0,FALSE,3.0412,,,,,,,,,,,,,,,,,,,,,,,,,,,,,,
,609d1224afa6945618b68f1f,001,2022-04-29_10h56.18.091,classification_task,2021.2.3,Win32,59.95922773,609d1224afa6945618b68f1f,626b377229c10585ec392f8a,626b3c4f6871a29d61042c9f,,,,,,,,,,,,,,,,,,,,,,,l,1,"[""0.148"",""0.353"",""0.577"",""0.699""]","[1,1,0,1]",0,39,39,39,1,1,1,,,0,FALSE,6.8718,,,,,,,,,,,,,,,,,,,,,,,,,,,,,,
,609d1224afa6945618b68f1f,001,2022-04-29_10h56.18.091,classification_task,2021.2.3,Win32,59.95922773,609d1224afa6945618b68f1f,626b377229c10585ec392f8a,626b3c4f6871a29d61042c9f,,,,,,,,,,,,,,,,,,,,,,,l,1,"[""0.044"",""0.765"",""0.482"",""0.804""]","[1,0,1,1]",0,40,40,40,1,1,0,,,0,FALSE,4.3256,,,,,,,,,,,,,,,,,,,,,,,,,,,,,,
,609d1224afa6945618b68f1f,001,2022-04-29_10h56.18.091,classification_task,2021.2.3,Win32,59.95922773,609d1224afa6945618b68f1f,626b377229c10585ec392f8a,626b3c4f6871a29d61042c9f,,,,,,,,,,,,,,,,,,,,,,,a,1,"[""0.738"",""0.536"",""0.853"",""0.890""]","[0,1,1,1]",0,41,41,41,1,0,1,,,0,FALSE,2.8829,,,,,,,,,,,,,,,,,,,,,,,,,,,,,,
,609d1224afa6945618b68f1f,001,2022-04-29_10h56.18.091,classification_task,2021.2.3,Win32,59.95922773,609d1224afa6945618b68f1f,626b377229c10585ec392f8a,626b3c4f6871a29d61042c9f,,,,,,,,,,,,,,,,,,,,,,,a,1,"[""0.195"",""0.442"",""0.738"",""0.932""]","[1,1,0,1]",0,42,42,42,1,0,0,,,0,FALSE,2.4693,,,,,,,,,,,,,,,,,,,,,,,,,,,,,,
,609d1224afa6945618b68f1f,001,2022-04-29_10h56.18.091,classification_task,2021.2.3,Win32,59.95922773,609d1224afa6945618b68f1f,626b377229c10585ec392f8a,626b3c4f6871a29d61042c9f,,,,,,,,,,,,,,,,,,,,,,,a,1,"[""0.250"",""0.536"",""0.287"",""0.890""]","[1,1,0,1]",0,43,43,43,1,0,1,,,0,FALSE,2.4428,,,,,,,,,,,,,,,,,,,,,,,,,,,,,,
,609d1224afa6945618b68f1f,001,2022-04-29_10h56.18.091,classification_task,2021.2.3,Win32,59.95922773,609d1224afa6945618b68f1f,626b377229c10585ec392f8a,626b3c4f6871a29d61042c9f,,,,,,,,,,,,,,,,,,,,,,,l,1,"[""0.044"",""0.407"",""0.482"",""0.749""]","[1,1,1,0]",0,44,44,44,1,1,0,,,0,FALSE,7.4381,,,,,,,,,,,,,,,,,,,,,,,,,,,,,,
,609d1224afa6945618b68f1f,001,2022-04-29_10h56.18.091,classification_task,2021.2.3,Win32,59.95922773,609d1224afa6945618b68f1f,626b377229c10585ec392f8a,626b3c4f6871a29d61042c9f,,,,,,,,,,,,,,,,,,,,,,,a,1,"[""0.195"",""0.442"",""0.624"",""0.757""]","[1,1,1,0]",0,45,45,45,1,0,0,,,0,FALSE,4.9252,,,,,,,,,,,,,,,,,,,,,,,,,,,,,,
,609d1224afa6945618b68f1f,001,2022-04-29_10h56.18.091,classification_task,2021.2.3,Win32,59.95922773,609d1224afa6945618b68f1f,626b377229c10585ec392f8a,626b3c4f6871a29d61042c9f,,,,,,,,,,,,,,,,,,,,,,,a,0,"[""0.044"",""0.407"",""0.287"",""0.804""]","[1,1,0,1]",0,46,46,46,1,1,0,,,0,FALSE,3.1668,,,,,,,,,,,,,,,,,,,,,,,,,,,,,,
,609d1224afa6945618b68f1f,001,2022-04-29_10h56.18.091,classification_task,2021.2.3,Win32,59.95922773,609d1224afa6945618b68f1f,626b377229c10585ec392f8a,626b3c4f6871a29d61042c9f,,,,,,,,,,,,,,,,,,,,,,,a,1,"[""0.250"",""0.577"",""0.853"",""0.890""]","[1,0,1,1]",0,47,47,47,1,0,1,,,0,FALSE,2.1669,,,,,,,,,,,,,,,,,,,,,,,,,,,,,,
,609d1224afa6945618b68f1f,001,2022-04-29_10h56.18.091,classification_task,2021.2.3,Win32,59.95922773,609d1224afa6945618b68f1f,626b377229c10585ec392f8a,626b3c4f6871a29d61042c9f,,,,,,,,,,,,,,,,,,,,,,,l,0,"[""0.195"",""0.442"",""0.738"",""0.932""]","[1,1,0,1]",0,48,48,48,1,0,0,,,0,FALSE,2.5304,,,,,,,,,,,,,,,,,,,,,,,,,,,,,,
,609d1224afa6945618b68f1f,001,2022-04-29_10h56.18.091,classification_task,2021.2.3,Win32,59.95922773,609d1224afa6945618b68f1f,626b377229c10585ec392f8a,626b3c4f6871a29d61042c9f,,,,,,,,,,,,,,,,,,,,,,,a,1,"[""0.195"",""0.442"",""0.624"",""0.765""]","[1,1,1,0]",0,49,49,49,1,0,0,,,0,FALSE,4.1016,,,,,,,,,,,,,,,,,,,,,,,,,,,,,,
,609d1224afa6945618b68f1f,001,2022-04-29_10h56.18.091,classification_task,2021.2.3,Win32,59.95922773,609d1224afa6945618b68f1f,626b377229c10585ec392f8a,626b3c4f6871a29d61042c9f,,,,,,,,,,,,,,,,,,,,,,,l,1,"[""0.148"",""0.353"",""0.659"",""0.765""]","[1,1,1,0]",0,50,50,50,1,1,1,,,0,FALSE,2.0772,,,,,,,,,,,,,,,,,,,,,,,,,,,,,,
,609d1224afa6945618b68f1f,001,2022-04-29_10h56.18.091,classification_task,2021.2.3,Win32,59.95922773,609d1224afa6945618b68f1f,626b377229c10585ec392f8a,626b3c4f6871a29d61042c9f,,,,,,,,,,,,,,,,,,,,,,,l,0,"[""0.195"",""0.757"",""0.624"",""0.932""]","[1,0,1,1]",0,51,51,51,1,0,0,,,0,FALSE,3.0452,,,,,,,,,,,,,,,,,,,,,,,,,,,,,,
,609d1224afa6945618b68f1f,001,2022-04-29_10h56.18.091,classification_task,2021.2.3,Win32,59.95922773,609d1224afa6945618b68f1f,626b377229c10585ec392f8a,626b3c4f6871a29d61042c9f,,,,,,,,,,,,,,,,,,,,,,,,0,"[""0.757"",""0.442"",""0.624"",""0.932""]","[0,1,1,1]",0,52,52,52,1,0,0,,,0,FALSE,,,,,,,,,,,,,,,,,,,,,,,,,,,,,,,
,609d1224afa6945618b68f1f,001,2022-04-29_10h56.18.091,classification_task,2021.2.3,Win32,59.95922773,609d1224afa6945618b68f1f,626b377229c10585ec392f8a,626b3c4f6871a29d61042c9f,,,,,,,,,,,,,,,,,,,,,,,l,1,"[""0.044"",""0.407"",""0.749"",""0.804""]","[1,1,0,1]",0,53,53,53,1,1,0,,,0,FALSE,4.7063,,,,,,,,,,,,,,,,,,,,,,,,,,,,,,
,609d1224afa6945618b68f1f,001,2022-04-29_10h56.18.091,classification_task,2021.2.3,Win32,59.95922773,609d1224afa6945618b68f1f,626b377229c10585ec392f8a,626b3c4f6871a29d61042c9f,,,,,,,,,,,,,,,,,,,,,,,l,1,"[""0.148"",""0.353"",""0.579"",""0.699""]","[1,1,0,1]",0,54,54,54,1,1,1,,,0,FALSE,3.4419,,,,,,,,,,,,,,,,,,,,,,,,,,,,,,
,609d1224afa6945618b68f1f,001,2022-04-29_10h56.18.091,classification_task,2021.2.3,Win32,59.95922773,609d1224afa6945618b68f1f,626b377229c10585ec392f8a,626b3c4f6871a29d61042c9f,,,,,,,,,,,,,,,,,,,,,,,a,1,"[""0.250"",""0.579"",""0.853"",""0.890""]","[1,0,1,1]",0,55,55,55,1,0,1,,,0,FALSE,1.9018,,,,,,,,,,,,,,,,,,,,,,,,,,,,,,
,609d1224afa6945618b68f1f,001,2022-04-29_10h56.18.091,classification_task,2021.2.3,Win32,59.95922773,609d1224afa6945618b68f1f,626b377229c10585ec392f8a,626b3c4f6871a29d61042c9f,,,,,,,,,,,,,,,,,,,,,,,l,0,"[""0.250"",""0.536"",""0.853"",""0.764""]","[1,1,1,0]",0,56,56,56,1,0,1,,,0,FALSE,1.5558,,,,,,,,,,,,,,,,,,,,,,,,,,,,,,
,609d1224afa6945618b68f1f,001,2022-04-29_10h56.18.091,classification_task,2021.2.3,Win32,59.95922773,609d1224afa6945618b68f1f,626b377229c10585ec392f8a,626b3c4f6871a29d61042c9f,,,,,,,,,,,,,,,,,,,,,,,a,1,"[""0.738"",""0.536"",""0.853"",""0.890""]","[0,1,1,1]",0,57,57,57,1,0,1,,,0,FALSE,1.3802,,,,,,,,,,,,,,,,,,,,,,,,,,,,,,
,609d1224afa6945618b68f1f,001,2022-04-29_10h56.18.091,classification_task,2021.2.3,Win32,59.95922773,609d1224afa6945618b68f1f,626b377229c10585ec392f8a,626b3c4f6871a29d61042c9f,,,,,,,,,,,,,,,,,,,,,,,l,1,"[""0.757"",""0.407"",""0.482"",""0.804""]","[0,1,1,1]",0,58,58,58,1,1,0,,,0,FALSE,4.265,,,,,,,,,,,,,,,,,,,,,,,,,,,,,,
,609d1224afa6945618b68f1f,001,2022-04-29_10h56.18.091,classification_task,2021.2.3,Win32,59.95922773,609d1224afa6945618b68f1f,626b377229c10585ec392f8a,626b3c4f6871a29d61042c9f,,,,,,,,,,,,,,,,,,,,,,,a,0,"[""0.148"",""0.577"",""0.659"",""0.699""]","[1,0,1,1]",0,59,59,59,1,1,1,,,0,FALSE,2.6732,,,,,,,,,,,,,,,,,,,,,,,,,,,,,,
,609d1224afa6945618b68f1f,001,2022-04-29_10h56.18.091,classification_task,2021.2.3,Win32,59.95922773,609d1224afa6945618b68f1f,626b377229c10585ec392f8a,626b3c4f6871a29d61042c9f,,,,,,,,,,,,,,,,,,,,,,,a,1,"[""0.250"",""0.536"",""0.749"",""0.890""]","[1,1,0,1]",0,60,60,60,1,0,1,,,0,FALSE,1.4511,,,,,,,,,,,,,,,,,,,,,,,,,,,,,,
,609d1224afa6945618b68f1f,001,2022-04-29_10h56.18.091,classification_task,2021.2.3,Win32,59.95922773,609d1224afa6945618b68f1f,626b377229c10585ec392f8a,626b3c4f6871a29d61042c9f,,,,,,,,,,,,,,,,,,,,,,,l,1,"[""0.044"",""0.749"",""0.482"",""0.804""]","[1,0,1,1]",0,61,61,61,1,1,0,,,0,FALSE,6.129,,,,,,,,,,,,,,,,,,,,,,,,,,,,,,
,609d1224afa6945618b68f1f,001,2022-04-29_10h56.18.091,classification_task,2021.2.3,Win32,59.95922773,609d1224afa6945618b68f1f,626b377229c10585ec392f8a,626b3c4f6871a29d61042c9f,,,,,,,,,,,,,,,,,,,,,,,l,1,"[""0.577"",""0.353"",""0.659"",""0.699""]","[0,1,1,1]",0,62,62,62,1,1,1,,,0,FALSE,7.276,,,,,,,,,,,,,,,,,,,,,,,,,,,,,,
,609d1224afa6945618b68f1f,001,2022-04-29_10h56.18.091,classification_task,2021.2.3,Win32,59.95922773,609d1224afa6945618b68f1f,626b377229c10585ec392f8a,626b3c4f6871a29d61042c9f,,,,,,,,,,,,,,,,,,,,,,,a,0,"[""0.044"",""0.407"",""0.482"",""0.590""]","[1,1,1,0]",0,63,63,63,1,1,0,,,0,FALSE,2.6401,,,,,,,,,,,,,,,,,,,,,,,,,,,,,,
,609d1224afa6945618b68f1f,001,2022-04-29_10h56.18.091,classification_task,2021.2.3,Win32,59.95922773,609d1224afa6945618b68f1f,626b377229c10585ec392f8a,626b3c4f6871a29d61042c9f,,,,,,,,,,,,,,,,,,,,,,,,,,,,,,,,,,,,,,,0, ,,0,8.134645062,340.3726,0,2,2,2,1,2,3,,,,,,,,,,,,,,,,,
,609d1224afa6945618b68f1f,001,2022-04-29_10h56.18.091,classification_task,2021.2.3,Win32,59.95922773,609d1224afa6945618b68f1f,626b377229c10585ec392f8a,626b3c4f6871a29d61042c9f,,,,,,,,,,,,,,,,,,,,,,,,,,,,,,,,,,,,,,,1,  ,,0,9.305831129,347.5365,0,2,2,2,1,2,3,,,,,,,,,,,,,,,,,
,609d1224afa6945618b68f1f,001,2022-04-29_10h56.18.091,classification_task,2021.2.3,Win32,59.95922773,609d1224afa6945618b68f1f,626b377229c10585ec392f8a,626b3c4f6871a29d61042c9f,,,,,,,,,,,,,,,,,,,,,,,,,,,,,,,,,,,,,,,2,  ,,0,10,349.6404,0,2,2,2,1,2,3,,,,,,,,,,,,,,,,,
,609d1224afa6945618b68f1f,001,2022-04-29_10h56.18.091,classification_task,2021.2.3,Win32,59.95922773,609d1224afa6945618b68f1f,626b377229c10585ec392f8a,626b3c4f6871a29d61042c9f,,,,,,,,,,,,,,,,,,,,,,,,,,,,,,,,,,,,,,,,,,,,,0,2,2,2,1,,3,,,,,,,,,,,,,,,,,
,609d1224afa6945618b68f1f,001,2022-04-29_10h56.18.091,classification_task,2021.2.3,Win32,59.95922773,609d1224afa6945618b68f1f,626b377229c10585ec392f8a,626b3c4f6871a29d61042c9f,,,,,,,,,,,,,,,,,,,,,,,,,,,,,,,,,,,,,,,,,,,,,,,,,,,,,I believe the aid is a competent performer,,0.7,0,2,1509.8318,0,0,0,0,1,0,,,,
,609d1224afa6945618b68f1f,001,2022-04-29_10h56.18.091,classification_task,2021.2.3,Win32,59.95922773,609d1224afa6945618b68f1f,626b377229c10585ec392f8a,626b3c4f6871a29d61042c9f,,,,,,,,,,,,,,,,,,,,,,,,,,,,,,,,,,,,,,,,,,,,,,,,,,,,,I trust the aid,,0.7,0,4,1518.7413,0,0,0,0,1,0,,,,
,609d1224afa6945618b68f1f,001,2022-04-29_10h56.18.091,classification_task,2021.2.3,Win32,59.95922773,609d1224afa6945618b68f1f,626b377229c10585ec392f8a,626b3c4f6871a29d61042c9f,,,,,,,,,,,,,,,,,,,,,,,,,,,,,,,,,,,,,,,,,,,,,,,,,,,,,I have confidence in the advice given by the aid,,0.7,0,4,1519.8866,0,0,0,0,1,0,,,,
,609d1224afa6945618b68f1f,001,2022-04-29_10h56.18.091,classification_task,2021.2.3,Win32,59.95922773,609d1224afa6945618b68f1f,626b377229c10585ec392f8a,626b3c4f6871a29d61042c9f,,,,,,,,,,,,,,,,,,,,,,,,,,,,,,,,,,,,,,,,,,,,,,,,,,,,,I can depend on the aid,,0.7,0,3,1523.0457,0,0,0,0,1,0,,,,
,609d1224afa6945618b68f1f,001,2022-04-29_10h56.18.091,classification_task,2021.2.3,Win32,59.95922773,609d1224afa6945618b68f1f,626b377229c10585ec392f8a,626b3c4f6871a29d61042c9f,,,,,,,,,,,,,,,,,,,,,,,,,,,,,,,,,,,,,,,,,,,,,,,,,,,,,I can rely on the aid to behave in consistent ways,,0.7,0,5,1527.8576,0,0,0,0,1,0,,,,
,609d1224afa6945618b68f1f,001,2022-04-29_10h56.18.091,classification_task,2021.2.3,Win32,59.95922773,609d1224afa6945618b68f1f,626b377229c10585ec392f8a,626b3c4f6871a29d61042c9f,,,,,,,,,,,,,,,,,,,,,,,,,,,,,,,,,,,,,,,,,,,,,,,,,,,,,I can rely on the aid to do its best every time I take its advice,,0.7,0,3,1533.3644,0,0,0,0,1,0,,,,
,609d1224afa6945618b68f1f,001,2022-04-29_10h56.18.091,classification_task,2021.2.3,Win32,59.95922773,609d1224afa6945618b68f1f,626b377229c10585ec392f8a,626b3c4f6871a29d61042c9f,,,,,,,,,,,,,,,,,,,,,,,,,,,,,,,,,,,,,,,,,,,,,,,,,,,,,"On trials you completed with assistance from the aid, how frequently did you think the aid was correct?",,0.7,0,100,,0,0,0,0,1,0,,,,
,609d1224afa6945618b68f1f,001,2022-04-29_10h56.18.091,classification_task,2021.2.3,Win32,59.95922773,609d1224afa6945618b68f1f,626b377229c10585ec392f8a,626b3c4f6871a29d61042c9f,,,,,,,,,,,,,,,,,,,,,,,,,,,,,,,,,,,,,,,,,,,,,,,,,,,,,"On trials you completed without the aid, how frequently did you think you were correct?",,0.7,0,60,,0,0,0,0,1,0,,,,
,609d1224afa6945618b68f1f,001,2022-04-29_10h56.18.091,classification_task,2021.2.3,Win32,59.95922773,609d1224afa6945618b68f1f,626b377229c10585ec392f8a,626b3c4f6871a29d61042c9f,,,,,,,,,,,,,,,,,,,,,,,,,,,,,,,,,,,,,,,,,,,,,,,,,,,,,,,,,,,0,0,0,0,1,,,,,
,609d1224afa6945618b68f1f,001,2022-04-29_10h56.18.091,classification_task,2021.2.3,Win32,59.95922773,609d1224afa6945618b68f1f,626b377229c10585ec392f8a,626b3c4f6871a29d61042c9f,,,,,,,,,,,,,,,,,,,,,,,,,,,,,,,,,,,,,,,,,,,,,,,,,,,,,,,,,,,,,,,,,space,15.3088,1578.8418,
,609d1224afa6945618b68f1f,001,2022-04-29_10h56.18.091,classification_task,2021.2.3,Win32,59.95922773,609d1224afa6945618b68f1f,626b377229c10585ec392f8a,626b3c4f6871a29d61042c9f,,,,,,,,,,,,,,,,,,,,,,,,,,,,,,,,,,,,,,,,,,,,,,,,,,,,,,,,,,,,,,,,,,,,"Mozilla/5.0 (Windows NT 10.0; Win64; x64) AppleWebKit/537.36 (KHTML, like Gecko) Chrome/100.0.4896.127 Safari/537.36"
