usingWebGL,participant,session,date,expName,psychopyVersion,OS,frameRate,study_id,signatures_friend,signatures_foe,band_ranges_top,band_ranges_bottom,formitemText,formtype,formundefined,formitemWidth,formindex,formresponse,formrt,key_resp_2.keys,key_resp_2.rt,tute_resp.keys,tute_resp.rt,tutorial.thisRepN,tutorial.thisTrialN,tutorial.thisN,tutorial.thisIndex,tutorial.ran,key_resp_4.keys,key_resp_4.rt,key_resp.keys,key_resp.corr,lines_presented,is_signal_presented,trials.thisRepN,trials.thisTrialN,trials.thisN,trials.thisIndex,trials.ran,vessel,active_band,lines,is_signal,supported_pos,catch_trial,key_resp.rt,debrief_formindex,debrief_formitemText,debrief_formtype,debrief_formitemWidth,debrief_formresponse,debrief_formrt,phases.thisRepN,phases.thisTrialN,phases.thisN,phases.thisIndex,phases.ran,phases.order,phase,key_resp_3.keys,trustitemText,trusttype,trustitemWidth,trustindex,trustresponse,trustrt,support_status.thisRepN,support_status.thisTrialN,support_status.thisN,support_status.thisIndex,support_status.ran,support_status.order,key_resp_5.keys,key_resp_5.rt,globalClockTime,userAgent,manualCondition
TRUE,60a2dc206ce94a429c60a885,627c67727295dc7c19c43c7f,2022-05-11_20h49.01.135,classification_task,2021.2.3,Win32,59.95922773,627c6715c52fd12f31907bcf,,,,,,,,,,,,,,,,,,,,,,,,,,,,,,,,,,,,,,,,,,,,,,,,,,,,,,,,,,,,,,,,,,,,,
,60a2dc206ce94a429c60a885,627c67727295dc7c19c43c7f,2022-05-11_20h49.01.135,classification_task,2021.2.3,Win32,59.95922773,627c6715c52fd12f31907bcf,"[[""0.199"",""0.342"",""0.870"",""0.951""],[""0.294"",""0.381"",""0.836"",""0.915""]]","[[""0.089"",""0.422"",""0.612"",""0.738""],[""0.146"",""0.261"",""0.548"",""0.686""]]","[1,10]","[100,1000]",Video game experience,,,0.7,0,,,,,,,,,,,,,,,,,,,,,,,,,,,,,,,,,,,,,,,,,,,,,,,,,,,,,,,,,,,,
,60a2dc206ce94a429c60a885,627c67727295dc7c19c43c7f,2022-05-11_20h49.01.135,classification_task,2021.2.3,Win32,59.95922773,627c6715c52fd12f31907bcf,,,,,Approximately how many hours did you spend playing video games in the last week?,,,0.7,0,18,,,,,,,,,,,,,,,,,,,,,,,,,,,,,,,,,,,,,,,,,,,,,,,,,,,,,,,,,,,
,60a2dc206ce94a429c60a885,627c67727295dc7c19c43c7f,2022-05-11_20h49.01.135,classification_task,2021.2.3,Win32,59.95922773,627c6715c52fd12f31907bcf,,,,,"Which game did you play the most this year? (Enter ""None"" if you didn't play any)",,,0.7,0,Fire Emblem,,,,,,,,,,,,,,,,,,,,,,,,,,,,,,,,,,,,,,,,,,,,,,,,,,,,,,,,,,,
,60a2dc206ce94a429c60a885,627c67727295dc7c19c43c7f,2022-05-11_20h49.01.135,classification_task,2021.2.3,Win32,59.95922773,627c6715c52fd12f31907bcf,,,,,Visual perception,,,0.7,0,,,,,,,,,,,,,,,,,,,,,,,,,,,,,,,,,,,,,,,,,,,,,,,,,,,,,,,,,,,,
,60a2dc206ce94a429c60a885,627c67727295dc7c19c43c7f,2022-05-11_20h49.01.135,classification_task,2021.2.3,Win32,59.95922773,627c6715c52fd12f31907bcf,,,,,Do you have any form of color blindness?,,,0.7,0,No,67.7908,,,,,,,,,,,,,,,,,,,,,,,,,,,,,,,,,,,,,,,,,,,,,,,,,,,,,,,,,,
,60a2dc206ce94a429c60a885,627c67727295dc7c19c43c7f,2022-05-11_20h49.01.135,classification_task,2021.2.3,Win32,59.95922773,627c6715c52fd12f31907bcf,,,,,Do you use software to change the colour temperature of your screen (e.g. f.lux)?,,,0.7,0,No,69.8883,,,,,,,,,,,,,,,,,,,,,,,,,,,,,,,,,,,,,,,,,,,,,,,,,,,,,,,,,,
,60a2dc206ce94a429c60a885,627c67727295dc7c19c43c7f,2022-05-11_20h49.01.135,classification_task,2021.2.3,Win32,59.95922773,627c6715c52fd12f31907bcf,,,,,,,,,,,,space,27.8329,space,7.5515,0,0,0,0,1,,,,,,,,,,,,,,,,,,,,,,,,,,,,,,,,,,,,,,,,,,,,,,,,,
,60a2dc206ce94a429c60a885,627c67727295dc7c19c43c7f,2022-05-11_20h49.01.135,classification_task,2021.2.3,Win32,59.95922773,627c6715c52fd12f31907bcf,,,,,,,,,,,,,,space,26.0039,1,0,1,0,1,,,,,,,,,,,,,,,,,,,,,,,,,,,,,,,,,,,,,,,,,,,,,,,,,
,60a2dc206ce94a429c60a885,627c67727295dc7c19c43c7f,2022-05-11_20h49.01.135,classification_task,2021.2.3,Win32,59.95922773,627c6715c52fd12f31907bcf,,,,,,,,,,,,,,space,27.1328,2,0,2,0,1,,,,,,,,,,,,,,,,,,,,,,,,,,,,,,,,,,,,,,,,,,,,,,,,,
,60a2dc206ce94a429c60a885,627c67727295dc7c19c43c7f,2022-05-11_20h49.01.135,classification_task,2021.2.3,Win32,59.95922773,627c6715c52fd12f31907bcf,,,,,,,,,,,,,,space,5.6061,3,0,3,0,1,,,,,,,,,,,,,,,,,,,,,,,,,,,,,,,,,,,,,,,,,,,,,,,,,
,60a2dc206ce94a429c60a885,627c67727295dc7c19c43c7f,2022-05-11_20h49.01.135,classification_task,2021.2.3,Win32,59.95922773,627c6715c52fd12f31907bcf,,,,,,,,,,,,,,space,20.9319,4,0,4,0,1,,,,,,,,,,,,,,,,,,,,,,,,,,,,,,,,,,,,,,,,,,,,,,,,,
,60a2dc206ce94a429c60a885,627c67727295dc7c19c43c7f,2022-05-11_20h49.01.135,classification_task,2021.2.3,Win32,59.95922773,627c6715c52fd12f31907bcf,,,,,,,,,,,,,,,,,,,,,space,26.0227,,0,"[""0.467"",""0.342"",""0.870"",""0.951""]","[0,1,1,1]",0,0,0,0,1,0,0,,,1,FALSE,,,,,,,,,,,,,,,,,,,,,,,,,,,,,,,,
,60a2dc206ce94a429c60a885,627c67727295dc7c19c43c7f,2022-05-11_20h49.01.135,classification_task,2021.2.3,Win32,59.95922773,627c6715c52fd12f31907bcf,,,,,,,,,,,,,,,,,,,,,,,l,1,"[""0.497"",""0.261"",""0.548"",""0.686""]","[0,1,1,1]",0,1,1,1,1,1,1,,,1,FALSE,8.3328,,,,,,,,,,,,,,,,,,,,,,,,,,,,,,,
,60a2dc206ce94a429c60a885,627c67727295dc7c19c43c7f,2022-05-11_20h49.01.135,classification_task,2021.2.3,Win32,59.95922773,627c6715c52fd12f31907bcf,,,,,,,,,,,,,,,,,,,,,,,l,1,"[""0.089"",""0.512"",""0.612"",""0.738""]","[1,0,1,1]",0,2,2,2,1,1,0,,,1,FALSE,5.8494,,,,,,,,,,,,,,,,,,,,,,,,,,,,,,,
,60a2dc206ce94a429c60a885,627c67727295dc7c19c43c7f,2022-05-11_20h49.01.135,classification_task,2021.2.3,Win32,59.95922773,627c6715c52fd12f31907bcf,,,,,,,,,,,,,,,,,,,,,,,l,1,"[""0.089"",""0.422"",""0.497"",""0.738""]","[1,1,0,1]",0,3,3,3,1,1,0,,,1,FALSE,3.7625,,,,,,,,,,,,,,,,,,,,,,,,,,,,,,,
,60a2dc206ce94a429c60a885,627c67727295dc7c19c43c7f,2022-05-11_20h49.01.135,classification_task,2021.2.3,Win32,59.95922773,627c6715c52fd12f31907bcf,,,,,,,,,,,,,,,,,,,,,,,,0,"[""0.199"",""0.342"",""0.033"",""0.951""]","[1,1,0,1]",0,4,4,4,1,0,0,,,1,FALSE,,,,,,,,,,,,,,,,,,,,,,,,,,,,,,,,
,60a2dc206ce94a429c60a885,627c67727295dc7c19c43c7f,2022-05-11_20h49.01.135,classification_task,2021.2.3,Win32,59.95922773,627c6715c52fd12f31907bcf,,,,,,,,,,,,,,,,,,,,,,,l,1,"[""0.146"",""0.261"",""0.049"",""0.686""]","[1,1,0,1]",0,5,5,5,1,1,1,,,1,FALSE,8.2423,,,,,,,,,,,,,,,,,,,,,,,,,,,,,,,
,60a2dc206ce94a429c60a885,627c67727295dc7c19c43c7f,2022-05-11_20h49.01.135,classification_task,2021.2.3,Win32,59.95922773,627c6715c52fd12f31907bcf,,,,,,,,,,,,,,,,,,,,,,,a,1,"[""0.294"",""0.381"",""0.496"",""0.915""]","[1,1,0,1]",0,6,6,6,1,0,1,,,1,FALSE,6.1454,,,,,,,,,,,,,,,,,,,,,,,,,,,,,,,
,60a2dc206ce94a429c60a885,627c67727295dc7c19c43c7f,2022-05-11_20h49.01.135,classification_task,2021.2.3,Win32,59.95922773,627c6715c52fd12f31907bcf,,,,,,,,,,,,,,,,,,,,,,,a,1,"[""0.294"",""0.381"",""0.836"",""0.482""]","[1,1,1,0]",0,7,7,7,1,0,1,,,1,FALSE,4.8623,,,,,,,,,,,,,,,,,,,,,,,,,,,,,,,
,60a2dc206ce94a429c60a885,627c67727295dc7c19c43c7f,2022-05-11_20h49.01.135,classification_task,2021.2.3,Win32,59.95922773,627c6715c52fd12f31907bcf,,,,,,,,,,,,,,,,,,,,,,,l,1,"[""0.146"",""0.499"",""0.548"",""0.686""]","[1,0,1,1]",0,8,8,8,1,1,1,,,1,FALSE,2.2854,,,,,,,,,,,,,,,,,,,,,,,,,,,,,,,
,60a2dc206ce94a429c60a885,627c67727295dc7c19c43c7f,2022-05-11_20h49.01.135,classification_task,2021.2.3,Win32,59.95922773,627c6715c52fd12f31907bcf,,,,,,,,,,,,,,,,,,,,,,,a,1,"[""0.294"",""0.505"",""0.836"",""0.915""]","[1,0,1,1]",0,9,9,9,1,0,1,,,1,FALSE,4.1547,,,,,,,,,,,,,,,,,,,,,,,,,,,,,,,
,60a2dc206ce94a429c60a885,627c67727295dc7c19c43c7f,2022-05-11_20h49.01.135,classification_task,2021.2.3,Win32,59.95922773,627c6715c52fd12f31907bcf,,,,,,,,,,,,,,,,,,,,,,,a,1,"[""0.199"",""0.342"",""0.870"",""0.049""]","[1,1,1,0]",0,10,10,10,1,0,0,,,1,FALSE,7.6265,,,,,,,,,,,,,,,,,,,,,,,,,,,,,,,
,60a2dc206ce94a429c60a885,627c67727295dc7c19c43c7f,2022-05-11_20h49.01.135,classification_task,2021.2.3,Win32,59.95922773,627c6715c52fd12f31907bcf,,,,,,,,,,,,,,,,,,,,,,,a,0,"[""0.146"",""0.261"",""0.548"",""0.651""]","[1,1,1,0]",0,11,11,11,1,1,1,,,1,FALSE,1.91,,,,,,,,,,,,,,,,,,,,,,,,,,,,,,,
,60a2dc206ce94a429c60a885,627c67727295dc7c19c43c7f,2022-05-11_20h49.01.135,classification_task,2021.2.3,Win32,59.95922773,627c6715c52fd12f31907bcf,,,,,,,,,,,,,,,,,,,,,,,a,1,"[""0.497"",""0.381"",""0.836"",""0.915""]","[0,1,1,1]",0,12,12,12,1,0,1,,,1,FALSE,4.779,,,,,,,,,,,,,,,,,,,,,,,,,,,,,,,
,60a2dc206ce94a429c60a885,627c67727295dc7c19c43c7f,2022-05-11_20h49.01.135,classification_task,2021.2.3,Win32,59.95922773,627c6715c52fd12f31907bcf,,,,,,,,,,,,,,,,,,,,,,,l,1,"[""0.651"",""0.422"",""0.612"",""0.738""]","[0,1,1,1]",0,13,13,13,1,1,0,,,1,FALSE,6.4624,,,,,,,,,,,,,,,,,,,,,,,,,,,,,,,
,60a2dc206ce94a429c60a885,627c67727295dc7c19c43c7f,2022-05-11_20h49.01.135,classification_task,2021.2.3,Win32,59.95922773,627c6715c52fd12f31907bcf,,,,,,,,,,,,,,,,,,,,,,,a,1,"[""0.199"",""0.802"",""0.870"",""0.951""]","[1,0,1,1]",0,14,14,14,1,0,0,,,1,FALSE,3.1478,,,,,,,,,,,,,,,,,,,,,,,,,,,,,,,
,60a2dc206ce94a429c60a885,627c67727295dc7c19c43c7f,2022-05-11_20h49.01.135,classification_task,2021.2.3,Win32,59.95922773,627c6715c52fd12f31907bcf,,,,,,,,,,,,,,,,,,,,,,,l,1,"[""0.089"",""0.422"",""0.612"",""0.505""]","[1,1,1,0]",0,15,15,15,1,1,0,,,1,FALSE,5.0784,,,,,,,,,,,,,,,,,,,,,,,,,,,,,,,
,60a2dc206ce94a429c60a885,627c67727295dc7c19c43c7f,2022-05-11_20h49.01.135,classification_task,2021.2.3,Win32,59.95922773,627c6715c52fd12f31907bcf,,,,,,,,,,,,,,,,,,,,,,,a,1,"[""0.294"",""0.381"",""0.499"",""0.915""]","[1,1,0,1]",0,16,16,16,1,0,1,,,1,FALSE,2.1789,,,,,,,,,,,,,,,,,,,,,,,,,,,,,,,
,60a2dc206ce94a429c60a885,627c67727295dc7c19c43c7f,2022-05-11_20h49.01.135,classification_task,2021.2.3,Win32,59.95922773,627c6715c52fd12f31907bcf,,,,,,,,,,,,,,,,,,,,,,,l,1,"[""0.146"",""0.261"",""0.548"",""0.505""]","[1,1,1,0]",0,17,17,17,1,1,1,,,1,FALSE,2.6117,,,,,,,,,,,,,,,,,,,,,,,,,,,,,,,
,60a2dc206ce94a429c60a885,627c67727295dc7c19c43c7f,2022-05-11_20h49.01.135,classification_task,2021.2.3,Win32,59.95922773,627c6715c52fd12f31907bcf,,,,,,,,,,,,,,,,,,,,,,,a,1,"[""0.199"",""0.796"",""0.870"",""0.951""]","[1,0,1,1]",0,18,18,18,1,0,0,,,1,FALSE,4.4327,,,,,,,,,,,,,,,,,,,,,,,,,,,,,,,
,60a2dc206ce94a429c60a885,627c67727295dc7c19c43c7f,2022-05-11_20h49.01.135,classification_task,2021.2.3,Win32,59.95922773,627c6715c52fd12f31907bcf,,,,,,,,,,,,,,,,,,,,,,,l,1,"[""0.089"",""0.422"",""0.612"",""0.482""]","[1,1,1,0]",0,19,19,19,1,1,0,,,1,FALSE,2.5768,,,,,,,,,,,,,,,,,,,,,,,,,,,,,,,
,60a2dc206ce94a429c60a885,627c67727295dc7c19c43c7f,2022-05-11_20h49.01.135,classification_task,2021.2.3,Win32,59.95922773,627c6715c52fd12f31907bcf,,,,,,,,,,,,,,,,,,,,,,,a,1,"[""0.199"",""0.342"",""0.499"",""0.951""]","[1,1,0,1]",0,20,20,20,1,0,0,,,1,FALSE,2.2836,,,,,,,,,,,,,,,,,,,,,,,,,,,,,,,
,60a2dc206ce94a429c60a885,627c67727295dc7c19c43c7f,2022-05-11_20h49.01.135,classification_task,2021.2.3,Win32,59.95922773,627c6715c52fd12f31907bcf,,,,,,,,,,,,,,,,,,,,,,,a,1,"[""0.505"",""0.342"",""0.870"",""0.951""]","[0,1,1,1]",0,21,21,21,1,0,0,,,1,FALSE,1.7284,,,,,,,,,,,,,,,,,,,,,,,,,,,,,,,
,60a2dc206ce94a429c60a885,627c67727295dc7c19c43c7f,2022-05-11_20h49.01.135,classification_task,2021.2.3,Win32,59.95922773,627c6715c52fd12f31907bcf,,,,,,,,,,,,,,,,,,,,,,,l,1,"[""0.146"",""0.470"",""0.548"",""0.686""]","[1,0,1,1]",0,22,22,22,1,1,1,,,1,FALSE,1.9325,,,,,,,,,,,,,,,,,,,,,,,,,,,,,,,
,60a2dc206ce94a429c60a885,627c67727295dc7c19c43c7f,2022-05-11_20h49.01.135,classification_task,2021.2.3,Win32,59.95922773,627c6715c52fd12f31907bcf,,,,,,,,,,,,,,,,,,,,,,,l,1,"[""0.467"",""0.422"",""0.612"",""0.738""]","[0,1,1,1]",0,23,23,23,1,1,0,,,1,FALSE,3.2258,,,,,,,,,,,,,,,,,,,,,,,,,,,,,,,
,60a2dc206ce94a429c60a885,627c67727295dc7c19c43c7f,2022-05-11_20h49.01.135,classification_task,2021.2.3,Win32,59.95922773,627c6715c52fd12f31907bcf,,,,,,,,,,,,,,,,,,,,,,,a,1,"[""0.796"",""0.381"",""0.836"",""0.915""]","[0,1,1,1]",0,24,24,24,1,0,1,,,1,FALSE,2.2508,,,,,,,,,,,,,,,,,,,,,,,,,,,,,,,
,60a2dc206ce94a429c60a885,627c67727295dc7c19c43c7f,2022-05-11_20h49.01.135,classification_task,2021.2.3,Win32,59.95922773,627c6715c52fd12f31907bcf,,,,,,,,,,,,,,,,,,,,,,,l,1,"[""0.790"",""0.261"",""0.548"",""0.686""]","[0,1,1,1]",0,25,25,25,1,1,1,,,1,FALSE,2.518,,,,,,,,,,,,,,,,,,,,,,,,,,,,,,,
,60a2dc206ce94a429c60a885,627c67727295dc7c19c43c7f,2022-05-11_20h49.01.135,classification_task,2021.2.3,Win32,59.95922773,627c6715c52fd12f31907bcf,,,,,,,,,,,,,,,,,,,,,,,l,1,"[""0.089"",""0.422"",""0.049"",""0.738""]","[1,1,0,1]",0,26,26,26,1,1,0,,,1,FALSE,7.6039,,,,,,,,,,,,,,,,,,,,,,,,,,,,,,,
,60a2dc206ce94a429c60a885,627c67727295dc7c19c43c7f,2022-05-11_20h49.01.135,classification_task,2021.2.3,Win32,59.95922773,627c6715c52fd12f31907bcf,,,,,,,,,,,,,,,,,,,,,,,a,1,"[""0.199"",""0.342"",""0.870"",""0.512""]","[1,1,1,0]",0,27,27,27,1,0,0,,,1,FALSE,3.3979,,,,,,,,,,,,,,,,,,,,,,,,,,,,,,,
,60a2dc206ce94a429c60a885,627c67727295dc7c19c43c7f,2022-05-11_20h49.01.135,classification_task,2021.2.3,Win32,59.95922773,627c6715c52fd12f31907bcf,,,,,,,,,,,,,,,,,,,,,,,a,1,"[""0.294"",""0.381"",""0.836"",""0.467""]","[1,1,1,0]",0,28,28,28,1,0,1,,,1,FALSE,2.677,,,,,,,,,,,,,,,,,,,,,,,,,,,,,,,
,60a2dc206ce94a429c60a885,627c67727295dc7c19c43c7f,2022-05-11_20h49.01.135,classification_task,2021.2.3,Win32,59.95922773,627c6715c52fd12f31907bcf,,,,,,,,,,,,,,,,,,,,,,,a,0,"[""0.146"",""0.261"",""0.505"",""0.686""]","[1,1,0,1]",0,29,29,29,1,1,1,,,1,FALSE,3.4709,,,,,,,,,,,,,,,,,,,,,,,,,,,,,,,
,60a2dc206ce94a429c60a885,627c67727295dc7c19c43c7f,2022-05-11_20h49.01.135,classification_task,2021.2.3,Win32,59.95922773,627c6715c52fd12f31907bcf,,,,,,,,,,,,,,,,,,,,,,,a,1,"[""0.294"",""0.802"",""0.836"",""0.915""]","[1,0,1,1]",0,30,30,30,1,0,1,,,1,FALSE,2.6608,,,,,,,,,,,,,,,,,,,,,,,,,,,,,,,
,60a2dc206ce94a429c60a885,627c67727295dc7c19c43c7f,2022-05-11_20h49.01.135,classification_task,2021.2.3,Win32,59.95922773,627c6715c52fd12f31907bcf,,,,,,,,,,,,,,,,,,,,,,,l,1,"[""0.089"",""0.496"",""0.612"",""0.738""]","[1,0,1,1]",0,31,31,31,1,1,0,,,1,FALSE,2.2943,,,,,,,,,,,,,,,,,,,,,,,,,,,,,,,
,60a2dc206ce94a429c60a885,627c67727295dc7c19c43c7f,2022-05-11_20h49.01.135,classification_task,2021.2.3,Win32,59.95922773,627c6715c52fd12f31907bcf,,,,,,,,,,,,,,,,,,,,,,,a,1,"[""0.294"",""0.381"",""0.836"",""0.470""]","[1,1,1,0]",0,32,32,32,1,0,1,,,1,FALSE,3.415,,,,,,,,,,,,,,,,,,,,,,,,,,,,,,,
,60a2dc206ce94a429c60a885,627c67727295dc7c19c43c7f,2022-05-11_20h49.01.135,classification_task,2021.2.3,Win32,59.95922773,627c6715c52fd12f31907bcf,,,,,,,,,,,,,,,,,,,,,,,a,1,"[""0.294"",""0.381"",""0.791"",""0.915""]","[1,1,0,1]",0,33,33,33,1,0,1,,,1,FALSE,2.2459,,,,,,,,,,,,,,,,,,,,,,,,,,,,,,,
,60a2dc206ce94a429c60a885,627c67727295dc7c19c43c7f,2022-05-11_20h49.01.135,classification_task,2021.2.3,Win32,59.95922773,627c6715c52fd12f31907bcf,,,,,,,,,,,,,,,,,,,,,,,l,1,"[""0.470"",""0.261"",""0.548"",""0.686""]","[0,1,1,1]",0,34,34,34,1,1,1,,,1,FALSE,1.1507,,,,,,,,,,,,,,,,,,,,,,,,,,,,,,,
,60a2dc206ce94a429c60a885,627c67727295dc7c19c43c7f,2022-05-11_20h49.01.135,classification_task,2021.2.3,Win32,59.95922773,627c6715c52fd12f31907bcf,,,,,,,,,,,,,,,,,,,,,,,l,1,"[""0.146"",""0.261"",""0.505"",""0.686""]","[1,1,0,1]",0,35,35,35,1,1,1,,,1,FALSE,1.5211,,,,,,,,,,,,,,,,,,,,,,,,,,,,,,,
,60a2dc206ce94a429c60a885,627c67727295dc7c19c43c7f,2022-05-11_20h49.01.135,classification_task,2021.2.3,Win32,59.95922773,627c6715c52fd12f31907bcf,,,,,,,,,,,,,,,,,,,,,,,l,1,"[""0.033"",""0.422"",""0.612"",""0.738""]","[0,1,1,1]",0,36,36,36,1,1,0,,,1,FALSE,7.4243,,,,,,,,,,,,,,,,,,,,,,,,,,,,,,,
,60a2dc206ce94a429c60a885,627c67727295dc7c19c43c7f,2022-05-11_20h49.01.135,classification_task,2021.2.3,Win32,59.95922773,627c6715c52fd12f31907bcf,,,,,,,,,,,,,,,,,,,,,,,l,1,"[""0.089"",""0.470"",""0.612"",""0.738""]","[1,0,1,1]",0,37,37,37,1,1,0,,,1,FALSE,1.9658,,,,,,,,,,,,,,,,,,,,,,,,,,,,,,,
,60a2dc206ce94a429c60a885,627c67727295dc7c19c43c7f,2022-05-11_20h49.01.135,classification_task,2021.2.3,Win32,59.95922773,627c6715c52fd12f31907bcf,,,,,,,,,,,,,,,,,,,,,,,a,1,"[""0.497"",""0.342"",""0.870"",""0.951""]","[0,1,1,1]",0,38,38,38,1,0,0,,,1,FALSE,2.0752,,,,,,,,,,,,,,,,,,,,,,,,,,,,,,,
,60a2dc206ce94a429c60a885,627c67727295dc7c19c43c7f,2022-05-11_20h49.01.135,classification_task,2021.2.3,Win32,59.95922773,627c6715c52fd12f31907bcf,,,,,,,,,,,,,,,,,,,,,,,l,0,"[""0.199"",""0.033"",""0.870"",""0.951""]","[1,0,1,1]",0,39,39,39,1,0,0,,,1,FALSE,0.8617,,,,,,,,,,,,,,,,,,,,,,,,,,,,,,,
,60a2dc206ce94a429c60a885,627c67727295dc7c19c43c7f,2022-05-11_20h49.01.135,classification_task,2021.2.3,Win32,59.95922773,627c6715c52fd12f31907bcf,,,,,,,,,,,,,,,,,,,,,,,l,0,"[""0.294"",""0.791"",""0.836"",""0.915""]","[1,0,1,1]",0,40,40,40,1,0,1,,,1,FALSE,4.2925,,,,,,,,,,,,,,,,,,,,,,,,,,,,,,,
,60a2dc206ce94a429c60a885,627c67727295dc7c19c43c7f,2022-05-11_20h49.01.135,classification_task,2021.2.3,Win32,59.95922773,627c6715c52fd12f31907bcf,,,,,,,,,,,,,,,,,,,,,,,l,1,"[""0.146"",""0.261"",""0.548"",""0.505""]","[1,1,1,0]",0,41,41,41,1,1,1,,,1,FALSE,2.2965,,,,,,,,,,,,,,,,,,,,,,,,,,,,,,,
,60a2dc206ce94a429c60a885,627c67727295dc7c19c43c7f,2022-05-11_20h49.01.135,classification_task,2021.2.3,Win32,59.95922773,627c6715c52fd12f31907bcf,,,,,,,,,,,,,,,,,,,,,,,a,1,"[""0.199"",""0.342"",""0.870"",""0.791""]","[1,1,1,0]",0,42,42,42,1,0,0,,,1,FALSE,1.8458,,,,,,,,,,,,,,,,,,,,,,,,,,,,,,,
,60a2dc206ce94a429c60a885,627c67727295dc7c19c43c7f,2022-05-11_20h49.01.135,classification_task,2021.2.3,Win32,59.95922773,627c6715c52fd12f31907bcf,,,,,,,,,,,,,,,,,,,,,,,l,0,"[""0.791"",""0.381"",""0.836"",""0.915""]","[0,1,1,1]",0,43,43,43,1,0,1,,,1,FALSE,2.3177,,,,,,,,,,,,,,,,,,,,,,,,,,,,,,,
,60a2dc206ce94a429c60a885,627c67727295dc7c19c43c7f,2022-05-11_20h49.01.135,classification_task,2021.2.3,Win32,59.95922773,627c6715c52fd12f31907bcf,,,,,,,,,,,,,,,,,,,,,,,l,1,"[""0.146"",""0.049"",""0.548"",""0.686""]","[1,0,1,1]",0,44,44,44,1,1,1,,,1,FALSE,4.2795,,,,,,,,,,,,,,,,,,,,,,,,,,,,,,,
,60a2dc206ce94a429c60a885,627c67727295dc7c19c43c7f,2022-05-11_20h49.01.135,classification_task,2021.2.3,Win32,59.95922773,627c6715c52fd12f31907bcf,,,,,,,,,,,,,,,,,,,,,,,l,1,"[""0.089"",""0.422"",""0.512"",""0.738""]","[1,1,0,1]",0,45,45,45,1,1,0,,,1,FALSE,1.6351,,,,,,,,,,,,,,,,,,,,,,,,,,,,,,,
,60a2dc206ce94a429c60a885,627c67727295dc7c19c43c7f,2022-05-11_20h49.01.135,classification_task,2021.2.3,Win32,59.95922773,627c6715c52fd12f31907bcf,,,,,,,,,,,,,,,,,,,,,,,l,1,"[""0.089"",""0.422"",""0.612"",""0.497""]","[1,1,1,0]",0,46,46,46,1,1,0,,,1,FALSE,0.6516,,,,,,,,,,,,,,,,,,,,,,,,,,,,,,,
,60a2dc206ce94a429c60a885,627c67727295dc7c19c43c7f,2022-05-11_20h49.01.135,classification_task,2021.2.3,Win32,59.95922773,627c6715c52fd12f31907bcf,,,,,,,,,,,,,,,,,,,,,,,a,1,"[""0.199"",""0.342"",""0.499"",""0.951""]","[1,1,0,1]",0,47,47,47,1,0,0,,,1,FALSE,0.7929,,,,,,,,,,,,,,,,,,,,,,,,,,,,,,,
,60a2dc206ce94a429c60a885,627c67727295dc7c19c43c7f,2022-05-11_20h49.01.135,classification_task,2021.2.3,Win32,59.95922773,627c6715c52fd12f31907bcf,,,,,,,,,,,,,,,,,,,,,,,l,1,"[""0.496"",""0.261"",""0.548"",""0.686""]","[0,1,1,1]",0,48,48,48,1,1,1,,,1,FALSE,3.4572,,,,,,,,,,,,,,,,,,,,,,,,,,,,,,,
,60a2dc206ce94a429c60a885,627c67727295dc7c19c43c7f,2022-05-11_20h49.01.135,classification_task,2021.2.3,Win32,59.95922773,627c6715c52fd12f31907bcf,,,,,,,,,,,,,,,,,,,,,,,a,1,"[""0.499"",""0.342"",""0.870"",""0.951""]","[0,1,1,1]",0,49,49,49,1,0,0,,,1,FALSE,3.3112,,,,,,,,,,,,,,,,,,,,,,,,,,,,,,,
,60a2dc206ce94a429c60a885,627c67727295dc7c19c43c7f,2022-05-11_20h49.01.135,classification_task,2021.2.3,Win32,59.95922773,627c6715c52fd12f31907bcf,,,,,,,,,,,,,,,,,,,,,,,a,1,"[""0.199"",""0.342"",""0.870"",""0.796""]","[1,1,1,0]",0,50,50,50,1,0,0,,,1,FALSE,1.3988,,,,,,,,,,,,,,,,,,,,,,,,,,,,,,,
,60a2dc206ce94a429c60a885,627c67727295dc7c19c43c7f,2022-05-11_20h49.01.135,classification_task,2021.2.3,Win32,59.95922773,627c6715c52fd12f31907bcf,,,,,,,,,,,,,,,,,,,,,,,l,1,"[""0.089"",""0.802"",""0.612"",""0.738""]","[1,0,1,1]",0,51,51,51,1,1,0,,,1,FALSE,0.8,,,,,,,,,,,,,,,,,,,,,,,,,,,,,,,
,60a2dc206ce94a429c60a885,627c67727295dc7c19c43c7f,2022-05-11_20h49.01.135,classification_task,2021.2.3,Win32,59.95922773,627c6715c52fd12f31907bcf,,,,,,,,,,,,,,,,,,,,,,,l,1,"[""0.146"",""0.790"",""0.548"",""0.686""]","[1,0,1,1]",0,52,52,52,1,1,1,,,1,FALSE,1.8411,,,,,,,,,,,,,,,,,,,,,,,,,,,,,,,
,60a2dc206ce94a429c60a885,627c67727295dc7c19c43c7f,2022-05-11_20h49.01.135,classification_task,2021.2.3,Win32,59.95922773,627c6715c52fd12f31907bcf,,,,,,,,,,,,,,,,,,,,,,,l,1,"[""0.146"",""0.261"",""0.548"",""0.796""]","[1,1,1,0]",0,53,53,53,1,1,1,,,1,FALSE,1.7849,,,,,,,,,,,,,,,,,,,,,,,,,,,,,,,
,60a2dc206ce94a429c60a885,627c67727295dc7c19c43c7f,2022-05-11_20h49.01.135,classification_task,2021.2.3,Win32,59.95922773,627c6715c52fd12f31907bcf,,,,,,,,,,,,,,,,,,,,,,,l,1,"[""0.146"",""0.261"",""0.651"",""0.686""]","[1,1,0,1]",0,54,54,54,1,1,1,,,1,FALSE,0.621,,,,,,,,,,,,,,,,,,,,,,,,,,,,,,,
,60a2dc206ce94a429c60a885,627c67727295dc7c19c43c7f,2022-05-11_20h49.01.135,classification_task,2021.2.3,Win32,59.95922773,627c6715c52fd12f31907bcf,,,,,,,,,,,,,,,,,,,,,,,a,0,"[""0.796"",""0.422"",""0.612"",""0.738""]","[0,1,1,1]",0,55,55,55,1,1,0,,,1,FALSE,3.1717,,,,,,,,,,,,,,,,,,,,,,,,,,,,,,,
,60a2dc206ce94a429c60a885,627c67727295dc7c19c43c7f,2022-05-11_20h49.01.135,classification_task,2021.2.3,Win32,59.95922773,627c6715c52fd12f31907bcf,,,,,,,,,,,,,,,,,,,,,,,a,1,"[""0.199"",""0.467"",""0.870"",""0.951""]","[1,0,1,1]",0,56,56,56,1,0,0,,,1,FALSE,2.2505,,,,,,,,,,,,,,,,,,,,,,,,,,,,,,,
,60a2dc206ce94a429c60a885,627c67727295dc7c19c43c7f,2022-05-11_20h49.01.135,classification_task,2021.2.3,Win32,59.95922773,627c6715c52fd12f31907bcf,,,,,,,,,,,,,,,,,,,,,,,l,0,"[""0.294"",""0.791"",""0.836"",""0.915""]","[1,0,1,1]",0,57,57,57,1,0,1,,,1,FALSE,2.9878,,,,,,,,,,,,,,,,,,,,,,,,,,,,,,,
,60a2dc206ce94a429c60a885,627c67727295dc7c19c43c7f,2022-05-11_20h49.01.135,classification_task,2021.2.3,Win32,59.95922773,627c6715c52fd12f31907bcf,,,,,,,,,,,,,,,,,,,,,,,a,1,"[""0.199"",""0.342"",""0.802"",""0.951""]","[1,1,0,1]",0,58,58,58,1,0,0,,,1,FALSE,1.8039,,,,,,,,,,,,,,,,,,,,,,,,,,,,,,,
,60a2dc206ce94a429c60a885,627c67727295dc7c19c43c7f,2022-05-11_20h49.01.135,classification_task,2021.2.3,Win32,59.95922773,627c6715c52fd12f31907bcf,,,,,,,,,,,,,,,,,,,,,,,a,1,"[""0.499"",""0.381"",""0.836"",""0.915""]","[0,1,1,1]",0,59,59,59,1,0,1,,,1,FALSE,1.395,,,,,,,,,,,,,,,,,,,,,,,,,,,,,,,
,60a2dc206ce94a429c60a885,627c67727295dc7c19c43c7f,2022-05-11_20h49.01.135,classification_task,2021.2.3,Win32,59.95922773,627c6715c52fd12f31907bcf,,,,,,,,,,,,,,,,,,,,,,,a,1,"[""0.294"",""0.381"",""0.836"",""0.470""]","[1,1,1,0]",0,60,60,60,1,0,1,,,1,FALSE,1.0015,,,,,,,,,,,,,,,,,,,,,,,,,,,,,,,
,60a2dc206ce94a429c60a885,627c67727295dc7c19c43c7f,2022-05-11_20h49.01.135,classification_task,2021.2.3,Win32,59.95922773,627c6715c52fd12f31907bcf,,,,,,,,,,,,,,,,,,,,,,,l,1,"[""0.089"",""0.422"",""0.651"",""0.738""]","[1,1,0,1]",0,61,61,61,1,1,0,,,1,FALSE,1.1168,,,,,,,,,,,,,,,,,,,,,,,,,,,,,,,
,60a2dc206ce94a429c60a885,627c67727295dc7c19c43c7f,2022-05-11_20h49.01.135,classification_task,2021.2.3,Win32,59.95922773,627c6715c52fd12f31907bcf,,,,,,,,,,,,,,,,,,,,,,,l,1,"[""0.089"",""0.422"",""0.612"",""0.033""]","[1,1,1,0]",0,62,62,62,1,1,0,,,1,FALSE,1.2836,,,,,,,,,,,,,,,,,,,,,,,,,,,,,,,
,60a2dc206ce94a429c60a885,627c67727295dc7c19c43c7f,2022-05-11_20h49.01.135,classification_task,2021.2.3,Win32,59.95922773,627c6715c52fd12f31907bcf,,,,,,,,,,,,,,,,,,,,,,,a,1,"[""0.294"",""0.381"",""0.791"",""0.915""]","[1,1,0,1]",0,63,63,63,1,0,1,,,1,FALSE,2.5211,,,,,,,,,,,,,,,,,,,,,,,,,,,,,,,
,60a2dc206ce94a429c60a885,627c67727295dc7c19c43c7f,2022-05-11_20h49.01.135,classification_task,2021.2.3,Win32,59.95922773,627c6715c52fd12f31907bcf,,,,,,,,,,,,,,,,,,,,,,,,,,,,,,,,,,,,,,,0, ,,0,0.223398001,518.4534,0,0,0,0,1,2,1,,,,,,,,,,,,,,,,,,
,60a2dc206ce94a429c60a885,627c67727295dc7c19c43c7f,2022-05-11_20h49.01.135,classification_task,2021.2.3,Win32,59.95922773,627c6715c52fd12f31907bcf,,,,,,,,,,,,,,,,,,,,,,,,,,,,,,,,,,,,,,,1,  ,,0,4.240642759,522.0356,0,0,0,0,1,2,1,,,,,,,,,,,,,,,,,,
,60a2dc206ce94a429c60a885,627c67727295dc7c19c43c7f,2022-05-11_20h49.01.135,classification_task,2021.2.3,Win32,59.95922773,627c6715c52fd12f31907bcf,,,,,,,,,,,,,,,,,,,,,,,,,,,,,,,,,,,,,,,2,  ,,0,0,528.084,0,0,0,0,1,2,1,,,,,,,,,,,,,,,,,,
,60a2dc206ce94a429c60a885,627c67727295dc7c19c43c7f,2022-05-11_20h49.01.135,classification_task,2021.2.3,Win32,59.95922773,627c6715c52fd12f31907bcf,,,,,,,,,,,,,,,,,,,,,,,,,,,,,,,,,,,,,,,,,,,,,0,0,0,0,1,,1,,,,,,,,,,,,,,,,,,
,60a2dc206ce94a429c60a885,627c67727295dc7c19c43c7f,2022-05-11_20h49.01.135,classification_task,2021.2.3,Win32,59.95922773,627c6715c52fd12f31907bcf,,,,,,,,,,,,,,,,,,,,,space,19.5732,a,1,"[""0.294"",""0.381"",""0.836"",""0.802""]","[1,1,1,0]",0,0,0,0,1,0,1,,,1,FALSE,3.7136,,,,,,,,,,,,,,,,,,,,,,,,,,,,,,,
,60a2dc206ce94a429c60a885,627c67727295dc7c19c43c7f,2022-05-11_20h49.01.135,classification_task,2021.2.3,Win32,59.95922773,627c6715c52fd12f31907bcf,,,,,,,,,,,,,,,,,,,,,,,a,0,"[""0.089"",""0.422"",""0.612"",""0.505""]","[1,1,1,0]",0,1,1,1,1,1,0,,,1,FALSE,2.9991,,,,,,,,,,,,,,,,,,,,,,,,,,,,,,,
,60a2dc206ce94a429c60a885,627c67727295dc7c19c43c7f,2022-05-11_20h49.01.135,classification_task,2021.2.3,Win32,59.95922773,627c6715c52fd12f31907bcf,,,,,,,,,,,,,,,,,,,,,,,l,1,"[""0.049"",""0.422"",""0.612"",""0.738""]","[0,1,1,1]",0,2,2,2,1,1,0,,,1,FALSE,0.7169,,,,,,,,,,,,,,,,,,,,,,,,,,,,,,,
,60a2dc206ce94a429c60a885,627c67727295dc7c19c43c7f,2022-05-11_20h49.01.135,classification_task,2021.2.3,Win32,59.95922773,627c6715c52fd12f31907bcf,,,,,,,,,,,,,,,,,,,,,,,l,1,"[""0.146"",""0.261"",""0.548"",""0.049""]","[1,1,1,0]",0,3,3,3,1,1,1,,,1,FALSE,2.7498,,,,,,,,,,,,,,,,,,,,,,,,,,,,,,,
,60a2dc206ce94a429c60a885,627c67727295dc7c19c43c7f,2022-05-11_20h49.01.135,classification_task,2021.2.3,Win32,59.95922773,627c6715c52fd12f31907bcf,,,,,,,,,,,,,,,,,,,,,,,a,1,"[""0.199"",""0.342"",""0.499"",""0.951""]","[1,1,0,1]",0,4,4,4,1,0,0,,,1,FALSE,1.2492,,,,,,,,,,,,,,,,,,,,,,,,,,,,,,,
,60a2dc206ce94a429c60a885,627c67727295dc7c19c43c7f,2022-05-11_20h49.01.135,classification_task,2021.2.3,Win32,59.95922773,627c6715c52fd12f31907bcf,,,,,,,,,,,,,,,,,,,,,,,a,1,"[""0.505"",""0.381"",""0.836"",""0.915""]","[0,1,1,1]",0,5,5,5,1,0,1,,,1,FALSE,1.6329,,,,,,,,,,,,,,,,,,,,,,,,,,,,,,,
,60a2dc206ce94a429c60a885,627c67727295dc7c19c43c7f,2022-05-11_20h49.01.135,classification_task,2021.2.3,Win32,59.95922773,627c6715c52fd12f31907bcf,,,,,,,,,,,,,,,,,,,,,,,l,0,"[""0.199"",""0.342"",""0.870"",""0.796""]","[1,1,1,0]",0,6,6,6,1,0,0,,,1,FALSE,1.1507,,,,,,,,,,,,,,,,,,,,,,,,,,,,,,,
,60a2dc206ce94a429c60a885,627c67727295dc7c19c43c7f,2022-05-11_20h49.01.135,classification_task,2021.2.3,Win32,59.95922773,627c6715c52fd12f31907bcf,,,,,,,,,,,,,,,,,,,,,,,a,1,"[""0.294"",""0.802"",""0.836"",""0.915""]","[1,0,1,1]",0,7,7,7,1,0,1,,,1,FALSE,1.2164,,,,,,,,,,,,,,,,,,,,,,,,,,,,,,,
,60a2dc206ce94a429c60a885,627c67727295dc7c19c43c7f,2022-05-11_20h49.01.135,classification_task,2021.2.3,Win32,59.95922773,627c6715c52fd12f31907bcf,,,,,,,,,,,,,,,,,,,,,,,l,1,"[""0.467"",""0.261"",""0.548"",""0.686""]","[0,1,1,1]",0,8,8,8,1,1,1,,,1,FALSE,0.9321,,,,,,,,,,,,,,,,,,,,,,,,,,,,,,,
,60a2dc206ce94a429c60a885,627c67727295dc7c19c43c7f,2022-05-11_20h49.01.135,classification_task,2021.2.3,Win32,59.95922773,627c6715c52fd12f31907bcf,,,,,,,,,,,,,,,,,,,,,,,l,1,"[""0.089"",""0.422"",""0.470"",""0.738""]","[1,1,0,1]",0,9,9,9,1,1,0,,,1,FALSE,1.8163,,,,,,,,,,,,,,,,,,,,,,,,,,,,,,,
,60a2dc206ce94a429c60a885,627c67727295dc7c19c43c7f,2022-05-11_20h49.01.135,classification_task,2021.2.3,Win32,59.95922773,627c6715c52fd12f31907bcf,,,,,,,,,,,,,,,,,,,,,,,a,1,"[""0.294"",""0.381"",""0.482"",""0.915""]","[1,1,0,1]",0,10,10,10,1,0,1,,,1,FALSE,1.2664,,,,,,,,,,,,,,,,,,,,,,,,,,,,,,,
,60a2dc206ce94a429c60a885,627c67727295dc7c19c43c7f,2022-05-11_20h49.01.135,classification_task,2021.2.3,Win32,59.95922773,627c6715c52fd12f31907bcf,,,,,,,,,,,,,,,,,,,,,,,l,1,"[""0.146"",""0.261"",""0.651"",""0.686""]","[1,1,0,1]",0,11,11,11,1,1,1,,,1,FALSE,0.9332,,,,,,,,,,,,,,,,,,,,,,,,,,,,,,,
,60a2dc206ce94a429c60a885,627c67727295dc7c19c43c7f,2022-05-11_20h49.01.135,classification_task,2021.2.3,Win32,59.95922773,627c6715c52fd12f31907bcf,,,,,,,,,,,,,,,,,,,,,,,l,1,"[""0.146"",""0.791"",""0.548"",""0.686""]","[1,0,1,1]",0,12,12,12,1,1,1,,,1,FALSE,0.883,,,,,,,,,,,,,,,,,,,,,,,,,,,,,,,
,60a2dc206ce94a429c60a885,627c67727295dc7c19c43c7f,2022-05-11_20h49.01.135,classification_task,2021.2.3,Win32,59.95922773,627c6715c52fd12f31907bcf,,,,,,,,,,,,,,,,,,,,,,,l,1,"[""0.089"",""0.790"",""0.612"",""0.738""]","[1,0,1,1]",0,13,13,13,1,1,0,,,1,FALSE,0.8498,,,,,,,,,,,,,,,,,,,,,,,,,,,,,,,
,60a2dc206ce94a429c60a885,627c67727295dc7c19c43c7f,2022-05-11_20h49.01.135,classification_task,2021.2.3,Win32,59.95922773,627c6715c52fd12f31907bcf,,,,,,,,,,,,,,,,,,,,,,,l,0,"[""0.199"",""0.512"",""0.870"",""0.951""]","[1,0,1,1]",0,14,14,14,1,0,0,,,1,FALSE,1.4999,,,,,,,,,,,,,,,,,,,,,,,,,,,,,,,
,60a2dc206ce94a429c60a885,627c67727295dc7c19c43c7f,2022-05-11_20h49.01.135,classification_task,2021.2.3,Win32,59.95922773,627c6715c52fd12f31907bcf,,,,,,,,,,,,,,,,,,,,,,,a,1,"[""0.790"",""0.342"",""0.870"",""0.951""]","[0,1,1,1]",0,15,15,15,1,0,0,,,1,FALSE,1.517,,,,,,,,,,,,,,,,,,,,,,,,,,,,,,,
,60a2dc206ce94a429c60a885,627c67727295dc7c19c43c7f,2022-05-11_20h49.01.135,classification_task,2021.2.3,Win32,59.95922773,627c6715c52fd12f31907bcf,,,,,,,,,,,,,,,,,,,,,,,a,1,"[""0.033"",""0.342"",""0.870"",""0.951""]","[0,1,1,1]",0,16,16,16,1,0,0,,,1,FALSE,1.4333,,,,,,,,,,,,,,,,,,,,,,,,,,,,,,,
,60a2dc206ce94a429c60a885,627c67727295dc7c19c43c7f,2022-05-11_20h49.01.135,classification_task,2021.2.3,Win32,59.95922773,627c6715c52fd12f31907bcf,,,,,,,,,,,,,,,,,,,,,,,a,1,"[""0.294"",""0.381"",""0.836"",""0.790""]","[1,1,1,0]",0,17,17,17,1,0,1,,,1,FALSE,1.148,,,,,,,,,,,,,,,,,,,,,,,,,,,,,,,
,60a2dc206ce94a429c60a885,627c67727295dc7c19c43c7f,2022-05-11_20h49.01.135,classification_task,2021.2.3,Win32,59.95922773,627c6715c52fd12f31907bcf,,,,,,,,,,,,,,,,,,,,,,,a,1,"[""0.199"",""0.467"",""0.870"",""0.951""]","[1,0,1,1]",0,18,18,18,1,0,0,,,1,FALSE,0.7998,,,,,,,,,,,,,,,,,,,,,,,,,,,,,,,
,60a2dc206ce94a429c60a885,627c67727295dc7c19c43c7f,2022-05-11_20h49.01.135,classification_task,2021.2.3,Win32,59.95922773,627c6715c52fd12f31907bcf,,,,,,,,,,,,,,,,,,,,,,,a,0,"[""0.049"",""0.422"",""0.612"",""0.738""]","[0,1,1,1]",0,19,19,19,1,1,0,,,1,FALSE,1.434,,,,,,,,,,,,,,,,,,,,,,,,,,,,,,,
,60a2dc206ce94a429c60a885,627c67727295dc7c19c43c7f,2022-05-11_20h49.01.135,classification_task,2021.2.3,Win32,59.95922773,627c6715c52fd12f31907bcf,,,,,,,,,,,,,,,,,,,,,,,l,1,"[""0.796"",""0.261"",""0.548"",""0.686""]","[0,1,1,1]",0,20,20,20,1,1,1,,,1,FALSE,3.8165,,,,,,,,,,,,,,,,,,,,,,,,,,,,,,,
,60a2dc206ce94a429c60a885,627c67727295dc7c19c43c7f,2022-05-11_20h49.01.135,classification_task,2021.2.3,Win32,59.95922773,627c6715c52fd12f31907bcf,,,,,,,,,,,,,,,,,,,,,,,l,1,"[""0.146"",""0.261"",""0.802"",""0.686""]","[1,1,0,1]",0,21,21,21,1,1,1,,,1,FALSE,0.6502,,,,,,,,,,,,,,,,,,,,,,,,,,,,,,,
,60a2dc206ce94a429c60a885,627c67727295dc7c19c43c7f,2022-05-11_20h49.01.135,classification_task,2021.2.3,Win32,59.95922773,627c6715c52fd12f31907bcf,,,,,,,,,,,,,,,,,,,,,,,l,1,"[""0.146"",""0.497"",""0.548"",""0.686""]","[1,0,1,1]",0,22,22,22,1,1,1,,,1,FALSE,0.65,,,,,,,,,,,,,,,,,,,,,,,,,,,,,,,
,60a2dc206ce94a429c60a885,627c67727295dc7c19c43c7f,2022-05-11_20h49.01.135,classification_task,2021.2.3,Win32,59.95922773,627c6715c52fd12f31907bcf,,,,,,,,,,,,,,,,,,,,,,,l,0,"[""0.199"",""0.342"",""0.870"",""0.497""]","[1,1,1,0]",0,23,23,23,1,0,0,,,1,FALSE,1.9497,,,,,,,,,,,,,,,,,,,,,,,,,,,,,,,
,60a2dc206ce94a429c60a885,627c67727295dc7c19c43c7f,2022-05-11_20h49.01.135,classification_task,2021.2.3,Win32,59.95922773,627c6715c52fd12f31907bcf,,,,,,,,,,,,,,,,,,,,,,,l,1,"[""0.089"",""0.422"",""0.791"",""0.738""]","[1,1,0,1]",0,24,24,24,1,1,0,,,1,FALSE,0.8838,,,,,,,,,,,,,,,,,,,,,,,,,,,,,,,
,60a2dc206ce94a429c60a885,627c67727295dc7c19c43c7f,2022-05-11_20h49.01.135,classification_task,2021.2.3,Win32,59.95922773,627c6715c52fd12f31907bcf,,,,,,,,,,,,,,,,,,,,,,,l,1,"[""0.089"",""0.040"",""0.612"",""0.738""]","[1,0,1,1]",0,25,25,25,1,1,0,,,1,FALSE,0.7173,,,,,,,,,,,,,,,,,,,,,,,,,,,,,,,
,60a2dc206ce94a429c60a885,627c67727295dc7c19c43c7f,2022-05-11_20h49.01.135,classification_task,2021.2.3,Win32,59.95922773,627c6715c52fd12f31907bcf,,,,,,,,,,,,,,,,,,,,,,,a,1,"[""0.040"",""0.381"",""0.836"",""0.915""]","[0,1,1,1]",0,26,26,26,1,0,1,,,1,FALSE,1.1834,,,,,,,,,,,,,,,,,,,,,,,,,,,,,,,
,60a2dc206ce94a429c60a885,627c67727295dc7c19c43c7f,2022-05-11_20h49.01.135,classification_task,2021.2.3,Win32,59.95922773,627c6715c52fd12f31907bcf,,,,,,,,,,,,,,,,,,,,,,,a,1,"[""0.199"",""0.342"",""0.033"",""0.951""]","[1,1,0,1]",0,27,27,27,1,0,0,,,1,FALSE,3.2159,,,,,,,,,,,,,,,,,,,,,,,,,,,,,,,
,60a2dc206ce94a429c60a885,627c67727295dc7c19c43c7f,2022-05-11_20h49.01.135,classification_task,2021.2.3,Win32,59.95922773,627c6715c52fd12f31907bcf,,,,,,,,,,,,,,,,,,,,,,,a,1,"[""0.294"",""0.381"",""0.497"",""0.915""]","[1,1,0,1]",0,28,28,28,1,0,1,,,1,FALSE,2.2465,,,,,,,,,,,,,,,,,,,,,,,,,,,,,,,
,60a2dc206ce94a429c60a885,627c67727295dc7c19c43c7f,2022-05-11_20h49.01.135,classification_task,2021.2.3,Win32,59.95922773,627c6715c52fd12f31907bcf,,,,,,,,,,,,,,,,,,,,,,,l,1,"[""0.089"",""0.422"",""0.612"",""0.497""]","[1,1,1,0]",0,29,29,29,1,1,0,,,1,FALSE,2.1993,,,,,,,,,,,,,,,,,,,,,,,,,,,,,,,
,60a2dc206ce94a429c60a885,627c67727295dc7c19c43c7f,2022-05-11_20h49.01.135,classification_task,2021.2.3,Win32,59.95922773,627c6715c52fd12f31907bcf,,,,,,,,,,,,,,,,,,,,,,,a,1,"[""0.294"",""0.651"",""0.836"",""0.915""]","[1,0,1,1]",0,30,30,30,1,0,1,,,1,FALSE,1.1467,,,,,,,,,,,,,,,,,,,,,,,,,,,,,,,
,60a2dc206ce94a429c60a885,627c67727295dc7c19c43c7f,2022-05-11_20h49.01.135,classification_task,2021.2.3,Win32,59.95922773,627c6715c52fd12f31907bcf,,,,,,,,,,,,,,,,,,,,,,,l,1,"[""0.146"",""0.261"",""0.548"",""0.802""]","[1,1,1,0]",0,31,31,31,1,1,1,,,1,FALSE,1.1816,,,,,,,,,,,,,,,,,,,,,,,,,,,,,,,
,60a2dc206ce94a429c60a885,627c67727295dc7c19c43c7f,2022-05-11_20h49.01.135,classification_task,2021.2.3,Win32,59.95922773,627c6715c52fd12f31907bcf,,,,,,,,,,,,,,,,,,,,,,,l,1,"[""0.802"",""0.261"",""0.548"",""0.686""]","[0,1,1,1]",0,32,32,32,1,1,1,,,1,FALSE,1.2335,,,,,,,,,,,,,,,,,,,,,,,,,,,,,,,
,60a2dc206ce94a429c60a885,627c67727295dc7c19c43c7f,2022-05-11_20h49.01.135,classification_task,2021.2.3,Win32,59.95922773,627c6715c52fd12f31907bcf,,,,,,,,,,,,,,,,,,,,,,,l,1,"[""0.146"",""0.261"",""0.548"",""0.790""]","[1,1,1,0]",0,33,33,33,1,1,1,,,1,FALSE,1.4001,,,,,,,,,,,,,,,,,,,,,,,,,,,,,,,
,60a2dc206ce94a429c60a885,627c67727295dc7c19c43c7f,2022-05-11_20h49.01.135,classification_task,2021.2.3,Win32,59.95922773,627c6715c52fd12f31907bcf,,,,,,,,,,,,,,,,,,,,,,,a,1,"[""0.199"",""0.796"",""0.870"",""0.951""]","[1,0,1,1]",0,34,34,34,1,0,0,,,1,FALSE,1.1497,,,,,,,,,,,,,,,,,,,,,,,,,,,,,,,
,60a2dc206ce94a429c60a885,627c67727295dc7c19c43c7f,2022-05-11_20h49.01.135,classification_task,2021.2.3,Win32,59.95922773,627c6715c52fd12f31907bcf,,,,,,,,,,,,,,,,,,,,,,,a,1,"[""0.294"",""0.381"",""0.836"",""0.497""]","[1,1,1,0]",0,35,35,35,1,0,1,,,1,FALSE,1.6998,,,,,,,,,,,,,,,,,,,,,,,,,,,,,,,
,60a2dc206ce94a429c60a885,627c67727295dc7c19c43c7f,2022-05-11_20h49.01.135,classification_task,2021.2.3,Win32,59.95922773,627c6715c52fd12f31907bcf,,,,,,,,,,,,,,,,,,,,,,,l,1,"[""0.146"",""0.261"",""0.482"",""0.686""]","[1,1,0,1]",0,36,36,36,1,1,1,,,1,FALSE,1.1831,,,,,,,,,,,,,,,,,,,,,,,,,,,,,,,
,60a2dc206ce94a429c60a885,627c67727295dc7c19c43c7f,2022-05-11_20h49.01.135,classification_task,2021.2.3,Win32,59.95922773,627c6715c52fd12f31907bcf,,,,,,,,,,,,,,,,,,,,,,,a,0,"[""0.089"",""0.422"",""0.496"",""0.738""]","[1,1,0,1]",0,37,37,37,1,1,0,,,1,FALSE,1.5665,,,,,,,,,,,,,,,,,,,,,,,,,,,,,,,
,60a2dc206ce94a429c60a885,627c67727295dc7c19c43c7f,2022-05-11_20h49.01.135,classification_task,2021.2.3,Win32,59.95922773,627c6715c52fd12f31907bcf,,,,,,,,,,,,,,,,,,,,,,,a,1,"[""0.294"",""0.381"",""0.505"",""0.915""]","[1,1,0,1]",0,38,38,38,1,0,1,,,1,FALSE,1.3822,,,,,,,,,,,,,,,,,,,,,,,,,,,,,,,
,60a2dc206ce94a429c60a885,627c67727295dc7c19c43c7f,2022-05-11_20h49.01.135,classification_task,2021.2.3,Win32,59.95922773,627c6715c52fd12f31907bcf,,,,,,,,,,,,,,,,,,,,,,,l,0,"[""0.496"",""0.342"",""0.870"",""0.951""]","[0,1,1,1]",0,39,39,39,1,0,0,,,1,FALSE,1.0496,,,,,,,,,,,,,,,,,,,,,,,,,,,,,,,
,60a2dc206ce94a429c60a885,627c67727295dc7c19c43c7f,2022-05-11_20h49.01.135,classification_task,2021.2.3,Win32,59.95922773,627c6715c52fd12f31907bcf,,,,,,,,,,,,,,,,,,,,,,,a,1,"[""0.482"",""0.381"",""0.836"",""0.915""]","[0,1,1,1]",0,40,40,40,1,0,1,,,1,FALSE,1.1169,,,,,,,,,,,,,,,,,,,,,,,,,,,,,,,
,60a2dc206ce94a429c60a885,627c67727295dc7c19c43c7f,2022-05-11_20h49.01.135,classification_task,2021.2.3,Win32,59.95922773,627c6715c52fd12f31907bcf,,,,,,,,,,,,,,,,,,,,,,,l,1,"[""0.089"",""0.049"",""0.612"",""0.738""]","[1,0,1,1]",0,41,41,41,1,1,0,,,1,FALSE,2.5338,,,,,,,,,,,,,,,,,,,,,,,,,,,,,,,
,60a2dc206ce94a429c60a885,627c67727295dc7c19c43c7f,2022-05-11_20h49.01.135,classification_task,2021.2.3,Win32,59.95922773,627c6715c52fd12f31907bcf,,,,,,,,,,,,,,,,,,,,,,,a,1,"[""0.294"",""0.482"",""0.836"",""0.915""]","[1,0,1,1]",0,42,42,42,1,0,1,,,1,FALSE,0.8497,,,,,,,,,,,,,,,,,,,,,,,,,,,,,,,
,60a2dc206ce94a429c60a885,627c67727295dc7c19c43c7f,2022-05-11_20h49.01.135,classification_task,2021.2.3,Win32,59.95922773,627c6715c52fd12f31907bcf,,,,,,,,,,,,,,,,,,,,,,,a,0,"[""0.499"",""0.422"",""0.612"",""0.738""]","[0,1,1,1]",0,43,43,43,1,1,0,,,1,FALSE,1.3314,,,,,,,,,,,,,,,,,,,,,,,,,,,,,,,
,60a2dc206ce94a429c60a885,627c67727295dc7c19c43c7f,2022-05-11_20h49.01.135,classification_task,2021.2.3,Win32,59.95922773,627c6715c52fd12f31907bcf,,,,,,,,,,,,,,,,,,,,,,,a,1,"[""0.199"",""0.342"",""0.497"",""0.951""]","[1,1,0,1]",0,44,44,44,1,0,0,,,1,FALSE,3.8432,,,,,,,,,,,,,,,,,,,,,,,,,,,,,,,
,60a2dc206ce94a429c60a885,627c67727295dc7c19c43c7f,2022-05-11_20h49.01.135,classification_task,2021.2.3,Win32,59.95922773,627c6715c52fd12f31907bcf,,,,,,,,,,,,,,,,,,,,,,,a,0,"[""0.089"",""0.422"",""0.612"",""0.499""]","[1,1,1,0]",0,45,45,45,1,1,0,,,1,FALSE,0.9661,,,,,,,,,,,,,,,,,,,,,,,,,,,,,,,
,60a2dc206ce94a429c60a885,627c67727295dc7c19c43c7f,2022-05-11_20h49.01.135,classification_task,2021.2.3,Win32,59.95922773,627c6715c52fd12f31907bcf,,,,,,,,,,,,,,,,,,,,,,,l,1,"[""0.146"",""0.512"",""0.548"",""0.686""]","[1,0,1,1]",0,46,46,46,1,1,1,,,1,FALSE,3.8981,,,,,,,,,,,,,,,,,,,,,,,,,,,,,,,
,60a2dc206ce94a429c60a885,627c67727295dc7c19c43c7f,2022-05-11_20h49.01.135,classification_task,2021.2.3,Win32,59.95922773,627c6715c52fd12f31907bcf,,,,,,,,,,,,,,,,,,,,,,,a,1,"[""0.199"",""0.342"",""0.870"",""0.796""]","[1,1,1,0]",0,47,47,47,1,0,0,,,1,FALSE,1.2331,,,,,,,,,,,,,,,,,,,,,,,,,,,,,,,
,60a2dc206ce94a429c60a885,627c67727295dc7c19c43c7f,2022-05-11_20h49.01.135,classification_task,2021.2.3,Win32,59.95922773,627c6715c52fd12f31907bcf,,,,,,,,,,,,,,,,,,,,,,,a,1,"[""0.294"",""0.512"",""0.836"",""0.915""]","[1,0,1,1]",0,48,48,48,1,0,1,,,1,FALSE,2.7327,,,,,,,,,,,,,,,,,,,,,,,,,,,,,,,
,60a2dc206ce94a429c60a885,627c67727295dc7c19c43c7f,2022-05-11_20h49.01.135,classification_task,2021.2.3,Win32,59.95922773,627c6715c52fd12f31907bcf,,,,,,,,,,,,,,,,,,,,,,,l,0,"[""0.802"",""0.381"",""0.836"",""0.915""]","[0,1,1,1]",0,49,49,49,1,0,1,,,1,FALSE,1.4137,,,,,,,,,,,,,,,,,,,,,,,,,,,,,,,
,60a2dc206ce94a429c60a885,627c67727295dc7c19c43c7f,2022-05-11_20h49.01.135,classification_task,2021.2.3,Win32,59.95922773,627c6715c52fd12f31907bcf,,,,,,,,,,,,,,,,,,,,,,,l,1,"[""0.146"",""0.261"",""0.033"",""0.686""]","[1,1,0,1]",0,50,50,50,1,1,1,,,1,FALSE,1.8501,,,,,,,,,,,,,,,,,,,,,,,,,,,,,,,
,60a2dc206ce94a429c60a885,627c67727295dc7c19c43c7f,2022-05-11_20h49.01.135,classification_task,2021.2.3,Win32,59.95922773,627c6715c52fd12f31907bcf,,,,,,,,,,,,,,,,,,,,,,,l,1,"[""0.040"",""0.422"",""0.612"",""0.738""]","[0,1,1,1]",0,51,51,51,1,1,0,,,1,FALSE,1.1326,,,,,,,,,,,,,,,,,,,,,,,,,,,,,,,
,60a2dc206ce94a429c60a885,627c67727295dc7c19c43c7f,2022-05-11_20h49.01.135,classification_task,2021.2.3,Win32,59.95922773,627c6715c52fd12f31907bcf,,,,,,,,,,,,,,,,,,,,,,,l,1,"[""0.146"",""0.467"",""0.548"",""0.686""]","[1,0,1,1]",0,52,52,52,1,1,1,,,1,FALSE,1.4825,,,,,,,,,,,,,,,,,,,,,,,,,,,,,,,
,60a2dc206ce94a429c60a885,627c67727295dc7c19c43c7f,2022-05-11_20h49.01.135,classification_task,2021.2.3,Win32,59.95922773,627c6715c52fd12f31907bcf,,,,,,,,,,,,,,,,,,,,,,,l,0,"[""0.199"",""0.342"",""0.470"",""0.951""]","[1,1,0,1]",0,53,53,53,1,0,0,,,1,FALSE,2.8994,,,,,,,,,,,,,,,,,,,,,,,,,,,,,,,
,60a2dc206ce94a429c60a885,627c67727295dc7c19c43c7f,2022-05-11_20h49.01.135,classification_task,2021.2.3,Win32,59.95922773,627c6715c52fd12f31907bcf,,,,,,,,,,,,,,,,,,,,,,,l,1,"[""0.040"",""0.261"",""0.548"",""0.686""]","[0,1,1,1]",0,54,54,54,1,1,1,,,1,FALSE,1.3329,,,,,,,,,,,,,,,,,,,,,,,,,,,,,,,
,60a2dc206ce94a429c60a885,627c67727295dc7c19c43c7f,2022-05-11_20h49.01.135,classification_task,2021.2.3,Win32,59.95922773,627c6715c52fd12f31907bcf,,,,,,,,,,,,,,,,,,,,,,,l,0,"[""0.294"",""0.381"",""0.836"",""0.496""]","[1,1,1,0]",0,55,55,55,1,0,1,,,1,FALSE,2.233,,,,,,,,,,,,,,,,,,,,,,,,,,,,,,,
,60a2dc206ce94a429c60a885,627c67727295dc7c19c43c7f,2022-05-11_20h49.01.135,classification_task,2021.2.3,Win32,59.95922773,627c6715c52fd12f31907bcf,,,,,,,,,,,,,,,,,,,,,,,l,0,"[""0.040"",""0.342"",""0.870"",""0.951""]","[0,1,1,1]",0,56,56,56,1,0,0,,,1,FALSE,1.367,,,,,,,,,,,,,,,,,,,,,,,,,,,,,,,
,60a2dc206ce94a429c60a885,627c67727295dc7c19c43c7f,2022-05-11_20h49.01.135,classification_task,2021.2.3,Win32,59.95922773,627c6715c52fd12f31907bcf,,,,,,,,,,,,,,,,,,,,,,,l,0,"[""0.199"",""0.496"",""0.870"",""0.951""]","[1,0,1,1]",0,57,57,57,1,0,0,,,1,FALSE,1.0172,,,,,,,,,,,,,,,,,,,,,,,,,,,,,,,
,60a2dc206ce94a429c60a885,627c67727295dc7c19c43c7f,2022-05-11_20h49.01.135,classification_task,2021.2.3,Win32,59.95922773,627c6715c52fd12f31907bcf,,,,,,,,,,,,,,,,,,,,,,,a,1,"[""0.199"",""0.342"",""0.870"",""0.033""]","[1,1,1,0]",0,58,58,58,1,0,0,,,1,FALSE,1.0333,,,,,,,,,,,,,,,,,,,,,,,,,,,,,,,
,60a2dc206ce94a429c60a885,627c67727295dc7c19c43c7f,2022-05-11_20h49.01.135,classification_task,2021.2.3,Win32,59.95922773,627c6715c52fd12f31907bcf,,,,,,,,,,,,,,,,,,,,,,,l,1,"[""0.089"",""0.422"",""0.802"",""0.738""]","[1,1,0,1]",0,59,59,59,1,1,0,,,1,FALSE,1.0644,,,,,,,,,,,,,,,,,,,,,,,,,,,,,,,
,60a2dc206ce94a429c60a885,627c67727295dc7c19c43c7f,2022-05-11_20h49.01.135,classification_task,2021.2.3,Win32,59.95922773,627c6715c52fd12f31907bcf,,,,,,,,,,,,,,,,,,,,,,,a,0,"[""0.146"",""0.261"",""0.548"",""0.497""]","[1,1,1,0]",0,60,60,60,1,1,1,,,1,FALSE,1.681,,,,,,,,,,,,,,,,,,,,,,,,,,,,,,,
,60a2dc206ce94a429c60a885,627c67727295dc7c19c43c7f,2022-05-11_20h49.01.135,classification_task,2021.2.3,Win32,59.95922773,627c6715c52fd12f31907bcf,,,,,,,,,,,,,,,,,,,,,,,a,1,"[""0.294"",""0.381"",""0.796"",""0.915""]","[1,1,0,1]",0,61,61,61,1,0,1,,,1,FALSE,1.1838,,,,,,,,,,,,,,,,,,,,,,,,,,,,,,,
,60a2dc206ce94a429c60a885,627c67727295dc7c19c43c7f,2022-05-11_20h49.01.135,classification_task,2021.2.3,Win32,59.95922773,627c6715c52fd12f31907bcf,,,,,,,,,,,,,,,,,,,,,,,a,0,"[""0.089"",""0.422"",""0.612"",""0.049""]","[1,1,1,0]",0,62,62,62,1,1,0,,,1,FALSE,0.9999,,,,,,,,,,,,,,,,,,,,,,,,,,,,,,,
,60a2dc206ce94a429c60a885,627c67727295dc7c19c43c7f,2022-05-11_20h49.01.135,classification_task,2021.2.3,Win32,59.95922773,627c6715c52fd12f31907bcf,,,,,,,,,,,,,,,,,,,,,,,a,0,"[""0.089"",""0.467"",""0.612"",""0.738""]","[1,0,1,1]",0,63,63,63,1,1,0,,,1,FALSE,0.6506,,,,,,,,,,,,,,,,,,,,,,,,,,,,,,,
,60a2dc206ce94a429c60a885,627c67727295dc7c19c43c7f,2022-05-11_20h49.01.135,classification_task,2021.2.3,Win32,59.95922773,627c6715c52fd12f31907bcf,,,,,,,,,,,,,,,,,,,,,,,,,,,,,,,,,,,,,,,0, ,,0,1.938075642,192.7858,0,1,1,1,1,2,2,,,,,,,,,,,,,,,,,,
,60a2dc206ce94a429c60a885,627c67727295dc7c19c43c7f,2022-05-11_20h49.01.135,classification_task,2021.2.3,Win32,59.95922773,627c6715c52fd12f31907bcf,,,,,,,,,,,,,,,,,,,,,,,,,,,,,,,,,,,,,,,1,  ,,0,6.518714482,196.6521,0,1,1,1,1,2,2,,,,,,,,,,,,,,,,,,
,60a2dc206ce94a429c60a885,627c67727295dc7c19c43c7f,2022-05-11_20h49.01.135,classification_task,2021.2.3,Win32,59.95922773,627c6715c52fd12f31907bcf,,,,,,,,,,,,,,,,,,,,,,,,,,,,,,,,,,,,,,,2,  ,,0,2.770919067,200.4315,0,1,1,1,1,2,2,,,,,,,,,,,,,,,,,,
,60a2dc206ce94a429c60a885,627c67727295dc7c19c43c7f,2022-05-11_20h49.01.135,classification_task,2021.2.3,Win32,59.95922773,627c6715c52fd12f31907bcf,,,,,,,,,,,,,,,,,,,,,,,,,,,,,,,,,,,,,,,,,,,,,0,1,1,1,1,,2,,,,,,,,,,,,,,,,,,
,60a2dc206ce94a429c60a885,627c67727295dc7c19c43c7f,2022-05-11_20h49.01.135,classification_task,2021.2.3,Win32,59.95922773,627c6715c52fd12f31907bcf,,,,,,,,,,,,,,,,,,,,,space,6.5515,a,0,"[""0.146"",""0.261"",""0.548"",""0.470""]","[1,1,1,0]",0,0,0,0,1,1,1,,,1,FALSE,1.9,,,,,,,,,,,,,,,,,,,,,,,,,,,,,,,
,60a2dc206ce94a429c60a885,627c67727295dc7c19c43c7f,2022-05-11_20h49.01.135,classification_task,2021.2.3,Win32,59.95922773,627c6715c52fd12f31907bcf,,,,,,,,,,,,,,,,,,,,,,,l,0,"[""0.199"",""0.342"",""0.512"",""0.951""]","[1,1,0,1]",0,1,1,1,1,0,0,,,1,FALSE,2.3483,,,,,,,,,,,,,,,,,,,,,,,,,,,,,,,
,60a2dc206ce94a429c60a885,627c67727295dc7c19c43c7f,2022-05-11_20h49.01.135,classification_task,2021.2.3,Win32,59.95922773,627c6715c52fd12f31907bcf,,,,,,,,,,,,,,,,,,,,,,,l,0,"[""0.294"",""0.381"",""0.496"",""0.915""]","[1,1,0,1]",0,2,2,2,1,0,1,,,1,FALSE,3.7001,,,,,,,,,,,,,,,,,,,,,,,,,,,,,,,
,60a2dc206ce94a429c60a885,627c67727295dc7c19c43c7f,2022-05-11_20h49.01.135,classification_task,2021.2.3,Win32,59.95922773,627c6715c52fd12f31907bcf,,,,,,,,,,,,,,,,,,,,,,,a,0,"[""0.089"",""0.422"",""0.497"",""0.738""]","[1,1,0,1]",0,3,3,3,1,1,0,,,1,FALSE,1.1505,,,,,,,,,,,,,,,,,,,,,,,,,,,,,,,
,60a2dc206ce94a429c60a885,627c67727295dc7c19c43c7f,2022-05-11_20h49.01.135,classification_task,2021.2.3,Win32,59.95922773,627c6715c52fd12f31907bcf,,,,,,,,,,,,,,,,,,,,,,,l,0,"[""0.199"",""0.342"",""0.870"",""0.470""]","[1,1,1,0]",0,4,4,4,1,0,0,,,1,FALSE,4.0171,,,,,,,,,,,,,,,,,,,,,,,,,,,,,,,
,60a2dc206ce94a429c60a885,627c67727295dc7c19c43c7f,2022-05-11_20h49.01.135,classification_task,2021.2.3,Win32,59.95922773,627c6715c52fd12f31907bcf,,,,,,,,,,,,,,,,,,,,,,,l,1,"[""0.146"",""0.802"",""0.548"",""0.686""]","[1,0,1,1]",0,5,5,5,1,1,1,,,1,FALSE,2.724,,,,,,,,,,,,,,,,,,,,,,,,,,,,,,,
,60a2dc206ce94a429c60a885,627c67727295dc7c19c43c7f,2022-05-11_20h49.01.135,classification_task,2021.2.3,Win32,59.95922773,627c6715c52fd12f31907bcf,,,,,,,,,,,,,,,,,,,,,,,a,0,"[""0.089"",""0.791"",""0.612"",""0.738""]","[1,0,1,1]",0,6,6,6,1,1,0,,,1,FALSE,1.8004,,,,,,,,,,,,,,,,,,,,,,,,,,,,,,,
,60a2dc206ce94a429c60a885,627c67727295dc7c19c43c7f,2022-05-11_20h49.01.135,classification_task,2021.2.3,Win32,59.95922773,627c6715c52fd12f31907bcf,,,,,,,,,,,,,,,,,,,,,,,a,1,"[""0.294"",""0.033"",""0.836"",""0.915""]","[1,0,1,1]",0,7,7,7,1,0,1,,,1,FALSE,1.8505,,,,,,,,,,,,,,,,,,,,,,,,,,,,,,,
,60a2dc206ce94a429c60a885,627c67727295dc7c19c43c7f,2022-05-11_20h49.01.135,classification_task,2021.2.3,Win32,59.95922773,627c6715c52fd12f31907bcf,,,,,,,,,,,,,,,,,,,,,,,l,1,"[""0.089"",""0.422"",""0.612"",""0.651""]","[1,1,1,0]",0,8,8,8,1,1,0,,,1,FALSE,0.767,,,,,,,,,,,,,,,,,,,,,,,,,,,,,,,
,60a2dc206ce94a429c60a885,627c67727295dc7c19c43c7f,2022-05-11_20h49.01.135,classification_task,2021.2.3,Win32,59.95922773,627c6715c52fd12f31907bcf,,,,,,,,,,,,,,,,,,,,,,,l,0,"[""0.294"",""0.381"",""0.836"",""0.505""]","[1,1,1,0]",0,9,9,9,1,0,1,,,1,FALSE,2.3333,,,,,,,,,,,,,,,,,,,,,,,,,,,,,,,
,60a2dc206ce94a429c60a885,627c67727295dc7c19c43c7f,2022-05-11_20h49.01.135,classification_task,2021.2.3,Win32,59.95922773,627c6715c52fd12f31907bcf,,,,,,,,,,,,,,,,,,,,,,,a,1,"[""0.512"",""0.342"",""0.870"",""0.951""]","[0,1,1,1]",0,10,10,10,1,0,0,,,1,FALSE,1.6501,,,,,,,,,,,,,,,,,,,,,,,,,,,,,,,
,60a2dc206ce94a429c60a885,627c67727295dc7c19c43c7f,2022-05-11_20h49.01.135,classification_task,2021.2.3,Win32,59.95922773,627c6715c52fd12f31907bcf,,,,,,,,,,,,,,,,,,,,,,,a,0,"[""0.049"",""0.261"",""0.548"",""0.686""]","[0,1,1,1]",0,11,11,11,1,1,1,,,1,FALSE,1.4505,,,,,,,,,,,,,,,,,,,,,,,,,,,,,,,
,60a2dc206ce94a429c60a885,627c67727295dc7c19c43c7f,2022-05-11_20h49.01.135,classification_task,2021.2.3,Win32,59.95922773,627c6715c52fd12f31907bcf,,,,,,,,,,,,,,,,,,,,,,,l,0,"[""0.199"",""0.033"",""0.870"",""0.951""]","[1,0,1,1]",0,12,12,12,1,0,0,,,1,FALSE,2.6835,,,,,,,,,,,,,,,,,,,,,,,,,,,,,,,
,60a2dc206ce94a429c60a885,627c67727295dc7c19c43c7f,2022-05-11_20h49.01.135,classification_task,2021.2.3,Win32,59.95922773,627c6715c52fd12f31907bcf,,,,,,,,,,,,,,,,,,,,,,,l,0,"[""0.651"",""0.381"",""0.836"",""0.915""]","[0,1,1,1]",0,13,13,13,1,0,1,,,1,FALSE,2.0343,,,,,,,,,,,,,,,,,,,,,,,,,,,,,,,
,60a2dc206ce94a429c60a885,627c67727295dc7c19c43c7f,2022-05-11_20h49.01.135,classification_task,2021.2.3,Win32,59.95922773,627c6715c52fd12f31907bcf,,,,,,,,,,,,,,,,,,,,,,,a,0,"[""0.146"",""0.261"",""0.790"",""0.686""]","[1,1,0,1]",0,14,14,14,1,1,1,,,1,FALSE,1.683,,,,,,,,,,,,,,,,,,,,,,,,,,,,,,,
,60a2dc206ce94a429c60a885,627c67727295dc7c19c43c7f,2022-05-11_20h49.01.135,classification_task,2021.2.3,Win32,59.95922773,627c6715c52fd12f31907bcf,,,,,,,,,,,,,,,,,,,,,,,l,1,"[""0.497"",""0.422"",""0.612"",""0.738""]","[0,1,1,1]",0,15,15,15,1,1,0,,,1,FALSE,1.5,,,,,,,,,,,,,,,,,,,,,,,,,,,,,,,
,60a2dc206ce94a429c60a885,627c67727295dc7c19c43c7f,2022-05-11_20h49.01.135,classification_task,2021.2.3,Win32,59.95922773,627c6715c52fd12f31907bcf,,,,,,,,,,,,,,,,,,,,,,,a,0,"[""0.146"",""0.261"",""0.548"",""0.049""]","[1,1,1,0]",0,16,16,16,1,1,1,,,1,FALSE,1.267,,,,,,,,,,,,,,,,,,,,,,,,,,,,,,,
,60a2dc206ce94a429c60a885,627c67727295dc7c19c43c7f,2022-05-11_20h49.01.135,classification_task,2021.2.3,Win32,59.95922773,627c6715c52fd12f31907bcf,,,,,,,,,,,,,,,,,,,,,,,l,1,"[""0.146"",""0.261"",""0.791"",""0.686""]","[1,1,0,1]",0,17,17,17,1,1,1,,,1,FALSE,1.7169,,,,,,,,,,,,,,,,,,,,,,,,,,,,,,,
,60a2dc206ce94a429c60a885,627c67727295dc7c19c43c7f,2022-05-11_20h49.01.135,classification_task,2021.2.3,Win32,59.95922773,627c6715c52fd12f31907bcf,,,,,,,,,,,,,,,,,,,,,,,l,0,"[""0.199"",""0.342"",""0.870"",""0.497""]","[1,1,1,0]",0,18,18,18,1,0,0,,,1,FALSE,1.2834,,,,,,,,,,,,,,,,,,,,,,,,,,,,,,,
,60a2dc206ce94a429c60a885,627c67727295dc7c19c43c7f,2022-05-11_20h49.01.135,classification_task,2021.2.3,Win32,59.95922773,627c6715c52fd12f31907bcf,,,,,,,,,,,,,,,,,,,,,,,l,0,"[""0.294"",""0.381"",""0.836"",""0.791""]","[1,1,1,0]",0,19,19,19,1,0,1,,,1,FALSE,1.1163,,,,,,,,,,,,,,,,,,,,,,,,,,,,,,,
,60a2dc206ce94a429c60a885,627c67727295dc7c19c43c7f,2022-05-11_20h49.01.135,classification_task,2021.2.3,Win32,59.95922773,627c6715c52fd12f31907bcf,,,,,,,,,,,,,,,,,,,,,,,l,1,"[""0.089"",""0.422"",""0.612"",""0.496""]","[1,1,1,0]",0,20,20,20,1,1,0,,,1,FALSE,1.2168,,,,,,,,,,,,,,,,,,,,,,,,,,,,,,,
,60a2dc206ce94a429c60a885,627c67727295dc7c19c43c7f,2022-05-11_20h49.01.135,classification_task,2021.2.3,Win32,59.95922773,627c6715c52fd12f31907bcf,,,,,,,,,,,,,,,,,,,,,,,l,0,"[""0.294"",""0.381"",""0.802"",""0.915""]","[1,1,0,1]",0,21,21,21,1,0,1,,,1,FALSE,1.2999,,,,,,,,,,,,,,,,,,,,,,,,,,,,,,,
,60a2dc206ce94a429c60a885,627c67727295dc7c19c43c7f,2022-05-11_20h49.01.135,classification_task,2021.2.3,Win32,59.95922773,627c6715c52fd12f31907bcf,,,,,,,,,,,,,,,,,,,,,,,l,1,"[""0.796"",""0.422"",""0.612"",""0.738""]","[0,1,1,1]",0,22,22,22,1,1,0,,,1,FALSE,0.7507,,,,,,,,,,,,,,,,,,,,,,,,,,,,,,,
,60a2dc206ce94a429c60a885,627c67727295dc7c19c43c7f,2022-05-11_20h49.01.135,classification_task,2021.2.3,Win32,59.95922773,627c6715c52fd12f31907bcf,,,,,,,,,,,,,,,,,,,,,,,a,0,"[""0.089"",""0.422"",""0.802"",""0.738""]","[1,1,0,1]",0,23,23,23,1,1,0,,,1,FALSE,0.4673,,,,,,,,,,,,,,,,,,,,,,,,,,,,,,,
,60a2dc206ce94a429c60a885,627c67727295dc7c19c43c7f,2022-05-11_20h49.01.135,classification_task,2021.2.3,Win32,59.95922773,627c6715c52fd12f31907bcf,,,,,,,,,,,,,,,,,,,,,,,l,0,"[""0.505"",""0.342"",""0.870"",""0.951""]","[0,1,1,1]",0,24,24,24,1,0,0,,,1,FALSE,1.2334,,,,,,,,,,,,,,,,,,,,,,,,,,,,,,,
,60a2dc206ce94a429c60a885,627c67727295dc7c19c43c7f,2022-05-11_20h49.01.135,classification_task,2021.2.3,Win32,59.95922773,627c6715c52fd12f31907bcf,,,,,,,,,,,,,,,,,,,,,,,a,1,"[""0.199"",""0.342"",""0.796"",""0.951""]","[1,1,0,1]",0,25,25,25,1,0,0,,,1,FALSE,1.084,,,,,,,,,,,,,,,,,,,,,,,,,,,,,,,
,60a2dc206ce94a429c60a885,627c67727295dc7c19c43c7f,2022-05-11_20h49.01.135,classification_task,2021.2.3,Win32,59.95922773,627c6715c52fd12f31907bcf,,,,,,,,,,,,,,,,,,,,,,,a,1,"[""0.199"",""0.790"",""0.870"",""0.951""]","[1,0,1,1]",0,26,26,26,1,0,0,,,1,FALSE,2.2336,,,,,,,,,,,,,,,,,,,,,,,,,,,,,,,
,60a2dc206ce94a429c60a885,627c67727295dc7c19c43c7f,2022-05-11_20h49.01.135,classification_task,2021.2.3,Win32,59.95922773,627c6715c52fd12f31907bcf,,,,,,,,,,,,,,,,,,,,,,,l,0,"[""0.499"",""0.381"",""0.836"",""0.915""]","[0,1,1,1]",0,27,27,27,1,0,1,,,1,FALSE,1.4336,,,,,,,,,,,,,,,,,,,,,,,,,,,,,,,
,60a2dc206ce94a429c60a885,627c67727295dc7c19c43c7f,2022-05-11_20h49.01.135,classification_task,2021.2.3,Win32,59.95922773,627c6715c52fd12f31907bcf,,,,,,,,,,,,,,,,,,,,,,,a,0,"[""0.089"",""0.499"",""0.612"",""0.738""]","[1,0,1,1]",0,28,28,28,1,1,0,,,1,FALSE,2.067,,,,,,,,,,,,,,,,,,,,,,,,,,,,,,,
,60a2dc206ce94a429c60a885,627c67727295dc7c19c43c7f,2022-05-11_20h49.01.135,classification_task,2021.2.3,Win32,59.95922773,627c6715c52fd12f31907bcf,,,,,,,,,,,,,,,,,,,,,,,l,1,"[""0.791"",""0.261"",""0.548"",""0.686""]","[0,1,1,1]",0,29,29,29,1,1,1,,,1,FALSE,2.0998,,,,,,,,,,,,,,,,,,,,,,,,,,,,,,,
,60a2dc206ce94a429c60a885,627c67727295dc7c19c43c7f,2022-05-11_20h49.01.135,classification_task,2021.2.3,Win32,59.95922773,627c6715c52fd12f31907bcf,,,,,,,,,,,,,,,,,,,,,,,l,1,"[""0.146"",""0.791"",""0.548"",""0.686""]","[1,0,1,1]",0,30,30,30,1,1,1,,,1,FALSE,3.6396,,,,,,,,,,,,,,,,,,,,,,,,,,,,,,,
,60a2dc206ce94a429c60a885,627c67727295dc7c19c43c7f,2022-05-11_20h49.01.135,classification_task,2021.2.3,Win32,59.95922773,627c6715c52fd12f31907bcf,,,,,,,,,,,,,,,,,,,,,,,a,1,"[""0.294"",""0.033"",""0.836"",""0.915""]","[1,0,1,1]",0,31,31,31,1,0,1,,,1,FALSE,2.8169,,,,,,,,,,,,,,,,,,,,,,,,,,,,,,,
,60a2dc206ce94a429c60a885,627c67727295dc7c19c43c7f,2022-05-11_20h49.01.135,classification_task,2021.2.3,Win32,59.95922773,627c6715c52fd12f31907bcf,,,,,,,,,,,,,,,,,,,,,,,l,0,"[""0.199"",""0.790"",""0.870"",""0.951""]","[1,0,1,1]",0,32,32,32,1,0,0,,,1,FALSE,1.8505,,,,,,,,,,,,,,,,,,,,,,,,,,,,,,,
,60a2dc206ce94a429c60a885,627c67727295dc7c19c43c7f,2022-05-11_20h49.01.135,classification_task,2021.2.3,Win32,59.95922773,627c6715c52fd12f31907bcf,,,,,,,,,,,,,,,,,,,,,,,a,0,"[""0.089"",""0.049"",""0.612"",""0.738""]","[1,0,1,1]",0,33,33,33,1,1,0,,,1,FALSE,1.8998,,,,,,,,,,,,,,,,,,,,,,,,,,,,,,,
,60a2dc206ce94a429c60a885,627c67727295dc7c19c43c7f,2022-05-11_20h49.01.135,classification_task,2021.2.3,Win32,59.95922773,627c6715c52fd12f31907bcf,,,,,,,,,,,,,,,,,,,,,,,l,1,"[""0.089"",""0.422"",""0.612"",""0.505""]","[1,1,1,0]",0,34,34,34,1,1,0,,,1,FALSE,1.9835,,,,,,,,,,,,,,,,,,,,,,,,,,,,,,,
,60a2dc206ce94a429c60a885,627c67727295dc7c19c43c7f,2022-05-11_20h49.01.135,classification_task,2021.2.3,Win32,59.95922773,627c6715c52fd12f31907bcf,,,,,,,,,,,,,,,,,,,,,,,l,0,"[""0.499"",""0.381"",""0.836"",""0.915""]","[0,1,1,1]",0,35,35,35,1,0,1,,,1,FALSE,2.2664,,,,,,,,,,,,,,,,,,,,,,,,,,,,,,,
,60a2dc206ce94a429c60a885,627c67727295dc7c19c43c7f,2022-05-11_20h49.01.135,classification_task,2021.2.3,Win32,59.95922773,627c6715c52fd12f31907bcf,,,,,,,,,,,,,,,,,,,,,,,a,0,"[""0.499"",""0.422"",""0.612"",""0.738""]","[0,1,1,1]",0,36,36,36,1,1,0,,,1,FALSE,1.0005,,,,,,,,,,,,,,,,,,,,,,,,,,,,,,,
,60a2dc206ce94a429c60a885,627c67727295dc7c19c43c7f,2022-05-11_20h49.01.135,classification_task,2021.2.3,Win32,59.95922773,627c6715c52fd12f31907bcf,,,,,,,,,,,,,,,,,,,,,,,l,0,"[""0.294"",""0.381"",""0.470"",""0.915""]","[1,1,0,1]",0,37,37,37,1,0,1,,,1,FALSE,0.7672,,,,,,,,,,,,,,,,,,,,,,,,,,,,,,,
,60a2dc206ce94a429c60a885,627c67727295dc7c19c43c7f,2022-05-11_20h49.01.135,classification_task,2021.2.3,Win32,59.95922773,627c6715c52fd12f31907bcf,,,,,,,,,,,,,,,,,,,,,,,l,0,"[""0.505"",""0.342"",""0.870"",""0.951""]","[0,1,1,1]",0,38,38,38,1,0,0,,,1,FALSE,0.6834,,,,,,,,,,,,,,,,,,,,,,,,,,,,,,,
,60a2dc206ce94a429c60a885,627c67727295dc7c19c43c7f,2022-05-11_20h49.01.135,classification_task,2021.2.3,Win32,59.95922773,627c6715c52fd12f31907bcf,,,,,,,,,,,,,,,,,,,,,,,a,0,"[""0.499"",""0.261"",""0.548"",""0.686""]","[0,1,1,1]",0,39,39,39,1,1,1,,,1,FALSE,0.5001,,,,,,,,,,,,,,,,,,,,,,,,,,,,,,,
,60a2dc206ce94a429c60a885,627c67727295dc7c19c43c7f,2022-05-11_20h49.01.135,classification_task,2021.2.3,Win32,59.95922773,627c6715c52fd12f31907bcf,,,,,,,,,,,,,,,,,,,,,,,a,1,"[""0.294"",""0.381"",""0.836"",""0.482""]","[1,1,1,0]",0,40,40,40,1,0,1,,,1,FALSE,2.3,,,,,,,,,,,,,,,,,,,,,,,,,,,,,,,
,60a2dc206ce94a429c60a885,627c67727295dc7c19c43c7f,2022-05-11_20h49.01.135,classification_task,2021.2.3,Win32,59.95922773,627c6715c52fd12f31907bcf,,,,,,,,,,,,,,,,,,,,,,,l,0,"[""0.199"",""0.342"",""0.470"",""0.951""]","[1,1,0,1]",0,41,41,41,1,0,0,,,1,FALSE,1.6641,,,,,,,,,,,,,,,,,,,,,,,,,,,,,,,
,60a2dc206ce94a429c60a885,627c67727295dc7c19c43c7f,2022-05-11_20h49.01.135,classification_task,2021.2.3,Win32,59.95922773,627c6715c52fd12f31907bcf,,,,,,,,,,,,,,,,,,,,,,,a,0,"[""0.146"",""0.791"",""0.548"",""0.686""]","[1,0,1,1]",0,42,42,42,1,1,1,,,1,FALSE,0.8835,,,,,,,,,,,,,,,,,,,,,,,,,,,,,,,
,60a2dc206ce94a429c60a885,627c67727295dc7c19c43c7f,2022-05-11_20h49.01.135,classification_task,2021.2.3,Win32,59.95922773,627c6715c52fd12f31907bcf,,,,,,,,,,,,,,,,,,,,,,,a,0,"[""0.146"",""0.261"",""0.791"",""0.686""]","[1,1,0,1]",0,43,43,43,1,1,1,,,1,FALSE,3.9331,,,,,,,,,,,,,,,,,,,,,,,,,,,,,,,
,60a2dc206ce94a429c60a885,627c67727295dc7c19c43c7f,2022-05-11_20h49.01.135,classification_task,2021.2.3,Win32,59.95922773,627c6715c52fd12f31907bcf,,,,,,,,,,,,,,,,,,,,,,,l,1,"[""0.089"",""0.422"",""0.796"",""0.738""]","[1,1,0,1]",0,44,44,44,1,1,0,,,1,FALSE,2.6671,,,,,,,,,,,,,,,,,,,,,,,,,,,,,,,
,60a2dc206ce94a429c60a885,627c67727295dc7c19c43c7f,2022-05-11_20h49.01.135,classification_task,2021.2.3,Win32,59.95922773,627c6715c52fd12f31907bcf,,,,,,,,,,,,,,,,,,,,,,,a,1,"[""0.199"",""0.342"",""0.870"",""0.796""]","[1,1,1,0]",0,45,45,45,1,0,0,,,1,FALSE,2.7997,,,,,,,,,,,,,,,,,,,,,,,,,,,,,,,
,60a2dc206ce94a429c60a885,627c67727295dc7c19c43c7f,2022-05-11_20h49.01.135,classification_task,2021.2.3,Win32,59.95922773,627c6715c52fd12f31907bcf,,,,,,,,,,,,,,,,,,,,,,,l,0,"[""0.294"",""0.033"",""0.836"",""0.915""]","[1,0,1,1]",0,46,46,46,1,0,1,,,1,FALSE,5.0482,,,,,,,,,,,,,,,,,,,,,,,,,,,,,,,
,60a2dc206ce94a429c60a885,627c67727295dc7c19c43c7f,2022-05-11_20h49.01.135,classification_task,2021.2.3,Win32,59.95922773,627c6715c52fd12f31907bcf,,,,,,,,,,,,,,,,,,,,,,,l,1,"[""0.146"",""0.261"",""0.548"",""0.470""]","[1,1,1,0]",0,47,47,47,1,1,1,,,1,FALSE,2.2838,,,,,,,,,,,,,,,,,,,,,,,,,,,,,,,
,60a2dc206ce94a429c60a885,627c67727295dc7c19c43c7f,2022-05-11_20h49.01.135,classification_task,2021.2.3,Win32,59.95922773,627c6715c52fd12f31907bcf,,,,,,,,,,,,,,,,,,,,,,,a,1,"[""0.199"",""0.791"",""0.870"",""0.951""]","[1,0,1,1]",0,48,48,48,1,0,0,,,1,FALSE,3.7826,,,,,,,,,,,,,,,,,,,,,,,,,,,,,,,
,60a2dc206ce94a429c60a885,627c67727295dc7c19c43c7f,2022-05-11_20h49.01.135,classification_task,2021.2.3,Win32,59.95922773,627c6715c52fd12f31907bcf,,,,,,,,,,,,,,,,,,,,,,,l,1,"[""0.089"",""0.422"",""0.612"",""0.040""]","[1,1,1,0]",0,49,49,49,1,1,0,,,1,FALSE,0.9833,,,,,,,,,,,,,,,,,,,,,,,,,,,,,,,
,60a2dc206ce94a429c60a885,627c67727295dc7c19c43c7f,2022-05-11_20h49.01.135,classification_task,2021.2.3,Win32,59.95922773,627c6715c52fd12f31907bcf,,,,,,,,,,,,,,,,,,,,,,,l,1,"[""0.496"",""0.422"",""0.612"",""0.738""]","[0,1,1,1]",0,50,50,50,1,1,0,,,1,FALSE,2.0004,,,,,,,,,,,,,,,,,,,,,,,,,,,,,,,
,60a2dc206ce94a429c60a885,627c67727295dc7c19c43c7f,2022-05-11_20h49.01.135,classification_task,2021.2.3,Win32,59.95922773,627c6715c52fd12f31907bcf,,,,,,,,,,,,,,,,,,,,,,,l,0,"[""0.199"",""0.342"",""0.870"",""0.497""]","[1,1,1,0]",0,51,51,51,1,0,0,,,1,FALSE,1.1998,,,,,,,,,,,,,,,,,,,,,,,,,,,,,,,
,60a2dc206ce94a429c60a885,627c67727295dc7c19c43c7f,2022-05-11_20h49.01.135,classification_task,2021.2.3,Win32,59.95922773,627c6715c52fd12f31907bcf,,,,,,,,,,,,,,,,,,,,,,,l,0,"[""0.505"",""0.381"",""0.836"",""0.915""]","[0,1,1,1]",0,52,52,52,1,0,1,,,1,FALSE,3.4,,,,,,,,,,,,,,,,,,,,,,,,,,,,,,,
,60a2dc206ce94a429c60a885,627c67727295dc7c19c43c7f,2022-05-11_20h49.01.135,classification_task,2021.2.3,Win32,59.95922773,627c6715c52fd12f31907bcf,,,,,,,,,,,,,,,,,,,,,,,a,1,"[""0.294"",""0.470"",""0.836"",""0.915""]","[1,0,1,1]",0,53,53,53,1,0,1,,,1,FALSE,2.5985,,,,,,,,,,,,,,,,,,,,,,,,,,,,,,,
,60a2dc206ce94a429c60a885,627c67727295dc7c19c43c7f,2022-05-11_20h49.01.135,classification_task,2021.2.3,Win32,59.95922773,627c6715c52fd12f31907bcf,,,,,,,,,,,,,,,,,,,,,,,l,0,"[""0.294"",""0.381"",""0.836"",""0.505""]","[1,1,1,0]",0,54,54,54,1,0,1,,,1,FALSE,1.8997,,,,,,,,,,,,,,,,,,,,,,,,,,,,,,,
,60a2dc206ce94a429c60a885,627c67727295dc7c19c43c7f,2022-05-11_20h49.01.135,classification_task,2021.2.3,Win32,59.95922773,627c6715c52fd12f31907bcf,,,,,,,,,,,,,,,,,,,,,,,l,1,"[""0.146"",""0.482"",""0.548"",""0.686""]","[1,0,1,1]",0,55,55,55,1,1,1,,,1,FALSE,2.5835,,,,,,,,,,,,,,,,,,,,,,,,,,,,,,,
,60a2dc206ce94a429c60a885,627c67727295dc7c19c43c7f,2022-05-11_20h49.01.135,classification_task,2021.2.3,Win32,59.95922773,627c6715c52fd12f31907bcf,,,,,,,,,,,,,,,,,,,,,,,a,0,"[""0.089"",""0.482"",""0.612"",""0.738""]","[1,0,1,1]",0,56,56,56,1,1,0,,,1,FALSE,1.5665,,,,,,,,,,,,,,,,,,,,,,,,,,,,,,,
,60a2dc206ce94a429c60a885,627c67727295dc7c19c43c7f,2022-05-11_20h49.01.135,classification_task,2021.2.3,Win32,59.95922773,627c6715c52fd12f31907bcf,,,,,,,,,,,,,,,,,,,,,,,a,0,"[""0.146"",""0.261"",""0.548"",""0.467""]","[1,1,1,0]",0,57,57,57,1,1,1,,,1,FALSE,0.1983,,,,,,,,,,,,,,,,,,,,,,,,,,,,,,,
,60a2dc206ce94a429c60a885,627c67727295dc7c19c43c7f,2022-05-11_20h49.01.135,classification_task,2021.2.3,Win32,59.95922773,627c6715c52fd12f31907bcf,,,,,,,,,,,,,,,,,,,,,,,l,1,"[""0.146"",""0.261"",""0.651"",""0.686""]","[1,1,0,1]",0,58,58,58,1,1,1,,,1,FALSE,2.6329,,,,,,,,,,,,,,,,,,,,,,,,,,,,,,,
,60a2dc206ce94a429c60a885,627c67727295dc7c19c43c7f,2022-05-11_20h49.01.135,classification_task,2021.2.3,Win32,59.95922773,627c6715c52fd12f31907bcf,,,,,,,,,,,,,,,,,,,,,,,a,1,"[""0.199"",""0.342"",""0.651"",""0.951""]","[1,1,0,1]",0,59,59,59,1,0,0,,,1,FALSE,3.7502,,,,,,,,,,,,,,,,,,,,,,,,,,,,,,,
,60a2dc206ce94a429c60a885,627c67727295dc7c19c43c7f,2022-05-11_20h49.01.135,classification_task,2021.2.3,Win32,59.95922773,627c6715c52fd12f31907bcf,,,,,,,,,,,,,,,,,,,,,,,l,0,"[""0.294"",""0.381"",""0.040"",""0.915""]","[1,1,0,1]",0,60,60,60,1,0,1,,,1,FALSE,2.6667,,,,,,,,,,,,,,,,,,,,,,,,,,,,,,,
,60a2dc206ce94a429c60a885,627c67727295dc7c19c43c7f,2022-05-11_20h49.01.135,classification_task,2021.2.3,Win32,59.95922773,627c6715c52fd12f31907bcf,,,,,,,,,,,,,,,,,,,,,,,l,1,"[""0.089"",""0.422"",""0.470"",""0.738""]","[1,1,0,1]",0,61,61,61,1,1,0,,,1,FALSE,4.1002,,,,,,,,,,,,,,,,,,,,,,,,,,,,,,,
,60a2dc206ce94a429c60a885,627c67727295dc7c19c43c7f,2022-05-11_20h49.01.135,classification_task,2021.2.3,Win32,59.95922773,627c6715c52fd12f31907bcf,,,,,,,,,,,,,,,,,,,,,,,l,0,"[""0.040"",""0.342"",""0.870"",""0.951""]","[0,1,1,1]",0,62,62,62,1,0,0,,,1,FALSE,3.0977,,,,,,,,,,,,,,,,,,,,,,,,,,,,,,,
,60a2dc206ce94a429c60a885,627c67727295dc7c19c43c7f,2022-05-11_20h49.01.135,classification_task,2021.2.3,Win32,59.95922773,627c6715c52fd12f31907bcf,,,,,,,,,,,,,,,,,,,,,,,l,1,"[""0.496"",""0.261"",""0.548"",""0.686""]","[0,1,1,1]",0,63,63,63,1,1,1,,,1,FALSE,4.367,,,,,,,,,,,,,,,,,,,,,,,,,,,,,,,
,60a2dc206ce94a429c60a885,627c67727295dc7c19c43c7f,2022-05-11_20h49.01.135,classification_task,2021.2.3,Win32,59.95922773,627c6715c52fd12f31907bcf,,,,,,,,,,,,,,,,,,,,,,,,,,,,,,,,,,,,,,,0, ,,0,1.595140114,210.2839,0,2,2,2,1,2,3,,,,,,,,,,,,,,,,,,
,60a2dc206ce94a429c60a885,627c67727295dc7c19c43c7f,2022-05-11_20h49.01.135,classification_task,2021.2.3,Win32,59.95922773,627c6715c52fd12f31907bcf,,,,,,,,,,,,,,,,,,,,,,,,,,,,,,,,,,,,,,,1,  ,,0,6.298255928,216.3431,0,2,2,2,1,2,3,,,,,,,,,,,,,,,,,,
,60a2dc206ce94a429c60a885,627c67727295dc7c19c43c7f,2022-05-11_20h49.01.135,classification_task,2021.2.3,Win32,59.95922773,627c6715c52fd12f31907bcf,,,,,,,,,,,,,,,,,,,,,,,,,,,,,,,,,,,,,,,2,  ,,0,1.129727611,219.1434,0,2,2,2,1,2,3,,,,,,,,,,,,,,,,,,
,60a2dc206ce94a429c60a885,627c67727295dc7c19c43c7f,2022-05-11_20h49.01.135,classification_task,2021.2.3,Win32,59.95922773,627c6715c52fd12f31907bcf,,,,,,,,,,,,,,,,,,,,,,,,,,,,,,,,,,,,,,,,,,,,,0,2,2,2,1,,3,,,,,,,,,,,,,,,,,,
,60a2dc206ce94a429c60a885,627c67727295dc7c19c43c7f,2022-05-11_20h49.01.135,classification_task,2021.2.3,Win32,59.95922773,627c6715c52fd12f31907bcf,,,,,,,,,,,,,,,,,,,,,,,,,,,,,,,,,,,,,,,,,,,,,,,,,,,,,I believe the aid is a competent performer,,0.7,0,2,1035.9133,0,0,0,0,1,0,,,,,
,60a2dc206ce94a429c60a885,627c67727295dc7c19c43c7f,2022-05-11_20h49.01.135,classification_task,2021.2.3,Win32,59.95922773,627c6715c52fd12f31907bcf,,,,,,,,,,,,,,,,,,,,,,,,,,,,,,,,,,,,,,,,,,,,,,,,,,,,,I trust the aid,,0.7,0,3,1038.7717,0,0,0,0,1,0,,,,,
,60a2dc206ce94a429c60a885,627c67727295dc7c19c43c7f,2022-05-11_20h49.01.135,classification_task,2021.2.3,Win32,59.95922773,627c6715c52fd12f31907bcf,,,,,,,,,,,,,,,,,,,,,,,,,,,,,,,,,,,,,,,,,,,,,,,,,,,,,I have confidence in the advice given by the aid,,0.7,0,2,1040.5754,0,0,0,0,1,0,,,,,
,60a2dc206ce94a429c60a885,627c67727295dc7c19c43c7f,2022-05-11_20h49.01.135,classification_task,2021.2.3,Win32,59.95922773,627c6715c52fd12f31907bcf,,,,,,,,,,,,,,,,,,,,,,,,,,,,,,,,,,,,,,,,,,,,,,,,,,,,,I can depend on the aid,,0.7,0,2,1042.1247,0,0,0,0,1,0,,,,,
,60a2dc206ce94a429c60a885,627c67727295dc7c19c43c7f,2022-05-11_20h49.01.135,classification_task,2021.2.3,Win32,59.95922773,627c6715c52fd12f31907bcf,,,,,,,,,,,,,,,,,,,,,,,,,,,,,,,,,,,,,,,,,,,,,,,,,,,,,I can rely on the aid to behave in consistent ways,,0.7,0,2,1047.6466,0,0,0,0,1,0,,,,,
,60a2dc206ce94a429c60a885,627c67727295dc7c19c43c7f,2022-05-11_20h49.01.135,classification_task,2021.2.3,Win32,59.95922773,627c6715c52fd12f31907bcf,,,,,,,,,,,,,,,,,,,,,,,,,,,,,,,,,,,,,,,,,,,,,,,,,,,,,I can rely on the aid to do its best every time I take its advice,,0.7,0,2,1050.8449,0,0,0,0,1,0,,,,,
,60a2dc206ce94a429c60a885,627c67727295dc7c19c43c7f,2022-05-11_20h49.01.135,classification_task,2021.2.3,Win32,59.95922773,627c6715c52fd12f31907bcf,,,,,,,,,,,,,,,,,,,,,,,,,,,,,,,,,,,,,,,,,,,,,,,,,,,,,"On trials you completed with assistance from the aid, how frequently did you think the aid was correct?",,0.7,0,75%,,0,0,0,0,1,0,,,,,
,60a2dc206ce94a429c60a885,627c67727295dc7c19c43c7f,2022-05-11_20h49.01.135,classification_task,2021.2.3,Win32,59.95922773,627c6715c52fd12f31907bcf,,,,,,,,,,,,,,,,,,,,,,,,,,,,,,,,,,,,,,,,,,,,,,,,,,,,,"On trials you completed without the aid, how frequently did you think you were correct?",,0.7,0,50%,,0,0,0,0,1,0,,,,,
,60a2dc206ce94a429c60a885,627c67727295dc7c19c43c7f,2022-05-11_20h49.01.135,classification_task,2021.2.3,Win32,59.95922773,627c6715c52fd12f31907bcf,,,,,,,,,,,,,,,,,,,,,,,,,,,,,,,,,,,,,,,,,,,,,,,,,,,,,,,,,,,0,0,0,0,1,,,,,,
,60a2dc206ce94a429c60a885,627c67727295dc7c19c43c7f,2022-05-11_20h49.01.135,classification_task,2021.2.3,Win32,59.95922773,627c6715c52fd12f31907bcf,,,,,,,,,,,,,,,,,,,,,,,,,,,,,,,,,,,,,,,,,,,,,,,,,,,,,,,,,,,,,,,,,space,6.1593,1081.8106,,
,60a2dc206ce94a429c60a885,627c67727295dc7c19c43c7f,2022-05-11_20h49.01.135,classification_task,2021.2.3,Win32,59.95922773,627c6715c52fd12f31907bcf,,,,,,,,,,,,,,,,,,,,,,,,,,,,,,,,,,,,,,,,,,,,,,,,,,,,,,,,,,,,,,,,,,,,"Mozilla/5.0 (Windows NT 10.0; Win64; x64) AppleWebKit/537.36 (KHTML, like Gecko) Chrome/101.0.4951.54 Safari/537.36",
,60a2dc206ce94a429c60a885,627c67727295dc7c19c43c7f,2022-05-11_20h49.01.135,classification_task,2021.2.3,Win32,59.95922773,627c6715c52fd12f31907bcf,,,,,,,,,,,,,,,,,,,,,,,,,,,,,,,,,,,,,,,,,,,,,,,,,,,,,,,,,,,,,,,,,,,,,FADING
