usingWebGL,participant,session,date,expName,psychopyVersion,OS,frameRate,PROLIFIC_PID,STUDY_ID,SESSION_ID,signatures_friend,signatures_foe,band_ranges_top,band_ranges_bottom,formitemText,formtype,formundefined,formitemWidth,formindex,formresponse,formrt,key_resp_2.keys,key_resp_2.rt,tute_resp.keys,tute_resp.rt,tutorial.thisRepN,tutorial.thisTrialN,tutorial.thisN,tutorial.thisIndex,tutorial.ran,key_resp_4.keys,key_resp_4.rt,key_resp.keys,key_resp.corr,key_resp.rt,lines_presented,is_signal_presented,trials.thisRepN,trials.thisTrialN,trials.thisN,trials.thisIndex,trials.ran,vessel,active_band,lines,is_signal,supported_pos,catch_trial,debrief_formindex,debrief_formitemText,debrief_formtype,debrief_formitemWidth,debrief_formresponse,debrief_formrt,phases.thisRepN,phases.thisTrialN,phases.thisN,phases.thisIndex,phases.ran,phases.order,phase,key_resp_3.keys,trustitemText,trusttype,trustitemWidth,trustindex,trustresponse,trustrt,support_status.thisRepN,support_status.thisTrialN,support_status.thisN,support_status.thisIndex,support_status.ran,support_status.order,key_resp_5.keys,key_resp_5.rt,globalClockTime,userAgent
TRUE,60a6bb486c34319e01073638,001,2022-04-28_21h13.34.319,classification_task,2021.2.3,Win32,59.95922773,60a6bb486c34319e01073638,626b377229c10585ec392f8a,626b3b8c0cf54eb8b1304e5f,,,,,,,,,,,,,,,,,,,,,,,,,,,,,,,,,,,,,,,,,,,,,,,,,,,,,,,,,,,,,,,,,,,,
,60a6bb486c34319e01073638,001,2022-04-28_21h13.34.319,classification_task,2021.2.3,Win32,59.95922773,60a6bb486c34319e01073638,626b377229c10585ec392f8a,626b3b8c0cf54eb8b1304e5f,"[[""0.215"",""0.486"",""0.855"",""0.901""],[""0.258"",""0.398"",""0.602"",""0.942""]]","[[""0.147"",""0.298"",""0.561"",""0.722""],[""0.060"",""0.356"",""0.653"",""0.775""]]","[1,10]","[100,1000]",Video game experience,,,0.7,0,,,,,,,,,,,,,,,,,,,,,,,,,,,,,,,,,,,,,,,,,,,,,,,,,,,,,,,,,,,
,60a6bb486c34319e01073638,001,2022-04-28_21h13.34.319,classification_task,2021.2.3,Win32,59.95922773,60a6bb486c34319e01073638,626b377229c10585ec392f8a,626b3b8c0cf54eb8b1304e5f,,,,,Approximately how many hours did you spend playing video games in the last week?,,,0.7,0,2,,,,,,,,,,,,,,,,,,,,,,,,,,,,,,,,,,,,,,,,,,,,,,,,,,,,,,,,,,
,60a6bb486c34319e01073638,001,2022-04-28_21h13.34.319,classification_task,2021.2.3,Win32,59.95922773,60a6bb486c34319e01073638,626b377229c10585ec392f8a,626b3b8c0cf54eb8b1304e5f,,,,,"Which game did you play the most this year? (Enter ""None"" if you didn't play any)",,,0.7,0,It Takes Two,,,,,,,,,,,,,,,,,,,,,,,,,,,,,,,,,,,,,,,,,,,,,,,,,,,,,,,,,,
,60a6bb486c34319e01073638,001,2022-04-28_21h13.34.319,classification_task,2021.2.3,Win32,59.95922773,60a6bb486c34319e01073638,626b377229c10585ec392f8a,626b3b8c0cf54eb8b1304e5f,,,,,Visual perception,,,0.7,0,,,,,,,,,,,,,,,,,,,,,,,,,,,,,,,,,,,,,,,,,,,,,,,,,,,,,,,,,,,
,60a6bb486c34319e01073638,001,2022-04-28_21h13.34.319,classification_task,2021.2.3,Win32,59.95922773,60a6bb486c34319e01073638,626b377229c10585ec392f8a,626b3b8c0cf54eb8b1304e5f,,,,,Do you have any form of color blindness?,,,0.7,0,No,111.7164,,,,,,,,,,,,,,,,,,,,,,,,,,,,,,,,,,,,,,,,,,,,,,,,,,,,,,,,,
,60a6bb486c34319e01073638,001,2022-04-28_21h13.34.319,classification_task,2021.2.3,Win32,59.95922773,60a6bb486c34319e01073638,626b377229c10585ec392f8a,626b3b8c0cf54eb8b1304e5f,,,,,Do you use software to change the colour temperature of your screen (e.g. f.lux)?,,,0.7,0,No,113.8061,,,,,,,,,,,,,,,,,,,,,,,,,,,,,,,,,,,,,,,,,,,,,,,,,,,,,,,,,
,60a6bb486c34319e01073638,001,2022-04-28_21h13.34.319,classification_task,2021.2.3,Win32,59.95922773,60a6bb486c34319e01073638,626b377229c10585ec392f8a,626b3b8c0cf54eb8b1304e5f,,,,,,,,,,,,space,43.7062,space,12.6543,0,0,0,0,1,,,,,,,,,,,,,,,,,,,,,,,,,,,,,,,,,,,,,,,,,,,,,,,,
,60a6bb486c34319e01073638,001,2022-04-28_21h13.34.319,classification_task,2021.2.3,Win32,59.95922773,60a6bb486c34319e01073638,626b377229c10585ec392f8a,626b3b8c0cf54eb8b1304e5f,,,,,,,,,,,,,,space,16.3571,1,0,1,0,1,,,,,,,,,,,,,,,,,,,,,,,,,,,,,,,,,,,,,,,,,,,,,,,,
,60a6bb486c34319e01073638,001,2022-04-28_21h13.34.319,classification_task,2021.2.3,Win32,59.95922773,60a6bb486c34319e01073638,626b377229c10585ec392f8a,626b3b8c0cf54eb8b1304e5f,,,,,,,,,,,,,,space,24.0843,2,0,2,0,1,,,,,,,,,,,,,,,,,,,,,,,,,,,,,,,,,,,,,,,,,,,,,,,,
,60a6bb486c34319e01073638,001,2022-04-28_21h13.34.319,classification_task,2021.2.3,Win32,59.95922773,60a6bb486c34319e01073638,626b377229c10585ec392f8a,626b3b8c0cf54eb8b1304e5f,,,,,,,,,,,,,,space,53.9073,3,0,3,0,1,,,,,,,,,,,,,,,,,,,,,,,,,,,,,,,,,,,,,,,,,,,,,,,,
,60a6bb486c34319e01073638,001,2022-04-28_21h13.34.319,classification_task,2021.2.3,Win32,59.95922773,60a6bb486c34319e01073638,626b377229c10585ec392f8a,626b3b8c0cf54eb8b1304e5f,,,,,,,,,,,,,,space,16.6055,4,0,4,0,1,,,,,,,,,,,,,,,,,,,,,,,,,,,,,,,,,,,,,,,,,,,,,,,,
,60a6bb486c34319e01073638,001,2022-04-28_21h13.34.319,classification_task,2021.2.3,Win32,59.95922773,60a6bb486c34319e01073638,626b377229c10585ec392f8a,626b3b8c0cf54eb8b1304e5f,,,,,,,,,,,,,,,,,,,,,space,21.0404,a,0,6.7238,"[""0.060"",""0.356"",""0.653"",""0.432""]","[1,1,1,0]",0,0,0,0,1,1,1,,,1,FALSE,,,,,,,,,,,,,,,,,,,,,,,,,,,,,,
,60a6bb486c34319e01073638,001,2022-04-28_21h13.34.319,classification_task,2021.2.3,Win32,59.95922773,60a6bb486c34319e01073638,626b377229c10585ec392f8a,626b3b8c0cf54eb8b1304e5f,,,,,,,,,,,,,,,,,,,,,,,l,0,9.7365,"[""0.111"",""0.398"",""0.602"",""0.942""]","[0,1,1,1]",0,1,1,1,1,0,1,,,1,FALSE,,,,,,,,,,,,,,,,,,,,,,,,,,,,,,
,60a6bb486c34319e01073638,001,2022-04-28_21h13.34.319,classification_task,2021.2.3,Win32,59.95922773,60a6bb486c34319e01073638,626b377229c10585ec392f8a,626b3b8c0cf54eb8b1304e5f,,,,,,,,,,,,,,,,,,,,,,,,0,,"[""0.147"",""0.111"",""0.561"",""0.722""]","[1,0,1,1]",0,2,2,2,1,1,0,,,1,FALSE,,,,,,,,,,,,,,,,,,,,,,,,,,,,,,
,60a6bb486c34319e01073638,001,2022-04-28_21h13.34.319,classification_task,2021.2.3,Win32,59.95922773,60a6bb486c34319e01073638,626b377229c10585ec392f8a,626b3b8c0cf54eb8b1304e5f,,,,,,,,,,,,,,,,,,,,,,,l,1,2.4261,"[""0.439"",""0.298"",""0.561"",""0.722""]","[0,1,1,1]",0,3,3,3,1,1,0,,,1,FALSE,,,,,,,,,,,,,,,,,,,,,,,,,,,,,,
,60a6bb486c34319e01073638,001,2022-04-28_21h13.34.319,classification_task,2021.2.3,Win32,59.95922773,60a6bb486c34319e01073638,626b377229c10585ec392f8a,626b3b8c0cf54eb8b1304e5f,,,,,,,,,,,,,,,,,,,,,,,a,1,7.5153,"[""0.215"",""0.111"",""0.855"",""0.901""]","[1,0,1,1]",0,4,4,4,1,0,0,,,1,FALSE,,,,,,,,,,,,,,,,,,,,,,,,,,,,,,
,60a6bb486c34319e01073638,001,2022-04-28_21h13.34.319,classification_task,2021.2.3,Win32,59.95922773,60a6bb486c34319e01073638,626b377229c10585ec392f8a,626b3b8c0cf54eb8b1304e5f,,,,,,,,,,,,,,,,,,,,,,,a,1,5.2756,"[""0.258"",""0.527"",""0.602"",""0.942""]","[1,0,1,1]",0,5,5,5,1,0,1,,,1,FALSE,,,,,,,,,,,,,,,,,,,,,,,,,,,,,,
,60a6bb486c34319e01073638,001,2022-04-28_21h13.34.319,classification_task,2021.2.3,Win32,59.95922773,60a6bb486c34319e01073638,626b377229c10585ec392f8a,626b3b8c0cf54eb8b1304e5f,,,,,,,,,,,,,,,,,,,,,,,l,1,4.7297,"[""0.147"",""0.298"",""0.812"",""0.722""]","[1,1,0,1]",0,6,6,6,1,1,0,,,1,FALSE,,,,,,,,,,,,,,,,,,,,,,,,,,,,,,
,60a6bb486c34319e01073638,001,2022-04-28_21h13.34.319,classification_task,2021.2.3,Win32,59.95922773,60a6bb486c34319e01073638,626b377229c10585ec392f8a,626b3b8c0cf54eb8b1304e5f,,,,,,,,,,,,,,,,,,,,,,,a,1,3.5278,"[""0.821"",""0.486"",""0.855"",""0.901""]","[0,1,1,1]",0,7,7,7,1,0,0,,,1,FALSE,,,,,,,,,,,,,,,,,,,,,,,,,,,,,,
,60a6bb486c34319e01073638,001,2022-04-28_21h13.34.319,classification_task,2021.2.3,Win32,59.95922773,60a6bb486c34319e01073638,626b377229c10585ec392f8a,626b3b8c0cf54eb8b1304e5f,,,,,,,,,,,,,,,,,,,,,,,l,1,4.2749,"[""0.060"",""0.817"",""0.653"",""0.775""]","[1,0,1,1]",0,8,8,8,1,1,1,,,1,FALSE,,,,,,,,,,,,,,,,,,,,,,,,,,,,,,
,60a6bb486c34319e01073638,001,2022-04-28_21h13.34.319,classification_task,2021.2.3,Win32,59.95922773,60a6bb486c34319e01073638,626b377229c10585ec392f8a,626b3b8c0cf54eb8b1304e5f,,,,,,,,,,,,,,,,,,,,,,,l,1,4.8518,"[""0.111"",""0.356"",""0.653"",""0.775""]","[0,1,1,1]",0,9,9,9,1,1,1,,,1,FALSE,,,,,,,,,,,,,,,,,,,,,,,,,,,,,,
,60a6bb486c34319e01073638,001,2022-04-28_21h13.34.319,classification_task,2021.2.3,Win32,59.95922773,60a6bb486c34319e01073638,626b377229c10585ec392f8a,626b3b8c0cf54eb8b1304e5f,,,,,,,,,,,,,,,,,,,,,,,l,1,6.8714,"[""0.147"",""0.298"",""0.561"",""0.432""]","[1,1,1,0]",0,10,10,10,1,1,0,,,1,FALSE,,,,,,,,,,,,,,,,,,,,,,,,,,,,,,
,60a6bb486c34319e01073638,001,2022-04-28_21h13.34.319,classification_task,2021.2.3,Win32,59.95922773,60a6bb486c34319e01073638,626b377229c10585ec392f8a,626b3b8c0cf54eb8b1304e5f,,,,,,,,,,,,,,,,,,,,,,,,0,,"[""0.258"",""0.398"",""0.602"",""0.448""]","[1,1,1,0]",0,11,11,11,1,0,1,,,1,FALSE,,,,,,,,,,,,,,,,,,,,,,,,,,,,,,
,60a6bb486c34319e01073638,001,2022-04-28_21h13.34.319,classification_task,2021.2.3,Win32,59.95922773,60a6bb486c34319e01073638,626b377229c10585ec392f8a,626b3b8c0cf54eb8b1304e5f,,,,,,,,,,,,,,,,,,,,,,,a,1,3.2927,"[""0.215"",""0.486"",""0.855"",""0.817""]","[1,1,1,0]",0,12,12,12,1,0,0,,,1,FALSE,,,,,,,,,,,,,,,,,,,,,,,,,,,,,,
,60a6bb486c34319e01073638,001,2022-04-28_21h13.34.319,classification_task,2021.2.3,Win32,59.95922773,60a6bb486c34319e01073638,626b377229c10585ec392f8a,626b3b8c0cf54eb8b1304e5f,,,,,,,,,,,,,,,,,,,,,,,l,1,5.2151,"[""0.060"",""0.356"",""0.448"",""0.775""]","[1,1,0,1]",0,13,13,13,1,1,1,,,1,FALSE,,,,,,,,,,,,,,,,,,,,,,,,,,,,,,
,60a6bb486c34319e01073638,001,2022-04-28_21h13.34.319,classification_task,2021.2.3,Win32,59.95922773,60a6bb486c34319e01073638,626b377229c10585ec392f8a,626b3b8c0cf54eb8b1304e5f,,,,,,,,,,,,,,,,,,,,,,,a,1,5.1322,"[""0.215"",""0.486"",""0.436"",""0.901""]","[1,1,0,1]",0,14,14,14,1,0,0,,,1,FALSE,,,,,,,,,,,,,,,,,,,,,,,,,,,,,,
,60a6bb486c34319e01073638,001,2022-04-28_21h13.34.319,classification_task,2021.2.3,Win32,59.95922773,60a6bb486c34319e01073638,626b377229c10585ec392f8a,626b3b8c0cf54eb8b1304e5f,,,,,,,,,,,,,,,,,,,,,,,a,1,3.9687,"[""0.258"",""0.398"",""0.449"",""0.942""]","[1,1,0,1]",0,15,15,15,1,0,1,,,1,FALSE,,,,,,,,,,,,,,,,,,,,,,,,,,,,,,
,60a6bb486c34319e01073638,001,2022-04-28_21h13.34.319,classification_task,2021.2.3,Win32,59.95922773,60a6bb486c34319e01073638,626b377229c10585ec392f8a,626b3b8c0cf54eb8b1304e5f,,,,,,,,,,,,,,,,,,,,,,,a,1,3.0525,"[""0.099"",""0.398"",""0.602"",""0.942""]","[0,1,1,1]",0,16,16,16,1,0,1,,,1,FALSE,,,,,,,,,,,,,,,,,,,,,,,,,,,,,,
,60a6bb486c34319e01073638,001,2022-04-28_21h13.34.319,classification_task,2021.2.3,Win32,59.95922773,60a6bb486c34319e01073638,626b377229c10585ec392f8a,626b3b8c0cf54eb8b1304e5f,,,,,,,,,,,,,,,,,,,,,,,l,1,7.3151,"[""0.060"",""0.435"",""0.653"",""0.775""]","[1,0,1,1]",0,17,17,17,1,1,1,,,1,FALSE,,,,,,,,,,,,,,,,,,,,,,,,,,,,,,
,60a6bb486c34319e01073638,001,2022-04-28_21h13.34.319,classification_task,2021.2.3,Win32,59.95922773,60a6bb486c34319e01073638,626b377229c10585ec392f8a,626b3b8c0cf54eb8b1304e5f,,,,,,,,,,,,,,,,,,,,,,,a,1,4.0831,"[""0.452"",""0.486"",""0.855"",""0.901""]","[0,1,1,1]",0,18,18,18,1,0,0,,,1,FALSE,,,,,,,,,,,,,,,,,,,,,,,,,,,,,,
,60a6bb486c34319e01073638,001,2022-04-28_21h13.34.319,classification_task,2021.2.3,Win32,59.95922773,60a6bb486c34319e01073638,626b377229c10585ec392f8a,626b3b8c0cf54eb8b1304e5f,,,,,,,,,,,,,,,,,,,,,,,a,1,4.2247,"[""0.215"",""0.486"",""0.855"",""0.448""]","[1,1,1,0]",0,19,19,19,1,0,0,,,1,FALSE,,,,,,,,,,,,,,,,,,,,,,,,,,,,,,
,60a6bb486c34319e01073638,001,2022-04-28_21h13.34.319,classification_task,2021.2.3,Win32,59.95922773,60a6bb486c34319e01073638,626b377229c10585ec392f8a,626b3b8c0cf54eb8b1304e5f,,,,,,,,,,,,,,,,,,,,,,,a,1,3.7808,"[""0.258"",""0.398"",""0.436"",""0.942""]","[1,1,0,1]",0,20,20,20,1,0,1,,,1,FALSE,,,,,,,,,,,,,,,,,,,,,,,,,,,,,,
,60a6bb486c34319e01073638,001,2022-04-28_21h13.34.319,classification_task,2021.2.3,Win32,59.95922773,60a6bb486c34319e01073638,626b377229c10585ec392f8a,626b3b8c0cf54eb8b1304e5f,,,,,,,,,,,,,,,,,,,,,,,l,1,3.3105,"[""0.060"",""0.356"",""0.436"",""0.775""]","[1,1,0,1]",0,21,21,21,1,1,1,,,1,FALSE,,,,,,,,,,,,,,,,,,,,,,,,,,,,,,
,60a6bb486c34319e01073638,001,2022-04-28_21h13.34.319,classification_task,2021.2.3,Win32,59.95922773,60a6bb486c34319e01073638,626b377229c10585ec392f8a,626b3b8c0cf54eb8b1304e5f,,,,,,,,,,,,,,,,,,,,,,,a,1,3.6392,"[""0.258"",""0.449"",""0.602"",""0.942""]","[1,0,1,1]",0,22,22,22,1,0,1,,,1,FALSE,,,,,,,,,,,,,,,,,,,,,,,,,,,,,,
,60a6bb486c34319e01073638,001,2022-04-28_21h13.34.319,classification_task,2021.2.3,Win32,59.95922773,60a6bb486c34319e01073638,626b377229c10585ec392f8a,626b3b8c0cf54eb8b1304e5f,,,,,,,,,,,,,,,,,,,,,,,l,1,4.925,"[""0.523"",""0.298"",""0.561"",""0.722""]","[0,1,1,1]",0,23,23,23,1,1,0,,,1,FALSE,,,,,,,,,,,,,,,,,,,,,,,,,,,,,,
,60a6bb486c34319e01073638,001,2022-04-28_21h13.34.319,classification_task,2021.2.3,Win32,59.95922773,60a6bb486c34319e01073638,626b377229c10585ec392f8a,626b3b8c0cf54eb8b1304e5f,,,,,,,,,,,,,,,,,,,,,,,l,1,5.1012,"[""0.147"",""0.099"",""0.561"",""0.722""]","[1,0,1,1]",0,24,24,24,1,1,0,,,1,FALSE,,,,,,,,,,,,,,,,,,,,,,,,,,,,,,
,60a6bb486c34319e01073638,001,2022-04-28_21h13.34.319,classification_task,2021.2.3,Win32,59.95922773,60a6bb486c34319e01073638,626b377229c10585ec392f8a,626b3b8c0cf54eb8b1304e5f,,,,,,,,,,,,,,,,,,,,,,,l,1,5.2543,"[""0.436"",""0.356"",""0.653"",""0.775""]","[0,1,1,1]",0,25,25,25,1,1,1,,,1,FALSE,,,,,,,,,,,,,,,,,,,,,,,,,,,,,,
,60a6bb486c34319e01073638,001,2022-04-28_21h13.34.319,classification_task,2021.2.3,Win32,59.95922773,60a6bb486c34319e01073638,626b377229c10585ec392f8a,626b3b8c0cf54eb8b1304e5f,,,,,,,,,,,,,,,,,,,,,,,l,1,3.5256,"[""0.060"",""0.356"",""0.653"",""0.821""]","[1,1,1,0]",0,26,26,26,1,1,1,,,1,FALSE,,,,,,,,,,,,,,,,,,,,,,,,,,,,,,
,60a6bb486c34319e01073638,001,2022-04-28_21h13.34.319,classification_task,2021.2.3,Win32,59.95922773,60a6bb486c34319e01073638,626b377229c10585ec392f8a,626b3b8c0cf54eb8b1304e5f,,,,,,,,,,,,,,,,,,,,,,,l,1,4.9957,"[""0.147"",""0.298"",""0.561"",""0.441""]","[1,1,1,0]",0,27,27,27,1,1,0,,,1,FALSE,,,,,,,,,,,,,,,,,,,,,,,,,,,,,,
,60a6bb486c34319e01073638,001,2022-04-28_21h13.34.319,classification_task,2021.2.3,Win32,59.95922773,60a6bb486c34319e01073638,626b377229c10585ec392f8a,626b3b8c0cf54eb8b1304e5f,,,,,,,,,,,,,,,,,,,,,,,l,0,7.7347,"[""0.258"",""0.398"",""0.602"",""0.821""]","[1,1,1,0]",0,28,28,28,1,0,1,,,1,FALSE,,,,,,,,,,,,,,,,,,,,,,,,,,,,,,
,60a6bb486c34319e01073638,001,2022-04-28_21h13.34.319,classification_task,2021.2.3,Win32,59.95922773,60a6bb486c34319e01073638,626b377229c10585ec392f8a,626b3b8c0cf54eb8b1304e5f,,,,,,,,,,,,,,,,,,,,,,,l,1,4.77,"[""0.147"",""0.298"",""0.099"",""0.722""]","[1,1,0,1]",0,29,29,29,1,1,0,,,1,FALSE,,,,,,,,,,,,,,,,,,,,,,,,,,,,,,
,60a6bb486c34319e01073638,001,2022-04-28_21h13.34.319,classification_task,2021.2.3,Win32,59.95922773,60a6bb486c34319e01073638,626b377229c10585ec392f8a,626b3b8c0cf54eb8b1304e5f,,,,,,,,,,,,,,,,,,,,,,,a,1,2.8695,"[""0.215"",""0.486"",""0.432"",""0.901""]","[1,1,0,1]",0,30,30,30,1,0,0,,,1,FALSE,,,,,,,,,,,,,,,,,,,,,,,,,,,,,,
,60a6bb486c34319e01073638,001,2022-04-28_21h13.34.319,classification_task,2021.2.3,Win32,59.95922773,60a6bb486c34319e01073638,626b377229c10585ec392f8a,626b3b8c0cf54eb8b1304e5f,,,,,,,,,,,,,,,,,,,,,,,a,1,3.9738,"[""0.215"",""0.441"",""0.855"",""0.901""]","[1,0,1,1]",0,31,31,31,1,0,0,,,1,FALSE,,,,,,,,,,,,,,,,,,,,,,,,,,,,,,
,60a6bb486c34319e01073638,001,2022-04-28_21h13.34.319,classification_task,2021.2.3,Win32,59.95922773,60a6bb486c34319e01073638,626b377229c10585ec392f8a,626b3b8c0cf54eb8b1304e5f,,,,,,,,,,,,,,,,,,,,,,,,0,,"[""0.258"",""0.398"",""0.602"",""0.523""]","[1,1,1,0]",0,32,32,32,1,0,1,,,1,FALSE,,,,,,,,,,,,,,,,,,,,,,,,,,,,,,
,60a6bb486c34319e01073638,001,2022-04-28_21h13.34.319,classification_task,2021.2.3,Win32,59.95922773,60a6bb486c34319e01073638,626b377229c10585ec392f8a,626b3b8c0cf54eb8b1304e5f,,,,,,,,,,,,,,,,,,,,,,,a,0,2.1647,"[""0.147"",""0.298"",""0.561"",""0.448""]","[1,1,1,0]",0,33,33,33,1,1,0,,,1,FALSE,,,,,,,,,,,,,,,,,,,,,,,,,,,,,,
,60a6bb486c34319e01073638,001,2022-04-28_21h13.34.319,classification_task,2021.2.3,Win32,59.95922773,60a6bb486c34319e01073638,626b377229c10585ec392f8a,626b3b8c0cf54eb8b1304e5f,,,,,,,,,,,,,,,,,,,,,,,a,1,1.1952,"[""0.817"",""0.486"",""0.855"",""0.901""]","[0,1,1,1]",0,34,34,34,1,0,0,,,1,FALSE,,,,,,,,,,,,,,,,,,,,,,,,,,,,,,
,60a6bb486c34319e01073638,001,2022-04-28_21h13.34.319,classification_task,2021.2.3,Win32,59.95922773,60a6bb486c34319e01073638,626b377229c10585ec392f8a,626b3b8c0cf54eb8b1304e5f,,,,,,,,,,,,,,,,,,,,,,,l,1,0.916,"[""0.449"",""0.298"",""0.561"",""0.722""]","[0,1,1,1]",0,35,35,35,1,1,0,,,1,FALSE,,,,,,,,,,,,,,,,,,,,,,,,,,,,,,
,60a6bb486c34319e01073638,001,2022-04-28_21h13.34.319,classification_task,2021.2.3,Win32,59.95922773,60a6bb486c34319e01073638,626b377229c10585ec392f8a,626b3b8c0cf54eb8b1304e5f,,,,,,,,,,,,,,,,,,,,,,,l,1,1.6976,"[""0.060"",""0.821"",""0.653"",""0.775""]","[1,0,1,1]",0,36,36,36,1,1,1,,,1,FALSE,,,,,,,,,,,,,,,,,,,,,,,,,,,,,,
,60a6bb486c34319e01073638,001,2022-04-28_21h13.34.319,classification_task,2021.2.3,Win32,59.95922773,60a6bb486c34319e01073638,626b377229c10585ec392f8a,626b3b8c0cf54eb8b1304e5f,,,,,,,,,,,,,,,,,,,,,,,a,0,1.2545,"[""0.147"",""0.298"",""0.436"",""0.722""]","[1,1,0,1]",0,37,37,37,1,1,0,,,1,FALSE,,,,,,,,,,,,,,,,,,,,,,,,,,,,,,
,60a6bb486c34319e01073638,001,2022-04-28_21h13.34.319,classification_task,2021.2.3,Win32,59.95922773,60a6bb486c34319e01073638,626b377229c10585ec392f8a,626b3b8c0cf54eb8b1304e5f,,,,,,,,,,,,,,,,,,,,,,,l,1,3.1688,"[""0.060"",""0.356"",""0.653"",""0.439""]","[1,1,1,0]",0,38,38,38,1,1,1,,,1,FALSE,,,,,,,,,,,,,,,,,,,,,,,,,,,,,,
,60a6bb486c34319e01073638,001,2022-04-28_21h13.34.319,classification_task,2021.2.3,Win32,59.95922773,60a6bb486c34319e01073638,626b377229c10585ec392f8a,626b3b8c0cf54eb8b1304e5f,,,,,,,,,,,,,,,,,,,,,,,a,1,1.3554,"[""0.258"",""0.821"",""0.602"",""0.942""]","[1,0,1,1]",0,39,39,39,1,0,1,,,1,FALSE,,,,,,,,,,,,,,,,,,,,,,,,,,,,,,
,60a6bb486c34319e01073638,001,2022-04-28_21h13.34.319,classification_task,2021.2.3,Win32,59.95922773,60a6bb486c34319e01073638,626b377229c10585ec392f8a,626b3b8c0cf54eb8b1304e5f,,,,,,,,,,,,,,,,,,,,,,,a,0,1.3136,"[""0.527"",""0.356"",""0.653"",""0.775""]","[0,1,1,1]",0,40,40,40,1,1,1,,,1,FALSE,,,,,,,,,,,,,,,,,,,,,,,,,,,,,,
,60a6bb486c34319e01073638,001,2022-04-28_21h13.34.319,classification_task,2021.2.3,Win32,59.95922773,60a6bb486c34319e01073638,626b377229c10585ec392f8a,626b3b8c0cf54eb8b1304e5f,,,,,,,,,,,,,,,,,,,,,,,l,0,2.5679,"[""0.215"",""0.486"",""0.855"",""0.436""]","[1,1,1,0]",0,41,41,41,1,0,0,,,1,FALSE,,,,,,,,,,,,,,,,,,,,,,,,,,,,,,
,60a6bb486c34319e01073638,001,2022-04-28_21h13.34.319,classification_task,2021.2.3,Win32,59.95922773,60a6bb486c34319e01073638,626b377229c10585ec392f8a,626b3b8c0cf54eb8b1304e5f,,,,,,,,,,,,,,,,,,,,,,,a,0,1.1877,"[""0.060"",""0.356"",""0.441"",""0.775""]","[1,1,0,1]",0,42,42,42,1,1,1,,,1,FALSE,,,,,,,,,,,,,,,,,,,,,,,,,,,,,,
,60a6bb486c34319e01073638,001,2022-04-28_21h13.34.319,classification_task,2021.2.3,Win32,59.95922773,60a6bb486c34319e01073638,626b377229c10585ec392f8a,626b3b8c0cf54eb8b1304e5f,,,,,,,,,,,,,,,,,,,,,,,l,1,0.8393,"[""0.147"",""0.821"",""0.561"",""0.722""]","[1,0,1,1]",0,43,43,43,1,1,0,,,1,FALSE,,,,,,,,,,,,,,,,,,,,,,,,,,,,,,
,60a6bb486c34319e01073638,001,2022-04-28_21h13.34.319,classification_task,2021.2.3,Win32,59.95922773,60a6bb486c34319e01073638,626b377229c10585ec392f8a,626b3b8c0cf54eb8b1304e5f,,,,,,,,,,,,,,,,,,,,,,,l,0,0.6984,"[""0.215"",""0.821"",""0.855"",""0.901""]","[1,0,1,1]",0,44,44,44,1,0,0,,,1,FALSE,,,,,,,,,,,,,,,,,,,,,,,,,,,,,,
,60a6bb486c34319e01073638,001,2022-04-28_21h13.34.319,classification_task,2021.2.3,Win32,59.95922773,60a6bb486c34319e01073638,626b377229c10585ec392f8a,626b3b8c0cf54eb8b1304e5f,,,,,,,,,,,,,,,,,,,,,,,l,0,1.7283,"[""0.432"",""0.398"",""0.602"",""0.942""]","[0,1,1,1]",0,45,45,45,1,0,1,,,1,FALSE,,,,,,,,,,,,,,,,,,,,,,,,,,,,,,
,60a6bb486c34319e01073638,001,2022-04-28_21h13.34.319,classification_task,2021.2.3,Win32,59.95922773,60a6bb486c34319e01073638,626b377229c10585ec392f8a,626b3b8c0cf54eb8b1304e5f,,,,,,,,,,,,,,,,,,,,,,,a,1,1.5175,"[""0.215"",""0.486"",""0.111"",""0.901""]","[1,1,0,1]",0,46,46,46,1,0,0,,,1,FALSE,,,,,,,,,,,,,,,,,,,,,,,,,,,,,,
,60a6bb486c34319e01073638,001,2022-04-28_21h13.34.319,classification_task,2021.2.3,Win32,59.95922773,60a6bb486c34319e01073638,626b377229c10585ec392f8a,626b3b8c0cf54eb8b1304e5f,,,,,,,,,,,,,,,,,,,,,,,l,0,1.9612,"[""0.258"",""0.398"",""0.821"",""0.942""]","[1,1,0,1]",0,47,47,47,1,0,1,,,1,FALSE,,,,,,,,,,,,,,,,,,,,,,,,,,,,,,
,60a6bb486c34319e01073638,001,2022-04-28_21h13.34.319,classification_task,2021.2.3,Win32,59.95922773,60a6bb486c34319e01073638,626b377229c10585ec392f8a,626b3b8c0cf54eb8b1304e5f,,,,,,,,,,,,,,,,,,,,,,,a,1,0.8931,"[""0.258"",""0.398"",""0.602"",""0.449""]","[1,1,1,0]",0,48,48,48,1,0,1,,,1,FALSE,,,,,,,,,,,,,,,,,,,,,,,,,,,,,,
,60a6bb486c34319e01073638,001,2022-04-28_21h13.34.319,classification_task,2021.2.3,Win32,59.95922773,60a6bb486c34319e01073638,626b377229c10585ec392f8a,626b3b8c0cf54eb8b1304e5f,,,,,,,,,,,,,,,,,,,,,,,a,0,0.74,"[""0.147"",""0.298"",""0.561"",""0.441""]","[1,1,1,0]",0,49,49,49,1,1,0,,,1,FALSE,,,,,,,,,,,,,,,,,,,,,,,,,,,,,,
,60a6bb486c34319e01073638,001,2022-04-28_21h13.34.319,classification_task,2021.2.3,Win32,59.95922773,60a6bb486c34319e01073638,626b377229c10585ec392f8a,626b3b8c0cf54eb8b1304e5f,,,,,,,,,,,,,,,,,,,,,,,l,0,0.5009,"[""0.215"",""0.435"",""0.855"",""0.901""]","[1,0,1,1]",0,50,50,50,1,0,0,,,1,FALSE,,,,,,,,,,,,,,,,,,,,,,,,,,,,,,
,60a6bb486c34319e01073638,001,2022-04-28_21h13.34.319,classification_task,2021.2.3,Win32,59.95922773,60a6bb486c34319e01073638,626b377229c10585ec392f8a,626b3b8c0cf54eb8b1304e5f,,,,,,,,,,,,,,,,,,,,,,,a,1,1.3072,"[""0.258"",""0.452"",""0.602"",""0.942""]","[1,0,1,1]",0,51,51,51,1,0,1,,,1,FALSE,,,,,,,,,,,,,,,,,,,,,,,,,,,,,,
,60a6bb486c34319e01073638,001,2022-04-28_21h13.34.319,classification_task,2021.2.3,Win32,59.95922773,60a6bb486c34319e01073638,626b377229c10585ec392f8a,626b3b8c0cf54eb8b1304e5f,,,,,,,,,,,,,,,,,,,,,,,a,0,0.6488,"[""0.060"",""0.356"",""0.653"",""0.821""]","[1,1,1,0]",0,52,52,52,1,1,1,,,1,FALSE,,,,,,,,,,,,,,,,,,,,,,,,,,,,,,
,60a6bb486c34319e01073638,001,2022-04-28_21h13.34.319,classification_task,2021.2.3,Win32,59.95922773,60a6bb486c34319e01073638,626b377229c10585ec392f8a,626b3b8c0cf54eb8b1304e5f,,,,,,,,,,,,,,,,,,,,,,,l,1,0.3389,"[""0.452"",""0.356"",""0.653"",""0.775""]","[0,1,1,1]",0,53,53,53,1,1,1,,,1,FALSE,,,,,,,,,,,,,,,,,,,,,,,,,,,,,,
,60a6bb486c34319e01073638,001,2022-04-28_21h13.34.319,classification_task,2021.2.3,Win32,59.95922773,60a6bb486c34319e01073638,626b377229c10585ec392f8a,626b3b8c0cf54eb8b1304e5f,,,,,,,,,,,,,,,,,,,,,,,l,0,0.836,"[""0.215"",""0.486"",""0.523"",""0.901""]","[1,1,0,1]",0,54,54,54,1,0,0,,,1,FALSE,,,,,,,,,,,,,,,,,,,,,,,,,,,,,,
,60a6bb486c34319e01073638,001,2022-04-28_21h13.34.319,classification_task,2021.2.3,Win32,59.95922773,60a6bb486c34319e01073638,626b377229c10585ec392f8a,626b3b8c0cf54eb8b1304e5f,,,,,,,,,,,,,,,,,,,,,,,a,0,1.334,"[""0.439"",""0.298"",""0.561"",""0.722""]","[0,1,1,1]",0,55,55,55,1,1,0,,,1,FALSE,,,,,,,,,,,,,,,,,,,,,,,,,,,,,,
,60a6bb486c34319e01073638,001,2022-04-28_21h13.34.319,classification_task,2021.2.3,Win32,59.95922773,60a6bb486c34319e01073638,626b377229c10585ec392f8a,626b3b8c0cf54eb8b1304e5f,,,,,,,,,,,,,,,,,,,,,,,l,0,0.8555,"[""0.111"",""0.486"",""0.855"",""0.901""]","[0,1,1,1]",0,56,56,56,1,0,0,,,1,FALSE,,,,,,,,,,,,,,,,,,,,,,,,,,,,,,
,60a6bb486c34319e01073638,001,2022-04-28_21h13.34.319,classification_task,2021.2.3,Win32,59.95922773,60a6bb486c34319e01073638,626b377229c10585ec392f8a,626b3b8c0cf54eb8b1304e5f,,,,,,,,,,,,,,,,,,,,,,,a,1,0.2999,"[""0.258"",""0.398"",""0.448"",""0.942""]","[1,1,0,1]",0,57,57,57,1,0,1,,,1,FALSE,,,,,,,,,,,,,,,,,,,,,,,,,,,,,,
,60a6bb486c34319e01073638,001,2022-04-28_21h13.34.319,classification_task,2021.2.3,Win32,59.95922773,60a6bb486c34319e01073638,626b377229c10585ec392f8a,626b3b8c0cf54eb8b1304e5f,,,,,,,,,,,,,,,,,,,,,,,a,0,0.2583,"[""0.060"",""0.356"",""0.527"",""0.775""]","[1,1,0,1]",0,58,58,58,1,1,1,,,1,FALSE,,,,,,,,,,,,,,,,,,,,,,,,,,,,,,
,60a6bb486c34319e01073638,001,2022-04-28_21h13.34.319,classification_task,2021.2.3,Win32,59.95922773,60a6bb486c34319e01073638,626b377229c10585ec392f8a,626b3b8c0cf54eb8b1304e5f,,,,,,,,,,,,,,,,,,,,,,,l,1,0.243,"[""0.060"",""0.523"",""0.653"",""0.775""]","[1,0,1,1]",0,59,59,59,1,1,1,,,1,FALSE,,,,,,,,,,,,,,,,,,,,,,,,,,,,,,
,60a6bb486c34319e01073638,001,2022-04-28_21h13.34.319,classification_task,2021.2.3,Win32,59.95922773,60a6bb486c34319e01073638,626b377229c10585ec392f8a,626b3b8c0cf54eb8b1304e5f,,,,,,,,,,,,,,,,,,,,,,,a,1,0.9349,"[""0.215"",""0.486"",""0.855"",""0.527""]","[1,1,1,0]",0,60,60,60,1,0,0,,,1,FALSE,,,,,,,,,,,,,,,,,,,,,,,,,,,,,,
,60a6bb486c34319e01073638,001,2022-04-28_21h13.34.319,classification_task,2021.2.3,Win32,59.95922773,60a6bb486c34319e01073638,626b377229c10585ec392f8a,626b3b8c0cf54eb8b1304e5f,,,,,,,,,,,,,,,,,,,,,,,l,0,0.1552,"[""0.436"",""0.398"",""0.602"",""0.942""]","[0,1,1,1]",0,61,61,61,1,0,1,,,1,FALSE,,,,,,,,,,,,,,,,,,,,,,,,,,,,,,
,60a6bb486c34319e01073638,001,2022-04-28_21h13.34.319,classification_task,2021.2.3,Win32,59.95922773,60a6bb486c34319e01073638,626b377229c10585ec392f8a,626b3b8c0cf54eb8b1304e5f,,,,,,,,,,,,,,,,,,,,,,,a,0,0.3328,"[""0.147"",""0.436"",""0.561"",""0.722""]","[1,0,1,1]",0,62,62,62,1,1,0,,,1,FALSE,,,,,,,,,,,,,,,,,,,,,,,,,,,,,,
,60a6bb486c34319e01073638,001,2022-04-28_21h13.34.319,classification_task,2021.2.3,Win32,59.95922773,60a6bb486c34319e01073638,626b377229c10585ec392f8a,626b3b8c0cf54eb8b1304e5f,,,,,,,,,,,,,,,,,,,,,,,l,1,0.6012,"[""0.147"",""0.298"",""0.821"",""0.722""]","[1,1,0,1]",0,63,63,63,1,1,0,,,1,FALSE,,,,,,,,,,,,,,,,,,,,,,,,,,,,,,
,60a6bb486c34319e01073638,001,2022-04-28_21h13.34.319,classification_task,2021.2.3,Win32,59.95922773,60a6bb486c34319e01073638,626b377229c10585ec392f8a,626b3b8c0cf54eb8b1304e5f,,,,,,,,,,,,,,,,,,,,,,,,,,,,,,,,,,,,,,,0, ,,0,0,625.3063,0,0,0,0,1,2,1,,,,,,,,,,,,,,,,,
,60a6bb486c34319e01073638,001,2022-04-28_21h13.34.319,classification_task,2021.2.3,Win32,59.95922773,60a6bb486c34319e01073638,626b377229c10585ec392f8a,626b3b8c0cf54eb8b1304e5f,,,,,,,,,,,,,,,,,,,,,,,,,,,,,,,,,,,,,,,1,  ,,0,7.066798942,633.3,0,0,0,0,1,2,1,,,,,,,,,,,,,,,,,
,60a6bb486c34319e01073638,001,2022-04-28_21h13.34.319,classification_task,2021.2.3,Win32,59.95922773,60a6bb486c34319e01073638,626b377229c10585ec392f8a,626b3b8c0cf54eb8b1304e5f,,,,,,,,,,,,,,,,,,,,,,,,,,,,,,,,,,,,,,,2,  ,,0,9.030257937,641.1787,0,0,0,0,1,2,1,,,,,,,,,,,,,,,,,
,60a6bb486c34319e01073638,001,2022-04-28_21h13.34.319,classification_task,2021.2.3,Win32,59.95922773,60a6bb486c34319e01073638,626b377229c10585ec392f8a,626b3b8c0cf54eb8b1304e5f,,,,,,,,,,,,,,,,,,,,,,,,,,,,,,,,,,,,,,,,,,,,,0,0,0,0,1,,1,,,,,,,,,,,,,,,,,
,60a6bb486c34319e01073638,001,2022-04-28_21h13.34.319,classification_task,2021.2.3,Win32,59.95922773,60a6bb486c34319e01073638,626b377229c10585ec392f8a,626b3b8c0cf54eb8b1304e5f,,,,,,,,,,,,,,,,,,,,,space,14.6833,a,1,3.949,"[""0.258"",""0.398"",""0.602"",""0.439""]","[1,1,1,0]",0,0,0,0,1,0,1,,,1,FALSE,,,,,,,,,,,,,,,,,,,,,,,,,,,,,,
,60a6bb486c34319e01073638,001,2022-04-28_21h13.34.319,classification_task,2021.2.3,Win32,59.95922773,60a6bb486c34319e01073638,626b377229c10585ec392f8a,626b3b8c0cf54eb8b1304e5f,,,,,,,,,,,,,,,,,,,,,,,a,1,0.8252,"[""0.436"",""0.398"",""0.602"",""0.942""]","[0,1,1,1]",0,1,1,1,1,0,1,,,1,FALSE,,,,,,,,,,,,,,,,,,,,,,,,,,,,,,
,60a6bb486c34319e01073638,001,2022-04-28_21h13.34.319,classification_task,2021.2.3,Win32,59.95922773,60a6bb486c34319e01073638,626b377229c10585ec392f8a,626b3b8c0cf54eb8b1304e5f,,,,,,,,,,,,,,,,,,,,,,,l,1,0.6265,"[""0.821"",""0.356"",""0.653"",""0.775""]","[0,1,1,1]",0,2,2,2,1,1,1,,,1,FALSE,,,,,,,,,,,,,,,,,,,,,,,,,,,,,,
,60a6bb486c34319e01073638,001,2022-04-28_21h13.34.319,classification_task,2021.2.3,Win32,59.95922773,60a6bb486c34319e01073638,626b377229c10585ec392f8a,626b3b8c0cf54eb8b1304e5f,,,,,,,,,,,,,,,,,,,,,,,l,0,1.6676,"[""0.449"",""0.486"",""0.855"",""0.901""]","[0,1,1,1]",0,3,3,3,1,0,0,,,1,FALSE,,,,,,,,,,,,,,,,,,,,,,,,,,,,,,
,60a6bb486c34319e01073638,001,2022-04-28_21h13.34.319,classification_task,2021.2.3,Win32,59.95922773,60a6bb486c34319e01073638,626b377229c10585ec392f8a,626b3b8c0cf54eb8b1304e5f,,,,,,,,,,,,,,,,,,,,,,,a,1,0.7487,"[""0.215"",""0.486"",""0.855"",""0.439""]","[1,1,1,0]",0,4,4,4,1,0,0,,,1,FALSE,,,,,,,,,,,,,,,,,,,,,,,,,,,,,,
,60a6bb486c34319e01073638,001,2022-04-28_21h13.34.319,classification_task,2021.2.3,Win32,59.95922773,60a6bb486c34319e01073638,626b377229c10585ec392f8a,626b3b8c0cf54eb8b1304e5f,,,,,,,,,,,,,,,,,,,,,,,a,0,0.527,"[""0.147"",""0.523"",""0.561"",""0.722""]","[1,0,1,1]",0,5,5,5,1,1,0,,,1,FALSE,,,,,,,,,,,,,,,,,,,,,,,,,,,,,,
,60a6bb486c34319e01073638,001,2022-04-28_21h13.34.319,classification_task,2021.2.3,Win32,59.95922773,60a6bb486c34319e01073638,626b377229c10585ec392f8a,626b3b8c0cf54eb8b1304e5f,,,,,,,,,,,,,,,,,,,,,,,a,1,0.8022,"[""0.258"",""0.523"",""0.602"",""0.942""]","[1,0,1,1]",0,6,6,6,1,0,1,,,1,FALSE,,,,,,,,,,,,,,,,,,,,,,,,,,,,,,
,60a6bb486c34319e01073638,001,2022-04-28_21h13.34.319,classification_task,2021.2.3,Win32,59.95922773,60a6bb486c34319e01073638,626b377229c10585ec392f8a,626b3b8c0cf54eb8b1304e5f,,,,,,,,,,,,,,,,,,,,,,,l,1,0.9604,"[""0.147"",""0.298"",""0.439"",""0.722""]","[1,1,0,1]",0,7,7,7,1,1,0,,,1,FALSE,,,,,,,,,,,,,,,,,,,,,,,,,,,,,,
,60a6bb486c34319e01073638,001,2022-04-28_21h13.34.319,classification_task,2021.2.3,Win32,59.95922773,60a6bb486c34319e01073638,626b377229c10585ec392f8a,626b3b8c0cf54eb8b1304e5f,,,,,,,,,,,,,,,,,,,,,,,a,1,0.6868,"[""0.258"",""0.398"",""0.111"",""0.942""]","[1,1,0,1]",0,8,8,8,1,0,1,,,1,FALSE,,,,,,,,,,,,,,,,,,,,,,,,,,,,,,
,60a6bb486c34319e01073638,001,2022-04-28_21h13.34.319,classification_task,2021.2.3,Win32,59.95922773,60a6bb486c34319e01073638,626b377229c10585ec392f8a,626b3b8c0cf54eb8b1304e5f,,,,,,,,,,,,,,,,,,,,,,,a,0,0.6959,"[""0.441"",""0.298"",""0.561"",""0.722""]","[0,1,1,1]",0,9,9,9,1,1,0,,,1,FALSE,,,,,,,,,,,,,,,,,,,,,,,,,,,,,,
,60a6bb486c34319e01073638,001,2022-04-28_21h13.34.319,classification_task,2021.2.3,Win32,59.95922773,60a6bb486c34319e01073638,626b377229c10585ec392f8a,626b3b8c0cf54eb8b1304e5f,,,,,,,,,,,,,,,,,,,,,,,l,1,0.7571,"[""0.060"",""0.356"",""0.653"",""0.821""]","[1,1,1,0]",0,10,10,10,1,1,1,,,1,FALSE,,,,,,,,,,,,,,,,,,,,,,,,,,,,,,
,60a6bb486c34319e01073638,001,2022-04-28_21h13.34.319,classification_task,2021.2.3,Win32,59.95922773,60a6bb486c34319e01073638,626b377229c10585ec392f8a,626b3b8c0cf54eb8b1304e5f,,,,,,,,,,,,,,,,,,,,,,,l,1,0.4605,"[""0.060"",""0.436"",""0.653"",""0.775""]","[1,0,1,1]",0,11,11,11,1,1,1,,,1,FALSE,,,,,,,,,,,,,,,,,,,,,,,,,,,,,,
,60a6bb486c34319e01073638,001,2022-04-28_21h13.34.319,classification_task,2021.2.3,Win32,59.95922773,60a6bb486c34319e01073638,626b377229c10585ec392f8a,626b3b8c0cf54eb8b1304e5f,,,,,,,,,,,,,,,,,,,,,,,l,0,0.9715,"[""0.215"",""0.435"",""0.855"",""0.901""]","[1,0,1,1]",0,12,12,12,1,0,0,,,1,FALSE,,,,,,,,,,,,,,,,,,,,,,,,,,,,,,
,60a6bb486c34319e01073638,001,2022-04-28_21h13.34.319,classification_task,2021.2.3,Win32,59.95922773,60a6bb486c34319e01073638,626b377229c10585ec392f8a,626b3b8c0cf54eb8b1304e5f,,,,,,,,,,,,,,,,,,,,,,,l,0,1.0213,"[""0.215"",""0.486"",""0.527"",""0.901""]","[1,1,0,1]",0,13,13,13,1,0,0,,,1,FALSE,,,,,,,,,,,,,,,,,,,,,,,,,,,,,,
,60a6bb486c34319e01073638,001,2022-04-28_21h13.34.319,classification_task,2021.2.3,Win32,59.95922773,60a6bb486c34319e01073638,626b377229c10585ec392f8a,626b3b8c0cf54eb8b1304e5f,,,,,,,,,,,,,,,,,,,,,,,l,1,0.756,"[""0.060"",""0.356"",""0.436"",""0.775""]","[1,1,0,1]",0,14,14,14,1,1,1,,,1,FALSE,,,,,,,,,,,,,,,,,,,,,,,,,,,,,,
,60a6bb486c34319e01073638,001,2022-04-28_21h13.34.319,classification_task,2021.2.3,Win32,59.95922773,60a6bb486c34319e01073638,626b377229c10585ec392f8a,626b3b8c0cf54eb8b1304e5f,,,,,,,,,,,,,,,,,,,,,,,l,1,0.6849,"[""0.147"",""0.298"",""0.561"",""0.812""]","[1,1,1,0]",0,15,15,15,1,1,0,,,1,FALSE,,,,,,,,,,,,,,,,,,,,,,,,,,,,,,
,60a6bb486c34319e01073638,001,2022-04-28_21h13.34.319,classification_task,2021.2.3,Win32,59.95922773,60a6bb486c34319e01073638,626b377229c10585ec392f8a,626b3b8c0cf54eb8b1304e5f,,,,,,,,,,,,,,,,,,,,,,,a,1,0.9383,"[""0.215"",""0.435"",""0.855"",""0.901""]","[1,0,1,1]",0,16,16,16,1,0,0,,,1,FALSE,,,,,,,,,,,,,,,,,,,,,,,,,,,,,,
,60a6bb486c34319e01073638,001,2022-04-28_21h13.34.319,classification_task,2021.2.3,Win32,59.95922773,60a6bb486c34319e01073638,626b377229c10585ec392f8a,626b3b8c0cf54eb8b1304e5f,,,,,,,,,,,,,,,,,,,,,,,l,1,0.4929,"[""0.439"",""0.356"",""0.653"",""0.775""]","[0,1,1,1]",0,17,17,17,1,1,1,,,1,FALSE,,,,,,,,,,,,,,,,,,,,,,,,,,,,,,
,60a6bb486c34319e01073638,001,2022-04-28_21h13.34.319,classification_task,2021.2.3,Win32,59.95922773,60a6bb486c34319e01073638,626b377229c10585ec392f8a,626b3b8c0cf54eb8b1304e5f,,,,,,,,,,,,,,,,,,,,,,,a,1,0.6474,"[""0.435"",""0.398"",""0.602"",""0.942""]","[0,1,1,1]",0,18,18,18,1,0,1,,,1,FALSE,,,,,,,,,,,,,,,,,,,,,,,,,,,,,,
,60a6bb486c34319e01073638,001,2022-04-28_21h13.34.319,classification_task,2021.2.3,Win32,59.95922773,60a6bb486c34319e01073638,626b377229c10585ec392f8a,626b3b8c0cf54eb8b1304e5f,,,,,,,,,,,,,,,,,,,,,,,a,0,0.9398,"[""0.147"",""0.298"",""0.561"",""0.436""]","[1,1,1,0]",0,19,19,19,1,1,0,,,1,FALSE,,,,,,,,,,,,,,,,,,,,,,,,,,,,,,
,60a6bb486c34319e01073638,001,2022-04-28_21h13.34.319,classification_task,2021.2.3,Win32,59.95922773,60a6bb486c34319e01073638,626b377229c10585ec392f8a,626b3b8c0cf54eb8b1304e5f,,,,,,,,,,,,,,,,,,,,,,,l,0,0.8965,"[""0.215"",""0.486"",""0.436"",""0.901""]","[1,1,0,1]",0,20,20,20,1,0,0,,,1,FALSE,,,,,,,,,,,,,,,,,,,,,,,,,,,,,,
,60a6bb486c34319e01073638,001,2022-04-28_21h13.34.319,classification_task,2021.2.3,Win32,59.95922773,60a6bb486c34319e01073638,626b377229c10585ec392f8a,626b3b8c0cf54eb8b1304e5f,,,,,,,,,,,,,,,,,,,,,,,l,1,0.8725,"[""0.060"",""0.356"",""0.527"",""0.775""]","[1,1,0,1]",0,21,21,21,1,1,1,,,1,FALSE,,,,,,,,,,,,,,,,,,,,,,,,,,,,,,
,60a6bb486c34319e01073638,001,2022-04-28_21h13.34.319,classification_task,2021.2.3,Win32,59.95922773,60a6bb486c34319e01073638,626b377229c10585ec392f8a,626b3b8c0cf54eb8b1304e5f,,,,,,,,,,,,,,,,,,,,,,,l,1,0.436,"[""0.060"",""0.812"",""0.653"",""0.775""]","[1,0,1,1]",0,22,22,22,1,1,1,,,1,FALSE,,,,,,,,,,,,,,,,,,,,,,,,,,,,,,
,60a6bb486c34319e01073638,001,2022-04-28_21h13.34.319,classification_task,2021.2.3,Win32,59.95922773,60a6bb486c34319e01073638,626b377229c10585ec392f8a,626b3b8c0cf54eb8b1304e5f,,,,,,,,,,,,,,,,,,,,,,,l,0,0.6055,"[""0.215"",""0.486"",""0.855"",""0.111""]","[1,1,1,0]",0,23,23,23,1,0,0,,,1,FALSE,,,,,,,,,,,,,,,,,,,,,,,,,,,,,,
,60a6bb486c34319e01073638,001,2022-04-28_21h13.34.319,classification_task,2021.2.3,Win32,59.95922773,60a6bb486c34319e01073638,626b377229c10585ec392f8a,626b3b8c0cf54eb8b1304e5f,,,,,,,,,,,,,,,,,,,,,,,a,0,0.4404,"[""0.147"",""0.298"",""0.452"",""0.722""]","[1,1,0,1]",0,24,24,24,1,1,0,,,1,FALSE,,,,,,,,,,,,,,,,,,,,,,,,,,,,,,
,60a6bb486c34319e01073638,001,2022-04-28_21h13.34.319,classification_task,2021.2.3,Win32,59.95922773,60a6bb486c34319e01073638,626b377229c10585ec392f8a,626b3b8c0cf54eb8b1304e5f,,,,,,,,,,,,,,,,,,,,,,,a,1,0.6471,"[""0.821"",""0.486"",""0.855"",""0.901""]","[0,1,1,1]",0,25,25,25,1,0,0,,,1,FALSE,,,,,,,,,,,,,,,,,,,,,,,,,,,,,,
,60a6bb486c34319e01073638,001,2022-04-28_21h13.34.319,classification_task,2021.2.3,Win32,59.95922773,60a6bb486c34319e01073638,626b377229c10585ec392f8a,626b3b8c0cf54eb8b1304e5f,,,,,,,,,,,,,,,,,,,,,,,l,0,0.4397,"[""0.258"",""0.449"",""0.602"",""0.942""]","[1,0,1,1]",0,26,26,26,1,0,1,,,1,FALSE,,,,,,,,,,,,,,,,,,,,,,,,,,,,,,
,60a6bb486c34319e01073638,001,2022-04-28_21h13.34.319,classification_task,2021.2.3,Win32,59.95922773,60a6bb486c34319e01073638,626b377229c10585ec392f8a,626b3b8c0cf54eb8b1304e5f,,,,,,,,,,,,,,,,,,,,,,,l,1,0.7649,"[""0.060"",""0.356"",""0.653"",""0.439""]","[1,1,1,0]",0,27,27,27,1,1,1,,,1,FALSE,,,,,,,,,,,,,,,,,,,,,,,,,,,,,,
,60a6bb486c34319e01073638,001,2022-04-28_21h13.34.319,classification_task,2021.2.3,Win32,59.95922773,60a6bb486c34319e01073638,626b377229c10585ec392f8a,626b3b8c0cf54eb8b1304e5f,,,,,,,,,,,,,,,,,,,,,,,l,1,0.4232,"[""0.147"",""0.435"",""0.561"",""0.722""]","[1,0,1,1]",0,28,28,28,1,1,0,,,1,FALSE,,,,,,,,,,,,,,,,,,,,,,,,,,,,,,
,60a6bb486c34319e01073638,001,2022-04-28_21h13.34.319,classification_task,2021.2.3,Win32,59.95922773,60a6bb486c34319e01073638,626b377229c10585ec392f8a,626b3b8c0cf54eb8b1304e5f,,,,,,,,,,,,,,,,,,,,,,,l,0,0.7083,"[""0.258"",""0.398"",""0.602"",""0.812""]","[1,1,1,0]",0,29,29,29,1,0,1,,,1,FALSE,,,,,,,,,,,,,,,,,,,,,,,,,,,,,,
,60a6bb486c34319e01073638,001,2022-04-28_21h13.34.319,classification_task,2021.2.3,Win32,59.95922773,60a6bb486c34319e01073638,626b377229c10585ec392f8a,626b3b8c0cf54eb8b1304e5f,,,,,,,,,,,,,,,,,,,,,,,l,1,0.4373,"[""0.817"",""0.298"",""0.561"",""0.722""]","[0,1,1,1]",0,30,30,30,1,1,0,,,1,FALSE,,,,,,,,,,,,,,,,,,,,,,,,,,,,,,
,60a6bb486c34319e01073638,001,2022-04-28_21h13.34.319,classification_task,2021.2.3,Win32,59.95922773,60a6bb486c34319e01073638,626b377229c10585ec392f8a,626b3b8c0cf54eb8b1304e5f,,,,,,,,,,,,,,,,,,,,,,,a,1,1.6553,"[""0.258"",""0.398"",""0.441"",""0.942""]","[1,1,0,1]",0,31,31,31,1,0,1,,,1,FALSE,,,,,,,,,,,,,,,,,,,,,,,,,,,,,,
,60a6bb486c34319e01073638,001,2022-04-28_21h13.34.319,classification_task,2021.2.3,Win32,59.95922773,60a6bb486c34319e01073638,626b377229c10585ec392f8a,626b3b8c0cf54eb8b1304e5f,,,,,,,,,,,,,,,,,,,,,,,l,1,0.3981,"[""0.452"",""0.298"",""0.561"",""0.722""]","[0,1,1,1]",0,32,32,32,1,1,0,,,1,FALSE,,,,,,,,,,,,,,,,,,,,,,,,,,,,,,
,60a6bb486c34319e01073638,001,2022-04-28_21h13.34.319,classification_task,2021.2.3,Win32,59.95922773,60a6bb486c34319e01073638,626b377229c10585ec392f8a,626b3b8c0cf54eb8b1304e5f,,,,,,,,,,,,,,,,,,,,,,,a,1,0.5244,"[""0.258"",""0.398"",""0.432"",""0.942""]","[1,1,0,1]",0,33,33,33,1,0,1,,,1,FALSE,,,,,,,,,,,,,,,,,,,,,,,,,,,,,,
,60a6bb486c34319e01073638,001,2022-04-28_21h13.34.319,classification_task,2021.2.3,Win32,59.95922773,60a6bb486c34319e01073638,626b377229c10585ec392f8a,626b3b8c0cf54eb8b1304e5f,,,,,,,,,,,,,,,,,,,,,,,a,1,0.8197,"[""0.258"",""0.439"",""0.602"",""0.942""]","[1,0,1,1]",0,34,34,34,1,0,1,,,1,FALSE,,,,,,,,,,,,,,,,,,,,,,,,,,,,,,
,60a6bb486c34319e01073638,001,2022-04-28_21h13.34.319,classification_task,2021.2.3,Win32,59.95922773,60a6bb486c34319e01073638,626b377229c10585ec392f8a,626b3b8c0cf54eb8b1304e5f,,,,,,,,,,,,,,,,,,,,,,,l,0,0.5437,"[""0.215"",""0.439"",""0.855"",""0.901""]","[1,0,1,1]",0,35,35,35,1,0,0,,,1,FALSE,,,,,,,,,,,,,,,,,,,,,,,,,,,,,,
,60a6bb486c34319e01073638,001,2022-04-28_21h13.34.319,classification_task,2021.2.3,Win32,59.95922773,60a6bb486c34319e01073638,626b377229c10585ec392f8a,626b3b8c0cf54eb8b1304e5f,,,,,,,,,,,,,,,,,,,,,,,l,1,0.6246,"[""0.821"",""0.356"",""0.653"",""0.775""]","[0,1,1,1]",0,36,36,36,1,1,1,,,1,FALSE,,,,,,,,,,,,,,,,,,,,,,,,,,,,,,
,60a6bb486c34319e01073638,001,2022-04-28_21h13.34.319,classification_task,2021.2.3,Win32,59.95922773,60a6bb486c34319e01073638,626b377229c10585ec392f8a,626b3b8c0cf54eb8b1304e5f,,,,,,,,,,,,,,,,,,,,,,,a,0,0.5836,"[""0.060"",""0.435"",""0.653"",""0.775""]","[1,0,1,1]",0,37,37,37,1,1,1,,,1,FALSE,,,,,,,,,,,,,,,,,,,,,,,,,,,,,,
,60a6bb486c34319e01073638,001,2022-04-28_21h13.34.319,classification_task,2021.2.3,Win32,59.95922773,60a6bb486c34319e01073638,626b377229c10585ec392f8a,626b3b8c0cf54eb8b1304e5f,,,,,,,,,,,,,,,,,,,,,,,l,1,0.4768,"[""0.147"",""0.298"",""0.561"",""0.523""]","[1,1,1,0]",0,38,38,38,1,1,0,,,1,FALSE,,,,,,,,,,,,,,,,,,,,,,,,,,,,,,
,60a6bb486c34319e01073638,001,2022-04-28_21h13.34.319,classification_task,2021.2.3,Win32,59.95922773,60a6bb486c34319e01073638,626b377229c10585ec392f8a,626b3b8c0cf54eb8b1304e5f,,,,,,,,,,,,,,,,,,,,,,,a,1,0.7076,"[""0.258"",""0.398"",""0.602"",""0.523""]","[1,1,1,0]",0,39,39,39,1,0,1,,,1,FALSE,,,,,,,,,,,,,,,,,,,,,,,,,,,,,,
,60a6bb486c34319e01073638,001,2022-04-28_21h13.34.319,classification_task,2021.2.3,Win32,59.95922773,60a6bb486c34319e01073638,626b377229c10585ec392f8a,626b3b8c0cf54eb8b1304e5f,,,,,,,,,,,,,,,,,,,,,,,a,1,0.4158,"[""0.215"",""0.486"",""0.855"",""0.452""]","[1,1,1,0]",0,40,40,40,1,0,0,,,1,FALSE,,,,,,,,,,,,,,,,,,,,,,,,,,,,,,
,60a6bb486c34319e01073638,001,2022-04-28_21h13.34.319,classification_task,2021.2.3,Win32,59.95922773,60a6bb486c34319e01073638,626b377229c10585ec392f8a,626b3b8c0cf54eb8b1304e5f,,,,,,,,,,,,,,,,,,,,,,,l,1,0.7478,"[""0.060"",""0.356"",""0.449"",""0.775""]","[1,1,0,1]",0,41,41,41,1,1,1,,,1,FALSE,,,,,,,,,,,,,,,,,,,,,,,,,,,,,,
,60a6bb486c34319e01073638,001,2022-04-28_21h13.34.319,classification_task,2021.2.3,Win32,59.95922773,60a6bb486c34319e01073638,626b377229c10585ec392f8a,626b3b8c0cf54eb8b1304e5f,,,,,,,,,,,,,,,,,,,,,,,l,0,0.8143,"[""0.441"",""0.486"",""0.855"",""0.901""]","[0,1,1,1]",0,42,42,42,1,0,0,,,1,FALSE,,,,,,,,,,,,,,,,,,,,,,,,,,,,,,
,60a6bb486c34319e01073638,001,2022-04-28_21h13.34.319,classification_task,2021.2.3,Win32,59.95922773,60a6bb486c34319e01073638,626b377229c10585ec392f8a,626b3b8c0cf54eb8b1304e5f,,,,,,,,,,,,,,,,,,,,,,,l,0,0.5685,"[""0.215"",""0.486"",""0.436"",""0.901""]","[1,1,0,1]",0,43,43,43,1,0,0,,,1,FALSE,,,,,,,,,,,,,,,,,,,,,,,,,,,,,,
,60a6bb486c34319e01073638,001,2022-04-28_21h13.34.319,classification_task,2021.2.3,Win32,59.95922773,60a6bb486c34319e01073638,626b377229c10585ec392f8a,626b3b8c0cf54eb8b1304e5f,,,,,,,,,,,,,,,,,,,,,,,l,0,0.7692,"[""0.099"",""0.398"",""0.602"",""0.942""]","[0,1,1,1]",0,44,44,44,1,0,1,,,1,FALSE,,,,,,,,,,,,,,,,,,,,,,,,,,,,,,
,60a6bb486c34319e01073638,001,2022-04-28_21h13.34.319,classification_task,2021.2.3,Win32,59.95922773,60a6bb486c34319e01073638,626b377229c10585ec392f8a,626b3b8c0cf54eb8b1304e5f,,,,,,,,,,,,,,,,,,,,,,,a,0,1.8249,"[""0.060"",""0.356"",""0.653"",""0.435""]","[1,1,1,0]",0,45,45,45,1,1,1,,,1,FALSE,,,,,,,,,,,,,,,,,,,,,,,,,,,,,,
,60a6bb486c34319e01073638,001,2022-04-28_21h13.34.319,classification_task,2021.2.3,Win32,59.95922773,60a6bb486c34319e01073638,626b377229c10585ec392f8a,626b3b8c0cf54eb8b1304e5f,,,,,,,,,,,,,,,,,,,,,,,a,0,1.9584,"[""0.147"",""0.298"",""0.448"",""0.722""]","[1,1,0,1]",0,46,46,46,1,1,0,,,1,FALSE,,,,,,,,,,,,,,,,,,,,,,,,,,,,,,
,60a6bb486c34319e01073638,001,2022-04-28_21h13.34.319,classification_task,2021.2.3,Win32,59.95922773,60a6bb486c34319e01073638,626b377229c10585ec392f8a,626b3b8c0cf54eb8b1304e5f,,,,,,,,,,,,,,,,,,,,,,,l,1,0.713,"[""0.147"",""0.448"",""0.561"",""0.722""]","[1,0,1,1]",0,47,47,47,1,1,0,,,1,FALSE,,,,,,,,,,,,,,,,,,,,,,,,,,,,,,
,60a6bb486c34319e01073638,001,2022-04-28_21h13.34.319,classification_task,2021.2.3,Win32,59.95922773,60a6bb486c34319e01073638,626b377229c10585ec392f8a,626b3b8c0cf54eb8b1304e5f,,,,,,,,,,,,,,,,,,,,,,,l,0,0.5007,"[""0.099"",""0.486"",""0.855"",""0.901""]","[0,1,1,1]",0,48,48,48,1,0,0,,,1,FALSE,,,,,,,,,,,,,,,,,,,,,,,,,,,,,,
,60a6bb486c34319e01073638,001,2022-04-28_21h13.34.319,classification_task,2021.2.3,Win32,59.95922773,60a6bb486c34319e01073638,626b377229c10585ec392f8a,626b3b8c0cf54eb8b1304e5f,,,,,,,,,,,,,,,,,,,,,,,a,1,1.9998,"[""0.258"",""0.398"",""0.432"",""0.942""]","[1,1,0,1]",0,49,49,49,1,0,1,,,1,FALSE,,,,,,,,,,,,,,,,,,,,,,,,,,,,,,
,60a6bb486c34319e01073638,001,2022-04-28_21h13.34.319,classification_task,2021.2.3,Win32,59.95922773,60a6bb486c34319e01073638,626b377229c10585ec392f8a,626b3b8c0cf54eb8b1304e5f,,,,,,,,,,,,,,,,,,,,,,,a,1,1.3222,"[""0.258"",""0.441"",""0.602"",""0.942""]","[1,0,1,1]",0,50,50,50,1,0,1,,,1,FALSE,,,,,,,,,,,,,,,,,,,,,,,,,,,,,,
,60a6bb486c34319e01073638,001,2022-04-28_21h13.34.319,classification_task,2021.2.3,Win32,59.95922773,60a6bb486c34319e01073638,626b377229c10585ec392f8a,626b3b8c0cf54eb8b1304e5f,,,,,,,,,,,,,,,,,,,,,,,a,1,0.6193,"[""0.258"",""0.398"",""0.602"",""0.452""]","[1,1,1,0]",0,51,51,51,1,0,1,,,1,FALSE,,,,,,,,,,,,,,,,,,,,,,,,,,,,,,
,60a6bb486c34319e01073638,001,2022-04-28_21h13.34.319,classification_task,2021.2.3,Win32,59.95922773,60a6bb486c34319e01073638,626b377229c10585ec392f8a,626b3b8c0cf54eb8b1304e5f,,,,,,,,,,,,,,,,,,,,,,,a,1,0.6654,"[""0.821"",""0.398"",""0.602"",""0.942""]","[0,1,1,1]",0,52,52,52,1,0,1,,,1,FALSE,,,,,,,,,,,,,,,,,,,,,,,,,,,,,,
,60a6bb486c34319e01073638,001,2022-04-28_21h13.34.319,classification_task,2021.2.3,Win32,59.95922773,60a6bb486c34319e01073638,626b377229c10585ec392f8a,626b3b8c0cf54eb8b1304e5f,,,,,,,,,,,,,,,,,,,,,,,l,1,0.6874,"[""0.060"",""0.356"",""0.817"",""0.775""]","[1,1,0,1]",0,53,53,53,1,1,1,,,1,FALSE,,,,,,,,,,,,,,,,,,,,,,,,,,,,,,
,60a6bb486c34319e01073638,001,2022-04-28_21h13.34.319,classification_task,2021.2.3,Win32,59.95922773,60a6bb486c34319e01073638,626b377229c10585ec392f8a,626b3b8c0cf54eb8b1304e5f,,,,,,,,,,,,,,,,,,,,,,,a,0,0.6651,"[""0.147"",""0.298"",""0.439"",""0.722""]","[1,1,0,1]",0,54,54,54,1,1,0,,,1,FALSE,,,,,,,,,,,,,,,,,,,,,,,,,,,,,,
,60a6bb486c34319e01073638,001,2022-04-28_21h13.34.319,classification_task,2021.2.3,Win32,59.95922773,60a6bb486c34319e01073638,626b377229c10585ec392f8a,626b3b8c0cf54eb8b1304e5f,,,,,,,,,,,,,,,,,,,,,,,l,1,1.4546,"[""0.060"",""0.356"",""0.653"",""0.812""]","[1,1,1,0]",0,55,55,55,1,1,1,,,1,FALSE,,,,,,,,,,,,,,,,,,,,,,,,,,,,,,
,60a6bb486c34319e01073638,001,2022-04-28_21h13.34.319,classification_task,2021.2.3,Win32,59.95922773,60a6bb486c34319e01073638,626b377229c10585ec392f8a,626b3b8c0cf54eb8b1304e5f,,,,,,,,,,,,,,,,,,,,,,,a,0,0.8173,"[""0.448"",""0.356"",""0.653"",""0.775""]","[0,1,1,1]",0,56,56,56,1,1,1,,,1,FALSE,,,,,,,,,,,,,,,,,,,,,,,,,,,,,,
,60a6bb486c34319e01073638,001,2022-04-28_21h13.34.319,classification_task,2021.2.3,Win32,59.95922773,60a6bb486c34319e01073638,626b377229c10585ec392f8a,626b3b8c0cf54eb8b1304e5f,,,,,,,,,,,,,,,,,,,,,,,l,1,0.5674,"[""0.147"",""0.298"",""0.561"",""0.435""]","[1,1,1,0]",0,57,57,57,1,1,0,,,1,FALSE,,,,,,,,,,,,,,,,,,,,,,,,,,,,,,
,60a6bb486c34319e01073638,001,2022-04-28_21h13.34.319,classification_task,2021.2.3,Win32,59.95922773,60a6bb486c34319e01073638,626b377229c10585ec392f8a,626b3b8c0cf54eb8b1304e5f,,,,,,,,,,,,,,,,,,,,,,,a,1,1.2969,"[""0.215"",""0.821"",""0.855"",""0.901""]","[1,0,1,1]",0,58,58,58,1,0,0,,,1,FALSE,,,,,,,,,,,,,,,,,,,,,,,,,,,,,,
,60a6bb486c34319e01073638,001,2022-04-28_21h13.34.319,classification_task,2021.2.3,Win32,59.95922773,60a6bb486c34319e01073638,626b377229c10585ec392f8a,626b3b8c0cf54eb8b1304e5f,,,,,,,,,,,,,,,,,,,,,,,a,0,1.09,"[""0.435"",""0.298"",""0.561"",""0.722""]","[0,1,1,1]",0,59,59,59,1,1,0,,,1,FALSE,,,,,,,,,,,,,,,,,,,,,,,,,,,,,,
,60a6bb486c34319e01073638,001,2022-04-28_21h13.34.319,classification_task,2021.2.3,Win32,59.95922773,60a6bb486c34319e01073638,626b377229c10585ec392f8a,626b3b8c0cf54eb8b1304e5f,,,,,,,,,,,,,,,,,,,,,,,a,1,1.2306,"[""0.215"",""0.486"",""0.855"",""0.821""]","[1,1,1,0]",0,60,60,60,1,0,0,,,1,FALSE,,,,,,,,,,,,,,,,,,,,,,,,,,,,,,
,60a6bb486c34319e01073638,001,2022-04-28_21h13.34.319,classification_task,2021.2.3,Win32,59.95922773,60a6bb486c34319e01073638,626b377229c10585ec392f8a,626b3b8c0cf54eb8b1304e5f,,,,,,,,,,,,,,,,,,,,,,,a,1,1.361,"[""0.215"",""0.486"",""0.817"",""0.901""]","[1,1,0,1]",0,61,61,61,1,0,0,,,1,FALSE,,,,,,,,,,,,,,,,,,,,,,,,,,,,,,
,60a6bb486c34319e01073638,001,2022-04-28_21h13.34.319,classification_task,2021.2.3,Win32,59.95922773,60a6bb486c34319e01073638,626b377229c10585ec392f8a,626b3b8c0cf54eb8b1304e5f,,,,,,,,,,,,,,,,,,,,,,,l,1,2.0562,"[""0.060"",""0.527"",""0.653"",""0.775""]","[1,0,1,1]",0,62,62,62,1,1,1,,,1,FALSE,,,,,,,,,,,,,,,,,,,,,,,,,,,,,,
,60a6bb486c34319e01073638,001,2022-04-28_21h13.34.319,classification_task,2021.2.3,Win32,59.95922773,60a6bb486c34319e01073638,626b377229c10585ec392f8a,626b3b8c0cf54eb8b1304e5f,,,,,,,,,,,,,,,,,,,,,,,a,0,1.084,"[""0.147"",""0.452"",""0.561"",""0.722""]","[1,0,1,1]",0,63,63,63,1,1,0,,,1,FALSE,,,,,,,,,,,,,,,,,,,,,,,,,,,,,,
,60a6bb486c34319e01073638,001,2022-04-28_21h13.34.319,classification_task,2021.2.3,Win32,59.95922773,60a6bb486c34319e01073638,626b377229c10585ec392f8a,626b3b8c0cf54eb8b1304e5f,,,,,,,,,,,,,,,,,,,,,,,,,,,,,,,,,,,,,,,0, ,,0,2.347608025,145.4572,0,1,1,1,1,2,2,,,,,,,,,,,,,,,,,
,60a6bb486c34319e01073638,001,2022-04-28_21h13.34.319,classification_task,2021.2.3,Win32,59.95922773,60a6bb486c34319e01073638,626b377229c10585ec392f8a,626b3b8c0cf54eb8b1304e5f,,,,,,,,,,,,,,,,,,,,,,,,,,,,,,,,,,,,,,,1,  ,,0,7.514605379,148.7753,0,1,1,1,1,2,2,,,,,,,,,,,,,,,,,
,60a6bb486c34319e01073638,001,2022-04-28_21h13.34.319,classification_task,2021.2.3,Win32,59.95922773,60a6bb486c34319e01073638,626b377229c10585ec392f8a,626b3b8c0cf54eb8b1304e5f,,,,,,,,,,,,,,,,,,,,,,,,,,,,,,,,,,,,,,,2,  ,,0,0.453042328,151.709,0,1,1,1,1,2,2,,,,,,,,,,,,,,,,,
,60a6bb486c34319e01073638,001,2022-04-28_21h13.34.319,classification_task,2021.2.3,Win32,59.95922773,60a6bb486c34319e01073638,626b377229c10585ec392f8a,626b3b8c0cf54eb8b1304e5f,,,,,,,,,,,,,,,,,,,,,,,,,,,,,,,,,,,,,,,,,,,,,0,1,1,1,1,,2,,,,,,,,,,,,,,,,,
,60a6bb486c34319e01073638,001,2022-04-28_21h13.34.319,classification_task,2021.2.3,Win32,59.95922773,60a6bb486c34319e01073638,626b377229c10585ec392f8a,626b3b8c0cf54eb8b1304e5f,,,,,,,,,,,,,,,,,,,,,space,8.9642,a,1,2.7812,"[""0.435"",""0.398"",""0.602"",""0.942""]","[0,1,1,1]",0,0,0,0,1,0,1,,,1,FALSE,,,,,,,,,,,,,,,,,,,,,,,,,,,,,,
,60a6bb486c34319e01073638,001,2022-04-28_21h13.34.319,classification_task,2021.2.3,Win32,59.95922773,60a6bb486c34319e01073638,626b377229c10585ec392f8a,626b3b8c0cf54eb8b1304e5f,,,,,,,,,,,,,,,,,,,,,,,l,1,4.4337,"[""0.060"",""0.356"",""0.653"",""0.441""]","[1,1,1,0]",0,1,1,1,1,1,1,,,1,FALSE,,,,,,,,,,,,,,,,,,,,,,,,,,,,,,
,60a6bb486c34319e01073638,001,2022-04-28_21h13.34.319,classification_task,2021.2.3,Win32,59.95922773,60a6bb486c34319e01073638,626b377229c10585ec392f8a,626b3b8c0cf54eb8b1304e5f,,,,,,,,,,,,,,,,,,,,,,,l,1,0.4008,"[""0.060"",""0.817"",""0.653"",""0.775""]","[1,0,1,1]",0,2,2,2,1,1,1,,,1,FALSE,,,,,,,,,,,,,,,,,,,,,,,,,,,,,,
,60a6bb486c34319e01073638,001,2022-04-28_21h13.34.319,classification_task,2021.2.3,Win32,59.95922773,60a6bb486c34319e01073638,626b377229c10585ec392f8a,626b3b8c0cf54eb8b1304e5f,,,,,,,,,,,,,,,,,,,,,,,a,0,0.7393,"[""0.817"",""0.298"",""0.561"",""0.722""]","[0,1,1,1]",0,3,3,3,1,1,0,,,1,FALSE,,,,,,,,,,,,,,,,,,,,,,,,,,,,,,
,60a6bb486c34319e01073638,001,2022-04-28_21h13.34.319,classification_task,2021.2.3,Win32,59.95922773,60a6bb486c34319e01073638,626b377229c10585ec392f8a,626b3b8c0cf54eb8b1304e5f,,,,,,,,,,,,,,,,,,,,,,,l,1,0.3187,"[""0.812"",""0.356"",""0.653"",""0.775""]","[0,1,1,1]",0,4,4,4,1,1,1,,,1,FALSE,,,,,,,,,,,,,,,,,,,,,,,,,,,,,,
,60a6bb486c34319e01073638,001,2022-04-28_21h13.34.319,classification_task,2021.2.3,Win32,59.95922773,60a6bb486c34319e01073638,626b377229c10585ec392f8a,626b3b8c0cf54eb8b1304e5f,,,,,,,,,,,,,,,,,,,,,,,a,1,0.3626,"[""0.441"",""0.486"",""0.855"",""0.901""]","[0,1,1,1]",0,5,5,5,1,0,0,,,1,FALSE,,,,,,,,,,,,,,,,,,,,,,,,,,,,,,
,60a6bb486c34319e01073638,001,2022-04-28_21h13.34.319,classification_task,2021.2.3,Win32,59.95922773,60a6bb486c34319e01073638,626b377229c10585ec392f8a,626b3b8c0cf54eb8b1304e5f,,,,,,,,,,,,,,,,,,,,,,,l,0,0.7808,"[""0.215"",""0.486"",""0.855"",""0.439""]","[1,1,1,0]",0,6,6,6,1,0,0,,,1,FALSE,,,,,,,,,,,,,,,,,,,,,,,,,,,,,,
,60a6bb486c34319e01073638,001,2022-04-28_21h13.34.319,classification_task,2021.2.3,Win32,59.95922773,60a6bb486c34319e01073638,626b377229c10585ec392f8a,626b3b8c0cf54eb8b1304e5f,,,,,,,,,,,,,,,,,,,,,,,l,0,1.0431,"[""0.258"",""0.398"",""0.439"",""0.942""]","[1,1,0,1]",0,7,7,7,1,0,1,,,1,FALSE,,,,,,,,,,,,,,,,,,,,,,,,,,,,,,
,60a6bb486c34319e01073638,001,2022-04-28_21h13.34.319,classification_task,2021.2.3,Win32,59.95922773,60a6bb486c34319e01073638,626b377229c10585ec392f8a,626b3b8c0cf54eb8b1304e5f,,,,,,,,,,,,,,,,,,,,,,,l,0,0.398,"[""0.258"",""0.527"",""0.602"",""0.942""]","[1,0,1,1]",0,8,8,8,1,0,1,,,1,FALSE,,,,,,,,,,,,,,,,,,,,,,,,,,,,,,
,60a6bb486c34319e01073638,001,2022-04-28_21h13.34.319,classification_task,2021.2.3,Win32,59.95922773,60a6bb486c34319e01073638,626b377229c10585ec392f8a,626b3b8c0cf54eb8b1304e5f,,,,,,,,,,,,,,,,,,,,,,,a,0,3.3467,"[""0.060"",""0.356"",""0.436"",""0.775""]","[1,1,0,1]",0,9,9,9,1,1,1,,,1,FALSE,,,,,,,,,,,,,,,,,,,,,,,,,,,,,,
,60a6bb486c34319e01073638,001,2022-04-28_21h13.34.319,classification_task,2021.2.3,Win32,59.95922773,60a6bb486c34319e01073638,626b377229c10585ec392f8a,626b3b8c0cf54eb8b1304e5f,,,,,,,,,,,,,,,,,,,,,,,l,1,1.7749,"[""0.147"",""0.435"",""0.561"",""0.722""]","[1,0,1,1]",0,10,10,10,1,1,0,,,1,FALSE,,,,,,,,,,,,,,,,,,,,,,,,,,,,,,
,60a6bb486c34319e01073638,001,2022-04-28_21h13.34.319,classification_task,2021.2.3,Win32,59.95922773,60a6bb486c34319e01073638,626b377229c10585ec392f8a,626b3b8c0cf54eb8b1304e5f,,,,,,,,,,,,,,,,,,,,,,,a,1,2.2024,"[""0.215"",""0.441"",""0.855"",""0.901""]","[1,0,1,1]",0,11,11,11,1,0,0,,,1,FALSE,,,,,,,,,,,,,,,,,,,,,,,,,,,,,,
,60a6bb486c34319e01073638,001,2022-04-28_21h13.34.319,classification_task,2021.2.3,Win32,59.95922773,60a6bb486c34319e01073638,626b377229c10585ec392f8a,626b3b8c0cf54eb8b1304e5f,,,,,,,,,,,,,,,,,,,,,,,l,1,0.2977,"[""0.147"",""0.298"",""0.436"",""0.722""]","[1,1,0,1]",0,12,12,12,1,1,0,,,1,FALSE,,,,,,,,,,,,,,,,,,,,,,,,,,,,,,
,60a6bb486c34319e01073638,001,2022-04-28_21h13.34.319,classification_task,2021.2.3,Win32,59.95922773,60a6bb486c34319e01073638,626b377229c10585ec392f8a,626b3b8c0cf54eb8b1304e5f,,,,,,,,,,,,,,,,,,,,,,,a,0,0.3227,"[""0.147"",""0.298"",""0.561"",""0.111""]","[1,1,1,0]",0,13,13,13,1,1,0,,,1,FALSE,,,,,,,,,,,,,,,,,,,,,,,,,,,,,,
,60a6bb486c34319e01073638,001,2022-04-28_21h13.34.319,classification_task,2021.2.3,Win32,59.95922773,60a6bb486c34319e01073638,626b377229c10585ec392f8a,626b3b8c0cf54eb8b1304e5f,,,,,,,,,,,,,,,,,,,,,,,a,1,1.5059,"[""0.215"",""0.486"",""0.449"",""0.901""]","[1,1,0,1]",0,14,14,14,1,0,0,,,1,FALSE,,,,,,,,,,,,,,,,,,,,,,,,,,,,,,
,60a6bb486c34319e01073638,001,2022-04-28_21h13.34.319,classification_task,2021.2.3,Win32,59.95922773,60a6bb486c34319e01073638,626b377229c10585ec392f8a,626b3b8c0cf54eb8b1304e5f,,,,,,,,,,,,,,,,,,,,,,,l,0,0.8085,"[""0.258"",""0.398"",""0.602"",""0.449""]","[1,1,1,0]",0,15,15,15,1,0,1,,,1,FALSE,,,,,,,,,,,,,,,,,,,,,,,,,,,,,,
,60a6bb486c34319e01073638,001,2022-04-28_21h13.34.319,classification_task,2021.2.3,Win32,59.95922773,60a6bb486c34319e01073638,626b377229c10585ec392f8a,626b3b8c0cf54eb8b1304e5f,,,,,,,,,,,,,,,,,,,,,,,l,0,1.1516,"[""0.258"",""0.398"",""0.602"",""0.439""]","[1,1,1,0]",0,16,16,16,1,0,1,,,1,FALSE,,,,,,,,,,,,,,,,,,,,,,,,,,,,,,
,60a6bb486c34319e01073638,001,2022-04-28_21h13.34.319,classification_task,2021.2.3,Win32,59.95922773,60a6bb486c34319e01073638,626b377229c10585ec392f8a,626b3b8c0cf54eb8b1304e5f,,,,,,,,,,,,,,,,,,,,,,,a,1,1.6809,"[""0.215"",""0.486"",""0.432"",""0.901""]","[1,1,0,1]",0,17,17,17,1,0,0,,,1,FALSE,,,,,,,,,,,,,,,,,,,,,,,,,,,,,,
,60a6bb486c34319e01073638,001,2022-04-28_21h13.34.319,classification_task,2021.2.3,Win32,59.95922773,60a6bb486c34319e01073638,626b377229c10585ec392f8a,626b3b8c0cf54eb8b1304e5f,,,,,,,,,,,,,,,,,,,,,,,l,0,0.4779,"[""0.258"",""0.435"",""0.602"",""0.942""]","[1,0,1,1]",0,18,18,18,1,0,1,,,1,FALSE,,,,,,,,,,,,,,,,,,,,,,,,,,,,,,
,60a6bb486c34319e01073638,001,2022-04-28_21h13.34.319,classification_task,2021.2.3,Win32,59.95922773,60a6bb486c34319e01073638,626b377229c10585ec392f8a,626b3b8c0cf54eb8b1304e5f,,,,,,,,,,,,,,,,,,,,,,,a,1,0.564,"[""0.215"",""0.452"",""0.855"",""0.901""]","[1,0,1,1]",0,19,19,19,1,0,0,,,1,FALSE,,,,,,,,,,,,,,,,,,,,,,,,,,,,,,
,60a6bb486c34319e01073638,001,2022-04-28_21h13.34.319,classification_task,2021.2.3,Win32,59.95922773,60a6bb486c34319e01073638,626b377229c10585ec392f8a,626b3b8c0cf54eb8b1304e5f,,,,,,,,,,,,,,,,,,,,,,,l,0,2.2396,"[""0.817"",""0.398"",""0.602"",""0.942""]","[0,1,1,1]",0,20,20,20,1,0,1,,,1,FALSE,,,,,,,,,,,,,,,,,,,,,,,,,,,,,,
,60a6bb486c34319e01073638,001,2022-04-28_21h13.34.319,classification_task,2021.2.3,Win32,59.95922773,60a6bb486c34319e01073638,626b377229c10585ec392f8a,626b3b8c0cf54eb8b1304e5f,,,,,,,,,,,,,,,,,,,,,,,l,0,1.4527,"[""0.215"",""0.486"",""0.855"",""0.111""]","[1,1,1,0]",0,21,21,21,1,0,0,,,1,FALSE,,,,,,,,,,,,,,,,,,,,,,,,,,,,,,
,60a6bb486c34319e01073638,001,2022-04-28_21h13.34.319,classification_task,2021.2.3,Win32,59.95922773,60a6bb486c34319e01073638,626b377229c10585ec392f8a,626b3b8c0cf54eb8b1304e5f,,,,,,,,,,,,,,,,,,,,,,,l,1,0.5313,"[""0.060"",""0.356"",""0.653"",""0.435""]","[1,1,1,0]",0,22,22,22,1,1,1,,,1,FALSE,,,,,,,,,,,,,,,,,,,,,,,,,,,,,,
,60a6bb486c34319e01073638,001,2022-04-28_21h13.34.319,classification_task,2021.2.3,Win32,59.95922773,60a6bb486c34319e01073638,626b377229c10585ec392f8a,626b3b8c0cf54eb8b1304e5f,,,,,,,,,,,,,,,,,,,,,,,a,0,0.3409,"[""0.060"",""0.356"",""0.449"",""0.775""]","[1,1,0,1]",0,23,23,23,1,1,1,,,1,FALSE,,,,,,,,,,,,,,,,,,,,,,,,,,,,,,
,60a6bb486c34319e01073638,001,2022-04-28_21h13.34.319,classification_task,2021.2.3,Win32,59.95922773,60a6bb486c34319e01073638,626b377229c10585ec392f8a,626b3b8c0cf54eb8b1304e5f,,,,,,,,,,,,,,,,,,,,,,,a,0,0.3809,"[""0.147"",""0.298"",""0.441"",""0.722""]","[1,1,0,1]",0,24,24,24,1,1,0,,,1,FALSE,,,,,,,,,,,,,,,,,,,,,,,,,,,,,,
,60a6bb486c34319e01073638,001,2022-04-28_21h13.34.319,classification_task,2021.2.3,Win32,59.95922773,60a6bb486c34319e01073638,626b377229c10585ec392f8a,626b3b8c0cf54eb8b1304e5f,,,,,,,,,,,,,,,,,,,,,,,l,0,0.3795,"[""0.258"",""0.398"",""0.448"",""0.942""]","[1,1,0,1]",0,25,25,25,1,0,1,,,1,FALSE,,,,,,,,,,,,,,,,,,,,,,,,,,,,,,
,60a6bb486c34319e01073638,001,2022-04-28_21h13.34.319,classification_task,2021.2.3,Win32,59.95922773,60a6bb486c34319e01073638,626b377229c10585ec392f8a,626b3b8c0cf54eb8b1304e5f,,,,,,,,,,,,,,,,,,,,,,,a,0,0.86,"[""0.147"",""0.436"",""0.561"",""0.722""]","[1,0,1,1]",0,26,26,26,1,1,0,,,1,FALSE,,,,,,,,,,,,,,,,,,,,,,,,,,,,,,
,60a6bb486c34319e01073638,001,2022-04-28_21h13.34.319,classification_task,2021.2.3,Win32,59.95922773,60a6bb486c34319e01073638,626b377229c10585ec392f8a,626b3b8c0cf54eb8b1304e5f,,,,,,,,,,,,,,,,,,,,,,,a,0,0.3647,"[""0.817"",""0.298"",""0.561"",""0.722""]","[0,1,1,1]",0,27,27,27,1,1,0,,,1,FALSE,,,,,,,,,,,,,,,,,,,,,,,,,,,,,,
,60a6bb486c34319e01073638,001,2022-04-28_21h13.34.319,classification_task,2021.2.3,Win32,59.95922773,60a6bb486c34319e01073638,626b377229c10585ec392f8a,626b3b8c0cf54eb8b1304e5f,,,,,,,,,,,,,,,,,,,,,,,l,0,0.738,"[""0.435"",""0.486"",""0.855"",""0.901""]","[0,1,1,1]",0,28,28,28,1,0,0,,,1,FALSE,,,,,,,,,,,,,,,,,,,,,,,,,,,,,,
,60a6bb486c34319e01073638,001,2022-04-28_21h13.34.319,classification_task,2021.2.3,Win32,59.95922773,60a6bb486c34319e01073638,626b377229c10585ec392f8a,626b3b8c0cf54eb8b1304e5f,,,,,,,,,,,,,,,,,,,,,,,a,0,1.2694,"[""0.060"",""0.111"",""0.653"",""0.775""]","[1,0,1,1]",0,29,29,29,1,1,1,,,1,FALSE,,,,,,,,,,,,,,,,,,,,,,,,,,,,,,
,60a6bb486c34319e01073638,001,2022-04-28_21h13.34.319,classification_task,2021.2.3,Win32,59.95922773,60a6bb486c34319e01073638,626b377229c10585ec392f8a,626b3b8c0cf54eb8b1304e5f,,,,,,,,,,,,,,,,,,,,,,,l,1,0.4964,"[""0.527"",""0.356"",""0.653"",""0.775""]","[0,1,1,1]",0,30,30,30,1,1,1,,,1,FALSE,,,,,,,,,,,,,,,,,,,,,,,,,,,,,,
,60a6bb486c34319e01073638,001,2022-04-28_21h13.34.319,classification_task,2021.2.3,Win32,59.95922773,60a6bb486c34319e01073638,626b377229c10585ec392f8a,626b3b8c0cf54eb8b1304e5f,,,,,,,,,,,,,,,,,,,,,,,l,1,0.3856,"[""0.147"",""0.298"",""0.561"",""0.523""]","[1,1,1,0]",0,31,31,31,1,1,0,,,1,FALSE,,,,,,,,,,,,,,,,,,,,,,,,,,,,,,
,60a6bb486c34319e01073638,001,2022-04-28_21h13.34.319,classification_task,2021.2.3,Win32,59.95922773,60a6bb486c34319e01073638,626b377229c10585ec392f8a,626b3b8c0cf54eb8b1304e5f,,,,,,,,,,,,,,,,,,,,,,,l,1,0.3581,"[""0.060"",""0.439"",""0.653"",""0.775""]","[1,0,1,1]",0,32,32,32,1,1,1,,,1,FALSE,,,,,,,,,,,,,,,,,,,,,,,,,,,,,,
,60a6bb486c34319e01073638,001,2022-04-28_21h13.34.319,classification_task,2021.2.3,Win32,59.95922773,60a6bb486c34319e01073638,626b377229c10585ec392f8a,626b3b8c0cf54eb8b1304e5f,,,,,,,,,,,,,,,,,,,,,,,a,0,0.3011,"[""0.147"",""0.298"",""0.561"",""0.527""]","[1,1,1,0]",0,33,33,33,1,1,0,,,1,FALSE,,,,,,,,,,,,,,,,,,,,,,,,,,,,,,
,60a6bb486c34319e01073638,001,2022-04-28_21h13.34.319,classification_task,2021.2.3,Win32,59.95922773,60a6bb486c34319e01073638,626b377229c10585ec392f8a,626b3b8c0cf54eb8b1304e5f,,,,,,,,,,,,,,,,,,,,,,,l,1,0.2997,"[""0.448"",""0.356"",""0.653"",""0.775""]","[0,1,1,1]",0,34,34,34,1,1,1,,,1,FALSE,,,,,,,,,,,,,,,,,,,,,,,,,,,,,,
,60a6bb486c34319e01073638,001,2022-04-28_21h13.34.319,classification_task,2021.2.3,Win32,59.95922773,60a6bb486c34319e01073638,626b377229c10585ec392f8a,626b3b8c0cf54eb8b1304e5f,,,,,,,,,,,,,,,,,,,,,,,a,0,0.2577,"[""0.147"",""0.298"",""0.812"",""0.722""]","[1,1,0,1]",0,35,35,35,1,1,0,,,1,FALSE,,,,,,,,,,,,,,,,,,,,,,,,,,,,,,
,60a6bb486c34319e01073638,001,2022-04-28_21h13.34.319,classification_task,2021.2.3,Win32,59.95922773,60a6bb486c34319e01073638,626b377229c10585ec392f8a,626b3b8c0cf54eb8b1304e5f,,,,,,,,,,,,,,,,,,,,,,,l,0,0.2427,"[""0.215"",""0.527"",""0.855"",""0.901""]","[1,0,1,1]",0,36,36,36,1,0,0,,,1,FALSE,,,,,,,,,,,,,,,,,,,,,,,,,,,,,,
,60a6bb486c34319e01073638,001,2022-04-28_21h13.34.319,classification_task,2021.2.3,Win32,59.95922773,60a6bb486c34319e01073638,626b377229c10585ec392f8a,626b3b8c0cf54eb8b1304e5f,,,,,,,,,,,,,,,,,,,,,,,a,1,0.2581,"[""0.258"",""0.398"",""0.099"",""0.942""]","[1,1,0,1]",0,37,37,37,1,0,1,,,1,FALSE,,,,,,,,,,,,,,,,,,,,,,,,,,,,,,
,60a6bb486c34319e01073638,001,2022-04-28_21h13.34.319,classification_task,2021.2.3,Win32,59.95922773,60a6bb486c34319e01073638,626b377229c10585ec392f8a,626b3b8c0cf54eb8b1304e5f,,,,,,,,,,,,,,,,,,,,,,,l,1,0.2795,"[""0.147"",""0.441"",""0.561"",""0.722""]","[1,0,1,1]",0,38,38,38,1,1,0,,,1,FALSE,,,,,,,,,,,,,,,,,,,,,,,,,,,,,,
,60a6bb486c34319e01073638,001,2022-04-28_21h13.34.319,classification_task,2021.2.3,Win32,59.95922773,60a6bb486c34319e01073638,626b377229c10585ec392f8a,626b3b8c0cf54eb8b1304e5f,,,,,,,,,,,,,,,,,,,,,,,l,0,0.3767,"[""0.448"",""0.398"",""0.602"",""0.942""]","[0,1,1,1]",0,39,39,39,1,0,1,,,1,FALSE,,,,,,,,,,,,,,,,,,,,,,,,,,,,,,
,60a6bb486c34319e01073638,001,2022-04-28_21h13.34.319,classification_task,2021.2.3,Win32,59.95922773,60a6bb486c34319e01073638,626b377229c10585ec392f8a,626b3b8c0cf54eb8b1304e5f,,,,,,,,,,,,,,,,,,,,,,,a,1,0.4145,"[""0.258"",""0.398"",""0.602"",""0.099""]","[1,1,1,0]",0,40,40,40,1,0,1,,,1,FALSE,,,,,,,,,,,,,,,,,,,,,,,,,,,,,,
,60a6bb486c34319e01073638,001,2022-04-28_21h13.34.319,classification_task,2021.2.3,Win32,59.95922773,60a6bb486c34319e01073638,626b377229c10585ec392f8a,626b3b8c0cf54eb8b1304e5f,,,,,,,,,,,,,,,,,,,,,,,a,1,0.3007,"[""0.449"",""0.486"",""0.855"",""0.901""]","[0,1,1,1]",0,41,41,41,1,0,0,,,1,FALSE,,,,,,,,,,,,,,,,,,,,,,,,,,,,,,
,60a6bb486c34319e01073638,001,2022-04-28_21h13.34.319,classification_task,2021.2.3,Win32,59.95922773,60a6bb486c34319e01073638,626b377229c10585ec392f8a,626b3b8c0cf54eb8b1304e5f,,,,,,,,,,,,,,,,,,,,,,,l,0,0.3805,"[""0.215"",""0.486"",""0.855"",""0.449""]","[1,1,1,0]",0,42,42,42,1,0,0,,,1,FALSE,,,,,,,,,,,,,,,,,,,,,,,,,,,,,,
,60a6bb486c34319e01073638,001,2022-04-28_21h13.34.319,classification_task,2021.2.3,Win32,59.95922773,60a6bb486c34319e01073638,626b377229c10585ec392f8a,626b3b8c0cf54eb8b1304e5f,,,,,,,,,,,,,,,,,,,,,,,l,1,0.4595,"[""0.060"",""0.356"",""0.653"",""0.817""]","[1,1,1,0]",0,43,43,43,1,1,1,,,1,FALSE,,,,,,,,,,,,,,,,,,,,,,,,,,,,,,
,60a6bb486c34319e01073638,001,2022-04-28_21h13.34.319,classification_task,2021.2.3,Win32,59.95922773,60a6bb486c34319e01073638,626b377229c10585ec392f8a,626b3b8c0cf54eb8b1304e5f,,,,,,,,,,,,,,,,,,,,,,,a,1,0.2631,"[""0.215"",""0.486"",""0.436"",""0.901""]","[1,1,0,1]",0,44,44,44,1,0,0,,,1,FALSE,,,,,,,,,,,,,,,,,,,,,,,,,,,,,,
,60a6bb486c34319e01073638,001,2022-04-28_21h13.34.319,classification_task,2021.2.3,Win32,59.95922773,60a6bb486c34319e01073638,626b377229c10585ec392f8a,626b3b8c0cf54eb8b1304e5f,,,,,,,,,,,,,,,,,,,,,,,l,1,0.4386,"[""0.060"",""0.356"",""0.817"",""0.775""]","[1,1,0,1]",0,45,45,45,1,1,1,,,1,FALSE,,,,,,,,,,,,,,,,,,,,,,,,,,,,,,
,60a6bb486c34319e01073638,001,2022-04-28_21h13.34.319,classification_task,2021.2.3,Win32,59.95922773,60a6bb486c34319e01073638,626b377229c10585ec392f8a,626b3b8c0cf54eb8b1304e5f,,,,,,,,,,,,,,,,,,,,,,,a,1,0.7351,"[""0.258"",""0.435"",""0.602"",""0.942""]","[1,0,1,1]",0,46,46,46,1,0,1,,,1,FALSE,,,,,,,,,,,,,,,,,,,,,,,,,,,,,,
,60a6bb486c34319e01073638,001,2022-04-28_21h13.34.319,classification_task,2021.2.3,Win32,59.95922773,60a6bb486c34319e01073638,626b377229c10585ec392f8a,626b3b8c0cf54eb8b1304e5f,,,,,,,,,,,,,,,,,,,,,,,l,1,0.3825,"[""0.527"",""0.298"",""0.561"",""0.722""]","[0,1,1,1]",0,47,47,47,1,1,0,,,1,FALSE,,,,,,,,,,,,,,,,,,,,,,,,,,,,,,
,60a6bb486c34319e01073638,001,2022-04-28_21h13.34.319,classification_task,2021.2.3,Win32,59.95922773,60a6bb486c34319e01073638,626b377229c10585ec392f8a,626b3b8c0cf54eb8b1304e5f,,,,,,,,,,,,,,,,,,,,,,,a,1,0.5565,"[""0.258"",""0.398"",""0.523"",""0.942""]","[1,1,0,1]",0,48,48,48,1,0,1,,,1,FALSE,,,,,,,,,,,,,,,,,,,,,,,,,,,,,,
,60a6bb486c34319e01073638,001,2022-04-28_21h13.34.319,classification_task,2021.2.3,Win32,59.95922773,60a6bb486c34319e01073638,626b377229c10585ec392f8a,626b3b8c0cf54eb8b1304e5f,,,,,,,,,,,,,,,,,,,,,,,l,0,0.5225,"[""0.215"",""0.486"",""0.111"",""0.901""]","[1,1,0,1]",0,49,49,49,1,0,0,,,1,FALSE,,,,,,,,,,,,,,,,,,,,,,,,,,,,,,
,60a6bb486c34319e01073638,001,2022-04-28_21h13.34.319,classification_task,2021.2.3,Win32,59.95922773,60a6bb486c34319e01073638,626b377229c10585ec392f8a,626b3b8c0cf54eb8b1304e5f,,,,,,,,,,,,,,,,,,,,,,,l,1,0.5979,"[""0.060"",""0.356"",""0.653"",""0.449""]","[1,1,1,0]",0,50,50,50,1,1,1,,,1,FALSE,,,,,,,,,,,,,,,,,,,,,,,,,,,,,,
,60a6bb486c34319e01073638,001,2022-04-28_21h13.34.319,classification_task,2021.2.3,Win32,59.95922773,60a6bb486c34319e01073638,626b377229c10585ec392f8a,626b3b8c0cf54eb8b1304e5f,,,,,,,,,,,,,,,,,,,,,,,l,0,0.42,"[""0.215"",""0.452"",""0.855"",""0.901""]","[1,0,1,1]",0,51,51,51,1,0,0,,,1,FALSE,,,,,,,,,,,,,,,,,,,,,,,,,,,,,,
,60a6bb486c34319e01073638,001,2022-04-28_21h13.34.319,classification_task,2021.2.3,Win32,59.95922773,60a6bb486c34319e01073638,626b377229c10585ec392f8a,626b3b8c0cf54eb8b1304e5f,,,,,,,,,,,,,,,,,,,,,,,a,1,0.2777,"[""0.258"",""0.441"",""0.602"",""0.942""]","[1,0,1,1]",0,52,52,52,1,0,1,,,1,FALSE,,,,,,,,,,,,,,,,,,,,,,,,,,,,,,
,60a6bb486c34319e01073638,001,2022-04-28_21h13.34.319,classification_task,2021.2.3,Win32,59.95922773,60a6bb486c34319e01073638,626b377229c10585ec392f8a,626b3b8c0cf54eb8b1304e5f,,,,,,,,,,,,,,,,,,,,,,,l,1,0.3376,"[""0.523"",""0.356"",""0.653"",""0.775""]","[0,1,1,1]",0,53,53,53,1,1,1,,,1,FALSE,,,,,,,,,,,,,,,,,,,,,,,,,,,,,,
,60a6bb486c34319e01073638,001,2022-04-28_21h13.34.319,classification_task,2021.2.3,Win32,59.95922773,60a6bb486c34319e01073638,626b377229c10585ec392f8a,626b3b8c0cf54eb8b1304e5f,,,,,,,,,,,,,,,,,,,,,,,a,1,0.3398,"[""0.215"",""0.486"",""0.855"",""0.817""]","[1,1,1,0]",0,54,54,54,1,0,0,,,1,FALSE,,,,,,,,,,,,,,,,,,,,,,,,,,,,,,
,60a6bb486c34319e01073638,001,2022-04-28_21h13.34.319,classification_task,2021.2.3,Win32,59.95922773,60a6bb486c34319e01073638,626b377229c10585ec392f8a,626b3b8c0cf54eb8b1304e5f,,,,,,,,,,,,,,,,,,,,,,,l,1,0.3742,"[""0.060"",""0.356"",""0.449"",""0.775""]","[1,1,0,1]",0,55,55,55,1,1,1,,,1,FALSE,,,,,,,,,,,,,,,,,,,,,,,,,,,,,,
,60a6bb486c34319e01073638,001,2022-04-28_21h13.34.319,classification_task,2021.2.3,Win32,59.95922773,60a6bb486c34319e01073638,626b377229c10585ec392f8a,626b3b8c0cf54eb8b1304e5f,,,,,,,,,,,,,,,,,,,,,,,l,1,0.2218,"[""0.527"",""0.298"",""0.561"",""0.722""]","[0,1,1,1]",0,56,56,56,1,1,0,,,1,FALSE,,,,,,,,,,,,,,,,,,,,,,,,,,,,,,
,60a6bb486c34319e01073638,001,2022-04-28_21h13.34.319,classification_task,2021.2.3,Win32,59.95922773,60a6bb486c34319e01073638,626b377229c10585ec392f8a,626b3b8c0cf54eb8b1304e5f,,,,,,,,,,,,,,,,,,,,,,,l,1,0.4182,"[""0.147"",""0.298"",""0.448"",""0.722""]","[1,1,0,1]",0,57,57,57,1,1,0,,,1,FALSE,,,,,,,,,,,,,,,,,,,,,,,,,,,,,,
,60a6bb486c34319e01073638,001,2022-04-28_21h13.34.319,classification_task,2021.2.3,Win32,59.95922773,60a6bb486c34319e01073638,626b377229c10585ec392f8a,626b3b8c0cf54eb8b1304e5f,,,,,,,,,,,,,,,,,,,,,,,a,0,0.2824,"[""0.147"",""0.298"",""0.561"",""0.821""]","[1,1,1,0]",0,58,58,58,1,1,0,,,1,FALSE,,,,,,,,,,,,,,,,,,,,,,,,,,,,,,
,60a6bb486c34319e01073638,001,2022-04-28_21h13.34.319,classification_task,2021.2.3,Win32,59.95922773,60a6bb486c34319e01073638,626b377229c10585ec392f8a,626b3b8c0cf54eb8b1304e5f,,,,,,,,,,,,,,,,,,,,,,,l,0,0.3561,"[""0.258"",""0.398"",""0.602"",""0.812""]","[1,1,1,0]",0,59,59,59,1,0,1,,,1,FALSE,,,,,,,,,,,,,,,,,,,,,,,,,,,,,,
,60a6bb486c34319e01073638,001,2022-04-28_21h13.34.319,classification_task,2021.2.3,Win32,59.95922773,60a6bb486c34319e01073638,626b377229c10585ec392f8a,626b3b8c0cf54eb8b1304e5f,,,,,,,,,,,,,,,,,,,,,,,a,0,1.3657,"[""0.060"",""0.452"",""0.653"",""0.775""]","[1,0,1,1]",0,60,60,60,1,1,1,,,1,FALSE,,,,,,,,,,,,,,,,,,,,,,,,,,,,,,
,60a6bb486c34319e01073638,001,2022-04-28_21h13.34.319,classification_task,2021.2.3,Win32,59.95922773,60a6bb486c34319e01073638,626b377229c10585ec392f8a,626b3b8c0cf54eb8b1304e5f,,,,,,,,,,,,,,,,,,,,,,,l,0,1.9873,"[""0.449"",""0.398"",""0.602"",""0.942""]","[0,1,1,1]",0,61,61,61,1,0,1,,,1,FALSE,,,,,,,,,,,,,,,,,,,,,,,,,,,,,,
,60a6bb486c34319e01073638,001,2022-04-28_21h13.34.319,classification_task,2021.2.3,Win32,59.95922773,60a6bb486c34319e01073638,626b377229c10585ec392f8a,626b3b8c0cf54eb8b1304e5f,,,,,,,,,,,,,,,,,,,,,,,l,0,1.1772,"[""0.527"",""0.486"",""0.855"",""0.901""]","[0,1,1,1]",0,62,62,62,1,0,0,,,1,FALSE,,,,,,,,,,,,,,,,,,,,,,,,,,,,,,
,60a6bb486c34319e01073638,001,2022-04-28_21h13.34.319,classification_task,2021.2.3,Win32,59.95922773,60a6bb486c34319e01073638,626b377229c10585ec392f8a,626b3b8c0cf54eb8b1304e5f,,,,,,,,,,,,,,,,,,,,,,,a,0,1.1773,"[""0.147"",""0.812"",""0.561"",""0.722""]","[1,0,1,1]",0,63,63,63,1,1,0,,,1,FALSE,,,,,,,,,,,,,,,,,,,,,,,,,,,,,,
,60a6bb486c34319e01073638,001,2022-04-28_21h13.34.319,classification_task,2021.2.3,Win32,59.95922773,60a6bb486c34319e01073638,626b377229c10585ec392f8a,626b3b8c0cf54eb8b1304e5f,,,,,,,,,,,,,,,,,,,,,,,,,,,,,,,,,,,,,,,0, ,,0,1.176421958,133.0032,0,2,2,2,1,2,3,,,,,,,,,,,,,,,,,
,60a6bb486c34319e01073638,001,2022-04-28_21h13.34.319,classification_task,2021.2.3,Win32,59.95922773,60a6bb486c34319e01073638,626b377229c10585ec392f8a,626b3b8c0cf54eb8b1304e5f,,,,,,,,,,,,,,,,,,,,,,,,,,,,,,,,,,,,,,,1,  ,,0,3.484347443,137.6733,0,2,2,2,1,2,3,,,,,,,,,,,,,,,,,
,60a6bb486c34319e01073638,001,2022-04-28_21h13.34.319,classification_task,2021.2.3,Win32,59.95922773,60a6bb486c34319e01073638,626b377229c10585ec392f8a,626b3b8c0cf54eb8b1304e5f,,,,,,,,,,,,,,,,,,,,,,,,,,,,,,,,,,,,,,,2,  ,,0,6.825672399,139.7398,0,2,2,2,1,2,3,,,,,,,,,,,,,,,,,
,60a6bb486c34319e01073638,001,2022-04-28_21h13.34.319,classification_task,2021.2.3,Win32,59.95922773,60a6bb486c34319e01073638,626b377229c10585ec392f8a,626b3b8c0cf54eb8b1304e5f,,,,,,,,,,,,,,,,,,,,,,,,,,,,,,,,,,,,,,,,,,,,,0,2,2,2,1,,3,,,,,,,,,,,,,,,,,
,60a6bb486c34319e01073638,001,2022-04-28_21h13.34.319,classification_task,2021.2.3,Win32,59.95922773,60a6bb486c34319e01073638,626b377229c10585ec392f8a,626b3b8c0cf54eb8b1304e5f,,,,,,,,,,,,,,,,,,,,,,,,,,,,,,,,,,,,,,,,,,,,,,,,,,,,,I believe the aid is a competent performer,,0.7,0,5,958.3896,0,0,0,0,1,0,,,,
,60a6bb486c34319e01073638,001,2022-04-28_21h13.34.319,classification_task,2021.2.3,Win32,59.95922773,60a6bb486c34319e01073638,626b377229c10585ec392f8a,626b3b8c0cf54eb8b1304e5f,,,,,,,,,,,,,,,,,,,,,,,,,,,,,,,,,,,,,,,,,,,,,,,,,,,,,I trust the aid,,0.7,0,5,960.0627,0,0,0,0,1,0,,,,
,60a6bb486c34319e01073638,001,2022-04-28_21h13.34.319,classification_task,2021.2.3,Win32,59.95922773,60a6bb486c34319e01073638,626b377229c10585ec392f8a,626b3b8c0cf54eb8b1304e5f,,,,,,,,,,,,,,,,,,,,,,,,,,,,,,,,,,,,,,,,,,,,,,,,,,,,,I have confidence in the advice given by the aid,,0.7,0,5,963.196,0,0,0,0,1,0,,,,
,60a6bb486c34319e01073638,001,2022-04-28_21h13.34.319,classification_task,2021.2.3,Win32,59.95922773,60a6bb486c34319e01073638,626b377229c10585ec392f8a,626b3b8c0cf54eb8b1304e5f,,,,,,,,,,,,,,,,,,,,,,,,,,,,,,,,,,,,,,,,,,,,,,,,,,,,,I can depend on the aid,,0.7,0,5,965.8573,0,0,0,0,1,0,,,,
,60a6bb486c34319e01073638,001,2022-04-28_21h13.34.319,classification_task,2021.2.3,Win32,59.95922773,60a6bb486c34319e01073638,626b377229c10585ec392f8a,626b3b8c0cf54eb8b1304e5f,,,,,,,,,,,,,,,,,,,,,,,,,,,,,,,,,,,,,,,,,,,,,,,,,,,,,I can rely on the aid to behave in consistent ways,,0.7,0,5,966.7355,0,0,0,0,1,0,,,,
,60a6bb486c34319e01073638,001,2022-04-28_21h13.34.319,classification_task,2021.2.3,Win32,59.95922773,60a6bb486c34319e01073638,626b377229c10585ec392f8a,626b3b8c0cf54eb8b1304e5f,,,,,,,,,,,,,,,,,,,,,,,,,,,,,,,,,,,,,,,,,,,,,,,,,,,,,I can rely on the aid to do its best every time I take its advice,,0.7,0,5,967.5147,0,0,0,0,1,0,,,,
,60a6bb486c34319e01073638,001,2022-04-28_21h13.34.319,classification_task,2021.2.3,Win32,59.95922773,60a6bb486c34319e01073638,626b377229c10585ec392f8a,626b3b8c0cf54eb8b1304e5f,,,,,,,,,,,,,,,,,,,,,,,,,,,,,,,,,,,,,,,,,,,,,,,,,,,,,"On trials you completed with assistance from the aid, how frequently did you think the aid was correct?",,0.7,0,90%,,0,0,0,0,1,0,,,,
,60a6bb486c34319e01073638,001,2022-04-28_21h13.34.319,classification_task,2021.2.3,Win32,59.95922773,60a6bb486c34319e01073638,626b377229c10585ec392f8a,626b3b8c0cf54eb8b1304e5f,,,,,,,,,,,,,,,,,,,,,,,,,,,,,,,,,,,,,,,,,,,,,,,,,,,,,"On trials you completed without the aid, how frequently did you think you were correct?",,0.7,0,50%,,0,0,0,0,1,0,,,,
,60a6bb486c34319e01073638,001,2022-04-28_21h13.34.319,classification_task,2021.2.3,Win32,59.95922773,60a6bb486c34319e01073638,626b377229c10585ec392f8a,626b3b8c0cf54eb8b1304e5f,,,,,,,,,,,,,,,,,,,,,,,,,,,,,,,,,,,,,,,,,,,,,,,,,,,,,,,,,,,0,0,0,0,1,,,,,
,60a6bb486c34319e01073638,001,2022-04-28_21h13.34.319,classification_task,2021.2.3,Win32,59.95922773,60a6bb486c34319e01073638,626b377229c10585ec392f8a,626b3b8c0cf54eb8b1304e5f,,,,,,,,,,,,,,,,,,,,,,,,,,,,,,,,,,,,,,,,,,,,,,,,,,,,,,,,,,,,,,,,,space,11.5838,1004.1177,
,60a6bb486c34319e01073638,001,2022-04-28_21h13.34.319,classification_task,2021.2.3,Win32,59.95922773,60a6bb486c34319e01073638,626b377229c10585ec392f8a,626b3b8c0cf54eb8b1304e5f,,,,,,,,,,,,,,,,,,,,,,,,,,,,,,,,,,,,,,,,,,,,,,,,,,,,,,,,,,,,,,,,,,,,"Mozilla/5.0 (Windows NT 6.3; Win64; x64) AppleWebKit/537.36 (KHTML, like Gecko) Chrome/100.0.4896.127 Safari/537.36"
