usingWebGL,participant,session,date,expName,psychopyVersion,OS,frameRate,PROLIFIC_PID,STUDY_ID,SESSION_ID,signatures_friend,signatures_foe,band_ranges_top,band_ranges_bottom,formitemText,formtype,formundefined,formitemWidth,formindex,formresponse,formrt,key_resp_2.keys,key_resp_2.rt,tute_resp.keys,tute_resp.rt,tutorial.thisRepN,tutorial.thisTrialN,tutorial.thisN,tutorial.thisIndex,tutorial.ran,key_resp_4.keys,key_resp_4.rt,key_resp.keys,key_resp.corr,lines_presented,is_signal_presented,trials.thisRepN,trials.thisTrialN,trials.thisN,trials.thisIndex,trials.ran,vessel,active_band,lines,is_signal,supported_pos,catch_trial,key_resp.rt,debrief_formindex,debrief_formitemText,debrief_formtype,debrief_formitemWidth,debrief_formresponse,debrief_formrt,phases.thisRepN,phases.thisTrialN,phases.thisN,phases.thisIndex,phases.ran,phases.order,phase,key_resp_3.keys,trustitemText,trusttype,trustitemWidth,trustindex,trustresponse,trustrt,support_status.thisRepN,support_status.thisTrialN,support_status.thisN,support_status.thisIndex,support_status.ran,support_status.order,key_resp_5.keys,key_resp_5.rt,globalClockTime,userAgent
TRUE,60a80ae7c96c2610a00b4180,001,2022-04-29_02h09.34.112,classification_task,2021.2.3,Win32,60.07810153,60a80ae7c96c2610a00b4180,626b377229c10585ec392f89,626b3ab2983213a57e6d5a70,,,,,,,,,,,,,,,,,,,,,,,,,,,,,,,,,,,,,,,,,,,,,,,,,,,,,,,,,,,,,,,,,,,,
,60a80ae7c96c2610a00b4180,001,2022-04-29_02h09.34.112,classification_task,2021.2.3,Win32,60.07810153,60a80ae7c96c2610a00b4180,626b377229c10585ec392f89,626b3ab2983213a57e6d5a70,"[[""0.295"",""0.393"",""0.875"",""0.933""],[""0.246"",""0.428"",""0.622"",""0.969""]]","[[""0.067"",""0.353"",""0.545"",""0.818""],[""0.117"",""0.207"",""0.474"",""0.784""]]","[1,10]","[100,1000]",Video game experience,,,0.7,0,,,,,,,,,,,,,,,,,,,,,,,,,,,,,,,,,,,,,,,,,,,,,,,,,,,,,,,,,,,
,60a80ae7c96c2610a00b4180,001,2022-04-29_02h09.34.112,classification_task,2021.2.3,Win32,60.07810153,60a80ae7c96c2610a00b4180,626b377229c10585ec392f89,626b3ab2983213a57e6d5a70,,,,,Approximately how many hours did you spend playing video games in the last week?,,,0.7,0,10,,,,,,,,,,,,,,,,,,,,,,,,,,,,,,,,,,,,,,,,,,,,,,,,,,,,,,,,,,
,60a80ae7c96c2610a00b4180,001,2022-04-29_02h09.34.112,classification_task,2021.2.3,Win32,60.07810153,60a80ae7c96c2610a00b4180,626b377229c10585ec392f89,626b3ab2983213a57e6d5a70,,,,,"Which game did you play the most this year? (Enter ""None"" if you didn't play any)",,,0.7,0,League of Legends,,,,,,,,,,,,,,,,,,,,,,,,,,,,,,,,,,,,,,,,,,,,,,,,,,,,,,,,,,
,60a80ae7c96c2610a00b4180,001,2022-04-29_02h09.34.112,classification_task,2021.2.3,Win32,60.07810153,60a80ae7c96c2610a00b4180,626b377229c10585ec392f89,626b3ab2983213a57e6d5a70,,,,,Visual perception,,,0.7,0,,,,,,,,,,,,,,,,,,,,,,,,,,,,,,,,,,,,,,,,,,,,,,,,,,,,,,,,,,,
,60a80ae7c96c2610a00b4180,001,2022-04-29_02h09.34.112,classification_task,2021.2.3,Win32,60.07810153,60a80ae7c96c2610a00b4180,626b377229c10585ec392f89,626b3ab2983213a57e6d5a70,,,,,Do you have any form of color blindness?,,,0.7,0,No,3412.8813,,,,,,,,,,,,,,,,,,,,,,,,,,,,,,,,,,,,,,,,,,,,,,,,,,,,,,,,,
,60a80ae7c96c2610a00b4180,001,2022-04-29_02h09.34.112,classification_task,2021.2.3,Win32,60.07810153,60a80ae7c96c2610a00b4180,626b377229c10585ec392f89,626b3ab2983213a57e6d5a70,,,,,Do you use software to change the colour temperature of your screen (e.g. f.lux)?,,,0.7,0,No,3414.6929,,,,,,,,,,,,,,,,,,,,,,,,,,,,,,,,,,,,,,,,,,,,,,,,,,,,,,,,,
,60a80ae7c96c2610a00b4180,001,2022-04-29_02h09.34.112,classification_task,2021.2.3,Win32,60.07810153,60a80ae7c96c2610a00b4180,626b377229c10585ec392f89,626b3ab2983213a57e6d5a70,,,,,,,,,,,,space,6.6329,space,3.9641,0,0,0,0,1,,,,,,,,,,,,,,,,,,,,,,,,,,,,,,,,,,,,,,,,,,,,,,,,
,60a80ae7c96c2610a00b4180,001,2022-04-29_02h09.34.112,classification_task,2021.2.3,Win32,60.07810153,60a80ae7c96c2610a00b4180,626b377229c10585ec392f89,626b3ab2983213a57e6d5a70,,,,,,,,,,,,,,space,11.7785,1,0,1,0,1,,,,,,,,,,,,,,,,,,,,,,,,,,,,,,,,,,,,,,,,,,,,,,,,
,60a80ae7c96c2610a00b4180,001,2022-04-29_02h09.34.112,classification_task,2021.2.3,Win32,60.07810153,60a80ae7c96c2610a00b4180,626b377229c10585ec392f89,626b3ab2983213a57e6d5a70,,,,,,,,,,,,,,space,4.9555,2,0,2,0,1,,,,,,,,,,,,,,,,,,,,,,,,,,,,,,,,,,,,,,,,,,,,,,,,
,60a80ae7c96c2610a00b4180,001,2022-04-29_02h09.34.112,classification_task,2021.2.3,Win32,60.07810153,60a80ae7c96c2610a00b4180,626b377229c10585ec392f89,626b3ab2983213a57e6d5a70,,,,,,,,,,,,,,space,6.6145,3,0,3,0,1,,,,,,,,,,,,,,,,,,,,,,,,,,,,,,,,,,,,,,,,,,,,,,,,
,60a80ae7c96c2610a00b4180,001,2022-04-29_02h09.34.112,classification_task,2021.2.3,Win32,60.07810153,60a80ae7c96c2610a00b4180,626b377229c10585ec392f89,626b3ab2983213a57e6d5a70,,,,,,,,,,,,,,space,4.8832,4,0,4,0,1,,,,,,,,,,,,,,,,,,,,,,,,,,,,,,,,,,,,,,,,,,,,,,,,
,60a80ae7c96c2610a00b4180,001,2022-04-29_02h09.34.112,classification_task,2021.2.3,Win32,60.07810153,60a80ae7c96c2610a00b4180,626b377229c10585ec392f89,626b3ab2983213a57e6d5a70,,,,,,,,,,,,,,,,,,,,,space,1.12,,0,"[""0.067"",""0.674"",""0.545"",""0.818""]","[1,0,1,1]",0,0,0,0,1,1,0,,,1,FALSE,,,,,,,,,,,,,,,,,,,,,,,,,,,,,,,
,60a80ae7c96c2610a00b4180,001,2022-04-29_02h09.34.112,classification_task,2021.2.3,Win32,60.07810153,60a80ae7c96c2610a00b4180,626b377229c10585ec392f89,626b3ab2983213a57e6d5a70,,,,,,,,,,,,,,,,,,,,,,,a,0,"[""0.510"",""0.353"",""0.545"",""0.818""]","[0,1,1,1]",0,1,1,1,1,1,0,,,1,FALSE,3.9501,,,,,,,,,,,,,,,,,,,,,,,,,,,,,,
,60a80ae7c96c2610a00b4180,001,2022-04-29_02h09.34.112,classification_task,2021.2.3,Win32,60.07810153,60a80ae7c96c2610a00b4180,626b377229c10585ec392f89,626b3ab2983213a57e6d5a70,,,,,,,,,,,,,,,,,,,,,,,l,1,"[""0.067"",""0.353"",""0.545"",""0.748""]","[1,1,1,0]",0,2,2,2,1,1,0,,,1,FALSE,4.7512,,,,,,,,,,,,,,,,,,,,,,,,,,,,,,
,60a80ae7c96c2610a00b4180,001,2022-04-29_02h09.34.112,classification_task,2021.2.3,Win32,60.07810153,60a80ae7c96c2610a00b4180,626b377229c10585ec392f89,626b3ab2983213a57e6d5a70,,,,,,,,,,,,,,,,,,,,,,,a,1,"[""0.246"",""0.721"",""0.622"",""0.969""]","[1,0,1,1]",0,3,3,3,1,0,1,,,1,FALSE,2.4991,,,,,,,,,,,,,,,,,,,,,,,,,,,,,,
,60a80ae7c96c2610a00b4180,001,2022-04-29_02h09.34.112,classification_task,2021.2.3,Win32,60.07810153,60a80ae7c96c2610a00b4180,626b377229c10585ec392f89,626b3ab2983213a57e6d5a70,,,,,,,,,,,,,,,,,,,,,,,l,1,"[""0.067"",""0.353"",""0.730"",""0.818""]","[1,1,0,1]",0,4,4,4,1,1,0,,,1,FALSE,2.7424,,,,,,,,,,,,,,,,,,,,,,,,,,,,,,
,60a80ae7c96c2610a00b4180,001,2022-04-29_02h09.34.112,classification_task,2021.2.3,Win32,60.07810153,60a80ae7c96c2610a00b4180,626b377229c10585ec392f89,626b3ab2983213a57e6d5a70,,,,,,,,,,,,,,,,,,,,,,,a,1,"[""0.246"",""0.428"",""0.170"",""0.969""]","[1,1,0,1]",0,5,5,5,1,0,1,,,1,FALSE,2.5655,,,,,,,,,,,,,,,,,,,,,,,,,,,,,,
,60a80ae7c96c2610a00b4180,001,2022-04-29_02h09.34.112,classification_task,2021.2.3,Win32,60.07810153,60a80ae7c96c2610a00b4180,626b377229c10585ec392f89,626b3ab2983213a57e6d5a70,,,,,,,,,,,,,,,,,,,,,,,l,1,"[""0.510"",""0.207"",""0.474"",""0.784""]","[0,1,1,1]",0,6,6,6,1,1,1,,,1,FALSE,3.2001,,,,,,,,,,,,,,,,,,,,,,,,,,,,,,
,60a80ae7c96c2610a00b4180,001,2022-04-29_02h09.34.112,classification_task,2021.2.3,Win32,60.07810153,60a80ae7c96c2610a00b4180,626b377229c10585ec392f89,626b3ab2983213a57e6d5a70,,,,,,,,,,,,,,,,,,,,,,,a,1,"[""0.295"",""0.393"",""0.875"",""0.750""]","[1,1,1,0]",0,7,7,7,1,0,0,,,1,FALSE,4.1981,,,,,,,,,,,,,,,,,,,,,,,,,,,,,,
,60a80ae7c96c2610a00b4180,001,2022-04-29_02h09.34.112,classification_task,2021.2.3,Win32,60.07810153,60a80ae7c96c2610a00b4180,626b377229c10585ec392f89,626b3ab2983213a57e6d5a70,,,,,,,,,,,,,,,,,,,,,,,l,1,"[""0.117"",""0.207"",""0.474"",""0.154""]","[1,1,1,0]",0,8,8,8,1,1,1,,,1,FALSE,3.6862,,,,,,,,,,,,,,,,,,,,,,,,,,,,,,
,60a80ae7c96c2610a00b4180,001,2022-04-29_02h09.34.112,classification_task,2021.2.3,Win32,60.07810153,60a80ae7c96c2610a00b4180,626b377229c10585ec392f89,626b3ab2983213a57e6d5a70,,,,,,,,,,,,,,,,,,,,,,,l,1,"[""0.117"",""0.707"",""0.474"",""0.784""]","[1,0,1,1]",0,9,9,9,1,1,1,,,1,FALSE,6.4165,,,,,,,,,,,,,,,,,,,,,,,,,,,,,,
,60a80ae7c96c2610a00b4180,001,2022-04-29_02h09.34.112,classification_task,2021.2.3,Win32,60.07810153,60a80ae7c96c2610a00b4180,626b377229c10585ec392f89,626b3ab2983213a57e6d5a70,,,,,,,,,,,,,,,,,,,,,,,a,1,"[""0.246"",""0.428"",""0.622"",""0.750""]","[1,1,1,0]",0,10,10,10,1,0,1,,,1,FALSE,3.2003,,,,,,,,,,,,,,,,,,,,,,,,,,,,,,
,60a80ae7c96c2610a00b4180,001,2022-04-29_02h09.34.112,classification_task,2021.2.3,Win32,60.07810153,60a80ae7c96c2610a00b4180,626b377229c10585ec392f89,626b3ab2983213a57e6d5a70,,,,,,,,,,,,,,,,,,,,,,,l,0,"[""0.295"",""0.674"",""0.875"",""0.933""]","[1,0,1,1]",0,11,11,11,1,0,0,,,1,FALSE,2.9259,,,,,,,,,,,,,,,,,,,,,,,,,,,,,,
,60a80ae7c96c2610a00b4180,001,2022-04-29_02h09.34.112,classification_task,2021.2.3,Win32,60.07810153,60a80ae7c96c2610a00b4180,626b377229c10585ec392f89,626b3ab2983213a57e6d5a70,,,,,,,,,,,,,,,,,,,,,,,a,1,"[""0.295"",""0.393"",""0.730"",""0.933""]","[1,1,0,1]",0,12,12,12,1,0,0,,,1,FALSE,4.6622,,,,,,,,,,,,,,,,,,,,,,,,,,,,,,
,60a80ae7c96c2610a00b4180,001,2022-04-29_02h09.34.112,classification_task,2021.2.3,Win32,60.07810153,60a80ae7c96c2610a00b4180,626b377229c10585ec392f89,626b3ab2983213a57e6d5a70,,,,,,,,,,,,,,,,,,,,,,,l,0,"[""0.170"",""0.428"",""0.622"",""0.969""]","[0,1,1,1]",0,13,13,13,1,0,1,,,1,FALSE,3.0333,,,,,,,,,,,,,,,,,,,,,,,,,,,,,,
,60a80ae7c96c2610a00b4180,001,2022-04-29_02h09.34.112,classification_task,2021.2.3,Win32,60.07810153,60a80ae7c96c2610a00b4180,626b377229c10585ec392f89,626b3ab2983213a57e6d5a70,,,,,,,,,,,,,,,,,,,,,,,l,1,"[""0.117"",""0.207"",""0.750"",""0.784""]","[1,1,0,1]",0,14,14,14,1,1,1,,,1,FALSE,2.2766,,,,,,,,,,,,,,,,,,,,,,,,,,,,,,
,60a80ae7c96c2610a00b4180,001,2022-04-29_02h09.34.112,classification_task,2021.2.3,Win32,60.07810153,60a80ae7c96c2610a00b4180,626b377229c10585ec392f89,626b3ab2983213a57e6d5a70,,,,,,,,,,,,,,,,,,,,,,,a,1,"[""0.750"",""0.393"",""0.875"",""0.933""]","[0,1,1,1]",0,15,15,15,1,0,0,,,1,FALSE,3.2674,,,,,,,,,,,,,,,,,,,,,,,,,,,,,,
,60a80ae7c96c2610a00b4180,001,2022-04-29_02h09.34.112,classification_task,2021.2.3,Win32,60.07810153,60a80ae7c96c2610a00b4180,626b377229c10585ec392f89,626b3ab2983213a57e6d5a70,,,,,,,,,,,,,,,,,,,,,,,a,0,"[""0.721"",""0.207"",""0.474"",""0.784""]","[0,1,1,1]",0,16,16,16,1,1,1,,,1,FALSE,3.0314,,,,,,,,,,,,,,,,,,,,,,,,,,,,,,
,60a80ae7c96c2610a00b4180,001,2022-04-29_02h09.34.112,classification_task,2021.2.3,Win32,60.07810153,60a80ae7c96c2610a00b4180,626b377229c10585ec392f89,626b3ab2983213a57e6d5a70,,,,,,,,,,,,,,,,,,,,,,,a,1,"[""0.748"",""0.393"",""0.875"",""0.933""]","[0,1,1,1]",0,17,17,17,1,0,0,,,1,FALSE,2.7795,,,,,,,,,,,,,,,,,,,,,,,,,,,,,,
,60a80ae7c96c2610a00b4180,001,2022-04-29_02h09.34.112,classification_task,2021.2.3,Win32,60.07810153,60a80ae7c96c2610a00b4180,626b377229c10585ec392f89,626b3ab2983213a57e6d5a70,,,,,,,,,,,,,,,,,,,,,,,l,1,"[""0.117"",""0.207"",""0.750"",""0.784""]","[1,1,0,1]",0,18,18,18,1,1,1,,,1,FALSE,2.1334,,,,,,,,,,,,,,,,,,,,,,,,,,,,,,
,60a80ae7c96c2610a00b4180,001,2022-04-29_02h09.34.112,classification_task,2021.2.3,Win32,60.07810153,60a80ae7c96c2610a00b4180,626b377229c10585ec392f89,626b3ab2983213a57e6d5a70,,,,,,,,,,,,,,,,,,,,,,,l,1,"[""0.067"",""0.152"",""0.545"",""0.818""]","[1,0,1,1]",0,19,19,19,1,1,0,,,1,FALSE,5.5492,,,,,,,,,,,,,,,,,,,,,,,,,,,,,,
,60a80ae7c96c2610a00b4180,001,2022-04-29_02h09.34.112,classification_task,2021.2.3,Win32,60.07810153,60a80ae7c96c2610a00b4180,626b377229c10585ec392f89,626b3ab2983213a57e6d5a70,,,,,,,,,,,,,,,,,,,,,,,l,1,"[""0.117"",""0.207"",""0.474"",""0.676""]","[1,1,1,0]",0,20,20,20,1,1,1,,,1,FALSE,1.8627,,,,,,,,,,,,,,,,,,,,,,,,,,,,,,
,60a80ae7c96c2610a00b4180,001,2022-04-29_02h09.34.112,classification_task,2021.2.3,Win32,60.07810153,60a80ae7c96c2610a00b4180,626b377229c10585ec392f89,626b3ab2983213a57e6d5a70,,,,,,,,,,,,,,,,,,,,,,,a,1,"[""0.246"",""0.428"",""0.748"",""0.969""]","[1,1,0,1]",0,21,21,21,1,0,1,,,1,FALSE,1.3483,,,,,,,,,,,,,,,,,,,,,,,,,,,,,,
,60a80ae7c96c2610a00b4180,001,2022-04-29_02h09.34.112,classification_task,2021.2.3,Win32,60.07810153,60a80ae7c96c2610a00b4180,626b377229c10585ec392f89,626b3ab2983213a57e6d5a70,,,,,,,,,,,,,,,,,,,,,,,l,0,"[""0.246"",""0.152"",""0.622"",""0.969""]","[1,0,1,1]",0,22,22,22,1,0,1,,,1,FALSE,1.8655,,,,,,,,,,,,,,,,,,,,,,,,,,,,,,
,60a80ae7c96c2610a00b4180,001,2022-04-29_02h09.34.112,classification_task,2021.2.3,Win32,60.07810153,60a80ae7c96c2610a00b4180,626b377229c10585ec392f89,626b3ab2983213a57e6d5a70,,,,,,,,,,,,,,,,,,,,,,,l,0,"[""0.721"",""0.428"",""0.622"",""0.969""]","[0,1,1,1]",0,23,23,23,1,0,1,,,1,FALSE,1.9989,,,,,,,,,,,,,,,,,,,,,,,,,,,,,,
,60a80ae7c96c2610a00b4180,001,2022-04-29_02h09.34.112,classification_task,2021.2.3,Win32,60.07810153,60a80ae7c96c2610a00b4180,626b377229c10585ec392f89,626b3ab2983213a57e6d5a70,,,,,,,,,,,,,,,,,,,,,,,l,1,"[""0.117"",""0.170"",""0.474"",""0.784""]","[1,0,1,1]",0,24,24,24,1,1,1,,,1,FALSE,1.9632,,,,,,,,,,,,,,,,,,,,,,,,,,,,,,
,60a80ae7c96c2610a00b4180,001,2022-04-29_02h09.34.112,classification_task,2021.2.3,Win32,60.07810153,60a80ae7c96c2610a00b4180,626b377229c10585ec392f89,626b3ab2983213a57e6d5a70,,,,,,,,,,,,,,,,,,,,,,,a,1,"[""0.246"",""0.428"",""0.622"",""0.730""]","[1,1,1,0]",0,25,25,25,1,0,1,,,1,FALSE,1.6853,,,,,,,,,,,,,,,,,,,,,,,,,,,,,,
,60a80ae7c96c2610a00b4180,001,2022-04-29_02h09.34.112,classification_task,2021.2.3,Win32,60.07810153,60a80ae7c96c2610a00b4180,626b377229c10585ec392f89,626b3ab2983213a57e6d5a70,,,,,,,,,,,,,,,,,,,,,,,a,1,"[""0.295"",""0.393"",""0.875"",""0.170""]","[1,1,1,0]",0,26,26,26,1,0,0,,,1,FALSE,2.8841,,,,,,,,,,,,,,,,,,,,,,,,,,,,,,
,60a80ae7c96c2610a00b4180,001,2022-04-29_02h09.34.112,classification_task,2021.2.3,Win32,60.07810153,60a80ae7c96c2610a00b4180,626b377229c10585ec392f89,626b3ab2983213a57e6d5a70,,,,,,,,,,,,,,,,,,,,,,,l,0,"[""0.295"",""0.393"",""0.674"",""0.933""]","[1,1,0,1]",0,27,27,27,1,0,0,,,1,FALSE,2.6163,,,,,,,,,,,,,,,,,,,,,,,,,,,,,,
,60a80ae7c96c2610a00b4180,001,2022-04-29_02h09.34.112,classification_task,2021.2.3,Win32,60.07810153,60a80ae7c96c2610a00b4180,626b377229c10585ec392f89,626b3ab2983213a57e6d5a70,,,,,,,,,,,,,,,,,,,,,,,l,1,"[""0.067"",""0.353"",""0.545"",""0.721""]","[1,1,1,0]",0,28,28,28,1,1,0,,,1,FALSE,2.0171,,,,,,,,,,,,,,,,,,,,,,,,,,,,,,
,60a80ae7c96c2610a00b4180,001,2022-04-29_02h09.34.112,classification_task,2021.2.3,Win32,60.07810153,60a80ae7c96c2610a00b4180,626b377229c10585ec392f89,626b3ab2983213a57e6d5a70,,,,,,,,,,,,,,,,,,,,,,,a,0,"[""0.750"",""0.353"",""0.545"",""0.818""]","[0,1,1,1]",0,29,29,29,1,1,0,,,1,FALSE,5.3998,,,,,,,,,,,,,,,,,,,,,,,,,,,,,,
,60a80ae7c96c2610a00b4180,001,2022-04-29_02h09.34.112,classification_task,2021.2.3,Win32,60.07810153,60a80ae7c96c2610a00b4180,626b377229c10585ec392f89,626b3ab2983213a57e6d5a70,,,,,,,,,,,,,,,,,,,,,,,l,1,"[""0.067"",""0.353"",""0.707"",""0.818""]","[1,1,0,1]",0,30,30,30,1,1,0,,,1,FALSE,2.0336,,,,,,,,,,,,,,,,,,,,,,,,,,,,,,
,60a80ae7c96c2610a00b4180,001,2022-04-29_02h09.34.112,classification_task,2021.2.3,Win32,60.07810153,60a80ae7c96c2610a00b4180,626b377229c10585ec392f89,626b3ab2983213a57e6d5a70,,,,,,,,,,,,,,,,,,,,,,,l,0,"[""0.295"",""0.510"",""0.875"",""0.933""]","[1,0,1,1]",0,31,31,31,1,0,0,,,1,FALSE,2.9769,,,,,,,,,,,,,,,,,,,,,,,,,,,,,,
,60a80ae7c96c2610a00b4180,001,2022-04-29_02h09.34.112,classification_task,2021.2.3,Win32,60.07810153,60a80ae7c96c2610a00b4180,626b377229c10585ec392f89,626b3ab2983213a57e6d5a70,,,,,,,,,,,,,,,,,,,,,,,a,0,"[""0.067"",""0.353"",""0.742"",""0.818""]","[1,1,0,1]",0,32,32,32,1,1,0,,,1,FALSE,4.6494,,,,,,,,,,,,,,,,,,,,,,,,,,,,,,
,60a80ae7c96c2610a00b4180,001,2022-04-29_02h09.34.112,classification_task,2021.2.3,Win32,60.07810153,60a80ae7c96c2610a00b4180,626b377229c10585ec392f89,626b3ab2983213a57e6d5a70,,,,,,,,,,,,,,,,,,,,,,,l,0,"[""0.295"",""0.680"",""0.875"",""0.933""]","[1,0,1,1]",0,33,33,33,1,0,0,,,1,FALSE,3.2995,,,,,,,,,,,,,,,,,,,,,,,,,,,,,,
,60a80ae7c96c2610a00b4180,001,2022-04-29_02h09.34.112,classification_task,2021.2.3,Win32,60.07810153,60a80ae7c96c2610a00b4180,626b377229c10585ec392f89,626b3ab2983213a57e6d5a70,,,,,,,,,,,,,,,,,,,,,,,l,1,"[""0.117"",""0.676"",""0.474"",""0.784""]","[1,0,1,1]",0,34,34,34,1,1,1,,,1,FALSE,2.8959,,,,,,,,,,,,,,,,,,,,,,,,,,,,,,
,60a80ae7c96c2610a00b4180,001,2022-04-29_02h09.34.112,classification_task,2021.2.3,Win32,60.07810153,60a80ae7c96c2610a00b4180,626b377229c10585ec392f89,626b3ab2983213a57e6d5a70,,,,,,,,,,,,,,,,,,,,,,,l,1,"[""0.067"",""0.353"",""0.545"",""0.510""]","[1,1,1,0]",0,35,35,35,1,1,0,,,1,FALSE,1.6175,,,,,,,,,,,,,,,,,,,,,,,,,,,,,,
,60a80ae7c96c2610a00b4180,001,2022-04-29_02h09.34.112,classification_task,2021.2.3,Win32,60.07810153,60a80ae7c96c2610a00b4180,626b377229c10585ec392f89,626b3ab2983213a57e6d5a70,,,,,,,,,,,,,,,,,,,,,,,a,1,"[""0.246"",""0.428"",""0.170"",""0.969""]","[1,1,0,1]",0,36,36,36,1,0,1,,,1,FALSE,1.8493,,,,,,,,,,,,,,,,,,,,,,,,,,,,,,
,60a80ae7c96c2610a00b4180,001,2022-04-29_02h09.34.112,classification_task,2021.2.3,Win32,60.07810153,60a80ae7c96c2610a00b4180,626b377229c10585ec392f89,626b3ab2983213a57e6d5a70,,,,,,,,,,,,,,,,,,,,,,,a,1,"[""0.246"",""0.707"",""0.622"",""0.969""]","[1,0,1,1]",0,37,37,37,1,0,1,,,1,FALSE,1.1001,,,,,,,,,,,,,,,,,,,,,,,,,,,,,,
,60a80ae7c96c2610a00b4180,001,2022-04-29_02h09.34.112,classification_task,2021.2.3,Win32,60.07810153,60a80ae7c96c2610a00b4180,626b377229c10585ec392f89,626b3ab2983213a57e6d5a70,,,,,,,,,,,,,,,,,,,,,,,l,0,"[""0.295"",""0.393"",""0.730"",""0.933""]","[1,1,0,1]",0,38,38,38,1,0,0,,,1,FALSE,3.5169,,,,,,,,,,,,,,,,,,,,,,,,,,,,,,
,60a80ae7c96c2610a00b4180,001,2022-04-29_02h09.34.112,classification_task,2021.2.3,Win32,60.07810153,60a80ae7c96c2610a00b4180,626b377229c10585ec392f89,626b3ab2983213a57e6d5a70,,,,,,,,,,,,,,,,,,,,,,,a,1,"[""0.721"",""0.428"",""0.622"",""0.969""]","[0,1,1,1]",0,39,39,39,1,0,1,,,1,FALSE,0.6169,,,,,,,,,,,,,,,,,,,,,,,,,,,,,,
,60a80ae7c96c2610a00b4180,001,2022-04-29_02h09.34.112,classification_task,2021.2.3,Win32,60.07810153,60a80ae7c96c2610a00b4180,626b377229c10585ec392f89,626b3ab2983213a57e6d5a70,,,,,,,,,,,,,,,,,,,,,,,l,1,"[""0.707"",""0.207"",""0.474"",""0.784""]","[0,1,1,1]",0,40,40,40,1,1,1,,,1,FALSE,1.4379,,,,,,,,,,,,,,,,,,,,,,,,,,,,,,
,60a80ae7c96c2610a00b4180,001,2022-04-29_02h09.34.112,classification_task,2021.2.3,Win32,60.07810153,60a80ae7c96c2610a00b4180,626b377229c10585ec392f89,626b3ab2983213a57e6d5a70,,,,,,,,,,,,,,,,,,,,,,,a,1,"[""0.674"",""0.393"",""0.875"",""0.933""]","[0,1,1,1]",0,41,41,41,1,0,0,,,1,FALSE,1.4489,,,,,,,,,,,,,,,,,,,,,,,,,,,,,,
,60a80ae7c96c2610a00b4180,001,2022-04-29_02h09.34.112,classification_task,2021.2.3,Win32,60.07810153,60a80ae7c96c2610a00b4180,626b377229c10585ec392f89,626b3ab2983213a57e6d5a70,,,,,,,,,,,,,,,,,,,,,,,l,1,"[""0.117"",""0.207"",""0.474"",""0.152""]","[1,1,1,0]",0,42,42,42,1,1,1,,,1,FALSE,1.2335,,,,,,,,,,,,,,,,,,,,,,,,,,,,,,
,60a80ae7c96c2610a00b4180,001,2022-04-29_02h09.34.112,classification_task,2021.2.3,Win32,60.07810153,60a80ae7c96c2610a00b4180,626b377229c10585ec392f89,626b3ab2983213a57e6d5a70,,,,,,,,,,,,,,,,,,,,,,,l,1,"[""0.117"",""0.207"",""0.677"",""0.784""]","[1,1,0,1]",0,43,43,43,1,1,1,,,1,FALSE,0.9477,,,,,,,,,,,,,,,,,,,,,,,,,,,,,,
,60a80ae7c96c2610a00b4180,001,2022-04-29_02h09.34.112,classification_task,2021.2.3,Win32,60.07810153,60a80ae7c96c2610a00b4180,626b377229c10585ec392f89,626b3ab2983213a57e6d5a70,,,,,,,,,,,,,,,,,,,,,,,l,0,"[""0.246"",""0.428"",""0.622"",""0.750""]","[1,1,1,0]",0,44,44,44,1,0,1,,,1,FALSE,0.9991,,,,,,,,,,,,,,,,,,,,,,,,,,,,,,
,60a80ae7c96c2610a00b4180,001,2022-04-29_02h09.34.112,classification_task,2021.2.3,Win32,60.07810153,60a80ae7c96c2610a00b4180,626b377229c10585ec392f89,626b3ab2983213a57e6d5a70,,,,,,,,,,,,,,,,,,,,,,,a,1,"[""0.295"",""0.393"",""0.875"",""0.676""]","[1,1,1,0]",0,45,45,45,1,0,0,,,1,FALSE,1.8999,,,,,,,,,,,,,,,,,,,,,,,,,,,,,,
,60a80ae7c96c2610a00b4180,001,2022-04-29_02h09.34.112,classification_task,2021.2.3,Win32,60.07810153,60a80ae7c96c2610a00b4180,626b377229c10585ec392f89,626b3ab2983213a57e6d5a70,,,,,,,,,,,,,,,,,,,,,,,l,1,"[""0.067"",""0.677"",""0.545"",""0.818""]","[1,0,1,1]",0,46,46,46,1,1,0,,,1,FALSE,1.4626,,,,,,,,,,,,,,,,,,,,,,,,,,,,,,
,60a80ae7c96c2610a00b4180,001,2022-04-29_02h09.34.112,classification_task,2021.2.3,Win32,60.07810153,60a80ae7c96c2610a00b4180,626b377229c10585ec392f89,626b3ab2983213a57e6d5a70,,,,,,,,,,,,,,,,,,,,,,,l,1,"[""0.748"",""0.353"",""0.545"",""0.818""]","[0,1,1,1]",0,47,47,47,1,1,0,,,1,FALSE,1.2825,,,,,,,,,,,,,,,,,,,,,,,,,,,,,,
,60a80ae7c96c2610a00b4180,001,2022-04-29_02h09.34.112,classification_task,2021.2.3,Win32,60.07810153,60a80ae7c96c2610a00b4180,626b377229c10585ec392f89,626b3ab2983213a57e6d5a70,,,,,,,,,,,,,,,,,,,,,,,a,1,"[""0.730"",""0.428"",""0.622"",""0.969""]","[0,1,1,1]",0,48,48,48,1,0,1,,,1,FALSE,0.8559,,,,,,,,,,,,,,,,,,,,,,,,,,,,,,
,60a80ae7c96c2610a00b4180,001,2022-04-29_02h09.34.112,classification_task,2021.2.3,Win32,60.07810153,60a80ae7c96c2610a00b4180,626b377229c10585ec392f89,626b3ab2983213a57e6d5a70,,,,,,,,,,,,,,,,,,,,,,,l,1,"[""0.067"",""0.707"",""0.545"",""0.818""]","[1,0,1,1]",0,49,49,49,1,1,0,,,1,FALSE,3.5651,,,,,,,,,,,,,,,,,,,,,,,,,,,,,,
,60a80ae7c96c2610a00b4180,001,2022-04-29_02h09.34.112,classification_task,2021.2.3,Win32,60.07810153,60a80ae7c96c2610a00b4180,626b377229c10585ec392f89,626b3ab2983213a57e6d5a70,,,,,,,,,,,,,,,,,,,,,,,l,0,"[""0.246"",""0.428"",""0.622"",""0.677""]","[1,1,1,0]",0,50,50,50,1,0,1,,,1,FALSE,1.0164,,,,,,,,,,,,,,,,,,,,,,,,,,,,,,
,60a80ae7c96c2610a00b4180,001,2022-04-29_02h09.34.112,classification_task,2021.2.3,Win32,60.07810153,60a80ae7c96c2610a00b4180,626b377229c10585ec392f89,626b3ab2983213a57e6d5a70,,,,,,,,,,,,,,,,,,,,,,,l,1,"[""0.748"",""0.353"",""0.545"",""0.818""]","[0,1,1,1]",0,51,51,51,1,1,0,,,1,FALSE,0.93,,,,,,,,,,,,,,,,,,,,,,,,,,,,,,
,60a80ae7c96c2610a00b4180,001,2022-04-29_02h09.34.112,classification_task,2021.2.3,Win32,60.07810153,60a80ae7c96c2610a00b4180,626b377229c10585ec392f89,626b3ab2983213a57e6d5a70,,,,,,,,,,,,,,,,,,,,,,,a,0,"[""0.067"",""0.353"",""0.545"",""0.510""]","[1,1,1,0]",0,52,52,52,1,1,0,,,1,FALSE,0.7835,,,,,,,,,,,,,,,,,,,,,,,,,,,,,,
,60a80ae7c96c2610a00b4180,001,2022-04-29_02h09.34.112,classification_task,2021.2.3,Win32,60.07810153,60a80ae7c96c2610a00b4180,626b377229c10585ec392f89,626b3ab2983213a57e6d5a70,,,,,,,,,,,,,,,,,,,,,,,a,0,"[""0.067"",""0.353"",""0.676"",""0.818""]","[1,1,0,1]",0,53,53,53,1,1,0,,,1,FALSE,1.024,,,,,,,,,,,,,,,,,,,,,,,,,,,,,,
,60a80ae7c96c2610a00b4180,001,2022-04-29_02h09.34.112,classification_task,2021.2.3,Win32,60.07810153,60a80ae7c96c2610a00b4180,626b377229c10585ec392f89,626b3ab2983213a57e6d5a70,,,,,,,,,,,,,,,,,,,,,,,l,1,"[""0.117"",""0.674"",""0.474"",""0.784""]","[1,0,1,1]",0,54,54,54,1,1,1,,,1,FALSE,1.1322,,,,,,,,,,,,,,,,,,,,,,,,,,,,,,
,60a80ae7c96c2610a00b4180,001,2022-04-29_02h09.34.112,classification_task,2021.2.3,Win32,60.07810153,60a80ae7c96c2610a00b4180,626b377229c10585ec392f89,626b3ab2983213a57e6d5a70,,,,,,,,,,,,,,,,,,,,,,,a,1,"[""0.170"",""0.393"",""0.875"",""0.933""]","[0,1,1,1]",0,55,55,55,1,0,0,,,1,FALSE,1.032,,,,,,,,,,,,,,,,,,,,,,,,,,,,,,
,60a80ae7c96c2610a00b4180,001,2022-04-29_02h09.34.112,classification_task,2021.2.3,Win32,60.07810153,60a80ae7c96c2610a00b4180,626b377229c10585ec392f89,626b3ab2983213a57e6d5a70,,,,,,,,,,,,,,,,,,,,,,,a,1,"[""0.295"",""0.393"",""0.721"",""0.933""]","[1,1,0,1]",0,56,56,56,1,0,0,,,1,FALSE,0.6338,,,,,,,,,,,,,,,,,,,,,,,,,,,,,,
,60a80ae7c96c2610a00b4180,001,2022-04-29_02h09.34.112,classification_task,2021.2.3,Win32,60.07810153,60a80ae7c96c2610a00b4180,626b377229c10585ec392f89,626b3ab2983213a57e6d5a70,,,,,,,,,,,,,,,,,,,,,,,a,1,"[""0.246"",""0.428"",""0.677"",""0.969""]","[1,1,0,1]",0,57,57,57,1,0,1,,,1,FALSE,0.6653,,,,,,,,,,,,,,,,,,,,,,,,,,,,,,
,60a80ae7c96c2610a00b4180,001,2022-04-29_02h09.34.112,classification_task,2021.2.3,Win32,60.07810153,60a80ae7c96c2610a00b4180,626b377229c10585ec392f89,626b3ab2983213a57e6d5a70,,,,,,,,,,,,,,,,,,,,,,,a,1,"[""0.246"",""0.152"",""0.622"",""0.969""]","[1,0,1,1]",0,58,58,58,1,0,1,,,1,FALSE,0.5654,,,,,,,,,,,,,,,,,,,,,,,,,,,,,,
,60a80ae7c96c2610a00b4180,001,2022-04-29_02h09.34.112,classification_task,2021.2.3,Win32,60.07810153,60a80ae7c96c2610a00b4180,626b377229c10585ec392f89,626b3ab2983213a57e6d5a70,,,,,,,,,,,,,,,,,,,,,,,a,1,"[""0.295"",""0.730"",""0.875"",""0.933""]","[1,0,1,1]",0,59,59,59,1,0,0,,,1,FALSE,1.3835,,,,,,,,,,,,,,,,,,,,,,,,,,,,,,
,60a80ae7c96c2610a00b4180,001,2022-04-29_02h09.34.112,classification_task,2021.2.3,Win32,60.07810153,60a80ae7c96c2610a00b4180,626b377229c10585ec392f89,626b3ab2983213a57e6d5a70,,,,,,,,,,,,,,,,,,,,,,,a,1,"[""0.295"",""0.393"",""0.875"",""0.152""]","[1,1,1,0]",0,60,60,60,1,0,0,,,1,FALSE,1.2658,,,,,,,,,,,,,,,,,,,,,,,,,,,,,,
,60a80ae7c96c2610a00b4180,001,2022-04-29_02h09.34.112,classification_task,2021.2.3,Win32,60.07810153,60a80ae7c96c2610a00b4180,626b377229c10585ec392f89,626b3ab2983213a57e6d5a70,,,,,,,,,,,,,,,,,,,,,,,a,0,"[""0.117"",""0.207"",""0.721"",""0.784""]","[1,1,0,1]",0,61,61,61,1,1,1,,,1,FALSE,1.9141,,,,,,,,,,,,,,,,,,,,,,,,,,,,,,
,60a80ae7c96c2610a00b4180,001,2022-04-29_02h09.34.112,classification_task,2021.2.3,Win32,60.07810153,60a80ae7c96c2610a00b4180,626b377229c10585ec392f89,626b3ab2983213a57e6d5a70,,,,,,,,,,,,,,,,,,,,,,,a,0,"[""0.170"",""0.207"",""0.474"",""0.784""]","[0,1,1,1]",0,62,62,62,1,1,1,,,1,FALSE,1.149,,,,,,,,,,,,,,,,,,,,,,,,,,,,,,
,60a80ae7c96c2610a00b4180,001,2022-04-29_02h09.34.112,classification_task,2021.2.3,Win32,60.07810153,60a80ae7c96c2610a00b4180,626b377229c10585ec392f89,626b3ab2983213a57e6d5a70,,,,,,,,,,,,,,,,,,,,,,,l,1,"[""0.117"",""0.207"",""0.474"",""0.707""]","[1,1,1,0]",0,63,63,63,1,1,1,,,1,FALSE,0.6485,,,,,,,,,,,,,,,,,,,,,,,,,,,,,,
,60a80ae7c96c2610a00b4180,001,2022-04-29_02h09.34.112,classification_task,2021.2.3,Win32,60.07810153,60a80ae7c96c2610a00b4180,626b377229c10585ec392f89,626b3ab2983213a57e6d5a70,,,,,,,,,,,,,,,,,,,,,,,,,,,,,,,,,,,,,,,0, ,,0,4.496095639,3685.9757,0,0,0,0,1,2,1,,,,,,,,,,,,,,,,,
,60a80ae7c96c2610a00b4180,001,2022-04-29_02h09.34.112,classification_task,2021.2.3,Win32,60.07810153,60a80ae7c96c2610a00b4180,626b377229c10585ec392f89,626b3ab2983213a57e6d5a70,,,,,,,,,,,,,,,,,,,,,,,,,,,,,,,,,,,,,,,1,  ,,0,6.422792243,3687.5311,0,0,0,0,1,2,1,,,,,,,,,,,,,,,,,
,60a80ae7c96c2610a00b4180,001,2022-04-29_02h09.34.112,classification_task,2021.2.3,Win32,60.07810153,60a80ae7c96c2610a00b4180,626b377229c10585ec392f89,626b3ab2983213a57e6d5a70,,,,,,,,,,,,,,,,,,,,,,,,,,,,,,,,,,,,,,,2,  ,,0,6.363507914,3690.3244,0,0,0,0,1,2,1,,,,,,,,,,,,,,,,,
,60a80ae7c96c2610a00b4180,001,2022-04-29_02h09.34.112,classification_task,2021.2.3,Win32,60.07810153,60a80ae7c96c2610a00b4180,626b377229c10585ec392f89,626b3ab2983213a57e6d5a70,,,,,,,,,,,,,,,,,,,,,,,,,,,,,,,,,,,,,,,,,,,,,0,0,0,0,1,,1,,,,,,,,,,,,,,,,,
,60a80ae7c96c2610a00b4180,001,2022-04-29_02h09.34.112,classification_task,2021.2.3,Win32,60.07810153,60a80ae7c96c2610a00b4180,626b377229c10585ec392f89,626b3ab2983213a57e6d5a70,,,,,,,,,,,,,,,,,,,,,space,4.2667,a,1,"[""0.246"",""0.428"",""0.721"",""0.969""]","[1,1,0,1]",0,0,0,0,1,0,1,,,1,FALSE,3.716,,,,,,,,,,,,,,,,,,,,,,,,,,,,,,
,60a80ae7c96c2610a00b4180,001,2022-04-29_02h09.34.112,classification_task,2021.2.3,Win32,60.07810153,60a80ae7c96c2610a00b4180,626b377229c10585ec392f89,626b3ab2983213a57e6d5a70,,,,,,,,,,,,,,,,,,,,,,,l,1,"[""0.750"",""0.353"",""0.545"",""0.818""]","[0,1,1,1]",0,1,1,1,1,1,0,,,1,FALSE,1.3498,,,,,,,,,,,,,,,,,,,,,,,,,,,,,,
,60a80ae7c96c2610a00b4180,001,2022-04-29_02h09.34.112,classification_task,2021.2.3,Win32,60.07810153,60a80ae7c96c2610a00b4180,626b377229c10585ec392f89,626b3ab2983213a57e6d5a70,,,,,,,,,,,,,,,,,,,,,,,a,1,"[""0.295"",""0.154"",""0.875"",""0.933""]","[1,0,1,1]",0,2,2,2,1,0,0,,,1,FALSE,0.8006,,,,,,,,,,,,,,,,,,,,,,,,,,,,,,
,60a80ae7c96c2610a00b4180,001,2022-04-29_02h09.34.112,classification_task,2021.2.3,Win32,60.07810153,60a80ae7c96c2610a00b4180,626b377229c10585ec392f89,626b3ab2983213a57e6d5a70,,,,,,,,,,,,,,,,,,,,,,,a,0,"[""0.067"",""0.152"",""0.545"",""0.818""]","[1,0,1,1]",0,3,3,3,1,1,0,,,1,FALSE,1.4993,,,,,,,,,,,,,,,,,,,,,,,,,,,,,,
,60a80ae7c96c2610a00b4180,001,2022-04-29_02h09.34.112,classification_task,2021.2.3,Win32,60.07810153,60a80ae7c96c2610a00b4180,626b377229c10585ec392f89,626b3ab2983213a57e6d5a70,,,,,,,,,,,,,,,,,,,,,,,a,1,"[""0.295"",""0.393"",""0.748"",""0.933""]","[1,1,0,1]",0,4,4,4,1,0,0,,,1,FALSE,0.9501,,,,,,,,,,,,,,,,,,,,,,,,,,,,,,
,60a80ae7c96c2610a00b4180,001,2022-04-29_02h09.34.112,classification_task,2021.2.3,Win32,60.07810153,60a80ae7c96c2610a00b4180,626b377229c10585ec392f89,626b3ab2983213a57e6d5a70,,,,,,,,,,,,,,,,,,,,,,,l,1,"[""0.117"",""0.207"",""0.474"",""0.677""]","[1,1,1,0]",0,5,5,5,1,1,1,,,1,FALSE,1.0001,,,,,,,,,,,,,,,,,,,,,,,,,,,,,,
,60a80ae7c96c2610a00b4180,001,2022-04-29_02h09.34.112,classification_task,2021.2.3,Win32,60.07810153,60a80ae7c96c2610a00b4180,626b377229c10585ec392f89,626b3ab2983213a57e6d5a70,,,,,,,,,,,,,,,,,,,,,,,l,1,"[""0.117"",""0.707"",""0.474"",""0.784""]","[1,0,1,1]",0,6,6,6,1,1,1,,,1,FALSE,1.7335,,,,,,,,,,,,,,,,,,,,,,,,,,,,,,
,60a80ae7c96c2610a00b4180,001,2022-04-29_02h09.34.112,classification_task,2021.2.3,Win32,60.07810153,60a80ae7c96c2610a00b4180,626b377229c10585ec392f89,626b3ab2983213a57e6d5a70,,,,,,,,,,,,,,,,,,,,,,,a,1,"[""0.721"",""0.393"",""0.875"",""0.933""]","[0,1,1,1]",0,7,7,7,1,0,0,,,1,FALSE,0.8496,,,,,,,,,,,,,,,,,,,,,,,,,,,,,,
,60a80ae7c96c2610a00b4180,001,2022-04-29_02h09.34.112,classification_task,2021.2.3,Win32,60.07810153,60a80ae7c96c2610a00b4180,626b377229c10585ec392f89,626b3ab2983213a57e6d5a70,,,,,,,,,,,,,,,,,,,,,,,a,1,"[""0.246"",""0.721"",""0.622"",""0.969""]","[1,0,1,1]",0,8,8,8,1,0,1,,,1,FALSE,0.6325,,,,,,,,,,,,,,,,,,,,,,,,,,,,,,
,60a80ae7c96c2610a00b4180,001,2022-04-29_02h09.34.112,classification_task,2021.2.3,Win32,60.07810153,60a80ae7c96c2610a00b4180,626b377229c10585ec392f89,626b3ab2983213a57e6d5a70,,,,,,,,,,,,,,,,,,,,,,,l,1,"[""0.067"",""0.353"",""0.676"",""0.818""]","[1,1,0,1]",0,9,9,9,1,1,0,,,1,FALSE,0.8157,,,,,,,,,,,,,,,,,,,,,,,,,,,,,,
,60a80ae7c96c2610a00b4180,001,2022-04-29_02h09.34.112,classification_task,2021.2.3,Win32,60.07810153,60a80ae7c96c2610a00b4180,626b377229c10585ec392f89,626b3ab2983213a57e6d5a70,,,,,,,,,,,,,,,,,,,,,,,l,0,"[""0.246"",""0.428"",""0.622"",""0.730""]","[1,1,1,0]",0,10,10,10,1,0,1,,,1,FALSE,0.9771,,,,,,,,,,,,,,,,,,,,,,,,,,,,,,
,60a80ae7c96c2610a00b4180,001,2022-04-29_02h09.34.112,classification_task,2021.2.3,Win32,60.07810153,60a80ae7c96c2610a00b4180,626b377229c10585ec392f89,626b3ab2983213a57e6d5a70,,,,,,,,,,,,,,,,,,,,,,,l,1,"[""0.067"",""0.353"",""0.545"",""0.730""]","[1,1,1,0]",0,11,11,11,1,1,0,,,1,FALSE,1.334,,,,,,,,,,,,,,,,,,,,,,,,,,,,,,
,60a80ae7c96c2610a00b4180,001,2022-04-29_02h09.34.112,classification_task,2021.2.3,Win32,60.07810153,60a80ae7c96c2610a00b4180,626b377229c10585ec392f89,626b3ab2983213a57e6d5a70,,,,,,,,,,,,,,,,,,,,,,,a,1,"[""0.295"",""0.393"",""0.875"",""0.674""]","[1,1,1,0]",0,12,12,12,1,0,0,,,1,FALSE,0.9312,,,,,,,,,,,,,,,,,,,,,,,,,,,,,,
,60a80ae7c96c2610a00b4180,001,2022-04-29_02h09.34.112,classification_task,2021.2.3,Win32,60.07810153,60a80ae7c96c2610a00b4180,626b377229c10585ec392f89,626b3ab2983213a57e6d5a70,,,,,,,,,,,,,,,,,,,,,,,a,0,"[""0.117"",""0.207"",""0.730"",""0.784""]","[1,1,0,1]",0,13,13,13,1,1,1,,,1,FALSE,0.8673,,,,,,,,,,,,,,,,,,,,,,,,,,,,,,
,60a80ae7c96c2610a00b4180,001,2022-04-29_02h09.34.112,classification_task,2021.2.3,Win32,60.07810153,60a80ae7c96c2610a00b4180,626b377229c10585ec392f89,626b3ab2983213a57e6d5a70,,,,,,,,,,,,,,,,,,,,,,,a,1,"[""0.742"",""0.428"",""0.622"",""0.969""]","[0,1,1,1]",0,14,14,14,1,0,1,,,1,FALSE,0.5445,,,,,,,,,,,,,,,,,,,,,,,,,,,,,,
,60a80ae7c96c2610a00b4180,001,2022-04-29_02h09.34.112,classification_task,2021.2.3,Win32,60.07810153,60a80ae7c96c2610a00b4180,626b377229c10585ec392f89,626b3ab2983213a57e6d5a70,,,,,,,,,,,,,,,,,,,,,,,a,0,"[""0.750"",""0.207"",""0.474"",""0.784""]","[0,1,1,1]",0,15,15,15,1,1,1,,,1,FALSE,0.9158,,,,,,,,,,,,,,,,,,,,,,,,,,,,,,
,60a80ae7c96c2610a00b4180,001,2022-04-29_02h09.34.112,classification_task,2021.2.3,Win32,60.07810153,60a80ae7c96c2610a00b4180,626b377229c10585ec392f89,626b3ab2983213a57e6d5a70,,,,,,,,,,,,,,,,,,,,,,,a,1,"[""0.295"",""0.393"",""0.750"",""0.933""]","[1,1,0,1]",0,16,16,16,1,0,0,,,1,FALSE,0.7572,,,,,,,,,,,,,,,,,,,,,,,,,,,,,,
,60a80ae7c96c2610a00b4180,001,2022-04-29_02h09.34.112,classification_task,2021.2.3,Win32,60.07810153,60a80ae7c96c2610a00b4180,626b377229c10585ec392f89,626b3ab2983213a57e6d5a70,,,,,,,,,,,,,,,,,,,,,,,a,1,"[""0.295"",""0.730"",""0.875"",""0.933""]","[1,0,1,1]",0,17,17,17,1,0,0,,,1,FALSE,0.6336,,,,,,,,,,,,,,,,,,,,,,,,,,,,,,
,60a80ae7c96c2610a00b4180,001,2022-04-29_02h09.34.112,classification_task,2021.2.3,Win32,60.07810153,60a80ae7c96c2610a00b4180,626b377229c10585ec392f89,626b3ab2983213a57e6d5a70,,,,,,,,,,,,,,,,,,,,,,,a,1,"[""0.246"",""0.152"",""0.622"",""0.969""]","[1,0,1,1]",0,18,18,18,1,0,1,,,1,FALSE,0.7439,,,,,,,,,,,,,,,,,,,,,,,,,,,,,,
,60a80ae7c96c2610a00b4180,001,2022-04-29_02h09.34.112,classification_task,2021.2.3,Win32,60.07810153,60a80ae7c96c2610a00b4180,626b377229c10585ec392f89,626b3ab2983213a57e6d5a70,,,,,,,,,,,,,,,,,,,,,,,l,1,"[""0.117"",""0.207"",""0.676"",""0.784""]","[1,1,0,1]",0,19,19,19,1,1,1,,,1,FALSE,0.7486,,,,,,,,,,,,,,,,,,,,,,,,,,,,,,
,60a80ae7c96c2610a00b4180,001,2022-04-29_02h09.34.112,classification_task,2021.2.3,Win32,60.07810153,60a80ae7c96c2610a00b4180,626b377229c10585ec392f89,626b3ab2983213a57e6d5a70,,,,,,,,,,,,,,,,,,,,,,,l,0,"[""0.246"",""0.428"",""0.622"",""0.721""]","[1,1,1,0]",0,20,20,20,1,0,1,,,1,FALSE,1.2485,,,,,,,,,,,,,,,,,,,,,,,,,,,,,,
,60a80ae7c96c2610a00b4180,001,2022-04-29_02h09.34.112,classification_task,2021.2.3,Win32,60.07810153,60a80ae7c96c2610a00b4180,626b377229c10585ec392f89,626b3ab2983213a57e6d5a70,,,,,,,,,,,,,,,,,,,,,,,l,1,"[""0.748"",""0.353"",""0.545"",""0.818""]","[0,1,1,1]",0,21,21,21,1,1,0,,,1,FALSE,1.2199,,,,,,,,,,,,,,,,,,,,,,,,,,,,,,
,60a80ae7c96c2610a00b4180,001,2022-04-29_02h09.34.112,classification_task,2021.2.3,Win32,60.07810153,60a80ae7c96c2610a00b4180,626b377229c10585ec392f89,626b3ab2983213a57e6d5a70,,,,,,,,,,,,,,,,,,,,,,,a,0,"[""0.067"",""0.353"",""0.545"",""0.674""]","[1,1,1,0]",0,22,22,22,1,1,0,,,1,FALSE,0.7816,,,,,,,,,,,,,,,,,,,,,,,,,,,,,,
,60a80ae7c96c2610a00b4180,001,2022-04-29_02h09.34.112,classification_task,2021.2.3,Win32,60.07810153,60a80ae7c96c2610a00b4180,626b377229c10585ec392f89,626b3ab2983213a57e6d5a70,,,,,,,,,,,,,,,,,,,,,,,a,1,"[""0.246"",""0.428"",""0.152"",""0.969""]","[1,1,0,1]",0,23,23,23,1,0,1,,,1,FALSE,0.75,,,,,,,,,,,,,,,,,,,,,,,,,,,,,,
,60a80ae7c96c2610a00b4180,001,2022-04-29_02h09.34.112,classification_task,2021.2.3,Win32,60.07810153,60a80ae7c96c2610a00b4180,626b377229c10585ec392f89,626b3ab2983213a57e6d5a70,,,,,,,,,,,,,,,,,,,,,,,a,1,"[""0.676"",""0.428"",""0.622"",""0.969""]","[0,1,1,1]",0,24,24,24,1,0,1,,,1,FALSE,0.4974,,,,,,,,,,,,,,,,,,,,,,,,,,,,,,
,60a80ae7c96c2610a00b4180,001,2022-04-29_02h09.34.112,classification_task,2021.2.3,Win32,60.07810153,60a80ae7c96c2610a00b4180,626b377229c10585ec392f89,626b3ab2983213a57e6d5a70,,,,,,,,,,,,,,,,,,,,,,,l,1,"[""0.117"",""0.207"",""0.474"",""0.674""]","[1,1,1,0]",0,25,25,25,1,1,1,,,1,FALSE,0.6664,,,,,,,,,,,,,,,,,,,,,,,,,,,,,,
,60a80ae7c96c2610a00b4180,001,2022-04-29_02h09.34.112,classification_task,2021.2.3,Win32,60.07810153,60a80ae7c96c2610a00b4180,626b377229c10585ec392f89,626b3ab2983213a57e6d5a70,,,,,,,,,,,,,,,,,,,,,,,a,0,"[""0.067"",""0.353"",""0.730"",""0.818""]","[1,1,0,1]",0,26,26,26,1,1,0,,,1,FALSE,0.7483,,,,,,,,,,,,,,,,,,,,,,,,,,,,,,
,60a80ae7c96c2610a00b4180,001,2022-04-29_02h09.34.112,classification_task,2021.2.3,Win32,60.07810153,60a80ae7c96c2610a00b4180,626b377229c10585ec392f89,626b3ab2983213a57e6d5a70,,,,,,,,,,,,,,,,,,,,,,,l,1,"[""0.067"",""0.730"",""0.545"",""0.818""]","[1,0,1,1]",0,27,27,27,1,1,0,,,1,FALSE,0.7839,,,,,,,,,,,,,,,,,,,,,,,,,,,,,,
,60a80ae7c96c2610a00b4180,001,2022-04-29_02h09.34.112,classification_task,2021.2.3,Win32,60.07810153,60a80ae7c96c2610a00b4180,626b377229c10585ec392f89,626b3ab2983213a57e6d5a70,,,,,,,,,,,,,,,,,,,,,,,a,1,"[""0.295"",""0.393"",""0.875"",""0.721""]","[1,1,1,0]",0,28,28,28,1,0,0,,,1,FALSE,0.7833,,,,,,,,,,,,,,,,,,,,,,,,,,,,,,
,60a80ae7c96c2610a00b4180,001,2022-04-29_02h09.34.112,classification_task,2021.2.3,Win32,60.07810153,60a80ae7c96c2610a00b4180,626b377229c10585ec392f89,626b3ab2983213a57e6d5a70,,,,,,,,,,,,,,,,,,,,,,,a,0,"[""0.748"",""0.207"",""0.474"",""0.784""]","[0,1,1,1]",0,29,29,29,1,1,1,,,1,FALSE,0.9501,,,,,,,,,,,,,,,,,,,,,,,,,,,,,,
,60a80ae7c96c2610a00b4180,001,2022-04-29_02h09.34.112,classification_task,2021.2.3,Win32,60.07810153,60a80ae7c96c2610a00b4180,626b377229c10585ec392f89,626b3ab2983213a57e6d5a70,,,,,,,,,,,,,,,,,,,,,,,a,1,"[""0.721"",""0.393"",""0.875"",""0.933""]","[0,1,1,1]",0,30,30,30,1,0,0,,,1,FALSE,0.5833,,,,,,,,,,,,,,,,,,,,,,,,,,,,,,
,60a80ae7c96c2610a00b4180,001,2022-04-29_02h09.34.112,classification_task,2021.2.3,Win32,60.07810153,60a80ae7c96c2610a00b4180,626b377229c10585ec392f89,626b3ab2983213a57e6d5a70,,,,,,,,,,,,,,,,,,,,,,,l,1,"[""0.117"",""0.680"",""0.474"",""0.784""]","[1,0,1,1]",0,31,31,31,1,1,1,,,1,FALSE,0.7473,,,,,,,,,,,,,,,,,,,,,,,,,,,,,,
,60a80ae7c96c2610a00b4180,001,2022-04-29_02h09.34.112,classification_task,2021.2.3,Win32,60.07810153,60a80ae7c96c2610a00b4180,626b377229c10585ec392f89,626b3ab2983213a57e6d5a70,,,,,,,,,,,,,,,,,,,,,,,a,0,"[""0.117"",""0.510"",""0.474"",""0.784""]","[1,0,1,1]",0,32,32,32,1,1,1,,,1,FALSE,0.7162,,,,,,,,,,,,,,,,,,,,,,,,,,,,,,
,60a80ae7c96c2610a00b4180,001,2022-04-29_02h09.34.112,classification_task,2021.2.3,Win32,60.07810153,60a80ae7c96c2610a00b4180,626b377229c10585ec392f89,626b3ab2983213a57e6d5a70,,,,,,,,,,,,,,,,,,,,,,,a,0,"[""0.067"",""0.510"",""0.545"",""0.818""]","[1,0,1,1]",0,33,33,33,1,1,0,,,1,FALSE,0.8246,,,,,,,,,,,,,,,,,,,,,,,,,,,,,,
,60a80ae7c96c2610a00b4180,001,2022-04-29_02h09.34.112,classification_task,2021.2.3,Win32,60.07810153,60a80ae7c96c2610a00b4180,626b377229c10585ec392f89,626b3ab2983213a57e6d5a70,,,,,,,,,,,,,,,,,,,,,,,l,1,"[""0.117"",""0.207"",""0.474"",""0.730""]","[1,1,1,0]",0,34,34,34,1,1,1,,,1,FALSE,0.9167,,,,,,,,,,,,,,,,,,,,,,,,,,,,,,
,60a80ae7c96c2610a00b4180,001,2022-04-29_02h09.34.112,classification_task,2021.2.3,Win32,60.07810153,60a80ae7c96c2610a00b4180,626b377229c10585ec392f89,626b3ab2983213a57e6d5a70,,,,,,,,,,,,,,,,,,,,,,,l,1,"[""0.117"",""0.207"",""0.170"",""0.784""]","[1,1,0,1]",0,35,35,35,1,1,1,,,1,FALSE,1.5664,,,,,,,,,,,,,,,,,,,,,,,,,,,,,,
,60a80ae7c96c2610a00b4180,001,2022-04-29_02h09.34.112,classification_task,2021.2.3,Win32,60.07810153,60a80ae7c96c2610a00b4180,626b377229c10585ec392f89,626b3ab2983213a57e6d5a70,,,,,,,,,,,,,,,,,,,,,,,a,1,"[""0.246"",""0.428"",""0.622"",""0.721""]","[1,1,1,0]",0,36,36,36,1,0,1,,,1,FALSE,0.9147,,,,,,,,,,,,,,,,,,,,,,,,,,,,,,
,60a80ae7c96c2610a00b4180,001,2022-04-29_02h09.34.112,classification_task,2021.2.3,Win32,60.07810153,60a80ae7c96c2610a00b4180,626b377229c10585ec392f89,626b3ab2983213a57e6d5a70,,,,,,,,,,,,,,,,,,,,,,,a,1,"[""0.750"",""0.428"",""0.622"",""0.969""]","[0,1,1,1]",0,37,37,37,1,0,1,,,1,FALSE,0.5008,,,,,,,,,,,,,,,,,,,,,,,,,,,,,,
,60a80ae7c96c2610a00b4180,001,2022-04-29_02h09.34.112,classification_task,2021.2.3,Win32,60.07810153,60a80ae7c96c2610a00b4180,626b377229c10585ec392f89,626b3ab2983213a57e6d5a70,,,,,,,,,,,,,,,,,,,,,,,a,1,"[""0.246"",""0.721"",""0.622"",""0.969""]","[1,0,1,1]",0,38,38,38,1,0,1,,,1,FALSE,0.6507,,,,,,,,,,,,,,,,,,,,,,,,,,,,,,
,60a80ae7c96c2610a00b4180,001,2022-04-29_02h09.34.112,classification_task,2021.2.3,Win32,60.07810153,60a80ae7c96c2610a00b4180,626b377229c10585ec392f89,626b3ab2983213a57e6d5a70,,,,,,,,,,,,,,,,,,,,,,,a,1,"[""0.295"",""0.393"",""0.510"",""0.933""]","[1,1,0,1]",0,39,39,39,1,0,0,,,1,FALSE,0.8982,,,,,,,,,,,,,,,,,,,,,,,,,,,,,,
,60a80ae7c96c2610a00b4180,001,2022-04-29_02h09.34.112,classification_task,2021.2.3,Win32,60.07810153,60a80ae7c96c2610a00b4180,626b377229c10585ec392f89,626b3ab2983213a57e6d5a70,,,,,,,,,,,,,,,,,,,,,,,a,1,"[""0.295"",""0.707"",""0.875"",""0.933""]","[1,0,1,1]",0,40,40,40,1,0,0,,,1,FALSE,0.9824,,,,,,,,,,,,,,,,,,,,,,,,,,,,,,
,60a80ae7c96c2610a00b4180,001,2022-04-29_02h09.34.112,classification_task,2021.2.3,Win32,60.07810153,60a80ae7c96c2610a00b4180,626b377229c10585ec392f89,626b3ab2983213a57e6d5a70,,,,,,,,,,,,,,,,,,,,,,,a,1,"[""0.295"",""0.393"",""0.875"",""0.677""]","[1,1,1,0]",0,41,41,41,1,0,0,,,1,FALSE,0.7154,,,,,,,,,,,,,,,,,,,,,,,,,,,,,,
,60a80ae7c96c2610a00b4180,001,2022-04-29_02h09.34.112,classification_task,2021.2.3,Win32,60.07810153,60a80ae7c96c2610a00b4180,626b377229c10585ec392f89,626b3ab2983213a57e6d5a70,,,,,,,,,,,,,,,,,,,,,,,a,1,"[""0.721"",""0.393"",""0.875"",""0.933""]","[0,1,1,1]",0,42,42,42,1,0,0,,,1,FALSE,0.551,,,,,,,,,,,,,,,,,,,,,,,,,,,,,,
,60a80ae7c96c2610a00b4180,001,2022-04-29_02h09.34.112,classification_task,2021.2.3,Win32,60.07810153,60a80ae7c96c2610a00b4180,626b377229c10585ec392f89,626b3ab2983213a57e6d5a70,,,,,,,,,,,,,,,,,,,,,,,l,1,"[""0.067"",""0.353"",""0.545"",""0.674""]","[1,1,1,0]",0,43,43,43,1,1,0,,,1,FALSE,0.7988,,,,,,,,,,,,,,,,,,,,,,,,,,,,,,
,60a80ae7c96c2610a00b4180,001,2022-04-29_02h09.34.112,classification_task,2021.2.3,Win32,60.07810153,60a80ae7c96c2610a00b4180,626b377229c10585ec392f89,626b3ab2983213a57e6d5a70,,,,,,,,,,,,,,,,,,,,,,,a,0,"[""0.170"",""0.207"",""0.474"",""0.784""]","[0,1,1,1]",0,44,44,44,1,1,1,,,1,FALSE,1.4322,,,,,,,,,,,,,,,,,,,,,,,,,,,,,,
,60a80ae7c96c2610a00b4180,001,2022-04-29_02h09.34.112,classification_task,2021.2.3,Win32,60.07810153,60a80ae7c96c2610a00b4180,626b377229c10585ec392f89,626b3ab2983213a57e6d5a70,,,,,,,,,,,,,,,,,,,,,,,l,1,"[""0.067"",""0.353"",""0.707"",""0.818""]","[1,1,0,1]",0,45,45,45,1,1,0,,,1,FALSE,1.6162,,,,,,,,,,,,,,,,,,,,,,,,,,,,,,
,60a80ae7c96c2610a00b4180,001,2022-04-29_02h09.34.112,classification_task,2021.2.3,Win32,60.07810153,60a80ae7c96c2610a00b4180,626b377229c10585ec392f89,626b3ab2983213a57e6d5a70,,,,,,,,,,,,,,,,,,,,,,,a,1,"[""0.246"",""0.428"",""0.730"",""0.969""]","[1,1,0,1]",0,46,46,46,1,0,1,,,1,FALSE,0.7661,,,,,,,,,,,,,,,,,,,,,,,,,,,,,,
,60a80ae7c96c2610a00b4180,001,2022-04-29_02h09.34.112,classification_task,2021.2.3,Win32,60.07810153,60a80ae7c96c2610a00b4180,626b377229c10585ec392f89,626b3ab2983213a57e6d5a70,,,,,,,,,,,,,,,,,,,,,,,a,0,"[""0.742"",""0.353"",""0.545"",""0.818""]","[0,1,1,1]",0,47,47,47,1,1,0,,,1,FALSE,0.9629,,,,,,,,,,,,,,,,,,,,,,,,,,,,,,
,60a80ae7c96c2610a00b4180,001,2022-04-29_02h09.34.112,classification_task,2021.2.3,Win32,60.07810153,60a80ae7c96c2610a00b4180,626b377229c10585ec392f89,626b3ab2983213a57e6d5a70,,,,,,,,,,,,,,,,,,,,,,,a,0,"[""0.721"",""0.353"",""0.545"",""0.818""]","[0,1,1,1]",0,48,48,48,1,1,0,,,1,FALSE,0.6268,,,,,,,,,,,,,,,,,,,,,,,,,,,,,,
,60a80ae7c96c2610a00b4180,001,2022-04-29_02h09.34.112,classification_task,2021.2.3,Win32,60.07810153,60a80ae7c96c2610a00b4180,626b377229c10585ec392f89,626b3ab2983213a57e6d5a70,,,,,,,,,,,,,,,,,,,,,,,l,1,"[""0.067"",""0.353"",""0.154"",""0.818""]","[1,1,0,1]",0,49,49,49,1,1,0,,,1,FALSE,0.8152,,,,,,,,,,,,,,,,,,,,,,,,,,,,,,
,60a80ae7c96c2610a00b4180,001,2022-04-29_02h09.34.112,classification_task,2021.2.3,Win32,60.07810153,60a80ae7c96c2610a00b4180,626b377229c10585ec392f89,626b3ab2983213a57e6d5a70,,,,,,,,,,,,,,,,,,,,,,,a,1,"[""0.295"",""0.393"",""0.875"",""0.676""]","[1,1,1,0]",0,50,50,50,1,0,0,,,1,FALSE,1.0493,,,,,,,,,,,,,,,,,,,,,,,,,,,,,,
,60a80ae7c96c2610a00b4180,001,2022-04-29_02h09.34.112,classification_task,2021.2.3,Win32,60.07810153,60a80ae7c96c2610a00b4180,626b377229c10585ec392f89,626b3ab2983213a57e6d5a70,,,,,,,,,,,,,,,,,,,,,,,a,1,"[""0.295"",""0.393"",""0.707"",""0.933""]","[1,1,0,1]",0,51,51,51,1,0,0,,,1,FALSE,0.7333,,,,,,,,,,,,,,,,,,,,,,,,,,,,,,
,60a80ae7c96c2610a00b4180,001,2022-04-29_02h09.34.112,classification_task,2021.2.3,Win32,60.07810153,60a80ae7c96c2610a00b4180,626b377229c10585ec392f89,626b3ab2983213a57e6d5a70,,,,,,,,,,,,,,,,,,,,,,,a,1,"[""0.246"",""0.428"",""0.750"",""0.969""]","[1,1,0,1]",0,52,52,52,1,0,1,,,1,FALSE,0.7116,,,,,,,,,,,,,,,,,,,,,,,,,,,,,,
,60a80ae7c96c2610a00b4180,001,2022-04-29_02h09.34.112,classification_task,2021.2.3,Win32,60.07810153,60a80ae7c96c2610a00b4180,626b377229c10585ec392f89,626b3ab2983213a57e6d5a70,,,,,,,,,,,,,,,,,,,,,,,a,1,"[""0.742"",""0.393"",""0.875"",""0.933""]","[0,1,1,1]",0,53,53,53,1,0,0,,,1,FALSE,0.9306,,,,,,,,,,,,,,,,,,,,,,,,,,,,,,
,60a80ae7c96c2610a00b4180,001,2022-04-29_02h09.34.112,classification_task,2021.2.3,Win32,60.07810153,60a80ae7c96c2610a00b4180,626b377229c10585ec392f89,626b3ab2983213a57e6d5a70,,,,,,,,,,,,,,,,,,,,,,,l,1,"[""0.067"",""0.353"",""0.545"",""0.707""]","[1,1,1,0]",0,54,54,54,1,1,0,,,1,FALSE,1.1362,,,,,,,,,,,,,,,,,,,,,,,,,,,,,,
,60a80ae7c96c2610a00b4180,001,2022-04-29_02h09.34.112,classification_task,2021.2.3,Win32,60.07810153,60a80ae7c96c2610a00b4180,626b377229c10585ec392f89,626b3ab2983213a57e6d5a70,,,,,,,,,,,,,,,,,,,,,,,a,0,"[""0.707"",""0.207"",""0.474"",""0.784""]","[0,1,1,1]",0,55,55,55,1,1,1,,,1,FALSE,1.1762,,,,,,,,,,,,,,,,,,,,,,,,,,,,,,
,60a80ae7c96c2610a00b4180,001,2022-04-29_02h09.34.112,classification_task,2021.2.3,Win32,60.07810153,60a80ae7c96c2610a00b4180,626b377229c10585ec392f89,626b3ab2983213a57e6d5a70,,,,,,,,,,,,,,,,,,,,,,,l,1,"[""0.067"",""0.680"",""0.545"",""0.818""]","[1,0,1,1]",0,56,56,56,1,1,0,,,1,FALSE,0.8306,,,,,,,,,,,,,,,,,,,,,,,,,,,,,,
,60a80ae7c96c2610a00b4180,001,2022-04-29_02h09.34.112,classification_task,2021.2.3,Win32,60.07810153,60a80ae7c96c2610a00b4180,626b377229c10585ec392f89,626b3ab2983213a57e6d5a70,,,,,,,,,,,,,,,,,,,,,,,l,1,"[""0.117"",""0.207"",""0.474"",""0.676""]","[1,1,1,0]",0,57,57,57,1,1,1,,,1,FALSE,0.8883,,,,,,,,,,,,,,,,,,,,,,,,,,,,,,
,60a80ae7c96c2610a00b4180,001,2022-04-29_02h09.34.112,classification_task,2021.2.3,Win32,60.07810153,60a80ae7c96c2610a00b4180,626b377229c10585ec392f89,626b3ab2983213a57e6d5a70,,,,,,,,,,,,,,,,,,,,,,,a,1,"[""0.246"",""0.510"",""0.622"",""0.969""]","[1,0,1,1]",0,58,58,58,1,0,1,,,1,FALSE,0.6159,,,,,,,,,,,,,,,,,,,,,,,,,,,,,,
,60a80ae7c96c2610a00b4180,001,2022-04-29_02h09.34.112,classification_task,2021.2.3,Win32,60.07810153,60a80ae7c96c2610a00b4180,626b377229c10585ec392f89,626b3ab2983213a57e6d5a70,,,,,,,,,,,,,,,,,,,,,,,a,1,"[""0.748"",""0.428"",""0.622"",""0.969""]","[0,1,1,1]",0,59,59,59,1,0,1,,,1,FALSE,0.5158,,,,,,,,,,,,,,,,,,,,,,,,,,,,,,
,60a80ae7c96c2610a00b4180,001,2022-04-29_02h09.34.112,classification_task,2021.2.3,Win32,60.07810153,60a80ae7c96c2610a00b4180,626b377229c10585ec392f89,626b3ab2983213a57e6d5a70,,,,,,,,,,,,,,,,,,,,,,,l,1,"[""0.117"",""0.170"",""0.474"",""0.784""]","[1,0,1,1]",0,60,60,60,1,1,1,,,1,FALSE,0.6495,,,,,,,,,,,,,,,,,,,,,,,,,,,,,,
,60a80ae7c96c2610a00b4180,001,2022-04-29_02h09.34.112,classification_task,2021.2.3,Win32,60.07810153,60a80ae7c96c2610a00b4180,626b377229c10585ec392f89,626b3ab2983213a57e6d5a70,,,,,,,,,,,,,,,,,,,,,,,a,1,"[""0.246"",""0.428"",""0.622"",""0.510""]","[1,1,1,0]",0,61,61,61,1,0,1,,,1,FALSE,0.5992,,,,,,,,,,,,,,,,,,,,,,,,,,,,,,
,60a80ae7c96c2610a00b4180,001,2022-04-29_02h09.34.112,classification_task,2021.2.3,Win32,60.07810153,60a80ae7c96c2610a00b4180,626b377229c10585ec392f89,626b3ab2983213a57e6d5a70,,,,,,,,,,,,,,,,,,,,,,,a,0,"[""0.117"",""0.207"",""0.680"",""0.784""]","[1,1,0,1]",0,62,62,62,1,1,1,,,1,FALSE,0.5996,,,,,,,,,,,,,,,,,,,,,,,,,,,,,,
,60a80ae7c96c2610a00b4180,001,2022-04-29_02h09.34.112,classification_task,2021.2.3,Win32,60.07810153,60a80ae7c96c2610a00b4180,626b377229c10585ec392f89,626b3ab2983213a57e6d5a70,,,,,,,,,,,,,,,,,,,,,,,a,1,"[""0.295"",""0.677"",""0.875"",""0.933""]","[1,0,1,1]",0,63,63,63,1,0,0,,,1,FALSE,0.8194,,,,,,,,,,,,,,,,,,,,,,,,,,,,,,
,60a80ae7c96c2610a00b4180,001,2022-04-29_02h09.34.112,classification_task,2021.2.3,Win32,60.07810153,60a80ae7c96c2610a00b4180,626b377229c10585ec392f89,626b3ab2983213a57e6d5a70,,,,,,,,,,,,,,,,,,,,,,,,,,,,,,,,,,,,,,,0, ,,0,5.592829724,133.1105,0,1,1,1,1,2,2,,,,,,,,,,,,,,,,,
,60a80ae7c96c2610a00b4180,001,2022-04-29_02h09.34.112,classification_task,2021.2.3,Win32,60.07810153,60a80ae7c96c2610a00b4180,626b377229c10585ec392f89,626b3ab2983213a57e6d5a70,,,,,,,,,,,,,,,,,,,,,,,,,,,,,,,,,,,,,,,1,  ,,0,5.296414862,134.0305,0,1,1,1,1,2,2,,,,,,,,,,,,,,,,,
,60a80ae7c96c2610a00b4180,001,2022-04-29_02h09.34.112,classification_task,2021.2.3,Win32,60.07810153,60a80ae7c96c2610a00b4180,626b377229c10585ec392f89,626b3ab2983213a57e6d5a70,,,,,,,,,,,,,,,,,,,,,,,,,,,,,,,,,,,,,,,2,  ,,0,5.148207431,135.4499,0,1,1,1,1,2,2,,,,,,,,,,,,,,,,,
,60a80ae7c96c2610a00b4180,001,2022-04-29_02h09.34.112,classification_task,2021.2.3,Win32,60.07810153,60a80ae7c96c2610a00b4180,626b377229c10585ec392f89,626b3ab2983213a57e6d5a70,,,,,,,,,,,,,,,,,,,,,,,,,,,,,,,,,,,,,,,,,,,,,0,1,1,1,1,,2,,,,,,,,,,,,,,,,,
,60a80ae7c96c2610a00b4180,001,2022-04-29_02h09.34.112,classification_task,2021.2.3,Win32,60.07810153,60a80ae7c96c2610a00b4180,626b377229c10585ec392f89,626b3ab2983213a57e6d5a70,,,,,,,,,,,,,,,,,,,,,space,4.9005,l,1,"[""0.117"",""0.207"",""0.730"",""0.784""]","[1,1,0,1]",0,0,0,0,1,1,1,,,1,FALSE,2.1229,,,,,,,,,,,,,,,,,,,,,,,,,,,,,,
,60a80ae7c96c2610a00b4180,001,2022-04-29_02h09.34.112,classification_task,2021.2.3,Win32,60.07810153,60a80ae7c96c2610a00b4180,626b377229c10585ec392f89,626b3ab2983213a57e6d5a70,,,,,,,,,,,,,,,,,,,,,,,l,1,"[""0.067"",""0.353"",""0.545"",""0.680""]","[1,1,1,0]",0,1,1,1,1,1,0,,,1,FALSE,1.5536,,,,,,,,,,,,,,,,,,,,,,,,,,,,,,
,60a80ae7c96c2610a00b4180,001,2022-04-29_02h09.34.112,classification_task,2021.2.3,Win32,60.07810153,60a80ae7c96c2610a00b4180,626b377229c10585ec392f89,626b3ab2983213a57e6d5a70,,,,,,,,,,,,,,,,,,,,,,,a,1,"[""0.246"",""0.170"",""0.622"",""0.969""]","[1,0,1,1]",0,2,2,2,1,0,1,,,1,FALSE,0.6173,,,,,,,,,,,,,,,,,,,,,,,,,,,,,,
,60a80ae7c96c2610a00b4180,001,2022-04-29_02h09.34.112,classification_task,2021.2.3,Win32,60.07810153,60a80ae7c96c2610a00b4180,626b377229c10585ec392f89,626b3ab2983213a57e6d5a70,,,,,,,,,,,,,,,,,,,,,,,a,1,"[""0.246"",""0.428"",""0.748"",""0.969""]","[1,1,0,1]",0,3,3,3,1,0,1,,,1,FALSE,0.5155,,,,,,,,,,,,,,,,,,,,,,,,,,,,,,
,60a80ae7c96c2610a00b4180,001,2022-04-29_02h09.34.112,classification_task,2021.2.3,Win32,60.07810153,60a80ae7c96c2610a00b4180,626b377229c10585ec392f89,626b3ab2983213a57e6d5a70,,,,,,,,,,,,,,,,,,,,,,,l,1,"[""0.117"",""0.207"",""0.474"",""0.154""]","[1,1,1,0]",0,4,4,4,1,1,1,,,1,FALSE,1.0027,,,,,,,,,,,,,,,,,,,,,,,,,,,,,,
,60a80ae7c96c2610a00b4180,001,2022-04-29_02h09.34.112,classification_task,2021.2.3,Win32,60.07810153,60a80ae7c96c2610a00b4180,626b377229c10585ec392f89,626b3ab2983213a57e6d5a70,,,,,,,,,,,,,,,,,,,,,,,l,1,"[""0.117"",""0.748"",""0.474"",""0.784""]","[1,0,1,1]",0,5,5,5,1,1,1,,,1,FALSE,0.8867,,,,,,,,,,,,,,,,,,,,,,,,,,,,,,
,60a80ae7c96c2610a00b4180,001,2022-04-29_02h09.34.112,classification_task,2021.2.3,Win32,60.07810153,60a80ae7c96c2610a00b4180,626b377229c10585ec392f89,626b3ab2983213a57e6d5a70,,,,,,,,,,,,,,,,,,,,,,,a,0,"[""0.680"",""0.207"",""0.474"",""0.784""]","[0,1,1,1]",0,6,6,6,1,1,1,,,1,FALSE,1.1681,,,,,,,,,,,,,,,,,,,,,,,,,,,,,,
,60a80ae7c96c2610a00b4180,001,2022-04-29_02h09.34.112,classification_task,2021.2.3,Win32,60.07810153,60a80ae7c96c2610a00b4180,626b377229c10585ec392f89,626b3ab2983213a57e6d5a70,,,,,,,,,,,,,,,,,,,,,,,l,1,"[""0.676"",""0.353"",""0.545"",""0.818""]","[0,1,1,1]",0,7,7,7,1,1,0,,,1,FALSE,0.9494,,,,,,,,,,,,,,,,,,,,,,,,,,,,,,
,60a80ae7c96c2610a00b4180,001,2022-04-29_02h09.34.112,classification_task,2021.2.3,Win32,60.07810153,60a80ae7c96c2610a00b4180,626b377229c10585ec392f89,626b3ab2983213a57e6d5a70,,,,,,,,,,,,,,,,,,,,,,,l,0,"[""0.246"",""0.428"",""0.622"",""0.676""]","[1,1,1,0]",0,8,8,8,1,0,1,,,1,FALSE,0.9665,,,,,,,,,,,,,,,,,,,,,,,,,,,,,,
,60a80ae7c96c2610a00b4180,001,2022-04-29_02h09.34.112,classification_task,2021.2.3,Win32,60.07810153,60a80ae7c96c2610a00b4180,626b377229c10585ec392f89,626b3ab2983213a57e6d5a70,,,,,,,,,,,,,,,,,,,,,,,a,1,"[""0.295"",""0.393"",""0.750"",""0.933""]","[1,1,0,1]",0,9,9,9,1,0,0,,,1,FALSE,0.5995,,,,,,,,,,,,,,,,,,,,,,,,,,,,,,
,60a80ae7c96c2610a00b4180,001,2022-04-29_02h09.34.112,classification_task,2021.2.3,Win32,60.07810153,60a80ae7c96c2610a00b4180,626b377229c10585ec392f89,626b3ab2983213a57e6d5a70,,,,,,,,,,,,,,,,,,,,,,,a,0,"[""0.067"",""0.353"",""0.152"",""0.818""]","[1,1,0,1]",0,10,10,10,1,1,0,,,1,FALSE,0.784,,,,,,,,,,,,,,,,,,,,,,,,,,,,,,
,60a80ae7c96c2610a00b4180,001,2022-04-29_02h09.34.112,classification_task,2021.2.3,Win32,60.07810153,60a80ae7c96c2610a00b4180,626b377229c10585ec392f89,626b3ab2983213a57e6d5a70,,,,,,,,,,,,,,,,,,,,,,,a,1,"[""0.295"",""0.393"",""0.875"",""0.721""]","[1,1,1,0]",0,11,11,11,1,0,0,,,1,FALSE,1.2694,,,,,,,,,,,,,,,,,,,,,,,,,,,,,,
,60a80ae7c96c2610a00b4180,001,2022-04-29_02h09.34.112,classification_task,2021.2.3,Win32,60.07810153,60a80ae7c96c2610a00b4180,626b377229c10585ec392f89,626b3ab2983213a57e6d5a70,,,,,,,,,,,,,,,,,,,,,,,a,0,"[""0.067"",""0.676"",""0.545"",""0.818""]","[1,0,1,1]",0,12,12,12,1,1,0,,,1,FALSE,3.0518,,,,,,,,,,,,,,,,,,,,,,,,,,,,,,
,60a80ae7c96c2610a00b4180,001,2022-04-29_02h09.34.112,classification_task,2021.2.3,Win32,60.07810153,60a80ae7c96c2610a00b4180,626b377229c10585ec392f89,626b3ab2983213a57e6d5a70,,,,,,,,,,,,,,,,,,,,,,,a,1,"[""0.707"",""0.428"",""0.622"",""0.969""]","[0,1,1,1]",0,13,13,13,1,0,1,,,1,FALSE,1.1684,,,,,,,,,,,,,,,,,,,,,,,,,,,,,,
,60a80ae7c96c2610a00b4180,001,2022-04-29_02h09.34.112,classification_task,2021.2.3,Win32,60.07810153,60a80ae7c96c2610a00b4180,626b377229c10585ec392f89,626b3ab2983213a57e6d5a70,,,,,,,,,,,,,,,,,,,,,,,a,1,"[""0.295"",""0.730"",""0.875"",""0.933""]","[1,0,1,1]",0,14,14,14,1,0,0,,,1,FALSE,0.4163,,,,,,,,,,,,,,,,,,,,,,,,,,,,,,
,60a80ae7c96c2610a00b4180,001,2022-04-29_02h09.34.112,classification_task,2021.2.3,Win32,60.07810153,60a80ae7c96c2610a00b4180,626b377229c10585ec392f89,626b3ab2983213a57e6d5a70,,,,,,,,,,,,,,,,,,,,,,,a,1,"[""0.674"",""0.393"",""0.875"",""0.933""]","[0,1,1,1]",0,15,15,15,1,0,0,,,1,FALSE,0.4336,,,,,,,,,,,,,,,,,,,,,,,,,,,,,,
,60a80ae7c96c2610a00b4180,001,2022-04-29_02h09.34.112,classification_task,2021.2.3,Win32,60.07810153,60a80ae7c96c2610a00b4180,626b377229c10585ec392f89,626b3ab2983213a57e6d5a70,,,,,,,,,,,,,,,,,,,,,,,a,0,"[""0.748"",""0.353"",""0.545"",""0.818""]","[0,1,1,1]",0,16,16,16,1,1,0,,,1,FALSE,1.5335,,,,,,,,,,,,,,,,,,,,,,,,,,,,,,
,60a80ae7c96c2610a00b4180,001,2022-04-29_02h09.34.112,classification_task,2021.2.3,Win32,60.07810153,60a80ae7c96c2610a00b4180,626b377229c10585ec392f89,626b3ab2983213a57e6d5a70,,,,,,,,,,,,,,,,,,,,,,,l,1,"[""0.117"",""0.207"",""0.474"",""0.707""]","[1,1,1,0]",0,17,17,17,1,1,1,,,1,FALSE,0.9277,,,,,,,,,,,,,,,,,,,,,,,,,,,,,,
,60a80ae7c96c2610a00b4180,001,2022-04-29_02h09.34.112,classification_task,2021.2.3,Win32,60.07810153,60a80ae7c96c2610a00b4180,626b377229c10585ec392f89,626b3ab2983213a57e6d5a70,,,,,,,,,,,,,,,,,,,,,,,l,1,"[""0.067"",""0.730"",""0.545"",""0.818""]","[1,0,1,1]",0,18,18,18,1,1,0,,,1,FALSE,0.9668,,,,,,,,,,,,,,,,,,,,,,,,,,,,,,
,60a80ae7c96c2610a00b4180,001,2022-04-29_02h09.34.112,classification_task,2021.2.3,Win32,60.07810153,60a80ae7c96c2610a00b4180,626b377229c10585ec392f89,626b3ab2983213a57e6d5a70,,,,,,,,,,,,,,,,,,,,,,,l,1,"[""0.067"",""0.353"",""0.730"",""0.818""]","[1,1,0,1]",0,19,19,19,1,1,0,,,1,FALSE,0.5698,,,,,,,,,,,,,,,,,,,,,,,,,,,,,,
,60a80ae7c96c2610a00b4180,001,2022-04-29_02h09.34.112,classification_task,2021.2.3,Win32,60.07810153,60a80ae7c96c2610a00b4180,626b377229c10585ec392f89,626b3ab2983213a57e6d5a70,,,,,,,,,,,,,,,,,,,,,,,a,1,"[""0.707"",""0.393"",""0.875"",""0.933""]","[0,1,1,1]",0,20,20,20,1,0,0,,,1,FALSE,0.8015,,,,,,,,,,,,,,,,,,,,,,,,,,,,,,
,60a80ae7c96c2610a00b4180,001,2022-04-29_02h09.34.112,classification_task,2021.2.3,Win32,60.07810153,60a80ae7c96c2610a00b4180,626b377229c10585ec392f89,626b3ab2983213a57e6d5a70,,,,,,,,,,,,,,,,,,,,,,,a,1,"[""0.677"",""0.428"",""0.622"",""0.969""]","[0,1,1,1]",0,21,21,21,1,0,1,,,1,FALSE,0.719,,,,,,,,,,,,,,,,,,,,,,,,,,,,,,
,60a80ae7c96c2610a00b4180,001,2022-04-29_02h09.34.112,classification_task,2021.2.3,Win32,60.07810153,60a80ae7c96c2610a00b4180,626b377229c10585ec392f89,626b3ab2983213a57e6d5a70,,,,,,,,,,,,,,,,,,,,,,,a,1,"[""0.295"",""0.393"",""0.676"",""0.933""]","[1,1,0,1]",0,22,22,22,1,0,0,,,1,FALSE,0.9665,,,,,,,,,,,,,,,,,,,,,,,,,,,,,,
,60a80ae7c96c2610a00b4180,001,2022-04-29_02h09.34.112,classification_task,2021.2.3,Win32,60.07810153,60a80ae7c96c2610a00b4180,626b377229c10585ec392f89,626b3ab2983213a57e6d5a70,,,,,,,,,,,,,,,,,,,,,,,a,1,"[""0.246"",""0.750"",""0.622"",""0.969""]","[1,0,1,1]",0,23,23,23,1,0,1,,,1,FALSE,0.6163,,,,,,,,,,,,,,,,,,,,,,,,,,,,,,
,60a80ae7c96c2610a00b4180,001,2022-04-29_02h09.34.112,classification_task,2021.2.3,Win32,60.07810153,60a80ae7c96c2610a00b4180,626b377229c10585ec392f89,626b3ab2983213a57e6d5a70,,,,,,,,,,,,,,,,,,,,,,,a,1,"[""0.295"",""0.680"",""0.875"",""0.933""]","[1,0,1,1]",0,24,24,24,1,0,0,,,1,FALSE,0.7029,,,,,,,,,,,,,,,,,,,,,,,,,,,,,,
,60a80ae7c96c2610a00b4180,001,2022-04-29_02h09.34.112,classification_task,2021.2.3,Win32,60.07810153,60a80ae7c96c2610a00b4180,626b377229c10585ec392f89,626b3ab2983213a57e6d5a70,,,,,,,,,,,,,,,,,,,,,,,l,1,"[""0.117"",""0.707"",""0.474"",""0.784""]","[1,0,1,1]",0,25,25,25,1,1,1,,,1,FALSE,1.5124,,,,,,,,,,,,,,,,,,,,,,,,,,,,,,
,60a80ae7c96c2610a00b4180,001,2022-04-29_02h09.34.112,classification_task,2021.2.3,Win32,60.07810153,60a80ae7c96c2610a00b4180,626b377229c10585ec392f89,626b3ab2983213a57e6d5a70,,,,,,,,,,,,,,,,,,,,,,,a,1,"[""0.246"",""0.428"",""0.170"",""0.969""]","[1,1,0,1]",0,26,26,26,1,0,1,,,1,FALSE,0.7488,,,,,,,,,,,,,,,,,,,,,,,,,,,,,,
,60a80ae7c96c2610a00b4180,001,2022-04-29_02h09.34.112,classification_task,2021.2.3,Win32,60.07810153,60a80ae7c96c2610a00b4180,626b377229c10585ec392f89,626b3ab2983213a57e6d5a70,,,,,,,,,,,,,,,,,,,,,,,l,1,"[""0.117"",""0.207"",""0.707"",""0.784""]","[1,1,0,1]",0,27,27,27,1,1,1,,,1,FALSE,1.4827,,,,,,,,,,,,,,,,,,,,,,,,,,,,,,
,60a80ae7c96c2610a00b4180,001,2022-04-29_02h09.34.112,classification_task,2021.2.3,Win32,60.07810153,60a80ae7c96c2610a00b4180,626b377229c10585ec392f89,626b3ab2983213a57e6d5a70,,,,,,,,,,,,,,,,,,,,,,,a,0,"[""0.067"",""0.353"",""0.545"",""0.750""]","[1,1,1,0]",0,28,28,28,1,1,0,,,1,FALSE,1.2028,,,,,,,,,,,,,,,,,,,,,,,,,,,,,,
,60a80ae7c96c2610a00b4180,001,2022-04-29_02h09.34.112,classification_task,2021.2.3,Win32,60.07810153,60a80ae7c96c2610a00b4180,626b377229c10585ec392f89,626b3ab2983213a57e6d5a70,,,,,,,,,,,,,,,,,,,,,,,a,1,"[""0.295"",""0.393"",""0.875"",""0.676""]","[1,1,1,0]",0,29,29,29,1,0,0,,,1,FALSE,0.5843,,,,,,,,,,,,,,,,,,,,,,,,,,,,,,
,60a80ae7c96c2610a00b4180,001,2022-04-29_02h09.34.112,classification_task,2021.2.3,Win32,60.07810153,60a80ae7c96c2610a00b4180,626b377229c10585ec392f89,626b3ab2983213a57e6d5a70,,,,,,,,,,,,,,,,,,,,,,,l,0,"[""0.246"",""0.428"",""0.622"",""0.676""]","[1,1,1,0]",0,30,30,30,1,0,1,,,1,FALSE,2.5166,,,,,,,,,,,,,,,,,,,,,,,,,,,,,,
,60a80ae7c96c2610a00b4180,001,2022-04-29_02h09.34.112,classification_task,2021.2.3,Win32,60.07810153,60a80ae7c96c2610a00b4180,626b377229c10585ec392f89,626b3ab2983213a57e6d5a70,,,,,,,,,,,,,,,,,,,,,,,a,0,"[""0.707"",""0.207"",""0.474"",""0.784""]","[0,1,1,1]",0,31,31,31,1,1,1,,,1,FALSE,1.346,,,,,,,,,,,,,,,,,,,,,,,,,,,,,,
,60a80ae7c96c2610a00b4180,001,2022-04-29_02h09.34.112,classification_task,2021.2.3,Win32,60.07810153,60a80ae7c96c2610a00b4180,626b377229c10585ec392f89,626b3ab2983213a57e6d5a70,,,,,,,,,,,,,,,,,,,,,,,a,1,"[""0.295"",""0.393"",""0.875"",""0.680""]","[1,1,1,0]",0,32,32,32,1,0,0,,,1,FALSE,0.7199,,,,,,,,,,,,,,,,,,,,,,,,,,,,,,
,60a80ae7c96c2610a00b4180,001,2022-04-29_02h09.34.112,classification_task,2021.2.3,Win32,60.07810153,60a80ae7c96c2610a00b4180,626b377229c10585ec392f89,626b3ab2983213a57e6d5a70,,,,,,,,,,,,,,,,,,,,,,,a,0,"[""0.117"",""0.750"",""0.474"",""0.784""]","[1,0,1,1]",0,33,33,33,1,1,1,,,1,FALSE,7.6664,,,,,,,,,,,,,,,,,,,,,,,,,,,,,,
,60a80ae7c96c2610a00b4180,001,2022-04-29_02h09.34.112,classification_task,2021.2.3,Win32,60.07810153,60a80ae7c96c2610a00b4180,626b377229c10585ec392f89,626b3ab2983213a57e6d5a70,,,,,,,,,,,,,,,,,,,,,,,a,1,"[""0.246"",""0.742"",""0.622"",""0.969""]","[1,0,1,1]",0,34,34,34,1,0,1,,,1,FALSE,0.6883,,,,,,,,,,,,,,,,,,,,,,,,,,,,,,
,60a80ae7c96c2610a00b4180,001,2022-04-29_02h09.34.112,classification_task,2021.2.3,Win32,60.07810153,60a80ae7c96c2610a00b4180,626b377229c10585ec392f89,626b3ab2983213a57e6d5a70,,,,,,,,,,,,,,,,,,,,,,,l,1,"[""0.117"",""0.207"",""0.474"",""0.750""]","[1,1,1,0]",0,35,35,35,1,1,1,,,1,FALSE,2.7514,,,,,,,,,,,,,,,,,,,,,,,,,,,,,,
,60a80ae7c96c2610a00b4180,001,2022-04-29_02h09.34.112,classification_task,2021.2.3,Win32,60.07810153,60a80ae7c96c2610a00b4180,626b377229c10585ec392f89,626b3ab2983213a57e6d5a70,,,,,,,,,,,,,,,,,,,,,,,l,1,"[""0.067"",""0.353"",""0.677"",""0.818""]","[1,1,0,1]",0,36,36,36,1,1,0,,,1,FALSE,3.3004,,,,,,,,,,,,,,,,,,,,,,,,,,,,,,
,60a80ae7c96c2610a00b4180,001,2022-04-29_02h09.34.112,classification_task,2021.2.3,Win32,60.07810153,60a80ae7c96c2610a00b4180,626b377229c10585ec392f89,626b3ab2983213a57e6d5a70,,,,,,,,,,,,,,,,,,,,,,,a,1,"[""0.154"",""0.393"",""0.875"",""0.933""]","[0,1,1,1]",0,37,37,37,1,0,0,,,1,FALSE,4.8232,,,,,,,,,,,,,,,,,,,,,,,,,,,,,,
,60a80ae7c96c2610a00b4180,001,2022-04-29_02h09.34.112,classification_task,2021.2.3,Win32,60.07810153,60a80ae7c96c2610a00b4180,626b377229c10585ec392f89,626b3ab2983213a57e6d5a70,,,,,,,,,,,,,,,,,,,,,,,a,0,"[""0.510"",""0.353"",""0.545"",""0.818""]","[0,1,1,1]",0,38,38,38,1,1,0,,,1,FALSE,4.1944,,,,,,,,,,,,,,,,,,,,,,,,,,,,,,
,60a80ae7c96c2610a00b4180,001,2022-04-29_02h09.34.112,classification_task,2021.2.3,Win32,60.07810153,60a80ae7c96c2610a00b4180,626b377229c10585ec392f89,626b3ab2983213a57e6d5a70,,,,,,,,,,,,,,,,,,,,,,,a,1,"[""0.295"",""0.748"",""0.875"",""0.933""]","[1,0,1,1]",0,39,39,39,1,0,0,,,1,FALSE,0.9948,,,,,,,,,,,,,,,,,,,,,,,,,,,,,,
,60a80ae7c96c2610a00b4180,001,2022-04-29_02h09.34.112,classification_task,2021.2.3,Win32,60.07810153,60a80ae7c96c2610a00b4180,626b377229c10585ec392f89,626b3ab2983213a57e6d5a70,,,,,,,,,,,,,,,,,,,,,,,l,1,"[""0.067"",""0.721"",""0.545"",""0.818""]","[1,0,1,1]",0,40,40,40,1,1,0,,,1,FALSE,1.3328,,,,,,,,,,,,,,,,,,,,,,,,,,,,,,
,60a80ae7c96c2610a00b4180,001,2022-04-29_02h09.34.112,classification_task,2021.2.3,Win32,60.07810153,60a80ae7c96c2610a00b4180,626b377229c10585ec392f89,626b3ab2983213a57e6d5a70,,,,,,,,,,,,,,,,,,,,,,,a,1,"[""0.295"",""0.393"",""0.152"",""0.933""]","[1,1,0,1]",0,41,41,41,1,0,0,,,1,FALSE,1.1674,,,,,,,,,,,,,,,,,,,,,,,,,,,,,,
,60a80ae7c96c2610a00b4180,001,2022-04-29_02h09.34.112,classification_task,2021.2.3,Win32,60.07810153,60a80ae7c96c2610a00b4180,626b377229c10585ec392f89,626b3ab2983213a57e6d5a70,,,,,,,,,,,,,,,,,,,,,,,a,1,"[""0.246"",""0.428"",""0.730"",""0.969""]","[1,1,0,1]",0,42,42,42,1,0,1,,,1,FALSE,0.7001,,,,,,,,,,,,,,,,,,,,,,,,,,,,,,
,60a80ae7c96c2610a00b4180,001,2022-04-29_02h09.34.112,classification_task,2021.2.3,Win32,60.07810153,60a80ae7c96c2610a00b4180,626b377229c10585ec392f89,626b3ab2983213a57e6d5a70,,,,,,,,,,,,,,,,,,,,,,,l,1,"[""0.154"",""0.207"",""0.474"",""0.784""]","[0,1,1,1]",0,43,43,43,1,1,1,,,1,FALSE,1.1329,,,,,,,,,,,,,,,,,,,,,,,,,,,,,,
,60a80ae7c96c2610a00b4180,001,2022-04-29_02h09.34.112,classification_task,2021.2.3,Win32,60.07810153,60a80ae7c96c2610a00b4180,626b377229c10585ec392f89,626b3ab2983213a57e6d5a70,,,,,,,,,,,,,,,,,,,,,,,l,1,"[""0.067"",""0.353"",""0.545"",""0.510""]","[1,1,1,0]",0,44,44,44,1,1,0,,,1,FALSE,1.3324,,,,,,,,,,,,,,,,,,,,,,,,,,,,,,
,60a80ae7c96c2610a00b4180,001,2022-04-29_02h09.34.112,classification_task,2021.2.3,Win32,60.07810153,60a80ae7c96c2610a00b4180,626b377229c10585ec392f89,626b3ab2983213a57e6d5a70,,,,,,,,,,,,,,,,,,,,,,,l,0,"[""0.246"",""0.428"",""0.622"",""0.154""]","[1,1,1,0]",0,45,45,45,1,0,1,,,1,FALSE,1.4324,,,,,,,,,,,,,,,,,,,,,,,,,,,,,,
,60a80ae7c96c2610a00b4180,001,2022-04-29_02h09.34.112,classification_task,2021.2.3,Win32,60.07810153,60a80ae7c96c2610a00b4180,626b377229c10585ec392f89,626b3ab2983213a57e6d5a70,,,,,,,,,,,,,,,,,,,,,,,a,1,"[""0.510"",""0.428"",""0.622"",""0.969""]","[0,1,1,1]",0,46,46,46,1,0,1,,,1,FALSE,0.5188,,,,,,,,,,,,,,,,,,,,,,,,,,,,,,
,60a80ae7c96c2610a00b4180,001,2022-04-29_02h09.34.112,classification_task,2021.2.3,Win32,60.07810153,60a80ae7c96c2610a00b4180,626b377229c10585ec392f89,626b3ab2983213a57e6d5a70,,,,,,,,,,,,,,,,,,,,,,,l,1,"[""0.117"",""0.207"",""0.730"",""0.784""]","[1,1,0,1]",0,47,47,47,1,1,1,,,1,FALSE,0.9655,,,,,,,,,,,,,,,,,,,,,,,,,,,,,,
,60a80ae7c96c2610a00b4180,001,2022-04-29_02h09.34.112,classification_task,2021.2.3,Win32,60.07810153,60a80ae7c96c2610a00b4180,626b377229c10585ec392f89,626b3ab2983213a57e6d5a70,,,,,,,,,,,,,,,,,,,,,,,a,1,"[""0.246"",""0.428"",""0.674"",""0.969""]","[1,1,0,1]",0,48,48,48,1,0,1,,,1,FALSE,0.6504,,,,,,,,,,,,,,,,,,,,,,,,,,,,,,
,60a80ae7c96c2610a00b4180,001,2022-04-29_02h09.34.112,classification_task,2021.2.3,Win32,60.07810153,60a80ae7c96c2610a00b4180,626b377229c10585ec392f89,626b3ab2983213a57e6d5a70,,,,,,,,,,,,,,,,,,,,,,,a,1,"[""0.295"",""0.721"",""0.875"",""0.933""]","[1,0,1,1]",0,49,49,49,1,0,0,,,1,FALSE,0.8304,,,,,,,,,,,,,,,,,,,,,,,,,,,,,,
,60a80ae7c96c2610a00b4180,001,2022-04-29_02h09.34.112,classification_task,2021.2.3,Win32,60.07810153,60a80ae7c96c2610a00b4180,626b377229c10585ec392f89,626b3ab2983213a57e6d5a70,,,,,,,,,,,,,,,,,,,,,,,l,1,"[""0.117"",""0.676"",""0.474"",""0.784""]","[1,0,1,1]",0,50,50,50,1,1,1,,,1,FALSE,1.1336,,,,,,,,,,,,,,,,,,,,,,,,,,,,,,
,60a80ae7c96c2610a00b4180,001,2022-04-29_02h09.34.112,classification_task,2021.2.3,Win32,60.07810153,60a80ae7c96c2610a00b4180,626b377229c10585ec392f89,626b3ab2983213a57e6d5a70,,,,,,,,,,,,,,,,,,,,,,,a,1,"[""0.295"",""0.393"",""0.875"",""0.674""]","[1,1,1,0]",0,51,51,51,1,0,0,,,1,FALSE,0.7503,,,,,,,,,,,,,,,,,,,,,,,,,,,,,,
,60a80ae7c96c2610a00b4180,001,2022-04-29_02h09.34.112,classification_task,2021.2.3,Win32,60.07810153,60a80ae7c96c2610a00b4180,626b377229c10585ec392f89,626b3ab2983213a57e6d5a70,,,,,,,,,,,,,,,,,,,,,,,l,1,"[""0.067"",""0.353"",""0.152"",""0.818""]","[1,1,0,1]",0,52,52,52,1,1,0,,,1,FALSE,0.7657,,,,,,,,,,,,,,,,,,,,,,,,,,,,,,
,60a80ae7c96c2610a00b4180,001,2022-04-29_02h09.34.112,classification_task,2021.2.3,Win32,60.07810153,60a80ae7c96c2610a00b4180,626b377229c10585ec392f89,626b3ab2983213a57e6d5a70,,,,,,,,,,,,,,,,,,,,,,,a,1,"[""0.295"",""0.393"",""0.674"",""0.933""]","[1,1,0,1]",0,53,53,53,1,0,0,,,1,FALSE,0.7837,,,,,,,,,,,,,,,,,,,,,,,,,,,,,,
,60a80ae7c96c2610a00b4180,001,2022-04-29_02h09.34.112,classification_task,2021.2.3,Win32,60.07810153,60a80ae7c96c2610a00b4180,626b377229c10585ec392f89,626b3ab2983213a57e6d5a70,,,,,,,,,,,,,,,,,,,,,,,l,1,"[""0.067"",""0.353"",""0.545"",""0.677""]","[1,1,1,0]",0,54,54,54,1,1,0,,,1,FALSE,0.998,,,,,,,,,,,,,,,,,,,,,,,,,,,,,,
,60a80ae7c96c2610a00b4180,001,2022-04-29_02h09.34.112,classification_task,2021.2.3,Win32,60.07810153,60a80ae7c96c2610a00b4180,626b377229c10585ec392f89,626b3ab2983213a57e6d5a70,,,,,,,,,,,,,,,,,,,,,,,a,0,"[""0.117"",""0.207"",""0.474"",""0.750""]","[1,1,1,0]",0,55,55,55,1,1,1,,,1,FALSE,1.4655,,,,,,,,,,,,,,,,,,,,,,,,,,,,,,
,60a80ae7c96c2610a00b4180,001,2022-04-29_02h09.34.112,classification_task,2021.2.3,Win32,60.07810153,60a80ae7c96c2610a00b4180,626b377229c10585ec392f89,626b3ab2983213a57e6d5a70,,,,,,,,,,,,,,,,,,,,,,,l,0,"[""0.246"",""0.428"",""0.622"",""0.510""]","[1,1,1,0]",0,56,56,56,1,0,1,,,1,FALSE,2.0667,,,,,,,,,,,,,,,,,,,,,,,,,,,,,,
,60a80ae7c96c2610a00b4180,001,2022-04-29_02h09.34.112,classification_task,2021.2.3,Win32,60.07810153,60a80ae7c96c2610a00b4180,626b377229c10585ec392f89,626b3ab2983213a57e6d5a70,,,,,,,,,,,,,,,,,,,,,,,a,1,"[""0.677"",""0.393"",""0.875"",""0.933""]","[0,1,1,1]",0,57,57,57,1,0,0,,,1,FALSE,0.6173,,,,,,,,,,,,,,,,,,,,,,,,,,,,,,
,60a80ae7c96c2610a00b4180,001,2022-04-29_02h09.34.112,classification_task,2021.2.3,Win32,60.07810153,60a80ae7c96c2610a00b4180,626b377229c10585ec392f89,626b3ab2983213a57e6d5a70,,,,,,,,,,,,,,,,,,,,,,,a,0,"[""0.674"",""0.207"",""0.474"",""0.784""]","[0,1,1,1]",0,58,58,58,1,1,1,,,1,FALSE,1.1131,,,,,,,,,,,,,,,,,,,,,,,,,,,,,,
,60a80ae7c96c2610a00b4180,001,2022-04-29_02h09.34.112,classification_task,2021.2.3,Win32,60.07810153,60a80ae7c96c2610a00b4180,626b377229c10585ec392f89,626b3ab2983213a57e6d5a70,,,,,,,,,,,,,,,,,,,,,,,a,1,"[""0.246"",""0.680"",""0.622"",""0.969""]","[1,0,1,1]",0,59,59,59,1,0,1,,,1,FALSE,1.1475,,,,,,,,,,,,,,,,,,,,,,,,,,,,,,
,60a80ae7c96c2610a00b4180,001,2022-04-29_02h09.34.112,classification_task,2021.2.3,Win32,60.07810153,60a80ae7c96c2610a00b4180,626b377229c10585ec392f89,626b3ab2983213a57e6d5a70,,,,,,,,,,,,,,,,,,,,,,,l,1,"[""0.117"",""0.207"",""0.677"",""0.784""]","[1,1,0,1]",0,60,60,60,1,1,1,,,1,FALSE,6.0986,,,,,,,,,,,,,,,,,,,,,,,,,,,,,,
,60a80ae7c96c2610a00b4180,001,2022-04-29_02h09.34.112,classification_task,2021.2.3,Win32,60.07810153,60a80ae7c96c2610a00b4180,626b377229c10585ec392f89,626b3ab2983213a57e6d5a70,,,,,,,,,,,,,,,,,,,,,,,l,1,"[""0.154"",""0.353"",""0.545"",""0.818""]","[0,1,1,1]",0,61,61,61,1,1,0,,,1,FALSE,0.7986,,,,,,,,,,,,,,,,,,,,,,,,,,,,,,
,60a80ae7c96c2610a00b4180,001,2022-04-29_02h09.34.112,classification_task,2021.2.3,Win32,60.07810153,60a80ae7c96c2610a00b4180,626b377229c10585ec392f89,626b3ab2983213a57e6d5a70,,,,,,,,,,,,,,,,,,,,,,,l,1,"[""0.067"",""0.721"",""0.545"",""0.818""]","[1,0,1,1]",0,62,62,62,1,1,0,,,1,FALSE,1.3992,,,,,,,,,,,,,,,,,,,,,,,,,,,,,,
,60a80ae7c96c2610a00b4180,001,2022-04-29_02h09.34.112,classification_task,2021.2.3,Win32,60.07810153,60a80ae7c96c2610a00b4180,626b377229c10585ec392f89,626b3ab2983213a57e6d5a70,,,,,,,,,,,,,,,,,,,,,,,a,1,"[""0.154"",""0.428"",""0.622"",""0.969""]","[0,1,1,1]",0,63,63,63,1,0,1,,,1,FALSE,0.8171,,,,,,,,,,,,,,,,,,,,,,,,,,,,,,
,60a80ae7c96c2610a00b4180,001,2022-04-29_02h09.34.112,classification_task,2021.2.3,Win32,60.07810153,60a80ae7c96c2610a00b4180,626b377229c10585ec392f89,626b3ab2983213a57e6d5a70,,,,,,,,,,,,,,,,,,,,,,,,,,,,,,,,,,,,,,,0, ,,0,6.482074311,162.7238,0,2,2,2,1,2,3,,,,,,,,,,,,,,,,,
,60a80ae7c96c2610a00b4180,001,2022-04-29_02h09.34.112,classification_task,2021.2.3,Win32,60.07810153,60a80ae7c96c2610a00b4180,626b377229c10585ec392f89,626b3ab2983213a57e6d5a70,,,,,,,,,,,,,,,,,,,,,,,,,,,,,,,,,,,,,,,1,  ,,0,6.956337638,163.3189,0,2,2,2,1,2,3,,,,,,,,,,,,,,,,,
,60a80ae7c96c2610a00b4180,001,2022-04-29_02h09.34.112,classification_task,2021.2.3,Win32,60.07810153,60a80ae7c96c2610a00b4180,626b377229c10585ec392f89,626b3ab2983213a57e6d5a70,,,,,,,,,,,,,,,,,,,,,,,,,,,,,,,,,,,,,,,2,  ,,0,6.689566072,163.9991,0,2,2,2,1,2,3,,,,,,,,,,,,,,,,,
,60a80ae7c96c2610a00b4180,001,2022-04-29_02h09.34.112,classification_task,2021.2.3,Win32,60.07810153,60a80ae7c96c2610a00b4180,626b377229c10585ec392f89,626b3ab2983213a57e6d5a70,,,,,,,,,,,,,,,,,,,,,,,,,,,,,,,,,,,,,,,,,,,,,0,2,2,2,1,,3,,,,,,,,,,,,,,,,,
,60a80ae7c96c2610a00b4180,001,2022-04-29_02h09.34.112,classification_task,2021.2.3,Win32,60.07810153,60a80ae7c96c2610a00b4180,626b377229c10585ec392f89,626b3ab2983213a57e6d5a70,,,,,,,,,,,,,,,,,,,,,,,,,,,,,,,,,,,,,,,,,,,,,,,,,,,,,I believe the aid is a competent performer,,0.7,0,5,3999.0182,0,0,0,0,1,0,,,,
,60a80ae7c96c2610a00b4180,001,2022-04-29_02h09.34.112,classification_task,2021.2.3,Win32,60.07810153,60a80ae7c96c2610a00b4180,626b377229c10585ec392f89,626b3ab2983213a57e6d5a70,,,,,,,,,,,,,,,,,,,,,,,,,,,,,,,,,,,,,,,,,,,,,,,,,,,,,I trust the aid,,0.7,0,5,3999.7174,0,0,0,0,1,0,,,,
,60a80ae7c96c2610a00b4180,001,2022-04-29_02h09.34.112,classification_task,2021.2.3,Win32,60.07810153,60a80ae7c96c2610a00b4180,626b377229c10585ec392f89,626b3ab2983213a57e6d5a70,,,,,,,,,,,,,,,,,,,,,,,,,,,,,,,,,,,,,,,,,,,,,,,,,,,,,I have confidence in the advice given by the aid,,0.7,0,5,4000.5801,0,0,0,0,1,0,,,,
,60a80ae7c96c2610a00b4180,001,2022-04-29_02h09.34.112,classification_task,2021.2.3,Win32,60.07810153,60a80ae7c96c2610a00b4180,626b377229c10585ec392f89,626b3ab2983213a57e6d5a70,,,,,,,,,,,,,,,,,,,,,,,,,,,,,,,,,,,,,,,,,,,,,,,,,,,,,I can depend on the aid,,0.7,0,5,4001.3052,0,0,0,0,1,0,,,,
,60a80ae7c96c2610a00b4180,001,2022-04-29_02h09.34.112,classification_task,2021.2.3,Win32,60.07810153,60a80ae7c96c2610a00b4180,626b377229c10585ec392f89,626b3ab2983213a57e6d5a70,,,,,,,,,,,,,,,,,,,,,,,,,,,,,,,,,,,,,,,,,,,,,,,,,,,,,I can rely on the aid to behave in consistent ways,,0.7,0,5,4003.0673,0,0,0,0,1,0,,,,
,60a80ae7c96c2610a00b4180,001,2022-04-29_02h09.34.112,classification_task,2021.2.3,Win32,60.07810153,60a80ae7c96c2610a00b4180,626b377229c10585ec392f89,626b3ab2983213a57e6d5a70,,,,,,,,,,,,,,,,,,,,,,,,,,,,,,,,,,,,,,,,,,,,,,,,,,,,,I can rely on the aid to do its best every time I take its advice,,0.7,0,5,4003.5454,0,0,0,0,1,0,,,,
,60a80ae7c96c2610a00b4180,001,2022-04-29_02h09.34.112,classification_task,2021.2.3,Win32,60.07810153,60a80ae7c96c2610a00b4180,626b377229c10585ec392f89,626b3ab2983213a57e6d5a70,,,,,,,,,,,,,,,,,,,,,,,,,,,,,,,,,,,,,,,,,,,,,,,,,,,,,"On trials you completed with assistance from the aid, how frequently did you think the aid was correct?",,0.7,0,80,,0,0,0,0,1,0,,,,
,60a80ae7c96c2610a00b4180,001,2022-04-29_02h09.34.112,classification_task,2021.2.3,Win32,60.07810153,60a80ae7c96c2610a00b4180,626b377229c10585ec392f89,626b3ab2983213a57e6d5a70,,,,,,,,,,,,,,,,,,,,,,,,,,,,,,,,,,,,,,,,,,,,,,,,,,,,,"On trials you completed without the aid, how frequently did you think you were correct?",,0.7,0,50,,0,0,0,0,1,0,,,,
,60a80ae7c96c2610a00b4180,001,2022-04-29_02h09.34.112,classification_task,2021.2.3,Win32,60.07810153,60a80ae7c96c2610a00b4180,626b377229c10585ec392f89,626b3ab2983213a57e6d5a70,,,,,,,,,,,,,,,,,,,,,,,,,,,,,,,,,,,,,,,,,,,,,,,,,,,,,,,,,,,0,0,0,0,1,,,,,
,60a80ae7c96c2610a00b4180,001,2022-04-29_02h09.34.112,classification_task,2021.2.3,Win32,60.07810153,60a80ae7c96c2610a00b4180,626b377229c10585ec392f89,626b3ab2983213a57e6d5a70,,,,,,,,,,,,,,,,,,,,,,,,,,,,,,,,,,,,,,,,,,,,,,,,,,,,,,,,,,,,,,,,,f,3.5363,4021.012,
,60a80ae7c96c2610a00b4180,001,2022-04-29_02h09.34.112,classification_task,2021.2.3,Win32,60.07810153,60a80ae7c96c2610a00b4180,626b377229c10585ec392f89,626b3ab2983213a57e6d5a70,,,,,,,,,,,,,,,,,,,,,,,,,,,,,,,,,,,,,,,,,,,,,,,,,,,,,,,,,,,,,,,,,,,,"Mozilla/5.0 (Windows NT 10.0; Win64; x64) AppleWebKit/537.36 (KHTML, like Gecko) Chrome/100.0.4896.127 Safari/537.36"
