usingWebGL,participant,session,date,expName,psychopyVersion,OS,frameRate,PROLIFIC_PID,STUDY_ID,SESSION_ID,signatures_friend,signatures_foe,band_ranges_top,band_ranges_bottom,formitemText,formtype,formundefined,formitemWidth,formindex,formresponse,formrt,key_resp_2.keys,key_resp_2.rt,tute_resp.keys,tute_resp.rt,tutorial.thisRepN,tutorial.thisTrialN,tutorial.thisN,tutorial.thisIndex,tutorial.ran,key_resp_4.keys,key_resp_4.rt,key_resp.keys,key_resp.corr,key_resp.rt,lines_presented,is_signal_presented,trials.thisRepN,trials.thisTrialN,trials.thisN,trials.thisIndex,trials.ran,vessel,active_band,lines,is_signal,supported_pos,catch_trial,debrief_formindex,debrief_formitemText,debrief_formtype,debrief_formitemWidth,debrief_formresponse,debrief_formrt,phases.thisRepN,phases.thisTrialN,phases.thisN,phases.thisIndex,phases.ran,phases.order,phase,key_resp_3.keys,trustitemText,trusttype,trustitemWidth,trustindex,trustresponse,trustrt,support_status.thisRepN,support_status.thisTrialN,support_status.thisN,support_status.thisIndex,support_status.ran,support_status.order,key_resp_5.keys,key_resp_5.rt,globalClockTime,userAgent
TRUE,60adbd85d31d5039d3638816,001,2022-04-29_13h16.38.343,classification_task,2021.2.3,Win32,60.03121623,60adbd85d31d5039d3638816,626b377229c10585ec392f8a,626b3c5dc80ab878a33c3b10,,,,,,,,,,,,,,,,,,,,,,,,,,,,,,,,,,,,,,,,,,,,,,,,,,,,,,,,,,,,,,,,,,,,
,60adbd85d31d5039d3638816,001,2022-04-29_13h16.38.343,classification_task,2021.2.3,Win32,60.03121623,60adbd85d31d5039d3638816,626b377229c10585ec392f8a,626b3c5dc80ab878a33c3b10,"[[""0.163"",""0.450"",""0.689"",""0.939""],[""0.274"",""0.368"",""0.864"",""0.904""]]","[[""0.052"",""0.238"",""0.638"",""0.806""],[""0.091"",""0.318"",""0.579"",""0.756""]]","[1,10]","[100,1000]",Video game experience,,,0.7,0,,,,,,,,,,,,,,,,,,,,,,,,,,,,,,,,,,,,,,,,,,,,,,,,,,,,,,,,,,,
,60adbd85d31d5039d3638816,001,2022-04-29_13h16.38.343,classification_task,2021.2.3,Win32,60.03121623,60adbd85d31d5039d3638816,626b377229c10585ec392f8a,626b3c5dc80ab878a33c3b10,,,,,Approximately how many hours did you spend playing video games in the last week?,,,0.7,0,0,,,,,,,,,,,,,,,,,,,,,,,,,,,,,,,,,,,,,,,,,,,,,,,,,,,,,,,,,,
,60adbd85d31d5039d3638816,001,2022-04-29_13h16.38.343,classification_task,2021.2.3,Win32,60.03121623,60adbd85d31d5039d3638816,626b377229c10585ec392f8a,626b3c5dc80ab878a33c3b10,,,,,"Which game did you play the most this year? (Enter ""None"" if you didn't play any)",,,0.7,0,None,,,,,,,,,,,,,,,,,,,,,,,,,,,,,,,,,,,,,,,,,,,,,,,,,,,,,,,,,,
,60adbd85d31d5039d3638816,001,2022-04-29_13h16.38.343,classification_task,2021.2.3,Win32,60.03121623,60adbd85d31d5039d3638816,626b377229c10585ec392f8a,626b3c5dc80ab878a33c3b10,,,,,Visual perception,,,0.7,0,,,,,,,,,,,,,,,,,,,,,,,,,,,,,,,,,,,,,,,,,,,,,,,,,,,,,,,,,,,
,60adbd85d31d5039d3638816,001,2022-04-29_13h16.38.343,classification_task,2021.2.3,Win32,60.03121623,60adbd85d31d5039d3638816,626b377229c10585ec392f8a,626b3c5dc80ab878a33c3b10,,,,,Do you have any form of color blindness?,,,0.7,0,No,12.0933,,,,,,,,,,,,,,,,,,,,,,,,,,,,,,,,,,,,,,,,,,,,,,,,,,,,,,,,,
,60adbd85d31d5039d3638816,001,2022-04-29_13h16.38.343,classification_task,2021.2.3,Win32,60.03121623,60adbd85d31d5039d3638816,626b377229c10585ec392f8a,626b3c5dc80ab878a33c3b10,,,,,Do you use software to change the colour temperature of your screen (e.g. f.lux)?,,,0.7,0,No,14.0394,,,,,,,,,,,,,,,,,,,,,,,,,,,,,,,,,,,,,,,,,,,,,,,,,,,,,,,,,
,60adbd85d31d5039d3638816,001,2022-04-29_13h16.38.343,classification_task,2021.2.3,Win32,60.03121623,60adbd85d31d5039d3638816,626b377229c10585ec392f8a,626b3c5dc80ab878a33c3b10,,,,,,,,,,,,space,10.0614,space,7.4325,0,0,0,0,1,,,,,,,,,,,,,,,,,,,,,,,,,,,,,,,,,,,,,,,,,,,,,,,,
,60adbd85d31d5039d3638816,001,2022-04-29_13h16.38.343,classification_task,2021.2.3,Win32,60.03121623,60adbd85d31d5039d3638816,626b377229c10585ec392f8a,626b3c5dc80ab878a33c3b10,,,,,,,,,,,,,,space,3.6329,1,0,1,0,1,,,,,,,,,,,,,,,,,,,,,,,,,,,,,,,,,,,,,,,,,,,,,,,,
,60adbd85d31d5039d3638816,001,2022-04-29_13h16.38.343,classification_task,2021.2.3,Win32,60.03121623,60adbd85d31d5039d3638816,626b377229c10585ec392f8a,626b3c5dc80ab878a33c3b10,,,,,,,,,,,,,,space,13.3165,2,0,2,0,1,,,,,,,,,,,,,,,,,,,,,,,,,,,,,,,,,,,,,,,,,,,,,,,,
,60adbd85d31d5039d3638816,001,2022-04-29_13h16.38.343,classification_task,2021.2.3,Win32,60.03121623,60adbd85d31d5039d3638816,626b377229c10585ec392f8a,626b3c5dc80ab878a33c3b10,,,,,,,,,,,,,,space,2.0519,3,0,3,0,1,,,,,,,,,,,,,,,,,,,,,,,,,,,,,,,,,,,,,,,,,,,,,,,,
,60adbd85d31d5039d3638816,001,2022-04-29_13h16.38.343,classification_task,2021.2.3,Win32,60.03121623,60adbd85d31d5039d3638816,626b377229c10585ec392f8a,626b3c5dc80ab878a33c3b10,,,,,,,,,,,,,,space,2.1358,4,0,4,0,1,,,,,,,,,,,,,,,,,,,,,,,,,,,,,,,,,,,,,,,,,,,,,,,,
,60adbd85d31d5039d3638816,001,2022-04-29_13h16.38.343,classification_task,2021.2.3,Win32,60.03121623,60adbd85d31d5039d3638816,626b377229c10585ec392f8a,626b3c5dc80ab878a33c3b10,,,,,,,,,,,,,,,,,,,,,space,2.5312,a,0,1.145,"[""0.091"",""0.318"",""0.498"",""0.756""]","[1,1,0,1]",0,0,0,0,1,1,1,,,1,FALSE,,,,,,,,,,,,,,,,,,,,,,,,,,,,,,
,60adbd85d31d5039d3638816,001,2022-04-29_13h16.38.343,classification_task,2021.2.3,Win32,60.03121623,60adbd85d31d5039d3638816,626b377229c10585ec392f8a,626b3c5dc80ab878a33c3b10,,,,,,,,,,,,,,,,,,,,,,,l,0,1.1746,"[""0.528"",""0.450"",""0.689"",""0.939""]","[0,1,1,1]",0,1,1,1,1,0,0,,,1,FALSE,,,,,,,,,,,,,,,,,,,,,,,,,,,,,,
,60adbd85d31d5039d3638816,001,2022-04-29_13h16.38.343,classification_task,2021.2.3,Win32,60.03121623,60adbd85d31d5039d3638816,626b377229c10585ec392f8a,626b3c5dc80ab878a33c3b10,,,,,,,,,,,,,,,,,,,,,,,l,1,1.653,"[""0.052"",""0.498"",""0.638"",""0.806""]","[1,0,1,1]",0,2,2,2,1,1,0,,,1,FALSE,,,,,,,,,,,,,,,,,,,,,,,,,,,,,,
,60adbd85d31d5039d3638816,001,2022-04-29_13h16.38.343,classification_task,2021.2.3,Win32,60.03121623,60adbd85d31d5039d3638816,626b377229c10585ec392f8a,626b3c5dc80ab878a33c3b10,,,,,,,,,,,,,,,,,,,,,,,l,0,2.5941,"[""0.502"",""0.368"",""0.864"",""0.904""]","[0,1,1,1]",0,3,3,3,1,0,1,,,1,FALSE,,,,,,,,,,,,,,,,,,,,,,,,,,,,,,
,60adbd85d31d5039d3638816,001,2022-04-29_13h16.38.343,classification_task,2021.2.3,Win32,60.03121623,60adbd85d31d5039d3638816,626b377229c10585ec392f8a,626b3c5dc80ab878a33c3b10,,,,,,,,,,,,,,,,,,,,,,,a,0,0.6789,"[""0.052"",""0.238"",""0.498"",""0.806""]","[1,1,0,1]",0,4,4,4,1,1,0,,,1,FALSE,,,,,,,,,,,,,,,,,,,,,,,,,,,,,,
,60adbd85d31d5039d3638816,001,2022-04-29_13h16.38.343,classification_task,2021.2.3,Win32,60.03121623,60adbd85d31d5039d3638816,626b377229c10585ec392f8a,626b3c5dc80ab878a33c3b10,,,,,,,,,,,,,,,,,,,,,,,l,0,0.612,"[""0.163"",""0.450"",""0.533"",""0.939""]","[1,1,0,1]",0,5,5,5,1,0,0,,,1,FALSE,,,,,,,,,,,,,,,,,,,,,,,,,,,,,,
,60adbd85d31d5039d3638816,001,2022-04-29_13h16.38.343,classification_task,2021.2.3,Win32,60.03121623,60adbd85d31d5039d3638816,626b377229c10585ec392f8a,626b3c5dc80ab878a33c3b10,,,,,,,,,,,,,,,,,,,,,,,a,1,1.1409,"[""0.274"",""0.368"",""0.864"",""0.525""]","[1,1,1,0]",0,6,6,6,1,0,1,,,1,FALSE,,,,,,,,,,,,,,,,,,,,,,,,,,,,,,
,60adbd85d31d5039d3638816,001,2022-04-29_13h16.38.343,classification_task,2021.2.3,Win32,60.03121623,60adbd85d31d5039d3638816,626b377229c10585ec392f8a,626b3c5dc80ab878a33c3b10,,,,,,,,,,,,,,,,,,,,,,,a,1,0.6956,"[""0.274"",""0.526"",""0.864"",""0.904""]","[1,0,1,1]",0,7,7,7,1,0,1,,,1,FALSE,,,,,,,,,,,,,,,,,,,,,,,,,,,,,,
,60adbd85d31d5039d3638816,001,2022-04-29_13h16.38.343,classification_task,2021.2.3,Win32,60.03121623,60adbd85d31d5039d3638816,626b377229c10585ec392f8a,626b3c5dc80ab878a33c3b10,,,,,,,,,,,,,,,,,,,,,,,l,1,0.8129,"[""0.052"",""0.238"",""0.638"",""0.495""]","[1,1,1,0]",0,8,8,8,1,1,0,,,1,FALSE,,,,,,,,,,,,,,,,,,,,,,,,,,,,,,
,60adbd85d31d5039d3638816,001,2022-04-29_13h16.38.343,classification_task,2021.2.3,Win32,60.03121623,60adbd85d31d5039d3638816,626b377229c10585ec392f8a,626b3c5dc80ab878a33c3b10,,,,,,,,,,,,,,,,,,,,,,,a,1,0.7744,"[""0.274"",""0.368"",""0.127"",""0.904""]","[1,1,0,1]",0,9,9,9,1,0,1,,,1,FALSE,,,,,,,,,,,,,,,,,,,,,,,,,,,,,,
,60adbd85d31d5039d3638816,001,2022-04-29_13h16.38.343,classification_task,2021.2.3,Win32,60.03121623,60adbd85d31d5039d3638816,626b377229c10585ec392f8a,626b3c5dc80ab878a33c3b10,,,,,,,,,,,,,,,,,,,,,,,a,0,1.046,"[""0.499"",""0.318"",""0.579"",""0.756""]","[0,1,1,1]",0,10,10,10,1,1,1,,,1,FALSE,,,,,,,,,,,,,,,,,,,,,,,,,,,,,,
,60adbd85d31d5039d3638816,001,2022-04-29_13h16.38.343,classification_task,2021.2.3,Win32,60.03121623,60adbd85d31d5039d3638816,626b377229c10585ec392f8a,626b3c5dc80ab878a33c3b10,,,,,,,,,,,,,,,,,,,,,,,a,0,1.0235,"[""0.091"",""0.517"",""0.579"",""0.756""]","[1,0,1,1]",0,11,11,11,1,1,1,,,1,FALSE,,,,,,,,,,,,,,,,,,,,,,,,,,,,,,
,60adbd85d31d5039d3638816,001,2022-04-29_13h16.38.343,classification_task,2021.2.3,Win32,60.03121623,60adbd85d31d5039d3638816,626b377229c10585ec392f8a,626b3c5dc80ab878a33c3b10,,,,,,,,,,,,,,,,,,,,,,,l,1,0.878,"[""0.127"",""0.238"",""0.638"",""0.806""]","[0,1,1,1]",0,12,12,12,1,1,0,,,1,FALSE,,,,,,,,,,,,,,,,,,,,,,,,,,,,,,
,60adbd85d31d5039d3638816,001,2022-04-29_13h16.38.343,classification_task,2021.2.3,Win32,60.03121623,60adbd85d31d5039d3638816,626b377229c10585ec392f8a,626b3c5dc80ab878a33c3b10,,,,,,,,,,,,,,,,,,,,,,,l,0,0.6963,"[""0.163"",""0.520"",""0.689"",""0.939""]","[1,0,1,1]",0,13,13,13,1,0,0,,,1,FALSE,,,,,,,,,,,,,,,,,,,,,,,,,,,,,,
,60adbd85d31d5039d3638816,001,2022-04-29_13h16.38.343,classification_task,2021.2.3,Win32,60.03121623,60adbd85d31d5039d3638816,626b377229c10585ec392f8a,626b3c5dc80ab878a33c3b10,,,,,,,,,,,,,,,,,,,,,,,a,1,0.5333,"[""0.163"",""0.450"",""0.689"",""0.499""]","[1,1,1,0]",0,14,14,14,1,0,0,,,1,FALSE,,,,,,,,,,,,,,,,,,,,,,,,,,,,,,
,60adbd85d31d5039d3638816,001,2022-04-29_13h16.38.343,classification_task,2021.2.3,Win32,60.03121623,60adbd85d31d5039d3638816,626b377229c10585ec392f8a,626b3c5dc80ab878a33c3b10,,,,,,,,,,,,,,,,,,,,,,,a,0,0.7252,"[""0.091"",""0.318"",""0.579"",""0.525""]","[1,1,1,0]",0,15,15,15,1,1,1,,,1,FALSE,,,,,,,,,,,,,,,,,,,,,,,,,,,,,,
,60adbd85d31d5039d3638816,001,2022-04-29_13h16.38.343,classification_task,2021.2.3,Win32,60.03121623,60adbd85d31d5039d3638816,626b377229c10585ec392f8a,626b3c5dc80ab878a33c3b10,,,,,,,,,,,,,,,,,,,,,,,l,1,0.2573,"[""0.091"",""0.533"",""0.579"",""0.756""]","[1,0,1,1]",0,16,16,16,1,1,1,,,1,FALSE,,,,,,,,,,,,,,,,,,,,,,,,,,,,,,
,60adbd85d31d5039d3638816,001,2022-04-29_13h16.38.343,classification_task,2021.2.3,Win32,60.03121623,60adbd85d31d5039d3638816,626b377229c10585ec392f8a,626b3c5dc80ab878a33c3b10,,,,,,,,,,,,,,,,,,,,,,,l,1,0.5337,"[""0.532"",""0.238"",""0.638"",""0.806""]","[0,1,1,1]",0,17,17,17,1,1,0,,,1,FALSE,,,,,,,,,,,,,,,,,,,,,,,,,,,,,,
,60adbd85d31d5039d3638816,001,2022-04-29_13h16.38.343,classification_task,2021.2.3,Win32,60.03121623,60adbd85d31d5039d3638816,626b377229c10585ec392f8a,626b3c5dc80ab878a33c3b10,,,,,,,,,,,,,,,,,,,,,,,l,1,0.6285,"[""0.052"",""0.238"",""0.638"",""0.487""]","[1,1,1,0]",0,18,18,18,1,1,0,,,1,FALSE,,,,,,,,,,,,,,,,,,,,,,,,,,,,,,
,60adbd85d31d5039d3638816,001,2022-04-29_13h16.38.343,classification_task,2021.2.3,Win32,60.03121623,60adbd85d31d5039d3638816,626b377229c10585ec392f8a,626b3c5dc80ab878a33c3b10,,,,,,,,,,,,,,,,,,,,,,,l,1,0.7456,"[""0.052"",""0.525"",""0.638"",""0.806""]","[1,0,1,1]",0,19,19,19,1,1,0,,,1,FALSE,,,,,,,,,,,,,,,,,,,,,,,,,,,,,,
,60adbd85d31d5039d3638816,001,2022-04-29_13h16.38.343,classification_task,2021.2.3,Win32,60.03121623,60adbd85d31d5039d3638816,626b377229c10585ec392f8a,626b3c5dc80ab878a33c3b10,,,,,,,,,,,,,,,,,,,,,,,l,0,0.6327,"[""0.163"",""0.532"",""0.689"",""0.939""]","[1,0,1,1]",0,20,20,20,1,0,0,,,1,FALSE,,,,,,,,,,,,,,,,,,,,,,,,,,,,,,
,60adbd85d31d5039d3638816,001,2022-04-29_13h16.38.343,classification_task,2021.2.3,Win32,60.03121623,60adbd85d31d5039d3638816,626b377229c10585ec392f8a,626b3c5dc80ab878a33c3b10,,,,,,,,,,,,,,,,,,,,,,,a,0,3.1998,"[""0.091"",""0.318"",""0.579"",""0.533""]","[1,1,1,0]",0,21,21,21,1,1,1,,,1,FALSE,,,,,,,,,,,,,,,,,,,,,,,,,,,,,,
,60adbd85d31d5039d3638816,001,2022-04-29_13h16.38.343,classification_task,2021.2.3,Win32,60.03121623,60adbd85d31d5039d3638816,626b377229c10585ec392f8a,626b3c5dc80ab878a33c3b10,,,,,,,,,,,,,,,,,,,,,,,l,0,1.4685,"[""0.274"",""0.368"",""0.864"",""0.127""]","[1,1,1,0]",0,22,22,22,1,0,1,,,1,FALSE,,,,,,,,,,,,,,,,,,,,,,,,,,,,,,
,60adbd85d31d5039d3638816,001,2022-04-29_13h16.38.343,classification_task,2021.2.3,Win32,60.03121623,60adbd85d31d5039d3638816,626b377229c10585ec392f8a,626b3c5dc80ab878a33c3b10,,,,,,,,,,,,,,,,,,,,,,,l,0,0.8496,"[""0.517"",""0.450"",""0.689"",""0.939""]","[0,1,1,1]",0,23,23,23,1,0,0,,,1,FALSE,,,,,,,,,,,,,,,,,,,,,,,,,,,,,,
,60adbd85d31d5039d3638816,001,2022-04-29_13h16.38.343,classification_task,2021.2.3,Win32,60.03121623,60adbd85d31d5039d3638816,626b377229c10585ec392f8a,626b3c5dc80ab878a33c3b10,,,,,,,,,,,,,,,,,,,,,,,a,1,0.002,"[""0.163"",""0.450"",""0.127"",""0.939""]","[1,1,0,1]",0,24,24,24,1,0,0,,,1,FALSE,,,,,,,,,,,,,,,,,,,,,,,,,,,,,,
,60adbd85d31d5039d3638816,001,2022-04-29_13h16.38.343,classification_task,2021.2.3,Win32,60.03121623,60adbd85d31d5039d3638816,626b377229c10585ec392f8a,626b3c5dc80ab878a33c3b10,,,,,,,,,,,,,,,,,,,,,,,a,0,0.5263,"[""0.091"",""0.318"",""0.127"",""0.756""]","[1,1,0,1]",0,25,25,25,1,1,1,,,1,FALSE,,,,,,,,,,,,,,,,,,,,,,,,,,,,,,
,60adbd85d31d5039d3638816,001,2022-04-29_13h16.38.343,classification_task,2021.2.3,Win32,60.03121623,60adbd85d31d5039d3638816,626b377229c10585ec392f8a,626b3c5dc80ab878a33c3b10,,,,,,,,,,,,,,,,,,,,,,,l,0,0.3955,"[""0.274"",""0.520"",""0.864"",""0.904""]","[1,0,1,1]",0,26,26,26,1,0,1,,,1,FALSE,,,,,,,,,,,,,,,,,,,,,,,,,,,,,,
,60adbd85d31d5039d3638816,001,2022-04-29_13h16.38.343,classification_task,2021.2.3,Win32,60.03121623,60adbd85d31d5039d3638816,626b377229c10585ec392f8a,626b3c5dc80ab878a33c3b10,,,,,,,,,,,,,,,,,,,,,,,a,1,0.5837,"[""0.274"",""0.368"",""0.499"",""0.904""]","[1,1,0,1]",0,27,27,27,1,0,1,,,1,FALSE,,,,,,,,,,,,,,,,,,,,,,,,,,,,,,
,60adbd85d31d5039d3638816,001,2022-04-29_13h16.38.343,classification_task,2021.2.3,Win32,60.03121623,60adbd85d31d5039d3638816,626b377229c10585ec392f8a,626b3c5dc80ab878a33c3b10,,,,,,,,,,,,,,,,,,,,,,,a,0,0.6635,"[""0.520"",""0.318"",""0.579"",""0.756""]","[0,1,1,1]",0,28,28,28,1,1,1,,,1,FALSE,,,,,,,,,,,,,,,,,,,,,,,,,,,,,,
,60adbd85d31d5039d3638816,001,2022-04-29_13h16.38.343,classification_task,2021.2.3,Win32,60.03121623,60adbd85d31d5039d3638816,626b377229c10585ec392f8a,626b3c5dc80ab878a33c3b10,,,,,,,,,,,,,,,,,,,,,,,,0,,"[""0.163"",""0.450"",""0.689"",""0.515""]","[1,1,1,0]",0,29,29,29,1,0,0,,,1,FALSE,,,,,,,,,,,,,,,,,,,,,,,,,,,,,,
,60adbd85d31d5039d3638816,001,2022-04-29_13h16.38.343,classification_task,2021.2.3,Win32,60.03121623,60adbd85d31d5039d3638816,626b377229c10585ec392f8a,626b3c5dc80ab878a33c3b10,,,,,,,,,,,,,,,,,,,,,,,,0,,"[""0.127"",""0.368"",""0.864"",""0.904""]","[0,1,1,1]",0,30,30,30,1,0,1,,,1,FALSE,,,,,,,,,,,,,,,,,,,,,,,,,,,,,,
,60adbd85d31d5039d3638816,001,2022-04-29_13h16.38.343,classification_task,2021.2.3,Win32,60.03121623,60adbd85d31d5039d3638816,626b377229c10585ec392f8a,626b3c5dc80ab878a33c3b10,,,,,,,,,,,,,,,,,,,,,,,a,0,1.5261,"[""0.052"",""0.238"",""0.487"",""0.806""]","[1,1,0,1]",0,31,31,31,1,1,0,,,1,FALSE,,,,,,,,,,,,,,,,,,,,,,,,,,,,,,
,60adbd85d31d5039d3638816,001,2022-04-29_13h16.38.343,classification_task,2021.2.3,Win32,60.03121623,60adbd85d31d5039d3638816,626b377229c10585ec392f8a,626b3c5dc80ab878a33c3b10,,,,,,,,,,,,,,,,,,,,,,,,0,,"[""0.163"",""0.450"",""0.689"",""0.502""]","[1,1,1,0]",0,32,32,32,1,0,0,,,1,FALSE,,,,,,,,,,,,,,,,,,,,,,,,,,,,,,
,60adbd85d31d5039d3638816,001,2022-04-29_13h16.38.343,classification_task,2021.2.3,Win32,60.03121623,60adbd85d31d5039d3638816,626b377229c10585ec392f8a,626b3c5dc80ab878a33c3b10,,,,,,,,,,,,,,,,,,,,,,,a,0,0.4842,"[""0.052"",""0.238"",""0.638"",""0.528""]","[1,1,1,0]",0,33,33,33,1,1,0,,,1,FALSE,,,,,,,,,,,,,,,,,,,,,,,,,,,,,,
,60adbd85d31d5039d3638816,001,2022-04-29_13h16.38.343,classification_task,2021.2.3,Win32,60.03121623,60adbd85d31d5039d3638816,626b377229c10585ec392f8a,626b3c5dc80ab878a33c3b10,,,,,,,,,,,,,,,,,,,,,,,a,0,0.5314,"[""0.052"",""0.486"",""0.638"",""0.806""]","[1,0,1,1]",0,34,34,34,1,1,0,,,1,FALSE,,,,,,,,,,,,,,,,,,,,,,,,,,,,,,
,60adbd85d31d5039d3638816,001,2022-04-29_13h16.38.343,classification_task,2021.2.3,Win32,60.03121623,60adbd85d31d5039d3638816,626b377229c10585ec392f8a,626b3c5dc80ab878a33c3b10,,,,,,,,,,,,,,,,,,,,,,,,0,,"[""0.091"",""0.318"",""0.487"",""0.756""]","[1,1,0,1]",0,35,35,35,1,1,1,,,1,FALSE,,,,,,,,,,,,,,,,,,,,,,,,,,,,,,
,60adbd85d31d5039d3638816,001,2022-04-29_13h16.38.343,classification_task,2021.2.3,Win32,60.03121623,60adbd85d31d5039d3638816,626b377229c10585ec392f8a,626b3c5dc80ab878a33c3b10,,,,,,,,,,,,,,,,,,,,,,,a,0,0.3349,"[""0.528"",""0.238"",""0.638"",""0.806""]","[0,1,1,1]",0,36,36,36,1,1,0,,,1,FALSE,,,,,,,,,,,,,,,,,,,,,,,,,,,,,,
,60adbd85d31d5039d3638816,001,2022-04-29_13h16.38.343,classification_task,2021.2.3,Win32,60.03121623,60adbd85d31d5039d3638816,626b377229c10585ec392f8a,626b3c5dc80ab878a33c3b10,,,,,,,,,,,,,,,,,,,,,,,l,0,1.0385,"[""0.274"",""0.368"",""0.525"",""0.904""]","[1,1,0,1]",0,37,37,37,1,0,1,,,1,FALSE,,,,,,,,,,,,,,,,,,,,,,,,,,,,,,
,60adbd85d31d5039d3638816,001,2022-04-29_13h16.38.343,classification_task,2021.2.3,Win32,60.03121623,60adbd85d31d5039d3638816,626b377229c10585ec392f8a,626b3c5dc80ab878a33c3b10,,,,,,,,,,,,,,,,,,,,,,,a,1,0.2829,"[""0.163"",""0.450"",""0.486"",""0.939""]","[1,1,0,1]",0,38,38,38,1,0,0,,,1,FALSE,,,,,,,,,,,,,,,,,,,,,,,,,,,,,,
,60adbd85d31d5039d3638816,001,2022-04-29_13h16.38.343,classification_task,2021.2.3,Win32,60.03121623,60adbd85d31d5039d3638816,626b377229c10585ec392f8a,626b3c5dc80ab878a33c3b10,,,,,,,,,,,,,,,,,,,,,,,a,0,0.3587,"[""0.052"",""0.238"",""0.517"",""0.806""]","[1,1,0,1]",0,39,39,39,1,1,0,,,1,FALSE,,,,,,,,,,,,,,,,,,,,,,,,,,,,,,
,60adbd85d31d5039d3638816,001,2022-04-29_13h16.38.343,classification_task,2021.2.3,Win32,60.03121623,60adbd85d31d5039d3638816,626b377229c10585ec392f8a,626b3c5dc80ab878a33c3b10,,,,,,,,,,,,,,,,,,,,,,,l,0,0.65,"[""0.274"",""0.515"",""0.864"",""0.904""]","[1,0,1,1]",0,40,40,40,1,0,1,,,1,FALSE,,,,,,,,,,,,,,,,,,,,,,,,,,,,,,
,60adbd85d31d5039d3638816,001,2022-04-29_13h16.38.343,classification_task,2021.2.3,Win32,60.03121623,60adbd85d31d5039d3638816,626b377229c10585ec392f8a,626b3c5dc80ab878a33c3b10,,,,,,,,,,,,,,,,,,,,,,,l,0,0.352,"[""0.163"",""0.487"",""0.689"",""0.939""]","[1,0,1,1]",0,41,41,41,1,0,0,,,1,FALSE,,,,,,,,,,,,,,,,,,,,,,,,,,,,,,
,60adbd85d31d5039d3638816,001,2022-04-29_13h16.38.343,classification_task,2021.2.3,Win32,60.03121623,60adbd85d31d5039d3638816,626b377229c10585ec392f8a,626b3c5dc80ab878a33c3b10,,,,,,,,,,,,,,,,,,,,,,,a,1,0.5147,"[""0.526"",""0.368"",""0.864"",""0.904""]","[0,1,1,1]",0,42,42,42,1,0,1,,,1,FALSE,,,,,,,,,,,,,,,,,,,,,,,,,,,,,,
,60adbd85d31d5039d3638816,001,2022-04-29_13h16.38.343,classification_task,2021.2.3,Win32,60.03121623,60adbd85d31d5039d3638816,626b377229c10585ec392f8a,626b3c5dc80ab878a33c3b10,,,,,,,,,,,,,,,,,,,,,,,a,1,0.4668,"[""0.274"",""0.368"",""0.864"",""0.127""]","[1,1,1,0]",0,43,43,43,1,0,1,,,1,FALSE,,,,,,,,,,,,,,,,,,,,,,,,,,,,,,
,60adbd85d31d5039d3638816,001,2022-04-29_13h16.38.343,classification_task,2021.2.3,Win32,60.03121623,60adbd85d31d5039d3638816,626b377229c10585ec392f8a,626b3c5dc80ab878a33c3b10,,,,,,,,,,,,,,,,,,,,,,,a,0,0.5153,"[""0.091"",""0.318"",""0.579"",""0.532""]","[1,1,1,0]",0,44,44,44,1,1,1,,,1,FALSE,,,,,,,,,,,,,,,,,,,,,,,,,,,,,,
,60adbd85d31d5039d3638816,001,2022-04-29_13h16.38.343,classification_task,2021.2.3,Win32,60.03121623,60adbd85d31d5039d3638816,626b377229c10585ec392f8a,626b3c5dc80ab878a33c3b10,,,,,,,,,,,,,,,,,,,,,,,l,0,0.9657,"[""0.486"",""0.450"",""0.689"",""0.939""]","[0,1,1,1]",0,45,45,45,1,0,0,,,1,FALSE,,,,,,,,,,,,,,,,,,,,,,,,,,,,,,
,60adbd85d31d5039d3638816,001,2022-04-29_13h16.38.343,classification_task,2021.2.3,Win32,60.03121623,60adbd85d31d5039d3638816,626b377229c10585ec392f8a,626b3c5dc80ab878a33c3b10,,,,,,,,,,,,,,,,,,,,,,,a,0,0.3315,"[""0.091"",""0.515"",""0.579"",""0.756""]","[1,0,1,1]",0,46,46,46,1,1,1,,,1,FALSE,,,,,,,,,,,,,,,,,,,,,,,,,,,,,,
,60adbd85d31d5039d3638816,001,2022-04-29_13h16.38.343,classification_task,2021.2.3,Win32,60.03121623,60adbd85d31d5039d3638816,626b377229c10585ec392f8a,626b3c5dc80ab878a33c3b10,,,,,,,,,,,,,,,,,,,,,,,l,1,0.3307,"[""0.486"",""0.318"",""0.579"",""0.756""]","[0,1,1,1]",0,47,47,47,1,1,1,,,1,FALSE,,,,,,,,,,,,,,,,,,,,,,,,,,,,,,
,60adbd85d31d5039d3638816,001,2022-04-29_13h16.38.343,classification_task,2021.2.3,Win32,60.03121623,60adbd85d31d5039d3638816,626b377229c10585ec392f8a,626b3c5dc80ab878a33c3b10,,,,,,,,,,,,,,,,,,,,,,,a,1,0.7957,"[""0.163"",""0.450"",""0.689"",""0.499""]","[1,1,1,0]",0,48,48,48,1,0,0,,,1,FALSE,,,,,,,,,,,,,,,,,,,,,,,,,,,,,,
,60adbd85d31d5039d3638816,001,2022-04-29_13h16.38.343,classification_task,2021.2.3,Win32,60.03121623,60adbd85d31d5039d3638816,626b377229c10585ec392f8a,626b3c5dc80ab878a33c3b10,,,,,,,,,,,,,,,,,,,,,,,a,0,0.7688,"[""0.091"",""0.528"",""0.579"",""0.756""]","[1,0,1,1]",0,49,49,49,1,1,1,,,1,FALSE,,,,,,,,,,,,,,,,,,,,,,,,,,,,,,
,60adbd85d31d5039d3638816,001,2022-04-29_13h16.38.343,classification_task,2021.2.3,Win32,60.03121623,60adbd85d31d5039d3638816,626b377229c10585ec392f8a,626b3c5dc80ab878a33c3b10,,,,,,,,,,,,,,,,,,,,,,,l,1,0.329,"[""0.052"",""0.525"",""0.638"",""0.806""]","[1,0,1,1]",0,50,50,50,1,1,0,,,1,FALSE,,,,,,,,,,,,,,,,,,,,,,,,,,,,,,
,60adbd85d31d5039d3638816,001,2022-04-29_13h16.38.343,classification_task,2021.2.3,Win32,60.03121623,60adbd85d31d5039d3638816,626b377229c10585ec392f8a,626b3c5dc80ab878a33c3b10,,,,,,,,,,,,,,,,,,,,,,,l,1,0.5312,"[""0.052"",""0.238"",""0.638"",""0.526""]","[1,1,1,0]",0,51,51,51,1,1,0,,,1,FALSE,,,,,,,,,,,,,,,,,,,,,,,,,,,,,,
,60adbd85d31d5039d3638816,001,2022-04-29_13h16.38.343,classification_task,2021.2.3,Win32,60.03121623,60adbd85d31d5039d3638816,626b377229c10585ec392f8a,626b3c5dc80ab878a33c3b10,,,,,,,,,,,,,,,,,,,,,,,l,0,0.48,"[""0.163"",""0.450"",""0.525"",""0.939""]","[1,1,0,1]",0,52,52,52,1,0,0,,,1,FALSE,,,,,,,,,,,,,,,,,,,,,,,,,,,,,,
,60adbd85d31d5039d3638816,001,2022-04-29_13h16.38.343,classification_task,2021.2.3,Win32,60.03121623,60adbd85d31d5039d3638816,626b377229c10585ec392f8a,626b3c5dc80ab878a33c3b10,,,,,,,,,,,,,,,,,,,,,,,a,1,0.4777,"[""0.274"",""0.368"",""0.864"",""0.533""]","[1,1,1,0]",0,53,53,53,1,0,1,,,1,FALSE,,,,,,,,,,,,,,,,,,,,,,,,,,,,,,
,60adbd85d31d5039d3638816,001,2022-04-29_13h16.38.343,classification_task,2021.2.3,Win32,60.03121623,60adbd85d31d5039d3638816,626b377229c10585ec392f8a,626b3c5dc80ab878a33c3b10,,,,,,,,,,,,,,,,,,,,,,,l,0,0.464,"[""0.495"",""0.450"",""0.689"",""0.939""]","[0,1,1,1]",0,54,54,54,1,0,0,,,1,FALSE,,,,,,,,,,,,,,,,,,,,,,,,,,,,,,
,60adbd85d31d5039d3638816,001,2022-04-29_13h16.38.343,classification_task,2021.2.3,Win32,60.03121623,60adbd85d31d5039d3638816,626b377229c10585ec392f8a,626b3c5dc80ab878a33c3b10,,,,,,,,,,,,,,,,,,,,,,,a,1,0.5462,"[""0.274"",""0.495"",""0.864"",""0.904""]","[1,0,1,1]",0,55,55,55,1,0,1,,,1,FALSE,,,,,,,,,,,,,,,,,,,,,,,,,,,,,,
,60adbd85d31d5039d3638816,001,2022-04-29_13h16.38.343,classification_task,2021.2.3,Win32,60.03121623,60adbd85d31d5039d3638816,626b377229c10585ec392f8a,626b3c5dc80ab878a33c3b10,,,,,,,,,,,,,,,,,,,,,,,l,1,0.4514,"[""0.052"",""0.238"",""0.528"",""0.806""]","[1,1,0,1]",0,56,56,56,1,1,0,,,1,FALSE,,,,,,,,,,,,,,,,,,,,,,,,,,,,,,
,60adbd85d31d5039d3638816,001,2022-04-29_13h16.38.343,classification_task,2021.2.3,Win32,60.03121623,60adbd85d31d5039d3638816,626b377229c10585ec392f8a,626b3c5dc80ab878a33c3b10,,,,,,,,,,,,,,,,,,,,,,,a,1,0.4951,"[""0.127"",""0.368"",""0.864"",""0.904""]","[0,1,1,1]",0,57,57,57,1,0,1,,,1,FALSE,,,,,,,,,,,,,,,,,,,,,,,,,,,,,,
,60adbd85d31d5039d3638816,001,2022-04-29_13h16.38.343,classification_task,2021.2.3,Win32,60.03121623,60adbd85d31d5039d3638816,626b377229c10585ec392f8a,626b3c5dc80ab878a33c3b10,,,,,,,,,,,,,,,,,,,,,,,a,0,1.2622,"[""0.486"",""0.318"",""0.579"",""0.756""]","[0,1,1,1]",0,58,58,58,1,1,1,,,1,FALSE,,,,,,,,,,,,,,,,,,,,,,,,,,,,,,
,60adbd85d31d5039d3638816,001,2022-04-29_13h16.38.343,classification_task,2021.2.3,Win32,60.03121623,60adbd85d31d5039d3638816,626b377229c10585ec392f8a,626b3c5dc80ab878a33c3b10,,,,,,,,,,,,,,,,,,,,,,,l,0,0.8952,"[""0.163"",""0.127"",""0.689"",""0.939""]","[1,0,1,1]",0,59,59,59,1,0,0,,,1,FALSE,,,,,,,,,,,,,,,,,,,,,,,,,,,,,,
,60adbd85d31d5039d3638816,001,2022-04-29_13h16.38.343,classification_task,2021.2.3,Win32,60.03121623,60adbd85d31d5039d3638816,626b377229c10585ec392f8a,626b3c5dc80ab878a33c3b10,,,,,,,,,,,,,,,,,,,,,,,a,0,0.3783,"[""0.091"",""0.318"",""0.515"",""0.756""]","[1,1,0,1]",0,60,60,60,1,1,1,,,1,FALSE,,,,,,,,,,,,,,,,,,,,,,,,,,,,,,
,60adbd85d31d5039d3638816,001,2022-04-29_13h16.38.343,classification_task,2021.2.3,Win32,60.03121623,60adbd85d31d5039d3638816,626b377229c10585ec392f8a,626b3c5dc80ab878a33c3b10,,,,,,,,,,,,,,,,,,,,,,,l,0,0.2968,"[""0.274"",""0.368"",""0.525"",""0.904""]","[1,1,0,1]",0,61,61,61,1,0,1,,,1,FALSE,,,,,,,,,,,,,,,,,,,,,,,,,,,,,,
,60adbd85d31d5039d3638816,001,2022-04-29_13h16.38.343,classification_task,2021.2.3,Win32,60.03121623,60adbd85d31d5039d3638816,626b377229c10585ec392f8a,626b3c5dc80ab878a33c3b10,,,,,,,,,,,,,,,,,,,,,,,l,1,1.1146,"[""0.526"",""0.238"",""0.638"",""0.806""]","[0,1,1,1]",0,62,62,62,1,1,0,,,1,FALSE,,,,,,,,,,,,,,,,,,,,,,,,,,,,,,
,60adbd85d31d5039d3638816,001,2022-04-29_13h16.38.343,classification_task,2021.2.3,Win32,60.03121623,60adbd85d31d5039d3638816,626b377229c10585ec392f8a,626b3c5dc80ab878a33c3b10,,,,,,,,,,,,,,,,,,,,,,,a,0,0.383,"[""0.091"",""0.318"",""0.579"",""0.532""]","[1,1,1,0]",0,63,63,63,1,1,1,,,1,FALSE,,,,,,,,,,,,,,,,,,,,,,,,,,,,,,
,60adbd85d31d5039d3638816,001,2022-04-29_13h16.38.343,classification_task,2021.2.3,Win32,60.03121623,60adbd85d31d5039d3638816,626b377229c10585ec392f8a,626b3c5dc80ab878a33c3b10,,,,,,,,,,,,,,,,,,,,,,,,,,,,,,,,,,,,,,,0, ,,0,6.47427392,226.6128,0,0,0,0,1,2,1,,,,,,,,,,,,,,,,,
,60adbd85d31d5039d3638816,001,2022-04-29_13h16.38.343,classification_task,2021.2.3,Win32,60.03121623,60adbd85d31d5039d3638816,626b377229c10585ec392f8a,626b3c5dc80ab878a33c3b10,,,,,,,,,,,,,,,,,,,,,,,,,,,,,,,,,,,,,,,1,  ,,0,5.546027378,230.0675,0,0,0,0,1,2,1,,,,,,,,,,,,,,,,,
,60adbd85d31d5039d3638816,001,2022-04-29_13h16.38.343,classification_task,2021.2.3,Win32,60.03121623,60adbd85d31d5039d3638816,626b377229c10585ec392f8a,626b3c5dc80ab878a33c3b10,,,,,,,,,,,,,,,,,,,,,,,,,,,,,,,,,,,,,,,2,  ,,0,6.064753387,232.3999,0,0,0,0,1,2,1,,,,,,,,,,,,,,,,,
,60adbd85d31d5039d3638816,001,2022-04-29_13h16.38.343,classification_task,2021.2.3,Win32,60.03121623,60adbd85d31d5039d3638816,626b377229c10585ec392f8a,626b3c5dc80ab878a33c3b10,,,,,,,,,,,,,,,,,,,,,,,,,,,,,,,,,,,,,,,,,,,,,0,0,0,0,1,,1,,,,,,,,,,,,,,,,,
,60adbd85d31d5039d3638816,001,2022-04-29_13h16.38.343,classification_task,2021.2.3,Win32,60.03121623,60adbd85d31d5039d3638816,626b377229c10585ec392f8a,626b3c5dc80ab878a33c3b10,,,,,,,,,,,,,,,,,,,,,space,1.6828,a,1,1.6937,"[""0.528"",""0.450"",""0.689"",""0.939""]","[0,1,1,1]",0,0,0,0,1,0,0,,,1,FALSE,,,,,,,,,,,,,,,,,,,,,,,,,,,,,,
,60adbd85d31d5039d3638816,001,2022-04-29_13h16.38.343,classification_task,2021.2.3,Win32,60.03121623,60adbd85d31d5039d3638816,626b377229c10585ec392f8a,626b3c5dc80ab878a33c3b10,,,,,,,,,,,,,,,,,,,,,,,l,0,0.5172,"[""0.274"",""0.368"",""0.520"",""0.904""]","[1,1,0,1]",0,1,1,1,1,0,1,,,1,FALSE,,,,,,,,,,,,,,,,,,,,,,,,,,,,,,
,60adbd85d31d5039d3638816,001,2022-04-29_13h16.38.343,classification_task,2021.2.3,Win32,60.03121623,60adbd85d31d5039d3638816,626b377229c10585ec392f8a,626b3c5dc80ab878a33c3b10,,,,,,,,,,,,,,,,,,,,,,,a,1,0.3415,"[""0.274"",""0.127"",""0.864"",""0.904""]","[1,0,1,1]",0,2,2,2,1,0,1,,,1,FALSE,,,,,,,,,,,,,,,,,,,,,,,,,,,,,,
,60adbd85d31d5039d3638816,001,2022-04-29_13h16.38.343,classification_task,2021.2.3,Win32,60.03121623,60adbd85d31d5039d3638816,626b377229c10585ec392f8a,626b3c5dc80ab878a33c3b10,,,,,,,,,,,,,,,,,,,,,,,l,0,0.611,"[""0.163"",""0.495"",""0.689"",""0.939""]","[1,0,1,1]",0,3,3,3,1,0,0,,,1,FALSE,,,,,,,,,,,,,,,,,,,,,,,,,,,,,,
,60adbd85d31d5039d3638816,001,2022-04-29_13h16.38.343,classification_task,2021.2.3,Win32,60.03121623,60adbd85d31d5039d3638816,626b377229c10585ec392f8a,626b3c5dc80ab878a33c3b10,,,,,,,,,,,,,,,,,,,,,,,l,1,0.6652,"[""0.091"",""0.127"",""0.579"",""0.756""]","[1,0,1,1]",0,4,4,4,1,1,1,,,1,FALSE,,,,,,,,,,,,,,,,,,,,,,,,,,,,,,
,60adbd85d31d5039d3638816,001,2022-04-29_13h16.38.343,classification_task,2021.2.3,Win32,60.03121623,60adbd85d31d5039d3638816,626b377229c10585ec392f8a,626b3c5dc80ab878a33c3b10,,,,,,,,,,,,,,,,,,,,,,,a,0,0.7664,"[""0.526"",""0.238"",""0.638"",""0.806""]","[0,1,1,1]",0,5,5,5,1,1,0,,,1,FALSE,,,,,,,,,,,,,,,,,,,,,,,,,,,,,,
,60adbd85d31d5039d3638816,001,2022-04-29_13h16.38.343,classification_task,2021.2.3,Win32,60.03121623,60adbd85d31d5039d3638816,626b377229c10585ec392f8a,626b3c5dc80ab878a33c3b10,,,,,,,,,,,,,,,,,,,,,,,l,1,0.3282,"[""0.052"",""0.238"",""0.498"",""0.806""]","[1,1,0,1]",0,6,6,6,1,1,0,,,1,FALSE,,,,,,,,,,,,,,,,,,,,,,,,,,,,,,
,60adbd85d31d5039d3638816,001,2022-04-29_13h16.38.343,classification_task,2021.2.3,Win32,60.03121623,60adbd85d31d5039d3638816,626b377229c10585ec392f8a,626b3c5dc80ab878a33c3b10,,,,,,,,,,,,,,,,,,,,,,,a,1,0.4782,"[""0.163"",""0.450"",""0.689"",""0.533""]","[1,1,1,0]",0,7,7,7,1,0,0,,,1,FALSE,,,,,,,,,,,,,,,,,,,,,,,,,,,,,,
,60adbd85d31d5039d3638816,001,2022-04-29_13h16.38.343,classification_task,2021.2.3,Win32,60.03121623,60adbd85d31d5039d3638816,626b377229c10585ec392f8a,626b3c5dc80ab878a33c3b10,,,,,,,,,,,,,,,,,,,,,,,l,1,0.4784,"[""0.091"",""0.318"",""0.495"",""0.756""]","[1,1,0,1]",0,8,8,8,1,1,1,,,1,FALSE,,,,,,,,,,,,,,,,,,,,,,,,,,,,,,
,60adbd85d31d5039d3638816,001,2022-04-29_13h16.38.343,classification_task,2021.2.3,Win32,60.03121623,60adbd85d31d5039d3638816,626b377229c10585ec392f8a,626b3c5dc80ab878a33c3b10,,,,,,,,,,,,,,,,,,,,,,,a,1,0.3957,"[""0.163"",""0.450"",""0.127"",""0.939""]","[1,1,0,1]",0,9,9,9,1,0,0,,,1,FALSE,,,,,,,,,,,,,,,,,,,,,,,,,,,,,,
,60adbd85d31d5039d3638816,001,2022-04-29_13h16.38.343,classification_task,2021.2.3,Win32,60.03121623,60adbd85d31d5039d3638816,626b377229c10585ec392f8a,626b3c5dc80ab878a33c3b10,,,,,,,,,,,,,,,,,,,,,,,l,0,0.4471,"[""0.499"",""0.368"",""0.864"",""0.904""]","[0,1,1,1]",0,10,10,10,1,0,1,,,1,FALSE,,,,,,,,,,,,,,,,,,,,,,,,,,,,,,
,60adbd85d31d5039d3638816,001,2022-04-29_13h16.38.343,classification_task,2021.2.3,Win32,60.03121623,60adbd85d31d5039d3638816,626b377229c10585ec392f8a,626b3c5dc80ab878a33c3b10,,,,,,,,,,,,,,,,,,,,,,,a,0,0.3973,"[""0.052"",""0.533"",""0.638"",""0.806""]","[1,0,1,1]",0,11,11,11,1,1,0,,,1,FALSE,,,,,,,,,,,,,,,,,,,,,,,,,,,,,,
,60adbd85d31d5039d3638816,001,2022-04-29_13h16.38.343,classification_task,2021.2.3,Win32,60.03121623,60adbd85d31d5039d3638816,626b377229c10585ec392f8a,626b3c5dc80ab878a33c3b10,,,,,,,,,,,,,,,,,,,,,,,l,1,0.7464,"[""0.091"",""0.318"",""0.579"",""0.495""]","[1,1,1,0]",0,12,12,12,1,1,1,,,1,FALSE,,,,,,,,,,,,,,,,,,,,,,,,,,,,,,
,60adbd85d31d5039d3638816,001,2022-04-29_13h16.38.343,classification_task,2021.2.3,Win32,60.03121623,60adbd85d31d5039d3638816,626b377229c10585ec392f8a,626b3c5dc80ab878a33c3b10,,,,,,,,,,,,,,,,,,,,,,,l,1,0.4623,"[""0.517"",""0.318"",""0.579"",""0.756""]","[0,1,1,1]",0,13,13,13,1,1,1,,,1,FALSE,,,,,,,,,,,,,,,,,,,,,,,,,,,,,,
,60adbd85d31d5039d3638816,001,2022-04-29_13h16.38.343,classification_task,2021.2.3,Win32,60.03121623,60adbd85d31d5039d3638816,626b377229c10585ec392f8a,626b3c5dc80ab878a33c3b10,,,,,,,,,,,,,,,,,,,,,,,l,0,0.5623,"[""0.274"",""0.368"",""0.864"",""0.515""]","[1,1,1,0]",0,14,14,14,1,0,1,,,1,FALSE,,,,,,,,,,,,,,,,,,,,,,,,,,,,,,
,60adbd85d31d5039d3638816,001,2022-04-29_13h16.38.343,classification_task,2021.2.3,Win32,60.03121623,60adbd85d31d5039d3638816,626b377229c10585ec392f8a,626b3c5dc80ab878a33c3b10,,,,,,,,,,,,,,,,,,,,,,,a,0,0.5137,"[""0.052"",""0.238"",""0.638"",""0.517""]","[1,1,1,0]",0,15,15,15,1,1,0,,,1,FALSE,,,,,,,,,,,,,,,,,,,,,,,,,,,,,,
,60adbd85d31d5039d3638816,001,2022-04-29_13h16.38.343,classification_task,2021.2.3,Win32,60.03121623,60adbd85d31d5039d3638816,626b377229c10585ec392f8a,626b3c5dc80ab878a33c3b10,,,,,,,,,,,,,,,,,,,,,,,a,1,0.4802,"[""0.163"",""0.450"",""0.689"",""0.127""]","[1,1,1,0]",0,16,16,16,1,0,0,,,1,FALSE,,,,,,,,,,,,,,,,,,,,,,,,,,,,,,
,60adbd85d31d5039d3638816,001,2022-04-29_13h16.38.343,classification_task,2021.2.3,Win32,60.03121623,60adbd85d31d5039d3638816,626b377229c10585ec392f8a,626b3c5dc80ab878a33c3b10,,,,,,,,,,,,,,,,,,,,,,,l,0,0.4445,"[""0.274"",""0.368"",""0.127"",""0.904""]","[1,1,0,1]",0,17,17,17,1,0,1,,,1,FALSE,,,,,,,,,,,,,,,,,,,,,,,,,,,,,,
,60adbd85d31d5039d3638816,001,2022-04-29_13h16.38.343,classification_task,2021.2.3,Win32,60.03121623,60adbd85d31d5039d3638816,626b377229c10585ec392f8a,626b3c5dc80ab878a33c3b10,,,,,,,,,,,,,,,,,,,,,,,a,0,0.3474,"[""0.052"",""0.238"",""0.502"",""0.806""]","[1,1,0,1]",0,18,18,18,1,1,0,,,1,FALSE,,,,,,,,,,,,,,,,,,,,,,,,,,,,,,
,60adbd85d31d5039d3638816,001,2022-04-29_13h16.38.343,classification_task,2021.2.3,Win32,60.03121623,60adbd85d31d5039d3638816,626b377229c10585ec392f8a,626b3c5dc80ab878a33c3b10,,,,,,,,,,,,,,,,,,,,,,,l,0,0.3269,"[""0.274"",""0.368"",""0.864"",""0.502""]","[1,1,1,0]",0,19,19,19,1,0,1,,,1,FALSE,,,,,,,,,,,,,,,,,,,,,,,,,,,,,,
,60adbd85d31d5039d3638816,001,2022-04-29_13h16.38.343,classification_task,2021.2.3,Win32,60.03121623,60adbd85d31d5039d3638816,626b377229c10585ec392f8a,626b3c5dc80ab878a33c3b10,,,,,,,,,,,,,,,,,,,,,,,a,1,0.3003,"[""0.274"",""0.127"",""0.864"",""0.904""]","[1,0,1,1]",0,20,20,20,1,0,1,,,1,FALSE,,,,,,,,,,,,,,,,,,,,,,,,,,,,,,
,60adbd85d31d5039d3638816,001,2022-04-29_13h16.38.343,classification_task,2021.2.3,Win32,60.03121623,60adbd85d31d5039d3638816,626b377229c10585ec392f8a,626b3c5dc80ab878a33c3b10,,,,,,,,,,,,,,,,,,,,,,,a,0,0.5617,"[""0.486"",""0.318"",""0.579"",""0.756""]","[0,1,1,1]",0,21,21,21,1,1,1,,,1,FALSE,,,,,,,,,,,,,,,,,,,,,,,,,,,,,,
,60adbd85d31d5039d3638816,001,2022-04-29_13h16.38.343,classification_task,2021.2.3,Win32,60.03121623,60adbd85d31d5039d3638816,626b377229c10585ec392f8a,626b3c5dc80ab878a33c3b10,,,,,,,,,,,,,,,,,,,,,,,a,0,0.4612,"[""0.091"",""0.127"",""0.579"",""0.756""]","[1,0,1,1]",0,22,22,22,1,1,1,,,1,FALSE,,,,,,,,,,,,,,,,,,,,,,,,,,,,,,
,60adbd85d31d5039d3638816,001,2022-04-29_13h16.38.343,classification_task,2021.2.3,Win32,60.03121623,60adbd85d31d5039d3638816,626b377229c10585ec392f8a,626b3c5dc80ab878a33c3b10,,,,,,,,,,,,,,,,,,,,,,,l,1,0.7789,"[""0.091"",""0.318"",""0.579"",""0.127""]","[1,1,1,0]",0,23,23,23,1,1,1,,,1,FALSE,,,,,,,,,,,,,,,,,,,,,,,,,,,,,,
,60adbd85d31d5039d3638816,001,2022-04-29_13h16.38.343,classification_task,2021.2.3,Win32,60.03121623,60adbd85d31d5039d3638816,626b377229c10585ec392f8a,626b3c5dc80ab878a33c3b10,,,,,,,,,,,,,,,,,,,,,,,l,1,0.5944,"[""0.091"",""0.318"",""0.517"",""0.756""]","[1,1,0,1]",0,24,24,24,1,1,1,,,1,FALSE,,,,,,,,,,,,,,,,,,,,,,,,,,,,,,
,60adbd85d31d5039d3638816,001,2022-04-29_13h16.38.343,classification_task,2021.2.3,Win32,60.03121623,60adbd85d31d5039d3638816,626b377229c10585ec392f8a,626b3c5dc80ab878a33c3b10,,,,,,,,,,,,,,,,,,,,,,,a,1,0.6148,"[""0.163"",""0.495"",""0.689"",""0.939""]","[1,0,1,1]",0,25,25,25,1,0,0,,,1,FALSE,,,,,,,,,,,,,,,,,,,,,,,,,,,,,,
,60adbd85d31d5039d3638816,001,2022-04-29_13h16.38.343,classification_task,2021.2.3,Win32,60.03121623,60adbd85d31d5039d3638816,626b377229c10585ec392f8a,626b3c5dc80ab878a33c3b10,,,,,,,,,,,,,,,,,,,,,,,l,0,0.3643,"[""0.532"",""0.450"",""0.689"",""0.939""]","[0,1,1,1]",0,26,26,26,1,0,0,,,1,FALSE,,,,,,,,,,,,,,,,,,,,,,,,,,,,,,
,60adbd85d31d5039d3638816,001,2022-04-29_13h16.38.343,classification_task,2021.2.3,Win32,60.03121623,60adbd85d31d5039d3638816,626b377229c10585ec392f8a,626b3c5dc80ab878a33c3b10,,,,,,,,,,,,,,,,,,,,,,,l,0,0.4815,"[""0.163"",""0.450"",""0.520"",""0.939""]","[1,1,0,1]",0,27,27,27,1,0,0,,,1,FALSE,,,,,,,,,,,,,,,,,,,,,,,,,,,,,,
,60adbd85d31d5039d3638816,001,2022-04-29_13h16.38.343,classification_task,2021.2.3,Win32,60.03121623,60adbd85d31d5039d3638816,626b377229c10585ec392f8a,626b3c5dc80ab878a33c3b10,,,,,,,,,,,,,,,,,,,,,,,a,0,0.4639,"[""0.052"",""0.498"",""0.638"",""0.806""]","[1,0,1,1]",0,28,28,28,1,1,0,,,1,FALSE,,,,,,,,,,,,,,,,,,,,,,,,,,,,,,
,60adbd85d31d5039d3638816,001,2022-04-29_13h16.38.343,classification_task,2021.2.3,Win32,60.03121623,60adbd85d31d5039d3638816,626b377229c10585ec392f8a,626b3c5dc80ab878a33c3b10,,,,,,,,,,,,,,,,,,,,,,,l,0,0.4653,"[""0.486"",""0.368"",""0.864"",""0.904""]","[0,1,1,1]",0,29,29,29,1,0,1,,,1,FALSE,,,,,,,,,,,,,,,,,,,,,,,,,,,,,,
,60adbd85d31d5039d3638816,001,2022-04-29_13h16.38.343,classification_task,2021.2.3,Win32,60.03121623,60adbd85d31d5039d3638816,626b377229c10585ec392f8a,626b3c5dc80ab878a33c3b10,,,,,,,,,,,,,,,,,,,,,,,a,0,0.3481,"[""0.502"",""0.238"",""0.638"",""0.806""]","[0,1,1,1]",0,30,30,30,1,1,0,,,1,FALSE,,,,,,,,,,,,,,,,,,,,,,,,,,,,,,
,60adbd85d31d5039d3638816,001,2022-04-29_13h16.38.343,classification_task,2021.2.3,Win32,60.03121623,60adbd85d31d5039d3638816,626b377229c10585ec392f8a,626b3c5dc80ab878a33c3b10,,,,,,,,,,,,,,,,,,,,,,,a,0,0.5315,"[""0.052"",""0.238"",""0.638"",""0.528""]","[1,1,1,0]",0,31,31,31,1,1,0,,,1,FALSE,,,,,,,,,,,,,,,,,,,,,,,,,,,,,,
,60adbd85d31d5039d3638816,001,2022-04-29_13h16.38.343,classification_task,2021.2.3,Win32,60.03121623,60adbd85d31d5039d3638816,626b377229c10585ec392f8a,626b3c5dc80ab878a33c3b10,,,,,,,,,,,,,,,,,,,,,,,l,0,0.5842,"[""0.274"",""0.368"",""0.864"",""0.502""]","[1,1,1,0]",0,32,32,32,1,0,1,,,1,FALSE,,,,,,,,,,,,,,,,,,,,,,,,,,,,,,
,60adbd85d31d5039d3638816,001,2022-04-29_13h16.38.343,classification_task,2021.2.3,Win32,60.03121623,60adbd85d31d5039d3638816,626b377229c10585ec392f8a,626b3c5dc80ab878a33c3b10,,,,,,,,,,,,,,,,,,,,,,,l,1,0.9301,"[""0.052"",""0.533"",""0.638"",""0.806""]","[1,0,1,1]",0,33,33,33,1,1,0,,,1,FALSE,,,,,,,,,,,,,,,,,,,,,,,,,,,,,,
,60adbd85d31d5039d3638816,001,2022-04-29_13h16.38.343,classification_task,2021.2.3,Win32,60.03121623,60adbd85d31d5039d3638816,626b377229c10585ec392f8a,626b3c5dc80ab878a33c3b10,,,,,,,,,,,,,,,,,,,,,,,l,0,0.4304,"[""0.163"",""0.533"",""0.689"",""0.939""]","[1,0,1,1]",0,34,34,34,1,0,0,,,1,FALSE,,,,,,,,,,,,,,,,,,,,,,,,,,,,,,
,60adbd85d31d5039d3638816,001,2022-04-29_13h16.38.343,classification_task,2021.2.3,Win32,60.03121623,60adbd85d31d5039d3638816,626b377229c10585ec392f8a,626b3c5dc80ab878a33c3b10,,,,,,,,,,,,,,,,,,,,,,,a,1,0.3452,"[""0.274"",""0.368"",""0.487"",""0.904""]","[1,1,0,1]",0,35,35,35,1,0,1,,,1,FALSE,,,,,,,,,,,,,,,,,,,,,,,,,,,,,,
,60adbd85d31d5039d3638816,001,2022-04-29_13h16.38.343,classification_task,2021.2.3,Win32,60.03121623,60adbd85d31d5039d3638816,626b377229c10585ec392f8a,626b3c5dc80ab878a33c3b10,,,,,,,,,,,,,,,,,,,,,,,a,0,0.9285,"[""0.091"",""0.318"",""0.515"",""0.756""]","[1,1,0,1]",0,36,36,36,1,1,1,,,1,FALSE,,,,,,,,,,,,,,,,,,,,,,,,,,,,,,
,60adbd85d31d5039d3638816,001,2022-04-29_13h16.38.343,classification_task,2021.2.3,Win32,60.03121623,60adbd85d31d5039d3638816,626b377229c10585ec392f8a,626b3c5dc80ab878a33c3b10,,,,,,,,,,,,,,,,,,,,,,,a,0,0.7483,"[""0.091"",""0.127"",""0.579"",""0.756""]","[1,0,1,1]",0,37,37,37,1,1,1,,,1,FALSE,,,,,,,,,,,,,,,,,,,,,,,,,,,,,,
,60adbd85d31d5039d3638816,001,2022-04-29_13h16.38.343,classification_task,2021.2.3,Win32,60.03121623,60adbd85d31d5039d3638816,626b377229c10585ec392f8a,626b3c5dc80ab878a33c3b10,,,,,,,,,,,,,,,,,,,,,,,l,0,0.4271,"[""0.127"",""0.450"",""0.689"",""0.939""]","[0,1,1,1]",0,38,38,38,1,0,0,,,1,FALSE,,,,,,,,,,,,,,,,,,,,,,,,,,,,,,
,60adbd85d31d5039d3638816,001,2022-04-29_13h16.38.343,classification_task,2021.2.3,Win32,60.03121623,60adbd85d31d5039d3638816,626b377229c10585ec392f8a,626b3c5dc80ab878a33c3b10,,,,,,,,,,,,,,,,,,,,,,,a,1,0.3117,"[""0.274"",""0.526"",""0.864"",""0.904""]","[1,0,1,1]",0,39,39,39,1,0,1,,,1,FALSE,,,,,,,,,,,,,,,,,,,,,,,,,,,,,,
,60adbd85d31d5039d3638816,001,2022-04-29_13h16.38.343,classification_task,2021.2.3,Win32,60.03121623,60adbd85d31d5039d3638816,626b377229c10585ec392f8a,626b3c5dc80ab878a33c3b10,,,,,,,,,,,,,,,,,,,,,,,a,0,0.5282,"[""0.091"",""0.318"",""0.579"",""0.487""]","[1,1,1,0]",0,40,40,40,1,1,1,,,1,FALSE,,,,,,,,,,,,,,,,,,,,,,,,,,,,,,
,60adbd85d31d5039d3638816,001,2022-04-29_13h16.38.343,classification_task,2021.2.3,Win32,60.03121623,60adbd85d31d5039d3638816,626b377229c10585ec392f8a,626b3c5dc80ab878a33c3b10,,,,,,,,,,,,,,,,,,,,,,,l,0,0.3801,"[""0.163"",""0.450"",""0.499"",""0.939""]","[1,1,0,1]",0,41,41,41,1,0,0,,,1,FALSE,,,,,,,,,,,,,,,,,,,,,,,,,,,,,,
,60adbd85d31d5039d3638816,001,2022-04-29_13h16.38.343,classification_task,2021.2.3,Win32,60.03121623,60adbd85d31d5039d3638816,626b377229c10585ec392f8a,626b3c5dc80ab878a33c3b10,,,,,,,,,,,,,,,,,,,,,,,l,1,0.5283,"[""0.525"",""0.318"",""0.579"",""0.756""]","[0,1,1,1]",0,42,42,42,1,1,1,,,1,FALSE,,,,,,,,,,,,,,,,,,,,,,,,,,,,,,
,60adbd85d31d5039d3638816,001,2022-04-29_13h16.38.343,classification_task,2021.2.3,Win32,60.03121623,60adbd85d31d5039d3638816,626b377229c10585ec392f8a,626b3c5dc80ab878a33c3b10,,,,,,,,,,,,,,,,,,,,,,,l,0,0.4278,"[""0.163"",""0.450"",""0.689"",""0.515""]","[1,1,1,0]",0,43,43,43,1,0,0,,,1,FALSE,,,,,,,,,,,,,,,,,,,,,,,,,,,,,,
,60adbd85d31d5039d3638816,001,2022-04-29_13h16.38.343,classification_task,2021.2.3,Win32,60.03121623,60adbd85d31d5039d3638816,626b377229c10585ec392f8a,626b3c5dc80ab878a33c3b10,,,,,,,,,,,,,,,,,,,,,,,a,0,0.5777,"[""0.052"",""0.238"",""0.502"",""0.806""]","[1,1,0,1]",0,44,44,44,1,1,0,,,1,FALSE,,,,,,,,,,,,,,,,,,,,,,,,,,,,,,
,60adbd85d31d5039d3638816,001,2022-04-29_13h16.38.343,classification_task,2021.2.3,Win32,60.03121623,60adbd85d31d5039d3638816,626b377229c10585ec392f8a,626b3c5dc80ab878a33c3b10,,,,,,,,,,,,,,,,,,,,,,,l,1,0.3818,"[""0.502"",""0.238"",""0.638"",""0.806""]","[0,1,1,1]",0,45,45,45,1,1,0,,,1,FALSE,,,,,,,,,,,,,,,,,,,,,,,,,,,,,,
,60adbd85d31d5039d3638816,001,2022-04-29_13h16.38.343,classification_task,2021.2.3,Win32,60.03121623,60adbd85d31d5039d3638816,626b377229c10585ec392f8a,626b3c5dc80ab878a33c3b10,,,,,,,,,,,,,,,,,,,,,,,l,1,0.4657,"[""0.052"",""0.238"",""0.638"",""0.487""]","[1,1,1,0]",0,46,46,46,1,1,0,,,1,FALSE,,,,,,,,,,,,,,,,,,,,,,,,,,,,,,
,60adbd85d31d5039d3638816,001,2022-04-29_13h16.38.343,classification_task,2021.2.3,Win32,60.03121623,60adbd85d31d5039d3638816,626b377229c10585ec392f8a,626b3c5dc80ab878a33c3b10,,,,,,,,,,,,,,,,,,,,,,,a,1,0.5445,"[""0.486"",""0.368"",""0.864"",""0.904""]","[0,1,1,1]",0,47,47,47,1,0,1,,,1,FALSE,,,,,,,,,,,,,,,,,,,,,,,,,,,,,,
,60adbd85d31d5039d3638816,001,2022-04-29_13h16.38.343,classification_task,2021.2.3,Win32,60.03121623,60adbd85d31d5039d3638816,626b377229c10585ec392f8a,626b3c5dc80ab878a33c3b10,,,,,,,,,,,,,,,,,,,,,,,a,0,0.6976,"[""0.127"",""0.238"",""0.638"",""0.806""]","[0,1,1,1]",0,48,48,48,1,1,0,,,1,FALSE,,,,,,,,,,,,,,,,,,,,,,,,,,,,,,
,60adbd85d31d5039d3638816,001,2022-04-29_13h16.38.343,classification_task,2021.2.3,Win32,60.03121623,60adbd85d31d5039d3638816,626b377229c10585ec392f8a,626b3c5dc80ab878a33c3b10,,,,,,,,,,,,,,,,,,,,,,,l,1,0.319,"[""0.091"",""0.525"",""0.579"",""0.756""]","[1,0,1,1]",0,49,49,49,1,1,1,,,1,FALSE,,,,,,,,,,,,,,,,,,,,,,,,,,,,,,
,60adbd85d31d5039d3638816,001,2022-04-29_13h16.38.343,classification_task,2021.2.3,Win32,60.03121623,60adbd85d31d5039d3638816,626b377229c10585ec392f8a,626b3c5dc80ab878a33c3b10,,,,,,,,,,,,,,,,,,,,,,,l,1,0.7475,"[""0.052"",""0.520"",""0.638"",""0.806""]","[1,0,1,1]",0,50,50,50,1,1,0,,,1,FALSE,,,,,,,,,,,,,,,,,,,,,,,,,,,,,,
,60adbd85d31d5039d3638816,001,2022-04-29_13h16.38.343,classification_task,2021.2.3,Win32,60.03121623,60adbd85d31d5039d3638816,626b377229c10585ec392f8a,626b3c5dc80ab878a33c3b10,,,,,,,,,,,,,,,,,,,,,,,l,0,0.4456,"[""0.163"",""0.495"",""0.689"",""0.939""]","[1,0,1,1]",0,51,51,51,1,0,0,,,1,FALSE,,,,,,,,,,,,,,,,,,,,,,,,,,,,,,
,60adbd85d31d5039d3638816,001,2022-04-29_13h16.38.343,classification_task,2021.2.3,Win32,60.03121623,60adbd85d31d5039d3638816,626b377229c10585ec392f8a,626b3c5dc80ab878a33c3b10,,,,,,,,,,,,,,,,,,,,,,,a,1,0.4646,"[""0.163"",""0.450"",""0.532"",""0.939""]","[1,1,0,1]",0,52,52,52,1,0,0,,,1,FALSE,,,,,,,,,,,,,,,,,,,,,,,,,,,,,,
,60adbd85d31d5039d3638816,001,2022-04-29_13h16.38.343,classification_task,2021.2.3,Win32,60.03121623,60adbd85d31d5039d3638816,626b377229c10585ec392f8a,626b3c5dc80ab878a33c3b10,,,,,,,,,,,,,,,,,,,,,,,l,0,0.3642,"[""0.163"",""0.450"",""0.689"",""0.502""]","[1,1,1,0]",0,53,53,53,1,0,0,,,1,FALSE,,,,,,,,,,,,,,,,,,,,,,,,,,,,,,
,60adbd85d31d5039d3638816,001,2022-04-29_13h16.38.343,classification_task,2021.2.3,Win32,60.03121623,60adbd85d31d5039d3638816,626b377229c10585ec392f8a,626b3c5dc80ab878a33c3b10,,,,,,,,,,,,,,,,,,,,,,,a,1,0.6327,"[""0.502"",""0.450"",""0.689"",""0.939""]","[0,1,1,1]",0,54,54,54,1,0,0,,,1,FALSE,,,,,,,,,,,,,,,,,,,,,,,,,,,,,,
,60adbd85d31d5039d3638816,001,2022-04-29_13h16.38.343,classification_task,2021.2.3,Win32,60.03121623,60adbd85d31d5039d3638816,626b377229c10585ec392f8a,626b3c5dc80ab878a33c3b10,,,,,,,,,,,,,,,,,,,,,,,l,0,0.4607,"[""0.274"",""0.368"",""0.515"",""0.904""]","[1,1,0,1]",0,55,55,55,1,0,1,,,1,FALSE,,,,,,,,,,,,,,,,,,,,,,,,,,,,,,
,60adbd85d31d5039d3638816,001,2022-04-29_13h16.38.343,classification_task,2021.2.3,Win32,60.03121623,60adbd85d31d5039d3638816,626b377229c10585ec392f8a,626b3c5dc80ab878a33c3b10,,,,,,,,,,,,,,,,,,,,,,,l,1,0.5152,"[""0.487"",""0.318"",""0.579"",""0.756""]","[0,1,1,1]",0,56,56,56,1,1,1,,,1,FALSE,,,,,,,,,,,,,,,,,,,,,,,,,,,,,,
,60adbd85d31d5039d3638816,001,2022-04-29_13h16.38.343,classification_task,2021.2.3,Win32,60.03121623,60adbd85d31d5039d3638816,626b377229c10585ec392f8a,626b3c5dc80ab878a33c3b10,,,,,,,,,,,,,,,,,,,,,,,a,0,0.6156,"[""0.052"",""0.238"",""0.520"",""0.806""]","[1,1,0,1]",0,57,57,57,1,1,0,,,1,FALSE,,,,,,,,,,,,,,,,,,,,,,,,,,,,,,
,60adbd85d31d5039d3638816,001,2022-04-29_13h16.38.343,classification_task,2021.2.3,Win32,60.03121623,60adbd85d31d5039d3638816,626b377229c10585ec392f8a,626b3c5dc80ab878a33c3b10,,,,,,,,,,,,,,,,,,,,,,,l,1,0.344,"[""0.091"",""0.318"",""0.579"",""0.533""]","[1,1,1,0]",0,58,58,58,1,1,1,,,1,FALSE,,,,,,,,,,,,,,,,,,,,,,,,,,,,,,
,60adbd85d31d5039d3638816,001,2022-04-29_13h16.38.343,classification_task,2021.2.3,Win32,60.03121623,60adbd85d31d5039d3638816,626b377229c10585ec392f8a,626b3c5dc80ab878a33c3b10,,,,,,,,,,,,,,,,,,,,,,,a,0,0.3785,"[""0.052"",""0.238"",""0.638"",""0.526""]","[1,1,1,0]",0,59,59,59,1,1,0,,,1,FALSE,,,,,,,,,,,,,,,,,,,,,,,,,,,,,,
,60adbd85d31d5039d3638816,001,2022-04-29_13h16.38.343,classification_task,2021.2.3,Win32,60.03121623,60adbd85d31d5039d3638816,626b377229c10585ec392f8a,626b3c5dc80ab878a33c3b10,,,,,,,,,,,,,,,,,,,,,,,l,0,0.4637,"[""0.274"",""0.498"",""0.864"",""0.904""]","[1,0,1,1]",0,60,60,60,1,0,1,,,1,FALSE,,,,,,,,,,,,,,,,,,,,,,,,,,,,,,
,60adbd85d31d5039d3638816,001,2022-04-29_13h16.38.343,classification_task,2021.2.3,Win32,60.03121623,60adbd85d31d5039d3638816,626b377229c10585ec392f8a,626b3c5dc80ab878a33c3b10,,,,,,,,,,,,,,,,,,,,,,,l,0,0.5455,"[""0.274"",""0.368"",""0.864"",""0.127""]","[1,1,1,0]",0,61,61,61,1,0,1,,,1,FALSE,,,,,,,,,,,,,,,,,,,,,,,,,,,,,,
,60adbd85d31d5039d3638816,001,2022-04-29_13h16.38.343,classification_task,2021.2.3,Win32,60.03121623,60adbd85d31d5039d3638816,626b377229c10585ec392f8a,626b3c5dc80ab878a33c3b10,,,,,,,,,,,,,,,,,,,,,,,l,0,0.478,"[""0.532"",""0.368"",""0.864"",""0.904""]","[0,1,1,1]",0,62,62,62,1,0,1,,,1,FALSE,,,,,,,,,,,,,,,,,,,,,,,,,,,,,,
,60adbd85d31d5039d3638816,001,2022-04-29_13h16.38.343,classification_task,2021.2.3,Win32,60.03121623,60adbd85d31d5039d3638816,626b377229c10585ec392f8a,626b3c5dc80ab878a33c3b10,,,,,,,,,,,,,,,,,,,,,,,a,0,0.7775,"[""0.091"",""0.318"",""0.520"",""0.756""]","[1,1,0,1]",0,63,63,63,1,1,1,,,1,FALSE,,,,,,,,,,,,,,,,,,,,,,,,,,,,,,
,60adbd85d31d5039d3638816,001,2022-04-29_13h16.38.343,classification_task,2021.2.3,Win32,60.03121623,60adbd85d31d5039d3638816,626b377229c10585ec392f8a,626b3c5dc80ab878a33c3b10,,,,,,,,,,,,,,,,,,,,,,,,,,,,,,,,,,,,,,,0, ,,0,3.416520604,103.009,0,1,1,1,1,2,2,,,,,,,,,,,,,,,,,
,60adbd85d31d5039d3638816,001,2022-04-29_13h16.38.343,classification_task,2021.2.3,Win32,60.03121623,60adbd85d31d5039d3638816,626b377229c10585ec392f8a,626b3c5dc80ab878a33c3b10,,,,,,,,,,,,,,,,,,,,,,,,,,,,,,,,,,,,,,,1,  ,,0,3.471123342,103.7928,0,1,1,1,1,2,2,,,,,,,,,,,,,,,,,
,60adbd85d31d5039d3638816,001,2022-04-29_13h16.38.343,classification_task,2021.2.3,Win32,60.03121623,60adbd85d31d5039d3638816,626b377229c10585ec392f8a,626b3c5dc80ab878a33c3b10,,,,,,,,,,,,,,,,,,,,,,,,,,,,,,,,,,,,,,,2,  ,,0,3.443821973,104.5768,0,1,1,1,1,2,2,,,,,,,,,,,,,,,,,
,60adbd85d31d5039d3638816,001,2022-04-29_13h16.38.343,classification_task,2021.2.3,Win32,60.03121623,60adbd85d31d5039d3638816,626b377229c10585ec392f8a,626b3c5dc80ab878a33c3b10,,,,,,,,,,,,,,,,,,,,,,,,,,,,,,,,,,,,,,,,,,,,,0,1,1,1,1,,2,,,,,,,,,,,,,,,,,
,60adbd85d31d5039d3638816,001,2022-04-29_13h16.38.343,classification_task,2021.2.3,Win32,60.03121623,60adbd85d31d5039d3638816,626b377229c10585ec392f8a,626b3c5dc80ab878a33c3b10,,,,,,,,,,,,,,,,,,,,,space,1.6072,a,1,0.9168,"[""0.274"",""0.368"",""0.127"",""0.904""]","[1,1,0,1]",0,0,0,0,1,0,1,,,1,FALSE,,,,,,,,,,,,,,,,,,,,,,,,,,,,,,
,60adbd85d31d5039d3638816,001,2022-04-29_13h16.38.343,classification_task,2021.2.3,Win32,60.03121623,60adbd85d31d5039d3638816,626b377229c10585ec392f8a,626b3c5dc80ab878a33c3b10,,,,,,,,,,,,,,,,,,,,,,,l,0,0.7269,"[""0.533"",""0.450"",""0.689"",""0.939""]","[0,1,1,1]",0,1,1,1,1,0,0,,,1,FALSE,,,,,,,,,,,,,,,,,,,,,,,,,,,,,,
,60adbd85d31d5039d3638816,001,2022-04-29_13h16.38.343,classification_task,2021.2.3,Win32,60.03121623,60adbd85d31d5039d3638816,626b377229c10585ec392f8a,626b3c5dc80ab878a33c3b10,,,,,,,,,,,,,,,,,,,,,,,l,1,0.5834,"[""0.052"",""0.515"",""0.638"",""0.806""]","[1,0,1,1]",0,2,2,2,1,1,0,,,1,FALSE,,,,,,,,,,,,,,,,,,,,,,,,,,,,,,
,60adbd85d31d5039d3638816,001,2022-04-29_13h16.38.343,classification_task,2021.2.3,Win32,60.03121623,60adbd85d31d5039d3638816,626b377229c10585ec392f8a,626b3c5dc80ab878a33c3b10,,,,,,,,,,,,,,,,,,,,,,,a,0,0.4782,"[""0.091"",""0.318"",""0.533"",""0.756""]","[1,1,0,1]",0,3,3,3,1,1,1,,,1,FALSE,,,,,,,,,,,,,,,,,,,,,,,,,,,,,,
,60adbd85d31d5039d3638816,001,2022-04-29_13h16.38.343,classification_task,2021.2.3,Win32,60.03121623,60adbd85d31d5039d3638816,626b377229c10585ec392f8a,626b3c5dc80ab878a33c3b10,,,,,,,,,,,,,,,,,,,,,,,a,0,0.8286,"[""0.052"",""0.238"",""0.638"",""0.487""]","[1,1,1,0]",0,4,4,4,1,1,0,,,1,FALSE,,,,,,,,,,,,,,,,,,,,,,,,,,,,,,
,60adbd85d31d5039d3638816,001,2022-04-29_13h16.38.343,classification_task,2021.2.3,Win32,60.03121623,60adbd85d31d5039d3638816,626b377229c10585ec392f8a,626b3c5dc80ab878a33c3b10,,,,,,,,,,,,,,,,,,,,,,,a,1,0.6095,"[""0.163"",""0.450"",""0.689"",""0.515""]","[1,1,1,0]",0,5,5,5,1,0,0,,,1,FALSE,,,,,,,,,,,,,,,,,,,,,,,,,,,,,,
,60adbd85d31d5039d3638816,001,2022-04-29_13h16.38.343,classification_task,2021.2.3,Win32,60.03121623,60adbd85d31d5039d3638816,626b377229c10585ec392f8a,626b3c5dc80ab878a33c3b10,,,,,,,,,,,,,,,,,,,,,,,l,0,0.5167,"[""0.274"",""0.487"",""0.864"",""0.904""]","[1,0,1,1]",0,6,6,6,1,0,1,,,1,FALSE,,,,,,,,,,,,,,,,,,,,,,,,,,,,,,
,60adbd85d31d5039d3638816,001,2022-04-29_13h16.38.343,classification_task,2021.2.3,Win32,60.03121623,60adbd85d31d5039d3638816,626b377229c10585ec392f8a,626b3c5dc80ab878a33c3b10,,,,,,,,,,,,,,,,,,,,,,,l,0,0.5149,"[""0.274"",""0.368"",""0.864"",""0.127""]","[1,1,1,0]",0,7,7,7,1,0,1,,,1,FALSE,,,,,,,,,,,,,,,,,,,,,,,,,,,,,,
,60adbd85d31d5039d3638816,001,2022-04-29_13h16.38.343,classification_task,2021.2.3,Win32,60.03121623,60adbd85d31d5039d3638816,626b377229c10585ec392f8a,626b3c5dc80ab878a33c3b10,,,,,,,,,,,,,,,,,,,,,,,a,0,0.4972,"[""0.091"",""0.318"",""0.579"",""0.498""]","[1,1,1,0]",0,8,8,8,1,1,1,,,1,FALSE,,,,,,,,,,,,,,,,,,,,,,,,,,,,,,
,60adbd85d31d5039d3638816,001,2022-04-29_13h16.38.343,classification_task,2021.2.3,Win32,60.03121623,60adbd85d31d5039d3638816,626b377229c10585ec392f8a,626b3c5dc80ab878a33c3b10,,,,,,,,,,,,,,,,,,,,,,,l,1,0.4175,"[""0.091"",""0.487"",""0.579"",""0.756""]","[1,0,1,1]",0,9,9,9,1,1,1,,,1,FALSE,,,,,,,,,,,,,,,,,,,,,,,,,,,,,,
,60adbd85d31d5039d3638816,001,2022-04-29_13h16.38.343,classification_task,2021.2.3,Win32,60.03121623,60adbd85d31d5039d3638816,626b377229c10585ec392f8a,626b3c5dc80ab878a33c3b10,,,,,,,,,,,,,,,,,,,,,,,a,0,0.3952,"[""0.127"",""0.238"",""0.638"",""0.806""]","[0,1,1,1]",0,10,10,10,1,1,0,,,1,FALSE,,,,,,,,,,,,,,,,,,,,,,,,,,,,,,
,60adbd85d31d5039d3638816,001,2022-04-29_13h16.38.343,classification_task,2021.2.3,Win32,60.03121623,60adbd85d31d5039d3638816,626b377229c10585ec392f8a,626b3c5dc80ab878a33c3b10,,,,,,,,,,,,,,,,,,,,,,,l,0,0.4941,"[""0.163"",""0.450"",""0.487"",""0.939""]","[1,1,0,1]",0,11,11,11,1,0,0,,,1,FALSE,,,,,,,,,,,,,,,,,,,,,,,,,,,,,,
,60adbd85d31d5039d3638816,001,2022-04-29_13h16.38.343,classification_task,2021.2.3,Win32,60.03121623,60adbd85d31d5039d3638816,626b377229c10585ec392f8a,626b3c5dc80ab878a33c3b10,,,,,,,,,,,,,,,,,,,,,,,l,0,0.527,"[""0.163"",""0.526"",""0.689"",""0.939""]","[1,0,1,1]",0,12,12,12,1,0,0,,,1,FALSE,,,,,,,,,,,,,,,,,,,,,,,,,,,,,,
,60adbd85d31d5039d3638816,001,2022-04-29_13h16.38.343,classification_task,2021.2.3,Win32,60.03121623,60adbd85d31d5039d3638816,626b377229c10585ec392f8a,626b3c5dc80ab878a33c3b10,,,,,,,,,,,,,,,,,,,,,,,a,0,0.2951,"[""0.526"",""0.318"",""0.579"",""0.756""]","[0,1,1,1]",0,13,13,13,1,1,1,,,1,FALSE,,,,,,,,,,,,,,,,,,,,,,,,,,,,,,
,60adbd85d31d5039d3638816,001,2022-04-29_13h16.38.343,classification_task,2021.2.3,Win32,60.03121623,60adbd85d31d5039d3638816,626b377229c10585ec392f8a,626b3c5dc80ab878a33c3b10,,,,,,,,,,,,,,,,,,,,,,,l,1,0.3938,"[""0.052"",""0.238"",""0.487"",""0.806""]","[1,1,0,1]",0,14,14,14,1,1,0,,,1,FALSE,,,,,,,,,,,,,,,,,,,,,,,,,,,,,,
,60adbd85d31d5039d3638816,001,2022-04-29_13h16.38.343,classification_task,2021.2.3,Win32,60.03121623,60adbd85d31d5039d3638816,626b377229c10585ec392f8a,626b3c5dc80ab878a33c3b10,,,,,,,,,,,,,,,,,,,,,,,a,1,0.9971,"[""0.525"",""0.368"",""0.864"",""0.904""]","[0,1,1,1]",0,15,15,15,1,0,1,,,1,FALSE,,,,,,,,,,,,,,,,,,,,,,,,,,,,,,
,60adbd85d31d5039d3638816,001,2022-04-29_13h16.38.343,classification_task,2021.2.3,Win32,60.03121623,60adbd85d31d5039d3638816,626b377229c10585ec392f8a,626b3c5dc80ab878a33c3b10,,,,,,,,,,,,,,,,,,,,,,,a,1,0.5178,"[""0.274"",""0.368"",""0.864"",""0.127""]","[1,1,1,0]",0,16,16,16,1,0,1,,,1,FALSE,,,,,,,,,,,,,,,,,,,,,,,,,,,,,,
,60adbd85d31d5039d3638816,001,2022-04-29_13h16.38.343,classification_task,2021.2.3,Win32,60.03121623,60adbd85d31d5039d3638816,626b377229c10585ec392f8a,626b3c5dc80ab878a33c3b10,,,,,,,,,,,,,,,,,,,,,,,l,1,0.2956,"[""0.091"",""0.318"",""0.579"",""0.495""]","[1,1,1,0]",0,17,17,17,1,1,1,,,1,FALSE,,,,,,,,,,,,,,,,,,,,,,,,,,,,,,
,60adbd85d31d5039d3638816,001,2022-04-29_13h16.38.343,classification_task,2021.2.3,Win32,60.03121623,60adbd85d31d5039d3638816,626b377229c10585ec392f8a,626b3c5dc80ab878a33c3b10,,,,,,,,,,,,,,,,,,,,,,,l,0,0.4115,"[""0.502"",""0.450"",""0.689"",""0.939""]","[0,1,1,1]",0,18,18,18,1,0,0,,,1,FALSE,,,,,,,,,,,,,,,,,,,,,,,,,,,,,,
,60adbd85d31d5039d3638816,001,2022-04-29_13h16.38.343,classification_task,2021.2.3,Win32,60.03121623,60adbd85d31d5039d3638816,626b377229c10585ec392f8a,626b3c5dc80ab878a33c3b10,,,,,,,,,,,,,,,,,,,,,,,l,0,0.5109,"[""0.163"",""0.499"",""0.689"",""0.939""]","[1,0,1,1]",0,19,19,19,1,0,0,,,1,FALSE,,,,,,,,,,,,,,,,,,,,,,,,,,,,,,
,60adbd85d31d5039d3638816,001,2022-04-29_13h16.38.343,classification_task,2021.2.3,Win32,60.03121623,60adbd85d31d5039d3638816,626b377229c10585ec392f8a,626b3c5dc80ab878a33c3b10,,,,,,,,,,,,,,,,,,,,,,,l,0,0.614,"[""0.163"",""0.450"",""0.689"",""0.498""]","[1,1,1,0]",0,20,20,20,1,0,0,,,1,FALSE,,,,,,,,,,,,,,,,,,,,,,,,,,,,,,
,60adbd85d31d5039d3638816,001,2022-04-29_13h16.38.343,classification_task,2021.2.3,Win32,60.03121623,60adbd85d31d5039d3638816,626b377229c10585ec392f8a,626b3c5dc80ab878a33c3b10,,,,,,,,,,,,,,,,,,,,,,,a,0,0.4434,"[""0.498"",""0.318"",""0.579"",""0.756""]","[0,1,1,1]",0,21,21,21,1,1,1,,,1,FALSE,,,,,,,,,,,,,,,,,,,,,,,,,,,,,,
,60adbd85d31d5039d3638816,001,2022-04-29_13h16.38.343,classification_task,2021.2.3,Win32,60.03121623,60adbd85d31d5039d3638816,626b377229c10585ec392f8a,626b3c5dc80ab878a33c3b10,,,,,,,,,,,,,,,,,,,,,,,a,1,0.6472,"[""0.274"",""0.528"",""0.864"",""0.904""]","[1,0,1,1]",0,22,22,22,1,0,1,,,1,FALSE,,,,,,,,,,,,,,,,,,,,,,,,,,,,,,
,60adbd85d31d5039d3638816,001,2022-04-29_13h16.38.343,classification_task,2021.2.3,Win32,60.03121623,60adbd85d31d5039d3638816,626b377229c10585ec392f8a,626b3c5dc80ab878a33c3b10,,,,,,,,,,,,,,,,,,,,,,,l,1,0.3642,"[""0.528"",""0.238"",""0.638"",""0.806""]","[0,1,1,1]",0,23,23,23,1,1,0,,,1,FALSE,,,,,,,,,,,,,,,,,,,,,,,,,,,,,,
,60adbd85d31d5039d3638816,001,2022-04-29_13h16.38.343,classification_task,2021.2.3,Win32,60.03121623,60adbd85d31d5039d3638816,626b377229c10585ec392f8a,626b3c5dc80ab878a33c3b10,,,,,,,,,,,,,,,,,,,,,,,a,1,0.3114,"[""0.274"",""0.368"",""0.528"",""0.904""]","[1,1,0,1]",0,24,24,24,1,0,1,,,1,FALSE,,,,,,,,,,,,,,,,,,,,,,,,,,,,,,
,60adbd85d31d5039d3638816,001,2022-04-29_13h16.38.343,classification_task,2021.2.3,Win32,60.03121623,60adbd85d31d5039d3638816,626b377229c10585ec392f8a,626b3c5dc80ab878a33c3b10,,,,,,,,,,,,,,,,,,,,,,,a,0,0.5826,"[""0.091"",""0.318"",""0.498"",""0.756""]","[1,1,0,1]",0,25,25,25,1,1,1,,,1,FALSE,,,,,,,,,,,,,,,,,,,,,,,,,,,,,,
,60adbd85d31d5039d3638816,001,2022-04-29_13h16.38.343,classification_task,2021.2.3,Win32,60.03121623,60adbd85d31d5039d3638816,626b377229c10585ec392f8a,626b3c5dc80ab878a33c3b10,,,,,,,,,,,,,,,,,,,,,,,l,1,0.599,"[""0.052"",""0.238"",""0.487"",""0.806""]","[1,1,0,1]",0,26,26,26,1,1,0,,,1,FALSE,,,,,,,,,,,,,,,,,,,,,,,,,,,,,,
,60adbd85d31d5039d3638816,001,2022-04-29_13h16.38.343,classification_task,2021.2.3,Win32,60.03121623,60adbd85d31d5039d3638816,626b377229c10585ec392f8a,626b3c5dc80ab878a33c3b10,,,,,,,,,,,,,,,,,,,,,,,l,1,0.5481,"[""0.052"",""0.238"",""0.638"",""0.498""]","[1,1,1,0]",0,27,27,27,1,1,0,,,1,FALSE,,,,,,,,,,,,,,,,,,,,,,,,,,,,,,
,60adbd85d31d5039d3638816,001,2022-04-29_13h16.38.343,classification_task,2021.2.3,Win32,60.03121623,60adbd85d31d5039d3638816,626b377229c10585ec392f8a,626b3c5dc80ab878a33c3b10,,,,,,,,,,,,,,,,,,,,,,,a,1,0.6284,"[""0.127"",""0.368"",""0.864"",""0.904""]","[0,1,1,1]",0,28,28,28,1,0,1,,,1,FALSE,,,,,,,,,,,,,,,,,,,,,,,,,,,,,,
,60adbd85d31d5039d3638816,001,2022-04-29_13h16.38.343,classification_task,2021.2.3,Win32,60.03121623,60adbd85d31d5039d3638816,626b377229c10585ec392f8a,626b3c5dc80ab878a33c3b10,,,,,,,,,,,,,,,,,,,,,,,a,0,0.5656,"[""0.091"",""0.502"",""0.579"",""0.756""]","[1,0,1,1]",0,29,29,29,1,1,1,,,1,FALSE,,,,,,,,,,,,,,,,,,,,,,,,,,,,,,
,60adbd85d31d5039d3638816,001,2022-04-29_13h16.38.343,classification_task,2021.2.3,Win32,60.03121623,60adbd85d31d5039d3638816,626b377229c10585ec392f8a,626b3c5dc80ab878a33c3b10,,,,,,,,,,,,,,,,,,,,,,,l,1,0.3478,"[""0.052"",""0.498"",""0.638"",""0.806""]","[1,0,1,1]",0,30,30,30,1,1,0,,,1,FALSE,,,,,,,,,,,,,,,,,,,,,,,,,,,,,,
,60adbd85d31d5039d3638816,001,2022-04-29_13h16.38.343,classification_task,2021.2.3,Win32,60.03121623,60adbd85d31d5039d3638816,626b377229c10585ec392f8a,626b3c5dc80ab878a33c3b10,,,,,,,,,,,,,,,,,,,,,,,l,0,0.5335,"[""0.163"",""0.450"",""0.127"",""0.939""]","[1,1,0,1]",0,31,31,31,1,0,0,,,1,FALSE,,,,,,,,,,,,,,,,,,,,,,,,,,,,,,
,60adbd85d31d5039d3638816,001,2022-04-29_13h16.38.343,classification_task,2021.2.3,Win32,60.03121623,60adbd85d31d5039d3638816,626b377229c10585ec392f8a,626b3c5dc80ab878a33c3b10,,,,,,,,,,,,,,,,,,,,,,,l,1,0.4452,"[""0.052"",""0.238"",""0.638"",""0.528""]","[1,1,1,0]",0,32,32,32,1,1,0,,,1,FALSE,,,,,,,,,,,,,,,,,,,,,,,,,,,,,,
,60adbd85d31d5039d3638816,001,2022-04-29_13h16.38.343,classification_task,2021.2.3,Win32,60.03121623,60adbd85d31d5039d3638816,626b377229c10585ec392f8a,626b3c5dc80ab878a33c3b10,,,,,,,,,,,,,,,,,,,,,,,l,1,0.5977,"[""0.052"",""0.515"",""0.638"",""0.806""]","[1,0,1,1]",0,33,33,33,1,1,0,,,1,FALSE,,,,,,,,,,,,,,,,,,,,,,,,,,,,,,
,60adbd85d31d5039d3638816,001,2022-04-29_13h16.38.343,classification_task,2021.2.3,Win32,60.03121623,60adbd85d31d5039d3638816,626b377229c10585ec392f8a,626b3c5dc80ab878a33c3b10,,,,,,,,,,,,,,,,,,,,,,,a,1,0.5762,"[""0.274"",""0.368"",""0.864"",""0.502""]","[1,1,1,0]",0,34,34,34,1,0,1,,,1,FALSE,,,,,,,,,,,,,,,,,,,,,,,,,,,,,,
,60adbd85d31d5039d3638816,001,2022-04-29_13h16.38.343,classification_task,2021.2.3,Win32,60.03121623,60adbd85d31d5039d3638816,626b377229c10585ec392f8a,626b3c5dc80ab878a33c3b10,,,,,,,,,,,,,,,,,,,,,,,a,0,0.5324,"[""0.091"",""0.318"",""0.528"",""0.756""]","[1,1,0,1]",0,35,35,35,1,1,1,,,1,FALSE,,,,,,,,,,,,,,,,,,,,,,,,,,,,,,
,60adbd85d31d5039d3638816,001,2022-04-29_13h16.38.343,classification_task,2021.2.3,Win32,60.03121623,60adbd85d31d5039d3638816,626b377229c10585ec392f8a,626b3c5dc80ab878a33c3b10,,,,,,,,,,,,,,,,,,,,,,,l,0,0.431,"[""0.163"",""0.450"",""0.499"",""0.939""]","[1,1,0,1]",0,36,36,36,1,0,0,,,1,FALSE,,,,,,,,,,,,,,,,,,,,,,,,,,,,,,
,60adbd85d31d5039d3638816,001,2022-04-29_13h16.38.343,classification_task,2021.2.3,Win32,60.03121623,60adbd85d31d5039d3638816,626b377229c10585ec392f8a,626b3c5dc80ab878a33c3b10,,,,,,,,,,,,,,,,,,,,,,,a,0,0.5618,"[""0.091"",""0.318"",""0.579"",""0.499""]","[1,1,1,0]",0,37,37,37,1,1,1,,,1,FALSE,,,,,,,,,,,,,,,,,,,,,,,,,,,,,,
,60adbd85d31d5039d3638816,001,2022-04-29_13h16.38.343,classification_task,2021.2.3,Win32,60.03121623,60adbd85d31d5039d3638816,626b377229c10585ec392f8a,626b3c5dc80ab878a33c3b10,,,,,,,,,,,,,,,,,,,,,,,a,1,0.4777,"[""0.274"",""0.368"",""0.532"",""0.904""]","[1,1,0,1]",0,38,38,38,1,0,1,,,1,FALSE,,,,,,,,,,,,,,,,,,,,,,,,,,,,,,
,60adbd85d31d5039d3638816,001,2022-04-29_13h16.38.343,classification_task,2021.2.3,Win32,60.03121623,60adbd85d31d5039d3638816,626b377229c10585ec392f8a,626b3c5dc80ab878a33c3b10,,,,,,,,,,,,,,,,,,,,,,,a,0,0.4444,"[""0.487"",""0.318"",""0.579"",""0.756""]","[0,1,1,1]",0,39,39,39,1,1,1,,,1,FALSE,,,,,,,,,,,,,,,,,,,,,,,,,,,,,,
,60adbd85d31d5039d3638816,001,2022-04-29_13h16.38.343,classification_task,2021.2.3,Win32,60.03121623,60adbd85d31d5039d3638816,626b377229c10585ec392f8a,626b3c5dc80ab878a33c3b10,,,,,,,,,,,,,,,,,,,,,,,a,0,0.3936,"[""0.091"",""0.517"",""0.579"",""0.756""]","[1,0,1,1]",0,40,40,40,1,1,1,,,1,FALSE,,,,,,,,,,,,,,,,,,,,,,,,,,,,,,
,60adbd85d31d5039d3638816,001,2022-04-29_13h16.38.343,classification_task,2021.2.3,Win32,60.03121623,60adbd85d31d5039d3638816,626b377229c10585ec392f8a,626b3c5dc80ab878a33c3b10,,,,,,,,,,,,,,,,,,,,,,,a,1,0.3831,"[""0.274"",""0.526"",""0.864"",""0.904""]","[1,0,1,1]",0,41,41,41,1,0,1,,,1,FALSE,,,,,,,,,,,,,,,,,,,,,,,,,,,,,,
,60adbd85d31d5039d3638816,001,2022-04-29_13h16.38.343,classification_task,2021.2.3,Win32,60.03121623,60adbd85d31d5039d3638816,626b377229c10585ec392f8a,626b3c5dc80ab878a33c3b10,,,,,,,,,,,,,,,,,,,,,,,l,0,0.5146,"[""0.163"",""0.450"",""0.689"",""0.487""]","[1,1,1,0]",0,42,42,42,1,0,0,,,1,FALSE,,,,,,,,,,,,,,,,,,,,,,,,,,,,,,
,60adbd85d31d5039d3638816,001,2022-04-29_13h16.38.343,classification_task,2021.2.3,Win32,60.03121623,60adbd85d31d5039d3638816,626b377229c10585ec392f8a,626b3c5dc80ab878a33c3b10,,,,,,,,,,,,,,,,,,,,,,,l,1,0.4478,"[""0.499"",""0.238"",""0.638"",""0.806""]","[0,1,1,1]",0,43,43,43,1,1,0,,,1,FALSE,,,,,,,,,,,,,,,,,,,,,,,,,,,,,,
,60adbd85d31d5039d3638816,001,2022-04-29_13h16.38.343,classification_task,2021.2.3,Win32,60.03121623,60adbd85d31d5039d3638816,626b377229c10585ec392f8a,626b3c5dc80ab878a33c3b10,,,,,,,,,,,,,,,,,,,,,,,a,1,0.4482,"[""0.486"",""0.368"",""0.864"",""0.904""]","[0,1,1,1]",0,44,44,44,1,0,1,,,1,FALSE,,,,,,,,,,,,,,,,,,,,,,,,,,,,,,
,60adbd85d31d5039d3638816,001,2022-04-29_13h16.38.343,classification_task,2021.2.3,Win32,60.03121623,60adbd85d31d5039d3638816,626b377229c10585ec392f8a,626b3c5dc80ab878a33c3b10,,,,,,,,,,,,,,,,,,,,,,,l,0,0.3105,"[""0.163"",""0.533"",""0.689"",""0.939""]","[1,0,1,1]",0,45,45,45,1,0,0,,,1,FALSE,,,,,,,,,,,,,,,,,,,,,,,,,,,,,,
,60adbd85d31d5039d3638816,001,2022-04-29_13h16.38.343,classification_task,2021.2.3,Win32,60.03121623,60adbd85d31d5039d3638816,626b377229c10585ec392f8a,626b3c5dc80ab878a33c3b10,,,,,,,,,,,,,,,,,,,,,,,l,1,0.4475,"[""0.052"",""0.238"",""0.525"",""0.806""]","[1,1,0,1]",0,46,46,46,1,1,0,,,1,FALSE,,,,,,,,,,,,,,,,,,,,,,,,,,,,,,
,60adbd85d31d5039d3638816,001,2022-04-29_13h16.38.343,classification_task,2021.2.3,Win32,60.03121623,60adbd85d31d5039d3638816,626b377229c10585ec392f8a,626b3c5dc80ab878a33c3b10,,,,,,,,,,,,,,,,,,,,,,,l,0,0.5639,"[""0.499"",""0.450"",""0.689"",""0.939""]","[0,1,1,1]",0,47,47,47,1,0,0,,,1,FALSE,,,,,,,,,,,,,,,,,,,,,,,,,,,,,,
,60adbd85d31d5039d3638816,001,2022-04-29_13h16.38.343,classification_task,2021.2.3,Win32,60.03121623,60adbd85d31d5039d3638816,626b377229c10585ec392f8a,626b3c5dc80ab878a33c3b10,,,,,,,,,,,,,,,,,,,,,,,l,0,0.8778,"[""0.495"",""0.368"",""0.864"",""0.904""]","[0,1,1,1]",0,48,48,48,1,0,1,,,1,FALSE,,,,,,,,,,,,,,,,,,,,,,,,,,,,,,
,60adbd85d31d5039d3638816,001,2022-04-29_13h16.38.343,classification_task,2021.2.3,Win32,60.03121623,60adbd85d31d5039d3638816,626b377229c10585ec392f8a,626b3c5dc80ab878a33c3b10,,,,,,,,,,,,,,,,,,,,,,,l,1,1.3313,"[""0.091"",""0.318"",""0.517"",""0.756""]","[1,1,0,1]",0,49,49,49,1,1,1,,,1,FALSE,,,,,,,,,,,,,,,,,,,,,,,,,,,,,,
,60adbd85d31d5039d3638816,001,2022-04-29_13h16.38.343,classification_task,2021.2.3,Win32,60.03121623,60adbd85d31d5039d3638816,626b377229c10585ec392f8a,626b3c5dc80ab878a33c3b10,,,,,,,,,,,,,,,,,,,,,,,a,1,0.397,"[""0.274"",""0.368"",""0.864"",""0.520""]","[1,1,1,0]",0,50,50,50,1,0,1,,,1,FALSE,,,,,,,,,,,,,,,,,,,,,,,,,,,,,,
,60adbd85d31d5039d3638816,001,2022-04-29_13h16.38.343,classification_task,2021.2.3,Win32,60.03121623,60adbd85d31d5039d3638816,626b377229c10585ec392f8a,626b3c5dc80ab878a33c3b10,,,,,,,,,,,,,,,,,,,,,,,l,1,0.3166,"[""0.052"",""0.238"",""0.127"",""0.806""]","[1,1,0,1]",0,51,51,51,1,1,0,,,1,FALSE,,,,,,,,,,,,,,,,,,,,,,,,,,,,,,
,60adbd85d31d5039d3638816,001,2022-04-29_13h16.38.343,classification_task,2021.2.3,Win32,60.03121623,60adbd85d31d5039d3638816,626b377229c10585ec392f8a,626b3c5dc80ab878a33c3b10,,,,,,,,,,,,,,,,,,,,,,,a,0,0.5313,"[""0.091"",""0.318"",""0.579"",""0.127""]","[1,1,1,0]",0,52,52,52,1,1,1,,,1,FALSE,,,,,,,,,,,,,,,,,,,,,,,,,,,,,,
,60adbd85d31d5039d3638816,001,2022-04-29_13h16.38.343,classification_task,2021.2.3,Win32,60.03121623,60adbd85d31d5039d3638816,626b377229c10585ec392f8a,626b3c5dc80ab878a33c3b10,,,,,,,,,,,,,,,,,,,,,,,l,1,0.7275,"[""0.499"",""0.318"",""0.579"",""0.756""]","[0,1,1,1]",0,53,53,53,1,1,1,,,1,FALSE,,,,,,,,,,,,,,,,,,,,,,,,,,,,,,
,60adbd85d31d5039d3638816,001,2022-04-29_13h16.38.343,classification_task,2021.2.3,Win32,60.03121623,60adbd85d31d5039d3638816,626b377229c10585ec392f8a,626b3c5dc80ab878a33c3b10,,,,,,,,,,,,,,,,,,,,,,,l,0,0.5644,"[""0.274"",""0.368"",""0.498"",""0.904""]","[1,1,0,1]",0,54,54,54,1,0,1,,,1,FALSE,,,,,,,,,,,,,,,,,,,,,,,,,,,,,,
,60adbd85d31d5039d3638816,001,2022-04-29_13h16.38.343,classification_task,2021.2.3,Win32,60.03121623,60adbd85d31d5039d3638816,626b377229c10585ec392f8a,626b3c5dc80ab878a33c3b10,,,,,,,,,,,,,,,,,,,,,,,a,1,0.5649,"[""0.163"",""0.450"",""0.498"",""0.939""]","[1,1,0,1]",0,55,55,55,1,0,0,,,1,FALSE,,,,,,,,,,,,,,,,,,,,,,,,,,,,,,
,60adbd85d31d5039d3638816,001,2022-04-29_13h16.38.343,classification_task,2021.2.3,Win32,60.03121623,60adbd85d31d5039d3638816,626b377229c10585ec392f8a,626b3c5dc80ab878a33c3b10,,,,,,,,,,,,,,,,,,,,,,,a,0,0.4609,"[""0.052"",""0.499"",""0.638"",""0.806""]","[1,0,1,1]",0,56,56,56,1,1,0,,,1,FALSE,,,,,,,,,,,,,,,,,,,,,,,,,,,,,,
,60adbd85d31d5039d3638816,001,2022-04-29_13h16.38.343,classification_task,2021.2.3,Win32,60.03121623,60adbd85d31d5039d3638816,626b377229c10585ec392f8a,626b3c5dc80ab878a33c3b10,,,,,,,,,,,,,,,,,,,,,,,a,1,0.4103,"[""0.163"",""0.450"",""0.689"",""0.498""]","[1,1,1,0]",0,57,57,57,1,0,0,,,1,FALSE,,,,,,,,,,,,,,,,,,,,,,,,,,,,,,
,60adbd85d31d5039d3638816,001,2022-04-29_13h16.38.343,classification_task,2021.2.3,Win32,60.03121623,60adbd85d31d5039d3638816,626b377229c10585ec392f8a,626b3c5dc80ab878a33c3b10,,,,,,,,,,,,,,,,,,,,,,,l,1,0.4093,"[""0.091"",""0.517"",""0.579"",""0.756""]","[1,0,1,1]",0,58,58,58,1,1,1,,,1,FALSE,,,,,,,,,,,,,,,,,,,,,,,,,,,,,,
,60adbd85d31d5039d3638816,001,2022-04-29_13h16.38.343,classification_task,2021.2.3,Win32,60.03121623,60adbd85d31d5039d3638816,626b377229c10585ec392f8a,626b3c5dc80ab878a33c3b10,,,,,,,,,,,,,,,,,,,,,,,l,0,0.4653,"[""0.163"",""0.487"",""0.689"",""0.939""]","[1,0,1,1]",0,59,59,59,1,0,0,,,1,FALSE,,,,,,,,,,,,,,,,,,,,,,,,,,,,,,
,60adbd85d31d5039d3638816,001,2022-04-29_13h16.38.343,classification_task,2021.2.3,Win32,60.03121623,60adbd85d31d5039d3638816,626b377229c10585ec392f8a,626b3c5dc80ab878a33c3b10,,,,,,,,,,,,,,,,,,,,,,,l,1,0.7311,"[""0.052"",""0.238"",""0.638"",""0.525""]","[1,1,1,0]",0,60,60,60,1,1,0,,,1,FALSE,,,,,,,,,,,,,,,,,,,,,,,,,,,,,,
,60adbd85d31d5039d3638816,001,2022-04-29_13h16.38.343,classification_task,2021.2.3,Win32,60.03121623,60adbd85d31d5039d3638816,626b377229c10585ec392f8a,626b3c5dc80ab878a33c3b10,,,,,,,,,,,,,,,,,,,,,,,l,1,0.3803,"[""0.487"",""0.238"",""0.638"",""0.806""]","[0,1,1,1]",0,61,61,61,1,1,0,,,1,FALSE,,,,,,,,,,,,,,,,,,,,,,,,,,,,,,
,60adbd85d31d5039d3638816,001,2022-04-29_13h16.38.343,classification_task,2021.2.3,Win32,60.03121623,60adbd85d31d5039d3638816,626b377229c10585ec392f8a,626b3c5dc80ab878a33c3b10,,,,,,,,,,,,,,,,,,,,,,,a,1,0.4776,"[""0.274"",""0.533"",""0.864"",""0.904""]","[1,0,1,1]",0,62,62,62,1,0,1,,,1,FALSE,,,,,,,,,,,,,,,,,,,,,,,,,,,,,,
,60adbd85d31d5039d3638816,001,2022-04-29_13h16.38.343,classification_task,2021.2.3,Win32,60.03121623,60adbd85d31d5039d3638816,626b377229c10585ec392f8a,626b3c5dc80ab878a33c3b10,,,,,,,,,,,,,,,,,,,,,,,l,0,0.3309,"[""0.498"",""0.450"",""0.689"",""0.939""]","[0,1,1,1]",0,63,63,63,1,0,0,,,1,FALSE,,,,,,,,,,,,,,,,,,,,,,,,,,,,,,
,60adbd85d31d5039d3638816,001,2022-04-29_13h16.38.343,classification_task,2021.2.3,Win32,60.03121623,60adbd85d31d5039d3638816,626b377229c10585ec392f8a,626b3c5dc80ab878a33c3b10,,,,,,,,,,,,,,,,,,,,,,,,,,,,,,,,,,,,,,,0, ,,0,6.283164338,103.7657,0,2,2,2,1,2,3,,,,,,,,,,,,,,,,,
,60adbd85d31d5039d3638816,001,2022-04-29_13h16.38.343,classification_task,2021.2.3,Win32,60.03121623,60adbd85d31d5039d3638816,626b377229c10585ec392f8a,626b3c5dc80ab878a33c3b10,,,,,,,,,,,,,,,,,,,,,,,,,,,,,,,,,,,,,,,1,  ,,0,1.095904249,106.6389,0,2,2,2,1,2,3,,,,,,,,,,,,,,,,,
,60adbd85d31d5039d3638816,001,2022-04-29_13h16.38.343,classification_task,2021.2.3,Win32,60.03121623,60adbd85d31d5039d3638816,626b377229c10585ec392f8a,626b3c5dc80ab878a33c3b10,,,,,,,,,,,,,,,,,,,,,,,,,,,,,,,,,,,,,,,2,  ,,0,6.829191716,110.6214,0,2,2,2,1,2,3,,,,,,,,,,,,,,,,,
,60adbd85d31d5039d3638816,001,2022-04-29_13h16.38.343,classification_task,2021.2.3,Win32,60.03121623,60adbd85d31d5039d3638816,626b377229c10585ec392f8a,626b3c5dc80ab878a33c3b10,,,,,,,,,,,,,,,,,,,,,,,,,,,,,,,,,,,,,,,,,,,,,0,2,2,2,1,,3,,,,,,,,,,,,,,,,,
,60adbd85d31d5039d3638816,001,2022-04-29_13h16.38.343,classification_task,2021.2.3,Win32,60.03121623,60adbd85d31d5039d3638816,626b377229c10585ec392f8a,626b3c5dc80ab878a33c3b10,,,,,,,,,,,,,,,,,,,,,,,,,,,,,,,,,,,,,,,,,,,,,,,,,,,,,I believe the aid is a competent performer,,0.7,0,2,459.085,0,0,0,0,1,0,,,,
,60adbd85d31d5039d3638816,001,2022-04-29_13h16.38.343,classification_task,2021.2.3,Win32,60.03121623,60adbd85d31d5039d3638816,626b377229c10585ec392f8a,626b3c5dc80ab878a33c3b10,,,,,,,,,,,,,,,,,,,,,,,,,,,,,,,,,,,,,,,,,,,,,,,,,,,,,I trust the aid,,0.7,0,2,459.8198,0,0,0,0,1,0,,,,
,60adbd85d31d5039d3638816,001,2022-04-29_13h16.38.343,classification_task,2021.2.3,Win32,60.03121623,60adbd85d31d5039d3638816,626b377229c10585ec392f8a,626b3c5dc80ab878a33c3b10,,,,,,,,,,,,,,,,,,,,,,,,,,,,,,,,,,,,,,,,,,,,,,,,,,,,,I have confidence in the advice given by the aid,,0.7,0,1,461.0693,0,0,0,0,1,0,,,,
,60adbd85d31d5039d3638816,001,2022-04-29_13h16.38.343,classification_task,2021.2.3,Win32,60.03121623,60adbd85d31d5039d3638816,626b377229c10585ec392f8a,626b3c5dc80ab878a33c3b10,,,,,,,,,,,,,,,,,,,,,,,,,,,,,,,,,,,,,,,,,,,,,,,,,,,,,I can depend on the aid,,0.7,0,1,462.32,0,0,0,0,1,0,,,,
,60adbd85d31d5039d3638816,001,2022-04-29_13h16.38.343,classification_task,2021.2.3,Win32,60.03121623,60adbd85d31d5039d3638816,626b377229c10585ec392f8a,626b3c5dc80ab878a33c3b10,,,,,,,,,,,,,,,,,,,,,,,,,,,,,,,,,,,,,,,,,,,,,,,,,,,,,I can rely on the aid to behave in consistent ways,,0.7,0,1,463.3506,0,0,0,0,1,0,,,,
,60adbd85d31d5039d3638816,001,2022-04-29_13h16.38.343,classification_task,2021.2.3,Win32,60.03121623,60adbd85d31d5039d3638816,626b377229c10585ec392f8a,626b3c5dc80ab878a33c3b10,,,,,,,,,,,,,,,,,,,,,,,,,,,,,,,,,,,,,,,,,,,,,,,,,,,,,I can rely on the aid to do its best every time I take its advice,,0.7,0,1,464.8176,0,0,0,0,1,0,,,,
,60adbd85d31d5039d3638816,001,2022-04-29_13h16.38.343,classification_task,2021.2.3,Win32,60.03121623,60adbd85d31d5039d3638816,626b377229c10585ec392f8a,626b3c5dc80ab878a33c3b10,,,,,,,,,,,,,,,,,,,,,,,,,,,,,,,,,,,,,,,,,,,,,,,,,,,,,"On trials you completed with assistance from the aid, how frequently did you think the aid was correct?",,0.7,0,40,,0,0,0,0,1,0,,,,
,60adbd85d31d5039d3638816,001,2022-04-29_13h16.38.343,classification_task,2021.2.3,Win32,60.03121623,60adbd85d31d5039d3638816,626b377229c10585ec392f8a,626b3c5dc80ab878a33c3b10,,,,,,,,,,,,,,,,,,,,,,,,,,,,,,,,,,,,,,,,,,,,,,,,,,,,,"On trials you completed without the aid, how frequently did you think you were correct?",,0.7,0,40,,0,0,0,0,1,0,,,,
,60adbd85d31d5039d3638816,001,2022-04-29_13h16.38.343,classification_task,2021.2.3,Win32,60.03121623,60adbd85d31d5039d3638816,626b377229c10585ec392f8a,626b3c5dc80ab878a33c3b10,,,,,,,,,,,,,,,,,,,,,,,,,,,,,,,,,,,,,,,,,,,,,,,,,,,,,,,,,,,0,0,0,0,1,,,,,
,60adbd85d31d5039d3638816,001,2022-04-29_13h16.38.343,classification_task,2021.2.3,Win32,60.03121623,60adbd85d31d5039d3638816,626b377229c10585ec392f8a,626b3c5dc80ab878a33c3b10,,,,,,,,,,,,,,,,,,,,,,,,,,,,,,,,,,,,,,,,,,,,,,,,,,,,,,,,,,,,,,,,,space,6.5548,481.9355,
,60adbd85d31d5039d3638816,001,2022-04-29_13h16.38.343,classification_task,2021.2.3,Win32,60.03121623,60adbd85d31d5039d3638816,626b377229c10585ec392f8a,626b3c5dc80ab878a33c3b10,,,,,,,,,,,,,,,,,,,,,,,,,,,,,,,,,,,,,,,,,,,,,,,,,,,,,,,,,,,,,,,,,,,,"Mozilla/5.0 (Windows NT 10.0; Win64; x64) AppleWebKit/537.36 (KHTML, like Gecko) Chrome/100.0.4896.127 Safari/537.36"
