usingWebGL,participant,session,date,expName,psychopyVersion,OS,frameRate,PROLIFIC_PID,STUDY_ID,SESSION_ID,signatures_friend,signatures_foe,band_ranges_top,band_ranges_bottom,formitemText,formtype,formundefined,formitemWidth,formindex,formresponse,formrt,key_resp_2.keys,key_resp_2.rt,tute_resp.keys,tute_resp.rt,tutorial.thisRepN,tutorial.thisTrialN,tutorial.thisN,tutorial.thisIndex,tutorial.ran,key_resp_4.keys,key_resp_4.rt,key_resp.keys,key_resp.corr,key_resp.rt,lines_presented,is_signal_presented,trials.thisRepN,trials.thisTrialN,trials.thisN,trials.thisIndex,trials.ran,vessel,active_band,lines,is_signal,supported_pos,catch_trial,debrief_formindex,debrief_formitemText,debrief_formtype,debrief_formitemWidth,debrief_formresponse,debrief_formrt,phases.thisRepN,phases.thisTrialN,phases.thisN,phases.thisIndex,phases.ran,phases.order,phase,key_resp_3.keys,trustitemText,trusttype,trustitemWidth,trustindex,trustresponse,trustrt,support_status.thisRepN,support_status.thisTrialN,support_status.thisN,support_status.thisIndex,support_status.ran,support_status.order,key_resp_5.keys,key_resp_5.rt,globalClockTime,userAgent
TRUE,60b651381aa0911cce208974,001,2022-04-28_20h14.38.990,classification_task,2021.2.3,Win32,59.672992,60b651381aa0911cce208974,626b377229c10585ec392f8a,626b3bc817aabf30cec2b147,,,,,,,,,,,,,,,,,,,,,,,,,,,,,,,,,,,,,,,,,,,,,,,,,,,,,,,,,,,,,,,,,,,,
,60b651381aa0911cce208974,001,2022-04-28_20h14.38.990,classification_task,2021.2.3,Win32,59.672992,60b651381aa0911cce208974,626b377229c10585ec392f8a,626b3bc817aabf30cec2b147,"[[""0.285"",""0.560"",""0.674"",""0.962""],[""0.159"",""0.416"",""0.888"",""0.925""]]","[[""0.094"",""0.225"",""0.473"",""0.832""],[""0.048"",""0.380"",""0.605"",""0.753""]]","[1,10]","[100,1000]",Video game experience,,,0.7,0,,,,,,,,,,,,,,,,,,,,,,,,,,,,,,,,,,,,,,,,,,,,,,,,,,,,,,,,,,,
,60b651381aa0911cce208974,001,2022-04-28_20h14.38.990,classification_task,2021.2.3,Win32,59.672992,60b651381aa0911cce208974,626b377229c10585ec392f8a,626b3bc817aabf30cec2b147,,,,,Approximately how many hours did you spend playing video games in the last week?,,,0.7,0,0,,,,,,,,,,,,,,,,,,,,,,,,,,,,,,,,,,,,,,,,,,,,,,,,,,,,,,,,,,
,60b651381aa0911cce208974,001,2022-04-28_20h14.38.990,classification_task,2021.2.3,Win32,59.672992,60b651381aa0911cce208974,626b377229c10585ec392f8a,626b3bc817aabf30cec2b147,,,,,"Which game did you play the most this year? (Enter ""None"" if you didn't play any)",,,0.7,0,none,,,,,,,,,,,,,,,,,,,,,,,,,,,,,,,,,,,,,,,,,,,,,,,,,,,,,,,,,,
,60b651381aa0911cce208974,001,2022-04-28_20h14.38.990,classification_task,2021.2.3,Win32,59.672992,60b651381aa0911cce208974,626b377229c10585ec392f8a,626b3bc817aabf30cec2b147,,,,,Visual perception,,,0.7,0,,,,,,,,,,,,,,,,,,,,,,,,,,,,,,,,,,,,,,,,,,,,,,,,,,,,,,,,,,,
,60b651381aa0911cce208974,001,2022-04-28_20h14.38.990,classification_task,2021.2.3,Win32,59.672992,60b651381aa0911cce208974,626b377229c10585ec392f8a,626b3bc817aabf30cec2b147,,,,,Do you have any form of color blindness?,,,0.7,0,No,17.9673,,,,,,,,,,,,,,,,,,,,,,,,,,,,,,,,,,,,,,,,,,,,,,,,,,,,,,,,,
,60b651381aa0911cce208974,001,2022-04-28_20h14.38.990,classification_task,2021.2.3,Win32,59.672992,60b651381aa0911cce208974,626b377229c10585ec392f8a,626b3bc817aabf30cec2b147,,,,,Do you use software to change the colour temperature of your screen (e.g. f.lux)?,,,0.7,0,No,21.0402,,,,,,,,,,,,,,,,,,,,,,,,,,,,,,,,,,,,,,,,,,,,,,,,,,,,,,,,,
,60b651381aa0911cce208974,001,2022-04-28_20h14.38.990,classification_task,2021.2.3,Win32,59.672992,60b651381aa0911cce208974,626b377229c10585ec392f8a,626b3bc817aabf30cec2b147,,,,,,,,,,,,space,21.1249,space,5.7362,0,0,0,0,1,,,,,,,,,,,,,,,,,,,,,,,,,,,,,,,,,,,,,,,,,,,,,,,,
,60b651381aa0911cce208974,001,2022-04-28_20h14.38.990,classification_task,2021.2.3,Win32,59.672992,60b651381aa0911cce208974,626b377229c10585ec392f8a,626b3bc817aabf30cec2b147,,,,,,,,,,,,,,space,5.4776,1,0,1,0,1,,,,,,,,,,,,,,,,,,,,,,,,,,,,,,,,,,,,,,,,,,,,,,,,
,60b651381aa0911cce208974,001,2022-04-28_20h14.38.990,classification_task,2021.2.3,Win32,59.672992,60b651381aa0911cce208974,626b377229c10585ec392f8a,626b3bc817aabf30cec2b147,,,,,,,,,,,,,,space,22.6021,2,0,2,0,1,,,,,,,,,,,,,,,,,,,,,,,,,,,,,,,,,,,,,,,,,,,,,,,,
,60b651381aa0911cce208974,001,2022-04-28_20h14.38.990,classification_task,2021.2.3,Win32,59.672992,60b651381aa0911cce208974,626b377229c10585ec392f8a,626b3bc817aabf30cec2b147,,,,,,,,,,,,,,space,4.9139,3,0,3,0,1,,,,,,,,,,,,,,,,,,,,,,,,,,,,,,,,,,,,,,,,,,,,,,,,
,60b651381aa0911cce208974,001,2022-04-28_20h14.38.990,classification_task,2021.2.3,Win32,59.672992,60b651381aa0911cce208974,626b377229c10585ec392f8a,626b3bc817aabf30cec2b147,,,,,,,,,,,,,,space,3.0547,4,0,4,0,1,,,,,,,,,,,,,,,,,,,,,,,,,,,,,,,,,,,,,,,,,,,,,,,,
,60b651381aa0911cce208974,001,2022-04-28_20h14.38.990,classification_task,2021.2.3,Win32,59.672992,60b651381aa0911cce208974,626b377229c10585ec392f8a,626b3bc817aabf30cec2b147,,,,,,,,,,,,,,,,,,,,,space,12.086,a,1,3.8732,"[""0.285"",""0.560"",""0.674"",""0.796""]","[1,1,1,0]",0,0,0,0,1,0,0,,,0,FALSE,,,,,,,,,,,,,,,,,,,,,,,,,,,,,,
,60b651381aa0911cce208974,001,2022-04-28_20h14.38.990,classification_task,2021.2.3,Win32,59.672992,60b651381aa0911cce208974,626b377229c10585ec392f8a,626b3bc817aabf30cec2b147,,,,,,,,,,,,,,,,,,,,,,,l,1,2.9344,"[""0.094"",""0.225"",""0.341"",""0.832""]","[1,1,0,1]",0,1,1,1,1,1,0,,,0,FALSE,,,,,,,,,,,,,,,,,,,,,,,,,,,,,,
,60b651381aa0911cce208974,001,2022-04-28_20h14.38.990,classification_task,2021.2.3,Win32,59.672992,60b651381aa0911cce208974,626b377229c10585ec392f8a,626b3bc817aabf30cec2b147,,,,,,,,,,,,,,,,,,,,,,,a,0,2.0636,"[""0.094"",""0.714"",""0.473"",""0.832""]","[1,0,1,1]",0,2,2,2,1,1,0,,,0,FALSE,,,,,,,,,,,,,,,,,,,,,,,,,,,,,,
,60b651381aa0911cce208974,001,2022-04-28_20h14.38.990,classification_task,2021.2.3,Win32,59.672992,60b651381aa0911cce208974,626b377229c10585ec392f8a,626b3bc817aabf30cec2b147,,,,,,,,,,,,,,,,,,,,,,,a,1,7.7903,"[""0.790"",""0.560"",""0.674"",""0.962""]","[0,1,1,1]",0,3,3,3,1,0,0,,,0,FALSE,,,,,,,,,,,,,,,,,,,,,,,,,,,,,,
,60b651381aa0911cce208974,001,2022-04-28_20h14.38.990,classification_task,2021.2.3,Win32,59.672992,60b651381aa0911cce208974,626b377229c10585ec392f8a,626b3bc817aabf30cec2b147,,,,,,,,,,,,,,,,,,,,,,,l,1,7.6358,"[""0.790"",""0.380"",""0.605"",""0.753""]","[0,1,1,1]",0,4,4,4,1,1,1,,,0,FALSE,,,,,,,,,,,,,,,,,,,,,,,,,,,,,,
,60b651381aa0911cce208974,001,2022-04-28_20h14.38.990,classification_task,2021.2.3,Win32,59.672992,60b651381aa0911cce208974,626b377229c10585ec392f8a,626b3bc817aabf30cec2b147,,,,,,,,,,,,,,,,,,,,,,,a,1,3.3641,"[""0.159"",""0.416"",""0.888"",""0.341""]","[1,1,1,0]",0,5,5,5,1,0,1,,,0,FALSE,,,,,,,,,,,,,,,,,,,,,,,,,,,,,,
,60b651381aa0911cce208974,001,2022-04-28_20h14.38.990,classification_task,2021.2.3,Win32,59.672992,60b651381aa0911cce208974,626b377229c10585ec392f8a,626b3bc817aabf30cec2b147,,,,,,,,,,,,,,,,,,,,,,,l,1,3.59,"[""0.048"",""0.519"",""0.605"",""0.753""]","[1,0,1,1]",0,6,6,6,1,1,1,,,0,FALSE,,,,,,,,,,,,,,,,,,,,,,,,,,,,,,
,60b651381aa0911cce208974,001,2022-04-28_20h14.38.990,classification_task,2021.2.3,Win32,59.672992,60b651381aa0911cce208974,626b377229c10585ec392f8a,626b3bc817aabf30cec2b147,,,,,,,,,,,,,,,,,,,,,,,a,0,3.6714,"[""0.094"",""0.225"",""0.473"",""0.790""]","[1,1,1,0]",0,7,7,7,1,1,0,,,0,FALSE,,,,,,,,,,,,,,,,,,,,,,,,,,,,,,
,60b651381aa0911cce208974,001,2022-04-28_20h14.38.990,classification_task,2021.2.3,Win32,59.672992,60b651381aa0911cce208974,626b377229c10585ec392f8a,626b3bc817aabf30cec2b147,,,,,,,,,,,,,,,,,,,,,,,a,1,4.5407,"[""0.285"",""0.560"",""0.526"",""0.962""]","[1,1,0,1]",0,8,8,8,1,0,0,,,0,FALSE,,,,,,,,,,,,,,,,,,,,,,,,,,,,,,
,60b651381aa0911cce208974,001,2022-04-28_20h14.38.990,classification_task,2021.2.3,Win32,59.672992,60b651381aa0911cce208974,626b377229c10585ec392f8a,626b3bc817aabf30cec2b147,,,,,,,,,,,,,,,,,,,,,,,a,1,3.2993,"[""0.159"",""0.341"",""0.888"",""0.925""]","[1,0,1,1]",0,9,9,9,1,0,1,,,0,FALSE,,,,,,,,,,,,,,,,,,,,,,,,,,,,,,
,60b651381aa0911cce208974,001,2022-04-28_20h14.38.990,classification_task,2021.2.3,Win32,59.672992,60b651381aa0911cce208974,626b377229c10585ec392f8a,626b3bc817aabf30cec2b147,,,,,,,,,,,,,,,,,,,,,,,l,1,3.1444,"[""0.515"",""0.225"",""0.473"",""0.832""]","[0,1,1,1]",0,10,10,10,1,1,0,,,0,FALSE,,,,,,,,,,,,,,,,,,,,,,,,,,,,,,
,60b651381aa0911cce208974,001,2022-04-28_20h14.38.990,classification_task,2021.2.3,Win32,59.672992,60b651381aa0911cce208974,626b377229c10585ec392f8a,626b3bc817aabf30cec2b147,,,,,,,,,,,,,,,,,,,,,,,l,1,4.4852,"[""0.048"",""0.380"",""0.605"",""0.790""]","[1,1,1,0]",0,11,11,11,1,1,1,,,0,FALSE,,,,,,,,,,,,,,,,,,,,,,,,,,,,,,
,60b651381aa0911cce208974,001,2022-04-28_20h14.38.990,classification_task,2021.2.3,Win32,59.672992,60b651381aa0911cce208974,626b377229c10585ec392f8a,626b3bc817aabf30cec2b147,,,,,,,,,,,,,,,,,,,,,,,a,1,4.1556,"[""0.159"",""0.416"",""0.515"",""0.925""]","[1,1,0,1]",0,12,12,12,1,0,1,,,0,FALSE,,,,,,,,,,,,,,,,,,,,,,,,,,,,,,
,60b651381aa0911cce208974,001,2022-04-28_20h14.38.990,classification_task,2021.2.3,Win32,59.672992,60b651381aa0911cce208974,626b377229c10585ec392f8a,626b3bc817aabf30cec2b147,,,,,,,,,,,,,,,,,,,,,,,l,1,2.3304,"[""0.048"",""0.380"",""0.713"",""0.753""]","[1,1,0,1]",0,13,13,13,1,1,1,,,0,FALSE,,,,,,,,,,,,,,,,,,,,,,,,,,,,,,
,60b651381aa0911cce208974,001,2022-04-28_20h14.38.990,classification_task,2021.2.3,Win32,59.672992,60b651381aa0911cce208974,626b377229c10585ec392f8a,626b3bc817aabf30cec2b147,,,,,,,,,,,,,,,,,,,,,,,a,1,3.2173,"[""0.285"",""0.342"",""0.674"",""0.962""]","[1,0,1,1]",0,14,14,14,1,0,0,,,0,FALSE,,,,,,,,,,,,,,,,,,,,,,,,,,,,,,
,60b651381aa0911cce208974,001,2022-04-28_20h14.38.990,classification_task,2021.2.3,Win32,59.672992,60b651381aa0911cce208974,626b377229c10585ec392f8a,626b3bc817aabf30cec2b147,,,,,,,,,,,,,,,,,,,,,,,a,1,5.537,"[""0.515"",""0.416"",""0.888"",""0.925""]","[0,1,1,1]",0,15,15,15,1,0,1,,,0,FALSE,,,,,,,,,,,,,,,,,,,,,,,,,,,,,,
,60b651381aa0911cce208974,001,2022-04-28_20h14.38.990,classification_task,2021.2.3,Win32,59.672992,60b651381aa0911cce208974,626b377229c10585ec392f8a,626b3bc817aabf30cec2b147,,,,,,,,,,,,,,,,,,,,,,,l,1,3.3834,"[""0.709"",""0.225"",""0.473"",""0.832""]","[0,1,1,1]",0,16,16,16,1,1,0,,,0,FALSE,,,,,,,,,,,,,,,,,,,,,,,,,,,,,,
,60b651381aa0911cce208974,001,2022-04-28_20h14.38.990,classification_task,2021.2.3,Win32,59.672992,60b651381aa0911cce208974,626b377229c10585ec392f8a,626b3bc817aabf30cec2b147,,,,,,,,,,,,,,,,,,,,,,,a,1,3.08,"[""0.285"",""0.526"",""0.674"",""0.962""]","[1,0,1,1]",0,17,17,17,1,0,0,,,0,FALSE,,,,,,,,,,,,,,,,,,,,,,,,,,,,,,
,60b651381aa0911cce208974,001,2022-04-28_20h14.38.990,classification_task,2021.2.3,Win32,59.672992,60b651381aa0911cce208974,626b377229c10585ec392f8a,626b3bc817aabf30cec2b147,,,,,,,,,,,,,,,,,,,,,,,a,1,3.1028,"[""0.159"",""0.416"",""0.510"",""0.925""]","[1,1,0,1]",0,18,18,18,1,0,1,,,0,FALSE,,,,,,,,,,,,,,,,,,,,,,,,,,,,,,
,60b651381aa0911cce208974,001,2022-04-28_20h14.38.990,classification_task,2021.2.3,Win32,59.672992,60b651381aa0911cce208974,626b377229c10585ec392f8a,626b3bc817aabf30cec2b147,,,,,,,,,,,,,,,,,,,,,,,a,1,1.6185,"[""0.285"",""0.560"",""0.674"",""0.713""]","[1,1,1,0]",0,19,19,19,1,0,0,,,0,FALSE,,,,,,,,,,,,,,,,,,,,,,,,,,,,,,
,60b651381aa0911cce208974,001,2022-04-28_20h14.38.990,classification_task,2021.2.3,Win32,59.672992,60b651381aa0911cce208974,626b377229c10585ec392f8a,626b3bc817aabf30cec2b147,,,,,,,,,,,,,,,,,,,,,,,a,1,3.6067,"[""0.790"",""0.560"",""0.674"",""0.962""]","[0,1,1,1]",0,20,20,20,1,0,0,,,0,FALSE,,,,,,,,,,,,,,,,,,,,,,,,,,,,,,
,60b651381aa0911cce208974,001,2022-04-28_20h14.38.990,classification_task,2021.2.3,Win32,59.672992,60b651381aa0911cce208974,626b377229c10585ec392f8a,626b3bc817aabf30cec2b147,,,,,,,,,,,,,,,,,,,,,,,l,1,2.8563,"[""0.048"",""0.512"",""0.605"",""0.753""]","[1,0,1,1]",0,21,21,21,1,1,1,,,0,FALSE,,,,,,,,,,,,,,,,,,,,,,,,,,,,,,
,60b651381aa0911cce208974,001,2022-04-28_20h14.38.990,classification_task,2021.2.3,Win32,59.672992,60b651381aa0911cce208974,626b377229c10585ec392f8a,626b3bc817aabf30cec2b147,,,,,,,,,,,,,,,,,,,,,,,a,1,3.5682,"[""0.714"",""0.416"",""0.888"",""0.925""]","[0,1,1,1]",0,22,22,22,1,0,1,,,0,FALSE,,,,,,,,,,,,,,,,,,,,,,,,,,,,,,
,60b651381aa0911cce208974,001,2022-04-28_20h14.38.990,classification_task,2021.2.3,Win32,59.672992,60b651381aa0911cce208974,626b377229c10585ec392f8a,626b3bc817aabf30cec2b147,,,,,,,,,,,,,,,,,,,,,,,l,1,3.3561,"[""0.094"",""0.515"",""0.473"",""0.832""]","[1,0,1,1]",0,23,23,23,1,1,0,,,0,FALSE,,,,,,,,,,,,,,,,,,,,,,,,,,,,,,
,60b651381aa0911cce208974,001,2022-04-28_20h14.38.990,classification_task,2021.2.3,Win32,59.672992,60b651381aa0911cce208974,626b377229c10585ec392f8a,626b3bc817aabf30cec2b147,,,,,,,,,,,,,,,,,,,,,,,,0,,"[""0.048"",""0.380"",""0.605"",""0.326""]","[1,1,1,0]",0,24,24,24,1,1,1,,,0,FALSE,,,,,,,,,,,,,,,,,,,,,,,,,,,,,,
,60b651381aa0911cce208974,001,2022-04-28_20h14.38.990,classification_task,2021.2.3,Win32,59.672992,60b651381aa0911cce208974,626b377229c10585ec392f8a,626b3bc817aabf30cec2b147,,,,,,,,,,,,,,,,,,,,,,,l,1,0.0005,"[""0.048"",""0.380"",""0.510"",""0.753""]","[1,1,0,1]",0,25,25,25,1,1,1,,,0,FALSE,,,,,,,,,,,,,,,,,,,,,,,,,,,,,,
,60b651381aa0911cce208974,001,2022-04-28_20h14.38.990,classification_task,2021.2.3,Win32,59.672992,60b651381aa0911cce208974,626b377229c10585ec392f8a,626b3bc817aabf30cec2b147,,,,,,,,,,,,,,,,,,,,,,,a,1,2.7928,"[""0.159"",""0.342"",""0.888"",""0.925""]","[1,0,1,1]",0,26,26,26,1,0,1,,,0,FALSE,,,,,,,,,,,,,,,,,,,,,,,,,,,,,,
,60b651381aa0911cce208974,001,2022-04-28_20h14.38.990,classification_task,2021.2.3,Win32,59.672992,60b651381aa0911cce208974,626b377229c10585ec392f8a,626b3bc817aabf30cec2b147,,,,,,,,,,,,,,,,,,,,,,,a,0,3.8435,"[""0.094"",""0.225"",""0.342"",""0.832""]","[1,1,0,1]",0,27,27,27,1,1,0,,,0,FALSE,,,,,,,,,,,,,,,,,,,,,,,,,,,,,,
,60b651381aa0911cce208974,001,2022-04-28_20h14.38.990,classification_task,2021.2.3,Win32,59.672992,60b651381aa0911cce208974,626b377229c10585ec392f8a,626b3bc817aabf30cec2b147,,,,,,,,,,,,,,,,,,,,,,,l,1,3.6196,"[""0.094"",""0.225"",""0.473"",""0.709""]","[1,1,1,0]",0,28,28,28,1,1,0,,,0,FALSE,,,,,,,,,,,,,,,,,,,,,,,,,,,,,,
,60b651381aa0911cce208974,001,2022-04-28_20h14.38.990,classification_task,2021.2.3,Win32,59.672992,60b651381aa0911cce208974,626b377229c10585ec392f8a,626b3bc817aabf30cec2b147,,,,,,,,,,,,,,,,,,,,,,,l,1,5.0946,"[""0.709"",""0.380"",""0.605"",""0.753""]","[0,1,1,1]",0,29,29,29,1,1,1,,,0,FALSE,,,,,,,,,,,,,,,,,,,,,,,,,,,,,,
,60b651381aa0911cce208974,001,2022-04-28_20h14.38.990,classification_task,2021.2.3,Win32,59.672992,60b651381aa0911cce208974,626b377229c10585ec392f8a,626b3bc817aabf30cec2b147,,,,,,,,,,,,,,,,,,,,,,,a,1,2.72,"[""0.285"",""0.560"",""0.796"",""0.962""]","[1,1,0,1]",0,30,30,30,1,0,0,,,0,FALSE,,,,,,,,,,,,,,,,,,,,,,,,,,,,,,
,60b651381aa0911cce208974,001,2022-04-28_20h14.38.990,classification_task,2021.2.3,Win32,59.672992,60b651381aa0911cce208974,626b377229c10585ec392f8a,626b3bc817aabf30cec2b147,,,,,,,,,,,,,,,,,,,,,,,a,1,6.1357,"[""0.159"",""0.416"",""0.888"",""0.330""]","[1,1,1,0]",0,31,31,31,1,0,1,,,0,FALSE,,,,,,,,,,,,,,,,,,,,,,,,,,,,,,
,60b651381aa0911cce208974,001,2022-04-28_20h14.38.990,classification_task,2021.2.3,Win32,59.672992,60b651381aa0911cce208974,626b377229c10585ec392f8a,626b3bc817aabf30cec2b147,,,,,,,,,,,,,,,,,,,,,,,a,1,3.0429,"[""0.330"",""0.560"",""0.674"",""0.962""]","[0,1,1,1]",0,32,32,32,1,0,0,,,0,FALSE,,,,,,,,,,,,,,,,,,,,,,,,,,,,,,
,60b651381aa0911cce208974,001,2022-04-28_20h14.38.990,classification_task,2021.2.3,Win32,59.672992,60b651381aa0911cce208974,626b377229c10585ec392f8a,626b3bc817aabf30cec2b147,,,,,,,,,,,,,,,,,,,,,,,a,0,2.411,"[""0.526"",""0.380"",""0.605"",""0.753""]","[0,1,1,1]",0,33,33,33,1,1,1,,,0,FALSE,,,,,,,,,,,,,,,,,,,,,,,,,,,,,,
,60b651381aa0911cce208974,001,2022-04-28_20h14.38.990,classification_task,2021.2.3,Win32,59.672992,60b651381aa0911cce208974,626b377229c10585ec392f8a,626b3bc817aabf30cec2b147,,,,,,,,,,,,,,,,,,,,,,,a,1,2.1761,"[""0.285"",""0.713"",""0.674"",""0.962""]","[1,0,1,1]",0,34,34,34,1,0,0,,,0,FALSE,,,,,,,,,,,,,,,,,,,,,,,,,,,,,,
,60b651381aa0911cce208974,001,2022-04-28_20h14.38.990,classification_task,2021.2.3,Win32,59.672992,60b651381aa0911cce208974,626b377229c10585ec392f8a,626b3bc817aabf30cec2b147,,,,,,,,,,,,,,,,,,,,,,,a,0,1.3442,"[""0.796"",""0.225"",""0.473"",""0.832""]","[0,1,1,1]",0,35,35,35,1,1,0,,,0,FALSE,,,,,,,,,,,,,,,,,,,,,,,,,,,,,,
,60b651381aa0911cce208974,001,2022-04-28_20h14.38.990,classification_task,2021.2.3,Win32,59.672992,60b651381aa0911cce208974,626b377229c10585ec392f8a,626b3bc817aabf30cec2b147,,,,,,,,,,,,,,,,,,,,,,,l,1,1.5015,"[""0.048"",""0.380"",""0.605"",""0.337""]","[1,1,1,0]",0,36,36,36,1,1,1,,,0,FALSE,,,,,,,,,,,,,,,,,,,,,,,,,,,,,,
,60b651381aa0911cce208974,001,2022-04-28_20h14.38.990,classification_task,2021.2.3,Win32,59.672992,60b651381aa0911cce208974,626b377229c10585ec392f8a,626b3bc817aabf30cec2b147,,,,,,,,,,,,,,,,,,,,,,,a,1,2.5993,"[""0.159"",""0.416"",""0.337"",""0.925""]","[1,1,0,1]",0,37,37,37,1,0,1,,,0,FALSE,,,,,,,,,,,,,,,,,,,,,,,,,,,,,,
,60b651381aa0911cce208974,001,2022-04-28_20h14.38.990,classification_task,2021.2.3,Win32,59.672992,60b651381aa0911cce208974,626b377229c10585ec392f8a,626b3bc817aabf30cec2b147,,,,,,,,,,,,,,,,,,,,,,,l,1,2.05,"[""0.094"",""0.225"",""0.796"",""0.832""]","[1,1,0,1]",0,38,38,38,1,1,0,,,0,FALSE,,,,,,,,,,,,,,,,,,,,,,,,,,,,,,
,60b651381aa0911cce208974,001,2022-04-28_20h14.38.990,classification_task,2021.2.3,Win32,59.672992,60b651381aa0911cce208974,626b377229c10585ec392f8a,626b3bc817aabf30cec2b147,,,,,,,,,,,,,,,,,,,,,,,l,1,1.499,"[""0.048"",""0.380"",""0.337"",""0.753""]","[1,1,0,1]",0,39,39,39,1,1,1,,,0,FALSE,,,,,,,,,,,,,,,,,,,,,,,,,,,,,,
,60b651381aa0911cce208974,001,2022-04-28_20h14.38.990,classification_task,2021.2.3,Win32,59.672992,60b651381aa0911cce208974,626b377229c10585ec392f8a,626b3bc817aabf30cec2b147,,,,,,,,,,,,,,,,,,,,,,,l,1,1.375,"[""0.094"",""0.225"",""0.473"",""0.326""]","[1,1,1,0]",0,40,40,40,1,1,0,,,0,FALSE,,,,,,,,,,,,,,,,,,,,,,,,,,,,,,
,60b651381aa0911cce208974,001,2022-04-28_20h14.38.990,classification_task,2021.2.3,Win32,59.672992,60b651381aa0911cce208974,626b377229c10585ec392f8a,626b3bc817aabf30cec2b147,,,,,,,,,,,,,,,,,,,,,,,l,0,1.9476,"[""0.526"",""0.416"",""0.888"",""0.925""]","[0,1,1,1]",0,41,41,41,1,0,1,,,0,FALSE,,,,,,,,,,,,,,,,,,,,,,,,,,,,,,
,60b651381aa0911cce208974,001,2022-04-28_20h14.38.990,classification_task,2021.2.3,Win32,59.672992,60b651381aa0911cce208974,626b377229c10585ec392f8a,626b3bc817aabf30cec2b147,,,,,,,,,,,,,,,,,,,,,,,l,1,1.1019,"[""0.048"",""0.510"",""0.605"",""0.753""]","[1,0,1,1]",0,42,42,42,1,1,1,,,0,FALSE,,,,,,,,,,,,,,,,,,,,,,,,,,,,,,
,60b651381aa0911cce208974,001,2022-04-28_20h14.38.990,classification_task,2021.2.3,Win32,59.672992,60b651381aa0911cce208974,626b377229c10585ec392f8a,626b3bc817aabf30cec2b147,,,,,,,,,,,,,,,,,,,,,,,a,1,1.3005,"[""0.285"",""0.560"",""0.674"",""0.341""]","[1,1,1,0]",0,43,43,43,1,0,0,,,0,FALSE,,,,,,,,,,,,,,,,,,,,,,,,,,,,,,
,60b651381aa0911cce208974,001,2022-04-28_20h14.38.990,classification_task,2021.2.3,Win32,59.672992,60b651381aa0911cce208974,626b377229c10585ec392f8a,626b3bc817aabf30cec2b147,,,,,,,,,,,,,,,,,,,,,,,l,1,1.2764,"[""0.094"",""0.790"",""0.473"",""0.832""]","[1,0,1,1]",0,44,44,44,1,1,0,,,0,FALSE,,,,,,,,,,,,,,,,,,,,,,,,,,,,,,
,60b651381aa0911cce208974,001,2022-04-28_20h14.38.990,classification_task,2021.2.3,Win32,59.672992,60b651381aa0911cce208974,626b377229c10585ec392f8a,626b3bc817aabf30cec2b147,,,,,,,,,,,,,,,,,,,,,,,a,1,2.4317,"[""0.285"",""0.560"",""0.790"",""0.962""]","[1,1,0,1]",0,45,45,45,1,0,0,,,0,FALSE,,,,,,,,,,,,,,,,,,,,,,,,,,,,,,
,60b651381aa0911cce208974,001,2022-04-28_20h14.38.990,classification_task,2021.2.3,Win32,59.672992,60b651381aa0911cce208974,626b377229c10585ec392f8a,626b3bc817aabf30cec2b147,,,,,,,,,,,,,,,,,,,,,,,a,1,3.4101,"[""0.159"",""0.510"",""0.888"",""0.925""]","[1,0,1,1]",0,46,46,46,1,0,1,,,0,FALSE,,,,,,,,,,,,,,,,,,,,,,,,,,,,,,
,60b651381aa0911cce208974,001,2022-04-28_20h14.38.990,classification_task,2021.2.3,Win32,59.672992,60b651381aa0911cce208974,626b377229c10585ec392f8a,626b3bc817aabf30cec2b147,,,,,,,,,,,,,,,,,,,,,,,a,1,1.0679,"[""0.159"",""0.416"",""0.888"",""0.790""]","[1,1,1,0]",0,47,47,47,1,0,1,,,0,FALSE,,,,,,,,,,,,,,,,,,,,,,,,,,,,,,
,60b651381aa0911cce208974,001,2022-04-28_20h14.38.990,classification_task,2021.2.3,Win32,59.672992,60b651381aa0911cce208974,626b377229c10585ec392f8a,626b3bc817aabf30cec2b147,,,,,,,,,,,,,,,,,,,,,,,a,1,0.8814,"[""0.159"",""0.416"",""0.888"",""0.510""]","[1,1,1,0]",0,48,48,48,1,0,1,,,0,FALSE,,,,,,,,,,,,,,,,,,,,,,,,,,,,,,
,60b651381aa0911cce208974,001,2022-04-28_20h14.38.990,classification_task,2021.2.3,Win32,59.672992,60b651381aa0911cce208974,626b377229c10585ec392f8a,626b3bc817aabf30cec2b147,,,,,,,,,,,,,,,,,,,,,,,l,0,1.2018,"[""0.342"",""0.416"",""0.888"",""0.925""]","[0,1,1,1]",0,49,49,49,1,0,1,,,0,FALSE,,,,,,,,,,,,,,,,,,,,,,,,,,,,,,
,60b651381aa0911cce208974,001,2022-04-28_20h14.38.990,classification_task,2021.2.3,Win32,59.672992,60b651381aa0911cce208974,626b377229c10585ec392f8a,626b3bc817aabf30cec2b147,,,,,,,,,,,,,,,,,,,,,,,l,0,2.7311,"[""0.285"",""0.560"",""0.674"",""0.330""]","[1,1,1,0]",0,50,50,50,1,0,0,,,0,FALSE,,,,,,,,,,,,,,,,,,,,,,,,,,,,,,
,60b651381aa0911cce208974,001,2022-04-28_20h14.38.990,classification_task,2021.2.3,Win32,59.672992,60b651381aa0911cce208974,626b377229c10585ec392f8a,626b3bc817aabf30cec2b147,,,,,,,,,,,,,,,,,,,,,,,a,0,1.2532,"[""0.326"",""0.380"",""0.605"",""0.753""]","[0,1,1,1]",0,51,51,51,1,1,1,,,0,FALSE,,,,,,,,,,,,,,,,,,,,,,,,,,,,,,
,60b651381aa0911cce208974,001,2022-04-28_20h14.38.990,classification_task,2021.2.3,Win32,59.672992,60b651381aa0911cce208974,626b377229c10585ec392f8a,626b3bc817aabf30cec2b147,,,,,,,,,,,,,,,,,,,,,,,l,0,1.2336,"[""0.714"",""0.560"",""0.674"",""0.962""]","[0,1,1,1]",0,52,52,52,1,0,0,,,0,FALSE,,,,,,,,,,,,,,,,,,,,,,,,,,,,,,
,60b651381aa0911cce208974,001,2022-04-28_20h14.38.990,classification_task,2021.2.3,Win32,59.672992,60b651381aa0911cce208974,626b377229c10585ec392f8a,626b3bc817aabf30cec2b147,,,,,,,,,,,,,,,,,,,,,,,a,1,1.8524,"[""0.159"",""0.416"",""0.639"",""0.925""]","[1,1,0,1]",0,53,53,53,1,0,1,,,0,FALSE,,,,,,,,,,,,,,,,,,,,,,,,,,,,,,
,60b651381aa0911cce208974,001,2022-04-28_20h14.38.990,classification_task,2021.2.3,Win32,59.672992,60b651381aa0911cce208974,626b377229c10585ec392f8a,626b3bc817aabf30cec2b147,,,,,,,,,,,,,,,,,,,,,,,l,1,1.1327,"[""0.048"",""0.380"",""0.326"",""0.753""]","[1,1,0,1]",0,54,54,54,1,1,1,,,0,FALSE,,,,,,,,,,,,,,,,,,,,,,,,,,,,,,
,60b651381aa0911cce208974,001,2022-04-28_20h14.38.990,classification_task,2021.2.3,Win32,59.672992,60b651381aa0911cce208974,626b377229c10585ec392f8a,626b3bc817aabf30cec2b147,,,,,,,,,,,,,,,,,,,,,,,l,1,1.8905,"[""0.094"",""0.225"",""0.709"",""0.832""]","[1,1,0,1]",0,55,55,55,1,1,0,,,0,FALSE,,,,,,,,,,,,,,,,,,,,,,,,,,,,,,
,60b651381aa0911cce208974,001,2022-04-28_20h14.38.990,classification_task,2021.2.3,Win32,59.672992,60b651381aa0911cce208974,626b377229c10585ec392f8a,626b3bc817aabf30cec2b147,,,,,,,,,,,,,,,,,,,,,,,l,1,1.4784,"[""0.048"",""0.380"",""0.605"",""0.714""]","[1,1,1,0]",0,56,56,56,1,1,1,,,0,FALSE,,,,,,,,,,,,,,,,,,,,,,,,,,,,,,
,60b651381aa0911cce208974,001,2022-04-28_20h14.38.990,classification_task,2021.2.3,Win32,59.672992,60b651381aa0911cce208974,626b377229c10585ec392f8a,626b3bc817aabf30cec2b147,,,,,,,,,,,,,,,,,,,,,,,l,1,1.656,"[""0.048"",""0.709"",""0.605"",""0.753""]","[1,0,1,1]",0,57,57,57,1,1,1,,,0,FALSE,,,,,,,,,,,,,,,,,,,,,,,,,,,,,,
,60b651381aa0911cce208974,001,2022-04-28_20h14.38.990,classification_task,2021.2.3,Win32,59.672992,60b651381aa0911cce208974,626b377229c10585ec392f8a,626b3bc817aabf30cec2b147,,,,,,,,,,,,,,,,,,,,,,,a,0,1.4822,"[""0.709"",""0.225"",""0.473"",""0.832""]","[0,1,1,1]",0,58,58,58,1,1,0,,,0,FALSE,,,,,,,,,,,,,,,,,,,,,,,,,,,,,,
,60b651381aa0911cce208974,001,2022-04-28_20h14.38.990,classification_task,2021.2.3,Win32,59.672992,60b651381aa0911cce208974,626b377229c10585ec392f8a,626b3bc817aabf30cec2b147,,,,,,,,,,,,,,,,,,,,,,,a,1,1.3153,"[""0.285"",""0.790"",""0.674"",""0.962""]","[1,0,1,1]",0,59,59,59,1,0,0,,,0,FALSE,,,,,,,,,,,,,,,,,,,,,,,,,,,,,,
,60b651381aa0911cce208974,001,2022-04-28_20h14.38.990,classification_task,2021.2.3,Win32,59.672992,60b651381aa0911cce208974,626b377229c10585ec392f8a,626b3bc817aabf30cec2b147,,,,,,,,,,,,,,,,,,,,,,,a,1,1.4237,"[""0.285"",""0.560"",""0.526"",""0.962""]","[1,1,0,1]",0,60,60,60,1,0,0,,,0,FALSE,,,,,,,,,,,,,,,,,,,,,,,,,,,,,,
,60b651381aa0911cce208974,001,2022-04-28_20h14.38.990,classification_task,2021.2.3,Win32,59.672992,60b651381aa0911cce208974,626b377229c10585ec392f8a,626b3bc817aabf30cec2b147,,,,,,,,,,,,,,,,,,,,,,,l,1,1.2995,"[""0.094"",""0.225"",""0.473"",""0.526""]","[1,1,1,0]",0,61,61,61,1,1,0,,,0,FALSE,,,,,,,,,,,,,,,,,,,,,,,,,,,,,,
,60b651381aa0911cce208974,001,2022-04-28_20h14.38.990,classification_task,2021.2.3,Win32,59.672992,60b651381aa0911cce208974,626b377229c10585ec392f8a,626b3bc817aabf30cec2b147,,,,,,,,,,,,,,,,,,,,,,,l,1,1.4603,"[""0.094"",""0.512"",""0.473"",""0.832""]","[1,0,1,1]",0,62,62,62,1,1,0,,,0,FALSE,,,,,,,,,,,,,,,,,,,,,,,,,,,,,,
,60b651381aa0911cce208974,001,2022-04-28_20h14.38.990,classification_task,2021.2.3,Win32,59.672992,60b651381aa0911cce208974,626b377229c10585ec392f8a,626b3bc817aabf30cec2b147,,,,,,,,,,,,,,,,,,,,,,,a,1,1.5987,"[""0.159"",""0.510"",""0.888"",""0.925""]","[1,0,1,1]",0,63,63,63,1,0,1,,,0,FALSE,,,,,,,,,,,,,,,,,,,,,,,,,,,,,,
,60b651381aa0911cce208974,001,2022-04-28_20h14.38.990,classification_task,2021.2.3,Win32,59.672992,60b651381aa0911cce208974,626b377229c10585ec392f8a,626b3bc817aabf30cec2b147,,,,,,,,,,,,,,,,,,,,,,,,,,,,,,,,,,,,,,,0, ,,0,9.656084656,365.7635,0,0,0,0,1,2,1,,,,,,,,,,,,,,,,,
,60b651381aa0911cce208974,001,2022-04-28_20h14.38.990,classification_task,2021.2.3,Win32,59.672992,60b651381aa0911cce208974,626b377229c10585ec392f8a,626b3bc817aabf30cec2b147,,,,,,,,,,,,,,,,,,,,,,,,,,,,,,,,,,,,,,,1,  ,,0,4.985890653,370.1253,0,0,0,0,1,2,1,,,,,,,,,,,,,,,,,
,60b651381aa0911cce208974,001,2022-04-28_20h14.38.990,classification_task,2021.2.3,Win32,59.672992,60b651381aa0911cce208974,626b377229c10585ec392f8a,626b3bc817aabf30cec2b147,,,,,,,,,,,,,,,,,,,,,,,,,,,,,,,,,,,,,,,2,  ,,0,4.520282187,374.4544,0,0,0,0,1,2,1,,,,,,,,,,,,,,,,,
,60b651381aa0911cce208974,001,2022-04-28_20h14.38.990,classification_task,2021.2.3,Win32,59.672992,60b651381aa0911cce208974,626b377229c10585ec392f8a,626b3bc817aabf30cec2b147,,,,,,,,,,,,,,,,,,,,,,,,,,,,,,,,,,,,,,,,,,,,,0,0,0,0,1,,1,,,,,,,,,,,,,,,,,
,60b651381aa0911cce208974,001,2022-04-28_20h14.38.990,classification_task,2021.2.3,Win32,59.672992,60b651381aa0911cce208974,626b377229c10585ec392f8a,626b3bc817aabf30cec2b147,,,,,,,,,,,,,,,,,,,,,space,5.716,l,1,5.4067,"[""0.341"",""0.225"",""0.473"",""0.832""]","[0,1,1,1]",0,0,0,0,1,1,0,,,0,FALSE,,,,,,,,,,,,,,,,,,,,,,,,,,,,,,
,60b651381aa0911cce208974,001,2022-04-28_20h14.38.990,classification_task,2021.2.3,Win32,59.672992,60b651381aa0911cce208974,626b377229c10585ec392f8a,626b3bc817aabf30cec2b147,,,,,,,,,,,,,,,,,,,,,,,l,1,2.4406,"[""0.048"",""0.380"",""0.605"",""0.515""]","[1,1,1,0]",0,1,1,1,1,1,1,,,0,FALSE,,,,,,,,,,,,,,,,,,,,,,,,,,,,,,
,60b651381aa0911cce208974,001,2022-04-28_20h14.38.990,classification_task,2021.2.3,Win32,59.672992,60b651381aa0911cce208974,626b377229c10585ec392f8a,626b3bc817aabf30cec2b147,,,,,,,,,,,,,,,,,,,,,,,l,1,1.3232,"[""0.094"",""0.330"",""0.473"",""0.832""]","[1,0,1,1]",0,2,2,2,1,1,0,,,0,FALSE,,,,,,,,,,,,,,,,,,,,,,,,,,,,,,
,60b651381aa0911cce208974,001,2022-04-28_20h14.38.990,classification_task,2021.2.3,Win32,59.672992,60b651381aa0911cce208974,626b377229c10585ec392f8a,626b3bc817aabf30cec2b147,,,,,,,,,,,,,,,,,,,,,,,a,0,1.3577,"[""0.639"",""0.380"",""0.605"",""0.753""]","[0,1,1,1]",0,3,3,3,1,1,1,,,0,FALSE,,,,,,,,,,,,,,,,,,,,,,,,,,,,,,
,60b651381aa0911cce208974,001,2022-04-28_20h14.38.990,classification_task,2021.2.3,Win32,59.672992,60b651381aa0911cce208974,626b377229c10585ec392f8a,626b3bc817aabf30cec2b147,,,,,,,,,,,,,,,,,,,,,,,a,1,1.9133,"[""0.713"",""0.560"",""0.674"",""0.962""]","[0,1,1,1]",0,4,4,4,1,0,0,,,0,FALSE,,,,,,,,,,,,,,,,,,,,,,,,,,,,,,
,60b651381aa0911cce208974,001,2022-04-28_20h14.38.990,classification_task,2021.2.3,Win32,59.672992,60b651381aa0911cce208974,626b377229c10585ec392f8a,626b3bc817aabf30cec2b147,,,,,,,,,,,,,,,,,,,,,,,l,0,2.6,"[""0.790"",""0.416"",""0.888"",""0.925""]","[0,1,1,1]",0,5,5,5,1,0,1,,,0,FALSE,,,,,,,,,,,,,,,,,,,,,,,,,,,,,,
,60b651381aa0911cce208974,001,2022-04-28_20h14.38.990,classification_task,2021.2.3,Win32,59.672992,60b651381aa0911cce208974,626b377229c10585ec392f8a,626b3bc817aabf30cec2b147,,,,,,,,,,,,,,,,,,,,,,,l,1,2.6502,"[""0.048"",""0.714"",""0.605"",""0.753""]","[1,0,1,1]",0,6,6,6,1,1,1,,,0,FALSE,,,,,,,,,,,,,,,,,,,,,,,,,,,,,,
,60b651381aa0911cce208974,001,2022-04-28_20h14.38.990,classification_task,2021.2.3,Win32,59.672992,60b651381aa0911cce208974,626b377229c10585ec392f8a,626b3bc817aabf30cec2b147,,,,,,,,,,,,,,,,,,,,,,,l,1,2.219,"[""0.094"",""0.225"",""0.473"",""0.796""]","[1,1,1,0]",0,7,7,7,1,1,0,,,0,FALSE,,,,,,,,,,,,,,,,,,,,,,,,,,,,,,
,60b651381aa0911cce208974,001,2022-04-28_20h14.38.990,classification_task,2021.2.3,Win32,59.672992,60b651381aa0911cce208974,626b377229c10585ec392f8a,626b3bc817aabf30cec2b147,,,,,,,,,,,,,,,,,,,,,,,l,1,1.6176,"[""0.048"",""0.380"",""0.796"",""0.753""]","[1,1,0,1]",0,8,8,8,1,1,1,,,0,FALSE,,,,,,,,,,,,,,,,,,,,,,,,,,,,,,
,60b651381aa0911cce208974,001,2022-04-28_20h14.38.990,classification_task,2021.2.3,Win32,59.672992,60b651381aa0911cce208974,626b377229c10585ec392f8a,626b3bc817aabf30cec2b147,,,,,,,,,,,,,,,,,,,,,,,a,1,1.0874,"[""0.285"",""0.560"",""0.526"",""0.962""]","[1,1,0,1]",0,9,9,9,1,0,0,,,0,FALSE,,,,,,,,,,,,,,,,,,,,,,,,,,,,,,
,60b651381aa0911cce208974,001,2022-04-28_20h14.38.990,classification_task,2021.2.3,Win32,59.672992,60b651381aa0911cce208974,626b377229c10585ec392f8a,626b3bc817aabf30cec2b147,,,,,,,,,,,,,,,,,,,,,,,a,1,1.4443,"[""0.159"",""0.416"",""0.888"",""0.790""]","[1,1,1,0]",0,10,10,10,1,0,1,,,0,FALSE,,,,,,,,,,,,,,,,,,,,,,,,,,,,,,
,60b651381aa0911cce208974,001,2022-04-28_20h14.38.990,classification_task,2021.2.3,Win32,59.672992,60b651381aa0911cce208974,626b377229c10585ec392f8a,626b3bc817aabf30cec2b147,,,,,,,,,,,,,,,,,,,,,,,a,1,1.0332,"[""0.159"",""0.519"",""0.888"",""0.925""]","[1,0,1,1]",0,11,11,11,1,0,1,,,0,FALSE,,,,,,,,,,,,,,,,,,,,,,,,,,,,,,
,60b651381aa0911cce208974,001,2022-04-28_20h14.38.990,classification_task,2021.2.3,Win32,59.672992,60b651381aa0911cce208974,626b377229c10585ec392f8a,626b3bc817aabf30cec2b147,,,,,,,,,,,,,,,,,,,,,,,a,1,0.8021,"[""0.159"",""0.416"",""0.341"",""0.925""]","[1,1,0,1]",0,12,12,12,1,0,1,,,0,FALSE,,,,,,,,,,,,,,,,,,,,,,,,,,,,,,
,60b651381aa0911cce208974,001,2022-04-28_20h14.38.990,classification_task,2021.2.3,Win32,59.672992,60b651381aa0911cce208974,626b377229c10585ec392f8a,626b3bc817aabf30cec2b147,,,,,,,,,,,,,,,,,,,,,,,a,1,1.6253,"[""0.285"",""0.560"",""0.674"",""0.330""]","[1,1,1,0]",0,13,13,13,1,0,0,,,0,FALSE,,,,,,,,,,,,,,,,,,,,,,,,,,,,,,
,60b651381aa0911cce208974,001,2022-04-28_20h14.38.990,classification_task,2021.2.3,Win32,59.672992,60b651381aa0911cce208974,626b377229c10585ec392f8a,626b3bc817aabf30cec2b147,,,,,,,,,,,,,,,,,,,,,,,l,1,0.6881,"[""0.094"",""0.225"",""0.512"",""0.832""]","[1,1,0,1]",0,14,14,14,1,1,0,,,0,FALSE,,,,,,,,,,,,,,,,,,,,,,,,,,,,,,
,60b651381aa0911cce208974,001,2022-04-28_20h14.38.990,classification_task,2021.2.3,Win32,59.672992,60b651381aa0911cce208974,626b377229c10585ec392f8a,626b3bc817aabf30cec2b147,,,,,,,,,,,,,,,,,,,,,,,a,1,0.6539,"[""0.285"",""0.337"",""0.674"",""0.962""]","[1,0,1,1]",0,15,15,15,1,0,0,,,0,FALSE,,,,,,,,,,,,,,,,,,,,,,,,,,,,,,
,60b651381aa0911cce208974,001,2022-04-28_20h14.38.990,classification_task,2021.2.3,Win32,59.672992,60b651381aa0911cce208974,626b377229c10585ec392f8a,626b3bc817aabf30cec2b147,,,,,,,,,,,,,,,,,,,,,,,l,1,1.0162,"[""0.094"",""0.709"",""0.473"",""0.832""]","[1,0,1,1]",0,16,16,16,1,1,0,,,0,FALSE,,,,,,,,,,,,,,,,,,,,,,,,,,,,,,
,60b651381aa0911cce208974,001,2022-04-28_20h14.38.990,classification_task,2021.2.3,Win32,59.672992,60b651381aa0911cce208974,626b377229c10585ec392f8a,626b3bc817aabf30cec2b147,,,,,,,,,,,,,,,,,,,,,,,a,1,0.7044,"[""0.285"",""0.337"",""0.674"",""0.962""]","[1,0,1,1]",0,17,17,17,1,0,0,,,0,FALSE,,,,,,,,,,,,,,,,,,,,,,,,,,,,,,
,60b651381aa0911cce208974,001,2022-04-28_20h14.38.990,classification_task,2021.2.3,Win32,59.672992,60b651381aa0911cce208974,626b377229c10585ec392f8a,626b3bc817aabf30cec2b147,,,,,,,,,,,,,,,,,,,,,,,l,1,0.6135,"[""0.094"",""0.225"",""0.330"",""0.832""]","[1,1,0,1]",0,18,18,18,1,1,0,,,0,FALSE,,,,,,,,,,,,,,,,,,,,,,,,,,,,,,
,60b651381aa0911cce208974,001,2022-04-28_20h14.38.990,classification_task,2021.2.3,Win32,59.672992,60b651381aa0911cce208974,626b377229c10585ec392f8a,626b3bc817aabf30cec2b147,,,,,,,,,,,,,,,,,,,,,,,a,0,2.269,"[""0.337"",""0.380"",""0.605"",""0.753""]","[0,1,1,1]",0,19,19,19,1,1,1,,,0,FALSE,,,,,,,,,,,,,,,,,,,,,,,,,,,,,,
,60b651381aa0911cce208974,001,2022-04-28_20h14.38.990,classification_task,2021.2.3,Win32,59.672992,60b651381aa0911cce208974,626b377229c10585ec392f8a,626b3bc817aabf30cec2b147,,,,,,,,,,,,,,,,,,,,,,,l,1,1.4028,"[""0.048"",""0.380"",""0.605"",""0.510""]","[1,1,1,0]",0,20,20,20,1,1,1,,,0,FALSE,,,,,,,,,,,,,,,,,,,,,,,,,,,,,,
,60b651381aa0911cce208974,001,2022-04-28_20h14.38.990,classification_task,2021.2.3,Win32,59.672992,60b651381aa0911cce208974,626b377229c10585ec392f8a,626b3bc817aabf30cec2b147,,,,,,,,,,,,,,,,,,,,,,,a,1,1.1321,"[""0.639"",""0.560"",""0.674"",""0.962""]","[0,1,1,1]",0,21,21,21,1,0,0,,,0,FALSE,,,,,,,,,,,,,,,,,,,,,,,,,,,,,,
,60b651381aa0911cce208974,001,2022-04-28_20h14.38.990,classification_task,2021.2.3,Win32,59.672992,60b651381aa0911cce208974,626b377229c10585ec392f8a,626b3bc817aabf30cec2b147,,,,,,,,,,,,,,,,,,,,,,,a,1,2.7079,"[""0.285"",""0.560"",""0.674"",""0.790""]","[1,1,1,0]",0,22,22,22,1,0,0,,,0,FALSE,,,,,,,,,,,,,,,,,,,,,,,,,,,,,,
,60b651381aa0911cce208974,001,2022-04-28_20h14.38.990,classification_task,2021.2.3,Win32,59.672992,60b651381aa0911cce208974,626b377229c10585ec392f8a,626b3bc817aabf30cec2b147,,,,,,,,,,,,,,,,,,,,,,,a,1,2.2033,"[""0.159"",""0.416"",""0.337"",""0.925""]","[1,1,0,1]",0,23,23,23,1,0,1,,,0,FALSE,,,,,,,,,,,,,,,,,,,,,,,,,,,,,,
,60b651381aa0911cce208974,001,2022-04-28_20h14.38.990,classification_task,2021.2.3,Win32,59.672992,60b651381aa0911cce208974,626b377229c10585ec392f8a,626b3bc817aabf30cec2b147,,,,,,,,,,,,,,,,,,,,,,,l,1,1.1536,"[""0.094"",""0.225"",""0.473"",""0.515""]","[1,1,1,0]",0,24,24,24,1,1,0,,,0,FALSE,,,,,,,,,,,,,,,,,,,,,,,,,,,,,,
,60b651381aa0911cce208974,001,2022-04-28_20h14.38.990,classification_task,2021.2.3,Win32,59.672992,60b651381aa0911cce208974,626b377229c10585ec392f8a,626b3bc817aabf30cec2b147,,,,,,,,,,,,,,,,,,,,,,,l,1,1.0259,"[""0.519"",""0.225"",""0.473"",""0.832""]","[0,1,1,1]",0,25,25,25,1,1,0,,,0,FALSE,,,,,,,,,,,,,,,,,,,,,,,,,,,,,,
,60b651381aa0911cce208974,001,2022-04-28_20h14.38.990,classification_task,2021.2.3,Win32,59.672992,60b651381aa0911cce208974,626b377229c10585ec392f8a,626b3bc817aabf30cec2b147,,,,,,,,,,,,,,,,,,,,,,,l,1,1.433,"[""0.048"",""0.380"",""0.342"",""0.753""]","[1,1,0,1]",0,26,26,26,1,1,1,,,0,FALSE,,,,,,,,,,,,,,,,,,,,,,,,,,,,,,
,60b651381aa0911cce208974,001,2022-04-28_20h14.38.990,classification_task,2021.2.3,Win32,59.672992,60b651381aa0911cce208974,626b377229c10585ec392f8a,626b3bc817aabf30cec2b147,,,,,,,,,,,,,,,,,,,,,,,a,1,1.5916,"[""0.713"",""0.416"",""0.888"",""0.925""]","[0,1,1,1]",0,27,27,27,1,0,1,,,0,FALSE,,,,,,,,,,,,,,,,,,,,,,,,,,,,,,
,60b651381aa0911cce208974,001,2022-04-28_20h14.38.990,classification_task,2021.2.3,Win32,59.672992,60b651381aa0911cce208974,626b377229c10585ec392f8a,626b3bc817aabf30cec2b147,,,,,,,,,,,,,,,,,,,,,,,a,1,0.8767,"[""0.159"",""0.796"",""0.888"",""0.925""]","[1,0,1,1]",0,28,28,28,1,0,1,,,0,FALSE,,,,,,,,,,,,,,,,,,,,,,,,,,,,,,
,60b651381aa0911cce208974,001,2022-04-28_20h14.38.990,classification_task,2021.2.3,Win32,59.672992,60b651381aa0911cce208974,626b377229c10585ec392f8a,626b3bc817aabf30cec2b147,,,,,,,,,,,,,,,,,,,,,,,a,1,1.5456,"[""0.159"",""0.416"",""0.888"",""0.326""]","[1,1,1,0]",0,29,29,29,1,0,1,,,0,FALSE,,,,,,,,,,,,,,,,,,,,,,,,,,,,,,
,60b651381aa0911cce208974,001,2022-04-28_20h14.38.990,classification_task,2021.2.3,Win32,59.672992,60b651381aa0911cce208974,626b377229c10585ec392f8a,626b3bc817aabf30cec2b147,,,,,,,,,,,,,,,,,,,,,,,l,1,1.1562,"[""0.048"",""0.526"",""0.605"",""0.753""]","[1,0,1,1]",0,30,30,30,1,1,1,,,0,FALSE,,,,,,,,,,,,,,,,,,,,,,,,,,,,,,
,60b651381aa0911cce208974,001,2022-04-28_20h14.38.990,classification_task,2021.2.3,Win32,59.672992,60b651381aa0911cce208974,626b377229c10585ec392f8a,626b3bc817aabf30cec2b147,,,,,,,,,,,,,,,,,,,,,,,a,1,1.0496,"[""0.285"",""0.560"",""0.639"",""0.962""]","[1,1,0,1]",0,31,31,31,1,0,0,,,0,FALSE,,,,,,,,,,,,,,,,,,,,,,,,,,,,,,
,60b651381aa0911cce208974,001,2022-04-28_20h14.38.990,classification_task,2021.2.3,Win32,59.672992,60b651381aa0911cce208974,626b377229c10585ec392f8a,626b3bc817aabf30cec2b147,,,,,,,,,,,,,,,,,,,,,,,a,1,3.127,"[""0.285"",""0.560"",""0.330"",""0.962""]","[1,1,0,1]",0,32,32,32,1,0,0,,,0,FALSE,,,,,,,,,,,,,,,,,,,,,,,,,,,,,,
,60b651381aa0911cce208974,001,2022-04-28_20h14.38.990,classification_task,2021.2.3,Win32,59.672992,60b651381aa0911cce208974,626b377229c10585ec392f8a,626b3bc817aabf30cec2b147,,,,,,,,,,,,,,,,,,,,,,,l,1,1.2541,"[""0.048"",""0.380"",""0.713"",""0.753""]","[1,1,0,1]",0,33,33,33,1,1,1,,,0,FALSE,,,,,,,,,,,,,,,,,,,,,,,,,,,,,,
,60b651381aa0911cce208974,001,2022-04-28_20h14.38.990,classification_task,2021.2.3,Win32,59.672992,60b651381aa0911cce208974,626b377229c10585ec392f8a,626b3bc817aabf30cec2b147,,,,,,,,,,,,,,,,,,,,,,,a,0,2.5655,"[""0.326"",""0.380"",""0.605"",""0.753""]","[0,1,1,1]",0,34,34,34,1,1,1,,,0,FALSE,,,,,,,,,,,,,,,,,,,,,,,,,,,,,,
,60b651381aa0911cce208974,001,2022-04-28_20h14.38.990,classification_task,2021.2.3,Win32,59.672992,60b651381aa0911cce208974,626b377229c10585ec392f8a,626b3bc817aabf30cec2b147,,,,,,,,,,,,,,,,,,,,,,,a,1,1.4059,"[""0.285"",""0.560"",""0.674"",""0.526""]","[1,1,1,0]",0,35,35,35,1,0,0,,,0,FALSE,,,,,,,,,,,,,,,,,,,,,,,,,,,,,,
,60b651381aa0911cce208974,001,2022-04-28_20h14.38.990,classification_task,2021.2.3,Win32,59.672992,60b651381aa0911cce208974,626b377229c10585ec392f8a,626b3bc817aabf30cec2b147,,,,,,,,,,,,,,,,,,,,,,,a,1,1.4761,"[""0.159"",""0.416"",""0.888"",""0.337""]","[1,1,1,0]",0,36,36,36,1,0,1,,,0,FALSE,,,,,,,,,,,,,,,,,,,,,,,,,,,,,,
,60b651381aa0911cce208974,001,2022-04-28_20h14.38.990,classification_task,2021.2.3,Win32,59.672992,60b651381aa0911cce208974,626b377229c10585ec392f8a,626b3bc817aabf30cec2b147,,,,,,,,,,,,,,,,,,,,,,,a,1,1.3569,"[""0.159"",""0.416"",""0.341"",""0.925""]","[1,1,0,1]",0,37,37,37,1,0,1,,,0,FALSE,,,,,,,,,,,,,,,,,,,,,,,,,,,,,,
,60b651381aa0911cce208974,001,2022-04-28_20h14.38.990,classification_task,2021.2.3,Win32,59.672992,60b651381aa0911cce208974,626b377229c10585ec392f8a,626b3bc817aabf30cec2b147,,,,,,,,,,,,,,,,,,,,,,,a,1,1.8781,"[""0.341"",""0.416"",""0.888"",""0.925""]","[0,1,1,1]",0,38,38,38,1,0,1,,,0,FALSE,,,,,,,,,,,,,,,,,,,,,,,,,,,,,,
,60b651381aa0911cce208974,001,2022-04-28_20h14.38.990,classification_task,2021.2.3,Win32,59.672992,60b651381aa0911cce208974,626b377229c10585ec392f8a,626b3bc817aabf30cec2b147,,,,,,,,,,,,,,,,,,,,,,,l,1,1.0967,"[""0.048"",""0.380"",""0.605"",""0.713""]","[1,1,1,0]",0,39,39,39,1,1,1,,,0,FALSE,,,,,,,,,,,,,,,,,,,,,,,,,,,,,,
,60b651381aa0911cce208974,001,2022-04-28_20h14.38.990,classification_task,2021.2.3,Win32,59.672992,60b651381aa0911cce208974,626b377229c10585ec392f8a,626b3bc817aabf30cec2b147,,,,,,,,,,,,,,,,,,,,,,,l,1,1.5464,"[""0.048"",""0.796"",""0.605"",""0.753""]","[1,0,1,1]",0,40,40,40,1,1,1,,,0,FALSE,,,,,,,,,,,,,,,,,,,,,,,,,,,,,,
,60b651381aa0911cce208974,001,2022-04-28_20h14.38.990,classification_task,2021.2.3,Win32,59.672992,60b651381aa0911cce208974,626b377229c10585ec392f8a,626b3bc817aabf30cec2b147,,,,,,,,,,,,,,,,,,,,,,,l,1,0.7503,"[""0.094"",""0.225"",""0.473"",""0.790""]","[1,1,1,0]",0,41,41,41,1,1,0,,,0,FALSE,,,,,,,,,,,,,,,,,,,,,,,,,,,,,,
,60b651381aa0911cce208974,001,2022-04-28_20h14.38.990,classification_task,2021.2.3,Win32,59.672992,60b651381aa0911cce208974,626b377229c10585ec392f8a,626b3bc817aabf30cec2b147,,,,,,,,,,,,,,,,,,,,,,,a,1,1.7857,"[""0.159"",""0.510"",""0.888"",""0.925""]","[1,0,1,1]",0,42,42,42,1,0,1,,,0,FALSE,,,,,,,,,,,,,,,,,,,,,,,,,,,,,,
,60b651381aa0911cce208974,001,2022-04-28_20h14.38.990,classification_task,2021.2.3,Win32,59.672992,60b651381aa0911cce208974,626b377229c10585ec392f8a,626b3bc817aabf30cec2b147,,,,,,,,,,,,,,,,,,,,,,,l,1,0.9061,"[""0.515"",""0.225"",""0.473"",""0.832""]","[0,1,1,1]",0,43,43,43,1,1,0,,,0,FALSE,,,,,,,,,,,,,,,,,,,,,,,,,,,,,,
,60b651381aa0911cce208974,001,2022-04-28_20h14.38.990,classification_task,2021.2.3,Win32,59.672992,60b651381aa0911cce208974,626b377229c10585ec392f8a,626b3bc817aabf30cec2b147,,,,,,,,,,,,,,,,,,,,,,,l,1,1.1014,"[""0.094"",""0.330"",""0.473"",""0.832""]","[1,0,1,1]",0,44,44,44,1,1,0,,,0,FALSE,,,,,,,,,,,,,,,,,,,,,,,,,,,,,,
,60b651381aa0911cce208974,001,2022-04-28_20h14.38.990,classification_task,2021.2.3,Win32,59.672992,60b651381aa0911cce208974,626b377229c10585ec392f8a,626b3bc817aabf30cec2b147,,,,,,,,,,,,,,,,,,,,,,,a,1,0.9659,"[""0.326"",""0.560"",""0.674"",""0.962""]","[0,1,1,1]",0,45,45,45,1,0,0,,,0,FALSE,,,,,,,,,,,,,,,,,,,,,,,,,,,,,,
,60b651381aa0911cce208974,001,2022-04-28_20h14.38.990,classification_task,2021.2.3,Win32,59.672992,60b651381aa0911cce208974,626b377229c10585ec392f8a,626b3bc817aabf30cec2b147,,,,,,,,,,,,,,,,,,,,,,,a,1,1.2282,"[""0.285"",""0.713"",""0.674"",""0.962""]","[1,0,1,1]",0,46,46,46,1,0,0,,,0,FALSE,,,,,,,,,,,,,,,,,,,,,,,,,,,,,,
,60b651381aa0911cce208974,001,2022-04-28_20h14.38.990,classification_task,2021.2.3,Win32,59.672992,60b651381aa0911cce208974,626b377229c10585ec392f8a,626b3bc817aabf30cec2b147,,,,,,,,,,,,,,,,,,,,,,,l,1,1.5812,"[""0.094"",""0.225"",""0.714"",""0.832""]","[1,1,0,1]",0,47,47,47,1,1,0,,,0,FALSE,,,,,,,,,,,,,,,,,,,,,,,,,,,,,,
,60b651381aa0911cce208974,001,2022-04-28_20h14.38.990,classification_task,2021.2.3,Win32,59.672992,60b651381aa0911cce208974,626b377229c10585ec392f8a,626b3bc817aabf30cec2b147,,,,,,,,,,,,,,,,,,,,,,,a,1,0.7431,"[""0.285"",""0.560"",""0.674"",""0.510""]","[1,1,1,0]",0,48,48,48,1,0,0,,,0,FALSE,,,,,,,,,,,,,,,,,,,,,,,,,,,,,,
,60b651381aa0911cce208974,001,2022-04-28_20h14.38.990,classification_task,2021.2.3,Win32,59.672992,60b651381aa0911cce208974,626b377229c10585ec392f8a,626b3bc817aabf30cec2b147,,,,,,,,,,,,,,,,,,,,,,,a,1,0.8,"[""0.285"",""0.560"",""0.714"",""0.962""]","[1,1,0,1]",0,49,49,49,1,0,0,,,0,FALSE,,,,,,,,,,,,,,,,,,,,,,,,,,,,,,
,60b651381aa0911cce208974,001,2022-04-28_20h14.38.990,classification_task,2021.2.3,Win32,59.672992,60b651381aa0911cce208974,626b377229c10585ec392f8a,626b3bc817aabf30cec2b147,,,,,,,,,,,,,,,,,,,,,,,l,1,0.6484,"[""0.094"",""0.225"",""0.526"",""0.832""]","[1,1,0,1]",0,50,50,50,1,1,0,,,0,FALSE,,,,,,,,,,,,,,,,,,,,,,,,,,,,,,
,60b651381aa0911cce208974,001,2022-04-28_20h14.38.990,classification_task,2021.2.3,Win32,59.672992,60b651381aa0911cce208974,626b377229c10585ec392f8a,626b3bc817aabf30cec2b147,,,,,,,,,,,,,,,,,,,,,,,l,1,1.6878,"[""0.048"",""0.380"",""0.605"",""0.714""]","[1,1,1,0]",0,51,51,51,1,1,1,,,0,FALSE,,,,,,,,,,,,,,,,,,,,,,,,,,,,,,
,60b651381aa0911cce208974,001,2022-04-28_20h14.38.990,classification_task,2021.2.3,Win32,59.672992,60b651381aa0911cce208974,626b377229c10585ec392f8a,626b3bc817aabf30cec2b147,,,,,,,,,,,,,,,,,,,,,,,l,1,0.8744,"[""0.512"",""0.225"",""0.473"",""0.832""]","[0,1,1,1]",0,52,52,52,1,1,0,,,0,FALSE,,,,,,,,,,,,,,,,,,,,,,,,,,,,,,
,60b651381aa0911cce208974,001,2022-04-28_20h14.38.990,classification_task,2021.2.3,Win32,59.672992,60b651381aa0911cce208974,626b377229c10585ec392f8a,626b3bc817aabf30cec2b147,,,,,,,,,,,,,,,,,,,,,,,l,1,1.6047,"[""0.048"",""0.380"",""0.714"",""0.753""]","[1,1,0,1]",0,53,53,53,1,1,1,,,0,FALSE,,,,,,,,,,,,,,,,,,,,,,,,,,,,,,
,60b651381aa0911cce208974,001,2022-04-28_20h14.38.990,classification_task,2021.2.3,Win32,59.672992,60b651381aa0911cce208974,626b377229c10585ec392f8a,626b3bc817aabf30cec2b147,,,,,,,,,,,,,,,,,,,,,,,a,0,2.2653,"[""0.510"",""0.380"",""0.605"",""0.753""]","[0,1,1,1]",0,54,54,54,1,1,1,,,0,FALSE,,,,,,,,,,,,,,,,,,,,,,,,,,,,,,
,60b651381aa0911cce208974,001,2022-04-28_20h14.38.990,classification_task,2021.2.3,Win32,59.672992,60b651381aa0911cce208974,626b377229c10585ec392f8a,626b3bc817aabf30cec2b147,,,,,,,,,,,,,,,,,,,,,,,l,1,0.9599,"[""0.094"",""0.526"",""0.473"",""0.832""]","[1,0,1,1]",0,55,55,55,1,1,0,,,0,FALSE,,,,,,,,,,,,,,,,,,,,,,,,,,,,,,
,60b651381aa0911cce208974,001,2022-04-28_20h14.38.990,classification_task,2021.2.3,Win32,59.672992,60b651381aa0911cce208974,626b377229c10585ec392f8a,626b3bc817aabf30cec2b147,,,,,,,,,,,,,,,,,,,,,,,a,1,0.8509,"[""0.285"",""0.337"",""0.674"",""0.962""]","[1,0,1,1]",0,56,56,56,1,0,0,,,0,FALSE,,,,,,,,,,,,,,,,,,,,,,,,,,,,,,
,60b651381aa0911cce208974,001,2022-04-28_20h14.38.990,classification_task,2021.2.3,Win32,59.672992,60b651381aa0911cce208974,626b377229c10585ec392f8a,626b3bc817aabf30cec2b147,,,,,,,,,,,,,,,,,,,,,,,l,1,0.9907,"[""0.048"",""0.515"",""0.605"",""0.753""]","[1,0,1,1]",0,57,57,57,1,1,1,,,0,FALSE,,,,,,,,,,,,,,,,,,,,,,,,,,,,,,
,60b651381aa0911cce208974,001,2022-04-28_20h14.38.990,classification_task,2021.2.3,Win32,59.672992,60b651381aa0911cce208974,626b377229c10585ec392f8a,626b3bc817aabf30cec2b147,,,,,,,,,,,,,,,,,,,,,,,a,1,1.6184,"[""0.519"",""0.416"",""0.888"",""0.925""]","[0,1,1,1]",0,58,58,58,1,0,1,,,0,FALSE,,,,,,,,,,,,,,,,,,,,,,,,,,,,,,
,60b651381aa0911cce208974,001,2022-04-28_20h14.38.990,classification_task,2021.2.3,Win32,59.672992,60b651381aa0911cce208974,626b377229c10585ec392f8a,626b3bc817aabf30cec2b147,,,,,,,,,,,,,,,,,,,,,,,a,1,1.6072,"[""0.159"",""0.341"",""0.888"",""0.925""]","[1,0,1,1]",0,59,59,59,1,0,1,,,0,FALSE,,,,,,,,,,,,,,,,,,,,,,,,,,,,,,
,60b651381aa0911cce208974,001,2022-04-28_20h14.38.990,classification_task,2021.2.3,Win32,59.672992,60b651381aa0911cce208974,626b377229c10585ec392f8a,626b3bc817aabf30cec2b147,,,,,,,,,,,,,,,,,,,,,,,a,1,1.4245,"[""0.159"",""0.416"",""0.888"",""0.796""]","[1,1,1,0]",0,60,60,60,1,0,1,,,0,FALSE,,,,,,,,,,,,,,,,,,,,,,,,,,,,,,
,60b651381aa0911cce208974,001,2022-04-28_20h14.38.990,classification_task,2021.2.3,Win32,59.672992,60b651381aa0911cce208974,626b377229c10585ec392f8a,626b3bc817aabf30cec2b147,,,,,,,,,,,,,,,,,,,,,,,a,1,0.8053,"[""0.326"",""0.560"",""0.674"",""0.962""]","[0,1,1,1]",0,61,61,61,1,0,0,,,0,FALSE,,,,,,,,,,,,,,,,,,,,,,,,,,,,,,
,60b651381aa0911cce208974,001,2022-04-28_20h14.38.990,classification_task,2021.2.3,Win32,59.672992,60b651381aa0911cce208974,626b377229c10585ec392f8a,626b3bc817aabf30cec2b147,,,,,,,,,,,,,,,,,,,,,,,a,1,1.1369,"[""0.159"",""0.416"",""0.526"",""0.925""]","[1,1,0,1]",0,62,62,62,1,0,1,,,0,FALSE,,,,,,,,,,,,,,,,,,,,,,,,,,,,,,
,60b651381aa0911cce208974,001,2022-04-28_20h14.38.990,classification_task,2021.2.3,Win32,59.672992,60b651381aa0911cce208974,626b377229c10585ec392f8a,626b3bc817aabf30cec2b147,,,,,,,,,,,,,,,,,,,,,,,l,1,0.7056,"[""0.094"",""0.225"",""0.473"",""0.713""]","[1,1,1,0]",0,63,63,63,1,1,0,,,0,FALSE,,,,,,,,,,,,,,,,,,,,,,,,,,,,,,
,60b651381aa0911cce208974,001,2022-04-28_20h14.38.990,classification_task,2021.2.3,Win32,59.672992,60b651381aa0911cce208974,626b377229c10585ec392f8a,626b3bc817aabf30cec2b147,,,,,,,,,,,,,,,,,,,,,,,,,,,,,,,,,,,,,,,0, ,,0,6.622574956,168.8523,0,1,1,1,1,2,2,,,,,,,,,,,,,,,,,
,60b651381aa0911cce208974,001,2022-04-28_20h14.38.990,classification_task,2021.2.3,Win32,59.672992,60b651381aa0911cce208974,626b377229c10585ec392f8a,626b3bc817aabf30cec2b147,,,,,,,,,,,,,,,,,,,,,,,,,,,,,,,,,,,,,,,1,  ,,0,2.502645503,173.8821,0,1,1,1,1,2,2,,,,,,,,,,,,,,,,,
,60b651381aa0911cce208974,001,2022-04-28_20h14.38.990,classification_task,2021.2.3,Win32,59.672992,60b651381aa0911cce208974,626b377229c10585ec392f8a,626b3bc817aabf30cec2b147,,,,,,,,,,,,,,,,,,,,,,,,,,,,,,,,,,,,,,,2,  ,,0,1.388007055,177.5897,0,1,1,1,1,2,2,,,,,,,,,,,,,,,,,
,60b651381aa0911cce208974,001,2022-04-28_20h14.38.990,classification_task,2021.2.3,Win32,59.672992,60b651381aa0911cce208974,626b377229c10585ec392f8a,626b3bc817aabf30cec2b147,,,,,,,,,,,,,,,,,,,,,,,,,,,,,,,,,,,,,,,,,,,,,0,1,1,1,1,,2,,,,,,,,,,,,,,,,,
,60b651381aa0911cce208974,001,2022-04-28_20h14.38.990,classification_task,2021.2.3,Win32,59.672992,60b651381aa0911cce208974,626b377229c10585ec392f8a,626b3bc817aabf30cec2b147,,,,,,,,,,,,,,,,,,,,,space,5.4667,l,1,2.1031,"[""0.048"",""0.380"",""0.519"",""0.753""]","[1,1,0,1]",0,0,0,0,1,1,1,,,0,FALSE,,,,,,,,,,,,,,,,,,,,,,,,,,,,,,
,60b651381aa0911cce208974,001,2022-04-28_20h14.38.990,classification_task,2021.2.3,Win32,59.672992,60b651381aa0911cce208974,626b377229c10585ec392f8a,626b3bc817aabf30cec2b147,,,,,,,,,,,,,,,,,,,,,,,a,1,2.1637,"[""0.796"",""0.560"",""0.674"",""0.962""]","[0,1,1,1]",0,1,1,1,1,0,0,,,0,FALSE,,,,,,,,,,,,,,,,,,,,,,,,,,,,,,
,60b651381aa0911cce208974,001,2022-04-28_20h14.38.990,classification_task,2021.2.3,Win32,59.672992,60b651381aa0911cce208974,626b377229c10585ec392f8a,626b3bc817aabf30cec2b147,,,,,,,,,,,,,,,,,,,,,,,a,1,2.1179,"[""0.159"",""0.416"",""0.888"",""0.342""]","[1,1,1,0]",0,2,2,2,1,0,1,,,0,FALSE,,,,,,,,,,,,,,,,,,,,,,,,,,,,,,
,60b651381aa0911cce208974,001,2022-04-28_20h14.38.990,classification_task,2021.2.3,Win32,59.672992,60b651381aa0911cce208974,626b377229c10585ec392f8a,626b3bc817aabf30cec2b147,,,,,,,,,,,,,,,,,,,,,,,a,1,1.2782,"[""0.159"",""0.416"",""0.337"",""0.925""]","[1,1,0,1]",0,3,3,3,1,0,1,,,0,FALSE,,,,,,,,,,,,,,,,,,,,,,,,,,,,,,
,60b651381aa0911cce208974,001,2022-04-28_20h14.38.990,classification_task,2021.2.3,Win32,59.672992,60b651381aa0911cce208974,626b377229c10585ec392f8a,626b3bc817aabf30cec2b147,,,,,,,,,,,,,,,,,,,,,,,a,0,1.5236,"[""0.714"",""0.380"",""0.605"",""0.753""]","[0,1,1,1]",0,4,4,4,1,1,1,,,0,FALSE,,,,,,,,,,,,,,,,,,,,,,,,,,,,,,
,60b651381aa0911cce208974,001,2022-04-28_20h14.38.990,classification_task,2021.2.3,Win32,59.672992,60b651381aa0911cce208974,626b377229c10585ec392f8a,626b3bc817aabf30cec2b147,,,,,,,,,,,,,,,,,,,,,,,a,1,1.5049,"[""0.159"",""0.713"",""0.888"",""0.925""]","[1,0,1,1]",0,5,5,5,1,0,1,,,0,FALSE,,,,,,,,,,,,,,,,,,,,,,,,,,,,,,
,60b651381aa0911cce208974,001,2022-04-28_20h14.38.990,classification_task,2021.2.3,Win32,59.672992,60b651381aa0911cce208974,626b377229c10585ec392f8a,626b3bc817aabf30cec2b147,,,,,,,,,,,,,,,,,,,,,,,l,1,1.0145,"[""0.048"",""0.380"",""0.605"",""0.796""]","[1,1,1,0]",0,6,6,6,1,1,1,,,0,FALSE,,,,,,,,,,,,,,,,,,,,,,,,,,,,,,
,60b651381aa0911cce208974,001,2022-04-28_20h14.38.990,classification_task,2021.2.3,Win32,59.672992,60b651381aa0911cce208974,626b377229c10585ec392f8a,626b3bc817aabf30cec2b147,,,,,,,,,,,,,,,,,,,,,,,a,0,1.726,"[""0.337"",""0.225"",""0.473"",""0.832""]","[0,1,1,1]",0,7,7,7,1,1,0,,,0,FALSE,,,,,,,,,,,,,,,,,,,,,,,,,,,,,,
,60b651381aa0911cce208974,001,2022-04-28_20h14.38.990,classification_task,2021.2.3,Win32,59.672992,60b651381aa0911cce208974,626b377229c10585ec392f8a,626b3bc817aabf30cec2b147,,,,,,,,,,,,,,,,,,,,,,,l,1,1.0588,"[""0.094"",""0.526"",""0.473"",""0.832""]","[1,0,1,1]",0,8,8,8,1,1,0,,,0,FALSE,,,,,,,,,,,,,,,,,,,,,,,,,,,,,,
,60b651381aa0911cce208974,001,2022-04-28_20h14.38.990,classification_task,2021.2.3,Win32,59.672992,60b651381aa0911cce208974,626b377229c10585ec392f8a,626b3bc817aabf30cec2b147,,,,,,,,,,,,,,,,,,,,,,,a,1,1.8922,"[""0.285"",""0.560"",""0.674"",""0.713""]","[1,1,1,0]",0,9,9,9,1,0,0,,,0,FALSE,,,,,,,,,,,,,,,,,,,,,,,,,,,,,,
,60b651381aa0911cce208974,001,2022-04-28_20h14.38.990,classification_task,2021.2.3,Win32,59.672992,60b651381aa0911cce208974,626b377229c10585ec392f8a,626b3bc817aabf30cec2b147,,,,,,,,,,,,,,,,,,,,,,,a,1,1.1584,"[""0.285"",""0.560"",""0.713"",""0.962""]","[1,1,0,1]",0,10,10,10,1,0,0,,,0,FALSE,,,,,,,,,,,,,,,,,,,,,,,,,,,,,,
,60b651381aa0911cce208974,001,2022-04-28_20h14.38.990,classification_task,2021.2.3,Win32,59.672992,60b651381aa0911cce208974,626b377229c10585ec392f8a,626b3bc817aabf30cec2b147,,,,,,,,,,,,,,,,,,,,,,,a,1,0.6832,"[""0.285"",""0.510"",""0.674"",""0.962""]","[1,0,1,1]",0,11,11,11,1,0,0,,,0,FALSE,,,,,,,,,,,,,,,,,,,,,,,,,,,,,,
,60b651381aa0911cce208974,001,2022-04-28_20h14.38.990,classification_task,2021.2.3,Win32,59.672992,60b651381aa0911cce208974,626b377229c10585ec392f8a,626b3bc817aabf30cec2b147,,,,,,,,,,,,,,,,,,,,,,,l,1,0.9188,"[""0.094"",""0.225"",""0.473"",""0.330""]","[1,1,1,0]",0,12,12,12,1,1,0,,,0,FALSE,,,,,,,,,,,,,,,,,,,,,,,,,,,,,,
,60b651381aa0911cce208974,001,2022-04-28_20h14.38.990,classification_task,2021.2.3,Win32,59.672992,60b651381aa0911cce208974,626b377229c10585ec392f8a,626b3bc817aabf30cec2b147,,,,,,,,,,,,,,,,,,,,,,,l,1,1.4478,"[""0.048"",""0.796"",""0.605"",""0.753""]","[1,0,1,1]",0,13,13,13,1,1,1,,,0,FALSE,,,,,,,,,,,,,,,,,,,,,,,,,,,,,,
,60b651381aa0911cce208974,001,2022-04-28_20h14.38.990,classification_task,2021.2.3,Win32,59.672992,60b651381aa0911cce208974,626b377229c10585ec392f8a,626b3bc817aabf30cec2b147,,,,,,,,,,,,,,,,,,,,,,,a,1,1.345,"[""0.515"",""0.416"",""0.888"",""0.925""]","[0,1,1,1]",0,14,14,14,1,0,1,,,0,FALSE,,,,,,,,,,,,,,,,,,,,,,,,,,,,,,
,60b651381aa0911cce208974,001,2022-04-28_20h14.38.990,classification_task,2021.2.3,Win32,59.672992,60b651381aa0911cce208974,626b377229c10585ec392f8a,626b3bc817aabf30cec2b147,,,,,,,,,,,,,,,,,,,,,,,l,1,1.1272,"[""0.094"",""0.225"",""0.341"",""0.832""]","[1,1,0,1]",0,15,15,15,1,1,0,,,0,FALSE,,,,,,,,,,,,,,,,,,,,,,,,,,,,,,
,60b651381aa0911cce208974,001,2022-04-28_20h14.38.990,classification_task,2021.2.3,Win32,59.672992,60b651381aa0911cce208974,626b377229c10585ec392f8a,626b3bc817aabf30cec2b147,,,,,,,,,,,,,,,,,,,,,,,l,1,3.7855,"[""0.326"",""0.380"",""0.605"",""0.753""]","[0,1,1,1]",0,16,16,16,1,1,1,,,0,FALSE,,,,,,,,,,,,,,,,,,,,,,,,,,,,,,
,60b651381aa0911cce208974,001,2022-04-28_20h14.38.990,classification_task,2021.2.3,Win32,59.672992,60b651381aa0911cce208974,626b377229c10585ec392f8a,626b3bc817aabf30cec2b147,,,,,,,,,,,,,,,,,,,,,,,l,1,1.0336,"[""0.048"",""0.380"",""0.342"",""0.753""]","[1,1,0,1]",0,17,17,17,1,1,1,,,0,FALSE,,,,,,,,,,,,,,,,,,,,,,,,,,,,,,
,60b651381aa0911cce208974,001,2022-04-28_20h14.38.990,classification_task,2021.2.3,Win32,59.672992,60b651381aa0911cce208974,626b377229c10585ec392f8a,626b3bc817aabf30cec2b147,,,,,,,,,,,,,,,,,,,,,,,a,1,1.2968,"[""0.159"",""0.341"",""0.888"",""0.925""]","[1,0,1,1]",0,18,18,18,1,0,1,,,0,FALSE,,,,,,,,,,,,,,,,,,,,,,,,,,,,,,
,60b651381aa0911cce208974,001,2022-04-28_20h14.38.990,classification_task,2021.2.3,Win32,59.672992,60b651381aa0911cce208974,626b377229c10585ec392f8a,626b3bc817aabf30cec2b147,,,,,,,,,,,,,,,,,,,,,,,a,1,1.5055,"[""0.515"",""0.560"",""0.674"",""0.962""]","[0,1,1,1]",0,19,19,19,1,0,0,,,0,FALSE,,,,,,,,,,,,,,,,,,,,,,,,,,,,,,
,60b651381aa0911cce208974,001,2022-04-28_20h14.38.990,classification_task,2021.2.3,Win32,59.672992,60b651381aa0911cce208974,626b377229c10585ec392f8a,626b3bc817aabf30cec2b147,,,,,,,,,,,,,,,,,,,,,,,a,1,1.2897,"[""0.337"",""0.416"",""0.888"",""0.925""]","[0,1,1,1]",0,20,20,20,1,0,1,,,0,FALSE,,,,,,,,,,,,,,,,,,,,,,,,,,,,,,
,60b651381aa0911cce208974,001,2022-04-28_20h14.38.990,classification_task,2021.2.3,Win32,59.672992,60b651381aa0911cce208974,626b377229c10585ec392f8a,626b3bc817aabf30cec2b147,,,,,,,,,,,,,,,,,,,,,,,l,1,1.0219,"[""0.094"",""0.225"",""0.790"",""0.832""]","[1,1,0,1]",0,21,21,21,1,1,0,,,0,FALSE,,,,,,,,,,,,,,,,,,,,,,,,,,,,,,
,60b651381aa0911cce208974,001,2022-04-28_20h14.38.990,classification_task,2021.2.3,Win32,59.672992,60b651381aa0911cce208974,626b377229c10585ec392f8a,626b3bc817aabf30cec2b147,,,,,,,,,,,,,,,,,,,,,,,a,1,1.1394,"[""0.285"",""0.560"",""0.341"",""0.962""]","[1,1,0,1]",0,22,22,22,1,0,0,,,0,FALSE,,,,,,,,,,,,,,,,,,,,,,,,,,,,,,
,60b651381aa0911cce208974,001,2022-04-28_20h14.38.990,classification_task,2021.2.3,Win32,59.672992,60b651381aa0911cce208974,626b377229c10585ec392f8a,626b3bc817aabf30cec2b147,,,,,,,,,,,,,,,,,,,,,,,l,1,1.0944,"[""0.048"",""0.337"",""0.605"",""0.753""]","[1,0,1,1]",0,23,23,23,1,1,1,,,0,FALSE,,,,,,,,,,,,,,,,,,,,,,,,,,,,,,
,60b651381aa0911cce208974,001,2022-04-28_20h14.38.990,classification_task,2021.2.3,Win32,59.672992,60b651381aa0911cce208974,626b377229c10585ec392f8a,626b3bc817aabf30cec2b147,,,,,,,,,,,,,,,,,,,,,,,a,1,1.1067,"[""0.159"",""0.416"",""0.790"",""0.925""]","[1,1,0,1]",0,24,24,24,1,0,1,,,0,FALSE,,,,,,,,,,,,,,,,,,,,,,,,,,,,,,
,60b651381aa0911cce208974,001,2022-04-28_20h14.38.990,classification_task,2021.2.3,Win32,59.672992,60b651381aa0911cce208974,626b377229c10585ec392f8a,626b3bc817aabf30cec2b147,,,,,,,,,,,,,,,,,,,,,,,a,0,2.4376,"[""0.094"",""0.225"",""0.473"",""0.342""]","[1,1,1,0]",0,25,25,25,1,1,0,,,0,FALSE,,,,,,,,,,,,,,,,,,,,,,,,,,,,,,
,60b651381aa0911cce208974,001,2022-04-28_20h14.38.990,classification_task,2021.2.3,Win32,59.672992,60b651381aa0911cce208974,626b377229c10585ec392f8a,626b3bc817aabf30cec2b147,,,,,,,,,,,,,,,,,,,,,,,a,1,1.2211,"[""0.159"",""0.416"",""0.888"",""0.639""]","[1,1,1,0]",0,26,26,26,1,0,1,,,0,FALSE,,,,,,,,,,,,,,,,,,,,,,,,,,,,,,
,60b651381aa0911cce208974,001,2022-04-28_20h14.38.990,classification_task,2021.2.3,Win32,59.672992,60b651381aa0911cce208974,626b377229c10585ec392f8a,626b3bc817aabf30cec2b147,,,,,,,,,,,,,,,,,,,,,,,a,1,2.6955,"[""0.285"",""0.560"",""0.674"",""0.326""]","[1,1,1,0]",0,27,27,27,1,0,0,,,0,FALSE,,,,,,,,,,,,,,,,,,,,,,,,,,,,,,
,60b651381aa0911cce208974,001,2022-04-28_20h14.38.990,classification_task,2021.2.3,Win32,59.672992,60b651381aa0911cce208974,626b377229c10585ec392f8a,626b3bc817aabf30cec2b147,,,,,,,,,,,,,,,,,,,,,,,l,1,0.9372,"[""0.048"",""0.380"",""0.605"",""0.639""]","[1,1,1,0]",0,28,28,28,1,1,1,,,0,FALSE,,,,,,,,,,,,,,,,,,,,,,,,,,,,,,
,60b651381aa0911cce208974,001,2022-04-28_20h14.38.990,classification_task,2021.2.3,Win32,59.672992,60b651381aa0911cce208974,626b377229c10585ec392f8a,626b3bc817aabf30cec2b147,,,,,,,,,,,,,,,,,,,,,,,l,0,1.295,"[""0.285"",""0.337"",""0.674"",""0.962""]","[1,0,1,1]",0,29,29,29,1,0,0,,,0,FALSE,,,,,,,,,,,,,,,,,,,,,,,,,,,,,,
,60b651381aa0911cce208974,001,2022-04-28_20h14.38.990,classification_task,2021.2.3,Win32,59.672992,60b651381aa0911cce208974,626b377229c10585ec392f8a,626b3bc817aabf30cec2b147,,,,,,,,,,,,,,,,,,,,,,,l,1,0.8711,"[""0.094"",""0.326"",""0.473"",""0.832""]","[1,0,1,1]",0,30,30,30,1,1,0,,,0,FALSE,,,,,,,,,,,,,,,,,,,,,,,,,,,,,,
,60b651381aa0911cce208974,001,2022-04-28_20h14.38.990,classification_task,2021.2.3,Win32,59.672992,60b651381aa0911cce208974,626b377229c10585ec392f8a,626b3bc817aabf30cec2b147,,,,,,,,,,,,,,,,,,,,,,,a,0,1.072,"[""0.337"",""0.225"",""0.473"",""0.832""]","[0,1,1,1]",0,31,31,31,1,1,0,,,0,FALSE,,,,,,,,,,,,,,,,,,,,,,,,,,,,,,
,60b651381aa0911cce208974,001,2022-04-28_20h14.38.990,classification_task,2021.2.3,Win32,59.672992,60b651381aa0911cce208974,626b377229c10585ec392f8a,626b3bc817aabf30cec2b147,,,,,,,,,,,,,,,,,,,,,,,l,0,2.2152,"[""0.285"",""0.326"",""0.674"",""0.962""]","[1,0,1,1]",0,32,32,32,1,0,0,,,0,FALSE,,,,,,,,,,,,,,,,,,,,,,,,,,,,,,
,60b651381aa0911cce208974,001,2022-04-28_20h14.38.990,classification_task,2021.2.3,Win32,59.672992,60b651381aa0911cce208974,626b377229c10585ec392f8a,626b3bc817aabf30cec2b147,,,,,,,,,,,,,,,,,,,,,,,a,0,0.9042,"[""0.048"",""0.380"",""0.526"",""0.753""]","[1,1,0,1]",0,33,33,33,1,1,1,,,0,FALSE,,,,,,,,,,,,,,,,,,,,,,,,,,,,,,
,60b651381aa0911cce208974,001,2022-04-28_20h14.38.990,classification_task,2021.2.3,Win32,59.672992,60b651381aa0911cce208974,626b377229c10585ec392f8a,626b3bc817aabf30cec2b147,,,,,,,,,,,,,,,,,,,,,,,a,1,1.099,"[""0.330"",""0.560"",""0.674"",""0.962""]","[0,1,1,1]",0,34,34,34,1,0,0,,,0,FALSE,,,,,,,,,,,,,,,,,,,,,,,,,,,,,,
,60b651381aa0911cce208974,001,2022-04-28_20h14.38.990,classification_task,2021.2.3,Win32,59.672992,60b651381aa0911cce208974,626b377229c10585ec392f8a,626b3bc817aabf30cec2b147,,,,,,,,,,,,,,,,,,,,,,,a,1,1.3733,"[""0.159"",""0.416"",""0.713"",""0.925""]","[1,1,0,1]",0,35,35,35,1,0,1,,,0,FALSE,,,,,,,,,,,,,,,,,,,,,,,,,,,,,,
,60b651381aa0911cce208974,001,2022-04-28_20h14.38.990,classification_task,2021.2.3,Win32,59.672992,60b651381aa0911cce208974,626b377229c10585ec392f8a,626b3bc817aabf30cec2b147,,,,,,,,,,,,,,,,,,,,,,,a,0,1.2297,"[""0.341"",""0.380"",""0.605"",""0.753""]","[0,1,1,1]",0,36,36,36,1,1,1,,,0,FALSE,,,,,,,,,,,,,,,,,,,,,,,,,,,,,,
,60b651381aa0911cce208974,001,2022-04-28_20h14.38.990,classification_task,2021.2.3,Win32,59.672992,60b651381aa0911cce208974,626b377229c10585ec392f8a,626b3bc817aabf30cec2b147,,,,,,,,,,,,,,,,,,,,,,,a,1,1.5103,"[""0.159"",""0.639"",""0.888"",""0.925""]","[1,0,1,1]",0,37,37,37,1,0,1,,,0,FALSE,,,,,,,,,,,,,,,,,,,,,,,,,,,,,,
,60b651381aa0911cce208974,001,2022-04-28_20h14.38.990,classification_task,2021.2.3,Win32,59.672992,60b651381aa0911cce208974,626b377229c10585ec392f8a,626b3bc817aabf30cec2b147,,,,,,,,,,,,,,,,,,,,,,,l,1,1.3144,"[""0.048"",""0.639"",""0.605"",""0.753""]","[1,0,1,1]",0,38,38,38,1,1,1,,,0,FALSE,,,,,,,,,,,,,,,,,,,,,,,,,,,,,,
,60b651381aa0911cce208974,001,2022-04-28_20h14.38.990,classification_task,2021.2.3,Win32,59.672992,60b651381aa0911cce208974,626b377229c10585ec392f8a,626b3bc817aabf30cec2b147,,,,,,,,,,,,,,,,,,,,,,,l,1,1.7801,"[""0.094"",""0.337"",""0.473"",""0.832""]","[1,0,1,1]",0,39,39,39,1,1,0,,,0,FALSE,,,,,,,,,,,,,,,,,,,,,,,,,,,,,,
,60b651381aa0911cce208974,001,2022-04-28_20h14.38.990,classification_task,2021.2.3,Win32,59.672992,60b651381aa0911cce208974,626b377229c10585ec392f8a,626b3bc817aabf30cec2b147,,,,,,,,,,,,,,,,,,,,,,,a,1,2.7403,"[""0.510"",""0.416"",""0.888"",""0.925""]","[0,1,1,1]",0,40,40,40,1,0,1,,,0,FALSE,,,,,,,,,,,,,,,,,,,,,,,,,,,,,,
,60b651381aa0911cce208974,001,2022-04-28_20h14.38.990,classification_task,2021.2.3,Win32,59.672992,60b651381aa0911cce208974,626b377229c10585ec392f8a,626b3bc817aabf30cec2b147,,,,,,,,,,,,,,,,,,,,,,,a,1,1.824,"[""0.285"",""0.560"",""0.519"",""0.962""]","[1,1,0,1]",0,41,41,41,1,0,0,,,0,FALSE,,,,,,,,,,,,,,,,,,,,,,,,,,,,,,
,60b651381aa0911cce208974,001,2022-04-28_20h14.38.990,classification_task,2021.2.3,Win32,59.672992,60b651381aa0911cce208974,626b377229c10585ec392f8a,626b3bc817aabf30cec2b147,,,,,,,,,,,,,,,,,,,,,,,l,1,1.2916,"[""0.094"",""0.225"",""0.526"",""0.832""]","[1,1,0,1]",0,42,42,42,1,1,0,,,0,FALSE,,,,,,,,,,,,,,,,,,,,,,,,,,,,,,
,60b651381aa0911cce208974,001,2022-04-28_20h14.38.990,classification_task,2021.2.3,Win32,59.672992,60b651381aa0911cce208974,626b377229c10585ec392f8a,626b3bc817aabf30cec2b147,,,,,,,,,,,,,,,,,,,,,,,l,1,0.9802,"[""0.048"",""0.380"",""0.605"",""0.337""]","[1,1,1,0]",0,43,43,43,1,1,1,,,0,FALSE,,,,,,,,,,,,,,,,,,,,,,,,,,,,,,
,60b651381aa0911cce208974,001,2022-04-28_20h14.38.990,classification_task,2021.2.3,Win32,59.672992,60b651381aa0911cce208974,626b377229c10585ec392f8a,626b3bc817aabf30cec2b147,,,,,,,,,,,,,,,,,,,,,,,a,1,1.2123,"[""0.159"",""0.416"",""0.888"",""0.341""]","[1,1,1,0]",0,44,44,44,1,0,1,,,0,FALSE,,,,,,,,,,,,,,,,,,,,,,,,,,,,,,
,60b651381aa0911cce208974,001,2022-04-28_20h14.38.990,classification_task,2021.2.3,Win32,59.672992,60b651381aa0911cce208974,626b377229c10585ec392f8a,626b3bc817aabf30cec2b147,,,,,,,,,,,,,,,,,,,,,,,a,0,2.5886,"[""0.326"",""0.225"",""0.473"",""0.832""]","[0,1,1,1]",0,45,45,45,1,1,0,,,0,FALSE,,,,,,,,,,,,,,,,,,,,,,,,,,,,,,
,60b651381aa0911cce208974,001,2022-04-28_20h14.38.990,classification_task,2021.2.3,Win32,59.672992,60b651381aa0911cce208974,626b377229c10585ec392f8a,626b3bc817aabf30cec2b147,,,,,,,,,,,,,,,,,,,,,,,a,1,2.7448,"[""0.285"",""0.560"",""0.674"",""0.519""]","[1,1,1,0]",0,46,46,46,1,0,0,,,0,FALSE,,,,,,,,,,,,,,,,,,,,,,,,,,,,,,
,60b651381aa0911cce208974,001,2022-04-28_20h14.38.990,classification_task,2021.2.3,Win32,59.672992,60b651381aa0911cce208974,626b377229c10585ec392f8a,626b3bc817aabf30cec2b147,,,,,,,,,,,,,,,,,,,,,,,l,1,1.3785,"[""0.094"",""0.225"",""0.473"",""0.714""]","[1,1,1,0]",0,47,47,47,1,1,0,,,0,FALSE,,,,,,,,,,,,,,,,,,,,,,,,,,,,,,
,60b651381aa0911cce208974,001,2022-04-28_20h14.38.990,classification_task,2021.2.3,Win32,59.672992,60b651381aa0911cce208974,626b377229c10585ec392f8a,626b3bc817aabf30cec2b147,,,,,,,,,,,,,,,,,,,,,,,l,1,1.3841,"[""0.048"",""0.380"",""0.342"",""0.753""]","[1,1,0,1]",0,48,48,48,1,1,1,,,0,FALSE,,,,,,,,,,,,,,,,,,,,,,,,,,,,,,
,60b651381aa0911cce208974,001,2022-04-28_20h14.38.990,classification_task,2021.2.3,Win32,59.672992,60b651381aa0911cce208974,626b377229c10585ec392f8a,626b3bc817aabf30cec2b147,,,,,,,,,,,,,,,,,,,,,,,l,1,1.1993,"[""0.094"",""0.225"",""0.639"",""0.832""]","[1,1,0,1]",0,49,49,49,1,1,0,,,0,FALSE,,,,,,,,,,,,,,,,,,,,,,,,,,,,,,
,60b651381aa0911cce208974,001,2022-04-28_20h14.38.990,classification_task,2021.2.3,Win32,59.672992,60b651381aa0911cce208974,626b377229c10585ec392f8a,626b3bc817aabf30cec2b147,,,,,,,,,,,,,,,,,,,,,,,l,1,1.6123,"[""0.094"",""0.225"",""0.473"",""0.510""]","[1,1,1,0]",0,50,50,50,1,1,0,,,0,FALSE,,,,,,,,,,,,,,,,,,,,,,,,,,,,,,
,60b651381aa0911cce208974,001,2022-04-28_20h14.38.990,classification_task,2021.2.3,Win32,59.672992,60b651381aa0911cce208974,626b377229c10585ec392f8a,626b3bc817aabf30cec2b147,,,,,,,,,,,,,,,,,,,,,,,l,1,1.1373,"[""0.094"",""0.709"",""0.473"",""0.832""]","[1,0,1,1]",0,51,51,51,1,1,0,,,0,FALSE,,,,,,,,,,,,,,,,,,,,,,,,,,,,,,
,60b651381aa0911cce208974,001,2022-04-28_20h14.38.990,classification_task,2021.2.3,Win32,59.672992,60b651381aa0911cce208974,626b377229c10585ec392f8a,626b3bc817aabf30cec2b147,,,,,,,,,,,,,,,,,,,,,,,a,1,1.2212,"[""0.285"",""0.560"",""0.674"",""0.512""]","[1,1,1,0]",0,52,52,52,1,0,0,,,0,FALSE,,,,,,,,,,,,,,,,,,,,,,,,,,,,,,
,60b651381aa0911cce208974,001,2022-04-28_20h14.38.990,classification_task,2021.2.3,Win32,59.672992,60b651381aa0911cce208974,626b377229c10585ec392f8a,626b3bc817aabf30cec2b147,,,,,,,,,,,,,,,,,,,,,,,l,1,1.2916,"[""0.048"",""0.337"",""0.605"",""0.753""]","[1,0,1,1]",0,53,53,53,1,1,1,,,0,FALSE,,,,,,,,,,,,,,,,,,,,,,,,,,,,,,
,60b651381aa0911cce208974,001,2022-04-28_20h14.38.990,classification_task,2021.2.3,Win32,59.672992,60b651381aa0911cce208974,626b377229c10585ec392f8a,626b3bc817aabf30cec2b147,,,,,,,,,,,,,,,,,,,,,,,a,1,1.27,"[""0.639"",""0.416"",""0.888"",""0.925""]","[0,1,1,1]",0,54,54,54,1,0,1,,,0,FALSE,,,,,,,,,,,,,,,,,,,,,,,,,,,,,,
,60b651381aa0911cce208974,001,2022-04-28_20h14.38.990,classification_task,2021.2.3,Win32,59.672992,60b651381aa0911cce208974,626b377229c10585ec392f8a,626b3bc817aabf30cec2b147,,,,,,,,,,,,,,,,,,,,,,,a,1,1.2336,"[""0.159"",""0.416"",""0.515"",""0.925""]","[1,1,0,1]",0,55,55,55,1,0,1,,,0,FALSE,,,,,,,,,,,,,,,,,,,,,,,,,,,,,,
,60b651381aa0911cce208974,001,2022-04-28_20h14.38.990,classification_task,2021.2.3,Win32,59.672992,60b651381aa0911cce208974,626b377229c10585ec392f8a,626b3bc817aabf30cec2b147,,,,,,,,,,,,,,,,,,,,,,,l,1,1.12,"[""0.048"",""0.380"",""0.605"",""0.519""]","[1,1,1,0]",0,56,56,56,1,1,1,,,0,FALSE,,,,,,,,,,,,,,,,,,,,,,,,,,,,,,
,60b651381aa0911cce208974,001,2022-04-28_20h14.38.990,classification_task,2021.2.3,Win32,59.672992,60b651381aa0911cce208974,626b377229c10585ec392f8a,626b3bc817aabf30cec2b147,,,,,,,,,,,,,,,,,,,,,,,a,0,2.1128,"[""0.512"",""0.225"",""0.473"",""0.832""]","[0,1,1,1]",0,57,57,57,1,1,0,,,0,FALSE,,,,,,,,,,,,,,,,,,,,,,,,,,,,,,
,60b651381aa0911cce208974,001,2022-04-28_20h14.38.990,classification_task,2021.2.3,Win32,59.672992,60b651381aa0911cce208974,626b377229c10585ec392f8a,626b3bc817aabf30cec2b147,,,,,,,,,,,,,,,,,,,,,,,a,1,1.8387,"[""0.159"",""0.790"",""0.888"",""0.925""]","[1,0,1,1]",0,58,58,58,1,0,1,,,0,FALSE,,,,,,,,,,,,,,,,,,,,,,,,,,,,,,
,60b651381aa0911cce208974,001,2022-04-28_20h14.38.990,classification_task,2021.2.3,Win32,59.672992,60b651381aa0911cce208974,626b377229c10585ec392f8a,626b3bc817aabf30cec2b147,,,,,,,,,,,,,,,,,,,,,,,a,1,2.506,"[""0.342"",""0.560"",""0.674"",""0.962""]","[0,1,1,1]",0,59,59,59,1,0,0,,,0,FALSE,,,,,,,,,,,,,,,,,,,,,,,,,,,,,,
,60b651381aa0911cce208974,001,2022-04-28_20h14.38.990,classification_task,2021.2.3,Win32,59.672992,60b651381aa0911cce208974,626b377229c10585ec392f8a,626b3bc817aabf30cec2b147,,,,,,,,,,,,,,,,,,,,,,,a,1,1.0271,"[""0.285"",""0.560"",""0.526"",""0.962""]","[1,1,0,1]",0,60,60,60,1,0,0,,,0,FALSE,,,,,,,,,,,,,,,,,,,,,,,,,,,,,,
,60b651381aa0911cce208974,001,2022-04-28_20h14.38.990,classification_task,2021.2.3,Win32,59.672992,60b651381aa0911cce208974,626b377229c10585ec392f8a,626b3bc817aabf30cec2b147,,,,,,,,,,,,,,,,,,,,,,,a,1,0.8426,"[""0.285"",""0.341"",""0.674"",""0.962""]","[1,0,1,1]",0,61,61,61,1,0,0,,,0,FALSE,,,,,,,,,,,,,,,,,,,,,,,,,,,,,,
,60b651381aa0911cce208974,001,2022-04-28_20h14.38.990,classification_task,2021.2.3,Win32,59.672992,60b651381aa0911cce208974,626b377229c10585ec392f8a,626b3bc817aabf30cec2b147,,,,,,,,,,,,,,,,,,,,,,,a,0,1.6968,"[""0.714"",""0.380"",""0.605"",""0.753""]","[0,1,1,1]",0,62,62,62,1,1,1,,,0,FALSE,,,,,,,,,,,,,,,,,,,,,,,,,,,,,,
,60b651381aa0911cce208974,001,2022-04-28_20h14.38.990,classification_task,2021.2.3,Win32,59.672992,60b651381aa0911cce208974,626b377229c10585ec392f8a,626b3bc817aabf30cec2b147,,,,,,,,,,,,,,,,,,,,,,,a,1,1.0935,"[""0.159"",""0.416"",""0.888"",""0.714""]","[1,1,1,0]",0,63,63,63,1,0,1,,,0,FALSE,,,,,,,,,,,,,,,,,,,,,,,,,,,,,,
,60b651381aa0911cce208974,001,2022-04-28_20h14.38.990,classification_task,2021.2.3,Win32,59.672992,60b651381aa0911cce208974,626b377229c10585ec392f8a,626b3bc817aabf30cec2b147,,,,,,,,,,,,,,,,,,,,,,,,,,,,,,,,,,,,,,,0, ,,0,7.48324515,171.7666,0,2,2,2,1,2,3,,,,,,,,,,,,,,,,,
,60b651381aa0911cce208974,001,2022-04-28_20h14.38.990,classification_task,2021.2.3,Win32,59.672992,60b651381aa0911cce208974,626b377229c10585ec392f8a,626b3bc817aabf30cec2b147,,,,,,,,,,,,,,,,,,,,,,,,,,,,,,,,,,,,,,,1,  ,,0,7.610229277,179.2133,0,2,2,2,1,2,3,,,,,,,,,,,,,,,,,
,60b651381aa0911cce208974,001,2022-04-28_20h14.38.990,classification_task,2021.2.3,Win32,59.672992,60b651381aa0911cce208974,626b377229c10585ec392f8a,626b3bc817aabf30cec2b147,,,,,,,,,,,,,,,,,,,,,,,,,,,,,,,,,,,,,,,2,  ,,0,5.761904762,181.1318,0,2,2,2,1,2,3,,,,,,,,,,,,,,,,,
,60b651381aa0911cce208974,001,2022-04-28_20h14.38.990,classification_task,2021.2.3,Win32,59.672992,60b651381aa0911cce208974,626b377229c10585ec392f8a,626b3bc817aabf30cec2b147,,,,,,,,,,,,,,,,,,,,,,,,,,,,,,,,,,,,,,,,,,,,,0,2,2,2,1,,3,,,,,,,,,,,,,,,,,
,60b651381aa0911cce208974,001,2022-04-28_20h14.38.990,classification_task,2021.2.3,Win32,59.672992,60b651381aa0911cce208974,626b377229c10585ec392f8a,626b3bc817aabf30cec2b147,,,,,,,,,,,,,,,,,,,,,,,,,,,,,,,,,,,,,,,,,,,,,,,,,,,,,I believe the aid is a competent performer,,0.7,0,5,746.4115,0,0,0,0,1,0,,,,
,60b651381aa0911cce208974,001,2022-04-28_20h14.38.990,classification_task,2021.2.3,Win32,59.672992,60b651381aa0911cce208974,626b377229c10585ec392f8a,626b3bc817aabf30cec2b147,,,,,,,,,,,,,,,,,,,,,,,,,,,,,,,,,,,,,,,,,,,,,,,,,,,,,I trust the aid,,0.7,0,5,747.4417,0,0,0,0,1,0,,,,
,60b651381aa0911cce208974,001,2022-04-28_20h14.38.990,classification_task,2021.2.3,Win32,59.672992,60b651381aa0911cce208974,626b377229c10585ec392f8a,626b3bc817aabf30cec2b147,,,,,,,,,,,,,,,,,,,,,,,,,,,,,,,,,,,,,,,,,,,,,,,,,,,,,I have confidence in the advice given by the aid,,0.7,0,5,749.0892,0,0,0,0,1,0,,,,
,60b651381aa0911cce208974,001,2022-04-28_20h14.38.990,classification_task,2021.2.3,Win32,59.672992,60b651381aa0911cce208974,626b377229c10585ec392f8a,626b3bc817aabf30cec2b147,,,,,,,,,,,,,,,,,,,,,,,,,,,,,,,,,,,,,,,,,,,,,,,,,,,,,I can depend on the aid,,0.7,0,5,750.1715,0,0,0,0,1,0,,,,
,60b651381aa0911cce208974,001,2022-04-28_20h14.38.990,classification_task,2021.2.3,Win32,59.672992,60b651381aa0911cce208974,626b377229c10585ec392f8a,626b3bc817aabf30cec2b147,,,,,,,,,,,,,,,,,,,,,,,,,,,,,,,,,,,,,,,,,,,,,,,,,,,,,I can rely on the aid to behave in consistent ways,,0.7,0,5,751.4058,0,0,0,0,1,0,,,,
,60b651381aa0911cce208974,001,2022-04-28_20h14.38.990,classification_task,2021.2.3,Win32,59.672992,60b651381aa0911cce208974,626b377229c10585ec392f8a,626b3bc817aabf30cec2b147,,,,,,,,,,,,,,,,,,,,,,,,,,,,,,,,,,,,,,,,,,,,,,,,,,,,,I can rely on the aid to do its best every time I take its advice,,0.7,0,5,753.9041,0,0,0,0,1,0,,,,
,60b651381aa0911cce208974,001,2022-04-28_20h14.38.990,classification_task,2021.2.3,Win32,59.672992,60b651381aa0911cce208974,626b377229c10585ec392f8a,626b3bc817aabf30cec2b147,,,,,,,,,,,,,,,,,,,,,,,,,,,,,,,,,,,,,,,,,,,,,,,,,,,,,"On trials you completed with assistance from the aid, how frequently did you think the aid was correct?",,0.7,0,100%,,0,0,0,0,1,0,,,,
,60b651381aa0911cce208974,001,2022-04-28_20h14.38.990,classification_task,2021.2.3,Win32,59.672992,60b651381aa0911cce208974,626b377229c10585ec392f8a,626b3bc817aabf30cec2b147,,,,,,,,,,,,,,,,,,,,,,,,,,,,,,,,,,,,,,,,,,,,,,,,,,,,,"On trials you completed without the aid, how frequently did you think you were correct?",,0.7,0,0%,,0,0,0,0,1,0,,,,
,60b651381aa0911cce208974,001,2022-04-28_20h14.38.990,classification_task,2021.2.3,Win32,59.672992,60b651381aa0911cce208974,626b377229c10585ec392f8a,626b3bc817aabf30cec2b147,,,,,,,,,,,,,,,,,,,,,,,,,,,,,,,,,,,,,,,,,,,,,,,,,,,,,,,,,,,0,0,0,0,1,,,,,
,60b651381aa0911cce208974,001,2022-04-28_20h14.38.990,classification_task,2021.2.3,Win32,59.672992,60b651381aa0911cce208974,626b377229c10585ec392f8a,626b3bc817aabf30cec2b147,,,,,,,,,,,,,,,,,,,,,,,,,,,,,,,,,,,,,,,,,,,,,,,,,,,,,,,,,,,,,,,,,space,7.4472,773.324,
,60b651381aa0911cce208974,001,2022-04-28_20h14.38.990,classification_task,2021.2.3,Win32,59.672992,60b651381aa0911cce208974,626b377229c10585ec392f8a,626b3bc817aabf30cec2b147,,,,,,,,,,,,,,,,,,,,,,,,,,,,,,,,,,,,,,,,,,,,,,,,,,,,,,,,,,,,,,,,,,,,"Mozilla/5.0 (Windows NT 10.0; Win64; x64) AppleWebKit/537.36 (KHTML, like Gecko) Chrome/100.0.4896.127 Safari/537.36"
