usingWebGL,participant,session,date,expName,psychopyVersion,OS,frameRate,study_id,signatures_friend,signatures_foe,band_ranges_top,band_ranges_bottom,formitemText,formtype,formundefined,formitemWidth,formindex,formresponse,formrt,key_resp_2.keys,key_resp_2.rt,tute_resp.keys,tute_resp.rt,tutorial.thisRepN,tutorial.thisTrialN,tutorial.thisN,tutorial.thisIndex,tutorial.ran,key_resp_4.keys,key_resp_4.rt,key_resp.keys,key_resp.corr,key_resp.rt,lines_presented,is_signal_presented,trials.thisRepN,trials.thisTrialN,trials.thisN,trials.thisIndex,trials.ran,vessel,active_band,lines,is_signal,supported_pos,catch_trial,debrief_formindex,debrief_formitemText,debrief_formtype,debrief_formitemWidth,debrief_formresponse,debrief_formrt,phases.thisRepN,phases.thisTrialN,phases.thisN,phases.thisIndex,phases.ran,phases.order,phase,key_resp_3.keys,trustitemText,trusttype,trustitemWidth,trustindex,trustresponse,trustrt,support_status.thisRepN,support_status.thisTrialN,support_status.thisN,support_status.thisIndex,support_status.ran,support_status.order,key_resp_5.keys,key_resp_5.rt,globalClockTime,userAgent,manualCondition
TRUE,60b642b9eb58b6d8a5080ea6,627c6e86d17d51c8d498794a,2022-05-11_21h24.12.778,classification_task,2021.2.3,MacIntel,59.99880002,627c6715c52fd12f31907bcf,,,,,,,,,,,,,,,,,,,,,,,,,,,,,,,,,,,,,,,,,,,,,,,,,,,,,,,,,,,,,,,,,,,,,
,60b642b9eb58b6d8a5080ea6,627c6e86d17d51c8d498794a,2022-05-11_21h24.12.778,classification_task,2021.2.3,MacIntel,59.99880002,627c6715c52fd12f31907bcf,"[[""0.325"",""0.467"",""0.677"",""0.874""],[""0.175"",""0.427"",""0.912"",""0.946""]]","[[""0.027"",""0.126"",""0.627"",""0.807""],[""0.082"",""0.385"",""0.523"",""0.740""]]","[1,10]","[100,1000]",Video game experience,,,0.7,0,,,,,,,,,,,,,,,,,,,,,,,,,,,,,,,,,,,,,,,,,,,,,,,,,,,,,,,,,,,,
,60b642b9eb58b6d8a5080ea6,627c6e86d17d51c8d498794a,2022-05-11_21h24.12.778,classification_task,2021.2.3,MacIntel,59.99880002,627c6715c52fd12f31907bcf,,,,,Approximately how many hours did you spend playing video games in the last week?,,,0.7,0,6,,,,,,,,,,,,,,,,,,,,,,,,,,,,,,,,,,,,,,,,,,,,,,,,,,,,,,,,,,,
,60b642b9eb58b6d8a5080ea6,627c6e86d17d51c8d498794a,2022-05-11_21h24.12.778,classification_task,2021.2.3,MacIntel,59.99880002,627c6715c52fd12f31907bcf,,,,,"Which game did you play the most this year? (Enter ""None"" if you didn't play any)",,,0.7,0,LOL,,,,,,,,,,,,,,,,,,,,,,,,,,,,,,,,,,,,,,,,,,,,,,,,,,,,,,,,,,,
,60b642b9eb58b6d8a5080ea6,627c6e86d17d51c8d498794a,2022-05-11_21h24.12.778,classification_task,2021.2.3,MacIntel,59.99880002,627c6715c52fd12f31907bcf,,,,,Visual perception,,,0.7,0,,,,,,,,,,,,,,,,,,,,,,,,,,,,,,,,,,,,,,,,,,,,,,,,,,,,,,,,,,,,
,60b642b9eb58b6d8a5080ea6,627c6e86d17d51c8d498794a,2022-05-11_21h24.12.778,classification_task,2021.2.3,MacIntel,59.99880002,627c6715c52fd12f31907bcf,,,,,Do you have any form of color blindness?,,,0.7,0,No,165.0666,,,,,,,,,,,,,,,,,,,,,,,,,,,,,,,,,,,,,,,,,,,,,,,,,,,,,,,,,,
,60b642b9eb58b6d8a5080ea6,627c6e86d17d51c8d498794a,2022-05-11_21h24.12.778,classification_task,2021.2.3,MacIntel,59.99880002,627c6715c52fd12f31907bcf,,,,,Do you use software to change the colour temperature of your screen (e.g. f.lux)?,,,0.7,0,No,166.9161,,,,,,,,,,,,,,,,,,,,,,,,,,,,,,,,,,,,,,,,,,,,,,,,,,,,,,,,,,
,60b642b9eb58b6d8a5080ea6,627c6e86d17d51c8d498794a,2022-05-11_21h24.12.778,classification_task,2021.2.3,MacIntel,59.99880002,627c6715c52fd12f31907bcf,,,,,,,,,,,,space,71.7357,space,267.3008,0,0,0,0,1,,,,,,,,,,,,,,,,,,,,,,,,,,,,,,,,,,,,,,,,,,,,,,,,,
,60b642b9eb58b6d8a5080ea6,627c6e86d17d51c8d498794a,2022-05-11_21h24.12.778,classification_task,2021.2.3,MacIntel,59.99880002,627c6715c52fd12f31907bcf,,,,,,,,,,,,,,space,18.0642,1,0,1,0,1,,,,,,,,,,,,,,,,,,,,,,,,,,,,,,,,,,,,,,,,,,,,,,,,,
,60b642b9eb58b6d8a5080ea6,627c6e86d17d51c8d498794a,2022-05-11_21h24.12.778,classification_task,2021.2.3,MacIntel,59.99880002,627c6715c52fd12f31907bcf,,,,,,,,,,,,,,space,13.8712,2,0,2,0,1,,,,,,,,,,,,,,,,,,,,,,,,,,,,,,,,,,,,,,,,,,,,,,,,,
,60b642b9eb58b6d8a5080ea6,627c6e86d17d51c8d498794a,2022-05-11_21h24.12.778,classification_task,2021.2.3,MacIntel,59.99880002,627c6715c52fd12f31907bcf,,,,,,,,,,,,,,space,11.0401,3,0,3,0,1,,,,,,,,,,,,,,,,,,,,,,,,,,,,,,,,,,,,,,,,,,,,,,,,,
,60b642b9eb58b6d8a5080ea6,627c6e86d17d51c8d498794a,2022-05-11_21h24.12.778,classification_task,2021.2.3,MacIntel,59.99880002,627c6715c52fd12f31907bcf,,,,,,,,,,,,,,space,118.141,4,0,4,0,1,,,,,,,,,,,,,,,,,,,,,,,,,,,,,,,,,,,,,,,,,,,,,,,,,
,60b642b9eb58b6d8a5080ea6,627c6e86d17d51c8d498794a,2022-05-11_21h24.12.778,classification_task,2021.2.3,MacIntel,59.99880002,627c6715c52fd12f31907bcf,,,,,,,,,,,,,,,,,,,,,space,10.6915,l,0,8.6898,"[""0.175"",""0.427"",""0.277"",""0.946""]","[1,1,0,1]",0,0,0,0,1,0,1,,,1,FALSE,,,,,,,,,,,,,,,,,,,,,,,,,,,,,,,
,60b642b9eb58b6d8a5080ea6,627c6e86d17d51c8d498794a,2022-05-11_21h24.12.778,classification_task,2021.2.3,MacIntel,59.99880002,627c6715c52fd12f31907bcf,,,,,,,,,,,,,,,,,,,,,,,,0,,"[""0.027"",""0.126"",""0.563"",""0.807""]","[1,1,0,1]",0,1,1,1,1,1,0,,,1,FALSE,,,,,,,,,,,,,,,,,,,,,,,,,,,,,,,
,60b642b9eb58b6d8a5080ea6,627c6e86d17d51c8d498794a,2022-05-11_21h24.12.778,classification_task,2021.2.3,MacIntel,59.99880002,627c6715c52fd12f31907bcf,,,,,,,,,,,,,,,,,,,,,,,a,1,8.9243,"[""0.325"",""0.467"",""0.211"",""0.874""]","[1,1,0,1]",0,2,2,2,1,0,0,,,1,FALSE,,,,,,,,,,,,,,,,,,,,,,,,,,,,,,,
,60b642b9eb58b6d8a5080ea6,627c6e86d17d51c8d498794a,2022-05-11_21h24.12.778,classification_task,2021.2.3,MacIntel,59.99880002,627c6715c52fd12f31907bcf,,,,,,,,,,,,,,,,,,,,,,,,0,,"[""0.082"",""0.385"",""0.523"",""0.211""]","[1,1,1,0]",0,3,3,3,1,1,1,,,1,FALSE,,,,,,,,,,,,,,,,,,,,,,,,,,,,,,,
,60b642b9eb58b6d8a5080ea6,627c6e86d17d51c8d498794a,2022-05-11_21h24.12.778,classification_task,2021.2.3,MacIntel,59.99880002,627c6715c52fd12f31907bcf,,,,,,,,,,,,,,,,,,,,,,,l,1,4.6165,"[""0.027"",""0.126"",""0.627"",""0.268""]","[1,1,1,0]",0,4,4,4,1,1,0,,,1,FALSE,,,,,,,,,,,,,,,,,,,,,,,,,,,,,,,
,60b642b9eb58b6d8a5080ea6,627c6e86d17d51c8d498794a,2022-05-11_21h24.12.778,classification_task,2021.2.3,MacIntel,59.99880002,627c6715c52fd12f31907bcf,,,,,,,,,,,,,,,,,,,,,,,l,1,3.7067,"[""0.027"",""0.570"",""0.627"",""0.807""]","[1,0,1,1]",0,5,5,5,1,1,0,,,1,FALSE,,,,,,,,,,,,,,,,,,,,,,,,,,,,,,,
,60b642b9eb58b6d8a5080ea6,627c6e86d17d51c8d498794a,2022-05-11_21h24.12.778,classification_task,2021.2.3,MacIntel,59.99880002,627c6715c52fd12f31907bcf,,,,,,,,,,,,,,,,,,,,,,,a,1,4.2967,"[""0.325"",""0.558"",""0.677"",""0.874""]","[1,0,1,1]",0,6,6,6,1,0,0,,,1,FALSE,,,,,,,,,,,,,,,,,,,,,,,,,,,,,,,
,60b642b9eb58b6d8a5080ea6,627c6e86d17d51c8d498794a,2022-05-11_21h24.12.778,classification_task,2021.2.3,MacIntel,59.99880002,627c6715c52fd12f31907bcf,,,,,,,,,,,,,,,,,,,,,,,a,1,5.213,"[""0.586"",""0.467"",""0.677"",""0.874""]","[0,1,1,1]",0,7,7,7,1,0,0,,,1,FALSE,,,,,,,,,,,,,,,,,,,,,,,,,,,,,,,
,60b642b9eb58b6d8a5080ea6,627c6e86d17d51c8d498794a,2022-05-11_21h24.12.778,classification_task,2021.2.3,MacIntel,59.99880002,627c6715c52fd12f31907bcf,,,,,,,,,,,,,,,,,,,,,,,l,1,5.3888,"[""0.558"",""0.385"",""0.523"",""0.740""]","[0,1,1,1]",0,8,8,8,1,1,1,,,1,FALSE,,,,,,,,,,,,,,,,,,,,,,,,,,,,,,,
,60b642b9eb58b6d8a5080ea6,627c6e86d17d51c8d498794a,2022-05-11_21h24.12.778,classification_task,2021.2.3,MacIntel,59.99880002,627c6715c52fd12f31907bcf,,,,,,,,,,,,,,,,,,,,,,,a,1,5.4998,"[""0.175"",""0.560"",""0.912"",""0.946""]","[1,0,1,1]",0,9,9,9,1,0,1,,,1,FALSE,,,,,,,,,,,,,,,,,,,,,,,,,,,,,,,
,60b642b9eb58b6d8a5080ea6,627c6e86d17d51c8d498794a,2022-05-11_21h24.12.778,classification_task,2021.2.3,MacIntel,59.99880002,627c6715c52fd12f31907bcf,,,,,,,,,,,,,,,,,,,,,,,,0,,"[""0.268"",""0.427"",""0.912"",""0.946""]","[0,1,1,1]",0,10,10,10,1,0,1,,,1,FALSE,,,,,,,,,,,,,,,,,,,,,,,,,,,,,,,
,60b642b9eb58b6d8a5080ea6,627c6e86d17d51c8d498794a,2022-05-11_21h24.12.778,classification_task,2021.2.3,MacIntel,59.99880002,627c6715c52fd12f31907bcf,,,,,,,,,,,,,,,,,,,,,,,l,1,5.8835,"[""0.082"",""0.570"",""0.523"",""0.740""]","[1,0,1,1]",0,11,11,11,1,1,1,,,1,FALSE,,,,,,,,,,,,,,,,,,,,,,,,,,,,,,,
,60b642b9eb58b6d8a5080ea6,627c6e86d17d51c8d498794a,2022-05-11_21h24.12.778,classification_task,2021.2.3,MacIntel,59.99880002,627c6715c52fd12f31907bcf,,,,,,,,,,,,,,,,,,,,,,,a,0,4.6206,"[""0.211"",""0.126"",""0.627"",""0.807""]","[0,1,1,1]",0,12,12,12,1,1,0,,,1,FALSE,,,,,,,,,,,,,,,,,,,,,,,,,,,,,,,
,60b642b9eb58b6d8a5080ea6,627c6e86d17d51c8d498794a,2022-05-11_21h24.12.778,classification_task,2021.2.3,MacIntel,59.99880002,627c6715c52fd12f31907bcf,,,,,,,,,,,,,,,,,,,,,,,l,1,8.5362,"[""0.082"",""0.385"",""0.268"",""0.740""]","[1,1,0,1]",0,13,13,13,1,1,1,,,1,FALSE,,,,,,,,,,,,,,,,,,,,,,,,,,,,,,,
,60b642b9eb58b6d8a5080ea6,627c6e86d17d51c8d498794a,2022-05-11_21h24.12.778,classification_task,2021.2.3,MacIntel,59.99880002,627c6715c52fd12f31907bcf,,,,,,,,,,,,,,,,,,,,,,,l,0,8.5543,"[""0.325"",""0.467"",""0.677"",""0.288""]","[1,1,1,0]",0,14,14,14,1,0,0,,,1,FALSE,,,,,,,,,,,,,,,,,,,,,,,,,,,,,,,
,60b642b9eb58b6d8a5080ea6,627c6e86d17d51c8d498794a,2022-05-11_21h24.12.778,classification_task,2021.2.3,MacIntel,59.99880002,627c6715c52fd12f31907bcf,,,,,,,,,,,,,,,,,,,,,,,a,1,3.7216,"[""0.175"",""0.427"",""0.912"",""0.240""]","[1,1,1,0]",0,15,15,15,1,0,1,,,1,FALSE,,,,,,,,,,,,,,,,,,,,,,,,,,,,,,,
,60b642b9eb58b6d8a5080ea6,627c6e86d17d51c8d498794a,2022-05-11_21h24.12.778,classification_task,2021.2.3,MacIntel,59.99880002,627c6715c52fd12f31907bcf,,,,,,,,,,,,,,,,,,,,,,,a,0,1.8191,"[""0.027"",""0.566"",""0.627"",""0.807""]","[1,0,1,1]",0,16,16,16,1,1,0,,,1,FALSE,,,,,,,,,,,,,,,,,,,,,,,,,,,,,,,
,60b642b9eb58b6d8a5080ea6,627c6e86d17d51c8d498794a,2022-05-11_21h24.12.778,classification_task,2021.2.3,MacIntel,59.99880002,627c6715c52fd12f31907bcf,,,,,,,,,,,,,,,,,,,,,,,a,1,8.7316,"[""0.175"",""0.427"",""0.912"",""0.558""]","[1,1,1,0]",0,17,17,17,1,0,1,,,1,FALSE,,,,,,,,,,,,,,,,,,,,,,,,,,,,,,,
,60b642b9eb58b6d8a5080ea6,627c6e86d17d51c8d498794a,2022-05-11_21h24.12.778,classification_task,2021.2.3,MacIntel,59.99880002,627c6715c52fd12f31907bcf,,,,,,,,,,,,,,,,,,,,,,,l,1,4.5523,"[""0.027"",""0.126"",""0.229"",""0.807""]","[1,1,0,1]",0,18,18,18,1,1,0,,,1,FALSE,,,,,,,,,,,,,,,,,,,,,,,,,,,,,,,
,60b642b9eb58b6d8a5080ea6,627c6e86d17d51c8d498794a,2022-05-11_21h24.12.778,classification_task,2021.2.3,MacIntel,59.99880002,627c6715c52fd12f31907bcf,,,,,,,,,,,,,,,,,,,,,,,a,1,4.5572,"[""0.558"",""0.427"",""0.912"",""0.946""]","[0,1,1,1]",0,19,19,19,1,0,1,,,1,FALSE,,,,,,,,,,,,,,,,,,,,,,,,,,,,,,,
,60b642b9eb58b6d8a5080ea6,627c6e86d17d51c8d498794a,2022-05-11_21h24.12.778,classification_task,2021.2.3,MacIntel,59.99880002,627c6715c52fd12f31907bcf,,,,,,,,,,,,,,,,,,,,,,,a,0,5.2734,"[""0.288"",""0.385"",""0.523"",""0.740""]","[0,1,1,1]",0,20,20,20,1,1,1,,,1,FALSE,,,,,,,,,,,,,,,,,,,,,,,,,,,,,,,
,60b642b9eb58b6d8a5080ea6,627c6e86d17d51c8d498794a,2022-05-11_21h24.12.778,classification_task,2021.2.3,MacIntel,59.99880002,627c6715c52fd12f31907bcf,,,,,,,,,,,,,,,,,,,,,,,a,1,4.356,"[""0.240"",""0.467"",""0.677"",""0.874""]","[0,1,1,1]",0,21,21,21,1,0,0,,,1,FALSE,,,,,,,,,,,,,,,,,,,,,,,,,,,,,,,
,60b642b9eb58b6d8a5080ea6,627c6e86d17d51c8d498794a,2022-05-11_21h24.12.778,classification_task,2021.2.3,MacIntel,59.99880002,627c6715c52fd12f31907bcf,,,,,,,,,,,,,,,,,,,,,,,a,0,7.5868,"[""0.558"",""0.126"",""0.627"",""0.807""]","[0,1,1,1]",0,22,22,22,1,1,0,,,1,FALSE,,,,,,,,,,,,,,,,,,,,,,,,,,,,,,,
,60b642b9eb58b6d8a5080ea6,627c6e86d17d51c8d498794a,2022-05-11_21h24.12.778,classification_task,2021.2.3,MacIntel,59.99880002,627c6715c52fd12f31907bcf,,,,,,,,,,,,,,,,,,,,,,,l,1,3.6164,"[""0.082"",""0.385"",""0.288"",""0.740""]","[1,1,0,1]",0,23,23,23,1,1,1,,,1,FALSE,,,,,,,,,,,,,,,,,,,,,,,,,,,,,,,
,60b642b9eb58b6d8a5080ea6,627c6e86d17d51c8d498794a,2022-05-11_21h24.12.778,classification_task,2021.2.3,MacIntel,59.99880002,627c6715c52fd12f31907bcf,,,,,,,,,,,,,,,,,,,,,,,a,1,2.0722,"[""0.325"",""0.467"",""0.560"",""0.874""]","[1,1,0,1]",0,24,24,24,1,0,0,,,1,FALSE,,,,,,,,,,,,,,,,,,,,,,,,,,,,,,,
,60b642b9eb58b6d8a5080ea6,627c6e86d17d51c8d498794a,2022-05-11_21h24.12.778,classification_task,2021.2.3,MacIntel,59.99880002,627c6715c52fd12f31907bcf,,,,,,,,,,,,,,,,,,,,,,,a,1,6.1294,"[""0.175"",""0.211"",""0.912"",""0.946""]","[1,0,1,1]",0,25,25,25,1,0,1,,,1,FALSE,,,,,,,,,,,,,,,,,,,,,,,,,,,,,,,
,60b642b9eb58b6d8a5080ea6,627c6e86d17d51c8d498794a,2022-05-11_21h24.12.778,classification_task,2021.2.3,MacIntel,59.99880002,627c6715c52fd12f31907bcf,,,,,,,,,,,,,,,,,,,,,,,l,1,6.5887,"[""0.082"",""0.385"",""0.523"",""0.240""]","[1,1,1,0]",0,26,26,26,1,1,1,,,1,FALSE,,,,,,,,,,,,,,,,,,,,,,,,,,,,,,,
,60b642b9eb58b6d8a5080ea6,627c6e86d17d51c8d498794a,2022-05-11_21h24.12.778,classification_task,2021.2.3,MacIntel,59.99880002,627c6715c52fd12f31907bcf,,,,,,,,,,,,,,,,,,,,,,,l,1,4.8881,"[""0.027"",""0.126"",""0.627"",""0.277""]","[1,1,1,0]",0,27,27,27,1,1,0,,,1,FALSE,,,,,,,,,,,,,,,,,,,,,,,,,,,,,,,
,60b642b9eb58b6d8a5080ea6,627c6e86d17d51c8d498794a,2022-05-11_21h24.12.778,classification_task,2021.2.3,MacIntel,59.99880002,627c6715c52fd12f31907bcf,,,,,,,,,,,,,,,,,,,,,,,a,1,9.834,"[""0.175"",""0.427"",""0.288"",""0.946""]","[1,1,0,1]",0,28,28,28,1,0,1,,,1,FALSE,,,,,,,,,,,,,,,,,,,,,,,,,,,,,,,
,60b642b9eb58b6d8a5080ea6,627c6e86d17d51c8d498794a,2022-05-11_21h24.12.778,classification_task,2021.2.3,MacIntel,59.99880002,627c6715c52fd12f31907bcf,,,,,,,,,,,,,,,,,,,,,,,a,0,4.772,"[""0.082"",""0.564"",""0.523"",""0.740""]","[1,0,1,1]",0,29,29,29,1,1,1,,,1,FALSE,,,,,,,,,,,,,,,,,,,,,,,,,,,,,,,
,60b642b9eb58b6d8a5080ea6,627c6e86d17d51c8d498794a,2022-05-11_21h24.12.778,classification_task,2021.2.3,MacIntel,59.99880002,627c6715c52fd12f31907bcf,,,,,,,,,,,,,,,,,,,,,,,a,1,5.3173,"[""0.325"",""0.467"",""0.677"",""0.268""]","[1,1,1,0]",0,30,30,30,1,0,0,,,1,FALSE,,,,,,,,,,,,,,,,,,,,,,,,,,,,,,,
,60b642b9eb58b6d8a5080ea6,627c6e86d17d51c8d498794a,2022-05-11_21h24.12.778,classification_task,2021.2.3,MacIntel,59.99880002,627c6715c52fd12f31907bcf,,,,,,,,,,,,,,,,,,,,,,,a,1,3.4944,"[""0.325"",""0.234"",""0.677"",""0.874""]","[1,0,1,1]",0,31,31,31,1,0,0,,,1,FALSE,,,,,,,,,,,,,,,,,,,,,,,,,,,,,,,
,60b642b9eb58b6d8a5080ea6,627c6e86d17d51c8d498794a,2022-05-11_21h24.12.778,classification_task,2021.2.3,MacIntel,59.99880002,627c6715c52fd12f31907bcf,,,,,,,,,,,,,,,,,,,,,,,a,0,4.3392,"[""0.027"",""0.126"",""0.627"",""0.277""]","[1,1,1,0]",0,32,32,32,1,1,0,,,1,FALSE,,,,,,,,,,,,,,,,,,,,,,,,,,,,,,,
,60b642b9eb58b6d8a5080ea6,627c6e86d17d51c8d498794a,2022-05-11_21h24.12.778,classification_task,2021.2.3,MacIntel,59.99880002,627c6715c52fd12f31907bcf,,,,,,,,,,,,,,,,,,,,,,,,0,,"[""0.082"",""0.221"",""0.523"",""0.740""]","[1,0,1,1]",0,33,33,33,1,1,1,,,1,FALSE,,,,,,,,,,,,,,,,,,,,,,,,,,,,,,,
,60b642b9eb58b6d8a5080ea6,627c6e86d17d51c8d498794a,2022-05-11_21h24.12.778,classification_task,2021.2.3,MacIntel,59.99880002,627c6715c52fd12f31907bcf,,,,,,,,,,,,,,,,,,,,,,,a,0,4.3048,"[""0.564"",""0.385"",""0.523"",""0.740""]","[0,1,1,1]",0,34,34,34,1,1,1,,,1,FALSE,,,,,,,,,,,,,,,,,,,,,,,,,,,,,,,
,60b642b9eb58b6d8a5080ea6,627c6e86d17d51c8d498794a,2022-05-11_21h24.12.778,classification_task,2021.2.3,MacIntel,59.99880002,627c6715c52fd12f31907bcf,,,,,,,,,,,,,,,,,,,,,,,a,1,9.4051,"[""0.325"",""0.467"",""0.221"",""0.874""]","[1,1,0,1]",0,35,35,35,1,0,0,,,1,FALSE,,,,,,,,,,,,,,,,,,,,,,,,,,,,,,,
,60b642b9eb58b6d8a5080ea6,627c6e86d17d51c8d498794a,2022-05-11_21h24.12.778,classification_task,2021.2.3,MacIntel,59.99880002,627c6715c52fd12f31907bcf,,,,,,,,,,,,,,,,,,,,,,,a,0,1.6383,"[""0.082"",""0.385"",""0.277"",""0.740""]","[1,1,0,1]",0,36,36,36,1,1,1,,,1,FALSE,,,,,,,,,,,,,,,,,,,,,,,,,,,,,,,
,60b642b9eb58b6d8a5080ea6,627c6e86d17d51c8d498794a,2022-05-11_21h24.12.778,classification_task,2021.2.3,MacIntel,59.99880002,627c6715c52fd12f31907bcf,,,,,,,,,,,,,,,,,,,,,,,l,1,2.7194,"[""0.564"",""0.126"",""0.627"",""0.807""]","[0,1,1,1]",0,37,37,37,1,1,0,,,1,FALSE,,,,,,,,,,,,,,,,,,,,,,,,,,,,,,,
,60b642b9eb58b6d8a5080ea6,627c6e86d17d51c8d498794a,2022-05-11_21h24.12.778,classification_task,2021.2.3,MacIntel,59.99880002,627c6715c52fd12f31907bcf,,,,,,,,,,,,,,,,,,,,,,,l,0,1.7145,"[""0.325"",""0.271"",""0.677"",""0.874""]","[1,0,1,1]",0,38,38,38,1,0,0,,,1,FALSE,,,,,,,,,,,,,,,,,,,,,,,,,,,,,,,
,60b642b9eb58b6d8a5080ea6,627c6e86d17d51c8d498794a,2022-05-11_21h24.12.778,classification_task,2021.2.3,MacIntel,59.99880002,627c6715c52fd12f31907bcf,,,,,,,,,,,,,,,,,,,,,,,a,0,4.2048,"[""0.027"",""0.277"",""0.627"",""0.807""]","[1,0,1,1]",0,39,39,39,1,1,0,,,1,FALSE,,,,,,,,,,,,,,,,,,,,,,,,,,,,,,,
,60b642b9eb58b6d8a5080ea6,627c6e86d17d51c8d498794a,2022-05-11_21h24.12.778,classification_task,2021.2.3,MacIntel,59.99880002,627c6715c52fd12f31907bcf,,,,,,,,,,,,,,,,,,,,,,,a,1,0.9541,"[""0.325"",""0.467"",""0.677"",""0.234""]","[1,1,1,0]",0,40,40,40,1,0,0,,,1,FALSE,,,,,,,,,,,,,,,,,,,,,,,,,,,,,,,
,60b642b9eb58b6d8a5080ea6,627c6e86d17d51c8d498794a,2022-05-11_21h24.12.778,classification_task,2021.2.3,MacIntel,59.99880002,627c6715c52fd12f31907bcf,,,,,,,,,,,,,,,,,,,,,,,a,1,1.4507,"[""0.175"",""0.427"",""0.277"",""0.946""]","[1,1,0,1]",0,41,41,41,1,0,1,,,1,FALSE,,,,,,,,,,,,,,,,,,,,,,,,,,,,,,,
,60b642b9eb58b6d8a5080ea6,627c6e86d17d51c8d498794a,2022-05-11_21h24.12.778,classification_task,2021.2.3,MacIntel,59.99880002,627c6715c52fd12f31907bcf,,,,,,,,,,,,,,,,,,,,,,,l,1,0.2525,"[""0.082"",""0.385"",""0.523"",""0.570""]","[1,1,1,0]",0,42,42,42,1,1,1,,,1,FALSE,,,,,,,,,,,,,,,,,,,,,,,,,,,,,,,
,60b642b9eb58b6d8a5080ea6,627c6e86d17d51c8d498794a,2022-05-11_21h24.12.778,classification_task,2021.2.3,MacIntel,59.99880002,627c6715c52fd12f31907bcf,,,,,,,,,,,,,,,,,,,,,,,a,1,0.0661,"[""0.175"",""0.240"",""0.912"",""0.946""]","[1,0,1,1]",0,43,43,43,1,0,1,,,1,FALSE,,,,,,,,,,,,,,,,,,,,,,,,,,,,,,,
,60b642b9eb58b6d8a5080ea6,627c6e86d17d51c8d498794a,2022-05-11_21h24.12.778,classification_task,2021.2.3,MacIntel,59.99880002,627c6715c52fd12f31907bcf,,,,,,,,,,,,,,,,,,,,,,,l,0,0.0529,"[""0.570"",""0.467"",""0.677"",""0.874""]","[0,1,1,1]",0,44,44,44,1,0,0,,,1,FALSE,,,,,,,,,,,,,,,,,,,,,,,,,,,,,,,
,60b642b9eb58b6d8a5080ea6,627c6e86d17d51c8d498794a,2022-05-11_21h24.12.778,classification_task,2021.2.3,MacIntel,59.99880002,627c6715c52fd12f31907bcf,,,,,,,,,,,,,,,,,,,,,,,l,0,0.223,"[""0.586"",""0.427"",""0.912"",""0.946""]","[0,1,1,1]",0,45,45,45,1,0,1,,,1,FALSE,,,,,,,,,,,,,,,,,,,,,,,,,,,,,,,
,60b642b9eb58b6d8a5080ea6,627c6e86d17d51c8d498794a,2022-05-11_21h24.12.778,classification_task,2021.2.3,MacIntel,59.99880002,627c6715c52fd12f31907bcf,,,,,,,,,,,,,,,,,,,,,,,l,1,0.3025,"[""0.027"",""0.126"",""0.560"",""0.807""]","[1,1,0,1]",0,46,46,46,1,1,0,,,1,FALSE,,,,,,,,,,,,,,,,,,,,,,,,,,,,,,,
,60b642b9eb58b6d8a5080ea6,627c6e86d17d51c8d498794a,2022-05-11_21h24.12.778,classification_task,2021.2.3,MacIntel,59.99880002,627c6715c52fd12f31907bcf,,,,,,,,,,,,,,,,,,,,,,,a,1,0.3143,"[""0.175"",""0.427"",""0.912"",""0.564""]","[1,1,1,0]",0,47,47,47,1,0,1,,,1,FALSE,,,,,,,,,,,,,,,,,,,,,,,,,,,,,,,
,60b642b9eb58b6d8a5080ea6,627c6e86d17d51c8d498794a,2022-05-11_21h24.12.778,classification_task,2021.2.3,MacIntel,59.99880002,627c6715c52fd12f31907bcf,,,,,,,,,,,,,,,,,,,,,,,a,0,0.6974,"[""0.027"",""0.563"",""0.627"",""0.807""]","[1,0,1,1]",0,48,48,48,1,1,0,,,1,FALSE,,,,,,,,,,,,,,,,,,,,,,,,,,,,,,,
,60b642b9eb58b6d8a5080ea6,627c6e86d17d51c8d498794a,2022-05-11_21h24.12.778,classification_task,2021.2.3,MacIntel,59.99880002,627c6715c52fd12f31907bcf,,,,,,,,,,,,,,,,,,,,,,,a,1,2.1378,"[""0.325"",""0.229"",""0.677"",""0.874""]","[1,0,1,1]",0,49,49,49,1,0,0,,,1,FALSE,,,,,,,,,,,,,,,,,,,,,,,,,,,,,,,
,60b642b9eb58b6d8a5080ea6,627c6e86d17d51c8d498794a,2022-05-11_21h24.12.778,classification_task,2021.2.3,MacIntel,59.99880002,627c6715c52fd12f31907bcf,,,,,,,,,,,,,,,,,,,,,,,l,1,1.5718,"[""0.082"",""0.240"",""0.523"",""0.740""]","[1,0,1,1]",0,50,50,50,1,1,1,,,1,FALSE,,,,,,,,,,,,,,,,,,,,,,,,,,,,,,,
,60b642b9eb58b6d8a5080ea6,627c6e86d17d51c8d498794a,2022-05-11_21h24.12.778,classification_task,2021.2.3,MacIntel,59.99880002,627c6715c52fd12f31907bcf,,,,,,,,,,,,,,,,,,,,,,,a,1,1.0018,"[""0.563"",""0.427"",""0.912"",""0.946""]","[0,1,1,1]",0,51,51,51,1,0,1,,,1,FALSE,,,,,,,,,,,,,,,,,,,,,,,,,,,,,,,
,60b642b9eb58b6d8a5080ea6,627c6e86d17d51c8d498794a,2022-05-11_21h24.12.778,classification_task,2021.2.3,MacIntel,59.99880002,627c6715c52fd12f31907bcf,,,,,,,,,,,,,,,,,,,,,,,l,1,0.6809,"[""0.240"",""0.126"",""0.627"",""0.807""]","[0,1,1,1]",0,52,52,52,1,1,0,,,1,FALSE,,,,,,,,,,,,,,,,,,,,,,,,,,,,,,,
,60b642b9eb58b6d8a5080ea6,627c6e86d17d51c8d498794a,2022-05-11_21h24.12.778,classification_task,2021.2.3,MacIntel,59.99880002,627c6715c52fd12f31907bcf,,,,,,,,,,,,,,,,,,,,,,,a,1,2.1673,"[""0.325"",""0.467"",""0.677"",""0.570""]","[1,1,1,0]",0,53,53,53,1,0,0,,,1,FALSE,,,,,,,,,,,,,,,,,,,,,,,,,,,,,,,
,60b642b9eb58b6d8a5080ea6,627c6e86d17d51c8d498794a,2022-05-11_21h24.12.778,classification_task,2021.2.3,MacIntel,59.99880002,627c6715c52fd12f31907bcf,,,,,,,,,,,,,,,,,,,,,,,l,0,1.3849,"[""0.325"",""0.467"",""0.560"",""0.874""]","[1,1,0,1]",0,54,54,54,1,0,0,,,1,FALSE,,,,,,,,,,,,,,,,,,,,,,,,,,,,,,,
,60b642b9eb58b6d8a5080ea6,627c6e86d17d51c8d498794a,2022-05-11_21h24.12.778,classification_task,2021.2.3,MacIntel,59.99880002,627c6715c52fd12f31907bcf,,,,,,,,,,,,,,,,,,,,,,,l,1,0.9571,"[""0.027"",""0.126"",""0.586"",""0.807""]","[1,1,0,1]",0,55,55,55,1,1,0,,,1,FALSE,,,,,,,,,,,,,,,,,,,,,,,,,,,,,,,
,60b642b9eb58b6d8a5080ea6,627c6e86d17d51c8d498794a,2022-05-11_21h24.12.778,classification_task,2021.2.3,MacIntel,59.99880002,627c6715c52fd12f31907bcf,,,,,,,,,,,,,,,,,,,,,,,l,0,1.8846,"[""0.175"",""0.288"",""0.912"",""0.946""]","[1,0,1,1]",0,56,56,56,1,0,1,,,1,FALSE,,,,,,,,,,,,,,,,,,,,,,,,,,,,,,,
,60b642b9eb58b6d8a5080ea6,627c6e86d17d51c8d498794a,2022-05-11_21h24.12.778,classification_task,2021.2.3,MacIntel,59.99880002,627c6715c52fd12f31907bcf,,,,,,,,,,,,,,,,,,,,,,,a,0,2.3324,"[""0.240"",""0.385"",""0.523"",""0.740""]","[0,1,1,1]",0,57,57,57,1,1,1,,,1,FALSE,,,,,,,,,,,,,,,,,,,,,,,,,,,,,,,
,60b642b9eb58b6d8a5080ea6,627c6e86d17d51c8d498794a,2022-05-11_21h24.12.778,classification_task,2021.2.3,MacIntel,59.99880002,627c6715c52fd12f31907bcf,,,,,,,,,,,,,,,,,,,,,,,a,1,1.0038,"[""0.175"",""0.427"",""0.240"",""0.946""]","[1,1,0,1]",0,58,58,58,1,0,1,,,1,FALSE,,,,,,,,,,,,,,,,,,,,,,,,,,,,,,,
,60b642b9eb58b6d8a5080ea6,627c6e86d17d51c8d498794a,2022-05-11_21h24.12.778,classification_task,2021.2.3,MacIntel,59.99880002,627c6715c52fd12f31907bcf,,,,,,,,,,,,,,,,,,,,,,,l,1,2.4049,"[""0.082"",""0.385"",""0.523"",""0.288""]","[1,1,1,0]",0,59,59,59,1,1,1,,,1,FALSE,,,,,,,,,,,,,,,,,,,,,,,,,,,,,,,
,60b642b9eb58b6d8a5080ea6,627c6e86d17d51c8d498794a,2022-05-11_21h24.12.778,classification_task,2021.2.3,MacIntel,59.99880002,627c6715c52fd12f31907bcf,,,,,,,,,,,,,,,,,,,,,,,l,0,1.3236,"[""0.175"",""0.427"",""0.912"",""0.558""]","[1,1,1,0]",0,60,60,60,1,0,1,,,1,FALSE,,,,,,,,,,,,,,,,,,,,,,,,,,,,,,,
,60b642b9eb58b6d8a5080ea6,627c6e86d17d51c8d498794a,2022-05-11_21h24.12.778,classification_task,2021.2.3,MacIntel,59.99880002,627c6715c52fd12f31907bcf,,,,,,,,,,,,,,,,,,,,,,,l,0,1.0674,"[""0.268"",""0.467"",""0.677"",""0.874""]","[0,1,1,1]",0,61,61,61,1,0,0,,,1,FALSE,,,,,,,,,,,,,,,,,,,,,,,,,,,,,,,
,60b642b9eb58b6d8a5080ea6,627c6e86d17d51c8d498794a,2022-05-11_21h24.12.778,classification_task,2021.2.3,MacIntel,59.99880002,627c6715c52fd12f31907bcf,,,,,,,,,,,,,,,,,,,,,,,l,1,1.7035,"[""0.082"",""0.385"",""0.564"",""0.740""]","[1,1,0,1]",0,62,62,62,1,1,1,,,1,FALSE,,,,,,,,,,,,,,,,,,,,,,,,,,,,,,,
,60b642b9eb58b6d8a5080ea6,627c6e86d17d51c8d498794a,2022-05-11_21h24.12.778,classification_task,2021.2.3,MacIntel,59.99880002,627c6715c52fd12f31907bcf,,,,,,,,,,,,,,,,,,,,,,,a,0,1.7647,"[""0.027"",""0.126"",""0.627"",""0.211""]","[1,1,1,0]",0,63,63,63,1,1,0,,,1,FALSE,,,,,,,,,,,,,,,,,,,,,,,,,,,,,,,
,60b642b9eb58b6d8a5080ea6,627c6e86d17d51c8d498794a,2022-05-11_21h24.12.778,classification_task,2021.2.3,MacIntel,59.99880002,627c6715c52fd12f31907bcf,,,,,,,,,,,,,,,,,,,,,,,,,,,,,,,,,,,,,,,0, ,,0,9.849973361,1031.919,0,0,0,0,1,2,1,,,,,,,,,,,,,,,,,,
,60b642b9eb58b6d8a5080ea6,627c6e86d17d51c8d498794a,2022-05-11_21h24.12.778,classification_task,2021.2.3,MacIntel,59.99880002,627c6715c52fd12f31907bcf,,,,,,,,,,,,,,,,,,,,,,,,,,,,,,,,,,,,,,,1,  ,,0,4.57699515,1038.1356,0,0,0,0,1,2,1,,,,,,,,,,,,,,,,,,
,60b642b9eb58b6d8a5080ea6,627c6e86d17d51c8d498794a,2022-05-11_21h24.12.778,classification_task,2021.2.3,MacIntel,59.99880002,627c6715c52fd12f31907bcf,,,,,,,,,,,,,,,,,,,,,,,,,,,,,,,,,,,,,,,2,  ,,0,0,1042.5502,0,0,0,0,1,2,1,,,,,,,,,,,,,,,,,,
,60b642b9eb58b6d8a5080ea6,627c6e86d17d51c8d498794a,2022-05-11_21h24.12.778,classification_task,2021.2.3,MacIntel,59.99880002,627c6715c52fd12f31907bcf,,,,,,,,,,,,,,,,,,,,,,,,,,,,,,,,,,,,,,,,,,,,,0,0,0,0,1,,1,,,,,,,,,,,,,,,,,,
,60b642b9eb58b6d8a5080ea6,627c6e86d17d51c8d498794a,2022-05-11_21h24.12.778,classification_task,2021.2.3,MacIntel,59.99880002,627c6715c52fd12f31907bcf,,,,,,,,,,,,,,,,,,,,,space,15.507,l,1,5.8241,"[""0.229"",""0.126"",""0.627"",""0.807""]","[0,1,1,1]",0,0,0,0,1,1,0,,,1,FALSE,,,,,,,,,,,,,,,,,,,,,,,,,,,,,,,
,60b642b9eb58b6d8a5080ea6,627c6e86d17d51c8d498794a,2022-05-11_21h24.12.778,classification_task,2021.2.3,MacIntel,59.99880002,627c6715c52fd12f31907bcf,,,,,,,,,,,,,,,,,,,,,,,a,1,8.4571,"[""0.175"",""0.427"",""0.912"",""0.268""]","[1,1,1,0]",0,1,1,1,1,0,1,,,1,FALSE,,,,,,,,,,,,,,,,,,,,,,,,,,,,,,,
,60b642b9eb58b6d8a5080ea6,627c6e86d17d51c8d498794a,2022-05-11_21h24.12.778,classification_task,2021.2.3,MacIntel,59.99880002,627c6715c52fd12f31907bcf,,,,,,,,,,,,,,,,,,,,,,,a,1,3.0376,"[""0.325"",""0.268"",""0.677"",""0.874""]","[1,0,1,1]",0,2,2,2,1,0,0,,,1,FALSE,,,,,,,,,,,,,,,,,,,,,,,,,,,,,,,
,60b642b9eb58b6d8a5080ea6,627c6e86d17d51c8d498794a,2022-05-11_21h24.12.778,classification_task,2021.2.3,MacIntel,59.99880002,627c6715c52fd12f31907bcf,,,,,,,,,,,,,,,,,,,,,,,l,0,1.2223,"[""0.240"",""0.427"",""0.912"",""0.946""]","[0,1,1,1]",0,3,3,3,1,0,1,,,1,FALSE,,,,,,,,,,,,,,,,,,,,,,,,,,,,,,,
,60b642b9eb58b6d8a5080ea6,627c6e86d17d51c8d498794a,2022-05-11_21h24.12.778,classification_task,2021.2.3,MacIntel,59.99880002,627c6715c52fd12f31907bcf,,,,,,,,,,,,,,,,,,,,,,,l,1,2.072,"[""0.082"",""0.385"",""0.234"",""0.740""]","[1,1,0,1]",0,4,4,4,1,1,1,,,1,FALSE,,,,,,,,,,,,,,,,,,,,,,,,,,,,,,,
,60b642b9eb58b6d8a5080ea6,627c6e86d17d51c8d498794a,2022-05-11_21h24.12.778,classification_task,2021.2.3,MacIntel,59.99880002,627c6715c52fd12f31907bcf,,,,,,,,,,,,,,,,,,,,,,,a,0,0.9849,"[""0.027"",""0.126"",""0.277"",""0.807""]","[1,1,0,1]",0,5,5,5,1,1,0,,,1,FALSE,,,,,,,,,,,,,,,,,,,,,,,,,,,,,,,
,60b642b9eb58b6d8a5080ea6,627c6e86d17d51c8d498794a,2022-05-11_21h24.12.778,classification_task,2021.2.3,MacIntel,59.99880002,627c6715c52fd12f31907bcf,,,,,,,,,,,,,,,,,,,,,,,l,1,2.702,"[""0.027"",""0.288"",""0.627"",""0.807""]","[1,0,1,1]",0,6,6,6,1,1,0,,,1,FALSE,,,,,,,,,,,,,,,,,,,,,,,,,,,,,,,
,60b642b9eb58b6d8a5080ea6,627c6e86d17d51c8d498794a,2022-05-11_21h24.12.778,classification_task,2021.2.3,MacIntel,59.99880002,627c6715c52fd12f31907bcf,,,,,,,,,,,,,,,,,,,,,,,a,0,1.0566,"[""0.564"",""0.385"",""0.523"",""0.740""]","[0,1,1,1]",0,7,7,7,1,1,1,,,1,FALSE,,,,,,,,,,,,,,,,,,,,,,,,,,,,,,,
,60b642b9eb58b6d8a5080ea6,627c6e86d17d51c8d498794a,2022-05-11_21h24.12.778,classification_task,2021.2.3,MacIntel,59.99880002,627c6715c52fd12f31907bcf,,,,,,,,,,,,,,,,,,,,,,,l,0,2.9556,"[""0.325"",""0.467"",""0.677"",""0.570""]","[1,1,1,0]",0,8,8,8,1,0,0,,,1,FALSE,,,,,,,,,,,,,,,,,,,,,,,,,,,,,,,
,60b642b9eb58b6d8a5080ea6,627c6e86d17d51c8d498794a,2022-05-11_21h24.12.778,classification_task,2021.2.3,MacIntel,59.99880002,627c6715c52fd12f31907bcf,,,,,,,,,,,,,,,,,,,,,,,l,1,0.592,"[""0.082"",""0.385"",""0.523"",""0.268""]","[1,1,1,0]",0,9,9,9,1,1,1,,,1,FALSE,,,,,,,,,,,,,,,,,,,,,,,,,,,,,,,
,60b642b9eb58b6d8a5080ea6,627c6e86d17d51c8d498794a,2022-05-11_21h24.12.778,classification_task,2021.2.3,MacIntel,59.99880002,627c6715c52fd12f31907bcf,,,,,,,,,,,,,,,,,,,,,,,a,1,1.0468,"[""0.325"",""0.467"",""0.268"",""0.874""]","[1,1,0,1]",0,10,10,10,1,0,0,,,1,FALSE,,,,,,,,,,,,,,,,,,,,,,,,,,,,,,,
,60b642b9eb58b6d8a5080ea6,627c6e86d17d51c8d498794a,2022-05-11_21h24.12.778,classification_task,2021.2.3,MacIntel,59.99880002,627c6715c52fd12f31907bcf,,,,,,,,,,,,,,,,,,,,,,,a,1,2.8843,"[""0.175"",""0.427"",""0.268"",""0.946""]","[1,1,0,1]",0,11,11,11,1,0,1,,,1,FALSE,,,,,,,,,,,,,,,,,,,,,,,,,,,,,,,
,60b642b9eb58b6d8a5080ea6,627c6e86d17d51c8d498794a,2022-05-11_21h24.12.778,classification_task,2021.2.3,MacIntel,59.99880002,627c6715c52fd12f31907bcf,,,,,,,,,,,,,,,,,,,,,,,l,0,0.8709,"[""0.234"",""0.467"",""0.677"",""0.874""]","[0,1,1,1]",0,12,12,12,1,0,0,,,1,FALSE,,,,,,,,,,,,,,,,,,,,,,,,,,,,,,,
,60b642b9eb58b6d8a5080ea6,627c6e86d17d51c8d498794a,2022-05-11_21h24.12.778,classification_task,2021.2.3,MacIntel,59.99880002,627c6715c52fd12f31907bcf,,,,,,,,,,,,,,,,,,,,,,,l,1,3.051,"[""0.027"",""0.126"",""0.627"",""0.566""]","[1,1,1,0]",0,13,13,13,1,1,0,,,1,FALSE,,,,,,,,,,,,,,,,,,,,,,,,,,,,,,,
,60b642b9eb58b6d8a5080ea6,627c6e86d17d51c8d498794a,2022-05-11_21h24.12.778,classification_task,2021.2.3,MacIntel,59.99880002,627c6715c52fd12f31907bcf,,,,,,,,,,,,,,,,,,,,,,,a,0,1.0504,"[""0.082"",""0.234"",""0.523"",""0.740""]","[1,0,1,1]",0,14,14,14,1,1,1,,,1,FALSE,,,,,,,,,,,,,,,,,,,,,,,,,,,,,,,
,60b642b9eb58b6d8a5080ea6,627c6e86d17d51c8d498794a,2022-05-11_21h24.12.778,classification_task,2021.2.3,MacIntel,59.99880002,627c6715c52fd12f31907bcf,,,,,,,,,,,,,,,,,,,,,,,l,0,5.8232,"[""0.175"",""0.558"",""0.912"",""0.946""]","[1,0,1,1]",0,15,15,15,1,0,1,,,1,FALSE,,,,,,,,,,,,,,,,,,,,,,,,,,,,,,,
,60b642b9eb58b6d8a5080ea6,627c6e86d17d51c8d498794a,2022-05-11_21h24.12.778,classification_task,2021.2.3,MacIntel,59.99880002,627c6715c52fd12f31907bcf,,,,,,,,,,,,,,,,,,,,,,,a,0,0.5581,"[""0.566"",""0.126"",""0.627"",""0.807""]","[0,1,1,1]",0,16,16,16,1,1,0,,,1,FALSE,,,,,,,,,,,,,,,,,,,,,,,,,,,,,,,
,60b642b9eb58b6d8a5080ea6,627c6e86d17d51c8d498794a,2022-05-11_21h24.12.778,classification_task,2021.2.3,MacIntel,59.99880002,627c6715c52fd12f31907bcf,,,,,,,,,,,,,,,,,,,,,,,a,0,1.1183,"[""0.027"",""0.126"",""0.277"",""0.807""]","[1,1,0,1]",0,17,17,17,1,1,0,,,1,FALSE,,,,,,,,,,,,,,,,,,,,,,,,,,,,,,,
,60b642b9eb58b6d8a5080ea6,627c6e86d17d51c8d498794a,2022-05-11_21h24.12.778,classification_task,2021.2.3,MacIntel,59.99880002,627c6715c52fd12f31907bcf,,,,,,,,,,,,,,,,,,,,,,,a,1,1.8308,"[""0.563"",""0.427"",""0.912"",""0.946""]","[0,1,1,1]",0,18,18,18,1,0,1,,,1,FALSE,,,,,,,,,,,,,,,,,,,,,,,,,,,,,,,
,60b642b9eb58b6d8a5080ea6,627c6e86d17d51c8d498794a,2022-05-11_21h24.12.778,classification_task,2021.2.3,MacIntel,59.99880002,627c6715c52fd12f31907bcf,,,,,,,,,,,,,,,,,,,,,,,l,1,1.6873,"[""0.082"",""0.385"",""0.523"",""0.288""]","[1,1,1,0]",0,19,19,19,1,1,1,,,1,FALSE,,,,,,,,,,,,,,,,,,,,,,,,,,,,,,,
,60b642b9eb58b6d8a5080ea6,627c6e86d17d51c8d498794a,2022-05-11_21h24.12.778,classification_task,2021.2.3,MacIntel,59.99880002,627c6715c52fd12f31907bcf,,,,,,,,,,,,,,,,,,,,,,,a,1,5.7338,"[""0.175"",""0.277"",""0.912"",""0.946""]","[1,0,1,1]",0,20,20,20,1,0,1,,,1,FALSE,,,,,,,,,,,,,,,,,,,,,,,,,,,,,,,
,60b642b9eb58b6d8a5080ea6,627c6e86d17d51c8d498794a,2022-05-11_21h24.12.778,classification_task,2021.2.3,MacIntel,59.99880002,627c6715c52fd12f31907bcf,,,,,,,,,,,,,,,,,,,,,,,l,0,0.8857,"[""0.325"",""0.467"",""0.677"",""0.558""]","[1,1,1,0]",0,21,21,21,1,0,0,,,1,FALSE,,,,,,,,,,,,,,,,,,,,,,,,,,,,,,,
,60b642b9eb58b6d8a5080ea6,627c6e86d17d51c8d498794a,2022-05-11_21h24.12.778,classification_task,2021.2.3,MacIntel,59.99880002,627c6715c52fd12f31907bcf,,,,,,,,,,,,,,,,,,,,,,,a,1,3.3028,"[""0.175"",""0.427"",""0.912"",""0.234""]","[1,1,1,0]",0,22,22,22,1,0,1,,,1,FALSE,,,,,,,,,,,,,,,,,,,,,,,,,,,,,,,
,60b642b9eb58b6d8a5080ea6,627c6e86d17d51c8d498794a,2022-05-11_21h24.12.778,classification_task,2021.2.3,MacIntel,59.99880002,627c6715c52fd12f31907bcf,,,,,,,,,,,,,,,,,,,,,,,a,0,7.7728,"[""0.288"",""0.385"",""0.523"",""0.740""]","[0,1,1,1]",0,23,23,23,1,1,1,,,1,FALSE,,,,,,,,,,,,,,,,,,,,,,,,,,,,,,,
,60b642b9eb58b6d8a5080ea6,627c6e86d17d51c8d498794a,2022-05-11_21h24.12.778,classification_task,2021.2.3,MacIntel,59.99880002,627c6715c52fd12f31907bcf,,,,,,,,,,,,,,,,,,,,,,,l,1,1.2054,"[""0.082"",""0.570"",""0.523"",""0.740""]","[1,0,1,1]",0,24,24,24,1,1,1,,,1,FALSE,,,,,,,,,,,,,,,,,,,,,,,,,,,,,,,
,60b642b9eb58b6d8a5080ea6,627c6e86d17d51c8d498794a,2022-05-11_21h24.12.778,classification_task,2021.2.3,MacIntel,59.99880002,627c6715c52fd12f31907bcf,,,,,,,,,,,,,,,,,,,,,,,l,1,0.7513,"[""0.027"",""0.586"",""0.627"",""0.807""]","[1,0,1,1]",0,25,25,25,1,1,0,,,1,FALSE,,,,,,,,,,,,,,,,,,,,,,,,,,,,,,,
,60b642b9eb58b6d8a5080ea6,627c6e86d17d51c8d498794a,2022-05-11_21h24.12.778,classification_task,2021.2.3,MacIntel,59.99880002,627c6715c52fd12f31907bcf,,,,,,,,,,,,,,,,,,,,,,,a,1,1.4346,"[""0.325"",""0.467"",""0.566"",""0.874""]","[1,1,0,1]",0,26,26,26,1,0,0,,,1,FALSE,,,,,,,,,,,,,,,,,,,,,,,,,,,,,,,
,60b642b9eb58b6d8a5080ea6,627c6e86d17d51c8d498794a,2022-05-11_21h24.12.778,classification_task,2021.2.3,MacIntel,59.99880002,627c6715c52fd12f31907bcf,,,,,,,,,,,,,,,,,,,,,,,a,1,0.839,"[""0.175"",""0.427"",""0.221"",""0.946""]","[1,1,0,1]",0,27,27,27,1,0,1,,,1,FALSE,,,,,,,,,,,,,,,,,,,,,,,,,,,,,,,
,60b642b9eb58b6d8a5080ea6,627c6e86d17d51c8d498794a,2022-05-11_21h24.12.778,classification_task,2021.2.3,MacIntel,59.99880002,627c6715c52fd12f31907bcf,,,,,,,,,,,,,,,,,,,,,,,l,0,0.5382,"[""0.325"",""0.229"",""0.677"",""0.874""]","[1,0,1,1]",0,28,28,28,1,0,0,,,1,FALSE,,,,,,,,,,,,,,,,,,,,,,,,,,,,,,,
,60b642b9eb58b6d8a5080ea6,627c6e86d17d51c8d498794a,2022-05-11_21h24.12.778,classification_task,2021.2.3,MacIntel,59.99880002,627c6715c52fd12f31907bcf,,,,,,,,,,,,,,,,,,,,,,,a,0,0.8761,"[""0.027"",""0.126"",""0.627"",""0.566""]","[1,1,1,0]",0,29,29,29,1,1,0,,,1,FALSE,,,,,,,,,,,,,,,,,,,,,,,,,,,,,,,
,60b642b9eb58b6d8a5080ea6,627c6e86d17d51c8d498794a,2022-05-11_21h24.12.778,classification_task,2021.2.3,MacIntel,59.99880002,627c6715c52fd12f31907bcf,,,,,,,,,,,,,,,,,,,,,,,a,1,0.386,"[""0.586"",""0.467"",""0.677"",""0.874""]","[0,1,1,1]",0,30,30,30,1,0,0,,,1,FALSE,,,,,,,,,,,,,,,,,,,,,,,,,,,,,,,
,60b642b9eb58b6d8a5080ea6,627c6e86d17d51c8d498794a,2022-05-11_21h24.12.778,classification_task,2021.2.3,MacIntel,59.99880002,627c6715c52fd12f31907bcf,,,,,,,,,,,,,,,,,,,,,,,a,0,0.647,"[""0.082"",""0.385"",""0.271"",""0.740""]","[1,1,0,1]",0,31,31,31,1,1,1,,,1,FALSE,,,,,,,,,,,,,,,,,,,,,,,,,,,,,,,
,60b642b9eb58b6d8a5080ea6,627c6e86d17d51c8d498794a,2022-05-11_21h24.12.778,classification_task,2021.2.3,MacIntel,59.99880002,627c6715c52fd12f31907bcf,,,,,,,,,,,,,,,,,,,,,,,a,1,1.282,"[""0.325"",""0.570"",""0.677"",""0.874""]","[1,0,1,1]",0,32,32,32,1,0,0,,,1,FALSE,,,,,,,,,,,,,,,,,,,,,,,,,,,,,,,
,60b642b9eb58b6d8a5080ea6,627c6e86d17d51c8d498794a,2022-05-11_21h24.12.778,classification_task,2021.2.3,MacIntel,59.99880002,627c6715c52fd12f31907bcf,,,,,,,,,,,,,,,,,,,,,,,a,0,1.2909,"[""0.082"",""0.385"",""0.268"",""0.740""]","[1,1,0,1]",0,33,33,33,1,1,1,,,1,FALSE,,,,,,,,,,,,,,,,,,,,,,,,,,,,,,,
,60b642b9eb58b6d8a5080ea6,627c6e86d17d51c8d498794a,2022-05-11_21h24.12.778,classification_task,2021.2.3,MacIntel,59.99880002,627c6715c52fd12f31907bcf,,,,,,,,,,,,,,,,,,,,,,,a,0,0.8506,"[""0.027"",""0.126"",""0.211"",""0.807""]","[1,1,0,1]",0,34,34,34,1,1,0,,,1,FALSE,,,,,,,,,,,,,,,,,,,,,,,,,,,,,,,
,60b642b9eb58b6d8a5080ea6,627c6e86d17d51c8d498794a,2022-05-11_21h24.12.778,classification_task,2021.2.3,MacIntel,59.99880002,627c6715c52fd12f31907bcf,,,,,,,,,,,,,,,,,,,,,,,l,0,1.384,"[""0.175"",""0.211"",""0.912"",""0.946""]","[1,0,1,1]",0,35,35,35,1,0,1,,,1,FALSE,,,,,,,,,,,,,,,,,,,,,,,,,,,,,,,
,60b642b9eb58b6d8a5080ea6,627c6e86d17d51c8d498794a,2022-05-11_21h24.12.778,classification_task,2021.2.3,MacIntel,59.99880002,627c6715c52fd12f31907bcf,,,,,,,,,,,,,,,,,,,,,,,l,0,0.8143,"[""0.586"",""0.467"",""0.677"",""0.874""]","[0,1,1,1]",0,36,36,36,1,0,0,,,1,FALSE,,,,,,,,,,,,,,,,,,,,,,,,,,,,,,,
,60b642b9eb58b6d8a5080ea6,627c6e86d17d51c8d498794a,2022-05-11_21h24.12.778,classification_task,2021.2.3,MacIntel,59.99880002,627c6715c52fd12f31907bcf,,,,,,,,,,,,,,,,,,,,,,,l,0,2.632,"[""0.175"",""0.427"",""0.277"",""0.946""]","[1,1,0,1]",0,37,37,37,1,0,1,,,1,FALSE,,,,,,,,,,,,,,,,,,,,,,,,,,,,,,,
,60b642b9eb58b6d8a5080ea6,627c6e86d17d51c8d498794a,2022-05-11_21h24.12.778,classification_task,2021.2.3,MacIntel,59.99880002,627c6715c52fd12f31907bcf,,,,,,,,,,,,,,,,,,,,,,,a,1,3.3416,"[""0.175"",""0.427"",""0.912"",""0.234""]","[1,1,1,0]",0,38,38,38,1,0,1,,,1,FALSE,,,,,,,,,,,,,,,,,,,,,,,,,,,,,,,
,60b642b9eb58b6d8a5080ea6,627c6e86d17d51c8d498794a,2022-05-11_21h24.12.778,classification_task,2021.2.3,MacIntel,59.99880002,627c6715c52fd12f31907bcf,,,,,,,,,,,,,,,,,,,,,,,a,0,1.7007,"[""0.027"",""0.240"",""0.627"",""0.807""]","[1,0,1,1]",0,39,39,39,1,1,0,,,1,FALSE,,,,,,,,,,,,,,,,,,,,,,,,,,,,,,,
,60b642b9eb58b6d8a5080ea6,627c6e86d17d51c8d498794a,2022-05-11_21h24.12.778,classification_task,2021.2.3,MacIntel,59.99880002,627c6715c52fd12f31907bcf,,,,,,,,,,,,,,,,,,,,,,,a,1,2.041,"[""0.325"",""0.467"",""0.677"",""0.271""]","[1,1,1,0]",0,40,40,40,1,0,0,,,1,FALSE,,,,,,,,,,,,,,,,,,,,,,,,,,,,,,,
,60b642b9eb58b6d8a5080ea6,627c6e86d17d51c8d498794a,2022-05-11_21h24.12.778,classification_task,2021.2.3,MacIntel,59.99880002,627c6715c52fd12f31907bcf,,,,,,,,,,,,,,,,,,,,,,,l,0,6.2986,"[""0.268"",""0.427"",""0.912"",""0.946""]","[0,1,1,1]",0,41,41,41,1,0,1,,,1,FALSE,,,,,,,,,,,,,,,,,,,,,,,,,,,,,,,
,60b642b9eb58b6d8a5080ea6,627c6e86d17d51c8d498794a,2022-05-11_21h24.12.778,classification_task,2021.2.3,MacIntel,59.99880002,627c6715c52fd12f31907bcf,,,,,,,,,,,,,,,,,,,,,,,a,0,1.2521,"[""0.027"",""0.126"",""0.627"",""0.570""]","[1,1,1,0]",0,42,42,42,1,1,0,,,1,FALSE,,,,,,,,,,,,,,,,,,,,,,,,,,,,,,,
,60b642b9eb58b6d8a5080ea6,627c6e86d17d51c8d498794a,2022-05-11_21h24.12.778,classification_task,2021.2.3,MacIntel,59.99880002,627c6715c52fd12f31907bcf,,,,,,,,,,,,,,,,,,,,,,,l,1,3.0186,"[""0.560"",""0.385"",""0.523"",""0.740""]","[0,1,1,1]",0,43,43,43,1,1,1,,,1,FALSE,,,,,,,,,,,,,,,,,,,,,,,,,,,,,,,
,60b642b9eb58b6d8a5080ea6,627c6e86d17d51c8d498794a,2022-05-11_21h24.12.778,classification_task,2021.2.3,MacIntel,59.99880002,627c6715c52fd12f31907bcf,,,,,,,,,,,,,,,,,,,,,,,a,0,1.2225,"[""0.277"",""0.126"",""0.627"",""0.807""]","[0,1,1,1]",0,44,44,44,1,1,0,,,1,FALSE,,,,,,,,,,,,,,,,,,,,,,,,,,,,,,,
,60b642b9eb58b6d8a5080ea6,627c6e86d17d51c8d498794a,2022-05-11_21h24.12.778,classification_task,2021.2.3,MacIntel,59.99880002,627c6715c52fd12f31907bcf,,,,,,,,,,,,,,,,,,,,,,,l,0,1.1184,"[""0.325"",""0.467"",""0.560"",""0.874""]","[1,1,0,1]",0,45,45,45,1,0,0,,,1,FALSE,,,,,,,,,,,,,,,,,,,,,,,,,,,,,,,
,60b642b9eb58b6d8a5080ea6,627c6e86d17d51c8d498794a,2022-05-11_21h24.12.778,classification_task,2021.2.3,MacIntel,59.99880002,627c6715c52fd12f31907bcf,,,,,,,,,,,,,,,,,,,,,,,l,1,5.3375,"[""0.082"",""0.563"",""0.523"",""0.740""]","[1,0,1,1]",0,46,46,46,1,1,1,,,1,FALSE,,,,,,,,,,,,,,,,,,,,,,,,,,,,,,,
,60b642b9eb58b6d8a5080ea6,627c6e86d17d51c8d498794a,2022-05-11_21h24.12.778,classification_task,2021.2.3,MacIntel,59.99880002,627c6715c52fd12f31907bcf,,,,,,,,,,,,,,,,,,,,,,,l,1,0.9557,"[""0.082"",""0.385"",""0.523"",""0.563""]","[1,1,1,0]",0,47,47,47,1,1,1,,,1,FALSE,,,,,,,,,,,,,,,,,,,,,,,,,,,,,,,
,60b642b9eb58b6d8a5080ea6,627c6e86d17d51c8d498794a,2022-05-11_21h24.12.778,classification_task,2021.2.3,MacIntel,59.99880002,627c6715c52fd12f31907bcf,,,,,,,,,,,,,,,,,,,,,,,l,0,0.7881,"[""0.234"",""0.427"",""0.912"",""0.946""]","[0,1,1,1]",0,48,48,48,1,0,1,,,1,FALSE,,,,,,,,,,,,,,,,,,,,,,,,,,,,,,,
,60b642b9eb58b6d8a5080ea6,627c6e86d17d51c8d498794a,2022-05-11_21h24.12.778,classification_task,2021.2.3,MacIntel,59.99880002,627c6715c52fd12f31907bcf,,,,,,,,,,,,,,,,,,,,,,,a,1,1.1673,"[""0.325"",""0.271"",""0.677"",""0.874""]","[1,0,1,1]",0,49,49,49,1,0,0,,,1,FALSE,,,,,,,,,,,,,,,,,,,,,,,,,,,,,,,
,60b642b9eb58b6d8a5080ea6,627c6e86d17d51c8d498794a,2022-05-11_21h24.12.778,classification_task,2021.2.3,MacIntel,59.99880002,627c6715c52fd12f31907bcf,,,,,,,,,,,,,,,,,,,,,,,a,0,0.5996,"[""0.082"",""0.385"",""0.560"",""0.740""]","[1,1,0,1]",0,50,50,50,1,1,1,,,1,FALSE,,,,,,,,,,,,,,,,,,,,,,,,,,,,,,,
,60b642b9eb58b6d8a5080ea6,627c6e86d17d51c8d498794a,2022-05-11_21h24.12.778,classification_task,2021.2.3,MacIntel,59.99880002,627c6715c52fd12f31907bcf,,,,,,,,,,,,,,,,,,,,,,,a,0,0.6332,"[""0.027"",""0.126"",""0.234"",""0.807""]","[1,1,0,1]",0,51,51,51,1,1,0,,,1,FALSE,,,,,,,,,,,,,,,,,,,,,,,,,,,,,,,
,60b642b9eb58b6d8a5080ea6,627c6e86d17d51c8d498794a,2022-05-11_21h24.12.778,classification_task,2021.2.3,MacIntel,59.99880002,627c6715c52fd12f31907bcf,,,,,,,,,,,,,,,,,,,,,,,l,1,0.4699,"[""0.211"",""0.385"",""0.523"",""0.740""]","[0,1,1,1]",0,52,52,52,1,1,1,,,1,FALSE,,,,,,,,,,,,,,,,,,,,,,,,,,,,,,,
,60b642b9eb58b6d8a5080ea6,627c6e86d17d51c8d498794a,2022-05-11_21h24.12.778,classification_task,2021.2.3,MacIntel,59.99880002,627c6715c52fd12f31907bcf,,,,,,,,,,,,,,,,,,,,,,,l,0,0.1852,"[""0.175"",""0.564"",""0.912"",""0.946""]","[1,0,1,1]",0,53,53,53,1,0,1,,,1,FALSE,,,,,,,,,,,,,,,,,,,,,,,,,,,,,,,
,60b642b9eb58b6d8a5080ea6,627c6e86d17d51c8d498794a,2022-05-11_21h24.12.778,classification_task,2021.2.3,MacIntel,59.99880002,627c6715c52fd12f31907bcf,,,,,,,,,,,,,,,,,,,,,,,a,0,0.7522,"[""0.027"",""0.126"",""0.627"",""0.271""]","[1,1,1,0]",0,54,54,54,1,1,0,,,1,FALSE,,,,,,,,,,,,,,,,,,,,,,,,,,,,,,,
,60b642b9eb58b6d8a5080ea6,627c6e86d17d51c8d498794a,2022-05-11_21h24.12.778,classification_task,2021.2.3,MacIntel,59.99880002,627c6715c52fd12f31907bcf,,,,,,,,,,,,,,,,,,,,,,,l,0,2.4395,"[""0.325"",""0.467"",""0.677"",""0.271""]","[1,1,1,0]",0,55,55,55,1,0,0,,,1,FALSE,,,,,,,,,,,,,,,,,,,,,,,,,,,,,,,
,60b642b9eb58b6d8a5080ea6,627c6e86d17d51c8d498794a,2022-05-11_21h24.12.778,classification_task,2021.2.3,MacIntel,59.99880002,627c6715c52fd12f31907bcf,,,,,,,,,,,,,,,,,,,,,,,a,0,2.0486,"[""0.082"",""0.240"",""0.523"",""0.740""]","[1,0,1,1]",0,56,56,56,1,1,1,,,1,FALSE,,,,,,,,,,,,,,,,,,,,,,,,,,,,,,,
,60b642b9eb58b6d8a5080ea6,627c6e86d17d51c8d498794a,2022-05-11_21h24.12.778,classification_task,2021.2.3,MacIntel,59.99880002,627c6715c52fd12f31907bcf,,,,,,,,,,,,,,,,,,,,,,,l,0,1.2704,"[""0.325"",""0.467"",""0.229"",""0.874""]","[1,1,0,1]",0,57,57,57,1,0,0,,,1,FALSE,,,,,,,,,,,,,,,,,,,,,,,,,,,,,,,
,60b642b9eb58b6d8a5080ea6,627c6e86d17d51c8d498794a,2022-05-11_21h24.12.778,classification_task,2021.2.3,MacIntel,59.99880002,627c6715c52fd12f31907bcf,,,,,,,,,,,,,,,,,,,,,,,l,0,7.4357,"[""0.175"",""0.427"",""0.912"",""0.221""]","[1,1,1,0]",0,58,58,58,1,0,1,,,1,FALSE,,,,,,,,,,,,,,,,,,,,,,,,,,,,,,,
,60b642b9eb58b6d8a5080ea6,627c6e86d17d51c8d498794a,2022-05-11_21h24.12.778,classification_task,2021.2.3,MacIntel,59.99880002,627c6715c52fd12f31907bcf,,,,,,,,,,,,,,,,,,,,,,,l,0,1.8206,"[""0.560"",""0.467"",""0.677"",""0.874""]","[0,1,1,1]",0,59,59,59,1,0,0,,,1,FALSE,,,,,,,,,,,,,,,,,,,,,,,,,,,,,,,
,60b642b9eb58b6d8a5080ea6,627c6e86d17d51c8d498794a,2022-05-11_21h24.12.778,classification_task,2021.2.3,MacIntel,59.99880002,627c6715c52fd12f31907bcf,,,,,,,,,,,,,,,,,,,,,,,a,1,1.9673,"[""0.175"",""0.427"",""0.221"",""0.946""]","[1,1,0,1]",0,60,60,60,1,0,1,,,1,FALSE,,,,,,,,,,,,,,,,,,,,,,,,,,,,,,,
,60b642b9eb58b6d8a5080ea6,627c6e86d17d51c8d498794a,2022-05-11_21h24.12.778,classification_task,2021.2.3,MacIntel,59.99880002,627c6715c52fd12f31907bcf,,,,,,,,,,,,,,,,,,,,,,,a,0,1.215,"[""0.027"",""0.271"",""0.627"",""0.807""]","[1,0,1,1]",0,61,61,61,1,1,0,,,1,FALSE,,,,,,,,,,,,,,,,,,,,,,,,,,,,,,,
,60b642b9eb58b6d8a5080ea6,627c6e86d17d51c8d498794a,2022-05-11_21h24.12.778,classification_task,2021.2.3,MacIntel,59.99880002,627c6715c52fd12f31907bcf,,,,,,,,,,,,,,,,,,,,,,,l,1,1.6561,"[""0.586"",""0.126"",""0.627"",""0.807""]","[0,1,1,1]",0,62,62,62,1,1,0,,,1,FALSE,,,,,,,,,,,,,,,,,,,,,,,,,,,,,,,
,60b642b9eb58b6d8a5080ea6,627c6e86d17d51c8d498794a,2022-05-11_21h24.12.778,classification_task,2021.2.3,MacIntel,59.99880002,627c6715c52fd12f31907bcf,,,,,,,,,,,,,,,,,,,,,,,l,1,0.7562,"[""0.082"",""0.385"",""0.523"",""0.564""]","[1,1,1,0]",0,63,63,63,1,1,1,,,1,FALSE,,,,,,,,,,,,,,,,,,,,,,,,,,,,,,,
,60b642b9eb58b6d8a5080ea6,627c6e86d17d51c8d498794a,2022-05-11_21h24.12.778,classification_task,2021.2.3,MacIntel,59.99880002,627c6715c52fd12f31907bcf,,,,,,,,,,,,,,,,,,,,,,,,,,,,,,,,,,,,,,,0, ,,0,5.213224757,234.0448,0,1,1,1,1,2,2,,,,,,,,,,,,,,,,,,
,60b642b9eb58b6d8a5080ea6,627c6e86d17d51c8d498794a,2022-05-11_21h24.12.778,classification_task,2021.2.3,MacIntel,59.99880002,627c6715c52fd12f31907bcf,,,,,,,,,,,,,,,,,,,,,,,,,,,,,,,,,,,,,,,1,  ,,0,10,247.9974,0,1,1,1,1,2,2,,,,,,,,,,,,,,,,,,
,60b642b9eb58b6d8a5080ea6,627c6e86d17d51c8d498794a,2022-05-11_21h24.12.778,classification_task,2021.2.3,MacIntel,59.99880002,627c6715c52fd12f31907bcf,,,,,,,,,,,,,,,,,,,,,,,,,,,,,,,,,,,,,,,2,  ,,0,10,252.0616,0,1,1,1,1,2,2,,,,,,,,,,,,,,,,,,
,60b642b9eb58b6d8a5080ea6,627c6e86d17d51c8d498794a,2022-05-11_21h24.12.778,classification_task,2021.2.3,MacIntel,59.99880002,627c6715c52fd12f31907bcf,,,,,,,,,,,,,,,,,,,,,,,,,,,,,,,,,,,,,,,,,,,,,0,1,1,1,1,,2,,,,,,,,,,,,,,,,,,
,60b642b9eb58b6d8a5080ea6,627c6e86d17d51c8d498794a,2022-05-11_21h24.12.778,classification_task,2021.2.3,MacIntel,59.99880002,627c6715c52fd12f31907bcf,,,,,,,,,,,,,,,,,,,,,space,9.0688,a,1,3.3049,"[""0.175"",""0.427"",""0.288"",""0.946""]","[1,1,0,1]",0,0,0,0,1,0,1,,,1,FALSE,,,,,,,,,,,,,,,,,,,,,,,,,,,,,,,
,60b642b9eb58b6d8a5080ea6,627c6e86d17d51c8d498794a,2022-05-11_21h24.12.778,classification_task,2021.2.3,MacIntel,59.99880002,627c6715c52fd12f31907bcf,,,,,,,,,,,,,,,,,,,,,,,,0,,"[""0.221"",""0.126"",""0.627"",""0.807""]","[0,1,1,1]",0,1,1,1,1,1,0,,,1,FALSE,,,,,,,,,,,,,,,,,,,,,,,,,,,,,,,
,60b642b9eb58b6d8a5080ea6,627c6e86d17d51c8d498794a,2022-05-11_21h24.12.778,classification_task,2021.2.3,MacIntel,59.99880002,627c6715c52fd12f31907bcf,,,,,,,,,,,,,,,,,,,,,,,a,0,1.9371,"[""0.027"",""0.126"",""0.627"",""0.221""]","[1,1,1,0]",0,2,2,2,1,1,0,,,1,FALSE,,,,,,,,,,,,,,,,,,,,,,,,,,,,,,,
,60b642b9eb58b6d8a5080ea6,627c6e86d17d51c8d498794a,2022-05-11_21h24.12.778,classification_task,2021.2.3,MacIntel,59.99880002,627c6715c52fd12f31907bcf,,,,,,,,,,,,,,,,,,,,,,,a,1,1.8842,"[""0.175"",""0.427"",""0.912"",""0.268""]","[1,1,1,0]",0,3,3,3,1,0,1,,,1,FALSE,,,,,,,,,,,,,,,,,,,,,,,,,,,,,,,
,60b642b9eb58b6d8a5080ea6,627c6e86d17d51c8d498794a,2022-05-11_21h24.12.778,classification_task,2021.2.3,MacIntel,59.99880002,627c6715c52fd12f31907bcf,,,,,,,,,,,,,,,,,,,,,,,l,1,1.4713,"[""0.027"",""0.126"",""0.564"",""0.807""]","[1,1,0,1]",0,4,4,4,1,1,0,,,1,FALSE,,,,,,,,,,,,,,,,,,,,,,,,,,,,,,,
,60b642b9eb58b6d8a5080ea6,627c6e86d17d51c8d498794a,2022-05-11_21h24.12.778,classification_task,2021.2.3,MacIntel,59.99880002,627c6715c52fd12f31907bcf,,,,,,,,,,,,,,,,,,,,,,,l,0,0.7347,"[""0.325"",""0.467"",""0.229"",""0.874""]","[1,1,0,1]",0,5,5,5,1,0,0,,,1,FALSE,,,,,,,,,,,,,,,,,,,,,,,,,,,,,,,
,60b642b9eb58b6d8a5080ea6,627c6e86d17d51c8d498794a,2022-05-11_21h24.12.778,classification_task,2021.2.3,MacIntel,59.99880002,627c6715c52fd12f31907bcf,,,,,,,,,,,,,,,,,,,,,,,l,0,1.2842,"[""0.268"",""0.427"",""0.912"",""0.946""]","[0,1,1,1]",0,6,6,6,1,0,1,,,1,FALSE,,,,,,,,,,,,,,,,,,,,,,,,,,,,,,,
,60b642b9eb58b6d8a5080ea6,627c6e86d17d51c8d498794a,2022-05-11_21h24.12.778,classification_task,2021.2.3,MacIntel,59.99880002,627c6715c52fd12f31907bcf,,,,,,,,,,,,,,,,,,,,,,,a,1,0.7544,"[""0.325"",""0.467"",""0.677"",""0.558""]","[1,1,1,0]",0,7,7,7,1,0,0,,,1,FALSE,,,,,,,,,,,,,,,,,,,,,,,,,,,,,,,
,60b642b9eb58b6d8a5080ea6,627c6e86d17d51c8d498794a,2022-05-11_21h24.12.778,classification_task,2021.2.3,MacIntel,59.99880002,627c6715c52fd12f31907bcf,,,,,,,,,,,,,,,,,,,,,,,l,1,2.1999,"[""0.082"",""0.558"",""0.523"",""0.740""]","[1,0,1,1]",0,8,8,8,1,1,1,,,1,FALSE,,,,,,,,,,,,,,,,,,,,,,,,,,,,,,,
,60b642b9eb58b6d8a5080ea6,627c6e86d17d51c8d498794a,2022-05-11_21h24.12.778,classification_task,2021.2.3,MacIntel,59.99880002,627c6715c52fd12f31907bcf,,,,,,,,,,,,,,,,,,,,,,,a,0,0.9218,"[""0.082"",""0.385"",""0.523"",""0.211""]","[1,1,1,0]",0,9,9,9,1,1,1,,,1,FALSE,,,,,,,,,,,,,,,,,,,,,,,,,,,,,,,
,60b642b9eb58b6d8a5080ea6,627c6e86d17d51c8d498794a,2022-05-11_21h24.12.778,classification_task,2021.2.3,MacIntel,59.99880002,627c6715c52fd12f31907bcf,,,,,,,,,,,,,,,,,,,,,,,l,0,1.138,"[""0.325"",""0.221"",""0.677"",""0.874""]","[1,0,1,1]",0,10,10,10,1,0,0,,,1,FALSE,,,,,,,,,,,,,,,,,,,,,,,,,,,,,,,
,60b642b9eb58b6d8a5080ea6,627c6e86d17d51c8d498794a,2022-05-11_21h24.12.778,classification_task,2021.2.3,MacIntel,59.99880002,627c6715c52fd12f31907bcf,,,,,,,,,,,,,,,,,,,,,,,a,0,0.9156,"[""0.221"",""0.385"",""0.523"",""0.740""]","[0,1,1,1]",0,11,11,11,1,1,1,,,1,FALSE,,,,,,,,,,,,,,,,,,,,,,,,,,,,,,,
,60b642b9eb58b6d8a5080ea6,627c6e86d17d51c8d498794a,2022-05-11_21h24.12.778,classification_task,2021.2.3,MacIntel,59.99880002,627c6715c52fd12f31907bcf,,,,,,,,,,,,,,,,,,,,,,,l,1,0.6367,"[""0.027"",""0.563"",""0.627"",""0.807""]","[1,0,1,1]",0,12,12,12,1,1,0,,,1,FALSE,,,,,,,,,,,,,,,,,,,,,,,,,,,,,,,
,60b642b9eb58b6d8a5080ea6,627c6e86d17d51c8d498794a,2022-05-11_21h24.12.778,classification_task,2021.2.3,MacIntel,59.99880002,627c6715c52fd12f31907bcf,,,,,,,,,,,,,,,,,,,,,,,l,0,0.9351,"[""0.288"",""0.467"",""0.677"",""0.874""]","[0,1,1,1]",0,13,13,13,1,0,0,,,1,FALSE,,,,,,,,,,,,,,,,,,,,,,,,,,,,,,,
,60b642b9eb58b6d8a5080ea6,627c6e86d17d51c8d498794a,2022-05-11_21h24.12.778,classification_task,2021.2.3,MacIntel,59.99880002,627c6715c52fd12f31907bcf,,,,,,,,,,,,,,,,,,,,,,,l,1,0.1356,"[""0.082"",""0.385"",""0.558"",""0.740""]","[1,1,0,1]",0,14,14,14,1,1,1,,,1,FALSE,,,,,,,,,,,,,,,,,,,,,,,,,,,,,,,
,60b642b9eb58b6d8a5080ea6,627c6e86d17d51c8d498794a,2022-05-11_21h24.12.778,classification_task,2021.2.3,MacIntel,59.99880002,627c6715c52fd12f31907bcf,,,,,,,,,,,,,,,,,,,,,,,l,0,2.4025,"[""0.175"",""0.558"",""0.912"",""0.946""]","[1,0,1,1]",0,15,15,15,1,0,1,,,1,FALSE,,,,,,,,,,,,,,,,,,,,,,,,,,,,,,,
,60b642b9eb58b6d8a5080ea6,627c6e86d17d51c8d498794a,2022-05-11_21h24.12.778,classification_task,2021.2.3,MacIntel,59.99880002,627c6715c52fd12f31907bcf,,,,,,,,,,,,,,,,,,,,,,,a,1,5.5512,"[""0.325"",""0.467"",""0.677"",""0.240""]","[1,1,1,0]",0,16,16,16,1,0,0,,,1,FALSE,,,,,,,,,,,,,,,,,,,,,,,,,,,,,,,
,60b642b9eb58b6d8a5080ea6,627c6e86d17d51c8d498794a,2022-05-11_21h24.12.778,classification_task,2021.2.3,MacIntel,59.99880002,627c6715c52fd12f31907bcf,,,,,,,,,,,,,,,,,,,,,,,a,0,4.8861,"[""0.027"",""0.277"",""0.627"",""0.807""]","[1,0,1,1]",0,17,17,17,1,1,0,,,1,FALSE,,,,,,,,,,,,,,,,,,,,,,,,,,,,,,,
,60b642b9eb58b6d8a5080ea6,627c6e86d17d51c8d498794a,2022-05-11_21h24.12.778,classification_task,2021.2.3,MacIntel,59.99880002,627c6715c52fd12f31907bcf,,,,,,,,,,,,,,,,,,,,,,,,0,,"[""0.325"",""0.277"",""0.677"",""0.874""]","[1,0,1,1]",0,18,18,18,1,0,0,,,1,FALSE,,,,,,,,,,,,,,,,,,,,,,,,,,,,,,,
,60b642b9eb58b6d8a5080ea6,627c6e86d17d51c8d498794a,2022-05-11_21h24.12.778,classification_task,2021.2.3,MacIntel,59.99880002,627c6715c52fd12f31907bcf,,,,,,,,,,,,,,,,,,,,,,,a,0,0.7758,"[""0.027"",""0.126"",""0.558"",""0.807""]","[1,1,0,1]",0,19,19,19,1,1,0,,,1,FALSE,,,,,,,,,,,,,,,,,,,,,,,,,,,,,,,
,60b642b9eb58b6d8a5080ea6,627c6e86d17d51c8d498794a,2022-05-11_21h24.12.778,classification_task,2021.2.3,MacIntel,59.99880002,627c6715c52fd12f31907bcf,,,,,,,,,,,,,,,,,,,,,,,l,0,1.3838,"[""0.175"",""0.427"",""0.912"",""0.211""]","[1,1,1,0]",0,20,20,20,1,0,1,,,1,FALSE,,,,,,,,,,,,,,,,,,,,,,,,,,,,,,,
,60b642b9eb58b6d8a5080ea6,627c6e86d17d51c8d498794a,2022-05-11_21h24.12.778,classification_task,2021.2.3,MacIntel,59.99880002,627c6715c52fd12f31907bcf,,,,,,,,,,,,,,,,,,,,,,,l,0,0.6224,"[""0.325"",""0.467"",""0.560"",""0.874""]","[1,1,0,1]",0,21,21,21,1,0,0,,,1,FALSE,,,,,,,,,,,,,,,,,,,,,,,,,,,,,,,
,60b642b9eb58b6d8a5080ea6,627c6e86d17d51c8d498794a,2022-05-11_21h24.12.778,classification_task,2021.2.3,MacIntel,59.99880002,627c6715c52fd12f31907bcf,,,,,,,,,,,,,,,,,,,,,,,a,0,0.685,"[""0.082"",""0.385"",""0.523"",""0.271""]","[1,1,1,0]",0,22,22,22,1,1,1,,,1,FALSE,,,,,,,,,,,,,,,,,,,,,,,,,,,,,,,
,60b642b9eb58b6d8a5080ea6,627c6e86d17d51c8d498794a,2022-05-11_21h24.12.778,classification_task,2021.2.3,MacIntel,59.99880002,627c6715c52fd12f31907bcf,,,,,,,,,,,,,,,,,,,,,,,l,0,1.9013,"[""0.175"",""0.211"",""0.912"",""0.946""]","[1,0,1,1]",0,23,23,23,1,0,1,,,1,FALSE,,,,,,,,,,,,,,,,,,,,,,,,,,,,,,,
,60b642b9eb58b6d8a5080ea6,627c6e86d17d51c8d498794a,2022-05-11_21h24.12.778,classification_task,2021.2.3,MacIntel,59.99880002,627c6715c52fd12f31907bcf,,,,,,,,,,,,,,,,,,,,,,,l,1,1.152,"[""0.566"",""0.126"",""0.627"",""0.807""]","[0,1,1,1]",0,24,24,24,1,1,0,,,1,FALSE,,,,,,,,,,,,,,,,,,,,,,,,,,,,,,,
,60b642b9eb58b6d8a5080ea6,627c6e86d17d51c8d498794a,2022-05-11_21h24.12.778,classification_task,2021.2.3,MacIntel,59.99880002,627c6715c52fd12f31907bcf,,,,,,,,,,,,,,,,,,,,,,,a,0,2.2514,"[""0.082"",""0.566"",""0.523"",""0.740""]","[1,0,1,1]",0,25,25,25,1,1,1,,,1,FALSE,,,,,,,,,,,,,,,,,,,,,,,,,,,,,,,
,60b642b9eb58b6d8a5080ea6,627c6e86d17d51c8d498794a,2022-05-11_21h24.12.778,classification_task,2021.2.3,MacIntel,59.99880002,627c6715c52fd12f31907bcf,,,,,,,,,,,,,,,,,,,,,,,a,0,0.7549,"[""0.234"",""0.385"",""0.523"",""0.740""]","[0,1,1,1]",0,26,26,26,1,1,1,,,1,FALSE,,,,,,,,,,,,,,,,,,,,,,,,,,,,,,,
,60b642b9eb58b6d8a5080ea6,627c6e86d17d51c8d498794a,2022-05-11_21h24.12.778,classification_task,2021.2.3,MacIntel,59.99880002,627c6715c52fd12f31907bcf,,,,,,,,,,,,,,,,,,,,,,,a,1,4.804,"[""0.175"",""0.427"",""0.288"",""0.946""]","[1,1,0,1]",0,27,27,27,1,0,1,,,1,FALSE,,,,,,,,,,,,,,,,,,,,,,,,,,,,,,,
,60b642b9eb58b6d8a5080ea6,627c6e86d17d51c8d498794a,2022-05-11_21h24.12.778,classification_task,2021.2.3,MacIntel,59.99880002,627c6715c52fd12f31907bcf,,,,,,,,,,,,,,,,,,,,,,,a,0,1.6684,"[""0.082"",""0.385"",""0.271"",""0.740""]","[1,1,0,1]",0,28,28,28,1,1,1,,,1,FALSE,,,,,,,,,,,,,,,,,,,,,,,,,,,,,,,
,60b642b9eb58b6d8a5080ea6,627c6e86d17d51c8d498794a,2022-05-11_21h24.12.778,classification_task,2021.2.3,MacIntel,59.99880002,627c6715c52fd12f31907bcf,,,,,,,,,,,,,,,,,,,,,,,l,0,0.7707,"[""0.221"",""0.467"",""0.677"",""0.874""]","[0,1,1,1]",0,29,29,29,1,0,0,,,1,FALSE,,,,,,,,,,,,,,,,,,,,,,,,,,,,,,,
,60b642b9eb58b6d8a5080ea6,627c6e86d17d51c8d498794a,2022-05-11_21h24.12.778,classification_task,2021.2.3,MacIntel,59.99880002,627c6715c52fd12f31907bcf,,,,,,,,,,,,,,,,,,,,,,,a,0,1.07,"[""0.027"",""0.126"",""0.627"",""0.211""]","[1,1,1,0]",0,30,30,30,1,1,0,,,1,FALSE,,,,,,,,,,,,,,,,,,,,,,,,,,,,,,,
,60b642b9eb58b6d8a5080ea6,627c6e86d17d51c8d498794a,2022-05-11_21h24.12.778,classification_task,2021.2.3,MacIntel,59.99880002,627c6715c52fd12f31907bcf,,,,,,,,,,,,,,,,,,,,,,,l,0,0.8504,"[""0.277"",""0.427"",""0.912"",""0.946""]","[0,1,1,1]",0,31,31,31,1,0,1,,,1,FALSE,,,,,,,,,,,,,,,,,,,,,,,,,,,,,,,
,60b642b9eb58b6d8a5080ea6,627c6e86d17d51c8d498794a,2022-05-11_21h24.12.778,classification_task,2021.2.3,MacIntel,59.99880002,627c6715c52fd12f31907bcf,,,,,,,,,,,,,,,,,,,,,,,l,0,2.3524,"[""0.558"",""0.467"",""0.677"",""0.874""]","[0,1,1,1]",0,32,32,32,1,0,0,,,1,FALSE,,,,,,,,,,,,,,,,,,,,,,,,,,,,,,,
,60b642b9eb58b6d8a5080ea6,627c6e86d17d51c8d498794a,2022-05-11_21h24.12.778,classification_task,2021.2.3,MacIntel,59.99880002,627c6715c52fd12f31907bcf,,,,,,,,,,,,,,,,,,,,,,,l,0,0.9377,"[""0.175"",""0.427"",""0.570"",""0.946""]","[1,1,0,1]",0,33,33,33,1,0,1,,,1,FALSE,,,,,,,,,,,,,,,,,,,,,,,,,,,,,,,
,60b642b9eb58b6d8a5080ea6,627c6e86d17d51c8d498794a,2022-05-11_21h24.12.778,classification_task,2021.2.3,MacIntel,59.99880002,627c6715c52fd12f31907bcf,,,,,,,,,,,,,,,,,,,,,,,l,1,0.638,"[""0.570"",""0.385"",""0.523"",""0.740""]","[0,1,1,1]",0,34,34,34,1,1,1,,,1,FALSE,,,,,,,,,,,,,,,,,,,,,,,,,,,,,,,
,60b642b9eb58b6d8a5080ea6,627c6e86d17d51c8d498794a,2022-05-11_21h24.12.778,classification_task,2021.2.3,MacIntel,59.99880002,627c6715c52fd12f31907bcf,,,,,,,,,,,,,,,,,,,,,,,a,0,1.0358,"[""0.082"",""0.385"",""0.271"",""0.740""]","[1,1,0,1]",0,35,35,35,1,1,1,,,1,FALSE,,,,,,,,,,,,,,,,,,,,,,,,,,,,,,,
,60b642b9eb58b6d8a5080ea6,627c6e86d17d51c8d498794a,2022-05-11_21h24.12.778,classification_task,2021.2.3,MacIntel,59.99880002,627c6715c52fd12f31907bcf,,,,,,,,,,,,,,,,,,,,,,,l,0,0.7304,"[""0.271"",""0.427"",""0.912"",""0.946""]","[0,1,1,1]",0,36,36,36,1,0,1,,,1,FALSE,,,,,,,,,,,,,,,,,,,,,,,,,,,,,,,
,60b642b9eb58b6d8a5080ea6,627c6e86d17d51c8d498794a,2022-05-11_21h24.12.778,classification_task,2021.2.3,MacIntel,59.99880002,627c6715c52fd12f31907bcf,,,,,,,,,,,,,,,,,,,,,,,a,0,0.689,"[""0.027"",""0.277"",""0.627"",""0.807""]","[1,0,1,1]",0,37,37,37,1,1,0,,,1,FALSE,,,,,,,,,,,,,,,,,,,,,,,,,,,,,,,
,60b642b9eb58b6d8a5080ea6,627c6e86d17d51c8d498794a,2022-05-11_21h24.12.778,classification_task,2021.2.3,MacIntel,59.99880002,627c6715c52fd12f31907bcf,,,,,,,,,,,,,,,,,,,,,,,l,0,0.6013,"[""0.325"",""0.467"",""0.677"",""0.563""]","[1,1,1,0]",0,38,38,38,1,0,0,,,1,FALSE,,,,,,,,,,,,,,,,,,,,,,,,,,,,,,,
,60b642b9eb58b6d8a5080ea6,627c6e86d17d51c8d498794a,2022-05-11_21h24.12.778,classification_task,2021.2.3,MacIntel,59.99880002,627c6715c52fd12f31907bcf,,,,,,,,,,,,,,,,,,,,,,,a,1,1.1013,"[""0.325"",""0.467"",""0.229"",""0.874""]","[1,1,0,1]",0,39,39,39,1,0,0,,,1,FALSE,,,,,,,,,,,,,,,,,,,,,,,,,,,,,,,
,60b642b9eb58b6d8a5080ea6,627c6e86d17d51c8d498794a,2022-05-11_21h24.12.778,classification_task,2021.2.3,MacIntel,59.99880002,627c6715c52fd12f31907bcf,,,,,,,,,,,,,,,,,,,,,,,a,0,1.0143,"[""0.027"",""0.126"",""0.221"",""0.807""]","[1,1,0,1]",0,40,40,40,1,1,0,,,1,FALSE,,,,,,,,,,,,,,,,,,,,,,,,,,,,,,,
,60b642b9eb58b6d8a5080ea6,627c6e86d17d51c8d498794a,2022-05-11_21h24.12.778,classification_task,2021.2.3,MacIntel,59.99880002,627c6715c52fd12f31907bcf,,,,,,,,,,,,,,,,,,,,,,,a,0,2.1344,"[""0.082"",""0.229"",""0.523"",""0.740""]","[1,0,1,1]",0,41,41,41,1,1,1,,,1,FALSE,,,,,,,,,,,,,,,,,,,,,,,,,,,,,,,
,60b642b9eb58b6d8a5080ea6,627c6e86d17d51c8d498794a,2022-05-11_21h24.12.778,classification_task,2021.2.3,MacIntel,59.99880002,627c6715c52fd12f31907bcf,,,,,,,,,,,,,,,,,,,,,,,a,0,1.0021,"[""0.288"",""0.126"",""0.627"",""0.807""]","[0,1,1,1]",0,42,42,42,1,1,0,,,1,FALSE,,,,,,,,,,,,,,,,,,,,,,,,,,,,,,,
,60b642b9eb58b6d8a5080ea6,627c6e86d17d51c8d498794a,2022-05-11_21h24.12.778,classification_task,2021.2.3,MacIntel,59.99880002,627c6715c52fd12f31907bcf,,,,,,,,,,,,,,,,,,,,,,,a,1,2.6525,"[""0.175"",""0.427"",""0.912"",""0.229""]","[1,1,1,0]",0,43,43,43,1,0,1,,,1,FALSE,,,,,,,,,,,,,,,,,,,,,,,,,,,,,,,
,60b642b9eb58b6d8a5080ea6,627c6e86d17d51c8d498794a,2022-05-11_21h24.12.778,classification_task,2021.2.3,MacIntel,59.99880002,627c6715c52fd12f31907bcf,,,,,,,,,,,,,,,,,,,,,,,l,0,0.3987,"[""0.325"",""0.586"",""0.677"",""0.874""]","[1,0,1,1]",0,44,44,44,1,0,0,,,1,FALSE,,,,,,,,,,,,,,,,,,,,,,,,,,,,,,,
,60b642b9eb58b6d8a5080ea6,627c6e86d17d51c8d498794a,2022-05-11_21h24.12.778,classification_task,2021.2.3,MacIntel,59.99880002,627c6715c52fd12f31907bcf,,,,,,,,,,,,,,,,,,,,,,,l,1,0.5401,"[""0.027"",""0.126"",""0.627"",""0.564""]","[1,1,1,0]",0,45,45,45,1,1,0,,,1,FALSE,,,,,,,,,,,,,,,,,,,,,,,,,,,,,,,
,60b642b9eb58b6d8a5080ea6,627c6e86d17d51c8d498794a,2022-05-11_21h24.12.778,classification_task,2021.2.3,MacIntel,59.99880002,627c6715c52fd12f31907bcf,,,,,,,,,,,,,,,,,,,,,,,l,1,0.701,"[""0.082"",""0.385"",""0.523"",""0.560""]","[1,1,1,0]",0,46,46,46,1,1,1,,,1,FALSE,,,,,,,,,,,,,,,,,,,,,,,,,,,,,,,
,60b642b9eb58b6d8a5080ea6,627c6e86d17d51c8d498794a,2022-05-11_21h24.12.778,classification_task,2021.2.3,MacIntel,59.99880002,627c6715c52fd12f31907bcf,,,,,,,,,,,,,,,,,,,,,,,a,1,0.6354,"[""0.175"",""0.288"",""0.912"",""0.946""]","[1,0,1,1]",0,47,47,47,1,0,1,,,1,FALSE,,,,,,,,,,,,,,,,,,,,,,,,,,,,,,,
,60b642b9eb58b6d8a5080ea6,627c6e86d17d51c8d498794a,2022-05-11_21h24.12.778,classification_task,2021.2.3,MacIntel,59.99880002,627c6715c52fd12f31907bcf,,,,,,,,,,,,,,,,,,,,,,,a,0,1.4478,"[""0.271"",""0.126"",""0.627"",""0.807""]","[0,1,1,1]",0,48,48,48,1,1,0,,,1,FALSE,,,,,,,,,,,,,,,,,,,,,,,,,,,,,,,
,60b642b9eb58b6d8a5080ea6,627c6e86d17d51c8d498794a,2022-05-11_21h24.12.778,classification_task,2021.2.3,MacIntel,59.99880002,627c6715c52fd12f31907bcf,,,,,,,,,,,,,,,,,,,,,,,l,1,1.7411,"[""0.082"",""0.564"",""0.523"",""0.740""]","[1,0,1,1]",0,49,49,49,1,1,1,,,1,FALSE,,,,,,,,,,,,,,,,,,,,,,,,,,,,,,,
,60b642b9eb58b6d8a5080ea6,627c6e86d17d51c8d498794a,2022-05-11_21h24.12.778,classification_task,2021.2.3,MacIntel,59.99880002,627c6715c52fd12f31907bcf,,,,,,,,,,,,,,,,,,,,,,,a,1,1.8897,"[""0.325"",""0.467"",""0.677"",""0.570""]","[1,1,1,0]",0,50,50,50,1,0,0,,,1,FALSE,,,,,,,,,,,,,,,,,,,,,,,,,,,,,,,
,60b642b9eb58b6d8a5080ea6,627c6e86d17d51c8d498794a,2022-05-11_21h24.12.778,classification_task,2021.2.3,MacIntel,59.99880002,627c6715c52fd12f31907bcf,,,,,,,,,,,,,,,,,,,,,,,l,0,1.368,"[""0.325"",""0.221"",""0.677"",""0.874""]","[1,0,1,1]",0,51,51,51,1,0,0,,,1,FALSE,,,,,,,,,,,,,,,,,,,,,,,,,,,,,,,
,60b642b9eb58b6d8a5080ea6,627c6e86d17d51c8d498794a,2022-05-11_21h24.12.778,classification_task,2021.2.3,MacIntel,59.99880002,627c6715c52fd12f31907bcf,,,,,,,,,,,,,,,,,,,,,,,a,0,2.4536,"[""0.082"",""0.385"",""0.586"",""0.740""]","[1,1,0,1]",0,52,52,52,1,1,1,,,1,FALSE,,,,,,,,,,,,,,,,,,,,,,,,,,,,,,,
,60b642b9eb58b6d8a5080ea6,627c6e86d17d51c8d498794a,2022-05-11_21h24.12.778,classification_task,2021.2.3,MacIntel,59.99880002,627c6715c52fd12f31907bcf,,,,,,,,,,,,,,,,,,,,,,,a,0,0.3227,"[""0.082"",""0.385"",""0.523"",""0.563""]","[1,1,1,0]",0,53,53,53,1,1,1,,,1,FALSE,,,,,,,,,,,,,,,,,,,,,,,,,,,,,,,
,60b642b9eb58b6d8a5080ea6,627c6e86d17d51c8d498794a,2022-05-11_21h24.12.778,classification_task,2021.2.3,MacIntel,59.99880002,627c6715c52fd12f31907bcf,,,,,,,,,,,,,,,,,,,,,,,l,0,0.6734,"[""0.175"",""0.211"",""0.912"",""0.946""]","[1,0,1,1]",0,54,54,54,1,0,1,,,1,FALSE,,,,,,,,,,,,,,,,,,,,,,,,,,,,,,,
,60b642b9eb58b6d8a5080ea6,627c6e86d17d51c8d498794a,2022-05-11_21h24.12.778,classification_task,2021.2.3,MacIntel,59.99880002,627c6715c52fd12f31907bcf,,,,,,,,,,,,,,,,,,,,,,,a,1,1.346,"[""0.271"",""0.467"",""0.677"",""0.874""]","[0,1,1,1]",0,55,55,55,1,0,0,,,1,FALSE,,,,,,,,,,,,,,,,,,,,,,,,,,,,,,,
,60b642b9eb58b6d8a5080ea6,627c6e86d17d51c8d498794a,2022-05-11_21h24.12.778,classification_task,2021.2.3,MacIntel,59.99880002,627c6715c52fd12f31907bcf,,,,,,,,,,,,,,,,,,,,,,,a,0,0.7816,"[""0.027"",""0.126"",""0.627"",""0.288""]","[1,1,1,0]",0,56,56,56,1,1,0,,,1,FALSE,,,,,,,,,,,,,,,,,,,,,,,,,,,,,,,
,60b642b9eb58b6d8a5080ea6,627c6e86d17d51c8d498794a,2022-05-11_21h24.12.778,classification_task,2021.2.3,MacIntel,59.99880002,627c6715c52fd12f31907bcf,,,,,,,,,,,,,,,,,,,,,,,l,1,1.0319,"[""0.558"",""0.385"",""0.523"",""0.740""]","[0,1,1,1]",0,57,57,57,1,1,1,,,1,FALSE,,,,,,,,,,,,,,,,,,,,,,,,,,,,,,,
,60b642b9eb58b6d8a5080ea6,627c6e86d17d51c8d498794a,2022-05-11_21h24.12.778,classification_task,2021.2.3,MacIntel,59.99880002,627c6715c52fd12f31907bcf,,,,,,,,,,,,,,,,,,,,,,,a,1,2.4166,"[""0.325"",""0.467"",""0.221"",""0.874""]","[1,1,0,1]",0,58,58,58,1,0,0,,,1,FALSE,,,,,,,,,,,,,,,,,,,,,,,,,,,,,,,
,60b642b9eb58b6d8a5080ea6,627c6e86d17d51c8d498794a,2022-05-11_21h24.12.778,classification_task,2021.2.3,MacIntel,59.99880002,627c6715c52fd12f31907bcf,,,,,,,,,,,,,,,,,,,,,,,a,1,1.0509,"[""0.175"",""0.427"",""0.563"",""0.946""]","[1,1,0,1]",0,59,59,59,1,0,1,,,1,FALSE,,,,,,,,,,,,,,,,,,,,,,,,,,,,,,,
,60b642b9eb58b6d8a5080ea6,627c6e86d17d51c8d498794a,2022-05-11_21h24.12.778,classification_task,2021.2.3,MacIntel,59.99880002,627c6715c52fd12f31907bcf,,,,,,,,,,,,,,,,,,,,,,,l,0,1.1768,"[""0.271"",""0.427"",""0.912"",""0.946""]","[0,1,1,1]",0,60,60,60,1,0,1,,,1,FALSE,,,,,,,,,,,,,,,,,,,,,,,,,,,,,,,
,60b642b9eb58b6d8a5080ea6,627c6e86d17d51c8d498794a,2022-05-11_21h24.12.778,classification_task,2021.2.3,MacIntel,59.99880002,627c6715c52fd12f31907bcf,,,,,,,,,,,,,,,,,,,,,,,a,1,0.9316,"[""0.175"",""0.427"",""0.912"",""0.240""]","[1,1,1,0]",0,61,61,61,1,0,1,,,1,FALSE,,,,,,,,,,,,,,,,,,,,,,,,,,,,,,,
,60b642b9eb58b6d8a5080ea6,627c6e86d17d51c8d498794a,2022-05-11_21h24.12.778,classification_task,2021.2.3,MacIntel,59.99880002,627c6715c52fd12f31907bcf,,,,,,,,,,,,,,,,,,,,,,,a,0,2.8493,"[""0.027"",""0.566"",""0.627"",""0.807""]","[1,0,1,1]",0,62,62,62,1,1,0,,,1,FALSE,,,,,,,,,,,,,,,,,,,,,,,,,,,,,,,
,60b642b9eb58b6d8a5080ea6,627c6e86d17d51c8d498794a,2022-05-11_21h24.12.778,classification_task,2021.2.3,MacIntel,59.99880002,627c6715c52fd12f31907bcf,,,,,,,,,,,,,,,,,,,,,,,l,1,2.2869,"[""0.027"",""0.126"",""0.586"",""0.807""]","[1,1,0,1]",0,63,63,63,1,1,0,,,1,FALSE,,,,,,,,,,,,,,,,,,,,,,,,,,,,,,,
,60b642b9eb58b6d8a5080ea6,627c6e86d17d51c8d498794a,2022-05-11_21h24.12.778,classification_task,2021.2.3,MacIntel,59.99880002,627c6715c52fd12f31907bcf,,,,,,,,,,,,,,,,,,,,,,,,,,,,,,,,,,,,,,,0, ,,0,5.490979571,191.7316,0,2,2,2,1,2,3,,,,,,,,,,,,,,,,,,
,60b642b9eb58b6d8a5080ea6,627c6e86d17d51c8d498794a,2022-05-11_21h24.12.778,classification_task,2021.2.3,MacIntel,59.99880002,627c6715c52fd12f31907bcf,,,,,,,,,,,,,,,,,,,,,,,,,,,,,,,,,,,,,,,1,  ,,0,0.329838147,195.7204,0,2,2,2,1,2,3,,,,,,,,,,,,,,,,,,
,60b642b9eb58b6d8a5080ea6,627c6e86d17d51c8d498794a,2022-05-11_21h24.12.778,classification_task,2021.2.3,MacIntel,59.99880002,627c6715c52fd12f31907bcf,,,,,,,,,,,,,,,,,,,,,,,,,,,,,,,,,,,,,,,2,  ,,0,8.317556768,208.8113,0,2,2,2,1,2,3,,,,,,,,,,,,,,,,,,
,60b642b9eb58b6d8a5080ea6,627c6e86d17d51c8d498794a,2022-05-11_21h24.12.778,classification_task,2021.2.3,MacIntel,59.99880002,627c6715c52fd12f31907bcf,,,,,,,,,,,,,,,,,,,,,,,,,,,,,,,,,,,,,,,,,,,,,0,2,2,2,1,,3,,,,,,,,,,,,,,,,,,
,60b642b9eb58b6d8a5080ea6,627c6e86d17d51c8d498794a,2022-05-11_21h24.12.778,classification_task,2021.2.3,MacIntel,59.99880002,627c6715c52fd12f31907bcf,,,,,,,,,,,,,,,,,,,,,,,,,,,,,,,,,,,,,,,,,,,,,,,,,,,,,I believe the aid is a competent performer,,0.7,0,1,1538.5444,0,0,0,0,1,0,,,,,
,60b642b9eb58b6d8a5080ea6,627c6e86d17d51c8d498794a,2022-05-11_21h24.12.778,classification_task,2021.2.3,MacIntel,59.99880002,627c6715c52fd12f31907bcf,,,,,,,,,,,,,,,,,,,,,,,,,,,,,,,,,,,,,,,,,,,,,,,,,,,,,I trust the aid,,0.7,0,1,1543.7364,0,0,0,0,1,0,,,,,
,60b642b9eb58b6d8a5080ea6,627c6e86d17d51c8d498794a,2022-05-11_21h24.12.778,classification_task,2021.2.3,MacIntel,59.99880002,627c6715c52fd12f31907bcf,,,,,,,,,,,,,,,,,,,,,,,,,,,,,,,,,,,,,,,,,,,,,,,,,,,,,I have confidence in the advice given by the aid,,0.7,0,1,1547.4918,0,0,0,0,1,0,,,,,
,60b642b9eb58b6d8a5080ea6,627c6e86d17d51c8d498794a,2022-05-11_21h24.12.778,classification_task,2021.2.3,MacIntel,59.99880002,627c6715c52fd12f31907bcf,,,,,,,,,,,,,,,,,,,,,,,,,,,,,,,,,,,,,,,,,,,,,,,,,,,,,I can depend on the aid,,0.7,0,1,1549.7939,0,0,0,0,1,0,,,,,
,60b642b9eb58b6d8a5080ea6,627c6e86d17d51c8d498794a,2022-05-11_21h24.12.778,classification_task,2021.2.3,MacIntel,59.99880002,627c6715c52fd12f31907bcf,,,,,,,,,,,,,,,,,,,,,,,,,,,,,,,,,,,,,,,,,,,,,,,,,,,,,I can rely on the aid to behave in consistent ways,,0.7,0,1,1552.8772,0,0,0,0,1,0,,,,,
,60b642b9eb58b6d8a5080ea6,627c6e86d17d51c8d498794a,2022-05-11_21h24.12.778,classification_task,2021.2.3,MacIntel,59.99880002,627c6715c52fd12f31907bcf,,,,,,,,,,,,,,,,,,,,,,,,,,,,,,,,,,,,,,,,,,,,,,,,,,,,,I can rely on the aid to do its best every time I take its advice,,0.7,0,1,1557.8641,0,0,0,0,1,0,,,,,
,60b642b9eb58b6d8a5080ea6,627c6e86d17d51c8d498794a,2022-05-11_21h24.12.778,classification_task,2021.2.3,MacIntel,59.99880002,627c6715c52fd12f31907bcf,,,,,,,,,,,,,,,,,,,,,,,,,,,,,,,,,,,,,,,,,,,,,,,,,,,,,"On trials you completed with assistance from the aid, how frequently did you think the aid was correct?",,0.7,0,10%,,0,0,0,0,1,0,,,,,
,60b642b9eb58b6d8a5080ea6,627c6e86d17d51c8d498794a,2022-05-11_21h24.12.778,classification_task,2021.2.3,MacIntel,59.99880002,627c6715c52fd12f31907bcf,,,,,,,,,,,,,,,,,,,,,,,,,,,,,,,,,,,,,,,,,,,,,,,,,,,,,"On trials you completed without the aid, how frequently did you think you were correct?",,0.7,0,20%,,0,0,0,0,1,0,,,,,
,60b642b9eb58b6d8a5080ea6,627c6e86d17d51c8d498794a,2022-05-11_21h24.12.778,classification_task,2021.2.3,MacIntel,59.99880002,627c6715c52fd12f31907bcf,,,,,,,,,,,,,,,,,,,,,,,,,,,,,,,,,,,,,,,,,,,,,,,,,,,,,,,,,,,0,0,0,0,1,,,,,,
,60b642b9eb58b6d8a5080ea6,627c6e86d17d51c8d498794a,2022-05-11_21h24.12.778,classification_task,2021.2.3,MacIntel,59.99880002,627c6715c52fd12f31907bcf,,,,,,,,,,,,,,,,,,,,,,,,,,,,,,,,,,,,,,,,,,,,,,,,,,,,,,,,,,,,,,,,,space,11.3428,1601.2398,,
,60b642b9eb58b6d8a5080ea6,627c6e86d17d51c8d498794a,2022-05-11_21h24.12.778,classification_task,2021.2.3,MacIntel,59.99880002,627c6715c52fd12f31907bcf,,,,,,,,,,,,,,,,,,,,,,,,,,,,,,,,,,,,,,,,,,,,,,,,,,,,,,,,,,,,,,,,,,,,"Mozilla/5.0 (Macintosh; Intel Mac OS X 10_15_7) AppleWebKit/537.36 (KHTML, like Gecko) Chrome/99.0.4844.83 Safari/537.36",
,60b642b9eb58b6d8a5080ea6,627c6e86d17d51c8d498794a,2022-05-11_21h24.12.778,classification_task,2021.2.3,MacIntel,59.99880002,627c6715c52fd12f31907bcf,,,,,,,,,,,,,,,,,,,,,,,,,,,,,,,,,,,,,,,,,,,,,,,,,,,,,,,,,,,,,,,,,,,,,LOWLIGHT
