usingWebGL,participant,session,date,expName,psychopyVersion,OS,frameRate,PROLIFIC_PID,STUDY_ID,SESSION_ID,signatures_friend,signatures_foe,band_ranges_top,band_ranges_bottom,formitemText,formtype,formundefined,formitemWidth,formindex,formresponse,formrt,key_resp_2.keys,key_resp_2.rt,tute_resp.keys,tute_resp.rt,tutorial.thisRepN,tutorial.thisTrialN,tutorial.thisN,tutorial.thisIndex,tutorial.ran,key_resp_4.keys,key_resp_4.rt,key_resp.keys,key_resp.corr,lines_presented,is_signal_presented,trials.thisRepN,trials.thisTrialN,trials.thisN,trials.thisIndex,trials.ran,vessel,active_band,lines,is_signal,supported_pos,catch_trial,key_resp.rt,debrief_formindex,debrief_formitemText,debrief_formtype,debrief_formitemWidth,debrief_formresponse,debrief_formrt,phases.thisRepN,phases.thisTrialN,phases.thisN,phases.thisIndex,phases.ran,phases.order,phase,key_resp_3.keys,trustitemText,trusttype,trustitemWidth,trustindex,trustresponse,trustrt,support_status.thisRepN,support_status.thisTrialN,support_status.thisN,support_status.thisIndex,support_status.ran,support_status.order,key_resp_5.keys,key_resp_5.rt,globalClockTime,userAgent
TRUE,60b805f47d6292141781c36e,001,2022-04-28_20h09.36.224,classification_task,2021.2.3,Win32,59.03187721,60b805f47d6292141781c36e,626b377229c10585ec392f89,626b3a84e069abe1f7d1704c,,,,,,,,,,,,,,,,,,,,,,,,,,,,,,,,,,,,,,,,,,,,,,,,,,,,,,,,,,,,,,,,,,,,
,60b805f47d6292141781c36e,001,2022-04-28_20h09.36.224,classification_task,2021.2.3,Win32,59.03187721,60b805f47d6292141781c36e,626b377229c10585ec392f89,626b3a84e069abe1f7d1704c,"[[""0.324"",""0.409"",""0.608"",""0.973""],[""0.163"",""0.359"",""0.882"",""0.929""]]","[[""0.086"",""0.205"",""0.537"",""0.704""],[""0.040"",""0.241"",""0.477"",""0.822""]]","[1,10]","[100,1000]",Video game experience,,,0.7,0,,,,,,,,,,,,,,,,,,,,,,,,,,,,,,,,,,,,,,,,,,,,,,,,,,,,,,,,,,,
,60b805f47d6292141781c36e,001,2022-04-28_20h09.36.224,classification_task,2021.2.3,Win32,59.03187721,60b805f47d6292141781c36e,626b377229c10585ec392f89,626b3a84e069abe1f7d1704c,,,,,Approximately how many hours did you spend playing video games in the last week?,,,0.7,0,5,,,,,,,,,,,,,,,,,,,,,,,,,,,,,,,,,,,,,,,,,,,,,,,,,,,,,,,,,,
,60b805f47d6292141781c36e,001,2022-04-28_20h09.36.224,classification_task,2021.2.3,Win32,59.03187721,60b805f47d6292141781c36e,626b377229c10585ec392f89,626b3a84e069abe1f7d1704c,,,,,"Which game did you play the most this year? (Enter ""None"" if you didn't play any)",,,0.7,0,Pokemon,,,,,,,,,,,,,,,,,,,,,,,,,,,,,,,,,,,,,,,,,,,,,,,,,,,,,,,,,,
,60b805f47d6292141781c36e,001,2022-04-28_20h09.36.224,classification_task,2021.2.3,Win32,59.03187721,60b805f47d6292141781c36e,626b377229c10585ec392f89,626b3a84e069abe1f7d1704c,,,,,Visual perception,,,0.7,0,,,,,,,,,,,,,,,,,,,,,,,,,,,,,,,,,,,,,,,,,,,,,,,,,,,,,,,,,,,
,60b805f47d6292141781c36e,001,2022-04-28_20h09.36.224,classification_task,2021.2.3,Win32,59.03187721,60b805f47d6292141781c36e,626b377229c10585ec392f89,626b3a84e069abe1f7d1704c,,,,,Do you have any form of color blindness?,,,0.7,0,No,15.8336,,,,,,,,,,,,,,,,,,,,,,,,,,,,,,,,,,,,,,,,,,,,,,,,,,,,,,,,,
,60b805f47d6292141781c36e,001,2022-04-28_20h09.36.224,classification_task,2021.2.3,Win32,59.03187721,60b805f47d6292141781c36e,626b377229c10585ec392f89,626b3a84e069abe1f7d1704c,,,,,Do you use software to change the colour temperature of your screen (e.g. f.lux)?,,,0.7,0,No,18.9822,,,,,,,,,,,,,,,,,,,,,,,,,,,,,,,,,,,,,,,,,,,,,,,,,,,,,,,,,
,60b805f47d6292141781c36e,001,2022-04-28_20h09.36.224,classification_task,2021.2.3,Win32,59.03187721,60b805f47d6292141781c36e,626b377229c10585ec392f89,626b3a84e069abe1f7d1704c,,,,,,,,,,,,space,37.894,space,7.825,0,0,0,0,1,,,,,,,,,,,,,,,,,,,,,,,,,,,,,,,,,,,,,,,,,,,,,,,,
,60b805f47d6292141781c36e,001,2022-04-28_20h09.36.224,classification_task,2021.2.3,Win32,59.03187721,60b805f47d6292141781c36e,626b377229c10585ec392f89,626b3a84e069abe1f7d1704c,,,,,,,,,,,,,,space,10.6684,1,0,1,0,1,,,,,,,,,,,,,,,,,,,,,,,,,,,,,,,,,,,,,,,,,,,,,,,,
,60b805f47d6292141781c36e,001,2022-04-28_20h09.36.224,classification_task,2021.2.3,Win32,59.03187721,60b805f47d6292141781c36e,626b377229c10585ec392f89,626b3a84e069abe1f7d1704c,,,,,,,,,,,,,,space,29.5112,2,0,2,0,1,,,,,,,,,,,,,,,,,,,,,,,,,,,,,,,,,,,,,,,,,,,,,,,,
,60b805f47d6292141781c36e,001,2022-04-28_20h09.36.224,classification_task,2021.2.3,Win32,59.03187721,60b805f47d6292141781c36e,626b377229c10585ec392f89,626b3a84e069abe1f7d1704c,,,,,,,,,,,,,,space,7.4596,3,0,3,0,1,,,,,,,,,,,,,,,,,,,,,,,,,,,,,,,,,,,,,,,,,,,,,,,,
,60b805f47d6292141781c36e,001,2022-04-28_20h09.36.224,classification_task,2021.2.3,Win32,59.03187721,60b805f47d6292141781c36e,626b377229c10585ec392f89,626b3a84e069abe1f7d1704c,,,,,,,,,,,,,,space,18.3053,4,0,4,0,1,,,,,,,,,,,,,,,,,,,,,,,,,,,,,,,,,,,,,,,,,,,,,,,,
,60b805f47d6292141781c36e,001,2022-04-28_20h09.36.224,classification_task,2021.2.3,Win32,59.03187721,60b805f47d6292141781c36e,626b377229c10585ec392f89,626b3a84e069abe1f7d1704c,,,,,,,,,,,,,,,,,,,,,space,15.4578,,0,"[""0.738"",""0.205"",""0.537"",""0.704""]","[0,1,1,1]",0,0,0,0,1,1,0,,,0,FALSE,,,,,,,,,,,,,,,,,,,,,,,,,,,,,,,
,60b805f47d6292141781c36e,001,2022-04-28_20h09.36.224,classification_task,2021.2.3,Win32,59.03187721,60b805f47d6292141781c36e,626b377229c10585ec392f89,626b3a84e069abe1f7d1704c,,,,,,,,,,,,,,,,,,,,,,,l,1,"[""0.086"",""0.290"",""0.537"",""0.704""]","[1,0,1,1]",0,1,1,1,1,1,0,,,0,FALSE,3.8339,,,,,,,,,,,,,,,,,,,,,,,,,,,,,,
,60b805f47d6292141781c36e,001,2022-04-28_20h09.36.224,classification_task,2021.2.3,Win32,59.03187721,60b805f47d6292141781c36e,626b377229c10585ec392f89,626b3a84e069abe1f7d1704c,,,,,,,,,,,,,,,,,,,,,,,a,1,"[""0.163"",""0.359"",""0.882"",""0.281""]","[1,1,1,0]",0,2,2,2,1,0,1,,,0,FALSE,4.7072,,,,,,,,,,,,,,,,,,,,,,,,,,,,,,
,60b805f47d6292141781c36e,001,2022-04-28_20h09.36.224,classification_task,2021.2.3,Win32,59.03187721,60b805f47d6292141781c36e,626b377229c10585ec392f89,626b3a84e069abe1f7d1704c,,,,,,,,,,,,,,,,,,,,,,,a,1,"[""0.655"",""0.359"",""0.882"",""0.929""]","[0,1,1,1]",0,3,3,3,1,0,1,,,0,FALSE,3.5941,,,,,,,,,,,,,,,,,,,,,,,,,,,,,,
,60b805f47d6292141781c36e,001,2022-04-28_20h09.36.224,classification_task,2021.2.3,Win32,59.03187721,60b805f47d6292141781c36e,626b377229c10585ec392f89,626b3a84e069abe1f7d1704c,,,,,,,,,,,,,,,,,,,,,,,a,1,"[""0.324"",""0.409"",""0.738"",""0.973""]","[1,1,0,1]",0,4,4,4,1,0,0,,,0,FALSE,4.0926,,,,,,,,,,,,,,,,,,,,,,,,,,,,,,
,60b805f47d6292141781c36e,001,2022-04-28_20h09.36.224,classification_task,2021.2.3,Win32,59.03187721,60b805f47d6292141781c36e,626b377229c10585ec392f89,626b3a84e069abe1f7d1704c,,,,,,,,,,,,,,,,,,,,,,,l,0,"[""0.324"",""0.409"",""0.608"",""0.764""]","[1,1,1,0]",0,5,5,5,1,0,0,,,0,FALSE,6.0864,,,,,,,,,,,,,,,,,,,,,,,,,,,,,,
,60b805f47d6292141781c36e,001,2022-04-28_20h09.36.224,classification_task,2021.2.3,Win32,59.03187721,60b805f47d6292141781c36e,626b377229c10585ec392f89,626b3a84e069abe1f7d1704c,,,,,,,,,,,,,,,,,,,,,,,a,1,"[""0.163"",""0.750"",""0.882"",""0.929""]","[1,0,1,1]",0,6,6,6,1,0,1,,,0,FALSE,2.7704,,,,,,,,,,,,,,,,,,,,,,,,,,,,,,
,60b805f47d6292141781c36e,001,2022-04-28_20h09.36.224,classification_task,2021.2.3,Win32,59.03187721,60b805f47d6292141781c36e,626b377229c10585ec392f89,626b3a84e069abe1f7d1704c,,,,,,,,,,,,,,,,,,,,,,,a,0,"[""0.086"",""0.205"",""0.738"",""0.704""]","[1,1,0,1]",0,7,7,7,1,1,0,,,0,FALSE,4.1239,,,,,,,,,,,,,,,,,,,,,,,,,,,,,,
,60b805f47d6292141781c36e,001,2022-04-28_20h09.36.224,classification_task,2021.2.3,Win32,59.03187721,60b805f47d6292141781c36e,626b377229c10585ec392f89,626b3a84e069abe1f7d1704c,,,,,,,,,,,,,,,,,,,,,,,a,0,"[""0.290"",""0.241"",""0.477"",""0.822""]","[0,1,1,1]",0,8,8,8,1,1,1,,,0,FALSE,5.0616,,,,,,,,,,,,,,,,,,,,,,,,,,,,,,
,60b805f47d6292141781c36e,001,2022-04-28_20h09.36.224,classification_task,2021.2.3,Win32,59.03187721,60b805f47d6292141781c36e,626b377229c10585ec392f89,626b3a84e069abe1f7d1704c,,,,,,,,,,,,,,,,,,,,,,,a,0,"[""0.040"",""0.443"",""0.477"",""0.822""]","[1,0,1,1]",0,9,9,9,1,1,1,,,0,FALSE,2.4362,,,,,,,,,,,,,,,,,,,,,,,,,,,,,,
,60b805f47d6292141781c36e,001,2022-04-28_20h09.36.224,classification_task,2021.2.3,Win32,59.03187721,60b805f47d6292141781c36e,626b377229c10585ec392f89,626b3a84e069abe1f7d1704c,,,,,,,,,,,,,,,,,,,,,,,l,1,"[""0.040"",""0.241"",""0.290"",""0.822""]","[1,1,0,1]",0,10,10,10,1,1,1,,,0,FALSE,1.7455,,,,,,,,,,,,,,,,,,,,,,,,,,,,,,
,60b805f47d6292141781c36e,001,2022-04-28_20h09.36.224,classification_task,2021.2.3,Win32,59.03187721,60b805f47d6292141781c36e,626b377229c10585ec392f89,626b3a84e069abe1f7d1704c,,,,,,,,,,,,,,,,,,,,,,,a,1,"[""0.163"",""0.359"",""0.778"",""0.929""]","[1,1,0,1]",0,11,11,11,1,0,1,,,0,FALSE,2.5666,,,,,,,,,,,,,,,,,,,,,,,,,,,,,,
,60b805f47d6292141781c36e,001,2022-04-28_20h09.36.224,classification_task,2021.2.3,Win32,59.03187721,60b805f47d6292141781c36e,626b377229c10585ec392f89,626b3a84e069abe1f7d1704c,,,,,,,,,,,,,,,,,,,,,,,l,1,"[""0.040"",""0.241"",""0.477"",""0.750""]","[1,1,1,0]",0,12,12,12,1,1,1,,,0,FALSE,2.0576,,,,,,,,,,,,,,,,,,,,,,,,,,,,,,
,60b805f47d6292141781c36e,001,2022-04-28_20h09.36.224,classification_task,2021.2.3,Win32,59.03187721,60b805f47d6292141781c36e,626b377229c10585ec392f89,626b3a84e069abe1f7d1704c,,,,,,,,,,,,,,,,,,,,,,,a,1,"[""0.750"",""0.409"",""0.608"",""0.973""]","[0,1,1,1]",0,13,13,13,1,0,0,,,0,FALSE,3.9337,,,,,,,,,,,,,,,,,,,,,,,,,,,,,,
,60b805f47d6292141781c36e,001,2022-04-28_20h09.36.224,classification_task,2021.2.3,Win32,59.03187721,60b805f47d6292141781c36e,626b377229c10585ec392f89,626b3a84e069abe1f7d1704c,,,,,,,,,,,,,,,,,,,,,,,a,1,"[""0.324"",""0.750"",""0.608"",""0.973""]","[1,0,1,1]",0,14,14,14,1,0,0,,,0,FALSE,2.01,,,,,,,,,,,,,,,,,,,,,,,,,,,,,,
,60b805f47d6292141781c36e,001,2022-04-28_20h09.36.224,classification_task,2021.2.3,Win32,59.03187721,60b805f47d6292141781c36e,626b377229c10585ec392f89,626b3a84e069abe1f7d1704c,,,,,,,,,,,,,,,,,,,,,,,l,1,"[""0.086"",""0.205"",""0.537"",""0.773""]","[1,1,1,0]",0,15,15,15,1,1,0,,,0,FALSE,3.6789,,,,,,,,,,,,,,,,,,,,,,,,,,,,,,
,60b805f47d6292141781c36e,001,2022-04-28_20h09.36.224,classification_task,2021.2.3,Win32,59.03187721,60b805f47d6292141781c36e,626b377229c10585ec392f89,626b3a84e069abe1f7d1704c,,,,,,,,,,,,,,,,,,,,,,,a,1,"[""0.324"",""0.409"",""0.608"",""0.778""]","[1,1,1,0]",0,16,16,16,1,0,0,,,0,FALSE,2.1472,,,,,,,,,,,,,,,,,,,,,,,,,,,,,,
,60b805f47d6292141781c36e,001,2022-04-28_20h09.36.224,classification_task,2021.2.3,Win32,59.03187721,60b805f47d6292141781c36e,626b377229c10585ec392f89,626b3a84e069abe1f7d1704c,,,,,,,,,,,,,,,,,,,,,,,l,1,"[""0.750"",""0.241"",""0.477"",""0.822""]","[0,1,1,1]",0,17,17,17,1,1,1,,,0,FALSE,2.0391,,,,,,,,,,,,,,,,,,,,,,,,,,,,,,
,60b805f47d6292141781c36e,001,2022-04-28_20h09.36.224,classification_task,2021.2.3,Win32,59.03187721,60b805f47d6292141781c36e,626b377229c10585ec392f89,626b3a84e069abe1f7d1704c,,,,,,,,,,,,,,,,,,,,,,,a,1,"[""0.163"",""0.359"",""0.882"",""0.757""]","[1,1,1,0]",0,18,18,18,1,0,1,,,0,FALSE,1.9368,,,,,,,,,,,,,,,,,,,,,,,,,,,,,,
,60b805f47d6292141781c36e,001,2022-04-28_20h09.36.224,classification_task,2021.2.3,Win32,59.03187721,60b805f47d6292141781c36e,626b377229c10585ec392f89,626b3a84e069abe1f7d1704c,,,,,,,,,,,,,,,,,,,,,,,a,1,"[""0.655"",""0.409"",""0.608"",""0.973""]","[0,1,1,1]",0,19,19,19,1,0,0,,,0,FALSE,2.3088,,,,,,,,,,,,,,,,,,,,,,,,,,,,,,
,60b805f47d6292141781c36e,001,2022-04-28_20h09.36.224,classification_task,2021.2.3,Win32,59.03187721,60b805f47d6292141781c36e,626b377229c10585ec392f89,626b3a84e069abe1f7d1704c,,,,,,,,,,,,,,,,,,,,,,,l,1,"[""0.086"",""0.286"",""0.537"",""0.704""]","[1,0,1,1]",0,20,20,20,1,1,0,,,0,FALSE,1.9023,,,,,,,,,,,,,,,,,,,,,,,,,,,,,,
,60b805f47d6292141781c36e,001,2022-04-28_20h09.36.224,classification_task,2021.2.3,Win32,59.03187721,60b805f47d6292141781c36e,626b377229c10585ec392f89,626b3a84e069abe1f7d1704c,,,,,,,,,,,,,,,,,,,,,,,a,1,"[""0.324"",""0.409"",""0.643"",""0.973""]","[1,1,0,1]",0,21,21,21,1,0,0,,,0,FALSE,1.5322,,,,,,,,,,,,,,,,,,,,,,,,,,,,,,
,60b805f47d6292141781c36e,001,2022-04-28_20h09.36.224,classification_task,2021.2.3,Win32,59.03187721,60b805f47d6292141781c36e,626b377229c10585ec392f89,626b3a84e069abe1f7d1704c,,,,,,,,,,,,,,,,,,,,,,,l,1,"[""0.040"",""0.241"",""0.643"",""0.822""]","[1,1,0,1]",0,22,22,22,1,1,1,,,0,FALSE,1.7934,,,,,,,,,,,,,,,,,,,,,,,,,,,,,,
,60b805f47d6292141781c36e,001,2022-04-28_20h09.36.224,classification_task,2021.2.3,Win32,59.03187721,60b805f47d6292141781c36e,626b377229c10585ec392f89,626b3a84e069abe1f7d1704c,,,,,,,,,,,,,,,,,,,,,,,a,1,"[""0.163"",""0.655"",""0.882"",""0.929""]","[1,0,1,1]",0,23,23,23,1,0,1,,,0,FALSE,1.4526,,,,,,,,,,,,,,,,,,,,,,,,,,,,,,
,60b805f47d6292141781c36e,001,2022-04-28_20h09.36.224,classification_task,2021.2.3,Win32,59.03187721,60b805f47d6292141781c36e,626b377229c10585ec392f89,626b3a84e069abe1f7d1704c,,,,,,,,,,,,,,,,,,,,,,,l,1,"[""0.643"",""0.205"",""0.537"",""0.704""]","[0,1,1,1]",0,24,24,24,1,1,0,,,0,FALSE,1.7401,,,,,,,,,,,,,,,,,,,,,,,,,,,,,,
,60b805f47d6292141781c36e,001,2022-04-28_20h09.36.224,classification_task,2021.2.3,Win32,59.03187721,60b805f47d6292141781c36e,626b377229c10585ec392f89,626b3a84e069abe1f7d1704c,,,,,,,,,,,,,,,,,,,,,,,l,1,"[""0.040"",""0.241"",""0.477"",""0.281""]","[1,1,1,0]",0,25,25,25,1,1,1,,,0,FALSE,1.8005,,,,,,,,,,,,,,,,,,,,,,,,,,,,,,
,60b805f47d6292141781c36e,001,2022-04-28_20h09.36.224,classification_task,2021.2.3,Win32,59.03187721,60b805f47d6292141781c36e,626b377229c10585ec392f89,626b3a84e069abe1f7d1704c,,,,,,,,,,,,,,,,,,,,,,,l,1,"[""0.086"",""0.205"",""0.537"",""0.281""]","[1,1,1,0]",0,26,26,26,1,1,0,,,0,FALSE,2.0764,,,,,,,,,,,,,,,,,,,,,,,,,,,,,,
,60b805f47d6292141781c36e,001,2022-04-28_20h09.36.224,classification_task,2021.2.3,Win32,59.03187721,60b805f47d6292141781c36e,626b377229c10585ec392f89,626b3a84e069abe1f7d1704c,,,,,,,,,,,,,,,,,,,,,,,l,1,"[""0.040"",""0.750"",""0.477"",""0.822""]","[1,0,1,1]",0,27,27,27,1,1,1,,,0,FALSE,1.7592,,,,,,,,,,,,,,,,,,,,,,,,,,,,,,
,60b805f47d6292141781c36e,001,2022-04-28_20h09.36.224,classification_task,2021.2.3,Win32,59.03187721,60b805f47d6292141781c36e,626b377229c10585ec392f89,626b3a84e069abe1f7d1704c,,,,,,,,,,,,,,,,,,,,,,,a,1,"[""0.163"",""0.359"",""0.757"",""0.929""]","[1,1,0,1]",0,28,28,28,1,0,1,,,0,FALSE,1.5505,,,,,,,,,,,,,,,,,,,,,,,,,,,,,,
,60b805f47d6292141781c36e,001,2022-04-28_20h09.36.224,classification_task,2021.2.3,Win32,59.03187721,60b805f47d6292141781c36e,626b377229c10585ec392f89,626b3a84e069abe1f7d1704c,,,,,,,,,,,,,,,,,,,,,,,a,1,"[""0.750"",""0.359"",""0.882"",""0.929""]","[0,1,1,1]",0,29,29,29,1,0,1,,,0,FALSE,2.6188,,,,,,,,,,,,,,,,,,,,,,,,,,,,,,
,60b805f47d6292141781c36e,001,2022-04-28_20h09.36.224,classification_task,2021.2.3,Win32,59.03187721,60b805f47d6292141781c36e,626b377229c10585ec392f89,626b3a84e069abe1f7d1704c,,,,,,,,,,,,,,,,,,,,,,,a,1,"[""0.324"",""0.750"",""0.608"",""0.973""]","[1,0,1,1]",0,30,30,30,1,0,0,,,0,FALSE,1.8056,,,,,,,,,,,,,,,,,,,,,,,,,,,,,,
,60b805f47d6292141781c36e,001,2022-04-28_20h09.36.224,classification_task,2021.2.3,Win32,59.03187721,60b805f47d6292141781c36e,626b377229c10585ec392f89,626b3a84e069abe1f7d1704c,,,,,,,,,,,,,,,,,,,,,,,l,1,"[""0.086"",""0.205"",""0.286"",""0.704""]","[1,1,0,1]",0,31,31,31,1,1,0,,,0,FALSE,3.0707,,,,,,,,,,,,,,,,,,,,,,,,,,,,,,
,60b805f47d6292141781c36e,001,2022-04-28_20h09.36.224,classification_task,2021.2.3,Win32,59.03187721,60b805f47d6292141781c36e,626b377229c10585ec392f89,626b3a84e069abe1f7d1704c,,,,,,,,,,,,,,,,,,,,,,,a,1,"[""0.163"",""0.359"",""0.882"",""0.290""]","[1,1,1,0]",0,32,32,32,1,0,1,,,0,FALSE,3.2126,,,,,,,,,,,,,,,,,,,,,,,,,,,,,,
,60b805f47d6292141781c36e,001,2022-04-28_20h09.36.224,classification_task,2021.2.3,Win32,59.03187721,60b805f47d6292141781c36e,626b377229c10585ec392f89,626b3a84e069abe1f7d1704c,,,,,,,,,,,,,,,,,,,,,,,a,0,"[""0.040"",""0.241"",""0.443"",""0.822""]","[1,1,0,1]",0,33,33,33,1,1,1,,,0,FALSE,1.5182,,,,,,,,,,,,,,,,,,,,,,,,,,,,,,
,60b805f47d6292141781c36e,001,2022-04-28_20h09.36.224,classification_task,2021.2.3,Win32,59.03187721,60b805f47d6292141781c36e,626b377229c10585ec392f89,626b3a84e069abe1f7d1704c,,,,,,,,,,,,,,,,,,,,,,,a,1,"[""0.324"",""0.409"",""0.759"",""0.973""]","[1,1,0,1]",0,34,34,34,1,0,0,,,0,FALSE,1.5678,,,,,,,,,,,,,,,,,,,,,,,,,,,,,,
,60b805f47d6292141781c36e,001,2022-04-28_20h09.36.224,classification_task,2021.2.3,Win32,59.03187721,60b805f47d6292141781c36e,626b377229c10585ec392f89,626b3a84e069abe1f7d1704c,,,,,,,,,,,,,,,,,,,,,,,l,1,"[""0.764"",""0.241"",""0.477"",""0.822""]","[0,1,1,1]",0,35,35,35,1,1,1,,,0,FALSE,1.0174,,,,,,,,,,,,,,,,,,,,,,,,,,,,,,
,60b805f47d6292141781c36e,001,2022-04-28_20h09.36.224,classification_task,2021.2.3,Win32,59.03187721,60b805f47d6292141781c36e,626b377229c10585ec392f89,626b3a84e069abe1f7d1704c,,,,,,,,,,,,,,,,,,,,,,,a,1,"[""0.163"",""0.359"",""0.738"",""0.929""]","[1,1,0,1]",0,36,36,36,1,0,1,,,0,FALSE,1.5347,,,,,,,,,,,,,,,,,,,,,,,,,,,,,,
,60b805f47d6292141781c36e,001,2022-04-28_20h09.36.224,classification_task,2021.2.3,Win32,59.03187721,60b805f47d6292141781c36e,626b377229c10585ec392f89,626b3a84e069abe1f7d1704c,,,,,,,,,,,,,,,,,,,,,,,l,1,"[""0.086"",""0.287"",""0.537"",""0.704""]","[1,0,1,1]",0,37,37,37,1,1,0,,,0,FALSE,2.0113,,,,,,,,,,,,,,,,,,,,,,,,,,,,,,
,60b805f47d6292141781c36e,001,2022-04-28_20h09.36.224,classification_task,2021.2.3,Win32,59.03187721,60b805f47d6292141781c36e,626b377229c10585ec392f89,626b3a84e069abe1f7d1704c,,,,,,,,,,,,,,,,,,,,,,,l,1,"[""0.086"",""0.205"",""0.537"",""0.778""]","[1,1,1,0]",0,38,38,38,1,1,0,,,0,FALSE,1.4196,,,,,,,,,,,,,,,,,,,,,,,,,,,,,,
,60b805f47d6292141781c36e,001,2022-04-28_20h09.36.224,classification_task,2021.2.3,Win32,59.03187721,60b805f47d6292141781c36e,626b377229c10585ec392f89,626b3a84e069abe1f7d1704c,,,,,,,,,,,,,,,,,,,,,,,l,1,"[""0.086"",""0.205"",""0.757"",""0.704""]","[1,1,0,1]",0,39,39,39,1,1,0,,,0,FALSE,0.9228,,,,,,,,,,,,,,,,,,,,,,,,,,,,,,
,60b805f47d6292141781c36e,001,2022-04-28_20h09.36.224,classification_task,2021.2.3,Win32,59.03187721,60b805f47d6292141781c36e,626b377229c10585ec392f89,626b3a84e069abe1f7d1704c,,,,,,,,,,,,,,,,,,,,,,,a,0,"[""0.040"",""0.241"",""0.477"",""0.443""]","[1,1,1,0]",0,40,40,40,1,1,1,,,0,FALSE,3.2299,,,,,,,,,,,,,,,,,,,,,,,,,,,,,,
,60b805f47d6292141781c36e,001,2022-04-28_20h09.36.224,classification_task,2021.2.3,Win32,59.03187721,60b805f47d6292141781c36e,626b377229c10585ec392f89,626b3a84e069abe1f7d1704c,,,,,,,,,,,,,,,,,,,,,,,a,1,"[""0.751"",""0.409"",""0.608"",""0.973""]","[0,1,1,1]",0,41,41,41,1,0,0,,,0,FALSE,1.7866,,,,,,,,,,,,,,,,,,,,,,,,,,,,,,
,60b805f47d6292141781c36e,001,2022-04-28_20h09.36.224,classification_task,2021.2.3,Win32,59.03187721,60b805f47d6292141781c36e,626b377229c10585ec392f89,626b3a84e069abe1f7d1704c,,,,,,,,,,,,,,,,,,,,,,,a,1,"[""0.163"",""0.290"",""0.882"",""0.929""]","[1,0,1,1]",0,42,42,42,1,0,1,,,0,FALSE,1.8317,,,,,,,,,,,,,,,,,,,,,,,,,,,,,,
,60b805f47d6292141781c36e,001,2022-04-28_20h09.36.224,classification_task,2021.2.3,Win32,59.03187721,60b805f47d6292141781c36e,626b377229c10585ec392f89,626b3a84e069abe1f7d1704c,,,,,,,,,,,,,,,,,,,,,,,a,1,"[""0.324"",""0.759"",""0.608"",""0.973""]","[1,0,1,1]",0,43,43,43,1,0,0,,,0,FALSE,3.0509,,,,,,,,,,,,,,,,,,,,,,,,,,,,,,
,60b805f47d6292141781c36e,001,2022-04-28_20h09.36.224,classification_task,2021.2.3,Win32,59.03187721,60b805f47d6292141781c36e,626b377229c10585ec392f89,626b3a84e069abe1f7d1704c,,,,,,,,,,,,,,,,,,,,,,,l,1,"[""0.040"",""0.643"",""0.477"",""0.822""]","[1,0,1,1]",0,44,44,44,1,1,1,,,0,FALSE,1.1224,,,,,,,,,,,,,,,,,,,,,,,,,,,,,,
,60b805f47d6292141781c36e,001,2022-04-28_20h09.36.224,classification_task,2021.2.3,Win32,59.03187721,60b805f47d6292141781c36e,626b377229c10585ec392f89,626b3a84e069abe1f7d1704c,,,,,,,,,,,,,,,,,,,,,,,a,0,"[""0.751"",""0.205"",""0.537"",""0.704""]","[0,1,1,1]",0,45,45,45,1,1,0,,,0,FALSE,2.1969,,,,,,,,,,,,,,,,,,,,,,,,,,,,,,
,60b805f47d6292141781c36e,001,2022-04-28_20h09.36.224,classification_task,2021.2.3,Win32,59.03187721,60b805f47d6292141781c36e,626b377229c10585ec392f89,626b3a84e069abe1f7d1704c,,,,,,,,,,,,,,,,,,,,,,,l,0,"[""0.779"",""0.359"",""0.882"",""0.929""]","[0,1,1,1]",0,46,46,46,1,0,1,,,0,FALSE,2.0644,,,,,,,,,,,,,,,,,,,,,,,,,,,,,,
,60b805f47d6292141781c36e,001,2022-04-28_20h09.36.224,classification_task,2021.2.3,Win32,59.03187721,60b805f47d6292141781c36e,626b377229c10585ec392f89,626b3a84e069abe1f7d1704c,,,,,,,,,,,,,,,,,,,,,,,a,1,"[""0.324"",""0.409"",""0.608"",""0.287""]","[1,1,1,0]",0,47,47,47,1,0,0,,,0,FALSE,1.5704,,,,,,,,,,,,,,,,,,,,,,,,,,,,,,
,60b805f47d6292141781c36e,001,2022-04-28_20h09.36.224,classification_task,2021.2.3,Win32,59.03187721,60b805f47d6292141781c36e,626b377229c10585ec392f89,626b3a84e069abe1f7d1704c,,,,,,,,,,,,,,,,,,,,,,,l,1,"[""0.040"",""0.778"",""0.477"",""0.822""]","[1,0,1,1]",0,48,48,48,1,1,1,,,0,FALSE,2.4783,,,,,,,,,,,,,,,,,,,,,,,,,,,,,,
,60b805f47d6292141781c36e,001,2022-04-28_20h09.36.224,classification_task,2021.2.3,Win32,59.03187721,60b805f47d6292141781c36e,626b377229c10585ec392f89,626b3a84e069abe1f7d1704c,,,,,,,,,,,,,,,,,,,,,,,a,1,"[""0.163"",""0.359"",""0.882"",""0.759""]","[1,1,1,0]",0,49,49,49,1,0,1,,,0,FALSE,1.5487,,,,,,,,,,,,,,,,,,,,,,,,,,,,,,
,60b805f47d6292141781c36e,001,2022-04-28_20h09.36.224,classification_task,2021.2.3,Win32,59.03187721,60b805f47d6292141781c36e,626b377229c10585ec392f89,626b3a84e069abe1f7d1704c,,,,,,,,,,,,,,,,,,,,,,,l,1,"[""0.086"",""0.290"",""0.537"",""0.704""]","[1,0,1,1]",0,50,50,50,1,1,0,,,0,FALSE,3.0593,,,,,,,,,,,,,,,,,,,,,,,,,,,,,,
,60b805f47d6292141781c36e,001,2022-04-28_20h09.36.224,classification_task,2021.2.3,Win32,59.03187721,60b805f47d6292141781c36e,626b377229c10585ec392f89,626b3a84e069abe1f7d1704c,,,,,,,,,,,,,,,,,,,,,,,l,1,"[""0.086"",""0.205"",""0.751"",""0.704""]","[1,1,0,1]",0,51,51,51,1,1,0,,,0,FALSE,2.2036,,,,,,,,,,,,,,,,,,,,,,,,,,,,,,
,60b805f47d6292141781c36e,001,2022-04-28_20h09.36.224,classification_task,2021.2.3,Win32,59.03187721,60b805f47d6292141781c36e,626b377229c10585ec392f89,626b3a84e069abe1f7d1704c,,,,,,,,,,,,,,,,,,,,,,,l,0,"[""0.287"",""0.409"",""0.608"",""0.973""]","[0,1,1,1]",0,52,52,52,1,0,0,,,0,FALSE,3.7686,,,,,,,,,,,,,,,,,,,,,,,,,,,,,,
,60b805f47d6292141781c36e,001,2022-04-28_20h09.36.224,classification_task,2021.2.3,Win32,59.03187721,60b805f47d6292141781c36e,626b377229c10585ec392f89,626b3a84e069abe1f7d1704c,,,,,,,,,,,,,,,,,,,,,,,l,0,"[""0.324"",""0.773"",""0.608"",""0.973""]","[1,0,1,1]",0,53,53,53,1,0,0,,,0,FALSE,2.2422,,,,,,,,,,,,,,,,,,,,,,,,,,,,,,
,60b805f47d6292141781c36e,001,2022-04-28_20h09.36.224,classification_task,2021.2.3,Win32,59.03187721,60b805f47d6292141781c36e,626b377229c10585ec392f89,626b3a84e069abe1f7d1704c,,,,,,,,,,,,,,,,,,,,,,,l,0,"[""0.163"",""0.359"",""0.281"",""0.929""]","[1,1,0,1]",0,54,54,54,1,0,1,,,0,FALSE,2.8728,,,,,,,,,,,,,,,,,,,,,,,,,,,,,,
,60b805f47d6292141781c36e,001,2022-04-28_20h09.36.224,classification_task,2021.2.3,Win32,59.03187721,60b805f47d6292141781c36e,626b377229c10585ec392f89,626b3a84e069abe1f7d1704c,,,,,,,,,,,,,,,,,,,,,,,a,0,"[""0.281"",""0.205"",""0.537"",""0.704""]","[0,1,1,1]",0,55,55,55,1,1,0,,,0,FALSE,2.2113,,,,,,,,,,,,,,,,,,,,,,,,,,,,,,
,60b805f47d6292141781c36e,001,2022-04-28_20h09.36.224,classification_task,2021.2.3,Win32,59.03187721,60b805f47d6292141781c36e,626b377229c10585ec392f89,626b3a84e069abe1f7d1704c,,,,,,,,,,,,,,,,,,,,,,,l,1,"[""0.086"",""0.205"",""0.537"",""0.655""]","[1,1,1,0]",0,56,56,56,1,1,0,,,0,FALSE,2.603,,,,,,,,,,,,,,,,,,,,,,,,,,,,,,
,60b805f47d6292141781c36e,001,2022-04-28_20h09.36.224,classification_task,2021.2.3,Win32,59.03187721,60b805f47d6292141781c36e,626b377229c10585ec392f89,626b3a84e069abe1f7d1704c,,,,,,,,,,,,,,,,,,,,,,,a,1,"[""0.163"",""0.751"",""0.882"",""0.929""]","[1,0,1,1]",0,57,57,57,1,0,1,,,0,FALSE,3.5263,,,,,,,,,,,,,,,,,,,,,,,,,,,,,,
,60b805f47d6292141781c36e,001,2022-04-28_20h09.36.224,classification_task,2021.2.3,Win32,59.03187721,60b805f47d6292141781c36e,626b377229c10585ec392f89,626b3a84e069abe1f7d1704c,,,,,,,,,,,,,,,,,,,,,,,l,1,"[""0.286"",""0.241"",""0.477"",""0.822""]","[0,1,1,1]",0,58,58,58,1,1,1,,,0,FALSE,2.8623,,,,,,,,,,,,,,,,,,,,,,,,,,,,,,
,60b805f47d6292141781c36e,001,2022-04-28_20h09.36.224,classification_task,2021.2.3,Win32,59.03187721,60b805f47d6292141781c36e,626b377229c10585ec392f89,626b3a84e069abe1f7d1704c,,,,,,,,,,,,,,,,,,,,,,,l,0,"[""0.751"",""0.359"",""0.882"",""0.929""]","[0,1,1,1]",0,59,59,59,1,0,1,,,0,FALSE,2.765,,,,,,,,,,,,,,,,,,,,,,,,,,,,,,
,60b805f47d6292141781c36e,001,2022-04-28_20h09.36.224,classification_task,2021.2.3,Win32,59.03187721,60b805f47d6292141781c36e,626b377229c10585ec392f89,626b3a84e069abe1f7d1704c,,,,,,,,,,,,,,,,,,,,,,,a,1,"[""0.324"",""0.409"",""0.779"",""0.973""]","[1,1,0,1]",0,60,60,60,1,0,0,,,0,FALSE,3.8911,,,,,,,,,,,,,,,,,,,,,,,,,,,,,,
,60b805f47d6292141781c36e,001,2022-04-28_20h09.36.224,classification_task,2021.2.3,Win32,59.03187721,60b805f47d6292141781c36e,626b377229c10585ec392f89,626b3a84e069abe1f7d1704c,,,,,,,,,,,,,,,,,,,,,,,l,1,"[""0.040"",""0.241"",""0.477"",""0.443""]","[1,1,1,0]",0,61,61,61,1,1,1,,,0,FALSE,2.1801,,,,,,,,,,,,,,,,,,,,,,,,,,,,,,
,60b805f47d6292141781c36e,001,2022-04-28_20h09.36.224,classification_task,2021.2.3,Win32,59.03187721,60b805f47d6292141781c36e,626b377229c10585ec392f89,626b3a84e069abe1f7d1704c,,,,,,,,,,,,,,,,,,,,,,,l,1,"[""0.040"",""0.241"",""0.779"",""0.822""]","[1,1,0,1]",0,62,62,62,1,1,1,,,0,FALSE,1.1572,,,,,,,,,,,,,,,,,,,,,,,,,,,,,,
,60b805f47d6292141781c36e,001,2022-04-28_20h09.36.224,classification_task,2021.2.3,Win32,59.03187721,60b805f47d6292141781c36e,626b377229c10585ec392f89,626b3a84e069abe1f7d1704c,,,,,,,,,,,,,,,,,,,,,,,l,0,"[""0.324"",""0.409"",""0.608"",""0.287""]","[1,1,1,0]",0,63,63,63,1,0,0,,,0,FALSE,5.199,,,,,,,,,,,,,,,,,,,,,,,,,,,,,,
,60b805f47d6292141781c36e,001,2022-04-28_20h09.36.224,classification_task,2021.2.3,Win32,59.03187721,60b805f47d6292141781c36e,626b377229c10585ec392f89,626b3a84e069abe1f7d1704c,,,,,,,,,,,,,,,,,,,,,,,,,,,,,,,,,,,,,,,0, ,,0,6.550099206,415.4216,0,0,0,0,1,2,1,,,,,,,,,,,,,,,,,
,60b805f47d6292141781c36e,001,2022-04-28_20h09.36.224,classification_task,2021.2.3,Win32,59.03187721,60b805f47d6292141781c36e,626b377229c10585ec392f89,626b3a84e069abe1f7d1704c,,,,,,,,,,,,,,,,,,,,,,,,,,,,,,,,,,,,,,,1,  ,,0,8.272431658,414.2534,0,0,0,0,1,2,1,,,,,,,,,,,,,,,,,
,60b805f47d6292141781c36e,001,2022-04-28_20h09.36.224,classification_task,2021.2.3,Win32,59.03187721,60b805f47d6292141781c36e,626b377229c10585ec392f89,626b3a84e069abe1f7d1704c,,,,,,,,,,,,,,,,,,,,,,,,,,,,,,,,,,,,,,,2,  ,,0,7.376818783,422.2317,0,0,0,0,1,2,1,,,,,,,,,,,,,,,,,
,60b805f47d6292141781c36e,001,2022-04-28_20h09.36.224,classification_task,2021.2.3,Win32,59.03187721,60b805f47d6292141781c36e,626b377229c10585ec392f89,626b3a84e069abe1f7d1704c,,,,,,,,,,,,,,,,,,,,,,,,,,,,,,,,,,,,,,,,,,,,,0,0,0,0,1,,1,,,,,,,,,,,,,,,,,
,60b805f47d6292141781c36e,001,2022-04-28_20h09.36.224,classification_task,2021.2.3,Win32,59.03187721,60b805f47d6292141781c36e,626b377229c10585ec392f89,626b3a84e069abe1f7d1704c,,,,,,,,,,,,,,,,,,,,,space,11.1126,l,1,"[""0.750"",""0.241"",""0.477"",""0.822""]","[0,1,1,1]",0,0,0,0,1,1,1,,,0,FALSE,3.9155,,,,,,,,,,,,,,,,,,,,,,,,,,,,,,
,60b805f47d6292141781c36e,001,2022-04-28_20h09.36.224,classification_task,2021.2.3,Win32,59.03187721,60b805f47d6292141781c36e,626b377229c10585ec392f89,626b3a84e069abe1f7d1704c,,,,,,,,,,,,,,,,,,,,,,,a,1,"[""0.163"",""0.287"",""0.882"",""0.929""]","[1,0,1,1]",0,1,1,1,1,0,1,,,0,FALSE,3.6104,,,,,,,,,,,,,,,,,,,,,,,,,,,,,,
,60b805f47d6292141781c36e,001,2022-04-28_20h09.36.224,classification_task,2021.2.3,Win32,59.03187721,60b805f47d6292141781c36e,626b377229c10585ec392f89,626b3a84e069abe1f7d1704c,,,,,,,,,,,,,,,,,,,,,,,l,1,"[""0.086"",""0.287"",""0.537"",""0.704""]","[1,0,1,1]",0,2,2,2,1,1,0,,,0,FALSE,4.4743,,,,,,,,,,,,,,,,,,,,,,,,,,,,,,
,60b805f47d6292141781c36e,001,2022-04-28_20h09.36.224,classification_task,2021.2.3,Win32,59.03187721,60b805f47d6292141781c36e,626b377229c10585ec392f89,626b3a84e069abe1f7d1704c,,,,,,,,,,,,,,,,,,,,,,,l,0,"[""0.643"",""0.409"",""0.608"",""0.973""]","[0,1,1,1]",0,3,3,3,1,0,0,,,0,FALSE,2.5378,,,,,,,,,,,,,,,,,,,,,,,,,,,,,,
,60b805f47d6292141781c36e,001,2022-04-28_20h09.36.224,classification_task,2021.2.3,Win32,59.03187721,60b805f47d6292141781c36e,626b377229c10585ec392f89,626b3a84e069abe1f7d1704c,,,,,,,,,,,,,,,,,,,,,,,a,1,"[""0.163"",""0.359"",""0.882"",""0.751""]","[1,1,1,0]",0,4,4,4,1,0,1,,,0,FALSE,1.4702,,,,,,,,,,,,,,,,,,,,,,,,,,,,,,
,60b805f47d6292141781c36e,001,2022-04-28_20h09.36.224,classification_task,2021.2.3,Win32,59.03187721,60b805f47d6292141781c36e,626b377229c10585ec392f89,626b3a84e069abe1f7d1704c,,,,,,,,,,,,,,,,,,,,,,,a,1,"[""0.163"",""0.359"",""0.779"",""0.929""]","[1,1,0,1]",0,5,5,5,1,0,1,,,0,FALSE,0.8978,,,,,,,,,,,,,,,,,,,,,,,,,,,,,,
,60b805f47d6292141781c36e,001,2022-04-28_20h09.36.224,classification_task,2021.2.3,Win32,59.03187721,60b805f47d6292141781c36e,626b377229c10585ec392f89,626b3a84e069abe1f7d1704c,,,,,,,,,,,,,,,,,,,,,,,a,0,"[""0.040"",""0.241"",""0.286"",""0.822""]","[1,1,0,1]",0,6,6,6,1,1,1,,,0,FALSE,2.1643,,,,,,,,,,,,,,,,,,,,,,,,,,,,,,
,60b805f47d6292141781c36e,001,2022-04-28_20h09.36.224,classification_task,2021.2.3,Win32,59.03187721,60b805f47d6292141781c36e,626b377229c10585ec392f89,626b3a84e069abe1f7d1704c,,,,,,,,,,,,,,,,,,,,,,,a,1,"[""0.324"",""0.409"",""0.608"",""0.287""]","[1,1,1,0]",0,7,7,7,1,0,0,,,0,FALSE,1.9525,,,,,,,,,,,,,,,,,,,,,,,,,,,,,,
,60b805f47d6292141781c36e,001,2022-04-28_20h09.36.224,classification_task,2021.2.3,Win32,59.03187721,60b805f47d6292141781c36e,626b377229c10585ec392f89,626b3a84e069abe1f7d1704c,,,,,,,,,,,,,,,,,,,,,,,a,0,"[""0.086"",""0.205"",""0.537"",""0.757""]","[1,1,1,0]",0,8,8,8,1,1,0,,,0,FALSE,1.7282,,,,,,,,,,,,,,,,,,,,,,,,,,,,,,
,60b805f47d6292141781c36e,001,2022-04-28_20h09.36.224,classification_task,2021.2.3,Win32,59.03187721,60b805f47d6292141781c36e,626b377229c10585ec392f89,626b3a84e069abe1f7d1704c,,,,,,,,,,,,,,,,,,,,,,,l,0,"[""0.324"",""0.738"",""0.608"",""0.973""]","[1,0,1,1]",0,9,9,9,1,0,0,,,0,FALSE,1.3468,,,,,,,,,,,,,,,,,,,,,,,,,,,,,,
,60b805f47d6292141781c36e,001,2022-04-28_20h09.36.224,classification_task,2021.2.3,Win32,59.03187721,60b805f47d6292141781c36e,626b377229c10585ec392f89,626b3a84e069abe1f7d1704c,,,,,,,,,,,,,,,,,,,,,,,a,0,"[""0.040"",""0.241"",""0.477"",""0.759""]","[1,1,1,0]",0,10,10,10,1,1,1,,,0,FALSE,1.1798,,,,,,,,,,,,,,,,,,,,,,,,,,,,,,
,60b805f47d6292141781c36e,001,2022-04-28_20h09.36.224,classification_task,2021.2.3,Win32,59.03187721,60b805f47d6292141781c36e,626b377229c10585ec392f89,626b3a84e069abe1f7d1704c,,,,,,,,,,,,,,,,,,,,,,,l,1,"[""0.290"",""0.205"",""0.537"",""0.704""]","[0,1,1,1]",0,11,11,11,1,1,0,,,0,FALSE,1.9973,,,,,,,,,,,,,,,,,,,,,,,,,,,,,,
,60b805f47d6292141781c36e,001,2022-04-28_20h09.36.224,classification_task,2021.2.3,Win32,59.03187721,60b805f47d6292141781c36e,626b377229c10585ec392f89,626b3a84e069abe1f7d1704c,,,,,,,,,,,,,,,,,,,,,,,l,1,"[""0.040"",""0.750"",""0.477"",""0.822""]","[1,0,1,1]",0,12,12,12,1,1,1,,,0,FALSE,1.3482,,,,,,,,,,,,,,,,,,,,,,,,,,,,,,
,60b805f47d6292141781c36e,001,2022-04-28_20h09.36.224,classification_task,2021.2.3,Win32,59.03187721,60b805f47d6292141781c36e,626b377229c10585ec392f89,626b3a84e069abe1f7d1704c,,,,,,,,,,,,,,,,,,,,,,,l,0,"[""0.324"",""0.409"",""0.773"",""0.973""]","[1,1,0,1]",0,13,13,13,1,0,0,,,0,FALSE,3.633,,,,,,,,,,,,,,,,,,,,,,,,,,,,,,
,60b805f47d6292141781c36e,001,2022-04-28_20h09.36.224,classification_task,2021.2.3,Win32,59.03187721,60b805f47d6292141781c36e,626b377229c10585ec392f89,626b3a84e069abe1f7d1704c,,,,,,,,,,,,,,,,,,,,,,,a,1,"[""0.287"",""0.359"",""0.882"",""0.929""]","[0,1,1,1]",0,14,14,14,1,0,1,,,0,FALSE,1.4454,,,,,,,,,,,,,,,,,,,,,,,,,,,,,,
,60b805f47d6292141781c36e,001,2022-04-28_20h09.36.224,classification_task,2021.2.3,Win32,59.03187721,60b805f47d6292141781c36e,626b377229c10585ec392f89,626b3a84e069abe1f7d1704c,,,,,,,,,,,,,,,,,,,,,,,l,1,"[""0.086"",""0.205"",""0.286"",""0.704""]","[1,1,0,1]",0,15,15,15,1,1,0,,,0,FALSE,3.6444,,,,,,,,,,,,,,,,,,,,,,,,,,,,,,
,60b805f47d6292141781c36e,001,2022-04-28_20h09.36.224,classification_task,2021.2.3,Win32,59.03187721,60b805f47d6292141781c36e,626b377229c10585ec392f89,626b3a84e069abe1f7d1704c,,,,,,,,,,,,,,,,,,,,,,,l,0,"[""0.324"",""0.290"",""0.608"",""0.973""]","[1,0,1,1]",0,16,16,16,1,0,0,,,0,FALSE,1.4239,,,,,,,,,,,,,,,,,,,,,,,,,,,,,,
,60b805f47d6292141781c36e,001,2022-04-28_20h09.36.224,classification_task,2021.2.3,Win32,59.03187721,60b805f47d6292141781c36e,626b377229c10585ec392f89,626b3a84e069abe1f7d1704c,,,,,,,,,,,,,,,,,,,,,,,l,1,"[""0.759"",""0.241"",""0.477"",""0.822""]","[0,1,1,1]",0,17,17,17,1,1,1,,,0,FALSE,1.8027,,,,,,,,,,,,,,,,,,,,,,,,,,,,,,
,60b805f47d6292141781c36e,001,2022-04-28_20h09.36.224,classification_task,2021.2.3,Win32,59.03187721,60b805f47d6292141781c36e,626b377229c10585ec392f89,626b3a84e069abe1f7d1704c,,,,,,,,,,,,,,,,,,,,,,,l,1,"[""0.086"",""0.281"",""0.537"",""0.704""]","[1,0,1,1]",0,18,18,18,1,1,0,,,0,FALSE,1.9154,,,,,,,,,,,,,,,,,,,,,,,,,,,,,,
,60b805f47d6292141781c36e,001,2022-04-28_20h09.36.224,classification_task,2021.2.3,Win32,59.03187721,60b805f47d6292141781c36e,626b377229c10585ec392f89,626b3a84e069abe1f7d1704c,,,,,,,,,,,,,,,,,,,,,,,a,1,"[""0.324"",""0.409"",""0.655"",""0.973""]","[1,1,0,1]",0,19,19,19,1,0,0,,,0,FALSE,1.5141,,,,,,,,,,,,,,,,,,,,,,,,,,,,,,
,60b805f47d6292141781c36e,001,2022-04-28_20h09.36.224,classification_task,2021.2.3,Win32,59.03187721,60b805f47d6292141781c36e,626b377229c10585ec392f89,626b3a84e069abe1f7d1704c,,,,,,,,,,,,,,,,,,,,,,,l,1,"[""0.086"",""0.205"",""0.750"",""0.704""]","[1,1,0,1]",0,20,20,20,1,1,0,,,0,FALSE,2.2848,,,,,,,,,,,,,,,,,,,,,,,,,,,,,,
,60b805f47d6292141781c36e,001,2022-04-28_20h09.36.224,classification_task,2021.2.3,Win32,59.03187721,60b805f47d6292141781c36e,626b377229c10585ec392f89,626b3a84e069abe1f7d1704c,,,,,,,,,,,,,,,,,,,,,,,a,0,"[""0.738"",""0.205"",""0.537"",""0.704""]","[0,1,1,1]",0,21,21,21,1,1,0,,,0,FALSE,1.3902,,,,,,,,,,,,,,,,,,,,,,,,,,,,,,
,60b805f47d6292141781c36e,001,2022-04-28_20h09.36.224,classification_task,2021.2.3,Win32,59.03187721,60b805f47d6292141781c36e,626b377229c10585ec392f89,626b3a84e069abe1f7d1704c,,,,,,,,,,,,,,,,,,,,,,,a,1,"[""0.163"",""0.359"",""0.764"",""0.929""]","[1,1,0,1]",0,22,22,22,1,0,1,,,0,FALSE,1.9286,,,,,,,,,,,,,,,,,,,,,,,,,,,,,,
,60b805f47d6292141781c36e,001,2022-04-28_20h09.36.224,classification_task,2021.2.3,Win32,59.03187721,60b805f47d6292141781c36e,626b377229c10585ec392f89,626b3a84e069abe1f7d1704c,,,,,,,,,,,,,,,,,,,,,,,a,1,"[""0.324"",""0.409"",""0.608"",""0.287""]","[1,1,1,0]",0,23,23,23,1,0,0,,,0,FALSE,1.9892,,,,,,,,,,,,,,,,,,,,,,,,,,,,,,
,60b805f47d6292141781c36e,001,2022-04-28_20h09.36.224,classification_task,2021.2.3,Win32,59.03187721,60b805f47d6292141781c36e,626b377229c10585ec392f89,626b3a84e069abe1f7d1704c,,,,,,,,,,,,,,,,,,,,,,,a,1,"[""0.281"",""0.359"",""0.882"",""0.929""]","[0,1,1,1]",0,24,24,24,1,0,1,,,0,FALSE,1.7448,,,,,,,,,,,,,,,,,,,,,,,,,,,,,,
,60b805f47d6292141781c36e,001,2022-04-28_20h09.36.224,classification_task,2021.2.3,Win32,59.03187721,60b805f47d6292141781c36e,626b377229c10585ec392f89,626b3a84e069abe1f7d1704c,,,,,,,,,,,,,,,,,,,,,,,l,1,"[""0.086"",""0.205"",""0.537"",""0.290""]","[1,1,1,0]",0,25,25,25,1,1,0,,,0,FALSE,1.5098,,,,,,,,,,,,,,,,,,,,,,,,,,,,,,
,60b805f47d6292141781c36e,001,2022-04-28_20h09.36.224,classification_task,2021.2.3,Win32,59.03187721,60b805f47d6292141781c36e,626b377229c10585ec392f89,626b3a84e069abe1f7d1704c,,,,,,,,,,,,,,,,,,,,,,,a,0,"[""0.040"",""0.241"",""0.281"",""0.822""]","[1,1,0,1]",0,26,26,26,1,1,1,,,0,FALSE,3.8659,,,,,,,,,,,,,,,,,,,,,,,,,,,,,,
,60b805f47d6292141781c36e,001,2022-04-28_20h09.36.224,classification_task,2021.2.3,Win32,59.03187721,60b805f47d6292141781c36e,626b377229c10585ec392f89,626b3a84e069abe1f7d1704c,,,,,,,,,,,,,,,,,,,,,,,l,1,"[""0.040"",""0.757"",""0.477"",""0.822""]","[1,0,1,1]",0,27,27,27,1,1,1,,,0,FALSE,1.1932,,,,,,,,,,,,,,,,,,,,,,,,,,,,,,
,60b805f47d6292141781c36e,001,2022-04-28_20h09.36.224,classification_task,2021.2.3,Win32,59.03187721,60b805f47d6292141781c36e,626b377229c10585ec392f89,626b3a84e069abe1f7d1704c,,,,,,,,,,,,,,,,,,,,,,,l,1,"[""0.040"",""0.241"",""0.477"",""0.281""]","[1,1,1,0]",0,28,28,28,1,1,1,,,0,FALSE,0.7803,,,,,,,,,,,,,,,,,,,,,,,,,,,,,,
,60b805f47d6292141781c36e,001,2022-04-28_20h09.36.224,classification_task,2021.2.3,Win32,59.03187721,60b805f47d6292141781c36e,626b377229c10585ec392f89,626b3a84e069abe1f7d1704c,,,,,,,,,,,,,,,,,,,,,,,a,1,"[""0.163"",""0.359"",""0.882"",""0.778""]","[1,1,1,0]",0,29,29,29,1,0,1,,,0,FALSE,1.4802,,,,,,,,,,,,,,,,,,,,,,,,,,,,,,
,60b805f47d6292141781c36e,001,2022-04-28_20h09.36.224,classification_task,2021.2.3,Win32,59.03187721,60b805f47d6292141781c36e,626b377229c10585ec392f89,626b3a84e069abe1f7d1704c,,,,,,,,,,,,,,,,,,,,,,,l,0,"[""0.738"",""0.409"",""0.608"",""0.973""]","[0,1,1,1]",0,30,30,30,1,0,0,,,0,FALSE,2.7098,,,,,,,,,,,,,,,,,,,,,,,,,,,,,,
,60b805f47d6292141781c36e,001,2022-04-28_20h09.36.224,classification_task,2021.2.3,Win32,59.03187721,60b805f47d6292141781c36e,626b377229c10585ec392f89,626b3a84e069abe1f7d1704c,,,,,,,,,,,,,,,,,,,,,,,a,1,"[""0.163"",""0.750"",""0.882"",""0.929""]","[1,0,1,1]",0,31,31,31,1,0,1,,,0,FALSE,1.7466,,,,,,,,,,,,,,,,,,,,,,,,,,,,,,
,60b805f47d6292141781c36e,001,2022-04-28_20h09.36.224,classification_task,2021.2.3,Win32,59.03187721,60b805f47d6292141781c36e,626b377229c10585ec392f89,626b3a84e069abe1f7d1704c,,,,,,,,,,,,,,,,,,,,,,,l,1,"[""0.040"",""0.241"",""0.643"",""0.822""]","[1,1,0,1]",0,32,32,32,1,1,1,,,0,FALSE,1.1533,,,,,,,,,,,,,,,,,,,,,,,,,,,,,,
,60b805f47d6292141781c36e,001,2022-04-28_20h09.36.224,classification_task,2021.2.3,Win32,59.03187721,60b805f47d6292141781c36e,626b377229c10585ec392f89,626b3a84e069abe1f7d1704c,,,,,,,,,,,,,,,,,,,,,,,a,0,"[""0.779"",""0.241"",""0.477"",""0.822""]","[0,1,1,1]",0,33,33,33,1,1,1,,,0,FALSE,1.2454,,,,,,,,,,,,,,,,,,,,,,,,,,,,,,
,60b805f47d6292141781c36e,001,2022-04-28_20h09.36.224,classification_task,2021.2.3,Win32,59.03187721,60b805f47d6292141781c36e,626b377229c10585ec392f89,626b3a84e069abe1f7d1704c,,,,,,,,,,,,,,,,,,,,,,,a,1,"[""0.324"",""0.443"",""0.608"",""0.973""]","[1,0,1,1]",0,34,34,34,1,0,0,,,0,FALSE,0.8853,,,,,,,,,,,,,,,,,,,,,,,,,,,,,,
,60b805f47d6292141781c36e,001,2022-04-28_20h09.36.224,classification_task,2021.2.3,Win32,59.03187721,60b805f47d6292141781c36e,626b377229c10585ec392f89,626b3a84e069abe1f7d1704c,,,,,,,,,,,,,,,,,,,,,,,a,1,"[""0.163"",""0.643"",""0.882"",""0.929""]","[1,0,1,1]",0,35,35,35,1,0,1,,,0,FALSE,0.9896,,,,,,,,,,,,,,,,,,,,,,,,,,,,,,
,60b805f47d6292141781c36e,001,2022-04-28_20h09.36.224,classification_task,2021.2.3,Win32,59.03187721,60b805f47d6292141781c36e,626b377229c10585ec392f89,626b3a84e069abe1f7d1704c,,,,,,,,,,,,,,,,,,,,,,,l,0,"[""0.163"",""0.359"",""0.286"",""0.929""]","[1,1,0,1]",0,36,36,36,1,0,1,,,0,FALSE,0.9151,,,,,,,,,,,,,,,,,,,,,,,,,,,,,,
,60b805f47d6292141781c36e,001,2022-04-28_20h09.36.224,classification_task,2021.2.3,Win32,59.03187721,60b805f47d6292141781c36e,626b377229c10585ec392f89,626b3a84e069abe1f7d1704c,,,,,,,,,,,,,,,,,,,,,,,a,0,"[""0.040"",""0.738"",""0.477"",""0.822""]","[1,0,1,1]",0,37,37,37,1,1,1,,,0,FALSE,0.6911,,,,,,,,,,,,,,,,,,,,,,,,,,,,,,
,60b805f47d6292141781c36e,001,2022-04-28_20h09.36.224,classification_task,2021.2.3,Win32,59.03187721,60b805f47d6292141781c36e,626b377229c10585ec392f89,626b3a84e069abe1f7d1704c,,,,,,,,,,,,,,,,,,,,,,,a,0,"[""0.086"",""0.773"",""0.537"",""0.704""]","[1,0,1,1]",0,38,38,38,1,1,0,,,0,FALSE,0.9322,,,,,,,,,,,,,,,,,,,,,,,,,,,,,,
,60b805f47d6292141781c36e,001,2022-04-28_20h09.36.224,classification_task,2021.2.3,Win32,59.03187721,60b805f47d6292141781c36e,626b377229c10585ec392f89,626b3a84e069abe1f7d1704c,,,,,,,,,,,,,,,,,,,,,,,l,0,"[""0.324"",""0.409"",""0.608"",""0.773""]","[1,1,1,0]",0,39,39,39,1,0,0,,,0,FALSE,0.6531,,,,,,,,,,,,,,,,,,,,,,,,,,,,,,
,60b805f47d6292141781c36e,001,2022-04-28_20h09.36.224,classification_task,2021.2.3,Win32,59.03187721,60b805f47d6292141781c36e,626b377229c10585ec392f89,626b3a84e069abe1f7d1704c,,,,,,,,,,,,,,,,,,,,,,,l,1,"[""0.040"",""0.241"",""0.477"",""0.778""]","[1,1,1,0]",0,40,40,40,1,1,1,,,0,FALSE,2.0083,,,,,,,,,,,,,,,,,,,,,,,,,,,,,,
,60b805f47d6292141781c36e,001,2022-04-28_20h09.36.224,classification_task,2021.2.3,Win32,59.03187721,60b805f47d6292141781c36e,626b377229c10585ec392f89,626b3a84e069abe1f7d1704c,,,,,,,,,,,,,,,,,,,,,,,a,0,"[""0.086"",""0.205"",""0.281"",""0.704""]","[1,1,0,1]",0,41,41,41,1,1,0,,,0,FALSE,1.1841,,,,,,,,,,,,,,,,,,,,,,,,,,,,,,
,60b805f47d6292141781c36e,001,2022-04-28_20h09.36.224,classification_task,2021.2.3,Win32,59.03187721,60b805f47d6292141781c36e,626b377229c10585ec392f89,626b3a84e069abe1f7d1704c,,,,,,,,,,,,,,,,,,,,,,,a,1,"[""0.287"",""0.359"",""0.882"",""0.929""]","[0,1,1,1]",0,42,42,42,1,0,1,,,0,FALSE,3.3376,,,,,,,,,,,,,,,,,,,,,,,,,,,,,,
,60b805f47d6292141781c36e,001,2022-04-28_20h09.36.224,classification_task,2021.2.3,Win32,59.03187721,60b805f47d6292141781c36e,626b377229c10585ec392f89,626b3a84e069abe1f7d1704c,,,,,,,,,,,,,,,,,,,,,,,a,1,"[""0.163"",""0.359"",""0.882"",""0.750""]","[1,1,1,0]",0,43,43,43,1,0,1,,,0,FALSE,1.9874,,,,,,,,,,,,,,,,,,,,,,,,,,,,,,
,60b805f47d6292141781c36e,001,2022-04-28_20h09.36.224,classification_task,2021.2.3,Win32,59.03187721,60b805f47d6292141781c36e,626b377229c10585ec392f89,626b3a84e069abe1f7d1704c,,,,,,,,,,,,,,,,,,,,,,,a,1,"[""0.324"",""0.409"",""0.287"",""0.973""]","[1,1,0,1]",0,44,44,44,1,0,0,,,0,FALSE,1.4026,,,,,,,,,,,,,,,,,,,,,,,,,,,,,,
,60b805f47d6292141781c36e,001,2022-04-28_20h09.36.224,classification_task,2021.2.3,Win32,59.03187721,60b805f47d6292141781c36e,626b377229c10585ec392f89,626b3a84e069abe1f7d1704c,,,,,,,,,,,,,,,,,,,,,,,a,1,"[""0.759"",""0.409"",""0.608"",""0.973""]","[0,1,1,1]",0,45,45,45,1,0,0,,,0,FALSE,1.1368,,,,,,,,,,,,,,,,,,,,,,,,,,,,,,
,60b805f47d6292141781c36e,001,2022-04-28_20h09.36.224,classification_task,2021.2.3,Win32,59.03187721,60b805f47d6292141781c36e,626b377229c10585ec392f89,626b3a84e069abe1f7d1704c,,,,,,,,,,,,,,,,,,,,,,,l,1,"[""0.086"",""0.205"",""0.537"",""0.773""]","[1,1,1,0]",0,46,46,46,1,1,0,,,0,FALSE,2.8171,,,,,,,,,,,,,,,,,,,,,,,,,,,,,,
,60b805f47d6292141781c36e,001,2022-04-28_20h09.36.224,classification_task,2021.2.3,Win32,59.03187721,60b805f47d6292141781c36e,626b377229c10585ec392f89,626b3a84e069abe1f7d1704c,,,,,,,,,,,,,,,,,,,,,,,a,0,"[""0.443"",""0.205"",""0.537"",""0.704""]","[0,1,1,1]",0,47,47,47,1,1,0,,,0,FALSE,2.308,,,,,,,,,,,,,,,,,,,,,,,,,,,,,,
,60b805f47d6292141781c36e,001,2022-04-28_20h09.36.224,classification_task,2021.2.3,Win32,59.03187721,60b805f47d6292141781c36e,626b377229c10585ec392f89,626b3a84e069abe1f7d1704c,,,,,,,,,,,,,,,,,,,,,,,l,1,"[""0.281"",""0.241"",""0.477"",""0.822""]","[0,1,1,1]",0,48,48,48,1,1,1,,,0,FALSE,1.4588,,,,,,,,,,,,,,,,,,,,,,,,,,,,,,
,60b805f47d6292141781c36e,001,2022-04-28_20h09.36.224,classification_task,2021.2.3,Win32,59.03187721,60b805f47d6292141781c36e,626b377229c10585ec392f89,626b3a84e069abe1f7d1704c,,,,,,,,,,,,,,,,,,,,,,,l,1,"[""0.086"",""0.205"",""0.759"",""0.704""]","[1,1,0,1]",0,49,49,49,1,1,0,,,0,FALSE,3.8126,,,,,,,,,,,,,,,,,,,,,,,,,,,,,,
,60b805f47d6292141781c36e,001,2022-04-28_20h09.36.224,classification_task,2021.2.3,Win32,59.03187721,60b805f47d6292141781c36e,626b377229c10585ec392f89,626b3a84e069abe1f7d1704c,,,,,,,,,,,,,,,,,,,,,,,l,1,"[""0.040"",""0.643"",""0.477"",""0.822""]","[1,0,1,1]",0,50,50,50,1,1,1,,,0,FALSE,1.5425,,,,,,,,,,,,,,,,,,,,,,,,,,,,,,
,60b805f47d6292141781c36e,001,2022-04-28_20h09.36.224,classification_task,2021.2.3,Win32,59.03187721,60b805f47d6292141781c36e,626b377229c10585ec392f89,626b3a84e069abe1f7d1704c,,,,,,,,,,,,,,,,,,,,,,,l,1,"[""0.086"",""0.751"",""0.537"",""0.704""]","[1,0,1,1]",0,51,51,51,1,1,0,,,0,FALSE,2.5027,,,,,,,,,,,,,,,,,,,,,,,,,,,,,,
,60b805f47d6292141781c36e,001,2022-04-28_20h09.36.224,classification_task,2021.2.3,Win32,59.03187721,60b805f47d6292141781c36e,626b377229c10585ec392f89,626b3a84e069abe1f7d1704c,,,,,,,,,,,,,,,,,,,,,,,a,1,"[""0.324"",""0.409"",""0.608"",""0.773""]","[1,1,1,0]",0,52,52,52,1,0,0,,,0,FALSE,2.4243,,,,,,,,,,,,,,,,,,,,,,,,,,,,,,
,60b805f47d6292141781c36e,001,2022-04-28_20h09.36.224,classification_task,2021.2.3,Win32,59.03187721,60b805f47d6292141781c36e,626b377229c10585ec392f89,626b3a84e069abe1f7d1704c,,,,,,,,,,,,,,,,,,,,,,,a,0,"[""0.086"",""0.205"",""0.537"",""0.779""]","[1,1,1,0]",0,53,53,53,1,1,0,,,0,FALSE,2.6991,,,,,,,,,,,,,,,,,,,,,,,,,,,,,,
,60b805f47d6292141781c36e,001,2022-04-28_20h09.36.224,classification_task,2021.2.3,Win32,59.03187721,60b805f47d6292141781c36e,626b377229c10585ec392f89,626b3a84e069abe1f7d1704c,,,,,,,,,,,,,,,,,,,,,,,a,1,"[""0.655"",""0.359"",""0.882"",""0.929""]","[0,1,1,1]",0,54,54,54,1,0,1,,,0,FALSE,2.3881,,,,,,,,,,,,,,,,,,,,,,,,,,,,,,
,60b805f47d6292141781c36e,001,2022-04-28_20h09.36.224,classification_task,2021.2.3,Win32,59.03187721,60b805f47d6292141781c36e,626b377229c10585ec392f89,626b3a84e069abe1f7d1704c,,,,,,,,,,,,,,,,,,,,,,,a,1,"[""0.163"",""0.751"",""0.882"",""0.929""]","[1,0,1,1]",0,55,55,55,1,0,1,,,0,FALSE,1.746,,,,,,,,,,,,,,,,,,,,,,,,,,,,,,
,60b805f47d6292141781c36e,001,2022-04-28_20h09.36.224,classification_task,2021.2.3,Win32,59.03187721,60b805f47d6292141781c36e,626b377229c10585ec392f89,626b3a84e069abe1f7d1704c,,,,,,,,,,,,,,,,,,,,,,,l,1,"[""0.040"",""0.241"",""0.477"",""0.290""]","[1,1,1,0]",0,56,56,56,1,1,1,,,0,FALSE,2.2358,,,,,,,,,,,,,,,,,,,,,,,,,,,,,,
,60b805f47d6292141781c36e,001,2022-04-28_20h09.36.224,classification_task,2021.2.3,Win32,59.03187721,60b805f47d6292141781c36e,626b377229c10585ec392f89,626b3a84e069abe1f7d1704c,,,,,,,,,,,,,,,,,,,,,,,a,1,"[""0.163"",""0.359"",""0.764"",""0.929""]","[1,1,0,1]",0,57,57,57,1,0,1,,,0,FALSE,1.0234,,,,,,,,,,,,,,,,,,,,,,,,,,,,,,
,60b805f47d6292141781c36e,001,2022-04-28_20h09.36.224,classification_task,2021.2.3,Win32,59.03187721,60b805f47d6292141781c36e,626b377229c10585ec392f89,626b3a84e069abe1f7d1704c,,,,,,,,,,,,,,,,,,,,,,,a,1,"[""0.163"",""0.359"",""0.882"",""0.773""]","[1,1,1,0]",0,58,58,58,1,0,1,,,0,FALSE,0.724,,,,,,,,,,,,,,,,,,,,,,,,,,,,,,
,60b805f47d6292141781c36e,001,2022-04-28_20h09.36.224,classification_task,2021.2.3,Win32,59.03187721,60b805f47d6292141781c36e,626b377229c10585ec392f89,626b3a84e069abe1f7d1704c,,,,,,,,,,,,,,,,,,,,,,,a,0,"[""0.738"",""0.205"",""0.537"",""0.704""]","[0,1,1,1]",0,59,59,59,1,1,0,,,0,FALSE,1.9484,,,,,,,,,,,,,,,,,,,,,,,,,,,,,,
,60b805f47d6292141781c36e,001,2022-04-28_20h09.36.224,classification_task,2021.2.3,Win32,59.03187721,60b805f47d6292141781c36e,626b377229c10585ec392f89,626b3a84e069abe1f7d1704c,,,,,,,,,,,,,,,,,,,,,,,a,1,"[""0.281"",""0.409"",""0.608"",""0.973""]","[0,1,1,1]",0,60,60,60,1,0,0,,,0,FALSE,1.4301,,,,,,,,,,,,,,,,,,,,,,,,,,,,,,
,60b805f47d6292141781c36e,001,2022-04-28_20h09.36.224,classification_task,2021.2.3,Win32,59.03187721,60b805f47d6292141781c36e,626b377229c10585ec392f89,626b3a84e069abe1f7d1704c,,,,,,,,,,,,,,,,,,,,,,,l,0,"[""0.324"",""0.409"",""0.281"",""0.973""]","[1,1,0,1]",0,61,61,61,1,0,0,,,0,FALSE,1.6062,,,,,,,,,,,,,,,,,,,,,,,,,,,,,,
,60b805f47d6292141781c36e,001,2022-04-28_20h09.36.224,classification_task,2021.2.3,Win32,59.03187721,60b805f47d6292141781c36e,626b377229c10585ec392f89,626b3a84e069abe1f7d1704c,,,,,,,,,,,,,,,,,,,,,,,l,1,"[""0.040"",""0.241"",""0.779"",""0.822""]","[1,1,0,1]",0,62,62,62,1,1,1,,,0,FALSE,2.0996,,,,,,,,,,,,,,,,,,,,,,,,,,,,,,
,60b805f47d6292141781c36e,001,2022-04-28_20h09.36.224,classification_task,2021.2.3,Win32,59.03187721,60b805f47d6292141781c36e,626b377229c10585ec392f89,626b3a84e069abe1f7d1704c,,,,,,,,,,,,,,,,,,,,,,,a,1,"[""0.324"",""0.773"",""0.608"",""0.973""]","[1,0,1,1]",0,63,63,63,1,0,0,,,0,FALSE,0.9824,,,,,,,,,,,,,,,,,,,,,,,,,,,,,,
,60b805f47d6292141781c36e,001,2022-04-28_20h09.36.224,classification_task,2021.2.3,Win32,59.03187721,60b805f47d6292141781c36e,626b377229c10585ec392f89,626b3a84e069abe1f7d1704c,,,,,,,,,,,,,,,,,,,,,,,,,,,,,,,,,,,,,,,0, ,,0,6.308972663,235.9851,0,1,1,1,1,2,2,,,,,,,,,,,,,,,,,
,60b805f47d6292141781c36e,001,2022-04-28_20h09.36.224,classification_task,2021.2.3,Win32,59.03187721,60b805f47d6292141781c36e,626b377229c10585ec392f89,626b3a84e069abe1f7d1704c,,,,,,,,,,,,,,,,,,,,,,,,,,,,,,,,,,,,,,,1,  ,,0,7.032352293,239.3654,0,1,1,1,1,2,2,,,,,,,,,,,,,,,,,
,60b805f47d6292141781c36e,001,2022-04-28_20h09.36.224,classification_task,2021.2.3,Win32,59.03187721,60b805f47d6292141781c36e,626b377229c10585ec392f89,626b3a84e069abe1f7d1704c,,,,,,,,,,,,,,,,,,,,,,,,,,,,,,,,,,,,,,,2,  ,,0,6.481205908,241.3842,0,1,1,1,1,2,2,,,,,,,,,,,,,,,,,
,60b805f47d6292141781c36e,001,2022-04-28_20h09.36.224,classification_task,2021.2.3,Win32,59.03187721,60b805f47d6292141781c36e,626b377229c10585ec392f89,626b3a84e069abe1f7d1704c,,,,,,,,,,,,,,,,,,,,,,,,,,,,,,,,,,,,,,,,,,,,,0,1,1,1,1,,2,,,,,,,,,,,,,,,,,
,60b805f47d6292141781c36e,001,2022-04-28_20h09.36.224,classification_task,2021.2.3,Win32,59.03187721,60b805f47d6292141781c36e,626b377229c10585ec392f89,626b3a84e069abe1f7d1704c,,,,,,,,,,,,,,,,,,,,,space,16.1676,l,1,"[""0.040"",""0.241"",""0.281"",""0.822""]","[1,1,0,1]",0,0,0,0,1,1,1,,,0,FALSE,3.9957,,,,,,,,,,,,,,,,,,,,,,,,,,,,,,
,60b805f47d6292141781c36e,001,2022-04-28_20h09.36.224,classification_task,2021.2.3,Win32,59.03187721,60b805f47d6292141781c36e,626b377229c10585ec392f89,626b3a84e069abe1f7d1704c,,,,,,,,,,,,,,,,,,,,,,,l,1,"[""0.086"",""0.205"",""0.537"",""0.443""]","[1,1,1,0]",0,1,1,1,1,1,0,,,0,FALSE,2.1835,,,,,,,,,,,,,,,,,,,,,,,,,,,,,,
,60b805f47d6292141781c36e,001,2022-04-28_20h09.36.224,classification_task,2021.2.3,Win32,59.03187721,60b805f47d6292141781c36e,626b377229c10585ec392f89,626b3a84e069abe1f7d1704c,,,,,,,,,,,,,,,,,,,,,,,a,0,"[""0.764"",""0.241"",""0.477"",""0.822""]","[0,1,1,1]",0,2,2,2,1,1,1,,,0,FALSE,1.7187,,,,,,,,,,,,,,,,,,,,,,,,,,,,,,
,60b805f47d6292141781c36e,001,2022-04-28_20h09.36.224,classification_task,2021.2.3,Win32,59.03187721,60b805f47d6292141781c36e,626b377229c10585ec392f89,626b3a84e069abe1f7d1704c,,,,,,,,,,,,,,,,,,,,,,,a,1,"[""0.163"",""0.359"",""0.655"",""0.929""]","[1,1,0,1]",0,3,3,3,1,0,1,,,0,FALSE,1.9987,,,,,,,,,,,,,,,,,,,,,,,,,,,,,,
,60b805f47d6292141781c36e,001,2022-04-28_20h09.36.224,classification_task,2021.2.3,Win32,59.03187721,60b805f47d6292141781c36e,626b377229c10585ec392f89,626b3a84e069abe1f7d1704c,,,,,,,,,,,,,,,,,,,,,,,a,1,"[""0.163"",""0.359"",""0.882"",""0.287""]","[1,1,1,0]",0,4,4,4,1,0,1,,,0,FALSE,0.7671,,,,,,,,,,,,,,,,,,,,,,,,,,,,,,
,60b805f47d6292141781c36e,001,2022-04-28_20h09.36.224,classification_task,2021.2.3,Win32,59.03187721,60b805f47d6292141781c36e,626b377229c10585ec392f89,626b3a84e069abe1f7d1704c,,,,,,,,,,,,,,,,,,,,,,,l,1,"[""0.086"",""0.205"",""0.759"",""0.704""]","[1,1,0,1]",0,5,5,5,1,1,0,,,0,FALSE,1.7421,,,,,,,,,,,,,,,,,,,,,,,,,,,,,,
,60b805f47d6292141781c36e,001,2022-04-28_20h09.36.224,classification_task,2021.2.3,Win32,59.03187721,60b805f47d6292141781c36e,626b377229c10585ec392f89,626b3a84e069abe1f7d1704c,,,,,,,,,,,,,,,,,,,,,,,l,0,"[""0.286"",""0.359"",""0.882"",""0.929""]","[0,1,1,1]",0,6,6,6,1,0,1,,,0,FALSE,2.4705,,,,,,,,,,,,,,,,,,,,,,,,,,,,,,
,60b805f47d6292141781c36e,001,2022-04-28_20h09.36.224,classification_task,2021.2.3,Win32,59.03187721,60b805f47d6292141781c36e,626b377229c10585ec392f89,626b3a84e069abe1f7d1704c,,,,,,,,,,,,,,,,,,,,,,,a,0,"[""0.778"",""0.205"",""0.537"",""0.704""]","[0,1,1,1]",0,7,7,7,1,1,0,,,0,FALSE,1.5838,,,,,,,,,,,,,,,,,,,,,,,,,,,,,,
,60b805f47d6292141781c36e,001,2022-04-28_20h09.36.224,classification_task,2021.2.3,Win32,59.03187721,60b805f47d6292141781c36e,626b377229c10585ec392f89,626b3a84e069abe1f7d1704c,,,,,,,,,,,,,,,,,,,,,,,a,1,"[""0.163"",""0.751"",""0.882"",""0.929""]","[1,0,1,1]",0,8,8,8,1,0,1,,,0,FALSE,1.248,,,,,,,,,,,,,,,,,,,,,,,,,,,,,,
,60b805f47d6292141781c36e,001,2022-04-28_20h09.36.224,classification_task,2021.2.3,Win32,59.03187721,60b805f47d6292141781c36e,626b377229c10585ec392f89,626b3a84e069abe1f7d1704c,,,,,,,,,,,,,,,,,,,,,,,a,1,"[""0.324"",""0.409"",""0.608"",""0.779""]","[1,1,1,0]",0,9,9,9,1,0,0,,,0,FALSE,2.0269,,,,,,,,,,,,,,,,,,,,,,,,,,,,,,
,60b805f47d6292141781c36e,001,2022-04-28_20h09.36.224,classification_task,2021.2.3,Win32,59.03187721,60b805f47d6292141781c36e,626b377229c10585ec392f89,626b3a84e069abe1f7d1704c,,,,,,,,,,,,,,,,,,,,,,,l,1,"[""0.040"",""0.286"",""0.477"",""0.822""]","[1,0,1,1]",0,10,10,10,1,1,1,,,0,FALSE,1.0505,,,,,,,,,,,,,,,,,,,,,,,,,,,,,,
,60b805f47d6292141781c36e,001,2022-04-28_20h09.36.224,classification_task,2021.2.3,Win32,59.03187721,60b805f47d6292141781c36e,626b377229c10585ec392f89,626b3a84e069abe1f7d1704c,,,,,,,,,,,,,,,,,,,,,,,l,1,"[""0.086"",""0.286"",""0.537"",""0.704""]","[1,0,1,1]",0,11,11,11,1,1,0,,,0,FALSE,1.3989,,,,,,,,,,,,,,,,,,,,,,,,,,,,,,
,60b805f47d6292141781c36e,001,2022-04-28_20h09.36.224,classification_task,2021.2.3,Win32,59.03187721,60b805f47d6292141781c36e,626b377229c10585ec392f89,626b3a84e069abe1f7d1704c,,,,,,,,,,,,,,,,,,,,,,,l,1,"[""0.040"",""0.241"",""0.477"",""0.281""]","[1,1,1,0]",0,12,12,12,1,1,1,,,0,FALSE,0.9233,,,,,,,,,,,,,,,,,,,,,,,,,,,,,,
,60b805f47d6292141781c36e,001,2022-04-28_20h09.36.224,classification_task,2021.2.3,Win32,59.03187721,60b805f47d6292141781c36e,626b377229c10585ec392f89,626b3a84e069abe1f7d1704c,,,,,,,,,,,,,,,,,,,,,,,l,0,"[""0.324"",""0.759"",""0.608"",""0.973""]","[1,0,1,1]",0,13,13,13,1,0,0,,,0,FALSE,1.4846,,,,,,,,,,,,,,,,,,,,,,,,,,,,,,
,60b805f47d6292141781c36e,001,2022-04-28_20h09.36.224,classification_task,2021.2.3,Win32,59.03187721,60b805f47d6292141781c36e,626b377229c10585ec392f89,626b3a84e069abe1f7d1704c,,,,,,,,,,,,,,,,,,,,,,,l,0,"[""0.324"",""0.409"",""0.750"",""0.973""]","[1,1,0,1]",0,14,14,14,1,0,0,,,0,FALSE,0.8326,,,,,,,,,,,,,,,,,,,,,,,,,,,,,,
,60b805f47d6292141781c36e,001,2022-04-28_20h09.36.224,classification_task,2021.2.3,Win32,59.03187721,60b805f47d6292141781c36e,626b377229c10585ec392f89,626b3a84e069abe1f7d1704c,,,,,,,,,,,,,,,,,,,,,,,a,1,"[""0.773"",""0.409"",""0.608"",""0.973""]","[0,1,1,1]",0,15,15,15,1,0,0,,,0,FALSE,1.3994,,,,,,,,,,,,,,,,,,,,,,,,,,,,,,
,60b805f47d6292141781c36e,001,2022-04-28_20h09.36.224,classification_task,2021.2.3,Win32,59.03187721,60b805f47d6292141781c36e,626b377229c10585ec392f89,626b3a84e069abe1f7d1704c,,,,,,,,,,,,,,,,,,,,,,,l,1,"[""0.086"",""0.205"",""0.764"",""0.704""]","[1,1,0,1]",0,16,16,16,1,1,0,,,0,FALSE,1.5084,,,,,,,,,,,,,,,,,,,,,,,,,,,,,,
,60b805f47d6292141781c36e,001,2022-04-28_20h09.36.224,classification_task,2021.2.3,Win32,59.03187721,60b805f47d6292141781c36e,626b377229c10585ec392f89,626b3a84e069abe1f7d1704c,,,,,,,,,,,,,,,,,,,,,,,a,1,"[""0.324"",""0.409"",""0.608"",""0.655""]","[1,1,1,0]",0,17,17,17,1,0,0,,,0,FALSE,1.9834,,,,,,,,,,,,,,,,,,,,,,,,,,,,,,
,60b805f47d6292141781c36e,001,2022-04-28_20h09.36.224,classification_task,2021.2.3,Win32,59.03187721,60b805f47d6292141781c36e,626b377229c10585ec392f89,626b3a84e069abe1f7d1704c,,,,,,,,,,,,,,,,,,,,,,,l,1,"[""0.086"",""0.205"",""0.537"",""0.778""]","[1,1,1,0]",0,18,18,18,1,1,0,,,0,FALSE,0.9396,,,,,,,,,,,,,,,,,,,,,,,,,,,,,,
,60b805f47d6292141781c36e,001,2022-04-28_20h09.36.224,classification_task,2021.2.3,Win32,59.03187721,60b805f47d6292141781c36e,626b377229c10585ec392f89,626b3a84e069abe1f7d1704c,,,,,,,,,,,,,,,,,,,,,,,l,1,"[""0.040"",""0.241"",""0.281"",""0.822""]","[1,1,0,1]",0,19,19,19,1,1,1,,,0,FALSE,1.0978,,,,,,,,,,,,,,,,,,,,,,,,,,,,,,
,60b805f47d6292141781c36e,001,2022-04-28_20h09.36.224,classification_task,2021.2.3,Win32,59.03187721,60b805f47d6292141781c36e,626b377229c10585ec392f89,626b3a84e069abe1f7d1704c,,,,,,,,,,,,,,,,,,,,,,,l,0,"[""0.643"",""0.359"",""0.882"",""0.929""]","[0,1,1,1]",0,20,20,20,1,0,1,,,0,FALSE,1.2301,,,,,,,,,,,,,,,,,,,,,,,,,,,,,,
,60b805f47d6292141781c36e,001,2022-04-28_20h09.36.224,classification_task,2021.2.3,Win32,59.03187721,60b805f47d6292141781c36e,626b377229c10585ec392f89,626b3a84e069abe1f7d1704c,,,,,,,,,,,,,,,,,,,,,,,l,1,"[""0.086"",""0.290"",""0.537"",""0.704""]","[1,0,1,1]",0,21,21,21,1,1,0,,,0,FALSE,4.1498,,,,,,,,,,,,,,,,,,,,,,,,,,,,,,
,60b805f47d6292141781c36e,001,2022-04-28_20h09.36.224,classification_task,2021.2.3,Win32,59.03187721,60b805f47d6292141781c36e,626b377229c10585ec392f89,626b3a84e069abe1f7d1704c,,,,,,,,,,,,,,,,,,,,,,,l,1,"[""0.040"",""0.757"",""0.477"",""0.822""]","[1,0,1,1]",0,22,22,22,1,1,1,,,0,FALSE,2.4215,,,,,,,,,,,,,,,,,,,,,,,,,,,,,,
,60b805f47d6292141781c36e,001,2022-04-28_20h09.36.224,classification_task,2021.2.3,Win32,59.03187721,60b805f47d6292141781c36e,626b377229c10585ec392f89,626b3a84e069abe1f7d1704c,,,,,,,,,,,,,,,,,,,,,,,a,1,"[""0.163"",""0.281"",""0.882"",""0.929""]","[1,0,1,1]",0,23,23,23,1,0,1,,,0,FALSE,1.1716,,,,,,,,,,,,,,,,,,,,,,,,,,,,,,
,60b805f47d6292141781c36e,001,2022-04-28_20h09.36.224,classification_task,2021.2.3,Win32,59.03187721,60b805f47d6292141781c36e,626b377229c10585ec392f89,626b3a84e069abe1f7d1704c,,,,,,,,,,,,,,,,,,,,,,,l,1,"[""0.281"",""0.241"",""0.477"",""0.822""]","[0,1,1,1]",0,24,24,24,1,1,1,,,0,FALSE,1.2643,,,,,,,,,,,,,,,,,,,,,,,,,,,,,,
,60b805f47d6292141781c36e,001,2022-04-28_20h09.36.224,classification_task,2021.2.3,Win32,59.03187721,60b805f47d6292141781c36e,626b377229c10585ec392f89,626b3a84e069abe1f7d1704c,,,,,,,,,,,,,,,,,,,,,,,a,1,"[""0.324"",""0.409"",""0.290"",""0.973""]","[1,1,0,1]",0,25,25,25,1,0,0,,,0,FALSE,1.2802,,,,,,,,,,,,,,,,,,,,,,,,,,,,,,
,60b805f47d6292141781c36e,001,2022-04-28_20h09.36.224,classification_task,2021.2.3,Win32,59.03187721,60b805f47d6292141781c36e,626b377229c10585ec392f89,626b3a84e069abe1f7d1704c,,,,,,,,,,,,,,,,,,,,,,,a,1,"[""0.163"",""0.359"",""0.281"",""0.929""]","[1,1,0,1]",0,26,26,26,1,0,1,,,0,FALSE,1.5069,,,,,,,,,,,,,,,,,,,,,,,,,,,,,,
,60b805f47d6292141781c36e,001,2022-04-28_20h09.36.224,classification_task,2021.2.3,Win32,59.03187721,60b805f47d6292141781c36e,626b377229c10585ec392f89,626b3a84e069abe1f7d1704c,,,,,,,,,,,,,,,,,,,,,,,a,1,"[""0.750"",""0.409"",""0.608"",""0.973""]","[0,1,1,1]",0,27,27,27,1,0,0,,,0,FALSE,1.1883,,,,,,,,,,,,,,,,,,,,,,,,,,,,,,
,60b805f47d6292141781c36e,001,2022-04-28_20h09.36.224,classification_task,2021.2.3,Win32,59.03187721,60b805f47d6292141781c36e,626b377229c10585ec392f89,626b3a84e069abe1f7d1704c,,,,,,,,,,,,,,,,,,,,,,,l,1,"[""0.764"",""0.205"",""0.537"",""0.704""]","[0,1,1,1]",0,28,28,28,1,1,0,,,0,FALSE,1.4836,,,,,,,,,,,,,,,,,,,,,,,,,,,,,,
,60b805f47d6292141781c36e,001,2022-04-28_20h09.36.224,classification_task,2021.2.3,Win32,59.03187721,60b805f47d6292141781c36e,626b377229c10585ec392f89,626b3a84e069abe1f7d1704c,,,,,,,,,,,,,,,,,,,,,,,l,1,"[""0.040"",""0.241"",""0.477"",""0.290""]","[1,1,1,0]",0,29,29,29,1,1,1,,,0,FALSE,1.4012,,,,,,,,,,,,,,,,,,,,,,,,,,,,,,
,60b805f47d6292141781c36e,001,2022-04-28_20h09.36.224,classification_task,2021.2.3,Win32,59.03187721,60b805f47d6292141781c36e,626b377229c10585ec392f89,626b3a84e069abe1f7d1704c,,,,,,,,,,,,,,,,,,,,,,,a,1,"[""0.163"",""0.359"",""0.882"",""0.779""]","[1,1,1,0]",0,30,30,30,1,0,1,,,0,FALSE,5.0172,,,,,,,,,,,,,,,,,,,,,,,,,,,,,,
,60b805f47d6292141781c36e,001,2022-04-28_20h09.36.224,classification_task,2021.2.3,Win32,59.03187721,60b805f47d6292141781c36e,626b377229c10585ec392f89,626b3a84e069abe1f7d1704c,,,,,,,,,,,,,,,,,,,,,,,l,0,"[""0.324"",""0.287"",""0.608"",""0.973""]","[1,0,1,1]",0,31,31,31,1,0,0,,,0,FALSE,1.1888,,,,,,,,,,,,,,,,,,,,,,,,,,,,,,
,60b805f47d6292141781c36e,001,2022-04-28_20h09.36.224,classification_task,2021.2.3,Win32,59.03187721,60b805f47d6292141781c36e,626b377229c10585ec392f89,626b3a84e069abe1f7d1704c,,,,,,,,,,,,,,,,,,,,,,,l,1,"[""0.086"",""0.205"",""0.537"",""0.759""]","[1,1,1,0]",0,32,32,32,1,1,0,,,0,FALSE,1.2633,,,,,,,,,,,,,,,,,,,,,,,,,,,,,,
,60b805f47d6292141781c36e,001,2022-04-28_20h09.36.224,classification_task,2021.2.3,Win32,59.03187721,60b805f47d6292141781c36e,626b377229c10585ec392f89,626b3a84e069abe1f7d1704c,,,,,,,,,,,,,,,,,,,,,,,a,1,"[""0.163"",""0.359"",""0.882"",""0.757""]","[1,1,1,0]",0,33,33,33,1,0,1,,,0,FALSE,1.0492,,,,,,,,,,,,,,,,,,,,,,,,,,,,,,
,60b805f47d6292141781c36e,001,2022-04-28_20h09.36.224,classification_task,2021.2.3,Win32,59.03187721,60b805f47d6292141781c36e,626b377229c10585ec392f89,626b3a84e069abe1f7d1704c,,,,,,,,,,,,,,,,,,,,,,,l,1,"[""0.040"",""0.290"",""0.477"",""0.822""]","[1,0,1,1]",0,34,34,34,1,1,1,,,0,FALSE,1.07,,,,,,,,,,,,,,,,,,,,,,,,,,,,,,
,60b805f47d6292141781c36e,001,2022-04-28_20h09.36.224,classification_task,2021.2.3,Win32,59.03187721,60b805f47d6292141781c36e,626b377229c10585ec392f89,626b3a84e069abe1f7d1704c,,,,,,,,,,,,,,,,,,,,,,,l,0,"[""0.290"",""0.359"",""0.882"",""0.929""]","[0,1,1,1]",0,35,35,35,1,0,1,,,0,FALSE,1.0839,,,,,,,,,,,,,,,,,,,,,,,,,,,,,,
,60b805f47d6292141781c36e,001,2022-04-28_20h09.36.224,classification_task,2021.2.3,Win32,59.03187721,60b805f47d6292141781c36e,626b377229c10585ec392f89,626b3a84e069abe1f7d1704c,,,,,,,,,,,,,,,,,,,,,,,a,1,"[""0.163"",""0.359"",""0.290"",""0.929""]","[1,1,0,1]",0,36,36,36,1,0,1,,,0,FALSE,0.8321,,,,,,,,,,,,,,,,,,,,,,,,,,,,,,
,60b805f47d6292141781c36e,001,2022-04-28_20h09.36.224,classification_task,2021.2.3,Win32,59.03187721,60b805f47d6292141781c36e,626b377229c10585ec392f89,626b3a84e069abe1f7d1704c,,,,,,,,,,,,,,,,,,,,,,,l,1,"[""0.040"",""0.241"",""0.477"",""0.281""]","[1,1,1,0]",0,37,37,37,1,1,1,,,0,FALSE,1.1497,,,,,,,,,,,,,,,,,,,,,,,,,,,,,,
,60b805f47d6292141781c36e,001,2022-04-28_20h09.36.224,classification_task,2021.2.3,Win32,59.03187721,60b805f47d6292141781c36e,626b377229c10585ec392f89,626b3a84e069abe1f7d1704c,,,,,,,,,,,,,,,,,,,,,,,a,1,"[""0.750"",""0.409"",""0.608"",""0.973""]","[0,1,1,1]",0,38,38,38,1,0,0,,,0,FALSE,1.2135,,,,,,,,,,,,,,,,,,,,,,,,,,,,,,
,60b805f47d6292141781c36e,001,2022-04-28_20h09.36.224,classification_task,2021.2.3,Win32,59.03187721,60b805f47d6292141781c36e,626b377229c10585ec392f89,626b3a84e069abe1f7d1704c,,,,,,,,,,,,,,,,,,,,,,,l,1,"[""0.086"",""0.205"",""0.643"",""0.704""]","[1,1,0,1]",0,39,39,39,1,1,0,,,0,FALSE,1.083,,,,,,,,,,,,,,,,,,,,,,,,,,,,,,
,60b805f47d6292141781c36e,001,2022-04-28_20h09.36.224,classification_task,2021.2.3,Win32,59.03187721,60b805f47d6292141781c36e,626b377229c10585ec392f89,626b3a84e069abe1f7d1704c,,,,,,,,,,,,,,,,,,,,,,,a,1,"[""0.324"",""0.750"",""0.608"",""0.973""]","[1,0,1,1]",0,40,40,40,1,0,0,,,0,FALSE,1.0033,,,,,,,,,,,,,,,,,,,,,,,,,,,,,,
,60b805f47d6292141781c36e,001,2022-04-28_20h09.36.224,classification_task,2021.2.3,Win32,59.03187721,60b805f47d6292141781c36e,626b377229c10585ec392f89,626b3a84e069abe1f7d1704c,,,,,,,,,,,,,,,,,,,,,,,a,1,"[""0.163"",""0.751"",""0.882"",""0.929""]","[1,0,1,1]",0,41,41,41,1,0,1,,,0,FALSE,1.4457,,,,,,,,,,,,,,,,,,,,,,,,,,,,,,
,60b805f47d6292141781c36e,001,2022-04-28_20h09.36.224,classification_task,2021.2.3,Win32,59.03187721,60b805f47d6292141781c36e,626b377229c10585ec392f89,626b3a84e069abe1f7d1704c,,,,,,,,,,,,,,,,,,,,,,,a,0,"[""0.287"",""0.241"",""0.477"",""0.822""]","[0,1,1,1]",0,42,42,42,1,1,1,,,0,FALSE,2.7473,,,,,,,,,,,,,,,,,,,,,,,,,,,,,,
,60b805f47d6292141781c36e,001,2022-04-28_20h09.36.224,classification_task,2021.2.3,Win32,59.03187721,60b805f47d6292141781c36e,626b377229c10585ec392f89,626b3a84e069abe1f7d1704c,,,,,,,,,,,,,,,,,,,,,,,l,0,"[""0.324"",""0.409"",""0.751"",""0.973""]","[1,1,0,1]",0,43,43,43,1,0,0,,,0,FALSE,1.2737,,,,,,,,,,,,,,,,,,,,,,,,,,,,,,
,60b805f47d6292141781c36e,001,2022-04-28_20h09.36.224,classification_task,2021.2.3,Win32,59.03187721,60b805f47d6292141781c36e,626b377229c10585ec392f89,626b3a84e069abe1f7d1704c,,,,,,,,,,,,,,,,,,,,,,,l,1,"[""0.751"",""0.205"",""0.537"",""0.704""]","[0,1,1,1]",0,44,44,44,1,1,0,,,0,FALSE,0.92,,,,,,,,,,,,,,,,,,,,,,,,,,,,,,
,60b805f47d6292141781c36e,001,2022-04-28_20h09.36.224,classification_task,2021.2.3,Win32,59.03187721,60b805f47d6292141781c36e,626b377229c10585ec392f89,626b3a84e069abe1f7d1704c,,,,,,,,,,,,,,,,,,,,,,,l,1,"[""0.040"",""0.241"",""0.778"",""0.822""]","[1,1,0,1]",0,45,45,45,1,1,1,,,0,FALSE,1.0707,,,,,,,,,,,,,,,,,,,,,,,,,,,,,,
,60b805f47d6292141781c36e,001,2022-04-28_20h09.36.224,classification_task,2021.2.3,Win32,59.03187721,60b805f47d6292141781c36e,626b377229c10585ec392f89,626b3a84e069abe1f7d1704c,,,,,,,,,,,,,,,,,,,,,,,a,0,"[""0.086"",""0.778"",""0.537"",""0.704""]","[1,0,1,1]",0,46,46,46,1,1,0,,,0,FALSE,0.8178,,,,,,,,,,,,,,,,,,,,,,,,,,,,,,
,60b805f47d6292141781c36e,001,2022-04-28_20h09.36.224,classification_task,2021.2.3,Win32,59.03187721,60b805f47d6292141781c36e,626b377229c10585ec392f89,626b3a84e069abe1f7d1704c,,,,,,,,,,,,,,,,,,,,,,,l,0,"[""0.324"",""0.409"",""0.608"",""0.281""]","[1,1,1,0]",0,47,47,47,1,0,0,,,0,FALSE,1.0119,,,,,,,,,,,,,,,,,,,,,,,,,,,,,,
,60b805f47d6292141781c36e,001,2022-04-28_20h09.36.224,classification_task,2021.2.3,Win32,59.03187721,60b805f47d6292141781c36e,626b377229c10585ec392f89,626b3a84e069abe1f7d1704c,,,,,,,,,,,,,,,,,,,,,,,l,0,"[""0.290"",""0.409"",""0.608"",""0.973""]","[0,1,1,1]",0,48,48,48,1,0,0,,,0,FALSE,1.0521,,,,,,,,,,,,,,,,,,,,,,,,,,,,,,
,60b805f47d6292141781c36e,001,2022-04-28_20h09.36.224,classification_task,2021.2.3,Win32,59.03187721,60b805f47d6292141781c36e,626b377229c10585ec392f89,626b3a84e069abe1f7d1704c,,,,,,,,,,,,,,,,,,,,,,,a,1,"[""0.163"",""0.773"",""0.882"",""0.929""]","[1,0,1,1]",0,49,49,49,1,0,1,,,0,FALSE,1.1491,,,,,,,,,,,,,,,,,,,,,,,,,,,,,,
,60b805f47d6292141781c36e,001,2022-04-28_20h09.36.224,classification_task,2021.2.3,Win32,59.03187721,60b805f47d6292141781c36e,626b377229c10585ec392f89,626b3a84e069abe1f7d1704c,,,,,,,,,,,,,,,,,,,,,,,l,0,"[""0.324"",""0.409"",""0.608"",""0.779""]","[1,1,1,0]",0,50,50,50,1,0,0,,,0,FALSE,1.165,,,,,,,,,,,,,,,,,,,,,,,,,,,,,,
,60b805f47d6292141781c36e,001,2022-04-28_20h09.36.224,classification_task,2021.2.3,Win32,59.03187721,60b805f47d6292141781c36e,626b377229c10585ec392f89,626b3a84e069abe1f7d1704c,,,,,,,,,,,,,,,,,,,,,,,l,1,"[""0.779"",""0.205"",""0.537"",""0.704""]","[0,1,1,1]",0,51,51,51,1,1,0,,,0,FALSE,1.0908,,,,,,,,,,,,,,,,,,,,,,,,,,,,,,
,60b805f47d6292141781c36e,001,2022-04-28_20h09.36.224,classification_task,2021.2.3,Win32,59.03187721,60b805f47d6292141781c36e,626b377229c10585ec392f89,626b3a84e069abe1f7d1704c,,,,,,,,,,,,,,,,,,,,,,,l,1,"[""0.086"",""0.205"",""0.779"",""0.704""]","[1,1,0,1]",0,52,52,52,1,1,0,,,0,FALSE,1.1901,,,,,,,,,,,,,,,,,,,,,,,,,,,,,,
,60b805f47d6292141781c36e,001,2022-04-28_20h09.36.224,classification_task,2021.2.3,Win32,59.03187721,60b805f47d6292141781c36e,626b377229c10585ec392f89,626b3a84e069abe1f7d1704c,,,,,,,,,,,,,,,,,,,,,,,l,1,"[""0.086"",""0.443"",""0.537"",""0.704""]","[1,0,1,1]",0,53,53,53,1,1,0,,,0,FALSE,0.6904,,,,,,,,,,,,,,,,,,,,,,,,,,,,,,
,60b805f47d6292141781c36e,001,2022-04-28_20h09.36.224,classification_task,2021.2.3,Win32,59.03187721,60b805f47d6292141781c36e,626b377229c10585ec392f89,626b3a84e069abe1f7d1704c,,,,,,,,,,,,,,,,,,,,,,,a,0,"[""0.778"",""0.241"",""0.477"",""0.822""]","[0,1,1,1]",0,54,54,54,1,1,1,,,0,FALSE,1.2329,,,,,,,,,,,,,,,,,,,,,,,,,,,,,,
,60b805f47d6292141781c36e,001,2022-04-28_20h09.36.224,classification_task,2021.2.3,Win32,59.03187721,60b805f47d6292141781c36e,626b377229c10585ec392f89,626b3a84e069abe1f7d1704c,,,,,,,,,,,,,,,,,,,,,,,a,1,"[""0.163"",""0.359"",""0.751"",""0.929""]","[1,1,0,1]",0,55,55,55,1,0,1,,,0,FALSE,1.1741,,,,,,,,,,,,,,,,,,,,,,,,,,,,,,
,60b805f47d6292141781c36e,001,2022-04-28_20h09.36.224,classification_task,2021.2.3,Win32,59.03187721,60b805f47d6292141781c36e,626b377229c10585ec392f89,626b3a84e069abe1f7d1704c,,,,,,,,,,,,,,,,,,,,,,,l,1,"[""0.040"",""0.290"",""0.477"",""0.822""]","[1,0,1,1]",0,56,56,56,1,1,1,,,0,FALSE,2.8172,,,,,,,,,,,,,,,,,,,,,,,,,,,,,,
,60b805f47d6292141781c36e,001,2022-04-28_20h09.36.224,classification_task,2021.2.3,Win32,59.03187721,60b805f47d6292141781c36e,626b377229c10585ec392f89,626b3a84e069abe1f7d1704c,,,,,,,,,,,,,,,,,,,,,,,l,1,"[""0.040"",""0.241"",""0.477"",""0.773""]","[1,1,1,0]",0,57,57,57,1,1,1,,,0,FALSE,2.1569,,,,,,,,,,,,,,,,,,,,,,,,,,,,,,
,60b805f47d6292141781c36e,001,2022-04-28_20h09.36.224,classification_task,2021.2.3,Win32,59.03187721,60b805f47d6292141781c36e,626b377229c10585ec392f89,626b3a84e069abe1f7d1704c,,,,,,,,,,,,,,,,,,,,,,,l,1,"[""0.086"",""0.205"",""0.537"",""0.655""]","[1,1,1,0]",0,58,58,58,1,1,0,,,0,FALSE,1.4154,,,,,,,,,,,,,,,,,,,,,,,,,,,,,,
,60b805f47d6292141781c36e,001,2022-04-28_20h09.36.224,classification_task,2021.2.3,Win32,59.03187721,60b805f47d6292141781c36e,626b377229c10585ec392f89,626b3a84e069abe1f7d1704c,,,,,,,,,,,,,,,,,,,,,,,a,1,"[""0.757"",""0.359"",""0.882"",""0.929""]","[0,1,1,1]",0,59,59,59,1,0,1,,,0,FALSE,0.9518,,,,,,,,,,,,,,,,,,,,,,,,,,,,,,
,60b805f47d6292141781c36e,001,2022-04-28_20h09.36.224,classification_task,2021.2.3,Win32,59.03187721,60b805f47d6292141781c36e,626b377229c10585ec392f89,626b3a84e069abe1f7d1704c,,,,,,,,,,,,,,,,,,,,,,,l,1,"[""0.040"",""0.241"",""0.757"",""0.822""]","[1,1,0,1]",0,60,60,60,1,1,1,,,0,FALSE,2.1496,,,,,,,,,,,,,,,,,,,,,,,,,,,,,,
,60b805f47d6292141781c36e,001,2022-04-28_20h09.36.224,classification_task,2021.2.3,Win32,59.03187721,60b805f47d6292141781c36e,626b377229c10585ec392f89,626b3a84e069abe1f7d1704c,,,,,,,,,,,,,,,,,,,,,,,a,1,"[""0.163"",""0.359"",""0.882"",""0.751""]","[1,1,1,0]",0,61,61,61,1,0,1,,,0,FALSE,1.0997,,,,,,,,,,,,,,,,,,,,,,,,,,,,,,
,60b805f47d6292141781c36e,001,2022-04-28_20h09.36.224,classification_task,2021.2.3,Win32,59.03187721,60b805f47d6292141781c36e,626b377229c10585ec392f89,626b3a84e069abe1f7d1704c,,,,,,,,,,,,,,,,,,,,,,,l,0,"[""0.324"",""0.655"",""0.608"",""0.973""]","[1,0,1,1]",0,62,62,62,1,0,0,,,0,FALSE,1.3037,,,,,,,,,,,,,,,,,,,,,,,,,,,,,,
,60b805f47d6292141781c36e,001,2022-04-28_20h09.36.224,classification_task,2021.2.3,Win32,59.03187721,60b805f47d6292141781c36e,626b377229c10585ec392f89,626b3a84e069abe1f7d1704c,,,,,,,,,,,,,,,,,,,,,,,l,0,"[""0.324"",""0.409"",""0.764"",""0.973""]","[1,1,0,1]",0,63,63,63,1,0,0,,,0,FALSE,1.1538,,,,,,,,,,,,,,,,,,,,,,,,,,,,,,
,60b805f47d6292141781c36e,001,2022-04-28_20h09.36.224,classification_task,2021.2.3,Win32,59.03187721,60b805f47d6292141781c36e,626b377229c10585ec392f89,626b3a84e069abe1f7d1704c,,,,,,,,,,,,,,,,,,,,,,,,,,,,,,,,,,,,,,,0, ,,0,6.550099206,181.517,0,2,2,2,1,2,3,,,,,,,,,,,,,,,,,
,60b805f47d6292141781c36e,001,2022-04-28_20h09.36.224,classification_task,2021.2.3,Win32,59.03187721,60b805f47d6292141781c36e,626b377229c10585ec392f89,626b3a84e069abe1f7d1704c,,,,,,,,,,,,,,,,,,,,,,,,,,,,,,,,,,,,,,,1,  ,,0,7.204585538,182.6522,0,2,2,2,1,2,3,,,,,,,,,,,,,,,,,
,60b805f47d6292141781c36e,001,2022-04-28_20h09.36.224,classification_task,2021.2.3,Win32,59.03187721,60b805f47d6292141781c36e,626b377229c10585ec392f89,626b3a84e069abe1f7d1704c,,,,,,,,,,,,,,,,,,,,,,,,,,,,,,,,,,,,,,,2,  ,,0,7.445712081,183.7467,0,2,2,2,1,2,3,,,,,,,,,,,,,,,,,
,60b805f47d6292141781c36e,001,2022-04-28_20h09.36.224,classification_task,2021.2.3,Win32,59.03187721,60b805f47d6292141781c36e,626b377229c10585ec392f89,626b3a84e069abe1f7d1704c,,,,,,,,,,,,,,,,,,,,,,,,,,,,,,,,,,,,,,,,,,,,,0,2,2,2,1,,3,,,,,,,,,,,,,,,,,
,60b805f47d6292141781c36e,001,2022-04-28_20h09.36.224,classification_task,2021.2.3,Win32,59.03187721,60b805f47d6292141781c36e,626b377229c10585ec392f89,626b3a84e069abe1f7d1704c,,,,,,,,,,,,,,,,,,,,,,,,,,,,,,,,,,,,,,,,,,,,,,,,,,,,,I believe the aid is a competent performer,,0.7,0,2,873.7357,0,0,0,0,1,0,,,,
,60b805f47d6292141781c36e,001,2022-04-28_20h09.36.224,classification_task,2021.2.3,Win32,59.03187721,60b805f47d6292141781c36e,626b377229c10585ec392f89,626b3a84e069abe1f7d1704c,,,,,,,,,,,,,,,,,,,,,,,,,,,,,,,,,,,,,,,,,,,,,,,,,,,,,I trust the aid,,0.7,0,2,875.5204,0,0,0,0,1,0,,,,
,60b805f47d6292141781c36e,001,2022-04-28_20h09.36.224,classification_task,2021.2.3,Win32,59.03187721,60b805f47d6292141781c36e,626b377229c10585ec392f89,626b3a84e069abe1f7d1704c,,,,,,,,,,,,,,,,,,,,,,,,,,,,,,,,,,,,,,,,,,,,,,,,,,,,,I have confidence in the advice given by the aid,,0.7,0,2,877.8024,0,0,0,0,1,0,,,,
,60b805f47d6292141781c36e,001,2022-04-28_20h09.36.224,classification_task,2021.2.3,Win32,59.03187721,60b805f47d6292141781c36e,626b377229c10585ec392f89,626b3a84e069abe1f7d1704c,,,,,,,,,,,,,,,,,,,,,,,,,,,,,,,,,,,,,,,,,,,,,,,,,,,,,I can depend on the aid,,0.7,0,2,879.4446,0,0,0,0,1,0,,,,
,60b805f47d6292141781c36e,001,2022-04-28_20h09.36.224,classification_task,2021.2.3,Win32,59.03187721,60b805f47d6292141781c36e,626b377229c10585ec392f89,626b3a84e069abe1f7d1704c,,,,,,,,,,,,,,,,,,,,,,,,,,,,,,,,,,,,,,,,,,,,,,,,,,,,,I can rely on the aid to behave in consistent ways,,0.7,0,2,881.3377,0,0,0,0,1,0,,,,
,60b805f47d6292141781c36e,001,2022-04-28_20h09.36.224,classification_task,2021.2.3,Win32,59.03187721,60b805f47d6292141781c36e,626b377229c10585ec392f89,626b3a84e069abe1f7d1704c,,,,,,,,,,,,,,,,,,,,,,,,,,,,,,,,,,,,,,,,,,,,,,,,,,,,,I can rely on the aid to do its best every time I take its advice,,0.7,0,2,882.7969,0,0,0,0,1,0,,,,
,60b805f47d6292141781c36e,001,2022-04-28_20h09.36.224,classification_task,2021.2.3,Win32,59.03187721,60b805f47d6292141781c36e,626b377229c10585ec392f89,626b3a84e069abe1f7d1704c,,,,,,,,,,,,,,,,,,,,,,,,,,,,,,,,,,,,,,,,,,,,,,,,,,,,,"On trials you completed with assistance from the aid, how frequently did you think the aid was correct?",,0.7,0,60,,0,0,0,0,1,0,,,,
,60b805f47d6292141781c36e,001,2022-04-28_20h09.36.224,classification_task,2021.2.3,Win32,59.03187721,60b805f47d6292141781c36e,626b377229c10585ec392f89,626b3a84e069abe1f7d1704c,,,,,,,,,,,,,,,,,,,,,,,,,,,,,,,,,,,,,,,,,,,,,,,,,,,,,"On trials you completed without the aid, how frequently did you think you were correct?",,0.7,0,45,,0,0,0,0,1,0,,,,
,60b805f47d6292141781c36e,001,2022-04-28_20h09.36.224,classification_task,2021.2.3,Win32,59.03187721,60b805f47d6292141781c36e,626b377229c10585ec392f89,626b3a84e069abe1f7d1704c,,,,,,,,,,,,,,,,,,,,,,,,,,,,,,,,,,,,,,,,,,,,,,,,,,,,,,,,,,,0,0,0,0,1,,,,,
,60b805f47d6292141781c36e,001,2022-04-28_20h09.36.224,classification_task,2021.2.3,Win32,59.03187721,60b805f47d6292141781c36e,626b377229c10585ec392f89,626b3a84e069abe1f7d1704c,,,,,,,,,,,,,,,,,,,,,,,,,,,,,,,,,,,,,,,,,,,,,,,,,,,,,,,,,,,,,,,,,space,9.297,913.2836,
,60b805f47d6292141781c36e,001,2022-04-28_20h09.36.224,classification_task,2021.2.3,Win32,59.03187721,60b805f47d6292141781c36e,626b377229c10585ec392f89,626b3a84e069abe1f7d1704c,,,,,,,,,,,,,,,,,,,,,,,,,,,,,,,,,,,,,,,,,,,,,,,,,,,,,,,,,,,,,,,,,,,,"Mozilla/5.0 (Windows NT 10.0; Win64; x64) AppleWebKit/537.36 (KHTML, like Gecko) Chrome/100.0.4896.127 Safari/537.36"
