usingWebGL,participant,session,date,expName,psychopyVersion,OS,frameRate,PROLIFIC_PID,STUDY_ID,SESSION_ID,signatures_friend,signatures_foe,band_ranges_top,band_ranges_bottom,formitemText,formtype,formundefined,formitemWidth,formindex,formresponse,formrt,key_resp_2.keys,key_resp_2.rt,tute_resp.keys,tute_resp.rt,tutorial.thisRepN,tutorial.thisTrialN,tutorial.thisN,tutorial.thisIndex,tutorial.ran,key_resp_4.keys,key_resp_4.rt,key_resp.keys,key_resp.corr,key_resp.rt,lines_presented,is_signal_presented,trials.thisRepN,trials.thisTrialN,trials.thisN,trials.thisIndex,trials.ran,vessel,active_band,lines,is_signal,supported_pos,catch_trial,debrief_formindex,debrief_formitemText,debrief_formtype,debrief_formitemWidth,debrief_formresponse,debrief_formrt,phases.thisRepN,phases.thisTrialN,phases.thisN,phases.thisIndex,phases.ran,phases.order,phase,key_resp_3.keys,trustitemText,trusttype,trustitemWidth,trustindex,trustresponse,trustrt,support_status.thisRepN,support_status.thisTrialN,support_status.thisN,support_status.thisIndex,support_status.ran,support_status.order,key_resp_5.keys,key_resp_5.rt,globalClockTime,userAgent
TRUE,60b9585537f22407ad740a00,001,2022-04-29_02h12.52.155,classification_task,2021.2.3,Win32,60.0528465,60b9585537f22407ad740a00,626b377229c10585ec392f8a,626b3b3bafb8708d5b6e8d9e,,,,,,,,,,,,,,,,,,,,,,,,,,,,,,,,,,,,,,,,,,,,,,,,,,,,,,,,,,,,,,,,,,,,
,60b9585537f22407ad740a00,001,2022-04-29_02h12.52.155,classification_task,2021.2.3,Win32,60.0528465,60b9585537f22407ad740a00,626b377229c10585ec392f8a,626b3b3bafb8708d5b6e8d9e,"[[""0.314"",""0.484"",""0.854"",""0.927""],[""0.190"",""0.443"",""0.582"",""0.891""]]","[[""0.035"",""0.249"",""0.633"",""0.810""],[""0.095"",""0.384"",""0.544"",""0.701""]]","[1,10]","[100,1000]",Video game experience,,,0.7,0,,,,,,,,,,,,,,,,,,,,,,,,,,,,,,,,,,,,,,,,,,,,,,,,,,,,,,,,,,,
,60b9585537f22407ad740a00,001,2022-04-29_02h12.52.155,classification_task,2021.2.3,Win32,60.0528465,60b9585537f22407ad740a00,626b377229c10585ec392f8a,626b3b3bafb8708d5b6e8d9e,,,,,Approximately how many hours did you spend playing video games in the last week?,,,0.7,0,0,,,,,,,,,,,,,,,,,,,,,,,,,,,,,,,,,,,,,,,,,,,,,,,,,,,,,,,,,,
,60b9585537f22407ad740a00,001,2022-04-29_02h12.52.155,classification_task,2021.2.3,Win32,60.0528465,60b9585537f22407ad740a00,626b377229c10585ec392f8a,626b3b3bafb8708d5b6e8d9e,,,,,"Which game did you play the most this year? (Enter ""None"" if you didn't play any)",,,0.7,0,None,,,,,,,,,,,,,,,,,,,,,,,,,,,,,,,,,,,,,,,,,,,,,,,,,,,,,,,,,,
,60b9585537f22407ad740a00,001,2022-04-29_02h12.52.155,classification_task,2021.2.3,Win32,60.0528465,60b9585537f22407ad740a00,626b377229c10585ec392f8a,626b3b3bafb8708d5b6e8d9e,,,,,Visual perception,,,0.7,0,,,,,,,,,,,,,,,,,,,,,,,,,,,,,,,,,,,,,,,,,,,,,,,,,,,,,,,,,,,
,60b9585537f22407ad740a00,001,2022-04-29_02h12.52.155,classification_task,2021.2.3,Win32,60.0528465,60b9585537f22407ad740a00,626b377229c10585ec392f8a,626b3b3bafb8708d5b6e8d9e,,,,,Do you have any form of color blindness?,,,0.7,0,No,27.0115,,,,,,,,,,,,,,,,,,,,,,,,,,,,,,,,,,,,,,,,,,,,,,,,,,,,,,,,,
,60b9585537f22407ad740a00,001,2022-04-29_02h12.52.155,classification_task,2021.2.3,Win32,60.0528465,60b9585537f22407ad740a00,626b377229c10585ec392f8a,626b3b3bafb8708d5b6e8d9e,,,,,Do you use software to change the colour temperature of your screen (e.g. f.lux)?,,,0.7,0,Yes,28.2628,,,,,,,,,,,,,,,,,,,,,,,,,,,,,,,,,,,,,,,,,,,,,,,,,,,,,,,,,
,60b9585537f22407ad740a00,001,2022-04-29_02h12.52.155,classification_task,2021.2.3,Win32,60.0528465,60b9585537f22407ad740a00,626b377229c10585ec392f8a,626b3b3bafb8708d5b6e8d9e,,,,,,,,,,,,space,43.3058,space,13.1355,0,0,0,0,1,,,,,,,,,,,,,,,,,,,,,,,,,,,,,,,,,,,,,,,,,,,,,,,,
,60b9585537f22407ad740a00,001,2022-04-29_02h12.52.155,classification_task,2021.2.3,Win32,60.0528465,60b9585537f22407ad740a00,626b377229c10585ec392f8a,626b3b3bafb8708d5b6e8d9e,,,,,,,,,,,,,,space,87.1143,1,0,1,0,1,,,,,,,,,,,,,,,,,,,,,,,,,,,,,,,,,,,,,,,,,,,,,,,,
,60b9585537f22407ad740a00,001,2022-04-29_02h12.52.155,classification_task,2021.2.3,Win32,60.0528465,60b9585537f22407ad740a00,626b377229c10585ec392f8a,626b3b3bafb8708d5b6e8d9e,,,,,,,,,,,,,,space,42.3105,2,0,2,0,1,,,,,,,,,,,,,,,,,,,,,,,,,,,,,,,,,,,,,,,,,,,,,,,,
,60b9585537f22407ad740a00,001,2022-04-29_02h12.52.155,classification_task,2021.2.3,Win32,60.0528465,60b9585537f22407ad740a00,626b377229c10585ec392f8a,626b3b3bafb8708d5b6e8d9e,,,,,,,,,,,,,,space,38.5499,3,0,3,0,1,,,,,,,,,,,,,,,,,,,,,,,,,,,,,,,,,,,,,,,,,,,,,,,,
,60b9585537f22407ad740a00,001,2022-04-29_02h12.52.155,classification_task,2021.2.3,Win32,60.0528465,60b9585537f22407ad740a00,626b377229c10585ec392f8a,626b3b3bafb8708d5b6e8d9e,,,,,,,,,,,,,,space,11.6541,4,0,4,0,1,,,,,,,,,,,,,,,,,,,,,,,,,,,,,,,,,,,,,,,,,,,,,,,,
,60b9585537f22407ad740a00,001,2022-04-29_02h12.52.155,classification_task,2021.2.3,Win32,60.0528465,60b9585537f22407ad740a00,626b377229c10585ec392f8a,626b3b3bafb8708d5b6e8d9e,,,,,,,,,,,,,,,,,,,,,space,11.7166,l,1,6.7261,"[""0.095"",""0.384"",""0.544"",""0.747""]","[1,1,1,0]",0,0,0,0,1,1,1,,,0,FALSE,,,,,,,,,,,,,,,,,,,,,,,,,,,,,,
,60b9585537f22407ad740a00,001,2022-04-29_02h12.52.155,classification_task,2021.2.3,Win32,60.0528465,60b9585537f22407ad740a00,626b377229c10585ec392f8a,626b3b3bafb8708d5b6e8d9e,,,,,,,,,,,,,,,,,,,,,,,,0,,"[""0.314"",""0.484"",""0.149"",""0.927""]","[1,1,0,1]",0,1,1,1,1,0,0,,,0,FALSE,,,,,,,,,,,,,,,,,,,,,,,,,,,,,,
,60b9585537f22407ad740a00,001,2022-04-29_02h12.52.155,classification_task,2021.2.3,Win32,60.0528465,60b9585537f22407ad740a00,626b377229c10585ec392f8a,626b3b3bafb8708d5b6e8d9e,,,,,,,,,,,,,,,,,,,,,,,l,1,7.358,"[""0.095"",""0.384"",""0.143"",""0.701""]","[1,1,0,1]",0,2,2,2,1,1,1,,,0,FALSE,,,,,,,,,,,,,,,,,,,,,,,,,,,,,,
,60b9585537f22407ad740a00,001,2022-04-29_02h12.52.155,classification_task,2021.2.3,Win32,60.0528465,60b9585537f22407ad740a00,626b377229c10585ec392f8a,626b3b3bafb8708d5b6e8d9e,,,,,,,,,,,,,,,,,,,,,,,a,1,6.6807,"[""0.150"",""0.443"",""0.582"",""0.891""]","[0,1,1,1]",0,3,3,3,1,0,1,,,0,FALSE,,,,,,,,,,,,,,,,,,,,,,,,,,,,,,
,60b9585537f22407ad740a00,001,2022-04-29_02h12.52.155,classification_task,2021.2.3,Win32,60.0528465,60b9585537f22407ad740a00,626b377229c10585ec392f8a,626b3b3bafb8708d5b6e8d9e,,,,,,,,,,,,,,,,,,,,,,,a,1,4.9272,"[""0.314"",""0.484"",""0.854"",""0.145""]","[1,1,1,0]",0,4,4,4,1,0,0,,,0,FALSE,,,,,,,,,,,,,,,,,,,,,,,,,,,,,,
,60b9585537f22407ad740a00,001,2022-04-29_02h12.52.155,classification_task,2021.2.3,Win32,60.0528465,60b9585537f22407ad740a00,626b377229c10585ec392f8a,626b3b3bafb8708d5b6e8d9e,,,,,,,,,,,,,,,,,,,,,,,l,1,5.5587,"[""0.150"",""0.384"",""0.544"",""0.701""]","[0,1,1,1]",0,5,5,5,1,1,1,,,0,FALSE,,,,,,,,,,,,,,,,,,,,,,,,,,,,,,
,60b9585537f22407ad740a00,001,2022-04-29_02h12.52.155,classification_task,2021.2.3,Win32,60.0528465,60b9585537f22407ad740a00,626b377229c10585ec392f8a,626b3b3bafb8708d5b6e8d9e,,,,,,,,,,,,,,,,,,,,,,,l,1,4.429,"[""0.773"",""0.249"",""0.633"",""0.810""]","[0,1,1,1]",0,6,6,6,1,1,0,,,0,FALSE,,,,,,,,,,,,,,,,,,,,,,,,,,,,,,
,60b9585537f22407ad740a00,001,2022-04-29_02h12.52.155,classification_task,2021.2.3,Win32,60.0528465,60b9585537f22407ad740a00,626b377229c10585ec392f8a,626b3b3bafb8708d5b6e8d9e,,,,,,,,,,,,,,,,,,,,,,,l,1,4.2293,"[""0.035"",""0.249"",""0.633"",""0.766""]","[1,1,1,0]",0,7,7,7,1,1,0,,,0,FALSE,,,,,,,,,,,,,,,,,,,,,,,,,,,,,,
,60b9585537f22407ad740a00,001,2022-04-29_02h12.52.155,classification_task,2021.2.3,Win32,60.0528465,60b9585537f22407ad740a00,626b377229c10585ec392f8a,626b3b3bafb8708d5b6e8d9e,,,,,,,,,,,,,,,,,,,,,,,a,1,3.6948,"[""0.190"",""0.443"",""0.756"",""0.891""]","[1,1,0,1]",0,8,8,8,1,0,1,,,0,FALSE,,,,,,,,,,,,,,,,,,,,,,,,,,,,,,
,60b9585537f22407ad740a00,001,2022-04-29_02h12.52.155,classification_task,2021.2.3,Win32,60.0528465,60b9585537f22407ad740a00,626b377229c10585ec392f8a,626b3b3bafb8708d5b6e8d9e,,,,,,,,,,,,,,,,,,,,,,,l,1,5.5325,"[""0.095"",""0.756"",""0.544"",""0.701""]","[1,0,1,1]",0,9,9,9,1,1,1,,,0,FALSE,,,,,,,,,,,,,,,,,,,,,,,,,,,,,,
,60b9585537f22407ad740a00,001,2022-04-29_02h12.52.155,classification_task,2021.2.3,Win32,60.0528465,60b9585537f22407ad740a00,626b377229c10585ec392f8a,626b3b3bafb8708d5b6e8d9e,,,,,,,,,,,,,,,,,,,,,,,a,1,5.8397,"[""0.740"",""0.484"",""0.854"",""0.927""]","[0,1,1,1]",0,10,10,10,1,0,0,,,0,FALSE,,,,,,,,,,,,,,,,,,,,,,,,,,,,,,
,60b9585537f22407ad740a00,001,2022-04-29_02h12.52.155,classification_task,2021.2.3,Win32,60.0528465,60b9585537f22407ad740a00,626b377229c10585ec392f8a,626b3b3bafb8708d5b6e8d9e,,,,,,,,,,,,,,,,,,,,,,,a,1,5.3123,"[""0.190"",""0.149"",""0.582"",""0.891""]","[1,0,1,1]",0,11,11,11,1,0,1,,,0,FALSE,,,,,,,,,,,,,,,,,,,,,,,,,,,,,,
,60b9585537f22407ad740a00,001,2022-04-29_02h12.52.155,classification_task,2021.2.3,Win32,60.0528465,60b9585537f22407ad740a00,626b377229c10585ec392f8a,626b3b3bafb8708d5b6e8d9e,,,,,,,,,,,,,,,,,,,,,,,l,1,5.5453,"[""0.035"",""0.756"",""0.633"",""0.810""]","[1,0,1,1]",0,12,12,12,1,1,0,,,0,FALSE,,,,,,,,,,,,,,,,,,,,,,,,,,,,,,
,60b9585537f22407ad740a00,001,2022-04-29_02h12.52.155,classification_task,2021.2.3,Win32,60.0528465,60b9585537f22407ad740a00,626b377229c10585ec392f8a,626b3b3bafb8708d5b6e8d9e,,,,,,,,,,,,,,,,,,,,,,,a,1,4.6615,"[""0.314"",""0.756"",""0.854"",""0.927""]","[1,0,1,1]",0,13,13,13,1,0,0,,,0,FALSE,,,,,,,,,,,,,,,,,,,,,,,,,,,,,,
,60b9585537f22407ad740a00,001,2022-04-29_02h12.52.155,classification_task,2021.2.3,Win32,60.0528465,60b9585537f22407ad740a00,626b377229c10585ec392f8a,626b3b3bafb8708d5b6e8d9e,,,,,,,,,,,,,,,,,,,,,,,a,1,3.2649,"[""0.190"",""0.443"",""0.582"",""0.143""]","[1,1,1,0]",0,14,14,14,1,0,1,,,0,FALSE,,,,,,,,,,,,,,,,,,,,,,,,,,,,,,
,60b9585537f22407ad740a00,001,2022-04-29_02h12.52.155,classification_task,2021.2.3,Win32,60.0528465,60b9585537f22407ad740a00,626b377229c10585ec392f8a,626b3b3bafb8708d5b6e8d9e,,,,,,,,,,,,,,,,,,,,,,,l,1,4.3306,"[""0.035"",""0.249"",""0.149"",""0.810""]","[1,1,0,1]",0,15,15,15,1,1,0,,,0,FALSE,,,,,,,,,,,,,,,,,,,,,,,,,,,,,,
,60b9585537f22407ad740a00,001,2022-04-29_02h12.52.155,classification_task,2021.2.3,Win32,60.0528465,60b9585537f22407ad740a00,626b377229c10585ec392f8a,626b3b3bafb8708d5b6e8d9e,,,,,,,,,,,,,,,,,,,,,,,l,1,3.9291,"[""0.035"",""0.249"",""0.633"",""0.766""]","[1,1,1,0]",0,16,16,16,1,1,0,,,0,FALSE,,,,,,,,,,,,,,,,,,,,,,,,,,,,,,
,60b9585537f22407ad740a00,001,2022-04-29_02h12.52.155,classification_task,2021.2.3,Win32,60.0528465,60b9585537f22407ad740a00,626b377229c10585ec392f8a,626b3b3bafb8708d5b6e8d9e,,,,,,,,,,,,,,,,,,,,,,,l,1,3.7948,"[""0.756"",""0.384"",""0.544"",""0.701""]","[0,1,1,1]",0,17,17,17,1,1,1,,,0,FALSE,,,,,,,,,,,,,,,,,,,,,,,,,,,,,,
,60b9585537f22407ad740a00,001,2022-04-29_02h12.52.155,classification_task,2021.2.3,Win32,60.0528465,60b9585537f22407ad740a00,626b377229c10585ec392f8a,626b3b3bafb8708d5b6e8d9e,,,,,,,,,,,,,,,,,,,,,,,l,1,3.6446,"[""0.095"",""0.384"",""0.130"",""0.701""]","[1,1,0,1]",0,18,18,18,1,1,1,,,0,FALSE,,,,,,,,,,,,,,,,,,,,,,,,,,,,,,
,60b9585537f22407ad740a00,001,2022-04-29_02h12.52.155,classification_task,2021.2.3,Win32,60.0528465,60b9585537f22407ad740a00,626b377229c10585ec392f8a,626b3b3bafb8708d5b6e8d9e,,,,,,,,,,,,,,,,,,,,,,,a,1,3.8162,"[""0.190"",""0.443"",""0.582"",""0.130""]","[1,1,1,0]",0,19,19,19,1,0,1,,,0,FALSE,,,,,,,,,,,,,,,,,,,,,,,,,,,,,,
,60b9585537f22407ad740a00,001,2022-04-29_02h12.52.155,classification_task,2021.2.3,Win32,60.0528465,60b9585537f22407ad740a00,626b377229c10585ec392f8a,626b3b3bafb8708d5b6e8d9e,,,,,,,,,,,,,,,,,,,,,,,a,1,4.6103,"[""0.190"",""0.149"",""0.582"",""0.891""]","[1,0,1,1]",0,20,20,20,1,0,1,,,0,FALSE,,,,,,,,,,,,,,,,,,,,,,,,,,,,,,
,60b9585537f22407ad740a00,001,2022-04-29_02h12.52.155,classification_task,2021.2.3,Win32,60.0528465,60b9585537f22407ad740a00,626b377229c10585ec392f8a,626b3b3bafb8708d5b6e8d9e,,,,,,,,,,,,,,,,,,,,,,,a,1,2.8308,"[""0.190"",""0.443"",""0.756"",""0.891""]","[1,1,0,1]",0,21,21,21,1,0,1,,,0,FALSE,,,,,,,,,,,,,,,,,,,,,,,,,,,,,,
,60b9585537f22407ad740a00,001,2022-04-29_02h12.52.155,classification_task,2021.2.3,Win32,60.0528465,60b9585537f22407ad740a00,626b377229c10585ec392f8a,626b3b3bafb8708d5b6e8d9e,,,,,,,,,,,,,,,,,,,,,,,a,1,5.4755,"[""0.314"",""0.756"",""0.854"",""0.927""]","[1,0,1,1]",0,22,22,22,1,0,0,,,0,FALSE,,,,,,,,,,,,,,,,,,,,,,,,,,,,,,
,60b9585537f22407ad740a00,001,2022-04-29_02h12.52.155,classification_task,2021.2.3,Win32,60.0528465,60b9585537f22407ad740a00,626b377229c10585ec392f8a,626b3b3bafb8708d5b6e8d9e,,,,,,,,,,,,,,,,,,,,,,,a,1,4.6876,"[""0.314"",""0.484"",""0.854"",""0.773""]","[1,1,1,0]",0,23,23,23,1,0,0,,,0,FALSE,,,,,,,,,,,,,,,,,,,,,,,,,,,,,,
,60b9585537f22407ad740a00,001,2022-04-29_02h12.52.155,classification_task,2021.2.3,Win32,60.0528465,60b9585537f22407ad740a00,626b377229c10585ec392f8a,626b3b3bafb8708d5b6e8d9e,,,,,,,,,,,,,,,,,,,,,,,l,1,3.1883,"[""0.095"",""0.384"",""0.544"",""0.145""]","[1,1,1,0]",0,24,24,24,1,1,1,,,0,FALSE,,,,,,,,,,,,,,,,,,,,,,,,,,,,,,
,60b9585537f22407ad740a00,001,2022-04-29_02h12.52.155,classification_task,2021.2.3,Win32,60.0528465,60b9585537f22407ad740a00,626b377229c10585ec392f8a,626b3b3bafb8708d5b6e8d9e,,,,,,,,,,,,,,,,,,,,,,,a,1,3.3258,"[""0.152"",""0.443"",""0.582"",""0.891""]","[0,1,1,1]",0,25,25,25,1,0,1,,,0,FALSE,,,,,,,,,,,,,,,,,,,,,,,,,,,,,,
,60b9585537f22407ad740a00,001,2022-04-29_02h12.52.155,classification_task,2021.2.3,Win32,60.0528465,60b9585537f22407ad740a00,626b377229c10585ec392f8a,626b3b3bafb8708d5b6e8d9e,,,,,,,,,,,,,,,,,,,,,,,l,1,3.8217,"[""0.095"",""0.773"",""0.544"",""0.701""]","[1,0,1,1]",0,26,26,26,1,1,1,,,0,FALSE,,,,,,,,,,,,,,,,,,,,,,,,,,,,,,
,60b9585537f22407ad740a00,001,2022-04-29_02h12.52.155,classification_task,2021.2.3,Win32,60.0528465,60b9585537f22407ad740a00,626b377229c10585ec392f8a,626b3b3bafb8708d5b6e8d9e,,,,,,,,,,,,,,,,,,,,,,,l,1,4.8439,"[""0.035"",""0.768"",""0.633"",""0.810""]","[1,0,1,1]",0,27,27,27,1,1,0,,,0,FALSE,,,,,,,,,,,,,,,,,,,,,,,,,,,,,,
,60b9585537f22407ad740a00,001,2022-04-29_02h12.52.155,classification_task,2021.2.3,Win32,60.0528465,60b9585537f22407ad740a00,626b377229c10585ec392f8a,626b3b3bafb8708d5b6e8d9e,,,,,,,,,,,,,,,,,,,,,,,l,1,4.4993,"[""0.143"",""0.249"",""0.633"",""0.810""]","[0,1,1,1]",0,28,28,28,1,1,0,,,0,FALSE,,,,,,,,,,,,,,,,,,,,,,,,,,,,,,
,60b9585537f22407ad740a00,001,2022-04-29_02h12.52.155,classification_task,2021.2.3,Win32,60.0528465,60b9585537f22407ad740a00,626b377229c10585ec392f8a,626b3b3bafb8708d5b6e8d9e,,,,,,,,,,,,,,,,,,,,,,,a,1,5.5811,"[""0.314"",""0.484"",""0.768"",""0.927""]","[1,1,0,1]",0,29,29,29,1,0,0,,,0,FALSE,,,,,,,,,,,,,,,,,,,,,,,,,,,,,,
,60b9585537f22407ad740a00,001,2022-04-29_02h12.52.155,classification_task,2021.2.3,Win32,60.0528465,60b9585537f22407ad740a00,626b377229c10585ec392f8a,626b3b3bafb8708d5b6e8d9e,,,,,,,,,,,,,,,,,,,,,,,a,0,5.8459,"[""0.035"",""0.249"",""0.149"",""0.810""]","[1,1,0,1]",0,30,30,30,1,1,0,,,0,FALSE,,,,,,,,,,,,,,,,,,,,,,,,,,,,,,
,60b9585537f22407ad740a00,001,2022-04-29_02h12.52.155,classification_task,2021.2.3,Win32,60.0528465,60b9585537f22407ad740a00,626b377229c10585ec392f8a,626b3b3bafb8708d5b6e8d9e,,,,,,,,,,,,,,,,,,,,,,,a,1,4.3969,"[""0.149"",""0.484"",""0.854"",""0.927""]","[0,1,1,1]",0,31,31,31,1,0,0,,,0,FALSE,,,,,,,,,,,,,,,,,,,,,,,,,,,,,,
,60b9585537f22407ad740a00,001,2022-04-29_02h12.52.155,classification_task,2021.2.3,Win32,60.0528465,60b9585537f22407ad740a00,626b377229c10585ec392f8a,626b3b3bafb8708d5b6e8d9e,,,,,,,,,,,,,,,,,,,,,,,a,0,9.7043,"[""0.035"",""0.249"",""0.633"",""0.766""]","[1,1,1,0]",0,32,32,32,1,1,0,,,0,FALSE,,,,,,,,,,,,,,,,,,,,,,,,,,,,,,
,60b9585537f22407ad740a00,001,2022-04-29_02h12.52.155,classification_task,2021.2.3,Win32,60.0528465,60b9585537f22407ad740a00,626b377229c10585ec392f8a,626b3b3bafb8708d5b6e8d9e,,,,,,,,,,,,,,,,,,,,,,,a,1,1.7838,"[""0.314"",""0.484"",""0.854"",""0.351""]","[1,1,1,0]",0,33,33,33,1,0,0,,,0,FALSE,,,,,,,,,,,,,,,,,,,,,,,,,,,,,,
,60b9585537f22407ad740a00,001,2022-04-29_02h12.52.155,classification_task,2021.2.3,Win32,60.0528465,60b9585537f22407ad740a00,626b377229c10585ec392f8a,626b3b3bafb8708d5b6e8d9e,,,,,,,,,,,,,,,,,,,,,,,l,1,4.363,"[""0.746"",""0.384"",""0.544"",""0.701""]","[0,1,1,1]",0,34,34,34,1,1,1,,,0,FALSE,,,,,,,,,,,,,,,,,,,,,,,,,,,,,,
,60b9585537f22407ad740a00,001,2022-04-29_02h12.52.155,classification_task,2021.2.3,Win32,60.0528465,60b9585537f22407ad740a00,626b377229c10585ec392f8a,626b3b3bafb8708d5b6e8d9e,,,,,,,,,,,,,,,,,,,,,,,a,1,2.2163,"[""0.190"",""0.130"",""0.582"",""0.891""]","[1,0,1,1]",0,35,35,35,1,0,1,,,0,FALSE,,,,,,,,,,,,,,,,,,,,,,,,,,,,,,
,60b9585537f22407ad740a00,001,2022-04-29_02h12.52.155,classification_task,2021.2.3,Win32,60.0528465,60b9585537f22407ad740a00,626b377229c10585ec392f8a,626b3b3bafb8708d5b6e8d9e,,,,,,,,,,,,,,,,,,,,,,,a,0,2.9456,"[""0.035"",""0.143"",""0.633"",""0.810""]","[1,0,1,1]",0,36,36,36,1,1,0,,,0,FALSE,,,,,,,,,,,,,,,,,,,,,,,,,,,,,,
,60b9585537f22407ad740a00,001,2022-04-29_02h12.52.155,classification_task,2021.2.3,Win32,60.0528465,60b9585537f22407ad740a00,626b377229c10585ec392f8a,626b3b3bafb8708d5b6e8d9e,,,,,,,,,,,,,,,,,,,,,,,a,0,4.4986,"[""0.748"",""0.249"",""0.633"",""0.810""]","[0,1,1,1]",0,37,37,37,1,1,0,,,0,FALSE,,,,,,,,,,,,,,,,,,,,,,,,,,,,,,
,60b9585537f22407ad740a00,001,2022-04-29_02h12.52.155,classification_task,2021.2.3,Win32,60.0528465,60b9585537f22407ad740a00,626b377229c10585ec392f8a,626b3b3bafb8708d5b6e8d9e,,,,,,,,,,,,,,,,,,,,,,,l,0,1.7473,"[""0.756"",""0.443"",""0.582"",""0.891""]","[0,1,1,1]",0,38,38,38,1,0,1,,,0,FALSE,,,,,,,,,,,,,,,,,,,,,,,,,,,,,,
,60b9585537f22407ad740a00,001,2022-04-29_02h12.52.155,classification_task,2021.2.3,Win32,60.0528465,60b9585537f22407ad740a00,626b377229c10585ec392f8a,626b3b3bafb8708d5b6e8d9e,,,,,,,,,,,,,,,,,,,,,,,a,0,0.9818,"[""0.035"",""0.249"",""0.766"",""0.810""]","[1,1,0,1]",0,39,39,39,1,1,0,,,0,FALSE,,,,,,,,,,,,,,,,,,,,,,,,,,,,,,
,60b9585537f22407ad740a00,001,2022-04-29_02h12.52.155,classification_task,2021.2.3,Win32,60.0528465,60b9585537f22407ad740a00,626b377229c10585ec392f8a,626b3b3bafb8708d5b6e8d9e,,,,,,,,,,,,,,,,,,,,,,,a,0,1.0319,"[""0.095"",""0.384"",""0.544"",""0.746""]","[1,1,1,0]",0,40,40,40,1,1,1,,,0,FALSE,,,,,,,,,,,,,,,,,,,,,,,,,,,,,,
,60b9585537f22407ad740a00,001,2022-04-29_02h12.52.155,classification_task,2021.2.3,Win32,60.0528465,60b9585537f22407ad740a00,626b377229c10585ec392f8a,626b3b3bafb8708d5b6e8d9e,,,,,,,,,,,,,,,,,,,,,,,a,1,0.8832,"[""0.190"",""0.443"",""0.582"",""0.145""]","[1,1,1,0]",0,41,41,41,1,0,1,,,0,FALSE,,,,,,,,,,,,,,,,,,,,,,,,,,,,,,
,60b9585537f22407ad740a00,001,2022-04-29_02h12.52.155,classification_task,2021.2.3,Win32,60.0528465,60b9585537f22407ad740a00,626b377229c10585ec392f8a,626b3b3bafb8708d5b6e8d9e,,,,,,,,,,,,,,,,,,,,,,,a,1,2.6154,"[""0.756"",""0.484"",""0.854"",""0.927""]","[0,1,1,1]",0,42,42,42,1,0,0,,,0,FALSE,,,,,,,,,,,,,,,,,,,,,,,,,,,,,,
,60b9585537f22407ad740a00,001,2022-04-29_02h12.52.155,classification_task,2021.2.3,Win32,60.0528465,60b9585537f22407ad740a00,626b377229c10585ec392f8a,626b3b3bafb8708d5b6e8d9e,,,,,,,,,,,,,,,,,,,,,,,l,0,1.0875,"[""0.314"",""0.149"",""0.854"",""0.927""]","[1,0,1,1]",0,43,43,43,1,0,0,,,0,FALSE,,,,,,,,,,,,,,,,,,,,,,,,,,,,,,
,60b9585537f22407ad740a00,001,2022-04-29_02h12.52.155,classification_task,2021.2.3,Win32,60.0528465,60b9585537f22407ad740a00,626b377229c10585ec392f8a,626b3b3bafb8708d5b6e8d9e,,,,,,,,,,,,,,,,,,,,,,,a,0,0.9624,"[""0.095"",""0.740"",""0.544"",""0.701""]","[1,0,1,1]",0,44,44,44,1,1,1,,,0,FALSE,,,,,,,,,,,,,,,,,,,,,,,,,,,,,,
,60b9585537f22407ad740a00,001,2022-04-29_02h12.52.155,classification_task,2021.2.3,Win32,60.0528465,60b9585537f22407ad740a00,626b377229c10585ec392f8a,626b3b3bafb8708d5b6e8d9e,,,,,,,,,,,,,,,,,,,,,,,a,0,2.8994,"[""0.095"",""0.384"",""0.773"",""0.701""]","[1,1,0,1]",0,45,45,45,1,1,1,,,0,FALSE,,,,,,,,,,,,,,,,,,,,,,,,,,,,,,
,60b9585537f22407ad740a00,001,2022-04-29_02h12.52.155,classification_task,2021.2.3,Win32,60.0528465,60b9585537f22407ad740a00,626b377229c10585ec392f8a,626b3b3bafb8708d5b6e8d9e,,,,,,,,,,,,,,,,,,,,,,,a,1,1.087,"[""0.190"",""0.443"",""0.766"",""0.891""]","[1,1,0,1]",0,46,46,46,1,0,1,,,0,FALSE,,,,,,,,,,,,,,,,,,,,,,,,,,,,,,
,60b9585537f22407ad740a00,001,2022-04-29_02h12.52.155,classification_task,2021.2.3,Win32,60.0528465,60b9585537f22407ad740a00,626b377229c10585ec392f8a,626b3b3bafb8708d5b6e8d9e,,,,,,,,,,,,,,,,,,,,,,,l,0,3.3967,"[""0.314"",""0.484"",""0.747"",""0.927""]","[1,1,0,1]",0,47,47,47,1,0,0,,,0,FALSE,,,,,,,,,,,,,,,,,,,,,,,,,,,,,,
,60b9585537f22407ad740a00,001,2022-04-29_02h12.52.155,classification_task,2021.2.3,Win32,60.0528465,60b9585537f22407ad740a00,626b377229c10585ec392f8a,626b3b3bafb8708d5b6e8d9e,,,,,,,,,,,,,,,,,,,,,,,l,1,2.431,"[""0.035"",""0.756"",""0.633"",""0.810""]","[1,0,1,1]",0,48,48,48,1,1,0,,,0,FALSE,,,,,,,,,,,,,,,,,,,,,,,,,,,,,,
,60b9585537f22407ad740a00,001,2022-04-29_02h12.52.155,classification_task,2021.2.3,Win32,60.0528465,60b9585537f22407ad740a00,626b377229c10585ec392f8a,626b3b3bafb8708d5b6e8d9e,,,,,,,,,,,,,,,,,,,,,,,l,0,1.4352,"[""0.773"",""0.484"",""0.854"",""0.927""]","[0,1,1,1]",0,49,49,49,1,0,0,,,0,FALSE,,,,,,,,,,,,,,,,,,,,,,,,,,,,,,
,60b9585537f22407ad740a00,001,2022-04-29_02h12.52.155,classification_task,2021.2.3,Win32,60.0528465,60b9585537f22407ad740a00,626b377229c10585ec392f8a,626b3b3bafb8708d5b6e8d9e,,,,,,,,,,,,,,,,,,,,,,,l,1,1.0465,"[""0.035"",""0.249"",""0.633"",""0.768""]","[1,1,1,0]",0,50,50,50,1,1,0,,,0,FALSE,,,,,,,,,,,,,,,,,,,,,,,,,,,,,,
,60b9585537f22407ad740a00,001,2022-04-29_02h12.52.155,classification_task,2021.2.3,Win32,60.0528465,60b9585537f22407ad740a00,626b377229c10585ec392f8a,626b3b3bafb8708d5b6e8d9e,,,,,,,,,,,,,,,,,,,,,,,a,1,0.9646,"[""0.314"",""0.484"",""0.854"",""0.773""]","[1,1,1,0]",0,51,51,51,1,0,0,,,0,FALSE,,,,,,,,,,,,,,,,,,,,,,,,,,,,,,
,60b9585537f22407ad740a00,001,2022-04-29_02h12.52.155,classification_task,2021.2.3,Win32,60.0528465,60b9585537f22407ad740a00,626b377229c10585ec392f8a,626b3b3bafb8708d5b6e8d9e,,,,,,,,,,,,,,,,,,,,,,,a,1,0.9825,"[""0.747"",""0.443"",""0.582"",""0.891""]","[0,1,1,1]",0,52,52,52,1,0,1,,,0,FALSE,,,,,,,,,,,,,,,,,,,,,,,,,,,,,,
,60b9585537f22407ad740a00,001,2022-04-29_02h12.52.155,classification_task,2021.2.3,Win32,60.0528465,60b9585537f22407ad740a00,626b377229c10585ec392f8a,626b3b3bafb8708d5b6e8d9e,,,,,,,,,,,,,,,,,,,,,,,l,1,1.1335,"[""0.095"",""0.384"",""0.544"",""0.756""]","[1,1,1,0]",0,53,53,53,1,1,1,,,0,FALSE,,,,,,,,,,,,,,,,,,,,,,,,,,,,,,
,60b9585537f22407ad740a00,001,2022-04-29_02h12.52.155,classification_task,2021.2.3,Win32,60.0528465,60b9585537f22407ad740a00,626b377229c10585ec392f8a,626b3b3bafb8708d5b6e8d9e,,,,,,,,,,,,,,,,,,,,,,,a,1,0.9125,"[""0.314"",""0.484"",""0.747"",""0.927""]","[1,1,0,1]",0,54,54,54,1,0,0,,,0,FALSE,,,,,,,,,,,,,,,,,,,,,,,,,,,,,,
,60b9585537f22407ad740a00,001,2022-04-29_02h12.52.155,classification_task,2021.2.3,Win32,60.0528465,60b9585537f22407ad740a00,626b377229c10585ec392f8a,626b3b3bafb8708d5b6e8d9e,,,,,,,,,,,,,,,,,,,,,,,a,0,1.2799,"[""0.748"",""0.249"",""0.633"",""0.810""]","[0,1,1,1]",0,55,55,55,1,1,0,,,0,FALSE,,,,,,,,,,,,,,,,,,,,,,,,,,,,,,
,60b9585537f22407ad740a00,001,2022-04-29_02h12.52.155,classification_task,2021.2.3,Win32,60.0528465,60b9585537f22407ad740a00,626b377229c10585ec392f8a,626b3b3bafb8708d5b6e8d9e,,,,,,,,,,,,,,,,,,,,,,,l,0,1.0148,"[""0.190"",""0.740"",""0.582"",""0.891""]","[1,0,1,1]",0,56,56,56,1,0,1,,,0,FALSE,,,,,,,,,,,,,,,,,,,,,,,,,,,,,,
,60b9585537f22407ad740a00,001,2022-04-29_02h12.52.155,classification_task,2021.2.3,Win32,60.0528465,60b9585537f22407ad740a00,626b377229c10585ec392f8a,626b3b3bafb8708d5b6e8d9e,,,,,,,,,,,,,,,,,,,,,,,l,0,2.6312,"[""0.314"",""0.768"",""0.854"",""0.927""]","[1,0,1,1]",0,57,57,57,1,0,0,,,0,FALSE,,,,,,,,,,,,,,,,,,,,,,,,,,,,,,
,60b9585537f22407ad740a00,001,2022-04-29_02h12.52.155,classification_task,2021.2.3,Win32,60.0528465,60b9585537f22407ad740a00,626b377229c10585ec392f8a,626b3b3bafb8708d5b6e8d9e,,,,,,,,,,,,,,,,,,,,,,,l,0,1.9502,"[""0.190"",""0.443"",""0.582"",""0.746""]","[1,1,1,0]",0,58,58,58,1,0,1,,,0,FALSE,,,,,,,,,,,,,,,,,,,,,,,,,,,,,,
,60b9585537f22407ad740a00,001,2022-04-29_02h12.52.155,classification_task,2021.2.3,Win32,60.0528465,60b9585537f22407ad740a00,626b377229c10585ec392f8a,626b3b3bafb8708d5b6e8d9e,,,,,,,,,,,,,,,,,,,,,,,l,1,0.6672,"[""0.095"",""0.384"",""0.768"",""0.701""]","[1,1,0,1]",0,59,59,59,1,1,1,,,0,FALSE,,,,,,,,,,,,,,,,,,,,,,,,,,,,,,
,60b9585537f22407ad740a00,001,2022-04-29_02h12.52.155,classification_task,2021.2.3,Win32,60.0528465,60b9585537f22407ad740a00,626b377229c10585ec392f8a,626b3b3bafb8708d5b6e8d9e,,,,,,,,,,,,,,,,,,,,,,,a,0,0.9811,"[""0.152"",""0.384"",""0.544"",""0.701""]","[0,1,1,1]",0,60,60,60,1,1,1,,,0,FALSE,,,,,,,,,,,,,,,,,,,,,,,,,,,,,,
,60b9585537f22407ad740a00,001,2022-04-29_02h12.52.155,classification_task,2021.2.3,Win32,60.0528465,60b9585537f22407ad740a00,626b377229c10585ec392f8a,626b3b3bafb8708d5b6e8d9e,,,,,,,,,,,,,,,,,,,,,,,a,1,2.0787,"[""0.190"",""0.443"",""0.756"",""0.891""]","[1,1,0,1]",0,61,61,61,1,0,1,,,0,FALSE,,,,,,,,,,,,,,,,,,,,,,,,,,,,,,
,60b9585537f22407ad740a00,001,2022-04-29_02h12.52.155,classification_task,2021.2.3,Win32,60.0528465,60b9585537f22407ad740a00,626b377229c10585ec392f8a,626b3b3bafb8708d5b6e8d9e,,,,,,,,,,,,,,,,,,,,,,,l,1,1.083,"[""0.035"",""0.249"",""0.756"",""0.810""]","[1,1,0,1]",0,62,62,62,1,1,0,,,0,FALSE,,,,,,,,,,,,,,,,,,,,,,,,,,,,,,
,60b9585537f22407ad740a00,001,2022-04-29_02h12.52.155,classification_task,2021.2.3,Win32,60.0528465,60b9585537f22407ad740a00,626b377229c10585ec392f8a,626b3b3bafb8708d5b6e8d9e,,,,,,,,,,,,,,,,,,,,,,,l,1,0.846,"[""0.095"",""0.143"",""0.544"",""0.701""]","[1,0,1,1]",0,63,63,63,1,1,1,,,0,FALSE,,,,,,,,,,,,,,,,,,,,,,,,,,,,,,
,60b9585537f22407ad740a00,001,2022-04-29_02h12.52.155,classification_task,2021.2.3,Win32,60.0528465,60b9585537f22407ad740a00,626b377229c10585ec392f8a,626b3b3bafb8708d5b6e8d9e,,,,,,,,,,,,,,,,,,,,,,,,,,,,,,,,,,,,,,,0, ,,0,6.76366843,588.4909,0,0,0,0,1,2,1,,,,,,,,,,,,,,,,,
,60b9585537f22407ad740a00,001,2022-04-29_02h12.52.155,classification_task,2021.2.3,Win32,60.0528465,60b9585537f22407ad740a00,626b377229c10585ec392f8a,626b3b3bafb8708d5b6e8d9e,,,,,,,,,,,,,,,,,,,,,,,,,,,,,,,,,,,,,,,1,  ,,0,4.828533731,592.2647,0,0,0,0,1,2,1,,,,,,,,,,,,,,,,,
,60b9585537f22407ad740a00,001,2022-04-29_02h12.52.155,classification_task,2021.2.3,Win32,60.0528465,60b9585537f22407ad740a00,626b377229c10585ec392f8a,626b3b3bafb8708d5b6e8d9e,,,,,,,,,,,,,,,,,,,,,,,,,,,,,,,,,,,,,,,2,  ,,0,3.897707231,597.79,0,0,0,0,1,2,1,,,,,,,,,,,,,,,,,
,60b9585537f22407ad740a00,001,2022-04-29_02h12.52.155,classification_task,2021.2.3,Win32,60.0528465,60b9585537f22407ad740a00,626b377229c10585ec392f8a,626b3b3bafb8708d5b6e8d9e,,,,,,,,,,,,,,,,,,,,,,,,,,,,,,,,,,,,,,,,,,,,,0,0,0,0,1,,1,,,,,,,,,,,,,,,,,
,60b9585537f22407ad740a00,001,2022-04-29_02h12.52.155,classification_task,2021.2.3,Win32,60.0528465,60b9585537f22407ad740a00,626b377229c10585ec392f8a,626b3b3bafb8708d5b6e8d9e,,,,,,,,,,,,,,,,,,,,,space,4.4673,,0,,"[""0.095"",""0.384"",""0.544"",""0.766""]","[1,1,1,0]",0,0,0,0,1,1,1,,,0,FALSE,,,,,,,,,,,,,,,,,,,,,,,,,,,,,,
,60b9585537f22407ad740a00,001,2022-04-29_02h12.52.155,classification_task,2021.2.3,Win32,60.0528465,60b9585537f22407ad740a00,626b377229c10585ec392f8a,626b3b3bafb8708d5b6e8d9e,,,,,,,,,,,,,,,,,,,,,,,,0,,"[""0.314"",""0.484"",""0.854"",""0.351""]","[1,1,1,0]",0,1,1,1,1,0,0,,,0,FALSE,,,,,,,,,,,,,,,,,,,,,,,,,,,,,,
,60b9585537f22407ad740a00,001,2022-04-29_02h12.52.155,classification_task,2021.2.3,Win32,60.0528465,60b9585537f22407ad740a00,626b377229c10585ec392f8a,626b3b3bafb8708d5b6e8d9e,,,,,,,,,,,,,,,,,,,,,,,a,1,1.9646,"[""0.314"",""0.484"",""0.766"",""0.927""]","[1,1,0,1]",0,2,2,2,1,0,0,,,0,FALSE,,,,,,,,,,,,,,,,,,,,,,,,,,,,,,
,60b9585537f22407ad740a00,001,2022-04-29_02h12.52.155,classification_task,2021.2.3,Win32,60.0528465,60b9585537f22407ad740a00,626b377229c10585ec392f8a,626b3b3bafb8708d5b6e8d9e,,,,,,,,,,,,,,,,,,,,,,,l,1,2.5463,"[""0.773"",""0.249"",""0.633"",""0.810""]","[0,1,1,1]",0,3,3,3,1,1,0,,,0,FALSE,,,,,,,,,,,,,,,,,,,,,,,,,,,,,,
,60b9585537f22407ad740a00,001,2022-04-29_02h12.52.155,classification_task,2021.2.3,Win32,60.0528465,60b9585537f22407ad740a00,626b377229c10585ec392f8a,626b3b3bafb8708d5b6e8d9e,,,,,,,,,,,,,,,,,,,,,,,a,1,3.1775,"[""0.190"",""0.443"",""0.756"",""0.891""]","[1,1,0,1]",0,4,4,4,1,0,1,,,0,FALSE,,,,,,,,,,,,,,,,,,,,,,,,,,,,,,
,60b9585537f22407ad740a00,001,2022-04-29_02h12.52.155,classification_task,2021.2.3,Win32,60.0528465,60b9585537f22407ad740a00,626b377229c10585ec392f8a,626b3b3bafb8708d5b6e8d9e,,,,,,,,,,,,,,,,,,,,,,,l,1,1.2718,"[""0.095"",""0.384"",""0.747"",""0.701""]","[1,1,0,1]",0,5,5,5,1,1,1,,,0,FALSE,,,,,,,,,,,,,,,,,,,,,,,,,,,,,,
,60b9585537f22407ad740a00,001,2022-04-29_02h12.52.155,classification_task,2021.2.3,Win32,60.0528465,60b9585537f22407ad740a00,626b377229c10585ec392f8a,626b3b3bafb8708d5b6e8d9e,,,,,,,,,,,,,,,,,,,,,,,a,1,1.6458,"[""0.190"",""0.443"",""0.582"",""0.351""]","[1,1,1,0]",0,6,6,6,1,0,1,,,0,FALSE,,,,,,,,,,,,,,,,,,,,,,,,,,,,,,
,60b9585537f22407ad740a00,001,2022-04-29_02h12.52.155,classification_task,2021.2.3,Win32,60.0528465,60b9585537f22407ad740a00,626b377229c10585ec392f8a,626b3b3bafb8708d5b6e8d9e,,,,,,,,,,,,,,,,,,,,,,,a,1,3.577,"[""0.746"",""0.484"",""0.854"",""0.927""]","[0,1,1,1]",0,7,7,7,1,0,0,,,0,FALSE,,,,,,,,,,,,,,,,,,,,,,,,,,,,,,
,60b9585537f22407ad740a00,001,2022-04-29_02h12.52.155,classification_task,2021.2.3,Win32,60.0528465,60b9585537f22407ad740a00,626b377229c10585ec392f8a,626b3b3bafb8708d5b6e8d9e,,,,,,,,,,,,,,,,,,,,,,,l,1,2.8688,"[""0.035"",""0.249"",""0.633"",""0.143""]","[1,1,1,0]",0,8,8,8,1,1,0,,,0,FALSE,,,,,,,,,,,,,,,,,,,,,,,,,,,,,,
,60b9585537f22407ad740a00,001,2022-04-29_02h12.52.155,classification_task,2021.2.3,Win32,60.0528465,60b9585537f22407ad740a00,626b377229c10585ec392f8a,626b3b3bafb8708d5b6e8d9e,,,,,,,,,,,,,,,,,,,,,,,l,1,1.6473,"[""0.095"",""0.747"",""0.544"",""0.701""]","[1,0,1,1]",0,9,9,9,1,1,1,,,0,FALSE,,,,,,,,,,,,,,,,,,,,,,,,,,,,,,
,60b9585537f22407ad740a00,001,2022-04-29_02h12.52.155,classification_task,2021.2.3,Win32,60.0528465,60b9585537f22407ad740a00,626b377229c10585ec392f8a,626b3b3bafb8708d5b6e8d9e,,,,,,,,,,,,,,,,,,,,,,,a,1,2.98,"[""0.314"",""0.152"",""0.854"",""0.927""]","[1,0,1,1]",0,10,10,10,1,0,0,,,0,FALSE,,,,,,,,,,,,,,,,,,,,,,,,,,,,,,
,60b9585537f22407ad740a00,001,2022-04-29_02h12.52.155,classification_task,2021.2.3,Win32,60.0528465,60b9585537f22407ad740a00,626b377229c10585ec392f8a,626b3b3bafb8708d5b6e8d9e,,,,,,,,,,,,,,,,,,,,,,,a,1,3.0867,"[""0.740"",""0.443"",""0.582"",""0.891""]","[0,1,1,1]",0,11,11,11,1,0,1,,,0,FALSE,,,,,,,,,,,,,,,,,,,,,,,,,,,,,,
,60b9585537f22407ad740a00,001,2022-04-29_02h12.52.155,classification_task,2021.2.3,Win32,60.0528465,60b9585537f22407ad740a00,626b377229c10585ec392f8a,626b3b3bafb8708d5b6e8d9e,,,,,,,,,,,,,,,,,,,,,,,l,1,2.3295,"[""0.035"",""0.249"",""0.351"",""0.810""]","[1,1,0,1]",0,12,12,12,1,1,0,,,0,FALSE,,,,,,,,,,,,,,,,,,,,,,,,,,,,,,
,60b9585537f22407ad740a00,001,2022-04-29_02h12.52.155,classification_task,2021.2.3,Win32,60.0528465,60b9585537f22407ad740a00,626b377229c10585ec392f8a,626b3b3bafb8708d5b6e8d9e,,,,,,,,,,,,,,,,,,,,,,,a,0,1.8981,"[""0.351"",""0.384"",""0.544"",""0.701""]","[0,1,1,1]",0,13,13,13,1,1,1,,,0,FALSE,,,,,,,,,,,,,,,,,,,,,,,,,,,,,,
,60b9585537f22407ad740a00,001,2022-04-29_02h12.52.155,classification_task,2021.2.3,Win32,60.0528465,60b9585537f22407ad740a00,626b377229c10585ec392f8a,626b3b3bafb8708d5b6e8d9e,,,,,,,,,,,,,,,,,,,,,,,l,1,3.2548,"[""0.035"",""0.152"",""0.633"",""0.810""]","[1,0,1,1]",0,14,14,14,1,1,0,,,0,FALSE,,,,,,,,,,,,,,,,,,,,,,,,,,,,,,
,60b9585537f22407ad740a00,001,2022-04-29_02h12.52.155,classification_task,2021.2.3,Win32,60.0528465,60b9585537f22407ad740a00,626b377229c10585ec392f8a,626b3b3bafb8708d5b6e8d9e,,,,,,,,,,,,,,,,,,,,,,,a,1,2.546,"[""0.190"",""0.768"",""0.582"",""0.891""]","[1,0,1,1]",0,15,15,15,1,0,1,,,0,FALSE,,,,,,,,,,,,,,,,,,,,,,,,,,,,,,
,60b9585537f22407ad740a00,001,2022-04-29_02h12.52.155,classification_task,2021.2.3,Win32,60.0528465,60b9585537f22407ad740a00,626b377229c10585ec392f8a,626b3b3bafb8708d5b6e8d9e,,,,,,,,,,,,,,,,,,,,,,,a,1,3.1638,"[""0.314"",""0.484"",""0.854"",""0.756""]","[1,1,1,0]",0,16,16,16,1,0,0,,,0,FALSE,,,,,,,,,,,,,,,,,,,,,,,,,,,,,,
,60b9585537f22407ad740a00,001,2022-04-29_02h12.52.155,classification_task,2021.2.3,Win32,60.0528465,60b9585537f22407ad740a00,626b377229c10585ec392f8a,626b3b3bafb8708d5b6e8d9e,,,,,,,,,,,,,,,,,,,,,,,l,0,3.6607,"[""0.190"",""0.443"",""0.582"",""0.152""]","[1,1,1,0]",0,17,17,17,1,0,1,,,0,FALSE,,,,,,,,,,,,,,,,,,,,,,,,,,,,,,
,60b9585537f22407ad740a00,001,2022-04-29_02h12.52.155,classification_task,2021.2.3,Win32,60.0528465,60b9585537f22407ad740a00,626b377229c10585ec392f8a,626b3b3bafb8708d5b6e8d9e,,,,,,,,,,,,,,,,,,,,,,,a,1,2.8788,"[""0.314"",""0.484"",""0.145"",""0.927""]","[1,1,0,1]",0,18,18,18,1,0,0,,,0,FALSE,,,,,,,,,,,,,,,,,,,,,,,,,,,,,,
,60b9585537f22407ad740a00,001,2022-04-29_02h12.52.155,classification_task,2021.2.3,Win32,60.0528465,60b9585537f22407ad740a00,626b377229c10585ec392f8a,626b3b3bafb8708d5b6e8d9e,,,,,,,,,,,,,,,,,,,,,,,a,1,2.6294,"[""0.756"",""0.484"",""0.854"",""0.927""]","[0,1,1,1]",0,19,19,19,1,0,0,,,0,FALSE,,,,,,,,,,,,,,,,,,,,,,,,,,,,,,
,60b9585537f22407ad740a00,001,2022-04-29_02h12.52.155,classification_task,2021.2.3,Win32,60.0528465,60b9585537f22407ad740a00,626b377229c10585ec392f8a,626b3b3bafb8708d5b6e8d9e,,,,,,,,,,,,,,,,,,,,,,,l,0,2.6972,"[""0.190"",""0.443"",""0.351"",""0.891""]","[1,1,0,1]",0,20,20,20,1,0,1,,,0,FALSE,,,,,,,,,,,,,,,,,,,,,,,,,,,,,,
,60b9585537f22407ad740a00,001,2022-04-29_02h12.52.155,classification_task,2021.2.3,Win32,60.0528465,60b9585537f22407ad740a00,626b377229c10585ec392f8a,626b3b3bafb8708d5b6e8d9e,,,,,,,,,,,,,,,,,,,,,,,a,1,2.1221,"[""0.190"",""0.756"",""0.582"",""0.891""]","[1,0,1,1]",0,21,21,21,1,0,1,,,0,FALSE,,,,,,,,,,,,,,,,,,,,,,,,,,,,,,
,60b9585537f22407ad740a00,001,2022-04-29_02h12.52.155,classification_task,2021.2.3,Win32,60.0528465,60b9585537f22407ad740a00,626b377229c10585ec392f8a,626b3b3bafb8708d5b6e8d9e,,,,,,,,,,,,,,,,,,,,,,,a,0,1.6499,"[""0.746"",""0.384"",""0.544"",""0.701""]","[0,1,1,1]",0,22,22,22,1,1,1,,,0,FALSE,,,,,,,,,,,,,,,,,,,,,,,,,,,,,,
,60b9585537f22407ad740a00,001,2022-04-29_02h12.52.155,classification_task,2021.2.3,Win32,60.0528465,60b9585537f22407ad740a00,626b377229c10585ec392f8a,626b3b3bafb8708d5b6e8d9e,,,,,,,,,,,,,,,,,,,,,,,l,1,2.1003,"[""0.095"",""0.384"",""0.130"",""0.701""]","[1,1,0,1]",0,23,23,23,1,1,1,,,0,FALSE,,,,,,,,,,,,,,,,,,,,,,,,,,,,,,
,60b9585537f22407ad740a00,001,2022-04-29_02h12.52.155,classification_task,2021.2.3,Win32,60.0528465,60b9585537f22407ad740a00,626b377229c10585ec392f8a,626b3b3bafb8708d5b6e8d9e,,,,,,,,,,,,,,,,,,,,,,,l,1,2.9541,"[""0.149"",""0.249"",""0.633"",""0.810""]","[0,1,1,1]",0,24,24,24,1,1,0,,,0,FALSE,,,,,,,,,,,,,,,,,,,,,,,,,,,,,,
,60b9585537f22407ad740a00,001,2022-04-29_02h12.52.155,classification_task,2021.2.3,Win32,60.0528465,60b9585537f22407ad740a00,626b377229c10585ec392f8a,626b3b3bafb8708d5b6e8d9e,,,,,,,,,,,,,,,,,,,,,,,l,1,1.4802,"[""0.095"",""0.145"",""0.544"",""0.701""]","[1,0,1,1]",0,25,25,25,1,1,1,,,0,FALSE,,,,,,,,,,,,,,,,,,,,,,,,,,,,,,
,60b9585537f22407ad740a00,001,2022-04-29_02h12.52.155,classification_task,2021.2.3,Win32,60.0528465,60b9585537f22407ad740a00,626b377229c10585ec392f8a,626b3b3bafb8708d5b6e8d9e,,,,,,,,,,,,,,,,,,,,,,,l,1,2.3301,"[""0.035"",""0.249"",""0.152"",""0.810""]","[1,1,0,1]",0,26,26,26,1,1,0,,,0,FALSE,,,,,,,,,,,,,,,,,,,,,,,,,,,,,,
,60b9585537f22407ad740a00,001,2022-04-29_02h12.52.155,classification_task,2021.2.3,Win32,60.0528465,60b9585537f22407ad740a00,626b377229c10585ec392f8a,626b3b3bafb8708d5b6e8d9e,,,,,,,,,,,,,,,,,,,,,,,a,1,2.1409,"[""0.756"",""0.443"",""0.582"",""0.891""]","[0,1,1,1]",0,27,27,27,1,0,1,,,0,FALSE,,,,,,,,,,,,,,,,,,,,,,,,,,,,,,
,60b9585537f22407ad740a00,001,2022-04-29_02h12.52.155,classification_task,2021.2.3,Win32,60.0528465,60b9585537f22407ad740a00,626b377229c10585ec392f8a,626b3b3bafb8708d5b6e8d9e,,,,,,,,,,,,,,,,,,,,,,,a,1,2.5119,"[""0.314"",""0.768"",""0.854"",""0.927""]","[1,0,1,1]",0,28,28,28,1,0,0,,,0,FALSE,,,,,,,,,,,,,,,,,,,,,,,,,,,,,,
,60b9585537f22407ad740a00,001,2022-04-29_02h12.52.155,classification_task,2021.2.3,Win32,60.0528465,60b9585537f22407ad740a00,626b377229c10585ec392f8a,626b3b3bafb8708d5b6e8d9e,,,,,,,,,,,,,,,,,,,,,,,l,1,2.4458,"[""0.035"",""0.773"",""0.633"",""0.810""]","[1,0,1,1]",0,29,29,29,1,1,0,,,0,FALSE,,,,,,,,,,,,,,,,,,,,,,,,,,,,,,
,60b9585537f22407ad740a00,001,2022-04-29_02h12.52.155,classification_task,2021.2.3,Win32,60.0528465,60b9585537f22407ad740a00,626b377229c10585ec392f8a,626b3b3bafb8708d5b6e8d9e,,,,,,,,,,,,,,,,,,,,,,,a,0,2.462,"[""0.095"",""0.384"",""0.544"",""0.145""]","[1,1,1,0]",0,30,30,30,1,1,1,,,0,FALSE,,,,,,,,,,,,,,,,,,,,,,,,,,,,,,
,60b9585537f22407ad740a00,001,2022-04-29_02h12.52.155,classification_task,2021.2.3,Win32,60.0528465,60b9585537f22407ad740a00,626b377229c10585ec392f8a,626b3b3bafb8708d5b6e8d9e,,,,,,,,,,,,,,,,,,,,,,,l,1,2.4644,"[""0.035"",""0.249"",""0.633"",""0.747""]","[1,1,1,0]",0,31,31,31,1,1,0,,,0,FALSE,,,,,,,,,,,,,,,,,,,,,,,,,,,,,,
,60b9585537f22407ad740a00,001,2022-04-29_02h12.52.155,classification_task,2021.2.3,Win32,60.0528465,60b9585537f22407ad740a00,626b377229c10585ec392f8a,626b3b3bafb8708d5b6e8d9e,,,,,,,,,,,,,,,,,,,,,,,a,1,2.7812,"[""0.746"",""0.484"",""0.854"",""0.927""]","[0,1,1,1]",0,32,32,32,1,0,0,,,0,FALSE,,,,,,,,,,,,,,,,,,,,,,,,,,,,,,
,60b9585537f22407ad740a00,001,2022-04-29_02h12.52.155,classification_task,2021.2.3,Win32,60.0528465,60b9585537f22407ad740a00,626b377229c10585ec392f8a,626b3b3bafb8708d5b6e8d9e,,,,,,,,,,,,,,,,,,,,,,,a,1,3.3813,"[""0.314"",""0.484"",""0.854"",""0.773""]","[1,1,1,0]",0,33,33,33,1,0,0,,,0,FALSE,,,,,,,,,,,,,,,,,,,,,,,,,,,,,,
,60b9585537f22407ad740a00,001,2022-04-29_02h12.52.155,classification_task,2021.2.3,Win32,60.0528465,60b9585537f22407ad740a00,626b377229c10585ec392f8a,626b3b3bafb8708d5b6e8d9e,,,,,,,,,,,,,,,,,,,,,,,l,1,3.0329,"[""0.035"",""0.249"",""0.633"",""0.748""]","[1,1,1,0]",0,34,34,34,1,1,0,,,0,FALSE,,,,,,,,,,,,,,,,,,,,,,,,,,,,,,
,60b9585537f22407ad740a00,001,2022-04-29_02h12.52.155,classification_task,2021.2.3,Win32,60.0528465,60b9585537f22407ad740a00,626b377229c10585ec392f8a,626b3b3bafb8708d5b6e8d9e,,,,,,,,,,,,,,,,,,,,,,,l,1,2.1619,"[""0.766"",""0.384"",""0.544"",""0.701""]","[0,1,1,1]",0,35,35,35,1,1,1,,,0,FALSE,,,,,,,,,,,,,,,,,,,,,,,,,,,,,,
,60b9585537f22407ad740a00,001,2022-04-29_02h12.52.155,classification_task,2021.2.3,Win32,60.0528465,60b9585537f22407ad740a00,626b377229c10585ec392f8a,626b3b3bafb8708d5b6e8d9e,,,,,,,,,,,,,,,,,,,,,,,l,1,2.1291,"[""0.756"",""0.249"",""0.633"",""0.810""]","[0,1,1,1]",0,36,36,36,1,1,0,,,0,FALSE,,,,,,,,,,,,,,,,,,,,,,,,,,,,,,
,60b9585537f22407ad740a00,001,2022-04-29_02h12.52.155,classification_task,2021.2.3,Win32,60.0528465,60b9585537f22407ad740a00,626b377229c10585ec392f8a,626b3b3bafb8708d5b6e8d9e,,,,,,,,,,,,,,,,,,,,,,,a,1,2.8465,"[""0.314"",""0.484"",""0.143"",""0.927""]","[1,1,0,1]",0,37,37,37,1,0,0,,,0,FALSE,,,,,,,,,,,,,,,,,,,,,,,,,,,,,,
,60b9585537f22407ad740a00,001,2022-04-29_02h12.52.155,classification_task,2021.2.3,Win32,60.0528465,60b9585537f22407ad740a00,626b377229c10585ec392f8a,626b3b3bafb8708d5b6e8d9e,,,,,,,,,,,,,,,,,,,,,,,l,1,3.7978,"[""0.035"",""0.249"",""0.773"",""0.810""]","[1,1,0,1]",0,38,38,38,1,1,0,,,0,FALSE,,,,,,,,,,,,,,,,,,,,,,,,,,,,,,
,60b9585537f22407ad740a00,001,2022-04-29_02h12.52.155,classification_task,2021.2.3,Win32,60.0528465,60b9585537f22407ad740a00,626b377229c10585ec392f8a,626b3b3bafb8708d5b6e8d9e,,,,,,,,,,,,,,,,,,,,,,,a,1,2.5452,"[""0.190"",""0.149"",""0.582"",""0.891""]","[1,0,1,1]",0,39,39,39,1,0,1,,,0,FALSE,,,,,,,,,,,,,,,,,,,,,,,,,,,,,,
,60b9585537f22407ad740a00,001,2022-04-29_02h12.52.155,classification_task,2021.2.3,Win32,60.0528465,60b9585537f22407ad740a00,626b377229c10585ec392f8a,626b3b3bafb8708d5b6e8d9e,,,,,,,,,,,,,,,,,,,,,,,a,1,3.0348,"[""0.190"",""0.443"",""0.582"",""0.143""]","[1,1,1,0]",0,40,40,40,1,0,1,,,0,FALSE,,,,,,,,,,,,,,,,,,,,,,,,,,,,,,
,60b9585537f22407ad740a00,001,2022-04-29_02h12.52.155,classification_task,2021.2.3,Win32,60.0528465,60b9585537f22407ad740a00,626b377229c10585ec392f8a,626b3b3bafb8708d5b6e8d9e,,,,,,,,,,,,,,,,,,,,,,,l,1,2.053,"[""0.095"",""0.756"",""0.544"",""0.701""]","[1,0,1,1]",0,41,41,41,1,1,1,,,0,FALSE,,,,,,,,,,,,,,,,,,,,,,,,,,,,,,
,60b9585537f22407ad740a00,001,2022-04-29_02h12.52.155,classification_task,2021.2.3,Win32,60.0528465,60b9585537f22407ad740a00,626b377229c10585ec392f8a,626b3b3bafb8708d5b6e8d9e,,,,,,,,,,,,,,,,,,,,,,,l,1,1.6227,"[""0.095"",""0.384"",""0.145"",""0.701""]","[1,1,0,1]",0,42,42,42,1,1,1,,,0,FALSE,,,,,,,,,,,,,,,,,,,,,,,,,,,,,,
,60b9585537f22407ad740a00,001,2022-04-29_02h12.52.155,classification_task,2021.2.3,Win32,60.0528465,60b9585537f22407ad740a00,626b377229c10585ec392f8a,626b3b3bafb8708d5b6e8d9e,,,,,,,,,,,,,,,,,,,,,,,a,1,2.8907,"[""0.314"",""0.773"",""0.854"",""0.927""]","[1,0,1,1]",0,43,43,43,1,0,0,,,0,FALSE,,,,,,,,,,,,,,,,,,,,,,,,,,,,,,
,60b9585537f22407ad740a00,001,2022-04-29_02h12.52.155,classification_task,2021.2.3,Win32,60.0528465,60b9585537f22407ad740a00,626b377229c10585ec392f8a,626b3b3bafb8708d5b6e8d9e,,,,,,,,,,,,,,,,,,,,,,,a,1,2.5642,"[""0.190"",""0.443"",""0.766"",""0.891""]","[1,1,0,1]",0,44,44,44,1,0,1,,,0,FALSE,,,,,,,,,,,,,,,,,,,,,,,,,,,,,,
,60b9585537f22407ad740a00,001,2022-04-29_02h12.52.155,classification_task,2021.2.3,Win32,60.0528465,60b9585537f22407ad740a00,626b377229c10585ec392f8a,626b3b3bafb8708d5b6e8d9e,,,,,,,,,,,,,,,,,,,,,,,a,1,2.4148,"[""0.150"",""0.443"",""0.582"",""0.891""]","[0,1,1,1]",0,45,45,45,1,0,1,,,0,FALSE,,,,,,,,,,,,,,,,,,,,,,,,,,,,,,
,60b9585537f22407ad740a00,001,2022-04-29_02h12.52.155,classification_task,2021.2.3,Win32,60.0528465,60b9585537f22407ad740a00,626b377229c10585ec392f8a,626b3b3bafb8708d5b6e8d9e,,,,,,,,,,,,,,,,,,,,,,,l,1,3.1788,"[""0.035"",""0.748"",""0.633"",""0.810""]","[1,0,1,1]",0,46,46,46,1,1,0,,,0,FALSE,,,,,,,,,,,,,,,,,,,,,,,,,,,,,,
,60b9585537f22407ad740a00,001,2022-04-29_02h12.52.155,classification_task,2021.2.3,Win32,60.0528465,60b9585537f22407ad740a00,626b377229c10585ec392f8a,626b3b3bafb8708d5b6e8d9e,,,,,,,,,,,,,,,,,,,,,,,l,1,1.7806,"[""0.095"",""0.384"",""0.544"",""0.150""]","[1,1,1,0]",0,47,47,47,1,1,1,,,0,FALSE,,,,,,,,,,,,,,,,,,,,,,,,,,,,,,
,60b9585537f22407ad740a00,001,2022-04-29_02h12.52.155,classification_task,2021.2.3,Win32,60.0528465,60b9585537f22407ad740a00,626b377229c10585ec392f8a,626b3b3bafb8708d5b6e8d9e,,,,,,,,,,,,,,,,,,,,,,,l,1,1.2964,"[""0.035"",""0.748"",""0.633"",""0.810""]","[1,0,1,1]",0,48,48,48,1,1,0,,,0,FALSE,,,,,,,,,,,,,,,,,,,,,,,,,,,,,,
,60b9585537f22407ad740a00,001,2022-04-29_02h12.52.155,classification_task,2021.2.3,Win32,60.0528465,60b9585537f22407ad740a00,626b377229c10585ec392f8a,626b3b3bafb8708d5b6e8d9e,,,,,,,,,,,,,,,,,,,,,,,a,1,3.5281,"[""0.190"",""0.150"",""0.582"",""0.891""]","[1,0,1,1]",0,49,49,49,1,0,1,,,0,FALSE,,,,,,,,,,,,,,,,,,,,,,,,,,,,,,
,60b9585537f22407ad740a00,001,2022-04-29_02h12.52.155,classification_task,2021.2.3,Win32,60.0528465,60b9585537f22407ad740a00,626b377229c10585ec392f8a,626b3b3bafb8708d5b6e8d9e,,,,,,,,,,,,,,,,,,,,,,,l,1,1.9657,"[""0.095"",""0.384"",""0.544"",""0.748""]","[1,1,1,0]",0,50,50,50,1,1,1,,,0,FALSE,,,,,,,,,,,,,,,,,,,,,,,,,,,,,,
,60b9585537f22407ad740a00,001,2022-04-29_02h12.52.155,classification_task,2021.2.3,Win32,60.0528465,60b9585537f22407ad740a00,626b377229c10585ec392f8a,626b3b3bafb8708d5b6e8d9e,,,,,,,,,,,,,,,,,,,,,,,l,1,2.575,"[""0.035"",""0.249"",""0.633"",""0.150""]","[1,1,1,0]",0,51,51,51,1,1,0,,,0,FALSE,,,,,,,,,,,,,,,,,,,,,,,,,,,,,,
,60b9585537f22407ad740a00,001,2022-04-29_02h12.52.155,classification_task,2021.2.3,Win32,60.0528465,60b9585537f22407ad740a00,626b377229c10585ec392f8a,626b3b3bafb8708d5b6e8d9e,,,,,,,,,,,,,,,,,,,,,,,a,1,1.8943,"[""0.190"",""0.443"",""0.582"",""0.351""]","[1,1,1,0]",0,52,52,52,1,0,1,,,0,FALSE,,,,,,,,,,,,,,,,,,,,,,,,,,,,,,
,60b9585537f22407ad740a00,001,2022-04-29_02h12.52.155,classification_task,2021.2.3,Win32,60.0528465,60b9585537f22407ad740a00,626b377229c10585ec392f8a,626b3b3bafb8708d5b6e8d9e,,,,,,,,,,,,,,,,,,,,,,,a,1,2.5618,"[""0.773"",""0.484"",""0.854"",""0.927""]","[0,1,1,1]",0,53,53,53,1,0,0,,,0,FALSE,,,,,,,,,,,,,,,,,,,,,,,,,,,,,,
,60b9585537f22407ad740a00,001,2022-04-29_02h12.52.155,classification_task,2021.2.3,Win32,60.0528465,60b9585537f22407ad740a00,626b377229c10585ec392f8a,626b3b3bafb8708d5b6e8d9e,,,,,,,,,,,,,,,,,,,,,,,a,1,1.9546,"[""0.314"",""0.773"",""0.854"",""0.927""]","[1,0,1,1]",0,54,54,54,1,0,0,,,0,FALSE,,,,,,,,,,,,,,,,,,,,,,,,,,,,,,
,60b9585537f22407ad740a00,001,2022-04-29_02h12.52.155,classification_task,2021.2.3,Win32,60.0528465,60b9585537f22407ad740a00,626b377229c10585ec392f8a,626b3b3bafb8708d5b6e8d9e,,,,,,,,,,,,,,,,,,,,,,,a,1,1.9071,"[""0.756"",""0.443"",""0.582"",""0.891""]","[0,1,1,1]",0,55,55,55,1,0,1,,,0,FALSE,,,,,,,,,,,,,,,,,,,,,,,,,,,,,,
,60b9585537f22407ad740a00,001,2022-04-29_02h12.52.155,classification_task,2021.2.3,Win32,60.0528465,60b9585537f22407ad740a00,626b377229c10585ec392f8a,626b3b3bafb8708d5b6e8d9e,,,,,,,,,,,,,,,,,,,,,,,a,1,1.7968,"[""0.190"",""0.443"",""0.746"",""0.891""]","[1,1,0,1]",0,56,56,56,1,0,1,,,0,FALSE,,,,,,,,,,,,,,,,,,,,,,,,,,,,,,
,60b9585537f22407ad740a00,001,2022-04-29_02h12.52.155,classification_task,2021.2.3,Win32,60.0528465,60b9585537f22407ad740a00,626b377229c10585ec392f8a,626b3b3bafb8708d5b6e8d9e,,,,,,,,,,,,,,,,,,,,,,,l,1,1.4489,"[""0.095"",""0.384"",""0.152"",""0.701""]","[1,1,0,1]",0,57,57,57,1,1,1,,,0,FALSE,,,,,,,,,,,,,,,,,,,,,,,,,,,,,,
,60b9585537f22407ad740a00,001,2022-04-29_02h12.52.155,classification_task,2021.2.3,Win32,60.0528465,60b9585537f22407ad740a00,626b377229c10585ec392f8a,626b3b3bafb8708d5b6e8d9e,,,,,,,,,,,,,,,,,,,,,,,l,1,1.0678,"[""0.095"",""0.756"",""0.544"",""0.701""]","[1,0,1,1]",0,58,58,58,1,1,1,,,0,FALSE,,,,,,,,,,,,,,,,,,,,,,,,,,,,,,
,60b9585537f22407ad740a00,001,2022-04-29_02h12.52.155,classification_task,2021.2.3,Win32,60.0528465,60b9585537f22407ad740a00,626b377229c10585ec392f8a,626b3b3bafb8708d5b6e8d9e,,,,,,,,,,,,,,,,,,,,,,,l,1,1.4299,"[""0.035"",""0.249"",""0.145"",""0.810""]","[1,1,0,1]",0,59,59,59,1,1,0,,,0,FALSE,,,,,,,,,,,,,,,,,,,,,,,,,,,,,,
,60b9585537f22407ad740a00,001,2022-04-29_02h12.52.155,classification_task,2021.2.3,Win32,60.0528465,60b9585537f22407ad740a00,626b377229c10585ec392f8a,626b3b3bafb8708d5b6e8d9e,,,,,,,,,,,,,,,,,,,,,,,a,1,1.7473,"[""0.314"",""0.484"",""0.854"",""0.130""]","[1,1,1,0]",0,60,60,60,1,0,0,,,0,FALSE,,,,,,,,,,,,,,,,,,,,,,,,,,,,,,
,60b9585537f22407ad740a00,001,2022-04-29_02h12.52.155,classification_task,2021.2.3,Win32,60.0528465,60b9585537f22407ad740a00,626b377229c10585ec392f8a,626b3b3bafb8708d5b6e8d9e,,,,,,,,,,,,,,,,,,,,,,,a,0,1.8471,"[""0.748"",""0.249"",""0.633"",""0.810""]","[0,1,1,1]",0,61,61,61,1,1,0,,,0,FALSE,,,,,,,,,,,,,,,,,,,,,,,,,,,,,,
,60b9585537f22407ad740a00,001,2022-04-29_02h12.52.155,classification_task,2021.2.3,Win32,60.0528465,60b9585537f22407ad740a00,626b377229c10585ec392f8a,626b3b3bafb8708d5b6e8d9e,,,,,,,,,,,,,,,,,,,,,,,l,1,2.9121,"[""0.756"",""0.384"",""0.544"",""0.701""]","[0,1,1,1]",0,62,62,62,1,1,1,,,0,FALSE,,,,,,,,,,,,,,,,,,,,,,,,,,,,,,
,60b9585537f22407ad740a00,001,2022-04-29_02h12.52.155,classification_task,2021.2.3,Win32,60.0528465,60b9585537f22407ad740a00,626b377229c10585ec392f8a,626b3b3bafb8708d5b6e8d9e,,,,,,,,,,,,,,,,,,,,,,,l,0,2.5582,"[""0.314"",""0.484"",""0.152"",""0.927""]","[1,1,0,1]",0,63,63,63,1,0,0,,,0,FALSE,,,,,,,,,,,,,,,,,,,,,,,,,,,,,,
,60b9585537f22407ad740a00,001,2022-04-29_02h12.52.155,classification_task,2021.2.3,Win32,60.0528465,60b9585537f22407ad740a00,626b377229c10585ec392f8a,626b3b3bafb8708d5b6e8d9e,,,,,,,,,,,,,,,,,,,,,,,,,,,,,,,,,,,,,,,0, ,,0,2.158534943,243.0729,0,1,1,1,1,2,2,,,,,,,,,,,,,,,,,
,60b9585537f22407ad740a00,001,2022-04-29_02h12.52.155,classification_task,2021.2.3,Win32,60.0528465,60b9585537f22407ad740a00,626b377229c10585ec392f8a,626b3b3bafb8708d5b6e8d9e,,,,,,,,,,,,,,,,,,,,,,,,,,,,,,,,,,,,,,,1,  ,,0,1.668627793,246.1358,0,1,1,1,1,2,2,,,,,,,,,,,,,,,,,
,60b9585537f22407ad740a00,001,2022-04-29_02h12.52.155,classification_task,2021.2.3,Win32,60.0528465,60b9585537f22407ad740a00,626b377229c10585ec392f8a,626b3b3bafb8708d5b6e8d9e,,,,,,,,,,,,,,,,,,,,,,,,,,,,,,,,,,,,,,,2,  ,,0,0.345876471,249.7683,0,1,1,1,1,2,2,,,,,,,,,,,,,,,,,
,60b9585537f22407ad740a00,001,2022-04-29_02h12.52.155,classification_task,2021.2.3,Win32,60.0528465,60b9585537f22407ad740a00,626b377229c10585ec392f8a,626b3b3bafb8708d5b6e8d9e,,,,,,,,,,,,,,,,,,,,,,,,,,,,,,,,,,,,,,,,,,,,,0,1,1,1,1,,2,,,,,,,,,,,,,,,,,
,60b9585537f22407ad740a00,001,2022-04-29_02h12.52.155,classification_task,2021.2.3,Win32,60.0528465,60b9585537f22407ad740a00,626b377229c10585ec392f8a,626b3b3bafb8708d5b6e8d9e,,,,,,,,,,,,,,,,,,,,,space,6.6539,l,1,2.5908,"[""0.035"",""0.152"",""0.633"",""0.810""]","[1,0,1,1]",0,0,0,0,1,1,0,,,0,FALSE,,,,,,,,,,,,,,,,,,,,,,,,,,,,,,
,60b9585537f22407ad740a00,001,2022-04-29_02h12.52.155,classification_task,2021.2.3,Win32,60.0528465,60b9585537f22407ad740a00,626b377229c10585ec392f8a,626b3b3bafb8708d5b6e8d9e,,,,,,,,,,,,,,,,,,,,,,,l,1,2.1996,"[""0.152"",""0.384"",""0.544"",""0.701""]","[0,1,1,1]",0,1,1,1,1,1,1,,,0,FALSE,,,,,,,,,,,,,,,,,,,,,,,,,,,,,,
,60b9585537f22407ad740a00,001,2022-04-29_02h12.52.155,classification_task,2021.2.3,Win32,60.0528465,60b9585537f22407ad740a00,626b377229c10585ec392f8a,626b3b3bafb8708d5b6e8d9e,,,,,,,,,,,,,,,,,,,,,,,l,1,2.1703,"[""0.095"",""0.384"",""0.746"",""0.701""]","[1,1,0,1]",0,2,2,2,1,1,1,,,0,FALSE,,,,,,,,,,,,,,,,,,,,,,,,,,,,,,
,60b9585537f22407ad740a00,001,2022-04-29_02h12.52.155,classification_task,2021.2.3,Win32,60.0528465,60b9585537f22407ad740a00,626b377229c10585ec392f8a,626b3b3bafb8708d5b6e8d9e,,,,,,,,,,,,,,,,,,,,,,,a,1,1.9537,"[""0.190"",""0.443"",""0.766"",""0.891""]","[1,1,0,1]",0,3,3,3,1,0,1,,,0,FALSE,,,,,,,,,,,,,,,,,,,,,,,,,,,,,,
,60b9585537f22407ad740a00,001,2022-04-29_02h12.52.155,classification_task,2021.2.3,Win32,60.0528465,60b9585537f22407ad740a00,626b377229c10585ec392f8a,626b3b3bafb8708d5b6e8d9e,,,,,,,,,,,,,,,,,,,,,,,a,1,1.3639,"[""0.747"",""0.443"",""0.582"",""0.891""]","[0,1,1,1]",0,4,4,4,1,0,1,,,0,FALSE,,,,,,,,,,,,,,,,,,,,,,,,,,,,,,
,60b9585537f22407ad740a00,001,2022-04-29_02h12.52.155,classification_task,2021.2.3,Win32,60.0528465,60b9585537f22407ad740a00,626b377229c10585ec392f8a,626b3b3bafb8708d5b6e8d9e,,,,,,,,,,,,,,,,,,,,,,,l,1,1.282,"[""0.095"",""0.384"",""0.544"",""0.143""]","[1,1,1,0]",0,5,5,5,1,1,1,,,0,FALSE,,,,,,,,,,,,,,,,,,,,,,,,,,,,,,
,60b9585537f22407ad740a00,001,2022-04-29_02h12.52.155,classification_task,2021.2.3,Win32,60.0528465,60b9585537f22407ad740a00,626b377229c10585ec392f8a,626b3b3bafb8708d5b6e8d9e,,,,,,,,,,,,,,,,,,,,,,,a,1,3.2135,"[""0.314"",""0.773"",""0.854"",""0.927""]","[1,0,1,1]",0,6,6,6,1,0,0,,,0,FALSE,,,,,,,,,,,,,,,,,,,,,,,,,,,,,,
,60b9585537f22407ad740a00,001,2022-04-29_02h12.52.155,classification_task,2021.2.3,Win32,60.0528465,60b9585537f22407ad740a00,626b377229c10585ec392f8a,626b3b3bafb8708d5b6e8d9e,,,,,,,,,,,,,,,,,,,,,,,l,1,1.337,"[""0.035"",""0.249"",""0.756"",""0.810""]","[1,1,0,1]",0,7,7,7,1,1,0,,,0,FALSE,,,,,,,,,,,,,,,,,,,,,,,,,,,,,,
,60b9585537f22407ad740a00,001,2022-04-29_02h12.52.155,classification_task,2021.2.3,Win32,60.0528465,60b9585537f22407ad740a00,626b377229c10585ec392f8a,626b3b3bafb8708d5b6e8d9e,,,,,,,,,,,,,,,,,,,,,,,a,1,2.0866,"[""0.190"",""0.756"",""0.582"",""0.891""]","[1,0,1,1]",0,8,8,8,1,0,1,,,0,FALSE,,,,,,,,,,,,,,,,,,,,,,,,,,,,,,
,60b9585537f22407ad740a00,001,2022-04-29_02h12.52.155,classification_task,2021.2.3,Win32,60.0528465,60b9585537f22407ad740a00,626b377229c10585ec392f8a,626b3b3bafb8708d5b6e8d9e,,,,,,,,,,,,,,,,,,,,,,,l,1,1.0644,"[""0.035"",""0.249"",""0.633"",""0.130""]","[1,1,1,0]",0,9,9,9,1,1,0,,,0,FALSE,,,,,,,,,,,,,,,,,,,,,,,,,,,,,,
,60b9585537f22407ad740a00,001,2022-04-29_02h12.52.155,classification_task,2021.2.3,Win32,60.0528465,60b9585537f22407ad740a00,626b377229c10585ec392f8a,626b3b3bafb8708d5b6e8d9e,,,,,,,,,,,,,,,,,,,,,,,l,1,0.9979,"[""0.095"",""0.130"",""0.544"",""0.701""]","[1,0,1,1]",0,10,10,10,1,1,1,,,0,FALSE,,,,,,,,,,,,,,,,,,,,,,,,,,,,,,
,60b9585537f22407ad740a00,001,2022-04-29_02h12.52.155,classification_task,2021.2.3,Win32,60.0528465,60b9585537f22407ad740a00,626b377229c10585ec392f8a,626b3b3bafb8708d5b6e8d9e,,,,,,,,,,,,,,,,,,,,,,,a,1,1.531,"[""0.314"",""0.484"",""0.854"",""0.773""]","[1,1,1,0]",0,11,11,11,1,0,0,,,0,FALSE,,,,,,,,,,,,,,,,,,,,,,,,,,,,,,
,60b9585537f22407ad740a00,001,2022-04-29_02h12.52.155,classification_task,2021.2.3,Win32,60.0528465,60b9585537f22407ad740a00,626b377229c10585ec392f8a,626b3b3bafb8708d5b6e8d9e,,,,,,,,,,,,,,,,,,,,,,,l,1,2.1867,"[""0.747"",""0.249"",""0.633"",""0.810""]","[0,1,1,1]",0,12,12,12,1,1,0,,,0,FALSE,,,,,,,,,,,,,,,,,,,,,,,,,,,,,,
,60b9585537f22407ad740a00,001,2022-04-29_02h12.52.155,classification_task,2021.2.3,Win32,60.0528465,60b9585537f22407ad740a00,626b377229c10585ec392f8a,626b3b3bafb8708d5b6e8d9e,,,,,,,,,,,,,,,,,,,,,,,l,0,3.2941,"[""0.145"",""0.484"",""0.854"",""0.927""]","[0,1,1,1]",0,13,13,13,1,0,0,,,0,FALSE,,,,,,,,,,,,,,,,,,,,,,,,,,,,,,
,60b9585537f22407ad740a00,001,2022-04-29_02h12.52.155,classification_task,2021.2.3,Win32,60.0528465,60b9585537f22407ad740a00,626b377229c10585ec392f8a,626b3b3bafb8708d5b6e8d9e,,,,,,,,,,,,,,,,,,,,,,,a,1,2.9698,"[""0.314"",""0.484"",""0.756"",""0.927""]","[1,1,0,1]",0,14,14,14,1,0,0,,,0,FALSE,,,,,,,,,,,,,,,,,,,,,,,,,,,,,,
,60b9585537f22407ad740a00,001,2022-04-29_02h12.52.155,classification_task,2021.2.3,Win32,60.0528465,60b9585537f22407ad740a00,626b377229c10585ec392f8a,626b3b3bafb8708d5b6e8d9e,,,,,,,,,,,,,,,,,,,,,,,a,1,1.8405,"[""0.190"",""0.443"",""0.582"",""0.766""]","[1,1,1,0]",0,15,15,15,1,0,1,,,0,FALSE,,,,,,,,,,,,,,,,,,,,,,,,,,,,,,
,60b9585537f22407ad740a00,001,2022-04-29_02h12.52.155,classification_task,2021.2.3,Win32,60.0528465,60b9585537f22407ad740a00,626b377229c10585ec392f8a,626b3b3bafb8708d5b6e8d9e,,,,,,,,,,,,,,,,,,,,,,,a,1,2.918,"[""0.190"",""0.443"",""0.582"",""0.143""]","[1,1,1,0]",0,16,16,16,1,0,1,,,0,FALSE,,,,,,,,,,,,,,,,,,,,,,,,,,,,,,
,60b9585537f22407ad740a00,001,2022-04-29_02h12.52.155,classification_task,2021.2.3,Win32,60.0528465,60b9585537f22407ad740a00,626b377229c10585ec392f8a,626b3b3bafb8708d5b6e8d9e,,,,,,,,,,,,,,,,,,,,,,,l,1,0.9568,"[""0.095"",""0.384"",""0.773"",""0.701""]","[1,1,0,1]",0,17,17,17,1,1,1,,,0,FALSE,,,,,,,,,,,,,,,,,,,,,,,,,,,,,,
,60b9585537f22407ad740a00,001,2022-04-29_02h12.52.155,classification_task,2021.2.3,Win32,60.0528465,60b9585537f22407ad740a00,626b377229c10585ec392f8a,626b3b3bafb8708d5b6e8d9e,,,,,,,,,,,,,,,,,,,,,,,l,1,2.8644,"[""0.351"",""0.249"",""0.633"",""0.810""]","[0,1,1,1]",0,18,18,18,1,1,0,,,0,FALSE,,,,,,,,,,,,,,,,,,,,,,,,,,,,,,
,60b9585537f22407ad740a00,001,2022-04-29_02h12.52.155,classification_task,2021.2.3,Win32,60.0528465,60b9585537f22407ad740a00,626b377229c10585ec392f8a,626b3b3bafb8708d5b6e8d9e,,,,,,,,,,,,,,,,,,,,,,,l,0,2.7686,"[""0.314"",""0.484"",""0.130"",""0.927""]","[1,1,0,1]",0,19,19,19,1,0,0,,,0,FALSE,,,,,,,,,,,,,,,,,,,,,,,,,,,,,,
,60b9585537f22407ad740a00,001,2022-04-29_02h12.52.155,classification_task,2021.2.3,Win32,60.0528465,60b9585537f22407ad740a00,626b377229c10585ec392f8a,626b3b3bafb8708d5b6e8d9e,,,,,,,,,,,,,,,,,,,,,,,l,1,1.1345,"[""0.095"",""0.746"",""0.544"",""0.701""]","[1,0,1,1]",0,20,20,20,1,1,1,,,0,FALSE,,,,,,,,,,,,,,,,,,,,,,,,,,,,,,
,60b9585537f22407ad740a00,001,2022-04-29_02h12.52.155,classification_task,2021.2.3,Win32,60.0528465,60b9585537f22407ad740a00,626b377229c10585ec392f8a,626b3b3bafb8708d5b6e8d9e,,,,,,,,,,,,,,,,,,,,,,,l,1,0.971,"[""0.095"",""0.384"",""0.544"",""0.747""]","[1,1,1,0]",0,21,21,21,1,1,1,,,0,FALSE,,,,,,,,,,,,,,,,,,,,,,,,,,,,,,
,60b9585537f22407ad740a00,001,2022-04-29_02h12.52.155,classification_task,2021.2.3,Win32,60.0528465,60b9585537f22407ad740a00,626b377229c10585ec392f8a,626b3b3bafb8708d5b6e8d9e,,,,,,,,,,,,,,,,,,,,,,,a,1,1.2307,"[""0.768"",""0.443"",""0.582"",""0.891""]","[0,1,1,1]",0,22,22,22,1,0,1,,,0,FALSE,,,,,,,,,,,,,,,,,,,,,,,,,,,,,,
,60b9585537f22407ad740a00,001,2022-04-29_02h12.52.155,classification_task,2021.2.3,Win32,60.0528465,60b9585537f22407ad740a00,626b377229c10585ec392f8a,626b3b3bafb8708d5b6e8d9e,,,,,,,,,,,,,,,,,,,,,,,l,1,0.9352,"[""0.035"",""0.249"",""0.633"",""0.145""]","[1,1,1,0]",0,23,23,23,1,1,0,,,0,FALSE,,,,,,,,,,,,,,,,,,,,,,,,,,,,,,
,60b9585537f22407ad740a00,001,2022-04-29_02h12.52.155,classification_task,2021.2.3,Win32,60.0528465,60b9585537f22407ad740a00,626b377229c10585ec392f8a,626b3b3bafb8708d5b6e8d9e,,,,,,,,,,,,,,,,,,,,,,,l,0,2.9622,"[""0.314"",""0.152"",""0.854"",""0.927""]","[1,0,1,1]",0,24,24,24,1,0,0,,,0,FALSE,,,,,,,,,,,,,,,,,,,,,,,,,,,,,,
,60b9585537f22407ad740a00,001,2022-04-29_02h12.52.155,classification_task,2021.2.3,Win32,60.0528465,60b9585537f22407ad740a00,626b377229c10585ec392f8a,626b3b3bafb8708d5b6e8d9e,,,,,,,,,,,,,,,,,,,,,,,a,1,1.5324,"[""0.190"",""0.443"",""0.152"",""0.891""]","[1,1,0,1]",0,25,25,25,1,0,1,,,0,FALSE,,,,,,,,,,,,,,,,,,,,,,,,,,,,,,
,60b9585537f22407ad740a00,001,2022-04-29_02h12.52.155,classification_task,2021.2.3,Win32,60.0528465,60b9585537f22407ad740a00,626b377229c10585ec392f8a,626b3b3bafb8708d5b6e8d9e,,,,,,,,,,,,,,,,,,,,,,,l,0,1.8655,"[""0.145"",""0.484"",""0.854"",""0.927""]","[0,1,1,1]",0,26,26,26,1,0,0,,,0,FALSE,,,,,,,,,,,,,,,,,,,,,,,,,,,,,,
,60b9585537f22407ad740a00,001,2022-04-29_02h12.52.155,classification_task,2021.2.3,Win32,60.0528465,60b9585537f22407ad740a00,626b377229c10585ec392f8a,626b3b3bafb8708d5b6e8d9e,,,,,,,,,,,,,,,,,,,,,,,a,1,2.3805,"[""0.190"",""0.756"",""0.582"",""0.891""]","[1,0,1,1]",0,27,27,27,1,0,1,,,0,FALSE,,,,,,,,,,,,,,,,,,,,,,,,,,,,,,
,60b9585537f22407ad740a00,001,2022-04-29_02h12.52.155,classification_task,2021.2.3,Win32,60.0528465,60b9585537f22407ad740a00,626b377229c10585ec392f8a,626b3b3bafb8708d5b6e8d9e,,,,,,,,,,,,,,,,,,,,,,,a,0,2.0322,"[""0.766"",""0.384"",""0.544"",""0.701""]","[0,1,1,1]",0,28,28,28,1,1,1,,,0,FALSE,,,,,,,,,,,,,,,,,,,,,,,,,,,,,,
,60b9585537f22407ad740a00,001,2022-04-29_02h12.52.155,classification_task,2021.2.3,Win32,60.0528465,60b9585537f22407ad740a00,626b377229c10585ec392f8a,626b3b3bafb8708d5b6e8d9e,,,,,,,,,,,,,,,,,,,,,,,l,1,0.8505,"[""0.035"",""0.249"",""0.351"",""0.810""]","[1,1,0,1]",0,29,29,29,1,1,0,,,0,FALSE,,,,,,,,,,,,,,,,,,,,,,,,,,,,,,
,60b9585537f22407ad740a00,001,2022-04-29_02h12.52.155,classification_task,2021.2.3,Win32,60.0528465,60b9585537f22407ad740a00,626b377229c10585ec392f8a,626b3b3bafb8708d5b6e8d9e,,,,,,,,,,,,,,,,,,,,,,,l,1,0.7488,"[""0.035"",""0.152"",""0.633"",""0.810""]","[1,0,1,1]",0,30,30,30,1,1,0,,,0,FALSE,,,,,,,,,,,,,,,,,,,,,,,,,,,,,,
,60b9585537f22407ad740a00,001,2022-04-29_02h12.52.155,classification_task,2021.2.3,Win32,60.0528465,60b9585537f22407ad740a00,626b377229c10585ec392f8a,626b3b3bafb8708d5b6e8d9e,,,,,,,,,,,,,,,,,,,,,,,a,1,1.748,"[""0.314"",""0.484"",""0.854"",""0.773""]","[1,1,1,0]",0,31,31,31,1,0,0,,,0,FALSE,,,,,,,,,,,,,,,,,,,,,,,,,,,,,,
,60b9585537f22407ad740a00,001,2022-04-29_02h12.52.155,classification_task,2021.2.3,Win32,60.0528465,60b9585537f22407ad740a00,626b377229c10585ec392f8a,626b3b3bafb8708d5b6e8d9e,,,,,,,,,,,,,,,,,,,,,,,l,0,1.9339,"[""0.314"",""0.484"",""0.854"",""0.149""]","[1,1,1,0]",0,32,32,32,1,0,0,,,0,FALSE,,,,,,,,,,,,,,,,,,,,,,,,,,,,,,
,60b9585537f22407ad740a00,001,2022-04-29_02h12.52.155,classification_task,2021.2.3,Win32,60.0528465,60b9585537f22407ad740a00,626b377229c10585ec392f8a,626b3b3bafb8708d5b6e8d9e,,,,,,,,,,,,,,,,,,,,,,,l,1,0.9794,"[""0.035"",""0.249"",""0.740"",""0.810""]","[1,1,0,1]",0,33,33,33,1,1,0,,,0,FALSE,,,,,,,,,,,,,,,,,,,,,,,,,,,,,,
,60b9585537f22407ad740a00,001,2022-04-29_02h12.52.155,classification_task,2021.2.3,Win32,60.0528465,60b9585537f22407ad740a00,626b377229c10585ec392f8a,626b3b3bafb8708d5b6e8d9e,,,,,,,,,,,,,,,,,,,,,,,l,1,1.0129,"[""0.095"",""0.773"",""0.544"",""0.701""]","[1,0,1,1]",0,34,34,34,1,1,1,,,0,FALSE,,,,,,,,,,,,,,,,,,,,,,,,,,,,,,
,60b9585537f22407ad740a00,001,2022-04-29_02h12.52.155,classification_task,2021.2.3,Win32,60.0528465,60b9585537f22407ad740a00,626b377229c10585ec392f8a,626b3b3bafb8708d5b6e8d9e,,,,,,,,,,,,,,,,,,,,,,,l,1,1.6958,"[""0.149"",""0.249"",""0.633"",""0.810""]","[0,1,1,1]",0,35,35,35,1,1,0,,,0,FALSE,,,,,,,,,,,,,,,,,,,,,,,,,,,,,,
,60b9585537f22407ad740a00,001,2022-04-29_02h12.52.155,classification_task,2021.2.3,Win32,60.0528465,60b9585537f22407ad740a00,626b377229c10585ec392f8a,626b3b3bafb8708d5b6e8d9e,,,,,,,,,,,,,,,,,,,,,,,l,1,1.4796,"[""0.095"",""0.384"",""0.544"",""0.130""]","[1,1,1,0]",0,36,36,36,1,1,1,,,0,FALSE,,,,,,,,,,,,,,,,,,,,,,,,,,,,,,
,60b9585537f22407ad740a00,001,2022-04-29_02h12.52.155,classification_task,2021.2.3,Win32,60.0528465,60b9585537f22407ad740a00,626b377229c10585ec392f8a,626b3b3bafb8708d5b6e8d9e,,,,,,,,,,,,,,,,,,,,,,,a,1,1.6315,"[""0.190"",""0.766"",""0.582"",""0.891""]","[1,0,1,1]",0,37,37,37,1,0,1,,,0,FALSE,,,,,,,,,,,,,,,,,,,,,,,,,,,,,,
,60b9585537f22407ad740a00,001,2022-04-29_02h12.52.155,classification_task,2021.2.3,Win32,60.0528465,60b9585537f22407ad740a00,626b377229c10585ec392f8a,626b3b3bafb8708d5b6e8d9e,,,,,,,,,,,,,,,,,,,,,,,l,0,1.7472,"[""0.143"",""0.484"",""0.854"",""0.927""]","[0,1,1,1]",0,38,38,38,1,0,0,,,0,FALSE,,,,,,,,,,,,,,,,,,,,,,,,,,,,,,
,60b9585537f22407ad740a00,001,2022-04-29_02h12.52.155,classification_task,2021.2.3,Win32,60.0528465,60b9585537f22407ad740a00,626b377229c10585ec392f8a,626b3b3bafb8708d5b6e8d9e,,,,,,,,,,,,,,,,,,,,,,,l,1,1.1309,"[""0.035"",""0.746"",""0.633"",""0.810""]","[1,0,1,1]",0,39,39,39,1,1,0,,,0,FALSE,,,,,,,,,,,,,,,,,,,,,,,,,,,,,,
,60b9585537f22407ad740a00,001,2022-04-29_02h12.52.155,classification_task,2021.2.3,Win32,60.0528465,60b9585537f22407ad740a00,626b377229c10585ec392f8a,626b3b3bafb8708d5b6e8d9e,,,,,,,,,,,,,,,,,,,,,,,l,0,1.9334,"[""0.190"",""0.443"",""0.582"",""0.746""]","[1,1,1,0]",0,40,40,40,1,0,1,,,0,FALSE,,,,,,,,,,,,,,,,,,,,,,,,,,,,,,
,60b9585537f22407ad740a00,001,2022-04-29_02h12.52.155,classification_task,2021.2.3,Win32,60.0528465,60b9585537f22407ad740a00,626b377229c10585ec392f8a,626b3b3bafb8708d5b6e8d9e,,,,,,,,,,,,,,,,,,,,,,,l,1,0.7811,"[""0.035"",""0.249"",""0.633"",""0.756""]","[1,1,1,0]",0,41,41,41,1,1,0,,,0,FALSE,,,,,,,,,,,,,,,,,,,,,,,,,,,,,,
,60b9585537f22407ad740a00,001,2022-04-29_02h12.52.155,classification_task,2021.2.3,Win32,60.0528465,60b9585537f22407ad740a00,626b377229c10585ec392f8a,626b3b3bafb8708d5b6e8d9e,,,,,,,,,,,,,,,,,,,,,,,a,1,1.1161,"[""0.190"",""0.443"",""0.143"",""0.891""]","[1,1,0,1]",0,42,42,42,1,0,1,,,0,FALSE,,,,,,,,,,,,,,,,,,,,,,,,,,,,,,
,60b9585537f22407ad740a00,001,2022-04-29_02h12.52.155,classification_task,2021.2.3,Win32,60.0528465,60b9585537f22407ad740a00,626b377229c10585ec392f8a,626b3b3bafb8708d5b6e8d9e,,,,,,,,,,,,,,,,,,,,,,,a,1,1.363,"[""0.740"",""0.443"",""0.582"",""0.891""]","[0,1,1,1]",0,43,43,43,1,0,1,,,0,FALSE,,,,,,,,,,,,,,,,,,,,,,,,,,,,,,
,60b9585537f22407ad740a00,001,2022-04-29_02h12.52.155,classification_task,2021.2.3,Win32,60.0528465,60b9585537f22407ad740a00,626b377229c10585ec392f8a,626b3b3bafb8708d5b6e8d9e,,,,,,,,,,,,,,,,,,,,,,,a,0,3.0244,"[""0.766"",""0.384"",""0.544"",""0.701""]","[0,1,1,1]",0,44,44,44,1,1,1,,,0,FALSE,,,,,,,,,,,,,,,,,,,,,,,,,,,,,,
,60b9585537f22407ad740a00,001,2022-04-29_02h12.52.155,classification_task,2021.2.3,Win32,60.0528465,60b9585537f22407ad740a00,626b377229c10585ec392f8a,626b3b3bafb8708d5b6e8d9e,,,,,,,,,,,,,,,,,,,,,,,l,1,0.8013,"[""0.095"",""0.384"",""0.756"",""0.701""]","[1,1,0,1]",0,45,45,45,1,1,1,,,0,FALSE,,,,,,,,,,,,,,,,,,,,,,,,,,,,,,
,60b9585537f22407ad740a00,001,2022-04-29_02h12.52.155,classification_task,2021.2.3,Win32,60.0528465,60b9585537f22407ad740a00,626b377229c10585ec392f8a,626b3b3bafb8708d5b6e8d9e,,,,,,,,,,,,,,,,,,,,,,,a,1,2.7632,"[""0.314"",""0.766"",""0.854"",""0.927""]","[1,0,1,1]",0,46,46,46,1,0,0,,,0,FALSE,,,,,,,,,,,,,,,,,,,,,,,,,,,,,,
,60b9585537f22407ad740a00,001,2022-04-29_02h12.52.155,classification_task,2021.2.3,Win32,60.0528465,60b9585537f22407ad740a00,626b377229c10585ec392f8a,626b3b3bafb8708d5b6e8d9e,,,,,,,,,,,,,,,,,,,,,,,a,1,2.2984,"[""0.314"",""0.484"",""0.766"",""0.927""]","[1,1,0,1]",0,47,47,47,1,0,0,,,0,FALSE,,,,,,,,,,,,,,,,,,,,,,,,,,,,,,
,60b9585537f22407ad740a00,001,2022-04-29_02h12.52.155,classification_task,2021.2.3,Win32,60.0528465,60b9585537f22407ad740a00,626b377229c10585ec392f8a,626b3b3bafb8708d5b6e8d9e,,,,,,,,,,,,,,,,,,,,,,,l,0,2.3844,"[""0.314"",""0.484"",""0.756"",""0.927""]","[1,1,0,1]",0,48,48,48,1,0,0,,,0,FALSE,,,,,,,,,,,,,,,,,,,,,,,,,,,,,,
,60b9585537f22407ad740a00,001,2022-04-29_02h12.52.155,classification_task,2021.2.3,Win32,60.0528465,60b9585537f22407ad740a00,626b377229c10585ec392f8a,626b3b3bafb8708d5b6e8d9e,,,,,,,,,,,,,,,,,,,,,,,l,1,0.9495,"[""0.095"",""0.384"",""0.544"",""0.773""]","[1,1,1,0]",0,49,49,49,1,1,1,,,0,FALSE,,,,,,,,,,,,,,,,,,,,,,,,,,,,,,
,60b9585537f22407ad740a00,001,2022-04-29_02h12.52.155,classification_task,2021.2.3,Win32,60.0528465,60b9585537f22407ad740a00,626b377229c10585ec392f8a,626b3b3bafb8708d5b6e8d9e,,,,,,,,,,,,,,,,,,,,,,,a,1,1.0492,"[""0.190"",""0.149"",""0.582"",""0.891""]","[1,0,1,1]",0,50,50,50,1,0,1,,,0,FALSE,,,,,,,,,,,,,,,,,,,,,,,,,,,,,,
,60b9585537f22407ad740a00,001,2022-04-29_02h12.52.155,classification_task,2021.2.3,Win32,60.0528465,60b9585537f22407ad740a00,626b377229c10585ec392f8a,626b3b3bafb8708d5b6e8d9e,,,,,,,,,,,,,,,,,,,,,,,l,1,0.9484,"[""0.095"",""0.773"",""0.544"",""0.701""]","[1,0,1,1]",0,51,51,51,1,1,1,,,0,FALSE,,,,,,,,,,,,,,,,,,,,,,,,,,,,,,
,60b9585537f22407ad740a00,001,2022-04-29_02h12.52.155,classification_task,2021.2.3,Win32,60.0528465,60b9585537f22407ad740a00,626b377229c10585ec392f8a,626b3b3bafb8708d5b6e8d9e,,,,,,,,,,,,,,,,,,,,,,,a,1,1.2137,"[""0.190"",""0.443"",""0.582"",""0.152""]","[1,1,1,0]",0,52,52,52,1,0,1,,,0,FALSE,,,,,,,,,,,,,,,,,,,,,,,,,,,,,,
,60b9585537f22407ad740a00,001,2022-04-29_02h12.52.155,classification_task,2021.2.3,Win32,60.0528465,60b9585537f22407ad740a00,626b377229c10585ec392f8a,626b3b3bafb8708d5b6e8d9e,,,,,,,,,,,,,,,,,,,,,,,l,1,0.8309,"[""0.035"",""0.249"",""0.143"",""0.810""]","[1,1,0,1]",0,53,53,53,1,1,0,,,0,FALSE,,,,,,,,,,,,,,,,,,,,,,,,,,,,,,
,60b9585537f22407ad740a00,001,2022-04-29_02h12.52.155,classification_task,2021.2.3,Win32,60.0528465,60b9585537f22407ad740a00,626b377229c10585ec392f8a,626b3b3bafb8708d5b6e8d9e,,,,,,,,,,,,,,,,,,,,,,,l,1,2.0108,"[""0.740"",""0.249"",""0.633"",""0.810""]","[0,1,1,1]",0,54,54,54,1,1,0,,,0,FALSE,,,,,,,,,,,,,,,,,,,,,,,,,,,,,,
,60b9585537f22407ad740a00,001,2022-04-29_02h12.52.155,classification_task,2021.2.3,Win32,60.0528465,60b9585537f22407ad740a00,626b377229c10585ec392f8a,626b3b3bafb8708d5b6e8d9e,,,,,,,,,,,,,,,,,,,,,,,l,0,1.7808,"[""0.756"",""0.484"",""0.854"",""0.927""]","[0,1,1,1]",0,55,55,55,1,0,0,,,0,FALSE,,,,,,,,,,,,,,,,,,,,,,,,,,,,,,
,60b9585537f22407ad740a00,001,2022-04-29_02h12.52.155,classification_task,2021.2.3,Win32,60.0528465,60b9585537f22407ad740a00,626b377229c10585ec392f8a,626b3b3bafb8708d5b6e8d9e,,,,,,,,,,,,,,,,,,,,,,,a,0,0.8167,"[""0.035"",""0.747"",""0.633"",""0.810""]","[1,0,1,1]",0,56,56,56,1,1,0,,,0,FALSE,,,,,,,,,,,,,,,,,,,,,,,,,,,,,,
,60b9585537f22407ad740a00,001,2022-04-29_02h12.52.155,classification_task,2021.2.3,Win32,60.0528465,60b9585537f22407ad740a00,626b377229c10585ec392f8a,626b3b3bafb8708d5b6e8d9e,,,,,,,,,,,,,,,,,,,,,,,l,1,0.8309,"[""0.035"",""0.249"",""0.633"",""0.756""]","[1,1,1,0]",0,57,57,57,1,1,0,,,0,FALSE,,,,,,,,,,,,,,,,,,,,,,,,,,,,,,
,60b9585537f22407ad740a00,001,2022-04-29_02h12.52.155,classification_task,2021.2.3,Win32,60.0528465,60b9585537f22407ad740a00,626b377229c10585ec392f8a,626b3b3bafb8708d5b6e8d9e,,,,,,,,,,,,,,,,,,,,,,,a,1,2.1133,"[""0.150"",""0.443"",""0.582"",""0.891""]","[0,1,1,1]",0,58,58,58,1,0,1,,,0,FALSE,,,,,,,,,,,,,,,,,,,,,,,,,,,,,,
,60b9585537f22407ad740a00,001,2022-04-29_02h12.52.155,classification_task,2021.2.3,Win32,60.0528465,60b9585537f22407ad740a00,626b377229c10585ec392f8a,626b3b3bafb8708d5b6e8d9e,,,,,,,,,,,,,,,,,,,,,,,a,1,3.4632,"[""0.314"",""0.484"",""0.854"",""0.768""]","[1,1,1,0]",0,59,59,59,1,0,0,,,0,FALSE,,,,,,,,,,,,,,,,,,,,,,,,,,,,,,
,60b9585537f22407ad740a00,001,2022-04-29_02h12.52.155,classification_task,2021.2.3,Win32,60.0528465,60b9585537f22407ad740a00,626b377229c10585ec392f8a,626b3b3bafb8708d5b6e8d9e,,,,,,,,,,,,,,,,,,,,,,,l,1,1.1843,"[""0.095"",""0.384"",""0.143"",""0.701""]","[1,1,0,1]",0,60,60,60,1,1,1,,,0,FALSE,,,,,,,,,,,,,,,,,,,,,,,,,,,,,,
,60b9585537f22407ad740a00,001,2022-04-29_02h12.52.155,classification_task,2021.2.3,Win32,60.0528465,60b9585537f22407ad740a00,626b377229c10585ec392f8a,626b3b3bafb8708d5b6e8d9e,,,,,,,,,,,,,,,,,,,,,,,a,1,1.0473,"[""0.190"",""0.443"",""0.143"",""0.891""]","[1,1,0,1]",0,61,61,61,1,0,1,,,0,FALSE,,,,,,,,,,,,,,,,,,,,,,,,,,,,,,
,60b9585537f22407ad740a00,001,2022-04-29_02h12.52.155,classification_task,2021.2.3,Win32,60.0528465,60b9585537f22407ad740a00,626b377229c10585ec392f8a,626b3b3bafb8708d5b6e8d9e,,,,,,,,,,,,,,,,,,,,,,,a,0,2.2284,"[""0.773"",""0.384"",""0.544"",""0.701""]","[0,1,1,1]",0,62,62,62,1,1,1,,,0,FALSE,,,,,,,,,,,,,,,,,,,,,,,,,,,,,,
,60b9585537f22407ad740a00,001,2022-04-29_02h12.52.155,classification_task,2021.2.3,Win32,60.0528465,60b9585537f22407ad740a00,626b377229c10585ec392f8a,626b3b3bafb8708d5b6e8d9e,,,,,,,,,,,,,,,,,,,,,,,a,1,2.1319,"[""0.314"",""0.768"",""0.854"",""0.927""]","[1,0,1,1]",0,63,63,63,1,0,0,,,0,FALSE,,,,,,,,,,,,,,,,,,,,,,,,,,,,,,
,60b9585537f22407ad740a00,001,2022-04-29_02h12.52.155,classification_task,2021.2.3,Win32,60.0528465,60b9585537f22407ad740a00,626b377229c10585ec392f8a,626b3b3bafb8708d5b6e8d9e,,,,,,,,,,,,,,,,,,,,,,,,,,,,,,,,,,,,,,,0, ,,0,4.118165785,187.7135,0,2,2,2,1,2,3,,,,,,,,,,,,,,,,,
,60b9585537f22407ad740a00,001,2022-04-29_02h12.52.155,classification_task,2021.2.3,Win32,60.0528465,60b9585537f22407ad740a00,626b377229c10585ec392f8a,626b3b3bafb8708d5b6e8d9e,,,,,,,,,,,,,,,,,,,,,,,,,,,,,,,,,,,,,,,1,  ,,0,4.314130439,191.8167,0,2,2,2,1,2,3,,,,,,,,,,,,,,,,,
,60b9585537f22407ad740a00,001,2022-04-29_02h12.52.155,classification_task,2021.2.3,Win32,60.0528465,60b9585537f22407ad740a00,626b377229c10585ec392f8a,626b3b3bafb8708d5b6e8d9e,,,,,,,,,,,,,,,,,,,,,,,,,,,,,,,,,,,,,,,2,  ,,0,0.737801293,194.9992,0,2,2,2,1,2,3,,,,,,,,,,,,,,,,,
,60b9585537f22407ad740a00,001,2022-04-29_02h12.52.155,classification_task,2021.2.3,Win32,60.0528465,60b9585537f22407ad740a00,626b377229c10585ec392f8a,626b3b3bafb8708d5b6e8d9e,,,,,,,,,,,,,,,,,,,,,,,,,,,,,,,,,,,,,,,,,,,,,0,2,2,2,1,,3,,,,,,,,,,,,,,,,,
,60b9585537f22407ad740a00,001,2022-04-29_02h12.52.155,classification_task,2021.2.3,Win32,60.0528465,60b9585537f22407ad740a00,626b377229c10585ec392f8a,626b3b3bafb8708d5b6e8d9e,,,,,,,,,,,,,,,,,,,,,,,,,,,,,,,,,,,,,,,,,,,,,,,,,,,,,I believe the aid is a competent performer,,0.7,0,4,1058.6647,0,0,0,0,1,0,,,,
,60b9585537f22407ad740a00,001,2022-04-29_02h12.52.155,classification_task,2021.2.3,Win32,60.0528465,60b9585537f22407ad740a00,626b377229c10585ec392f8a,626b3b3bafb8708d5b6e8d9e,,,,,,,,,,,,,,,,,,,,,,,,,,,,,,,,,,,,,,,,,,,,,,,,,,,,,I trust the aid,,0.7,0,3,1066.8948,0,0,0,0,1,0,,,,
,60b9585537f22407ad740a00,001,2022-04-29_02h12.52.155,classification_task,2021.2.3,Win32,60.0528465,60b9585537f22407ad740a00,626b377229c10585ec392f8a,626b3b3bafb8708d5b6e8d9e,,,,,,,,,,,,,,,,,,,,,,,,,,,,,,,,,,,,,,,,,,,,,,,,,,,,,I have confidence in the advice given by the aid,,0.7,0,3,1068.1115,0,0,0,0,1,0,,,,
,60b9585537f22407ad740a00,001,2022-04-29_02h12.52.155,classification_task,2021.2.3,Win32,60.0528465,60b9585537f22407ad740a00,626b377229c10585ec392f8a,626b3b3bafb8708d5b6e8d9e,,,,,,,,,,,,,,,,,,,,,,,,,,,,,,,,,,,,,,,,,,,,,,,,,,,,,I can depend on the aid,,0.7,0,3,1071.2739,0,0,0,0,1,0,,,,
,60b9585537f22407ad740a00,001,2022-04-29_02h12.52.155,classification_task,2021.2.3,Win32,60.0528465,60b9585537f22407ad740a00,626b377229c10585ec392f8a,626b3b3bafb8708d5b6e8d9e,,,,,,,,,,,,,,,,,,,,,,,,,,,,,,,,,,,,,,,,,,,,,,,,,,,,,I can rely on the aid to behave in consistent ways,,0.7,0,3,1076.8507,0,0,0,0,1,0,,,,
,60b9585537f22407ad740a00,001,2022-04-29_02h12.52.155,classification_task,2021.2.3,Win32,60.0528465,60b9585537f22407ad740a00,626b377229c10585ec392f8a,626b3b3bafb8708d5b6e8d9e,,,,,,,,,,,,,,,,,,,,,,,,,,,,,,,,,,,,,,,,,,,,,,,,,,,,,I can rely on the aid to do its best every time I take its advice,,0.7,0,3,1127.3204,0,0,0,0,1,0,,,,
,60b9585537f22407ad740a00,001,2022-04-29_02h12.52.155,classification_task,2021.2.3,Win32,60.0528465,60b9585537f22407ad740a00,626b377229c10585ec392f8a,626b3b3bafb8708d5b6e8d9e,,,,,,,,,,,,,,,,,,,,,,,,,,,,,,,,,,,,,,,,,,,,,,,,,,,,,"On trials you completed with assistance from the aid, how frequently did you think the aid was correct?",,0.7,0,100,,0,0,0,0,1,0,,,,
,60b9585537f22407ad740a00,001,2022-04-29_02h12.52.155,classification_task,2021.2.3,Win32,60.0528465,60b9585537f22407ad740a00,626b377229c10585ec392f8a,626b3b3bafb8708d5b6e8d9e,,,,,,,,,,,,,,,,,,,,,,,,,,,,,,,,,,,,,,,,,,,,,,,,,,,,,"On trials you completed without the aid, how frequently did you think you were correct?",,0.7,0,60,,0,0,0,0,1,0,,,,
,60b9585537f22407ad740a00,001,2022-04-29_02h12.52.155,classification_task,2021.2.3,Win32,60.0528465,60b9585537f22407ad740a00,626b377229c10585ec392f8a,626b3b3bafb8708d5b6e8d9e,,,,,,,,,,,,,,,,,,,,,,,,,,,,,,,,,,,,,,,,,,,,,,,,,,,,,,,,,,,0,0,0,0,1,,,,,
,60b9585537f22407ad740a00,001,2022-04-29_02h12.52.155,classification_task,2021.2.3,Win32,60.0528465,60b9585537f22407ad740a00,626b377229c10585ec392f8a,626b3b3bafb8708d5b6e8d9e,,,,,,,,,,,,,,,,,,,,,,,,,,,,,,,,,,,,,,,,,,,,,,,,,,,,,,,,,,,,,,,,,space,7.9072,1136.9063,
,60b9585537f22407ad740a00,001,2022-04-29_02h12.52.155,classification_task,2021.2.3,Win32,60.0528465,60b9585537f22407ad740a00,626b377229c10585ec392f8a,626b3b3bafb8708d5b6e8d9e,,,,,,,,,,,,,,,,,,,,,,,,,,,,,,,,,,,,,,,,,,,,,,,,,,,,,,,,,,,,,,,,,,,,"Mozilla/5.0 (Windows NT 10.0; Win64; x64) AppleWebKit/537.36 (KHTML, like Gecko) Chrome/100.0.4896.127 Safari/537.36"
