usingWebGL,participant,session,date,expName,psychopyVersion,OS,frameRate,study_id,signatures_friend,signatures_foe,band_ranges_top,band_ranges_bottom,formitemText,formtype,formundefined,formitemWidth,formindex,formresponse,formrt,key_resp_2.keys,key_resp_2.rt,tute_resp.keys,tute_resp.rt,tutorial.thisRepN,tutorial.thisTrialN,tutorial.thisN,tutorial.thisIndex,tutorial.ran,key_resp_4.keys,key_resp_4.rt,key_resp.keys,key_resp.corr,key_resp.rt,lines_presented,is_signal_presented,trials.thisRepN,trials.thisTrialN,trials.thisN,trials.thisIndex,trials.ran,vessel,active_band,lines,is_signal,supported_pos,catch_trial,debrief_formindex,debrief_formitemText,debrief_formtype,debrief_formitemWidth,debrief_formresponse,debrief_formrt,phases.thisRepN,phases.thisTrialN,phases.thisN,phases.thisIndex,phases.ran,phases.order,phase,key_resp_3.keys,trustitemText,trusttype,trustitemWidth,trustindex,trustresponse,trustrt,support_status.thisRepN,support_status.thisTrialN,support_status.thisN,support_status.thisIndex,support_status.ran,support_status.order,key_resp_5.keys,key_resp_5.rt,globalClockTime,userAgent,manualCondition
TRUE,60bd4b684ae7e5aa8b9178fc,627c6f71a6de7b82bc23ca3c,2022-05-11_22h22.57.181,classification_task,2021.2.3,Win32,59.99880002,627c6715c52fd12f31907bcf,,,,,,,,,,,,,,,,,,,,,,,,,,,,,,,,,,,,,,,,,,,,,,,,,,,,,,,,,,,,,,,,,,,,,
,60bd4b684ae7e5aa8b9178fc,627c6f71a6de7b82bc23ca3c,2022-05-11_22h22.57.181,classification_task,2021.2.3,Win32,59.99880002,627c6715c52fd12f31907bcf,"[[""0.193"",""0.375"",""0.932"",""0.968""],[""0.240"",""0.342"",""0.589"",""0.894""]]","[[""0.027"",""0.065"",""0.455"",""0.725""],[""0.150"",""0.420"",""0.537"",""0.776""]]","[1,10]","[100,1000]",Video game experience,,,0.7,0,,,,,,,,,,,,,,,,,,,,,,,,,,,,,,,,,,,,,,,,,,,,,,,,,,,,,,,,,,,,
,60bd4b684ae7e5aa8b9178fc,627c6f71a6de7b82bc23ca3c,2022-05-11_22h22.57.181,classification_task,2021.2.3,Win32,59.99880002,627c6715c52fd12f31907bcf,,,,,Approximately how many hours did you spend playing video games in the last week?,,,0.7,0,8,,,,,,,,,,,,,,,,,,,,,,,,,,,,,,,,,,,,,,,,,,,,,,,,,,,,,,,,,,,
,60bd4b684ae7e5aa8b9178fc,627c6f71a6de7b82bc23ca3c,2022-05-11_22h22.57.181,classification_task,2021.2.3,Win32,59.99880002,627c6715c52fd12f31907bcf,,,,,"Which game did you play the most this year? (Enter ""None"" if you didn't play any)",,,0.7,0,Valorant,,,,,,,,,,,,,,,,,,,,,,,,,,,,,,,,,,,,,,,,,,,,,,,,,,,,,,,,,,,
,60bd4b684ae7e5aa8b9178fc,627c6f71a6de7b82bc23ca3c,2022-05-11_22h22.57.181,classification_task,2021.2.3,Win32,59.99880002,627c6715c52fd12f31907bcf,,,,,Visual perception,,,0.7,0,,,,,,,,,,,,,,,,,,,,,,,,,,,,,,,,,,,,,,,,,,,,,,,,,,,,,,,,,,,,
,60bd4b684ae7e5aa8b9178fc,627c6f71a6de7b82bc23ca3c,2022-05-11_22h22.57.181,classification_task,2021.2.3,Win32,59.99880002,627c6715c52fd12f31907bcf,,,,,Do you have any form of color blindness?,,,0.7,0,No,30.752,,,,,,,,,,,,,,,,,,,,,,,,,,,,,,,,,,,,,,,,,,,,,,,,,,,,,,,,,,
,60bd4b684ae7e5aa8b9178fc,627c6f71a6de7b82bc23ca3c,2022-05-11_22h22.57.181,classification_task,2021.2.3,Win32,59.99880002,627c6715c52fd12f31907bcf,,,,,Do you use software to change the colour temperature of your screen (e.g. f.lux)?,,,0.7,0,Yes,32.7777,,,,,,,,,,,,,,,,,,,,,,,,,,,,,,,,,,,,,,,,,,,,,,,,,,,,,,,,,,
,60bd4b684ae7e5aa8b9178fc,627c6f71a6de7b82bc23ca3c,2022-05-11_22h22.57.181,classification_task,2021.2.3,Win32,59.99880002,627c6715c52fd12f31907bcf,,,,,,,,,,,,space,29.3403,space,11.9404,0,0,0,0,1,,,,,,,,,,,,,,,,,,,,,,,,,,,,,,,,,,,,,,,,,,,,,,,,,
,60bd4b684ae7e5aa8b9178fc,627c6f71a6de7b82bc23ca3c,2022-05-11_22h22.57.181,classification_task,2021.2.3,Win32,59.99880002,627c6715c52fd12f31907bcf,,,,,,,,,,,,,,space,7.5965,1,0,1,0,1,,,,,,,,,,,,,,,,,,,,,,,,,,,,,,,,,,,,,,,,,,,,,,,,,
,60bd4b684ae7e5aa8b9178fc,627c6f71a6de7b82bc23ca3c,2022-05-11_22h22.57.181,classification_task,2021.2.3,Win32,59.99880002,627c6715c52fd12f31907bcf,,,,,,,,,,,,,,space,22.833,2,0,2,0,1,,,,,,,,,,,,,,,,,,,,,,,,,,,,,,,,,,,,,,,,,,,,,,,,,
,60bd4b684ae7e5aa8b9178fc,627c6f71a6de7b82bc23ca3c,2022-05-11_22h22.57.181,classification_task,2021.2.3,Win32,59.99880002,627c6715c52fd12f31907bcf,,,,,,,,,,,,,,space,34.174,3,0,3,0,1,,,,,,,,,,,,,,,,,,,,,,,,,,,,,,,,,,,,,,,,,,,,,,,,,
,60bd4b684ae7e5aa8b9178fc,627c6f71a6de7b82bc23ca3c,2022-05-11_22h22.57.181,classification_task,2021.2.3,Win32,59.99880002,627c6715c52fd12f31907bcf,,,,,,,,,,,,,,space,10.8019,4,0,4,0,1,,,,,,,,,,,,,,,,,,,,,,,,,,,,,,,,,,,,,,,,,,,,,,,,,
,60bd4b684ae7e5aa8b9178fc,627c6f71a6de7b82bc23ca3c,2022-05-11_22h22.57.181,classification_task,2021.2.3,Win32,59.99880002,627c6715c52fd12f31907bcf,,,,,,,,,,,,,,,,,,,,,space,11.0949,l,1,7.2831,"[""0.150"",""0.420"",""0.537"",""0.644""]","[1,1,1,0]",0,0,0,0,1,1,1,,,0,FALSE,,,,,,,,,,,,,,,,,,,,,,,,,,,,,,,
,60bd4b684ae7e5aa8b9178fc,627c6f71a6de7b82bc23ca3c,2022-05-11_22h22.57.181,classification_task,2021.2.3,Win32,59.99880002,627c6715c52fd12f31907bcf,,,,,,,,,,,,,,,,,,,,,,,,0,,"[""0.677"",""0.375"",""0.932"",""0.968""]","[0,1,1,1]",0,1,1,1,1,0,0,,,0,FALSE,,,,,,,,,,,,,,,,,,,,,,,,,,,,,,,
,60bd4b684ae7e5aa8b9178fc,627c6f71a6de7b82bc23ca3c,2022-05-11_22h22.57.181,classification_task,2021.2.3,Win32,59.99880002,627c6715c52fd12f31907bcf,,,,,,,,,,,,,,,,,,,,,,,,0,,"[""0.630"",""0.420"",""0.537"",""0.776""]","[0,1,1,1]",0,2,2,2,1,1,1,,,0,FALSE,,,,,,,,,,,,,,,,,,,,,,,,,,,,,,,
,60bd4b684ae7e5aa8b9178fc,627c6f71a6de7b82bc23ca3c,2022-05-11_22h22.57.181,classification_task,2021.2.3,Win32,59.99880002,627c6715c52fd12f31907bcf,,,,,,,,,,,,,,,,,,,,,,,l,0,6.0687,"[""0.193"",""0.848"",""0.932"",""0.968""]","[1,0,1,1]",0,3,3,3,1,0,0,,,0,FALSE,,,,,,,,,,,,,,,,,,,,,,,,,,,,,,,
,60bd4b684ae7e5aa8b9178fc,627c6f71a6de7b82bc23ca3c,2022-05-11_22h22.57.181,classification_task,2021.2.3,Win32,59.99880002,627c6715c52fd12f31907bcf,,,,,,,,,,,,,,,,,,,,,,,a,1,2.8396,"[""0.193"",""0.375"",""0.677"",""0.968""]","[1,1,0,1]",0,4,4,4,1,0,0,,,0,FALSE,,,,,,,,,,,,,,,,,,,,,,,,,,,,,,,
,60bd4b684ae7e5aa8b9178fc,627c6f71a6de7b82bc23ca3c,2022-05-11_22h22.57.181,classification_task,2021.2.3,Win32,59.99880002,627c6715c52fd12f31907bcf,,,,,,,,,,,,,,,,,,,,,,,a,1,2.4319,"[""0.240"",""0.342"",""0.589"",""0.642""]","[1,1,1,0]",0,5,5,5,1,0,1,,,0,FALSE,,,,,,,,,,,,,,,,,,,,,,,,,,,,,,,
,60bd4b684ae7e5aa8b9178fc,627c6f71a6de7b82bc23ca3c,2022-05-11_22h22.57.181,classification_task,2021.2.3,Win32,59.99880002,627c6715c52fd12f31907bcf,,,,,,,,,,,,,,,,,,,,,,,l,1,2.3229,"[""0.150"",""0.642"",""0.537"",""0.776""]","[1,0,1,1]",0,6,6,6,1,1,1,,,0,FALSE,,,,,,,,,,,,,,,,,,,,,,,,,,,,,,,
,60bd4b684ae7e5aa8b9178fc,627c6f71a6de7b82bc23ca3c,2022-05-11_22h22.57.181,classification_task,2021.2.3,Win32,59.99880002,627c6715c52fd12f31907bcf,,,,,,,,,,,,,,,,,,,,,,,l,0,2.7409,"[""0.193"",""0.375"",""0.932"",""0.098""]","[1,1,1,0]",0,7,7,7,1,0,0,,,0,FALSE,,,,,,,,,,,,,,,,,,,,,,,,,,,,,,,
,60bd4b684ae7e5aa8b9178fc,627c6f71a6de7b82bc23ca3c,2022-05-11_22h22.57.181,classification_task,2021.2.3,Win32,59.99880002,627c6715c52fd12f31907bcf,,,,,,,,,,,,,,,,,,,,,,,l,1,5.0497,"[""0.150"",""0.420"",""0.849"",""0.776""]","[1,1,0,1]",0,8,8,8,1,1,1,,,0,FALSE,,,,,,,,,,,,,,,,,,,,,,,,,,,,,,,
,60bd4b684ae7e5aa8b9178fc,627c6f71a6de7b82bc23ca3c,2022-05-11_22h22.57.181,classification_task,2021.2.3,Win32,59.99880002,627c6715c52fd12f31907bcf,,,,,,,,,,,,,,,,,,,,,,,a,1,5.6375,"[""0.240"",""0.342"",""0.098"",""0.894""]","[1,1,0,1]",0,9,9,9,1,0,1,,,0,FALSE,,,,,,,,,,,,,,,,,,,,,,,,,,,,,,,
,60bd4b684ae7e5aa8b9178fc,627c6f71a6de7b82bc23ca3c,2022-05-11_22h22.57.181,classification_task,2021.2.3,Win32,59.99880002,627c6715c52fd12f31907bcf,,,,,,,,,,,,,,,,,,,,,,,a,1,4.6688,"[""0.240"",""0.281"",""0.589"",""0.894""]","[1,0,1,1]",0,10,10,10,1,0,1,,,0,FALSE,,,,,,,,,,,,,,,,,,,,,,,,,,,,,,,
,60bd4b684ae7e5aa8b9178fc,627c6f71a6de7b82bc23ca3c,2022-05-11_22h22.57.181,classification_task,2021.2.3,Win32,59.99880002,627c6715c52fd12f31907bcf,,,,,,,,,,,,,,,,,,,,,,,l,1,2.212,"[""0.027"",""0.065"",""0.455"",""0.848""]","[1,1,1,0]",0,11,11,11,1,1,0,,,0,FALSE,,,,,,,,,,,,,,,,,,,,,,,,,,,,,,,
,60bd4b684ae7e5aa8b9178fc,627c6f71a6de7b82bc23ca3c,2022-05-11_22h22.57.181,classification_task,2021.2.3,Win32,59.99880002,627c6715c52fd12f31907bcf,,,,,,,,,,,,,,,,,,,,,,,l,1,4.9554,"[""0.027"",""0.302"",""0.455"",""0.725""]","[1,0,1,1]",0,12,12,12,1,1,0,,,0,FALSE,,,,,,,,,,,,,,,,,,,,,,,,,,,,,,,
,60bd4b684ae7e5aa8b9178fc,627c6f71a6de7b82bc23ca3c,2022-05-11_22h22.57.181,classification_task,2021.2.3,Win32,59.99880002,627c6715c52fd12f31907bcf,,,,,,,,,,,,,,,,,,,,,,,a,1,6.5191,"[""0.631"",""0.342"",""0.589"",""0.894""]","[0,1,1,1]",0,13,13,13,1,0,1,,,0,FALSE,,,,,,,,,,,,,,,,,,,,,,,,,,,,,,,
,60bd4b684ae7e5aa8b9178fc,627c6f71a6de7b82bc23ca3c,2022-05-11_22h22.57.181,classification_task,2021.2.3,Win32,59.99880002,627c6715c52fd12f31907bcf,,,,,,,,,,,,,,,,,,,,,,,l,1,3.9275,"[""0.027"",""0.065"",""0.849"",""0.725""]","[1,1,0,1]",0,14,14,14,1,1,0,,,0,FALSE,,,,,,,,,,,,,,,,,,,,,,,,,,,,,,,
,60bd4b684ae7e5aa8b9178fc,627c6f71a6de7b82bc23ca3c,2022-05-11_22h22.57.181,classification_task,2021.2.3,Win32,59.99880002,627c6715c52fd12f31907bcf,,,,,,,,,,,,,,,,,,,,,,,l,1,3.3685,"[""0.098"",""0.065"",""0.455"",""0.725""]","[0,1,1,1]",0,15,15,15,1,1,0,,,0,FALSE,,,,,,,,,,,,,,,,,,,,,,,,,,,,,,,
,60bd4b684ae7e5aa8b9178fc,627c6f71a6de7b82bc23ca3c,2022-05-11_22h22.57.181,classification_task,2021.2.3,Win32,59.99880002,627c6715c52fd12f31907bcf,,,,,,,,,,,,,,,,,,,,,,,a,1,4.789,"[""0.240"",""0.630"",""0.589"",""0.894""]","[1,0,1,1]",0,16,16,16,1,0,1,,,0,FALSE,,,,,,,,,,,,,,,,,,,,,,,,,,,,,,,
,60bd4b684ae7e5aa8b9178fc,627c6f71a6de7b82bc23ca3c,2022-05-11_22h22.57.181,classification_task,2021.2.3,Win32,59.99880002,627c6715c52fd12f31907bcf,,,,,,,,,,,,,,,,,,,,,,,a,1,5.144,"[""0.193"",""0.375"",""0.284"",""0.968""]","[1,1,0,1]",0,17,17,17,1,0,0,,,0,FALSE,,,,,,,,,,,,,,,,,,,,,,,,,,,,,,,
,60bd4b684ae7e5aa8b9178fc,627c6f71a6de7b82bc23ca3c,2022-05-11_22h22.57.181,classification_task,2021.2.3,Win32,59.99880002,627c6715c52fd12f31907bcf,,,,,,,,,,,,,,,,,,,,,,,l,1,2.7257,"[""0.027"",""0.065"",""0.281"",""0.725""]","[1,1,0,1]",0,18,18,18,1,1,0,,,0,FALSE,,,,,,,,,,,,,,,,,,,,,,,,,,,,,,,
,60bd4b684ae7e5aa8b9178fc,627c6f71a6de7b82bc23ca3c,2022-05-11_22h22.57.181,classification_task,2021.2.3,Win32,59.99880002,627c6715c52fd12f31907bcf,,,,,,,,,,,,,,,,,,,,,,,l,1,3.6921,"[""0.150"",""0.848"",""0.537"",""0.776""]","[1,0,1,1]",0,19,19,19,1,1,1,,,0,FALSE,,,,,,,,,,,,,,,,,,,,,,,,,,,,,,,
,60bd4b684ae7e5aa8b9178fc,627c6f71a6de7b82bc23ca3c,2022-05-11_22h22.57.181,classification_task,2021.2.3,Win32,59.99880002,627c6715c52fd12f31907bcf,,,,,,,,,,,,,,,,,,,,,,,l,1,2.8363,"[""0.027"",""0.065"",""0.455"",""0.631""]","[1,1,1,0]",0,20,20,20,1,1,0,,,0,FALSE,,,,,,,,,,,,,,,,,,,,,,,,,,,,,,,
,60bd4b684ae7e5aa8b9178fc,627c6f71a6de7b82bc23ca3c,2022-05-11_22h22.57.181,classification_task,2021.2.3,Win32,59.99880002,627c6715c52fd12f31907bcf,,,,,,,,,,,,,,,,,,,,,,,a,1,3.0528,"[""0.284"",""0.375"",""0.932"",""0.968""]","[0,1,1,1]",0,21,21,21,1,0,0,,,0,FALSE,,,,,,,,,,,,,,,,,,,,,,,,,,,,,,,
,60bd4b684ae7e5aa8b9178fc,627c6f71a6de7b82bc23ca3c,2022-05-11_22h22.57.181,classification_task,2021.2.3,Win32,59.99880002,627c6715c52fd12f31907bcf,,,,,,,,,,,,,,,,,,,,,,,l,0,6.0958,"[""0.240"",""0.342"",""0.098"",""0.894""]","[1,1,0,1]",0,22,22,22,1,0,1,,,0,FALSE,,,,,,,,,,,,,,,,,,,,,,,,,,,,,,,
,60bd4b684ae7e5aa8b9178fc,627c6f71a6de7b82bc23ca3c,2022-05-11_22h22.57.181,classification_task,2021.2.3,Win32,59.99880002,627c6715c52fd12f31907bcf,,,,,,,,,,,,,,,,,,,,,,,l,1,4.5627,"[""0.027"",""0.644"",""0.455"",""0.725""]","[1,0,1,1]",0,23,23,23,1,1,0,,,0,FALSE,,,,,,,,,,,,,,,,,,,,,,,,,,,,,,,
,60bd4b684ae7e5aa8b9178fc,627c6f71a6de7b82bc23ca3c,2022-05-11_22h22.57.181,classification_task,2021.2.3,Win32,59.99880002,627c6715c52fd12f31907bcf,,,,,,,,,,,,,,,,,,,,,,,a,1,4.8216,"[""0.193"",""0.375"",""0.932"",""0.849""]","[1,1,1,0]",0,24,24,24,1,0,0,,,0,FALSE,,,,,,,,,,,,,,,,,,,,,,,,,,,,,,,
,60bd4b684ae7e5aa8b9178fc,627c6f71a6de7b82bc23ca3c,2022-05-11_22h22.57.181,classification_task,2021.2.3,Win32,59.99880002,627c6715c52fd12f31907bcf,,,,,,,,,,,,,,,,,,,,,,,l,1,5.5705,"[""0.630"",""0.420"",""0.537"",""0.776""]","[0,1,1,1]",0,25,25,25,1,1,1,,,0,FALSE,,,,,,,,,,,,,,,,,,,,,,,,,,,,,,,
,60bd4b684ae7e5aa8b9178fc,627c6f71a6de7b82bc23ca3c,2022-05-11_22h22.57.181,classification_task,2021.2.3,Win32,59.99880002,627c6715c52fd12f31907bcf,,,,,,,,,,,,,,,,,,,,,,,a,1,5.9391,"[""0.644"",""0.342"",""0.589"",""0.894""]","[0,1,1,1]",0,26,26,26,1,0,1,,,0,FALSE,,,,,,,,,,,,,,,,,,,,,,,,,,,,,,,
,60bd4b684ae7e5aa8b9178fc,627c6f71a6de7b82bc23ca3c,2022-05-11_22h22.57.181,classification_task,2021.2.3,Win32,59.99880002,627c6715c52fd12f31907bcf,,,,,,,,,,,,,,,,,,,,,,,l,1,3.7751,"[""0.644"",""0.065"",""0.455"",""0.725""]","[0,1,1,1]",0,27,27,27,1,1,0,,,0,FALSE,,,,,,,,,,,,,,,,,,,,,,,,,,,,,,,
,60bd4b684ae7e5aa8b9178fc,627c6f71a6de7b82bc23ca3c,2022-05-11_22h22.57.181,classification_task,2021.2.3,Win32,59.99880002,627c6715c52fd12f31907bcf,,,,,,,,,,,,,,,,,,,,,,,l,1,4.0535,"[""0.150"",""0.420"",""0.098"",""0.776""]","[1,1,0,1]",0,28,28,28,1,1,1,,,0,FALSE,,,,,,,,,,,,,,,,,,,,,,,,,,,,,,,
,60bd4b684ae7e5aa8b9178fc,627c6f71a6de7b82bc23ca3c,2022-05-11_22h22.57.181,classification_task,2021.2.3,Win32,59.99880002,627c6715c52fd12f31907bcf,,,,,,,,,,,,,,,,,,,,,,,l,1,5.505,"[""0.150"",""0.420"",""0.537"",""0.302""]","[1,1,1,0]",0,29,29,29,1,1,1,,,0,FALSE,,,,,,,,,,,,,,,,,,,,,,,,,,,,,,,
,60bd4b684ae7e5aa8b9178fc,627c6f71a6de7b82bc23ca3c,2022-05-11_22h22.57.181,classification_task,2021.2.3,Win32,59.99880002,627c6715c52fd12f31907bcf,,,,,,,,,,,,,,,,,,,,,,,a,1,5.8463,"[""0.193"",""0.824"",""0.932"",""0.968""]","[1,0,1,1]",0,30,30,30,1,0,0,,,0,FALSE,,,,,,,,,,,,,,,,,,,,,,,,,,,,,,,
,60bd4b684ae7e5aa8b9178fc,627c6f71a6de7b82bc23ca3c,2022-05-11_22h22.57.181,classification_task,2021.2.3,Win32,59.99880002,627c6715c52fd12f31907bcf,,,,,,,,,,,,,,,,,,,,,,,a,1,3.2359,"[""0.240"",""0.342"",""0.589"",""0.286""]","[1,1,1,0]",0,31,31,31,1,0,1,,,0,FALSE,,,,,,,,,,,,,,,,,,,,,,,,,,,,,,,
,60bd4b684ae7e5aa8b9178fc,627c6f71a6de7b82bc23ca3c,2022-05-11_22h22.57.181,classification_task,2021.2.3,Win32,59.99880002,627c6715c52fd12f31907bcf,,,,,,,,,,,,,,,,,,,,,,,a,0,5.1084,"[""0.150"",""0.420"",""0.849"",""0.776""]","[1,1,0,1]",0,32,32,32,1,1,1,,,0,FALSE,,,,,,,,,,,,,,,,,,,,,,,,,,,,,,,
,60bd4b684ae7e5aa8b9178fc,627c6f71a6de7b82bc23ca3c,2022-05-11_22h22.57.181,classification_task,2021.2.3,Win32,59.99880002,627c6715c52fd12f31907bcf,,,,,,,,,,,,,,,,,,,,,,,l,0,3.2335,"[""0.240"",""0.342"",""0.644"",""0.894""]","[1,1,0,1]",0,33,33,33,1,0,1,,,0,FALSE,,,,,,,,,,,,,,,,,,,,,,,,,,,,,,,
,60bd4b684ae7e5aa8b9178fc,627c6f71a6de7b82bc23ca3c,2022-05-11_22h22.57.181,classification_task,2021.2.3,Win32,59.99880002,627c6715c52fd12f31907bcf,,,,,,,,,,,,,,,,,,,,,,,l,1,0.9896,"[""0.284"",""0.420"",""0.537"",""0.776""]","[0,1,1,1]",0,34,34,34,1,1,1,,,0,FALSE,,,,,,,,,,,,,,,,,,,,,,,,,,,,,,,
,60bd4b684ae7e5aa8b9178fc,627c6f71a6de7b82bc23ca3c,2022-05-11_22h22.57.181,classification_task,2021.2.3,Win32,59.99880002,627c6715c52fd12f31907bcf,,,,,,,,,,,,,,,,,,,,,,,a,0,1.0179,"[""0.150"",""0.420"",""0.537"",""0.098""]","[1,1,1,0]",0,35,35,35,1,1,1,,,0,FALSE,,,,,,,,,,,,,,,,,,,,,,,,,,,,,,,
,60bd4b684ae7e5aa8b9178fc,627c6f71a6de7b82bc23ca3c,2022-05-11_22h22.57.181,classification_task,2021.2.3,Win32,59.99880002,627c6715c52fd12f31907bcf,,,,,,,,,,,,,,,,,,,,,,,l,0,2.0746,"[""0.193"",""0.375"",""0.932"",""0.677""]","[1,1,1,0]",0,36,36,36,1,0,0,,,0,FALSE,,,,,,,,,,,,,,,,,,,,,,,,,,,,,,,
,60bd4b684ae7e5aa8b9178fc,627c6f71a6de7b82bc23ca3c,2022-05-11_22h22.57.181,classification_task,2021.2.3,Win32,59.99880002,627c6715c52fd12f31907bcf,,,,,,,,,,,,,,,,,,,,,,,l,1,4.3375,"[""0.150"",""0.644"",""0.537"",""0.776""]","[1,0,1,1]",0,37,37,37,1,1,1,,,0,FALSE,,,,,,,,,,,,,,,,,,,,,,,,,,,,,,,
,60bd4b684ae7e5aa8b9178fc,627c6f71a6de7b82bc23ca3c,2022-05-11_22h22.57.181,classification_task,2021.2.3,Win32,59.99880002,627c6715c52fd12f31907bcf,,,,,,,,,,,,,,,,,,,,,,,a,0,1.0614,"[""0.281"",""0.065"",""0.455"",""0.725""]","[0,1,1,1]",0,38,38,38,1,1,0,,,0,FALSE,,,,,,,,,,,,,,,,,,,,,,,,,,,,,,,
,60bd4b684ae7e5aa8b9178fc,627c6f71a6de7b82bc23ca3c,2022-05-11_22h22.57.181,classification_task,2021.2.3,Win32,59.99880002,627c6715c52fd12f31907bcf,,,,,,,,,,,,,,,,,,,,,,,l,1,0.7336,"[""0.027"",""0.630"",""0.455"",""0.725""]","[1,0,1,1]",0,39,39,39,1,1,0,,,0,FALSE,,,,,,,,,,,,,,,,,,,,,,,,,,,,,,,
,60bd4b684ae7e5aa8b9178fc,627c6f71a6de7b82bc23ca3c,2022-05-11_22h22.57.181,classification_task,2021.2.3,Win32,59.99880002,627c6715c52fd12f31907bcf,,,,,,,,,,,,,,,,,,,,,,,a,1,0.9178,"[""0.240"",""0.284"",""0.589"",""0.894""]","[1,0,1,1]",0,40,40,40,1,0,1,,,0,FALSE,,,,,,,,,,,,,,,,,,,,,,,,,,,,,,,
,60bd4b684ae7e5aa8b9178fc,627c6f71a6de7b82bc23ca3c,2022-05-11_22h22.57.181,classification_task,2021.2.3,Win32,59.99880002,627c6715c52fd12f31907bcf,,,,,,,,,,,,,,,,,,,,,,,a,1,1.0023,"[""0.848"",""0.375"",""0.932"",""0.968""]","[0,1,1,1]",0,41,41,41,1,0,0,,,0,FALSE,,,,,,,,,,,,,,,,,,,,,,,,,,,,,,,
,60bd4b684ae7e5aa8b9178fc,627c6f71a6de7b82bc23ca3c,2022-05-11_22h22.57.181,classification_task,2021.2.3,Win32,59.99880002,627c6715c52fd12f31907bcf,,,,,,,,,,,,,,,,,,,,,,,l,0,2.5421,"[""0.284"",""0.342"",""0.589"",""0.894""]","[0,1,1,1]",0,42,42,42,1,0,1,,,0,FALSE,,,,,,,,,,,,,,,,,,,,,,,,,,,,,,,
,60bd4b684ae7e5aa8b9178fc,627c6f71a6de7b82bc23ca3c,2022-05-11_22h22.57.181,classification_task,2021.2.3,Win32,59.99880002,627c6715c52fd12f31907bcf,,,,,,,,,,,,,,,,,,,,,,,l,0,0.8809,"[""0.240"",""0.342"",""0.589"",""0.281""]","[1,1,1,0]",0,43,43,43,1,0,1,,,0,FALSE,,,,,,,,,,,,,,,,,,,,,,,,,,,,,,,
,60bd4b684ae7e5aa8b9178fc,627c6f71a6de7b82bc23ca3c,2022-05-11_22h22.57.181,classification_task,2021.2.3,Win32,59.99880002,627c6715c52fd12f31907bcf,,,,,,,,,,,,,,,,,,,,,,,l,1,1.1143,"[""0.027"",""0.065"",""0.455"",""0.644""]","[1,1,1,0]",0,44,44,44,1,1,0,,,0,FALSE,,,,,,,,,,,,,,,,,,,,,,,,,,,,,,,
,60bd4b684ae7e5aa8b9178fc,627c6f71a6de7b82bc23ca3c,2022-05-11_22h22.57.181,classification_task,2021.2.3,Win32,59.99880002,627c6715c52fd12f31907bcf,,,,,,,,,,,,,,,,,,,,,,,a,1,0.6666,"[""0.193"",""0.677"",""0.932"",""0.968""]","[1,0,1,1]",0,45,45,45,1,0,0,,,0,FALSE,,,,,,,,,,,,,,,,,,,,,,,,,,,,,,,
,60bd4b684ae7e5aa8b9178fc,627c6f71a6de7b82bc23ca3c,2022-05-11_22h22.57.181,classification_task,2021.2.3,Win32,59.99880002,627c6715c52fd12f31907bcf,,,,,,,,,,,,,,,,,,,,,,,l,1,0.6508,"[""0.027"",""0.065"",""0.644"",""0.725""]","[1,1,0,1]",0,46,46,46,1,1,0,,,0,FALSE,,,,,,,,,,,,,,,,,,,,,,,,,,,,,,,
,60bd4b684ae7e5aa8b9178fc,627c6f71a6de7b82bc23ca3c,2022-05-11_22h22.57.181,classification_task,2021.2.3,Win32,59.99880002,627c6715c52fd12f31907bcf,,,,,,,,,,,,,,,,,,,,,,,l,0,0.912,"[""0.193"",""0.375"",""0.284"",""0.968""]","[1,1,0,1]",0,47,47,47,1,0,0,,,0,FALSE,,,,,,,,,,,,,,,,,,,,,,,,,,,,,,,
,60bd4b684ae7e5aa8b9178fc,627c6f71a6de7b82bc23ca3c,2022-05-11_22h22.57.181,classification_task,2021.2.3,Win32,59.99880002,627c6715c52fd12f31907bcf,,,,,,,,,,,,,,,,,,,,,,,a,1,1.0179,"[""0.193"",""0.849"",""0.932"",""0.968""]","[1,0,1,1]",0,48,48,48,1,0,0,,,0,FALSE,,,,,,,,,,,,,,,,,,,,,,,,,,,,,,,
,60bd4b684ae7e5aa8b9178fc,627c6f71a6de7b82bc23ca3c,2022-05-11_22h22.57.181,classification_task,2021.2.3,Win32,59.99880002,627c6715c52fd12f31907bcf,,,,,,,,,,,,,,,,,,,,,,,l,0,1.2349,"[""0.240"",""0.342"",""0.302"",""0.894""]","[1,1,0,1]",0,49,49,49,1,0,1,,,0,FALSE,,,,,,,,,,,,,,,,,,,,,,,,,,,,,,,
,60bd4b684ae7e5aa8b9178fc,627c6f71a6de7b82bc23ca3c,2022-05-11_22h22.57.181,classification_task,2021.2.3,Win32,59.99880002,627c6715c52fd12f31907bcf,,,,,,,,,,,,,,,,,,,,,,,a,1,1.0008,"[""0.677"",""0.342"",""0.589"",""0.894""]","[0,1,1,1]",0,50,50,50,1,0,1,,,0,FALSE,,,,,,,,,,,,,,,,,,,,,,,,,,,,,,,
,60bd4b684ae7e5aa8b9178fc,627c6f71a6de7b82bc23ca3c,2022-05-11_22h22.57.181,classification_task,2021.2.3,Win32,59.99880002,627c6715c52fd12f31907bcf,,,,,,,,,,,,,,,,,,,,,,,a,0,0.8901,"[""0.150"",""0.284"",""0.537"",""0.776""]","[1,0,1,1]",0,51,51,51,1,1,1,,,0,FALSE,,,,,,,,,,,,,,,,,,,,,,,,,,,,,,,
,60bd4b684ae7e5aa8b9178fc,627c6f71a6de7b82bc23ca3c,2022-05-11_22h22.57.181,classification_task,2021.2.3,Win32,59.99880002,627c6715c52fd12f31907bcf,,,,,,,,,,,,,,,,,,,,,,,a,0,1.7345,"[""0.849"",""0.065"",""0.455"",""0.725""]","[0,1,1,1]",0,52,52,52,1,1,0,,,0,FALSE,,,,,,,,,,,,,,,,,,,,,,,,,,,,,,,
,60bd4b684ae7e5aa8b9178fc,627c6f71a6de7b82bc23ca3c,2022-05-11_22h22.57.181,classification_task,2021.2.3,Win32,59.99880002,627c6715c52fd12f31907bcf,,,,,,,,,,,,,,,,,,,,,,,l,0,0.7005,"[""0.240"",""0.342"",""0.589"",""0.848""]","[1,1,1,0]",0,53,53,53,1,0,1,,,0,FALSE,,,,,,,,,,,,,,,,,,,,,,,,,,,,,,,
,60bd4b684ae7e5aa8b9178fc,627c6f71a6de7b82bc23ca3c,2022-05-11_22h22.57.181,classification_task,2021.2.3,Win32,59.99880002,627c6715c52fd12f31907bcf,,,,,,,,,,,,,,,,,,,,,,,a,1,1.0081,"[""0.193"",""0.375"",""0.630"",""0.968""]","[1,1,0,1]",0,54,54,54,1,0,0,,,0,FALSE,,,,,,,,,,,,,,,,,,,,,,,,,,,,,,,
,60bd4b684ae7e5aa8b9178fc,627c6f71a6de7b82bc23ca3c,2022-05-11_22h22.57.181,classification_task,2021.2.3,Win32,59.99880002,627c6715c52fd12f31907bcf,,,,,,,,,,,,,,,,,,,,,,,a,1,1.2042,"[""0.240"",""0.284"",""0.589"",""0.894""]","[1,0,1,1]",0,55,55,55,1,0,1,,,0,FALSE,,,,,,,,,,,,,,,,,,,,,,,,,,,,,,,
,60bd4b684ae7e5aa8b9178fc,627c6f71a6de7b82bc23ca3c,2022-05-11_22h22.57.181,classification_task,2021.2.3,Win32,59.99880002,627c6715c52fd12f31907bcf,,,,,,,,,,,,,,,,,,,,,,,a,0,2.2019,"[""0.027"",""0.065"",""0.455"",""0.630""]","[1,1,1,0]",0,56,56,56,1,1,0,,,0,FALSE,,,,,,,,,,,,,,,,,,,,,,,,,,,,,,,
,60bd4b684ae7e5aa8b9178fc,627c6f71a6de7b82bc23ca3c,2022-05-11_22h22.57.181,classification_task,2021.2.3,Win32,59.99880002,627c6715c52fd12f31907bcf,,,,,,,,,,,,,,,,,,,,,,,l,1,1.9022,"[""0.644"",""0.420"",""0.537"",""0.776""]","[0,1,1,1]",0,57,57,57,1,1,1,,,0,FALSE,,,,,,,,,,,,,,,,,,,,,,,,,,,,,,,
,60bd4b684ae7e5aa8b9178fc,627c6f71a6de7b82bc23ca3c,2022-05-11_22h22.57.181,classification_task,2021.2.3,Win32,59.99880002,627c6715c52fd12f31907bcf,,,,,,,,,,,,,,,,,,,,,,,a,1,1.4185,"[""0.284"",""0.375"",""0.932"",""0.968""]","[0,1,1,1]",0,58,58,58,1,0,0,,,0,FALSE,,,,,,,,,,,,,,,,,,,,,,,,,,,,,,,
,60bd4b684ae7e5aa8b9178fc,627c6f71a6de7b82bc23ca3c,2022-05-11_22h22.57.181,classification_task,2021.2.3,Win32,59.99880002,627c6715c52fd12f31907bcf,,,,,,,,,,,,,,,,,,,,,,,l,1,0.4413,"[""0.027"",""0.065"",""0.098"",""0.725""]","[1,1,0,1]",0,59,59,59,1,1,0,,,0,FALSE,,,,,,,,,,,,,,,,,,,,,,,,,,,,,,,
,60bd4b684ae7e5aa8b9178fc,627c6f71a6de7b82bc23ca3c,2022-05-11_22h22.57.181,classification_task,2021.2.3,Win32,59.99880002,627c6715c52fd12f31907bcf,,,,,,,,,,,,,,,,,,,,,,,l,1,1.3963,"[""0.027"",""0.644"",""0.455"",""0.725""]","[1,0,1,1]",0,60,60,60,1,1,0,,,0,FALSE,,,,,,,,,,,,,,,,,,,,,,,,,,,,,,,
,60bd4b684ae7e5aa8b9178fc,627c6f71a6de7b82bc23ca3c,2022-05-11_22h22.57.181,classification_task,2021.2.3,Win32,59.99880002,627c6715c52fd12f31907bcf,,,,,,,,,,,,,,,,,,,,,,,a,0,1.6641,"[""0.150"",""0.420"",""0.537"",""0.286""]","[1,1,1,0]",0,61,61,61,1,1,1,,,0,FALSE,,,,,,,,,,,,,,,,,,,,,,,,,,,,,,,
,60bd4b684ae7e5aa8b9178fc,627c6f71a6de7b82bc23ca3c,2022-05-11_22h22.57.181,classification_task,2021.2.3,Win32,59.99880002,627c6715c52fd12f31907bcf,,,,,,,,,,,,,,,,,,,,,,,a,1,1.3463,"[""0.193"",""0.375"",""0.932"",""0.286""]","[1,1,1,0]",0,62,62,62,1,0,0,,,0,FALSE,,,,,,,,,,,,,,,,,,,,,,,,,,,,,,,
,60bd4b684ae7e5aa8b9178fc,627c6f71a6de7b82bc23ca3c,2022-05-11_22h22.57.181,classification_task,2021.2.3,Win32,59.99880002,627c6715c52fd12f31907bcf,,,,,,,,,,,,,,,,,,,,,,,a,0,0.9508,"[""0.150"",""0.420"",""0.824"",""0.776""]","[1,1,0,1]",0,63,63,63,1,1,1,,,0,FALSE,,,,,,,,,,,,,,,,,,,,,,,,,,,,,,,
,60bd4b684ae7e5aa8b9178fc,627c6f71a6de7b82bc23ca3c,2022-05-11_22h22.57.181,classification_task,2021.2.3,Win32,59.99880002,627c6715c52fd12f31907bcf,,,,,,,,,,,,,,,,,,,,,,,,,,,,,,,,,,,,,,,0, ,,0,3.407799334,457.9688,0,0,0,0,1,2,1,,,,,,,,,,,,,,,,,,
,60bd4b684ae7e5aa8b9178fc,627c6f71a6de7b82bc23ca3c,2022-05-11_22h22.57.181,classification_task,2021.2.3,Win32,59.99880002,627c6715c52fd12f31907bcf,,,,,,,,,,,,,,,,,,,,,,,,,,,,,,,,,,,,,,,1,  ,,0,6.175778954,451.7156,0,0,0,0,1,2,1,,,,,,,,,,,,,,,,,,
,60bd4b684ae7e5aa8b9178fc,627c6f71a6de7b82bc23ca3c,2022-05-11_22h22.57.181,classification_task,2021.2.3,Win32,59.99880002,627c6715c52fd12f31907bcf,,,,,,,,,,,,,,,,,,,,,,,,,,,,,,,,,,,,,,,2,  ,,0,0.296884186,463.008,0,0,0,0,1,2,1,,,,,,,,,,,,,,,,,,
,60bd4b684ae7e5aa8b9178fc,627c6f71a6de7b82bc23ca3c,2022-05-11_22h22.57.181,classification_task,2021.2.3,Win32,59.99880002,627c6715c52fd12f31907bcf,,,,,,,,,,,,,,,,,,,,,,,,,,,,,,,,,,,,,,,,,,,,,0,0,0,0,1,,1,,,,,,,,,,,,,,,,,,
,60bd4b684ae7e5aa8b9178fc,627c6f71a6de7b82bc23ca3c,2022-05-11_22h22.57.181,classification_task,2021.2.3,Win32,59.99880002,627c6715c52fd12f31907bcf,,,,,,,,,,,,,,,,,,,,,space,22.1138,l,1,6.6621,"[""0.819"",""0.420"",""0.537"",""0.776""]","[0,1,1,1]",0,0,0,0,1,1,1,,,0,FALSE,,,,,,,,,,,,,,,,,,,,,,,,,,,,,,,
,60bd4b684ae7e5aa8b9178fc,627c6f71a6de7b82bc23ca3c,2022-05-11_22h22.57.181,classification_task,2021.2.3,Win32,59.99880002,627c6715c52fd12f31907bcf,,,,,,,,,,,,,,,,,,,,,,,a,1,2.7583,"[""0.240"",""0.342"",""0.589"",""0.677""]","[1,1,1,0]",0,1,1,1,1,0,1,,,0,FALSE,,,,,,,,,,,,,,,,,,,,,,,,,,,,,,,
,60bd4b684ae7e5aa8b9178fc,627c6f71a6de7b82bc23ca3c,2022-05-11_22h22.57.181,classification_task,2021.2.3,Win32,59.99880002,627c6715c52fd12f31907bcf,,,,,,,,,,,,,,,,,,,,,,,a,1,0.9973,"[""0.819"",""0.342"",""0.589"",""0.894""]","[0,1,1,1]",0,2,2,2,1,0,1,,,0,FALSE,,,,,,,,,,,,,,,,,,,,,,,,,,,,,,,
,60bd4b684ae7e5aa8b9178fc,627c6f71a6de7b82bc23ca3c,2022-05-11_22h22.57.181,classification_task,2021.2.3,Win32,59.99880002,627c6715c52fd12f31907bcf,,,,,,,,,,,,,,,,,,,,,,,l,1,1.0063,"[""0.150"",""0.420"",""0.824"",""0.776""]","[1,1,0,1]",0,3,3,3,1,1,1,,,0,FALSE,,,,,,,,,,,,,,,,,,,,,,,,,,,,,,,
,60bd4b684ae7e5aa8b9178fc,627c6f71a6de7b82bc23ca3c,2022-05-11_22h22.57.181,classification_task,2021.2.3,Win32,59.99880002,627c6715c52fd12f31907bcf,,,,,,,,,,,,,,,,,,,,,,,l,1,1.1869,"[""0.150"",""0.286"",""0.537"",""0.776""]","[1,0,1,1]",0,4,4,4,1,1,1,,,0,FALSE,,,,,,,,,,,,,,,,,,,,,,,,,,,,,,,
,60bd4b684ae7e5aa8b9178fc,627c6f71a6de7b82bc23ca3c,2022-05-11_22h22.57.181,classification_task,2021.2.3,Win32,59.99880002,627c6715c52fd12f31907bcf,,,,,,,,,,,,,,,,,,,,,,,a,1,1.0594,"[""0.240"",""0.642"",""0.589"",""0.894""]","[1,0,1,1]",0,5,5,5,1,0,1,,,0,FALSE,,,,,,,,,,,,,,,,,,,,,,,,,,,,,,,
,60bd4b684ae7e5aa8b9178fc,627c6f71a6de7b82bc23ca3c,2022-05-11_22h22.57.181,classification_task,2021.2.3,Win32,59.99880002,627c6715c52fd12f31907bcf,,,,,,,,,,,,,,,,,,,,,,,a,1,1.6709,"[""0.193"",""0.642"",""0.932"",""0.968""]","[1,0,1,1]",0,6,6,6,1,0,0,,,0,FALSE,,,,,,,,,,,,,,,,,,,,,,,,,,,,,,,
,60bd4b684ae7e5aa8b9178fc,627c6f71a6de7b82bc23ca3c,2022-05-11_22h22.57.181,classification_task,2021.2.3,Win32,59.99880002,627c6715c52fd12f31907bcf,,,,,,,,,,,,,,,,,,,,,,,a,1,0.8448,"[""0.193"",""0.375"",""0.819"",""0.968""]","[1,1,0,1]",0,7,7,7,1,0,0,,,0,FALSE,,,,,,,,,,,,,,,,,,,,,,,,,,,,,,,
,60bd4b684ae7e5aa8b9178fc,627c6f71a6de7b82bc23ca3c,2022-05-11_22h22.57.181,classification_task,2021.2.3,Win32,59.99880002,627c6715c52fd12f31907bcf,,,,,,,,,,,,,,,,,,,,,,,l,1,0.7688,"[""0.027"",""0.065"",""0.302"",""0.725""]","[1,1,0,1]",0,8,8,8,1,1,0,,,0,FALSE,,,,,,,,,,,,,,,,,,,,,,,,,,,,,,,
,60bd4b684ae7e5aa8b9178fc,627c6f71a6de7b82bc23ca3c,2022-05-11_22h22.57.181,classification_task,2021.2.3,Win32,59.99880002,627c6715c52fd12f31907bcf,,,,,,,,,,,,,,,,,,,,,,,l,1,1.1954,"[""0.150"",""0.420"",""0.537"",""0.098""]","[1,1,1,0]",0,9,9,9,1,1,1,,,0,FALSE,,,,,,,,,,,,,,,,,,,,,,,,,,,,,,,
,60bd4b684ae7e5aa8b9178fc,627c6f71a6de7b82bc23ca3c,2022-05-11_22h22.57.181,classification_task,2021.2.3,Win32,59.99880002,627c6715c52fd12f31907bcf,,,,,,,,,,,,,,,,,,,,,,,l,1,2.379,"[""0.642"",""0.065"",""0.455"",""0.725""]","[0,1,1,1]",0,10,10,10,1,1,0,,,0,FALSE,,,,,,,,,,,,,,,,,,,,,,,,,,,,,,,
,60bd4b684ae7e5aa8b9178fc,627c6f71a6de7b82bc23ca3c,2022-05-11_22h22.57.181,classification_task,2021.2.3,Win32,59.99880002,627c6715c52fd12f31907bcf,,,,,,,,,,,,,,,,,,,,,,,a,1,0.7907,"[""0.240"",""0.342"",""0.631"",""0.894""]","[1,1,0,1]",0,11,11,11,1,0,1,,,0,FALSE,,,,,,,,,,,,,,,,,,,,,,,,,,,,,,,
,60bd4b684ae7e5aa8b9178fc,627c6f71a6de7b82bc23ca3c,2022-05-11_22h22.57.181,classification_task,2021.2.3,Win32,59.99880002,627c6715c52fd12f31907bcf,,,,,,,,,,,,,,,,,,,,,,,l,1,0.5405,"[""0.027"",""0.065"",""0.455"",""0.302""]","[1,1,1,0]",0,12,12,12,1,1,0,,,0,FALSE,,,,,,,,,,,,,,,,,,,,,,,,,,,,,,,
,60bd4b684ae7e5aa8b9178fc,627c6f71a6de7b82bc23ca3c,2022-05-11_22h22.57.181,classification_task,2021.2.3,Win32,59.99880002,627c6715c52fd12f31907bcf,,,,,,,,,,,,,,,,,,,,,,,a,1,0.5949,"[""0.193"",""0.375"",""0.932"",""0.630""]","[1,1,1,0]",0,13,13,13,1,0,0,,,0,FALSE,,,,,,,,,,,,,,,,,,,,,,,,,,,,,,,
,60bd4b684ae7e5aa8b9178fc,627c6f71a6de7b82bc23ca3c,2022-05-11_22h22.57.181,classification_task,2021.2.3,Win32,59.99880002,627c6715c52fd12f31907bcf,,,,,,,,,,,,,,,,,,,,,,,l,1,0.5272,"[""0.027"",""0.284"",""0.455"",""0.725""]","[1,0,1,1]",0,14,14,14,1,1,0,,,0,FALSE,,,,,,,,,,,,,,,,,,,,,,,,,,,,,,,
,60bd4b684ae7e5aa8b9178fc,627c6f71a6de7b82bc23ca3c,2022-05-11_22h22.57.181,classification_task,2021.2.3,Win32,59.99880002,627c6715c52fd12f31907bcf,,,,,,,,,,,,,,,,,,,,,,,a,1,0.442,"[""0.631"",""0.375"",""0.932"",""0.968""]","[0,1,1,1]",0,15,15,15,1,0,0,,,0,FALSE,,,,,,,,,,,,,,,,,,,,,,,,,,,,,,,
,60bd4b684ae7e5aa8b9178fc,627c6f71a6de7b82bc23ca3c,2022-05-11_22h22.57.181,classification_task,2021.2.3,Win32,59.99880002,627c6715c52fd12f31907bcf,,,,,,,,,,,,,,,,,,,,,,,l,1,1.0737,"[""0.150"",""0.420"",""0.644"",""0.776""]","[1,1,0,1]",0,16,16,16,1,1,1,,,0,FALSE,,,,,,,,,,,,,,,,,,,,,,,,,,,,,,,
,60bd4b684ae7e5aa8b9178fc,627c6f71a6de7b82bc23ca3c,2022-05-11_22h22.57.181,classification_task,2021.2.3,Win32,59.99880002,627c6715c52fd12f31907bcf,,,,,,,,,,,,,,,,,,,,,,,a,1,0.6482,"[""0.193"",""0.819"",""0.932"",""0.968""]","[1,0,1,1]",0,17,17,17,1,0,0,,,0,FALSE,,,,,,,,,,,,,,,,,,,,,,,,,,,,,,,
,60bd4b684ae7e5aa8b9178fc,627c6f71a6de7b82bc23ca3c,2022-05-11_22h22.57.181,classification_task,2021.2.3,Win32,59.99880002,627c6715c52fd12f31907bcf,,,,,,,,,,,,,,,,,,,,,,,l,1,1.2596,"[""0.150"",""0.630"",""0.537"",""0.776""]","[1,0,1,1]",0,18,18,18,1,1,1,,,0,FALSE,,,,,,,,,,,,,,,,,,,,,,,,,,,,,,,
,60bd4b684ae7e5aa8b9178fc,627c6f71a6de7b82bc23ca3c,2022-05-11_22h22.57.181,classification_task,2021.2.3,Win32,59.99880002,627c6715c52fd12f31907bcf,,,,,,,,,,,,,,,,,,,,,,,l,1,0.7493,"[""0.027"",""0.065"",""0.098"",""0.725""]","[1,1,0,1]",0,19,19,19,1,1,0,,,0,FALSE,,,,,,,,,,,,,,,,,,,,,,,,,,,,,,,
,60bd4b684ae7e5aa8b9178fc,627c6f71a6de7b82bc23ca3c,2022-05-11_22h22.57.181,classification_task,2021.2.3,Win32,59.99880002,627c6715c52fd12f31907bcf,,,,,,,,,,,,,,,,,,,,,,,a,1,2.2932,"[""0.240"",""0.642"",""0.589"",""0.894""]","[1,0,1,1]",0,20,20,20,1,0,1,,,0,FALSE,,,,,,,,,,,,,,,,,,,,,,,,,,,,,,,
,60bd4b684ae7e5aa8b9178fc,627c6f71a6de7b82bc23ca3c,2022-05-11_22h22.57.181,classification_task,2021.2.3,Win32,59.99880002,627c6715c52fd12f31907bcf,,,,,,,,,,,,,,,,,,,,,,,l,1,1.0691,"[""0.284"",""0.065"",""0.455"",""0.725""]","[0,1,1,1]",0,21,21,21,1,1,0,,,0,FALSE,,,,,,,,,,,,,,,,,,,,,,,,,,,,,,,
,60bd4b684ae7e5aa8b9178fc,627c6f71a6de7b82bc23ca3c,2022-05-11_22h22.57.181,classification_task,2021.2.3,Win32,59.99880002,627c6715c52fd12f31907bcf,,,,,,,,,,,,,,,,,,,,,,,l,0,0.9985,"[""0.240"",""0.342"",""0.589"",""0.098""]","[1,1,1,0]",0,22,22,22,1,0,1,,,0,FALSE,,,,,,,,,,,,,,,,,,,,,,,,,,,,,,,
,60bd4b684ae7e5aa8b9178fc,627c6f71a6de7b82bc23ca3c,2022-05-11_22h22.57.181,classification_task,2021.2.3,Win32,59.99880002,627c6715c52fd12f31907bcf,,,,,,,,,,,,,,,,,,,,,,,l,1,1.0528,"[""0.150"",""0.420"",""0.537"",""0.848""]","[1,1,1,0]",0,23,23,23,1,1,1,,,0,FALSE,,,,,,,,,,,,,,,,,,,,,,,,,,,,,,,
,60bd4b684ae7e5aa8b9178fc,627c6f71a6de7b82bc23ca3c,2022-05-11_22h22.57.181,classification_task,2021.2.3,Win32,59.99880002,627c6715c52fd12f31907bcf,,,,,,,,,,,,,,,,,,,,,,,l,0,0.9212,"[""0.240"",""0.342"",""0.286"",""0.894""]","[1,1,0,1]",0,24,24,24,1,0,1,,,0,FALSE,,,,,,,,,,,,,,,,,,,,,,,,,,,,,,,
,60bd4b684ae7e5aa8b9178fc,627c6f71a6de7b82bc23ca3c,2022-05-11_22h22.57.181,classification_task,2021.2.3,Win32,59.99880002,627c6715c52fd12f31907bcf,,,,,,,,,,,,,,,,,,,,,,,l,1,0.5744,"[""0.027"",""0.065"",""0.455"",""0.302""]","[1,1,1,0]",0,25,25,25,1,1,0,,,0,FALSE,,,,,,,,,,,,,,,,,,,,,,,,,,,,,,,
,60bd4b684ae7e5aa8b9178fc,627c6f71a6de7b82bc23ca3c,2022-05-11_22h22.57.181,classification_task,2021.2.3,Win32,59.99880002,627c6715c52fd12f31907bcf,,,,,,,,,,,,,,,,,,,,,,,a,0,1.375,"[""0.642"",""0.420"",""0.537"",""0.776""]","[0,1,1,1]",0,26,26,26,1,1,1,,,0,FALSE,,,,,,,,,,,,,,,,,,,,,,,,,,,,,,,
,60bd4b684ae7e5aa8b9178fc,627c6f71a6de7b82bc23ca3c,2022-05-11_22h22.57.181,classification_task,2021.2.3,Win32,59.99880002,627c6715c52fd12f31907bcf,,,,,,,,,,,,,,,,,,,,,,,a,1,0.9354,"[""0.644"",""0.342"",""0.589"",""0.894""]","[0,1,1,1]",0,27,27,27,1,0,1,,,0,FALSE,,,,,,,,,,,,,,,,,,,,,,,,,,,,,,,
,60bd4b684ae7e5aa8b9178fc,627c6f71a6de7b82bc23ca3c,2022-05-11_22h22.57.181,classification_task,2021.2.3,Win32,59.99880002,627c6715c52fd12f31907bcf,,,,,,,,,,,,,,,,,,,,,,,a,1,0.8297,"[""0.644"",""0.375"",""0.932"",""0.968""]","[0,1,1,1]",0,28,28,28,1,0,0,,,0,FALSE,,,,,,,,,,,,,,,,,,,,,,,,,,,,,,,
,60bd4b684ae7e5aa8b9178fc,627c6f71a6de7b82bc23ca3c,2022-05-11_22h22.57.181,classification_task,2021.2.3,Win32,59.99880002,627c6715c52fd12f31907bcf,,,,,,,,,,,,,,,,,,,,,,,l,1,1.1015,"[""0.027"",""0.819"",""0.455"",""0.725""]","[1,0,1,1]",0,29,29,29,1,1,0,,,0,FALSE,,,,,,,,,,,,,,,,,,,,,,,,,,,,,,,
,60bd4b684ae7e5aa8b9178fc,627c6f71a6de7b82bc23ca3c,2022-05-11_22h22.57.181,classification_task,2021.2.3,Win32,59.99880002,627c6715c52fd12f31907bcf,,,,,,,,,,,,,,,,,,,,,,,a,1,0.6346,"[""0.193"",""0.375"",""0.932"",""0.098""]","[1,1,1,0]",0,30,30,30,1,0,0,,,0,FALSE,,,,,,,,,,,,,,,,,,,,,,,,,,,,,,,
,60bd4b684ae7e5aa8b9178fc,627c6f71a6de7b82bc23ca3c,2022-05-11_22h22.57.181,classification_task,2021.2.3,Win32,59.99880002,627c6715c52fd12f31907bcf,,,,,,,,,,,,,,,,,,,,,,,a,1,1.2843,"[""0.193"",""0.375"",""0.644"",""0.968""]","[1,1,0,1]",0,31,31,31,1,0,0,,,0,FALSE,,,,,,,,,,,,,,,,,,,,,,,,,,,,,,,
,60bd4b684ae7e5aa8b9178fc,627c6f71a6de7b82bc23ca3c,2022-05-11_22h22.57.181,classification_task,2021.2.3,Win32,59.99880002,627c6715c52fd12f31907bcf,,,,,,,,,,,,,,,,,,,,,,,l,1,1.2862,"[""0.027"",""0.644"",""0.455"",""0.725""]","[1,0,1,1]",0,32,32,32,1,1,0,,,0,FALSE,,,,,,,,,,,,,,,,,,,,,,,,,,,,,,,
,60bd4b684ae7e5aa8b9178fc,627c6f71a6de7b82bc23ca3c,2022-05-11_22h22.57.181,classification_task,2021.2.3,Win32,59.99880002,627c6715c52fd12f31907bcf,,,,,,,,,,,,,,,,,,,,,,,l,1,0.4915,"[""0.644"",""0.065"",""0.455"",""0.725""]","[0,1,1,1]",0,33,33,33,1,1,0,,,0,FALSE,,,,,,,,,,,,,,,,,,,,,,,,,,,,,,,
,60bd4b684ae7e5aa8b9178fc,627c6f71a6de7b82bc23ca3c,2022-05-11_22h22.57.181,classification_task,2021.2.3,Win32,59.99880002,627c6715c52fd12f31907bcf,,,,,,,,,,,,,,,,,,,,,,,a,1,0.5989,"[""0.193"",""0.375"",""0.848"",""0.968""]","[1,1,0,1]",0,34,34,34,1,0,0,,,0,FALSE,,,,,,,,,,,,,,,,,,,,,,,,,,,,,,,
,60bd4b684ae7e5aa8b9178fc,627c6f71a6de7b82bc23ca3c,2022-05-11_22h22.57.181,classification_task,2021.2.3,Win32,59.99880002,627c6715c52fd12f31907bcf,,,,,,,,,,,,,,,,,,,,,,,l,0,1.218,"[""0.240"",""0.342"",""0.589"",""0.644""]","[1,1,1,0]",0,35,35,35,1,0,1,,,0,FALSE,,,,,,,,,,,,,,,,,,,,,,,,,,,,,,,
,60bd4b684ae7e5aa8b9178fc,627c6f71a6de7b82bc23ca3c,2022-05-11_22h22.57.181,classification_task,2021.2.3,Win32,59.99880002,627c6715c52fd12f31907bcf,,,,,,,,,,,,,,,,,,,,,,,a,1,1.6606,"[""0.193"",""0.375"",""0.932"",""0.819""]","[1,1,1,0]",0,36,36,36,1,0,0,,,0,FALSE,,,,,,,,,,,,,,,,,,,,,,,,,,,,,,,
,60bd4b684ae7e5aa8b9178fc,627c6f71a6de7b82bc23ca3c,2022-05-11_22h22.57.181,classification_task,2021.2.3,Win32,59.99880002,627c6715c52fd12f31907bcf,,,,,,,,,,,,,,,,,,,,,,,l,1,1.5696,"[""0.150"",""0.420"",""0.098"",""0.776""]","[1,1,0,1]",0,37,37,37,1,1,1,,,0,FALSE,,,,,,,,,,,,,,,,,,,,,,,,,,,,,,,
,60bd4b684ae7e5aa8b9178fc,627c6f71a6de7b82bc23ca3c,2022-05-11_22h22.57.181,classification_task,2021.2.3,Win32,59.99880002,627c6715c52fd12f31907bcf,,,,,,,,,,,,,,,,,,,,,,,l,1,0.4504,"[""0.027"",""0.065"",""0.455"",""0.286""]","[1,1,1,0]",0,38,38,38,1,1,0,,,0,FALSE,,,,,,,,,,,,,,,,,,,,,,,,,,,,,,,
,60bd4b684ae7e5aa8b9178fc,627c6f71a6de7b82bc23ca3c,2022-05-11_22h22.57.181,classification_task,2021.2.3,Win32,59.99880002,627c6715c52fd12f31907bcf,,,,,,,,,,,,,,,,,,,,,,,a,1,0.6665,"[""0.240"",""0.824"",""0.589"",""0.894""]","[1,0,1,1]",0,39,39,39,1,0,1,,,0,FALSE,,,,,,,,,,,,,,,,,,,,,,,,,,,,,,,
,60bd4b684ae7e5aa8b9178fc,627c6f71a6de7b82bc23ca3c,2022-05-11_22h22.57.181,classification_task,2021.2.3,Win32,59.99880002,627c6715c52fd12f31907bcf,,,,,,,,,,,,,,,,,,,,,,,a,0,1.8697,"[""0.631"",""0.420"",""0.537"",""0.776""]","[0,1,1,1]",0,40,40,40,1,1,1,,,0,FALSE,,,,,,,,,,,,,,,,,,,,,,,,,,,,,,,
,60bd4b684ae7e5aa8b9178fc,627c6f71a6de7b82bc23ca3c,2022-05-11_22h22.57.181,classification_task,2021.2.3,Win32,59.99880002,627c6715c52fd12f31907bcf,,,,,,,,,,,,,,,,,,,,,,,a,1,0.8154,"[""0.630"",""0.375"",""0.932"",""0.968""]","[0,1,1,1]",0,41,41,41,1,0,0,,,0,FALSE,,,,,,,,,,,,,,,,,,,,,,,,,,,,,,,
,60bd4b684ae7e5aa8b9178fc,627c6f71a6de7b82bc23ca3c,2022-05-11_22h22.57.181,classification_task,2021.2.3,Win32,59.99880002,627c6715c52fd12f31907bcf,,,,,,,,,,,,,,,,,,,,,,,a,1,0.5553,"[""0.824"",""0.342"",""0.589"",""0.894""]","[0,1,1,1]",0,42,42,42,1,0,1,,,0,FALSE,,,,,,,,,,,,,,,,,,,,,,,,,,,,,,,
,60bd4b684ae7e5aa8b9178fc,627c6f71a6de7b82bc23ca3c,2022-05-11_22h22.57.181,classification_task,2021.2.3,Win32,59.99880002,627c6715c52fd12f31907bcf,,,,,,,,,,,,,,,,,,,,,,,l,1,1.2752,"[""0.150"",""0.819"",""0.537"",""0.776""]","[1,0,1,1]",0,43,43,43,1,1,1,,,0,FALSE,,,,,,,,,,,,,,,,,,,,,,,,,,,,,,,
,60bd4b684ae7e5aa8b9178fc,627c6f71a6de7b82bc23ca3c,2022-05-11_22h22.57.181,classification_task,2021.2.3,Win32,59.99880002,627c6715c52fd12f31907bcf,,,,,,,,,,,,,,,,,,,,,,,a,1,0.8779,"[""0.193"",""0.284"",""0.932"",""0.968""]","[1,0,1,1]",0,44,44,44,1,0,0,,,0,FALSE,,,,,,,,,,,,,,,,,,,,,,,,,,,,,,,
,60bd4b684ae7e5aa8b9178fc,627c6f71a6de7b82bc23ca3c,2022-05-11_22h22.57.181,classification_task,2021.2.3,Win32,59.99880002,627c6715c52fd12f31907bcf,,,,,,,,,,,,,,,,,,,,,,,l,0,0.6331,"[""0.240"",""0.342"",""0.302"",""0.894""]","[1,1,0,1]",0,45,45,45,1,0,1,,,0,FALSE,,,,,,,,,,,,,,,,,,,,,,,,,,,,,,,
,60bd4b684ae7e5aa8b9178fc,627c6f71a6de7b82bc23ca3c,2022-05-11_22h22.57.181,classification_task,2021.2.3,Win32,59.99880002,627c6715c52fd12f31907bcf,,,,,,,,,,,,,,,,,,,,,,,l,1,0.8873,"[""0.150"",""0.420"",""0.537"",""0.848""]","[1,1,1,0]",0,46,46,46,1,1,1,,,0,FALSE,,,,,,,,,,,,,,,,,,,,,,,,,,,,,,,
,60bd4b684ae7e5aa8b9178fc,627c6f71a6de7b82bc23ca3c,2022-05-11_22h22.57.181,classification_task,2021.2.3,Win32,59.99880002,627c6715c52fd12f31907bcf,,,,,,,,,,,,,,,,,,,,,,,l,1,0.6241,"[""0.027"",""0.065"",""0.819"",""0.725""]","[1,1,0,1]",0,47,47,47,1,1,0,,,0,FALSE,,,,,,,,,,,,,,,,,,,,,,,,,,,,,,,
,60bd4b684ae7e5aa8b9178fc,627c6f71a6de7b82bc23ca3c,2022-05-11_22h22.57.181,classification_task,2021.2.3,Win32,59.99880002,627c6715c52fd12f31907bcf,,,,,,,,,,,,,,,,,,,,,,,l,1,0.6612,"[""0.027"",""0.284"",""0.455"",""0.725""]","[1,0,1,1]",0,48,48,48,1,1,0,,,0,FALSE,,,,,,,,,,,,,,,,,,,,,,,,,,,,,,,
,60bd4b684ae7e5aa8b9178fc,627c6f71a6de7b82bc23ca3c,2022-05-11_22h22.57.181,classification_task,2021.2.3,Win32,59.99880002,627c6715c52fd12f31907bcf,,,,,,,,,,,,,,,,,,,,,,,a,0,2.6738,"[""0.150"",""0.420"",""0.284"",""0.776""]","[1,1,0,1]",0,49,49,49,1,1,1,,,0,FALSE,,,,,,,,,,,,,,,,,,,,,,,,,,,,,,,
,60bd4b684ae7e5aa8b9178fc,627c6f71a6de7b82bc23ca3c,2022-05-11_22h22.57.181,classification_task,2021.2.3,Win32,59.99880002,627c6715c52fd12f31907bcf,,,,,,,,,,,,,,,,,,,,,,,l,1,0.9021,"[""0.027"",""0.065"",""0.455"",""0.302""]","[1,1,1,0]",0,50,50,50,1,1,0,,,0,FALSE,,,,,,,,,,,,,,,,,,,,,,,,,,,,,,,
,60bd4b684ae7e5aa8b9178fc,627c6f71a6de7b82bc23ca3c,2022-05-11_22h22.57.181,classification_task,2021.2.3,Win32,59.99880002,627c6715c52fd12f31907bcf,,,,,,,,,,,,,,,,,,,,,,,l,1,0.4152,"[""0.027"",""0.065"",""0.644"",""0.725""]","[1,1,0,1]",0,51,51,51,1,1,0,,,0,FALSE,,,,,,,,,,,,,,,,,,,,,,,,,,,,,,,
,60bd4b684ae7e5aa8b9178fc,627c6f71a6de7b82bc23ca3c,2022-05-11_22h22.57.181,classification_task,2021.2.3,Win32,59.99880002,627c6715c52fd12f31907bcf,,,,,,,,,,,,,,,,,,,,,,,a,1,0.5408,"[""0.193"",""0.644"",""0.932"",""0.968""]","[1,0,1,1]",0,52,52,52,1,0,0,,,0,FALSE,,,,,,,,,,,,,,,,,,,,,,,,,,,,,,,
,60bd4b684ae7e5aa8b9178fc,627c6f71a6de7b82bc23ca3c,2022-05-11_22h22.57.181,classification_task,2021.2.3,Win32,59.99880002,627c6715c52fd12f31907bcf,,,,,,,,,,,,,,,,,,,,,,,l,1,0.7852,"[""0.284"",""0.420"",""0.537"",""0.776""]","[0,1,1,1]",0,53,53,53,1,1,1,,,0,FALSE,,,,,,,,,,,,,,,,,,,,,,,,,,,,,,,
,60bd4b684ae7e5aa8b9178fc,627c6f71a6de7b82bc23ca3c,2022-05-11_22h22.57.181,classification_task,2021.2.3,Win32,59.99880002,627c6715c52fd12f31907bcf,,,,,,,,,,,,,,,,,,,,,,,l,0,0.5662,"[""0.193"",""0.375"",""0.932"",""0.302""]","[1,1,1,0]",0,54,54,54,1,0,0,,,0,FALSE,,,,,,,,,,,,,,,,,,,,,,,,,,,,,,,
,60bd4b684ae7e5aa8b9178fc,627c6f71a6de7b82bc23ca3c,2022-05-11_22h22.57.181,classification_task,2021.2.3,Win32,59.99880002,627c6715c52fd12f31907bcf,,,,,,,,,,,,,,,,,,,,,,,a,1,0.6608,"[""0.193"",""0.375"",""0.281"",""0.968""]","[1,1,0,1]",0,55,55,55,1,0,0,,,0,FALSE,,,,,,,,,,,,,,,,,,,,,,,,,,,,,,,
,60bd4b684ae7e5aa8b9178fc,627c6f71a6de7b82bc23ca3c,2022-05-11_22h22.57.181,classification_task,2021.2.3,Win32,59.99880002,627c6715c52fd12f31907bcf,,,,,,,,,,,,,,,,,,,,,,,a,0,1.1962,"[""0.150"",""0.644"",""0.537"",""0.776""]","[1,0,1,1]",0,56,56,56,1,1,1,,,0,FALSE,,,,,,,,,,,,,,,,,,,,,,,,,,,,,,,
,60bd4b684ae7e5aa8b9178fc,627c6f71a6de7b82bc23ca3c,2022-05-11_22h22.57.181,classification_task,2021.2.3,Win32,59.99880002,627c6715c52fd12f31907bcf,,,,,,,,,,,,,,,,,,,,,,,l,0,1.0165,"[""0.240"",""0.342"",""0.589"",""0.644""]","[1,1,1,0]",0,57,57,57,1,0,1,,,0,FALSE,,,,,,,,,,,,,,,,,,,,,,,,,,,,,,,
,60bd4b684ae7e5aa8b9178fc,627c6f71a6de7b82bc23ca3c,2022-05-11_22h22.57.181,classification_task,2021.2.3,Win32,59.99880002,627c6715c52fd12f31907bcf,,,,,,,,,,,,,,,,,,,,,,,l,0,1.1201,"[""0.630"",""0.342"",""0.589"",""0.894""]","[0,1,1,1]",0,58,58,58,1,0,1,,,0,FALSE,,,,,,,,,,,,,,,,,,,,,,,,,,,,,,,
,60bd4b684ae7e5aa8b9178fc,627c6f71a6de7b82bc23ca3c,2022-05-11_22h22.57.181,classification_task,2021.2.3,Win32,59.99880002,627c6715c52fd12f31907bcf,,,,,,,,,,,,,,,,,,,,,,,a,1,1.4724,"[""0.240"",""0.342"",""0.824"",""0.894""]","[1,1,0,1]",0,59,59,59,1,0,1,,,0,FALSE,,,,,,,,,,,,,,,,,,,,,,,,,,,,,,,
,60bd4b684ae7e5aa8b9178fc,627c6f71a6de7b82bc23ca3c,2022-05-11_22h22.57.181,classification_task,2021.2.3,Win32,59.99880002,627c6715c52fd12f31907bcf,,,,,,,,,,,,,,,,,,,,,,,a,0,0.6323,"[""0.849"",""0.065"",""0.455"",""0.725""]","[0,1,1,1]",0,60,60,60,1,1,0,,,0,FALSE,,,,,,,,,,,,,,,,,,,,,,,,,,,,,,,
,60bd4b684ae7e5aa8b9178fc,627c6f71a6de7b82bc23ca3c,2022-05-11_22h22.57.181,classification_task,2021.2.3,Win32,59.99880002,627c6715c52fd12f31907bcf,,,,,,,,,,,,,,,,,,,,,,,a,1,0.6796,"[""0.240"",""0.819"",""0.589"",""0.894""]","[1,0,1,1]",0,61,61,61,1,0,1,,,0,FALSE,,,,,,,,,,,,,,,,,,,,,,,,,,,,,,,
,60bd4b684ae7e5aa8b9178fc,627c6f71a6de7b82bc23ca3c,2022-05-11_22h22.57.181,classification_task,2021.2.3,Win32,59.99880002,627c6715c52fd12f31907bcf,,,,,,,,,,,,,,,,,,,,,,,a,1,0.4741,"[""0.284"",""0.375"",""0.932"",""0.968""]","[0,1,1,1]",0,62,62,62,1,0,0,,,0,FALSE,,,,,,,,,,,,,,,,,,,,,,,,,,,,,,,
,60bd4b684ae7e5aa8b9178fc,627c6f71a6de7b82bc23ca3c,2022-05-11_22h22.57.181,classification_task,2021.2.3,Win32,59.99880002,627c6715c52fd12f31907bcf,,,,,,,,,,,,,,,,,,,,,,,a,0,1.2381,"[""0.150"",""0.420"",""0.537"",""0.824""]","[1,1,1,0]",0,63,63,63,1,1,1,,,0,FALSE,,,,,,,,,,,,,,,,,,,,,,,,,,,,,,,
,60bd4b684ae7e5aa8b9178fc,627c6f71a6de7b82bc23ca3c,2022-05-11_22h22.57.181,classification_task,2021.2.3,Win32,59.99880002,627c6715c52fd12f31907bcf,,,,,,,,,,,,,,,,,,,,,,,,,,,,,,,,,,,,,,,0, ,,0,6.077797374,169.9949,0,1,1,1,1,2,2,,,,,,,,,,,,,,,,,,
,60bd4b684ae7e5aa8b9178fc,627c6f71a6de7b82bc23ca3c,2022-05-11_22h22.57.181,classification_task,2021.2.3,Win32,59.99880002,627c6715c52fd12f31907bcf,,,,,,,,,,,,,,,,,,,,,,,,,,,,,,,,,,,,,,,1,  ,,0,0.394865765,165.0571,0,1,1,1,1,2,2,,,,,,,,,,,,,,,,,,
,60bd4b684ae7e5aa8b9178fc,627c6f71a6de7b82bc23ca3c,2022-05-11_22h22.57.181,classification_task,2021.2.3,Win32,59.99880002,627c6715c52fd12f31907bcf,,,,,,,,,,,,,,,,,,,,,,,,,,,,,,,,,,,,,,,2,  ,,0,6.298255928,178.096,0,1,1,1,1,2,2,,,,,,,,,,,,,,,,,,
,60bd4b684ae7e5aa8b9178fc,627c6f71a6de7b82bc23ca3c,2022-05-11_22h22.57.181,classification_task,2021.2.3,Win32,59.99880002,627c6715c52fd12f31907bcf,,,,,,,,,,,,,,,,,,,,,,,,,,,,,,,,,,,,,,,,,,,,,0,1,1,1,1,,2,,,,,,,,,,,,,,,,,,
,60bd4b684ae7e5aa8b9178fc,627c6f71a6de7b82bc23ca3c,2022-05-11_22h22.57.181,classification_task,2021.2.3,Win32,59.99880002,627c6715c52fd12f31907bcf,,,,,,,,,,,,,,,,,,,,,space,9.9796,l,0,1.3609,"[""0.240"",""0.342"",""0.589"",""0.644""]","[1,1,1,0]",0,0,0,0,1,0,1,,,0,FALSE,,,,,,,,,,,,,,,,,,,,,,,,,,,,,,,
,60bd4b684ae7e5aa8b9178fc,627c6f71a6de7b82bc23ca3c,2022-05-11_22h22.57.181,classification_task,2021.2.3,Win32,59.99880002,627c6715c52fd12f31907bcf,,,,,,,,,,,,,,,,,,,,,,,a,1,0.7091,"[""0.193"",""0.849"",""0.932"",""0.968""]","[1,0,1,1]",0,1,1,1,1,0,0,,,0,FALSE,,,,,,,,,,,,,,,,,,,,,,,,,,,,,,,
,60bd4b684ae7e5aa8b9178fc,627c6f71a6de7b82bc23ca3c,2022-05-11_22h22.57.181,classification_task,2021.2.3,Win32,59.99880002,627c6715c52fd12f31907bcf,,,,,,,,,,,,,,,,,,,,,,,a,0,1.2896,"[""0.631"",""0.420"",""0.537"",""0.776""]","[0,1,1,1]",0,2,2,2,1,1,1,,,0,FALSE,,,,,,,,,,,,,,,,,,,,,,,,,,,,,,,
,60bd4b684ae7e5aa8b9178fc,627c6f71a6de7b82bc23ca3c,2022-05-11_22h22.57.181,classification_task,2021.2.3,Win32,59.99880002,627c6715c52fd12f31907bcf,,,,,,,,,,,,,,,,,,,,,,,l,1,0.8854,"[""0.284"",""0.065"",""0.455"",""0.725""]","[0,1,1,1]",0,3,3,3,1,1,0,,,0,FALSE,,,,,,,,,,,,,,,,,,,,,,,,,,,,,,,
,60bd4b684ae7e5aa8b9178fc,627c6f71a6de7b82bc23ca3c,2022-05-11_22h22.57.181,classification_task,2021.2.3,Win32,59.99880002,627c6715c52fd12f31907bcf,,,,,,,,,,,,,,,,,,,,,,,a,1,0.4844,"[""0.848"",""0.375"",""0.932"",""0.968""]","[0,1,1,1]",0,4,4,4,1,0,0,,,0,FALSE,,,,,,,,,,,,,,,,,,,,,,,,,,,,,,,
,60bd4b684ae7e5aa8b9178fc,627c6f71a6de7b82bc23ca3c,2022-05-11_22h22.57.181,classification_task,2021.2.3,Win32,59.99880002,627c6715c52fd12f31907bcf,,,,,,,,,,,,,,,,,,,,,,,a,1,1.9649,"[""0.240"",""0.342"",""0.644"",""0.894""]","[1,1,0,1]",0,5,5,5,1,0,1,,,0,FALSE,,,,,,,,,,,,,,,,,,,,,,,,,,,,,,,
,60bd4b684ae7e5aa8b9178fc,627c6f71a6de7b82bc23ca3c,2022-05-11_22h22.57.181,classification_task,2021.2.3,Win32,59.99880002,627c6715c52fd12f31907bcf,,,,,,,,,,,,,,,,,,,,,,,a,1,0.6177,"[""0.193"",""0.375"",""0.642"",""0.968""]","[1,1,0,1]",0,6,6,6,1,0,0,,,0,FALSE,,,,,,,,,,,,,,,,,,,,,,,,,,,,,,,
,60bd4b684ae7e5aa8b9178fc,627c6f71a6de7b82bc23ca3c,2022-05-11_22h22.57.181,classification_task,2021.2.3,Win32,59.99880002,627c6715c52fd12f31907bcf,,,,,,,,,,,,,,,,,,,,,,,l,1,0.4001,"[""0.027"",""0.065"",""0.455"",""0.286""]","[1,1,1,0]",0,7,7,7,1,1,0,,,0,FALSE,,,,,,,,,,,,,,,,,,,,,,,,,,,,,,,
,60bd4b684ae7e5aa8b9178fc,627c6f71a6de7b82bc23ca3c,2022-05-11_22h22.57.181,classification_task,2021.2.3,Win32,59.99880002,627c6715c52fd12f31907bcf,,,,,,,,,,,,,,,,,,,,,,,a,0,1.2673,"[""0.150"",""0.420"",""0.284"",""0.776""]","[1,1,0,1]",0,8,8,8,1,1,1,,,0,FALSE,,,,,,,,,,,,,,,,,,,,,,,,,,,,,,,
,60bd4b684ae7e5aa8b9178fc,627c6f71a6de7b82bc23ca3c,2022-05-11_22h22.57.181,classification_task,2021.2.3,Win32,59.99880002,627c6715c52fd12f31907bcf,,,,,,,,,,,,,,,,,,,,,,,a,1,0.8178,"[""0.240"",""0.302"",""0.589"",""0.894""]","[1,0,1,1]",0,9,9,9,1,0,1,,,0,FALSE,,,,,,,,,,,,,,,,,,,,,,,,,,,,,,,
,60bd4b684ae7e5aa8b9178fc,627c6f71a6de7b82bc23ca3c,2022-05-11_22h22.57.181,classification_task,2021.2.3,Win32,59.99880002,627c6715c52fd12f31907bcf,,,,,,,,,,,,,,,,,,,,,,,l,1,1.1148,"[""0.150"",""0.420"",""0.537"",""0.284""]","[1,1,1,0]",0,10,10,10,1,1,1,,,0,FALSE,,,,,,,,,,,,,,,,,,,,,,,,,,,,,,,
,60bd4b684ae7e5aa8b9178fc,627c6f71a6de7b82bc23ca3c,2022-05-11_22h22.57.181,classification_task,2021.2.3,Win32,59.99880002,627c6715c52fd12f31907bcf,,,,,,,,,,,,,,,,,,,,,,,l,1,0.8829,"[""0.027"",""0.302"",""0.455"",""0.725""]","[1,0,1,1]",0,11,11,11,1,1,0,,,0,FALSE,,,,,,,,,,,,,,,,,,,,,,,,,,,,,,,
,60bd4b684ae7e5aa8b9178fc,627c6f71a6de7b82bc23ca3c,2022-05-11_22h22.57.181,classification_task,2021.2.3,Win32,59.99880002,627c6715c52fd12f31907bcf,,,,,,,,,,,,,,,,,,,,,,,l,1,1.0859,"[""0.150"",""0.284"",""0.537"",""0.776""]","[1,0,1,1]",0,12,12,12,1,1,1,,,0,FALSE,,,,,,,,,,,,,,,,,,,,,,,,,,,,,,,
,60bd4b684ae7e5aa8b9178fc,627c6f71a6de7b82bc23ca3c,2022-05-11_22h22.57.181,classification_task,2021.2.3,Win32,59.99880002,627c6715c52fd12f31907bcf,,,,,,,,,,,,,,,,,,,,,,,a,1,0.638,"[""0.193"",""0.375"",""0.932"",""0.849""]","[1,1,1,0]",0,13,13,13,1,0,0,,,0,FALSE,,,,,,,,,,,,,,,,,,,,,,,,,,,,,,,
,60bd4b684ae7e5aa8b9178fc,627c6f71a6de7b82bc23ca3c,2022-05-11_22h22.57.181,classification_task,2021.2.3,Win32,59.99880002,627c6715c52fd12f31907bcf,,,,,,,,,,,,,,,,,,,,,,,a,1,0.731,"[""0.302"",""0.342"",""0.589"",""0.894""]","[0,1,1,1]",0,14,14,14,1,0,1,,,0,FALSE,,,,,,,,,,,,,,,,,,,,,,,,,,,,,,,
,60bd4b684ae7e5aa8b9178fc,627c6f71a6de7b82bc23ca3c,2022-05-11_22h22.57.181,classification_task,2021.2.3,Win32,59.99880002,627c6715c52fd12f31907bcf,,,,,,,,,,,,,,,,,,,,,,,l,1,0.618,"[""0.027"",""0.065"",""0.630"",""0.725""]","[1,1,0,1]",0,15,15,15,1,1,0,,,0,FALSE,,,,,,,,,,,,,,,,,,,,,,,,,,,,,,,
,60bd4b684ae7e5aa8b9178fc,627c6f71a6de7b82bc23ca3c,2022-05-11_22h22.57.181,classification_task,2021.2.3,Win32,59.99880002,627c6715c52fd12f31907bcf,,,,,,,,,,,,,,,,,,,,,,,l,1,0.552,"[""0.027"",""0.065"",""0.455"",""0.824""]","[1,1,1,0]",0,16,16,16,1,1,0,,,0,FALSE,,,,,,,,,,,,,,,,,,,,,,,,,,,,,,,
,60bd4b684ae7e5aa8b9178fc,627c6f71a6de7b82bc23ca3c,2022-05-11_22h22.57.181,classification_task,2021.2.3,Win32,59.99880002,627c6715c52fd12f31907bcf,,,,,,,,,,,,,,,,,,,,,,,a,0,1.7849,"[""0.150"",""0.420"",""0.644"",""0.776""]","[1,1,0,1]",0,17,17,17,1,1,1,,,0,FALSE,,,,,,,,,,,,,,,,,,,,,,,,,,,,,,,
,60bd4b684ae7e5aa8b9178fc,627c6f71a6de7b82bc23ca3c,2022-05-11_22h22.57.181,classification_task,2021.2.3,Win32,59.99880002,627c6715c52fd12f31907bcf,,,,,,,,,,,,,,,,,,,,,,,a,1,0.7056,"[""0.193"",""0.375"",""0.932"",""0.286""]","[1,1,1,0]",0,18,18,18,1,0,0,,,0,FALSE,,,,,,,,,,,,,,,,,,,,,,,,,,,,,,,
,60bd4b684ae7e5aa8b9178fc,627c6f71a6de7b82bc23ca3c,2022-05-11_22h22.57.181,classification_task,2021.2.3,Win32,59.99880002,627c6715c52fd12f31907bcf,,,,,,,,,,,,,,,,,,,,,,,l,1,0.6066,"[""0.098"",""0.065"",""0.455"",""0.725""]","[0,1,1,1]",0,19,19,19,1,1,0,,,0,FALSE,,,,,,,,,,,,,,,,,,,,,,,,,,,,,,,
,60bd4b684ae7e5aa8b9178fc,627c6f71a6de7b82bc23ca3c,2022-05-11_22h22.57.181,classification_task,2021.2.3,Win32,59.99880002,627c6715c52fd12f31907bcf,,,,,,,,,,,,,,,,,,,,,,,l,1,0.6831,"[""0.150"",""0.284"",""0.537"",""0.776""]","[1,0,1,1]",0,20,20,20,1,1,1,,,0,FALSE,,,,,,,,,,,,,,,,,,,,,,,,,,,,,,,
,60bd4b684ae7e5aa8b9178fc,627c6f71a6de7b82bc23ca3c,2022-05-11_22h22.57.181,classification_task,2021.2.3,Win32,59.99880002,627c6715c52fd12f31907bcf,,,,,,,,,,,,,,,,,,,,,,,a,1,0.65,"[""0.631"",""0.375"",""0.932"",""0.968""]","[0,1,1,1]",0,21,21,21,1,0,0,,,0,FALSE,,,,,,,,,,,,,,,,,,,,,,,,,,,,,,,
,60bd4b684ae7e5aa8b9178fc,627c6f71a6de7b82bc23ca3c,2022-05-11_22h22.57.181,classification_task,2021.2.3,Win32,59.99880002,627c6715c52fd12f31907bcf,,,,,,,,,,,,,,,,,,,,,,,a,1,0.6689,"[""0.286"",""0.342"",""0.589"",""0.894""]","[0,1,1,1]",0,22,22,22,1,0,1,,,0,FALSE,,,,,,,,,,,,,,,,,,,,,,,,,,,,,,,
,60bd4b684ae7e5aa8b9178fc,627c6f71a6de7b82bc23ca3c,2022-05-11_22h22.57.181,classification_task,2021.2.3,Win32,59.99880002,627c6715c52fd12f31907bcf,,,,,,,,,,,,,,,,,,,,,,,l,1,0.8663,"[""0.027"",""0.302"",""0.455"",""0.725""]","[1,0,1,1]",0,23,23,23,1,1,0,,,0,FALSE,,,,,,,,,,,,,,,,,,,,,,,,,,,,,,,
,60bd4b684ae7e5aa8b9178fc,627c6f71a6de7b82bc23ca3c,2022-05-11_22h22.57.181,classification_task,2021.2.3,Win32,59.99880002,627c6715c52fd12f31907bcf,,,,,,,,,,,,,,,,,,,,,,,a,1,1.1185,"[""0.193"",""0.819"",""0.932"",""0.968""]","[1,0,1,1]",0,24,24,24,1,0,0,,,0,FALSE,,,,,,,,,,,,,,,,,,,,,,,,,,,,,,,
,60bd4b684ae7e5aa8b9178fc,627c6f71a6de7b82bc23ca3c,2022-05-11_22h22.57.181,classification_task,2021.2.3,Win32,59.99880002,627c6715c52fd12f31907bcf,,,,,,,,,,,,,,,,,,,,,,,a,1,0.5725,"[""0.193"",""0.375"",""0.819"",""0.968""]","[1,1,0,1]",0,25,25,25,1,0,0,,,0,FALSE,,,,,,,,,,,,,,,,,,,,,,,,,,,,,,,
,60bd4b684ae7e5aa8b9178fc,627c6f71a6de7b82bc23ca3c,2022-05-11_22h22.57.181,classification_task,2021.2.3,Win32,59.99880002,627c6715c52fd12f31907bcf,,,,,,,,,,,,,,,,,,,,,,,a,0,0.7908,"[""0.848"",""0.420"",""0.537"",""0.776""]","[0,1,1,1]",0,26,26,26,1,1,1,,,0,FALSE,,,,,,,,,,,,,,,,,,,,,,,,,,,,,,,
,60bd4b684ae7e5aa8b9178fc,627c6f71a6de7b82bc23ca3c,2022-05-11_22h22.57.181,classification_task,2021.2.3,Win32,59.99880002,627c6715c52fd12f31907bcf,,,,,,,,,,,,,,,,,,,,,,,a,1,0.8474,"[""0.240"",""0.281"",""0.589"",""0.894""]","[1,0,1,1]",0,27,27,27,1,0,1,,,0,FALSE,,,,,,,,,,,,,,,,,,,,,,,,,,,,,,,
,60bd4b684ae7e5aa8b9178fc,627c6f71a6de7b82bc23ca3c,2022-05-11_22h22.57.181,classification_task,2021.2.3,Win32,59.99880002,627c6715c52fd12f31907bcf,,,,,,,,,,,,,,,,,,,,,,,l,1,0.6333,"[""0.027"",""0.065"",""0.644"",""0.725""]","[1,1,0,1]",0,28,28,28,1,1,0,,,0,FALSE,,,,,,,,,,,,,,,,,,,,,,,,,,,,,,,
,60bd4b684ae7e5aa8b9178fc,627c6f71a6de7b82bc23ca3c,2022-05-11_22h22.57.181,classification_task,2021.2.3,Win32,59.99880002,627c6715c52fd12f31907bcf,,,,,,,,,,,,,,,,,,,,,,,l,0,1.3008,"[""0.240"",""0.342"",""0.589"",""0.819""]","[1,1,1,0]",0,29,29,29,1,0,1,,,0,FALSE,,,,,,,,,,,,,,,,,,,,,,,,,,,,,,,
,60bd4b684ae7e5aa8b9178fc,627c6f71a6de7b82bc23ca3c,2022-05-11_22h22.57.181,classification_task,2021.2.3,Win32,59.99880002,627c6715c52fd12f31907bcf,,,,,,,,,,,,,,,,,,,,,,,a,0,3.7867,"[""0.150"",""0.420"",""0.537"",""0.281""]","[1,1,1,0]",0,30,30,30,1,1,1,,,0,FALSE,,,,,,,,,,,,,,,,,,,,,,,,,,,,,,,
,60bd4b684ae7e5aa8b9178fc,627c6f71a6de7b82bc23ca3c,2022-05-11_22h22.57.181,classification_task,2021.2.3,Win32,59.99880002,627c6715c52fd12f31907bcf,,,,,,,,,,,,,,,,,,,,,,,a,1,0.6683,"[""0.240"",""0.342"",""0.284"",""0.894""]","[1,1,0,1]",0,31,31,31,1,0,1,,,0,FALSE,,,,,,,,,,,,,,,,,,,,,,,,,,,,,,,
,60bd4b684ae7e5aa8b9178fc,627c6f71a6de7b82bc23ca3c,2022-05-11_22h22.57.181,classification_task,2021.2.3,Win32,59.99880002,627c6715c52fd12f31907bcf,,,,,,,,,,,,,,,,,,,,,,,a,1,0.5338,"[""0.240"",""0.342"",""0.630"",""0.894""]","[1,1,0,1]",0,32,32,32,1,0,1,,,0,FALSE,,,,,,,,,,,,,,,,,,,,,,,,,,,,,,,
,60bd4b684ae7e5aa8b9178fc,627c6f71a6de7b82bc23ca3c,2022-05-11_22h22.57.181,classification_task,2021.2.3,Win32,59.99880002,627c6715c52fd12f31907bcf,,,,,,,,,,,,,,,,,,,,,,,a,1,1.368,"[""0.193"",""0.375"",""0.824"",""0.968""]","[1,1,0,1]",0,33,33,33,1,0,0,,,0,FALSE,,,,,,,,,,,,,,,,,,,,,,,,,,,,,,,
,60bd4b684ae7e5aa8b9178fc,627c6f71a6de7b82bc23ca3c,2022-05-11_22h22.57.181,classification_task,2021.2.3,Win32,59.99880002,627c6715c52fd12f31907bcf,,,,,,,,,,,,,,,,,,,,,,,l,0,1.5689,"[""0.240"",""0.342"",""0.589"",""0.644""]","[1,1,1,0]",0,34,34,34,1,0,1,,,0,FALSE,,,,,,,,,,,,,,,,,,,,,,,,,,,,,,,
,60bd4b684ae7e5aa8b9178fc,627c6f71a6de7b82bc23ca3c,2022-05-11_22h22.57.181,classification_task,2021.2.3,Win32,59.99880002,627c6715c52fd12f31907bcf,,,,,,,,,,,,,,,,,,,,,,,a,1,0.4789,"[""0.642"",""0.375"",""0.932"",""0.968""]","[0,1,1,1]",0,35,35,35,1,0,0,,,0,FALSE,,,,,,,,,,,,,,,,,,,,,,,,,,,,,,,
,60bd4b684ae7e5aa8b9178fc,627c6f71a6de7b82bc23ca3c,2022-05-11_22h22.57.181,classification_task,2021.2.3,Win32,59.99880002,627c6715c52fd12f31907bcf,,,,,,,,,,,,,,,,,,,,,,,a,0,4.1367,"[""0.281"",""0.065"",""0.455"",""0.725""]","[0,1,1,1]",0,36,36,36,1,1,0,,,0,FALSE,,,,,,,,,,,,,,,,,,,,,,,,,,,,,,,
,60bd4b684ae7e5aa8b9178fc,627c6f71a6de7b82bc23ca3c,2022-05-11_22h22.57.181,classification_task,2021.2.3,Win32,59.99880002,627c6715c52fd12f31907bcf,,,,,,,,,,,,,,,,,,,,,,,l,1,0.9925,"[""0.150"",""0.420"",""0.537"",""0.849""]","[1,1,1,0]",0,37,37,37,1,1,1,,,0,FALSE,,,,,,,,,,,,,,,,,,,,,,,,,,,,,,,
,60bd4b684ae7e5aa8b9178fc,627c6f71a6de7b82bc23ca3c,2022-05-11_22h22.57.181,classification_task,2021.2.3,Win32,59.99880002,627c6715c52fd12f31907bcf,,,,,,,,,,,,,,,,,,,,,,,l,1,0.5345,"[""0.027"",""0.065"",""0.644"",""0.725""]","[1,1,0,1]",0,38,38,38,1,1,0,,,0,FALSE,,,,,,,,,,,,,,,,,,,,,,,,,,,,,,,
,60bd4b684ae7e5aa8b9178fc,627c6f71a6de7b82bc23ca3c,2022-05-11_22h22.57.181,classification_task,2021.2.3,Win32,59.99880002,627c6715c52fd12f31907bcf,,,,,,,,,,,,,,,,,,,,,,,a,0,0.9668,"[""0.302"",""0.420"",""0.537"",""0.776""]","[0,1,1,1]",0,39,39,39,1,1,1,,,0,FALSE,,,,,,,,,,,,,,,,,,,,,,,,,,,,,,,
,60bd4b684ae7e5aa8b9178fc,627c6f71a6de7b82bc23ca3c,2022-05-11_22h22.57.181,classification_task,2021.2.3,Win32,59.99880002,627c6715c52fd12f31907bcf,,,,,,,,,,,,,,,,,,,,,,,a,1,0.99,"[""0.240"",""0.630"",""0.589"",""0.894""]","[1,0,1,1]",0,40,40,40,1,0,1,,,0,FALSE,,,,,,,,,,,,,,,,,,,,,,,,,,,,,,,
,60bd4b684ae7e5aa8b9178fc,627c6f71a6de7b82bc23ca3c,2022-05-11_22h22.57.181,classification_task,2021.2.3,Win32,59.99880002,627c6715c52fd12f31907bcf,,,,,,,,,,,,,,,,,,,,,,,l,1,0.4177,"[""0.027"",""0.065"",""0.455"",""0.644""]","[1,1,1,0]",0,41,41,41,1,1,0,,,0,FALSE,,,,,,,,,,,,,,,,,,,,,,,,,,,,,,,
,60bd4b684ae7e5aa8b9178fc,627c6f71a6de7b82bc23ca3c,2022-05-11_22h22.57.181,classification_task,2021.2.3,Win32,59.99880002,627c6715c52fd12f31907bcf,,,,,,,,,,,,,,,,,,,,,,,l,1,1.0664,"[""0.150"",""0.098"",""0.537"",""0.776""]","[1,0,1,1]",0,42,42,42,1,1,1,,,0,FALSE,,,,,,,,,,,,,,,,,,,,,,,,,,,,,,,
,60bd4b684ae7e5aa8b9178fc,627c6f71a6de7b82bc23ca3c,2022-05-11_22h22.57.181,classification_task,2021.2.3,Win32,59.99880002,627c6715c52fd12f31907bcf,,,,,,,,,,,,,,,,,,,,,,,a,1,0.669,"[""0.193"",""0.375"",""0.932"",""0.286""]","[1,1,1,0]",0,43,43,43,1,0,0,,,0,FALSE,,,,,,,,,,,,,,,,,,,,,,,,,,,,,,,
,60bd4b684ae7e5aa8b9178fc,627c6f71a6de7b82bc23ca3c,2022-05-11_22h22.57.181,classification_task,2021.2.3,Win32,59.99880002,627c6715c52fd12f31907bcf,,,,,,,,,,,,,,,,,,,,,,,l,1,5.1053,"[""0.150"",""0.420"",""0.849"",""0.776""]","[1,1,0,1]",0,44,44,44,1,1,1,,,0,FALSE,,,,,,,,,,,,,,,,,,,,,,,,,,,,,,,
,60bd4b684ae7e5aa8b9178fc,627c6f71a6de7b82bc23ca3c,2022-05-11_22h22.57.181,classification_task,2021.2.3,Win32,59.99880002,627c6715c52fd12f31907bcf,,,,,,,,,,,,,,,,,,,,,,,l,0,2.236,"[""0.098"",""0.342"",""0.589"",""0.894""]","[0,1,1,1]",0,45,45,45,1,0,1,,,0,FALSE,,,,,,,,,,,,,,,,,,,,,,,,,,,,,,,
,60bd4b684ae7e5aa8b9178fc,627c6f71a6de7b82bc23ca3c,2022-05-11_22h22.57.181,classification_task,2021.2.3,Win32,59.99880002,627c6715c52fd12f31907bcf,,,,,,,,,,,,,,,,,,,,,,,a,1,0.9502,"[""0.193"",""0.848"",""0.932"",""0.968""]","[1,0,1,1]",0,46,46,46,1,0,0,,,0,FALSE,,,,,,,,,,,,,,,,,,,,,,,,,,,,,,,
,60bd4b684ae7e5aa8b9178fc,627c6f71a6de7b82bc23ca3c,2022-05-11_22h22.57.181,classification_task,2021.2.3,Win32,59.99880002,627c6715c52fd12f31907bcf,,,,,,,,,,,,,,,,,,,,,,,l,1,0.5677,"[""0.027"",""0.644"",""0.455"",""0.725""]","[1,0,1,1]",0,47,47,47,1,1,0,,,0,FALSE,,,,,,,,,,,,,,,,,,,,,,,,,,,,,,,
,60bd4b684ae7e5aa8b9178fc,627c6f71a6de7b82bc23ca3c,2022-05-11_22h22.57.181,classification_task,2021.2.3,Win32,59.99880002,627c6715c52fd12f31907bcf,,,,,,,,,,,,,,,,,,,,,,,a,1,1.0336,"[""0.240"",""0.342"",""0.589"",""0.281""]","[1,1,1,0]",0,48,48,48,1,0,1,,,0,FALSE,,,,,,,,,,,,,,,,,,,,,,,,,,,,,,,
,60bd4b684ae7e5aa8b9178fc,627c6f71a6de7b82bc23ca3c,2022-05-11_22h22.57.181,classification_task,2021.2.3,Win32,59.99880002,627c6715c52fd12f31907bcf,,,,,,,,,,,,,,,,,,,,,,,l,1,0.6175,"[""0.027"",""0.065"",""0.630"",""0.725""]","[1,1,0,1]",0,49,49,49,1,1,0,,,0,FALSE,,,,,,,,,,,,,,,,,,,,,,,,,,,,,,,
,60bd4b684ae7e5aa8b9178fc,627c6f71a6de7b82bc23ca3c,2022-05-11_22h22.57.181,classification_task,2021.2.3,Win32,59.99880002,627c6715c52fd12f31907bcf,,,,,,,,,,,,,,,,,,,,,,,a,1,0.6338,"[""0.240"",""0.342"",""0.677"",""0.894""]","[1,1,0,1]",0,50,50,50,1,0,1,,,0,FALSE,,,,,,,,,,,,,,,,,,,,,,,,,,,,,,,
,60bd4b684ae7e5aa8b9178fc,627c6f71a6de7b82bc23ca3c,2022-05-11_22h22.57.181,classification_task,2021.2.3,Win32,59.99880002,627c6715c52fd12f31907bcf,,,,,,,,,,,,,,,,,,,,,,,a,1,0.522,"[""0.284"",""0.342"",""0.589"",""0.894""]","[0,1,1,1]",0,51,51,51,1,0,1,,,0,FALSE,,,,,,,,,,,,,,,,,,,,,,,,,,,,,,,
,60bd4b684ae7e5aa8b9178fc,627c6f71a6de7b82bc23ca3c,2022-05-11_22h22.57.181,classification_task,2021.2.3,Win32,59.99880002,627c6715c52fd12f31907bcf,,,,,,,,,,,,,,,,,,,,,,,l,1,1.3814,"[""0.819"",""0.420"",""0.537"",""0.776""]","[0,1,1,1]",0,52,52,52,1,1,1,,,0,FALSE,,,,,,,,,,,,,,,,,,,,,,,,,,,,,,,
,60bd4b684ae7e5aa8b9178fc,627c6f71a6de7b82bc23ca3c,2022-05-11_22h22.57.181,classification_task,2021.2.3,Win32,59.99880002,627c6715c52fd12f31907bcf,,,,,,,,,,,,,,,,,,,,,,,a,1,0.5863,"[""0.193"",""0.375"",""0.631"",""0.968""]","[1,1,0,1]",0,53,53,53,1,0,0,,,0,FALSE,,,,,,,,,,,,,,,,,,,,,,,,,,,,,,,
,60bd4b684ae7e5aa8b9178fc,627c6f71a6de7b82bc23ca3c,2022-05-11_22h22.57.181,classification_task,2021.2.3,Win32,59.99880002,627c6715c52fd12f31907bcf,,,,,,,,,,,,,,,,,,,,,,,l,1,0.5304,"[""0.027"",""0.065"",""0.455"",""0.281""]","[1,1,1,0]",0,54,54,54,1,1,0,,,0,FALSE,,,,,,,,,,,,,,,,,,,,,,,,,,,,,,,
,60bd4b684ae7e5aa8b9178fc,627c6f71a6de7b82bc23ca3c,2022-05-11_22h22.57.181,classification_task,2021.2.3,Win32,59.99880002,627c6715c52fd12f31907bcf,,,,,,,,,,,,,,,,,,,,,,,l,1,0.8512,"[""0.281"",""0.065"",""0.455"",""0.725""]","[0,1,1,1]",0,55,55,55,1,1,0,,,0,FALSE,,,,,,,,,,,,,,,,,,,,,,,,,,,,,,,
,60bd4b684ae7e5aa8b9178fc,627c6f71a6de7b82bc23ca3c,2022-05-11_22h22.57.181,classification_task,2021.2.3,Win32,59.99880002,627c6715c52fd12f31907bcf,,,,,,,,,,,,,,,,,,,,,,,a,1,0.4498,"[""0.193"",""0.644"",""0.932"",""0.968""]","[1,0,1,1]",0,56,56,56,1,0,0,,,0,FALSE,,,,,,,,,,,,,,,,,,,,,,,,,,,,,,,
,60bd4b684ae7e5aa8b9178fc,627c6f71a6de7b82bc23ca3c,2022-05-11_22h22.57.181,classification_task,2021.2.3,Win32,59.99880002,627c6715c52fd12f31907bcf,,,,,,,,,,,,,,,,,,,,,,,a,0,0.9736,"[""0.150"",""0.420"",""0.677"",""0.776""]","[1,1,0,1]",0,57,57,57,1,1,1,,,0,FALSE,,,,,,,,,,,,,,,,,,,,,,,,,,,,,,,
,60bd4b684ae7e5aa8b9178fc,627c6f71a6de7b82bc23ca3c,2022-05-11_22h22.57.181,classification_task,2021.2.3,Win32,59.99880002,627c6715c52fd12f31907bcf,,,,,,,,,,,,,,,,,,,,,,,l,1,0.8725,"[""0.027"",""0.819"",""0.455"",""0.725""]","[1,0,1,1]",0,58,58,58,1,1,0,,,0,FALSE,,,,,,,,,,,,,,,,,,,,,,,,,,,,,,,
,60bd4b684ae7e5aa8b9178fc,627c6f71a6de7b82bc23ca3c,2022-05-11_22h22.57.181,classification_task,2021.2.3,Win32,59.99880002,627c6715c52fd12f31907bcf,,,,,,,,,,,,,,,,,,,,,,,a,1,0.6184,"[""0.240"",""0.284"",""0.589"",""0.894""]","[1,0,1,1]",0,59,59,59,1,0,1,,,0,FALSE,,,,,,,,,,,,,,,,,,,,,,,,,,,,,,,
,60bd4b684ae7e5aa8b9178fc,627c6f71a6de7b82bc23ca3c,2022-05-11_22h22.57.181,classification_task,2021.2.3,Win32,59.99880002,627c6715c52fd12f31907bcf,,,,,,,,,,,,,,,,,,,,,,,a,1,0.5346,"[""0.284"",""0.375"",""0.932"",""0.968""]","[0,1,1,1]",0,60,60,60,1,0,0,,,0,FALSE,,,,,,,,,,,,,,,,,,,,,,,,,,,,,,,
,60bd4b684ae7e5aa8b9178fc,627c6f71a6de7b82bc23ca3c,2022-05-11_22h22.57.181,classification_task,2021.2.3,Win32,59.99880002,627c6715c52fd12f31907bcf,,,,,,,,,,,,,,,,,,,,,,,a,0,1.236,"[""0.150"",""0.284"",""0.537"",""0.776""]","[1,0,1,1]",0,61,61,61,1,1,1,,,0,FALSE,,,,,,,,,,,,,,,,,,,,,,,,,,,,,,,
,60bd4b684ae7e5aa8b9178fc,627c6f71a6de7b82bc23ca3c,2022-05-11_22h22.57.181,classification_task,2021.2.3,Win32,59.99880002,627c6715c52fd12f31907bcf,,,,,,,,,,,,,,,,,,,,,,,l,1,0.7667,"[""0.150"",""0.420"",""0.537"",""0.819""]","[1,1,1,0]",0,62,62,62,1,1,1,,,0,FALSE,,,,,,,,,,,,,,,,,,,,,,,,,,,,,,,
,60bd4b684ae7e5aa8b9178fc,627c6f71a6de7b82bc23ca3c,2022-05-11_22h22.57.181,classification_task,2021.2.3,Win32,59.99880002,627c6715c52fd12f31907bcf,,,,,,,,,,,,,,,,,,,,,,,a,1,1.447,"[""0.193"",""0.375"",""0.932"",""0.098""]","[1,1,1,0]",0,63,63,63,1,0,0,,,0,FALSE,,,,,,,,,,,,,,,,,,,,,,,,,,,,,,,
,60bd4b684ae7e5aa8b9178fc,627c6f71a6de7b82bc23ca3c,2022-05-11_22h22.57.181,classification_task,2021.2.3,Win32,59.99880002,627c6715c52fd12f31907bcf,,,,,,,,,,,,,,,,,,,,,,,,,,,,,,,,,,,,,,,0, ,,0,4.681559867,146.1093,0,2,2,2,1,2,3,,,,,,,,,,,,,,,,,,
,60bd4b684ae7e5aa8b9178fc,627c6f71a6de7b82bc23ca3c,2022-05-11_22h22.57.181,classification_task,2021.2.3,Win32,59.99880002,627c6715c52fd12f31907bcf,,,,,,,,,,,,,,,,,,,,,,,,,,,,,,,,,,,,,,,1,  ,,0,8.110915148,149.5793,0,2,2,2,1,2,3,,,,,,,,,,,,,,,,,,
,60bd4b684ae7e5aa8b9178fc,627c6f71a6de7b82bc23ca3c,2022-05-11_22h22.57.181,classification_task,2021.2.3,Win32,59.99880002,627c6715c52fd12f31907bcf,,,,,,,,,,,,,,,,,,,,,,,,,,,,,,,,,,,,,,,2,  ,,0,6.249265138,155.2346,0,2,2,2,1,2,3,,,,,,,,,,,,,,,,,,
,60bd4b684ae7e5aa8b9178fc,627c6f71a6de7b82bc23ca3c,2022-05-11_22h22.57.181,classification_task,2021.2.3,Win32,59.99880002,627c6715c52fd12f31907bcf,,,,,,,,,,,,,,,,,,,,,,,,,,,,,,,,,,,,,,,,,,,,,0,2,2,2,1,,3,,,,,,,,,,,,,,,,,,
,60bd4b684ae7e5aa8b9178fc,627c6f71a6de7b82bc23ca3c,2022-05-11_22h22.57.181,classification_task,2021.2.3,Win32,59.99880002,627c6715c52fd12f31907bcf,,,,,,,,,,,,,,,,,,,,,,,,,,,,,,,,,,,,,,,,,,,,,,,,,,,,,I believe the aid is a competent performer,,0.7,0,3,813.3504,0,0,0,0,1,0,,,,,
,60bd4b684ae7e5aa8b9178fc,627c6f71a6de7b82bc23ca3c,2022-05-11_22h22.57.181,classification_task,2021.2.3,Win32,59.99880002,627c6715c52fd12f31907bcf,,,,,,,,,,,,,,,,,,,,,,,,,,,,,,,,,,,,,,,,,,,,,,,,,,,,,I trust the aid,,0.7,0,5,814.5415,0,0,0,0,1,0,,,,,
,60bd4b684ae7e5aa8b9178fc,627c6f71a6de7b82bc23ca3c,2022-05-11_22h22.57.181,classification_task,2021.2.3,Win32,59.99880002,627c6715c52fd12f31907bcf,,,,,,,,,,,,,,,,,,,,,,,,,,,,,,,,,,,,,,,,,,,,,,,,,,,,,I have confidence in the advice given by the aid,,0.7,0,5,817.5681,0,0,0,0,1,0,,,,,
,60bd4b684ae7e5aa8b9178fc,627c6f71a6de7b82bc23ca3c,2022-05-11_22h22.57.181,classification_task,2021.2.3,Win32,59.99880002,627c6715c52fd12f31907bcf,,,,,,,,,,,,,,,,,,,,,,,,,,,,,,,,,,,,,,,,,,,,,,,,,,,,,I can depend on the aid,,0.7,0,5,822.121,0,0,0,0,1,0,,,,,
,60bd4b684ae7e5aa8b9178fc,627c6f71a6de7b82bc23ca3c,2022-05-11_22h22.57.181,classification_task,2021.2.3,Win32,59.99880002,627c6715c52fd12f31907bcf,,,,,,,,,,,,,,,,,,,,,,,,,,,,,,,,,,,,,,,,,,,,,,,,,,,,,I can rely on the aid to behave in consistent ways,,0.7,0,5,823.7016,0,0,0,0,1,0,,,,,
,60bd4b684ae7e5aa8b9178fc,627c6f71a6de7b82bc23ca3c,2022-05-11_22h22.57.181,classification_task,2021.2.3,Win32,59.99880002,627c6715c52fd12f31907bcf,,,,,,,,,,,,,,,,,,,,,,,,,,,,,,,,,,,,,,,,,,,,,,,,,,,,,I can rely on the aid to do its best every time I take its advice,,0.7,0,5,825.4263,0,0,0,0,1,0,,,,,
,60bd4b684ae7e5aa8b9178fc,627c6f71a6de7b82bc23ca3c,2022-05-11_22h22.57.181,classification_task,2021.2.3,Win32,59.99880002,627c6715c52fd12f31907bcf,,,,,,,,,,,,,,,,,,,,,,,,,,,,,,,,,,,,,,,,,,,,,,,,,,,,,"On trials you completed with assistance from the aid, how frequently did you think the aid was correct?",,0.7,0,100%,,0,0,0,0,1,0,,,,,
,60bd4b684ae7e5aa8b9178fc,627c6f71a6de7b82bc23ca3c,2022-05-11_22h22.57.181,classification_task,2021.2.3,Win32,59.99880002,627c6715c52fd12f31907bcf,,,,,,,,,,,,,,,,,,,,,,,,,,,,,,,,,,,,,,,,,,,,,,,,,,,,,"On trials you completed without the aid, how frequently did you think you were correct?",,0.7,0,70%,,0,0,0,0,1,0,,,,,
,60bd4b684ae7e5aa8b9178fc,627c6f71a6de7b82bc23ca3c,2022-05-11_22h22.57.181,classification_task,2021.2.3,Win32,59.99880002,627c6715c52fd12f31907bcf,,,,,,,,,,,,,,,,,,,,,,,,,,,,,,,,,,,,,,,,,,,,,,,,,,,,,,,,,,,0,0,0,0,1,,,,,,
,60bd4b684ae7e5aa8b9178fc,627c6f71a6de7b82bc23ca3c,2022-05-11_22h22.57.181,classification_task,2021.2.3,Win32,59.99880002,627c6715c52fd12f31907bcf,,,,,,,,,,,,,,,,,,,,,,,,,,,,,,,,,,,,,,,,,,,,,,,,,,,,,,,,,,,,,,,,,space,12.1018,859.1426,,
,60bd4b684ae7e5aa8b9178fc,627c6f71a6de7b82bc23ca3c,2022-05-11_22h22.57.181,classification_task,2021.2.3,Win32,59.99880002,627c6715c52fd12f31907bcf,,,,,,,,,,,,,,,,,,,,,,,,,,,,,,,,,,,,,,,,,,,,,,,,,,,,,,,,,,,,,,,,,,,,"Mozilla/5.0 (Windows NT 10.0; Win64; x64) AppleWebKit/537.36 (KHTML, like Gecko) Chrome/101.0.4951.54 Safari/537.36",
,60bd4b684ae7e5aa8b9178fc,627c6f71a6de7b82bc23ca3c,2022-05-11_22h22.57.181,classification_task,2021.2.3,Win32,59.99880002,627c6715c52fd12f31907bcf,,,,,,,,,,,,,,,,,,,,,,,,,,,,,,,,,,,,,,,,,,,,,,,,,,,,,,,,,,,,,,,,,,,,,FADING
