usingWebGL,participant,session,date,expName,psychopyVersion,OS,frameRate,study_id,signatures_friend,signatures_foe,band_ranges_top,band_ranges_bottom,formitemText,formtype,formundefined,formitemWidth,formindex,formresponse,formrt,key_resp_2.keys,key_resp_2.rt,tute_resp.keys,tute_resp.rt,tutorial.thisRepN,tutorial.thisTrialN,tutorial.thisN,tutorial.thisIndex,tutorial.ran,key_resp_4.keys,key_resp_4.rt,key_resp.keys,key_resp.corr,key_resp.rt,lines_presented,is_signal_presented,trials.thisRepN,trials.thisTrialN,trials.thisN,trials.thisIndex,trials.ran,vessel,active_band,lines,is_signal,supported_pos,catch_trial,debrief_formindex,debrief_formitemText,debrief_formtype,debrief_formitemWidth,debrief_formresponse,debrief_formrt,phases.thisRepN,phases.thisTrialN,phases.thisN,phases.thisIndex,phases.ran,phases.order,phase,key_resp_3.keys,trustitemText,trusttype,trustitemWidth,trustindex,trustresponse,trustrt,support_status.thisRepN,support_status.thisTrialN,support_status.thisN,support_status.thisIndex,support_status.ran,support_status.order,key_resp_5.keys,key_resp_5.rt,globalClockTime,userAgent,manualCondition
TRUE,60be8dd61cec210d627483de,627c700a2125bfc373c4ea75,2022-05-12_03h26.08.401,classification_task,2021.2.3,Win32,60.04202942,627c6715c52fd12f31907bd0,,,,,,,,,,,,,,,,,,,,,,,,,,,,,,,,,,,,,,,,,,,,,,,,,,,,,,,,,,,,,,,,,,,,,
,60be8dd61cec210d627483de,627c700a2125bfc373c4ea75,2022-05-12_03h26.08.401,classification_task,2021.2.3,Win32,60.04202942,627c6715c52fd12f31907bd0,"[[""0.190"",""0.489"",""0.603"",""0.894""],[""0.298"",""0.340"",""0.741"",""0.931""]]","[[""0.034"",""0.398"",""0.548"",""0.782""],[""0.126"",""0.265"",""0.452"",""0.692""]]","[1,10]","[100,1000]",Video game experience,,,0.7,0,,,,,,,,,,,,,,,,,,,,,,,,,,,,,,,,,,,,,,,,,,,,,,,,,,,,,,,,,,,,
,60be8dd61cec210d627483de,627c700a2125bfc373c4ea75,2022-05-12_03h26.08.401,classification_task,2021.2.3,Win32,60.04202942,627c6715c52fd12f31907bd0,,,,,Approximately how many hours did you spend playing video games in the last week?,,,0.7,0,9,,,,,,,,,,,,,,,,,,,,,,,,,,,,,,,,,,,,,,,,,,,,,,,,,,,,,,,,,,,
,60be8dd61cec210d627483de,627c700a2125bfc373c4ea75,2022-05-12_03h26.08.401,classification_task,2021.2.3,Win32,60.04202942,627c6715c52fd12f31907bd0,,,,,"Which game did you play the most this year? (Enter ""None"" if you didn't play any)",,,0.7,0,Animal crossing,,,,,,,,,,,,,,,,,,,,,,,,,,,,,,,,,,,,,,,,,,,,,,,,,,,,,,,,,,,
,60be8dd61cec210d627483de,627c700a2125bfc373c4ea75,2022-05-12_03h26.08.401,classification_task,2021.2.3,Win32,60.04202942,627c6715c52fd12f31907bd0,,,,,Visual perception,,,0.7,0,,,,,,,,,,,,,,,,,,,,,,,,,,,,,,,,,,,,,,,,,,,,,,,,,,,,,,,,,,,,
,60be8dd61cec210d627483de,627c700a2125bfc373c4ea75,2022-05-12_03h26.08.401,classification_task,2021.2.3,Win32,60.04202942,627c6715c52fd12f31907bd0,,,,,Do you have any form of color blindness?,,,0.7,0,No,30.7947,,,,,,,,,,,,,,,,,,,,,,,,,,,,,,,,,,,,,,,,,,,,,,,,,,,,,,,,,,
,60be8dd61cec210d627483de,627c700a2125bfc373c4ea75,2022-05-12_03h26.08.401,classification_task,2021.2.3,Win32,60.04202942,627c6715c52fd12f31907bd0,,,,,Do you use software to change the colour temperature of your screen (e.g. f.lux)?,,,0.7,0,No,35.2295,,,,,,,,,,,,,,,,,,,,,,,,,,,,,,,,,,,,,,,,,,,,,,,,,,,,,,,,,,
,60be8dd61cec210d627483de,627c700a2125bfc373c4ea75,2022-05-12_03h26.08.401,classification_task,2021.2.3,Win32,60.04202942,627c6715c52fd12f31907bd0,,,,,,,,,,,,space,36.949,space,12.6765,0,0,0,0,1,,,,,,,,,,,,,,,,,,,,,,,,,,,,,,,,,,,,,,,,,,,,,,,,,
,60be8dd61cec210d627483de,627c700a2125bfc373c4ea75,2022-05-12_03h26.08.401,classification_task,2021.2.3,Win32,60.04202942,627c6715c52fd12f31907bd0,,,,,,,,,,,,,,space,4.3587,1,0,1,0,1,,,,,,,,,,,,,,,,,,,,,,,,,,,,,,,,,,,,,,,,,,,,,,,,,
,60be8dd61cec210d627483de,627c700a2125bfc373c4ea75,2022-05-12_03h26.08.401,classification_task,2021.2.3,Win32,60.04202942,627c6715c52fd12f31907bd0,,,,,,,,,,,,,,space,22.3424,2,0,2,0,1,,,,,,,,,,,,,,,,,,,,,,,,,,,,,,,,,,,,,,,,,,,,,,,,,
,60be8dd61cec210d627483de,627c700a2125bfc373c4ea75,2022-05-12_03h26.08.401,classification_task,2021.2.3,Win32,60.04202942,627c6715c52fd12f31907bd0,,,,,,,,,,,,,,space,19.7743,3,0,3,0,1,,,,,,,,,,,,,,,,,,,,,,,,,,,,,,,,,,,,,,,,,,,,,,,,,
,60be8dd61cec210d627483de,627c700a2125bfc373c4ea75,2022-05-12_03h26.08.401,classification_task,2021.2.3,Win32,60.04202942,627c6715c52fd12f31907bd0,,,,,,,,,,,,,,space,44.9378,4,0,4,0,1,,,,,,,,,,,,,,,,,,,,,,,,,,,,,,,,,,,,,,,,,,,,,,,,,
,60be8dd61cec210d627483de,627c700a2125bfc373c4ea75,2022-05-12_03h26.08.401,classification_task,2021.2.3,Win32,60.04202942,627c6715c52fd12f31907bd0,,,,,,,,,,,,,,,,,,,,,space,16.1777,l,1,4.83,"[""0.126"",""0.265"",""0.452"",""0.832""]","[1,1,1,0]",0,0,0,0,1,1,1,,,1,FALSE,,,,,,,,,,,,,,,,,,,,,,,,,,,,,,,
,60be8dd61cec210d627483de,627c700a2125bfc373c4ea75,2022-05-12_03h26.08.401,classification_task,2021.2.3,Win32,60.04202942,627c6715c52fd12f31907bd0,,,,,,,,,,,,,,,,,,,,,,,a,1,7.4846,"[""0.298"",""0.340"",""0.857"",""0.931""]","[1,1,0,1]",0,1,1,1,1,0,1,,,1,FALSE,,,,,,,,,,,,,,,,,,,,,,,,,,,,,,,
,60be8dd61cec210d627483de,627c700a2125bfc373c4ea75,2022-05-12_03h26.08.401,classification_task,2021.2.3,Win32,60.04202942,627c6715c52fd12f31907bd0,,,,,,,,,,,,,,,,,,,,,,,a,1,8.3367,"[""0.089"",""0.340"",""0.741"",""0.931""]","[0,1,1,1]",0,2,2,2,1,0,1,,,1,FALSE,,,,,,,,,,,,,,,,,,,,,,,,,,,,,,,
,60be8dd61cec210d627483de,627c700a2125bfc373c4ea75,2022-05-12_03h26.08.401,classification_task,2021.2.3,Win32,60.04202942,627c6715c52fd12f31907bd0,,,,,,,,,,,,,,,,,,,,,,,a,1,4.4919,"[""0.298"",""0.340"",""0.741"",""0.658""]","[1,1,1,0]",0,3,3,3,1,0,1,,,1,FALSE,,,,,,,,,,,,,,,,,,,,,,,,,,,,,,,
,60be8dd61cec210d627483de,627c700a2125bfc373c4ea75,2022-05-12_03h26.08.401,classification_task,2021.2.3,Win32,60.04202942,627c6715c52fd12f31907bd0,,,,,,,,,,,,,,,,,,,,,,,a,1,8.7856,"[""0.298"",""0.843"",""0.741"",""0.931""]","[1,0,1,1]",0,4,4,4,1,0,1,,,1,FALSE,,,,,,,,,,,,,,,,,,,,,,,,,,,,,,,
,60be8dd61cec210d627483de,627c700a2125bfc373c4ea75,2022-05-12_03h26.08.401,classification_task,2021.2.3,Win32,60.04202942,627c6715c52fd12f31907bd0,,,,,,,,,,,,,,,,,,,,,,,a,1,6.8352,"[""0.190"",""0.489"",""0.084"",""0.894""]","[1,1,0,1]",0,5,5,5,1,0,0,,,1,FALSE,,,,,,,,,,,,,,,,,,,,,,,,,,,,,,,
,60be8dd61cec210d627483de,627c700a2125bfc373c4ea75,2022-05-12_03h26.08.401,classification_task,2021.2.3,Win32,60.04202942,627c6715c52fd12f31907bd0,,,,,,,,,,,,,,,,,,,,,,,a,1,5.8273,"[""0.190"",""0.832"",""0.603"",""0.894""]","[1,0,1,1]",0,6,6,6,1,0,0,,,1,FALSE,,,,,,,,,,,,,,,,,,,,,,,,,,,,,,,
,60be8dd61cec210d627483de,627c700a2125bfc373c4ea75,2022-05-12_03h26.08.401,classification_task,2021.2.3,Win32,60.04202942,627c6715c52fd12f31907bd0,,,,,,,,,,,,,,,,,,,,,,,l,1,7.0893,"[""0.034"",""0.857"",""0.548"",""0.782""]","[1,0,1,1]",0,7,7,7,1,1,0,,,1,FALSE,,,,,,,,,,,,,,,,,,,,,,,,,,,,,,,
,60be8dd61cec210d627483de,627c700a2125bfc373c4ea75,2022-05-12_03h26.08.401,classification_task,2021.2.3,Win32,60.04202942,627c6715c52fd12f31907bd0,,,,,,,,,,,,,,,,,,,,,,,a,1,6.0602,"[""0.832"",""0.489"",""0.603"",""0.894""]","[0,1,1,1]",0,8,8,8,1,0,0,,,1,FALSE,,,,,,,,,,,,,,,,,,,,,,,,,,,,,,,
,60be8dd61cec210d627483de,627c700a2125bfc373c4ea75,2022-05-12_03h26.08.401,classification_task,2021.2.3,Win32,60.04202942,627c6715c52fd12f31907bd0,,,,,,,,,,,,,,,,,,,,,,,l,1,6.6714,"[""0.658"",""0.398"",""0.548"",""0.782""]","[0,1,1,1]",0,9,9,9,1,1,0,,,1,FALSE,,,,,,,,,,,,,,,,,,,,,,,,,,,,,,,
,60be8dd61cec210d627483de,627c700a2125bfc373c4ea75,2022-05-12_03h26.08.401,classification_task,2021.2.3,Win32,60.04202942,627c6715c52fd12f31907bd0,,,,,,,,,,,,,,,,,,,,,,,l,1,7.3475,"[""0.084"",""0.265"",""0.452"",""0.692""]","[0,1,1,1]",0,10,10,10,1,1,1,,,1,FALSE,,,,,,,,,,,,,,,,,,,,,,,,,,,,,,,
,60be8dd61cec210d627483de,627c700a2125bfc373c4ea75,2022-05-12_03h26.08.401,classification_task,2021.2.3,Win32,60.04202942,627c6715c52fd12f31907bd0,,,,,,,,,,,,,,,,,,,,,,,l,1,5.5875,"[""0.126"",""0.834"",""0.452"",""0.692""]","[1,0,1,1]",0,11,11,11,1,1,1,,,1,FALSE,,,,,,,,,,,,,,,,,,,,,,,,,,,,,,,
,60be8dd61cec210d627483de,627c700a2125bfc373c4ea75,2022-05-12_03h26.08.401,classification_task,2021.2.3,Win32,60.04202942,627c6715c52fd12f31907bd0,,,,,,,,,,,,,,,,,,,,,,,a,1,5.4991,"[""0.190"",""0.489"",""0.603"",""0.080""]","[1,1,1,0]",0,12,12,12,1,0,0,,,1,FALSE,,,,,,,,,,,,,,,,,,,,,,,,,,,,,,,
,60be8dd61cec210d627483de,627c700a2125bfc373c4ea75,2022-05-12_03h26.08.401,classification_task,2021.2.3,Win32,60.04202942,627c6715c52fd12f31907bd0,,,,,,,,,,,,,,,,,,,,,,,a,0,6.5152,"[""0.126"",""0.265"",""0.832"",""0.692""]","[1,1,0,1]",0,13,13,13,1,1,1,,,1,FALSE,,,,,,,,,,,,,,,,,,,,,,,,,,,,,,,
,60be8dd61cec210d627483de,627c700a2125bfc373c4ea75,2022-05-12_03h26.08.401,classification_task,2021.2.3,Win32,60.04202942,627c6715c52fd12f31907bd0,,,,,,,,,,,,,,,,,,,,,,,l,1,5.6055,"[""0.034"",""0.398"",""0.642"",""0.782""]","[1,1,0,1]",0,14,14,14,1,1,0,,,1,FALSE,,,,,,,,,,,,,,,,,,,,,,,,,,,,,,,
,60be8dd61cec210d627483de,627c700a2125bfc373c4ea75,2022-05-12_03h26.08.401,classification_task,2021.2.3,Win32,60.04202942,627c6715c52fd12f31907bd0,,,,,,,,,,,,,,,,,,,,,,,l,1,5.7121,"[""0.034"",""0.398"",""0.548"",""0.084""]","[1,1,1,0]",0,15,15,15,1,1,0,,,1,FALSE,,,,,,,,,,,,,,,,,,,,,,,,,,,,,,,
,60be8dd61cec210d627483de,627c700a2125bfc373c4ea75,2022-05-12_03h26.08.401,classification_task,2021.2.3,Win32,60.04202942,627c6715c52fd12f31907bd0,,,,,,,,,,,,,,,,,,,,,,,l,1,6.3043,"[""0.126"",""0.843"",""0.452"",""0.692""]","[1,0,1,1]",0,16,16,16,1,1,1,,,1,FALSE,,,,,,,,,,,,,,,,,,,,,,,,,,,,,,,
,60be8dd61cec210d627483de,627c700a2125bfc373c4ea75,2022-05-12_03h26.08.401,classification_task,2021.2.3,Win32,60.04202942,627c6715c52fd12f31907bd0,,,,,,,,,,,,,,,,,,,,,,,l,1,6.2358,"[""0.034"",""0.398"",""0.652"",""0.782""]","[1,1,0,1]",0,17,17,17,1,1,0,,,1,FALSE,,,,,,,,,,,,,,,,,,,,,,,,,,,,,,,
,60be8dd61cec210d627483de,627c700a2125bfc373c4ea75,2022-05-12_03h26.08.401,classification_task,2021.2.3,Win32,60.04202942,627c6715c52fd12f31907bd0,,,,,,,,,,,,,,,,,,,,,,,a,1,7.3355,"[""0.190"",""0.489"",""0.832"",""0.894""]","[1,1,0,1]",0,18,18,18,1,0,0,,,1,FALSE,,,,,,,,,,,,,,,,,,,,,,,,,,,,,,,
,60be8dd61cec210d627483de,627c700a2125bfc373c4ea75,2022-05-12_03h26.08.401,classification_task,2021.2.3,Win32,60.04202942,627c6715c52fd12f31907bd0,,,,,,,,,,,,,,,,,,,,,,,l,1,5.9079,"[""0.126"",""0.265"",""0.834"",""0.692""]","[1,1,0,1]",0,19,19,19,1,1,1,,,1,FALSE,,,,,,,,,,,,,,,,,,,,,,,,,,,,,,,
,60be8dd61cec210d627483de,627c700a2125bfc373c4ea75,2022-05-12_03h26.08.401,classification_task,2021.2.3,Win32,60.04202942,627c6715c52fd12f31907bd0,,,,,,,,,,,,,,,,,,,,,,,l,1,4.5277,"[""0.126"",""0.265"",""0.452"",""0.971""]","[1,1,1,0]",0,20,20,20,1,1,1,,,1,FALSE,,,,,,,,,,,,,,,,,,,,,,,,,,,,,,,
,60be8dd61cec210d627483de,627c700a2125bfc373c4ea75,2022-05-12_03h26.08.401,classification_task,2021.2.3,Win32,60.04202942,627c6715c52fd12f31907bd0,,,,,,,,,,,,,,,,,,,,,,,l,1,4.7495,"[""0.652"",""0.398"",""0.548"",""0.782""]","[0,1,1,1]",0,21,21,21,1,1,0,,,1,FALSE,,,,,,,,,,,,,,,,,,,,,,,,,,,,,,,
,60be8dd61cec210d627483de,627c700a2125bfc373c4ea75,2022-05-12_03h26.08.401,classification_task,2021.2.3,Win32,60.04202942,627c6715c52fd12f31907bd0,,,,,,,,,,,,,,,,,,,,,,,a,1,4.8989,"[""0.298"",""0.340"",""0.741"",""0.642""]","[1,1,1,0]",0,22,22,22,1,0,1,,,1,FALSE,,,,,,,,,,,,,,,,,,,,,,,,,,,,,,,
,60be8dd61cec210d627483de,627c700a2125bfc373c4ea75,2022-05-12_03h26.08.401,classification_task,2021.2.3,Win32,60.04202942,627c6715c52fd12f31907bd0,,,,,,,,,,,,,,,,,,,,,,,a,1,5.6086,"[""0.298"",""0.340"",""0.971"",""0.931""]","[1,1,0,1]",0,23,23,23,1,0,1,,,1,FALSE,,,,,,,,,,,,,,,,,,,,,,,,,,,,,,,
,60be8dd61cec210d627483de,627c700a2125bfc373c4ea75,2022-05-12_03h26.08.401,classification_task,2021.2.3,Win32,60.04202942,627c6715c52fd12f31907bd0,,,,,,,,,,,,,,,,,,,,,,,l,1,6.6763,"[""0.971"",""0.265"",""0.452"",""0.692""]","[0,1,1,1]",0,24,24,24,1,1,1,,,1,FALSE,,,,,,,,,,,,,,,,,,,,,,,,,,,,,,,
,60be8dd61cec210d627483de,627c700a2125bfc373c4ea75,2022-05-12_03h26.08.401,classification_task,2021.2.3,Win32,60.04202942,627c6715c52fd12f31907bd0,,,,,,,,,,,,,,,,,,,,,,,a,1,8.0847,"[""0.298"",""0.084"",""0.741"",""0.931""]","[1,0,1,1]",0,25,25,25,1,0,1,,,1,FALSE,,,,,,,,,,,,,,,,,,,,,,,,,,,,,,,
,60be8dd61cec210d627483de,627c700a2125bfc373c4ea75,2022-05-12_03h26.08.401,classification_task,2021.2.3,Win32,60.04202942,627c6715c52fd12f31907bd0,,,,,,,,,,,,,,,,,,,,,,,l,1,6.1994,"[""0.034"",""0.658"",""0.548"",""0.782""]","[1,0,1,1]",0,26,26,26,1,1,0,,,1,FALSE,,,,,,,,,,,,,,,,,,,,,,,,,,,,,,,
,60be8dd61cec210d627483de,627c700a2125bfc373c4ea75,2022-05-12_03h26.08.401,classification_task,2021.2.3,Win32,60.04202942,627c6715c52fd12f31907bd0,,,,,,,,,,,,,,,,,,,,,,,a,1,5.5437,"[""0.190"",""0.489"",""0.603"",""0.832""]","[1,1,1,0]",0,27,27,27,1,0,0,,,1,FALSE,,,,,,,,,,,,,,,,,,,,,,,,,,,,,,,
,60be8dd61cec210d627483de,627c700a2125bfc373c4ea75,2022-05-12_03h26.08.401,classification_task,2021.2.3,Win32,60.04202942,627c6715c52fd12f31907bd0,,,,,,,,,,,,,,,,,,,,,,,a,1,5.3982,"[""0.819"",""0.340"",""0.741"",""0.931""]","[0,1,1,1]",0,28,28,28,1,0,1,,,1,FALSE,,,,,,,,,,,,,,,,,,,,,,,,,,,,,,,
,60be8dd61cec210d627483de,627c700a2125bfc373c4ea75,2022-05-12_03h26.08.401,classification_task,2021.2.3,Win32,60.04202942,627c6715c52fd12f31907bd0,,,,,,,,,,,,,,,,,,,,,,,l,1,4.8458,"[""0.034"",""0.398"",""0.548"",""0.819""]","[1,1,1,0]",0,29,29,29,1,1,0,,,1,FALSE,,,,,,,,,,,,,,,,,,,,,,,,,,,,,,,
,60be8dd61cec210d627483de,627c700a2125bfc373c4ea75,2022-05-12_03h26.08.401,classification_task,2021.2.3,Win32,60.04202942,627c6715c52fd12f31907bd0,,,,,,,,,,,,,,,,,,,,,,,a,1,7.9892,"[""0.843"",""0.489"",""0.603"",""0.894""]","[0,1,1,1]",0,30,30,30,1,0,0,,,1,FALSE,,,,,,,,,,,,,,,,,,,,,,,,,,,,,,,
,60be8dd61cec210d627483de,627c700a2125bfc373c4ea75,2022-05-12_03h26.08.401,classification_task,2021.2.3,Win32,60.04202942,627c6715c52fd12f31907bd0,,,,,,,,,,,,,,,,,,,,,,,a,1,7.0255,"[""0.190"",""0.857"",""0.603"",""0.894""]","[1,0,1,1]",0,31,31,31,1,0,0,,,1,FALSE,,,,,,,,,,,,,,,,,,,,,,,,,,,,,,,
,60be8dd61cec210d627483de,627c700a2125bfc373c4ea75,2022-05-12_03h26.08.401,classification_task,2021.2.3,Win32,60.04202942,627c6715c52fd12f31907bd0,,,,,,,,,,,,,,,,,,,,,,,a,0,3.954,"[""0.034"",""0.398"",""0.828"",""0.782""]","[1,1,0,1]",0,32,32,32,1,1,0,,,1,FALSE,,,,,,,,,,,,,,,,,,,,,,,,,,,,,,,
,60be8dd61cec210d627483de,627c700a2125bfc373c4ea75,2022-05-12_03h26.08.401,classification_task,2021.2.3,Win32,60.04202942,627c6715c52fd12f31907bd0,,,,,,,,,,,,,,,,,,,,,,,l,0,1.859,"[""0.298"",""0.340"",""0.642"",""0.931""]","[1,1,0,1]",0,33,33,33,1,0,1,,,1,FALSE,,,,,,,,,,,,,,,,,,,,,,,,,,,,,,,
,60be8dd61cec210d627483de,627c700a2125bfc373c4ea75,2022-05-12_03h26.08.401,classification_task,2021.2.3,Win32,60.04202942,627c6715c52fd12f31907bd0,,,,,,,,,,,,,,,,,,,,,,,l,1,1.2666,"[""0.126"",""0.265"",""0.642"",""0.692""]","[1,1,0,1]",0,34,34,34,1,1,1,,,1,FALSE,,,,,,,,,,,,,,,,,,,,,,,,,,,,,,,
,60be8dd61cec210d627483de,627c700a2125bfc373c4ea75,2022-05-12_03h26.08.401,classification_task,2021.2.3,Win32,60.04202942,627c6715c52fd12f31907bd0,,,,,,,,,,,,,,,,,,,,,,,a,1,1.4168,"[""0.298"",""0.340"",""0.741"",""0.834""]","[1,1,1,0]",0,35,35,35,1,0,1,,,1,FALSE,,,,,,,,,,,,,,,,,,,,,,,,,,,,,,,
,60be8dd61cec210d627483de,627c700a2125bfc373c4ea75,2022-05-12_03h26.08.401,classification_task,2021.2.3,Win32,60.04202942,627c6715c52fd12f31907bd0,,,,,,,,,,,,,,,,,,,,,,,a,0,1.4994,"[""0.975"",""0.398"",""0.548"",""0.782""]","[0,1,1,1]",0,36,36,36,1,1,0,,,1,FALSE,,,,,,,,,,,,,,,,,,,,,,,,,,,,,,,
,60be8dd61cec210d627483de,627c700a2125bfc373c4ea75,2022-05-12_03h26.08.401,classification_task,2021.2.3,Win32,60.04202942,627c6715c52fd12f31907bd0,,,,,,,,,,,,,,,,,,,,,,,a,0,0.9929,"[""0.034"",""0.975"",""0.548"",""0.782""]","[1,0,1,1]",0,37,37,37,1,1,0,,,1,FALSE,,,,,,,,,,,,,,,,,,,,,,,,,,,,,,,
,60be8dd61cec210d627483de,627c700a2125bfc373c4ea75,2022-05-12_03h26.08.401,classification_task,2021.2.3,Win32,60.04202942,627c6715c52fd12f31907bd0,,,,,,,,,,,,,,,,,,,,,,,a,1,1.9456,"[""0.298"",""0.834"",""0.741"",""0.931""]","[1,0,1,1]",0,38,38,38,1,0,1,,,1,FALSE,,,,,,,,,,,,,,,,,,,,,,,,,,,,,,,
,60be8dd61cec210d627483de,627c700a2125bfc373c4ea75,2022-05-12_03h26.08.401,classification_task,2021.2.3,Win32,60.04202942,627c6715c52fd12f31907bd0,,,,,,,,,,,,,,,,,,,,,,,l,0,0.6659,"[""0.828"",""0.489"",""0.603"",""0.894""]","[0,1,1,1]",0,39,39,39,1,0,0,,,1,FALSE,,,,,,,,,,,,,,,,,,,,,,,,,,,,,,,
,60be8dd61cec210d627483de,627c700a2125bfc373c4ea75,2022-05-12_03h26.08.401,classification_task,2021.2.3,Win32,60.04202942,627c6715c52fd12f31907bd0,,,,,,,,,,,,,,,,,,,,,,,l,1,0.5358,"[""0.126"",""0.079"",""0.452"",""0.692""]","[1,0,1,1]",0,40,40,40,1,1,1,,,1,FALSE,,,,,,,,,,,,,,,,,,,,,,,,,,,,,,,
,60be8dd61cec210d627483de,627c700a2125bfc373c4ea75,2022-05-12_03h26.08.401,classification_task,2021.2.3,Win32,60.04202942,627c6715c52fd12f31907bd0,,,,,,,,,,,,,,,,,,,,,,,a,1,1.2988,"[""0.190"",""0.084"",""0.603"",""0.894""]","[1,0,1,1]",0,41,41,41,1,0,0,,,1,FALSE,,,,,,,,,,,,,,,,,,,,,,,,,,,,,,,
,60be8dd61cec210d627483de,627c700a2125bfc373c4ea75,2022-05-12_03h26.08.401,classification_task,2021.2.3,Win32,60.04202942,627c6715c52fd12f31907bd0,,,,,,,,,,,,,,,,,,,,,,,l,0,1.4346,"[""0.971"",""0.340"",""0.741"",""0.931""]","[0,1,1,1]",0,42,42,42,1,0,1,,,1,FALSE,,,,,,,,,,,,,,,,,,,,,,,,,,,,,,,
,60be8dd61cec210d627483de,627c700a2125bfc373c4ea75,2022-05-12_03h26.08.401,classification_task,2021.2.3,Win32,60.04202942,627c6715c52fd12f31907bd0,,,,,,,,,,,,,,,,,,,,,,,l,1,1.8486,"[""0.079"",""0.265"",""0.452"",""0.692""]","[0,1,1,1]",0,43,43,43,1,1,1,,,1,FALSE,,,,,,,,,,,,,,,,,,,,,,,,,,,,,,,
,60be8dd61cec210d627483de,627c700a2125bfc373c4ea75,2022-05-12_03h26.08.401,classification_task,2021.2.3,Win32,60.04202942,627c6715c52fd12f31907bd0,,,,,,,,,,,,,,,,,,,,,,,l,1,1.3154,"[""0.126"",""0.265"",""0.452"",""0.834""]","[1,1,1,0]",0,44,44,44,1,1,1,,,1,FALSE,,,,,,,,,,,,,,,,,,,,,,,,,,,,,,,
,60be8dd61cec210d627483de,627c700a2125bfc373c4ea75,2022-05-12_03h26.08.401,classification_task,2021.2.3,Win32,60.04202942,627c6715c52fd12f31907bd0,,,,,,,,,,,,,,,,,,,,,,,a,0,0.6496,"[""0.034"",""0.398"",""0.548"",""0.084""]","[1,1,1,0]",0,45,45,45,1,1,0,,,1,FALSE,,,,,,,,,,,,,,,,,,,,,,,,,,,,,,,
,60be8dd61cec210d627483de,627c700a2125bfc373c4ea75,2022-05-12_03h26.08.401,classification_task,2021.2.3,Win32,60.04202942,627c6715c52fd12f31907bd0,,,,,,,,,,,,,,,,,,,,,,,a,1,0.5833,"[""0.190"",""0.489"",""0.603"",""0.084""]","[1,1,1,0]",0,46,46,46,1,0,0,,,1,FALSE,,,,,,,,,,,,,,,,,,,,,,,,,,,,,,,
,60be8dd61cec210d627483de,627c700a2125bfc373c4ea75,2022-05-12_03h26.08.401,classification_task,2021.2.3,Win32,60.04202942,627c6715c52fd12f31907bd0,,,,,,,,,,,,,,,,,,,,,,,a,1,0.8835,"[""0.190"",""0.489"",""0.658"",""0.894""]","[1,1,0,1]",0,47,47,47,1,0,0,,,1,FALSE,,,,,,,,,,,,,,,,,,,,,,,,,,,,,,,
,60be8dd61cec210d627483de,627c700a2125bfc373c4ea75,2022-05-12_03h26.08.401,classification_task,2021.2.3,Win32,60.04202942,627c6715c52fd12f31907bd0,,,,,,,,,,,,,,,,,,,,,,,a,1,0.7499,"[""0.190"",""0.489"",""0.603"",""0.079""]","[1,1,1,0]",0,48,48,48,1,0,0,,,1,FALSE,,,,,,,,,,,,,,,,,,,,,,,,,,,,,,,
,60be8dd61cec210d627483de,627c700a2125bfc373c4ea75,2022-05-12_03h26.08.401,classification_task,2021.2.3,Win32,60.04202942,627c6715c52fd12f31907bd0,,,,,,,,,,,,,,,,,,,,,,,l,0,0.6906,"[""0.298"",""0.658"",""0.741"",""0.931""]","[1,0,1,1]",0,49,49,49,1,0,1,,,1,FALSE,,,,,,,,,,,,,,,,,,,,,,,,,,,,,,,
,60be8dd61cec210d627483de,627c700a2125bfc373c4ea75,2022-05-12_03h26.08.401,classification_task,2021.2.3,Win32,60.04202942,627c6715c52fd12f31907bd0,,,,,,,,,,,,,,,,,,,,,,,l,1,0.6506,"[""0.034"",""0.080"",""0.548"",""0.782""]","[1,0,1,1]",0,50,50,50,1,1,0,,,1,FALSE,,,,,,,,,,,,,,,,,,,,,,,,,,,,,,,
,60be8dd61cec210d627483de,627c700a2125bfc373c4ea75,2022-05-12_03h26.08.401,classification_task,2021.2.3,Win32,60.04202942,627c6715c52fd12f31907bd0,,,,,,,,,,,,,,,,,,,,,,,l,1,1.0828,"[""0.034"",""0.398"",""0.548"",""0.079""]","[1,1,1,0]",0,51,51,51,1,1,0,,,1,FALSE,,,,,,,,,,,,,,,,,,,,,,,,,,,,,,,
,60be8dd61cec210d627483de,627c700a2125bfc373c4ea75,2022-05-12_03h26.08.401,classification_task,2021.2.3,Win32,60.04202942,627c6715c52fd12f31907bd0,,,,,,,,,,,,,,,,,,,,,,,a,1,0.6498,"[""0.190"",""0.489"",""0.080"",""0.894""]","[1,1,0,1]",0,52,52,52,1,0,0,,,1,FALSE,,,,,,,,,,,,,,,,,,,,,,,,,,,,,,,
,60be8dd61cec210d627483de,627c700a2125bfc373c4ea75,2022-05-12_03h26.08.401,classification_task,2021.2.3,Win32,60.04202942,627c6715c52fd12f31907bd0,,,,,,,,,,,,,,,,,,,,,,,a,1,0.7871,"[""0.298"",""0.340"",""0.079"",""0.931""]","[1,1,0,1]",0,53,53,53,1,0,1,,,1,FALSE,,,,,,,,,,,,,,,,,,,,,,,,,,,,,,,
,60be8dd61cec210d627483de,627c700a2125bfc373c4ea75,2022-05-12_03h26.08.401,classification_task,2021.2.3,Win32,60.04202942,627c6715c52fd12f31907bd0,,,,,,,,,,,,,,,,,,,,,,,a,0,0.7823,"[""0.079"",""0.265"",""0.452"",""0.692""]","[0,1,1,1]",0,54,54,54,1,1,1,,,1,FALSE,,,,,,,,,,,,,,,,,,,,,,,,,,,,,,,
,60be8dd61cec210d627483de,627c700a2125bfc373c4ea75,2022-05-12_03h26.08.401,classification_task,2021.2.3,Win32,60.04202942,627c6715c52fd12f31907bd0,,,,,,,,,,,,,,,,,,,,,,,l,1,0.5372,"[""0.828"",""0.398"",""0.548"",""0.782""]","[0,1,1,1]",0,55,55,55,1,1,0,,,1,FALSE,,,,,,,,,,,,,,,,,,,,,,,,,,,,,,,
,60be8dd61cec210d627483de,627c700a2125bfc373c4ea75,2022-05-12_03h26.08.401,classification_task,2021.2.3,Win32,60.04202942,627c6715c52fd12f31907bd0,,,,,,,,,,,,,,,,,,,,,,,a,0,0.5662,"[""0.034"",""0.398"",""0.819"",""0.782""]","[1,1,0,1]",0,56,56,56,1,1,0,,,1,FALSE,,,,,,,,,,,,,,,,,,,,,,,,,,,,,,,
,60be8dd61cec210d627483de,627c700a2125bfc373c4ea75,2022-05-12_03h26.08.401,classification_task,2021.2.3,Win32,60.04202942,627c6715c52fd12f31907bd0,,,,,,,,,,,,,,,,,,,,,,,a,1,0.6497,"[""0.190"",""0.089"",""0.603"",""0.894""]","[1,0,1,1]",0,57,57,57,1,0,0,,,1,FALSE,,,,,,,,,,,,,,,,,,,,,,,,,,,,,,,
,60be8dd61cec210d627483de,627c700a2125bfc373c4ea75,2022-05-12_03h26.08.401,classification_task,2021.2.3,Win32,60.04202942,627c6715c52fd12f31907bd0,,,,,,,,,,,,,,,,,,,,,,,a,1,0.5063,"[""0.298"",""0.340"",""0.741"",""0.857""]","[1,1,1,0]",0,58,58,58,1,0,1,,,1,FALSE,,,,,,,,,,,,,,,,,,,,,,,,,,,,,,,
,60be8dd61cec210d627483de,627c700a2125bfc373c4ea75,2022-05-12_03h26.08.401,classification_task,2021.2.3,Win32,60.04202942,627c6715c52fd12f31907bd0,,,,,,,,,,,,,,,,,,,,,,,a,1,0.4552,"[""0.089"",""0.489"",""0.603"",""0.894""]","[0,1,1,1]",0,59,59,59,1,0,0,,,1,FALSE,,,,,,,,,,,,,,,,,,,,,,,,,,,,,,,
,60be8dd61cec210d627483de,627c700a2125bfc373c4ea75,2022-05-12_03h26.08.401,classification_task,2021.2.3,Win32,60.04202942,627c6715c52fd12f31907bd0,,,,,,,,,,,,,,,,,,,,,,,l,0,0.4751,"[""0.828"",""0.340"",""0.741"",""0.931""]","[0,1,1,1]",0,60,60,60,1,0,1,,,1,FALSE,,,,,,,,,,,,,,,,,,,,,,,,,,,,,,,
,60be8dd61cec210d627483de,627c700a2125bfc373c4ea75,2022-05-12_03h26.08.401,classification_task,2021.2.3,Win32,60.04202942,627c6715c52fd12f31907bd0,,,,,,,,,,,,,,,,,,,,,,,l,1,0.9657,"[""0.126"",""0.084"",""0.452"",""0.692""]","[1,0,1,1]",0,61,61,61,1,1,1,,,1,FALSE,,,,,,,,,,,,,,,,,,,,,,,,,,,,,,,
,60be8dd61cec210d627483de,627c700a2125bfc373c4ea75,2022-05-12_03h26.08.401,classification_task,2021.2.3,Win32,60.04202942,627c6715c52fd12f31907bd0,,,,,,,,,,,,,,,,,,,,,,,a,0,1.2175,"[""0.126"",""0.265"",""0.971"",""0.692""]","[1,1,0,1]",0,62,62,62,1,1,1,,,1,FALSE,,,,,,,,,,,,,,,,,,,,,,,,,,,,,,,
,60be8dd61cec210d627483de,627c700a2125bfc373c4ea75,2022-05-12_03h26.08.401,classification_task,2021.2.3,Win32,60.04202942,627c6715c52fd12f31907bd0,,,,,,,,,,,,,,,,,,,,,,,l,1,1.3732,"[""0.126"",""0.265"",""0.452"",""0.843""]","[1,1,1,0]",0,63,63,63,1,1,1,,,1,FALSE,,,,,,,,,,,,,,,,,,,,,,,,,,,,,,,
,60be8dd61cec210d627483de,627c700a2125bfc373c4ea75,2022-05-12_03h26.08.401,classification_task,2021.2.3,Win32,60.04202942,627c6715c52fd12f31907bd0,,,,,,,,,,,,,,,,,,,,,,,,,,,,,,,,,,,,,,,0, ,,0,0,516.9089,0,0,0,0,1,2,1,,,,,,,,,,,,,,,,,,
,60be8dd61cec210d627483de,627c700a2125bfc373c4ea75,2022-05-12_03h26.08.401,classification_task,2021.2.3,Win32,60.04202942,627c6715c52fd12f31907bd0,,,,,,,,,,,,,,,,,,,,,,,,,,,,,,,,,,,,,,,1,  ,,0,10,531.272,0,0,0,0,1,2,1,,,,,,,,,,,,,,,,,,
,60be8dd61cec210d627483de,627c700a2125bfc373c4ea75,2022-05-12_03h26.08.401,classification_task,2021.2.3,Win32,60.04202942,627c6715c52fd12f31907bd0,,,,,,,,,,,,,,,,,,,,,,,,,,,,,,,,,,,,,,,2,  ,,0,8.655938431,536.6921,0,0,0,0,1,2,1,,,,,,,,,,,,,,,,,,
,60be8dd61cec210d627483de,627c700a2125bfc373c4ea75,2022-05-12_03h26.08.401,classification_task,2021.2.3,Win32,60.04202942,627c6715c52fd12f31907bd0,,,,,,,,,,,,,,,,,,,,,,,,,,,,,,,,,,,,,,,,,,,,,0,0,0,0,1,,1,,,,,,,,,,,,,,,,,,
,60be8dd61cec210d627483de,627c700a2125bfc373c4ea75,2022-05-12_03h26.08.401,classification_task,2021.2.3,Win32,60.04202942,627c6715c52fd12f31907bd0,,,,,,,,,,,,,,,,,,,,,space,16.5811,a,1,3.198,"[""0.298"",""0.340"",""0.089"",""0.931""]","[1,1,0,1]",0,0,0,0,1,0,1,,,1,FALSE,,,,,,,,,,,,,,,,,,,,,,,,,,,,,,,
,60be8dd61cec210d627483de,627c700a2125bfc373c4ea75,2022-05-12_03h26.08.401,classification_task,2021.2.3,Win32,60.04202942,627c6715c52fd12f31907bd0,,,,,,,,,,,,,,,,,,,,,,,a,1,1.1088,"[""0.079"",""0.340"",""0.741"",""0.931""]","[0,1,1,1]",0,1,1,1,1,0,1,,,1,FALSE,,,,,,,,,,,,,,,,,,,,,,,,,,,,,,,
,60be8dd61cec210d627483de,627c700a2125bfc373c4ea75,2022-05-12_03h26.08.401,classification_task,2021.2.3,Win32,60.04202942,627c6715c52fd12f31907bd0,,,,,,,,,,,,,,,,,,,,,,,l,1,0.6331,"[""0.126"",""0.819"",""0.452"",""0.692""]","[1,0,1,1]",0,2,2,2,1,1,1,,,1,FALSE,,,,,,,,,,,,,,,,,,,,,,,,,,,,,,,
,60be8dd61cec210d627483de,627c700a2125bfc373c4ea75,2022-05-12_03h26.08.401,classification_task,2021.2.3,Win32,60.04202942,627c6715c52fd12f31907bd0,,,,,,,,,,,,,,,,,,,,,,,a,1,0.967,"[""0.298"",""0.819"",""0.741"",""0.931""]","[1,0,1,1]",0,3,3,3,1,0,1,,,1,FALSE,,,,,,,,,,,,,,,,,,,,,,,,,,,,,,,
,60be8dd61cec210d627483de,627c700a2125bfc373c4ea75,2022-05-12_03h26.08.401,classification_task,2021.2.3,Win32,60.04202942,627c6715c52fd12f31907bd0,,,,,,,,,,,,,,,,,,,,,,,l,1,1.0302,"[""0.819"",""0.398"",""0.548"",""0.782""]","[0,1,1,1]",0,4,4,4,1,1,0,,,1,FALSE,,,,,,,,,,,,,,,,,,,,,,,,,,,,,,,
,60be8dd61cec210d627483de,627c700a2125bfc373c4ea75,2022-05-12_03h26.08.401,classification_task,2021.2.3,Win32,60.04202942,627c6715c52fd12f31907bd0,,,,,,,,,,,,,,,,,,,,,,,a,1,0.7754,"[""0.190"",""0.489"",""0.603"",""0.834""]","[1,1,1,0]",0,5,5,5,1,0,0,,,1,FALSE,,,,,,,,,,,,,,,,,,,,,,,,,,,,,,,
,60be8dd61cec210d627483de,627c700a2125bfc373c4ea75,2022-05-12_03h26.08.401,classification_task,2021.2.3,Win32,60.04202942,627c6715c52fd12f31907bd0,,,,,,,,,,,,,,,,,,,,,,,a,0,1.4068,"[""0.034"",""0.398"",""0.548"",""0.658""]","[1,1,1,0]",0,6,6,6,1,1,0,,,1,FALSE,,,,,,,,,,,,,,,,,,,,,,,,,,,,,,,
,60be8dd61cec210d627483de,627c700a2125bfc373c4ea75,2022-05-12_03h26.08.401,classification_task,2021.2.3,Win32,60.04202942,627c6715c52fd12f31907bd0,,,,,,,,,,,,,,,,,,,,,,,l,1,1.2449,"[""0.126"",""0.265"",""0.452"",""0.079""]","[1,1,1,0]",0,7,7,7,1,1,1,,,1,FALSE,,,,,,,,,,,,,,,,,,,,,,,,,,,,,,,
,60be8dd61cec210d627483de,627c700a2125bfc373c4ea75,2022-05-12_03h26.08.401,classification_task,2021.2.3,Win32,60.04202942,627c6715c52fd12f31907bd0,,,,,,,,,,,,,,,,,,,,,,,l,0,0.6499,"[""0.298"",""0.340"",""0.741"",""0.828""]","[1,1,1,0]",0,8,8,8,1,0,1,,,1,FALSE,,,,,,,,,,,,,,,,,,,,,,,,,,,,,,,
,60be8dd61cec210d627483de,627c700a2125bfc373c4ea75,2022-05-12_03h26.08.401,classification_task,2021.2.3,Win32,60.04202942,627c6715c52fd12f31907bd0,,,,,,,,,,,,,,,,,,,,,,,l,1,1.6323,"[""0.971"",""0.265"",""0.452"",""0.692""]","[0,1,1,1]",0,9,9,9,1,1,1,,,1,FALSE,,,,,,,,,,,,,,,,,,,,,,,,,,,,,,,
,60be8dd61cec210d627483de,627c700a2125bfc373c4ea75,2022-05-12_03h26.08.401,classification_task,2021.2.3,Win32,60.04202942,627c6715c52fd12f31907bd0,,,,,,,,,,,,,,,,,,,,,,,a,0,1.8043,"[""0.034"",""0.398"",""0.084"",""0.782""]","[1,1,0,1]",0,10,10,10,1,1,0,,,1,FALSE,,,,,,,,,,,,,,,,,,,,,,,,,,,,,,,
,60be8dd61cec210d627483de,627c700a2125bfc373c4ea75,2022-05-12_03h26.08.401,classification_task,2021.2.3,Win32,60.04202942,627c6715c52fd12f31907bd0,,,,,,,,,,,,,,,,,,,,,,,a,1,1.9723,"[""0.190"",""0.489"",""0.975"",""0.894""]","[1,1,0,1]",0,11,11,11,1,0,0,,,1,FALSE,,,,,,,,,,,,,,,,,,,,,,,,,,,,,,,
,60be8dd61cec210d627483de,627c700a2125bfc373c4ea75,2022-05-12_03h26.08.401,classification_task,2021.2.3,Win32,60.04202942,627c6715c52fd12f31907bd0,,,,,,,,,,,,,,,,,,,,,,,l,1,1.2972,"[""0.034"",""0.652"",""0.548"",""0.782""]","[1,0,1,1]",0,12,12,12,1,1,0,,,1,FALSE,,,,,,,,,,,,,,,,,,,,,,,,,,,,,,,
,60be8dd61cec210d627483de,627c700a2125bfc373c4ea75,2022-05-12_03h26.08.401,classification_task,2021.2.3,Win32,60.04202942,627c6715c52fd12f31907bd0,,,,,,,,,,,,,,,,,,,,,,,l,0,1.3038,"[""0.190"",""0.832"",""0.603"",""0.894""]","[1,0,1,1]",0,13,13,13,1,0,0,,,1,FALSE,,,,,,,,,,,,,,,,,,,,,,,,,,,,,,,
,60be8dd61cec210d627483de,627c700a2125bfc373c4ea75,2022-05-12_03h26.08.401,classification_task,2021.2.3,Win32,60.04202942,627c6715c52fd12f31907bd0,,,,,,,,,,,,,,,,,,,,,,,a,1,1.7322,"[""0.658"",""0.489"",""0.603"",""0.894""]","[0,1,1,1]",0,14,14,14,1,0,0,,,1,FALSE,,,,,,,,,,,,,,,,,,,,,,,,,,,,,,,
,60be8dd61cec210d627483de,627c700a2125bfc373c4ea75,2022-05-12_03h26.08.401,classification_task,2021.2.3,Win32,60.04202942,627c6715c52fd12f31907bd0,,,,,,,,,,,,,,,,,,,,,,,l,1,1.2331,"[""0.126"",""0.265"",""0.080"",""0.692""]","[1,1,0,1]",0,15,15,15,1,1,1,,,1,FALSE,,,,,,,,,,,,,,,,,,,,,,,,,,,,,,,
,60be8dd61cec210d627483de,627c700a2125bfc373c4ea75,2022-05-12_03h26.08.401,classification_task,2021.2.3,Win32,60.04202942,627c6715c52fd12f31907bd0,,,,,,,,,,,,,,,,,,,,,,,a,1,1.0416,"[""0.190"",""0.857"",""0.603"",""0.894""]","[1,0,1,1]",0,16,16,16,1,0,0,,,1,FALSE,,,,,,,,,,,,,,,,,,,,,,,,,,,,,,,
,60be8dd61cec210d627483de,627c700a2125bfc373c4ea75,2022-05-12_03h26.08.401,classification_task,2021.2.3,Win32,60.04202942,627c6715c52fd12f31907bd0,,,,,,,,,,,,,,,,,,,,,,,a,0,0.9824,"[""0.658"",""0.398"",""0.548"",""0.782""]","[0,1,1,1]",0,17,17,17,1,1,0,,,1,FALSE,,,,,,,,,,,,,,,,,,,,,,,,,,,,,,,
,60be8dd61cec210d627483de,627c700a2125bfc373c4ea75,2022-05-12_03h26.08.401,classification_task,2021.2.3,Win32,60.04202942,627c6715c52fd12f31907bd0,,,,,,,,,,,,,,,,,,,,,,,l,1,1.8319,"[""0.034"",""0.398"",""0.548"",""0.650""]","[1,1,1,0]",0,18,18,18,1,1,0,,,1,FALSE,,,,,,,,,,,,,,,,,,,,,,,,,,,,,,,
,60be8dd61cec210d627483de,627c700a2125bfc373c4ea75,2022-05-12_03h26.08.401,classification_task,2021.2.3,Win32,60.04202942,627c6715c52fd12f31907bd0,,,,,,,,,,,,,,,,,,,,,,,l,1,0.8705,"[""0.034"",""0.843"",""0.548"",""0.782""]","[1,0,1,1]",0,19,19,19,1,1,0,,,1,FALSE,,,,,,,,,,,,,,,,,,,,,,,,,,,,,,,
,60be8dd61cec210d627483de,627c700a2125bfc373c4ea75,2022-05-12_03h26.08.401,classification_task,2021.2.3,Win32,60.04202942,627c6715c52fd12f31907bd0,,,,,,,,,,,,,,,,,,,,,,,l,0,1.8467,"[""0.298"",""0.642"",""0.741"",""0.931""]","[1,0,1,1]",0,20,20,20,1,0,1,,,1,FALSE,,,,,,,,,,,,,,,,,,,,,,,,,,,,,,,
,60be8dd61cec210d627483de,627c700a2125bfc373c4ea75,2022-05-12_03h26.08.401,classification_task,2021.2.3,Win32,60.04202942,627c6715c52fd12f31907bd0,,,,,,,,,,,,,,,,,,,,,,,a,0,0.8691,"[""0.652"",""0.265"",""0.452"",""0.692""]","[0,1,1,1]",0,21,21,21,1,1,1,,,1,FALSE,,,,,,,,,,,,,,,,,,,,,,,,,,,,,,,
,60be8dd61cec210d627483de,627c700a2125bfc373c4ea75,2022-05-12_03h26.08.401,classification_task,2021.2.3,Win32,60.04202942,627c6715c52fd12f31907bd0,,,,,,,,,,,,,,,,,,,,,,,a,0,0.6178,"[""0.126"",""0.265"",""0.652"",""0.692""]","[1,1,0,1]",0,22,22,22,1,1,1,,,1,FALSE,,,,,,,,,,,,,,,,,,,,,,,,,,,,,,,
,60be8dd61cec210d627483de,627c700a2125bfc373c4ea75,2022-05-12_03h26.08.401,classification_task,2021.2.3,Win32,60.04202942,627c6715c52fd12f31907bd0,,,,,,,,,,,,,,,,,,,,,,,l,1,2.0644,"[""0.034"",""0.398"",""0.828"",""0.782""]","[1,1,0,1]",0,23,23,23,1,1,0,,,1,FALSE,,,,,,,,,,,,,,,,,,,,,,,,,,,,,,,
,60be8dd61cec210d627483de,627c700a2125bfc373c4ea75,2022-05-12_03h26.08.401,classification_task,2021.2.3,Win32,60.04202942,627c6715c52fd12f31907bd0,,,,,,,,,,,,,,,,,,,,,,,a,1,1.1152,"[""0.190"",""0.489"",""0.603"",""0.834""]","[1,1,1,0]",0,24,24,24,1,0,0,,,1,FALSE,,,,,,,,,,,,,,,,,,,,,,,,,,,,,,,
,60be8dd61cec210d627483de,627c700a2125bfc373c4ea75,2022-05-12_03h26.08.401,classification_task,2021.2.3,Win32,60.04202942,627c6715c52fd12f31907bd0,,,,,,,,,,,,,,,,,,,,,,,l,1,2.271,"[""0.126"",""0.975"",""0.452"",""0.692""]","[1,0,1,1]",0,25,25,25,1,1,1,,,1,FALSE,,,,,,,,,,,,,,,,,,,,,,,,,,,,,,,
,60be8dd61cec210d627483de,627c700a2125bfc373c4ea75,2022-05-12_03h26.08.401,classification_task,2021.2.3,Win32,60.04202942,627c6715c52fd12f31907bd0,,,,,,,,,,,,,,,,,,,,,,,a,1,1.4154,"[""0.190"",""0.489"",""0.975"",""0.894""]","[1,1,0,1]",0,26,26,26,1,0,0,,,1,FALSE,,,,,,,,,,,,,,,,,,,,,,,,,,,,,,,
,60be8dd61cec210d627483de,627c700a2125bfc373c4ea75,2022-05-12_03h26.08.401,classification_task,2021.2.3,Win32,60.04202942,627c6715c52fd12f31907bd0,,,,,,,,,,,,,,,,,,,,,,,l,0,1.6772,"[""0.298"",""0.340"",""0.652"",""0.931""]","[1,1,0,1]",0,27,27,27,1,0,1,,,1,FALSE,,,,,,,,,,,,,,,,,,,,,,,,,,,,,,,
,60be8dd61cec210d627483de,627c700a2125bfc373c4ea75,2022-05-12_03h26.08.401,classification_task,2021.2.3,Win32,60.04202942,627c6715c52fd12f31907bd0,,,,,,,,,,,,,,,,,,,,,,,l,0,0.8001,"[""0.834"",""0.340"",""0.741"",""0.931""]","[0,1,1,1]",0,28,28,28,1,0,1,,,1,FALSE,,,,,,,,,,,,,,,,,,,,,,,,,,,,,,,
,60be8dd61cec210d627483de,627c700a2125bfc373c4ea75,2022-05-12_03h26.08.401,classification_task,2021.2.3,Win32,60.04202942,627c6715c52fd12f31907bd0,,,,,,,,,,,,,,,,,,,,,,,a,1,1.3004,"[""0.819"",""0.489"",""0.603"",""0.894""]","[0,1,1,1]",0,29,29,29,1,0,0,,,1,FALSE,,,,,,,,,,,,,,,,,,,,,,,,,,,,,,,
,60be8dd61cec210d627483de,627c700a2125bfc373c4ea75,2022-05-12_03h26.08.401,classification_task,2021.2.3,Win32,60.04202942,627c6715c52fd12f31907bd0,,,,,,,,,,,,,,,,,,,,,,,a,0,1.4664,"[""0.126"",""0.265"",""0.452"",""0.819""]","[1,1,1,0]",0,30,30,30,1,1,1,,,1,FALSE,,,,,,,,,,,,,,,,,,,,,,,,,,,,,,,
,60be8dd61cec210d627483de,627c700a2125bfc373c4ea75,2022-05-12_03h26.08.401,classification_task,2021.2.3,Win32,60.04202942,627c6715c52fd12f31907bd0,,,,,,,,,,,,,,,,,,,,,,,l,0,2.2488,"[""0.298"",""0.340"",""0.741"",""0.975""]","[1,1,1,0]",0,31,31,31,1,0,1,,,1,FALSE,,,,,,,,,,,,,,,,,,,,,,,,,,,,,,,
,60be8dd61cec210d627483de,627c700a2125bfc373c4ea75,2022-05-12_03h26.08.401,classification_task,2021.2.3,Win32,60.04202942,627c6715c52fd12f31907bd0,,,,,,,,,,,,,,,,,,,,,,,l,0,1.2005,"[""0.089"",""0.489"",""0.603"",""0.894""]","[0,1,1,1]",0,32,32,32,1,0,0,,,1,FALSE,,,,,,,,,,,,,,,,,,,,,,,,,,,,,,,
,60be8dd61cec210d627483de,627c700a2125bfc373c4ea75,2022-05-12_03h26.08.401,classification_task,2021.2.3,Win32,60.04202942,627c6715c52fd12f31907bd0,,,,,,,,,,,,,,,,,,,,,,,a,1,0.8201,"[""0.298"",""0.340"",""0.828"",""0.931""]","[1,1,0,1]",0,33,33,33,1,0,1,,,1,FALSE,,,,,,,,,,,,,,,,,,,,,,,,,,,,,,,
,60be8dd61cec210d627483de,627c700a2125bfc373c4ea75,2022-05-12_03h26.08.401,classification_task,2021.2.3,Win32,60.04202942,627c6715c52fd12f31907bd0,,,,,,,,,,,,,,,,,,,,,,,a,0,0.6991,"[""0.652"",""0.265"",""0.452"",""0.692""]","[0,1,1,1]",0,34,34,34,1,1,1,,,1,FALSE,,,,,,,,,,,,,,,,,,,,,,,,,,,,,,,
,60be8dd61cec210d627483de,627c700a2125bfc373c4ea75,2022-05-12_03h26.08.401,classification_task,2021.2.3,Win32,60.04202942,627c6715c52fd12f31907bd0,,,,,,,,,,,,,,,,,,,,,,,l,1,1.3414,"[""0.126"",""0.265"",""0.832"",""0.692""]","[1,1,0,1]",0,35,35,35,1,1,1,,,1,FALSE,,,,,,,,,,,,,,,,,,,,,,,,,,,,,,,
,60be8dd61cec210d627483de,627c700a2125bfc373c4ea75,2022-05-12_03h26.08.401,classification_task,2021.2.3,Win32,60.04202942,627c6715c52fd12f31907bd0,,,,,,,,,,,,,,,,,,,,,,,a,1,0.7494,"[""0.298"",""0.340"",""0.741"",""0.652""]","[1,1,1,0]",0,36,36,36,1,0,1,,,1,FALSE,,,,,,,,,,,,,,,,,,,,,,,,,,,,,,,
,60be8dd61cec210d627483de,627c700a2125bfc373c4ea75,2022-05-12_03h26.08.401,classification_task,2021.2.3,Win32,60.04202942,627c6715c52fd12f31907bd0,,,,,,,,,,,,,,,,,,,,,,,a,1,0.7839,"[""0.190"",""0.650"",""0.603"",""0.894""]","[1,0,1,1]",0,37,37,37,1,0,0,,,1,FALSE,,,,,,,,,,,,,,,,,,,,,,,,,,,,,,,
,60be8dd61cec210d627483de,627c700a2125bfc373c4ea75,2022-05-12_03h26.08.401,classification_task,2021.2.3,Win32,60.04202942,627c6715c52fd12f31907bd0,,,,,,,,,,,,,,,,,,,,,,,l,0,0.5827,"[""0.834"",""0.340"",""0.741"",""0.931""]","[0,1,1,1]",0,38,38,38,1,0,1,,,1,FALSE,,,,,,,,,,,,,,,,,,,,,,,,,,,,,,,
,60be8dd61cec210d627483de,627c700a2125bfc373c4ea75,2022-05-12_03h26.08.401,classification_task,2021.2.3,Win32,60.04202942,627c6715c52fd12f31907bd0,,,,,,,,,,,,,,,,,,,,,,,l,1,0.3378,"[""0.034"",""0.398"",""0.548"",""0.828""]","[1,1,1,0]",0,39,39,39,1,1,0,,,1,FALSE,,,,,,,,,,,,,,,,,,,,,,,,,,,,,,,
,60be8dd61cec210d627483de,627c700a2125bfc373c4ea75,2022-05-12_03h26.08.401,classification_task,2021.2.3,Win32,60.04202942,627c6715c52fd12f31907bd0,,,,,,,,,,,,,,,,,,,,,,,a,1,0.6052,"[""0.190"",""0.489"",""0.828"",""0.894""]","[1,1,0,1]",0,40,40,40,1,0,0,,,1,FALSE,,,,,,,,,,,,,,,,,,,,,,,,,,,,,,,
,60be8dd61cec210d627483de,627c700a2125bfc373c4ea75,2022-05-12_03h26.08.401,classification_task,2021.2.3,Win32,60.04202942,627c6715c52fd12f31907bd0,,,,,,,,,,,,,,,,,,,,,,,a,0,0.5749,"[""0.126"",""0.265"",""0.452"",""0.828""]","[1,1,1,0]",0,41,41,41,1,1,1,,,1,FALSE,,,,,,,,,,,,,,,,,,,,,,,,,,,,,,,
,60be8dd61cec210d627483de,627c700a2125bfc373c4ea75,2022-05-12_03h26.08.401,classification_task,2021.2.3,Win32,60.04202942,627c6715c52fd12f31907bd0,,,,,,,,,,,,,,,,,,,,,,,l,1,0.3654,"[""0.126"",""0.089"",""0.452"",""0.692""]","[1,0,1,1]",0,42,42,42,1,1,1,,,1,FALSE,,,,,,,,,,,,,,,,,,,,,,,,,,,,,,,
,60be8dd61cec210d627483de,627c700a2125bfc373c4ea75,2022-05-12_03h26.08.401,classification_task,2021.2.3,Win32,60.04202942,627c6715c52fd12f31907bd0,,,,,,,,,,,,,,,,,,,,,,,a,0,0.5833,"[""0.034"",""0.857"",""0.548"",""0.782""]","[1,0,1,1]",0,43,43,43,1,1,0,,,1,FALSE,,,,,,,,,,,,,,,,,,,,,,,,,,,,,,,
,60be8dd61cec210d627483de,627c700a2125bfc373c4ea75,2022-05-12_03h26.08.401,classification_task,2021.2.3,Win32,60.04202942,627c6715c52fd12f31907bd0,,,,,,,,,,,,,,,,,,,,,,,a,1,2.2814,"[""0.298"",""0.652"",""0.741"",""0.931""]","[1,0,1,1]",0,44,44,44,1,0,1,,,1,FALSE,,,,,,,,,,,,,,,,,,,,,,,,,,,,,,,
,60be8dd61cec210d627483de,627c700a2125bfc373c4ea75,2022-05-12_03h26.08.401,classification_task,2021.2.3,Win32,60.04202942,627c6715c52fd12f31907bd0,,,,,,,,,,,,,,,,,,,,,,,l,1,0.6491,"[""0.089"",""0.398"",""0.548"",""0.782""]","[0,1,1,1]",0,45,45,45,1,1,0,,,1,FALSE,,,,,,,,,,,,,,,,,,,,,,,,,,,,,,,
,60be8dd61cec210d627483de,627c700a2125bfc373c4ea75,2022-05-12_03h26.08.401,classification_task,2021.2.3,Win32,60.04202942,627c6715c52fd12f31907bd0,,,,,,,,,,,,,,,,,,,,,,,l,0,0.699,"[""0.190"",""0.489"",""0.603"",""0.650""]","[1,1,1,0]",0,46,46,46,1,0,0,,,1,FALSE,,,,,,,,,,,,,,,,,,,,,,,,,,,,,,,
,60be8dd61cec210d627483de,627c700a2125bfc373c4ea75,2022-05-12_03h26.08.401,classification_task,2021.2.3,Win32,60.04202942,627c6715c52fd12f31907bd0,,,,,,,,,,,,,,,,,,,,,,,l,1,0.6995,"[""0.034"",""0.398"",""0.652"",""0.782""]","[1,1,0,1]",0,47,47,47,1,1,0,,,1,FALSE,,,,,,,,,,,,,,,,,,,,,,,,,,,,,,,
,60be8dd61cec210d627483de,627c700a2125bfc373c4ea75,2022-05-12_03h26.08.401,classification_task,2021.2.3,Win32,60.04202942,627c6715c52fd12f31907bd0,,,,,,,,,,,,,,,,,,,,,,,l,1,0.6746,"[""0.034"",""0.975"",""0.548"",""0.782""]","[1,0,1,1]",0,48,48,48,1,1,0,,,1,FALSE,,,,,,,,,,,,,,,,,,,,,,,,,,,,,,,
,60be8dd61cec210d627483de,627c700a2125bfc373c4ea75,2022-05-12_03h26.08.401,classification_task,2021.2.3,Win32,60.04202942,627c6715c52fd12f31907bd0,,,,,,,,,,,,,,,,,,,,,,,a,1,0.6916,"[""0.828"",""0.489"",""0.603"",""0.894""]","[0,1,1,1]",0,49,49,49,1,0,0,,,1,FALSE,,,,,,,,,,,,,,,,,,,,,,,,,,,,,,,
,60be8dd61cec210d627483de,627c700a2125bfc373c4ea75,2022-05-12_03h26.08.401,classification_task,2021.2.3,Win32,60.04202942,627c6715c52fd12f31907bd0,,,,,,,,,,,,,,,,,,,,,,,a,0,1.6065,"[""0.126"",""0.265"",""0.452"",""0.089""]","[1,1,1,0]",0,50,50,50,1,1,1,,,1,FALSE,,,,,,,,,,,,,,,,,,,,,,,,,,,,,,,
,60be8dd61cec210d627483de,627c700a2125bfc373c4ea75,2022-05-12_03h26.08.401,classification_task,2021.2.3,Win32,60.04202942,627c6715c52fd12f31907bd0,,,,,,,,,,,,,,,,,,,,,,,a,1,1.2493,"[""0.298"",""0.340"",""0.741"",""0.971""]","[1,1,1,0]",0,51,51,51,1,0,1,,,1,FALSE,,,,,,,,,,,,,,,,,,,,,,,,,,,,,,,
,60be8dd61cec210d627483de,627c700a2125bfc373c4ea75,2022-05-12_03h26.08.401,classification_task,2021.2.3,Win32,60.04202942,627c6715c52fd12f31907bd0,,,,,,,,,,,,,,,,,,,,,,,l,0,1.191,"[""0.190"",""0.489"",""0.603"",""0.658""]","[1,1,1,0]",0,52,52,52,1,0,0,,,1,FALSE,,,,,,,,,,,,,,,,,,,,,,,,,,,,,,,
,60be8dd61cec210d627483de,627c700a2125bfc373c4ea75,2022-05-12_03h26.08.401,classification_task,2021.2.3,Win32,60.04202942,627c6715c52fd12f31907bd0,,,,,,,,,,,,,,,,,,,,,,,l,0,0.6374,"[""0.190"",""0.084"",""0.603"",""0.894""]","[1,0,1,1]",0,53,53,53,1,0,0,,,1,FALSE,,,,,,,,,,,,,,,,,,,,,,,,,,,,,,,
,60be8dd61cec210d627483de,627c700a2125bfc373c4ea75,2022-05-12_03h26.08.401,classification_task,2021.2.3,Win32,60.04202942,627c6715c52fd12f31907bd0,,,,,,,,,,,,,,,,,,,,,,,l,1,0.7389,"[""0.034"",""0.398"",""0.971"",""0.782""]","[1,1,0,1]",0,54,54,54,1,1,0,,,1,FALSE,,,,,,,,,,,,,,,,,,,,,,,,,,,,,,,
,60be8dd61cec210d627483de,627c700a2125bfc373c4ea75,2022-05-12_03h26.08.401,classification_task,2021.2.3,Win32,60.04202942,627c6715c52fd12f31907bd0,,,,,,,,,,,,,,,,,,,,,,,a,1,1.2671,"[""0.834"",""0.340"",""0.741"",""0.931""]","[0,1,1,1]",0,55,55,55,1,0,1,,,1,FALSE,,,,,,,,,,,,,,,,,,,,,,,,,,,,,,,
,60be8dd61cec210d627483de,627c700a2125bfc373c4ea75,2022-05-12_03h26.08.401,classification_task,2021.2.3,Win32,60.04202942,627c6715c52fd12f31907bd0,,,,,,,,,,,,,,,,,,,,,,,l,1,1.3258,"[""0.975"",""0.398"",""0.548"",""0.782""]","[0,1,1,1]",0,56,56,56,1,1,0,,,1,FALSE,,,,,,,,,,,,,,,,,,,,,,,,,,,,,,,
,60be8dd61cec210d627483de,627c700a2125bfc373c4ea75,2022-05-12_03h26.08.401,classification_task,2021.2.3,Win32,60.04202942,627c6715c52fd12f31907bd0,,,,,,,,,,,,,,,,,,,,,,,a,0,1.0992,"[""0.126"",""0.642"",""0.452"",""0.692""]","[1,0,1,1]",0,57,57,57,1,1,1,,,1,FALSE,,,,,,,,,,,,,,,,,,,,,,,,,,,,,,,
,60be8dd61cec210d627483de,627c700a2125bfc373c4ea75,2022-05-12_03h26.08.401,classification_task,2021.2.3,Win32,60.04202942,627c6715c52fd12f31907bd0,,,,,,,,,,,,,,,,,,,,,,,a,1,1.7382,"[""0.298"",""0.080"",""0.741"",""0.931""]","[1,0,1,1]",0,58,58,58,1,0,1,,,1,FALSE,,,,,,,,,,,,,,,,,,,,,,,,,,,,,,,
,60be8dd61cec210d627483de,627c700a2125bfc373c4ea75,2022-05-12_03h26.08.401,classification_task,2021.2.3,Win32,60.04202942,627c6715c52fd12f31907bd0,,,,,,,,,,,,,,,,,,,,,,,a,1,1.0826,"[""0.298"",""0.340"",""0.975"",""0.931""]","[1,1,0,1]",0,59,59,59,1,0,1,,,1,FALSE,,,,,,,,,,,,,,,,,,,,,,,,,,,,,,,
,60be8dd61cec210d627483de,627c700a2125bfc373c4ea75,2022-05-12_03h26.08.401,classification_task,2021.2.3,Win32,60.04202942,627c6715c52fd12f31907bd0,,,,,,,,,,,,,,,,,,,,,,,a,1,0.7369,"[""0.190"",""0.489"",""0.652"",""0.894""]","[1,1,0,1]",0,60,60,60,1,0,0,,,1,FALSE,,,,,,,,,,,,,,,,,,,,,,,,,,,,,,,
,60be8dd61cec210d627483de,627c700a2125bfc373c4ea75,2022-05-12_03h26.08.401,classification_task,2021.2.3,Win32,60.04202942,627c6715c52fd12f31907bd0,,,,,,,,,,,,,,,,,,,,,,,l,1,0.657,"[""0.834"",""0.265"",""0.452"",""0.692""]","[0,1,1,1]",0,61,61,61,1,1,1,,,1,FALSE,,,,,,,,,,,,,,,,,,,,,,,,,,,,,,,
,60be8dd61cec210d627483de,627c700a2125bfc373c4ea75,2022-05-12_03h26.08.401,classification_task,2021.2.3,Win32,60.04202942,627c6715c52fd12f31907bd0,,,,,,,,,,,,,,,,,,,,,,,l,1,1.3388,"[""0.034"",""0.398"",""0.548"",""0.828""]","[1,1,1,0]",0,62,62,62,1,1,0,,,1,FALSE,,,,,,,,,,,,,,,,,,,,,,,,,,,,,,,
,60be8dd61cec210d627483de,627c700a2125bfc373c4ea75,2022-05-12_03h26.08.401,classification_task,2021.2.3,Win32,60.04202942,627c6715c52fd12f31907bd0,,,,,,,,,,,,,,,,,,,,,,,a,0,1.0547,"[""0.126"",""0.265"",""0.971"",""0.692""]","[1,1,0,1]",0,63,63,63,1,1,1,,,1,FALSE,,,,,,,,,,,,,,,,,,,,,,,,,,,,,,,
,60be8dd61cec210d627483de,627c700a2125bfc373c4ea75,2022-05-12_03h26.08.401,classification_task,2021.2.3,Win32,60.04202942,627c6715c52fd12f31907bd0,,,,,,,,,,,,,,,,,,,,,,,,,,,,,,,,,,,,,,,0, ,,0,2.311630787,167.9691,0,1,1,1,1,2,2,,,,,,,,,,,,,,,,,,
,60be8dd61cec210d627483de,627c700a2125bfc373c4ea75,2022-05-12_03h26.08.401,classification_task,2021.2.3,Win32,60.04202942,627c6715c52fd12f31907bd0,,,,,,,,,,,,,,,,,,,,,,,,,,,,,,,,,,,,,,,1,  ,,0,9.366305256,181.7622,0,1,1,1,1,2,2,,,,,,,,,,,,,,,,,,
,60be8dd61cec210d627483de,627c700a2125bfc373c4ea75,2022-05-12_03h26.08.401,classification_task,2021.2.3,Win32,60.04202942,627c6715c52fd12f31907bd0,,,,,,,,,,,,,,,,,,,,,,,,,,,,,,,,,,,,,,,2,  ,,0,9.954193238,186.7238,0,1,1,1,1,2,2,,,,,,,,,,,,,,,,,,
,60be8dd61cec210d627483de,627c700a2125bfc373c4ea75,2022-05-12_03h26.08.401,classification_task,2021.2.3,Win32,60.04202942,627c6715c52fd12f31907bd0,,,,,,,,,,,,,,,,,,,,,,,,,,,,,,,,,,,,,,,,,,,,,0,1,1,1,1,,2,,,,,,,,,,,,,,,,,,
,60be8dd61cec210d627483de,627c700a2125bfc373c4ea75,2022-05-12_03h26.08.401,classification_task,2021.2.3,Win32,60.04202942,627c6715c52fd12f31907bd0,,,,,,,,,,,,,,,,,,,,,space,7.3497,l,0,1.2151,"[""0.190"",""0.489"",""0.603"",""0.650""]","[1,1,1,0]",0,0,0,0,1,0,0,,,1,FALSE,,,,,,,,,,,,,,,,,,,,,,,,,,,,,,,
,60be8dd61cec210d627483de,627c700a2125bfc373c4ea75,2022-05-12_03h26.08.401,classification_task,2021.2.3,Win32,60.04202942,627c6715c52fd12f31907bd0,,,,,,,,,,,,,,,,,,,,,,,l,1,1.7666,"[""0.034"",""0.398"",""0.975"",""0.782""]","[1,1,0,1]",0,1,1,1,1,1,0,,,1,FALSE,,,,,,,,,,,,,,,,,,,,,,,,,,,,,,,
,60be8dd61cec210d627483de,627c700a2125bfc373c4ea75,2022-05-12_03h26.08.401,classification_task,2021.2.3,Win32,60.04202942,627c6715c52fd12f31907bd0,,,,,,,,,,,,,,,,,,,,,,,a,1,1.8143,"[""0.298"",""0.340"",""0.741"",""0.658""]","[1,1,1,0]",0,2,2,2,1,0,1,,,1,FALSE,,,,,,,,,,,,,,,,,,,,,,,,,,,,,,,
,60be8dd61cec210d627483de,627c700a2125bfc373c4ea75,2022-05-12_03h26.08.401,classification_task,2021.2.3,Win32,60.04202942,627c6715c52fd12f31907bd0,,,,,,,,,,,,,,,,,,,,,,,a,1,1.4477,"[""0.652"",""0.340"",""0.741"",""0.931""]","[0,1,1,1]",0,3,3,3,1,0,1,,,1,FALSE,,,,,,,,,,,,,,,,,,,,,,,,,,,,,,,
,60be8dd61cec210d627483de,627c700a2125bfc373c4ea75,2022-05-12_03h26.08.401,classification_task,2021.2.3,Win32,60.04202942,627c6715c52fd12f31907bd0,,,,,,,,,,,,,,,,,,,,,,,a,0,0.8763,"[""0.126"",""0.265"",""0.819"",""0.692""]","[1,1,0,1]",0,4,4,4,1,1,1,,,1,FALSE,,,,,,,,,,,,,,,,,,,,,,,,,,,,,,,
,60be8dd61cec210d627483de,627c700a2125bfc373c4ea75,2022-05-12_03h26.08.401,classification_task,2021.2.3,Win32,60.04202942,627c6715c52fd12f31907bd0,,,,,,,,,,,,,,,,,,,,,,,a,0,0.8326,"[""0.126"",""0.819"",""0.452"",""0.692""]","[1,0,1,1]",0,5,5,5,1,1,1,,,1,FALSE,,,,,,,,,,,,,,,,,,,,,,,,,,,,,,,
,60be8dd61cec210d627483de,627c700a2125bfc373c4ea75,2022-05-12_03h26.08.401,classification_task,2021.2.3,Win32,60.04202942,627c6715c52fd12f31907bd0,,,,,,,,,,,,,,,,,,,,,,,a,0,0.7928,"[""0.079"",""0.265"",""0.452"",""0.692""]","[0,1,1,1]",0,6,6,6,1,1,1,,,1,FALSE,,,,,,,,,,,,,,,,,,,,,,,,,,,,,,,
,60be8dd61cec210d627483de,627c700a2125bfc373c4ea75,2022-05-12_03h26.08.401,classification_task,2021.2.3,Win32,60.04202942,627c6715c52fd12f31907bd0,,,,,,,,,,,,,,,,,,,,,,,l,0,1.3156,"[""0.190"",""0.489"",""0.080"",""0.894""]","[1,1,0,1]",0,7,7,7,1,0,0,,,1,FALSE,,,,,,,,,,,,,,,,,,,,,,,,,,,,,,,
,60be8dd61cec210d627483de,627c700a2125bfc373c4ea75,2022-05-12_03h26.08.401,classification_task,2021.2.3,Win32,60.04202942,627c6715c52fd12f31907bd0,,,,,,,,,,,,,,,,,,,,,,,l,1,1.1917,"[""0.080"",""0.398"",""0.548"",""0.782""]","[0,1,1,1]",0,8,8,8,1,1,0,,,1,FALSE,,,,,,,,,,,,,,,,,,,,,,,,,,,,,,,
,60be8dd61cec210d627483de,627c700a2125bfc373c4ea75,2022-05-12_03h26.08.401,classification_task,2021.2.3,Win32,60.04202942,627c6715c52fd12f31907bd0,,,,,,,,,,,,,,,,,,,,,,,a,1,0.907,"[""0.084"",""0.489"",""0.603"",""0.894""]","[0,1,1,1]",0,9,9,9,1,0,0,,,1,FALSE,,,,,,,,,,,,,,,,,,,,,,,,,,,,,,,
,60be8dd61cec210d627483de,627c700a2125bfc373c4ea75,2022-05-12_03h26.08.401,classification_task,2021.2.3,Win32,60.04202942,627c6715c52fd12f31907bd0,,,,,,,,,,,,,,,,,,,,,,,l,1,0.6836,"[""0.034"",""0.658"",""0.548"",""0.782""]","[1,0,1,1]",0,10,10,10,1,1,0,,,1,FALSE,,,,,,,,,,,,,,,,,,,,,,,,,,,,,,,
,60be8dd61cec210d627483de,627c700a2125bfc373c4ea75,2022-05-12_03h26.08.401,classification_task,2021.2.3,Win32,60.04202942,627c6715c52fd12f31907bd0,,,,,,,,,,,,,,,,,,,,,,,l,0,2.1553,"[""0.190"",""0.642"",""0.603"",""0.894""]","[1,0,1,1]",0,11,11,11,1,0,0,,,1,FALSE,,,,,,,,,,,,,,,,,,,,,,,,,,,,,,,
,60be8dd61cec210d627483de,627c700a2125bfc373c4ea75,2022-05-12_03h26.08.401,classification_task,2021.2.3,Win32,60.04202942,627c6715c52fd12f31907bd0,,,,,,,,,,,,,,,,,,,,,,,a,0,1.2083,"[""0.126"",""0.265"",""0.452"",""0.857""]","[1,1,1,0]",0,12,12,12,1,1,1,,,1,FALSE,,,,,,,,,,,,,,,,,,,,,,,,,,,,,,,
,60be8dd61cec210d627483de,627c700a2125bfc373c4ea75,2022-05-12_03h26.08.401,classification_task,2021.2.3,Win32,60.04202942,627c6715c52fd12f31907bd0,,,,,,,,,,,,,,,,,,,,,,,a,1,1.0976,"[""0.298"",""0.340"",""0.079"",""0.931""]","[1,1,0,1]",0,13,13,13,1,0,1,,,1,FALSE,,,,,,,,,,,,,,,,,,,,,,,,,,,,,,,
,60be8dd61cec210d627483de,627c700a2125bfc373c4ea75,2022-05-12_03h26.08.401,classification_task,2021.2.3,Win32,60.04202942,627c6715c52fd12f31907bd0,,,,,,,,,,,,,,,,,,,,,,,l,1,0.9655,"[""0.034"",""0.398"",""0.548"",""0.819""]","[1,1,1,0]",0,14,14,14,1,1,0,,,1,FALSE,,,,,,,,,,,,,,,,,,,,,,,,,,,,,,,
,60be8dd61cec210d627483de,627c700a2125bfc373c4ea75,2022-05-12_03h26.08.401,classification_task,2021.2.3,Win32,60.04202942,627c6715c52fd12f31907bd0,,,,,,,,,,,,,,,,,,,,,,,a,1,1.6913,"[""0.298"",""0.834"",""0.741"",""0.931""]","[1,0,1,1]",0,15,15,15,1,0,1,,,1,FALSE,,,,,,,,,,,,,,,,,,,,,,,,,,,,,,,
,60be8dd61cec210d627483de,627c700a2125bfc373c4ea75,2022-05-12_03h26.08.401,classification_task,2021.2.3,Win32,60.04202942,627c6715c52fd12f31907bd0,,,,,,,,,,,,,,,,,,,,,,,l,1,0.8676,"[""0.034"",""0.079"",""0.548"",""0.782""]","[1,0,1,1]",0,16,16,16,1,1,0,,,1,FALSE,,,,,,,,,,,,,,,,,,,,,,,,,,,,,,,
,60be8dd61cec210d627483de,627c700a2125bfc373c4ea75,2022-05-12_03h26.08.401,classification_task,2021.2.3,Win32,60.04202942,627c6715c52fd12f31907bd0,,,,,,,,,,,,,,,,,,,,,,,l,0,1.7485,"[""0.652"",""0.340"",""0.741"",""0.931""]","[0,1,1,1]",0,17,17,17,1,0,1,,,1,FALSE,,,,,,,,,,,,,,,,,,,,,,,,,,,,,,,
,60be8dd61cec210d627483de,627c700a2125bfc373c4ea75,2022-05-12_03h26.08.401,classification_task,2021.2.3,Win32,60.04202942,627c6715c52fd12f31907bd0,,,,,,,,,,,,,,,,,,,,,,,a,0,0.8088,"[""0.652"",""0.398"",""0.548"",""0.782""]","[0,1,1,1]",0,18,18,18,1,1,0,,,1,FALSE,,,,,,,,,,,,,,,,,,,,,,,,,,,,,,,
,60be8dd61cec210d627483de,627c700a2125bfc373c4ea75,2022-05-12_03h26.08.401,classification_task,2021.2.3,Win32,60.04202942,627c6715c52fd12f31907bd0,,,,,,,,,,,,,,,,,,,,,,,a,0,1.3249,"[""0.126"",""0.265"",""0.843"",""0.692""]","[1,1,0,1]",0,19,19,19,1,1,1,,,1,FALSE,,,,,,,,,,,,,,,,,,,,,,,,,,,,,,,
,60be8dd61cec210d627483de,627c700a2125bfc373c4ea75,2022-05-12_03h26.08.401,classification_task,2021.2.3,Win32,60.04202942,627c6715c52fd12f31907bd0,,,,,,,,,,,,,,,,,,,,,,,a,1,1.8669,"[""0.190"",""0.489"",""0.658"",""0.894""]","[1,1,0,1]",0,20,20,20,1,0,0,,,1,FALSE,,,,,,,,,,,,,,,,,,,,,,,,,,,,,,,
,60be8dd61cec210d627483de,627c700a2125bfc373c4ea75,2022-05-12_03h26.08.401,classification_task,2021.2.3,Win32,60.04202942,627c6715c52fd12f31907bd0,,,,,,,,,,,,,,,,,,,,,,,l,0,1.0901,"[""0.298"",""0.340"",""0.857"",""0.931""]","[1,1,0,1]",0,21,21,21,1,0,1,,,1,FALSE,,,,,,,,,,,,,,,,,,,,,,,,,,,,,,,
,60be8dd61cec210d627483de,627c700a2125bfc373c4ea75,2022-05-12_03h26.08.401,classification_task,2021.2.3,Win32,60.04202942,627c6715c52fd12f31907bd0,,,,,,,,,,,,,,,,,,,,,,,l,0,0.7025,"[""0.298"",""0.971"",""0.741"",""0.931""]","[1,0,1,1]",0,22,22,22,1,0,1,,,1,FALSE,,,,,,,,,,,,,,,,,,,,,,,,,,,,,,,
,60be8dd61cec210d627483de,627c700a2125bfc373c4ea75,2022-05-12_03h26.08.401,classification_task,2021.2.3,Win32,60.04202942,627c6715c52fd12f31907bd0,,,,,,,,,,,,,,,,,,,,,,,a,1,1.4821,"[""0.190"",""0.489"",""0.603"",""0.834""]","[1,1,1,0]",0,23,23,23,1,0,0,,,1,FALSE,,,,,,,,,,,,,,,,,,,,,,,,,,,,,,,
,60be8dd61cec210d627483de,627c700a2125bfc373c4ea75,2022-05-12_03h26.08.401,classification_task,2021.2.3,Win32,60.04202942,627c6715c52fd12f31907bd0,,,,,,,,,,,,,,,,,,,,,,,l,1,0.591,"[""0.034"",""0.398"",""0.832"",""0.782""]","[1,1,0,1]",0,24,24,24,1,1,0,,,1,FALSE,,,,,,,,,,,,,,,,,,,,,,,,,,,,,,,
,60be8dd61cec210d627483de,627c700a2125bfc373c4ea75,2022-05-12_03h26.08.401,classification_task,2021.2.3,Win32,60.04202942,627c6715c52fd12f31907bd0,,,,,,,,,,,,,,,,,,,,,,,a,0,2.7986,"[""0.126"",""0.265"",""0.452"",""0.084""]","[1,1,1,0]",0,25,25,25,1,1,1,,,1,FALSE,,,,,,,,,,,,,,,,,,,,,,,,,,,,,,,
,60be8dd61cec210d627483de,627c700a2125bfc373c4ea75,2022-05-12_03h26.08.401,classification_task,2021.2.3,Win32,60.04202942,627c6715c52fd12f31907bd0,,,,,,,,,,,,,,,,,,,,,,,l,1,0.5934,"[""0.034"",""0.398"",""0.548"",""0.642""]","[1,1,1,0]",0,26,26,26,1,1,0,,,1,FALSE,,,,,,,,,,,,,,,,,,,,,,,,,,,,,,,
,60be8dd61cec210d627483de,627c700a2125bfc373c4ea75,2022-05-12_03h26.08.401,classification_task,2021.2.3,Win32,60.04202942,627c6715c52fd12f31907bd0,,,,,,,,,,,,,,,,,,,,,,,a,1,1.0382,"[""0.832"",""0.489"",""0.603"",""0.894""]","[0,1,1,1]",0,27,27,27,1,0,0,,,1,FALSE,,,,,,,,,,,,,,,,,,,,,,,,,,,,,,,
,60be8dd61cec210d627483de,627c700a2125bfc373c4ea75,2022-05-12_03h26.08.401,classification_task,2021.2.3,Win32,60.04202942,627c6715c52fd12f31907bd0,,,,,,,,,,,,,,,,,,,,,,,a,0,0.9843,"[""0.126"",""0.642"",""0.452"",""0.692""]","[1,0,1,1]",0,28,28,28,1,1,1,,,1,FALSE,,,,,,,,,,,,,,,,,,,,,,,,,,,,,,,
,60be8dd61cec210d627483de,627c700a2125bfc373c4ea75,2022-05-12_03h26.08.401,classification_task,2021.2.3,Win32,60.04202942,627c6715c52fd12f31907bd0,,,,,,,,,,,,,,,,,,,,,,,a,1,1.184,"[""0.190"",""0.650"",""0.603"",""0.894""]","[1,0,1,1]",0,29,29,29,1,0,0,,,1,FALSE,,,,,,,,,,,,,,,,,,,,,,,,,,,,,,,
,60be8dd61cec210d627483de,627c700a2125bfc373c4ea75,2022-05-12_03h26.08.401,classification_task,2021.2.3,Win32,60.04202942,627c6715c52fd12f31907bd0,,,,,,,,,,,,,,,,,,,,,,,l,1,1.432,"[""0.971"",""0.265"",""0.452"",""0.692""]","[0,1,1,1]",0,30,30,30,1,1,1,,,1,FALSE,,,,,,,,,,,,,,,,,,,,,,,,,,,,,,,
,60be8dd61cec210d627483de,627c700a2125bfc373c4ea75,2022-05-12_03h26.08.401,classification_task,2021.2.3,Win32,60.04202942,627c6715c52fd12f31907bd0,,,,,,,,,,,,,,,,,,,,,,,a,1,0.8861,"[""0.298"",""0.340"",""0.741"",""0.832""]","[1,1,1,0]",0,31,31,31,1,0,1,,,1,FALSE,,,,,,,,,,,,,,,,,,,,,,,,,,,,,,,
,60be8dd61cec210d627483de,627c700a2125bfc373c4ea75,2022-05-12_03h26.08.401,classification_task,2021.2.3,Win32,60.04202942,627c6715c52fd12f31907bd0,,,,,,,,,,,,,,,,,,,,,,,l,0,1.2356,"[""0.298"",""0.340"",""0.741"",""0.089""]","[1,1,1,0]",0,32,32,32,1,0,1,,,1,FALSE,,,,,,,,,,,,,,,,,,,,,,,,,,,,,,,
,60be8dd61cec210d627483de,627c700a2125bfc373c4ea75,2022-05-12_03h26.08.401,classification_task,2021.2.3,Win32,60.04202942,627c6715c52fd12f31907bd0,,,,,,,,,,,,,,,,,,,,,,,a,0,1.0737,"[""0.126"",""0.265"",""0.452"",""0.857""]","[1,1,1,0]",0,33,33,33,1,1,1,,,1,FALSE,,,,,,,,,,,,,,,,,,,,,,,,,,,,,,,
,60be8dd61cec210d627483de,627c700a2125bfc373c4ea75,2022-05-12_03h26.08.401,classification_task,2021.2.3,Win32,60.04202942,627c6715c52fd12f31907bd0,,,,,,,,,,,,,,,,,,,,,,,a,1,0.5623,"[""0.298"",""0.089"",""0.741"",""0.931""]","[1,0,1,1]",0,34,34,34,1,0,1,,,1,FALSE,,,,,,,,,,,,,,,,,,,,,,,,,,,,,,,
,60be8dd61cec210d627483de,627c700a2125bfc373c4ea75,2022-05-12_03h26.08.401,classification_task,2021.2.3,Win32,60.04202942,627c6715c52fd12f31907bd0,,,,,,,,,,,,,,,,,,,,,,,l,1,0.6619,"[""0.034"",""0.398"",""0.658"",""0.782""]","[1,1,0,1]",0,35,35,35,1,1,0,,,1,FALSE,,,,,,,,,,,,,,,,,,,,,,,,,,,,,,,
,60be8dd61cec210d627483de,627c700a2125bfc373c4ea75,2022-05-12_03h26.08.401,classification_task,2021.2.3,Win32,60.04202942,627c6715c52fd12f31907bd0,,,,,,,,,,,,,,,,,,,,,,,l,1,0.8734,"[""0.034"",""0.398"",""0.548"",""0.079""]","[1,1,1,0]",0,36,36,36,1,1,0,,,1,FALSE,,,,,,,,,,,,,,,,,,,,,,,,,,,,,,,
,60be8dd61cec210d627483de,627c700a2125bfc373c4ea75,2022-05-12_03h26.08.401,classification_task,2021.2.3,Win32,60.04202942,627c6715c52fd12f31907bd0,,,,,,,,,,,,,,,,,,,,,,,a,0,0.7988,"[""0.126"",""0.265"",""0.843"",""0.692""]","[1,1,0,1]",0,37,37,37,1,1,1,,,1,FALSE,,,,,,,,,,,,,,,,,,,,,,,,,,,,,,,
,60be8dd61cec210d627483de,627c700a2125bfc373c4ea75,2022-05-12_03h26.08.401,classification_task,2021.2.3,Win32,60.04202942,627c6715c52fd12f31907bd0,,,,,,,,,,,,,,,,,,,,,,,a,0,2.5315,"[""0.658"",""0.265"",""0.452"",""0.692""]","[0,1,1,1]",0,38,38,38,1,1,1,,,1,FALSE,,,,,,,,,,,,,,,,,,,,,,,,,,,,,,,
,60be8dd61cec210d627483de,627c700a2125bfc373c4ea75,2022-05-12_03h26.08.401,classification_task,2021.2.3,Win32,60.04202942,627c6715c52fd12f31907bd0,,,,,,,,,,,,,,,,,,,,,,,l,0,1.0631,"[""0.832"",""0.340"",""0.741"",""0.931""]","[0,1,1,1]",0,39,39,39,1,0,1,,,1,FALSE,,,,,,,,,,,,,,,,,,,,,,,,,,,,,,,
,60be8dd61cec210d627483de,627c700a2125bfc373c4ea75,2022-05-12_03h26.08.401,classification_task,2021.2.3,Win32,60.04202942,627c6715c52fd12f31907bd0,,,,,,,,,,,,,,,,,,,,,,,l,0,0.6837,"[""0.298"",""0.340"",""0.650"",""0.931""]","[1,1,0,1]",0,40,40,40,1,0,1,,,1,FALSE,,,,,,,,,,,,,,,,,,,,,,,,,,,,,,,
,60be8dd61cec210d627483de,627c700a2125bfc373c4ea75,2022-05-12_03h26.08.401,classification_task,2021.2.3,Win32,60.04202942,627c6715c52fd12f31907bd0,,,,,,,,,,,,,,,,,,,,,,,a,0,1.9981,"[""0.126"",""0.650"",""0.452"",""0.692""]","[1,0,1,1]",0,41,41,41,1,1,1,,,1,FALSE,,,,,,,,,,,,,,,,,,,,,,,,,,,,,,,
,60be8dd61cec210d627483de,627c700a2125bfc373c4ea75,2022-05-12_03h26.08.401,classification_task,2021.2.3,Win32,60.04202942,627c6715c52fd12f31907bd0,,,,,,,,,,,,,,,,,,,,,,,a,1,1.6212,"[""0.190"",""0.489"",""0.603"",""0.857""]","[1,1,1,0]",0,42,42,42,1,0,0,,,1,FALSE,,,,,,,,,,,,,,,,,,,,,,,,,,,,,,,
,60be8dd61cec210d627483de,627c700a2125bfc373c4ea75,2022-05-12_03h26.08.401,classification_task,2021.2.3,Win32,60.04202942,627c6715c52fd12f31907bd0,,,,,,,,,,,,,,,,,,,,,,,a,1,1.0999,"[""0.190"",""0.642"",""0.603"",""0.894""]","[1,0,1,1]",0,43,43,43,1,0,0,,,1,FALSE,,,,,,,,,,,,,,,,,,,,,,,,,,,,,,,
,60be8dd61cec210d627483de,627c700a2125bfc373c4ea75,2022-05-12_03h26.08.401,classification_task,2021.2.3,Win32,60.04202942,627c6715c52fd12f31907bd0,,,,,,,,,,,,,,,,,,,,,,,l,0,1.0998,"[""0.834"",""0.489"",""0.603"",""0.894""]","[0,1,1,1]",0,44,44,44,1,0,0,,,1,FALSE,,,,,,,,,,,,,,,,,,,,,,,,,,,,,,,
,60be8dd61cec210d627483de,627c700a2125bfc373c4ea75,2022-05-12_03h26.08.401,classification_task,2021.2.3,Win32,60.04202942,627c6715c52fd12f31907bd0,,,,,,,,,,,,,,,,,,,,,,,l,1,0.7404,"[""0.034"",""0.834"",""0.548"",""0.782""]","[1,0,1,1]",0,45,45,45,1,1,0,,,1,FALSE,,,,,,,,,,,,,,,,,,,,,,,,,,,,,,,
,60be8dd61cec210d627483de,627c700a2125bfc373c4ea75,2022-05-12_03h26.08.401,classification_task,2021.2.3,Win32,60.04202942,627c6715c52fd12f31907bd0,,,,,,,,,,,,,,,,,,,,,,,a,0,0.7408,"[""0.658"",""0.398"",""0.548"",""0.782""]","[0,1,1,1]",0,46,46,46,1,1,0,,,1,FALSE,,,,,,,,,,,,,,,,,,,,,,,,,,,,,,,
,60be8dd61cec210d627483de,627c700a2125bfc373c4ea75,2022-05-12_03h26.08.401,classification_task,2021.2.3,Win32,60.04202942,627c6715c52fd12f31907bd0,,,,,,,,,,,,,,,,,,,,,,,a,1,0.6329,"[""0.190"",""0.489"",""0.857"",""0.894""]","[1,1,0,1]",0,47,47,47,1,0,0,,,1,FALSE,,,,,,,,,,,,,,,,,,,,,,,,,,,,,,,
,60be8dd61cec210d627483de,627c700a2125bfc373c4ea75,2022-05-12_03h26.08.401,classification_task,2021.2.3,Win32,60.04202942,627c6715c52fd12f31907bd0,,,,,,,,,,,,,,,,,,,,,,,l,1,1.0663,"[""0.034"",""0.398"",""0.857"",""0.782""]","[1,1,0,1]",0,48,48,48,1,1,0,,,1,FALSE,,,,,,,,,,,,,,,,,,,,,,,,,,,,,,,
,60be8dd61cec210d627483de,627c700a2125bfc373c4ea75,2022-05-12_03h26.08.401,classification_task,2021.2.3,Win32,60.04202942,627c6715c52fd12f31907bd0,,,,,,,,,,,,,,,,,,,,,,,a,1,0.8884,"[""0.857"",""0.489"",""0.603"",""0.894""]","[0,1,1,1]",0,49,49,49,1,0,0,,,1,FALSE,,,,,,,,,,,,,,,,,,,,,,,,,,,,,,,
,60be8dd61cec210d627483de,627c700a2125bfc373c4ea75,2022-05-12_03h26.08.401,classification_task,2021.2.3,Win32,60.04202942,627c6715c52fd12f31907bd0,,,,,,,,,,,,,,,,,,,,,,,a,1,0.9656,"[""0.190"",""0.489"",""0.832"",""0.894""]","[1,1,0,1]",0,50,50,50,1,0,0,,,1,FALSE,,,,,,,,,,,,,,,,,,,,,,,,,,,,,,,
,60be8dd61cec210d627483de,627c700a2125bfc373c4ea75,2022-05-12_03h26.08.401,classification_task,2021.2.3,Win32,60.04202942,627c6715c52fd12f31907bd0,,,,,,,,,,,,,,,,,,,,,,,l,1,1.8553,"[""0.975"",""0.265"",""0.452"",""0.692""]","[0,1,1,1]",0,51,51,51,1,1,1,,,1,FALSE,,,,,,,,,,,,,,,,,,,,,,,,,,,,,,,
,60be8dd61cec210d627483de,627c700a2125bfc373c4ea75,2022-05-12_03h26.08.401,classification_task,2021.2.3,Win32,60.04202942,627c6715c52fd12f31907bd0,,,,,,,,,,,,,,,,,,,,,,,l,0,0.8655,"[""0.298"",""0.843"",""0.741"",""0.931""]","[1,0,1,1]",0,52,52,52,1,0,1,,,1,FALSE,,,,,,,,,,,,,,,,,,,,,,,,,,,,,,,
,60be8dd61cec210d627483de,627c700a2125bfc373c4ea75,2022-05-12_03h26.08.401,classification_task,2021.2.3,Win32,60.04202942,627c6715c52fd12f31907bd0,,,,,,,,,,,,,,,,,,,,,,,l,1,1.2236,"[""0.034"",""0.832"",""0.548"",""0.782""]","[1,0,1,1]",0,53,53,53,1,1,0,,,1,FALSE,,,,,,,,,,,,,,,,,,,,,,,,,,,,,,,
,60be8dd61cec210d627483de,627c700a2125bfc373c4ea75,2022-05-12_03h26.08.401,classification_task,2021.2.3,Win32,60.04202942,627c6715c52fd12f31907bd0,,,,,,,,,,,,,,,,,,,,,,,a,1,0.8686,"[""0.298"",""0.340"",""0.741"",""0.828""]","[1,1,1,0]",0,54,54,54,1,0,1,,,1,FALSE,,,,,,,,,,,,,,,,,,,,,,,,,,,,,,,
,60be8dd61cec210d627483de,627c700a2125bfc373c4ea75,2022-05-12_03h26.08.401,classification_task,2021.2.3,Win32,60.04202942,627c6715c52fd12f31907bd0,,,,,,,,,,,,,,,,,,,,,,,a,0,1.3539,"[""0.834"",""0.398"",""0.548"",""0.782""]","[0,1,1,1]",0,55,55,55,1,1,0,,,1,FALSE,,,,,,,,,,,,,,,,,,,,,,,,,,,,,,,
,60be8dd61cec210d627483de,627c700a2125bfc373c4ea75,2022-05-12_03h26.08.401,classification_task,2021.2.3,Win32,60.04202942,627c6715c52fd12f31907bd0,,,,,,,,,,,,,,,,,,,,,,,l,1,0.9872,"[""0.034"",""0.398"",""0.548"",""0.089""]","[1,1,1,0]",0,56,56,56,1,1,0,,,1,FALSE,,,,,,,,,,,,,,,,,,,,,,,,,,,,,,,
,60be8dd61cec210d627483de,627c700a2125bfc373c4ea75,2022-05-12_03h26.08.401,classification_task,2021.2.3,Win32,60.04202942,627c6715c52fd12f31907bd0,,,,,,,,,,,,,,,,,,,,,,,a,0,1.1153,"[""0.126"",""0.265"",""0.452"",""0.834""]","[1,1,1,0]",0,57,57,57,1,1,1,,,1,FALSE,,,,,,,,,,,,,,,,,,,,,,,,,,,,,,,
,60be8dd61cec210d627483de,627c700a2125bfc373c4ea75,2022-05-12_03h26.08.401,classification_task,2021.2.3,Win32,60.04202942,627c6715c52fd12f31907bd0,,,,,,,,,,,,,,,,,,,,,,,a,1,0.825,"[""0.658"",""0.340"",""0.741"",""0.931""]","[0,1,1,1]",0,58,58,58,1,0,1,,,1,FALSE,,,,,,,,,,,,,,,,,,,,,,,,,,,,,,,
,60be8dd61cec210d627483de,627c700a2125bfc373c4ea75,2022-05-12_03h26.08.401,classification_task,2021.2.3,Win32,60.04202942,627c6715c52fd12f31907bd0,,,,,,,,,,,,,,,,,,,,,,,l,0,0.8953,"[""0.190"",""0.080"",""0.603"",""0.894""]","[1,0,1,1]",0,59,59,59,1,0,0,,,1,FALSE,,,,,,,,,,,,,,,,,,,,,,,,,,,,,,,
,60be8dd61cec210d627483de,627c700a2125bfc373c4ea75,2022-05-12_03h26.08.401,classification_task,2021.2.3,Win32,60.04202942,627c6715c52fd12f31907bd0,,,,,,,,,,,,,,,,,,,,,,,l,0,1.1559,"[""0.298"",""0.340"",""0.971"",""0.931""]","[1,1,0,1]",0,60,60,60,1,0,1,,,1,FALSE,,,,,,,,,,,,,,,,,,,,,,,,,,,,,,,
,60be8dd61cec210d627483de,627c700a2125bfc373c4ea75,2022-05-12_03h26.08.401,classification_task,2021.2.3,Win32,60.04202942,627c6715c52fd12f31907bd0,,,,,,,,,,,,,,,,,,,,,,,a,0,1.0146,"[""0.126"",""0.832"",""0.452"",""0.692""]","[1,0,1,1]",0,61,61,61,1,1,1,,,1,FALSE,,,,,,,,,,,,,,,,,,,,,,,,,,,,,,,
,60be8dd61cec210d627483de,627c700a2125bfc373c4ea75,2022-05-12_03h26.08.401,classification_task,2021.2.3,Win32,60.04202942,627c6715c52fd12f31907bd0,,,,,,,,,,,,,,,,,,,,,,,a,1,0.7153,"[""0.190"",""0.489"",""0.603"",""0.650""]","[1,1,1,0]",0,62,62,62,1,0,0,,,1,FALSE,,,,,,,,,,,,,,,,,,,,,,,,,,,,,,,
,60be8dd61cec210d627483de,627c700a2125bfc373c4ea75,2022-05-12_03h26.08.401,classification_task,2021.2.3,Win32,60.04202942,627c6715c52fd12f31907bd0,,,,,,,,,,,,,,,,,,,,,,,a,0,0.8489,"[""0.126"",""0.265"",""0.975"",""0.692""]","[1,1,0,1]",0,63,63,63,1,1,1,,,1,FALSE,,,,,,,,,,,,,,,,,,,,,,,,,,,,,,,
,60be8dd61cec210d627483de,627c700a2125bfc373c4ea75,2022-05-12_03h26.08.401,classification_task,2021.2.3,Win32,60.04202942,627c6715c52fd12f31907bd0,,,,,,,,,,,,,,,,,,,,,,,,,,,,,,,,,,,,,,,0, ,,0,0,153.6232,0,2,2,2,1,2,3,,,,,,,,,,,,,,,,,,
,60be8dd61cec210d627483de,627c700a2125bfc373c4ea75,2022-05-12_03h26.08.401,classification_task,2021.2.3,Win32,60.04202942,627c6715c52fd12f31907bd0,,,,,,,,,,,,,,,,,,,,,,,,,,,,,,,,,,,,,,,1,  ,,0,10,156.6047,0,2,2,2,1,2,3,,,,,,,,,,,,,,,,,,
,60be8dd61cec210d627483de,627c700a2125bfc373c4ea75,2022-05-12_03h26.08.401,classification_task,2021.2.3,Win32,60.04202942,627c6715c52fd12f31907bd0,,,,,,,,,,,,,,,,,,,,,,,,,,,,,,,,,,,,,,,2,  ,,0,10,159.776,0,2,2,2,1,2,3,,,,,,,,,,,,,,,,,,
,60be8dd61cec210d627483de,627c700a2125bfc373c4ea75,2022-05-12_03h26.08.401,classification_task,2021.2.3,Win32,60.04202942,627c6715c52fd12f31907bd0,,,,,,,,,,,,,,,,,,,,,,,,,,,,,,,,,,,,,,,,,,,,,0,2,2,2,1,,3,,,,,,,,,,,,,,,,,,
,60be8dd61cec210d627483de,627c700a2125bfc373c4ea75,2022-05-12_03h26.08.401,classification_task,2021.2.3,Win32,60.04202942,627c6715c52fd12f31907bd0,,,,,,,,,,,,,,,,,,,,,,,,,,,,,,,,,,,,,,,,,,,,,,,,,,,,,I believe the aid is a competent performer,,0.7,0,4,910.3891,0,0,0,0,1,0,,,,,
,60be8dd61cec210d627483de,627c700a2125bfc373c4ea75,2022-05-12_03h26.08.401,classification_task,2021.2.3,Win32,60.04202942,627c6715c52fd12f31907bd0,,,,,,,,,,,,,,,,,,,,,,,,,,,,,,,,,,,,,,,,,,,,,,,,,,,,,I trust the aid,,0.7,0,4,917.0846,0,0,0,0,1,0,,,,,
,60be8dd61cec210d627483de,627c700a2125bfc373c4ea75,2022-05-12_03h26.08.401,classification_task,2021.2.3,Win32,60.04202942,627c6715c52fd12f31907bd0,,,,,,,,,,,,,,,,,,,,,,,,,,,,,,,,,,,,,,,,,,,,,,,,,,,,,I have confidence in the advice given by the aid,,0.7,0,4,915.2724,0,0,0,0,1,0,,,,,
,60be8dd61cec210d627483de,627c700a2125bfc373c4ea75,2022-05-12_03h26.08.401,classification_task,2021.2.3,Win32,60.04202942,627c6715c52fd12f31907bd0,,,,,,,,,,,,,,,,,,,,,,,,,,,,,,,,,,,,,,,,,,,,,,,,,,,,,I can depend on the aid,,0.7,0,3,923.9588,0,0,0,0,1,0,,,,,
,60be8dd61cec210d627483de,627c700a2125bfc373c4ea75,2022-05-12_03h26.08.401,classification_task,2021.2.3,Win32,60.04202942,627c6715c52fd12f31907bd0,,,,,,,,,,,,,,,,,,,,,,,,,,,,,,,,,,,,,,,,,,,,,,,,,,,,,I can rely on the aid to behave in consistent ways,,0.7,0,2,928.8595,0,0,0,0,1,0,,,,,
,60be8dd61cec210d627483de,627c700a2125bfc373c4ea75,2022-05-12_03h26.08.401,classification_task,2021.2.3,Win32,60.04202942,627c6715c52fd12f31907bd0,,,,,,,,,,,,,,,,,,,,,,,,,,,,,,,,,,,,,,,,,,,,,,,,,,,,,I can rely on the aid to do its best every time I take its advice,,0.7,0,4,932.4707,0,0,0,0,1,0,,,,,
,60be8dd61cec210d627483de,627c700a2125bfc373c4ea75,2022-05-12_03h26.08.401,classification_task,2021.2.3,Win32,60.04202942,627c6715c52fd12f31907bd0,,,,,,,,,,,,,,,,,,,,,,,,,,,,,,,,,,,,,,,,,,,,,,,,,,,,,"On trials you completed with assistance from the aid, how frequently did you think the aid was correct?",,0.7,0,90,,0,0,0,0,1,0,,,,,
,60be8dd61cec210d627483de,627c700a2125bfc373c4ea75,2022-05-12_03h26.08.401,classification_task,2021.2.3,Win32,60.04202942,627c6715c52fd12f31907bd0,,,,,,,,,,,,,,,,,,,,,,,,,,,,,,,,,,,,,,,,,,,,,,,,,,,,,"On trials you completed without the aid, how frequently did you think you were correct?",,0.7,0,40,,0,0,0,0,1,0,,,,,
,60be8dd61cec210d627483de,627c700a2125bfc373c4ea75,2022-05-12_03h26.08.401,classification_task,2021.2.3,Win32,60.04202942,627c6715c52fd12f31907bd0,,,,,,,,,,,,,,,,,,,,,,,,,,,,,,,,,,,,,,,,,,,,,,,,,,,,,,,,,,,0,0,0,0,1,,,,,,
,60be8dd61cec210d627483de,627c700a2125bfc373c4ea75,2022-05-12_03h26.08.401,classification_task,2021.2.3,Win32,60.04202942,627c6715c52fd12f31907bd0,,,,,,,,,,,,,,,,,,,,,,,,,,,,,,,,,,,,,,,,,,,,,,,,,,,,,,,,,,,,,,,,,space,9.3023,967.6562,,
,60be8dd61cec210d627483de,627c700a2125bfc373c4ea75,2022-05-12_03h26.08.401,classification_task,2021.2.3,Win32,60.04202942,627c6715c52fd12f31907bd0,,,,,,,,,,,,,,,,,,,,,,,,,,,,,,,,,,,,,,,,,,,,,,,,,,,,,,,,,,,,,,,,,,,,"Mozilla/5.0 (Windows NT 10.0; Win64; x64) AppleWebKit/537.36 (KHTML, like Gecko) Chrome/101.0.4951.54 Safari/537.36",
,60be8dd61cec210d627483de,627c700a2125bfc373c4ea75,2022-05-12_03h26.08.401,classification_task,2021.2.3,Win32,60.04202942,627c6715c52fd12f31907bd0,,,,,,,,,,,,,,,,,,,,,,,,,,,,,,,,,,,,,,,,,,,,,,,,,,,,,,,,,,,,,,,,,,,,,LOWLIGHT
