usingWebGL,participant,session,date,expName,psychopyVersion,OS,frameRate,PROLIFIC_PID,STUDY_ID,SESSION_ID,signatures_friend,signatures_foe,band_ranges_top,band_ranges_bottom,formitemText,formtype,formundefined,formitemWidth,formindex,formresponse,formrt,key_resp_2.keys,key_resp_2.rt,tute_resp.keys,tute_resp.rt,tutorial.thisRepN,tutorial.thisTrialN,tutorial.thisN,tutorial.thisIndex,tutorial.ran,key_resp_4.keys,key_resp_4.rt,key_resp.keys,key_resp.corr,key_resp.rt,lines_presented,is_signal_presented,trials.thisRepN,trials.thisTrialN,trials.thisN,trials.thisIndex,trials.ran,vessel,active_band,lines,is_signal,supported_pos,catch_trial,debrief_formindex,debrief_formitemText,debrief_formtype,debrief_formitemWidth,debrief_formresponse,debrief_formrt,phases.thisRepN,phases.thisTrialN,phases.thisN,phases.thisIndex,phases.ran,phases.order,phase,key_resp_3.keys,trustitemText,trusttype,trustitemWidth,trustindex,trustresponse,trustrt,support_status.thisRepN,support_status.thisTrialN,support_status.thisN,support_status.thisIndex,support_status.ran,support_status.order,key_resp_5.keys,key_resp_5.rt,globalClockTime,userAgent
TRUE,60c1af47168896c09e814ace,001,2022-04-28_20h06.30.675,classification_task,2021.2.3,Win32,60.0240096,60c1af47168896c09e814ace,626b377229c10585ec392f89,626b39fcc83467ede37ada56,,,,,,,,,,,,,,,,,,,,,,,,,,,,,,,,,,,,,,,,,,,,,,,,,,,,,,,,,,,,,,,,,,,,
,60c1af47168896c09e814ace,001,2022-04-28_20h06.30.675,classification_task,2021.2.3,Win32,60.0240096,60c1af47168896c09e814ace,626b377229c10585ec392f89,626b39fcc83467ede37ada56,"[[""0.228"",""0.342"",""0.818"",""0.861""],[""0.271"",""0.421"",""0.637"",""0.960""]]","[[""0.040"",""0.093"",""0.469"",""0.717""],[""0.145"",""0.183"",""0.570"",""0.751""]]","[1,10]","[100,1000]",Video game experience,,,0.7,0,,,,,,,,,,,,,,,,,,,,,,,,,,,,,,,,,,,,,,,,,,,,,,,,,,,,,,,,,,,
,60c1af47168896c09e814ace,001,2022-04-28_20h06.30.675,classification_task,2021.2.3,Win32,60.0240096,60c1af47168896c09e814ace,626b377229c10585ec392f89,626b39fcc83467ede37ada56,,,,,Approximately how many hours did you spend playing video games in the last week?,,,0.7,0,10,,,,,,,,,,,,,,,,,,,,,,,,,,,,,,,,,,,,,,,,,,,,,,,,,,,,,,,,,,
,60c1af47168896c09e814ace,001,2022-04-28_20h06.30.675,classification_task,2021.2.3,Win32,60.0240096,60c1af47168896c09e814ace,626b377229c10585ec392f89,626b39fcc83467ede37ada56,,,,,"Which game did you play the most this year? (Enter ""None"" if you didn't play any)",,,0.7,0,SMITE,,,,,,,,,,,,,,,,,,,,,,,,,,,,,,,,,,,,,,,,,,,,,,,,,,,,,,,,,,
,60c1af47168896c09e814ace,001,2022-04-28_20h06.30.675,classification_task,2021.2.3,Win32,60.0240096,60c1af47168896c09e814ace,626b377229c10585ec392f89,626b39fcc83467ede37ada56,,,,,Visual perception,,,0.7,0,,,,,,,,,,,,,,,,,,,,,,,,,,,,,,,,,,,,,,,,,,,,,,,,,,,,,,,,,,,
,60c1af47168896c09e814ace,001,2022-04-28_20h06.30.675,classification_task,2021.2.3,Win32,60.0240096,60c1af47168896c09e814ace,626b377229c10585ec392f89,626b39fcc83467ede37ada56,,,,,Do you have any form of color blindness?,,,0.7,0,No,22.204,,,,,,,,,,,,,,,,,,,,,,,,,,,,,,,,,,,,,,,,,,,,,,,,,,,,,,,,,
,60c1af47168896c09e814ace,001,2022-04-28_20h06.30.675,classification_task,2021.2.3,Win32,60.0240096,60c1af47168896c09e814ace,626b377229c10585ec392f89,626b39fcc83467ede37ada56,,,,,Do you use software to change the colour temperature of your screen (e.g. f.lux)?,,,0.7,0,No,22.85,,,,,,,,,,,,,,,,,,,,,,,,,,,,,,,,,,,,,,,,,,,,,,,,,,,,,,,,,
,60c1af47168896c09e814ace,001,2022-04-28_20h06.30.675,classification_task,2021.2.3,Win32,60.0240096,60c1af47168896c09e814ace,626b377229c10585ec392f89,626b39fcc83467ede37ada56,,,,,,,,,,,,space,58.293,space,8.722,0,0,0,0,1,,,,,,,,,,,,,,,,,,,,,,,,,,,,,,,,,,,,,,,,,,,,,,,,
,60c1af47168896c09e814ace,001,2022-04-28_20h06.30.675,classification_task,2021.2.3,Win32,60.0240096,60c1af47168896c09e814ace,626b377229c10585ec392f89,626b39fcc83467ede37ada56,,,,,,,,,,,,,,space,7.599,1,0,1,0,1,,,,,,,,,,,,,,,,,,,,,,,,,,,,,,,,,,,,,,,,,,,,,,,,
,60c1af47168896c09e814ace,001,2022-04-28_20h06.30.675,classification_task,2021.2.3,Win32,60.0240096,60c1af47168896c09e814ace,626b377229c10585ec392f89,626b39fcc83467ede37ada56,,,,,,,,,,,,,,space,18.834,2,0,2,0,1,,,,,,,,,,,,,,,,,,,,,,,,,,,,,,,,,,,,,,,,,,,,,,,,
,60c1af47168896c09e814ace,001,2022-04-28_20h06.30.675,classification_task,2021.2.3,Win32,60.0240096,60c1af47168896c09e814ace,626b377229c10585ec392f89,626b39fcc83467ede37ada56,,,,,,,,,,,,,,space,9.203,3,0,3,0,1,,,,,,,,,,,,,,,,,,,,,,,,,,,,,,,,,,,,,,,,,,,,,,,,
,60c1af47168896c09e814ace,001,2022-04-28_20h06.30.675,classification_task,2021.2.3,Win32,60.0240096,60c1af47168896c09e814ace,626b377229c10585ec392f89,626b39fcc83467ede37ada56,,,,,,,,,,,,,,space,12.579,4,0,4,0,1,,,,,,,,,,,,,,,,,,,,,,,,,,,,,,,,,,,,,,,,,,,,,,,,
,60c1af47168896c09e814ace,001,2022-04-28_20h06.30.675,classification_task,2021.2.3,Win32,60.0240096,60c1af47168896c09e814ace,626b377229c10585ec392f89,626b39fcc83467ede37ada56,,,,,,,,,,,,,,,,,,,,,space,12.765,a,1,2.736,"[""0.271"",""0.517"",""0.637"",""0.960""]","[1,0,1,1]",0,0,0,0,1,0,1,,,1,FALSE,,,,,,,,,,,,,,,,,,,,,,,,,,,,,,
,60c1af47168896c09e814ace,001,2022-04-28_20h06.30.675,classification_task,2021.2.3,Win32,60.0240096,60c1af47168896c09e814ace,626b377229c10585ec392f89,626b39fcc83467ede37ada56,,,,,,,,,,,,,,,,,,,,,,,a,0,7.627,"[""0.040"",""0.385"",""0.469"",""0.717""]","[1,0,1,1]",0,1,1,1,1,1,0,,,1,FALSE,,,,,,,,,,,,,,,,,,,,,,,,,,,,,,
,60c1af47168896c09e814ace,001,2022-04-28_20h06.30.675,classification_task,2021.2.3,Win32,60.0240096,60c1af47168896c09e814ace,626b377229c10585ec392f89,626b39fcc83467ede37ada56,,,,,,,,,,,,,,,,,,,,,,,,0,,"[""0.900"",""0.183"",""0.570"",""0.751""]","[0,1,1,1]",0,2,2,2,1,1,1,,,1,FALSE,,,,,,,,,,,,,,,,,,,,,,,,,,,,,,
,60c1af47168896c09e814ace,001,2022-04-28_20h06.30.675,classification_task,2021.2.3,Win32,60.0240096,60c1af47168896c09e814ace,626b377229c10585ec392f89,626b39fcc83467ede37ada56,,,,,,,,,,,,,,,,,,,,,,,a,1,3.082,"[""0.228"",""0.342"",""0.510"",""0.861""]","[1,1,0,1]",0,3,3,3,1,0,0,,,1,FALSE,,,,,,,,,,,,,,,,,,,,,,,,,,,,,,
,60c1af47168896c09e814ace,001,2022-04-28_20h06.30.675,classification_task,2021.2.3,Win32,60.0240096,60c1af47168896c09e814ace,626b377229c10585ec392f89,626b39fcc83467ede37ada56,,,,,,,,,,,,,,,,,,,,,,,a,1,2.977,"[""0.271"",""0.421"",""0.637"",""0.913""]","[1,1,1,0]",0,4,4,4,1,0,1,,,1,FALSE,,,,,,,,,,,,,,,,,,,,,,,,,,,,,,
,60c1af47168896c09e814ace,001,2022-04-28_20h06.30.675,classification_task,2021.2.3,Win32,60.0240096,60c1af47168896c09e814ace,626b377229c10585ec392f89,626b39fcc83467ede37ada56,,,,,,,,,,,,,,,,,,,,,,,,0,,"[""0.271"",""0.421"",""0.673"",""0.960""]","[1,1,0,1]",0,5,5,5,1,0,1,,,1,FALSE,,,,,,,,,,,,,,,,,,,,,,,,,,,,,,
,60c1af47168896c09e814ace,001,2022-04-28_20h06.30.675,classification_task,2021.2.3,Win32,60.0240096,60c1af47168896c09e814ace,626b377229c10585ec392f89,626b39fcc83467ede37ada56,,,,,,,,,,,,,,,,,,,,,,,a,1,6.141,"[""0.228"",""0.923"",""0.818"",""0.861""]","[1,0,1,1]",0,6,6,6,1,0,0,,,1,FALSE,,,,,,,,,,,,,,,,,,,,,,,,,,,,,,
,60c1af47168896c09e814ace,001,2022-04-28_20h06.30.675,classification_task,2021.2.3,Win32,60.0240096,60c1af47168896c09e814ace,626b377229c10585ec392f89,626b39fcc83467ede37ada56,,,,,,,,,,,,,,,,,,,,,,,a,1,1.371,"[""0.228"",""0.342"",""0.818"",""0.913""]","[1,1,1,0]",0,7,7,7,1,0,0,,,1,FALSE,,,,,,,,,,,,,,,,,,,,,,,,,,,,,,
,60c1af47168896c09e814ace,001,2022-04-28_20h06.30.675,classification_task,2021.2.3,Win32,60.0240096,60c1af47168896c09e814ace,626b377229c10585ec392f89,626b39fcc83467ede37ada56,,,,,,,,,,,,,,,,,,,,,,,l,1,2.27,"[""0.145"",""0.673"",""0.570"",""0.751""]","[1,0,1,1]",0,8,8,8,1,1,1,,,1,FALSE,,,,,,,,,,,,,,,,,,,,,,,,,,,,,,
,60c1af47168896c09e814ace,001,2022-04-28_20h06.30.675,classification_task,2021.2.3,Win32,60.0240096,60c1af47168896c09e814ace,626b377229c10585ec392f89,626b39fcc83467ede37ada56,,,,,,,,,,,,,,,,,,,,,,,l,1,2.904,"[""0.145"",""0.183"",""0.570"",""0.912""]","[1,1,1,0]",0,9,9,9,1,1,1,,,1,FALSE,,,,,,,,,,,,,,,,,,,,,,,,,,,,,,
,60c1af47168896c09e814ace,001,2022-04-28_20h06.30.675,classification_task,2021.2.3,Win32,60.0240096,60c1af47168896c09e814ace,626b377229c10585ec392f89,626b39fcc83467ede37ada56,,,,,,,,,,,,,,,,,,,,,,,a,1,2.83,"[""0.529"",""0.342"",""0.818"",""0.861""]","[0,1,1,1]",0,10,10,10,1,0,0,,,1,FALSE,,,,,,,,,,,,,,,,,,,,,,,,,,,,,,
,60c1af47168896c09e814ace,001,2022-04-28_20h06.30.675,classification_task,2021.2.3,Win32,60.0240096,60c1af47168896c09e814ace,626b377229c10585ec392f89,626b39fcc83467ede37ada56,,,,,,,,,,,,,,,,,,,,,,,l,1,2.202,"[""0.040"",""0.093"",""0.469"",""0.913""]","[1,1,1,0]",0,11,11,11,1,1,0,,,1,FALSE,,,,,,,,,,,,,,,,,,,,,,,,,,,,,,
,60c1af47168896c09e814ace,001,2022-04-28_20h06.30.675,classification_task,2021.2.3,Win32,60.0240096,60c1af47168896c09e814ace,626b377229c10585ec392f89,626b39fcc83467ede37ada56,,,,,,,,,,,,,,,,,,,,,,,l,1,1.842,"[""0.040"",""0.093"",""0.529"",""0.717""]","[1,1,0,1]",0,12,12,12,1,1,0,,,1,FALSE,,,,,,,,,,,,,,,,,,,,,,,,,,,,,,
,60c1af47168896c09e814ace,001,2022-04-28_20h06.30.675,classification_task,2021.2.3,Win32,60.0240096,60c1af47168896c09e814ace,626b377229c10585ec392f89,626b39fcc83467ede37ada56,,,,,,,,,,,,,,,,,,,,,,,l,1,1.971,"[""0.145"",""0.183"",""0.305"",""0.751""]","[1,1,0,1]",0,13,13,13,1,1,1,,,1,FALSE,,,,,,,,,,,,,,,,,,,,,,,,,,,,,,
,60c1af47168896c09e814ace,001,2022-04-28_20h06.30.675,classification_task,2021.2.3,Win32,60.0240096,60c1af47168896c09e814ace,626b377229c10585ec392f89,626b39fcc83467ede37ada56,,,,,,,,,,,,,,,,,,,,,,,l,1,2.419,"[""0.923"",""0.093"",""0.469"",""0.717""]","[0,1,1,1]",0,14,14,14,1,1,0,,,1,FALSE,,,,,,,,,,,,,,,,,,,,,,,,,,,,,,
,60c1af47168896c09e814ace,001,2022-04-28_20h06.30.675,classification_task,2021.2.3,Win32,60.0240096,60c1af47168896c09e814ace,626b377229c10585ec392f89,626b39fcc83467ede37ada56,,,,,,,,,,,,,,,,,,,,,,,a,1,2.229,"[""0.913"",""0.421"",""0.637"",""0.960""]","[0,1,1,1]",0,15,15,15,1,0,1,,,1,FALSE,,,,,,,,,,,,,,,,,,,,,,,,,,,,,,
,60c1af47168896c09e814ace,001,2022-04-28_20h06.30.675,classification_task,2021.2.3,Win32,60.0240096,60c1af47168896c09e814ace,626b377229c10585ec392f89,626b39fcc83467ede37ada56,,,,,,,,,,,,,,,,,,,,,,,a,1,1.556,"[""0.271"",""0.673"",""0.637"",""0.960""]","[1,0,1,1]",0,16,16,16,1,0,1,,,1,FALSE,,,,,,,,,,,,,,,,,,,,,,,,,,,,,,
,60c1af47168896c09e814ace,001,2022-04-28_20h06.30.675,classification_task,2021.2.3,Win32,60.0240096,60c1af47168896c09e814ace,626b377229c10585ec392f89,626b39fcc83467ede37ada56,,,,,,,,,,,,,,,,,,,,,,,a,1,1.179,"[""0.228"",""0.342"",""0.924"",""0.861""]","[1,1,0,1]",0,17,17,17,1,0,0,,,1,FALSE,,,,,,,,,,,,,,,,,,,,,,,,,,,,,,
,60c1af47168896c09e814ace,001,2022-04-28_20h06.30.675,classification_task,2021.2.3,Win32,60.0240096,60c1af47168896c09e814ace,626b377229c10585ec392f89,626b39fcc83467ede37ada56,,,,,,,,,,,,,,,,,,,,,,,a,1,1.222,"[""0.228"",""0.342"",""0.818"",""0.912""]","[1,1,1,0]",0,18,18,18,1,0,0,,,1,FALSE,,,,,,,,,,,,,,,,,,,,,,,,,,,,,,
,60c1af47168896c09e814ace,001,2022-04-28_20h06.30.675,classification_task,2021.2.3,Win32,60.0240096,60c1af47168896c09e814ace,626b377229c10585ec392f89,626b39fcc83467ede37ada56,,,,,,,,,,,,,,,,,,,,,,,l,1,2.022,"[""0.145"",""0.385"",""0.570"",""0.751""]","[1,0,1,1]",0,19,19,19,1,1,1,,,1,FALSE,,,,,,,,,,,,,,,,,,,,,,,,,,,,,,
,60c1af47168896c09e814ace,001,2022-04-28_20h06.30.675,classification_task,2021.2.3,Win32,60.0240096,60c1af47168896c09e814ace,626b377229c10585ec392f89,626b39fcc83467ede37ada56,,,,,,,,,,,,,,,,,,,,,,,l,1,1.731,"[""0.040"",""0.093"",""0.469"",""0.924""]","[1,1,1,0]",0,20,20,20,1,1,0,,,1,FALSE,,,,,,,,,,,,,,,,,,,,,,,,,,,,,,
,60c1af47168896c09e814ace,001,2022-04-28_20h06.30.675,classification_task,2021.2.3,Win32,60.0240096,60c1af47168896c09e814ace,626b377229c10585ec392f89,626b39fcc83467ede37ada56,,,,,,,,,,,,,,,,,,,,,,,l,1,4.261,"[""0.040"",""0.673"",""0.469"",""0.717""]","[1,0,1,1]",0,21,21,21,1,1,0,,,1,FALSE,,,,,,,,,,,,,,,,,,,,,,,,,,,,,,
,60c1af47168896c09e814ace,001,2022-04-28_20h06.30.675,classification_task,2021.2.3,Win32,60.0240096,60c1af47168896c09e814ace,626b377229c10585ec392f89,626b39fcc83467ede37ada56,,,,,,,,,,,,,,,,,,,,,,,a,1,1.268,"[""0.228"",""0.924"",""0.818"",""0.861""]","[1,0,1,1]",0,22,22,22,1,0,0,,,1,FALSE,,,,,,,,,,,,,,,,,,,,,,,,,,,,,,
,60c1af47168896c09e814ace,001,2022-04-28_20h06.30.675,classification_task,2021.2.3,Win32,60.0240096,60c1af47168896c09e814ace,626b377229c10585ec392f89,626b39fcc83467ede37ada56,,,,,,,,,,,,,,,,,,,,,,,a,1,1.905,"[""0.923"",""0.421"",""0.637"",""0.960""]","[0,1,1,1]",0,23,23,23,1,0,1,,,1,FALSE,,,,,,,,,,,,,,,,,,,,,,,,,,,,,,
,60c1af47168896c09e814ace,001,2022-04-28_20h06.30.675,classification_task,2021.2.3,Win32,60.0240096,60c1af47168896c09e814ace,626b377229c10585ec392f89,626b39fcc83467ede37ada56,,,,,,,,,,,,,,,,,,,,,,,a,1,1.61,"[""0.271"",""0.421"",""0.517"",""0.960""]","[1,1,0,1]",0,24,24,24,1,0,1,,,1,FALSE,,,,,,,,,,,,,,,,,,,,,,,,,,,,,,
,60c1af47168896c09e814ace,001,2022-04-28_20h06.30.675,classification_task,2021.2.3,Win32,60.0240096,60c1af47168896c09e814ace,626b377229c10585ec392f89,626b39fcc83467ede37ada56,,,,,,,,,,,,,,,,,,,,,,,a,0,2.763,"[""0.510"",""0.093"",""0.469"",""0.717""]","[0,1,1,1]",0,25,25,25,1,1,0,,,1,FALSE,,,,,,,,,,,,,,,,,,,,,,,,,,,,,,
,60c1af47168896c09e814ace,001,2022-04-28_20h06.30.675,classification_task,2021.2.3,Win32,60.0240096,60c1af47168896c09e814ace,626b377229c10585ec392f89,626b39fcc83467ede37ada56,,,,,,,,,,,,,,,,,,,,,,,l,1,2.057,"[""0.145"",""0.183"",""0.570"",""0.305""]","[1,1,1,0]",0,26,26,26,1,1,1,,,1,FALSE,,,,,,,,,,,,,,,,,,,,,,,,,,,,,,
,60c1af47168896c09e814ace,001,2022-04-28_20h06.30.675,classification_task,2021.2.3,Win32,60.0240096,60c1af47168896c09e814ace,626b377229c10585ec392f89,626b39fcc83467ede37ada56,,,,,,,,,,,,,,,,,,,,,,,l,1,0.902,"[""0.145"",""0.183"",""0.913"",""0.751""]","[1,1,0,1]",0,27,27,27,1,1,1,,,1,FALSE,,,,,,,,,,,,,,,,,,,,,,,,,,,,,,
,60c1af47168896c09e814ace,001,2022-04-28_20h06.30.675,classification_task,2021.2.3,Win32,60.0240096,60c1af47168896c09e814ace,626b377229c10585ec392f89,626b39fcc83467ede37ada56,,,,,,,,,,,,,,,,,,,,,,,a,1,1.052,"[""0.271"",""0.421"",""0.637"",""0.510""]","[1,1,1,0]",0,28,28,28,1,0,1,,,1,FALSE,,,,,,,,,,,,,,,,,,,,,,,,,,,,,,
,60c1af47168896c09e814ace,001,2022-04-28_20h06.30.675,classification_task,2021.2.3,Win32,60.0240096,60c1af47168896c09e814ace,626b377229c10585ec392f89,626b39fcc83467ede37ada56,,,,,,,,,,,,,,,,,,,,,,,l,1,1.102,"[""0.900"",""0.183"",""0.570"",""0.751""]","[0,1,1,1]",0,29,29,29,1,1,1,,,1,FALSE,,,,,,,,,,,,,,,,,,,,,,,,,,,,,,
,60c1af47168896c09e814ace,001,2022-04-28_20h06.30.675,classification_task,2021.2.3,Win32,60.0240096,60c1af47168896c09e814ace,626b377229c10585ec392f89,626b39fcc83467ede37ada56,,,,,,,,,,,,,,,,,,,,,,,l,1,1.294,"[""0.040"",""0.093"",""0.385"",""0.717""]","[1,1,0,1]",0,30,30,30,1,1,0,,,1,FALSE,,,,,,,,,,,,,,,,,,,,,,,,,,,,,,
,60c1af47168896c09e814ace,001,2022-04-28_20h06.30.675,classification_task,2021.2.3,Win32,60.0240096,60c1af47168896c09e814ace,626b377229c10585ec392f89,626b39fcc83467ede37ada56,,,,,,,,,,,,,,,,,,,,,,,a,1,0.653,"[""0.923"",""0.342"",""0.818"",""0.861""]","[0,1,1,1]",0,31,31,31,1,0,0,,,1,FALSE,,,,,,,,,,,,,,,,,,,,,,,,,,,,,,
,60c1af47168896c09e814ace,001,2022-04-28_20h06.30.675,classification_task,2021.2.3,Win32,60.0240096,60c1af47168896c09e814ace,626b377229c10585ec392f89,626b39fcc83467ede37ada56,,,,,,,,,,,,,,,,,,,,,,,a,1,3.466,"[""0.228"",""0.342"",""0.905"",""0.861""]","[1,1,0,1]",0,32,32,32,1,0,0,,,1,FALSE,,,,,,,,,,,,,,,,,,,,,,,,,,,,,,
,60c1af47168896c09e814ace,001,2022-04-28_20h06.30.675,classification_task,2021.2.3,Win32,60.0240096,60c1af47168896c09e814ace,626b377229c10585ec392f89,626b39fcc83467ede37ada56,,,,,,,,,,,,,,,,,,,,,,,a,1,0.742,"[""0.228"",""0.673"",""0.818"",""0.861""]","[1,0,1,1]",0,33,33,33,1,0,0,,,1,FALSE,,,,,,,,,,,,,,,,,,,,,,,,,,,,,,
,60c1af47168896c09e814ace,001,2022-04-28_20h06.30.675,classification_task,2021.2.3,Win32,60.0240096,60c1af47168896c09e814ace,626b377229c10585ec392f89,626b39fcc83467ede37ada56,,,,,,,,,,,,,,,,,,,,,,,a,1,1.191,"[""0.271"",""0.673"",""0.637"",""0.960""]","[1,0,1,1]",0,34,34,34,1,0,1,,,1,FALSE,,,,,,,,,,,,,,,,,,,,,,,,,,,,,,
,60c1af47168896c09e814ace,001,2022-04-28_20h06.30.675,classification_task,2021.2.3,Win32,60.0240096,60c1af47168896c09e814ace,626b377229c10585ec392f89,626b39fcc83467ede37ada56,,,,,,,,,,,,,,,,,,,,,,,a,1,0.64,"[""0.271"",""0.421"",""0.637"",""0.905""]","[1,1,1,0]",0,35,35,35,1,0,1,,,1,FALSE,,,,,,,,,,,,,,,,,,,,,,,,,,,,,,
,60c1af47168896c09e814ace,001,2022-04-28_20h06.30.675,classification_task,2021.2.3,Win32,60.0240096,60c1af47168896c09e814ace,626b377229c10585ec392f89,626b39fcc83467ede37ada56,,,,,,,,,,,,,,,,,,,,,,,a,1,0.806,"[""0.228"",""0.342"",""0.818"",""0.510""]","[1,1,1,0]",0,36,36,36,1,0,0,,,1,FALSE,,,,,,,,,,,,,,,,,,,,,,,,,,,,,,
,60c1af47168896c09e814ace,001,2022-04-28_20h06.30.675,classification_task,2021.2.3,Win32,60.0240096,60c1af47168896c09e814ace,626b377229c10585ec392f89,626b39fcc83467ede37ada56,,,,,,,,,,,,,,,,,,,,,,,l,1,0.789,"[""0.040"",""0.900"",""0.469"",""0.717""]","[1,0,1,1]",0,37,37,37,1,1,0,,,1,FALSE,,,,,,,,,,,,,,,,,,,,,,,,,,,,,,
,60c1af47168896c09e814ace,001,2022-04-28_20h06.30.675,classification_task,2021.2.3,Win32,60.0240096,60c1af47168896c09e814ace,626b377229c10585ec392f89,626b39fcc83467ede37ada56,,,,,,,,,,,,,,,,,,,,,,,l,0,1.133,"[""0.673"",""0.421"",""0.637"",""0.960""]","[0,1,1,1]",0,38,38,38,1,0,1,,,1,FALSE,,,,,,,,,,,,,,,,,,,,,,,,,,,,,,
,60c1af47168896c09e814ace,001,2022-04-28_20h06.30.675,classification_task,2021.2.3,Win32,60.0240096,60c1af47168896c09e814ace,626b377229c10585ec392f89,626b39fcc83467ede37ada56,,,,,,,,,,,,,,,,,,,,,,,l,1,1.04,"[""0.305"",""0.093"",""0.469"",""0.717""]","[0,1,1,1]",0,39,39,39,1,1,0,,,1,FALSE,,,,,,,,,,,,,,,,,,,,,,,,,,,,,,
,60c1af47168896c09e814ace,001,2022-04-28_20h06.30.675,classification_task,2021.2.3,Win32,60.0240096,60c1af47168896c09e814ace,626b377229c10585ec392f89,626b39fcc83467ede37ada56,,,,,,,,,,,,,,,,,,,,,,,l,1,0.678,"[""0.040"",""0.093"",""0.469"",""0.905""]","[1,1,1,0]",0,40,40,40,1,1,0,,,1,FALSE,,,,,,,,,,,,,,,,,,,,,,,,,,,,,,
,60c1af47168896c09e814ace,001,2022-04-28_20h06.30.675,classification_task,2021.2.3,Win32,60.0240096,60c1af47168896c09e814ace,626b377229c10585ec392f89,626b39fcc83467ede37ada56,,,,,,,,,,,,,,,,,,,,,,,l,1,0.777,"[""0.145"",""0.183"",""0.570"",""0.510""]","[1,1,1,0]",0,41,41,41,1,1,1,,,1,FALSE,,,,,,,,,,,,,,,,,,,,,,,,,,,,,,
,60c1af47168896c09e814ace,001,2022-04-28_20h06.30.675,classification_task,2021.2.3,Win32,60.0240096,60c1af47168896c09e814ace,626b377229c10585ec392f89,626b39fcc83467ede37ada56,,,,,,,,,,,,,,,,,,,,,,,a,1,0.824,"[""0.510"",""0.342"",""0.818"",""0.861""]","[0,1,1,1]",0,42,42,42,1,0,0,,,1,FALSE,,,,,,,,,,,,,,,,,,,,,,,,,,,,,,
,60c1af47168896c09e814ace,001,2022-04-28_20h06.30.675,classification_task,2021.2.3,Win32,60.0240096,60c1af47168896c09e814ace,626b377229c10585ec392f89,626b39fcc83467ede37ada56,,,,,,,,,,,,,,,,,,,,,,,l,1,0.683,"[""0.040"",""0.093"",""0.913"",""0.717""]","[1,1,0,1]",0,43,43,43,1,1,0,,,1,FALSE,,,,,,,,,,,,,,,,,,,,,,,,,,,,,,
,60c1af47168896c09e814ace,001,2022-04-28_20h06.30.675,classification_task,2021.2.3,Win32,60.0240096,60c1af47168896c09e814ace,626b377229c10585ec392f89,626b39fcc83467ede37ada56,,,,,,,,,,,,,,,,,,,,,,,l,1,0.789,"[""0.145"",""0.510"",""0.570"",""0.751""]","[1,0,1,1]",0,44,44,44,1,1,1,,,1,FALSE,,,,,,,,,,,,,,,,,,,,,,,,,,,,,,
,60c1af47168896c09e814ace,001,2022-04-28_20h06.30.675,classification_task,2021.2.3,Win32,60.0240096,60c1af47168896c09e814ace,626b377229c10585ec392f89,626b39fcc83467ede37ada56,,,,,,,,,,,,,,,,,,,,,,,l,1,0.601,"[""0.145"",""0.183"",""0.385"",""0.751""]","[1,1,0,1]",0,45,45,45,1,1,1,,,1,FALSE,,,,,,,,,,,,,,,,,,,,,,,,,,,,,,
,60c1af47168896c09e814ace,001,2022-04-28_20h06.30.675,classification_task,2021.2.3,Win32,60.0240096,60c1af47168896c09e814ace,626b377229c10585ec392f89,626b39fcc83467ede37ada56,,,,,,,,,,,,,,,,,,,,,,,a,1,0.94,"[""0.271"",""0.421"",""0.673"",""0.960""]","[1,1,0,1]",0,46,46,46,1,0,1,,,1,FALSE,,,,,,,,,,,,,,,,,,,,,,,,,,,,,,
,60c1af47168896c09e814ace,001,2022-04-28_20h06.30.675,classification_task,2021.2.3,Win32,60.0240096,60c1af47168896c09e814ace,626b377229c10585ec392f89,626b39fcc83467ede37ada56,,,,,,,,,,,,,,,,,,,,,,,l,1,1.121,"[""0.305"",""0.183"",""0.570"",""0.751""]","[0,1,1,1]",0,47,47,47,1,1,1,,,1,FALSE,,,,,,,,,,,,,,,,,,,,,,,,,,,,,,
,60c1af47168896c09e814ace,001,2022-04-28_20h06.30.675,classification_task,2021.2.3,Win32,60.0240096,60c1af47168896c09e814ace,626b377229c10585ec392f89,626b39fcc83467ede37ada56,,,,,,,,,,,,,,,,,,,,,,,l,1,1.867,"[""0.385"",""0.093"",""0.469"",""0.717""]","[0,1,1,1]",0,48,48,48,1,1,0,,,1,FALSE,,,,,,,,,,,,,,,,,,,,,,,,,,,,,,
,60c1af47168896c09e814ace,001,2022-04-28_20h06.30.675,classification_task,2021.2.3,Win32,60.0240096,60c1af47168896c09e814ace,626b377229c10585ec392f89,626b39fcc83467ede37ada56,,,,,,,,,,,,,,,,,,,,,,,l,1,0.59,"[""0.040"",""0.093"",""0.517"",""0.717""]","[1,1,0,1]",0,49,49,49,1,1,0,,,1,FALSE,,,,,,,,,,,,,,,,,,,,,,,,,,,,,,
,60c1af47168896c09e814ace,001,2022-04-28_20h06.30.675,classification_task,2021.2.3,Win32,60.0240096,60c1af47168896c09e814ace,626b377229c10585ec392f89,626b39fcc83467ede37ada56,,,,,,,,,,,,,,,,,,,,,,,a,1,1.772,"[""0.913"",""0.421"",""0.637"",""0.960""]","[0,1,1,1]",0,50,50,50,1,0,1,,,1,FALSE,,,,,,,,,,,,,,,,,,,,,,,,,,,,,,
,60c1af47168896c09e814ace,001,2022-04-28_20h06.30.675,classification_task,2021.2.3,Win32,60.0240096,60c1af47168896c09e814ace,626b377229c10585ec392f89,626b39fcc83467ede37ada56,,,,,,,,,,,,,,,,,,,,,,,a,1,0.902,"[""0.228"",""0.342"",""0.529"",""0.861""]","[1,1,0,1]",0,51,51,51,1,0,0,,,1,FALSE,,,,,,,,,,,,,,,,,,,,,,,,,,,,,,
,60c1af47168896c09e814ace,001,2022-04-28_20h06.30.675,classification_task,2021.2.3,Win32,60.0240096,60c1af47168896c09e814ace,626b377229c10585ec392f89,626b39fcc83467ede37ada56,,,,,,,,,,,,,,,,,,,,,,,a,1,1.223,"[""0.271"",""0.421"",""0.923"",""0.960""]","[1,1,0,1]",0,52,52,52,1,0,1,,,1,FALSE,,,,,,,,,,,,,,,,,,,,,,,,,,,,,,
,60c1af47168896c09e814ace,001,2022-04-28_20h06.30.675,classification_task,2021.2.3,Win32,60.0240096,60c1af47168896c09e814ace,626b377229c10585ec392f89,626b39fcc83467ede37ada56,,,,,,,,,,,,,,,,,,,,,,,l,1,0.729,"[""0.040"",""0.913"",""0.469"",""0.717""]","[1,0,1,1]",0,53,53,53,1,1,0,,,1,FALSE,,,,,,,,,,,,,,,,,,,,,,,,,,,,,,
,60c1af47168896c09e814ace,001,2022-04-28_20h06.30.675,classification_task,2021.2.3,Win32,60.0240096,60c1af47168896c09e814ace,626b377229c10585ec392f89,626b39fcc83467ede37ada56,,,,,,,,,,,,,,,,,,,,,,,a,1,1.004,"[""0.536"",""0.342"",""0.818"",""0.861""]","[0,1,1,1]",0,54,54,54,1,0,0,,,1,FALSE,,,,,,,,,,,,,,,,,,,,,,,,,,,,,,
,60c1af47168896c09e814ace,001,2022-04-28_20h06.30.675,classification_task,2021.2.3,Win32,60.0240096,60c1af47168896c09e814ace,626b377229c10585ec392f89,626b39fcc83467ede37ada56,,,,,,,,,,,,,,,,,,,,,,,a,1,1.051,"[""0.271"",""0.421"",""0.637"",""0.905""]","[1,1,1,0]",0,55,55,55,1,0,1,,,1,FALSE,,,,,,,,,,,,,,,,,,,,,,,,,,,,,,
,60c1af47168896c09e814ace,001,2022-04-28_20h06.30.675,classification_task,2021.2.3,Win32,60.0240096,60c1af47168896c09e814ace,626b377229c10585ec392f89,626b39fcc83467ede37ada56,,,,,,,,,,,,,,,,,,,,,,,l,1,1.479,"[""0.145"",""0.183"",""0.570"",""0.385""]","[1,1,1,0]",0,56,56,56,1,1,1,,,1,FALSE,,,,,,,,,,,,,,,,,,,,,,,,,,,,,,
,60c1af47168896c09e814ace,001,2022-04-28_20h06.30.675,classification_task,2021.2.3,Win32,60.0240096,60c1af47168896c09e814ace,626b377229c10585ec392f89,626b39fcc83467ede37ada56,,,,,,,,,,,,,,,,,,,,,,,a,1,0.812,"[""0.271"",""0.905"",""0.637"",""0.960""]","[1,0,1,1]",0,57,57,57,1,0,1,,,1,FALSE,,,,,,,,,,,,,,,,,,,,,,,,,,,,,,
,60c1af47168896c09e814ace,001,2022-04-28_20h06.30.675,classification_task,2021.2.3,Win32,60.0240096,60c1af47168896c09e814ace,626b377229c10585ec392f89,626b39fcc83467ede37ada56,,,,,,,,,,,,,,,,,,,,,,,a,1,0.711,"[""0.228"",""0.342"",""0.818"",""0.912""]","[1,1,1,0]",0,58,58,58,1,0,0,,,1,FALSE,,,,,,,,,,,,,,,,,,,,,,,,,,,,,,
,60c1af47168896c09e814ace,001,2022-04-28_20h06.30.675,classification_task,2021.2.3,Win32,60.0240096,60c1af47168896c09e814ace,626b377229c10585ec392f89,626b39fcc83467ede37ada56,,,,,,,,,,,,,,,,,,,,,,,l,1,0.685,"[""0.040"",""0.093"",""0.469"",""0.529""]","[1,1,1,0]",0,59,59,59,1,1,0,,,1,FALSE,,,,,,,,,,,,,,,,,,,,,,,,,,,,,,
,60c1af47168896c09e814ace,001,2022-04-28_20h06.30.675,classification_task,2021.2.3,Win32,60.0240096,60c1af47168896c09e814ace,626b377229c10585ec392f89,626b39fcc83467ede37ada56,,,,,,,,,,,,,,,,,,,,,,,a,1,0.936,"[""0.228"",""0.529"",""0.818"",""0.861""]","[1,0,1,1]",0,60,60,60,1,0,0,,,1,FALSE,,,,,,,,,,,,,,,,,,,,,,,,,,,,,,
,60c1af47168896c09e814ace,001,2022-04-28_20h06.30.675,classification_task,2021.2.3,Win32,60.0240096,60c1af47168896c09e814ace,626b377229c10585ec392f89,626b39fcc83467ede37ada56,,,,,,,,,,,,,,,,,,,,,,,l,1,0.722,"[""0.145"",""0.183"",""0.305"",""0.751""]","[1,1,0,1]",0,61,61,61,1,1,1,,,1,FALSE,,,,,,,,,,,,,,,,,,,,,,,,,,,,,,
,60c1af47168896c09e814ace,001,2022-04-28_20h06.30.675,classification_task,2021.2.3,Win32,60.0240096,60c1af47168896c09e814ace,626b377229c10585ec392f89,626b39fcc83467ede37ada56,,,,,,,,,,,,,,,,,,,,,,,l,1,0.707,"[""0.145"",""0.536"",""0.570"",""0.751""]","[1,0,1,1]",0,62,62,62,1,1,1,,,1,FALSE,,,,,,,,,,,,,,,,,,,,,,,,,,,,,,
,60c1af47168896c09e814ace,001,2022-04-28_20h06.30.675,classification_task,2021.2.3,Win32,60.0240096,60c1af47168896c09e814ace,626b377229c10585ec392f89,626b39fcc83467ede37ada56,,,,,,,,,,,,,,,,,,,,,,,l,1,0.667,"[""0.673"",""0.183"",""0.570"",""0.751""]","[0,1,1,1]",0,63,63,63,1,1,1,,,1,FALSE,,,,,,,,,,,,,,,,,,,,,,,,,,,,,,
,60c1af47168896c09e814ace,001,2022-04-28_20h06.30.675,classification_task,2021.2.3,Win32,60.0240096,60c1af47168896c09e814ace,626b377229c10585ec392f89,626b39fcc83467ede37ada56,,,,,,,,,,,,,,,,,,,,,,,,,,,,,,,,,,,,,,,0, ,,0,6.728395062,371.817,0,0,0,0,1,2,1,,,,,,,,,,,,,,,,,
,60c1af47168896c09e814ace,001,2022-04-28_20h06.30.675,classification_task,2021.2.3,Win32,60.0240096,60c1af47168896c09e814ace,626b377229c10585ec392f89,626b39fcc83467ede37ada56,,,,,,,,,,,,,,,,,,,,,,,,,,,,,,,,,,,,,,,1,  ,,0,2.671957672,373.585,0,0,0,0,1,2,1,,,,,,,,,,,,,,,,,
,60c1af47168896c09e814ace,001,2022-04-28_20h06.30.675,classification_task,2021.2.3,Win32,60.0240096,60c1af47168896c09e814ace,626b377229c10585ec392f89,626b39fcc83467ede37ada56,,,,,,,,,,,,,,,,,,,,,,,,,,,,,,,,,,,,,,,2,  ,,0,4.118165785,376.814,0,0,0,0,1,2,1,,,,,,,,,,,,,,,,,
,60c1af47168896c09e814ace,001,2022-04-28_20h06.30.675,classification_task,2021.2.3,Win32,60.0240096,60c1af47168896c09e814ace,626b377229c10585ec392f89,626b39fcc83467ede37ada56,,,,,,,,,,,,,,,,,,,,,,,,,,,,,,,,,,,,,,,,,,,,,0,0,0,0,1,,1,,,,,,,,,,,,,,,,,
,60c1af47168896c09e814ace,001,2022-04-28_20h06.30.675,classification_task,2021.2.3,Win32,60.0240096,60c1af47168896c09e814ace,626b377229c10585ec392f89,626b39fcc83467ede37ada56,,,,,,,,,,,,,,,,,,,,,space,7.677,a,1,5.471,"[""0.271"",""0.421"",""0.913"",""0.960""]","[1,1,0,1]",0,0,0,0,1,0,1,,,1,FALSE,,,,,,,,,,,,,,,,,,,,,,,,,,,,,,
,60c1af47168896c09e814ace,001,2022-04-28_20h06.30.675,classification_task,2021.2.3,Win32,60.0240096,60c1af47168896c09e814ace,626b377229c10585ec392f89,626b39fcc83467ede37ada56,,,,,,,,,,,,,,,,,,,,,,,l,1,1.215,"[""0.305"",""0.183"",""0.570"",""0.751""]","[0,1,1,1]",0,1,1,1,1,1,1,,,1,FALSE,,,,,,,,,,,,,,,,,,,,,,,,,,,,,,
,60c1af47168896c09e814ace,001,2022-04-28_20h06.30.675,classification_task,2021.2.3,Win32,60.0240096,60c1af47168896c09e814ace,626b377229c10585ec392f89,626b39fcc83467ede37ada56,,,,,,,,,,,,,,,,,,,,,,,l,1,0.909,"[""0.145"",""0.183"",""0.570"",""0.673""]","[1,1,1,0]",0,2,2,2,1,1,1,,,1,FALSE,,,,,,,,,,,,,,,,,,,,,,,,,,,,,,
,60c1af47168896c09e814ace,001,2022-04-28_20h06.30.675,classification_task,2021.2.3,Win32,60.0240096,60c1af47168896c09e814ace,626b377229c10585ec392f89,626b39fcc83467ede37ada56,,,,,,,,,,,,,,,,,,,,,,,l,1,4.12,"[""0.040"",""0.093"",""0.469"",""0.905""]","[1,1,1,0]",0,3,3,3,1,1,0,,,1,FALSE,,,,,,,,,,,,,,,,,,,,,,,,,,,,,,
,60c1af47168896c09e814ace,001,2022-04-28_20h06.30.675,classification_task,2021.2.3,Win32,60.0240096,60c1af47168896c09e814ace,626b377229c10585ec392f89,626b39fcc83467ede37ada56,,,,,,,,,,,,,,,,,,,,,,,l,1,0.801,"[""0.040"",""0.905"",""0.469"",""0.717""]","[1,0,1,1]",0,4,4,4,1,1,0,,,1,FALSE,,,,,,,,,,,,,,,,,,,,,,,,,,,,,,
,60c1af47168896c09e814ace,001,2022-04-28_20h06.30.675,classification_task,2021.2.3,Win32,60.0240096,60c1af47168896c09e814ace,626b377229c10585ec392f89,626b39fcc83467ede37ada56,,,,,,,,,,,,,,,,,,,,,,,a,1,0.802,"[""0.305"",""0.421"",""0.637"",""0.960""]","[0,1,1,1]",0,5,5,5,1,0,1,,,1,FALSE,,,,,,,,,,,,,,,,,,,,,,,,,,,,,,
,60c1af47168896c09e814ace,001,2022-04-28_20h06.30.675,classification_task,2021.2.3,Win32,60.0240096,60c1af47168896c09e814ace,626b377229c10585ec392f89,626b39fcc83467ede37ada56,,,,,,,,,,,,,,,,,,,,,,,l,1,0.7,"[""0.145"",""0.183"",""0.510"",""0.751""]","[1,1,0,1]",0,6,6,6,1,1,1,,,1,FALSE,,,,,,,,,,,,,,,,,,,,,,,,,,,,,,
,60c1af47168896c09e814ace,001,2022-04-28_20h06.30.675,classification_task,2021.2.3,Win32,60.0240096,60c1af47168896c09e814ace,626b377229c10585ec392f89,626b39fcc83467ede37ada56,,,,,,,,,,,,,,,,,,,,,,,l,1,0.532,"[""0.145"",""0.510"",""0.570"",""0.751""]","[1,0,1,1]",0,7,7,7,1,1,1,,,1,FALSE,,,,,,,,,,,,,,,,,,,,,,,,,,,,,,
,60c1af47168896c09e814ace,001,2022-04-28_20h06.30.675,classification_task,2021.2.3,Win32,60.0240096,60c1af47168896c09e814ace,626b377229c10585ec392f89,626b39fcc83467ede37ada56,,,,,,,,,,,,,,,,,,,,,,,a,1,0.615,"[""0.271"",""0.529"",""0.637"",""0.960""]","[1,0,1,1]",0,8,8,8,1,0,1,,,1,FALSE,,,,,,,,,,,,,,,,,,,,,,,,,,,,,,
,60c1af47168896c09e814ace,001,2022-04-28_20h06.30.675,classification_task,2021.2.3,Win32,60.0240096,60c1af47168896c09e814ace,626b377229c10585ec392f89,626b39fcc83467ede37ada56,,,,,,,,,,,,,,,,,,,,,,,a,1,0.494,"[""0.271"",""0.421"",""0.637"",""0.905""]","[1,1,1,0]",0,9,9,9,1,0,1,,,1,FALSE,,,,,,,,,,,,,,,,,,,,,,,,,,,,,,
,60c1af47168896c09e814ace,001,2022-04-28_20h06.30.675,classification_task,2021.2.3,Win32,60.0240096,60c1af47168896c09e814ace,626b377229c10585ec392f89,626b39fcc83467ede37ada56,,,,,,,,,,,,,,,,,,,,,,,l,1,1.025,"[""0.510"",""0.093"",""0.469"",""0.717""]","[0,1,1,1]",0,10,10,10,1,1,0,,,1,FALSE,,,,,,,,,,,,,,,,,,,,,,,,,,,,,,
,60c1af47168896c09e814ace,001,2022-04-28_20h06.30.675,classification_task,2021.2.3,Win32,60.0240096,60c1af47168896c09e814ace,626b377229c10585ec392f89,626b39fcc83467ede37ada56,,,,,,,,,,,,,,,,,,,,,,,a,1,0.687,"[""0.228"",""0.673"",""0.818"",""0.861""]","[1,0,1,1]",0,11,11,11,1,0,0,,,1,FALSE,,,,,,,,,,,,,,,,,,,,,,,,,,,,,,
,60c1af47168896c09e814ace,001,2022-04-28_20h06.30.675,classification_task,2021.2.3,Win32,60.0240096,60c1af47168896c09e814ace,626b377229c10585ec392f89,626b39fcc83467ede37ada56,,,,,,,,,,,,,,,,,,,,,,,a,1,0.716,"[""0.510"",""0.342"",""0.818"",""0.861""]","[0,1,1,1]",0,12,12,12,1,0,0,,,1,FALSE,,,,,,,,,,,,,,,,,,,,,,,,,,,,,,
,60c1af47168896c09e814ace,001,2022-04-28_20h06.30.675,classification_task,2021.2.3,Win32,60.0240096,60c1af47168896c09e814ace,626b377229c10585ec392f89,626b39fcc83467ede37ada56,,,,,,,,,,,,,,,,,,,,,,,a,1,0.616,"[""0.228"",""0.342"",""0.912"",""0.861""]","[1,1,0,1]",0,13,13,13,1,0,0,,,1,FALSE,,,,,,,,,,,,,,,,,,,,,,,,,,,,,,
,60c1af47168896c09e814ace,001,2022-04-28_20h06.30.675,classification_task,2021.2.3,Win32,60.0240096,60c1af47168896c09e814ace,626b377229c10585ec392f89,626b39fcc83467ede37ada56,,,,,,,,,,,,,,,,,,,,,,,a,1,0.494,"[""0.228"",""0.342"",""0.818"",""0.510""]","[1,1,1,0]",0,14,14,14,1,0,0,,,1,FALSE,,,,,,,,,,,,,,,,,,,,,,,,,,,,,,
,60c1af47168896c09e814ace,001,2022-04-28_20h06.30.675,classification_task,2021.2.3,Win32,60.0240096,60c1af47168896c09e814ace,626b377229c10585ec392f89,626b39fcc83467ede37ada56,,,,,,,,,,,,,,,,,,,,,,,l,1,0.658,"[""0.040"",""0.093"",""0.924"",""0.717""]","[1,1,0,1]",0,15,15,15,1,1,0,,,1,FALSE,,,,,,,,,,,,,,,,,,,,,,,,,,,,,,
,60c1af47168896c09e814ace,001,2022-04-28_20h06.30.675,classification_task,2021.2.3,Win32,60.0240096,60c1af47168896c09e814ace,626b377229c10585ec392f89,626b39fcc83467ede37ada56,,,,,,,,,,,,,,,,,,,,,,,a,1,1.006,"[""0.517"",""0.342"",""0.818"",""0.861""]","[0,1,1,1]",0,16,16,16,1,0,0,,,1,FALSE,,,,,,,,,,,,,,,,,,,,,,,,,,,,,,
,60c1af47168896c09e814ace,001,2022-04-28_20h06.30.675,classification_task,2021.2.3,Win32,60.0240096,60c1af47168896c09e814ace,626b377229c10585ec392f89,626b39fcc83467ede37ada56,,,,,,,,,,,,,,,,,,,,,,,a,1,0.77,"[""0.271"",""0.421"",""0.305"",""0.960""]","[1,1,0,1]",0,17,17,17,1,0,1,,,1,FALSE,,,,,,,,,,,,,,,,,,,,,,,,,,,,,,
,60c1af47168896c09e814ace,001,2022-04-28_20h06.30.675,classification_task,2021.2.3,Win32,60.0240096,60c1af47168896c09e814ace,626b377229c10585ec392f89,626b39fcc83467ede37ada56,,,,,,,,,,,,,,,,,,,,,,,l,1,0.566,"[""0.145"",""0.183"",""0.570"",""0.900""]","[1,1,1,0]",0,18,18,18,1,1,1,,,1,FALSE,,,,,,,,,,,,,,,,,,,,,,,,,,,,,,
,60c1af47168896c09e814ace,001,2022-04-28_20h06.30.675,classification_task,2021.2.3,Win32,60.0240096,60c1af47168896c09e814ace,626b377229c10585ec392f89,626b39fcc83467ede37ada56,,,,,,,,,,,,,,,,,,,,,,,l,1,0.996,"[""0.385"",""0.183"",""0.570"",""0.751""]","[0,1,1,1]",0,19,19,19,1,1,1,,,1,FALSE,,,,,,,,,,,,,,,,,,,,,,,,,,,,,,
,60c1af47168896c09e814ace,001,2022-04-28_20h06.30.675,classification_task,2021.2.3,Win32,60.0240096,60c1af47168896c09e814ace,626b377229c10585ec392f89,626b39fcc83467ede37ada56,,,,,,,,,,,,,,,,,,,,,,,a,1,1.299,"[""0.228"",""0.342"",""0.818"",""0.385""]","[1,1,1,0]",0,20,20,20,1,0,0,,,1,FALSE,,,,,,,,,,,,,,,,,,,,,,,,,,,,,,
,60c1af47168896c09e814ace,001,2022-04-28_20h06.30.675,classification_task,2021.2.3,Win32,60.0240096,60c1af47168896c09e814ace,626b377229c10585ec392f89,626b39fcc83467ede37ada56,,,,,,,,,,,,,,,,,,,,,,,l,1,0.976,"[""0.040"",""0.093"",""0.469"",""0.905""]","[1,1,1,0]",0,21,21,21,1,1,0,,,1,FALSE,,,,,,,,,,,,,,,,,,,,,,,,,,,,,,
,60c1af47168896c09e814ace,001,2022-04-28_20h06.30.675,classification_task,2021.2.3,Win32,60.0240096,60c1af47168896c09e814ace,626b377229c10585ec392f89,626b39fcc83467ede37ada56,,,,,,,,,,,,,,,,,,,,,,,l,1,0.66,"[""0.145"",""0.385"",""0.570"",""0.751""]","[1,0,1,1]",0,22,22,22,1,1,1,,,1,FALSE,,,,,,,,,,,,,,,,,,,,,,,,,,,,,,
,60c1af47168896c09e814ace,001,2022-04-28_20h06.30.675,classification_task,2021.2.3,Win32,60.0240096,60c1af47168896c09e814ace,626b377229c10585ec392f89,626b39fcc83467ede37ada56,,,,,,,,,,,,,,,,,,,,,,,l,1,0.454,"[""0.145"",""0.183"",""0.673"",""0.751""]","[1,1,0,1]",0,23,23,23,1,1,1,,,1,FALSE,,,,,,,,,,,,,,,,,,,,,,,,,,,,,,
,60c1af47168896c09e814ace,001,2022-04-28_20h06.30.675,classification_task,2021.2.3,Win32,60.0240096,60c1af47168896c09e814ace,626b377229c10585ec392f89,626b39fcc83467ede37ada56,,,,,,,,,,,,,,,,,,,,,,,a,0,0.539,"[""0.040"",""0.093"",""0.913"",""0.717""]","[1,1,0,1]",0,24,24,24,1,1,0,,,1,FALSE,,,,,,,,,,,,,,,,,,,,,,,,,,,,,,
,60c1af47168896c09e814ace,001,2022-04-28_20h06.30.675,classification_task,2021.2.3,Win32,60.0240096,60c1af47168896c09e814ace,626b377229c10585ec392f89,626b39fcc83467ede37ada56,,,,,,,,,,,,,,,,,,,,,,,a,1,1.118,"[""0.228"",""0.342"",""0.529"",""0.861""]","[1,1,0,1]",0,25,25,25,1,0,0,,,1,FALSE,,,,,,,,,,,,,,,,,,,,,,,,,,,,,,
,60c1af47168896c09e814ace,001,2022-04-28_20h06.30.675,classification_task,2021.2.3,Win32,60.0240096,60c1af47168896c09e814ace,626b377229c10585ec392f89,626b39fcc83467ede37ada56,,,,,,,,,,,,,,,,,,,,,,,a,1,0.752,"[""0.228"",""0.305"",""0.818"",""0.861""]","[1,0,1,1]",0,26,26,26,1,0,0,,,1,FALSE,,,,,,,,,,,,,,,,,,,,,,,,,,,,,,
,60c1af47168896c09e814ace,001,2022-04-28_20h06.30.675,classification_task,2021.2.3,Win32,60.0240096,60c1af47168896c09e814ace,626b377229c10585ec392f89,626b39fcc83467ede37ada56,,,,,,,,,,,,,,,,,,,,,,,l,0,0.603,"[""0.510"",""0.421"",""0.637"",""0.960""]","[0,1,1,1]",0,27,27,27,1,0,1,,,1,FALSE,,,,,,,,,,,,,,,,,,,,,,,,,,,,,,
,60c1af47168896c09e814ace,001,2022-04-28_20h06.30.675,classification_task,2021.2.3,Win32,60.0240096,60c1af47168896c09e814ace,626b377229c10585ec392f89,626b39fcc83467ede37ada56,,,,,,,,,,,,,,,,,,,,,,,a,1,1.083,"[""0.271"",""0.900"",""0.637"",""0.960""]","[1,0,1,1]",0,28,28,28,1,0,1,,,1,FALSE,,,,,,,,,,,,,,,,,,,,,,,,,,,,,,
,60c1af47168896c09e814ace,001,2022-04-28_20h06.30.675,classification_task,2021.2.3,Win32,60.0240096,60c1af47168896c09e814ace,626b377229c10585ec392f89,626b39fcc83467ede37ada56,,,,,,,,,,,,,,,,,,,,,,,a,1,0.533,"[""0.271"",""0.421"",""0.637"",""0.913""]","[1,1,1,0]",0,29,29,29,1,0,1,,,1,FALSE,,,,,,,,,,,,,,,,,,,,,,,,,,,,,,
,60c1af47168896c09e814ace,001,2022-04-28_20h06.30.675,classification_task,2021.2.3,Win32,60.0240096,60c1af47168896c09e814ace,626b377229c10585ec392f89,626b39fcc83467ede37ada56,,,,,,,,,,,,,,,,,,,,,,,l,1,0.978,"[""0.385"",""0.093"",""0.469"",""0.717""]","[0,1,1,1]",0,30,30,30,1,1,0,,,1,FALSE,,,,,,,,,,,,,,,,,,,,,,,,,,,,,,
,60c1af47168896c09e814ace,001,2022-04-28_20h06.30.675,classification_task,2021.2.3,Win32,60.0240096,60c1af47168896c09e814ace,626b377229c10585ec392f89,626b39fcc83467ede37ada56,,,,,,,,,,,,,,,,,,,,,,,l,1,0.718,"[""0.040"",""0.529"",""0.469"",""0.717""]","[1,0,1,1]",0,31,31,31,1,1,0,,,1,FALSE,,,,,,,,,,,,,,,,,,,,,,,,,,,,,,
,60c1af47168896c09e814ace,001,2022-04-28_20h06.30.675,classification_task,2021.2.3,Win32,60.0240096,60c1af47168896c09e814ace,626b377229c10585ec392f89,626b39fcc83467ede37ada56,,,,,,,,,,,,,,,,,,,,,,,l,1,0.395,"[""0.145"",""0.183"",""0.570"",""0.305""]","[1,1,1,0]",0,32,32,32,1,1,1,,,1,FALSE,,,,,,,,,,,,,,,,,,,,,,,,,,,,,,
,60c1af47168896c09e814ace,001,2022-04-28_20h06.30.675,classification_task,2021.2.3,Win32,60.0240096,60c1af47168896c09e814ace,626b377229c10585ec392f89,626b39fcc83467ede37ada56,,,,,,,,,,,,,,,,,,,,,,,a,1,0.544,"[""0.271"",""0.923"",""0.637"",""0.960""]","[1,0,1,1]",0,33,33,33,1,0,1,,,1,FALSE,,,,,,,,,,,,,,,,,,,,,,,,,,,,,,
,60c1af47168896c09e814ace,001,2022-04-28_20h06.30.675,classification_task,2021.2.3,Win32,60.0240096,60c1af47168896c09e814ace,626b377229c10585ec392f89,626b39fcc83467ede37ada56,,,,,,,,,,,,,,,,,,,,,,,l,1,0.935,"[""0.305"",""0.093"",""0.469"",""0.717""]","[0,1,1,1]",0,34,34,34,1,1,0,,,1,FALSE,,,,,,,,,,,,,,,,,,,,,,,,,,,,,,
,60c1af47168896c09e814ace,001,2022-04-28_20h06.30.675,classification_task,2021.2.3,Win32,60.0240096,60c1af47168896c09e814ace,626b377229c10585ec392f89,626b39fcc83467ede37ada56,,,,,,,,,,,,,,,,,,,,,,,l,1,0.708,"[""0.040"",""0.385"",""0.469"",""0.717""]","[1,0,1,1]",0,35,35,35,1,1,0,,,1,FALSE,,,,,,,,,,,,,,,,,,,,,,,,,,,,,,
,60c1af47168896c09e814ace,001,2022-04-28_20h06.30.675,classification_task,2021.2.3,Win32,60.0240096,60c1af47168896c09e814ace,626b377229c10585ec392f89,626b39fcc83467ede37ada56,,,,,,,,,,,,,,,,,,,,,,,a,1,0.549,"[""0.271"",""0.421"",""0.913"",""0.960""]","[1,1,0,1]",0,36,36,36,1,0,1,,,1,FALSE,,,,,,,,,,,,,,,,,,,,,,,,,,,,,,
,60c1af47168896c09e814ace,001,2022-04-28_20h06.30.675,classification_task,2021.2.3,Win32,60.0240096,60c1af47168896c09e814ace,626b377229c10585ec392f89,626b39fcc83467ede37ada56,,,,,,,,,,,,,,,,,,,,,,,a,1,0.601,"[""0.900"",""0.421"",""0.637"",""0.960""]","[0,1,1,1]",0,37,37,37,1,0,1,,,1,FALSE,,,,,,,,,,,,,,,,,,,,,,,,,,,,,,
,60c1af47168896c09e814ace,001,2022-04-28_20h06.30.675,classification_task,2021.2.3,Win32,60.0240096,60c1af47168896c09e814ace,626b377229c10585ec392f89,626b39fcc83467ede37ada56,,,,,,,,,,,,,,,,,,,,,,,l,1,0.853,"[""0.040"",""0.093"",""0.469"",""0.517""]","[1,1,1,0]",0,38,38,38,1,1,0,,,1,FALSE,,,,,,,,,,,,,,,,,,,,,,,,,,,,,,
,60c1af47168896c09e814ace,001,2022-04-28_20h06.30.675,classification_task,2021.2.3,Win32,60.0240096,60c1af47168896c09e814ace,626b377229c10585ec392f89,626b39fcc83467ede37ada56,,,,,,,,,,,,,,,,,,,,,,,a,1,0.767,"[""0.517"",""0.342"",""0.818"",""0.861""]","[0,1,1,1]",0,39,39,39,1,0,0,,,1,FALSE,,,,,,,,,,,,,,,,,,,,,,,,,,,,,,
,60c1af47168896c09e814ace,001,2022-04-28_20h06.30.675,classification_task,2021.2.3,Win32,60.0240096,60c1af47168896c09e814ace,626b377229c10585ec392f89,626b39fcc83467ede37ada56,,,,,,,,,,,,,,,,,,,,,,,l,1,0.645,"[""0.145"",""0.183"",""0.385"",""0.751""]","[1,1,0,1]",0,40,40,40,1,1,1,,,1,FALSE,,,,,,,,,,,,,,,,,,,,,,,,,,,,,,
,60c1af47168896c09e814ace,001,2022-04-28_20h06.30.675,classification_task,2021.2.3,Win32,60.0240096,60c1af47168896c09e814ace,626b377229c10585ec392f89,626b39fcc83467ede37ada56,,,,,,,,,,,,,,,,,,,,,,,l,1,0.405,"[""0.900"",""0.183"",""0.570"",""0.751""]","[0,1,1,1]",0,41,41,41,1,1,1,,,1,FALSE,,,,,,,,,,,,,,,,,,,,,,,,,,,,,,
,60c1af47168896c09e814ace,001,2022-04-28_20h06.30.675,classification_task,2021.2.3,Win32,60.0240096,60c1af47168896c09e814ace,626b377229c10585ec392f89,626b39fcc83467ede37ada56,,,,,,,,,,,,,,,,,,,,,,,a,1,0.997,"[""0.228"",""0.923"",""0.818"",""0.861""]","[1,0,1,1]",0,42,42,42,1,0,0,,,1,FALSE,,,,,,,,,,,,,,,,,,,,,,,,,,,,,,
,60c1af47168896c09e814ace,001,2022-04-28_20h06.30.675,classification_task,2021.2.3,Win32,60.0240096,60c1af47168896c09e814ace,626b377229c10585ec392f89,626b39fcc83467ede37ada56,,,,,,,,,,,,,,,,,,,,,,,a,1,0.532,"[""0.228"",""0.342"",""0.818"",""0.510""]","[1,1,1,0]",0,43,43,43,1,0,0,,,1,FALSE,,,,,,,,,,,,,,,,,,,,,,,,,,,,,,
,60c1af47168896c09e814ace,001,2022-04-28_20h06.30.675,classification_task,2021.2.3,Win32,60.0240096,60c1af47168896c09e814ace,626b377229c10585ec392f89,626b39fcc83467ede37ada56,,,,,,,,,,,,,,,,,,,,,,,a,1,0.539,"[""0.228"",""0.342"",""0.510"",""0.861""]","[1,1,0,1]",0,44,44,44,1,0,0,,,1,FALSE,,,,,,,,,,,,,,,,,,,,,,,,,,,,,,
,60c1af47168896c09e814ace,001,2022-04-28_20h06.30.675,classification_task,2021.2.3,Win32,60.0240096,60c1af47168896c09e814ace,626b377229c10585ec392f89,626b39fcc83467ede37ada56,,,,,,,,,,,,,,,,,,,,,,,a,1,0.672,"[""0.271"",""0.421"",""0.637"",""0.913""]","[1,1,1,0]",0,45,45,45,1,0,1,,,1,FALSE,,,,,,,,,,,,,,,,,,,,,,,,,,,,,,
,60c1af47168896c09e814ace,001,2022-04-28_20h06.30.675,classification_task,2021.2.3,Win32,60.0240096,60c1af47168896c09e814ace,626b377229c10585ec392f89,626b39fcc83467ede37ada56,,,,,,,,,,,,,,,,,,,,,,,l,1,0.843,"[""0.040"",""0.093"",""0.913"",""0.717""]","[1,1,0,1]",0,46,46,46,1,1,0,,,1,FALSE,,,,,,,,,,,,,,,,,,,,,,,,,,,,,,
,60c1af47168896c09e814ace,001,2022-04-28_20h06.30.675,classification_task,2021.2.3,Win32,60.0240096,60c1af47168896c09e814ace,626b377229c10585ec392f89,626b39fcc83467ede37ada56,,,,,,,,,,,,,,,,,,,,,,,l,1,0.569,"[""0.145"",""0.385"",""0.570"",""0.751""]","[1,0,1,1]",0,47,47,47,1,1,1,,,1,FALSE,,,,,,,,,,,,,,,,,,,,,,,,,,,,,,
,60c1af47168896c09e814ace,001,2022-04-28_20h06.30.675,classification_task,2021.2.3,Win32,60.0240096,60c1af47168896c09e814ace,626b377229c10585ec392f89,626b39fcc83467ede37ada56,,,,,,,,,,,,,,,,,,,,,,,l,1,0.74,"[""0.040"",""0.912"",""0.469"",""0.717""]","[1,0,1,1]",0,48,48,48,1,1,0,,,1,FALSE,,,,,,,,,,,,,,,,,,,,,,,,,,,,,,
,60c1af47168896c09e814ace,001,2022-04-28_20h06.30.675,classification_task,2021.2.3,Win32,60.0240096,60c1af47168896c09e814ace,626b377229c10585ec392f89,626b39fcc83467ede37ada56,,,,,,,,,,,,,,,,,,,,,,,a,1,0.548,"[""0.271"",""0.529"",""0.637"",""0.960""]","[1,0,1,1]",0,49,49,49,1,0,1,,,1,FALSE,,,,,,,,,,,,,,,,,,,,,,,,,,,,,,
,60c1af47168896c09e814ace,001,2022-04-28_20h06.30.675,classification_task,2021.2.3,Win32,60.0240096,60c1af47168896c09e814ace,626b377229c10585ec392f89,626b39fcc83467ede37ada56,,,,,,,,,,,,,,,,,,,,,,,a,1,0.618,"[""0.271"",""0.421"",""0.923"",""0.960""]","[1,1,0,1]",0,50,50,50,1,0,1,,,1,FALSE,,,,,,,,,,,,,,,,,,,,,,,,,,,,,,
,60c1af47168896c09e814ace,001,2022-04-28_20h06.30.675,classification_task,2021.2.3,Win32,60.0240096,60c1af47168896c09e814ace,626b377229c10585ec392f89,626b39fcc83467ede37ada56,,,,,,,,,,,,,,,,,,,,,,,a,1,0.804,"[""0.228"",""0.342"",""0.924"",""0.861""]","[1,1,0,1]",0,51,51,51,1,0,0,,,1,FALSE,,,,,,,,,,,,,,,,,,,,,,,,,,,,,,
,60c1af47168896c09e814ace,001,2022-04-28_20h06.30.675,classification_task,2021.2.3,Win32,60.0240096,60c1af47168896c09e814ace,626b377229c10585ec392f89,626b39fcc83467ede37ada56,,,,,,,,,,,,,,,,,,,,,,,a,1,0.562,"[""0.510"",""0.421"",""0.637"",""0.960""]","[0,1,1,1]",0,52,52,52,1,0,1,,,1,FALSE,,,,,,,,,,,,,,,,,,,,,,,,,,,,,,
,60c1af47168896c09e814ace,001,2022-04-28_20h06.30.675,classification_task,2021.2.3,Win32,60.0240096,60c1af47168896c09e814ace,626b377229c10585ec392f89,626b39fcc83467ede37ada56,,,,,,,,,,,,,,,,,,,,,,,l,1,0.77,"[""0.536"",""0.093"",""0.469"",""0.717""]","[0,1,1,1]",0,53,53,53,1,1,0,,,1,FALSE,,,,,,,,,,,,,,,,,,,,,,,,,,,,,,
,60c1af47168896c09e814ace,001,2022-04-28_20h06.30.675,classification_task,2021.2.3,Win32,60.0240096,60c1af47168896c09e814ace,626b377229c10585ec392f89,626b39fcc83467ede37ada56,,,,,,,,,,,,,,,,,,,,,,,l,1,0.7,"[""0.040"",""0.093"",""0.385"",""0.717""]","[1,1,0,1]",0,54,54,54,1,1,0,,,1,FALSE,,,,,,,,,,,,,,,,,,,,,,,,,,,,,,
,60c1af47168896c09e814ace,001,2022-04-28_20h06.30.675,classification_task,2021.2.3,Win32,60.0240096,60c1af47168896c09e814ace,626b377229c10585ec392f89,626b39fcc83467ede37ada56,,,,,,,,,,,,,,,,,,,,,,,a,1,0.686,"[""0.228"",""0.510"",""0.818"",""0.861""]","[1,0,1,1]",0,55,55,55,1,0,0,,,1,FALSE,,,,,,,,,,,,,,,,,,,,,,,,,,,,,,
,60c1af47168896c09e814ace,001,2022-04-28_20h06.30.675,classification_task,2021.2.3,Win32,60.0240096,60c1af47168896c09e814ace,626b377229c10585ec392f89,626b39fcc83467ede37ada56,,,,,,,,,,,,,,,,,,,,,,,l,1,0.718,"[""0.040"",""0.093"",""0.469"",""0.385""]","[1,1,1,0]",0,56,56,56,1,1,0,,,1,FALSE,,,,,,,,,,,,,,,,,,,,,,,,,,,,,,
,60c1af47168896c09e814ace,001,2022-04-28_20h06.30.675,classification_task,2021.2.3,Win32,60.0240096,60c1af47168896c09e814ace,626b377229c10585ec392f89,626b39fcc83467ede37ada56,,,,,,,,,,,,,,,,,,,,,,,a,1,0.716,"[""0.529"",""0.342"",""0.818"",""0.861""]","[0,1,1,1]",0,57,57,57,1,0,0,,,1,FALSE,,,,,,,,,,,,,,,,,,,,,,,,,,,,,,
,60c1af47168896c09e814ace,001,2022-04-28_20h06.30.675,classification_task,2021.2.3,Win32,60.0240096,60c1af47168896c09e814ace,626b377229c10585ec392f89,626b39fcc83467ede37ada56,,,,,,,,,,,,,,,,,,,,,,,l,1,0.574,"[""0.145"",""0.183"",""0.900"",""0.751""]","[1,1,0,1]",0,58,58,58,1,1,1,,,1,FALSE,,,,,,,,,,,,,,,,,,,,,,,,,,,,,,
,60c1af47168896c09e814ace,001,2022-04-28_20h06.30.675,classification_task,2021.2.3,Win32,60.0240096,60c1af47168896c09e814ace,626b377229c10585ec392f89,626b39fcc83467ede37ada56,,,,,,,,,,,,,,,,,,,,,,,l,1,0.596,"[""0.145"",""0.900"",""0.570"",""0.751""]","[1,0,1,1]",0,59,59,59,1,1,1,,,1,FALSE,,,,,,,,,,,,,,,,,,,,,,,,,,,,,,
,60c1af47168896c09e814ace,001,2022-04-28_20h06.30.675,classification_task,2021.2.3,Win32,60.0240096,60c1af47168896c09e814ace,626b377229c10585ec392f89,626b39fcc83467ede37ada56,,,,,,,,,,,,,,,,,,,,,,,l,1,0.557,"[""0.145"",""0.183"",""0.570"",""0.305""]","[1,1,1,0]",0,60,60,60,1,1,1,,,1,FALSE,,,,,,,,,,,,,,,,,,,,,,,,,,,,,,
,60c1af47168896c09e814ace,001,2022-04-28_20h06.30.675,classification_task,2021.2.3,Win32,60.0240096,60c1af47168896c09e814ace,626b377229c10585ec392f89,626b39fcc83467ede37ada56,,,,,,,,,,,,,,,,,,,,,,,a,1,0.793,"[""0.228"",""0.342"",""0.818"",""0.305""]","[1,1,1,0]",0,61,61,61,1,0,0,,,1,FALSE,,,,,,,,,,,,,,,,,,,,,,,,,,,,,,
,60c1af47168896c09e814ace,001,2022-04-28_20h06.30.675,classification_task,2021.2.3,Win32,60.0240096,60c1af47168896c09e814ace,626b377229c10585ec392f89,626b39fcc83467ede37ada56,,,,,,,,,,,,,,,,,,,,,,,a,1,0.705,"[""0.271"",""0.421"",""0.637"",""0.510""]","[1,1,1,0]",0,62,62,62,1,0,1,,,1,FALSE,,,,,,,,,,,,,,,,,,,,,,,,,,,,,,
,60c1af47168896c09e814ace,001,2022-04-28_20h06.30.675,classification_task,2021.2.3,Win32,60.0240096,60c1af47168896c09e814ace,626b377229c10585ec392f89,626b39fcc83467ede37ada56,,,,,,,,,,,,,,,,,,,,,,,l,1,0.6,"[""0.924"",""0.183"",""0.570"",""0.751""]","[0,1,1,1]",0,63,63,63,1,1,1,,,1,FALSE,,,,,,,,,,,,,,,,,,,,,,,,,,,,,,
,60c1af47168896c09e814ace,001,2022-04-28_20h06.30.675,classification_task,2021.2.3,Win32,60.0240096,60c1af47168896c09e814ace,626b377229c10585ec392f89,626b39fcc83467ede37ada56,,,,,,,,,,,,,,,,,,,,,,,,,,,,,,,,,,,,,,,0, ,,0,2.848324515,130.823,0,1,1,1,1,2,2,,,,,,,,,,,,,,,,,
,60c1af47168896c09e814ace,001,2022-04-28_20h06.30.675,classification_task,2021.2.3,Win32,60.0240096,60c1af47168896c09e814ace,626b377229c10585ec392f89,626b39fcc83467ede37ada56,,,,,,,,,,,,,,,,,,,,,,,,,,,,,,,,,,,,,,,1,  ,,0,0.343915344,132.456,0,1,1,1,1,2,2,,,,,,,,,,,,,,,,,
,60c1af47168896c09e814ace,001,2022-04-28_20h06.30.675,classification_task,2021.2.3,Win32,60.0240096,60c1af47168896c09e814ace,626b377229c10585ec392f89,626b39fcc83467ede37ada56,,,,,,,,,,,,,,,,,,,,,,,,,,,,,,,,,,,,,,,2,  ,,0,0.414462081,134.029,0,1,1,1,1,2,2,,,,,,,,,,,,,,,,,
,60c1af47168896c09e814ace,001,2022-04-28_20h06.30.675,classification_task,2021.2.3,Win32,60.0240096,60c1af47168896c09e814ace,626b377229c10585ec392f89,626b39fcc83467ede37ada56,,,,,,,,,,,,,,,,,,,,,,,,,,,,,,,,,,,,,,,,,,,,,0,1,1,1,1,,2,,,,,,,,,,,,,,,,,
,60c1af47168896c09e814ace,001,2022-04-28_20h06.30.675,classification_task,2021.2.3,Win32,60.0240096,60c1af47168896c09e814ace,626b377229c10585ec392f89,626b39fcc83467ede37ada56,,,,,,,,,,,,,,,,,,,,,space,5.799,l,1,1.433,"[""0.145"",""0.183"",""0.924"",""0.751""]","[1,1,0,1]",0,0,0,0,1,1,1,,,1,FALSE,,,,,,,,,,,,,,,,,,,,,,,,,,,,,,
,60c1af47168896c09e814ace,001,2022-04-28_20h06.30.675,classification_task,2021.2.3,Win32,60.0240096,60c1af47168896c09e814ace,626b377229c10585ec392f89,626b39fcc83467ede37ada56,,,,,,,,,,,,,,,,,,,,,,,l,1,2.55,"[""0.913"",""0.183"",""0.570"",""0.751""]","[0,1,1,1]",0,1,1,1,1,1,1,,,1,FALSE,,,,,,,,,,,,,,,,,,,,,,,,,,,,,,
,60c1af47168896c09e814ace,001,2022-04-28_20h06.30.675,classification_task,2021.2.3,Win32,60.0240096,60c1af47168896c09e814ace,626b377229c10585ec392f89,626b39fcc83467ede37ada56,,,,,,,,,,,,,,,,,,,,,,,l,1,0.96,"[""0.040"",""0.093"",""0.536"",""0.717""]","[1,1,0,1]",0,2,2,2,1,1,0,,,1,FALSE,,,,,,,,,,,,,,,,,,,,,,,,,,,,,,
,60c1af47168896c09e814ace,001,2022-04-28_20h06.30.675,classification_task,2021.2.3,Win32,60.0240096,60c1af47168896c09e814ace,626b377229c10585ec392f89,626b39fcc83467ede37ada56,,,,,,,,,,,,,,,,,,,,,,,l,1,1.034,"[""0.040"",""0.093"",""0.469"",""0.913""]","[1,1,1,0]",0,3,3,3,1,1,0,,,1,FALSE,,,,,,,,,,,,,,,,,,,,,,,,,,,,,,
,60c1af47168896c09e814ace,001,2022-04-28_20h06.30.675,classification_task,2021.2.3,Win32,60.0240096,60c1af47168896c09e814ace,626b377229c10585ec392f89,626b39fcc83467ede37ada56,,,,,,,,,,,,,,,,,,,,,,,l,1,0.945,"[""0.040"",""0.510"",""0.469"",""0.717""]","[1,0,1,1]",0,4,4,4,1,1,0,,,1,FALSE,,,,,,,,,,,,,,,,,,,,,,,,,,,,,,
,60c1af47168896c09e814ace,001,2022-04-28_20h06.30.675,classification_task,2021.2.3,Win32,60.0240096,60c1af47168896c09e814ace,626b377229c10585ec392f89,626b39fcc83467ede37ada56,,,,,,,,,,,,,,,,,,,,,,,l,1,0.913,"[""0.145"",""0.183"",""0.570"",""0.905""]","[1,1,1,0]",0,5,5,5,1,1,1,,,1,FALSE,,,,,,,,,,,,,,,,,,,,,,,,,,,,,,
,60c1af47168896c09e814ace,001,2022-04-28_20h06.30.675,classification_task,2021.2.3,Win32,60.0240096,60c1af47168896c09e814ace,626b377229c10585ec392f89,626b39fcc83467ede37ada56,,,,,,,,,,,,,,,,,,,,,,,a,1,1.257,"[""0.305"",""0.342"",""0.818"",""0.861""]","[0,1,1,1]",0,6,6,6,1,0,0,,,1,FALSE,,,,,,,,,,,,,,,,,,,,,,,,,,,,,,
,60c1af47168896c09e814ace,001,2022-04-28_20h06.30.675,classification_task,2021.2.3,Win32,60.0240096,60c1af47168896c09e814ace,626b377229c10585ec392f89,626b39fcc83467ede37ada56,,,,,,,,,,,,,,,,,,,,,,,a,1,0.954,"[""0.271"",""0.421"",""0.637"",""0.510""]","[1,1,1,0]",0,7,7,7,1,0,1,,,1,FALSE,,,,,,,,,,,,,,,,,,,,,,,,,,,,,,
,60c1af47168896c09e814ace,001,2022-04-28_20h06.30.675,classification_task,2021.2.3,Win32,60.0240096,60c1af47168896c09e814ace,626b377229c10585ec392f89,626b39fcc83467ede37ada56,,,,,,,,,,,,,,,,,,,,,,,a,1,0.695,"[""0.228"",""0.342"",""0.517"",""0.861""]","[1,1,0,1]",0,8,8,8,1,0,0,,,1,FALSE,,,,,,,,,,,,,,,,,,,,,,,,,,,,,,
,60c1af47168896c09e814ace,001,2022-04-28_20h06.30.675,classification_task,2021.2.3,Win32,60.0240096,60c1af47168896c09e814ace,626b377229c10585ec392f89,626b39fcc83467ede37ada56,,,,,,,,,,,,,,,,,,,,,,,l,1,0.876,"[""0.913"",""0.093"",""0.469"",""0.717""]","[0,1,1,1]",0,9,9,9,1,1,0,,,1,FALSE,,,,,,,,,,,,,,,,,,,,,,,,,,,,,,
,60c1af47168896c09e814ace,001,2022-04-28_20h06.30.675,classification_task,2021.2.3,Win32,60.0240096,60c1af47168896c09e814ace,626b377229c10585ec392f89,626b39fcc83467ede37ada56,,,,,,,,,,,,,,,,,,,,,,,a,1,0.957,"[""0.271"",""0.924"",""0.637"",""0.960""]","[1,0,1,1]",0,10,10,10,1,0,1,,,1,FALSE,,,,,,,,,,,,,,,,,,,,,,,,,,,,,,
,60c1af47168896c09e814ace,001,2022-04-28_20h06.30.675,classification_task,2021.2.3,Win32,60.0240096,60c1af47168896c09e814ace,626b377229c10585ec392f89,626b39fcc83467ede37ada56,,,,,,,,,,,,,,,,,,,,,,,l,1,0.739,"[""0.145"",""0.385"",""0.570"",""0.751""]","[1,0,1,1]",0,11,11,11,1,1,1,,,1,FALSE,,,,,,,,,,,,,,,,,,,,,,,,,,,,,,
,60c1af47168896c09e814ace,001,2022-04-28_20h06.30.675,classification_task,2021.2.3,Win32,60.0240096,60c1af47168896c09e814ace,626b377229c10585ec392f89,626b39fcc83467ede37ada56,,,,,,,,,,,,,,,,,,,,,,,a,1,0.737,"[""0.228"",""0.342"",""0.818"",""0.913""]","[1,1,1,0]",0,12,12,12,1,0,0,,,1,FALSE,,,,,,,,,,,,,,,,,,,,,,,,,,,,,,
,60c1af47168896c09e814ace,001,2022-04-28_20h06.30.675,classification_task,2021.2.3,Win32,60.0240096,60c1af47168896c09e814ace,626b377229c10585ec392f89,626b39fcc83467ede37ada56,,,,,,,,,,,,,,,,,,,,,,,a,1,0.862,"[""0.228"",""0.529"",""0.818"",""0.861""]","[1,0,1,1]",0,13,13,13,1,0,0,,,1,FALSE,,,,,,,,,,,,,,,,,,,,,,,,,,,,,,
,60c1af47168896c09e814ace,001,2022-04-28_20h06.30.675,classification_task,2021.2.3,Win32,60.0240096,60c1af47168896c09e814ace,626b377229c10585ec392f89,626b39fcc83467ede37ada56,,,,,,,,,,,,,,,,,,,,,,,a,1,0.874,"[""0.271"",""0.421"",""0.924"",""0.960""]","[1,1,0,1]",0,14,14,14,1,0,1,,,1,FALSE,,,,,,,,,,,,,,,,,,,,,,,,,,,,,,
,60c1af47168896c09e814ace,001,2022-04-28_20h06.30.675,classification_task,2021.2.3,Win32,60.0240096,60c1af47168896c09e814ace,626b377229c10585ec392f89,626b39fcc83467ede37ada56,,,,,,,,,,,,,,,,,,,,,,,a,1,1.551,"[""0.510"",""0.421"",""0.637"",""0.960""]","[0,1,1,1]",0,15,15,15,1,0,1,,,1,FALSE,,,,,,,,,,,,,,,,,,,,,,,,,,,,,,
,60c1af47168896c09e814ace,001,2022-04-28_20h06.30.675,classification_task,2021.2.3,Win32,60.0240096,60c1af47168896c09e814ace,626b377229c10585ec392f89,626b39fcc83467ede37ada56,,,,,,,,,,,,,,,,,,,,,,,l,1,0.831,"[""0.040"",""0.093"",""0.385"",""0.717""]","[1,1,0,1]",0,16,16,16,1,1,0,,,1,FALSE,,,,,,,,,,,,,,,,,,,,,,,,,,,,,,
,60c1af47168896c09e814ace,001,2022-04-28_20h06.30.675,classification_task,2021.2.3,Win32,60.0240096,60c1af47168896c09e814ace,626b377229c10585ec392f89,626b39fcc83467ede37ada56,,,,,,,,,,,,,,,,,,,,,,,a,1,0.694,"[""0.228"",""0.342"",""0.818"",""0.912""]","[1,1,1,0]",0,17,17,17,1,0,0,,,1,FALSE,,,,,,,,,,,,,,,,,,,,,,,,,,,,,,
,60c1af47168896c09e814ace,001,2022-04-28_20h06.30.675,classification_task,2021.2.3,Win32,60.0240096,60c1af47168896c09e814ace,626b377229c10585ec392f89,626b39fcc83467ede37ada56,,,,,,,,,,,,,,,,,,,,,,,a,1,0.906,"[""0.228"",""0.536"",""0.818"",""0.861""]","[1,0,1,1]",0,18,18,18,1,0,0,,,1,FALSE,,,,,,,,,,,,,,,,,,,,,,,,,,,,,,
,60c1af47168896c09e814ace,001,2022-04-28_20h06.30.675,classification_task,2021.2.3,Win32,60.0240096,60c1af47168896c09e814ace,626b377229c10585ec392f89,626b39fcc83467ede37ada56,,,,,,,,,,,,,,,,,,,,,,,a,1,1.802,"[""0.517"",""0.342"",""0.818"",""0.861""]","[0,1,1,1]",0,19,19,19,1,0,0,,,1,FALSE,,,,,,,,,,,,,,,,,,,,,,,,,,,,,,
,60c1af47168896c09e814ace,001,2022-04-28_20h06.30.675,classification_task,2021.2.3,Win32,60.0240096,60c1af47168896c09e814ace,626b377229c10585ec392f89,626b39fcc83467ede37ada56,,,,,,,,,,,,,,,,,,,,,,,l,1,0.843,"[""0.145"",""0.183"",""0.924"",""0.751""]","[1,1,0,1]",0,20,20,20,1,1,1,,,1,FALSE,,,,,,,,,,,,,,,,,,,,,,,,,,,,,,
,60c1af47168896c09e814ace,001,2022-04-28_20h06.30.675,classification_task,2021.2.3,Win32,60.0240096,60c1af47168896c09e814ace,626b377229c10585ec392f89,626b39fcc83467ede37ada56,,,,,,,,,,,,,,,,,,,,,,,a,1,1.101,"[""0.271"",""0.421"",""0.912"",""0.960""]","[1,1,0,1]",0,21,21,21,1,0,1,,,1,FALSE,,,,,,,,,,,,,,,,,,,,,,,,,,,,,,
,60c1af47168896c09e814ace,001,2022-04-28_20h06.30.675,classification_task,2021.2.3,Win32,60.0240096,60c1af47168896c09e814ace,626b377229c10585ec392f89,626b39fcc83467ede37ada56,,,,,,,,,,,,,,,,,,,,,,,a,1,0.842,"[""0.271"",""0.912"",""0.637"",""0.960""]","[1,0,1,1]",0,22,22,22,1,0,1,,,1,FALSE,,,,,,,,,,,,,,,,,,,,,,,,,,,,,,
,60c1af47168896c09e814ace,001,2022-04-28_20h06.30.675,classification_task,2021.2.3,Win32,60.0240096,60c1af47168896c09e814ace,626b377229c10585ec392f89,626b39fcc83467ede37ada56,,,,,,,,,,,,,,,,,,,,,,,l,1,1.514,"[""0.510"",""0.093"",""0.469"",""0.717""]","[0,1,1,1]",0,23,23,23,1,1,0,,,1,FALSE,,,,,,,,,,,,,,,,,,,,,,,,,,,,,,
,60c1af47168896c09e814ace,001,2022-04-28_20h06.30.675,classification_task,2021.2.3,Win32,60.0240096,60c1af47168896c09e814ace,626b377229c10585ec392f89,626b39fcc83467ede37ada56,,,,,,,,,,,,,,,,,,,,,,,l,1,0.912,"[""0.510"",""0.183"",""0.570"",""0.751""]","[0,1,1,1]",0,24,24,24,1,1,1,,,1,FALSE,,,,,,,,,,,,,,,,,,,,,,,,,,,,,,
,60c1af47168896c09e814ace,001,2022-04-28_20h06.30.675,classification_task,2021.2.3,Win32,60.0240096,60c1af47168896c09e814ace,626b377229c10585ec392f89,626b39fcc83467ede37ada56,,,,,,,,,,,,,,,,,,,,,,,l,1,0.734,"[""0.040"",""0.093"",""0.469"",""0.912""]","[1,1,1,0]",0,25,25,25,1,1,0,,,1,FALSE,,,,,,,,,,,,,,,,,,,,,,,,,,,,,,
,60c1af47168896c09e814ace,001,2022-04-28_20h06.30.675,classification_task,2021.2.3,Win32,60.0240096,60c1af47168896c09e814ace,626b377229c10585ec392f89,626b39fcc83467ede37ada56,,,,,,,,,,,,,,,,,,,,,,,l,1,1.025,"[""0.145"",""0.385"",""0.570"",""0.751""]","[1,0,1,1]",0,26,26,26,1,1,1,,,1,FALSE,,,,,,,,,,,,,,,,,,,,,,,,,,,,,,
,60c1af47168896c09e814ace,001,2022-04-28_20h06.30.675,classification_task,2021.2.3,Win32,60.0240096,60c1af47168896c09e814ace,626b377229c10585ec392f89,626b39fcc83467ede37ada56,,,,,,,,,,,,,,,,,,,,,,,l,1,0.999,"[""0.145"",""0.183"",""0.570"",""0.913""]","[1,1,1,0]",0,27,27,27,1,1,1,,,1,FALSE,,,,,,,,,,,,,,,,,,,,,,,,,,,,,,
,60c1af47168896c09e814ace,001,2022-04-28_20h06.30.675,classification_task,2021.2.3,Win32,60.0240096,60c1af47168896c09e814ace,626b377229c10585ec392f89,626b39fcc83467ede37ada56,,,,,,,,,,,,,,,,,,,,,,,l,1,0.806,"[""0.040"",""0.913"",""0.469"",""0.717""]","[1,0,1,1]",0,28,28,28,1,1,0,,,1,FALSE,,,,,,,,,,,,,,,,,,,,,,,,,,,,,,
,60c1af47168896c09e814ace,001,2022-04-28_20h06.30.675,classification_task,2021.2.3,Win32,60.0240096,60c1af47168896c09e814ace,626b377229c10585ec392f89,626b39fcc83467ede37ada56,,,,,,,,,,,,,,,,,,,,,,,a,1,0.783,"[""0.228"",""0.342"",""0.912"",""0.861""]","[1,1,0,1]",0,29,29,29,1,0,0,,,1,FALSE,,,,,,,,,,,,,,,,,,,,,,,,,,,,,,
,60c1af47168896c09e814ace,001,2022-04-28_20h06.30.675,classification_task,2021.2.3,Win32,60.0240096,60c1af47168896c09e814ace,626b377229c10585ec392f89,626b39fcc83467ede37ada56,,,,,,,,,,,,,,,,,,,,,,,a,1,0.83,"[""0.271"",""0.421"",""0.637"",""0.913""]","[1,1,1,0]",0,30,30,30,1,0,1,,,1,FALSE,,,,,,,,,,,,,,,,,,,,,,,,,,,,,,
,60c1af47168896c09e814ace,001,2022-04-28_20h06.30.675,classification_task,2021.2.3,Win32,60.0240096,60c1af47168896c09e814ace,626b377229c10585ec392f89,626b39fcc83467ede37ada56,,,,,,,,,,,,,,,,,,,,,,,a,1,1.365,"[""0.905"",""0.421"",""0.637"",""0.960""]","[0,1,1,1]",0,31,31,31,1,0,1,,,1,FALSE,,,,,,,,,,,,,,,,,,,,,,,,,,,,,,
,60c1af47168896c09e814ace,001,2022-04-28_20h06.30.675,classification_task,2021.2.3,Win32,60.0240096,60c1af47168896c09e814ace,626b377229c10585ec392f89,626b39fcc83467ede37ada56,,,,,,,,,,,,,,,,,,,,,,,a,1,0.966,"[""0.271"",""0.421"",""0.913"",""0.960""]","[1,1,0,1]",0,32,32,32,1,0,1,,,1,FALSE,,,,,,,,,,,,,,,,,,,,,,,,,,,,,,
,60c1af47168896c09e814ace,001,2022-04-28_20h06.30.675,classification_task,2021.2.3,Win32,60.0240096,60c1af47168896c09e814ace,626b377229c10585ec392f89,626b39fcc83467ede37ada56,,,,,,,,,,,,,,,,,,,,,,,a,1,0.917,"[""0.228"",""0.342"",""0.305"",""0.861""]","[1,1,0,1]",0,33,33,33,1,0,0,,,1,FALSE,,,,,,,,,,,,,,,,,,,,,,,,,,,,,,
,60c1af47168896c09e814ace,001,2022-04-28_20h06.30.675,classification_task,2021.2.3,Win32,60.0240096,60c1af47168896c09e814ace,626b377229c10585ec392f89,626b39fcc83467ede37ada56,,,,,,,,,,,,,,,,,,,,,,,a,1,0.808,"[""0.228"",""0.900"",""0.818"",""0.861""]","[1,0,1,1]",0,34,34,34,1,0,0,,,1,FALSE,,,,,,,,,,,,,,,,,,,,,,,,,,,,,,
,60c1af47168896c09e814ace,001,2022-04-28_20h06.30.675,classification_task,2021.2.3,Win32,60.0240096,60c1af47168896c09e814ace,626b377229c10585ec392f89,626b39fcc83467ede37ada56,,,,,,,,,,,,,,,,,,,,,,,l,1,1.104,"[""0.145"",""0.183"",""0.673"",""0.751""]","[1,1,0,1]",0,35,35,35,1,1,1,,,1,FALSE,,,,,,,,,,,,,,,,,,,,,,,,,,,,,,
,60c1af47168896c09e814ace,001,2022-04-28_20h06.30.675,classification_task,2021.2.3,Win32,60.0240096,60c1af47168896c09e814ace,626b377229c10585ec392f89,626b39fcc83467ede37ada56,,,,,,,,,,,,,,,,,,,,,,,l,1,1.451,"[""0.305"",""0.183"",""0.570"",""0.751""]","[0,1,1,1]",0,36,36,36,1,1,1,,,1,FALSE,,,,,,,,,,,,,,,,,,,,,,,,,,,,,,
,60c1af47168896c09e814ace,001,2022-04-28_20h06.30.675,classification_task,2021.2.3,Win32,60.0240096,60c1af47168896c09e814ace,626b377229c10585ec392f89,626b39fcc83467ede37ada56,,,,,,,,,,,,,,,,,,,,,,,a,1,0.918,"[""0.924"",""0.342"",""0.818"",""0.861""]","[0,1,1,1]",0,37,37,37,1,0,0,,,1,FALSE,,,,,,,,,,,,,,,,,,,,,,,,,,,,,,
,60c1af47168896c09e814ace,001,2022-04-28_20h06.30.675,classification_task,2021.2.3,Win32,60.0240096,60c1af47168896c09e814ace,626b377229c10585ec392f89,626b39fcc83467ede37ada56,,,,,,,,,,,,,,,,,,,,,,,l,1,1.381,"[""0.040"",""0.510"",""0.469"",""0.717""]","[1,0,1,1]",0,38,38,38,1,1,0,,,1,FALSE,,,,,,,,,,,,,,,,,,,,,,,,,,,,,,
,60c1af47168896c09e814ace,001,2022-04-28_20h06.30.675,classification_task,2021.2.3,Win32,60.0240096,60c1af47168896c09e814ace,626b377229c10585ec392f89,626b39fcc83467ede37ada56,,,,,,,,,,,,,,,,,,,,,,,l,1,0.794,"[""0.145"",""0.536"",""0.570"",""0.751""]","[1,0,1,1]",0,39,39,39,1,1,1,,,1,FALSE,,,,,,,,,,,,,,,,,,,,,,,,,,,,,,
,60c1af47168896c09e814ace,001,2022-04-28_20h06.30.675,classification_task,2021.2.3,Win32,60.0240096,60c1af47168896c09e814ace,626b377229c10585ec392f89,626b39fcc83467ede37ada56,,,,,,,,,,,,,,,,,,,,,,,l,0,3.307,"[""0.385"",""0.421"",""0.637"",""0.960""]","[0,1,1,1]",0,40,40,40,1,0,1,,,1,FALSE,,,,,,,,,,,,,,,,,,,,,,,,,,,,,,
,60c1af47168896c09e814ace,001,2022-04-28_20h06.30.675,classification_task,2021.2.3,Win32,60.0240096,60c1af47168896c09e814ace,626b377229c10585ec392f89,626b39fcc83467ede37ada56,,,,,,,,,,,,,,,,,,,,,,,a,1,1.174,"[""0.271"",""0.421"",""0.637"",""0.529""]","[1,1,1,0]",0,41,41,41,1,0,1,,,1,FALSE,,,,,,,,,,,,,,,,,,,,,,,,,,,,,,
,60c1af47168896c09e814ace,001,2022-04-28_20h06.30.675,classification_task,2021.2.3,Win32,60.0240096,60c1af47168896c09e814ace,626b377229c10585ec392f89,626b39fcc83467ede37ada56,,,,,,,,,,,,,,,,,,,,,,,l,1,0.851,"[""0.040"",""0.093"",""0.469"",""0.912""]","[1,1,1,0]",0,42,42,42,1,1,0,,,1,FALSE,,,,,,,,,,,,,,,,,,,,,,,,,,,,,,
,60c1af47168896c09e814ace,001,2022-04-28_20h06.30.675,classification_task,2021.2.3,Win32,60.0240096,60c1af47168896c09e814ace,626b377229c10585ec392f89,626b39fcc83467ede37ada56,,,,,,,,,,,,,,,,,,,,,,,a,1,0.92,"[""0.271"",""0.529"",""0.637"",""0.960""]","[1,0,1,1]",0,43,43,43,1,0,1,,,1,FALSE,,,,,,,,,,,,,,,,,,,,,,,,,,,,,,
,60c1af47168896c09e814ace,001,2022-04-28_20h06.30.675,classification_task,2021.2.3,Win32,60.0240096,60c1af47168896c09e814ace,626b377229c10585ec392f89,626b39fcc83467ede37ada56,,,,,,,,,,,,,,,,,,,,,,,l,1,0.785,"[""0.510"",""0.093"",""0.469"",""0.717""]","[0,1,1,1]",0,44,44,44,1,1,0,,,1,FALSE,,,,,,,,,,,,,,,,,,,,,,,,,,,,,,
,60c1af47168896c09e814ace,001,2022-04-28_20h06.30.675,classification_task,2021.2.3,Win32,60.0240096,60c1af47168896c09e814ace,626b377229c10585ec392f89,626b39fcc83467ede37ada56,,,,,,,,,,,,,,,,,,,,,,,l,1,0.735,"[""0.040"",""0.093"",""0.510"",""0.717""]","[1,1,0,1]",0,45,45,45,1,1,0,,,1,FALSE,,,,,,,,,,,,,,,,,,,,,,,,,,,,,,
,60c1af47168896c09e814ace,001,2022-04-28_20h06.30.675,classification_task,2021.2.3,Win32,60.0240096,60c1af47168896c09e814ace,626b377229c10585ec392f89,626b39fcc83467ede37ada56,,,,,,,,,,,,,,,,,,,,,,,l,1,1.028,"[""0.145"",""0.183"",""0.570"",""0.510""]","[1,1,1,0]",0,46,46,46,1,1,1,,,1,FALSE,,,,,,,,,,,,,,,,,,,,,,,,,,,,,,
,60c1af47168896c09e814ace,001,2022-04-28_20h06.30.675,classification_task,2021.2.3,Win32,60.0240096,60c1af47168896c09e814ace,626b377229c10585ec392f89,626b39fcc83467ede37ada56,,,,,,,,,,,,,,,,,,,,,,,a,1,0.828,"[""0.228"",""0.342"",""0.818"",""0.385""]","[1,1,1,0]",0,47,47,47,1,0,0,,,1,FALSE,,,,,,,,,,,,,,,,,,,,,,,,,,,,,,
,60c1af47168896c09e814ace,001,2022-04-28_20h06.30.675,classification_task,2021.2.3,Win32,60.0240096,60c1af47168896c09e814ace,626b377229c10585ec392f89,626b39fcc83467ede37ada56,,,,,,,,,,,,,,,,,,,,,,,a,1,0.852,"[""0.271"",""0.912"",""0.637"",""0.960""]","[1,0,1,1]",0,48,48,48,1,0,1,,,1,FALSE,,,,,,,,,,,,,,,,,,,,,,,,,,,,,,
,60c1af47168896c09e814ace,001,2022-04-28_20h06.30.675,classification_task,2021.2.3,Win32,60.0240096,60c1af47168896c09e814ace,626b377229c10585ec392f89,626b39fcc83467ede37ada56,,,,,,,,,,,,,,,,,,,,,,,l,1,0.69,"[""0.040"",""0.093"",""0.305"",""0.717""]","[1,1,0,1]",0,49,49,49,1,1,0,,,1,FALSE,,,,,,,,,,,,,,,,,,,,,,,,,,,,,,
,60c1af47168896c09e814ace,001,2022-04-28_20h06.30.675,classification_task,2021.2.3,Win32,60.0240096,60c1af47168896c09e814ace,626b377229c10585ec392f89,626b39fcc83467ede37ada56,,,,,,,,,,,,,,,,,,,,,,,l,1,0.726,"[""0.145"",""0.183"",""0.529"",""0.751""]","[1,1,0,1]",0,50,50,50,1,1,1,,,1,FALSE,,,,,,,,,,,,,,,,,,,,,,,,,,,,,,
,60c1af47168896c09e814ace,001,2022-04-28_20h06.30.675,classification_task,2021.2.3,Win32,60.0240096,60c1af47168896c09e814ace,626b377229c10585ec392f89,626b39fcc83467ede37ada56,,,,,,,,,,,,,,,,,,,,,,,l,1,0.809,"[""0.145"",""0.183"",""0.570"",""0.529""]","[1,1,1,0]",0,51,51,51,1,1,1,,,1,FALSE,,,,,,,,,,,,,,,,,,,,,,,,,,,,,,
,60c1af47168896c09e814ace,001,2022-04-28_20h06.30.675,classification_task,2021.2.3,Win32,60.0240096,60c1af47168896c09e814ace,626b377229c10585ec392f89,626b39fcc83467ede37ada56,,,,,,,,,,,,,,,,,,,,,,,l,1,0.776,"[""0.510"",""0.093"",""0.469"",""0.717""]","[0,1,1,1]",0,52,52,52,1,1,0,,,1,FALSE,,,,,,,,,,,,,,,,,,,,,,,,,,,,,,
,60c1af47168896c09e814ace,001,2022-04-28_20h06.30.675,classification_task,2021.2.3,Win32,60.0240096,60c1af47168896c09e814ace,626b377229c10585ec392f89,626b39fcc83467ede37ada56,,,,,,,,,,,,,,,,,,,,,,,a,1,5.009,"[""0.529"",""0.421"",""0.637"",""0.960""]","[0,1,1,1]",0,53,53,53,1,0,1,,,1,FALSE,,,,,,,,,,,,,,,,,,,,,,,,,,,,,,
,60c1af47168896c09e814ace,001,2022-04-28_20h06.30.675,classification_task,2021.2.3,Win32,60.0240096,60c1af47168896c09e814ace,626b377229c10585ec392f89,626b39fcc83467ede37ada56,,,,,,,,,,,,,,,,,,,,,,,l,1,0.774,"[""0.040"",""0.093"",""0.469"",""0.913""]","[1,1,1,0]",0,54,54,54,1,1,0,,,1,FALSE,,,,,,,,,,,,,,,,,,,,,,,,,,,,,,
,60c1af47168896c09e814ace,001,2022-04-28_20h06.30.675,classification_task,2021.2.3,Win32,60.0240096,60c1af47168896c09e814ace,626b377229c10585ec392f89,626b39fcc83467ede37ada56,,,,,,,,,,,,,,,,,,,,,,,a,1,0.835,"[""0.228"",""0.342"",""0.818"",""0.913""]","[1,1,1,0]",0,55,55,55,1,0,0,,,1,FALSE,,,,,,,,,,,,,,,,,,,,,,,,,,,,,,
,60c1af47168896c09e814ace,001,2022-04-28_20h06.30.675,classification_task,2021.2.3,Win32,60.0240096,60c1af47168896c09e814ace,626b377229c10585ec392f89,626b39fcc83467ede37ada56,,,,,,,,,,,,,,,,,,,,,,,a,1,0.654,"[""0.228"",""0.342"",""0.673"",""0.861""]","[1,1,0,1]",0,56,56,56,1,0,0,,,1,FALSE,,,,,,,,,,,,,,,,,,,,,,,,,,,,,,
,60c1af47168896c09e814ace,001,2022-04-28_20h06.30.675,classification_task,2021.2.3,Win32,60.0240096,60c1af47168896c09e814ace,626b377229c10585ec392f89,626b39fcc83467ede37ada56,,,,,,,,,,,,,,,,,,,,,,,l,1,0.753,"[""0.040"",""0.510"",""0.469"",""0.717""]","[1,0,1,1]",0,57,57,57,1,1,0,,,1,FALSE,,,,,,,,,,,,,,,,,,,,,,,,,,,,,,
,60c1af47168896c09e814ace,001,2022-04-28_20h06.30.675,classification_task,2021.2.3,Win32,60.0240096,60c1af47168896c09e814ace,626b377229c10585ec392f89,626b39fcc83467ede37ada56,,,,,,,,,,,,,,,,,,,,,,,l,1,1.244,"[""0.305"",""0.183"",""0.570"",""0.751""]","[0,1,1,1]",0,58,58,58,1,1,1,,,1,FALSE,,,,,,,,,,,,,,,,,,,,,,,,,,,,,,
,60c1af47168896c09e814ace,001,2022-04-28_20h06.30.675,classification_task,2021.2.3,Win32,60.0240096,60c1af47168896c09e814ace,626b377229c10585ec392f89,626b39fcc83467ede37ada56,,,,,,,,,,,,,,,,,,,,,,,a,1,0.938,"[""0.228"",""0.913"",""0.818"",""0.861""]","[1,0,1,1]",0,59,59,59,1,0,0,,,1,FALSE,,,,,,,,,,,,,,,,,,,,,,,,,,,,,,
,60c1af47168896c09e814ace,001,2022-04-28_20h06.30.675,classification_task,2021.2.3,Win32,60.0240096,60c1af47168896c09e814ace,626b377229c10585ec392f89,626b39fcc83467ede37ada56,,,,,,,,,,,,,,,,,,,,,,,a,1,1.236,"[""0.271"",""0.421"",""0.637"",""0.305""]","[1,1,1,0]",0,60,60,60,1,0,1,,,1,FALSE,,,,,,,,,,,,,,,,,,,,,,,,,,,,,,
,60c1af47168896c09e814ace,001,2022-04-28_20h06.30.675,classification_task,2021.2.3,Win32,60.0240096,60c1af47168896c09e814ace,626b377229c10585ec392f89,626b39fcc83467ede37ada56,,,,,,,,,,,,,,,,,,,,,,,a,1,0.717,"[""0.271"",""0.421"",""0.510"",""0.960""]","[1,1,0,1]",0,61,61,61,1,0,1,,,1,FALSE,,,,,,,,,,,,,,,,,,,,,,,,,,,,,,
,60c1af47168896c09e814ace,001,2022-04-28_20h06.30.675,classification_task,2021.2.3,Win32,60.0240096,60c1af47168896c09e814ace,626b377229c10585ec392f89,626b39fcc83467ede37ada56,,,,,,,,,,,,,,,,,,,,,,,l,1,0.885,"[""0.145"",""0.923"",""0.570"",""0.751""]","[1,0,1,1]",0,62,62,62,1,1,1,,,1,FALSE,,,,,,,,,,,,,,,,,,,,,,,,,,,,,,
,60c1af47168896c09e814ace,001,2022-04-28_20h06.30.675,classification_task,2021.2.3,Win32,60.0240096,60c1af47168896c09e814ace,626b377229c10585ec392f89,626b39fcc83467ede37ada56,,,,,,,,,,,,,,,,,,,,,,,a,1,1.017,"[""0.385"",""0.342"",""0.818"",""0.861""]","[0,1,1,1]",0,63,63,63,1,0,0,,,1,FALSE,,,,,,,,,,,,,,,,,,,,,,,,,,,,,,
,60c1af47168896c09e814ace,001,2022-04-28_20h06.30.675,classification_task,2021.2.3,Win32,60.0240096,60c1af47168896c09e814ace,626b377229c10585ec392f89,626b39fcc83467ede37ada56,,,,,,,,,,,,,,,,,,,,,,,,,,,,,,,,,,,,,,,0, ,,0,7.292768959,144.413,0,2,2,2,1,2,3,,,,,,,,,,,,,,,,,
,60c1af47168896c09e814ace,001,2022-04-28_20h06.30.675,classification_task,2021.2.3,Win32,60.0240096,60c1af47168896c09e814ace,626b377229c10585ec392f89,626b39fcc83467ede37ada56,,,,,,,,,,,,,,,,,,,,,,,,,,,,,,,,,,,,,,,1,  ,,0,0.485008818,145.747,0,2,2,2,1,2,3,,,,,,,,,,,,,,,,,
,60c1af47168896c09e814ace,001,2022-04-28_20h06.30.675,classification_task,2021.2.3,Win32,60.0240096,60c1af47168896c09e814ace,626b377229c10585ec392f89,626b39fcc83467ede37ada56,,,,,,,,,,,,,,,,,,,,,,,,,,,,,,,,,,,,,,,2,  ,,0,0.590828924,146.861,0,2,2,2,1,2,3,,,,,,,,,,,,,,,,,
,60c1af47168896c09e814ace,001,2022-04-28_20h06.30.675,classification_task,2021.2.3,Win32,60.0240096,60c1af47168896c09e814ace,626b377229c10585ec392f89,626b39fcc83467ede37ada56,,,,,,,,,,,,,,,,,,,,,,,,,,,,,,,,,,,,,,,,,,,,,0,2,2,2,1,,3,,,,,,,,,,,,,,,,,
,60c1af47168896c09e814ace,001,2022-04-28_20h06.30.675,classification_task,2021.2.3,Win32,60.0240096,60c1af47168896c09e814ace,626b377229c10585ec392f89,626b39fcc83467ede37ada56,,,,,,,,,,,,,,,,,,,,,,,,,,,,,,,,,,,,,,,,,,,,,,,,,,,,,I believe the aid is a competent performer,,0.7,0,5,681.486,0,0,0,0,1,0,,,,
,60c1af47168896c09e814ace,001,2022-04-28_20h06.30.675,classification_task,2021.2.3,Win32,60.0240096,60c1af47168896c09e814ace,626b377229c10585ec392f89,626b39fcc83467ede37ada56,,,,,,,,,,,,,,,,,,,,,,,,,,,,,,,,,,,,,,,,,,,,,,,,,,,,,I trust the aid,,0.7,0,5,674.792,0,0,0,0,1,0,,,,
,60c1af47168896c09e814ace,001,2022-04-28_20h06.30.675,classification_task,2021.2.3,Win32,60.0240096,60c1af47168896c09e814ace,626b377229c10585ec392f89,626b39fcc83467ede37ada56,,,,,,,,,,,,,,,,,,,,,,,,,,,,,,,,,,,,,,,,,,,,,,,,,,,,,I have confidence in the advice given by the aid,,0.7,0,5,676.581,0,0,0,0,1,0,,,,
,60c1af47168896c09e814ace,001,2022-04-28_20h06.30.675,classification_task,2021.2.3,Win32,60.0240096,60c1af47168896c09e814ace,626b377229c10585ec392f89,626b39fcc83467ede37ada56,,,,,,,,,,,,,,,,,,,,,,,,,,,,,,,,,,,,,,,,,,,,,,,,,,,,,I can depend on the aid,,0.7,0,5,677.679,0,0,0,0,1,0,,,,
,60c1af47168896c09e814ace,001,2022-04-28_20h06.30.675,classification_task,2021.2.3,Win32,60.0240096,60c1af47168896c09e814ace,626b377229c10585ec392f89,626b39fcc83467ede37ada56,,,,,,,,,,,,,,,,,,,,,,,,,,,,,,,,,,,,,,,,,,,,,,,,,,,,,I can rely on the aid to behave in consistent ways,,0.7,0,5,678.68,0,0,0,0,1,0,,,,
,60c1af47168896c09e814ace,001,2022-04-28_20h06.30.675,classification_task,2021.2.3,Win32,60.0240096,60c1af47168896c09e814ace,626b377229c10585ec392f89,626b39fcc83467ede37ada56,,,,,,,,,,,,,,,,,,,,,,,,,,,,,,,,,,,,,,,,,,,,,,,,,,,,,I can rely on the aid to do its best every time I take its advice,,0.7,0,5,679.998,0,0,0,0,1,0,,,,
,60c1af47168896c09e814ace,001,2022-04-28_20h06.30.675,classification_task,2021.2.3,Win32,60.0240096,60c1af47168896c09e814ace,626b377229c10585ec392f89,626b39fcc83467ede37ada56,,,,,,,,,,,,,,,,,,,,,,,,,,,,,,,,,,,,,,,,,,,,,,,,,,,,,"On trials you completed with assistance from the aid, how frequently did you think the aid was correct?",,0.7,0,100%,,0,0,0,0,1,0,,,,
,60c1af47168896c09e814ace,001,2022-04-28_20h06.30.675,classification_task,2021.2.3,Win32,60.0240096,60c1af47168896c09e814ace,626b377229c10585ec392f89,626b39fcc83467ede37ada56,,,,,,,,,,,,,,,,,,,,,,,,,,,,,,,,,,,,,,,,,,,,,,,,,,,,,"On trials you completed without the aid, how frequently did you think you were correct?",,0.7,0,95%,,0,0,0,0,1,0,,,,
,60c1af47168896c09e814ace,001,2022-04-28_20h06.30.675,classification_task,2021.2.3,Win32,60.0240096,60c1af47168896c09e814ace,626b377229c10585ec392f89,626b39fcc83467ede37ada56,,,,,,,,,,,,,,,,,,,,,,,,,,,,,,,,,,,,,,,,,,,,,,,,,,,,,,,,,,,0,0,0,0,1,,,,,
,60c1af47168896c09e814ace,001,2022-04-28_20h06.30.675,classification_task,2021.2.3,Win32,60.0240096,60c1af47168896c09e814ace,626b377229c10585ec392f89,626b39fcc83467ede37ada56,,,,,,,,,,,,,,,,,,,,,,,,,,,,,,,,,,,,,,,,,,,,,,,,,,,,,,,,,,,,,,,,,space,6.802,702.471,
,60c1af47168896c09e814ace,001,2022-04-28_20h06.30.675,classification_task,2021.2.3,Win32,60.0240096,60c1af47168896c09e814ace,626b377229c10585ec392f89,626b39fcc83467ede37ada56,,,,,,,,,,,,,,,,,,,,,,,,,,,,,,,,,,,,,,,,,,,,,,,,,,,,,,,,,,,,,,,,,,,,Mozilla/5.0 (Windows NT 10.0; Win64; x64; rv:99.0) Gecko/20100101 Firefox/99.0
