usingWebGL,participant,session,date,expName,psychopyVersion,OS,frameRate,PROLIFIC_PID,STUDY_ID,SESSION_ID,signatures_friend,signatures_foe,band_ranges_top,band_ranges_bottom,formitemText,formtype,formundefined,formitemWidth,formindex,formresponse,formrt,key_resp_2.keys,key_resp_2.rt,tute_resp.keys,tute_resp.rt,tutorial.thisRepN,tutorial.thisTrialN,tutorial.thisN,tutorial.thisIndex,tutorial.ran,key_resp_4.keys,key_resp_4.rt,key_resp.keys,key_resp.corr,lines_presented,is_signal_presented,trials.thisRepN,trials.thisTrialN,trials.thisN,trials.thisIndex,trials.ran,vessel,active_band,lines,is_signal,supported_pos,catch_trial,key_resp.rt,debrief_formindex,debrief_formitemText,debrief_formtype,debrief_formitemWidth,debrief_formresponse,debrief_formrt,phases.thisRepN,phases.thisTrialN,phases.thisN,phases.thisIndex,phases.ran,phases.order,phase,key_resp_3.keys,trustitemText,trusttype,trustitemWidth,trustindex,trustresponse,trustrt,support_status.thisRepN,support_status.thisTrialN,support_status.thisN,support_status.thisIndex,support_status.ran,support_status.order,key_resp_5.keys,key_resp_5.rt,globalClockTime,userAgent
TRUE,60c60b19111ea4820fe36b4e,001,2022-04-29_03h11.11.605,classification_task,2021.2.3,Win32,60.07088364,60c60b19111ea4820fe36b4e,626b377229c10585ec392f89,626b3b10149194e4afdce1c7,,,,,,,,,,,,,,,,,,,,,,,,,,,,,,,,,,,,,,,,,,,,,,,,,,,,,,,,,,,,,,,,,,,,
,60c60b19111ea4820fe36b4e,001,2022-04-29_03h11.11.605,classification_task,2021.2.3,Win32,60.07088364,60c60b19111ea4820fe36b4e,626b377229c10585ec392f89,626b3b10149194e4afdce1c7,"[[""0.274"",""0.391"",""0.613"",""0.884""],[""0.216"",""0.533"",""0.931"",""0.967""]]","[[""0.107"",""0.350"",""0.579"",""0.841""],[""0.037"",""0.165"",""0.483"",""0.721""]]","[1,10]","[100,1000]",Video game experience,,,0.7,0,,,,,,,,,,,,,,,,,,,,,,,,,,,,,,,,,,,,,,,,,,,,,,,,,,,,,,,,,,,
,60c60b19111ea4820fe36b4e,001,2022-04-29_03h11.11.605,classification_task,2021.2.3,Win32,60.07088364,60c60b19111ea4820fe36b4e,626b377229c10585ec392f89,626b3b10149194e4afdce1c7,,,,,Approximately how many hours did you spend playing video games in the last week?,,,0.7,0,15,,,,,,,,,,,,,,,,,,,,,,,,,,,,,,,,,,,,,,,,,,,,,,,,,,,,,,,,,,
,60c60b19111ea4820fe36b4e,001,2022-04-29_03h11.11.605,classification_task,2021.2.3,Win32,60.07088364,60c60b19111ea4820fe36b4e,626b377229c10585ec392f89,626b3b10149194e4afdce1c7,,,,,"Which game did you play the most this year? (Enter ""None"" if you didn't play any)",,,0.7,0,Far Cry 6,,,,,,,,,,,,,,,,,,,,,,,,,,,,,,,,,,,,,,,,,,,,,,,,,,,,,,,,,,
,60c60b19111ea4820fe36b4e,001,2022-04-29_03h11.11.605,classification_task,2021.2.3,Win32,60.07088364,60c60b19111ea4820fe36b4e,626b377229c10585ec392f89,626b3b10149194e4afdce1c7,,,,,Visual perception,,,0.7,0,,,,,,,,,,,,,,,,,,,,,,,,,,,,,,,,,,,,,,,,,,,,,,,,,,,,,,,,,,,
,60c60b19111ea4820fe36b4e,001,2022-04-29_03h11.11.605,classification_task,2021.2.3,Win32,60.07088364,60c60b19111ea4820fe36b4e,626b377229c10585ec392f89,626b3b10149194e4afdce1c7,,,,,Do you have any form of color blindness?,,,0.7,0,No,52.3603,,,,,,,,,,,,,,,,,,,,,,,,,,,,,,,,,,,,,,,,,,,,,,,,,,,,,,,,,
,60c60b19111ea4820fe36b4e,001,2022-04-29_03h11.11.605,classification_task,2021.2.3,Win32,60.07088364,60c60b19111ea4820fe36b4e,626b377229c10585ec392f89,626b3b10149194e4afdce1c7,,,,,Do you use software to change the colour temperature of your screen (e.g. f.lux)?,,,0.7,0,No,55.8908,,,,,,,,,,,,,,,,,,,,,,,,,,,,,,,,,,,,,,,,,,,,,,,,,,,,,,,,,
,60c60b19111ea4820fe36b4e,001,2022-04-29_03h11.11.605,classification_task,2021.2.3,Win32,60.07088364,60c60b19111ea4820fe36b4e,626b377229c10585ec392f89,626b3b10149194e4afdce1c7,,,,,,,,,,,,space,122.6803,space,8.8352,0,0,0,0,1,,,,,,,,,,,,,,,,,,,,,,,,,,,,,,,,,,,,,,,,,,,,,,,,
,60c60b19111ea4820fe36b4e,001,2022-04-29_03h11.11.605,classification_task,2021.2.3,Win32,60.07088364,60c60b19111ea4820fe36b4e,626b377229c10585ec392f89,626b3b10149194e4afdce1c7,,,,,,,,,,,,,,space,12.0494,1,0,1,0,1,,,,,,,,,,,,,,,,,,,,,,,,,,,,,,,,,,,,,,,,,,,,,,,,
,60c60b19111ea4820fe36b4e,001,2022-04-29_03h11.11.605,classification_task,2021.2.3,Win32,60.07088364,60c60b19111ea4820fe36b4e,626b377229c10585ec392f89,626b3b10149194e4afdce1c7,,,,,,,,,,,,,,space,14.0846,2,0,2,0,1,,,,,,,,,,,,,,,,,,,,,,,,,,,,,,,,,,,,,,,,,,,,,,,,
,60c60b19111ea4820fe36b4e,001,2022-04-29_03h11.11.605,classification_task,2021.2.3,Win32,60.07088364,60c60b19111ea4820fe36b4e,626b377229c10585ec392f89,626b3b10149194e4afdce1c7,,,,,,,,,,,,,,space,24.3322,3,0,3,0,1,,,,,,,,,,,,,,,,,,,,,,,,,,,,,,,,,,,,,,,,,,,,,,,,
,60c60b19111ea4820fe36b4e,001,2022-04-29_03h11.11.605,classification_task,2021.2.3,Win32,60.07088364,60c60b19111ea4820fe36b4e,626b377229c10585ec392f89,626b3b10149194e4afdce1c7,,,,,,,,,,,,,,space,32.2682,4,0,4,0,1,,,,,,,,,,,,,,,,,,,,,,,,,,,,,,,,,,,,,,,,,,,,,,,,
,60c60b19111ea4820fe36b4e,001,2022-04-29_03h11.11.605,classification_task,2021.2.3,Win32,60.07088364,60c60b19111ea4820fe36b4e,626b377229c10585ec392f89,626b3b10149194e4afdce1c7,,,,,,,,,,,,,,,,,,,,,space,16.9384,,0,"[""0.037"",""0.165"",""0.483"",""0.669""]","[1,1,1,0]",0,0,0,0,1,1,1,,,0,FALSE,,,,,,,,,,,,,,,,,,,,,,,,,,,,,,,
,60c60b19111ea4820fe36b4e,001,2022-04-29_03h11.11.605,classification_task,2021.2.3,Win32,60.07088364,60c60b19111ea4820fe36b4e,626b377229c10585ec392f89,626b3b10149194e4afdce1c7,,,,,,,,,,,,,,,,,,,,,,,a,1,"[""0.274"",""0.391"",""0.613"",""0.770""]","[1,1,1,0]",0,1,1,1,1,0,0,,,0,FALSE,2.4266,,,,,,,,,,,,,,,,,,,,,,,,,,,,,,
,60c60b19111ea4820fe36b4e,001,2022-04-29_03h11.11.605,classification_task,2021.2.3,Win32,60.07088364,60c60b19111ea4820fe36b4e,626b377229c10585ec392f89,626b3b10149194e4afdce1c7,,,,,,,,,,,,,,,,,,,,,,,a,1,"[""0.426"",""0.533"",""0.931"",""0.967""]","[0,1,1,1]",0,2,2,2,1,0,1,,,0,FALSE,2.6925,,,,,,,,,,,,,,,,,,,,,,,,,,,,,,
,60c60b19111ea4820fe36b4e,001,2022-04-29_03h11.11.605,classification_task,2021.2.3,Win32,60.07088364,60c60b19111ea4820fe36b4e,626b377229c10585ec392f89,626b3b10149194e4afdce1c7,,,,,,,,,,,,,,,,,,,,,,,a,1,"[""0.274"",""0.758"",""0.613"",""0.884""]","[1,0,1,1]",0,3,3,3,1,0,0,,,0,FALSE,2.1003,,,,,,,,,,,,,,,,,,,,,,,,,,,,,,
,60c60b19111ea4820fe36b4e,001,2022-04-29_03h11.11.605,classification_task,2021.2.3,Win32,60.07088364,60c60b19111ea4820fe36b4e,626b377229c10585ec392f89,626b3b10149194e4afdce1c7,,,,,,,,,,,,,,,,,,,,,,,a,0,"[""0.107"",""0.350"",""0.579"",""0.776""]","[1,1,1,0]",0,4,4,4,1,1,0,,,0,FALSE,1.7244,,,,,,,,,,,,,,,,,,,,,,,,,,,,,,
,60c60b19111ea4820fe36b4e,001,2022-04-29_03h11.11.605,classification_task,2021.2.3,Win32,60.07088364,60c60b19111ea4820fe36b4e,626b377229c10585ec392f89,626b3b10149194e4afdce1c7,,,,,,,,,,,,,,,,,,,,,,,a,0,"[""0.770"",""0.165"",""0.483"",""0.721""]","[0,1,1,1]",0,5,5,5,1,1,1,,,0,FALSE,5.0428,,,,,,,,,,,,,,,,,,,,,,,,,,,,,,
,60c60b19111ea4820fe36b4e,001,2022-04-29_03h11.11.605,classification_task,2021.2.3,Win32,60.07088364,60c60b19111ea4820fe36b4e,626b377229c10585ec392f89,626b3b10149194e4afdce1c7,,,,,,,,,,,,,,,,,,,,,,,l,0,"[""0.216"",""0.533"",""0.931"",""0.669""]","[1,1,1,0]",0,6,6,6,1,0,1,,,0,FALSE,2.4433,,,,,,,,,,,,,,,,,,,,,,,,,,,,,,
,60c60b19111ea4820fe36b4e,001,2022-04-29_03h11.11.605,classification_task,2021.2.3,Win32,60.07088364,60c60b19111ea4820fe36b4e,626b377229c10585ec392f89,626b3b10149194e4afdce1c7,,,,,,,,,,,,,,,,,,,,,,,a,0,"[""0.037"",""0.770"",""0.483"",""0.721""]","[1,0,1,1]",0,7,7,7,1,1,1,,,0,FALSE,2.1094,,,,,,,,,,,,,,,,,,,,,,,,,,,,,,
,60c60b19111ea4820fe36b4e,001,2022-04-29_03h11.11.605,classification_task,2021.2.3,Win32,60.07088364,60c60b19111ea4820fe36b4e,626b377229c10585ec392f89,626b3b10149194e4afdce1c7,,,,,,,,,,,,,,,,,,,,,,,l,0,"[""0.216"",""0.533"",""0.313"",""0.967""]","[1,1,0,1]",0,8,8,8,1,0,1,,,0,FALSE,1.8605,,,,,,,,,,,,,,,,,,,,,,,,,,,,,,
,60c60b19111ea4820fe36b4e,001,2022-04-29_03h11.11.605,classification_task,2021.2.3,Win32,60.07088364,60c60b19111ea4820fe36b4e,626b377229c10585ec392f89,626b3b10149194e4afdce1c7,,,,,,,,,,,,,,,,,,,,,,,a,0,"[""0.107"",""0.350"",""0.678"",""0.841""]","[1,1,0,1]",0,9,9,9,1,1,0,,,0,FALSE,2.9602,,,,,,,,,,,,,,,,,,,,,,,,,,,,,,
,60c60b19111ea4820fe36b4e,001,2022-04-29_03h11.11.605,classification_task,2021.2.3,Win32,60.07088364,60c60b19111ea4820fe36b4e,626b377229c10585ec392f89,626b3b10149194e4afdce1c7,,,,,,,,,,,,,,,,,,,,,,,a,0,"[""0.037"",""0.165"",""0.678"",""0.721""]","[1,1,0,1]",0,10,10,10,1,1,1,,,0,FALSE,3.51,,,,,,,,,,,,,,,,,,,,,,,,,,,,,,
,60c60b19111ea4820fe36b4e,001,2022-04-29_03h11.11.605,classification_task,2021.2.3,Win32,60.07088364,60c60b19111ea4820fe36b4e,626b377229c10585ec392f89,626b3b10149194e4afdce1c7,,,,,,,,,,,,,,,,,,,,,,,l,1,"[""0.758"",""0.350"",""0.579"",""0.841""]","[0,1,1,1]",0,11,11,11,1,1,0,,,0,FALSE,1.7076,,,,,,,,,,,,,,,,,,,,,,,,,,,,,,
,60c60b19111ea4820fe36b4e,001,2022-04-29_03h11.11.605,classification_task,2021.2.3,Win32,60.07088364,60c60b19111ea4820fe36b4e,626b377229c10585ec392f89,626b3b10149194e4afdce1c7,,,,,,,,,,,,,,,,,,,,,,,a,1,"[""0.216"",""0.794"",""0.931"",""0.967""]","[1,0,1,1]",0,12,12,12,1,0,1,,,0,FALSE,1.7915,,,,,,,,,,,,,,,,,,,,,,,,,,,,,,
,60c60b19111ea4820fe36b4e,001,2022-04-29_03h11.11.605,classification_task,2021.2.3,Win32,60.07088364,60c60b19111ea4820fe36b4e,626b377229c10585ec392f89,626b3b10149194e4afdce1c7,,,,,,,,,,,,,,,,,,,,,,,a,1,"[""0.274"",""0.391"",""0.770"",""0.884""]","[1,1,0,1]",0,13,13,13,1,0,0,,,0,FALSE,3.8557,,,,,,,,,,,,,,,,,,,,,,,,,,,,,,
,60c60b19111ea4820fe36b4e,001,2022-04-29_03h11.11.605,classification_task,2021.2.3,Win32,60.07088364,60c60b19111ea4820fe36b4e,626b377229c10585ec392f89,626b3b10149194e4afdce1c7,,,,,,,,,,,,,,,,,,,,,,,a,1,"[""0.678"",""0.391"",""0.613"",""0.884""]","[0,1,1,1]",0,14,14,14,1,0,0,,,0,FALSE,1.8111,,,,,,,,,,,,,,,,,,,,,,,,,,,,,,
,60c60b19111ea4820fe36b4e,001,2022-04-29_03h11.11.605,classification_task,2021.2.3,Win32,60.07088364,60c60b19111ea4820fe36b4e,626b377229c10585ec392f89,626b3b10149194e4afdce1c7,,,,,,,,,,,,,,,,,,,,,,,a,0,"[""0.107"",""0.794"",""0.579"",""0.841""]","[1,0,1,1]",0,15,15,15,1,1,0,,,0,FALSE,1.3935,,,,,,,,,,,,,,,,,,,,,,,,,,,,,,
,60c60b19111ea4820fe36b4e,001,2022-04-29_03h11.11.605,classification_task,2021.2.3,Win32,60.07088364,60c60b19111ea4820fe36b4e,626b377229c10585ec392f89,626b3b10149194e4afdce1c7,,,,,,,,,,,,,,,,,,,,,,,l,0,"[""0.757"",""0.391"",""0.613"",""0.884""]","[0,1,1,1]",0,16,16,16,1,0,0,,,0,FALSE,1.0283,,,,,,,,,,,,,,,,,,,,,,,,,,,,,,
,60c60b19111ea4820fe36b4e,001,2022-04-29_03h11.11.605,classification_task,2021.2.3,Win32,60.07088364,60c60b19111ea4820fe36b4e,626b377229c10585ec392f89,626b3b10149194e4afdce1c7,,,,,,,,,,,,,,,,,,,,,,,l,0,"[""0.216"",""0.794"",""0.931"",""0.967""]","[1,0,1,1]",0,17,17,17,1,0,1,,,0,FALSE,3.6568,,,,,,,,,,,,,,,,,,,,,,,,,,,,,,
,60c60b19111ea4820fe36b4e,001,2022-04-29_03h11.11.605,classification_task,2021.2.3,Win32,60.07088364,60c60b19111ea4820fe36b4e,626b377229c10585ec392f89,626b3b10149194e4afdce1c7,,,,,,,,,,,,,,,,,,,,,,,a,1,"[""0.274"",""0.391"",""0.613"",""0.683""]","[1,1,1,0]",0,18,18,18,1,0,0,,,0,FALSE,1.957,,,,,,,,,,,,,,,,,,,,,,,,,,,,,,
,60c60b19111ea4820fe36b4e,001,2022-04-29_03h11.11.605,classification_task,2021.2.3,Win32,60.07088364,60c60b19111ea4820fe36b4e,626b377229c10585ec392f89,626b3b10149194e4afdce1c7,,,,,,,,,,,,,,,,,,,,,,,a,0,"[""0.770"",""0.350"",""0.579"",""0.841""]","[0,1,1,1]",0,19,19,19,1,1,0,,,0,FALSE,4.8697,,,,,,,,,,,,,,,,,,,,,,,,,,,,,,
,60c60b19111ea4820fe36b4e,001,2022-04-29_03h11.11.605,classification_task,2021.2.3,Win32,60.07088364,60c60b19111ea4820fe36b4e,626b377229c10585ec392f89,626b3b10149194e4afdce1c7,,,,,,,,,,,,,,,,,,,,,,,a,0,"[""0.107"",""0.350"",""0.579"",""0.426""]","[1,1,1,0]",0,20,20,20,1,1,0,,,0,FALSE,3.4896,,,,,,,,,,,,,,,,,,,,,,,,,,,,,,
,60c60b19111ea4820fe36b4e,001,2022-04-29_03h11.11.605,classification_task,2021.2.3,Win32,60.07088364,60c60b19111ea4820fe36b4e,626b377229c10585ec392f89,626b3b10149194e4afdce1c7,,,,,,,,,,,,,,,,,,,,,,,a,1,"[""0.274"",""0.426"",""0.613"",""0.884""]","[1,0,1,1]",0,21,21,21,1,0,0,,,0,FALSE,5.1444,,,,,,,,,,,,,,,,,,,,,,,,,,,,,,
,60c60b19111ea4820fe36b4e,001,2022-04-29_03h11.11.605,classification_task,2021.2.3,Win32,60.07088364,60c60b19111ea4820fe36b4e,626b377229c10585ec392f89,626b3b10149194e4afdce1c7,,,,,,,,,,,,,,,,,,,,,,,l,0,"[""0.216"",""0.533"",""0.931"",""0.794""]","[1,1,1,0]",0,22,22,22,1,0,1,,,0,FALSE,7.4369,,,,,,,,,,,,,,,,,,,,,,,,,,,,,,
,60c60b19111ea4820fe36b4e,001,2022-04-29_03h11.11.605,classification_task,2021.2.3,Win32,60.07088364,60c60b19111ea4820fe36b4e,626b377229c10585ec392f89,626b3b10149194e4afdce1c7,,,,,,,,,,,,,,,,,,,,,,,a,0,"[""0.037"",""0.313"",""0.483"",""0.721""]","[1,0,1,1]",0,23,23,23,1,1,1,,,0,FALSE,8.1071,,,,,,,,,,,,,,,,,,,,,,,,,,,,,,
,60c60b19111ea4820fe36b4e,001,2022-04-29_03h11.11.605,classification_task,2021.2.3,Win32,60.07088364,60c60b19111ea4820fe36b4e,626b377229c10585ec392f89,626b3b10149194e4afdce1c7,,,,,,,,,,,,,,,,,,,,,,,a,1,"[""0.216"",""0.533"",""0.758"",""0.967""]","[1,1,0,1]",0,24,24,24,1,0,1,,,0,FALSE,5.0452,,,,,,,,,,,,,,,,,,,,,,,,,,,,,,
,60c60b19111ea4820fe36b4e,001,2022-04-29_03h11.11.605,classification_task,2021.2.3,Win32,60.07088364,60c60b19111ea4820fe36b4e,626b377229c10585ec392f89,626b3b10149194e4afdce1c7,,,,,,,,,,,,,,,,,,,,,,,l,1,"[""0.037"",""0.165"",""0.483"",""0.316""]","[1,1,1,0]",0,25,25,25,1,1,1,,,0,FALSE,5.5731,,,,,,,,,,,,,,,,,,,,,,,,,,,,,,
,60c60b19111ea4820fe36b4e,001,2022-04-29_03h11.11.605,classification_task,2021.2.3,Win32,60.07088364,60c60b19111ea4820fe36b4e,626b377229c10585ec392f89,626b3b10149194e4afdce1c7,,,,,,,,,,,,,,,,,,,,,,,a,1,"[""0.274"",""0.391"",""0.758"",""0.884""]","[1,1,0,1]",0,26,26,26,1,0,0,,,0,FALSE,5.8151,,,,,,,,,,,,,,,,,,,,,,,,,,,,,,
,60c60b19111ea4820fe36b4e,001,2022-04-29_03h11.11.605,classification_task,2021.2.3,Win32,60.07088364,60c60b19111ea4820fe36b4e,626b377229c10585ec392f89,626b3b10149194e4afdce1c7,,,,,,,,,,,,,,,,,,,,,,,l,1,"[""0.037"",""0.165"",""0.767"",""0.721""]","[1,1,0,1]",0,27,27,27,1,1,1,,,0,FALSE,4.5614,,,,,,,,,,,,,,,,,,,,,,,,,,,,,,
,60c60b19111ea4820fe36b4e,001,2022-04-29_03h11.11.605,classification_task,2021.2.3,Win32,60.07088364,60c60b19111ea4820fe36b4e,626b377229c10585ec392f89,626b3b10149194e4afdce1c7,,,,,,,,,,,,,,,,,,,,,,,l,1,"[""0.107"",""0.350"",""0.426"",""0.841""]","[1,1,0,1]",0,28,28,28,1,1,0,,,0,FALSE,4.2292,,,,,,,,,,,,,,,,,,,,,,,,,,,,,,
,60c60b19111ea4820fe36b4e,001,2022-04-29_03h11.11.605,classification_task,2021.2.3,Win32,60.07088364,60c60b19111ea4820fe36b4e,626b377229c10585ec392f89,626b3b10149194e4afdce1c7,,,,,,,,,,,,,,,,,,,,,,,l,1,"[""0.107"",""0.794"",""0.579"",""0.841""]","[1,0,1,1]",0,29,29,29,1,1,0,,,0,FALSE,3.4105,,,,,,,,,,,,,,,,,,,,,,,,,,,,,,
,60c60b19111ea4820fe36b4e,001,2022-04-29_03h11.11.605,classification_task,2021.2.3,Win32,60.07088364,60c60b19111ea4820fe36b4e,626b377229c10585ec392f89,626b3b10149194e4afdce1c7,,,,,,,,,,,,,,,,,,,,,,,l,1,"[""0.428"",""0.165"",""0.483"",""0.721""]","[0,1,1,1]",0,30,30,30,1,1,1,,,0,FALSE,4.7332,,,,,,,,,,,,,,,,,,,,,,,,,,,,,,
,60c60b19111ea4820fe36b4e,001,2022-04-29_03h11.11.605,classification_task,2021.2.3,Win32,60.07088364,60c60b19111ea4820fe36b4e,626b377229c10585ec392f89,626b3b10149194e4afdce1c7,,,,,,,,,,,,,,,,,,,,,,,a,1,"[""0.673"",""0.533"",""0.931"",""0.967""]","[0,1,1,1]",0,31,31,31,1,0,1,,,0,FALSE,2.833,,,,,,,,,,,,,,,,,,,,,,,,,,,,,,
,60c60b19111ea4820fe36b4e,001,2022-04-29_03h11.11.605,classification_task,2021.2.3,Win32,60.07088364,60c60b19111ea4820fe36b4e,626b377229c10585ec392f89,626b3b10149194e4afdce1c7,,,,,,,,,,,,,,,,,,,,,,,a,0,"[""0.107"",""0.350"",""0.685"",""0.841""]","[1,1,0,1]",0,32,32,32,1,1,0,,,0,FALSE,5.0789,,,,,,,,,,,,,,,,,,,,,,,,,,,,,,
,60c60b19111ea4820fe36b4e,001,2022-04-29_03h11.11.605,classification_task,2021.2.3,Win32,60.07088364,60c60b19111ea4820fe36b4e,626b377229c10585ec392f89,626b3b10149194e4afdce1c7,,,,,,,,,,,,,,,,,,,,,,,l,1,"[""0.037"",""0.776"",""0.483"",""0.721""]","[1,0,1,1]",0,33,33,33,1,1,1,,,0,FALSE,4.0905,,,,,,,,,,,,,,,,,,,,,,,,,,,,,,
,60c60b19111ea4820fe36b4e,001,2022-04-29_03h11.11.605,classification_task,2021.2.3,Win32,60.07088364,60c60b19111ea4820fe36b4e,626b377229c10585ec392f89,626b3b10149194e4afdce1c7,,,,,,,,,,,,,,,,,,,,,,,a,0,"[""0.037"",""0.165"",""0.483"",""0.683""]","[1,1,1,0]",0,34,34,34,1,1,1,,,0,FALSE,1.904,,,,,,,,,,,,,,,,,,,,,,,,,,,,,,
,60c60b19111ea4820fe36b4e,001,2022-04-29_03h11.11.605,classification_task,2021.2.3,Win32,60.07088364,60c60b19111ea4820fe36b4e,626b377229c10585ec392f89,626b3b10149194e4afdce1c7,,,,,,,,,,,,,,,,,,,,,,,a,0,"[""0.107"",""0.426"",""0.579"",""0.841""]","[1,0,1,1]",0,35,35,35,1,1,0,,,0,FALSE,1.8033,,,,,,,,,,,,,,,,,,,,,,,,,,,,,,
,60c60b19111ea4820fe36b4e,001,2022-04-29_03h11.11.605,classification_task,2021.2.3,Win32,60.07088364,60c60b19111ea4820fe36b4e,626b377229c10585ec392f89,626b3b10149194e4afdce1c7,,,,,,,,,,,,,,,,,,,,,,,a,0,"[""0.770"",""0.350"",""0.579"",""0.841""]","[0,1,1,1]",0,36,36,36,1,1,0,,,0,FALSE,4.9542,,,,,,,,,,,,,,,,,,,,,,,,,,,,,,
,60c60b19111ea4820fe36b4e,001,2022-04-29_03h11.11.605,classification_task,2021.2.3,Win32,60.07088364,60c60b19111ea4820fe36b4e,626b377229c10585ec392f89,626b3b10149194e4afdce1c7,,,,,,,,,,,,,,,,,,,,,,,l,0,"[""0.274"",""0.391"",""0.613"",""0.428""]","[1,1,1,0]",0,37,37,37,1,0,0,,,0,FALSE,1.6959,,,,,,,,,,,,,,,,,,,,,,,,,,,,,,
,60c60b19111ea4820fe36b4e,001,2022-04-29_03h11.11.605,classification_task,2021.2.3,Win32,60.07088364,60c60b19111ea4820fe36b4e,626b377229c10585ec392f89,626b3b10149194e4afdce1c7,,,,,,,,,,,,,,,,,,,,,,,a,1,"[""0.274"",""0.391"",""0.428"",""0.884""]","[1,1,0,1]",0,38,38,38,1,0,0,,,0,FALSE,1.42,,,,,,,,,,,,,,,,,,,,,,,,,,,,,,
,60c60b19111ea4820fe36b4e,001,2022-04-29_03h11.11.605,classification_task,2021.2.3,Win32,60.07088364,60c60b19111ea4820fe36b4e,626b377229c10585ec392f89,626b3b10149194e4afdce1c7,,,,,,,,,,,,,,,,,,,,,,,l,0,"[""0.216"",""0.757"",""0.931"",""0.967""]","[1,0,1,1]",0,39,39,39,1,0,1,,,0,FALSE,4.5719,,,,,,,,,,,,,,,,,,,,,,,,,,,,,,
,60c60b19111ea4820fe36b4e,001,2022-04-29_03h11.11.605,classification_task,2021.2.3,Win32,60.07088364,60c60b19111ea4820fe36b4e,626b377229c10585ec392f89,626b3b10149194e4afdce1c7,,,,,,,,,,,,,,,,,,,,,,,a,0,"[""0.037"",""0.165"",""0.436"",""0.721""]","[1,1,0,1]",0,40,40,40,1,1,1,,,0,FALSE,1.3108,,,,,,,,,,,,,,,,,,,,,,,,,,,,,,
,60c60b19111ea4820fe36b4e,001,2022-04-29_03h11.11.605,classification_task,2021.2.3,Win32,60.07088364,60c60b19111ea4820fe36b4e,626b377229c10585ec392f89,626b3b10149194e4afdce1c7,,,,,,,,,,,,,,,,,,,,,,,a,1,"[""0.216"",""0.533"",""0.683"",""0.967""]","[1,1,0,1]",0,41,41,41,1,0,1,,,0,FALSE,1.2694,,,,,,,,,,,,,,,,,,,,,,,,,,,,,,
,60c60b19111ea4820fe36b4e,001,2022-04-29_03h11.11.605,classification_task,2021.2.3,Win32,60.07088364,60c60b19111ea4820fe36b4e,626b377229c10585ec392f89,626b3b10149194e4afdce1c7,,,,,,,,,,,,,,,,,,,,,,,a,1,"[""0.216"",""0.533"",""0.931"",""0.673""]","[1,1,1,0]",0,42,42,42,1,0,1,,,0,FALSE,1.544,,,,,,,,,,,,,,,,,,,,,,,,,,,,,,
,60c60b19111ea4820fe36b4e,001,2022-04-29_03h11.11.605,classification_task,2021.2.3,Win32,60.07088364,60c60b19111ea4820fe36b4e,626b377229c10585ec392f89,626b3b10149194e4afdce1c7,,,,,,,,,,,,,,,,,,,,,,,a,0,"[""0.107"",""0.350"",""0.579"",""0.673""]","[1,1,1,0]",0,43,43,43,1,1,0,,,0,FALSE,1.412,,,,,,,,,,,,,,,,,,,,,,,,,,,,,,
,60c60b19111ea4820fe36b4e,001,2022-04-29_03h11.11.605,classification_task,2021.2.3,Win32,60.07088364,60c60b19111ea4820fe36b4e,626b377229c10585ec392f89,626b3b10149194e4afdce1c7,,,,,,,,,,,,,,,,,,,,,,,l,1,"[""0.776"",""0.165"",""0.483"",""0.721""]","[0,1,1,1]",0,44,44,44,1,1,1,,,0,FALSE,1.2079,,,,,,,,,,,,,,,,,,,,,,,,,,,,,,
,60c60b19111ea4820fe36b4e,001,2022-04-29_03h11.11.605,classification_task,2021.2.3,Win32,60.07088364,60c60b19111ea4820fe36b4e,626b377229c10585ec392f89,626b3b10149194e4afdce1c7,,,,,,,,,,,,,,,,,,,,,,,a,1,"[""0.274"",""0.767"",""0.613"",""0.884""]","[1,0,1,1]",0,45,45,45,1,0,0,,,0,FALSE,1.2103,,,,,,,,,,,,,,,,,,,,,,,,,,,,,,
,60c60b19111ea4820fe36b4e,001,2022-04-29_03h11.11.605,classification_task,2021.2.3,Win32,60.07088364,60c60b19111ea4820fe36b4e,626b377229c10585ec392f89,626b3b10149194e4afdce1c7,,,,,,,,,,,,,,,,,,,,,,,a,1,"[""0.316"",""0.391"",""0.613"",""0.884""]","[0,1,1,1]",0,46,46,46,1,0,0,,,0,FALSE,1.0927,,,,,,,,,,,,,,,,,,,,,,,,,,,,,,
,60c60b19111ea4820fe36b4e,001,2022-04-29_03h11.11.605,classification_task,2021.2.3,Win32,60.07088364,60c60b19111ea4820fe36b4e,626b377229c10585ec392f89,626b3b10149194e4afdce1c7,,,,,,,,,,,,,,,,,,,,,,,l,0,"[""0.794"",""0.533"",""0.931"",""0.967""]","[0,1,1,1]",0,47,47,47,1,0,1,,,0,FALSE,1.2518,,,,,,,,,,,,,,,,,,,,,,,,,,,,,,
,60c60b19111ea4820fe36b4e,001,2022-04-29_03h11.11.605,classification_task,2021.2.3,Win32,60.07088364,60c60b19111ea4820fe36b4e,626b377229c10585ec392f89,626b3b10149194e4afdce1c7,,,,,,,,,,,,,,,,,,,,,,,a,0,"[""0.107"",""0.350"",""0.579"",""0.316""]","[1,1,1,0]",0,48,48,48,1,1,0,,,0,FALSE,0.9898,,,,,,,,,,,,,,,,,,,,,,,,,,,,,,
,60c60b19111ea4820fe36b4e,001,2022-04-29_03h11.11.605,classification_task,2021.2.3,Win32,60.07088364,60c60b19111ea4820fe36b4e,626b377229c10585ec392f89,626b3b10149194e4afdce1c7,,,,,,,,,,,,,,,,,,,,,,,l,0,"[""0.216"",""0.533"",""0.776"",""0.967""]","[1,1,0,1]",0,49,49,49,1,0,1,,,0,FALSE,1.2,,,,,,,,,,,,,,,,,,,,,,,,,,,,,,
,60c60b19111ea4820fe36b4e,001,2022-04-29_03h11.11.605,classification_task,2021.2.3,Win32,60.07088364,60c60b19111ea4820fe36b4e,626b377229c10585ec392f89,626b3b10149194e4afdce1c7,,,,,,,,,,,,,,,,,,,,,,,a,1,"[""0.216"",""0.533"",""0.931"",""0.313""]","[1,1,1,0]",0,50,50,50,1,0,1,,,0,FALSE,0.9246,,,,,,,,,,,,,,,,,,,,,,,,,,,,,,
,60c60b19111ea4820fe36b4e,001,2022-04-29_03h11.11.605,classification_task,2021.2.3,Win32,60.07088364,60c60b19111ea4820fe36b4e,626b377229c10585ec392f89,626b3b10149194e4afdce1c7,,,,,,,,,,,,,,,,,,,,,,,l,0,"[""0.313"",""0.533"",""0.931"",""0.967""]","[0,1,1,1]",0,51,51,51,1,0,1,,,0,FALSE,1.2357,,,,,,,,,,,,,,,,,,,,,,,,,,,,,,
,60c60b19111ea4820fe36b4e,001,2022-04-29_03h11.11.605,classification_task,2021.2.3,Win32,60.07088364,60c60b19111ea4820fe36b4e,626b377229c10585ec392f89,626b3b10149194e4afdce1c7,,,,,,,,,,,,,,,,,,,,,,,a,1,"[""0.274"",""0.391"",""0.613"",""0.316""]","[1,1,1,0]",0,52,52,52,1,0,0,,,0,FALSE,0.8816,,,,,,,,,,,,,,,,,,,,,,,,,,,,,,
,60c60b19111ea4820fe36b4e,001,2022-04-29_03h11.11.605,classification_task,2021.2.3,Win32,60.07088364,60c60b19111ea4820fe36b4e,626b377229c10585ec392f89,626b3b10149194e4afdce1c7,,,,,,,,,,,,,,,,,,,,,,,a,0,"[""0.037"",""0.165"",""0.483"",""0.426""]","[1,1,1,0]",0,53,53,53,1,1,1,,,0,FALSE,1.414,,,,,,,,,,,,,,,,,,,,,,,,,,,,,,
,60c60b19111ea4820fe36b4e,001,2022-04-29_03h11.11.605,classification_task,2021.2.3,Win32,60.07088364,60c60b19111ea4820fe36b4e,626b377229c10585ec392f89,626b3b10149194e4afdce1c7,,,,,,,,,,,,,,,,,,,,,,,l,0,"[""0.274"",""0.767"",""0.613"",""0.884""]","[1,0,1,1]",0,54,54,54,1,0,0,,,0,FALSE,1.1635,,,,,,,,,,,,,,,,,,,,,,,,,,,,,,
,60c60b19111ea4820fe36b4e,001,2022-04-29_03h11.11.605,classification_task,2021.2.3,Win32,60.07088364,60c60b19111ea4820fe36b4e,626b377229c10585ec392f89,626b3b10149194e4afdce1c7,,,,,,,,,,,,,,,,,,,,,,,a,0,"[""0.426"",""0.165"",""0.483"",""0.721""]","[0,1,1,1]",0,55,55,55,1,1,1,,,0,FALSE,0.9604,,,,,,,,,,,,,,,,,,,,,,,,,,,,,,
,60c60b19111ea4820fe36b4e,001,2022-04-29_03h11.11.605,classification_task,2021.2.3,Win32,60.07088364,60c60b19111ea4820fe36b4e,626b377229c10585ec392f89,626b3b10149194e4afdce1c7,,,,,,,,,,,,,,,,,,,,,,,l,1,"[""0.107"",""0.436"",""0.579"",""0.841""]","[1,0,1,1]",0,56,56,56,1,1,0,,,0,FALSE,1.1767,,,,,,,,,,,,,,,,,,,,,,,,,,,,,,
,60c60b19111ea4820fe36b4e,001,2022-04-29_03h11.11.605,classification_task,2021.2.3,Win32,60.07088364,60c60b19111ea4820fe36b4e,626b377229c10585ec392f89,626b3b10149194e4afdce1c7,,,,,,,,,,,,,,,,,,,,,,,a,0,"[""0.037"",""0.794"",""0.483"",""0.721""]","[1,0,1,1]",0,57,57,57,1,1,1,,,0,FALSE,1.1739,,,,,,,,,,,,,,,,,,,,,,,,,,,,,,
,60c60b19111ea4820fe36b4e,001,2022-04-29_03h11.11.605,classification_task,2021.2.3,Win32,60.07088364,60c60b19111ea4820fe36b4e,626b377229c10585ec392f89,626b3b10149194e4afdce1c7,,,,,,,,,,,,,,,,,,,,,,,a,1,"[""0.274"",""0.391"",""0.757"",""0.884""]","[1,1,0,1]",0,58,58,58,1,0,0,,,0,FALSE,1.0268,,,,,,,,,,,,,,,,,,,,,,,,,,,,,,
,60c60b19111ea4820fe36b4e,001,2022-04-29_03h11.11.605,classification_task,2021.2.3,Win32,60.07088364,60c60b19111ea4820fe36b4e,626b377229c10585ec392f89,626b3b10149194e4afdce1c7,,,,,,,,,,,,,,,,,,,,,,,a,0,"[""0.037"",""0.165"",""0.685"",""0.721""]","[1,1,0,1]",0,59,59,59,1,1,1,,,0,FALSE,1.139,,,,,,,,,,,,,,,,,,,,,,,,,,,,,,
,60c60b19111ea4820fe36b4e,001,2022-04-29_03h11.11.605,classification_task,2021.2.3,Win32,60.07088364,60c60b19111ea4820fe36b4e,626b377229c10585ec392f89,626b3b10149194e4afdce1c7,,,,,,,,,,,,,,,,,,,,,,,a,0,"[""0.685"",""0.350"",""0.579"",""0.841""]","[0,1,1,1]",0,60,60,60,1,1,0,,,0,FALSE,1.2049,,,,,,,,,,,,,,,,,,,,,,,,,,,,,,
,60c60b19111ea4820fe36b4e,001,2022-04-29_03h11.11.605,classification_task,2021.2.3,Win32,60.07088364,60c60b19111ea4820fe36b4e,626b377229c10585ec392f89,626b3b10149194e4afdce1c7,,,,,,,,,,,,,,,,,,,,,,,l,0,"[""0.216"",""0.678"",""0.931"",""0.967""]","[1,0,1,1]",0,61,61,61,1,0,1,,,0,FALSE,1.1935,,,,,,,,,,,,,,,,,,,,,,,,,,,,,,
,60c60b19111ea4820fe36b4e,001,2022-04-29_03h11.11.605,classification_task,2021.2.3,Win32,60.07088364,60c60b19111ea4820fe36b4e,626b377229c10585ec392f89,626b3b10149194e4afdce1c7,,,,,,,,,,,,,,,,,,,,,,,a,1,"[""0.436"",""0.391"",""0.613"",""0.884""]","[0,1,1,1]",0,62,62,62,1,0,0,,,0,FALSE,0.8344,,,,,,,,,,,,,,,,,,,,,,,,,,,,,,
,60c60b19111ea4820fe36b4e,001,2022-04-29_03h11.11.605,classification_task,2021.2.3,Win32,60.07088364,60c60b19111ea4820fe36b4e,626b377229c10585ec392f89,626b3b10149194e4afdce1c7,,,,,,,,,,,,,,,,,,,,,,,a,0,"[""0.107"",""0.350"",""0.757"",""0.841""]","[1,1,0,1]",0,63,63,63,1,1,0,,,0,FALSE,1.0837,,,,,,,,,,,,,,,,,,,,,,,,,,,,,,
,60c60b19111ea4820fe36b4e,001,2022-04-29_03h11.11.605,classification_task,2021.2.3,Win32,60.07088364,60c60b19111ea4820fe36b4e,626b377229c10585ec392f89,626b3b10149194e4afdce1c7,,,,,,,,,,,,,,,,,,,,,,,,,,,,,,,,,,,,,,,0, ,,0,4.926513815,611.9135,0,0,0,0,1,2,1,,,,,,,,,,,,,,,,,
,60c60b19111ea4820fe36b4e,001,2022-04-29_03h11.11.605,classification_task,2021.2.3,Win32,60.07088364,60c60b19111ea4820fe36b4e,626b377229c10585ec392f89,626b3b10149194e4afdce1c7,,,,,,,,,,,,,,,,,,,,,,,,,,,,,,,,,,,,,,,1,  ,,0,4.289634296,604.7523,0,0,0,0,1,2,1,,,,,,,,,,,,,,,,,
,60c60b19111ea4820fe36b4e,001,2022-04-29_03h11.11.605,classification_task,2021.2.3,Win32,60.07088364,60c60b19111ea4820fe36b4e,626b377229c10585ec392f89,626b3b10149194e4afdce1c7,,,,,,,,,,,,,,,,,,,,,,,,,,,,,,,,,,,,,,,2,  ,,0,4.583579035,601.22,0,0,0,0,1,2,1,,,,,,,,,,,,,,,,,
,60c60b19111ea4820fe36b4e,001,2022-04-29_03h11.11.605,classification_task,2021.2.3,Win32,60.07088364,60c60b19111ea4820fe36b4e,626b377229c10585ec392f89,626b3b10149194e4afdce1c7,,,,,,,,,,,,,,,,,,,,,,,,,,,,,,,,,,,,,,,,,,,,,0,0,0,0,1,,1,,,,,,,,,,,,,,,,,
,60c60b19111ea4820fe36b4e,001,2022-04-29_03h11.11.605,classification_task,2021.2.3,Win32,60.07088364,60c60b19111ea4820fe36b4e,626b377229c10585ec392f89,626b3b10149194e4afdce1c7,,,,,,,,,,,,,,,,,,,,,space,11.8694,a,0,"[""0.107"",""0.436"",""0.579"",""0.841""]","[1,0,1,1]",0,0,0,0,1,1,0,,,0,FALSE,2.6092,,,,,,,,,,,,,,,,,,,,,,,,,,,,,,
,60c60b19111ea4820fe36b4e,001,2022-04-29_03h11.11.605,classification_task,2021.2.3,Win32,60.07088364,60c60b19111ea4820fe36b4e,626b377229c10585ec392f89,626b3b10149194e4afdce1c7,,,,,,,,,,,,,,,,,,,,,,,a,1,"[""0.216"",""0.533"",""0.931"",""0.426""]","[1,1,1,0]",0,1,1,1,1,0,1,,,0,FALSE,1.0871,,,,,,,,,,,,,,,,,,,,,,,,,,,,,,
,60c60b19111ea4820fe36b4e,001,2022-04-29_03h11.11.605,classification_task,2021.2.3,Win32,60.07088364,60c60b19111ea4820fe36b4e,626b377229c10585ec392f89,626b3b10149194e4afdce1c7,,,,,,,,,,,,,,,,,,,,,,,a,0,"[""0.037"",""0.770"",""0.483"",""0.721""]","[1,0,1,1]",0,2,2,2,1,1,1,,,0,FALSE,0.9319,,,,,,,,,,,,,,,,,,,,,,,,,,,,,,
,60c60b19111ea4820fe36b4e,001,2022-04-29_03h11.11.605,classification_task,2021.2.3,Win32,60.07088364,60c60b19111ea4820fe36b4e,626b377229c10585ec392f89,626b3b10149194e4afdce1c7,,,,,,,,,,,,,,,,,,,,,,,l,1,"[""0.673"",""0.350"",""0.579"",""0.841""]","[0,1,1,1]",0,3,3,3,1,1,0,,,0,FALSE,1.2625,,,,,,,,,,,,,,,,,,,,,,,,,,,,,,
,60c60b19111ea4820fe36b4e,001,2022-04-29_03h11.11.605,classification_task,2021.2.3,Win32,60.07088364,60c60b19111ea4820fe36b4e,626b377229c10585ec392f89,626b3b10149194e4afdce1c7,,,,,,,,,,,,,,,,,,,,,,,a,0,"[""0.107"",""0.350"",""0.579"",""0.673""]","[1,1,1,0]",0,4,4,4,1,1,0,,,0,FALSE,1.7443,,,,,,,,,,,,,,,,,,,,,,,,,,,,,,
,60c60b19111ea4820fe36b4e,001,2022-04-29_03h11.11.605,classification_task,2021.2.3,Win32,60.07088364,60c60b19111ea4820fe36b4e,626b377229c10585ec392f89,626b3b10149194e4afdce1c7,,,,,,,,,,,,,,,,,,,,,,,a,1,"[""0.673"",""0.391"",""0.613"",""0.884""]","[0,1,1,1]",0,5,5,5,1,0,0,,,0,FALSE,0.9693,,,,,,,,,,,,,,,,,,,,,,,,,,,,,,
,60c60b19111ea4820fe36b4e,001,2022-04-29_03h11.11.605,classification_task,2021.2.3,Win32,60.07088364,60c60b19111ea4820fe36b4e,626b377229c10585ec392f89,626b3b10149194e4afdce1c7,,,,,,,,,,,,,,,,,,,,,,,a,1,"[""0.274"",""0.391"",""0.776"",""0.884""]","[1,1,0,1]",0,6,6,6,1,0,0,,,0,FALSE,1.0967,,,,,,,,,,,,,,,,,,,,,,,,,,,,,,
,60c60b19111ea4820fe36b4e,001,2022-04-29_03h11.11.605,classification_task,2021.2.3,Win32,60.07088364,60c60b19111ea4820fe36b4e,626b377229c10585ec392f89,626b3b10149194e4afdce1c7,,,,,,,,,,,,,,,,,,,,,,,a,1,"[""0.274"",""0.391"",""0.613"",""0.669""]","[1,1,1,0]",0,7,7,7,1,0,0,,,0,FALSE,0.8767,,,,,,,,,,,,,,,,,,,,,,,,,,,,,,
,60c60b19111ea4820fe36b4e,001,2022-04-29_03h11.11.605,classification_task,2021.2.3,Win32,60.07088364,60c60b19111ea4820fe36b4e,626b377229c10585ec392f89,626b3b10149194e4afdce1c7,,,,,,,,,,,,,,,,,,,,,,,l,1,"[""0.770"",""0.165"",""0.483"",""0.721""]","[0,1,1,1]",0,8,8,8,1,1,1,,,0,FALSE,1.4358,,,,,,,,,,,,,,,,,,,,,,,,,,,,,,
,60c60b19111ea4820fe36b4e,001,2022-04-29_03h11.11.605,classification_task,2021.2.3,Win32,60.07088364,60c60b19111ea4820fe36b4e,626b377229c10585ec392f89,626b3b10149194e4afdce1c7,,,,,,,,,,,,,,,,,,,,,,,l,0,"[""0.216"",""0.678"",""0.931"",""0.967""]","[1,0,1,1]",0,9,9,9,1,0,1,,,0,FALSE,1.1502,,,,,,,,,,,,,,,,,,,,,,,,,,,,,,
,60c60b19111ea4820fe36b4e,001,2022-04-29_03h11.11.605,classification_task,2021.2.3,Win32,60.07088364,60c60b19111ea4820fe36b4e,626b377229c10585ec392f89,626b3b10149194e4afdce1c7,,,,,,,,,,,,,,,,,,,,,,,a,0,"[""0.107"",""0.350"",""0.426"",""0.841""]","[1,1,0,1]",0,10,10,10,1,1,0,,,0,FALSE,1.1072,,,,,,,,,,,,,,,,,,,,,,,,,,,,,,
,60c60b19111ea4820fe36b4e,001,2022-04-29_03h11.11.605,classification_task,2021.2.3,Win32,60.07088364,60c60b19111ea4820fe36b4e,626b377229c10585ec392f89,626b3b10149194e4afdce1c7,,,,,,,,,,,,,,,,,,,,,,,l,0,"[""0.216"",""0.533"",""0.770"",""0.967""]","[1,1,0,1]",0,11,11,11,1,0,1,,,0,FALSE,1.2061,,,,,,,,,,,,,,,,,,,,,,,,,,,,,,
,60c60b19111ea4820fe36b4e,001,2022-04-29_03h11.11.605,classification_task,2021.2.3,Win32,60.07088364,60c60b19111ea4820fe36b4e,626b377229c10585ec392f89,626b3b10149194e4afdce1c7,,,,,,,,,,,,,,,,,,,,,,,a,0,"[""0.037"",""0.165"",""0.483"",""0.757""]","[1,1,1,0]",0,12,12,12,1,1,1,,,0,FALSE,1.2206,,,,,,,,,,,,,,,,,,,,,,,,,,,,,,
,60c60b19111ea4820fe36b4e,001,2022-04-29_03h11.11.605,classification_task,2021.2.3,Win32,60.07088364,60c60b19111ea4820fe36b4e,626b377229c10585ec392f89,626b3b10149194e4afdce1c7,,,,,,,,,,,,,,,,,,,,,,,l,0,"[""0.316"",""0.533"",""0.931"",""0.967""]","[0,1,1,1]",0,13,13,13,1,0,1,,,0,FALSE,1.3744,,,,,,,,,,,,,,,,,,,,,,,,,,,,,,
,60c60b19111ea4820fe36b4e,001,2022-04-29_03h11.11.605,classification_task,2021.2.3,Win32,60.07088364,60c60b19111ea4820fe36b4e,626b377229c10585ec392f89,626b3b10149194e4afdce1c7,,,,,,,,,,,,,,,,,,,,,,,a,1,"[""0.274"",""0.316"",""0.613"",""0.884""]","[1,0,1,1]",0,14,14,14,1,0,0,,,0,FALSE,1.0635,,,,,,,,,,,,,,,,,,,,,,,,,,,,,,
,60c60b19111ea4820fe36b4e,001,2022-04-29_03h11.11.605,classification_task,2021.2.3,Win32,60.07088364,60c60b19111ea4820fe36b4e,626b377229c10585ec392f89,626b3b10149194e4afdce1c7,,,,,,,,,,,,,,,,,,,,,,,a,0,"[""0.037"",""0.165"",""0.313"",""0.721""]","[1,1,0,1]",0,15,15,15,1,1,1,,,0,FALSE,1.2595,,,,,,,,,,,,,,,,,,,,,,,,,,,,,,
,60c60b19111ea4820fe36b4e,001,2022-04-29_03h11.11.605,classification_task,2021.2.3,Win32,60.07088364,60c60b19111ea4820fe36b4e,626b377229c10585ec392f89,626b3b10149194e4afdce1c7,,,,,,,,,,,,,,,,,,,,,,,l,1,"[""0.758"",""0.350"",""0.579"",""0.841""]","[0,1,1,1]",0,16,16,16,1,1,0,,,0,FALSE,1.0872,,,,,,,,,,,,,,,,,,,,,,,,,,,,,,
,60c60b19111ea4820fe36b4e,001,2022-04-29_03h11.11.605,classification_task,2021.2.3,Win32,60.07088364,60c60b19111ea4820fe36b4e,626b377229c10585ec392f89,626b3b10149194e4afdce1c7,,,,,,,,,,,,,,,,,,,,,,,l,1,"[""0.107"",""0.350"",""0.579"",""0.669""]","[1,1,1,0]",0,17,17,17,1,1,0,,,0,FALSE,1.3273,,,,,,,,,,,,,,,,,,,,,,,,,,,,,,
,60c60b19111ea4820fe36b4e,001,2022-04-29_03h11.11.605,classification_task,2021.2.3,Win32,60.07088364,60c60b19111ea4820fe36b4e,626b377229c10585ec392f89,626b3b10149194e4afdce1c7,,,,,,,,,,,,,,,,,,,,,,,l,1,"[""0.107"",""0.683"",""0.579"",""0.841""]","[1,0,1,1]",0,18,18,18,1,1,0,,,0,FALSE,1.147,,,,,,,,,,,,,,,,,,,,,,,,,,,,,,
,60c60b19111ea4820fe36b4e,001,2022-04-29_03h11.11.605,classification_task,2021.2.3,Win32,60.07088364,60c60b19111ea4820fe36b4e,626b377229c10585ec392f89,626b3b10149194e4afdce1c7,,,,,,,,,,,,,,,,,,,,,,,l,1,"[""0.037"",""0.165"",""0.436"",""0.721""]","[1,1,0,1]",0,19,19,19,1,1,1,,,0,FALSE,1.3339,,,,,,,,,,,,,,,,,,,,,,,,,,,,,,
,60c60b19111ea4820fe36b4e,001,2022-04-29_03h11.11.605,classification_task,2021.2.3,Win32,60.07088364,60c60b19111ea4820fe36b4e,626b377229c10585ec392f89,626b3b10149194e4afdce1c7,,,,,,,,,,,,,,,,,,,,,,,l,1,"[""0.770"",""0.165"",""0.483"",""0.721""]","[0,1,1,1]",0,20,20,20,1,1,1,,,0,FALSE,1.0974,,,,,,,,,,,,,,,,,,,,,,,,,,,,,,
,60c60b19111ea4820fe36b4e,001,2022-04-29_03h11.11.605,classification_task,2021.2.3,Win32,60.07088364,60c60b19111ea4820fe36b4e,626b377229c10585ec392f89,626b3b10149194e4afdce1c7,,,,,,,,,,,,,,,,,,,,,,,l,0,"[""0.767"",""0.533"",""0.931"",""0.967""]","[0,1,1,1]",0,21,21,21,1,0,1,,,0,FALSE,1.1085,,,,,,,,,,,,,,,,,,,,,,,,,,,,,,
,60c60b19111ea4820fe36b4e,001,2022-04-29_03h11.11.605,classification_task,2021.2.3,Win32,60.07088364,60c60b19111ea4820fe36b4e,626b377229c10585ec392f89,626b3b10149194e4afdce1c7,,,,,,,,,,,,,,,,,,,,,,,a,1,"[""0.426"",""0.391"",""0.613"",""0.884""]","[0,1,1,1]",0,22,22,22,1,0,0,,,0,FALSE,1.0917,,,,,,,,,,,,,,,,,,,,,,,,,,,,,,
,60c60b19111ea4820fe36b4e,001,2022-04-29_03h11.11.605,classification_task,2021.2.3,Win32,60.07088364,60c60b19111ea4820fe36b4e,626b377229c10585ec392f89,626b3b10149194e4afdce1c7,,,,,,,,,,,,,,,,,,,,,,,l,1,"[""0.107"",""0.350"",""0.757"",""0.841""]","[1,1,0,1]",0,23,23,23,1,1,0,,,0,FALSE,1.124,,,,,,,,,,,,,,,,,,,,,,,,,,,,,,
,60c60b19111ea4820fe36b4e,001,2022-04-29_03h11.11.605,classification_task,2021.2.3,Win32,60.07088364,60c60b19111ea4820fe36b4e,626b377229c10585ec392f89,626b3b10149194e4afdce1c7,,,,,,,,,,,,,,,,,,,,,,,a,1,"[""0.274"",""0.391"",""0.757"",""0.884""]","[1,1,0,1]",0,24,24,24,1,0,0,,,0,FALSE,1.0847,,,,,,,,,,,,,,,,,,,,,,,,,,,,,,
,60c60b19111ea4820fe36b4e,001,2022-04-29_03h11.11.605,classification_task,2021.2.3,Win32,60.07088364,60c60b19111ea4820fe36b4e,626b377229c10585ec392f89,626b3b10149194e4afdce1c7,,,,,,,,,,,,,,,,,,,,,,,a,1,"[""0.274"",""0.391"",""0.613"",""0.758""]","[1,1,1,0]",0,25,25,25,1,0,0,,,0,FALSE,0.9444,,,,,,,,,,,,,,,,,,,,,,,,,,,,,,
,60c60b19111ea4820fe36b4e,001,2022-04-29_03h11.11.605,classification_task,2021.2.3,Win32,60.07088364,60c60b19111ea4820fe36b4e,626b377229c10585ec392f89,626b3b10149194e4afdce1c7,,,,,,,,,,,,,,,,,,,,,,,l,1,"[""0.037"",""0.678"",""0.483"",""0.721""]","[1,0,1,1]",0,26,26,26,1,1,1,,,0,FALSE,1.0202,,,,,,,,,,,,,,,,,,,,,,,,,,,,,,
,60c60b19111ea4820fe36b4e,001,2022-04-29_03h11.11.605,classification_task,2021.2.3,Win32,60.07088364,60c60b19111ea4820fe36b4e,626b377229c10585ec392f89,626b3b10149194e4afdce1c7,,,,,,,,,,,,,,,,,,,,,,,a,1,"[""0.216"",""0.533"",""0.931"",""0.313""]","[1,1,1,0]",0,27,27,27,1,0,1,,,0,FALSE,1.1663,,,,,,,,,,,,,,,,,,,,,,,,,,,,,,
,60c60b19111ea4820fe36b4e,001,2022-04-29_03h11.11.605,classification_task,2021.2.3,Win32,60.07088364,60c60b19111ea4820fe36b4e,626b377229c10585ec392f89,626b3b10149194e4afdce1c7,,,,,,,,,,,,,,,,,,,,,,,l,0,"[""0.216"",""0.758"",""0.931"",""0.967""]","[1,0,1,1]",0,28,28,28,1,0,1,,,0,FALSE,0.9933,,,,,,,,,,,,,,,,,,,,,,,,,,,,,,
,60c60b19111ea4820fe36b4e,001,2022-04-29_03h11.11.605,classification_task,2021.2.3,Win32,60.07088364,60c60b19111ea4820fe36b4e,626b377229c10585ec392f89,626b3b10149194e4afdce1c7,,,,,,,,,,,,,,,,,,,,,,,a,1,"[""0.274"",""0.685"",""0.613"",""0.884""]","[1,0,1,1]",0,29,29,29,1,0,0,,,0,FALSE,0.9048,,,,,,,,,,,,,,,,,,,,,,,,,,,,,,
,60c60b19111ea4820fe36b4e,001,2022-04-29_03h11.11.605,classification_task,2021.2.3,Win32,60.07088364,60c60b19111ea4820fe36b4e,626b377229c10585ec392f89,626b3b10149194e4afdce1c7,,,,,,,,,,,,,,,,,,,,,,,a,1,"[""0.216"",""0.533"",""0.770"",""0.967""]","[1,1,0,1]",0,30,30,30,1,0,1,,,0,FALSE,1.1392,,,,,,,,,,,,,,,,,,,,,,,,,,,,,,
,60c60b19111ea4820fe36b4e,001,2022-04-29_03h11.11.605,classification_task,2021.2.3,Win32,60.07088364,60c60b19111ea4820fe36b4e,626b377229c10585ec392f89,626b3b10149194e4afdce1c7,,,,,,,,,,,,,,,,,,,,,,,a,0,"[""0.037"",""0.165"",""0.483"",""0.767""]","[1,1,1,0]",0,31,31,31,1,1,1,,,0,FALSE,1.0606,,,,,,,,,,,,,,,,,,,,,,,,,,,,,,
,60c60b19111ea4820fe36b4e,001,2022-04-29_03h11.11.605,classification_task,2021.2.3,Win32,60.07088364,60c60b19111ea4820fe36b4e,626b377229c10585ec392f89,626b3b10149194e4afdce1c7,,,,,,,,,,,,,,,,,,,,,,,a,0,"[""0.107"",""0.350"",""0.579"",""0.673""]","[1,1,1,0]",0,32,32,32,1,1,0,,,0,FALSE,1.5332,,,,,,,,,,,,,,,,,,,,,,,,,,,,,,
,60c60b19111ea4820fe36b4e,001,2022-04-29_03h11.11.605,classification_task,2021.2.3,Win32,60.07088364,60c60b19111ea4820fe36b4e,626b377229c10585ec392f89,626b3b10149194e4afdce1c7,,,,,,,,,,,,,,,,,,,,,,,a,0,"[""0.037"",""0.313"",""0.483"",""0.721""]","[1,0,1,1]",0,33,33,33,1,1,1,,,0,FALSE,1.1192,,,,,,,,,,,,,,,,,,,,,,,,,,,,,,
,60c60b19111ea4820fe36b4e,001,2022-04-29_03h11.11.605,classification_task,2021.2.3,Win32,60.07088364,60c60b19111ea4820fe36b4e,626b377229c10585ec392f89,626b3b10149194e4afdce1c7,,,,,,,,,,,,,,,,,,,,,,,l,1,"[""0.037"",""0.165"",""0.794"",""0.721""]","[1,1,0,1]",0,34,34,34,1,1,1,,,0,FALSE,1.146,,,,,,,,,,,,,,,,,,,,,,,,,,,,,,
,60c60b19111ea4820fe36b4e,001,2022-04-29_03h11.11.605,classification_task,2021.2.3,Win32,60.07088364,60c60b19111ea4820fe36b4e,626b377229c10585ec392f89,626b3b10149194e4afdce1c7,,,,,,,,,,,,,,,,,,,,,,,a,1,"[""0.673"",""0.391"",""0.613"",""0.884""]","[0,1,1,1]",0,35,35,35,1,0,0,,,0,FALSE,1.2225,,,,,,,,,,,,,,,,,,,,,,,,,,,,,,
,60c60b19111ea4820fe36b4e,001,2022-04-29_03h11.11.605,classification_task,2021.2.3,Win32,60.07088364,60c60b19111ea4820fe36b4e,626b377229c10585ec392f89,626b3b10149194e4afdce1c7,,,,,,,,,,,,,,,,,,,,,,,a,0,"[""0.107"",""0.350"",""0.794"",""0.841""]","[1,1,0,1]",0,36,36,36,1,1,0,,,0,FALSE,1.2679,,,,,,,,,,,,,,,,,,,,,,,,,,,,,,
,60c60b19111ea4820fe36b4e,001,2022-04-29_03h11.11.605,classification_task,2021.2.3,Win32,60.07088364,60c60b19111ea4820fe36b4e,626b377229c10585ec392f89,626b3b10149194e4afdce1c7,,,,,,,,,,,,,,,,,,,,,,,a,0,"[""0.316"",""0.350"",""0.579"",""0.841""]","[0,1,1,1]",0,37,37,37,1,1,0,,,0,FALSE,1.2103,,,,,,,,,,,,,,,,,,,,,,,,,,,,,,
,60c60b19111ea4820fe36b4e,001,2022-04-29_03h11.11.605,classification_task,2021.2.3,Win32,60.07088364,60c60b19111ea4820fe36b4e,626b377229c10585ec392f89,626b3b10149194e4afdce1c7,,,,,,,,,,,,,,,,,,,,,,,l,0,"[""0.216"",""0.533"",""0.931"",""0.770""]","[1,1,1,0]",0,38,38,38,1,0,1,,,0,FALSE,1.1745,,,,,,,,,,,,,,,,,,,,,,,,,,,,,,
,60c60b19111ea4820fe36b4e,001,2022-04-29_03h11.11.605,classification_task,2021.2.3,Win32,60.07088364,60c60b19111ea4820fe36b4e,626b377229c10585ec392f89,626b3b10149194e4afdce1c7,,,,,,,,,,,,,,,,,,,,,,,a,1,"[""0.274"",""0.391"",""0.313"",""0.884""]","[1,1,0,1]",0,39,39,39,1,0,0,,,0,FALSE,0.9032,,,,,,,,,,,,,,,,,,,,,,,,,,,,,,
,60c60b19111ea4820fe36b4e,001,2022-04-29_03h11.11.605,classification_task,2021.2.3,Win32,60.07088364,60c60b19111ea4820fe36b4e,626b377229c10585ec392f89,626b3b10149194e4afdce1c7,,,,,,,,,,,,,,,,,,,,,,,a,0,"[""0.037"",""0.165"",""0.483"",""0.770""]","[1,1,1,0]",0,40,40,40,1,1,1,,,0,FALSE,1.139,,,,,,,,,,,,,,,,,,,,,,,,,,,,,,
,60c60b19111ea4820fe36b4e,001,2022-04-29_03h11.11.605,classification_task,2021.2.3,Win32,60.07088364,60c60b19111ea4820fe36b4e,626b377229c10585ec392f89,626b3b10149194e4afdce1c7,,,,,,,,,,,,,,,,,,,,,,,a,1,"[""0.274"",""0.391"",""0.613"",""0.313""]","[1,1,1,0]",0,41,41,41,1,0,0,,,0,FALSE,1.3408,,,,,,,,,,,,,,,,,,,,,,,,,,,,,,
,60c60b19111ea4820fe36b4e,001,2022-04-29_03h11.11.605,classification_task,2021.2.3,Win32,60.07088364,60c60b19111ea4820fe36b4e,626b377229c10585ec392f89,626b3b10149194e4afdce1c7,,,,,,,,,,,,,,,,,,,,,,,a,1,"[""0.216"",""0.685"",""0.931"",""0.967""]","[1,0,1,1]",0,42,42,42,1,0,1,,,0,FALSE,1.9197,,,,,,,,,,,,,,,,,,,,,,,,,,,,,,
,60c60b19111ea4820fe36b4e,001,2022-04-29_03h11.11.605,classification_task,2021.2.3,Win32,60.07088364,60c60b19111ea4820fe36b4e,626b377229c10585ec392f89,626b3b10149194e4afdce1c7,,,,,,,,,,,,,,,,,,,,,,,l,1,"[""0.107"",""0.776"",""0.579"",""0.841""]","[1,0,1,1]",0,43,43,43,1,1,0,,,0,FALSE,1.0926,,,,,,,,,,,,,,,,,,,,,,,,,,,,,,
,60c60b19111ea4820fe36b4e,001,2022-04-29_03h11.11.605,classification_task,2021.2.3,Win32,60.07088364,60c60b19111ea4820fe36b4e,626b377229c10585ec392f89,626b3b10149194e4afdce1c7,,,,,,,,,,,,,,,,,,,,,,,l,0,"[""0.216"",""0.533"",""0.685"",""0.967""]","[1,1,0,1]",0,44,44,44,1,0,1,,,0,FALSE,1.733,,,,,,,,,,,,,,,,,,,,,,,,,,,,,,
,60c60b19111ea4820fe36b4e,001,2022-04-29_03h11.11.605,classification_task,2021.2.3,Win32,60.07088364,60c60b19111ea4820fe36b4e,626b377229c10585ec392f89,626b3b10149194e4afdce1c7,,,,,,,,,,,,,,,,,,,,,,,a,1,"[""0.426"",""0.533"",""0.931"",""0.967""]","[0,1,1,1]",0,45,45,45,1,0,1,,,0,FALSE,1.5553,,,,,,,,,,,,,,,,,,,,,,,,,,,,,,
,60c60b19111ea4820fe36b4e,001,2022-04-29_03h11.11.605,classification_task,2021.2.3,Win32,60.07088364,60c60b19111ea4820fe36b4e,626b377229c10585ec392f89,626b3b10149194e4afdce1c7,,,,,,,,,,,,,,,,,,,,,,,l,0,"[""0.274"",""0.428"",""0.613"",""0.884""]","[1,0,1,1]",0,46,46,46,1,0,0,,,0,FALSE,1.0442,,,,,,,,,,,,,,,,,,,,,,,,,,,,,,
,60c60b19111ea4820fe36b4e,001,2022-04-29_03h11.11.605,classification_task,2021.2.3,Win32,60.07088364,60c60b19111ea4820fe36b4e,626b377229c10585ec392f89,626b3b10149194e4afdce1c7,,,,,,,,,,,,,,,,,,,,,,,a,0,"[""0.776"",""0.165"",""0.483"",""0.721""]","[0,1,1,1]",0,47,47,47,1,1,1,,,0,FALSE,1.6826,,,,,,,,,,,,,,,,,,,,,,,,,,,,,,
,60c60b19111ea4820fe36b4e,001,2022-04-29_03h11.11.605,classification_task,2021.2.3,Win32,60.07088364,60c60b19111ea4820fe36b4e,626b377229c10585ec392f89,626b3b10149194e4afdce1c7,,,,,,,,,,,,,,,,,,,,,,,a,0,"[""0.037"",""0.165"",""0.767"",""0.721""]","[1,1,0,1]",0,48,48,48,1,1,1,,,0,FALSE,1.2021,,,,,,,,,,,,,,,,,,,,,,,,,,,,,,
,60c60b19111ea4820fe36b4e,001,2022-04-29_03h11.11.605,classification_task,2021.2.3,Win32,60.07088364,60c60b19111ea4820fe36b4e,626b377229c10585ec392f89,626b3b10149194e4afdce1c7,,,,,,,,,,,,,,,,,,,,,,,l,0,"[""0.274"",""0.436"",""0.613"",""0.884""]","[1,0,1,1]",0,49,49,49,1,0,0,,,0,FALSE,1.3852,,,,,,,,,,,,,,,,,,,,,,,,,,,,,,
,60c60b19111ea4820fe36b4e,001,2022-04-29_03h11.11.605,classification_task,2021.2.3,Win32,60.07088364,60c60b19111ea4820fe36b4e,626b377229c10585ec392f89,626b3b10149194e4afdce1c7,,,,,,,,,,,,,,,,,,,,,,,a,1,"[""0.216"",""0.533"",""0.931"",""0.776""]","[1,1,1,0]",0,50,50,50,1,0,1,,,0,FALSE,1.1041,,,,,,,,,,,,,,,,,,,,,,,,,,,,,,
,60c60b19111ea4820fe36b4e,001,2022-04-29_03h11.11.605,classification_task,2021.2.3,Win32,60.07088364,60c60b19111ea4820fe36b4e,626b377229c10585ec392f89,626b3b10149194e4afdce1c7,,,,,,,,,,,,,,,,,,,,,,,l,0,"[""0.678"",""0.391"",""0.613"",""0.884""]","[0,1,1,1]",0,51,51,51,1,0,0,,,0,FALSE,1.3074,,,,,,,,,,,,,,,,,,,,,,,,,,,,,,
,60c60b19111ea4820fe36b4e,001,2022-04-29_03h11.11.605,classification_task,2021.2.3,Win32,60.07088364,60c60b19111ea4820fe36b4e,626b377229c10585ec392f89,626b3b10149194e4afdce1c7,,,,,,,,,,,,,,,,,,,,,,,a,0,"[""0.037"",""0.165"",""0.483"",""0.428""]","[1,1,1,0]",0,52,52,52,1,1,1,,,0,FALSE,2.6435,,,,,,,,,,,,,,,,,,,,,,,,,,,,,,
,60c60b19111ea4820fe36b4e,001,2022-04-29_03h11.11.605,classification_task,2021.2.3,Win32,60.07088364,60c60b19111ea4820fe36b4e,626b377229c10585ec392f89,626b3b10149194e4afdce1c7,,,,,,,,,,,,,,,,,,,,,,,l,1,"[""0.436"",""0.350"",""0.579"",""0.841""]","[0,1,1,1]",0,53,53,53,1,1,0,,,0,FALSE,0.9385,,,,,,,,,,,,,,,,,,,,,,,,,,,,,,
,60c60b19111ea4820fe36b4e,001,2022-04-29_03h11.11.605,classification_task,2021.2.3,Win32,60.07088364,60c60b19111ea4820fe36b4e,626b377229c10585ec392f89,626b3b10149194e4afdce1c7,,,,,,,,,,,,,,,,,,,,,,,a,1,"[""0.274"",""0.391"",""0.613"",""0.313""]","[1,1,1,0]",0,54,54,54,1,0,0,,,0,FALSE,0.9964,,,,,,,,,,,,,,,,,,,,,,,,,,,,,,
,60c60b19111ea4820fe36b4e,001,2022-04-29_03h11.11.605,classification_task,2021.2.3,Win32,60.07088364,60c60b19111ea4820fe36b4e,626b377229c10585ec392f89,626b3b10149194e4afdce1c7,,,,,,,,,,,,,,,,,,,,,,,l,0,"[""0.216"",""0.436"",""0.931"",""0.967""]","[1,0,1,1]",0,55,55,55,1,0,1,,,0,FALSE,1.733,,,,,,,,,,,,,,,,,,,,,,,,,,,,,,
,60c60b19111ea4820fe36b4e,001,2022-04-29_03h11.11.605,classification_task,2021.2.3,Win32,60.07088364,60c60b19111ea4820fe36b4e,626b377229c10585ec392f89,626b3b10149194e4afdce1c7,,,,,,,,,,,,,,,,,,,,,,,a,1,"[""0.767"",""0.533"",""0.931"",""0.967""]","[0,1,1,1]",0,56,56,56,1,0,1,,,0,FALSE,1.3811,,,,,,,,,,,,,,,,,,,,,,,,,,,,,,
,60c60b19111ea4820fe36b4e,001,2022-04-29_03h11.11.605,classification_task,2021.2.3,Win32,60.07088364,60c60b19111ea4820fe36b4e,626b377229c10585ec392f89,626b3b10149194e4afdce1c7,,,,,,,,,,,,,,,,,,,,,,,a,1,"[""0.216"",""0.533"",""0.673"",""0.967""]","[1,1,0,1]",0,57,57,57,1,0,1,,,0,FALSE,1.0707,,,,,,,,,,,,,,,,,,,,,,,,,,,,,,
,60c60b19111ea4820fe36b4e,001,2022-04-29_03h11.11.605,classification_task,2021.2.3,Win32,60.07088364,60c60b19111ea4820fe36b4e,626b377229c10585ec392f89,626b3b10149194e4afdce1c7,,,,,,,,,,,,,,,,,,,,,,,a,0,"[""0.107"",""0.685"",""0.579"",""0.841""]","[1,0,1,1]",0,58,58,58,1,1,0,,,0,FALSE,1.4621,,,,,,,,,,,,,,,,,,,,,,,,,,,,,,
,60c60b19111ea4820fe36b4e,001,2022-04-29_03h11.11.605,classification_task,2021.2.3,Win32,60.07088364,60c60b19111ea4820fe36b4e,626b377229c10585ec392f89,626b3b10149194e4afdce1c7,,,,,,,,,,,,,,,,,,,,,,,l,1,"[""0.313"",""0.165"",""0.483"",""0.721""]","[0,1,1,1]",0,59,59,59,1,1,1,,,0,FALSE,1.0488,,,,,,,,,,,,,,,,,,,,,,,,,,,,,,
,60c60b19111ea4820fe36b4e,001,2022-04-29_03h11.11.605,classification_task,2021.2.3,Win32,60.07088364,60c60b19111ea4820fe36b4e,626b377229c10585ec392f89,626b3b10149194e4afdce1c7,,,,,,,,,,,,,,,,,,,,,,,a,0,"[""0.107"",""0.350"",""0.579"",""0.428""]","[1,1,1,0]",0,60,60,60,1,1,0,,,0,FALSE,1.1806,,,,,,,,,,,,,,,,,,,,,,,,,,,,,,
,60c60b19111ea4820fe36b4e,001,2022-04-29_03h11.11.605,classification_task,2021.2.3,Win32,60.07088364,60c60b19111ea4820fe36b4e,626b377229c10585ec392f89,626b3b10149194e4afdce1c7,,,,,,,,,,,,,,,,,,,,,,,a,1,"[""0.274"",""0.391"",""0.685"",""0.884""]","[1,1,0,1]",0,61,61,61,1,0,0,,,0,FALSE,0.9726,,,,,,,,,,,,,,,,,,,,,,,,,,,,,,
,60c60b19111ea4820fe36b4e,001,2022-04-29_03h11.11.605,classification_task,2021.2.3,Win32,60.07088364,60c60b19111ea4820fe36b4e,626b377229c10585ec392f89,626b3b10149194e4afdce1c7,,,,,,,,,,,,,,,,,,,,,,,a,0,"[""0.037"",""0.426"",""0.483"",""0.721""]","[1,0,1,1]",0,62,62,62,1,1,1,,,0,FALSE,1.1749,,,,,,,,,,,,,,,,,,,,,,,,,,,,,,
,60c60b19111ea4820fe36b4e,001,2022-04-29_03h11.11.605,classification_task,2021.2.3,Win32,60.07088364,60c60b19111ea4820fe36b4e,626b377229c10585ec392f89,626b3b10149194e4afdce1c7,,,,,,,,,,,,,,,,,,,,,,,a,0,"[""0.107"",""0.350"",""0.426"",""0.841""]","[1,1,0,1]",0,63,63,63,1,1,0,,,0,FALSE,1.1896,,,,,,,,,,,,,,,,,,,,,,,,,,,,,,
,60c60b19111ea4820fe36b4e,001,2022-04-29_03h11.11.605,classification_task,2021.2.3,Win32,60.07088364,60c60b19111ea4820fe36b4e,626b377229c10585ec392f89,626b3b10149194e4afdce1c7,,,,,,,,,,,,,,,,,,,,,,,,,,,,,,,,,,,,,,,0, ,,0,3.750734862,234.2784,0,1,1,1,1,2,2,,,,,,,,,,,,,,,,,
,60c60b19111ea4820fe36b4e,001,2022-04-29_03h11.11.605,classification_task,2021.2.3,Win32,60.07088364,60c60b19111ea4820fe36b4e,626b377229c10585ec392f89,626b3b10149194e4afdce1c7,,,,,,,,,,,,,,,,,,,,,,,,,,,,,,,,,,,,,,,1,  ,,0,4.951009958,216.2101,0,1,1,1,1,2,2,,,,,,,,,,,,,,,,,
,60c60b19111ea4820fe36b4e,001,2022-04-29_03h11.11.605,classification_task,2021.2.3,Win32,60.07088364,60c60b19111ea4820fe36b4e,626b377229c10585ec392f89,626b3b10149194e4afdce1c7,,,,,,,,,,,,,,,,,,,,,,,,,,,,,,,,,,,,,,,2,  ,,0,4.9755061,223.4132,0,1,1,1,1,2,2,,,,,,,,,,,,,,,,,
,60c60b19111ea4820fe36b4e,001,2022-04-29_03h11.11.605,classification_task,2021.2.3,Win32,60.07088364,60c60b19111ea4820fe36b4e,626b377229c10585ec392f89,626b3b10149194e4afdce1c7,,,,,,,,,,,,,,,,,,,,,,,,,,,,,,,,,,,,,,,,,,,,,0,1,1,1,1,,2,,,,,,,,,,,,,,,,,
,60c60b19111ea4820fe36b4e,001,2022-04-29_03h11.11.605,classification_task,2021.2.3,Win32,60.07088364,60c60b19111ea4820fe36b4e,626b377229c10585ec392f89,626b3b10149194e4afdce1c7,,,,,,,,,,,,,,,,,,,,,space,2.584,a,0,"[""0.758"",""0.165"",""0.483"",""0.721""]","[0,1,1,1]",0,0,0,0,1,1,1,,,0,FALSE,1.8407,,,,,,,,,,,,,,,,,,,,,,,,,,,,,,
,60c60b19111ea4820fe36b4e,001,2022-04-29_03h11.11.605,classification_task,2021.2.3,Win32,60.07088364,60c60b19111ea4820fe36b4e,626b377229c10585ec392f89,626b3b10149194e4afdce1c7,,,,,,,,,,,,,,,,,,,,,,,a,1,"[""0.757"",""0.533"",""0.931"",""0.967""]","[0,1,1,1]",0,1,1,1,1,0,1,,,0,FALSE,2.6549,,,,,,,,,,,,,,,,,,,,,,,,,,,,,,
,60c60b19111ea4820fe36b4e,001,2022-04-29_03h11.11.605,classification_task,2021.2.3,Win32,60.07088364,60c60b19111ea4820fe36b4e,626b377229c10585ec392f89,626b3b10149194e4afdce1c7,,,,,,,,,,,,,,,,,,,,,,,l,1,"[""0.770"",""0.350"",""0.579"",""0.841""]","[0,1,1,1]",0,2,2,2,1,1,0,,,0,FALSE,3.5932,,,,,,,,,,,,,,,,,,,,,,,,,,,,,,
,60c60b19111ea4820fe36b4e,001,2022-04-29_03h11.11.605,classification_task,2021.2.3,Win32,60.07088364,60c60b19111ea4820fe36b4e,626b377229c10585ec392f89,626b3b10149194e4afdce1c7,,,,,,,,,,,,,,,,,,,,,,,a,1,"[""0.216"",""0.533"",""0.931"",""0.678""]","[1,1,1,0]",0,3,3,3,1,0,1,,,0,FALSE,2.3216,,,,,,,,,,,,,,,,,,,,,,,,,,,,,,
,60c60b19111ea4820fe36b4e,001,2022-04-29_03h11.11.605,classification_task,2021.2.3,Win32,60.07088364,60c60b19111ea4820fe36b4e,626b377229c10585ec392f89,626b3b10149194e4afdce1c7,,,,,,,,,,,,,,,,,,,,,,,l,1,"[""0.037"",""0.165"",""0.316"",""0.721""]","[1,1,0,1]",0,4,4,4,1,1,1,,,0,FALSE,2.0403,,,,,,,,,,,,,,,,,,,,,,,,,,,,,,
,60c60b19111ea4820fe36b4e,001,2022-04-29_03h11.11.605,classification_task,2021.2.3,Win32,60.07088364,60c60b19111ea4820fe36b4e,626b377229c10585ec392f89,626b3b10149194e4afdce1c7,,,,,,,,,,,,,,,,,,,,,,,a,0,"[""0.107"",""0.770"",""0.579"",""0.841""]","[1,0,1,1]",0,5,5,5,1,1,0,,,0,FALSE,4.9084,,,,,,,,,,,,,,,,,,,,,,,,,,,,,,
,60c60b19111ea4820fe36b4e,001,2022-04-29_03h11.11.605,classification_task,2021.2.3,Win32,60.07088364,60c60b19111ea4820fe36b4e,626b377229c10585ec392f89,626b3b10149194e4afdce1c7,,,,,,,,,,,,,,,,,,,,,,,l,0,"[""0.216"",""0.776"",""0.931"",""0.967""]","[1,0,1,1]",0,6,6,6,1,0,1,,,0,FALSE,2.398,,,,,,,,,,,,,,,,,,,,,,,,,,,,,,
,60c60b19111ea4820fe36b4e,001,2022-04-29_03h11.11.605,classification_task,2021.2.3,Win32,60.07088364,60c60b19111ea4820fe36b4e,626b377229c10585ec392f89,626b3b10149194e4afdce1c7,,,,,,,,,,,,,,,,,,,,,,,a,1,"[""0.316"",""0.391"",""0.613"",""0.884""]","[0,1,1,1]",0,7,7,7,1,0,0,,,0,FALSE,1.2066,,,,,,,,,,,,,,,,,,,,,,,,,,,,,,
,60c60b19111ea4820fe36b4e,001,2022-04-29_03h11.11.605,classification_task,2021.2.3,Win32,60.07088364,60c60b19111ea4820fe36b4e,626b377229c10585ec392f89,626b3b10149194e4afdce1c7,,,,,,,,,,,,,,,,,,,,,,,a,0,"[""0.107"",""0.350"",""0.579"",""0.776""]","[1,1,1,0]",0,8,8,8,1,1,0,,,0,FALSE,1.6136,,,,,,,,,,,,,,,,,,,,,,,,,,,,,,
,60c60b19111ea4820fe36b4e,001,2022-04-29_03h11.11.605,classification_task,2021.2.3,Win32,60.07088364,60c60b19111ea4820fe36b4e,626b377229c10585ec392f89,626b3b10149194e4afdce1c7,,,,,,,,,,,,,,,,,,,,,,,a,1,"[""0.274"",""0.313"",""0.613"",""0.884""]","[1,0,1,1]",0,9,9,9,1,0,0,,,0,FALSE,1.5522,,,,,,,,,,,,,,,,,,,,,,,,,,,,,,
,60c60b19111ea4820fe36b4e,001,2022-04-29_03h11.11.605,classification_task,2021.2.3,Win32,60.07088364,60c60b19111ea4820fe36b4e,626b377229c10585ec392f89,626b3b10149194e4afdce1c7,,,,,,,,,,,,,,,,,,,,,,,l,0,"[""0.274"",""0.391"",""0.613"",""0.673""]","[1,1,1,0]",0,10,10,10,1,0,0,,,0,FALSE,1.368,,,,,,,,,,,,,,,,,,,,,,,,,,,,,,
,60c60b19111ea4820fe36b4e,001,2022-04-29_03h11.11.605,classification_task,2021.2.3,Win32,60.07088364,60c60b19111ea4820fe36b4e,626b377229c10585ec392f89,626b3b10149194e4afdce1c7,,,,,,,,,,,,,,,,,,,,,,,a,0,"[""0.037"",""0.758"",""0.483"",""0.721""]","[1,0,1,1]",0,11,11,11,1,1,1,,,0,FALSE,3.4258,,,,,,,,,,,,,,,,,,,,,,,,,,,,,,
,60c60b19111ea4820fe36b4e,001,2022-04-29_03h11.11.605,classification_task,2021.2.3,Win32,60.07088364,60c60b19111ea4820fe36b4e,626b377229c10585ec392f89,626b3b10149194e4afdce1c7,,,,,,,,,,,,,,,,,,,,,,,a,0,"[""0.107"",""0.350"",""0.426"",""0.841""]","[1,1,0,1]",0,12,12,12,1,1,0,,,0,FALSE,1.5107,,,,,,,,,,,,,,,,,,,,,,,,,,,,,,
,60c60b19111ea4820fe36b4e,001,2022-04-29_03h11.11.605,classification_task,2021.2.3,Win32,60.07088364,60c60b19111ea4820fe36b4e,626b377229c10585ec392f89,626b3b10149194e4afdce1c7,,,,,,,,,,,,,,,,,,,,,,,a,0,"[""0.037"",""0.165"",""0.483"",""0.428""]","[1,1,1,0]",0,13,13,13,1,1,1,,,0,FALSE,3.0753,,,,,,,,,,,,,,,,,,,,,,,,,,,,,,
,60c60b19111ea4820fe36b4e,001,2022-04-29_03h11.11.605,classification_task,2021.2.3,Win32,60.07088364,60c60b19111ea4820fe36b4e,626b377229c10585ec392f89,626b3b10149194e4afdce1c7,,,,,,,,,,,,,,,,,,,,,,,a,1,"[""0.274"",""0.391"",""0.683"",""0.884""]","[1,1,0,1]",0,14,14,14,1,0,0,,,0,FALSE,1.1227,,,,,,,,,,,,,,,,,,,,,,,,,,,,,,
,60c60b19111ea4820fe36b4e,001,2022-04-29_03h11.11.605,classification_task,2021.2.3,Win32,60.07088364,60c60b19111ea4820fe36b4e,626b377229c10585ec392f89,626b3b10149194e4afdce1c7,,,,,,,,,,,,,,,,,,,,,,,a,1,"[""0.216"",""0.533"",""0.770"",""0.967""]","[1,1,0,1]",0,15,15,15,1,0,1,,,0,FALSE,1.376,,,,,,,,,,,,,,,,,,,,,,,,,,,,,,
,60c60b19111ea4820fe36b4e,001,2022-04-29_03h11.11.605,classification_task,2021.2.3,Win32,60.07088364,60c60b19111ea4820fe36b4e,626b377229c10585ec392f89,626b3b10149194e4afdce1c7,,,,,,,,,,,,,,,,,,,,,,,l,1,"[""0.037"",""0.678"",""0.483"",""0.721""]","[1,0,1,1]",0,16,16,16,1,1,1,,,0,FALSE,1.3582,,,,,,,,,,,,,,,,,,,,,,,,,,,,,,
,60c60b19111ea4820fe36b4e,001,2022-04-29_03h11.11.605,classification_task,2021.2.3,Win32,60.07088364,60c60b19111ea4820fe36b4e,626b377229c10585ec392f89,626b3b10149194e4afdce1c7,,,,,,,,,,,,,,,,,,,,,,,a,1,"[""0.316"",""0.391"",""0.613"",""0.884""]","[0,1,1,1]",0,17,17,17,1,0,0,,,0,FALSE,1.1674,,,,,,,,,,,,,,,,,,,,,,,,,,,,,,
,60c60b19111ea4820fe36b4e,001,2022-04-29_03h11.11.605,classification_task,2021.2.3,Win32,60.07088364,60c60b19111ea4820fe36b4e,626b377229c10585ec392f89,626b3b10149194e4afdce1c7,,,,,,,,,,,,,,,,,,,,,,,l,0,"[""0.274"",""0.391"",""0.613"",""0.673""]","[1,1,1,0]",0,18,18,18,1,0,0,,,0,FALSE,1.5214,,,,,,,,,,,,,,,,,,,,,,,,,,,,,,
,60c60b19111ea4820fe36b4e,001,2022-04-29_03h11.11.605,classification_task,2021.2.3,Win32,60.07088364,60c60b19111ea4820fe36b4e,626b377229c10585ec392f89,626b3b10149194e4afdce1c7,,,,,,,,,,,,,,,,,,,,,,,a,1,"[""0.685"",""0.533"",""0.931"",""0.967""]","[0,1,1,1]",0,19,19,19,1,0,1,,,0,FALSE,1.6305,,,,,,,,,,,,,,,,,,,,,,,,,,,,,,
,60c60b19111ea4820fe36b4e,001,2022-04-29_03h11.11.605,classification_task,2021.2.3,Win32,60.07088364,60c60b19111ea4820fe36b4e,626b377229c10585ec392f89,626b3b10149194e4afdce1c7,,,,,,,,,,,,,,,,,,,,,,,a,1,"[""0.274"",""0.678"",""0.613"",""0.884""]","[1,0,1,1]",0,20,20,20,1,0,0,,,0,FALSE,1.3348,,,,,,,,,,,,,,,,,,,,,,,,,,,,,,
,60c60b19111ea4820fe36b4e,001,2022-04-29_03h11.11.605,classification_task,2021.2.3,Win32,60.07088364,60c60b19111ea4820fe36b4e,626b377229c10585ec392f89,626b3b10149194e4afdce1c7,,,,,,,,,,,,,,,,,,,,,,,l,1,"[""0.428"",""0.350"",""0.579"",""0.841""]","[0,1,1,1]",0,21,21,21,1,1,0,,,0,FALSE,1.1562,,,,,,,,,,,,,,,,,,,,,,,,,,,,,,
,60c60b19111ea4820fe36b4e,001,2022-04-29_03h11.11.605,classification_task,2021.2.3,Win32,60.07088364,60c60b19111ea4820fe36b4e,626b377229c10585ec392f89,626b3b10149194e4afdce1c7,,,,,,,,,,,,,,,,,,,,,,,a,0,"[""0.107"",""0.350"",""0.579"",""0.436""]","[1,1,1,0]",0,22,22,22,1,1,0,,,0,FALSE,1.2989,,,,,,,,,,,,,,,,,,,,,,,,,,,,,,
,60c60b19111ea4820fe36b4e,001,2022-04-29_03h11.11.605,classification_task,2021.2.3,Win32,60.07088364,60c60b19111ea4820fe36b4e,626b377229c10585ec392f89,626b3b10149194e4afdce1c7,,,,,,,,,,,,,,,,,,,,,,,l,1,"[""0.037"",""0.165"",""0.669"",""0.721""]","[1,1,0,1]",0,23,23,23,1,1,1,,,0,FALSE,1.8779,,,,,,,,,,,,,,,,,,,,,,,,,,,,,,
,60c60b19111ea4820fe36b4e,001,2022-04-29_03h11.11.605,classification_task,2021.2.3,Win32,60.07088364,60c60b19111ea4820fe36b4e,626b377229c10585ec392f89,626b3b10149194e4afdce1c7,,,,,,,,,,,,,,,,,,,,,,,a,0,"[""0.037"",""0.165"",""0.483"",""0.770""]","[1,1,1,0]",0,24,24,24,1,1,1,,,0,FALSE,1.298,,,,,,,,,,,,,,,,,,,,,,,,,,,,,,
,60c60b19111ea4820fe36b4e,001,2022-04-29_03h11.11.605,classification_task,2021.2.3,Win32,60.07088364,60c60b19111ea4820fe36b4e,626b377229c10585ec392f89,626b3b10149194e4afdce1c7,,,,,,,,,,,,,,,,,,,,,,,l,0,"[""0.216"",""0.533"",""0.931"",""0.313""]","[1,1,1,0]",0,25,25,25,1,0,1,,,0,FALSE,2.1184,,,,,,,,,,,,,,,,,,,,,,,,,,,,,,
,60c60b19111ea4820fe36b4e,001,2022-04-29_03h11.11.605,classification_task,2021.2.3,Win32,60.07088364,60c60b19111ea4820fe36b4e,626b377229c10585ec392f89,626b3b10149194e4afdce1c7,,,,,,,,,,,,,,,,,,,,,,,a,1,"[""0.274"",""0.391"",""0.673"",""0.884""]","[1,1,0,1]",0,26,26,26,1,0,0,,,0,FALSE,1.5507,,,,,,,,,,,,,,,,,,,,,,,,,,,,,,
,60c60b19111ea4820fe36b4e,001,2022-04-29_03h11.11.605,classification_task,2021.2.3,Win32,60.07088364,60c60b19111ea4820fe36b4e,626b377229c10585ec392f89,626b3b10149194e4afdce1c7,,,,,,,,,,,,,,,,,,,,,,,a,1,"[""0.216"",""0.673"",""0.931"",""0.967""]","[1,0,1,1]",0,27,27,27,1,0,1,,,0,FALSE,1.3295,,,,,,,,,,,,,,,,,,,,,,,,,,,,,,
,60c60b19111ea4820fe36b4e,001,2022-04-29_03h11.11.605,classification_task,2021.2.3,Win32,60.07088364,60c60b19111ea4820fe36b4e,626b377229c10585ec392f89,626b3b10149194e4afdce1c7,,,,,,,,,,,,,,,,,,,,,,,a,0,"[""0.107"",""0.350"",""0.770"",""0.841""]","[1,1,0,1]",0,28,28,28,1,1,0,,,0,FALSE,1.3092,,,,,,,,,,,,,,,,,,,,,,,,,,,,,,
,60c60b19111ea4820fe36b4e,001,2022-04-29_03h11.11.605,classification_task,2021.2.3,Win32,60.07088364,60c60b19111ea4820fe36b4e,626b377229c10585ec392f89,626b3b10149194e4afdce1c7,,,,,,,,,,,,,,,,,,,,,,,a,0,"[""0.107"",""0.673"",""0.579"",""0.841""]","[1,0,1,1]",0,29,29,29,1,1,0,,,0,FALSE,1.2763,,,,,,,,,,,,,,,,,,,,,,,,,,,,,,
,60c60b19111ea4820fe36b4e,001,2022-04-29_03h11.11.605,classification_task,2021.2.3,Win32,60.07088364,60c60b19111ea4820fe36b4e,626b377229c10585ec392f89,626b3b10149194e4afdce1c7,,,,,,,,,,,,,,,,,,,,,,,a,0,"[""0.757"",""0.165"",""0.483"",""0.721""]","[0,1,1,1]",0,30,30,30,1,1,1,,,0,FALSE,1.4992,,,,,,,,,,,,,,,,,,,,,,,,,,,,,,
,60c60b19111ea4820fe36b4e,001,2022-04-29_03h11.11.605,classification_task,2021.2.3,Win32,60.07088364,60c60b19111ea4820fe36b4e,626b377229c10585ec392f89,626b3b10149194e4afdce1c7,,,,,,,,,,,,,,,,,,,,,,,a,1,"[""0.216"",""0.533"",""0.776"",""0.967""]","[1,1,0,1]",0,31,31,31,1,0,1,,,0,FALSE,1.6309,,,,,,,,,,,,,,,,,,,,,,,,,,,,,,
,60c60b19111ea4820fe36b4e,001,2022-04-29_03h11.11.605,classification_task,2021.2.3,Win32,60.07088364,60c60b19111ea4820fe36b4e,626b377229c10585ec392f89,626b3b10149194e4afdce1c7,,,,,,,,,,,,,,,,,,,,,,,a,0,"[""0.767"",""0.350"",""0.579"",""0.841""]","[0,1,1,1]",0,32,32,32,1,1,0,,,0,FALSE,1.1822,,,,,,,,,,,,,,,,,,,,,,,,,,,,,,
,60c60b19111ea4820fe36b4e,001,2022-04-29_03h11.11.605,classification_task,2021.2.3,Win32,60.07088364,60c60b19111ea4820fe36b4e,626b377229c10585ec392f89,626b3b10149194e4afdce1c7,,,,,,,,,,,,,,,,,,,,,,,l,0,"[""0.757"",""0.391"",""0.613"",""0.884""]","[0,1,1,1]",0,33,33,33,1,0,0,,,0,FALSE,1.3394,,,,,,,,,,,,,,,,,,,,,,,,,,,,,,
,60c60b19111ea4820fe36b4e,001,2022-04-29_03h11.11.605,classification_task,2021.2.3,Win32,60.07088364,60c60b19111ea4820fe36b4e,626b377229c10585ec392f89,626b3b10149194e4afdce1c7,,,,,,,,,,,,,,,,,,,,,,,a,0,"[""0.037"",""0.165"",""0.316"",""0.721""]","[1,1,0,1]",0,34,34,34,1,1,1,,,0,FALSE,1.2835,,,,,,,,,,,,,,,,,,,,,,,,,,,,,,
,60c60b19111ea4820fe36b4e,001,2022-04-29_03h11.11.605,classification_task,2021.2.3,Win32,60.07088364,60c60b19111ea4820fe36b4e,626b377229c10585ec392f89,626b3b10149194e4afdce1c7,,,,,,,,,,,,,,,,,,,,,,,a,1,"[""0.216"",""0.533"",""0.931"",""0.669""]","[1,1,1,0]",0,35,35,35,1,0,1,,,0,FALSE,1.227,,,,,,,,,,,,,,,,,,,,,,,,,,,,,,
,60c60b19111ea4820fe36b4e,001,2022-04-29_03h11.11.605,classification_task,2021.2.3,Win32,60.07088364,60c60b19111ea4820fe36b4e,626b377229c10585ec392f89,626b3b10149194e4afdce1c7,,,,,,,,,,,,,,,,,,,,,,,l,0,"[""0.216"",""0.794"",""0.931"",""0.967""]","[1,0,1,1]",0,36,36,36,1,0,1,,,0,FALSE,1.2733,,,,,,,,,,,,,,,,,,,,,,,,,,,,,,
,60c60b19111ea4820fe36b4e,001,2022-04-29_03h11.11.605,classification_task,2021.2.3,Win32,60.07088364,60c60b19111ea4820fe36b4e,626b377229c10585ec392f89,626b3b10149194e4afdce1c7,,,,,,,,,,,,,,,,,,,,,,,a,0,"[""0.037"",""0.426"",""0.483"",""0.721""]","[1,0,1,1]",0,37,37,37,1,1,1,,,0,FALSE,0.9391,,,,,,,,,,,,,,,,,,,,,,,,,,,,,,
,60c60b19111ea4820fe36b4e,001,2022-04-29_03h11.11.605,classification_task,2021.2.3,Win32,60.07088364,60c60b19111ea4820fe36b4e,626b377229c10585ec392f89,626b3b10149194e4afdce1c7,,,,,,,,,,,,,,,,,,,,,,,a,0,"[""0.669"",""0.165"",""0.483"",""0.721""]","[0,1,1,1]",0,38,38,38,1,1,1,,,0,FALSE,1.1804,,,,,,,,,,,,,,,,,,,,,,,,,,,,,,
,60c60b19111ea4820fe36b4e,001,2022-04-29_03h11.11.605,classification_task,2021.2.3,Win32,60.07088364,60c60b19111ea4820fe36b4e,626b377229c10585ec392f89,626b3b10149194e4afdce1c7,,,,,,,,,,,,,,,,,,,,,,,a,0,"[""0.037"",""0.165"",""0.483"",""0.678""]","[1,1,1,0]",0,39,39,39,1,1,1,,,0,FALSE,1.1447,,,,,,,,,,,,,,,,,,,,,,,,,,,,,,
,60c60b19111ea4820fe36b4e,001,2022-04-29_03h11.11.605,classification_task,2021.2.3,Win32,60.07088364,60c60b19111ea4820fe36b4e,626b377229c10585ec392f89,626b3b10149194e4afdce1c7,,,,,,,,,,,,,,,,,,,,,,,a,1,"[""0.274"",""0.683"",""0.613"",""0.884""]","[1,0,1,1]",0,40,40,40,1,0,0,,,0,FALSE,1.1379,,,,,,,,,,,,,,,,,,,,,,,,,,,,,,
,60c60b19111ea4820fe36b4e,001,2022-04-29_03h11.11.605,classification_task,2021.2.3,Win32,60.07088364,60c60b19111ea4820fe36b4e,626b377229c10585ec392f89,626b3b10149194e4afdce1c7,,,,,,,,,,,,,,,,,,,,,,,a,0,"[""0.107"",""0.350"",""0.758"",""0.841""]","[1,1,0,1]",0,41,41,41,1,1,0,,,0,FALSE,1.1529,,,,,,,,,,,,,,,,,,,,,,,,,,,,,,
,60c60b19111ea4820fe36b4e,001,2022-04-29_03h11.11.605,classification_task,2021.2.3,Win32,60.07088364,60c60b19111ea4820fe36b4e,626b377229c10585ec392f89,626b3b10149194e4afdce1c7,,,,,,,,,,,,,,,,,,,,,,,a,1,"[""0.216"",""0.533"",""0.685"",""0.967""]","[1,1,0,1]",0,42,42,42,1,0,1,,,0,FALSE,1.2457,,,,,,,,,,,,,,,,,,,,,,,,,,,,,,
,60c60b19111ea4820fe36b4e,001,2022-04-29_03h11.11.605,classification_task,2021.2.3,Win32,60.07088364,60c60b19111ea4820fe36b4e,626b377229c10585ec392f89,626b3b10149194e4afdce1c7,,,,,,,,,,,,,,,,,,,,,,,a,1,"[""0.274"",""0.391"",""0.758"",""0.884""]","[1,1,0,1]",0,43,43,43,1,0,0,,,0,FALSE,1.2351,,,,,,,,,,,,,,,,,,,,,,,,,,,,,,
,60c60b19111ea4820fe36b4e,001,2022-04-29_03h11.11.605,classification_task,2021.2.3,Win32,60.07088364,60c60b19111ea4820fe36b4e,626b377229c10585ec392f89,626b3b10149194e4afdce1c7,,,,,,,,,,,,,,,,,,,,,,,a,0,"[""0.107"",""0.350"",""0.579"",""0.316""]","[1,1,1,0]",0,44,44,44,1,1,0,,,0,FALSE,1.6654,,,,,,,,,,,,,,,,,,,,,,,,,,,,,,
,60c60b19111ea4820fe36b4e,001,2022-04-29_03h11.11.605,classification_task,2021.2.3,Win32,60.07088364,60c60b19111ea4820fe36b4e,626b377229c10585ec392f89,626b3b10149194e4afdce1c7,,,,,,,,,,,,,,,,,,,,,,,l,0,"[""0.428"",""0.533"",""0.931"",""0.967""]","[0,1,1,1]",0,45,45,45,1,0,1,,,0,FALSE,1.8862,,,,,,,,,,,,,,,,,,,,,,,,,,,,,,
,60c60b19111ea4820fe36b4e,001,2022-04-29_03h11.11.605,classification_task,2021.2.3,Win32,60.07088364,60c60b19111ea4820fe36b4e,626b377229c10585ec392f89,626b3b10149194e4afdce1c7,,,,,,,,,,,,,,,,,,,,,,,a,0,"[""0.107"",""0.313"",""0.579"",""0.841""]","[1,0,1,1]",0,46,46,46,1,1,0,,,0,FALSE,1.1754,,,,,,,,,,,,,,,,,,,,,,,,,,,,,,
,60c60b19111ea4820fe36b4e,001,2022-04-29_03h11.11.605,classification_task,2021.2.3,Win32,60.07088364,60c60b19111ea4820fe36b4e,626b377229c10585ec392f89,626b3b10149194e4afdce1c7,,,,,,,,,,,,,,,,,,,,,,,a,1,"[""0.274"",""0.391"",""0.613"",""0.426""]","[1,1,1,0]",0,47,47,47,1,0,0,,,0,FALSE,1.2021,,,,,,,,,,,,,,,,,,,,,,,,,,,,,,
,60c60b19111ea4820fe36b4e,001,2022-04-29_03h11.11.605,classification_task,2021.2.3,Win32,60.07088364,60c60b19111ea4820fe36b4e,626b377229c10585ec392f89,626b3b10149194e4afdce1c7,,,,,,,,,,,,,,,,,,,,,,,l,1,"[""0.436"",""0.350"",""0.579"",""0.841""]","[0,1,1,1]",0,48,48,48,1,1,0,,,0,FALSE,1.2344,,,,,,,,,,,,,,,,,,,,,,,,,,,,,,
,60c60b19111ea4820fe36b4e,001,2022-04-29_03h11.11.605,classification_task,2021.2.3,Win32,60.07088364,60c60b19111ea4820fe36b4e,626b377229c10585ec392f89,626b3b10149194e4afdce1c7,,,,,,,,,,,,,,,,,,,,,,,a,1,"[""0.274"",""0.391"",""0.428"",""0.884""]","[1,1,0,1]",0,49,49,49,1,0,0,,,0,FALSE,1.6203,,,,,,,,,,,,,,,,,,,,,,,,,,,,,,
,60c60b19111ea4820fe36b4e,001,2022-04-29_03h11.11.605,classification_task,2021.2.3,Win32,60.07088364,60c60b19111ea4820fe36b4e,626b377229c10585ec392f89,626b3b10149194e4afdce1c7,,,,,,,,,,,,,,,,,,,,,,,a,0,"[""0.107"",""0.350"",""0.579"",""0.316""]","[1,1,1,0]",0,50,50,50,1,1,0,,,0,FALSE,1.4268,,,,,,,,,,,,,,,,,,,,,,,,,,,,,,
,60c60b19111ea4820fe36b4e,001,2022-04-29_03h11.11.605,classification_task,2021.2.3,Win32,60.07088364,60c60b19111ea4820fe36b4e,626b377229c10585ec392f89,626b3b10149194e4afdce1c7,,,,,,,,,,,,,,,,,,,,,,,l,1,"[""0.037"",""0.165"",""0.426"",""0.721""]","[1,1,0,1]",0,51,51,51,1,1,1,,,0,FALSE,1.2917,,,,,,,,,,,,,,,,,,,,,,,,,,,,,,
,60c60b19111ea4820fe36b4e,001,2022-04-29_03h11.11.605,classification_task,2021.2.3,Win32,60.07088364,60c60b19111ea4820fe36b4e,626b377229c10585ec392f89,626b3b10149194e4afdce1c7,,,,,,,,,,,,,,,,,,,,,,,l,0,"[""0.669"",""0.533"",""0.931"",""0.967""]","[0,1,1,1]",0,52,52,52,1,0,1,,,0,FALSE,1.5521,,,,,,,,,,,,,,,,,,,,,,,,,,,,,,
,60c60b19111ea4820fe36b4e,001,2022-04-29_03h11.11.605,classification_task,2021.2.3,Win32,60.07088364,60c60b19111ea4820fe36b4e,626b377229c10585ec392f89,626b3b10149194e4afdce1c7,,,,,,,,,,,,,,,,,,,,,,,a,1,"[""0.216"",""0.533"",""0.931"",""0.428""]","[1,1,1,0]",0,53,53,53,1,0,1,,,0,FALSE,1.1066,,,,,,,,,,,,,,,,,,,,,,,,,,,,,,
,60c60b19111ea4820fe36b4e,001,2022-04-29_03h11.11.605,classification_task,2021.2.3,Win32,60.07088364,60c60b19111ea4820fe36b4e,626b377229c10585ec392f89,626b3b10149194e4afdce1c7,,,,,,,,,,,,,,,,,,,,,,,a,1,"[""0.216"",""0.426"",""0.931"",""0.967""]","[1,0,1,1]",0,54,54,54,1,0,1,,,0,FALSE,2.6415,,,,,,,,,,,,,,,,,,,,,,,,,,,,,,
,60c60b19111ea4820fe36b4e,001,2022-04-29_03h11.11.605,classification_task,2021.2.3,Win32,60.07088364,60c60b19111ea4820fe36b4e,626b377229c10585ec392f89,626b3b10149194e4afdce1c7,,,,,,,,,,,,,,,,,,,,,,,a,0,"[""0.037"",""0.428"",""0.483"",""0.721""]","[1,0,1,1]",0,55,55,55,1,1,1,,,0,FALSE,1.1951,,,,,,,,,,,,,,,,,,,,,,,,,,,,,,
,60c60b19111ea4820fe36b4e,001,2022-04-29_03h11.11.605,classification_task,2021.2.3,Win32,60.07088364,60c60b19111ea4820fe36b4e,626b377229c10585ec392f89,626b3b10149194e4afdce1c7,,,,,,,,,,,,,,,,,,,,,,,l,1,"[""0.107"",""0.758"",""0.579"",""0.841""]","[1,0,1,1]",0,56,56,56,1,1,0,,,0,FALSE,1.6305,,,,,,,,,,,,,,,,,,,,,,,,,,,,,,
,60c60b19111ea4820fe36b4e,001,2022-04-29_03h11.11.605,classification_task,2021.2.3,Win32,60.07088364,60c60b19111ea4820fe36b4e,626b377229c10585ec392f89,626b3b10149194e4afdce1c7,,,,,,,,,,,,,,,,,,,,,,,l,1,"[""0.107"",""0.350"",""0.428"",""0.841""]","[1,1,0,1]",0,57,57,57,1,1,0,,,0,FALSE,1.2908,,,,,,,,,,,,,,,,,,,,,,,,,,,,,,
,60c60b19111ea4820fe36b4e,001,2022-04-29_03h11.11.605,classification_task,2021.2.3,Win32,60.07088364,60c60b19111ea4820fe36b4e,626b377229c10585ec392f89,626b3b10149194e4afdce1c7,,,,,,,,,,,,,,,,,,,,,,,a,0,"[""0.037"",""0.165"",""0.483"",""0.758""]","[1,1,1,0]",0,58,58,58,1,1,1,,,0,FALSE,1.6517,,,,,,,,,,,,,,,,,,,,,,,,,,,,,,
,60c60b19111ea4820fe36b4e,001,2022-04-29_03h11.11.605,classification_task,2021.2.3,Win32,60.07088364,60c60b19111ea4820fe36b4e,626b377229c10585ec392f89,626b3b10149194e4afdce1c7,,,,,,,,,,,,,,,,,,,,,,,l,0,"[""0.274"",""0.391"",""0.613"",""0.757""]","[1,1,1,0]",0,59,59,59,1,0,0,,,0,FALSE,1.3605,,,,,,,,,,,,,,,,,,,,,,,,,,,,,,
,60c60b19111ea4820fe36b4e,001,2022-04-29_03h11.11.605,classification_task,2021.2.3,Win32,60.07088364,60c60b19111ea4820fe36b4e,626b377229c10585ec392f89,626b3b10149194e4afdce1c7,,,,,,,,,,,,,,,,,,,,,,,a,1,"[""0.274"",""0.316"",""0.613"",""0.884""]","[1,0,1,1]",0,60,60,60,1,0,0,,,0,FALSE,1.2056,,,,,,,,,,,,,,,,,,,,,,,,,,,,,,
,60c60b19111ea4820fe36b4e,001,2022-04-29_03h11.11.605,classification_task,2021.2.3,Win32,60.07088364,60c60b19111ea4820fe36b4e,626b377229c10585ec392f89,626b3b10149194e4afdce1c7,,,,,,,,,,,,,,,,,,,,,,,a,1,"[""0.216"",""0.533"",""0.673"",""0.967""]","[1,1,0,1]",0,61,61,61,1,0,1,,,0,FALSE,1.4855,,,,,,,,,,,,,,,,,,,,,,,,,,,,,,
,60c60b19111ea4820fe36b4e,001,2022-04-29_03h11.11.605,classification_task,2021.2.3,Win32,60.07088364,60c60b19111ea4820fe36b4e,626b377229c10585ec392f89,626b3b10149194e4afdce1c7,,,,,,,,,,,,,,,,,,,,,,,a,0,"[""0.436"",""0.165"",""0.483"",""0.721""]","[0,1,1,1]",0,62,62,62,1,1,1,,,0,FALSE,1.2255,,,,,,,,,,,,,,,,,,,,,,,,,,,,,,
,60c60b19111ea4820fe36b4e,001,2022-04-29_03h11.11.605,classification_task,2021.2.3,Win32,60.07088364,60c60b19111ea4820fe36b4e,626b377229c10585ec392f89,626b3b10149194e4afdce1c7,,,,,,,,,,,,,,,,,,,,,,,a,1,"[""0.436"",""0.391"",""0.613"",""0.884""]","[0,1,1,1]",0,63,63,63,1,0,0,,,0,FALSE,1.2252,,,,,,,,,,,,,,,,,,,,,,,,,,,,,,
,60c60b19111ea4820fe36b4e,001,2022-04-29_03h11.11.605,classification_task,2021.2.3,Win32,60.07088364,60c60b19111ea4820fe36b4e,626b377229c10585ec392f89,626b3b10149194e4afdce1c7,,,,,,,,,,,,,,,,,,,,,,,,,,,,,,,,,,,,,,,0, ,,0,5.318440881,222.8222,0,2,2,2,1,2,3,,,,,,,,,,,,,,,,,
,60c60b19111ea4820fe36b4e,001,2022-04-29_03h11.11.605,classification_task,2021.2.3,Win32,60.07088364,60c60b19111ea4820fe36b4e,626b377229c10585ec392f89,626b3b10149194e4afdce1c7,,,,,,,,,,,,,,,,,,,,,,,,,,,,,,,,,,,,,,,1,  ,,0,5.416423208,220.3774,0,2,2,2,1,2,3,,,,,,,,,,,,,,,,,
,60c60b19111ea4820fe36b4e,001,2022-04-29_03h11.11.605,classification_task,2021.2.3,Win32,60.07088364,60c60b19111ea4820fe36b4e,626b377229c10585ec392f89,626b3b10149194e4afdce1c7,,,,,,,,,,,,,,,,,,,,,,,,,,,,,,,,,,,,,,,2,  ,,0,8.355870592,226.8695,0,2,2,2,1,2,3,,,,,,,,,,,,,,,,,
,60c60b19111ea4820fe36b4e,001,2022-04-29_03h11.11.605,classification_task,2021.2.3,Win32,60.07088364,60c60b19111ea4820fe36b4e,626b377229c10585ec392f89,626b3b10149194e4afdce1c7,,,,,,,,,,,,,,,,,,,,,,,,,,,,,,,,,,,,,,,,,,,,,0,2,2,2,1,,3,,,,,,,,,,,,,,,,,
,60c60b19111ea4820fe36b4e,001,2022-04-29_03h11.11.605,classification_task,2021.2.3,Win32,60.07088364,60c60b19111ea4820fe36b4e,626b377229c10585ec392f89,626b3b10149194e4afdce1c7,,,,,,,,,,,,,,,,,,,,,,,,,,,,,,,,,,,,,,,,,,,,,,,,,,,,,I believe the aid is a competent performer,,0.7,0,4,1193.8588,0,0,0,0,1,0,,,,
,60c60b19111ea4820fe36b4e,001,2022-04-29_03h11.11.605,classification_task,2021.2.3,Win32,60.07088364,60c60b19111ea4820fe36b4e,626b377229c10585ec392f89,626b3b10149194e4afdce1c7,,,,,,,,,,,,,,,,,,,,,,,,,,,,,,,,,,,,,,,,,,,,,,,,,,,,,I trust the aid,,0.7,0,5,1197.0446,0,0,0,0,1,0,,,,
,60c60b19111ea4820fe36b4e,001,2022-04-29_03h11.11.605,classification_task,2021.2.3,Win32,60.07088364,60c60b19111ea4820fe36b4e,626b377229c10585ec392f89,626b3b10149194e4afdce1c7,,,,,,,,,,,,,,,,,,,,,,,,,,,,,,,,,,,,,,,,,,,,,,,,,,,,,I have confidence in the advice given by the aid,,0.7,0,5,1198.4917,0,0,0,0,1,0,,,,
,60c60b19111ea4820fe36b4e,001,2022-04-29_03h11.11.605,classification_task,2021.2.3,Win32,60.07088364,60c60b19111ea4820fe36b4e,626b377229c10585ec392f89,626b3b10149194e4afdce1c7,,,,,,,,,,,,,,,,,,,,,,,,,,,,,,,,,,,,,,,,,,,,,,,,,,,,,I can depend on the aid,,0.7,0,4,1200.4068,0,0,0,0,1,0,,,,
,60c60b19111ea4820fe36b4e,001,2022-04-29_03h11.11.605,classification_task,2021.2.3,Win32,60.07088364,60c60b19111ea4820fe36b4e,626b377229c10585ec392f89,626b3b10149194e4afdce1c7,,,,,,,,,,,,,,,,,,,,,,,,,,,,,,,,,,,,,,,,,,,,,,,,,,,,,I can rely on the aid to behave in consistent ways,,0.7,0,4,1204.3716,0,0,0,0,1,0,,,,
,60c60b19111ea4820fe36b4e,001,2022-04-29_03h11.11.605,classification_task,2021.2.3,Win32,60.07088364,60c60b19111ea4820fe36b4e,626b377229c10585ec392f89,626b3b10149194e4afdce1c7,,,,,,,,,,,,,,,,,,,,,,,,,,,,,,,,,,,,,,,,,,,,,,,,,,,,,I can rely on the aid to do its best every time I take its advice,,0.7,0,4,1208.0037,0,0,0,0,1,0,,,,
,60c60b19111ea4820fe36b4e,001,2022-04-29_03h11.11.605,classification_task,2021.2.3,Win32,60.07088364,60c60b19111ea4820fe36b4e,626b377229c10585ec392f89,626b3b10149194e4afdce1c7,,,,,,,,,,,,,,,,,,,,,,,,,,,,,,,,,,,,,,,,,,,,,,,,,,,,,"On trials you completed with assistance from the aid, how frequently did you think the aid was correct?",,0.7,0,Nearly always,,0,0,0,0,1,0,,,,
,60c60b19111ea4820fe36b4e,001,2022-04-29_03h11.11.605,classification_task,2021.2.3,Win32,60.07088364,60c60b19111ea4820fe36b4e,626b377229c10585ec392f89,626b3b10149194e4afdce1c7,,,,,,,,,,,,,,,,,,,,,,,,,,,,,,,,,,,,,,,,,,,,,,,,,,,,,"On trials you completed without the aid, how frequently did you think you were correct?",,0.7,0,Less than without aid,,0,0,0,0,1,0,,,,
,60c60b19111ea4820fe36b4e,001,2022-04-29_03h11.11.605,classification_task,2021.2.3,Win32,60.07088364,60c60b19111ea4820fe36b4e,626b377229c10585ec392f89,626b3b10149194e4afdce1c7,,,,,,,,,,,,,,,,,,,,,,,,,,,,,,,,,,,,,,,,,,,,,,,,,,,,,,,,,,,0,0,0,0,1,,,,,
,60c60b19111ea4820fe36b4e,001,2022-04-29_03h11.11.605,classification_task,2021.2.3,Win32,60.07088364,60c60b19111ea4820fe36b4e,626b377229c10585ec392f89,626b3b10149194e4afdce1c7,,,,,,,,,,,,,,,,,,,,,,,,,,,,,,,,,,,,,,,,,,,,,,,,,,,,,,,,,,,,,,,,,space,46.4497,1317.4777,
,60c60b19111ea4820fe36b4e,001,2022-04-29_03h11.11.605,classification_task,2021.2.3,Win32,60.07088364,60c60b19111ea4820fe36b4e,626b377229c10585ec392f89,626b3b10149194e4afdce1c7,,,,,,,,,,,,,,,,,,,,,,,,,,,,,,,,,,,,,,,,,,,,,,,,,,,,,,,,,,,,,,,,,,,,"Mozilla/5.0 (Windows NT 10.0; Win64; x64) AppleWebKit/537.36 (KHTML, like Gecko) Chrome/100.0.4896.127 Safari/537.36 Edg/100.0.1185.50"
