usingWebGL,participant,session,date,expName,psychopyVersion,OS,frameRate,study_id,signatures_friend,signatures_foe,band_ranges_top,band_ranges_bottom,formitemText,formtype,formundefined,formitemWidth,formindex,formresponse,formrt,key_resp_2.keys,key_resp_2.rt,tute_resp.keys,tute_resp.rt,tutorial.thisRepN,tutorial.thisTrialN,tutorial.thisN,tutorial.thisIndex,tutorial.ran,key_resp_4.keys,key_resp_4.rt,key_resp.keys,key_resp.corr,key_resp.rt,lines_presented,is_signal_presented,trials.thisRepN,trials.thisTrialN,trials.thisN,trials.thisIndex,trials.ran,vessel,active_band,lines,is_signal,supported_pos,catch_trial,debrief_formindex,debrief_formitemText,debrief_formtype,debrief_formitemWidth,debrief_formresponse,debrief_formrt,phases.thisRepN,phases.thisTrialN,phases.thisN,phases.thisIndex,phases.ran,phases.order,phase,key_resp_3.keys,trustitemText,trusttype,trustitemWidth,trustindex,trustresponse,trustrt,support_status.thisRepN,support_status.thisTrialN,support_status.thisN,support_status.thisIndex,support_status.ran,support_status.order,key_resp_5.keys,key_resp_5.rt,globalClockTime,userAgent,manualCondition
TRUE,60caf58c38ce3e0f5a51f62b,627c75a1efca33151b5232d8,2022-05-12_11h49.50.036,classification_task,2021.2.3,Win32,60.26637739,627c6715c52fd12f31907bd0,,,,,,,,,,,,,,,,,,,,,,,,,,,,,,,,,,,,,,,,,,,,,,,,,,,,,,,,,,,,,,,,,,,,,
,60caf58c38ce3e0f5a51f62b,627c75a1efca33151b5232d8,2022-05-12_11h49.50.036,classification_task,2021.2.3,Win32,60.26637739,627c6715c52fd12f31907bd0,"[[""0.182"",""0.419"",""0.850"",""0.916""],[""0.226"",""0.375"",""0.677"",""0.973""]]","[[""0.072"",""0.109"",""0.580"",""0.770""],[""0.147"",""0.298"",""0.495"",""0.730""]]","[1,10]","[100,1000]",Video game experience,,,0.7,0,,,,,,,,,,,,,,,,,,,,,,,,,,,,,,,,,,,,,,,,,,,,,,,,,,,,,,,,,,,,
,60caf58c38ce3e0f5a51f62b,627c75a1efca33151b5232d8,2022-05-12_11h49.50.036,classification_task,2021.2.3,Win32,60.26637739,627c6715c52fd12f31907bd0,,,,,Approximately how many hours did you spend playing video games in the last week?,,,0.7,0,0,,,,,,,,,,,,,,,,,,,,,,,,,,,,,,,,,,,,,,,,,,,,,,,,,,,,,,,,,,,
,60caf58c38ce3e0f5a51f62b,627c75a1efca33151b5232d8,2022-05-12_11h49.50.036,classification_task,2021.2.3,Win32,60.26637739,627c6715c52fd12f31907bd0,,,,,"Which game did you play the most this year? (Enter ""None"" if you didn't play any)",,,0.7,0,None,,,,,,,,,,,,,,,,,,,,,,,,,,,,,,,,,,,,,,,,,,,,,,,,,,,,,,,,,,,
,60caf58c38ce3e0f5a51f62b,627c75a1efca33151b5232d8,2022-05-12_11h49.50.036,classification_task,2021.2.3,Win32,60.26637739,627c6715c52fd12f31907bd0,,,,,Visual perception,,,0.7,0,,,,,,,,,,,,,,,,,,,,,,,,,,,,,,,,,,,,,,,,,,,,,,,,,,,,,,,,,,,,
,60caf58c38ce3e0f5a51f62b,627c75a1efca33151b5232d8,2022-05-12_11h49.50.036,classification_task,2021.2.3,Win32,60.26637739,627c6715c52fd12f31907bd0,,,,,Do you have any form of color blindness?,,,0.7,0,No,11.3523,,,,,,,,,,,,,,,,,,,,,,,,,,,,,,,,,,,,,,,,,,,,,,,,,,,,,,,,,,
,60caf58c38ce3e0f5a51f62b,627c75a1efca33151b5232d8,2022-05-12_11h49.50.036,classification_task,2021.2.3,Win32,60.26637739,627c6715c52fd12f31907bd0,,,,,Do you use software to change the colour temperature of your screen (e.g. f.lux)?,,,0.7,0,No,13.4629,,,,,,,,,,,,,,,,,,,,,,,,,,,,,,,,,,,,,,,,,,,,,,,,,,,,,,,,,,
,60caf58c38ce3e0f5a51f62b,627c75a1efca33151b5232d8,2022-05-12_11h49.50.036,classification_task,2021.2.3,Win32,60.26637739,627c6715c52fd12f31907bd0,,,,,,,,,,,,space,232.1295,space,28.7607,0,0,0,0,1,,,,,,,,,,,,,,,,,,,,,,,,,,,,,,,,,,,,,,,,,,,,,,,,,
,60caf58c38ce3e0f5a51f62b,627c75a1efca33151b5232d8,2022-05-12_11h49.50.036,classification_task,2021.2.3,Win32,60.26637739,627c6715c52fd12f31907bd0,,,,,,,,,,,,,,space,3.9459,1,0,1,0,1,,,,,,,,,,,,,,,,,,,,,,,,,,,,,,,,,,,,,,,,,,,,,,,,,
,60caf58c38ce3e0f5a51f62b,627c75a1efca33151b5232d8,2022-05-12_11h49.50.036,classification_task,2021.2.3,Win32,60.26637739,627c6715c52fd12f31907bd0,,,,,,,,,,,,,,space,7.5722,2,0,2,0,1,,,,,,,,,,,,,,,,,,,,,,,,,,,,,,,,,,,,,,,,,,,,,,,,,
,60caf58c38ce3e0f5a51f62b,627c75a1efca33151b5232d8,2022-05-12_11h49.50.036,classification_task,2021.2.3,Win32,60.26637739,627c6715c52fd12f31907bd0,,,,,,,,,,,,,,space,13.28,3,0,3,0,1,,,,,,,,,,,,,,,,,,,,,,,,,,,,,,,,,,,,,,,,,,,,,,,,,
,60caf58c38ce3e0f5a51f62b,627c75a1efca33151b5232d8,2022-05-12_11h49.50.036,classification_task,2021.2.3,Win32,60.26637739,627c6715c52fd12f31907bd0,,,,,,,,,,,,,,space,61.0582,4,0,4,0,1,,,,,,,,,,,,,,,,,,,,,,,,,,,,,,,,,,,,,,,,,,,,,,,,,
,60caf58c38ce3e0f5a51f62b,627c75a1efca33151b5232d8,2022-05-12_11h49.50.036,classification_task,2021.2.3,Win32,60.26637739,627c6715c52fd12f31907bd0,,,,,,,,,,,,,,,,,,,,,space,2.9158,l,0,2.1175,"[""0.538"",""0.375"",""0.677"",""0.973""]","[0,1,1,1]",0,0,0,0,1,0,1,,,0,FALSE,,,,,,,,,,,,,,,,,,,,,,,,,,,,,,,
,60caf58c38ce3e0f5a51f62b,627c75a1efca33151b5232d8,2022-05-12_11h49.50.036,classification_task,2021.2.3,Win32,60.26637739,627c6715c52fd12f31907bd0,,,,,,,,,,,,,,,,,,,,,,,,0,,"[""0.025"",""0.109"",""0.580"",""0.770""]","[0,1,1,1]",0,1,1,1,1,1,0,,,0,FALSE,,,,,,,,,,,,,,,,,,,,,,,,,,,,,,,
,60caf58c38ce3e0f5a51f62b,627c75a1efca33151b5232d8,2022-05-12_11h49.50.036,classification_task,2021.2.3,Win32,60.26637739,627c6715c52fd12f31907bd0,,,,,,,,,,,,,,,,,,,,,,,l,1,3.4051,"[""0.147"",""0.546"",""0.495"",""0.730""]","[1,0,1,1]",0,2,2,2,1,1,1,,,0,FALSE,,,,,,,,,,,,,,,,,,,,,,,,,,,,,,,
,60caf58c38ce3e0f5a51f62b,627c75a1efca33151b5232d8,2022-05-12_11h49.50.036,classification_task,2021.2.3,Win32,60.26637739,627c6715c52fd12f31907bd0,,,,,,,,,,,,,,,,,,,,,,,l,1,4.126,"[""0.147"",""0.298"",""0.495"",""0.808""]","[1,1,1,0]",0,3,3,3,1,1,1,,,0,FALSE,,,,,,,,,,,,,,,,,,,,,,,,,,,,,,,
,60caf58c38ce3e0f5a51f62b,627c75a1efca33151b5232d8,2022-05-12_11h49.50.036,classification_task,2021.2.3,Win32,60.26637739,627c6715c52fd12f31907bd0,,,,,,,,,,,,,,,,,,,,,,,l,1,4.0464,"[""0.147"",""0.298"",""0.808"",""0.730""]","[1,1,0,1]",0,4,4,4,1,1,1,,,0,FALSE,,,,,,,,,,,,,,,,,,,,,,,,,,,,,,,
,60caf58c38ce3e0f5a51f62b,627c75a1efca33151b5232d8,2022-05-12_11h49.50.036,classification_task,2021.2.3,Win32,60.26637739,627c6715c52fd12f31907bd0,,,,,,,,,,,,,,,,,,,,,,,a,1,2.6236,"[""0.182"",""0.419"",""0.619"",""0.916""]","[1,1,0,1]",0,5,5,5,1,0,0,,,0,FALSE,,,,,,,,,,,,,,,,,,,,,,,,,,,,,,,
,60caf58c38ce3e0f5a51f62b,627c75a1efca33151b5232d8,2022-05-12_11h49.50.036,classification_task,2021.2.3,Win32,60.26637739,627c6715c52fd12f31907bd0,,,,,,,,,,,,,,,,,,,,,,,l,1,4.3154,"[""0.072"",""0.530"",""0.580"",""0.770""]","[1,0,1,1]",0,6,6,6,1,1,0,,,0,FALSE,,,,,,,,,,,,,,,,,,,,,,,,,,,,,,,
,60caf58c38ce3e0f5a51f62b,627c75a1efca33151b5232d8,2022-05-12_11h49.50.036,classification_task,2021.2.3,Win32,60.26637739,627c6715c52fd12f31907bd0,,,,,,,,,,,,,,,,,,,,,,,l,1,4.5536,"[""0.620"",""0.298"",""0.495"",""0.730""]","[0,1,1,1]",0,7,7,7,1,1,1,,,0,FALSE,,,,,,,,,,,,,,,,,,,,,,,,,,,,,,,
,60caf58c38ce3e0f5a51f62b,627c75a1efca33151b5232d8,2022-05-12_11h49.50.036,classification_task,2021.2.3,Win32,60.26637739,627c6715c52fd12f31907bd0,,,,,,,,,,,,,,,,,,,,,,,a,1,2.0914,"[""0.182"",""0.538"",""0.850"",""0.916""]","[1,0,1,1]",0,8,8,8,1,0,0,,,0,FALSE,,,,,,,,,,,,,,,,,,,,,,,,,,,,,,,
,60caf58c38ce3e0f5a51f62b,627c75a1efca33151b5232d8,2022-05-12_11h49.50.036,classification_task,2021.2.3,Win32,60.26637739,627c6715c52fd12f31907bd0,,,,,,,,,,,,,,,,,,,,,,,a,1,3.3218,"[""0.182"",""0.419"",""0.850"",""0.340""]","[1,1,1,0]",0,9,9,9,1,0,0,,,0,FALSE,,,,,,,,,,,,,,,,,,,,,,,,,,,,,,,
,60caf58c38ce3e0f5a51f62b,627c75a1efca33151b5232d8,2022-05-12_11h49.50.036,classification_task,2021.2.3,Win32,60.26637739,627c6715c52fd12f31907bd0,,,,,,,,,,,,,,,,,,,,,,,a,1,2.7565,"[""0.226"",""0.620"",""0.677"",""0.973""]","[1,0,1,1]",0,10,10,10,1,0,1,,,0,FALSE,,,,,,,,,,,,,,,,,,,,,,,,,,,,,,,
,60caf58c38ce3e0f5a51f62b,627c75a1efca33151b5232d8,2022-05-12_11h49.50.036,classification_task,2021.2.3,Win32,60.26637739,627c6715c52fd12f31907bd0,,,,,,,,,,,,,,,,,,,,,,,a,1,3.7837,"[""0.226"",""0.375"",""0.677"",""0.340""]","[1,1,1,0]",0,11,11,11,1,0,1,,,0,FALSE,,,,,,,,,,,,,,,,,,,,,,,,,,,,,,,
,60caf58c38ce3e0f5a51f62b,627c75a1efca33151b5232d8,2022-05-12_11h49.50.036,classification_task,2021.2.3,Win32,60.26637739,627c6715c52fd12f31907bd0,,,,,,,,,,,,,,,,,,,,,,,l,1,3.5549,"[""0.072"",""0.109"",""0.340"",""0.770""]","[1,1,0,1]",0,12,12,12,1,1,0,,,0,FALSE,,,,,,,,,,,,,,,,,,,,,,,,,,,,,,,
,60caf58c38ce3e0f5a51f62b,627c75a1efca33151b5232d8,2022-05-12_11h49.50.036,classification_task,2021.2.3,Win32,60.26637739,627c6715c52fd12f31907bd0,,,,,,,,,,,,,,,,,,,,,,,l,1,2.4181,"[""0.072"",""0.109"",""0.580"",""0.341""]","[1,1,1,0]",0,13,13,13,1,1,0,,,0,FALSE,,,,,,,,,,,,,,,,,,,,,,,,,,,,,,,
,60caf58c38ce3e0f5a51f62b,627c75a1efca33151b5232d8,2022-05-12_11h49.50.036,classification_task,2021.2.3,Win32,60.26637739,627c6715c52fd12f31907bd0,,,,,,,,,,,,,,,,,,,,,,,a,1,2.2765,"[""0.226"",""0.375"",""0.808"",""0.973""]","[1,1,0,1]",0,14,14,14,1,0,1,,,0,FALSE,,,,,,,,,,,,,,,,,,,,,,,,,,,,,,,
,60caf58c38ce3e0f5a51f62b,627c75a1efca33151b5232d8,2022-05-12_11h49.50.036,classification_task,2021.2.3,Win32,60.26637739,627c6715c52fd12f31907bd0,,,,,,,,,,,,,,,,,,,,,,,a,1,2.4805,"[""0.620"",""0.419"",""0.850"",""0.916""]","[0,1,1,1]",0,15,15,15,1,0,0,,,0,FALSE,,,,,,,,,,,,,,,,,,,,,,,,,,,,,,,
,60caf58c38ce3e0f5a51f62b,627c75a1efca33151b5232d8,2022-05-12_11h49.50.036,classification_task,2021.2.3,Win32,60.26637739,627c6715c52fd12f31907bd0,,,,,,,,,,,,,,,,,,,,,,,l,0,1.9575,"[""0.182"",""0.419"",""0.341"",""0.916""]","[1,1,0,1]",0,16,16,16,1,0,0,,,0,FALSE,,,,,,,,,,,,,,,,,,,,,,,,,,,,,,,
,60caf58c38ce3e0f5a51f62b,627c75a1efca33151b5232d8,2022-05-12_11h49.50.036,classification_task,2021.2.3,Win32,60.26637739,627c6715c52fd12f31907bd0,,,,,,,,,,,,,,,,,,,,,,,a,1,7.2875,"[""0.534"",""0.375"",""0.677"",""0.973""]","[0,1,1,1]",0,17,17,17,1,0,1,,,0,FALSE,,,,,,,,,,,,,,,,,,,,,,,,,,,,,,,
,60caf58c38ce3e0f5a51f62b,627c75a1efca33151b5232d8,2022-05-12_11h49.50.036,classification_task,2021.2.3,Win32,60.26637739,627c6715c52fd12f31907bd0,,,,,,,,,,,,,,,,,,,,,,,l,1,4.0054,"[""0.546"",""0.109"",""0.580"",""0.770""]","[0,1,1,1]",0,18,18,18,1,1,0,,,0,FALSE,,,,,,,,,,,,,,,,,,,,,,,,,,,,,,,
,60caf58c38ce3e0f5a51f62b,627c75a1efca33151b5232d8,2022-05-12_11h49.50.036,classification_task,2021.2.3,Win32,60.26637739,627c6715c52fd12f31907bd0,,,,,,,,,,,,,,,,,,,,,,,l,1,3.0555,"[""0.147"",""0.298"",""0.530"",""0.730""]","[1,1,0,1]",0,19,19,19,1,1,1,,,0,FALSE,,,,,,,,,,,,,,,,,,,,,,,,,,,,,,,
,60caf58c38ce3e0f5a51f62b,627c75a1efca33151b5232d8,2022-05-12_11h49.50.036,classification_task,2021.2.3,Win32,60.26637739,627c6715c52fd12f31907bd0,,,,,,,,,,,,,,,,,,,,,,,a,1,4.9076,"[""0.182"",""0.642"",""0.850"",""0.916""]","[1,0,1,1]",0,20,20,20,1,0,0,,,0,FALSE,,,,,,,,,,,,,,,,,,,,,,,,,,,,,,,
,60caf58c38ce3e0f5a51f62b,627c75a1efca33151b5232d8,2022-05-12_11h49.50.036,classification_task,2021.2.3,Win32,60.26637739,627c6715c52fd12f31907bd0,,,,,,,,,,,,,,,,,,,,,,,a,1,2.8508,"[""0.615"",""0.419"",""0.850"",""0.916""]","[0,1,1,1]",0,21,21,21,1,0,0,,,0,FALSE,,,,,,,,,,,,,,,,,,,,,,,,,,,,,,,
,60caf58c38ce3e0f5a51f62b,627c75a1efca33151b5232d8,2022-05-12_11h49.50.036,classification_task,2021.2.3,Win32,60.26637739,627c6715c52fd12f31907bd0,,,,,,,,,,,,,,,,,,,,,,,l,1,3.2344,"[""0.072"",""0.636"",""0.580"",""0.770""]","[1,0,1,1]",0,22,22,22,1,1,0,,,0,FALSE,,,,,,,,,,,,,,,,,,,,,,,,,,,,,,,
,60caf58c38ce3e0f5a51f62b,627c75a1efca33151b5232d8,2022-05-12_11h49.50.036,classification_task,2021.2.3,Win32,60.26637739,627c6715c52fd12f31907bd0,,,,,,,,,,,,,,,,,,,,,,,l,1,2.5071,"[""0.072"",""0.109"",""0.636"",""0.770""]","[1,1,0,1]",0,23,23,23,1,1,0,,,0,FALSE,,,,,,,,,,,,,,,,,,,,,,,,,,,,,,,
,60caf58c38ce3e0f5a51f62b,627c75a1efca33151b5232d8,2022-05-12_11h49.50.036,classification_task,2021.2.3,Win32,60.26637739,627c6715c52fd12f31907bd0,,,,,,,,,,,,,,,,,,,,,,,a,1,2.1688,"[""0.226"",""0.636"",""0.677"",""0.973""]","[1,0,1,1]",0,24,24,24,1,0,1,,,0,FALSE,,,,,,,,,,,,,,,,,,,,,,,,,,,,,,,
,60caf58c38ce3e0f5a51f62b,627c75a1efca33151b5232d8,2022-05-12_11h49.50.036,classification_task,2021.2.3,Win32,60.26637739,627c6715c52fd12f31907bd0,,,,,,,,,,,,,,,,,,,,,,,a,1,1.4853,"[""0.226"",""0.375"",""0.530"",""0.973""]","[1,1,0,1]",0,25,25,25,1,0,1,,,0,FALSE,,,,,,,,,,,,,,,,,,,,,,,,,,,,,,,
,60caf58c38ce3e0f5a51f62b,627c75a1efca33151b5232d8,2022-05-12_11h49.50.036,classification_task,2021.2.3,Win32,60.26637739,627c6715c52fd12f31907bd0,,,,,,,,,,,,,,,,,,,,,,,a,1,1.2293,"[""0.226"",""0.375"",""0.677"",""0.341""]","[1,1,1,0]",0,26,26,26,1,0,1,,,0,FALSE,,,,,,,,,,,,,,,,,,,,,,,,,,,,,,,
,60caf58c38ce3e0f5a51f62b,627c75a1efca33151b5232d8,2022-05-12_11h49.50.036,classification_task,2021.2.3,Win32,60.26637739,627c6715c52fd12f31907bd0,,,,,,,,,,,,,,,,,,,,,,,l,1,2.6597,"[""0.619"",""0.298"",""0.495"",""0.730""]","[0,1,1,1]",0,27,27,27,1,1,1,,,0,FALSE,,,,,,,,,,,,,,,,,,,,,,,,,,,,,,,
,60caf58c38ce3e0f5a51f62b,627c75a1efca33151b5232d8,2022-05-12_11h49.50.036,classification_task,2021.2.3,Win32,60.26637739,627c6715c52fd12f31907bd0,,,,,,,,,,,,,,,,,,,,,,,a,0,3.4156,"[""0.147"",""0.298"",""0.495"",""0.340""]","[1,1,1,0]",0,28,28,28,1,1,1,,,0,FALSE,,,,,,,,,,,,,,,,,,,,,,,,,,,,,,,
,60caf58c38ce3e0f5a51f62b,627c75a1efca33151b5232d8,2022-05-12_11h49.50.036,classification_task,2021.2.3,Win32,60.26637739,627c6715c52fd12f31907bd0,,,,,,,,,,,,,,,,,,,,,,,l,1,2.8109,"[""0.072"",""0.109"",""0.580"",""0.530""]","[1,1,1,0]",0,29,29,29,1,1,0,,,0,FALSE,,,,,,,,,,,,,,,,,,,,,,,,,,,,,,,
,60caf58c38ce3e0f5a51f62b,627c75a1efca33151b5232d8,2022-05-12_11h49.50.036,classification_task,2021.2.3,Win32,60.26637739,627c6715c52fd12f31907bd0,,,,,,,,,,,,,,,,,,,,,,,l,1,3.4227,"[""0.147"",""0.530"",""0.495"",""0.730""]","[1,0,1,1]",0,30,30,30,1,1,1,,,0,FALSE,,,,,,,,,,,,,,,,,,,,,,,,,,,,,,,
,60caf58c38ce3e0f5a51f62b,627c75a1efca33151b5232d8,2022-05-12_11h49.50.036,classification_task,2021.2.3,Win32,60.26637739,627c6715c52fd12f31907bd0,,,,,,,,,,,,,,,,,,,,,,,a,1,2.2421,"[""0.182"",""0.419"",""0.850"",""0.620""]","[1,1,1,0]",0,31,31,31,1,0,0,,,0,FALSE,,,,,,,,,,,,,,,,,,,,,,,,,,,,,,,
,60caf58c38ce3e0f5a51f62b,627c75a1efca33151b5232d8,2022-05-12_11h49.50.036,classification_task,2021.2.3,Win32,60.26637739,627c6715c52fd12f31907bd0,,,,,,,,,,,,,,,,,,,,,,,,0,,"[""0.226"",""0.340"",""0.677"",""0.973""]","[1,0,1,1]",0,32,32,32,1,0,1,,,0,FALSE,,,,,,,,,,,,,,,,,,,,,,,,,,,,,,,
,60caf58c38ce3e0f5a51f62b,627c75a1efca33151b5232d8,2022-05-12_11h49.50.036,classification_task,2021.2.3,Win32,60.26637739,627c6715c52fd12f31907bd0,,,,,,,,,,,,,,,,,,,,,,,a,0,2.8201,"[""0.147"",""0.298"",""0.495"",""0.642""]","[1,1,1,0]",0,33,33,33,1,1,1,,,0,FALSE,,,,,,,,,,,,,,,,,,,,,,,,,,,,,,,
,60caf58c38ce3e0f5a51f62b,627c75a1efca33151b5232d8,2022-05-12_11h49.50.036,classification_task,2021.2.3,Win32,60.26637739,627c6715c52fd12f31907bd0,,,,,,,,,,,,,,,,,,,,,,,a,0,2.1527,"[""0.072"",""0.619"",""0.580"",""0.770""]","[1,0,1,1]",0,34,34,34,1,1,0,,,0,FALSE,,,,,,,,,,,,,,,,,,,,,,,,,,,,,,,
,60caf58c38ce3e0f5a51f62b,627c75a1efca33151b5232d8,2022-05-12_11h49.50.036,classification_task,2021.2.3,Win32,60.26637739,627c6715c52fd12f31907bd0,,,,,,,,,,,,,,,,,,,,,,,l,1,0.5803,"[""0.619"",""0.109"",""0.580"",""0.770""]","[0,1,1,1]",0,35,35,35,1,1,0,,,0,FALSE,,,,,,,,,,,,,,,,,,,,,,,,,,,,,,,
,60caf58c38ce3e0f5a51f62b,627c75a1efca33151b5232d8,2022-05-12_11h49.50.036,classification_task,2021.2.3,Win32,60.26637739,627c6715c52fd12f31907bd0,,,,,,,,,,,,,,,,,,,,,,,l,0,1.9325,"[""0.546"",""0.375"",""0.677"",""0.973""]","[0,1,1,1]",0,36,36,36,1,0,1,,,0,FALSE,,,,,,,,,,,,,,,,,,,,,,,,,,,,,,,
,60caf58c38ce3e0f5a51f62b,627c75a1efca33151b5232d8,2022-05-12_11h49.50.036,classification_task,2021.2.3,Win32,60.26637739,627c6715c52fd12f31907bd0,,,,,,,,,,,,,,,,,,,,,,,l,0,1.3522,"[""0.226"",""0.375"",""0.032"",""0.973""]","[1,1,0,1]",0,37,37,37,1,0,1,,,0,FALSE,,,,,,,,,,,,,,,,,,,,,,,,,,,,,,,
,60caf58c38ce3e0f5a51f62b,627c75a1efca33151b5232d8,2022-05-12_11h49.50.036,classification_task,2021.2.3,Win32,60.26637739,627c6715c52fd12f31907bd0,,,,,,,,,,,,,,,,,,,,,,,a,0,0.9146,"[""0.538"",""0.298"",""0.495"",""0.730""]","[0,1,1,1]",0,38,38,38,1,1,1,,,0,FALSE,,,,,,,,,,,,,,,,,,,,,,,,,,,,,,,
,60caf58c38ce3e0f5a51f62b,627c75a1efca33151b5232d8,2022-05-12_11h49.50.036,classification_task,2021.2.3,Win32,60.26637739,627c6715c52fd12f31907bd0,,,,,,,,,,,,,,,,,,,,,,,a,1,1.2167,"[""0.182"",""0.419"",""0.642"",""0.916""]","[1,1,0,1]",0,39,39,39,1,0,0,,,0,FALSE,,,,,,,,,,,,,,,,,,,,,,,,,,,,,,,
,60caf58c38ce3e0f5a51f62b,627c75a1efca33151b5232d8,2022-05-12_11h49.50.036,classification_task,2021.2.3,Win32,60.26637739,627c6715c52fd12f31907bd0,,,,,,,,,,,,,,,,,,,,,,,l,0,0.8358,"[""0.340"",""0.419"",""0.850"",""0.916""]","[0,1,1,1]",0,40,40,40,1,0,0,,,0,FALSE,,,,,,,,,,,,,,,,,,,,,,,,,,,,,,,
,60caf58c38ce3e0f5a51f62b,627c75a1efca33151b5232d8,2022-05-12_11h49.50.036,classification_task,2021.2.3,Win32,60.26637739,627c6715c52fd12f31907bd0,,,,,,,,,,,,,,,,,,,,,,,l,0,0.5309,"[""0.182"",""0.419"",""0.850"",""0.534""]","[1,1,1,0]",0,41,41,41,1,0,0,,,0,FALSE,,,,,,,,,,,,,,,,,,,,,,,,,,,,,,,
,60caf58c38ce3e0f5a51f62b,627c75a1efca33151b5232d8,2022-05-12_11h49.50.036,classification_task,2021.2.3,Win32,60.26637739,627c6715c52fd12f31907bd0,,,,,,,,,,,,,,,,,,,,,,,l,1,0.4313,"[""0.072"",""0.109"",""0.580"",""0.619""]","[1,1,1,0]",0,42,42,42,1,1,0,,,0,FALSE,,,,,,,,,,,,,,,,,,,,,,,,,,,,,,,
,60caf58c38ce3e0f5a51f62b,627c75a1efca33151b5232d8,2022-05-12_11h49.50.036,classification_task,2021.2.3,Win32,60.26637739,627c6715c52fd12f31907bd0,,,,,,,,,,,,,,,,,,,,,,,l,0,1.463,"[""0.182"",""0.629"",""0.850"",""0.916""]","[1,0,1,1]",0,43,43,43,1,0,0,,,0,FALSE,,,,,,,,,,,,,,,,,,,,,,,,,,,,,,,
,60caf58c38ce3e0f5a51f62b,627c75a1efca33151b5232d8,2022-05-12_11h49.50.036,classification_task,2021.2.3,Win32,60.26637739,627c6715c52fd12f31907bd0,,,,,,,,,,,,,,,,,,,,,,,a,1,0.6089,"[""0.226"",""0.375"",""0.677"",""0.546""]","[1,1,1,0]",0,44,44,44,1,0,1,,,0,FALSE,,,,,,,,,,,,,,,,,,,,,,,,,,,,,,,
,60caf58c38ce3e0f5a51f62b,627c75a1efca33151b5232d8,2022-05-12_11h49.50.036,classification_task,2021.2.3,Win32,60.26637739,627c6715c52fd12f31907bd0,,,,,,,,,,,,,,,,,,,,,,,a,0,0.4967,"[""0.072"",""0.109"",""0.629"",""0.770""]","[1,1,0,1]",0,45,45,45,1,1,0,,,0,FALSE,,,,,,,,,,,,,,,,,,,,,,,,,,,,,,,
,60caf58c38ce3e0f5a51f62b,627c75a1efca33151b5232d8,2022-05-12_11h49.50.036,classification_task,2021.2.3,Win32,60.26637739,627c6715c52fd12f31907bd0,,,,,,,,,,,,,,,,,,,,,,,l,1,0.3583,"[""0.147"",""0.298"",""0.636"",""0.730""]","[1,1,0,1]",0,46,46,46,1,1,1,,,0,FALSE,,,,,,,,,,,,,,,,,,,,,,,,,,,,,,,
,60caf58c38ce3e0f5a51f62b,627c75a1efca33151b5232d8,2022-05-12_11h49.50.036,classification_task,2021.2.3,Win32,60.26637739,627c6715c52fd12f31907bd0,,,,,,,,,,,,,,,,,,,,,,,l,1,0.4139,"[""0.147"",""0.530"",""0.495"",""0.730""]","[1,0,1,1]",0,47,47,47,1,1,1,,,0,FALSE,,,,,,,,,,,,,,,,,,,,,,,,,,,,,,,
,60caf58c38ce3e0f5a51f62b,627c75a1efca33151b5232d8,2022-05-12_11h49.50.036,classification_task,2021.2.3,Win32,60.26637739,627c6715c52fd12f31907bd0,,,,,,,,,,,,,,,,,,,,,,,l,1,0.768,"[""0.147"",""0.534"",""0.495"",""0.730""]","[1,0,1,1]",0,48,48,48,1,1,1,,,0,FALSE,,,,,,,,,,,,,,,,,,,,,,,,,,,,,,,
,60caf58c38ce3e0f5a51f62b,627c75a1efca33151b5232d8,2022-05-12_11h49.50.036,classification_task,2021.2.3,Win32,60.26637739,627c6715c52fd12f31907bd0,,,,,,,,,,,,,,,,,,,,,,,a,1,0.6476,"[""0.226"",""0.025"",""0.677"",""0.973""]","[1,0,1,1]",0,49,49,49,1,0,1,,,0,FALSE,,,,,,,,,,,,,,,,,,,,,,,,,,,,,,,
,60caf58c38ce3e0f5a51f62b,627c75a1efca33151b5232d8,2022-05-12_11h49.50.036,classification_task,2021.2.3,Win32,60.26637739,627c6715c52fd12f31907bd0,,,,,,,,,,,,,,,,,,,,,,,l,0,0.5971,"[""0.226"",""0.375"",""0.629"",""0.973""]","[1,1,0,1]",0,50,50,50,1,0,1,,,0,FALSE,,,,,,,,,,,,,,,,,,,,,,,,,,,,,,,
,60caf58c38ce3e0f5a51f62b,627c75a1efca33151b5232d8,2022-05-12_11h49.50.036,classification_task,2021.2.3,Win32,60.26637739,627c6715c52fd12f31907bd0,,,,,,,,,,,,,,,,,,,,,,,l,1,0.8967,"[""0.544"",""0.109"",""0.580"",""0.770""]","[0,1,1,1]",0,51,51,51,1,1,0,,,0,FALSE,,,,,,,,,,,,,,,,,,,,,,,,,,,,,,,
,60caf58c38ce3e0f5a51f62b,627c75a1efca33151b5232d8,2022-05-12_11h49.50.036,classification_task,2021.2.3,Win32,60.26637739,627c6715c52fd12f31907bd0,,,,,,,,,,,,,,,,,,,,,,,a,0,1.3652,"[""0.072"",""0.534"",""0.580"",""0.770""]","[1,0,1,1]",0,52,52,52,1,1,0,,,0,FALSE,,,,,,,,,,,,,,,,,,,,,,,,,,,,,,,
,60caf58c38ce3e0f5a51f62b,627c75a1efca33151b5232d8,2022-05-12_11h49.50.036,classification_task,2021.2.3,Win32,60.26637739,627c6715c52fd12f31907bd0,,,,,,,,,,,,,,,,,,,,,,,l,1,1.1973,"[""0.072"",""0.109"",""0.546"",""0.770""]","[1,1,0,1]",0,53,53,53,1,1,0,,,0,FALSE,,,,,,,,,,,,,,,,,,,,,,,,,,,,,,,
,60caf58c38ce3e0f5a51f62b,627c75a1efca33151b5232d8,2022-05-12_11h49.50.036,classification_task,2021.2.3,Win32,60.26637739,627c6715c52fd12f31907bd0,,,,,,,,,,,,,,,,,,,,,,,l,1,0.7467,"[""0.072"",""0.109"",""0.580"",""0.340""]","[1,1,1,0]",0,54,54,54,1,1,0,,,0,FALSE,,,,,,,,,,,,,,,,,,,,,,,,,,,,,,,
,60caf58c38ce3e0f5a51f62b,627c75a1efca33151b5232d8,2022-05-12_11h49.50.036,classification_task,2021.2.3,Win32,60.26637739,627c6715c52fd12f31907bd0,,,,,,,,,,,,,,,,,,,,,,,l,1,3.4951,"[""0.147"",""0.298"",""0.341"",""0.730""]","[1,1,0,1]",0,55,55,55,1,1,1,,,0,FALSE,,,,,,,,,,,,,,,,,,,,,,,,,,,,,,,
,60caf58c38ce3e0f5a51f62b,627c75a1efca33151b5232d8,2022-05-12_11h49.50.036,classification_task,2021.2.3,Win32,60.26637739,627c6715c52fd12f31907bd0,,,,,,,,,,,,,,,,,,,,,,,l,0,1.1969,"[""0.182"",""0.419"",""0.850"",""0.629""]","[1,1,1,0]",0,56,56,56,1,0,0,,,0,FALSE,,,,,,,,,,,,,,,,,,,,,,,,,,,,,,,
,60caf58c38ce3e0f5a51f62b,627c75a1efca33151b5232d8,2022-05-12_11h49.50.036,classification_task,2021.2.3,Win32,60.26637739,627c6715c52fd12f31907bd0,,,,,,,,,,,,,,,,,,,,,,,l,0,1.2973,"[""0.620"",""0.419"",""0.850"",""0.916""]","[0,1,1,1]",0,57,57,57,1,0,0,,,0,FALSE,,,,,,,,,,,,,,,,,,,,,,,,,,,,,,,
,60caf58c38ce3e0f5a51f62b,627c75a1efca33151b5232d8,2022-05-12_11h49.50.036,classification_task,2021.2.3,Win32,60.26637739,627c6715c52fd12f31907bd0,,,,,,,,,,,,,,,,,,,,,,,l,0,1.9859,"[""0.182"",""0.419"",""0.544"",""0.916""]","[1,1,0,1]",0,58,58,58,1,0,0,,,0,FALSE,,,,,,,,,,,,,,,,,,,,,,,,,,,,,,,
,60caf58c38ce3e0f5a51f62b,627c75a1efca33151b5232d8,2022-05-12_11h49.50.036,classification_task,2021.2.3,Win32,60.26637739,627c6715c52fd12f31907bd0,,,,,,,,,,,,,,,,,,,,,,,l,0,1.3374,"[""0.226"",""0.375"",""0.677"",""0.025""]","[1,1,1,0]",0,59,59,59,1,0,1,,,0,FALSE,,,,,,,,,,,,,,,,,,,,,,,,,,,,,,,
,60caf58c38ce3e0f5a51f62b,627c75a1efca33151b5232d8,2022-05-12_11h49.50.036,classification_task,2021.2.3,Win32,60.26637739,627c6715c52fd12f31907bd0,,,,,,,,,,,,,,,,,,,,,,,l,0,1.0984,"[""0.530"",""0.375"",""0.677"",""0.973""]","[0,1,1,1]",0,60,60,60,1,0,1,,,0,FALSE,,,,,,,,,,,,,,,,,,,,,,,,,,,,,,,
,60caf58c38ce3e0f5a51f62b,627c75a1efca33151b5232d8,2022-05-12_11h49.50.036,classification_task,2021.2.3,Win32,60.26637739,627c6715c52fd12f31907bd0,,,,,,,,,,,,,,,,,,,,,,,l,0,0.6991,"[""0.182"",""0.534"",""0.850"",""0.916""]","[1,0,1,1]",0,61,61,61,1,0,0,,,0,FALSE,,,,,,,,,,,,,,,,,,,,,,,,,,,,,,,
,60caf58c38ce3e0f5a51f62b,627c75a1efca33151b5232d8,2022-05-12_11h49.50.036,classification_task,2021.2.3,Win32,60.26637739,627c6715c52fd12f31907bd0,,,,,,,,,,,,,,,,,,,,,,,a,0,0.3153,"[""0.340"",""0.298"",""0.495"",""0.730""]","[0,1,1,1]",0,62,62,62,1,1,1,,,0,FALSE,,,,,,,,,,,,,,,,,,,,,,,,,,,,,,,
,60caf58c38ce3e0f5a51f62b,627c75a1efca33151b5232d8,2022-05-12_11h49.50.036,classification_task,2021.2.3,Win32,60.26637739,627c6715c52fd12f31907bd0,,,,,,,,,,,,,,,,,,,,,,,l,1,1.0711,"[""0.147"",""0.298"",""0.495"",""0.340""]","[1,1,1,0]",0,63,63,63,1,1,1,,,0,FALSE,,,,,,,,,,,,,,,,,,,,,,,,,,,,,,,
,60caf58c38ce3e0f5a51f62b,627c75a1efca33151b5232d8,2022-05-12_11h49.50.036,classification_task,2021.2.3,Win32,60.26637739,627c6715c52fd12f31907bd0,,,,,,,,,,,,,,,,,,,,,,,,,,,,,,,,,,,,,,,0, ,,0,,,0,0,0,0,1,2,1,,,,,,,,,,,,,,,,,,
,60caf58c38ce3e0f5a51f62b,627c75a1efca33151b5232d8,2022-05-12_11h49.50.036,classification_task,2021.2.3,Win32,60.26637739,627c6715c52fd12f31907bd0,,,,,,,,,,,,,,,,,,,,,,,,,,,,,,,,,,,,,,,1,  ,,0,,,0,0,0,0,1,2,1,,,,,,,,,,,,,,,,,,
,60caf58c38ce3e0f5a51f62b,627c75a1efca33151b5232d8,2022-05-12_11h49.50.036,classification_task,2021.2.3,Win32,60.26637739,627c6715c52fd12f31907bd0,,,,,,,,,,,,,,,,,,,,,,,,,,,,,,,,,,,,,,,2,  ,,0,,,0,0,0,0,1,2,1,,,,,,,,,,,,,,,,,,
,60caf58c38ce3e0f5a51f62b,627c75a1efca33151b5232d8,2022-05-12_11h49.50.036,classification_task,2021.2.3,Win32,60.26637739,627c6715c52fd12f31907bd0,,,,,,,,,,,,,,,,,,,,,,,,,,,,,,,,,,,,,,,,,,,,,0,0,0,0,1,,1,,,,,,,,,,,,,,,,,,
,60caf58c38ce3e0f5a51f62b,627c75a1efca33151b5232d8,2022-05-12_11h49.50.036,classification_task,2021.2.3,Win32,60.26637739,627c6715c52fd12f31907bd0,,,,,,,,,,,,,,,,,,,,,space,10.484,a,1,3.6934,"[""0.182"",""0.419"",""0.850"",""0.032""]","[1,1,1,0]",0,0,0,0,1,0,0,,,0,FALSE,,,,,,,,,,,,,,,,,,,,,,,,,,,,,,,
,60caf58c38ce3e0f5a51f62b,627c75a1efca33151b5232d8,2022-05-12_11h49.50.036,classification_task,2021.2.3,Win32,60.26637739,627c6715c52fd12f31907bd0,,,,,,,,,,,,,,,,,,,,,,,l,1,1.6174,"[""0.072"",""0.109"",""0.580"",""0.032""]","[1,1,1,0]",0,1,1,1,1,1,0,,,0,FALSE,,,,,,,,,,,,,,,,,,,,,,,,,,,,,,,
,60caf58c38ce3e0f5a51f62b,627c75a1efca33151b5232d8,2022-05-12_11h49.50.036,classification_task,2021.2.3,Win32,60.26637739,627c6715c52fd12f31907bd0,,,,,,,,,,,,,,,,,,,,,,,l,0,1.963,"[""0.226"",""0.375"",""0.677"",""0.340""]","[1,1,1,0]",0,2,2,2,1,0,1,,,0,FALSE,,,,,,,,,,,,,,,,,,,,,,,,,,,,,,,
,60caf58c38ce3e0f5a51f62b,627c75a1efca33151b5232d8,2022-05-12_11h49.50.036,classification_task,2021.2.3,Win32,60.26637739,627c6715c52fd12f31907bd0,,,,,,,,,,,,,,,,,,,,,,,a,1,1.8085,"[""0.642"",""0.419"",""0.850"",""0.916""]","[0,1,1,1]",0,3,3,3,1,0,0,,,0,FALSE,,,,,,,,,,,,,,,,,,,,,,,,,,,,,,,
,60caf58c38ce3e0f5a51f62b,627c75a1efca33151b5232d8,2022-05-12_11h49.50.036,classification_task,2021.2.3,Win32,60.26637739,627c6715c52fd12f31907bd0,,,,,,,,,,,,,,,,,,,,,,,a,0,1.3178,"[""0.147"",""0.298"",""0.642"",""0.730""]","[1,1,0,1]",0,4,4,4,1,1,1,,,0,FALSE,,,,,,,,,,,,,,,,,,,,,,,,,,,,,,,
,60caf58c38ce3e0f5a51f62b,627c75a1efca33151b5232d8,2022-05-12_11h49.50.036,classification_task,2021.2.3,Win32,60.26637739,627c6715c52fd12f31907bd0,,,,,,,,,,,,,,,,,,,,,,,l,1,0.9187,"[""0.538"",""0.109"",""0.580"",""0.770""]","[0,1,1,1]",0,5,5,5,1,1,0,,,0,FALSE,,,,,,,,,,,,,,,,,,,,,,,,,,,,,,,
,60caf58c38ce3e0f5a51f62b,627c75a1efca33151b5232d8,2022-05-12_11h49.50.036,classification_task,2021.2.3,Win32,60.26637739,627c6715c52fd12f31907bd0,,,,,,,,,,,,,,,,,,,,,,,l,1,1.1831,"[""0.072"",""0.534"",""0.580"",""0.770""]","[1,0,1,1]",0,6,6,6,1,1,0,,,0,FALSE,,,,,,,,,,,,,,,,,,,,,,,,,,,,,,,
,60caf58c38ce3e0f5a51f62b,627c75a1efca33151b5232d8,2022-05-12_11h49.50.036,classification_task,2021.2.3,Win32,60.26637739,627c6715c52fd12f31907bd0,,,,,,,,,,,,,,,,,,,,,,,l,0,1.6039,"[""0.032"",""0.375"",""0.677"",""0.973""]","[0,1,1,1]",0,7,7,7,1,0,1,,,0,FALSE,,,,,,,,,,,,,,,,,,,,,,,,,,,,,,,
,60caf58c38ce3e0f5a51f62b,627c75a1efca33151b5232d8,2022-05-12_11h49.50.036,classification_task,2021.2.3,Win32,60.26637739,627c6715c52fd12f31907bd0,,,,,,,,,,,,,,,,,,,,,,,a,1,1.3811,"[""0.182"",""0.341"",""0.850"",""0.916""]","[1,0,1,1]",0,8,8,8,1,0,0,,,0,FALSE,,,,,,,,,,,,,,,,,,,,,,,,,,,,,,,
,60caf58c38ce3e0f5a51f62b,627c75a1efca33151b5232d8,2022-05-12_11h49.50.036,classification_task,2021.2.3,Win32,60.26637739,627c6715c52fd12f31907bd0,,,,,,,,,,,,,,,,,,,,,,,a,0,2.0422,"[""0.340"",""0.298"",""0.495"",""0.730""]","[0,1,1,1]",0,9,9,9,1,1,1,,,0,FALSE,,,,,,,,,,,,,,,,,,,,,,,,,,,,,,,
,60caf58c38ce3e0f5a51f62b,627c75a1efca33151b5232d8,2022-05-12_11h49.50.036,classification_task,2021.2.3,Win32,60.26637739,627c6715c52fd12f31907bd0,,,,,,,,,,,,,,,,,,,,,,,l,1,2.3826,"[""0.072"",""0.109"",""0.546"",""0.770""]","[1,1,0,1]",0,10,10,10,1,1,0,,,0,FALSE,,,,,,,,,,,,,,,,,,,,,,,,,,,,,,,
,60caf58c38ce3e0f5a51f62b,627c75a1efca33151b5232d8,2022-05-12_11h49.50.036,classification_task,2021.2.3,Win32,60.26637739,627c6715c52fd12f31907bd0,,,,,,,,,,,,,,,,,,,,,,,a,1,1.5697,"[""0.182"",""0.419"",""0.544"",""0.916""]","[1,1,0,1]",0,11,11,11,1,0,0,,,0,FALSE,,,,,,,,,,,,,,,,,,,,,,,,,,,,,,,
,60caf58c38ce3e0f5a51f62b,627c75a1efca33151b5232d8,2022-05-12_11h49.50.036,classification_task,2021.2.3,Win32,60.26637739,627c6715c52fd12f31907bd0,,,,,,,,,,,,,,,,,,,,,,,a,0,0.7447,"[""0.147"",""0.298"",""0.495"",""0.642""]","[1,1,1,0]",0,12,12,12,1,1,1,,,0,FALSE,,,,,,,,,,,,,,,,,,,,,,,,,,,,,,,
,60caf58c38ce3e0f5a51f62b,627c75a1efca33151b5232d8,2022-05-12_11h49.50.036,classification_task,2021.2.3,Win32,60.26637739,627c6715c52fd12f31907bd0,,,,,,,,,,,,,,,,,,,,,,,a,1,0.7181,"[""0.226"",""0.375"",""0.530"",""0.973""]","[1,1,0,1]",0,13,13,13,1,0,1,,,0,FALSE,,,,,,,,,,,,,,,,,,,,,,,,,,,,,,,
,60caf58c38ce3e0f5a51f62b,627c75a1efca33151b5232d8,2022-05-12_11h49.50.036,classification_task,2021.2.3,Win32,60.26637739,627c6715c52fd12f31907bd0,,,,,,,,,,,,,,,,,,,,,,,l,0,1.3608,"[""0.226"",""0.032"",""0.677"",""0.973""]","[1,0,1,1]",0,14,14,14,1,0,1,,,0,FALSE,,,,,,,,,,,,,,,,,,,,,,,,,,,,,,,
,60caf58c38ce3e0f5a51f62b,627c75a1efca33151b5232d8,2022-05-12_11h49.50.036,classification_task,2021.2.3,Win32,60.26637739,627c6715c52fd12f31907bd0,,,,,,,,,,,,,,,,,,,,,,,a,0,0.9332,"[""0.147"",""0.538"",""0.495"",""0.730""]","[1,0,1,1]",0,15,15,15,1,1,1,,,0,FALSE,,,,,,,,,,,,,,,,,,,,,,,,,,,,,,,
,60caf58c38ce3e0f5a51f62b,627c75a1efca33151b5232d8,2022-05-12_11h49.50.036,classification_task,2021.2.3,Win32,60.26637739,627c6715c52fd12f31907bd0,,,,,,,,,,,,,,,,,,,,,,,l,0,0.6665,"[""0.544"",""0.375"",""0.677"",""0.973""]","[0,1,1,1]",0,16,16,16,1,0,1,,,0,FALSE,,,,,,,,,,,,,,,,,,,,,,,,,,,,,,,
,60caf58c38ce3e0f5a51f62b,627c75a1efca33151b5232d8,2022-05-12_11h49.50.036,classification_task,2021.2.3,Win32,60.26637739,627c6715c52fd12f31907bd0,,,,,,,,,,,,,,,,,,,,,,,a,1,2.5867,"[""0.182"",""0.419"",""0.850"",""0.629""]","[1,1,1,0]",0,17,17,17,1,0,0,,,0,FALSE,,,,,,,,,,,,,,,,,,,,,,,,,,,,,,,
,60caf58c38ce3e0f5a51f62b,627c75a1efca33151b5232d8,2022-05-12_11h49.50.036,classification_task,2021.2.3,Win32,60.26637739,627c6715c52fd12f31907bd0,,,,,,,,,,,,,,,,,,,,,,,a,1,1.0747,"[""0.182"",""0.619"",""0.850"",""0.916""]","[1,0,1,1]",0,18,18,18,1,0,0,,,0,FALSE,,,,,,,,,,,,,,,,,,,,,,,,,,,,,,,
,60caf58c38ce3e0f5a51f62b,627c75a1efca33151b5232d8,2022-05-12_11h49.50.036,classification_task,2021.2.3,Win32,60.26637739,627c6715c52fd12f31907bd0,,,,,,,,,,,,,,,,,,,,,,,a,0,1.4345,"[""0.147"",""0.298"",""0.340"",""0.730""]","[1,1,0,1]",0,19,19,19,1,1,1,,,0,FALSE,,,,,,,,,,,,,,,,,,,,,,,,,,,,,,,
,60caf58c38ce3e0f5a51f62b,627c75a1efca33151b5232d8,2022-05-12_11h49.50.036,classification_task,2021.2.3,Win32,60.26637739,627c6715c52fd12f31907bd0,,,,,,,,,,,,,,,,,,,,,,,a,1,0.8811,"[""0.182"",""0.419"",""0.538"",""0.916""]","[1,1,0,1]",0,20,20,20,1,0,0,,,0,FALSE,,,,,,,,,,,,,,,,,,,,,,,,,,,,,,,
,60caf58c38ce3e0f5a51f62b,627c75a1efca33151b5232d8,2022-05-12_11h49.50.036,classification_task,2021.2.3,Win32,60.26637739,627c6715c52fd12f31907bd0,,,,,,,,,,,,,,,,,,,,,,,a,1,0.6881,"[""0.544"",""0.419"",""0.850"",""0.916""]","[0,1,1,1]",0,21,21,21,1,0,0,,,0,FALSE,,,,,,,,,,,,,,,,,,,,,,,,,,,,,,,
,60caf58c38ce3e0f5a51f62b,627c75a1efca33151b5232d8,2022-05-12_11h49.50.036,classification_task,2021.2.3,Win32,60.26637739,627c6715c52fd12f31907bd0,,,,,,,,,,,,,,,,,,,,,,,l,1,0.8695,"[""0.025"",""0.109"",""0.580"",""0.770""]","[0,1,1,1]",0,22,22,22,1,1,0,,,0,FALSE,,,,,,,,,,,,,,,,,,,,,,,,,,,,,,,
,60caf58c38ce3e0f5a51f62b,627c75a1efca33151b5232d8,2022-05-12_11h49.50.036,classification_task,2021.2.3,Win32,60.26637739,627c6715c52fd12f31907bd0,,,,,,,,,,,,,,,,,,,,,,,l,1,0.9373,"[""0.072"",""0.109"",""0.619"",""0.770""]","[1,1,0,1]",0,23,23,23,1,1,0,,,0,FALSE,,,,,,,,,,,,,,,,,,,,,,,,,,,,,,,
,60caf58c38ce3e0f5a51f62b,627c75a1efca33151b5232d8,2022-05-12_11h49.50.036,classification_task,2021.2.3,Win32,60.26637739,627c6715c52fd12f31907bd0,,,,,,,,,,,,,,,,,,,,,,,a,0,1.5099,"[""0.147"",""0.619"",""0.495"",""0.730""]","[1,0,1,1]",0,24,24,24,1,1,1,,,0,FALSE,,,,,,,,,,,,,,,,,,,,,,,,,,,,,,,
,60caf58c38ce3e0f5a51f62b,627c75a1efca33151b5232d8,2022-05-12_11h49.50.036,classification_task,2021.2.3,Win32,60.26637739,627c6715c52fd12f31907bd0,,,,,,,,,,,,,,,,,,,,,,,l,1,0.9207,"[""0.072"",""0.808"",""0.580"",""0.770""]","[1,0,1,1]",0,25,25,25,1,1,0,,,0,FALSE,,,,,,,,,,,,,,,,,,,,,,,,,,,,,,,
,60caf58c38ce3e0f5a51f62b,627c75a1efca33151b5232d8,2022-05-12_11h49.50.036,classification_task,2021.2.3,Win32,60.26637739,627c6715c52fd12f31907bd0,,,,,,,,,,,,,,,,,,,,,,,a,0,1.0282,"[""0.629"",""0.298"",""0.495"",""0.730""]","[0,1,1,1]",0,26,26,26,1,1,1,,,0,FALSE,,,,,,,,,,,,,,,,,,,,,,,,,,,,,,,
,60caf58c38ce3e0f5a51f62b,627c75a1efca33151b5232d8,2022-05-12_11h49.50.036,classification_task,2021.2.3,Win32,60.26637739,627c6715c52fd12f31907bd0,,,,,,,,,,,,,,,,,,,,,,,a,0,1.0084,"[""0.147"",""0.298"",""0.495"",""0.340""]","[1,1,1,0]",0,27,27,27,1,1,1,,,0,FALSE,,,,,,,,,,,,,,,,,,,,,,,,,,,,,,,
,60caf58c38ce3e0f5a51f62b,627c75a1efca33151b5232d8,2022-05-12_11h49.50.036,classification_task,2021.2.3,Win32,60.26637739,627c6715c52fd12f31907bd0,,,,,,,,,,,,,,,,,,,,,,,a,1,0.9596,"[""0.226"",""0.629"",""0.677"",""0.973""]","[1,0,1,1]",0,28,28,28,1,0,1,,,0,FALSE,,,,,,,,,,,,,,,,,,,,,,,,,,,,,,,
,60caf58c38ce3e0f5a51f62b,627c75a1efca33151b5232d8,2022-05-12_11h49.50.036,classification_task,2021.2.3,Win32,60.26637739,627c6715c52fd12f31907bd0,,,,,,,,,,,,,,,,,,,,,,,l,0,0.7841,"[""0.226"",""0.375"",""0.677"",""0.629""]","[1,1,1,0]",0,29,29,29,1,0,1,,,0,FALSE,,,,,,,,,,,,,,,,,,,,,,,,,,,,,,,
,60caf58c38ce3e0f5a51f62b,627c75a1efca33151b5232d8,2022-05-12_11h49.50.036,classification_task,2021.2.3,Win32,60.26637739,627c6715c52fd12f31907bd0,,,,,,,,,,,,,,,,,,,,,,,l,0,1.3341,"[""0.226"",""0.375"",""0.340"",""0.973""]","[1,1,0,1]",0,30,30,30,1,0,1,,,0,FALSE,,,,,,,,,,,,,,,,,,,,,,,,,,,,,,,
,60caf58c38ce3e0f5a51f62b,627c75a1efca33151b5232d8,2022-05-12_11h49.50.036,classification_task,2021.2.3,Win32,60.26637739,627c6715c52fd12f31907bd0,,,,,,,,,,,,,,,,,,,,,,,l,1,2.1703,"[""0.072"",""0.109"",""0.580"",""0.808""]","[1,1,1,0]",0,31,31,31,1,1,0,,,0,FALSE,,,,,,,,,,,,,,,,,,,,,,,,,,,,,,,
,60caf58c38ce3e0f5a51f62b,627c75a1efca33151b5232d8,2022-05-12_11h49.50.036,classification_task,2021.2.3,Win32,60.26637739,627c6715c52fd12f31907bd0,,,,,,,,,,,,,,,,,,,,,,,a,0,1.0069,"[""0.147"",""0.298"",""0.340"",""0.730""]","[1,1,0,1]",0,32,32,32,1,1,1,,,0,FALSE,,,,,,,,,,,,,,,,,,,,,,,,,,,,,,,
,60caf58c38ce3e0f5a51f62b,627c75a1efca33151b5232d8,2022-05-12_11h49.50.036,classification_task,2021.2.3,Win32,60.26637739,627c6715c52fd12f31907bd0,,,,,,,,,,,,,,,,,,,,,,,l,1,1.7631,"[""0.072"",""0.109"",""0.615"",""0.770""]","[1,1,0,1]",0,33,33,33,1,1,0,,,0,FALSE,,,,,,,,,,,,,,,,,,,,,,,,,,,,,,,
,60caf58c38ce3e0f5a51f62b,627c75a1efca33151b5232d8,2022-05-12_11h49.50.036,classification_task,2021.2.3,Win32,60.26637739,627c6715c52fd12f31907bd0,,,,,,,,,,,,,,,,,,,,,,,a,1,0.8566,"[""0.182"",""0.419"",""0.850"",""0.340""]","[1,1,1,0]",0,34,34,34,1,0,0,,,0,FALSE,,,,,,,,,,,,,,,,,,,,,,,,,,,,,,,
,60caf58c38ce3e0f5a51f62b,627c75a1efca33151b5232d8,2022-05-12_11h49.50.036,classification_task,2021.2.3,Win32,60.26637739,627c6715c52fd12f31907bd0,,,,,,,,,,,,,,,,,,,,,,,l,1,0.6112,"[""0.072"",""0.109"",""0.580"",""0.538""]","[1,1,1,0]",0,35,35,35,1,1,0,,,0,FALSE,,,,,,,,,,,,,,,,,,,,,,,,,,,,,,,
,60caf58c38ce3e0f5a51f62b,627c75a1efca33151b5232d8,2022-05-12_11h49.50.036,classification_task,2021.2.3,Win32,60.26637739,627c6715c52fd12f31907bd0,,,,,,,,,,,,,,,,,,,,,,,a,0,0.941,"[""0.636"",""0.298"",""0.495"",""0.730""]","[0,1,1,1]",0,36,36,36,1,1,1,,,0,FALSE,,,,,,,,,,,,,,,,,,,,,,,,,,,,,,,
,60caf58c38ce3e0f5a51f62b,627c75a1efca33151b5232d8,2022-05-12_11h49.50.036,classification_task,2021.2.3,Win32,60.26637739,627c6715c52fd12f31907bd0,,,,,,,,,,,,,,,,,,,,,,,a,1,1.9432,"[""0.182"",""0.530"",""0.850"",""0.916""]","[1,0,1,1]",0,37,37,37,1,0,0,,,0,FALSE,,,,,,,,,,,,,,,,,,,,,,,,,,,,,,,
,60caf58c38ce3e0f5a51f62b,627c75a1efca33151b5232d8,2022-05-12_11h49.50.036,classification_task,2021.2.3,Win32,60.26637739,627c6715c52fd12f31907bd0,,,,,,,,,,,,,,,,,,,,,,,a,0,2.9464,"[""0.147"",""0.298"",""0.495"",""0.619""]","[1,1,1,0]",0,38,38,38,1,1,1,,,0,FALSE,,,,,,,,,,,,,,,,,,,,,,,,,,,,,,,
,60caf58c38ce3e0f5a51f62b,627c75a1efca33151b5232d8,2022-05-12_11h49.50.036,classification_task,2021.2.3,Win32,60.26637739,627c6715c52fd12f31907bd0,,,,,,,,,,,,,,,,,,,,,,,a,1,0.8739,"[""0.226"",""0.375"",""0.544"",""0.973""]","[1,1,0,1]",0,39,39,39,1,0,1,,,0,FALSE,,,,,,,,,,,,,,,,,,,,,,,,,,,,,,,
,60caf58c38ce3e0f5a51f62b,627c75a1efca33151b5232d8,2022-05-12_11h49.50.036,classification_task,2021.2.3,Win32,60.26637739,627c6715c52fd12f31907bd0,,,,,,,,,,,,,,,,,,,,,,,l,1,0.7189,"[""0.636"",""0.109"",""0.580"",""0.770""]","[0,1,1,1]",0,40,40,40,1,1,0,,,0,FALSE,,,,,,,,,,,,,,,,,,,,,,,,,,,,,,,
,60caf58c38ce3e0f5a51f62b,627c75a1efca33151b5232d8,2022-05-12_11h49.50.036,classification_task,2021.2.3,Win32,60.26637739,627c6715c52fd12f31907bd0,,,,,,,,,,,,,,,,,,,,,,,a,1,0.6555,"[""0.182"",""0.419"",""0.615"",""0.916""]","[1,1,0,1]",0,41,41,41,1,0,0,,,0,FALSE,,,,,,,,,,,,,,,,,,,,,,,,,,,,,,,
,60caf58c38ce3e0f5a51f62b,627c75a1efca33151b5232d8,2022-05-12_11h49.50.036,classification_task,2021.2.3,Win32,60.26637739,627c6715c52fd12f31907bd0,,,,,,,,,,,,,,,,,,,,,,,a,1,0.6335,"[""0.544"",""0.419"",""0.850"",""0.916""]","[0,1,1,1]",0,42,42,42,1,0,0,,,0,FALSE,,,,,,,,,,,,,,,,,,,,,,,,,,,,,,,
,60caf58c38ce3e0f5a51f62b,627c75a1efca33151b5232d8,2022-05-12_11h49.50.036,classification_task,2021.2.3,Win32,60.26637739,627c6715c52fd12f31907bd0,,,,,,,,,,,,,,,,,,,,,,,l,0,1.3115,"[""0.226"",""0.615"",""0.677"",""0.973""]","[1,0,1,1]",0,43,43,43,1,0,1,,,0,FALSE,,,,,,,,,,,,,,,,,,,,,,,,,,,,,,,
,60caf58c38ce3e0f5a51f62b,627c75a1efca33151b5232d8,2022-05-12_11h49.50.036,classification_task,2021.2.3,Win32,60.26637739,627c6715c52fd12f31907bd0,,,,,,,,,,,,,,,,,,,,,,,l,1,0.6731,"[""0.072"",""0.619"",""0.580"",""0.770""]","[1,0,1,1]",0,44,44,44,1,1,0,,,0,FALSE,,,,,,,,,,,,,,,,,,,,,,,,,,,,,,,
,60caf58c38ce3e0f5a51f62b,627c75a1efca33151b5232d8,2022-05-12_11h49.50.036,classification_task,2021.2.3,Win32,60.26637739,627c6715c52fd12f31907bd0,,,,,,,,,,,,,,,,,,,,,,,a,0,1.2356,"[""0.147"",""0.808"",""0.495"",""0.730""]","[1,0,1,1]",0,45,45,45,1,1,1,,,0,FALSE,,,,,,,,,,,,,,,,,,,,,,,,,,,,,,,
,60caf58c38ce3e0f5a51f62b,627c75a1efca33151b5232d8,2022-05-12_11h49.50.036,classification_task,2021.2.3,Win32,60.26637739,627c6715c52fd12f31907bd0,,,,,,,,,,,,,,,,,,,,,,,a,1,0.8295,"[""0.032"",""0.375"",""0.677"",""0.973""]","[0,1,1,1]",0,46,46,46,1,0,1,,,0,FALSE,,,,,,,,,,,,,,,,,,,,,,,,,,,,,,,
,60caf58c38ce3e0f5a51f62b,627c75a1efca33151b5232d8,2022-05-12_11h49.50.036,classification_task,2021.2.3,Win32,60.26637739,627c6715c52fd12f31907bd0,,,,,,,,,,,,,,,,,,,,,,,a,1,0.9027,"[""0.226"",""0.375"",""0.677"",""0.340""]","[1,1,1,0]",0,47,47,47,1,0,1,,,0,FALSE,,,,,,,,,,,,,,,,,,,,,,,,,,,,,,,
,60caf58c38ce3e0f5a51f62b,627c75a1efca33151b5232d8,2022-05-12_11h49.50.036,classification_task,2021.2.3,Win32,60.26637739,627c6715c52fd12f31907bd0,,,,,,,,,,,,,,,,,,,,,,,l,0,0.6559,"[""0.808"",""0.375"",""0.677"",""0.973""]","[0,1,1,1]",0,48,48,48,1,0,1,,,0,FALSE,,,,,,,,,,,,,,,,,,,,,,,,,,,,,,,
,60caf58c38ce3e0f5a51f62b,627c75a1efca33151b5232d8,2022-05-12_11h49.50.036,classification_task,2021.2.3,Win32,60.26637739,627c6715c52fd12f31907bd0,,,,,,,,,,,,,,,,,,,,,,,l,1,2.2205,"[""0.072"",""0.109"",""0.808"",""0.770""]","[1,1,0,1]",0,49,49,49,1,1,0,,,0,FALSE,,,,,,,,,,,,,,,,,,,,,,,,,,,,,,,
,60caf58c38ce3e0f5a51f62b,627c75a1efca33151b5232d8,2022-05-12_11h49.50.036,classification_task,2021.2.3,Win32,60.26637739,627c6715c52fd12f31907bd0,,,,,,,,,,,,,,,,,,,,,,,l,1,1.1811,"[""0.538"",""0.109"",""0.580"",""0.770""]","[0,1,1,1]",0,50,50,50,1,1,0,,,0,FALSE,,,,,,,,,,,,,,,,,,,,,,,,,,,,,,,
,60caf58c38ce3e0f5a51f62b,627c75a1efca33151b5232d8,2022-05-12_11h49.50.036,classification_task,2021.2.3,Win32,60.26637739,627c6715c52fd12f31907bd0,,,,,,,,,,,,,,,,,,,,,,,l,1,0.7653,"[""0.072"",""0.109"",""0.580"",""0.615""]","[1,1,1,0]",0,51,51,51,1,1,0,,,0,FALSE,,,,,,,,,,,,,,,,,,,,,,,,,,,,,,,
,60caf58c38ce3e0f5a51f62b,627c75a1efca33151b5232d8,2022-05-12_11h49.50.036,classification_task,2021.2.3,Win32,60.26637739,627c6715c52fd12f31907bd0,,,,,,,,,,,,,,,,,,,,,,,a,1,0.9279,"[""0.226"",""0.808"",""0.677"",""0.973""]","[1,0,1,1]",0,52,52,52,1,0,1,,,0,FALSE,,,,,,,,,,,,,,,,,,,,,,,,,,,,,,,
,60caf58c38ce3e0f5a51f62b,627c75a1efca33151b5232d8,2022-05-12_11h49.50.036,classification_task,2021.2.3,Win32,60.26637739,627c6715c52fd12f31907bd0,,,,,,,,,,,,,,,,,,,,,,,a,0,0.9619,"[""0.147"",""0.340"",""0.495"",""0.730""]","[1,0,1,1]",0,53,53,53,1,1,1,,,0,FALSE,,,,,,,,,,,,,,,,,,,,,,,,,,,,,,,
,60caf58c38ce3e0f5a51f62b,627c75a1efca33151b5232d8,2022-05-12_11h49.50.036,classification_task,2021.2.3,Win32,60.26637739,627c6715c52fd12f31907bd0,,,,,,,,,,,,,,,,,,,,,,,a,0,0.7888,"[""0.147"",""0.298"",""0.544"",""0.730""]","[1,1,0,1]",0,54,54,54,1,1,1,,,0,FALSE,,,,,,,,,,,,,,,,,,,,,,,,,,,,,,,
,60caf58c38ce3e0f5a51f62b,627c75a1efca33151b5232d8,2022-05-12_11h49.50.036,classification_task,2021.2.3,Win32,60.26637739,627c6715c52fd12f31907bd0,,,,,,,,,,,,,,,,,,,,,,,a,1,2.8045,"[""0.182"",""0.419"",""0.850"",""0.636""]","[1,1,1,0]",0,55,55,55,1,0,0,,,0,FALSE,,,,,,,,,,,,,,,,,,,,,,,,,,,,,,,
,60caf58c38ce3e0f5a51f62b,627c75a1efca33151b5232d8,2022-05-12_11h49.50.036,classification_task,2021.2.3,Win32,60.26637739,627c6715c52fd12f31907bd0,,,,,,,,,,,,,,,,,,,,,,,l,1,0.7017,"[""0.072"",""0.538"",""0.580"",""0.770""]","[1,0,1,1]",0,56,56,56,1,1,0,,,0,FALSE,,,,,,,,,,,,,,,,,,,,,,,,,,,,,,,
,60caf58c38ce3e0f5a51f62b,627c75a1efca33151b5232d8,2022-05-12_11h49.50.036,classification_task,2021.2.3,Win32,60.26637739,627c6715c52fd12f31907bd0,,,,,,,,,,,,,,,,,,,,,,,a,1,1.1268,"[""0.182"",""0.419"",""0.538"",""0.916""]","[1,1,0,1]",0,57,57,57,1,0,0,,,0,FALSE,,,,,,,,,,,,,,,,,,,,,,,,,,,,,,,
,60caf58c38ce3e0f5a51f62b,627c75a1efca33151b5232d8,2022-05-12_11h49.50.036,classification_task,2021.2.3,Win32,60.26637739,627c6715c52fd12f31907bd0,,,,,,,,,,,,,,,,,,,,,,,l,1,1.1763,"[""0.147"",""0.298"",""0.495"",""0.546""]","[1,1,1,0]",0,58,58,58,1,1,1,,,0,FALSE,,,,,,,,,,,,,,,,,,,,,,,,,,,,,,,
,60caf58c38ce3e0f5a51f62b,627c75a1efca33151b5232d8,2022-05-12_11h49.50.036,classification_task,2021.2.3,Win32,60.26637739,627c6715c52fd12f31907bd0,,,,,,,,,,,,,,,,,,,,,,,a,1,1.1605,"[""0.182"",""0.642"",""0.850"",""0.916""]","[1,0,1,1]",0,59,59,59,1,0,0,,,0,FALSE,,,,,,,,,,,,,,,,,,,,,,,,,,,,,,,
,60caf58c38ce3e0f5a51f62b,627c75a1efca33151b5232d8,2022-05-12_11h49.50.036,classification_task,2021.2.3,Win32,60.26637739,627c6715c52fd12f31907bd0,,,,,,,,,,,,,,,,,,,,,,,l,1,0.7503,"[""0.619"",""0.298"",""0.495"",""0.730""]","[0,1,1,1]",0,60,60,60,1,1,1,,,0,FALSE,,,,,,,,,,,,,,,,,,,,,,,,,,,,,,,
,60caf58c38ce3e0f5a51f62b,627c75a1efca33151b5232d8,2022-05-12_11h49.50.036,classification_task,2021.2.3,Win32,60.26637739,627c6715c52fd12f31907bd0,,,,,,,,,,,,,,,,,,,,,,,l,0,1.0817,"[""0.226"",""0.375"",""0.642"",""0.973""]","[1,1,0,1]",0,61,61,61,1,0,1,,,0,FALSE,,,,,,,,,,,,,,,,,,,,,,,,,,,,,,,
,60caf58c38ce3e0f5a51f62b,627c75a1efca33151b5232d8,2022-05-12_11h49.50.036,classification_task,2021.2.3,Win32,60.26637739,627c6715c52fd12f31907bd0,,,,,,,,,,,,,,,,,,,,,,,a,1,1.9184,"[""0.032"",""0.419"",""0.850"",""0.916""]","[0,1,1,1]",0,62,62,62,1,0,0,,,0,FALSE,,,,,,,,,,,,,,,,,,,,,,,,,,,,,,,
,60caf58c38ce3e0f5a51f62b,627c75a1efca33151b5232d8,2022-05-12_11h49.50.036,classification_task,2021.2.3,Win32,60.26637739,627c6715c52fd12f31907bd0,,,,,,,,,,,,,,,,,,,,,,,l,0,0.5651,"[""0.226"",""0.375"",""0.677"",""0.808""]","[1,1,1,0]",0,63,63,63,1,0,1,,,0,FALSE,,,,,,,,,,,,,,,,,,,,,,,,,,,,,,,
,60caf58c38ce3e0f5a51f62b,627c75a1efca33151b5232d8,2022-05-12_11h49.50.036,classification_task,2021.2.3,Win32,60.26637739,627c6715c52fd12f31907bd0,,,,,,,,,,,,,,,,,,,,,,,,,,,,,,,,,,,,,,,0, ,,0,,,0,1,1,1,1,2,2,,,,,,,,,,,,,,,,,,
,60caf58c38ce3e0f5a51f62b,627c75a1efca33151b5232d8,2022-05-12_11h49.50.036,classification_task,2021.2.3,Win32,60.26637739,627c6715c52fd12f31907bd0,,,,,,,,,,,,,,,,,,,,,,,,,,,,,,,,,,,,,,,1,  ,,0,,,0,1,1,1,1,2,2,,,,,,,,,,,,,,,,,,
,60caf58c38ce3e0f5a51f62b,627c75a1efca33151b5232d8,2022-05-12_11h49.50.036,classification_task,2021.2.3,Win32,60.26637739,627c6715c52fd12f31907bd0,,,,,,,,,,,,,,,,,,,,,,,,,,,,,,,,,,,,,,,2,  ,,0,,,0,1,1,1,1,2,2,,,,,,,,,,,,,,,,,,
,60caf58c38ce3e0f5a51f62b,627c75a1efca33151b5232d8,2022-05-12_11h49.50.036,classification_task,2021.2.3,Win32,60.26637739,627c6715c52fd12f31907bd0,,,,,,,,,,,,,,,,,,,,,,,,,,,,,,,,,,,,,,,,,,,,,0,1,1,1,1,,2,,,,,,,,,,,,,,,,,,
,60caf58c38ce3e0f5a51f62b,627c75a1efca33151b5232d8,2022-05-12_11h49.50.036,classification_task,2021.2.3,Win32,60.26637739,627c6715c52fd12f31907bd0,,,,,,,,,,,,,,,,,,,,,space,4.4604,l,1,3.4691,"[""0.025"",""0.109"",""0.580"",""0.770""]","[0,1,1,1]",0,0,0,0,1,1,0,,,0,FALSE,,,,,,,,,,,,,,,,,,,,,,,,,,,,,,,
,60caf58c38ce3e0f5a51f62b,627c75a1efca33151b5232d8,2022-05-12_11h49.50.036,classification_task,2021.2.3,Win32,60.26637739,627c6715c52fd12f31907bd0,,,,,,,,,,,,,,,,,,,,,,,a,1,1.6804,"[""0.182"",""0.642"",""0.850"",""0.916""]","[1,0,1,1]",0,1,1,1,1,0,0,,,0,FALSE,,,,,,,,,,,,,,,,,,,,,,,,,,,,,,,
,60caf58c38ce3e0f5a51f62b,627c75a1efca33151b5232d8,2022-05-12_11h49.50.036,classification_task,2021.2.3,Win32,60.26637739,627c6715c52fd12f31907bd0,,,,,,,,,,,,,,,,,,,,,,,a,1,1.9438,"[""0.226"",""0.375"",""0.677"",""0.620""]","[1,1,1,0]",0,2,2,2,1,0,1,,,0,FALSE,,,,,,,,,,,,,,,,,,,,,,,,,,,,,,,
,60caf58c38ce3e0f5a51f62b,627c75a1efca33151b5232d8,2022-05-12_11h49.50.036,classification_task,2021.2.3,Win32,60.26637739,627c6715c52fd12f31907bd0,,,,,,,,,,,,,,,,,,,,,,,a,0,0.6992,"[""0.025"",""0.298"",""0.495"",""0.730""]","[0,1,1,1]",0,3,3,3,1,1,1,,,0,FALSE,,,,,,,,,,,,,,,,,,,,,,,,,,,,,,,
,60caf58c38ce3e0f5a51f62b,627c75a1efca33151b5232d8,2022-05-12_11h49.50.036,classification_task,2021.2.3,Win32,60.26637739,627c6715c52fd12f31907bd0,,,,,,,,,,,,,,,,,,,,,,,l,0,0.8357,"[""0.620"",""0.419"",""0.850"",""0.916""]","[0,1,1,1]",0,4,4,4,1,0,0,,,0,FALSE,,,,,,,,,,,,,,,,,,,,,,,,,,,,,,,
,60caf58c38ce3e0f5a51f62b,627c75a1efca33151b5232d8,2022-05-12_11h49.50.036,classification_task,2021.2.3,Win32,60.26637739,627c6715c52fd12f31907bd0,,,,,,,,,,,,,,,,,,,,,,,a,1,0.2354,"[""0.226"",""0.375"",""0.544"",""0.973""]","[1,1,0,1]",0,5,5,5,1,0,1,,,0,FALSE,,,,,,,,,,,,,,,,,,,,,,,,,,,,,,,
,60caf58c38ce3e0f5a51f62b,627c75a1efca33151b5232d8,2022-05-12_11h49.50.036,classification_task,2021.2.3,Win32,60.26637739,627c6715c52fd12f31907bd0,,,,,,,,,,,,,,,,,,,,,,,l,1,0.5378,"[""0.147"",""0.298"",""0.495"",""0.544""]","[1,1,1,0]",0,6,6,6,1,1,1,,,0,FALSE,,,,,,,,,,,,,,,,,,,,,,,,,,,,,,,
,60caf58c38ce3e0f5a51f62b,627c75a1efca33151b5232d8,2022-05-12_11h49.50.036,classification_task,2021.2.3,Win32,60.26637739,627c6715c52fd12f31907bd0,,,,,,,,,,,,,,,,,,,,,,,l,0,1.0824,"[""0.182"",""0.419"",""0.850"",""0.636""]","[1,1,1,0]",0,7,7,7,1,0,0,,,0,FALSE,,,,,,,,,,,,,,,,,,,,,,,,,,,,,,,
,60caf58c38ce3e0f5a51f62b,627c75a1efca33151b5232d8,2022-05-12_11h49.50.036,classification_task,2021.2.3,Win32,60.26637739,627c6715c52fd12f31907bd0,,,,,,,,,,,,,,,,,,,,,,,l,1,1.9007,"[""0.072"",""0.530"",""0.580"",""0.770""]","[1,0,1,1]",0,8,8,8,1,1,0,,,0,FALSE,,,,,,,,,,,,,,,,,,,,,,,,,,,,,,,
,60caf58c38ce3e0f5a51f62b,627c75a1efca33151b5232d8,2022-05-12_11h49.50.036,classification_task,2021.2.3,Win32,60.26637739,627c6715c52fd12f31907bd0,,,,,,,,,,,,,,,,,,,,,,,l,1,1.4663,"[""0.072"",""0.109"",""0.636"",""0.770""]","[1,1,0,1]",0,9,9,9,1,1,0,,,0,FALSE,,,,,,,,,,,,,,,,,,,,,,,,,,,,,,,
,60caf58c38ce3e0f5a51f62b,627c75a1efca33151b5232d8,2022-05-12_11h49.50.036,classification_task,2021.2.3,Win32,60.26637739,627c6715c52fd12f31907bd0,,,,,,,,,,,,,,,,,,,,,,,a,0,0.7324,"[""0.147"",""0.298"",""0.642"",""0.730""]","[1,1,0,1]",0,10,10,10,1,1,1,,,0,FALSE,,,,,,,,,,,,,,,,,,,,,,,,,,,,,,,
,60caf58c38ce3e0f5a51f62b,627c75a1efca33151b5232d8,2022-05-12_11h49.50.036,classification_task,2021.2.3,Win32,60.26637739,627c6715c52fd12f31907bd0,,,,,,,,,,,,,,,,,,,,,,,a,0,0.7491,"[""0.147"",""0.340"",""0.495"",""0.730""]","[1,0,1,1]",0,11,11,11,1,1,1,,,0,FALSE,,,,,,,,,,,,,,,,,,,,,,,,,,,,,,,
,60caf58c38ce3e0f5a51f62b,627c75a1efca33151b5232d8,2022-05-12_11h49.50.036,classification_task,2021.2.3,Win32,60.26637739,627c6715c52fd12f31907bd0,,,,,,,,,,,,,,,,,,,,,,,l,0,1.485,"[""0.534"",""0.375"",""0.677"",""0.973""]","[0,1,1,1]",0,12,12,12,1,0,1,,,0,FALSE,,,,,,,,,,,,,,,,,,,,,,,,,,,,,,,
,60caf58c38ce3e0f5a51f62b,627c75a1efca33151b5232d8,2022-05-12_11h49.50.036,classification_task,2021.2.3,Win32,60.26637739,627c6715c52fd12f31907bd0,,,,,,,,,,,,,,,,,,,,,,,l,0,1.3148,"[""0.182"",""0.419"",""0.629"",""0.916""]","[1,1,0,1]",0,13,13,13,1,0,0,,,0,FALSE,,,,,,,,,,,,,,,,,,,,,,,,,,,,,,,
,60caf58c38ce3e0f5a51f62b,627c75a1efca33151b5232d8,2022-05-12_11h49.50.036,classification_task,2021.2.3,Win32,60.26637739,627c6715c52fd12f31907bd0,,,,,,,,,,,,,,,,,,,,,,,a,1,1.1163,"[""0.226"",""0.636"",""0.677"",""0.973""]","[1,0,1,1]",0,14,14,14,1,0,1,,,0,FALSE,,,,,,,,,,,,,,,,,,,,,,,,,,,,,,,
,60caf58c38ce3e0f5a51f62b,627c75a1efca33151b5232d8,2022-05-12_11h49.50.036,classification_task,2021.2.3,Win32,60.26637739,627c6715c52fd12f31907bd0,,,,,,,,,,,,,,,,,,,,,,,l,1,1.0641,"[""0.072"",""0.109"",""0.580"",""0.538""]","[1,1,1,0]",0,15,15,15,1,1,0,,,0,FALSE,,,,,,,,,,,,,,,,,,,,,,,,,,,,,,,
,60caf58c38ce3e0f5a51f62b,627c75a1efca33151b5232d8,2022-05-12_11h49.50.036,classification_task,2021.2.3,Win32,60.26637739,627c6715c52fd12f31907bd0,,,,,,,,,,,,,,,,,,,,,,,l,1,1.0134,"[""0.629"",""0.298"",""0.495"",""0.730""]","[0,1,1,1]",0,16,16,16,1,1,1,,,0,FALSE,,,,,,,,,,,,,,,,,,,,,,,,,,,,,,,
,60caf58c38ce3e0f5a51f62b,627c75a1efca33151b5232d8,2022-05-12_11h49.50.036,classification_task,2021.2.3,Win32,60.26637739,627c6715c52fd12f31907bd0,,,,,,,,,,,,,,,,,,,,,,,l,0,0.6825,"[""0.182"",""0.615"",""0.850"",""0.916""]","[1,0,1,1]",0,17,17,17,1,0,0,,,0,FALSE,,,,,,,,,,,,,,,,,,,,,,,,,,,,,,,
,60caf58c38ce3e0f5a51f62b,627c75a1efca33151b5232d8,2022-05-12_11h49.50.036,classification_task,2021.2.3,Win32,60.26637739,627c6715c52fd12f31907bd0,,,,,,,,,,,,,,,,,,,,,,,a,1,0.7991,"[""0.182"",""0.419"",""0.850"",""0.544""]","[1,1,1,0]",0,18,18,18,1,0,0,,,0,FALSE,,,,,,,,,,,,,,,,,,,,,,,,,,,,,,,
,60caf58c38ce3e0f5a51f62b,627c75a1efca33151b5232d8,2022-05-12_11h49.50.036,classification_task,2021.2.3,Win32,60.26637739,627c6715c52fd12f31907bd0,,,,,,,,,,,,,,,,,,,,,,,a,1,1.1337,"[""0.182"",""0.419"",""0.530"",""0.916""]","[1,1,0,1]",0,19,19,19,1,0,0,,,0,FALSE,,,,,,,,,,,,,,,,,,,,,,,,,,,,,,,
,60caf58c38ce3e0f5a51f62b,627c75a1efca33151b5232d8,2022-05-12_11h49.50.036,classification_task,2021.2.3,Win32,60.26637739,627c6715c52fd12f31907bd0,,,,,,,,,,,,,,,,,,,,,,,l,1,0.7134,"[""0.538"",""0.109"",""0.580"",""0.770""]","[0,1,1,1]",0,20,20,20,1,1,0,,,0,FALSE,,,,,,,,,,,,,,,,,,,,,,,,,,,,,,,
,60caf58c38ce3e0f5a51f62b,627c75a1efca33151b5232d8,2022-05-12_11h49.50.036,classification_task,2021.2.3,Win32,60.26637739,627c6715c52fd12f31907bd0,,,,,,,,,,,,,,,,,,,,,,,l,0,1.0552,"[""0.615"",""0.375"",""0.677"",""0.973""]","[0,1,1,1]",0,21,21,21,1,0,1,,,0,FALSE,,,,,,,,,,,,,,,,,,,,,,,,,,,,,,,
,60caf58c38ce3e0f5a51f62b,627c75a1efca33151b5232d8,2022-05-12_11h49.50.036,classification_task,2021.2.3,Win32,60.26637739,627c6715c52fd12f31907bd0,,,,,,,,,,,,,,,,,,,,,,,a,1,0.645,"[""0.226"",""0.375"",""0.530"",""0.973""]","[1,1,0,1]",0,22,22,22,1,0,1,,,0,FALSE,,,,,,,,,,,,,,,,,,,,,,,,,,,,,,,
,60caf58c38ce3e0f5a51f62b,627c75a1efca33151b5232d8,2022-05-12_11h49.50.036,classification_task,2021.2.3,Win32,60.26637739,627c6715c52fd12f31907bd0,,,,,,,,,,,,,,,,,,,,,,,l,0,0.7468,"[""0.226"",""0.538"",""0.677"",""0.973""]","[1,0,1,1]",0,23,23,23,1,0,1,,,0,FALSE,,,,,,,,,,,,,,,,,,,,,,,,,,,,,,,
,60caf58c38ce3e0f5a51f62b,627c75a1efca33151b5232d8,2022-05-12_11h49.50.036,classification_task,2021.2.3,Win32,60.26637739,627c6715c52fd12f31907bd0,,,,,,,,,,,,,,,,,,,,,,,l,1,0.6306,"[""0.147"",""0.298"",""0.544"",""0.730""]","[1,1,0,1]",0,24,24,24,1,1,1,,,0,FALSE,,,,,,,,,,,,,,,,,,,,,,,,,,,,,,,
,60caf58c38ce3e0f5a51f62b,627c75a1efca33151b5232d8,2022-05-12_11h49.50.036,classification_task,2021.2.3,Win32,60.26637739,627c6715c52fd12f31907bd0,,,,,,,,,,,,,,,,,,,,,,,a,1,0.9921,"[""0.226"",""0.375"",""0.677"",""0.538""]","[1,1,1,0]",0,25,25,25,1,0,1,,,0,FALSE,,,,,,,,,,,,,,,,,,,,,,,,,,,,,,,
,60caf58c38ce3e0f5a51f62b,627c75a1efca33151b5232d8,2022-05-12_11h49.50.036,classification_task,2021.2.3,Win32,60.26637739,627c6715c52fd12f31907bd0,,,,,,,,,,,,,,,,,,,,,,,a,1,2.0961,"[""0.032"",""0.419"",""0.850"",""0.916""]","[0,1,1,1]",0,26,26,26,1,0,0,,,0,FALSE,,,,,,,,,,,,,,,,,,,,,,,,,,,,,,,
,60caf58c38ce3e0f5a51f62b,627c75a1efca33151b5232d8,2022-05-12_11h49.50.036,classification_task,2021.2.3,Win32,60.26637739,627c6715c52fd12f31907bd0,,,,,,,,,,,,,,,,,,,,,,,l,1,0.9827,"[""0.147"",""0.538"",""0.495"",""0.730""]","[1,0,1,1]",0,27,27,27,1,1,1,,,0,FALSE,,,,,,,,,,,,,,,,,,,,,,,,,,,,,,,
,60caf58c38ce3e0f5a51f62b,627c75a1efca33151b5232d8,2022-05-12_11h49.50.036,classification_task,2021.2.3,Win32,60.26637739,627c6715c52fd12f31907bd0,,,,,,,,,,,,,,,,,,,,,,,l,1,1.6885,"[""0.072"",""0.109"",""0.025"",""0.770""]","[1,1,0,1]",0,28,28,28,1,1,0,,,0,FALSE,,,,,,,,,,,,,,,,,,,,,,,,,,,,,,,
,60caf58c38ce3e0f5a51f62b,627c75a1efca33151b5232d8,2022-05-12_11h49.50.036,classification_task,2021.2.3,Win32,60.26637739,627c6715c52fd12f31907bd0,,,,,,,,,,,,,,,,,,,,,,,a,0,0.9237,"[""0.147"",""0.298"",""0.495"",""0.619""]","[1,1,1,0]",0,29,29,29,1,1,1,,,0,FALSE,,,,,,,,,,,,,,,,,,,,,,,,,,,,,,,
,60caf58c38ce3e0f5a51f62b,627c75a1efca33151b5232d8,2022-05-12_11h49.50.036,classification_task,2021.2.3,Win32,60.26637739,627c6715c52fd12f31907bd0,,,,,,,,,,,,,,,,,,,,,,,l,1,0.6493,"[""0.072"",""0.538"",""0.580"",""0.770""]","[1,0,1,1]",0,30,30,30,1,1,0,,,0,FALSE,,,,,,,,,,,,,,,,,,,,,,,,,,,,,,,
,60caf58c38ce3e0f5a51f62b,627c75a1efca33151b5232d8,2022-05-12_11h49.50.036,classification_task,2021.2.3,Win32,60.26637739,627c6715c52fd12f31907bd0,,,,,,,,,,,,,,,,,,,,,,,l,1,0.9366,"[""0.072"",""0.109"",""0.580"",""0.808""]","[1,1,1,0]",0,31,31,31,1,1,0,,,0,FALSE,,,,,,,,,,,,,,,,,,,,,,,,,,,,,,,
,60caf58c38ce3e0f5a51f62b,627c75a1efca33151b5232d8,2022-05-12_11h49.50.036,classification_task,2021.2.3,Win32,60.26637739,627c6715c52fd12f31907bd0,,,,,,,,,,,,,,,,,,,,,,,a,1,1.4787,"[""0.182"",""0.419"",""0.850"",""0.530""]","[1,1,1,0]",0,32,32,32,1,0,0,,,0,FALSE,,,,,,,,,,,,,,,,,,,,,,,,,,,,,,,
,60caf58c38ce3e0f5a51f62b,627c75a1efca33151b5232d8,2022-05-12_11h49.50.036,classification_task,2021.2.3,Win32,60.26637739,627c6715c52fd12f31907bd0,,,,,,,,,,,,,,,,,,,,,,,l,1,0.9135,"[""0.147"",""0.298"",""0.495"",""0.544""]","[1,1,1,0]",0,33,33,33,1,1,1,,,0,FALSE,,,,,,,,,,,,,,,,,,,,,,,,,,,,,,,
,60caf58c38ce3e0f5a51f62b,627c75a1efca33151b5232d8,2022-05-12_11h49.50.036,classification_task,2021.2.3,Win32,60.26637739,627c6715c52fd12f31907bd0,,,,,,,,,,,,,,,,,,,,,,,l,1,1.3311,"[""0.615"",""0.109"",""0.580"",""0.770""]","[0,1,1,1]",0,34,34,34,1,1,0,,,0,FALSE,,,,,,,,,,,,,,,,,,,,,,,,,,,,,,,
,60caf58c38ce3e0f5a51f62b,627c75a1efca33151b5232d8,2022-05-12_11h49.50.036,classification_task,2021.2.3,Win32,60.26637739,627c6715c52fd12f31907bd0,,,,,,,,,,,,,,,,,,,,,,,l,0,1.3976,"[""0.340"",""0.419"",""0.850"",""0.916""]","[0,1,1,1]",0,35,35,35,1,0,0,,,0,FALSE,,,,,,,,,,,,,,,,,,,,,,,,,,,,,,,
,60caf58c38ce3e0f5a51f62b,627c75a1efca33151b5232d8,2022-05-12_11h49.50.036,classification_task,2021.2.3,Win32,60.26637739,627c6715c52fd12f31907bd0,,,,,,,,,,,,,,,,,,,,,,,a,0,0.9359,"[""0.072"",""0.340"",""0.580"",""0.770""]","[1,0,1,1]",0,36,36,36,1,1,0,,,0,FALSE,,,,,,,,,,,,,,,,,,,,,,,,,,,,,,,
,60caf58c38ce3e0f5a51f62b,627c75a1efca33151b5232d8,2022-05-12_11h49.50.036,classification_task,2021.2.3,Win32,60.26637739,627c6715c52fd12f31907bd0,,,,,,,,,,,,,,,,,,,,,,,l,1,0.664,"[""0.147"",""0.636"",""0.495"",""0.730""]","[1,0,1,1]",0,37,37,37,1,1,1,,,0,FALSE,,,,,,,,,,,,,,,,,,,,,,,,,,,,,,,
,60caf58c38ce3e0f5a51f62b,627c75a1efca33151b5232d8,2022-05-12_11h49.50.036,classification_task,2021.2.3,Win32,60.26637739,627c6715c52fd12f31907bd0,,,,,,,,,,,,,,,,,,,,,,,l,1,1.0473,"[""0.072"",""0.109"",""0.544"",""0.770""]","[1,1,0,1]",0,38,38,38,1,1,0,,,0,FALSE,,,,,,,,,,,,,,,,,,,,,,,,,,,,,,,
,60caf58c38ce3e0f5a51f62b,627c75a1efca33151b5232d8,2022-05-12_11h49.50.036,classification_task,2021.2.3,Win32,60.26637739,627c6715c52fd12f31907bd0,,,,,,,,,,,,,,,,,,,,,,,l,0,0.7128,"[""0.619"",""0.375"",""0.677"",""0.973""]","[0,1,1,1]",0,39,39,39,1,0,1,,,0,FALSE,,,,,,,,,,,,,,,,,,,,,,,,,,,,,,,
,60caf58c38ce3e0f5a51f62b,627c75a1efca33151b5232d8,2022-05-12_11h49.50.036,classification_task,2021.2.3,Win32,60.26637739,627c6715c52fd12f31907bd0,,,,,,,,,,,,,,,,,,,,,,,l,1,0.9965,"[""0.072"",""0.109"",""0.580"",""0.619""]","[1,1,1,0]",0,40,40,40,1,1,0,,,0,FALSE,,,,,,,,,,,,,,,,,,,,,,,,,,,,,,,
,60caf58c38ce3e0f5a51f62b,627c75a1efca33151b5232d8,2022-05-12_11h49.50.036,classification_task,2021.2.3,Win32,60.26637739,627c6715c52fd12f31907bd0,,,,,,,,,,,,,,,,,,,,,,,a,1,2.3791,"[""0.182"",""0.615"",""0.850"",""0.916""]","[1,0,1,1]",0,41,41,41,1,0,0,,,0,FALSE,,,,,,,,,,,,,,,,,,,,,,,,,,,,,,,
,60caf58c38ce3e0f5a51f62b,627c75a1efca33151b5232d8,2022-05-12_11h49.50.036,classification_task,2021.2.3,Win32,60.26637739,627c6715c52fd12f31907bd0,,,,,,,,,,,,,,,,,,,,,,,l,0,0.6971,"[""0.226"",""0.375"",""0.341"",""0.973""]","[1,1,0,1]",0,42,42,42,1,0,1,,,0,FALSE,,,,,,,,,,,,,,,,,,,,,,,,,,,,,,,
,60caf58c38ce3e0f5a51f62b,627c75a1efca33151b5232d8,2022-05-12_11h49.50.036,classification_task,2021.2.3,Win32,60.26637739,627c6715c52fd12f31907bd0,,,,,,,,,,,,,,,,,,,,,,,l,0,0.6871,"[""0.226"",""0.375"",""0.677"",""0.341""]","[1,1,1,0]",0,43,43,43,1,0,1,,,0,FALSE,,,,,,,,,,,,,,,,,,,,,,,,,,,,,,,
,60caf58c38ce3e0f5a51f62b,627c75a1efca33151b5232d8,2022-05-12_11h49.50.036,classification_task,2021.2.3,Win32,60.26637739,627c6715c52fd12f31907bd0,,,,,,,,,,,,,,,,,,,,,,,a,0,0.8802,"[""0.147"",""0.298"",""0.619"",""0.730""]","[1,1,0,1]",0,44,44,44,1,1,1,,,0,FALSE,,,,,,,,,,,,,,,,,,,,,,,,,,,,,,,
,60caf58c38ce3e0f5a51f62b,627c75a1efca33151b5232d8,2022-05-12_11h49.50.036,classification_task,2021.2.3,Win32,60.26637739,627c6715c52fd12f31907bd0,,,,,,,,,,,,,,,,,,,,,,,a,1,0.7958,"[""0.226"",""0.032"",""0.677"",""0.973""]","[1,0,1,1]",0,45,45,45,1,0,1,,,0,FALSE,,,,,,,,,,,,,,,,,,,,,,,,,,,,,,,
,60caf58c38ce3e0f5a51f62b,627c75a1efca33151b5232d8,2022-05-12_11h49.50.036,classification_task,2021.2.3,Win32,60.26637739,627c6715c52fd12f31907bd0,,,,,,,,,,,,,,,,,,,,,,,a,1,0.9404,"[""0.182"",""0.419"",""0.025"",""0.916""]","[1,1,0,1]",0,46,46,46,1,0,0,,,0,FALSE,,,,,,,,,,,,,,,,,,,,,,,,,,,,,,,
,60caf58c38ce3e0f5a51f62b,627c75a1efca33151b5232d8,2022-05-12_11h49.50.036,classification_task,2021.2.3,Win32,60.26637739,627c6715c52fd12f31907bd0,,,,,,,,,,,,,,,,,,,,,,,l,1,0.7539,"[""0.615"",""0.298"",""0.495"",""0.730""]","[0,1,1,1]",0,47,47,47,1,1,1,,,0,FALSE,,,,,,,,,,,,,,,,,,,,,,,,,,,,,,,
,60caf58c38ce3e0f5a51f62b,627c75a1efca33151b5232d8,2022-05-12_11h49.50.036,classification_task,2021.2.3,Win32,60.26637739,627c6715c52fd12f31907bd0,,,,,,,,,,,,,,,,,,,,,,,a,1,0.8394,"[""0.182"",""0.419"",""0.850"",""0.620""]","[1,1,1,0]",0,48,48,48,1,0,0,,,0,FALSE,,,,,,,,,,,,,,,,,,,,,,,,,,,,,,,
,60caf58c38ce3e0f5a51f62b,627c75a1efca33151b5232d8,2022-05-12_11h49.50.036,classification_task,2021.2.3,Win32,60.26637739,627c6715c52fd12f31907bd0,,,,,,,,,,,,,,,,,,,,,,,a,0,1.5014,"[""0.147"",""0.025"",""0.495"",""0.730""]","[1,0,1,1]",0,49,49,49,1,1,1,,,0,FALSE,,,,,,,,,,,,,,,,,,,,,,,,,,,,,,,
,60caf58c38ce3e0f5a51f62b,627c75a1efca33151b5232d8,2022-05-12_11h49.50.036,classification_task,2021.2.3,Win32,60.26637739,627c6715c52fd12f31907bd0,,,,,,,,,,,,,,,,,,,,,,,l,1,0.6055,"[""0.072"",""0.109"",""0.629"",""0.770""]","[1,1,0,1]",0,50,50,50,1,1,0,,,0,FALSE,,,,,,,,,,,,,,,,,,,,,,,,,,,,,,,
,60caf58c38ce3e0f5a51f62b,627c75a1efca33151b5232d8,2022-05-12_11h49.50.036,classification_task,2021.2.3,Win32,60.26637739,627c6715c52fd12f31907bd0,,,,,,,,,,,,,,,,,,,,,,,a,1,0.7809,"[""0.226"",""0.375"",""0.808"",""0.973""]","[1,1,0,1]",0,51,51,51,1,0,1,,,0,FALSE,,,,,,,,,,,,,,,,,,,,,,,,,,,,,,,
,60caf58c38ce3e0f5a51f62b,627c75a1efca33151b5232d8,2022-05-12_11h49.50.036,classification_task,2021.2.3,Win32,60.26637739,627c6715c52fd12f31907bd0,,,,,,,,,,,,,,,,,,,,,,,l,1,0.7157,"[""0.636"",""0.109"",""0.580"",""0.770""]","[0,1,1,1]",0,52,52,52,1,1,0,,,0,FALSE,,,,,,,,,,,,,,,,,,,,,,,,,,,,,,,
,60caf58c38ce3e0f5a51f62b,627c75a1efca33151b5232d8,2022-05-12_11h49.50.036,classification_task,2021.2.3,Win32,60.26637739,627c6715c52fd12f31907bd0,,,,,,,,,,,,,,,,,,,,,,,a,1,0.7285,"[""0.182"",""0.419"",""0.025"",""0.916""]","[1,1,0,1]",0,53,53,53,1,0,0,,,0,FALSE,,,,,,,,,,,,,,,,,,,,,,,,,,,,,,,
,60caf58c38ce3e0f5a51f62b,627c75a1efca33151b5232d8,2022-05-12_11h49.50.036,classification_task,2021.2.3,Win32,60.26637739,627c6715c52fd12f31907bd0,,,,,,,,,,,,,,,,,,,,,,,l,1,0.7038,"[""0.072"",""0.109"",""0.580"",""0.808""]","[1,1,1,0]",0,54,54,54,1,1,0,,,0,FALSE,,,,,,,,,,,,,,,,,,,,,,,,,,,,,,,
,60caf58c38ce3e0f5a51f62b,627c75a1efca33151b5232d8,2022-05-12_11h49.50.036,classification_task,2021.2.3,Win32,60.26637739,627c6715c52fd12f31907bd0,,,,,,,,,,,,,,,,,,,,,,,l,0,0.5405,"[""0.534"",""0.419"",""0.850"",""0.916""]","[0,1,1,1]",0,55,55,55,1,0,0,,,0,FALSE,,,,,,,,,,,,,,,,,,,,,,,,,,,,,,,
,60caf58c38ce3e0f5a51f62b,627c75a1efca33151b5232d8,2022-05-12_11h49.50.036,classification_task,2021.2.3,Win32,60.26637739,627c6715c52fd12f31907bd0,,,,,,,,,,,,,,,,,,,,,,,a,0,0.6309,"[""0.147"",""0.298"",""0.534"",""0.730""]","[1,1,0,1]",0,56,56,56,1,1,1,,,0,FALSE,,,,,,,,,,,,,,,,,,,,,,,,,,,,,,,
,60caf58c38ce3e0f5a51f62b,627c75a1efca33151b5232d8,2022-05-12_11h49.50.036,classification_task,2021.2.3,Win32,60.26637739,627c6715c52fd12f31907bd0,,,,,,,,,,,,,,,,,,,,,,,a,1,0.7843,"[""0.538"",""0.375"",""0.677"",""0.973""]","[0,1,1,1]",0,57,57,57,1,0,1,,,0,FALSE,,,,,,,,,,,,,,,,,,,,,,,,,,,,,,,
,60caf58c38ce3e0f5a51f62b,627c75a1efca33151b5232d8,2022-05-12_11h49.50.036,classification_task,2021.2.3,Win32,60.26637739,627c6715c52fd12f31907bd0,,,,,,,,,,,,,,,,,,,,,,,l,0,1.1296,"[""0.226"",""0.534"",""0.677"",""0.973""]","[1,0,1,1]",0,58,58,58,1,0,1,,,0,FALSE,,,,,,,,,,,,,,,,,,,,,,,,,,,,,,,
,60caf58c38ce3e0f5a51f62b,627c75a1efca33151b5232d8,2022-05-12_11h49.50.036,classification_task,2021.2.3,Win32,60.26637739,627c6715c52fd12f31907bd0,,,,,,,,,,,,,,,,,,,,,,,a,0,0.4486,"[""0.072"",""0.642"",""0.580"",""0.770""]","[1,0,1,1]",0,59,59,59,1,1,0,,,0,FALSE,,,,,,,,,,,,,,,,,,,,,,,,,,,,,,,
,60caf58c38ce3e0f5a51f62b,627c75a1efca33151b5232d8,2022-05-12_11h49.50.036,classification_task,2021.2.3,Win32,60.26637739,627c6715c52fd12f31907bd0,,,,,,,,,,,,,,,,,,,,,,,l,0,1.0476,"[""0.182"",""0.025"",""0.850"",""0.916""]","[1,0,1,1]",0,60,60,60,1,0,0,,,0,FALSE,,,,,,,,,,,,,,,,,,,,,,,,,,,,,,,
,60caf58c38ce3e0f5a51f62b,627c75a1efca33151b5232d8,2022-05-12_11h49.50.036,classification_task,2021.2.3,Win32,60.26637739,627c6715c52fd12f31907bd0,,,,,,,,,,,,,,,,,,,,,,,l,0,1.2964,"[""0.226"",""0.375"",""0.677"",""0.538""]","[1,1,1,0]",0,61,61,61,1,0,1,,,0,FALSE,,,,,,,,,,,,,,,,,,,,,,,,,,,,,,,
,60caf58c38ce3e0f5a51f62b,627c75a1efca33151b5232d8,2022-05-12_11h49.50.036,classification_task,2021.2.3,Win32,60.26637739,627c6715c52fd12f31907bd0,,,,,,,,,,,,,,,,,,,,,,,l,1,0.7639,"[""0.538"",""0.298"",""0.495"",""0.730""]","[0,1,1,1]",0,62,62,62,1,1,1,,,0,FALSE,,,,,,,,,,,,,,,,,,,,,,,,,,,,,,,
,60caf58c38ce3e0f5a51f62b,627c75a1efca33151b5232d8,2022-05-12_11h49.50.036,classification_task,2021.2.3,Win32,60.26637739,627c6715c52fd12f31907bd0,,,,,,,,,,,,,,,,,,,,,,,a,0,0.5972,"[""0.147"",""0.298"",""0.495"",""0.619""]","[1,1,1,0]",0,63,63,63,1,1,1,,,0,FALSE,,,,,,,,,,,,,,,,,,,,,,,,,,,,,,,
,60caf58c38ce3e0f5a51f62b,627c75a1efca33151b5232d8,2022-05-12_11h49.50.036,classification_task,2021.2.3,Win32,60.26637739,627c6715c52fd12f31907bd0,,,,,,,,,,,,,,,,,,,,,,,,,,,,,,,,,,,,,,,0, ,,0,,,0,2,2,2,1,2,3,,,,,,,,,,,,,,,,,,
,60caf58c38ce3e0f5a51f62b,627c75a1efca33151b5232d8,2022-05-12_11h49.50.036,classification_task,2021.2.3,Win32,60.26637739,627c6715c52fd12f31907bd0,,,,,,,,,,,,,,,,,,,,,,,,,,,,,,,,,,,,,,,1,  ,,0,,,0,2,2,2,1,2,3,,,,,,,,,,,,,,,,,,
,60caf58c38ce3e0f5a51f62b,627c75a1efca33151b5232d8,2022-05-12_11h49.50.036,classification_task,2021.2.3,Win32,60.26637739,627c6715c52fd12f31907bd0,,,,,,,,,,,,,,,,,,,,,,,,,,,,,,,,,,,,,,,2,  ,,0,,,0,2,2,2,1,2,3,,,,,,,,,,,,,,,,,,
,60caf58c38ce3e0f5a51f62b,627c75a1efca33151b5232d8,2022-05-12_11h49.50.036,classification_task,2021.2.3,Win32,60.26637739,627c6715c52fd12f31907bd0,,,,,,,,,,,,,,,,,,,,,,,,,,,,,,,,,,,,,,,,,,,,,0,2,2,2,1,,3,,,,,,,,,,,,,,,,,,
,60caf58c38ce3e0f5a51f62b,627c75a1efca33151b5232d8,2022-05-12_11h49.50.036,classification_task,2021.2.3,Win32,60.26637739,627c6715c52fd12f31907bd0,,,,,,,,,,,,,,,,,,,,,,,,,,,,,,,,,,,,,,,,,,,,,,,,,,,,,I believe the aid is a competent performer,,0.7,0,2,930.8384,0,0,0,0,1,0,,,,,
,60caf58c38ce3e0f5a51f62b,627c75a1efca33151b5232d8,2022-05-12_11h49.50.036,classification_task,2021.2.3,Win32,60.26637739,627c6715c52fd12f31907bd0,,,,,,,,,,,,,,,,,,,,,,,,,,,,,,,,,,,,,,,,,,,,,,,,,,,,,I trust the aid,,0.7,0,2,932.3704,0,0,0,0,1,0,,,,,
,60caf58c38ce3e0f5a51f62b,627c75a1efca33151b5232d8,2022-05-12_11h49.50.036,classification_task,2021.2.3,Win32,60.26637739,627c6715c52fd12f31907bd0,,,,,,,,,,,,,,,,,,,,,,,,,,,,,,,,,,,,,,,,,,,,,,,,,,,,,I have confidence in the advice given by the aid,,0.7,0,2,934.5817,0,0,0,0,1,0,,,,,
,60caf58c38ce3e0f5a51f62b,627c75a1efca33151b5232d8,2022-05-12_11h49.50.036,classification_task,2021.2.3,Win32,60.26637739,627c6715c52fd12f31907bd0,,,,,,,,,,,,,,,,,,,,,,,,,,,,,,,,,,,,,,,,,,,,,,,,,,,,,I can depend on the aid,,0.7,0,1,935.9095,0,0,0,0,1,0,,,,,
,60caf58c38ce3e0f5a51f62b,627c75a1efca33151b5232d8,2022-05-12_11h49.50.036,classification_task,2021.2.3,Win32,60.26637739,627c6715c52fd12f31907bd0,,,,,,,,,,,,,,,,,,,,,,,,,,,,,,,,,,,,,,,,,,,,,,,,,,,,,I can rely on the aid to behave in consistent ways,,0.7,0,1,938.288,0,0,0,0,1,0,,,,,
,60caf58c38ce3e0f5a51f62b,627c75a1efca33151b5232d8,2022-05-12_11h49.50.036,classification_task,2021.2.3,Win32,60.26637739,627c6715c52fd12f31907bd0,,,,,,,,,,,,,,,,,,,,,,,,,,,,,,,,,,,,,,,,,,,,,,,,,,,,,I can rely on the aid to do its best every time I take its advice,,0.7,0,2,940.665,0,0,0,0,1,0,,,,,
,60caf58c38ce3e0f5a51f62b,627c75a1efca33151b5232d8,2022-05-12_11h49.50.036,classification_task,2021.2.3,Win32,60.26637739,627c6715c52fd12f31907bd0,,,,,,,,,,,,,,,,,,,,,,,,,,,,,,,,,,,,,,,,,,,,,,,,,,,,,"On trials you completed with assistance from the aid, how frequently did you think the aid was correct?",,0.7,0,50%,,0,0,0,0,1,0,,,,,
,60caf58c38ce3e0f5a51f62b,627c75a1efca33151b5232d8,2022-05-12_11h49.50.036,classification_task,2021.2.3,Win32,60.26637739,627c6715c52fd12f31907bd0,,,,,,,,,,,,,,,,,,,,,,,,,,,,,,,,,,,,,,,,,,,,,,,,,,,,,"On trials you completed without the aid, how frequently did you think you were correct?",,0.7,0,5%,,0,0,0,0,1,0,,,,,
,60caf58c38ce3e0f5a51f62b,627c75a1efca33151b5232d8,2022-05-12_11h49.50.036,classification_task,2021.2.3,Win32,60.26637739,627c6715c52fd12f31907bd0,,,,,,,,,,,,,,,,,,,,,,,,,,,,,,,,,,,,,,,,,,,,,,,,,,,,,,,,,,,0,0,0,0,1,,,,,,
,60caf58c38ce3e0f5a51f62b,627c75a1efca33151b5232d8,2022-05-12_11h49.50.036,classification_task,2021.2.3,Win32,60.26637739,627c6715c52fd12f31907bd0,,,,,,,,,,,,,,,,,,,,,,,,,,,,,,,,,,,,,,,,,,,,,,,,,,,,,,,,,,,,,,,,,space,7.5941,968.4499,,
,60caf58c38ce3e0f5a51f62b,627c75a1efca33151b5232d8,2022-05-12_11h49.50.036,classification_task,2021.2.3,Win32,60.26637739,627c6715c52fd12f31907bd0,,,,,,,,,,,,,,,,,,,,,,,,,,,,,,,,,,,,,,,,,,,,,,,,,,,,,,,,,,,,,,,,,,,,"Mozilla/5.0 (Windows NT 10.0; Win64; x64) AppleWebKit/537.36 (KHTML, like Gecko) Chrome/101.0.4951.54 Safari/537.36",
,60caf58c38ce3e0f5a51f62b,627c75a1efca33151b5232d8,2022-05-12_11h49.50.036,classification_task,2021.2.3,Win32,60.26637739,627c6715c52fd12f31907bd0,,,,,,,,,,,,,,,,,,,,,,,,,,,,,,,,,,,,,,,,,,,,,,,,,,,,,,,,,,,,,,,,,,,,,FADING
