usingWebGL,participant,session,date,expName,psychopyVersion,OS,frameRate,PROLIFIC_PID,STUDY_ID,SESSION_ID,signatures_friend,signatures_foe,band_ranges_top,band_ranges_bottom,formitemText,formtype,formundefined,formitemWidth,formindex,formresponse,formrt,key_resp_2.keys,key_resp_2.rt,tute_resp.keys,tute_resp.rt,tutorial.thisRepN,tutorial.thisTrialN,tutorial.thisN,tutorial.thisIndex,tutorial.ran,key_resp_4.keys,key_resp_4.rt,key_resp.keys,key_resp.corr,key_resp.rt,lines_presented,is_signal_presented,trials.thisRepN,trials.thisTrialN,trials.thisN,trials.thisIndex,trials.ran,vessel,active_band,lines,is_signal,supported_pos,catch_trial,debrief_formindex,debrief_formitemText,debrief_formtype,debrief_formitemWidth,debrief_formresponse,debrief_formrt,phases.thisRepN,phases.thisTrialN,phases.thisN,phases.thisIndex,phases.ran,phases.order,phase,key_resp_3.keys,trustitemText,trusttype,trustitemWidth,trustindex,trustresponse,trustrt,support_status.thisRepN,support_status.thisTrialN,support_status.thisN,support_status.thisIndex,support_status.ran,support_status.order,key_resp_5.keys,key_resp_5.rt,globalClockTime,userAgent
TRUE,60cee4ec871f36088fe20ff3,001,2022-04-28_21h14.34.989,classification_task,2021.2.3,Win32,59.59475566,60cee4ec871f36088fe20ff3,626b377229c10585ec392f8a,626b3aee1572b75a9656e7d9,,,,,,,,,,,,,,,,,,,,,,,,,,,,,,,,,,,,,,,,,,,,,,,,,,,,,,,,,,,,,,,,,,,,
,60cee4ec871f36088fe20ff3,001,2022-04-28_21h14.34.989,classification_task,2021.2.3,Win32,59.59475566,60cee4ec871f36088fe20ff3,626b377229c10585ec392f8a,626b3aee1572b75a9656e7d9,"[[""0.307"",""0.427"",""0.845"",""0.912""],[""0.273"",""0.519"",""0.694"",""0.946""]]","[[""0.152"",""0.378"",""0.467"",""0.783""],[""0.035"",""0.222"",""0.560"",""0.740""]]","[1,10]","[100,1000]",Video game experience,,,0.7,0,,,,,,,,,,,,,,,,,,,,,,,,,,,,,,,,,,,,,,,,,,,,,,,,,,,,,,,,,,,
,60cee4ec871f36088fe20ff3,001,2022-04-28_21h14.34.989,classification_task,2021.2.3,Win32,59.59475566,60cee4ec871f36088fe20ff3,626b377229c10585ec392f8a,626b3aee1572b75a9656e7d9,,,,,Approximately how many hours did you spend playing video games in the last week?,,,0.7,0,8,,,,,,,,,,,,,,,,,,,,,,,,,,,,,,,,,,,,,,,,,,,,,,,,,,,,,,,,,,
,60cee4ec871f36088fe20ff3,001,2022-04-28_21h14.34.989,classification_task,2021.2.3,Win32,59.59475566,60cee4ec871f36088fe20ff3,626b377229c10585ec392f8a,626b3aee1572b75a9656e7d9,,,,,"Which game did you play the most this year? (Enter ""None"" if you didn't play any)",,,0.7,0,5,,,,,,,,,,,,,,,,,,,,,,,,,,,,,,,,,,,,,,,,,,,,,,,,,,,,,,,,,,
,60cee4ec871f36088fe20ff3,001,2022-04-28_21h14.34.989,classification_task,2021.2.3,Win32,59.59475566,60cee4ec871f36088fe20ff3,626b377229c10585ec392f8a,626b3aee1572b75a9656e7d9,,,,,Visual perception,,,0.7,0,,,,,,,,,,,,,,,,,,,,,,,,,,,,,,,,,,,,,,,,,,,,,,,,,,,,,,,,,,,
,60cee4ec871f36088fe20ff3,001,2022-04-28_21h14.34.989,classification_task,2021.2.3,Win32,59.59475566,60cee4ec871f36088fe20ff3,626b377229c10585ec392f8a,626b3aee1572b75a9656e7d9,,,,,Do you have any form of color blindness?,,,0.7,0,No,20.9461,,,,,,,,,,,,,,,,,,,,,,,,,,,,,,,,,,,,,,,,,,,,,,,,,,,,,,,,,
,60cee4ec871f36088fe20ff3,001,2022-04-28_21h14.34.989,classification_task,2021.2.3,Win32,59.59475566,60cee4ec871f36088fe20ff3,626b377229c10585ec392f8a,626b3aee1572b75a9656e7d9,,,,,Do you use software to change the colour temperature of your screen (e.g. f.lux)?,,,0.7,0,No,27.8755,,,,,,,,,,,,,,,,,,,,,,,,,,,,,,,,,,,,,,,,,,,,,,,,,,,,,,,,,
,60cee4ec871f36088fe20ff3,001,2022-04-28_21h14.34.989,classification_task,2021.2.3,Win32,59.59475566,60cee4ec871f36088fe20ff3,626b377229c10585ec392f8a,626b3aee1572b75a9656e7d9,,,,,,,,,,,,space,290.7465,space,10.8489,0,0,0,0,1,,,,,,,,,,,,,,,,,,,,,,,,,,,,,,,,,,,,,,,,,,,,,,,,
,60cee4ec871f36088fe20ff3,001,2022-04-28_21h14.34.989,classification_task,2021.2.3,Win32,59.59475566,60cee4ec871f36088fe20ff3,626b377229c10585ec392f8a,626b3aee1572b75a9656e7d9,,,,,,,,,,,,,,space,7.8728,1,0,1,0,1,,,,,,,,,,,,,,,,,,,,,,,,,,,,,,,,,,,,,,,,,,,,,,,,
,60cee4ec871f36088fe20ff3,001,2022-04-28_21h14.34.989,classification_task,2021.2.3,Win32,59.59475566,60cee4ec871f36088fe20ff3,626b377229c10585ec392f8a,626b3aee1572b75a9656e7d9,,,,,,,,,,,,,,space,21.0149,2,0,2,0,1,,,,,,,,,,,,,,,,,,,,,,,,,,,,,,,,,,,,,,,,,,,,,,,,
,60cee4ec871f36088fe20ff3,001,2022-04-28_21h14.34.989,classification_task,2021.2.3,Win32,59.59475566,60cee4ec871f36088fe20ff3,626b377229c10585ec392f8a,626b3aee1572b75a9656e7d9,,,,,,,,,,,,,,space,5.0817,3,0,3,0,1,,,,,,,,,,,,,,,,,,,,,,,,,,,,,,,,,,,,,,,,,,,,,,,,
,60cee4ec871f36088fe20ff3,001,2022-04-28_21h14.34.989,classification_task,2021.2.3,Win32,59.59475566,60cee4ec871f36088fe20ff3,626b377229c10585ec392f8a,626b3aee1572b75a9656e7d9,,,,,,,,,,,,,,space,20.0714,4,0,4,0,1,,,,,,,,,,,,,,,,,,,,,,,,,,,,,,,,,,,,,,,,,,,,,,,,
,60cee4ec871f36088fe20ff3,001,2022-04-28_21h14.34.989,classification_task,2021.2.3,Win32,59.59475566,60cee4ec871f36088fe20ff3,626b377229c10585ec392f8a,626b3aee1572b75a9656e7d9,,,,,,,,,,,,,,,,,,,,,space,11.5814,l,0,1.7653,"[""0.273"",""0.082"",""0.694"",""0.946""]","[1,0,1,1]",0,0,0,0,1,0,1,,,1,FALSE,,,,,,,,,,,,,,,,,,,,,,,,,,,,,,
,60cee4ec871f36088fe20ff3,001,2022-04-28_21h14.34.989,classification_task,2021.2.3,Win32,59.59475566,60cee4ec871f36088fe20ff3,626b377229c10585ec392f8a,626b3aee1572b75a9656e7d9,,,,,,,,,,,,,,,,,,,,,,,l,0,2.8801,"[""0.307"",""0.115"",""0.845"",""0.912""]","[1,0,1,1]",0,1,1,1,1,0,0,,,1,FALSE,,,,,,,,,,,,,,,,,,,,,,,,,,,,,,
,60cee4ec871f36088fe20ff3,001,2022-04-28_21h14.34.989,classification_task,2021.2.3,Win32,59.59475566,60cee4ec871f36088fe20ff3,626b377229c10585ec392f8a,626b3aee1572b75a9656e7d9,,,,,,,,,,,,,,,,,,,,,,,l,1,5.3088,"[""0.035"",""0.222"",""0.560"",""0.114""]","[1,1,1,0]",0,2,2,2,1,1,1,,,1,FALSE,,,,,,,,,,,,,,,,,,,,,,,,,,,,,,
,60cee4ec871f36088fe20ff3,001,2022-04-28_21h14.34.989,classification_task,2021.2.3,Win32,59.59475566,60cee4ec871f36088fe20ff3,626b377229c10585ec392f8a,626b3aee1572b75a9656e7d9,,,,,,,,,,,,,,,,,,,,,,,l,1,3.6301,"[""0.115"",""0.378"",""0.467"",""0.783""]","[0,1,1,1]",0,3,3,3,1,1,0,,,1,FALSE,,,,,,,,,,,,,,,,,,,,,,,,,,,,,,
,60cee4ec871f36088fe20ff3,001,2022-04-28_21h14.34.989,classification_task,2021.2.3,Win32,59.59475566,60cee4ec871f36088fe20ff3,626b377229c10585ec392f8a,626b3aee1572b75a9656e7d9,,,,,,,,,,,,,,,,,,,,,,,l,1,2.3979,"[""0.035"",""0.082"",""0.560"",""0.740""]","[1,0,1,1]",0,4,4,4,1,1,1,,,1,FALSE,,,,,,,,,,,,,,,,,,,,,,,,,,,,,,
,60cee4ec871f36088fe20ff3,001,2022-04-28_21h14.34.989,classification_task,2021.2.3,Win32,59.59475566,60cee4ec871f36088fe20ff3,626b377229c10585ec392f8a,626b3aee1572b75a9656e7d9,,,,,,,,,,,,,,,,,,,,,,,l,1,2.4968,"[""0.152"",""0.378"",""0.114"",""0.783""]","[1,1,0,1]",0,5,5,5,1,1,0,,,1,FALSE,,,,,,,,,,,,,,,,,,,,,,,,,,,,,,
,60cee4ec871f36088fe20ff3,001,2022-04-28_21h14.34.989,classification_task,2021.2.3,Win32,59.59475566,60cee4ec871f36088fe20ff3,626b377229c10585ec392f8a,626b3aee1572b75a9656e7d9,,,,,,,,,,,,,,,,,,,,,,,l,0,1.8477,"[""0.114"",""0.427"",""0.845"",""0.912""]","[0,1,1,1]",0,6,6,6,1,0,0,,,1,FALSE,,,,,,,,,,,,,,,,,,,,,,,,,,,,,,
,60cee4ec871f36088fe20ff3,001,2022-04-28_21h14.34.989,classification_task,2021.2.3,Win32,59.59475566,60cee4ec871f36088fe20ff3,626b377229c10585ec392f8a,626b3aee1572b75a9656e7d9,,,,,,,,,,,,,,,,,,,,,,,l,1,3.134,"[""0.152"",""0.595"",""0.467"",""0.783""]","[1,0,1,1]",0,7,7,7,1,1,0,,,1,FALSE,,,,,,,,,,,,,,,,,,,,,,,,,,,,,,
,60cee4ec871f36088fe20ff3,001,2022-04-28_21h14.34.989,classification_task,2021.2.3,Win32,59.59475566,60cee4ec871f36088fe20ff3,626b377229c10585ec392f8a,626b3aee1572b75a9656e7d9,,,,,,,,,,,,,,,,,,,,,,,a,1,3.5478,"[""0.273"",""0.519"",""0.660"",""0.946""]","[1,1,0,1]",0,8,8,8,1,0,1,,,1,FALSE,,,,,,,,,,,,,,,,,,,,,,,,,,,,,,
,60cee4ec871f36088fe20ff3,001,2022-04-28_21h14.34.989,classification_task,2021.2.3,Win32,59.59475566,60cee4ec871f36088fe20ff3,626b377229c10585ec392f8a,626b3aee1572b75a9656e7d9,,,,,,,,,,,,,,,,,,,,,,,a,1,2.3635,"[""0.307"",""0.427"",""0.845"",""0.639""]","[1,1,1,0]",0,9,9,9,1,0,0,,,1,FALSE,,,,,,,,,,,,,,,,,,,,,,,,,,,,,,
,60cee4ec871f36088fe20ff3,001,2022-04-28_21h14.34.989,classification_task,2021.2.3,Win32,59.59475566,60cee4ec871f36088fe20ff3,626b377229c10585ec392f8a,626b3aee1572b75a9656e7d9,,,,,,,,,,,,,,,,,,,,,,,a,1,2.0149,"[""0.273"",""0.519"",""0.694"",""0.630""]","[1,1,1,0]",0,10,10,10,1,0,1,,,1,FALSE,,,,,,,,,,,,,,,,,,,,,,,,,,,,,,
,60cee4ec871f36088fe20ff3,001,2022-04-28_21h14.34.989,classification_task,2021.2.3,Win32,59.59475566,60cee4ec871f36088fe20ff3,626b377229c10585ec392f8a,626b3aee1572b75a9656e7d9,,,,,,,,,,,,,,,,,,,,,,,a,1,3.9458,"[""0.114"",""0.519"",""0.694"",""0.946""]","[0,1,1,1]",0,11,11,11,1,0,1,,,1,FALSE,,,,,,,,,,,,,,,,,,,,,,,,,,,,,,
,60cee4ec871f36088fe20ff3,001,2022-04-28_21h14.34.989,classification_task,2021.2.3,Win32,59.59475566,60cee4ec871f36088fe20ff3,626b377229c10585ec392f8a,626b3aee1572b75a9656e7d9,,,,,,,,,,,,,,,,,,,,,,,a,0,2.4492,"[""0.595"",""0.222"",""0.560"",""0.740""]","[0,1,1,1]",0,12,12,12,1,1,1,,,1,FALSE,,,,,,,,,,,,,,,,,,,,,,,,,,,,,,
,60cee4ec871f36088fe20ff3,001,2022-04-28_21h14.34.989,classification_task,2021.2.3,Win32,59.59475566,60cee4ec871f36088fe20ff3,626b377229c10585ec392f8a,626b3aee1572b75a9656e7d9,,,,,,,,,,,,,,,,,,,,,,,l,0,2.7799,"[""0.307"",""0.427"",""0.116"",""0.912""]","[1,1,0,1]",0,13,13,13,1,0,0,,,1,FALSE,,,,,,,,,,,,,,,,,,,,,,,,,,,,,,
,60cee4ec871f36088fe20ff3,001,2022-04-28_21h14.34.989,classification_task,2021.2.3,Win32,59.59475566,60cee4ec871f36088fe20ff3,626b377229c10585ec392f8a,626b3aee1572b75a9656e7d9,,,,,,,,,,,,,,,,,,,,,,,l,1,3.3988,"[""0.152"",""0.378"",""0.467"",""0.636""]","[1,1,1,0]",0,14,14,14,1,1,0,,,1,FALSE,,,,,,,,,,,,,,,,,,,,,,,,,,,,,,
,60cee4ec871f36088fe20ff3,001,2022-04-28_21h14.34.989,classification_task,2021.2.3,Win32,59.59475566,60cee4ec871f36088fe20ff3,626b377229c10585ec392f8a,626b3aee1572b75a9656e7d9,,,,,,,,,,,,,,,,,,,,,,,l,1,2.0149,"[""0.035"",""0.222"",""0.114"",""0.740""]","[1,1,0,1]",0,15,15,15,1,1,1,,,1,FALSE,,,,,,,,,,,,,,,,,,,,,,,,,,,,,,
,60cee4ec871f36088fe20ff3,001,2022-04-28_21h14.34.989,classification_task,2021.2.3,Win32,59.59475566,60cee4ec871f36088fe20ff3,626b377229c10585ec392f8a,626b3aee1572b75a9656e7d9,,,,,,,,,,,,,,,,,,,,,,,l,1,1.8131,"[""0.035"",""0.222"",""0.560"",""0.660""]","[1,1,1,0]",0,16,16,16,1,1,1,,,1,FALSE,,,,,,,,,,,,,,,,,,,,,,,,,,,,,,
,60cee4ec871f36088fe20ff3,001,2022-04-28_21h14.34.989,classification_task,2021.2.3,Win32,59.59475566,60cee4ec871f36088fe20ff3,626b377229c10585ec392f8a,626b3aee1572b75a9656e7d9,,,,,,,,,,,,,,,,,,,,,,,a,1,2.1314,"[""0.307"",""0.650"",""0.845"",""0.912""]","[1,0,1,1]",0,17,17,17,1,0,0,,,1,FALSE,,,,,,,,,,,,,,,,,,,,,,,,,,,,,,
,60cee4ec871f36088fe20ff3,001,2022-04-28_21h14.34.989,classification_task,2021.2.3,Win32,59.59475566,60cee4ec871f36088fe20ff3,626b377229c10585ec392f8a,626b3aee1572b75a9656e7d9,,,,,,,,,,,,,,,,,,,,,,,a,1,1.2983,"[""0.307"",""0.427"",""0.845"",""0.650""]","[1,1,1,0]",0,18,18,18,1,0,0,,,1,FALSE,,,,,,,,,,,,,,,,,,,,,,,,,,,,,,
,60cee4ec871f36088fe20ff3,001,2022-04-28_21h14.34.989,classification_task,2021.2.3,Win32,59.59475566,60cee4ec871f36088fe20ff3,626b377229c10585ec392f8a,626b3aee1572b75a9656e7d9,,,,,,,,,,,,,,,,,,,,,,,l,0,1.297,"[""0.630"",""0.519"",""0.694"",""0.946""]","[0,1,1,1]",0,19,19,19,1,0,1,,,1,FALSE,,,,,,,,,,,,,,,,,,,,,,,,,,,,,,
,60cee4ec871f36088fe20ff3,001,2022-04-28_21h14.34.989,classification_task,2021.2.3,Win32,59.59475566,60cee4ec871f36088fe20ff3,626b377229c10585ec392f8a,626b3aee1572b75a9656e7d9,,,,,,,,,,,,,,,,,,,,,,,a,1,1.5126,"[""0.273"",""0.519"",""0.694"",""0.595""]","[1,1,1,0]",0,20,20,20,1,0,1,,,1,FALSE,,,,,,,,,,,,,,,,,,,,,,,,,,,,,,
,60cee4ec871f36088fe20ff3,001,2022-04-28_21h14.34.989,classification_task,2021.2.3,Win32,59.59475566,60cee4ec871f36088fe20ff3,626b377229c10585ec392f8a,626b3aee1572b75a9656e7d9,,,,,,,,,,,,,,,,,,,,,,,a,0,4.9492,"[""0.114"",""0.222"",""0.560"",""0.740""]","[0,1,1,1]",0,21,21,21,1,1,1,,,1,FALSE,,,,,,,,,,,,,,,,,,,,,,,,,,,,,,
,60cee4ec871f36088fe20ff3,001,2022-04-28_21h14.34.989,classification_task,2021.2.3,Win32,59.59475566,60cee4ec871f36088fe20ff3,626b377229c10585ec392f8a,626b3aee1572b75a9656e7d9,,,,,,,,,,,,,,,,,,,,,,,l,0,3.049,"[""0.273"",""0.519"",""0.114"",""0.946""]","[1,1,0,1]",0,22,22,22,1,0,1,,,1,FALSE,,,,,,,,,,,,,,,,,,,,,,,,,,,,,,
,60cee4ec871f36088fe20ff3,001,2022-04-28_21h14.34.989,classification_task,2021.2.3,Win32,59.59475566,60cee4ec871f36088fe20ff3,626b377229c10585ec392f8a,626b3aee1572b75a9656e7d9,,,,,,,,,,,,,,,,,,,,,,,l,1,2.2363,"[""0.152"",""0.378"",""0.114"",""0.783""]","[1,1,0,1]",0,23,23,23,1,1,0,,,1,FALSE,,,,,,,,,,,,,,,,,,,,,,,,,,,,,,
,60cee4ec871f36088fe20ff3,001,2022-04-28_21h14.34.989,classification_task,2021.2.3,Win32,59.59475566,60cee4ec871f36088fe20ff3,626b377229c10585ec392f8a,626b3aee1572b75a9656e7d9,,,,,,,,,,,,,,,,,,,,,,,a,1,1.6152,"[""0.273"",""0.650"",""0.694"",""0.946""]","[1,0,1,1]",0,24,24,24,1,0,1,,,1,FALSE,,,,,,,,,,,,,,,,,,,,,,,,,,,,,,
,60cee4ec871f36088fe20ff3,001,2022-04-28_21h14.34.989,classification_task,2021.2.3,Win32,59.59475566,60cee4ec871f36088fe20ff3,626b377229c10585ec392f8a,626b3aee1572b75a9656e7d9,,,,,,,,,,,,,,,,,,,,,,,l,1,1.6828,"[""0.035"",""0.222"",""0.660"",""0.740""]","[1,1,0,1]",0,25,25,25,1,1,1,,,1,FALSE,,,,,,,,,,,,,,,,,,,,,,,,,,,,,,
,60cee4ec871f36088fe20ff3,001,2022-04-28_21h14.34.989,classification_task,2021.2.3,Win32,59.59475566,60cee4ec871f36088fe20ff3,626b377229c10585ec392f8a,626b3aee1572b75a9656e7d9,,,,,,,,,,,,,,,,,,,,,,,l,0,1.5898,"[""0.307"",""0.427"",""0.186"",""0.912""]","[1,1,0,1]",0,26,26,26,1,0,0,,,1,FALSE,,,,,,,,,,,,,,,,,,,,,,,,,,,,,,
,60cee4ec871f36088fe20ff3,001,2022-04-28_21h14.34.989,classification_task,2021.2.3,Win32,59.59475566,60cee4ec871f36088fe20ff3,626b377229c10585ec392f8a,626b3aee1572b75a9656e7d9,,,,,,,,,,,,,,,,,,,,,,,l,1,1.4632,"[""0.035"",""0.650"",""0.560"",""0.740""]","[1,0,1,1]",0,27,27,27,1,1,1,,,1,FALSE,,,,,,,,,,,,,,,,,,,,,,,,,,,,,,
,60cee4ec871f36088fe20ff3,001,2022-04-28_21h14.34.989,classification_task,2021.2.3,Win32,59.59475566,60cee4ec871f36088fe20ff3,626b377229c10585ec392f8a,626b3aee1572b75a9656e7d9,,,,,,,,,,,,,,,,,,,,,,,l,1,1.6803,"[""0.152"",""0.378"",""0.467"",""0.082""]","[1,1,1,0]",0,28,28,28,1,1,0,,,1,FALSE,,,,,,,,,,,,,,,,,,,,,,,,,,,,,,
,60cee4ec871f36088fe20ff3,001,2022-04-28_21h14.34.989,classification_task,2021.2.3,Win32,59.59475566,60cee4ec871f36088fe20ff3,626b377229c10585ec392f8a,626b3aee1572b75a9656e7d9,,,,,,,,,,,,,,,,,,,,,,,l,0,1.632,"[""0.114"",""0.427"",""0.845"",""0.912""]","[0,1,1,1]",0,29,29,29,1,0,0,,,1,FALSE,,,,,,,,,,,,,,,,,,,,,,,,,,,,,,
,60cee4ec871f36088fe20ff3,001,2022-04-28_21h14.34.989,classification_task,2021.2.3,Win32,59.59475566,60cee4ec871f36088fe20ff3,626b377229c10585ec392f8a,626b3aee1572b75a9656e7d9,,,,,,,,,,,,,,,,,,,,,,,l,1,1.3994,"[""0.116"",""0.378"",""0.467"",""0.783""]","[0,1,1,1]",0,30,30,30,1,1,0,,,1,FALSE,,,,,,,,,,,,,,,,,,,,,,,,,,,,,,
,60cee4ec871f36088fe20ff3,001,2022-04-28_21h14.34.989,classification_task,2021.2.3,Win32,59.59475566,60cee4ec871f36088fe20ff3,626b377229c10585ec392f8a,626b3aee1572b75a9656e7d9,,,,,,,,,,,,,,,,,,,,,,,l,1,1.4163,"[""0.152"",""0.595"",""0.467"",""0.783""]","[1,0,1,1]",0,31,31,31,1,1,0,,,1,FALSE,,,,,,,,,,,,,,,,,,,,,,,,,,,,,,
,60cee4ec871f36088fe20ff3,001,2022-04-28_21h14.34.989,classification_task,2021.2.3,Win32,59.59475566,60cee4ec871f36088fe20ff3,626b377229c10585ec392f8a,626b3aee1572b75a9656e7d9,,,,,,,,,,,,,,,,,,,,,,,a,0,8.1284,"[""0.114"",""0.378"",""0.467"",""0.783""]","[0,1,1,1]",0,32,32,32,1,1,0,,,1,FALSE,,,,,,,,,,,,,,,,,,,,,,,,,,,,,,
,60cee4ec871f36088fe20ff3,001,2022-04-28_21h14.34.989,classification_task,2021.2.3,Win32,59.59475566,60cee4ec871f36088fe20ff3,626b377229c10585ec392f8a,626b3aee1572b75a9656e7d9,,,,,,,,,,,,,,,,,,,,,,,,0,,"[""0.035"",""0.222"",""0.082"",""0.740""]","[1,1,0,1]",0,33,33,33,1,1,1,,,1,FALSE,,,,,,,,,,,,,,,,,,,,,,,,,,,,,,
,60cee4ec871f36088fe20ff3,001,2022-04-28_21h14.34.989,classification_task,2021.2.3,Win32,59.59475566,60cee4ec871f36088fe20ff3,626b377229c10585ec392f8a,626b3aee1572b75a9656e7d9,,,,,,,,,,,,,,,,,,,,,,,l,1,2.0163,"[""0.595"",""0.222"",""0.560"",""0.740""]","[0,1,1,1]",0,34,34,34,1,1,1,,,1,FALSE,,,,,,,,,,,,,,,,,,,,,,,,,,,,,,
,60cee4ec871f36088fe20ff3,001,2022-04-28_21h14.34.989,classification_task,2021.2.3,Win32,59.59475566,60cee4ec871f36088fe20ff3,626b377229c10585ec392f8a,626b3aee1572b75a9656e7d9,,,,,,,,,,,,,,,,,,,,,,,a,1,2.2973,"[""0.273"",""0.519"",""0.595"",""0.946""]","[1,1,0,1]",0,35,35,35,1,0,1,,,1,FALSE,,,,,,,,,,,,,,,,,,,,,,,,,,,,,,
,60cee4ec871f36088fe20ff3,001,2022-04-28_21h14.34.989,classification_task,2021.2.3,Win32,59.59475566,60cee4ec871f36088fe20ff3,626b377229c10585ec392f8a,626b3aee1572b75a9656e7d9,,,,,,,,,,,,,,,,,,,,,,,l,0,1.8974,"[""0.635"",""0.519"",""0.694"",""0.946""]","[0,1,1,1]",0,36,36,36,1,0,1,,,1,FALSE,,,,,,,,,,,,,,,,,,,,,,,,,,,,,,
,60cee4ec871f36088fe20ff3,001,2022-04-28_21h14.34.989,classification_task,2021.2.3,Win32,59.59475566,60cee4ec871f36088fe20ff3,626b377229c10585ec392f8a,626b3aee1572b75a9656e7d9,,,,,,,,,,,,,,,,,,,,,,,a,1,2.7322,"[""0.307"",""0.639"",""0.845"",""0.912""]","[1,0,1,1]",0,37,37,37,1,0,0,,,1,FALSE,,,,,,,,,,,,,,,,,,,,,,,,,,,,,,
,60cee4ec871f36088fe20ff3,001,2022-04-28_21h14.34.989,classification_task,2021.2.3,Win32,59.59475566,60cee4ec871f36088fe20ff3,626b377229c10585ec392f8a,626b3aee1572b75a9656e7d9,,,,,,,,,,,,,,,,,,,,,,,l,0,2.2804,"[""0.307"",""0.427"",""0.845"",""0.116""]","[1,1,1,0]",0,38,38,38,1,0,0,,,1,FALSE,,,,,,,,,,,,,,,,,,,,,,,,,,,,,,
,60cee4ec871f36088fe20ff3,001,2022-04-28_21h14.34.989,classification_task,2021.2.3,Win32,59.59475566,60cee4ec871f36088fe20ff3,626b377229c10585ec392f8a,626b3aee1572b75a9656e7d9,,,,,,,,,,,,,,,,,,,,,,,a,0,2.274,"[""0.035"",""0.222"",""0.560"",""0.636""]","[1,1,1,0]",0,39,39,39,1,1,1,,,1,FALSE,,,,,,,,,,,,,,,,,,,,,,,,,,,,,,
,60cee4ec871f36088fe20ff3,001,2022-04-28_21h14.34.989,classification_task,2021.2.3,Win32,59.59475566,60cee4ec871f36088fe20ff3,626b377229c10585ec392f8a,626b3aee1572b75a9656e7d9,,,,,,,,,,,,,,,,,,,,,,,l,0,4.3824,"[""0.273"",""0.650"",""0.694"",""0.946""]","[1,0,1,1]",0,40,40,40,1,0,1,,,1,FALSE,,,,,,,,,,,,,,,,,,,,,,,,,,,,,,
,60cee4ec871f36088fe20ff3,001,2022-04-28_21h14.34.989,classification_task,2021.2.3,Win32,59.59475566,60cee4ec871f36088fe20ff3,626b377229c10585ec392f8a,626b3aee1572b75a9656e7d9,,,,,,,,,,,,,,,,,,,,,,,a,0,3.531,"[""0.152"",""0.378"",""0.467"",""0.186""]","[1,1,1,0]",0,41,41,41,1,1,0,,,1,FALSE,,,,,,,,,,,,,,,,,,,,,,,,,,,,,,
,60cee4ec871f36088fe20ff3,001,2022-04-28_21h14.34.989,classification_task,2021.2.3,Win32,59.59475566,60cee4ec871f36088fe20ff3,626b377229c10585ec392f8a,626b3aee1572b75a9656e7d9,,,,,,,,,,,,,,,,,,,,,,,a,0,1.316,"[""0.035"",""0.114"",""0.560"",""0.740""]","[1,0,1,1]",0,42,42,42,1,1,1,,,1,FALSE,,,,,,,,,,,,,,,,,,,,,,,,,,,,,,
,60cee4ec871f36088fe20ff3,001,2022-04-28_21h14.34.989,classification_task,2021.2.3,Win32,59.59475566,60cee4ec871f36088fe20ff3,626b377229c10585ec392f8a,626b3aee1572b75a9656e7d9,,,,,,,,,,,,,,,,,,,,,,,a,1,1.0974,"[""0.630"",""0.427"",""0.845"",""0.912""]","[0,1,1,1]",0,43,43,43,1,0,0,,,1,FALSE,,,,,,,,,,,,,,,,,,,,,,,,,,,,,,
,60cee4ec871f36088fe20ff3,001,2022-04-28_21h14.34.989,classification_task,2021.2.3,Win32,59.59475566,60cee4ec871f36088fe20ff3,626b377229c10585ec392f8a,626b3aee1572b75a9656e7d9,,,,,,,,,,,,,,,,,,,,,,,a,1,3.2754,"[""0.273"",""0.519"",""0.694"",""0.636""]","[1,1,1,0]",0,44,44,44,1,0,1,,,1,FALSE,,,,,,,,,,,,,,,,,,,,,,,,,,,,,,
,60cee4ec871f36088fe20ff3,001,2022-04-28_21h14.34.989,classification_task,2021.2.3,Win32,59.59475566,60cee4ec871f36088fe20ff3,626b377229c10585ec392f8a,626b3aee1572b75a9656e7d9,,,,,,,,,,,,,,,,,,,,,,,a,1,2.9397,"[""0.307"",""0.427"",""0.114"",""0.912""]","[1,1,0,1]",0,45,45,45,1,0,0,,,1,FALSE,,,,,,,,,,,,,,,,,,,,,,,,,,,,,,
,60cee4ec871f36088fe20ff3,001,2022-04-28_21h14.34.989,classification_task,2021.2.3,Win32,59.59475566,60cee4ec871f36088fe20ff3,626b377229c10585ec392f8a,626b3aee1572b75a9656e7d9,,,,,,,,,,,,,,,,,,,,,,,l,1,2.0037,"[""0.152"",""0.378"",""0.080"",""0.783""]","[1,1,0,1]",0,46,46,46,1,1,0,,,1,FALSE,,,,,,,,,,,,,,,,,,,,,,,,,,,,,,
,60cee4ec871f36088fe20ff3,001,2022-04-28_21h14.34.989,classification_task,2021.2.3,Win32,59.59475566,60cee4ec871f36088fe20ff3,626b377229c10585ec392f8a,626b3aee1572b75a9656e7d9,,,,,,,,,,,,,,,,,,,,,,,l,1,1.1143,"[""0.152"",""0.635"",""0.467"",""0.783""]","[1,0,1,1]",0,47,47,47,1,1,0,,,1,FALSE,,,,,,,,,,,,,,,,,,,,,,,,,,,,,,
,60cee4ec871f36088fe20ff3,001,2022-04-28_21h14.34.989,classification_task,2021.2.3,Win32,59.59475566,60cee4ec871f36088fe20ff3,626b377229c10585ec392f8a,626b3aee1572b75a9656e7d9,,,,,,,,,,,,,,,,,,,,,,,a,0,1.1838,"[""0.035"",""0.222"",""0.595"",""0.740""]","[1,1,0,1]",0,48,48,48,1,1,1,,,1,FALSE,,,,,,,,,,,,,,,,,,,,,,,,,,,,,,
,60cee4ec871f36088fe20ff3,001,2022-04-28_21h14.34.989,classification_task,2021.2.3,Win32,59.59475566,60cee4ec871f36088fe20ff3,626b377229c10585ec392f8a,626b3aee1572b75a9656e7d9,,,,,,,,,,,,,,,,,,,,,,,a,0,2.1987,"[""0.152"",""0.378"",""0.080"",""0.783""]","[1,1,0,1]",0,49,49,49,1,1,0,,,1,FALSE,,,,,,,,,,,,,,,,,,,,,,,,,,,,,,
,60cee4ec871f36088fe20ff3,001,2022-04-28_21h14.34.989,classification_task,2021.2.3,Win32,59.59475566,60cee4ec871f36088fe20ff3,626b377229c10585ec392f8a,626b3aee1572b75a9656e7d9,,,,,,,,,,,,,,,,,,,,,,,a,1,1.0156,"[""0.273"",""0.519"",""0.077"",""0.946""]","[1,1,0,1]",0,50,50,50,1,0,1,,,1,FALSE,,,,,,,,,,,,,,,,,,,,,,,,,,,,,,
,60cee4ec871f36088fe20ff3,001,2022-04-28_21h14.34.989,classification_task,2021.2.3,Win32,59.59475566,60cee4ec871f36088fe20ff3,626b377229c10585ec392f8a,626b3aee1572b75a9656e7d9,,,,,,,,,,,,,,,,,,,,,,,l,0,1.5299,"[""0.307"",""0.639"",""0.845"",""0.912""]","[1,0,1,1]",0,51,51,51,1,0,0,,,1,FALSE,,,,,,,,,,,,,,,,,,,,,,,,,,,,,,
,60cee4ec871f36088fe20ff3,001,2022-04-28_21h14.34.989,classification_task,2021.2.3,Win32,59.59475566,60cee4ec871f36088fe20ff3,626b377229c10585ec392f8a,626b3aee1572b75a9656e7d9,,,,,,,,,,,,,,,,,,,,,,,a,0,3.2312,"[""0.152"",""0.114"",""0.467"",""0.783""]","[1,0,1,1]",0,52,52,52,1,1,0,,,1,FALSE,,,,,,,,,,,,,,,,,,,,,,,,,,,,,,
,60cee4ec871f36088fe20ff3,001,2022-04-28_21h14.34.989,classification_task,2021.2.3,Win32,59.59475566,60cee4ec871f36088fe20ff3,626b377229c10585ec392f8a,626b3aee1572b75a9656e7d9,,,,,,,,,,,,,,,,,,,,,,,a,0,3.5655,"[""0.035"",""0.222"",""0.560"",""0.630""]","[1,1,1,0]",0,53,53,53,1,1,1,,,1,FALSE,,,,,,,,,,,,,,,,,,,,,,,,,,,,,,
,60cee4ec871f36088fe20ff3,001,2022-04-28_21h14.34.989,classification_task,2021.2.3,Win32,59.59475566,60cee4ec871f36088fe20ff3,626b377229c10585ec392f8a,626b3aee1572b75a9656e7d9,,,,,,,,,,,,,,,,,,,,,,,a,0,4.1484,"[""0.152"",""0.378"",""0.467"",""0.630""]","[1,1,1,0]",0,54,54,54,1,1,0,,,1,FALSE,,,,,,,,,,,,,,,,,,,,,,,,,,,,,,
,60cee4ec871f36088fe20ff3,001,2022-04-28_21h14.34.989,classification_task,2021.2.3,Win32,59.59475566,60cee4ec871f36088fe20ff3,626b377229c10585ec392f8a,626b3aee1572b75a9656e7d9,,,,,,,,,,,,,,,,,,,,,,,a,1,2.4816,"[""0.307"",""0.427"",""0.845"",""0.114""]","[1,1,1,0]",0,55,55,55,1,0,0,,,1,FALSE,,,,,,,,,,,,,,,,,,,,,,,,,,,,,,
,60cee4ec871f36088fe20ff3,001,2022-04-28_21h14.34.989,classification_task,2021.2.3,Win32,59.59475566,60cee4ec871f36088fe20ff3,626b377229c10585ec392f8a,626b3aee1572b75a9656e7d9,,,,,,,,,,,,,,,,,,,,,,,a,0,4.2678,"[""0.116"",""0.222"",""0.560"",""0.740""]","[0,1,1,1]",0,56,56,56,1,1,1,,,1,FALSE,,,,,,,,,,,,,,,,,,,,,,,,,,,,,,
,60cee4ec871f36088fe20ff3,001,2022-04-28_21h14.34.989,classification_task,2021.2.3,Win32,59.59475566,60cee4ec871f36088fe20ff3,626b377229c10585ec392f8a,626b3aee1572b75a9656e7d9,,,,,,,,,,,,,,,,,,,,,,,a,1,2.2495,"[""0.273"",""0.519"",""0.694"",""0.636""]","[1,1,1,0]",0,57,57,57,1,0,1,,,1,FALSE,,,,,,,,,,,,,,,,,,,,,,,,,,,,,,
,60cee4ec871f36088fe20ff3,001,2022-04-28_21h14.34.989,classification_task,2021.2.3,Win32,59.59475566,60cee4ec871f36088fe20ff3,626b377229c10585ec392f8a,626b3aee1572b75a9656e7d9,,,,,,,,,,,,,,,,,,,,,,,l,1,2.998,"[""0.660"",""0.378"",""0.467"",""0.783""]","[0,1,1,1]",0,58,58,58,1,1,0,,,1,FALSE,,,,,,,,,,,,,,,,,,,,,,,,,,,,,,
,60cee4ec871f36088fe20ff3,001,2022-04-28_21h14.34.989,classification_task,2021.2.3,Win32,59.59475566,60cee4ec871f36088fe20ff3,626b377229c10585ec392f8a,626b3aee1572b75a9656e7d9,,,,,,,,,,,,,,,,,,,,,,,a,0,2.1824,"[""0.035"",""0.080"",""0.560"",""0.740""]","[1,0,1,1]",0,59,59,59,1,1,1,,,1,FALSE,,,,,,,,,,,,,,,,,,,,,,,,,,,,,,
,60cee4ec871f36088fe20ff3,001,2022-04-28_21h14.34.989,classification_task,2021.2.3,Win32,59.59475566,60cee4ec871f36088fe20ff3,626b377229c10585ec392f8a,626b3aee1572b75a9656e7d9,,,,,,,,,,,,,,,,,,,,,,,a,1,2.2664,"[""0.273"",""0.595"",""0.694"",""0.946""]","[1,0,1,1]",0,60,60,60,1,0,1,,,1,FALSE,,,,,,,,,,,,,,,,,,,,,,,,,,,,,,
,60cee4ec871f36088fe20ff3,001,2022-04-28_21h14.34.989,classification_task,2021.2.3,Win32,59.59475566,60cee4ec871f36088fe20ff3,626b377229c10585ec392f8a,626b3aee1572b75a9656e7d9,,,,,,,,,,,,,,,,,,,,,,,a,1,1.7892,"[""0.307"",""0.427"",""0.636"",""0.912""]","[1,1,0,1]",0,61,61,61,1,0,0,,,1,FALSE,,,,,,,,,,,,,,,,,,,,,,,,,,,,,,
,60cee4ec871f36088fe20ff3,001,2022-04-28_21h14.34.989,classification_task,2021.2.3,Win32,59.59475566,60cee4ec871f36088fe20ff3,626b377229c10585ec392f8a,626b3aee1572b75a9656e7d9,,,,,,,,,,,,,,,,,,,,,,,l,0,1.6329,"[""0.650"",""0.427"",""0.845"",""0.912""]","[0,1,1,1]",0,62,62,62,1,0,0,,,1,FALSE,,,,,,,,,,,,,,,,,,,,,,,,,,,,,,
,60cee4ec871f36088fe20ff3,001,2022-04-28_21h14.34.989,classification_task,2021.2.3,Win32,59.59475566,60cee4ec871f36088fe20ff3,626b377229c10585ec392f8a,626b3aee1572b75a9656e7d9,,,,,,,,,,,,,,,,,,,,,,,l,0,0.8321,"[""0.635"",""0.519"",""0.694"",""0.946""]","[0,1,1,1]",0,63,63,63,1,0,1,,,1,FALSE,,,,,,,,,,,,,,,,,,,,,,,,,,,,,,
,60cee4ec871f36088fe20ff3,001,2022-04-28_21h14.34.989,classification_task,2021.2.3,Win32,59.59475566,60cee4ec871f36088fe20ff3,626b377229c10585ec392f8a,626b3aee1572b75a9656e7d9,,,,,,,,,,,,,,,,,,,,,,,,,,,,,,,,,,,,,,,0, ,,0,5.044091711,667.657,0,0,0,0,1,2,1,,,,,,,,,,,,,,,,,
,60cee4ec871f36088fe20ff3,001,2022-04-28_21h14.34.989,classification_task,2021.2.3,Win32,59.59475566,60cee4ec871f36088fe20ff3,626b377229c10585ec392f8a,626b3aee1572b75a9656e7d9,,,,,,,,,,,,,,,,,,,,,,,,,,,,,,,,,,,,,,,1,  ,,0,10,653.8853,0,0,0,0,1,2,1,,,,,,,,,,,,,,,,,
,60cee4ec871f36088fe20ff3,001,2022-04-28_21h14.34.989,classification_task,2021.2.3,Win32,59.59475566,60cee4ec871f36088fe20ff3,626b377229c10585ec392f8a,626b3aee1572b75a9656e7d9,,,,,,,,,,,,,,,,,,,,,,,,,,,,,,,,,,,,,,,2,  ,,0,10,657.6866,0,0,0,0,1,2,1,,,,,,,,,,,,,,,,,
,60cee4ec871f36088fe20ff3,001,2022-04-28_21h14.34.989,classification_task,2021.2.3,Win32,59.59475566,60cee4ec871f36088fe20ff3,626b377229c10585ec392f8a,626b3aee1572b75a9656e7d9,,,,,,,,,,,,,,,,,,,,,,,,,,,,,,,,,,,,,,,,,,,,,0,0,0,0,1,,1,,,,,,,,,,,,,,,,,
,60cee4ec871f36088fe20ff3,001,2022-04-28_21h14.34.989,classification_task,2021.2.3,Win32,59.59475566,60cee4ec871f36088fe20ff3,626b377229c10585ec392f8a,626b3aee1572b75a9656e7d9,,,,,,,,,,,,,,,,,,,,,space,9.7259,a,1,4.6322,"[""0.307"",""0.082"",""0.845"",""0.912""]","[1,0,1,1]",0,0,0,0,1,0,0,,,1,FALSE,,,,,,,,,,,,,,,,,,,,,,,,,,,,,,
,60cee4ec871f36088fe20ff3,001,2022-04-28_21h14.34.989,classification_task,2021.2.3,Win32,59.59475566,60cee4ec871f36088fe20ff3,626b377229c10585ec392f8a,626b3aee1572b75a9656e7d9,,,,,,,,,,,,,,,,,,,,,,,a,0,1.1001,"[""0.152"",""0.378"",""0.467"",""0.660""]","[1,1,1,0]",0,1,1,1,1,1,0,,,1,FALSE,,,,,,,,,,,,,,,,,,,,,,,,,,,,,,
,60cee4ec871f36088fe20ff3,001,2022-04-28_21h14.34.989,classification_task,2021.2.3,Win32,59.59475566,60cee4ec871f36088fe20ff3,626b377229c10585ec392f8a,626b3aee1572b75a9656e7d9,,,,,,,,,,,,,,,,,,,,,,,l,0,3.949,"[""0.082"",""0.519"",""0.694"",""0.946""]","[0,1,1,1]",0,2,2,2,1,0,1,,,1,FALSE,,,,,,,,,,,,,,,,,,,,,,,,,,,,,,
,60cee4ec871f36088fe20ff3,001,2022-04-28_21h14.34.989,classification_task,2021.2.3,Win32,59.59475566,60cee4ec871f36088fe20ff3,626b377229c10585ec392f8a,626b3aee1572b75a9656e7d9,,,,,,,,,,,,,,,,,,,,,,,l,1,5.5248,"[""0.035"",""0.222"",""0.560"",""0.077""]","[1,1,1,0]",0,3,3,3,1,1,1,,,1,FALSE,,,,,,,,,,,,,,,,,,,,,,,,,,,,,,
,60cee4ec871f36088fe20ff3,001,2022-04-28_21h14.34.989,classification_task,2021.2.3,Win32,59.59475566,60cee4ec871f36088fe20ff3,626b377229c10585ec392f8a,626b3aee1572b75a9656e7d9,,,,,,,,,,,,,,,,,,,,,,,l,1,0.866,"[""0.035"",""0.660"",""0.560"",""0.740""]","[1,0,1,1]",0,4,4,4,1,1,1,,,1,FALSE,,,,,,,,,,,,,,,,,,,,,,,,,,,,,,
,60cee4ec871f36088fe20ff3,001,2022-04-28_21h14.34.989,classification_task,2021.2.3,Win32,59.59475566,60cee4ec871f36088fe20ff3,626b377229c10585ec392f8a,626b3aee1572b75a9656e7d9,,,,,,,,,,,,,,,,,,,,,,,a,1,0.5974,"[""0.273"",""0.519"",""0.080"",""0.946""]","[1,1,0,1]",0,5,5,5,1,0,1,,,1,FALSE,,,,,,,,,,,,,,,,,,,,,,,,,,,,,,
,60cee4ec871f36088fe20ff3,001,2022-04-28_21h14.34.989,classification_task,2021.2.3,Win32,59.59475566,60cee4ec871f36088fe20ff3,626b377229c10585ec392f8a,626b3aee1572b75a9656e7d9,,,,,,,,,,,,,,,,,,,,,,,l,1,0.731,"[""0.035"",""0.222"",""0.114"",""0.740""]","[1,1,0,1]",0,6,6,6,1,1,1,,,1,FALSE,,,,,,,,,,,,,,,,,,,,,,,,,,,,,,
,60cee4ec871f36088fe20ff3,001,2022-04-28_21h14.34.989,classification_task,2021.2.3,Win32,59.59475566,60cee4ec871f36088fe20ff3,626b377229c10585ec392f8a,626b3aee1572b75a9656e7d9,,,,,,,,,,,,,,,,,,,,,,,a,0,4.1629,"[""0.082"",""0.378"",""0.467"",""0.783""]","[0,1,1,1]",0,7,7,7,1,1,0,,,1,FALSE,,,,,,,,,,,,,,,,,,,,,,,,,,,,,,
,60cee4ec871f36088fe20ff3,001,2022-04-28_21h14.34.989,classification_task,2021.2.3,Win32,59.59475566,60cee4ec871f36088fe20ff3,626b377229c10585ec392f8a,626b3aee1572b75a9656e7d9,,,,,,,,,,,,,,,,,,,,,,,l,0,4.2822,"[""0.307"",""0.427"",""0.114"",""0.912""]","[1,1,0,1]",0,8,8,8,1,0,0,,,1,FALSE,,,,,,,,,,,,,,,,,,,,,,,,,,,,,,
,60cee4ec871f36088fe20ff3,001,2022-04-28_21h14.34.989,classification_task,2021.2.3,Win32,59.59475566,60cee4ec871f36088fe20ff3,626b377229c10585ec392f8a,626b3aee1572b75a9656e7d9,,,,,,,,,,,,,,,,,,,,,,,a,1,1.6131,"[""0.273"",""0.660"",""0.694"",""0.946""]","[1,0,1,1]",0,9,9,9,1,0,1,,,1,FALSE,,,,,,,,,,,,,,,,,,,,,,,,,,,,,,
,60cee4ec871f36088fe20ff3,001,2022-04-28_21h14.34.989,classification_task,2021.2.3,Win32,59.59475566,60cee4ec871f36088fe20ff3,626b377229c10585ec392f8a,626b3aee1572b75a9656e7d9,,,,,,,,,,,,,,,,,,,,,,,a,1,3.8975,"[""0.307"",""0.427"",""0.845"",""0.595""]","[1,1,1,0]",0,10,10,10,1,0,0,,,1,FALSE,,,,,,,,,,,,,,,,,,,,,,,,,,,,,,
,60cee4ec871f36088fe20ff3,001,2022-04-28_21h14.34.989,classification_task,2021.2.3,Win32,59.59475566,60cee4ec871f36088fe20ff3,626b377229c10585ec392f8a,626b3aee1572b75a9656e7d9,,,,,,,,,,,,,,,,,,,,,,,a,1,0.8623,"[""0.273"",""0.519"",""0.694"",""0.636""]","[1,1,1,0]",0,11,11,11,1,0,1,,,1,FALSE,,,,,,,,,,,,,,,,,,,,,,,,,,,,,,
,60cee4ec871f36088fe20ff3,001,2022-04-28_21h14.34.989,classification_task,2021.2.3,Win32,59.59475566,60cee4ec871f36088fe20ff3,626b377229c10585ec392f8a,626b3aee1572b75a9656e7d9,,,,,,,,,,,,,,,,,,,,,,,l,1,0.5504,"[""0.636"",""0.222"",""0.560"",""0.740""]","[0,1,1,1]",0,12,12,12,1,1,1,,,1,FALSE,,,,,,,,,,,,,,,,,,,,,,,,,,,,,,
,60cee4ec871f36088fe20ff3,001,2022-04-28_21h14.34.989,classification_task,2021.2.3,Win32,59.59475566,60cee4ec871f36088fe20ff3,626b377229c10585ec392f8a,626b3aee1572b75a9656e7d9,,,,,,,,,,,,,,,,,,,,,,,a,0,1.4148,"[""0.152"",""0.378"",""0.115"",""0.783""]","[1,1,0,1]",0,13,13,13,1,1,0,,,1,FALSE,,,,,,,,,,,,,,,,,,,,,,,,,,,,,,
,60cee4ec871f36088fe20ff3,001,2022-04-28_21h14.34.989,classification_task,2021.2.3,Win32,59.59475566,60cee4ec871f36088fe20ff3,626b377229c10585ec392f8a,626b3aee1572b75a9656e7d9,,,,,,,,,,,,,,,,,,,,,,,l,1,1.1431,"[""0.152"",""0.116"",""0.467"",""0.783""]","[1,0,1,1]",0,14,14,14,1,1,0,,,1,FALSE,,,,,,,,,,,,,,,,,,,,,,,,,,,,,,
,60cee4ec871f36088fe20ff3,001,2022-04-28_21h14.34.989,classification_task,2021.2.3,Win32,59.59475566,60cee4ec871f36088fe20ff3,626b377229c10585ec392f8a,626b3aee1572b75a9656e7d9,,,,,,,,,,,,,,,,,,,,,,,a,1,1.9469,"[""0.635"",""0.427"",""0.845"",""0.912""]","[0,1,1,1]",0,15,15,15,1,0,0,,,1,FALSE,,,,,,,,,,,,,,,,,,,,,,,,,,,,,,
,60cee4ec871f36088fe20ff3,001,2022-04-28_21h14.34.989,classification_task,2021.2.3,Win32,59.59475566,60cee4ec871f36088fe20ff3,626b377229c10585ec392f8a,626b3aee1572b75a9656e7d9,,,,,,,,,,,,,,,,,,,,,,,l,1,1.515,"[""0.035"",""0.116"",""0.560"",""0.740""]","[1,0,1,1]",0,16,16,16,1,1,1,,,1,FALSE,,,,,,,,,,,,,,,,,,,,,,,,,,,,,,
,60cee4ec871f36088fe20ff3,001,2022-04-28_21h14.34.989,classification_task,2021.2.3,Win32,59.59475566,60cee4ec871f36088fe20ff3,626b377229c10585ec392f8a,626b3aee1572b75a9656e7d9,,,,,,,,,,,,,,,,,,,,,,,a,1,1.3649,"[""0.273"",""0.519"",""0.694"",""0.115""]","[1,1,1,0]",0,17,17,17,1,0,1,,,1,FALSE,,,,,,,,,,,,,,,,,,,,,,,,,,,,,,
,60cee4ec871f36088fe20ff3,001,2022-04-28_21h14.34.989,classification_task,2021.2.3,Win32,59.59475566,60cee4ec871f36088fe20ff3,626b377229c10585ec392f8a,626b3aee1572b75a9656e7d9,,,,,,,,,,,,,,,,,,,,,,,l,1,1.481,"[""0.035"",""0.222"",""0.116"",""0.740""]","[1,1,0,1]",0,18,18,18,1,1,1,,,1,FALSE,,,,,,,,,,,,,,,,,,,,,,,,,,,,,,
,60cee4ec871f36088fe20ff3,001,2022-04-28_21h14.34.989,classification_task,2021.2.3,Win32,59.59475566,60cee4ec871f36088fe20ff3,626b377229c10585ec392f8a,626b3aee1572b75a9656e7d9,,,,,,,,,,,,,,,,,,,,,,,l,1,0.698,"[""0.035"",""0.222"",""0.560"",""0.595""]","[1,1,1,0]",0,19,19,19,1,1,1,,,1,FALSE,,,,,,,,,,,,,,,,,,,,,,,,,,,,,,
,60cee4ec871f36088fe20ff3,001,2022-04-28_21h14.34.989,classification_task,2021.2.3,Win32,59.59475566,60cee4ec871f36088fe20ff3,626b377229c10585ec392f8a,626b3aee1572b75a9656e7d9,,,,,,,,,,,,,,,,,,,,,,,l,1,2.0484,"[""0.636"",""0.378"",""0.467"",""0.783""]","[0,1,1,1]",0,20,20,20,1,1,0,,,1,FALSE,,,,,,,,,,,,,,,,,,,,,,,,,,,,,,
,60cee4ec871f36088fe20ff3,001,2022-04-28_21h14.34.989,classification_task,2021.2.3,Win32,59.59475566,60cee4ec871f36088fe20ff3,626b377229c10585ec392f8a,626b3aee1572b75a9656e7d9,,,,,,,,,,,,,,,,,,,,,,,a,1,0.8652,"[""0.307"",""0.427"",""0.114"",""0.912""]","[1,1,0,1]",0,21,21,21,1,0,0,,,1,FALSE,,,,,,,,,,,,,,,,,,,,,,,,,,,,,,
,60cee4ec871f36088fe20ff3,001,2022-04-28_21h14.34.989,classification_task,2021.2.3,Win32,59.59475566,60cee4ec871f36088fe20ff3,626b377229c10585ec392f8a,626b3aee1572b75a9656e7d9,,,,,,,,,,,,,,,,,,,,,,,a,1,1.3632,"[""0.080"",""0.519"",""0.694"",""0.946""]","[0,1,1,1]",0,22,22,22,1,0,1,,,1,FALSE,,,,,,,,,,,,,,,,,,,,,,,,,,,,,,
,60cee4ec871f36088fe20ff3,001,2022-04-28_21h14.34.989,classification_task,2021.2.3,Win32,59.59475566,60cee4ec871f36088fe20ff3,626b377229c10585ec392f8a,626b3aee1572b75a9656e7d9,,,,,,,,,,,,,,,,,,,,,,,l,1,1.964,"[""0.152"",""0.378"",""0.115"",""0.783""]","[1,1,0,1]",0,23,23,23,1,1,0,,,1,FALSE,,,,,,,,,,,,,,,,,,,,,,,,,,,,,,
,60cee4ec871f36088fe20ff3,001,2022-04-28_21h14.34.989,classification_task,2021.2.3,Win32,59.59475566,60cee4ec871f36088fe20ff3,626b377229c10585ec392f8a,626b3aee1572b75a9656e7d9,,,,,,,,,,,,,,,,,,,,,,,a,1,0.8739,"[""0.080"",""0.427"",""0.845"",""0.912""]","[0,1,1,1]",0,24,24,24,1,0,0,,,1,FALSE,,,,,,,,,,,,,,,,,,,,,,,,,,,,,,
,60cee4ec871f36088fe20ff3,001,2022-04-28_21h14.34.989,classification_task,2021.2.3,Win32,59.59475566,60cee4ec871f36088fe20ff3,626b377229c10585ec392f8a,626b3aee1572b75a9656e7d9,,,,,,,,,,,,,,,,,,,,,,,a,1,1.2751,"[""0.273"",""0.595"",""0.694"",""0.946""]","[1,0,1,1]",0,25,25,25,1,0,1,,,1,FALSE,,,,,,,,,,,,,,,,,,,,,,,,,,,,,,
,60cee4ec871f36088fe20ff3,001,2022-04-28_21h14.34.989,classification_task,2021.2.3,Win32,59.59475566,60cee4ec871f36088fe20ff3,626b377229c10585ec392f8a,626b3aee1572b75a9656e7d9,,,,,,,,,,,,,,,,,,,,,,,l,1,1.1134,"[""0.114"",""0.222"",""0.560"",""0.740""]","[0,1,1,1]",0,26,26,26,1,1,1,,,1,FALSE,,,,,,,,,,,,,,,,,,,,,,,,,,,,,,
,60cee4ec871f36088fe20ff3,001,2022-04-28_21h14.34.989,classification_task,2021.2.3,Win32,59.59475566,60cee4ec871f36088fe20ff3,626b377229c10585ec392f8a,626b3aee1572b75a9656e7d9,,,,,,,,,,,,,,,,,,,,,,,a,1,1.1145,"[""0.307"",""0.115"",""0.845"",""0.912""]","[1,0,1,1]",0,27,27,27,1,0,0,,,1,FALSE,,,,,,,,,,,,,,,,,,,,,,,,,,,,,,
,60cee4ec871f36088fe20ff3,001,2022-04-28_21h14.34.989,classification_task,2021.2.3,Win32,59.59475566,60cee4ec871f36088fe20ff3,626b377229c10585ec392f8a,626b3aee1572b75a9656e7d9,,,,,,,,,,,,,,,,,,,,,,,a,0,1.1494,"[""0.152"",""0.378"",""0.467"",""0.595""]","[1,1,1,0]",0,28,28,28,1,1,0,,,1,FALSE,,,,,,,,,,,,,,,,,,,,,,,,,,,,,,
,60cee4ec871f36088fe20ff3,001,2022-04-28_21h14.34.989,classification_task,2021.2.3,Win32,59.59475566,60cee4ec871f36088fe20ff3,626b377229c10585ec392f8a,626b3aee1572b75a9656e7d9,,,,,,,,,,,,,,,,,,,,,,,l,0,1.0392,"[""0.307"",""0.427"",""0.845"",""0.636""]","[1,1,1,0]",0,29,29,29,1,0,0,,,1,FALSE,,,,,,,,,,,,,,,,,,,,,,,,,,,,,,
,60cee4ec871f36088fe20ff3,001,2022-04-28_21h14.34.989,classification_task,2021.2.3,Win32,59.59475566,60cee4ec871f36088fe20ff3,626b377229c10585ec392f8a,626b3aee1572b75a9656e7d9,,,,,,,,,,,,,,,,,,,,,,,l,1,1.5925,"[""0.152"",""0.077"",""0.467"",""0.783""]","[1,0,1,1]",0,30,30,30,1,1,0,,,1,FALSE,,,,,,,,,,,,,,,,,,,,,,,,,,,,,,
,60cee4ec871f36088fe20ff3,001,2022-04-28_21h14.34.989,classification_task,2021.2.3,Win32,59.59475566,60cee4ec871f36088fe20ff3,626b377229c10585ec392f8a,626b3aee1572b75a9656e7d9,,,,,,,,,,,,,,,,,,,,,,,a,1,1.2311,"[""0.273"",""0.519"",""0.080"",""0.946""]","[1,1,0,1]",0,31,31,31,1,0,1,,,1,FALSE,,,,,,,,,,,,,,,,,,,,,,,,,,,,,,
,60cee4ec871f36088fe20ff3,001,2022-04-28_21h14.34.989,classification_task,2021.2.3,Win32,59.59475566,60cee4ec871f36088fe20ff3,626b377229c10585ec392f8a,626b3aee1572b75a9656e7d9,,,,,,,,,,,,,,,,,,,,,,,l,1,1.1469,"[""0.035"",""0.222"",""0.560"",""0.080""]","[1,1,1,0]",0,32,32,32,1,1,1,,,1,FALSE,,,,,,,,,,,,,,,,,,,,,,,,,,,,,,
,60cee4ec871f36088fe20ff3,001,2022-04-28_21h14.34.989,classification_task,2021.2.3,Win32,59.59475566,60cee4ec871f36088fe20ff3,626b377229c10585ec392f8a,626b3aee1572b75a9656e7d9,,,,,,,,,,,,,,,,,,,,,,,l,1,1.0806,"[""0.035"",""0.115"",""0.560"",""0.740""]","[1,0,1,1]",0,33,33,33,1,1,1,,,1,FALSE,,,,,,,,,,,,,,,,,,,,,,,,,,,,,,
,60cee4ec871f36088fe20ff3,001,2022-04-28_21h14.34.989,classification_task,2021.2.3,Win32,59.59475566,60cee4ec871f36088fe20ff3,626b377229c10585ec392f8a,626b3aee1572b75a9656e7d9,,,,,,,,,,,,,,,,,,,,,,,l,0,1.7961,"[""0.307"",""0.427"",""0.845"",""0.639""]","[1,1,1,0]",0,34,34,34,1,0,0,,,1,FALSE,,,,,,,,,,,,,,,,,,,,,,,,,,,,,,
,60cee4ec871f36088fe20ff3,001,2022-04-28_21h14.34.989,classification_task,2021.2.3,Win32,59.59475566,60cee4ec871f36088fe20ff3,626b377229c10585ec392f8a,626b3aee1572b75a9656e7d9,,,,,,,,,,,,,,,,,,,,,,,a,1,1.0296,"[""0.273"",""0.114"",""0.694"",""0.946""]","[1,0,1,1]",0,35,35,35,1,0,1,,,1,FALSE,,,,,,,,,,,,,,,,,,,,,,,,,,,,,,
,60cee4ec871f36088fe20ff3,001,2022-04-28_21h14.34.989,classification_task,2021.2.3,Win32,59.59475566,60cee4ec871f36088fe20ff3,626b377229c10585ec392f8a,626b3aee1572b75a9656e7d9,,,,,,,,,,,,,,,,,,,,,,,a,0,1.5645,"[""0.152"",""0.378"",""0.467"",""0.639""]","[1,1,1,0]",0,36,36,36,1,1,0,,,1,FALSE,,,,,,,,,,,,,,,,,,,,,,,,,,,,,,
,60cee4ec871f36088fe20ff3,001,2022-04-28_21h14.34.989,classification_task,2021.2.3,Win32,59.59475566,60cee4ec871f36088fe20ff3,626b377229c10585ec392f8a,626b3aee1572b75a9656e7d9,,,,,,,,,,,,,,,,,,,,,,,l,0,1.1492,"[""0.307"",""0.427"",""0.660"",""0.912""]","[1,1,0,1]",0,37,37,37,1,0,0,,,1,FALSE,,,,,,,,,,,,,,,,,,,,,,,,,,,,,,
,60cee4ec871f36088fe20ff3,001,2022-04-28_21h14.34.989,classification_task,2021.2.3,Win32,59.59475566,60cee4ec871f36088fe20ff3,626b377229c10585ec392f8a,626b3aee1572b75a9656e7d9,,,,,,,,,,,,,,,,,,,,,,,a,1,1.7899,"[""0.116"",""0.519"",""0.694"",""0.946""]","[0,1,1,1]",0,38,38,38,1,0,1,,,1,FALSE,,,,,,,,,,,,,,,,,,,,,,,,,,,,,,
,60cee4ec871f36088fe20ff3,001,2022-04-28_21h14.34.989,classification_task,2021.2.3,Win32,59.59475566,60cee4ec871f36088fe20ff3,626b377229c10585ec392f8a,626b3aee1572b75a9656e7d9,,,,,,,,,,,,,,,,,,,,,,,a,1,1.9989,"[""0.080"",""0.427"",""0.845"",""0.912""]","[0,1,1,1]",0,39,39,39,1,0,0,,,1,FALSE,,,,,,,,,,,,,,,,,,,,,,,,,,,,,,
,60cee4ec871f36088fe20ff3,001,2022-04-28_21h14.34.989,classification_task,2021.2.3,Win32,59.59475566,60cee4ec871f36088fe20ff3,626b377229c10585ec392f8a,626b3aee1572b75a9656e7d9,,,,,,,,,,,,,,,,,,,,,,,l,1,0.9525,"[""0.035"",""0.222"",""0.115"",""0.740""]","[1,1,0,1]",0,40,40,40,1,1,1,,,1,FALSE,,,,,,,,,,,,,,,,,,,,,,,,,,,,,,
,60cee4ec871f36088fe20ff3,001,2022-04-28_21h14.34.989,classification_task,2021.2.3,Win32,59.59475566,60cee4ec871f36088fe20ff3,626b377229c10585ec392f8a,626b3aee1572b75a9656e7d9,,,,,,,,,,,,,,,,,,,,,,,l,1,0.9318,"[""0.152"",""0.116"",""0.467"",""0.783""]","[1,0,1,1]",0,41,41,41,1,1,0,,,1,FALSE,,,,,,,,,,,,,,,,,,,,,,,,,,,,,,
,60cee4ec871f36088fe20ff3,001,2022-04-28_21h14.34.989,classification_task,2021.2.3,Win32,59.59475566,60cee4ec871f36088fe20ff3,626b377229c10585ec392f8a,626b3aee1572b75a9656e7d9,,,,,,,,,,,,,,,,,,,,,,,l,1,1.0804,"[""0.660"",""0.378"",""0.467"",""0.783""]","[0,1,1,1]",0,42,42,42,1,1,0,,,1,FALSE,,,,,,,,,,,,,,,,,,,,,,,,,,,,,,
,60cee4ec871f36088fe20ff3,001,2022-04-28_21h14.34.989,classification_task,2021.2.3,Win32,59.59475566,60cee4ec871f36088fe20ff3,626b377229c10585ec392f8a,626b3aee1572b75a9656e7d9,,,,,,,,,,,,,,,,,,,,,,,a,1,1.015,"[""0.307"",""0.114"",""0.845"",""0.912""]","[1,0,1,1]",0,43,43,43,1,0,0,,,1,FALSE,,,,,,,,,,,,,,,,,,,,,,,,,,,,,,
,60cee4ec871f36088fe20ff3,001,2022-04-28_21h14.34.989,classification_task,2021.2.3,Win32,59.59475566,60cee4ec871f36088fe20ff3,626b377229c10585ec392f8a,626b3aee1572b75a9656e7d9,,,,,,,,,,,,,,,,,,,,,,,a,1,1.1479,"[""0.273"",""0.519"",""0.694"",""0.114""]","[1,1,1,0]",0,44,44,44,1,0,1,,,1,FALSE,,,,,,,,,,,,,,,,,,,,,,,,,,,,,,
,60cee4ec871f36088fe20ff3,001,2022-04-28_21h14.34.989,classification_task,2021.2.3,Win32,59.59475566,60cee4ec871f36088fe20ff3,626b377229c10585ec392f8a,626b3aee1572b75a9656e7d9,,,,,,,,,,,,,,,,,,,,,,,l,1,1.0658,"[""0.639"",""0.222"",""0.560"",""0.740""]","[0,1,1,1]",0,45,45,45,1,1,1,,,1,FALSE,,,,,,,,,,,,,,,,,,,,,,,,,,,,,,
,60cee4ec871f36088fe20ff3,001,2022-04-28_21h14.34.989,classification_task,2021.2.3,Win32,59.59475566,60cee4ec871f36088fe20ff3,626b377229c10585ec392f8a,626b3aee1572b75a9656e7d9,,,,,,,,,,,,,,,,,,,,,,,a,1,0.9333,"[""0.273"",""0.519"",""0.595"",""0.946""]","[1,1,0,1]",0,46,46,46,1,0,1,,,1,FALSE,,,,,,,,,,,,,,,,,,,,,,,,,,,,,,
,60cee4ec871f36088fe20ff3,001,2022-04-28_21h14.34.989,classification_task,2021.2.3,Win32,59.59475566,60cee4ec871f36088fe20ff3,626b377229c10585ec392f8a,626b3aee1572b75a9656e7d9,,,,,,,,,,,,,,,,,,,,,,,l,1,1.1469,"[""0.152"",""0.378"",""0.114"",""0.783""]","[1,1,0,1]",0,47,47,47,1,1,0,,,1,FALSE,,,,,,,,,,,,,,,,,,,,,,,,,,,,,,
,60cee4ec871f36088fe20ff3,001,2022-04-28_21h14.34.989,classification_task,2021.2.3,Win32,59.59475566,60cee4ec871f36088fe20ff3,626b377229c10585ec392f8a,626b3aee1572b75a9656e7d9,,,,,,,,,,,,,,,,,,,,,,,l,1,1.0372,"[""0.035"",""0.222"",""0.080"",""0.740""]","[1,1,0,1]",0,48,48,48,1,1,1,,,1,FALSE,,,,,,,,,,,,,,,,,,,,,,,,,,,,,,
,60cee4ec871f36088fe20ff3,001,2022-04-28_21h14.34.989,classification_task,2021.2.3,Win32,59.59475566,60cee4ec871f36088fe20ff3,626b377229c10585ec392f8a,626b3aee1572b75a9656e7d9,,,,,,,,,,,,,,,,,,,,,,,l,1,1.4653,"[""0.035"",""0.186"",""0.560"",""0.740""]","[1,0,1,1]",0,49,49,49,1,1,1,,,1,FALSE,,,,,,,,,,,,,,,,,,,,,,,,,,,,,,
,60cee4ec871f36088fe20ff3,001,2022-04-28_21h14.34.989,classification_task,2021.2.3,Win32,59.59475566,60cee4ec871f36088fe20ff3,626b377229c10585ec392f8a,626b3aee1572b75a9656e7d9,,,,,,,,,,,,,,,,,,,,,,,a,1,1.28,"[""0.307"",""0.427"",""0.845"",""0.635""]","[1,1,1,0]",0,50,50,50,1,0,0,,,1,FALSE,,,,,,,,,,,,,,,,,,,,,,,,,,,,,,
,60cee4ec871f36088fe20ff3,001,2022-04-28_21h14.34.989,classification_task,2021.2.3,Win32,59.59475566,60cee4ec871f36088fe20ff3,626b377229c10585ec392f8a,626b3aee1572b75a9656e7d9,,,,,,,,,,,,,,,,,,,,,,,a,1,1.2137,"[""0.660"",""0.519"",""0.694"",""0.946""]","[0,1,1,1]",0,51,51,51,1,0,1,,,1,FALSE,,,,,,,,,,,,,,,,,,,,,,,,,,,,,,
,60cee4ec871f36088fe20ff3,001,2022-04-28_21h14.34.989,classification_task,2021.2.3,Win32,59.59475566,60cee4ec871f36088fe20ff3,626b377229c10585ec392f8a,626b3aee1572b75a9656e7d9,,,,,,,,,,,,,,,,,,,,,,,l,0,1.0981,"[""0.660"",""0.427"",""0.845"",""0.912""]","[0,1,1,1]",0,52,52,52,1,0,0,,,1,FALSE,,,,,,,,,,,,,,,,,,,,,,,,,,,,,,
,60cee4ec871f36088fe20ff3,001,2022-04-28_21h14.34.989,classification_task,2021.2.3,Win32,59.59475566,60cee4ec871f36088fe20ff3,626b377229c10585ec392f8a,626b3aee1572b75a9656e7d9,,,,,,,,,,,,,,,,,,,,,,,a,1,1.0956,"[""0.273"",""0.519"",""0.694"",""0.114""]","[1,1,1,0]",0,53,53,53,1,0,1,,,1,FALSE,,,,,,,,,,,,,,,,,,,,,,,,,,,,,,
,60cee4ec871f36088fe20ff3,001,2022-04-28_21h14.34.989,classification_task,2021.2.3,Win32,59.59475566,60cee4ec871f36088fe20ff3,626b377229c10585ec392f8a,626b3aee1572b75a9656e7d9,,,,,,,,,,,,,,,,,,,,,,,a,0,1.2405,"[""0.152"",""0.378"",""0.639"",""0.783""]","[1,1,0,1]",0,54,54,54,1,1,0,,,1,FALSE,,,,,,,,,,,,,,,,,,,,,,,,,,,,,,
,60cee4ec871f36088fe20ff3,001,2022-04-28_21h14.34.989,classification_task,2021.2.3,Win32,59.59475566,60cee4ec871f36088fe20ff3,626b377229c10585ec392f8a,626b3aee1572b75a9656e7d9,,,,,,,,,,,,,,,,,,,,,,,a,1,1.3015,"[""0.307"",""0.427"",""0.115"",""0.912""]","[1,1,0,1]",0,55,55,55,1,0,0,,,1,FALSE,,,,,,,,,,,,,,,,,,,,,,,,,,,,,,
,60cee4ec871f36088fe20ff3,001,2022-04-28_21h14.34.989,classification_task,2021.2.3,Win32,59.59475566,60cee4ec871f36088fe20ff3,626b377229c10585ec392f8a,626b3aee1572b75a9656e7d9,,,,,,,,,,,,,,,,,,,,,,,l,1,1.1464,"[""0.035"",""0.222"",""0.560"",""0.639""]","[1,1,1,0]",0,56,56,56,1,1,1,,,1,FALSE,,,,,,,,,,,,,,,,,,,,,,,,,,,,,,
,60cee4ec871f36088fe20ff3,001,2022-04-28_21h14.34.989,classification_task,2021.2.3,Win32,59.59475566,60cee4ec871f36088fe20ff3,626b377229c10585ec392f8a,626b3aee1572b75a9656e7d9,,,,,,,,,,,,,,,,,,,,,,,l,1,1.3439,"[""0.152"",""0.378"",""0.467"",""0.115""]","[1,1,1,0]",0,57,57,57,1,1,0,,,1,FALSE,,,,,,,,,,,,,,,,,,,,,,,,,,,,,,
,60cee4ec871f36088fe20ff3,001,2022-04-28_21h14.34.989,classification_task,2021.2.3,Win32,59.59475566,60cee4ec871f36088fe20ff3,626b377229c10585ec392f8a,626b3aee1572b75a9656e7d9,,,,,,,,,,,,,,,,,,,,,,,a,1,1.1002,"[""0.307"",""0.636"",""0.845"",""0.912""]","[1,0,1,1]",0,58,58,58,1,0,0,,,1,FALSE,,,,,,,,,,,,,,,,,,,,,,,,,,,,,,
,60cee4ec871f36088fe20ff3,001,2022-04-28_21h14.34.989,classification_task,2021.2.3,Win32,59.59475566,60cee4ec871f36088fe20ff3,626b377229c10585ec392f8a,626b3aee1572b75a9656e7d9,,,,,,,,,,,,,,,,,,,,,,,a,1,1.0654,"[""0.273"",""0.639"",""0.694"",""0.946""]","[1,0,1,1]",0,59,59,59,1,0,1,,,1,FALSE,,,,,,,,,,,,,,,,,,,,,,,,,,,,,,
,60cee4ec871f36088fe20ff3,001,2022-04-28_21h14.34.989,classification_task,2021.2.3,Win32,59.59475566,60cee4ec871f36088fe20ff3,626b377229c10585ec392f8a,626b3aee1572b75a9656e7d9,,,,,,,,,,,,,,,,,,,,,,,l,1,1.1151,"[""0.152"",""0.082"",""0.467"",""0.783""]","[1,0,1,1]",0,60,60,60,1,1,0,,,1,FALSE,,,,,,,,,,,,,,,,,,,,,,,,,,,,,,
,60cee4ec871f36088fe20ff3,001,2022-04-28_21h14.34.989,classification_task,2021.2.3,Win32,59.59475566,60cee4ec871f36088fe20ff3,626b377229c10585ec392f8a,626b3aee1572b75a9656e7d9,,,,,,,,,,,,,,,,,,,,,,,a,1,1.0138,"[""0.273"",""0.519"",""0.636"",""0.946""]","[1,1,0,1]",0,61,61,61,1,0,1,,,1,FALSE,,,,,,,,,,,,,,,,,,,,,,,,,,,,,,
,60cee4ec871f36088fe20ff3,001,2022-04-28_21h14.34.989,classification_task,2021.2.3,Win32,59.59475566,60cee4ec871f36088fe20ff3,626b377229c10585ec392f8a,626b3aee1572b75a9656e7d9,,,,,,,,,,,,,,,,,,,,,,,a,0,1.645,"[""0.635"",""0.378"",""0.467"",""0.783""]","[0,1,1,1]",0,62,62,62,1,1,0,,,1,FALSE,,,,,,,,,,,,,,,,,,,,,,,,,,,,,,
,60cee4ec871f36088fe20ff3,001,2022-04-28_21h14.34.989,classification_task,2021.2.3,Win32,59.59475566,60cee4ec871f36088fe20ff3,626b377229c10585ec392f8a,626b3aee1572b75a9656e7d9,,,,,,,,,,,,,,,,,,,,,,,l,1,1.1302,"[""0.114"",""0.222"",""0.560"",""0.740""]","[0,1,1,1]",0,63,63,63,1,1,1,,,1,FALSE,,,,,,,,,,,,,,,,,,,,,,,,,,,,,,
,60cee4ec871f36088fe20ff3,001,2022-04-28_21h14.34.989,classification_task,2021.2.3,Win32,59.59475566,60cee4ec871f36088fe20ff3,626b377229c10585ec392f8a,626b3aee1572b75a9656e7d9,,,,,,,,,,,,,,,,,,,,,,,,,,,,,,,,,,,,,,,0, ,,0,3.309817754,176.9823,0,1,1,1,1,2,2,,,,,,,,,,,,,,,,,
,60cee4ec871f36088fe20ff3,001,2022-04-28_21h14.34.989,classification_task,2021.2.3,Win32,59.59475566,60cee4ec871f36088fe20ff3,626b377229c10585ec392f8a,626b3aee1572b75a9656e7d9,,,,,,,,,,,,,,,,,,,,,,,,,,,,,,,,,,,,,,,1,  ,,0,10,179.0988,0,1,1,1,1,2,2,,,,,,,,,,,,,,,,,
,60cee4ec871f36088fe20ff3,001,2022-04-28_21h14.34.989,classification_task,2021.2.3,Win32,59.59475566,60cee4ec871f36088fe20ff3,626b377229c10585ec392f8a,626b3aee1572b75a9656e7d9,,,,,,,,,,,,,,,,,,,,,,,,,,,,,,,,,,,,,,,2,  ,,0,10,179.8828,0,1,1,1,1,2,2,,,,,,,,,,,,,,,,,
,60cee4ec871f36088fe20ff3,001,2022-04-28_21h14.34.989,classification_task,2021.2.3,Win32,59.59475566,60cee4ec871f36088fe20ff3,626b377229c10585ec392f8a,626b3aee1572b75a9656e7d9,,,,,,,,,,,,,,,,,,,,,,,,,,,,,,,,,,,,,,,,,,,,,0,1,1,1,1,,2,,,,,,,,,,,,,,,,,
,60cee4ec871f36088fe20ff3,001,2022-04-28_21h14.34.989,classification_task,2021.2.3,Win32,59.59475566,60cee4ec871f36088fe20ff3,626b377229c10585ec392f8a,626b3aee1572b75a9656e7d9,,,,,,,,,,,,,,,,,,,,,space,203.4312,l,0,2.9108,"[""0.273"",""0.519"",""0.116"",""0.946""]","[1,1,0,1]",0,0,0,0,1,0,1,,,1,FALSE,,,,,,,,,,,,,,,,,,,,,,,,,,,,,,
,60cee4ec871f36088fe20ff3,001,2022-04-28_21h14.34.989,classification_task,2021.2.3,Win32,59.59475566,60cee4ec871f36088fe20ff3,626b377229c10585ec392f8a,626b3aee1572b75a9656e7d9,,,,,,,,,,,,,,,,,,,,,,,a,1,2.4267,"[""0.307"",""0.427"",""0.082"",""0.912""]","[1,1,0,1]",0,1,1,1,1,0,0,,,1,FALSE,,,,,,,,,,,,,,,,,,,,,,,,,,,,,,
,60cee4ec871f36088fe20ff3,001,2022-04-28_21h14.34.989,classification_task,2021.2.3,Win32,59.59475566,60cee4ec871f36088fe20ff3,626b377229c10585ec392f8a,626b3aee1572b75a9656e7d9,,,,,,,,,,,,,,,,,,,,,,,l,1,1.35,"[""0.152"",""0.115"",""0.467"",""0.783""]","[1,0,1,1]",0,2,2,2,1,1,0,,,1,FALSE,,,,,,,,,,,,,,,,,,,,,,,,,,,,,,
,60cee4ec871f36088fe20ff3,001,2022-04-28_21h14.34.989,classification_task,2021.2.3,Win32,59.59475566,60cee4ec871f36088fe20ff3,626b377229c10585ec392f8a,626b3aee1572b75a9656e7d9,,,,,,,,,,,,,,,,,,,,,,,a,0,2.3158,"[""0.082"",""0.222"",""0.560"",""0.740""]","[0,1,1,1]",0,3,3,3,1,1,1,,,1,FALSE,,,,,,,,,,,,,,,,,,,,,,,,,,,,,,
,60cee4ec871f36088fe20ff3,001,2022-04-28_21h14.34.989,classification_task,2021.2.3,Win32,59.59475566,60cee4ec871f36088fe20ff3,626b377229c10585ec392f8a,626b3aee1572b75a9656e7d9,,,,,,,,,,,,,,,,,,,,,,,l,1,0.9095,"[""0.152"",""0.378"",""0.467"",""0.114""]","[1,1,1,0]",0,4,4,4,1,1,0,,,1,FALSE,,,,,,,,,,,,,,,,,,,,,,,,,,,,,,
,60cee4ec871f36088fe20ff3,001,2022-04-28_21h14.34.989,classification_task,2021.2.3,Win32,59.59475566,60cee4ec871f36088fe20ff3,626b377229c10585ec392f8a,626b3aee1572b75a9656e7d9,,,,,,,,,,,,,,,,,,,,,,,a,1,0.7169,"[""0.307"",""0.595"",""0.845"",""0.912""]","[1,0,1,1]",0,5,5,5,1,0,0,,,1,FALSE,,,,,,,,,,,,,,,,,,,,,,,,,,,,,,
,60cee4ec871f36088fe20ff3,001,2022-04-28_21h14.34.989,classification_task,2021.2.3,Win32,59.59475566,60cee4ec871f36088fe20ff3,626b377229c10585ec392f8a,626b3aee1572b75a9656e7d9,,,,,,,,,,,,,,,,,,,,,,,a,1,1.7809,"[""0.273"",""0.519"",""0.694"",""0.636""]","[1,1,1,0]",0,6,6,6,1,0,1,,,1,FALSE,,,,,,,,,,,,,,,,,,,,,,,,,,,,,,
,60cee4ec871f36088fe20ff3,001,2022-04-28_21h14.34.989,classification_task,2021.2.3,Win32,59.59475566,60cee4ec871f36088fe20ff3,626b377229c10585ec392f8a,626b3aee1572b75a9656e7d9,,,,,,,,,,,,,,,,,,,,,,,a,1,2.3831,"[""0.639"",""0.519"",""0.694"",""0.946""]","[0,1,1,1]",0,7,7,7,1,0,1,,,1,FALSE,,,,,,,,,,,,,,,,,,,,,,,,,,,,,,
,60cee4ec871f36088fe20ff3,001,2022-04-28_21h14.34.989,classification_task,2021.2.3,Win32,59.59475566,60cee4ec871f36088fe20ff3,626b377229c10585ec392f8a,626b3aee1572b75a9656e7d9,,,,,,,,,,,,,,,,,,,,,,,a,0,0.7032,"[""0.035"",""0.115"",""0.560"",""0.740""]","[1,0,1,1]",0,8,8,8,1,1,1,,,1,FALSE,,,,,,,,,,,,,,,,,,,,,,,,,,,,,,
,60cee4ec871f36088fe20ff3,001,2022-04-28_21h14.34.989,classification_task,2021.2.3,Win32,59.59475566,60cee4ec871f36088fe20ff3,626b377229c10585ec392f8a,626b3aee1572b75a9656e7d9,,,,,,,,,,,,,,,,,,,,,,,l,1,1.2989,"[""0.152"",""0.378"",""0.186"",""0.783""]","[1,1,0,1]",0,9,9,9,1,1,0,,,1,FALSE,,,,,,,,,,,,,,,,,,,,,,,,,,,,,,
,60cee4ec871f36088fe20ff3,001,2022-04-28_21h14.34.989,classification_task,2021.2.3,Win32,59.59475566,60cee4ec871f36088fe20ff3,626b377229c10585ec392f8a,626b3aee1572b75a9656e7d9,,,,,,,,,,,,,,,,,,,,,,,l,1,0.8044,"[""0.636"",""0.378"",""0.467"",""0.783""]","[0,1,1,1]",0,10,10,10,1,1,0,,,1,FALSE,,,,,,,,,,,,,,,,,,,,,,,,,,,,,,
,60cee4ec871f36088fe20ff3,001,2022-04-28_21h14.34.989,classification_task,2021.2.3,Win32,59.59475566,60cee4ec871f36088fe20ff3,626b377229c10585ec392f8a,626b3aee1572b75a9656e7d9,,,,,,,,,,,,,,,,,,,,,,,l,1,0.7302,"[""0.035"",""0.222"",""0.114"",""0.740""]","[1,1,0,1]",0,11,11,11,1,1,1,,,1,FALSE,,,,,,,,,,,,,,,,,,,,,,,,,,,,,,
,60cee4ec871f36088fe20ff3,001,2022-04-28_21h14.34.989,classification_task,2021.2.3,Win32,59.59475566,60cee4ec871f36088fe20ff3,626b377229c10585ec392f8a,626b3aee1572b75a9656e7d9,,,,,,,,,,,,,,,,,,,,,,,l,1,0.8054,"[""0.035"",""0.222"",""0.560"",""0.082""]","[1,1,1,0]",0,12,12,12,1,1,1,,,1,FALSE,,,,,,,,,,,,,,,,,,,,,,,,,,,,,,
,60cee4ec871f36088fe20ff3,001,2022-04-28_21h14.34.989,classification_task,2021.2.3,Win32,59.59475566,60cee4ec871f36088fe20ff3,626b377229c10585ec392f8a,626b3aee1572b75a9656e7d9,,,,,,,,,,,,,,,,,,,,,,,a,1,0.8437,"[""0.307"",""0.427"",""0.845"",""0.082""]","[1,1,1,0]",0,13,13,13,1,0,0,,,1,FALSE,,,,,,,,,,,,,,,,,,,,,,,,,,,,,,
,60cee4ec871f36088fe20ff3,001,2022-04-28_21h14.34.989,classification_task,2021.2.3,Win32,59.59475566,60cee4ec871f36088fe20ff3,626b377229c10585ec392f8a,626b3aee1572b75a9656e7d9,,,,,,,,,,,,,,,,,,,,,,,a,1,0.7337,"[""0.636"",""0.427"",""0.845"",""0.912""]","[0,1,1,1]",0,14,14,14,1,0,0,,,1,FALSE,,,,,,,,,,,,,,,,,,,,,,,,,,,,,,
,60cee4ec871f36088fe20ff3,001,2022-04-28_21h14.34.989,classification_task,2021.2.3,Win32,59.59475566,60cee4ec871f36088fe20ff3,626b377229c10585ec392f8a,626b3aee1572b75a9656e7d9,,,,,,,,,,,,,,,,,,,,,,,a,1,3.2648,"[""0.273"",""0.114"",""0.694"",""0.946""]","[1,0,1,1]",0,15,15,15,1,0,1,,,1,FALSE,,,,,,,,,,,,,,,,,,,,,,,,,,,,,,
,60cee4ec871f36088fe20ff3,001,2022-04-28_21h14.34.989,classification_task,2021.2.3,Win32,59.59475566,60cee4ec871f36088fe20ff3,626b377229c10585ec392f8a,626b3aee1572b75a9656e7d9,,,,,,,,,,,,,,,,,,,,,,,l,0,2.3884,"[""0.307"",""0.115"",""0.845"",""0.912""]","[1,0,1,1]",0,16,16,16,1,0,0,,,1,FALSE,,,,,,,,,,,,,,,,,,,,,,,,,,,,,,
,60cee4ec871f36088fe20ff3,001,2022-04-28_21h14.34.989,classification_task,2021.2.3,Win32,59.59475566,60cee4ec871f36088fe20ff3,626b377229c10585ec392f8a,626b3aee1572b75a9656e7d9,,,,,,,,,,,,,,,,,,,,,,,l,1,1.2144,"[""0.152"",""0.378"",""0.467"",""0.116""]","[1,1,1,0]",0,17,17,17,1,1,0,,,1,FALSE,,,,,,,,,,,,,,,,,,,,,,,,,,,,,,
,60cee4ec871f36088fe20ff3,001,2022-04-28_21h14.34.989,classification_task,2021.2.3,Win32,59.59475566,60cee4ec871f36088fe20ff3,626b377229c10585ec392f8a,626b3aee1572b75a9656e7d9,,,,,,,,,,,,,,,,,,,,,,,a,1,0.7664,"[""0.273"",""0.519"",""0.114"",""0.946""]","[1,1,0,1]",0,18,18,18,1,0,1,,,1,FALSE,,,,,,,,,,,,,,,,,,,,,,,,,,,,,,
,60cee4ec871f36088fe20ff3,001,2022-04-28_21h14.34.989,classification_task,2021.2.3,Win32,59.59475566,60cee4ec871f36088fe20ff3,626b377229c10585ec392f8a,626b3aee1572b75a9656e7d9,,,,,,,,,,,,,,,,,,,,,,,a,1,0.4772,"[""0.114"",""0.427"",""0.845"",""0.912""]","[0,1,1,1]",0,19,19,19,1,0,0,,,1,FALSE,,,,,,,,,,,,,,,,,,,,,,,,,,,,,,
,60cee4ec871f36088fe20ff3,001,2022-04-28_21h14.34.989,classification_task,2021.2.3,Win32,59.59475566,60cee4ec871f36088fe20ff3,626b377229c10585ec392f8a,626b3aee1572b75a9656e7d9,,,,,,,,,,,,,,,,,,,,,,,a,1,0.7315,"[""0.273"",""0.114"",""0.694"",""0.946""]","[1,0,1,1]",0,20,20,20,1,0,1,,,1,FALSE,,,,,,,,,,,,,,,,,,,,,,,,,,,,,,
,60cee4ec871f36088fe20ff3,001,2022-04-28_21h14.34.989,classification_task,2021.2.3,Win32,59.59475566,60cee4ec871f36088fe20ff3,626b377229c10585ec392f8a,626b3aee1572b75a9656e7d9,,,,,,,,,,,,,,,,,,,,,,,a,1,0.5481,"[""0.307"",""0.427"",""0.082"",""0.912""]","[1,1,0,1]",0,21,21,21,1,0,0,,,1,FALSE,,,,,,,,,,,,,,,,,,,,,,,,,,,,,,
,60cee4ec871f36088fe20ff3,001,2022-04-28_21h14.34.989,classification_task,2021.2.3,Win32,59.59475566,60cee4ec871f36088fe20ff3,626b377229c10585ec392f8a,626b3aee1572b75a9656e7d9,,,,,,,,,,,,,,,,,,,,,,,a,1,0.5494,"[""0.307"",""0.427"",""0.845"",""0.114""]","[1,1,1,0]",0,22,22,22,1,0,0,,,1,FALSE,,,,,,,,,,,,,,,,,,,,,,,,,,,,,,
,60cee4ec871f36088fe20ff3,001,2022-04-28_21h14.34.989,classification_task,2021.2.3,Win32,59.59475566,60cee4ec871f36088fe20ff3,626b377229c10585ec392f8a,626b3aee1572b75a9656e7d9,,,,,,,,,,,,,,,,,,,,,,,l,1,0.5799,"[""0.035"",""0.222"",""0.080"",""0.740""]","[1,1,0,1]",0,23,23,23,1,1,1,,,1,FALSE,,,,,,,,,,,,,,,,,,,,,,,,,,,,,,
,60cee4ec871f36088fe20ff3,001,2022-04-28_21h14.34.989,classification_task,2021.2.3,Win32,59.59475566,60cee4ec871f36088fe20ff3,626b377229c10585ec392f8a,626b3aee1572b75a9656e7d9,,,,,,,,,,,,,,,,,,,,,,,l,1,0.6128,"[""0.115"",""0.222"",""0.560"",""0.740""]","[0,1,1,1]",0,24,24,24,1,1,1,,,1,FALSE,,,,,,,,,,,,,,,,,,,,,,,,,,,,,,
,60cee4ec871f36088fe20ff3,001,2022-04-28_21h14.34.989,classification_task,2021.2.3,Win32,59.59475566,60cee4ec871f36088fe20ff3,626b377229c10585ec392f8a,626b3aee1572b75a9656e7d9,,,,,,,,,,,,,,,,,,,,,,,l,1,0.5083,"[""0.035"",""0.222"",""0.560"",""0.114""]","[1,1,1,0]",0,25,25,25,1,1,1,,,1,FALSE,,,,,,,,,,,,,,,,,,,,,,,,,,,,,,
,60cee4ec871f36088fe20ff3,001,2022-04-28_21h14.34.989,classification_task,2021.2.3,Win32,59.59475566,60cee4ec871f36088fe20ff3,626b377229c10585ec392f8a,626b3aee1572b75a9656e7d9,,,,,,,,,,,,,,,,,,,,,,,a,0,0.5824,"[""0.115"",""0.378"",""0.467"",""0.783""]","[0,1,1,1]",0,26,26,26,1,1,0,,,1,FALSE,,,,,,,,,,,,,,,,,,,,,,,,,,,,,,
,60cee4ec871f36088fe20ff3,001,2022-04-28_21h14.34.989,classification_task,2021.2.3,Win32,59.59475566,60cee4ec871f36088fe20ff3,626b377229c10585ec392f8a,626b3aee1572b75a9656e7d9,,,,,,,,,,,,,,,,,,,,,,,a,0,0.5642,"[""0.152"",""0.636"",""0.467"",""0.783""]","[1,0,1,1]",0,27,27,27,1,1,0,,,1,FALSE,,,,,,,,,,,,,,,,,,,,,,,,,,,,,,
,60cee4ec871f36088fe20ff3,001,2022-04-28_21h14.34.989,classification_task,2021.2.3,Win32,59.59475566,60cee4ec871f36088fe20ff3,626b377229c10585ec392f8a,626b3aee1572b75a9656e7d9,,,,,,,,,,,,,,,,,,,,,,,a,1,0.7658,"[""0.273"",""0.519"",""0.694"",""0.077""]","[1,1,1,0]",0,28,28,28,1,0,1,,,1,FALSE,,,,,,,,,,,,,,,,,,,,,,,,,,,,,,
,60cee4ec871f36088fe20ff3,001,2022-04-28_21h14.34.989,classification_task,2021.2.3,Win32,59.59475566,60cee4ec871f36088fe20ff3,626b377229c10585ec392f8a,626b3aee1572b75a9656e7d9,,,,,,,,,,,,,,,,,,,,,,,l,1,0.5639,"[""0.035"",""0.115"",""0.560"",""0.740""]","[1,0,1,1]",0,29,29,29,1,1,1,,,1,FALSE,,,,,,,,,,,,,,,,,,,,,,,,,,,,,,
,60cee4ec871f36088fe20ff3,001,2022-04-28_21h14.34.989,classification_task,2021.2.3,Win32,59.59475566,60cee4ec871f36088fe20ff3,626b377229c10585ec392f8a,626b3aee1572b75a9656e7d9,,,,,,,,,,,,,,,,,,,,,,,l,1,0.5152,"[""0.152"",""0.378"",""0.114"",""0.783""]","[1,1,0,1]",0,30,30,30,1,1,0,,,1,FALSE,,,,,,,,,,,,,,,,,,,,,,,,,,,,,,
,60cee4ec871f36088fe20ff3,001,2022-04-28_21h14.34.989,classification_task,2021.2.3,Win32,59.59475566,60cee4ec871f36088fe20ff3,626b377229c10585ec392f8a,626b3aee1572b75a9656e7d9,,,,,,,,,,,,,,,,,,,,,,,a,1,0.7152,"[""0.115"",""0.519"",""0.694"",""0.946""]","[0,1,1,1]",0,31,31,31,1,0,1,,,1,FALSE,,,,,,,,,,,,,,,,,,,,,,,,,,,,,,
,60cee4ec871f36088fe20ff3,001,2022-04-28_21h14.34.989,classification_task,2021.2.3,Win32,59.59475566,60cee4ec871f36088fe20ff3,626b377229c10585ec392f8a,626b3aee1572b75a9656e7d9,,,,,,,,,,,,,,,,,,,,,,,a,0,0.7651,"[""0.035"",""0.077"",""0.560"",""0.740""]","[1,0,1,1]",0,32,32,32,1,1,1,,,1,FALSE,,,,,,,,,,,,,,,,,,,,,,,,,,,,,,
,60cee4ec871f36088fe20ff3,001,2022-04-28_21h14.34.989,classification_task,2021.2.3,Win32,59.59475566,60cee4ec871f36088fe20ff3,626b377229c10585ec392f8a,626b3aee1572b75a9656e7d9,,,,,,,,,,,,,,,,,,,,,,,a,1,0.5812,"[""0.307"",""0.427"",""0.116"",""0.912""]","[1,1,0,1]",0,33,33,33,1,0,0,,,1,FALSE,,,,,,,,,,,,,,,,,,,,,,,,,,,,,,
,60cee4ec871f36088fe20ff3,001,2022-04-28_21h14.34.989,classification_task,2021.2.3,Win32,59.59475566,60cee4ec871f36088fe20ff3,626b377229c10585ec392f8a,626b3aee1572b75a9656e7d9,,,,,,,,,,,,,,,,,,,,,,,l,1,0.6164,"[""0.035"",""0.222"",""0.560"",""0.115""]","[1,1,1,0]",0,34,34,34,1,1,1,,,1,FALSE,,,,,,,,,,,,,,,,,,,,,,,,,,,,,,
,60cee4ec871f36088fe20ff3,001,2022-04-28_21h14.34.989,classification_task,2021.2.3,Win32,59.59475566,60cee4ec871f36088fe20ff3,626b377229c10585ec392f8a,626b3aee1572b75a9656e7d9,,,,,,,,,,,,,,,,,,,,,,,a,1,0.7971,"[""0.307"",""0.630"",""0.845"",""0.912""]","[1,0,1,1]",0,35,35,35,1,0,0,,,1,FALSE,,,,,,,,,,,,,,,,,,,,,,,,,,,,,,
,60cee4ec871f36088fe20ff3,001,2022-04-28_21h14.34.989,classification_task,2021.2.3,Win32,59.59475566,60cee4ec871f36088fe20ff3,626b377229c10585ec392f8a,626b3aee1572b75a9656e7d9,,,,,,,,,,,,,,,,,,,,,,,a,1,0.481,"[""0.116"",""0.427"",""0.845"",""0.912""]","[0,1,1,1]",0,36,36,36,1,0,0,,,1,FALSE,,,,,,,,,,,,,,,,,,,,,,,,,,,,,,
,60cee4ec871f36088fe20ff3,001,2022-04-28_21h14.34.989,classification_task,2021.2.3,Win32,59.59475566,60cee4ec871f36088fe20ff3,626b377229c10585ec392f8a,626b3aee1572b75a9656e7d9,,,,,,,,,,,,,,,,,,,,,,,a,1,0.6822,"[""0.080"",""0.519"",""0.694"",""0.946""]","[0,1,1,1]",0,37,37,37,1,0,1,,,1,FALSE,,,,,,,,,,,,,,,,,,,,,,,,,,,,,,
,60cee4ec871f36088fe20ff3,001,2022-04-28_21h14.34.989,classification_task,2021.2.3,Win32,59.59475566,60cee4ec871f36088fe20ff3,626b377229c10585ec392f8a,626b3aee1572b75a9656e7d9,,,,,,,,,,,,,,,,,,,,,,,a,0,0.5328,"[""0.636"",""0.222"",""0.560"",""0.740""]","[0,1,1,1]",0,38,38,38,1,1,1,,,1,FALSE,,,,,,,,,,,,,,,,,,,,,,,,,,,,,,
,60cee4ec871f36088fe20ff3,001,2022-04-28_21h14.34.989,classification_task,2021.2.3,Win32,59.59475566,60cee4ec871f36088fe20ff3,626b377229c10585ec392f8a,626b3aee1572b75a9656e7d9,,,,,,,,,,,,,,,,,,,,,,,l,1,0.564,"[""0.152"",""0.378"",""0.082"",""0.783""]","[1,1,0,1]",0,39,39,39,1,1,0,,,1,FALSE,,,,,,,,,,,,,,,,,,,,,,,,,,,,,,
,60cee4ec871f36088fe20ff3,001,2022-04-28_21h14.34.989,classification_task,2021.2.3,Win32,59.59475566,60cee4ec871f36088fe20ff3,626b377229c10585ec392f8a,626b3aee1572b75a9656e7d9,,,,,,,,,,,,,,,,,,,,,,,l,1,0.5165,"[""0.035"",""0.222"",""0.115"",""0.740""]","[1,1,0,1]",0,40,40,40,1,1,1,,,1,FALSE,,,,,,,,,,,,,,,,,,,,,,,,,,,,,,
,60cee4ec871f36088fe20ff3,001,2022-04-28_21h14.34.989,classification_task,2021.2.3,Win32,59.59475566,60cee4ec871f36088fe20ff3,626b377229c10585ec392f8a,626b3aee1572b75a9656e7d9,,,,,,,,,,,,,,,,,,,,,,,l,0,0.6162,"[""0.273"",""0.519"",""0.694"",""0.114""]","[1,1,1,0]",0,41,41,41,1,0,1,,,1,FALSE,,,,,,,,,,,,,,,,,,,,,,,,,,,,,,
,60cee4ec871f36088fe20ff3,001,2022-04-28_21h14.34.989,classification_task,2021.2.3,Win32,59.59475566,60cee4ec871f36088fe20ff3,626b377229c10585ec392f8a,626b3aee1572b75a9656e7d9,,,,,,,,,,,,,,,,,,,,,,,l,1,0.5473,"[""0.152"",""0.114"",""0.467"",""0.783""]","[1,0,1,1]",0,42,42,42,1,1,0,,,1,FALSE,,,,,,,,,,,,,,,,,,,,,,,,,,,,,,
,60cee4ec871f36088fe20ff3,001,2022-04-28_21h14.34.989,classification_task,2021.2.3,Win32,59.59475566,60cee4ec871f36088fe20ff3,626b377229c10585ec392f8a,626b3aee1572b75a9656e7d9,,,,,,,,,,,,,,,,,,,,,,,l,1,0.5151,"[""0.082"",""0.378"",""0.467"",""0.783""]","[0,1,1,1]",0,43,43,43,1,1,0,,,1,FALSE,,,,,,,,,,,,,,,,,,,,,,,,,,,,,,
,60cee4ec871f36088fe20ff3,001,2022-04-28_21h14.34.989,classification_task,2021.2.3,Win32,59.59475566,60cee4ec871f36088fe20ff3,626b377229c10585ec392f8a,626b3aee1572b75a9656e7d9,,,,,,,,,,,,,,,,,,,,,,,a,1,0.7327,"[""0.273"",""0.519"",""0.080"",""0.946""]","[1,1,0,1]",0,44,44,44,1,0,1,,,1,FALSE,,,,,,,,,,,,,,,,,,,,,,,,,,,,,,
,60cee4ec871f36088fe20ff3,001,2022-04-28_21h14.34.989,classification_task,2021.2.3,Win32,59.59475566,60cee4ec871f36088fe20ff3,626b377229c10585ec392f8a,626b3aee1572b75a9656e7d9,,,,,,,,,,,,,,,,,,,,,,,l,1,0.584,"[""0.152"",""0.378"",""0.467"",""0.115""]","[1,1,1,0]",0,45,45,45,1,1,0,,,1,FALSE,,,,,,,,,,,,,,,,,,,,,,,,,,,,,,
,60cee4ec871f36088fe20ff3,001,2022-04-28_21h14.34.989,classification_task,2021.2.3,Win32,59.59475566,60cee4ec871f36088fe20ff3,626b377229c10585ec392f8a,626b3aee1572b75a9656e7d9,,,,,,,,,,,,,,,,,,,,,,,a,1,0.9502,"[""0.273"",""0.650"",""0.694"",""0.946""]","[1,0,1,1]",0,46,46,46,1,0,1,,,1,FALSE,,,,,,,,,,,,,,,,,,,,,,,,,,,,,,
,60cee4ec871f36088fe20ff3,001,2022-04-28_21h14.34.989,classification_task,2021.2.3,Win32,59.59475566,60cee4ec871f36088fe20ff3,626b377229c10585ec392f8a,626b3aee1572b75a9656e7d9,,,,,,,,,,,,,,,,,,,,,,,l,0,0.7487,"[""0.307"",""0.427"",""0.845"",""0.639""]","[1,1,1,0]",0,47,47,47,1,0,0,,,1,FALSE,,,,,,,,,,,,,,,,,,,,,,,,,,,,,,
,60cee4ec871f36088fe20ff3,001,2022-04-28_21h14.34.989,classification_task,2021.2.3,Win32,59.59475566,60cee4ec871f36088fe20ff3,626b377229c10585ec392f8a,626b3aee1572b75a9656e7d9,,,,,,,,,,,,,,,,,,,,,,,l,0,0.6149,"[""0.307"",""0.427"",""0.636"",""0.912""]","[1,1,0,1]",0,48,48,48,1,0,0,,,1,FALSE,,,,,,,,,,,,,,,,,,,,,,,,,,,,,,
,60cee4ec871f36088fe20ff3,001,2022-04-28_21h14.34.989,classification_task,2021.2.3,Win32,59.59475566,60cee4ec871f36088fe20ff3,626b377229c10585ec392f8a,626b3aee1572b75a9656e7d9,,,,,,,,,,,,,,,,,,,,,,,l,1,0.5222,"[""0.152"",""0.378"",""0.116"",""0.783""]","[1,1,0,1]",0,49,49,49,1,1,0,,,1,FALSE,,,,,,,,,,,,,,,,,,,,,,,,,,,,,,
,60cee4ec871f36088fe20ff3,001,2022-04-28_21h14.34.989,classification_task,2021.2.3,Win32,59.59475566,60cee4ec871f36088fe20ff3,626b377229c10585ec392f8a,626b3aee1572b75a9656e7d9,,,,,,,,,,,,,,,,,,,,,,,l,1,0.4807,"[""0.152"",""0.186"",""0.467"",""0.783""]","[1,0,1,1]",0,50,50,50,1,1,0,,,1,FALSE,,,,,,,,,,,,,,,,,,,,,,,,,,,,,,
,60cee4ec871f36088fe20ff3,001,2022-04-28_21h14.34.989,classification_task,2021.2.3,Win32,59.59475566,60cee4ec871f36088fe20ff3,626b377229c10585ec392f8a,626b3aee1572b75a9656e7d9,,,,,,,,,,,,,,,,,,,,,,,a,0,0.7797,"[""0.035"",""0.222"",""0.560"",""0.186""]","[1,1,1,0]",0,51,51,51,1,1,1,,,1,FALSE,,,,,,,,,,,,,,,,,,,,,,,,,,,,,,
,60cee4ec871f36088fe20ff3,001,2022-04-28_21h14.34.989,classification_task,2021.2.3,Win32,59.59475566,60cee4ec871f36088fe20ff3,626b377229c10585ec392f8a,626b3aee1572b75a9656e7d9,,,,,,,,,,,,,,,,,,,,,,,l,0,1.2159,"[""0.307"",""0.427"",""0.845"",""0.636""]","[1,1,1,0]",0,52,52,52,1,0,0,,,1,FALSE,,,,,,,,,,,,,,,,,,,,,,,,,,,,,,
,60cee4ec871f36088fe20ff3,001,2022-04-28_21h14.34.989,classification_task,2021.2.3,Win32,59.59475566,60cee4ec871f36088fe20ff3,626b377229c10585ec392f8a,626b3aee1572b75a9656e7d9,,,,,,,,,,,,,,,,,,,,,,,l,1,1.0265,"[""0.660"",""0.378"",""0.467"",""0.783""]","[0,1,1,1]",0,53,53,53,1,1,0,,,1,FALSE,,,,,,,,,,,,,,,,,,,,,,,,,,,,,,
,60cee4ec871f36088fe20ff3,001,2022-04-28_21h14.34.989,classification_task,2021.2.3,Win32,59.59475566,60cee4ec871f36088fe20ff3,626b377229c10585ec392f8a,626b3aee1572b75a9656e7d9,,,,,,,,,,,,,,,,,,,,,,,l,0,0.4982,"[""0.307"",""0.186"",""0.845"",""0.912""]","[1,0,1,1]",0,54,54,54,1,0,0,,,1,FALSE,,,,,,,,,,,,,,,,,,,,,,,,,,,,,,
,60cee4ec871f36088fe20ff3,001,2022-04-28_21h14.34.989,classification_task,2021.2.3,Win32,59.59475566,60cee4ec871f36088fe20ff3,626b377229c10585ec392f8a,626b3aee1572b75a9656e7d9,,,,,,,,,,,,,,,,,,,,,,,a,0,0.6985,"[""0.035"",""0.636"",""0.560"",""0.740""]","[1,0,1,1]",0,55,55,55,1,1,1,,,1,FALSE,,,,,,,,,,,,,,,,,,,,,,,,,,,,,,
,60cee4ec871f36088fe20ff3,001,2022-04-28_21h14.34.989,classification_task,2021.2.3,Win32,59.59475566,60cee4ec871f36088fe20ff3,626b377229c10585ec392f8a,626b3aee1572b75a9656e7d9,,,,,,,,,,,,,,,,,,,,,,,a,1,0.5333,"[""0.082"",""0.519"",""0.694"",""0.946""]","[0,1,1,1]",0,56,56,56,1,0,1,,,1,FALSE,,,,,,,,,,,,,,,,,,,,,,,,,,,,,,
,60cee4ec871f36088fe20ff3,001,2022-04-28_21h14.34.989,classification_task,2021.2.3,Win32,59.59475566,60cee4ec871f36088fe20ff3,626b377229c10585ec392f8a,626b3aee1572b75a9656e7d9,,,,,,,,,,,,,,,,,,,,,,,a,1,0.5504,"[""0.273"",""0.636"",""0.694"",""0.946""]","[1,0,1,1]",0,57,57,57,1,0,1,,,1,FALSE,,,,,,,,,,,,,,,,,,,,,,,,,,,,,,
,60cee4ec871f36088fe20ff3,001,2022-04-28_21h14.34.989,classification_task,2021.2.3,Win32,59.59475566,60cee4ec871f36088fe20ff3,626b377229c10585ec392f8a,626b3aee1572b75a9656e7d9,,,,,,,,,,,,,,,,,,,,,,,a,0,0.5978,"[""0.152"",""0.378"",""0.467"",""0.630""]","[1,1,1,0]",0,58,58,58,1,1,0,,,1,FALSE,,,,,,,,,,,,,,,,,,,,,,,,,,,,,,
,60cee4ec871f36088fe20ff3,001,2022-04-28_21h14.34.989,classification_task,2021.2.3,Win32,59.59475566,60cee4ec871f36088fe20ff3,626b377229c10585ec392f8a,626b3aee1572b75a9656e7d9,,,,,,,,,,,,,,,,,,,,,,,a,1,0.7162,"[""0.273"",""0.519"",""0.077"",""0.946""]","[1,1,0,1]",0,59,59,59,1,0,1,,,1,FALSE,,,,,,,,,,,,,,,,,,,,,,,,,,,,,,
,60cee4ec871f36088fe20ff3,001,2022-04-28_21h14.34.989,classification_task,2021.2.3,Win32,59.59475566,60cee4ec871f36088fe20ff3,626b377229c10585ec392f8a,626b3aee1572b75a9656e7d9,,,,,,,,,,,,,,,,,,,,,,,l,1,0.6327,"[""0.035"",""0.222"",""0.082"",""0.740""]","[1,1,0,1]",0,60,60,60,1,1,1,,,1,FALSE,,,,,,,,,,,,,,,,,,,,,,,,,,,,,,
,60cee4ec871f36088fe20ff3,001,2022-04-28_21h14.34.989,classification_task,2021.2.3,Win32,59.59475566,60cee4ec871f36088fe20ff3,626b377229c10585ec392f8a,626b3aee1572b75a9656e7d9,,,,,,,,,,,,,,,,,,,,,,,a,1,1.198,"[""0.116"",""0.427"",""0.845"",""0.912""]","[0,1,1,1]",0,61,61,61,1,0,0,,,1,FALSE,,,,,,,,,,,,,,,,,,,,,,,,,,,,,,
,60cee4ec871f36088fe20ff3,001,2022-04-28_21h14.34.989,classification_task,2021.2.3,Win32,59.59475566,60cee4ec871f36088fe20ff3,626b377229c10585ec392f8a,626b3aee1572b75a9656e7d9,,,,,,,,,,,,,,,,,,,,,,,l,0,0.9796,"[""0.273"",""0.519"",""0.694"",""0.116""]","[1,1,1,0]",0,62,62,62,1,0,1,,,1,FALSE,,,,,,,,,,,,,,,,,,,,,,,,,,,,,,
,60cee4ec871f36088fe20ff3,001,2022-04-28_21h14.34.989,classification_task,2021.2.3,Win32,59.59475566,60cee4ec871f36088fe20ff3,626b377229c10585ec392f8a,626b3aee1572b75a9656e7d9,,,,,,,,,,,,,,,,,,,,,,,l,1,0.9823,"[""0.080"",""0.222"",""0.560"",""0.740""]","[0,1,1,1]",0,63,63,63,1,1,1,,,1,FALSE,,,,,,,,,,,,,,,,,,,,,,,,,,,,,,
,60cee4ec871f36088fe20ff3,001,2022-04-28_21h14.34.989,classification_task,2021.2.3,Win32,59.59475566,60cee4ec871f36088fe20ff3,626b377229c10585ec392f8a,626b3aee1572b75a9656e7d9,,,,,,,,,,,,,,,,,,,,,,,,,,,,,,,,,,,,,,,0, ,,0,1.13462669,332.3976,0,2,2,2,1,2,3,,,,,,,,,,,,,,,,,
,60cee4ec871f36088fe20ff3,001,2022-04-28_21h14.34.989,classification_task,2021.2.3,Win32,59.59475566,60cee4ec871f36088fe20ff3,626b377229c10585ec392f8a,626b3aee1572b75a9656e7d9,,,,,,,,,,,,,,,,,,,,,,,,,,,,,,,,,,,,,,,1,  ,,0,10,333.5023,0,2,2,2,1,2,3,,,,,,,,,,,,,,,,,
,60cee4ec871f36088fe20ff3,001,2022-04-28_21h14.34.989,classification_task,2021.2.3,Win32,59.59475566,60cee4ec871f36088fe20ff3,626b377229c10585ec392f8a,626b3aee1572b75a9656e7d9,,,,,,,,,,,,,,,,,,,,,,,,,,,,,,,,,,,,,,,2,  ,,0,10,334.1978,0,2,2,2,1,2,3,,,,,,,,,,,,,,,,,
,60cee4ec871f36088fe20ff3,001,2022-04-28_21h14.34.989,classification_task,2021.2.3,Win32,59.59475566,60cee4ec871f36088fe20ff3,626b377229c10585ec392f8a,626b3aee1572b75a9656e7d9,,,,,,,,,,,,,,,,,,,,,,,,,,,,,,,,,,,,,,,,,,,,,0,2,2,2,1,,3,,,,,,,,,,,,,,,,,
,60cee4ec871f36088fe20ff3,001,2022-04-28_21h14.34.989,classification_task,2021.2.3,Win32,59.59475566,60cee4ec871f36088fe20ff3,626b377229c10585ec392f8a,626b3aee1572b75a9656e7d9,,,,,,,,,,,,,,,,,,,,,,,,,,,,,,,,,,,,,,,,,,,,,,,,,,,,,I believe the aid is a competent performer,,0.7,0,2,1191.8525,0,0,0,0,1,0,,,,
,60cee4ec871f36088fe20ff3,001,2022-04-28_21h14.34.989,classification_task,2021.2.3,Win32,59.59475566,60cee4ec871f36088fe20ff3,626b377229c10585ec392f8a,626b3aee1572b75a9656e7d9,,,,,,,,,,,,,,,,,,,,,,,,,,,,,,,,,,,,,,,,,,,,,,,,,,,,,I trust the aid,,0.7,0,2,1192.7388,0,0,0,0,1,0,,,,
,60cee4ec871f36088fe20ff3,001,2022-04-28_21h14.34.989,classification_task,2021.2.3,Win32,59.59475566,60cee4ec871f36088fe20ff3,626b377229c10585ec392f8a,626b3aee1572b75a9656e7d9,,,,,,,,,,,,,,,,,,,,,,,,,,,,,,,,,,,,,,,,,,,,,,,,,,,,,I have confidence in the advice given by the aid,,0.7,0,1,1195.2459,0,0,0,0,1,0,,,,
,60cee4ec871f36088fe20ff3,001,2022-04-28_21h14.34.989,classification_task,2021.2.3,Win32,59.59475566,60cee4ec871f36088fe20ff3,626b377229c10585ec392f8a,626b3aee1572b75a9656e7d9,,,,,,,,,,,,,,,,,,,,,,,,,,,,,,,,,,,,,,,,,,,,,,,,,,,,,I can depend on the aid,,0.7,0,2,1196.4691,0,0,0,0,1,0,,,,
,60cee4ec871f36088fe20ff3,001,2022-04-28_21h14.34.989,classification_task,2021.2.3,Win32,59.59475566,60cee4ec871f36088fe20ff3,626b377229c10585ec392f8a,626b3aee1572b75a9656e7d9,,,,,,,,,,,,,,,,,,,,,,,,,,,,,,,,,,,,,,,,,,,,,,,,,,,,,I can rely on the aid to behave in consistent ways,,0.7,0,2,1198.9921,0,0,0,0,1,0,,,,
,60cee4ec871f36088fe20ff3,001,2022-04-28_21h14.34.989,classification_task,2021.2.3,Win32,59.59475566,60cee4ec871f36088fe20ff3,626b377229c10585ec392f8a,626b3aee1572b75a9656e7d9,,,,,,,,,,,,,,,,,,,,,,,,,,,,,,,,,,,,,,,,,,,,,,,,,,,,,I can rely on the aid to do its best every time I take its advice,,0.7,0,2,1202.0803,0,0,0,0,1,0,,,,
,60cee4ec871f36088fe20ff3,001,2022-04-28_21h14.34.989,classification_task,2021.2.3,Win32,59.59475566,60cee4ec871f36088fe20ff3,626b377229c10585ec392f8a,626b3aee1572b75a9656e7d9,,,,,,,,,,,,,,,,,,,,,,,,,,,,,,,,,,,,,,,,,,,,,,,,,,,,,"On trials you completed with assistance from the aid, how frequently did you think the aid was correct?",,0.7,0,50%,,0,0,0,0,1,0,,,,
,60cee4ec871f36088fe20ff3,001,2022-04-28_21h14.34.989,classification_task,2021.2.3,Win32,59.59475566,60cee4ec871f36088fe20ff3,626b377229c10585ec392f8a,626b3aee1572b75a9656e7d9,,,,,,,,,,,,,,,,,,,,,,,,,,,,,,,,,,,,,,,,,,,,,,,,,,,,,"On trials you completed without the aid, how frequently did you think you were correct?",,0.7,0,50%,,0,0,0,0,1,0,,,,
,60cee4ec871f36088fe20ff3,001,2022-04-28_21h14.34.989,classification_task,2021.2.3,Win32,59.59475566,60cee4ec871f36088fe20ff3,626b377229c10585ec392f8a,626b3aee1572b75a9656e7d9,,,,,,,,,,,,,,,,,,,,,,,,,,,,,,,,,,,,,,,,,,,,,,,,,,,,,,,,,,,0,0,0,0,1,,,,,
,60cee4ec871f36088fe20ff3,001,2022-04-28_21h14.34.989,classification_task,2021.2.3,Win32,59.59475566,60cee4ec871f36088fe20ff3,626b377229c10585ec392f8a,626b3aee1572b75a9656e7d9,,,,,,,,,,,,,,,,,,,,,,,,,,,,,,,,,,,,,,,,,,,,,,,,,,,,,,,,,,,,,,,,,space,12.0278,1230.9197,
,60cee4ec871f36088fe20ff3,001,2022-04-28_21h14.34.989,classification_task,2021.2.3,Win32,59.59475566,60cee4ec871f36088fe20ff3,626b377229c10585ec392f8a,626b3aee1572b75a9656e7d9,,,,,,,,,,,,,,,,,,,,,,,,,,,,,,,,,,,,,,,,,,,,,,,,,,,,,,,,,,,,,,,,,,,,"Mozilla/5.0 (Windows NT 10.0; Win64; x64) AppleWebKit/537.36 (KHTML, like Gecko) Chrome/100.0.4896.127 Safari/537.36"
