usingWebGL,participant,session,date,expName,psychopyVersion,OS,frameRate,study_id,signatures_friend,signatures_foe,band_ranges_top,band_ranges_bottom,formitemText,formtype,formundefined,formitemWidth,formindex,formresponse,formrt,key_resp_2.keys,key_resp_2.rt,tute_resp.keys,tute_resp.rt,tutorial.thisRepN,tutorial.thisTrialN,tutorial.thisN,tutorial.thisIndex,tutorial.ran,key_resp_4.keys,key_resp_4.rt,key_resp.keys,key_resp.corr,lines_presented,is_signal_presented,trials.thisRepN,trials.thisTrialN,trials.thisN,trials.thisIndex,trials.ran,vessel,active_band,lines,is_signal,supported_pos,catch_trial,key_resp.rt,debrief_formindex,debrief_formitemText,debrief_formtype,debrief_formitemWidth,debrief_formresponse,debrief_formrt,phases.thisRepN,phases.thisTrialN,phases.thisN,phases.thisIndex,phases.ran,phases.order,phase,key_resp_3.keys,trustitemText,trusttype,trustitemWidth,trustindex,trustresponse,trustrt,support_status.thisRepN,support_status.thisTrialN,support_status.thisN,support_status.thisIndex,support_status.ran,support_status.order,key_resp_5.keys,key_resp_5.rt,globalClockTime,userAgent,manualCondition
TRUE,60d0c85826ef72e1f37e5fda,627c69671a2989b4ffc15cba,2022-05-11_20h56.57.793,classification_task,2021.2.3,Win32,143.000143,627c6715c52fd12f31907bcf,,,,,,,,,,,,,,,,,,,,,,,,,,,,,,,,,,,,,,,,,,,,,,,,,,,,,,,,,,,,,,,,,,,,,
,60d0c85826ef72e1f37e5fda,627c69671a2989b4ffc15cba,2022-05-11_20h56.57.793,classification_task,2021.2.3,Win32,143.000143,627c6715c52fd12f31907bcf,"[[""0.211"",""0.498"",""0.598"",""0.891""],[""0.308"",""0.408"",""0.781"",""0.966""]]","[[""0.041"",""0.260"",""0.446"",""0.823""],[""0.093"",""0.153"",""0.549"",""0.734""]]","[1,10]","[100,1000]",Video game experience,,,0.7,0,,,,,,,,,,,,,,,,,,,,,,,,,,,,,,,,,,,,,,,,,,,,,,,,,,,,,,,,,,,,
,60d0c85826ef72e1f37e5fda,627c69671a2989b4ffc15cba,2022-05-11_20h56.57.793,classification_task,2021.2.3,Win32,143.000143,627c6715c52fd12f31907bcf,,,,,Approximately how many hours did you spend playing video games in the last week?,,,0.7,0,40,,,,,,,,,,,,,,,,,,,,,,,,,,,,,,,,,,,,,,,,,,,,,,,,,,,,,,,,,,,
,60d0c85826ef72e1f37e5fda,627c69671a2989b4ffc15cba,2022-05-11_20h56.57.793,classification_task,2021.2.3,Win32,143.000143,627c6715c52fd12f31907bcf,,,,,"Which game did you play the most this year? (Enter ""None"" if you didn't play any)",,,0.7,0,stardew valley,,,,,,,,,,,,,,,,,,,,,,,,,,,,,,,,,,,,,,,,,,,,,,,,,,,,,,,,,,,
,60d0c85826ef72e1f37e5fda,627c69671a2989b4ffc15cba,2022-05-11_20h56.57.793,classification_task,2021.2.3,Win32,143.000143,627c6715c52fd12f31907bcf,,,,,Visual perception,,,0.7,0,,,,,,,,,,,,,,,,,,,,,,,,,,,,,,,,,,,,,,,,,,,,,,,,,,,,,,,,,,,,
,60d0c85826ef72e1f37e5fda,627c69671a2989b4ffc15cba,2022-05-11_20h56.57.793,classification_task,2021.2.3,Win32,143.000143,627c6715c52fd12f31907bcf,,,,,Do you have any form of color blindness?,,,0.7,0,No,17.4067,,,,,,,,,,,,,,,,,,,,,,,,,,,,,,,,,,,,,,,,,,,,,,,,,,,,,,,,,,
,60d0c85826ef72e1f37e5fda,627c69671a2989b4ffc15cba,2022-05-11_20h56.57.793,classification_task,2021.2.3,Win32,143.000143,627c6715c52fd12f31907bcf,,,,,Do you use software to change the colour temperature of your screen (e.g. f.lux)?,,,0.7,0,No,19.4174,,,,,,,,,,,,,,,,,,,,,,,,,,,,,,,,,,,,,,,,,,,,,,,,,,,,,,,,,,
,60d0c85826ef72e1f37e5fda,627c69671a2989b4ffc15cba,2022-05-11_20h56.57.793,classification_task,2021.2.3,Win32,143.000143,627c6715c52fd12f31907bcf,,,,,,,,,,,,space,26.3877,space,4.9449,0,0,0,0,1,,,,,,,,,,,,,,,,,,,,,,,,,,,,,,,,,,,,,,,,,,,,,,,,,
,60d0c85826ef72e1f37e5fda,627c69671a2989b4ffc15cba,2022-05-11_20h56.57.793,classification_task,2021.2.3,Win32,143.000143,627c6715c52fd12f31907bcf,,,,,,,,,,,,,,space,7.5129,1,0,1,0,1,,,,,,,,,,,,,,,,,,,,,,,,,,,,,,,,,,,,,,,,,,,,,,,,,
,60d0c85826ef72e1f37e5fda,627c69671a2989b4ffc15cba,2022-05-11_20h56.57.793,classification_task,2021.2.3,Win32,143.000143,627c6715c52fd12f31907bcf,,,,,,,,,,,,,,space,27.6529,2,0,2,0,1,,,,,,,,,,,,,,,,,,,,,,,,,,,,,,,,,,,,,,,,,,,,,,,,,
,60d0c85826ef72e1f37e5fda,627c69671a2989b4ffc15cba,2022-05-11_20h56.57.793,classification_task,2021.2.3,Win32,143.000143,627c6715c52fd12f31907bcf,,,,,,,,,,,,,,space,4.7014,3,0,3,0,1,,,,,,,,,,,,,,,,,,,,,,,,,,,,,,,,,,,,,,,,,,,,,,,,,
,60d0c85826ef72e1f37e5fda,627c69671a2989b4ffc15cba,2022-05-11_20h56.57.793,classification_task,2021.2.3,Win32,143.000143,627c6715c52fd12f31907bcf,,,,,,,,,,,,,,space,17.4647,4,0,4,0,1,,,,,,,,,,,,,,,,,,,,,,,,,,,,,,,,,,,,,,,,,,,,,,,,,
,60d0c85826ef72e1f37e5fda,627c69671a2989b4ffc15cba,2022-05-11_20h56.57.793,classification_task,2021.2.3,Win32,143.000143,627c6715c52fd12f31907bcf,,,,,,,,,,,,,,,,,,,,,space,14.1096,,0,"[""0.342"",""0.498"",""0.598"",""0.891""]","[0,1,1,1]",0,0,0,0,1,0,0,,,1,FALSE,,,,,,,,,,,,,,,,,,,,,,,,,,,,,,,,
,60d0c85826ef72e1f37e5fda,627c69671a2989b4ffc15cba,2022-05-11_20h56.57.793,classification_task,2021.2.3,Win32,143.000143,627c6715c52fd12f31907bcf,,,,,,,,,,,,,,,,,,,,,,,l,0,"[""0.308"",""0.408"",""0.781"",""0.355""]","[1,1,1,0]",0,1,1,1,1,0,1,,,1,FALSE,8.1008,,,,,,,,,,,,,,,,,,,,,,,,,,,,,,,
,60d0c85826ef72e1f37e5fda,627c69671a2989b4ffc15cba,2022-05-11_20h56.57.793,classification_task,2021.2.3,Win32,143.000143,627c6715c52fd12f31907bcf,,,,,,,,,,,,,,,,,,,,,,,a,1,"[""0.650"",""0.408"",""0.781"",""0.966""]","[0,1,1,1]",0,2,2,2,1,0,1,,,1,FALSE,9.6828,,,,,,,,,,,,,,,,,,,,,,,,,,,,,,,
,60d0c85826ef72e1f37e5fda,627c69671a2989b4ffc15cba,2022-05-11_20h56.57.793,classification_task,2021.2.3,Win32,143.000143,627c6715c52fd12f31907bcf,,,,,,,,,,,,,,,,,,,,,,,l,1,"[""0.041"",""0.260"",""0.698"",""0.823""]","[1,1,0,1]",0,3,3,3,1,1,0,,,1,FALSE,9.6702,,,,,,,,,,,,,,,,,,,,,,,,,,,,,,,
,60d0c85826ef72e1f37e5fda,627c69671a2989b4ffc15cba,2022-05-11_20h56.57.793,classification_task,2021.2.3,Win32,143.000143,627c6715c52fd12f31907bcf,,,,,,,,,,,,,,,,,,,,,,,l,1,"[""0.093"",""0.153"",""0.698"",""0.734""]","[1,1,0,1]",0,4,4,4,1,1,1,,,1,FALSE,5.5832,,,,,,,,,,,,,,,,,,,,,,,,,,,,,,,
,60d0c85826ef72e1f37e5fda,627c69671a2989b4ffc15cba,2022-05-11_20h56.57.793,classification_task,2021.2.3,Win32,143.000143,627c6715c52fd12f31907bcf,,,,,,,,,,,,,,,,,,,,,,,l,1,"[""0.093"",""0.641"",""0.549"",""0.734""]","[1,0,1,1]",0,5,5,5,1,1,1,,,1,FALSE,2.2863,,,,,,,,,,,,,,,,,,,,,,,,,,,,,,,
,60d0c85826ef72e1f37e5fda,627c69671a2989b4ffc15cba,2022-05-11_20h56.57.793,classification_task,2021.2.3,Win32,143.000143,627c6715c52fd12f31907bcf,,,,,,,,,,,,,,,,,,,,,,,a,1,"[""0.308"",""0.408"",""0.366"",""0.966""]","[1,1,0,1]",0,6,6,6,1,0,1,,,1,FALSE,2.5556,,,,,,,,,,,,,,,,,,,,,,,,,,,,,,,
,60d0c85826ef72e1f37e5fda,627c69671a2989b4ffc15cba,2022-05-11_20h56.57.793,classification_task,2021.2.3,Win32,143.000143,627c6715c52fd12f31907bcf,,,,,,,,,,,,,,,,,,,,,,,l,1,"[""0.041"",""0.342"",""0.446"",""0.823""]","[1,0,1,1]",0,7,7,7,1,1,0,,,1,FALSE,3.1246,,,,,,,,,,,,,,,,,,,,,,,,,,,,,,,
,60d0c85826ef72e1f37e5fda,627c69671a2989b4ffc15cba,2022-05-11_20h56.57.793,classification_task,2021.2.3,Win32,143.000143,627c6715c52fd12f31907bcf,,,,,,,,,,,,,,,,,,,,,,,l,1,"[""0.675"",""0.153"",""0.549"",""0.734""]","[0,1,1,1]",0,8,8,8,1,1,1,,,1,FALSE,8.107,,,,,,,,,,,,,,,,,,,,,,,,,,,,,,,
,60d0c85826ef72e1f37e5fda,627c69671a2989b4ffc15cba,2022-05-11_20h56.57.793,classification_task,2021.2.3,Win32,143.000143,627c6715c52fd12f31907bcf,,,,,,,,,,,,,,,,,,,,,,,l,1,"[""0.041"",""0.260"",""0.446"",""0.857""]","[1,1,1,0]",0,9,9,9,1,1,0,,,1,FALSE,3.294,,,,,,,,,,,,,,,,,,,,,,,,,,,,,,,
,60d0c85826ef72e1f37e5fda,627c69671a2989b4ffc15cba,2022-05-11_20h56.57.793,classification_task,2021.2.3,Win32,143.000143,627c6715c52fd12f31907bcf,,,,,,,,,,,,,,,,,,,,,,,a,1,"[""0.211"",""0.498"",""0.598"",""0.651""]","[1,1,1,0]",0,10,10,10,1,0,0,,,1,FALSE,3.9567,,,,,,,,,,,,,,,,,,,,,,,,,,,,,,,
,60d0c85826ef72e1f37e5fda,627c69671a2989b4ffc15cba,2022-05-11_20h56.57.793,classification_task,2021.2.3,Win32,143.000143,627c6715c52fd12f31907bcf,,,,,,,,,,,,,,,,,,,,,,,a,1,"[""0.211"",""0.498"",""0.680"",""0.891""]","[1,1,0,1]",0,11,11,11,1,0,0,,,1,FALSE,4.2481,,,,,,,,,,,,,,,,,,,,,,,,,,,,,,,
,60d0c85826ef72e1f37e5fda,627c69671a2989b4ffc15cba,2022-05-11_20h56.57.793,classification_task,2021.2.3,Win32,143.000143,627c6715c52fd12f31907bcf,,,,,,,,,,,,,,,,,,,,,,,a,1,"[""0.211"",""0.364"",""0.598"",""0.891""]","[1,0,1,1]",0,12,12,12,1,0,0,,,1,FALSE,1.221,,,,,,,,,,,,,,,,,,,,,,,,,,,,,,,
,60d0c85826ef72e1f37e5fda,627c69671a2989b4ffc15cba,2022-05-11_20h56.57.793,classification_task,2021.2.3,Win32,143.000143,627c6715c52fd12f31907bcf,,,,,,,,,,,,,,,,,,,,,,,l,1,"[""0.641"",""0.260"",""0.446"",""0.823""]","[0,1,1,1]",0,13,13,13,1,1,0,,,1,FALSE,2.8478,,,,,,,,,,,,,,,,,,,,,,,,,,,,,,,
,60d0c85826ef72e1f37e5fda,627c69671a2989b4ffc15cba,2022-05-11_20h56.57.793,classification_task,2021.2.3,Win32,143.000143,627c6715c52fd12f31907bcf,,,,,,,,,,,,,,,,,,,,,,,l,1,"[""0.093"",""0.153"",""0.549"",""0.698""]","[1,1,1,0]",0,14,14,14,1,1,1,,,1,FALSE,4.2038,,,,,,,,,,,,,,,,,,,,,,,,,,,,,,,
,60d0c85826ef72e1f37e5fda,627c69671a2989b4ffc15cba,2022-05-11_20h56.57.793,classification_task,2021.2.3,Win32,143.000143,627c6715c52fd12f31907bcf,,,,,,,,,,,,,,,,,,,,,,,a,1,"[""0.308"",""0.675"",""0.781"",""0.966""]","[1,0,1,1]",0,15,15,15,1,0,1,,,1,FALSE,1.8875,,,,,,,,,,,,,,,,,,,,,,,,,,,,,,,
,60d0c85826ef72e1f37e5fda,627c69671a2989b4ffc15cba,2022-05-11_20h56.57.793,classification_task,2021.2.3,Win32,143.000143,627c6715c52fd12f31907bcf,,,,,,,,,,,,,,,,,,,,,,,l,1,"[""0.093"",""0.342"",""0.549"",""0.734""]","[1,0,1,1]",0,16,16,16,1,1,1,,,1,FALSE,2.1574,,,,,,,,,,,,,,,,,,,,,,,,,,,,,,,
,60d0c85826ef72e1f37e5fda,627c69671a2989b4ffc15cba,2022-05-11_20h56.57.793,classification_task,2021.2.3,Win32,143.000143,627c6715c52fd12f31907bcf,,,,,,,,,,,,,,,,,,,,,,,l,1,"[""0.041"",""0.260"",""0.446"",""0.349""]","[1,1,1,0]",0,17,17,17,1,1,0,,,1,FALSE,4.2506,,,,,,,,,,,,,,,,,,,,,,,,,,,,,,,
,60d0c85826ef72e1f37e5fda,627c69671a2989b4ffc15cba,2022-05-11_20h56.57.793,classification_task,2021.2.3,Win32,143.000143,627c6715c52fd12f31907bcf,,,,,,,,,,,,,,,,,,,,,,,l,1,"[""0.041"",""0.260"",""0.857"",""0.823""]","[1,1,0,1]",0,18,18,18,1,1,0,,,1,FALSE,2.4364,,,,,,,,,,,,,,,,,,,,,,,,,,,,,,,
,60d0c85826ef72e1f37e5fda,627c69671a2989b4ffc15cba,2022-05-11_20h56.57.793,classification_task,2021.2.3,Win32,143.000143,627c6715c52fd12f31907bcf,,,,,,,,,,,,,,,,,,,,,,,a,1,"[""0.350"",""0.408"",""0.781"",""0.966""]","[0,1,1,1]",0,19,19,19,1,0,1,,,1,FALSE,8.8226,,,,,,,,,,,,,,,,,,,,,,,,,,,,,,,
,60d0c85826ef72e1f37e5fda,627c69671a2989b4ffc15cba,2022-05-11_20h56.57.793,classification_task,2021.2.3,Win32,143.000143,627c6715c52fd12f31907bcf,,,,,,,,,,,,,,,,,,,,,,,l,1,"[""0.342"",""0.153"",""0.549"",""0.734""]","[0,1,1,1]",0,20,20,20,1,1,1,,,1,FALSE,8.4503,,,,,,,,,,,,,,,,,,,,,,,,,,,,,,,
,60d0c85826ef72e1f37e5fda,627c69671a2989b4ffc15cba,2022-05-11_20h56.57.793,classification_task,2021.2.3,Win32,143.000143,627c6715c52fd12f31907bcf,,,,,,,,,,,,,,,,,,,,,,,l,1,"[""0.651"",""0.260"",""0.446"",""0.823""]","[0,1,1,1]",0,21,21,21,1,1,0,,,1,FALSE,9.1335,,,,,,,,,,,,,,,,,,,,,,,,,,,,,,,
,60d0c85826ef72e1f37e5fda,627c69671a2989b4ffc15cba,2022-05-11_20h56.57.793,classification_task,2021.2.3,Win32,143.000143,627c6715c52fd12f31907bcf,,,,,,,,,,,,,,,,,,,,,,,a,1,"[""0.308"",""0.408"",""0.781"",""0.698""]","[1,1,1,0]",0,22,22,22,1,0,1,,,1,FALSE,2.3061,,,,,,,,,,,,,,,,,,,,,,,,,,,,,,,
,60d0c85826ef72e1f37e5fda,627c69671a2989b4ffc15cba,2022-05-11_20h56.57.793,classification_task,2021.2.3,Win32,143.000143,627c6715c52fd12f31907bcf,,,,,,,,,,,,,,,,,,,,,,,a,1,"[""0.211"",""0.498"",""0.598"",""0.684""]","[1,1,1,0]",0,23,23,23,1,0,0,,,1,FALSE,1.4009,,,,,,,,,,,,,,,,,,,,,,,,,,,,,,,
,60d0c85826ef72e1f37e5fda,627c69671a2989b4ffc15cba,2022-05-11_20h56.57.793,classification_task,2021.2.3,Win32,143.000143,627c6715c52fd12f31907bcf,,,,,,,,,,,,,,,,,,,,,,,l,1,"[""0.041"",""0.355"",""0.446"",""0.823""]","[1,0,1,1]",0,24,24,24,1,1,0,,,1,FALSE,2.6349,,,,,,,,,,,,,,,,,,,,,,,,,,,,,,,
,60d0c85826ef72e1f37e5fda,627c69671a2989b4ffc15cba,2022-05-11_20h56.57.793,classification_task,2021.2.3,Win32,143.000143,627c6715c52fd12f31907bcf,,,,,,,,,,,,,,,,,,,,,,,a,1,"[""0.211"",""0.684"",""0.598"",""0.891""]","[1,0,1,1]",0,25,25,25,1,0,0,,,1,FALSE,1.5822,,,,,,,,,,,,,,,,,,,,,,,,,,,,,,,
,60d0c85826ef72e1f37e5fda,627c69671a2989b4ffc15cba,2022-05-11_20h56.57.793,classification_task,2021.2.3,Win32,143.000143,627c6715c52fd12f31907bcf,,,,,,,,,,,,,,,,,,,,,,,l,1,"[""0.093"",""0.153"",""0.549"",""0.349""]","[1,1,1,0]",0,26,26,26,1,1,1,,,1,FALSE,4.6779,,,,,,,,,,,,,,,,,,,,,,,,,,,,,,,
,60d0c85826ef72e1f37e5fda,627c69671a2989b4ffc15cba,2022-05-11_20h56.57.793,classification_task,2021.2.3,Win32,143.000143,627c6715c52fd12f31907bcf,,,,,,,,,,,,,,,,,,,,,,,a,1,"[""0.675"",""0.498"",""0.598"",""0.891""]","[0,1,1,1]",0,27,27,27,1,0,0,,,1,FALSE,3.5486,,,,,,,,,,,,,,,,,,,,,,,,,,,,,,,
,60d0c85826ef72e1f37e5fda,627c69671a2989b4ffc15cba,2022-05-11_20h56.57.793,classification_task,2021.2.3,Win32,143.000143,627c6715c52fd12f31907bcf,,,,,,,,,,,,,,,,,,,,,,,l,1,"[""0.093"",""0.153"",""0.857"",""0.734""]","[1,1,0,1]",0,28,28,28,1,1,1,,,1,FALSE,2.7769,,,,,,,,,,,,,,,,,,,,,,,,,,,,,,,
,60d0c85826ef72e1f37e5fda,627c69671a2989b4ffc15cba,2022-05-11_20h56.57.793,classification_task,2021.2.3,Win32,143.000143,627c6715c52fd12f31907bcf,,,,,,,,,,,,,,,,,,,,,,,a,1,"[""0.211"",""0.498"",""0.349"",""0.891""]","[1,1,0,1]",0,29,29,29,1,0,0,,,1,FALSE,1.8882,,,,,,,,,,,,,,,,,,,,,,,,,,,,,,,
,60d0c85826ef72e1f37e5fda,627c69671a2989b4ffc15cba,2022-05-11_20h56.57.793,classification_task,2021.2.3,Win32,143.000143,627c6715c52fd12f31907bcf,,,,,,,,,,,,,,,,,,,,,,,a,1,"[""0.308"",""0.857"",""0.781"",""0.966""]","[1,0,1,1]",0,30,30,30,1,0,1,,,1,FALSE,1.5452,,,,,,,,,,,,,,,,,,,,,,,,,,,,,,,
,60d0c85826ef72e1f37e5fda,627c69671a2989b4ffc15cba,2022-05-11_20h56.57.793,classification_task,2021.2.3,Win32,143.000143,627c6715c52fd12f31907bcf,,,,,,,,,,,,,,,,,,,,,,,a,1,"[""0.308"",""0.408"",""0.651"",""0.966""]","[1,1,0,1]",0,31,31,31,1,0,1,,,1,FALSE,1.2915,,,,,,,,,,,,,,,,,,,,,,,,,,,,,,,
,60d0c85826ef72e1f37e5fda,627c69671a2989b4ffc15cba,2022-05-11_20h56.57.793,classification_task,2021.2.3,Win32,143.000143,627c6715c52fd12f31907bcf,,,,,,,,,,,,,,,,,,,,,,,a,0,"[""0.093"",""0.350"",""0.549"",""0.734""]","[1,0,1,1]",0,32,32,32,1,1,1,,,1,FALSE,4.1704,,,,,,,,,,,,,,,,,,,,,,,,,,,,,,,
,60d0c85826ef72e1f37e5fda,627c69671a2989b4ffc15cba,2022-05-11_20h56.57.793,classification_task,2021.2.3,Win32,143.000143,627c6715c52fd12f31907bcf,,,,,,,,,,,,,,,,,,,,,,,a,1,"[""0.698"",""0.408"",""0.781"",""0.966""]","[0,1,1,1]",0,33,33,33,1,0,1,,,1,FALSE,4.306,,,,,,,,,,,,,,,,,,,,,,,,,,,,,,,
,60d0c85826ef72e1f37e5fda,627c69671a2989b4ffc15cba,2022-05-11_20h56.57.793,classification_task,2021.2.3,Win32,143.000143,627c6715c52fd12f31907bcf,,,,,,,,,,,,,,,,,,,,,,,l,0,"[""0.308"",""0.408"",""0.781"",""0.650""]","[1,1,1,0]",0,34,34,34,1,0,1,,,1,FALSE,1.0269,,,,,,,,,,,,,,,,,,,,,,,,,,,,,,,
,60d0c85826ef72e1f37e5fda,627c69671a2989b4ffc15cba,2022-05-11_20h56.57.793,classification_task,2021.2.3,Win32,143.000143,627c6715c52fd12f31907bcf,,,,,,,,,,,,,,,,,,,,,,,a,0,"[""0.041"",""0.260"",""0.364"",""0.823""]","[1,1,0,1]",0,35,35,35,1,1,0,,,1,FALSE,5.4165,,,,,,,,,,,,,,,,,,,,,,,,,,,,,,,
,60d0c85826ef72e1f37e5fda,627c69671a2989b4ffc15cba,2022-05-11_20h56.57.793,classification_task,2021.2.3,Win32,143.000143,627c6715c52fd12f31907bcf,,,,,,,,,,,,,,,,,,,,,,,l,1,"[""0.041"",""0.350"",""0.446"",""0.823""]","[1,0,1,1]",0,36,36,36,1,1,0,,,1,FALSE,6.5775,,,,,,,,,,,,,,,,,,,,,,,,,,,,,,,
,60d0c85826ef72e1f37e5fda,627c69671a2989b4ffc15cba,2022-05-11_20h56.57.793,classification_task,2021.2.3,Win32,143.000143,627c6715c52fd12f31907bcf,,,,,,,,,,,,,,,,,,,,,,,a,0,"[""0.041"",""0.260"",""0.446"",""0.349""]","[1,1,1,0]",0,37,37,37,1,1,0,,,1,FALSE,1.7709,,,,,,,,,,,,,,,,,,,,,,,,,,,,,,,
,60d0c85826ef72e1f37e5fda,627c69671a2989b4ffc15cba,2022-05-11_20h56.57.793,classification_task,2021.2.3,Win32,143.000143,627c6715c52fd12f31907bcf,,,,,,,,,,,,,,,,,,,,,,,l,0,"[""0.211"",""0.498"",""0.598"",""0.857""]","[1,1,1,0]",0,38,38,38,1,0,0,,,1,FALSE,1.2642,,,,,,,,,,,,,,,,,,,,,,,,,,,,,,,
,60d0c85826ef72e1f37e5fda,627c69671a2989b4ffc15cba,2022-05-11_20h56.57.793,classification_task,2021.2.3,Win32,143.000143,627c6715c52fd12f31907bcf,,,,,,,,,,,,,,,,,,,,,,,a,0,"[""0.349"",""0.153"",""0.549"",""0.734""]","[0,1,1,1]",0,39,39,39,1,1,1,,,1,FALSE,1.5941,,,,,,,,,,,,,,,,,,,,,,,,,,,,,,,
,60d0c85826ef72e1f37e5fda,627c69671a2989b4ffc15cba,2022-05-11_20h56.57.793,classification_task,2021.2.3,Win32,143.000143,627c6715c52fd12f31907bcf,,,,,,,,,,,,,,,,,,,,,,,l,0,"[""0.675"",""0.498"",""0.598"",""0.891""]","[0,1,1,1]",0,40,40,40,1,0,0,,,1,FALSE,0.9794,,,,,,,,,,,,,,,,,,,,,,,,,,,,,,,
,60d0c85826ef72e1f37e5fda,627c69671a2989b4ffc15cba,2022-05-11_20h56.57.793,classification_task,2021.2.3,Win32,143.000143,627c6715c52fd12f31907bcf,,,,,,,,,,,,,,,,,,,,,,,l,1,"[""0.093"",""0.153"",""0.549"",""0.355""]","[1,1,1,0]",0,41,41,41,1,1,1,,,1,FALSE,0.9787,,,,,,,,,,,,,,,,,,,,,,,,,,,,,,,
,60d0c85826ef72e1f37e5fda,627c69671a2989b4ffc15cba,2022-05-11_20h56.57.793,classification_task,2021.2.3,Win32,143.000143,627c6715c52fd12f31907bcf,,,,,,,,,,,,,,,,,,,,,,,a,0,"[""0.675"",""0.260"",""0.446"",""0.823""]","[0,1,1,1]",0,42,42,42,1,1,0,,,1,FALSE,0.4088,,,,,,,,,,,,,,,,,,,,,,,,,,,,,,,
,60d0c85826ef72e1f37e5fda,627c69671a2989b4ffc15cba,2022-05-11_20h56.57.793,classification_task,2021.2.3,Win32,143.000143,627c6715c52fd12f31907bcf,,,,,,,,,,,,,,,,,,,,,,,l,0,"[""0.211"",""0.349"",""0.598"",""0.891""]","[1,0,1,1]",0,43,43,43,1,0,0,,,1,FALSE,0.479,,,,,,,,,,,,,,,,,,,,,,,,,,,,,,,
,60d0c85826ef72e1f37e5fda,627c69671a2989b4ffc15cba,2022-05-11_20h56.57.793,classification_task,2021.2.3,Win32,143.000143,627c6715c52fd12f31907bcf,,,,,,,,,,,,,,,,,,,,,,,l,1,"[""0.093"",""0.153"",""0.350"",""0.734""]","[1,1,0,1]",0,44,44,44,1,1,1,,,1,FALSE,2.2563,,,,,,,,,,,,,,,,,,,,,,,,,,,,,,,
,60d0c85826ef72e1f37e5fda,627c69671a2989b4ffc15cba,2022-05-11_20h56.57.793,classification_task,2021.2.3,Win32,143.000143,627c6715c52fd12f31907bcf,,,,,,,,,,,,,,,,,,,,,,,a,1,"[""0.308"",""0.680"",""0.781"",""0.966""]","[1,0,1,1]",0,45,45,45,1,0,1,,,1,FALSE,1.1697,,,,,,,,,,,,,,,,,,,,,,,,,,,,,,,
,60d0c85826ef72e1f37e5fda,627c69671a2989b4ffc15cba,2022-05-11_20h56.57.793,classification_task,2021.2.3,Win32,143.000143,627c6715c52fd12f31907bcf,,,,,,,,,,,,,,,,,,,,,,,l,0,"[""0.308"",""0.408"",""0.364"",""0.966""]","[1,1,0,1]",0,46,46,46,1,0,1,,,1,FALSE,0.9654,,,,,,,,,,,,,,,,,,,,,,,,,,,,,,,
,60d0c85826ef72e1f37e5fda,627c69671a2989b4ffc15cba,2022-05-11_20h56.57.793,classification_task,2021.2.3,Win32,143.000143,627c6715c52fd12f31907bcf,,,,,,,,,,,,,,,,,,,,,,,l,0,"[""0.211"",""0.498"",""0.355"",""0.891""]","[1,1,0,1]",0,47,47,47,1,0,0,,,1,FALSE,0.8403,,,,,,,,,,,,,,,,,,,,,,,,,,,,,,,
,60d0c85826ef72e1f37e5fda,627c69671a2989b4ffc15cba,2022-05-11_20h56.57.793,classification_task,2021.2.3,Win32,143.000143,627c6715c52fd12f31907bcf,,,,,,,,,,,,,,,,,,,,,,,a,0,"[""0.041"",""0.700"",""0.446"",""0.823""]","[1,0,1,1]",0,48,48,48,1,1,0,,,1,FALSE,1.9118,,,,,,,,,,,,,,,,,,,,,,,,,,,,,,,
,60d0c85826ef72e1f37e5fda,627c69671a2989b4ffc15cba,2022-05-11_20h56.57.793,classification_task,2021.2.3,Win32,143.000143,627c6715c52fd12f31907bcf,,,,,,,,,,,,,,,,,,,,,,,l,1,"[""0.093"",""0.153"",""0.549"",""0.675""]","[1,1,1,0]",0,49,49,49,1,1,1,,,1,FALSE,2.8272,,,,,,,,,,,,,,,,,,,,,,,,,,,,,,,
,60d0c85826ef72e1f37e5fda,627c69671a2989b4ffc15cba,2022-05-11_20h56.57.793,classification_task,2021.2.3,Win32,143.000143,627c6715c52fd12f31907bcf,,,,,,,,,,,,,,,,,,,,,,,l,0,"[""0.308"",""0.408"",""0.781"",""0.650""]","[1,1,1,0]",0,50,50,50,1,0,1,,,1,FALSE,6.0588,,,,,,,,,,,,,,,,,,,,,,,,,,,,,,,
,60d0c85826ef72e1f37e5fda,627c69671a2989b4ffc15cba,2022-05-11_20h56.57.793,classification_task,2021.2.3,Win32,143.000143,627c6715c52fd12f31907bcf,,,,,,,,,,,,,,,,,,,,,,,l,1,"[""0.093"",""0.153"",""0.349"",""0.734""]","[1,1,0,1]",0,51,51,51,1,1,1,,,1,FALSE,5.173,,,,,,,,,,,,,,,,,,,,,,,,,,,,,,,
,60d0c85826ef72e1f37e5fda,627c69671a2989b4ffc15cba,2022-05-11_20h56.57.793,classification_task,2021.2.3,Win32,143.000143,627c6715c52fd12f31907bcf,,,,,,,,,,,,,,,,,,,,,,,a,1,"[""0.211"",""0.498"",""0.641"",""0.891""]","[1,1,0,1]",0,52,52,52,1,0,0,,,1,FALSE,1.2791,,,,,,,,,,,,,,,,,,,,,,,,,,,,,,,
,60d0c85826ef72e1f37e5fda,627c69671a2989b4ffc15cba,2022-05-11_20h56.57.793,classification_task,2021.2.3,Win32,143.000143,627c6715c52fd12f31907bcf,,,,,,,,,,,,,,,,,,,,,,,l,1,"[""0.041"",""0.260"",""0.446"",""0.680""]","[1,1,1,0]",0,53,53,53,1,1,0,,,1,FALSE,1.236,,,,,,,,,,,,,,,,,,,,,,,,,,,,,,,
,60d0c85826ef72e1f37e5fda,627c69671a2989b4ffc15cba,2022-05-11_20h56.57.793,classification_task,2021.2.3,Win32,143.000143,627c6715c52fd12f31907bcf,,,,,,,,,,,,,,,,,,,,,,,l,1,"[""0.041"",""0.260"",""0.641"",""0.823""]","[1,1,0,1]",0,54,54,54,1,1,0,,,1,FALSE,1.1771,,,,,,,,,,,,,,,,,,,,,,,,,,,,,,,
,60d0c85826ef72e1f37e5fda,627c69671a2989b4ffc15cba,2022-05-11_20h56.57.793,classification_task,2021.2.3,Win32,143.000143,627c6715c52fd12f31907bcf,,,,,,,,,,,,,,,,,,,,,,,a,0,"[""0.342"",""0.153"",""0.549"",""0.734""]","[0,1,1,1]",0,55,55,55,1,1,1,,,1,FALSE,0.667,,,,,,,,,,,,,,,,,,,,,,,,,,,,,,,
,60d0c85826ef72e1f37e5fda,627c69671a2989b4ffc15cba,2022-05-11_20h56.57.793,classification_task,2021.2.3,Win32,143.000143,627c6715c52fd12f31907bcf,,,,,,,,,,,,,,,,,,,,,,,l,0,"[""0.308"",""0.355"",""0.781"",""0.966""]","[1,0,1,1]",0,56,56,56,1,0,1,,,1,FALSE,0.548,,,,,,,,,,,,,,,,,,,,,,,,,,,,,,,
,60d0c85826ef72e1f37e5fda,627c69671a2989b4ffc15cba,2022-05-11_20h56.57.793,classification_task,2021.2.3,Win32,143.000143,627c6715c52fd12f31907bcf,,,,,,,,,,,,,,,,,,,,,,,a,0,"[""0.093"",""0.366"",""0.549"",""0.734""]","[1,0,1,1]",0,57,57,57,1,1,1,,,1,FALSE,0.5278,,,,,,,,,,,,,,,,,,,,,,,,,,,,,,,
,60d0c85826ef72e1f37e5fda,627c69671a2989b4ffc15cba,2022-05-11_20h56.57.793,classification_task,2021.2.3,Win32,143.000143,627c6715c52fd12f31907bcf,,,,,,,,,,,,,,,,,,,,,,,l,0,"[""0.211"",""0.342"",""0.598"",""0.891""]","[1,0,1,1]",0,58,58,58,1,0,0,,,1,FALSE,0.352,,,,,,,,,,,,,,,,,,,,,,,,,,,,,,,
,60d0c85826ef72e1f37e5fda,627c69671a2989b4ffc15cba,2022-05-11_20h56.57.793,classification_task,2021.2.3,Win32,143.000143,627c6715c52fd12f31907bcf,,,,,,,,,,,,,,,,,,,,,,,l,0,"[""0.211"",""0.498"",""0.598"",""0.698""]","[1,1,1,0]",0,59,59,59,1,0,0,,,1,FALSE,0.4034,,,,,,,,,,,,,,,,,,,,,,,,,,,,,,,
,60d0c85826ef72e1f37e5fda,627c69671a2989b4ffc15cba,2022-05-11_20h56.57.793,classification_task,2021.2.3,Win32,143.000143,627c6715c52fd12f31907bcf,,,,,,,,,,,,,,,,,,,,,,,a,0,"[""0.698"",""0.260"",""0.446"",""0.823""]","[0,1,1,1]",0,60,60,60,1,1,0,,,1,FALSE,0.4922,,,,,,,,,,,,,,,,,,,,,,,,,,,,,,,
,60d0c85826ef72e1f37e5fda,627c69671a2989b4ffc15cba,2022-05-11_20h56.57.793,classification_task,2021.2.3,Win32,143.000143,627c6715c52fd12f31907bcf,,,,,,,,,,,,,,,,,,,,,,,a,1,"[""0.350"",""0.498"",""0.598"",""0.891""]","[0,1,1,1]",0,61,61,61,1,0,0,,,1,FALSE,0.7992,,,,,,,,,,,,,,,,,,,,,,,,,,,,,,,
,60d0c85826ef72e1f37e5fda,627c69671a2989b4ffc15cba,2022-05-11_20h56.57.793,classification_task,2021.2.3,Win32,143.000143,627c6715c52fd12f31907bcf,,,,,,,,,,,,,,,,,,,,,,,a,1,"[""0.700"",""0.408"",""0.781"",""0.966""]","[0,1,1,1]",0,62,62,62,1,0,1,,,1,FALSE,1.1695,,,,,,,,,,,,,,,,,,,,,,,,,,,,,,,
,60d0c85826ef72e1f37e5fda,627c69671a2989b4ffc15cba,2022-05-11_20h56.57.793,classification_task,2021.2.3,Win32,143.000143,627c6715c52fd12f31907bcf,,,,,,,,,,,,,,,,,,,,,,,l,0,"[""0.308"",""0.408"",""0.364"",""0.966""]","[1,1,0,1]",0,63,63,63,1,0,1,,,1,FALSE,1.2999,,,,,,,,,,,,,,,,,,,,,,,,,,,,,,,
,60d0c85826ef72e1f37e5fda,627c69671a2989b4ffc15cba,2022-05-11_20h56.57.793,classification_task,2021.2.3,Win32,143.000143,627c6715c52fd12f31907bcf,,,,,,,,,,,,,,,,,,,,,,,,,,,,,,,,,,,,,,,0, ,,0,1.472663139,475.6846,0,0,0,0,1,2,1,,,,,,,,,,,,,,,,,,
,60d0c85826ef72e1f37e5fda,627c69671a2989b4ffc15cba,2022-05-11_20h56.57.793,classification_task,2021.2.3,Win32,143.000143,627c6715c52fd12f31907bcf,,,,,,,,,,,,,,,,,,,,,,,,,,,,,,,,,,,,,,,1,  ,,0,4.926513815,481.4966,0,0,0,0,1,2,1,,,,,,,,,,,,,,,,,,
,60d0c85826ef72e1f37e5fda,627c69671a2989b4ffc15cba,2022-05-11_20h56.57.793,classification_task,2021.2.3,Win32,143.000143,627c6715c52fd12f31907bcf,,,,,,,,,,,,,,,,,,,,,,,,,,,,,,,,,,,,,,,2,  ,,0,3.995688811,484.4186,0,0,0,0,1,2,1,,,,,,,,,,,,,,,,,,
,60d0c85826ef72e1f37e5fda,627c69671a2989b4ffc15cba,2022-05-11_20h56.57.793,classification_task,2021.2.3,Win32,143.000143,627c6715c52fd12f31907bcf,,,,,,,,,,,,,,,,,,,,,,,,,,,,,,,,,,,,,,,,,,,,,0,0,0,0,1,,1,,,,,,,,,,,,,,,,,,
,60d0c85826ef72e1f37e5fda,627c69671a2989b4ffc15cba,2022-05-11_20h56.57.793,classification_task,2021.2.3,Win32,143.000143,627c6715c52fd12f31907bcf,,,,,,,,,,,,,,,,,,,,,space,13.3388,,0,"[""0.041"",""0.260"",""0.446"",""0.698""]","[1,1,1,0]",0,0,0,0,1,1,0,,,1,FALSE,,,,,,,,,,,,,,,,,,,,,,,,,,,,,,,,
,60d0c85826ef72e1f37e5fda,627c69671a2989b4ffc15cba,2022-05-11_20h56.57.793,classification_task,2021.2.3,Win32,143.000143,627c6715c52fd12f31907bcf,,,,,,,,,,,,,,,,,,,,,,,l,0,"[""0.308"",""0.408"",""0.781"",""0.650""]","[1,1,1,0]",0,1,1,1,1,0,1,,,1,FALSE,1.8711,,,,,,,,,,,,,,,,,,,,,,,,,,,,,,,
,60d0c85826ef72e1f37e5fda,627c69671a2989b4ffc15cba,2022-05-11_20h56.57.793,classification_task,2021.2.3,Win32,143.000143,627c6715c52fd12f31907bcf,,,,,,,,,,,,,,,,,,,,,,,a,1,"[""0.211"",""0.498"",""0.598"",""0.349""]","[1,1,1,0]",0,2,2,2,1,0,0,,,1,FALSE,4.0375,,,,,,,,,,,,,,,,,,,,,,,,,,,,,,,
,60d0c85826ef72e1f37e5fda,627c69671a2989b4ffc15cba,2022-05-11_20h56.57.793,classification_task,2021.2.3,Win32,143.000143,627c6715c52fd12f31907bcf,,,,,,,,,,,,,,,,,,,,,,,l,1,"[""0.684"",""0.153"",""0.549"",""0.734""]","[0,1,1,1]",0,3,3,3,1,1,1,,,1,FALSE,0.7252,,,,,,,,,,,,,,,,,,,,,,,,,,,,,,,
,60d0c85826ef72e1f37e5fda,627c69671a2989b4ffc15cba,2022-05-11_20h56.57.793,classification_task,2021.2.3,Win32,143.000143,627c6715c52fd12f31907bcf,,,,,,,,,,,,,,,,,,,,,,,l,1,"[""0.041"",""0.700"",""0.446"",""0.823""]","[1,0,1,1]",0,4,4,4,1,1,0,,,1,FALSE,1.4932,,,,,,,,,,,,,,,,,,,,,,,,,,,,,,,
,60d0c85826ef72e1f37e5fda,627c69671a2989b4ffc15cba,2022-05-11_20h56.57.793,classification_task,2021.2.3,Win32,143.000143,627c6715c52fd12f31907bcf,,,,,,,,,,,,,,,,,,,,,,,a,0,"[""0.041"",""0.260"",""0.684"",""0.823""]","[1,1,0,1]",0,5,5,5,1,1,0,,,1,FALSE,1.1396,,,,,,,,,,,,,,,,,,,,,,,,,,,,,,,
,60d0c85826ef72e1f37e5fda,627c69671a2989b4ffc15cba,2022-05-11_20h56.57.793,classification_task,2021.2.3,Win32,143.000143,627c6715c52fd12f31907bcf,,,,,,,,,,,,,,,,,,,,,,,a,1,"[""0.308"",""0.684"",""0.781"",""0.966""]","[1,0,1,1]",0,6,6,6,1,0,1,,,1,FALSE,1.6054,,,,,,,,,,,,,,,,,,,,,,,,,,,,,,,
,60d0c85826ef72e1f37e5fda,627c69671a2989b4ffc15cba,2022-05-11_20h56.57.793,classification_task,2021.2.3,Win32,143.000143,627c6715c52fd12f31907bcf,,,,,,,,,,,,,,,,,,,,,,,a,1,"[""0.680"",""0.498"",""0.598"",""0.891""]","[0,1,1,1]",0,7,7,7,1,0,0,,,1,FALSE,1.8045,,,,,,,,,,,,,,,,,,,,,,,,,,,,,,,
,60d0c85826ef72e1f37e5fda,627c69671a2989b4ffc15cba,2022-05-11_20h56.57.793,classification_task,2021.2.3,Win32,143.000143,627c6715c52fd12f31907bcf,,,,,,,,,,,,,,,,,,,,,,,a,1,"[""0.211"",""0.498"",""0.350"",""0.891""]","[1,1,0,1]",0,8,8,8,1,0,0,,,1,FALSE,0.883,,,,,,,,,,,,,,,,,,,,,,,,,,,,,,,
,60d0c85826ef72e1f37e5fda,627c69671a2989b4ffc15cba,2022-05-11_20h56.57.793,classification_task,2021.2.3,Win32,143.000143,627c6715c52fd12f31907bcf,,,,,,,,,,,,,,,,,,,,,,,l,1,"[""0.093"",""0.650"",""0.549"",""0.734""]","[1,0,1,1]",0,9,9,9,1,1,1,,,1,FALSE,0.8158,,,,,,,,,,,,,,,,,,,,,,,,,,,,,,,
,60d0c85826ef72e1f37e5fda,627c69671a2989b4ffc15cba,2022-05-11_20h56.57.793,classification_task,2021.2.3,Win32,143.000143,627c6715c52fd12f31907bcf,,,,,,,,,,,,,,,,,,,,,,,a,1,"[""0.355"",""0.408"",""0.781"",""0.966""]","[0,1,1,1]",0,10,10,10,1,0,1,,,1,FALSE,0.6321,,,,,,,,,,,,,,,,,,,,,,,,,,,,,,,
,60d0c85826ef72e1f37e5fda,627c69671a2989b4ffc15cba,2022-05-11_20h56.57.793,classification_task,2021.2.3,Win32,143.000143,627c6715c52fd12f31907bcf,,,,,,,,,,,,,,,,,,,,,,,l,0,"[""0.308"",""0.408"",""0.641"",""0.966""]","[1,1,0,1]",0,11,11,11,1,0,1,,,1,FALSE,0.5455,,,,,,,,,,,,,,,,,,,,,,,,,,,,,,,
,60d0c85826ef72e1f37e5fda,627c69671a2989b4ffc15cba,2022-05-11_20h56.57.793,classification_task,2021.2.3,Win32,143.000143,627c6715c52fd12f31907bcf,,,,,,,,,,,,,,,,,,,,,,,l,1,"[""0.093"",""0.153"",""0.650"",""0.734""]","[1,1,0,1]",0,12,12,12,1,1,1,,,1,FALSE,0.4784,,,,,,,,,,,,,,,,,,,,,,,,,,,,,,,
,60d0c85826ef72e1f37e5fda,627c69671a2989b4ffc15cba,2022-05-11_20h56.57.793,classification_task,2021.2.3,Win32,143.000143,627c6715c52fd12f31907bcf,,,,,,,,,,,,,,,,,,,,,,,a,0,"[""0.355"",""0.260"",""0.446"",""0.823""]","[0,1,1,1]",0,13,13,13,1,1,0,,,1,FALSE,1.1493,,,,,,,,,,,,,,,,,,,,,,,,,,,,,,,
,60d0c85826ef72e1f37e5fda,627c69671a2989b4ffc15cba,2022-05-11_20h56.57.793,classification_task,2021.2.3,Win32,143.000143,627c6715c52fd12f31907bcf,,,,,,,,,,,,,,,,,,,,,,,a,1,"[""0.211"",""0.349"",""0.598"",""0.891""]","[1,0,1,1]",0,14,14,14,1,0,0,,,1,FALSE,0.8141,,,,,,,,,,,,,,,,,,,,,,,,,,,,,,,
,60d0c85826ef72e1f37e5fda,627c69671a2989b4ffc15cba,2022-05-11_20h56.57.793,classification_task,2021.2.3,Win32,143.000143,627c6715c52fd12f31907bcf,,,,,,,,,,,,,,,,,,,,,,,l,1,"[""0.093"",""0.153"",""0.549"",""0.651""]","[1,1,1,0]",0,15,15,15,1,1,1,,,1,FALSE,1.6732,,,,,,,,,,,,,,,,,,,,,,,,,,,,,,,
,60d0c85826ef72e1f37e5fda,627c69671a2989b4ffc15cba,2022-05-11_20h56.57.793,classification_task,2021.2.3,Win32,143.000143,627c6715c52fd12f31907bcf,,,,,,,,,,,,,,,,,,,,,,,a,0,"[""0.041"",""0.675"",""0.446"",""0.823""]","[1,0,1,1]",0,16,16,16,1,1,0,,,1,FALSE,1.4243,,,,,,,,,,,,,,,,,,,,,,,,,,,,,,,
,60d0c85826ef72e1f37e5fda,627c69671a2989b4ffc15cba,2022-05-11_20h56.57.793,classification_task,2021.2.3,Win32,143.000143,627c6715c52fd12f31907bcf,,,,,,,,,,,,,,,,,,,,,,,a,1,"[""0.211"",""0.498"",""0.598"",""0.366""]","[1,1,1,0]",0,17,17,17,1,0,0,,,1,FALSE,0.5719,,,,,,,,,,,,,,,,,,,,,,,,,,,,,,,
,60d0c85826ef72e1f37e5fda,627c69671a2989b4ffc15cba,2022-05-11_20h56.57.793,classification_task,2021.2.3,Win32,143.000143,627c6715c52fd12f31907bcf,,,,,,,,,,,,,,,,,,,,,,,a,0,"[""0.041"",""0.260"",""0.446"",""0.641""]","[1,1,1,0]",0,18,18,18,1,1,0,,,1,FALSE,0.4369,,,,,,,,,,,,,,,,,,,,,,,,,,,,,,,
,60d0c85826ef72e1f37e5fda,627c69671a2989b4ffc15cba,2022-05-11_20h56.57.793,classification_task,2021.2.3,Win32,143.000143,627c6715c52fd12f31907bcf,,,,,,,,,,,,,,,,,,,,,,,a,1,"[""0.364"",""0.408"",""0.781"",""0.966""]","[0,1,1,1]",0,19,19,19,1,0,1,,,1,FALSE,0.9401,,,,,,,,,,,,,,,,,,,,,,,,,,,,,,,
,60d0c85826ef72e1f37e5fda,627c69671a2989b4ffc15cba,2022-05-11_20h56.57.793,classification_task,2021.2.3,Win32,143.000143,627c6715c52fd12f31907bcf,,,,,,,,,,,,,,,,,,,,,,,l,1,"[""0.093"",""0.153"",""0.549"",""0.650""]","[1,1,1,0]",0,20,20,20,1,1,1,,,1,FALSE,0.8392,,,,,,,,,,,,,,,,,,,,,,,,,,,,,,,
,60d0c85826ef72e1f37e5fda,627c69671a2989b4ffc15cba,2022-05-11_20h56.57.793,classification_task,2021.2.3,Win32,143.000143,627c6715c52fd12f31907bcf,,,,,,,,,,,,,,,,,,,,,,,l,1,"[""0.093"",""0.153"",""0.675"",""0.734""]","[1,1,0,1]",0,21,21,21,1,1,1,,,1,FALSE,0.6109,,,,,,,,,,,,,,,,,,,,,,,,,,,,,,,
,60d0c85826ef72e1f37e5fda,627c69671a2989b4ffc15cba,2022-05-11_20h56.57.793,classification_task,2021.2.3,Win32,143.000143,627c6715c52fd12f31907bcf,,,,,,,,,,,,,,,,,,,,,,,l,0,"[""0.211"",""0.364"",""0.598"",""0.891""]","[1,0,1,1]",0,22,22,22,1,0,0,,,1,FALSE,1.1979,,,,,,,,,,,,,,,,,,,,,,,,,,,,,,,
,60d0c85826ef72e1f37e5fda,627c69671a2989b4ffc15cba,2022-05-11_20h56.57.793,classification_task,2021.2.3,Win32,143.000143,627c6715c52fd12f31907bcf,,,,,,,,,,,,,,,,,,,,,,,l,1,"[""0.093"",""0.857"",""0.549"",""0.734""]","[1,0,1,1]",0,23,23,23,1,1,1,,,1,FALSE,1.2109,,,,,,,,,,,,,,,,,,,,,,,,,,,,,,,
,60d0c85826ef72e1f37e5fda,627c69671a2989b4ffc15cba,2022-05-11_20h56.57.793,classification_task,2021.2.3,Win32,143.000143,627c6715c52fd12f31907bcf,,,,,,,,,,,,,,,,,,,,,,,l,1,"[""0.684"",""0.153"",""0.549"",""0.734""]","[0,1,1,1]",0,24,24,24,1,1,1,,,1,FALSE,0.9113,,,,,,,,,,,,,,,,,,,,,,,,,,,,,,,
,60d0c85826ef72e1f37e5fda,627c69671a2989b4ffc15cba,2022-05-11_20h56.57.793,classification_task,2021.2.3,Win32,143.000143,627c6715c52fd12f31907bcf,,,,,,,,,,,,,,,,,,,,,,,a,1,"[""0.308"",""0.408"",""0.650"",""0.966""]","[1,1,0,1]",0,25,25,25,1,0,1,,,1,FALSE,0.6273,,,,,,,,,,,,,,,,,,,,,,,,,,,,,,,
,60d0c85826ef72e1f37e5fda,627c69671a2989b4ffc15cba,2022-05-11_20h56.57.793,classification_task,2021.2.3,Win32,143.000143,627c6715c52fd12f31907bcf,,,,,,,,,,,,,,,,,,,,,,,a,1,"[""0.698"",""0.498"",""0.598"",""0.891""]","[0,1,1,1]",0,26,26,26,1,0,0,,,1,FALSE,2.2738,,,,,,,,,,,,,,,,,,,,,,,,,,,,,,,
,60d0c85826ef72e1f37e5fda,627c69671a2989b4ffc15cba,2022-05-11_20h56.57.793,classification_task,2021.2.3,Win32,143.000143,627c6715c52fd12f31907bcf,,,,,,,,,,,,,,,,,,,,,,,a,1,"[""0.308"",""0.350"",""0.781"",""0.966""]","[1,0,1,1]",0,27,27,27,1,0,1,,,1,FALSE,2.3724,,,,,,,,,,,,,,,,,,,,,,,,,,,,,,,
,60d0c85826ef72e1f37e5fda,627c69671a2989b4ffc15cba,2022-05-11_20h56.57.793,classification_task,2021.2.3,Win32,143.000143,627c6715c52fd12f31907bcf,,,,,,,,,,,,,,,,,,,,,,,a,1,"[""0.211"",""0.498"",""0.684"",""0.891""]","[1,1,0,1]",0,28,28,28,1,0,0,,,1,FALSE,1.4813,,,,,,,,,,,,,,,,,,,,,,,,,,,,,,,
,60d0c85826ef72e1f37e5fda,627c69671a2989b4ffc15cba,2022-05-11_20h56.57.793,classification_task,2021.2.3,Win32,143.000143,627c6715c52fd12f31907bcf,,,,,,,,,,,,,,,,,,,,,,,a,0,"[""0.700"",""0.260"",""0.446"",""0.823""]","[0,1,1,1]",0,29,29,29,1,1,0,,,1,FALSE,1.7992,,,,,,,,,,,,,,,,,,,,,,,,,,,,,,,
,60d0c85826ef72e1f37e5fda,627c69671a2989b4ffc15cba,2022-05-11_20h56.57.793,classification_task,2021.2.3,Win32,143.000143,627c6715c52fd12f31907bcf,,,,,,,,,,,,,,,,,,,,,,,a,0,"[""0.041"",""0.260"",""0.680"",""0.823""]","[1,1,0,1]",0,30,30,30,1,1,0,,,1,FALSE,1.0121,,,,,,,,,,,,,,,,,,,,,,,,,,,,,,,
,60d0c85826ef72e1f37e5fda,627c69671a2989b4ffc15cba,2022-05-11_20h56.57.793,classification_task,2021.2.3,Win32,143.000143,627c6715c52fd12f31907bcf,,,,,,,,,,,,,,,,,,,,,,,a,1,"[""0.308"",""0.408"",""0.781"",""0.684""]","[1,1,1,0]",0,31,31,31,1,0,1,,,1,FALSE,0.7297,,,,,,,,,,,,,,,,,,,,,,,,,,,,,,,
,60d0c85826ef72e1f37e5fda,627c69671a2989b4ffc15cba,2022-05-11_20h56.57.793,classification_task,2021.2.3,Win32,143.000143,627c6715c52fd12f31907bcf,,,,,,,,,,,,,,,,,,,,,,,l,1,"[""0.093"",""0.153"",""0.650"",""0.734""]","[1,1,0,1]",0,32,32,32,1,1,1,,,1,FALSE,0.6604,,,,,,,,,,,,,,,,,,,,,,,,,,,,,,,
,60d0c85826ef72e1f37e5fda,627c69671a2989b4ffc15cba,2022-05-11_20h56.57.793,classification_task,2021.2.3,Win32,143.000143,627c6715c52fd12f31907bcf,,,,,,,,,,,,,,,,,,,,,,,l,1,"[""0.349"",""0.260"",""0.446"",""0.823""]","[0,1,1,1]",0,33,33,33,1,1,0,,,1,FALSE,1.2433,,,,,,,,,,,,,,,,,,,,,,,,,,,,,,,
,60d0c85826ef72e1f37e5fda,627c69671a2989b4ffc15cba,2022-05-11_20h56.57.793,classification_task,2021.2.3,Win32,143.000143,627c6715c52fd12f31907bcf,,,,,,,,,,,,,,,,,,,,,,,l,1,"[""0.041"",""0.260"",""0.342"",""0.823""]","[1,1,0,1]",0,34,34,34,1,1,0,,,1,FALSE,0.66,,,,,,,,,,,,,,,,,,,,,,,,,,,,,,,
,60d0c85826ef72e1f37e5fda,627c69671a2989b4ffc15cba,2022-05-11_20h56.57.793,classification_task,2021.2.3,Win32,143.000143,627c6715c52fd12f31907bcf,,,,,,,,,,,,,,,,,,,,,,,a,1,"[""0.308"",""0.349"",""0.781"",""0.966""]","[1,0,1,1]",0,35,35,35,1,0,1,,,1,FALSE,0.5906,,,,,,,,,,,,,,,,,,,,,,,,,,,,,,,
,60d0c85826ef72e1f37e5fda,627c69671a2989b4ffc15cba,2022-05-11_20h56.57.793,classification_task,2021.2.3,Win32,143.000143,627c6715c52fd12f31907bcf,,,,,,,,,,,,,,,,,,,,,,,l,0,"[""0.211"",""0.498"",""0.684"",""0.891""]","[1,1,0,1]",0,36,36,36,1,0,0,,,1,FALSE,1.8686,,,,,,,,,,,,,,,,,,,,,,,,,,,,,,,
,60d0c85826ef72e1f37e5fda,627c69671a2989b4ffc15cba,2022-05-11_20h56.57.793,classification_task,2021.2.3,Win32,143.000143,627c6715c52fd12f31907bcf,,,,,,,,,,,,,,,,,,,,,,,l,1,"[""0.093"",""0.350"",""0.549"",""0.734""]","[1,0,1,1]",0,37,37,37,1,1,1,,,1,FALSE,5.5521,,,,,,,,,,,,,,,,,,,,,,,,,,,,,,,
,60d0c85826ef72e1f37e5fda,627c69671a2989b4ffc15cba,2022-05-11_20h56.57.793,classification_task,2021.2.3,Win32,143.000143,627c6715c52fd12f31907bcf,,,,,,,,,,,,,,,,,,,,,,,a,0,"[""0.041"",""0.698"",""0.446"",""0.823""]","[1,0,1,1]",0,38,38,38,1,1,0,,,1,FALSE,2.5724,,,,,,,,,,,,,,,,,,,,,,,,,,,,,,,
,60d0c85826ef72e1f37e5fda,627c69671a2989b4ffc15cba,2022-05-11_20h56.57.793,classification_task,2021.2.3,Win32,143.000143,627c6715c52fd12f31907bcf,,,,,,,,,,,,,,,,,,,,,,,l,1,"[""0.093"",""0.153"",""0.549"",""0.349""]","[1,1,1,0]",0,39,39,39,1,1,1,,,1,FALSE,2.2953,,,,,,,,,,,,,,,,,,,,,,,,,,,,,,,
,60d0c85826ef72e1f37e5fda,627c69671a2989b4ffc15cba,2022-05-11_20h56.57.793,classification_task,2021.2.3,Win32,143.000143,627c6715c52fd12f31907bcf,,,,,,,,,,,,,,,,,,,,,,,a,1,"[""0.308"",""0.408"",""0.781"",""0.857""]","[1,1,1,0]",0,40,40,40,1,0,1,,,1,FALSE,1.6671,,,,,,,,,,,,,,,,,,,,,,,,,,,,,,,
,60d0c85826ef72e1f37e5fda,627c69671a2989b4ffc15cba,2022-05-11_20h56.57.793,classification_task,2021.2.3,Win32,143.000143,627c6715c52fd12f31907bcf,,,,,,,,,,,,,,,,,,,,,,,a,1,"[""0.364"",""0.408"",""0.781"",""0.966""]","[0,1,1,1]",0,41,41,41,1,0,1,,,1,FALSE,1.0124,,,,,,,,,,,,,,,,,,,,,,,,,,,,,,,
,60d0c85826ef72e1f37e5fda,627c69671a2989b4ffc15cba,2022-05-11_20h56.57.793,classification_task,2021.2.3,Win32,143.000143,627c6715c52fd12f31907bcf,,,,,,,,,,,,,,,,,,,,,,,l,1,"[""0.041"",""0.260"",""0.446"",""0.675""]","[1,1,1,0]",0,42,42,42,1,1,0,,,1,FALSE,1.6604,,,,,,,,,,,,,,,,,,,,,,,,,,,,,,,
,60d0c85826ef72e1f37e5fda,627c69671a2989b4ffc15cba,2022-05-11_20h56.57.793,classification_task,2021.2.3,Win32,143.000143,627c6715c52fd12f31907bcf,,,,,,,,,,,,,,,,,,,,,,,a,1,"[""0.211"",""0.350"",""0.598"",""0.891""]","[1,0,1,1]",0,43,43,43,1,0,0,,,1,FALSE,0.792,,,,,,,,,,,,,,,,,,,,,,,,,,,,,,,
,60d0c85826ef72e1f37e5fda,627c69671a2989b4ffc15cba,2022-05-11_20h56.57.793,classification_task,2021.2.3,Win32,143.000143,627c6715c52fd12f31907bcf,,,,,,,,,,,,,,,,,,,,,,,l,0,"[""0.308"",""0.408"",""0.680"",""0.966""]","[1,1,0,1]",0,44,44,44,1,0,1,,,1,FALSE,5.9384,,,,,,,,,,,,,,,,,,,,,,,,,,,,,,,
,60d0c85826ef72e1f37e5fda,627c69671a2989b4ffc15cba,2022-05-11_20h56.57.793,classification_task,2021.2.3,Win32,143.000143,627c6715c52fd12f31907bcf,,,,,,,,,,,,,,,,,,,,,,,a,1,"[""0.355"",""0.498"",""0.598"",""0.891""]","[0,1,1,1]",0,45,45,45,1,0,0,,,1,FALSE,1.6067,,,,,,,,,,,,,,,,,,,,,,,,,,,,,,,
,60d0c85826ef72e1f37e5fda,627c69671a2989b4ffc15cba,2022-05-11_20h56.57.793,classification_task,2021.2.3,Win32,143.000143,627c6715c52fd12f31907bcf,,,,,,,,,,,,,,,,,,,,,,,l,0,"[""0.211"",""0.498"",""0.598"",""0.366""]","[1,1,1,0]",0,46,46,46,1,0,0,,,1,FALSE,4.1512,,,,,,,,,,,,,,,,,,,,,,,,,,,,,,,
,60d0c85826ef72e1f37e5fda,627c69671a2989b4ffc15cba,2022-05-11_20h56.57.793,classification_task,2021.2.3,Win32,143.000143,627c6715c52fd12f31907bcf,,,,,,,,,,,,,,,,,,,,,,,l,1,"[""0.364"",""0.153"",""0.549"",""0.734""]","[0,1,1,1]",0,47,47,47,1,1,1,,,1,FALSE,3.8639,,,,,,,,,,,,,,,,,,,,,,,,,,,,,,,
,60d0c85826ef72e1f37e5fda,627c69671a2989b4ffc15cba,2022-05-11_20h56.57.793,classification_task,2021.2.3,Win32,143.000143,627c6715c52fd12f31907bcf,,,,,,,,,,,,,,,,,,,,,,,a,1,"[""0.308"",""0.408"",""0.781"",""0.342""]","[1,1,1,0]",0,48,48,48,1,0,1,,,1,FALSE,1.8588,,,,,,,,,,,,,,,,,,,,,,,,,,,,,,,
,60d0c85826ef72e1f37e5fda,627c69671a2989b4ffc15cba,2022-05-11_20h56.57.793,classification_task,2021.2.3,Win32,143.000143,627c6715c52fd12f31907bcf,,,,,,,,,,,,,,,,,,,,,,,a,1,"[""0.211"",""0.498"",""0.598"",""0.650""]","[1,1,1,0]",0,49,49,49,1,0,0,,,1,FALSE,4.7438,,,,,,,,,,,,,,,,,,,,,,,,,,,,,,,
,60d0c85826ef72e1f37e5fda,627c69671a2989b4ffc15cba,2022-05-11_20h56.57.793,classification_task,2021.2.3,Win32,143.000143,627c6715c52fd12f31907bcf,,,,,,,,,,,,,,,,,,,,,,,l,1,"[""0.342"",""0.153"",""0.549"",""0.734""]","[0,1,1,1]",0,50,50,50,1,1,1,,,1,FALSE,3.6218,,,,,,,,,,,,,,,,,,,,,,,,,,,,,,,
,60d0c85826ef72e1f37e5fda,627c69671a2989b4ffc15cba,2022-05-11_20h56.57.793,classification_task,2021.2.3,Win32,143.000143,627c6715c52fd12f31907bcf,,,,,,,,,,,,,,,,,,,,,,,a,0,"[""0.041"",""0.350"",""0.446"",""0.823""]","[1,0,1,1]",0,51,51,51,1,1,0,,,1,FALSE,2.8785,,,,,,,,,,,,,,,,,,,,,,,,,,,,,,,
,60d0c85826ef72e1f37e5fda,627c69671a2989b4ffc15cba,2022-05-11_20h56.57.793,classification_task,2021.2.3,Win32,143.000143,627c6715c52fd12f31907bcf,,,,,,,,,,,,,,,,,,,,,,,a,0,"[""0.041"",""0.260"",""0.650"",""0.823""]","[1,1,0,1]",0,52,52,52,1,1,0,,,1,FALSE,0.6025,,,,,,,,,,,,,,,,,,,,,,,,,,,,,,,
,60d0c85826ef72e1f37e5fda,627c69671a2989b4ffc15cba,2022-05-11_20h56.57.793,classification_task,2021.2.3,Win32,143.000143,627c6715c52fd12f31907bcf,,,,,,,,,,,,,,,,,,,,,,,l,1,"[""0.093"",""0.153"",""0.684"",""0.734""]","[1,1,0,1]",0,53,53,53,1,1,1,,,1,FALSE,0.299,,,,,,,,,,,,,,,,,,,,,,,,,,,,,,,
,60d0c85826ef72e1f37e5fda,627c69671a2989b4ffc15cba,2022-05-11_20h56.57.793,classification_task,2021.2.3,Win32,143.000143,627c6715c52fd12f31907bcf,,,,,,,,,,,,,,,,,,,,,,,l,0,"[""0.211"",""0.498"",""0.700"",""0.891""]","[1,1,0,1]",0,54,54,54,1,0,0,,,1,FALSE,1.1534,,,,,,,,,,,,,,,,,,,,,,,,,,,,,,,
,60d0c85826ef72e1f37e5fda,627c69671a2989b4ffc15cba,2022-05-11_20h56.57.793,classification_task,2021.2.3,Win32,143.000143,627c6715c52fd12f31907bcf,,,,,,,,,,,,,,,,,,,,,,,a,0,"[""0.041"",""0.260"",""0.446"",""0.650""]","[1,1,1,0]",0,55,55,55,1,1,0,,,1,FALSE,1.5769,,,,,,,,,,,,,,,,,,,,,,,,,,,,,,,
,60d0c85826ef72e1f37e5fda,627c69671a2989b4ffc15cba,2022-05-11_20h56.57.793,classification_task,2021.2.3,Win32,143.000143,627c6715c52fd12f31907bcf,,,,,,,,,,,,,,,,,,,,,,,l,1,"[""0.093"",""0.342"",""0.549"",""0.734""]","[1,0,1,1]",0,56,56,56,1,1,1,,,1,FALSE,2.1602,,,,,,,,,,,,,,,,,,,,,,,,,,,,,,,
,60d0c85826ef72e1f37e5fda,627c69671a2989b4ffc15cba,2022-05-11_20h56.57.793,classification_task,2021.2.3,Win32,143.000143,627c6715c52fd12f31907bcf,,,,,,,,,,,,,,,,,,,,,,,a,1,"[""0.700"",""0.498"",""0.598"",""0.891""]","[0,1,1,1]",0,57,57,57,1,0,0,,,1,FALSE,2.5169,,,,,,,,,,,,,,,,,,,,,,,,,,,,,,,
,60d0c85826ef72e1f37e5fda,627c69671a2989b4ffc15cba,2022-05-11_20h56.57.793,classification_task,2021.2.3,Win32,143.000143,627c6715c52fd12f31907bcf,,,,,,,,,,,,,,,,,,,,,,,a,1,"[""0.308"",""0.698"",""0.781"",""0.966""]","[1,0,1,1]",0,58,58,58,1,0,1,,,1,FALSE,3.2436,,,,,,,,,,,,,,,,,,,,,,,,,,,,,,,
,60d0c85826ef72e1f37e5fda,627c69671a2989b4ffc15cba,2022-05-11_20h56.57.793,classification_task,2021.2.3,Win32,143.000143,627c6715c52fd12f31907bcf,,,,,,,,,,,,,,,,,,,,,,,l,0,"[""0.308"",""0.408"",""0.342"",""0.966""]","[1,1,0,1]",0,59,59,59,1,0,1,,,1,FALSE,1.8252,,,,,,,,,,,,,,,,,,,,,,,,,,,,,,,
,60d0c85826ef72e1f37e5fda,627c69671a2989b4ffc15cba,2022-05-11_20h56.57.793,classification_task,2021.2.3,Win32,143.000143,627c6715c52fd12f31907bcf,,,,,,,,,,,,,,,,,,,,,,,l,1,"[""0.093"",""0.153"",""0.549"",""0.355""]","[1,1,1,0]",0,60,60,60,1,1,1,,,1,FALSE,2.6462,,,,,,,,,,,,,,,,,,,,,,,,,,,,,,,
,60d0c85826ef72e1f37e5fda,627c69671a2989b4ffc15cba,2022-05-11_20h56.57.793,classification_task,2021.2.3,Win32,143.000143,627c6715c52fd12f31907bcf,,,,,,,,,,,,,,,,,,,,,,,a,1,"[""0.211"",""0.355"",""0.598"",""0.891""]","[1,0,1,1]",0,61,61,61,1,0,0,,,1,FALSE,5.1834,,,,,,,,,,,,,,,,,,,,,,,,,,,,,,,
,60d0c85826ef72e1f37e5fda,627c69671a2989b4ffc15cba,2022-05-11_20h56.57.793,classification_task,2021.2.3,Win32,143.000143,627c6715c52fd12f31907bcf,,,,,,,,,,,,,,,,,,,,,,,l,1,"[""0.342"",""0.260"",""0.446"",""0.823""]","[0,1,1,1]",0,62,62,62,1,1,0,,,1,FALSE,2.6715,,,,,,,,,,,,,,,,,,,,,,,,,,,,,,,
,60d0c85826ef72e1f37e5fda,627c69671a2989b4ffc15cba,2022-05-11_20h56.57.793,classification_task,2021.2.3,Win32,143.000143,627c6715c52fd12f31907bcf,,,,,,,,,,,,,,,,,,,,,,,a,1,"[""0.364"",""0.408"",""0.781"",""0.966""]","[0,1,1,1]",0,63,63,63,1,0,1,,,1,FALSE,3.3357,,,,,,,,,,,,,,,,,,,,,,,,,,,,,,,
,60d0c85826ef72e1f37e5fda,627c69671a2989b4ffc15cba,2022-05-11_20h56.57.793,classification_task,2021.2.3,Win32,143.000143,627c6715c52fd12f31907bcf,,,,,,,,,,,,,,,,,,,,,,,,,,,,,,,,,,,,,,,0, ,,0,4.583578287,222.5835,0,1,1,1,1,2,2,,,,,,,,,,,,,,,,,,
,60d0c85826ef72e1f37e5fda,627c69671a2989b4ffc15cba,2022-05-11_20h56.57.793,classification_task,2021.2.3,Win32,143.000143,627c6715c52fd12f31907bcf,,,,,,,,,,,,,,,,,,,,,,,,,,,,,,,,,,,,,,,1,  ,,0,6.9106408,223.5881,0,1,1,1,1,2,2,,,,,,,,,,,,,,,,,,
,60d0c85826ef72e1f37e5fda,627c69671a2989b4ffc15cba,2022-05-11_20h56.57.793,classification_task,2021.2.3,Win32,143.000143,627c6715c52fd12f31907bcf,,,,,,,,,,,,,,,,,,,,,,,,,,,,,,,,,,,,,,,2,  ,,0,6.494219087,225.5812,0,1,1,1,1,2,2,,,,,,,,,,,,,,,,,,
,60d0c85826ef72e1f37e5fda,627c69671a2989b4ffc15cba,2022-05-11_20h56.57.793,classification_task,2021.2.3,Win32,143.000143,627c6715c52fd12f31907bcf,,,,,,,,,,,,,,,,,,,,,,,,,,,,,,,,,,,,,,,,,,,,,0,1,1,1,1,,2,,,,,,,,,,,,,,,,,,
,60d0c85826ef72e1f37e5fda,627c69671a2989b4ffc15cba,2022-05-11_20h56.57.793,classification_task,2021.2.3,Win32,143.000143,627c6715c52fd12f31907bcf,,,,,,,,,,,,,,,,,,,,,space,7.6898,l,1,"[""0.093"",""0.700"",""0.549"",""0.734""]","[1,0,1,1]",0,0,0,0,1,1,1,,,1,FALSE,3.0968,,,,,,,,,,,,,,,,,,,,,,,,,,,,,,,
,60d0c85826ef72e1f37e5fda,627c69671a2989b4ffc15cba,2022-05-11_20h56.57.793,classification_task,2021.2.3,Win32,143.000143,627c6715c52fd12f31907bcf,,,,,,,,,,,,,,,,,,,,,,,a,1,"[""0.308"",""0.355"",""0.781"",""0.966""]","[1,0,1,1]",0,1,1,1,1,0,1,,,1,FALSE,2.6633,,,,,,,,,,,,,,,,,,,,,,,,,,,,,,,
,60d0c85826ef72e1f37e5fda,627c69671a2989b4ffc15cba,2022-05-11_20h56.57.793,classification_task,2021.2.3,Win32,143.000143,627c6715c52fd12f31907bcf,,,,,,,,,,,,,,,,,,,,,,,a,0,"[""0.041"",""0.260"",""0.700"",""0.823""]","[1,1,0,1]",0,2,2,2,1,1,0,,,1,FALSE,4.8805,,,,,,,,,,,,,,,,,,,,,,,,,,,,,,,
,60d0c85826ef72e1f37e5fda,627c69671a2989b4ffc15cba,2022-05-11_20h56.57.793,classification_task,2021.2.3,Win32,143.000143,627c6715c52fd12f31907bcf,,,,,,,,,,,,,,,,,,,,,,,a,1,"[""0.366"",""0.408"",""0.781"",""0.966""]","[0,1,1,1]",0,3,3,3,1,0,1,,,1,FALSE,1.5956,,,,,,,,,,,,,,,,,,,,,,,,,,,,,,,
,60d0c85826ef72e1f37e5fda,627c69671a2989b4ffc15cba,2022-05-11_20h56.57.793,classification_task,2021.2.3,Win32,143.000143,627c6715c52fd12f31907bcf,,,,,,,,,,,,,,,,,,,,,,,a,0,"[""0.041"",""0.260"",""0.446"",""0.641""]","[1,1,1,0]",0,4,4,4,1,1,0,,,1,FALSE,2.7714,,,,,,,,,,,,,,,,,,,,,,,,,,,,,,,
,60d0c85826ef72e1f37e5fda,627c69671a2989b4ffc15cba,2022-05-11_20h56.57.793,classification_task,2021.2.3,Win32,143.000143,627c6715c52fd12f31907bcf,,,,,,,,,,,,,,,,,,,,,,,l,0,"[""0.308"",""0.408"",""0.700"",""0.966""]","[1,1,0,1]",0,5,5,5,1,0,1,,,1,FALSE,2.8031,,,,,,,,,,,,,,,,,,,,,,,,,,,,,,,
,60d0c85826ef72e1f37e5fda,627c69671a2989b4ffc15cba,2022-05-11_20h56.57.793,classification_task,2021.2.3,Win32,143.000143,627c6715c52fd12f31907bcf,,,,,,,,,,,,,,,,,,,,,,,l,0,"[""0.211"",""0.498"",""0.342"",""0.891""]","[1,1,0,1]",0,6,6,6,1,0,0,,,1,FALSE,3.2626,,,,,,,,,,,,,,,,,,,,,,,,,,,,,,,
,60d0c85826ef72e1f37e5fda,627c69671a2989b4ffc15cba,2022-05-11_20h56.57.793,classification_task,2021.2.3,Win32,143.000143,627c6715c52fd12f31907bcf,,,,,,,,,,,,,,,,,,,,,,,a,1,"[""0.342"",""0.498"",""0.598"",""0.891""]","[0,1,1,1]",0,7,7,7,1,0,0,,,1,FALSE,2.0126,,,,,,,,,,,,,,,,,,,,,,,,,,,,,,,
,60d0c85826ef72e1f37e5fda,627c69671a2989b4ffc15cba,2022-05-11_20h56.57.793,classification_task,2021.2.3,Win32,143.000143,627c6715c52fd12f31907bcf,,,,,,,,,,,,,,,,,,,,,,,l,1,"[""0.650"",""0.153"",""0.549"",""0.734""]","[0,1,1,1]",0,8,8,8,1,1,1,,,1,FALSE,2.7135,,,,,,,,,,,,,,,,,,,,,,,,,,,,,,,
,60d0c85826ef72e1f37e5fda,627c69671a2989b4ffc15cba,2022-05-11_20h56.57.793,classification_task,2021.2.3,Win32,143.000143,627c6715c52fd12f31907bcf,,,,,,,,,,,,,,,,,,,,,,,l,1,"[""0.093"",""0.153"",""0.641"",""0.734""]","[1,1,0,1]",0,9,9,9,1,1,1,,,1,FALSE,1.3738,,,,,,,,,,,,,,,,,,,,,,,,,,,,,,,
,60d0c85826ef72e1f37e5fda,627c69671a2989b4ffc15cba,2022-05-11_20h56.57.793,classification_task,2021.2.3,Win32,143.000143,627c6715c52fd12f31907bcf,,,,,,,,,,,,,,,,,,,,,,,a,0,"[""0.650"",""0.260"",""0.446"",""0.823""]","[0,1,1,1]",0,10,10,10,1,1,0,,,1,FALSE,2.2644,,,,,,,,,,,,,,,,,,,,,,,,,,,,,,,
,60d0c85826ef72e1f37e5fda,627c69671a2989b4ffc15cba,2022-05-11_20h56.57.793,classification_task,2021.2.3,Win32,143.000143,627c6715c52fd12f31907bcf,,,,,,,,,,,,,,,,,,,,,,,l,1,"[""0.041"",""0.364"",""0.446"",""0.823""]","[1,0,1,1]",0,11,11,11,1,1,0,,,1,FALSE,1.352,,,,,,,,,,,,,,,,,,,,,,,,,,,,,,,
,60d0c85826ef72e1f37e5fda,627c69671a2989b4ffc15cba,2022-05-11_20h56.57.793,classification_task,2021.2.3,Win32,143.000143,627c6715c52fd12f31907bcf,,,,,,,,,,,,,,,,,,,,,,,l,0,"[""0.211"",""0.498"",""0.598"",""0.651""]","[1,1,1,0]",0,12,12,12,1,0,0,,,1,FALSE,2.4617,,,,,,,,,,,,,,,,,,,,,,,,,,,,,,,
,60d0c85826ef72e1f37e5fda,627c69671a2989b4ffc15cba,2022-05-11_20h56.57.793,classification_task,2021.2.3,Win32,143.000143,627c6715c52fd12f31907bcf,,,,,,,,,,,,,,,,,,,,,,,a,1,"[""0.308"",""0.408"",""0.781"",""0.684""]","[1,1,1,0]",0,13,13,13,1,0,1,,,1,FALSE,0.9865,,,,,,,,,,,,,,,,,,,,,,,,,,,,,,,
,60d0c85826ef72e1f37e5fda,627c69671a2989b4ffc15cba,2022-05-11_20h56.57.793,classification_task,2021.2.3,Win32,143.000143,627c6715c52fd12f31907bcf,,,,,,,,,,,,,,,,,,,,,,,l,1,"[""0.093"",""0.153"",""0.549"",""0.680""]","[1,1,1,0]",0,14,14,14,1,1,1,,,1,FALSE,1.4165,,,,,,,,,,,,,,,,,,,,,,,,,,,,,,,
,60d0c85826ef72e1f37e5fda,627c69671a2989b4ffc15cba,2022-05-11_20h56.57.793,classification_task,2021.2.3,Win32,143.000143,627c6715c52fd12f31907bcf,,,,,,,,,,,,,,,,,,,,,,,a,1,"[""0.211"",""0.342"",""0.598"",""0.891""]","[1,0,1,1]",0,15,15,15,1,0,0,,,1,FALSE,2.4802,,,,,,,,,,,,,,,,,,,,,,,,,,,,,,,
,60d0c85826ef72e1f37e5fda,627c69671a2989b4ffc15cba,2022-05-11_20h56.57.793,classification_task,2021.2.3,Win32,143.000143,627c6715c52fd12f31907bcf,,,,,,,,,,,,,,,,,,,,,,,a,1,"[""0.684"",""0.408"",""0.781"",""0.966""]","[0,1,1,1]",0,16,16,16,1,0,1,,,1,FALSE,2.3888,,,,,,,,,,,,,,,,,,,,,,,,,,,,,,,
,60d0c85826ef72e1f37e5fda,627c69671a2989b4ffc15cba,2022-05-11_20h56.57.793,classification_task,2021.2.3,Win32,143.000143,627c6715c52fd12f31907bcf,,,,,,,,,,,,,,,,,,,,,,,l,0,"[""0.211"",""0.650"",""0.598"",""0.891""]","[1,0,1,1]",0,17,17,17,1,0,0,,,1,FALSE,1.5437,,,,,,,,,,,,,,,,,,,,,,,,,,,,,,,
,60d0c85826ef72e1f37e5fda,627c69671a2989b4ffc15cba,2022-05-11_20h56.57.793,classification_task,2021.2.3,Win32,143.000143,627c6715c52fd12f31907bcf,,,,,,,,,,,,,,,,,,,,,,,a,1,"[""0.211"",""0.498"",""0.598"",""0.342""]","[1,1,1,0]",0,18,18,18,1,0,0,,,1,FALSE,1.2035,,,,,,,,,,,,,,,,,,,,,,,,,,,,,,,
,60d0c85826ef72e1f37e5fda,627c69671a2989b4ffc15cba,2022-05-11_20h56.57.793,classification_task,2021.2.3,Win32,143.000143,627c6715c52fd12f31907bcf,,,,,,,,,,,,,,,,,,,,,,,l,1,"[""0.041"",""0.650"",""0.446"",""0.823""]","[1,0,1,1]",0,19,19,19,1,1,0,,,1,FALSE,5.0283,,,,,,,,,,,,,,,,,,,,,,,,,,,,,,,
,60d0c85826ef72e1f37e5fda,627c69671a2989b4ffc15cba,2022-05-11_20h56.57.793,classification_task,2021.2.3,Win32,143.000143,627c6715c52fd12f31907bcf,,,,,,,,,,,,,,,,,,,,,,,l,1,"[""0.857"",""0.260"",""0.446"",""0.823""]","[0,1,1,1]",0,20,20,20,1,1,0,,,1,FALSE,2.0832,,,,,,,,,,,,,,,,,,,,,,,,,,,,,,,
,60d0c85826ef72e1f37e5fda,627c69671a2989b4ffc15cba,2022-05-11_20h56.57.793,classification_task,2021.2.3,Win32,143.000143,627c6715c52fd12f31907bcf,,,,,,,,,,,,,,,,,,,,,,,a,1,"[""0.211"",""0.498"",""0.650"",""0.891""]","[1,1,0,1]",0,21,21,21,1,0,0,,,1,FALSE,2.5688,,,,,,,,,,,,,,,,,,,,,,,,,,,,,,,
,60d0c85826ef72e1f37e5fda,627c69671a2989b4ffc15cba,2022-05-11_20h56.57.793,classification_task,2021.2.3,Win32,143.000143,627c6715c52fd12f31907bcf,,,,,,,,,,,,,,,,,,,,,,,a,1,"[""0.308"",""0.700"",""0.781"",""0.966""]","[1,0,1,1]",0,22,22,22,1,0,1,,,1,FALSE,1.8474,,,,,,,,,,,,,,,,,,,,,,,,,,,,,,,
,60d0c85826ef72e1f37e5fda,627c69671a2989b4ffc15cba,2022-05-11_20h56.57.793,classification_task,2021.2.3,Win32,143.000143,627c6715c52fd12f31907bcf,,,,,,,,,,,,,,,,,,,,,,,l,1,"[""0.093"",""0.366"",""0.549"",""0.734""]","[1,0,1,1]",0,23,23,23,1,1,1,,,1,FALSE,3.6817,,,,,,,,,,,,,,,,,,,,,,,,,,,,,,,
,60d0c85826ef72e1f37e5fda,627c69671a2989b4ffc15cba,2022-05-11_20h56.57.793,classification_task,2021.2.3,Win32,143.000143,627c6715c52fd12f31907bcf,,,,,,,,,,,,,,,,,,,,,,,l,1,"[""0.366"",""0.153"",""0.549"",""0.734""]","[0,1,1,1]",0,24,24,24,1,1,1,,,1,FALSE,2.5064,,,,,,,,,,,,,,,,,,,,,,,,,,,,,,,
,60d0c85826ef72e1f37e5fda,627c69671a2989b4ffc15cba,2022-05-11_20h56.57.793,classification_task,2021.2.3,Win32,143.000143,627c6715c52fd12f31907bcf,,,,,,,,,,,,,,,,,,,,,,,l,1,"[""0.041"",""0.260"",""0.364"",""0.823""]","[1,1,0,1]",0,25,25,25,1,1,0,,,1,FALSE,3.5997,,,,,,,,,,,,,,,,,,,,,,,,,,,,,,,
,60d0c85826ef72e1f37e5fda,627c69671a2989b4ffc15cba,2022-05-11_20h56.57.793,classification_task,2021.2.3,Win32,143.000143,627c6715c52fd12f31907bcf,,,,,,,,,,,,,,,,,,,,,,,l,1,"[""0.093"",""0.153"",""0.680"",""0.734""]","[1,1,0,1]",0,26,26,26,1,1,1,,,1,FALSE,3.2217,,,,,,,,,,,,,,,,,,,,,,,,,,,,,,,
,60d0c85826ef72e1f37e5fda,627c69671a2989b4ffc15cba,2022-05-11_20h56.57.793,classification_task,2021.2.3,Win32,143.000143,627c6715c52fd12f31907bcf,,,,,,,,,,,,,,,,,,,,,,,a,1,"[""0.308"",""0.408"",""0.781"",""0.342""]","[1,1,1,0]",0,27,27,27,1,0,1,,,1,FALSE,1.0005,,,,,,,,,,,,,,,,,,,,,,,,,,,,,,,
,60d0c85826ef72e1f37e5fda,627c69671a2989b4ffc15cba,2022-05-11_20h56.57.793,classification_task,2021.2.3,Win32,143.000143,627c6715c52fd12f31907bcf,,,,,,,,,,,,,,,,,,,,,,,a,0,"[""0.093"",""0.153"",""0.549"",""0.349""]","[1,1,1,0]",0,28,28,28,1,1,1,,,1,FALSE,2.0277,,,,,,,,,,,,,,,,,,,,,,,,,,,,,,,
,60d0c85826ef72e1f37e5fda,627c69671a2989b4ffc15cba,2022-05-11_20h56.57.793,classification_task,2021.2.3,Win32,143.000143,627c6715c52fd12f31907bcf,,,,,,,,,,,,,,,,,,,,,,,l,0,"[""0.857"",""0.498"",""0.598"",""0.891""]","[0,1,1,1]",0,29,29,29,1,0,0,,,1,FALSE,1.2858,,,,,,,,,,,,,,,,,,,,,,,,,,,,,,,
,60d0c85826ef72e1f37e5fda,627c69671a2989b4ffc15cba,2022-05-11_20h56.57.793,classification_task,2021.2.3,Win32,143.000143,627c6715c52fd12f31907bcf,,,,,,,,,,,,,,,,,,,,,,,l,0,"[""0.308"",""0.408"",""0.366"",""0.966""]","[1,1,0,1]",0,30,30,30,1,0,1,,,1,FALSE,2.5481,,,,,,,,,,,,,,,,,,,,,,,,,,,,,,,
,60d0c85826ef72e1f37e5fda,627c69671a2989b4ffc15cba,2022-05-11_20h56.57.793,classification_task,2021.2.3,Win32,143.000143,627c6715c52fd12f31907bcf,,,,,,,,,,,,,,,,,,,,,,,l,1,"[""0.041"",""0.260"",""0.446"",""0.366""]","[1,1,1,0]",0,31,31,31,1,1,0,,,1,FALSE,3.7841,,,,,,,,,,,,,,,,,,,,,,,,,,,,,,,
,60d0c85826ef72e1f37e5fda,627c69671a2989b4ffc15cba,2022-05-11_20h56.57.793,classification_task,2021.2.3,Win32,143.000143,627c6715c52fd12f31907bcf,,,,,,,,,,,,,,,,,,,,,,,a,0,"[""0.093"",""0.153"",""0.355"",""0.734""]","[1,1,0,1]",0,32,32,32,1,1,1,,,1,FALSE,1.9598,,,,,,,,,,,,,,,,,,,,,,,,,,,,,,,
,60d0c85826ef72e1f37e5fda,627c69671a2989b4ffc15cba,2022-05-11_20h56.57.793,classification_task,2021.2.3,Win32,143.000143,627c6715c52fd12f31907bcf,,,,,,,,,,,,,,,,,,,,,,,a,1,"[""0.308"",""0.408"",""0.781"",""0.680""]","[1,1,1,0]",0,33,33,33,1,0,1,,,1,FALSE,1.2222,,,,,,,,,,,,,,,,,,,,,,,,,,,,,,,
,60d0c85826ef72e1f37e5fda,627c69671a2989b4ffc15cba,2022-05-11_20h56.57.793,classification_task,2021.2.3,Win32,143.000143,627c6715c52fd12f31907bcf,,,,,,,,,,,,,,,,,,,,,,,a,0,"[""0.675"",""0.260"",""0.446"",""0.823""]","[0,1,1,1]",0,34,34,34,1,1,0,,,1,FALSE,1.6245,,,,,,,,,,,,,,,,,,,,,,,,,,,,,,,
,60d0c85826ef72e1f37e5fda,627c69671a2989b4ffc15cba,2022-05-11_20h56.57.793,classification_task,2021.2.3,Win32,143.000143,627c6715c52fd12f31907bcf,,,,,,,,,,,,,,,,,,,,,,,l,0,"[""0.308"",""0.408"",""0.675"",""0.966""]","[1,1,0,1]",0,35,35,35,1,0,1,,,1,FALSE,2.8453,,,,,,,,,,,,,,,,,,,,,,,,,,,,,,,
,60d0c85826ef72e1f37e5fda,627c69671a2989b4ffc15cba,2022-05-11_20h56.57.793,classification_task,2021.2.3,Win32,143.000143,627c6715c52fd12f31907bcf,,,,,,,,,,,,,,,,,,,,,,,a,1,"[""0.366"",""0.408"",""0.781"",""0.966""]","[0,1,1,1]",0,36,36,36,1,0,1,,,1,FALSE,0.9376,,,,,,,,,,,,,,,,,,,,,,,,,,,,,,,
,60d0c85826ef72e1f37e5fda,627c69671a2989b4ffc15cba,2022-05-11_20h56.57.793,classification_task,2021.2.3,Win32,143.000143,627c6715c52fd12f31907bcf,,,,,,,,,,,,,,,,,,,,,,,l,1,"[""0.041"",""0.260"",""0.857"",""0.823""]","[1,1,0,1]",0,37,37,37,1,1,0,,,1,FALSE,1.0348,,,,,,,,,,,,,,,,,,,,,,,,,,,,,,,
,60d0c85826ef72e1f37e5fda,627c69671a2989b4ffc15cba,2022-05-11_20h56.57.793,classification_task,2021.2.3,Win32,143.000143,627c6715c52fd12f31907bcf,,,,,,,,,,,,,,,,,,,,,,,a,0,"[""0.041"",""0.260"",""0.446"",""0.651""]","[1,1,1,0]",0,38,38,38,1,1,0,,,1,FALSE,1.0716,,,,,,,,,,,,,,,,,,,,,,,,,,,,,,,
,60d0c85826ef72e1f37e5fda,627c69671a2989b4ffc15cba,2022-05-11_20h56.57.793,classification_task,2021.2.3,Win32,143.000143,627c6715c52fd12f31907bcf,,,,,,,,,,,,,,,,,,,,,,,l,1,"[""0.355"",""0.153"",""0.549"",""0.734""]","[0,1,1,1]",0,39,39,39,1,1,1,,,1,FALSE,2.4193,,,,,,,,,,,,,,,,,,,,,,,,,,,,,,,
,60d0c85826ef72e1f37e5fda,627c69671a2989b4ffc15cba,2022-05-11_20h56.57.793,classification_task,2021.2.3,Win32,143.000143,627c6715c52fd12f31907bcf,,,,,,,,,,,,,,,,,,,,,,,a,1,"[""0.350"",""0.498"",""0.598"",""0.891""]","[0,1,1,1]",0,40,40,40,1,0,0,,,1,FALSE,2.2111,,,,,,,,,,,,,,,,,,,,,,,,,,,,,,,
,60d0c85826ef72e1f37e5fda,627c69671a2989b4ffc15cba,2022-05-11_20h56.57.793,classification_task,2021.2.3,Win32,143.000143,627c6715c52fd12f31907bcf,,,,,,,,,,,,,,,,,,,,,,,a,1,"[""0.211"",""0.350"",""0.598"",""0.891""]","[1,0,1,1]",0,41,41,41,1,0,0,,,1,FALSE,2.069,,,,,,,,,,,,,,,,,,,,,,,,,,,,,,,
,60d0c85826ef72e1f37e5fda,627c69671a2989b4ffc15cba,2022-05-11_20h56.57.793,classification_task,2021.2.3,Win32,143.000143,627c6715c52fd12f31907bcf,,,,,,,,,,,,,,,,,,,,,,,a,1,"[""0.211"",""0.498"",""0.598"",""0.684""]","[1,1,1,0]",0,42,42,42,1,0,0,,,1,FALSE,0.8006,,,,,,,,,,,,,,,,,,,,,,,,,,,,,,,
,60d0c85826ef72e1f37e5fda,627c69671a2989b4ffc15cba,2022-05-11_20h56.57.793,classification_task,2021.2.3,Win32,143.000143,627c6715c52fd12f31907bcf,,,,,,,,,,,,,,,,,,,,,,,l,1,"[""0.093"",""0.153"",""0.549"",""0.857""]","[1,1,1,0]",0,43,43,43,1,1,1,,,1,FALSE,2.5071,,,,,,,,,,,,,,,,,,,,,,,,,,,,,,,
,60d0c85826ef72e1f37e5fda,627c69671a2989b4ffc15cba,2022-05-11_20h56.57.793,classification_task,2021.2.3,Win32,143.000143,627c6715c52fd12f31907bcf,,,,,,,,,,,,,,,,,,,,,,,a,1,"[""0.211"",""0.498"",""0.350"",""0.891""]","[1,1,0,1]",0,44,44,44,1,0,0,,,1,FALSE,1.2976,,,,,,,,,,,,,,,,,,,,,,,,,,,,,,,
,60d0c85826ef72e1f37e5fda,627c69671a2989b4ffc15cba,2022-05-11_20h56.57.793,classification_task,2021.2.3,Win32,143.000143,627c6715c52fd12f31907bcf,,,,,,,,,,,,,,,,,,,,,,,a,0,"[""0.041"",""0.355"",""0.446"",""0.823""]","[1,0,1,1]",0,45,45,45,1,1,0,,,1,FALSE,1.7127,,,,,,,,,,,,,,,,,,,,,,,,,,,,,,,
,60d0c85826ef72e1f37e5fda,627c69671a2989b4ffc15cba,2022-05-11_20h56.57.793,classification_task,2021.2.3,Win32,143.000143,627c6715c52fd12f31907bcf,,,,,,,,,,,,,,,,,,,,,,,a,1,"[""0.308"",""0.857"",""0.781"",""0.966""]","[1,0,1,1]",0,46,46,46,1,0,1,,,1,FALSE,2.5972,,,,,,,,,,,,,,,,,,,,,,,,,,,,,,,
,60d0c85826ef72e1f37e5fda,627c69671a2989b4ffc15cba,2022-05-11_20h56.57.793,classification_task,2021.2.3,Win32,143.000143,627c6715c52fd12f31907bcf,,,,,,,,,,,,,,,,,,,,,,,l,1,"[""0.093"",""0.857"",""0.549"",""0.734""]","[1,0,1,1]",0,47,47,47,1,1,1,,,1,FALSE,1.3469,,,,,,,,,,,,,,,,,,,,,,,,,,,,,,,
,60d0c85826ef72e1f37e5fda,627c69671a2989b4ffc15cba,2022-05-11_20h56.57.793,classification_task,2021.2.3,Win32,143.000143,627c6715c52fd12f31907bcf,,,,,,,,,,,,,,,,,,,,,,,a,1,"[""0.308"",""0.408"",""0.781"",""0.675""]","[1,1,1,0]",0,48,48,48,1,0,1,,,1,FALSE,1.6076,,,,,,,,,,,,,,,,,,,,,,,,,,,,,,,
,60d0c85826ef72e1f37e5fda,627c69671a2989b4ffc15cba,2022-05-11_20h56.57.793,classification_task,2021.2.3,Win32,143.000143,627c6715c52fd12f31907bcf,,,,,,,,,,,,,,,,,,,,,,,l,0,"[""0.211"",""0.498"",""0.598"",""0.651""]","[1,1,1,0]",0,49,49,49,1,0,0,,,1,FALSE,1.7567,,,,,,,,,,,,,,,,,,,,,,,,,,,,,,,
,60d0c85826ef72e1f37e5fda,627c69671a2989b4ffc15cba,2022-05-11_20h56.57.793,classification_task,2021.2.3,Win32,143.000143,627c6715c52fd12f31907bcf,,,,,,,,,,,,,,,,,,,,,,,a,1,"[""0.211"",""0.498"",""0.364"",""0.891""]","[1,1,0,1]",0,50,50,50,1,0,0,,,1,FALSE,0.8967,,,,,,,,,,,,,,,,,,,,,,,,,,,,,,,
,60d0c85826ef72e1f37e5fda,627c69671a2989b4ffc15cba,2022-05-11_20h56.57.793,classification_task,2021.2.3,Win32,143.000143,627c6715c52fd12f31907bcf,,,,,,,,,,,,,,,,,,,,,,,l,1,"[""0.093"",""0.153"",""0.549"",""0.364""]","[1,1,1,0]",0,51,51,51,1,1,1,,,1,FALSE,1.0832,,,,,,,,,,,,,,,,,,,,,,,,,,,,,,,
,60d0c85826ef72e1f37e5fda,627c69671a2989b4ffc15cba,2022-05-11_20h56.57.793,classification_task,2021.2.3,Win32,143.000143,627c6715c52fd12f31907bcf,,,,,,,,,,,,,,,,,,,,,,,a,1,"[""0.698"",""0.408"",""0.781"",""0.966""]","[0,1,1,1]",0,52,52,52,1,0,1,,,1,FALSE,2.7845,,,,,,,,,,,,,,,,,,,,,,,,,,,,,,,
,60d0c85826ef72e1f37e5fda,627c69671a2989b4ffc15cba,2022-05-11_20h56.57.793,classification_task,2021.2.3,Win32,143.000143,627c6715c52fd12f31907bcf,,,,,,,,,,,,,,,,,,,,,,,l,1,"[""0.093"",""0.700"",""0.549"",""0.734""]","[1,0,1,1]",0,53,53,53,1,1,1,,,1,FALSE,1.0086,,,,,,,,,,,,,,,,,,,,,,,,,,,,,,,
,60d0c85826ef72e1f37e5fda,627c69671a2989b4ffc15cba,2022-05-11_20h56.57.793,classification_task,2021.2.3,Win32,143.000143,627c6715c52fd12f31907bcf,,,,,,,,,,,,,,,,,,,,,,,a,1,"[""0.355"",""0.498"",""0.598"",""0.891""]","[0,1,1,1]",0,54,54,54,1,0,0,,,1,FALSE,1.5712,,,,,,,,,,,,,,,,,,,,,,,,,,,,,,,
,60d0c85826ef72e1f37e5fda,627c69671a2989b4ffc15cba,2022-05-11_20h56.57.793,classification_task,2021.2.3,Win32,143.000143,627c6715c52fd12f31907bcf,,,,,,,,,,,,,,,,,,,,,,,l,1,"[""0.651"",""0.153"",""0.549"",""0.734""]","[0,1,1,1]",0,55,55,55,1,1,1,,,1,FALSE,1.8677,,,,,,,,,,,,,,,,,,,,,,,,,,,,,,,
,60d0c85826ef72e1f37e5fda,627c69671a2989b4ffc15cba,2022-05-11_20h56.57.793,classification_task,2021.2.3,Win32,143.000143,627c6715c52fd12f31907bcf,,,,,,,,,,,,,,,,,,,,,,,a,1,"[""0.211"",""0.698"",""0.598"",""0.891""]","[1,0,1,1]",0,56,56,56,1,0,0,,,1,FALSE,2.1453,,,,,,,,,,,,,,,,,,,,,,,,,,,,,,,
,60d0c85826ef72e1f37e5fda,627c69671a2989b4ffc15cba,2022-05-11_20h56.57.793,classification_task,2021.2.3,Win32,143.000143,627c6715c52fd12f31907bcf,,,,,,,,,,,,,,,,,,,,,,,l,1,"[""0.041"",""0.260"",""0.446"",""0.342""]","[1,1,1,0]",0,57,57,57,1,1,0,,,1,FALSE,2.1105,,,,,,,,,,,,,,,,,,,,,,,,,,,,,,,
,60d0c85826ef72e1f37e5fda,627c69671a2989b4ffc15cba,2022-05-11_20h56.57.793,classification_task,2021.2.3,Win32,143.000143,627c6715c52fd12f31907bcf,,,,,,,,,,,,,,,,,,,,,,,a,1,"[""0.308"",""0.350"",""0.781"",""0.966""]","[1,0,1,1]",0,58,58,58,1,0,1,,,1,FALSE,2.1619,,,,,,,,,,,,,,,,,,,,,,,,,,,,,,,
,60d0c85826ef72e1f37e5fda,627c69671a2989b4ffc15cba,2022-05-11_20h56.57.793,classification_task,2021.2.3,Win32,143.000143,627c6715c52fd12f31907bcf,,,,,,,,,,,,,,,,,,,,,,,l,1,"[""0.041"",""0.260"",""0.675"",""0.823""]","[1,1,0,1]",0,59,59,59,1,1,0,,,1,FALSE,1.5235,,,,,,,,,,,,,,,,,,,,,,,,,,,,,,,
,60d0c85826ef72e1f37e5fda,627c69671a2989b4ffc15cba,2022-05-11_20h56.57.793,classification_task,2021.2.3,Win32,143.000143,627c6715c52fd12f31907bcf,,,,,,,,,,,,,,,,,,,,,,,l,1,"[""0.041"",""0.364"",""0.446"",""0.823""]","[1,0,1,1]",0,60,60,60,1,1,0,,,1,FALSE,2.9964,,,,,,,,,,,,,,,,,,,,,,,,,,,,,,,
,60d0c85826ef72e1f37e5fda,627c69671a2989b4ffc15cba,2022-05-11_20h56.57.793,classification_task,2021.2.3,Win32,143.000143,627c6715c52fd12f31907bcf,,,,,,,,,,,,,,,,,,,,,,,l,1,"[""0.093"",""0.153"",""0.857"",""0.734""]","[1,1,0,1]",0,61,61,61,1,1,1,,,1,FALSE,1.8277,,,,,,,,,,,,,,,,,,,,,,,,,,,,,,,
,60d0c85826ef72e1f37e5fda,627c69671a2989b4ffc15cba,2022-05-11_20h56.57.793,classification_task,2021.2.3,Win32,143.000143,627c6715c52fd12f31907bcf,,,,,,,,,,,,,,,,,,,,,,,l,1,"[""0.350"",""0.260"",""0.446"",""0.823""]","[0,1,1,1]",0,62,62,62,1,1,0,,,1,FALSE,1.9469,,,,,,,,,,,,,,,,,,,,,,,,,,,,,,,
,60d0c85826ef72e1f37e5fda,627c69671a2989b4ffc15cba,2022-05-11_20h56.57.793,classification_task,2021.2.3,Win32,143.000143,627c6715c52fd12f31907bcf,,,,,,,,,,,,,,,,,,,,,,,l,0,"[""0.308"",""0.408"",""0.342"",""0.966""]","[1,1,0,1]",0,63,63,63,1,0,1,,,1,FALSE,3.708,,,,,,,,,,,,,,,,,,,,,,,,,,,,,,,
,60d0c85826ef72e1f37e5fda,627c69671a2989b4ffc15cba,2022-05-11_20h56.57.793,classification_task,2021.2.3,Win32,143.000143,627c6715c52fd12f31907bcf,,,,,,,,,,,,,,,,,,,,,,,,,,,,,,,,,,,,,,,0, ,,0,6.959631589,219.3201,0,2,2,2,1,2,3,,,,,,,,,,,,,,,,,,
,60d0c85826ef72e1f37e5fda,627c69671a2989b4ffc15cba,2022-05-11_20h56.57.793,classification_task,2021.2.3,Win32,143.000143,627c6715c52fd12f31907bcf,,,,,,,,,,,,,,,,,,,,,,,,,,,,,,,,,,,,,,,1,  ,,0,7.204585538,221.7022,0,2,2,2,1,2,3,,,,,,,,,,,,,,,,,,
,60d0c85826ef72e1f37e5fda,627c69671a2989b4ffc15cba,2022-05-11_20h56.57.793,classification_task,2021.2.3,Win32,143.000143,627c6715c52fd12f31907bcf,,,,,,,,,,,,,,,,,,,,,,,,,,,,,,,,,,,,,,,2,  ,,0,8.698804625,224.0632,0,2,2,2,1,2,3,,,,,,,,,,,,,,,,,,
,60d0c85826ef72e1f37e5fda,627c69671a2989b4ffc15cba,2022-05-11_20h56.57.793,classification_task,2021.2.3,Win32,143.000143,627c6715c52fd12f31907bcf,,,,,,,,,,,,,,,,,,,,,,,,,,,,,,,,,,,,,,,,,,,,,0,2,2,2,1,,3,,,,,,,,,,,,,,,,,,
,60d0c85826ef72e1f37e5fda,627c69671a2989b4ffc15cba,2022-05-11_20h56.57.793,classification_task,2021.2.3,Win32,143.000143,627c6715c52fd12f31907bcf,,,,,,,,,,,,,,,,,,,,,,,,,,,,,,,,,,,,,,,,,,,,,,,,,,,,,I believe the aid is a competent performer,,0.7,0,3,992.4967,0,0,0,0,1,0,,,,,
,60d0c85826ef72e1f37e5fda,627c69671a2989b4ffc15cba,2022-05-11_20h56.57.793,classification_task,2021.2.3,Win32,143.000143,627c6715c52fd12f31907bcf,,,,,,,,,,,,,,,,,,,,,,,,,,,,,,,,,,,,,,,,,,,,,,,,,,,,,I trust the aid,,0.7,0,4,994.7585,0,0,0,0,1,0,,,,,
,60d0c85826ef72e1f37e5fda,627c69671a2989b4ffc15cba,2022-05-11_20h56.57.793,classification_task,2021.2.3,Win32,143.000143,627c6715c52fd12f31907bcf,,,,,,,,,,,,,,,,,,,,,,,,,,,,,,,,,,,,,,,,,,,,,,,,,,,,,I have confidence in the advice given by the aid,,0.7,0,4,996.6867,0,0,0,0,1,0,,,,,
,60d0c85826ef72e1f37e5fda,627c69671a2989b4ffc15cba,2022-05-11_20h56.57.793,classification_task,2021.2.3,Win32,143.000143,627c6715c52fd12f31907bcf,,,,,,,,,,,,,,,,,,,,,,,,,,,,,,,,,,,,,,,,,,,,,,,,,,,,,I can depend on the aid,,0.7,0,3,999.2898,0,0,0,0,1,0,,,,,
,60d0c85826ef72e1f37e5fda,627c69671a2989b4ffc15cba,2022-05-11_20h56.57.793,classification_task,2021.2.3,Win32,143.000143,627c6715c52fd12f31907bcf,,,,,,,,,,,,,,,,,,,,,,,,,,,,,,,,,,,,,,,,,,,,,,,,,,,,,I can rely on the aid to behave in consistent ways,,0.7,0,2,1002.199,0,0,0,0,1,0,,,,,
,60d0c85826ef72e1f37e5fda,627c69671a2989b4ffc15cba,2022-05-11_20h56.57.793,classification_task,2021.2.3,Win32,143.000143,627c6715c52fd12f31907bcf,,,,,,,,,,,,,,,,,,,,,,,,,,,,,,,,,,,,,,,,,,,,,,,,,,,,,I can rely on the aid to do its best every time I take its advice,,0.7,0,3,1004.9752,0,0,0,0,1,0,,,,,
,60d0c85826ef72e1f37e5fda,627c69671a2989b4ffc15cba,2022-05-11_20h56.57.793,classification_task,2021.2.3,Win32,143.000143,627c6715c52fd12f31907bcf,,,,,,,,,,,,,,,,,,,,,,,,,,,,,,,,,,,,,,,,,,,,,,,,,,,,,"On trials you completed with assistance from the aid, how frequently did you think the aid was correct?",,0.7,0,100,,0,0,0,0,1,0,,,,,
,60d0c85826ef72e1f37e5fda,627c69671a2989b4ffc15cba,2022-05-11_20h56.57.793,classification_task,2021.2.3,Win32,143.000143,627c6715c52fd12f31907bcf,,,,,,,,,,,,,,,,,,,,,,,,,,,,,,,,,,,,,,,,,,,,,,,,,,,,,"On trials you completed without the aid, how frequently did you think you were correct?",,0.7,0,70,,0,0,0,0,1,0,,,,,
,60d0c85826ef72e1f37e5fda,627c69671a2989b4ffc15cba,2022-05-11_20h56.57.793,classification_task,2021.2.3,Win32,143.000143,627c6715c52fd12f31907bcf,,,,,,,,,,,,,,,,,,,,,,,,,,,,,,,,,,,,,,,,,,,,,,,,,,,,,,,,,,,0,0,0,0,1,,,,,,
,60d0c85826ef72e1f37e5fda,627c69671a2989b4ffc15cba,2022-05-11_20h56.57.793,classification_task,2021.2.3,Win32,143.000143,627c6715c52fd12f31907bcf,,,,,,,,,,,,,,,,,,,,,,,,,,,,,,,,,,,,,,,,,,,,,,,,,,,,,,,,,,,,,,,,,space,8.7205,1028.3103,,
,60d0c85826ef72e1f37e5fda,627c69671a2989b4ffc15cba,2022-05-11_20h56.57.793,classification_task,2021.2.3,Win32,143.000143,627c6715c52fd12f31907bcf,,,,,,,,,,,,,,,,,,,,,,,,,,,,,,,,,,,,,,,,,,,,,,,,,,,,,,,,,,,,,,,,,,,,"Mozilla/5.0 (Windows NT 10.0; Win64; x64) AppleWebKit/537.36 (KHTML, like Gecko) Chrome/101.0.4951.54 Safari/537.36",
,60d0c85826ef72e1f37e5fda,627c69671a2989b4ffc15cba,2022-05-11_20h56.57.793,classification_task,2021.2.3,Win32,143.000143,627c6715c52fd12f31907bcf,,,,,,,,,,,,,,,,,,,,,,,,,,,,,,,,,,,,,,,,,,,,,,,,,,,,,,,,,,,,,,,,,,,,,FADING
