usingWebGL,participant,session,date,expName,psychopyVersion,OS,frameRate,study_id,signatures_friend,signatures_foe,band_ranges_top,band_ranges_bottom,formitemText,formtype,formundefined,formitemWidth,formindex,formresponse,formrt,key_resp_2.keys,key_resp_2.rt,tute_resp.keys,tute_resp.rt,tutorial.thisRepN,tutorial.thisTrialN,tutorial.thisN,tutorial.thisIndex,tutorial.ran,key_resp_4.keys,key_resp_4.rt,key_resp.keys,key_resp.corr,key_resp.rt,lines_presented,is_signal_presented,trials.thisRepN,trials.thisTrialN,trials.thisN,trials.thisIndex,trials.ran,vessel,active_band,lines,is_signal,supported_pos,catch_trial,debrief_formindex,debrief_formitemText,debrief_formtype,debrief_formitemWidth,debrief_formresponse,debrief_formrt,phases.thisRepN,phases.thisTrialN,phases.thisN,phases.thisIndex,phases.ran,phases.order,phase,key_resp_3.keys,trustitemText,trusttype,trustitemWidth,trustindex,trustresponse,trustrt,support_status.thisRepN,support_status.thisTrialN,support_status.thisN,support_status.thisIndex,support_status.ran,support_status.order,key_resp_5.keys,key_resp_5.rt,globalClockTime,userAgent,manualCondition
TRUE,60d997ad83fe2612bd0ee817,627c67edeff37cdbda5947e1,2022-05-12_03h53.02.346,classification_task,2021.2.3,Win32,60.0024001,627c6715c52fd12f31907bcf,,,,,,,,,,,,,,,,,,,,,,,,,,,,,,,,,,,,,,,,,,,,,,,,,,,,,,,,,,,,,,,,,,,,,
,60d997ad83fe2612bd0ee817,627c67edeff37cdbda5947e1,2022-05-12_03h53.02.346,classification_task,2021.2.3,Win32,60.0024001,627c6715c52fd12f31907bcf,"[[""0.216"",""0.553"",""0.809"",""0.845""],[""0.321"",""0.355"",""0.882"",""0.933""]]","[[""0.041"",""0.178"",""0.513"",""0.676""],[""0.090"",""0.426"",""0.620"",""0.744""]]","[1,10]","[100,1000]",Video game experience,,,0.7,0,,,,,,,,,,,,,,,,,,,,,,,,,,,,,,,,,,,,,,,,,,,,,,,,,,,,,,,,,,,,
,60d997ad83fe2612bd0ee817,627c67edeff37cdbda5947e1,2022-05-12_03h53.02.346,classification_task,2021.2.3,Win32,60.0024001,627c6715c52fd12f31907bcf,,,,,Approximately how many hours did you spend playing video games in the last week?,,,0.7,0,12,,,,,,,,,,,,,,,,,,,,,,,,,,,,,,,,,,,,,,,,,,,,,,,,,,,,,,,,,,,
,60d997ad83fe2612bd0ee817,627c67edeff37cdbda5947e1,2022-05-12_03h53.02.346,classification_task,2021.2.3,Win32,60.0024001,627c6715c52fd12f31907bcf,,,,,"Which game did you play the most this year? (Enter ""None"" if you didn't play any)",,,0.7,0,first person shooter,,,,,,,,,,,,,,,,,,,,,,,,,,,,,,,,,,,,,,,,,,,,,,,,,,,,,,,,,,,
,60d997ad83fe2612bd0ee817,627c67edeff37cdbda5947e1,2022-05-12_03h53.02.346,classification_task,2021.2.3,Win32,60.0024001,627c6715c52fd12f31907bcf,,,,,Visual perception,,,0.7,0,,,,,,,,,,,,,,,,,,,,,,,,,,,,,,,,,,,,,,,,,,,,,,,,,,,,,,,,,,,,
,60d997ad83fe2612bd0ee817,627c67edeff37cdbda5947e1,2022-05-12_03h53.02.346,classification_task,2021.2.3,Win32,60.0024001,627c6715c52fd12f31907bcf,,,,,Do you have any form of color blindness?,,,0.7,0,No,27.9942,,,,,,,,,,,,,,,,,,,,,,,,,,,,,,,,,,,,,,,,,,,,,,,,,,,,,,,,,,
,60d997ad83fe2612bd0ee817,627c67edeff37cdbda5947e1,2022-05-12_03h53.02.346,classification_task,2021.2.3,Win32,60.0024001,627c6715c52fd12f31907bcf,,,,,Do you use software to change the colour temperature of your screen (e.g. f.lux)?,,,0.7,0,No,41.1247,,,,,,,,,,,,,,,,,,,,,,,,,,,,,,,,,,,,,,,,,,,,,,,,,,,,,,,,,,
,60d997ad83fe2612bd0ee817,627c67edeff37cdbda5947e1,2022-05-12_03h53.02.346,classification_task,2021.2.3,Win32,60.0024001,627c6715c52fd12f31907bcf,,,,,,,,,,,,space,51.9256,space,12.6261,0,0,0,0,1,,,,,,,,,,,,,,,,,,,,,,,,,,,,,,,,,,,,,,,,,,,,,,,,,
,60d997ad83fe2612bd0ee817,627c67edeff37cdbda5947e1,2022-05-12_03h53.02.346,classification_task,2021.2.3,Win32,60.0024001,627c6715c52fd12f31907bcf,,,,,,,,,,,,,,space,7.6353,1,0,1,0,1,,,,,,,,,,,,,,,,,,,,,,,,,,,,,,,,,,,,,,,,,,,,,,,,,
,60d997ad83fe2612bd0ee817,627c67edeff37cdbda5947e1,2022-05-12_03h53.02.346,classification_task,2021.2.3,Win32,60.0024001,627c6715c52fd12f31907bcf,,,,,,,,,,,,,,space,39.1834,2,0,2,0,1,,,,,,,,,,,,,,,,,,,,,,,,,,,,,,,,,,,,,,,,,,,,,,,,,
,60d997ad83fe2612bd0ee817,627c67edeff37cdbda5947e1,2022-05-12_03h53.02.346,classification_task,2021.2.3,Win32,60.0024001,627c6715c52fd12f31907bcf,,,,,,,,,,,,,,space,4.9785,3,0,3,0,1,,,,,,,,,,,,,,,,,,,,,,,,,,,,,,,,,,,,,,,,,,,,,,,,,
,60d997ad83fe2612bd0ee817,627c67edeff37cdbda5947e1,2022-05-12_03h53.02.346,classification_task,2021.2.3,Win32,60.0024001,627c6715c52fd12f31907bcf,,,,,,,,,,,,,,space,33.6368,4,0,4,0,1,,,,,,,,,,,,,,,,,,,,,,,,,,,,,,,,,,,,,,,,,,,,,,,,,
,60d997ad83fe2612bd0ee817,627c67edeff37cdbda5947e1,2022-05-12_03h53.02.346,classification_task,2021.2.3,Win32,60.0024001,627c6715c52fd12f31907bcf,,,,,,,,,,,,,,,,,,,,,space,12.0345,a,1,9.649,"[""0.321"",""0.355"",""0.882"",""0.260""]","[1,1,1,0]",0,0,0,0,1,0,1,,,1,FALSE,,,,,,,,,,,,,,,,,,,,,,,,,,,,,,,
,60d997ad83fe2612bd0ee817,627c67edeff37cdbda5947e1,2022-05-12_03h53.02.346,classification_task,2021.2.3,Win32,60.0024001,627c6715c52fd12f31907bcf,,,,,,,,,,,,,,,,,,,,,,,l,1,3.8616,"[""0.090"",""0.280"",""0.620"",""0.744""]","[1,0,1,1]",0,1,1,1,1,1,1,,,1,FALSE,,,,,,,,,,,,,,,,,,,,,,,,,,,,,,,
,60d997ad83fe2612bd0ee817,627c67edeff37cdbda5947e1,2022-05-12_03h53.02.346,classification_task,2021.2.3,Win32,60.0024001,627c6715c52fd12f31907bcf,,,,,,,,,,,,,,,,,,,,,,,,0,,"[""0.321"",""0.477"",""0.882"",""0.933""]","[1,0,1,1]",0,2,2,2,1,0,1,,,1,FALSE,,,,,,,,,,,,,,,,,,,,,,,,,,,,,,,
,60d997ad83fe2612bd0ee817,627c67edeff37cdbda5947e1,2022-05-12_03h53.02.346,classification_task,2021.2.3,Win32,60.0024001,627c6715c52fd12f31907bcf,,,,,,,,,,,,,,,,,,,,,,,l,0,6.3156,"[""0.216"",""0.975"",""0.809"",""0.845""]","[1,0,1,1]",0,3,3,3,1,0,0,,,1,FALSE,,,,,,,,,,,,,,,,,,,,,,,,,,,,,,,
,60d997ad83fe2612bd0ee817,627c67edeff37cdbda5947e1,2022-05-12_03h53.02.346,classification_task,2021.2.3,Win32,60.0024001,627c6715c52fd12f31907bcf,,,,,,,,,,,,,,,,,,,,,,,l,1,4.144,"[""0.967"",""0.426"",""0.620"",""0.744""]","[0,1,1,1]",0,4,4,4,1,1,1,,,1,FALSE,,,,,,,,,,,,,,,,,,,,,,,,,,,,,,,
,60d997ad83fe2612bd0ee817,627c67edeff37cdbda5947e1,2022-05-12_03h53.02.346,classification_task,2021.2.3,Win32,60.0024001,627c6715c52fd12f31907bcf,,,,,,,,,,,,,,,,,,,,,,,l,1,3.3608,"[""0.090"",""0.426"",""0.142"",""0.744""]","[1,1,0,1]",0,5,5,5,1,1,1,,,1,FALSE,,,,,,,,,,,,,,,,,,,,,,,,,,,,,,,
,60d997ad83fe2612bd0ee817,627c67edeff37cdbda5947e1,2022-05-12_03h53.02.346,classification_task,2021.2.3,Win32,60.0024001,627c6715c52fd12f31907bcf,,,,,,,,,,,,,,,,,,,,,,,a,1,4.2804,"[""0.587"",""0.355"",""0.882"",""0.933""]","[0,1,1,1]",0,6,6,6,1,0,1,,,1,FALSE,,,,,,,,,,,,,,,,,,,,,,,,,,,,,,,
,60d997ad83fe2612bd0ee817,627c67edeff37cdbda5947e1,2022-05-12_03h53.02.346,classification_task,2021.2.3,Win32,60.0024001,627c6715c52fd12f31907bcf,,,,,,,,,,,,,,,,,,,,,,,l,1,7.6538,"[""0.278"",""0.178"",""0.513"",""0.676""]","[0,1,1,1]",0,7,7,7,1,1,0,,,1,FALSE,,,,,,,,,,,,,,,,,,,,,,,,,,,,,,,
,60d997ad83fe2612bd0ee817,627c67edeff37cdbda5947e1,2022-05-12_03h53.02.346,classification_task,2021.2.3,Win32,60.0024001,627c6715c52fd12f31907bcf,,,,,,,,,,,,,,,,,,,,,,,l,0,6.2176,"[""0.216"",""0.553"",""0.809"",""0.262""]","[1,1,1,0]",0,8,8,8,1,0,0,,,1,FALSE,,,,,,,,,,,,,,,,,,,,,,,,,,,,,,,
,60d997ad83fe2612bd0ee817,627c67edeff37cdbda5947e1,2022-05-12_03h53.02.346,classification_task,2021.2.3,Win32,60.0024001,627c6715c52fd12f31907bcf,,,,,,,,,,,,,,,,,,,,,,,a,1,4.2277,"[""0.321"",""0.355"",""0.280"",""0.933""]","[1,1,0,1]",0,9,9,9,1,0,1,,,1,FALSE,,,,,,,,,,,,,,,,,,,,,,,,,,,,,,,
,60d997ad83fe2612bd0ee817,627c67edeff37cdbda5947e1,2022-05-12_03h53.02.346,classification_task,2021.2.3,Win32,60.0024001,627c6715c52fd12f31907bcf,,,,,,,,,,,,,,,,,,,,,,,a,0,9.1873,"[""0.041"",""0.262"",""0.513"",""0.676""]","[1,0,1,1]",0,10,10,10,1,1,0,,,1,FALSE,,,,,,,,,,,,,,,,,,,,,,,,,,,,,,,
,60d997ad83fe2612bd0ee817,627c67edeff37cdbda5947e1,2022-05-12_03h53.02.346,classification_task,2021.2.3,Win32,60.0024001,627c6715c52fd12f31907bcf,,,,,,,,,,,,,,,,,,,,,,,l,0,3.2576,"[""0.967"",""0.553"",""0.809"",""0.845""]","[0,1,1,1]",0,11,11,11,1,0,0,,,1,FALSE,,,,,,,,,,,,,,,,,,,,,,,,,,,,,,,
,60d997ad83fe2612bd0ee817,627c67edeff37cdbda5947e1,2022-05-12_03h53.02.346,classification_task,2021.2.3,Win32,60.0024001,627c6715c52fd12f31907bcf,,,,,,,,,,,,,,,,,,,,,,,,0,,"[""0.041"",""0.178"",""0.513"",""0.262""]","[1,1,1,0]",0,12,12,12,1,1,0,,,1,FALSE,,,,,,,,,,,,,,,,,,,,,,,,,,,,,,,
,60d997ad83fe2612bd0ee817,627c67edeff37cdbda5947e1,2022-05-12_03h53.02.346,classification_task,2021.2.3,Win32,60.0024001,627c6715c52fd12f31907bcf,,,,,,,,,,,,,,,,,,,,,,,a,1,4.7803,"[""0.216"",""0.553"",""0.142"",""0.845""]","[1,1,0,1]",0,13,13,13,1,0,0,,,1,FALSE,,,,,,,,,,,,,,,,,,,,,,,,,,,,,,,
,60d997ad83fe2612bd0ee817,627c67edeff37cdbda5947e1,2022-05-12_03h53.02.346,classification_task,2021.2.3,Win32,60.0024001,627c6715c52fd12f31907bcf,,,,,,,,,,,,,,,,,,,,,,,a,0,9.0578,"[""0.041"",""0.178"",""0.975"",""0.676""]","[1,1,0,1]",0,14,14,14,1,1,0,,,1,FALSE,,,,,,,,,,,,,,,,,,,,,,,,,,,,,,,
,60d997ad83fe2612bd0ee817,627c67edeff37cdbda5947e1,2022-05-12_03h53.02.346,classification_task,2021.2.3,Win32,60.0024001,627c6715c52fd12f31907bcf,,,,,,,,,,,,,,,,,,,,,,,l,1,4.2605,"[""0.090"",""0.426"",""0.620"",""0.474""]","[1,1,1,0]",0,15,15,15,1,1,1,,,1,FALSE,,,,,,,,,,,,,,,,,,,,,,,,,,,,,,,
,60d997ad83fe2612bd0ee817,627c67edeff37cdbda5947e1,2022-05-12_03h53.02.346,classification_task,2021.2.3,Win32,60.0024001,627c6715c52fd12f31907bcf,,,,,,,,,,,,,,,,,,,,,,,l,0,8.0456,"[""0.216"",""0.553"",""0.258"",""0.845""]","[1,1,0,1]",0,16,16,16,1,0,0,,,1,FALSE,,,,,,,,,,,,,,,,,,,,,,,,,,,,,,,
,60d997ad83fe2612bd0ee817,627c67edeff37cdbda5947e1,2022-05-12_03h53.02.346,classification_task,2021.2.3,Win32,60.0024001,627c6715c52fd12f31907bcf,,,,,,,,,,,,,,,,,,,,,,,a,0,6.3961,"[""0.278"",""0.426"",""0.620"",""0.744""]","[0,1,1,1]",0,17,17,17,1,1,1,,,1,FALSE,,,,,,,,,,,,,,,,,,,,,,,,,,,,,,,
,60d997ad83fe2612bd0ee817,627c67edeff37cdbda5947e1,2022-05-12_03h53.02.346,classification_task,2021.2.3,Win32,60.0024001,627c6715c52fd12f31907bcf,,,,,,,,,,,,,,,,,,,,,,,l,1,5.8663,"[""0.090"",""0.426"",""0.278"",""0.744""]","[1,1,0,1]",0,18,18,18,1,1,1,,,1,FALSE,,,,,,,,,,,,,,,,,,,,,,,,,,,,,,,
,60d997ad83fe2612bd0ee817,627c67edeff37cdbda5947e1,2022-05-12_03h53.02.346,classification_task,2021.2.3,Win32,60.0024001,627c6715c52fd12f31907bcf,,,,,,,,,,,,,,,,,,,,,,,a,0,9.0389,"[""0.975"",""0.178"",""0.513"",""0.676""]","[0,1,1,1]",0,19,19,19,1,1,0,,,1,FALSE,,,,,,,,,,,,,,,,,,,,,,,,,,,,,,,
,60d997ad83fe2612bd0ee817,627c67edeff37cdbda5947e1,2022-05-12_03h53.02.346,classification_task,2021.2.3,Win32,60.0024001,627c6715c52fd12f31907bcf,,,,,,,,,,,,,,,,,,,,,,,a,1,1.4209,"[""0.216"",""0.553"",""0.809"",""0.975""]","[1,1,1,0]",0,20,20,20,1,0,0,,,1,FALSE,,,,,,,,,,,,,,,,,,,,,,,,,,,,,,,
,60d997ad83fe2612bd0ee817,627c67edeff37cdbda5947e1,2022-05-12_03h53.02.346,classification_task,2021.2.3,Win32,60.0024001,627c6715c52fd12f31907bcf,,,,,,,,,,,,,,,,,,,,,,,a,0,3.5759,"[""0.090"",""0.426"",""0.620"",""0.967""]","[1,1,1,0]",0,21,21,21,1,1,1,,,1,FALSE,,,,,,,,,,,,,,,,,,,,,,,,,,,,,,,
,60d997ad83fe2612bd0ee817,627c67edeff37cdbda5947e1,2022-05-12_03h53.02.346,classification_task,2021.2.3,Win32,60.0024001,627c6715c52fd12f31907bcf,,,,,,,,,,,,,,,,,,,,,,,l,1,6.2492,"[""0.041"",""0.178"",""0.278"",""0.676""]","[1,1,0,1]",0,22,22,22,1,1,0,,,1,FALSE,,,,,,,,,,,,,,,,,,,,,,,,,,,,,,,
,60d997ad83fe2612bd0ee817,627c67edeff37cdbda5947e1,2022-05-12_03h53.02.346,classification_task,2021.2.3,Win32,60.0024001,627c6715c52fd12f31907bcf,,,,,,,,,,,,,,,,,,,,,,,a,0,6.501,"[""0.041"",""0.178"",""0.513"",""0.967""]","[1,1,1,0]",0,23,23,23,1,1,0,,,1,FALSE,,,,,,,,,,,,,,,,,,,,,,,,,,,,,,,
,60d997ad83fe2612bd0ee817,627c67edeff37cdbda5947e1,2022-05-12_03h53.02.346,classification_task,2021.2.3,Win32,60.0024001,627c6715c52fd12f31907bcf,,,,,,,,,,,,,,,,,,,,,,,a,1,5.8313,"[""0.587"",""0.355"",""0.882"",""0.933""]","[0,1,1,1]",0,24,24,24,1,0,1,,,1,FALSE,,,,,,,,,,,,,,,,,,,,,,,,,,,,,,,
,60d997ad83fe2612bd0ee817,627c67edeff37cdbda5947e1,2022-05-12_03h53.02.346,classification_task,2021.2.3,Win32,60.0024001,627c6715c52fd12f31907bcf,,,,,,,,,,,,,,,,,,,,,,,l,0,5.1617,"[""0.216"",""0.278"",""0.809"",""0.845""]","[1,0,1,1]",0,25,25,25,1,0,0,,,1,FALSE,,,,,,,,,,,,,,,,,,,,,,,,,,,,,,,
,60d997ad83fe2612bd0ee817,627c67edeff37cdbda5947e1,2022-05-12_03h53.02.346,classification_task,2021.2.3,Win32,60.0024001,627c6715c52fd12f31907bcf,,,,,,,,,,,,,,,,,,,,,,,a,1,4.5277,"[""0.321"",""0.262"",""0.882"",""0.933""]","[1,0,1,1]",0,26,26,26,1,0,1,,,1,FALSE,,,,,,,,,,,,,,,,,,,,,,,,,,,,,,,
,60d997ad83fe2612bd0ee817,627c67edeff37cdbda5947e1,2022-05-12_03h53.02.346,classification_task,2021.2.3,Win32,60.0024001,627c6715c52fd12f31907bcf,,,,,,,,,,,,,,,,,,,,,,,a,1,1.6057,"[""0.321"",""0.355"",""0.882"",""0.278""]","[1,1,1,0]",0,27,27,27,1,0,1,,,1,FALSE,,,,,,,,,,,,,,,,,,,,,,,,,,,,,,,
,60d997ad83fe2612bd0ee817,627c67edeff37cdbda5947e1,2022-05-12_03h53.02.346,classification_task,2021.2.3,Win32,60.0024001,627c6715c52fd12f31907bcf,,,,,,,,,,,,,,,,,,,,,,,l,0,5.0288,"[""0.280"",""0.553"",""0.809"",""0.845""]","[0,1,1,1]",0,28,28,28,1,0,0,,,1,FALSE,,,,,,,,,,,,,,,,,,,,,,,,,,,,,,,
,60d997ad83fe2612bd0ee817,627c67edeff37cdbda5947e1,2022-05-12_03h53.02.346,classification_task,2021.2.3,Win32,60.0024001,627c6715c52fd12f31907bcf,,,,,,,,,,,,,,,,,,,,,,,a,1,4.4782,"[""0.321"",""0.355"",""0.260"",""0.933""]","[1,1,0,1]",0,29,29,29,1,0,1,,,1,FALSE,,,,,,,,,,,,,,,,,,,,,,,,,,,,,,,
,60d997ad83fe2612bd0ee817,627c67edeff37cdbda5947e1,2022-05-12_03h53.02.346,classification_task,2021.2.3,Win32,60.0024001,627c6715c52fd12f31907bcf,,,,,,,,,,,,,,,,,,,,,,,l,1,6.1342,"[""0.090"",""0.477"",""0.620"",""0.744""]","[1,0,1,1]",0,30,30,30,1,1,1,,,1,FALSE,,,,,,,,,,,,,,,,,,,,,,,,,,,,,,,
,60d997ad83fe2612bd0ee817,627c67edeff37cdbda5947e1,2022-05-12_03h53.02.346,classification_task,2021.2.3,Win32,60.0024001,627c6715c52fd12f31907bcf,,,,,,,,,,,,,,,,,,,,,,,l,1,5.9481,"[""0.041"",""0.142"",""0.513"",""0.676""]","[1,0,1,1]",0,31,31,31,1,1,0,,,1,FALSE,,,,,,,,,,,,,,,,,,,,,,,,,,,,,,,
,60d997ad83fe2612bd0ee817,627c67edeff37cdbda5947e1,2022-05-12_03h53.02.346,classification_task,2021.2.3,Win32,60.0024001,627c6715c52fd12f31907bcf,,,,,,,,,,,,,,,,,,,,,,,l,0,2.4683,"[""0.216"",""0.553"",""0.809"",""0.258""]","[1,1,1,0]",0,32,32,32,1,0,0,,,1,FALSE,,,,,,,,,,,,,,,,,,,,,,,,,,,,,,,
,60d997ad83fe2612bd0ee817,627c67edeff37cdbda5947e1,2022-05-12_03h53.02.346,classification_task,2021.2.3,Win32,60.0024001,627c6715c52fd12f31907bcf,,,,,,,,,,,,,,,,,,,,,,,l,1,3.1255,"[""0.090"",""0.426"",""0.620"",""0.587""]","[1,1,1,0]",0,33,33,33,1,1,1,,,1,FALSE,,,,,,,,,,,,,,,,,,,,,,,,,,,,,,,
,60d997ad83fe2612bd0ee817,627c67edeff37cdbda5947e1,2022-05-12_03h53.02.346,classification_task,2021.2.3,Win32,60.0024001,627c6715c52fd12f31907bcf,,,,,,,,,,,,,,,,,,,,,,,a,1,1.0365,"[""0.321"",""0.355"",""0.262"",""0.933""]","[1,1,0,1]",0,34,34,34,1,0,1,,,1,FALSE,,,,,,,,,,,,,,,,,,,,,,,,,,,,,,,
,60d997ad83fe2612bd0ee817,627c67edeff37cdbda5947e1,2022-05-12_03h53.02.346,classification_task,2021.2.3,Win32,60.0024001,627c6715c52fd12f31907bcf,,,,,,,,,,,,,,,,,,,,,,,l,0,5.1634,"[""0.321"",""0.355"",""0.882"",""0.142""]","[1,1,1,0]",0,35,35,35,1,0,1,,,1,FALSE,,,,,,,,,,,,,,,,,,,,,,,,,,,,,,,
,60d997ad83fe2612bd0ee817,627c67edeff37cdbda5947e1,2022-05-12_03h53.02.346,classification_task,2021.2.3,Win32,60.0024001,627c6715c52fd12f31907bcf,,,,,,,,,,,,,,,,,,,,,,,a,1,1.0037,"[""0.477"",""0.553"",""0.809"",""0.845""]","[0,1,1,1]",0,36,36,36,1,0,0,,,1,FALSE,,,,,,,,,,,,,,,,,,,,,,,,,,,,,,,
,60d997ad83fe2612bd0ee817,627c67edeff37cdbda5947e1,2022-05-12_03h53.02.346,classification_task,2021.2.3,Win32,60.0024001,627c6715c52fd12f31907bcf,,,,,,,,,,,,,,,,,,,,,,,l,1,4.1602,"[""0.090"",""0.975"",""0.620"",""0.744""]","[1,0,1,1]",0,37,37,37,1,1,1,,,1,FALSE,,,,,,,,,,,,,,,,,,,,,,,,,,,,,,,
,60d997ad83fe2612bd0ee817,627c67edeff37cdbda5947e1,2022-05-12_03h53.02.346,classification_task,2021.2.3,Win32,60.0024001,627c6715c52fd12f31907bcf,,,,,,,,,,,,,,,,,,,,,,,a,1,1.9066,"[""0.474"",""0.355"",""0.882"",""0.933""]","[0,1,1,1]",0,38,38,38,1,0,1,,,1,FALSE,,,,,,,,,,,,,,,,,,,,,,,,,,,,,,,
,60d997ad83fe2612bd0ee817,627c67edeff37cdbda5947e1,2022-05-12_03h53.02.346,classification_task,2021.2.3,Win32,60.0024001,627c6715c52fd12f31907bcf,,,,,,,,,,,,,,,,,,,,,,,l,1,1.1869,"[""0.142"",""0.426"",""0.620"",""0.744""]","[0,1,1,1]",0,39,39,39,1,1,1,,,1,FALSE,,,,,,,,,,,,,,,,,,,,,,,,,,,,,,,
,60d997ad83fe2612bd0ee817,627c67edeff37cdbda5947e1,2022-05-12_03h53.02.346,classification_task,2021.2.3,Win32,60.0024001,627c6715c52fd12f31907bcf,,,,,,,,,,,,,,,,,,,,,,,l,1,0.9021,"[""0.090"",""0.426"",""0.587"",""0.744""]","[1,1,0,1]",0,40,40,40,1,1,1,,,1,FALSE,,,,,,,,,,,,,,,,,,,,,,,,,,,,,,,
,60d997ad83fe2612bd0ee817,627c67edeff37cdbda5947e1,2022-05-12_03h53.02.346,classification_task,2021.2.3,Win32,60.0024001,627c6715c52fd12f31907bcf,,,,,,,,,,,,,,,,,,,,,,,a,0,1.4208,"[""0.041"",""0.178"",""0.513"",""0.142""]","[1,1,1,0]",0,41,41,41,1,1,0,,,1,FALSE,,,,,,,,,,,,,,,,,,,,,,,,,,,,,,,
,60d997ad83fe2612bd0ee817,627c67edeff37cdbda5947e1,2022-05-12_03h53.02.346,classification_task,2021.2.3,Win32,60.0024001,627c6715c52fd12f31907bcf,,,,,,,,,,,,,,,,,,,,,,,l,0,1.2697,"[""0.321"",""0.477"",""0.882"",""0.933""]","[1,0,1,1]",0,42,42,42,1,0,1,,,1,FALSE,,,,,,,,,,,,,,,,,,,,,,,,,,,,,,,
,60d997ad83fe2612bd0ee817,627c67edeff37cdbda5947e1,2022-05-12_03h53.02.346,classification_task,2021.2.3,Win32,60.0024001,627c6715c52fd12f31907bcf,,,,,,,,,,,,,,,,,,,,,,,l,1,0.9528,"[""0.261"",""0.178"",""0.513"",""0.676""]","[0,1,1,1]",0,43,43,43,1,1,0,,,1,FALSE,,,,,,,,,,,,,,,,,,,,,,,,,,,,,,,
,60d997ad83fe2612bd0ee817,627c67edeff37cdbda5947e1,2022-05-12_03h53.02.346,classification_task,2021.2.3,Win32,60.0024001,627c6715c52fd12f31907bcf,,,,,,,,,,,,,,,,,,,,,,,a,1,3.6268,"[""0.216"",""0.553"",""0.967"",""0.845""]","[1,1,0,1]",0,44,44,44,1,0,0,,,1,FALSE,,,,,,,,,,,,,,,,,,,,,,,,,,,,,,,
,60d997ad83fe2612bd0ee817,627c67edeff37cdbda5947e1,2022-05-12_03h53.02.346,classification_task,2021.2.3,Win32,60.0024001,627c6715c52fd12f31907bcf,,,,,,,,,,,,,,,,,,,,,,,l,1,1.7058,"[""0.041"",""0.178"",""0.975"",""0.676""]","[1,1,0,1]",0,45,45,45,1,1,0,,,1,FALSE,,,,,,,,,,,,,,,,,,,,,,,,,,,,,,,
,60d997ad83fe2612bd0ee817,627c67edeff37cdbda5947e1,2022-05-12_03h53.02.346,classification_task,2021.2.3,Win32,60.0024001,627c6715c52fd12f31907bcf,,,,,,,,,,,,,,,,,,,,,,,a,0,0.8028,"[""0.041"",""0.138"",""0.513"",""0.676""]","[1,0,1,1]",0,46,46,46,1,1,0,,,1,FALSE,,,,,,,,,,,,,,,,,,,,,,,,,,,,,,,
,60d997ad83fe2612bd0ee817,627c67edeff37cdbda5947e1,2022-05-12_03h53.02.346,classification_task,2021.2.3,Win32,60.0024001,627c6715c52fd12f31907bcf,,,,,,,,,,,,,,,,,,,,,,,a,1,0.67,"[""0.216"",""0.258"",""0.809"",""0.845""]","[1,0,1,1]",0,47,47,47,1,0,0,,,1,FALSE,,,,,,,,,,,,,,,,,,,,,,,,,,,,,,,
,60d997ad83fe2612bd0ee817,627c67edeff37cdbda5947e1,2022-05-12_03h53.02.346,classification_task,2021.2.3,Win32,60.0024001,627c6715c52fd12f31907bcf,,,,,,,,,,,,,,,,,,,,,,,a,0,1.2371,"[""0.090"",""0.426"",""0.262"",""0.744""]","[1,1,0,1]",0,48,48,48,1,1,1,,,1,FALSE,,,,,,,,,,,,,,,,,,,,,,,,,,,,,,,
,60d997ad83fe2612bd0ee817,627c67edeff37cdbda5947e1,2022-05-12_03h53.02.346,classification_task,2021.2.3,Win32,60.0024001,627c6715c52fd12f31907bcf,,,,,,,,,,,,,,,,,,,,,,,a,1,0.4682,"[""0.261"",""0.355"",""0.882"",""0.933""]","[0,1,1,1]",0,49,49,49,1,0,1,,,1,FALSE,,,,,,,,,,,,,,,,,,,,,,,,,,,,,,,
,60d997ad83fe2612bd0ee817,627c67edeff37cdbda5947e1,2022-05-12_03h53.02.346,classification_task,2021.2.3,Win32,60.0024001,627c6715c52fd12f31907bcf,,,,,,,,,,,,,,,,,,,,,,,l,1,1.1036,"[""0.967"",""0.426"",""0.620"",""0.744""]","[0,1,1,1]",0,50,50,50,1,1,1,,,1,FALSE,,,,,,,,,,,,,,,,,,,,,,,,,,,,,,,
,60d997ad83fe2612bd0ee817,627c67edeff37cdbda5947e1,2022-05-12_03h53.02.346,classification_task,2021.2.3,Win32,60.0024001,627c6715c52fd12f31907bcf,,,,,,,,,,,,,,,,,,,,,,,l,1,0.6859,"[""0.041"",""0.178"",""0.142"",""0.676""]","[1,1,0,1]",0,51,51,51,1,1,0,,,1,FALSE,,,,,,,,,,,,,,,,,,,,,,,,,,,,,,,
,60d997ad83fe2612bd0ee817,627c67edeff37cdbda5947e1,2022-05-12_03h53.02.346,classification_task,2021.2.3,Win32,60.0024001,627c6715c52fd12f31907bcf,,,,,,,,,,,,,,,,,,,,,,,a,1,1.6379,"[""0.321"",""0.355"",""0.882"",""0.258""]","[1,1,1,0]",0,52,52,52,1,0,1,,,1,FALSE,,,,,,,,,,,,,,,,,,,,,,,,,,,,,,,
,60d997ad83fe2612bd0ee817,627c67edeff37cdbda5947e1,2022-05-12_03h53.02.346,classification_task,2021.2.3,Win32,60.0024001,627c6715c52fd12f31907bcf,,,,,,,,,,,,,,,,,,,,,,,a,0,2.0899,"[""0.090"",""0.258"",""0.620"",""0.744""]","[1,0,1,1]",0,53,53,53,1,1,1,,,1,FALSE,,,,,,,,,,,,,,,,,,,,,,,,,,,,,,,
,60d997ad83fe2612bd0ee817,627c67edeff37cdbda5947e1,2022-05-12_03h53.02.346,classification_task,2021.2.3,Win32,60.0024001,627c6715c52fd12f31907bcf,,,,,,,,,,,,,,,,,,,,,,,a,1,0.6686,"[""0.321"",""0.142"",""0.882"",""0.933""]","[1,0,1,1]",0,54,54,54,1,0,1,,,1,FALSE,,,,,,,,,,,,,,,,,,,,,,,,,,,,,,,
,60d997ad83fe2612bd0ee817,627c67edeff37cdbda5947e1,2022-05-12_03h53.02.346,classification_task,2021.2.3,Win32,60.0024001,627c6715c52fd12f31907bcf,,,,,,,,,,,,,,,,,,,,,,,l,0,1.7858,"[""0.967"",""0.553"",""0.809"",""0.845""]","[0,1,1,1]",0,55,55,55,1,0,0,,,1,FALSE,,,,,,,,,,,,,,,,,,,,,,,,,,,,,,,
,60d997ad83fe2612bd0ee817,627c67edeff37cdbda5947e1,2022-05-12_03h53.02.346,classification_task,2021.2.3,Win32,60.0024001,627c6715c52fd12f31907bcf,,,,,,,,,,,,,,,,,,,,,,,l,0,0.6859,"[""0.216"",""0.553"",""0.260"",""0.845""]","[1,1,0,1]",0,56,56,56,1,0,0,,,1,FALSE,,,,,,,,,,,,,,,,,,,,,,,,,,,,,,,
,60d997ad83fe2612bd0ee817,627c67edeff37cdbda5947e1,2022-05-12_03h53.02.346,classification_task,2021.2.3,Win32,60.0024001,627c6715c52fd12f31907bcf,,,,,,,,,,,,,,,,,,,,,,,a,0,0.903,"[""0.090"",""0.426"",""0.620"",""0.587""]","[1,1,1,0]",0,57,57,57,1,1,1,,,1,FALSE,,,,,,,,,,,,,,,,,,,,,,,,,,,,,,,
,60d997ad83fe2612bd0ee817,627c67edeff37cdbda5947e1,2022-05-12_03h53.02.346,classification_task,2021.2.3,Win32,60.0024001,627c6715c52fd12f31907bcf,,,,,,,,,,,,,,,,,,,,,,,l,0,1.7391,"[""0.216"",""0.553"",""0.809"",""0.477""]","[1,1,1,0]",0,58,58,58,1,0,0,,,1,FALSE,,,,,,,,,,,,,,,,,,,,,,,,,,,,,,,
,60d997ad83fe2612bd0ee817,627c67edeff37cdbda5947e1,2022-05-12_03h53.02.346,classification_task,2021.2.3,Win32,60.0024001,627c6715c52fd12f31907bcf,,,,,,,,,,,,,,,,,,,,,,,l,1,0.636,"[""0.041"",""0.178"",""0.513"",""0.260""]","[1,1,1,0]",0,59,59,59,1,1,0,,,1,FALSE,,,,,,,,,,,,,,,,,,,,,,,,,,,,,,,
,60d997ad83fe2612bd0ee817,627c67edeff37cdbda5947e1,2022-05-12_03h53.02.346,classification_task,2021.2.3,Win32,60.0024001,627c6715c52fd12f31907bcf,,,,,,,,,,,,,,,,,,,,,,,a,0,2.4067,"[""0.041"",""0.280"",""0.513"",""0.676""]","[1,0,1,1]",0,60,60,60,1,1,0,,,1,FALSE,,,,,,,,,,,,,,,,,,,,,,,,,,,,,,,
,60d997ad83fe2612bd0ee817,627c67edeff37cdbda5947e1,2022-05-12_03h53.02.346,classification_task,2021.2.3,Win32,60.0024001,627c6715c52fd12f31907bcf,,,,,,,,,,,,,,,,,,,,,,,a,1,0.7689,"[""0.216"",""0.975"",""0.809"",""0.845""]","[1,0,1,1]",0,61,61,61,1,0,0,,,1,FALSE,,,,,,,,,,,,,,,,,,,,,,,,,,,,,,,
,60d997ad83fe2612bd0ee817,627c67edeff37cdbda5947e1,2022-05-12_03h53.02.346,classification_task,2021.2.3,Win32,60.0024001,627c6715c52fd12f31907bcf,,,,,,,,,,,,,,,,,,,,,,,a,1,1.036,"[""0.321"",""0.355"",""0.142"",""0.933""]","[1,1,0,1]",0,62,62,62,1,0,1,,,1,FALSE,,,,,,,,,,,,,,,,,,,,,,,,,,,,,,,
,60d997ad83fe2612bd0ee817,627c67edeff37cdbda5947e1,2022-05-12_03h53.02.346,classification_task,2021.2.3,Win32,60.0024001,627c6715c52fd12f31907bcf,,,,,,,,,,,,,,,,,,,,,,,a,0,1.4137,"[""0.258"",""0.178"",""0.513"",""0.676""]","[0,1,1,1]",0,63,63,63,1,1,0,,,1,FALSE,,,,,,,,,,,,,,,,,,,,,,,,,,,,,,,
,60d997ad83fe2612bd0ee817,627c67edeff37cdbda5947e1,2022-05-12_03h53.02.346,classification_task,2021.2.3,Win32,60.0024001,627c6715c52fd12f31907bcf,,,,,,,,,,,,,,,,,,,,,,,,,,,,,,,,,,,,,,,0, ,,0,9.788084215,562.883,0,0,0,0,1,2,1,,,,,,,,,,,,,,,,,,
,60d997ad83fe2612bd0ee817,627c67edeff37cdbda5947e1,2022-05-12_03h53.02.346,classification_task,2021.2.3,Win32,60.0024001,627c6715c52fd12f31907bcf,,,,,,,,,,,,,,,,,,,,,,,,,,,,,,,,,,,,,,,1,  ,,0,10,571.971,0,0,0,0,1,2,1,,,,,,,,,,,,,,,,,,
,60d997ad83fe2612bd0ee817,627c67edeff37cdbda5947e1,2022-05-12_03h53.02.346,classification_task,2021.2.3,Win32,60.0024001,627c6715c52fd12f31907bcf,,,,,,,,,,,,,,,,,,,,,,,,,,,,,,,,,,,,,,,2,  ,,0,2.657627866,555.9923,0,0,0,0,1,2,1,,,,,,,,,,,,,,,,,,
,60d997ad83fe2612bd0ee817,627c67edeff37cdbda5947e1,2022-05-12_03h53.02.346,classification_task,2021.2.3,Win32,60.0024001,627c6715c52fd12f31907bcf,,,,,,,,,,,,,,,,,,,,,,,,,,,,,,,,,,,,,,,,,,,,,0,0,0,0,1,,1,,,,,,,,,,,,,,,,,,
,60d997ad83fe2612bd0ee817,627c67edeff37cdbda5947e1,2022-05-12_03h53.02.346,classification_task,2021.2.3,Win32,60.0024001,627c6715c52fd12f31907bcf,,,,,,,,,,,,,,,,,,,,,space,46.0464,a,1,5.9812,"[""0.321"",""0.261"",""0.882"",""0.933""]","[1,0,1,1]",0,0,0,0,1,0,1,,,1,FALSE,,,,,,,,,,,,,,,,,,,,,,,,,,,,,,,
,60d997ad83fe2612bd0ee817,627c67edeff37cdbda5947e1,2022-05-12_03h53.02.346,classification_task,2021.2.3,Win32,60.0024001,627c6715c52fd12f31907bcf,,,,,,,,,,,,,,,,,,,,,,,l,1,2.657,"[""0.261"",""0.178"",""0.513"",""0.676""]","[0,1,1,1]",0,1,1,1,1,1,0,,,1,FALSE,,,,,,,,,,,,,,,,,,,,,,,,,,,,,,,
,60d997ad83fe2612bd0ee817,627c67edeff37cdbda5947e1,2022-05-12_03h53.02.346,classification_task,2021.2.3,Win32,60.0024001,627c6715c52fd12f31907bcf,,,,,,,,,,,,,,,,,,,,,,,l,1,1.7702,"[""0.477"",""0.426"",""0.620"",""0.744""]","[0,1,1,1]",0,2,2,2,1,1,1,,,1,FALSE,,,,,,,,,,,,,,,,,,,,,,,,,,,,,,,
,60d997ad83fe2612bd0ee817,627c67edeff37cdbda5947e1,2022-05-12_03h53.02.346,classification_task,2021.2.3,Win32,60.0024001,627c6715c52fd12f31907bcf,,,,,,,,,,,,,,,,,,,,,,,l,1,3.3088,"[""0.041"",""0.178"",""0.513"",""0.261""]","[1,1,1,0]",0,3,3,3,1,1,0,,,1,FALSE,,,,,,,,,,,,,,,,,,,,,,,,,,,,,,,
,60d997ad83fe2612bd0ee817,627c67edeff37cdbda5947e1,2022-05-12_03h53.02.346,classification_task,2021.2.3,Win32,60.0024001,627c6715c52fd12f31907bcf,,,,,,,,,,,,,,,,,,,,,,,l,1,2.7894,"[""0.090"",""0.280"",""0.620"",""0.744""]","[1,0,1,1]",0,4,4,4,1,1,1,,,1,FALSE,,,,,,,,,,,,,,,,,,,,,,,,,,,,,,,
,60d997ad83fe2612bd0ee817,627c67edeff37cdbda5947e1,2022-05-12_03h53.02.346,classification_task,2021.2.3,Win32,60.0024001,627c6715c52fd12f31907bcf,,,,,,,,,,,,,,,,,,,,,,,a,1,0.9318,"[""0.216"",""0.138"",""0.809"",""0.845""]","[1,0,1,1]",0,5,5,5,1,0,0,,,1,FALSE,,,,,,,,,,,,,,,,,,,,,,,,,,,,,,,
,60d997ad83fe2612bd0ee817,627c67edeff37cdbda5947e1,2022-05-12_03h53.02.346,classification_task,2021.2.3,Win32,60.0024001,627c6715c52fd12f31907bcf,,,,,,,,,,,,,,,,,,,,,,,a,1,2.4063,"[""0.321"",""0.355"",""0.882"",""0.975""]","[1,1,1,0]",0,6,6,6,1,0,1,,,1,FALSE,,,,,,,,,,,,,,,,,,,,,,,,,,,,,,,
,60d997ad83fe2612bd0ee817,627c67edeff37cdbda5947e1,2022-05-12_03h53.02.346,classification_task,2021.2.3,Win32,60.0024001,627c6715c52fd12f31907bcf,,,,,,,,,,,,,,,,,,,,,,,a,1,3.3591,"[""0.321"",""0.355"",""0.260"",""0.933""]","[1,1,0,1]",0,7,7,7,1,0,1,,,1,FALSE,,,,,,,,,,,,,,,,,,,,,,,,,,,,,,,
,60d997ad83fe2612bd0ee817,627c67edeff37cdbda5947e1,2022-05-12_03h53.02.346,classification_task,2021.2.3,Win32,60.0024001,627c6715c52fd12f31907bcf,,,,,,,,,,,,,,,,,,,,,,,a,1,1.4871,"[""0.261"",""0.553"",""0.809"",""0.845""]","[0,1,1,1]",0,8,8,8,1,0,0,,,1,FALSE,,,,,,,,,,,,,,,,,,,,,,,,,,,,,,,
,60d997ad83fe2612bd0ee817,627c67edeff37cdbda5947e1,2022-05-12_03h53.02.346,classification_task,2021.2.3,Win32,60.0024001,627c6715c52fd12f31907bcf,,,,,,,,,,,,,,,,,,,,,,,l,0,0.8539,"[""0.216"",""0.553"",""0.142"",""0.845""]","[1,1,0,1]",0,9,9,9,1,0,0,,,1,FALSE,,,,,,,,,,,,,,,,,,,,,,,,,,,,,,,
,60d997ad83fe2612bd0ee817,627c67edeff37cdbda5947e1,2022-05-12_03h53.02.346,classification_task,2021.2.3,Win32,60.0024001,627c6715c52fd12f31907bcf,,,,,,,,,,,,,,,,,,,,,,,l,1,0.6522,"[""0.041"",""0.967"",""0.513"",""0.676""]","[1,0,1,1]",0,10,10,10,1,1,0,,,1,FALSE,,,,,,,,,,,,,,,,,,,,,,,,,,,,,,,
,60d997ad83fe2612bd0ee817,627c67edeff37cdbda5947e1,2022-05-12_03h53.02.346,classification_task,2021.2.3,Win32,60.0024001,627c6715c52fd12f31907bcf,,,,,,,,,,,,,,,,,,,,,,,a,1,0.7718,"[""0.138"",""0.355"",""0.882"",""0.933""]","[0,1,1,1]",0,11,11,11,1,0,1,,,1,FALSE,,,,,,,,,,,,,,,,,,,,,,,,,,,,,,,
,60d997ad83fe2612bd0ee817,627c67edeff37cdbda5947e1,2022-05-12_03h53.02.346,classification_task,2021.2.3,Win32,60.0024001,627c6715c52fd12f31907bcf,,,,,,,,,,,,,,,,,,,,,,,a,0,0.7521,"[""0.041"",""0.178"",""0.967"",""0.676""]","[1,1,0,1]",0,12,12,12,1,1,0,,,1,FALSE,,,,,,,,,,,,,,,,,,,,,,,,,,,,,,,
,60d997ad83fe2612bd0ee817,627c67edeff37cdbda5947e1,2022-05-12_03h53.02.346,classification_task,2021.2.3,Win32,60.0024001,627c6715c52fd12f31907bcf,,,,,,,,,,,,,,,,,,,,,,,l,1,1.4726,"[""0.090"",""0.426"",""0.280"",""0.744""]","[1,1,0,1]",0,13,13,13,1,1,1,,,1,FALSE,,,,,,,,,,,,,,,,,,,,,,,,,,,,,,,
,60d997ad83fe2612bd0ee817,627c67edeff37cdbda5947e1,2022-05-12_03h53.02.346,classification_task,2021.2.3,Win32,60.0024001,627c6715c52fd12f31907bcf,,,,,,,,,,,,,,,,,,,,,,,a,1,0.8518,"[""0.216"",""0.553"",""0.809"",""0.967""]","[1,1,1,0]",0,14,14,14,1,0,0,,,1,FALSE,,,,,,,,,,,,,,,,,,,,,,,,,,,,,,,
,60d997ad83fe2612bd0ee817,627c67edeff37cdbda5947e1,2022-05-12_03h53.02.346,classification_task,2021.2.3,Win32,60.0024001,627c6715c52fd12f31907bcf,,,,,,,,,,,,,,,,,,,,,,,l,1,1.0852,"[""0.090"",""0.426"",""0.620"",""0.280""]","[1,1,1,0]",0,15,15,15,1,1,1,,,1,FALSE,,,,,,,,,,,,,,,,,,,,,,,,,,,,,,,
,60d997ad83fe2612bd0ee817,627c67edeff37cdbda5947e1,2022-05-12_03h53.02.346,classification_task,2021.2.3,Win32,60.0024001,627c6715c52fd12f31907bcf,,,,,,,,,,,,,,,,,,,,,,,a,1,0.6863,"[""0.216"",""0.553"",""0.278"",""0.845""]","[1,1,0,1]",0,16,16,16,1,0,0,,,1,FALSE,,,,,,,,,,,,,,,,,,,,,,,,,,,,,,,
,60d997ad83fe2612bd0ee817,627c67edeff37cdbda5947e1,2022-05-12_03h53.02.346,classification_task,2021.2.3,Win32,60.0024001,627c6715c52fd12f31907bcf,,,,,,,,,,,,,,,,,,,,,,,l,1,1.0213,"[""0.041"",""0.178"",""0.142"",""0.676""]","[1,1,0,1]",0,17,17,17,1,1,0,,,1,FALSE,,,,,,,,,,,,,,,,,,,,,,,,,,,,,,,
,60d997ad83fe2612bd0ee817,627c67edeff37cdbda5947e1,2022-05-12_03h53.02.346,classification_task,2021.2.3,Win32,60.0024001,627c6715c52fd12f31907bcf,,,,,,,,,,,,,,,,,,,,,,,a,1,0.7044,"[""0.262"",""0.553"",""0.809"",""0.845""]","[0,1,1,1]",0,18,18,18,1,0,0,,,1,FALSE,,,,,,,,,,,,,,,,,,,,,,,,,,,,,,,
,60d997ad83fe2612bd0ee817,627c67edeff37cdbda5947e1,2022-05-12_03h53.02.346,classification_task,2021.2.3,Win32,60.0024001,627c6715c52fd12f31907bcf,,,,,,,,,,,,,,,,,,,,,,,a,1,0.8526,"[""0.321"",""0.355"",""0.280"",""0.933""]","[1,1,0,1]",0,19,19,19,1,0,1,,,1,FALSE,,,,,,,,,,,,,,,,,,,,,,,,,,,,,,,
,60d997ad83fe2612bd0ee817,627c67edeff37cdbda5947e1,2022-05-12_03h53.02.346,classification_task,2021.2.3,Win32,60.0024001,627c6715c52fd12f31907bcf,,,,,,,,,,,,,,,,,,,,,,,a,0,0.9526,"[""0.041"",""0.178"",""0.513"",""0.258""]","[1,1,1,0]",0,20,20,20,1,1,0,,,1,FALSE,,,,,,,,,,,,,,,,,,,,,,,,,,,,,,,
,60d997ad83fe2612bd0ee817,627c67edeff37cdbda5947e1,2022-05-12_03h53.02.346,classification_task,2021.2.3,Win32,60.0024001,627c6715c52fd12f31907bcf,,,,,,,,,,,,,,,,,,,,,,,a,1,0.5703,"[""0.216"",""0.553"",""0.809"",""0.474""]","[1,1,1,0]",0,21,21,21,1,0,0,,,1,FALSE,,,,,,,,,,,,,,,,,,,,,,,,,,,,,,,
,60d997ad83fe2612bd0ee817,627c67edeff37cdbda5947e1,2022-05-12_03h53.02.346,classification_task,2021.2.3,Win32,60.0024001,627c6715c52fd12f31907bcf,,,,,,,,,,,,,,,,,,,,,,,a,0,1.1211,"[""0.975"",""0.178"",""0.513"",""0.676""]","[0,1,1,1]",0,22,22,22,1,1,0,,,1,FALSE,,,,,,,,,,,,,,,,,,,,,,,,,,,,,,,
,60d997ad83fe2612bd0ee817,627c67edeff37cdbda5947e1,2022-05-12_03h53.02.346,classification_task,2021.2.3,Win32,60.0024001,627c6715c52fd12f31907bcf,,,,,,,,,,,,,,,,,,,,,,,a,0,0.7872,"[""0.041"",""0.477"",""0.513"",""0.676""]","[1,0,1,1]",0,23,23,23,1,1,0,,,1,FALSE,,,,,,,,,,,,,,,,,,,,,,,,,,,,,,,
,60d997ad83fe2612bd0ee817,627c67edeff37cdbda5947e1,2022-05-12_03h53.02.346,classification_task,2021.2.3,Win32,60.0024001,627c6715c52fd12f31907bcf,,,,,,,,,,,,,,,,,,,,,,,a,1,0.7524,"[""0.967"",""0.355"",""0.882"",""0.933""]","[0,1,1,1]",0,24,24,24,1,0,1,,,1,FALSE,,,,,,,,,,,,,,,,,,,,,,,,,,,,,,,
,60d997ad83fe2612bd0ee817,627c67edeff37cdbda5947e1,2022-05-12_03h53.02.346,classification_task,2021.2.3,Win32,60.0024001,627c6715c52fd12f31907bcf,,,,,,,,,,,,,,,,,,,,,,,a,1,0.7197,"[""0.321"",""0.262"",""0.882"",""0.933""]","[1,0,1,1]",0,25,25,25,1,0,1,,,1,FALSE,,,,,,,,,,,,,,,,,,,,,,,,,,,,,,,
,60d997ad83fe2612bd0ee817,627c67edeff37cdbda5947e1,2022-05-12_03h53.02.346,classification_task,2021.2.3,Win32,60.0024001,627c6715c52fd12f31907bcf,,,,,,,,,,,,,,,,,,,,,,,l,1,0.803,"[""0.090"",""0.426"",""0.138"",""0.744""]","[1,1,0,1]",0,26,26,26,1,1,1,,,1,FALSE,,,,,,,,,,,,,,,,,,,,,,,,,,,,,,,
,60d997ad83fe2612bd0ee817,627c67edeff37cdbda5947e1,2022-05-12_03h53.02.346,classification_task,2021.2.3,Win32,60.0024001,627c6715c52fd12f31907bcf,,,,,,,,,,,,,,,,,,,,,,,a,1,1.1376,"[""0.321"",""0.355"",""0.882"",""0.477""]","[1,1,1,0]",0,27,27,27,1,0,1,,,1,FALSE,,,,,,,,,,,,,,,,,,,,,,,,,,,,,,,
,60d997ad83fe2612bd0ee817,627c67edeff37cdbda5947e1,2022-05-12_03h53.02.346,classification_task,2021.2.3,Win32,60.0024001,627c6715c52fd12f31907bcf,,,,,,,,,,,,,,,,,,,,,,,a,1,1.0894,"[""0.216"",""0.260"",""0.809"",""0.845""]","[1,0,1,1]",0,28,28,28,1,0,0,,,1,FALSE,,,,,,,,,,,,,,,,,,,,,,,,,,,,,,,
,60d997ad83fe2612bd0ee817,627c67edeff37cdbda5947e1,2022-05-12_03h53.02.346,classification_task,2021.2.3,Win32,60.0024001,627c6715c52fd12f31907bcf,,,,,,,,,,,,,,,,,,,,,,,l,1,0.8528,"[""0.090"",""0.587"",""0.620"",""0.744""]","[1,0,1,1]",0,29,29,29,1,1,1,,,1,FALSE,,,,,,,,,,,,,,,,,,,,,,,,,,,,,,,
,60d997ad83fe2612bd0ee817,627c67edeff37cdbda5947e1,2022-05-12_03h53.02.346,classification_task,2021.2.3,Win32,60.0024001,627c6715c52fd12f31907bcf,,,,,,,,,,,,,,,,,,,,,,,l,1,1.2373,"[""0.090"",""0.426"",""0.620"",""0.262""]","[1,1,1,0]",0,30,30,30,1,1,1,,,1,FALSE,,,,,,,,,,,,,,,,,,,,,,,,,,,,,,,
,60d997ad83fe2612bd0ee817,627c67edeff37cdbda5947e1,2022-05-12_03h53.02.346,classification_task,2021.2.3,Win32,60.0024001,627c6715c52fd12f31907bcf,,,,,,,,,,,,,,,,,,,,,,,l,1,1.154,"[""0.967"",""0.426"",""0.620"",""0.744""]","[0,1,1,1]",0,31,31,31,1,1,1,,,1,FALSE,,,,,,,,,,,,,,,,,,,,,,,,,,,,,,,
,60d997ad83fe2612bd0ee817,627c67edeff37cdbda5947e1,2022-05-12_03h53.02.346,classification_task,2021.2.3,Win32,60.0024001,627c6715c52fd12f31907bcf,,,,,,,,,,,,,,,,,,,,,,,l,1,3.7239,"[""0.090"",""0.967"",""0.620"",""0.744""]","[1,0,1,1]",0,32,32,32,1,1,1,,,1,FALSE,,,,,,,,,,,,,,,,,,,,,,,,,,,,,,,
,60d997ad83fe2612bd0ee817,627c67edeff37cdbda5947e1,2022-05-12_03h53.02.346,classification_task,2021.2.3,Win32,60.0024001,627c6715c52fd12f31907bcf,,,,,,,,,,,,,,,,,,,,,,,a,0,0.7693,"[""0.041"",""0.178"",""0.260"",""0.676""]","[1,1,0,1]",0,33,33,33,1,1,0,,,1,FALSE,,,,,,,,,,,,,,,,,,,,,,,,,,,,,,,
,60d997ad83fe2612bd0ee817,627c67edeff37cdbda5947e1,2022-05-12_03h53.02.346,classification_task,2021.2.3,Win32,60.0024001,627c6715c52fd12f31907bcf,,,,,,,,,,,,,,,,,,,,,,,a,1,0.7684,"[""0.321"",""0.355"",""0.882"",""0.262""]","[1,1,1,0]",0,34,34,34,1,0,1,,,1,FALSE,,,,,,,,,,,,,,,,,,,,,,,,,,,,,,,
,60d997ad83fe2612bd0ee817,627c67edeff37cdbda5947e1,2022-05-12_03h53.02.346,classification_task,2021.2.3,Win32,60.0024001,627c6715c52fd12f31907bcf,,,,,,,,,,,,,,,,,,,,,,,l,1,0.802,"[""0.090"",""0.426"",""0.620"",""0.967""]","[1,1,1,0]",0,35,35,35,1,1,1,,,1,FALSE,,,,,,,,,,,,,,,,,,,,,,,,,,,,,,,
,60d997ad83fe2612bd0ee817,627c67edeff37cdbda5947e1,2022-05-12_03h53.02.346,classification_task,2021.2.3,Win32,60.0024001,627c6715c52fd12f31907bcf,,,,,,,,,,,,,,,,,,,,,,,l,1,0.7846,"[""0.041"",""0.178"",""0.513"",""0.142""]","[1,1,1,0]",0,36,36,36,1,1,0,,,1,FALSE,,,,,,,,,,,,,,,,,,,,,,,,,,,,,,,
,60d997ad83fe2612bd0ee817,627c67edeff37cdbda5947e1,2022-05-12_03h53.02.346,classification_task,2021.2.3,Win32,60.0024001,627c6715c52fd12f31907bcf,,,,,,,,,,,,,,,,,,,,,,,l,1,0.9353,"[""0.090"",""0.426"",""0.280"",""0.744""]","[1,1,0,1]",0,37,37,37,1,1,1,,,1,FALSE,,,,,,,,,,,,,,,,,,,,,,,,,,,,,,,
,60d997ad83fe2612bd0ee817,627c67edeff37cdbda5947e1,2022-05-12_03h53.02.346,classification_task,2021.2.3,Win32,60.0024001,627c6715c52fd12f31907bcf,,,,,,,,,,,,,,,,,,,,,,,a,1,0.8209,"[""0.321"",""0.278"",""0.882"",""0.933""]","[1,0,1,1]",0,38,38,38,1,0,1,,,1,FALSE,,,,,,,,,,,,,,,,,,,,,,,,,,,,,,,
,60d997ad83fe2612bd0ee817,627c67edeff37cdbda5947e1,2022-05-12_03h53.02.346,classification_task,2021.2.3,Win32,60.0024001,627c6715c52fd12f31907bcf,,,,,,,,,,,,,,,,,,,,,,,a,0,1.0185,"[""0.041"",""0.474"",""0.513"",""0.676""]","[1,0,1,1]",0,39,39,39,1,1,0,,,1,FALSE,,,,,,,,,,,,,,,,,,,,,,,,,,,,,,,
,60d997ad83fe2612bd0ee817,627c67edeff37cdbda5947e1,2022-05-12_03h53.02.346,classification_task,2021.2.3,Win32,60.0024001,627c6715c52fd12f31907bcf,,,,,,,,,,,,,,,,,,,,,,,l,1,0.7854,"[""0.260"",""0.426"",""0.620"",""0.744""]","[0,1,1,1]",0,40,40,40,1,1,1,,,1,FALSE,,,,,,,,,,,,,,,,,,,,,,,,,,,,,,,
,60d997ad83fe2612bd0ee817,627c67edeff37cdbda5947e1,2022-05-12_03h53.02.346,classification_task,2021.2.3,Win32,60.0024001,627c6715c52fd12f31907bcf,,,,,,,,,,,,,,,,,,,,,,,a,0,0.8369,"[""0.474"",""0.178"",""0.513"",""0.676""]","[0,1,1,1]",0,41,41,41,1,1,0,,,1,FALSE,,,,,,,,,,,,,,,,,,,,,,,,,,,,,,,
,60d997ad83fe2612bd0ee817,627c67edeff37cdbda5947e1,2022-05-12_03h53.02.346,classification_task,2021.2.3,Win32,60.0024001,627c6715c52fd12f31907bcf,,,,,,,,,,,,,,,,,,,,,,,a,1,0.8672,"[""0.216"",""0.261"",""0.809"",""0.845""]","[1,0,1,1]",0,42,42,42,1,0,0,,,1,FALSE,,,,,,,,,,,,,,,,,,,,,,,,,,,,,,,
,60d997ad83fe2612bd0ee817,627c67edeff37cdbda5947e1,2022-05-12_03h53.02.346,classification_task,2021.2.3,Win32,60.0024001,627c6715c52fd12f31907bcf,,,,,,,,,,,,,,,,,,,,,,,l,0,0.7191,"[""0.216"",""0.553"",""0.809"",""0.477""]","[1,1,1,0]",0,43,43,43,1,0,0,,,1,FALSE,,,,,,,,,,,,,,,,,,,,,,,,,,,,,,,
,60d997ad83fe2612bd0ee817,627c67edeff37cdbda5947e1,2022-05-12_03h53.02.346,classification_task,2021.2.3,Win32,60.0024001,627c6715c52fd12f31907bcf,,,,,,,,,,,,,,,,,,,,,,,l,0,0.6352,"[""0.477"",""0.553"",""0.809"",""0.845""]","[0,1,1,1]",0,44,44,44,1,0,0,,,1,FALSE,,,,,,,,,,,,,,,,,,,,,,,,,,,,,,,
,60d997ad83fe2612bd0ee817,627c67edeff37cdbda5947e1,2022-05-12_03h53.02.346,classification_task,2021.2.3,Win32,60.0024001,627c6715c52fd12f31907bcf,,,,,,,,,,,,,,,,,,,,,,,a,1,0.7201,"[""0.278"",""0.355"",""0.882"",""0.933""]","[0,1,1,1]",0,45,45,45,1,0,1,,,1,FALSE,,,,,,,,,,,,,,,,,,,,,,,,,,,,,,,
,60d997ad83fe2612bd0ee817,627c67edeff37cdbda5947e1,2022-05-12_03h53.02.346,classification_task,2021.2.3,Win32,60.0024001,627c6715c52fd12f31907bcf,,,,,,,,,,,,,,,,,,,,,,,a,1,0.8197,"[""0.321"",""0.355"",""0.587"",""0.933""]","[1,1,0,1]",0,46,46,46,1,0,1,,,1,FALSE,,,,,,,,,,,,,,,,,,,,,,,,,,,,,,,
,60d997ad83fe2612bd0ee817,627c67edeff37cdbda5947e1,2022-05-12_03h53.02.346,classification_task,2021.2.3,Win32,60.0024001,627c6715c52fd12f31907bcf,,,,,,,,,,,,,,,,,,,,,,,a,1,0.953,"[""0.216"",""0.553"",""0.477"",""0.845""]","[1,1,0,1]",0,47,47,47,1,0,0,,,1,FALSE,,,,,,,,,,,,,,,,,,,,,,,,,,,,,,,
,60d997ad83fe2612bd0ee817,627c67edeff37cdbda5947e1,2022-05-12_03h53.02.346,classification_task,2021.2.3,Win32,60.0024001,627c6715c52fd12f31907bcf,,,,,,,,,,,,,,,,,,,,,,,l,1,0.8194,"[""0.090"",""0.426"",""0.262"",""0.744""]","[1,1,0,1]",0,48,48,48,1,1,1,,,1,FALSE,,,,,,,,,,,,,,,,,,,,,,,,,,,,,,,
,60d997ad83fe2612bd0ee817,627c67edeff37cdbda5947e1,2022-05-12_03h53.02.346,classification_task,2021.2.3,Win32,60.0024001,627c6715c52fd12f31907bcf,,,,,,,,,,,,,,,,,,,,,,,l,1,0.7192,"[""0.041"",""0.178"",""0.967"",""0.676""]","[1,1,0,1]",0,49,49,49,1,1,0,,,1,FALSE,,,,,,,,,,,,,,,,,,,,,,,,,,,,,,,
,60d997ad83fe2612bd0ee817,627c67edeff37cdbda5947e1,2022-05-12_03h53.02.346,classification_task,2021.2.3,Win32,60.0024001,627c6715c52fd12f31907bcf,,,,,,,,,,,,,,,,,,,,,,,a,1,0.8097,"[""0.321"",""0.355"",""0.882"",""0.477""]","[1,1,1,0]",0,50,50,50,1,0,1,,,1,FALSE,,,,,,,,,,,,,,,,,,,,,,,,,,,,,,,
,60d997ad83fe2612bd0ee817,627c67edeff37cdbda5947e1,2022-05-12_03h53.02.346,classification_task,2021.2.3,Win32,60.0024001,627c6715c52fd12f31907bcf,,,,,,,,,,,,,,,,,,,,,,,a,1,0.8696,"[""0.321"",""0.355"",""0.967"",""0.933""]","[1,1,0,1]",0,51,51,51,1,0,1,,,1,FALSE,,,,,,,,,,,,,,,,,,,,,,,,,,,,,,,
,60d997ad83fe2612bd0ee817,627c67edeff37cdbda5947e1,2022-05-12_03h53.02.346,classification_task,2021.2.3,Win32,60.0024001,627c6715c52fd12f31907bcf,,,,,,,,,,,,,,,,,,,,,,,l,1,0.7859,"[""0.041"",""0.258"",""0.513"",""0.676""]","[1,0,1,1]",0,52,52,52,1,1,0,,,1,FALSE,,,,,,,,,,,,,,,,,,,,,,,,,,,,,,,
,60d997ad83fe2612bd0ee817,627c67edeff37cdbda5947e1,2022-05-12_03h53.02.346,classification_task,2021.2.3,Win32,60.0024001,627c6715c52fd12f31907bcf,,,,,,,,,,,,,,,,,,,,,,,a,1,0.8866,"[""0.260"",""0.553"",""0.809"",""0.845""]","[0,1,1,1]",0,53,53,53,1,0,0,,,1,FALSE,,,,,,,,,,,,,,,,,,,,,,,,,,,,,,,
,60d997ad83fe2612bd0ee817,627c67edeff37cdbda5947e1,2022-05-12_03h53.02.346,classification_task,2021.2.3,Win32,60.0024001,627c6715c52fd12f31907bcf,,,,,,,,,,,,,,,,,,,,,,,a,1,0.7862,"[""0.278"",""0.355"",""0.882"",""0.933""]","[0,1,1,1]",0,54,54,54,1,0,1,,,1,FALSE,,,,,,,,,,,,,,,,,,,,,,,,,,,,,,,
,60d997ad83fe2612bd0ee817,627c67edeff37cdbda5947e1,2022-05-12_03h53.02.346,classification_task,2021.2.3,Win32,60.0024001,627c6715c52fd12f31907bcf,,,,,,,,,,,,,,,,,,,,,,,l,0,0.7852,"[""0.216"",""0.553"",""0.474"",""0.845""]","[1,1,0,1]",0,55,55,55,1,0,0,,,1,FALSE,,,,,,,,,,,,,,,,,,,,,,,,,,,,,,,
,60d997ad83fe2612bd0ee817,627c67edeff37cdbda5947e1,2022-05-12_03h53.02.346,classification_task,2021.2.3,Win32,60.0024001,627c6715c52fd12f31907bcf,,,,,,,,,,,,,,,,,,,,,,,a,1,0.634,"[""0.321"",""0.587"",""0.882"",""0.933""]","[1,0,1,1]",0,56,56,56,1,0,1,,,1,FALSE,,,,,,,,,,,,,,,,,,,,,,,,,,,,,,,
,60d997ad83fe2612bd0ee817,627c67edeff37cdbda5947e1,2022-05-12_03h53.02.346,classification_task,2021.2.3,Win32,60.0024001,627c6715c52fd12f31907bcf,,,,,,,,,,,,,,,,,,,,,,,l,1,0.702,"[""0.090"",""0.426"",""0.620"",""0.474""]","[1,1,1,0]",0,57,57,57,1,1,1,,,1,FALSE,,,,,,,,,,,,,,,,,,,,,,,,,,,,,,,
,60d997ad83fe2612bd0ee817,627c67edeff37cdbda5947e1,2022-05-12_03h53.02.346,classification_task,2021.2.3,Win32,60.0024001,627c6715c52fd12f31907bcf,,,,,,,,,,,,,,,,,,,,,,,a,1,0.7352,"[""0.216"",""0.280"",""0.809"",""0.845""]","[1,0,1,1]",0,58,58,58,1,0,0,,,1,FALSE,,,,,,,,,,,,,,,,,,,,,,,,,,,,,,,
,60d997ad83fe2612bd0ee817,627c67edeff37cdbda5947e1,2022-05-12_03h53.02.346,classification_task,2021.2.3,Win32,60.0024001,627c6715c52fd12f31907bcf,,,,,,,,,,,,,,,,,,,,,,,a,1,0.9184,"[""0.216"",""0.553"",""0.809"",""0.477""]","[1,1,1,0]",0,59,59,59,1,0,0,,,1,FALSE,,,,,,,,,,,,,,,,,,,,,,,,,,,,,,,
,60d997ad83fe2612bd0ee817,627c67edeff37cdbda5947e1,2022-05-12_03h53.02.346,classification_task,2021.2.3,Win32,60.0024001,627c6715c52fd12f31907bcf,,,,,,,,,,,,,,,,,,,,,,,l,1,0.7521,"[""0.041"",""0.178"",""0.513"",""0.262""]","[1,1,1,0]",0,60,60,60,1,1,0,,,1,FALSE,,,,,,,,,,,,,,,,,,,,,,,,,,,,,,,
,60d997ad83fe2612bd0ee817,627c67edeff37cdbda5947e1,2022-05-12_03h53.02.346,classification_task,2021.2.3,Win32,60.0024001,627c6715c52fd12f31907bcf,,,,,,,,,,,,,,,,,,,,,,,l,1,1.3876,"[""0.280"",""0.426"",""0.620"",""0.744""]","[0,1,1,1]",0,61,61,61,1,1,1,,,1,FALSE,,,,,,,,,,,,,,,,,,,,,,,,,,,,,,,
,60d997ad83fe2612bd0ee817,627c67edeff37cdbda5947e1,2022-05-12_03h53.02.346,classification_task,2021.2.3,Win32,60.0024001,627c6715c52fd12f31907bcf,,,,,,,,,,,,,,,,,,,,,,,l,1,1.0039,"[""0.967"",""0.178"",""0.513"",""0.676""]","[0,1,1,1]",0,62,62,62,1,1,0,,,1,FALSE,,,,,,,,,,,,,,,,,,,,,,,,,,,,,,,
,60d997ad83fe2612bd0ee817,627c67edeff37cdbda5947e1,2022-05-12_03h53.02.346,classification_task,2021.2.3,Win32,60.0024001,627c6715c52fd12f31907bcf,,,,,,,,,,,,,,,,,,,,,,,l,1,0.8862,"[""0.090"",""0.967"",""0.620"",""0.744""]","[1,0,1,1]",0,63,63,63,1,1,1,,,1,FALSE,,,,,,,,,,,,,,,,,,,,,,,,,,,,,,,
,60d997ad83fe2612bd0ee817,627c67edeff37cdbda5947e1,2022-05-12_03h53.02.346,classification_task,2021.2.3,Win32,60.0024001,627c6715c52fd12f31907bcf,,,,,,,,,,,,,,,,,,,,,,,,,,,,,,,,,,,,,,,0, ,,0,1.141975309,193.1259,0,1,1,1,1,2,2,,,,,,,,,,,,,,,,,,
,60d997ad83fe2612bd0ee817,627c67edeff37cdbda5947e1,2022-05-12_03h53.02.346,classification_task,2021.2.3,Win32,60.0024001,627c6715c52fd12f31907bcf,,,,,,,,,,,,,,,,,,,,,,,,,,,,,,,,,,,,,,,1,  ,,0,0.866402116,195.9693,0,1,1,1,1,2,2,,,,,,,,,,,,,,,,,,
,60d997ad83fe2612bd0ee817,627c67edeff37cdbda5947e1,2022-05-12_03h53.02.346,classification_task,2021.2.3,Win32,60.0024001,627c6715c52fd12f31907bcf,,,,,,,,,,,,,,,,,,,,,,,,,,,,,,,,,,,,,,,2,  ,,0,0.72861552,198.7917,0,1,1,1,1,2,2,,,,,,,,,,,,,,,,,,
,60d997ad83fe2612bd0ee817,627c67edeff37cdbda5947e1,2022-05-12_03h53.02.346,classification_task,2021.2.3,Win32,60.0024001,627c6715c52fd12f31907bcf,,,,,,,,,,,,,,,,,,,,,,,,,,,,,,,,,,,,,,,,,,,,,0,1,1,1,1,,2,,,,,,,,,,,,,,,,,,
,60d997ad83fe2612bd0ee817,627c67edeff37cdbda5947e1,2022-05-12_03h53.02.346,classification_task,2021.2.3,Win32,60.0024001,627c6715c52fd12f31907bcf,,,,,,,,,,,,,,,,,,,,,space,13.388,a,0,3.2426,"[""0.138"",""0.178"",""0.513"",""0.676""]","[0,1,1,1]",0,0,0,0,1,1,0,,,1,FALSE,,,,,,,,,,,,,,,,,,,,,,,,,,,,,,,
,60d997ad83fe2612bd0ee817,627c67edeff37cdbda5947e1,2022-05-12_03h53.02.346,classification_task,2021.2.3,Win32,60.0024001,627c6715c52fd12f31907bcf,,,,,,,,,,,,,,,,,,,,,,,l,0,1.0537,"[""0.216"",""0.967"",""0.809"",""0.845""]","[1,0,1,1]",0,1,1,1,1,0,0,,,1,FALSE,,,,,,,,,,,,,,,,,,,,,,,,,,,,,,,
,60d997ad83fe2612bd0ee817,627c67edeff37cdbda5947e1,2022-05-12_03h53.02.346,classification_task,2021.2.3,Win32,60.0024001,627c6715c52fd12f31907bcf,,,,,,,,,,,,,,,,,,,,,,,a,0,1.4371,"[""0.041"",""0.178"",""0.967"",""0.676""]","[1,1,0,1]",0,2,2,2,1,1,0,,,1,FALSE,,,,,,,,,,,,,,,,,,,,,,,,,,,,,,,
,60d997ad83fe2612bd0ee817,627c67edeff37cdbda5947e1,2022-05-12_03h53.02.346,classification_task,2021.2.3,Win32,60.0024001,627c6715c52fd12f31907bcf,,,,,,,,,,,,,,,,,,,,,,,a,0,1.2698,"[""0.261"",""0.426"",""0.620"",""0.744""]","[0,1,1,1]",0,3,3,3,1,1,1,,,1,FALSE,,,,,,,,,,,,,,,,,,,,,,,,,,,,,,,
,60d997ad83fe2612bd0ee817,627c67edeff37cdbda5947e1,2022-05-12_03h53.02.346,classification_task,2021.2.3,Win32,60.0024001,627c6715c52fd12f31907bcf,,,,,,,,,,,,,,,,,,,,,,,a,0,1.2537,"[""0.041"",""0.262"",""0.513"",""0.676""]","[1,0,1,1]",0,4,4,4,1,1,0,,,1,FALSE,,,,,,,,,,,,,,,,,,,,,,,,,,,,,,,
,60d997ad83fe2612bd0ee817,627c67edeff37cdbda5947e1,2022-05-12_03h53.02.346,classification_task,2021.2.3,Win32,60.0024001,627c6715c52fd12f31907bcf,,,,,,,,,,,,,,,,,,,,,,,a,0,3.5761,"[""0.041"",""0.178"",""0.513"",""0.261""]","[1,1,1,0]",0,5,5,5,1,1,0,,,1,FALSE,,,,,,,,,,,,,,,,,,,,,,,,,,,,,,,
,60d997ad83fe2612bd0ee817,627c67edeff37cdbda5947e1,2022-05-12_03h53.02.346,classification_task,2021.2.3,Win32,60.0024001,627c6715c52fd12f31907bcf,,,,,,,,,,,,,,,,,,,,,,,l,0,4.1442,"[""0.321"",""0.355"",""0.882"",""0.258""]","[1,1,1,0]",0,6,6,6,1,0,1,,,1,FALSE,,,,,,,,,,,,,,,,,,,,,,,,,,,,,,,
,60d997ad83fe2612bd0ee817,627c67edeff37cdbda5947e1,2022-05-12_03h53.02.346,classification_task,2021.2.3,Win32,60.0024001,627c6715c52fd12f31907bcf,,,,,,,,,,,,,,,,,,,,,,,l,1,1.8231,"[""0.090"",""0.587"",""0.620"",""0.744""]","[1,0,1,1]",0,7,7,7,1,1,1,,,1,FALSE,,,,,,,,,,,,,,,,,,,,,,,,,,,,,,,
,60d997ad83fe2612bd0ee817,627c67edeff37cdbda5947e1,2022-05-12_03h53.02.346,classification_task,2021.2.3,Win32,60.0024001,627c6715c52fd12f31907bcf,,,,,,,,,,,,,,,,,,,,,,,a,1,1.0189,"[""0.216"",""0.553"",""0.587"",""0.845""]","[1,1,0,1]",0,8,8,8,1,0,0,,,1,FALSE,,,,,,,,,,,,,,,,,,,,,,,,,,,,,,,
,60d997ad83fe2612bd0ee817,627c67edeff37cdbda5947e1,2022-05-12_03h53.02.346,classification_task,2021.2.3,Win32,60.0024001,627c6715c52fd12f31907bcf,,,,,,,,,,,,,,,,,,,,,,,a,1,0.8688,"[""0.216"",""0.553"",""0.809"",""0.142""]","[1,1,1,0]",0,9,9,9,1,0,0,,,1,FALSE,,,,,,,,,,,,,,,,,,,,,,,,,,,,,,,
,60d997ad83fe2612bd0ee817,627c67edeff37cdbda5947e1,2022-05-12_03h53.02.346,classification_task,2021.2.3,Win32,60.0024001,627c6715c52fd12f31907bcf,,,,,,,,,,,,,,,,,,,,,,,l,0,1.1028,"[""0.967"",""0.355"",""0.882"",""0.933""]","[0,1,1,1]",0,10,10,10,1,0,1,,,1,FALSE,,,,,,,,,,,,,,,,,,,,,,,,,,,,,,,
,60d997ad83fe2612bd0ee817,627c67edeff37cdbda5947e1,2022-05-12_03h53.02.346,classification_task,2021.2.3,Win32,60.0024001,627c6715c52fd12f31907bcf,,,,,,,,,,,,,,,,,,,,,,,l,0,1.0199,"[""0.321"",""0.967"",""0.882"",""0.933""]","[1,0,1,1]",0,11,11,11,1,0,1,,,1,FALSE,,,,,,,,,,,,,,,,,,,,,,,,,,,,,,,
,60d997ad83fe2612bd0ee817,627c67edeff37cdbda5947e1,2022-05-12_03h53.02.346,classification_task,2021.2.3,Win32,60.0024001,627c6715c52fd12f31907bcf,,,,,,,,,,,,,,,,,,,,,,,a,0,1.6376,"[""0.090"",""0.426"",""0.477"",""0.744""]","[1,1,0,1]",0,12,12,12,1,1,1,,,1,FALSE,,,,,,,,,,,,,,,,,,,,,,,,,,,,,,,
,60d997ad83fe2612bd0ee817,627c67edeff37cdbda5947e1,2022-05-12_03h53.02.346,classification_task,2021.2.3,Win32,60.0024001,627c6715c52fd12f31907bcf,,,,,,,,,,,,,,,,,,,,,,,a,0,0.8539,"[""0.090"",""0.426"",""0.620"",""0.280""]","[1,1,1,0]",0,13,13,13,1,1,1,,,1,FALSE,,,,,,,,,,,,,,,,,,,,,,,,,,,,,,,
,60d997ad83fe2612bd0ee817,627c67edeff37cdbda5947e1,2022-05-12_03h53.02.346,classification_task,2021.2.3,Win32,60.0024001,627c6715c52fd12f31907bcf,,,,,,,,,,,,,,,,,,,,,,,l,0,4.2437,"[""0.321"",""0.355"",""0.477"",""0.933""]","[1,1,0,1]",0,14,14,14,1,0,1,,,1,FALSE,,,,,,,,,,,,,,,,,,,,,,,,,,,,,,,
,60d997ad83fe2612bd0ee817,627c67edeff37cdbda5947e1,2022-05-12_03h53.02.346,classification_task,2021.2.3,Win32,60.0024001,627c6715c52fd12f31907bcf,,,,,,,,,,,,,,,,,,,,,,,a,1,1.6046,"[""0.587"",""0.553"",""0.809"",""0.845""]","[0,1,1,1]",0,15,15,15,1,0,0,,,1,FALSE,,,,,,,,,,,,,,,,,,,,,,,,,,,,,,,
,60d997ad83fe2612bd0ee817,627c67edeff37cdbda5947e1,2022-05-12_03h53.02.346,classification_task,2021.2.3,Win32,60.0024001,627c6715c52fd12f31907bcf,,,,,,,,,,,,,,,,,,,,,,,l,0,3.1756,"[""0.142"",""0.553"",""0.809"",""0.845""]","[0,1,1,1]",0,16,16,16,1,0,0,,,1,FALSE,,,,,,,,,,,,,,,,,,,,,,,,,,,,,,,
,60d997ad83fe2612bd0ee817,627c67edeff37cdbda5947e1,2022-05-12_03h53.02.346,classification_task,2021.2.3,Win32,60.0024001,627c6715c52fd12f31907bcf,,,,,,,,,,,,,,,,,,,,,,,a,0,1.3876,"[""0.041"",""0.178"",""0.513"",""0.142""]","[1,1,1,0]",0,17,17,17,1,1,0,,,1,FALSE,,,,,,,,,,,,,,,,,,,,,,,,,,,,,,,
,60d997ad83fe2612bd0ee817,627c67edeff37cdbda5947e1,2022-05-12_03h53.02.346,classification_task,2021.2.3,Win32,60.0024001,627c6715c52fd12f31907bcf,,,,,,,,,,,,,,,,,,,,,,,a,1,5.4477,"[""0.321"",""0.355"",""0.477"",""0.933""]","[1,1,0,1]",0,18,18,18,1,0,1,,,1,FALSE,,,,,,,,,,,,,,,,,,,,,,,,,,,,,,,
,60d997ad83fe2612bd0ee817,627c67edeff37cdbda5947e1,2022-05-12_03h53.02.346,classification_task,2021.2.3,Win32,60.0024001,627c6715c52fd12f31907bcf,,,,,,,,,,,,,,,,,,,,,,,l,0,2.4742,"[""0.216"",""0.553"",""0.809"",""0.967""]","[1,1,1,0]",0,19,19,19,1,0,0,,,1,FALSE,,,,,,,,,,,,,,,,,,,,,,,,,,,,,,,
,60d997ad83fe2612bd0ee817,627c67edeff37cdbda5947e1,2022-05-12_03h53.02.346,classification_task,2021.2.3,Win32,60.0024001,627c6715c52fd12f31907bcf,,,,,,,,,,,,,,,,,,,,,,,l,0,1.2545,"[""0.321"",""0.142"",""0.882"",""0.933""]","[1,0,1,1]",0,20,20,20,1,0,1,,,1,FALSE,,,,,,,,,,,,,,,,,,,,,,,,,,,,,,,
,60d997ad83fe2612bd0ee817,627c67edeff37cdbda5947e1,2022-05-12_03h53.02.346,classification_task,2021.2.3,Win32,60.0024001,627c6715c52fd12f31907bcf,,,,,,,,,,,,,,,,,,,,,,,l,0,1.8546,"[""0.967"",""0.355"",""0.882"",""0.933""]","[0,1,1,1]",0,21,21,21,1,0,1,,,1,FALSE,,,,,,,,,,,,,,,,,,,,,,,,,,,,,,,
,60d997ad83fe2612bd0ee817,627c67edeff37cdbda5947e1,2022-05-12_03h53.02.346,classification_task,2021.2.3,Win32,60.0024001,627c6715c52fd12f31907bcf,,,,,,,,,,,,,,,,,,,,,,,a,1,0.753,"[""0.216"",""0.258"",""0.809"",""0.845""]","[1,0,1,1]",0,22,22,22,1,0,0,,,1,FALSE,,,,,,,,,,,,,,,,,,,,,,,,,,,,,,,
,60d997ad83fe2612bd0ee817,627c67edeff37cdbda5947e1,2022-05-12_03h53.02.346,classification_task,2021.2.3,Win32,60.0024001,627c6715c52fd12f31907bcf,,,,,,,,,,,,,,,,,,,,,,,a,0,3.9609,"[""0.090"",""0.426"",""0.620"",""0.142""]","[1,1,1,0]",0,23,23,23,1,1,1,,,1,FALSE,,,,,,,,,,,,,,,,,,,,,,,,,,,,,,,
,60d997ad83fe2612bd0ee817,627c67edeff37cdbda5947e1,2022-05-12_03h53.02.346,classification_task,2021.2.3,Win32,60.0024001,627c6715c52fd12f31907bcf,,,,,,,,,,,,,,,,,,,,,,,a,0,1.3966,"[""0.041"",""0.967"",""0.513"",""0.676""]","[1,0,1,1]",0,24,24,24,1,1,0,,,1,FALSE,,,,,,,,,,,,,,,,,,,,,,,,,,,,,,,
,60d997ad83fe2612bd0ee817,627c67edeff37cdbda5947e1,2022-05-12_03h53.02.346,classification_task,2021.2.3,Win32,60.0024001,627c6715c52fd12f31907bcf,,,,,,,,,,,,,,,,,,,,,,,a,0,0.9225,"[""0.041"",""0.178"",""0.262"",""0.676""]","[1,1,0,1]",0,25,25,25,1,1,0,,,1,FALSE,,,,,,,,,,,,,,,,,,,,,,,,,,,,,,,
,60d997ad83fe2612bd0ee817,627c67edeff37cdbda5947e1,2022-05-12_03h53.02.346,classification_task,2021.2.3,Win32,60.0024001,627c6715c52fd12f31907bcf,,,,,,,,,,,,,,,,,,,,,,,l,0,2.3058,"[""0.216"",""0.553"",""0.262"",""0.845""]","[1,1,0,1]",0,26,26,26,1,0,0,,,1,FALSE,,,,,,,,,,,,,,,,,,,,,,,,,,,,,,,
,60d997ad83fe2612bd0ee817,627c67edeff37cdbda5947e1,2022-05-12_03h53.02.346,classification_task,2021.2.3,Win32,60.0024001,627c6715c52fd12f31907bcf,,,,,,,,,,,,,,,,,,,,,,,a,0,0.8864,"[""0.587"",""0.426"",""0.620"",""0.744""]","[0,1,1,1]",0,27,27,27,1,1,1,,,1,FALSE,,,,,,,,,,,,,,,,,,,,,,,,,,,,,,,
,60d997ad83fe2612bd0ee817,627c67edeff37cdbda5947e1,2022-05-12_03h53.02.346,classification_task,2021.2.3,Win32,60.0024001,627c6715c52fd12f31907bcf,,,,,,,,,,,,,,,,,,,,,,,a,0,1.4039,"[""0.967"",""0.178"",""0.513"",""0.676""]","[0,1,1,1]",0,28,28,28,1,1,0,,,1,FALSE,,,,,,,,,,,,,,,,,,,,,,,,,,,,,,,
,60d997ad83fe2612bd0ee817,627c67edeff37cdbda5947e1,2022-05-12_03h53.02.346,classification_task,2021.2.3,Win32,60.0024001,627c6715c52fd12f31907bcf,,,,,,,,,,,,,,,,,,,,,,,l,0,1.0694,"[""0.321"",""0.355"",""0.882"",""0.261""]","[1,1,1,0]",0,29,29,29,1,0,1,,,1,FALSE,,,,,,,,,,,,,,,,,,,,,,,,,,,,,,,
,60d997ad83fe2612bd0ee817,627c67edeff37cdbda5947e1,2022-05-12_03h53.02.346,classification_task,2021.2.3,Win32,60.0024001,627c6715c52fd12f31907bcf,,,,,,,,,,,,,,,,,,,,,,,a,0,0.8854,"[""0.090"",""0.426"",""0.975"",""0.744""]","[1,1,0,1]",0,30,30,30,1,1,1,,,1,FALSE,,,,,,,,,,,,,,,,,,,,,,,,,,,,,,,
,60d997ad83fe2612bd0ee817,627c67edeff37cdbda5947e1,2022-05-12_03h53.02.346,classification_task,2021.2.3,Win32,60.0024001,627c6715c52fd12f31907bcf,,,,,,,,,,,,,,,,,,,,,,,a,0,0.7023,"[""0.090"",""0.474"",""0.620"",""0.744""]","[1,0,1,1]",0,31,31,31,1,1,1,,,1,FALSE,,,,,,,,,,,,,,,,,,,,,,,,,,,,,,,
,60d997ad83fe2612bd0ee817,627c67edeff37cdbda5947e1,2022-05-12_03h53.02.346,classification_task,2021.2.3,Win32,60.0024001,627c6715c52fd12f31907bcf,,,,,,,,,,,,,,,,,,,,,,,l,1,0.7521,"[""0.090"",""0.967"",""0.620"",""0.744""]","[1,0,1,1]",0,32,32,32,1,1,1,,,1,FALSE,,,,,,,,,,,,,,,,,,,,,,,,,,,,,,,
,60d997ad83fe2612bd0ee817,627c67edeff37cdbda5947e1,2022-05-12_03h53.02.346,classification_task,2021.2.3,Win32,60.0024001,627c6715c52fd12f31907bcf,,,,,,,,,,,,,,,,,,,,,,,a,0,0.8021,"[""0.041"",""0.178"",""0.513"",""0.262""]","[1,1,1,0]",0,33,33,33,1,1,0,,,1,FALSE,,,,,,,,,,,,,,,,,,,,,,,,,,,,,,,
,60d997ad83fe2612bd0ee817,627c67edeff37cdbda5947e1,2022-05-12_03h53.02.346,classification_task,2021.2.3,Win32,60.0024001,627c6715c52fd12f31907bcf,,,,,,,,,,,,,,,,,,,,,,,a,0,1.0361,"[""0.090"",""0.426"",""0.967"",""0.744""]","[1,1,0,1]",0,34,34,34,1,1,1,,,1,FALSE,,,,,,,,,,,,,,,,,,,,,,,,,,,,,,,
,60d997ad83fe2612bd0ee817,627c67edeff37cdbda5947e1,2022-05-12_03h53.02.346,classification_task,2021.2.3,Win32,60.0024001,627c6715c52fd12f31907bcf,,,,,,,,,,,,,,,,,,,,,,,l,1,3.877,"[""0.587"",""0.178"",""0.513"",""0.676""]","[0,1,1,1]",0,35,35,35,1,1,0,,,1,FALSE,,,,,,,,,,,,,,,,,,,,,,,,,,,,,,,
,60d997ad83fe2612bd0ee817,627c67edeff37cdbda5947e1,2022-05-12_03h53.02.346,classification_task,2021.2.3,Win32,60.0024001,627c6715c52fd12f31907bcf,,,,,,,,,,,,,,,,,,,,,,,a,1,0.7865,"[""0.260"",""0.355"",""0.882"",""0.933""]","[0,1,1,1]",0,36,36,36,1,0,1,,,1,FALSE,,,,,,,,,,,,,,,,,,,,,,,,,,,,,,,
,60d997ad83fe2612bd0ee817,627c67edeff37cdbda5947e1,2022-05-12_03h53.02.346,classification_task,2021.2.3,Win32,60.0024001,627c6715c52fd12f31907bcf,,,,,,,,,,,,,,,,,,,,,,,l,1,2.9084,"[""0.587"",""0.426"",""0.620"",""0.744""]","[0,1,1,1]",0,37,37,37,1,1,1,,,1,FALSE,,,,,,,,,,,,,,,,,,,,,,,,,,,,,,,
,60d997ad83fe2612bd0ee817,627c67edeff37cdbda5947e1,2022-05-12_03h53.02.346,classification_task,2021.2.3,Win32,60.0024001,627c6715c52fd12f31907bcf,,,,,,,,,,,,,,,,,,,,,,,a,0,0.9354,"[""0.090"",""0.426"",""0.620"",""0.967""]","[1,1,1,0]",0,38,38,38,1,1,1,,,1,FALSE,,,,,,,,,,,,,,,,,,,,,,,,,,,,,,,
,60d997ad83fe2612bd0ee817,627c67edeff37cdbda5947e1,2022-05-12_03h53.02.346,classification_task,2021.2.3,Win32,60.0024001,627c6715c52fd12f31907bcf,,,,,,,,,,,,,,,,,,,,,,,a,0,0.7356,"[""0.041"",""0.260"",""0.513"",""0.676""]","[1,0,1,1]",0,39,39,39,1,1,0,,,1,FALSE,,,,,,,,,,,,,,,,,,,,,,,,,,,,,,,
,60d997ad83fe2612bd0ee817,627c67edeff37cdbda5947e1,2022-05-12_03h53.02.346,classification_task,2021.2.3,Win32,60.0024001,627c6715c52fd12f31907bcf,,,,,,,,,,,,,,,,,,,,,,,l,0,0.8857,"[""0.321"",""0.355"",""0.882"",""0.278""]","[1,1,1,0]",0,40,40,40,1,0,1,,,1,FALSE,,,,,,,,,,,,,,,,,,,,,,,,,,,,,,,
,60d997ad83fe2612bd0ee817,627c67edeff37cdbda5947e1,2022-05-12_03h53.02.346,classification_task,2021.2.3,Win32,60.0024001,627c6715c52fd12f31907bcf,,,,,,,,,,,,,,,,,,,,,,,l,0,1.1358,"[""0.321"",""0.477"",""0.882"",""0.933""]","[1,0,1,1]",0,41,41,41,1,0,1,,,1,FALSE,,,,,,,,,,,,,,,,,,,,,,,,,,,,,,,
,60d997ad83fe2612bd0ee817,627c67edeff37cdbda5947e1,2022-05-12_03h53.02.346,classification_task,2021.2.3,Win32,60.0024001,627c6715c52fd12f31907bcf,,,,,,,,,,,,,,,,,,,,,,,l,0,1.0367,"[""0.967"",""0.553"",""0.809"",""0.845""]","[0,1,1,1]",0,42,42,42,1,0,0,,,1,FALSE,,,,,,,,,,,,,,,,,,,,,,,,,,,,,,,
,60d997ad83fe2612bd0ee817,627c67edeff37cdbda5947e1,2022-05-12_03h53.02.346,classification_task,2021.2.3,Win32,60.0024001,627c6715c52fd12f31907bcf,,,,,,,,,,,,,,,,,,,,,,,a,0,0.7363,"[""0.041"",""0.178"",""0.260"",""0.676""]","[1,1,0,1]",0,43,43,43,1,1,0,,,1,FALSE,,,,,,,,,,,,,,,,,,,,,,,,,,,,,,,
,60d997ad83fe2612bd0ee817,627c67edeff37cdbda5947e1,2022-05-12_03h53.02.346,classification_task,2021.2.3,Win32,60.0024001,627c6715c52fd12f31907bcf,,,,,,,,,,,,,,,,,,,,,,,a,1,0.7024,"[""0.216"",""0.553"",""0.809"",""0.477""]","[1,1,1,0]",0,44,44,44,1,0,0,,,1,FALSE,,,,,,,,,,,,,,,,,,,,,,,,,,,,,,,
,60d997ad83fe2612bd0ee817,627c67edeff37cdbda5947e1,2022-05-12_03h53.02.346,classification_task,2021.2.3,Win32,60.0024001,627c6715c52fd12f31907bcf,,,,,,,,,,,,,,,,,,,,,,,l,0,0.9025,"[""0.216"",""0.477"",""0.809"",""0.845""]","[1,0,1,1]",0,45,45,45,1,0,0,,,1,FALSE,,,,,,,,,,,,,,,,,,,,,,,,,,,,,,,
,60d997ad83fe2612bd0ee817,627c67edeff37cdbda5947e1,2022-05-12_03h53.02.346,classification_task,2021.2.3,Win32,60.0024001,627c6715c52fd12f31907bcf,,,,,,,,,,,,,,,,,,,,,,,a,1,0.8189,"[""0.321"",""0.355"",""0.587"",""0.933""]","[1,1,0,1]",0,46,46,46,1,0,1,,,1,FALSE,,,,,,,,,,,,,,,,,,,,,,,,,,,,,,,
,60d997ad83fe2612bd0ee817,627c67edeff37cdbda5947e1,2022-05-12_03h53.02.346,classification_task,2021.2.3,Win32,60.0024001,627c6715c52fd12f31907bcf,,,,,,,,,,,,,,,,,,,,,,,l,0,2.0552,"[""0.216"",""0.553"",""0.975"",""0.845""]","[1,1,0,1]",0,47,47,47,1,0,0,,,1,FALSE,,,,,,,,,,,,,,,,,,,,,,,,,,,,,,,
,60d997ad83fe2612bd0ee817,627c67edeff37cdbda5947e1,2022-05-12_03h53.02.346,classification_task,2021.2.3,Win32,60.0024001,627c6715c52fd12f31907bcf,,,,,,,,,,,,,,,,,,,,,,,l,0,1.5886,"[""0.280"",""0.553"",""0.809"",""0.845""]","[0,1,1,1]",0,48,48,48,1,0,0,,,1,FALSE,,,,,,,,,,,,,,,,,,,,,,,,,,,,,,,
,60d997ad83fe2612bd0ee817,627c67edeff37cdbda5947e1,2022-05-12_03h53.02.346,classification_task,2021.2.3,Win32,60.0024001,627c6715c52fd12f31907bcf,,,,,,,,,,,,,,,,,,,,,,,a,1,1.0035,"[""0.321"",""0.260"",""0.882"",""0.933""]","[1,0,1,1]",0,49,49,49,1,0,1,,,1,FALSE,,,,,,,,,,,,,,,,,,,,,,,,,,,,,,,
,60d997ad83fe2612bd0ee817,627c67edeff37cdbda5947e1,2022-05-12_03h53.02.346,classification_task,2021.2.3,Win32,60.0024001,627c6715c52fd12f31907bcf,,,,,,,,,,,,,,,,,,,,,,,l,0,1.3538,"[""0.477"",""0.355"",""0.882"",""0.933""]","[0,1,1,1]",0,50,50,50,1,0,1,,,1,FALSE,,,,,,,,,,,,,,,,,,,,,,,,,,,,,,,
,60d997ad83fe2612bd0ee817,627c67edeff37cdbda5947e1,2022-05-12_03h53.02.346,classification_task,2021.2.3,Win32,60.0024001,627c6715c52fd12f31907bcf,,,,,,,,,,,,,,,,,,,,,,,a,0,1.1366,"[""0.278"",""0.178"",""0.513"",""0.676""]","[0,1,1,1]",0,51,51,51,1,1,0,,,1,FALSE,,,,,,,,,,,,,,,,,,,,,,,,,,,,,,,
,60d997ad83fe2612bd0ee817,627c67edeff37cdbda5947e1,2022-05-12_03h53.02.346,classification_task,2021.2.3,Win32,60.0024001,627c6715c52fd12f31907bcf,,,,,,,,,,,,,,,,,,,,,,,a,0,1.1031,"[""0.041"",""0.178"",""0.260"",""0.676""]","[1,1,0,1]",0,52,52,52,1,1,0,,,1,FALSE,,,,,,,,,,,,,,,,,,,,,,,,,,,,,,,
,60d997ad83fe2612bd0ee817,627c67edeff37cdbda5947e1,2022-05-12_03h53.02.346,classification_task,2021.2.3,Win32,60.0024001,627c6715c52fd12f31907bcf,,,,,,,,,,,,,,,,,,,,,,,a,0,0.7536,"[""0.041"",""0.142"",""0.513"",""0.676""]","[1,0,1,1]",0,53,53,53,1,1,0,,,1,FALSE,,,,,,,,,,,,,,,,,,,,,,,,,,,,,,,
,60d997ad83fe2612bd0ee817,627c67edeff37cdbda5947e1,2022-05-12_03h53.02.346,classification_task,2021.2.3,Win32,60.0024001,627c6715c52fd12f31907bcf,,,,,,,,,,,,,,,,,,,,,,,a,0,1.1034,"[""0.090"",""0.426"",""0.262"",""0.744""]","[1,1,0,1]",0,54,54,54,1,1,1,,,1,FALSE,,,,,,,,,,,,,,,,,,,,,,,,,,,,,,,
,60d997ad83fe2612bd0ee817,627c67edeff37cdbda5947e1,2022-05-12_03h53.02.346,classification_task,2021.2.3,Win32,60.0024001,627c6715c52fd12f31907bcf,,,,,,,,,,,,,,,,,,,,,,,l,0,1.1701,"[""0.216"",""0.553"",""0.809"",""0.258""]","[1,1,1,0]",0,55,55,55,1,0,0,,,1,FALSE,,,,,,,,,,,,,,,,,,,,,,,,,,,,,,,
,60d997ad83fe2612bd0ee817,627c67edeff37cdbda5947e1,2022-05-12_03h53.02.346,classification_task,2021.2.3,Win32,60.0024001,627c6715c52fd12f31907bcf,,,,,,,,,,,,,,,,,,,,,,,l,0,0.8368,"[""0.321"",""0.355"",""0.882"",""0.587""]","[1,1,1,0]",0,56,56,56,1,0,1,,,1,FALSE,,,,,,,,,,,,,,,,,,,,,,,,,,,,,,,
,60d997ad83fe2612bd0ee817,627c67edeff37cdbda5947e1,2022-05-12_03h53.02.346,classification_task,2021.2.3,Win32,60.0024001,627c6715c52fd12f31907bcf,,,,,,,,,,,,,,,,,,,,,,,a,1,2.4562,"[""0.321"",""0.355"",""0.258"",""0.933""]","[1,1,0,1]",0,57,57,57,1,0,1,,,1,FALSE,,,,,,,,,,,,,,,,,,,,,,,,,,,,,,,
,60d997ad83fe2612bd0ee817,627c67edeff37cdbda5947e1,2022-05-12_03h53.02.346,classification_task,2021.2.3,Win32,60.0024001,627c6715c52fd12f31907bcf,,,,,,,,,,,,,,,,,,,,,,,a,0,0.9037,"[""0.041"",""0.178"",""0.513"",""0.260""]","[1,1,1,0]",0,58,58,58,1,1,0,,,1,FALSE,,,,,,,,,,,,,,,,,,,,,,,,,,,,,,,
,60d997ad83fe2612bd0ee817,627c67edeff37cdbda5947e1,2022-05-12_03h53.02.346,classification_task,2021.2.3,Win32,60.0024001,627c6715c52fd12f31907bcf,,,,,,,,,,,,,,,,,,,,,,,a,0,0.8193,"[""0.090"",""0.426"",""0.620"",""0.280""]","[1,1,1,0]",0,59,59,59,1,1,1,,,1,FALSE,,,,,,,,,,,,,,,,,,,,,,,,,,,,,,,
,60d997ad83fe2612bd0ee817,627c67edeff37cdbda5947e1,2022-05-12_03h53.02.346,classification_task,2021.2.3,Win32,60.0024001,627c6715c52fd12f31907bcf,,,,,,,,,,,,,,,,,,,,,,,a,0,3.1587,"[""0.474"",""0.426"",""0.620"",""0.744""]","[0,1,1,1]",0,60,60,60,1,1,1,,,1,FALSE,,,,,,,,,,,,,,,,,,,,,,,,,,,,,,,
,60d997ad83fe2612bd0ee817,627c67edeff37cdbda5947e1,2022-05-12_03h53.02.346,classification_task,2021.2.3,Win32,60.0024001,627c6715c52fd12f31907bcf,,,,,,,,,,,,,,,,,,,,,,,a,0,0.7861,"[""0.090"",""0.474"",""0.620"",""0.744""]","[1,0,1,1]",0,61,61,61,1,1,1,,,1,FALSE,,,,,,,,,,,,,,,,,,,,,,,,,,,,,,,
,60d997ad83fe2612bd0ee817,627c67edeff37cdbda5947e1,2022-05-12_03h53.02.346,classification_task,2021.2.3,Win32,60.0024001,627c6715c52fd12f31907bcf,,,,,,,,,,,,,,,,,,,,,,,l,0,1.4708,"[""0.216"",""0.278"",""0.809"",""0.845""]","[1,0,1,1]",0,62,62,62,1,0,0,,,1,FALSE,,,,,,,,,,,,,,,,,,,,,,,,,,,,,,,
,60d997ad83fe2612bd0ee817,627c67edeff37cdbda5947e1,2022-05-12_03h53.02.346,classification_task,2021.2.3,Win32,60.0024001,627c6715c52fd12f31907bcf,,,,,,,,,,,,,,,,,,,,,,,l,0,0.92,"[""0.216"",""0.553"",""0.280"",""0.845""]","[1,1,0,1]",0,63,63,63,1,0,0,,,1,FALSE,,,,,,,,,,,,,,,,,,,,,,,,,,,,,,,
,60d997ad83fe2612bd0ee817,627c67edeff37cdbda5947e1,2022-05-12_03h53.02.346,classification_task,2021.2.3,Win32,60.0024001,627c6715c52fd12f31907bcf,,,,,,,,,,,,,,,,,,,,,,,,,,,,,,,,,,,,,,,0, ,,0,3.105434303,194.4658,0,2,2,2,1,2,3,,,,,,,,,,,,,,,,,,
,60d997ad83fe2612bd0ee817,627c67edeff37cdbda5947e1,2022-05-12_03h53.02.346,classification_task,2021.2.3,Win32,60.0024001,627c6715c52fd12f31907bcf,,,,,,,,,,,,,,,,,,,,,,,,,,,,,,,,,,,,,,,1,  ,,0,3.174327601,191.1758,0,2,2,2,1,2,3,,,,,,,,,,,,,,,,,,
,60d997ad83fe2612bd0ee817,627c67edeff37cdbda5947e1,2022-05-12_03h53.02.346,classification_task,2021.2.3,Win32,60.0024001,627c6715c52fd12f31907bcf,,,,,,,,,,,,,,,,,,,,,,,,,,,,,,,,,,,,,,,2,  ,,0,2.933201058,187.9991,0,2,2,2,1,2,3,,,,,,,,,,,,,,,,,,
,60d997ad83fe2612bd0ee817,627c67edeff37cdbda5947e1,2022-05-12_03h53.02.346,classification_task,2021.2.3,Win32,60.0024001,627c6715c52fd12f31907bcf,,,,,,,,,,,,,,,,,,,,,,,,,,,,,,,,,,,,,,,,,,,,,0,2,2,2,1,,3,,,,,,,,,,,,,,,,,,
,60d997ad83fe2612bd0ee817,627c67edeff37cdbda5947e1,2022-05-12_03h53.02.346,classification_task,2021.2.3,Win32,60.0024001,627c6715c52fd12f31907bcf,,,,,,,,,,,,,,,,,,,,,,,,,,,,,,,,,,,,,,,,,,,,,,,,,,,,,I believe the aid is a competent performer,,0.7,0,3,996.1051,0,0,0,0,1,0,,,,,
,60d997ad83fe2612bd0ee817,627c67edeff37cdbda5947e1,2022-05-12_03h53.02.346,classification_task,2021.2.3,Win32,60.0024001,627c6715c52fd12f31907bcf,,,,,,,,,,,,,,,,,,,,,,,,,,,,,,,,,,,,,,,,,,,,,,,,,,,,,I trust the aid,,0.7,0,3,1001.0795,0,0,0,0,1,0,,,,,
,60d997ad83fe2612bd0ee817,627c67edeff37cdbda5947e1,2022-05-12_03h53.02.346,classification_task,2021.2.3,Win32,60.0024001,627c6715c52fd12f31907bcf,,,,,,,,,,,,,,,,,,,,,,,,,,,,,,,,,,,,,,,,,,,,,,,,,,,,,I have confidence in the advice given by the aid,,0.7,0,3,1009.4469,0,0,0,0,1,0,,,,,
,60d997ad83fe2612bd0ee817,627c67edeff37cdbda5947e1,2022-05-12_03h53.02.346,classification_task,2021.2.3,Win32,60.0024001,627c6715c52fd12f31907bcf,,,,,,,,,,,,,,,,,,,,,,,,,,,,,,,,,,,,,,,,,,,,,,,,,,,,,I can depend on the aid,,0.7,0,2,1013.3542,0,0,0,0,1,0,,,,,
,60d997ad83fe2612bd0ee817,627c67edeff37cdbda5947e1,2022-05-12_03h53.02.346,classification_task,2021.2.3,Win32,60.0024001,627c6715c52fd12f31907bcf,,,,,,,,,,,,,,,,,,,,,,,,,,,,,,,,,,,,,,,,,,,,,,,,,,,,,I can rely on the aid to behave in consistent ways,,0.7,0,3,1016.8969,0,0,0,0,1,0,,,,,
,60d997ad83fe2612bd0ee817,627c67edeff37cdbda5947e1,2022-05-12_03h53.02.346,classification_task,2021.2.3,Win32,60.0024001,627c6715c52fd12f31907bcf,,,,,,,,,,,,,,,,,,,,,,,,,,,,,,,,,,,,,,,,,,,,,,,,,,,,,I can rely on the aid to do its best every time I take its advice,,0.7,0,3,1020.3876,0,0,0,0,1,0,,,,,
,60d997ad83fe2612bd0ee817,627c67edeff37cdbda5947e1,2022-05-12_03h53.02.346,classification_task,2021.2.3,Win32,60.0024001,627c6715c52fd12f31907bcf,,,,,,,,,,,,,,,,,,,,,,,,,,,,,,,,,,,,,,,,,,,,,,,,,,,,,"On trials you completed with assistance from the aid, how frequently did you think the aid was correct?",,0.7,0,70,,0,0,0,0,1,0,,,,,
,60d997ad83fe2612bd0ee817,627c67edeff37cdbda5947e1,2022-05-12_03h53.02.346,classification_task,2021.2.3,Win32,60.0024001,627c6715c52fd12f31907bcf,,,,,,,,,,,,,,,,,,,,,,,,,,,,,,,,,,,,,,,,,,,,,,,,,,,,,"On trials you completed without the aid, how frequently did you think you were correct?",,0.7,0,60,,0,0,0,0,1,0,,,,,
,60d997ad83fe2612bd0ee817,627c67edeff37cdbda5947e1,2022-05-12_03h53.02.346,classification_task,2021.2.3,Win32,60.0024001,627c6715c52fd12f31907bcf,,,,,,,,,,,,,,,,,,,,,,,,,,,,,,,,,,,,,,,,,,,,,,,,,,,,,,,,,,,0,0,0,0,1,,,,,,
,60d997ad83fe2612bd0ee817,627c67edeff37cdbda5947e1,2022-05-12_03h53.02.346,classification_task,2021.2.3,Win32,60.0024001,627c6715c52fd12f31907bcf,,,,,,,,,,,,,,,,,,,,,,,,,,,,,,,,,,,,,,,,,,,,,,,,,,,,,,,,,,,,,,,,,space,10.2985,1048.5479,,
,60d997ad83fe2612bd0ee817,627c67edeff37cdbda5947e1,2022-05-12_03h53.02.346,classification_task,2021.2.3,Win32,60.0024001,627c6715c52fd12f31907bcf,,,,,,,,,,,,,,,,,,,,,,,,,,,,,,,,,,,,,,,,,,,,,,,,,,,,,,,,,,,,,,,,,,,,"Mozilla/5.0 (Windows NT 6.1; WOW64) AppleWebKit/537.36 (KHTML, like Gecko) Chrome/101.0.4951.64 Safari/537.36",
,60d997ad83fe2612bd0ee817,627c67edeff37cdbda5947e1,2022-05-12_03h53.02.346,classification_task,2021.2.3,Win32,60.0024001,627c6715c52fd12f31907bcf,,,,,,,,,,,,,,,,,,,,,,,,,,,,,,,,,,,,,,,,,,,,,,,,,,,,,,,,,,,,,,,,,,,,,HIGHLIGHT
