usingWebGL,participant,session,date,expName,psychopyVersion,OS,frameRate,PROLIFIC_PID,STUDY_ID,SESSION_ID,signatures_friend,signatures_foe,band_ranges_top,band_ranges_bottom,formitemText,formtype,formundefined,formitemWidth,formindex,formresponse,formrt,key_resp_2.keys,key_resp_2.rt,tute_resp.keys,tute_resp.rt,tutorial.thisRepN,tutorial.thisTrialN,tutorial.thisN,tutorial.thisIndex,tutorial.ran,key_resp_4.keys,key_resp_4.rt,key_resp.keys,key_resp.corr,lines_presented,is_signal_presented,trials.thisRepN,trials.thisTrialN,trials.thisN,trials.thisIndex,trials.ran,vessel,active_band,lines,is_signal,supported_pos,catch_trial,key_resp.rt,debrief_formindex,debrief_formitemText,debrief_formtype,debrief_formitemWidth,debrief_formresponse,debrief_formrt,phases.thisRepN,phases.thisTrialN,phases.thisN,phases.thisIndex,phases.ran,phases.order,phase,key_resp_3.keys,trustitemText,trusttype,trustitemWidth,trustindex,trustresponse,trustrt,support_status.thisRepN,support_status.thisTrialN,support_status.thisN,support_status.thisIndex,support_status.ran,support_status.order,key_resp_5.keys,key_resp_5.rt,globalClockTime,userAgent
TRUE,60da905f8fa5374e57b4ad71,001,2022-04-29_03h18.46.608,classification_task,2021.2.3,Win32,144.7178003,60da905f8fa5374e57b4ad71,626b377229c10585ec392f89,626b3abb5faa9641b2715a2b,,,,,,,,,,,,,,,,,,,,,,,,,,,,,,,,,,,,,,,,,,,,,,,,,,,,,,,,,,,,,,,,,,,,
,60da905f8fa5374e57b4ad71,001,2022-04-29_03h18.46.608,classification_task,2021.2.3,Win32,144.7178003,60da905f8fa5374e57b4ad71,626b377229c10585ec392f89,626b3abb5faa9641b2715a2b,"[[""0.162"",""0.376"",""0.646"",""0.872""],[""0.305"",""0.421"",""0.586"",""0.957""]]","[[""0.123"",""0.198"",""0.538"",""0.823""],[""0.027"",""0.233"",""0.464"",""0.770""]]","[1,10]","[100,1000]",Video game experience,,,0.7,0,,,,,,,,,,,,,,,,,,,,,,,,,,,,,,,,,,,,,,,,,,,,,,,,,,,,,,,,,,,
,60da905f8fa5374e57b4ad71,001,2022-04-29_03h18.46.608,classification_task,2021.2.3,Win32,144.7178003,60da905f8fa5374e57b4ad71,626b377229c10585ec392f89,626b3abb5faa9641b2715a2b,,,,,Approximately how many hours did you spend playing video games in the last week?,,,0.7,0,35,,,,,,,,,,,,,,,,,,,,,,,,,,,,,,,,,,,,,,,,,,,,,,,,,,,,,,,,,,
,60da905f8fa5374e57b4ad71,001,2022-04-29_03h18.46.608,classification_task,2021.2.3,Win32,144.7178003,60da905f8fa5374e57b4ad71,626b377229c10585ec392f89,626b3abb5faa9641b2715a2b,,,,,"Which game did you play the most this year? (Enter ""None"" if you didn't play any)",,,0.7,0,Fortnite,,,,,,,,,,,,,,,,,,,,,,,,,,,,,,,,,,,,,,,,,,,,,,,,,,,,,,,,,,
,60da905f8fa5374e57b4ad71,001,2022-04-29_03h18.46.608,classification_task,2021.2.3,Win32,144.7178003,60da905f8fa5374e57b4ad71,626b377229c10585ec392f89,626b3abb5faa9641b2715a2b,,,,,Visual perception,,,0.7,0,,,,,,,,,,,,,,,,,,,,,,,,,,,,,,,,,,,,,,,,,,,,,,,,,,,,,,,,,,,
,60da905f8fa5374e57b4ad71,001,2022-04-29_03h18.46.608,classification_task,2021.2.3,Win32,144.7178003,60da905f8fa5374e57b4ad71,626b377229c10585ec392f89,626b3abb5faa9641b2715a2b,,,,,Do you have any form of color blindness?,,,0.7,0,No,25.5281,,,,,,,,,,,,,,,,,,,,,,,,,,,,,,,,,,,,,,,,,,,,,,,,,,,,,,,,,
,60da905f8fa5374e57b4ad71,001,2022-04-29_03h18.46.608,classification_task,2021.2.3,Win32,144.7178003,60da905f8fa5374e57b4ad71,626b377229c10585ec392f89,626b3abb5faa9641b2715a2b,,,,,Do you use software to change the colour temperature of your screen (e.g. f.lux)?,,,0.7,0,Yes,33.4079,,,,,,,,,,,,,,,,,,,,,,,,,,,,,,,,,,,,,,,,,,,,,,,,,,,,,,,,,
,60da905f8fa5374e57b4ad71,001,2022-04-29_03h18.46.608,classification_task,2021.2.3,Win32,144.7178003,60da905f8fa5374e57b4ad71,626b377229c10585ec392f89,626b3abb5faa9641b2715a2b,,,,,,,,,,,,space,37.8956,space,8.2614,0,0,0,0,1,,,,,,,,,,,,,,,,,,,,,,,,,,,,,,,,,,,,,,,,,,,,,,,,
,60da905f8fa5374e57b4ad71,001,2022-04-29_03h18.46.608,classification_task,2021.2.3,Win32,144.7178003,60da905f8fa5374e57b4ad71,626b377229c10585ec392f89,626b3abb5faa9641b2715a2b,,,,,,,,,,,,,,space,6.5898,1,0,1,0,1,,,,,,,,,,,,,,,,,,,,,,,,,,,,,,,,,,,,,,,,,,,,,,,,
,60da905f8fa5374e57b4ad71,001,2022-04-29_03h18.46.608,classification_task,2021.2.3,Win32,144.7178003,60da905f8fa5374e57b4ad71,626b377229c10585ec392f89,626b3abb5faa9641b2715a2b,,,,,,,,,,,,,,space,34.7487,2,0,2,0,1,,,,,,,,,,,,,,,,,,,,,,,,,,,,,,,,,,,,,,,,,,,,,,,,
,60da905f8fa5374e57b4ad71,001,2022-04-29_03h18.46.608,classification_task,2021.2.3,Win32,144.7178003,60da905f8fa5374e57b4ad71,626b377229c10585ec392f89,626b3abb5faa9641b2715a2b,,,,,,,,,,,,,,space,15.6208,3,0,3,0,1,,,,,,,,,,,,,,,,,,,,,,,,,,,,,,,,,,,,,,,,,,,,,,,,
,60da905f8fa5374e57b4ad71,001,2022-04-29_03h18.46.608,classification_task,2021.2.3,Win32,144.7178003,60da905f8fa5374e57b4ad71,626b377229c10585ec392f89,626b3abb5faa9641b2715a2b,,,,,,,,,,,,,,space,13.8132,4,0,4,0,1,,,,,,,,,,,,,,,,,,,,,,,,,,,,,,,,,,,,,,,,,,,,,,,,
,60da905f8fa5374e57b4ad71,001,2022-04-29_03h18.46.608,classification_task,2021.2.3,Win32,144.7178003,60da905f8fa5374e57b4ad71,626b377229c10585ec392f89,626b3abb5faa9641b2715a2b,,,,,,,,,,,,,,,,,,,,,space,14.4092,,0,"[""0.123"",""0.198"",""0.719"",""0.823""]","[1,1,0,1]",0,0,0,0,1,1,0,,,1,FALSE,,,,,,,,,,,,,,,,,,,,,,,,,,,,,,,
,60da905f8fa5374e57b4ad71,001,2022-04-29_03h18.46.608,classification_task,2021.2.3,Win32,144.7178003,60da905f8fa5374e57b4ad71,626b377229c10585ec392f89,626b3abb5faa9641b2715a2b,,,,,,,,,,,,,,,,,,,,,,,l,1,"[""0.123"",""0.498"",""0.538"",""0.823""]","[1,0,1,1]",0,1,1,1,1,1,0,,,1,FALSE,4.9616,,,,,,,,,,,,,,,,,,,,,,,,,,,,,,
,60da905f8fa5374e57b4ad71,001,2022-04-29_03h18.46.608,classification_task,2021.2.3,Win32,144.7178003,60da905f8fa5374e57b4ad71,626b377229c10585ec392f89,626b3abb5faa9641b2715a2b,,,,,,,,,,,,,,,,,,,,,,,a,1,"[""0.162"",""0.376"",""0.646"",""0.071""]","[1,1,1,0]",0,2,2,2,1,0,0,,,1,FALSE,2.6966,,,,,,,,,,,,,,,,,,,,,,,,,,,,,,
,60da905f8fa5374e57b4ad71,001,2022-04-29_03h18.46.608,classification_task,2021.2.3,Win32,144.7178003,60da905f8fa5374e57b4ad71,626b377229c10585ec392f89,626b3abb5faa9641b2715a2b,,,,,,,,,,,,,,,,,,,,,,,l,0,"[""0.305"",""0.089"",""0.586"",""0.957""]","[1,0,1,1]",0,3,3,3,1,0,1,,,1,FALSE,3.0934,,,,,,,,,,,,,,,,,,,,,,,,,,,,,,
,60da905f8fa5374e57b4ad71,001,2022-04-29_03h18.46.608,classification_task,2021.2.3,Win32,144.7178003,60da905f8fa5374e57b4ad71,626b377229c10585ec392f89,626b3abb5faa9641b2715a2b,,,,,,,,,,,,,,,,,,,,,,,a,0,"[""0.712"",""0.233"",""0.464"",""0.770""]","[0,1,1,1]",0,4,4,4,1,1,1,,,1,FALSE,5.069,,,,,,,,,,,,,,,,,,,,,,,,,,,,,,
,60da905f8fa5374e57b4ad71,001,2022-04-29_03h18.46.608,classification_task,2021.2.3,Win32,144.7178003,60da905f8fa5374e57b4ad71,626b377229c10585ec392f89,626b3abb5faa9641b2715a2b,,,,,,,,,,,,,,,,,,,,,,,a,1,"[""0.162"",""0.712"",""0.646"",""0.872""]","[1,0,1,1]",0,5,5,5,1,0,0,,,1,FALSE,7.4125,,,,,,,,,,,,,,,,,,,,,,,,,,,,,,
,60da905f8fa5374e57b4ad71,001,2022-04-29_03h18.46.608,classification_task,2021.2.3,Win32,144.7178003,60da905f8fa5374e57b4ad71,626b377229c10585ec392f89,626b3abb5faa9641b2715a2b,,,,,,,,,,,,,,,,,,,,,,,l,1,"[""0.027"",""0.692"",""0.464"",""0.770""]","[1,0,1,1]",0,6,6,6,1,1,1,,,1,FALSE,5.3709,,,,,,,,,,,,,,,,,,,,,,,,,,,,,,
,60da905f8fa5374e57b4ad71,001,2022-04-29_03h18.46.608,classification_task,2021.2.3,Win32,144.7178003,60da905f8fa5374e57b4ad71,626b377229c10585ec392f89,626b3abb5faa9641b2715a2b,,,,,,,,,,,,,,,,,,,,,,,a,1,"[""0.732"",""0.421"",""0.586"",""0.957""]","[0,1,1,1]",0,7,7,7,1,0,1,,,1,FALSE,5.7843,,,,,,,,,,,,,,,,,,,,,,,,,,,,,,
,60da905f8fa5374e57b4ad71,001,2022-04-29_03h18.46.608,classification_task,2021.2.3,Win32,144.7178003,60da905f8fa5374e57b4ad71,626b377229c10585ec392f89,626b3abb5faa9641b2715a2b,,,,,,,,,,,,,,,,,,,,,,,l,1,"[""0.027"",""0.233"",""0.464"",""0.726""]","[1,1,1,0]",0,8,8,8,1,1,1,,,1,FALSE,3.3395,,,,,,,,,,,,,,,,,,,,,,,,,,,,,,
,60da905f8fa5374e57b4ad71,001,2022-04-29_03h18.46.608,classification_task,2021.2.3,Win32,144.7178003,60da905f8fa5374e57b4ad71,626b377229c10585ec392f89,626b3abb5faa9641b2715a2b,,,,,,,,,,,,,,,,,,,,,,,a,1,"[""0.162"",""0.376"",""0.088"",""0.872""]","[1,1,0,1]",0,9,9,9,1,0,0,,,1,FALSE,7.4254,,,,,,,,,,,,,,,,,,,,,,,,,,,,,,
,60da905f8fa5374e57b4ad71,001,2022-04-29_03h18.46.608,classification_task,2021.2.3,Win32,144.7178003,60da905f8fa5374e57b4ad71,626b377229c10585ec392f89,626b3abb5faa9641b2715a2b,,,,,,,,,,,,,,,,,,,,,,,l,1,"[""0.027"",""0.233"",""0.089"",""0.770""]","[1,1,0,1]",0,10,10,10,1,1,1,,,1,FALSE,2.3113,,,,,,,,,,,,,,,,,,,,,,,,,,,,,,
,60da905f8fa5374e57b4ad71,001,2022-04-29_03h18.46.608,classification_task,2021.2.3,Win32,144.7178003,60da905f8fa5374e57b4ad71,626b377229c10585ec392f89,626b3abb5faa9641b2715a2b,,,,,,,,,,,,,,,,,,,,,,,a,1,"[""0.736"",""0.376"",""0.646"",""0.872""]","[0,1,1,1]",0,11,11,11,1,0,0,,,1,FALSE,6.8939,,,,,,,,,,,,,,,,,,,,,,,,,,,,,,
,60da905f8fa5374e57b4ad71,001,2022-04-29_03h18.46.608,classification_task,2021.2.3,Win32,144.7178003,60da905f8fa5374e57b4ad71,626b377229c10585ec392f89,626b3abb5faa9641b2715a2b,,,,,,,,,,,,,,,,,,,,,,,l,1,"[""0.123"",""0.198"",""0.538"",""0.498""]","[1,1,1,0]",0,12,12,12,1,1,0,,,1,FALSE,2.0543,,,,,,,,,,,,,,,,,,,,,,,,,,,,,,
,60da905f8fa5374e57b4ad71,001,2022-04-29_03h18.46.608,classification_task,2021.2.3,Win32,144.7178003,60da905f8fa5374e57b4ad71,626b377229c10585ec392f89,626b3abb5faa9641b2715a2b,,,,,,,,,,,,,,,,,,,,,,,l,1,"[""0.062"",""0.198"",""0.538"",""0.823""]","[0,1,1,1]",0,13,13,13,1,1,0,,,1,FALSE,5.3967,,,,,,,,,,,,,,,,,,,,,,,,,,,,,,
,60da905f8fa5374e57b4ad71,001,2022-04-29_03h18.46.608,classification_task,2021.2.3,Win32,144.7178003,60da905f8fa5374e57b4ad71,626b377229c10585ec392f89,626b3abb5faa9641b2715a2b,,,,,,,,,,,,,,,,,,,,,,,a,1,"[""0.305"",""0.421"",""0.586"",""0.736""]","[1,1,1,0]",0,14,14,14,1,0,1,,,1,FALSE,5.6579,,,,,,,,,,,,,,,,,,,,,,,,,,,,,,
,60da905f8fa5374e57b4ad71,001,2022-04-29_03h18.46.608,classification_task,2021.2.3,Win32,144.7178003,60da905f8fa5374e57b4ad71,626b377229c10585ec392f89,626b3abb5faa9641b2715a2b,,,,,,,,,,,,,,,,,,,,,,,a,1,"[""0.305"",""0.421"",""0.719"",""0.957""]","[1,1,0,1]",0,15,15,15,1,0,1,,,1,FALSE,4.4096,,,,,,,,,,,,,,,,,,,,,,,,,,,,,,
,60da905f8fa5374e57b4ad71,001,2022-04-29_03h18.46.608,classification_task,2021.2.3,Win32,144.7178003,60da905f8fa5374e57b4ad71,626b377229c10585ec392f89,626b3abb5faa9641b2715a2b,,,,,,,,,,,,,,,,,,,,,,,l,1,"[""0.123"",""0.198"",""0.538"",""0.062""]","[1,1,1,0]",0,16,16,16,1,1,0,,,1,FALSE,4.6425,,,,,,,,,,,,,,,,,,,,,,,,,,,,,,
,60da905f8fa5374e57b4ad71,001,2022-04-29_03h18.46.608,classification_task,2021.2.3,Win32,144.7178003,60da905f8fa5374e57b4ad71,626b377229c10585ec392f89,626b3abb5faa9641b2715a2b,,,,,,,,,,,,,,,,,,,,,,,l,1,"[""0.712"",""0.198"",""0.538"",""0.823""]","[0,1,1,1]",0,17,17,17,1,1,0,,,1,FALSE,4.0919,,,,,,,,,,,,,,,,,,,,,,,,,,,,,,
,60da905f8fa5374e57b4ad71,001,2022-04-29_03h18.46.608,classification_task,2021.2.3,Win32,144.7178003,60da905f8fa5374e57b4ad71,626b377229c10585ec392f89,626b3abb5faa9641b2715a2b,,,,,,,,,,,,,,,,,,,,,,,a,1,"[""0.305"",""0.421"",""0.088"",""0.957""]","[1,1,0,1]",0,18,18,18,1,0,1,,,1,FALSE,2.2122,,,,,,,,,,,,,,,,,,,,,,,,,,,,,,
,60da905f8fa5374e57b4ad71,001,2022-04-29_03h18.46.608,classification_task,2021.2.3,Win32,144.7178003,60da905f8fa5374e57b4ad71,626b377229c10585ec392f89,626b3abb5faa9641b2715a2b,,,,,,,,,,,,,,,,,,,,,,,a,1,"[""0.305"",""0.719"",""0.586"",""0.957""]","[1,0,1,1]",0,19,19,19,1,0,1,,,1,FALSE,1.4722,,,,,,,,,,,,,,,,,,,,,,,,,,,,,,
,60da905f8fa5374e57b4ad71,001,2022-04-29_03h18.46.608,classification_task,2021.2.3,Win32,144.7178003,60da905f8fa5374e57b4ad71,626b377229c10585ec392f89,626b3abb5faa9641b2715a2b,,,,,,,,,,,,,,,,,,,,,,,a,1,"[""0.162"",""0.736"",""0.646"",""0.872""]","[1,0,1,1]",0,20,20,20,1,0,0,,,1,FALSE,2.2478,,,,,,,,,,,,,,,,,,,,,,,,,,,,,,
,60da905f8fa5374e57b4ad71,001,2022-04-29_03h18.46.608,classification_task,2021.2.3,Win32,144.7178003,60da905f8fa5374e57b4ad71,626b377229c10585ec392f89,626b3abb5faa9641b2715a2b,,,,,,,,,,,,,,,,,,,,,,,a,1,"[""0.162"",""0.376"",""0.089"",""0.872""]","[1,1,0,1]",0,21,21,21,1,0,0,,,1,FALSE,2.1603,,,,,,,,,,,,,,,,,,,,,,,,,,,,,,
,60da905f8fa5374e57b4ad71,001,2022-04-29_03h18.46.608,classification_task,2021.2.3,Win32,144.7178003,60da905f8fa5374e57b4ad71,626b377229c10585ec392f89,626b3abb5faa9641b2715a2b,,,,,,,,,,,,,,,,,,,,,,,l,1,"[""0.027"",""0.233"",""0.464"",""0.726""]","[1,1,1,0]",0,22,22,22,1,1,1,,,1,FALSE,2.7749,,,,,,,,,,,,,,,,,,,,,,,,,,,,,,
,60da905f8fa5374e57b4ad71,001,2022-04-29_03h18.46.608,classification_task,2021.2.3,Win32,144.7178003,60da905f8fa5374e57b4ad71,626b377229c10585ec392f89,626b3abb5faa9641b2715a2b,,,,,,,,,,,,,,,,,,,,,,,a,1,"[""0.736"",""0.376"",""0.646"",""0.872""]","[0,1,1,1]",0,23,23,23,1,0,0,,,1,FALSE,2.2053,,,,,,,,,,,,,,,,,,,,,,,,,,,,,,
,60da905f8fa5374e57b4ad71,001,2022-04-29_03h18.46.608,classification_task,2021.2.3,Win32,144.7178003,60da905f8fa5374e57b4ad71,626b377229c10585ec392f89,626b3abb5faa9641b2715a2b,,,,,,,,,,,,,,,,,,,,,,,l,1,"[""0.123"",""0.088"",""0.538"",""0.823""]","[1,0,1,1]",0,24,24,24,1,1,0,,,1,FALSE,4.3892,,,,,,,,,,,,,,,,,,,,,,,,,,,,,,
,60da905f8fa5374e57b4ad71,001,2022-04-29_03h18.46.608,classification_task,2021.2.3,Win32,144.7178003,60da905f8fa5374e57b4ad71,626b377229c10585ec392f89,626b3abb5faa9641b2715a2b,,,,,,,,,,,,,,,,,,,,,,,a,1,"[""0.162"",""0.376"",""0.646"",""0.692""]","[1,1,1,0]",0,25,25,25,1,0,0,,,1,FALSE,5.6563,,,,,,,,,,,,,,,,,,,,,,,,,,,,,,
,60da905f8fa5374e57b4ad71,001,2022-04-29_03h18.46.608,classification_task,2021.2.3,Win32,144.7178003,60da905f8fa5374e57b4ad71,626b377229c10585ec392f89,626b3abb5faa9641b2715a2b,,,,,,,,,,,,,,,,,,,,,,,a,0,"[""0.027"",""0.233"",""0.915"",""0.770""]","[1,1,0,1]",0,26,26,26,1,1,1,,,1,FALSE,3.7668,,,,,,,,,,,,,,,,,,,,,,,,,,,,,,
,60da905f8fa5374e57b4ad71,001,2022-04-29_03h18.46.608,classification_task,2021.2.3,Win32,144.7178003,60da905f8fa5374e57b4ad71,626b377229c10585ec392f89,626b3abb5faa9641b2715a2b,,,,,,,,,,,,,,,,,,,,,,,l,1,"[""0.027"",""0.736"",""0.464"",""0.770""]","[1,0,1,1]",0,27,27,27,1,1,1,,,1,FALSE,3.4237,,,,,,,,,,,,,,,,,,,,,,,,,,,,,,
,60da905f8fa5374e57b4ad71,001,2022-04-29_03h18.46.608,classification_task,2021.2.3,Win32,144.7178003,60da905f8fa5374e57b4ad71,626b377229c10585ec392f89,626b3abb5faa9641b2715a2b,,,,,,,,,,,,,,,,,,,,,,,a,1,"[""0.305"",""0.421"",""0.586"",""0.712""]","[1,1,1,0]",0,28,28,28,1,0,1,,,1,FALSE,2.5903,,,,,,,,,,,,,,,,,,,,,,,,,,,,,,
,60da905f8fa5374e57b4ad71,001,2022-04-29_03h18.46.608,classification_task,2021.2.3,Win32,144.7178003,60da905f8fa5374e57b4ad71,626b377229c10585ec392f89,626b3abb5faa9641b2715a2b,,,,,,,,,,,,,,,,,,,,,,,l,1,"[""0.736"",""0.233"",""0.464"",""0.770""]","[0,1,1,1]",0,29,29,29,1,1,1,,,1,FALSE,4.5565,,,,,,,,,,,,,,,,,,,,,,,,,,,,,,
,60da905f8fa5374e57b4ad71,001,2022-04-29_03h18.46.608,classification_task,2021.2.3,Win32,144.7178003,60da905f8fa5374e57b4ad71,626b377229c10585ec392f89,626b3abb5faa9641b2715a2b,,,,,,,,,,,,,,,,,,,,,,,l,1,"[""0.123"",""0.198"",""0.066"",""0.823""]","[1,1,0,1]",0,30,30,30,1,1,0,,,1,FALSE,3.5978,,,,,,,,,,,,,,,,,,,,,,,,,,,,,,
,60da905f8fa5374e57b4ad71,001,2022-04-29_03h18.46.608,classification_task,2021.2.3,Win32,144.7178003,60da905f8fa5374e57b4ad71,626b377229c10585ec392f89,626b3abb5faa9641b2715a2b,,,,,,,,,,,,,,,,,,,,,,,a,1,"[""0.498"",""0.421"",""0.586"",""0.957""]","[0,1,1,1]",0,31,31,31,1,0,1,,,1,FALSE,2.9607,,,,,,,,,,,,,,,,,,,,,,,,,,,,,,
,60da905f8fa5374e57b4ad71,001,2022-04-29_03h18.46.608,classification_task,2021.2.3,Win32,144.7178003,60da905f8fa5374e57b4ad71,626b377229c10585ec392f89,626b3abb5faa9641b2715a2b,,,,,,,,,,,,,,,,,,,,,,,a,0,"[""0.123"",""0.066"",""0.538"",""0.823""]","[1,0,1,1]",0,32,32,32,1,1,0,,,1,FALSE,5.0543,,,,,,,,,,,,,,,,,,,,,,,,,,,,,,
,60da905f8fa5374e57b4ad71,001,2022-04-29_03h18.46.608,classification_task,2021.2.3,Win32,144.7178003,60da905f8fa5374e57b4ad71,626b377229c10585ec392f89,626b3abb5faa9641b2715a2b,,,,,,,,,,,,,,,,,,,,,,,a,1,"[""0.162"",""0.712"",""0.646"",""0.872""]","[1,0,1,1]",0,33,33,33,1,0,0,,,1,FALSE,3.8412,,,,,,,,,,,,,,,,,,,,,,,,,,,,,,
,60da905f8fa5374e57b4ad71,001,2022-04-29_03h18.46.608,classification_task,2021.2.3,Win32,144.7178003,60da905f8fa5374e57b4ad71,626b377229c10585ec392f89,626b3abb5faa9641b2715a2b,,,,,,,,,,,,,,,,,,,,,,,l,0,"[""0.305"",""0.421"",""0.586"",""0.088""]","[1,1,1,0]",0,34,34,34,1,0,1,,,1,FALSE,3.4163,,,,,,,,,,,,,,,,,,,,,,,,,,,,,,
,60da905f8fa5374e57b4ad71,001,2022-04-29_03h18.46.608,classification_task,2021.2.3,Win32,144.7178003,60da905f8fa5374e57b4ad71,626b377229c10585ec392f89,626b3abb5faa9641b2715a2b,,,,,,,,,,,,,,,,,,,,,,,l,0,"[""0.088"",""0.421"",""0.586"",""0.957""]","[0,1,1,1]",0,35,35,35,1,0,1,,,1,FALSE,3.8083,,,,,,,,,,,,,,,,,,,,,,,,,,,,,,
,60da905f8fa5374e57b4ad71,001,2022-04-29_03h18.46.608,classification_task,2021.2.3,Win32,144.7178003,60da905f8fa5374e57b4ad71,626b377229c10585ec392f89,626b3abb5faa9641b2715a2b,,,,,,,,,,,,,,,,,,,,,,,a,1,"[""0.088"",""0.376"",""0.646"",""0.872""]","[0,1,1,1]",0,36,36,36,1,0,0,,,1,FALSE,1.8821,,,,,,,,,,,,,,,,,,,,,,,,,,,,,,
,60da905f8fa5374e57b4ad71,001,2022-04-29_03h18.46.608,classification_task,2021.2.3,Win32,144.7178003,60da905f8fa5374e57b4ad71,626b377229c10585ec392f89,626b3abb5faa9641b2715a2b,,,,,,,,,,,,,,,,,,,,,,,l,1,"[""0.027"",""0.233"",""0.464"",""0.732""]","[1,1,1,0]",0,37,37,37,1,1,1,,,1,FALSE,2.7647,,,,,,,,,,,,,,,,,,,,,,,,,,,,,,
,60da905f8fa5374e57b4ad71,001,2022-04-29_03h18.46.608,classification_task,2021.2.3,Win32,144.7178003,60da905f8fa5374e57b4ad71,626b377229c10585ec392f89,626b3abb5faa9641b2715a2b,,,,,,,,,,,,,,,,,,,,,,,l,1,"[""0.732"",""0.198"",""0.538"",""0.823""]","[0,1,1,1]",0,38,38,38,1,1,0,,,1,FALSE,3.4202,,,,,,,,,,,,,,,,,,,,,,,,,,,,,,
,60da905f8fa5374e57b4ad71,001,2022-04-29_03h18.46.608,classification_task,2021.2.3,Win32,144.7178003,60da905f8fa5374e57b4ad71,626b377229c10585ec392f89,626b3abb5faa9641b2715a2b,,,,,,,,,,,,,,,,,,,,,,,l,0,"[""0.162"",""0.376"",""0.646"",""0.498""]","[1,1,1,0]",0,39,39,39,1,0,0,,,1,FALSE,3.4329,,,,,,,,,,,,,,,,,,,,,,,,,,,,,,
,60da905f8fa5374e57b4ad71,001,2022-04-29_03h18.46.608,classification_task,2021.2.3,Win32,144.7178003,60da905f8fa5374e57b4ad71,626b377229c10585ec392f89,626b3abb5faa9641b2715a2b,,,,,,,,,,,,,,,,,,,,,,,a,1,"[""0.162"",""0.376"",""0.088"",""0.872""]","[1,1,0,1]",0,40,40,40,1,0,0,,,1,FALSE,2.0576,,,,,,,,,,,,,,,,,,,,,,,,,,,,,,
,60da905f8fa5374e57b4ad71,001,2022-04-29_03h18.46.608,classification_task,2021.2.3,Win32,144.7178003,60da905f8fa5374e57b4ad71,626b377229c10585ec392f89,626b3abb5faa9641b2715a2b,,,,,,,,,,,,,,,,,,,,,,,l,1,"[""0.123"",""0.198"",""0.063"",""0.823""]","[1,1,0,1]",0,41,41,41,1,1,0,,,1,FALSE,1.1244,,,,,,,,,,,,,,,,,,,,,,,,,,,,,,
,60da905f8fa5374e57b4ad71,001,2022-04-29_03h18.46.608,classification_task,2021.2.3,Win32,144.7178003,60da905f8fa5374e57b4ad71,626b377229c10585ec392f89,626b3abb5faa9641b2715a2b,,,,,,,,,,,,,,,,,,,,,,,l,1,"[""0.123"",""0.198"",""0.538"",""0.712""]","[1,1,1,0]",0,42,42,42,1,1,0,,,1,FALSE,5.5484,,,,,,,,,,,,,,,,,,,,,,,,,,,,,,
,60da905f8fa5374e57b4ad71,001,2022-04-29_03h18.46.608,classification_task,2021.2.3,Win32,144.7178003,60da905f8fa5374e57b4ad71,626b377229c10585ec392f89,626b3abb5faa9641b2715a2b,,,,,,,,,,,,,,,,,,,,,,,a,1,"[""0.305"",""0.421"",""0.712"",""0.957""]","[1,1,0,1]",0,43,43,43,1,0,1,,,1,FALSE,1.6333,,,,,,,,,,,,,,,,,,,,,,,,,,,,,,
,60da905f8fa5374e57b4ad71,001,2022-04-29_03h18.46.608,classification_task,2021.2.3,Win32,144.7178003,60da905f8fa5374e57b4ad71,626b377229c10585ec392f89,626b3abb5faa9641b2715a2b,,,,,,,,,,,,,,,,,,,,,,,l,1,"[""0.692"",""0.233"",""0.464"",""0.770""]","[0,1,1,1]",0,44,44,44,1,1,1,,,1,FALSE,5.0904,,,,,,,,,,,,,,,,,,,,,,,,,,,,,,
,60da905f8fa5374e57b4ad71,001,2022-04-29_03h18.46.608,classification_task,2021.2.3,Win32,144.7178003,60da905f8fa5374e57b4ad71,626b377229c10585ec392f89,626b3abb5faa9641b2715a2b,,,,,,,,,,,,,,,,,,,,,,,a,1,"[""0.305"",""0.692"",""0.586"",""0.957""]","[1,0,1,1]",0,45,45,45,1,0,1,,,1,FALSE,1.0619,,,,,,,,,,,,,,,,,,,,,,,,,,,,,,
,60da905f8fa5374e57b4ad71,001,2022-04-29_03h18.46.608,classification_task,2021.2.3,Win32,144.7178003,60da905f8fa5374e57b4ad71,626b377229c10585ec392f89,626b3abb5faa9641b2715a2b,,,,,,,,,,,,,,,,,,,,,,,l,1,"[""0.027"",""0.233"",""0.915"",""0.770""]","[1,1,0,1]",0,46,46,46,1,1,1,,,1,FALSE,2.1075,,,,,,,,,,,,,,,,,,,,,,,,,,,,,,
,60da905f8fa5374e57b4ad71,001,2022-04-29_03h18.46.608,classification_task,2021.2.3,Win32,144.7178003,60da905f8fa5374e57b4ad71,626b377229c10585ec392f89,626b3abb5faa9641b2715a2b,,,,,,,,,,,,,,,,,,,,,,,l,1,"[""0.027"",""0.088"",""0.464"",""0.770""]","[1,0,1,1]",0,47,47,47,1,1,1,,,1,FALSE,2.9721,,,,,,,,,,,,,,,,,,,,,,,,,,,,,,
,60da905f8fa5374e57b4ad71,001,2022-04-29_03h18.46.608,classification_task,2021.2.3,Win32,144.7178003,60da905f8fa5374e57b4ad71,626b377229c10585ec392f89,626b3abb5faa9641b2715a2b,,,,,,,,,,,,,,,,,,,,,,,a,0,"[""0.123"",""0.726"",""0.538"",""0.823""]","[1,0,1,1]",0,48,48,48,1,1,0,,,1,FALSE,4.0134,,,,,,,,,,,,,,,,,,,,,,,,,,,,,,
,60da905f8fa5374e57b4ad71,001,2022-04-29_03h18.46.608,classification_task,2021.2.3,Win32,144.7178003,60da905f8fa5374e57b4ad71,626b377229c10585ec392f89,626b3abb5faa9641b2715a2b,,,,,,,,,,,,,,,,,,,,,,,a,0,"[""0.123"",""0.198"",""0.071"",""0.823""]","[1,1,0,1]",0,49,49,49,1,1,0,,,1,FALSE,6.9586,,,,,,,,,,,,,,,,,,,,,,,,,,,,,,
,60da905f8fa5374e57b4ad71,001,2022-04-29_03h18.46.608,classification_task,2021.2.3,Win32,144.7178003,60da905f8fa5374e57b4ad71,626b377229c10585ec392f89,626b3abb5faa9641b2715a2b,,,,,,,,,,,,,,,,,,,,,,,a,1,"[""0.305"",""0.421"",""0.586"",""0.736""]","[1,1,1,0]",0,50,50,50,1,0,1,,,1,FALSE,2.1738,,,,,,,,,,,,,,,,,,,,,,,,,,,,,,
,60da905f8fa5374e57b4ad71,001,2022-04-29_03h18.46.608,classification_task,2021.2.3,Win32,144.7178003,60da905f8fa5374e57b4ad71,626b377229c10585ec392f89,626b3abb5faa9641b2715a2b,,,,,,,,,,,,,,,,,,,,,,,l,1,"[""0.498"",""0.233"",""0.464"",""0.770""]","[0,1,1,1]",0,51,51,51,1,1,1,,,1,FALSE,1.3119,,,,,,,,,,,,,,,,,,,,,,,,,,,,,,
,60da905f8fa5374e57b4ad71,001,2022-04-29_03h18.46.608,classification_task,2021.2.3,Win32,144.7178003,60da905f8fa5374e57b4ad71,626b377229c10585ec392f89,626b3abb5faa9641b2715a2b,,,,,,,,,,,,,,,,,,,,,,,a,1,"[""0.162"",""0.376"",""0.071"",""0.872""]","[1,1,0,1]",0,52,52,52,1,0,0,,,1,FALSE,1.1601,,,,,,,,,,,,,,,,,,,,,,,,,,,,,,
,60da905f8fa5374e57b4ad71,001,2022-04-29_03h18.46.608,classification_task,2021.2.3,Win32,144.7178003,60da905f8fa5374e57b4ad71,626b377229c10585ec392f89,626b3abb5faa9641b2715a2b,,,,,,,,,,,,,,,,,,,,,,,l,1,"[""0.027"",""0.233"",""0.464"",""0.736""]","[1,1,1,0]",0,53,53,53,1,1,1,,,1,FALSE,1.6908,,,,,,,,,,,,,,,,,,,,,,,,,,,,,,
,60da905f8fa5374e57b4ad71,001,2022-04-29_03h18.46.608,classification_task,2021.2.3,Win32,144.7178003,60da905f8fa5374e57b4ad71,626b377229c10585ec392f89,626b3abb5faa9641b2715a2b,,,,,,,,,,,,,,,,,,,,,,,a,1,"[""0.305"",""0.712"",""0.586"",""0.957""]","[1,0,1,1]",0,54,54,54,1,0,1,,,1,FALSE,1.0287,,,,,,,,,,,,,,,,,,,,,,,,,,,,,,
,60da905f8fa5374e57b4ad71,001,2022-04-29_03h18.46.608,classification_task,2021.2.3,Win32,144.7178003,60da905f8fa5374e57b4ad71,626b377229c10585ec392f89,626b3abb5faa9641b2715a2b,,,,,,,,,,,,,,,,,,,,,,,l,0,"[""0.162"",""0.376"",""0.646"",""0.732""]","[1,1,1,0]",0,55,55,55,1,0,0,,,1,FALSE,2.0198,,,,,,,,,,,,,,,,,,,,,,,,,,,,,,
,60da905f8fa5374e57b4ad71,001,2022-04-29_03h18.46.608,classification_task,2021.2.3,Win32,144.7178003,60da905f8fa5374e57b4ad71,626b377229c10585ec392f89,626b3abb5faa9641b2715a2b,,,,,,,,,,,,,,,,,,,,,,,l,0,"[""0.162"",""0.089"",""0.646"",""0.872""]","[1,0,1,1]",0,56,56,56,1,0,0,,,1,FALSE,3.5834,,,,,,,,,,,,,,,,,,,,,,,,,,,,,,
,60da905f8fa5374e57b4ad71,001,2022-04-29_03h18.46.608,classification_task,2021.2.3,Win32,144.7178003,60da905f8fa5374e57b4ad71,626b377229c10585ec392f89,626b3abb5faa9641b2715a2b,,,,,,,,,,,,,,,,,,,,,,,a,0,"[""0.027"",""0.071"",""0.464"",""0.770""]","[1,0,1,1]",0,57,57,57,1,1,1,,,1,FALSE,2.5143,,,,,,,,,,,,,,,,,,,,,,,,,,,,,,
,60da905f8fa5374e57b4ad71,001,2022-04-29_03h18.46.608,classification_task,2021.2.3,Win32,144.7178003,60da905f8fa5374e57b4ad71,626b377229c10585ec392f89,626b3abb5faa9641b2715a2b,,,,,,,,,,,,,,,,,,,,,,,a,1,"[""0.305"",""0.421"",""0.915"",""0.957""]","[1,1,0,1]",0,58,58,58,1,0,1,,,1,FALSE,1.4214,,,,,,,,,,,,,,,,,,,,,,,,,,,,,,
,60da905f8fa5374e57b4ad71,001,2022-04-29_03h18.46.608,classification_task,2021.2.3,Win32,144.7178003,60da905f8fa5374e57b4ad71,626b377229c10585ec392f89,626b3abb5faa9641b2715a2b,,,,,,,,,,,,,,,,,,,,,,,a,0,"[""0.062"",""0.198"",""0.538"",""0.823""]","[0,1,1,1]",0,59,59,59,1,1,0,,,1,FALSE,2.4866,,,,,,,,,,,,,,,,,,,,,,,,,,,,,,
,60da905f8fa5374e57b4ad71,001,2022-04-29_03h18.46.608,classification_task,2021.2.3,Win32,144.7178003,60da905f8fa5374e57b4ad71,626b377229c10585ec392f89,626b3abb5faa9641b2715a2b,,,,,,,,,,,,,,,,,,,,,,,a,0,"[""0.027"",""0.233"",""0.498"",""0.770""]","[1,1,0,1]",0,60,60,60,1,1,1,,,1,FALSE,4.7751,,,,,,,,,,,,,,,,,,,,,,,,,,,,,,
,60da905f8fa5374e57b4ad71,001,2022-04-29_03h18.46.608,classification_task,2021.2.3,Win32,144.7178003,60da905f8fa5374e57b4ad71,626b377229c10585ec392f89,626b3abb5faa9641b2715a2b,,,,,,,,,,,,,,,,,,,,,,,a,1,"[""0.719"",""0.376"",""0.646"",""0.872""]","[0,1,1,1]",0,61,61,61,1,0,0,,,1,FALSE,1.2964,,,,,,,,,,,,,,,,,,,,,,,,,,,,,,
,60da905f8fa5374e57b4ad71,001,2022-04-29_03h18.46.608,classification_task,2021.2.3,Win32,144.7178003,60da905f8fa5374e57b4ad71,626b377229c10585ec392f89,626b3abb5faa9641b2715a2b,,,,,,,,,,,,,,,,,,,,,,,a,1,"[""0.071"",""0.421"",""0.586"",""0.957""]","[0,1,1,1]",0,62,62,62,1,0,1,,,1,FALSE,1.2573,,,,,,,,,,,,,,,,,,,,,,,,,,,,,,
,60da905f8fa5374e57b4ad71,001,2022-04-29_03h18.46.608,classification_task,2021.2.3,Win32,144.7178003,60da905f8fa5374e57b4ad71,626b377229c10585ec392f89,626b3abb5faa9641b2715a2b,,,,,,,,,,,,,,,,,,,,,,,l,1,"[""0.123"",""0.198"",""0.538"",""0.062""]","[1,1,1,0]",0,63,63,63,1,1,0,,,1,FALSE,3.1116,,,,,,,,,,,,,,,,,,,,,,,,,,,,,,
,60da905f8fa5374e57b4ad71,001,2022-04-29_03h18.46.608,classification_task,2021.2.3,Win32,144.7178003,60da905f8fa5374e57b4ad71,626b377229c10585ec392f89,626b3abb5faa9641b2715a2b,,,,,,,,,,,,,,,,,,,,,,,,,,,,,,,,,,,,,,,0, ,,0,6.9106408,499.3683,0,0,0,0,1,2,1,,,,,,,,,,,,,,,,,
,60da905f8fa5374e57b4ad71,001,2022-04-29_03h18.46.608,classification_task,2021.2.3,Win32,144.7178003,60da905f8fa5374e57b4ad71,626b377229c10585ec392f89,626b3abb5faa9641b2715a2b,,,,,,,,,,,,,,,,,,,,,,,,,,,,,,,,,,,,,,,1,  ,,0,10,481.8842,0,0,0,0,1,2,1,,,,,,,,,,,,,,,,,
,60da905f8fa5374e57b4ad71,001,2022-04-29_03h18.46.608,classification_task,2021.2.3,Win32,144.7178003,60da905f8fa5374e57b4ad71,626b377229c10585ec392f89,626b3abb5faa9641b2715a2b,,,,,,,,,,,,,,,,,,,,,,,,,,,,,,,,,,,,,,,2,  ,,0,6.200274348,491.4663,0,0,0,0,1,2,1,,,,,,,,,,,,,,,,,
,60da905f8fa5374e57b4ad71,001,2022-04-29_03h18.46.608,classification_task,2021.2.3,Win32,144.7178003,60da905f8fa5374e57b4ad71,626b377229c10585ec392f89,626b3abb5faa9641b2715a2b,,,,,,,,,,,,,,,,,,,,,,,,,,,,,,,,,,,,,,,,,,,,,0,0,0,0,1,,1,,,,,,,,,,,,,,,,,
,60da905f8fa5374e57b4ad71,001,2022-04-29_03h18.46.608,classification_task,2021.2.3,Win32,144.7178003,60da905f8fa5374e57b4ad71,626b377229c10585ec392f89,626b3abb5faa9641b2715a2b,,,,,,,,,,,,,,,,,,,,,space,8.4672,a,1,"[""0.162"",""0.071"",""0.646"",""0.872""]","[1,0,1,1]",0,0,0,0,1,0,0,,,1,FALSE,2.5025,,,,,,,,,,,,,,,,,,,,,,,,,,,,,,
,60da905f8fa5374e57b4ad71,001,2022-04-29_03h18.46.608,classification_task,2021.2.3,Win32,144.7178003,60da905f8fa5374e57b4ad71,626b377229c10585ec392f89,626b3abb5faa9641b2715a2b,,,,,,,,,,,,,,,,,,,,,,,a,1,"[""0.305"",""0.421"",""0.498"",""0.957""]","[1,1,0,1]",0,1,1,1,1,0,1,,,1,FALSE,2.439,,,,,,,,,,,,,,,,,,,,,,,,,,,,,,
,60da905f8fa5374e57b4ad71,001,2022-04-29_03h18.46.608,classification_task,2021.2.3,Win32,144.7178003,60da905f8fa5374e57b4ad71,626b377229c10585ec392f89,626b3abb5faa9641b2715a2b,,,,,,,,,,,,,,,,,,,,,,,l,1,"[""0.027"",""0.233"",""0.712"",""0.770""]","[1,1,0,1]",0,2,2,2,1,1,1,,,1,FALSE,2.034,,,,,,,,,,,,,,,,,,,,,,,,,,,,,,
,60da905f8fa5374e57b4ad71,001,2022-04-29_03h18.46.608,classification_task,2021.2.3,Win32,144.7178003,60da905f8fa5374e57b4ad71,626b377229c10585ec392f89,626b3abb5faa9641b2715a2b,,,,,,,,,,,,,,,,,,,,,,,a,1,"[""0.732"",""0.376"",""0.646"",""0.872""]","[0,1,1,1]",0,3,3,3,1,0,0,,,1,FALSE,1.159,,,,,,,,,,,,,,,,,,,,,,,,,,,,,,
,60da905f8fa5374e57b4ad71,001,2022-04-29_03h18.46.608,classification_task,2021.2.3,Win32,144.7178003,60da905f8fa5374e57b4ad71,626b377229c10585ec392f89,626b3abb5faa9641b2715a2b,,,,,,,,,,,,,,,,,,,,,,,a,1,"[""0.162"",""0.376"",""0.089"",""0.872""]","[1,1,0,1]",0,4,4,4,1,0,0,,,1,FALSE,0.8468,,,,,,,,,,,,,,,,,,,,,,,,,,,,,,
,60da905f8fa5374e57b4ad71,001,2022-04-29_03h18.46.608,classification_task,2021.2.3,Win32,144.7178003,60da905f8fa5374e57b4ad71,626b377229c10585ec392f89,626b3abb5faa9641b2715a2b,,,,,,,,,,,,,,,,,,,,,,,l,1,"[""0.088"",""0.233"",""0.464"",""0.770""]","[0,1,1,1]",0,5,5,5,1,1,1,,,1,FALSE,1.3985,,,,,,,,,,,,,,,,,,,,,,,,,,,,,,
,60da905f8fa5374e57b4ad71,001,2022-04-29_03h18.46.608,classification_task,2021.2.3,Win32,144.7178003,60da905f8fa5374e57b4ad71,626b377229c10585ec392f89,626b3abb5faa9641b2715a2b,,,,,,,,,,,,,,,,,,,,,,,l,1,"[""0.123"",""0.198"",""0.538"",""0.719""]","[1,1,1,0]",0,6,6,6,1,1,0,,,1,FALSE,2.7803,,,,,,,,,,,,,,,,,,,,,,,,,,,,,,
,60da905f8fa5374e57b4ad71,001,2022-04-29_03h18.46.608,classification_task,2021.2.3,Win32,144.7178003,60da905f8fa5374e57b4ad71,626b377229c10585ec392f89,626b3abb5faa9641b2715a2b,,,,,,,,,,,,,,,,,,,,,,,a,1,"[""0.088"",""0.421"",""0.586"",""0.957""]","[0,1,1,1]",0,7,7,7,1,0,1,,,1,FALSE,0.9025,,,,,,,,,,,,,,,,,,,,,,,,,,,,,,
,60da905f8fa5374e57b4ad71,001,2022-04-29_03h18.46.608,classification_task,2021.2.3,Win32,144.7178003,60da905f8fa5374e57b4ad71,626b377229c10585ec392f89,626b3abb5faa9641b2715a2b,,,,,,,,,,,,,,,,,,,,,,,a,1,"[""0.162"",""0.376"",""0.646"",""0.736""]","[1,1,1,0]",0,8,8,8,1,0,0,,,1,FALSE,3.3066,,,,,,,,,,,,,,,,,,,,,,,,,,,,,,
,60da905f8fa5374e57b4ad71,001,2022-04-29_03h18.46.608,classification_task,2021.2.3,Win32,144.7178003,60da905f8fa5374e57b4ad71,626b377229c10585ec392f89,626b3abb5faa9641b2715a2b,,,,,,,,,,,,,,,,,,,,,,,l,1,"[""0.498"",""0.198"",""0.538"",""0.823""]","[0,1,1,1]",0,9,9,9,1,1,0,,,1,FALSE,1.1954,,,,,,,,,,,,,,,,,,,,,,,,,,,,,,
,60da905f8fa5374e57b4ad71,001,2022-04-29_03h18.46.608,classification_task,2021.2.3,Win32,144.7178003,60da905f8fa5374e57b4ad71,626b377229c10585ec392f89,626b3abb5faa9641b2715a2b,,,,,,,,,,,,,,,,,,,,,,,l,0,"[""0.305"",""0.421"",""0.586"",""0.063""]","[1,1,1,0]",0,10,10,10,1,0,1,,,1,FALSE,1.2294,,,,,,,,,,,,,,,,,,,,,,,,,,,,,,
,60da905f8fa5374e57b4ad71,001,2022-04-29_03h18.46.608,classification_task,2021.2.3,Win32,144.7178003,60da905f8fa5374e57b4ad71,626b377229c10585ec392f89,626b3abb5faa9641b2715a2b,,,,,,,,,,,,,,,,,,,,,,,l,1,"[""0.123"",""0.063"",""0.538"",""0.823""]","[1,0,1,1]",0,11,11,11,1,1,0,,,1,FALSE,1.3466,,,,,,,,,,,,,,,,,,,,,,,,,,,,,,
,60da905f8fa5374e57b4ad71,001,2022-04-29_03h18.46.608,classification_task,2021.2.3,Win32,144.7178003,60da905f8fa5374e57b4ad71,626b377229c10585ec392f89,626b3abb5faa9641b2715a2b,,,,,,,,,,,,,,,,,,,,,,,l,1,"[""0.123"",""0.198"",""0.726"",""0.823""]","[1,1,0,1]",0,12,12,12,1,1,0,,,1,FALSE,0.7314,,,,,,,,,,,,,,,,,,,,,,,,,,,,,,
,60da905f8fa5374e57b4ad71,001,2022-04-29_03h18.46.608,classification_task,2021.2.3,Win32,144.7178003,60da905f8fa5374e57b4ad71,626b377229c10585ec392f89,626b3abb5faa9641b2715a2b,,,,,,,,,,,,,,,,,,,,,,,l,1,"[""0.027"",""0.233"",""0.464"",""0.066""]","[1,1,1,0]",0,13,13,13,1,1,1,,,1,FALSE,2.2716,,,,,,,,,,,,,,,,,,,,,,,,,,,,,,
,60da905f8fa5374e57b4ad71,001,2022-04-29_03h18.46.608,classification_task,2021.2.3,Win32,144.7178003,60da905f8fa5374e57b4ad71,626b377229c10585ec392f89,626b3abb5faa9641b2715a2b,,,,,,,,,,,,,,,,,,,,,,,a,1,"[""0.305"",""0.063"",""0.586"",""0.957""]","[1,0,1,1]",0,14,14,14,1,0,1,,,1,FALSE,0.7994,,,,,,,,,,,,,,,,,,,,,,,,,,,,,,
,60da905f8fa5374e57b4ad71,001,2022-04-29_03h18.46.608,classification_task,2021.2.3,Win32,144.7178003,60da905f8fa5374e57b4ad71,626b377229c10585ec392f89,626b3abb5faa9641b2715a2b,,,,,,,,,,,,,,,,,,,,,,,l,1,"[""0.027"",""0.726"",""0.464"",""0.770""]","[1,0,1,1]",0,15,15,15,1,1,1,,,1,FALSE,2.256,,,,,,,,,,,,,,,,,,,,,,,,,,,,,,
,60da905f8fa5374e57b4ad71,001,2022-04-29_03h18.46.608,classification_task,2021.2.3,Win32,144.7178003,60da905f8fa5374e57b4ad71,626b377229c10585ec392f89,626b3abb5faa9641b2715a2b,,,,,,,,,,,,,,,,,,,,,,,l,0,"[""0.162"",""0.376"",""0.646"",""0.692""]","[1,1,1,0]",0,16,16,16,1,0,0,,,1,FALSE,2.9578,,,,,,,,,,,,,,,,,,,,,,,,,,,,,,
,60da905f8fa5374e57b4ad71,001,2022-04-29_03h18.46.608,classification_task,2021.2.3,Win32,144.7178003,60da905f8fa5374e57b4ad71,626b377229c10585ec392f89,626b3abb5faa9641b2715a2b,,,,,,,,,,,,,,,,,,,,,,,l,1,"[""0.915"",""0.198"",""0.538"",""0.823""]","[0,1,1,1]",0,17,17,17,1,1,0,,,1,FALSE,2.527,,,,,,,,,,,,,,,,,,,,,,,,,,,,,,
,60da905f8fa5374e57b4ad71,001,2022-04-29_03h18.46.608,classification_task,2021.2.3,Win32,144.7178003,60da905f8fa5374e57b4ad71,626b377229c10585ec392f89,626b3abb5faa9641b2715a2b,,,,,,,,,,,,,,,,,,,,,,,a,1,"[""0.305"",""0.421"",""0.586"",""0.063""]","[1,1,1,0]",0,18,18,18,1,0,1,,,1,FALSE,2.7833,,,,,,,,,,,,,,,,,,,,,,,,,,,,,,
,60da905f8fa5374e57b4ad71,001,2022-04-29_03h18.46.608,classification_task,2021.2.3,Win32,144.7178003,60da905f8fa5374e57b4ad71,626b377229c10585ec392f89,626b3abb5faa9641b2715a2b,,,,,,,,,,,,,,,,,,,,,,,a,1,"[""0.162"",""0.376"",""0.726"",""0.872""]","[1,1,0,1]",0,19,19,19,1,0,0,,,1,FALSE,2.6908,,,,,,,,,,,,,,,,,,,,,,,,,,,,,,
,60da905f8fa5374e57b4ad71,001,2022-04-29_03h18.46.608,classification_task,2021.2.3,Win32,144.7178003,60da905f8fa5374e57b4ad71,626b377229c10585ec392f89,626b3abb5faa9641b2715a2b,,,,,,,,,,,,,,,,,,,,,,,a,1,"[""0.162"",""0.071"",""0.646"",""0.872""]","[1,0,1,1]",0,20,20,20,1,0,0,,,1,FALSE,0.8881,,,,,,,,,,,,,,,,,,,,,,,,,,,,,,
,60da905f8fa5374e57b4ad71,001,2022-04-29_03h18.46.608,classification_task,2021.2.3,Win32,144.7178003,60da905f8fa5374e57b4ad71,626b377229c10585ec392f89,626b3abb5faa9641b2715a2b,,,,,,,,,,,,,,,,,,,,,,,l,1,"[""0.123"",""0.736"",""0.538"",""0.823""]","[1,0,1,1]",0,21,21,21,1,1,0,,,1,FALSE,0.9164,,,,,,,,,,,,,,,,,,,,,,,,,,,,,,
,60da905f8fa5374e57b4ad71,001,2022-04-29_03h18.46.608,classification_task,2021.2.3,Win32,144.7178003,60da905f8fa5374e57b4ad71,626b377229c10585ec392f89,626b3abb5faa9641b2715a2b,,,,,,,,,,,,,,,,,,,,,,,l,1,"[""0.027"",""0.233"",""0.464"",""0.088""]","[1,1,1,0]",0,22,22,22,1,1,1,,,1,FALSE,1.32,,,,,,,,,,,,,,,,,,,,,,,,,,,,,,
,60da905f8fa5374e57b4ad71,001,2022-04-29_03h18.46.608,classification_task,2021.2.3,Win32,144.7178003,60da905f8fa5374e57b4ad71,626b377229c10585ec392f89,626b3abb5faa9641b2715a2b,,,,,,,,,,,,,,,,,,,,,,,a,1,"[""0.736"",""0.421"",""0.586"",""0.957""]","[0,1,1,1]",0,23,23,23,1,0,1,,,1,FALSE,0.791,,,,,,,,,,,,,,,,,,,,,,,,,,,,,,
,60da905f8fa5374e57b4ad71,001,2022-04-29_03h18.46.608,classification_task,2021.2.3,Win32,144.7178003,60da905f8fa5374e57b4ad71,626b377229c10585ec392f89,626b3abb5faa9641b2715a2b,,,,,,,,,,,,,,,,,,,,,,,a,1,"[""0.305"",""0.088"",""0.586"",""0.957""]","[1,0,1,1]",0,24,24,24,1,0,1,,,1,FALSE,0.5723,,,,,,,,,,,,,,,,,,,,,,,,,,,,,,
,60da905f8fa5374e57b4ad71,001,2022-04-29_03h18.46.608,classification_task,2021.2.3,Win32,144.7178003,60da905f8fa5374e57b4ad71,626b377229c10585ec392f89,626b3abb5faa9641b2715a2b,,,,,,,,,,,,,,,,,,,,,,,l,1,"[""0.027"",""0.233"",""0.066"",""0.770""]","[1,1,0,1]",0,25,25,25,1,1,1,,,1,FALSE,3.5969,,,,,,,,,,,,,,,,,,,,,,,,,,,,,,
,60da905f8fa5374e57b4ad71,001,2022-04-29_03h18.46.608,classification_task,2021.2.3,Win32,144.7178003,60da905f8fa5374e57b4ad71,626b377229c10585ec392f89,626b3abb5faa9641b2715a2b,,,,,,,,,,,,,,,,,,,,,,,a,1,"[""0.305"",""0.421"",""0.736"",""0.957""]","[1,1,0,1]",0,26,26,26,1,0,1,,,1,FALSE,0.7178,,,,,,,,,,,,,,,,,,,,,,,,,,,,,,
,60da905f8fa5374e57b4ad71,001,2022-04-29_03h18.46.608,classification_task,2021.2.3,Win32,144.7178003,60da905f8fa5374e57b4ad71,626b377229c10585ec392f89,626b3abb5faa9641b2715a2b,,,,,,,,,,,,,,,,,,,,,,,l,1,"[""0.088"",""0.233"",""0.464"",""0.770""]","[0,1,1,1]",0,27,27,27,1,1,1,,,1,FALSE,1.3894,,,,,,,,,,,,,,,,,,,,,,,,,,,,,,
,60da905f8fa5374e57b4ad71,001,2022-04-29_03h18.46.608,classification_task,2021.2.3,Win32,144.7178003,60da905f8fa5374e57b4ad71,626b377229c10585ec392f89,626b3abb5faa9641b2715a2b,,,,,,,,,,,,,,,,,,,,,,,a,0,"[""0.027"",""0.088"",""0.464"",""0.770""]","[1,0,1,1]",0,28,28,28,1,1,1,,,1,FALSE,1.2702,,,,,,,,,,,,,,,,,,,,,,,,,,,,,,
,60da905f8fa5374e57b4ad71,001,2022-04-29_03h18.46.608,classification_task,2021.2.3,Win32,144.7178003,60da905f8fa5374e57b4ad71,626b377229c10585ec392f89,626b3abb5faa9641b2715a2b,,,,,,,,,,,,,,,,,,,,,,,l,1,"[""0.123"",""0.198"",""0.719"",""0.823""]","[1,1,0,1]",0,29,29,29,1,1,0,,,1,FALSE,1.8915,,,,,,,,,,,,,,,,,,,,,,,,,,,,,,
,60da905f8fa5374e57b4ad71,001,2022-04-29_03h18.46.608,classification_task,2021.2.3,Win32,144.7178003,60da905f8fa5374e57b4ad71,626b377229c10585ec392f89,626b3abb5faa9641b2715a2b,,,,,,,,,,,,,,,,,,,,,,,a,1,"[""0.692"",""0.376"",""0.646"",""0.872""]","[0,1,1,1]",0,30,30,30,1,0,0,,,1,FALSE,1.3885,,,,,,,,,,,,,,,,,,,,,,,,,,,,,,
,60da905f8fa5374e57b4ad71,001,2022-04-29_03h18.46.608,classification_task,2021.2.3,Win32,144.7178003,60da905f8fa5374e57b4ad71,626b377229c10585ec392f89,626b3abb5faa9641b2715a2b,,,,,,,,,,,,,,,,,,,,,,,a,0,"[""0.123"",""0.198"",""0.538"",""0.089""]","[1,1,1,0]",0,31,31,31,1,1,0,,,1,FALSE,1.2013,,,,,,,,,,,,,,,,,,,,,,,,,,,,,,
,60da905f8fa5374e57b4ad71,001,2022-04-29_03h18.46.608,classification_task,2021.2.3,Win32,144.7178003,60da905f8fa5374e57b4ad71,626b377229c10585ec392f89,626b3abb5faa9641b2715a2b,,,,,,,,,,,,,,,,,,,,,,,l,1,"[""0.123"",""0.719"",""0.538"",""0.823""]","[1,0,1,1]",0,32,32,32,1,1,0,,,1,FALSE,0.9677,,,,,,,,,,,,,,,,,,,,,,,,,,,,,,
,60da905f8fa5374e57b4ad71,001,2022-04-29_03h18.46.608,classification_task,2021.2.3,Win32,144.7178003,60da905f8fa5374e57b4ad71,626b377229c10585ec392f89,626b3abb5faa9641b2715a2b,,,,,,,,,,,,,,,,,,,,,,,a,1,"[""0.305"",""0.071"",""0.586"",""0.957""]","[1,0,1,1]",0,33,33,33,1,0,1,,,1,FALSE,0.6458,,,,,,,,,,,,,,,,,,,,,,,,,,,,,,
,60da905f8fa5374e57b4ad71,001,2022-04-29_03h18.46.608,classification_task,2021.2.3,Win32,144.7178003,60da905f8fa5374e57b4ad71,626b377229c10585ec392f89,626b3abb5faa9641b2715a2b,,,,,,,,,,,,,,,,,,,,,,,l,0,"[""0.063"",""0.376"",""0.646"",""0.872""]","[0,1,1,1]",0,34,34,34,1,0,0,,,1,FALSE,1.4581,,,,,,,,,,,,,,,,,,,,,,,,,,,,,,
,60da905f8fa5374e57b4ad71,001,2022-04-29_03h18.46.608,classification_task,2021.2.3,Win32,144.7178003,60da905f8fa5374e57b4ad71,626b377229c10585ec392f89,626b3abb5faa9641b2715a2b,,,,,,,,,,,,,,,,,,,,,,,a,0,"[""0.732"",""0.233"",""0.464"",""0.770""]","[0,1,1,1]",0,35,35,35,1,1,1,,,1,FALSE,3.298,,,,,,,,,,,,,,,,,,,,,,,,,,,,,,
,60da905f8fa5374e57b4ad71,001,2022-04-29_03h18.46.608,classification_task,2021.2.3,Win32,144.7178003,60da905f8fa5374e57b4ad71,626b377229c10585ec392f89,626b3abb5faa9641b2715a2b,,,,,,,,,,,,,,,,,,,,,,,l,1,"[""0.498"",""0.198"",""0.538"",""0.823""]","[0,1,1,1]",0,36,36,36,1,1,0,,,1,FALSE,1.1964,,,,,,,,,,,,,,,,,,,,,,,,,,,,,,
,60da905f8fa5374e57b4ad71,001,2022-04-29_03h18.46.608,classification_task,2021.2.3,Win32,144.7178003,60da905f8fa5374e57b4ad71,626b377229c10585ec392f89,626b3abb5faa9641b2715a2b,,,,,,,,,,,,,,,,,,,,,,,a,1,"[""0.305"",""0.421"",""0.586"",""0.712""]","[1,1,1,0]",0,37,37,37,1,0,1,,,1,FALSE,3.7354,,,,,,,,,,,,,,,,,,,,,,,,,,,,,,
,60da905f8fa5374e57b4ad71,001,2022-04-29_03h18.46.608,classification_task,2021.2.3,Win32,144.7178003,60da905f8fa5374e57b4ad71,626b377229c10585ec392f89,626b3abb5faa9641b2715a2b,,,,,,,,,,,,,,,,,,,,,,,a,1,"[""0.162"",""0.712"",""0.646"",""0.872""]","[1,0,1,1]",0,38,38,38,1,0,0,,,1,FALSE,1.017,,,,,,,,,,,,,,,,,,,,,,,,,,,,,,
,60da905f8fa5374e57b4ad71,001,2022-04-29_03h18.46.608,classification_task,2021.2.3,Win32,144.7178003,60da905f8fa5374e57b4ad71,626b377229c10585ec392f89,626b3abb5faa9641b2715a2b,,,,,,,,,,,,,,,,,,,,,,,l,1,"[""0.123"",""0.198"",""0.538"",""0.719""]","[1,1,1,0]",0,39,39,39,1,1,0,,,1,FALSE,2.215,,,,,,,,,,,,,,,,,,,,,,,,,,,,,,
,60da905f8fa5374e57b4ad71,001,2022-04-29_03h18.46.608,classification_task,2021.2.3,Win32,144.7178003,60da905f8fa5374e57b4ad71,626b377229c10585ec392f89,626b3abb5faa9641b2715a2b,,,,,,,,,,,,,,,,,,,,,,,l,1,"[""0.027"",""0.233"",""0.464"",""0.066""]","[1,1,1,0]",0,40,40,40,1,1,1,,,1,FALSE,1.6449,,,,,,,,,,,,,,,,,,,,,,,,,,,,,,
,60da905f8fa5374e57b4ad71,001,2022-04-29_03h18.46.608,classification_task,2021.2.3,Win32,144.7178003,60da905f8fa5374e57b4ad71,626b377229c10585ec392f89,626b3abb5faa9641b2715a2b,,,,,,,,,,,,,,,,,,,,,,,l,1,"[""0.027"",""0.233"",""0.498"",""0.770""]","[1,1,0,1]",0,41,41,41,1,1,1,,,1,FALSE,0.8995,,,,,,,,,,,,,,,,,,,,,,,,,,,,,,
,60da905f8fa5374e57b4ad71,001,2022-04-29_03h18.46.608,classification_task,2021.2.3,Win32,144.7178003,60da905f8fa5374e57b4ad71,626b377229c10585ec392f89,626b3abb5faa9641b2715a2b,,,,,,,,,,,,,,,,,,,,,,,a,1,"[""0.305"",""0.421"",""0.736"",""0.957""]","[1,1,0,1]",0,42,42,42,1,0,1,,,1,FALSE,0.9861,,,,,,,,,,,,,,,,,,,,,,,,,,,,,,
,60da905f8fa5374e57b4ad71,001,2022-04-29_03h18.46.608,classification_task,2021.2.3,Win32,144.7178003,60da905f8fa5374e57b4ad71,626b377229c10585ec392f89,626b3abb5faa9641b2715a2b,,,,,,,,,,,,,,,,,,,,,,,a,1,"[""0.162"",""0.376"",""0.736"",""0.872""]","[1,1,0,1]",0,43,43,43,1,0,0,,,1,FALSE,1.024,,,,,,,,,,,,,,,,,,,,,,,,,,,,,,
,60da905f8fa5374e57b4ad71,001,2022-04-29_03h18.46.608,classification_task,2021.2.3,Win32,144.7178003,60da905f8fa5374e57b4ad71,626b377229c10585ec392f89,626b3abb5faa9641b2715a2b,,,,,,,,,,,,,,,,,,,,,,,a,1,"[""0.162"",""0.376"",""0.646"",""0.071""]","[1,1,1,0]",0,44,44,44,1,0,0,,,1,FALSE,1.643,,,,,,,,,,,,,,,,,,,,,,,,,,,,,,
,60da905f8fa5374e57b4ad71,001,2022-04-29_03h18.46.608,classification_task,2021.2.3,Win32,144.7178003,60da905f8fa5374e57b4ad71,626b377229c10585ec392f89,626b3abb5faa9641b2715a2b,,,,,,,,,,,,,,,,,,,,,,,l,1,"[""0.123"",""0.198"",""0.498"",""0.823""]","[1,1,0,1]",0,45,45,45,1,1,0,,,1,FALSE,2.1614,,,,,,,,,,,,,,,,,,,,,,,,,,,,,,
,60da905f8fa5374e57b4ad71,001,2022-04-29_03h18.46.608,classification_task,2021.2.3,Win32,144.7178003,60da905f8fa5374e57b4ad71,626b377229c10585ec392f89,626b3abb5faa9641b2715a2b,,,,,,,,,,,,,,,,,,,,,,,a,1,"[""0.071"",""0.421"",""0.586"",""0.957""]","[0,1,1,1]",0,46,46,46,1,0,1,,,1,FALSE,0.7029,,,,,,,,,,,,,,,,,,,,,,,,,,,,,,
,60da905f8fa5374e57b4ad71,001,2022-04-29_03h18.46.608,classification_task,2021.2.3,Win32,144.7178003,60da905f8fa5374e57b4ad71,626b377229c10585ec392f89,626b3abb5faa9641b2715a2b,,,,,,,,,,,,,,,,,,,,,,,l,1,"[""0.027"",""0.712"",""0.464"",""0.770""]","[1,0,1,1]",0,47,47,47,1,1,1,,,1,FALSE,2.0076,,,,,,,,,,,,,,,,,,,,,,,,,,,,,,
,60da905f8fa5374e57b4ad71,001,2022-04-29_03h18.46.608,classification_task,2021.2.3,Win32,144.7178003,60da905f8fa5374e57b4ad71,626b377229c10585ec392f89,626b3abb5faa9641b2715a2b,,,,,,,,,,,,,,,,,,,,,,,a,0,"[""0.123"",""0.062"",""0.538"",""0.823""]","[1,0,1,1]",0,48,48,48,1,1,0,,,1,FALSE,1.2583,,,,,,,,,,,,,,,,,,,,,,,,,,,,,,
,60da905f8fa5374e57b4ad71,001,2022-04-29_03h18.46.608,classification_task,2021.2.3,Win32,144.7178003,60da905f8fa5374e57b4ad71,626b377229c10585ec392f89,626b3abb5faa9641b2715a2b,,,,,,,,,,,,,,,,,,,,,,,a,1,"[""0.726"",""0.421"",""0.586"",""0.957""]","[0,1,1,1]",0,49,49,49,1,0,1,,,1,FALSE,0.8717,,,,,,,,,,,,,,,,,,,,,,,,,,,,,,
,60da905f8fa5374e57b4ad71,001,2022-04-29_03h18.46.608,classification_task,2021.2.3,Win32,144.7178003,60da905f8fa5374e57b4ad71,626b377229c10585ec392f89,626b3abb5faa9641b2715a2b,,,,,,,,,,,,,,,,,,,,,,,l,1,"[""0.123"",""0.198"",""0.071"",""0.823""]","[1,1,0,1]",0,50,50,50,1,1,0,,,1,FALSE,0.9244,,,,,,,,,,,,,,,,,,,,,,,,,,,,,,
,60da905f8fa5374e57b4ad71,001,2022-04-29_03h18.46.608,classification_task,2021.2.3,Win32,144.7178003,60da905f8fa5374e57b4ad71,626b377229c10585ec392f89,626b3abb5faa9641b2715a2b,,,,,,,,,,,,,,,,,,,,,,,a,1,"[""0.162"",""0.376"",""0.088"",""0.872""]","[1,1,0,1]",0,51,51,51,1,0,0,,,1,FALSE,1.0983,,,,,,,,,,,,,,,,,,,,,,,,,,,,,,
,60da905f8fa5374e57b4ad71,001,2022-04-29_03h18.46.608,classification_task,2021.2.3,Win32,144.7178003,60da905f8fa5374e57b4ad71,626b377229c10585ec392f89,626b3abb5faa9641b2715a2b,,,,,,,,,,,,,,,,,,,,,,,l,1,"[""0.066"",""0.233"",""0.464"",""0.770""]","[0,1,1,1]",0,52,52,52,1,1,1,,,1,FALSE,3.7075,,,,,,,,,,,,,,,,,,,,,,,,,,,,,,
,60da905f8fa5374e57b4ad71,001,2022-04-29_03h18.46.608,classification_task,2021.2.3,Win32,144.7178003,60da905f8fa5374e57b4ad71,626b377229c10585ec392f89,626b3abb5faa9641b2715a2b,,,,,,,,,,,,,,,,,,,,,,,a,1,"[""0.305"",""0.421"",""0.586"",""0.719""]","[1,1,1,0]",0,53,53,53,1,0,1,,,1,FALSE,1.4341,,,,,,,,,,,,,,,,,,,,,,,,,,,,,,
,60da905f8fa5374e57b4ad71,001,2022-04-29_03h18.46.608,classification_task,2021.2.3,Win32,144.7178003,60da905f8fa5374e57b4ad71,626b377229c10585ec392f89,626b3abb5faa9641b2715a2b,,,,,,,,,,,,,,,,,,,,,,,a,1,"[""0.088"",""0.376"",""0.646"",""0.872""]","[0,1,1,1]",0,54,54,54,1,0,0,,,1,FALSE,0.8405,,,,,,,,,,,,,,,,,,,,,,,,,,,,,,
,60da905f8fa5374e57b4ad71,001,2022-04-29_03h18.46.608,classification_task,2021.2.3,Win32,144.7178003,60da905f8fa5374e57b4ad71,626b377229c10585ec392f89,626b3abb5faa9641b2715a2b,,,,,,,,,,,,,,,,,,,,,,,l,1,"[""0.027"",""0.233"",""0.736"",""0.770""]","[1,1,0,1]",0,55,55,55,1,1,1,,,1,FALSE,2.138,,,,,,,,,,,,,,,,,,,,,,,,,,,,,,
,60da905f8fa5374e57b4ad71,001,2022-04-29_03h18.46.608,classification_task,2021.2.3,Win32,144.7178003,60da905f8fa5374e57b4ad71,626b377229c10585ec392f89,626b3abb5faa9641b2715a2b,,,,,,,,,,,,,,,,,,,,,,,a,1,"[""0.305"",""0.719"",""0.586"",""0.957""]","[1,0,1,1]",0,56,56,56,1,0,1,,,1,FALSE,0.6688,,,,,,,,,,,,,,,,,,,,,,,,,,,,,,
,60da905f8fa5374e57b4ad71,001,2022-04-29_03h18.46.608,classification_task,2021.2.3,Win32,144.7178003,60da905f8fa5374e57b4ad71,626b377229c10585ec392f89,626b3abb5faa9641b2715a2b,,,,,,,,,,,,,,,,,,,,,,,l,1,"[""0.736"",""0.198"",""0.538"",""0.823""]","[0,1,1,1]",0,57,57,57,1,1,0,,,1,FALSE,1.3437,,,,,,,,,,,,,,,,,,,,,,,,,,,,,,
,60da905f8fa5374e57b4ad71,001,2022-04-29_03h18.46.608,classification_task,2021.2.3,Win32,144.7178003,60da905f8fa5374e57b4ad71,626b377229c10585ec392f89,626b3abb5faa9641b2715a2b,,,,,,,,,,,,,,,,,,,,,,,l,1,"[""0.123"",""0.198"",""0.538"",""0.089""]","[1,1,1,0]",0,58,58,58,1,1,0,,,1,FALSE,5.7016,,,,,,,,,,,,,,,,,,,,,,,,,,,,,,
,60da905f8fa5374e57b4ad71,001,2022-04-29_03h18.46.608,classification_task,2021.2.3,Win32,144.7178003,60da905f8fa5374e57b4ad71,626b377229c10585ec392f89,626b3abb5faa9641b2715a2b,,,,,,,,,,,,,,,,,,,,,,,l,1,"[""0.027"",""0.692"",""0.464"",""0.770""]","[1,0,1,1]",0,59,59,59,1,1,1,,,1,FALSE,1.4992,,,,,,,,,,,,,,,,,,,,,,,,,,,,,,
,60da905f8fa5374e57b4ad71,001,2022-04-29_03h18.46.608,classification_task,2021.2.3,Win32,144.7178003,60da905f8fa5374e57b4ad71,626b377229c10585ec392f89,626b3abb5faa9641b2715a2b,,,,,,,,,,,,,,,,,,,,,,,a,1,"[""0.305"",""0.421"",""0.062"",""0.957""]","[1,1,0,1]",0,60,60,60,1,0,1,,,1,FALSE,0.7043,,,,,,,,,,,,,,,,,,,,,,,,,,,,,,
,60da905f8fa5374e57b4ad71,001,2022-04-29_03h18.46.608,classification_task,2021.2.3,Win32,144.7178003,60da905f8fa5374e57b4ad71,626b377229c10585ec392f89,626b3abb5faa9641b2715a2b,,,,,,,,,,,,,,,,,,,,,,,l,1,"[""0.027"",""0.233"",""0.464"",""0.066""]","[1,1,1,0]",0,61,61,61,1,1,1,,,1,FALSE,1.0964,,,,,,,,,,,,,,,,,,,,,,,,,,,,,,
,60da905f8fa5374e57b4ad71,001,2022-04-29_03h18.46.608,classification_task,2021.2.3,Win32,144.7178003,60da905f8fa5374e57b4ad71,626b377229c10585ec392f89,626b3abb5faa9641b2715a2b,,,,,,,,,,,,,,,,,,,,,,,a,1,"[""0.162"",""0.376"",""0.646"",""0.089""]","[1,1,1,0]",0,62,62,62,1,0,0,,,1,FALSE,4.3952,,,,,,,,,,,,,,,,,,,,,,,,,,,,,,
,60da905f8fa5374e57b4ad71,001,2022-04-29_03h18.46.608,classification_task,2021.2.3,Win32,144.7178003,60da905f8fa5374e57b4ad71,626b377229c10585ec392f89,626b3abb5faa9641b2715a2b,,,,,,,,,,,,,,,,,,,,,,,a,1,"[""0.162"",""0.063"",""0.646"",""0.872""]","[1,0,1,1]",0,63,63,63,1,0,0,,,1,FALSE,1.9407,,,,,,,,,,,,,,,,,,,,,,,,,,,,,,
,60da905f8fa5374e57b4ad71,001,2022-04-29_03h18.46.608,classification_task,2021.2.3,Win32,144.7178003,60da905f8fa5374e57b4ad71,626b377229c10585ec392f89,626b3abb5faa9641b2715a2b,,,,,,,,,,,,,,,,,,,,,,,,,,,,,,,,,,,,,,,0, ,,0,6.347246718,244.0573,0,1,1,1,1,2,2,,,,,,,,,,,,,,,,,
,60da905f8fa5374e57b4ad71,001,2022-04-29_03h18.46.608,classification_task,2021.2.3,Win32,144.7178003,60da905f8fa5374e57b4ad71,626b377229c10585ec392f89,626b3abb5faa9641b2715a2b,,,,,,,,,,,,,,,,,,,,,,,,,,,,,,,,,,,,,,,1,  ,,0,10,246.3934,0,1,1,1,1,2,2,,,,,,,,,,,,,,,,,
,60da905f8fa5374e57b4ad71,001,2022-04-29_03h18.46.608,classification_task,2021.2.3,Win32,144.7178003,60da905f8fa5374e57b4ad71,626b377229c10585ec392f89,626b3abb5faa9641b2715a2b,,,,,,,,,,,,,,,,,,,,,,,,,,,,,,,,,,,,,,,2,  ,,0,6.102292769,247.5571,0,1,1,1,1,2,2,,,,,,,,,,,,,,,,,
,60da905f8fa5374e57b4ad71,001,2022-04-29_03h18.46.608,classification_task,2021.2.3,Win32,144.7178003,60da905f8fa5374e57b4ad71,626b377229c10585ec392f89,626b3abb5faa9641b2715a2b,,,,,,,,,,,,,,,,,,,,,,,,,,,,,,,,,,,,,,,,,,,,,0,1,1,1,1,,2,,,,,,,,,,,,,,,,,
,60da905f8fa5374e57b4ad71,001,2022-04-29_03h18.46.608,classification_task,2021.2.3,Win32,144.7178003,60da905f8fa5374e57b4ad71,626b377229c10585ec392f89,626b3abb5faa9641b2715a2b,,,,,,,,,,,,,,,,,,,,,space,1.9917,a,1,"[""0.305"",""0.421"",""0.586"",""0.736""]","[1,1,1,0]",0,0,0,0,1,0,1,,,1,FALSE,2.4657,,,,,,,,,,,,,,,,,,,,,,,,,,,,,,
,60da905f8fa5374e57b4ad71,001,2022-04-29_03h18.46.608,classification_task,2021.2.3,Win32,144.7178003,60da905f8fa5374e57b4ad71,626b377229c10585ec392f89,626b3abb5faa9641b2715a2b,,,,,,,,,,,,,,,,,,,,,,,l,1,"[""0.123"",""0.198"",""0.062"",""0.823""]","[1,1,0,1]",0,1,1,1,1,1,0,,,1,FALSE,4.5483,,,,,,,,,,,,,,,,,,,,,,,,,,,,,,
,60da905f8fa5374e57b4ad71,001,2022-04-29_03h18.46.608,classification_task,2021.2.3,Win32,144.7178003,60da905f8fa5374e57b4ad71,626b377229c10585ec392f89,626b3abb5faa9641b2715a2b,,,,,,,,,,,,,,,,,,,,,,,a,1,"[""0.305"",""0.421"",""0.712"",""0.957""]","[1,1,0,1]",0,2,2,2,1,0,1,,,1,FALSE,0.857,,,,,,,,,,,,,,,,,,,,,,,,,,,,,,
,60da905f8fa5374e57b4ad71,001,2022-04-29_03h18.46.608,classification_task,2021.2.3,Win32,144.7178003,60da905f8fa5374e57b4ad71,626b377229c10585ec392f89,626b3abb5faa9641b2715a2b,,,,,,,,,,,,,,,,,,,,,,,a,1,"[""0.162"",""0.376"",""0.646"",""0.712""]","[1,1,1,0]",0,3,3,3,1,0,0,,,1,FALSE,2.2144,,,,,,,,,,,,,,,,,,,,,,,,,,,,,,
,60da905f8fa5374e57b4ad71,001,2022-04-29_03h18.46.608,classification_task,2021.2.3,Win32,144.7178003,60da905f8fa5374e57b4ad71,626b377229c10585ec392f89,626b3abb5faa9641b2715a2b,,,,,,,,,,,,,,,,,,,,,,,a,1,"[""0.066"",""0.421"",""0.586"",""0.957""]","[0,1,1,1]",0,4,4,4,1,0,1,,,1,FALSE,1.0695,,,,,,,,,,,,,,,,,,,,,,,,,,,,,,
,60da905f8fa5374e57b4ad71,001,2022-04-29_03h18.46.608,classification_task,2021.2.3,Win32,144.7178003,60da905f8fa5374e57b4ad71,626b377229c10585ec392f89,626b3abb5faa9641b2715a2b,,,,,,,,,,,,,,,,,,,,,,,l,1,"[""0.123"",""0.198"",""0.538"",""0.719""]","[1,1,1,0]",0,5,5,5,1,1,0,,,1,FALSE,3.6985,,,,,,,,,,,,,,,,,,,,,,,,,,,,,,
,60da905f8fa5374e57b4ad71,001,2022-04-29_03h18.46.608,classification_task,2021.2.3,Win32,144.7178003,60da905f8fa5374e57b4ad71,626b377229c10585ec392f89,626b3abb5faa9641b2715a2b,,,,,,,,,,,,,,,,,,,,,,,l,1,"[""0.027"",""0.233"",""0.692"",""0.770""]","[1,1,0,1]",0,6,6,6,1,1,1,,,1,FALSE,0.9163,,,,,,,,,,,,,,,,,,,,,,,,,,,,,,
,60da905f8fa5374e57b4ad71,001,2022-04-29_03h18.46.608,classification_task,2021.2.3,Win32,144.7178003,60da905f8fa5374e57b4ad71,626b377229c10585ec392f89,626b3abb5faa9641b2715a2b,,,,,,,,,,,,,,,,,,,,,,,l,1,"[""0.726"",""0.233"",""0.464"",""0.770""]","[0,1,1,1]",0,7,7,7,1,1,1,,,1,FALSE,4.5,,,,,,,,,,,,,,,,,,,,,,,,,,,,,,
,60da905f8fa5374e57b4ad71,001,2022-04-29_03h18.46.608,classification_task,2021.2.3,Win32,144.7178003,60da905f8fa5374e57b4ad71,626b377229c10585ec392f89,626b3abb5faa9641b2715a2b,,,,,,,,,,,,,,,,,,,,,,,l,1,"[""0.088"",""0.198"",""0.538"",""0.823""]","[0,1,1,1]",0,8,8,8,1,1,0,,,1,FALSE,1.5584,,,,,,,,,,,,,,,,,,,,,,,,,,,,,,
,60da905f8fa5374e57b4ad71,001,2022-04-29_03h18.46.608,classification_task,2021.2.3,Win32,144.7178003,60da905f8fa5374e57b4ad71,626b377229c10585ec392f89,626b3abb5faa9641b2715a2b,,,,,,,,,,,,,,,,,,,,,,,a,1,"[""0.162"",""0.736"",""0.646"",""0.872""]","[1,0,1,1]",0,9,9,9,1,0,0,,,1,FALSE,0.9651,,,,,,,,,,,,,,,,,,,,,,,,,,,,,,
,60da905f8fa5374e57b4ad71,001,2022-04-29_03h18.46.608,classification_task,2021.2.3,Win32,144.7178003,60da905f8fa5374e57b4ad71,626b377229c10585ec392f89,626b3abb5faa9641b2715a2b,,,,,,,,,,,,,,,,,,,,,,,l,1,"[""0.123"",""0.719"",""0.538"",""0.823""]","[1,0,1,1]",0,10,10,10,1,1,0,,,1,FALSE,0.7322,,,,,,,,,,,,,,,,,,,,,,,,,,,,,,
,60da905f8fa5374e57b4ad71,001,2022-04-29_03h18.46.608,classification_task,2021.2.3,Win32,144.7178003,60da905f8fa5374e57b4ad71,626b377229c10585ec392f89,626b3abb5faa9641b2715a2b,,,,,,,,,,,,,,,,,,,,,,,a,1,"[""0.736"",""0.376"",""0.646"",""0.872""]","[0,1,1,1]",0,11,11,11,1,0,0,,,1,FALSE,0.486,,,,,,,,,,,,,,,,,,,,,,,,,,,,,,
,60da905f8fa5374e57b4ad71,001,2022-04-29_03h18.46.608,classification_task,2021.2.3,Win32,144.7178003,60da905f8fa5374e57b4ad71,626b377229c10585ec392f89,626b3abb5faa9641b2715a2b,,,,,,,,,,,,,,,,,,,,,,,l,1,"[""0.027"",""0.692"",""0.464"",""0.770""]","[1,0,1,1]",0,12,12,12,1,1,1,,,1,FALSE,2.099,,,,,,,,,,,,,,,,,,,,,,,,,,,,,,
,60da905f8fa5374e57b4ad71,001,2022-04-29_03h18.46.608,classification_task,2021.2.3,Win32,144.7178003,60da905f8fa5374e57b4ad71,626b377229c10585ec392f89,626b3abb5faa9641b2715a2b,,,,,,,,,,,,,,,,,,,,,,,a,1,"[""0.162"",""0.376"",""0.736"",""0.872""]","[1,1,0,1]",0,13,13,13,1,0,0,,,1,FALSE,0.7712,,,,,,,,,,,,,,,,,,,,,,,,,,,,,,
,60da905f8fa5374e57b4ad71,001,2022-04-29_03h18.46.608,classification_task,2021.2.3,Win32,144.7178003,60da905f8fa5374e57b4ad71,626b377229c10585ec392f89,626b3abb5faa9641b2715a2b,,,,,,,,,,,,,,,,,,,,,,,a,1,"[""0.305"",""0.712"",""0.586"",""0.957""]","[1,0,1,1]",0,14,14,14,1,0,1,,,1,FALSE,0.8989,,,,,,,,,,,,,,,,,,,,,,,,,,,,,,
,60da905f8fa5374e57b4ad71,001,2022-04-29_03h18.46.608,classification_task,2021.2.3,Win32,144.7178003,60da905f8fa5374e57b4ad71,626b377229c10585ec392f89,626b3abb5faa9641b2715a2b,,,,,,,,,,,,,,,,,,,,,,,l,1,"[""0.027"",""0.233"",""0.464"",""0.719""]","[1,1,1,0]",0,15,15,15,1,1,1,,,1,FALSE,1.2568,,,,,,,,,,,,,,,,,,,,,,,,,,,,,,
,60da905f8fa5374e57b4ad71,001,2022-04-29_03h18.46.608,classification_task,2021.2.3,Win32,144.7178003,60da905f8fa5374e57b4ad71,626b377229c10585ec392f89,626b3abb5faa9641b2715a2b,,,,,,,,,,,,,,,,,,,,,,,l,1,"[""0.123"",""0.198"",""0.712"",""0.823""]","[1,1,0,1]",0,16,16,16,1,1,0,,,1,FALSE,0.9721,,,,,,,,,,,,,,,,,,,,,,,,,,,,,,
,60da905f8fa5374e57b4ad71,001,2022-04-29_03h18.46.608,classification_task,2021.2.3,Win32,144.7178003,60da905f8fa5374e57b4ad71,626b377229c10585ec392f89,626b3abb5faa9641b2715a2b,,,,,,,,,,,,,,,,,,,,,,,l,1,"[""0.088"",""0.198"",""0.538"",""0.823""]","[0,1,1,1]",0,17,17,17,1,1,0,,,1,FALSE,0.7669,,,,,,,,,,,,,,,,,,,,,,,,,,,,,,
,60da905f8fa5374e57b4ad71,001,2022-04-29_03h18.46.608,classification_task,2021.2.3,Win32,144.7178003,60da905f8fa5374e57b4ad71,626b377229c10585ec392f89,626b3abb5faa9641b2715a2b,,,,,,,,,,,,,,,,,,,,,,,a,1,"[""0.162"",""0.376"",""0.088"",""0.872""]","[1,1,0,1]",0,18,18,18,1,0,0,,,1,FALSE,0.604,,,,,,,,,,,,,,,,,,,,,,,,,,,,,,
,60da905f8fa5374e57b4ad71,001,2022-04-29_03h18.46.608,classification_task,2021.2.3,Win32,144.7178003,60da905f8fa5374e57b4ad71,626b377229c10585ec392f89,626b3abb5faa9641b2715a2b,,,,,,,,,,,,,,,,,,,,,,,l,1,"[""0.027"",""0.233"",""0.464"",""0.071""]","[1,1,1,0]",0,19,19,19,1,1,1,,,1,FALSE,3.2614,,,,,,,,,,,,,,,,,,,,,,,,,,,,,,
,60da905f8fa5374e57b4ad71,001,2022-04-29_03h18.46.608,classification_task,2021.2.3,Win32,144.7178003,60da905f8fa5374e57b4ad71,626b377229c10585ec392f89,626b3abb5faa9641b2715a2b,,,,,,,,,,,,,,,,,,,,,,,l,1,"[""0.027"",""0.233"",""0.719"",""0.770""]","[1,1,0,1]",0,20,20,20,1,1,1,,,1,FALSE,1.0588,,,,,,,,,,,,,,,,,,,,,,,,,,,,,,
,60da905f8fa5374e57b4ad71,001,2022-04-29_03h18.46.608,classification_task,2021.2.3,Win32,144.7178003,60da905f8fa5374e57b4ad71,626b377229c10585ec392f89,626b3abb5faa9641b2715a2b,,,,,,,,,,,,,,,,,,,,,,,l,1,"[""0.027"",""0.062"",""0.464"",""0.770""]","[1,0,1,1]",0,21,21,21,1,1,1,,,1,FALSE,1.086,,,,,,,,,,,,,,,,,,,,,,,,,,,,,,
,60da905f8fa5374e57b4ad71,001,2022-04-29_03h18.46.608,classification_task,2021.2.3,Win32,144.7178003,60da905f8fa5374e57b4ad71,626b377229c10585ec392f89,626b3abb5faa9641b2715a2b,,,,,,,,,,,,,,,,,,,,,,,a,1,"[""0.736"",""0.421"",""0.586"",""0.957""]","[0,1,1,1]",0,22,22,22,1,0,1,,,1,FALSE,0.7792,,,,,,,,,,,,,,,,,,,,,,,,,,,,,,
,60da905f8fa5374e57b4ad71,001,2022-04-29_03h18.46.608,classification_task,2021.2.3,Win32,144.7178003,60da905f8fa5374e57b4ad71,626b377229c10585ec392f89,626b3abb5faa9641b2715a2b,,,,,,,,,,,,,,,,,,,,,,,a,1,"[""0.305"",""0.062"",""0.586"",""0.957""]","[1,0,1,1]",0,23,23,23,1,0,1,,,1,FALSE,0.8747,,,,,,,,,,,,,,,,,,,,,,,,,,,,,,
,60da905f8fa5374e57b4ad71,001,2022-04-29_03h18.46.608,classification_task,2021.2.3,Win32,144.7178003,60da905f8fa5374e57b4ad71,626b377229c10585ec392f89,626b3abb5faa9641b2715a2b,,,,,,,,,,,,,,,,,,,,,,,l,1,"[""0.123"",""0.089"",""0.538"",""0.823""]","[1,0,1,1]",0,24,24,24,1,1,0,,,1,FALSE,1.2597,,,,,,,,,,,,,,,,,,,,,,,,,,,,,,
,60da905f8fa5374e57b4ad71,001,2022-04-29_03h18.46.608,classification_task,2021.2.3,Win32,144.7178003,60da905f8fa5374e57b4ad71,626b377229c10585ec392f89,626b3abb5faa9641b2715a2b,,,,,,,,,,,,,,,,,,,,,,,a,1,"[""0.162"",""0.376"",""0.646"",""0.726""]","[1,1,1,0]",0,25,25,25,1,0,0,,,1,FALSE,4.3262,,,,,,,,,,,,,,,,,,,,,,,,,,,,,,
,60da905f8fa5374e57b4ad71,001,2022-04-29_03h18.46.608,classification_task,2021.2.3,Win32,144.7178003,60da905f8fa5374e57b4ad71,626b377229c10585ec392f89,626b3abb5faa9641b2715a2b,,,,,,,,,,,,,,,,,,,,,,,a,1,"[""0.305"",""0.421"",""0.088"",""0.957""]","[1,1,0,1]",0,26,26,26,1,0,1,,,1,FALSE,0.7376,,,,,,,,,,,,,,,,,,,,,,,,,,,,,,
,60da905f8fa5374e57b4ad71,001,2022-04-29_03h18.46.608,classification_task,2021.2.3,Win32,144.7178003,60da905f8fa5374e57b4ad71,626b377229c10585ec392f89,626b3abb5faa9641b2715a2b,,,,,,,,,,,,,,,,,,,,,,,a,1,"[""0.305"",""0.421"",""0.586"",""0.062""]","[1,1,1,0]",0,27,27,27,1,0,1,,,1,FALSE,2.0228,,,,,,,,,,,,,,,,,,,,,,,,,,,,,,
,60da905f8fa5374e57b4ad71,001,2022-04-29_03h18.46.608,classification_task,2021.2.3,Win32,144.7178003,60da905f8fa5374e57b4ad71,626b377229c10585ec392f89,626b3abb5faa9641b2715a2b,,,,,,,,,,,,,,,,,,,,,,,l,0,"[""0.162"",""0.915"",""0.646"",""0.872""]","[1,0,1,1]",0,28,28,28,1,0,0,,,1,FALSE,1.9813,,,,,,,,,,,,,,,,,,,,,,,,,,,,,,
,60da905f8fa5374e57b4ad71,001,2022-04-29_03h18.46.608,classification_task,2021.2.3,Win32,144.7178003,60da905f8fa5374e57b4ad71,626b377229c10585ec392f89,626b3abb5faa9641b2715a2b,,,,,,,,,,,,,,,,,,,,,,,a,0,"[""0.123"",""0.198"",""0.538"",""0.712""]","[1,1,1,0]",0,29,29,29,1,1,0,,,1,FALSE,2.7715,,,,,,,,,,,,,,,,,,,,,,,,,,,,,,
,60da905f8fa5374e57b4ad71,001,2022-04-29_03h18.46.608,classification_task,2021.2.3,Win32,144.7178003,60da905f8fa5374e57b4ad71,626b377229c10585ec392f89,626b3abb5faa9641b2715a2b,,,,,,,,,,,,,,,,,,,,,,,l,0,"[""0.088"",""0.376"",""0.646"",""0.872""]","[0,1,1,1]",0,30,30,30,1,0,0,,,1,FALSE,3.2285,,,,,,,,,,,,,,,,,,,,,,,,,,,,,,
,60da905f8fa5374e57b4ad71,001,2022-04-29_03h18.46.608,classification_task,2021.2.3,Win32,144.7178003,60da905f8fa5374e57b4ad71,626b377229c10585ec392f89,626b3abb5faa9641b2715a2b,,,,,,,,,,,,,,,,,,,,,,,a,0,"[""0.088"",""0.233"",""0.464"",""0.770""]","[0,1,1,1]",0,31,31,31,1,1,1,,,1,FALSE,1.7983,,,,,,,,,,,,,,,,,,,,,,,,,,,,,,
,60da905f8fa5374e57b4ad71,001,2022-04-29_03h18.46.608,classification_task,2021.2.3,Win32,144.7178003,60da905f8fa5374e57b4ad71,626b377229c10585ec392f89,626b3abb5faa9641b2715a2b,,,,,,,,,,,,,,,,,,,,,,,l,1,"[""0.066"",""0.198"",""0.538"",""0.823""]","[0,1,1,1]",0,32,32,32,1,1,0,,,1,FALSE,3.2285,,,,,,,,,,,,,,,,,,,,,,,,,,,,,,
,60da905f8fa5374e57b4ad71,001,2022-04-29_03h18.46.608,classification_task,2021.2.3,Win32,144.7178003,60da905f8fa5374e57b4ad71,626b377229c10585ec392f89,626b3abb5faa9641b2715a2b,,,,,,,,,,,,,,,,,,,,,,,a,1,"[""0.305"",""0.421"",""0.586"",""0.736""]","[1,1,1,0]",0,33,33,33,1,0,1,,,1,FALSE,1.4406,,,,,,,,,,,,,,,,,,,,,,,,,,,,,,
,60da905f8fa5374e57b4ad71,001,2022-04-29_03h18.46.608,classification_task,2021.2.3,Win32,144.7178003,60da905f8fa5374e57b4ad71,626b377229c10585ec392f89,626b3abb5faa9641b2715a2b,,,,,,,,,,,,,,,,,,,,,,,l,1,"[""0.123"",""0.063"",""0.538"",""0.823""]","[1,0,1,1]",0,34,34,34,1,1,0,,,1,FALSE,1.0639,,,,,,,,,,,,,,,,,,,,,,,,,,,,,,
,60da905f8fa5374e57b4ad71,001,2022-04-29_03h18.46.608,classification_task,2021.2.3,Win32,144.7178003,60da905f8fa5374e57b4ad71,626b377229c10585ec392f89,626b3abb5faa9641b2715a2b,,,,,,,,,,,,,,,,,,,,,,,l,1,"[""0.027"",""0.233"",""0.464"",""0.066""]","[1,1,1,0]",0,35,35,35,1,1,1,,,1,FALSE,2.1278,,,,,,,,,,,,,,,,,,,,,,,,,,,,,,
,60da905f8fa5374e57b4ad71,001,2022-04-29_03h18.46.608,classification_task,2021.2.3,Win32,144.7178003,60da905f8fa5374e57b4ad71,626b377229c10585ec392f89,626b3abb5faa9641b2715a2b,,,,,,,,,,,,,,,,,,,,,,,a,1,"[""0.305"",""0.421"",""0.089"",""0.957""]","[1,1,0,1]",0,36,36,36,1,0,1,,,1,FALSE,1.0287,,,,,,,,,,,,,,,,,,,,,,,,,,,,,,
,60da905f8fa5374e57b4ad71,001,2022-04-29_03h18.46.608,classification_task,2021.2.3,Win32,144.7178003,60da905f8fa5374e57b4ad71,626b377229c10585ec392f89,626b3abb5faa9641b2715a2b,,,,,,,,,,,,,,,,,,,,,,,a,1,"[""0.088"",""0.421"",""0.586"",""0.957""]","[0,1,1,1]",0,37,37,37,1,0,1,,,1,FALSE,0.6913,,,,,,,,,,,,,,,,,,,,,,,,,,,,,,
,60da905f8fa5374e57b4ad71,001,2022-04-29_03h18.46.608,classification_task,2021.2.3,Win32,144.7178003,60da905f8fa5374e57b4ad71,626b377229c10585ec392f89,626b3abb5faa9641b2715a2b,,,,,,,,,,,,,,,,,,,,,,,a,1,"[""0.305"",""0.736"",""0.586"",""0.957""]","[1,0,1,1]",0,38,38,38,1,0,1,,,1,FALSE,0.6459,,,,,,,,,,,,,,,,,,,,,,,,,,,,,,
,60da905f8fa5374e57b4ad71,001,2022-04-29_03h18.46.608,classification_task,2021.2.3,Win32,144.7178003,60da905f8fa5374e57b4ad71,626b377229c10585ec392f89,626b3abb5faa9641b2715a2b,,,,,,,,,,,,,,,,,,,,,,,a,0,"[""0.123"",""0.198"",""0.538"",""0.066""]","[1,1,1,0]",0,39,39,39,1,1,0,,,1,FALSE,2.792,,,,,,,,,,,,,,,,,,,,,,,,,,,,,,
,60da905f8fa5374e57b4ad71,001,2022-04-29_03h18.46.608,classification_task,2021.2.3,Win32,144.7178003,60da905f8fa5374e57b4ad71,626b377229c10585ec392f89,626b3abb5faa9641b2715a2b,,,,,,,,,,,,,,,,,,,,,,,l,1,"[""0.498"",""0.233"",""0.464"",""0.770""]","[0,1,1,1]",0,40,40,40,1,1,1,,,1,FALSE,3.043,,,,,,,,,,,,,,,,,,,,,,,,,,,,,,
,60da905f8fa5374e57b4ad71,001,2022-04-29_03h18.46.608,classification_task,2021.2.3,Win32,144.7178003,60da905f8fa5374e57b4ad71,626b377229c10585ec392f89,626b3abb5faa9641b2715a2b,,,,,,,,,,,,,,,,,,,,,,,l,1,"[""0.123"",""0.198"",""0.719"",""0.823""]","[1,1,0,1]",0,41,41,41,1,1,0,,,1,FALSE,1.0079,,,,,,,,,,,,,,,,,,,,,,,,,,,,,,
,60da905f8fa5374e57b4ad71,001,2022-04-29_03h18.46.608,classification_task,2021.2.3,Win32,144.7178003,60da905f8fa5374e57b4ad71,626b377229c10585ec392f89,626b3abb5faa9641b2715a2b,,,,,,,,,,,,,,,,,,,,,,,a,1,"[""0.162"",""0.088"",""0.646"",""0.872""]","[1,0,1,1]",0,42,42,42,1,0,0,,,1,FALSE,0.764,,,,,,,,,,,,,,,,,,,,,,,,,,,,,,
,60da905f8fa5374e57b4ad71,001,2022-04-29_03h18.46.608,classification_task,2021.2.3,Win32,144.7178003,60da905f8fa5374e57b4ad71,626b377229c10585ec392f89,626b3abb5faa9641b2715a2b,,,,,,,,,,,,,,,,,,,,,,,l,1,"[""0.027"",""0.233"",""0.088"",""0.770""]","[1,1,0,1]",0,43,43,43,1,1,1,,,1,FALSE,1.5689,,,,,,,,,,,,,,,,,,,,,,,,,,,,,,
,60da905f8fa5374e57b4ad71,001,2022-04-29_03h18.46.608,classification_task,2021.2.3,Win32,144.7178003,60da905f8fa5374e57b4ad71,626b377229c10585ec392f89,626b3abb5faa9641b2715a2b,,,,,,,,,,,,,,,,,,,,,,,a,1,"[""0.162"",""0.376"",""0.089"",""0.872""]","[1,1,0,1]",0,44,44,44,1,0,0,,,1,FALSE,0.7567,,,,,,,,,,,,,,,,,,,,,,,,,,,,,,
,60da905f8fa5374e57b4ad71,001,2022-04-29_03h18.46.608,classification_task,2021.2.3,Win32,144.7178003,60da905f8fa5374e57b4ad71,626b377229c10585ec392f89,626b3abb5faa9641b2715a2b,,,,,,,,,,,,,,,,,,,,,,,l,0,"[""0.162"",""0.376"",""0.646"",""0.712""]","[1,1,1,0]",0,45,45,45,1,0,0,,,1,FALSE,2.3211,,,,,,,,,,,,,,,,,,,,,,,,,,,,,,
,60da905f8fa5374e57b4ad71,001,2022-04-29_03h18.46.608,classification_task,2021.2.3,Win32,144.7178003,60da905f8fa5374e57b4ad71,626b377229c10585ec392f89,626b3abb5faa9641b2715a2b,,,,,,,,,,,,,,,,,,,,,,,a,1,"[""0.726"",""0.376"",""0.646"",""0.872""]","[0,1,1,1]",0,46,46,46,1,0,0,,,1,FALSE,2.9096,,,,,,,,,,,,,,,,,,,,,,,,,,,,,,
,60da905f8fa5374e57b4ad71,001,2022-04-29_03h18.46.608,classification_task,2021.2.3,Win32,144.7178003,60da905f8fa5374e57b4ad71,626b377229c10585ec392f89,626b3abb5faa9641b2715a2b,,,,,,,,,,,,,,,,,,,,,,,l,1,"[""0.027"",""0.066"",""0.464"",""0.770""]","[1,0,1,1]",0,47,47,47,1,1,1,,,1,FALSE,1.2701,,,,,,,,,,,,,,,,,,,,,,,,,,,,,,
,60da905f8fa5374e57b4ad71,001,2022-04-29_03h18.46.608,classification_task,2021.2.3,Win32,144.7178003,60da905f8fa5374e57b4ad71,626b377229c10585ec392f89,626b3abb5faa9641b2715a2b,,,,,,,,,,,,,,,,,,,,,,,a,1,"[""0.736"",""0.376"",""0.646"",""0.872""]","[0,1,1,1]",0,48,48,48,1,0,0,,,1,FALSE,0.8443,,,,,,,,,,,,,,,,,,,,,,,,,,,,,,
,60da905f8fa5374e57b4ad71,001,2022-04-29_03h18.46.608,classification_task,2021.2.3,Win32,144.7178003,60da905f8fa5374e57b4ad71,626b377229c10585ec392f89,626b3abb5faa9641b2715a2b,,,,,,,,,,,,,,,,,,,,,,,l,1,"[""0.027"",""0.233"",""0.089"",""0.770""]","[1,1,0,1]",0,49,49,49,1,1,1,,,1,FALSE,1.7217,,,,,,,,,,,,,,,,,,,,,,,,,,,,,,
,60da905f8fa5374e57b4ad71,001,2022-04-29_03h18.46.608,classification_task,2021.2.3,Win32,144.7178003,60da905f8fa5374e57b4ad71,626b377229c10585ec392f89,626b3abb5faa9641b2715a2b,,,,,,,,,,,,,,,,,,,,,,,l,1,"[""0.027"",""0.736"",""0.464"",""0.770""]","[1,0,1,1]",0,50,50,50,1,1,1,,,1,FALSE,1.0971,,,,,,,,,,,,,,,,,,,,,,,,,,,,,,
,60da905f8fa5374e57b4ad71,001,2022-04-29_03h18.46.608,classification_task,2021.2.3,Win32,144.7178003,60da905f8fa5374e57b4ad71,626b377229c10585ec392f89,626b3abb5faa9641b2715a2b,,,,,,,,,,,,,,,,,,,,,,,a,1,"[""0.305"",""0.062"",""0.586"",""0.957""]","[1,0,1,1]",0,51,51,51,1,0,1,,,1,FALSE,0.813,,,,,,,,,,,,,,,,,,,,,,,,,,,,,,
,60da905f8fa5374e57b4ad71,001,2022-04-29_03h18.46.608,classification_task,2021.2.3,Win32,144.7178003,60da905f8fa5374e57b4ad71,626b377229c10585ec392f89,626b3abb5faa9641b2715a2b,,,,,,,,,,,,,,,,,,,,,,,a,1,"[""0.305"",""0.421"",""0.586"",""0.066""]","[1,1,1,0]",0,52,52,52,1,0,1,,,1,FALSE,1.9133,,,,,,,,,,,,,,,,,,,,,,,,,,,,,,
,60da905f8fa5374e57b4ad71,001,2022-04-29_03h18.46.608,classification_task,2021.2.3,Win32,144.7178003,60da905f8fa5374e57b4ad71,626b377229c10585ec392f89,626b3abb5faa9641b2715a2b,,,,,,,,,,,,,,,,,,,,,,,l,1,"[""0.123"",""0.198"",""0.692"",""0.823""]","[1,1,0,1]",0,53,53,53,1,1,0,,,1,FALSE,1.2171,,,,,,,,,,,,,,,,,,,,,,,,,,,,,,
,60da905f8fa5374e57b4ad71,001,2022-04-29_03h18.46.608,classification_task,2021.2.3,Win32,144.7178003,60da905f8fa5374e57b4ad71,626b377229c10585ec392f89,626b3abb5faa9641b2715a2b,,,,,,,,,,,,,,,,,,,,,,,a,1,"[""0.162"",""0.376"",""0.646"",""0.066""]","[1,1,1,0]",0,54,54,54,1,0,0,,,1,FALSE,1.6072,,,,,,,,,,,,,,,,,,,,,,,,,,,,,,
,60da905f8fa5374e57b4ad71,001,2022-04-29_03h18.46.608,classification_task,2021.2.3,Win32,144.7178003,60da905f8fa5374e57b4ad71,626b377229c10585ec392f89,626b3abb5faa9641b2715a2b,,,,,,,,,,,,,,,,,,,,,,,a,0,"[""0.088"",""0.233"",""0.464"",""0.770""]","[0,1,1,1]",0,55,55,55,1,1,1,,,1,FALSE,1.9091,,,,,,,,,,,,,,,,,,,,,,,,,,,,,,
,60da905f8fa5374e57b4ad71,001,2022-04-29_03h18.46.608,classification_task,2021.2.3,Win32,144.7178003,60da905f8fa5374e57b4ad71,626b377229c10585ec392f89,626b3abb5faa9641b2715a2b,,,,,,,,,,,,,,,,,,,,,,,l,1,"[""0.123"",""0.089"",""0.538"",""0.823""]","[1,0,1,1]",0,56,56,56,1,1,0,,,1,FALSE,1.7701,,,,,,,,,,,,,,,,,,,,,,,,,,,,,,
,60da905f8fa5374e57b4ad71,001,2022-04-29_03h18.46.608,classification_task,2021.2.3,Win32,144.7178003,60da905f8fa5374e57b4ad71,626b377229c10585ec392f89,626b3abb5faa9641b2715a2b,,,,,,,,,,,,,,,,,,,,,,,l,1,"[""0.089"",""0.198"",""0.538"",""0.823""]","[0,1,1,1]",0,57,57,57,1,1,0,,,1,FALSE,0.7512,,,,,,,,,,,,,,,,,,,,,,,,,,,,,,
,60da905f8fa5374e57b4ad71,001,2022-04-29_03h18.46.608,classification_task,2021.2.3,Win32,144.7178003,60da905f8fa5374e57b4ad71,626b377229c10585ec392f89,626b3abb5faa9641b2715a2b,,,,,,,,,,,,,,,,,,,,,,,l,1,"[""0.027"",""0.233"",""0.464"",""0.088""]","[1,1,1,0]",0,58,58,58,1,1,1,,,1,FALSE,1.4513,,,,,,,,,,,,,,,,,,,,,,,,,,,,,,
,60da905f8fa5374e57b4ad71,001,2022-04-29_03h18.46.608,classification_task,2021.2.3,Win32,144.7178003,60da905f8fa5374e57b4ad71,626b377229c10585ec392f89,626b3abb5faa9641b2715a2b,,,,,,,,,,,,,,,,,,,,,,,a,1,"[""0.305"",""0.421"",""0.066"",""0.957""]","[1,1,0,1]",0,59,59,59,1,0,1,,,1,FALSE,0.7775,,,,,,,,,,,,,,,,,,,,,,,,,,,,,,
,60da905f8fa5374e57b4ad71,001,2022-04-29_03h18.46.608,classification_task,2021.2.3,Win32,144.7178003,60da905f8fa5374e57b4ad71,626b377229c10585ec392f89,626b3abb5faa9641b2715a2b,,,,,,,,,,,,,,,,,,,,,,,a,1,"[""0.162"",""0.376"",""0.736"",""0.872""]","[1,1,0,1]",0,60,60,60,1,0,0,,,1,FALSE,1.2576,,,,,,,,,,,,,,,,,,,,,,,,,,,,,,
,60da905f8fa5374e57b4ad71,001,2022-04-29_03h18.46.608,classification_task,2021.2.3,Win32,144.7178003,60da905f8fa5374e57b4ad71,626b377229c10585ec392f89,626b3abb5faa9641b2715a2b,,,,,,,,,,,,,,,,,,,,,,,a,1,"[""0.162"",""0.692"",""0.646"",""0.872""]","[1,0,1,1]",0,61,61,61,1,0,0,,,1,FALSE,0.5968,,,,,,,,,,,,,,,,,,,,,,,,,,,,,,
,60da905f8fa5374e57b4ad71,001,2022-04-29_03h18.46.608,classification_task,2021.2.3,Win32,144.7178003,60da905f8fa5374e57b4ad71,626b377229c10585ec392f89,626b3abb5faa9641b2715a2b,,,,,,,,,,,,,,,,,,,,,,,a,0,"[""0.123"",""0.198"",""0.538"",""0.736""]","[1,1,1,0]",0,62,62,62,1,1,0,,,1,FALSE,1.4611,,,,,,,,,,,,,,,,,,,,,,,,,,,,,,
,60da905f8fa5374e57b4ad71,001,2022-04-29_03h18.46.608,classification_task,2021.2.3,Win32,144.7178003,60da905f8fa5374e57b4ad71,626b377229c10585ec392f89,626b3abb5faa9641b2715a2b,,,,,,,,,,,,,,,,,,,,,,,a,1,"[""0.088"",""0.421"",""0.586"",""0.957""]","[0,1,1,1]",0,63,63,63,1,0,1,,,1,FALSE,0.9089,,,,,,,,,,,,,,,,,,,,,,,,,,,,,,
,60da905f8fa5374e57b4ad71,001,2022-04-29_03h18.46.608,classification_task,2021.2.3,Win32,144.7178003,60da905f8fa5374e57b4ad71,626b377229c10585ec392f89,626b3abb5faa9641b2715a2b,,,,,,,,,,,,,,,,,,,,,,,,,,,,,,,,,,,,,,,0, ,,0,5,217.914,0,2,2,2,1,2,3,,,,,,,,,,,,,,,,,
,60da905f8fa5374e57b4ad71,001,2022-04-29_03h18.46.608,classification_task,2021.2.3,Win32,144.7178003,60da905f8fa5374e57b4ad71,626b377229c10585ec392f89,626b3abb5faa9641b2715a2b,,,,,,,,,,,,,,,,,,,,,,,,,,,,,,,,,,,,,,,1,  ,,0,10,221.9338,0,2,2,2,1,2,3,,,,,,,,,,,,,,,,,
,60da905f8fa5374e57b4ad71,001,2022-04-29_03h18.46.608,classification_task,2021.2.3,Win32,144.7178003,60da905f8fa5374e57b4ad71,626b377229c10585ec392f89,626b3abb5faa9641b2715a2b,,,,,,,,,,,,,,,,,,,,,,,,,,,,,,,,,,,,,,,2,  ,,0,3.211836175,227.1086,0,2,2,2,1,2,3,,,,,,,,,,,,,,,,,
,60da905f8fa5374e57b4ad71,001,2022-04-29_03h18.46.608,classification_task,2021.2.3,Win32,144.7178003,60da905f8fa5374e57b4ad71,626b377229c10585ec392f89,626b3abb5faa9641b2715a2b,,,,,,,,,,,,,,,,,,,,,,,,,,,,,,,,,,,,,,,,,,,,,0,2,2,2,1,,3,,,,,,,,,,,,,,,,,
,60da905f8fa5374e57b4ad71,001,2022-04-29_03h18.46.608,classification_task,2021.2.3,Win32,144.7178003,60da905f8fa5374e57b4ad71,626b377229c10585ec392f89,626b3abb5faa9641b2715a2b,,,,,,,,,,,,,,,,,,,,,,,,,,,,,,,,,,,,,,,,,,,,,,,,,,,,,I believe the aid is a competent performer,,0.7,0,4,1034.4488,0,0,0,0,1,0,,,,
,60da905f8fa5374e57b4ad71,001,2022-04-29_03h18.46.608,classification_task,2021.2.3,Win32,144.7178003,60da905f8fa5374e57b4ad71,626b377229c10585ec392f89,626b3abb5faa9641b2715a2b,,,,,,,,,,,,,,,,,,,,,,,,,,,,,,,,,,,,,,,,,,,,,,,,,,,,,I trust the aid,,0.7,0,4,1036.3909,0,0,0,0,1,0,,,,
,60da905f8fa5374e57b4ad71,001,2022-04-29_03h18.46.608,classification_task,2021.2.3,Win32,144.7178003,60da905f8fa5374e57b4ad71,626b377229c10585ec392f89,626b3abb5faa9641b2715a2b,,,,,,,,,,,,,,,,,,,,,,,,,,,,,,,,,,,,,,,,,,,,,,,,,,,,,I have confidence in the advice given by the aid,,0.7,0,5,1039.2231,0,0,0,0,1,0,,,,
,60da905f8fa5374e57b4ad71,001,2022-04-29_03h18.46.608,classification_task,2021.2.3,Win32,144.7178003,60da905f8fa5374e57b4ad71,626b377229c10585ec392f89,626b3abb5faa9641b2715a2b,,,,,,,,,,,,,,,,,,,,,,,,,,,,,,,,,,,,,,,,,,,,,,,,,,,,,I can depend on the aid,,0.7,0,5,1040.6173,0,0,0,0,1,0,,,,
,60da905f8fa5374e57b4ad71,001,2022-04-29_03h18.46.608,classification_task,2021.2.3,Win32,144.7178003,60da905f8fa5374e57b4ad71,626b377229c10585ec392f89,626b3abb5faa9641b2715a2b,,,,,,,,,,,,,,,,,,,,,,,,,,,,,,,,,,,,,,,,,,,,,,,,,,,,,I can rely on the aid to behave in consistent ways,,0.7,0,5,1043.5872,0,0,0,0,1,0,,,,
,60da905f8fa5374e57b4ad71,001,2022-04-29_03h18.46.608,classification_task,2021.2.3,Win32,144.7178003,60da905f8fa5374e57b4ad71,626b377229c10585ec392f89,626b3abb5faa9641b2715a2b,,,,,,,,,,,,,,,,,,,,,,,,,,,,,,,,,,,,,,,,,,,,,,,,,,,,,I can rely on the aid to do its best every time I take its advice,,0.7,0,4,1047.7456,0,0,0,0,1,0,,,,
,60da905f8fa5374e57b4ad71,001,2022-04-29_03h18.46.608,classification_task,2021.2.3,Win32,144.7178003,60da905f8fa5374e57b4ad71,626b377229c10585ec392f89,626b3abb5faa9641b2715a2b,,,,,,,,,,,,,,,,,,,,,,,,,,,,,,,,,,,,,,,,,,,,,,,,,,,,,"On trials you completed with assistance from the aid, how frequently did you think the aid was correct?",,0.7,0,100%,,0,0,0,0,1,0,,,,
,60da905f8fa5374e57b4ad71,001,2022-04-29_03h18.46.608,classification_task,2021.2.3,Win32,144.7178003,60da905f8fa5374e57b4ad71,626b377229c10585ec392f89,626b3abb5faa9641b2715a2b,,,,,,,,,,,,,,,,,,,,,,,,,,,,,,,,,,,,,,,,,,,,,,,,,,,,,"On trials you completed without the aid, how frequently did you think you were correct?",,0.7,0,70%,,0,0,0,0,1,0,,,,
,60da905f8fa5374e57b4ad71,001,2022-04-29_03h18.46.608,classification_task,2021.2.3,Win32,144.7178003,60da905f8fa5374e57b4ad71,626b377229c10585ec392f89,626b3abb5faa9641b2715a2b,,,,,,,,,,,,,,,,,,,,,,,,,,,,,,,,,,,,,,,,,,,,,,,,,,,,,,,,,,,0,0,0,0,1,,,,,
,60da905f8fa5374e57b4ad71,001,2022-04-29_03h18.46.608,classification_task,2021.2.3,Win32,144.7178003,60da905f8fa5374e57b4ad71,626b377229c10585ec392f89,626b3abb5faa9641b2715a2b,,,,,,,,,,,,,,,,,,,,,,,,,,,,,,,,,,,,,,,,,,,,,,,,,,,,,,,,,,,,,,,,,space,13.1122,1085.7851,
,60da905f8fa5374e57b4ad71,001,2022-04-29_03h18.46.608,classification_task,2021.2.3,Win32,144.7178003,60da905f8fa5374e57b4ad71,626b377229c10585ec392f89,626b3abb5faa9641b2715a2b,,,,,,,,,,,,,,,,,,,,,,,,,,,,,,,,,,,,,,,,,,,,,,,,,,,,,,,,,,,,,,,,,,,,"Mozilla/5.0 (Windows NT 10.0; Win64; x64) AppleWebKit/537.36 (KHTML, like Gecko) Chrome/99.0.4844.84 Safari/537.36 OPR/85.0.4341.72"
