usingWebGL,participant,session,date,expName,psychopyVersion,OS,frameRate,study_id,signatures_friend,signatures_foe,band_ranges_top,band_ranges_bottom,formitemText,formtype,formundefined,formitemWidth,formindex,formresponse,formrt,key_resp_2.keys,key_resp_2.rt,tute_resp.keys,tute_resp.rt,tutorial.thisRepN,tutorial.thisTrialN,tutorial.thisN,tutorial.thisIndex,tutorial.ran,key_resp_4.keys,key_resp_4.rt,key_resp.keys,key_resp.corr,lines_presented,is_signal_presented,trials.thisRepN,trials.thisTrialN,trials.thisN,trials.thisIndex,trials.ran,vessel,active_band,lines,is_signal,supported_pos,catch_trial,key_resp.rt,debrief_formindex,debrief_formitemText,debrief_formtype,debrief_formitemWidth,debrief_formresponse,debrief_formrt,phases.thisRepN,phases.thisTrialN,phases.thisN,phases.thisIndex,phases.ran,phases.order,phase,key_resp_3.keys,trustitemText,trusttype,trustitemWidth,trustindex,trustresponse,trustrt,support_status.thisRepN,support_status.thisTrialN,support_status.thisN,support_status.thisIndex,support_status.ran,support_status.order,key_resp_5.keys,key_resp_5.rt,globalClockTime,userAgent,manualCondition
TRUE,60db9412ba928de1fdc2269e,627c7680fb4f1a0bfb0b6d8f,2022-05-12_03h53.30.336,classification_task,2021.2.3,Win32,19.99720039,627c6715c52fd12f31907bd0,,,,,,,,,,,,,,,,,,,,,,,,,,,,,,,,,,,,,,,,,,,,,,,,,,,,,,,,,,,,,,,,,,,,,
,60db9412ba928de1fdc2269e,627c7680fb4f1a0bfb0b6d8f,2022-05-12_03h53.30.336,classification_task,2021.2.3,Win32,19.99720039,627c6715c52fd12f31907bd0,"[[""0.309"",""0.350"",""0.607"",""0.973""],[""0.274"",""0.395"",""0.571"",""0.914""]]","[[""0.094"",""0.228"",""0.478"",""0.717""],[""0.128"",""0.171"",""0.670"",""0.829""]]","[1,10]","[100,1000]",Video game experience,,,0.7,0,,,,,,,,,,,,,,,,,,,,,,,,,,,,,,,,,,,,,,,,,,,,,,,,,,,,,,,,,,,,
,60db9412ba928de1fdc2269e,627c7680fb4f1a0bfb0b6d8f,2022-05-12_03h53.30.336,classification_task,2021.2.3,Win32,19.99720039,627c6715c52fd12f31907bd0,,,,,Approximately how many hours did you spend playing video games in the last week?,,,0.7,0,none,,,,,,,,,,,,,,,,,,,,,,,,,,,,,,,,,,,,,,,,,,,,,,,,,,,,,,,,,,,
,60db9412ba928de1fdc2269e,627c7680fb4f1a0bfb0b6d8f,2022-05-12_03h53.30.336,classification_task,2021.2.3,Win32,19.99720039,627c6715c52fd12f31907bd0,,,,,"Which game did you play the most this year? (Enter ""None"" if you didn't play any)",,,0.7,0,none,,,,,,,,,,,,,,,,,,,,,,,,,,,,,,,,,,,,,,,,,,,,,,,,,,,,,,,,,,,
,60db9412ba928de1fdc2269e,627c7680fb4f1a0bfb0b6d8f,2022-05-12_03h53.30.336,classification_task,2021.2.3,Win32,19.99720039,627c6715c52fd12f31907bd0,,,,,Visual perception,,,0.7,0,,,,,,,,,,,,,,,,,,,,,,,,,,,,,,,,,,,,,,,,,,,,,,,,,,,,,,,,,,,,
,60db9412ba928de1fdc2269e,627c7680fb4f1a0bfb0b6d8f,2022-05-12_03h53.30.336,classification_task,2021.2.3,Win32,19.99720039,627c6715c52fd12f31907bd0,,,,,Do you have any form of color blindness?,,,0.7,0,No,181.9174,,,,,,,,,,,,,,,,,,,,,,,,,,,,,,,,,,,,,,,,,,,,,,,,,,,,,,,,,,
,60db9412ba928de1fdc2269e,627c7680fb4f1a0bfb0b6d8f,2022-05-12_03h53.30.336,classification_task,2021.2.3,Win32,19.99720039,627c6715c52fd12f31907bd0,,,,,Do you use software to change the colour temperature of your screen (e.g. f.lux)?,,,0.7,0,No,185.8771,,,,,,,,,,,,,,,,,,,,,,,,,,,,,,,,,,,,,,,,,,,,,,,,,,,,,,,,,,
,60db9412ba928de1fdc2269e,627c7680fb4f1a0bfb0b6d8f,2022-05-12_03h53.30.336,classification_task,2021.2.3,Win32,19.99720039,627c6715c52fd12f31907bd0,,,,,,,,,,,,space,46.5033,space,12.7894,0,0,0,0,1,,,,,,,,,,,,,,,,,,,,,,,,,,,,,,,,,,,,,,,,,,,,,,,,,
,60db9412ba928de1fdc2269e,627c7680fb4f1a0bfb0b6d8f,2022-05-12_03h53.30.336,classification_task,2021.2.3,Win32,19.99720039,627c6715c52fd12f31907bd0,,,,,,,,,,,,,,space,12.2214,1,0,1,0,1,,,,,,,,,,,,,,,,,,,,,,,,,,,,,,,,,,,,,,,,,,,,,,,,,
,60db9412ba928de1fdc2269e,627c7680fb4f1a0bfb0b6d8f,2022-05-12_03h53.30.336,classification_task,2021.2.3,Win32,19.99720039,627c6715c52fd12f31907bd0,,,,,,,,,,,,,,space,59.2815,2,0,2,0,1,,,,,,,,,,,,,,,,,,,,,,,,,,,,,,,,,,,,,,,,,,,,,,,,,
,60db9412ba928de1fdc2269e,627c7680fb4f1a0bfb0b6d8f,2022-05-12_03h53.30.336,classification_task,2021.2.3,Win32,19.99720039,627c6715c52fd12f31907bd0,,,,,,,,,,,,,,space,4.7264,3,0,3,0,1,,,,,,,,,,,,,,,,,,,,,,,,,,,,,,,,,,,,,,,,,,,,,,,,,
,60db9412ba928de1fdc2269e,627c7680fb4f1a0bfb0b6d8f,2022-05-12_03h53.30.336,classification_task,2021.2.3,Win32,19.99720039,627c6715c52fd12f31907bd0,,,,,,,,,,,,,,space,22.1754,4,0,4,0,1,,,,,,,,,,,,,,,,,,,,,,,,,,,,,,,,,,,,,,,,,,,,,,,,,
,60db9412ba928de1fdc2269e,627c7680fb4f1a0bfb0b6d8f,2022-05-12_03h53.30.336,classification_task,2021.2.3,Win32,19.99720039,627c6715c52fd12f31907bd0,,,,,,,,,,,,,,,,,,,,,space,16.8813,,0,"[""0.274"",""0.395"",""0.571"",""0.870""]","[1,1,1,0]",0,0,0,0,1,0,1,,,0,FALSE,,,,,,,,,,,,,,,,,,,,,,,,,,,,,,,,
,60db9412ba928de1fdc2269e,627c7680fb4f1a0bfb0b6d8f,2022-05-12_03h53.30.336,classification_task,2021.2.3,Win32,19.99720039,627c6715c52fd12f31907bd0,,,,,,,,,,,,,,,,,,,,,,,,0,"[""0.437"",""0.228"",""0.478"",""0.717""]","[0,1,1,1]",0,1,1,1,1,1,0,,,0,FALSE,,,,,,,,,,,,,,,,,,,,,,,,,,,,,,,,
,60db9412ba928de1fdc2269e,627c7680fb4f1a0bfb0b6d8f,2022-05-12_03h53.30.336,classification_task,2021.2.3,Win32,19.99720039,627c6715c52fd12f31907bd0,,,,,,,,,,,,,,,,,,,,,,,a,1,"[""0.274"",""0.430"",""0.571"",""0.914""]","[1,0,1,1]",0,2,2,2,1,0,1,,,0,FALSE,8.379,,,,,,,,,,,,,,,,,,,,,,,,,,,,,,,
,60db9412ba928de1fdc2269e,627c7680fb4f1a0bfb0b6d8f,2022-05-12_03h53.30.336,classification_task,2021.2.3,Win32,19.99720039,627c6715c52fd12f31907bd0,,,,,,,,,,,,,,,,,,,,,,,l,1,"[""0.094"",""0.777"",""0.478"",""0.717""]","[1,0,1,1]",0,3,3,3,1,1,0,,,0,FALSE,4.6781,,,,,,,,,,,,,,,,,,,,,,,,,,,,,,,
,60db9412ba928de1fdc2269e,627c7680fb4f1a0bfb0b6d8f,2022-05-12_03h53.30.336,classification_task,2021.2.3,Win32,19.99720039,627c6715c52fd12f31907bd0,,,,,,,,,,,,,,,,,,,,,,,a,1,"[""0.309"",""0.050"",""0.607"",""0.973""]","[1,0,1,1]",0,4,4,4,1,0,0,,,0,FALSE,5.4208,,,,,,,,,,,,,,,,,,,,,,,,,,,,,,,
,60db9412ba928de1fdc2269e,627c7680fb4f1a0bfb0b6d8f,2022-05-12_03h53.30.336,classification_task,2021.2.3,Win32,19.99720039,627c6715c52fd12f31907bd0,,,,,,,,,,,,,,,,,,,,,,,l,0,"[""0.751"",""0.395"",""0.571"",""0.914""]","[0,1,1,1]",0,5,5,5,1,0,1,,,0,FALSE,5.4674,,,,,,,,,,,,,,,,,,,,,,,,,,,,,,,
,60db9412ba928de1fdc2269e,627c7680fb4f1a0bfb0b6d8f,2022-05-12_03h53.30.336,classification_task,2021.2.3,Win32,19.99720039,627c6715c52fd12f31907bd0,,,,,,,,,,,,,,,,,,,,,,,a,1,"[""0.309"",""0.350"",""0.607"",""0.045""]","[1,1,1,0]",0,6,6,6,1,0,0,,,0,FALSE,5.0275,,,,,,,,,,,,,,,,,,,,,,,,,,,,,,,
,60db9412ba928de1fdc2269e,627c7680fb4f1a0bfb0b6d8f,2022-05-12_03h53.30.336,classification_task,2021.2.3,Win32,19.99720039,627c6715c52fd12f31907bd0,,,,,,,,,,,,,,,,,,,,,,,l,1,"[""0.094"",""0.228"",""0.437"",""0.717""]","[1,1,0,1]",0,7,7,7,1,1,0,,,0,FALSE,5.9128,,,,,,,,,,,,,,,,,,,,,,,,,,,,,,,
,60db9412ba928de1fdc2269e,627c7680fb4f1a0bfb0b6d8f,2022-05-12_03h53.30.336,classification_task,2021.2.3,Win32,19.99720039,627c6715c52fd12f31907bd0,,,,,,,,,,,,,,,,,,,,,,,l,1,"[""0.094"",""0.228"",""0.478"",""0.050""]","[1,1,1,0]",0,8,8,8,1,1,0,,,0,FALSE,4.5763,,,,,,,,,,,,,,,,,,,,,,,,,,,,,,,
,60db9412ba928de1fdc2269e,627c7680fb4f1a0bfb0b6d8f,2022-05-12_03h53.30.336,classification_task,2021.2.3,Win32,19.99720039,627c6715c52fd12f31907bd0,,,,,,,,,,,,,,,,,,,,,,,a,1,"[""0.274"",""0.395"",""0.779"",""0.914""]","[1,1,0,1]",0,9,9,9,1,0,1,,,0,FALSE,4.596,,,,,,,,,,,,,,,,,,,,,,,,,,,,,,,
,60db9412ba928de1fdc2269e,627c7680fb4f1a0bfb0b6d8f,2022-05-12_03h53.30.336,classification_task,2021.2.3,Win32,19.99720039,627c6715c52fd12f31907bd0,,,,,,,,,,,,,,,,,,,,,,,l,1,"[""0.128"",""0.171"",""0.670"",""0.437""]","[1,1,1,0]",0,10,10,10,1,1,1,,,0,FALSE,4.1804,,,,,,,,,,,,,,,,,,,,,,,,,,,,,,,
,60db9412ba928de1fdc2269e,627c7680fb4f1a0bfb0b6d8f,2022-05-12_03h53.30.336,classification_task,2021.2.3,Win32,19.99720039,627c6715c52fd12f31907bd0,,,,,,,,,,,,,,,,,,,,,,,l,0,"[""0.045"",""0.350"",""0.607"",""0.973""]","[0,1,1,1]",0,11,11,11,1,0,0,,,0,FALSE,3.3368,,,,,,,,,,,,,,,,,,,,,,,,,,,,,,,
,60db9412ba928de1fdc2269e,627c7680fb4f1a0bfb0b6d8f,2022-05-12_03h53.30.336,classification_task,2021.2.3,Win32,19.99720039,627c6715c52fd12f31907bd0,,,,,,,,,,,,,,,,,,,,,,,l,1,"[""0.128"",""0.171"",""0.755"",""0.829""]","[1,1,0,1]",0,12,12,12,1,1,1,,,0,FALSE,7.5489,,,,,,,,,,,,,,,,,,,,,,,,,,,,,,,
,60db9412ba928de1fdc2269e,627c7680fb4f1a0bfb0b6d8f,2022-05-12_03h53.30.336,classification_task,2021.2.3,Win32,19.99720039,627c6715c52fd12f31907bd0,,,,,,,,,,,,,,,,,,,,,,,l,1,"[""0.767"",""0.171"",""0.670"",""0.829""]","[0,1,1,1]",0,13,13,13,1,1,1,,,0,FALSE,7.9418,,,,,,,,,,,,,,,,,,,,,,,,,,,,,,,
,60db9412ba928de1fdc2269e,627c7680fb4f1a0bfb0b6d8f,2022-05-12_03h53.30.336,classification_task,2021.2.3,Win32,19.99720039,627c6715c52fd12f31907bd0,,,,,,,,,,,,,,,,,,,,,,,a,1,"[""0.309"",""0.350"",""0.777"",""0.973""]","[1,1,0,1]",0,14,14,14,1,0,0,,,0,FALSE,5.4066,,,,,,,,,,,,,,,,,,,,,,,,,,,,,,,
,60db9412ba928de1fdc2269e,627c7680fb4f1a0bfb0b6d8f,2022-05-12_03h53.30.336,classification_task,2021.2.3,Win32,19.99720039,627c6715c52fd12f31907bd0,,,,,,,,,,,,,,,,,,,,,,,a,0,"[""0.128"",""0.045"",""0.670"",""0.829""]","[1,0,1,1]",0,15,15,15,1,1,1,,,0,FALSE,4.7227,,,,,,,,,,,,,,,,,,,,,,,,,,,,,,,
,60db9412ba928de1fdc2269e,627c7680fb4f1a0bfb0b6d8f,2022-05-12_03h53.30.336,classification_task,2021.2.3,Win32,19.99720039,627c6715c52fd12f31907bd0,,,,,,,,,,,,,,,,,,,,,,,a,1,"[""0.274"",""0.395"",""0.870"",""0.914""]","[1,1,0,1]",0,16,16,16,1,0,1,,,0,FALSE,4.185,,,,,,,,,,,,,,,,,,,,,,,,,,,,,,,
,60db9412ba928de1fdc2269e,627c7680fb4f1a0bfb0b6d8f,2022-05-12_03h53.30.336,classification_task,2021.2.3,Win32,19.99720039,627c6715c52fd12f31907bd0,,,,,,,,,,,,,,,,,,,,,,,l,1,"[""0.049"",""0.228"",""0.478"",""0.717""]","[0,1,1,1]",0,17,17,17,1,1,0,,,0,FALSE,4.2002,,,,,,,,,,,,,,,,,,,,,,,,,,,,,,,
,60db9412ba928de1fdc2269e,627c7680fb4f1a0bfb0b6d8f,2022-05-12_03h53.30.336,classification_task,2021.2.3,Win32,19.99720039,627c6715c52fd12f31907bd0,,,,,,,,,,,,,,,,,,,,,,,l,1,"[""0.094"",""0.228"",""0.478"",""0.045""]","[1,1,1,0]",0,18,18,18,1,1,0,,,0,FALSE,4.353,,,,,,,,,,,,,,,,,,,,,,,,,,,,,,,
,60db9412ba928de1fdc2269e,627c7680fb4f1a0bfb0b6d8f,2022-05-12_03h53.30.336,classification_task,2021.2.3,Win32,19.99720039,627c6715c52fd12f31907bd0,,,,,,,,,,,,,,,,,,,,,,,a,1,"[""0.274"",""0.395"",""0.571"",""0.779""]","[1,1,1,0]",0,19,19,19,1,0,1,,,0,FALSE,5.0465,,,,,,,,,,,,,,,,,,,,,,,,,,,,,,,
,60db9412ba928de1fdc2269e,627c7680fb4f1a0bfb0b6d8f,2022-05-12_03h53.30.336,classification_task,2021.2.3,Win32,19.99720039,627c6715c52fd12f31907bd0,,,,,,,,,,,,,,,,,,,,,,,l,1,"[""0.128"",""0.519"",""0.670"",""0.829""]","[1,0,1,1]",0,20,20,20,1,1,1,,,0,FALSE,3.7468,,,,,,,,,,,,,,,,,,,,,,,,,,,,,,,
,60db9412ba928de1fdc2269e,627c7680fb4f1a0bfb0b6d8f,2022-05-12_03h53.30.336,classification_task,2021.2.3,Win32,19.99720039,627c6715c52fd12f31907bd0,,,,,,,,,,,,,,,,,,,,,,,l,0,"[""0.050"",""0.350"",""0.607"",""0.973""]","[0,1,1,1]",0,21,21,21,1,0,0,,,0,FALSE,5.0382,,,,,,,,,,,,,,,,,,,,,,,,,,,,,,,
,60db9412ba928de1fdc2269e,627c7680fb4f1a0bfb0b6d8f,2022-05-12_03h53.30.336,classification_task,2021.2.3,Win32,19.99720039,627c6715c52fd12f31907bd0,,,,,,,,,,,,,,,,,,,,,,,l,0,"[""0.309"",""0.350"",""0.607"",""0.045""]","[1,1,1,0]",0,22,22,22,1,0,0,,,0,FALSE,5.0107,,,,,,,,,,,,,,,,,,,,,,,,,,,,,,,
,60db9412ba928de1fdc2269e,627c7680fb4f1a0bfb0b6d8f,2022-05-12_03h53.30.336,classification_task,2021.2.3,Win32,19.99720039,627c6715c52fd12f31907bd0,,,,,,,,,,,,,,,,,,,,,,,l,1,"[""0.128"",""0.171"",""0.430"",""0.829""]","[1,1,0,1]",0,23,23,23,1,1,1,,,0,FALSE,5.4559,,,,,,,,,,,,,,,,,,,,,,,,,,,,,,,
,60db9412ba928de1fdc2269e,627c7680fb4f1a0bfb0b6d8f,2022-05-12_03h53.30.336,classification_task,2021.2.3,Win32,19.99720039,627c6715c52fd12f31907bd0,,,,,,,,,,,,,,,,,,,,,,,a,1,"[""0.274"",""0.517"",""0.571"",""0.914""]","[1,0,1,1]",0,24,24,24,1,0,1,,,0,FALSE,3.7711,,,,,,,,,,,,,,,,,,,,,,,,,,,,,,,
,60db9412ba928de1fdc2269e,627c7680fb4f1a0bfb0b6d8f,2022-05-12_03h53.30.336,classification_task,2021.2.3,Win32,19.99720039,627c6715c52fd12f31907bd0,,,,,,,,,,,,,,,,,,,,,,,a,0,"[""0.437"",""0.171"",""0.670"",""0.829""]","[0,1,1,1]",0,25,25,25,1,1,1,,,0,FALSE,7.1226,,,,,,,,,,,,,,,,,,,,,,,,,,,,,,,
,60db9412ba928de1fdc2269e,627c7680fb4f1a0bfb0b6d8f,2022-05-12_03h53.30.336,classification_task,2021.2.3,Win32,19.99720039,627c6715c52fd12f31907bd0,,,,,,,,,,,,,,,,,,,,,,,a,1,"[""0.309"",""0.350"",""0.519"",""0.973""]","[1,1,0,1]",0,26,26,26,1,0,0,,,0,FALSE,5.4506,,,,,,,,,,,,,,,,,,,,,,,,,,,,,,,
,60db9412ba928de1fdc2269e,627c7680fb4f1a0bfb0b6d8f,2022-05-12_03h53.30.336,classification_task,2021.2.3,Win32,19.99720039,627c6715c52fd12f31907bd0,,,,,,,,,,,,,,,,,,,,,,,a,1,"[""0.309"",""0.045"",""0.607"",""0.973""]","[1,0,1,1]",0,27,27,27,1,0,0,,,0,FALSE,7.8931,,,,,,,,,,,,,,,,,,,,,,,,,,,,,,,
,60db9412ba928de1fdc2269e,627c7680fb4f1a0bfb0b6d8f,2022-05-12_03h53.30.336,classification_task,2021.2.3,Win32,19.99720039,627c6715c52fd12f31907bd0,,,,,,,,,,,,,,,,,,,,,,,a,0,"[""0.094"",""0.228"",""0.755"",""0.717""]","[1,1,0,1]",0,28,28,28,1,1,0,,,0,FALSE,3.0197,,,,,,,,,,,,,,,,,,,,,,,,,,,,,,,
,60db9412ba928de1fdc2269e,627c7680fb4f1a0bfb0b6d8f,2022-05-12_03h53.30.336,classification_task,2021.2.3,Win32,19.99720039,627c6715c52fd12f31907bd0,,,,,,,,,,,,,,,,,,,,,,,l,1,"[""0.094"",""0.045"",""0.478"",""0.717""]","[1,0,1,1]",0,29,29,29,1,1,0,,,0,FALSE,3.7828,,,,,,,,,,,,,,,,,,,,,,,,,,,,,,,
,60db9412ba928de1fdc2269e,627c7680fb4f1a0bfb0b6d8f,2022-05-12_03h53.30.336,classification_task,2021.2.3,Win32,19.99720039,627c6715c52fd12f31907bd0,,,,,,,,,,,,,,,,,,,,,,,l,1,"[""0.128"",""0.171"",""0.670"",""0.870""]","[1,1,1,0]",0,30,30,30,1,1,1,,,0,FALSE,4.6422,,,,,,,,,,,,,,,,,,,,,,,,,,,,,,,
,60db9412ba928de1fdc2269e,627c7680fb4f1a0bfb0b6d8f,2022-05-12_03h53.30.336,classification_task,2021.2.3,Win32,19.99720039,627c6715c52fd12f31907bd0,,,,,,,,,,,,,,,,,,,,,,,l,0,"[""0.437"",""0.395"",""0.571"",""0.914""]","[0,1,1,1]",0,31,31,31,1,0,1,,,0,FALSE,6.2935,,,,,,,,,,,,,,,,,,,,,,,,,,,,,,,
,60db9412ba928de1fdc2269e,627c7680fb4f1a0bfb0b6d8f,2022-05-12_03h53.30.336,classification_task,2021.2.3,Win32,19.99720039,627c6715c52fd12f31907bd0,,,,,,,,,,,,,,,,,,,,,,,a,0,"[""0.094"",""0.228"",""0.478"",""0.050""]","[1,1,1,0]",0,32,32,32,1,1,0,,,0,FALSE,4.5475,,,,,,,,,,,,,,,,,,,,,,,,,,,,,,,
,60db9412ba928de1fdc2269e,627c7680fb4f1a0bfb0b6d8f,2022-05-12_03h53.30.336,classification_task,2021.2.3,Win32,19.99720039,627c6715c52fd12f31907bd0,,,,,,,,,,,,,,,,,,,,,,,a,1,"[""0.051"",""0.395"",""0.571"",""0.914""]","[0,1,1,1]",0,33,33,33,1,0,1,,,0,FALSE,8.545,,,,,,,,,,,,,,,,,,,,,,,,,,,,,,,
,60db9412ba928de1fdc2269e,627c7680fb4f1a0bfb0b6d8f,2022-05-12_03h53.30.336,classification_task,2021.2.3,Win32,19.99720039,627c6715c52fd12f31907bd0,,,,,,,,,,,,,,,,,,,,,,,a,1,"[""0.274"",""0.430"",""0.571"",""0.914""]","[1,0,1,1]",0,34,34,34,1,0,1,,,0,FALSE,3.2439,,,,,,,,,,,,,,,,,,,,,,,,,,,,,,,
,60db9412ba928de1fdc2269e,627c7680fb4f1a0bfb0b6d8f,2022-05-12_03h53.30.336,classification_task,2021.2.3,Win32,19.99720039,627c6715c52fd12f31907bd0,,,,,,,,,,,,,,,,,,,,,,,a,0,"[""0.094"",""0.228"",""0.755"",""0.717""]","[1,1,0,1]",0,35,35,35,1,1,0,,,0,FALSE,4.0909,,,,,,,,,,,,,,,,,,,,,,,,,,,,,,,
,60db9412ba928de1fdc2269e,627c7680fb4f1a0bfb0b6d8f,2022-05-12_03h53.30.336,classification_task,2021.2.3,Win32,19.99720039,627c6715c52fd12f31907bd0,,,,,,,,,,,,,,,,,,,,,,,l,1,"[""0.050"",""0.228"",""0.478"",""0.717""]","[0,1,1,1]",0,36,36,36,1,1,0,,,0,FALSE,4.525,,,,,,,,,,,,,,,,,,,,,,,,,,,,,,,
,60db9412ba928de1fdc2269e,627c7680fb4f1a0bfb0b6d8f,2022-05-12_03h53.30.336,classification_task,2021.2.3,Win32,19.99720039,627c6715c52fd12f31907bd0,,,,,,,,,,,,,,,,,,,,,,,l,0,"[""0.309"",""0.350"",""0.050"",""0.973""]","[1,1,0,1]",0,37,37,37,1,0,0,,,0,FALSE,5.8246,,,,,,,,,,,,,,,,,,,,,,,,,,,,,,,
,60db9412ba928de1fdc2269e,627c7680fb4f1a0bfb0b6d8f,2022-05-12_03h53.30.336,classification_task,2021.2.3,Win32,19.99720039,627c6715c52fd12f31907bd0,,,,,,,,,,,,,,,,,,,,,,,a,0,"[""0.128"",""0.171"",""0.670"",""0.430""]","[1,1,1,0]",0,38,38,38,1,1,1,,,0,FALSE,2.4574,,,,,,,,,,,,,,,,,,,,,,,,,,,,,,,
,60db9412ba928de1fdc2269e,627c7680fb4f1a0bfb0b6d8f,2022-05-12_03h53.30.336,classification_task,2021.2.3,Win32,19.99720039,627c6715c52fd12f31907bd0,,,,,,,,,,,,,,,,,,,,,,,a,0,"[""0.777"",""0.171"",""0.670"",""0.829""]","[0,1,1,1]",0,39,39,39,1,1,1,,,0,FALSE,2.0447,,,,,,,,,,,,,,,,,,,,,,,,,,,,,,,
,60db9412ba928de1fdc2269e,627c7680fb4f1a0bfb0b6d8f,2022-05-12_03h53.30.336,classification_task,2021.2.3,Win32,19.99720039,627c6715c52fd12f31907bd0,,,,,,,,,,,,,,,,,,,,,,,a,1,"[""0.309"",""0.779"",""0.607"",""0.973""]","[1,0,1,1]",0,40,40,40,1,0,0,,,0,FALSE,3.2731,,,,,,,,,,,,,,,,,,,,,,,,,,,,,,,
,60db9412ba928de1fdc2269e,627c7680fb4f1a0bfb0b6d8f,2022-05-12_03h53.30.336,classification_task,2021.2.3,Win32,19.99720039,627c6715c52fd12f31907bd0,,,,,,,,,,,,,,,,,,,,,,,a,0,"[""0.128"",""0.430"",""0.670"",""0.829""]","[1,0,1,1]",0,41,41,41,1,1,1,,,0,FALSE,2.8915,,,,,,,,,,,,,,,,,,,,,,,,,,,,,,,
,60db9412ba928de1fdc2269e,627c7680fb4f1a0bfb0b6d8f,2022-05-12_03h53.30.336,classification_task,2021.2.3,Win32,19.99720039,627c6715c52fd12f31907bd0,,,,,,,,,,,,,,,,,,,,,,,a,1,"[""0.274"",""0.395"",""0.045"",""0.914""]","[1,1,0,1]",0,42,42,42,1,0,1,,,0,FALSE,6.2122,,,,,,,,,,,,,,,,,,,,,,,,,,,,,,,
,60db9412ba928de1fdc2269e,627c7680fb4f1a0bfb0b6d8f,2022-05-12_03h53.30.336,classification_task,2021.2.3,Win32,19.99720039,627c6715c52fd12f31907bd0,,,,,,,,,,,,,,,,,,,,,,,a,0,"[""0.128"",""0.171"",""0.050"",""0.829""]","[1,1,0,1]",0,43,43,43,1,1,1,,,0,FALSE,2.871,,,,,,,,,,,,,,,,,,,,,,,,,,,,,,,
,60db9412ba928de1fdc2269e,627c7680fb4f1a0bfb0b6d8f,2022-05-12_03h53.30.336,classification_task,2021.2.3,Win32,19.99720039,627c6715c52fd12f31907bd0,,,,,,,,,,,,,,,,,,,,,,,l,1,"[""0.094"",""0.050"",""0.478"",""0.717""]","[1,0,1,1]",0,44,44,44,1,1,0,,,0,FALSE,4.9891,,,,,,,,,,,,,,,,,,,,,,,,,,,,,,,
,60db9412ba928de1fdc2269e,627c7680fb4f1a0bfb0b6d8f,2022-05-12_03h53.30.336,classification_task,2021.2.3,Win32,19.99720039,627c6715c52fd12f31907bd0,,,,,,,,,,,,,,,,,,,,,,,l,0,"[""0.309"",""0.350"",""0.607"",""0.045""]","[1,1,1,0]",0,45,45,45,1,0,0,,,0,FALSE,3.6933,,,,,,,,,,,,,,,,,,,,,,,,,,,,,,,
,60db9412ba928de1fdc2269e,627c7680fb4f1a0bfb0b6d8f,2022-05-12_03h53.30.336,classification_task,2021.2.3,Win32,19.99720039,627c6715c52fd12f31907bd0,,,,,,,,,,,,,,,,,,,,,,,a,1,"[""0.274"",""0.395"",""0.571"",""0.870""]","[1,1,1,0]",0,46,46,46,1,0,1,,,0,FALSE,2.4725,,,,,,,,,,,,,,,,,,,,,,,,,,,,,,,
,60db9412ba928de1fdc2269e,627c7680fb4f1a0bfb0b6d8f,2022-05-12_03h53.30.336,classification_task,2021.2.3,Win32,19.99720039,627c6715c52fd12f31907bd0,,,,,,,,,,,,,,,,,,,,,,,l,0,"[""0.519"",""0.350"",""0.607"",""0.973""]","[0,1,1,1]",0,47,47,47,1,0,0,,,0,FALSE,4.5227,,,,,,,,,,,,,,,,,,,,,,,,,,,,,,,
,60db9412ba928de1fdc2269e,627c7680fb4f1a0bfb0b6d8f,2022-05-12_03h53.30.336,classification_task,2021.2.3,Win32,19.99720039,627c6715c52fd12f31907bd0,,,,,,,,,,,,,,,,,,,,,,,a,0,"[""0.755"",""0.171"",""0.670"",""0.829""]","[0,1,1,1]",0,48,48,48,1,1,1,,,0,FALSE,3.2858,,,,,,,,,,,,,,,,,,,,,,,,,,,,,,,
,60db9412ba928de1fdc2269e,627c7680fb4f1a0bfb0b6d8f,2022-05-12_03h53.30.336,classification_task,2021.2.3,Win32,19.99720039,627c6715c52fd12f31907bd0,,,,,,,,,,,,,,,,,,,,,,,l,0,"[""0.051"",""0.350"",""0.607"",""0.973""]","[0,1,1,1]",0,49,49,49,1,0,0,,,0,FALSE,5.3834,,,,,,,,,,,,,,,,,,,,,,,,,,,,,,,
,60db9412ba928de1fdc2269e,627c7680fb4f1a0bfb0b6d8f,2022-05-12_03h53.30.336,classification_task,2021.2.3,Win32,19.99720039,627c6715c52fd12f31907bd0,,,,,,,,,,,,,,,,,,,,,,,a,1,"[""0.274"",""0.870"",""0.571"",""0.914""]","[1,0,1,1]",0,50,50,50,1,0,1,,,0,FALSE,2.888,,,,,,,,,,,,,,,,,,,,,,,,,,,,,,,
,60db9412ba928de1fdc2269e,627c7680fb4f1a0bfb0b6d8f,2022-05-12_03h53.30.336,classification_task,2021.2.3,Win32,19.99720039,627c6715c52fd12f31907bd0,,,,,,,,,,,,,,,,,,,,,,,a,1,"[""0.430"",""0.395"",""0.571"",""0.914""]","[0,1,1,1]",0,51,51,51,1,0,1,,,0,FALSE,6.1058,,,,,,,,,,,,,,,,,,,,,,,,,,,,,,,
,60db9412ba928de1fdc2269e,627c7680fb4f1a0bfb0b6d8f,2022-05-12_03h53.30.336,classification_task,2021.2.3,Win32,19.99720039,627c6715c52fd12f31907bd0,,,,,,,,,,,,,,,,,,,,,,,a,0,"[""0.128"",""0.171"",""0.670"",""0.430""]","[1,1,1,0]",0,52,52,52,1,1,1,,,0,FALSE,4.5126,,,,,,,,,,,,,,,,,,,,,,,,,,,,,,,
,60db9412ba928de1fdc2269e,627c7680fb4f1a0bfb0b6d8f,2022-05-12_03h53.30.336,classification_task,2021.2.3,Win32,19.99720039,627c6715c52fd12f31907bd0,,,,,,,,,,,,,,,,,,,,,,,a,0,"[""0.094"",""0.049"",""0.478"",""0.717""]","[1,0,1,1]",0,53,53,53,1,1,0,,,0,FALSE,3.6622,,,,,,,,,,,,,,,,,,,,,,,,,,,,,,,
,60db9412ba928de1fdc2269e,627c7680fb4f1a0bfb0b6d8f,2022-05-12_03h53.30.336,classification_task,2021.2.3,Win32,19.99720039,627c6715c52fd12f31907bd0,,,,,,,,,,,,,,,,,,,,,,,a,1,"[""0.274"",""0.395"",""0.571"",""0.779""]","[1,1,1,0]",0,54,54,54,1,0,1,,,0,FALSE,4.5169,,,,,,,,,,,,,,,,,,,,,,,,,,,,,,,
,60db9412ba928de1fdc2269e,627c7680fb4f1a0bfb0b6d8f,2022-05-12_03h53.30.336,classification_task,2021.2.3,Win32,19.99720039,627c6715c52fd12f31907bd0,,,,,,,,,,,,,,,,,,,,,,,l,0,"[""0.309"",""0.350"",""0.607"",""0.050""]","[1,1,1,0]",0,55,55,55,1,0,0,,,0,FALSE,2.9464,,,,,,,,,,,,,,,,,,,,,,,,,,,,,,,
,60db9412ba928de1fdc2269e,627c7680fb4f1a0bfb0b6d8f,2022-05-12_03h53.30.336,classification_task,2021.2.3,Win32,19.99720039,627c6715c52fd12f31907bd0,,,,,,,,,,,,,,,,,,,,,,,a,0,"[""0.128"",""0.767"",""0.670"",""0.829""]","[1,0,1,1]",0,56,56,56,1,1,1,,,0,FALSE,2.8514,,,,,,,,,,,,,,,,,,,,,,,,,,,,,,,
,60db9412ba928de1fdc2269e,627c7680fb4f1a0bfb0b6d8f,2022-05-12_03h53.30.336,classification_task,2021.2.3,Win32,19.99720039,627c6715c52fd12f31907bd0,,,,,,,,,,,,,,,,,,,,,,,a,0,"[""0.094"",""0.228"",""0.049"",""0.717""]","[1,1,0,1]",0,57,57,57,1,1,0,,,0,FALSE,2.8513,,,,,,,,,,,,,,,,,,,,,,,,,,,,,,,
,60db9412ba928de1fdc2269e,627c7680fb4f1a0bfb0b6d8f,2022-05-12_03h53.30.336,classification_task,2021.2.3,Win32,19.99720039,627c6715c52fd12f31907bd0,,,,,,,,,,,,,,,,,,,,,,,l,1,"[""0.519"",""0.228"",""0.478"",""0.717""]","[0,1,1,1]",0,58,58,58,1,1,0,,,0,FALSE,3.2693,,,,,,,,,,,,,,,,,,,,,,,,,,,,,,,
,60db9412ba928de1fdc2269e,627c7680fb4f1a0bfb0b6d8f,2022-05-12_03h53.30.336,classification_task,2021.2.3,Win32,19.99720039,627c6715c52fd12f31907bd0,,,,,,,,,,,,,,,,,,,,,,,l,0,"[""0.309"",""0.519"",""0.607"",""0.973""]","[1,0,1,1]",0,59,59,59,1,0,0,,,0,FALSE,2.8461,,,,,,,,,,,,,,,,,,,,,,,,,,,,,,,
,60db9412ba928de1fdc2269e,627c7680fb4f1a0bfb0b6d8f,2022-05-12_03h53.30.336,classification_task,2021.2.3,Win32,19.99720039,627c6715c52fd12f31907bd0,,,,,,,,,,,,,,,,,,,,,,,a,0,"[""0.128"",""0.171"",""0.050"",""0.829""]","[1,1,0,1]",0,60,60,60,1,1,1,,,0,FALSE,2.8506,,,,,,,,,,,,,,,,,,,,,,,,,,,,,,,
,60db9412ba928de1fdc2269e,627c7680fb4f1a0bfb0b6d8f,2022-05-12_03h53.30.336,classification_task,2021.2.3,Win32,19.99720039,627c6715c52fd12f31907bd0,,,,,,,,,,,,,,,,,,,,,,,l,1,"[""0.094"",""0.228"",""0.478"",""0.430""]","[1,1,1,0]",0,61,61,61,1,1,0,,,0,FALSE,5.3491,,,,,,,,,,,,,,,,,,,,,,,,,,,,,,,
,60db9412ba928de1fdc2269e,627c7680fb4f1a0bfb0b6d8f,2022-05-12_03h53.30.336,classification_task,2021.2.3,Win32,19.99720039,627c6715c52fd12f31907bd0,,,,,,,,,,,,,,,,,,,,,,,l,0,"[""0.309"",""0.350"",""0.437"",""0.973""]","[1,1,0,1]",0,62,62,62,1,0,0,,,0,FALSE,1.6573,,,,,,,,,,,,,,,,,,,,,,,,,,,,,,,
,60db9412ba928de1fdc2269e,627c7680fb4f1a0bfb0b6d8f,2022-05-12_03h53.30.336,classification_task,2021.2.3,Win32,19.99720039,627c6715c52fd12f31907bd0,,,,,,,,,,,,,,,,,,,,,,,a,1,"[""0.274"",""0.395"",""0.519"",""0.914""]","[1,1,0,1]",0,63,63,63,1,0,1,,,0,FALSE,2.4742,,,,,,,,,,,,,,,,,,,,,,,,,,,,,,,
,60db9412ba928de1fdc2269e,627c7680fb4f1a0bfb0b6d8f,2022-05-12_03h53.30.336,classification_task,2021.2.3,Win32,19.99720039,627c6715c52fd12f31907bd0,,,,,,,,,,,,,,,,,,,,,,,,,,,,,,,,,,,,,,,0, ,,0,2.898754409,837.1014,0,0,0,0,1,2,1,,,,,,,,,,,,,,,,,,
,60db9412ba928de1fdc2269e,627c7680fb4f1a0bfb0b6d8f,2022-05-12_03h53.30.336,classification_task,2021.2.3,Win32,19.99720039,627c6715c52fd12f31907bd0,,,,,,,,,,,,,,,,,,,,,,,,,,,,,,,,,,,,,,,1,  ,,0,9.443617725,795.808,0,0,0,0,1,2,1,,,,,,,,,,,,,,,,,,
,60db9412ba928de1fdc2269e,627c7680fb4f1a0bfb0b6d8f,2022-05-12_03h53.30.336,classification_task,2021.2.3,Win32,19.99720039,627c6715c52fd12f31907bd0,,,,,,,,,,,,,,,,,,,,,,,,,,,,,,,,,,,,,,,2,  ,,0,4.862213404,805.7265,0,0,0,0,1,2,1,,,,,,,,,,,,,,,,,,
,60db9412ba928de1fdc2269e,627c7680fb4f1a0bfb0b6d8f,2022-05-12_03h53.30.336,classification_task,2021.2.3,Win32,19.99720039,627c6715c52fd12f31907bd0,,,,,,,,,,,,,,,,,,,,,,,,,,,,,,,,,,,,,,,,,,,,,0,0,0,0,1,,1,,,,,,,,,,,,,,,,,,
,60db9412ba928de1fdc2269e,627c7680fb4f1a0bfb0b6d8f,2022-05-12_03h53.30.336,classification_task,2021.2.3,Win32,19.99720039,627c6715c52fd12f31907bd0,,,,,,,,,,,,,,,,,,,,,space,31.7473,l,1,"[""0.094"",""0.045"",""0.478"",""0.717""]","[1,0,1,1]",0,0,0,0,1,1,0,,,0,FALSE,3.3841,,,,,,,,,,,,,,,,,,,,,,,,,,,,,,,
,60db9412ba928de1fdc2269e,627c7680fb4f1a0bfb0b6d8f,2022-05-12_03h53.30.336,classification_task,2021.2.3,Win32,19.99720039,627c6715c52fd12f31907bd0,,,,,,,,,,,,,,,,,,,,,,,a,1,"[""0.274"",""0.395"",""0.519"",""0.914""]","[1,1,0,1]",0,1,1,1,1,0,1,,,0,FALSE,5.47,,,,,,,,,,,,,,,,,,,,,,,,,,,,,,,
,60db9412ba928de1fdc2269e,627c7680fb4f1a0bfb0b6d8f,2022-05-12_03h53.30.336,classification_task,2021.2.3,Win32,19.99720039,627c6715c52fd12f31907bd0,,,,,,,,,,,,,,,,,,,,,,,a,1,"[""0.309"",""0.779"",""0.607"",""0.973""]","[1,0,1,1]",0,2,2,2,1,0,0,,,0,FALSE,6.7188,,,,,,,,,,,,,,,,,,,,,,,,,,,,,,,
,60db9412ba928de1fdc2269e,627c7680fb4f1a0bfb0b6d8f,2022-05-12_03h53.30.336,classification_task,2021.2.3,Win32,19.99720039,627c6715c52fd12f31907bd0,,,,,,,,,,,,,,,,,,,,,,,l,1,"[""0.045"",""0.171"",""0.670"",""0.829""]","[0,1,1,1]",0,3,3,3,1,1,1,,,0,FALSE,3.7768,,,,,,,,,,,,,,,,,,,,,,,,,,,,,,,
,60db9412ba928de1fdc2269e,627c7680fb4f1a0bfb0b6d8f,2022-05-12_03h53.30.336,classification_task,2021.2.3,Win32,19.99720039,627c6715c52fd12f31907bd0,,,,,,,,,,,,,,,,,,,,,,,a,0,"[""0.128"",""0.171"",""0.670"",""0.517""]","[1,1,1,0]",0,4,4,4,1,1,1,,,0,FALSE,3.4009,,,,,,,,,,,,,,,,,,,,,,,,,,,,,,,
,60db9412ba928de1fdc2269e,627c7680fb4f1a0bfb0b6d8f,2022-05-12_03h53.30.336,classification_task,2021.2.3,Win32,19.99720039,627c6715c52fd12f31907bd0,,,,,,,,,,,,,,,,,,,,,,,a,1,"[""0.051"",""0.395"",""0.571"",""0.914""]","[0,1,1,1]",0,5,5,5,1,0,1,,,0,FALSE,2.5774,,,,,,,,,,,,,,,,,,,,,,,,,,,,,,,
,60db9412ba928de1fdc2269e,627c7680fb4f1a0bfb0b6d8f,2022-05-12_03h53.30.336,classification_task,2021.2.3,Win32,19.99720039,627c6715c52fd12f31907bd0,,,,,,,,,,,,,,,,,,,,,,,a,1,"[""0.309"",""0.350"",""0.755"",""0.973""]","[1,1,0,1]",0,6,6,6,1,0,0,,,0,FALSE,5.0538,,,,,,,,,,,,,,,,,,,,,,,,,,,,,,,
,60db9412ba928de1fdc2269e,627c7680fb4f1a0bfb0b6d8f,2022-05-12_03h53.30.336,classification_task,2021.2.3,Win32,19.99720039,627c6715c52fd12f31907bd0,,,,,,,,,,,,,,,,,,,,,,,l,0,"[""0.274"",""0.430"",""0.571"",""0.914""]","[1,0,1,1]",0,7,7,7,1,0,1,,,0,FALSE,3.7604,,,,,,,,,,,,,,,,,,,,,,,,,,,,,,,
,60db9412ba928de1fdc2269e,627c7680fb4f1a0bfb0b6d8f,2022-05-12_03h53.30.336,classification_task,2021.2.3,Win32,19.99720039,627c6715c52fd12f31907bd0,,,,,,,,,,,,,,,,,,,,,,,l,1,"[""0.094"",""0.228"",""0.755"",""0.717""]","[1,1,0,1]",0,8,8,8,1,1,0,,,0,FALSE,5.8588,,,,,,,,,,,,,,,,,,,,,,,,,,,,,,,
,60db9412ba928de1fdc2269e,627c7680fb4f1a0bfb0b6d8f,2022-05-12_03h53.30.336,classification_task,2021.2.3,Win32,19.99720039,627c6715c52fd12f31907bd0,,,,,,,,,,,,,,,,,,,,,,,l,1,"[""0.128"",""0.171"",""0.751"",""0.829""]","[1,1,0,1]",0,9,9,9,1,1,1,,,0,FALSE,7.0826,,,,,,,,,,,,,,,,,,,,,,,,,,,,,,,
,60db9412ba928de1fdc2269e,627c7680fb4f1a0bfb0b6d8f,2022-05-12_03h53.30.336,classification_task,2021.2.3,Win32,19.99720039,627c6715c52fd12f31907bd0,,,,,,,,,,,,,,,,,,,,,,,a,1,"[""0.274"",""0.395"",""0.571"",""0.777""]","[1,1,1,0]",0,10,10,10,1,0,1,,,0,FALSE,5.8475,,,,,,,,,,,,,,,,,,,,,,,,,,,,,,,
,60db9412ba928de1fdc2269e,627c7680fb4f1a0bfb0b6d8f,2022-05-12_03h53.30.336,classification_task,2021.2.3,Win32,19.99720039,627c6715c52fd12f31907bd0,,,,,,,,,,,,,,,,,,,,,,,a,1,"[""0.309"",""0.350"",""0.607"",""0.779""]","[1,1,1,0]",0,11,11,11,1,0,0,,,0,FALSE,5.8741,,,,,,,,,,,,,,,,,,,,,,,,,,,,,,,
,60db9412ba928de1fdc2269e,627c7680fb4f1a0bfb0b6d8f,2022-05-12_03h53.30.336,classification_task,2021.2.3,Win32,19.99720039,627c6715c52fd12f31907bd0,,,,,,,,,,,,,,,,,,,,,,,a,1,"[""0.517"",""0.350"",""0.607"",""0.973""]","[0,1,1,1]",0,12,12,12,1,0,0,,,0,FALSE,5.0456,,,,,,,,,,,,,,,,,,,,,,,,,,,,,,,
,60db9412ba928de1fdc2269e,627c7680fb4f1a0bfb0b6d8f,2022-05-12_03h53.30.336,classification_task,2021.2.3,Win32,19.99720039,627c6715c52fd12f31907bd0,,,,,,,,,,,,,,,,,,,,,,,l,1,"[""0.094"",""0.228"",""0.478"",""0.437""]","[1,1,1,0]",0,13,13,13,1,1,0,,,0,FALSE,2.934,,,,,,,,,,,,,,,,,,,,,,,,,,,,,,,
,60db9412ba928de1fdc2269e,627c7680fb4f1a0bfb0b6d8f,2022-05-12_03h53.30.336,classification_task,2021.2.3,Win32,19.99720039,627c6715c52fd12f31907bd0,,,,,,,,,,,,,,,,,,,,,,,l,1,"[""0.128"",""0.050"",""0.670"",""0.829""]","[1,0,1,1]",0,14,14,14,1,1,1,,,0,FALSE,3.8091,,,,,,,,,,,,,,,,,,,,,,,,,,,,,,,
,60db9412ba928de1fdc2269e,627c7680fb4f1a0bfb0b6d8f,2022-05-12_03h53.30.336,classification_task,2021.2.3,Win32,19.99720039,627c6715c52fd12f31907bd0,,,,,,,,,,,,,,,,,,,,,,,l,1,"[""0.045"",""0.228"",""0.478"",""0.717""]","[0,1,1,1]",0,15,15,15,1,1,0,,,0,FALSE,5.0224,,,,,,,,,,,,,,,,,,,,,,,,,,,,,,,
,60db9412ba928de1fdc2269e,627c7680fb4f1a0bfb0b6d8f,2022-05-12_03h53.30.336,classification_task,2021.2.3,Win32,19.99720039,627c6715c52fd12f31907bd0,,,,,,,,,,,,,,,,,,,,,,,l,1,"[""0.128"",""0.171"",""0.519"",""0.829""]","[1,1,0,1]",0,16,16,16,1,1,1,,,0,FALSE,4.2207,,,,,,,,,,,,,,,,,,,,,,,,,,,,,,,
,60db9412ba928de1fdc2269e,627c7680fb4f1a0bfb0b6d8f,2022-05-12_03h53.30.336,classification_task,2021.2.3,Win32,19.99720039,627c6715c52fd12f31907bd0,,,,,,,,,,,,,,,,,,,,,,,l,1,"[""0.767"",""0.171"",""0.670"",""0.829""]","[0,1,1,1]",0,17,17,17,1,1,1,,,0,FALSE,3.3616,,,,,,,,,,,,,,,,,,,,,,,,,,,,,,,
,60db9412ba928de1fdc2269e,627c7680fb4f1a0bfb0b6d8f,2022-05-12_03h53.30.336,classification_task,2021.2.3,Win32,19.99720039,627c6715c52fd12f31907bd0,,,,,,,,,,,,,,,,,,,,,,,a,1,"[""0.309"",""0.350"",""0.767"",""0.973""]","[1,1,0,1]",0,18,18,18,1,0,0,,,0,FALSE,4.6289,,,,,,,,,,,,,,,,,,,,,,,,,,,,,,,
,60db9412ba928de1fdc2269e,627c7680fb4f1a0bfb0b6d8f,2022-05-12_03h53.30.336,classification_task,2021.2.3,Win32,19.99720039,627c6715c52fd12f31907bd0,,,,,,,,,,,,,,,,,,,,,,,l,1,"[""0.094"",""0.755"",""0.478"",""0.717""]","[1,0,1,1]",0,19,19,19,1,1,0,,,0,FALSE,2.51,,,,,,,,,,,,,,,,,,,,,,,,,,,,,,,
,60db9412ba928de1fdc2269e,627c7680fb4f1a0bfb0b6d8f,2022-05-12_03h53.30.336,classification_task,2021.2.3,Win32,19.99720039,627c6715c52fd12f31907bd0,,,,,,,,,,,,,,,,,,,,,,,l,0,"[""0.274"",""0.395"",""0.049"",""0.914""]","[1,1,0,1]",0,20,20,20,1,0,1,,,0,FALSE,3.7992,,,,,,,,,,,,,,,,,,,,,,,,,,,,,,,
,60db9412ba928de1fdc2269e,627c7680fb4f1a0bfb0b6d8f,2022-05-12_03h53.30.336,classification_task,2021.2.3,Win32,19.99720039,627c6715c52fd12f31907bd0,,,,,,,,,,,,,,,,,,,,,,,l,1,"[""0.128"",""0.171"",""0.670"",""0.777""]","[1,1,1,0]",0,21,21,21,1,1,1,,,0,FALSE,5.4453,,,,,,,,,,,,,,,,,,,,,,,,,,,,,,,
,60db9412ba928de1fdc2269e,627c7680fb4f1a0bfb0b6d8f,2022-05-12_03h53.30.336,classification_task,2021.2.3,Win32,19.99720039,627c6715c52fd12f31907bd0,,,,,,,,,,,,,,,,,,,,,,,a,1,"[""0.274"",""0.779"",""0.571"",""0.914""]","[1,0,1,1]",0,22,22,22,1,0,1,,,0,FALSE,6.31,,,,,,,,,,,,,,,,,,,,,,,,,,,,,,,
,60db9412ba928de1fdc2269e,627c7680fb4f1a0bfb0b6d8f,2022-05-12_03h53.30.336,classification_task,2021.2.3,Win32,19.99720039,627c6715c52fd12f31907bd0,,,,,,,,,,,,,,,,,,,,,,,a,1,"[""0.309"",""0.350"",""0.607"",""0.430""]","[1,1,1,0]",0,23,23,23,1,0,0,,,0,FALSE,3.3644,,,,,,,,,,,,,,,,,,,,,,,,,,,,,,,
,60db9412ba928de1fdc2269e,627c7680fb4f1a0bfb0b6d8f,2022-05-12_03h53.30.336,classification_task,2021.2.3,Win32,19.99720039,627c6715c52fd12f31907bd0,,,,,,,,,,,,,,,,,,,,,,,a,1,"[""0.309"",""0.437"",""0.607"",""0.973""]","[1,0,1,1]",0,24,24,24,1,0,0,,,0,FALSE,3.3771,,,,,,,,,,,,,,,,,,,,,,,,,,,,,,,
,60db9412ba928de1fdc2269e,627c7680fb4f1a0bfb0b6d8f,2022-05-12_03h53.30.336,classification_task,2021.2.3,Win32,19.99720039,627c6715c52fd12f31907bd0,,,,,,,,,,,,,,,,,,,,,,,l,1,"[""0.777"",""0.228"",""0.478"",""0.717""]","[0,1,1,1]",0,25,25,25,1,1,0,,,0,FALSE,5.8956,,,,,,,,,,,,,,,,,,,,,,,,,,,,,,,
,60db9412ba928de1fdc2269e,627c7680fb4f1a0bfb0b6d8f,2022-05-12_03h53.30.336,classification_task,2021.2.3,Win32,19.99720039,627c6715c52fd12f31907bd0,,,,,,,,,,,,,,,,,,,,,,,a,1,"[""0.049"",""0.350"",""0.607"",""0.973""]","[0,1,1,1]",0,26,26,26,1,0,0,,,0,FALSE,2.9525,,,,,,,,,,,,,,,,,,,,,,,,,,,,,,,
,60db9412ba928de1fdc2269e,627c7680fb4f1a0bfb0b6d8f,2022-05-12_03h53.30.336,classification_task,2021.2.3,Win32,19.99720039,627c6715c52fd12f31907bd0,,,,,,,,,,,,,,,,,,,,,,,l,1,"[""0.128"",""0.049"",""0.670"",""0.829""]","[1,0,1,1]",0,27,27,27,1,1,1,,,0,FALSE,3.7705,,,,,,,,,,,,,,,,,,,,,,,,,,,,,,,
,60db9412ba928de1fdc2269e,627c7680fb4f1a0bfb0b6d8f,2022-05-12_03h53.30.336,classification_task,2021.2.3,Win32,19.99720039,627c6715c52fd12f31907bd0,,,,,,,,,,,,,,,,,,,,,,,l,1,"[""0.094"",""0.228"",""0.050"",""0.717""]","[1,1,0,1]",0,28,28,28,1,1,0,,,0,FALSE,4.207,,,,,,,,,,,,,,,,,,,,,,,,,,,,,,,
,60db9412ba928de1fdc2269e,627c7680fb4f1a0bfb0b6d8f,2022-05-12_03h53.30.336,classification_task,2021.2.3,Win32,19.99720039,627c6715c52fd12f31907bd0,,,,,,,,,,,,,,,,,,,,,,,l,1,"[""0.094"",""0.228"",""0.478"",""0.437""]","[1,1,1,0]",0,29,29,29,1,1,0,,,0,FALSE,3.848,,,,,,,,,,,,,,,,,,,,,,,,,,,,,,,
,60db9412ba928de1fdc2269e,627c7680fb4f1a0bfb0b6d8f,2022-05-12_03h53.30.336,classification_task,2021.2.3,Win32,19.99720039,627c6715c52fd12f31907bd0,,,,,,,,,,,,,,,,,,,,,,,a,1,"[""0.751"",""0.395"",""0.571"",""0.914""]","[0,1,1,1]",0,30,30,30,1,0,1,,,0,FALSE,2.5605,,,,,,,,,,,,,,,,,,,,,,,,,,,,,,,
,60db9412ba928de1fdc2269e,627c7680fb4f1a0bfb0b6d8f,2022-05-12_03h53.30.336,classification_task,2021.2.3,Win32,19.99720039,627c6715c52fd12f31907bd0,,,,,,,,,,,,,,,,,,,,,,,a,1,"[""0.274"",""0.395"",""0.571"",""0.050""]","[1,1,1,0]",0,31,31,31,1,0,1,,,0,FALSE,5.8936,,,,,,,,,,,,,,,,,,,,,,,,,,,,,,,
,60db9412ba928de1fdc2269e,627c7680fb4f1a0bfb0b6d8f,2022-05-12_03h53.30.336,classification_task,2021.2.3,Win32,19.99720039,627c6715c52fd12f31907bd0,,,,,,,,,,,,,,,,,,,,,,,l,1,"[""0.128"",""0.171"",""0.777"",""0.829""]","[1,1,0,1]",0,32,32,32,1,1,1,,,0,FALSE,2.0923,,,,,,,,,,,,,,,,,,,,,,,,,,,,,,,
,60db9412ba928de1fdc2269e,627c7680fb4f1a0bfb0b6d8f,2022-05-12_03h53.30.336,classification_task,2021.2.3,Win32,19.99720039,627c6715c52fd12f31907bd0,,,,,,,,,,,,,,,,,,,,,,,l,1,"[""0.767"",""0.228"",""0.478"",""0.717""]","[0,1,1,1]",0,33,33,33,1,1,0,,,0,FALSE,5.8654,,,,,,,,,,,,,,,,,,,,,,,,,,,,,,,
,60db9412ba928de1fdc2269e,627c7680fb4f1a0bfb0b6d8f,2022-05-12_03h53.30.336,classification_task,2021.2.3,Win32,19.99720039,627c6715c52fd12f31907bd0,,,,,,,,,,,,,,,,,,,,,,,l,0,"[""0.274"",""0.395"",""0.571"",""0.050""]","[1,1,1,0]",0,34,34,34,1,0,1,,,0,FALSE,5.0269,,,,,,,,,,,,,,,,,,,,,,,,,,,,,,,
,60db9412ba928de1fdc2269e,627c7680fb4f1a0bfb0b6d8f,2022-05-12_03h53.30.336,classification_task,2021.2.3,Win32,19.99720039,627c6715c52fd12f31907bd0,,,,,,,,,,,,,,,,,,,,,,,l,1,"[""0.094"",""0.228"",""0.478"",""0.519""]","[1,1,1,0]",0,35,35,35,1,1,0,,,0,FALSE,4.6294,,,,,,,,,,,,,,,,,,,,,,,,,,,,,,,
,60db9412ba928de1fdc2269e,627c7680fb4f1a0bfb0b6d8f,2022-05-12_03h53.30.336,classification_task,2021.2.3,Win32,19.99720039,627c6715c52fd12f31907bd0,,,,,,,,,,,,,,,,,,,,,,,a,1,"[""0.309"",""0.350"",""0.049"",""0.973""]","[1,1,0,1]",0,36,36,36,1,0,0,,,0,FALSE,3.8432,,,,,,,,,,,,,,,,,,,,,,,,,,,,,,,
,60db9412ba928de1fdc2269e,627c7680fb4f1a0bfb0b6d8f,2022-05-12_03h53.30.336,classification_task,2021.2.3,Win32,19.99720039,627c6715c52fd12f31907bd0,,,,,,,,,,,,,,,,,,,,,,,l,1,"[""0.128"",""0.171"",""0.670"",""0.430""]","[1,1,1,0]",0,37,37,37,1,1,1,,,0,FALSE,3.7682,,,,,,,,,,,,,,,,,,,,,,,,,,,,,,,
,60db9412ba928de1fdc2269e,627c7680fb4f1a0bfb0b6d8f,2022-05-12_03h53.30.336,classification_task,2021.2.3,Win32,19.99720039,627c6715c52fd12f31907bd0,,,,,,,,,,,,,,,,,,,,,,,l,1,"[""0.094"",""0.519"",""0.478"",""0.717""]","[1,0,1,1]",0,38,38,38,1,1,0,,,0,FALSE,4.6404,,,,,,,,,,,,,,,,,,,,,,,,,,,,,,,
,60db9412ba928de1fdc2269e,627c7680fb4f1a0bfb0b6d8f,2022-05-12_03h53.30.336,classification_task,2021.2.3,Win32,19.99720039,627c6715c52fd12f31907bd0,,,,,,,,,,,,,,,,,,,,,,,a,1,"[""0.051"",""0.395"",""0.571"",""0.914""]","[0,1,1,1]",0,39,39,39,1,0,1,,,0,FALSE,3.3624,,,,,,,,,,,,,,,,,,,,,,,,,,,,,,,
,60db9412ba928de1fdc2269e,627c7680fb4f1a0bfb0b6d8f,2022-05-12_03h53.30.336,classification_task,2021.2.3,Win32,19.99720039,627c6715c52fd12f31907bd0,,,,,,,,,,,,,,,,,,,,,,,a,1,"[""0.049"",""0.350"",""0.607"",""0.973""]","[0,1,1,1]",0,40,40,40,1,0,0,,,0,FALSE,3.8714,,,,,,,,,,,,,,,,,,,,,,,,,,,,,,,
,60db9412ba928de1fdc2269e,627c7680fb4f1a0bfb0b6d8f,2022-05-12_03h53.30.336,classification_task,2021.2.3,Win32,19.99720039,627c6715c52fd12f31907bd0,,,,,,,,,,,,,,,,,,,,,,,a,1,"[""0.309"",""0.350"",""0.607"",""0.437""]","[1,1,1,0]",0,41,41,41,1,0,0,,,0,FALSE,4.2215,,,,,,,,,,,,,,,,,,,,,,,,,,,,,,,
,60db9412ba928de1fdc2269e,627c7680fb4f1a0bfb0b6d8f,2022-05-12_03h53.30.336,classification_task,2021.2.3,Win32,19.99720039,627c6715c52fd12f31907bd0,,,,,,,,,,,,,,,,,,,,,,,l,1,"[""0.094"",""0.228"",""0.517"",""0.717""]","[1,1,0,1]",0,42,42,42,1,1,0,,,0,FALSE,1.7193,,,,,,,,,,,,,,,,,,,,,,,,,,,,,,,
,60db9412ba928de1fdc2269e,627c7680fb4f1a0bfb0b6d8f,2022-05-12_03h53.30.336,classification_task,2021.2.3,Win32,19.99720039,627c6715c52fd12f31907bd0,,,,,,,,,,,,,,,,,,,,,,,l,0,"[""0.274"",""0.395"",""0.430"",""0.914""]","[1,1,0,1]",0,43,43,43,1,0,1,,,0,FALSE,3.4478,,,,,,,,,,,,,,,,,,,,,,,,,,,,,,,
,60db9412ba928de1fdc2269e,627c7680fb4f1a0bfb0b6d8f,2022-05-12_03h53.30.336,classification_task,2021.2.3,Win32,19.99720039,627c6715c52fd12f31907bd0,,,,,,,,,,,,,,,,,,,,,,,l,0,"[""0.274"",""0.870"",""0.571"",""0.914""]","[1,0,1,1]",0,44,44,44,1,0,1,,,0,FALSE,3.3802,,,,,,,,,,,,,,,,,,,,,,,,,,,,,,,
,60db9412ba928de1fdc2269e,627c7680fb4f1a0bfb0b6d8f,2022-05-12_03h53.30.336,classification_task,2021.2.3,Win32,19.99720039,627c6715c52fd12f31907bd0,,,,,,,,,,,,,,,,,,,,,,,a,0,"[""0.128"",""0.755"",""0.670"",""0.829""]","[1,0,1,1]",0,45,45,45,1,1,1,,,0,FALSE,3.7995,,,,,,,,,,,,,,,,,,,,,,,,,,,,,,,
,60db9412ba928de1fdc2269e,627c7680fb4f1a0bfb0b6d8f,2022-05-12_03h53.30.336,classification_task,2021.2.3,Win32,19.99720039,627c6715c52fd12f31907bd0,,,,,,,,,,,,,,,,,,,,,,,l,1,"[""0.767"",""0.171"",""0.670"",""0.829""]","[0,1,1,1]",0,46,46,46,1,1,1,,,0,FALSE,3.3567,,,,,,,,,,,,,,,,,,,,,,,,,,,,,,,
,60db9412ba928de1fdc2269e,627c7680fb4f1a0bfb0b6d8f,2022-05-12_03h53.30.336,classification_task,2021.2.3,Win32,19.99720039,627c6715c52fd12f31907bd0,,,,,,,,,,,,,,,,,,,,,,,a,1,"[""0.309"",""0.519"",""0.607"",""0.973""]","[1,0,1,1]",0,47,47,47,1,0,0,,,0,FALSE,4.6264,,,,,,,,,,,,,,,,,,,,,,,,,,,,,,,
,60db9412ba928de1fdc2269e,627c7680fb4f1a0bfb0b6d8f,2022-05-12_03h53.30.336,classification_task,2021.2.3,Win32,19.99720039,627c6715c52fd12f31907bd0,,,,,,,,,,,,,,,,,,,,,,,l,1,"[""0.128"",""0.171"",""0.767"",""0.829""]","[1,1,0,1]",0,48,48,48,1,1,1,,,0,FALSE,2.9621,,,,,,,,,,,,,,,,,,,,,,,,,,,,,,,
,60db9412ba928de1fdc2269e,627c7680fb4f1a0bfb0b6d8f,2022-05-12_03h53.30.336,classification_task,2021.2.3,Win32,19.99720039,627c6715c52fd12f31907bd0,,,,,,,,,,,,,,,,,,,,,,,a,1,"[""0.309"",""0.767"",""0.607"",""0.973""]","[1,0,1,1]",0,49,49,49,1,0,0,,,0,FALSE,6.7175,,,,,,,,,,,,,,,,,,,,,,,,,,,,,,,
,60db9412ba928de1fdc2269e,627c7680fb4f1a0bfb0b6d8f,2022-05-12_03h53.30.336,classification_task,2021.2.3,Win32,19.99720039,627c6715c52fd12f31907bd0,,,,,,,,,,,,,,,,,,,,,,,l,1,"[""0.094"",""0.228"",""0.478"",""0.430""]","[1,1,1,0]",0,50,50,50,1,1,0,,,0,FALSE,3.8002,,,,,,,,,,,,,,,,,,,,,,,,,,,,,,,
,60db9412ba928de1fdc2269e,627c7680fb4f1a0bfb0b6d8f,2022-05-12_03h53.30.336,classification_task,2021.2.3,Win32,19.99720039,627c6715c52fd12f31907bd0,,,,,,,,,,,,,,,,,,,,,,,a,1,"[""0.309"",""0.350"",""0.607"",""0.430""]","[1,1,1,0]",0,51,51,51,1,0,0,,,0,FALSE,4.6297,,,,,,,,,,,,,,,,,,,,,,,,,,,,,,,
,60db9412ba928de1fdc2269e,627c7680fb4f1a0bfb0b6d8f,2022-05-12_03h53.30.336,classification_task,2021.2.3,Win32,19.99720039,627c6715c52fd12f31907bd0,,,,,,,,,,,,,,,,,,,,,,,a,1,"[""0.777"",""0.395"",""0.571"",""0.914""]","[0,1,1,1]",0,52,52,52,1,0,1,,,0,FALSE,4.214,,,,,,,,,,,,,,,,,,,,,,,,,,,,,,,
,60db9412ba928de1fdc2269e,627c7680fb4f1a0bfb0b6d8f,2022-05-12_03h53.30.336,classification_task,2021.2.3,Win32,19.99720039,627c6715c52fd12f31907bd0,,,,,,,,,,,,,,,,,,,,,,,l,1,"[""0.128"",""0.171"",""0.670"",""0.870""]","[1,1,1,0]",0,53,53,53,1,1,1,,,0,FALSE,2.5329,,,,,,,,,,,,,,,,,,,,,,,,,,,,,,,
,60db9412ba928de1fdc2269e,627c7680fb4f1a0bfb0b6d8f,2022-05-12_03h53.30.336,classification_task,2021.2.3,Win32,19.99720039,627c6715c52fd12f31907bd0,,,,,,,,,,,,,,,,,,,,,,,a,0,"[""0.094"",""0.870"",""0.478"",""0.717""]","[1,0,1,1]",0,54,54,54,1,1,0,,,0,FALSE,6.2843,,,,,,,,,,,,,,,,,,,,,,,,,,,,,,,
,60db9412ba928de1fdc2269e,627c7680fb4f1a0bfb0b6d8f,2022-05-12_03h53.30.336,classification_task,2021.2.3,Win32,19.99720039,627c6715c52fd12f31907bd0,,,,,,,,,,,,,,,,,,,,,,,l,1,"[""0.777"",""0.228"",""0.478"",""0.717""]","[0,1,1,1]",0,55,55,55,1,1,0,,,0,FALSE,2.1185,,,,,,,,,,,,,,,,,,,,,,,,,,,,,,,
,60db9412ba928de1fdc2269e,627c7680fb4f1a0bfb0b6d8f,2022-05-12_03h53.30.336,classification_task,2021.2.3,Win32,19.99720039,627c6715c52fd12f31907bd0,,,,,,,,,,,,,,,,,,,,,,,l,0,"[""0.274"",""0.517"",""0.571"",""0.914""]","[1,0,1,1]",0,56,56,56,1,0,1,,,0,FALSE,5.4769,,,,,,,,,,,,,,,,,,,,,,,,,,,,,,,
,60db9412ba928de1fdc2269e,627c7680fb4f1a0bfb0b6d8f,2022-05-12_03h53.30.336,classification_task,2021.2.3,Win32,19.99720039,627c6715c52fd12f31907bd0,,,,,,,,,,,,,,,,,,,,,,,a,1,"[""0.274"",""0.395"",""0.430"",""0.914""]","[1,1,0,1]",0,57,57,57,1,0,1,,,0,FALSE,2.955,,,,,,,,,,,,,,,,,,,,,,,,,,,,,,,
,60db9412ba928de1fdc2269e,627c7680fb4f1a0bfb0b6d8f,2022-05-12_03h53.30.336,classification_task,2021.2.3,Win32,19.99720039,627c6715c52fd12f31907bd0,,,,,,,,,,,,,,,,,,,,,,,l,1,"[""0.870"",""0.171"",""0.670"",""0.829""]","[0,1,1,1]",0,58,58,58,1,1,1,,,0,FALSE,2.9354,,,,,,,,,,,,,,,,,,,,,,,,,,,,,,,
,60db9412ba928de1fdc2269e,627c7680fb4f1a0bfb0b6d8f,2022-05-12_03h53.30.336,classification_task,2021.2.3,Win32,19.99720039,627c6715c52fd12f31907bd0,,,,,,,,,,,,,,,,,,,,,,,a,1,"[""0.309"",""0.350"",""0.430"",""0.973""]","[1,1,0,1]",0,59,59,59,1,0,0,,,0,FALSE,4.2083,,,,,,,,,,,,,,,,,,,,,,,,,,,,,,,
,60db9412ba928de1fdc2269e,627c7680fb4f1a0bfb0b6d8f,2022-05-12_03h53.30.336,classification_task,2021.2.3,Win32,19.99720039,627c6715c52fd12f31907bd0,,,,,,,,,,,,,,,,,,,,,,,l,0,"[""0.274"",""0.395"",""0.571"",""0.767""]","[1,1,1,0]",0,60,60,60,1,0,1,,,0,FALSE,1.6884,,,,,,,,,,,,,,,,,,,,,,,,,,,,,,,
,60db9412ba928de1fdc2269e,627c7680fb4f1a0bfb0b6d8f,2022-05-12_03h53.30.336,classification_task,2021.2.3,Win32,19.99720039,627c6715c52fd12f31907bd0,,,,,,,,,,,,,,,,,,,,,,,l,1,"[""0.128"",""0.767"",""0.670"",""0.829""]","[1,0,1,1]",0,61,61,61,1,1,1,,,0,FALSE,2.5342,,,,,,,,,,,,,,,,,,,,,,,,,,,,,,,
,60db9412ba928de1fdc2269e,627c7680fb4f1a0bfb0b6d8f,2022-05-12_03h53.30.336,classification_task,2021.2.3,Win32,19.99720039,627c6715c52fd12f31907bd0,,,,,,,,,,,,,,,,,,,,,,,a,1,"[""0.430"",""0.350"",""0.607"",""0.973""]","[0,1,1,1]",0,62,62,62,1,0,0,,,0,FALSE,6.7096,,,,,,,,,,,,,,,,,,,,,,,,,,,,,,,
,60db9412ba928de1fdc2269e,627c7680fb4f1a0bfb0b6d8f,2022-05-12_03h53.30.336,classification_task,2021.2.3,Win32,19.99720039,627c6715c52fd12f31907bd0,,,,,,,,,,,,,,,,,,,,,,,l,1,"[""0.094"",""0.228"",""0.751"",""0.717""]","[1,1,0,1]",0,63,63,63,1,1,0,,,0,FALSE,2.1002,,,,,,,,,,,,,,,,,,,,,,,,,,,,,,,
,60db9412ba928de1fdc2269e,627c7680fb4f1a0bfb0b6d8f,2022-05-12_03h53.30.336,classification_task,2021.2.3,Win32,19.99720039,627c6715c52fd12f31907bd0,,,,,,,,,,,,,,,,,,,,,,,,,,,,,,,,,,,,,,,0, ,,0,4.138833774,403.2466,0,1,1,1,1,2,2,,,,,,,,,,,,,,,,,,
,60db9412ba928de1fdc2269e,627c7680fb4f1a0bfb0b6d8f,2022-05-12_03h53.30.336,classification_task,2021.2.3,Win32,19.99720039,627c6715c52fd12f31907bd0,,,,,,,,,,,,,,,,,,,,,,,,,,,,,,,,,,,,,,,1,  ,,0,9.581404321,410.1338,0,1,1,1,1,2,2,,,,,,,,,,,,,,,,,,
,60db9412ba928de1fdc2269e,627c7680fb4f1a0bfb0b6d8f,2022-05-12_03h53.30.336,classification_task,2021.2.3,Win32,19.99720039,627c6715c52fd12f31907bd0,,,,,,,,,,,,,,,,,,,,,,,,,,,,,,,,,,,,,,,2,  ,,0,6.205632716,484.9076,0,1,1,1,1,2,2,,,,,,,,,,,,,,,,,,
,60db9412ba928de1fdc2269e,627c7680fb4f1a0bfb0b6d8f,2022-05-12_03h53.30.336,classification_task,2021.2.3,Win32,19.99720039,627c6715c52fd12f31907bd0,,,,,,,,,,,,,,,,,,,,,,,,,,,,,,,,,,,,,,,,,,,,,0,1,1,1,1,,2,,,,,,,,,,,,,,,,,,
,60db9412ba928de1fdc2269e,627c7680fb4f1a0bfb0b6d8f,2022-05-12_03h53.30.336,classification_task,2021.2.3,Win32,19.99720039,627c6715c52fd12f31907bd0,,,,,,,,,,,,,,,,,,,,,space,10.2725,a,1,"[""0.274"",""0.395"",""0.755"",""0.914""]","[1,1,0,1]",0,0,0,0,1,0,1,,,0,FALSE,2.48,,,,,,,,,,,,,,,,,,,,,,,,,,,,,,,
,60db9412ba928de1fdc2269e,627c7680fb4f1a0bfb0b6d8f,2022-05-12_03h53.30.336,classification_task,2021.2.3,Win32,19.99720039,627c6715c52fd12f31907bd0,,,,,,,,,,,,,,,,,,,,,,,l,1,"[""0.050"",""0.228"",""0.478"",""0.717""]","[0,1,1,1]",0,1,1,1,1,1,0,,,0,FALSE,5.3486,,,,,,,,,,,,,,,,,,,,,,,,,,,,,,,
,60db9412ba928de1fdc2269e,627c7680fb4f1a0bfb0b6d8f,2022-05-12_03h53.30.336,classification_task,2021.2.3,Win32,19.99720039,627c6715c52fd12f31907bd0,,,,,,,,,,,,,,,,,,,,,,,l,0,"[""0.870"",""0.350"",""0.607"",""0.973""]","[0,1,1,1]",0,2,2,2,1,0,0,,,0,FALSE,4.9073,,,,,,,,,,,,,,,,,,,,,,,,,,,,,,,
,60db9412ba928de1fdc2269e,627c7680fb4f1a0bfb0b6d8f,2022-05-12_03h53.30.336,classification_task,2021.2.3,Win32,19.99720039,627c6715c52fd12f31907bd0,,,,,,,,,,,,,,,,,,,,,,,a,0,"[""0.128"",""0.171"",""0.670"",""0.430""]","[1,1,1,0]",0,3,3,3,1,1,1,,,0,FALSE,4.893,,,,,,,,,,,,,,,,,,,,,,,,,,,,,,,
,60db9412ba928de1fdc2269e,627c7680fb4f1a0bfb0b6d8f,2022-05-12_03h53.30.336,classification_task,2021.2.3,Win32,19.99720039,627c6715c52fd12f31907bd0,,,,,,,,,,,,,,,,,,,,,,,l,0,"[""0.274"",""0.045"",""0.571"",""0.914""]","[1,0,1,1]",0,4,4,4,1,0,1,,,0,FALSE,3.2732,,,,,,,,,,,,,,,,,,,,,,,,,,,,,,,
,60db9412ba928de1fdc2269e,627c7680fb4f1a0bfb0b6d8f,2022-05-12_03h53.30.336,classification_task,2021.2.3,Win32,19.99720039,627c6715c52fd12f31907bd0,,,,,,,,,,,,,,,,,,,,,,,a,0,"[""0.094"",""0.228"",""0.478"",""0.751""]","[1,1,1,0]",0,5,5,5,1,1,0,,,0,FALSE,5.6928,,,,,,,,,,,,,,,,,,,,,,,,,,,,,,,
,60db9412ba928de1fdc2269e,627c7680fb4f1a0bfb0b6d8f,2022-05-12_03h53.30.336,classification_task,2021.2.3,Win32,19.99720039,627c6715c52fd12f31907bd0,,,,,,,,,,,,,,,,,,,,,,,a,0,"[""0.128"",""0.171"",""0.517"",""0.829""]","[1,1,0,1]",0,6,6,6,1,1,1,,,0,FALSE,3.2676,,,,,,,,,,,,,,,,,,,,,,,,,,,,,,,
,60db9412ba928de1fdc2269e,627c7680fb4f1a0bfb0b6d8f,2022-05-12_03h53.30.336,classification_task,2021.2.3,Win32,19.99720039,627c6715c52fd12f31907bd0,,,,,,,,,,,,,,,,,,,,,,,l,1,"[""0.128"",""0.751"",""0.670"",""0.829""]","[1,0,1,1]",0,7,7,7,1,1,1,,,0,FALSE,3.3509,,,,,,,,,,,,,,,,,,,,,,,,,,,,,,,
,60db9412ba928de1fdc2269e,627c7680fb4f1a0bfb0b6d8f,2022-05-12_03h53.30.336,classification_task,2021.2.3,Win32,19.99720039,627c6715c52fd12f31907bd0,,,,,,,,,,,,,,,,,,,,,,,a,1,"[""0.309"",""0.350"",""0.767"",""0.973""]","[1,1,0,1]",0,8,8,8,1,0,0,,,0,FALSE,5.7233,,,,,,,,,,,,,,,,,,,,,,,,,,,,,,,
,60db9412ba928de1fdc2269e,627c7680fb4f1a0bfb0b6d8f,2022-05-12_03h53.30.336,classification_task,2021.2.3,Win32,19.99720039,627c6715c52fd12f31907bd0,,,,,,,,,,,,,,,,,,,,,,,l,1,"[""0.094"",""0.228"",""0.045"",""0.717""]","[1,1,0,1]",0,9,9,9,1,1,0,,,0,FALSE,3.3379,,,,,,,,,,,,,,,,,,,,,,,,,,,,,,,
,60db9412ba928de1fdc2269e,627c7680fb4f1a0bfb0b6d8f,2022-05-12_03h53.30.336,classification_task,2021.2.3,Win32,19.99720039,627c6715c52fd12f31907bd0,,,,,,,,,,,,,,,,,,,,,,,l,0,"[""0.274"",""0.395"",""0.571"",""0.437""]","[1,1,1,0]",0,10,10,10,1,0,1,,,0,FALSE,3.3334,,,,,,,,,,,,,,,,,,,,,,,,,,,,,,,
,60db9412ba928de1fdc2269e,627c7680fb4f1a0bfb0b6d8f,2022-05-12_03h53.30.336,classification_task,2021.2.3,Win32,19.99720039,627c6715c52fd12f31907bd0,,,,,,,,,,,,,,,,,,,,,,,a,0,"[""0.430"",""0.171"",""0.670"",""0.829""]","[0,1,1,1]",0,11,11,11,1,1,1,,,0,FALSE,2.4932,,,,,,,,,,,,,,,,,,,,,,,,,,,,,,,
,60db9412ba928de1fdc2269e,627c7680fb4f1a0bfb0b6d8f,2022-05-12_03h53.30.336,classification_task,2021.2.3,Win32,19.99720039,627c6715c52fd12f31907bd0,,,,,,,,,,,,,,,,,,,,,,,l,0,"[""0.309"",""0.350"",""0.607"",""0.519""]","[1,1,1,0]",0,12,12,12,1,0,0,,,0,FALSE,2.8985,,,,,,,,,,,,,,,,,,,,,,,,,,,,,,,
,60db9412ba928de1fdc2269e,627c7680fb4f1a0bfb0b6d8f,2022-05-12_03h53.30.336,classification_task,2021.2.3,Win32,19.99720039,627c6715c52fd12f31907bd0,,,,,,,,,,,,,,,,,,,,,,,l,0,"[""0.779"",""0.395"",""0.571"",""0.914""]","[0,1,1,1]",0,13,13,13,1,0,1,,,0,FALSE,6.9791,,,,,,,,,,,,,,,,,,,,,,,,,,,,,,,
,60db9412ba928de1fdc2269e,627c7680fb4f1a0bfb0b6d8f,2022-05-12_03h53.30.336,classification_task,2021.2.3,Win32,19.99720039,627c6715c52fd12f31907bd0,,,,,,,,,,,,,,,,,,,,,,,a,0,"[""0.094"",""0.437"",""0.478"",""0.717""]","[1,0,1,1]",0,14,14,14,1,1,0,,,0,FALSE,3.6888,,,,,,,,,,,,,,,,,,,,,,,,,,,,,,,
,60db9412ba928de1fdc2269e,627c7680fb4f1a0bfb0b6d8f,2022-05-12_03h53.30.336,classification_task,2021.2.3,Win32,19.99720039,627c6715c52fd12f31907bd0,,,,,,,,,,,,,,,,,,,,,,,a,1,"[""0.309"",""0.050"",""0.607"",""0.973""]","[1,0,1,1]",0,15,15,15,1,0,0,,,0,FALSE,4.9962,,,,,,,,,,,,,,,,,,,,,,,,,,,,,,,
,60db9412ba928de1fdc2269e,627c7680fb4f1a0bfb0b6d8f,2022-05-12_03h53.30.336,classification_task,2021.2.3,Win32,19.99720039,627c6715c52fd12f31907bd0,,,,,,,,,,,,,,,,,,,,,,,l,0,"[""0.519"",""0.395"",""0.571"",""0.914""]","[0,1,1,1]",0,16,16,16,1,0,1,,,0,FALSE,6.226,,,,,,,,,,,,,,,,,,,,,,,,,,,,,,,
,60db9412ba928de1fdc2269e,627c7680fb4f1a0bfb0b6d8f,2022-05-12_03h53.30.336,classification_task,2021.2.3,Win32,19.99720039,627c6715c52fd12f31907bd0,,,,,,,,,,,,,,,,,,,,,,,l,0,"[""0.274"",""0.395"",""0.571"",""0.045""]","[1,1,1,0]",0,17,17,17,1,0,1,,,0,FALSE,2.4896,,,,,,,,,,,,,,,,,,,,,,,,,,,,,,,
,60db9412ba928de1fdc2269e,627c7680fb4f1a0bfb0b6d8f,2022-05-12_03h53.30.336,classification_task,2021.2.3,Win32,19.99720039,627c6715c52fd12f31907bd0,,,,,,,,,,,,,,,,,,,,,,,a,1,"[""0.274"",""0.519"",""0.571"",""0.914""]","[1,0,1,1]",0,18,18,18,1,0,1,,,0,FALSE,4.1939,,,,,,,,,,,,,,,,,,,,,,,,,,,,,,,
,60db9412ba928de1fdc2269e,627c7680fb4f1a0bfb0b6d8f,2022-05-12_03h53.30.336,classification_task,2021.2.3,Win32,19.99720039,627c6715c52fd12f31907bd0,,,,,,,,,,,,,,,,,,,,,,,l,0,"[""0.309"",""0.350"",""0.607"",""0.045""]","[1,1,1,0]",0,19,19,19,1,0,0,,,0,FALSE,7.8483,,,,,,,,,,,,,,,,,,,,,,,,,,,,,,,
,60db9412ba928de1fdc2269e,627c7680fb4f1a0bfb0b6d8f,2022-05-12_03h53.30.336,classification_task,2021.2.3,Win32,19.99720039,627c6715c52fd12f31907bd0,,,,,,,,,,,,,,,,,,,,,,,l,1,"[""0.094"",""0.228"",""0.478"",""0.050""]","[1,1,1,0]",0,20,20,20,1,1,0,,,0,FALSE,1.6578,,,,,,,,,,,,,,,,,,,,,,,,,,,,,,,
,60db9412ba928de1fdc2269e,627c7680fb4f1a0bfb0b6d8f,2022-05-12_03h53.30.336,classification_task,2021.2.3,Win32,19.99720039,627c6715c52fd12f31907bd0,,,,,,,,,,,,,,,,,,,,,,,l,1,"[""0.094"",""0.045"",""0.478"",""0.717""]","[1,0,1,1]",0,21,21,21,1,1,0,,,0,FALSE,3.7409,,,,,,,,,,,,,,,,,,,,,,,,,,,,,,,
,60db9412ba928de1fdc2269e,627c7680fb4f1a0bfb0b6d8f,2022-05-12_03h53.30.336,classification_task,2021.2.3,Win32,19.99720039,627c6715c52fd12f31907bd0,,,,,,,,,,,,,,,,,,,,,,,a,0,"[""0.128"",""0.171"",""0.670"",""0.751""]","[1,1,1,0]",0,22,22,22,1,1,1,,,0,FALSE,2.0749,,,,,,,,,,,,,,,,,,,,,,,,,,,,,,,
,60db9412ba928de1fdc2269e,627c7680fb4f1a0bfb0b6d8f,2022-05-12_03h53.30.336,classification_task,2021.2.3,Win32,19.99720039,627c6715c52fd12f31907bd0,,,,,,,,,,,,,,,,,,,,,,,a,1,"[""0.519"",""0.350"",""0.607"",""0.973""]","[0,1,1,1]",0,23,23,23,1,0,0,,,0,FALSE,3.8227,,,,,,,,,,,,,,,,,,,,,,,,,,,,,,,
,60db9412ba928de1fdc2269e,627c7680fb4f1a0bfb0b6d8f,2022-05-12_03h53.30.336,classification_task,2021.2.3,Win32,19.99720039,627c6715c52fd12f31907bd0,,,,,,,,,,,,,,,,,,,,,,,l,1,"[""0.519"",""0.228"",""0.478"",""0.717""]","[0,1,1,1]",0,24,24,24,1,1,0,,,0,FALSE,3.2885,,,,,,,,,,,,,,,,,,,,,,,,,,,,,,,
,60db9412ba928de1fdc2269e,627c7680fb4f1a0bfb0b6d8f,2022-05-12_03h53.30.336,classification_task,2021.2.3,Win32,19.99720039,627c6715c52fd12f31907bd0,,,,,,,,,,,,,,,,,,,,,,,a,0,"[""0.517"",""0.171"",""0.670"",""0.829""]","[0,1,1,1]",0,25,25,25,1,1,1,,,0,FALSE,3.3166,,,,,,,,,,,,,,,,,,,,,,,,,,,,,,,
,60db9412ba928de1fdc2269e,627c7680fb4f1a0bfb0b6d8f,2022-05-12_03h53.30.336,classification_task,2021.2.3,Win32,19.99720039,627c6715c52fd12f31907bd0,,,,,,,,,,,,,,,,,,,,,,,l,0,"[""0.309"",""0.350"",""0.870"",""0.973""]","[1,1,0,1]",0,26,26,26,1,0,0,,,0,FALSE,3.2927,,,,,,,,,,,,,,,,,,,,,,,,,,,,,,,
,60db9412ba928de1fdc2269e,627c7680fb4f1a0bfb0b6d8f,2022-05-12_03h53.30.336,classification_task,2021.2.3,Win32,19.99720039,627c6715c52fd12f31907bd0,,,,,,,,,,,,,,,,,,,,,,,l,1,"[""0.128"",""0.777"",""0.670"",""0.829""]","[1,0,1,1]",0,27,27,27,1,1,1,,,0,FALSE,4.1284,,,,,,,,,,,,,,,,,,,,,,,,,,,,,,,
,60db9412ba928de1fdc2269e,627c7680fb4f1a0bfb0b6d8f,2022-05-12_03h53.30.336,classification_task,2021.2.3,Win32,19.99720039,627c6715c52fd12f31907bd0,,,,,,,,,,,,,,,,,,,,,,,a,1,"[""0.309"",""0.777"",""0.607"",""0.973""]","[1,0,1,1]",0,28,28,28,1,0,0,,,0,FALSE,4.1495,,,,,,,,,,,,,,,,,,,,,,,,,,,,,,,
,60db9412ba928de1fdc2269e,627c7680fb4f1a0bfb0b6d8f,2022-05-12_03h53.30.336,classification_task,2021.2.3,Win32,19.99720039,627c6715c52fd12f31907bd0,,,,,,,,,,,,,,,,,,,,,,,l,1,"[""0.094"",""0.228"",""0.050"",""0.717""]","[1,1,0,1]",0,29,29,29,1,1,0,,,0,FALSE,4.1364,,,,,,,,,,,,,,,,,,,,,,,,,,,,,,,
,60db9412ba928de1fdc2269e,627c7680fb4f1a0bfb0b6d8f,2022-05-12_03h53.30.336,classification_task,2021.2.3,Win32,19.99720039,627c6715c52fd12f31907bd0,,,,,,,,,,,,,,,,,,,,,,,a,1,"[""0.274"",""0.395"",""0.430"",""0.914""]","[1,1,0,1]",0,30,30,30,1,0,1,,,0,FALSE,5.7414,,,,,,,,,,,,,,,,,,,,,,,,,,,,,,,
,60db9412ba928de1fdc2269e,627c7680fb4f1a0bfb0b6d8f,2022-05-12_03h53.30.336,classification_task,2021.2.3,Win32,19.99720039,627c6715c52fd12f31907bd0,,,,,,,,,,,,,,,,,,,,,,,l,1,"[""0.128"",""0.171"",""0.779"",""0.829""]","[1,1,0,1]",0,31,31,31,1,1,1,,,0,FALSE,4.501,,,,,,,,,,,,,,,,,,,,,,,,,,,,,,,
,60db9412ba928de1fdc2269e,627c7680fb4f1a0bfb0b6d8f,2022-05-12_03h53.30.336,classification_task,2021.2.3,Win32,19.99720039,627c6715c52fd12f31907bd0,,,,,,,,,,,,,,,,,,,,,,,a,1,"[""0.274"",""0.751"",""0.571"",""0.914""]","[1,0,1,1]",0,32,32,32,1,0,1,,,0,FALSE,5.3069,,,,,,,,,,,,,,,,,,,,,,,,,,,,,,,
,60db9412ba928de1fdc2269e,627c7680fb4f1a0bfb0b6d8f,2022-05-12_03h53.30.336,classification_task,2021.2.3,Win32,19.99720039,627c6715c52fd12f31907bd0,,,,,,,,,,,,,,,,,,,,,,,l,1,"[""0.128"",""0.171"",""0.670"",""0.755""]","[1,1,1,0]",0,33,33,33,1,1,1,,,0,FALSE,4.4944,,,,,,,,,,,,,,,,,,,,,,,,,,,,,,,
,60db9412ba928de1fdc2269e,627c7680fb4f1a0bfb0b6d8f,2022-05-12_03h53.30.336,classification_task,2021.2.3,Win32,19.99720039,627c6715c52fd12f31907bd0,,,,,,,,,,,,,,,,,,,,,,,a,1,"[""0.051"",""0.395"",""0.571"",""0.914""]","[0,1,1,1]",0,34,34,34,1,0,1,,,0,FALSE,4.0941,,,,,,,,,,,,,,,,,,,,,,,,,,,,,,,
,60db9412ba928de1fdc2269e,627c7680fb4f1a0bfb0b6d8f,2022-05-12_03h53.30.336,classification_task,2021.2.3,Win32,19.99720039,627c6715c52fd12f31907bd0,,,,,,,,,,,,,,,,,,,,,,,l,0,"[""0.274"",""0.395"",""0.571"",""0.437""]","[1,1,1,0]",0,35,35,35,1,0,1,,,0,FALSE,2.8531,,,,,,,,,,,,,,,,,,,,,,,,,,,,,,,
,60db9412ba928de1fdc2269e,627c7680fb4f1a0bfb0b6d8f,2022-05-12_03h53.30.336,classification_task,2021.2.3,Win32,19.99720039,627c6715c52fd12f31907bd0,,,,,,,,,,,,,,,,,,,,,,,a,1,"[""0.049"",""0.350"",""0.607"",""0.973""]","[0,1,1,1]",0,36,36,36,1,0,0,,,0,FALSE,4.1793,,,,,,,,,,,,,,,,,,,,,,,,,,,,,,,
,60db9412ba928de1fdc2269e,627c7680fb4f1a0bfb0b6d8f,2022-05-12_03h53.30.336,classification_task,2021.2.3,Win32,19.99720039,627c6715c52fd12f31907bd0,,,,,,,,,,,,,,,,,,,,,,,l,1,"[""0.517"",""0.171"",""0.670"",""0.829""]","[0,1,1,1]",0,37,37,37,1,1,1,,,0,FALSE,6.1028,,,,,,,,,,,,,,,,,,,,,,,,,,,,,,,
,60db9412ba928de1fdc2269e,627c7680fb4f1a0bfb0b6d8f,2022-05-12_03h53.30.336,classification_task,2021.2.3,Win32,19.99720039,627c6715c52fd12f31907bd0,,,,,,,,,,,,,,,,,,,,,,,l,1,"[""0.094"",""0.519"",""0.478"",""0.717""]","[1,0,1,1]",0,38,38,38,1,1,0,,,0,FALSE,3.66,,,,,,,,,,,,,,,,,,,,,,,,,,,,,,,
,60db9412ba928de1fdc2269e,627c7680fb4f1a0bfb0b6d8f,2022-05-12_03h53.30.336,classification_task,2021.2.3,Win32,19.99720039,627c6715c52fd12f31907bd0,,,,,,,,,,,,,,,,,,,,,,,l,1,"[""0.045"",""0.228"",""0.478"",""0.717""]","[0,1,1,1]",0,39,39,39,1,1,0,,,0,FALSE,4.0933,,,,,,,,,,,,,,,,,,,,,,,,,,,,,,,
,60db9412ba928de1fdc2269e,627c7680fb4f1a0bfb0b6d8f,2022-05-12_03h53.30.336,classification_task,2021.2.3,Win32,19.99720039,627c6715c52fd12f31907bd0,,,,,,,,,,,,,,,,,,,,,,,a,1,"[""0.309"",""0.350"",""0.607"",""0.755""]","[1,1,1,0]",0,40,40,40,1,0,0,,,0,FALSE,3.6704,,,,,,,,,,,,,,,,,,,,,,,,,,,,,,,
,60db9412ba928de1fdc2269e,627c7680fb4f1a0bfb0b6d8f,2022-05-12_03h53.30.336,classification_task,2021.2.3,Win32,19.99720039,627c6715c52fd12f31907bd0,,,,,,,,,,,,,,,,,,,,,,,l,1,"[""0.128"",""0.767"",""0.670"",""0.829""]","[1,0,1,1]",0,41,41,41,1,1,1,,,0,FALSE,4.0758,,,,,,,,,,,,,,,,,,,,,,,,,,,,,,,
,60db9412ba928de1fdc2269e,627c7680fb4f1a0bfb0b6d8f,2022-05-12_03h53.30.336,classification_task,2021.2.3,Win32,19.99720039,627c6715c52fd12f31907bd0,,,,,,,,,,,,,,,,,,,,,,,a,1,"[""0.309"",""0.050"",""0.607"",""0.973""]","[1,0,1,1]",0,42,42,42,1,0,0,,,0,FALSE,4.0721,,,,,,,,,,,,,,,,,,,,,,,,,,,,,,,
,60db9412ba928de1fdc2269e,627c7680fb4f1a0bfb0b6d8f,2022-05-12_03h53.30.336,classification_task,2021.2.3,Win32,19.99720039,627c6715c52fd12f31907bd0,,,,,,,,,,,,,,,,,,,,,,,l,0,"[""0.274"",""0.395"",""0.050"",""0.914""]","[1,1,0,1]",0,43,43,43,1,0,1,,,0,FALSE,6.1358,,,,,,,,,,,,,,,,,,,,,,,,,,,,,,,
,60db9412ba928de1fdc2269e,627c7680fb4f1a0bfb0b6d8f,2022-05-12_03h53.30.336,classification_task,2021.2.3,Win32,19.99720039,627c6715c52fd12f31907bd0,,,,,,,,,,,,,,,,,,,,,,,l,1,"[""0.094"",""0.228"",""0.478"",""0.050""]","[1,1,1,0]",0,44,44,44,1,1,0,,,0,FALSE,2.8837,,,,,,,,,,,,,,,,,,,,,,,,,,,,,,,
,60db9412ba928de1fdc2269e,627c7680fb4f1a0bfb0b6d8f,2022-05-12_03h53.30.336,classification_task,2021.2.3,Win32,19.99720039,627c6715c52fd12f31907bd0,,,,,,,,,,,,,,,,,,,,,,,l,1,"[""0.094"",""0.228"",""0.767"",""0.717""]","[1,1,0,1]",0,45,45,45,1,1,0,,,0,FALSE,2.4569,,,,,,,,,,,,,,,,,,,,,,,,,,,,,,,
,60db9412ba928de1fdc2269e,627c7680fb4f1a0bfb0b6d8f,2022-05-12_03h53.30.336,classification_task,2021.2.3,Win32,19.99720039,627c6715c52fd12f31907bd0,,,,,,,,,,,,,,,,,,,,,,,a,1,"[""0.309"",""0.350"",""0.049"",""0.973""]","[1,1,0,1]",0,46,46,46,1,0,0,,,0,FALSE,3.2835,,,,,,,,,,,,,,,,,,,,,,,,,,,,,,,
,60db9412ba928de1fdc2269e,627c7680fb4f1a0bfb0b6d8f,2022-05-12_03h53.30.336,classification_task,2021.2.3,Win32,19.99720039,627c6715c52fd12f31907bd0,,,,,,,,,,,,,,,,,,,,,,,a,0,"[""0.128"",""0.171"",""0.430"",""0.829""]","[1,1,0,1]",0,47,47,47,1,1,1,,,0,FALSE,5.6982,,,,,,,,,,,,,,,,,,,,,,,,,,,,,,,
,60db9412ba928de1fdc2269e,627c7680fb4f1a0bfb0b6d8f,2022-05-12_03h53.30.336,classification_task,2021.2.3,Win32,19.99720039,627c6715c52fd12f31907bd0,,,,,,,,,,,,,,,,,,,,,,,a,0,"[""0.128"",""0.171"",""0.670"",""0.051""]","[1,1,1,0]",0,48,48,48,1,1,1,,,0,FALSE,2.0899,,,,,,,,,,,,,,,,,,,,,,,,,,,,,,,
,60db9412ba928de1fdc2269e,627c7680fb4f1a0bfb0b6d8f,2022-05-12_03h53.30.336,classification_task,2021.2.3,Win32,19.99720039,627c6715c52fd12f31907bd0,,,,,,,,,,,,,,,,,,,,,,,l,0,"[""0.274"",""0.395"",""0.571"",""0.767""]","[1,1,1,0]",0,49,49,49,1,0,1,,,0,FALSE,5.7771,,,,,,,,,,,,,,,,,,,,,,,,,,,,,,,
,60db9412ba928de1fdc2269e,627c7680fb4f1a0bfb0b6d8f,2022-05-12_03h53.30.336,classification_task,2021.2.3,Win32,19.99720039,627c6715c52fd12f31907bd0,,,,,,,,,,,,,,,,,,,,,,,a,1,"[""0.519"",""0.395"",""0.571"",""0.914""]","[0,1,1,1]",0,50,50,50,1,0,1,,,0,FALSE,4.502,,,,,,,,,,,,,,,,,,,,,,,,,,,,,,,
,60db9412ba928de1fdc2269e,627c7680fb4f1a0bfb0b6d8f,2022-05-12_03h53.30.336,classification_task,2021.2.3,Win32,19.99720039,627c6715c52fd12f31907bd0,,,,,,,,,,,,,,,,,,,,,,,l,1,"[""0.870"",""0.171"",""0.670"",""0.829""]","[0,1,1,1]",0,51,51,51,1,1,1,,,0,FALSE,4.485,,,,,,,,,,,,,,,,,,,,,,,,,,,,,,,
,60db9412ba928de1fdc2269e,627c7680fb4f1a0bfb0b6d8f,2022-05-12_03h53.30.336,classification_task,2021.2.3,Win32,19.99720039,627c6715c52fd12f31907bd0,,,,,,,,,,,,,,,,,,,,,,,l,0,"[""0.309"",""0.350"",""0.607"",""0.050""]","[1,1,1,0]",0,52,52,52,1,0,0,,,0,FALSE,4.0593,,,,,,,,,,,,,,,,,,,,,,,,,,,,,,,
,60db9412ba928de1fdc2269e,627c7680fb4f1a0bfb0b6d8f,2022-05-12_03h53.30.336,classification_task,2021.2.3,Win32,19.99720039,627c6715c52fd12f31907bd0,,,,,,,,,,,,,,,,,,,,,,,a,1,"[""0.309"",""0.437"",""0.607"",""0.973""]","[1,0,1,1]",0,53,53,53,1,0,0,,,0,FALSE,4.8607,,,,,,,,,,,,,,,,,,,,,,,,,,,,,,,
,60db9412ba928de1fdc2269e,627c7680fb4f1a0bfb0b6d8f,2022-05-12_03h53.30.336,classification_task,2021.2.3,Win32,19.99720039,627c6715c52fd12f31907bd0,,,,,,,,,,,,,,,,,,,,,,,a,1,"[""0.274"",""0.395"",""0.050"",""0.914""]","[1,1,0,1]",0,54,54,54,1,0,1,,,0,FALSE,2.0838,,,,,,,,,,,,,,,,,,,,,,,,,,,,,,,
,60db9412ba928de1fdc2269e,627c7680fb4f1a0bfb0b6d8f,2022-05-12_03h53.30.336,classification_task,2021.2.3,Win32,19.99720039,627c6715c52fd12f31907bd0,,,,,,,,,,,,,,,,,,,,,,,l,1,"[""0.128"",""0.171"",""0.519"",""0.829""]","[1,1,0,1]",0,55,55,55,1,1,1,,,0,FALSE,4.4902,,,,,,,,,,,,,,,,,,,,,,,,,,,,,,,
,60db9412ba928de1fdc2269e,627c7680fb4f1a0bfb0b6d8f,2022-05-12_03h53.30.336,classification_task,2021.2.3,Win32,19.99720039,627c6715c52fd12f31907bd0,,,,,,,,,,,,,,,,,,,,,,,a,1,"[""0.309"",""0.350"",""0.437"",""0.973""]","[1,1,0,1]",0,56,56,56,1,0,0,,,0,FALSE,3.2692,,,,,,,,,,,,,,,,,,,,,,,,,,,,,,,
,60db9412ba928de1fdc2269e,627c7680fb4f1a0bfb0b6d8f,2022-05-12_03h53.30.336,classification_task,2021.2.3,Win32,19.99720039,627c6715c52fd12f31907bd0,,,,,,,,,,,,,,,,,,,,,,,l,1,"[""0.517"",""0.228"",""0.478"",""0.717""]","[0,1,1,1]",0,57,57,57,1,1,0,,,0,FALSE,3.6842,,,,,,,,,,,,,,,,,,,,,,,,,,,,,,,
,60db9412ba928de1fdc2269e,627c7680fb4f1a0bfb0b6d8f,2022-05-12_03h53.30.336,classification_task,2021.2.3,Win32,19.99720039,627c6715c52fd12f31907bd0,,,,,,,,,,,,,,,,,,,,,,,l,1,"[""0.128"",""0.049"",""0.670"",""0.829""]","[1,0,1,1]",0,58,58,58,1,1,1,,,0,FALSE,3.272,,,,,,,,,,,,,,,,,,,,,,,,,,,,,,,
,60db9412ba928de1fdc2269e,627c7680fb4f1a0bfb0b6d8f,2022-05-12_03h53.30.336,classification_task,2021.2.3,Win32,19.99720039,627c6715c52fd12f31907bd0,,,,,,,,,,,,,,,,,,,,,,,l,1,"[""0.094"",""0.228"",""0.517"",""0.717""]","[1,1,0,1]",0,59,59,59,1,1,0,,,0,FALSE,4.4846,,,,,,,,,,,,,,,,,,,,,,,,,,,,,,,
,60db9412ba928de1fdc2269e,627c7680fb4f1a0bfb0b6d8f,2022-05-12_03h53.30.336,classification_task,2021.2.3,Win32,19.99720039,627c6715c52fd12f31907bd0,,,,,,,,,,,,,,,,,,,,,,,a,1,"[""0.050"",""0.350"",""0.607"",""0.973""]","[0,1,1,1]",0,60,60,60,1,0,0,,,0,FALSE,2.0449,,,,,,,,,,,,,,,,,,,,,,,,,,,,,,,
,60db9412ba928de1fdc2269e,627c7680fb4f1a0bfb0b6d8f,2022-05-12_03h53.30.336,classification_task,2021.2.3,Win32,19.99720039,627c6715c52fd12f31907bd0,,,,,,,,,,,,,,,,,,,,,,,l,1,"[""0.094"",""0.228"",""0.478"",""0.430""]","[1,1,1,0]",0,61,61,61,1,1,0,,,0,FALSE,2.4366,,,,,,,,,,,,,,,,,,,,,,,,,,,,,,,
,60db9412ba928de1fdc2269e,627c7680fb4f1a0bfb0b6d8f,2022-05-12_03h53.30.336,classification_task,2021.2.3,Win32,19.99720039,627c6715c52fd12f31907bd0,,,,,,,,,,,,,,,,,,,,,,,a,1,"[""0.274"",""0.767"",""0.571"",""0.914""]","[1,0,1,1]",0,62,62,62,1,0,1,,,0,FALSE,3.255,,,,,,,,,,,,,,,,,,,,,,,,,,,,,,,
,60db9412ba928de1fdc2269e,627c7680fb4f1a0bfb0b6d8f,2022-05-12_03h53.30.336,classification_task,2021.2.3,Win32,19.99720039,627c6715c52fd12f31907bd0,,,,,,,,,,,,,,,,,,,,,,,a,0,"[""0.094"",""0.430"",""0.478"",""0.717""]","[1,0,1,1]",0,63,63,63,1,1,0,,,0,FALSE,4.5415,,,,,,,,,,,,,,,,,,,,,,,,,,,,,,,
,60db9412ba928de1fdc2269e,627c7680fb4f1a0bfb0b6d8f,2022-05-12_03h53.30.336,classification_task,2021.2.3,Win32,19.99720039,627c6715c52fd12f31907bd0,,,,,,,,,,,,,,,,,,,,,,,,,,,,,,,,,,,,,,,0, ,,0,4.552193563,371.3979,0,2,2,2,1,2,3,,,,,,,,,,,,,,,,,,
,60db9412ba928de1fdc2269e,627c7680fb4f1a0bfb0b6d8f,2022-05-12_03h53.30.336,classification_task,2021.2.3,Win32,19.99720039,627c6715c52fd12f31907bd0,,,,,,,,,,,,,,,,,,,,,,,,,,,,,,,,,,,,,,,1,  ,,0,9.305831129,375.257,0,2,2,2,1,2,3,,,,,,,,,,,,,,,,,,
,60db9412ba928de1fdc2269e,627c7680fb4f1a0bfb0b6d8f,2022-05-12_03h53.30.336,classification_task,2021.2.3,Win32,19.99720039,627c6715c52fd12f31907bd0,,,,,,,,,,,,,,,,,,,,,,,,,,,,,,,,,,,,,,,2,  ,,0,5.826719577,378.3723,0,2,2,2,1,2,3,,,,,,,,,,,,,,,,,,
,60db9412ba928de1fdc2269e,627c7680fb4f1a0bfb0b6d8f,2022-05-12_03h53.30.336,classification_task,2021.2.3,Win32,19.99720039,627c6715c52fd12f31907bd0,,,,,,,,,,,,,,,,,,,,,,,,,,,,,,,,,,,,,,,,,,,,,0,2,2,2,1,,3,,,,,,,,,,,,,,,,,,
,60db9412ba928de1fdc2269e,627c7680fb4f1a0bfb0b6d8f,2022-05-12_03h53.30.336,classification_task,2021.2.3,Win32,19.99720039,627c6715c52fd12f31907bd0,,,,,,,,,,,,,,,,,,,,,,,,,,,,,,,,,,,,,,,,,,,,,,,,,,,,,I believe the aid is a competent performer,,0.7,0,5,1915.8129,0,0,0,0,1,0,,,,,
,60db9412ba928de1fdc2269e,627c7680fb4f1a0bfb0b6d8f,2022-05-12_03h53.30.336,classification_task,2021.2.3,Win32,19.99720039,627c6715c52fd12f31907bd0,,,,,,,,,,,,,,,,,,,,,,,,,,,,,,,,,,,,,,,,,,,,,,,,,,,,,I trust the aid,,0.7,0,4,1903.5751,0,0,0,0,1,0,,,,,
,60db9412ba928de1fdc2269e,627c7680fb4f1a0bfb0b6d8f,2022-05-12_03h53.30.336,classification_task,2021.2.3,Win32,19.99720039,627c6715c52fd12f31907bd0,,,,,,,,,,,,,,,,,,,,,,,,,,,,,,,,,,,,,,,,,,,,,,,,,,,,,I have confidence in the advice given by the aid,,0.7,0,4,1906.0356,0,0,0,0,1,0,,,,,
,60db9412ba928de1fdc2269e,627c7680fb4f1a0bfb0b6d8f,2022-05-12_03h53.30.336,classification_task,2021.2.3,Win32,19.99720039,627c6715c52fd12f31907bd0,,,,,,,,,,,,,,,,,,,,,,,,,,,,,,,,,,,,,,,,,,,,,,,,,,,,,I can depend on the aid,,0.7,0,4,1910.0838,0,0,0,0,1,0,,,,,
,60db9412ba928de1fdc2269e,627c7680fb4f1a0bfb0b6d8f,2022-05-12_03h53.30.336,classification_task,2021.2.3,Win32,19.99720039,627c6715c52fd12f31907bd0,,,,,,,,,,,,,,,,,,,,,,,,,,,,,,,,,,,,,,,,,,,,,,,,,,,,,I can rely on the aid to behave in consistent ways,,0.7,0,4,1922.4965,0,0,0,0,1,0,,,,,
,60db9412ba928de1fdc2269e,627c7680fb4f1a0bfb0b6d8f,2022-05-12_03h53.30.336,classification_task,2021.2.3,Win32,19.99720039,627c6715c52fd12f31907bd0,,,,,,,,,,,,,,,,,,,,,,,,,,,,,,,,,,,,,,,,,,,,,,,,,,,,,I can rely on the aid to do its best every time I take its advice,,0.7,0,4,1929.773,0,0,0,0,1,0,,,,,
,60db9412ba928de1fdc2269e,627c7680fb4f1a0bfb0b6d8f,2022-05-12_03h53.30.336,classification_task,2021.2.3,Win32,19.99720039,627c6715c52fd12f31907bd0,,,,,,,,,,,,,,,,,,,,,,,,,,,,,,,,,,,,,,,,,,,,,,,,,,,,,"On trials you completed with assistance from the aid, how frequently did you think the aid was correct?",,0.7,0,9,,0,0,0,0,1,0,,,,,
,60db9412ba928de1fdc2269e,627c7680fb4f1a0bfb0b6d8f,2022-05-12_03h53.30.336,classification_task,2021.2.3,Win32,19.99720039,627c6715c52fd12f31907bd0,,,,,,,,,,,,,,,,,,,,,,,,,,,,,,,,,,,,,,,,,,,,,,,,,,,,,"On trials you completed without the aid, how frequently did you think you were correct?",,0.7,0,5,,0,0,0,0,1,0,,,,,
,60db9412ba928de1fdc2269e,627c7680fb4f1a0bfb0b6d8f,2022-05-12_03h53.30.336,classification_task,2021.2.3,Win32,19.99720039,627c6715c52fd12f31907bd0,,,,,,,,,,,,,,,,,,,,,,,,,,,,,,,,,,,,,,,,,,,,,,,,,,,,,,,,,,,0,0,0,0,1,,,,,,
,60db9412ba928de1fdc2269e,627c7680fb4f1a0bfb0b6d8f,2022-05-12_03h53.30.336,classification_task,2021.2.3,Win32,19.99720039,627c6715c52fd12f31907bd0,,,,,,,,,,,,,,,,,,,,,,,,,,,,,,,,,,,,,,,,,,,,,,,,,,,,,,,,,,,,,,,,,space,18.5648,1978.9404,,
,60db9412ba928de1fdc2269e,627c7680fb4f1a0bfb0b6d8f,2022-05-12_03h53.30.336,classification_task,2021.2.3,Win32,19.99720039,627c6715c52fd12f31907bd0,,,,,,,,,,,,,,,,,,,,,,,,,,,,,,,,,,,,,,,,,,,,,,,,,,,,,,,,,,,,,,,,,,,,"Mozilla/5.0 (Windows NT 6.3; Win64; x64) AppleWebKit/537.36 (KHTML, like Gecko) Chrome/101.0.4951.54 Safari/537.36",
,60db9412ba928de1fdc2269e,627c7680fb4f1a0bfb0b6d8f,2022-05-12_03h53.30.336,classification_task,2021.2.3,Win32,19.99720039,627c6715c52fd12f31907bd0,,,,,,,,,,,,,,,,,,,,,,,,,,,,,,,,,,,,,,,,,,,,,,,,,,,,,,,,,,,,,,,,,,,,,FADING
