usingWebGL,participant,session,date,expName,psychopyVersion,OS,frameRate,PROLIFIC_PID,STUDY_ID,SESSION_ID,signatures_friend,signatures_foe,band_ranges_top,band_ranges_bottom,formitemText,formtype,formundefined,formitemWidth,formindex,formresponse,formrt,key_resp_2.keys,key_resp_2.rt,tute_resp.keys,tute_resp.rt,tutorial.thisRepN,tutorial.thisTrialN,tutorial.thisN,tutorial.thisIndex,tutorial.ran,key_resp_4.keys,key_resp_4.rt,key_resp.keys,key_resp.corr,key_resp.rt,lines_presented,is_signal_presented,trials.thisRepN,trials.thisTrialN,trials.thisN,trials.thisIndex,trials.ran,vessel,active_band,lines,is_signal,supported_pos,catch_trial,debrief_formindex,debrief_formitemText,debrief_formtype,debrief_formitemWidth,debrief_formresponse,debrief_formrt,phases.thisRepN,phases.thisTrialN,phases.thisN,phases.thisIndex,phases.ran,phases.order,phase,key_resp_3.keys,trustitemText,trusttype,trustitemWidth,trustindex,trustresponse,trustrt,support_status.thisRepN,support_status.thisTrialN,support_status.thisN,support_status.thisIndex,support_status.ran,support_status.order,key_resp_5.keys,key_resp_5.rt,globalClockTime,userAgent
TRUE,60dcb62cb1dd4fc5ce3c7fcf,001,2022-04-28_20h06.48.276,classification_task,2021.2.3,Win32,60.21194605,60dcb62cb1dd4fc5ce3c7fcf,626b377229c10585ec392f89,626b39f8f14131480d3b59d1,,,,,,,,,,,,,,,,,,,,,,,,,,,,,,,,,,,,,,,,,,,,,,,,,,,,,,,,,,,,,,,,,,,,
,60dcb62cb1dd4fc5ce3c7fcf,001,2022-04-28_20h06.48.276,classification_task,2021.2.3,Win32,60.21194605,60dcb62cb1dd4fc5ce3c7fcf,626b377229c10585ec392f89,626b39f8f14131480d3b59d1,"[[""0.235"",""0.399"",""0.625"",""0.860""],[""0.325"",""0.466"",""0.912"",""0.948""]]","[[""0.036"",""0.277"",""0.532"",""0.728""],[""0.111"",""0.195"",""0.591"",""0.799""]]","[1,10]","[100,1000]",Video game experience,,,0.7,0,,,,,,,,,,,,,,,,,,,,,,,,,,,,,,,,,,,,,,,,,,,,,,,,,,,,,,,,,,,
,60dcb62cb1dd4fc5ce3c7fcf,001,2022-04-28_20h06.48.276,classification_task,2021.2.3,Win32,60.21194605,60dcb62cb1dd4fc5ce3c7fcf,626b377229c10585ec392f89,626b39f8f14131480d3b59d1,,,,,Approximately how many hours did you spend playing video games in the last week?,,,0.7,0,14,,,,,,,,,,,,,,,,,,,,,,,,,,,,,,,,,,,,,,,,,,,,,,,,,,,,,,,,,,
,60dcb62cb1dd4fc5ce3c7fcf,001,2022-04-28_20h06.48.276,classification_task,2021.2.3,Win32,60.21194605,60dcb62cb1dd4fc5ce3c7fcf,626b377229c10585ec392f89,626b39f8f14131480d3b59d1,,,,,"Which game did you play the most this year? (Enter ""None"" if you didn't play any)",,,0.7,0,Konosuba Fantastic Days,,,,,,,,,,,,,,,,,,,,,,,,,,,,,,,,,,,,,,,,,,,,,,,,,,,,,,,,,,
,60dcb62cb1dd4fc5ce3c7fcf,001,2022-04-28_20h06.48.276,classification_task,2021.2.3,Win32,60.21194605,60dcb62cb1dd4fc5ce3c7fcf,626b377229c10585ec392f89,626b39f8f14131480d3b59d1,,,,,Visual perception,,,0.7,0,,,,,,,,,,,,,,,,,,,,,,,,,,,,,,,,,,,,,,,,,,,,,,,,,,,,,,,,,,,
,60dcb62cb1dd4fc5ce3c7fcf,001,2022-04-28_20h06.48.276,classification_task,2021.2.3,Win32,60.21194605,60dcb62cb1dd4fc5ce3c7fcf,626b377229c10585ec392f89,626b39f8f14131480d3b59d1,,,,,Do you have any form of color blindness?,,,0.7,0,Yes,28.1819,,,,,,,,,,,,,,,,,,,,,,,,,,,,,,,,,,,,,,,,,,,,,,,,,,,,,,,,,
,60dcb62cb1dd4fc5ce3c7fcf,001,2022-04-28_20h06.48.276,classification_task,2021.2.3,Win32,60.21194605,60dcb62cb1dd4fc5ce3c7fcf,626b377229c10585ec392f89,626b39f8f14131480d3b59d1,,,,,Do you use software to change the colour temperature of your screen (e.g. f.lux)?,,,0.7,0,No,31.5531,,,,,,,,,,,,,,,,,,,,,,,,,,,,,,,,,,,,,,,,,,,,,,,,,,,,,,,,,
,60dcb62cb1dd4fc5ce3c7fcf,001,2022-04-28_20h06.48.276,classification_task,2021.2.3,Win32,60.21194605,60dcb62cb1dd4fc5ce3c7fcf,626b377229c10585ec392f89,626b39f8f14131480d3b59d1,,,,,,,,,,,,space,43.864,space,10.1659,0,0,0,0,1,,,,,,,,,,,,,,,,,,,,,,,,,,,,,,,,,,,,,,,,,,,,,,,,
,60dcb62cb1dd4fc5ce3c7fcf,001,2022-04-28_20h06.48.276,classification_task,2021.2.3,Win32,60.21194605,60dcb62cb1dd4fc5ce3c7fcf,626b377229c10585ec392f89,626b39f8f14131480d3b59d1,,,,,,,,,,,,,,space,17.5724,1,0,1,0,1,,,,,,,,,,,,,,,,,,,,,,,,,,,,,,,,,,,,,,,,,,,,,,,,
,60dcb62cb1dd4fc5ce3c7fcf,001,2022-04-28_20h06.48.276,classification_task,2021.2.3,Win32,60.21194605,60dcb62cb1dd4fc5ce3c7fcf,626b377229c10585ec392f89,626b39f8f14131480d3b59d1,,,,,,,,,,,,,,space,51.2822,2,0,2,0,1,,,,,,,,,,,,,,,,,,,,,,,,,,,,,,,,,,,,,,,,,,,,,,,,
,60dcb62cb1dd4fc5ce3c7fcf,001,2022-04-28_20h06.48.276,classification_task,2021.2.3,Win32,60.21194605,60dcb62cb1dd4fc5ce3c7fcf,626b377229c10585ec392f89,626b39f8f14131480d3b59d1,,,,,,,,,,,,,,space,7.7286,3,0,3,0,1,,,,,,,,,,,,,,,,,,,,,,,,,,,,,,,,,,,,,,,,,,,,,,,,
,60dcb62cb1dd4fc5ce3c7fcf,001,2022-04-28_20h06.48.276,classification_task,2021.2.3,Win32,60.21194605,60dcb62cb1dd4fc5ce3c7fcf,626b377229c10585ec392f89,626b39f8f14131480d3b59d1,,,,,,,,,,,,,,space,16.5465,4,0,4,0,1,,,,,,,,,,,,,,,,,,,,,,,,,,,,,,,,,,,,,,,,,,,,,,,,
,60dcb62cb1dd4fc5ce3c7fcf,001,2022-04-28_20h06.48.276,classification_task,2021.2.3,Win32,60.21194605,60dcb62cb1dd4fc5ce3c7fcf,626b377229c10585ec392f89,626b39f8f14131480d3b59d1,,,,,,,,,,,,,,,,,,,,,space,12.6388,a,1,9.0231,"[""0.235"",""0.399"",""0.682"",""0.860""]","[1,1,0,1]",0,0,0,0,1,0,0,,,1,FALSE,,,,,,,,,,,,,,,,,,,,,,,,,,,,,,
,60dcb62cb1dd4fc5ce3c7fcf,001,2022-04-28_20h06.48.276,classification_task,2021.2.3,Win32,60.21194605,60dcb62cb1dd4fc5ce3c7fcf,626b377229c10585ec392f89,626b39f8f14131480d3b59d1,,,,,,,,,,,,,,,,,,,,,,,,0,,"[""0.158"",""0.466"",""0.912"",""0.948""]","[0,1,1,1]",0,1,1,1,1,0,1,,,1,FALSE,,,,,,,,,,,,,,,,,,,,,,,,,,,,,,
,60dcb62cb1dd4fc5ce3c7fcf,001,2022-04-28_20h06.48.276,classification_task,2021.2.3,Win32,60.21194605,60dcb62cb1dd4fc5ce3c7fcf,626b377229c10585ec392f89,626b39f8f14131480d3b59d1,,,,,,,,,,,,,,,,,,,,,,,a,1,7.9788,"[""0.235"",""0.145"",""0.625"",""0.860""]","[1,0,1,1]",0,2,2,2,1,0,0,,,1,FALSE,,,,,,,,,,,,,,,,,,,,,,,,,,,,,,
,60dcb62cb1dd4fc5ce3c7fcf,001,2022-04-28_20h06.48.276,classification_task,2021.2.3,Win32,60.21194605,60dcb62cb1dd4fc5ce3c7fcf,626b377229c10585ec392f89,626b39f8f14131480d3b59d1,,,,,,,,,,,,,,,,,,,,,,,l,1,6.9552,"[""0.111"",""0.679"",""0.591"",""0.799""]","[1,0,1,1]",0,3,3,3,1,1,1,,,1,FALSE,,,,,,,,,,,,,,,,,,,,,,,,,,,,,,
,60dcb62cb1dd4fc5ce3c7fcf,001,2022-04-28_20h06.48.276,classification_task,2021.2.3,Win32,60.21194605,60dcb62cb1dd4fc5ce3c7fcf,626b377229c10585ec392f89,626b39f8f14131480d3b59d1,,,,,,,,,,,,,,,,,,,,,,,,0,,"[""0.365"",""0.195"",""0.591"",""0.799""]","[0,1,1,1]",0,4,4,4,1,1,1,,,1,FALSE,,,,,,,,,,,,,,,,,,,,,,,,,,,,,,
,60dcb62cb1dd4fc5ce3c7fcf,001,2022-04-28_20h06.48.276,classification_task,2021.2.3,Win32,60.21194605,60dcb62cb1dd4fc5ce3c7fcf,626b377229c10585ec392f89,626b39f8f14131480d3b59d1,,,,,,,,,,,,,,,,,,,,,,,l,1,7.6611,"[""0.663"",""0.277"",""0.532"",""0.728""]","[0,1,1,1]",0,5,5,5,1,1,0,,,1,FALSE,,,,,,,,,,,,,,,,,,,,,,,,,,,,,,
,60dcb62cb1dd4fc5ce3c7fcf,001,2022-04-28_20h06.48.276,classification_task,2021.2.3,Win32,60.21194605,60dcb62cb1dd4fc5ce3c7fcf,626b377229c10585ec392f89,626b39f8f14131480d3b59d1,,,,,,,,,,,,,,,,,,,,,,,a,0,7.4553,"[""0.111"",""0.195"",""0.682"",""0.799""]","[1,1,0,1]",0,6,6,6,1,1,1,,,1,FALSE,,,,,,,,,,,,,,,,,,,,,,,,,,,,,,
,60dcb62cb1dd4fc5ce3c7fcf,001,2022-04-28_20h06.48.276,classification_task,2021.2.3,Win32,60.21194605,60dcb62cb1dd4fc5ce3c7fcf,626b377229c10585ec392f89,626b39f8f14131480d3b59d1,,,,,,,,,,,,,,,,,,,,,,,l,0,9.8453,"[""0.325"",""0.466"",""0.077"",""0.948""]","[1,1,0,1]",0,7,7,7,1,0,1,,,1,FALSE,,,,,,,,,,,,,,,,,,,,,,,,,,,,,,
,60dcb62cb1dd4fc5ce3c7fcf,001,2022-04-28_20h06.48.276,classification_task,2021.2.3,Win32,60.21194605,60dcb62cb1dd4fc5ce3c7fcf,626b377229c10585ec392f89,626b39f8f14131480d3b59d1,,,,,,,,,,,,,,,,,,,,,,,l,1,5.8299,"[""0.111"",""0.195"",""0.591"",""0.663""]","[1,1,1,0]",0,8,8,8,1,1,1,,,1,FALSE,,,,,,,,,,,,,,,,,,,,,,,,,,,,,,
,60dcb62cb1dd4fc5ce3c7fcf,001,2022-04-28_20h06.48.276,classification_task,2021.2.3,Win32,60.21194605,60dcb62cb1dd4fc5ce3c7fcf,626b377229c10585ec392f89,626b39f8f14131480d3b59d1,,,,,,,,,,,,,,,,,,,,,,,l,1,7.0638,"[""0.036"",""0.277"",""0.077"",""0.728""]","[1,1,0,1]",0,9,9,9,1,1,0,,,1,FALSE,,,,,,,,,,,,,,,,,,,,,,,,,,,,,,
,60dcb62cb1dd4fc5ce3c7fcf,001,2022-04-28_20h06.48.276,classification_task,2021.2.3,Win32,60.21194605,60dcb62cb1dd4fc5ce3c7fcf,626b377229c10585ec392f89,626b39f8f14131480d3b59d1,,,,,,,,,,,,,,,,,,,,,,,,0,,"[""0.325"",""0.466"",""0.912"",""0.145""]","[1,1,1,0]",0,10,10,10,1,0,1,,,1,FALSE,,,,,,,,,,,,,,,,,,,,,,,,,,,,,,
,60dcb62cb1dd4fc5ce3c7fcf,001,2022-04-28_20h06.48.276,classification_task,2021.2.3,Win32,60.21194605,60dcb62cb1dd4fc5ce3c7fcf,626b377229c10585ec392f89,626b39f8f14131480d3b59d1,,,,,,,,,,,,,,,,,,,,,,,a,1,7.708,"[""0.665"",""0.399"",""0.625"",""0.860""]","[0,1,1,1]",0,11,11,11,1,0,0,,,1,FALSE,,,,,,,,,,,,,,,,,,,,,,,,,,,,,,
,60dcb62cb1dd4fc5ce3c7fcf,001,2022-04-28_20h06.48.276,classification_task,2021.2.3,Win32,60.21194605,60dcb62cb1dd4fc5ce3c7fcf,626b377229c10585ec392f89,626b39f8f14131480d3b59d1,,,,,,,,,,,,,,,,,,,,,,,a,1,6.2033,"[""0.235"",""0.399"",""0.625"",""0.763""]","[1,1,1,0]",0,12,12,12,1,0,0,,,1,FALSE,,,,,,,,,,,,,,,,,,,,,,,,,,,,,,
,60dcb62cb1dd4fc5ce3c7fcf,001,2022-04-28_20h06.48.276,classification_task,2021.2.3,Win32,60.21194605,60dcb62cb1dd4fc5ce3c7fcf,626b377229c10585ec392f89,626b39f8f14131480d3b59d1,,,,,,,,,,,,,,,,,,,,,,,a,1,9.3945,"[""0.325"",""0.679"",""0.912"",""0.948""]","[1,0,1,1]",0,13,13,13,1,0,1,,,1,FALSE,,,,,,,,,,,,,,,,,,,,,,,,,,,,,,
,60dcb62cb1dd4fc5ce3c7fcf,001,2022-04-28_20h06.48.276,classification_task,2021.2.3,Win32,60.21194605,60dcb62cb1dd4fc5ce3c7fcf,626b377229c10585ec392f89,626b39f8f14131480d3b59d1,,,,,,,,,,,,,,,,,,,,,,,l,1,7.4202,"[""0.036"",""0.682"",""0.532"",""0.728""]","[1,0,1,1]",0,14,14,14,1,1,0,,,1,FALSE,,,,,,,,,,,,,,,,,,,,,,,,,,,,,,
,60dcb62cb1dd4fc5ce3c7fcf,001,2022-04-28_20h06.48.276,classification_task,2021.2.3,Win32,60.21194605,60dcb62cb1dd4fc5ce3c7fcf,626b377229c10585ec392f89,626b39f8f14131480d3b59d1,,,,,,,,,,,,,,,,,,,,,,,l,1,7.2153,"[""0.036"",""0.277"",""0.532"",""0.075""]","[1,1,1,0]",0,15,15,15,1,1,0,,,1,FALSE,,,,,,,,,,,,,,,,,,,,,,,,,,,,,,
,60dcb62cb1dd4fc5ce3c7fcf,001,2022-04-28_20h06.48.276,classification_task,2021.2.3,Win32,60.21194605,60dcb62cb1dd4fc5ce3c7fcf,626b377229c10585ec392f89,626b39f8f14131480d3b59d1,,,,,,,,,,,,,,,,,,,,,,,l,0,5.1107,"[""0.235"",""0.077"",""0.625"",""0.860""]","[1,0,1,1]",0,16,16,16,1,0,0,,,1,FALSE,,,,,,,,,,,,,,,,,,,,,,,,,,,,,,
,60dcb62cb1dd4fc5ce3c7fcf,001,2022-04-28_20h06.48.276,classification_task,2021.2.3,Win32,60.21194605,60dcb62cb1dd4fc5ce3c7fcf,626b377229c10585ec392f89,626b39f8f14131480d3b59d1,,,,,,,,,,,,,,,,,,,,,,,l,1,5.8351,"[""0.111"",""0.195"",""0.660"",""0.799""]","[1,1,0,1]",0,17,17,17,1,1,1,,,1,FALSE,,,,,,,,,,,,,,,,,,,,,,,,,,,,,,
,60dcb62cb1dd4fc5ce3c7fcf,001,2022-04-28_20h06.48.276,classification_task,2021.2.3,Win32,60.21194605,60dcb62cb1dd4fc5ce3c7fcf,626b377229c10585ec392f89,626b39f8f14131480d3b59d1,,,,,,,,,,,,,,,,,,,,,,,a,1,8.9943,"[""0.325"",""0.466"",""0.075"",""0.948""]","[1,1,0,1]",0,18,18,18,1,0,1,,,1,FALSE,,,,,,,,,,,,,,,,,,,,,,,,,,,,,,
,60dcb62cb1dd4fc5ce3c7fcf,001,2022-04-28_20h06.48.276,classification_task,2021.2.3,Win32,60.21194605,60dcb62cb1dd4fc5ce3c7fcf,626b377229c10585ec392f89,626b39f8f14131480d3b59d1,,,,,,,,,,,,,,,,,,,,,,,l,1,8.1945,"[""0.036"",""0.277"",""0.682"",""0.728""]","[1,1,0,1]",0,19,19,19,1,1,0,,,1,FALSE,,,,,,,,,,,,,,,,,,,,,,,,,,,,,,
,60dcb62cb1dd4fc5ce3c7fcf,001,2022-04-28_20h06.48.276,classification_task,2021.2.3,Win32,60.21194605,60dcb62cb1dd4fc5ce3c7fcf,626b377229c10585ec392f89,626b39f8f14131480d3b59d1,,,,,,,,,,,,,,,,,,,,,,,l,1,6.8876,"[""0.071"",""0.195"",""0.591"",""0.799""]","[0,1,1,1]",0,20,20,20,1,1,1,,,1,FALSE,,,,,,,,,,,,,,,,,,,,,,,,,,,,,,
,60dcb62cb1dd4fc5ce3c7fcf,001,2022-04-28_20h06.48.276,classification_task,2021.2.3,Win32,60.21194605,60dcb62cb1dd4fc5ce3c7fcf,626b377229c10585ec392f89,626b39f8f14131480d3b59d1,,,,,,,,,,,,,,,,,,,,,,,a,1,6.1779,"[""0.235"",""0.399"",""0.625"",""0.682""]","[1,1,1,0]",0,21,21,21,1,0,0,,,1,FALSE,,,,,,,,,,,,,,,,,,,,,,,,,,,,,,
,60dcb62cb1dd4fc5ce3c7fcf,001,2022-04-28_20h06.48.276,classification_task,2021.2.3,Win32,60.21194605,60dcb62cb1dd4fc5ce3c7fcf,626b377229c10585ec392f89,626b39f8f14131480d3b59d1,,,,,,,,,,,,,,,,,,,,,,,a,1,7.7125,"[""0.145"",""0.399"",""0.625"",""0.860""]","[0,1,1,1]",0,22,22,22,1,0,0,,,1,FALSE,,,,,,,,,,,,,,,,,,,,,,,,,,,,,,
,60dcb62cb1dd4fc5ce3c7fcf,001,2022-04-28_20h06.48.276,classification_task,2021.2.3,Win32,60.21194605,60dcb62cb1dd4fc5ce3c7fcf,626b377229c10585ec392f89,626b39f8f14131480d3b59d1,,,,,,,,,,,,,,,,,,,,,,,a,1,8.1469,"[""0.325"",""0.466"",""0.912"",""0.663""]","[1,1,1,0]",0,23,23,23,1,0,1,,,1,FALSE,,,,,,,,,,,,,,,,,,,,,,,,,,,,,,
,60dcb62cb1dd4fc5ce3c7fcf,001,2022-04-28_20h06.48.276,classification_task,2021.2.3,Win32,60.21194605,60dcb62cb1dd4fc5ce3c7fcf,626b377229c10585ec392f89,626b39f8f14131480d3b59d1,,,,,,,,,,,,,,,,,,,,,,,l,1,4.6504,"[""0.036"",""0.071"",""0.532"",""0.728""]","[1,0,1,1]",0,24,24,24,1,1,0,,,1,FALSE,,,,,,,,,,,,,,,,,,,,,,,,,,,,,,
,60dcb62cb1dd4fc5ce3c7fcf,001,2022-04-28_20h06.48.276,classification_task,2021.2.3,Win32,60.21194605,60dcb62cb1dd4fc5ce3c7fcf,626b377229c10585ec392f89,626b39f8f14131480d3b59d1,,,,,,,,,,,,,,,,,,,,,,,a,1,6.1846,"[""0.235"",""0.399"",""0.763"",""0.860""]","[1,1,0,1]",0,25,25,25,1,0,0,,,1,FALSE,,,,,,,,,,,,,,,,,,,,,,,,,,,,,,
,60dcb62cb1dd4fc5ce3c7fcf,001,2022-04-28_20h06.48.276,classification_task,2021.2.3,Win32,60.21194605,60dcb62cb1dd4fc5ce3c7fcf,626b377229c10585ec392f89,626b39f8f14131480d3b59d1,,,,,,,,,,,,,,,,,,,,,,,l,1,6.0942,"[""0.036"",""0.277"",""0.532"",""0.682""]","[1,1,1,0]",0,26,26,26,1,1,0,,,1,FALSE,,,,,,,,,,,,,,,,,,,,,,,,,,,,,,
,60dcb62cb1dd4fc5ce3c7fcf,001,2022-04-28_20h06.48.276,classification_task,2021.2.3,Win32,60.21194605,60dcb62cb1dd4fc5ce3c7fcf,626b377229c10585ec392f89,626b39f8f14131480d3b59d1,,,,,,,,,,,,,,,,,,,,,,,a,1,6.8908,"[""0.682"",""0.466"",""0.912"",""0.948""]","[0,1,1,1]",0,27,27,27,1,0,1,,,1,FALSE,,,,,,,,,,,,,,,,,,,,,,,,,,,,,,
,60dcb62cb1dd4fc5ce3c7fcf,001,2022-04-28_20h06.48.276,classification_task,2021.2.3,Win32,60.21194605,60dcb62cb1dd4fc5ce3c7fcf,626b377229c10585ec392f89,626b39f8f14131480d3b59d1,,,,,,,,,,,,,,,,,,,,,,,l,1,4.5594,"[""0.111"",""0.195"",""0.591"",""0.763""]","[1,1,1,0]",0,28,28,28,1,1,1,,,1,FALSE,,,,,,,,,,,,,,,,,,,,,,,,,,,,,,
,60dcb62cb1dd4fc5ce3c7fcf,001,2022-04-28_20h06.48.276,classification_task,2021.2.3,Win32,60.21194605,60dcb62cb1dd4fc5ce3c7fcf,626b377229c10585ec392f89,626b39f8f14131480d3b59d1,,,,,,,,,,,,,,,,,,,,,,,l,1,6.1725,"[""0.111"",""0.075"",""0.591"",""0.799""]","[1,0,1,1]",0,29,29,29,1,1,1,,,1,FALSE,,,,,,,,,,,,,,,,,,,,,,,,,,,,,,
,60dcb62cb1dd4fc5ce3c7fcf,001,2022-04-28_20h06.48.276,classification_task,2021.2.3,Win32,60.21194605,60dcb62cb1dd4fc5ce3c7fcf,626b377229c10585ec392f89,626b39f8f14131480d3b59d1,,,,,,,,,,,,,,,,,,,,,,,a,0,9.1223,"[""0.359"",""0.277"",""0.532"",""0.728""]","[0,1,1,1]",0,30,30,30,1,1,0,,,1,FALSE,,,,,,,,,,,,,,,,,,,,,,,,,,,,,,
,60dcb62cb1dd4fc5ce3c7fcf,001,2022-04-28_20h06.48.276,classification_task,2021.2.3,Win32,60.21194605,60dcb62cb1dd4fc5ce3c7fcf,626b377229c10585ec392f89,626b39f8f14131480d3b59d1,,,,,,,,,,,,,,,,,,,,,,,a,1,7.6091,"[""0.325"",""0.763"",""0.912"",""0.948""]","[1,0,1,1]",0,31,31,31,1,0,1,,,1,FALSE,,,,,,,,,,,,,,,,,,,,,,,,,,,,,,
,60dcb62cb1dd4fc5ce3c7fcf,001,2022-04-28_20h06.48.276,classification_task,2021.2.3,Win32,60.21194605,60dcb62cb1dd4fc5ce3c7fcf,626b377229c10585ec392f89,626b39f8f14131480d3b59d1,,,,,,,,,,,,,,,,,,,,,,,a,1,7.1567,"[""0.359"",""0.399"",""0.625"",""0.860""]","[0,1,1,1]",0,32,32,32,1,0,0,,,1,FALSE,,,,,,,,,,,,,,,,,,,,,,,,,,,,,,
,60dcb62cb1dd4fc5ce3c7fcf,001,2022-04-28_20h06.48.276,classification_task,2021.2.3,Win32,60.21194605,60dcb62cb1dd4fc5ce3c7fcf,626b377229c10585ec392f89,626b39f8f14131480d3b59d1,,,,,,,,,,,,,,,,,,,,,,,l,0,8.3267,"[""0.325"",""0.466"",""0.075"",""0.948""]","[1,1,0,1]",0,33,33,33,1,0,1,,,1,FALSE,,,,,,,,,,,,,,,,,,,,,,,,,,,,,,
,60dcb62cb1dd4fc5ce3c7fcf,001,2022-04-28_20h06.48.276,classification_task,2021.2.3,Win32,60.21194605,60dcb62cb1dd4fc5ce3c7fcf,626b377229c10585ec392f89,626b39f8f14131480d3b59d1,,,,,,,,,,,,,,,,,,,,,,,a,0,4.2703,"[""0.111"",""0.075"",""0.591"",""0.799""]","[1,0,1,1]",0,34,34,34,1,1,1,,,1,FALSE,,,,,,,,,,,,,,,,,,,,,,,,,,,,,,
,60dcb62cb1dd4fc5ce3c7fcf,001,2022-04-28_20h06.48.276,classification_task,2021.2.3,Win32,60.21194605,60dcb62cb1dd4fc5ce3c7fcf,626b377229c10585ec392f89,626b39f8f14131480d3b59d1,,,,,,,,,,,,,,,,,,,,,,,a,0,5.7222,"[""0.111"",""0.195"",""0.663"",""0.799""]","[1,1,0,1]",0,35,35,35,1,1,1,,,1,FALSE,,,,,,,,,,,,,,,,,,,,,,,,,,,,,,
,60dcb62cb1dd4fc5ce3c7fcf,001,2022-04-28_20h06.48.276,classification_task,2021.2.3,Win32,60.21194605,60dcb62cb1dd4fc5ce3c7fcf,626b377229c10585ec392f89,626b39f8f14131480d3b59d1,,,,,,,,,,,,,,,,,,,,,,,a,0,4.658,"[""0.763"",""0.277"",""0.532"",""0.728""]","[0,1,1,1]",0,36,36,36,1,1,0,,,1,FALSE,,,,,,,,,,,,,,,,,,,,,,,,,,,,,,
,60dcb62cb1dd4fc5ce3c7fcf,001,2022-04-28_20h06.48.276,classification_task,2021.2.3,Win32,60.21194605,60dcb62cb1dd4fc5ce3c7fcf,626b377229c10585ec392f89,626b39f8f14131480d3b59d1,,,,,,,,,,,,,,,,,,,,,,,l,0,2.0331,"[""0.235"",""0.399"",""0.625"",""0.682""]","[1,1,1,0]",0,37,37,37,1,0,0,,,1,FALSE,,,,,,,,,,,,,,,,,,,,,,,,,,,,,,
,60dcb62cb1dd4fc5ce3c7fcf,001,2022-04-28_20h06.48.276,classification_task,2021.2.3,Win32,60.21194605,60dcb62cb1dd4fc5ce3c7fcf,626b377229c10585ec392f89,626b39f8f14131480d3b59d1,,,,,,,,,,,,,,,,,,,,,,,a,1,3.7276,"[""0.325"",""0.466"",""0.912"",""0.682""]","[1,1,1,0]",0,38,38,38,1,0,1,,,1,FALSE,,,,,,,,,,,,,,,,,,,,,,,,,,,,,,
,60dcb62cb1dd4fc5ce3c7fcf,001,2022-04-28_20h06.48.276,classification_task,2021.2.3,Win32,60.21194605,60dcb62cb1dd4fc5ce3c7fcf,626b377229c10585ec392f89,626b39f8f14131480d3b59d1,,,,,,,,,,,,,,,,,,,,,,,l,1,2.7952,"[""0.111"",""0.195"",""0.591"",""0.075""]","[1,1,1,0]",0,39,39,39,1,1,1,,,1,FALSE,,,,,,,,,,,,,,,,,,,,,,,,,,,,,,
,60dcb62cb1dd4fc5ce3c7fcf,001,2022-04-28_20h06.48.276,classification_task,2021.2.3,Win32,60.21194605,60dcb62cb1dd4fc5ce3c7fcf,626b377229c10585ec392f89,626b39f8f14131480d3b59d1,,,,,,,,,,,,,,,,,,,,,,,l,0,2.5639,"[""0.325"",""0.072"",""0.912"",""0.948""]","[1,0,1,1]",0,40,40,40,1,0,1,,,1,FALSE,,,,,,,,,,,,,,,,,,,,,,,,,,,,,,
,60dcb62cb1dd4fc5ce3c7fcf,001,2022-04-28_20h06.48.276,classification_task,2021.2.3,Win32,60.21194605,60dcb62cb1dd4fc5ce3c7fcf,626b377229c10585ec392f89,626b39f8f14131480d3b59d1,,,,,,,,,,,,,,,,,,,,,,,l,1,2.1834,"[""0.036"",""0.277"",""0.532"",""0.075""]","[1,1,1,0]",0,41,41,41,1,1,0,,,1,FALSE,,,,,,,,,,,,,,,,,,,,,,,,,,,,,,
,60dcb62cb1dd4fc5ce3c7fcf,001,2022-04-28_20h06.48.276,classification_task,2021.2.3,Win32,60.21194605,60dcb62cb1dd4fc5ce3c7fcf,626b377229c10585ec392f89,626b39f8f14131480d3b59d1,,,,,,,,,,,,,,,,,,,,,,,a,1,1.4146,"[""0.071"",""0.466"",""0.912"",""0.948""]","[0,1,1,1]",0,42,42,42,1,0,1,,,1,FALSE,,,,,,,,,,,,,,,,,,,,,,,,,,,,,,
,60dcb62cb1dd4fc5ce3c7fcf,001,2022-04-28_20h06.48.276,classification_task,2021.2.3,Win32,60.21194605,60dcb62cb1dd4fc5ce3c7fcf,626b377229c10585ec392f89,626b39f8f14131480d3b59d1,,,,,,,,,,,,,,,,,,,,,,,a,0,1.5911,"[""0.036"",""0.277"",""0.682"",""0.728""]","[1,1,0,1]",0,43,43,43,1,1,0,,,1,FALSE,,,,,,,,,,,,,,,,,,,,,,,,,,,,,,
,60dcb62cb1dd4fc5ce3c7fcf,001,2022-04-28_20h06.48.276,classification_task,2021.2.3,Win32,60.21194605,60dcb62cb1dd4fc5ce3c7fcf,626b377229c10585ec392f89,626b39f8f14131480d3b59d1,,,,,,,,,,,,,,,,,,,,,,,l,0,3.6896,"[""0.235"",""0.679"",""0.625"",""0.860""]","[1,0,1,1]",0,44,44,44,1,0,0,,,1,FALSE,,,,,,,,,,,,,,,,,,,,,,,,,,,,,,
,60dcb62cb1dd4fc5ce3c7fcf,001,2022-04-28_20h06.48.276,classification_task,2021.2.3,Win32,60.21194605,60dcb62cb1dd4fc5ce3c7fcf,626b377229c10585ec392f89,626b39f8f14131480d3b59d1,,,,,,,,,,,,,,,,,,,,,,,a,0,1.8686,"[""0.075"",""0.195"",""0.591"",""0.799""]","[0,1,1,1]",0,45,45,45,1,1,1,,,1,FALSE,,,,,,,,,,,,,,,,,,,,,,,,,,,,,,
,60dcb62cb1dd4fc5ce3c7fcf,001,2022-04-28_20h06.48.276,classification_task,2021.2.3,Win32,60.21194605,60dcb62cb1dd4fc5ce3c7fcf,626b377229c10585ec392f89,626b39f8f14131480d3b59d1,,,,,,,,,,,,,,,,,,,,,,,a,0,3.8849,"[""0.036"",""0.665"",""0.532"",""0.728""]","[1,0,1,1]",0,46,46,46,1,1,0,,,1,FALSE,,,,,,,,,,,,,,,,,,,,,,,,,,,,,,
,60dcb62cb1dd4fc5ce3c7fcf,001,2022-04-28_20h06.48.276,classification_task,2021.2.3,Win32,60.21194605,60dcb62cb1dd4fc5ce3c7fcf,626b377229c10585ec392f89,626b39f8f14131480d3b59d1,,,,,,,,,,,,,,,,,,,,,,,a,1,1.3362,"[""0.235"",""0.399"",""0.660"",""0.860""]","[1,1,0,1]",0,47,47,47,1,0,0,,,1,FALSE,,,,,,,,,,,,,,,,,,,,,,,,,,,,,,
,60dcb62cb1dd4fc5ce3c7fcf,001,2022-04-28_20h06.48.276,classification_task,2021.2.3,Win32,60.21194605,60dcb62cb1dd4fc5ce3c7fcf,626b377229c10585ec392f89,626b39f8f14131480d3b59d1,,,,,,,,,,,,,,,,,,,,,,,l,0,3.1101,"[""0.325"",""0.466"",""0.912"",""0.075""]","[1,1,1,0]",0,48,48,48,1,0,1,,,1,FALSE,,,,,,,,,,,,,,,,,,,,,,,,,,,,,,
,60dcb62cb1dd4fc5ce3c7fcf,001,2022-04-28_20h06.48.276,classification_task,2021.2.3,Win32,60.21194605,60dcb62cb1dd4fc5ce3c7fcf,626b377229c10585ec392f89,626b39f8f14131480d3b59d1,,,,,,,,,,,,,,,,,,,,,,,l,1,2.3569,"[""0.036"",""0.682"",""0.532"",""0.728""]","[1,0,1,1]",0,49,49,49,1,1,0,,,1,FALSE,,,,,,,,,,,,,,,,,,,,,,,,,,,,,,
,60dcb62cb1dd4fc5ce3c7fcf,001,2022-04-28_20h06.48.276,classification_task,2021.2.3,Win32,60.21194605,60dcb62cb1dd4fc5ce3c7fcf,626b377229c10585ec392f89,626b39f8f14131480d3b59d1,,,,,,,,,,,,,,,,,,,,,,,l,0,3.6959,"[""0.325"",""0.365"",""0.912"",""0.948""]","[1,0,1,1]",0,50,50,50,1,0,1,,,1,FALSE,,,,,,,,,,,,,,,,,,,,,,,,,,,,,,
,60dcb62cb1dd4fc5ce3c7fcf,001,2022-04-28_20h06.48.276,classification_task,2021.2.3,Win32,60.21194605,60dcb62cb1dd4fc5ce3c7fcf,626b377229c10585ec392f89,626b39f8f14131480d3b59d1,,,,,,,,,,,,,,,,,,,,,,,l,0,1.3781,"[""0.075"",""0.466"",""0.912"",""0.948""]","[0,1,1,1]",0,51,51,51,1,0,1,,,1,FALSE,,,,,,,,,,,,,,,,,,,,,,,,,,,,,,
,60dcb62cb1dd4fc5ce3c7fcf,001,2022-04-28_20h06.48.276,classification_task,2021.2.3,Win32,60.21194605,60dcb62cb1dd4fc5ce3c7fcf,626b377229c10585ec392f89,626b39f8f14131480d3b59d1,,,,,,,,,,,,,,,,,,,,,,,a,1,0.9713,"[""0.235"",""0.399"",""0.625"",""0.682""]","[1,1,1,0]",0,52,52,52,1,0,0,,,1,FALSE,,,,,,,,,,,,,,,,,,,,,,,,,,,,,,
,60dcb62cb1dd4fc5ce3c7fcf,001,2022-04-28_20h06.48.276,classification_task,2021.2.3,Win32,60.21194605,60dcb62cb1dd4fc5ce3c7fcf,626b377229c10585ec392f89,626b39f8f14131480d3b59d1,,,,,,,,,,,,,,,,,,,,,,,l,0,1.5088,"[""0.325"",""0.466"",""0.682"",""0.948""]","[1,1,0,1]",0,53,53,53,1,0,1,,,1,FALSE,,,,,,,,,,,,,,,,,,,,,,,,,,,,,,
,60dcb62cb1dd4fc5ce3c7fcf,001,2022-04-28_20h06.48.276,classification_task,2021.2.3,Win32,60.21194605,60dcb62cb1dd4fc5ce3c7fcf,626b377229c10585ec392f89,626b39f8f14131480d3b59d1,,,,,,,,,,,,,,,,,,,,,,,a,0,1.4874,"[""0.036"",""0.277"",""0.532"",""0.071""]","[1,1,1,0]",0,54,54,54,1,1,0,,,1,FALSE,,,,,,,,,,,,,,,,,,,,,,,,,,,,,,
,60dcb62cb1dd4fc5ce3c7fcf,001,2022-04-28_20h06.48.276,classification_task,2021.2.3,Win32,60.21194605,60dcb62cb1dd4fc5ce3c7fcf,626b377229c10585ec392f89,626b39f8f14131480d3b59d1,,,,,,,,,,,,,,,,,,,,,,,a,0,2.7281,"[""0.365"",""0.277"",""0.532"",""0.728""]","[0,1,1,1]",0,55,55,55,1,1,0,,,1,FALSE,,,,,,,,,,,,,,,,,,,,,,,,,,,,,,
,60dcb62cb1dd4fc5ce3c7fcf,001,2022-04-28_20h06.48.276,classification_task,2021.2.3,Win32,60.21194605,60dcb62cb1dd4fc5ce3c7fcf,626b377229c10585ec392f89,626b39f8f14131480d3b59d1,,,,,,,,,,,,,,,,,,,,,,,,0,,"[""0.235"",""0.682"",""0.625"",""0.860""]","[1,0,1,1]",0,56,56,56,1,0,0,,,1,FALSE,,,,,,,,,,,,,,,,,,,,,,,,,,,,,,
,60dcb62cb1dd4fc5ce3c7fcf,001,2022-04-28_20h06.48.276,classification_task,2021.2.3,Win32,60.21194605,60dcb62cb1dd4fc5ce3c7fcf,626b377229c10585ec392f89,626b39f8f14131480d3b59d1,,,,,,,,,,,,,,,,,,,,,,,a,1,4.0331,"[""0.235"",""0.399"",""0.072"",""0.860""]","[1,1,0,1]",0,57,57,57,1,0,0,,,1,FALSE,,,,,,,,,,,,,,,,,,,,,,,,,,,,,,
,60dcb62cb1dd4fc5ce3c7fcf,001,2022-04-28_20h06.48.276,classification_task,2021.2.3,Win32,60.21194605,60dcb62cb1dd4fc5ce3c7fcf,626b377229c10585ec392f89,626b39f8f14131480d3b59d1,,,,,,,,,,,,,,,,,,,,,,,a,0,1.8102,"[""0.111"",""0.195"",""0.591"",""0.365""]","[1,1,1,0]",0,58,58,58,1,1,1,,,1,FALSE,,,,,,,,,,,,,,,,,,,,,,,,,,,,,,
,60dcb62cb1dd4fc5ce3c7fcf,001,2022-04-28_20h06.48.276,classification_task,2021.2.3,Win32,60.21194605,60dcb62cb1dd4fc5ce3c7fcf,626b377229c10585ec392f89,626b39f8f14131480d3b59d1,,,,,,,,,,,,,,,,,,,,,,,l,1,1.0809,"[""0.111"",""0.195"",""0.682"",""0.799""]","[1,1,0,1]",0,59,59,59,1,1,1,,,1,FALSE,,,,,,,,,,,,,,,,,,,,,,,,,,,,,,
,60dcb62cb1dd4fc5ce3c7fcf,001,2022-04-28_20h06.48.276,classification_task,2021.2.3,Win32,60.21194605,60dcb62cb1dd4fc5ce3c7fcf,626b377229c10585ec392f89,626b39f8f14131480d3b59d1,,,,,,,,,,,,,,,,,,,,,,,l,1,6.0307,"[""0.036"",""0.277"",""0.660"",""0.728""]","[1,1,0,1]",0,60,60,60,1,1,0,,,1,FALSE,,,,,,,,,,,,,,,,,,,,,,,,,,,,,,
,60dcb62cb1dd4fc5ce3c7fcf,001,2022-04-28_20h06.48.276,classification_task,2021.2.3,Win32,60.21194605,60dcb62cb1dd4fc5ce3c7fcf,626b377229c10585ec392f89,626b39f8f14131480d3b59d1,,,,,,,,,,,,,,,,,,,,,,,a,1,1.7482,"[""0.663"",""0.399"",""0.625"",""0.860""]","[0,1,1,1]",0,61,61,61,1,0,0,,,1,FALSE,,,,,,,,,,,,,,,,,,,,,,,,,,,,,,
,60dcb62cb1dd4fc5ce3c7fcf,001,2022-04-28_20h06.48.276,classification_task,2021.2.3,Win32,60.21194605,60dcb62cb1dd4fc5ce3c7fcf,626b377229c10585ec392f89,626b39f8f14131480d3b59d1,,,,,,,,,,,,,,,,,,,,,,,l,1,1.1484,"[""0.111"",""0.663"",""0.591"",""0.799""]","[1,0,1,1]",0,62,62,62,1,1,1,,,1,FALSE,,,,,,,,,,,,,,,,,,,,,,,,,,,,,,
,60dcb62cb1dd4fc5ce3c7fcf,001,2022-04-28_20h06.48.276,classification_task,2021.2.3,Win32,60.21194605,60dcb62cb1dd4fc5ce3c7fcf,626b377229c10585ec392f89,626b39f8f14131480d3b59d1,,,,,,,,,,,,,,,,,,,,,,,l,1,1.8926,"[""0.679"",""0.195"",""0.591"",""0.799""]","[0,1,1,1]",0,63,63,63,1,1,1,,,1,FALSE,,,,,,,,,,,,,,,,,,,,,,,,,,,,,,
,60dcb62cb1dd4fc5ce3c7fcf,001,2022-04-28_20h06.48.276,classification_task,2021.2.3,Win32,60.21194605,60dcb62cb1dd4fc5ce3c7fcf,626b377229c10585ec392f89,626b39f8f14131480d3b59d1,,,,,,,,,,,,,,,,,,,,,,,,,,,,,,,,,,,,,,,0, ,,0,2.109543406,705.7194,0,0,0,0,1,2,1,,,,,,,,,,,,,,,,,
,60dcb62cb1dd4fc5ce3c7fcf,001,2022-04-28_20h06.48.276,classification_task,2021.2.3,Win32,60.21194605,60dcb62cb1dd4fc5ce3c7fcf,626b377229c10585ec392f89,626b39f8f14131480d3b59d1,,,,,,,,,,,,,,,,,,,,,,,,,,,,,,,,,,,,,,,1,  ,,0,6.518714482,697.8311,0,0,0,0,1,2,1,,,,,,,,,,,,,,,,,
,60dcb62cb1dd4fc5ce3c7fcf,001,2022-04-28_20h06.48.276,classification_task,2021.2.3,Win32,60.21194605,60dcb62cb1dd4fc5ce3c7fcf,626b377229c10585ec392f89,626b39f8f14131480d3b59d1,,,,,,,,,,,,,,,,,,,,,,,,,,,,,,,,,,,,,,,2,  ,,0,6.151283559,696.0778,0,0,0,0,1,2,1,,,,,,,,,,,,,,,,,
,60dcb62cb1dd4fc5ce3c7fcf,001,2022-04-28_20h06.48.276,classification_task,2021.2.3,Win32,60.21194605,60dcb62cb1dd4fc5ce3c7fcf,626b377229c10585ec392f89,626b39f8f14131480d3b59d1,,,,,,,,,,,,,,,,,,,,,,,,,,,,,,,,,,,,,,,,,,,,,0,0,0,0,1,,1,,,,,,,,,,,,,,,,,
,60dcb62cb1dd4fc5ce3c7fcf,001,2022-04-28_20h06.48.276,classification_task,2021.2.3,Win32,60.21194605,60dcb62cb1dd4fc5ce3c7fcf,626b377229c10585ec392f89,626b39f8f14131480d3b59d1,,,,,,,,,,,,,,,,,,,,,space,11.4874,a,1,3.7632,"[""0.235"",""0.399"",""0.625"",""0.071""]","[1,1,1,0]",0,0,0,0,1,0,0,,,1,FALSE,,,,,,,,,,,,,,,,,,,,,,,,,,,,,,
,60dcb62cb1dd4fc5ce3c7fcf,001,2022-04-28_20h06.48.276,classification_task,2021.2.3,Win32,60.21194605,60dcb62cb1dd4fc5ce3c7fcf,626b377229c10585ec392f89,626b39f8f14131480d3b59d1,,,,,,,,,,,,,,,,,,,,,,,l,0,2.1306,"[""0.325"",""0.365"",""0.912"",""0.948""]","[1,0,1,1]",0,1,1,1,1,0,1,,,1,FALSE,,,,,,,,,,,,,,,,,,,,,,,,,,,,,,
,60dcb62cb1dd4fc5ce3c7fcf,001,2022-04-28_20h06.48.276,classification_task,2021.2.3,Win32,60.21194605,60dcb62cb1dd4fc5ce3c7fcf,626b377229c10585ec392f89,626b39f8f14131480d3b59d1,,,,,,,,,,,,,,,,,,,,,,,a,0,2.0549,"[""0.036"",""0.277"",""0.665"",""0.728""]","[1,1,0,1]",0,2,2,2,1,1,0,,,1,FALSE,,,,,,,,,,,,,,,,,,,,,,,,,,,,,,
,60dcb62cb1dd4fc5ce3c7fcf,001,2022-04-28_20h06.48.276,classification_task,2021.2.3,Win32,60.21194605,60dcb62cb1dd4fc5ce3c7fcf,626b377229c10585ec392f89,626b39f8f14131480d3b59d1,,,,,,,,,,,,,,,,,,,,,,,a,0,2.1011,"[""0.111"",""0.158"",""0.591"",""0.799""]","[1,0,1,1]",0,3,3,3,1,1,1,,,1,FALSE,,,,,,,,,,,,,,,,,,,,,,,,,,,,,,
,60dcb62cb1dd4fc5ce3c7fcf,001,2022-04-28_20h06.48.276,classification_task,2021.2.3,Win32,60.21194605,60dcb62cb1dd4fc5ce3c7fcf,626b377229c10585ec392f89,626b39f8f14131480d3b59d1,,,,,,,,,,,,,,,,,,,,,,,a,1,1.5566,"[""0.325"",""0.466"",""0.665"",""0.948""]","[1,1,0,1]",0,4,4,4,1,0,1,,,1,FALSE,,,,,,,,,,,,,,,,,,,,,,,,,,,,,,
,60dcb62cb1dd4fc5ce3c7fcf,001,2022-04-28_20h06.48.276,classification_task,2021.2.3,Win32,60.21194605,60dcb62cb1dd4fc5ce3c7fcf,626b377229c10585ec392f89,626b39f8f14131480d3b59d1,,,,,,,,,,,,,,,,,,,,,,,l,0,3.7476,"[""0.682"",""0.399"",""0.625"",""0.860""]","[0,1,1,1]",0,5,5,5,1,0,0,,,1,FALSE,,,,,,,,,,,,,,,,,,,,,,,,,,,,,,
,60dcb62cb1dd4fc5ce3c7fcf,001,2022-04-28_20h06.48.276,classification_task,2021.2.3,Win32,60.21194605,60dcb62cb1dd4fc5ce3c7fcf,626b377229c10585ec392f89,626b39f8f14131480d3b59d1,,,,,,,,,,,,,,,,,,,,,,,l,0,1.9494,"[""0.235"",""0.365"",""0.625"",""0.860""]","[1,0,1,1]",0,6,6,6,1,0,0,,,1,FALSE,,,,,,,,,,,,,,,,,,,,,,,,,,,,,,
,60dcb62cb1dd4fc5ce3c7fcf,001,2022-04-28_20h06.48.276,classification_task,2021.2.3,Win32,60.21194605,60dcb62cb1dd4fc5ce3c7fcf,626b377229c10585ec392f89,626b39f8f14131480d3b59d1,,,,,,,,,,,,,,,,,,,,,,,a,0,3.5571,"[""0.036"",""0.277"",""0.532"",""0.075""]","[1,1,1,0]",0,7,7,7,1,1,0,,,1,FALSE,,,,,,,,,,,,,,,,,,,,,,,,,,,,,,
,60dcb62cb1dd4fc5ce3c7fcf,001,2022-04-28_20h06.48.276,classification_task,2021.2.3,Win32,60.21194605,60dcb62cb1dd4fc5ce3c7fcf,626b377229c10585ec392f89,626b39f8f14131480d3b59d1,,,,,,,,,,,,,,,,,,,,,,,a,1,1.9891,"[""0.235"",""0.399"",""0.145"",""0.860""]","[1,1,0,1]",0,8,8,8,1,0,0,,,1,FALSE,,,,,,,,,,,,,,,,,,,,,,,,,,,,,,
,60dcb62cb1dd4fc5ce3c7fcf,001,2022-04-28_20h06.48.276,classification_task,2021.2.3,Win32,60.21194605,60dcb62cb1dd4fc5ce3c7fcf,626b377229c10585ec392f89,626b39f8f14131480d3b59d1,,,,,,,,,,,,,,,,,,,,,,,l,1,3.0843,"[""0.036"",""0.682"",""0.532"",""0.728""]","[1,0,1,1]",0,9,9,9,1,1,0,,,1,FALSE,,,,,,,,,,,,,,,,,,,,,,,,,,,,,,
,60dcb62cb1dd4fc5ce3c7fcf,001,2022-04-28_20h06.48.276,classification_task,2021.2.3,Win32,60.21194605,60dcb62cb1dd4fc5ce3c7fcf,626b377229c10585ec392f89,626b39f8f14131480d3b59d1,,,,,,,,,,,,,,,,,,,,,,,l,0,3.5496,"[""0.077"",""0.466"",""0.912"",""0.948""]","[0,1,1,1]",0,10,10,10,1,0,1,,,1,FALSE,,,,,,,,,,,,,,,,,,,,,,,,,,,,,,
,60dcb62cb1dd4fc5ce3c7fcf,001,2022-04-28_20h06.48.276,classification_task,2021.2.3,Win32,60.21194605,60dcb62cb1dd4fc5ce3c7fcf,626b377229c10585ec392f89,626b39f8f14131480d3b59d1,,,,,,,,,,,,,,,,,,,,,,,l,1,1.4155,"[""0.075"",""0.195"",""0.591"",""0.799""]","[0,1,1,1]",0,11,11,11,1,1,1,,,1,FALSE,,,,,,,,,,,,,,,,,,,,,,,,,,,,,,
,60dcb62cb1dd4fc5ce3c7fcf,001,2022-04-28_20h06.48.276,classification_task,2021.2.3,Win32,60.21194605,60dcb62cb1dd4fc5ce3c7fcf,626b377229c10585ec392f89,626b39f8f14131480d3b59d1,,,,,,,,,,,,,,,,,,,,,,,l,1,1.085,"[""0.111"",""0.195"",""0.359"",""0.799""]","[1,1,0,1]",0,12,12,12,1,1,1,,,1,FALSE,,,,,,,,,,,,,,,,,,,,,,,,,,,,,,
,60dcb62cb1dd4fc5ce3c7fcf,001,2022-04-28_20h06.48.276,classification_task,2021.2.3,Win32,60.21194605,60dcb62cb1dd4fc5ce3c7fcf,626b377229c10585ec392f89,626b39f8f14131480d3b59d1,,,,,,,,,,,,,,,,,,,,,,,l,1,1.6155,"[""0.111"",""0.195"",""0.591"",""0.663""]","[1,1,1,0]",0,13,13,13,1,1,1,,,1,FALSE,,,,,,,,,,,,,,,,,,,,,,,,,,,,,,
,60dcb62cb1dd4fc5ce3c7fcf,001,2022-04-28_20h06.48.276,classification_task,2021.2.3,Win32,60.21194605,60dcb62cb1dd4fc5ce3c7fcf,626b377229c10585ec392f89,626b39f8f14131480d3b59d1,,,,,,,,,,,,,,,,,,,,,,,a,1,0.7582,"[""0.325"",""0.466"",""0.912"",""0.682""]","[1,1,1,0]",0,14,14,14,1,0,1,,,1,FALSE,,,,,,,,,,,,,,,,,,,,,,,,,,,,,,
,60dcb62cb1dd4fc5ce3c7fcf,001,2022-04-28_20h06.48.276,classification_task,2021.2.3,Win32,60.21194605,60dcb62cb1dd4fc5ce3c7fcf,626b377229c10585ec392f89,626b39f8f14131480d3b59d1,,,,,,,,,,,,,,,,,,,,,,,a,0,1.448,"[""0.071"",""0.277"",""0.532"",""0.728""]","[0,1,1,1]",0,15,15,15,1,1,0,,,1,FALSE,,,,,,,,,,,,,,,,,,,,,,,,,,,,,,
,60dcb62cb1dd4fc5ce3c7fcf,001,2022-04-28_20h06.48.276,classification_task,2021.2.3,Win32,60.21194605,60dcb62cb1dd4fc5ce3c7fcf,626b377229c10585ec392f89,626b39f8f14131480d3b59d1,,,,,,,,,,,,,,,,,,,,,,,l,1,1.3005,"[""0.111"",""0.195"",""0.682"",""0.799""]","[1,1,0,1]",0,16,16,16,1,1,1,,,1,FALSE,,,,,,,,,,,,,,,,,,,,,,,,,,,,,,
,60dcb62cb1dd4fc5ce3c7fcf,001,2022-04-28_20h06.48.276,classification_task,2021.2.3,Win32,60.21194605,60dcb62cb1dd4fc5ce3c7fcf,626b377229c10585ec392f89,626b39f8f14131480d3b59d1,,,,,,,,,,,,,,,,,,,,,,,a,1,1.118,"[""0.325"",""0.359"",""0.912"",""0.948""]","[1,0,1,1]",0,17,17,17,1,0,1,,,1,FALSE,,,,,,,,,,,,,,,,,,,,,,,,,,,,,,
,60dcb62cb1dd4fc5ce3c7fcf,001,2022-04-28_20h06.48.276,classification_task,2021.2.3,Win32,60.21194605,60dcb62cb1dd4fc5ce3c7fcf,626b377229c10585ec392f89,626b39f8f14131480d3b59d1,,,,,,,,,,,,,,,,,,,,,,,l,1,0.7565,"[""0.111"",""0.072"",""0.591"",""0.799""]","[1,0,1,1]",0,18,18,18,1,1,1,,,1,FALSE,,,,,,,,,,,,,,,,,,,,,,,,,,,,,,
,60dcb62cb1dd4fc5ce3c7fcf,001,2022-04-28_20h06.48.276,classification_task,2021.2.3,Win32,60.21194605,60dcb62cb1dd4fc5ce3c7fcf,626b377229c10585ec392f89,626b39f8f14131480d3b59d1,,,,,,,,,,,,,,,,,,,,,,,a,1,1.5731,"[""0.235"",""0.072"",""0.625"",""0.860""]","[1,0,1,1]",0,19,19,19,1,0,0,,,1,FALSE,,,,,,,,,,,,,,,,,,,,,,,,,,,,,,
,60dcb62cb1dd4fc5ce3c7fcf,001,2022-04-28_20h06.48.276,classification_task,2021.2.3,Win32,60.21194605,60dcb62cb1dd4fc5ce3c7fcf,626b377229c10585ec392f89,626b39f8f14131480d3b59d1,,,,,,,,,,,,,,,,,,,,,,,a,0,2.7595,"[""0.036"",""0.277"",""0.145"",""0.728""]","[1,1,0,1]",0,20,20,20,1,1,0,,,1,FALSE,,,,,,,,,,,,,,,,,,,,,,,,,,,,,,
,60dcb62cb1dd4fc5ce3c7fcf,001,2022-04-28_20h06.48.276,classification_task,2021.2.3,Win32,60.21194605,60dcb62cb1dd4fc5ce3c7fcf,626b377229c10585ec392f89,626b39f8f14131480d3b59d1,,,,,,,,,,,,,,,,,,,,,,,l,1,0.7665,"[""0.036"",""0.682"",""0.532"",""0.728""]","[1,0,1,1]",0,21,21,21,1,1,0,,,1,FALSE,,,,,,,,,,,,,,,,,,,,,,,,,,,,,,
,60dcb62cb1dd4fc5ce3c7fcf,001,2022-04-28_20h06.48.276,classification_task,2021.2.3,Win32,60.21194605,60dcb62cb1dd4fc5ce3c7fcf,626b377229c10585ec392f89,626b39f8f14131480d3b59d1,,,,,,,,,,,,,,,,,,,,,,,l,0,2.5836,"[""0.235"",""0.399"",""0.625"",""0.679""]","[1,1,1,0]",0,22,22,22,1,0,0,,,1,FALSE,,,,,,,,,,,,,,,,,,,,,,,,,,,,,,
,60dcb62cb1dd4fc5ce3c7fcf,001,2022-04-28_20h06.48.276,classification_task,2021.2.3,Win32,60.21194605,60dcb62cb1dd4fc5ce3c7fcf,626b377229c10585ec392f89,626b39f8f14131480d3b59d1,,,,,,,,,,,,,,,,,,,,,,,l,1,4.2817,"[""0.036"",""0.277"",""0.532"",""0.145""]","[1,1,1,0]",0,23,23,23,1,1,0,,,1,FALSE,,,,,,,,,,,,,,,,,,,,,,,,,,,,,,
,60dcb62cb1dd4fc5ce3c7fcf,001,2022-04-28_20h06.48.276,classification_task,2021.2.3,Win32,60.21194605,60dcb62cb1dd4fc5ce3c7fcf,626b377229c10585ec392f89,626b39f8f14131480d3b59d1,,,,,,,,,,,,,,,,,,,,,,,a,1,1.772,"[""0.325"",""0.466"",""0.912"",""0.072""]","[1,1,1,0]",0,24,24,24,1,0,1,,,1,FALSE,,,,,,,,,,,,,,,,,,,,,,,,,,,,,,
,60dcb62cb1dd4fc5ce3c7fcf,001,2022-04-28_20h06.48.276,classification_task,2021.2.3,Win32,60.21194605,60dcb62cb1dd4fc5ce3c7fcf,626b377229c10585ec392f89,626b39f8f14131480d3b59d1,,,,,,,,,,,,,,,,,,,,,,,l,0,3.9809,"[""0.365"",""0.399"",""0.625"",""0.860""]","[0,1,1,1]",0,25,25,25,1,0,0,,,1,FALSE,,,,,,,,,,,,,,,,,,,,,,,,,,,,,,
,60dcb62cb1dd4fc5ce3c7fcf,001,2022-04-28_20h06.48.276,classification_task,2021.2.3,Win32,60.21194605,60dcb62cb1dd4fc5ce3c7fcf,626b377229c10585ec392f89,626b39f8f14131480d3b59d1,,,,,,,,,,,,,,,,,,,,,,,a,1,1.492,"[""0.158"",""0.466"",""0.912"",""0.948""]","[0,1,1,1]",0,26,26,26,1,0,1,,,1,FALSE,,,,,,,,,,,,,,,,,,,,,,,,,,,,,,
,60dcb62cb1dd4fc5ce3c7fcf,001,2022-04-28_20h06.48.276,classification_task,2021.2.3,Win32,60.21194605,60dcb62cb1dd4fc5ce3c7fcf,626b377229c10585ec392f89,626b39f8f14131480d3b59d1,,,,,,,,,,,,,,,,,,,,,,,a,1,0.7123,"[""0.325"",""0.466"",""0.072"",""0.948""]","[1,1,0,1]",0,27,27,27,1,0,1,,,1,FALSE,,,,,,,,,,,,,,,,,,,,,,,,,,,,,,
,60dcb62cb1dd4fc5ce3c7fcf,001,2022-04-28_20h06.48.276,classification_task,2021.2.3,Win32,60.21194605,60dcb62cb1dd4fc5ce3c7fcf,626b377229c10585ec392f89,626b39f8f14131480d3b59d1,,,,,,,,,,,,,,,,,,,,,,,l,1,0.848,"[""0.077"",""0.195"",""0.591"",""0.799""]","[0,1,1,1]",0,28,28,28,1,1,1,,,1,FALSE,,,,,,,,,,,,,,,,,,,,,,,,,,,,,,
,60dcb62cb1dd4fc5ce3c7fcf,001,2022-04-28_20h06.48.276,classification_task,2021.2.3,Win32,60.21194605,60dcb62cb1dd4fc5ce3c7fcf,626b377229c10585ec392f89,626b39f8f14131480d3b59d1,,,,,,,,,,,,,,,,,,,,,,,a,0,3.3472,"[""0.365"",""0.277"",""0.532"",""0.728""]","[0,1,1,1]",0,29,29,29,1,1,0,,,1,FALSE,,,,,,,,,,,,,,,,,,,,,,,,,,,,,,
,60dcb62cb1dd4fc5ce3c7fcf,001,2022-04-28_20h06.48.276,classification_task,2021.2.3,Win32,60.21194605,60dcb62cb1dd4fc5ce3c7fcf,626b377229c10585ec392f89,626b39f8f14131480d3b59d1,,,,,,,,,,,,,,,,,,,,,,,l,1,1.3906,"[""0.111"",""0.195"",""0.591"",""0.158""]","[1,1,1,0]",0,30,30,30,1,1,1,,,1,FALSE,,,,,,,,,,,,,,,,,,,,,,,,,,,,,,
,60dcb62cb1dd4fc5ce3c7fcf,001,2022-04-28_20h06.48.276,classification_task,2021.2.3,Win32,60.21194605,60dcb62cb1dd4fc5ce3c7fcf,626b377229c10585ec392f89,626b39f8f14131480d3b59d1,,,,,,,,,,,,,,,,,,,,,,,a,1,3.5216,"[""0.235"",""0.399"",""0.075"",""0.860""]","[1,1,0,1]",0,31,31,31,1,0,0,,,1,FALSE,,,,,,,,,,,,,,,,,,,,,,,,,,,,,,
,60dcb62cb1dd4fc5ce3c7fcf,001,2022-04-28_20h06.48.276,classification_task,2021.2.3,Win32,60.21194605,60dcb62cb1dd4fc5ce3c7fcf,626b377229c10585ec392f89,626b39f8f14131480d3b59d1,,,,,,,,,,,,,,,,,,,,,,,l,0,3.3662,"[""0.325"",""0.466"",""0.912"",""0.682""]","[1,1,1,0]",0,32,32,32,1,0,1,,,1,FALSE,,,,,,,,,,,,,,,,,,,,,,,,,,,,,,
,60dcb62cb1dd4fc5ce3c7fcf,001,2022-04-28_20h06.48.276,classification_task,2021.2.3,Win32,60.21194605,60dcb62cb1dd4fc5ce3c7fcf,626b377229c10585ec392f89,626b39f8f14131480d3b59d1,,,,,,,,,,,,,,,,,,,,,,,a,1,3.4896,"[""0.072"",""0.399"",""0.625"",""0.860""]","[0,1,1,1]",0,33,33,33,1,0,0,,,1,FALSE,,,,,,,,,,,,,,,,,,,,,,,,,,,,,,
,60dcb62cb1dd4fc5ce3c7fcf,001,2022-04-28_20h06.48.276,classification_task,2021.2.3,Win32,60.21194605,60dcb62cb1dd4fc5ce3c7fcf,626b377229c10585ec392f89,626b39f8f14131480d3b59d1,,,,,,,,,,,,,,,,,,,,,,,l,1,3.0565,"[""0.111"",""0.195"",""0.665"",""0.799""]","[1,1,0,1]",0,34,34,34,1,1,1,,,1,FALSE,,,,,,,,,,,,,,,,,,,,,,,,,,,,,,
,60dcb62cb1dd4fc5ce3c7fcf,001,2022-04-28_20h06.48.276,classification_task,2021.2.3,Win32,60.21194605,60dcb62cb1dd4fc5ce3c7fcf,626b377229c10585ec392f89,626b39f8f14131480d3b59d1,,,,,,,,,,,,,,,,,,,,,,,a,0,2.4375,"[""0.036"",""0.277"",""0.077"",""0.728""]","[1,1,0,1]",0,35,35,35,1,1,0,,,1,FALSE,,,,,,,,,,,,,,,,,,,,,,,,,,,,,,
,60dcb62cb1dd4fc5ce3c7fcf,001,2022-04-28_20h06.48.276,classification_task,2021.2.3,Win32,60.21194605,60dcb62cb1dd4fc5ce3c7fcf,626b377229c10585ec392f89,626b39f8f14131480d3b59d1,,,,,,,,,,,,,,,,,,,,,,,l,0,2.5635,"[""0.235"",""0.075"",""0.625"",""0.860""]","[1,0,1,1]",0,36,36,36,1,0,0,,,1,FALSE,,,,,,,,,,,,,,,,,,,,,,,,,,,,,,
,60dcb62cb1dd4fc5ce3c7fcf,001,2022-04-28_20h06.48.276,classification_task,2021.2.3,Win32,60.21194605,60dcb62cb1dd4fc5ce3c7fcf,626b377229c10585ec392f89,626b39f8f14131480d3b59d1,,,,,,,,,,,,,,,,,,,,,,,a,1,1.7508,"[""0.325"",""0.466"",""0.158"",""0.948""]","[1,1,0,1]",0,37,37,37,1,0,1,,,1,FALSE,,,,,,,,,,,,,,,,,,,,,,,,,,,,,,
,60dcb62cb1dd4fc5ce3c7fcf,001,2022-04-28_20h06.48.276,classification_task,2021.2.3,Win32,60.21194605,60dcb62cb1dd4fc5ce3c7fcf,626b377229c10585ec392f89,626b39f8f14131480d3b59d1,,,,,,,,,,,,,,,,,,,,,,,l,0,1.5372,"[""0.235"",""0.399"",""0.679"",""0.860""]","[1,1,0,1]",0,38,38,38,1,0,0,,,1,FALSE,,,,,,,,,,,,,,,,,,,,,,,,,,,,,,
,60dcb62cb1dd4fc5ce3c7fcf,001,2022-04-28_20h06.48.276,classification_task,2021.2.3,Win32,60.21194605,60dcb62cb1dd4fc5ce3c7fcf,626b377229c10585ec392f89,626b39f8f14131480d3b59d1,,,,,,,,,,,,,,,,,,,,,,,l,1,3.8309,"[""0.665"",""0.195"",""0.591"",""0.799""]","[0,1,1,1]",0,39,39,39,1,1,1,,,1,FALSE,,,,,,,,,,,,,,,,,,,,,,,,,,,,,,
,60dcb62cb1dd4fc5ce3c7fcf,001,2022-04-28_20h06.48.276,classification_task,2021.2.3,Win32,60.21194605,60dcb62cb1dd4fc5ce3c7fcf,626b377229c10585ec392f89,626b39f8f14131480d3b59d1,,,,,,,,,,,,,,,,,,,,,,,a,1,1.3567,"[""0.077"",""0.466"",""0.912"",""0.948""]","[0,1,1,1]",0,40,40,40,1,0,1,,,1,FALSE,,,,,,,,,,,,,,,,,,,,,,,,,,,,,,
,60dcb62cb1dd4fc5ce3c7fcf,001,2022-04-28_20h06.48.276,classification_task,2021.2.3,Win32,60.21194605,60dcb62cb1dd4fc5ce3c7fcf,626b377229c10585ec392f89,626b39f8f14131480d3b59d1,,,,,,,,,,,,,,,,,,,,,,,a,1,0.731,"[""0.325"",""0.072"",""0.912"",""0.948""]","[1,0,1,1]",0,41,41,41,1,0,1,,,1,FALSE,,,,,,,,,,,,,,,,,,,,,,,,,,,,,,
,60dcb62cb1dd4fc5ce3c7fcf,001,2022-04-28_20h06.48.276,classification_task,2021.2.3,Win32,60.21194605,60dcb62cb1dd4fc5ce3c7fcf,626b377229c10585ec392f89,626b39f8f14131480d3b59d1,,,,,,,,,,,,,,,,,,,,,,,l,1,3.5629,"[""0.036"",""0.277"",""0.532"",""0.763""]","[1,1,1,0]",0,42,42,42,1,1,0,,,1,FALSE,,,,,,,,,,,,,,,,,,,,,,,,,,,,,,
,60dcb62cb1dd4fc5ce3c7fcf,001,2022-04-28_20h06.48.276,classification_task,2021.2.3,Win32,60.21194605,60dcb62cb1dd4fc5ce3c7fcf,626b377229c10585ec392f89,626b39f8f14131480d3b59d1,,,,,,,,,,,,,,,,,,,,,,,l,0,2.5829,"[""0.235"",""0.399"",""0.625"",""0.071""]","[1,1,1,0]",0,43,43,43,1,0,0,,,1,FALSE,,,,,,,,,,,,,,,,,,,,,,,,,,,,,,
,60dcb62cb1dd4fc5ce3c7fcf,001,2022-04-28_20h06.48.276,classification_task,2021.2.3,Win32,60.21194605,60dcb62cb1dd4fc5ce3c7fcf,626b377229c10585ec392f89,626b39f8f14131480d3b59d1,,,,,,,,,,,,,,,,,,,,,,,l,1,2.2799,"[""0.111"",""0.679"",""0.591"",""0.799""]","[1,0,1,1]",0,44,44,44,1,1,1,,,1,FALSE,,,,,,,,,,,,,,,,,,,,,,,,,,,,,,
,60dcb62cb1dd4fc5ce3c7fcf,001,2022-04-28_20h06.48.276,classification_task,2021.2.3,Win32,60.21194605,60dcb62cb1dd4fc5ce3c7fcf,626b377229c10585ec392f89,626b39f8f14131480d3b59d1,,,,,,,,,,,,,,,,,,,,,,,l,1,1.1481,"[""0.111"",""0.195"",""0.591"",""0.763""]","[1,1,1,0]",0,45,45,45,1,1,1,,,1,FALSE,,,,,,,,,,,,,,,,,,,,,,,,,,,,,,
,60dcb62cb1dd4fc5ce3c7fcf,001,2022-04-28_20h06.48.276,classification_task,2021.2.3,Win32,60.21194605,60dcb62cb1dd4fc5ce3c7fcf,626b377229c10585ec392f89,626b39f8f14131480d3b59d1,,,,,,,,,,,,,,,,,,,,,,,a,0,1.3834,"[""0.036"",""0.359"",""0.532"",""0.728""]","[1,0,1,1]",0,46,46,46,1,1,0,,,1,FALSE,,,,,,,,,,,,,,,,,,,,,,,,,,,,,,
,60dcb62cb1dd4fc5ce3c7fcf,001,2022-04-28_20h06.48.276,classification_task,2021.2.3,Win32,60.21194605,60dcb62cb1dd4fc5ce3c7fcf,626b377229c10585ec392f89,626b39f8f14131480d3b59d1,,,,,,,,,,,,,,,,,,,,,,,l,1,1.295,"[""0.682"",""0.277"",""0.532"",""0.728""]","[0,1,1,1]",0,47,47,47,1,1,0,,,1,FALSE,,,,,,,,,,,,,,,,,,,,,,,,,,,,,,
,60dcb62cb1dd4fc5ce3c7fcf,001,2022-04-28_20h06.48.276,classification_task,2021.2.3,Win32,60.21194605,60dcb62cb1dd4fc5ce3c7fcf,626b377229c10585ec392f89,626b39f8f14131480d3b59d1,,,,,,,,,,,,,,,,,,,,,,,a,1,4.7822,"[""0.665"",""0.466"",""0.912"",""0.948""]","[0,1,1,1]",0,48,48,48,1,0,1,,,1,FALSE,,,,,,,,,,,,,,,,,,,,,,,,,,,,,,
,60dcb62cb1dd4fc5ce3c7fcf,001,2022-04-28_20h06.48.276,classification_task,2021.2.3,Win32,60.21194605,60dcb62cb1dd4fc5ce3c7fcf,626b377229c10585ec392f89,626b39f8f14131480d3b59d1,,,,,,,,,,,,,,,,,,,,,,,a,0,2.6667,"[""0.111"",""0.665"",""0.591"",""0.799""]","[1,0,1,1]",0,49,49,49,1,1,1,,,1,FALSE,,,,,,,,,,,,,,,,,,,,,,,,,,,,,,
,60dcb62cb1dd4fc5ce3c7fcf,001,2022-04-28_20h06.48.276,classification_task,2021.2.3,Win32,60.21194605,60dcb62cb1dd4fc5ce3c7fcf,626b377229c10585ec392f89,626b39f8f14131480d3b59d1,,,,,,,,,,,,,,,,,,,,,,,l,0,2.9368,"[""0.235"",""0.399"",""0.625"",""0.679""]","[1,1,1,0]",0,50,50,50,1,0,0,,,1,FALSE,,,,,,,,,,,,,,,,,,,,,,,,,,,,,,
,60dcb62cb1dd4fc5ce3c7fcf,001,2022-04-28_20h06.48.276,classification_task,2021.2.3,Win32,60.21194605,60dcb62cb1dd4fc5ce3c7fcf,626b377229c10585ec392f89,626b39f8f14131480d3b59d1,,,,,,,,,,,,,,,,,,,,,,,l,0,1.6033,"[""0.325"",""0.763"",""0.912"",""0.948""]","[1,0,1,1]",0,51,51,51,1,0,1,,,1,FALSE,,,,,,,,,,,,,,,,,,,,,,,,,,,,,,
,60dcb62cb1dd4fc5ce3c7fcf,001,2022-04-28_20h06.48.276,classification_task,2021.2.3,Win32,60.21194605,60dcb62cb1dd4fc5ce3c7fcf,626b377229c10585ec392f89,626b39f8f14131480d3b59d1,,,,,,,,,,,,,,,,,,,,,,,a,1,1.4958,"[""0.682"",""0.399"",""0.625"",""0.860""]","[0,1,1,1]",0,52,52,52,1,0,0,,,1,FALSE,,,,,,,,,,,,,,,,,,,,,,,,,,,,,,
,60dcb62cb1dd4fc5ce3c7fcf,001,2022-04-28_20h06.48.276,classification_task,2021.2.3,Win32,60.21194605,60dcb62cb1dd4fc5ce3c7fcf,626b377229c10585ec392f89,626b39f8f14131480d3b59d1,,,,,,,,,,,,,,,,,,,,,,,a,0,1.2182,"[""0.111"",""0.195"",""0.591"",""0.665""]","[1,1,1,0]",0,53,53,53,1,1,1,,,1,FALSE,,,,,,,,,,,,,,,,,,,,,,,,,,,,,,
,60dcb62cb1dd4fc5ce3c7fcf,001,2022-04-28_20h06.48.276,classification_task,2021.2.3,Win32,60.21194605,60dcb62cb1dd4fc5ce3c7fcf,626b377229c10585ec392f89,626b39f8f14131480d3b59d1,,,,,,,,,,,,,,,,,,,,,,,l,0,1.0992,"[""0.325"",""0.466"",""0.072"",""0.948""]","[1,1,0,1]",0,54,54,54,1,0,1,,,1,FALSE,,,,,,,,,,,,,,,,,,,,,,,,,,,,,,
,60dcb62cb1dd4fc5ce3c7fcf,001,2022-04-28_20h06.48.276,classification_task,2021.2.3,Win32,60.21194605,60dcb62cb1dd4fc5ce3c7fcf,626b377229c10585ec392f89,626b39f8f14131480d3b59d1,,,,,,,,,,,,,,,,,,,,,,,l,1,1.236,"[""0.111"",""0.195"",""0.072"",""0.799""]","[1,1,0,1]",0,55,55,55,1,1,1,,,1,FALSE,,,,,,,,,,,,,,,,,,,,,,,,,,,,,,
,60dcb62cb1dd4fc5ce3c7fcf,001,2022-04-28_20h06.48.276,classification_task,2021.2.3,Win32,60.21194605,60dcb62cb1dd4fc5ce3c7fcf,626b377229c10585ec392f89,626b39f8f14131480d3b59d1,,,,,,,,,,,,,,,,,,,,,,,a,1,2.5285,"[""0.235"",""0.399"",""0.075"",""0.860""]","[1,1,0,1]",0,56,56,56,1,0,0,,,1,FALSE,,,,,,,,,,,,,,,,,,,,,,,,,,,,,,
,60dcb62cb1dd4fc5ce3c7fcf,001,2022-04-28_20h06.48.276,classification_task,2021.2.3,Win32,60.21194605,60dcb62cb1dd4fc5ce3c7fcf,626b377229c10585ec392f89,626b39f8f14131480d3b59d1,,,,,,,,,,,,,,,,,,,,,,,a,0,0.9652,"[""0.036"",""0.277"",""0.663"",""0.728""]","[1,1,0,1]",0,57,57,57,1,1,0,,,1,FALSE,,,,,,,,,,,,,,,,,,,,,,,,,,,,,,
,60dcb62cb1dd4fc5ce3c7fcf,001,2022-04-28_20h06.48.276,classification_task,2021.2.3,Win32,60.21194605,60dcb62cb1dd4fc5ce3c7fcf,626b377229c10585ec392f89,626b39f8f14131480d3b59d1,,,,,,,,,,,,,,,,,,,,,,,l,1,0.4969,"[""0.665"",""0.277"",""0.532"",""0.728""]","[0,1,1,1]",0,58,58,58,1,1,0,,,1,FALSE,,,,,,,,,,,,,,,,,,,,,,,,,,,,,,
,60dcb62cb1dd4fc5ce3c7fcf,001,2022-04-28_20h06.48.276,classification_task,2021.2.3,Win32,60.21194605,60dcb62cb1dd4fc5ce3c7fcf,626b377229c10585ec392f89,626b39f8f14131480d3b59d1,,,,,,,,,,,,,,,,,,,,,,,l,0,0.5634,"[""0.235"",""0.365"",""0.625"",""0.860""]","[1,0,1,1]",0,59,59,59,1,0,0,,,1,FALSE,,,,,,,,,,,,,,,,,,,,,,,,,,,,,,
,60dcb62cb1dd4fc5ce3c7fcf,001,2022-04-28_20h06.48.276,classification_task,2021.2.3,Win32,60.21194605,60dcb62cb1dd4fc5ce3c7fcf,626b377229c10585ec392f89,626b39f8f14131480d3b59d1,,,,,,,,,,,,,,,,,,,,,,,a,0,1.8327,"[""0.036"",""0.679"",""0.532"",""0.728""]","[1,0,1,1]",0,60,60,60,1,1,0,,,1,FALSE,,,,,,,,,,,,,,,,,,,,,,,,,,,,,,
,60dcb62cb1dd4fc5ce3c7fcf,001,2022-04-28_20h06.48.276,classification_task,2021.2.3,Win32,60.21194605,60dcb62cb1dd4fc5ce3c7fcf,626b377229c10585ec392f89,626b39f8f14131480d3b59d1,,,,,,,,,,,,,,,,,,,,,,,l,0,2.0979,"[""0.325"",""0.466"",""0.912"",""0.075""]","[1,1,1,0]",0,61,61,61,1,0,1,,,1,FALSE,,,,,,,,,,,,,,,,,,,,,,,,,,,,,,
,60dcb62cb1dd4fc5ce3c7fcf,001,2022-04-28_20h06.48.276,classification_task,2021.2.3,Win32,60.21194605,60dcb62cb1dd4fc5ce3c7fcf,626b377229c10585ec392f89,626b39f8f14131480d3b59d1,,,,,,,,,,,,,,,,,,,,,,,a,0,1.8012,"[""0.075"",""0.195"",""0.591"",""0.799""]","[0,1,1,1]",0,62,62,62,1,1,1,,,1,FALSE,,,,,,,,,,,,,,,,,,,,,,,,,,,,,,
,60dcb62cb1dd4fc5ce3c7fcf,001,2022-04-28_20h06.48.276,classification_task,2021.2.3,Win32,60.21194605,60dcb62cb1dd4fc5ce3c7fcf,626b377229c10585ec392f89,626b39f8f14131480d3b59d1,,,,,,,,,,,,,,,,,,,,,,,a,0,1.3029,"[""0.036"",""0.277"",""0.532"",""0.077""]","[1,1,1,0]",0,63,63,63,1,1,0,,,1,FALSE,,,,,,,,,,,,,,,,,,,,,,,,,,,,,,
,60dcb62cb1dd4fc5ce3c7fcf,001,2022-04-28_20h06.48.276,classification_task,2021.2.3,Win32,60.21194605,60dcb62cb1dd4fc5ce3c7fcf,626b377229c10585ec392f89,626b39f8f14131480d3b59d1,,,,,,,,,,,,,,,,,,,,,,,,,,,,,,,,,,,,,,,0, ,,0,1.497158534,223.7913,0,1,1,1,1,2,2,,,,,,,,,,,,,,,,,
,60dcb62cb1dd4fc5ce3c7fcf,001,2022-04-28_20h06.48.276,classification_task,2021.2.3,Win32,60.21194605,60dcb62cb1dd4fc5ce3c7fcf,626b377229c10585ec392f89,626b39f8f14131480d3b59d1,,,,,,,,,,,,,,,,,,,,,,,,,,,,,,,,,,,,,,,1,  ,,0,7.400548697,231.4063,0,1,1,1,1,2,2,,,,,,,,,,,,,,,,,
,60dcb62cb1dd4fc5ce3c7fcf,001,2022-04-28_20h06.48.276,classification_task,2021.2.3,Win32,60.21194605,60dcb62cb1dd4fc5ce3c7fcf,626b377229c10585ec392f89,626b39f8f14131480d3b59d1,,,,,,,,,,,,,,,,,,,,,,,,,,,,,,,,,,,,,,,2,  ,,0,6.86165001,238.9998,0,1,1,1,1,2,2,,,,,,,,,,,,,,,,,
,60dcb62cb1dd4fc5ce3c7fcf,001,2022-04-28_20h06.48.276,classification_task,2021.2.3,Win32,60.21194605,60dcb62cb1dd4fc5ce3c7fcf,626b377229c10585ec392f89,626b39f8f14131480d3b59d1,,,,,,,,,,,,,,,,,,,,,,,,,,,,,,,,,,,,,,,,,,,,,0,1,1,1,1,,2,,,,,,,,,,,,,,,,,
,60dcb62cb1dd4fc5ce3c7fcf,001,2022-04-28_20h06.48.276,classification_task,2021.2.3,Win32,60.21194605,60dcb62cb1dd4fc5ce3c7fcf,626b377229c10585ec392f89,626b39f8f14131480d3b59d1,,,,,,,,,,,,,,,,,,,,,space,10.6491,l,0,4.4402,"[""0.325"",""0.072"",""0.912"",""0.948""]","[1,0,1,1]",0,0,0,0,1,0,1,,,1,FALSE,,,,,,,,,,,,,,,,,,,,,,,,,,,,,,
,60dcb62cb1dd4fc5ce3c7fcf,001,2022-04-28_20h06.48.276,classification_task,2021.2.3,Win32,60.21194605,60dcb62cb1dd4fc5ce3c7fcf,626b377229c10585ec392f89,626b39f8f14131480d3b59d1,,,,,,,,,,,,,,,,,,,,,,,a,1,3.7778,"[""0.325"",""0.466"",""0.912"",""0.158""]","[1,1,1,0]",0,1,1,1,1,0,1,,,1,FALSE,,,,,,,,,,,,,,,,,,,,,,,,,,,,,,
,60dcb62cb1dd4fc5ce3c7fcf,001,2022-04-28_20h06.48.276,classification_task,2021.2.3,Win32,60.21194605,60dcb62cb1dd4fc5ce3c7fcf,626b377229c10585ec392f89,626b39f8f14131480d3b59d1,,,,,,,,,,,,,,,,,,,,,,,a,1,1.4089,"[""0.235"",""0.399"",""0.075"",""0.860""]","[1,1,0,1]",0,2,2,2,1,0,0,,,1,FALSE,,,,,,,,,,,,,,,,,,,,,,,,,,,,,,
,60dcb62cb1dd4fc5ce3c7fcf,001,2022-04-28_20h06.48.276,classification_task,2021.2.3,Win32,60.21194605,60dcb62cb1dd4fc5ce3c7fcf,626b377229c10585ec392f89,626b39f8f14131480d3b59d1,,,,,,,,,,,,,,,,,,,,,,,a,0,1.534,"[""0.036"",""0.277"",""0.359"",""0.728""]","[1,1,0,1]",0,3,3,3,1,1,0,,,1,FALSE,,,,,,,,,,,,,,,,,,,,,,,,,,,,,,
,60dcb62cb1dd4fc5ce3c7fcf,001,2022-04-28_20h06.48.276,classification_task,2021.2.3,Win32,60.21194605,60dcb62cb1dd4fc5ce3c7fcf,626b377229c10585ec392f89,626b39f8f14131480d3b59d1,,,,,,,,,,,,,,,,,,,,,,,l,0,0.86,"[""0.235"",""0.399"",""0.625"",""0.763""]","[1,1,1,0]",0,4,4,4,1,0,0,,,1,FALSE,,,,,,,,,,,,,,,,,,,,,,,,,,,,,,
,60dcb62cb1dd4fc5ce3c7fcf,001,2022-04-28_20h06.48.276,classification_task,2021.2.3,Win32,60.21194605,60dcb62cb1dd4fc5ce3c7fcf,626b377229c10585ec392f89,626b39f8f14131480d3b59d1,,,,,,,,,,,,,,,,,,,,,,,l,0,1.0576,"[""0.365"",""0.399"",""0.625"",""0.860""]","[0,1,1,1]",0,5,5,5,1,0,0,,,1,FALSE,,,,,,,,,,,,,,,,,,,,,,,,,,,,,,
,60dcb62cb1dd4fc5ce3c7fcf,001,2022-04-28_20h06.48.276,classification_task,2021.2.3,Win32,60.21194605,60dcb62cb1dd4fc5ce3c7fcf,626b377229c10585ec392f89,626b39f8f14131480d3b59d1,,,,,,,,,,,,,,,,,,,,,,,a,0,2.7579,"[""0.663"",""0.195"",""0.591"",""0.799""]","[0,1,1,1]",0,6,6,6,1,1,1,,,1,FALSE,,,,,,,,,,,,,,,,,,,,,,,,,,,,,,
,60dcb62cb1dd4fc5ce3c7fcf,001,2022-04-28_20h06.48.276,classification_task,2021.2.3,Win32,60.21194605,60dcb62cb1dd4fc5ce3c7fcf,626b377229c10585ec392f89,626b39f8f14131480d3b59d1,,,,,,,,,,,,,,,,,,,,,,,l,1,1.4414,"[""0.111"",""0.195"",""0.075"",""0.799""]","[1,1,0,1]",0,7,7,7,1,1,1,,,1,FALSE,,,,,,,,,,,,,,,,,,,,,,,,,,,,,,
,60dcb62cb1dd4fc5ce3c7fcf,001,2022-04-28_20h06.48.276,classification_task,2021.2.3,Win32,60.21194605,60dcb62cb1dd4fc5ce3c7fcf,626b377229c10585ec392f89,626b39f8f14131480d3b59d1,,,,,,,,,,,,,,,,,,,,,,,l,1,3.2782,"[""0.111"",""0.665"",""0.591"",""0.799""]","[1,0,1,1]",0,8,8,8,1,1,1,,,1,FALSE,,,,,,,,,,,,,,,,,,,,,,,,,,,,,,
,60dcb62cb1dd4fc5ce3c7fcf,001,2022-04-28_20h06.48.276,classification_task,2021.2.3,Win32,60.21194605,60dcb62cb1dd4fc5ce3c7fcf,626b377229c10585ec392f89,626b39f8f14131480d3b59d1,,,,,,,,,,,,,,,,,,,,,,,a,0,0.8434,"[""0.036"",""0.660"",""0.532"",""0.728""]","[1,0,1,1]",0,9,9,9,1,1,0,,,1,FALSE,,,,,,,,,,,,,,,,,,,,,,,,,,,,,,
,60dcb62cb1dd4fc5ce3c7fcf,001,2022-04-28_20h06.48.276,classification_task,2021.2.3,Win32,60.21194605,60dcb62cb1dd4fc5ce3c7fcf,626b377229c10585ec392f89,626b39f8f14131480d3b59d1,,,,,,,,,,,,,,,,,,,,,,,l,1,0.9091,"[""0.111"",""0.195"",""0.591"",""0.665""]","[1,1,1,0]",0,10,10,10,1,1,1,,,1,FALSE,,,,,,,,,,,,,,,,,,,,,,,,,,,,,,
,60dcb62cb1dd4fc5ce3c7fcf,001,2022-04-28_20h06.48.276,classification_task,2021.2.3,Win32,60.21194605,60dcb62cb1dd4fc5ce3c7fcf,626b377229c10585ec392f89,626b39f8f14131480d3b59d1,,,,,,,,,,,,,,,,,,,,,,,a,0,1.5746,"[""0.359"",""0.277"",""0.532"",""0.728""]","[0,1,1,1]",0,11,11,11,1,1,0,,,1,FALSE,,,,,,,,,,,,,,,,,,,,,,,,,,,,,,
,60dcb62cb1dd4fc5ce3c7fcf,001,2022-04-28_20h06.48.276,classification_task,2021.2.3,Win32,60.21194605,60dcb62cb1dd4fc5ce3c7fcf,626b377229c10585ec392f89,626b39f8f14131480d3b59d1,,,,,,,,,,,,,,,,,,,,,,,l,0,1.9869,"[""0.763"",""0.466"",""0.912"",""0.948""]","[0,1,1,1]",0,12,12,12,1,0,1,,,1,FALSE,,,,,,,,,,,,,,,,,,,,,,,,,,,,,,
,60dcb62cb1dd4fc5ce3c7fcf,001,2022-04-28_20h06.48.276,classification_task,2021.2.3,Win32,60.21194605,60dcb62cb1dd4fc5ce3c7fcf,626b377229c10585ec392f89,626b39f8f14131480d3b59d1,,,,,,,,,,,,,,,,,,,,,,,a,1,0.7497,"[""0.235"",""0.663"",""0.625"",""0.860""]","[1,0,1,1]",0,13,13,13,1,0,0,,,1,FALSE,,,,,,,,,,,,,,,,,,,,,,,,,,,,,,
,60dcb62cb1dd4fc5ce3c7fcf,001,2022-04-28_20h06.48.276,classification_task,2021.2.3,Win32,60.21194605,60dcb62cb1dd4fc5ce3c7fcf,626b377229c10585ec392f89,626b39f8f14131480d3b59d1,,,,,,,,,,,,,,,,,,,,,,,l,1,0.7818,"[""0.036"",""0.277"",""0.532"",""0.365""]","[1,1,1,0]",0,14,14,14,1,1,0,,,1,FALSE,,,,,,,,,,,,,,,,,,,,,,,,,,,,,,
,60dcb62cb1dd4fc5ce3c7fcf,001,2022-04-28_20h06.48.276,classification_task,2021.2.3,Win32,60.21194605,60dcb62cb1dd4fc5ce3c7fcf,626b377229c10585ec392f89,626b39f8f14131480d3b59d1,,,,,,,,,,,,,,,,,,,,,,,a,1,0.8028,"[""0.325"",""0.466"",""0.763"",""0.948""]","[1,1,0,1]",0,15,15,15,1,0,1,,,1,FALSE,,,,,,,,,,,,,,,,,,,,,,,,,,,,,,
,60dcb62cb1dd4fc5ce3c7fcf,001,2022-04-28_20h06.48.276,classification_task,2021.2.3,Win32,60.21194605,60dcb62cb1dd4fc5ce3c7fcf,626b377229c10585ec392f89,626b39f8f14131480d3b59d1,,,,,,,,,,,,,,,,,,,,,,,l,0,0.7011,"[""0.235"",""0.399"",""0.625"",""0.075""]","[1,1,1,0]",0,16,16,16,1,0,0,,,1,FALSE,,,,,,,,,,,,,,,,,,,,,,,,,,,,,,
,60dcb62cb1dd4fc5ce3c7fcf,001,2022-04-28_20h06.48.276,classification_task,2021.2.3,Win32,60.21194605,60dcb62cb1dd4fc5ce3c7fcf,626b377229c10585ec392f89,626b39f8f14131480d3b59d1,,,,,,,,,,,,,,,,,,,,,,,l,1,0.7592,"[""0.036"",""0.277"",""0.532"",""0.158""]","[1,1,1,0]",0,17,17,17,1,1,0,,,1,FALSE,,,,,,,,,,,,,,,,,,,,,,,,,,,,,,
,60dcb62cb1dd4fc5ce3c7fcf,001,2022-04-28_20h06.48.276,classification_task,2021.2.3,Win32,60.21194605,60dcb62cb1dd4fc5ce3c7fcf,626b377229c10585ec392f89,626b39f8f14131480d3b59d1,,,,,,,,,,,,,,,,,,,,,,,l,1,1.0331,"[""0.111"",""0.195"",""0.591"",""0.075""]","[1,1,1,0]",0,18,18,18,1,1,1,,,1,FALSE,,,,,,,,,,,,,,,,,,,,,,,,,,,,,,
,60dcb62cb1dd4fc5ce3c7fcf,001,2022-04-28_20h06.48.276,classification_task,2021.2.3,Win32,60.21194605,60dcb62cb1dd4fc5ce3c7fcf,626b377229c10585ec392f89,626b39f8f14131480d3b59d1,,,,,,,,,,,,,,,,,,,,,,,a,0,0.7074,"[""0.036"",""0.145"",""0.532"",""0.728""]","[1,0,1,1]",0,19,19,19,1,1,0,,,1,FALSE,,,,,,,,,,,,,,,,,,,,,,,,,,,,,,
,60dcb62cb1dd4fc5ce3c7fcf,001,2022-04-28_20h06.48.276,classification_task,2021.2.3,Win32,60.21194605,60dcb62cb1dd4fc5ce3c7fcf,626b377229c10585ec392f89,626b39f8f14131480d3b59d1,,,,,,,,,,,,,,,,,,,,,,,a,1,1.7534,"[""0.325"",""0.682"",""0.912"",""0.948""]","[1,0,1,1]",0,20,20,20,1,0,1,,,1,FALSE,,,,,,,,,,,,,,,,,,,,,,,,,,,,,,
,60dcb62cb1dd4fc5ce3c7fcf,001,2022-04-28_20h06.48.276,classification_task,2021.2.3,Win32,60.21194605,60dcb62cb1dd4fc5ce3c7fcf,626b377229c10585ec392f89,626b39f8f14131480d3b59d1,,,,,,,,,,,,,,,,,,,,,,,a,1,1.2167,"[""0.145"",""0.399"",""0.625"",""0.860""]","[0,1,1,1]",0,21,21,21,1,0,0,,,1,FALSE,,,,,,,,,,,,,,,,,,,,,,,,,,,,,,
,60dcb62cb1dd4fc5ce3c7fcf,001,2022-04-28_20h06.48.276,classification_task,2021.2.3,Win32,60.21194605,60dcb62cb1dd4fc5ce3c7fcf,626b377229c10585ec392f89,626b39f8f14131480d3b59d1,,,,,,,,,,,,,,,,,,,,,,,l,1,0.9477,"[""0.763"",""0.277"",""0.532"",""0.728""]","[0,1,1,1]",0,22,22,22,1,1,0,,,1,FALSE,,,,,,,,,,,,,,,,,,,,,,,,,,,,,,
,60dcb62cb1dd4fc5ce3c7fcf,001,2022-04-28_20h06.48.276,classification_task,2021.2.3,Win32,60.21194605,60dcb62cb1dd4fc5ce3c7fcf,626b377229c10585ec392f89,626b39f8f14131480d3b59d1,,,,,,,,,,,,,,,,,,,,,,,l,0,0.9471,"[""0.325"",""0.466"",""0.365"",""0.948""]","[1,1,0,1]",0,23,23,23,1,0,1,,,1,FALSE,,,,,,,,,,,,,,,,,,,,,,,,,,,,,,
,60dcb62cb1dd4fc5ce3c7fcf,001,2022-04-28_20h06.48.276,classification_task,2021.2.3,Win32,60.21194605,60dcb62cb1dd4fc5ce3c7fcf,626b377229c10585ec392f89,626b39f8f14131480d3b59d1,,,,,,,,,,,,,,,,,,,,,,,l,0,0.6616,"[""0.325"",""0.466"",""0.912"",""0.359""]","[1,1,1,0]",0,24,24,24,1,0,1,,,1,FALSE,,,,,,,,,,,,,,,,,,,,,,,,,,,,,,
,60dcb62cb1dd4fc5ce3c7fcf,001,2022-04-28_20h06.48.276,classification_task,2021.2.3,Win32,60.21194605,60dcb62cb1dd4fc5ce3c7fcf,626b377229c10585ec392f89,626b39f8f14131480d3b59d1,,,,,,,,,,,,,,,,,,,,,,,a,0,0.7618,"[""0.036"",""0.277"",""0.071"",""0.728""]","[1,1,0,1]",0,25,25,25,1,1,0,,,1,FALSE,,,,,,,,,,,,,,,,,,,,,,,,,,,,,,
,60dcb62cb1dd4fc5ce3c7fcf,001,2022-04-28_20h06.48.276,classification_task,2021.2.3,Win32,60.21194605,60dcb62cb1dd4fc5ce3c7fcf,626b377229c10585ec392f89,626b39f8f14131480d3b59d1,,,,,,,,,,,,,,,,,,,,,,,l,0,0.9384,"[""0.663"",""0.466"",""0.912"",""0.948""]","[0,1,1,1]",0,26,26,26,1,0,1,,,1,FALSE,,,,,,,,,,,,,,,,,,,,,,,,,,,,,,
,60dcb62cb1dd4fc5ce3c7fcf,001,2022-04-28_20h06.48.276,classification_task,2021.2.3,Win32,60.21194605,60dcb62cb1dd4fc5ce3c7fcf,626b377229c10585ec392f89,626b39f8f14131480d3b59d1,,,,,,,,,,,,,,,,,,,,,,,a,0,1.0828,"[""0.145"",""0.195"",""0.591"",""0.799""]","[0,1,1,1]",0,27,27,27,1,1,1,,,1,FALSE,,,,,,,,,,,,,,,,,,,,,,,,,,,,,,
,60dcb62cb1dd4fc5ce3c7fcf,001,2022-04-28_20h06.48.276,classification_task,2021.2.3,Win32,60.21194605,60dcb62cb1dd4fc5ce3c7fcf,626b377229c10585ec392f89,626b39f8f14131480d3b59d1,,,,,,,,,,,,,,,,,,,,,,,l,1,1.6982,"[""0.111"",""0.195"",""0.682"",""0.799""]","[1,1,0,1]",0,28,28,28,1,1,1,,,1,FALSE,,,,,,,,,,,,,,,,,,,,,,,,,,,,,,
,60dcb62cb1dd4fc5ce3c7fcf,001,2022-04-28_20h06.48.276,classification_task,2021.2.3,Win32,60.21194605,60dcb62cb1dd4fc5ce3c7fcf,626b377229c10585ec392f89,626b39f8f14131480d3b59d1,,,,,,,,,,,,,,,,,,,,,,,l,1,1.1491,"[""0.111"",""0.663"",""0.591"",""0.799""]","[1,0,1,1]",0,29,29,29,1,1,1,,,1,FALSE,,,,,,,,,,,,,,,,,,,,,,,,,,,,,,
,60dcb62cb1dd4fc5ce3c7fcf,001,2022-04-28_20h06.48.276,classification_task,2021.2.3,Win32,60.21194605,60dcb62cb1dd4fc5ce3c7fcf,626b377229c10585ec392f89,626b39f8f14131480d3b59d1,,,,,,,,,,,,,,,,,,,,,,,l,0,1.5826,"[""0.235"",""0.145"",""0.625"",""0.860""]","[1,0,1,1]",0,30,30,30,1,0,0,,,1,FALSE,,,,,,,,,,,,,,,,,,,,,,,,,,,,,,
,60dcb62cb1dd4fc5ce3c7fcf,001,2022-04-28_20h06.48.276,classification_task,2021.2.3,Win32,60.21194605,60dcb62cb1dd4fc5ce3c7fcf,626b377229c10585ec392f89,626b39f8f14131480d3b59d1,,,,,,,,,,,,,,,,,,,,,,,a,1,0.7031,"[""0.235"",""0.399"",""0.077"",""0.860""]","[1,1,0,1]",0,31,31,31,1,0,0,,,1,FALSE,,,,,,,,,,,,,,,,,,,,,,,,,,,,,,
,60dcb62cb1dd4fc5ce3c7fcf,001,2022-04-28_20h06.48.276,classification_task,2021.2.3,Win32,60.21194605,60dcb62cb1dd4fc5ce3c7fcf,626b377229c10585ec392f89,626b39f8f14131480d3b59d1,,,,,,,,,,,,,,,,,,,,,,,a,0,0.6953,"[""0.111"",""0.365"",""0.591"",""0.799""]","[1,0,1,1]",0,32,32,32,1,1,1,,,1,FALSE,,,,,,,,,,,,,,,,,,,,,,,,,,,,,,
,60dcb62cb1dd4fc5ce3c7fcf,001,2022-04-28_20h06.48.276,classification_task,2021.2.3,Win32,60.21194605,60dcb62cb1dd4fc5ce3c7fcf,626b377229c10585ec392f89,626b39f8f14131480d3b59d1,,,,,,,,,,,,,,,,,,,,,,,l,0,1.3,"[""0.359"",""0.466"",""0.912"",""0.948""]","[0,1,1,1]",0,33,33,33,1,0,1,,,1,FALSE,,,,,,,,,,,,,,,,,,,,,,,,,,,,,,
,60dcb62cb1dd4fc5ce3c7fcf,001,2022-04-28_20h06.48.276,classification_task,2021.2.3,Win32,60.21194605,60dcb62cb1dd4fc5ce3c7fcf,626b377229c10585ec392f89,626b39f8f14131480d3b59d1,,,,,,,,,,,,,,,,,,,,,,,a,1,0.7798,"[""0.325"",""0.466"",""0.075"",""0.948""]","[1,1,0,1]",0,34,34,34,1,0,1,,,1,FALSE,,,,,,,,,,,,,,,,,,,,,,,,,,,,,,
,60dcb62cb1dd4fc5ce3c7fcf,001,2022-04-28_20h06.48.276,classification_task,2021.2.3,Win32,60.21194605,60dcb62cb1dd4fc5ce3c7fcf,626b377229c10585ec392f89,626b39f8f14131480d3b59d1,,,,,,,,,,,,,,,,,,,,,,,a,0,0.775,"[""0.359"",""0.195"",""0.591"",""0.799""]","[0,1,1,1]",0,35,35,35,1,1,1,,,1,FALSE,,,,,,,,,,,,,,,,,,,,,,,,,,,,,,
,60dcb62cb1dd4fc5ce3c7fcf,001,2022-04-28_20h06.48.276,classification_task,2021.2.3,Win32,60.21194605,60dcb62cb1dd4fc5ce3c7fcf,626b377229c10585ec392f89,626b39f8f14131480d3b59d1,,,,,,,,,,,,,,,,,,,,,,,l,1,0.7232,"[""0.036"",""0.071"",""0.532"",""0.728""]","[1,0,1,1]",0,36,36,36,1,1,0,,,1,FALSE,,,,,,,,,,,,,,,,,,,,,,,,,,,,,,
,60dcb62cb1dd4fc5ce3c7fcf,001,2022-04-28_20h06.48.276,classification_task,2021.2.3,Win32,60.21194605,60dcb62cb1dd4fc5ce3c7fcf,626b377229c10585ec392f89,626b39f8f14131480d3b59d1,,,,,,,,,,,,,,,,,,,,,,,l,1,0.7216,"[""0.682"",""0.277"",""0.532"",""0.728""]","[0,1,1,1]",0,37,37,37,1,1,0,,,1,FALSE,,,,,,,,,,,,,,,,,,,,,,,,,,,,,,
,60dcb62cb1dd4fc5ce3c7fcf,001,2022-04-28_20h06.48.276,classification_task,2021.2.3,Win32,60.21194605,60dcb62cb1dd4fc5ce3c7fcf,626b377229c10585ec392f89,626b39f8f14131480d3b59d1,,,,,,,,,,,,,,,,,,,,,,,a,1,1.0578,"[""0.235"",""0.399"",""0.625"",""0.763""]","[1,1,1,0]",0,38,38,38,1,0,0,,,1,FALSE,,,,,,,,,,,,,,,,,,,,,,,,,,,,,,
,60dcb62cb1dd4fc5ce3c7fcf,001,2022-04-28_20h06.48.276,classification_task,2021.2.3,Win32,60.21194605,60dcb62cb1dd4fc5ce3c7fcf,626b377229c10585ec392f89,626b39f8f14131480d3b59d1,,,,,,,,,,,,,,,,,,,,,,,l,0,0.6795,"[""0.235"",""0.679"",""0.625"",""0.860""]","[1,0,1,1]",0,39,39,39,1,0,0,,,1,FALSE,,,,,,,,,,,,,,,,,,,,,,,,,,,,,,
,60dcb62cb1dd4fc5ce3c7fcf,001,2022-04-28_20h06.48.276,classification_task,2021.2.3,Win32,60.21194605,60dcb62cb1dd4fc5ce3c7fcf,626b377229c10585ec392f89,626b39f8f14131480d3b59d1,,,,,,,,,,,,,,,,,,,,,,,a,0,0.7136,"[""0.111"",""0.195"",""0.665"",""0.799""]","[1,1,0,1]",0,40,40,40,1,1,1,,,1,FALSE,,,,,,,,,,,,,,,,,,,,,,,,,,,,,,
,60dcb62cb1dd4fc5ce3c7fcf,001,2022-04-28_20h06.48.276,classification_task,2021.2.3,Win32,60.21194605,60dcb62cb1dd4fc5ce3c7fcf,626b377229c10585ec392f89,626b39f8f14131480d3b59d1,,,,,,,,,,,,,,,,,,,,,,,a,0,1.0261,"[""0.036"",""0.277"",""0.158"",""0.728""]","[1,1,0,1]",0,41,41,41,1,1,0,,,1,FALSE,,,,,,,,,,,,,,,,,,,,,,,,,,,,,,
,60dcb62cb1dd4fc5ce3c7fcf,001,2022-04-28_20h06.48.276,classification_task,2021.2.3,Win32,60.21194605,60dcb62cb1dd4fc5ce3c7fcf,626b377229c10585ec392f89,626b39f8f14131480d3b59d1,,,,,,,,,,,,,,,,,,,,,,,l,0,0.7333,"[""0.665"",""0.399"",""0.625"",""0.860""]","[0,1,1,1]",0,42,42,42,1,0,0,,,1,FALSE,,,,,,,,,,,,,,,,,,,,,,,,,,,,,,
,60dcb62cb1dd4fc5ce3c7fcf,001,2022-04-28_20h06.48.276,classification_task,2021.2.3,Win32,60.21194605,60dcb62cb1dd4fc5ce3c7fcf,626b377229c10585ec392f89,626b39f8f14131480d3b59d1,,,,,,,,,,,,,,,,,,,,,,,l,0,1.7146,"[""0.325"",""0.466"",""0.912"",""0.663""]","[1,1,1,0]",0,43,43,43,1,0,1,,,1,FALSE,,,,,,,,,,,,,,,,,,,,,,,,,,,,,,
,60dcb62cb1dd4fc5ce3c7fcf,001,2022-04-28_20h06.48.276,classification_task,2021.2.3,Win32,60.21194605,60dcb62cb1dd4fc5ce3c7fcf,626b377229c10585ec392f89,626b39f8f14131480d3b59d1,,,,,,,,,,,,,,,,,,,,,,,a,1,3.1626,"[""0.235"",""0.399"",""0.158"",""0.860""]","[1,1,0,1]",0,44,44,44,1,0,0,,,1,FALSE,,,,,,,,,,,,,,,,,,,,,,,,,,,,,,
,60dcb62cb1dd4fc5ce3c7fcf,001,2022-04-28_20h06.48.276,classification_task,2021.2.3,Win32,60.21194605,60dcb62cb1dd4fc5ce3c7fcf,626b377229c10585ec392f89,626b39f8f14131480d3b59d1,,,,,,,,,,,,,,,,,,,,,,,l,1,0.6867,"[""0.111"",""0.195"",""0.591"",""0.679""]","[1,1,1,0]",0,45,45,45,1,1,1,,,1,FALSE,,,,,,,,,,,,,,,,,,,,,,,,,,,,,,
,60dcb62cb1dd4fc5ce3c7fcf,001,2022-04-28_20h06.48.276,classification_task,2021.2.3,Win32,60.21194605,60dcb62cb1dd4fc5ce3c7fcf,626b377229c10585ec392f89,626b39f8f14131480d3b59d1,,,,,,,,,,,,,,,,,,,,,,,a,0,0.7981,"[""0.036"",""0.277"",""0.532"",""0.158""]","[1,1,1,0]",0,46,46,46,1,1,0,,,1,FALSE,,,,,,,,,,,,,,,,,,,,,,,,,,,,,,
,60dcb62cb1dd4fc5ce3c7fcf,001,2022-04-28_20h06.48.276,classification_task,2021.2.3,Win32,60.21194605,60dcb62cb1dd4fc5ce3c7fcf,626b377229c10585ec392f89,626b39f8f14131480d3b59d1,,,,,,,,,,,,,,,,,,,,,,,l,0,0.6817,"[""0.325"",""0.145"",""0.912"",""0.948""]","[1,0,1,1]",0,47,47,47,1,0,1,,,1,FALSE,,,,,,,,,,,,,,,,,,,,,,,,,,,,,,
,60dcb62cb1dd4fc5ce3c7fcf,001,2022-04-28_20h06.48.276,classification_task,2021.2.3,Win32,60.21194605,60dcb62cb1dd4fc5ce3c7fcf,626b377229c10585ec392f89,626b39f8f14131480d3b59d1,,,,,,,,,,,,,,,,,,,,,,,a,0,0.6805,"[""0.111"",""0.075"",""0.591"",""0.799""]","[1,0,1,1]",0,48,48,48,1,1,1,,,1,FALSE,,,,,,,,,,,,,,,,,,,,,,,,,,,,,,
,60dcb62cb1dd4fc5ce3c7fcf,001,2022-04-28_20h06.48.276,classification_task,2021.2.3,Win32,60.21194605,60dcb62cb1dd4fc5ce3c7fcf,626b377229c10585ec392f89,626b39f8f14131480d3b59d1,,,,,,,,,,,,,,,,,,,,,,,l,0,0.5709,"[""0.663"",""0.466"",""0.912"",""0.948""]","[0,1,1,1]",0,49,49,49,1,0,1,,,1,FALSE,,,,,,,,,,,,,,,,,,,,,,,,,,,,,,
,60dcb62cb1dd4fc5ce3c7fcf,001,2022-04-28_20h06.48.276,classification_task,2021.2.3,Win32,60.21194605,60dcb62cb1dd4fc5ce3c7fcf,626b377229c10585ec392f89,626b39f8f14131480d3b59d1,,,,,,,,,,,,,,,,,,,,,,,a,1,2.8359,"[""0.235"",""0.399"",""0.625"",""0.682""]","[1,1,1,0]",0,50,50,50,1,0,0,,,1,FALSE,,,,,,,,,,,,,,,,,,,,,,,,,,,,,,
,60dcb62cb1dd4fc5ce3c7fcf,001,2022-04-28_20h06.48.276,classification_task,2021.2.3,Win32,60.21194605,60dcb62cb1dd4fc5ce3c7fcf,626b377229c10585ec392f89,626b39f8f14131480d3b59d1,,,,,,,,,,,,,,,,,,,,,,,a,0,0.8679,"[""0.036"",""0.277"",""0.665"",""0.728""]","[1,1,0,1]",0,51,51,51,1,1,0,,,1,FALSE,,,,,,,,,,,,,,,,,,,,,,,,,,,,,,
,60dcb62cb1dd4fc5ce3c7fcf,001,2022-04-28_20h06.48.276,classification_task,2021.2.3,Win32,60.21194605,60dcb62cb1dd4fc5ce3c7fcf,626b377229c10585ec392f89,626b39f8f14131480d3b59d1,,,,,,,,,,,,,,,,,,,,,,,a,0,1.2869,"[""0.111"",""0.195"",""0.591"",""0.158""]","[1,1,1,0]",0,52,52,52,1,1,1,,,1,FALSE,,,,,,,,,,,,,,,,,,,,,,,,,,,,,,
,60dcb62cb1dd4fc5ce3c7fcf,001,2022-04-28_20h06.48.276,classification_task,2021.2.3,Win32,60.21194605,60dcb62cb1dd4fc5ce3c7fcf,626b377229c10585ec392f89,626b39f8f14131480d3b59d1,,,,,,,,,,,,,,,,,,,,,,,a,1,0.8203,"[""0.325"",""0.466"",""0.912"",""0.077""]","[1,1,1,0]",0,53,53,53,1,0,1,,,1,FALSE,,,,,,,,,,,,,,,,,,,,,,,,,,,,,,
,60dcb62cb1dd4fc5ce3c7fcf,001,2022-04-28_20h06.48.276,classification_task,2021.2.3,Win32,60.21194605,60dcb62cb1dd4fc5ce3c7fcf,626b377229c10585ec392f89,626b39f8f14131480d3b59d1,,,,,,,,,,,,,,,,,,,,,,,l,0,0.5149,"[""0.325"",""0.075"",""0.912"",""0.948""]","[1,0,1,1]",0,54,54,54,1,0,1,,,1,FALSE,,,,,,,,,,,,,,,,,,,,,,,,,,,,,,
,60dcb62cb1dd4fc5ce3c7fcf,001,2022-04-28_20h06.48.276,classification_task,2021.2.3,Win32,60.21194605,60dcb62cb1dd4fc5ce3c7fcf,626b377229c10585ec392f89,626b39f8f14131480d3b59d1,,,,,,,,,,,,,,,,,,,,,,,a,0,0.7493,"[""0.158"",""0.277"",""0.532"",""0.728""]","[0,1,1,1]",0,55,55,55,1,1,0,,,1,FALSE,,,,,,,,,,,,,,,,,,,,,,,,,,,,,,
,60dcb62cb1dd4fc5ce3c7fcf,001,2022-04-28_20h06.48.276,classification_task,2021.2.3,Win32,60.21194605,60dcb62cb1dd4fc5ce3c7fcf,626b377229c10585ec392f89,626b39f8f14131480d3b59d1,,,,,,,,,,,,,,,,,,,,,,,a,0,0.5532,"[""0.036"",""0.277"",""0.532"",""0.763""]","[1,1,1,0]",0,56,56,56,1,1,0,,,1,FALSE,,,,,,,,,,,,,,,,,,,,,,,,,,,,,,
,60dcb62cb1dd4fc5ce3c7fcf,001,2022-04-28_20h06.48.276,classification_task,2021.2.3,Win32,60.21194605,60dcb62cb1dd4fc5ce3c7fcf,626b377229c10585ec392f89,626b39f8f14131480d3b59d1,,,,,,,,,,,,,,,,,,,,,,,a,1,0.9621,"[""0.325"",""0.466"",""0.145"",""0.948""]","[1,1,0,1]",0,57,57,57,1,0,1,,,1,FALSE,,,,,,,,,,,,,,,,,,,,,,,,,,,,,,
,60dcb62cb1dd4fc5ce3c7fcf,001,2022-04-28_20h06.48.276,classification_task,2021.2.3,Win32,60.21194605,60dcb62cb1dd4fc5ce3c7fcf,626b377229c10585ec392f89,626b39f8f14131480d3b59d1,,,,,,,,,,,,,,,,,,,,,,,a,1,0.8115,"[""0.235"",""0.359"",""0.625"",""0.860""]","[1,0,1,1]",0,58,58,58,1,0,0,,,1,FALSE,,,,,,,,,,,,,,,,,,,,,,,,,,,,,,
,60dcb62cb1dd4fc5ce3c7fcf,001,2022-04-28_20h06.48.276,classification_task,2021.2.3,Win32,60.21194605,60dcb62cb1dd4fc5ce3c7fcf,626b377229c10585ec392f89,626b39f8f14131480d3b59d1,,,,,,,,,,,,,,,,,,,,,,,a,1,0.4248,"[""0.763"",""0.399"",""0.625"",""0.860""]","[0,1,1,1]",0,59,59,59,1,0,0,,,1,FALSE,,,,,,,,,,,,,,,,,,,,,,,,,,,,,,
,60dcb62cb1dd4fc5ce3c7fcf,001,2022-04-28_20h06.48.276,classification_task,2021.2.3,Win32,60.21194605,60dcb62cb1dd4fc5ce3c7fcf,626b377229c10585ec392f89,626b39f8f14131480d3b59d1,,,,,,,,,,,,,,,,,,,,,,,a,0,0.6767,"[""0.665"",""0.195"",""0.591"",""0.799""]","[0,1,1,1]",0,60,60,60,1,1,1,,,1,FALSE,,,,,,,,,,,,,,,,,,,,,,,,,,,,,,
,60dcb62cb1dd4fc5ce3c7fcf,001,2022-04-28_20h06.48.276,classification_task,2021.2.3,Win32,60.21194605,60dcb62cb1dd4fc5ce3c7fcf,626b377229c10585ec392f89,626b39f8f14131480d3b59d1,,,,,,,,,,,,,,,,,,,,,,,l,1,0.6,"[""0.036"",""0.660"",""0.532"",""0.728""]","[1,0,1,1]",0,61,61,61,1,1,0,,,1,FALSE,,,,,,,,,,,,,,,,,,,,,,,,,,,,,,
,60dcb62cb1dd4fc5ce3c7fcf,001,2022-04-28_20h06.48.276,classification_task,2021.2.3,Win32,60.21194605,60dcb62cb1dd4fc5ce3c7fcf,626b377229c10585ec392f89,626b39f8f14131480d3b59d1,,,,,,,,,,,,,,,,,,,,,,,l,1,0.3314,"[""0.111"",""0.195"",""0.679"",""0.799""]","[1,1,0,1]",0,62,62,62,1,1,1,,,1,FALSE,,,,,,,,,,,,,,,,,,,,,,,,,,,,,,
,60dcb62cb1dd4fc5ce3c7fcf,001,2022-04-28_20h06.48.276,classification_task,2021.2.3,Win32,60.21194605,60dcb62cb1dd4fc5ce3c7fcf,626b377229c10585ec392f89,626b39f8f14131480d3b59d1,,,,,,,,,,,,,,,,,,,,,,,l,0,0.5319,"[""0.235"",""0.399"",""0.075"",""0.860""]","[1,1,0,1]",0,63,63,63,1,0,0,,,1,FALSE,,,,,,,,,,,,,,,,,,,,,,,,,,,,,,
,60dcb62cb1dd4fc5ce3c7fcf,001,2022-04-28_20h06.48.276,classification_task,2021.2.3,Win32,60.21194605,60dcb62cb1dd4fc5ce3c7fcf,626b377229c10585ec392f89,626b39f8f14131480d3b59d1,,,,,,,,,,,,,,,,,,,,,,,,,,,,,,,,,,,,,,,0, ,,0,0,158.7025,0,2,2,2,1,2,3,,,,,,,,,,,,,,,,,
,60dcb62cb1dd4fc5ce3c7fcf,001,2022-04-28_20h06.48.276,classification_task,2021.2.3,Win32,60.21194605,60dcb62cb1dd4fc5ce3c7fcf,626b377229c10585ec392f89,626b39f8f14131480d3b59d1,,,,,,,,,,,,,,,,,,,,,,,,,,,,,,,,,,,,,,,1,  ,,0,1.889084852,166.9592,0,2,2,2,1,2,3,,,,,,,,,,,,,,,,,
,60dcb62cb1dd4fc5ce3c7fcf,001,2022-04-28_20h06.48.276,classification_task,2021.2.3,Win32,60.21194605,60dcb62cb1dd4fc5ce3c7fcf,626b377229c10585ec392f89,626b39f8f14131480d3b59d1,,,,,,,,,,,,,,,,,,,,,,,,,,,,,,,,,,,,,,,2,  ,,0,8.527336861,171.8775,0,2,2,2,1,2,3,,,,,,,,,,,,,,,,,
,60dcb62cb1dd4fc5ce3c7fcf,001,2022-04-28_20h06.48.276,classification_task,2021.2.3,Win32,60.21194605,60dcb62cb1dd4fc5ce3c7fcf,626b377229c10585ec392f89,626b39f8f14131480d3b59d1,,,,,,,,,,,,,,,,,,,,,,,,,,,,,,,,,,,,,,,,,,,,,0,2,2,2,1,,3,,,,,,,,,,,,,,,,,
,60dcb62cb1dd4fc5ce3c7fcf,001,2022-04-28_20h06.48.276,classification_task,2021.2.3,Win32,60.21194605,60dcb62cb1dd4fc5ce3c7fcf,626b377229c10585ec392f89,626b39f8f14131480d3b59d1,,,,,,,,,,,,,,,,,,,,,,,,,,,,,,,,,,,,,,,,,,,,,,,,,,,,,I believe the aid is a competent performer,,0.7,0,5,1136.2058,0,0,0,0,1,0,,,,
,60dcb62cb1dd4fc5ce3c7fcf,001,2022-04-28_20h06.48.276,classification_task,2021.2.3,Win32,60.21194605,60dcb62cb1dd4fc5ce3c7fcf,626b377229c10585ec392f89,626b39f8f14131480d3b59d1,,,,,,,,,,,,,,,,,,,,,,,,,,,,,,,,,,,,,,,,,,,,,,,,,,,,,I trust the aid,,0.7,0,4,1139.8823,0,0,0,0,1,0,,,,
,60dcb62cb1dd4fc5ce3c7fcf,001,2022-04-28_20h06.48.276,classification_task,2021.2.3,Win32,60.21194605,60dcb62cb1dd4fc5ce3c7fcf,626b377229c10585ec392f89,626b39f8f14131480d3b59d1,,,,,,,,,,,,,,,,,,,,,,,,,,,,,,,,,,,,,,,,,,,,,,,,,,,,,I have confidence in the advice given by the aid,,0.7,0,4,1144.3335,0,0,0,0,1,0,,,,
,60dcb62cb1dd4fc5ce3c7fcf,001,2022-04-28_20h06.48.276,classification_task,2021.2.3,Win32,60.21194605,60dcb62cb1dd4fc5ce3c7fcf,626b377229c10585ec392f89,626b39f8f14131480d3b59d1,,,,,,,,,,,,,,,,,,,,,,,,,,,,,,,,,,,,,,,,,,,,,,,,,,,,,I can depend on the aid,,0.7,0,5,1145.8961,0,0,0,0,1,0,,,,
,60dcb62cb1dd4fc5ce3c7fcf,001,2022-04-28_20h06.48.276,classification_task,2021.2.3,Win32,60.21194605,60dcb62cb1dd4fc5ce3c7fcf,626b377229c10585ec392f89,626b39f8f14131480d3b59d1,,,,,,,,,,,,,,,,,,,,,,,,,,,,,,,,,,,,,,,,,,,,,,,,,,,,,I can rely on the aid to behave in consistent ways,,0.7,0,5,1151.9209,0,0,0,0,1,0,,,,
,60dcb62cb1dd4fc5ce3c7fcf,001,2022-04-28_20h06.48.276,classification_task,2021.2.3,Win32,60.21194605,60dcb62cb1dd4fc5ce3c7fcf,626b377229c10585ec392f89,626b39f8f14131480d3b59d1,,,,,,,,,,,,,,,,,,,,,,,,,,,,,,,,,,,,,,,,,,,,,,,,,,,,,I can rely on the aid to do its best every time I take its advice,,0.7,0,5,1156.1243,0,0,0,0,1,0,,,,
,60dcb62cb1dd4fc5ce3c7fcf,001,2022-04-28_20h06.48.276,classification_task,2021.2.3,Win32,60.21194605,60dcb62cb1dd4fc5ce3c7fcf,626b377229c10585ec392f89,626b39f8f14131480d3b59d1,,,,,,,,,,,,,,,,,,,,,,,,,,,,,,,,,,,,,,,,,,,,,,,,,,,,,"On trials you completed with assistance from the aid, how frequently did you think the aid was correct?",,0.7,0,100%,,0,0,0,0,1,0,,,,
,60dcb62cb1dd4fc5ce3c7fcf,001,2022-04-28_20h06.48.276,classification_task,2021.2.3,Win32,60.21194605,60dcb62cb1dd4fc5ce3c7fcf,626b377229c10585ec392f89,626b39f8f14131480d3b59d1,,,,,,,,,,,,,,,,,,,,,,,,,,,,,,,,,,,,,,,,,,,,,,,,,,,,,"On trials you completed without the aid, how frequently did you think you were correct?",,0.7,0,50%,,0,0,0,0,1,0,,,,
,60dcb62cb1dd4fc5ce3c7fcf,001,2022-04-28_20h06.48.276,classification_task,2021.2.3,Win32,60.21194605,60dcb62cb1dd4fc5ce3c7fcf,626b377229c10585ec392f89,626b39f8f14131480d3b59d1,,,,,,,,,,,,,,,,,,,,,,,,,,,,,,,,,,,,,,,,,,,,,,,,,,,,,,,,,,,0,0,0,0,1,,,,,
,60dcb62cb1dd4fc5ce3c7fcf,001,2022-04-28_20h06.48.276,classification_task,2021.2.3,Win32,60.21194605,60dcb62cb1dd4fc5ce3c7fcf,626b377229c10585ec392f89,626b39f8f14131480d3b59d1,,,,,,,,,,,,,,,,,,,,,,,,,,,,,,,,,,,,,,,,,,,,,,,,,,,,,,,,,,,,,,,,,space,11.9011,1185.9616,
,60dcb62cb1dd4fc5ce3c7fcf,001,2022-04-28_20h06.48.276,classification_task,2021.2.3,Win32,60.21194605,60dcb62cb1dd4fc5ce3c7fcf,626b377229c10585ec392f89,626b39f8f14131480d3b59d1,,,,,,,,,,,,,,,,,,,,,,,,,,,,,,,,,,,,,,,,,,,,,,,,,,,,,,,,,,,,,,,,,,,,"Mozilla/5.0 (Windows NT 10.0; Win64; x64) AppleWebKit/537.36 (KHTML, like Gecko) Chrome/100.0.4896.127 Safari/537.36"
