usingWebGL,participant,session,date,expName,psychopyVersion,OS,frameRate,study_id,signatures_friend,signatures_foe,band_ranges_top,band_ranges_bottom,formitemText,formtype,formundefined,formitemWidth,formindex,formresponse,formrt,key_resp_2.keys,key_resp_2.rt,tute_resp.keys,tute_resp.rt,tutorial.thisRepN,tutorial.thisTrialN,tutorial.thisN,tutorial.thisIndex,tutorial.ran,key_resp_4.keys,key_resp_4.rt,key_resp.keys,key_resp.corr,key_resp.rt,lines_presented,is_signal_presented,trials.thisRepN,trials.thisTrialN,trials.thisN,trials.thisIndex,trials.ran,vessel,active_band,lines,is_signal,supported_pos,catch_trial,debrief_formindex,debrief_formitemText,debrief_formtype,debrief_formitemWidth,debrief_formresponse,debrief_formrt,phases.thisRepN,phases.thisTrialN,phases.thisN,phases.thisIndex,phases.ran,phases.order,phase,key_resp_3.keys,trustitemText,trusttype,trustitemWidth,trustindex,trustresponse,trustrt,support_status.thisRepN,support_status.thisTrialN,support_status.thisN,support_status.thisIndex,support_status.ran,support_status.order,key_resp_5.keys,key_resp_5.rt,globalClockTime,userAgent,manualCondition
TRUE,60e2bf0aa568b97e8d525872,627c6f513e017b614d3526c8,2022-05-12_04h23.32.630,classification_task,2021.2.3,Win32,61.13964294,627c6715c52fd12f31907bd0,,,,,,,,,,,,,,,,,,,,,,,,,,,,,,,,,,,,,,,,,,,,,,,,,,,,,,,,,,,,,,,,,,,,,
,60e2bf0aa568b97e8d525872,627c6f513e017b614d3526c8,2022-05-12_04h23.32.630,classification_task,2021.2.3,Win32,61.13964294,627c6715c52fd12f31907bd0,"[[""0.217"",""0.482"",""0.889"",""0.926""],[""0.286"",""0.440"",""0.841"",""0.961""]]","[[""0.055"",""0.405"",""0.580"",""0.783""],[""0.141"",""0.336"",""0.634"",""0.710""]]","[1,10]","[100,1000]",Video game experience,,,0.7,0,,,,,,,,,,,,,,,,,,,,,,,,,,,,,,,,,,,,,,,,,,,,,,,,,,,,,,,,,,,,
,60e2bf0aa568b97e8d525872,627c6f513e017b614d3526c8,2022-05-12_04h23.32.630,classification_task,2021.2.3,Win32,61.13964294,627c6715c52fd12f31907bd0,,,,,Approximately how many hours did you spend playing video games in the last week?,,,0.7,0,5,,,,,,,,,,,,,,,,,,,,,,,,,,,,,,,,,,,,,,,,,,,,,,,,,,,,,,,,,,,
,60e2bf0aa568b97e8d525872,627c6f513e017b614d3526c8,2022-05-12_04h23.32.630,classification_task,2021.2.3,Win32,61.13964294,627c6715c52fd12f31907bd0,,,,,"Which game did you play the most this year? (Enter ""None"" if you didn't play any)",,,0.7,0,GTA 5,,,,,,,,,,,,,,,,,,,,,,,,,,,,,,,,,,,,,,,,,,,,,,,,,,,,,,,,,,,
,60e2bf0aa568b97e8d525872,627c6f513e017b614d3526c8,2022-05-12_04h23.32.630,classification_task,2021.2.3,Win32,61.13964294,627c6715c52fd12f31907bd0,,,,,Visual perception,,,0.7,0,,,,,,,,,,,,,,,,,,,,,,,,,,,,,,,,,,,,,,,,,,,,,,,,,,,,,,,,,,,,
,60e2bf0aa568b97e8d525872,627c6f513e017b614d3526c8,2022-05-12_04h23.32.630,classification_task,2021.2.3,Win32,61.13964294,627c6715c52fd12f31907bd0,,,,,Do you have any form of color blindness?,,,0.7,0,No,25.1148,,,,,,,,,,,,,,,,,,,,,,,,,,,,,,,,,,,,,,,,,,,,,,,,,,,,,,,,,,
,60e2bf0aa568b97e8d525872,627c6f513e017b614d3526c8,2022-05-12_04h23.32.630,classification_task,2021.2.3,Win32,61.13964294,627c6715c52fd12f31907bd0,,,,,Do you use software to change the colour temperature of your screen (e.g. f.lux)?,,,0.7,0,No,27.9059,,,,,,,,,,,,,,,,,,,,,,,,,,,,,,,,,,,,,,,,,,,,,,,,,,,,,,,,,,
,60e2bf0aa568b97e8d525872,627c6f513e017b614d3526c8,2022-05-12_04h23.32.630,classification_task,2021.2.3,Win32,61.13964294,627c6715c52fd12f31907bd0,,,,,,,,,,,,space,25.3027,space,8.5174,0,0,0,0,1,,,,,,,,,,,,,,,,,,,,,,,,,,,,,,,,,,,,,,,,,,,,,,,,,
,60e2bf0aa568b97e8d525872,627c6f513e017b614d3526c8,2022-05-12_04h23.32.630,classification_task,2021.2.3,Win32,61.13964294,627c6715c52fd12f31907bd0,,,,,,,,,,,,,,space,9.8935,1,0,1,0,1,,,,,,,,,,,,,,,,,,,,,,,,,,,,,,,,,,,,,,,,,,,,,,,,,
,60e2bf0aa568b97e8d525872,627c6f513e017b614d3526c8,2022-05-12_04h23.32.630,classification_task,2021.2.3,Win32,61.13964294,627c6715c52fd12f31907bd0,,,,,,,,,,,,,,space,60.3504,2,0,2,0,1,,,,,,,,,,,,,,,,,,,,,,,,,,,,,,,,,,,,,,,,,,,,,,,,,
,60e2bf0aa568b97e8d525872,627c6f513e017b614d3526c8,2022-05-12_04h23.32.630,classification_task,2021.2.3,Win32,61.13964294,627c6715c52fd12f31907bd0,,,,,,,,,,,,,,space,23.3713,3,0,3,0,1,,,,,,,,,,,,,,,,,,,,,,,,,,,,,,,,,,,,,,,,,,,,,,,,,
,60e2bf0aa568b97e8d525872,627c6f513e017b614d3526c8,2022-05-12_04h23.32.630,classification_task,2021.2.3,Win32,61.13964294,627c6715c52fd12f31907bd0,,,,,,,,,,,,,,space,16.1835,4,0,4,0,1,,,,,,,,,,,,,,,,,,,,,,,,,,,,,,,,,,,,,,,,,,,,,,,,,
,60e2bf0aa568b97e8d525872,627c6f513e017b614d3526c8,2022-05-12_04h23.32.630,classification_task,2021.2.3,Win32,61.13964294,627c6715c52fd12f31907bd0,,,,,,,,,,,,,,,,,,,,,space,5.1124,l,1,8.6216,"[""0.055"",""0.104"",""0.580"",""0.783""]","[1,0,1,1]",0,0,0,0,1,1,0,,,0,FALSE,,,,,,,,,,,,,,,,,,,,,,,,,,,,,,,
,60e2bf0aa568b97e8d525872,627c6f513e017b614d3526c8,2022-05-12_04h23.32.630,classification_task,2021.2.3,Win32,61.13964294,627c6715c52fd12f31907bd0,,,,,,,,,,,,,,,,,,,,,,,,0,,"[""0.547"",""0.405"",""0.580"",""0.783""]","[0,1,1,1]",0,1,1,1,1,1,0,,,0,FALSE,,,,,,,,,,,,,,,,,,,,,,,,,,,,,,,
,60e2bf0aa568b97e8d525872,627c6f513e017b614d3526c8,2022-05-12_04h23.32.630,classification_task,2021.2.3,Win32,61.13964294,627c6715c52fd12f31907bd0,,,,,,,,,,,,,,,,,,,,,,,l,0,4.4478,"[""0.286"",""0.179"",""0.841"",""0.961""]","[1,0,1,1]",0,2,2,2,1,0,1,,,0,FALSE,,,,,,,,,,,,,,,,,,,,,,,,,,,,,,,
,60e2bf0aa568b97e8d525872,627c6f513e017b614d3526c8,2022-05-12_04h23.32.630,classification_task,2021.2.3,Win32,61.13964294,627c6715c52fd12f31907bd0,,,,,,,,,,,,,,,,,,,,,,,l,0,6.0392,"[""0.286"",""0.440"",""0.841"",""0.107""]","[1,1,1,0]",0,3,3,3,1,0,1,,,0,FALSE,,,,,,,,,,,,,,,,,,,,,,,,,,,,,,,
,60e2bf0aa568b97e8d525872,627c6f513e017b614d3526c8,2022-05-12_04h23.32.630,classification_task,2021.2.3,Win32,61.13964294,627c6715c52fd12f31907bd0,,,,,,,,,,,,,,,,,,,,,,,l,1,6.3342,"[""0.141"",""0.181"",""0.634"",""0.710""]","[1,0,1,1]",0,4,4,4,1,1,1,,,0,FALSE,,,,,,,,,,,,,,,,,,,,,,,,,,,,,,,
,60e2bf0aa568b97e8d525872,627c6f513e017b614d3526c8,2022-05-12_04h23.32.630,classification_task,2021.2.3,Win32,61.13964294,627c6715c52fd12f31907bd0,,,,,,,,,,,,,,,,,,,,,,,l,0,3.8874,"[""0.089"",""0.482"",""0.889"",""0.926""]","[0,1,1,1]",0,5,5,5,1,0,0,,,0,FALSE,,,,,,,,,,,,,,,,,,,,,,,,,,,,,,,
,60e2bf0aa568b97e8d525872,627c6f513e017b614d3526c8,2022-05-12_04h23.32.630,classification_task,2021.2.3,Win32,61.13964294,627c6715c52fd12f31907bd0,,,,,,,,,,,,,,,,,,,,,,,l,1,4.8279,"[""0.141"",""0.336"",""0.634"",""0.747""]","[1,1,1,0]",0,6,6,6,1,1,1,,,0,FALSE,,,,,,,,,,,,,,,,,,,,,,,,,,,,,,,
,60e2bf0aa568b97e8d525872,627c6f513e017b614d3526c8,2022-05-12_04h23.32.630,classification_task,2021.2.3,Win32,61.13964294,627c6715c52fd12f31907bd0,,,,,,,,,,,,,,,,,,,,,,,a,1,6.3621,"[""0.217"",""0.482"",""0.889"",""0.181""]","[1,1,1,0]",0,7,7,7,1,0,0,,,0,FALSE,,,,,,,,,,,,,,,,,,,,,,,,,,,,,,,
,60e2bf0aa568b97e8d525872,627c6f513e017b614d3526c8,2022-05-12_04h23.32.630,classification_task,2021.2.3,Win32,61.13964294,627c6715c52fd12f31907bd0,,,,,,,,,,,,,,,,,,,,,,,l,1,3.9206,"[""0.141"",""0.336"",""0.747"",""0.710""]","[1,1,0,1]",0,8,8,8,1,1,1,,,0,FALSE,,,,,,,,,,,,,,,,,,,,,,,,,,,,,,,
,60e2bf0aa568b97e8d525872,627c6f513e017b614d3526c8,2022-05-12_04h23.32.630,classification_task,2021.2.3,Win32,61.13964294,627c6715c52fd12f31907bd0,,,,,,,,,,,,,,,,,,,,,,,l,1,5.9097,"[""0.055"",""0.405"",""0.541"",""0.783""]","[1,1,0,1]",0,9,9,9,1,1,0,,,0,FALSE,,,,,,,,,,,,,,,,,,,,,,,,,,,,,,,
,60e2bf0aa568b97e8d525872,627c6f513e017b614d3526c8,2022-05-12_04h23.32.630,classification_task,2021.2.3,Win32,61.13964294,627c6715c52fd12f31907bd0,,,,,,,,,,,,,,,,,,,,,,,a,1,7.3616,"[""0.097"",""0.440"",""0.841"",""0.961""]","[0,1,1,1]",0,10,10,10,1,0,1,,,0,FALSE,,,,,,,,,,,,,,,,,,,,,,,,,,,,,,,
,60e2bf0aa568b97e8d525872,627c6f513e017b614d3526c8,2022-05-12_04h23.32.630,classification_task,2021.2.3,Win32,61.13964294,627c6715c52fd12f31907bd0,,,,,,,,,,,,,,,,,,,,,,,a,1,3.3809,"[""0.217"",""0.547"",""0.889"",""0.926""]","[1,0,1,1]",0,11,11,11,1,0,0,,,0,FALSE,,,,,,,,,,,,,,,,,,,,,,,,,,,,,,,
,60e2bf0aa568b97e8d525872,627c6f513e017b614d3526c8,2022-05-12_04h23.32.630,classification_task,2021.2.3,Win32,61.13964294,627c6715c52fd12f31907bd0,,,,,,,,,,,,,,,,,,,,,,,a,1,4.792,"[""0.286"",""0.440"",""0.093"",""0.961""]","[1,1,0,1]",0,12,12,12,1,0,1,,,0,FALSE,,,,,,,,,,,,,,,,,,,,,,,,,,,,,,,
,60e2bf0aa568b97e8d525872,627c6f513e017b614d3526c8,2022-05-12_04h23.32.630,classification_task,2021.2.3,Win32,61.13964294,627c6715c52fd12f31907bd0,,,,,,,,,,,,,,,,,,,,,,,l,1,5.5178,"[""0.181"",""0.336"",""0.634"",""0.710""]","[0,1,1,1]",0,13,13,13,1,1,1,,,0,FALSE,,,,,,,,,,,,,,,,,,,,,,,,,,,,,,,
,60e2bf0aa568b97e8d525872,627c6f513e017b614d3526c8,2022-05-12_04h23.32.630,classification_task,2021.2.3,Win32,61.13964294,627c6715c52fd12f31907bd0,,,,,,,,,,,,,,,,,,,,,,,a,1,3.0489,"[""0.217"",""0.482"",""0.099"",""0.926""]","[1,1,0,1]",0,14,14,14,1,0,0,,,0,FALSE,,,,,,,,,,,,,,,,,,,,,,,,,,,,,,,
,60e2bf0aa568b97e8d525872,627c6f513e017b614d3526c8,2022-05-12_04h23.32.630,classification_task,2021.2.3,Win32,61.13964294,627c6715c52fd12f31907bd0,,,,,,,,,,,,,,,,,,,,,,,l,1,6.2636,"[""0.055"",""0.405"",""0.580"",""0.538""]","[1,1,1,0]",0,15,15,15,1,1,0,,,0,FALSE,,,,,,,,,,,,,,,,,,,,,,,,,,,,,,,
,60e2bf0aa568b97e8d525872,627c6f513e017b614d3526c8,2022-05-12_04h23.32.630,classification_task,2021.2.3,Win32,61.13964294,627c6715c52fd12f31907bd0,,,,,,,,,,,,,,,,,,,,,,,l,0,5.7623,"[""0.179"",""0.440"",""0.841"",""0.961""]","[0,1,1,1]",0,16,16,16,1,0,1,,,0,FALSE,,,,,,,,,,,,,,,,,,,,,,,,,,,,,,,
,60e2bf0aa568b97e8d525872,627c6f513e017b614d3526c8,2022-05-12_04h23.32.630,classification_task,2021.2.3,Win32,61.13964294,627c6715c52fd12f31907bd0,,,,,,,,,,,,,,,,,,,,,,,a,1,7.4699,"[""0.286"",""0.440"",""0.107"",""0.961""]","[1,1,0,1]",0,17,17,17,1,0,1,,,0,FALSE,,,,,,,,,,,,,,,,,,,,,,,,,,,,,,,
,60e2bf0aa568b97e8d525872,627c6f513e017b614d3526c8,2022-05-12_04h23.32.630,classification_task,2021.2.3,Win32,61.13964294,627c6715c52fd12f31907bd0,,,,,,,,,,,,,,,,,,,,,,,l,1,4.4236,"[""0.141"",""0.336"",""0.178"",""0.710""]","[1,1,0,1]",0,18,18,18,1,1,1,,,0,FALSE,,,,,,,,,,,,,,,,,,,,,,,,,,,,,,,
,60e2bf0aa568b97e8d525872,627c6f513e017b614d3526c8,2022-05-12_04h23.32.630,classification_task,2021.2.3,Win32,61.13964294,627c6715c52fd12f31907bd0,,,,,,,,,,,,,,,,,,,,,,,a,1,5.449,"[""0.286"",""0.440"",""0.841"",""0.107""]","[1,1,1,0]",0,19,19,19,1,0,1,,,0,FALSE,,,,,,,,,,,,,,,,,,,,,,,,,,,,,,,
,60e2bf0aa568b97e8d525872,627c6f513e017b614d3526c8,2022-05-12_04h23.32.630,classification_task,2021.2.3,Win32,61.13964294,627c6715c52fd12f31907bd0,,,,,,,,,,,,,,,,,,,,,,,l,1,4.946,"[""0.547"",""0.405"",""0.580"",""0.783""]","[0,1,1,1]",0,20,20,20,1,1,0,,,0,FALSE,,,,,,,,,,,,,,,,,,,,,,,,,,,,,,,
,60e2bf0aa568b97e8d525872,627c6f513e017b614d3526c8,2022-05-12_04h23.32.630,classification_task,2021.2.3,Win32,61.13964294,627c6715c52fd12f31907bd0,,,,,,,,,,,,,,,,,,,,,,,l,1,3.8514,"[""0.141"",""0.336"",""0.634"",""0.541""]","[1,1,1,0]",0,21,21,21,1,1,1,,,0,FALSE,,,,,,,,,,,,,,,,,,,,,,,,,,,,,,,
,60e2bf0aa568b97e8d525872,627c6f513e017b614d3526c8,2022-05-12_04h23.32.630,classification_task,2021.2.3,Win32,61.13964294,627c6715c52fd12f31907bd0,,,,,,,,,,,,,,,,,,,,,,,l,1,5.7525,"[""0.055"",""0.107"",""0.580"",""0.783""]","[1,0,1,1]",0,22,22,22,1,1,0,,,0,FALSE,,,,,,,,,,,,,,,,,,,,,,,,,,,,,,,
,60e2bf0aa568b97e8d525872,627c6f513e017b614d3526c8,2022-05-12_04h23.32.630,classification_task,2021.2.3,Win32,61.13964294,627c6715c52fd12f31907bd0,,,,,,,,,,,,,,,,,,,,,,,l,0,4.7574,"[""0.097"",""0.482"",""0.889"",""0.926""]","[0,1,1,1]",0,23,23,23,1,0,0,,,0,FALSE,,,,,,,,,,,,,,,,,,,,,,,,,,,,,,,
,60e2bf0aa568b97e8d525872,627c6f513e017b614d3526c8,2022-05-12_04h23.32.630,classification_task,2021.2.3,Win32,61.13964294,627c6715c52fd12f31907bd0,,,,,,,,,,,,,,,,,,,,,,,l,1,5.7338,"[""0.055"",""0.405"",""0.580"",""0.522""]","[1,1,1,0]",0,24,24,24,1,1,0,,,0,FALSE,,,,,,,,,,,,,,,,,,,,,,,,,,,,,,,
,60e2bf0aa568b97e8d525872,627c6f513e017b614d3526c8,2022-05-12_04h23.32.630,classification_task,2021.2.3,Win32,61.13964294,627c6715c52fd12f31907bd0,,,,,,,,,,,,,,,,,,,,,,,a,1,4.9434,"[""0.217"",""0.482"",""0.889"",""0.097""]","[1,1,1,0]",0,25,25,25,1,0,0,,,0,FALSE,,,,,,,,,,,,,,,,,,,,,,,,,,,,,,,
,60e2bf0aa568b97e8d525872,627c6f513e017b614d3526c8,2022-05-12_04h23.32.630,classification_task,2021.2.3,Win32,61.13964294,627c6715c52fd12f31907bd0,,,,,,,,,,,,,,,,,,,,,,,a,1,5.1098,"[""0.286"",""0.747"",""0.841"",""0.961""]","[1,0,1,1]",0,26,26,26,1,0,1,,,0,FALSE,,,,,,,,,,,,,,,,,,,,,,,,,,,,,,,
,60e2bf0aa568b97e8d525872,627c6f513e017b614d3526c8,2022-05-12_04h23.32.630,classification_task,2021.2.3,Win32,61.13964294,627c6715c52fd12f31907bd0,,,,,,,,,,,,,,,,,,,,,,,a,1,3.0892,"[""0.217"",""0.482"",""0.538"",""0.926""]","[1,1,0,1]",0,27,27,27,1,0,0,,,0,FALSE,,,,,,,,,,,,,,,,,,,,,,,,,,,,,,,
,60e2bf0aa568b97e8d525872,627c6f513e017b614d3526c8,2022-05-12_04h23.32.630,classification_task,2021.2.3,Win32,61.13964294,627c6715c52fd12f31907bd0,,,,,,,,,,,,,,,,,,,,,,,l,1,5.8622,"[""0.055"",""0.405"",""0.538"",""0.783""]","[1,1,0,1]",0,28,28,28,1,1,0,,,0,FALSE,,,,,,,,,,,,,,,,,,,,,,,,,,,,,,,
,60e2bf0aa568b97e8d525872,627c6f513e017b614d3526c8,2022-05-12_04h23.32.630,classification_task,2021.2.3,Win32,61.13964294,627c6715c52fd12f31907bd0,,,,,,,,,,,,,,,,,,,,,,,a,1,3.1685,"[""0.217"",""0.747"",""0.889"",""0.926""]","[1,0,1,1]",0,29,29,29,1,0,0,,,0,FALSE,,,,,,,,,,,,,,,,,,,,,,,,,,,,,,,
,60e2bf0aa568b97e8d525872,627c6f513e017b614d3526c8,2022-05-12_04h23.32.630,classification_task,2021.2.3,Win32,61.13964294,627c6715c52fd12f31907bd0,,,,,,,,,,,,,,,,,,,,,,,l,1,5.0893,"[""0.547"",""0.336"",""0.634"",""0.710""]","[0,1,1,1]",0,30,30,30,1,1,1,,,0,FALSE,,,,,,,,,,,,,,,,,,,,,,,,,,,,,,,
,60e2bf0aa568b97e8d525872,627c6f513e017b614d3526c8,2022-05-12_04h23.32.630,classification_task,2021.2.3,Win32,61.13964294,627c6715c52fd12f31907bd0,,,,,,,,,,,,,,,,,,,,,,,l,1,4.5202,"[""0.141"",""0.522"",""0.634"",""0.710""]","[1,0,1,1]",0,31,31,31,1,1,1,,,0,FALSE,,,,,,,,,,,,,,,,,,,,,,,,,,,,,,,
,60e2bf0aa568b97e8d525872,627c6f513e017b614d3526c8,2022-05-12_04h23.32.630,classification_task,2021.2.3,Win32,61.13964294,627c6715c52fd12f31907bd0,,,,,,,,,,,,,,,,,,,,,,,a,1,7.789,"[""0.217"",""0.538"",""0.889"",""0.926""]","[1,0,1,1]",0,32,32,32,1,0,0,,,0,FALSE,,,,,,,,,,,,,,,,,,,,,,,,,,,,,,,
,60e2bf0aa568b97e8d525872,627c6f513e017b614d3526c8,2022-05-12_04h23.32.630,classification_task,2021.2.3,Win32,61.13964294,627c6715c52fd12f31907bd0,,,,,,,,,,,,,,,,,,,,,,,l,0,5.2969,"[""0.286"",""0.747"",""0.841"",""0.961""]","[1,0,1,1]",0,33,33,33,1,0,1,,,0,FALSE,,,,,,,,,,,,,,,,,,,,,,,,,,,,,,,
,60e2bf0aa568b97e8d525872,627c6f513e017b614d3526c8,2022-05-12_04h23.32.630,classification_task,2021.2.3,Win32,61.13964294,627c6715c52fd12f31907bd0,,,,,,,,,,,,,,,,,,,,,,,a,1,1.8789,"[""0.217"",""0.482"",""0.889"",""0.093""]","[1,1,1,0]",0,34,34,34,1,0,0,,,0,FALSE,,,,,,,,,,,,,,,,,,,,,,,,,,,,,,,
,60e2bf0aa568b97e8d525872,627c6f513e017b614d3526c8,2022-05-12_04h23.32.630,classification_task,2021.2.3,Win32,61.13964294,627c6715c52fd12f31907bd0,,,,,,,,,,,,,,,,,,,,,,,a,0,3.4093,"[""0.055"",""0.099"",""0.580"",""0.783""]","[1,0,1,1]",0,35,35,35,1,1,0,,,0,FALSE,,,,,,,,,,,,,,,,,,,,,,,,,,,,,,,
,60e2bf0aa568b97e8d525872,627c6f513e017b614d3526c8,2022-05-12_04h23.32.630,classification_task,2021.2.3,Win32,61.13964294,627c6715c52fd12f31907bd0,,,,,,,,,,,,,,,,,,,,,,,a,0,1.5505,"[""0.141"",""0.179"",""0.634"",""0.710""]","[1,0,1,1]",0,36,36,36,1,1,1,,,0,FALSE,,,,,,,,,,,,,,,,,,,,,,,,,,,,,,,
,60e2bf0aa568b97e8d525872,627c6f513e017b614d3526c8,2022-05-12_04h23.32.630,classification_task,2021.2.3,Win32,61.13964294,627c6715c52fd12f31907bd0,,,,,,,,,,,,,,,,,,,,,,,a,1,1.4284,"[""0.217"",""0.482"",""0.097"",""0.926""]","[1,1,0,1]",0,37,37,37,1,0,0,,,0,FALSE,,,,,,,,,,,,,,,,,,,,,,,,,,,,,,,
,60e2bf0aa568b97e8d525872,627c6f513e017b614d3526c8,2022-05-12_04h23.32.630,classification_task,2021.2.3,Win32,61.13964294,627c6715c52fd12f31907bd0,,,,,,,,,,,,,,,,,,,,,,,l,0,1.6722,"[""0.286"",""0.440"",""0.747"",""0.961""]","[1,1,0,1]",0,38,38,38,1,0,1,,,0,FALSE,,,,,,,,,,,,,,,,,,,,,,,,,,,,,,,
,60e2bf0aa568b97e8d525872,627c6f513e017b614d3526c8,2022-05-12_04h23.32.630,classification_task,2021.2.3,Win32,61.13964294,627c6715c52fd12f31907bd0,,,,,,,,,,,,,,,,,,,,,,,l,0,1.5386,"[""0.538"",""0.482"",""0.889"",""0.926""]","[0,1,1,1]",0,39,39,39,1,0,0,,,0,FALSE,,,,,,,,,,,,,,,,,,,,,,,,,,,,,,,
,60e2bf0aa568b97e8d525872,627c6f513e017b614d3526c8,2022-05-12_04h23.32.630,classification_task,2021.2.3,Win32,61.13964294,627c6715c52fd12f31907bd0,,,,,,,,,,,,,,,,,,,,,,,a,0,0.8991,"[""0.055"",""0.405"",""0.107"",""0.783""]","[1,1,0,1]",0,40,40,40,1,1,0,,,0,FALSE,,,,,,,,,,,,,,,,,,,,,,,,,,,,,,,
,60e2bf0aa568b97e8d525872,627c6f513e017b614d3526c8,2022-05-12_04h23.32.630,classification_task,2021.2.3,Win32,61.13964294,627c6715c52fd12f31907bd0,,,,,,,,,,,,,,,,,,,,,,,a,0,1.6617,"[""0.179"",""0.405"",""0.580"",""0.783""]","[0,1,1,1]",0,41,41,41,1,1,0,,,0,FALSE,,,,,,,,,,,,,,,,,,,,,,,,,,,,,,,
,60e2bf0aa568b97e8d525872,627c6f513e017b614d3526c8,2022-05-12_04h23.32.630,classification_task,2021.2.3,Win32,61.13964294,627c6715c52fd12f31907bd0,,,,,,,,,,,,,,,,,,,,,,,a,0,1.2984,"[""0.141"",""0.336"",""0.104"",""0.710""]","[1,1,0,1]",0,42,42,42,1,1,1,,,0,FALSE,,,,,,,,,,,,,,,,,,,,,,,,,,,,,,,
,60e2bf0aa568b97e8d525872,627c6f513e017b614d3526c8,2022-05-12_04h23.32.630,classification_task,2021.2.3,Win32,61.13964294,627c6715c52fd12f31907bd0,,,,,,,,,,,,,,,,,,,,,,,l,0,1.1886,"[""0.541"",""0.440"",""0.841"",""0.961""]","[0,1,1,1]",0,43,43,43,1,0,1,,,0,FALSE,,,,,,,,,,,,,,,,,,,,,,,,,,,,,,,
,60e2bf0aa568b97e8d525872,627c6f513e017b614d3526c8,2022-05-12_04h23.32.630,classification_task,2021.2.3,Win32,61.13964294,627c6715c52fd12f31907bd0,,,,,,,,,,,,,,,,,,,,,,,a,0,3.0739,"[""0.141"",""0.336"",""0.634"",""0.089""]","[1,1,1,0]",0,44,44,44,1,1,1,,,0,FALSE,,,,,,,,,,,,,,,,,,,,,,,,,,,,,,,
,60e2bf0aa568b97e8d525872,627c6f513e017b614d3526c8,2022-05-12_04h23.32.630,classification_task,2021.2.3,Win32,61.13964294,627c6715c52fd12f31907bd0,,,,,,,,,,,,,,,,,,,,,,,a,1,2.0206,"[""0.286"",""0.440"",""0.841"",""0.104""]","[1,1,1,0]",0,45,45,45,1,0,1,,,0,FALSE,,,,,,,,,,,,,,,,,,,,,,,,,,,,,,,
,60e2bf0aa568b97e8d525872,627c6f513e017b614d3526c8,2022-05-12_04h23.32.630,classification_task,2021.2.3,Win32,61.13964294,627c6715c52fd12f31907bd0,,,,,,,,,,,,,,,,,,,,,,,l,1,2.6774,"[""0.748"",""0.336"",""0.634"",""0.710""]","[0,1,1,1]",0,46,46,46,1,1,1,,,0,FALSE,,,,,,,,,,,,,,,,,,,,,,,,,,,,,,,
,60e2bf0aa568b97e8d525872,627c6f513e017b614d3526c8,2022-05-12_04h23.32.630,classification_task,2021.2.3,Win32,61.13964294,627c6715c52fd12f31907bd0,,,,,,,,,,,,,,,,,,,,,,,l,1,2.1668,"[""0.055"",""0.405"",""0.580"",""0.089""]","[1,1,1,0]",0,47,47,47,1,1,0,,,0,FALSE,,,,,,,,,,,,,,,,,,,,,,,,,,,,,,,
,60e2bf0aa568b97e8d525872,627c6f513e017b614d3526c8,2022-05-12_04h23.32.630,classification_task,2021.2.3,Win32,61.13964294,627c6715c52fd12f31907bd0,,,,,,,,,,,,,,,,,,,,,,,a,0,1.528,"[""0.055"",""0.405"",""0.522"",""0.783""]","[1,1,0,1]",0,48,48,48,1,1,0,,,0,FALSE,,,,,,,,,,,,,,,,,,,,,,,,,,,,,,,
,60e2bf0aa568b97e8d525872,627c6f513e017b614d3526c8,2022-05-12_04h23.32.630,classification_task,2021.2.3,Win32,61.13964294,627c6715c52fd12f31907bd0,,,,,,,,,,,,,,,,,,,,,,,a,1,1.2797,"[""0.217"",""0.482"",""0.747"",""0.926""]","[1,1,0,1]",0,49,49,49,1,0,0,,,0,FALSE,,,,,,,,,,,,,,,,,,,,,,,,,,,,,,,
,60e2bf0aa568b97e8d525872,627c6f513e017b614d3526c8,2022-05-12_04h23.32.630,classification_task,2021.2.3,Win32,61.13964294,627c6715c52fd12f31907bd0,,,,,,,,,,,,,,,,,,,,,,,l,0,2.2024,"[""0.097"",""0.482"",""0.889"",""0.926""]","[0,1,1,1]",0,50,50,50,1,0,0,,,0,FALSE,,,,,,,,,,,,,,,,,,,,,,,,,,,,,,,
,60e2bf0aa568b97e8d525872,627c6f513e017b614d3526c8,2022-05-12_04h23.32.630,classification_task,2021.2.3,Win32,61.13964294,627c6715c52fd12f31907bd0,,,,,,,,,,,,,,,,,,,,,,,l,1,1.3616,"[""0.055"",""0.099"",""0.580"",""0.783""]","[1,0,1,1]",0,51,51,51,1,1,0,,,0,FALSE,,,,,,,,,,,,,,,,,,,,,,,,,,,,,,,
,60e2bf0aa568b97e8d525872,627c6f513e017b614d3526c8,2022-05-12_04h23.32.630,classification_task,2021.2.3,Win32,61.13964294,627c6715c52fd12f31907bd0,,,,,,,,,,,,,,,,,,,,,,,l,1,1.5247,"[""0.141"",""0.336"",""0.097"",""0.710""]","[1,1,0,1]",0,52,52,52,1,1,1,,,0,FALSE,,,,,,,,,,,,,,,,,,,,,,,,,,,,,,,
,60e2bf0aa568b97e8d525872,627c6f513e017b614d3526c8,2022-05-12_04h23.32.630,classification_task,2021.2.3,Win32,61.13964294,627c6715c52fd12f31907bd0,,,,,,,,,,,,,,,,,,,,,,,a,1,1.5116,"[""0.286"",""0.440"",""0.104"",""0.961""]","[1,1,0,1]",0,53,53,53,1,0,1,,,0,FALSE,,,,,,,,,,,,,,,,,,,,,,,,,,,,,,,
,60e2bf0aa568b97e8d525872,627c6f513e017b614d3526c8,2022-05-12_04h23.32.630,classification_task,2021.2.3,Win32,61.13964294,627c6715c52fd12f31907bd0,,,,,,,,,,,,,,,,,,,,,,,a,0,1.866,"[""0.141"",""0.747"",""0.634"",""0.710""]","[1,0,1,1]",0,54,54,54,1,1,1,,,0,FALSE,,,,,,,,,,,,,,,,,,,,,,,,,,,,,,,
,60e2bf0aa568b97e8d525872,627c6f513e017b614d3526c8,2022-05-12_04h23.32.630,classification_task,2021.2.3,Win32,61.13964294,627c6715c52fd12f31907bd0,,,,,,,,,,,,,,,,,,,,,,,a,1,1.7711,"[""0.217"",""0.482"",""0.889"",""0.522""]","[1,1,1,0]",0,55,55,55,1,0,0,,,0,FALSE,,,,,,,,,,,,,,,,,,,,,,,,,,,,,,,
,60e2bf0aa568b97e8d525872,627c6f513e017b614d3526c8,2022-05-12_04h23.32.630,classification_task,2021.2.3,Win32,61.13964294,627c6715c52fd12f31907bd0,,,,,,,,,,,,,,,,,,,,,,,l,0,1.4633,"[""0.217"",""0.104"",""0.889"",""0.926""]","[1,0,1,1]",0,56,56,56,1,0,0,,,0,FALSE,,,,,,,,,,,,,,,,,,,,,,,,,,,,,,,
,60e2bf0aa568b97e8d525872,627c6f513e017b614d3526c8,2022-05-12_04h23.32.630,classification_task,2021.2.3,Win32,61.13964294,627c6715c52fd12f31907bd0,,,,,,,,,,,,,,,,,,,,,,,l,1,1.35,"[""0.055"",""0.405"",""0.580"",""0.541""]","[1,1,1,0]",0,57,57,57,1,1,0,,,0,FALSE,,,,,,,,,,,,,,,,,,,,,,,,,,,,,,,
,60e2bf0aa568b97e8d525872,627c6f513e017b614d3526c8,2022-05-12_04h23.32.630,classification_task,2021.2.3,Win32,61.13964294,627c6715c52fd12f31907bd0,,,,,,,,,,,,,,,,,,,,,,,a,0,1.8124,"[""0.748"",""0.336"",""0.634"",""0.710""]","[0,1,1,1]",0,58,58,58,1,1,1,,,0,FALSE,,,,,,,,,,,,,,,,,,,,,,,,,,,,,,,
,60e2bf0aa568b97e8d525872,627c6f513e017b614d3526c8,2022-05-12_04h23.32.630,classification_task,2021.2.3,Win32,61.13964294,627c6715c52fd12f31907bd0,,,,,,,,,,,,,,,,,,,,,,,a,0,1.2738,"[""0.538"",""0.405"",""0.580"",""0.783""]","[0,1,1,1]",0,59,59,59,1,1,0,,,0,FALSE,,,,,,,,,,,,,,,,,,,,,,,,,,,,,,,
,60e2bf0aa568b97e8d525872,627c6f513e017b614d3526c8,2022-05-12_04h23.32.630,classification_task,2021.2.3,Win32,61.13964294,627c6715c52fd12f31907bd0,,,,,,,,,,,,,,,,,,,,,,,a,0,1.1964,"[""0.141"",""0.336"",""0.634"",""0.089""]","[1,1,1,0]",0,60,60,60,1,1,1,,,0,FALSE,,,,,,,,,,,,,,,,,,,,,,,,,,,,,,,
,60e2bf0aa568b97e8d525872,627c6f513e017b614d3526c8,2022-05-12_04h23.32.630,classification_task,2021.2.3,Win32,61.13964294,627c6715c52fd12f31907bd0,,,,,,,,,,,,,,,,,,,,,,,a,1,1.404,"[""0.097"",""0.440"",""0.841"",""0.961""]","[0,1,1,1]",0,61,61,61,1,0,1,,,0,FALSE,,,,,,,,,,,,,,,,,,,,,,,,,,,,,,,
,60e2bf0aa568b97e8d525872,627c6f513e017b614d3526c8,2022-05-12_04h23.32.630,classification_task,2021.2.3,Win32,61.13964294,627c6715c52fd12f31907bd0,,,,,,,,,,,,,,,,,,,,,,,l,0,1.9129,"[""0.286"",""0.099"",""0.841"",""0.961""]","[1,0,1,1]",0,62,62,62,1,0,1,,,0,FALSE,,,,,,,,,,,,,,,,,,,,,,,,,,,,,,,
,60e2bf0aa568b97e8d525872,627c6f513e017b614d3526c8,2022-05-12_04h23.32.630,classification_task,2021.2.3,Win32,61.13964294,627c6715c52fd12f31907bd0,,,,,,,,,,,,,,,,,,,,,,,a,1,1.1857,"[""0.286"",""0.440"",""0.841"",""0.099""]","[1,1,1,0]",0,63,63,63,1,0,1,,,0,FALSE,,,,,,,,,,,,,,,,,,,,,,,,,,,,,,,
,60e2bf0aa568b97e8d525872,627c6f513e017b614d3526c8,2022-05-12_04h23.32.630,classification_task,2021.2.3,Win32,61.13964294,627c6715c52fd12f31907bd0,,,,,,,,,,,,,,,,,,,,,,,,,,,,,,,,,,,,,,,0, ,,0,3.656580688,540.2217,0,0,0,0,1,2,1,,,,,,,,,,,,,,,,,,
,60e2bf0aa568b97e8d525872,627c6f513e017b614d3526c8,2022-05-12_04h23.32.630,classification_task,2021.2.3,Win32,61.13964294,627c6715c52fd12f31907bd0,,,,,,,,,,,,,,,,,,,,,,,,,,,,,,,,,,,,,,,1,  ,,0,10,515.5023,0,0,0,0,1,2,1,,,,,,,,,,,,,,,,,,
,60e2bf0aa568b97e8d525872,627c6f513e017b614d3526c8,2022-05-12_04h23.32.630,classification_task,2021.2.3,Win32,61.13964294,627c6715c52fd12f31907bd0,,,,,,,,,,,,,,,,,,,,,,,,,,,,,,,,,,,,,,,2,  ,,0,4.001047178,523.5999,0,0,0,0,1,2,1,,,,,,,,,,,,,,,,,,
,60e2bf0aa568b97e8d525872,627c6f513e017b614d3526c8,2022-05-12_04h23.32.630,classification_task,2021.2.3,Win32,61.13964294,627c6715c52fd12f31907bd0,,,,,,,,,,,,,,,,,,,,,,,,,,,,,,,,,,,,,,,,,,,,,0,0,0,0,1,,1,,,,,,,,,,,,,,,,,,
,60e2bf0aa568b97e8d525872,627c6f513e017b614d3526c8,2022-05-12_04h23.32.630,classification_task,2021.2.3,Win32,61.13964294,627c6715c52fd12f31907bd0,,,,,,,,,,,,,,,,,,,,,space,14.9079,a,0,4.8173,"[""0.181"",""0.405"",""0.580"",""0.783""]","[0,1,1,1]",0,0,0,0,1,1,0,,,0,FALSE,,,,,,,,,,,,,,,,,,,,,,,,,,,,,,,
,60e2bf0aa568b97e8d525872,627c6f513e017b614d3526c8,2022-05-12_04h23.32.630,classification_task,2021.2.3,Win32,61.13964294,627c6715c52fd12f31907bd0,,,,,,,,,,,,,,,,,,,,,,,a,1,3.0696,"[""0.286"",""0.522"",""0.841"",""0.961""]","[1,0,1,1]",0,1,1,1,1,0,1,,,0,FALSE,,,,,,,,,,,,,,,,,,,,,,,,,,,,,,,
,60e2bf0aa568b97e8d525872,627c6f513e017b614d3526c8,2022-05-12_04h23.32.630,classification_task,2021.2.3,Win32,61.13964294,627c6715c52fd12f31907bd0,,,,,,,,,,,,,,,,,,,,,,,l,0,1.3463,"[""0.093"",""0.482"",""0.889"",""0.926""]","[0,1,1,1]",0,2,2,2,1,0,0,,,0,FALSE,,,,,,,,,,,,,,,,,,,,,,,,,,,,,,,
,60e2bf0aa568b97e8d525872,627c6f513e017b614d3526c8,2022-05-12_04h23.32.630,classification_task,2021.2.3,Win32,61.13964294,627c6715c52fd12f31907bd0,,,,,,,,,,,,,,,,,,,,,,,l,0,2.1723,"[""0.540"",""0.440"",""0.841"",""0.961""]","[0,1,1,1]",0,3,3,3,1,0,1,,,0,FALSE,,,,,,,,,,,,,,,,,,,,,,,,,,,,,,,
,60e2bf0aa568b97e8d525872,627c6f513e017b614d3526c8,2022-05-12_04h23.32.630,classification_task,2021.2.3,Win32,61.13964294,627c6715c52fd12f31907bd0,,,,,,,,,,,,,,,,,,,,,,,l,1,0.828,"[""0.538"",""0.336"",""0.634"",""0.710""]","[0,1,1,1]",0,4,4,4,1,1,1,,,0,FALSE,,,,,,,,,,,,,,,,,,,,,,,,,,,,,,,
,60e2bf0aa568b97e8d525872,627c6f513e017b614d3526c8,2022-05-12_04h23.32.630,classification_task,2021.2.3,Win32,61.13964294,627c6715c52fd12f31907bd0,,,,,,,,,,,,,,,,,,,,,,,a,1,1.1586,"[""0.286"",""0.440"",""0.093"",""0.961""]","[1,1,0,1]",0,5,5,5,1,0,1,,,0,FALSE,,,,,,,,,,,,,,,,,,,,,,,,,,,,,,,
,60e2bf0aa568b97e8d525872,627c6f513e017b614d3526c8,2022-05-12_04h23.32.630,classification_task,2021.2.3,Win32,61.13964294,627c6715c52fd12f31907bd0,,,,,,,,,,,,,,,,,,,,,,,a,1,1.3696,"[""0.217"",""0.522"",""0.889"",""0.926""]","[1,0,1,1]",0,6,6,6,1,0,0,,,0,FALSE,,,,,,,,,,,,,,,,,,,,,,,,,,,,,,,
,60e2bf0aa568b97e8d525872,627c6f513e017b614d3526c8,2022-05-12_04h23.32.630,classification_task,2021.2.3,Win32,61.13964294,627c6715c52fd12f31907bd0,,,,,,,,,,,,,,,,,,,,,,,l,0,1.1863,"[""0.217"",""0.482"",""0.889"",""0.540""]","[1,1,1,0]",0,7,7,7,1,0,0,,,0,FALSE,,,,,,,,,,,,,,,,,,,,,,,,,,,,,,,
,60e2bf0aa568b97e8d525872,627c6f513e017b614d3526c8,2022-05-12_04h23.32.630,classification_task,2021.2.3,Win32,61.13964294,627c6715c52fd12f31907bd0,,,,,,,,,,,,,,,,,,,,,,,a,0,1.1224,"[""0.055"",""0.405"",""0.747"",""0.783""]","[1,1,0,1]",0,8,8,8,1,1,0,,,0,FALSE,,,,,,,,,,,,,,,,,,,,,,,,,,,,,,,
,60e2bf0aa568b97e8d525872,627c6f513e017b614d3526c8,2022-05-12_04h23.32.630,classification_task,2021.2.3,Win32,61.13964294,627c6715c52fd12f31907bd0,,,,,,,,,,,,,,,,,,,,,,,a,0,1.9654,"[""0.141"",""0.336"",""0.547"",""0.710""]","[1,1,0,1]",0,9,9,9,1,1,1,,,0,FALSE,,,,,,,,,,,,,,,,,,,,,,,,,,,,,,,
,60e2bf0aa568b97e8d525872,627c6f513e017b614d3526c8,2022-05-12_04h23.32.630,classification_task,2021.2.3,Win32,61.13964294,627c6715c52fd12f31907bd0,,,,,,,,,,,,,,,,,,,,,,,l,1,2.4171,"[""0.141"",""0.336"",""0.634"",""0.747""]","[1,1,1,0]",0,10,10,10,1,1,1,,,0,FALSE,,,,,,,,,,,,,,,,,,,,,,,,,,,,,,,
,60e2bf0aa568b97e8d525872,627c6f513e017b614d3526c8,2022-05-12_04h23.32.630,classification_task,2021.2.3,Win32,61.13964294,627c6715c52fd12f31907bd0,,,,,,,,,,,,,,,,,,,,,,,a,0,1.2492,"[""0.055"",""0.178"",""0.580"",""0.783""]","[1,0,1,1]",0,11,11,11,1,1,0,,,0,FALSE,,,,,,,,,,,,,,,,,,,,,,,,,,,,,,,
,60e2bf0aa568b97e8d525872,627c6f513e017b614d3526c8,2022-05-12_04h23.32.630,classification_task,2021.2.3,Win32,61.13964294,627c6715c52fd12f31907bd0,,,,,,,,,,,,,,,,,,,,,,,a,0,2.0113,"[""0.141"",""0.089"",""0.634"",""0.710""]","[1,0,1,1]",0,12,12,12,1,1,1,,,0,FALSE,,,,,,,,,,,,,,,,,,,,,,,,,,,,,,,
,60e2bf0aa568b97e8d525872,627c6f513e017b614d3526c8,2022-05-12_04h23.32.630,classification_task,2021.2.3,Win32,61.13964294,627c6715c52fd12f31907bd0,,,,,,,,,,,,,,,,,,,,,,,a,1,1.9309,"[""0.217"",""0.482"",""0.099"",""0.926""]","[1,1,0,1]",0,13,13,13,1,0,0,,,0,FALSE,,,,,,,,,,,,,,,,,,,,,,,,,,,,,,,
,60e2bf0aa568b97e8d525872,627c6f513e017b614d3526c8,2022-05-12_04h23.32.630,classification_task,2021.2.3,Win32,61.13964294,627c6715c52fd12f31907bd0,,,,,,,,,,,,,,,,,,,,,,,l,1,1.4095,"[""0.055"",""0.405"",""0.580"",""0.540""]","[1,1,1,0]",0,14,14,14,1,1,0,,,0,FALSE,,,,,,,,,,,,,,,,,,,,,,,,,,,,,,,
,60e2bf0aa568b97e8d525872,627c6f513e017b614d3526c8,2022-05-12_04h23.32.630,classification_task,2021.2.3,Win32,61.13964294,627c6715c52fd12f31907bd0,,,,,,,,,,,,,,,,,,,,,,,l,0,1.9643,"[""0.286"",""0.440"",""0.841"",""0.747""]","[1,1,1,0]",0,15,15,15,1,0,1,,,0,FALSE,,,,,,,,,,,,,,,,,,,,,,,,,,,,,,,
,60e2bf0aa568b97e8d525872,627c6f513e017b614d3526c8,2022-05-12_04h23.32.630,classification_task,2021.2.3,Win32,61.13964294,627c6715c52fd12f31907bd0,,,,,,,,,,,,,,,,,,,,,,,a,1,2.354,"[""0.217"",""0.482"",""0.541"",""0.926""]","[1,1,0,1]",0,16,16,16,1,0,0,,,0,FALSE,,,,,,,,,,,,,,,,,,,,,,,,,,,,,,,
,60e2bf0aa568b97e8d525872,627c6f513e017b614d3526c8,2022-05-12_04h23.32.630,classification_task,2021.2.3,Win32,61.13964294,627c6715c52fd12f31907bd0,,,,,,,,,,,,,,,,,,,,,,,a,0,1.9517,"[""0.522"",""0.405"",""0.580"",""0.783""]","[0,1,1,1]",0,17,17,17,1,1,0,,,0,FALSE,,,,,,,,,,,,,,,,,,,,,,,,,,,,,,,
,60e2bf0aa568b97e8d525872,627c6f513e017b614d3526c8,2022-05-12_04h23.32.630,classification_task,2021.2.3,Win32,61.13964294,627c6715c52fd12f31907bd0,,,,,,,,,,,,,,,,,,,,,,,l,1,1.6472,"[""0.141"",""0.336"",""0.634"",""0.093""]","[1,1,1,0]",0,18,18,18,1,1,1,,,0,FALSE,,,,,,,,,,,,,,,,,,,,,,,,,,,,,,,
,60e2bf0aa568b97e8d525872,627c6f513e017b614d3526c8,2022-05-12_04h23.32.630,classification_task,2021.2.3,Win32,61.13964294,627c6715c52fd12f31907bd0,,,,,,,,,,,,,,,,,,,,,,,a,1,1.9686,"[""0.286"",""0.440"",""0.104"",""0.961""]","[1,1,0,1]",0,19,19,19,1,0,1,,,0,FALSE,,,,,,,,,,,,,,,,,,,,,,,,,,,,,,,
,60e2bf0aa568b97e8d525872,627c6f513e017b614d3526c8,2022-05-12_04h23.32.630,classification_task,2021.2.3,Win32,61.13964294,627c6715c52fd12f31907bd0,,,,,,,,,,,,,,,,,,,,,,,l,1,2.216,"[""0.141"",""0.336"",""0.538"",""0.710""]","[1,1,0,1]",0,20,20,20,1,1,1,,,0,FALSE,,,,,,,,,,,,,,,,,,,,,,,,,,,,,,,
,60e2bf0aa568b97e8d525872,627c6f513e017b614d3526c8,2022-05-12_04h23.32.630,classification_task,2021.2.3,Win32,61.13964294,627c6715c52fd12f31907bd0,,,,,,,,,,,,,,,,,,,,,,,a,1,2.2305,"[""0.748"",""0.440"",""0.841"",""0.961""]","[0,1,1,1]",0,21,21,21,1,0,1,,,0,FALSE,,,,,,,,,,,,,,,,,,,,,,,,,,,,,,,
,60e2bf0aa568b97e8d525872,627c6f513e017b614d3526c8,2022-05-12_04h23.32.630,classification_task,2021.2.3,Win32,61.13964294,627c6715c52fd12f31907bd0,,,,,,,,,,,,,,,,,,,,,,,l,0,3.1745,"[""0.178"",""0.482"",""0.889"",""0.926""]","[0,1,1,1]",0,22,22,22,1,0,0,,,0,FALSE,,,,,,,,,,,,,,,,,,,,,,,,,,,,,,,
,60e2bf0aa568b97e8d525872,627c6f513e017b614d3526c8,2022-05-12_04h23.32.630,classification_task,2021.2.3,Win32,61.13964294,627c6715c52fd12f31907bd0,,,,,,,,,,,,,,,,,,,,,,,a,0,2.225,"[""0.055"",""0.538"",""0.580"",""0.783""]","[1,0,1,1]",0,23,23,23,1,1,0,,,0,FALSE,,,,,,,,,,,,,,,,,,,,,,,,,,,,,,,
,60e2bf0aa568b97e8d525872,627c6f513e017b614d3526c8,2022-05-12_04h23.32.630,classification_task,2021.2.3,Win32,61.13964294,627c6715c52fd12f31907bd0,,,,,,,,,,,,,,,,,,,,,,,l,0,0.7913,"[""0.217"",""0.522"",""0.889"",""0.926""]","[1,0,1,1]",0,24,24,24,1,0,0,,,0,FALSE,,,,,,,,,,,,,,,,,,,,,,,,,,,,,,,
,60e2bf0aa568b97e8d525872,627c6f513e017b614d3526c8,2022-05-12_04h23.32.630,classification_task,2021.2.3,Win32,61.13964294,627c6715c52fd12f31907bd0,,,,,,,,,,,,,,,,,,,,,,,a,1,2.805,"[""0.286"",""0.440"",""0.841"",""0.540""]","[1,1,1,0]",0,25,25,25,1,0,1,,,0,FALSE,,,,,,,,,,,,,,,,,,,,,,,,,,,,,,,
,60e2bf0aa568b97e8d525872,627c6f513e017b614d3526c8,2022-05-12_04h23.32.630,classification_task,2021.2.3,Win32,61.13964294,627c6715c52fd12f31907bd0,,,,,,,,,,,,,,,,,,,,,,,a,0,2.6279,"[""0.055"",""0.405"",""0.522"",""0.783""]","[1,1,0,1]",0,26,26,26,1,1,0,,,0,FALSE,,,,,,,,,,,,,,,,,,,,,,,,,,,,,,,
,60e2bf0aa568b97e8d525872,627c6f513e017b614d3526c8,2022-05-12_04h23.32.630,classification_task,2021.2.3,Win32,61.13964294,627c6715c52fd12f31907bd0,,,,,,,,,,,,,,,,,,,,,,,a,0,2.1026,"[""0.141"",""0.099"",""0.634"",""0.710""]","[1,0,1,1]",0,27,27,27,1,1,1,,,0,FALSE,,,,,,,,,,,,,,,,,,,,,,,,,,,,,,,
,60e2bf0aa568b97e8d525872,627c6f513e017b614d3526c8,2022-05-12_04h23.32.630,classification_task,2021.2.3,Win32,61.13964294,627c6715c52fd12f31907bd0,,,,,,,,,,,,,,,,,,,,,,,a,1,1.7164,"[""0.286"",""0.179"",""0.841"",""0.961""]","[1,0,1,1]",0,28,28,28,1,0,1,,,0,FALSE,,,,,,,,,,,,,,,,,,,,,,,,,,,,,,,
,60e2bf0aa568b97e8d525872,627c6f513e017b614d3526c8,2022-05-12_04h23.32.630,classification_task,2021.2.3,Win32,61.13964294,627c6715c52fd12f31907bd0,,,,,,,,,,,,,,,,,,,,,,,l,0,2.0103,"[""0.217"",""0.482"",""0.889"",""0.107""]","[1,1,1,0]",0,29,29,29,1,0,0,,,0,FALSE,,,,,,,,,,,,,,,,,,,,,,,,,,,,,,,
,60e2bf0aa568b97e8d525872,627c6f513e017b614d3526c8,2022-05-12_04h23.32.630,classification_task,2021.2.3,Win32,61.13964294,627c6715c52fd12f31907bd0,,,,,,,,,,,,,,,,,,,,,,,l,1,2.0847,"[""0.747"",""0.336"",""0.634"",""0.710""]","[0,1,1,1]",0,30,30,30,1,1,1,,,0,FALSE,,,,,,,,,,,,,,,,,,,,,,,,,,,,,,,
,60e2bf0aa568b97e8d525872,627c6f513e017b614d3526c8,2022-05-12_04h23.32.630,classification_task,2021.2.3,Win32,61.13964294,627c6715c52fd12f31907bd0,,,,,,,,,,,,,,,,,,,,,,,a,0,1.4371,"[""0.055"",""0.405"",""0.580"",""0.104""]","[1,1,1,0]",0,31,31,31,1,1,0,,,0,FALSE,,,,,,,,,,,,,,,,,,,,,,,,,,,,,,,
,60e2bf0aa568b97e8d525872,627c6f513e017b614d3526c8,2022-05-12_04h23.32.630,classification_task,2021.2.3,Win32,61.13964294,627c6715c52fd12f31907bd0,,,,,,,,,,,,,,,,,,,,,,,a,0,2.0491,"[""0.141"",""0.747"",""0.634"",""0.710""]","[1,0,1,1]",0,32,32,32,1,1,1,,,0,FALSE,,,,,,,,,,,,,,,,,,,,,,,,,,,,,,,
,60e2bf0aa568b97e8d525872,627c6f513e017b614d3526c8,2022-05-12_04h23.32.630,classification_task,2021.2.3,Win32,61.13964294,627c6715c52fd12f31907bd0,,,,,,,,,,,,,,,,,,,,,,,a,1,1.7724,"[""0.286"",""0.540"",""0.841"",""0.961""]","[1,0,1,1]",0,33,33,33,1,0,1,,,0,FALSE,,,,,,,,,,,,,,,,,,,,,,,,,,,,,,,
,60e2bf0aa568b97e8d525872,627c6f513e017b614d3526c8,2022-05-12_04h23.32.630,classification_task,2021.2.3,Win32,61.13964294,627c6715c52fd12f31907bd0,,,,,,,,,,,,,,,,,,,,,,,l,1,2.1388,"[""0.141"",""0.336"",""0.538"",""0.710""]","[1,1,0,1]",0,34,34,34,1,1,1,,,0,FALSE,,,,,,,,,,,,,,,,,,,,,,,,,,,,,,,
,60e2bf0aa568b97e8d525872,627c6f513e017b614d3526c8,2022-05-12_04h23.32.630,classification_task,2021.2.3,Win32,61.13964294,627c6715c52fd12f31907bd0,,,,,,,,,,,,,,,,,,,,,,,l,0,0.9269,"[""0.217"",""0.482"",""0.889"",""0.540""]","[1,1,1,0]",0,35,35,35,1,0,0,,,0,FALSE,,,,,,,,,,,,,,,,,,,,,,,,,,,,,,,
,60e2bf0aa568b97e8d525872,627c6f513e017b614d3526c8,2022-05-12_04h23.32.630,classification_task,2021.2.3,Win32,61.13964294,627c6715c52fd12f31907bd0,,,,,,,,,,,,,,,,,,,,,,,a,1,2.1546,"[""0.099"",""0.440"",""0.841"",""0.961""]","[0,1,1,1]",0,36,36,36,1,0,1,,,0,FALSE,,,,,,,,,,,,,,,,,,,,,,,,,,,,,,,
,60e2bf0aa568b97e8d525872,627c6f513e017b614d3526c8,2022-05-12_04h23.32.630,classification_task,2021.2.3,Win32,61.13964294,627c6715c52fd12f31907bd0,,,,,,,,,,,,,,,,,,,,,,,a,0,2.6504,"[""0.107"",""0.336"",""0.634"",""0.710""]","[0,1,1,1]",0,37,37,37,1,1,1,,,0,FALSE,,,,,,,,,,,,,,,,,,,,,,,,,,,,,,,
,60e2bf0aa568b97e8d525872,627c6f513e017b614d3526c8,2022-05-12_04h23.32.630,classification_task,2021.2.3,Win32,61.13964294,627c6715c52fd12f31907bd0,,,,,,,,,,,,,,,,,,,,,,,a,0,2.5202,"[""0.141"",""0.336"",""0.634"",""0.178""]","[1,1,1,0]",0,38,38,38,1,1,1,,,0,FALSE,,,,,,,,,,,,,,,,,,,,,,,,,,,,,,,
,60e2bf0aa568b97e8d525872,627c6f513e017b614d3526c8,2022-05-12_04h23.32.630,classification_task,2021.2.3,Win32,61.13964294,627c6715c52fd12f31907bd0,,,,,,,,,,,,,,,,,,,,,,,l,0,2.4561,"[""0.217"",""0.482"",""0.097"",""0.926""]","[1,1,0,1]",0,39,39,39,1,0,0,,,0,FALSE,,,,,,,,,,,,,,,,,,,,,,,,,,,,,,,
,60e2bf0aa568b97e8d525872,627c6f513e017b614d3526c8,2022-05-12_04h23.32.630,classification_task,2021.2.3,Win32,61.13964294,627c6715c52fd12f31907bd0,,,,,,,,,,,,,,,,,,,,,,,a,0,1.8285,"[""0.178"",""0.405"",""0.580"",""0.783""]","[0,1,1,1]",0,40,40,40,1,1,0,,,0,FALSE,,,,,,,,,,,,,,,,,,,,,,,,,,,,,,,
,60e2bf0aa568b97e8d525872,627c6f513e017b614d3526c8,2022-05-12_04h23.32.630,classification_task,2021.2.3,Win32,61.13964294,627c6715c52fd12f31907bd0,,,,,,,,,,,,,,,,,,,,,,,a,1,2.0486,"[""0.747"",""0.482"",""0.889"",""0.926""]","[0,1,1,1]",0,41,41,41,1,0,0,,,0,FALSE,,,,,,,,,,,,,,,,,,,,,,,,,,,,,,,
,60e2bf0aa568b97e8d525872,627c6f513e017b614d3526c8,2022-05-12_04h23.32.630,classification_task,2021.2.3,Win32,61.13964294,627c6715c52fd12f31907bd0,,,,,,,,,,,,,,,,,,,,,,,a,0,2.3598,"[""0.055"",""0.538"",""0.580"",""0.783""]","[1,0,1,1]",0,42,42,42,1,1,0,,,0,FALSE,,,,,,,,,,,,,,,,,,,,,,,,,,,,,,,
,60e2bf0aa568b97e8d525872,627c6f513e017b614d3526c8,2022-05-12_04h23.32.630,classification_task,2021.2.3,Win32,61.13964294,627c6715c52fd12f31907bd0,,,,,,,,,,,,,,,,,,,,,,,a,0,1.7791,"[""0.055"",""0.405"",""0.748"",""0.783""]","[1,1,0,1]",0,43,43,43,1,1,0,,,0,FALSE,,,,,,,,,,,,,,,,,,,,,,,,,,,,,,,
,60e2bf0aa568b97e8d525872,627c6f513e017b614d3526c8,2022-05-12_04h23.32.630,classification_task,2021.2.3,Win32,61.13964294,627c6715c52fd12f31907bd0,,,,,,,,,,,,,,,,,,,,,,,a,1,2.0259,"[""0.286"",""0.440"",""0.107"",""0.961""]","[1,1,0,1]",0,44,44,44,1,0,1,,,0,FALSE,,,,,,,,,,,,,,,,,,,,,,,,,,,,,,,
,60e2bf0aa568b97e8d525872,627c6f513e017b614d3526c8,2022-05-12_04h23.32.630,classification_task,2021.2.3,Win32,61.13964294,627c6715c52fd12f31907bd0,,,,,,,,,,,,,,,,,,,,,,,l,0,2.436,"[""0.286"",""0.440"",""0.841"",""0.179""]","[1,1,1,0]",0,45,45,45,1,0,1,,,0,FALSE,,,,,,,,,,,,,,,,,,,,,,,,,,,,,,,
,60e2bf0aa568b97e8d525872,627c6f513e017b614d3526c8,2022-05-12_04h23.32.630,classification_task,2021.2.3,Win32,61.13964294,627c6715c52fd12f31907bd0,,,,,,,,,,,,,,,,,,,,,,,l,1,1.083,"[""0.055"",""0.405"",""0.580"",""0.179""]","[1,1,1,0]",0,46,46,46,1,1,0,,,0,FALSE,,,,,,,,,,,,,,,,,,,,,,,,,,,,,,,
,60e2bf0aa568b97e8d525872,627c6f513e017b614d3526c8,2022-05-12_04h23.32.630,classification_task,2021.2.3,Win32,61.13964294,627c6715c52fd12f31907bd0,,,,,,,,,,,,,,,,,,,,,,,a,1,1.7416,"[""0.217"",""0.538"",""0.889"",""0.926""]","[1,0,1,1]",0,47,47,47,1,0,0,,,0,FALSE,,,,,,,,,,,,,,,,,,,,,,,,,,,,,,,
,60e2bf0aa568b97e8d525872,627c6f513e017b614d3526c8,2022-05-12_04h23.32.630,classification_task,2021.2.3,Win32,61.13964294,627c6715c52fd12f31907bd0,,,,,,,,,,,,,,,,,,,,,,,l,0,2.2379,"[""0.217"",""0.482"",""0.178"",""0.926""]","[1,1,0,1]",0,48,48,48,1,0,0,,,0,FALSE,,,,,,,,,,,,,,,,,,,,,,,,,,,,,,,
,60e2bf0aa568b97e8d525872,627c6f513e017b614d3526c8,2022-05-12_04h23.32.630,classification_task,2021.2.3,Win32,61.13964294,627c6715c52fd12f31907bd0,,,,,,,,,,,,,,,,,,,,,,,a,1,1.4021,"[""0.217"",""0.093"",""0.889"",""0.926""]","[1,0,1,1]",0,49,49,49,1,0,0,,,0,FALSE,,,,,,,,,,,,,,,,,,,,,,,,,,,,,,,
,60e2bf0aa568b97e8d525872,627c6f513e017b614d3526c8,2022-05-12_04h23.32.630,classification_task,2021.2.3,Win32,61.13964294,627c6715c52fd12f31907bd0,,,,,,,,,,,,,,,,,,,,,,,l,1,2.1483,"[""0.055"",""0.405"",""0.747"",""0.783""]","[1,1,0,1]",0,50,50,50,1,1,0,,,0,FALSE,,,,,,,,,,,,,,,,,,,,,,,,,,,,,,,
,60e2bf0aa568b97e8d525872,627c6f513e017b614d3526c8,2022-05-12_04h23.32.630,classification_task,2021.2.3,Win32,61.13964294,627c6715c52fd12f31907bd0,,,,,,,,,,,,,,,,,,,,,,,a,1,2.9704,"[""0.540"",""0.482"",""0.889"",""0.926""]","[0,1,1,1]",0,51,51,51,1,0,0,,,0,FALSE,,,,,,,,,,,,,,,,,,,,,,,,,,,,,,,
,60e2bf0aa568b97e8d525872,627c6f513e017b614d3526c8,2022-05-12_04h23.32.630,classification_task,2021.2.3,Win32,61.13964294,627c6715c52fd12f31907bd0,,,,,,,,,,,,,,,,,,,,,,,a,0,2.3264,"[""0.141"",""0.336"",""0.634"",""0.541""]","[1,1,1,0]",0,52,52,52,1,1,1,,,0,FALSE,,,,,,,,,,,,,,,,,,,,,,,,,,,,,,,
,60e2bf0aa568b97e8d525872,627c6f513e017b614d3526c8,2022-05-12_04h23.32.630,classification_task,2021.2.3,Win32,61.13964294,627c6715c52fd12f31907bd0,,,,,,,,,,,,,,,,,,,,,,,l,1,2.5302,"[""0.541"",""0.405"",""0.580"",""0.783""]","[0,1,1,1]",0,53,53,53,1,1,0,,,0,FALSE,,,,,,,,,,,,,,,,,,,,,,,,,,,,,,,
,60e2bf0aa568b97e8d525872,627c6f513e017b614d3526c8,2022-05-12_04h23.32.630,classification_task,2021.2.3,Win32,61.13964294,627c6715c52fd12f31907bd0,,,,,,,,,,,,,,,,,,,,,,,a,1,1.7551,"[""0.089"",""0.440"",""0.841"",""0.961""]","[0,1,1,1]",0,54,54,54,1,0,1,,,0,FALSE,,,,,,,,,,,,,,,,,,,,,,,,,,,,,,,
,60e2bf0aa568b97e8d525872,627c6f513e017b614d3526c8,2022-05-12_04h23.32.630,classification_task,2021.2.3,Win32,61.13964294,627c6715c52fd12f31907bd0,,,,,,,,,,,,,,,,,,,,,,,l,1,1.5918,"[""0.141"",""0.336"",""0.547"",""0.710""]","[1,1,0,1]",0,55,55,55,1,1,1,,,0,FALSE,,,,,,,,,,,,,,,,,,,,,,,,,,,,,,,
,60e2bf0aa568b97e8d525872,627c6f513e017b614d3526c8,2022-05-12_04h23.32.630,classification_task,2021.2.3,Win32,61.13964294,627c6715c52fd12f31907bd0,,,,,,,,,,,,,,,,,,,,,,,a,1,2.0487,"[""0.217"",""0.482"",""0.889"",""0.538""]","[1,1,1,0]",0,56,56,56,1,0,0,,,0,FALSE,,,,,,,,,,,,,,,,,,,,,,,,,,,,,,,
,60e2bf0aa568b97e8d525872,627c6f513e017b614d3526c8,2022-05-12_04h23.32.630,classification_task,2021.2.3,Win32,61.13964294,627c6715c52fd12f31907bd0,,,,,,,,,,,,,,,,,,,,,,,l,0,2.6579,"[""0.286"",""0.179"",""0.841"",""0.961""]","[1,0,1,1]",0,57,57,57,1,0,1,,,0,FALSE,,,,,,,,,,,,,,,,,,,,,,,,,,,,,,,
,60e2bf0aa568b97e8d525872,627c6f513e017b614d3526c8,2022-05-12_04h23.32.630,classification_task,2021.2.3,Win32,61.13964294,627c6715c52fd12f31907bd0,,,,,,,,,,,,,,,,,,,,,,,a,1,1.4869,"[""0.286"",""0.440"",""0.841"",""0.748""]","[1,1,1,0]",0,58,58,58,1,0,1,,,0,FALSE,,,,,,,,,,,,,,,,,,,,,,,,,,,,,,,
,60e2bf0aa568b97e8d525872,627c6f513e017b614d3526c8,2022-05-12_04h23.32.630,classification_task,2021.2.3,Win32,61.13964294,627c6715c52fd12f31907bd0,,,,,,,,,,,,,,,,,,,,,,,l,1,2.3237,"[""0.141"",""0.522"",""0.634"",""0.710""]","[1,0,1,1]",0,59,59,59,1,1,1,,,0,FALSE,,,,,,,,,,,,,,,,,,,,,,,,,,,,,,,
,60e2bf0aa568b97e8d525872,627c6f513e017b614d3526c8,2022-05-12_04h23.32.630,classification_task,2021.2.3,Win32,61.13964294,627c6715c52fd12f31907bd0,,,,,,,,,,,,,,,,,,,,,,,l,1,2.253,"[""0.747"",""0.336"",""0.634"",""0.710""]","[0,1,1,1]",0,60,60,60,1,1,1,,,0,FALSE,,,,,,,,,,,,,,,,,,,,,,,,,,,,,,,
,60e2bf0aa568b97e8d525872,627c6f513e017b614d3526c8,2022-05-12_04h23.32.630,classification_task,2021.2.3,Win32,61.13964294,627c6715c52fd12f31907bd0,,,,,,,,,,,,,,,,,,,,,,,a,0,1.2171,"[""0.055"",""0.405"",""0.580"",""0.540""]","[1,1,1,0]",0,61,61,61,1,1,0,,,0,FALSE,,,,,,,,,,,,,,,,,,,,,,,,,,,,,,,
,60e2bf0aa568b97e8d525872,627c6f513e017b614d3526c8,2022-05-12_04h23.32.630,classification_task,2021.2.3,Win32,61.13964294,627c6715c52fd12f31907bd0,,,,,,,,,,,,,,,,,,,,,,,l,1,1.6428,"[""0.055"",""0.748"",""0.580"",""0.783""]","[1,0,1,1]",0,62,62,62,1,1,0,,,0,FALSE,,,,,,,,,,,,,,,,,,,,,,,,,,,,,,,
,60e2bf0aa568b97e8d525872,627c6f513e017b614d3526c8,2022-05-12_04h23.32.630,classification_task,2021.2.3,Win32,61.13964294,627c6715c52fd12f31907bd0,,,,,,,,,,,,,,,,,,,,,,,a,1,1.7311,"[""0.286"",""0.440"",""0.547"",""0.961""]","[1,1,0,1]",0,63,63,63,1,0,1,,,0,FALSE,,,,,,,,,,,,,,,,,,,,,,,,,,,,,,,
,60e2bf0aa568b97e8d525872,627c6f513e017b614d3526c8,2022-05-12_04h23.32.630,classification_task,2021.2.3,Win32,61.13964294,627c6715c52fd12f31907bd0,,,,,,,,,,,,,,,,,,,,,,,,,,,,,,,,,,,,,,,0, ,,0,9.512511023,218.7461,0,1,1,1,1,2,2,,,,,,,,,,,,,,,,,,
,60e2bf0aa568b97e8d525872,627c6f513e017b614d3526c8,2022-05-12_04h23.32.630,classification_task,2021.2.3,Win32,61.13964294,627c6715c52fd12f31907bd0,,,,,,,,,,,,,,,,,,,,,,,,,,,,,,,,,,,,,,,1,  ,,0,10,222.7044,0,1,1,1,1,2,2,,,,,,,,,,,,,,,,,,
,60e2bf0aa568b97e8d525872,627c6f513e017b614d3526c8,2022-05-12_04h23.32.630,classification_task,2021.2.3,Win32,61.13964294,627c6715c52fd12f31907bd0,,,,,,,,,,,,,,,,,,,,,,,,,,,,,,,,,,,,,,,2,  ,,0,6.653439153,227.0657,0,1,1,1,1,2,2,,,,,,,,,,,,,,,,,,
,60e2bf0aa568b97e8d525872,627c6f513e017b614d3526c8,2022-05-12_04h23.32.630,classification_task,2021.2.3,Win32,61.13964294,627c6715c52fd12f31907bd0,,,,,,,,,,,,,,,,,,,,,,,,,,,,,,,,,,,,,,,,,,,,,0,1,1,1,1,,2,,,,,,,,,,,,,,,,,,
,60e2bf0aa568b97e8d525872,627c6f513e017b614d3526c8,2022-05-12_04h23.32.630,classification_task,2021.2.3,Win32,61.13964294,627c6715c52fd12f31907bd0,,,,,,,,,,,,,,,,,,,,,space,5.3668,l,1,2.7994,"[""0.522"",""0.405"",""0.580"",""0.783""]","[0,1,1,1]",0,0,0,0,1,1,0,,,0,FALSE,,,,,,,,,,,,,,,,,,,,,,,,,,,,,,,
,60e2bf0aa568b97e8d525872,627c6f513e017b614d3526c8,2022-05-12_04h23.32.630,classification_task,2021.2.3,Win32,61.13964294,627c6715c52fd12f31907bd0,,,,,,,,,,,,,,,,,,,,,,,a,0,2.3656,"[""0.141"",""0.336"",""0.541"",""0.710""]","[1,1,0,1]",0,1,1,1,1,1,1,,,0,FALSE,,,,,,,,,,,,,,,,,,,,,,,,,,,,,,,
,60e2bf0aa568b97e8d525872,627c6f513e017b614d3526c8,2022-05-12_04h23.32.630,classification_task,2021.2.3,Win32,61.13964294,627c6715c52fd12f31907bd0,,,,,,,,,,,,,,,,,,,,,,,a,1,2.8552,"[""0.286"",""0.440"",""0.089"",""0.961""]","[1,1,0,1]",0,2,2,2,1,0,1,,,0,FALSE,,,,,,,,,,,,,,,,,,,,,,,,,,,,,,,
,60e2bf0aa568b97e8d525872,627c6f513e017b614d3526c8,2022-05-12_04h23.32.630,classification_task,2021.2.3,Win32,61.13964294,627c6715c52fd12f31907bd0,,,,,,,,,,,,,,,,,,,,,,,l,1,2.7909,"[""0.141"",""0.541"",""0.634"",""0.710""]","[1,0,1,1]",0,3,3,3,1,1,1,,,0,FALSE,,,,,,,,,,,,,,,,,,,,,,,,,,,,,,,
,60e2bf0aa568b97e8d525872,627c6f513e017b614d3526c8,2022-05-12_04h23.32.630,classification_task,2021.2.3,Win32,61.13964294,627c6715c52fd12f31907bd0,,,,,,,,,,,,,,,,,,,,,,,a,0,4.3279,"[""0.055"",""0.405"",""0.541"",""0.783""]","[1,1,0,1]",0,4,4,4,1,1,0,,,0,FALSE,,,,,,,,,,,,,,,,,,,,,,,,,,,,,,,
,60e2bf0aa568b97e8d525872,627c6f513e017b614d3526c8,2022-05-12_04h23.32.630,classification_task,2021.2.3,Win32,61.13964294,627c6715c52fd12f31907bd0,,,,,,,,,,,,,,,,,,,,,,,l,0,3.9763,"[""0.217"",""0.482"",""0.889"",""0.522""]","[1,1,1,0]",0,5,5,5,1,0,0,,,0,FALSE,,,,,,,,,,,,,,,,,,,,,,,,,,,,,,,
,60e2bf0aa568b97e8d525872,627c6f513e017b614d3526c8,2022-05-12_04h23.32.630,classification_task,2021.2.3,Win32,61.13964294,627c6715c52fd12f31907bd0,,,,,,,,,,,,,,,,,,,,,,,a,1,3.3219,"[""0.217"",""0.104"",""0.889"",""0.926""]","[1,0,1,1]",0,6,6,6,1,0,0,,,0,FALSE,,,,,,,,,,,,,,,,,,,,,,,,,,,,,,,
,60e2bf0aa568b97e8d525872,627c6f513e017b614d3526c8,2022-05-12_04h23.32.630,classification_task,2021.2.3,Win32,61.13964294,627c6715c52fd12f31907bd0,,,,,,,,,,,,,,,,,,,,,,,l,0,2.6526,"[""0.217"",""0.482"",""0.522"",""0.926""]","[1,1,0,1]",0,7,7,7,1,0,0,,,0,FALSE,,,,,,,,,,,,,,,,,,,,,,,,,,,,,,,
,60e2bf0aa568b97e8d525872,627c6f513e017b614d3526c8,2022-05-12_04h23.32.630,classification_task,2021.2.3,Win32,61.13964294,627c6715c52fd12f31907bd0,,,,,,,,,,,,,,,,,,,,,,,l,0,1.7662,"[""0.286"",""0.179"",""0.841"",""0.961""]","[1,0,1,1]",0,8,8,8,1,0,1,,,0,FALSE,,,,,,,,,,,,,,,,,,,,,,,,,,,,,,,
,60e2bf0aa568b97e8d525872,627c6f513e017b614d3526c8,2022-05-12_04h23.32.630,classification_task,2021.2.3,Win32,61.13964294,627c6715c52fd12f31907bd0,,,,,,,,,,,,,,,,,,,,,,,a,0,1.7637,"[""0.107"",""0.336"",""0.634"",""0.710""]","[0,1,1,1]",0,9,9,9,1,1,1,,,0,FALSE,,,,,,,,,,,,,,,,,,,,,,,,,,,,,,,
,60e2bf0aa568b97e8d525872,627c6f513e017b614d3526c8,2022-05-12_04h23.32.630,classification_task,2021.2.3,Win32,61.13964294,627c6715c52fd12f31907bd0,,,,,,,,,,,,,,,,,,,,,,,a,1,5.6941,"[""0.097"",""0.482"",""0.889"",""0.926""]","[0,1,1,1]",0,10,10,10,1,0,0,,,0,FALSE,,,,,,,,,,,,,,,,,,,,,,,,,,,,,,,
,60e2bf0aa568b97e8d525872,627c6f513e017b614d3526c8,2022-05-12_04h23.32.630,classification_task,2021.2.3,Win32,61.13964294,627c6715c52fd12f31907bd0,,,,,,,,,,,,,,,,,,,,,,,a,0,5.7998,"[""0.141"",""0.336"",""0.634"",""0.097""]","[1,1,1,0]",0,11,11,11,1,1,1,,,0,FALSE,,,,,,,,,,,,,,,,,,,,,,,,,,,,,,,
,60e2bf0aa568b97e8d525872,627c6f513e017b614d3526c8,2022-05-12_04h23.32.630,classification_task,2021.2.3,Win32,61.13964294,627c6715c52fd12f31907bd0,,,,,,,,,,,,,,,,,,,,,,,l,0,5.3367,"[""0.089"",""0.440"",""0.841"",""0.961""]","[0,1,1,1]",0,12,12,12,1,0,1,,,0,FALSE,,,,,,,,,,,,,,,,,,,,,,,,,,,,,,,
,60e2bf0aa568b97e8d525872,627c6f513e017b614d3526c8,2022-05-12_04h23.32.630,classification_task,2021.2.3,Win32,61.13964294,627c6715c52fd12f31907bd0,,,,,,,,,,,,,,,,,,,,,,,a,0,4.5384,"[""0.055"",""0.405"",""0.580"",""0.181""]","[1,1,1,0]",0,13,13,13,1,1,0,,,0,FALSE,,,,,,,,,,,,,,,,,,,,,,,,,,,,,,,
,60e2bf0aa568b97e8d525872,627c6f513e017b614d3526c8,2022-05-12_04h23.32.630,classification_task,2021.2.3,Win32,61.13964294,627c6715c52fd12f31907bd0,,,,,,,,,,,,,,,,,,,,,,,a,1,5.3424,"[""0.286"",""0.440"",""0.841"",""0.093""]","[1,1,1,0]",0,14,14,14,1,0,1,,,0,FALSE,,,,,,,,,,,,,,,,,,,,,,,,,,,,,,,
,60e2bf0aa568b97e8d525872,627c6f513e017b614d3526c8,2022-05-12_04h23.32.630,classification_task,2021.2.3,Win32,61.13964294,627c6715c52fd12f31907bd0,,,,,,,,,,,,,,,,,,,,,,,l,1,3.4653,"[""0.055"",""0.522"",""0.580"",""0.783""]","[1,0,1,1]",0,15,15,15,1,1,0,,,0,FALSE,,,,,,,,,,,,,,,,,,,,,,,,,,,,,,,
,60e2bf0aa568b97e8d525872,627c6f513e017b614d3526c8,2022-05-12_04h23.32.630,classification_task,2021.2.3,Win32,61.13964294,627c6715c52fd12f31907bd0,,,,,,,,,,,,,,,,,,,,,,,a,0,3.1741,"[""0.541"",""0.405"",""0.580"",""0.783""]","[0,1,1,1]",0,16,16,16,1,1,0,,,0,FALSE,,,,,,,,,,,,,,,,,,,,,,,,,,,,,,,
,60e2bf0aa568b97e8d525872,627c6f513e017b614d3526c8,2022-05-12_04h23.32.630,classification_task,2021.2.3,Win32,61.13964294,627c6715c52fd12f31907bd0,,,,,,,,,,,,,,,,,,,,,,,l,1,1.8579,"[""0.055"",""0.405"",""0.580"",""0.179""]","[1,1,1,0]",0,17,17,17,1,1,0,,,0,FALSE,,,,,,,,,,,,,,,,,,,,,,,,,,,,,,,
,60e2bf0aa568b97e8d525872,627c6f513e017b614d3526c8,2022-05-12_04h23.32.630,classification_task,2021.2.3,Win32,61.13964294,627c6715c52fd12f31907bd0,,,,,,,,,,,,,,,,,,,,,,,l,0,3.5602,"[""0.217"",""0.748"",""0.889"",""0.926""]","[1,0,1,1]",0,18,18,18,1,0,0,,,0,FALSE,,,,,,,,,,,,,,,,,,,,,,,,,,,,,,,
,60e2bf0aa568b97e8d525872,627c6f513e017b614d3526c8,2022-05-12_04h23.32.630,classification_task,2021.2.3,Win32,61.13964294,627c6715c52fd12f31907bd0,,,,,,,,,,,,,,,,,,,,,,,a,0,5.0771,"[""0.093"",""0.336"",""0.634"",""0.710""]","[0,1,1,1]",0,19,19,19,1,1,1,,,0,FALSE,,,,,,,,,,,,,,,,,,,,,,,,,,,,,,,
,60e2bf0aa568b97e8d525872,627c6f513e017b614d3526c8,2022-05-12_04h23.32.630,classification_task,2021.2.3,Win32,61.13964294,627c6715c52fd12f31907bd0,,,,,,,,,,,,,,,,,,,,,,,l,0,3.5498,"[""0.217"",""0.482"",""0.889"",""0.178""]","[1,1,1,0]",0,20,20,20,1,0,0,,,0,FALSE,,,,,,,,,,,,,,,,,,,,,,,,,,,,,,,
,60e2bf0aa568b97e8d525872,627c6f513e017b614d3526c8,2022-05-12_04h23.32.630,classification_task,2021.2.3,Win32,61.13964294,627c6715c52fd12f31907bd0,,,,,,,,,,,,,,,,,,,,,,,a,1,4.237,"[""0.286"",""0.440"",""0.748"",""0.961""]","[1,1,0,1]",0,21,21,21,1,0,1,,,0,FALSE,,,,,,,,,,,,,,,,,,,,,,,,,,,,,,,
,60e2bf0aa568b97e8d525872,627c6f513e017b614d3526c8,2022-05-12_04h23.32.630,classification_task,2021.2.3,Win32,61.13964294,627c6715c52fd12f31907bd0,,,,,,,,,,,,,,,,,,,,,,,a,0,4.3463,"[""0.141"",""0.336"",""0.089"",""0.710""]","[1,1,0,1]",0,22,22,22,1,1,1,,,0,FALSE,,,,,,,,,,,,,,,,,,,,,,,,,,,,,,,
,60e2bf0aa568b97e8d525872,627c6f513e017b614d3526c8,2022-05-12_04h23.32.630,classification_task,2021.2.3,Win32,61.13964294,627c6715c52fd12f31907bd0,,,,,,,,,,,,,,,,,,,,,,,l,1,3.1148,"[""0.055"",""0.405"",""0.747"",""0.783""]","[1,1,0,1]",0,23,23,23,1,1,0,,,0,FALSE,,,,,,,,,,,,,,,,,,,,,,,,,,,,,,,
,60e2bf0aa568b97e8d525872,627c6f513e017b614d3526c8,2022-05-12_04h23.32.630,classification_task,2021.2.3,Win32,61.13964294,627c6715c52fd12f31907bd0,,,,,,,,,,,,,,,,,,,,,,,a,0,2.9651,"[""0.055"",""0.179"",""0.580"",""0.783""]","[1,0,1,1]",0,24,24,24,1,1,0,,,0,FALSE,,,,,,,,,,,,,,,,,,,,,,,,,,,,,,,
,60e2bf0aa568b97e8d525872,627c6f513e017b614d3526c8,2022-05-12_04h23.32.630,classification_task,2021.2.3,Win32,61.13964294,627c6715c52fd12f31907bd0,,,,,,,,,,,,,,,,,,,,,,,a,1,1.9118,"[""0.217"",""0.482"",""0.179"",""0.926""]","[1,1,0,1]",0,25,25,25,1,0,0,,,0,FALSE,,,,,,,,,,,,,,,,,,,,,,,,,,,,,,,
,60e2bf0aa568b97e8d525872,627c6f513e017b614d3526c8,2022-05-12_04h23.32.630,classification_task,2021.2.3,Win32,61.13964294,627c6715c52fd12f31907bd0,,,,,,,,,,,,,,,,,,,,,,,l,0,2.4752,"[""0.097"",""0.482"",""0.889"",""0.926""]","[0,1,1,1]",0,26,26,26,1,0,0,,,0,FALSE,,,,,,,,,,,,,,,,,,,,,,,,,,,,,,,
,60e2bf0aa568b97e8d525872,627c6f513e017b614d3526c8,2022-05-12_04h23.32.630,classification_task,2021.2.3,Win32,61.13964294,627c6715c52fd12f31907bd0,,,,,,,,,,,,,,,,,,,,,,,l,1,5.5523,"[""0.141"",""0.181"",""0.634"",""0.710""]","[1,0,1,1]",0,27,27,27,1,1,1,,,0,FALSE,,,,,,,,,,,,,,,,,,,,,,,,,,,,,,,
,60e2bf0aa568b97e8d525872,627c6f513e017b614d3526c8,2022-05-12_04h23.32.630,classification_task,2021.2.3,Win32,61.13964294,627c6715c52fd12f31907bd0,,,,,,,,,,,,,,,,,,,,,,,a,1,4.6496,"[""0.286"",""0.440"",""0.841"",""0.522""]","[1,1,1,0]",0,28,28,28,1,0,1,,,0,FALSE,,,,,,,,,,,,,,,,,,,,,,,,,,,,,,,
,60e2bf0aa568b97e8d525872,627c6f513e017b614d3526c8,2022-05-12_04h23.32.630,classification_task,2021.2.3,Win32,61.13964294,627c6715c52fd12f31907bd0,,,,,,,,,,,,,,,,,,,,,,,a,0,5.8269,"[""0.141"",""0.336"",""0.634"",""0.540""]","[1,1,1,0]",0,29,29,29,1,1,1,,,0,FALSE,,,,,,,,,,,,,,,,,,,,,,,,,,,,,,,
,60e2bf0aa568b97e8d525872,627c6f513e017b614d3526c8,2022-05-12_04h23.32.630,classification_task,2021.2.3,Win32,61.13964294,627c6715c52fd12f31907bd0,,,,,,,,,,,,,,,,,,,,,,,a,1,2.3842,"[""0.286"",""0.178"",""0.841"",""0.961""]","[1,0,1,1]",0,30,30,30,1,0,1,,,0,FALSE,,,,,,,,,,,,,,,,,,,,,,,,,,,,,,,
,60e2bf0aa568b97e8d525872,627c6f513e017b614d3526c8,2022-05-12_04h23.32.630,classification_task,2021.2.3,Win32,61.13964294,627c6715c52fd12f31907bd0,,,,,,,,,,,,,,,,,,,,,,,a,1,8.604,"[""0.097"",""0.440"",""0.841"",""0.961""]","[0,1,1,1]",0,31,31,31,1,0,1,,,0,FALSE,,,,,,,,,,,,,,,,,,,,,,,,,,,,,,,
,60e2bf0aa568b97e8d525872,627c6f513e017b614d3526c8,2022-05-12_04h23.32.630,classification_task,2021.2.3,Win32,61.13964294,627c6715c52fd12f31907bd0,,,,,,,,,,,,,,,,,,,,,,,a,0,4.7816,"[""0.141"",""0.336"",""0.178"",""0.710""]","[1,1,0,1]",0,32,32,32,1,1,1,,,0,FALSE,,,,,,,,,,,,,,,,,,,,,,,,,,,,,,,
,60e2bf0aa568b97e8d525872,627c6f513e017b614d3526c8,2022-05-12_04h23.32.630,classification_task,2021.2.3,Win32,61.13964294,627c6715c52fd12f31907bd0,,,,,,,,,,,,,,,,,,,,,,,l,1,2.1187,"[""0.055"",""0.747"",""0.580"",""0.783""]","[1,0,1,1]",0,33,33,33,1,1,0,,,0,FALSE,,,,,,,,,,,,,,,,,,,,,,,,,,,,,,,
,60e2bf0aa568b97e8d525872,627c6f513e017b614d3526c8,2022-05-12_04h23.32.630,classification_task,2021.2.3,Win32,61.13964294,627c6715c52fd12f31907bd0,,,,,,,,,,,,,,,,,,,,,,,a,1,2.3388,"[""0.217"",""0.482"",""0.889"",""0.099""]","[1,1,1,0]",0,34,34,34,1,0,0,,,0,FALSE,,,,,,,,,,,,,,,,,,,,,,,,,,,,,,,
,60e2bf0aa568b97e8d525872,627c6f513e017b614d3526c8,2022-05-12_04h23.32.630,classification_task,2021.2.3,Win32,61.13964294,627c6715c52fd12f31907bd0,,,,,,,,,,,,,,,,,,,,,,,l,1,3.935,"[""0.055"",""0.405"",""0.179"",""0.783""]","[1,1,0,1]",0,35,35,35,1,1,0,,,0,FALSE,,,,,,,,,,,,,,,,,,,,,,,,,,,,,,,
,60e2bf0aa568b97e8d525872,627c6f513e017b614d3526c8,2022-05-12_04h23.32.630,classification_task,2021.2.3,Win32,61.13964294,627c6715c52fd12f31907bd0,,,,,,,,,,,,,,,,,,,,,,,l,1,5.3169,"[""0.097"",""0.336"",""0.634"",""0.710""]","[0,1,1,1]",0,36,36,36,1,1,1,,,0,FALSE,,,,,,,,,,,,,,,,,,,,,,,,,,,,,,,
,60e2bf0aa568b97e8d525872,627c6f513e017b614d3526c8,2022-05-12_04h23.32.630,classification_task,2021.2.3,Win32,61.13964294,627c6715c52fd12f31907bd0,,,,,,,,,,,,,,,,,,,,,,,l,0,2.756,"[""0.217"",""0.099"",""0.889"",""0.926""]","[1,0,1,1]",0,37,37,37,1,0,0,,,0,FALSE,,,,,,,,,,,,,,,,,,,,,,,,,,,,,,,
,60e2bf0aa568b97e8d525872,627c6f513e017b614d3526c8,2022-05-12_04h23.32.630,classification_task,2021.2.3,Win32,61.13964294,627c6715c52fd12f31907bd0,,,,,,,,,,,,,,,,,,,,,,,a,1,4.0397,"[""0.547"",""0.482"",""0.889"",""0.926""]","[0,1,1,1]",0,38,38,38,1,0,0,,,0,FALSE,,,,,,,,,,,,,,,,,,,,,,,,,,,,,,,
,60e2bf0aa568b97e8d525872,627c6f513e017b614d3526c8,2022-05-12_04h23.32.630,classification_task,2021.2.3,Win32,61.13964294,627c6715c52fd12f31907bd0,,,,,,,,,,,,,,,,,,,,,,,a,1,6.152,"[""0.286"",""0.440"",""0.841"",""0.097""]","[1,1,1,0]",0,39,39,39,1,0,1,,,0,FALSE,,,,,,,,,,,,,,,,,,,,,,,,,,,,,,,
,60e2bf0aa568b97e8d525872,627c6f513e017b614d3526c8,2022-05-12_04h23.32.630,classification_task,2021.2.3,Win32,61.13964294,627c6715c52fd12f31907bd0,,,,,,,,,,,,,,,,,,,,,,,a,0,3.6924,"[""0.141"",""0.336"",""0.634"",""0.547""]","[1,1,1,0]",0,40,40,40,1,1,1,,,0,FALSE,,,,,,,,,,,,,,,,,,,,,,,,,,,,,,,
,60e2bf0aa568b97e8d525872,627c6f513e017b614d3526c8,2022-05-12_04h23.32.630,classification_task,2021.2.3,Win32,61.13964294,627c6715c52fd12f31907bd0,,,,,,,,,,,,,,,,,,,,,,,l,0,2.1791,"[""0.217"",""0.482"",""0.093"",""0.926""]","[1,1,0,1]",0,41,41,41,1,0,0,,,0,FALSE,,,,,,,,,,,,,,,,,,,,,,,,,,,,,,,
,60e2bf0aa568b97e8d525872,627c6f513e017b614d3526c8,2022-05-12_04h23.32.630,classification_task,2021.2.3,Win32,61.13964294,627c6715c52fd12f31907bd0,,,,,,,,,,,,,,,,,,,,,,,l,1,3.0093,"[""0.538"",""0.405"",""0.580"",""0.783""]","[0,1,1,1]",0,42,42,42,1,1,0,,,0,FALSE,,,,,,,,,,,,,,,,,,,,,,,,,,,,,,,
,60e2bf0aa568b97e8d525872,627c6f513e017b614d3526c8,2022-05-12_04h23.32.630,classification_task,2021.2.3,Win32,61.13964294,627c6715c52fd12f31907bd0,,,,,,,,,,,,,,,,,,,,,,,a,1,2.1031,"[""0.286"",""0.440"",""0.522"",""0.961""]","[1,1,0,1]",0,43,43,43,1,0,1,,,0,FALSE,,,,,,,,,,,,,,,,,,,,,,,,,,,,,,,
,60e2bf0aa568b97e8d525872,627c6f513e017b614d3526c8,2022-05-12_04h23.32.630,classification_task,2021.2.3,Win32,61.13964294,627c6715c52fd12f31907bd0,,,,,,,,,,,,,,,,,,,,,,,l,0,5.9673,"[""0.093"",""0.440"",""0.841"",""0.961""]","[0,1,1,1]",0,44,44,44,1,0,1,,,0,FALSE,,,,,,,,,,,,,,,,,,,,,,,,,,,,,,,
,60e2bf0aa568b97e8d525872,627c6f513e017b614d3526c8,2022-05-12_04h23.32.630,classification_task,2021.2.3,Win32,61.13964294,627c6715c52fd12f31907bd0,,,,,,,,,,,,,,,,,,,,,,,a,1,3.856,"[""0.286"",""0.178"",""0.841"",""0.961""]","[1,0,1,1]",0,45,45,45,1,0,1,,,0,FALSE,,,,,,,,,,,,,,,,,,,,,,,,,,,,,,,
,60e2bf0aa568b97e8d525872,627c6f513e017b614d3526c8,2022-05-12_04h23.32.630,classification_task,2021.2.3,Win32,61.13964294,627c6715c52fd12f31907bd0,,,,,,,,,,,,,,,,,,,,,,,l,1,3.4902,"[""0.141"",""0.522"",""0.634"",""0.710""]","[1,0,1,1]",0,46,46,46,1,1,1,,,0,FALSE,,,,,,,,,,,,,,,,,,,,,,,,,,,,,,,
,60e2bf0aa568b97e8d525872,627c6f513e017b614d3526c8,2022-05-12_04h23.32.630,classification_task,2021.2.3,Win32,61.13964294,627c6715c52fd12f31907bd0,,,,,,,,,,,,,,,,,,,,,,,a,0,1.734,"[""0.055"",""0.405"",""0.580"",""0.178""]","[1,1,1,0]",0,47,47,47,1,1,0,,,0,FALSE,,,,,,,,,,,,,,,,,,,,,,,,,,,,,,,
,60e2bf0aa568b97e8d525872,627c6f513e017b614d3526c8,2022-05-12_04h23.32.630,classification_task,2021.2.3,Win32,61.13964294,627c6715c52fd12f31907bd0,,,,,,,,,,,,,,,,,,,,,,,a,1,4.4344,"[""0.540"",""0.482"",""0.889"",""0.926""]","[0,1,1,1]",0,48,48,48,1,0,0,,,0,FALSE,,,,,,,,,,,,,,,,,,,,,,,,,,,,,,,
,60e2bf0aa568b97e8d525872,627c6f513e017b614d3526c8,2022-05-12_04h23.32.630,classification_task,2021.2.3,Win32,61.13964294,627c6715c52fd12f31907bd0,,,,,,,,,,,,,,,,,,,,,,,l,1,6.002,"[""0.141"",""0.540"",""0.634"",""0.710""]","[1,0,1,1]",0,49,49,49,1,1,1,,,0,FALSE,,,,,,,,,,,,,,,,,,,,,,,,,,,,,,,
,60e2bf0aa568b97e8d525872,627c6f513e017b614d3526c8,2022-05-12_04h23.32.630,classification_task,2021.2.3,Win32,61.13964294,627c6715c52fd12f31907bd0,,,,,,,,,,,,,,,,,,,,,,,a,1,5.1115,"[""0.107"",""0.440"",""0.841"",""0.961""]","[0,1,1,1]",0,50,50,50,1,0,1,,,0,FALSE,,,,,,,,,,,,,,,,,,,,,,,,,,,,,,,
,60e2bf0aa568b97e8d525872,627c6f513e017b614d3526c8,2022-05-12_04h23.32.630,classification_task,2021.2.3,Win32,61.13964294,627c6715c52fd12f31907bd0,,,,,,,,,,,,,,,,,,,,,,,l,1,3.0072,"[""0.055"",""0.405"",""0.540"",""0.783""]","[1,1,0,1]",0,51,51,51,1,1,0,,,0,FALSE,,,,,,,,,,,,,,,,,,,,,,,,,,,,,,,
,60e2bf0aa568b97e8d525872,627c6f513e017b614d3526c8,2022-05-12_04h23.32.630,classification_task,2021.2.3,Win32,61.13964294,627c6715c52fd12f31907bd0,,,,,,,,,,,,,,,,,,,,,,,l,0,4.1017,"[""0.217"",""0.482"",""0.547"",""0.926""]","[1,1,0,1]",0,52,52,52,1,0,0,,,0,FALSE,,,,,,,,,,,,,,,,,,,,,,,,,,,,,,,
,60e2bf0aa568b97e8d525872,627c6f513e017b614d3526c8,2022-05-12_04h23.32.630,classification_task,2021.2.3,Win32,61.13964294,627c6715c52fd12f31907bd0,,,,,,,,,,,,,,,,,,,,,,,l,1,3.4009,"[""0.055"",""0.405"",""0.580"",""0.181""]","[1,1,1,0]",0,53,53,53,1,1,0,,,0,FALSE,,,,,,,,,,,,,,,,,,,,,,,,,,,,,,,
,60e2bf0aa568b97e8d525872,627c6f513e017b614d3526c8,2022-05-12_04h23.32.630,classification_task,2021.2.3,Win32,61.13964294,627c6715c52fd12f31907bd0,,,,,,,,,,,,,,,,,,,,,,,a,0,2.2143,"[""0.093"",""0.405"",""0.580"",""0.783""]","[0,1,1,1]",0,54,54,54,1,1,0,,,0,FALSE,,,,,,,,,,,,,,,,,,,,,,,,,,,,,,,
,60e2bf0aa568b97e8d525872,627c6f513e017b614d3526c8,2022-05-12_04h23.32.630,classification_task,2021.2.3,Win32,61.13964294,627c6715c52fd12f31907bd0,,,,,,,,,,,,,,,,,,,,,,,a,0,5.804,"[""0.141"",""0.336"",""0.634"",""0.104""]","[1,1,1,0]",0,55,55,55,1,1,1,,,0,FALSE,,,,,,,,,,,,,,,,,,,,,,,,,,,,,,,
,60e2bf0aa568b97e8d525872,627c6f513e017b614d3526c8,2022-05-12_04h23.32.630,classification_task,2021.2.3,Win32,61.13964294,627c6715c52fd12f31907bd0,,,,,,,,,,,,,,,,,,,,,,,l,0,5.1951,"[""0.286"",""0.099"",""0.841"",""0.961""]","[1,0,1,1]",0,56,56,56,1,0,1,,,0,FALSE,,,,,,,,,,,,,,,,,,,,,,,,,,,,,,,
,60e2bf0aa568b97e8d525872,627c6f513e017b614d3526c8,2022-05-12_04h23.32.630,classification_task,2021.2.3,Win32,61.13964294,627c6715c52fd12f31907bd0,,,,,,,,,,,,,,,,,,,,,,,a,0,3.2524,"[""0.093"",""0.336"",""0.634"",""0.710""]","[0,1,1,1]",0,57,57,57,1,1,1,,,0,FALSE,,,,,,,,,,,,,,,,,,,,,,,,,,,,,,,
,60e2bf0aa568b97e8d525872,627c6f513e017b614d3526c8,2022-05-12_04h23.32.630,classification_task,2021.2.3,Win32,61.13964294,627c6715c52fd12f31907bd0,,,,,,,,,,,,,,,,,,,,,,,a,1,2.8171,"[""0.217"",""0.482"",""0.889"",""0.547""]","[1,1,1,0]",0,58,58,58,1,0,0,,,0,FALSE,,,,,,,,,,,,,,,,,,,,,,,,,,,,,,,
,60e2bf0aa568b97e8d525872,627c6f513e017b614d3526c8,2022-05-12_04h23.32.630,classification_task,2021.2.3,Win32,61.13964294,627c6715c52fd12f31907bd0,,,,,,,,,,,,,,,,,,,,,,,l,1,3.4062,"[""0.141"",""0.336"",""0.747"",""0.710""]","[1,1,0,1]",0,59,59,59,1,1,1,,,0,FALSE,,,,,,,,,,,,,,,,,,,,,,,,,,,,,,,
,60e2bf0aa568b97e8d525872,627c6f513e017b614d3526c8,2022-05-12_04h23.32.630,classification_task,2021.2.3,Win32,61.13964294,627c6715c52fd12f31907bd0,,,,,,,,,,,,,,,,,,,,,,,a,1,2.2639,"[""0.217"",""0.541"",""0.889"",""0.926""]","[1,0,1,1]",0,60,60,60,1,0,0,,,0,FALSE,,,,,,,,,,,,,,,,,,,,,,,,,,,,,,,
,60e2bf0aa568b97e8d525872,627c6f513e017b614d3526c8,2022-05-12_04h23.32.630,classification_task,2021.2.3,Win32,61.13964294,627c6715c52fd12f31907bd0,,,,,,,,,,,,,,,,,,,,,,,a,1,5.9324,"[""0.286"",""0.440"",""0.841"",""0.089""]","[1,1,1,0]",0,61,61,61,1,0,1,,,0,FALSE,,,,,,,,,,,,,,,,,,,,,,,,,,,,,,,
,60e2bf0aa568b97e8d525872,627c6f513e017b614d3526c8,2022-05-12_04h23.32.630,classification_task,2021.2.3,Win32,61.13964294,627c6715c52fd12f31907bd0,,,,,,,,,,,,,,,,,,,,,,,a,1,2.5467,"[""0.286"",""0.440"",""0.089"",""0.961""]","[1,1,0,1]",0,62,62,62,1,0,1,,,0,FALSE,,,,,,,,,,,,,,,,,,,,,,,,,,,,,,,
,60e2bf0aa568b97e8d525872,627c6f513e017b614d3526c8,2022-05-12_04h23.32.630,classification_task,2021.2.3,Win32,61.13964294,627c6715c52fd12f31907bd0,,,,,,,,,,,,,,,,,,,,,,,l,1,3.7751,"[""0.055"",""0.179"",""0.580"",""0.783""]","[1,0,1,1]",0,63,63,63,1,1,0,,,0,FALSE,,,,,,,,,,,,,,,,,,,,,,,,,,,,,,,
,60e2bf0aa568b97e8d525872,627c6f513e017b614d3526c8,2022-05-12_04h23.32.630,classification_task,2021.2.3,Win32,61.13964294,627c6715c52fd12f31907bd0,,,,,,,,,,,,,,,,,,,,,,,,,,,,,,,,,,,,,,,0, ,,0,10,322.0044,0,2,2,2,1,2,3,,,,,,,,,,,,,,,,,,
,60e2bf0aa568b97e8d525872,627c6f513e017b614d3526c8,2022-05-12_04h23.32.630,classification_task,2021.2.3,Win32,61.13964294,627c6715c52fd12f31907bd0,,,,,,,,,,,,,,,,,,,,,,,,,,,,,,,,,,,,,,,1,  ,,0,10,324.2857,0,2,2,2,1,2,3,,,,,,,,,,,,,,,,,,
,60e2bf0aa568b97e8d525872,627c6f513e017b614d3526c8,2022-05-12_04h23.32.630,classification_task,2021.2.3,Win32,61.13964294,627c6715c52fd12f31907bd0,,,,,,,,,,,,,,,,,,,,,,,,,,,,,,,,,,,,,,,2,  ,,0,10,326.4695,0,2,2,2,1,2,3,,,,,,,,,,,,,,,,,,
,60e2bf0aa568b97e8d525872,627c6f513e017b614d3526c8,2022-05-12_04h23.32.630,classification_task,2021.2.3,Win32,61.13964294,627c6715c52fd12f31907bd0,,,,,,,,,,,,,,,,,,,,,,,,,,,,,,,,,,,,,,,,,,,,,0,2,2,2,1,,3,,,,,,,,,,,,,,,,,,
,60e2bf0aa568b97e8d525872,627c6f513e017b614d3526c8,2022-05-12_04h23.32.630,classification_task,2021.2.3,Win32,61.13964294,627c6715c52fd12f31907bd0,,,,,,,,,,,,,,,,,,,,,,,,,,,,,,,,,,,,,,,,,,,,,,,,,,,,,I believe the aid is a competent performer,,0.7,0,3,1116.1099,0,0,0,0,1,0,,,,,
,60e2bf0aa568b97e8d525872,627c6f513e017b614d3526c8,2022-05-12_04h23.32.630,classification_task,2021.2.3,Win32,61.13964294,627c6715c52fd12f31907bd0,,,,,,,,,,,,,,,,,,,,,,,,,,,,,,,,,,,,,,,,,,,,,,,,,,,,,I trust the aid,,0.7,0,2,1119.6121,0,0,0,0,1,0,,,,,
,60e2bf0aa568b97e8d525872,627c6f513e017b614d3526c8,2022-05-12_04h23.32.630,classification_task,2021.2.3,Win32,61.13964294,627c6715c52fd12f31907bd0,,,,,,,,,,,,,,,,,,,,,,,,,,,,,,,,,,,,,,,,,,,,,,,,,,,,,I have confidence in the advice given by the aid,,0.7,0,3,1126.1197,0,0,0,0,1,0,,,,,
,60e2bf0aa568b97e8d525872,627c6f513e017b614d3526c8,2022-05-12_04h23.32.630,classification_task,2021.2.3,Win32,61.13964294,627c6715c52fd12f31907bd0,,,,,,,,,,,,,,,,,,,,,,,,,,,,,,,,,,,,,,,,,,,,,,,,,,,,,I can depend on the aid,,0.7,0,2,1130.892,0,0,0,0,1,0,,,,,
,60e2bf0aa568b97e8d525872,627c6f513e017b614d3526c8,2022-05-12_04h23.32.630,classification_task,2021.2.3,Win32,61.13964294,627c6715c52fd12f31907bd0,,,,,,,,,,,,,,,,,,,,,,,,,,,,,,,,,,,,,,,,,,,,,,,,,,,,,I can rely on the aid to behave in consistent ways,,0.7,0,2,1134.4122,0,0,0,0,1,0,,,,,
,60e2bf0aa568b97e8d525872,627c6f513e017b614d3526c8,2022-05-12_04h23.32.630,classification_task,2021.2.3,Win32,61.13964294,627c6715c52fd12f31907bd0,,,,,,,,,,,,,,,,,,,,,,,,,,,,,,,,,,,,,,,,,,,,,,,,,,,,,I can rely on the aid to do its best every time I take its advice,,0.7,0,3,1140.1058,0,0,0,0,1,0,,,,,
,60e2bf0aa568b97e8d525872,627c6f513e017b614d3526c8,2022-05-12_04h23.32.630,classification_task,2021.2.3,Win32,61.13964294,627c6715c52fd12f31907bd0,,,,,,,,,,,,,,,,,,,,,,,,,,,,,,,,,,,,,,,,,,,,,,,,,,,,,"On trials you completed with assistance from the aid, how frequently did you think the aid was correct?",,0.7,0,75%,,0,0,0,0,1,0,,,,,
,60e2bf0aa568b97e8d525872,627c6f513e017b614d3526c8,2022-05-12_04h23.32.630,classification_task,2021.2.3,Win32,61.13964294,627c6715c52fd12f31907bd0,,,,,,,,,,,,,,,,,,,,,,,,,,,,,,,,,,,,,,,,,,,,,,,,,,,,,"On trials you completed without the aid, how frequently did you think you were correct?",,0.7,0,20%,,0,0,0,0,1,0,,,,,
,60e2bf0aa568b97e8d525872,627c6f513e017b614d3526c8,2022-05-12_04h23.32.630,classification_task,2021.2.3,Win32,61.13964294,627c6715c52fd12f31907bd0,,,,,,,,,,,,,,,,,,,,,,,,,,,,,,,,,,,,,,,,,,,,,,,,,,,,,,,,,,,0,0,0,0,1,,,,,,
,60e2bf0aa568b97e8d525872,627c6f513e017b614d3526c8,2022-05-12_04h23.32.630,classification_task,2021.2.3,Win32,61.13964294,627c6715c52fd12f31907bd0,,,,,,,,,,,,,,,,,,,,,,,,,,,,,,,,,,,,,,,,,,,,,,,,,,,,,,,,,,,,,,,,,space,9.903,1178.3386,,
,60e2bf0aa568b97e8d525872,627c6f513e017b614d3526c8,2022-05-12_04h23.32.630,classification_task,2021.2.3,Win32,61.13964294,627c6715c52fd12f31907bd0,,,,,,,,,,,,,,,,,,,,,,,,,,,,,,,,,,,,,,,,,,,,,,,,,,,,,,,,,,,,,,,,,,,,"Mozilla/5.0 (Windows NT 10.0; Win64; x64) AppleWebKit/537.36 (KHTML, like Gecko) Chrome/101.0.4951.54 Safari/537.36",
,60e2bf0aa568b97e8d525872,627c6f513e017b614d3526c8,2022-05-12_04h23.32.630,classification_task,2021.2.3,Win32,61.13964294,627c6715c52fd12f31907bd0,,,,,,,,,,,,,,,,,,,,,,,,,,,,,,,,,,,,,,,,,,,,,,,,,,,,,,,,,,,,,,,,,,,,,LOWLIGHT
