usingWebGL,participant,session,date,expName,psychopyVersion,OS,frameRate,PROLIFIC_PID,STUDY_ID,SESSION_ID,signatures_friend,signatures_foe,band_ranges_top,band_ranges_bottom,formitemText,formtype,formundefined,formitemWidth,formindex,formresponse,formrt,key_resp_2.keys,key_resp_2.rt,tute_resp.keys,tute_resp.rt,tutorial.thisRepN,tutorial.thisTrialN,tutorial.thisN,tutorial.thisIndex,tutorial.ran,key_resp_4.keys,key_resp_4.rt,key_resp.keys,key_resp.corr,key_resp.rt,lines_presented,is_signal_presented,trials.thisRepN,trials.thisTrialN,trials.thisN,trials.thisIndex,trials.ran,vessel,active_band,lines,is_signal,supported_pos,catch_trial,debrief_formindex,debrief_formitemText,debrief_formtype,debrief_formitemWidth,debrief_formresponse,debrief_formrt,phases.thisRepN,phases.thisTrialN,phases.thisN,phases.thisIndex,phases.ran,phases.order,phase,key_resp_3.keys,trustitemText,trusttype,trustitemWidth,trustindex,trustresponse,trustrt,support_status.thisRepN,support_status.thisTrialN,support_status.thisN,support_status.thisIndex,support_status.ran,support_status.order,key_resp_5.keys,key_resp_5.rt,globalClockTime,userAgent
TRUE,60e8923aa3b47ab8b0ad9d22,001,2022-04-29_02h06.53.340,classification_task,2021.2.3,Win32,143.8228103,60e8923aa3b47ab8b0ad9d22,626b377229c10585ec392f89,626b3a1a7425e1b5276d5cd4,,,,,,,,,,,,,,,,,,,,,,,,,,,,,,,,,,,,,,,,,,,,,,,,,,,,,,,,,,,,,,,,,,,,
,60e8923aa3b47ab8b0ad9d22,001,2022-04-29_02h06.53.340,classification_task,2021.2.3,Win32,143.8228103,60e8923aa3b47ab8b0ad9d22,626b377229c10585ec392f89,626b3a1a7425e1b5276d5cd4,"[[""0.182"",""0.477"",""0.906"",""0.943""],[""0.304"",""0.375"",""0.602"",""0.868""]]","[[""0.061"",""0.265"",""0.673"",""0.761""],[""0.120"",""0.421"",""0.543"",""0.825""]]","[1,10]","[100,1000]",Video game experience,,,0.7,0,,,,,,,,,,,,,,,,,,,,,,,,,,,,,,,,,,,,,,,,,,,,,,,,,,,,,,,,,,,
,60e8923aa3b47ab8b0ad9d22,001,2022-04-29_02h06.53.340,classification_task,2021.2.3,Win32,143.8228103,60e8923aa3b47ab8b0ad9d22,626b377229c10585ec392f89,626b3a1a7425e1b5276d5cd4,,,,,Approximately how many hours did you spend playing video games in the last week?,,,0.7,0,40,,,,,,,,,,,,,,,,,,,,,,,,,,,,,,,,,,,,,,,,,,,,,,,,,,,,,,,,,,
,60e8923aa3b47ab8b0ad9d22,001,2022-04-29_02h06.53.340,classification_task,2021.2.3,Win32,143.8228103,60e8923aa3b47ab8b0ad9d22,626b377229c10585ec392f89,626b3a1a7425e1b5276d5cd4,,,,,"Which game did you play the most this year? (Enter ""None"" if you didn't play any)",,,0.7,0,Rust,,,,,,,,,,,,,,,,,,,,,,,,,,,,,,,,,,,,,,,,,,,,,,,,,,,,,,,,,,
,60e8923aa3b47ab8b0ad9d22,001,2022-04-29_02h06.53.340,classification_task,2021.2.3,Win32,143.8228103,60e8923aa3b47ab8b0ad9d22,626b377229c10585ec392f89,626b3a1a7425e1b5276d5cd4,,,,,Visual perception,,,0.7,0,,,,,,,,,,,,,,,,,,,,,,,,,,,,,,,,,,,,,,,,,,,,,,,,,,,,,,,,,,,
,60e8923aa3b47ab8b0ad9d22,001,2022-04-29_02h06.53.340,classification_task,2021.2.3,Win32,143.8228103,60e8923aa3b47ab8b0ad9d22,626b377229c10585ec392f89,626b3a1a7425e1b5276d5cd4,,,,,Do you have any form of color blindness?,,,0.7,0,No,12.2276,,,,,,,,,,,,,,,,,,,,,,,,,,,,,,,,,,,,,,,,,,,,,,,,,,,,,,,,,
,60e8923aa3b47ab8b0ad9d22,001,2022-04-29_02h06.53.340,classification_task,2021.2.3,Win32,143.8228103,60e8923aa3b47ab8b0ad9d22,626b377229c10585ec392f89,626b3a1a7425e1b5276d5cd4,,,,,Do you use software to change the colour temperature of your screen (e.g. f.lux)?,,,0.7,0,No,14.4534,,,,,,,,,,,,,,,,,,,,,,,,,,,,,,,,,,,,,,,,,,,,,,,,,,,,,,,,,
,60e8923aa3b47ab8b0ad9d22,001,2022-04-29_02h06.53.340,classification_task,2021.2.3,Win32,143.8228103,60e8923aa3b47ab8b0ad9d22,626b377229c10585ec392f89,626b3a1a7425e1b5276d5cd4,,,,,,,,,,,,space,29.7542,space,8.0877,0,0,0,0,1,,,,,,,,,,,,,,,,,,,,,,,,,,,,,,,,,,,,,,,,,,,,,,,,
,60e8923aa3b47ab8b0ad9d22,001,2022-04-29_02h06.53.340,classification_task,2021.2.3,Win32,143.8228103,60e8923aa3b47ab8b0ad9d22,626b377229c10585ec392f89,626b3a1a7425e1b5276d5cd4,,,,,,,,,,,,,,space,7.563,1,0,1,0,1,,,,,,,,,,,,,,,,,,,,,,,,,,,,,,,,,,,,,,,,,,,,,,,,
,60e8923aa3b47ab8b0ad9d22,001,2022-04-29_02h06.53.340,classification_task,2021.2.3,Win32,143.8228103,60e8923aa3b47ab8b0ad9d22,626b377229c10585ec392f89,626b3a1a7425e1b5276d5cd4,,,,,,,,,,,,,,space,26.0211,2,0,2,0,1,,,,,,,,,,,,,,,,,,,,,,,,,,,,,,,,,,,,,,,,,,,,,,,,
,60e8923aa3b47ab8b0ad9d22,001,2022-04-29_02h06.53.340,classification_task,2021.2.3,Win32,143.8228103,60e8923aa3b47ab8b0ad9d22,626b377229c10585ec392f89,626b3a1a7425e1b5276d5cd4,,,,,,,,,,,,,,space,5.1947,3,0,3,0,1,,,,,,,,,,,,,,,,,,,,,,,,,,,,,,,,,,,,,,,,,,,,,,,,
,60e8923aa3b47ab8b0ad9d22,001,2022-04-29_02h06.53.340,classification_task,2021.2.3,Win32,143.8228103,60e8923aa3b47ab8b0ad9d22,626b377229c10585ec392f89,626b3a1a7425e1b5276d5cd4,,,,,,,,,,,,,,space,5.7293,4,0,4,0,1,,,,,,,,,,,,,,,,,,,,,,,,,,,,,,,,,,,,,,,,,,,,,,,,
,60e8923aa3b47ab8b0ad9d22,001,2022-04-29_02h06.53.340,classification_task,2021.2.3,Win32,143.8228103,60e8923aa3b47ab8b0ad9d22,626b377229c10585ec392f89,626b3a1a7425e1b5276d5cd4,,,,,,,,,,,,,,,,,,,,,space,2.6875,l,1,1.7106,"[""0.120"",""0.724"",""0.543"",""0.825""]","[1,0,1,1]",0,0,0,0,1,1,1,,,1,FALSE,,,,,,,,,,,,,,,,,,,,,,,,,,,,,,
,60e8923aa3b47ab8b0ad9d22,001,2022-04-29_02h06.53.340,classification_task,2021.2.3,Win32,143.8228103,60e8923aa3b47ab8b0ad9d22,626b377229c10585ec392f89,626b3a1a7425e1b5276d5cd4,,,,,,,,,,,,,,,,,,,,,,,a,1,1.2849,"[""0.182"",""0.477"",""0.906"",""0.710""]","[1,1,1,0]",0,1,1,1,1,0,0,,,1,FALSE,,,,,,,,,,,,,,,,,,,,,,,,,,,,,,
,60e8923aa3b47ab8b0ad9d22,001,2022-04-29_02h06.53.340,classification_task,2021.2.3,Win32,143.8228103,60e8923aa3b47ab8b0ad9d22,626b377229c10585ec392f89,626b3a1a7425e1b5276d5cd4,,,,,,,,,,,,,,,,,,,,,,,a,1,0.6878,"[""0.182"",""0.477"",""0.719"",""0.943""]","[1,1,0,1]",0,2,2,2,1,0,0,,,1,FALSE,,,,,,,,,,,,,,,,,,,,,,,,,,,,,,
,60e8923aa3b47ab8b0ad9d22,001,2022-04-29_02h06.53.340,classification_task,2021.2.3,Win32,143.8228103,60e8923aa3b47ab8b0ad9d22,626b377229c10585ec392f89,626b3a1a7425e1b5276d5cd4,,,,,,,,,,,,,,,,,,,,,,,l,0,1.0766,"[""0.027"",""0.477"",""0.906"",""0.943""]","[0,1,1,1]",0,3,3,3,1,0,0,,,1,FALSE,,,,,,,,,,,,,,,,,,,,,,,,,,,,,,
,60e8923aa3b47ab8b0ad9d22,001,2022-04-29_02h06.53.340,classification_task,2021.2.3,Win32,143.8228103,60e8923aa3b47ab8b0ad9d22,626b377229c10585ec392f89,626b3a1a7425e1b5276d5cd4,,,,,,,,,,,,,,,,,,,,,,,l,1,5.146,"[""0.061"",""0.265"",""0.724"",""0.761""]","[1,1,0,1]",0,4,4,4,1,1,0,,,1,FALSE,,,,,,,,,,,,,,,,,,,,,,,,,,,,,,
,60e8923aa3b47ab8b0ad9d22,001,2022-04-29_02h06.53.340,classification_task,2021.2.3,Win32,143.8228103,60e8923aa3b47ab8b0ad9d22,626b377229c10585ec392f89,626b3a1a7425e1b5276d5cd4,,,,,,,,,,,,,,,,,,,,,,,l,0,5.5347,"[""0.182"",""0.715"",""0.906"",""0.943""]","[1,0,1,1]",0,5,5,5,1,0,0,,,1,FALSE,,,,,,,,,,,,,,,,,,,,,,,,,,,,,,
,60e8923aa3b47ab8b0ad9d22,001,2022-04-29_02h06.53.340,classification_task,2021.2.3,Win32,143.8228103,60e8923aa3b47ab8b0ad9d22,626b377229c10585ec392f89,626b3a1a7425e1b5276d5cd4,,,,,,,,,,,,,,,,,,,,,,,a,0,2.2113,"[""0.120"",""0.421"",""0.215"",""0.825""]","[1,1,0,1]",0,6,6,6,1,1,1,,,1,FALSE,,,,,,,,,,,,,,,,,,,,,,,,,,,,,,
,60e8923aa3b47ab8b0ad9d22,001,2022-04-29_02h06.53.340,classification_task,2021.2.3,Win32,143.8228103,60e8923aa3b47ab8b0ad9d22,626b377229c10585ec392f89,626b3a1a7425e1b5276d5cd4,,,,,,,,,,,,,,,,,,,,,,,l,1,1.3614,"[""0.120"",""0.421"",""0.543"",""0.715""]","[1,1,1,0]",0,7,7,7,1,1,1,,,1,FALSE,,,,,,,,,,,,,,,,,,,,,,,,,,,,,,
,60e8923aa3b47ab8b0ad9d22,001,2022-04-29_02h06.53.340,classification_task,2021.2.3,Win32,143.8228103,60e8923aa3b47ab8b0ad9d22,626b377229c10585ec392f89,626b3a1a7425e1b5276d5cd4,,,,,,,,,,,,,,,,,,,,,,,a,1,1.2155,"[""0.304"",""0.706"",""0.602"",""0.868""]","[1,0,1,1]",0,8,8,8,1,0,1,,,1,FALSE,,,,,,,,,,,,,,,,,,,,,,,,,,,,,,
,60e8923aa3b47ab8b0ad9d22,001,2022-04-29_02h06.53.340,classification_task,2021.2.3,Win32,143.8228103,60e8923aa3b47ab8b0ad9d22,626b377229c10585ec392f89,626b3a1a7425e1b5276d5cd4,,,,,,,,,,,,,,,,,,,,,,,a,0,1.3891,"[""0.710"",""0.421"",""0.543"",""0.825""]","[0,1,1,1]",0,9,9,9,1,1,1,,,1,FALSE,,,,,,,,,,,,,,,,,,,,,,,,,,,,,,
,60e8923aa3b47ab8b0ad9d22,001,2022-04-29_02h06.53.340,classification_task,2021.2.3,Win32,143.8228103,60e8923aa3b47ab8b0ad9d22,626b377229c10585ec392f89,626b3a1a7425e1b5276d5cd4,,,,,,,,,,,,,,,,,,,,,,,l,1,7.5245,"[""0.061"",""0.265"",""0.673"",""0.226""]","[1,1,1,0]",0,10,10,10,1,1,0,,,1,FALSE,,,,,,,,,,,,,,,,,,,,,,,,,,,,,,
,60e8923aa3b47ab8b0ad9d22,001,2022-04-29_02h06.53.340,classification_task,2021.2.3,Win32,143.8228103,60e8923aa3b47ab8b0ad9d22,626b377229c10585ec392f89,626b3a1a7425e1b5276d5cd4,,,,,,,,,,,,,,,,,,,,,,,a,0,1.3121,"[""0.061"",""0.027"",""0.673"",""0.761""]","[1,0,1,1]",0,11,11,11,1,1,0,,,1,FALSE,,,,,,,,,,,,,,,,,,,,,,,,,,,,,,
,60e8923aa3b47ab8b0ad9d22,001,2022-04-29_02h06.53.340,classification_task,2021.2.3,Win32,143.8228103,60e8923aa3b47ab8b0ad9d22,626b377229c10585ec392f89,626b3a1a7425e1b5276d5cd4,,,,,,,,,,,,,,,,,,,,,,,a,1,1.5141,"[""0.304"",""0.375"",""0.710"",""0.868""]","[1,1,0,1]",0,12,12,12,1,0,1,,,1,FALSE,,,,,,,,,,,,,,,,,,,,,,,,,,,,,,
,60e8923aa3b47ab8b0ad9d22,001,2022-04-29_02h06.53.340,classification_task,2021.2.3,Win32,143.8228103,60e8923aa3b47ab8b0ad9d22,626b377229c10585ec392f89,626b3a1a7425e1b5276d5cd4,,,,,,,,,,,,,,,,,,,,,,,l,1,1.2363,"[""0.216"",""0.265"",""0.673"",""0.761""]","[0,1,1,1]",0,13,13,13,1,1,0,,,1,FALSE,,,,,,,,,,,,,,,,,,,,,,,,,,,,,,
,60e8923aa3b47ab8b0ad9d22,001,2022-04-29_02h06.53.340,classification_task,2021.2.3,Win32,143.8228103,60e8923aa3b47ab8b0ad9d22,626b377229c10585ec392f89,626b3a1a7425e1b5276d5cd4,,,,,,,,,,,,,,,,,,,,,,,l,0,2.1045,"[""0.304"",""0.375"",""0.602"",""0.230""]","[1,1,1,0]",0,14,14,14,1,0,1,,,1,FALSE,,,,,,,,,,,,,,,,,,,,,,,,,,,,,,
,60e8923aa3b47ab8b0ad9d22,001,2022-04-29_02h06.53.340,classification_task,2021.2.3,Win32,143.8228103,60e8923aa3b47ab8b0ad9d22,626b377229c10585ec392f89,626b3a1a7425e1b5276d5cd4,,,,,,,,,,,,,,,,,,,,,,,a,1,1.7638,"[""0.225"",""0.375"",""0.602"",""0.868""]","[0,1,1,1]",0,15,15,15,1,0,1,,,1,FALSE,,,,,,,,,,,,,,,,,,,,,,,,,,,,,,
,60e8923aa3b47ab8b0ad9d22,001,2022-04-29_02h06.53.340,classification_task,2021.2.3,Win32,143.8228103,60e8923aa3b47ab8b0ad9d22,626b377229c10585ec392f89,626b3a1a7425e1b5276d5cd4,,,,,,,,,,,,,,,,,,,,,,,l,1,1.6391,"[""0.061"",""0.027"",""0.673"",""0.761""]","[1,0,1,1]",0,16,16,16,1,1,0,,,1,FALSE,,,,,,,,,,,,,,,,,,,,,,,,,,,,,,
,60e8923aa3b47ab8b0ad9d22,001,2022-04-29_02h06.53.340,classification_task,2021.2.3,Win32,143.8228103,60e8923aa3b47ab8b0ad9d22,626b377229c10585ec392f89,626b3a1a7425e1b5276d5cd4,,,,,,,,,,,,,,,,,,,,,,,a,0,1.7197,"[""0.120"",""0.421"",""0.543"",""0.226""]","[1,1,1,0]",0,17,17,17,1,1,1,,,1,FALSE,,,,,,,,,,,,,,,,,,,,,,,,,,,,,,
,60e8923aa3b47ab8b0ad9d22,001,2022-04-29_02h06.53.340,classification_task,2021.2.3,Win32,143.8228103,60e8923aa3b47ab8b0ad9d22,626b377229c10585ec392f89,626b3a1a7425e1b5276d5cd4,,,,,,,,,,,,,,,,,,,,,,,l,1,1.3891,"[""0.061"",""0.265"",""0.673"",""0.226""]","[1,1,1,0]",0,18,18,18,1,1,0,,,1,FALSE,,,,,,,,,,,,,,,,,,,,,,,,,,,,,,
,60e8923aa3b47ab8b0ad9d22,001,2022-04-29_02h06.53.340,classification_task,2021.2.3,Win32,143.8228103,60e8923aa3b47ab8b0ad9d22,626b377229c10585ec392f89,626b3a1a7425e1b5276d5cd4,,,,,,,,,,,,,,,,,,,,,,,l,0,1.0559,"[""0.224"",""0.477"",""0.906"",""0.943""]","[0,1,1,1]",0,19,19,19,1,0,0,,,1,FALSE,,,,,,,,,,,,,,,,,,,,,,,,,,,,,,
,60e8923aa3b47ab8b0ad9d22,001,2022-04-29_02h06.53.340,classification_task,2021.2.3,Win32,143.8228103,60e8923aa3b47ab8b0ad9d22,626b377229c10585ec392f89,626b3a1a7425e1b5276d5cd4,,,,,,,,,,,,,,,,,,,,,,,a,1,4.4864,"[""0.304"",""0.375"",""0.602"",""0.706""]","[1,1,1,0]",0,20,20,20,1,0,1,,,1,FALSE,,,,,,,,,,,,,,,,,,,,,,,,,,,,,,
,60e8923aa3b47ab8b0ad9d22,001,2022-04-29_02h06.53.340,classification_task,2021.2.3,Win32,143.8228103,60e8923aa3b47ab8b0ad9d22,626b377229c10585ec392f89,626b3a1a7425e1b5276d5cd4,,,,,,,,,,,,,,,,,,,,,,,a,1,5.143,"[""0.182"",""0.710"",""0.906"",""0.943""]","[1,0,1,1]",0,21,21,21,1,0,0,,,1,FALSE,,,,,,,,,,,,,,,,,,,,,,,,,,,,,,
,60e8923aa3b47ab8b0ad9d22,001,2022-04-29_02h06.53.340,classification_task,2021.2.3,Win32,143.8228103,60e8923aa3b47ab8b0ad9d22,626b377229c10585ec392f89,626b3a1a7425e1b5276d5cd4,,,,,,,,,,,,,,,,,,,,,,,a,1,2.8101,"[""0.711"",""0.375"",""0.602"",""0.868""]","[0,1,1,1]",0,22,22,22,1,0,1,,,1,FALSE,,,,,,,,,,,,,,,,,,,,,,,,,,,,,,
,60e8923aa3b47ab8b0ad9d22,001,2022-04-29_02h06.53.340,classification_task,2021.2.3,Win32,143.8228103,60e8923aa3b47ab8b0ad9d22,626b377229c10585ec392f89,626b3a1a7425e1b5276d5cd4,,,,,,,,,,,,,,,,,,,,,,,a,1,3.0763,"[""0.304"",""0.710"",""0.602"",""0.868""]","[1,0,1,1]",0,23,23,23,1,0,1,,,1,FALSE,,,,,,,,,,,,,,,,,,,,,,,,,,,,,,
,60e8923aa3b47ab8b0ad9d22,001,2022-04-29_02h06.53.340,classification_task,2021.2.3,Win32,143.8228103,60e8923aa3b47ab8b0ad9d22,626b377229c10585ec392f89,626b3a1a7425e1b5276d5cd4,,,,,,,,,,,,,,,,,,,,,,,a,1,8.215,"[""0.304"",""0.375"",""0.229"",""0.868""]","[1,1,0,1]",0,24,24,24,1,0,1,,,1,FALSE,,,,,,,,,,,,,,,,,,,,,,,,,,,,,,
,60e8923aa3b47ab8b0ad9d22,001,2022-04-29_02h06.53.340,classification_task,2021.2.3,Win32,143.8228103,60e8923aa3b47ab8b0ad9d22,626b377229c10585ec392f89,626b3a1a7425e1b5276d5cd4,,,,,,,,,,,,,,,,,,,,,,,a,1,5.2673,"[""0.182"",""0.477"",""0.226"",""0.943""]","[1,1,0,1]",0,25,25,25,1,0,0,,,1,FALSE,,,,,,,,,,,,,,,,,,,,,,,,,,,,,,
,60e8923aa3b47ab8b0ad9d22,001,2022-04-29_02h06.53.340,classification_task,2021.2.3,Win32,143.8228103,60e8923aa3b47ab8b0ad9d22,626b377229c10585ec392f89,626b3a1a7425e1b5276d5cd4,,,,,,,,,,,,,,,,,,,,,,,l,1,3.0971,"[""0.061"",""0.265"",""0.224"",""0.761""]","[1,1,0,1]",0,26,26,26,1,1,0,,,1,FALSE,,,,,,,,,,,,,,,,,,,,,,,,,,,,,,
,60e8923aa3b47ab8b0ad9d22,001,2022-04-29_02h06.53.340,classification_task,2021.2.3,Win32,143.8228103,60e8923aa3b47ab8b0ad9d22,626b377229c10585ec392f89,626b3a1a7425e1b5276d5cd4,,,,,,,,,,,,,,,,,,,,,,,l,1,4.935,"[""0.710"",""0.421"",""0.543"",""0.825""]","[0,1,1,1]",0,27,27,27,1,1,1,,,1,FALSE,,,,,,,,,,,,,,,,,,,,,,,,,,,,,,
,60e8923aa3b47ab8b0ad9d22,001,2022-04-29_02h06.53.340,classification_task,2021.2.3,Win32,143.8228103,60e8923aa3b47ab8b0ad9d22,626b377229c10585ec392f89,626b3a1a7425e1b5276d5cd4,,,,,,,,,,,,,,,,,,,,,,,l,1,2.2706,"[""0.120"",""0.421"",""0.715"",""0.825""]","[1,1,0,1]",0,28,28,28,1,1,1,,,1,FALSE,,,,,,,,,,,,,,,,,,,,,,,,,,,,,,
,60e8923aa3b47ab8b0ad9d22,001,2022-04-29_02h06.53.340,classification_task,2021.2.3,Win32,143.8228103,60e8923aa3b47ab8b0ad9d22,626b377229c10585ec392f89,626b3a1a7425e1b5276d5cd4,,,,,,,,,,,,,,,,,,,,,,,l,1,1.2224,"[""0.120"",""0.710"",""0.543"",""0.825""]","[1,0,1,1]",0,29,29,29,1,1,1,,,1,FALSE,,,,,,,,,,,,,,,,,,,,,,,,,,,,,,
,60e8923aa3b47ab8b0ad9d22,001,2022-04-29_02h06.53.340,classification_task,2021.2.3,Win32,143.8228103,60e8923aa3b47ab8b0ad9d22,626b377229c10585ec392f89,626b3a1a7425e1b5276d5cd4,,,,,,,,,,,,,,,,,,,,,,,a,1,2.1738,"[""0.182"",""0.477"",""0.906"",""0.711""]","[1,1,1,0]",0,30,30,30,1,0,0,,,1,FALSE,,,,,,,,,,,,,,,,,,,,,,,,,,,,,,
,60e8923aa3b47ab8b0ad9d22,001,2022-04-29_02h06.53.340,classification_task,2021.2.3,Win32,143.8228103,60e8923aa3b47ab8b0ad9d22,626b377229c10585ec392f89,626b3a1a7425e1b5276d5cd4,,,,,,,,,,,,,,,,,,,,,,,l,1,1.9303,"[""0.711"",""0.265"",""0.673"",""0.761""]","[0,1,1,1]",0,31,31,31,1,1,0,,,1,FALSE,,,,,,,,,,,,,,,,,,,,,,,,,,,,,,
,60e8923aa3b47ab8b0ad9d22,001,2022-04-29_02h06.53.340,classification_task,2021.2.3,Win32,143.8228103,60e8923aa3b47ab8b0ad9d22,626b377229c10585ec392f89,626b3a1a7425e1b5276d5cd4,,,,,,,,,,,,,,,,,,,,,,,l,1,3.3891,"[""0.061"",""0.229"",""0.673"",""0.761""]","[1,0,1,1]",0,32,32,32,1,1,0,,,1,FALSE,,,,,,,,,,,,,,,,,,,,,,,,,,,,,,
,60e8923aa3b47ab8b0ad9d22,001,2022-04-29_02h06.53.340,classification_task,2021.2.3,Win32,143.8228103,60e8923aa3b47ab8b0ad9d22,626b377229c10585ec392f89,626b3a1a7425e1b5276d5cd4,,,,,,,,,,,,,,,,,,,,,,,a,1,1.3815,"[""0.304"",""0.230"",""0.602"",""0.868""]","[1,0,1,1]",0,33,33,33,1,0,1,,,1,FALSE,,,,,,,,,,,,,,,,,,,,,,,,,,,,,,
,60e8923aa3b47ab8b0ad9d22,001,2022-04-29_02h06.53.340,classification_task,2021.2.3,Win32,143.8228103,60e8923aa3b47ab8b0ad9d22,626b377229c10585ec392f89,626b3a1a7425e1b5276d5cd4,,,,,,,,,,,,,,,,,,,,,,,l,0,1.6738,"[""0.182"",""0.477"",""0.906"",""0.224""]","[1,1,1,0]",0,34,34,34,1,0,0,,,1,FALSE,,,,,,,,,,,,,,,,,,,,,,,,,,,,,,
,60e8923aa3b47ab8b0ad9d22,001,2022-04-29_02h06.53.340,classification_task,2021.2.3,Win32,143.8228103,60e8923aa3b47ab8b0ad9d22,626b377229c10585ec392f89,626b3a1a7425e1b5276d5cd4,,,,,,,,,,,,,,,,,,,,,,,a,1,0.8614,"[""0.182"",""0.477"",""0.215"",""0.943""]","[1,1,0,1]",0,35,35,35,1,0,0,,,1,FALSE,,,,,,,,,,,,,,,,,,,,,,,,,,,,,,
,60e8923aa3b47ab8b0ad9d22,001,2022-04-29_02h06.53.340,classification_task,2021.2.3,Win32,143.8228103,60e8923aa3b47ab8b0ad9d22,626b377229c10585ec392f89,626b3a1a7425e1b5276d5cd4,,,,,,,,,,,,,,,,,,,,,,,a,0,1.4377,"[""0.061"",""0.265"",""0.673"",""0.216""]","[1,1,1,0]",0,36,36,36,1,1,0,,,1,FALSE,,,,,,,,,,,,,,,,,,,,,,,,,,,,,,
,60e8923aa3b47ab8b0ad9d22,001,2022-04-29_02h06.53.340,classification_task,2021.2.3,Win32,143.8228103,60e8923aa3b47ab8b0ad9d22,626b377229c10585ec392f89,626b3a1a7425e1b5276d5cd4,,,,,,,,,,,,,,,,,,,,,,,a,0,1.16,"[""0.230"",""0.421"",""0.543"",""0.825""]","[0,1,1,1]",0,37,37,37,1,1,1,,,1,FALSE,,,,,,,,,,,,,,,,,,,,,,,,,,,,,,
,60e8923aa3b47ab8b0ad9d22,001,2022-04-29_02h06.53.340,classification_task,2021.2.3,Win32,143.8228103,60e8923aa3b47ab8b0ad9d22,626b377229c10585ec392f89,626b3a1a7425e1b5276d5cd4,,,,,,,,,,,,,,,,,,,,,,,l,0,1.8683,"[""0.715"",""0.477"",""0.906"",""0.943""]","[0,1,1,1]",0,38,38,38,1,0,0,,,1,FALSE,,,,,,,,,,,,,,,,,,,,,,,,,,,,,,
,60e8923aa3b47ab8b0ad9d22,001,2022-04-29_02h06.53.340,classification_task,2021.2.3,Win32,143.8228103,60e8923aa3b47ab8b0ad9d22,626b377229c10585ec392f89,626b3a1a7425e1b5276d5cd4,,,,,,,,,,,,,,,,,,,,,,,a,0,1.3399,"[""0.120"",""0.421"",""0.543"",""0.719""]","[1,1,1,0]",0,39,39,39,1,1,1,,,1,FALSE,,,,,,,,,,,,,,,,,,,,,,,,,,,,,,
,60e8923aa3b47ab8b0ad9d22,001,2022-04-29_02h06.53.340,classification_task,2021.2.3,Win32,143.8228103,60e8923aa3b47ab8b0ad9d22,626b377229c10585ec392f89,626b3a1a7425e1b5276d5cd4,,,,,,,,,,,,,,,,,,,,,,,a,0,1.2295,"[""0.061"",""0.265"",""0.231"",""0.761""]","[1,1,0,1]",0,40,40,40,1,1,0,,,1,FALSE,,,,,,,,,,,,,,,,,,,,,,,,,,,,,,
,60e8923aa3b47ab8b0ad9d22,001,2022-04-29_02h06.53.340,classification_task,2021.2.3,Win32,143.8228103,60e8923aa3b47ab8b0ad9d22,626b377229c10585ec392f89,626b3a1a7425e1b5276d5cd4,,,,,,,,,,,,,,,,,,,,,,,a,0,1.0627,"[""0.229"",""0.265"",""0.673"",""0.761""]","[0,1,1,1]",0,41,41,41,1,1,0,,,1,FALSE,,,,,,,,,,,,,,,,,,,,,,,,,,,,,,
,60e8923aa3b47ab8b0ad9d22,001,2022-04-29_02h06.53.340,classification_task,2021.2.3,Win32,143.8228103,60e8923aa3b47ab8b0ad9d22,626b377229c10585ec392f89,626b3a1a7425e1b5276d5cd4,,,,,,,,,,,,,,,,,,,,,,,l,1,1.3544,"[""0.120"",""0.719"",""0.543"",""0.825""]","[1,0,1,1]",0,42,42,42,1,1,1,,,1,FALSE,,,,,,,,,,,,,,,,,,,,,,,,,,,,,,
,60e8923aa3b47ab8b0ad9d22,001,2022-04-29_02h06.53.340,classification_task,2021.2.3,Win32,143.8228103,60e8923aa3b47ab8b0ad9d22,626b377229c10585ec392f89,626b3a1a7425e1b5276d5cd4,,,,,,,,,,,,,,,,,,,,,,,a,1,1.535,"[""0.304"",""0.375"",""0.602"",""0.715""]","[1,1,1,0]",0,43,43,43,1,0,1,,,1,FALSE,,,,,,,,,,,,,,,,,,,,,,,,,,,,,,
,60e8923aa3b47ab8b0ad9d22,001,2022-04-29_02h06.53.340,classification_task,2021.2.3,Win32,143.8228103,60e8923aa3b47ab8b0ad9d22,626b377229c10585ec392f89,626b3a1a7425e1b5276d5cd4,,,,,,,,,,,,,,,,,,,,,,,l,1,0.9719,"[""0.120"",""0.421"",""0.229"",""0.825""]","[1,1,0,1]",0,44,44,44,1,1,1,,,1,FALSE,,,,,,,,,,,,,,,,,,,,,,,,,,,,,,
,60e8923aa3b47ab8b0ad9d22,001,2022-04-29_02h06.53.340,classification_task,2021.2.3,Win32,143.8228103,60e8923aa3b47ab8b0ad9d22,626b377229c10585ec392f89,626b3a1a7425e1b5276d5cd4,,,,,,,,,,,,,,,,,,,,,,,a,1,1.0906,"[""0.304"",""0.375"",""0.710"",""0.868""]","[1,1,0,1]",0,45,45,45,1,0,1,,,1,FALSE,,,,,,,,,,,,,,,,,,,,,,,,,,,,,,
,60e8923aa3b47ab8b0ad9d22,001,2022-04-29_02h06.53.340,classification_task,2021.2.3,Win32,143.8228103,60e8923aa3b47ab8b0ad9d22,626b377229c10585ec392f89,626b3a1a7425e1b5276d5cd4,,,,,,,,,,,,,,,,,,,,,,,l,0,0.9587,"[""0.224"",""0.375"",""0.602"",""0.868""]","[0,1,1,1]",0,46,46,46,1,0,1,,,1,FALSE,,,,,,,,,,,,,,,,,,,,,,,,,,,,,,
,60e8923aa3b47ab8b0ad9d22,001,2022-04-29_02h06.53.340,classification_task,2021.2.3,Win32,143.8228103,60e8923aa3b47ab8b0ad9d22,626b377229c10585ec392f89,626b3a1a7425e1b5276d5cd4,,,,,,,,,,,,,,,,,,,,,,,a,1,1.4447,"[""0.182"",""0.216"",""0.906"",""0.943""]","[1,0,1,1]",0,47,47,47,1,0,0,,,1,FALSE,,,,,,,,,,,,,,,,,,,,,,,,,,,,,,
,60e8923aa3b47ab8b0ad9d22,001,2022-04-29_02h06.53.340,classification_task,2021.2.3,Win32,143.8228103,60e8923aa3b47ab8b0ad9d22,626b377229c10585ec392f89,626b3a1a7425e1b5276d5cd4,,,,,,,,,,,,,,,,,,,,,,,l,1,1.6392,"[""0.120"",""0.421"",""0.229"",""0.825""]","[1,1,0,1]",0,48,48,48,1,1,1,,,1,FALSE,,,,,,,,,,,,,,,,,,,,,,,,,,,,,,
,60e8923aa3b47ab8b0ad9d22,001,2022-04-29_02h06.53.340,classification_task,2021.2.3,Win32,143.8228103,60e8923aa3b47ab8b0ad9d22,626b377229c10585ec392f89,626b3a1a7425e1b5276d5cd4,,,,,,,,,,,,,,,,,,,,,,,a,1,1.3266,"[""0.182"",""0.477"",""0.215"",""0.943""]","[1,1,0,1]",0,49,49,49,1,0,0,,,1,FALSE,,,,,,,,,,,,,,,,,,,,,,,,,,,,,,
,60e8923aa3b47ab8b0ad9d22,001,2022-04-29_02h06.53.340,classification_task,2021.2.3,Win32,143.8228103,60e8923aa3b47ab8b0ad9d22,626b377229c10585ec392f89,626b3a1a7425e1b5276d5cd4,,,,,,,,,,,,,,,,,,,,,,,a,0,1.2155,"[""0.224"",""0.421"",""0.543"",""0.825""]","[0,1,1,1]",0,50,50,50,1,1,1,,,1,FALSE,,,,,,,,,,,,,,,,,,,,,,,,,,,,,,
,60e8923aa3b47ab8b0ad9d22,001,2022-04-29_02h06.53.340,classification_task,2021.2.3,Win32,143.8228103,60e8923aa3b47ab8b0ad9d22,626b377229c10585ec392f89,626b3a1a7425e1b5276d5cd4,,,,,,,,,,,,,,,,,,,,,,,l,1,1.0281,"[""0.061"",""0.706"",""0.673"",""0.761""]","[1,0,1,1]",0,51,51,51,1,1,0,,,1,FALSE,,,,,,,,,,,,,,,,,,,,,,,,,,,,,,
,60e8923aa3b47ab8b0ad9d22,001,2022-04-29_02h06.53.340,classification_task,2021.2.3,Win32,143.8228103,60e8923aa3b47ab8b0ad9d22,626b377229c10585ec392f89,626b3a1a7425e1b5276d5cd4,,,,,,,,,,,,,,,,,,,,,,,a,1,1.9794,"[""0.304"",""0.375"",""0.229"",""0.868""]","[1,1,0,1]",0,52,52,52,1,0,1,,,1,FALSE,,,,,,,,,,,,,,,,,,,,,,,,,,,,,,
,60e8923aa3b47ab8b0ad9d22,001,2022-04-29_02h06.53.340,classification_task,2021.2.3,Win32,143.8228103,60e8923aa3b47ab8b0ad9d22,626b377229c10585ec392f89,626b3a1a7425e1b5276d5cd4,,,,,,,,,,,,,,,,,,,,,,,l,1,1.5971,"[""0.224"",""0.265"",""0.673"",""0.761""]","[0,1,1,1]",0,53,53,53,1,1,0,,,1,FALSE,,,,,,,,,,,,,,,,,,,,,,,,,,,,,,
,60e8923aa3b47ab8b0ad9d22,001,2022-04-29_02h06.53.340,classification_task,2021.2.3,Win32,143.8228103,60e8923aa3b47ab8b0ad9d22,626b377229c10585ec392f89,626b3a1a7425e1b5276d5cd4,,,,,,,,,,,,,,,,,,,,,,,a,1,1.2225,"[""0.182"",""0.477"",""0.906"",""0.710""]","[1,1,1,0]",0,54,54,54,1,0,0,,,1,FALSE,,,,,,,,,,,,,,,,,,,,,,,,,,,,,,
,60e8923aa3b47ab8b0ad9d22,001,2022-04-29_02h06.53.340,classification_task,2021.2.3,Win32,143.8228103,60e8923aa3b47ab8b0ad9d22,626b377229c10585ec392f89,626b3a1a7425e1b5276d5cd4,,,,,,,,,,,,,,,,,,,,,,,l,1,1.0836,"[""0.061"",""0.265"",""0.724"",""0.761""]","[1,1,0,1]",0,55,55,55,1,1,0,,,1,FALSE,,,,,,,,,,,,,,,,,,,,,,,,,,,,,,
,60e8923aa3b47ab8b0ad9d22,001,2022-04-29_02h06.53.340,classification_task,2021.2.3,Win32,143.8228103,60e8923aa3b47ab8b0ad9d22,626b377229c10585ec392f89,626b3a1a7425e1b5276d5cd4,,,,,,,,,,,,,,,,,,,,,,,a,1,0.9656,"[""0.182"",""0.215"",""0.906"",""0.943""]","[1,0,1,1]",0,56,56,56,1,0,0,,,1,FALSE,,,,,,,,,,,,,,,,,,,,,,,,,,,,,,
,60e8923aa3b47ab8b0ad9d22,001,2022-04-29_02h06.53.340,classification_task,2021.2.3,Win32,143.8228103,60e8923aa3b47ab8b0ad9d22,626b377229c10585ec392f89,626b3a1a7425e1b5276d5cd4,,,,,,,,,,,,,,,,,,,,,,,l,0,1.2573,"[""0.304"",""0.375"",""0.602"",""0.724""]","[1,1,1,0]",0,57,57,57,1,0,1,,,1,FALSE,,,,,,,,,,,,,,,,,,,,,,,,,,,,,,
,60e8923aa3b47ab8b0ad9d22,001,2022-04-29_02h06.53.340,classification_task,2021.2.3,Win32,143.8228103,60e8923aa3b47ab8b0ad9d22,626b377229c10585ec392f89,626b3a1a7425e1b5276d5cd4,,,,,,,,,,,,,,,,,,,,,,,a,1,1.1876,"[""0.216"",""0.375"",""0.602"",""0.868""]","[0,1,1,1]",0,58,58,58,1,0,1,,,1,FALSE,,,,,,,,,,,,,,,,,,,,,,,,,,,,,,
,60e8923aa3b47ab8b0ad9d22,001,2022-04-29_02h06.53.340,classification_task,2021.2.3,Win32,143.8228103,60e8923aa3b47ab8b0ad9d22,626b377229c10585ec392f89,626b3a1a7425e1b5276d5cd4,,,,,,,,,,,,,,,,,,,,,,,l,0,1.2502,"[""0.224"",""0.477"",""0.906"",""0.943""]","[0,1,1,1]",0,59,59,59,1,0,0,,,1,FALSE,,,,,,,,,,,,,,,,,,,,,,,,,,,,,,
,60e8923aa3b47ab8b0ad9d22,001,2022-04-29_02h06.53.340,classification_task,2021.2.3,Win32,143.8228103,60e8923aa3b47ab8b0ad9d22,626b377229c10585ec392f89,626b3a1a7425e1b5276d5cd4,,,,,,,,,,,,,,,,,,,,,,,a,1,1.1878,"[""0.304"",""0.229"",""0.602"",""0.868""]","[1,0,1,1]",0,60,60,60,1,0,1,,,1,FALSE,,,,,,,,,,,,,,,,,,,,,,,,,,,,,,
,60e8923aa3b47ab8b0ad9d22,001,2022-04-29_02h06.53.340,classification_task,2021.2.3,Win32,143.8228103,60e8923aa3b47ab8b0ad9d22,626b377229c10585ec392f89,626b3a1a7425e1b5276d5cd4,,,,,,,,,,,,,,,,,,,,,,,l,1,1.1391,"[""0.061"",""0.265"",""0.673"",""0.724""]","[1,1,1,0]",0,61,61,61,1,1,0,,,1,FALSE,,,,,,,,,,,,,,,,,,,,,,,,,,,,,,
,60e8923aa3b47ab8b0ad9d22,001,2022-04-29_02h06.53.340,classification_task,2021.2.3,Win32,143.8228103,60e8923aa3b47ab8b0ad9d22,626b377229c10585ec392f89,626b3a1a7425e1b5276d5cd4,,,,,,,,,,,,,,,,,,,,,,,a,0,0.8891,"[""0.120"",""0.224"",""0.543"",""0.825""]","[1,0,1,1]",0,62,62,62,1,1,1,,,1,FALSE,,,,,,,,,,,,,,,,,,,,,,,,,,,,,,
,60e8923aa3b47ab8b0ad9d22,001,2022-04-29_02h06.53.340,classification_task,2021.2.3,Win32,143.8228103,60e8923aa3b47ab8b0ad9d22,626b377229c10585ec392f89,626b3a1a7425e1b5276d5cd4,,,,,,,,,,,,,,,,,,,,,,,l,1,0.6045,"[""0.120"",""0.421"",""0.543"",""0.710""]","[1,1,1,0]",0,63,63,63,1,1,1,,,1,FALSE,,,,,,,,,,,,,,,,,,,,,,,,,,,,,,
,60e8923aa3b47ab8b0ad9d22,001,2022-04-29_02h06.53.340,classification_task,2021.2.3,Win32,143.8228103,60e8923aa3b47ab8b0ad9d22,626b377229c10585ec392f89,626b3a1a7425e1b5276d5cd4,,,,,,,,,,,,,,,,,,,,,,,,,,,,,,,,,,,,,,,0, ,,0,2.672937488,315.3437,0,0,0,0,1,2,1,,,,,,,,,,,,,,,,,
,60e8923aa3b47ab8b0ad9d22,001,2022-04-29_02h06.53.340,classification_task,2021.2.3,Win32,143.8228103,60e8923aa3b47ab8b0ad9d22,626b377229c10585ec392f89,626b3a1a7425e1b5276d5cd4,,,,,,,,,,,,,,,,,,,,,,,,,,,,,,,,,,,,,,,1,  ,,0,4.804036841,323.187,0,0,0,0,1,2,1,,,,,,,,,,,,,,,,,
,60e8923aa3b47ab8b0ad9d22,001,2022-04-29_02h06.53.340,classification_task,2021.2.3,Win32,143.8228103,60e8923aa3b47ab8b0ad9d22,626b377229c10585ec392f89,626b3a1a7425e1b5276d5cd4,,,,,,,,,,,,,,,,,,,,,,,,,,,,,,,,,,,,,,,2,  ,,0,4.804036841,327.8455,0,0,0,0,1,2,1,,,,,,,,,,,,,,,,,
,60e8923aa3b47ab8b0ad9d22,001,2022-04-29_02h06.53.340,classification_task,2021.2.3,Win32,143.8228103,60e8923aa3b47ab8b0ad9d22,626b377229c10585ec392f89,626b3a1a7425e1b5276d5cd4,,,,,,,,,,,,,,,,,,,,,,,,,,,,,,,,,,,,,,,,,,,,,0,0,0,0,1,,1,,,,,,,,,,,,,,,,,
,60e8923aa3b47ab8b0ad9d22,001,2022-04-29_02h06.53.340,classification_task,2021.2.3,Win32,143.8228103,60e8923aa3b47ab8b0ad9d22,626b377229c10585ec392f89,626b3a1a7425e1b5276d5cd4,,,,,,,,,,,,,,,,,,,,,space,5.2502,l,0,1.8946,"[""0.182"",""0.724"",""0.906"",""0.943""]","[1,0,1,1]",0,0,0,0,1,0,0,,,1,FALSE,,,,,,,,,,,,,,,,,,,,,,,,,,,,,,
,60e8923aa3b47ab8b0ad9d22,001,2022-04-29_02h06.53.340,classification_task,2021.2.3,Win32,143.8228103,60e8923aa3b47ab8b0ad9d22,626b377229c10585ec392f89,626b3a1a7425e1b5276d5cd4,,,,,,,,,,,,,,,,,,,,,,,l,1,2.8445,"[""0.120"",""0.719"",""0.543"",""0.825""]","[1,0,1,1]",0,1,1,1,1,1,1,,,1,FALSE,,,,,,,,,,,,,,,,,,,,,,,,,,,,,,
,60e8923aa3b47ab8b0ad9d22,001,2022-04-29_02h06.53.340,classification_task,2021.2.3,Win32,143.8228103,60e8923aa3b47ab8b0ad9d22,626b377229c10585ec392f89,626b3a1a7425e1b5276d5cd4,,,,,,,,,,,,,,,,,,,,,,,a,0,1.5686,"[""0.061"",""0.265"",""0.225"",""0.761""]","[1,1,0,1]",0,2,2,2,1,1,0,,,1,FALSE,,,,,,,,,,,,,,,,,,,,,,,,,,,,,,
,60e8923aa3b47ab8b0ad9d22,001,2022-04-29_02h06.53.340,classification_task,2021.2.3,Win32,143.8228103,60e8923aa3b47ab8b0ad9d22,626b377229c10585ec392f89,626b3a1a7425e1b5276d5cd4,,,,,,,,,,,,,,,,,,,,,,,a,1,1.6495,"[""0.711"",""0.375"",""0.602"",""0.868""]","[0,1,1,1]",0,3,3,3,1,0,1,,,1,FALSE,,,,,,,,,,,,,,,,,,,,,,,,,,,,,,
,60e8923aa3b47ab8b0ad9d22,001,2022-04-29_02h06.53.340,classification_task,2021.2.3,Win32,143.8228103,60e8923aa3b47ab8b0ad9d22,626b377229c10585ec392f89,626b3a1a7425e1b5276d5cd4,,,,,,,,,,,,,,,,,,,,,,,l,0,1.6684,"[""0.719"",""0.477"",""0.906"",""0.943""]","[0,1,1,1]",0,4,4,4,1,0,0,,,1,FALSE,,,,,,,,,,,,,,,,,,,,,,,,,,,,,,
,60e8923aa3b47ab8b0ad9d22,001,2022-04-29_02h06.53.340,classification_task,2021.2.3,Win32,143.8228103,60e8923aa3b47ab8b0ad9d22,626b377229c10585ec392f89,626b3a1a7425e1b5276d5cd4,,,,,,,,,,,,,,,,,,,,,,,l,1,1.0828,"[""0.120"",""0.421"",""0.543"",""0.711""]","[1,1,1,0]",0,5,5,5,1,1,1,,,1,FALSE,,,,,,,,,,,,,,,,,,,,,,,,,,,,,,
,60e8923aa3b47ab8b0ad9d22,001,2022-04-29_02h06.53.340,classification_task,2021.2.3,Win32,143.8228103,60e8923aa3b47ab8b0ad9d22,626b377229c10585ec392f89,626b3a1a7425e1b5276d5cd4,,,,,,,,,,,,,,,,,,,,,,,a,1,1.5038,"[""0.304"",""0.375"",""0.706"",""0.868""]","[1,1,0,1]",0,6,6,6,1,0,1,,,1,FALSE,,,,,,,,,,,,,,,,,,,,,,,,,,,,,,
,60e8923aa3b47ab8b0ad9d22,001,2022-04-29_02h06.53.340,classification_task,2021.2.3,Win32,143.8228103,60e8923aa3b47ab8b0ad9d22,626b377229c10585ec392f89,626b3a1a7425e1b5276d5cd4,,,,,,,,,,,,,,,,,,,,,,,a,1,0.7498,"[""0.304"",""0.375"",""0.602"",""0.719""]","[1,1,1,0]",0,7,7,7,1,0,1,,,1,FALSE,,,,,,,,,,,,,,,,,,,,,,,,,,,,,,
,60e8923aa3b47ab8b0ad9d22,001,2022-04-29_02h06.53.340,classification_task,2021.2.3,Win32,143.8228103,60e8923aa3b47ab8b0ad9d22,626b377229c10585ec392f89,626b3a1a7425e1b5276d5cd4,,,,,,,,,,,,,,,,,,,,,,,a,1,0.9108,"[""0.304"",""0.710"",""0.602"",""0.868""]","[1,0,1,1]",0,8,8,8,1,0,1,,,1,FALSE,,,,,,,,,,,,,,,,,,,,,,,,,,,,,,
,60e8923aa3b47ab8b0ad9d22,001,2022-04-29_02h06.53.340,classification_task,2021.2.3,Win32,143.8228103,60e8923aa3b47ab8b0ad9d22,626b377229c10585ec392f89,626b3a1a7425e1b5276d5cd4,,,,,,,,,,,,,,,,,,,,,,,l,1,0.9622,"[""0.120"",""0.421"",""0.715"",""0.825""]","[1,1,0,1]",0,9,9,9,1,1,1,,,1,FALSE,,,,,,,,,,,,,,,,,,,,,,,,,,,,,,
,60e8923aa3b47ab8b0ad9d22,001,2022-04-29_02h06.53.340,classification_task,2021.2.3,Win32,143.8228103,60e8923aa3b47ab8b0ad9d22,626b377229c10585ec392f89,626b3a1a7425e1b5276d5cd4,,,,,,,,,,,,,,,,,,,,,,,a,1,1.3304,"[""0.182"",""0.477"",""0.906"",""0.224""]","[1,1,1,0]",0,10,10,10,1,0,0,,,1,FALSE,,,,,,,,,,,,,,,,,,,,,,,,,,,,,,
,60e8923aa3b47ab8b0ad9d22,001,2022-04-29_02h06.53.340,classification_task,2021.2.3,Win32,143.8228103,60e8923aa3b47ab8b0ad9d22,626b377229c10585ec392f89,626b3a1a7425e1b5276d5cd4,,,,,,,,,,,,,,,,,,,,,,,l,1,0.6176,"[""0.027"",""0.265"",""0.673"",""0.761""]","[0,1,1,1]",0,11,11,11,1,1,0,,,1,FALSE,,,,,,,,,,,,,,,,,,,,,,,,,,,,,,
,60e8923aa3b47ab8b0ad9d22,001,2022-04-29_02h06.53.340,classification_task,2021.2.3,Win32,143.8228103,60e8923aa3b47ab8b0ad9d22,626b377229c10585ec392f89,626b3a1a7425e1b5276d5cd4,,,,,,,,,,,,,,,,,,,,,,,l,1,0.5317,"[""0.061"",""0.265"",""0.673"",""0.230""]","[1,1,1,0]",0,12,12,12,1,1,0,,,1,FALSE,,,,,,,,,,,,,,,,,,,,,,,,,,,,,,
,60e8923aa3b47ab8b0ad9d22,001,2022-04-29_02h06.53.340,classification_task,2021.2.3,Win32,143.8228103,60e8923aa3b47ab8b0ad9d22,626b377229c10585ec392f89,626b3a1a7425e1b5276d5cd4,,,,,,,,,,,,,,,,,,,,,,,l,1,0.5972,"[""0.061"",""0.230"",""0.673"",""0.761""]","[1,0,1,1]",0,13,13,13,1,1,0,,,1,FALSE,,,,,,,,,,,,,,,,,,,,,,,,,,,,,,
,60e8923aa3b47ab8b0ad9d22,001,2022-04-29_02h06.53.340,classification_task,2021.2.3,Win32,143.8228103,60e8923aa3b47ab8b0ad9d22,626b377229c10585ec392f89,626b3a1a7425e1b5276d5cd4,,,,,,,,,,,,,,,,,,,,,,,a,0,1.7259,"[""0.226"",""0.421"",""0.543"",""0.825""]","[0,1,1,1]",0,14,14,14,1,1,1,,,1,FALSE,,,,,,,,,,,,,,,,,,,,,,,,,,,,,,
,60e8923aa3b47ab8b0ad9d22,001,2022-04-29_02h06.53.340,classification_task,2021.2.3,Win32,143.8228103,60e8923aa3b47ab8b0ad9d22,626b377229c10585ec392f89,626b3a1a7425e1b5276d5cd4,,,,,,,,,,,,,,,,,,,,,,,a,1,1.6006,"[""0.182"",""0.477"",""0.710"",""0.943""]","[1,1,0,1]",0,15,15,15,1,0,0,,,1,FALSE,,,,,,,,,,,,,,,,,,,,,,,,,,,,,,
,60e8923aa3b47ab8b0ad9d22,001,2022-04-29_02h06.53.340,classification_task,2021.2.3,Win32,143.8228103,60e8923aa3b47ab8b0ad9d22,626b377229c10585ec392f89,626b3a1a7425e1b5276d5cd4,,,,,,,,,,,,,,,,,,,,,,,a,1,1.4585,"[""0.304"",""0.375"",""0.602"",""0.215""]","[1,1,1,0]",0,16,16,16,1,0,1,,,1,FALSE,,,,,,,,,,,,,,,,,,,,,,,,,,,,,,
,60e8923aa3b47ab8b0ad9d22,001,2022-04-29_02h06.53.340,classification_task,2021.2.3,Win32,143.8228103,60e8923aa3b47ab8b0ad9d22,626b377229c10585ec392f89,626b3a1a7425e1b5276d5cd4,,,,,,,,,,,,,,,,,,,,,,,l,1,1.2063,"[""0.061"",""0.215"",""0.673"",""0.761""]","[1,0,1,1]",0,17,17,17,1,1,0,,,1,FALSE,,,,,,,,,,,,,,,,,,,,,,,,,,,,,,
,60e8923aa3b47ab8b0ad9d22,001,2022-04-29_02h06.53.340,classification_task,2021.2.3,Win32,143.8228103,60e8923aa3b47ab8b0ad9d22,626b377229c10585ec392f89,626b3a1a7425e1b5276d5cd4,,,,,,,,,,,,,,,,,,,,,,,l,1,1.1532,"[""0.120"",""0.421"",""0.543"",""0.715""]","[1,1,1,0]",0,18,18,18,1,1,1,,,1,FALSE,,,,,,,,,,,,,,,,,,,,,,,,,,,,,,
,60e8923aa3b47ab8b0ad9d22,001,2022-04-29_02h06.53.340,classification_task,2021.2.3,Win32,143.8228103,60e8923aa3b47ab8b0ad9d22,626b377229c10585ec392f89,626b3a1a7425e1b5276d5cd4,,,,,,,,,,,,,,,,,,,,,,,a,1,1.0639,"[""0.182"",""0.477"",""0.711"",""0.943""]","[1,1,0,1]",0,19,19,19,1,0,0,,,1,FALSE,,,,,,,,,,,,,,,,,,,,,,,,,,,,,,
,60e8923aa3b47ab8b0ad9d22,001,2022-04-29_02h06.53.340,classification_task,2021.2.3,Win32,143.8228103,60e8923aa3b47ab8b0ad9d22,626b377229c10585ec392f89,626b3a1a7425e1b5276d5cd4,,,,,,,,,,,,,,,,,,,,,,,a,0,1.3123,"[""0.215"",""0.265"",""0.673"",""0.761""]","[0,1,1,1]",0,20,20,20,1,1,0,,,1,FALSE,,,,,,,,,,,,,,,,,,,,,,,,,,,,,,
,60e8923aa3b47ab8b0ad9d22,001,2022-04-29_02h06.53.340,classification_task,2021.2.3,Win32,143.8228103,60e8923aa3b47ab8b0ad9d22,626b377229c10585ec392f89,626b3a1a7425e1b5276d5cd4,,,,,,,,,,,,,,,,,,,,,,,l,0,1.5874,"[""0.027"",""0.477"",""0.906"",""0.943""]","[0,1,1,1]",0,21,21,21,1,0,0,,,1,FALSE,,,,,,,,,,,,,,,,,,,,,,,,,,,,,,
,60e8923aa3b47ab8b0ad9d22,001,2022-04-29_02h06.53.340,classification_task,2021.2.3,Win32,143.8228103,60e8923aa3b47ab8b0ad9d22,626b377229c10585ec392f89,626b3a1a7425e1b5276d5cd4,,,,,,,,,,,,,,,,,,,,,,,a,0,0.7093,"[""0.061"",""0.265"",""0.715"",""0.761""]","[1,1,0,1]",0,22,22,22,1,1,0,,,1,FALSE,,,,,,,,,,,,,,,,,,,,,,,,,,,,,,
,60e8923aa3b47ab8b0ad9d22,001,2022-04-29_02h06.53.340,classification_task,2021.2.3,Win32,143.8228103,60e8923aa3b47ab8b0ad9d22,626b377229c10585ec392f89,626b3a1a7425e1b5276d5cd4,,,,,,,,,,,,,,,,,,,,,,,l,1,0.4722,"[""0.061"",""0.265"",""0.673"",""0.708""]","[1,1,1,0]",0,23,23,23,1,1,0,,,1,FALSE,,,,,,,,,,,,,,,,,,,,,,,,,,,,,,
,60e8923aa3b47ab8b0ad9d22,001,2022-04-29_02h06.53.340,classification_task,2021.2.3,Win32,143.8228103,60e8923aa3b47ab8b0ad9d22,626b377229c10585ec392f89,626b3a1a7425e1b5276d5cd4,,,,,,,,,,,,,,,,,,,,,,,a,1,0.9596,"[""0.304"",""0.724"",""0.602"",""0.868""]","[1,0,1,1]",0,24,24,24,1,0,1,,,1,FALSE,,,,,,,,,,,,,,,,,,,,,,,,,,,,,,
,60e8923aa3b47ab8b0ad9d22,001,2022-04-29_02h06.53.340,classification_task,2021.2.3,Win32,143.8228103,60e8923aa3b47ab8b0ad9d22,626b377229c10585ec392f89,626b3a1a7425e1b5276d5cd4,,,,,,,,,,,,,,,,,,,,,,,l,0,1.2553,"[""0.182"",""0.706"",""0.906"",""0.943""]","[1,0,1,1]",0,25,25,25,1,0,0,,,1,FALSE,,,,,,,,,,,,,,,,,,,,,,,,,,,,,,
,60e8923aa3b47ab8b0ad9d22,001,2022-04-29_02h06.53.340,classification_task,2021.2.3,Win32,143.8228103,60e8923aa3b47ab8b0ad9d22,626b377229c10585ec392f89,626b3a1a7425e1b5276d5cd4,,,,,,,,,,,,,,,,,,,,,,,l,1,1.2624,"[""0.120"",""0.421"",""0.719"",""0.825""]","[1,1,0,1]",0,26,26,26,1,1,1,,,1,FALSE,,,,,,,,,,,,,,,,,,,,,,,,,,,,,,
,60e8923aa3b47ab8b0ad9d22,001,2022-04-29_02h06.53.340,classification_task,2021.2.3,Win32,143.8228103,60e8923aa3b47ab8b0ad9d22,626b377229c10585ec392f89,626b3a1a7425e1b5276d5cd4,,,,,,,,,,,,,,,,,,,,,,,l,1,0.5099,"[""0.120"",""0.224"",""0.543"",""0.825""]","[1,0,1,1]",0,27,27,27,1,1,1,,,1,FALSE,,,,,,,,,,,,,,,,,,,,,,,,,,,,,,
,60e8923aa3b47ab8b0ad9d22,001,2022-04-29_02h06.53.340,classification_task,2021.2.3,Win32,143.8228103,60e8923aa3b47ab8b0ad9d22,626b377229c10585ec392f89,626b3a1a7425e1b5276d5cd4,,,,,,,,,,,,,,,,,,,,,,,a,0,0.833,"[""0.216"",""0.421"",""0.543"",""0.825""]","[0,1,1,1]",0,28,28,28,1,1,1,,,1,FALSE,,,,,,,,,,,,,,,,,,,,,,,,,,,,,,
,60e8923aa3b47ab8b0ad9d22,001,2022-04-29_02h06.53.340,classification_task,2021.2.3,Win32,143.8228103,60e8923aa3b47ab8b0ad9d22,626b377229c10585ec392f89,626b3a1a7425e1b5276d5cd4,,,,,,,,,,,,,,,,,,,,,,,a,1,1.054,"[""0.182"",""0.477"",""0.906"",""0.711""]","[1,1,1,0]",0,29,29,29,1,0,0,,,1,FALSE,,,,,,,,,,,,,,,,,,,,,,,,,,,,,,
,60e8923aa3b47ab8b0ad9d22,001,2022-04-29_02h06.53.340,classification_task,2021.2.3,Win32,143.8228103,60e8923aa3b47ab8b0ad9d22,626b377229c10585ec392f89,626b3a1a7425e1b5276d5cd4,,,,,,,,,,,,,,,,,,,,,,,a,1,1.1102,"[""0.708"",""0.375"",""0.602"",""0.868""]","[0,1,1,1]",0,30,30,30,1,0,1,,,1,FALSE,,,,,,,,,,,,,,,,,,,,,,,,,,,,,,
,60e8923aa3b47ab8b0ad9d22,001,2022-04-29_02h06.53.340,classification_task,2021.2.3,Win32,143.8228103,60e8923aa3b47ab8b0ad9d22,626b377229c10585ec392f89,626b3a1a7425e1b5276d5cd4,,,,,,,,,,,,,,,,,,,,,,,l,0,1.2104,"[""0.304"",""0.375"",""0.216"",""0.868""]","[1,1,0,1]",0,31,31,31,1,0,1,,,1,FALSE,,,,,,,,,,,,,,,,,,,,,,,,,,,,,,
,60e8923aa3b47ab8b0ad9d22,001,2022-04-29_02h06.53.340,classification_task,2021.2.3,Win32,143.8228103,60e8923aa3b47ab8b0ad9d22,626b377229c10585ec392f89,626b3a1a7425e1b5276d5cd4,,,,,,,,,,,,,,,,,,,,,,,l,1,1.1052,"[""0.216"",""0.265"",""0.673"",""0.761""]","[0,1,1,1]",0,32,32,32,1,1,0,,,1,FALSE,,,,,,,,,,,,,,,,,,,,,,,,,,,,,,
,60e8923aa3b47ab8b0ad9d22,001,2022-04-29_02h06.53.340,classification_task,2021.2.3,Win32,143.8228103,60e8923aa3b47ab8b0ad9d22,626b377229c10585ec392f89,626b3a1a7425e1b5276d5cd4,,,,,,,,,,,,,,,,,,,,,,,l,0,0.9737,"[""0.304"",""0.375"",""0.229"",""0.868""]","[1,1,0,1]",0,33,33,33,1,0,1,,,1,FALSE,,,,,,,,,,,,,,,,,,,,,,,,,,,,,,
,60e8923aa3b47ab8b0ad9d22,001,2022-04-29_02h06.53.340,classification_task,2021.2.3,Win32,143.8228103,60e8923aa3b47ab8b0ad9d22,626b377229c10585ec392f89,626b3a1a7425e1b5276d5cd4,,,,,,,,,,,,,,,,,,,,,,,l,0,1.2688,"[""0.182"",""0.708"",""0.906"",""0.943""]","[1,0,1,1]",0,34,34,34,1,0,0,,,1,FALSE,,,,,,,,,,,,,,,,,,,,,,,,,,,,,,
,60e8923aa3b47ab8b0ad9d22,001,2022-04-29_02h06.53.340,classification_task,2021.2.3,Win32,143.8228103,60e8923aa3b47ab8b0ad9d22,626b377229c10585ec392f89,626b3a1a7425e1b5276d5cd4,,,,,,,,,,,,,,,,,,,,,,,l,0,1.2404,"[""0.304"",""0.375"",""0.602"",""0.229""]","[1,1,1,0]",0,35,35,35,1,0,1,,,1,FALSE,,,,,,,,,,,,,,,,,,,,,,,,,,,,,,
,60e8923aa3b47ab8b0ad9d22,001,2022-04-29_02h06.53.340,classification_task,2021.2.3,Win32,143.8228103,60e8923aa3b47ab8b0ad9d22,626b377229c10585ec392f89,626b3a1a7425e1b5276d5cd4,,,,,,,,,,,,,,,,,,,,,,,l,1,0.9519,"[""0.120"",""0.230"",""0.543"",""0.825""]","[1,0,1,1]",0,36,36,36,1,1,1,,,1,FALSE,,,,,,,,,,,,,,,,,,,,,,,,,,,,,,
,60e8923aa3b47ab8b0ad9d22,001,2022-04-29_02h06.53.340,classification_task,2021.2.3,Win32,143.8228103,60e8923aa3b47ab8b0ad9d22,626b377229c10585ec392f89,626b3a1a7425e1b5276d5cd4,,,,,,,,,,,,,,,,,,,,,,,a,1,1.1117,"[""0.226"",""0.477"",""0.906"",""0.943""]","[0,1,1,1]",0,37,37,37,1,0,0,,,1,FALSE,,,,,,,,,,,,,,,,,,,,,,,,,,,,,,
,60e8923aa3b47ab8b0ad9d22,001,2022-04-29_02h06.53.340,classification_task,2021.2.3,Win32,143.8228103,60e8923aa3b47ab8b0ad9d22,626b377229c10585ec392f89,626b3a1a7425e1b5276d5cd4,,,,,,,,,,,,,,,,,,,,,,,l,1,1.1253,"[""0.120"",""0.421"",""0.229"",""0.825""]","[1,1,0,1]",0,38,38,38,1,1,1,,,1,FALSE,,,,,,,,,,,,,,,,,,,,,,,,,,,,,,
,60e8923aa3b47ab8b0ad9d22,001,2022-04-29_02h06.53.340,classification_task,2021.2.3,Win32,143.8228103,60e8923aa3b47ab8b0ad9d22,626b377229c10585ec392f89,626b3a1a7425e1b5276d5cd4,,,,,,,,,,,,,,,,,,,,,,,a,1,1.1453,"[""0.304"",""0.216"",""0.602"",""0.868""]","[1,0,1,1]",0,39,39,39,1,0,1,,,1,FALSE,,,,,,,,,,,,,,,,,,,,,,,,,,,,,,
,60e8923aa3b47ab8b0ad9d22,001,2022-04-29_02h06.53.340,classification_task,2021.2.3,Win32,143.8228103,60e8923aa3b47ab8b0ad9d22,626b377229c10585ec392f89,626b3a1a7425e1b5276d5cd4,,,,,,,,,,,,,,,,,,,,,,,a,1,1.1648,"[""0.182"",""0.477"",""0.708"",""0.943""]","[1,1,0,1]",0,40,40,40,1,0,0,,,1,FALSE,,,,,,,,,,,,,,,,,,,,,,,,,,,,,,
,60e8923aa3b47ab8b0ad9d22,001,2022-04-29_02h06.53.340,classification_task,2021.2.3,Win32,143.8228103,60e8923aa3b47ab8b0ad9d22,626b377229c10585ec392f89,626b3a1a7425e1b5276d5cd4,,,,,,,,,,,,,,,,,,,,,,,a,1,0.6525,"[""0.182"",""0.477"",""0.906"",""0.711""]","[1,1,1,0]",0,41,41,41,1,0,0,,,1,FALSE,,,,,,,,,,,,,,,,,,,,,,,,,,,,,,
,60e8923aa3b47ab8b0ad9d22,001,2022-04-29_02h06.53.340,classification_task,2021.2.3,Win32,143.8228103,60e8923aa3b47ab8b0ad9d22,626b377229c10585ec392f89,626b3a1a7425e1b5276d5cd4,,,,,,,,,,,,,,,,,,,,,,,a,0,1.1281,"[""0.061"",""0.708"",""0.673"",""0.761""]","[1,0,1,1]",0,42,42,42,1,1,0,,,1,FALSE,,,,,,,,,,,,,,,,,,,,,,,,,,,,,,
,60e8923aa3b47ab8b0ad9d22,001,2022-04-29_02h06.53.340,classification_task,2021.2.3,Win32,143.8228103,60e8923aa3b47ab8b0ad9d22,626b377229c10585ec392f89,626b3a1a7425e1b5276d5cd4,,,,,,,,,,,,,,,,,,,,,,,l,1,0.5045,"[""0.061"",""0.265"",""0.673"",""0.710""]","[1,1,1,0]",0,43,43,43,1,1,0,,,1,FALSE,,,,,,,,,,,,,,,,,,,,,,,,,,,,,,
,60e8923aa3b47ab8b0ad9d22,001,2022-04-29_02h06.53.340,classification_task,2021.2.3,Win32,143.8228103,60e8923aa3b47ab8b0ad9d22,626b377229c10585ec392f89,626b3a1a7425e1b5276d5cd4,,,,,,,,,,,,,,,,,,,,,,,a,0,1.019,"[""0.711"",""0.421"",""0.543"",""0.825""]","[0,1,1,1]",0,44,44,44,1,1,1,,,1,FALSE,,,,,,,,,,,,,,,,,,,,,,,,,,,,,,
,60e8923aa3b47ab8b0ad9d22,001,2022-04-29_02h06.53.340,classification_task,2021.2.3,Win32,143.8228103,60e8923aa3b47ab8b0ad9d22,626b377229c10585ec392f89,626b3a1a7425e1b5276d5cd4,,,,,,,,,,,,,,,,,,,,,,,l,1,0.8855,"[""0.120"",""0.421"",""0.543"",""0.724""]","[1,1,1,0]",0,45,45,45,1,1,1,,,1,FALSE,,,,,,,,,,,,,,,,,,,,,,,,,,,,,,
,60e8923aa3b47ab8b0ad9d22,001,2022-04-29_02h06.53.340,classification_task,2021.2.3,Win32,143.8228103,60e8923aa3b47ab8b0ad9d22,626b377229c10585ec392f89,626b3a1a7425e1b5276d5cd4,,,,,,,,,,,,,,,,,,,,,,,a,1,1.2926,"[""0.708"",""0.375"",""0.602"",""0.868""]","[0,1,1,1]",0,46,46,46,1,0,1,,,1,FALSE,,,,,,,,,,,,,,,,,,,,,,,,,,,,,,
,60e8923aa3b47ab8b0ad9d22,001,2022-04-29_02h06.53.340,classification_task,2021.2.3,Win32,143.8228103,60e8923aa3b47ab8b0ad9d22,626b377229c10585ec392f89,626b3a1a7425e1b5276d5cd4,,,,,,,,,,,,,,,,,,,,,,,l,1,0.9491,"[""0.061"",""0.265"",""0.027"",""0.761""]","[1,1,0,1]",0,47,47,47,1,1,0,,,1,FALSE,,,,,,,,,,,,,,,,,,,,,,,,,,,,,,
,60e8923aa3b47ab8b0ad9d22,001,2022-04-29_02h06.53.340,classification_task,2021.2.3,Win32,143.8228103,60e8923aa3b47ab8b0ad9d22,626b377229c10585ec392f89,626b3a1a7425e1b5276d5cd4,,,,,,,,,,,,,,,,,,,,,,,l,1,0.6269,"[""0.027"",""0.265"",""0.673"",""0.761""]","[0,1,1,1]",0,48,48,48,1,1,0,,,1,FALSE,,,,,,,,,,,,,,,,,,,,,,,,,,,,,,
,60e8923aa3b47ab8b0ad9d22,001,2022-04-29_02h06.53.340,classification_task,2021.2.3,Win32,143.8228103,60e8923aa3b47ab8b0ad9d22,626b377229c10585ec392f89,626b3a1a7425e1b5276d5cd4,,,,,,,,,,,,,,,,,,,,,,,a,1,1.3421,"[""0.182"",""0.477"",""0.215"",""0.943""]","[1,1,0,1]",0,49,49,49,1,0,0,,,1,FALSE,,,,,,,,,,,,,,,,,,,,,,,,,,,,,,
,60e8923aa3b47ab8b0ad9d22,001,2022-04-29_02h06.53.340,classification_task,2021.2.3,Win32,143.8228103,60e8923aa3b47ab8b0ad9d22,626b377229c10585ec392f89,626b3a1a7425e1b5276d5cd4,,,,,,,,,,,,,,,,,,,,,,,a,1,1.1175,"[""0.304"",""0.375"",""0.602"",""0.710""]","[1,1,1,0]",0,50,50,50,1,0,1,,,1,FALSE,,,,,,,,,,,,,,,,,,,,,,,,,,,,,,
,60e8923aa3b47ab8b0ad9d22,001,2022-04-29_02h06.53.340,classification_task,2021.2.3,Win32,143.8228103,60e8923aa3b47ab8b0ad9d22,626b377229c10585ec392f89,626b3a1a7425e1b5276d5cd4,,,,,,,,,,,,,,,,,,,,,,,l,0,0.8144,"[""0.724"",""0.375"",""0.602"",""0.868""]","[0,1,1,1]",0,51,51,51,1,0,1,,,1,FALSE,,,,,,,,,,,,,,,,,,,,,,,,,,,,,,
,60e8923aa3b47ab8b0ad9d22,001,2022-04-29_02h06.53.340,classification_task,2021.2.3,Win32,143.8228103,60e8923aa3b47ab8b0ad9d22,626b377229c10585ec392f89,626b3a1a7425e1b5276d5cd4,,,,,,,,,,,,,,,,,,,,,,,l,0,0.9121,"[""0.182"",""0.477"",""0.906"",""0.224""]","[1,1,1,0]",0,52,52,52,1,0,0,,,1,FALSE,,,,,,,,,,,,,,,,,,,,,,,,,,,,,,
,60e8923aa3b47ab8b0ad9d22,001,2022-04-29_02h06.53.340,classification_task,2021.2.3,Win32,143.8228103,60e8923aa3b47ab8b0ad9d22,626b377229c10585ec392f89,626b3a1a7425e1b5276d5cd4,,,,,,,,,,,,,,,,,,,,,,,a,1,0.8758,"[""0.304"",""0.375"",""0.724"",""0.868""]","[1,1,0,1]",0,53,53,53,1,0,1,,,1,FALSE,,,,,,,,,,,,,,,,,,,,,,,,,,,,,,
,60e8923aa3b47ab8b0ad9d22,001,2022-04-29_02h06.53.340,classification_task,2021.2.3,Win32,143.8228103,60e8923aa3b47ab8b0ad9d22,626b377229c10585ec392f89,626b3a1a7425e1b5276d5cd4,,,,,,,,,,,,,,,,,,,,,,,l,0,1.034,"[""0.724"",""0.477"",""0.906"",""0.943""]","[0,1,1,1]",0,54,54,54,1,0,0,,,1,FALSE,,,,,,,,,,,,,,,,,,,,,,,,,,,,,,
,60e8923aa3b47ab8b0ad9d22,001,2022-04-29_02h06.53.340,classification_task,2021.2.3,Win32,143.8228103,60e8923aa3b47ab8b0ad9d22,626b377229c10585ec392f89,626b3a1a7425e1b5276d5cd4,,,,,,,,,,,,,,,,,,,,,,,l,1,1.553,"[""0.120"",""0.421"",""0.543"",""0.706""]","[1,1,1,0]",0,55,55,55,1,1,1,,,1,FALSE,,,,,,,,,,,,,,,,,,,,,,,,,,,,,,
,60e8923aa3b47ab8b0ad9d22,001,2022-04-29_02h06.53.340,classification_task,2021.2.3,Win32,143.8228103,60e8923aa3b47ab8b0ad9d22,626b377229c10585ec392f89,626b3a1a7425e1b5276d5cd4,,,,,,,,,,,,,,,,,,,,,,,l,1,0.6552,"[""0.120"",""0.715"",""0.543"",""0.825""]","[1,0,1,1]",0,56,56,56,1,1,1,,,1,FALSE,,,,,,,,,,,,,,,,,,,,,,,,,,,,,,
,60e8923aa3b47ab8b0ad9d22,001,2022-04-29_02h06.53.340,classification_task,2021.2.3,Win32,143.8228103,60e8923aa3b47ab8b0ad9d22,626b377229c10585ec392f89,626b3a1a7425e1b5276d5cd4,,,,,,,,,,,,,,,,,,,,,,,a,1,0.9678,"[""0.304"",""0.231"",""0.602"",""0.868""]","[1,0,1,1]",0,57,57,57,1,0,1,,,1,FALSE,,,,,,,,,,,,,,,,,,,,,,,,,,,,,,
,60e8923aa3b47ab8b0ad9d22,001,2022-04-29_02h06.53.340,classification_task,2021.2.3,Win32,143.8228103,60e8923aa3b47ab8b0ad9d22,626b377229c10585ec392f89,626b3a1a7425e1b5276d5cd4,,,,,,,,,,,,,,,,,,,,,,,l,1,1.265,"[""0.061"",""0.225"",""0.673"",""0.761""]","[1,0,1,1]",0,58,58,58,1,1,0,,,1,FALSE,,,,,,,,,,,,,,,,,,,,,,,,,,,,,,
,60e8923aa3b47ab8b0ad9d22,001,2022-04-29_02h06.53.340,classification_task,2021.2.3,Win32,143.8228103,60e8923aa3b47ab8b0ad9d22,626b377229c10585ec392f89,626b3a1a7425e1b5276d5cd4,,,,,,,,,,,,,,,,,,,,,,,a,0,1.1856,"[""0.027"",""0.421"",""0.543"",""0.825""]","[0,1,1,1]",0,59,59,59,1,1,1,,,1,FALSE,,,,,,,,,,,,,,,,,,,,,,,,,,,,,,
,60e8923aa3b47ab8b0ad9d22,001,2022-04-29_02h06.53.340,classification_task,2021.2.3,Win32,143.8228103,60e8923aa3b47ab8b0ad9d22,626b377229c10585ec392f89,626b3a1a7425e1b5276d5cd4,,,,,,,,,,,,,,,,,,,,,,,l,1,0.7127,"[""0.061"",""0.265"",""0.226"",""0.761""]","[1,1,0,1]",0,60,60,60,1,1,0,,,1,FALSE,,,,,,,,,,,,,,,,,,,,,,,,,,,,,,
,60e8923aa3b47ab8b0ad9d22,001,2022-04-29_02h06.53.340,classification_task,2021.2.3,Win32,143.8228103,60e8923aa3b47ab8b0ad9d22,626b377229c10585ec392f89,626b3a1a7425e1b5276d5cd4,,,,,,,,,,,,,,,,,,,,,,,a,1,0.931,"[""0.182"",""0.719"",""0.906"",""0.943""]","[1,0,1,1]",0,61,61,61,1,0,0,,,1,FALSE,,,,,,,,,,,,,,,,,,,,,,,,,,,,,,
,60e8923aa3b47ab8b0ad9d22,001,2022-04-29_02h06.53.340,classification_task,2021.2.3,Win32,143.8228103,60e8923aa3b47ab8b0ad9d22,626b377229c10585ec392f89,626b3a1a7425e1b5276d5cd4,,,,,,,,,,,,,,,,,,,,,,,l,1,1.0914,"[""0.120"",""0.421"",""0.231"",""0.825""]","[1,1,0,1]",0,62,62,62,1,1,1,,,1,FALSE,,,,,,,,,,,,,,,,,,,,,,,,,,,,,,
,60e8923aa3b47ab8b0ad9d22,001,2022-04-29_02h06.53.340,classification_task,2021.2.3,Win32,143.8228103,60e8923aa3b47ab8b0ad9d22,626b377229c10585ec392f89,626b3a1a7425e1b5276d5cd4,,,,,,,,,,,,,,,,,,,,,,,l,1,1.095,"[""0.061"",""0.265"",""0.673"",""0.715""]","[1,1,1,0]",0,63,63,63,1,1,0,,,1,FALSE,,,,,,,,,,,,,,,,,,,,,,,,,,,,,,
,60e8923aa3b47ab8b0ad9d22,001,2022-04-29_02h06.53.340,classification_task,2021.2.3,Win32,143.8228103,60e8923aa3b47ab8b0ad9d22,626b377229c10585ec392f89,626b3a1a7425e1b5276d5cd4,,,,,,,,,,,,,,,,,,,,,,,,,,,,,,,,,,,,,,,0, ,,0,2.672937488,147.415,0,1,1,1,1,2,2,,,,,,,,,,,,,,,,,
,60e8923aa3b47ab8b0ad9d22,001,2022-04-29_02h06.53.340,classification_task,2021.2.3,Win32,143.8228103,60e8923aa3b47ab8b0ad9d22,626b377229c10585ec392f89,626b3a1a7425e1b5276d5cd4,,,,,,,,,,,,,,,,,,,,,,,,,,,,,,,,,,,,,,,1,  ,,0,4.265138154,148.1021,0,1,1,1,1,2,2,,,,,,,,,,,,,,,,,
,60e8923aa3b47ab8b0ad9d22,001,2022-04-29_02h06.53.340,classification_task,2021.2.3,Win32,143.8228103,60e8923aa3b47ab8b0ad9d22,626b377229c10585ec392f89,626b3a1a7425e1b5276d5cd4,,,,,,,,,,,,,,,,,,,,,,,,,,,,,,,,,,,,,,,2,  ,,0,4.804036841,149.5423,0,1,1,1,1,2,2,,,,,,,,,,,,,,,,,
,60e8923aa3b47ab8b0ad9d22,001,2022-04-29_02h06.53.340,classification_task,2021.2.3,Win32,143.8228103,60e8923aa3b47ab8b0ad9d22,626b377229c10585ec392f89,626b3a1a7425e1b5276d5cd4,,,,,,,,,,,,,,,,,,,,,,,,,,,,,,,,,,,,,,,,,,,,,0,1,1,1,1,,2,,,,,,,,,,,,,,,,,
,60e8923aa3b47ab8b0ad9d22,001,2022-04-29_02h06.53.340,classification_task,2021.2.3,Win32,143.8228103,60e8923aa3b47ab8b0ad9d22,626b377229c10585ec392f89,626b3a1a7425e1b5276d5cd4,,,,,,,,,,,,,,,,,,,,,space,8.3102,a,0,3.3694,"[""0.229"",""0.265"",""0.673"",""0.761""]","[0,1,1,1]",0,0,0,0,1,1,0,,,1,FALSE,,,,,,,,,,,,,,,,,,,,,,,,,,,,,,
,60e8923aa3b47ab8b0ad9d22,001,2022-04-29_02h06.53.340,classification_task,2021.2.3,Win32,143.8228103,60e8923aa3b47ab8b0ad9d22,626b377229c10585ec392f89,626b3a1a7425e1b5276d5cd4,,,,,,,,,,,,,,,,,,,,,,,l,0,2.8415,"[""0.304"",""0.226"",""0.602"",""0.868""]","[1,0,1,1]",0,1,1,1,1,0,1,,,1,FALSE,,,,,,,,,,,,,,,,,,,,,,,,,,,,,,
,60e8923aa3b47ab8b0ad9d22,001,2022-04-29_02h06.53.340,classification_task,2021.2.3,Win32,143.8228103,60e8923aa3b47ab8b0ad9d22,626b377229c10585ec392f89,626b3a1a7425e1b5276d5cd4,,,,,,,,,,,,,,,,,,,,,,,l,1,0.97,"[""0.061"",""0.265"",""0.673"",""0.229""]","[1,1,1,0]",0,2,2,2,1,1,0,,,1,FALSE,,,,,,,,,,,,,,,,,,,,,,,,,,,,,,
,60e8923aa3b47ab8b0ad9d22,001,2022-04-29_02h06.53.340,classification_task,2021.2.3,Win32,143.8228103,60e8923aa3b47ab8b0ad9d22,626b377229c10585ec392f89,626b3a1a7425e1b5276d5cd4,,,,,,,,,,,,,,,,,,,,,,,a,1,0.9763,"[""0.182"",""0.477"",""0.711"",""0.943""]","[1,1,0,1]",0,3,3,3,1,0,0,,,1,FALSE,,,,,,,,,,,,,,,,,,,,,,,,,,,,,,
,60e8923aa3b47ab8b0ad9d22,001,2022-04-29_02h06.53.340,classification_task,2021.2.3,Win32,143.8228103,60e8923aa3b47ab8b0ad9d22,626b377229c10585ec392f89,626b3a1a7425e1b5276d5cd4,,,,,,,,,,,,,,,,,,,,,,,l,1,1.4415,"[""0.120"",""0.216"",""0.543"",""0.825""]","[1,0,1,1]",0,4,4,4,1,1,1,,,1,FALSE,,,,,,,,,,,,,,,,,,,,,,,,,,,,,,
,60e8923aa3b47ab8b0ad9d22,001,2022-04-29_02h06.53.340,classification_task,2021.2.3,Win32,143.8228103,60e8923aa3b47ab8b0ad9d22,626b377229c10585ec392f89,626b3a1a7425e1b5276d5cd4,,,,,,,,,,,,,,,,,,,,,,,a,1,1.2929,"[""0.715"",""0.375"",""0.602"",""0.868""]","[0,1,1,1]",0,5,5,5,1,0,1,,,1,FALSE,,,,,,,,,,,,,,,,,,,,,,,,,,,,,,
,60e8923aa3b47ab8b0ad9d22,001,2022-04-29_02h06.53.340,classification_task,2021.2.3,Win32,143.8228103,60e8923aa3b47ab8b0ad9d22,626b377229c10585ec392f89,626b3a1a7425e1b5276d5cd4,,,,,,,,,,,,,,,,,,,,,,,a,1,1.1813,"[""0.182"",""0.229"",""0.906"",""0.943""]","[1,0,1,1]",0,6,6,6,1,0,0,,,1,FALSE,,,,,,,,,,,,,,,,,,,,,,,,,,,,,,
,60e8923aa3b47ab8b0ad9d22,001,2022-04-29_02h06.53.340,classification_task,2021.2.3,Win32,143.8228103,60e8923aa3b47ab8b0ad9d22,626b377229c10585ec392f89,626b3a1a7425e1b5276d5cd4,,,,,,,,,,,,,,,,,,,,,,,l,1,1.3618,"[""0.061"",""0.265"",""0.715"",""0.761""]","[1,1,0,1]",0,7,7,7,1,1,0,,,1,FALSE,,,,,,,,,,,,,,,,,,,,,,,,,,,,,,
,60e8923aa3b47ab8b0ad9d22,001,2022-04-29_02h06.53.340,classification_task,2021.2.3,Win32,143.8228103,60e8923aa3b47ab8b0ad9d22,626b377229c10585ec392f89,626b3a1a7425e1b5276d5cd4,,,,,,,,,,,,,,,,,,,,,,,l,0,1.7682,"[""0.715"",""0.477"",""0.906"",""0.943""]","[0,1,1,1]",0,8,8,8,1,0,0,,,1,FALSE,,,,,,,,,,,,,,,,,,,,,,,,,,,,,,
,60e8923aa3b47ab8b0ad9d22,001,2022-04-29_02h06.53.340,classification_task,2021.2.3,Win32,143.8228103,60e8923aa3b47ab8b0ad9d22,626b377229c10585ec392f89,626b3a1a7425e1b5276d5cd4,,,,,,,,,,,,,,,,,,,,,,,l,1,2.097,"[""0.216"",""0.421"",""0.543"",""0.825""]","[0,1,1,1]",0,9,9,9,1,1,1,,,1,FALSE,,,,,,,,,,,,,,,,,,,,,,,,,,,,,,
,60e8923aa3b47ab8b0ad9d22,001,2022-04-29_02h06.53.340,classification_task,2021.2.3,Win32,143.8228103,60e8923aa3b47ab8b0ad9d22,626b377229c10585ec392f89,626b3a1a7425e1b5276d5cd4,,,,,,,,,,,,,,,,,,,,,,,l,0,0.5731,"[""0.304"",""0.375"",""0.602"",""0.224""]","[1,1,1,0]",0,10,10,10,1,0,1,,,1,FALSE,,,,,,,,,,,,,,,,,,,,,,,,,,,,,,
,60e8923aa3b47ab8b0ad9d22,001,2022-04-29_02h06.53.340,classification_task,2021.2.3,Win32,143.8228103,60e8923aa3b47ab8b0ad9d22,626b377229c10585ec392f89,626b3a1a7425e1b5276d5cd4,,,,,,,,,,,,,,,,,,,,,,,a,1,1.8197,"[""0.304"",""0.375"",""0.719"",""0.868""]","[1,1,0,1]",0,11,11,11,1,0,1,,,1,FALSE,,,,,,,,,,,,,,,,,,,,,,,,,,,,,,
,60e8923aa3b47ab8b0ad9d22,001,2022-04-29_02h06.53.340,classification_task,2021.2.3,Win32,143.8228103,60e8923aa3b47ab8b0ad9d22,626b377229c10585ec392f89,626b3a1a7425e1b5276d5cd4,,,,,,,,,,,,,,,,,,,,,,,l,1,0.9475,"[""0.120"",""0.421"",""0.719"",""0.825""]","[1,1,0,1]",0,12,12,12,1,1,1,,,1,FALSE,,,,,,,,,,,,,,,,,,,,,,,,,,,,,,
,60e8923aa3b47ab8b0ad9d22,001,2022-04-29_02h06.53.340,classification_task,2021.2.3,Win32,143.8228103,60e8923aa3b47ab8b0ad9d22,626b377229c10585ec392f89,626b3a1a7425e1b5276d5cd4,,,,,,,,,,,,,,,,,,,,,,,a,1,1.1874,"[""0.182"",""0.477"",""0.906"",""0.224""]","[1,1,1,0]",0,13,13,13,1,0,0,,,1,FALSE,,,,,,,,,,,,,,,,,,,,,,,,,,,,,,
,60e8923aa3b47ab8b0ad9d22,001,2022-04-29_02h06.53.340,classification_task,2021.2.3,Win32,143.8228103,60e8923aa3b47ab8b0ad9d22,626b377229c10585ec392f89,626b3a1a7425e1b5276d5cd4,,,,,,,,,,,,,,,,,,,,,,,l,1,0.7686,"[""0.061"",""0.225"",""0.673"",""0.761""]","[1,0,1,1]",0,14,14,14,1,1,0,,,1,FALSE,,,,,,,,,,,,,,,,,,,,,,,,,,,,,,
,60e8923aa3b47ab8b0ad9d22,001,2022-04-29_02h06.53.340,classification_task,2021.2.3,Win32,143.8228103,60e8923aa3b47ab8b0ad9d22,626b377229c10585ec392f89,626b3a1a7425e1b5276d5cd4,,,,,,,,,,,,,,,,,,,,,,,l,1,2.8645,"[""0.120"",""0.421"",""0.543"",""0.215""]","[1,1,1,0]",0,15,15,15,1,1,1,,,1,FALSE,,,,,,,,,,,,,,,,,,,,,,,,,,,,,,
,60e8923aa3b47ab8b0ad9d22,001,2022-04-29_02h06.53.340,classification_task,2021.2.3,Win32,143.8228103,60e8923aa3b47ab8b0ad9d22,626b377229c10585ec392f89,626b3a1a7425e1b5276d5cd4,,,,,,,,,,,,,,,,,,,,,,,l,0,1.4747,"[""0.304"",""0.375"",""0.602"",""0.027""]","[1,1,1,0]",0,16,16,16,1,0,1,,,1,FALSE,,,,,,,,,,,,,,,,,,,,,,,,,,,,,,
,60e8923aa3b47ab8b0ad9d22,001,2022-04-29_02h06.53.340,classification_task,2021.2.3,Win32,143.8228103,60e8923aa3b47ab8b0ad9d22,626b377229c10585ec392f89,626b3a1a7425e1b5276d5cd4,,,,,,,,,,,,,,,,,,,,,,,l,1,0.8904,"[""0.120"",""0.421"",""0.215"",""0.825""]","[1,1,0,1]",0,17,17,17,1,1,1,,,1,FALSE,,,,,,,,,,,,,,,,,,,,,,,,,,,,,,
,60e8923aa3b47ab8b0ad9d22,001,2022-04-29_02h06.53.340,classification_task,2021.2.3,Win32,143.8228103,60e8923aa3b47ab8b0ad9d22,626b377229c10585ec392f89,626b3a1a7425e1b5276d5cd4,,,,,,,,,,,,,,,,,,,,,,,a,1,1.3623,"[""0.182"",""0.477"",""0.719"",""0.943""]","[1,1,0,1]",0,18,18,18,1,0,0,,,1,FALSE,,,,,,,,,,,,,,,,,,,,,,,,,,,,,,
,60e8923aa3b47ab8b0ad9d22,001,2022-04-29_02h06.53.340,classification_task,2021.2.3,Win32,143.8228103,60e8923aa3b47ab8b0ad9d22,626b377229c10585ec392f89,626b3a1a7425e1b5276d5cd4,,,,,,,,,,,,,,,,,,,,,,,l,1,0.9026,"[""0.120"",""0.421"",""0.543"",""0.706""]","[1,1,1,0]",0,19,19,19,1,1,1,,,1,FALSE,,,,,,,,,,,,,,,,,,,,,,,,,,,,,,
,60e8923aa3b47ab8b0ad9d22,001,2022-04-29_02h06.53.340,classification_task,2021.2.3,Win32,143.8228103,60e8923aa3b47ab8b0ad9d22,626b377229c10585ec392f89,626b3a1a7425e1b5276d5cd4,,,,,,,,,,,,,,,,,,,,,,,l,0,1.7315,"[""0.708"",""0.375"",""0.602"",""0.868""]","[0,1,1,1]",0,20,20,20,1,0,1,,,1,FALSE,,,,,,,,,,,,,,,,,,,,,,,,,,,,,,
,60e8923aa3b47ab8b0ad9d22,001,2022-04-29_02h06.53.340,classification_task,2021.2.3,Win32,143.8228103,60e8923aa3b47ab8b0ad9d22,626b377229c10585ec392f89,626b3a1a7425e1b5276d5cd4,,,,,,,,,,,,,,,,,,,,,,,l,1,1.0635,"[""0.120"",""0.710"",""0.543"",""0.825""]","[1,0,1,1]",0,21,21,21,1,1,1,,,1,FALSE,,,,,,,,,,,,,,,,,,,,,,,,,,,,,,
,60e8923aa3b47ab8b0ad9d22,001,2022-04-29_02h06.53.340,classification_task,2021.2.3,Win32,143.8228103,60e8923aa3b47ab8b0ad9d22,626b377229c10585ec392f89,626b3a1a7425e1b5276d5cd4,,,,,,,,,,,,,,,,,,,,,,,l,1,0.8499,"[""0.061"",""0.265"",""0.224"",""0.761""]","[1,1,0,1]",0,22,22,22,1,1,0,,,1,FALSE,,,,,,,,,,,,,,,,,,,,,,,,,,,,,,
,60e8923aa3b47ab8b0ad9d22,001,2022-04-29_02h06.53.340,classification_task,2021.2.3,Win32,143.8228103,60e8923aa3b47ab8b0ad9d22,626b377229c10585ec392f89,626b3a1a7425e1b5276d5cd4,,,,,,,,,,,,,,,,,,,,,,,l,1,2.0138,"[""0.215"",""0.421"",""0.543"",""0.825""]","[0,1,1,1]",0,23,23,23,1,1,1,,,1,FALSE,,,,,,,,,,,,,,,,,,,,,,,,,,,,,,
,60e8923aa3b47ab8b0ad9d22,001,2022-04-29_02h06.53.340,classification_task,2021.2.3,Win32,143.8228103,60e8923aa3b47ab8b0ad9d22,626b377229c10585ec392f89,626b3a1a7425e1b5276d5cd4,,,,,,,,,,,,,,,,,,,,,,,l,0,0.6135,"[""0.304"",""0.375"",""0.226"",""0.868""]","[1,1,0,1]",0,24,24,24,1,0,1,,,1,FALSE,,,,,,,,,,,,,,,,,,,,,,,,,,,,,,
,60e8923aa3b47ab8b0ad9d22,001,2022-04-29_02h06.53.340,classification_task,2021.2.3,Win32,143.8228103,60e8923aa3b47ab8b0ad9d22,626b377229c10585ec392f89,626b3a1a7425e1b5276d5cd4,,,,,,,,,,,,,,,,,,,,,,,l,1,1.169,"[""0.061"",""0.225"",""0.673"",""0.761""]","[1,0,1,1]",0,25,25,25,1,1,0,,,1,FALSE,,,,,,,,,,,,,,,,,,,,,,,,,,,,,,
,60e8923aa3b47ab8b0ad9d22,001,2022-04-29_02h06.53.340,classification_task,2021.2.3,Win32,143.8228103,60e8923aa3b47ab8b0ad9d22,626b377229c10585ec392f89,626b3a1a7425e1b5276d5cd4,,,,,,,,,,,,,,,,,,,,,,,a,1,0.8609,"[""0.304"",""0.706"",""0.602"",""0.868""]","[1,0,1,1]",0,26,26,26,1,0,1,,,1,FALSE,,,,,,,,,,,,,,,,,,,,,,,,,,,,,,
,60e8923aa3b47ab8b0ad9d22,001,2022-04-29_02h06.53.340,classification_task,2021.2.3,Win32,143.8228103,60e8923aa3b47ab8b0ad9d22,626b377229c10585ec392f89,626b3a1a7425e1b5276d5cd4,,,,,,,,,,,,,,,,,,,,,,,a,1,0.8891,"[""0.182"",""0.477"",""0.906"",""0.711""]","[1,1,1,0]",0,27,27,27,1,0,0,,,1,FALSE,,,,,,,,,,,,,,,,,,,,,,,,,,,,,,
,60e8923aa3b47ab8b0ad9d22,001,2022-04-29_02h06.53.340,classification_task,2021.2.3,Win32,143.8228103,60e8923aa3b47ab8b0ad9d22,626b377229c10585ec392f89,626b3a1a7425e1b5276d5cd4,,,,,,,,,,,,,,,,,,,,,,,l,1,0.8237,"[""0.061"",""0.265"",""0.673"",""0.710""]","[1,1,1,0]",0,28,28,28,1,1,0,,,1,FALSE,,,,,,,,,,,,,,,,,,,,,,,,,,,,,,
,60e8923aa3b47ab8b0ad9d22,001,2022-04-29_02h06.53.340,classification_task,2021.2.3,Win32,143.8228103,60e8923aa3b47ab8b0ad9d22,626b377229c10585ec392f89,626b3a1a7425e1b5276d5cd4,,,,,,,,,,,,,,,,,,,,,,,l,0,1.8494,"[""0.231"",""0.477"",""0.906"",""0.943""]","[0,1,1,1]",0,29,29,29,1,0,0,,,1,FALSE,,,,,,,,,,,,,,,,,,,,,,,,,,,,,,
,60e8923aa3b47ab8b0ad9d22,001,2022-04-29_02h06.53.340,classification_task,2021.2.3,Win32,143.8228103,60e8923aa3b47ab8b0ad9d22,626b377229c10585ec392f89,626b3a1a7425e1b5276d5cd4,,,,,,,,,,,,,,,,,,,,,,,l,1,1.2671,"[""0.708"",""0.265"",""0.673"",""0.761""]","[0,1,1,1]",0,30,30,30,1,1,0,,,1,FALSE,,,,,,,,,,,,,,,,,,,,,,,,,,,,,,
,60e8923aa3b47ab8b0ad9d22,001,2022-04-29_02h06.53.340,classification_task,2021.2.3,Win32,143.8228103,60e8923aa3b47ab8b0ad9d22,626b377229c10585ec392f89,626b3a1a7425e1b5276d5cd4,,,,,,,,,,,,,,,,,,,,,,,a,1,0.8793,"[""0.182"",""0.231"",""0.906"",""0.943""]","[1,0,1,1]",0,31,31,31,1,0,0,,,1,FALSE,,,,,,,,,,,,,,,,,,,,,,,,,,,,,,
,60e8923aa3b47ab8b0ad9d22,001,2022-04-29_02h06.53.340,classification_task,2021.2.3,Win32,143.8228103,60e8923aa3b47ab8b0ad9d22,626b377229c10585ec392f89,626b3a1a7425e1b5276d5cd4,,,,,,,,,,,,,,,,,,,,,,,a,1,0.8212,"[""0.182"",""0.477"",""0.906"",""0.231""]","[1,1,1,0]",0,32,32,32,1,0,0,,,1,FALSE,,,,,,,,,,,,,,,,,,,,,,,,,,,,,,
,60e8923aa3b47ab8b0ad9d22,001,2022-04-29_02h06.53.340,classification_task,2021.2.3,Win32,143.8228103,60e8923aa3b47ab8b0ad9d22,626b377229c10585ec392f89,626b3a1a7425e1b5276d5cd4,,,,,,,,,,,,,,,,,,,,,,,l,1,0.8269,"[""0.061"",""0.265"",""0.673"",""0.711""]","[1,1,1,0]",0,33,33,33,1,1,0,,,1,FALSE,,,,,,,,,,,,,,,,,,,,,,,,,,,,,,
,60e8923aa3b47ab8b0ad9d22,001,2022-04-29_02h06.53.340,classification_task,2021.2.3,Win32,143.8228103,60e8923aa3b47ab8b0ad9d22,626b377229c10585ec392f89,626b3a1a7425e1b5276d5cd4,,,,,,,,,,,,,,,,,,,,,,,l,1,0.9893,"[""0.120"",""0.229"",""0.543"",""0.825""]","[1,0,1,1]",0,34,34,34,1,1,1,,,1,FALSE,,,,,,,,,,,,,,,,,,,,,,,,,,,,,,
,60e8923aa3b47ab8b0ad9d22,001,2022-04-29_02h06.53.340,classification_task,2021.2.3,Win32,143.8228103,60e8923aa3b47ab8b0ad9d22,626b377229c10585ec392f89,626b3a1a7425e1b5276d5cd4,,,,,,,,,,,,,,,,,,,,,,,l,1,0.9045,"[""0.061"",""0.215"",""0.673"",""0.761""]","[1,0,1,1]",0,35,35,35,1,1,0,,,1,FALSE,,,,,,,,,,,,,,,,,,,,,,,,,,,,,,
,60e8923aa3b47ab8b0ad9d22,001,2022-04-29_02h06.53.340,classification_task,2021.2.3,Win32,143.8228103,60e8923aa3b47ab8b0ad9d22,626b377229c10585ec392f89,626b3a1a7425e1b5276d5cd4,,,,,,,,,,,,,,,,,,,,,,,a,1,1.1389,"[""0.182"",""0.477"",""0.724"",""0.943""]","[1,1,0,1]",0,36,36,36,1,0,0,,,1,FALSE,,,,,,,,,,,,,,,,,,,,,,,,,,,,,,
,60e8923aa3b47ab8b0ad9d22,001,2022-04-29_02h06.53.340,classification_task,2021.2.3,Win32,143.8228103,60e8923aa3b47ab8b0ad9d22,626b377229c10585ec392f89,626b3a1a7425e1b5276d5cd4,,,,,,,,,,,,,,,,,,,,,,,l,1,0.9477,"[""0.120"",""0.421"",""0.027"",""0.825""]","[1,1,0,1]",0,37,37,37,1,1,1,,,1,FALSE,,,,,,,,,,,,,,,,,,,,,,,,,,,,,,
,60e8923aa3b47ab8b0ad9d22,001,2022-04-29_02h06.53.340,classification_task,2021.2.3,Win32,143.8228103,60e8923aa3b47ab8b0ad9d22,626b377229c10585ec392f89,626b3a1a7425e1b5276d5cd4,,,,,,,,,,,,,,,,,,,,,,,a,1,0.7645,"[""0.711"",""0.375"",""0.602"",""0.868""]","[0,1,1,1]",0,38,38,38,1,0,1,,,1,FALSE,,,,,,,,,,,,,,,,,,,,,,,,,,,,,,
,60e8923aa3b47ab8b0ad9d22,001,2022-04-29_02h06.53.340,classification_task,2021.2.3,Win32,143.8228103,60e8923aa3b47ab8b0ad9d22,626b377229c10585ec392f89,626b3a1a7425e1b5276d5cd4,,,,,,,,,,,,,,,,,,,,,,,a,0,1.0176,"[""0.224"",""0.265"",""0.673"",""0.761""]","[0,1,1,1]",0,39,39,39,1,1,0,,,1,FALSE,,,,,,,,,,,,,,,,,,,,,,,,,,,,,,
,60e8923aa3b47ab8b0ad9d22,001,2022-04-29_02h06.53.340,classification_task,2021.2.3,Win32,143.8228103,60e8923aa3b47ab8b0ad9d22,626b377229c10585ec392f89,626b3a1a7425e1b5276d5cd4,,,,,,,,,,,,,,,,,,,,,,,a,1,1.0166,"[""0.304"",""0.715"",""0.602"",""0.868""]","[1,0,1,1]",0,40,40,40,1,0,1,,,1,FALSE,,,,,,,,,,,,,,,,,,,,,,,,,,,,,,
,60e8923aa3b47ab8b0ad9d22,001,2022-04-29_02h06.53.340,classification_task,2021.2.3,Win32,143.8228103,60e8923aa3b47ab8b0ad9d22,626b377229c10585ec392f89,626b3a1a7425e1b5276d5cd4,,,,,,,,,,,,,,,,,,,,,,,l,0,1.584,"[""0.225"",""0.477"",""0.906"",""0.943""]","[0,1,1,1]",0,41,41,41,1,0,0,,,1,FALSE,,,,,,,,,,,,,,,,,,,,,,,,,,,,,,
,60e8923aa3b47ab8b0ad9d22,001,2022-04-29_02h06.53.340,classification_task,2021.2.3,Win32,143.8228103,60e8923aa3b47ab8b0ad9d22,626b377229c10585ec392f89,626b3a1a7425e1b5276d5cd4,,,,,,,,,,,,,,,,,,,,,,,a,1,0.8366,"[""0.304"",""0.375"",""0.602"",""0.719""]","[1,1,1,0]",0,42,42,42,1,0,1,,,1,FALSE,,,,,,,,,,,,,,,,,,,,,,,,,,,,,,
,60e8923aa3b47ab8b0ad9d22,001,2022-04-29_02h06.53.340,classification_task,2021.2.3,Win32,143.8228103,60e8923aa3b47ab8b0ad9d22,626b377229c10585ec392f89,626b3a1a7425e1b5276d5cd4,,,,,,,,,,,,,,,,,,,,,,,a,1,0.6405,"[""0.304"",""0.375"",""0.711"",""0.868""]","[1,1,0,1]",0,43,43,43,1,0,1,,,1,FALSE,,,,,,,,,,,,,,,,,,,,,,,,,,,,,,
,60e8923aa3b47ab8b0ad9d22,001,2022-04-29_02h06.53.340,classification_task,2021.2.3,Win32,143.8228103,60e8923aa3b47ab8b0ad9d22,626b377229c10585ec392f89,626b3a1a7425e1b5276d5cd4,,,,,,,,,,,,,,,,,,,,,,,l,1,0.6508,"[""0.231"",""0.421"",""0.543"",""0.825""]","[0,1,1,1]",0,44,44,44,1,1,1,,,1,FALSE,,,,,,,,,,,,,,,,,,,,,,,,,,,,,,
,60e8923aa3b47ab8b0ad9d22,001,2022-04-29_02h06.53.340,classification_task,2021.2.3,Win32,143.8228103,60e8923aa3b47ab8b0ad9d22,626b377229c10585ec392f89,626b3a1a7425e1b5276d5cd4,,,,,,,,,,,,,,,,,,,,,,,a,1,1.1776,"[""0.182"",""0.719"",""0.906"",""0.943""]","[1,0,1,1]",0,45,45,45,1,0,0,,,1,FALSE,,,,,,,,,,,,,,,,,,,,,,,,,,,,,,
,60e8923aa3b47ab8b0ad9d22,001,2022-04-29_02h06.53.340,classification_task,2021.2.3,Win32,143.8228103,60e8923aa3b47ab8b0ad9d22,626b377229c10585ec392f89,626b3a1a7425e1b5276d5cd4,,,,,,,,,,,,,,,,,,,,,,,l,1,1.1252,"[""0.120"",""0.421"",""0.543"",""0.710""]","[1,1,1,0]",0,46,46,46,1,1,1,,,1,FALSE,,,,,,,,,,,,,,,,,,,,,,,,,,,,,,
,60e8923aa3b47ab8b0ad9d22,001,2022-04-29_02h06.53.340,classification_task,2021.2.3,Win32,143.8228103,60e8923aa3b47ab8b0ad9d22,626b377229c10585ec392f89,626b3a1a7425e1b5276d5cd4,,,,,,,,,,,,,,,,,,,,,,,l,1,0.9583,"[""0.061"",""0.265"",""0.708"",""0.761""]","[1,1,0,1]",0,47,47,47,1,1,0,,,1,FALSE,,,,,,,,,,,,,,,,,,,,,,,,,,,,,,
,60e8923aa3b47ab8b0ad9d22,001,2022-04-29_02h06.53.340,classification_task,2021.2.3,Win32,143.8228103,60e8923aa3b47ab8b0ad9d22,626b377229c10585ec392f89,626b3a1a7425e1b5276d5cd4,,,,,,,,,,,,,,,,,,,,,,,a,1,1.4108,"[""0.304"",""0.375"",""0.602"",""0.216""]","[1,1,1,0]",0,48,48,48,1,0,1,,,1,FALSE,,,,,,,,,,,,,,,,,,,,,,,,,,,,,,
,60e8923aa3b47ab8b0ad9d22,001,2022-04-29_02h06.53.340,classification_task,2021.2.3,Win32,143.8228103,60e8923aa3b47ab8b0ad9d22,626b377229c10585ec392f89,626b3a1a7425e1b5276d5cd4,,,,,,,,,,,,,,,,,,,,,,,l,1,0.8959,"[""0.120"",""0.421"",""0.543"",""0.719""]","[1,1,1,0]",0,49,49,49,1,1,1,,,1,FALSE,,,,,,,,,,,,,,,,,,,,,,,,,,,,,,
,60e8923aa3b47ab8b0ad9d22,001,2022-04-29_02h06.53.340,classification_task,2021.2.3,Win32,143.8228103,60e8923aa3b47ab8b0ad9d22,626b377229c10585ec392f89,626b3a1a7425e1b5276d5cd4,,,,,,,,,,,,,,,,,,,,,,,l,1,1.6115,"[""0.061"",""0.708"",""0.673"",""0.761""]","[1,0,1,1]",0,50,50,50,1,1,0,,,1,FALSE,,,,,,,,,,,,,,,,,,,,,,,,,,,,,,
,60e8923aa3b47ab8b0ad9d22,001,2022-04-29_02h06.53.340,classification_task,2021.2.3,Win32,143.8228103,60e8923aa3b47ab8b0ad9d22,626b377229c10585ec392f89,626b3a1a7425e1b5276d5cd4,,,,,,,,,,,,,,,,,,,,,,,l,1,0.7936,"[""0.120"",""0.421"",""0.225"",""0.825""]","[1,1,0,1]",0,51,51,51,1,1,1,,,1,FALSE,,,,,,,,,,,,,,,,,,,,,,,,,,,,,,
,60e8923aa3b47ab8b0ad9d22,001,2022-04-29_02h06.53.340,classification_task,2021.2.3,Win32,143.8228103,60e8923aa3b47ab8b0ad9d22,626b377229c10585ec392f89,626b3a1a7425e1b5276d5cd4,,,,,,,,,,,,,,,,,,,,,,,l,1,0.6671,"[""0.061"",""0.265"",""0.673"",""0.708""]","[1,1,1,0]",0,52,52,52,1,1,0,,,1,FALSE,,,,,,,,,,,,,,,,,,,,,,,,,,,,,,
,60e8923aa3b47ab8b0ad9d22,001,2022-04-29_02h06.53.340,classification_task,2021.2.3,Win32,143.8228103,60e8923aa3b47ab8b0ad9d22,626b377229c10585ec392f89,626b3a1a7425e1b5276d5cd4,,,,,,,,,,,,,,,,,,,,,,,a,1,0.6494,"[""0.182"",""0.477"",""0.906"",""0.231""]","[1,1,1,0]",0,53,53,53,1,0,0,,,1,FALSE,,,,,,,,,,,,,,,,,,,,,,,,,,,,,,
,60e8923aa3b47ab8b0ad9d22,001,2022-04-29_02h06.53.340,classification_task,2021.2.3,Win32,143.8228103,60e8923aa3b47ab8b0ad9d22,626b377229c10585ec392f89,626b3a1a7425e1b5276d5cd4,,,,,,,,,,,,,,,,,,,,,,,l,0,0.9793,"[""0.304"",""0.231"",""0.602"",""0.868""]","[1,0,1,1]",0,54,54,54,1,0,1,,,1,FALSE,,,,,,,,,,,,,,,,,,,,,,,,,,,,,,
,60e8923aa3b47ab8b0ad9d22,001,2022-04-29_02h06.53.340,classification_task,2021.2.3,Win32,143.8228103,60e8923aa3b47ab8b0ad9d22,626b377229c10585ec392f89,626b3a1a7425e1b5276d5cd4,,,,,,,,,,,,,,,,,,,,,,,l,0,0.9375,"[""0.304"",""0.375"",""0.231"",""0.868""]","[1,1,0,1]",0,55,55,55,1,0,1,,,1,FALSE,,,,,,,,,,,,,,,,,,,,,,,,,,,,,,
,60e8923aa3b47ab8b0ad9d22,001,2022-04-29_02h06.53.340,classification_task,2021.2.3,Win32,143.8228103,60e8923aa3b47ab8b0ad9d22,626b377229c10585ec392f89,626b3a1a7425e1b5276d5cd4,,,,,,,,,,,,,,,,,,,,,,,a,0,1.2049,"[""0.719"",""0.265"",""0.673"",""0.761""]","[0,1,1,1]",0,56,56,56,1,1,0,,,1,FALSE,,,,,,,,,,,,,,,,,,,,,,,,,,,,,,
,60e8923aa3b47ab8b0ad9d22,001,2022-04-29_02h06.53.340,classification_task,2021.2.3,Win32,143.8228103,60e8923aa3b47ab8b0ad9d22,626b377229c10585ec392f89,626b3a1a7425e1b5276d5cd4,,,,,,,,,,,,,,,,,,,,,,,l,0,1.1943,"[""0.711"",""0.375"",""0.602"",""0.868""]","[0,1,1,1]",0,57,57,57,1,0,1,,,1,FALSE,,,,,,,,,,,,,,,,,,,,,,,,,,,,,,
,60e8923aa3b47ab8b0ad9d22,001,2022-04-29_02h06.53.340,classification_task,2021.2.3,Win32,143.8228103,60e8923aa3b47ab8b0ad9d22,626b377229c10585ec392f89,626b3a1a7425e1b5276d5cd4,,,,,,,,,,,,,,,,,,,,,,,l,1,0.7642,"[""0.120"",""0.710"",""0.543"",""0.825""]","[1,0,1,1]",0,58,58,58,1,1,1,,,1,FALSE,,,,,,,,,,,,,,,,,,,,,,,,,,,,,,
,60e8923aa3b47ab8b0ad9d22,001,2022-04-29_02h06.53.340,classification_task,2021.2.3,Win32,143.8228103,60e8923aa3b47ab8b0ad9d22,626b377229c10585ec392f89,626b3a1a7425e1b5276d5cd4,,,,,,,,,,,,,,,,,,,,,,,a,1,1.2715,"[""0.715"",""0.477"",""0.906"",""0.943""]","[0,1,1,1]",0,59,59,59,1,0,0,,,1,FALSE,,,,,,,,,,,,,,,,,,,,,,,,,,,,,,
,60e8923aa3b47ab8b0ad9d22,001,2022-04-29_02h06.53.340,classification_task,2021.2.3,Win32,143.8228103,60e8923aa3b47ab8b0ad9d22,626b377229c10585ec392f89,626b3a1a7425e1b5276d5cd4,,,,,,,,,,,,,,,,,,,,,,,a,1,0.8417,"[""0.182"",""0.477"",""0.715"",""0.943""]","[1,1,0,1]",0,60,60,60,1,0,0,,,1,FALSE,,,,,,,,,,,,,,,,,,,,,,,,,,,,,,
,60e8923aa3b47ab8b0ad9d22,001,2022-04-29_02h06.53.340,classification_task,2021.2.3,Win32,143.8228103,60e8923aa3b47ab8b0ad9d22,626b377229c10585ec392f89,626b3a1a7425e1b5276d5cd4,,,,,,,,,,,,,,,,,,,,,,,a,1,0.7224,"[""0.182"",""0.229"",""0.906"",""0.943""]","[1,0,1,1]",0,61,61,61,1,0,0,,,1,FALSE,,,,,,,,,,,,,,,,,,,,,,,,,,,,,,
,60e8923aa3b47ab8b0ad9d22,001,2022-04-29_02h06.53.340,classification_task,2021.2.3,Win32,143.8228103,60e8923aa3b47ab8b0ad9d22,626b377229c10585ec392f89,626b3a1a7425e1b5276d5cd4,,,,,,,,,,,,,,,,,,,,,,,a,0,4.4212,"[""0.724"",""0.421"",""0.543"",""0.825""]","[0,1,1,1]",0,62,62,62,1,1,1,,,1,FALSE,,,,,,,,,,,,,,,,,,,,,,,,,,,,,,
,60e8923aa3b47ab8b0ad9d22,001,2022-04-29_02h06.53.340,classification_task,2021.2.3,Win32,143.8228103,60e8923aa3b47ab8b0ad9d22,626b377229c10585ec392f89,626b3a1a7425e1b5276d5cd4,,,,,,,,,,,,,,,,,,,,,,,l,1,0.9357,"[""0.061"",""0.265"",""0.708"",""0.761""]","[1,1,0,1]",0,63,63,63,1,1,0,,,1,FALSE,,,,,,,,,,,,,,,,,,,,,,,,,,,,,,
,60e8923aa3b47ab8b0ad9d22,001,2022-04-29_02h06.53.340,classification_task,2021.2.3,Win32,143.8228103,60e8923aa3b47ab8b0ad9d22,626b377229c10585ec392f89,626b3a1a7425e1b5276d5cd4,,,,,,,,,,,,,,,,,,,,,,,,,,,,,,,,,,,,,,,0, ,,0,3.603762493,155.8273,0,2,2,2,1,2,3,,,,,,,,,,,,,,,,,
,60e8923aa3b47ab8b0ad9d22,001,2022-04-29_02h06.53.340,classification_task,2021.2.3,Win32,143.8228103,60e8923aa3b47ab8b0ad9d22,626b377229c10585ec392f89,626b3a1a7425e1b5276d5cd4,,,,,,,,,,,,,,,,,,,,,,,,,,,,,,,,,,,,,,,1,  ,,0,5.318440133,158.1055,0,2,2,2,1,2,3,,,,,,,,,,,,,,,,,
,60e8923aa3b47ab8b0ad9d22,001,2022-04-29_02h06.53.340,classification_task,2021.2.3,Win32,143.8228103,60e8923aa3b47ab8b0ad9d22,626b377229c10585ec392f89,626b3a1a7425e1b5276d5cd4,,,,,,,,,,,,,,,,,,,,,,,,,,,,,,,,,,,,,,,2,  ,,0,7.033117774,159.0364,0,2,2,2,1,2,3,,,,,,,,,,,,,,,,,
,60e8923aa3b47ab8b0ad9d22,001,2022-04-29_02h06.53.340,classification_task,2021.2.3,Win32,143.8228103,60e8923aa3b47ab8b0ad9d22,626b377229c10585ec392f89,626b3a1a7425e1b5276d5cd4,,,,,,,,,,,,,,,,,,,,,,,,,,,,,,,,,,,,,,,,,,,,,0,2,2,2,1,,3,,,,,,,,,,,,,,,,,
,60e8923aa3b47ab8b0ad9d22,001,2022-04-29_02h06.53.340,classification_task,2021.2.3,Win32,143.8228103,60e8923aa3b47ab8b0ad9d22,626b377229c10585ec392f89,626b3a1a7425e1b5276d5cd4,,,,,,,,,,,,,,,,,,,,,,,,,,,,,,,,,,,,,,,,,,,,,,,,,,,,,I believe the aid is a competent performer,,0.7,0,3,651.9689,0,0,0,0,1,0,,,,
,60e8923aa3b47ab8b0ad9d22,001,2022-04-29_02h06.53.340,classification_task,2021.2.3,Win32,143.8228103,60e8923aa3b47ab8b0ad9d22,626b377229c10585ec392f89,626b3a1a7425e1b5276d5cd4,,,,,,,,,,,,,,,,,,,,,,,,,,,,,,,,,,,,,,,,,,,,,,,,,,,,,I trust the aid,,0.7,0,3,654.091,0,0,0,0,1,0,,,,
,60e8923aa3b47ab8b0ad9d22,001,2022-04-29_02h06.53.340,classification_task,2021.2.3,Win32,143.8228103,60e8923aa3b47ab8b0ad9d22,626b377229c10585ec392f89,626b3a1a7425e1b5276d5cd4,,,,,,,,,,,,,,,,,,,,,,,,,,,,,,,,,,,,,,,,,,,,,,,,,,,,,I have confidence in the advice given by the aid,,0.7,0,4,656.676,0,0,0,0,1,0,,,,
,60e8923aa3b47ab8b0ad9d22,001,2022-04-29_02h06.53.340,classification_task,2021.2.3,Win32,143.8228103,60e8923aa3b47ab8b0ad9d22,626b377229c10585ec392f89,626b3a1a7425e1b5276d5cd4,,,,,,,,,,,,,,,,,,,,,,,,,,,,,,,,,,,,,,,,,,,,,,,,,,,,,I can depend on the aid,,0.7,0,3,659.241,0,0,0,0,1,0,,,,
,60e8923aa3b47ab8b0ad9d22,001,2022-04-29_02h06.53.340,classification_task,2021.2.3,Win32,143.8228103,60e8923aa3b47ab8b0ad9d22,626b377229c10585ec392f89,626b3a1a7425e1b5276d5cd4,,,,,,,,,,,,,,,,,,,,,,,,,,,,,,,,,,,,,,,,,,,,,,,,,,,,,I can rely on the aid to behave in consistent ways,,0.7,0,4,663.2724,0,0,0,0,1,0,,,,
,60e8923aa3b47ab8b0ad9d22,001,2022-04-29_02h06.53.340,classification_task,2021.2.3,Win32,143.8228103,60e8923aa3b47ab8b0ad9d22,626b377229c10585ec392f89,626b3a1a7425e1b5276d5cd4,,,,,,,,,,,,,,,,,,,,,,,,,,,,,,,,,,,,,,,,,,,,,,,,,,,,,I can rely on the aid to do its best every time I take its advice,,0.7,0,3,671.2681,0,0,0,0,1,0,,,,
,60e8923aa3b47ab8b0ad9d22,001,2022-04-29_02h06.53.340,classification_task,2021.2.3,Win32,143.8228103,60e8923aa3b47ab8b0ad9d22,626b377229c10585ec392f89,626b3a1a7425e1b5276d5cd4,,,,,,,,,,,,,,,,,,,,,,,,,,,,,,,,,,,,,,,,,,,,,,,,,,,,,"On trials you completed with assistance from the aid, how frequently did you think the aid was correct?",,0.7,0,70,,0,0,0,0,1,0,,,,
,60e8923aa3b47ab8b0ad9d22,001,2022-04-29_02h06.53.340,classification_task,2021.2.3,Win32,143.8228103,60e8923aa3b47ab8b0ad9d22,626b377229c10585ec392f89,626b3a1a7425e1b5276d5cd4,,,,,,,,,,,,,,,,,,,,,,,,,,,,,,,,,,,,,,,,,,,,,,,,,,,,,"On trials you completed without the aid, how frequently did you think you were correct?",,0.7,0,40,,0,0,0,0,1,0,,,,
,60e8923aa3b47ab8b0ad9d22,001,2022-04-29_02h06.53.340,classification_task,2021.2.3,Win32,143.8228103,60e8923aa3b47ab8b0ad9d22,626b377229c10585ec392f89,626b3a1a7425e1b5276d5cd4,,,,,,,,,,,,,,,,,,,,,,,,,,,,,,,,,,,,,,,,,,,,,,,,,,,,,,,,,,,0,0,0,0,1,,,,,
,60e8923aa3b47ab8b0ad9d22,001,2022-04-29_02h06.53.340,classification_task,2021.2.3,Win32,143.8228103,60e8923aa3b47ab8b0ad9d22,626b377229c10585ec392f89,626b3a1a7425e1b5276d5cd4,,,,,,,,,,,,,,,,,,,,,,,,,,,,,,,,,,,,,,,,,,,,,,,,,,,,,,,,,,,,,,,,,space,6.8571,694.146,
,60e8923aa3b47ab8b0ad9d22,001,2022-04-29_02h06.53.340,classification_task,2021.2.3,Win32,143.8228103,60e8923aa3b47ab8b0ad9d22,626b377229c10585ec392f89,626b3a1a7425e1b5276d5cd4,,,,,,,,,,,,,,,,,,,,,,,,,,,,,,,,,,,,,,,,,,,,,,,,,,,,,,,,,,,,,,,,,,,,"Mozilla/5.0 (Windows NT 10.0; Win64; x64) AppleWebKit/537.36 (KHTML, like Gecko) Chrome/100.0.4896.127 Safari/537.36"
