usingWebGL,participant,session,date,expName,psychopyVersion,OS,frameRate,PROLIFIC_PID,STUDY_ID,SESSION_ID,signatures_friend,signatures_foe,band_ranges_top,band_ranges_bottom,formitemText,formtype,formundefined,formitemWidth,formindex,formresponse,formrt,key_resp_2.keys,key_resp_2.rt,tute_resp.keys,tute_resp.rt,tutorial.thisRepN,tutorial.thisTrialN,tutorial.thisN,tutorial.thisIndex,tutorial.ran,key_resp_4.keys,key_resp_4.rt,key_resp.keys,key_resp.corr,key_resp.rt,lines_presented,is_signal_presented,trials.thisRepN,trials.thisTrialN,trials.thisN,trials.thisIndex,trials.ran,vessel,active_band,lines,is_signal,supported_pos,catch_trial,debrief_formindex,debrief_formitemText,debrief_formtype,debrief_formitemWidth,debrief_formresponse,debrief_formrt,phases.thisRepN,phases.thisTrialN,phases.thisN,phases.thisIndex,phases.ran,phases.order,phase,key_resp_3.keys,trustitemText,trusttype,trustitemWidth,trustindex,trustresponse,trustrt,support_status.thisRepN,support_status.thisTrialN,support_status.thisN,support_status.thisIndex,support_status.ran,support_status.order,key_resp_5.keys,key_resp_5.rt,globalClockTime,userAgent
TRUE,60eb4a54a50a6ec6af2b7aff,001,2022-04-29_02h01.35.909,classification_task,2021.2.3,Win32,143.9677512,60eb4a54a50a6ec6af2b7aff,626b377229c10585ec392f89,626b38d87f6e04ec512c7dcd,,,,,,,,,,,,,,,,,,,,,,,,,,,,,,,,,,,,,,,,,,,,,,,,,,,,,,,,,,,,,,,,,,,,
,60eb4a54a50a6ec6af2b7aff,001,2022-04-29_02h01.35.909,classification_task,2021.2.3,Win32,143.9677512,60eb4a54a50a6ec6af2b7aff,626b377229c10585ec392f89,626b38d87f6e04ec512c7dcd,"[[""0.325"",""0.511"",""0.893"",""0.963""],[""0.224"",""0.376"",""0.663"",""0.844""]]","[[""0.123"",""0.413"",""0.571"",""0.776""],[""0.061"",""0.282"",""0.622"",""0.727""]]","[1,10]","[100,1000]",Video game experience,,,0.7,0,,,,,,,,,,,,,,,,,,,,,,,,,,,,,,,,,,,,,,,,,,,,,,,,,,,,,,,,,,,
,60eb4a54a50a6ec6af2b7aff,001,2022-04-29_02h01.35.909,classification_task,2021.2.3,Win32,143.9677512,60eb4a54a50a6ec6af2b7aff,626b377229c10585ec392f89,626b38d87f6e04ec512c7dcd,,,,,Approximately how many hours did you spend playing video games in the last week?,,,0.7,0,64,,,,,,,,,,,,,,,,,,,,,,,,,,,,,,,,,,,,,,,,,,,,,,,,,,,,,,,,,,
,60eb4a54a50a6ec6af2b7aff,001,2022-04-29_02h01.35.909,classification_task,2021.2.3,Win32,143.9677512,60eb4a54a50a6ec6af2b7aff,626b377229c10585ec392f89,626b38d87f6e04ec512c7dcd,,,,,"Which game did you play the most this year? (Enter ""None"" if you didn't play any)",,,0.7,0,LOL,,,,,,,,,,,,,,,,,,,,,,,,,,,,,,,,,,,,,,,,,,,,,,,,,,,,,,,,,,
,60eb4a54a50a6ec6af2b7aff,001,2022-04-29_02h01.35.909,classification_task,2021.2.3,Win32,143.9677512,60eb4a54a50a6ec6af2b7aff,626b377229c10585ec392f89,626b38d87f6e04ec512c7dcd,,,,,Visual perception,,,0.7,0,,,,,,,,,,,,,,,,,,,,,,,,,,,,,,,,,,,,,,,,,,,,,,,,,,,,,,,,,,,
,60eb4a54a50a6ec6af2b7aff,001,2022-04-29_02h01.35.909,classification_task,2021.2.3,Win32,143.9677512,60eb4a54a50a6ec6af2b7aff,626b377229c10585ec392f89,626b38d87f6e04ec512c7dcd,,,,,Do you have any form of color blindness?,,,0.7,0,No,22.701,,,,,,,,,,,,,,,,,,,,,,,,,,,,,,,,,,,,,,,,,,,,,,,,,,,,,,,,,
,60eb4a54a50a6ec6af2b7aff,001,2022-04-29_02h01.35.909,classification_task,2021.2.3,Win32,143.9677512,60eb4a54a50a6ec6af2b7aff,626b377229c10585ec392f89,626b38d87f6e04ec512c7dcd,,,,,Do you use software to change the colour temperature of your screen (e.g. f.lux)?,,,0.7,0,No,24.887,,,,,,,,,,,,,,,,,,,,,,,,,,,,,,,,,,,,,,,,,,,,,,,,,,,,,,,,,
,60eb4a54a50a6ec6af2b7aff,001,2022-04-29_02h01.35.909,classification_task,2021.2.3,Win32,143.9677512,60eb4a54a50a6ec6af2b7aff,626b377229c10585ec392f89,626b38d87f6e04ec512c7dcd,,,,,,,,,,,,space,2.985,space,0.5552,0,0,0,0,1,,,,,,,,,,,,,,,,,,,,,,,,,,,,,,,,,,,,,,,,,,,,,,,,
,60eb4a54a50a6ec6af2b7aff,001,2022-04-29_02h01.35.909,classification_task,2021.2.3,Win32,143.9677512,60eb4a54a50a6ec6af2b7aff,626b377229c10585ec392f89,626b38d87f6e04ec512c7dcd,,,,,,,,,,,,,,space,0.7144,1,0,1,0,1,,,,,,,,,,,,,,,,,,,,,,,,,,,,,,,,,,,,,,,,,,,,,,,,
,60eb4a54a50a6ec6af2b7aff,001,2022-04-29_02h01.35.909,classification_task,2021.2.3,Win32,143.9677512,60eb4a54a50a6ec6af2b7aff,626b377229c10585ec392f89,626b38d87f6e04ec512c7dcd,,,,,,,,,,,,,,space,0.5408,2,0,2,0,1,,,,,,,,,,,,,,,,,,,,,,,,,,,,,,,,,,,,,,,,,,,,,,,,
,60eb4a54a50a6ec6af2b7aff,001,2022-04-29_02h01.35.909,classification_task,2021.2.3,Win32,143.9677512,60eb4a54a50a6ec6af2b7aff,626b377229c10585ec392f89,626b38d87f6e04ec512c7dcd,,,,,,,,,,,,,,space,0.3329,3,0,3,0,1,,,,,,,,,,,,,,,,,,,,,,,,,,,,,,,,,,,,,,,,,,,,,,,,
,60eb4a54a50a6ec6af2b7aff,001,2022-04-29_02h01.35.909,classification_task,2021.2.3,Win32,143.9677512,60eb4a54a50a6ec6af2b7aff,626b377229c10585ec392f89,626b38d87f6e04ec512c7dcd,,,,,,,,,,,,,,space,0.3965,4,0,4,0,1,,,,,,,,,,,,,,,,,,,,,,,,,,,,,,,,,,,,,,,,,,,,,,,,
,60eb4a54a50a6ec6af2b7aff,001,2022-04-29_02h01.35.909,classification_task,2021.2.3,Win32,143.9677512,60eb4a54a50a6ec6af2b7aff,626b377229c10585ec392f89,626b38d87f6e04ec512c7dcd,,,,,,,,,,,,,,,,,,,,,space,0.6548,a,0,1.8466,"[""0.183"",""0.413"",""0.571"",""0.776""]","[0,1,1,1]",0,0,0,0,1,1,0,,,1,FALSE,,,,,,,,,,,,,,,,,,,,,,,,,,,,,,
,60eb4a54a50a6ec6af2b7aff,001,2022-04-29_02h01.35.909,classification_task,2021.2.3,Win32,143.9677512,60eb4a54a50a6ec6af2b7aff,626b377229c10585ec392f89,626b38d87f6e04ec512c7dcd,,,,,,,,,,,,,,,,,,,,,,,l,0,1.6197,"[""0.166"",""0.511"",""0.893"",""0.963""]","[0,1,1,1]",0,1,1,1,1,0,0,,,1,FALSE,,,,,,,,,,,,,,,,,,,,,,,,,,,,,,
,60eb4a54a50a6ec6af2b7aff,001,2022-04-29_02h01.35.909,classification_task,2021.2.3,Win32,143.9677512,60eb4a54a50a6ec6af2b7aff,626b377229c10585ec392f89,626b38d87f6e04ec512c7dcd,,,,,,,,,,,,,,,,,,,,,,,l,1,0.318,"[""0.123"",""0.413"",""0.927"",""0.776""]","[1,1,0,1]",0,2,2,2,1,1,0,,,1,FALSE,,,,,,,,,,,,,,,,,,,,,,,,,,,,,,
,60eb4a54a50a6ec6af2b7aff,001,2022-04-29_02h01.35.909,classification_task,2021.2.3,Win32,143.9677512,60eb4a54a50a6ec6af2b7aff,626b377229c10585ec392f89,626b38d87f6e04ec512c7dcd,,,,,,,,,,,,,,,,,,,,,,,a,1,2.3067,"[""0.325"",""0.511"",""0.893"",""0.171""]","[1,1,1,0]",0,3,3,3,1,0,0,,,1,FALSE,,,,,,,,,,,,,,,,,,,,,,,,,,,,,,
,60eb4a54a50a6ec6af2b7aff,001,2022-04-29_02h01.35.909,classification_task,2021.2.3,Win32,143.9677512,60eb4a54a50a6ec6af2b7aff,626b377229c10585ec392f89,626b38d87f6e04ec512c7dcd,,,,,,,,,,,,,,,,,,,,,,,l,1,0.4279,"[""0.061"",""0.282"",""0.622"",""0.158""]","[1,1,1,0]",0,4,4,4,1,1,1,,,1,FALSE,,,,,,,,,,,,,,,,,,,,,,,,,,,,,,
,60eb4a54a50a6ec6af2b7aff,001,2022-04-29_02h01.35.909,classification_task,2021.2.3,Win32,143.9677512,60eb4a54a50a6ec6af2b7aff,626b377229c10585ec392f89,626b38d87f6e04ec512c7dcd,,,,,,,,,,,,,,,,,,,,,,,a,1,1.2919,"[""0.224"",""0.927"",""0.663"",""0.844""]","[1,0,1,1]",0,5,5,5,1,0,1,,,1,FALSE,,,,,,,,,,,,,,,,,,,,,,,,,,,,,,
,60eb4a54a50a6ec6af2b7aff,001,2022-04-29_02h01.35.909,classification_task,2021.2.3,Win32,143.9677512,60eb4a54a50a6ec6af2b7aff,626b377229c10585ec392f89,626b38d87f6e04ec512c7dcd,,,,,,,,,,,,,,,,,,,,,,,l,0,0.3536,"[""0.325"",""0.511"",""0.183"",""0.963""]","[1,1,0,1]",0,6,6,6,1,0,0,,,1,FALSE,,,,,,,,,,,,,,,,,,,,,,,,,,,,,,
,60eb4a54a50a6ec6af2b7aff,001,2022-04-29_02h01.35.909,classification_task,2021.2.3,Win32,143.9677512,60eb4a54a50a6ec6af2b7aff,626b377229c10585ec392f89,626b38d87f6e04ec512c7dcd,,,,,,,,,,,,,,,,,,,,,,,a,0,0.3263,"[""0.123"",""0.176"",""0.571"",""0.776""]","[1,0,1,1]",0,7,7,7,1,1,0,,,1,FALSE,,,,,,,,,,,,,,,,,,,,,,,,,,,,,,
,60eb4a54a50a6ec6af2b7aff,001,2022-04-29_02h01.35.909,classification_task,2021.2.3,Win32,143.9677512,60eb4a54a50a6ec6af2b7aff,626b377229c10585ec392f89,626b38d87f6e04ec512c7dcd,,,,,,,,,,,,,,,,,,,,,,,l,0,0.2645,"[""0.927"",""0.376"",""0.663"",""0.844""]","[0,1,1,1]",0,8,8,8,1,0,1,,,1,FALSE,,,,,,,,,,,,,,,,,,,,,,,,,,,,,,
,60eb4a54a50a6ec6af2b7aff,001,2022-04-29_02h01.35.909,classification_task,2021.2.3,Win32,143.9677512,60eb4a54a50a6ec6af2b7aff,626b377229c10585ec392f89,626b38d87f6e04ec512c7dcd,,,,,,,,,,,,,,,,,,,,,,,l,0,1.5743,"[""0.325"",""0.448"",""0.893"",""0.963""]","[1,0,1,1]",0,9,9,9,1,0,0,,,1,FALSE,,,,,,,,,,,,,,,,,,,,,,,,,,,,,,
,60eb4a54a50a6ec6af2b7aff,001,2022-04-29_02h01.35.909,classification_task,2021.2.3,Win32,143.9677512,60eb4a54a50a6ec6af2b7aff,626b377229c10585ec392f89,626b38d87f6e04ec512c7dcd,,,,,,,,,,,,,,,,,,,,,,,a,1,1.145,"[""0.224"",""0.376"",""0.183"",""0.844""]","[1,1,0,1]",0,10,10,10,1,0,1,,,1,FALSE,,,,,,,,,,,,,,,,,,,,,,,,,,,,,,
,60eb4a54a50a6ec6af2b7aff,001,2022-04-29_02h01.35.909,classification_task,2021.2.3,Win32,143.9677512,60eb4a54a50a6ec6af2b7aff,626b377229c10585ec392f89,626b38d87f6e04ec512c7dcd,,,,,,,,,,,,,,,,,,,,,,,a,0,0.3465,"[""0.123"",""0.413"",""0.571"",""0.157""]","[1,1,1,0]",0,11,11,11,1,1,0,,,1,FALSE,,,,,,,,,,,,,,,,,,,,,,,,,,,,,,
,60eb4a54a50a6ec6af2b7aff,001,2022-04-29_02h01.35.909,classification_task,2021.2.3,Win32,143.9677512,60eb4a54a50a6ec6af2b7aff,626b377229c10585ec392f89,626b38d87f6e04ec512c7dcd,,,,,,,,,,,,,,,,,,,,,,,a,0,0.1664,"[""0.448"",""0.282"",""0.622"",""0.727""]","[0,1,1,1]",0,12,12,12,1,1,1,,,1,FALSE,,,,,,,,,,,,,,,,,,,,,,,,,,,,,,
,60eb4a54a50a6ec6af2b7aff,001,2022-04-29_02h01.35.909,classification_task,2021.2.3,Win32,143.9677512,60eb4a54a50a6ec6af2b7aff,626b377229c10585ec392f89,626b38d87f6e04ec512c7dcd,,,,,,,,,,,,,,,,,,,,,,,a,1,0.0911,"[""0.224"",""0.376"",""0.663"",""0.453""]","[1,1,1,0]",0,13,13,13,1,0,1,,,1,FALSE,,,,,,,,,,,,,,,,,,,,,,,,,,,,,,
,60eb4a54a50a6ec6af2b7aff,001,2022-04-29_02h01.35.909,classification_task,2021.2.3,Win32,143.9677512,60eb4a54a50a6ec6af2b7aff,626b377229c10585ec392f89,626b38d87f6e04ec512c7dcd,,,,,,,,,,,,,,,,,,,,,,,l,1,0.0709,"[""0.061"",""0.171"",""0.622"",""0.727""]","[1,0,1,1]",0,14,14,14,1,1,1,,,1,FALSE,,,,,,,,,,,,,,,,,,,,,,,,,,,,,,
,60eb4a54a50a6ec6af2b7aff,001,2022-04-29_02h01.35.909,classification_task,2021.2.3,Win32,143.9677512,60eb4a54a50a6ec6af2b7aff,626b377229c10585ec392f89,626b38d87f6e04ec512c7dcd,,,,,,,,,,,,,,,,,,,,,,,a,0,0.042,"[""0.061"",""0.282"",""0.465"",""0.727""]","[1,1,0,1]",0,15,15,15,1,1,1,,,1,FALSE,,,,,,,,,,,,,,,,,,,,,,,,,,,,,,
,60eb4a54a50a6ec6af2b7aff,001,2022-04-29_02h01.35.909,classification_task,2021.2.3,Win32,143.9677512,60eb4a54a50a6ec6af2b7aff,626b377229c10585ec392f89,626b38d87f6e04ec512c7dcd,,,,,,,,,,,,,,,,,,,,,,,a,0,0.0634,"[""0.123"",""0.413"",""0.464"",""0.776""]","[1,1,0,1]",0,16,16,16,1,1,0,,,1,FALSE,,,,,,,,,,,,,,,,,,,,,,,,,,,,,,
,60eb4a54a50a6ec6af2b7aff,001,2022-04-29_02h01.35.909,classification_task,2021.2.3,Win32,143.9677512,60eb4a54a50a6ec6af2b7aff,626b377229c10585ec392f89,626b38d87f6e04ec512c7dcd,,,,,,,,,,,,,,,,,,,,,,,a,0,0.0299,"[""0.061"",""0.282"",""0.465"",""0.727""]","[1,1,0,1]",0,17,17,17,1,1,1,,,1,FALSE,,,,,,,,,,,,,,,,,,,,,,,,,,,,,,
,60eb4a54a50a6ec6af2b7aff,001,2022-04-29_02h01.35.909,classification_task,2021.2.3,Win32,143.9677512,60eb4a54a50a6ec6af2b7aff,626b377229c10585ec392f89,626b38d87f6e04ec512c7dcd,,,,,,,,,,,,,,,,,,,,,,,a,1,0.5746,"[""0.927"",""0.376"",""0.663"",""0.844""]","[0,1,1,1]",0,18,18,18,1,0,1,,,1,FALSE,,,,,,,,,,,,,,,,,,,,,,,,,,,,,,
,60eb4a54a50a6ec6af2b7aff,001,2022-04-29_02h01.35.909,classification_task,2021.2.3,Win32,143.9677512,60eb4a54a50a6ec6af2b7aff,626b377229c10585ec392f89,626b38d87f6e04ec512c7dcd,,,,,,,,,,,,,,,,,,,,,,,a,0,0.1729,"[""0.123"",""0.176"",""0.571"",""0.776""]","[1,0,1,1]",0,19,19,19,1,1,0,,,1,FALSE,,,,,,,,,,,,,,,,,,,,,,,,,,,,,,
,60eb4a54a50a6ec6af2b7aff,001,2022-04-29_02h01.35.909,classification_task,2021.2.3,Win32,143.9677512,60eb4a54a50a6ec6af2b7aff,626b377229c10585ec392f89,626b38d87f6e04ec512c7dcd,,,,,,,,,,,,,,,,,,,,,,,a,0,0.0557,"[""0.183"",""0.282"",""0.622"",""0.727""]","[0,1,1,1]",0,20,20,20,1,1,1,,,1,FALSE,,,,,,,,,,,,,,,,,,,,,,,,,,,,,,
,60eb4a54a50a6ec6af2b7aff,001,2022-04-29_02h01.35.909,classification_task,2021.2.3,Win32,143.9677512,60eb4a54a50a6ec6af2b7aff,626b377229c10585ec392f89,626b38d87f6e04ec512c7dcd,,,,,,,,,,,,,,,,,,,,,,,l,0,0.1867,"[""0.224"",""0.376"",""0.663"",""0.157""]","[1,1,1,0]",0,21,21,21,1,0,1,,,1,FALSE,,,,,,,,,,,,,,,,,,,,,,,,,,,,,,
,60eb4a54a50a6ec6af2b7aff,001,2022-04-29_02h01.35.909,classification_task,2021.2.3,Win32,143.9677512,60eb4a54a50a6ec6af2b7aff,626b377229c10585ec392f89,626b38d87f6e04ec512c7dcd,,,,,,,,,,,,,,,,,,,,,,,a,0,0.6809,"[""0.061"",""0.183"",""0.622"",""0.727""]","[1,0,1,1]",0,22,22,22,1,1,1,,,1,FALSE,,,,,,,,,,,,,,,,,,,,,,,,,,,,,,
,60eb4a54a50a6ec6af2b7aff,001,2022-04-29_02h01.35.909,classification_task,2021.2.3,Win32,143.9677512,60eb4a54a50a6ec6af2b7aff,626b377229c10585ec392f89,626b38d87f6e04ec512c7dcd,,,,,,,,,,,,,,,,,,,,,,,a,0,0.1315,"[""0.176"",""0.413"",""0.571"",""0.776""]","[0,1,1,1]",0,23,23,23,1,1,0,,,1,FALSE,,,,,,,,,,,,,,,,,,,,,,,,,,,,,,
,60eb4a54a50a6ec6af2b7aff,001,2022-04-29_02h01.35.909,classification_task,2021.2.3,Win32,143.9677512,60eb4a54a50a6ec6af2b7aff,626b377229c10585ec392f89,626b38d87f6e04ec512c7dcd,,,,,,,,,,,,,,,,,,,,,,,a,1,0.0626,"[""0.325"",""0.453"",""0.893"",""0.963""]","[1,0,1,1]",0,24,24,24,1,0,0,,,1,FALSE,,,,,,,,,,,,,,,,,,,,,,,,,,,,,,
,60eb4a54a50a6ec6af2b7aff,001,2022-04-29_02h01.35.909,classification_task,2021.2.3,Win32,143.9677512,60eb4a54a50a6ec6af2b7aff,626b377229c10585ec392f89,626b38d87f6e04ec512c7dcd,,,,,,,,,,,,,,,,,,,,,,,a,0,0.1322,"[""0.123"",""0.413"",""0.571"",""0.183""]","[1,1,1,0]",0,25,25,25,1,1,0,,,1,FALSE,,,,,,,,,,,,,,,,,,,,,,,,,,,,,,
,60eb4a54a50a6ec6af2b7aff,001,2022-04-29_02h01.35.909,classification_task,2021.2.3,Win32,143.9677512,60eb4a54a50a6ec6af2b7aff,626b377229c10585ec392f89,626b38d87f6e04ec512c7dcd,,,,,,,,,,,,,,,,,,,,,,,a,1,0.0704,"[""0.465"",""0.511"",""0.893"",""0.963""]","[0,1,1,1]",0,26,26,26,1,0,0,,,1,FALSE,,,,,,,,,,,,,,,,,,,,,,,,,,,,,,
,60eb4a54a50a6ec6af2b7aff,001,2022-04-29_02h01.35.909,classification_task,2021.2.3,Win32,143.9677512,60eb4a54a50a6ec6af2b7aff,626b377229c10585ec392f89,626b38d87f6e04ec512c7dcd,,,,,,,,,,,,,,,,,,,,,,,a,1,0.0486,"[""0.325"",""0.511"",""0.448"",""0.963""]","[1,1,0,1]",0,27,27,27,1,0,0,,,1,FALSE,,,,,,,,,,,,,,,,,,,,,,,,,,,,,,
,60eb4a54a50a6ec6af2b7aff,001,2022-04-29_02h01.35.909,classification_task,2021.2.3,Win32,143.9677512,60eb4a54a50a6ec6af2b7aff,626b377229c10585ec392f89,626b38d87f6e04ec512c7dcd,,,,,,,,,,,,,,,,,,,,,,,a,1,0.0694,"[""0.325"",""0.511"",""0.893"",""0.927""]","[1,1,1,0]",0,28,28,28,1,0,0,,,1,FALSE,,,,,,,,,,,,,,,,,,,,,,,,,,,,,,
,60eb4a54a50a6ec6af2b7aff,001,2022-04-29_02h01.35.909,classification_task,2021.2.3,Win32,143.9677512,60eb4a54a50a6ec6af2b7aff,626b377229c10585ec392f89,626b38d87f6e04ec512c7dcd,,,,,,,,,,,,,,,,,,,,,,,a,1,0.8472,"[""0.224"",""0.927"",""0.663"",""0.844""]","[1,0,1,1]",0,29,29,29,1,0,1,,,1,FALSE,,,,,,,,,,,,,,,,,,,,,,,,,,,,,,
,60eb4a54a50a6ec6af2b7aff,001,2022-04-29_02h01.35.909,classification_task,2021.2.3,Win32,143.9677512,60eb4a54a50a6ec6af2b7aff,626b377229c10585ec392f89,626b38d87f6e04ec512c7dcd,,,,,,,,,,,,,,,,,,,,,,,a,1,0.0751,"[""0.224"",""0.376"",""0.183"",""0.844""]","[1,1,0,1]",0,30,30,30,1,0,1,,,1,FALSE,,,,,,,,,,,,,,,,,,,,,,,,,,,,,,
,60eb4a54a50a6ec6af2b7aff,001,2022-04-29_02h01.35.909,classification_task,2021.2.3,Win32,143.9677512,60eb4a54a50a6ec6af2b7aff,626b377229c10585ec392f89,626b38d87f6e04ec512c7dcd,,,,,,,,,,,,,,,,,,,,,,,a,0,0.0616,"[""0.061"",""0.282"",""0.622"",""0.183""]","[1,1,1,0]",0,31,31,31,1,1,1,,,1,FALSE,,,,,,,,,,,,,,,,,,,,,,,,,,,,,,
,60eb4a54a50a6ec6af2b7aff,001,2022-04-29_02h01.35.909,classification_task,2021.2.3,Win32,143.9677512,60eb4a54a50a6ec6af2b7aff,626b377229c10585ec392f89,626b38d87f6e04ec512c7dcd,,,,,,,,,,,,,,,,,,,,,,,a,1,0.0985,"[""0.171"",""0.511"",""0.893"",""0.963""]","[0,1,1,1]",0,32,32,32,1,0,0,,,1,FALSE,,,,,,,,,,,,,,,,,,,,,,,,,,,,,,
,60eb4a54a50a6ec6af2b7aff,001,2022-04-29_02h01.35.909,classification_task,2021.2.3,Win32,143.9677512,60eb4a54a50a6ec6af2b7aff,626b377229c10585ec392f89,626b38d87f6e04ec512c7dcd,,,,,,,,,,,,,,,,,,,,,,,a,0,0.1251,"[""0.061"",""0.282"",""0.622"",""0.176""]","[1,1,1,0]",0,33,33,33,1,1,1,,,1,FALSE,,,,,,,,,,,,,,,,,,,,,,,,,,,,,,
,60eb4a54a50a6ec6af2b7aff,001,2022-04-29_02h01.35.909,classification_task,2021.2.3,Win32,143.9677512,60eb4a54a50a6ec6af2b7aff,626b377229c10585ec392f89,626b38d87f6e04ec512c7dcd,,,,,,,,,,,,,,,,,,,,,,,a,1,0.1321,"[""0.224"",""0.376"",""0.663"",""0.448""]","[1,1,1,0]",0,34,34,34,1,0,1,,,1,FALSE,,,,,,,,,,,,,,,,,,,,,,,,,,,,,,
,60eb4a54a50a6ec6af2b7aff,001,2022-04-29_02h01.35.909,classification_task,2021.2.3,Win32,143.9677512,60eb4a54a50a6ec6af2b7aff,626b377229c10585ec392f89,626b38d87f6e04ec512c7dcd,,,,,,,,,,,,,,,,,,,,,,,a,1,0.1876,"[""0.325"",""0.511"",""0.464"",""0.963""]","[1,1,0,1]",0,35,35,35,1,0,0,,,1,FALSE,,,,,,,,,,,,,,,,,,,,,,,,,,,,,,
,60eb4a54a50a6ec6af2b7aff,001,2022-04-29_02h01.35.909,classification_task,2021.2.3,Win32,143.9677512,60eb4a54a50a6ec6af2b7aff,626b377229c10585ec392f89,626b38d87f6e04ec512c7dcd,,,,,,,,,,,,,,,,,,,,,,,a,1,0.1236,"[""0.224"",""0.183"",""0.663"",""0.844""]","[1,0,1,1]",0,36,36,36,1,0,1,,,1,FALSE,,,,,,,,,,,,,,,,,,,,,,,,,,,,,,
,60eb4a54a50a6ec6af2b7aff,001,2022-04-29_02h01.35.909,classification_task,2021.2.3,Win32,143.9677512,60eb4a54a50a6ec6af2b7aff,626b377229c10585ec392f89,626b38d87f6e04ec512c7dcd,,,,,,,,,,,,,,,,,,,,,,,a,0,0.1945,"[""0.448"",""0.413"",""0.571"",""0.776""]","[0,1,1,1]",0,37,37,37,1,1,0,,,1,FALSE,,,,,,,,,,,,,,,,,,,,,,,,,,,,,,
,60eb4a54a50a6ec6af2b7aff,001,2022-04-29_02h01.35.909,classification_task,2021.2.3,Win32,143.9677512,60eb4a54a50a6ec6af2b7aff,626b377229c10585ec392f89,626b38d87f6e04ec512c7dcd,,,,,,,,,,,,,,,,,,,,,,,a,1,0.1469,"[""0.325"",""0.927"",""0.893"",""0.963""]","[1,0,1,1]",0,38,38,38,1,0,0,,,1,FALSE,,,,,,,,,,,,,,,,,,,,,,,,,,,,,,
,60eb4a54a50a6ec6af2b7aff,001,2022-04-29_02h01.35.909,classification_task,2021.2.3,Win32,143.9677512,60eb4a54a50a6ec6af2b7aff,626b377229c10585ec392f89,626b38d87f6e04ec512c7dcd,,,,,,,,,,,,,,,,,,,,,,,a,0,0.1611,"[""0.183"",""0.282"",""0.622"",""0.727""]","[0,1,1,1]",0,39,39,39,1,1,1,,,1,FALSE,,,,,,,,,,,,,,,,,,,,,,,,,,,,,,
,60eb4a54a50a6ec6af2b7aff,001,2022-04-29_02h01.35.909,classification_task,2021.2.3,Win32,143.9677512,60eb4a54a50a6ec6af2b7aff,626b377229c10585ec392f89,626b38d87f6e04ec512c7dcd,,,,,,,,,,,,,,,,,,,,,,,a,0,0.1962,"[""0.123"",""0.413"",""0.168"",""0.776""]","[1,1,0,1]",0,40,40,40,1,1,0,,,1,FALSE,,,,,,,,,,,,,,,,,,,,,,,,,,,,,,
,60eb4a54a50a6ec6af2b7aff,001,2022-04-29_02h01.35.909,classification_task,2021.2.3,Win32,143.9677512,60eb4a54a50a6ec6af2b7aff,626b377229c10585ec392f89,626b38d87f6e04ec512c7dcd,,,,,,,,,,,,,,,,,,,,,,,a,0,0.1469,"[""0.123"",""0.176"",""0.571"",""0.776""]","[1,0,1,1]",0,41,41,41,1,1,0,,,1,FALSE,,,,,,,,,,,,,,,,,,,,,,,,,,,,,,
,60eb4a54a50a6ec6af2b7aff,001,2022-04-29_02h01.35.909,classification_task,2021.2.3,Win32,143.9677512,60eb4a54a50a6ec6af2b7aff,626b377229c10585ec392f89,626b38d87f6e04ec512c7dcd,,,,,,,,,,,,,,,,,,,,,,,a,0,0.1031,"[""0.061"",""0.176"",""0.622"",""0.727""]","[1,0,1,1]",0,42,42,42,1,1,1,,,1,FALSE,,,,,,,,,,,,,,,,,,,,,,,,,,,,,,
,60eb4a54a50a6ec6af2b7aff,001,2022-04-29_02h01.35.909,classification_task,2021.2.3,Win32,143.9677512,60eb4a54a50a6ec6af2b7aff,626b377229c10585ec392f89,626b38d87f6e04ec512c7dcd,,,,,,,,,,,,,,,,,,,,,,,a,1,0.306,"[""0.168"",""0.376"",""0.663"",""0.844""]","[0,1,1,1]",0,43,43,43,1,0,1,,,1,FALSE,,,,,,,,,,,,,,,,,,,,,,,,,,,,,,
,60eb4a54a50a6ec6af2b7aff,001,2022-04-29_02h01.35.909,classification_task,2021.2.3,Win32,143.9677512,60eb4a54a50a6ec6af2b7aff,626b377229c10585ec392f89,626b38d87f6e04ec512c7dcd,,,,,,,,,,,,,,,,,,,,,,,a,0,0.1325,"[""0.061"",""0.282"",""0.448"",""0.727""]","[1,1,0,1]",0,44,44,44,1,1,1,,,1,FALSE,,,,,,,,,,,,,,,,,,,,,,,,,,,,,,
,60eb4a54a50a6ec6af2b7aff,001,2022-04-29_02h01.35.909,classification_task,2021.2.3,Win32,143.9677512,60eb4a54a50a6ec6af2b7aff,626b377229c10585ec392f89,626b38d87f6e04ec512c7dcd,,,,,,,,,,,,,,,,,,,,,,,a,0,0.0679,"[""0.123"",""0.413"",""0.571"",""0.453""]","[1,1,1,0]",0,45,45,45,1,1,0,,,1,FALSE,,,,,,,,,,,,,,,,,,,,,,,,,,,,,,
,60eb4a54a50a6ec6af2b7aff,001,2022-04-29_02h01.35.909,classification_task,2021.2.3,Win32,143.9677512,60eb4a54a50a6ec6af2b7aff,626b377229c10585ec392f89,626b38d87f6e04ec512c7dcd,,,,,,,,,,,,,,,,,,,,,,,a,1,0.2637,"[""0.325"",""0.511"",""0.893"",""0.176""]","[1,1,1,0]",0,46,46,46,1,0,0,,,1,FALSE,,,,,,,,,,,,,,,,,,,,,,,,,,,,,,
,60eb4a54a50a6ec6af2b7aff,001,2022-04-29_02h01.35.909,classification_task,2021.2.3,Win32,143.9677512,60eb4a54a50a6ec6af2b7aff,626b377229c10585ec392f89,626b38d87f6e04ec512c7dcd,,,,,,,,,,,,,,,,,,,,,,,a,1,0.1873,"[""0.224"",""0.376"",""0.176"",""0.844""]","[1,1,0,1]",0,47,47,47,1,0,1,,,1,FALSE,,,,,,,,,,,,,,,,,,,,,,,,,,,,,,
,60eb4a54a50a6ec6af2b7aff,001,2022-04-29_02h01.35.909,classification_task,2021.2.3,Win32,143.9677512,60eb4a54a50a6ec6af2b7aff,626b377229c10585ec392f89,626b38d87f6e04ec512c7dcd,,,,,,,,,,,,,,,,,,,,,,,a,0,0.0905,"[""0.183"",""0.282"",""0.622"",""0.727""]","[0,1,1,1]",0,48,48,48,1,1,1,,,1,FALSE,,,,,,,,,,,,,,,,,,,,,,,,,,,,,,
,60eb4a54a50a6ec6af2b7aff,001,2022-04-29_02h01.35.909,classification_task,2021.2.3,Win32,143.9677512,60eb4a54a50a6ec6af2b7aff,626b377229c10585ec392f89,626b38d87f6e04ec512c7dcd,,,,,,,,,,,,,,,,,,,,,,,a,1,0.0823,"[""0.224"",""0.171"",""0.663"",""0.844""]","[1,0,1,1]",0,49,49,49,1,0,1,,,1,FALSE,,,,,,,,,,,,,,,,,,,,,,,,,,,,,,
,60eb4a54a50a6ec6af2b7aff,001,2022-04-29_02h01.35.909,classification_task,2021.2.3,Win32,143.9677512,60eb4a54a50a6ec6af2b7aff,626b377229c10585ec392f89,626b38d87f6e04ec512c7dcd,,,,,,,,,,,,,,,,,,,,,,,a,0,0.1044,"[""0.123"",""0.413"",""0.157"",""0.776""]","[1,1,0,1]",0,50,50,50,1,1,0,,,1,FALSE,,,,,,,,,,,,,,,,,,,,,,,,,,,,,,
,60eb4a54a50a6ec6af2b7aff,001,2022-04-29_02h01.35.909,classification_task,2021.2.3,Win32,143.9677512,60eb4a54a50a6ec6af2b7aff,626b377229c10585ec392f89,626b38d87f6e04ec512c7dcd,,,,,,,,,,,,,,,,,,,,,,,a,0,0.0689,"[""0.465"",""0.413"",""0.571"",""0.776""]","[0,1,1,1]",0,51,51,51,1,1,0,,,1,FALSE,,,,,,,,,,,,,,,,,,,,,,,,,,,,,,
,60eb4a54a50a6ec6af2b7aff,001,2022-04-29_02h01.35.909,classification_task,2021.2.3,Win32,143.9677512,60eb4a54a50a6ec6af2b7aff,626b377229c10585ec392f89,626b38d87f6e04ec512c7dcd,,,,,,,,,,,,,,,,,,,,,,,a,1,0.056,"[""0.224"",""0.376"",""0.183"",""0.844""]","[1,1,0,1]",0,52,52,52,1,0,1,,,1,FALSE,,,,,,,,,,,,,,,,,,,,,,,,,,,,,,
,60eb4a54a50a6ec6af2b7aff,001,2022-04-29_02h01.35.909,classification_task,2021.2.3,Win32,143.9677512,60eb4a54a50a6ec6af2b7aff,626b377229c10585ec392f89,626b38d87f6e04ec512c7dcd,,,,,,,,,,,,,,,,,,,,,,,a,1,0.1469,"[""0.224"",""0.376"",""0.663"",""0.166""]","[1,1,1,0]",0,53,53,53,1,0,1,,,1,FALSE,,,,,,,,,,,,,,,,,,,,,,,,,,,,,,
,60eb4a54a50a6ec6af2b7aff,001,2022-04-29_02h01.35.909,classification_task,2021.2.3,Win32,143.9677512,60eb4a54a50a6ec6af2b7aff,626b377229c10585ec392f89,626b38d87f6e04ec512c7dcd,,,,,,,,,,,,,,,,,,,,,,,a,0,0.1314,"[""0.123"",""0.413"",""0.571"",""0.171""]","[1,1,1,0]",0,54,54,54,1,1,0,,,1,FALSE,,,,,,,,,,,,,,,,,,,,,,,,,,,,,,
,60eb4a54a50a6ec6af2b7aff,001,2022-04-29_02h01.35.909,classification_task,2021.2.3,Win32,143.9677512,60eb4a54a50a6ec6af2b7aff,626b377229c10585ec392f89,626b38d87f6e04ec512c7dcd,,,,,,,,,,,,,,,,,,,,,,,l,1,0.2146,"[""0.061"",""0.282"",""0.622"",""0.158""]","[1,1,1,0]",0,55,55,55,1,1,1,,,1,FALSE,,,,,,,,,,,,,,,,,,,,,,,,,,,,,,
,60eb4a54a50a6ec6af2b7aff,001,2022-04-29_02h01.35.909,classification_task,2021.2.3,Win32,143.9677512,60eb4a54a50a6ec6af2b7aff,626b377229c10585ec392f89,626b38d87f6e04ec512c7dcd,,,,,,,,,,,,,,,,,,,,,,,a,0,0.0753,"[""0.061"",""0.168"",""0.622"",""0.727""]","[1,0,1,1]",0,56,56,56,1,1,1,,,1,FALSE,,,,,,,,,,,,,,,,,,,,,,,,,,,,,,
,60eb4a54a50a6ec6af2b7aff,001,2022-04-29_02h01.35.909,classification_task,2021.2.3,Win32,143.9677512,60eb4a54a50a6ec6af2b7aff,626b377229c10585ec392f89,626b38d87f6e04ec512c7dcd,,,,,,,,,,,,,,,,,,,,,,,a,1,0.1186,"[""0.166"",""0.511"",""0.893"",""0.963""]","[0,1,1,1]",0,57,57,57,1,0,0,,,1,FALSE,,,,,,,,,,,,,,,,,,,,,,,,,,,,,,
,60eb4a54a50a6ec6af2b7aff,001,2022-04-29_02h01.35.909,classification_task,2021.2.3,Win32,143.9677512,60eb4a54a50a6ec6af2b7aff,626b377229c10585ec392f89,626b38d87f6e04ec512c7dcd,,,,,,,,,,,,,,,,,,,,,,,a,1,0.1932,"[""0.325"",""0.511"",""0.893"",""0.189""]","[1,1,1,0]",0,58,58,58,1,0,0,,,1,FALSE,,,,,,,,,,,,,,,,,,,,,,,,,,,,,,
,60eb4a54a50a6ec6af2b7aff,001,2022-04-29_02h01.35.909,classification_task,2021.2.3,Win32,143.9677512,60eb4a54a50a6ec6af2b7aff,626b377229c10585ec392f89,626b38d87f6e04ec512c7dcd,,,,,,,,,,,,,,,,,,,,,,,l,1,0.1587,"[""0.061"",""0.282"",""0.158"",""0.727""]","[1,1,0,1]",0,59,59,59,1,1,1,,,1,FALSE,,,,,,,,,,,,,,,,,,,,,,,,,,,,,,
,60eb4a54a50a6ec6af2b7aff,001,2022-04-29_02h01.35.909,classification_task,2021.2.3,Win32,143.9677512,60eb4a54a50a6ec6af2b7aff,626b377229c10585ec392f89,626b38d87f6e04ec512c7dcd,,,,,,,,,,,,,,,,,,,,,,,l,1,0.1601,"[""0.123"",""0.927"",""0.571"",""0.776""]","[1,0,1,1]",0,60,60,60,1,1,0,,,1,FALSE,,,,,,,,,,,,,,,,,,,,,,,,,,,,,,
,60eb4a54a50a6ec6af2b7aff,001,2022-04-29_02h01.35.909,classification_task,2021.2.3,Win32,143.9677512,60eb4a54a50a6ec6af2b7aff,626b377229c10585ec392f89,626b38d87f6e04ec512c7dcd,,,,,,,,,,,,,,,,,,,,,,,a,1,0.3886,"[""0.325"",""0.166"",""0.893"",""0.963""]","[1,0,1,1]",0,61,61,61,1,0,0,,,1,FALSE,,,,,,,,,,,,,,,,,,,,,,,,,,,,,,
,60eb4a54a50a6ec6af2b7aff,001,2022-04-29_02h01.35.909,classification_task,2021.2.3,Win32,143.9677512,60eb4a54a50a6ec6af2b7aff,626b377229c10585ec392f89,626b38d87f6e04ec512c7dcd,,,,,,,,,,,,,,,,,,,,,,,a,1,0.1096,"[""0.325"",""0.511"",""0.453"",""0.963""]","[1,1,0,1]",0,62,62,62,1,0,0,,,1,FALSE,,,,,,,,,,,,,,,,,,,,,,,,,,,,,,
,60eb4a54a50a6ec6af2b7aff,001,2022-04-29_02h01.35.909,classification_task,2021.2.3,Win32,143.9677512,60eb4a54a50a6ec6af2b7aff,626b377229c10585ec392f89,626b38d87f6e04ec512c7dcd,,,,,,,,,,,,,,,,,,,,,,,l,0,0.181,"[""0.168"",""0.376"",""0.663"",""0.844""]","[0,1,1,1]",0,63,63,63,1,0,1,,,1,FALSE,,,,,,,,,,,,,,,,,,,,,,,,,,,,,,
,60eb4a54a50a6ec6af2b7aff,001,2022-04-29_02h01.35.909,classification_task,2021.2.3,Win32,143.9677512,60eb4a54a50a6ec6af2b7aff,626b377229c10585ec392f89,626b38d87f6e04ec512c7dcd,,,,,,,,,,,,,,,,,,,,,,,,,,,,,,,,,,,,,,,0, ,,0,4.797912992,128.3708,0,0,0,0,1,2,1,,,,,,,,,,,,,,,,,
,60eb4a54a50a6ec6af2b7aff,001,2022-04-29_02h01.35.909,classification_task,2021.2.3,Win32,143.9677512,60eb4a54a50a6ec6af2b7aff,626b377229c10585ec392f89,626b38d87f6e04ec512c7dcd,,,,,,,,,,,,,,,,,,,,,,,,,,,,,,,,,,,,,,,1,  ,,0,7.186213992,134.8031,0,0,0,0,1,2,1,,,,,,,,,,,,,,,,,
,60eb4a54a50a6ec6af2b7aff,001,2022-04-29_02h01.35.909,classification_task,2021.2.3,Win32,143.9677512,60eb4a54a50a6ec6af2b7aff,626b377229c10585ec392f89,626b38d87f6e04ec512c7dcd,,,,,,,,,,,,,,,,,,,,,,,,,,,,,,,,,,,,,,,2,  ,,0,6.984126984,139.6143,0,0,0,0,1,2,1,,,,,,,,,,,,,,,,,
,60eb4a54a50a6ec6af2b7aff,001,2022-04-29_02h01.35.909,classification_task,2021.2.3,Win32,143.9677512,60eb4a54a50a6ec6af2b7aff,626b377229c10585ec392f89,626b38d87f6e04ec512c7dcd,,,,,,,,,,,,,,,,,,,,,,,,,,,,,,,,,,,,,,,,,,,,,0,0,0,0,1,,1,,,,,,,,,,,,,,,,,
,60eb4a54a50a6ec6af2b7aff,001,2022-04-29_02h01.35.909,classification_task,2021.2.3,Win32,143.9677512,60eb4a54a50a6ec6af2b7aff,626b377229c10585ec392f89,626b38d87f6e04ec512c7dcd,,,,,,,,,,,,,,,,,,,,,space,4.3571,a,0,1.1718,"[""0.453"",""0.282"",""0.622"",""0.727""]","[0,1,1,1]",0,0,0,0,1,1,1,,,1,FALSE,,,,,,,,,,,,,,,,,,,,,,,,,,,,,,
,60eb4a54a50a6ec6af2b7aff,001,2022-04-29_02h01.35.909,classification_task,2021.2.3,Win32,143.9677512,60eb4a54a50a6ec6af2b7aff,626b377229c10585ec392f89,626b38d87f6e04ec512c7dcd,,,,,,,,,,,,,,,,,,,,,,,l,1,0.0261,"[""0.123"",""0.448"",""0.571"",""0.776""]","[1,0,1,1]",0,1,1,1,1,1,0,,,1,FALSE,,,,,,,,,,,,,,,,,,,,,,,,,,,,,,
,60eb4a54a50a6ec6af2b7aff,001,2022-04-29_02h01.35.909,classification_task,2021.2.3,Win32,143.9677512,60eb4a54a50a6ec6af2b7aff,626b377229c10585ec392f89,626b38d87f6e04ec512c7dcd,,,,,,,,,,,,,,,,,,,,,,,l,1,0.0538,"[""0.061"",""0.282"",""0.453"",""0.727""]","[1,1,0,1]",0,2,2,2,1,1,1,,,1,FALSE,,,,,,,,,,,,,,,,,,,,,,,,,,,,,,
,60eb4a54a50a6ec6af2b7aff,001,2022-04-29_02h01.35.909,classification_task,2021.2.3,Win32,143.9677512,60eb4a54a50a6ec6af2b7aff,626b377229c10585ec392f89,626b38d87f6e04ec512c7dcd,,,,,,,,,,,,,,,,,,,,,,,a,1,0.0003,"[""0.325"",""0.465"",""0.893"",""0.963""]","[1,0,1,1]",0,3,3,3,1,0,0,,,1,FALSE,,,,,,,,,,,,,,,,,,,,,,,,,,,,,,
,60eb4a54a50a6ec6af2b7aff,001,2022-04-29_02h01.35.909,classification_task,2021.2.3,Win32,143.9677512,60eb4a54a50a6ec6af2b7aff,626b377229c10585ec392f89,626b38d87f6e04ec512c7dcd,,,,,,,,,,,,,,,,,,,,,,,a,0,0.0764,"[""0.123"",""0.413"",""0.928"",""0.776""]","[1,1,0,1]",0,4,4,4,1,1,0,,,1,FALSE,,,,,,,,,,,,,,,,,,,,,,,,,,,,,,
,60eb4a54a50a6ec6af2b7aff,001,2022-04-29_02h01.35.909,classification_task,2021.2.3,Win32,143.9677512,60eb4a54a50a6ec6af2b7aff,626b377229c10585ec392f89,626b38d87f6e04ec512c7dcd,,,,,,,,,,,,,,,,,,,,,,,l,0,0.133,"[""0.224"",""0.376"",""0.663"",""0.927""]","[1,1,1,0]",0,5,5,5,1,0,1,,,1,FALSE,,,,,,,,,,,,,,,,,,,,,,,,,,,,,,
,60eb4a54a50a6ec6af2b7aff,001,2022-04-29_02h01.35.909,classification_task,2021.2.3,Win32,143.9677512,60eb4a54a50a6ec6af2b7aff,626b377229c10585ec392f89,626b38d87f6e04ec512c7dcd,,,,,,,,,,,,,,,,,,,,,,,l,1,0.0538,"[""0.061"",""0.166"",""0.622"",""0.727""]","[1,0,1,1]",0,6,6,6,1,1,1,,,1,FALSE,,,,,,,,,,,,,,,,,,,,,,,,,,,,,,
,60eb4a54a50a6ec6af2b7aff,001,2022-04-29_02h01.35.909,classification_task,2021.2.3,Win32,143.9677512,60eb4a54a50a6ec6af2b7aff,626b377229c10585ec392f89,626b38d87f6e04ec512c7dcd,,,,,,,,,,,,,,,,,,,,,,,a,0,0.0068,"[""0.183"",""0.413"",""0.571"",""0.776""]","[0,1,1,1]",0,7,7,7,1,1,0,,,1,FALSE,,,,,,,,,,,,,,,,,,,,,,,,,,,,,,
,60eb4a54a50a6ec6af2b7aff,001,2022-04-29_02h01.35.909,classification_task,2021.2.3,Win32,143.9677512,60eb4a54a50a6ec6af2b7aff,626b377229c10585ec392f89,626b38d87f6e04ec512c7dcd,,,,,,,,,,,,,,,,,,,,,,,l,0,0.1026,"[""0.325"",""0.511"",""0.893"",""0.465""]","[1,1,1,0]",0,8,8,8,1,0,0,,,1,FALSE,,,,,,,,,,,,,,,,,,,,,,,,,,,,,,
,60eb4a54a50a6ec6af2b7aff,001,2022-04-29_02h01.35.909,classification_task,2021.2.3,Win32,143.9677512,60eb4a54a50a6ec6af2b7aff,626b377229c10585ec392f89,626b38d87f6e04ec512c7dcd,,,,,,,,,,,,,,,,,,,,,,,l,0,0.0272,"[""0.224"",""0.376"",""0.465"",""0.844""]","[1,1,0,1]",0,9,9,9,1,0,1,,,1,FALSE,,,,,,,,,,,,,,,,,,,,,,,,,,,,,,
,60eb4a54a50a6ec6af2b7aff,001,2022-04-29_02h01.35.909,classification_task,2021.2.3,Win32,143.9677512,60eb4a54a50a6ec6af2b7aff,626b377229c10585ec392f89,626b38d87f6e04ec512c7dcd,,,,,,,,,,,,,,,,,,,,,,,l,0,0.0065,"[""0.927"",""0.511"",""0.893"",""0.963""]","[0,1,1,1]",0,10,10,10,1,0,0,,,1,FALSE,,,,,,,,,,,,,,,,,,,,,,,,,,,,,,
,60eb4a54a50a6ec6af2b7aff,001,2022-04-29_02h01.35.909,classification_task,2021.2.3,Win32,143.9677512,60eb4a54a50a6ec6af2b7aff,626b377229c10585ec392f89,626b38d87f6e04ec512c7dcd,,,,,,,,,,,,,,,,,,,,,,,l,0,0.0349,"[""0.325"",""0.511"",""0.448"",""0.963""]","[1,1,0,1]",0,11,11,11,1,0,0,,,1,FALSE,,,,,,,,,,,,,,,,,,,,,,,,,,,,,,
,60eb4a54a50a6ec6af2b7aff,001,2022-04-29_02h01.35.909,classification_task,2021.2.3,Win32,143.9677512,60eb4a54a50a6ec6af2b7aff,626b377229c10585ec392f89,626b38d87f6e04ec512c7dcd,,,,,,,,,,,,,,,,,,,,,,,l,0,0.0002,"[""0.171"",""0.376"",""0.663"",""0.844""]","[0,1,1,1]",0,12,12,12,1,0,1,,,1,FALSE,,,,,,,,,,,,,,,,,,,,,,,,,,,,,,
,60eb4a54a50a6ec6af2b7aff,001,2022-04-29_02h01.35.909,classification_task,2021.2.3,Win32,143.9677512,60eb4a54a50a6ec6af2b7aff,626b377229c10585ec392f89,626b38d87f6e04ec512c7dcd,,,,,,,,,,,,,,,,,,,,,,,l,1,0.0478,"[""0.123"",""0.413"",""0.571"",""0.171""]","[1,1,1,0]",0,13,13,13,1,1,0,,,1,FALSE,,,,,,,,,,,,,,,,,,,,,,,,,,,,,,
,60eb4a54a50a6ec6af2b7aff,001,2022-04-29_02h01.35.909,classification_task,2021.2.3,Win32,143.9677512,60eb4a54a50a6ec6af2b7aff,626b377229c10585ec392f89,626b38d87f6e04ec512c7dcd,,,,,,,,,,,,,,,,,,,,,,,l,1,0.0543,"[""0.061"",""0.282"",""0.622"",""0.448""]","[1,1,1,0]",0,14,14,14,1,1,1,,,1,FALSE,,,,,,,,,,,,,,,,,,,,,,,,,,,,,,
,60eb4a54a50a6ec6af2b7aff,001,2022-04-29_02h01.35.909,classification_task,2021.2.3,Win32,143.9677512,60eb4a54a50a6ec6af2b7aff,626b377229c10585ec392f89,626b38d87f6e04ec512c7dcd,,,,,,,,,,,,,,,,,,,,,,,l,0,0.0694,"[""0.224"",""0.928"",""0.663"",""0.844""]","[1,0,1,1]",0,15,15,15,1,0,1,,,1,FALSE,,,,,,,,,,,,,,,,,,,,,,,,,,,,,,
,60eb4a54a50a6ec6af2b7aff,001,2022-04-29_02h01.35.909,classification_task,2021.2.3,Win32,143.9677512,60eb4a54a50a6ec6af2b7aff,626b377229c10585ec392f89,626b38d87f6e04ec512c7dcd,,,,,,,,,,,,,,,,,,,,,,,l,0,0.0823,"[""0.325"",""0.511"",""0.464"",""0.963""]","[1,1,0,1]",0,16,16,16,1,0,0,,,1,FALSE,,,,,,,,,,,,,,,,,,,,,,,,,,,,,,
,60eb4a54a50a6ec6af2b7aff,001,2022-04-29_02h01.35.909,classification_task,2021.2.3,Win32,143.9677512,60eb4a54a50a6ec6af2b7aff,626b377229c10585ec392f89,626b38d87f6e04ec512c7dcd,,,,,,,,,,,,,,,,,,,,,,,a,1,0.3529,"[""0.224"",""0.376"",""0.189"",""0.844""]","[1,1,0,1]",0,17,17,17,1,0,1,,,1,FALSE,,,,,,,,,,,,,,,,,,,,,,,,,,,,,,
,60eb4a54a50a6ec6af2b7aff,001,2022-04-29_02h01.35.909,classification_task,2021.2.3,Win32,143.9677512,60eb4a54a50a6ec6af2b7aff,626b377229c10585ec392f89,626b38d87f6e04ec512c7dcd,,,,,,,,,,,,,,,,,,,,,,,l,1,0.0273,"[""0.061"",""0.453"",""0.622"",""0.727""]","[1,0,1,1]",0,18,18,18,1,1,1,,,1,FALSE,,,,,,,,,,,,,,,,,,,,,,,,,,,,,,
,60eb4a54a50a6ec6af2b7aff,001,2022-04-29_02h01.35.909,classification_task,2021.2.3,Win32,143.9677512,60eb4a54a50a6ec6af2b7aff,626b377229c10585ec392f89,626b38d87f6e04ec512c7dcd,,,,,,,,,,,,,,,,,,,,,,,a,1,0.0641,"[""0.183"",""0.376"",""0.663"",""0.844""]","[0,1,1,1]",0,19,19,19,1,0,1,,,1,FALSE,,,,,,,,,,,,,,,,,,,,,,,,,,,,,,
,60eb4a54a50a6ec6af2b7aff,001,2022-04-29_02h01.35.909,classification_task,2021.2.3,Win32,143.9677512,60eb4a54a50a6ec6af2b7aff,626b377229c10585ec392f89,626b38d87f6e04ec512c7dcd,,,,,,,,,,,,,,,,,,,,,,,l,1,0.0409,"[""0.123"",""0.183"",""0.571"",""0.776""]","[1,0,1,1]",0,20,20,20,1,1,0,,,1,FALSE,,,,,,,,,,,,,,,,,,,,,,,,,,,,,,
,60eb4a54a50a6ec6af2b7aff,001,2022-04-29_02h01.35.909,classification_task,2021.2.3,Win32,143.9677512,60eb4a54a50a6ec6af2b7aff,626b377229c10585ec392f89,626b38d87f6e04ec512c7dcd,,,,,,,,,,,,,,,,,,,,,,,a,0,0.0282,"[""0.123"",""0.413"",""0.453"",""0.776""]","[1,1,0,1]",0,21,21,21,1,1,0,,,1,FALSE,,,,,,,,,,,,,,,,,,,,,,,,,,,,,,
,60eb4a54a50a6ec6af2b7aff,001,2022-04-29_02h01.35.909,classification_task,2021.2.3,Win32,143.9677512,60eb4a54a50a6ec6af2b7aff,626b377229c10585ec392f89,626b38d87f6e04ec512c7dcd,,,,,,,,,,,,,,,,,,,,,,,a,0,0.4654,"[""0.183"",""0.413"",""0.571"",""0.776""]","[0,1,1,1]",0,22,22,22,1,1,0,,,1,FALSE,,,,,,,,,,,,,,,,,,,,,,,,,,,,,,
,60eb4a54a50a6ec6af2b7aff,001,2022-04-29_02h01.35.909,classification_task,2021.2.3,Win32,143.9677512,60eb4a54a50a6ec6af2b7aff,626b377229c10585ec392f89,626b38d87f6e04ec512c7dcd,,,,,,,,,,,,,,,,,,,,,,,l,0,0.0389,"[""0.224"",""0.166"",""0.663"",""0.844""]","[1,0,1,1]",0,23,23,23,1,0,1,,,1,FALSE,,,,,,,,,,,,,,,,,,,,,,,,,,,,,,
,60eb4a54a50a6ec6af2b7aff,001,2022-04-29_02h01.35.909,classification_task,2021.2.3,Win32,143.9677512,60eb4a54a50a6ec6af2b7aff,626b377229c10585ec392f89,626b38d87f6e04ec512c7dcd,,,,,,,,,,,,,,,,,,,,,,,l,0,0.2665,"[""0.453"",""0.511"",""0.893"",""0.963""]","[0,1,1,1]",0,24,24,24,1,0,0,,,1,FALSE,,,,,,,,,,,,,,,,,,,,,,,,,,,,,,
,60eb4a54a50a6ec6af2b7aff,001,2022-04-29_02h01.35.909,classification_task,2021.2.3,Win32,143.9677512,60eb4a54a50a6ec6af2b7aff,626b377229c10585ec392f89,626b38d87f6e04ec512c7dcd,,,,,,,,,,,,,,,,,,,,,,,l,0,0.061,"[""0.325"",""0.511"",""0.893"",""0.453""]","[1,1,1,0]",0,25,25,25,1,0,0,,,1,FALSE,,,,,,,,,,,,,,,,,,,,,,,,,,,,,,
,60eb4a54a50a6ec6af2b7aff,001,2022-04-29_02h01.35.909,classification_task,2021.2.3,Win32,143.9677512,60eb4a54a50a6ec6af2b7aff,626b377229c10585ec392f89,626b38d87f6e04ec512c7dcd,,,,,,,,,,,,,,,,,,,,,,,a,1,0.1114,"[""0.224"",""0.376"",""0.663"",""0.158""]","[1,1,1,0]",0,26,26,26,1,0,1,,,1,FALSE,,,,,,,,,,,,,,,,,,,,,,,,,,,,,,
,60eb4a54a50a6ec6af2b7aff,001,2022-04-29_02h01.35.909,classification_task,2021.2.3,Win32,143.9677512,60eb4a54a50a6ec6af2b7aff,626b377229c10585ec392f89,626b38d87f6e04ec512c7dcd,,,,,,,,,,,,,,,,,,,,,,,a,1,0.0418,"[""0.325"",""0.464"",""0.893"",""0.963""]","[1,0,1,1]",0,27,27,27,1,0,0,,,1,FALSE,,,,,,,,,,,,,,,,,,,,,,,,,,,,,,
,60eb4a54a50a6ec6af2b7aff,001,2022-04-29_02h01.35.909,classification_task,2021.2.3,Win32,143.9677512,60eb4a54a50a6ec6af2b7aff,626b377229c10585ec392f89,626b38d87f6e04ec512c7dcd,,,,,,,,,,,,,,,,,,,,,,,a,0,0.013,"[""0.061"",""0.282"",""0.183"",""0.727""]","[1,1,0,1]",0,28,28,28,1,1,1,,,1,FALSE,,,,,,,,,,,,,,,,,,,,,,,,,,,,,,
,60eb4a54a50a6ec6af2b7aff,001,2022-04-29_02h01.35.909,classification_task,2021.2.3,Win32,143.9677512,60eb4a54a50a6ec6af2b7aff,626b377229c10585ec392f89,626b38d87f6e04ec512c7dcd,,,,,,,,,,,,,,,,,,,,,,,l,1,0.0961,"[""0.061"",""0.282"",""0.622"",""0.183""]","[1,1,1,0]",0,29,29,29,1,1,1,,,1,FALSE,,,,,,,,,,,,,,,,,,,,,,,,,,,,,,
,60eb4a54a50a6ec6af2b7aff,001,2022-04-29_02h01.35.909,classification_task,2021.2.3,Win32,143.9677512,60eb4a54a50a6ec6af2b7aff,626b377229c10585ec392f89,626b38d87f6e04ec512c7dcd,,,,,,,,,,,,,,,,,,,,,,,l,1,0.0904,"[""0.927"",""0.282"",""0.622"",""0.727""]","[0,1,1,1]",0,30,30,30,1,1,1,,,1,FALSE,,,,,,,,,,,,,,,,,,,,,,,,,,,,,,
,60eb4a54a50a6ec6af2b7aff,001,2022-04-29_02h01.35.909,classification_task,2021.2.3,Win32,143.9677512,60eb4a54a50a6ec6af2b7aff,626b377229c10585ec392f89,626b38d87f6e04ec512c7dcd,,,,,,,,,,,,,,,,,,,,,,,l,1,0.0261,"[""0.123"",""0.413"",""0.571"",""0.927""]","[1,1,1,0]",0,31,31,31,1,1,0,,,1,FALSE,,,,,,,,,,,,,,,,,,,,,,,,,,,,,,
,60eb4a54a50a6ec6af2b7aff,001,2022-04-29_02h01.35.909,classification_task,2021.2.3,Win32,143.9677512,60eb4a54a50a6ec6af2b7aff,626b377229c10585ec392f89,626b38d87f6e04ec512c7dcd,,,,,,,,,,,,,,,,,,,,,,,l,1,0.0656,"[""0.123"",""0.413"",""0.189"",""0.776""]","[1,1,0,1]",0,32,32,32,1,1,0,,,1,FALSE,,,,,,,,,,,,,,,,,,,,,,,,,,,,,,
,60eb4a54a50a6ec6af2b7aff,001,2022-04-29_02h01.35.909,classification_task,2021.2.3,Win32,143.9677512,60eb4a54a50a6ec6af2b7aff,626b377229c10585ec392f89,626b38d87f6e04ec512c7dcd,,,,,,,,,,,,,,,,,,,,,,,l,1,0.0139,"[""0.123"",""0.413"",""0.571"",""0.189""]","[1,1,1,0]",0,33,33,33,1,1,0,,,1,FALSE,,,,,,,,,,,,,,,,,,,,,,,,,,,,,,
,60eb4a54a50a6ec6af2b7aff,001,2022-04-29_02h01.35.909,classification_task,2021.2.3,Win32,143.9677512,60eb4a54a50a6ec6af2b7aff,626b377229c10585ec392f89,626b38d87f6e04ec512c7dcd,,,,,,,,,,,,,,,,,,,,,,,l,0,0.0191,"[""0.325"",""0.928"",""0.893"",""0.963""]","[1,0,1,1]",0,34,34,34,1,0,0,,,1,FALSE,,,,,,,,,,,,,,,,,,,,,,,,,,,,,,
,60eb4a54a50a6ec6af2b7aff,001,2022-04-29_02h01.35.909,classification_task,2021.2.3,Win32,143.9677512,60eb4a54a50a6ec6af2b7aff,626b377229c10585ec392f89,626b38d87f6e04ec512c7dcd,,,,,,,,,,,,,,,,,,,,,,,a,1,0.094,"[""0.224"",""0.376"",""0.663"",""0.928""]","[1,1,1,0]",0,35,35,35,1,0,1,,,1,FALSE,,,,,,,,,,,,,,,,,,,,,,,,,,,,,,
,60eb4a54a50a6ec6af2b7aff,001,2022-04-29_02h01.35.909,classification_task,2021.2.3,Win32,143.9677512,60eb4a54a50a6ec6af2b7aff,626b377229c10585ec392f89,626b38d87f6e04ec512c7dcd,,,,,,,,,,,,,,,,,,,,,,,a,1,0.0351,"[""0.189"",""0.376"",""0.663"",""0.844""]","[0,1,1,1]",0,36,36,36,1,0,1,,,1,FALSE,,,,,,,,,,,,,,,,,,,,,,,,,,,,,,
,60eb4a54a50a6ec6af2b7aff,001,2022-04-29_02h01.35.909,classification_task,2021.2.3,Win32,143.9677512,60eb4a54a50a6ec6af2b7aff,626b377229c10585ec392f89,626b38d87f6e04ec512c7dcd,,,,,,,,,,,,,,,,,,,,,,,a,1,0.0086,"[""0.224"",""0.171"",""0.663"",""0.844""]","[1,0,1,1]",0,37,37,37,1,0,1,,,1,FALSE,,,,,,,,,,,,,,,,,,,,,,,,,,,,,,
,60eb4a54a50a6ec6af2b7aff,001,2022-04-29_02h01.35.909,classification_task,2021.2.3,Win32,143.9677512,60eb4a54a50a6ec6af2b7aff,626b377229c10585ec392f89,626b38d87f6e04ec512c7dcd,,,,,,,,,,,,,,,,,,,,,,,l,0,0.0123,"[""0.183"",""0.511"",""0.893"",""0.963""]","[0,1,1,1]",0,38,38,38,1,0,0,,,1,FALSE,,,,,,,,,,,,,,,,,,,,,,,,,,,,,,
,60eb4a54a50a6ec6af2b7aff,001,2022-04-29_02h01.35.909,classification_task,2021.2.3,Win32,143.9677512,60eb4a54a50a6ec6af2b7aff,626b377229c10585ec392f89,626b38d87f6e04ec512c7dcd,,,,,,,,,,,,,,,,,,,,,,,a,0,0.2511,"[""0.061"",""0.927"",""0.622"",""0.727""]","[1,0,1,1]",0,39,39,39,1,1,1,,,1,FALSE,,,,,,,,,,,,,,,,,,,,,,,,,,,,,,
,60eb4a54a50a6ec6af2b7aff,001,2022-04-29_02h01.35.909,classification_task,2021.2.3,Win32,143.9677512,60eb4a54a50a6ec6af2b7aff,626b377229c10585ec392f89,626b38d87f6e04ec512c7dcd,,,,,,,,,,,,,,,,,,,,,,,a,0,0.0977,"[""0.061"",""0.282"",""0.622"",""0.168""]","[1,1,1,0]",0,40,40,40,1,1,1,,,1,FALSE,,,,,,,,,,,,,,,,,,,,,,,,,,,,,,
,60eb4a54a50a6ec6af2b7aff,001,2022-04-29_02h01.35.909,classification_task,2021.2.3,Win32,143.9677512,60eb4a54a50a6ec6af2b7aff,626b377229c10585ec392f89,626b38d87f6e04ec512c7dcd,,,,,,,,,,,,,,,,,,,,,,,a,1,0.0411,"[""0.325"",""0.511"",""0.893"",""0.465""]","[1,1,1,0]",0,41,41,41,1,0,0,,,1,FALSE,,,,,,,,,,,,,,,,,,,,,,,,,,,,,,
,60eb4a54a50a6ec6af2b7aff,001,2022-04-29_02h01.35.909,classification_task,2021.2.3,Win32,143.9677512,60eb4a54a50a6ec6af2b7aff,626b377229c10585ec392f89,626b38d87f6e04ec512c7dcd,,,,,,,,,,,,,,,,,,,,,,,a,0,0.0753,"[""0.453"",""0.282"",""0.622"",""0.727""]","[0,1,1,1]",0,42,42,42,1,1,1,,,1,FALSE,,,,,,,,,,,,,,,,,,,,,,,,,,,,,,
,60eb4a54a50a6ec6af2b7aff,001,2022-04-29_02h01.35.909,classification_task,2021.2.3,Win32,143.9677512,60eb4a54a50a6ec6af2b7aff,626b377229c10585ec392f89,626b38d87f6e04ec512c7dcd,,,,,,,,,,,,,,,,,,,,,,,l,1,0.0338,"[""0.123"",""0.176"",""0.571"",""0.776""]","[1,0,1,1]",0,43,43,43,1,1,0,,,1,FALSE,,,,,,,,,,,,,,,,,,,,,,,,,,,,,,
,60eb4a54a50a6ec6af2b7aff,001,2022-04-29_02h01.35.909,classification_task,2021.2.3,Win32,143.9677512,60eb4a54a50a6ec6af2b7aff,626b377229c10585ec392f89,626b38d87f6e04ec512c7dcd,,,,,,,,,,,,,,,,,,,,,,,l,1,0.0261,"[""0.061"",""0.282"",""0.464"",""0.727""]","[1,1,0,1]",0,44,44,44,1,1,1,,,1,FALSE,,,,,,,,,,,,,,,,,,,,,,,,,,,,,,
,60eb4a54a50a6ec6af2b7aff,001,2022-04-29_02h01.35.909,classification_task,2021.2.3,Win32,143.9677512,60eb4a54a50a6ec6af2b7aff,626b377229c10585ec392f89,626b38d87f6e04ec512c7dcd,,,,,,,,,,,,,,,,,,,,,,,l,0,0.0553,"[""0.325"",""0.511"",""0.927"",""0.963""]","[1,1,0,1]",0,45,45,45,1,0,0,,,1,FALSE,,,,,,,,,,,,,,,,,,,,,,,,,,,,,,
,60eb4a54a50a6ec6af2b7aff,001,2022-04-29_02h01.35.909,classification_task,2021.2.3,Win32,143.9677512,60eb4a54a50a6ec6af2b7aff,626b377229c10585ec392f89,626b38d87f6e04ec512c7dcd,,,,,,,,,,,,,,,,,,,,,,,l,0,0.1313,"[""0.224"",""0.376"",""0.157"",""0.844""]","[1,1,0,1]",0,46,46,46,1,0,1,,,1,FALSE,,,,,,,,,,,,,,,,,,,,,,,,,,,,,,
,60eb4a54a50a6ec6af2b7aff,001,2022-04-29_02h01.35.909,classification_task,2021.2.3,Win32,143.9677512,60eb4a54a50a6ec6af2b7aff,626b377229c10585ec392f89,626b38d87f6e04ec512c7dcd,,,,,,,,,,,,,,,,,,,,,,,l,1,0.0409,"[""0.157"",""0.413"",""0.571"",""0.776""]","[0,1,1,1]",0,47,47,47,1,1,0,,,1,FALSE,,,,,,,,,,,,,,,,,,,,,,,,,,,,,,
,60eb4a54a50a6ec6af2b7aff,001,2022-04-29_02h01.35.909,classification_task,2021.2.3,Win32,143.9677512,60eb4a54a50a6ec6af2b7aff,626b377229c10585ec392f89,626b38d87f6e04ec512c7dcd,,,,,,,,,,,,,,,,,,,,,,,l,1,0.097,"[""0.123"",""0.413"",""0.166"",""0.776""]","[1,1,0,1]",0,48,48,48,1,1,0,,,1,FALSE,,,,,,,,,,,,,,,,,,,,,,,,,,,,,,
,60eb4a54a50a6ec6af2b7aff,001,2022-04-29_02h01.35.909,classification_task,2021.2.3,Win32,143.9677512,60eb4a54a50a6ec6af2b7aff,626b377229c10585ec392f89,626b38d87f6e04ec512c7dcd,,,,,,,,,,,,,,,,,,,,,,,l,0,0.1307,"[""0.224"",""0.928"",""0.663"",""0.844""]","[1,0,1,1]",0,49,49,49,1,0,1,,,1,FALSE,,,,,,,,,,,,,,,,,,,,,,,,,,,,,,
,60eb4a54a50a6ec6af2b7aff,001,2022-04-29_02h01.35.909,classification_task,2021.2.3,Win32,143.9677512,60eb4a54a50a6ec6af2b7aff,626b377229c10585ec392f89,626b38d87f6e04ec512c7dcd,,,,,,,,,,,,,,,,,,,,,,,l,1,0.0223,"[""0.123"",""0.465"",""0.571"",""0.776""]","[1,0,1,1]",0,50,50,50,1,1,0,,,1,FALSE,,,,,,,,,,,,,,,,,,,,,,,,,,,,,,
,60eb4a54a50a6ec6af2b7aff,001,2022-04-29_02h01.35.909,classification_task,2021.2.3,Win32,143.9677512,60eb4a54a50a6ec6af2b7aff,626b377229c10585ec392f89,626b38d87f6e04ec512c7dcd,,,,,,,,,,,,,,,,,,,,,,,l,0,0.1094,"[""0.325"",""0.928"",""0.893"",""0.963""]","[1,0,1,1]",0,51,51,51,1,0,0,,,1,FALSE,,,,,,,,,,,,,,,,,,,,,,,,,,,,,,
,60eb4a54a50a6ec6af2b7aff,001,2022-04-29_02h01.35.909,classification_task,2021.2.3,Win32,143.9677512,60eb4a54a50a6ec6af2b7aff,626b377229c10585ec392f89,626b38d87f6e04ec512c7dcd,,,,,,,,,,,,,,,,,,,,,,,l,1,0.0061,"[""0.061"",""0.282"",""0.183"",""0.727""]","[1,1,0,1]",0,52,52,52,1,1,1,,,1,FALSE,,,,,,,,,,,,,,,,,,,,,,,,,,,,,,
,60eb4a54a50a6ec6af2b7aff,001,2022-04-29_02h01.35.909,classification_task,2021.2.3,Win32,143.9677512,60eb4a54a50a6ec6af2b7aff,626b377229c10585ec392f89,626b38d87f6e04ec512c7dcd,,,,,,,,,,,,,,,,,,,,,,,l,0,0.1254,"[""0.325"",""0.511"",""0.893"",""0.465""]","[1,1,1,0]",0,53,53,53,1,0,0,,,1,FALSE,,,,,,,,,,,,,,,,,,,,,,,,,,,,,,
,60eb4a54a50a6ec6af2b7aff,001,2022-04-29_02h01.35.909,classification_task,2021.2.3,Win32,143.9677512,60eb4a54a50a6ec6af2b7aff,626b377229c10585ec392f89,626b38d87f6e04ec512c7dcd,,,,,,,,,,,,,,,,,,,,,,,a,1,0.0471,"[""0.224"",""0.376"",""0.448"",""0.844""]","[1,1,0,1]",0,54,54,54,1,0,1,,,1,FALSE,,,,,,,,,,,,,,,,,,,,,,,,,,,,,,
,60eb4a54a50a6ec6af2b7aff,001,2022-04-29_02h01.35.909,classification_task,2021.2.3,Win32,143.9677512,60eb4a54a50a6ec6af2b7aff,626b377229c10585ec392f89,626b38d87f6e04ec512c7dcd,,,,,,,,,,,,,,,,,,,,,,,a,1,0.0968,"[""0.224"",""0.376"",""0.663"",""0.166""]","[1,1,1,0]",0,55,55,55,1,0,1,,,1,FALSE,,,,,,,,,,,,,,,,,,,,,,,,,,,,,,
,60eb4a54a50a6ec6af2b7aff,001,2022-04-29_02h01.35.909,classification_task,2021.2.3,Win32,143.9677512,60eb4a54a50a6ec6af2b7aff,626b377229c10585ec392f89,626b38d87f6e04ec512c7dcd,,,,,,,,,,,,,,,,,,,,,,,l,1,0.0088,"[""0.061"",""0.282"",""0.622"",""0.928""]","[1,1,1,0]",0,56,56,56,1,1,1,,,1,FALSE,,,,,,,,,,,,,,,,,,,,,,,,,,,,,,
,60eb4a54a50a6ec6af2b7aff,001,2022-04-29_02h01.35.909,classification_task,2021.2.3,Win32,143.9677512,60eb4a54a50a6ec6af2b7aff,626b377229c10585ec392f89,626b38d87f6e04ec512c7dcd,,,,,,,,,,,,,,,,,,,,,,,l,1,0.0841,"[""0.123"",""0.413"",""0.571"",""0.927""]","[1,1,1,0]",0,57,57,57,1,1,0,,,1,FALSE,,,,,,,,,,,,,,,,,,,,,,,,,,,,,,
,60eb4a54a50a6ec6af2b7aff,001,2022-04-29_02h01.35.909,classification_task,2021.2.3,Win32,143.9677512,60eb4a54a50a6ec6af2b7aff,626b377229c10585ec392f89,626b38d87f6e04ec512c7dcd,,,,,,,,,,,,,,,,,,,,,,,l,1,0.0746,"[""0.183"",""0.282"",""0.622"",""0.727""]","[0,1,1,1]",0,58,58,58,1,1,1,,,1,FALSE,,,,,,,,,,,,,,,,,,,,,,,,,,,,,,
,60eb4a54a50a6ec6af2b7aff,001,2022-04-29_02h01.35.909,classification_task,2021.2.3,Win32,143.9677512,60eb4a54a50a6ec6af2b7aff,626b377229c10585ec392f89,626b38d87f6e04ec512c7dcd,,,,,,,,,,,,,,,,,,,,,,,l,0,0.0197,"[""0.325"",""0.511"",""0.465"",""0.963""]","[1,1,0,1]",0,59,59,59,1,0,0,,,1,FALSE,,,,,,,,,,,,,,,,,,,,,,,,,,,,,,
,60eb4a54a50a6ec6af2b7aff,001,2022-04-29_02h01.35.909,classification_task,2021.2.3,Win32,143.9677512,60eb4a54a50a6ec6af2b7aff,626b377229c10585ec392f89,626b38d87f6e04ec512c7dcd,,,,,,,,,,,,,,,,,,,,,,,l,0,0.1381,"[""0.166"",""0.511"",""0.893"",""0.963""]","[0,1,1,1]",0,60,60,60,1,0,0,,,1,FALSE,,,,,,,,,,,,,,,,,,,,,,,,,,,,,,
,60eb4a54a50a6ec6af2b7aff,001,2022-04-29_02h01.35.909,classification_task,2021.2.3,Win32,143.9677512,60eb4a54a50a6ec6af2b7aff,626b377229c10585ec392f89,626b38d87f6e04ec512c7dcd,,,,,,,,,,,,,,,,,,,,,,,l,1,0.0975,"[""0.061"",""0.464"",""0.622"",""0.727""]","[1,0,1,1]",0,61,61,61,1,1,1,,,1,FALSE,,,,,,,,,,,,,,,,,,,,,,,,,,,,,,
,60eb4a54a50a6ec6af2b7aff,001,2022-04-29_02h01.35.909,classification_task,2021.2.3,Win32,143.9677512,60eb4a54a50a6ec6af2b7aff,626b377229c10585ec392f89,626b38d87f6e04ec512c7dcd,,,,,,,,,,,,,,,,,,,,,,,l,0,0.1077,"[""0.453"",""0.376"",""0.663"",""0.844""]","[0,1,1,1]",0,62,62,62,1,0,1,,,1,FALSE,,,,,,,,,,,,,,,,,,,,,,,,,,,,,,
,60eb4a54a50a6ec6af2b7aff,001,2022-04-29_02h01.35.909,classification_task,2021.2.3,Win32,143.9677512,60eb4a54a50a6ec6af2b7aff,626b377229c10585ec392f89,626b38d87f6e04ec512c7dcd,,,,,,,,,,,,,,,,,,,,,,,a,0,0.0142,"[""0.183"",""0.413"",""0.571"",""0.776""]","[0,1,1,1]",0,63,63,63,1,1,0,,,1,FALSE,,,,,,,,,,,,,,,,,,,,,,,,,,,,,,
,60eb4a54a50a6ec6af2b7aff,001,2022-04-29_02h01.35.909,classification_task,2021.2.3,Win32,143.9677512,60eb4a54a50a6ec6af2b7aff,626b377229c10585ec392f89,626b38d87f6e04ec512c7dcd,,,,,,,,,,,,,,,,,,,,,,,,,,,,,,,,,,,,,,,0, ,,0,6.469723692,80.4072,0,1,1,1,1,2,2,,,,,,,,,,,,,,,,,
,60eb4a54a50a6ec6af2b7aff,001,2022-04-29_02h01.35.909,classification_task,2021.2.3,Win32,143.9677512,60eb4a54a50a6ec6af2b7aff,626b377229c10585ec392f89,626b38d87f6e04ec512c7dcd,,,,,,,,,,,,,,,,,,,,,,,,,,,,,,,,,,,,,,,1,  ,,0,8.123162845,81.9586,0,1,1,1,1,2,2,,,,,,,,,,,,,,,,,
,60eb4a54a50a6ec6af2b7aff,001,2022-04-29_02h01.35.909,classification_task,2021.2.3,Win32,143.9677512,60eb4a54a50a6ec6af2b7aff,626b377229c10585ec392f89,626b38d87f6e04ec512c7dcd,,,,,,,,,,,,,,,,,,,,,,,,,,,,,,,,,,,,,,,2,  ,,0,5.863462669,82.6299,0,1,1,1,1,2,2,,,,,,,,,,,,,,,,,
,60eb4a54a50a6ec6af2b7aff,001,2022-04-29_02h01.35.909,classification_task,2021.2.3,Win32,143.9677512,60eb4a54a50a6ec6af2b7aff,626b377229c10585ec392f89,626b38d87f6e04ec512c7dcd,,,,,,,,,,,,,,,,,,,,,,,,,,,,,,,,,,,,,,,,,,,,,0,1,1,1,1,,2,,,,,,,,,,,,,,,,,
,60eb4a54a50a6ec6af2b7aff,001,2022-04-29_02h01.35.909,classification_task,2021.2.3,Win32,143.9677512,60eb4a54a50a6ec6af2b7aff,626b377229c10585ec392f89,626b38d87f6e04ec512c7dcd,,,,,,,,,,,,,,,,,,,,,space,2.3089,a,0,0.1591,"[""0.061"",""0.927"",""0.622"",""0.727""]","[1,0,1,1]",0,0,0,0,1,1,1,,,1,FALSE,,,,,,,,,,,,,,,,,,,,,,,,,,,,,,
,60eb4a54a50a6ec6af2b7aff,001,2022-04-29_02h01.35.909,classification_task,2021.2.3,Win32,143.9677512,60eb4a54a50a6ec6af2b7aff,626b377229c10585ec392f89,626b38d87f6e04ec512c7dcd,,,,,,,,,,,,,,,,,,,,,,,l,1,0.0012,"[""0.061"",""0.282"",""0.622"",""0.183""]","[1,1,1,0]",0,1,1,1,1,1,1,,,1,FALSE,,,,,,,,,,,,,,,,,,,,,,,,,,,,,,
,60eb4a54a50a6ec6af2b7aff,001,2022-04-29_02h01.35.909,classification_task,2021.2.3,Win32,143.9677512,60eb4a54a50a6ec6af2b7aff,626b377229c10585ec392f89,626b38d87f6e04ec512c7dcd,,,,,,,,,,,,,,,,,,,,,,,l,0,0.0424,"[""0.224"",""0.376"",""0.663"",""0.465""]","[1,1,1,0]",0,2,2,2,1,0,1,,,1,FALSE,,,,,,,,,,,,,,,,,,,,,,,,,,,,,,
,60eb4a54a50a6ec6af2b7aff,001,2022-04-29_02h01.35.909,classification_task,2021.2.3,Win32,143.9677512,60eb4a54a50a6ec6af2b7aff,626b377229c10585ec392f89,626b38d87f6e04ec512c7dcd,,,,,,,,,,,,,,,,,,,,,,,l,0,0.0568,"[""0.325"",""0.183"",""0.893"",""0.963""]","[1,0,1,1]",0,3,3,3,1,0,0,,,1,FALSE,,,,,,,,,,,,,,,,,,,,,,,,,,,,,,
,60eb4a54a50a6ec6af2b7aff,001,2022-04-29_02h01.35.909,classification_task,2021.2.3,Win32,143.9677512,60eb4a54a50a6ec6af2b7aff,626b377229c10585ec392f89,626b38d87f6e04ec512c7dcd,,,,,,,,,,,,,,,,,,,,,,,l,0,0.0286,"[""0.465"",""0.511"",""0.893"",""0.963""]","[0,1,1,1]",0,4,4,4,1,0,0,,,1,FALSE,,,,,,,,,,,,,,,,,,,,,,,,,,,,,,
,60eb4a54a50a6ec6af2b7aff,001,2022-04-29_02h01.35.909,classification_task,2021.2.3,Win32,143.9677512,60eb4a54a50a6ec6af2b7aff,626b377229c10585ec392f89,626b38d87f6e04ec512c7dcd,,,,,,,,,,,,,,,,,,,,,,,a,1,0.0716,"[""0.224"",""0.376"",""0.465"",""0.844""]","[1,1,0,1]",0,5,5,5,1,0,1,,,1,FALSE,,,,,,,,,,,,,,,,,,,,,,,,,,,,,,
,60eb4a54a50a6ec6af2b7aff,001,2022-04-29_02h01.35.909,classification_task,2021.2.3,Win32,143.9677512,60eb4a54a50a6ec6af2b7aff,626b377229c10585ec392f89,626b38d87f6e04ec512c7dcd,,,,,,,,,,,,,,,,,,,,,,,a,1,0.0686,"[""0.325"",""0.511"",""0.183"",""0.963""]","[1,1,0,1]",0,6,6,6,1,0,0,,,1,FALSE,,,,,,,,,,,,,,,,,,,,,,,,,,,,,,
,60eb4a54a50a6ec6af2b7aff,001,2022-04-29_02h01.35.909,classification_task,2021.2.3,Win32,143.9677512,60eb4a54a50a6ec6af2b7aff,626b377229c10585ec392f89,626b38d87f6e04ec512c7dcd,,,,,,,,,,,,,,,,,,,,,,,a,0,0.0404,"[""0.061"",""0.282"",""0.157"",""0.727""]","[1,1,0,1]",0,7,7,7,1,1,1,,,1,FALSE,,,,,,,,,,,,,,,,,,,,,,,,,,,,,,
,60eb4a54a50a6ec6af2b7aff,001,2022-04-29_02h01.35.909,classification_task,2021.2.3,Win32,143.9677512,60eb4a54a50a6ec6af2b7aff,626b377229c10585ec392f89,626b38d87f6e04ec512c7dcd,,,,,,,,,,,,,,,,,,,,,,,l,1,0.0367,"[""0.123"",""0.453"",""0.571"",""0.776""]","[1,0,1,1]",0,8,8,8,1,1,0,,,1,FALSE,,,,,,,,,,,,,,,,,,,,,,,,,,,,,,
,60eb4a54a50a6ec6af2b7aff,001,2022-04-29_02h01.35.909,classification_task,2021.2.3,Win32,143.9677512,60eb4a54a50a6ec6af2b7aff,626b377229c10585ec392f89,626b38d87f6e04ec512c7dcd,,,,,,,,,,,,,,,,,,,,,,,l,0,0.0972,"[""0.325"",""0.511"",""0.893"",""0.453""]","[1,1,1,0]",0,9,9,9,1,0,0,,,1,FALSE,,,,,,,,,,,,,,,,,,,,,,,,,,,,,,
,60eb4a54a50a6ec6af2b7aff,001,2022-04-29_02h01.35.909,classification_task,2021.2.3,Win32,143.9677512,60eb4a54a50a6ec6af2b7aff,626b377229c10585ec392f89,626b38d87f6e04ec512c7dcd,,,,,,,,,,,,,,,,,,,,,,,l,1,0.0603,"[""0.158"",""0.282"",""0.622"",""0.727""]","[0,1,1,1]",0,10,10,10,1,1,1,,,1,FALSE,,,,,,,,,,,,,,,,,,,,,,,,,,,,,,
,60eb4a54a50a6ec6af2b7aff,001,2022-04-29_02h01.35.909,classification_task,2021.2.3,Win32,143.9677512,60eb4a54a50a6ec6af2b7aff,626b377229c10585ec392f89,626b38d87f6e04ec512c7dcd,,,,,,,,,,,,,,,,,,,,,,,l,1,0.0681,"[""0.123"",""0.413"",""0.168"",""0.776""]","[1,1,0,1]",0,11,11,11,1,1,0,,,1,FALSE,,,,,,,,,,,,,,,,,,,,,,,,,,,,,,
,60eb4a54a50a6ec6af2b7aff,001,2022-04-29_02h01.35.909,classification_task,2021.2.3,Win32,143.9677512,60eb4a54a50a6ec6af2b7aff,626b377229c10585ec392f89,626b38d87f6e04ec512c7dcd,,,,,,,,,,,,,,,,,,,,,,,l,1,0.0334,"[""0.123"",""0.413"",""0.571"",""0.168""]","[1,1,1,0]",0,12,12,12,1,1,0,,,1,FALSE,,,,,,,,,,,,,,,,,,,,,,,,,,,,,,
,60eb4a54a50a6ec6af2b7aff,001,2022-04-29_02h01.35.909,classification_task,2021.2.3,Win32,143.9677512,60eb4a54a50a6ec6af2b7aff,626b377229c10585ec392f89,626b38d87f6e04ec512c7dcd,,,,,,,,,,,,,,,,,,,,,,,l,1,0.443,"[""0.183"",""0.413"",""0.571"",""0.776""]","[0,1,1,1]",0,13,13,13,1,1,0,,,1,FALSE,,,,,,,,,,,,,,,,,,,,,,,,,,,,,,
,60eb4a54a50a6ec6af2b7aff,001,2022-04-29_02h01.35.909,classification_task,2021.2.3,Win32,143.9677512,60eb4a54a50a6ec6af2b7aff,626b377229c10585ec392f89,626b38d87f6e04ec512c7dcd,,,,,,,,,,,,,,,,,,,,,,,a,1,0.1735,"[""0.189"",""0.376"",""0.663"",""0.844""]","[0,1,1,1]",0,14,14,14,1,0,1,,,1,FALSE,,,,,,,,,,,,,,,,,,,,,,,,,,,,,,
,60eb4a54a50a6ec6af2b7aff,001,2022-04-29_02h01.35.909,classification_task,2021.2.3,Win32,143.9677512,60eb4a54a50a6ec6af2b7aff,626b377229c10585ec392f89,626b38d87f6e04ec512c7dcd,,,,,,,,,,,,,,,,,,,,,,,a,1,0.0837,"[""0.224"",""0.448"",""0.663"",""0.844""]","[1,0,1,1]",0,15,15,15,1,0,1,,,1,FALSE,,,,,,,,,,,,,,,,,,,,,,,,,,,,,,
,60eb4a54a50a6ec6af2b7aff,001,2022-04-29_02h01.35.909,classification_task,2021.2.3,Win32,143.9677512,60eb4a54a50a6ec6af2b7aff,626b377229c10585ec392f89,626b38d87f6e04ec512c7dcd,,,,,,,,,,,,,,,,,,,,,,,a,0,0.1541,"[""0.061"",""0.282"",""0.622"",""0.183""]","[1,1,1,0]",0,16,16,16,1,1,1,,,1,FALSE,,,,,,,,,,,,,,,,,,,,,,,,,,,,,,
,60eb4a54a50a6ec6af2b7aff,001,2022-04-29_02h01.35.909,classification_task,2021.2.3,Win32,143.9677512,60eb4a54a50a6ec6af2b7aff,626b377229c10585ec392f89,626b38d87f6e04ec512c7dcd,,,,,,,,,,,,,,,,,,,,,,,l,1,0.1526,"[""0.171"",""0.413"",""0.571"",""0.776""]","[0,1,1,1]",0,17,17,17,1,1,0,,,1,FALSE,,,,,,,,,,,,,,,,,,,,,,,,,,,,,,
,60eb4a54a50a6ec6af2b7aff,001,2022-04-29_02h01.35.909,classification_task,2021.2.3,Win32,143.9677512,60eb4a54a50a6ec6af2b7aff,626b377229c10585ec392f89,626b38d87f6e04ec512c7dcd,,,,,,,,,,,,,,,,,,,,,,,l,1,0.0367,"[""0.061"",""0.282"",""0.189"",""0.727""]","[1,1,0,1]",0,18,18,18,1,1,1,,,1,FALSE,,,,,,,,,,,,,,,,,,,,,,,,,,,,,,
,60eb4a54a50a6ec6af2b7aff,001,2022-04-29_02h01.35.909,classification_task,2021.2.3,Win32,143.9677512,60eb4a54a50a6ec6af2b7aff,626b377229c10585ec392f89,626b38d87f6e04ec512c7dcd,,,,,,,,,,,,,,,,,,,,,,,l,1,0.3205,"[""0.176"",""0.282"",""0.622"",""0.727""]","[0,1,1,1]",0,19,19,19,1,1,1,,,1,FALSE,,,,,,,,,,,,,,,,,,,,,,,,,,,,,,
,60eb4a54a50a6ec6af2b7aff,001,2022-04-29_02h01.35.909,classification_task,2021.2.3,Win32,143.9677512,60eb4a54a50a6ec6af2b7aff,626b377229c10585ec392f89,626b38d87f6e04ec512c7dcd,,,,,,,,,,,,,,,,,,,,,,,l,1,0.0488,"[""0.123"",""0.413"",""0.157"",""0.776""]","[1,1,0,1]",0,20,20,20,1,1,0,,,1,FALSE,,,,,,,,,,,,,,,,,,,,,,,,,,,,,,
,60eb4a54a50a6ec6af2b7aff,001,2022-04-29_02h01.35.909,classification_task,2021.2.3,Win32,143.9677512,60eb4a54a50a6ec6af2b7aff,626b377229c10585ec392f89,626b38d87f6e04ec512c7dcd,,,,,,,,,,,,,,,,,,,,,,,a,1,0.0289,"[""0.224"",""0.376"",""0.663"",""0.927""]","[1,1,1,0]",0,21,21,21,1,0,1,,,1,FALSE,,,,,,,,,,,,,,,,,,,,,,,,,,,,,,
,60eb4a54a50a6ec6af2b7aff,001,2022-04-29_02h01.35.909,classification_task,2021.2.3,Win32,143.9677512,60eb4a54a50a6ec6af2b7aff,626b377229c10585ec392f89,626b38d87f6e04ec512c7dcd,,,,,,,,,,,,,,,,,,,,,,,a,1,0.0841,"[""0.224"",""0.157"",""0.663"",""0.844""]","[1,0,1,1]",0,22,22,22,1,0,1,,,1,FALSE,,,,,,,,,,,,,,,,,,,,,,,,,,,,,,
,60eb4a54a50a6ec6af2b7aff,001,2022-04-29_02h01.35.909,classification_task,2021.2.3,Win32,143.9677512,60eb4a54a50a6ec6af2b7aff,626b377229c10585ec392f89,626b38d87f6e04ec512c7dcd,,,,,,,,,,,,,,,,,,,,,,,a,1,0.0766,"[""0.158"",""0.376"",""0.663"",""0.844""]","[0,1,1,1]",0,23,23,23,1,0,1,,,1,FALSE,,,,,,,,,,,,,,,,,,,,,,,,,,,,,,
,60eb4a54a50a6ec6af2b7aff,001,2022-04-29_02h01.35.909,classification_task,2021.2.3,Win32,143.9677512,60eb4a54a50a6ec6af2b7aff,626b377229c10585ec392f89,626b38d87f6e04ec512c7dcd,,,,,,,,,,,,,,,,,,,,,,,a,1,0.1029,"[""0.927"",""0.511"",""0.893"",""0.963""]","[0,1,1,1]",0,24,24,24,1,0,0,,,1,FALSE,,,,,,,,,,,,,,,,,,,,,,,,,,,,,,
,60eb4a54a50a6ec6af2b7aff,001,2022-04-29_02h01.35.909,classification_task,2021.2.3,Win32,143.9677512,60eb4a54a50a6ec6af2b7aff,626b377229c10585ec392f89,626b38d87f6e04ec512c7dcd,,,,,,,,,,,,,,,,,,,,,,,a,1,0.2071,"[""0.224"",""0.376"",""0.465"",""0.844""]","[1,1,0,1]",0,25,25,25,1,0,1,,,1,FALSE,,,,,,,,,,,,,,,,,,,,,,,,,,,,,,
,60eb4a54a50a6ec6af2b7aff,001,2022-04-29_02h01.35.909,classification_task,2021.2.3,Win32,143.9677512,60eb4a54a50a6ec6af2b7aff,626b377229c10585ec392f89,626b38d87f6e04ec512c7dcd,,,,,,,,,,,,,,,,,,,,,,,a,1,0.0553,"[""0.325"",""0.927"",""0.893"",""0.963""]","[1,0,1,1]",0,26,26,26,1,0,0,,,1,FALSE,,,,,,,,,,,,,,,,,,,,,,,,,,,,,,
,60eb4a54a50a6ec6af2b7aff,001,2022-04-29_02h01.35.909,classification_task,2021.2.3,Win32,143.9677512,60eb4a54a50a6ec6af2b7aff,626b377229c10585ec392f89,626b38d87f6e04ec512c7dcd,,,,,,,,,,,,,,,,,,,,,,,l,0,0.4458,"[""0.325"",""0.511"",""0.893"",""0.176""]","[1,1,1,0]",0,27,27,27,1,0,0,,,1,FALSE,,,,,,,,,,,,,,,,,,,,,,,,,,,,,,
,60eb4a54a50a6ec6af2b7aff,001,2022-04-29_02h01.35.909,classification_task,2021.2.3,Win32,143.9677512,60eb4a54a50a6ec6af2b7aff,626b377229c10585ec392f89,626b38d87f6e04ec512c7dcd,,,,,,,,,,,,,,,,,,,,,,,l,1,0.1455,"[""0.123"",""0.927"",""0.571"",""0.776""]","[1,0,1,1]",0,28,28,28,1,1,0,,,1,FALSE,,,,,,,,,,,,,,,,,,,,,,,,,,,,,,
,60eb4a54a50a6ec6af2b7aff,001,2022-04-29_02h01.35.909,classification_task,2021.2.3,Win32,143.9677512,60eb4a54a50a6ec6af2b7aff,626b377229c10585ec392f89,626b38d87f6e04ec512c7dcd,,,,,,,,,,,,,,,,,,,,,,,a,0,0.0907,"[""0.123"",""0.413"",""0.571"",""0.157""]","[1,1,1,0]",0,29,29,29,1,1,0,,,1,FALSE,,,,,,,,,,,,,,,,,,,,,,,,,,,,,,
,60eb4a54a50a6ec6af2b7aff,001,2022-04-29_02h01.35.909,classification_task,2021.2.3,Win32,143.9677512,60eb4a54a50a6ec6af2b7aff,626b377229c10585ec392f89,626b38d87f6e04ec512c7dcd,,,,,,,,,,,,,,,,,,,,,,,l,0,0.0223,"[""0.325"",""0.511"",""0.183"",""0.963""]","[1,1,0,1]",0,30,30,30,1,0,0,,,1,FALSE,,,,,,,,,,,,,,,,,,,,,,,,,,,,,,
,60eb4a54a50a6ec6af2b7aff,001,2022-04-29_02h01.35.909,classification_task,2021.2.3,Win32,143.9677512,60eb4a54a50a6ec6af2b7aff,626b377229c10585ec392f89,626b38d87f6e04ec512c7dcd,,,,,,,,,,,,,,,,,,,,,,,l,1,0.1459,"[""0.061"",""0.928"",""0.622"",""0.727""]","[1,0,1,1]",0,31,31,31,1,1,1,,,1,FALSE,,,,,,,,,,,,,,,,,,,,,,,,,,,,,,
,60eb4a54a50a6ec6af2b7aff,001,2022-04-29_02h01.35.909,classification_task,2021.2.3,Win32,143.9677512,60eb4a54a50a6ec6af2b7aff,626b377229c10585ec392f89,626b38d87f6e04ec512c7dcd,,,,,,,,,,,,,,,,,,,,,,,l,0,0.1513,"[""0.224"",""0.376"",""0.176"",""0.844""]","[1,1,0,1]",0,32,32,32,1,0,1,,,1,FALSE,,,,,,,,,,,,,,,,,,,,,,,,,,,,,,
,60eb4a54a50a6ec6af2b7aff,001,2022-04-29_02h01.35.909,classification_task,2021.2.3,Win32,143.9677512,60eb4a54a50a6ec6af2b7aff,626b377229c10585ec392f89,626b38d87f6e04ec512c7dcd,,,,,,,,,,,,,,,,,,,,,,,l,0,0.0753,"[""0.224"",""0.376"",""0.663"",""0.168""]","[1,1,1,0]",0,33,33,33,1,0,1,,,1,FALSE,,,,,,,,,,,,,,,,,,,,,,,,,,,,,,
,60eb4a54a50a6ec6af2b7aff,001,2022-04-29_02h01.35.909,classification_task,2021.2.3,Win32,143.9677512,60eb4a54a50a6ec6af2b7aff,626b377229c10585ec392f89,626b38d87f6e04ec512c7dcd,,,,,,,,,,,,,,,,,,,,,,,a,0,0.075,"[""0.464"",""0.413"",""0.571"",""0.776""]","[0,1,1,1]",0,34,34,34,1,1,0,,,1,FALSE,,,,,,,,,,,,,,,,,,,,,,,,,,,,,,
,60eb4a54a50a6ec6af2b7aff,001,2022-04-29_02h01.35.909,classification_task,2021.2.3,Win32,143.9677512,60eb4a54a50a6ec6af2b7aff,626b377229c10585ec392f89,626b38d87f6e04ec512c7dcd,,,,,,,,,,,,,,,,,,,,,,,a,1,0.0903,"[""0.224"",""0.157"",""0.663"",""0.844""]","[1,0,1,1]",0,35,35,35,1,0,1,,,1,FALSE,,,,,,,,,,,,,,,,,,,,,,,,,,,,,,
,60eb4a54a50a6ec6af2b7aff,001,2022-04-29_02h01.35.909,classification_task,2021.2.3,Win32,143.9677512,60eb4a54a50a6ec6af2b7aff,626b377229c10585ec392f89,626b38d87f6e04ec512c7dcd,,,,,,,,,,,,,,,,,,,,,,,l,0,0.0489,"[""0.325"",""0.511"",""0.893"",""0.166""]","[1,1,1,0]",0,36,36,36,1,0,0,,,1,FALSE,,,,,,,,,,,,,,,,,,,,,,,,,,,,,,
,60eb4a54a50a6ec6af2b7aff,001,2022-04-29_02h01.35.909,classification_task,2021.2.3,Win32,143.9677512,60eb4a54a50a6ec6af2b7aff,626b377229c10585ec392f89,626b38d87f6e04ec512c7dcd,,,,,,,,,,,,,,,,,,,,,,,l,1,0.0548,"[""0.123"",""0.176"",""0.571"",""0.776""]","[1,0,1,1]",0,37,37,37,1,1,0,,,1,FALSE,,,,,,,,,,,,,,,,,,,,,,,,,,,,,,
,60eb4a54a50a6ec6af2b7aff,001,2022-04-29_02h01.35.909,classification_task,2021.2.3,Win32,143.9677512,60eb4a54a50a6ec6af2b7aff,626b377229c10585ec392f89,626b38d87f6e04ec512c7dcd,,,,,,,,,,,,,,,,,,,,,,,l,0,0.0897,"[""0.448"",""0.511"",""0.893"",""0.963""]","[0,1,1,1]",0,38,38,38,1,0,0,,,1,FALSE,,,,,,,,,,,,,,,,,,,,,,,,,,,,,,
,60eb4a54a50a6ec6af2b7aff,001,2022-04-29_02h01.35.909,classification_task,2021.2.3,Win32,143.9677512,60eb4a54a50a6ec6af2b7aff,626b377229c10585ec392f89,626b38d87f6e04ec512c7dcd,,,,,,,,,,,,,,,,,,,,,,,a,1,0.0902,"[""0.325"",""0.511"",""0.183"",""0.963""]","[1,1,0,1]",0,39,39,39,1,0,0,,,1,FALSE,,,,,,,,,,,,,,,,,,,,,,,,,,,,,,
,60eb4a54a50a6ec6af2b7aff,001,2022-04-29_02h01.35.909,classification_task,2021.2.3,Win32,143.9677512,60eb4a54a50a6ec6af2b7aff,626b377229c10585ec392f89,626b38d87f6e04ec512c7dcd,,,,,,,,,,,,,,,,,,,,,,,l,1,0.1174,"[""0.061"",""0.282"",""0.189"",""0.727""]","[1,1,0,1]",0,40,40,40,1,1,1,,,1,FALSE,,,,,,,,,,,,,,,,,,,,,,,,,,,,,,
,60eb4a54a50a6ec6af2b7aff,001,2022-04-29_02h01.35.909,classification_task,2021.2.3,Win32,143.9677512,60eb4a54a50a6ec6af2b7aff,626b377229c10585ec392f89,626b38d87f6e04ec512c7dcd,,,,,,,,,,,,,,,,,,,,,,,a,0,0.0886,"[""0.061"",""0.282"",""0.622"",""0.183""]","[1,1,1,0]",0,41,41,41,1,1,1,,,1,FALSE,,,,,,,,,,,,,,,,,,,,,,,,,,,,,,
,60eb4a54a50a6ec6af2b7aff,001,2022-04-29_02h01.35.909,classification_task,2021.2.3,Win32,143.9677512,60eb4a54a50a6ec6af2b7aff,626b377229c10585ec392f89,626b38d87f6e04ec512c7dcd,,,,,,,,,,,,,,,,,,,,,,,l,1,0.0141,"[""0.123"",""0.413"",""0.448"",""0.776""]","[1,1,0,1]",0,42,42,42,1,1,0,,,1,FALSE,,,,,,,,,,,,,,,,,,,,,,,,,,,,,,
,60eb4a54a50a6ec6af2b7aff,001,2022-04-29_02h01.35.909,classification_task,2021.2.3,Win32,143.9677512,60eb4a54a50a6ec6af2b7aff,626b377229c10585ec392f89,626b38d87f6e04ec512c7dcd,,,,,,,,,,,,,,,,,,,,,,,l,1,0.0193,"[""0.061"",""0.928"",""0.622"",""0.727""]","[1,0,1,1]",0,43,43,43,1,1,1,,,1,FALSE,,,,,,,,,,,,,,,,,,,,,,,,,,,,,,
,60eb4a54a50a6ec6af2b7aff,001,2022-04-29_02h01.35.909,classification_task,2021.2.3,Win32,143.9677512,60eb4a54a50a6ec6af2b7aff,626b377229c10585ec392f89,626b38d87f6e04ec512c7dcd,,,,,,,,,,,,,,,,,,,,,,,l,1,0.0475,"[""0.123"",""0.413"",""0.571"",""0.183""]","[1,1,1,0]",0,44,44,44,1,1,0,,,1,FALSE,,,,,,,,,,,,,,,,,,,,,,,,,,,,,,
,60eb4a54a50a6ec6af2b7aff,001,2022-04-29_02h01.35.909,classification_task,2021.2.3,Win32,143.9677512,60eb4a54a50a6ec6af2b7aff,626b377229c10585ec392f89,626b38d87f6e04ec512c7dcd,,,,,,,,,,,,,,,,,,,,,,,a,1,0.0626,"[""0.325"",""0.166"",""0.893"",""0.963""]","[1,0,1,1]",0,45,45,45,1,0,0,,,1,FALSE,,,,,,,,,,,,,,,,,,,,,,,,,,,,,,
,60eb4a54a50a6ec6af2b7aff,001,2022-04-29_02h01.35.909,classification_task,2021.2.3,Win32,143.9677512,60eb4a54a50a6ec6af2b7aff,626b377229c10585ec392f89,626b38d87f6e04ec512c7dcd,,,,,,,,,,,,,,,,,,,,,,,l,0,0.0667,"[""0.166"",""0.376"",""0.663"",""0.844""]","[0,1,1,1]",0,46,46,46,1,0,1,,,1,FALSE,,,,,,,,,,,,,,,,,,,,,,,,,,,,,,
,60eb4a54a50a6ec6af2b7aff,001,2022-04-29_02h01.35.909,classification_task,2021.2.3,Win32,143.9677512,60eb4a54a50a6ec6af2b7aff,626b377229c10585ec392f89,626b38d87f6e04ec512c7dcd,,,,,,,,,,,,,,,,,,,,,,,a,0,0.0693,"[""0.465"",""0.282"",""0.622"",""0.727""]","[0,1,1,1]",0,47,47,47,1,1,1,,,1,FALSE,,,,,,,,,,,,,,,,,,,,,,,,,,,,,,
,60eb4a54a50a6ec6af2b7aff,001,2022-04-29_02h01.35.909,classification_task,2021.2.3,Win32,143.9677512,60eb4a54a50a6ec6af2b7aff,626b377229c10585ec392f89,626b38d87f6e04ec512c7dcd,,,,,,,,,,,,,,,,,,,,,,,a,1,0.0269,"[""0.224"",""0.376"",""0.663"",""0.183""]","[1,1,1,0]",0,48,48,48,1,0,1,,,1,FALSE,,,,,,,,,,,,,,,,,,,,,,,,,,,,,,
,60eb4a54a50a6ec6af2b7aff,001,2022-04-29_02h01.35.909,classification_task,2021.2.3,Win32,143.9677512,60eb4a54a50a6ec6af2b7aff,626b377229c10585ec392f89,626b38d87f6e04ec512c7dcd,,,,,,,,,,,,,,,,,,,,,,,l,1,0.2587,"[""0.123"",""0.166"",""0.571"",""0.776""]","[1,0,1,1]",0,49,49,49,1,1,0,,,1,FALSE,,,,,,,,,,,,,,,,,,,,,,,,,,,,,,
,60eb4a54a50a6ec6af2b7aff,001,2022-04-29_02h01.35.909,classification_task,2021.2.3,Win32,143.9677512,60eb4a54a50a6ec6af2b7aff,626b377229c10585ec392f89,626b38d87f6e04ec512c7dcd,,,,,,,,,,,,,,,,,,,,,,,l,1,0.0708,"[""0.061"",""0.158"",""0.622"",""0.727""]","[1,0,1,1]",0,50,50,50,1,1,1,,,1,FALSE,,,,,,,,,,,,,,,,,,,,,,,,,,,,,,
,60eb4a54a50a6ec6af2b7aff,001,2022-04-29_02h01.35.909,classification_task,2021.2.3,Win32,143.9677512,60eb4a54a50a6ec6af2b7aff,626b377229c10585ec392f89,626b38d87f6e04ec512c7dcd,,,,,,,,,,,,,,,,,,,,,,,a,1,0.0689,"[""0.453"",""0.376"",""0.663"",""0.844""]","[0,1,1,1]",0,51,51,51,1,0,1,,,1,FALSE,,,,,,,,,,,,,,,,,,,,,,,,,,,,,,
,60eb4a54a50a6ec6af2b7aff,001,2022-04-29_02h01.35.909,classification_task,2021.2.3,Win32,143.9677512,60eb4a54a50a6ec6af2b7aff,626b377229c10585ec392f89,626b38d87f6e04ec512c7dcd,,,,,,,,,,,,,,,,,,,,,,,l,1,0.1357,"[""0.183"",""0.282"",""0.622"",""0.727""]","[0,1,1,1]",0,52,52,52,1,1,1,,,1,FALSE,,,,,,,,,,,,,,,,,,,,,,,,,,,,,,
,60eb4a54a50a6ec6af2b7aff,001,2022-04-29_02h01.35.909,classification_task,2021.2.3,Win32,143.9677512,60eb4a54a50a6ec6af2b7aff,626b377229c10585ec392f89,626b38d87f6e04ec512c7dcd,,,,,,,,,,,,,,,,,,,,,,,l,1,0.0693,"[""0.157"",""0.413"",""0.571"",""0.776""]","[0,1,1,1]",0,53,53,53,1,1,0,,,1,FALSE,,,,,,,,,,,,,,,,,,,,,,,,,,,,,,
,60eb4a54a50a6ec6af2b7aff,001,2022-04-29_02h01.35.909,classification_task,2021.2.3,Win32,143.9677512,60eb4a54a50a6ec6af2b7aff,626b377229c10585ec392f89,626b38d87f6e04ec512c7dcd,,,,,,,,,,,,,,,,,,,,,,,l,1,0.0075,"[""0.123"",""0.413"",""0.464"",""0.776""]","[1,1,0,1]",0,54,54,54,1,1,0,,,1,FALSE,,,,,,,,,,,,,,,,,,,,,,,,,,,,,,
,60eb4a54a50a6ec6af2b7aff,001,2022-04-29_02h01.35.909,classification_task,2021.2.3,Win32,143.9677512,60eb4a54a50a6ec6af2b7aff,626b377229c10585ec392f89,626b38d87f6e04ec512c7dcd,,,,,,,,,,,,,,,,,,,,,,,a,1,0.1106,"[""0.224"",""0.168"",""0.663"",""0.844""]","[1,0,1,1]",0,55,55,55,1,0,1,,,1,FALSE,,,,,,,,,,,,,,,,,,,,,,,,,,,,,,
,60eb4a54a50a6ec6af2b7aff,001,2022-04-29_02h01.35.909,classification_task,2021.2.3,Win32,143.9677512,60eb4a54a50a6ec6af2b7aff,626b377229c10585ec392f89,626b38d87f6e04ec512c7dcd,,,,,,,,,,,,,,,,,,,,,,,l,1,0.0749,"[""0.061"",""0.282"",""0.465"",""0.727""]","[1,1,0,1]",0,56,56,56,1,1,1,,,1,FALSE,,,,,,,,,,,,,,,,,,,,,,,,,,,,,,
,60eb4a54a50a6ec6af2b7aff,001,2022-04-29_02h01.35.909,classification_task,2021.2.3,Win32,143.9677512,60eb4a54a50a6ec6af2b7aff,626b377229c10585ec392f89,626b38d87f6e04ec512c7dcd,,,,,,,,,,,,,,,,,,,,,,,l,0,0.0628,"[""0.325"",""0.511"",""0.465"",""0.963""]","[1,1,0,1]",0,57,57,57,1,0,0,,,1,FALSE,,,,,,,,,,,,,,,,,,,,,,,,,,,,,,
,60eb4a54a50a6ec6af2b7aff,001,2022-04-29_02h01.35.909,classification_task,2021.2.3,Win32,143.9677512,60eb4a54a50a6ec6af2b7aff,626b377229c10585ec392f89,626b38d87f6e04ec512c7dcd,,,,,,,,,,,,,,,,,,,,,,,l,1,0.1123,"[""0.123"",""0.413"",""0.571"",""0.171""]","[1,1,1,0]",0,58,58,58,1,1,0,,,1,FALSE,,,,,,,,,,,,,,,,,,,,,,,,,,,,,,
,60eb4a54a50a6ec6af2b7aff,001,2022-04-29_02h01.35.909,classification_task,2021.2.3,Win32,143.9677512,60eb4a54a50a6ec6af2b7aff,626b377229c10585ec392f89,626b38d87f6e04ec512c7dcd,,,,,,,,,,,,,,,,,,,,,,,a,1,0.1526,"[""0.325"",""0.511"",""0.893"",""0.183""]","[1,1,1,0]",0,59,59,59,1,0,0,,,1,FALSE,,,,,,,,,,,,,,,,,,,,,,,,,,,,,,
,60eb4a54a50a6ec6af2b7aff,001,2022-04-29_02h01.35.909,classification_task,2021.2.3,Win32,143.9677512,60eb4a54a50a6ec6af2b7aff,626b377229c10585ec392f89,626b38d87f6e04ec512c7dcd,,,,,,,,,,,,,,,,,,,,,,,l,0,0.0912,"[""0.168"",""0.511"",""0.893"",""0.963""]","[0,1,1,1]",0,60,60,60,1,0,0,,,1,FALSE,,,,,,,,,,,,,,,,,,,,,,,,,,,,,,
,60eb4a54a50a6ec6af2b7aff,001,2022-04-29_02h01.35.909,classification_task,2021.2.3,Win32,143.9677512,60eb4a54a50a6ec6af2b7aff,626b377229c10585ec392f89,626b38d87f6e04ec512c7dcd,,,,,,,,,,,,,,,,,,,,,,,l,0,0.1108,"[""0.325"",""0.448"",""0.893"",""0.963""]","[1,0,1,1]",0,61,61,61,1,0,0,,,1,FALSE,,,,,,,,,,,,,,,,,,,,,,,,,,,,,,
,60eb4a54a50a6ec6af2b7aff,001,2022-04-29_02h01.35.909,classification_task,2021.2.3,Win32,143.9677512,60eb4a54a50a6ec6af2b7aff,626b377229c10585ec392f89,626b38d87f6e04ec512c7dcd,,,,,,,,,,,,,,,,,,,,,,,l,1,0.1183,"[""0.061"",""0.282"",""0.622"",""0.928""]","[1,1,1,0]",0,62,62,62,1,1,1,,,1,FALSE,,,,,,,,,,,,,,,,,,,,,,,,,,,,,,
,60eb4a54a50a6ec6af2b7aff,001,2022-04-29_02h01.35.909,classification_task,2021.2.3,Win32,143.9677512,60eb4a54a50a6ec6af2b7aff,626b377229c10585ec392f89,626b38d87f6e04ec512c7dcd,,,,,,,,,,,,,,,,,,,,,,,l,0,0.0686,"[""0.224"",""0.376"",""0.183"",""0.844""]","[1,1,0,1]",0,63,63,63,1,0,1,,,1,FALSE,,,,,,,,,,,,,,,,,,,,,,,,,,,,,,
,60eb4a54a50a6ec6af2b7aff,001,2022-04-29_02h01.35.909,classification_task,2021.2.3,Win32,143.9677512,60eb4a54a50a6ec6af2b7aff,626b377229c10585ec392f89,626b38d87f6e04ec512c7dcd,,,,,,,,,,,,,,,,,,,,,,,,,,,,,,,,,,,,,,,0, ,,0,8.049676661,75.6097,0,2,2,2,1,2,3,,,,,,,,,,,,,,,,,
,60eb4a54a50a6ec6af2b7aff,001,2022-04-29_02h01.35.909,classification_task,2021.2.3,Win32,143.9677512,60eb4a54a50a6ec6af2b7aff,626b377229c10585ec392f89,626b38d87f6e04ec512c7dcd,,,,,,,,,,,,,,,,,,,,,,,,,,,,,,,,,,,,,,,1,  ,,0,7.48015873,78.2768,0,2,2,2,1,2,3,,,,,,,,,,,,,,,,,
,60eb4a54a50a6ec6af2b7aff,001,2022-04-29_02h01.35.909,classification_task,2021.2.3,Win32,143.9677512,60eb4a54a50a6ec6af2b7aff,626b377229c10585ec392f89,626b38d87f6e04ec512c7dcd,,,,,,,,,,,,,,,,,,,,,,,,,,,,,,,,,,,,,,,2,  ,,0,6.506466784,79.9782,0,2,2,2,1,2,3,,,,,,,,,,,,,,,,,
,60eb4a54a50a6ec6af2b7aff,001,2022-04-29_02h01.35.909,classification_task,2021.2.3,Win32,143.9677512,60eb4a54a50a6ec6af2b7aff,626b377229c10585ec392f89,626b38d87f6e04ec512c7dcd,,,,,,,,,,,,,,,,,,,,,,,,,,,,,,,,,,,,,,,,,,,,,0,2,2,2,1,,3,,,,,,,,,,,,,,,,,
,60eb4a54a50a6ec6af2b7aff,001,2022-04-29_02h01.35.909,classification_task,2021.2.3,Win32,143.9677512,60eb4a54a50a6ec6af2b7aff,626b377229c10585ec392f89,626b38d87f6e04ec512c7dcd,,,,,,,,,,,,,,,,,,,,,,,,,,,,,,,,,,,,,,,,,,,,,,,,,,,,,I believe the aid is a competent performer,,0.7,0,5,309.8235,0,0,0,0,1,0,,,,
,60eb4a54a50a6ec6af2b7aff,001,2022-04-29_02h01.35.909,classification_task,2021.2.3,Win32,143.9677512,60eb4a54a50a6ec6af2b7aff,626b377229c10585ec392f89,626b38d87f6e04ec512c7dcd,,,,,,,,,,,,,,,,,,,,,,,,,,,,,,,,,,,,,,,,,,,,,,,,,,,,,I trust the aid,,0.7,0,4,311.4437,0,0,0,0,1,0,,,,
,60eb4a54a50a6ec6af2b7aff,001,2022-04-29_02h01.35.909,classification_task,2021.2.3,Win32,143.9677512,60eb4a54a50a6ec6af2b7aff,626b377229c10585ec392f89,626b38d87f6e04ec512c7dcd,,,,,,,,,,,,,,,,,,,,,,,,,,,,,,,,,,,,,,,,,,,,,,,,,,,,,I have confidence in the advice given by the aid,,0.7,0,4,312.129,0,0,0,0,1,0,,,,
,60eb4a54a50a6ec6af2b7aff,001,2022-04-29_02h01.35.909,classification_task,2021.2.3,Win32,143.9677512,60eb4a54a50a6ec6af2b7aff,626b377229c10585ec392f89,626b38d87f6e04ec512c7dcd,,,,,,,,,,,,,,,,,,,,,,,,,,,,,,,,,,,,,,,,,,,,,,,,,,,,,I can depend on the aid,,0.7,0,4,315.3559,0,0,0,0,1,0,,,,
,60eb4a54a50a6ec6af2b7aff,001,2022-04-29_02h01.35.909,classification_task,2021.2.3,Win32,143.9677512,60eb4a54a50a6ec6af2b7aff,626b377229c10585ec392f89,626b38d87f6e04ec512c7dcd,,,,,,,,,,,,,,,,,,,,,,,,,,,,,,,,,,,,,,,,,,,,,,,,,,,,,I can rely on the aid to behave in consistent ways,,0.7,0,3,316.9414,0,0,0,0,1,0,,,,
,60eb4a54a50a6ec6af2b7aff,001,2022-04-29_02h01.35.909,classification_task,2021.2.3,Win32,143.9677512,60eb4a54a50a6ec6af2b7aff,626b377229c10585ec392f89,626b38d87f6e04ec512c7dcd,,,,,,,,,,,,,,,,,,,,,,,,,,,,,,,,,,,,,,,,,,,,,,,,,,,,,I can rely on the aid to do its best every time I take its advice,,0.7,0,4,318.9734,0,0,0,0,1,0,,,,
,60eb4a54a50a6ec6af2b7aff,001,2022-04-29_02h01.35.909,classification_task,2021.2.3,Win32,143.9677512,60eb4a54a50a6ec6af2b7aff,626b377229c10585ec392f89,626b38d87f6e04ec512c7dcd,,,,,,,,,,,,,,,,,,,,,,,,,,,,,,,,,,,,,,,,,,,,,,,,,,,,,"On trials you completed with assistance from the aid, how frequently did you think the aid was correct?",,0.7,0,75,,0,0,0,0,1,0,,,,
,60eb4a54a50a6ec6af2b7aff,001,2022-04-29_02h01.35.909,classification_task,2021.2.3,Win32,143.9677512,60eb4a54a50a6ec6af2b7aff,626b377229c10585ec392f89,626b38d87f6e04ec512c7dcd,,,,,,,,,,,,,,,,,,,,,,,,,,,,,,,,,,,,,,,,,,,,,,,,,,,,,"On trials you completed without the aid, how frequently did you think you were correct?",,0.7,0,80,,0,0,0,0,1,0,,,,
,60eb4a54a50a6ec6af2b7aff,001,2022-04-29_02h01.35.909,classification_task,2021.2.3,Win32,143.9677512,60eb4a54a50a6ec6af2b7aff,626b377229c10585ec392f89,626b38d87f6e04ec512c7dcd,,,,,,,,,,,,,,,,,,,,,,,,,,,,,,,,,,,,,,,,,,,,,,,,,,,,,,,,,,,0,0,0,0,1,,,,,
,60eb4a54a50a6ec6af2b7aff,001,2022-04-29_02h01.35.909,classification_task,2021.2.3,Win32,143.9677512,60eb4a54a50a6ec6af2b7aff,626b377229c10585ec392f89,626b38d87f6e04ec512c7dcd,,,,,,,,,,,,,,,,,,,,,,,,,,,,,,,,,,,,,,,,,,,,,,,,,,,,,,,,,,,,,,,,,space,1.9001,335.8114,
,60eb4a54a50a6ec6af2b7aff,001,2022-04-29_02h01.35.909,classification_task,2021.2.3,Win32,143.9677512,60eb4a54a50a6ec6af2b7aff,626b377229c10585ec392f89,626b38d87f6e04ec512c7dcd,,,,,,,,,,,,,,,,,,,,,,,,,,,,,,,,,,,,,,,,,,,,,,,,,,,,,,,,,,,,,,,,,,,,"Mozilla/5.0 (Windows NT 10.0; Win64; x64) AppleWebKit/537.36 (KHTML, like Gecko) Chrome/98.0.4758.9 Safari/537.36"
