usingWebGL,participant,session,date,expName,psychopyVersion,OS,frameRate,PROLIFIC_PID,STUDY_ID,SESSION_ID,signatures_friend,signatures_foe,band_ranges_top,band_ranges_bottom,formitemText,formtype,formundefined,formitemWidth,formindex,formresponse,formrt,key_resp_2.keys,key_resp_2.rt,tute_resp.keys,tute_resp.rt,tutorial.thisRepN,tutorial.thisTrialN,tutorial.thisN,tutorial.thisIndex,tutorial.ran,key_resp_4.keys,key_resp_4.rt,key_resp.keys,key_resp.corr,lines_presented,is_signal_presented,trials.thisRepN,trials.thisTrialN,trials.thisN,trials.thisIndex,trials.ran,vessel,active_band,lines,is_signal,supported_pos,catch_trial,key_resp.rt,debrief_formindex,debrief_formitemText,debrief_formtype,debrief_formitemWidth,debrief_formresponse,debrief_formrt,phases.thisRepN,phases.thisTrialN,phases.thisN,phases.thisIndex,phases.ran,phases.order,phase,key_resp_3.keys,trustitemText,trusttype,trustitemWidth,trustindex,trustresponse,trustrt,support_status.thisRepN,support_status.thisTrialN,support_status.thisN,support_status.thisIndex,support_status.ran,support_status.order,key_resp_5.keys,key_resp_5.rt,globalClockTime,userAgent
TRUE,60edd43c0e5888230cdd795f,001,2022-04-28_21h00.22.666,classification_task,2021.2.3,Win32,59.80145916,60edd43c0e5888230cdd795f,626b377229c10585ec392f89,626b4675cc0483e5ca12a7d4,,,,,,,,,,,,,,,,,,,,,,,,,,,,,,,,,,,,,,,,,,,,,,,,,,,,,,,,,,,,,,,,,,,,
,60edd43c0e5888230cdd795f,001,2022-04-28_21h00.22.666,classification_task,2021.2.3,Win32,59.80145916,60edd43c0e5888230cdd795f,626b377229c10585ec392f89,626b4675cc0483e5ca12a7d4,"[[""0.222"",""0.562"",""0.881"",""0.965""],[""0.172"",""0.333"",""0.690"",""0.924""]]","[[""0.047"",""0.397"",""0.650"",""0.740""],[""0.122"",""0.278"",""0.527"",""0.827""]]","[1,10]","[100,1000]",Video game experience,,,0.7,0,,,,,,,,,,,,,,,,,,,,,,,,,,,,,,,,,,,,,,,,,,,,,,,,,,,,,,,,,,,
,60edd43c0e5888230cdd795f,001,2022-04-28_21h00.22.666,classification_task,2021.2.3,Win32,59.80145916,60edd43c0e5888230cdd795f,626b377229c10585ec392f89,626b4675cc0483e5ca12a7d4,,,,,Approximately how many hours did you spend playing video games in the last week?,,,0.7,0,15,,,,,,,,,,,,,,,,,,,,,,,,,,,,,,,,,,,,,,,,,,,,,,,,,,,,,,,,,,
,60edd43c0e5888230cdd795f,001,2022-04-28_21h00.22.666,classification_task,2021.2.3,Win32,59.80145916,60edd43c0e5888230cdd795f,626b377229c10585ec392f89,626b4675cc0483e5ca12a7d4,,,,,"Which game did you play the most this year? (Enter ""None"" if you didn't play any)",,,0.7,0,League of legends,,,,,,,,,,,,,,,,,,,,,,,,,,,,,,,,,,,,,,,,,,,,,,,,,,,,,,,,,,
,60edd43c0e5888230cdd795f,001,2022-04-28_21h00.22.666,classification_task,2021.2.3,Win32,59.80145916,60edd43c0e5888230cdd795f,626b377229c10585ec392f89,626b4675cc0483e5ca12a7d4,,,,,Visual perception,,,0.7,0,,,,,,,,,,,,,,,,,,,,,,,,,,,,,,,,,,,,,,,,,,,,,,,,,,,,,,,,,,,
,60edd43c0e5888230cdd795f,001,2022-04-28_21h00.22.666,classification_task,2021.2.3,Win32,59.80145916,60edd43c0e5888230cdd795f,626b377229c10585ec392f89,626b4675cc0483e5ca12a7d4,,,,,Do you have any form of color blindness?,,,0.7,0,No,58.5702,,,,,,,,,,,,,,,,,,,,,,,,,,,,,,,,,,,,,,,,,,,,,,,,,,,,,,,,,
,60edd43c0e5888230cdd795f,001,2022-04-28_21h00.22.666,classification_task,2021.2.3,Win32,59.80145916,60edd43c0e5888230cdd795f,626b377229c10585ec392f89,626b4675cc0483e5ca12a7d4,,,,,Do you use software to change the colour temperature of your screen (e.g. f.lux)?,,,0.7,0,No,62.7422,,,,,,,,,,,,,,,,,,,,,,,,,,,,,,,,,,,,,,,,,,,,,,,,,,,,,,,,,
,60edd43c0e5888230cdd795f,001,2022-04-28_21h00.22.666,classification_task,2021.2.3,Win32,59.80145916,60edd43c0e5888230cdd795f,626b377229c10585ec392f89,626b4675cc0483e5ca12a7d4,,,,,,,,,,,,space,39.0384,space,14.2676,0,0,0,0,1,,,,,,,,,,,,,,,,,,,,,,,,,,,,,,,,,,,,,,,,,,,,,,,,
,60edd43c0e5888230cdd795f,001,2022-04-28_21h00.22.666,classification_task,2021.2.3,Win32,59.80145916,60edd43c0e5888230cdd795f,626b377229c10585ec392f89,626b4675cc0483e5ca12a7d4,,,,,,,,,,,,,,space,9.8621,1,0,1,0,1,,,,,,,,,,,,,,,,,,,,,,,,,,,,,,,,,,,,,,,,,,,,,,,,
,60edd43c0e5888230cdd795f,001,2022-04-28_21h00.22.666,classification_task,2021.2.3,Win32,59.80145916,60edd43c0e5888230cdd795f,626b377229c10585ec392f89,626b4675cc0483e5ca12a7d4,,,,,,,,,,,,,,space,51.0294,2,0,2,0,1,,,,,,,,,,,,,,,,,,,,,,,,,,,,,,,,,,,,,,,,,,,,,,,,
,60edd43c0e5888230cdd795f,001,2022-04-28_21h00.22.666,classification_task,2021.2.3,Win32,59.80145916,60edd43c0e5888230cdd795f,626b377229c10585ec392f89,626b4675cc0483e5ca12a7d4,,,,,,,,,,,,,,space,45.5269,3,0,3,0,1,,,,,,,,,,,,,,,,,,,,,,,,,,,,,,,,,,,,,,,,,,,,,,,,
,60edd43c0e5888230cdd795f,001,2022-04-28_21h00.22.666,classification_task,2021.2.3,Win32,59.80145916,60edd43c0e5888230cdd795f,626b377229c10585ec392f89,626b4675cc0483e5ca12a7d4,,,,,,,,,,,,,,space,26.5999,4,0,4,0,1,,,,,,,,,,,,,,,,,,,,,,,,,,,,,,,,,,,,,,,,,,,,,,,,
,60edd43c0e5888230cdd795f,001,2022-04-28_21h00.22.666,classification_task,2021.2.3,Win32,59.80145916,60edd43c0e5888230cdd795f,626b377229c10585ec392f89,626b4675cc0483e5ca12a7d4,,,,,,,,,,,,,,,,,,,,,space,33.472,,0,"[""0.222"",""0.562"",""0.881"",""0.599""]","[1,1,1,0]",0,0,0,0,1,0,0,,,0,FALSE,,,,,,,,,,,,,,,,,,,,,,,,,,,,,,,
,60edd43c0e5888230cdd795f,001,2022-04-28_21h00.22.666,classification_task,2021.2.3,Win32,59.80145916,60edd43c0e5888230cdd795f,626b377229c10585ec392f89,626b4675cc0483e5ca12a7d4,,,,,,,,,,,,,,,,,,,,,,,l,1,"[""0.489"",""0.278"",""0.527"",""0.827""]","[0,1,1,1]",0,1,1,1,1,1,1,,,0,FALSE,8.7882,,,,,,,,,,,,,,,,,,,,,,,,,,,,,,
,60edd43c0e5888230cdd795f,001,2022-04-28_21h00.22.666,classification_task,2021.2.3,Win32,59.80145916,60edd43c0e5888230cdd795f,626b377229c10585ec392f89,626b4675cc0483e5ca12a7d4,,,,,,,,,,,,,,,,,,,,,,,l,1,"[""0.047"",""0.597"",""0.650"",""0.740""]","[1,0,1,1]",0,2,2,2,1,1,0,,,0,FALSE,4.5577,,,,,,,,,,,,,,,,,,,,,,,,,,,,,,
,60edd43c0e5888230cdd795f,001,2022-04-28_21h00.22.666,classification_task,2021.2.3,Win32,59.80145916,60edd43c0e5888230cdd795f,626b377229c10585ec392f89,626b4675cc0483e5ca12a7d4,,,,,,,,,,,,,,,,,,,,,,,a,1,"[""0.222"",""0.562"",""0.458"",""0.965""]","[1,1,0,1]",0,3,3,3,1,0,0,,,0,FALSE,1.7853,,,,,,,,,,,,,,,,,,,,,,,,,,,,,,
,60edd43c0e5888230cdd795f,001,2022-04-28_21h00.22.666,classification_task,2021.2.3,Win32,59.80145916,60edd43c0e5888230cdd795f,626b377229c10585ec392f89,626b4675cc0483e5ca12a7d4,,,,,,,,,,,,,,,,,,,,,,,a,1,"[""0.458"",""0.333"",""0.690"",""0.924""]","[0,1,1,1]",0,4,4,4,1,0,1,,,0,FALSE,6.5119,,,,,,,,,,,,,,,,,,,,,,,,,,,,,,
,60edd43c0e5888230cdd795f,001,2022-04-28_21h00.22.666,classification_task,2021.2.3,Win32,59.80145916,60edd43c0e5888230cdd795f,626b377229c10585ec392f89,626b4675cc0483e5ca12a7d4,,,,,,,,,,,,,,,,,,,,,,,a,1,"[""0.172"",""0.333"",""0.600"",""0.924""]","[1,1,0,1]",0,5,5,5,1,0,1,,,0,FALSE,2.4566,,,,,,,,,,,,,,,,,,,,,,,,,,,,,,
,60edd43c0e5888230cdd795f,001,2022-04-28_21h00.22.666,classification_task,2021.2.3,Win32,59.80145916,60edd43c0e5888230cdd795f,626b377229c10585ec392f89,626b4675cc0483e5ca12a7d4,,,,,,,,,,,,,,,,,,,,,,,l,1,"[""0.122"",""0.448"",""0.527"",""0.827""]","[1,0,1,1]",0,6,6,6,1,1,1,,,0,FALSE,2.764,,,,,,,,,,,,,,,,,,,,,,,,,,,,,,
,60edd43c0e5888230cdd795f,001,2022-04-28_21h00.22.666,classification_task,2021.2.3,Win32,59.80145916,60edd43c0e5888230cdd795f,626b377229c10585ec392f89,626b4675cc0483e5ca12a7d4,,,,,,,,,,,,,,,,,,,,,,,a,1,"[""0.172"",""0.600"",""0.690"",""0.924""]","[1,0,1,1]",0,7,7,7,1,0,1,,,0,FALSE,3.3525,,,,,,,,,,,,,,,,,,,,,,,,,,,,,,
,60edd43c0e5888230cdd795f,001,2022-04-28_21h00.22.666,classification_task,2021.2.3,Win32,59.80145916,60edd43c0e5888230cdd795f,626b377229c10585ec392f89,626b4675cc0483e5ca12a7d4,,,,,,,,,,,,,,,,,,,,,,,l,1,"[""0.458"",""0.397"",""0.650"",""0.740""]","[0,1,1,1]",0,8,8,8,1,1,0,,,0,FALSE,6.9913,,,,,,,,,,,,,,,,,,,,,,,,,,,,,,
,60edd43c0e5888230cdd795f,001,2022-04-28_21h00.22.666,classification_task,2021.2.3,Win32,59.80145916,60edd43c0e5888230cdd795f,626b377229c10585ec392f89,626b4675cc0483e5ca12a7d4,,,,,,,,,,,,,,,,,,,,,,,a,1,"[""0.172"",""0.333"",""0.690"",""0.605""]","[1,1,1,0]",0,9,9,9,1,0,1,,,0,FALSE,2.9378,,,,,,,,,,,,,,,,,,,,,,,,,,,,,,
,60edd43c0e5888230cdd795f,001,2022-04-28_21h00.22.666,classification_task,2021.2.3,Win32,59.80145916,60edd43c0e5888230cdd795f,626b377229c10585ec392f89,626b4675cc0483e5ca12a7d4,,,,,,,,,,,,,,,,,,,,,,,l,1,"[""0.122"",""0.278"",""0.527"",""0.465""]","[1,1,1,0]",0,10,10,10,1,1,1,,,0,FALSE,7.149,,,,,,,,,,,,,,,,,,,,,,,,,,,,,,
,60edd43c0e5888230cdd795f,001,2022-04-28_21h00.22.666,classification_task,2021.2.3,Win32,59.80145916,60edd43c0e5888230cdd795f,626b377229c10585ec392f89,626b4675cc0483e5ca12a7d4,,,,,,,,,,,,,,,,,,,,,,,l,1,"[""0.047"",""0.397"",""0.650"",""0.458""]","[1,1,1,0]",0,11,11,11,1,1,0,,,0,FALSE,3.2963,,,,,,,,,,,,,,,,,,,,,,,,,,,,,,
,60edd43c0e5888230cdd795f,001,2022-04-28_21h00.22.666,classification_task,2021.2.3,Win32,59.80145916,60edd43c0e5888230cdd795f,626b377229c10585ec392f89,626b4675cc0483e5ca12a7d4,,,,,,,,,,,,,,,,,,,,,,,l,1,"[""0.122"",""0.278"",""0.436"",""0.827""]","[1,1,0,1]",0,12,12,12,1,1,1,,,0,FALSE,2.5115,,,,,,,,,,,,,,,,,,,,,,,,,,,,,,
,60edd43c0e5888230cdd795f,001,2022-04-28_21h00.22.666,classification_task,2021.2.3,Win32,59.80145916,60edd43c0e5888230cdd795f,626b377229c10585ec392f89,626b4675cc0483e5ca12a7d4,,,,,,,,,,,,,,,,,,,,,,,l,1,"[""0.047"",""0.397"",""0.600"",""0.740""]","[1,1,0,1]",0,13,13,13,1,1,0,,,0,FALSE,1.8102,,,,,,,,,,,,,,,,,,,,,,,,,,,,,,
,60edd43c0e5888230cdd795f,001,2022-04-28_21h00.22.666,classification_task,2021.2.3,Win32,59.80145916,60edd43c0e5888230cdd795f,626b377229c10585ec392f89,626b4675cc0483e5ca12a7d4,,,,,,,,,,,,,,,,,,,,,,,a,1,"[""0.222"",""0.598"",""0.881"",""0.965""]","[1,0,1,1]",0,14,14,14,1,0,0,,,0,FALSE,1.1593,,,,,,,,,,,,,,,,,,,,,,,,,,,,,,
,60edd43c0e5888230cdd795f,001,2022-04-28_21h00.22.666,classification_task,2021.2.3,Win32,59.80145916,60edd43c0e5888230cdd795f,626b377229c10585ec392f89,626b4675cc0483e5ca12a7d4,,,,,,,,,,,,,,,,,,,,,,,a,1,"[""0.458"",""0.562"",""0.881"",""0.965""]","[0,1,1,1]",0,15,15,15,1,0,0,,,0,FALSE,5.0853,,,,,,,,,,,,,,,,,,,,,,,,,,,,,,
,60edd43c0e5888230cdd795f,001,2022-04-28_21h00.22.666,classification_task,2021.2.3,Win32,59.80145916,60edd43c0e5888230cdd795f,626b377229c10585ec392f89,626b4675cc0483e5ca12a7d4,,,,,,,,,,,,,,,,,,,,,,,l,1,"[""0.122"",""0.465"",""0.527"",""0.827""]","[1,0,1,1]",0,16,16,16,1,1,1,,,0,FALSE,1.6269,,,,,,,,,,,,,,,,,,,,,,,,,,,,,,
,60edd43c0e5888230cdd795f,001,2022-04-28_21h00.22.666,classification_task,2021.2.3,Win32,59.80145916,60edd43c0e5888230cdd795f,626b377229c10585ec392f89,626b4675cc0483e5ca12a7d4,,,,,,,,,,,,,,,,,,,,,,,a,1,"[""0.172"",""0.333"",""0.600"",""0.924""]","[1,1,0,1]",0,17,17,17,1,0,1,,,0,FALSE,1.3327,,,,,,,,,,,,,,,,,,,,,,,,,,,,,,
,60edd43c0e5888230cdd795f,001,2022-04-28_21h00.22.666,classification_task,2021.2.3,Win32,59.80145916,60edd43c0e5888230cdd795f,626b377229c10585ec392f89,626b4675cc0483e5ca12a7d4,,,,,,,,,,,,,,,,,,,,,,,l,1,"[""0.777"",""0.397"",""0.650"",""0.740""]","[0,1,1,1]",0,18,18,18,1,1,0,,,0,FALSE,3.1254,,,,,,,,,,,,,,,,,,,,,,,,,,,,,,
,60edd43c0e5888230cdd795f,001,2022-04-28_21h00.22.666,classification_task,2021.2.3,Win32,59.80145916,60edd43c0e5888230cdd795f,626b377229c10585ec392f89,626b4675cc0483e5ca12a7d4,,,,,,,,,,,,,,,,,,,,,,,a,1,"[""0.604"",""0.333"",""0.690"",""0.924""]","[0,1,1,1]",0,19,19,19,1,0,1,,,0,FALSE,4.0043,,,,,,,,,,,,,,,,,,,,,,,,,,,,,,
,60edd43c0e5888230cdd795f,001,2022-04-28_21h00.22.666,classification_task,2021.2.3,Win32,59.80145916,60edd43c0e5888230cdd795f,626b377229c10585ec392f89,626b4675cc0483e5ca12a7d4,,,,,,,,,,,,,,,,,,,,,,,a,1,"[""0.222"",""0.489"",""0.881"",""0.965""]","[1,0,1,1]",0,20,20,20,1,0,0,,,0,FALSE,1.5608,,,,,,,,,,,,,,,,,,,,,,,,,,,,,,
,60edd43c0e5888230cdd795f,001,2022-04-28_21h00.22.666,classification_task,2021.2.3,Win32,59.80145916,60edd43c0e5888230cdd795f,626b377229c10585ec392f89,626b4675cc0483e5ca12a7d4,,,,,,,,,,,,,,,,,,,,,,,a,1,"[""0.222"",""0.562"",""0.881"",""0.777""]","[1,1,1,0]",0,21,21,21,1,0,0,,,0,FALSE,1.1175,,,,,,,,,,,,,,,,,,,,,,,,,,,,,,
,60edd43c0e5888230cdd795f,001,2022-04-28_21h00.22.666,classification_task,2021.2.3,Win32,59.80145916,60edd43c0e5888230cdd795f,626b377229c10585ec392f89,626b4675cc0483e5ca12a7d4,,,,,,,,,,,,,,,,,,,,,,,l,1,"[""0.604"",""0.278"",""0.527"",""0.827""]","[0,1,1,1]",0,22,22,22,1,1,1,,,0,FALSE,5.0891,,,,,,,,,,,,,,,,,,,,,,,,,,,,,,
,60edd43c0e5888230cdd795f,001,2022-04-28_21h00.22.666,classification_task,2021.2.3,Win32,59.80145916,60edd43c0e5888230cdd795f,626b377229c10585ec392f89,626b4675cc0483e5ca12a7d4,,,,,,,,,,,,,,,,,,,,,,,l,1,"[""0.122"",""0.278"",""0.440"",""0.827""]","[1,1,0,1]",0,23,23,23,1,1,1,,,0,FALSE,2.3143,,,,,,,,,,,,,,,,,,,,,,,,,,,,,,
,60edd43c0e5888230cdd795f,001,2022-04-28_21h00.22.666,classification_task,2021.2.3,Win32,59.80145916,60edd43c0e5888230cdd795f,626b377229c10585ec392f89,626b4675cc0483e5ca12a7d4,,,,,,,,,,,,,,,,,,,,,,,a,1,"[""0.222"",""0.562"",""0.458"",""0.965""]","[1,1,0,1]",0,24,24,24,1,0,0,,,0,FALSE,1.3563,,,,,,,,,,,,,,,,,,,,,,,,,,,,,,
,60edd43c0e5888230cdd795f,001,2022-04-28_21h00.22.666,classification_task,2021.2.3,Win32,59.80145916,60edd43c0e5888230cdd795f,626b377229c10585ec392f89,626b4675cc0483e5ca12a7d4,,,,,,,,,,,,,,,,,,,,,,,l,1,"[""0.047"",""0.397"",""0.598"",""0.740""]","[1,1,0,1]",0,25,25,25,1,1,0,,,0,FALSE,1.5032,,,,,,,,,,,,,,,,,,,,,,,,,,,,,,
,60edd43c0e5888230cdd795f,001,2022-04-28_21h00.22.666,classification_task,2021.2.3,Win32,59.80145916,60edd43c0e5888230cdd795f,626b377229c10585ec392f89,626b4675cc0483e5ca12a7d4,,,,,,,,,,,,,,,,,,,,,,,l,1,"[""0.047"",""0.465"",""0.650"",""0.740""]","[1,0,1,1]",0,26,26,26,1,1,0,,,0,FALSE,0.9955,,,,,,,,,,,,,,,,,,,,,,,,,,,,,,
,60edd43c0e5888230cdd795f,001,2022-04-28_21h00.22.666,classification_task,2021.2.3,Win32,59.80145916,60edd43c0e5888230cdd795f,626b377229c10585ec392f89,626b4675cc0483e5ca12a7d4,,,,,,,,,,,,,,,,,,,,,,,a,1,"[""0.172"",""0.333"",""0.690"",""0.598""]","[1,1,1,0]",0,27,27,27,1,0,1,,,0,FALSE,2.0972,,,,,,,,,,,,,,,,,,,,,,,,,,,,,,
,60edd43c0e5888230cdd795f,001,2022-04-28_21h00.22.666,classification_task,2021.2.3,Win32,59.80145916,60edd43c0e5888230cdd795f,626b377229c10585ec392f89,626b4675cc0483e5ca12a7d4,,,,,,,,,,,,,,,,,,,,,,,a,1,"[""0.172"",""0.613"",""0.690"",""0.924""]","[1,0,1,1]",0,28,28,28,1,0,1,,,0,FALSE,1.0139,,,,,,,,,,,,,,,,,,,,,,,,,,,,,,
,60edd43c0e5888230cdd795f,001,2022-04-28_21h00.22.666,classification_task,2021.2.3,Win32,59.80145916,60edd43c0e5888230cdd795f,626b377229c10585ec392f89,626b4675cc0483e5ca12a7d4,,,,,,,,,,,,,,,,,,,,,,,l,1,"[""0.047"",""0.397"",""0.650"",""0.599""]","[1,1,1,0]",0,29,29,29,1,1,0,,,0,FALSE,1.0346,,,,,,,,,,,,,,,,,,,,,,,,,,,,,,
,60edd43c0e5888230cdd795f,001,2022-04-28_21h00.22.666,classification_task,2021.2.3,Win32,59.80145916,60edd43c0e5888230cdd795f,626b377229c10585ec392f89,626b4675cc0483e5ca12a7d4,,,,,,,,,,,,,,,,,,,,,,,l,1,"[""0.122"",""0.278"",""0.527"",""0.605""]","[1,1,1,0]",0,30,30,30,1,1,1,,,0,FALSE,1.4323,,,,,,,,,,,,,,,,,,,,,,,,,,,,,,
,60edd43c0e5888230cdd795f,001,2022-04-28_21h00.22.666,classification_task,2021.2.3,Win32,59.80145916,60edd43c0e5888230cdd795f,626b377229c10585ec392f89,626b4675cc0483e5ca12a7d4,,,,,,,,,,,,,,,,,,,,,,,a,1,"[""0.482"",""0.562"",""0.881"",""0.965""]","[0,1,1,1]",0,31,31,31,1,0,0,,,0,FALSE,6.6986,,,,,,,,,,,,,,,,,,,,,,,,,,,,,,
,60edd43c0e5888230cdd795f,001,2022-04-28_21h00.22.666,classification_task,2021.2.3,Win32,59.80145916,60edd43c0e5888230cdd795f,626b377229c10585ec392f89,626b4675cc0483e5ca12a7d4,,,,,,,,,,,,,,,,,,,,,,,a,1,"[""0.082"",""0.333"",""0.690"",""0.924""]","[0,1,1,1]",0,32,32,32,1,0,1,,,0,FALSE,4.2113,,,,,,,,,,,,,,,,,,,,,,,,,,,,,,
,60edd43c0e5888230cdd795f,001,2022-04-28_21h00.22.666,classification_task,2021.2.3,Win32,59.80145916,60edd43c0e5888230cdd795f,626b377229c10585ec392f89,626b4675cc0483e5ca12a7d4,,,,,,,,,,,,,,,,,,,,,,,a,1,"[""0.222"",""0.562"",""0.458"",""0.965""]","[1,1,0,1]",0,33,33,33,1,0,0,,,0,FALSE,1.123,,,,,,,,,,,,,,,,,,,,,,,,,,,,,,
,60edd43c0e5888230cdd795f,001,2022-04-28_21h00.22.666,classification_task,2021.2.3,Win32,59.80145916,60edd43c0e5888230cdd795f,626b377229c10585ec392f89,626b4675cc0483e5ca12a7d4,,,,,,,,,,,,,,,,,,,,,,,a,1,"[""0.172"",""0.333"",""0.690"",""0.597""]","[1,1,1,0]",0,34,34,34,1,0,1,,,0,FALSE,1.6347,,,,,,,,,,,,,,,,,,,,,,,,,,,,,,
,60edd43c0e5888230cdd795f,001,2022-04-28_21h00.22.666,classification_task,2021.2.3,Win32,59.80145916,60edd43c0e5888230cdd795f,626b377229c10585ec392f89,626b4675cc0483e5ca12a7d4,,,,,,,,,,,,,,,,,,,,,,,l,1,"[""0.047"",""0.397"",""0.489"",""0.740""]","[1,1,0,1]",0,35,35,35,1,1,0,,,0,FALSE,1.1504,,,,,,,,,,,,,,,,,,,,,,,,,,,,,,
,60edd43c0e5888230cdd795f,001,2022-04-28_21h00.22.666,classification_task,2021.2.3,Win32,59.80145916,60edd43c0e5888230cdd795f,626b377229c10585ec392f89,626b4675cc0483e5ca12a7d4,,,,,,,,,,,,,,,,,,,,,,,l,1,"[""0.047"",""0.397"",""0.650"",""0.598""]","[1,1,1,0]",0,36,36,36,1,1,0,,,0,FALSE,0.7527,,,,,,,,,,,,,,,,,,,,,,,,,,,,,,
,60edd43c0e5888230cdd795f,001,2022-04-28_21h00.22.666,classification_task,2021.2.3,Win32,59.80145916,60edd43c0e5888230cdd795f,626b377229c10585ec392f89,626b4675cc0483e5ca12a7d4,,,,,,,,,,,,,,,,,,,,,,,l,1,"[""0.440"",""0.278"",""0.527"",""0.827""]","[0,1,1,1]",0,37,37,37,1,1,1,,,0,FALSE,2.5843,,,,,,,,,,,,,,,,,,,,,,,,,,,,,,
,60edd43c0e5888230cdd795f,001,2022-04-28_21h00.22.666,classification_task,2021.2.3,Win32,59.80145916,60edd43c0e5888230cdd795f,626b377229c10585ec392f89,626b4675cc0483e5ca12a7d4,,,,,,,,,,,,,,,,,,,,,,,l,1,"[""0.122"",""0.278"",""0.599"",""0.827""]","[1,1,0,1]",0,38,38,38,1,1,1,,,0,FALSE,1.7236,,,,,,,,,,,,,,,,,,,,,,,,,,,,,,
,60edd43c0e5888230cdd795f,001,2022-04-28_21h00.22.666,classification_task,2021.2.3,Win32,59.80145916,60edd43c0e5888230cdd795f,626b377229c10585ec392f89,626b4675cc0483e5ca12a7d4,,,,,,,,,,,,,,,,,,,,,,,a,1,"[""0.222"",""0.562"",""0.881"",""0.598""]","[1,1,1,0]",0,39,39,39,1,0,0,,,0,FALSE,1.0343,,,,,,,,,,,,,,,,,,,,,,,,,,,,,,
,60edd43c0e5888230cdd795f,001,2022-04-28_21h00.22.666,classification_task,2021.2.3,Win32,59.80145916,60edd43c0e5888230cdd795f,626b377229c10585ec392f89,626b4675cc0483e5ca12a7d4,,,,,,,,,,,,,,,,,,,,,,,a,1,"[""0.172"",""0.333"",""0.482"",""0.924""]","[1,1,0,1]",0,40,40,40,1,0,1,,,0,FALSE,1.1194,,,,,,,,,,,,,,,,,,,,,,,,,,,,,,
,60edd43c0e5888230cdd795f,001,2022-04-28_21h00.22.666,classification_task,2021.2.3,Win32,59.80145916,60edd43c0e5888230cdd795f,626b377229c10585ec392f89,626b4675cc0483e5ca12a7d4,,,,,,,,,,,,,,,,,,,,,,,l,1,"[""0.047"",""0.465"",""0.650"",""0.740""]","[1,0,1,1]",0,41,41,41,1,1,0,,,0,FALSE,1.0004,,,,,,,,,,,,,,,,,,,,,,,,,,,,,,
,60edd43c0e5888230cdd795f,001,2022-04-28_21h00.22.666,classification_task,2021.2.3,Win32,59.80145916,60edd43c0e5888230cdd795f,626b377229c10585ec392f89,626b4675cc0483e5ca12a7d4,,,,,,,,,,,,,,,,,,,,,,,a,1,"[""0.172"",""0.604"",""0.690"",""0.924""]","[1,0,1,1]",0,42,42,42,1,0,1,,,0,FALSE,2.5012,,,,,,,,,,,,,,,,,,,,,,,,,,,,,,
,60edd43c0e5888230cdd795f,001,2022-04-28_21h00.22.666,classification_task,2021.2.3,Win32,59.80145916,60edd43c0e5888230cdd795f,626b377229c10585ec392f89,626b4675cc0483e5ca12a7d4,,,,,,,,,,,,,,,,,,,,,,,a,1,"[""0.222"",""0.605"",""0.881"",""0.965""]","[1,0,1,1]",0,43,43,43,1,0,0,,,0,FALSE,0.7645,,,,,,,,,,,,,,,,,,,,,,,,,,,,,,
,60edd43c0e5888230cdd795f,001,2022-04-28_21h00.22.666,classification_task,2021.2.3,Win32,59.80145916,60edd43c0e5888230cdd795f,626b377229c10585ec392f89,626b4675cc0483e5ca12a7d4,,,,,,,,,,,,,,,,,,,,,,,l,1,"[""0.122"",""0.278"",""0.527"",""0.777""]","[1,1,1,0]",0,44,44,44,1,1,1,,,0,FALSE,0.9043,,,,,,,,,,,,,,,,,,,,,,,,,,,,,,
,60edd43c0e5888230cdd795f,001,2022-04-28_21h00.22.666,classification_task,2021.2.3,Win32,59.80145916,60edd43c0e5888230cdd795f,626b377229c10585ec392f89,626b4675cc0483e5ca12a7d4,,,,,,,,,,,,,,,,,,,,,,,l,1,"[""0.458"",""0.397"",""0.650"",""0.740""]","[0,1,1,1]",0,45,45,45,1,1,0,,,0,FALSE,7.6725,,,,,,,,,,,,,,,,,,,,,,,,,,,,,,
,60edd43c0e5888230cdd795f,001,2022-04-28_21h00.22.666,classification_task,2021.2.3,Win32,59.80145916,60edd43c0e5888230cdd795f,626b377229c10585ec392f89,626b4675cc0483e5ca12a7d4,,,,,,,,,,,,,,,,,,,,,,,a,1,"[""0.448"",""0.562"",""0.881"",""0.965""]","[0,1,1,1]",0,46,46,46,1,0,0,,,0,FALSE,4.0154,,,,,,,,,,,,,,,,,,,,,,,,,,,,,,
,60edd43c0e5888230cdd795f,001,2022-04-28_21h00.22.666,classification_task,2021.2.3,Win32,59.80145916,60edd43c0e5888230cdd795f,626b377229c10585ec392f89,626b4675cc0483e5ca12a7d4,,,,,,,,,,,,,,,,,,,,,,,l,1,"[""0.122"",""0.597"",""0.527"",""0.827""]","[1,0,1,1]",0,47,47,47,1,1,1,,,0,FALSE,1.2667,,,,,,,,,,,,,,,,,,,,,,,,,,,,,,
,60edd43c0e5888230cdd795f,001,2022-04-28_21h00.22.666,classification_task,2021.2.3,Win32,59.80145916,60edd43c0e5888230cdd795f,626b377229c10585ec392f89,626b4675cc0483e5ca12a7d4,,,,,,,,,,,,,,,,,,,,,,,l,1,"[""0.122"",""0.278"",""0.527"",""0.598""]","[1,1,1,0]",0,48,48,48,1,1,1,,,0,FALSE,0.8843,,,,,,,,,,,,,,,,,,,,,,,,,,,,,,
,60edd43c0e5888230cdd795f,001,2022-04-28_21h00.22.666,classification_task,2021.2.3,Win32,59.80145916,60edd43c0e5888230cdd795f,626b377229c10585ec392f89,626b4675cc0483e5ca12a7d4,,,,,,,,,,,,,,,,,,,,,,,l,1,"[""0.122"",""0.082"",""0.527"",""0.827""]","[1,0,1,1]",0,49,49,49,1,1,1,,,0,FALSE,3.4846,,,,,,,,,,,,,,,,,,,,,,,,,,,,,,
,60edd43c0e5888230cdd795f,001,2022-04-28_21h00.22.666,classification_task,2021.2.3,Win32,59.80145916,60edd43c0e5888230cdd795f,626b377229c10585ec392f89,626b4675cc0483e5ca12a7d4,,,,,,,,,,,,,,,,,,,,,,,a,1,"[""0.605"",""0.562"",""0.881"",""0.965""]","[0,1,1,1]",0,50,50,50,1,0,0,,,0,FALSE,3.7163,,,,,,,,,,,,,,,,,,,,,,,,,,,,,,
,60edd43c0e5888230cdd795f,001,2022-04-28_21h00.22.666,classification_task,2021.2.3,Win32,59.80145916,60edd43c0e5888230cdd795f,626b377229c10585ec392f89,626b4675cc0483e5ca12a7d4,,,,,,,,,,,,,,,,,,,,,,,a,1,"[""0.172"",""0.333"",""0.458"",""0.924""]","[1,1,0,1]",0,51,51,51,1,0,1,,,0,FALSE,1.1996,,,,,,,,,,,,,,,,,,,,,,,,,,,,,,
,60edd43c0e5888230cdd795f,001,2022-04-28_21h00.22.666,classification_task,2021.2.3,Win32,59.80145916,60edd43c0e5888230cdd795f,626b377229c10585ec392f89,626b4675cc0483e5ca12a7d4,,,,,,,,,,,,,,,,,,,,,,,l,1,"[""0.600"",""0.397"",""0.650"",""0.740""]","[0,1,1,1]",0,52,52,52,1,1,0,,,0,FALSE,1.649,,,,,,,,,,,,,,,,,,,,,,,,,,,,,,
,60edd43c0e5888230cdd795f,001,2022-04-28_21h00.22.666,classification_task,2021.2.3,Win32,59.80145916,60edd43c0e5888230cdd795f,626b377229c10585ec392f89,626b4675cc0483e5ca12a7d4,,,,,,,,,,,,,,,,,,,,,,,a,1,"[""0.222"",""0.436"",""0.881"",""0.965""]","[1,0,1,1]",0,53,53,53,1,0,0,,,0,FALSE,0.8012,,,,,,,,,,,,,,,,,,,,,,,,,,,,,,
,60edd43c0e5888230cdd795f,001,2022-04-28_21h00.22.666,classification_task,2021.2.3,Win32,59.80145916,60edd43c0e5888230cdd795f,626b377229c10585ec392f89,626b4675cc0483e5ca12a7d4,,,,,,,,,,,,,,,,,,,,,,,l,1,"[""0.047"",""0.397"",""0.650"",""0.604""]","[1,1,1,0]",0,54,54,54,1,1,0,,,0,FALSE,1.3028,,,,,,,,,,,,,,,,,,,,,,,,,,,,,,
,60edd43c0e5888230cdd795f,001,2022-04-28_21h00.22.666,classification_task,2021.2.3,Win32,59.80145916,60edd43c0e5888230cdd795f,626b377229c10585ec392f89,626b4675cc0483e5ca12a7d4,,,,,,,,,,,,,,,,,,,,,,,a,1,"[""0.172"",""0.333"",""0.690"",""0.436""]","[1,1,1,0]",0,55,55,55,1,0,1,,,0,FALSE,1.1021,,,,,,,,,,,,,,,,,,,,,,,,,,,,,,
,60edd43c0e5888230cdd795f,001,2022-04-28_21h00.22.666,classification_task,2021.2.3,Win32,59.80145916,60edd43c0e5888230cdd795f,626b377229c10585ec392f89,626b4675cc0483e5ca12a7d4,,,,,,,,,,,,,,,,,,,,,,,l,0,"[""0.597"",""0.333"",""0.690"",""0.924""]","[0,1,1,1]",0,56,56,56,1,0,1,,,0,FALSE,1.7184,,,,,,,,,,,,,,,,,,,,,,,,,,,,,,
,60edd43c0e5888230cdd795f,001,2022-04-28_21h00.22.666,classification_task,2021.2.3,Win32,59.80145916,60edd43c0e5888230cdd795f,626b377229c10585ec392f89,626b4675cc0483e5ca12a7d4,,,,,,,,,,,,,,,,,,,,,,,l,1,"[""0.047"",""0.082"",""0.650"",""0.740""]","[1,0,1,1]",0,57,57,57,1,1,0,,,0,FALSE,1.4037,,,,,,,,,,,,,,,,,,,,,,,,,,,,,,
,60edd43c0e5888230cdd795f,001,2022-04-28_21h00.22.666,classification_task,2021.2.3,Win32,59.80145916,60edd43c0e5888230cdd795f,626b377229c10585ec392f89,626b4675cc0483e5ca12a7d4,,,,,,,,,,,,,,,,,,,,,,,a,1,"[""0.172"",""0.598"",""0.690"",""0.924""]","[1,0,1,1]",0,58,58,58,1,0,1,,,0,FALSE,1.1313,,,,,,,,,,,,,,,,,,,,,,,,,,,,,,
,60edd43c0e5888230cdd795f,001,2022-04-28_21h00.22.666,classification_task,2021.2.3,Win32,59.80145916,60edd43c0e5888230cdd795f,626b377229c10585ec392f89,626b4675cc0483e5ca12a7d4,,,,,,,,,,,,,,,,,,,,,,,l,1,"[""0.047"",""0.397"",""0.600"",""0.740""]","[1,1,0,1]",0,59,59,59,1,1,0,,,0,FALSE,1.2541,,,,,,,,,,,,,,,,,,,,,,,,,,,,,,
,60edd43c0e5888230cdd795f,001,2022-04-28_21h00.22.666,classification_task,2021.2.3,Win32,59.80145916,60edd43c0e5888230cdd795f,626b377229c10585ec392f89,626b4675cc0483e5ca12a7d4,,,,,,,,,,,,,,,,,,,,,,,l,1,"[""0.600"",""0.278"",""0.527"",""0.827""]","[0,1,1,1]",0,60,60,60,1,1,1,,,0,FALSE,1.6363,,,,,,,,,,,,,,,,,,,,,,,,,,,,,,
,60edd43c0e5888230cdd795f,001,2022-04-28_21h00.22.666,classification_task,2021.2.3,Win32,59.80145916,60edd43c0e5888230cdd795f,626b377229c10585ec392f89,626b4675cc0483e5ca12a7d4,,,,,,,,,,,,,,,,,,,,,,,l,1,"[""0.122"",""0.278"",""0.448"",""0.827""]","[1,1,0,1]",0,61,61,61,1,1,1,,,0,FALSE,1.6349,,,,,,,,,,,,,,,,,,,,,,,,,,,,,,
,60edd43c0e5888230cdd795f,001,2022-04-28_21h00.22.666,classification_task,2021.2.3,Win32,59.80145916,60edd43c0e5888230cdd795f,626b377229c10585ec392f89,626b4675cc0483e5ca12a7d4,,,,,,,,,,,,,,,,,,,,,,,a,1,"[""0.222"",""0.562"",""0.881"",""0.489""]","[1,1,1,0]",0,62,62,62,1,0,0,,,0,FALSE,0.9201,,,,,,,,,,,,,,,,,,,,,,,,,,,,,,
,60edd43c0e5888230cdd795f,001,2022-04-28_21h00.22.666,classification_task,2021.2.3,Win32,59.80145916,60edd43c0e5888230cdd795f,626b377229c10585ec392f89,626b4675cc0483e5ca12a7d4,,,,,,,,,,,,,,,,,,,,,,,a,1,"[""0.222"",""0.562"",""0.598"",""0.965""]","[1,1,0,1]",0,63,63,63,1,0,0,,,0,FALSE,0.9859,,,,,,,,,,,,,,,,,,,,,,,,,,,,,,
,60edd43c0e5888230cdd795f,001,2022-04-28_21h00.22.666,classification_task,2021.2.3,Win32,59.80145916,60edd43c0e5888230cdd795f,626b377229c10585ec392f89,626b4675cc0483e5ca12a7d4,,,,,,,,,,,,,,,,,,,,,,,,,,,,,,,,,,,,,,,0, ,,0,8.272431658,542.554,0,0,0,0,1,2,1,,,,,,,,,,,,,,,,,
,60edd43c0e5888230cdd795f,001,2022-04-28_21h00.22.666,classification_task,2021.2.3,Win32,59.80145916,60edd43c0e5888230cdd795f,626b377229c10585ec392f89,626b4675cc0483e5ca12a7d4,,,,,,,,,,,,,,,,,,,,,,,,,,,,,,,,,,,,,,,1,  ,,0,0.72861552,551.8674,0,0,0,0,1,2,1,,,,,,,,,,,,,,,,,
,60edd43c0e5888230cdd795f,001,2022-04-28_21h00.22.666,classification_task,2021.2.3,Win32,59.80145916,60edd43c0e5888230cdd795f,626b377229c10585ec392f89,626b4675cc0483e5ca12a7d4,,,,,,,,,,,,,,,,,,,,,,,,,,,,,,,,,,,,,,,2,  ,,0,6.894565697,563.6692,0,0,0,0,1,2,1,,,,,,,,,,,,,,,,,
,60edd43c0e5888230cdd795f,001,2022-04-28_21h00.22.666,classification_task,2021.2.3,Win32,59.80145916,60edd43c0e5888230cdd795f,626b377229c10585ec392f89,626b4675cc0483e5ca12a7d4,,,,,,,,,,,,,,,,,,,,,,,,,,,,,,,,,,,,,,,,,,,,,0,0,0,0,1,,1,,,,,,,,,,,,,,,,,
,60edd43c0e5888230cdd795f,001,2022-04-28_21h00.22.666,classification_task,2021.2.3,Win32,59.80145916,60edd43c0e5888230cdd795f,626b377229c10585ec392f89,626b4675cc0483e5ca12a7d4,,,,,,,,,,,,,,,,,,,,,space,22.5189,l,1,"[""0.122"",""0.278"",""0.527"",""0.489""]","[1,1,1,0]",0,0,0,0,1,1,1,,,0,FALSE,4.3598,,,,,,,,,,,,,,,,,,,,,,,,,,,,,,
,60edd43c0e5888230cdd795f,001,2022-04-28_21h00.22.666,classification_task,2021.2.3,Win32,59.80145916,60edd43c0e5888230cdd795f,626b377229c10585ec392f89,626b4675cc0483e5ca12a7d4,,,,,,,,,,,,,,,,,,,,,,,a,1,"[""0.172"",""0.333"",""0.690"",""0.440""]","[1,1,1,0]",0,1,1,1,1,0,1,,,0,FALSE,1.2793,,,,,,,,,,,,,,,,,,,,,,,,,,,,,,
,60edd43c0e5888230cdd795f,001,2022-04-28_21h00.22.666,classification_task,2021.2.3,Win32,59.80145916,60edd43c0e5888230cdd795f,626b377229c10585ec392f89,626b4675cc0483e5ca12a7d4,,,,,,,,,,,,,,,,,,,,,,,l,1,"[""0.047"",""0.448"",""0.650"",""0.740""]","[1,0,1,1]",0,2,2,2,1,1,0,,,0,FALSE,1.0886,,,,,,,,,,,,,,,,,,,,,,,,,,,,,,
,60edd43c0e5888230cdd795f,001,2022-04-28_21h00.22.666,classification_task,2021.2.3,Win32,59.80145916,60edd43c0e5888230cdd795f,626b377229c10585ec392f89,626b4675cc0483e5ca12a7d4,,,,,,,,,,,,,,,,,,,,,,,a,1,"[""0.222"",""0.562"",""0.600"",""0.965""]","[1,1,0,1]",0,3,3,3,1,0,0,,,0,FALSE,0.9357,,,,,,,,,,,,,,,,,,,,,,,,,,,,,,
,60edd43c0e5888230cdd795f,001,2022-04-28_21h00.22.666,classification_task,2021.2.3,Win32,59.80145916,60edd43c0e5888230cdd795f,626b377229c10585ec392f89,626b4675cc0483e5ca12a7d4,,,,,,,,,,,,,,,,,,,,,,,l,1,"[""0.047"",""0.397"",""0.605"",""0.740""]","[1,1,0,1]",0,4,4,4,1,1,0,,,0,FALSE,1.1006,,,,,,,,,,,,,,,,,,,,,,,,,,,,,,
,60edd43c0e5888230cdd795f,001,2022-04-28_21h00.22.666,classification_task,2021.2.3,Win32,59.80145916,60edd43c0e5888230cdd795f,626b377229c10585ec392f89,626b4675cc0483e5ca12a7d4,,,,,,,,,,,,,,,,,,,,,,,l,1,"[""0.600"",""0.278"",""0.527"",""0.827""]","[0,1,1,1]",0,5,5,5,1,1,1,,,0,FALSE,1.3512,,,,,,,,,,,,,,,,,,,,,,,,,,,,,,
,60edd43c0e5888230cdd795f,001,2022-04-28_21h00.22.666,classification_task,2021.2.3,Win32,59.80145916,60edd43c0e5888230cdd795f,626b377229c10585ec392f89,626b4675cc0483e5ca12a7d4,,,,,,,,,,,,,,,,,,,,,,,a,1,"[""0.222"",""0.562"",""0.881"",""0.448""]","[1,1,1,0]",0,6,6,6,1,0,0,,,0,FALSE,0.7142,,,,,,,,,,,,,,,,,,,,,,,,,,,,,,
,60edd43c0e5888230cdd795f,001,2022-04-28_21h00.22.666,classification_task,2021.2.3,Win32,59.80145916,60edd43c0e5888230cdd795f,626b377229c10585ec392f89,626b4675cc0483e5ca12a7d4,,,,,,,,,,,,,,,,,,,,,,,a,1,"[""0.172"",""0.333"",""0.613"",""0.924""]","[1,1,0,1]",0,7,7,7,1,0,1,,,0,FALSE,1.1868,,,,,,,,,,,,,,,,,,,,,,,,,,,,,,
,60edd43c0e5888230cdd795f,001,2022-04-28_21h00.22.666,classification_task,2021.2.3,Win32,59.80145916,60edd43c0e5888230cdd795f,626b377229c10585ec392f89,626b4675cc0483e5ca12a7d4,,,,,,,,,,,,,,,,,,,,,,,l,0,"[""0.598"",""0.562"",""0.881"",""0.965""]","[0,1,1,1]",0,8,8,8,1,0,0,,,0,FALSE,1.3996,,,,,,,,,,,,,,,,,,,,,,,,,,,,,,
,60edd43c0e5888230cdd795f,001,2022-04-28_21h00.22.666,classification_task,2021.2.3,Win32,59.80145916,60edd43c0e5888230cdd795f,626b377229c10585ec392f89,626b4675cc0483e5ca12a7d4,,,,,,,,,,,,,,,,,,,,,,,l,1,"[""0.122"",""0.278"",""0.598"",""0.827""]","[1,1,0,1]",0,9,9,9,1,1,1,,,0,FALSE,1.2299,,,,,,,,,,,,,,,,,,,,,,,,,,,,,,
,60edd43c0e5888230cdd795f,001,2022-04-28_21h00.22.666,classification_task,2021.2.3,Win32,59.80145916,60edd43c0e5888230cdd795f,626b377229c10585ec392f89,626b4675cc0483e5ca12a7d4,,,,,,,,,,,,,,,,,,,,,,,a,0,"[""0.465"",""0.397"",""0.650"",""0.740""]","[0,1,1,1]",0,10,10,10,1,1,0,,,0,FALSE,2.2867,,,,,,,,,,,,,,,,,,,,,,,,,,,,,,
,60edd43c0e5888230cdd795f,001,2022-04-28_21h00.22.666,classification_task,2021.2.3,Win32,59.80145916,60edd43c0e5888230cdd795f,626b377229c10585ec392f89,626b4675cc0483e5ca12a7d4,,,,,,,,,,,,,,,,,,,,,,,l,1,"[""0.047"",""0.397"",""0.650"",""0.458""]","[1,1,1,0]",0,11,11,11,1,1,0,,,0,FALSE,1.5149,,,,,,,,,,,,,,,,,,,,,,,,,,,,,,
,60edd43c0e5888230cdd795f,001,2022-04-28_21h00.22.666,classification_task,2021.2.3,Win32,59.80145916,60edd43c0e5888230cdd795f,626b377229c10585ec392f89,626b4675cc0483e5ca12a7d4,,,,,,,,,,,,,,,,,,,,,,,l,1,"[""0.122"",""0.598"",""0.527"",""0.827""]","[1,0,1,1]",0,12,12,12,1,1,1,,,0,FALSE,1.1514,,,,,,,,,,,,,,,,,,,,,,,,,,,,,,
,60edd43c0e5888230cdd795f,001,2022-04-28_21h00.22.666,classification_task,2021.2.3,Win32,59.80145916,60edd43c0e5888230cdd795f,626b377229c10585ec392f89,626b4675cc0483e5ca12a7d4,,,,,,,,,,,,,,,,,,,,,,,a,1,"[""0.082"",""0.333"",""0.690"",""0.924""]","[0,1,1,1]",0,13,13,13,1,0,1,,,0,FALSE,2.9198,,,,,,,,,,,,,,,,,,,,,,,,,,,,,,
,60edd43c0e5888230cdd795f,001,2022-04-28_21h00.22.666,classification_task,2021.2.3,Win32,59.80145916,60edd43c0e5888230cdd795f,626b377229c10585ec392f89,626b4675cc0483e5ca12a7d4,,,,,,,,,,,,,,,,,,,,,,,a,1,"[""0.222"",""0.465"",""0.881"",""0.965""]","[1,0,1,1]",0,14,14,14,1,0,0,,,0,FALSE,0.7489,,,,,,,,,,,,,,,,,,,,,,,,,,,,,,
,60edd43c0e5888230cdd795f,001,2022-04-28_21h00.22.666,classification_task,2021.2.3,Win32,59.80145916,60edd43c0e5888230cdd795f,626b377229c10585ec392f89,626b4675cc0483e5ca12a7d4,,,,,,,,,,,,,,,,,,,,,,,a,1,"[""0.172"",""0.777"",""0.690"",""0.924""]","[1,0,1,1]",0,15,15,15,1,0,1,,,0,FALSE,1.5874,,,,,,,,,,,,,,,,,,,,,,,,,,,,,,
,60edd43c0e5888230cdd795f,001,2022-04-28_21h00.22.666,classification_task,2021.2.3,Win32,59.80145916,60edd43c0e5888230cdd795f,626b377229c10585ec392f89,626b4675cc0483e5ca12a7d4,,,,,,,,,,,,,,,,,,,,,,,a,1,"[""0.222"",""0.777"",""0.881"",""0.965""]","[1,0,1,1]",0,16,16,16,1,0,0,,,0,FALSE,0.6664,,,,,,,,,,,,,,,,,,,,,,,,,,,,,,
,60edd43c0e5888230cdd795f,001,2022-04-28_21h00.22.666,classification_task,2021.2.3,Win32,59.80145916,60edd43c0e5888230cdd795f,626b377229c10585ec392f89,626b4675cc0483e5ca12a7d4,,,,,,,,,,,,,,,,,,,,,,,l,1,"[""0.122"",""0.436"",""0.527"",""0.827""]","[1,0,1,1]",0,17,17,17,1,1,1,,,0,FALSE,0.9984,,,,,,,,,,,,,,,,,,,,,,,,,,,,,,
,60edd43c0e5888230cdd795f,001,2022-04-28_21h00.22.666,classification_task,2021.2.3,Win32,59.80145916,60edd43c0e5888230cdd795f,626b377229c10585ec392f89,626b4675cc0483e5ca12a7d4,,,,,,,,,,,,,,,,,,,,,,,a,1,"[""0.172"",""0.333"",""0.597"",""0.924""]","[1,1,0,1]",0,18,18,18,1,0,1,,,0,FALSE,1.0507,,,,,,,,,,,,,,,,,,,,,,,,,,,,,,
,60edd43c0e5888230cdd795f,001,2022-04-28_21h00.22.666,classification_task,2021.2.3,Win32,59.80145916,60edd43c0e5888230cdd795f,626b377229c10585ec392f89,626b4675cc0483e5ca12a7d4,,,,,,,,,,,,,,,,,,,,,,,l,1,"[""0.465"",""0.397"",""0.650"",""0.740""]","[0,1,1,1]",0,19,19,19,1,1,0,,,0,FALSE,1.215,,,,,,,,,,,,,,,,,,,,,,,,,,,,,,
,60edd43c0e5888230cdd795f,001,2022-04-28_21h00.22.666,classification_task,2021.2.3,Win32,59.80145916,60edd43c0e5888230cdd795f,626b377229c10585ec392f89,626b4675cc0483e5ca12a7d4,,,,,,,,,,,,,,,,,,,,,,,l,0,"[""0.597"",""0.562"",""0.881"",""0.965""]","[0,1,1,1]",0,20,20,20,1,0,0,,,0,FALSE,0.8352,,,,,,,,,,,,,,,,,,,,,,,,,,,,,,
,60edd43c0e5888230cdd795f,001,2022-04-28_21h00.22.666,classification_task,2021.2.3,Win32,59.80145916,60edd43c0e5888230cdd795f,626b377229c10585ec392f89,626b4675cc0483e5ca12a7d4,,,,,,,,,,,,,,,,,,,,,,,l,1,"[""0.047"",""0.600"",""0.650"",""0.740""]","[1,0,1,1]",0,21,21,21,1,1,0,,,0,FALSE,0.9334,,,,,,,,,,,,,,,,,,,,,,,,,,,,,,
,60edd43c0e5888230cdd795f,001,2022-04-28_21h00.22.666,classification_task,2021.2.3,Win32,59.80145916,60edd43c0e5888230cdd795f,626b377229c10585ec392f89,626b4675cc0483e5ca12a7d4,,,,,,,,,,,,,,,,,,,,,,,a,1,"[""0.172"",""0.440"",""0.690"",""0.924""]","[1,0,1,1]",0,22,22,22,1,0,1,,,0,FALSE,1.0499,,,,,,,,,,,,,,,,,,,,,,,,,,,,,,
,60edd43c0e5888230cdd795f,001,2022-04-28_21h00.22.666,classification_task,2021.2.3,Win32,59.80145916,60edd43c0e5888230cdd795f,626b377229c10585ec392f89,626b4675cc0483e5ca12a7d4,,,,,,,,,,,,,,,,,,,,,,,l,1,"[""0.047"",""0.397"",""0.613"",""0.740""]","[1,1,0,1]",0,23,23,23,1,1,0,,,0,FALSE,0.9092,,,,,,,,,,,,,,,,,,,,,,,,,,,,,,
,60edd43c0e5888230cdd795f,001,2022-04-28_21h00.22.666,classification_task,2021.2.3,Win32,59.80145916,60edd43c0e5888230cdd795f,626b377229c10585ec392f89,626b4675cc0483e5ca12a7d4,,,,,,,,,,,,,,,,,,,,,,,l,1,"[""0.122"",""0.278"",""0.440"",""0.827""]","[1,1,0,1]",0,24,24,24,1,1,1,,,0,FALSE,1.6366,,,,,,,,,,,,,,,,,,,,,,,,,,,,,,
,60edd43c0e5888230cdd795f,001,2022-04-28_21h00.22.666,classification_task,2021.2.3,Win32,59.80145916,60edd43c0e5888230cdd795f,626b377229c10585ec392f89,626b4675cc0483e5ca12a7d4,,,,,,,,,,,,,,,,,,,,,,,l,1,"[""0.047"",""0.397"",""0.650"",""0.436""]","[1,1,1,0]",0,25,25,25,1,1,0,,,0,FALSE,1.1878,,,,,,,,,,,,,,,,,,,,,,,,,,,,,,
,60edd43c0e5888230cdd795f,001,2022-04-28_21h00.22.666,classification_task,2021.2.3,Win32,59.80145916,60edd43c0e5888230cdd795f,626b377229c10585ec392f89,626b4675cc0483e5ca12a7d4,,,,,,,,,,,,,,,,,,,,,,,l,0,"[""0.436"",""0.333"",""0.690"",""0.924""]","[0,1,1,1]",0,26,26,26,1,0,1,,,0,FALSE,2.9195,,,,,,,,,,,,,,,,,,,,,,,,,,,,,,
,60edd43c0e5888230cdd795f,001,2022-04-28_21h00.22.666,classification_task,2021.2.3,Win32,59.80145916,60edd43c0e5888230cdd795f,626b377229c10585ec392f89,626b4675cc0483e5ca12a7d4,,,,,,,,,,,,,,,,,,,,,,,l,0,"[""0.172"",""0.333"",""0.690"",""0.082""]","[1,1,1,0]",0,27,27,27,1,0,1,,,0,FALSE,1.4487,,,,,,,,,,,,,,,,,,,,,,,,,,,,,,
,60edd43c0e5888230cdd795f,001,2022-04-28_21h00.22.666,classification_task,2021.2.3,Win32,59.80145916,60edd43c0e5888230cdd795f,626b377229c10585ec392f89,626b4675cc0483e5ca12a7d4,,,,,,,,,,,,,,,,,,,,,,,l,1,"[""0.122"",""0.278"",""0.527"",""0.597""]","[1,1,1,0]",0,28,28,28,1,1,1,,,0,FALSE,1.3837,,,,,,,,,,,,,,,,,,,,,,,,,,,,,,
,60edd43c0e5888230cdd795f,001,2022-04-28_21h00.22.666,classification_task,2021.2.3,Win32,59.80145916,60edd43c0e5888230cdd795f,626b377229c10585ec392f89,626b4675cc0483e5ca12a7d4,,,,,,,,,,,,,,,,,,,,,,,a,1,"[""0.222"",""0.562"",""0.881"",""0.458""]","[1,1,1,0]",0,29,29,29,1,0,0,,,0,FALSE,0.8849,,,,,,,,,,,,,,,,,,,,,,,,,,,,,,
,60edd43c0e5888230cdd795f,001,2022-04-28_21h00.22.666,classification_task,2021.2.3,Win32,59.80145916,60edd43c0e5888230cdd795f,626b377229c10585ec392f89,626b4675cc0483e5ca12a7d4,,,,,,,,,,,,,,,,,,,,,,,a,1,"[""0.222"",""0.562"",""0.613"",""0.965""]","[1,1,0,1]",0,30,30,30,1,0,0,,,0,FALSE,1.5367,,,,,,,,,,,,,,,,,,,,,,,,,,,,,,
,60edd43c0e5888230cdd795f,001,2022-04-28_21h00.22.666,classification_task,2021.2.3,Win32,59.80145916,60edd43c0e5888230cdd795f,626b377229c10585ec392f89,626b4675cc0483e5ca12a7d4,,,,,,,,,,,,,,,,,,,,,,,l,1,"[""0.777"",""0.278"",""0.527"",""0.827""]","[0,1,1,1]",0,31,31,31,1,1,1,,,0,FALSE,2.9382,,,,,,,,,,,,,,,,,,,,,,,,,,,,,,
,60edd43c0e5888230cdd795f,001,2022-04-28_21h00.22.666,classification_task,2021.2.3,Win32,59.80145916,60edd43c0e5888230cdd795f,626b377229c10585ec392f89,626b4675cc0483e5ca12a7d4,,,,,,,,,,,,,,,,,,,,,,,l,1,"[""0.122"",""0.278"",""0.082"",""0.827""]","[1,1,0,1]",0,32,32,32,1,1,1,,,0,FALSE,1.4004,,,,,,,,,,,,,,,,,,,,,,,,,,,,,,
,60edd43c0e5888230cdd795f,001,2022-04-28_21h00.22.666,classification_task,2021.2.3,Win32,59.80145916,60edd43c0e5888230cdd795f,626b377229c10585ec392f89,626b4675cc0483e5ca12a7d4,,,,,,,,,,,,,,,,,,,,,,,a,1,"[""0.465"",""0.333"",""0.690"",""0.924""]","[0,1,1,1]",0,33,33,33,1,0,1,,,0,FALSE,0.9199,,,,,,,,,,,,,,,,,,,,,,,,,,,,,,
,60edd43c0e5888230cdd795f,001,2022-04-28_21h00.22.666,classification_task,2021.2.3,Win32,59.80145916,60edd43c0e5888230cdd795f,626b377229c10585ec392f89,626b4675cc0483e5ca12a7d4,,,,,,,,,,,,,,,,,,,,,,,a,1,"[""0.222"",""0.562"",""0.881"",""0.465""]","[1,1,1,0]",0,34,34,34,1,0,0,,,0,FALSE,0.8693,,,,,,,,,,,,,,,,,,,,,,,,,,,,,,
,60edd43c0e5888230cdd795f,001,2022-04-28_21h00.22.666,classification_task,2021.2.3,Win32,59.80145916,60edd43c0e5888230cdd795f,626b377229c10585ec392f89,626b4675cc0483e5ca12a7d4,,,,,,,,,,,,,,,,,,,,,,,a,1,"[""0.172"",""0.333"",""0.690"",""0.777""]","[1,1,1,0]",0,35,35,35,1,0,1,,,0,FALSE,1.1838,,,,,,,,,,,,,,,,,,,,,,,,,,,,,,
,60edd43c0e5888230cdd795f,001,2022-04-28_21h00.22.666,classification_task,2021.2.3,Win32,59.80145916,60edd43c0e5888230cdd795f,626b377229c10585ec392f89,626b4675cc0483e5ca12a7d4,,,,,,,,,,,,,,,,,,,,,,,a,1,"[""0.222"",""0.482"",""0.881"",""0.965""]","[1,0,1,1]",0,36,36,36,1,0,0,,,0,FALSE,0.7686,,,,,,,,,,,,,,,,,,,,,,,,,,,,,,
,60edd43c0e5888230cdd795f,001,2022-04-28_21h00.22.666,classification_task,2021.2.3,Win32,59.80145916,60edd43c0e5888230cdd795f,626b377229c10585ec392f89,626b4675cc0483e5ca12a7d4,,,,,,,,,,,,,,,,,,,,,,,l,1,"[""0.047"",""0.489"",""0.650"",""0.740""]","[1,0,1,1]",0,37,37,37,1,1,0,,,0,FALSE,0.8859,,,,,,,,,,,,,,,,,,,,,,,,,,,,,,
,60edd43c0e5888230cdd795f,001,2022-04-28_21h00.22.666,classification_task,2021.2.3,Win32,59.80145916,60edd43c0e5888230cdd795f,626b377229c10585ec392f89,626b4675cc0483e5ca12a7d4,,,,,,,,,,,,,,,,,,,,,,,a,1,"[""0.222"",""0.562"",""0.440"",""0.965""]","[1,1,0,1]",0,38,38,38,1,0,0,,,0,FALSE,0.9857,,,,,,,,,,,,,,,,,,,,,,,,,,,,,,
,60edd43c0e5888230cdd795f,001,2022-04-28_21h00.22.666,classification_task,2021.2.3,Win32,59.80145916,60edd43c0e5888230cdd795f,626b377229c10585ec392f89,626b4675cc0483e5ca12a7d4,,,,,,,,,,,,,,,,,,,,,,,a,1,"[""0.605"",""0.562"",""0.881"",""0.965""]","[0,1,1,1]",0,39,39,39,1,0,0,,,0,FALSE,1.3006,,,,,,,,,,,,,,,,,,,,,,,,,,,,,,
,60edd43c0e5888230cdd795f,001,2022-04-28_21h00.22.666,classification_task,2021.2.3,Win32,59.80145916,60edd43c0e5888230cdd795f,626b377229c10585ec392f89,626b4675cc0483e5ca12a7d4,,,,,,,,,,,,,,,,,,,,,,,l,1,"[""0.122"",""0.278"",""0.527"",""0.605""]","[1,1,1,0]",0,40,40,40,1,1,1,,,0,FALSE,1.0687,,,,,,,,,,,,,,,,,,,,,,,,,,,,,,
,60edd43c0e5888230cdd795f,001,2022-04-28_21h00.22.666,classification_task,2021.2.3,Win32,59.80145916,60edd43c0e5888230cdd795f,626b377229c10585ec392f89,626b4675cc0483e5ca12a7d4,,,,,,,,,,,,,,,,,,,,,,,l,0,"[""0.172"",""0.082"",""0.690"",""0.924""]","[1,0,1,1]",0,41,41,41,1,0,1,,,0,FALSE,2.2674,,,,,,,,,,,,,,,,,,,,,,,,,,,,,,
,60edd43c0e5888230cdd795f,001,2022-04-28_21h00.22.666,classification_task,2021.2.3,Win32,59.80145916,60edd43c0e5888230cdd795f,626b377229c10585ec392f89,626b4675cc0483e5ca12a7d4,,,,,,,,,,,,,,,,,,,,,,,a,0,"[""0.598"",""0.397"",""0.650"",""0.740""]","[0,1,1,1]",0,42,42,42,1,1,0,,,0,FALSE,2.8123,,,,,,,,,,,,,,,,,,,,,,,,,,,,,,
,60edd43c0e5888230cdd795f,001,2022-04-28_21h00.22.666,classification_task,2021.2.3,Win32,59.80145916,60edd43c0e5888230cdd795f,626b377229c10585ec392f89,626b4675cc0483e5ca12a7d4,,,,,,,,,,,,,,,,,,,,,,,l,1,"[""0.047"",""0.397"",""0.650"",""0.605""]","[1,1,1,0]",0,43,43,43,1,1,0,,,0,FALSE,0.8979,,,,,,,,,,,,,,,,,,,,,,,,,,,,,,
,60edd43c0e5888230cdd795f,001,2022-04-28_21h00.22.666,classification_task,2021.2.3,Win32,59.80145916,60edd43c0e5888230cdd795f,626b377229c10585ec392f89,626b4675cc0483e5ca12a7d4,,,,,,,,,,,,,,,,,,,,,,,l,1,"[""0.597"",""0.278"",""0.527"",""0.827""]","[0,1,1,1]",0,44,44,44,1,1,1,,,0,FALSE,2.6549,,,,,,,,,,,,,,,,,,,,,,,,,,,,,,
,60edd43c0e5888230cdd795f,001,2022-04-28_21h00.22.666,classification_task,2021.2.3,Win32,59.80145916,60edd43c0e5888230cdd795f,626b377229c10585ec392f89,626b4675cc0483e5ca12a7d4,,,,,,,,,,,,,,,,,,,,,,,a,1,"[""0.172"",""0.333"",""0.436"",""0.924""]","[1,1,0,1]",0,45,45,45,1,0,1,,,0,FALSE,2.3385,,,,,,,,,,,,,,,,,,,,,,,,,,,,,,
,60edd43c0e5888230cdd795f,001,2022-04-28_21h00.22.666,classification_task,2021.2.3,Win32,59.80145916,60edd43c0e5888230cdd795f,626b377229c10585ec392f89,626b4675cc0483e5ca12a7d4,,,,,,,,,,,,,,,,,,,,,,,l,1,"[""0.047"",""0.397"",""0.613"",""0.740""]","[1,1,0,1]",0,46,46,46,1,1,0,,,0,FALSE,0.9565,,,,,,,,,,,,,,,,,,,,,,,,,,,,,,
,60edd43c0e5888230cdd795f,001,2022-04-28_21h00.22.666,classification_task,2021.2.3,Win32,59.80145916,60edd43c0e5888230cdd795f,626b377229c10585ec392f89,626b4675cc0483e5ca12a7d4,,,,,,,,,,,,,,,,,,,,,,,l,1,"[""0.122"",""0.598"",""0.527"",""0.827""]","[1,0,1,1]",0,47,47,47,1,1,1,,,0,FALSE,1.1349,,,,,,,,,,,,,,,,,,,,,,,,,,,,,,
,60edd43c0e5888230cdd795f,001,2022-04-28_21h00.22.666,classification_task,2021.2.3,Win32,59.80145916,60edd43c0e5888230cdd795f,626b377229c10585ec392f89,626b4675cc0483e5ca12a7d4,,,,,,,,,,,,,,,,,,,,,,,a,0,"[""0.448"",""0.397"",""0.650"",""0.740""]","[0,1,1,1]",0,48,48,48,1,1,0,,,0,FALSE,1.984,,,,,,,,,,,,,,,,,,,,,,,,,,,,,,
,60edd43c0e5888230cdd795f,001,2022-04-28_21h00.22.666,classification_task,2021.2.3,Win32,59.80145916,60edd43c0e5888230cdd795f,626b377229c10585ec392f89,626b4675cc0483e5ca12a7d4,,,,,,,,,,,,,,,,,,,,,,,a,1,"[""0.465"",""0.562"",""0.881"",""0.965""]","[0,1,1,1]",0,49,49,49,1,0,0,,,0,FALSE,1.0356,,,,,,,,,,,,,,,,,,,,,,,,,,,,,,
,60edd43c0e5888230cdd795f,001,2022-04-28_21h00.22.666,classification_task,2021.2.3,Win32,59.80145916,60edd43c0e5888230cdd795f,626b377229c10585ec392f89,626b4675cc0483e5ca12a7d4,,,,,,,,,,,,,,,,,,,,,,,l,1,"[""0.047"",""0.082"",""0.650"",""0.740""]","[1,0,1,1]",0,50,50,50,1,1,0,,,0,FALSE,1.0817,,,,,,,,,,,,,,,,,,,,,,,,,,,,,,
,60edd43c0e5888230cdd795f,001,2022-04-28_21h00.22.666,classification_task,2021.2.3,Win32,59.80145916,60edd43c0e5888230cdd795f,626b377229c10585ec392f89,626b4675cc0483e5ca12a7d4,,,,,,,,,,,,,,,,,,,,,,,a,1,"[""0.440"",""0.333"",""0.690"",""0.924""]","[0,1,1,1]",0,51,51,51,1,0,1,,,0,FALSE,2.902,,,,,,,,,,,,,,,,,,,,,,,,,,,,,,
,60edd43c0e5888230cdd795f,001,2022-04-28_21h00.22.666,classification_task,2021.2.3,Win32,59.80145916,60edd43c0e5888230cdd795f,626b377229c10585ec392f89,626b4675cc0483e5ca12a7d4,,,,,,,,,,,,,,,,,,,,,,,l,1,"[""0.122"",""0.599"",""0.527"",""0.827""]","[1,0,1,1]",0,52,52,52,1,1,1,,,0,FALSE,1.2808,,,,,,,,,,,,,,,,,,,,,,,,,,,,,,
,60edd43c0e5888230cdd795f,001,2022-04-28_21h00.22.666,classification_task,2021.2.3,Win32,59.80145916,60edd43c0e5888230cdd795f,626b377229c10585ec392f89,626b4675cc0483e5ca12a7d4,,,,,,,,,,,,,,,,,,,,,,,a,0,"[""0.613"",""0.278"",""0.527"",""0.827""]","[0,1,1,1]",0,53,53,53,1,1,1,,,0,FALSE,3.0371,,,,,,,,,,,,,,,,,,,,,,,,,,,,,,
,60edd43c0e5888230cdd795f,001,2022-04-28_21h00.22.666,classification_task,2021.2.3,Win32,59.80145916,60edd43c0e5888230cdd795f,626b377229c10585ec392f89,626b4675cc0483e5ca12a7d4,,,,,,,,,,,,,,,,,,,,,,,a,1,"[""0.222"",""0.562"",""0.881"",""0.436""]","[1,1,1,0]",0,54,54,54,1,0,0,,,0,FALSE,0.7485,,,,,,,,,,,,,,,,,,,,,,,,,,,,,,
,60edd43c0e5888230cdd795f,001,2022-04-28_21h00.22.666,classification_task,2021.2.3,Win32,59.80145916,60edd43c0e5888230cdd795f,626b377229c10585ec392f89,626b4675cc0483e5ca12a7d4,,,,,,,,,,,,,,,,,,,,,,,a,1,"[""0.222"",""0.458"",""0.881"",""0.965""]","[1,0,1,1]",0,55,55,55,1,0,0,,,0,FALSE,0.7865,,,,,,,,,,,,,,,,,,,,,,,,,,,,,,
,60edd43c0e5888230cdd795f,001,2022-04-28_21h00.22.666,classification_task,2021.2.3,Win32,59.80145916,60edd43c0e5888230cdd795f,626b377229c10585ec392f89,626b4675cc0483e5ca12a7d4,,,,,,,,,,,,,,,,,,,,,,,l,1,"[""0.047"",""0.397"",""0.605"",""0.740""]","[1,1,0,1]",0,56,56,56,1,1,0,,,0,FALSE,0.8191,,,,,,,,,,,,,,,,,,,,,,,,,,,,,,
,60edd43c0e5888230cdd795f,001,2022-04-28_21h00.22.666,classification_task,2021.2.3,Win32,59.80145916,60edd43c0e5888230cdd795f,626b377229c10585ec392f89,626b4675cc0483e5ca12a7d4,,,,,,,,,,,,,,,,,,,,,,,a,1,"[""0.172"",""0.333"",""0.690"",""0.448""]","[1,1,1,0]",0,57,57,57,1,0,1,,,0,FALSE,1.1367,,,,,,,,,,,,,,,,,,,,,,,,,,,,,,
,60edd43c0e5888230cdd795f,001,2022-04-28_21h00.22.666,classification_task,2021.2.3,Win32,59.80145916,60edd43c0e5888230cdd795f,626b377229c10585ec392f89,626b4675cc0483e5ca12a7d4,,,,,,,,,,,,,,,,,,,,,,,l,1,"[""0.047"",""0.397"",""0.650"",""0.448""]","[1,1,1,0]",0,58,58,58,1,1,0,,,0,FALSE,0.7711,,,,,,,,,,,,,,,,,,,,,,,,,,,,,,
,60edd43c0e5888230cdd795f,001,2022-04-28_21h00.22.666,classification_task,2021.2.3,Win32,59.80145916,60edd43c0e5888230cdd795f,626b377229c10585ec392f89,626b4675cc0483e5ca12a7d4,,,,,,,,,,,,,,,,,,,,,,,a,1,"[""0.222"",""0.562"",""0.458"",""0.965""]","[1,1,0,1]",0,59,59,59,1,0,0,,,0,FALSE,0.8531,,,,,,,,,,,,,,,,,,,,,,,,,,,,,,
,60edd43c0e5888230cdd795f,001,2022-04-28_21h00.22.666,classification_task,2021.2.3,Win32,59.80145916,60edd43c0e5888230cdd795f,626b377229c10585ec392f89,626b4675cc0483e5ca12a7d4,,,,,,,,,,,,,,,,,,,,,,,l,1,"[""0.122"",""0.278"",""0.597"",""0.827""]","[1,1,0,1]",0,60,60,60,1,1,1,,,0,FALSE,0.8505,,,,,,,,,,,,,,,,,,,,,,,,,,,,,,
,60edd43c0e5888230cdd795f,001,2022-04-28_21h00.22.666,classification_task,2021.2.3,Win32,59.80145916,60edd43c0e5888230cdd795f,626b377229c10585ec392f89,626b4675cc0483e5ca12a7d4,,,,,,,,,,,,,,,,,,,,,,,l,1,"[""0.122"",""0.278"",""0.527"",""0.598""]","[1,1,1,0]",0,61,61,61,1,1,1,,,0,FALSE,0.8348,,,,,,,,,,,,,,,,,,,,,,,,,,,,,,
,60edd43c0e5888230cdd795f,001,2022-04-28_21h00.22.666,classification_task,2021.2.3,Win32,59.80145916,60edd43c0e5888230cdd795f,626b377229c10585ec392f89,626b4675cc0483e5ca12a7d4,,,,,,,,,,,,,,,,,,,,,,,a,1,"[""0.172"",""0.333"",""0.458"",""0.924""]","[1,1,0,1]",0,62,62,62,1,0,1,,,0,FALSE,1.0535,,,,,,,,,,,,,,,,,,,,,,,,,,,,,,
,60edd43c0e5888230cdd795f,001,2022-04-28_21h00.22.666,classification_task,2021.2.3,Win32,59.80145916,60edd43c0e5888230cdd795f,626b377229c10585ec392f89,626b4675cc0483e5ca12a7d4,,,,,,,,,,,,,,,,,,,,,,,a,1,"[""0.172"",""0.604"",""0.690"",""0.924""]","[1,0,1,1]",0,63,63,63,1,0,1,,,0,FALSE,0.6529,,,,,,,,,,,,,,,,,,,,,,,,,,,,,,
,60edd43c0e5888230cdd795f,001,2022-04-28_21h00.22.666,classification_task,2021.2.3,Win32,59.80145916,60edd43c0e5888230cdd795f,626b377229c10585ec392f89,626b4675cc0483e5ca12a7d4,,,,,,,,,,,,,,,,,,,,,,,,,,,,,,,,,,,,,,,0, ,,0,6.41231261,182.2217,0,1,1,1,1,2,2,,,,,,,,,,,,,,,,,
,60edd43c0e5888230cdd795f,001,2022-04-28_21h00.22.666,classification_task,2021.2.3,Win32,59.80145916,60edd43c0e5888230cdd795f,626b377229c10585ec392f89,626b4675cc0483e5ca12a7d4,,,,,,,,,,,,,,,,,,,,,,,,,,,,,,,,,,,,,,,1,  ,,0,2.933201058,185.541,0,1,1,1,1,2,2,,,,,,,,,,,,,,,,,
,60edd43c0e5888230cdd795f,001,2022-04-28_21h00.22.666,classification_task,2021.2.3,Win32,59.80145916,60edd43c0e5888230cdd795f,626b377229c10585ec392f89,626b4675cc0483e5ca12a7d4,,,,,,,,,,,,,,,,,,,,,,,,,,,,,,,,,,,,,,,2,  ,,0,6.033399471,186.5095,0,1,1,1,1,2,2,,,,,,,,,,,,,,,,,
,60edd43c0e5888230cdd795f,001,2022-04-28_21h00.22.666,classification_task,2021.2.3,Win32,59.80145916,60edd43c0e5888230cdd795f,626b377229c10585ec392f89,626b4675cc0483e5ca12a7d4,,,,,,,,,,,,,,,,,,,,,,,,,,,,,,,,,,,,,,,,,,,,,0,1,1,1,1,,2,,,,,,,,,,,,,,,,,
,60edd43c0e5888230cdd795f,001,2022-04-28_21h00.22.666,classification_task,2021.2.3,Win32,59.80145916,60edd43c0e5888230cdd795f,626b377229c10585ec392f89,626b4675cc0483e5ca12a7d4,,,,,,,,,,,,,,,,,,,,,space,22.98,l,1,"[""0.482"",""0.397"",""0.650"",""0.740""]","[0,1,1,1]",0,0,0,0,1,1,0,,,0,FALSE,4.7933,,,,,,,,,,,,,,,,,,,,,,,,,,,,,,
,60edd43c0e5888230cdd795f,001,2022-04-28_21h00.22.666,classification_task,2021.2.3,Win32,59.80145916,60edd43c0e5888230cdd795f,626b377229c10585ec392f89,626b4675cc0483e5ca12a7d4,,,,,,,,,,,,,,,,,,,,,,,a,1,"[""0.172"",""0.333"",""0.690"",""0.598""]","[1,1,1,0]",0,1,1,1,1,0,1,,,0,FALSE,1.6144,,,,,,,,,,,,,,,,,,,,,,,,,,,,,,
,60edd43c0e5888230cdd795f,001,2022-04-28_21h00.22.666,classification_task,2021.2.3,Win32,59.80145916,60edd43c0e5888230cdd795f,626b377229c10585ec392f89,626b4675cc0483e5ca12a7d4,,,,,,,,,,,,,,,,,,,,,,,l,1,"[""0.122"",""0.597"",""0.527"",""0.827""]","[1,0,1,1]",0,2,2,2,1,1,1,,,0,FALSE,1.3501,,,,,,,,,,,,,,,,,,,,,,,,,,,,,,
,60edd43c0e5888230cdd795f,001,2022-04-28_21h00.22.666,classification_task,2021.2.3,Win32,59.80145916,60edd43c0e5888230cdd795f,626b377229c10585ec392f89,626b4675cc0483e5ca12a7d4,,,,,,,,,,,,,,,,,,,,,,,l,1,"[""0.122"",""0.278"",""0.440"",""0.827""]","[1,1,0,1]",0,3,3,3,1,1,1,,,0,FALSE,0.8516,,,,,,,,,,,,,,,,,,,,,,,,,,,,,,
,60edd43c0e5888230cdd795f,001,2022-04-28_21h00.22.666,classification_task,2021.2.3,Win32,59.80145916,60edd43c0e5888230cdd795f,626b377229c10585ec392f89,626b4675cc0483e5ca12a7d4,,,,,,,,,,,,,,,,,,,,,,,l,1,"[""0.047"",""0.604"",""0.650"",""0.740""]","[1,0,1,1]",0,4,4,4,1,1,0,,,0,FALSE,0.8482,,,,,,,,,,,,,,,,,,,,,,,,,,,,,,
,60edd43c0e5888230cdd795f,001,2022-04-28_21h00.22.666,classification_task,2021.2.3,Win32,59.80145916,60edd43c0e5888230cdd795f,626b377229c10585ec392f89,626b4675cc0483e5ca12a7d4,,,,,,,,,,,,,,,,,,,,,,,a,1,"[""0.222"",""0.597"",""0.881"",""0.965""]","[1,0,1,1]",0,5,5,5,1,0,0,,,0,FALSE,0.7722,,,,,,,,,,,,,,,,,,,,,,,,,,,,,,
,60edd43c0e5888230cdd795f,001,2022-04-28_21h00.22.666,classification_task,2021.2.3,Win32,59.80145916,60edd43c0e5888230cdd795f,626b377229c10585ec392f89,626b4675cc0483e5ca12a7d4,,,,,,,,,,,,,,,,,,,,,,,a,1,"[""0.222"",""0.562"",""0.598"",""0.965""]","[1,1,0,1]",0,6,6,6,1,0,0,,,0,FALSE,0.6818,,,,,,,,,,,,,,,,,,,,,,,,,,,,,,
,60edd43c0e5888230cdd795f,001,2022-04-28_21h00.22.666,classification_task,2021.2.3,Win32,59.80145916,60edd43c0e5888230cdd795f,626b377229c10585ec392f89,626b4675cc0483e5ca12a7d4,,,,,,,,,,,,,,,,,,,,,,,l,1,"[""0.613"",""0.278"",""0.527"",""0.827""]","[0,1,1,1]",0,7,7,7,1,1,1,,,0,FALSE,2.5982,,,,,,,,,,,,,,,,,,,,,,,,,,,,,,
,60edd43c0e5888230cdd795f,001,2022-04-28_21h00.22.666,classification_task,2021.2.3,Win32,59.80145916,60edd43c0e5888230cdd795f,626b377229c10585ec392f89,626b4675cc0483e5ca12a7d4,,,,,,,,,,,,,,,,,,,,,,,l,1,"[""0.122"",""0.278"",""0.527"",""0.604""]","[1,1,1,0]",0,8,8,8,1,1,1,,,0,FALSE,1.3222,,,,,,,,,,,,,,,,,,,,,,,,,,,,,,
,60edd43c0e5888230cdd795f,001,2022-04-28_21h00.22.666,classification_task,2021.2.3,Win32,59.80145916,60edd43c0e5888230cdd795f,626b377229c10585ec392f89,626b4675cc0483e5ca12a7d4,,,,,,,,,,,,,,,,,,,,,,,l,1,"[""0.047"",""0.397"",""0.650"",""0.777""]","[1,1,1,0]",0,9,9,9,1,1,0,,,0,FALSE,0.9397,,,,,,,,,,,,,,,,,,,,,,,,,,,,,,
,60edd43c0e5888230cdd795f,001,2022-04-28_21h00.22.666,classification_task,2021.2.3,Win32,59.80145916,60edd43c0e5888230cdd795f,626b377229c10585ec392f89,626b4675cc0483e5ca12a7d4,,,,,,,,,,,,,,,,,,,,,,,a,1,"[""0.222"",""0.562"",""0.881"",""0.082""]","[1,1,1,0]",0,10,10,10,1,0,0,,,0,FALSE,1.9529,,,,,,,,,,,,,,,,,,,,,,,,,,,,,,
,60edd43c0e5888230cdd795f,001,2022-04-28_21h00.22.666,classification_task,2021.2.3,Win32,59.80145916,60edd43c0e5888230cdd795f,626b377229c10585ec392f89,626b4675cc0483e5ca12a7d4,,,,,,,,,,,,,,,,,,,,,,,a,1,"[""0.172"",""0.333"",""0.082"",""0.924""]","[1,1,0,1]",0,11,11,11,1,0,1,,,0,FALSE,3.2381,,,,,,,,,,,,,,,,,,,,,,,,,,,,,,
,60edd43c0e5888230cdd795f,001,2022-04-28_21h00.22.666,classification_task,2021.2.3,Win32,59.80145916,60edd43c0e5888230cdd795f,626b377229c10585ec392f89,626b4675cc0483e5ca12a7d4,,,,,,,,,,,,,,,,,,,,,,,a,1,"[""0.597"",""0.333"",""0.690"",""0.924""]","[0,1,1,1]",0,12,12,12,1,0,1,,,0,FALSE,1.7179,,,,,,,,,,,,,,,,,,,,,,,,,,,,,,
,60edd43c0e5888230cdd795f,001,2022-04-28_21h00.22.666,classification_task,2021.2.3,Win32,59.80145916,60edd43c0e5888230cdd795f,626b377229c10585ec392f89,626b4675cc0483e5ca12a7d4,,,,,,,,,,,,,,,,,,,,,,,a,1,"[""0.172"",""0.600"",""0.690"",""0.924""]","[1,0,1,1]",0,13,13,13,1,0,1,,,0,FALSE,1.1856,,,,,,,,,,,,,,,,,,,,,,,,,,,,,,
,60edd43c0e5888230cdd795f,001,2022-04-28_21h00.22.666,classification_task,2021.2.3,Win32,59.80145916,60edd43c0e5888230cdd795f,626b377229c10585ec392f89,626b4675cc0483e5ca12a7d4,,,,,,,,,,,,,,,,,,,,,,,a,1,"[""0.465"",""0.562"",""0.881"",""0.965""]","[0,1,1,1]",0,14,14,14,1,0,0,,,0,FALSE,3.1477,,,,,,,,,,,,,,,,,,,,,,,,,,,,,,
,60edd43c0e5888230cdd795f,001,2022-04-28_21h00.22.666,classification_task,2021.2.3,Win32,59.80145916,60edd43c0e5888230cdd795f,626b377229c10585ec392f89,626b4675cc0483e5ca12a7d4,,,,,,,,,,,,,,,,,,,,,,,l,1,"[""0.047"",""0.397"",""0.600"",""0.740""]","[1,1,0,1]",0,15,15,15,1,1,0,,,0,FALSE,1.6478,,,,,,,,,,,,,,,,,,,,,,,,,,,,,,
,60edd43c0e5888230cdd795f,001,2022-04-28_21h00.22.666,classification_task,2021.2.3,Win32,59.80145916,60edd43c0e5888230cdd795f,626b377229c10585ec392f89,626b4675cc0483e5ca12a7d4,,,,,,,,,,,,,,,,,,,,,,,l,1,"[""0.122"",""0.278"",""0.458"",""0.827""]","[1,1,0,1]",0,16,16,16,1,1,1,,,0,FALSE,1.3221,,,,,,,,,,,,,,,,,,,,,,,,,,,,,,
,60edd43c0e5888230cdd795f,001,2022-04-28_21h00.22.666,classification_task,2021.2.3,Win32,59.80145916,60edd43c0e5888230cdd795f,626b377229c10585ec392f89,626b4675cc0483e5ca12a7d4,,,,,,,,,,,,,,,,,,,,,,,a,1,"[""0.172"",""0.600"",""0.690"",""0.924""]","[1,0,1,1]",0,17,17,17,1,0,1,,,0,FALSE,0.9192,,,,,,,,,,,,,,,,,,,,,,,,,,,,,,
,60edd43c0e5888230cdd795f,001,2022-04-28_21h00.22.666,classification_task,2021.2.3,Win32,59.80145916,60edd43c0e5888230cdd795f,626b377229c10585ec392f89,626b4675cc0483e5ca12a7d4,,,,,,,,,,,,,,,,,,,,,,,l,1,"[""0.598"",""0.397"",""0.650"",""0.740""]","[0,1,1,1]",0,18,18,18,1,1,0,,,0,FALSE,2.9516,,,,,,,,,,,,,,,,,,,,,,,,,,,,,,
,60edd43c0e5888230cdd795f,001,2022-04-28_21h00.22.666,classification_task,2021.2.3,Win32,59.80145916,60edd43c0e5888230cdd795f,626b377229c10585ec392f89,626b4675cc0483e5ca12a7d4,,,,,,,,,,,,,,,,,,,,,,,l,1,"[""0.047"",""0.597"",""0.650"",""0.740""]","[1,0,1,1]",0,19,19,19,1,1,0,,,0,FALSE,0.8485,,,,,,,,,,,,,,,,,,,,,,,,,,,,,,
,60edd43c0e5888230cdd795f,001,2022-04-28_21h00.22.666,classification_task,2021.2.3,Win32,59.80145916,60edd43c0e5888230cdd795f,626b377229c10585ec392f89,626b4675cc0483e5ca12a7d4,,,,,,,,,,,,,,,,,,,,,,,l,0,"[""0.440"",""0.562"",""0.881"",""0.965""]","[0,1,1,1]",0,20,20,20,1,0,0,,,0,FALSE,1.5349,,,,,,,,,,,,,,,,,,,,,,,,,,,,,,
,60edd43c0e5888230cdd795f,001,2022-04-28_21h00.22.666,classification_task,2021.2.3,Win32,59.80145916,60edd43c0e5888230cdd795f,626b377229c10585ec392f89,626b4675cc0483e5ca12a7d4,,,,,,,,,,,,,,,,,,,,,,,a,1,"[""0.172"",""0.333"",""0.605"",""0.924""]","[1,1,0,1]",0,21,21,21,1,0,1,,,0,FALSE,0.9872,,,,,,,,,,,,,,,,,,,,,,,,,,,,,,
,60edd43c0e5888230cdd795f,001,2022-04-28_21h00.22.666,classification_task,2021.2.3,Win32,59.80145916,60edd43c0e5888230cdd795f,626b377229c10585ec392f89,626b4675cc0483e5ca12a7d4,,,,,,,,,,,,,,,,,,,,,,,a,1,"[""0.222"",""0.562"",""0.881"",""0.448""]","[1,1,1,0]",0,22,22,22,1,0,0,,,0,FALSE,0.8361,,,,,,,,,,,,,,,,,,,,,,,,,,,,,,
,60edd43c0e5888230cdd795f,001,2022-04-28_21h00.22.666,classification_task,2021.2.3,Win32,59.80145916,60edd43c0e5888230cdd795f,626b377229c10585ec392f89,626b4675cc0483e5ca12a7d4,,,,,,,,,,,,,,,,,,,,,,,a,1,"[""0.604"",""0.333"",""0.690"",""0.924""]","[0,1,1,1]",0,23,23,23,1,0,1,,,0,FALSE,1.7195,,,,,,,,,,,,,,,,,,,,,,,,,,,,,,
,60edd43c0e5888230cdd795f,001,2022-04-28_21h00.22.666,classification_task,2021.2.3,Win32,59.80145916,60edd43c0e5888230cdd795f,626b377229c10585ec392f89,626b4675cc0483e5ca12a7d4,,,,,,,,,,,,,,,,,,,,,,,l,1,"[""0.047"",""0.397"",""0.650"",""0.082""]","[1,1,1,0]",0,24,24,24,1,1,0,,,0,FALSE,0.8004,,,,,,,,,,,,,,,,,,,,,,,,,,,,,,
,60edd43c0e5888230cdd795f,001,2022-04-28_21h00.22.666,classification_task,2021.2.3,Win32,59.80145916,60edd43c0e5888230cdd795f,626b377229c10585ec392f89,626b4675cc0483e5ca12a7d4,,,,,,,,,,,,,,,,,,,,,,,l,1,"[""0.482"",""0.278"",""0.527"",""0.827""]","[0,1,1,1]",0,25,25,25,1,1,1,,,0,FALSE,2.2502,,,,,,,,,,,,,,,,,,,,,,,,,,,,,,
,60edd43c0e5888230cdd795f,001,2022-04-28_21h00.22.666,classification_task,2021.2.3,Win32,59.80145916,60edd43c0e5888230cdd795f,626b377229c10585ec392f89,626b4675cc0483e5ca12a7d4,,,,,,,,,,,,,,,,,,,,,,,a,1,"[""0.172"",""0.333"",""0.690"",""0.436""]","[1,1,1,0]",0,26,26,26,1,0,1,,,0,FALSE,1.0199,,,,,,,,,,,,,,,,,,,,,,,,,,,,,,
,60edd43c0e5888230cdd795f,001,2022-04-28_21h00.22.666,classification_task,2021.2.3,Win32,59.80145916,60edd43c0e5888230cdd795f,626b377229c10585ec392f89,626b4675cc0483e5ca12a7d4,,,,,,,,,,,,,,,,,,,,,,,l,1,"[""0.122"",""0.278"",""0.527"",""0.777""]","[1,1,1,0]",0,27,27,27,1,1,1,,,0,FALSE,0.9198,,,,,,,,,,,,,,,,,,,,,,,,,,,,,,
,60edd43c0e5888230cdd795f,001,2022-04-28_21h00.22.666,classification_task,2021.2.3,Win32,59.80145916,60edd43c0e5888230cdd795f,626b377229c10585ec392f89,626b4675cc0483e5ca12a7d4,,,,,,,,,,,,,,,,,,,,,,,l,1,"[""0.047"",""0.397"",""0.605"",""0.740""]","[1,1,0,1]",0,28,28,28,1,1,0,,,0,FALSE,3.3342,,,,,,,,,,,,,,,,,,,,,,,,,,,,,,
,60edd43c0e5888230cdd795f,001,2022-04-28_21h00.22.666,classification_task,2021.2.3,Win32,59.80145916,60edd43c0e5888230cdd795f,626b377229c10585ec392f89,626b4675cc0483e5ca12a7d4,,,,,,,,,,,,,,,,,,,,,,,l,1,"[""0.122"",""0.599"",""0.527"",""0.827""]","[1,0,1,1]",0,29,29,29,1,1,1,,,0,FALSE,1.099,,,,,,,,,,,,,,,,,,,,,,,,,,,,,,
,60edd43c0e5888230cdd795f,001,2022-04-28_21h00.22.666,classification_task,2021.2.3,Win32,59.80145916,60edd43c0e5888230cdd795f,626b377229c10585ec392f89,626b4675cc0483e5ca12a7d4,,,,,,,,,,,,,,,,,,,,,,,a,1,"[""0.222"",""0.489"",""0.881"",""0.965""]","[1,0,1,1]",0,30,30,30,1,0,0,,,0,FALSE,0.8533,,,,,,,,,,,,,,,,,,,,,,,,,,,,,,
,60edd43c0e5888230cdd795f,001,2022-04-28_21h00.22.666,classification_task,2021.2.3,Win32,59.80145916,60edd43c0e5888230cdd795f,626b377229c10585ec392f89,626b4675cc0483e5ca12a7d4,,,,,,,,,,,,,,,,,,,,,,,a,1,"[""0.222"",""0.562"",""0.082"",""0.965""]","[1,1,0,1]",0,31,31,31,1,0,0,,,0,FALSE,1.3711,,,,,,,,,,,,,,,,,,,,,,,,,,,,,,
,60edd43c0e5888230cdd795f,001,2022-04-28_21h00.22.666,classification_task,2021.2.3,Win32,59.80145916,60edd43c0e5888230cdd795f,626b377229c10585ec392f89,626b4675cc0483e5ca12a7d4,,,,,,,,,,,,,,,,,,,,,,,a,1,"[""0.222"",""0.562"",""0.448"",""0.965""]","[1,1,0,1]",0,32,32,32,1,0,0,,,0,FALSE,0.6521,,,,,,,,,,,,,,,,,,,,,,,,,,,,,,
,60edd43c0e5888230cdd795f,001,2022-04-28_21h00.22.666,classification_task,2021.2.3,Win32,59.80145916,60edd43c0e5888230cdd795f,626b377229c10585ec392f89,626b4675cc0483e5ca12a7d4,,,,,,,,,,,,,,,,,,,,,,,l,1,"[""0.122"",""0.278"",""0.600"",""0.827""]","[1,1,0,1]",0,33,33,33,1,1,1,,,0,FALSE,1.0697,,,,,,,,,,,,,,,,,,,,,,,,,,,,,,
,60edd43c0e5888230cdd795f,001,2022-04-28_21h00.22.666,classification_task,2021.2.3,Win32,59.80145916,60edd43c0e5888230cdd795f,626b377229c10585ec392f89,626b4675cc0483e5ca12a7d4,,,,,,,,,,,,,,,,,,,,,,,a,1,"[""0.172"",""0.482"",""0.690"",""0.924""]","[1,0,1,1]",0,34,34,34,1,0,1,,,0,FALSE,1.4492,,,,,,,,,,,,,,,,,,,,,,,,,,,,,,
,60edd43c0e5888230cdd795f,001,2022-04-28_21h00.22.666,classification_task,2021.2.3,Win32,59.80145916,60edd43c0e5888230cdd795f,626b377229c10585ec392f89,626b4675cc0483e5ca12a7d4,,,,,,,,,,,,,,,,,,,,,,,a,1,"[""0.222"",""0.448"",""0.881"",""0.965""]","[1,0,1,1]",0,35,35,35,1,0,0,,,0,FALSE,0.6205,,,,,,,,,,,,,,,,,,,,,,,,,,,,,,
,60edd43c0e5888230cdd795f,001,2022-04-28_21h00.22.666,classification_task,2021.2.3,Win32,59.80145916,60edd43c0e5888230cdd795f,626b377229c10585ec392f89,626b4675cc0483e5ca12a7d4,,,,,,,,,,,,,,,,,,,,,,,l,1,"[""0.600"",""0.397"",""0.650"",""0.740""]","[0,1,1,1]",0,36,36,36,1,1,0,,,0,FALSE,2.5509,,,,,,,,,,,,,,,,,,,,,,,,,,,,,,
,60edd43c0e5888230cdd795f,001,2022-04-28_21h00.22.666,classification_task,2021.2.3,Win32,59.80145916,60edd43c0e5888230cdd795f,626b377229c10585ec392f89,626b4675cc0483e5ca12a7d4,,,,,,,,,,,,,,,,,,,,,,,l,1,"[""0.122"",""0.278"",""0.527"",""0.458""]","[1,1,1,0]",0,37,37,37,1,1,1,,,0,FALSE,1.6519,,,,,,,,,,,,,,,,,,,,,,,,,,,,,,
,60edd43c0e5888230cdd795f,001,2022-04-28_21h00.22.666,classification_task,2021.2.3,Win32,59.80145916,60edd43c0e5888230cdd795f,626b377229c10585ec392f89,626b4675cc0483e5ca12a7d4,,,,,,,,,,,,,,,,,,,,,,,l,1,"[""0.047"",""0.397"",""0.436"",""0.740""]","[1,1,0,1]",0,38,38,38,1,1,0,,,0,FALSE,0.8337,,,,,,,,,,,,,,,,,,,,,,,,,,,,,,
,60edd43c0e5888230cdd795f,001,2022-04-28_21h00.22.666,classification_task,2021.2.3,Win32,59.80145916,60edd43c0e5888230cdd795f,626b377229c10585ec392f89,626b4675cc0483e5ca12a7d4,,,,,,,,,,,,,,,,,,,,,,,l,1,"[""0.047"",""0.397"",""0.650"",""0.448""]","[1,1,1,0]",0,39,39,39,1,1,0,,,0,FALSE,0.5834,,,,,,,,,,,,,,,,,,,,,,,,,,,,,,
,60edd43c0e5888230cdd795f,001,2022-04-28_21h00.22.666,classification_task,2021.2.3,Win32,59.80145916,60edd43c0e5888230cdd795f,626b377229c10585ec392f89,626b4675cc0483e5ca12a7d4,,,,,,,,,,,,,,,,,,,,,,,a,1,"[""0.172"",""0.333"",""0.777"",""0.924""]","[1,1,0,1]",0,40,40,40,1,0,1,,,0,FALSE,1.0497,,,,,,,,,,,,,,,,,,,,,,,,,,,,,,
,60edd43c0e5888230cdd795f,001,2022-04-28_21h00.22.666,classification_task,2021.2.3,Win32,59.80145916,60edd43c0e5888230cdd795f,626b377229c10585ec392f89,626b4675cc0483e5ca12a7d4,,,,,,,,,,,,,,,,,,,,,,,a,1,"[""0.222"",""0.562"",""0.881"",""0.482""]","[1,1,1,0]",0,41,41,41,1,0,0,,,0,FALSE,0.6485,,,,,,,,,,,,,,,,,,,,,,,,,,,,,,
,60edd43c0e5888230cdd795f,001,2022-04-28_21h00.22.666,classification_task,2021.2.3,Win32,59.80145916,60edd43c0e5888230cdd795f,626b377229c10585ec392f89,626b4675cc0483e5ca12a7d4,,,,,,,,,,,,,,,,,,,,,,,l,1,"[""0.122"",""0.440"",""0.527"",""0.827""]","[1,0,1,1]",0,42,42,42,1,1,1,,,0,FALSE,0.8867,,,,,,,,,,,,,,,,,,,,,,,,,,,,,,
,60edd43c0e5888230cdd795f,001,2022-04-28_21h00.22.666,classification_task,2021.2.3,Win32,59.80145916,60edd43c0e5888230cdd795f,626b377229c10585ec392f89,626b4675cc0483e5ca12a7d4,,,,,,,,,,,,,,,,,,,,,,,a,1,"[""0.604"",""0.333"",""0.690"",""0.924""]","[0,1,1,1]",0,43,43,43,1,0,1,,,0,FALSE,3.6508,,,,,,,,,,,,,,,,,,,,,,,,,,,,,,
,60edd43c0e5888230cdd795f,001,2022-04-28_21h00.22.666,classification_task,2021.2.3,Win32,59.80145916,60edd43c0e5888230cdd795f,626b377229c10585ec392f89,626b4675cc0483e5ca12a7d4,,,,,,,,,,,,,,,,,,,,,,,a,1,"[""0.172"",""0.333"",""0.690"",""0.436""]","[1,1,1,0]",0,44,44,44,1,0,1,,,0,FALSE,0.9353,,,,,,,,,,,,,,,,,,,,,,,,,,,,,,
,60edd43c0e5888230cdd795f,001,2022-04-28_21h00.22.666,classification_task,2021.2.3,Win32,59.80145916,60edd43c0e5888230cdd795f,626b377229c10585ec392f89,626b4675cc0483e5ca12a7d4,,,,,,,,,,,,,,,,,,,,,,,l,1,"[""0.047"",""0.604"",""0.650"",""0.740""]","[1,0,1,1]",0,45,45,45,1,1,0,,,0,FALSE,0.7041,,,,,,,,,,,,,,,,,,,,,,,,,,,,,,
,60edd43c0e5888230cdd795f,001,2022-04-28_21h00.22.666,classification_task,2021.2.3,Win32,59.80145916,60edd43c0e5888230cdd795f,626b377229c10585ec392f89,626b4675cc0483e5ca12a7d4,,,,,,,,,,,,,,,,,,,,,,,l,0,"[""0.465"",""0.562"",""0.881"",""0.965""]","[0,1,1,1]",0,46,46,46,1,0,0,,,0,FALSE,2.9853,,,,,,,,,,,,,,,,,,,,,,,,,,,,,,
,60edd43c0e5888230cdd795f,001,2022-04-28_21h00.22.666,classification_task,2021.2.3,Win32,59.80145916,60edd43c0e5888230cdd795f,626b377229c10585ec392f89,626b4675cc0483e5ca12a7d4,,,,,,,,,,,,,,,,,,,,,,,l,1,"[""0.599"",""0.278"",""0.527"",""0.827""]","[0,1,1,1]",0,47,47,47,1,1,1,,,0,FALSE,2.6201,,,,,,,,,,,,,,,,,,,,,,,,,,,,,,
,60edd43c0e5888230cdd795f,001,2022-04-28_21h00.22.666,classification_task,2021.2.3,Win32,59.80145916,60edd43c0e5888230cdd795f,626b377229c10585ec392f89,626b4675cc0483e5ca12a7d4,,,,,,,,,,,,,,,,,,,,,,,a,1,"[""0.222"",""0.489"",""0.881"",""0.965""]","[1,0,1,1]",0,48,48,48,1,0,0,,,0,FALSE,0.6186,,,,,,,,,,,,,,,,,,,,,,,,,,,,,,
,60edd43c0e5888230cdd795f,001,2022-04-28_21h00.22.666,classification_task,2021.2.3,Win32,59.80145916,60edd43c0e5888230cdd795f,626b377229c10585ec392f89,626b4675cc0483e5ca12a7d4,,,,,,,,,,,,,,,,,,,,,,,l,1,"[""0.047"",""0.397"",""0.650"",""0.597""]","[1,1,1,0]",0,49,49,49,1,1,0,,,0,FALSE,1.7517,,,,,,,,,,,,,,,,,,,,,,,,,,,,,,
,60edd43c0e5888230cdd795f,001,2022-04-28_21h00.22.666,classification_task,2021.2.3,Win32,59.80145916,60edd43c0e5888230cdd795f,626b377229c10585ec392f89,626b4675cc0483e5ca12a7d4,,,,,,,,,,,,,,,,,,,,,,,l,1,"[""0.122"",""0.613"",""0.527"",""0.827""]","[1,0,1,1]",0,50,50,50,1,1,1,,,0,FALSE,1.2517,,,,,,,,,,,,,,,,,,,,,,,,,,,,,,
,60edd43c0e5888230cdd795f,001,2022-04-28_21h00.22.666,classification_task,2021.2.3,Win32,59.80145916,60edd43c0e5888230cdd795f,626b377229c10585ec392f89,626b4675cc0483e5ca12a7d4,,,,,,,,,,,,,,,,,,,,,,,a,1,"[""0.465"",""0.333"",""0.690"",""0.924""]","[0,1,1,1]",0,51,51,51,1,0,1,,,0,FALSE,0.8028,,,,,,,,,,,,,,,,,,,,,,,,,,,,,,
,60edd43c0e5888230cdd795f,001,2022-04-28_21h00.22.666,classification_task,2021.2.3,Win32,59.80145916,60edd43c0e5888230cdd795f,626b377229c10585ec392f89,626b4675cc0483e5ca12a7d4,,,,,,,,,,,,,,,,,,,,,,,l,1,"[""0.597"",""0.278"",""0.527"",""0.827""]","[0,1,1,1]",0,52,52,52,1,1,1,,,0,FALSE,1.0357,,,,,,,,,,,,,,,,,,,,,,,,,,,,,,
,60edd43c0e5888230cdd795f,001,2022-04-28_21h00.22.666,classification_task,2021.2.3,Win32,59.80145916,60edd43c0e5888230cdd795f,626b377229c10585ec392f89,626b4675cc0483e5ca12a7d4,,,,,,,,,,,,,,,,,,,,,,,l,1,"[""0.047"",""0.465"",""0.650"",""0.740""]","[1,0,1,1]",0,53,53,53,1,1,0,,,0,FALSE,1.7667,,,,,,,,,,,,,,,,,,,,,,,,,,,,,,
,60edd43c0e5888230cdd795f,001,2022-04-28_21h00.22.666,classification_task,2021.2.3,Win32,59.80145916,60edd43c0e5888230cdd795f,626b377229c10585ec392f89,626b4675cc0483e5ca12a7d4,,,,,,,,,,,,,,,,,,,,,,,a,1,"[""0.172"",""0.333"",""0.448"",""0.924""]","[1,1,0,1]",0,54,54,54,1,0,1,,,0,FALSE,0.8681,,,,,,,,,,,,,,,,,,,,,,,,,,,,,,
,60edd43c0e5888230cdd795f,001,2022-04-28_21h00.22.666,classification_task,2021.2.3,Win32,59.80145916,60edd43c0e5888230cdd795f,626b377229c10585ec392f89,626b4675cc0483e5ca12a7d4,,,,,,,,,,,,,,,,,,,,,,,l,1,"[""0.122"",""0.278"",""0.527"",""0.605""]","[1,1,1,0]",0,55,55,55,1,1,1,,,0,FALSE,0.8997,,,,,,,,,,,,,,,,,,,,,,,,,,,,,,
,60edd43c0e5888230cdd795f,001,2022-04-28_21h00.22.666,classification_task,2021.2.3,Win32,59.80145916,60edd43c0e5888230cdd795f,626b377229c10585ec392f89,626b4675cc0483e5ca12a7d4,,,,,,,,,,,,,,,,,,,,,,,a,1,"[""0.222"",""0.562"",""0.881"",""0.777""]","[1,1,1,0]",0,56,56,56,1,0,0,,,0,FALSE,0.6206,,,,,,,,,,,,,,,,,,,,,,,,,,,,,,
,60edd43c0e5888230cdd795f,001,2022-04-28_21h00.22.666,classification_task,2021.2.3,Win32,59.80145916,60edd43c0e5888230cdd795f,626b377229c10585ec392f89,626b4675cc0483e5ca12a7d4,,,,,,,,,,,,,,,,,,,,,,,l,1,"[""0.047"",""0.397"",""0.448"",""0.740""]","[1,1,0,1]",0,57,57,57,1,1,0,,,0,FALSE,0.6177,,,,,,,,,,,,,,,,,,,,,,,,,,,,,,
,60edd43c0e5888230cdd795f,001,2022-04-28_21h00.22.666,classification_task,2021.2.3,Win32,59.80145916,60edd43c0e5888230cdd795f,626b377229c10585ec392f89,626b4675cc0483e5ca12a7d4,,,,,,,,,,,,,,,,,,,,,,,a,1,"[""0.172"",""0.458"",""0.690"",""0.924""]","[1,0,1,1]",0,58,58,58,1,0,1,,,0,FALSE,1.0345,,,,,,,,,,,,,,,,,,,,,,,,,,,,,,
,60edd43c0e5888230cdd795f,001,2022-04-28_21h00.22.666,classification_task,2021.2.3,Win32,59.80145916,60edd43c0e5888230cdd795f,626b377229c10585ec392f89,626b4675cc0483e5ca12a7d4,,,,,,,,,,,,,,,,,,,,,,,l,1,"[""0.122"",""0.278"",""0.482"",""0.827""]","[1,1,0,1]",0,59,59,59,1,1,1,,,0,FALSE,0.956,,,,,,,,,,,,,,,,,,,,,,,,,,,,,,
,60edd43c0e5888230cdd795f,001,2022-04-28_21h00.22.666,classification_task,2021.2.3,Win32,59.80145916,60edd43c0e5888230cdd795f,626b377229c10585ec392f89,626b4675cc0483e5ca12a7d4,,,,,,,,,,,,,,,,,,,,,,,a,1,"[""0.597"",""0.562"",""0.881"",""0.965""]","[0,1,1,1]",0,60,60,60,1,0,0,,,0,FALSE,2.9512,,,,,,,,,,,,,,,,,,,,,,,,,,,,,,
,60edd43c0e5888230cdd795f,001,2022-04-28_21h00.22.666,classification_task,2021.2.3,Win32,59.80145916,60edd43c0e5888230cdd795f,626b377229c10585ec392f89,626b4675cc0483e5ca12a7d4,,,,,,,,,,,,,,,,,,,,,,,a,1,"[""0.222"",""0.562"",""0.597"",""0.965""]","[1,1,0,1]",0,61,61,61,1,0,0,,,0,FALSE,0.7015,,,,,,,,,,,,,,,,,,,,,,,,,,,,,,
,60edd43c0e5888230cdd795f,001,2022-04-28_21h00.22.666,classification_task,2021.2.3,Win32,59.80145916,60edd43c0e5888230cdd795f,626b377229c10585ec392f89,626b4675cc0483e5ca12a7d4,,,,,,,,,,,,,,,,,,,,,,,l,1,"[""0.598"",""0.397"",""0.650"",""0.740""]","[0,1,1,1]",0,62,62,62,1,1,0,,,0,FALSE,0.9836,,,,,,,,,,,,,,,,,,,,,,,,,,,,,,
,60edd43c0e5888230cdd795f,001,2022-04-28_21h00.22.666,classification_task,2021.2.3,Win32,59.80145916,60edd43c0e5888230cdd795f,626b377229c10585ec392f89,626b4675cc0483e5ca12a7d4,,,,,,,,,,,,,,,,,,,,,,,a,1,"[""0.172"",""0.333"",""0.690"",""0.597""]","[1,1,1,0]",0,63,63,63,1,0,1,,,0,FALSE,1.1054,,,,,,,,,,,,,,,,,,,,,,,,,,,,,,
,60edd43c0e5888230cdd795f,001,2022-04-28_21h00.22.666,classification_task,2021.2.3,Win32,59.80145916,60edd43c0e5888230cdd795f,626b377229c10585ec392f89,626b4675cc0483e5ca12a7d4,,,,,,,,,,,,,,,,,,,,,,,,,,,,,,,,,,,,,,,0, ,,0,8.272431658,186.4903,0,2,2,2,1,2,3,,,,,,,,,,,,,,,,,
,60edd43c0e5888230cdd795f,001,2022-04-28_21h00.22.666,classification_task,2021.2.3,Win32,59.80145916,60edd43c0e5888230cdd795f,626b377229c10585ec392f89,626b4675cc0483e5ca12a7d4,,,,,,,,,,,,,,,,,,,,,,,,,,,,,,,,,,,,,,,1,  ,,0,8.685791446,189.9399,0,2,2,2,1,2,3,,,,,,,,,,,,,,,,,
,60edd43c0e5888230cdd795f,001,2022-04-28_21h00.22.666,classification_task,2021.2.3,Win32,59.80145916,60edd43c0e5888230cdd795f,626b377229c10585ec392f89,626b4675cc0483e5ca12a7d4,,,,,,,,,,,,,,,,,,,,,,,,,,,,,,,,,,,,,,,2,  ,,0,2.623181217,190.9488,0,2,2,2,1,2,3,,,,,,,,,,,,,,,,,
,60edd43c0e5888230cdd795f,001,2022-04-28_21h00.22.666,classification_task,2021.2.3,Win32,59.80145916,60edd43c0e5888230cdd795f,626b377229c10585ec392f89,626b4675cc0483e5ca12a7d4,,,,,,,,,,,,,,,,,,,,,,,,,,,,,,,,,,,,,,,,,,,,,0,2,2,2,1,,3,,,,,,,,,,,,,,,,,
,60edd43c0e5888230cdd795f,001,2022-04-28_21h00.22.666,classification_task,2021.2.3,Win32,59.80145916,60edd43c0e5888230cdd795f,626b377229c10585ec392f89,626b4675cc0483e5ca12a7d4,,,,,,,,,,,,,,,,,,,,,,,,,,,,,,,,,,,,,,,,,,,,,,,,,,,,,I believe the aid is a competent performer,,0.7,0,4,977.3803,0,0,0,0,1,0,,,,
,60edd43c0e5888230cdd795f,001,2022-04-28_21h00.22.666,classification_task,2021.2.3,Win32,59.80145916,60edd43c0e5888230cdd795f,626b377229c10585ec392f89,626b4675cc0483e5ca12a7d4,,,,,,,,,,,,,,,,,,,,,,,,,,,,,,,,,,,,,,,,,,,,,,,,,,,,,I trust the aid,,0.7,0,4,976.6934,0,0,0,0,1,0,,,,
,60edd43c0e5888230cdd795f,001,2022-04-28_21h00.22.666,classification_task,2021.2.3,Win32,59.80145916,60edd43c0e5888230cdd795f,626b377229c10585ec392f89,626b4675cc0483e5ca12a7d4,,,,,,,,,,,,,,,,,,,,,,,,,,,,,,,,,,,,,,,,,,,,,,,,,,,,,I have confidence in the advice given by the aid,,0.7,0,5,981.4865,0,0,0,0,1,0,,,,
,60edd43c0e5888230cdd795f,001,2022-04-28_21h00.22.666,classification_task,2021.2.3,Win32,59.80145916,60edd43c0e5888230cdd795f,626b377229c10585ec392f89,626b4675cc0483e5ca12a7d4,,,,,,,,,,,,,,,,,,,,,,,,,,,,,,,,,,,,,,,,,,,,,,,,,,,,,I can depend on the aid,,0.7,0,4,983.3224,0,0,0,0,1,0,,,,
,60edd43c0e5888230cdd795f,001,2022-04-28_21h00.22.666,classification_task,2021.2.3,Win32,59.80145916,60edd43c0e5888230cdd795f,626b377229c10585ec392f89,626b4675cc0483e5ca12a7d4,,,,,,,,,,,,,,,,,,,,,,,,,,,,,,,,,,,,,,,,,,,,,,,,,,,,,I can rely on the aid to behave in consistent ways,,0.7,0,3,988.9944,0,0,0,0,1,0,,,,
,60edd43c0e5888230cdd795f,001,2022-04-28_21h00.22.666,classification_task,2021.2.3,Win32,59.80145916,60edd43c0e5888230cdd795f,626b377229c10585ec392f89,626b4675cc0483e5ca12a7d4,,,,,,,,,,,,,,,,,,,,,,,,,,,,,,,,,,,,,,,,,,,,,,,,,,,,,I can rely on the aid to do its best every time I take its advice,,0.7,0,4,996.5127,0,0,0,0,1,0,,,,
,60edd43c0e5888230cdd795f,001,2022-04-28_21h00.22.666,classification_task,2021.2.3,Win32,59.80145916,60edd43c0e5888230cdd795f,626b377229c10585ec392f89,626b4675cc0483e5ca12a7d4,,,,,,,,,,,,,,,,,,,,,,,,,,,,,,,,,,,,,,,,,,,,,,,,,,,,,"On trials you completed with assistance from the aid, how frequently did you think the aid was correct?",,0.7,0,90,,0,0,0,0,1,0,,,,
,60edd43c0e5888230cdd795f,001,2022-04-28_21h00.22.666,classification_task,2021.2.3,Win32,59.80145916,60edd43c0e5888230cdd795f,626b377229c10585ec392f89,626b4675cc0483e5ca12a7d4,,,,,,,,,,,,,,,,,,,,,,,,,,,,,,,,,,,,,,,,,,,,,,,,,,,,,"On trials you completed without the aid, how frequently did you think you were correct?",,0.7,0,50,,0,0,0,0,1,0,,,,
,60edd43c0e5888230cdd795f,001,2022-04-28_21h00.22.666,classification_task,2021.2.3,Win32,59.80145916,60edd43c0e5888230cdd795f,626b377229c10585ec392f89,626b4675cc0483e5ca12a7d4,,,,,,,,,,,,,,,,,,,,,,,,,,,,,,,,,,,,,,,,,,,,,,,,,,,,,,,,,,,0,0,0,0,1,,,,,
,60edd43c0e5888230cdd795f,001,2022-04-28_21h00.22.666,classification_task,2021.2.3,Win32,59.80145916,60edd43c0e5888230cdd795f,626b377229c10585ec392f89,626b4675cc0483e5ca12a7d4,,,,,,,,,,,,,,,,,,,,,,,,,,,,,,,,,,,,,,,,,,,,,,,,,,,,,,,,,,,,,,,,,space,19.833,1038.9278,
,60edd43c0e5888230cdd795f,001,2022-04-28_21h00.22.666,classification_task,2021.2.3,Win32,59.80145916,60edd43c0e5888230cdd795f,626b377229c10585ec392f89,626b4675cc0483e5ca12a7d4,,,,,,,,,,,,,,,,,,,,,,,,,,,,,,,,,,,,,,,,,,,,,,,,,,,,,,,,,,,,,,,,,,,,"Mozilla/5.0 (Windows NT 10.0; Win64; x64) AppleWebKit/537.36 (KHTML, like Gecko) Chrome/100.0.4896.127 Safari/537.36"
