usingWebGL,participant,session,date,expName,psychopyVersion,OS,frameRate,PROLIFIC_PID,STUDY_ID,SESSION_ID,signatures_friend,signatures_foe,band_ranges_top,band_ranges_bottom,formitemText,formtype,formundefined,formitemWidth,formindex,formresponse,formrt,key_resp_2.keys,key_resp_2.rt,tute_resp.keys,tute_resp.rt,tutorial.thisRepN,tutorial.thisTrialN,tutorial.thisN,tutorial.thisIndex,tutorial.ran,key_resp_4.keys,key_resp_4.rt,key_resp.keys,key_resp.corr,key_resp.rt,lines_presented,is_signal_presented,trials.thisRepN,trials.thisTrialN,trials.thisN,trials.thisIndex,trials.ran,vessel,active_band,lines,is_signal,supported_pos,catch_trial,debrief_formindex,debrief_formitemText,debrief_formtype,debrief_formitemWidth,debrief_formresponse,debrief_formrt,phases.thisRepN,phases.thisTrialN,phases.thisN,phases.thisIndex,phases.ran,phases.order,phase,key_resp_3.keys,trustitemText,trusttype,trustitemWidth,trustindex,trustresponse,trustrt,support_status.thisRepN,support_status.thisTrialN,support_status.thisN,support_status.thisIndex,support_status.ran,support_status.order,key_resp_5.keys,key_resp_5.rt,globalClockTime,userAgent
TRUE,60f3103aaa4f64f02e5c5829,001,2022-04-29_03h20.04.353,classification_task,2021.2.3,Win32,74.96251874,60f3103aaa4f64f02e5c5829,626b377229c10585ec392f89,626b3d21f34aef7422496885,,,,,,,,,,,,,,,,,,,,,,,,,,,,,,,,,,,,,,,,,,,,,,,,,,,,,,,,,,,,,,,,,,,,
,60f3103aaa4f64f02e5c5829,001,2022-04-29_03h20.04.353,classification_task,2021.2.3,Win32,74.96251874,60f3103aaa4f64f02e5c5829,626b377229c10585ec392f89,626b3d21f34aef7422496885,"[[""0.272"",""0.482"",""0.895"",""0.973""],[""0.182"",""0.346"",""0.643"",""0.859""]]","[[""0.077"",""0.386"",""0.443"",""0.823""],[""0.033"",""0.126"",""0.571"",""0.749""]]","[1,10]","[100,1000]",Video game experience,,,0.7,0,,,,,,,,,,,,,,,,,,,,,,,,,,,,,,,,,,,,,,,,,,,,,,,,,,,,,,,,,,,
,60f3103aaa4f64f02e5c5829,001,2022-04-29_03h20.04.353,classification_task,2021.2.3,Win32,74.96251874,60f3103aaa4f64f02e5c5829,626b377229c10585ec392f89,626b3d21f34aef7422496885,,,,,Approximately how many hours did you spend playing video games in the last week?,,,0.7,0,30,,,,,,,,,,,,,,,,,,,,,,,,,,,,,,,,,,,,,,,,,,,,,,,,,,,,,,,,,,
,60f3103aaa4f64f02e5c5829,001,2022-04-29_03h20.04.353,classification_task,2021.2.3,Win32,74.96251874,60f3103aaa4f64f02e5c5829,626b377229c10585ec392f89,626b3d21f34aef7422496885,,,,,"Which game did you play the most this year? (Enter ""None"" if you didn't play any)",,,0.7,0,Sea of Thieves,,,,,,,,,,,,,,,,,,,,,,,,,,,,,,,,,,,,,,,,,,,,,,,,,,,,,,,,,,
,60f3103aaa4f64f02e5c5829,001,2022-04-29_03h20.04.353,classification_task,2021.2.3,Win32,74.96251874,60f3103aaa4f64f02e5c5829,626b377229c10585ec392f89,626b3d21f34aef7422496885,,,,,Visual perception,,,0.7,0,,,,,,,,,,,,,,,,,,,,,,,,,,,,,,,,,,,,,,,,,,,,,,,,,,,,,,,,,,,
,60f3103aaa4f64f02e5c5829,001,2022-04-29_03h20.04.353,classification_task,2021.2.3,Win32,74.96251874,60f3103aaa4f64f02e5c5829,626b377229c10585ec392f89,626b3d21f34aef7422496885,,,,,Do you have any form of color blindness?,,,0.7,0,No,40.698,,,,,,,,,,,,,,,,,,,,,,,,,,,,,,,,,,,,,,,,,,,,,,,,,,,,,,,,,
,60f3103aaa4f64f02e5c5829,001,2022-04-29_03h20.04.353,classification_task,2021.2.3,Win32,74.96251874,60f3103aaa4f64f02e5c5829,626b377229c10585ec392f89,626b3d21f34aef7422496885,,,,,Do you use software to change the colour temperature of your screen (e.g. f.lux)?,,,0.7,0,No,43.822,,,,,,,,,,,,,,,,,,,,,,,,,,,,,,,,,,,,,,,,,,,,,,,,,,,,,,,,,
,60f3103aaa4f64f02e5c5829,001,2022-04-29_03h20.04.353,classification_task,2021.2.3,Win32,74.96251874,60f3103aaa4f64f02e5c5829,626b377229c10585ec392f89,626b3d21f34aef7422496885,,,,,,,,,,,,space,35.863,space,14.495,0,0,0,0,1,,,,,,,,,,,,,,,,,,,,,,,,,,,,,,,,,,,,,,,,,,,,,,,,
,60f3103aaa4f64f02e5c5829,001,2022-04-29_03h20.04.353,classification_task,2021.2.3,Win32,74.96251874,60f3103aaa4f64f02e5c5829,626b377229c10585ec392f89,626b3d21f34aef7422496885,,,,,,,,,,,,,,space,9.776,1,0,1,0,1,,,,,,,,,,,,,,,,,,,,,,,,,,,,,,,,,,,,,,,,,,,,,,,,
,60f3103aaa4f64f02e5c5829,001,2022-04-29_03h20.04.353,classification_task,2021.2.3,Win32,74.96251874,60f3103aaa4f64f02e5c5829,626b377229c10585ec392f89,626b3d21f34aef7422496885,,,,,,,,,,,,,,space,27.419,2,0,2,0,1,,,,,,,,,,,,,,,,,,,,,,,,,,,,,,,,,,,,,,,,,,,,,,,,
,60f3103aaa4f64f02e5c5829,001,2022-04-29_03h20.04.353,classification_task,2021.2.3,Win32,74.96251874,60f3103aaa4f64f02e5c5829,626b377229c10585ec392f89,626b3d21f34aef7422496885,,,,,,,,,,,,,,space,17.977,3,0,3,0,1,,,,,,,,,,,,,,,,,,,,,,,,,,,,,,,,,,,,,,,,,,,,,,,,
,60f3103aaa4f64f02e5c5829,001,2022-04-29_03h20.04.353,classification_task,2021.2.3,Win32,74.96251874,60f3103aaa4f64f02e5c5829,626b377229c10585ec392f89,626b3d21f34aef7422496885,,,,,,,,,,,,,,space,19.181,4,0,4,0,1,,,,,,,,,,,,,,,,,,,,,,,,,,,,,,,,,,,,,,,,,,,,,,,,
,60f3103aaa4f64f02e5c5829,001,2022-04-29_03h20.04.353,classification_task,2021.2.3,Win32,74.96251874,60f3103aaa4f64f02e5c5829,626b377229c10585ec392f89,626b3d21f34aef7422496885,,,,,,,,,,,,,,,,,,,,,space,35.289,a,1,6.638,"[""0.182"",""0.346"",""0.714"",""0.859""]","[1,1,0,1]",0,0,0,0,1,0,1,,,1,FALSE,,,,,,,,,,,,,,,,,,,,,,,,,,,,,,
,60f3103aaa4f64f02e5c5829,001,2022-04-29_03h20.04.353,classification_task,2021.2.3,Win32,74.96251874,60f3103aaa4f64f02e5c5829,626b377229c10585ec392f89,626b3d21f34aef7422496885,,,,,,,,,,,,,,,,,,,,,,,l,1,5.868,"[""0.033"",""0.126"",""0.933"",""0.749""]","[1,1,0,1]",0,1,1,1,1,1,1,,,1,FALSE,,,,,,,,,,,,,,,,,,,,,,,,,,,,,,
,60f3103aaa4f64f02e5c5829,001,2022-04-29_03h20.04.353,classification_task,2021.2.3,Win32,74.96251874,60f3103aaa4f64f02e5c5829,626b377229c10585ec392f89,626b3d21f34aef7422496885,,,,,,,,,,,,,,,,,,,,,,,,0,,"[""0.077"",""0.386"",""0.538"",""0.823""]","[1,1,0,1]",0,2,2,2,1,1,0,,,1,FALSE,,,,,,,,,,,,,,,,,,,,,,,,,,,,,,
,60f3103aaa4f64f02e5c5829,001,2022-04-29_03h20.04.353,classification_task,2021.2.3,Win32,74.96251874,60f3103aaa4f64f02e5c5829,626b377229c10585ec392f89,626b3d21f34aef7422496885,,,,,,,,,,,,,,,,,,,,,,,a,1,4.24,"[""0.272"",""0.482"",""0.895"",""0.714""]","[1,1,1,0]",0,3,3,3,1,0,0,,,1,FALSE,,,,,,,,,,,,,,,,,,,,,,,,,,,,,,
,60f3103aaa4f64f02e5c5829,001,2022-04-29_03h20.04.353,classification_task,2021.2.3,Win32,74.96251874,60f3103aaa4f64f02e5c5829,626b377229c10585ec392f89,626b3d21f34aef7422496885,,,,,,,,,,,,,,,,,,,,,,,a,1,5.108,"[""0.272"",""0.482"",""0.232"",""0.973""]","[1,1,0,1]",0,4,4,4,1,0,0,,,1,FALSE,,,,,,,,,,,,,,,,,,,,,,,,,,,,,,
,60f3103aaa4f64f02e5c5829,001,2022-04-29_03h20.04.353,classification_task,2021.2.3,Win32,74.96251874,60f3103aaa4f64f02e5c5829,626b377229c10585ec392f89,626b3d21f34aef7422496885,,,,,,,,,,,,,,,,,,,,,,,a,1,2.916,"[""0.711"",""0.346"",""0.643"",""0.859""]","[0,1,1,1]",0,5,5,5,1,0,1,,,1,FALSE,,,,,,,,,,,,,,,,,,,,,,,,,,,,,,
,60f3103aaa4f64f02e5c5829,001,2022-04-29_03h20.04.353,classification_task,2021.2.3,Win32,74.96251874,60f3103aaa4f64f02e5c5829,626b377229c10585ec392f89,626b3d21f34aef7422496885,,,,,,,,,,,,,,,,,,,,,,,a,1,2.721,"[""0.182"",""0.933"",""0.643"",""0.859""]","[1,0,1,1]",0,6,6,6,1,0,1,,,1,FALSE,,,,,,,,,,,,,,,,,,,,,,,,,,,,,,
,60f3103aaa4f64f02e5c5829,001,2022-04-29_03h20.04.353,classification_task,2021.2.3,Win32,74.96251874,60f3103aaa4f64f02e5c5829,626b377229c10585ec392f89,626b3d21f34aef7422496885,,,,,,,,,,,,,,,,,,,,,,,l,1,5.647,"[""0.033"",""0.711"",""0.571"",""0.749""]","[1,0,1,1]",0,7,7,7,1,1,1,,,1,FALSE,,,,,,,,,,,,,,,,,,,,,,,,,,,,,,
,60f3103aaa4f64f02e5c5829,001,2022-04-29_03h20.04.353,classification_task,2021.2.3,Win32,74.96251874,60f3103aaa4f64f02e5c5829,626b377229c10585ec392f89,626b3d21f34aef7422496885,,,,,,,,,,,,,,,,,,,,,,,a,0,4.068,"[""0.033"",""0.126"",""0.571"",""0.937""]","[1,1,1,0]",0,8,8,8,1,1,1,,,1,FALSE,,,,,,,,,,,,,,,,,,,,,,,,,,,,,,
,60f3103aaa4f64f02e5c5829,001,2022-04-29_03h20.04.353,classification_task,2021.2.3,Win32,74.96251874,60f3103aaa4f64f02e5c5829,626b377229c10585ec392f89,626b3d21f34aef7422496885,,,,,,,,,,,,,,,,,,,,,,,l,1,4.934,"[""0.222"",""0.126"",""0.571"",""0.749""]","[0,1,1,1]",0,9,9,9,1,1,1,,,1,FALSE,,,,,,,,,,,,,,,,,,,,,,,,,,,,,,
,60f3103aaa4f64f02e5c5829,001,2022-04-29_03h20.04.353,classification_task,2021.2.3,Win32,74.96251874,60f3103aaa4f64f02e5c5829,626b377229c10585ec392f89,626b3d21f34aef7422496885,,,,,,,,,,,,,,,,,,,,,,,a,0,3.963,"[""0.533"",""0.386"",""0.443"",""0.823""]","[0,1,1,1]",0,10,10,10,1,1,0,,,1,FALSE,,,,,,,,,,,,,,,,,,,,,,,,,,,,,,
,60f3103aaa4f64f02e5c5829,001,2022-04-29_03h20.04.353,classification_task,2021.2.3,Win32,74.96251874,60f3103aaa4f64f02e5c5829,626b377229c10585ec392f89,626b3d21f34aef7422496885,,,,,,,,,,,,,,,,,,,,,,,l,0,7.425,"[""0.182"",""0.346"",""0.643"",""0.221""]","[1,1,1,0]",0,11,11,11,1,0,1,,,1,FALSE,,,,,,,,,,,,,,,,,,,,,,,,,,,,,,
,60f3103aaa4f64f02e5c5829,001,2022-04-29_03h20.04.353,classification_task,2021.2.3,Win32,74.96251874,60f3103aaa4f64f02e5c5829,626b377229c10585ec392f89,626b3d21f34aef7422496885,,,,,,,,,,,,,,,,,,,,,,,l,1,6.358,"[""0.077"",""0.533"",""0.443"",""0.823""]","[1,0,1,1]",0,12,12,12,1,1,0,,,1,FALSE,,,,,,,,,,,,,,,,,,,,,,,,,,,,,,
,60f3103aaa4f64f02e5c5829,001,2022-04-29_03h20.04.353,classification_task,2021.2.3,Win32,74.96251874,60f3103aaa4f64f02e5c5829,626b377229c10585ec392f89,626b3d21f34aef7422496885,,,,,,,,,,,,,,,,,,,,,,,a,1,3.842,"[""0.272"",""0.533"",""0.895"",""0.973""]","[1,0,1,1]",0,13,13,13,1,0,0,,,1,FALSE,,,,,,,,,,,,,,,,,,,,,,,,,,,,,,
,60f3103aaa4f64f02e5c5829,001,2022-04-29_03h20.04.353,classification_task,2021.2.3,Win32,74.96251874,60f3103aaa4f64f02e5c5829,626b377229c10585ec392f89,626b3d21f34aef7422496885,,,,,,,,,,,,,,,,,,,,,,,a,0,6.335,"[""0.077"",""0.386"",""0.443"",""0.222""]","[1,1,1,0]",0,14,14,14,1,1,0,,,1,FALSE,,,,,,,,,,,,,,,,,,,,,,,,,,,,,,
,60f3103aaa4f64f02e5c5829,001,2022-04-29_03h20.04.353,classification_task,2021.2.3,Win32,74.96251874,60f3103aaa4f64f02e5c5829,626b377229c10585ec392f89,626b3d21f34aef7422496885,,,,,,,,,,,,,,,,,,,,,,,a,1,4.882,"[""0.714"",""0.482"",""0.895"",""0.973""]","[0,1,1,1]",0,15,15,15,1,0,0,,,1,FALSE,,,,,,,,,,,,,,,,,,,,,,,,,,,,,,
,60f3103aaa4f64f02e5c5829,001,2022-04-29_03h20.04.353,classification_task,2021.2.3,Win32,74.96251874,60f3103aaa4f64f02e5c5829,626b377229c10585ec392f89,626b3d21f34aef7422496885,,,,,,,,,,,,,,,,,,,,,,,l,1,4.294,"[""0.937"",""0.126"",""0.571"",""0.749""]","[0,1,1,1]",0,16,16,16,1,1,1,,,1,FALSE,,,,,,,,,,,,,,,,,,,,,,,,,,,,,,
,60f3103aaa4f64f02e5c5829,001,2022-04-29_03h20.04.353,classification_task,2021.2.3,Win32,74.96251874,60f3103aaa4f64f02e5c5829,626b377229c10585ec392f89,626b3d21f34aef7422496885,,,,,,,,,,,,,,,,,,,,,,,l,1,5.127,"[""0.033"",""0.223"",""0.571"",""0.749""]","[1,0,1,1]",0,17,17,17,1,1,1,,,1,FALSE,,,,,,,,,,,,,,,,,,,,,,,,,,,,,,
,60f3103aaa4f64f02e5c5829,001,2022-04-29_03h20.04.353,classification_task,2021.2.3,Win32,74.96251874,60f3103aaa4f64f02e5c5829,626b377229c10585ec392f89,626b3d21f34aef7422496885,,,,,,,,,,,,,,,,,,,,,,,l,1,4.946,"[""0.077"",""0.386"",""0.443"",""0.683""]","[1,1,1,0]",0,18,18,18,1,1,0,,,1,FALSE,,,,,,,,,,,,,,,,,,,,,,,,,,,,,,
,60f3103aaa4f64f02e5c5829,001,2022-04-29_03h20.04.353,classification_task,2021.2.3,Win32,74.96251874,60f3103aaa4f64f02e5c5829,626b377229c10585ec392f89,626b3d21f34aef7422496885,,,,,,,,,,,,,,,,,,,,,,,a,1,4.233,"[""0.182"",""0.346"",""0.643"",""0.786""]","[1,1,1,0]",0,19,19,19,1,0,1,,,1,FALSE,,,,,,,,,,,,,,,,,,,,,,,,,,,,,,
,60f3103aaa4f64f02e5c5829,001,2022-04-29_03h20.04.353,classification_task,2021.2.3,Win32,74.96251874,60f3103aaa4f64f02e5c5829,626b377229c10585ec392f89,626b3d21f34aef7422496885,,,,,,,,,,,,,,,,,,,,,,,a,1,4.027,"[""0.182"",""0.933"",""0.643"",""0.859""]","[1,0,1,1]",0,20,20,20,1,0,1,,,1,FALSE,,,,,,,,,,,,,,,,,,,,,,,,,,,,,,
,60f3103aaa4f64f02e5c5829,001,2022-04-29_03h20.04.353,classification_task,2021.2.3,Win32,74.96251874,60f3103aaa4f64f02e5c5829,626b377229c10585ec392f89,626b3d21f34aef7422496885,,,,,,,,,,,,,,,,,,,,,,,a,1,3.079,"[""0.272"",""0.482"",""0.683"",""0.973""]","[1,1,0,1]",0,21,21,21,1,0,0,,,1,FALSE,,,,,,,,,,,,,,,,,,,,,,,,,,,,,,
,60f3103aaa4f64f02e5c5829,001,2022-04-29_03h20.04.353,classification_task,2021.2.3,Win32,74.96251874,60f3103aaa4f64f02e5c5829,626b377229c10585ec392f89,626b3d21f34aef7422496885,,,,,,,,,,,,,,,,,,,,,,,a,1,4.717,"[""0.182"",""0.346"",""0.223"",""0.859""]","[1,1,0,1]",0,22,22,22,1,0,1,,,1,FALSE,,,,,,,,,,,,,,,,,,,,,,,,,,,,,,
,60f3103aaa4f64f02e5c5829,001,2022-04-29_03h20.04.353,classification_task,2021.2.3,Win32,74.96251874,60f3103aaa4f64f02e5c5829,626b377229c10585ec392f89,626b3d21f34aef7422496885,,,,,,,,,,,,,,,,,,,,,,,l,1,3.244,"[""0.077"",""0.711"",""0.443"",""0.823""]","[1,0,1,1]",0,23,23,23,1,1,0,,,1,FALSE,,,,,,,,,,,,,,,,,,,,,,,,,,,,,,
,60f3103aaa4f64f02e5c5829,001,2022-04-29_03h20.04.353,classification_task,2021.2.3,Win32,74.96251874,60f3103aaa4f64f02e5c5829,626b377229c10585ec392f89,626b3d21f34aef7422496885,,,,,,,,,,,,,,,,,,,,,,,l,0,7.113,"[""0.711"",""0.482"",""0.895"",""0.973""]","[0,1,1,1]",0,24,24,24,1,0,0,,,1,FALSE,,,,,,,,,,,,,,,,,,,,,,,,,,,,,,
,60f3103aaa4f64f02e5c5829,001,2022-04-29_03h20.04.353,classification_task,2021.2.3,Win32,74.96251874,60f3103aaa4f64f02e5c5829,626b377229c10585ec392f89,626b3d21f34aef7422496885,,,,,,,,,,,,,,,,,,,,,,,a,1,5.611,"[""0.538"",""0.346"",""0.643"",""0.859""]","[0,1,1,1]",0,25,25,25,1,0,1,,,1,FALSE,,,,,,,,,,,,,,,,,,,,,,,,,,,,,,
,60f3103aaa4f64f02e5c5829,001,2022-04-29_03h20.04.353,classification_task,2021.2.3,Win32,74.96251874,60f3103aaa4f64f02e5c5829,626b377229c10585ec392f89,626b3d21f34aef7422496885,,,,,,,,,,,,,,,,,,,,,,,l,1,4.081,"[""0.033"",""0.126"",""0.571"",""0.786""]","[1,1,1,0]",0,26,26,26,1,1,1,,,1,FALSE,,,,,,,,,,,,,,,,,,,,,,,,,,,,,,
,60f3103aaa4f64f02e5c5829,001,2022-04-29_03h20.04.353,classification_task,2021.2.3,Win32,74.96251874,60f3103aaa4f64f02e5c5829,626b377229c10585ec392f89,626b3d21f34aef7422496885,,,,,,,,,,,,,,,,,,,,,,,l,1,3.868,"[""0.077"",""0.386"",""0.786"",""0.823""]","[1,1,0,1]",0,27,27,27,1,1,0,,,1,FALSE,,,,,,,,,,,,,,,,,,,,,,,,,,,,,,
,60f3103aaa4f64f02e5c5829,001,2022-04-29_03h20.04.353,classification_task,2021.2.3,Win32,74.96251874,60f3103aaa4f64f02e5c5829,626b377229c10585ec392f89,626b3d21f34aef7422496885,,,,,,,,,,,,,,,,,,,,,,,l,1,2.543,"[""0.033"",""0.126"",""0.232"",""0.749""]","[1,1,0,1]",0,28,28,28,1,1,1,,,1,FALSE,,,,,,,,,,,,,,,,,,,,,,,,,,,,,,
,60f3103aaa4f64f02e5c5829,001,2022-04-29_03h20.04.353,classification_task,2021.2.3,Win32,74.96251874,60f3103aaa4f64f02e5c5829,626b377229c10585ec392f89,626b3d21f34aef7422496885,,,,,,,,,,,,,,,,,,,,,,,a,1,3.024,"[""0.272"",""0.482"",""0.895"",""0.711""]","[1,1,1,0]",0,29,29,29,1,0,0,,,1,FALSE,,,,,,,,,,,,,,,,,,,,,,,,,,,,,,
,60f3103aaa4f64f02e5c5829,001,2022-04-29_03h20.04.353,classification_task,2021.2.3,Win32,74.96251874,60f3103aaa4f64f02e5c5829,626b377229c10585ec392f89,626b3d21f34aef7422496885,,,,,,,,,,,,,,,,,,,,,,,l,1,3.287,"[""0.714"",""0.386"",""0.443"",""0.823""]","[0,1,1,1]",0,30,30,30,1,1,0,,,1,FALSE,,,,,,,,,,,,,,,,,,,,,,,,,,,,,,
,60f3103aaa4f64f02e5c5829,001,2022-04-29_03h20.04.353,classification_task,2021.2.3,Win32,74.96251874,60f3103aaa4f64f02e5c5829,626b377229c10585ec392f89,626b3d21f34aef7422496885,,,,,,,,,,,,,,,,,,,,,,,a,1,6.143,"[""0.272"",""0.222"",""0.895"",""0.973""]","[1,0,1,1]",0,31,31,31,1,0,0,,,1,FALSE,,,,,,,,,,,,,,,,,,,,,,,,,,,,,,
,60f3103aaa4f64f02e5c5829,001,2022-04-29_03h20.04.353,classification_task,2021.2.3,Win32,74.96251874,60f3103aaa4f64f02e5c5829,626b377229c10585ec392f89,626b3d21f34aef7422496885,,,,,,,,,,,,,,,,,,,,,,,a,1,4.825,"[""0.182"",""0.346"",""0.643"",""0.937""]","[1,1,1,0]",0,32,32,32,1,0,1,,,1,FALSE,,,,,,,,,,,,,,,,,,,,,,,,,,,,,,
,60f3103aaa4f64f02e5c5829,001,2022-04-29_03h20.04.353,classification_task,2021.2.3,Win32,74.96251874,60f3103aaa4f64f02e5c5829,626b377229c10585ec392f89,626b3d21f34aef7422496885,,,,,,,,,,,,,,,,,,,,,,,l,1,3.048,"[""0.033"",""0.126"",""0.571"",""0.714""]","[1,1,1,0]",0,33,33,33,1,1,1,,,1,FALSE,,,,,,,,,,,,,,,,,,,,,,,,,,,,,,
,60f3103aaa4f64f02e5c5829,001,2022-04-29_03h20.04.353,classification_task,2021.2.3,Win32,74.96251874,60f3103aaa4f64f02e5c5829,626b377229c10585ec392f89,626b3d21f34aef7422496885,,,,,,,,,,,,,,,,,,,,,,,l,1,2.418,"[""0.033"",""0.715"",""0.571"",""0.749""]","[1,0,1,1]",0,34,34,34,1,1,1,,,1,FALSE,,,,,,,,,,,,,,,,,,,,,,,,,,,,,,
,60f3103aaa4f64f02e5c5829,001,2022-04-29_03h20.04.353,classification_task,2021.2.3,Win32,74.96251874,60f3103aaa4f64f02e5c5829,626b377229c10585ec392f89,626b3d21f34aef7422496885,,,,,,,,,,,,,,,,,,,,,,,l,1,3.268,"[""0.715"",""0.386"",""0.443"",""0.823""]","[0,1,1,1]",0,35,35,35,1,1,0,,,1,FALSE,,,,,,,,,,,,,,,,,,,,,,,,,,,,,,
,60f3103aaa4f64f02e5c5829,001,2022-04-29_03h20.04.353,classification_task,2021.2.3,Win32,74.96251874,60f3103aaa4f64f02e5c5829,626b377229c10585ec392f89,626b3d21f34aef7422496885,,,,,,,,,,,,,,,,,,,,,,,a,1,1.669,"[""0.182"",""0.222"",""0.643"",""0.859""]","[1,0,1,1]",0,36,36,36,1,0,1,,,1,FALSE,,,,,,,,,,,,,,,,,,,,,,,,,,,,,,
,60f3103aaa4f64f02e5c5829,001,2022-04-29_03h20.04.353,classification_task,2021.2.3,Win32,74.96251874,60f3103aaa4f64f02e5c5829,626b377229c10585ec392f89,626b3d21f34aef7422496885,,,,,,,,,,,,,,,,,,,,,,,l,0,1.495,"[""0.714"",""0.346"",""0.643"",""0.859""]","[0,1,1,1]",0,37,37,37,1,0,1,,,1,FALSE,,,,,,,,,,,,,,,,,,,,,,,,,,,,,,
,60f3103aaa4f64f02e5c5829,001,2022-04-29_03h20.04.353,classification_task,2021.2.3,Win32,74.96251874,60f3103aaa4f64f02e5c5829,626b377229c10585ec392f89,626b3d21f34aef7422496885,,,,,,,,,,,,,,,,,,,,,,,a,0,1.695,"[""0.077"",""0.386"",""0.933"",""0.823""]","[1,1,0,1]",0,38,38,38,1,1,0,,,1,FALSE,,,,,,,,,,,,,,,,,,,,,,,,,,,,,,
,60f3103aaa4f64f02e5c5829,001,2022-04-29_03h20.04.353,classification_task,2021.2.3,Win32,74.96251874,60f3103aaa4f64f02e5c5829,626b377229c10585ec392f89,626b3d21f34aef7422496885,,,,,,,,,,,,,,,,,,,,,,,a,1,2.443,"[""0.272"",""0.683"",""0.895"",""0.973""]","[1,0,1,1]",0,39,39,39,1,0,0,,,1,FALSE,,,,,,,,,,,,,,,,,,,,,,,,,,,,,,
,60f3103aaa4f64f02e5c5829,001,2022-04-29_03h20.04.353,classification_task,2021.2.3,Win32,74.96251874,60f3103aaa4f64f02e5c5829,626b377229c10585ec392f89,626b3d21f34aef7422496885,,,,,,,,,,,,,,,,,,,,,,,a,1,2.069,"[""0.182"",""0.346"",""0.232"",""0.859""]","[1,1,0,1]",0,40,40,40,1,0,1,,,1,FALSE,,,,,,,,,,,,,,,,,,,,,,,,,,,,,,
,60f3103aaa4f64f02e5c5829,001,2022-04-29_03h20.04.353,classification_task,2021.2.3,Win32,74.96251874,60f3103aaa4f64f02e5c5829,626b377229c10585ec392f89,626b3d21f34aef7422496885,,,,,,,,,,,,,,,,,,,,,,,l,1,1.451,"[""0.077"",""0.386"",""0.443"",""0.538""]","[1,1,1,0]",0,41,41,41,1,1,0,,,1,FALSE,,,,,,,,,,,,,,,,,,,,,,,,,,,,,,
,60f3103aaa4f64f02e5c5829,001,2022-04-29_03h20.04.353,classification_task,2021.2.3,Win32,74.96251874,60f3103aaa4f64f02e5c5829,626b377229c10585ec392f89,626b3d21f34aef7422496885,,,,,,,,,,,,,,,,,,,,,,,a,0,1.177,"[""0.077"",""0.221"",""0.443"",""0.823""]","[1,0,1,1]",0,42,42,42,1,1,0,,,1,FALSE,,,,,,,,,,,,,,,,,,,,,,,,,,,,,,
,60f3103aaa4f64f02e5c5829,001,2022-04-29_03h20.04.353,classification_task,2021.2.3,Win32,74.96251874,60f3103aaa4f64f02e5c5829,626b377229c10585ec392f89,626b3d21f34aef7422496885,,,,,,,,,,,,,,,,,,,,,,,a,1,1.207,"[""0.272"",""0.482"",""0.895"",""0.222""]","[1,1,1,0]",0,43,43,43,1,0,0,,,1,FALSE,,,,,,,,,,,,,,,,,,,,,,,,,,,,,,
,60f3103aaa4f64f02e5c5829,001,2022-04-29_03h20.04.353,classification_task,2021.2.3,Win32,74.96251874,60f3103aaa4f64f02e5c5829,626b377229c10585ec392f89,626b3d21f34aef7422496885,,,,,,,,,,,,,,,,,,,,,,,l,1,1.608,"[""0.538"",""0.126"",""0.571"",""0.749""]","[0,1,1,1]",0,44,44,44,1,1,1,,,1,FALSE,,,,,,,,,,,,,,,,,,,,,,,,,,,,,,
,60f3103aaa4f64f02e5c5829,001,2022-04-29_03h20.04.353,classification_task,2021.2.3,Win32,74.96251874,60f3103aaa4f64f02e5c5829,626b377229c10585ec392f89,626b3d21f34aef7422496885,,,,,,,,,,,,,,,,,,,,,,,a,1,1.443,"[""0.272"",""0.482"",""0.711"",""0.973""]","[1,1,0,1]",0,45,45,45,1,0,0,,,1,FALSE,,,,,,,,,,,,,,,,,,,,,,,,,,,,,,
,60f3103aaa4f64f02e5c5829,001,2022-04-29_03h20.04.353,classification_task,2021.2.3,Win32,74.96251874,60f3103aaa4f64f02e5c5829,626b377229c10585ec392f89,626b3d21f34aef7422496885,,,,,,,,,,,,,,,,,,,,,,,l,1,0.973,"[""0.033"",""0.126"",""0.221"",""0.749""]","[1,1,0,1]",0,46,46,46,1,1,1,,,1,FALSE,,,,,,,,,,,,,,,,,,,,,,,,,,,,,,
,60f3103aaa4f64f02e5c5829,001,2022-04-29_03h20.04.353,classification_task,2021.2.3,Win32,74.96251874,60f3103aaa4f64f02e5c5829,626b377229c10585ec392f89,626b3d21f34aef7422496885,,,,,,,,,,,,,,,,,,,,,,,l,0,1.294,"[""0.934"",""0.482"",""0.895"",""0.973""]","[0,1,1,1]",0,47,47,47,1,0,0,,,1,FALSE,,,,,,,,,,,,,,,,,,,,,,,,,,,,,,
,60f3103aaa4f64f02e5c5829,001,2022-04-29_03h20.04.353,classification_task,2021.2.3,Win32,74.96251874,60f3103aaa4f64f02e5c5829,626b377229c10585ec392f89,626b3d21f34aef7422496885,,,,,,,,,,,,,,,,,,,,,,,a,1,0.949,"[""0.182"",""0.346"",""0.643"",""0.704""]","[1,1,1,0]",0,48,48,48,1,0,1,,,1,FALSE,,,,,,,,,,,,,,,,,,,,,,,,,,,,,,
,60f3103aaa4f64f02e5c5829,001,2022-04-29_03h20.04.353,classification_task,2021.2.3,Win32,74.96251874,60f3103aaa4f64f02e5c5829,626b377229c10585ec392f89,626b3d21f34aef7422496885,,,,,,,,,,,,,,,,,,,,,,,l,1,1.5,"[""0.683"",""0.126"",""0.571"",""0.749""]","[0,1,1,1]",0,49,49,49,1,1,1,,,1,FALSE,,,,,,,,,,,,,,,,,,,,,,,,,,,,,,
,60f3103aaa4f64f02e5c5829,001,2022-04-29_03h20.04.353,classification_task,2021.2.3,Win32,74.96251874,60f3103aaa4f64f02e5c5829,626b377229c10585ec392f89,626b3d21f34aef7422496885,,,,,,,,,,,,,,,,,,,,,,,a,0,1.537,"[""0.077"",""0.386"",""0.443"",""0.533""]","[1,1,1,0]",0,50,50,50,1,1,0,,,1,FALSE,,,,,,,,,,,,,,,,,,,,,,,,,,,,,,
,60f3103aaa4f64f02e5c5829,001,2022-04-29_03h20.04.353,classification_task,2021.2.3,Win32,74.96251874,60f3103aaa4f64f02e5c5829,626b377229c10585ec392f89,626b3d21f34aef7422496885,,,,,,,,,,,,,,,,,,,,,,,l,1,1.241,"[""0.033"",""0.714"",""0.571"",""0.749""]","[1,0,1,1]",0,51,51,51,1,1,1,,,1,FALSE,,,,,,,,,,,,,,,,,,,,,,,,,,,,,,
,60f3103aaa4f64f02e5c5829,001,2022-04-29_03h20.04.353,classification_task,2021.2.3,Win32,74.96251874,60f3103aaa4f64f02e5c5829,626b377229c10585ec392f89,626b3d21f34aef7422496885,,,,,,,,,,,,,,,,,,,,,,,l,1,1.388,"[""0.033"",""0.126"",""0.571"",""0.222""]","[1,1,1,0]",0,52,52,52,1,1,1,,,1,FALSE,,,,,,,,,,,,,,,,,,,,,,,,,,,,,,
,60f3103aaa4f64f02e5c5829,001,2022-04-29_03h20.04.353,classification_task,2021.2.3,Win32,74.96251874,60f3103aaa4f64f02e5c5829,626b377229c10585ec392f89,626b3d21f34aef7422496885,,,,,,,,,,,,,,,,,,,,,,,l,1,1.362,"[""0.033"",""0.126"",""0.715"",""0.749""]","[1,1,0,1]",0,53,53,53,1,1,1,,,1,FALSE,,,,,,,,,,,,,,,,,,,,,,,,,,,,,,
,60f3103aaa4f64f02e5c5829,001,2022-04-29_03h20.04.353,classification_task,2021.2.3,Win32,74.96251874,60f3103aaa4f64f02e5c5829,626b377229c10585ec392f89,626b3d21f34aef7422496885,,,,,,,,,,,,,,,,,,,,,,,a,0,3.194,"[""0.786"",""0.386"",""0.443"",""0.823""]","[0,1,1,1]",0,54,54,54,1,1,0,,,1,FALSE,,,,,,,,,,,,,,,,,,,,,,,,,,,,,,
,60f3103aaa4f64f02e5c5829,001,2022-04-29_03h20.04.353,classification_task,2021.2.3,Win32,74.96251874,60f3103aaa4f64f02e5c5829,626b377229c10585ec392f89,626b3d21f34aef7422496885,,,,,,,,,,,,,,,,,,,,,,,a,1,1.469,"[""0.182"",""0.346"",""0.221"",""0.859""]","[1,1,0,1]",0,55,55,55,1,0,1,,,1,FALSE,,,,,,,,,,,,,,,,,,,,,,,,,,,,,,
,60f3103aaa4f64f02e5c5829,001,2022-04-29_03h20.04.353,classification_task,2021.2.3,Win32,74.96251874,60f3103aaa4f64f02e5c5829,626b377229c10585ec392f89,626b3d21f34aef7422496885,,,,,,,,,,,,,,,,,,,,,,,a,1,0.947,"[""0.182"",""0.683"",""0.643"",""0.859""]","[1,0,1,1]",0,56,56,56,1,0,1,,,1,FALSE,,,,,,,,,,,,,,,,,,,,,,,,,,,,,,
,60f3103aaa4f64f02e5c5829,001,2022-04-29_03h20.04.353,classification_task,2021.2.3,Win32,74.96251874,60f3103aaa4f64f02e5c5829,626b377229c10585ec392f89,626b3d21f34aef7422496885,,,,,,,,,,,,,,,,,,,,,,,l,1,1.069,"[""0.077"",""0.386"",""0.533"",""0.823""]","[1,1,0,1]",0,57,57,57,1,1,0,,,1,FALSE,,,,,,,,,,,,,,,,,,,,,,,,,,,,,,
,60f3103aaa4f64f02e5c5829,001,2022-04-29_03h20.04.353,classification_task,2021.2.3,Win32,74.96251874,60f3103aaa4f64f02e5c5829,626b377229c10585ec392f89,626b3d21f34aef7422496885,,,,,,,,,,,,,,,,,,,,,,,a,1,0.868,"[""0.272"",""0.482"",""0.704"",""0.973""]","[1,1,0,1]",0,58,58,58,1,0,0,,,1,FALSE,,,,,,,,,,,,,,,,,,,,,,,,,,,,,,
,60f3103aaa4f64f02e5c5829,001,2022-04-29_03h20.04.353,classification_task,2021.2.3,Win32,74.96251874,60f3103aaa4f64f02e5c5829,626b377229c10585ec392f89,626b3d21f34aef7422496885,,,,,,,,,,,,,,,,,,,,,,,a,1,0.722,"[""0.272"",""0.482"",""0.895"",""0.786""]","[1,1,1,0]",0,59,59,59,1,0,0,,,1,FALSE,,,,,,,,,,,,,,,,,,,,,,,,,,,,,,
,60f3103aaa4f64f02e5c5829,001,2022-04-29_03h20.04.353,classification_task,2021.2.3,Win32,74.96251874,60f3103aaa4f64f02e5c5829,626b377229c10585ec392f89,626b3d21f34aef7422496885,,,,,,,,,,,,,,,,,,,,,,,a,1,0.589,"[""0.272"",""0.537"",""0.895"",""0.973""]","[1,0,1,1]",0,60,60,60,1,0,0,,,1,FALSE,,,,,,,,,,,,,,,,,,,,,,,,,,,,,,
,60f3103aaa4f64f02e5c5829,001,2022-04-29_03h20.04.353,classification_task,2021.2.3,Win32,74.96251874,60f3103aaa4f64f02e5c5829,626b377229c10585ec392f89,626b3d21f34aef7422496885,,,,,,,,,,,,,,,,,,,,,,,l,0,0.991,"[""0.934"",""0.482"",""0.895"",""0.973""]","[0,1,1,1]",0,61,61,61,1,0,0,,,1,FALSE,,,,,,,,,,,,,,,,,,,,,,,,,,,,,,
,60f3103aaa4f64f02e5c5829,001,2022-04-29_03h20.04.353,classification_task,2021.2.3,Win32,74.96251874,60f3103aaa4f64f02e5c5829,626b377229c10585ec392f89,626b3d21f34aef7422496885,,,,,,,,,,,,,,,,,,,,,,,l,0,1.084,"[""0.222"",""0.346"",""0.643"",""0.859""]","[0,1,1,1]",0,62,62,62,1,0,1,,,1,FALSE,,,,,,,,,,,,,,,,,,,,,,,,,,,,,,
,60f3103aaa4f64f02e5c5829,001,2022-04-29_03h20.04.353,classification_task,2021.2.3,Win32,74.96251874,60f3103aaa4f64f02e5c5829,626b377229c10585ec392f89,626b3d21f34aef7422496885,,,,,,,,,,,,,,,,,,,,,,,a,0,2.107,"[""0.077"",""0.538"",""0.443"",""0.823""]","[1,0,1,1]",0,63,63,63,1,1,0,,,1,FALSE,,,,,,,,,,,,,,,,,,,,,,,,,,,,,,
,60f3103aaa4f64f02e5c5829,001,2022-04-29_03h20.04.353,classification_task,2021.2.3,Win32,74.96251874,60f3103aaa4f64f02e5c5829,626b377229c10585ec392f89,626b3d21f34aef7422496885,,,,,,,,,,,,,,,,,,,,,,,,,,,,,,,,,,,,,,,0, ,,0,0.811287478,499.696,0,0,0,0,1,2,1,,,,,,,,,,,,,,,,,
,60f3103aaa4f64f02e5c5829,001,2022-04-29_03h20.04.353,classification_task,2021.2.3,Win32,74.96251874,60f3103aaa4f64f02e5c5829,626b377229c10585ec392f89,626b3d21f34aef7422496885,,,,,,,,,,,,,,,,,,,,,,,,,,,,,,,,,,,,,,,1,  ,,0,5.979815795,506.162,0,0,0,0,1,2,1,,,,,,,,,,,,,,,,,
,60f3103aaa4f64f02e5c5829,001,2022-04-29_03h20.04.353,classification_task,2021.2.3,Win32,74.96251874,60f3103aaa4f64f02e5c5829,626b377229c10585ec392f89,626b3d21f34aef7422496885,,,,,,,,,,,,,,,,,,,,,,,,,,,,,,,,,,,,,,,2,  ,,0,2.942386831,521.024,0,0,0,0,1,2,1,,,,,,,,,,,,,,,,,
,60f3103aaa4f64f02e5c5829,001,2022-04-29_03h20.04.353,classification_task,2021.2.3,Win32,74.96251874,60f3103aaa4f64f02e5c5829,626b377229c10585ec392f89,626b3d21f34aef7422496885,,,,,,,,,,,,,,,,,,,,,,,,,,,,,,,,,,,,,,,,,,,,,0,0,0,0,1,,1,,,,,,,,,,,,,,,,,
,60f3103aaa4f64f02e5c5829,001,2022-04-29_03h20.04.353,classification_task,2021.2.3,Win32,74.96251874,60f3103aaa4f64f02e5c5829,626b377229c10585ec392f89,626b3d21f34aef7422496885,,,,,,,,,,,,,,,,,,,,,space,17.731,a,1,8.704,"[""0.182"",""0.346"",""0.643"",""0.533""]","[1,1,1,0]",0,0,0,0,1,0,1,,,1,FALSE,,,,,,,,,,,,,,,,,,,,,,,,,,,,,,
,60f3103aaa4f64f02e5c5829,001,2022-04-29_03h20.04.353,classification_task,2021.2.3,Win32,74.96251874,60f3103aaa4f64f02e5c5829,626b377229c10585ec392f89,626b3d21f34aef7422496885,,,,,,,,,,,,,,,,,,,,,,,l,0,3.733,"[""0.272"",""0.482"",""0.223"",""0.973""]","[1,1,0,1]",0,1,1,1,1,0,0,,,1,FALSE,,,,,,,,,,,,,,,,,,,,,,,,,,,,,,
,60f3103aaa4f64f02e5c5829,001,2022-04-29_03h20.04.353,classification_task,2021.2.3,Win32,74.96251874,60f3103aaa4f64f02e5c5829,626b377229c10585ec392f89,626b3d21f34aef7422496885,,,,,,,,,,,,,,,,,,,,,,,a,1,0.739,"[""0.182"",""0.346"",""0.934"",""0.859""]","[1,1,0,1]",0,2,2,2,1,0,1,,,1,FALSE,,,,,,,,,,,,,,,,,,,,,,,,,,,,,,
,60f3103aaa4f64f02e5c5829,001,2022-04-29_03h20.04.353,classification_task,2021.2.3,Win32,74.96251874,60f3103aaa4f64f02e5c5829,626b377229c10585ec392f89,626b3d21f34aef7422496885,,,,,,,,,,,,,,,,,,,,,,,a,1,2.118,"[""0.537"",""0.482"",""0.895"",""0.973""]","[0,1,1,1]",0,3,3,3,1,0,0,,,1,FALSE,,,,,,,,,,,,,,,,,,,,,,,,,,,,,,
,60f3103aaa4f64f02e5c5829,001,2022-04-29_03h20.04.353,classification_task,2021.2.3,Win32,74.96251874,60f3103aaa4f64f02e5c5829,626b377229c10585ec392f89,626b3d21f34aef7422496885,,,,,,,,,,,,,,,,,,,,,,,l,1,0.482,"[""0.033"",""0.126"",""0.714"",""0.749""]","[1,1,0,1]",0,4,4,4,1,1,1,,,1,FALSE,,,,,,,,,,,,,,,,,,,,,,,,,,,,,,
,60f3103aaa4f64f02e5c5829,001,2022-04-29_03h20.04.353,classification_task,2021.2.3,Win32,74.96251874,60f3103aaa4f64f02e5c5829,626b377229c10585ec392f89,626b3d21f34aef7422496885,,,,,,,,,,,,,,,,,,,,,,,a,0,1.068,"[""0.077"",""0.386"",""0.538"",""0.823""]","[1,1,0,1]",0,5,5,5,1,1,0,,,1,FALSE,,,,,,,,,,,,,,,,,,,,,,,,,,,,,,
,60f3103aaa4f64f02e5c5829,001,2022-04-29_03h20.04.353,classification_task,2021.2.3,Win32,74.96251874,60f3103aaa4f64f02e5c5829,626b377229c10585ec392f89,626b3d21f34aef7422496885,,,,,,,,,,,,,,,,,,,,,,,a,1,0.929,"[""0.182"",""0.711"",""0.643"",""0.859""]","[1,0,1,1]",0,6,6,6,1,0,1,,,1,FALSE,,,,,,,,,,,,,,,,,,,,,,,,,,,,,,
,60f3103aaa4f64f02e5c5829,001,2022-04-29_03h20.04.353,classification_task,2021.2.3,Win32,74.96251874,60f3103aaa4f64f02e5c5829,626b377229c10585ec392f89,626b3d21f34aef7422496885,,,,,,,,,,,,,,,,,,,,,,,l,1,1.961,"[""0.232"",""0.386"",""0.443"",""0.823""]","[0,1,1,1]",0,7,7,7,1,1,0,,,1,FALSE,,,,,,,,,,,,,,,,,,,,,,,,,,,,,,
,60f3103aaa4f64f02e5c5829,001,2022-04-29_03h20.04.353,classification_task,2021.2.3,Win32,74.96251874,60f3103aaa4f64f02e5c5829,626b377229c10585ec392f89,626b3d21f34aef7422496885,,,,,,,,,,,,,,,,,,,,,,,l,1,1.429,"[""0.077"",""0.386"",""0.443"",""0.937""]","[1,1,1,0]",0,8,8,8,1,1,0,,,1,FALSE,,,,,,,,,,,,,,,,,,,,,,,,,,,,,,
,60f3103aaa4f64f02e5c5829,001,2022-04-29_03h20.04.353,classification_task,2021.2.3,Win32,74.96251874,60f3103aaa4f64f02e5c5829,626b377229c10585ec392f89,626b3d21f34aef7422496885,,,,,,,,,,,,,,,,,,,,,,,a,1,0.91,"[""0.272"",""0.482"",""0.895"",""0.533""]","[1,1,1,0]",0,9,9,9,1,0,0,,,1,FALSE,,,,,,,,,,,,,,,,,,,,,,,,,,,,,,
,60f3103aaa4f64f02e5c5829,001,2022-04-29_03h20.04.353,classification_task,2021.2.3,Win32,74.96251874,60f3103aaa4f64f02e5c5829,626b377229c10585ec392f89,626b3d21f34aef7422496885,,,,,,,,,,,,,,,,,,,,,,,l,1,0.538,"[""0.033"",""0.126"",""0.571"",""0.786""]","[1,1,1,0]",0,10,10,10,1,1,1,,,1,FALSE,,,,,,,,,,,,,,,,,,,,,,,,,,,,,,
,60f3103aaa4f64f02e5c5829,001,2022-04-29_03h20.04.353,classification_task,2021.2.3,Win32,74.96251874,60f3103aaa4f64f02e5c5829,626b377229c10585ec392f89,626b3d21f34aef7422496885,,,,,,,,,,,,,,,,,,,,,,,l,1,0.627,"[""0.033"",""0.715"",""0.571"",""0.749""]","[1,0,1,1]",0,11,11,11,1,1,1,,,1,FALSE,,,,,,,,,,,,,,,,,,,,,,,,,,,,,,
,60f3103aaa4f64f02e5c5829,001,2022-04-29_03h20.04.353,classification_task,2021.2.3,Win32,74.96251874,60f3103aaa4f64f02e5c5829,626b377229c10585ec392f89,626b3d21f34aef7422496885,,,,,,,,,,,,,,,,,,,,,,,l,1,1.065,"[""0.077"",""0.937"",""0.443"",""0.823""]","[1,0,1,1]",0,12,12,12,1,1,0,,,1,FALSE,,,,,,,,,,,,,,,,,,,,,,,,,,,,,,
,60f3103aaa4f64f02e5c5829,001,2022-04-29_03h20.04.353,classification_task,2021.2.3,Win32,74.96251874,60f3103aaa4f64f02e5c5829,626b377229c10585ec392f89,626b3d21f34aef7422496885,,,,,,,,,,,,,,,,,,,,,,,a,1,0.463,"[""0.933"",""0.346"",""0.643"",""0.859""]","[0,1,1,1]",0,13,13,13,1,0,1,,,1,FALSE,,,,,,,,,,,,,,,,,,,,,,,,,,,,,,
,60f3103aaa4f64f02e5c5829,001,2022-04-29_03h20.04.353,classification_task,2021.2.3,Win32,74.96251874,60f3103aaa4f64f02e5c5829,626b377229c10585ec392f89,626b3d21f34aef7422496885,,,,,,,,,,,,,,,,,,,,,,,a,1,0.934,"[""0.272"",""0.537"",""0.895"",""0.973""]","[1,0,1,1]",0,14,14,14,1,0,0,,,1,FALSE,,,,,,,,,,,,,,,,,,,,,,,,,,,,,,
,60f3103aaa4f64f02e5c5829,001,2022-04-29_03h20.04.353,classification_task,2021.2.3,Win32,74.96251874,60f3103aaa4f64f02e5c5829,626b377229c10585ec392f89,626b3d21f34aef7422496885,,,,,,,,,,,,,,,,,,,,,,,l,1,0.516,"[""0.538"",""0.126"",""0.571"",""0.749""]","[0,1,1,1]",0,15,15,15,1,1,1,,,1,FALSE,,,,,,,,,,,,,,,,,,,,,,,,,,,,,,
,60f3103aaa4f64f02e5c5829,001,2022-04-29_03h20.04.353,classification_task,2021.2.3,Win32,74.96251874,60f3103aaa4f64f02e5c5829,626b377229c10585ec392f89,626b3d21f34aef7422496885,,,,,,,,,,,,,,,,,,,,,,,a,1,0.648,"[""0.711"",""0.346"",""0.643"",""0.859""]","[0,1,1,1]",0,16,16,16,1,0,1,,,1,FALSE,,,,,,,,,,,,,,,,,,,,,,,,,,,,,,
,60f3103aaa4f64f02e5c5829,001,2022-04-29_03h20.04.353,classification_task,2021.2.3,Win32,74.96251874,60f3103aaa4f64f02e5c5829,626b377229c10585ec392f89,626b3d21f34aef7422496885,,,,,,,,,,,,,,,,,,,,,,,a,1,0.91,"[""0.272"",""0.482"",""0.533"",""0.973""]","[1,1,0,1]",0,17,17,17,1,0,0,,,1,FALSE,,,,,,,,,,,,,,,,,,,,,,,,,,,,,,
,60f3103aaa4f64f02e5c5829,001,2022-04-29_03h20.04.353,classification_task,2021.2.3,Win32,74.96251874,60f3103aaa4f64f02e5c5829,626b377229c10585ec392f89,626b3d21f34aef7422496885,,,,,,,,,,,,,,,,,,,,,,,l,1,0.573,"[""0.033"",""0.934"",""0.571"",""0.749""]","[1,0,1,1]",0,18,18,18,1,1,1,,,1,FALSE,,,,,,,,,,,,,,,,,,,,,,,,,,,,,,
,60f3103aaa4f64f02e5c5829,001,2022-04-29_03h20.04.353,classification_task,2021.2.3,Win32,74.96251874,60f3103aaa4f64f02e5c5829,626b377229c10585ec392f89,626b3d21f34aef7422496885,,,,,,,,,,,,,,,,,,,,,,,l,1,0.518,"[""0.033"",""0.126"",""0.571"",""0.232""]","[1,1,1,0]",0,19,19,19,1,1,1,,,1,FALSE,,,,,,,,,,,,,,,,,,,,,,,,,,,,,,
,60f3103aaa4f64f02e5c5829,001,2022-04-29_03h20.04.353,classification_task,2021.2.3,Win32,74.96251874,60f3103aaa4f64f02e5c5829,626b377229c10585ec392f89,626b3d21f34aef7422496885,,,,,,,,,,,,,,,,,,,,,,,l,0,0.777,"[""0.182"",""0.786"",""0.643"",""0.859""]","[1,0,1,1]",0,20,20,20,1,0,1,,,1,FALSE,,,,,,,,,,,,,,,,,,,,,,,,,,,,,,
,60f3103aaa4f64f02e5c5829,001,2022-04-29_03h20.04.353,classification_task,2021.2.3,Win32,74.96251874,60f3103aaa4f64f02e5c5829,626b377229c10585ec392f89,626b3d21f34aef7422496885,,,,,,,,,,,,,,,,,,,,,,,a,0,0.521,"[""0.537"",""0.126"",""0.571"",""0.749""]","[0,1,1,1]",0,21,21,21,1,1,1,,,1,FALSE,,,,,,,,,,,,,,,,,,,,,,,,,,,,,,
,60f3103aaa4f64f02e5c5829,001,2022-04-29_03h20.04.353,classification_task,2021.2.3,Win32,74.96251874,60f3103aaa4f64f02e5c5829,626b377229c10585ec392f89,626b3d21f34aef7422496885,,,,,,,,,,,,,,,,,,,,,,,l,0,0.657,"[""0.182"",""0.346"",""0.533"",""0.859""]","[1,1,0,1]",0,22,22,22,1,0,1,,,1,FALSE,,,,,,,,,,,,,,,,,,,,,,,,,,,,,,
,60f3103aaa4f64f02e5c5829,001,2022-04-29_03h20.04.353,classification_task,2021.2.3,Win32,74.96251874,60f3103aaa4f64f02e5c5829,626b377229c10585ec392f89,626b3d21f34aef7422496885,,,,,,,,,,,,,,,,,,,,,,,a,1,1.048,"[""0.272"",""0.537"",""0.895"",""0.973""]","[1,0,1,1]",0,23,23,23,1,0,0,,,1,FALSE,,,,,,,,,,,,,,,,,,,,,,,,,,,,,,
,60f3103aaa4f64f02e5c5829,001,2022-04-29_03h20.04.353,classification_task,2021.2.3,Win32,74.96251874,60f3103aaa4f64f02e5c5829,626b377229c10585ec392f89,626b3d21f34aef7422496885,,,,,,,,,,,,,,,,,,,,,,,l,1,0.704,"[""0.033"",""0.126"",""0.683"",""0.749""]","[1,1,0,1]",0,24,24,24,1,1,1,,,1,FALSE,,,,,,,,,,,,,,,,,,,,,,,,,,,,,,
,60f3103aaa4f64f02e5c5829,001,2022-04-29_03h20.04.353,classification_task,2021.2.3,Win32,74.96251874,60f3103aaa4f64f02e5c5829,626b377229c10585ec392f89,626b3d21f34aef7422496885,,,,,,,,,,,,,,,,,,,,,,,l,1,1.214,"[""0.077"",""0.537"",""0.443"",""0.823""]","[1,0,1,1]",0,25,25,25,1,1,0,,,1,FALSE,,,,,,,,,,,,,,,,,,,,,,,,,,,,,,
,60f3103aaa4f64f02e5c5829,001,2022-04-29_03h20.04.353,classification_task,2021.2.3,Win32,74.96251874,60f3103aaa4f64f02e5c5829,626b377229c10585ec392f89,626b3d21f34aef7422496885,,,,,,,,,,,,,,,,,,,,,,,l,0,1.326,"[""0.222"",""0.482"",""0.895"",""0.973""]","[0,1,1,1]",0,26,26,26,1,0,0,,,1,FALSE,,,,,,,,,,,,,,,,,,,,,,,,,,,,,,
,60f3103aaa4f64f02e5c5829,001,2022-04-29_03h20.04.353,classification_task,2021.2.3,Win32,74.96251874,60f3103aaa4f64f02e5c5829,626b377229c10585ec392f89,626b3d21f34aef7422496885,,,,,,,,,,,,,,,,,,,,,,,a,0,1.213,"[""0.077"",""0.386"",""0.443"",""0.537""]","[1,1,1,0]",0,27,27,27,1,1,0,,,1,FALSE,,,,,,,,,,,,,,,,,,,,,,,,,,,,,,
,60f3103aaa4f64f02e5c5829,001,2022-04-29_03h20.04.353,classification_task,2021.2.3,Win32,74.96251874,60f3103aaa4f64f02e5c5829,626b377229c10585ec392f89,626b3d21f34aef7422496885,,,,,,,,,,,,,,,,,,,,,,,a,1,0.8,"[""0.272"",""0.482"",""0.895"",""0.538""]","[1,1,1,0]",0,28,28,28,1,0,0,,,1,FALSE,,,,,,,,,,,,,,,,,,,,,,,,,,,,,,
,60f3103aaa4f64f02e5c5829,001,2022-04-29_03h20.04.353,classification_task,2021.2.3,Win32,74.96251874,60f3103aaa4f64f02e5c5829,626b377229c10585ec392f89,626b3d21f34aef7422496885,,,,,,,,,,,,,,,,,,,,,,,l,1,1.44,"[""0.077"",""0.386"",""0.786"",""0.823""]","[1,1,0,1]",0,29,29,29,1,1,0,,,1,FALSE,,,,,,,,,,,,,,,,,,,,,,,,,,,,,,
,60f3103aaa4f64f02e5c5829,001,2022-04-29_03h20.04.353,classification_task,2021.2.3,Win32,74.96251874,60f3103aaa4f64f02e5c5829,626b377229c10585ec392f89,626b3d21f34aef7422496885,,,,,,,,,,,,,,,,,,,,,,,a,0,0.867,"[""0.715"",""0.386"",""0.443"",""0.823""]","[0,1,1,1]",0,30,30,30,1,1,0,,,1,FALSE,,,,,,,,,,,,,,,,,,,,,,,,,,,,,,
,60f3103aaa4f64f02e5c5829,001,2022-04-29_03h20.04.353,classification_task,2021.2.3,Win32,74.96251874,60f3103aaa4f64f02e5c5829,626b377229c10585ec392f89,626b3d21f34aef7422496885,,,,,,,,,,,,,,,,,,,,,,,l,0,1.052,"[""0.182"",""0.346"",""0.643"",""0.221""]","[1,1,1,0]",0,31,31,31,1,0,1,,,1,FALSE,,,,,,,,,,,,,,,,,,,,,,,,,,,,,,
,60f3103aaa4f64f02e5c5829,001,2022-04-29_03h20.04.353,classification_task,2021.2.3,Win32,74.96251874,60f3103aaa4f64f02e5c5829,626b377229c10585ec392f89,626b3d21f34aef7422496885,,,,,,,,,,,,,,,,,,,,,,,l,0,1.357,"[""0.223"",""0.482"",""0.895"",""0.973""]","[0,1,1,1]",0,32,32,32,1,0,0,,,1,FALSE,,,,,,,,,,,,,,,,,,,,,,,,,,,,,,
,60f3103aaa4f64f02e5c5829,001,2022-04-29_03h20.04.353,classification_task,2021.2.3,Win32,74.96251874,60f3103aaa4f64f02e5c5829,626b377229c10585ec392f89,626b3d21f34aef7422496885,,,,,,,,,,,,,,,,,,,,,,,l,1,0.811,"[""0.033"",""0.126"",""0.571"",""0.537""]","[1,1,1,0]",0,33,33,33,1,1,1,,,1,FALSE,,,,,,,,,,,,,,,,,,,,,,,,,,,,,,
,60f3103aaa4f64f02e5c5829,001,2022-04-29_03h20.04.353,classification_task,2021.2.3,Win32,74.96251874,60f3103aaa4f64f02e5c5829,626b377229c10585ec392f89,626b3d21f34aef7422496885,,,,,,,,,,,,,,,,,,,,,,,l,1,0.694,"[""0.033"",""0.126"",""0.538"",""0.749""]","[1,1,0,1]",0,34,34,34,1,1,1,,,1,FALSE,,,,,,,,,,,,,,,,,,,,,,,,,,,,,,
,60f3103aaa4f64f02e5c5829,001,2022-04-29_03h20.04.353,classification_task,2021.2.3,Win32,74.96251874,60f3103aaa4f64f02e5c5829,626b377229c10585ec392f89,626b3d21f34aef7422496885,,,,,,,,,,,,,,,,,,,,,,,a,1,0.461,"[""0.182"",""0.346"",""0.704"",""0.859""]","[1,1,0,1]",0,35,35,35,1,0,1,,,1,FALSE,,,,,,,,,,,,,,,,,,,,,,,,,,,,,,
,60f3103aaa4f64f02e5c5829,001,2022-04-29_03h20.04.353,classification_task,2021.2.3,Win32,74.96251874,60f3103aaa4f64f02e5c5829,626b377229c10585ec392f89,626b3d21f34aef7422496885,,,,,,,,,,,,,,,,,,,,,,,a,1,0.83,"[""0.272"",""0.482"",""0.533"",""0.973""]","[1,1,0,1]",0,36,36,36,1,0,0,,,1,FALSE,,,,,,,,,,,,,,,,,,,,,,,,,,,,,,
,60f3103aaa4f64f02e5c5829,001,2022-04-29_03h20.04.353,classification_task,2021.2.3,Win32,74.96251874,60f3103aaa4f64f02e5c5829,626b377229c10585ec392f89,626b3d21f34aef7422496885,,,,,,,,,,,,,,,,,,,,,,,l,1,0.897,"[""0.077"",""0.386"",""0.715"",""0.823""]","[1,1,0,1]",0,37,37,37,1,1,0,,,1,FALSE,,,,,,,,,,,,,,,,,,,,,,,,,,,,,,
,60f3103aaa4f64f02e5c5829,001,2022-04-29_03h20.04.353,classification_task,2021.2.3,Win32,74.96251874,60f3103aaa4f64f02e5c5829,626b377229c10585ec392f89,626b3d21f34aef7422496885,,,,,,,,,,,,,,,,,,,,,,,l,1,1,"[""0.538"",""0.386"",""0.443"",""0.823""]","[0,1,1,1]",0,38,38,38,1,1,0,,,1,FALSE,,,,,,,,,,,,,,,,,,,,,,,,,,,,,,
,60f3103aaa4f64f02e5c5829,001,2022-04-29_03h20.04.353,classification_task,2021.2.3,Win32,74.96251874,60f3103aaa4f64f02e5c5829,626b377229c10585ec392f89,626b3d21f34aef7422496885,,,,,,,,,,,,,,,,,,,,,,,l,0,1.747,"[""0.683"",""0.346"",""0.643"",""0.859""]","[0,1,1,1]",0,39,39,39,1,0,1,,,1,FALSE,,,,,,,,,,,,,,,,,,,,,,,,,,,,,,
,60f3103aaa4f64f02e5c5829,001,2022-04-29_03h20.04.353,classification_task,2021.2.3,Win32,74.96251874,60f3103aaa4f64f02e5c5829,626b377229c10585ec392f89,626b3d21f34aef7422496885,,,,,,,,,,,,,,,,,,,,,,,l,1,0.735,"[""0.232"",""0.126"",""0.571"",""0.749""]","[0,1,1,1]",0,40,40,40,1,1,1,,,1,FALSE,,,,,,,,,,,,,,,,,,,,,,,,,,,,,,
,60f3103aaa4f64f02e5c5829,001,2022-04-29_03h20.04.353,classification_task,2021.2.3,Win32,74.96251874,60f3103aaa4f64f02e5c5829,626b377229c10585ec392f89,626b3d21f34aef7422496885,,,,,,,,,,,,,,,,,,,,,,,l,0,1.065,"[""0.272"",""0.482"",""0.895"",""0.221""]","[1,1,1,0]",0,41,41,41,1,0,0,,,1,FALSE,,,,,,,,,,,,,,,,,,,,,,,,,,,,,,
,60f3103aaa4f64f02e5c5829,001,2022-04-29_03h20.04.353,classification_task,2021.2.3,Win32,74.96251874,60f3103aaa4f64f02e5c5829,626b377229c10585ec392f89,626b3d21f34aef7422496885,,,,,,,,,,,,,,,,,,,,,,,a,0,0.7,"[""0.077"",""0.533"",""0.443"",""0.823""]","[1,0,1,1]",0,42,42,42,1,1,0,,,1,FALSE,,,,,,,,,,,,,,,,,,,,,,,,,,,,,,
,60f3103aaa4f64f02e5c5829,001,2022-04-29_03h20.04.353,classification_task,2021.2.3,Win32,74.96251874,60f3103aaa4f64f02e5c5829,626b377229c10585ec392f89,626b3d21f34aef7422496885,,,,,,,,,,,,,,,,,,,,,,,a,0,0.888,"[""0.033"",""0.937"",""0.571"",""0.749""]","[1,0,1,1]",0,43,43,43,1,1,1,,,1,FALSE,,,,,,,,,,,,,,,,,,,,,,,,,,,,,,
,60f3103aaa4f64f02e5c5829,001,2022-04-29_03h20.04.353,classification_task,2021.2.3,Win32,74.96251874,60f3103aaa4f64f02e5c5829,626b377229c10585ec392f89,626b3d21f34aef7422496885,,,,,,,,,,,,,,,,,,,,,,,a,1,0.866,"[""0.182"",""0.232"",""0.643"",""0.859""]","[1,0,1,1]",0,44,44,44,1,0,1,,,1,FALSE,,,,,,,,,,,,,,,,,,,,,,,,,,,,,,
,60f3103aaa4f64f02e5c5829,001,2022-04-29_03h20.04.353,classification_task,2021.2.3,Win32,74.96251874,60f3103aaa4f64f02e5c5829,626b377229c10585ec392f89,626b3d21f34aef7422496885,,,,,,,,,,,,,,,,,,,,,,,a,1,0.828,"[""0.182"",""0.346"",""0.643"",""0.711""]","[1,1,1,0]",0,45,45,45,1,0,1,,,1,FALSE,,,,,,,,,,,,,,,,,,,,,,,,,,,,,,
,60f3103aaa4f64f02e5c5829,001,2022-04-29_03h20.04.353,classification_task,2021.2.3,Win32,74.96251874,60f3103aaa4f64f02e5c5829,626b377229c10585ec392f89,626b3d21f34aef7422496885,,,,,,,,,,,,,,,,,,,,,,,a,1,0.84,"[""0.272"",""0.538"",""0.895"",""0.973""]","[1,0,1,1]",0,46,46,46,1,0,0,,,1,FALSE,,,,,,,,,,,,,,,,,,,,,,,,,,,,,,
,60f3103aaa4f64f02e5c5829,001,2022-04-29_03h20.04.353,classification_task,2021.2.3,Win32,74.96251874,60f3103aaa4f64f02e5c5829,626b377229c10585ec392f89,626b3d21f34aef7422496885,,,,,,,,,,,,,,,,,,,,,,,l,1,1.071,"[""0.077"",""0.386"",""0.443"",""0.704""]","[1,1,1,0]",0,47,47,47,1,1,0,,,1,FALSE,,,,,,,,,,,,,,,,,,,,,,,,,,,,,,
,60f3103aaa4f64f02e5c5829,001,2022-04-29_03h20.04.353,classification_task,2021.2.3,Win32,74.96251874,60f3103aaa4f64f02e5c5829,626b377229c10585ec392f89,626b3d21f34aef7422496885,,,,,,,,,,,,,,,,,,,,,,,a,1,1.046,"[""0.272"",""0.934"",""0.895"",""0.973""]","[1,0,1,1]",0,48,48,48,1,0,0,,,1,FALSE,,,,,,,,,,,,,,,,,,,,,,,,,,,,,,
,60f3103aaa4f64f02e5c5829,001,2022-04-29_03h20.04.353,classification_task,2021.2.3,Win32,74.96251874,60f3103aaa4f64f02e5c5829,626b377229c10585ec392f89,626b3d21f34aef7422496885,,,,,,,,,,,,,,,,,,,,,,,l,1,1.216,"[""0.223"",""0.386"",""0.443"",""0.823""]","[0,1,1,1]",0,49,49,49,1,1,0,,,1,FALSE,,,,,,,,,,,,,,,,,,,,,,,,,,,,,,
,60f3103aaa4f64f02e5c5829,001,2022-04-29_03h20.04.353,classification_task,2021.2.3,Win32,74.96251874,60f3103aaa4f64f02e5c5829,626b377229c10585ec392f89,626b3d21f34aef7422496885,,,,,,,,,,,,,,,,,,,,,,,l,0,0.99,"[""0.715"",""0.482"",""0.895"",""0.973""]","[0,1,1,1]",0,50,50,50,1,0,0,,,1,FALSE,,,,,,,,,,,,,,,,,,,,,,,,,,,,,,
,60f3103aaa4f64f02e5c5829,001,2022-04-29_03h20.04.353,classification_task,2021.2.3,Win32,74.96251874,60f3103aaa4f64f02e5c5829,626b377229c10585ec392f89,626b3d21f34aef7422496885,,,,,,,,,,,,,,,,,,,,,,,l,0,1.32,"[""0.182"",""0.537"",""0.643"",""0.859""]","[1,0,1,1]",0,51,51,51,1,0,1,,,1,FALSE,,,,,,,,,,,,,,,,,,,,,,,,,,,,,,
,60f3103aaa4f64f02e5c5829,001,2022-04-29_03h20.04.353,classification_task,2021.2.3,Win32,74.96251874,60f3103aaa4f64f02e5c5829,626b377229c10585ec392f89,626b3d21f34aef7422496885,,,,,,,,,,,,,,,,,,,,,,,l,1,1.082,"[""0.077"",""0.538"",""0.443"",""0.823""]","[1,0,1,1]",0,52,52,52,1,1,0,,,1,FALSE,,,,,,,,,,,,,,,,,,,,,,,,,,,,,,
,60f3103aaa4f64f02e5c5829,001,2022-04-29_03h20.04.353,classification_task,2021.2.3,Win32,74.96251874,60f3103aaa4f64f02e5c5829,626b377229c10585ec392f89,626b3d21f34aef7422496885,,,,,,,,,,,,,,,,,,,,,,,a,0,0.753,"[""0.077"",""0.386"",""0.443"",""0.937""]","[1,1,1,0]",0,53,53,53,1,1,0,,,1,FALSE,,,,,,,,,,,,,,,,,,,,,,,,,,,,,,
,60f3103aaa4f64f02e5c5829,001,2022-04-29_03h20.04.353,classification_task,2021.2.3,Win32,74.96251874,60f3103aaa4f64f02e5c5829,626b377229c10585ec392f89,626b3d21f34aef7422496885,,,,,,,,,,,,,,,,,,,,,,,a,0,0.901,"[""0.033"",""0.126"",""0.571"",""0.537""]","[1,1,1,0]",0,54,54,54,1,1,1,,,1,FALSE,,,,,,,,,,,,,,,,,,,,,,,,,,,,,,
,60f3103aaa4f64f02e5c5829,001,2022-04-29_03h20.04.353,classification_task,2021.2.3,Win32,74.96251874,60f3103aaa4f64f02e5c5829,626b377229c10585ec392f89,626b3d21f34aef7422496885,,,,,,,,,,,,,,,,,,,,,,,a,1,0.956,"[""0.272"",""0.482"",""0.715"",""0.973""]","[1,1,0,1]",0,55,55,55,1,0,0,,,1,FALSE,,,,,,,,,,,,,,,,,,,,,,,,,,,,,,
,60f3103aaa4f64f02e5c5829,001,2022-04-29_03h20.04.353,classification_task,2021.2.3,Win32,74.96251874,60f3103aaa4f64f02e5c5829,626b377229c10585ec392f89,626b3d21f34aef7422496885,,,,,,,,,,,,,,,,,,,,,,,a,0,0.654,"[""0.033"",""0.126"",""0.704"",""0.749""]","[1,1,0,1]",0,56,56,56,1,1,1,,,1,FALSE,,,,,,,,,,,,,,,,,,,,,,,,,,,,,,
,60f3103aaa4f64f02e5c5829,001,2022-04-29_03h20.04.353,classification_task,2021.2.3,Win32,74.96251874,60f3103aaa4f64f02e5c5829,626b377229c10585ec392f89,626b3d21f34aef7422496885,,,,,,,,,,,,,,,,,,,,,,,l,1,0.587,"[""0.033"",""0.537"",""0.571"",""0.749""]","[1,0,1,1]",0,57,57,57,1,1,1,,,1,FALSE,,,,,,,,,,,,,,,,,,,,,,,,,,,,,,
,60f3103aaa4f64f02e5c5829,001,2022-04-29_03h20.04.353,classification_task,2021.2.3,Win32,74.96251874,60f3103aaa4f64f02e5c5829,626b377229c10585ec392f89,626b3d21f34aef7422496885,,,,,,,,,,,,,,,,,,,,,,,l,1,1.117,"[""0.077"",""0.386"",""0.538"",""0.823""]","[1,1,0,1]",0,58,58,58,1,1,0,,,1,FALSE,,,,,,,,,,,,,,,,,,,,,,,,,,,,,,
,60f3103aaa4f64f02e5c5829,001,2022-04-29_03h20.04.353,classification_task,2021.2.3,Win32,74.96251874,60f3103aaa4f64f02e5c5829,626b377229c10585ec392f89,626b3d21f34aef7422496885,,,,,,,,,,,,,,,,,,,,,,,a,1,0.669,"[""0.182"",""0.346"",""0.643"",""0.704""]","[1,1,1,0]",0,59,59,59,1,0,1,,,1,FALSE,,,,,,,,,,,,,,,,,,,,,,,,,,,,,,
,60f3103aaa4f64f02e5c5829,001,2022-04-29_03h20.04.353,classification_task,2021.2.3,Win32,74.96251874,60f3103aaa4f64f02e5c5829,626b377229c10585ec392f89,626b3d21f34aef7422496885,,,,,,,,,,,,,,,,,,,,,,,a,1,0.774,"[""0.937"",""0.346"",""0.643"",""0.859""]","[0,1,1,1]",0,60,60,60,1,0,1,,,1,FALSE,,,,,,,,,,,,,,,,,,,,,,,,,,,,,,
,60f3103aaa4f64f02e5c5829,001,2022-04-29_03h20.04.353,classification_task,2021.2.3,Win32,74.96251874,60f3103aaa4f64f02e5c5829,626b377229c10585ec392f89,626b3d21f34aef7422496885,,,,,,,,,,,,,,,,,,,,,,,l,1,0.526,"[""0.715"",""0.126"",""0.571"",""0.749""]","[0,1,1,1]",0,61,61,61,1,1,1,,,1,FALSE,,,,,,,,,,,,,,,,,,,,,,,,,,,,,,
,60f3103aaa4f64f02e5c5829,001,2022-04-29_03h20.04.353,classification_task,2021.2.3,Win32,74.96251874,60f3103aaa4f64f02e5c5829,626b377229c10585ec392f89,626b3d21f34aef7422496885,,,,,,,,,,,,,,,,,,,,,,,a,1,0.44,"[""0.182"",""0.346"",""0.223"",""0.859""]","[1,1,0,1]",0,62,62,62,1,0,1,,,1,FALSE,,,,,,,,,,,,,,,,,,,,,,,,,,,,,,
,60f3103aaa4f64f02e5c5829,001,2022-04-29_03h20.04.353,classification_task,2021.2.3,Win32,74.96251874,60f3103aaa4f64f02e5c5829,626b377229c10585ec392f89,626b3d21f34aef7422496885,,,,,,,,,,,,,,,,,,,,,,,a,1,0.791,"[""0.272"",""0.482"",""0.895"",""0.934""]","[1,1,1,0]",0,63,63,63,1,0,0,,,1,FALSE,,,,,,,,,,,,,,,,,,,,,,,,,,,,,,
,60f3103aaa4f64f02e5c5829,001,2022-04-29_03h20.04.353,classification_task,2021.2.3,Win32,74.96251874,60f3103aaa4f64f02e5c5829,626b377229c10585ec392f89,626b3d21f34aef7422496885,,,,,,,,,,,,,,,,,,,,,,,,,,,,,,,,,,,,,,,0, ,,0,0.737801293,168.739,0,1,1,1,1,2,2,,,,,,,,,,,,,,,,,
,60f3103aaa4f64f02e5c5829,001,2022-04-29_03h20.04.353,classification_task,2021.2.3,Win32,74.96251874,60f3103aaa4f64f02e5c5829,626b377229c10585ec392f89,626b3d21f34aef7422496885,,,,,,,,,,,,,,,,,,,,,,,,,,,,,,,,,,,,,,,1,  ,,0,3.824221046,177.506,0,1,1,1,1,2,2,,,,,,,,,,,,,,,,,
,60f3103aaa4f64f02e5c5829,001,2022-04-29_03h20.04.353,classification_task,2021.2.3,Win32,74.96251874,60f3103aaa4f64f02e5c5829,626b377229c10585ec392f89,626b3d21f34aef7422496885,,,,,,,,,,,,,,,,,,,,,,,,,,,,,,,,,,,,,,,2,  ,,0,5.440917108,183.183,0,1,1,1,1,2,2,,,,,,,,,,,,,,,,,
,60f3103aaa4f64f02e5c5829,001,2022-04-29_03h20.04.353,classification_task,2021.2.3,Win32,74.96251874,60f3103aaa4f64f02e5c5829,626b377229c10585ec392f89,626b3d21f34aef7422496885,,,,,,,,,,,,,,,,,,,,,,,,,,,,,,,,,,,,,,,,,,,,,0,1,1,1,1,,2,,,,,,,,,,,,,,,,,
,60f3103aaa4f64f02e5c5829,001,2022-04-29_03h20.04.353,classification_task,2021.2.3,Win32,74.96251874,60f3103aaa4f64f02e5c5829,626b377229c10585ec392f89,626b3d21f34aef7422496885,,,,,,,,,,,,,,,,,,,,,space,10.459,a,0,2.274,"[""0.077"",""0.934"",""0.443"",""0.823""]","[1,0,1,1]",0,0,0,0,1,1,0,,,1,FALSE,,,,,,,,,,,,,,,,,,,,,,,,,,,,,,
,60f3103aaa4f64f02e5c5829,001,2022-04-29_03h20.04.353,classification_task,2021.2.3,Win32,74.96251874,60f3103aaa4f64f02e5c5829,626b377229c10585ec392f89,626b3d21f34aef7422496885,,,,,,,,,,,,,,,,,,,,,,,a,1,1.509,"[""0.272"",""0.482"",""0.715"",""0.973""]","[1,1,0,1]",0,1,1,1,1,0,0,,,1,FALSE,,,,,,,,,,,,,,,,,,,,,,,,,,,,,,
,60f3103aaa4f64f02e5c5829,001,2022-04-29_03h20.04.353,classification_task,2021.2.3,Win32,74.96251874,60f3103aaa4f64f02e5c5829,626b377229c10585ec392f89,626b3d21f34aef7422496885,,,,,,,,,,,,,,,,,,,,,,,l,0,0.735,"[""0.182"",""0.346"",""0.643"",""0.715""]","[1,1,1,0]",0,2,2,2,1,0,1,,,1,FALSE,,,,,,,,,,,,,,,,,,,,,,,,,,,,,,
,60f3103aaa4f64f02e5c5829,001,2022-04-29_03h20.04.353,classification_task,2021.2.3,Win32,74.96251874,60f3103aaa4f64f02e5c5829,626b377229c10585ec392f89,626b3d21f34aef7422496885,,,,,,,,,,,,,,,,,,,,,,,l,1,1.382,"[""0.232"",""0.126"",""0.571"",""0.749""]","[0,1,1,1]",0,3,3,3,1,1,1,,,1,FALSE,,,,,,,,,,,,,,,,,,,,,,,,,,,,,,
,60f3103aaa4f64f02e5c5829,001,2022-04-29_03h20.04.353,classification_task,2021.2.3,Win32,74.96251874,60f3103aaa4f64f02e5c5829,626b377229c10585ec392f89,626b3d21f34aef7422496885,,,,,,,,,,,,,,,,,,,,,,,a,1,1.201,"[""0.182"",""0.934"",""0.643"",""0.859""]","[1,0,1,1]",0,4,4,4,1,0,1,,,1,FALSE,,,,,,,,,,,,,,,,,,,,,,,,,,,,,,
,60f3103aaa4f64f02e5c5829,001,2022-04-29_03h20.04.353,classification_task,2021.2.3,Win32,74.96251874,60f3103aaa4f64f02e5c5829,626b377229c10585ec392f89,626b3d21f34aef7422496885,,,,,,,,,,,,,,,,,,,,,,,l,0,1.017,"[""0.272"",""0.221"",""0.895"",""0.973""]","[1,0,1,1]",0,5,5,5,1,0,0,,,1,FALSE,,,,,,,,,,,,,,,,,,,,,,,,,,,,,,
,60f3103aaa4f64f02e5c5829,001,2022-04-29_03h20.04.353,classification_task,2021.2.3,Win32,74.96251874,60f3103aaa4f64f02e5c5829,626b377229c10585ec392f89,626b3d21f34aef7422496885,,,,,,,,,,,,,,,,,,,,,,,l,1,1.401,"[""0.033"",""0.126"",""0.571"",""0.221""]","[1,1,1,0]",0,6,6,6,1,1,1,,,1,FALSE,,,,,,,,,,,,,,,,,,,,,,,,,,,,,,
,60f3103aaa4f64f02e5c5829,001,2022-04-29_03h20.04.353,classification_task,2021.2.3,Win32,74.96251874,60f3103aaa4f64f02e5c5829,626b377229c10585ec392f89,626b3d21f34aef7422496885,,,,,,,,,,,,,,,,,,,,,,,l,1,1.753,"[""0.033"",""0.126"",""0.538"",""0.749""]","[1,1,0,1]",0,7,7,7,1,1,1,,,1,FALSE,,,,,,,,,,,,,,,,,,,,,,,,,,,,,,
,60f3103aaa4f64f02e5c5829,001,2022-04-29_03h20.04.353,classification_task,2021.2.3,Win32,74.96251874,60f3103aaa4f64f02e5c5829,626b377229c10585ec392f89,626b3d21f34aef7422496885,,,,,,,,,,,,,,,,,,,,,,,l,0,1.603,"[""0.533"",""0.346"",""0.643"",""0.859""]","[0,1,1,1]",0,8,8,8,1,0,1,,,1,FALSE,,,,,,,,,,,,,,,,,,,,,,,,,,,,,,
,60f3103aaa4f64f02e5c5829,001,2022-04-29_03h20.04.353,classification_task,2021.2.3,Win32,74.96251874,60f3103aaa4f64f02e5c5829,626b377229c10585ec392f89,626b3d21f34aef7422496885,,,,,,,,,,,,,,,,,,,,,,,l,1,1.721,"[""0.077"",""0.386"",""0.937"",""0.823""]","[1,1,0,1]",0,9,9,9,1,1,0,,,1,FALSE,,,,,,,,,,,,,,,,,,,,,,,,,,,,,,
,60f3103aaa4f64f02e5c5829,001,2022-04-29_03h20.04.353,classification_task,2021.2.3,Win32,74.96251874,60f3103aaa4f64f02e5c5829,626b377229c10585ec392f89,626b3d21f34aef7422496885,,,,,,,,,,,,,,,,,,,,,,,a,1,1.963,"[""0.182"",""0.346"",""0.538"",""0.859""]","[1,1,0,1]",0,10,10,10,1,0,1,,,1,FALSE,,,,,,,,,,,,,,,,,,,,,,,,,,,,,,
,60f3103aaa4f64f02e5c5829,001,2022-04-29_03h20.04.353,classification_task,2021.2.3,Win32,74.96251874,60f3103aaa4f64f02e5c5829,626b377229c10585ec392f89,626b3d21f34aef7422496885,,,,,,,,,,,,,,,,,,,,,,,l,1,2.021,"[""0.033"",""0.221"",""0.571"",""0.749""]","[1,0,1,1]",0,11,11,11,1,1,1,,,1,FALSE,,,,,,,,,,,,,,,,,,,,,,,,,,,,,,
,60f3103aaa4f64f02e5c5829,001,2022-04-29_03h20.04.353,classification_task,2021.2.3,Win32,74.96251874,60f3103aaa4f64f02e5c5829,626b377229c10585ec392f89,626b3d21f34aef7422496885,,,,,,,,,,,,,,,,,,,,,,,a,0,1.067,"[""0.077"",""0.386"",""0.443"",""0.714""]","[1,1,1,0]",0,12,12,12,1,1,0,,,1,FALSE,,,,,,,,,,,,,,,,,,,,,,,,,,,,,,
,60f3103aaa4f64f02e5c5829,001,2022-04-29_03h20.04.353,classification_task,2021.2.3,Win32,74.96251874,60f3103aaa4f64f02e5c5829,626b377229c10585ec392f89,626b3d21f34aef7422496885,,,,,,,,,,,,,,,,,,,,,,,a,1,0.881,"[""0.272"",""0.482"",""0.895"",""0.538""]","[1,1,1,0]",0,13,13,13,1,0,0,,,1,FALSE,,,,,,,,,,,,,,,,,,,,,,,,,,,,,,
,60f3103aaa4f64f02e5c5829,001,2022-04-29_03h20.04.353,classification_task,2021.2.3,Win32,74.96251874,60f3103aaa4f64f02e5c5829,626b377229c10585ec392f89,626b3d21f34aef7422496885,,,,,,,,,,,,,,,,,,,,,,,l,0,0.955,"[""0.714"",""0.482"",""0.895"",""0.973""]","[0,1,1,1]",0,14,14,14,1,0,0,,,1,FALSE,,,,,,,,,,,,,,,,,,,,,,,,,,,,,,
,60f3103aaa4f64f02e5c5829,001,2022-04-29_03h20.04.353,classification_task,2021.2.3,Win32,74.96251874,60f3103aaa4f64f02e5c5829,626b377229c10585ec392f89,626b3d21f34aef7422496885,,,,,,,,,,,,,,,,,,,,,,,l,1,1.337,"[""0.223"",""0.386"",""0.443"",""0.823""]","[0,1,1,1]",0,15,15,15,1,1,0,,,1,FALSE,,,,,,,,,,,,,,,,,,,,,,,,,,,,,,
,60f3103aaa4f64f02e5c5829,001,2022-04-29_03h20.04.353,classification_task,2021.2.3,Win32,74.96251874,60f3103aaa4f64f02e5c5829,626b377229c10585ec392f89,626b3d21f34aef7422496885,,,,,,,,,,,,,,,,,,,,,,,l,1,1.24,"[""0.033"",""0.126"",""0.571"",""0.714""]","[1,1,1,0]",0,16,16,16,1,1,1,,,1,FALSE,,,,,,,,,,,,,,,,,,,,,,,,,,,,,,
,60f3103aaa4f64f02e5c5829,001,2022-04-29_03h20.04.353,classification_task,2021.2.3,Win32,74.96251874,60f3103aaa4f64f02e5c5829,626b377229c10585ec392f89,626b3d21f34aef7422496885,,,,,,,,,,,,,,,,,,,,,,,a,1,0.755,"[""0.272"",""0.482"",""0.895"",""0.538""]","[1,1,1,0]",0,17,17,17,1,0,0,,,1,FALSE,,,,,,,,,,,,,,,,,,,,,,,,,,,,,,
,60f3103aaa4f64f02e5c5829,001,2022-04-29_03h20.04.353,classification_task,2021.2.3,Win32,74.96251874,60f3103aaa4f64f02e5c5829,626b377229c10585ec392f89,626b3d21f34aef7422496885,,,,,,,,,,,,,,,,,,,,,,,l,0,1.145,"[""0.786"",""0.346"",""0.643"",""0.859""]","[0,1,1,1]",0,18,18,18,1,0,1,,,1,FALSE,,,,,,,,,,,,,,,,,,,,,,,,,,,,,,
,60f3103aaa4f64f02e5c5829,001,2022-04-29_03h20.04.353,classification_task,2021.2.3,Win32,74.96251874,60f3103aaa4f64f02e5c5829,626b377229c10585ec392f89,626b3d21f34aef7422496885,,,,,,,,,,,,,,,,,,,,,,,l,0,1.094,"[""0.272"",""0.482"",""0.222"",""0.973""]","[1,1,0,1]",0,19,19,19,1,0,0,,,1,FALSE,,,,,,,,,,,,,,,,,,,,,,,,,,,,,,
,60f3103aaa4f64f02e5c5829,001,2022-04-29_03h20.04.353,classification_task,2021.2.3,Win32,74.96251874,60f3103aaa4f64f02e5c5829,626b377229c10585ec392f89,626b3d21f34aef7422496885,,,,,,,,,,,,,,,,,,,,,,,l,0,0.722,"[""0.272"",""0.232"",""0.895"",""0.973""]","[1,0,1,1]",0,20,20,20,1,0,0,,,1,FALSE,,,,,,,,,,,,,,,,,,,,,,,,,,,,,,
,60f3103aaa4f64f02e5c5829,001,2022-04-29_03h20.04.353,classification_task,2021.2.3,Win32,74.96251874,60f3103aaa4f64f02e5c5829,626b377229c10585ec392f89,626b3d21f34aef7422496885,,,,,,,,,,,,,,,,,,,,,,,a,1,0.839,"[""0.182"",""0.538"",""0.643"",""0.859""]","[1,0,1,1]",0,21,21,21,1,0,1,,,1,FALSE,,,,,,,,,,,,,,,,,,,,,,,,,,,,,,
,60f3103aaa4f64f02e5c5829,001,2022-04-29_03h20.04.353,classification_task,2021.2.3,Win32,74.96251874,60f3103aaa4f64f02e5c5829,626b377229c10585ec392f89,626b3d21f34aef7422496885,,,,,,,,,,,,,,,,,,,,,,,a,1,0.788,"[""0.182"",""0.346"",""0.711"",""0.859""]","[1,1,0,1]",0,22,22,22,1,0,1,,,1,FALSE,,,,,,,,,,,,,,,,,,,,,,,,,,,,,,
,60f3103aaa4f64f02e5c5829,001,2022-04-29_03h20.04.353,classification_task,2021.2.3,Win32,74.96251874,60f3103aaa4f64f02e5c5829,626b377229c10585ec392f89,626b3d21f34aef7422496885,,,,,,,,,,,,,,,,,,,,,,,l,1,1.014,"[""0.077"",""0.386"",""0.714"",""0.823""]","[1,1,0,1]",0,23,23,23,1,1,0,,,1,FALSE,,,,,,,,,,,,,,,,,,,,,,,,,,,,,,
,60f3103aaa4f64f02e5c5829,001,2022-04-29_03h20.04.353,classification_task,2021.2.3,Win32,74.96251874,60f3103aaa4f64f02e5c5829,626b377229c10585ec392f89,626b3d21f34aef7422496885,,,,,,,,,,,,,,,,,,,,,,,l,1,1.085,"[""0.033"",""0.126"",""0.715"",""0.749""]","[1,1,0,1]",0,24,24,24,1,1,1,,,1,FALSE,,,,,,,,,,,,,,,,,,,,,,,,,,,,,,
,60f3103aaa4f64f02e5c5829,001,2022-04-29_03h20.04.353,classification_task,2021.2.3,Win32,74.96251874,60f3103aaa4f64f02e5c5829,626b377229c10585ec392f89,626b3d21f34aef7422496885,,,,,,,,,,,,,,,,,,,,,,,a,0,1.761,"[""0.077"",""0.386"",""0.443"",""0.937""]","[1,1,1,0]",0,25,25,25,1,1,0,,,1,FALSE,,,,,,,,,,,,,,,,,,,,,,,,,,,,,,
,60f3103aaa4f64f02e5c5829,001,2022-04-29_03h20.04.353,classification_task,2021.2.3,Win32,74.96251874,60f3103aaa4f64f02e5c5829,626b377229c10585ec392f89,626b3d21f34aef7422496885,,,,,,,,,,,,,,,,,,,,,,,l,0,0.932,"[""0.232"",""0.482"",""0.895"",""0.973""]","[0,1,1,1]",0,26,26,26,1,0,0,,,1,FALSE,,,,,,,,,,,,,,,,,,,,,,,,,,,,,,
,60f3103aaa4f64f02e5c5829,001,2022-04-29_03h20.04.353,classification_task,2021.2.3,Win32,74.96251874,60f3103aaa4f64f02e5c5829,626b377229c10585ec392f89,626b3d21f34aef7422496885,,,,,,,,,,,,,,,,,,,,,,,l,1,1.281,"[""0.232"",""0.126"",""0.571"",""0.749""]","[0,1,1,1]",0,27,27,27,1,1,1,,,1,FALSE,,,,,,,,,,,,,,,,,,,,,,,,,,,,,,
,60f3103aaa4f64f02e5c5829,001,2022-04-29_03h20.04.353,classification_task,2021.2.3,Win32,74.96251874,60f3103aaa4f64f02e5c5829,626b377229c10585ec392f89,626b3d21f34aef7422496885,,,,,,,,,,,,,,,,,,,,,,,l,1,0.973,"[""0.033"",""0.232"",""0.571"",""0.749""]","[1,0,1,1]",0,28,28,28,1,1,1,,,1,FALSE,,,,,,,,,,,,,,,,,,,,,,,,,,,,,,
,60f3103aaa4f64f02e5c5829,001,2022-04-29_03h20.04.353,classification_task,2021.2.3,Win32,74.96251874,60f3103aaa4f64f02e5c5829,626b377229c10585ec392f89,626b3d21f34aef7422496885,,,,,,,,,,,,,,,,,,,,,,,a,1,0.762,"[""0.182"",""0.346"",""0.643"",""0.711""]","[1,1,1,0]",0,29,29,29,1,0,1,,,1,FALSE,,,,,,,,,,,,,,,,,,,,,,,,,,,,,,
,60f3103aaa4f64f02e5c5829,001,2022-04-29_03h20.04.353,classification_task,2021.2.3,Win32,74.96251874,60f3103aaa4f64f02e5c5829,626b377229c10585ec392f89,626b3d21f34aef7422496885,,,,,,,,,,,,,,,,,,,,,,,l,1,0.752,"[""0.704"",""0.386"",""0.443"",""0.823""]","[0,1,1,1]",0,30,30,30,1,1,0,,,1,FALSE,,,,,,,,,,,,,,,,,,,,,,,,,,,,,,
,60f3103aaa4f64f02e5c5829,001,2022-04-29_03h20.04.353,classification_task,2021.2.3,Win32,74.96251874,60f3103aaa4f64f02e5c5829,626b377229c10585ec392f89,626b3d21f34aef7422496885,,,,,,,,,,,,,,,,,,,,,,,l,1,1.233,"[""0.077"",""0.683"",""0.443"",""0.823""]","[1,0,1,1]",0,31,31,31,1,1,0,,,1,FALSE,,,,,,,,,,,,,,,,,,,,,,,,,,,,,,
,60f3103aaa4f64f02e5c5829,001,2022-04-29_03h20.04.353,classification_task,2021.2.3,Win32,74.96251874,60f3103aaa4f64f02e5c5829,626b377229c10585ec392f89,626b3d21f34aef7422496885,,,,,,,,,,,,,,,,,,,,,,,l,1,0.881,"[""0.033"",""0.126"",""0.571"",""0.221""]","[1,1,1,0]",0,32,32,32,1,1,1,,,1,FALSE,,,,,,,,,,,,,,,,,,,,,,,,,,,,,,
,60f3103aaa4f64f02e5c5829,001,2022-04-29_03h20.04.353,classification_task,2021.2.3,Win32,74.96251874,60f3103aaa4f64f02e5c5829,626b377229c10585ec392f89,626b3d21f34aef7422496885,,,,,,,,,,,,,,,,,,,,,,,l,0,0.873,"[""0.272"",""0.232"",""0.895"",""0.973""]","[1,0,1,1]",0,33,33,33,1,0,0,,,1,FALSE,,,,,,,,,,,,,,,,,,,,,,,,,,,,,,
,60f3103aaa4f64f02e5c5829,001,2022-04-29_03h20.04.353,classification_task,2021.2.3,Win32,74.96251874,60f3103aaa4f64f02e5c5829,626b377229c10585ec392f89,626b3d21f34aef7422496885,,,,,,,,,,,,,,,,,,,,,,,a,0,0.75,"[""0.933"",""0.386"",""0.443"",""0.823""]","[0,1,1,1]",0,34,34,34,1,1,0,,,1,FALSE,,,,,,,,,,,,,,,,,,,,,,,,,,,,,,
,60f3103aaa4f64f02e5c5829,001,2022-04-29_03h20.04.353,classification_task,2021.2.3,Win32,74.96251874,60f3103aaa4f64f02e5c5829,626b377229c10585ec392f89,626b3d21f34aef7422496885,,,,,,,,,,,,,,,,,,,,,,,l,1,0.813,"[""0.033"",""0.221"",""0.571"",""0.749""]","[1,0,1,1]",0,35,35,35,1,1,1,,,1,FALSE,,,,,,,,,,,,,,,,,,,,,,,,,,,,,,
,60f3103aaa4f64f02e5c5829,001,2022-04-29_03h20.04.353,classification_task,2021.2.3,Win32,74.96251874,60f3103aaa4f64f02e5c5829,626b377229c10585ec392f89,626b3d21f34aef7422496885,,,,,,,,,,,,,,,,,,,,,,,a,1,0.707,"[""0.937"",""0.482"",""0.895"",""0.973""]","[0,1,1,1]",0,36,36,36,1,0,0,,,1,FALSE,,,,,,,,,,,,,,,,,,,,,,,,,,,,,,
,60f3103aaa4f64f02e5c5829,001,2022-04-29_03h20.04.353,classification_task,2021.2.3,Win32,74.96251874,60f3103aaa4f64f02e5c5829,626b377229c10585ec392f89,626b3d21f34aef7422496885,,,,,,,,,,,,,,,,,,,,,,,l,1,0.814,"[""0.704"",""0.126"",""0.571"",""0.749""]","[0,1,1,1]",0,37,37,37,1,1,1,,,1,FALSE,,,,,,,,,,,,,,,,,,,,,,,,,,,,,,
,60f3103aaa4f64f02e5c5829,001,2022-04-29_03h20.04.353,classification_task,2021.2.3,Win32,74.96251874,60f3103aaa4f64f02e5c5829,626b377229c10585ec392f89,626b3d21f34aef7422496885,,,,,,,,,,,,,,,,,,,,,,,a,0,0.935,"[""0.077"",""0.386"",""0.443"",""0.714""]","[1,1,1,0]",0,38,38,38,1,1,0,,,1,FALSE,,,,,,,,,,,,,,,,,,,,,,,,,,,,,,
,60f3103aaa4f64f02e5c5829,001,2022-04-29_03h20.04.353,classification_task,2021.2.3,Win32,74.96251874,60f3103aaa4f64f02e5c5829,626b377229c10585ec392f89,626b3d21f34aef7422496885,,,,,,,,,,,,,,,,,,,,,,,a,0,0.821,"[""0.077"",""0.386"",""0.683"",""0.823""]","[1,1,0,1]",0,39,39,39,1,1,0,,,1,FALSE,,,,,,,,,,,,,,,,,,,,,,,,,,,,,,
,60f3103aaa4f64f02e5c5829,001,2022-04-29_03h20.04.353,classification_task,2021.2.3,Win32,74.96251874,60f3103aaa4f64f02e5c5829,626b377229c10585ec392f89,626b3d21f34aef7422496885,,,,,,,,,,,,,,,,,,,,,,,a,1,1.058,"[""0.272"",""0.482"",""0.895"",""0.704""]","[1,1,1,0]",0,40,40,40,1,0,0,,,1,FALSE,,,,,,,,,,,,,,,,,,,,,,,,,,,,,,
,60f3103aaa4f64f02e5c5829,001,2022-04-29_03h20.04.353,classification_task,2021.2.3,Win32,74.96251874,60f3103aaa4f64f02e5c5829,626b377229c10585ec392f89,626b3d21f34aef7422496885,,,,,,,,,,,,,,,,,,,,,,,a,0,0.815,"[""0.077"",""0.937"",""0.443"",""0.823""]","[1,0,1,1]",0,41,41,41,1,1,0,,,1,FALSE,,,,,,,,,,,,,,,,,,,,,,,,,,,,,,
,60f3103aaa4f64f02e5c5829,001,2022-04-29_03h20.04.353,classification_task,2021.2.3,Win32,74.96251874,60f3103aaa4f64f02e5c5829,626b377229c10585ec392f89,626b3d21f34aef7422496885,,,,,,,,,,,,,,,,,,,,,,,a,1,0.815,"[""0.272"",""0.482"",""0.538"",""0.973""]","[1,1,0,1]",0,42,42,42,1,0,0,,,1,FALSE,,,,,,,,,,,,,,,,,,,,,,,,,,,,,,
,60f3103aaa4f64f02e5c5829,001,2022-04-29_03h20.04.353,classification_task,2021.2.3,Win32,74.96251874,60f3103aaa4f64f02e5c5829,626b377229c10585ec392f89,626b3d21f34aef7422496885,,,,,,,,,,,,,,,,,,,,,,,a,1,0.521,"[""0.182"",""0.704"",""0.643"",""0.859""]","[1,0,1,1]",0,43,43,43,1,0,1,,,1,FALSE,,,,,,,,,,,,,,,,,,,,,,,,,,,,,,
,60f3103aaa4f64f02e5c5829,001,2022-04-29_03h20.04.353,classification_task,2021.2.3,Win32,74.96251874,60f3103aaa4f64f02e5c5829,626b377229c10585ec392f89,626b3d21f34aef7422496885,,,,,,,,,,,,,,,,,,,,,,,a,1,0.774,"[""0.182"",""0.346"",""0.786"",""0.859""]","[1,1,0,1]",0,44,44,44,1,0,1,,,1,FALSE,,,,,,,,,,,,,,,,,,,,,,,,,,,,,,
,60f3103aaa4f64f02e5c5829,001,2022-04-29_03h20.04.353,classification_task,2021.2.3,Win32,74.96251874,60f3103aaa4f64f02e5c5829,626b377229c10585ec392f89,626b3d21f34aef7422496885,,,,,,,,,,,,,,,,,,,,,,,a,1,0.854,"[""0.182"",""0.346"",""0.643"",""0.683""]","[1,1,1,0]",0,45,45,45,1,0,1,,,1,FALSE,,,,,,,,,,,,,,,,,,,,,,,,,,,,,,
,60f3103aaa4f64f02e5c5829,001,2022-04-29_03h20.04.353,classification_task,2021.2.3,Win32,74.96251874,60f3103aaa4f64f02e5c5829,626b377229c10585ec392f89,626b3d21f34aef7422496885,,,,,,,,,,,,,,,,,,,,,,,l,1,0.723,"[""0.033"",""0.126"",""0.934"",""0.749""]","[1,1,0,1]",0,46,46,46,1,1,1,,,1,FALSE,,,,,,,,,,,,,,,,,,,,,,,,,,,,,,
,60f3103aaa4f64f02e5c5829,001,2022-04-29_03h20.04.353,classification_task,2021.2.3,Win32,74.96251874,60f3103aaa4f64f02e5c5829,626b377229c10585ec392f89,626b3d21f34aef7422496885,,,,,,,,,,,,,,,,,,,,,,,l,0,1.046,"[""0.786"",""0.346"",""0.643"",""0.859""]","[0,1,1,1]",0,47,47,47,1,0,1,,,1,FALSE,,,,,,,,,,,,,,,,,,,,,,,,,,,,,,
,60f3103aaa4f64f02e5c5829,001,2022-04-29_03h20.04.353,classification_task,2021.2.3,Win32,74.96251874,60f3103aaa4f64f02e5c5829,626b377229c10585ec392f89,626b3d21f34aef7422496885,,,,,,,,,,,,,,,,,,,,,,,l,0,1.43,"[""0.272"",""0.937"",""0.895"",""0.973""]","[1,0,1,1]",0,48,48,48,1,0,0,,,1,FALSE,,,,,,,,,,,,,,,,,,,,,,,,,,,,,,
,60f3103aaa4f64f02e5c5829,001,2022-04-29_03h20.04.353,classification_task,2021.2.3,Win32,74.96251874,60f3103aaa4f64f02e5c5829,626b377229c10585ec392f89,626b3d21f34aef7422496885,,,,,,,,,,,,,,,,,,,,,,,l,1,1.828,"[""0.232"",""0.126"",""0.571"",""0.749""]","[0,1,1,1]",0,49,49,49,1,1,1,,,1,FALSE,,,,,,,,,,,,,,,,,,,,,,,,,,,,,,
,60f3103aaa4f64f02e5c5829,001,2022-04-29_03h20.04.353,classification_task,2021.2.3,Win32,74.96251874,60f3103aaa4f64f02e5c5829,626b377229c10585ec392f89,626b3d21f34aef7422496885,,,,,,,,,,,,,,,,,,,,,,,a,1,1.181,"[""0.182"",""0.346"",""0.643"",""0.537""]","[1,1,1,0]",0,50,50,50,1,0,1,,,1,FALSE,,,,,,,,,,,,,,,,,,,,,,,,,,,,,,
,60f3103aaa4f64f02e5c5829,001,2022-04-29_03h20.04.353,classification_task,2021.2.3,Win32,74.96251874,60f3103aaa4f64f02e5c5829,626b377229c10585ec392f89,626b3d21f34aef7422496885,,,,,,,,,,,,,,,,,,,,,,,l,1,0.928,"[""0.077"",""0.386"",""0.786"",""0.823""]","[1,1,0,1]",0,51,51,51,1,1,0,,,1,FALSE,,,,,,,,,,,,,,,,,,,,,,,,,,,,,,
,60f3103aaa4f64f02e5c5829,001,2022-04-29_03h20.04.353,classification_task,2021.2.3,Win32,74.96251874,60f3103aaa4f64f02e5c5829,626b377229c10585ec392f89,626b3d21f34aef7422496885,,,,,,,,,,,,,,,,,,,,,,,l,1,0.946,"[""0.033"",""0.715"",""0.571"",""0.749""]","[1,0,1,1]",0,52,52,52,1,1,1,,,1,FALSE,,,,,,,,,,,,,,,,,,,,,,,,,,,,,,
,60f3103aaa4f64f02e5c5829,001,2022-04-29_03h20.04.353,classification_task,2021.2.3,Win32,74.96251874,60f3103aaa4f64f02e5c5829,626b377229c10585ec392f89,626b3d21f34aef7422496885,,,,,,,,,,,,,,,,,,,,,,,l,0,1.121,"[""0.222"",""0.346"",""0.643"",""0.859""]","[0,1,1,1]",0,53,53,53,1,0,1,,,1,FALSE,,,,,,,,,,,,,,,,,,,,,,,,,,,,,,
,60f3103aaa4f64f02e5c5829,001,2022-04-29_03h20.04.353,classification_task,2021.2.3,Win32,74.96251874,60f3103aaa4f64f02e5c5829,626b377229c10585ec392f89,626b3d21f34aef7422496885,,,,,,,,,,,,,,,,,,,,,,,a,0,0.977,"[""0.077"",""0.386"",""0.443"",""0.934""]","[1,1,1,0]",0,54,54,54,1,1,0,,,1,FALSE,,,,,,,,,,,,,,,,,,,,,,,,,,,,,,
,60f3103aaa4f64f02e5c5829,001,2022-04-29_03h20.04.353,classification_task,2021.2.3,Win32,74.96251874,60f3103aaa4f64f02e5c5829,626b377229c10585ec392f89,626b3d21f34aef7422496885,,,,,,,,,,,,,,,,,,,,,,,l,0,1.082,"[""0.714"",""0.482"",""0.895"",""0.973""]","[0,1,1,1]",0,55,55,55,1,0,0,,,1,FALSE,,,,,,,,,,,,,,,,,,,,,,,,,,,,,,
,60f3103aaa4f64f02e5c5829,001,2022-04-29_03h20.04.353,classification_task,2021.2.3,Win32,74.96251874,60f3103aaa4f64f02e5c5829,626b377229c10585ec392f89,626b3d21f34aef7422496885,,,,,,,,,,,,,,,,,,,,,,,a,0,0.787,"[""0.533"",""0.386"",""0.443"",""0.823""]","[0,1,1,1]",0,56,56,56,1,1,0,,,1,FALSE,,,,,,,,,,,,,,,,,,,,,,,,,,,,,,
,60f3103aaa4f64f02e5c5829,001,2022-04-29_03h20.04.353,classification_task,2021.2.3,Win32,74.96251874,60f3103aaa4f64f02e5c5829,626b377229c10585ec392f89,626b3d21f34aef7422496885,,,,,,,,,,,,,,,,,,,,,,,l,1,0.96,"[""0.033"",""0.126"",""0.571"",""0.786""]","[1,1,1,0]",0,57,57,57,1,1,1,,,1,FALSE,,,,,,,,,,,,,,,,,,,,,,,,,,,,,,
,60f3103aaa4f64f02e5c5829,001,2022-04-29_03h20.04.353,classification_task,2021.2.3,Win32,74.96251874,60f3103aaa4f64f02e5c5829,626b377229c10585ec392f89,626b3d21f34aef7422496885,,,,,,,,,,,,,,,,,,,,,,,a,1,0.977,"[""0.182"",""0.533"",""0.643"",""0.859""]","[1,0,1,1]",0,58,58,58,1,0,1,,,1,FALSE,,,,,,,,,,,,,,,,,,,,,,,,,,,,,,
,60f3103aaa4f64f02e5c5829,001,2022-04-29_03h20.04.353,classification_task,2021.2.3,Win32,74.96251874,60f3103aaa4f64f02e5c5829,626b377229c10585ec392f89,626b3d21f34aef7422496885,,,,,,,,,,,,,,,,,,,,,,,a,1,0.841,"[""0.272"",""0.482"",""0.895"",""0.934""]","[1,1,1,0]",0,59,59,59,1,0,0,,,1,FALSE,,,,,,,,,,,,,,,,,,,,,,,,,,,,,,
,60f3103aaa4f64f02e5c5829,001,2022-04-29_03h20.04.353,classification_task,2021.2.3,Win32,74.96251874,60f3103aaa4f64f02e5c5829,626b377229c10585ec392f89,626b3d21f34aef7422496885,,,,,,,,,,,,,,,,,,,,,,,l,1,0.831,"[""0.077"",""0.715"",""0.443"",""0.823""]","[1,0,1,1]",0,60,60,60,1,1,0,,,1,FALSE,,,,,,,,,,,,,,,,,,,,,,,,,,,,,,
,60f3103aaa4f64f02e5c5829,001,2022-04-29_03h20.04.353,classification_task,2021.2.3,Win32,74.96251874,60f3103aaa4f64f02e5c5829,626b377229c10585ec392f89,626b3d21f34aef7422496885,,,,,,,,,,,,,,,,,,,,,,,a,1,0.71,"[""0.182"",""0.346"",""0.937"",""0.859""]","[1,1,0,1]",0,61,61,61,1,0,1,,,1,FALSE,,,,,,,,,,,,,,,,,,,,,,,,,,,,,,
,60f3103aaa4f64f02e5c5829,001,2022-04-29_03h20.04.353,classification_task,2021.2.3,Win32,74.96251874,60f3103aaa4f64f02e5c5829,626b377229c10585ec392f89,626b3d21f34aef7422496885,,,,,,,,,,,,,,,,,,,,,,,l,1,0.847,"[""0.033"",""0.126"",""0.937"",""0.749""]","[1,1,0,1]",0,62,62,62,1,1,1,,,1,FALSE,,,,,,,,,,,,,,,,,,,,,,,,,,,,,,
,60f3103aaa4f64f02e5c5829,001,2022-04-29_03h20.04.353,classification_task,2021.2.3,Win32,74.96251874,60f3103aaa4f64f02e5c5829,626b377229c10585ec392f89,626b3d21f34aef7422496885,,,,,,,,,,,,,,,,,,,,,,,a,1,0.747,"[""0.272"",""0.482"",""0.538"",""0.973""]","[1,1,0,1]",0,63,63,63,1,0,0,,,1,FALSE,,,,,,,,,,,,,,,,,,,,,,,,,,,,,,
,60f3103aaa4f64f02e5c5829,001,2022-04-29_03h20.04.353,classification_task,2021.2.3,Win32,74.96251874,60f3103aaa4f64f02e5c5829,626b377229c10585ec392f89,626b3d21f34aef7422496885,,,,,,,,,,,,,,,,,,,,,,,,,,,,,,,,,,,,,,,0, ,,0,0.002939447,152.485,0,2,2,2,1,2,3,,,,,,,,,,,,,,,,,
,60f3103aaa4f64f02e5c5829,001,2022-04-29_03h20.04.353,classification_task,2021.2.3,Win32,74.96251874,60f3103aaa4f64f02e5c5829,626b377229c10585ec392f89,626b3d21f34aef7422496885,,,,,,,,,,,,,,,,,,,,,,,,,,,,,,,,,,,,,,,1,  ,,0,0.345874976,156.576,0,2,2,2,1,2,3,,,,,,,,,,,,,,,,,
,60f3103aaa4f64f02e5c5829,001,2022-04-29_03h20.04.353,classification_task,2021.2.3,Win32,74.96251874,60f3103aaa4f64f02e5c5829,626b377229c10585ec392f89,626b3d21f34aef7422496885,,,,,,,,,,,,,,,,,,,,,,,,,,,,,,,,,,,,,,,2,  ,,0,0.566333529,157.895,0,2,2,2,1,2,3,,,,,,,,,,,,,,,,,
,60f3103aaa4f64f02e5c5829,001,2022-04-29_03h20.04.353,classification_task,2021.2.3,Win32,74.96251874,60f3103aaa4f64f02e5c5829,626b377229c10585ec392f89,626b3d21f34aef7422496885,,,,,,,,,,,,,,,,,,,,,,,,,,,,,,,,,,,,,,,,,,,,,0,2,2,2,1,,3,,,,,,,,,,,,,,,,,
,60f3103aaa4f64f02e5c5829,001,2022-04-29_03h20.04.353,classification_task,2021.2.3,Win32,74.96251874,60f3103aaa4f64f02e5c5829,626b377229c10585ec392f89,626b3d21f34aef7422496885,,,,,,,,,,,,,,,,,,,,,,,,,,,,,,,,,,,,,,,,,,,,,,,,,,,,,I believe the aid is a competent performer,,0.7,0,5,989.607,0,0,0,0,1,0,,,,
,60f3103aaa4f64f02e5c5829,001,2022-04-29_03h20.04.353,classification_task,2021.2.3,Win32,74.96251874,60f3103aaa4f64f02e5c5829,626b377229c10585ec392f89,626b3d21f34aef7422496885,,,,,,,,,,,,,,,,,,,,,,,,,,,,,,,,,,,,,,,,,,,,,,,,,,,,,I trust the aid,,0.7,0,4,991.442,0,0,0,0,1,0,,,,
,60f3103aaa4f64f02e5c5829,001,2022-04-29_03h20.04.353,classification_task,2021.2.3,Win32,74.96251874,60f3103aaa4f64f02e5c5829,626b377229c10585ec392f89,626b3d21f34aef7422496885,,,,,,,,,,,,,,,,,,,,,,,,,,,,,,,,,,,,,,,,,,,,,,,,,,,,,I have confidence in the advice given by the aid,,0.7,0,4,995.615,0,0,0,0,1,0,,,,
,60f3103aaa4f64f02e5c5829,001,2022-04-29_03h20.04.353,classification_task,2021.2.3,Win32,74.96251874,60f3103aaa4f64f02e5c5829,626b377229c10585ec392f89,626b3d21f34aef7422496885,,,,,,,,,,,,,,,,,,,,,,,,,,,,,,,,,,,,,,,,,,,,,,,,,,,,,I can depend on the aid,,0.7,0,4,999.153,0,0,0,0,1,0,,,,
,60f3103aaa4f64f02e5c5829,001,2022-04-29_03h20.04.353,classification_task,2021.2.3,Win32,74.96251874,60f3103aaa4f64f02e5c5829,626b377229c10585ec392f89,626b3d21f34aef7422496885,,,,,,,,,,,,,,,,,,,,,,,,,,,,,,,,,,,,,,,,,,,,,,,,,,,,,I can rely on the aid to behave in consistent ways,,0.7,0,4,1002.067,0,0,0,0,1,0,,,,
,60f3103aaa4f64f02e5c5829,001,2022-04-29_03h20.04.353,classification_task,2021.2.3,Win32,74.96251874,60f3103aaa4f64f02e5c5829,626b377229c10585ec392f89,626b3d21f34aef7422496885,,,,,,,,,,,,,,,,,,,,,,,,,,,,,,,,,,,,,,,,,,,,,,,,,,,,,I can rely on the aid to do its best every time I take its advice,,0.7,0,4,1006.375,0,0,0,0,1,0,,,,
,60f3103aaa4f64f02e5c5829,001,2022-04-29_03h20.04.353,classification_task,2021.2.3,Win32,74.96251874,60f3103aaa4f64f02e5c5829,626b377229c10585ec392f89,626b3d21f34aef7422496885,,,,,,,,,,,,,,,,,,,,,,,,,,,,,,,,,,,,,,,,,,,,,,,,,,,,,"On trials you completed with assistance from the aid, how frequently did you think the aid was correct?",,0.7,0,60%,,0,0,0,0,1,0,,,,
,60f3103aaa4f64f02e5c5829,001,2022-04-29_03h20.04.353,classification_task,2021.2.3,Win32,74.96251874,60f3103aaa4f64f02e5c5829,626b377229c10585ec392f89,626b3d21f34aef7422496885,,,,,,,,,,,,,,,,,,,,,,,,,,,,,,,,,,,,,,,,,,,,,,,,,,,,,"On trials you completed without the aid, how frequently did you think you were correct?",,0.7,0,60%,,0,0,0,0,1,0,,,,
,60f3103aaa4f64f02e5c5829,001,2022-04-29_03h20.04.353,classification_task,2021.2.3,Win32,74.96251874,60f3103aaa4f64f02e5c5829,626b377229c10585ec392f89,626b3d21f34aef7422496885,,,,,,,,,,,,,,,,,,,,,,,,,,,,,,,,,,,,,,,,,,,,,,,,,,,,,,,,,,,0,0,0,0,1,,,,,
,60f3103aaa4f64f02e5c5829,001,2022-04-29_03h20.04.353,classification_task,2021.2.3,Win32,74.96251874,60f3103aaa4f64f02e5c5829,626b377229c10585ec392f89,626b3d21f34aef7422496885,,,,,,,,,,,,,,,,,,,,,,,,,,,,,,,,,,,,,,,,,,,,,,,,,,,,,,,,,,,,,,,,,space,12.7,1048.169,
,60f3103aaa4f64f02e5c5829,001,2022-04-29_03h20.04.353,classification_task,2021.2.3,Win32,74.96251874,60f3103aaa4f64f02e5c5829,626b377229c10585ec392f89,626b3d21f34aef7422496885,,,,,,,,,,,,,,,,,,,,,,,,,,,,,,,,,,,,,,,,,,,,,,,,,,,,,,,,,,,,,,,,,,,,Mozilla/5.0 (Windows NT 10.0; Win64; x64; rv:99.0) Gecko/20100101 Firefox/99.0
