usingWebGL,participant,session,date,expName,psychopyVersion,OS,frameRate,study_id,signatures_friend,signatures_foe,band_ranges_top,band_ranges_bottom,formitemText,formtype,formundefined,formitemWidth,formindex,formresponse,formrt,key_resp_2.keys,key_resp_2.rt,tute_resp.keys,tute_resp.rt,tutorial.thisRepN,tutorial.thisTrialN,tutorial.thisN,tutorial.thisIndex,tutorial.ran,key_resp_4.keys,key_resp_4.rt,key_resp.keys,key_resp.corr,key_resp.rt,lines_presented,is_signal_presented,trials.thisRepN,trials.thisTrialN,trials.thisN,trials.thisIndex,trials.ran,vessel,active_band,lines,is_signal,supported_pos,catch_trial,debrief_formindex,debrief_formitemText,debrief_formtype,debrief_formitemWidth,debrief_formresponse,debrief_formrt,phases.thisRepN,phases.thisTrialN,phases.thisN,phases.thisIndex,phases.ran,phases.order,phase,key_resp_3.keys,trustitemText,trusttype,trustitemWidth,trustindex,trustresponse,trustrt,support_status.thisRepN,support_status.thisTrialN,support_status.thisN,support_status.thisIndex,support_status.ran,support_status.order,key_resp_5.keys,key_resp_5.rt,globalClockTime,userAgent,manualCondition
TRUE,60f42a8f3227170449843be7,627c705547edda09226114b5,2022-05-12_04h22.27.195,classification_task,2021.2.3,Win32,59.91970759,627c6715c52fd12f31907bd0,,,,,,,,,,,,,,,,,,,,,,,,,,,,,,,,,,,,,,,,,,,,,,,,,,,,,,,,,,,,,,,,,,,,,
,60f42a8f3227170449843be7,627c705547edda09226114b5,2022-05-12_04h22.27.195,classification_task,2021.2.3,Win32,59.91970759,627c6715c52fd12f31907bd0,"[[""0.170"",""0.415"",""0.636"",""0.908""],[""0.221"",""0.360"",""0.849"",""0.945""]]","[[""0.079"",""0.282"",""0.582"",""0.735""],[""0.028"",""0.123"",""0.502"",""0.788""]]","[1,10]","[100,1000]",Video game experience,,,0.7,0,,,,,,,,,,,,,,,,,,,,,,,,,,,,,,,,,,,,,,,,,,,,,,,,,,,,,,,,,,,,
,60f42a8f3227170449843be7,627c705547edda09226114b5,2022-05-12_04h22.27.195,classification_task,2021.2.3,Win32,59.91970759,627c6715c52fd12f31907bd0,,,,,Approximately how many hours did you spend playing video games in the last week?,,,0.7,0,3,,,,,,,,,,,,,,,,,,,,,,,,,,,,,,,,,,,,,,,,,,,,,,,,,,,,,,,,,,,
,60f42a8f3227170449843be7,627c705547edda09226114b5,2022-05-12_04h22.27.195,classification_task,2021.2.3,Win32,59.91970759,627c6715c52fd12f31907bd0,,,,,"Which game did you play the most this year? (Enter ""None"" if you didn't play any)",,,0.7,0,Fifa ,,,,,,,,,,,,,,,,,,,,,,,,,,,,,,,,,,,,,,,,,,,,,,,,,,,,,,,,,,,
,60f42a8f3227170449843be7,627c705547edda09226114b5,2022-05-12_04h22.27.195,classification_task,2021.2.3,Win32,59.91970759,627c6715c52fd12f31907bd0,,,,,Visual perception,,,0.7,0,,,,,,,,,,,,,,,,,,,,,,,,,,,,,,,,,,,,,,,,,,,,,,,,,,,,,,,,,,,,
,60f42a8f3227170449843be7,627c705547edda09226114b5,2022-05-12_04h22.27.195,classification_task,2021.2.3,Win32,59.91970759,627c6715c52fd12f31907bd0,,,,,Do you have any form of color blindness?,,,0.7,0,No,29.9491,,,,,,,,,,,,,,,,,,,,,,,,,,,,,,,,,,,,,,,,,,,,,,,,,,,,,,,,,,
,60f42a8f3227170449843be7,627c705547edda09226114b5,2022-05-12_04h22.27.195,classification_task,2021.2.3,Win32,59.91970759,627c6715c52fd12f31907bd0,,,,,Do you use software to change the colour temperature of your screen (e.g. f.lux)?,,,0.7,0,No,34.0982,,,,,,,,,,,,,,,,,,,,,,,,,,,,,,,,,,,,,,,,,,,,,,,,,,,,,,,,,,
,60f42a8f3227170449843be7,627c705547edda09226114b5,2022-05-12_04h22.27.195,classification_task,2021.2.3,Win32,59.91970759,627c6715c52fd12f31907bd0,,,,,,,,,,,,space,48.2973,space,9.5646,0,0,0,0,1,,,,,,,,,,,,,,,,,,,,,,,,,,,,,,,,,,,,,,,,,,,,,,,,,
,60f42a8f3227170449843be7,627c705547edda09226114b5,2022-05-12_04h22.27.195,classification_task,2021.2.3,Win32,59.91970759,627c6715c52fd12f31907bd0,,,,,,,,,,,,,,space,10.4717,1,0,1,0,1,,,,,,,,,,,,,,,,,,,,,,,,,,,,,,,,,,,,,,,,,,,,,,,,,
,60f42a8f3227170449843be7,627c705547edda09226114b5,2022-05-12_04h22.27.195,classification_task,2021.2.3,Win32,59.91970759,627c6715c52fd12f31907bd0,,,,,,,,,,,,,,space,16.03,2,0,2,0,1,,,,,,,,,,,,,,,,,,,,,,,,,,,,,,,,,,,,,,,,,,,,,,,,,
,60f42a8f3227170449843be7,627c705547edda09226114b5,2022-05-12_04h22.27.195,classification_task,2021.2.3,Win32,59.91970759,627c6715c52fd12f31907bd0,,,,,,,,,,,,,,space,20.8112,3,0,3,0,1,,,,,,,,,,,,,,,,,,,,,,,,,,,,,,,,,,,,,,,,,,,,,,,,,
,60f42a8f3227170449843be7,627c705547edda09226114b5,2022-05-12_04h22.27.195,classification_task,2021.2.3,Win32,59.91970759,627c6715c52fd12f31907bd0,,,,,,,,,,,,,,space,18.112,4,0,4,0,1,,,,,,,,,,,,,,,,,,,,,,,,,,,,,,,,,,,,,,,,,,,,,,,,,
,60f42a8f3227170449843be7,627c705547edda09226114b5,2022-05-12_04h22.27.195,classification_task,2021.2.3,Win32,59.91970759,627c6715c52fd12f31907bd0,,,,,,,,,,,,,,,,,,,,,space,21.7598,l,1,4.4581,"[""0.079"",""0.282"",""0.582"",""0.548""]","[1,1,1,0]",0,0,0,0,1,1,0,,,0,FALSE,,,,,,,,,,,,,,,,,,,,,,,,,,,,,,,
,60f42a8f3227170449843be7,627c705547edda09226114b5,2022-05-12_04h22.27.195,classification_task,2021.2.3,Win32,59.91970759,627c6715c52fd12f31907bd0,,,,,,,,,,,,,,,,,,,,,,,a,1,3.4711,"[""0.221"",""0.360"",""0.686"",""0.945""]","[1,1,0,1]",0,1,1,1,1,0,1,,,0,FALSE,,,,,,,,,,,,,,,,,,,,,,,,,,,,,,,
,60f42a8f3227170449843be7,627c705547edda09226114b5,2022-05-12_04h22.27.195,classification_task,2021.2.3,Win32,59.91970759,627c6715c52fd12f31907bd0,,,,,,,,,,,,,,,,,,,,,,,a,1,3.23,"[""0.170"",""0.415"",""0.636"",""0.672""]","[1,1,1,0]",0,2,2,2,1,0,0,,,0,FALSE,,,,,,,,,,,,,,,,,,,,,,,,,,,,,,,
,60f42a8f3227170449843be7,627c705547edda09226114b5,2022-05-12_04h22.27.195,classification_task,2021.2.3,Win32,59.91970759,627c6715c52fd12f31907bd0,,,,,,,,,,,,,,,,,,,,,,,l,1,4.4414,"[""0.028"",""0.123"",""0.502"",""0.672""]","[1,1,1,0]",0,3,3,3,1,1,1,,,0,FALSE,,,,,,,,,,,,,,,,,,,,,,,,,,,,,,,
,60f42a8f3227170449843be7,627c705547edda09226114b5,2022-05-12_04h22.27.195,classification_task,2021.2.3,Win32,59.91970759,627c6715c52fd12f31907bd0,,,,,,,,,,,,,,,,,,,,,,,l,1,3.148,"[""0.079"",""0.316"",""0.582"",""0.735""]","[1,0,1,1]",0,4,4,4,1,1,0,,,0,FALSE,,,,,,,,,,,,,,,,,,,,,,,,,,,,,,,
,60f42a8f3227170449843be7,627c705547edda09226114b5,2022-05-12_04h22.27.195,classification_task,2021.2.3,Win32,59.91970759,627c6715c52fd12f31907bd0,,,,,,,,,,,,,,,,,,,,,,,a,0,2.5033,"[""0.548"",""0.282"",""0.582"",""0.735""]","[0,1,1,1]",0,5,5,5,1,1,0,,,0,FALSE,,,,,,,,,,,,,,,,,,,,,,,,,,,,,,,
,60f42a8f3227170449843be7,627c705547edda09226114b5,2022-05-12_04h22.27.195,classification_task,2021.2.3,Win32,59.91970759,627c6715c52fd12f31907bd0,,,,,,,,,,,,,,,,,,,,,,,l,0,0.0213,"[""0.170"",""0.536"",""0.636"",""0.908""]","[1,0,1,1]",0,6,6,6,1,0,0,,,0,FALSE,,,,,,,,,,,,,,,,,,,,,,,,,,,,,,,
,60f42a8f3227170449843be7,627c705547edda09226114b5,2022-05-12_04h22.27.195,classification_task,2021.2.3,Win32,59.91970759,627c6715c52fd12f31907bd0,,,,,,,,,,,,,,,,,,,,,,,a,1,2.1921,"[""0.221"",""0.540"",""0.849"",""0.945""]","[1,0,1,1]",0,7,7,7,1,0,1,,,0,FALSE,,,,,,,,,,,,,,,,,,,,,,,,,,,,,,,
,60f42a8f3227170449843be7,627c705547edda09226114b5,2022-05-12_04h22.27.195,classification_task,2021.2.3,Win32,59.91970759,627c6715c52fd12f31907bd0,,,,,,,,,,,,,,,,,,,,,,,l,1,4.0884,"[""0.079"",""0.282"",""0.466"",""0.735""]","[1,1,0,1]",0,8,8,8,1,1,0,,,0,FALSE,,,,,,,,,,,,,,,,,,,,,,,,,,,,,,,
,60f42a8f3227170449843be7,627c705547edda09226114b5,2022-05-12_04h22.27.195,classification_task,2021.2.3,Win32,59.91970759,627c6715c52fd12f31907bd0,,,,,,,,,,,,,,,,,,,,,,,a,1,9.6704,"[""0.691"",""0.360"",""0.849"",""0.945""]","[0,1,1,1]",0,9,9,9,1,0,1,,,0,FALSE,,,,,,,,,,,,,,,,,,,,,,,,,,,,,,,
,60f42a8f3227170449843be7,627c705547edda09226114b5,2022-05-12_04h22.27.195,classification_task,2021.2.3,Win32,59.91970759,627c6715c52fd12f31907bd0,,,,,,,,,,,,,,,,,,,,,,,l,1,4.9984,"[""0.028"",""0.123"",""0.462"",""0.788""]","[1,1,0,1]",0,10,10,10,1,1,1,,,0,FALSE,,,,,,,,,,,,,,,,,,,,,,,,,,,,,,,
,60f42a8f3227170449843be7,627c705547edda09226114b5,2022-05-12_04h22.27.195,classification_task,2021.2.3,Win32,59.91970759,627c6715c52fd12f31907bd0,,,,,,,,,,,,,,,,,,,,,,,a,1,5.0842,"[""0.170"",""0.415"",""0.677"",""0.908""]","[1,1,0,1]",0,11,11,11,1,0,0,,,0,FALSE,,,,,,,,,,,,,,,,,,,,,,,,,,,,,,,
,60f42a8f3227170449843be7,627c705547edda09226114b5,2022-05-12_04h22.27.195,classification_task,2021.2.3,Win32,59.91970759,627c6715c52fd12f31907bd0,,,,,,,,,,,,,,,,,,,,,,,a,1,9.4911,"[""0.672"",""0.415"",""0.636"",""0.908""]","[0,1,1,1]",0,12,12,12,1,0,0,,,0,FALSE,,,,,,,,,,,,,,,,,,,,,,,,,,,,,,,
,60f42a8f3227170449843be7,627c705547edda09226114b5,2022-05-12_04h22.27.195,classification_task,2021.2.3,Win32,59.91970759,627c6715c52fd12f31907bd0,,,,,,,,,,,,,,,,,,,,,,,l,1,3.4685,"[""0.686"",""0.123"",""0.502"",""0.788""]","[0,1,1,1]",0,13,13,13,1,1,1,,,0,FALSE,,,,,,,,,,,,,,,,,,,,,,,,,,,,,,,
,60f42a8f3227170449843be7,627c705547edda09226114b5,2022-05-12_04h22.27.195,classification_task,2021.2.3,Win32,59.91970759,627c6715c52fd12f31907bd0,,,,,,,,,,,,,,,,,,,,,,,l,1,6.4833,"[""0.028"",""0.316"",""0.502"",""0.788""]","[1,0,1,1]",0,14,14,14,1,1,1,,,0,FALSE,,,,,,,,,,,,,,,,,,,,,,,,,,,,,,,
,60f42a8f3227170449843be7,627c705547edda09226114b5,2022-05-12_04h22.27.195,classification_task,2021.2.3,Win32,59.91970759,627c6715c52fd12f31907bd0,,,,,,,,,,,,,,,,,,,,,,,a,1,3.6386,"[""0.221"",""0.360"",""0.849"",""0.536""]","[1,1,1,0]",0,15,15,15,1,0,1,,,0,FALSE,,,,,,,,,,,,,,,,,,,,,,,,,,,,,,,
,60f42a8f3227170449843be7,627c705547edda09226114b5,2022-05-12_04h22.27.195,classification_task,2021.2.3,Win32,59.91970759,627c6715c52fd12f31907bd0,,,,,,,,,,,,,,,,,,,,,,,l,1,4.1078,"[""0.680"",""0.282"",""0.582"",""0.735""]","[0,1,1,1]",0,16,16,16,1,1,0,,,0,FALSE,,,,,,,,,,,,,,,,,,,,,,,,,,,,,,,
,60f42a8f3227170449843be7,627c705547edda09226114b5,2022-05-12_04h22.27.195,classification_task,2021.2.3,Win32,59.91970759,627c6715c52fd12f31907bd0,,,,,,,,,,,,,,,,,,,,,,,a,1,2.3358,"[""0.462"",""0.415"",""0.636"",""0.908""]","[0,1,1,1]",0,17,17,17,1,0,0,,,0,FALSE,,,,,,,,,,,,,,,,,,,,,,,,,,,,,,,
,60f42a8f3227170449843be7,627c705547edda09226114b5,2022-05-12_04h22.27.195,classification_task,2021.2.3,Win32,59.91970759,627c6715c52fd12f31907bd0,,,,,,,,,,,,,,,,,,,,,,,a,1,5.3639,"[""0.170"",""0.691"",""0.636"",""0.908""]","[1,0,1,1]",0,18,18,18,1,0,0,,,0,FALSE,,,,,,,,,,,,,,,,,,,,,,,,,,,,,,,
,60f42a8f3227170449843be7,627c705547edda09226114b5,2022-05-12_04h22.27.195,classification_task,2021.2.3,Win32,59.91970759,627c6715c52fd12f31907bd0,,,,,,,,,,,,,,,,,,,,,,,a,1,2.4816,"[""0.170"",""0.415"",""0.462"",""0.908""]","[1,1,0,1]",0,19,19,19,1,0,0,,,0,FALSE,,,,,,,,,,,,,,,,,,,,,,,,,,,,,,,
,60f42a8f3227170449843be7,627c705547edda09226114b5,2022-05-12_04h22.27.195,classification_task,2021.2.3,Win32,59.91970759,627c6715c52fd12f31907bd0,,,,,,,,,,,,,,,,,,,,,,,a,1,3.0347,"[""0.170"",""0.415"",""0.636"",""0.540""]","[1,1,1,0]",0,20,20,20,1,0,0,,,0,FALSE,,,,,,,,,,,,,,,,,,,,,,,,,,,,,,,
,60f42a8f3227170449843be7,627c705547edda09226114b5,2022-05-12_04h22.27.195,classification_task,2021.2.3,Win32,59.91970759,627c6715c52fd12f31907bd0,,,,,,,,,,,,,,,,,,,,,,,l,1,5.2148,"[""0.079"",""0.282"",""0.672"",""0.735""]","[1,1,0,1]",0,21,21,21,1,1,0,,,0,FALSE,,,,,,,,,,,,,,,,,,,,,,,,,,,,,,,
,60f42a8f3227170449843be7,627c705547edda09226114b5,2022-05-12_04h22.27.195,classification_task,2021.2.3,Win32,59.91970759,627c6715c52fd12f31907bd0,,,,,,,,,,,,,,,,,,,,,,,a,1,2.1164,"[""0.221"",""0.360"",""0.686"",""0.945""]","[1,1,0,1]",0,22,22,22,1,0,1,,,0,FALSE,,,,,,,,,,,,,,,,,,,,,,,,,,,,,,,
,60f42a8f3227170449843be7,627c705547edda09226114b5,2022-05-12_04h22.27.195,classification_task,2021.2.3,Win32,59.91970759,627c6715c52fd12f31907bd0,,,,,,,,,,,,,,,,,,,,,,,l,1,2.2583,"[""0.079"",""0.282"",""0.582"",""0.545""]","[1,1,1,0]",0,23,23,23,1,1,0,,,0,FALSE,,,,,,,,,,,,,,,,,,,,,,,,,,,,,,,
,60f42a8f3227170449843be7,627c705547edda09226114b5,2022-05-12_04h22.27.195,classification_task,2021.2.3,Win32,59.91970759,627c6715c52fd12f31907bd0,,,,,,,,,,,,,,,,,,,,,,,l,1,1.7063,"[""0.079"",""0.677"",""0.582"",""0.735""]","[1,0,1,1]",0,24,24,24,1,1,0,,,0,FALSE,,,,,,,,,,,,,,,,,,,,,,,,,,,,,,,
,60f42a8f3227170449843be7,627c705547edda09226114b5,2022-05-12_04h22.27.195,classification_task,2021.2.3,Win32,59.91970759,627c6715c52fd12f31907bd0,,,,,,,,,,,,,,,,,,,,,,,a,1,1.3991,"[""0.221"",""0.360"",""0.849"",""0.691""]","[1,1,1,0]",0,25,25,25,1,0,1,,,0,FALSE,,,,,,,,,,,,,,,,,,,,,,,,,,,,,,,
,60f42a8f3227170449843be7,627c705547edda09226114b5,2022-05-12_04h22.27.195,classification_task,2021.2.3,Win32,59.91970759,627c6715c52fd12f31907bd0,,,,,,,,,,,,,,,,,,,,,,,l,1,3.1224,"[""0.028"",""0.123"",""0.502"",""0.466""]","[1,1,1,0]",0,26,26,26,1,1,1,,,0,FALSE,,,,,,,,,,,,,,,,,,,,,,,,,,,,,,,
,60f42a8f3227170449843be7,627c705547edda09226114b5,2022-05-12_04h22.27.195,classification_task,2021.2.3,Win32,59.91970759,627c6715c52fd12f31907bd0,,,,,,,,,,,,,,,,,,,,,,,a,1,2.0377,"[""0.691"",""0.360"",""0.849"",""0.945""]","[0,1,1,1]",0,27,27,27,1,0,1,,,0,FALSE,,,,,,,,,,,,,,,,,,,,,,,,,,,,,,,
,60f42a8f3227170449843be7,627c705547edda09226114b5,2022-05-12_04h22.27.195,classification_task,2021.2.3,Win32,59.91970759,627c6715c52fd12f31907bd0,,,,,,,,,,,,,,,,,,,,,,,a,1,1.8131,"[""0.221"",""0.545"",""0.849"",""0.945""]","[1,0,1,1]",0,28,28,28,1,0,1,,,0,FALSE,,,,,,,,,,,,,,,,,,,,,,,,,,,,,,,
,60f42a8f3227170449843be7,627c705547edda09226114b5,2022-05-12_04h22.27.195,classification_task,2021.2.3,Win32,59.91970759,627c6715c52fd12f31907bd0,,,,,,,,,,,,,,,,,,,,,,,,0,,"[""0.028"",""0.536"",""0.502"",""0.788""]","[1,0,1,1]",0,29,29,29,1,1,1,,,0,FALSE,,,,,,,,,,,,,,,,,,,,,,,,,,,,,,,
,60f42a8f3227170449843be7,627c705547edda09226114b5,2022-05-12_04h22.27.195,classification_task,2021.2.3,Win32,59.91970759,627c6715c52fd12f31907bd0,,,,,,,,,,,,,,,,,,,,,,,l,1,4.2013,"[""0.028"",""0.123"",""0.672"",""0.788""]","[1,1,0,1]",0,30,30,30,1,1,1,,,0,FALSE,,,,,,,,,,,,,,,,,,,,,,,,,,,,,,,
,60f42a8f3227170449843be7,627c705547edda09226114b5,2022-05-12_04h22.27.195,classification_task,2021.2.3,Win32,59.91970759,627c6715c52fd12f31907bd0,,,,,,,,,,,,,,,,,,,,,,,l,1,7.8632,"[""0.548"",""0.123"",""0.502"",""0.788""]","[0,1,1,1]",0,31,31,31,1,1,1,,,0,FALSE,,,,,,,,,,,,,,,,,,,,,,,,,,,,,,,
,60f42a8f3227170449843be7,627c705547edda09226114b5,2022-05-12_04h22.27.195,classification_task,2021.2.3,Win32,59.91970759,627c6715c52fd12f31907bd0,,,,,,,,,,,,,,,,,,,,,,,l,0,4.3339,"[""0.548"",""0.360"",""0.849"",""0.945""]","[0,1,1,1]",0,32,32,32,1,0,1,,,0,FALSE,,,,,,,,,,,,,,,,,,,,,,,,,,,,,,,
,60f42a8f3227170449843be7,627c705547edda09226114b5,2022-05-12_04h22.27.195,classification_task,2021.2.3,Win32,59.91970759,627c6715c52fd12f31907bd0,,,,,,,,,,,,,,,,,,,,,,,a,1,3.5103,"[""0.221"",""0.462"",""0.849"",""0.945""]","[1,0,1,1]",0,33,33,33,1,0,1,,,0,FALSE,,,,,,,,,,,,,,,,,,,,,,,,,,,,,,,
,60f42a8f3227170449843be7,627c705547edda09226114b5,2022-05-12_04h22.27.195,classification_task,2021.2.3,Win32,59.91970759,627c6715c52fd12f31907bd0,,,,,,,,,,,,,,,,,,,,,,,l,1,0.9504,"[""0.028"",""0.677"",""0.502"",""0.788""]","[1,0,1,1]",0,34,34,34,1,1,1,,,0,FALSE,,,,,,,,,,,,,,,,,,,,,,,,,,,,,,,
,60f42a8f3227170449843be7,627c705547edda09226114b5,2022-05-12_04h22.27.195,classification_task,2021.2.3,Win32,59.91970759,627c6715c52fd12f31907bd0,,,,,,,,,,,,,,,,,,,,,,,a,1,1.6248,"[""0.170"",""0.415"",""0.688"",""0.908""]","[1,1,0,1]",0,35,35,35,1,0,0,,,0,FALSE,,,,,,,,,,,,,,,,,,,,,,,,,,,,,,,
,60f42a8f3227170449843be7,627c705547edda09226114b5,2022-05-12_04h22.27.195,classification_task,2021.2.3,Win32,59.91970759,627c6715c52fd12f31907bd0,,,,,,,,,,,,,,,,,,,,,,,l,1,1.3475,"[""0.079"",""0.282"",""0.680"",""0.735""]","[1,1,0,1]",0,36,36,36,1,1,0,,,0,FALSE,,,,,,,,,,,,,,,,,,,,,,,,,,,,,,,
,60f42a8f3227170449843be7,627c705547edda09226114b5,2022-05-12_04h22.27.195,classification_task,2021.2.3,Win32,59.91970759,627c6715c52fd12f31907bd0,,,,,,,,,,,,,,,,,,,,,,,a,1,1.2083,"[""0.221"",""0.360"",""0.849"",""0.462""]","[1,1,1,0]",0,37,37,37,1,0,1,,,0,FALSE,,,,,,,,,,,,,,,,,,,,,,,,,,,,,,,
,60f42a8f3227170449843be7,627c705547edda09226114b5,2022-05-12_04h22.27.195,classification_task,2021.2.3,Win32,59.91970759,627c6715c52fd12f31907bd0,,,,,,,,,,,,,,,,,,,,,,,l,1,5.4842,"[""0.672"",""0.282"",""0.582"",""0.735""]","[0,1,1,1]",0,38,38,38,1,1,0,,,0,FALSE,,,,,,,,,,,,,,,,,,,,,,,,,,,,,,,
,60f42a8f3227170449843be7,627c705547edda09226114b5,2022-05-12_04h22.27.195,classification_task,2021.2.3,Win32,59.91970759,627c6715c52fd12f31907bd0,,,,,,,,,,,,,,,,,,,,,,,l,1,1.5088,"[""0.079"",""0.540"",""0.582"",""0.735""]","[1,0,1,1]",0,39,39,39,1,1,0,,,0,FALSE,,,,,,,,,,,,,,,,,,,,,,,,,,,,,,,
,60f42a8f3227170449843be7,627c705547edda09226114b5,2022-05-12_04h22.27.195,classification_task,2021.2.3,Win32,59.91970759,627c6715c52fd12f31907bd0,,,,,,,,,,,,,,,,,,,,,,,a,1,3.5449,"[""0.170"",""0.415"",""0.636"",""0.466""]","[1,1,1,0]",0,40,40,40,1,0,0,,,0,FALSE,,,,,,,,,,,,,,,,,,,,,,,,,,,,,,,
,60f42a8f3227170449843be7,627c705547edda09226114b5,2022-05-12_04h22.27.195,classification_task,2021.2.3,Win32,59.91970759,627c6715c52fd12f31907bd0,,,,,,,,,,,,,,,,,,,,,,,l,1,1.6055,"[""0.028"",""0.123"",""0.502"",""0.316""]","[1,1,1,0]",0,41,41,41,1,1,1,,,0,FALSE,,,,,,,,,,,,,,,,,,,,,,,,,,,,,,,
,60f42a8f3227170449843be7,627c705547edda09226114b5,2022-05-12_04h22.27.195,classification_task,2021.2.3,Win32,59.91970759,627c6715c52fd12f31907bd0,,,,,,,,,,,,,,,,,,,,,,,l,0,1.679,"[""0.540"",""0.415"",""0.636"",""0.908""]","[0,1,1,1]",0,42,42,42,1,0,0,,,0,FALSE,,,,,,,,,,,,,,,,,,,,,,,,,,,,,,,
,60f42a8f3227170449843be7,627c705547edda09226114b5,2022-05-12_04h22.27.195,classification_task,2021.2.3,Win32,59.91970759,627c6715c52fd12f31907bd0,,,,,,,,,,,,,,,,,,,,,,,a,0,1.3962,"[""0.316"",""0.123"",""0.502"",""0.788""]","[0,1,1,1]",0,43,43,43,1,1,1,,,0,FALSE,,,,,,,,,,,,,,,,,,,,,,,,,,,,,,,
,60f42a8f3227170449843be7,627c705547edda09226114b5,2022-05-12_04h22.27.195,classification_task,2021.2.3,Win32,59.91970759,627c6715c52fd12f31907bd0,,,,,,,,,,,,,,,,,,,,,,,l,1,1.2883,"[""0.028"",""0.123"",""0.462"",""0.788""]","[1,1,0,1]",0,44,44,44,1,1,1,,,0,FALSE,,,,,,,,,,,,,,,,,,,,,,,,,,,,,,,
,60f42a8f3227170449843be7,627c705547edda09226114b5,2022-05-12_04h22.27.195,classification_task,2021.2.3,Win32,59.91970759,627c6715c52fd12f31907bd0,,,,,,,,,,,,,,,,,,,,,,,a,1,1.4469,"[""0.221"",""0.360"",""0.677"",""0.945""]","[1,1,0,1]",0,45,45,45,1,0,1,,,0,FALSE,,,,,,,,,,,,,,,,,,,,,,,,,,,,,,,
,60f42a8f3227170449843be7,627c705547edda09226114b5,2022-05-12_04h22.27.195,classification_task,2021.2.3,Win32,59.91970759,627c6715c52fd12f31907bd0,,,,,,,,,,,,,,,,,,,,,,,l,1,1.371,"[""0.079"",""0.282"",""0.582"",""0.536""]","[1,1,1,0]",0,46,46,46,1,1,0,,,0,FALSE,,,,,,,,,,,,,,,,,,,,,,,,,,,,,,,
,60f42a8f3227170449843be7,627c705547edda09226114b5,2022-05-12_04h22.27.195,classification_task,2021.2.3,Win32,59.91970759,627c6715c52fd12f31907bd0,,,,,,,,,,,,,,,,,,,,,,,l,0,3.1515,"[""0.170"",""0.536"",""0.636"",""0.908""]","[1,0,1,1]",0,47,47,47,1,0,0,,,0,FALSE,,,,,,,,,,,,,,,,,,,,,,,,,,,,,,,
,60f42a8f3227170449843be7,627c705547edda09226114b5,2022-05-12_04h22.27.195,classification_task,2021.2.3,Win32,59.91970759,627c6715c52fd12f31907bd0,,,,,,,,,,,,,,,,,,,,,,,a,1,1.0065,"[""0.221"",""0.360"",""0.691"",""0.945""]","[1,1,0,1]",0,48,48,48,1,0,1,,,0,FALSE,,,,,,,,,,,,,,,,,,,,,,,,,,,,,,,
,60f42a8f3227170449843be7,627c705547edda09226114b5,2022-05-12_04h22.27.195,classification_task,2021.2.3,Win32,59.91970759,627c6715c52fd12f31907bd0,,,,,,,,,,,,,,,,,,,,,,,l,1,1.8108,"[""0.028"",""0.674"",""0.502"",""0.788""]","[1,0,1,1]",0,49,49,49,1,1,1,,,0,FALSE,,,,,,,,,,,,,,,,,,,,,,,,,,,,,,,
,60f42a8f3227170449843be7,627c705547edda09226114b5,2022-05-12_04h22.27.195,classification_task,2021.2.3,Win32,59.91970759,627c6715c52fd12f31907bd0,,,,,,,,,,,,,,,,,,,,,,,a,1,0.9534,"[""0.221"",""0.360"",""0.849"",""0.677""]","[1,1,1,0]",0,50,50,50,1,0,1,,,0,FALSE,,,,,,,,,,,,,,,,,,,,,,,,,,,,,,,
,60f42a8f3227170449843be7,627c705547edda09226114b5,2022-05-12_04h22.27.195,classification_task,2021.2.3,Win32,59.91970759,627c6715c52fd12f31907bd0,,,,,,,,,,,,,,,,,,,,,,,a,0,1.5062,"[""0.540"",""0.123"",""0.502"",""0.788""]","[0,1,1,1]",0,51,51,51,1,1,1,,,0,FALSE,,,,,,,,,,,,,,,,,,,,,,,,,,,,,,,
,60f42a8f3227170449843be7,627c705547edda09226114b5,2022-05-12_04h22.27.195,classification_task,2021.2.3,Win32,59.91970759,627c6715c52fd12f31907bd0,,,,,,,,,,,,,,,,,,,,,,,a,1,2.028,"[""0.170"",""0.545"",""0.636"",""0.908""]","[1,0,1,1]",0,52,52,52,1,0,0,,,0,FALSE,,,,,,,,,,,,,,,,,,,,,,,,,,,,,,,
,60f42a8f3227170449843be7,627c705547edda09226114b5,2022-05-12_04h22.27.195,classification_task,2021.2.3,Win32,59.91970759,627c6715c52fd12f31907bd0,,,,,,,,,,,,,,,,,,,,,,,l,1,1.1269,"[""0.028"",""0.123"",""0.502"",""0.462""]","[1,1,1,0]",0,53,53,53,1,1,1,,,0,FALSE,,,,,,,,,,,,,,,,,,,,,,,,,,,,,,,
,60f42a8f3227170449843be7,627c705547edda09226114b5,2022-05-12_04h22.27.195,classification_task,2021.2.3,Win32,59.91970759,627c6715c52fd12f31907bd0,,,,,,,,,,,,,,,,,,,,,,,a,0,1.5693,"[""0.545"",""0.282"",""0.582"",""0.735""]","[0,1,1,1]",0,54,54,54,1,1,0,,,0,FALSE,,,,,,,,,,,,,,,,,,,,,,,,,,,,,,,
,60f42a8f3227170449843be7,627c705547edda09226114b5,2022-05-12_04h22.27.195,classification_task,2021.2.3,Win32,59.91970759,627c6715c52fd12f31907bd0,,,,,,,,,,,,,,,,,,,,,,,l,1,1.2836,"[""0.079"",""0.462"",""0.582"",""0.735""]","[1,0,1,1]",0,55,55,55,1,1,0,,,0,FALSE,,,,,,,,,,,,,,,,,,,,,,,,,,,,,,,
,60f42a8f3227170449843be7,627c705547edda09226114b5,2022-05-12_04h22.27.195,classification_task,2021.2.3,Win32,59.91970759,627c6715c52fd12f31907bd0,,,,,,,,,,,,,,,,,,,,,,,l,0,1.7289,"[""0.677"",""0.360"",""0.849"",""0.945""]","[0,1,1,1]",0,56,56,56,1,0,1,,,0,FALSE,,,,,,,,,,,,,,,,,,,,,,,,,,,,,,,
,60f42a8f3227170449843be7,627c705547edda09226114b5,2022-05-12_04h22.27.195,classification_task,2021.2.3,Win32,59.91970759,627c6715c52fd12f31907bd0,,,,,,,,,,,,,,,,,,,,,,,l,1,1.3939,"[""0.079"",""0.282"",""0.316"",""0.735""]","[1,1,0,1]",0,57,57,57,1,1,0,,,0,FALSE,,,,,,,,,,,,,,,,,,,,,,,,,,,,,,,
,60f42a8f3227170449843be7,627c705547edda09226114b5,2022-05-12_04h22.27.195,classification_task,2021.2.3,Win32,59.91970759,627c6715c52fd12f31907bd0,,,,,,,,,,,,,,,,,,,,,,,l,1,1.0626,"[""0.028"",""0.123"",""0.680"",""0.788""]","[1,1,0,1]",0,58,58,58,1,1,1,,,0,FALSE,,,,,,,,,,,,,,,,,,,,,,,,,,,,,,,
,60f42a8f3227170449843be7,627c705547edda09226114b5,2022-05-12_04h22.27.195,classification_task,2021.2.3,Win32,59.91970759,627c6715c52fd12f31907bd0,,,,,,,,,,,,,,,,,,,,,,,a,1,3.5076,"[""0.170"",""0.415"",""0.540"",""0.908""]","[1,1,0,1]",0,59,59,59,1,0,0,,,0,FALSE,,,,,,,,,,,,,,,,,,,,,,,,,,,,,,,
,60f42a8f3227170449843be7,627c705547edda09226114b5,2022-05-12_04h22.27.195,classification_task,2021.2.3,Win32,59.91970759,627c6715c52fd12f31907bd0,,,,,,,,,,,,,,,,,,,,,,,a,1,1.011,"[""0.170"",""0.415"",""0.636"",""0.548""]","[1,1,1,0]",0,60,60,60,1,0,0,,,0,FALSE,,,,,,,,,,,,,,,,,,,,,,,,,,,,,,,
,60f42a8f3227170449843be7,627c705547edda09226114b5,2022-05-12_04h22.27.195,classification_task,2021.2.3,Win32,59.91970759,627c6715c52fd12f31907bd0,,,,,,,,,,,,,,,,,,,,,,,a,1,0.8608,"[""0.221"",""0.536"",""0.849"",""0.945""]","[1,0,1,1]",0,61,61,61,1,0,1,,,0,FALSE,,,,,,,,,,,,,,,,,,,,,,,,,,,,,,,
,60f42a8f3227170449843be7,627c705547edda09226114b5,2022-05-12_04h22.27.195,classification_task,2021.2.3,Win32,59.91970759,627c6715c52fd12f31907bd0,,,,,,,,,,,,,,,,,,,,,,,l,1,1.0152,"[""0.079"",""0.282"",""0.582"",""0.672""]","[1,1,1,0]",0,62,62,62,1,1,0,,,0,FALSE,,,,,,,,,,,,,,,,,,,,,,,,,,,,,,,
,60f42a8f3227170449843be7,627c705547edda09226114b5,2022-05-12_04h22.27.195,classification_task,2021.2.3,Win32,59.91970759,627c6715c52fd12f31907bd0,,,,,,,,,,,,,,,,,,,,,,,a,1,2.7373,"[""0.462"",""0.415"",""0.636"",""0.908""]","[0,1,1,1]",0,63,63,63,1,0,0,,,0,FALSE,,,,,,,,,,,,,,,,,,,,,,,,,,,,,,,
,60f42a8f3227170449843be7,627c705547edda09226114b5,2022-05-12_04h22.27.195,classification_task,2021.2.3,Win32,59.91970759,627c6715c52fd12f31907bd0,,,,,,,,,,,,,,,,,,,,,,,,,,,,,,,,,,,,,,,0, ,,0,4.6386933,475.7149,0,0,0,0,1,2,1,,,,,,,,,,,,,,,,,,
,60f42a8f3227170449843be7,627c705547edda09226114b5,2022-05-12_04h22.27.195,classification_task,2021.2.3,Win32,59.91970759,627c6715c52fd12f31907bd0,,,,,,,,,,,,,,,,,,,,,,,,,,,,,,,,,,,,,,,1,  ,,0,7.529150641,464.7265,0,0,0,0,1,2,1,,,,,,,,,,,,,,,,,,
,60f42a8f3227170449843be7,627c705547edda09226114b5,2022-05-12_04h22.27.195,classification_task,2021.2.3,Win32,59.91970759,627c6715c52fd12f31907bd0,,,,,,,,,,,,,,,,,,,,,,,,,,,,,,,,,,,,,,,2,  ,,0,3.046492633,470.1707,0,0,0,0,1,2,1,,,,,,,,,,,,,,,,,,
,60f42a8f3227170449843be7,627c705547edda09226114b5,2022-05-12_04h22.27.195,classification_task,2021.2.3,Win32,59.91970759,627c6715c52fd12f31907bd0,,,,,,,,,,,,,,,,,,,,,,,,,,,,,,,,,,,,,,,,,,,,,0,0,0,0,1,,1,,,,,,,,,,,,,,,,,,
,60f42a8f3227170449843be7,627c705547edda09226114b5,2022-05-12_04h22.27.195,classification_task,2021.2.3,Win32,59.91970759,627c6715c52fd12f31907bd0,,,,,,,,,,,,,,,,,,,,,space,25.3502,l,1,2.866,"[""0.079"",""0.282"",""0.536"",""0.735""]","[1,1,0,1]",0,0,0,0,1,1,0,,,0,FALSE,,,,,,,,,,,,,,,,,,,,,,,,,,,,,,,
,60f42a8f3227170449843be7,627c705547edda09226114b5,2022-05-12_04h22.27.195,classification_task,2021.2.3,Win32,59.91970759,627c6715c52fd12f31907bd0,,,,,,,,,,,,,,,,,,,,,,,a,0,2.8818,"[""0.028"",""0.691"",""0.502"",""0.788""]","[1,0,1,1]",0,1,1,1,1,1,1,,,0,FALSE,,,,,,,,,,,,,,,,,,,,,,,,,,,,,,,
,60f42a8f3227170449843be7,627c705547edda09226114b5,2022-05-12_04h22.27.195,classification_task,2021.2.3,Win32,59.91970759,627c6715c52fd12f31907bd0,,,,,,,,,,,,,,,,,,,,,,,a,1,0.8872,"[""0.170"",""0.686"",""0.636"",""0.908""]","[1,0,1,1]",0,2,2,2,1,0,0,,,0,FALSE,,,,,,,,,,,,,,,,,,,,,,,,,,,,,,,
,60f42a8f3227170449843be7,627c705547edda09226114b5,2022-05-12_04h22.27.195,classification_task,2021.2.3,Win32,59.91970759,627c6715c52fd12f31907bd0,,,,,,,,,,,,,,,,,,,,,,,a,1,2.1436,"[""0.462"",""0.360"",""0.849"",""0.945""]","[0,1,1,1]",0,3,3,3,1,0,1,,,0,FALSE,,,,,,,,,,,,,,,,,,,,,,,,,,,,,,,
,60f42a8f3227170449843be7,627c705547edda09226114b5,2022-05-12_04h22.27.195,classification_task,2021.2.3,Win32,59.91970759,627c6715c52fd12f31907bd0,,,,,,,,,,,,,,,,,,,,,,,a,1,2.0318,"[""0.462"",""0.415"",""0.636"",""0.908""]","[0,1,1,1]",0,4,4,4,1,0,0,,,0,FALSE,,,,,,,,,,,,,,,,,,,,,,,,,,,,,,,
,60f42a8f3227170449843be7,627c705547edda09226114b5,2022-05-12_04h22.27.195,classification_task,2021.2.3,Win32,59.91970759,627c6715c52fd12f31907bd0,,,,,,,,,,,,,,,,,,,,,,,l,1,1.5588,"[""0.079"",""0.282"",""0.582"",""0.677""]","[1,1,1,0]",0,5,5,5,1,1,0,,,0,FALSE,,,,,,,,,,,,,,,,,,,,,,,,,,,,,,,
,60f42a8f3227170449843be7,627c705547edda09226114b5,2022-05-12_04h22.27.195,classification_task,2021.2.3,Win32,59.91970759,627c6715c52fd12f31907bd0,,,,,,,,,,,,,,,,,,,,,,,l,1,1.3741,"[""0.028"",""0.123"",""0.502"",""0.672""]","[1,1,1,0]",0,6,6,6,1,1,1,,,0,FALSE,,,,,,,,,,,,,,,,,,,,,,,,,,,,,,,
,60f42a8f3227170449843be7,627c705547edda09226114b5,2022-05-12_04h22.27.195,classification_task,2021.2.3,Win32,59.91970759,627c6715c52fd12f31907bd0,,,,,,,,,,,,,,,,,,,,,,,l,0,1.6942,"[""0.221"",""0.536"",""0.849"",""0.945""]","[1,0,1,1]",0,7,7,7,1,0,1,,,0,FALSE,,,,,,,,,,,,,,,,,,,,,,,,,,,,,,,
,60f42a8f3227170449843be7,627c705547edda09226114b5,2022-05-12_04h22.27.195,classification_task,2021.2.3,Win32,59.91970759,627c6715c52fd12f31907bd0,,,,,,,,,,,,,,,,,,,,,,,l,1,1.0423,"[""0.079"",""0.462"",""0.582"",""0.735""]","[1,0,1,1]",0,8,8,8,1,1,0,,,0,FALSE,,,,,,,,,,,,,,,,,,,,,,,,,,,,,,,
,60f42a8f3227170449843be7,627c705547edda09226114b5,2022-05-12_04h22.27.195,classification_task,2021.2.3,Win32,59.91970759,627c6715c52fd12f31907bd0,,,,,,,,,,,,,,,,,,,,,,,l,1,1.4608,"[""0.028"",""0.123"",""0.691"",""0.788""]","[1,1,0,1]",0,9,9,9,1,1,1,,,0,FALSE,,,,,,,,,,,,,,,,,,,,,,,,,,,,,,,
,60f42a8f3227170449843be7,627c705547edda09226114b5,2022-05-12_04h22.27.195,classification_task,2021.2.3,Win32,59.91970759,627c6715c52fd12f31907bd0,,,,,,,,,,,,,,,,,,,,,,,a,1,1.1832,"[""0.221"",""0.360"",""0.316"",""0.945""]","[1,1,0,1]",0,10,10,10,1,0,1,,,0,FALSE,,,,,,,,,,,,,,,,,,,,,,,,,,,,,,,
,60f42a8f3227170449843be7,627c705547edda09226114b5,2022-05-12_04h22.27.195,classification_task,2021.2.3,Win32,59.91970759,627c6715c52fd12f31907bd0,,,,,,,,,,,,,,,,,,,,,,,l,1,1.1066,"[""0.680"",""0.282"",""0.582"",""0.735""]","[0,1,1,1]",0,11,11,11,1,1,0,,,0,FALSE,,,,,,,,,,,,,,,,,,,,,,,,,,,,,,,
,60f42a8f3227170449843be7,627c705547edda09226114b5,2022-05-12_04h22.27.195,classification_task,2021.2.3,Win32,59.91970759,627c6715c52fd12f31907bd0,,,,,,,,,,,,,,,,,,,,,,,a,1,0.9429,"[""0.170"",""0.415"",""0.636"",""0.316""]","[1,1,1,0]",0,12,12,12,1,0,0,,,0,FALSE,,,,,,,,,,,,,,,,,,,,,,,,,,,,,,,
,60f42a8f3227170449843be7,627c705547edda09226114b5,2022-05-12_04h22.27.195,classification_task,2021.2.3,Win32,59.91970759,627c6715c52fd12f31907bd0,,,,,,,,,,,,,,,,,,,,,,,a,0,1.8765,"[""0.688"",""0.123"",""0.502"",""0.788""]","[0,1,1,1]",0,13,13,13,1,1,1,,,0,FALSE,,,,,,,,,,,,,,,,,,,,,,,,,,,,,,,
,60f42a8f3227170449843be7,627c705547edda09226114b5,2022-05-12_04h22.27.195,classification_task,2021.2.3,Win32,59.91970759,627c6715c52fd12f31907bd0,,,,,,,,,,,,,,,,,,,,,,,a,1,1.7061,"[""0.170"",""0.415"",""0.462"",""0.908""]","[1,1,0,1]",0,14,14,14,1,0,0,,,0,FALSE,,,,,,,,,,,,,,,,,,,,,,,,,,,,,,,
,60f42a8f3227170449843be7,627c705547edda09226114b5,2022-05-12_04h22.27.195,classification_task,2021.2.3,Win32,59.91970759,627c6715c52fd12f31907bd0,,,,,,,,,,,,,,,,,,,,,,,a,1,1.302,"[""0.221"",""0.360"",""0.849"",""0.466""]","[1,1,1,0]",0,15,15,15,1,0,1,,,0,FALSE,,,,,,,,,,,,,,,,,,,,,,,,,,,,,,,
,60f42a8f3227170449843be7,627c705547edda09226114b5,2022-05-12_04h22.27.195,classification_task,2021.2.3,Win32,59.91970759,627c6715c52fd12f31907bd0,,,,,,,,,,,,,,,,,,,,,,,l,1,1.2903,"[""0.028"",""0.123"",""0.502"",""0.686""]","[1,1,1,0]",0,16,16,16,1,1,1,,,0,FALSE,,,,,,,,,,,,,,,,,,,,,,,,,,,,,,,
,60f42a8f3227170449843be7,627c705547edda09226114b5,2022-05-12_04h22.27.195,classification_task,2021.2.3,Win32,59.91970759,627c6715c52fd12f31907bd0,,,,,,,,,,,,,,,,,,,,,,,a,1,0.9336,"[""0.688"",""0.415"",""0.636"",""0.908""]","[0,1,1,1]",0,17,17,17,1,0,0,,,0,FALSE,,,,,,,,,,,,,,,,,,,,,,,,,,,,,,,
,60f42a8f3227170449843be7,627c705547edda09226114b5,2022-05-12_04h22.27.195,classification_task,2021.2.3,Win32,59.91970759,627c6715c52fd12f31907bd0,,,,,,,,,,,,,,,,,,,,,,,a,1,1.0627,"[""0.221"",""0.545"",""0.849"",""0.945""]","[1,0,1,1]",0,18,18,18,1,0,1,,,0,FALSE,,,,,,,,,,,,,,,,,,,,,,,,,,,,,,,
,60f42a8f3227170449843be7,627c705547edda09226114b5,2022-05-12_04h22.27.195,classification_task,2021.2.3,Win32,59.91970759,627c6715c52fd12f31907bd0,,,,,,,,,,,,,,,,,,,,,,,l,1,1.0327,"[""0.079"",""0.282"",""0.466"",""0.735""]","[1,1,0,1]",0,19,19,19,1,1,0,,,0,FALSE,,,,,,,,,,,,,,,,,,,,,,,,,,,,,,,
,60f42a8f3227170449843be7,627c705547edda09226114b5,2022-05-12_04h22.27.195,classification_task,2021.2.3,Win32,59.91970759,627c6715c52fd12f31907bd0,,,,,,,,,,,,,,,,,,,,,,,l,1,0.7712,"[""0.079"",""0.282"",""0.582"",""0.686""]","[1,1,1,0]",0,20,20,20,1,1,0,,,0,FALSE,,,,,,,,,,,,,,,,,,,,,,,,,,,,,,,
,60f42a8f3227170449843be7,627c705547edda09226114b5,2022-05-12_04h22.27.195,classification_task,2021.2.3,Win32,59.91970759,627c6715c52fd12f31907bd0,,,,,,,,,,,,,,,,,,,,,,,a,1,0.8169,"[""0.170"",""0.415"",""0.636"",""0.688""]","[1,1,1,0]",0,21,21,21,1,0,0,,,0,FALSE,,,,,,,,,,,,,,,,,,,,,,,,,,,,,,,
,60f42a8f3227170449843be7,627c705547edda09226114b5,2022-05-12_04h22.27.195,classification_task,2021.2.3,Win32,59.91970759,627c6715c52fd12f31907bd0,,,,,,,,,,,,,,,,,,,,,,,l,1,1.552,"[""0.028"",""0.462"",""0.502"",""0.788""]","[1,0,1,1]",0,22,22,22,1,1,1,,,0,FALSE,,,,,,,,,,,,,,,,,,,,,,,,,,,,,,,
,60f42a8f3227170449843be7,627c705547edda09226114b5,2022-05-12_04h22.27.195,classification_task,2021.2.3,Win32,59.91970759,627c6715c52fd12f31907bd0,,,,,,,,,,,,,,,,,,,,,,,l,1,1.7502,"[""0.540"",""0.282"",""0.582"",""0.735""]","[0,1,1,1]",0,23,23,23,1,1,0,,,0,FALSE,,,,,,,,,,,,,,,,,,,,,,,,,,,,,,,
,60f42a8f3227170449843be7,627c705547edda09226114b5,2022-05-12_04h22.27.195,classification_task,2021.2.3,Win32,59.91970759,627c6715c52fd12f31907bd0,,,,,,,,,,,,,,,,,,,,,,,a,1,1.8732,"[""0.170"",""0.677"",""0.636"",""0.908""]","[1,0,1,1]",0,24,24,24,1,0,0,,,0,FALSE,,,,,,,,,,,,,,,,,,,,,,,,,,,,,,,
,60f42a8f3227170449843be7,627c705547edda09226114b5,2022-05-12_04h22.27.195,classification_task,2021.2.3,Win32,59.91970759,627c6715c52fd12f31907bd0,,,,,,,,,,,,,,,,,,,,,,,a,1,2.5727,"[""0.680"",""0.360"",""0.849"",""0.945""]","[0,1,1,1]",0,25,25,25,1,0,1,,,0,FALSE,,,,,,,,,,,,,,,,,,,,,,,,,,,,,,,
,60f42a8f3227170449843be7,627c705547edda09226114b5,2022-05-12_04h22.27.195,classification_task,2021.2.3,Win32,59.91970759,627c6715c52fd12f31907bd0,,,,,,,,,,,,,,,,,,,,,,,a,1,1.1689,"[""0.221"",""0.360"",""0.849"",""0.540""]","[1,1,1,0]",0,26,26,26,1,0,1,,,0,FALSE,,,,,,,,,,,,,,,,,,,,,,,,,,,,,,,
,60f42a8f3227170449843be7,627c705547edda09226114b5,2022-05-12_04h22.27.195,classification_task,2021.2.3,Win32,59.91970759,627c6715c52fd12f31907bd0,,,,,,,,,,,,,,,,,,,,,,,a,0,1.6157,"[""0.545"",""0.123"",""0.502"",""0.788""]","[0,1,1,1]",0,27,27,27,1,1,1,,,0,FALSE,,,,,,,,,,,,,,,,,,,,,,,,,,,,,,,
,60f42a8f3227170449843be7,627c705547edda09226114b5,2022-05-12_04h22.27.195,classification_task,2021.2.3,Win32,59.91970759,627c6715c52fd12f31907bd0,,,,,,,,,,,,,,,,,,,,,,,a,1,0.8697,"[""0.221"",""0.360"",""0.316"",""0.945""]","[1,1,0,1]",0,28,28,28,1,0,1,,,0,FALSE,,,,,,,,,,,,,,,,,,,,,,,,,,,,,,,
,60f42a8f3227170449843be7,627c705547edda09226114b5,2022-05-12_04h22.27.195,classification_task,2021.2.3,Win32,59.91970759,627c6715c52fd12f31907bd0,,,,,,,,,,,,,,,,,,,,,,,a,1,1.1457,"[""0.170"",""0.415"",""0.316"",""0.908""]","[1,1,0,1]",0,29,29,29,1,0,0,,,0,FALSE,,,,,,,,,,,,,,,,,,,,,,,,,,,,,,,
,60f42a8f3227170449843be7,627c705547edda09226114b5,2022-05-12_04h22.27.195,classification_task,2021.2.3,Win32,59.91970759,627c6715c52fd12f31907bd0,,,,,,,,,,,,,,,,,,,,,,,l,1,0.9435,"[""0.079"",""0.680"",""0.582"",""0.735""]","[1,0,1,1]",0,30,30,30,1,1,0,,,0,FALSE,,,,,,,,,,,,,,,,,,,,,,,,,,,,,,,
,60f42a8f3227170449843be7,627c705547edda09226114b5,2022-05-12_04h22.27.195,classification_task,2021.2.3,Win32,59.91970759,627c6715c52fd12f31907bd0,,,,,,,,,,,,,,,,,,,,,,,l,1,2.1586,"[""0.028"",""0.123"",""0.686"",""0.788""]","[1,1,0,1]",0,31,31,31,1,1,1,,,0,FALSE,,,,,,,,,,,,,,,,,,,,,,,,,,,,,,,
,60f42a8f3227170449843be7,627c705547edda09226114b5,2022-05-12_04h22.27.195,classification_task,2021.2.3,Win32,59.91970759,627c6715c52fd12f31907bd0,,,,,,,,,,,,,,,,,,,,,,,l,1,1.5255,"[""0.028"",""0.123"",""0.502"",""0.677""]","[1,1,1,0]",0,32,32,32,1,1,1,,,0,FALSE,,,,,,,,,,,,,,,,,,,,,,,,,,,,,,,
,60f42a8f3227170449843be7,627c705547edda09226114b5,2022-05-12_04h22.27.195,classification_task,2021.2.3,Win32,59.91970759,627c6715c52fd12f31907bd0,,,,,,,,,,,,,,,,,,,,,,,a,1,2.0073,"[""0.170"",""0.415"",""0.636"",""0.672""]","[1,1,1,0]",0,33,33,33,1,0,0,,,0,FALSE,,,,,,,,,,,,,,,,,,,,,,,,,,,,,,,
,60f42a8f3227170449843be7,627c705547edda09226114b5,2022-05-12_04h22.27.195,classification_task,2021.2.3,Win32,59.91970759,627c6715c52fd12f31907bd0,,,,,,,,,,,,,,,,,,,,,,,a,1,0.8279,"[""0.170"",""0.415"",""0.677"",""0.908""]","[1,1,0,1]",0,34,34,34,1,0,0,,,0,FALSE,,,,,,,,,,,,,,,,,,,,,,,,,,,,,,,
,60f42a8f3227170449843be7,627c705547edda09226114b5,2022-05-12_04h22.27.195,classification_task,2021.2.3,Win32,59.91970759,627c6715c52fd12f31907bd0,,,,,,,,,,,,,,,,,,,,,,,l,1,0.8532,"[""0.079"",""0.316"",""0.582"",""0.735""]","[1,0,1,1]",0,35,35,35,1,1,0,,,0,FALSE,,,,,,,,,,,,,,,,,,,,,,,,,,,,,,,
,60f42a8f3227170449843be7,627c705547edda09226114b5,2022-05-12_04h22.27.195,classification_task,2021.2.3,Win32,59.91970759,627c6715c52fd12f31907bd0,,,,,,,,,,,,,,,,,,,,,,,l,1,1.1405,"[""0.079"",""0.282"",""0.688"",""0.735""]","[1,1,0,1]",0,36,36,36,1,1,0,,,0,FALSE,,,,,,,,,,,,,,,,,,,,,,,,,,,,,,,
,60f42a8f3227170449843be7,627c705547edda09226114b5,2022-05-12_04h22.27.195,classification_task,2021.2.3,Win32,59.91970759,627c6715c52fd12f31907bd0,,,,,,,,,,,,,,,,,,,,,,,l,1,1.2539,"[""0.028"",""0.123"",""0.686"",""0.788""]","[1,1,0,1]",0,37,37,37,1,1,1,,,0,FALSE,,,,,,,,,,,,,,,,,,,,,,,,,,,,,,,
,60f42a8f3227170449843be7,627c705547edda09226114b5,2022-05-12_04h22.27.195,classification_task,2021.2.3,Win32,59.91970759,627c6715c52fd12f31907bd0,,,,,,,,,,,,,,,,,,,,,,,l,1,0.7868,"[""0.536"",""0.282"",""0.582"",""0.735""]","[0,1,1,1]",0,38,38,38,1,1,0,,,0,FALSE,,,,,,,,,,,,,,,,,,,,,,,,,,,,,,,
,60f42a8f3227170449843be7,627c705547edda09226114b5,2022-05-12_04h22.27.195,classification_task,2021.2.3,Win32,59.91970759,627c6715c52fd12f31907bd0,,,,,,,,,,,,,,,,,,,,,,,a,1,0.7061,"[""0.688"",""0.415"",""0.636"",""0.908""]","[0,1,1,1]",0,39,39,39,1,0,0,,,0,FALSE,,,,,,,,,,,,,,,,,,,,,,,,,,,,,,,
,60f42a8f3227170449843be7,627c705547edda09226114b5,2022-05-12_04h22.27.195,classification_task,2021.2.3,Win32,59.91970759,627c6715c52fd12f31907bd0,,,,,,,,,,,,,,,,,,,,,,,a,0,1.1969,"[""0.691"",""0.123"",""0.502"",""0.788""]","[0,1,1,1]",0,40,40,40,1,1,1,,,0,FALSE,,,,,,,,,,,,,,,,,,,,,,,,,,,,,,,
,60f42a8f3227170449843be7,627c705547edda09226114b5,2022-05-12_04h22.27.195,classification_task,2021.2.3,Win32,59.91970759,627c6715c52fd12f31907bd0,,,,,,,,,,,,,,,,,,,,,,,l,1,1.0089,"[""0.028"",""0.536"",""0.502"",""0.788""]","[1,0,1,1]",0,41,41,41,1,1,1,,,0,FALSE,,,,,,,,,,,,,,,,,,,,,,,,,,,,,,,
,60f42a8f3227170449843be7,627c705547edda09226114b5,2022-05-12_04h22.27.195,classification_task,2021.2.3,Win32,59.91970759,627c6715c52fd12f31907bd0,,,,,,,,,,,,,,,,,,,,,,,a,1,0.8152,"[""0.536"",""0.360"",""0.849"",""0.945""]","[0,1,1,1]",0,42,42,42,1,0,1,,,0,FALSE,,,,,,,,,,,,,,,,,,,,,,,,,,,,,,,
,60f42a8f3227170449843be7,627c705547edda09226114b5,2022-05-12_04h22.27.195,classification_task,2021.2.3,Win32,59.91970759,627c6715c52fd12f31907bd0,,,,,,,,,,,,,,,,,,,,,,,a,1,0.8829,"[""0.221"",""0.360"",""0.545"",""0.945""]","[1,1,0,1]",0,43,43,43,1,0,1,,,0,FALSE,,,,,,,,,,,,,,,,,,,,,,,,,,,,,,,
,60f42a8f3227170449843be7,627c705547edda09226114b5,2022-05-12_04h22.27.195,classification_task,2021.2.3,Win32,59.91970759,627c6715c52fd12f31907bd0,,,,,,,,,,,,,,,,,,,,,,,l,1,0.9503,"[""0.079"",""0.282"",""0.582"",""0.466""]","[1,1,1,0]",0,44,44,44,1,1,0,,,0,FALSE,,,,,,,,,,,,,,,,,,,,,,,,,,,,,,,
,60f42a8f3227170449843be7,627c705547edda09226114b5,2022-05-12_04h22.27.195,classification_task,2021.2.3,Win32,59.91970759,627c6715c52fd12f31907bd0,,,,,,,,,,,,,,,,,,,,,,,a,1,0.8277,"[""0.221"",""0.360"",""0.849"",""0.674""]","[1,1,1,0]",0,45,45,45,1,0,1,,,0,FALSE,,,,,,,,,,,,,,,,,,,,,,,,,,,,,,,
,60f42a8f3227170449843be7,627c705547edda09226114b5,2022-05-12_04h22.27.195,classification_task,2021.2.3,Win32,59.91970759,627c6715c52fd12f31907bd0,,,,,,,,,,,,,,,,,,,,,,,a,1,1.2049,"[""0.170"",""0.548"",""0.636"",""0.908""]","[1,0,1,1]",0,46,46,46,1,0,0,,,0,FALSE,,,,,,,,,,,,,,,,,,,,,,,,,,,,,,,
,60f42a8f3227170449843be7,627c705547edda09226114b5,2022-05-12_04h22.27.195,classification_task,2021.2.3,Win32,59.91970759,627c6715c52fd12f31907bd0,,,,,,,,,,,,,,,,,,,,,,,a,1,0.8278,"[""0.221"",""0.674"",""0.849"",""0.945""]","[1,0,1,1]",0,47,47,47,1,0,1,,,0,FALSE,,,,,,,,,,,,,,,,,,,,,,,,,,,,,,,
,60f42a8f3227170449843be7,627c705547edda09226114b5,2022-05-12_04h22.27.195,classification_task,2021.2.3,Win32,59.91970759,627c6715c52fd12f31907bd0,,,,,,,,,,,,,,,,,,,,,,,a,0,1.0293,"[""0.536"",""0.282"",""0.582"",""0.735""]","[0,1,1,1]",0,48,48,48,1,1,0,,,0,FALSE,,,,,,,,,,,,,,,,,,,,,,,,,,,,,,,
,60f42a8f3227170449843be7,627c705547edda09226114b5,2022-05-12_04h22.27.195,classification_task,2021.2.3,Win32,59.91970759,627c6715c52fd12f31907bd0,,,,,,,,,,,,,,,,,,,,,,,l,0,1.7914,"[""0.170"",""0.415"",""0.316"",""0.908""]","[1,1,0,1]",0,49,49,49,1,0,0,,,0,FALSE,,,,,,,,,,,,,,,,,,,,,,,,,,,,,,,
,60f42a8f3227170449843be7,627c705547edda09226114b5,2022-05-12_04h22.27.195,classification_task,2021.2.3,Win32,59.91970759,627c6715c52fd12f31907bd0,,,,,,,,,,,,,,,,,,,,,,,a,1,1.1273,"[""0.170"",""0.415"",""0.636"",""0.677""]","[1,1,1,0]",0,50,50,50,1,0,0,,,0,FALSE,,,,,,,,,,,,,,,,,,,,,,,,,,,,,,,
,60f42a8f3227170449843be7,627c705547edda09226114b5,2022-05-12_04h22.27.195,classification_task,2021.2.3,Win32,59.91970759,627c6715c52fd12f31907bd0,,,,,,,,,,,,,,,,,,,,,,,l,1,0.8445,"[""0.028"",""0.123"",""0.674"",""0.788""]","[1,1,0,1]",0,51,51,51,1,1,1,,,0,FALSE,,,,,,,,,,,,,,,,,,,,,,,,,,,,,,,
,60f42a8f3227170449843be7,627c705547edda09226114b5,2022-05-12_04h22.27.195,classification_task,2021.2.3,Win32,59.91970759,627c6715c52fd12f31907bd0,,,,,,,,,,,,,,,,,,,,,,,l,1,1.7608,"[""0.079"",""0.282"",""0.582"",""0.677""]","[1,1,1,0]",0,52,52,52,1,1,0,,,0,FALSE,,,,,,,,,,,,,,,,,,,,,,,,,,,,,,,
,60f42a8f3227170449843be7,627c705547edda09226114b5,2022-05-12_04h22.27.195,classification_task,2021.2.3,Win32,59.91970759,627c6715c52fd12f31907bd0,,,,,,,,,,,,,,,,,,,,,,,l,1,1.3375,"[""0.672"",""0.123"",""0.502"",""0.788""]","[0,1,1,1]",0,53,53,53,1,1,1,,,0,FALSE,,,,,,,,,,,,,,,,,,,,,,,,,,,,,,,
,60f42a8f3227170449843be7,627c705547edda09226114b5,2022-05-12_04h22.27.195,classification_task,2021.2.3,Win32,59.91970759,627c6715c52fd12f31907bd0,,,,,,,,,,,,,,,,,,,,,,,l,1,1.4055,"[""0.079"",""0.282"",""0.536"",""0.735""]","[1,1,0,1]",0,54,54,54,1,1,0,,,0,FALSE,,,,,,,,,,,,,,,,,,,,,,,,,,,,,,,
,60f42a8f3227170449843be7,627c705547edda09226114b5,2022-05-12_04h22.27.195,classification_task,2021.2.3,Win32,59.91970759,627c6715c52fd12f31907bd0,,,,,,,,,,,,,,,,,,,,,,,a,1,0.8817,"[""0.221"",""0.360"",""0.691"",""0.945""]","[1,1,0,1]",0,55,55,55,1,0,1,,,0,FALSE,,,,,,,,,,,,,,,,,,,,,,,,,,,,,,,
,60f42a8f3227170449843be7,627c705547edda09226114b5,2022-05-12_04h22.27.195,classification_task,2021.2.3,Win32,59.91970759,627c6715c52fd12f31907bd0,,,,,,,,,,,,,,,,,,,,,,,l,1,1.3107,"[""0.028"",""0.540"",""0.502"",""0.788""]","[1,0,1,1]",0,56,56,56,1,1,1,,,0,FALSE,,,,,,,,,,,,,,,,,,,,,,,,,,,,,,,
,60f42a8f3227170449843be7,627c705547edda09226114b5,2022-05-12_04h22.27.195,classification_task,2021.2.3,Win32,59.91970759,627c6715c52fd12f31907bd0,,,,,,,,,,,,,,,,,,,,,,,l,1,1.2459,"[""0.028"",""0.123"",""0.502"",""0.316""]","[1,1,1,0]",0,57,57,57,1,1,1,,,0,FALSE,,,,,,,,,,,,,,,,,,,,,,,,,,,,,,,
,60f42a8f3227170449843be7,627c705547edda09226114b5,2022-05-12_04h22.27.195,classification_task,2021.2.3,Win32,59.91970759,627c6715c52fd12f31907bd0,,,,,,,,,,,,,,,,,,,,,,,l,0,1.1784,"[""0.672"",""0.360"",""0.849"",""0.945""]","[0,1,1,1]",0,58,58,58,1,0,1,,,0,FALSE,,,,,,,,,,,,,,,,,,,,,,,,,,,,,,,
,60f42a8f3227170449843be7,627c705547edda09226114b5,2022-05-12_04h22.27.195,classification_task,2021.2.3,Win32,59.91970759,627c6715c52fd12f31907bd0,,,,,,,,,,,,,,,,,,,,,,,l,1,1.3473,"[""0.079"",""0.540"",""0.582"",""0.735""]","[1,0,1,1]",0,59,59,59,1,1,0,,,0,FALSE,,,,,,,,,,,,,,,,,,,,,,,,,,,,,,,
,60f42a8f3227170449843be7,627c705547edda09226114b5,2022-05-12_04h22.27.195,classification_task,2021.2.3,Win32,59.91970759,627c6715c52fd12f31907bd0,,,,,,,,,,,,,,,,,,,,,,,a,1,1.2676,"[""0.548"",""0.415"",""0.636"",""0.908""]","[0,1,1,1]",0,60,60,60,1,0,0,,,0,FALSE,,,,,,,,,,,,,,,,,,,,,,,,,,,,,,,
,60f42a8f3227170449843be7,627c705547edda09226114b5,2022-05-12_04h22.27.195,classification_task,2021.2.3,Win32,59.91970759,627c6715c52fd12f31907bd0,,,,,,,,,,,,,,,,,,,,,,,l,0,1.0618,"[""0.170"",""0.674"",""0.636"",""0.908""]","[1,0,1,1]",0,61,61,61,1,0,0,,,0,FALSE,,,,,,,,,,,,,,,,,,,,,,,,,,,,,,,
,60f42a8f3227170449843be7,627c705547edda09226114b5,2022-05-12_04h22.27.195,classification_task,2021.2.3,Win32,59.91970759,627c6715c52fd12f31907bd0,,,,,,,,,,,,,,,,,,,,,,,a,1,0.9899,"[""0.221"",""0.674"",""0.849"",""0.945""]","[1,0,1,1]",0,62,62,62,1,0,1,,,0,FALSE,,,,,,,,,,,,,,,,,,,,,,,,,,,,,,,
,60f42a8f3227170449843be7,627c705547edda09226114b5,2022-05-12_04h22.27.195,classification_task,2021.2.3,Win32,59.91970759,627c6715c52fd12f31907bd0,,,,,,,,,,,,,,,,,,,,,,,a,1,0.9363,"[""0.221"",""0.360"",""0.849"",""0.677""]","[1,1,1,0]",0,63,63,63,1,0,1,,,0,FALSE,,,,,,,,,,,,,,,,,,,,,,,,,,,,,,,
,60f42a8f3227170449843be7,627c705547edda09226114b5,2022-05-12_04h22.27.195,classification_task,2021.2.3,Win32,59.91970759,627c6715c52fd12f31907bd0,,,,,,,,,,,,,,,,,,,,,,,,,,,,,,,,,,,,,,,0, ,,0,4.246767355,185.0824,0,1,1,1,1,2,2,,,,,,,,,,,,,,,,,,
,60f42a8f3227170449843be7,627c705547edda09226114b5,2022-05-12_04h22.27.195,classification_task,2021.2.3,Win32,59.91970759,627c6715c52fd12f31907bd0,,,,,,,,,,,,,,,,,,,,,,,,,,,,,,,,,,,,,,,1,  ,,0,4.883647248,188.3478,0,1,1,1,1,2,2,,,,,,,,,,,,,,,,,,
,60f42a8f3227170449843be7,627c705547edda09226114b5,2022-05-12_04h22.27.195,classification_task,2021.2.3,Win32,59.91970759,627c6715c52fd12f31907bd0,,,,,,,,,,,,,,,,,,,,,,,,,,,,,,,,,,,,,,,2,  ,,0,3.658877505,191.1115,0,1,1,1,1,2,2,,,,,,,,,,,,,,,,,,
,60f42a8f3227170449843be7,627c705547edda09226114b5,2022-05-12_04h22.27.195,classification_task,2021.2.3,Win32,59.91970759,627c6715c52fd12f31907bd0,,,,,,,,,,,,,,,,,,,,,,,,,,,,,,,,,,,,,,,,,,,,,0,1,1,1,1,,2,,,,,,,,,,,,,,,,,,
,60f42a8f3227170449843be7,627c705547edda09226114b5,2022-05-12_04h22.27.195,classification_task,2021.2.3,Win32,59.91970759,627c6715c52fd12f31907bd0,,,,,,,,,,,,,,,,,,,,,space,11.5034,l,1,1.4776,"[""0.028"",""0.123"",""0.677"",""0.788""]","[1,1,0,1]",0,0,0,0,1,1,1,,,0,FALSE,,,,,,,,,,,,,,,,,,,,,,,,,,,,,,,
,60f42a8f3227170449843be7,627c705547edda09226114b5,2022-05-12_04h22.27.195,classification_task,2021.2.3,Win32,59.91970759,627c6715c52fd12f31907bd0,,,,,,,,,,,,,,,,,,,,,,,l,1,1.5748,"[""0.079"",""0.688"",""0.582"",""0.735""]","[1,0,1,1]",0,1,1,1,1,1,0,,,0,FALSE,,,,,,,,,,,,,,,,,,,,,,,,,,,,,,,
,60f42a8f3227170449843be7,627c705547edda09226114b5,2022-05-12_04h22.27.195,classification_task,2021.2.3,Win32,59.91970759,627c6715c52fd12f31907bd0,,,,,,,,,,,,,,,,,,,,,,,a,1,0.9586,"[""0.221"",""0.360"",""0.536"",""0.945""]","[1,1,0,1]",0,2,2,2,1,0,1,,,0,FALSE,,,,,,,,,,,,,,,,,,,,,,,,,,,,,,,
,60f42a8f3227170449843be7,627c705547edda09226114b5,2022-05-12_04h22.27.195,classification_task,2021.2.3,Win32,59.91970759,627c6715c52fd12f31907bd0,,,,,,,,,,,,,,,,,,,,,,,l,1,0.7877,"[""0.028"",""0.123"",""0.502"",""0.316""]","[1,1,1,0]",0,3,3,3,1,1,1,,,0,FALSE,,,,,,,,,,,,,,,,,,,,,,,,,,,,,,,
,60f42a8f3227170449843be7,627c705547edda09226114b5,2022-05-12_04h22.27.195,classification_task,2021.2.3,Win32,59.91970759,627c6715c52fd12f31907bd0,,,,,,,,,,,,,,,,,,,,,,,a,0,1.1382,"[""0.691"",""0.282"",""0.582"",""0.735""]","[0,1,1,1]",0,4,4,4,1,1,0,,,0,FALSE,,,,,,,,,,,,,,,,,,,,,,,,,,,,,,,
,60f42a8f3227170449843be7,627c705547edda09226114b5,2022-05-12_04h22.27.195,classification_task,2021.2.3,Win32,59.91970759,627c6715c52fd12f31907bd0,,,,,,,,,,,,,,,,,,,,,,,l,1,1.2177,"[""0.028"",""0.677"",""0.502"",""0.788""]","[1,0,1,1]",0,5,5,5,1,1,1,,,0,FALSE,,,,,,,,,,,,,,,,,,,,,,,,,,,,,,,
,60f42a8f3227170449843be7,627c705547edda09226114b5,2022-05-12_04h22.27.195,classification_task,2021.2.3,Win32,59.91970759,627c6715c52fd12f31907bd0,,,,,,,,,,,,,,,,,,,,,,,a,1,2.027,"[""0.170"",""0.415"",""0.636"",""0.545""]","[1,1,1,0]",0,6,6,6,1,0,0,,,0,FALSE,,,,,,,,,,,,,,,,,,,,,,,,,,,,,,,
,60f42a8f3227170449843be7,627c705547edda09226114b5,2022-05-12_04h22.27.195,classification_task,2021.2.3,Win32,59.91970759,627c6715c52fd12f31907bd0,,,,,,,,,,,,,,,,,,,,,,,a,1,2.0457,"[""0.170"",""0.316"",""0.636"",""0.908""]","[1,0,1,1]",0,7,7,7,1,0,0,,,0,FALSE,,,,,,,,,,,,,,,,,,,,,,,,,,,,,,,
,60f42a8f3227170449843be7,627c705547edda09226114b5,2022-05-12_04h22.27.195,classification_task,2021.2.3,Win32,59.91970759,627c6715c52fd12f31907bd0,,,,,,,,,,,,,,,,,,,,,,,a,1,0.8212,"[""0.221"",""0.360"",""0.849"",""0.462""]","[1,1,1,0]",0,8,8,8,1,0,1,,,0,FALSE,,,,,,,,,,,,,,,,,,,,,,,,,,,,,,,
,60f42a8f3227170449843be7,627c705547edda09226114b5,2022-05-12_04h22.27.195,classification_task,2021.2.3,Win32,59.91970759,627c6715c52fd12f31907bd0,,,,,,,,,,,,,,,,,,,,,,,a,1,1.4968,"[""0.536"",""0.415"",""0.636"",""0.908""]","[0,1,1,1]",0,9,9,9,1,0,0,,,0,FALSE,,,,,,,,,,,,,,,,,,,,,,,,,,,,,,,
,60f42a8f3227170449843be7,627c705547edda09226114b5,2022-05-12_04h22.27.195,classification_task,2021.2.3,Win32,59.91970759,627c6715c52fd12f31907bd0,,,,,,,,,,,,,,,,,,,,,,,l,1,0.7702,"[""0.079"",""0.282"",""0.582"",""0.680""]","[1,1,1,0]",0,10,10,10,1,1,0,,,0,FALSE,,,,,,,,,,,,,,,,,,,,,,,,,,,,,,,
,60f42a8f3227170449843be7,627c705547edda09226114b5,2022-05-12_04h22.27.195,classification_task,2021.2.3,Win32,59.91970759,627c6715c52fd12f31907bd0,,,,,,,,,,,,,,,,,,,,,,,l,1,0.6389,"[""0.079"",""0.282"",""0.536"",""0.735""]","[1,1,0,1]",0,11,11,11,1,1,0,,,0,FALSE,,,,,,,,,,,,,,,,,,,,,,,,,,,,,,,
,60f42a8f3227170449843be7,627c705547edda09226114b5,2022-05-12_04h22.27.195,classification_task,2021.2.3,Win32,59.91970759,627c6715c52fd12f31907bd0,,,,,,,,,,,,,,,,,,,,,,,l,0,1.9335,"[""0.170"",""0.415"",""0.691"",""0.908""]","[1,1,0,1]",0,12,12,12,1,0,0,,,0,FALSE,,,,,,,,,,,,,,,,,,,,,,,,,,,,,,,
,60f42a8f3227170449843be7,627c705547edda09226114b5,2022-05-12_04h22.27.195,classification_task,2021.2.3,Win32,59.91970759,627c6715c52fd12f31907bd0,,,,,,,,,,,,,,,,,,,,,,,a,1,1.3909,"[""0.548"",""0.360"",""0.849"",""0.945""]","[0,1,1,1]",0,13,13,13,1,0,1,,,0,FALSE,,,,,,,,,,,,,,,,,,,,,,,,,,,,,,,
,60f42a8f3227170449843be7,627c705547edda09226114b5,2022-05-12_04h22.27.195,classification_task,2021.2.3,Win32,59.91970759,627c6715c52fd12f31907bd0,,,,,,,,,,,,,,,,,,,,,,,a,1,0.7765,"[""0.221"",""0.680"",""0.849"",""0.945""]","[1,0,1,1]",0,14,14,14,1,0,1,,,0,FALSE,,,,,,,,,,,,,,,,,,,,,,,,,,,,,,,
,60f42a8f3227170449843be7,627c705547edda09226114b5,2022-05-12_04h22.27.195,classification_task,2021.2.3,Win32,59.91970759,627c6715c52fd12f31907bd0,,,,,,,,,,,,,,,,,,,,,,,l,1,1.8896,"[""0.680"",""0.123"",""0.502"",""0.788""]","[0,1,1,1]",0,15,15,15,1,1,1,,,0,FALSE,,,,,,,,,,,,,,,,,,,,,,,,,,,,,,,
,60f42a8f3227170449843be7,627c705547edda09226114b5,2022-05-12_04h22.27.195,classification_task,2021.2.3,Win32,59.91970759,627c6715c52fd12f31907bd0,,,,,,,,,,,,,,,,,,,,,,,a,1,1.6625,"[""0.170"",""0.316"",""0.636"",""0.908""]","[1,0,1,1]",0,16,16,16,1,0,0,,,0,FALSE,,,,,,,,,,,,,,,,,,,,,,,,,,,,,,,
,60f42a8f3227170449843be7,627c705547edda09226114b5,2022-05-12_04h22.27.195,classification_task,2021.2.3,Win32,59.91970759,627c6715c52fd12f31907bd0,,,,,,,,,,,,,,,,,,,,,,,a,1,1.5659,"[""0.674"",""0.415"",""0.636"",""0.908""]","[0,1,1,1]",0,17,17,17,1,0,0,,,0,FALSE,,,,,,,,,,,,,,,,,,,,,,,,,,,,,,,
,60f42a8f3227170449843be7,627c705547edda09226114b5,2022-05-12_04h22.27.195,classification_task,2021.2.3,Win32,59.91970759,627c6715c52fd12f31907bd0,,,,,,,,,,,,,,,,,,,,,,,l,1,1.3814,"[""0.674"",""0.123"",""0.502"",""0.788""]","[0,1,1,1]",0,18,18,18,1,1,1,,,0,FALSE,,,,,,,,,,,,,,,,,,,,,,,,,,,,,,,
,60f42a8f3227170449843be7,627c705547edda09226114b5,2022-05-12_04h22.27.195,classification_task,2021.2.3,Win32,59.91970759,627c6715c52fd12f31907bd0,,,,,,,,,,,,,,,,,,,,,,,l,1,0.7842,"[""0.028"",""0.691"",""0.502"",""0.788""]","[1,0,1,1]",0,19,19,19,1,1,1,,,0,FALSE,,,,,,,,,,,,,,,,,,,,,,,,,,,,,,,
,60f42a8f3227170449843be7,627c705547edda09226114b5,2022-05-12_04h22.27.195,classification_task,2021.2.3,Win32,59.91970759,627c6715c52fd12f31907bd0,,,,,,,,,,,,,,,,,,,,,,,l,1,0.9733,"[""0.028"",""0.123"",""0.677"",""0.788""]","[1,1,0,1]",0,20,20,20,1,1,1,,,0,FALSE,,,,,,,,,,,,,,,,,,,,,,,,,,,,,,,
,60f42a8f3227170449843be7,627c705547edda09226114b5,2022-05-12_04h22.27.195,classification_task,2021.2.3,Win32,59.91970759,627c6715c52fd12f31907bd0,,,,,,,,,,,,,,,,,,,,,,,a,0,1.9648,"[""0.674"",""0.282"",""0.582"",""0.735""]","[0,1,1,1]",0,21,21,21,1,1,0,,,0,FALSE,,,,,,,,,,,,,,,,,,,,,,,,,,,,,,,
,60f42a8f3227170449843be7,627c705547edda09226114b5,2022-05-12_04h22.27.195,classification_task,2021.2.3,Win32,59.91970759,627c6715c52fd12f31907bd0,,,,,,,,,,,,,,,,,,,,,,,a,1,0.6349,"[""0.221"",""0.360"",""0.462"",""0.945""]","[1,1,0,1]",0,22,22,22,1,0,1,,,0,FALSE,,,,,,,,,,,,,,,,,,,,,,,,,,,,,,,
,60f42a8f3227170449843be7,627c705547edda09226114b5,2022-05-12_04h22.27.195,classification_task,2021.2.3,Win32,59.91970759,627c6715c52fd12f31907bd0,,,,,,,,,,,,,,,,,,,,,,,l,1,1.5508,"[""0.079"",""0.282"",""0.582"",""0.536""]","[1,1,1,0]",0,23,23,23,1,1,0,,,0,FALSE,,,,,,,,,,,,,,,,,,,,,,,,,,,,,,,
,60f42a8f3227170449843be7,627c705547edda09226114b5,2022-05-12_04h22.27.195,classification_task,2021.2.3,Win32,59.91970759,627c6715c52fd12f31907bd0,,,,,,,,,,,,,,,,,,,,,,,a,1,0.8162,"[""0.221"",""0.360"",""0.849"",""0.688""]","[1,1,1,0]",0,24,24,24,1,0,1,,,0,FALSE,,,,,,,,,,,,,,,,,,,,,,,,,,,,,,,
,60f42a8f3227170449843be7,627c705547edda09226114b5,2022-05-12_04h22.27.195,classification_task,2021.2.3,Win32,59.91970759,627c6715c52fd12f31907bd0,,,,,,,,,,,,,,,,,,,,,,,l,1,0.9679,"[""0.028"",""0.123"",""0.502"",""0.686""]","[1,1,1,0]",0,25,25,25,1,1,1,,,0,FALSE,,,,,,,,,,,,,,,,,,,,,,,,,,,,,,,
,60f42a8f3227170449843be7,627c705547edda09226114b5,2022-05-12_04h22.27.195,classification_task,2021.2.3,Win32,59.91970759,627c6715c52fd12f31907bd0,,,,,,,,,,,,,,,,,,,,,,,l,0,0.7451,"[""0.170"",""0.415"",""0.672"",""0.908""]","[1,1,0,1]",0,26,26,26,1,0,0,,,0,FALSE,,,,,,,,,,,,,,,,,,,,,,,,,,,,,,,
,60f42a8f3227170449843be7,627c705547edda09226114b5,2022-05-12_04h22.27.195,classification_task,2021.2.3,Win32,59.91970759,627c6715c52fd12f31907bd0,,,,,,,,,,,,,,,,,,,,,,,l,1,0.6935,"[""0.079"",""0.548"",""0.582"",""0.735""]","[1,0,1,1]",0,27,27,27,1,1,0,,,0,FALSE,,,,,,,,,,,,,,,,,,,,,,,,,,,,,,,
,60f42a8f3227170449843be7,627c705547edda09226114b5,2022-05-12_04h22.27.195,classification_task,2021.2.3,Win32,59.91970759,627c6715c52fd12f31907bd0,,,,,,,,,,,,,,,,,,,,,,,l,1,1.1264,"[""0.079"",""0.282"",""0.680"",""0.735""]","[1,1,0,1]",0,28,28,28,1,1,0,,,0,FALSE,,,,,,,,,,,,,,,,,,,,,,,,,,,,,,,
,60f42a8f3227170449843be7,627c705547edda09226114b5,2022-05-12_04h22.27.195,classification_task,2021.2.3,Win32,59.91970759,627c6715c52fd12f31907bd0,,,,,,,,,,,,,,,,,,,,,,,l,0,1.277,"[""0.170"",""0.415"",""0.636"",""0.677""]","[1,1,1,0]",0,29,29,29,1,0,0,,,0,FALSE,,,,,,,,,,,,,,,,,,,,,,,,,,,,,,,
,60f42a8f3227170449843be7,627c705547edda09226114b5,2022-05-12_04h22.27.195,classification_task,2021.2.3,Win32,59.91970759,627c6715c52fd12f31907bd0,,,,,,,,,,,,,,,,,,,,,,,a,1,0.7613,"[""0.221"",""0.316"",""0.849"",""0.945""]","[1,0,1,1]",0,30,30,30,1,0,1,,,0,FALSE,,,,,,,,,,,,,,,,,,,,,,,,,,,,,,,
,60f42a8f3227170449843be7,627c705547edda09226114b5,2022-05-12_04h22.27.195,classification_task,2021.2.3,Win32,59.91970759,627c6715c52fd12f31907bd0,,,,,,,,,,,,,,,,,,,,,,,a,1,0.9035,"[""0.316"",""0.360"",""0.849"",""0.945""]","[0,1,1,1]",0,31,31,31,1,0,1,,,0,FALSE,,,,,,,,,,,,,,,,,,,,,,,,,,,,,,,
,60f42a8f3227170449843be7,627c705547edda09226114b5,2022-05-12_04h22.27.195,classification_task,2021.2.3,Win32,59.91970759,627c6715c52fd12f31907bd0,,,,,,,,,,,,,,,,,,,,,,,a,1,0.7461,"[""0.221"",""0.360"",""0.536"",""0.945""]","[1,1,0,1]",0,32,32,32,1,0,1,,,0,FALSE,,,,,,,,,,,,,,,,,,,,,,,,,,,,,,,
,60f42a8f3227170449843be7,627c705547edda09226114b5,2022-05-12_04h22.27.195,classification_task,2021.2.3,Win32,59.91970759,627c6715c52fd12f31907bd0,,,,,,,,,,,,,,,,,,,,,,,l,1,1.3328,"[""0.028"",""0.123"",""0.502"",""0.536""]","[1,1,1,0]",0,33,33,33,1,1,1,,,0,FALSE,,,,,,,,,,,,,,,,,,,,,,,,,,,,,,,
,60f42a8f3227170449843be7,627c705547edda09226114b5,2022-05-12_04h22.27.195,classification_task,2021.2.3,Win32,59.91970759,627c6715c52fd12f31907bd0,,,,,,,,,,,,,,,,,,,,,,,l,1,1.6164,"[""0.028"",""0.688"",""0.502"",""0.788""]","[1,0,1,1]",0,34,34,34,1,1,1,,,0,FALSE,,,,,,,,,,,,,,,,,,,,,,,,,,,,,,,
,60f42a8f3227170449843be7,627c705547edda09226114b5,2022-05-12_04h22.27.195,classification_task,2021.2.3,Win32,59.91970759,627c6715c52fd12f31907bd0,,,,,,,,,,,,,,,,,,,,,,,l,1,0.9423,"[""0.674"",""0.123"",""0.502"",""0.788""]","[0,1,1,1]",0,35,35,35,1,1,1,,,0,FALSE,,,,,,,,,,,,,,,,,,,,,,,,,,,,,,,
,60f42a8f3227170449843be7,627c705547edda09226114b5,2022-05-12_04h22.27.195,classification_task,2021.2.3,Win32,59.91970759,627c6715c52fd12f31907bd0,,,,,,,,,,,,,,,,,,,,,,,l,0,1.5019,"[""0.170"",""0.545"",""0.636"",""0.908""]","[1,0,1,1]",0,36,36,36,1,0,0,,,0,FALSE,,,,,,,,,,,,,,,,,,,,,,,,,,,,,,,
,60f42a8f3227170449843be7,627c705547edda09226114b5,2022-05-12_04h22.27.195,classification_task,2021.2.3,Win32,59.91970759,627c6715c52fd12f31907bd0,,,,,,,,,,,,,,,,,,,,,,,l,1,0.7767,"[""0.079"",""0.536"",""0.582"",""0.735""]","[1,0,1,1]",0,37,37,37,1,1,0,,,0,FALSE,,,,,,,,,,,,,,,,,,,,,,,,,,,,,,,
,60f42a8f3227170449843be7,627c705547edda09226114b5,2022-05-12_04h22.27.195,classification_task,2021.2.3,Win32,59.91970759,627c6715c52fd12f31907bd0,,,,,,,,,,,,,,,,,,,,,,,a,1,0.6713,"[""0.221"",""0.360"",""0.849"",""0.677""]","[1,1,1,0]",0,38,38,38,1,0,1,,,0,FALSE,,,,,,,,,,,,,,,,,,,,,,,,,,,,,,,
,60f42a8f3227170449843be7,627c705547edda09226114b5,2022-05-12_04h22.27.195,classification_task,2021.2.3,Win32,59.91970759,627c6715c52fd12f31907bd0,,,,,,,,,,,,,,,,,,,,,,,l,0,1.0722,"[""0.170"",""0.415"",""0.636"",""0.688""]","[1,1,1,0]",0,39,39,39,1,0,0,,,0,FALSE,,,,,,,,,,,,,,,,,,,,,,,,,,,,,,,
,60f42a8f3227170449843be7,627c705547edda09226114b5,2022-05-12_04h22.27.195,classification_task,2021.2.3,Win32,59.91970759,627c6715c52fd12f31907bd0,,,,,,,,,,,,,,,,,,,,,,,l,1,0.7161,"[""0.079"",""0.282"",""0.582"",""0.677""]","[1,1,1,0]",0,40,40,40,1,1,0,,,0,FALSE,,,,,,,,,,,,,,,,,,,,,,,,,,,,,,,
,60f42a8f3227170449843be7,627c705547edda09226114b5,2022-05-12_04h22.27.195,classification_task,2021.2.3,Win32,59.91970759,627c6715c52fd12f31907bd0,,,,,,,,,,,,,,,,,,,,,,,a,1,0.8327,"[""0.680"",""0.360"",""0.849"",""0.945""]","[0,1,1,1]",0,41,41,41,1,0,1,,,0,FALSE,,,,,,,,,,,,,,,,,,,,,,,,,,,,,,,
,60f42a8f3227170449843be7,627c705547edda09226114b5,2022-05-12_04h22.27.195,classification_task,2021.2.3,Win32,59.91970759,627c6715c52fd12f31907bd0,,,,,,,,,,,,,,,,,,,,,,,a,1,0.7223,"[""0.221"",""0.674"",""0.849"",""0.945""]","[1,0,1,1]",0,42,42,42,1,0,1,,,0,FALSE,,,,,,,,,,,,,,,,,,,,,,,,,,,,,,,
,60f42a8f3227170449843be7,627c705547edda09226114b5,2022-05-12_04h22.27.195,classification_task,2021.2.3,Win32,59.91970759,627c6715c52fd12f31907bd0,,,,,,,,,,,,,,,,,,,,,,,l,0,0.8255,"[""0.536"",""0.415"",""0.636"",""0.908""]","[0,1,1,1]",0,43,43,43,1,0,0,,,0,FALSE,,,,,,,,,,,,,,,,,,,,,,,,,,,,,,,
,60f42a8f3227170449843be7,627c705547edda09226114b5,2022-05-12_04h22.27.195,classification_task,2021.2.3,Win32,59.91970759,627c6715c52fd12f31907bd0,,,,,,,,,,,,,,,,,,,,,,,l,1,1.0008,"[""0.079"",""0.282"",""0.672"",""0.735""]","[1,1,0,1]",0,44,44,44,1,1,0,,,0,FALSE,,,,,,,,,,,,,,,,,,,,,,,,,,,,,,,
,60f42a8f3227170449843be7,627c705547edda09226114b5,2022-05-12_04h22.27.195,classification_task,2021.2.3,Win32,59.91970759,627c6715c52fd12f31907bd0,,,,,,,,,,,,,,,,,,,,,,,l,0,1.8331,"[""0.170"",""0.415"",""0.316"",""0.908""]","[1,1,0,1]",0,45,45,45,1,0,0,,,0,FALSE,,,,,,,,,,,,,,,,,,,,,,,,,,,,,,,
,60f42a8f3227170449843be7,627c705547edda09226114b5,2022-05-12_04h22.27.195,classification_task,2021.2.3,Win32,59.91970759,627c6715c52fd12f31907bd0,,,,,,,,,,,,,,,,,,,,,,,a,0,1.7442,"[""0.462"",""0.282"",""0.582"",""0.735""]","[0,1,1,1]",0,46,46,46,1,1,0,,,0,FALSE,,,,,,,,,,,,,,,,,,,,,,,,,,,,,,,
,60f42a8f3227170449843be7,627c705547edda09226114b5,2022-05-12_04h22.27.195,classification_task,2021.2.3,Win32,59.91970759,627c6715c52fd12f31907bd0,,,,,,,,,,,,,,,,,,,,,,,l,1,0.9274,"[""0.028"",""0.123"",""0.680"",""0.788""]","[1,1,0,1]",0,47,47,47,1,1,1,,,0,FALSE,,,,,,,,,,,,,,,,,,,,,,,,,,,,,,,
,60f42a8f3227170449843be7,627c705547edda09226114b5,2022-05-12_04h22.27.195,classification_task,2021.2.3,Win32,59.91970759,627c6715c52fd12f31907bd0,,,,,,,,,,,,,,,,,,,,,,,a,1,0.8371,"[""0.221"",""0.360"",""0.849"",""0.672""]","[1,1,1,0]",0,48,48,48,1,0,1,,,0,FALSE,,,,,,,,,,,,,,,,,,,,,,,,,,,,,,,
,60f42a8f3227170449843be7,627c705547edda09226114b5,2022-05-12_04h22.27.195,classification_task,2021.2.3,Win32,59.91970759,627c6715c52fd12f31907bd0,,,,,,,,,,,,,,,,,,,,,,,a,1,0.7888,"[""0.680"",""0.360"",""0.849"",""0.945""]","[0,1,1,1]",0,49,49,49,1,0,1,,,0,FALSE,,,,,,,,,,,,,,,,,,,,,,,,,,,,,,,
,60f42a8f3227170449843be7,627c705547edda09226114b5,2022-05-12_04h22.27.195,classification_task,2021.2.3,Win32,59.91970759,627c6715c52fd12f31907bd0,,,,,,,,,,,,,,,,,,,,,,,a,1,0.6533,"[""0.221"",""0.360"",""0.548"",""0.945""]","[1,1,0,1]",0,50,50,50,1,0,1,,,0,FALSE,,,,,,,,,,,,,,,,,,,,,,,,,,,,,,,
,60f42a8f3227170449843be7,627c705547edda09226114b5,2022-05-12_04h22.27.195,classification_task,2021.2.3,Win32,59.91970759,627c6715c52fd12f31907bd0,,,,,,,,,,,,,,,,,,,,,,,l,1,1.3935,"[""0.028"",""0.691"",""0.502"",""0.788""]","[1,0,1,1]",0,51,51,51,1,1,1,,,0,FALSE,,,,,,,,,,,,,,,,,,,,,,,,,,,,,,,
,60f42a8f3227170449843be7,627c705547edda09226114b5,2022-05-12_04h22.27.195,classification_task,2021.2.3,Win32,59.91970759,627c6715c52fd12f31907bd0,,,,,,,,,,,,,,,,,,,,,,,l,1,0.9251,"[""0.548"",""0.123"",""0.502"",""0.788""]","[0,1,1,1]",0,52,52,52,1,1,1,,,0,FALSE,,,,,,,,,,,,,,,,,,,,,,,,,,,,,,,
,60f42a8f3227170449843be7,627c705547edda09226114b5,2022-05-12_04h22.27.195,classification_task,2021.2.3,Win32,59.91970759,627c6715c52fd12f31907bd0,,,,,,,,,,,,,,,,,,,,,,,l,1,0.8922,"[""0.028"",""0.123"",""0.502"",""0.540""]","[1,1,1,0]",0,53,53,53,1,1,1,,,0,FALSE,,,,,,,,,,,,,,,,,,,,,,,,,,,,,,,
,60f42a8f3227170449843be7,627c705547edda09226114b5,2022-05-12_04h22.27.195,classification_task,2021.2.3,Win32,59.91970759,627c6715c52fd12f31907bd0,,,,,,,,,,,,,,,,,,,,,,,a,0,0.9945,"[""0.674"",""0.282"",""0.582"",""0.735""]","[0,1,1,1]",0,54,54,54,1,1,0,,,0,FALSE,,,,,,,,,,,,,,,,,,,,,,,,,,,,,,,
,60f42a8f3227170449843be7,627c705547edda09226114b5,2022-05-12_04h22.27.195,classification_task,2021.2.3,Win32,59.91970759,627c6715c52fd12f31907bd0,,,,,,,,,,,,,,,,,,,,,,,l,1,0.6388,"[""0.028"",""0.123"",""0.548"",""0.788""]","[1,1,0,1]",0,55,55,55,1,1,1,,,0,FALSE,,,,,,,,,,,,,,,,,,,,,,,,,,,,,,,
,60f42a8f3227170449843be7,627c705547edda09226114b5,2022-05-12_04h22.27.195,classification_task,2021.2.3,Win32,59.91970759,627c6715c52fd12f31907bd0,,,,,,,,,,,,,,,,,,,,,,,a,1,0.8333,"[""0.536"",""0.415"",""0.636"",""0.908""]","[0,1,1,1]",0,56,56,56,1,0,0,,,0,FALSE,,,,,,,,,,,,,,,,,,,,,,,,,,,,,,,
,60f42a8f3227170449843be7,627c705547edda09226114b5,2022-05-12_04h22.27.195,classification_task,2021.2.3,Win32,59.91970759,627c6715c52fd12f31907bd0,,,,,,,,,,,,,,,,,,,,,,,l,1,0.7285,"[""0.079"",""0.282"",""0.582"",""0.677""]","[1,1,1,0]",0,57,57,57,1,1,0,,,0,FALSE,,,,,,,,,,,,,,,,,,,,,,,,,,,,,,,
,60f42a8f3227170449843be7,627c705547edda09226114b5,2022-05-12_04h22.27.195,classification_task,2021.2.3,Win32,59.91970759,627c6715c52fd12f31907bd0,,,,,,,,,,,,,,,,,,,,,,,l,0,1.6255,"[""0.170"",""0.415"",""0.636"",""0.316""]","[1,1,1,0]",0,58,58,58,1,0,0,,,0,FALSE,,,,,,,,,,,,,,,,,,,,,,,,,,,,,,,
,60f42a8f3227170449843be7,627c705547edda09226114b5,2022-05-12_04h22.27.195,classification_task,2021.2.3,Win32,59.91970759,627c6715c52fd12f31907bd0,,,,,,,,,,,,,,,,,,,,,,,l,1,0.8265,"[""0.079"",""0.282"",""0.536"",""0.735""]","[1,1,0,1]",0,59,59,59,1,1,0,,,0,FALSE,,,,,,,,,,,,,,,,,,,,,,,,,,,,,,,
,60f42a8f3227170449843be7,627c705547edda09226114b5,2022-05-12_04h22.27.195,classification_task,2021.2.3,Win32,59.91970759,627c6715c52fd12f31907bd0,,,,,,,,,,,,,,,,,,,,,,,l,1,1.0012,"[""0.079"",""0.680"",""0.582"",""0.735""]","[1,0,1,1]",0,60,60,60,1,1,0,,,0,FALSE,,,,,,,,,,,,,,,,,,,,,,,,,,,,,,,
,60f42a8f3227170449843be7,627c705547edda09226114b5,2022-05-12_04h22.27.195,classification_task,2021.2.3,Win32,59.91970759,627c6715c52fd12f31907bd0,,,,,,,,,,,,,,,,,,,,,,,a,1,0.7884,"[""0.221"",""0.545"",""0.849"",""0.945""]","[1,0,1,1]",0,61,61,61,1,0,1,,,0,FALSE,,,,,,,,,,,,,,,,,,,,,,,,,,,,,,,
,60f42a8f3227170449843be7,627c705547edda09226114b5,2022-05-12_04h22.27.195,classification_task,2021.2.3,Win32,59.91970759,627c6715c52fd12f31907bd0,,,,,,,,,,,,,,,,,,,,,,,l,0,1.0609,"[""0.170"",""0.415"",""0.677"",""0.908""]","[1,1,0,1]",0,62,62,62,1,0,0,,,0,FALSE,,,,,,,,,,,,,,,,,,,,,,,,,,,,,,,
,60f42a8f3227170449843be7,627c705547edda09226114b5,2022-05-12_04h22.27.195,classification_task,2021.2.3,Win32,59.91970759,627c6715c52fd12f31907bd0,,,,,,,,,,,,,,,,,,,,,,,l,0,1.1862,"[""0.170"",""0.691"",""0.636"",""0.908""]","[1,0,1,1]",0,63,63,63,1,0,0,,,0,FALSE,,,,,,,,,,,,,,,,,,,,,,,,,,,,,,,
,60f42a8f3227170449843be7,627c705547edda09226114b5,2022-05-12_04h22.27.195,classification_task,2021.2.3,Win32,59.91970759,627c6715c52fd12f31907bd0,,,,,,,,,,,,,,,,,,,,,,,,,,,,,,,,,,,,,,,0, ,,0,3.756859458,154.5492,0,2,2,2,1,2,3,,,,,,,,,,,,,,,,,,
,60f42a8f3227170449843be7,627c705547edda09226114b5,2022-05-12_04h22.27.195,classification_task,2021.2.3,Win32,59.91970759,627c6715c52fd12f31907bd0,,,,,,,,,,,,,,,,,,,,,,,,,,,,,,,,,,,,,,,1,  ,,0,5.667499136,158.6284,0,2,2,2,1,2,3,,,,,,,,,,,,,,,,,,
,60f42a8f3227170449843be7,627c705547edda09226114b5,2022-05-12_04h22.27.195,classification_task,2021.2.3,Win32,59.91970759,627c6715c52fd12f31907bd0,,,,,,,,,,,,,,,,,,,,,,,,,,,,,,,,,,,,,,,2,  ,,0,5.716491047,162.0822,0,2,2,2,1,2,3,,,,,,,,,,,,,,,,,,
,60f42a8f3227170449843be7,627c705547edda09226114b5,2022-05-12_04h22.27.195,classification_task,2021.2.3,Win32,59.91970759,627c6715c52fd12f31907bd0,,,,,,,,,,,,,,,,,,,,,,,,,,,,,,,,,,,,,,,,,,,,,0,2,2,2,1,,3,,,,,,,,,,,,,,,,,,
,60f42a8f3227170449843be7,627c705547edda09226114b5,2022-05-12_04h22.27.195,classification_task,2021.2.3,Win32,59.91970759,627c6715c52fd12f31907bd0,,,,,,,,,,,,,,,,,,,,,,,,,,,,,,,,,,,,,,,,,,,,,,,,,,,,,I believe the aid is a competent performer,,0.7,0,4,848.4208,0,0,0,0,1,0,,,,,
,60f42a8f3227170449843be7,627c705547edda09226114b5,2022-05-12_04h22.27.195,classification_task,2021.2.3,Win32,59.91970759,627c6715c52fd12f31907bd0,,,,,,,,,,,,,,,,,,,,,,,,,,,,,,,,,,,,,,,,,,,,,,,,,,,,,I trust the aid,,0.7,0,5,853.6415,0,0,0,0,1,0,,,,,
,60f42a8f3227170449843be7,627c705547edda09226114b5,2022-05-12_04h22.27.195,classification_task,2021.2.3,Win32,59.91970759,627c6715c52fd12f31907bd0,,,,,,,,,,,,,,,,,,,,,,,,,,,,,,,,,,,,,,,,,,,,,,,,,,,,,I have confidence in the advice given by the aid,,0.7,0,5,854.6551,0,0,0,0,1,0,,,,,
,60f42a8f3227170449843be7,627c705547edda09226114b5,2022-05-12_04h22.27.195,classification_task,2021.2.3,Win32,59.91970759,627c6715c52fd12f31907bd0,,,,,,,,,,,,,,,,,,,,,,,,,,,,,,,,,,,,,,,,,,,,,,,,,,,,,I can depend on the aid,,0.7,0,4,859.1577,0,0,0,0,1,0,,,,,
,60f42a8f3227170449843be7,627c705547edda09226114b5,2022-05-12_04h22.27.195,classification_task,2021.2.3,Win32,59.91970759,627c6715c52fd12f31907bd0,,,,,,,,,,,,,,,,,,,,,,,,,,,,,,,,,,,,,,,,,,,,,,,,,,,,,I can rely on the aid to behave in consistent ways,,0.7,0,5,864.2058,0,0,0,0,1,0,,,,,
,60f42a8f3227170449843be7,627c705547edda09226114b5,2022-05-12_04h22.27.195,classification_task,2021.2.3,Win32,59.91970759,627c6715c52fd12f31907bd0,,,,,,,,,,,,,,,,,,,,,,,,,,,,,,,,,,,,,,,,,,,,,,,,,,,,,I can rely on the aid to do its best every time I take its advice,,0.7,0,5,866.773,0,0,0,0,1,0,,,,,
,60f42a8f3227170449843be7,627c705547edda09226114b5,2022-05-12_04h22.27.195,classification_task,2021.2.3,Win32,59.91970759,627c6715c52fd12f31907bd0,,,,,,,,,,,,,,,,,,,,,,,,,,,,,,,,,,,,,,,,,,,,,,,,,,,,,"On trials you completed with assistance from the aid, how frequently did you think the aid was correct?",,0.7,0,95%,,0,0,0,0,1,0,,,,,
,60f42a8f3227170449843be7,627c705547edda09226114b5,2022-05-12_04h22.27.195,classification_task,2021.2.3,Win32,59.91970759,627c6715c52fd12f31907bd0,,,,,,,,,,,,,,,,,,,,,,,,,,,,,,,,,,,,,,,,,,,,,,,,,,,,,"On trials you completed without the aid, how frequently did you think you were correct?",,0.7,0,60%,,0,0,0,0,1,0,,,,,
,60f42a8f3227170449843be7,627c705547edda09226114b5,2022-05-12_04h22.27.195,classification_task,2021.2.3,Win32,59.91970759,627c6715c52fd12f31907bd0,,,,,,,,,,,,,,,,,,,,,,,,,,,,,,,,,,,,,,,,,,,,,,,,,,,,,,,,,,,0,0,0,0,1,,,,,,
,60f42a8f3227170449843be7,627c705547edda09226114b5,2022-05-12_04h22.27.195,classification_task,2021.2.3,Win32,59.91970759,627c6715c52fd12f31907bd0,,,,,,,,,,,,,,,,,,,,,,,,,,,,,,,,,,,,,,,,,,,,,,,,,,,,,,,,,,,,,,,,,space,9.1894,902.0281,,
,60f42a8f3227170449843be7,627c705547edda09226114b5,2022-05-12_04h22.27.195,classification_task,2021.2.3,Win32,59.91970759,627c6715c52fd12f31907bd0,,,,,,,,,,,,,,,,,,,,,,,,,,,,,,,,,,,,,,,,,,,,,,,,,,,,,,,,,,,,,,,,,,,,"Mozilla/5.0 (Windows NT 10.0; Win64; x64) AppleWebKit/537.36 (KHTML, like Gecko) Chrome/101.0.4951.64 Safari/537.36",
,60f42a8f3227170449843be7,627c705547edda09226114b5,2022-05-12_04h22.27.195,classification_task,2021.2.3,Win32,59.91970759,627c6715c52fd12f31907bd0,,,,,,,,,,,,,,,,,,,,,,,,,,,,,,,,,,,,,,,,,,,,,,,,,,,,,,,,,,,,,,,,,,,,,FADING
