usingWebGL,participant,session,date,expName,psychopyVersion,OS,frameRate,PROLIFIC_PID,STUDY_ID,SESSION_ID,signatures_friend,signatures_foe,band_ranges_top,band_ranges_bottom,formitemText,formtype,formundefined,formitemWidth,formindex,formresponse,formrt,key_resp_2.keys,key_resp_2.rt,tute_resp.keys,tute_resp.rt,tutorial.thisRepN,tutorial.thisTrialN,tutorial.thisN,tutorial.thisIndex,tutorial.ran,key_resp_4.keys,key_resp_4.rt,key_resp.keys,key_resp.corr,key_resp.rt,lines_presented,is_signal_presented,trials.thisRepN,trials.thisTrialN,trials.thisN,trials.thisIndex,trials.ran,vessel,active_band,lines,is_signal,supported_pos,catch_trial,debrief_formindex,debrief_formitemText,debrief_formtype,debrief_formitemWidth,debrief_formresponse,debrief_formrt,phases.thisRepN,phases.thisTrialN,phases.thisN,phases.thisIndex,phases.ran,phases.order,phase,key_resp_3.keys,trustitemText,trusttype,trustitemWidth,trustindex,trustresponse,trustrt,support_status.thisRepN,support_status.thisTrialN,support_status.thisN,support_status.thisIndex,support_status.ran,support_status.order,key_resp_5.keys,key_resp_5.rt,globalClockTime,userAgent
TRUE,60f9bc5e07f83abc9cbc1c54,001,2022-04-28_20h12.16.226,classification_task,2021.2.3,MacIntel,59.99880002,60f9bc5e07f83abc9cbc1c54,626b377229c10585ec392f8a,626b3a195faa9641b2715a26,,,,,,,,,,,,,,,,,,,,,,,,,,,,,,,,,,,,,,,,,,,,,,,,,,,,,,,,,,,,,,,,,,,,
,60f9bc5e07f83abc9cbc1c54,001,2022-04-28_20h12.16.226,classification_task,2021.2.3,MacIntel,59.99880002,60f9bc5e07f83abc9cbc1c54,626b377229c10585ec392f8a,626b3a195faa9641b2715a26,"[[""0.242"",""0.393"",""0.727"",""0.903""],[""0.284"",""0.432"",""0.681"",""0.959""]]","[[""0.133"",""0.206"",""0.475"",""0.764""],[""0.070"",""0.169"",""0.551"",""0.831""]]","[1,10]","[100,1000]",Video game experience,,,0.7,0,,,,,,,,,,,,,,,,,,,,,,,,,,,,,,,,,,,,,,,,,,,,,,,,,,,,,,,,,,,
,60f9bc5e07f83abc9cbc1c54,001,2022-04-28_20h12.16.226,classification_task,2021.2.3,MacIntel,59.99880002,60f9bc5e07f83abc9cbc1c54,626b377229c10585ec392f8a,626b3a195faa9641b2715a26,,,,,Approximately how many hours did you spend playing video games in the last week?,,,0.7,0,2,,,,,,,,,,,,,,,,,,,,,,,,,,,,,,,,,,,,,,,,,,,,,,,,,,,,,,,,,,
,60f9bc5e07f83abc9cbc1c54,001,2022-04-28_20h12.16.226,classification_task,2021.2.3,MacIntel,59.99880002,60f9bc5e07f83abc9cbc1c54,626b377229c10585ec392f8a,626b3a195faa9641b2715a26,,,,,"Which game did you play the most this year? (Enter ""None"" if you didn't play any)",,,0.7,0,Mario Party,,,,,,,,,,,,,,,,,,,,,,,,,,,,,,,,,,,,,,,,,,,,,,,,,,,,,,,,,,
,60f9bc5e07f83abc9cbc1c54,001,2022-04-28_20h12.16.226,classification_task,2021.2.3,MacIntel,59.99880002,60f9bc5e07f83abc9cbc1c54,626b377229c10585ec392f8a,626b3a195faa9641b2715a26,,,,,Visual perception,,,0.7,0,,,,,,,,,,,,,,,,,,,,,,,,,,,,,,,,,,,,,,,,,,,,,,,,,,,,,,,,,,,
,60f9bc5e07f83abc9cbc1c54,001,2022-04-28_20h12.16.226,classification_task,2021.2.3,MacIntel,59.99880002,60f9bc5e07f83abc9cbc1c54,626b377229c10585ec392f8a,626b3a195faa9641b2715a26,,,,,Do you have any form of color blindness?,,,0.7,0,No,30.0824,,,,,,,,,,,,,,,,,,,,,,,,,,,,,,,,,,,,,,,,,,,,,,,,,,,,,,,,,
,60f9bc5e07f83abc9cbc1c54,001,2022-04-28_20h12.16.226,classification_task,2021.2.3,MacIntel,59.99880002,60f9bc5e07f83abc9cbc1c54,626b377229c10585ec392f8a,626b3a195faa9641b2715a26,,,,,Do you use software to change the colour temperature of your screen (e.g. f.lux)?,,,0.7,0,No,33.5141,,,,,,,,,,,,,,,,,,,,,,,,,,,,,,,,,,,,,,,,,,,,,,,,,,,,,,,,,
,60f9bc5e07f83abc9cbc1c54,001,2022-04-28_20h12.16.226,classification_task,2021.2.3,MacIntel,59.99880002,60f9bc5e07f83abc9cbc1c54,626b377229c10585ec392f8a,626b3a195faa9641b2715a26,,,,,,,,,,,,space,48.2545,space,8.2977,0,0,0,0,1,,,,,,,,,,,,,,,,,,,,,,,,,,,,,,,,,,,,,,,,,,,,,,,,
,60f9bc5e07f83abc9cbc1c54,001,2022-04-28_20h12.16.226,classification_task,2021.2.3,MacIntel,59.99880002,60f9bc5e07f83abc9cbc1c54,626b377229c10585ec392f8a,626b3a195faa9641b2715a26,,,,,,,,,,,,,,space,9.2049,1,0,1,0,1,,,,,,,,,,,,,,,,,,,,,,,,,,,,,,,,,,,,,,,,,,,,,,,,
,60f9bc5e07f83abc9cbc1c54,001,2022-04-28_20h12.16.226,classification_task,2021.2.3,MacIntel,59.99880002,60f9bc5e07f83abc9cbc1c54,626b377229c10585ec392f8a,626b3a195faa9641b2715a26,,,,,,,,,,,,,,space,23.8692,2,0,2,0,1,,,,,,,,,,,,,,,,,,,,,,,,,,,,,,,,,,,,,,,,,,,,,,,,
,60f9bc5e07f83abc9cbc1c54,001,2022-04-28_20h12.16.226,classification_task,2021.2.3,MacIntel,59.99880002,60f9bc5e07f83abc9cbc1c54,626b377229c10585ec392f8a,626b3a195faa9641b2715a26,,,,,,,,,,,,,,space,12.5153,3,0,3,0,1,,,,,,,,,,,,,,,,,,,,,,,,,,,,,,,,,,,,,,,,,,,,,,,,
,60f9bc5e07f83abc9cbc1c54,001,2022-04-28_20h12.16.226,classification_task,2021.2.3,MacIntel,59.99880002,60f9bc5e07f83abc9cbc1c54,626b377229c10585ec392f8a,626b3a195faa9641b2715a26,,,,,,,,,,,,,,space,13.2197,4,0,4,0,1,,,,,,,,,,,,,,,,,,,,,,,,,,,,,,,,,,,,,,,,,,,,,,,,
,60f9bc5e07f83abc9cbc1c54,001,2022-04-28_20h12.16.226,classification_task,2021.2.3,MacIntel,59.99880002,60f9bc5e07f83abc9cbc1c54,626b377229c10585ec392f8a,626b3a195faa9641b2715a26,,,,,,,,,,,,,,,,,,,,,space,14.2688,a,0,2.6993,"[""0.070"",""0.169"",""0.551"",""0.591""]","[1,1,1,0]",0,0,0,0,1,1,1,,,0,FALSE,,,,,,,,,,,,,,,,,,,,,,,,,,,,,,
,60f9bc5e07f83abc9cbc1c54,001,2022-04-28_20h12.16.226,classification_task,2021.2.3,MacIntel,59.99880002,60f9bc5e07f83abc9cbc1c54,626b377229c10585ec392f8a,626b3a195faa9641b2715a26,,,,,,,,,,,,,,,,,,,,,,,a,1,1.4805,"[""0.284"",""0.432"",""0.681"",""0.591""]","[1,1,1,0]",0,1,1,1,1,0,1,,,0,FALSE,,,,,,,,,,,,,,,,,,,,,,,,,,,,,,
,60f9bc5e07f83abc9cbc1c54,001,2022-04-28_20h12.16.226,classification_task,2021.2.3,MacIntel,59.99880002,60f9bc5e07f83abc9cbc1c54,626b377229c10585ec392f8a,626b3a195faa9641b2715a26,,,,,,,,,,,,,,,,,,,,,,,l,1,2.0027,"[""0.035"",""0.206"",""0.475"",""0.764""]","[0,1,1,1]",0,2,2,2,1,1,0,,,0,FALSE,,,,,,,,,,,,,,,,,,,,,,,,,,,,,,
,60f9bc5e07f83abc9cbc1c54,001,2022-04-28_20h12.16.226,classification_task,2021.2.3,MacIntel,59.99880002,60f9bc5e07f83abc9cbc1c54,626b377229c10585ec392f8a,626b3a195faa9641b2715a26,,,,,,,,,,,,,,,,,,,,,,,l,1,1.6344,"[""0.133"",""0.629"",""0.475"",""0.764""]","[1,0,1,1]",0,3,3,3,1,1,0,,,0,FALSE,,,,,,,,,,,,,,,,,,,,,,,,,,,,,,
,60f9bc5e07f83abc9cbc1c54,001,2022-04-28_20h12.16.226,classification_task,2021.2.3,MacIntel,59.99880002,60f9bc5e07f83abc9cbc1c54,626b377229c10585ec392f8a,626b3a195faa9641b2715a26,,,,,,,,,,,,,,,,,,,,,,,l,0,1.0339,"[""0.343"",""0.393"",""0.727"",""0.903""]","[0,1,1,1]",0,4,4,4,1,0,0,,,0,FALSE,,,,,,,,,,,,,,,,,,,,,,,,,,,,,,
,60f9bc5e07f83abc9cbc1c54,001,2022-04-28_20h12.16.226,classification_task,2021.2.3,MacIntel,59.99880002,60f9bc5e07f83abc9cbc1c54,626b377229c10585ec392f8a,626b3a195faa9641b2715a26,,,,,,,,,,,,,,,,,,,,,,,l,0,2.0602,"[""0.284"",""0.432"",""0.599"",""0.959""]","[1,1,0,1]",0,5,5,5,1,0,1,,,0,FALSE,,,,,,,,,,,,,,,,,,,,,,,,,,,,,,
,60f9bc5e07f83abc9cbc1c54,001,2022-04-28_20h12.16.226,classification_task,2021.2.3,MacIntel,59.99880002,60f9bc5e07f83abc9cbc1c54,626b377229c10585ec392f8a,626b3a195faa9641b2715a26,,,,,,,,,,,,,,,,,,,,,,,a,1,0.8647,"[""0.242"",""0.393"",""0.028"",""0.903""]","[1,1,0,1]",0,6,6,6,1,0,0,,,0,FALSE,,,,,,,,,,,,,,,,,,,,,,,,,,,,,,
,60f9bc5e07f83abc9cbc1c54,001,2022-04-28_20h12.16.226,classification_task,2021.2.3,MacIntel,59.99880002,60f9bc5e07f83abc9cbc1c54,626b377229c10585ec392f8a,626b3a195faa9641b2715a26,,,,,,,,,,,,,,,,,,,,,,,a,1,1.5001,"[""0.242"",""0.320"",""0.727"",""0.903""]","[1,0,1,1]",0,7,7,7,1,0,0,,,0,FALSE,,,,,,,,,,,,,,,,,,,,,,,,,,,,,,
,60f9bc5e07f83abc9cbc1c54,001,2022-04-28_20h12.16.226,classification_task,2021.2.3,MacIntel,59.99880002,60f9bc5e07f83abc9cbc1c54,626b377229c10585ec392f8a,626b3a195faa9641b2715a26,,,,,,,,,,,,,,,,,,,,,,,a,0,1.1662,"[""0.133"",""0.206"",""0.599"",""0.764""]","[1,1,0,1]",0,8,8,8,1,1,0,,,0,FALSE,,,,,,,,,,,,,,,,,,,,,,,,,,,,,,
,60f9bc5e07f83abc9cbc1c54,001,2022-04-28_20h12.16.226,classification_task,2021.2.3,MacIntel,59.99880002,60f9bc5e07f83abc9cbc1c54,626b377229c10585ec392f8a,626b3a195faa9641b2715a26,,,,,,,,,,,,,,,,,,,,,,,a,0,1.3716,"[""0.070"",""0.169"",""0.588"",""0.831""]","[1,1,0,1]",0,9,9,9,1,1,1,,,0,FALSE,,,,,,,,,,,,,,,,,,,,,,,,,,,,,,
,60f9bc5e07f83abc9cbc1c54,001,2022-04-28_20h12.16.226,classification_task,2021.2.3,MacIntel,59.99880002,60f9bc5e07f83abc9cbc1c54,626b377229c10585ec392f8a,626b3a195faa9641b2715a26,,,,,,,,,,,,,,,,,,,,,,,l,1,3.1255,"[""0.070"",""0.514"",""0.551"",""0.831""]","[1,0,1,1]",0,10,10,10,1,1,1,,,0,FALSE,,,,,,,,,,,,,,,,,,,,,,,,,,,,,,
,60f9bc5e07f83abc9cbc1c54,001,2022-04-28_20h12.16.226,classification_task,2021.2.3,MacIntel,59.99880002,60f9bc5e07f83abc9cbc1c54,626b377229c10585ec392f8a,626b3a195faa9641b2715a26,,,,,,,,,,,,,,,,,,,,,,,l,1,1.1532,"[""0.591"",""0.169"",""0.551"",""0.831""]","[0,1,1,1]",0,11,11,11,1,1,1,,,0,FALSE,,,,,,,,,,,,,,,,,,,,,,,,,,,,,,
,60f9bc5e07f83abc9cbc1c54,001,2022-04-28_20h12.16.226,classification_task,2021.2.3,MacIntel,59.99880002,60f9bc5e07f83abc9cbc1c54,626b377229c10585ec392f8a,626b3a195faa9641b2715a26,,,,,,,,,,,,,,,,,,,,,,,a,1,1.6656,"[""0.242"",""0.393"",""0.727"",""0.616""]","[1,1,1,0]",0,12,12,12,1,0,0,,,0,FALSE,,,,,,,,,,,,,,,,,,,,,,,,,,,,,,
,60f9bc5e07f83abc9cbc1c54,001,2022-04-28_20h12.16.226,classification_task,2021.2.3,MacIntel,59.99880002,60f9bc5e07f83abc9cbc1c54,626b377229c10585ec392f8a,626b3a195faa9641b2715a26,,,,,,,,,,,,,,,,,,,,,,,a,1,1.0953,"[""0.284"",""0.035"",""0.681"",""0.959""]","[1,0,1,1]",0,13,13,13,1,0,1,,,0,FALSE,,,,,,,,,,,,,,,,,,,,,,,,,,,,,,
,60f9bc5e07f83abc9cbc1c54,001,2022-04-28_20h12.16.226,classification_task,2021.2.3,MacIntel,59.99880002,60f9bc5e07f83abc9cbc1c54,626b377229c10585ec392f8a,626b3a195faa9641b2715a26,,,,,,,,,,,,,,,,,,,,,,,l,0,1.3333,"[""0.032"",""0.432"",""0.681"",""0.959""]","[0,1,1,1]",0,14,14,14,1,0,1,,,0,FALSE,,,,,,,,,,,,,,,,,,,,,,,,,,,,,,
,60f9bc5e07f83abc9cbc1c54,001,2022-04-28_20h12.16.226,classification_task,2021.2.3,MacIntel,59.99880002,60f9bc5e07f83abc9cbc1c54,626b377229c10585ec392f8a,626b3a195faa9641b2715a26,,,,,,,,,,,,,,,,,,,,,,,a,0,0.9784,"[""0.133"",""0.206"",""0.475"",""0.629""]","[1,1,1,0]",0,15,15,15,1,1,0,,,0,FALSE,,,,,,,,,,,,,,,,,,,,,,,,,,,,,,
,60f9bc5e07f83abc9cbc1c54,001,2022-04-28_20h12.16.226,classification_task,2021.2.3,MacIntel,59.99880002,60f9bc5e07f83abc9cbc1c54,626b377229c10585ec392f8a,626b3a195faa9641b2715a26,,,,,,,,,,,,,,,,,,,,,,,a,0,1.2115,"[""0.070"",""0.169"",""0.032"",""0.831""]","[1,1,0,1]",0,16,16,16,1,1,1,,,0,FALSE,,,,,,,,,,,,,,,,,,,,,,,,,,,,,,
,60f9bc5e07f83abc9cbc1c54,001,2022-04-28_20h12.16.226,classification_task,2021.2.3,MacIntel,59.99880002,60f9bc5e07f83abc9cbc1c54,626b377229c10585ec392f8a,626b3a195faa9641b2715a26,,,,,,,,,,,,,,,,,,,,,,,a,0,0.8612,"[""0.133"",""0.206"",""0.475"",""0.629""]","[1,1,1,0]",0,17,17,17,1,1,0,,,0,FALSE,,,,,,,,,,,,,,,,,,,,,,,,,,,,,,
,60f9bc5e07f83abc9cbc1c54,001,2022-04-28_20h12.16.226,classification_task,2021.2.3,MacIntel,59.99880002,60f9bc5e07f83abc9cbc1c54,626b377229c10585ec392f8a,626b3a195faa9641b2715a26,,,,,,,,,,,,,,,,,,,,,,,a,0,0.7868,"[""0.032"",""0.206"",""0.475"",""0.764""]","[0,1,1,1]",0,18,18,18,1,1,0,,,0,FALSE,,,,,,,,,,,,,,,,,,,,,,,,,,,,,,
,60f9bc5e07f83abc9cbc1c54,001,2022-04-28_20h12.16.226,classification_task,2021.2.3,MacIntel,59.99880002,60f9bc5e07f83abc9cbc1c54,626b377229c10585ec392f8a,626b3a195faa9641b2715a26,,,,,,,,,,,,,,,,,,,,,,,l,0,0.7639,"[""0.284"",""0.032"",""0.681"",""0.959""]","[1,0,1,1]",0,19,19,19,1,0,1,,,0,FALSE,,,,,,,,,,,,,,,,,,,,,,,,,,,,,,
,60f9bc5e07f83abc9cbc1c54,001,2022-04-28_20h12.16.226,classification_task,2021.2.3,MacIntel,59.99880002,60f9bc5e07f83abc9cbc1c54,626b377229c10585ec392f8a,626b3a195faa9641b2715a26,,,,,,,,,,,,,,,,,,,,,,,l,0,0.7585,"[""0.242"",""0.598"",""0.727"",""0.903""]","[1,0,1,1]",0,20,20,20,1,0,0,,,0,FALSE,,,,,,,,,,,,,,,,,,,,,,,,,,,,,,
,60f9bc5e07f83abc9cbc1c54,001,2022-04-28_20h12.16.226,classification_task,2021.2.3,MacIntel,59.99880002,60f9bc5e07f83abc9cbc1c54,626b377229c10585ec392f8a,626b3a195faa9641b2715a26,,,,,,,,,,,,,,,,,,,,,,,a,0,0.6654,"[""0.070"",""0.324"",""0.551"",""0.831""]","[1,0,1,1]",0,21,21,21,1,1,1,,,0,FALSE,,,,,,,,,,,,,,,,,,,,,,,,,,,,,,
,60f9bc5e07f83abc9cbc1c54,001,2022-04-28_20h12.16.226,classification_task,2021.2.3,MacIntel,59.99880002,60f9bc5e07f83abc9cbc1c54,626b377229c10585ec392f8a,626b3a195faa9641b2715a26,,,,,,,,,,,,,,,,,,,,,,,l,0,0.5464,"[""0.599"",""0.393"",""0.727"",""0.903""]","[0,1,1,1]",0,22,22,22,1,0,0,,,0,FALSE,,,,,,,,,,,,,,,,,,,,,,,,,,,,,,
,60f9bc5e07f83abc9cbc1c54,001,2022-04-28_20h12.16.226,classification_task,2021.2.3,MacIntel,59.99880002,60f9bc5e07f83abc9cbc1c54,626b377229c10585ec392f8a,626b3a195faa9641b2715a26,,,,,,,,,,,,,,,,,,,,,,,a,1,0.6279,"[""0.032"",""0.432"",""0.681"",""0.959""]","[0,1,1,1]",0,23,23,23,1,0,1,,,0,FALSE,,,,,,,,,,,,,,,,,,,,,,,,,,,,,,
,60f9bc5e07f83abc9cbc1c54,001,2022-04-28_20h12.16.226,classification_task,2021.2.3,MacIntel,59.99880002,60f9bc5e07f83abc9cbc1c54,626b377229c10585ec392f8a,626b3a195faa9641b2715a26,,,,,,,,,,,,,,,,,,,,,,,a,0,0.5964,"[""0.133"",""0.206"",""0.591"",""0.764""]","[1,1,0,1]",0,24,24,24,1,1,0,,,0,FALSE,,,,,,,,,,,,,,,,,,,,,,,,,,,,,,
,60f9bc5e07f83abc9cbc1c54,001,2022-04-28_20h12.16.226,classification_task,2021.2.3,MacIntel,59.99880002,60f9bc5e07f83abc9cbc1c54,626b377229c10585ec392f8a,626b3a195faa9641b2715a26,,,,,,,,,,,,,,,,,,,,,,,a,1,0.8472,"[""0.284"",""0.432"",""0.681"",""0.591""]","[1,1,1,0]",0,25,25,25,1,0,1,,,0,FALSE,,,,,,,,,,,,,,,,,,,,,,,,,,,,,,
,60f9bc5e07f83abc9cbc1c54,001,2022-04-28_20h12.16.226,classification_task,2021.2.3,MacIntel,59.99880002,60f9bc5e07f83abc9cbc1c54,626b377229c10585ec392f8a,626b3a195faa9641b2715a26,,,,,,,,,,,,,,,,,,,,,,,a,1,0.6844,"[""0.284"",""0.432"",""0.591"",""0.959""]","[1,1,0,1]",0,26,26,26,1,0,1,,,0,FALSE,,,,,,,,,,,,,,,,,,,,,,,,,,,,,,
,60f9bc5e07f83abc9cbc1c54,001,2022-04-28_20h12.16.226,classification_task,2021.2.3,MacIntel,59.99880002,60f9bc5e07f83abc9cbc1c54,626b377229c10585ec392f8a,626b3a195faa9641b2715a26,,,,,,,,,,,,,,,,,,,,,,,a,0,0.7998,"[""0.343"",""0.169"",""0.551"",""0.831""]","[0,1,1,1]",0,27,27,27,1,1,1,,,0,FALSE,,,,,,,,,,,,,,,,,,,,,,,,,,,,,,
,60f9bc5e07f83abc9cbc1c54,001,2022-04-28_20h12.16.226,classification_task,2021.2.3,MacIntel,59.99880002,60f9bc5e07f83abc9cbc1c54,626b377229c10585ec392f8a,626b3a195faa9641b2715a26,,,,,,,,,,,,,,,,,,,,,,,a,1,0.9281,"[""0.242"",""0.393"",""0.727"",""0.028""]","[1,1,1,0]",0,28,28,28,1,0,0,,,0,FALSE,,,,,,,,,,,,,,,,,,,,,,,,,,,,,,
,60f9bc5e07f83abc9cbc1c54,001,2022-04-28_20h12.16.226,classification_task,2021.2.3,MacIntel,59.99880002,60f9bc5e07f83abc9cbc1c54,626b377229c10585ec392f8a,626b3a195faa9641b2715a26,,,,,,,,,,,,,,,,,,,,,,,a,0,1.3925,"[""0.070"",""0.169"",""0.551"",""0.588""]","[1,1,1,0]",0,29,29,29,1,1,1,,,0,FALSE,,,,,,,,,,,,,,,,,,,,,,,,,,,,,,
,60f9bc5e07f83abc9cbc1c54,001,2022-04-28_20h12.16.226,classification_task,2021.2.3,MacIntel,59.99880002,60f9bc5e07f83abc9cbc1c54,626b377229c10585ec392f8a,626b3a195faa9641b2715a26,,,,,,,,,,,,,,,,,,,,,,,a,1,0.9278,"[""0.242"",""0.393"",""0.035"",""0.903""]","[1,1,0,1]",0,30,30,30,1,0,0,,,0,FALSE,,,,,,,,,,,,,,,,,,,,,,,,,,,,,,
,60f9bc5e07f83abc9cbc1c54,001,2022-04-28_20h12.16.226,classification_task,2021.2.3,MacIntel,59.99880002,60f9bc5e07f83abc9cbc1c54,626b377229c10585ec392f8a,626b3a195faa9641b2715a26,,,,,,,,,,,,,,,,,,,,,,,l,1,0.7843,"[""0.133"",""0.608"",""0.475"",""0.764""]","[1,0,1,1]",0,31,31,31,1,1,0,,,0,FALSE,,,,,,,,,,,,,,,,,,,,,,,,,,,,,,
,60f9bc5e07f83abc9cbc1c54,001,2022-04-28_20h12.16.226,classification_task,2021.2.3,MacIntel,59.99880002,60f9bc5e07f83abc9cbc1c54,626b377229c10585ec392f8a,626b3a195faa9641b2715a26,,,,,,,,,,,,,,,,,,,,,,,a,0,1.061,"[""0.346"",""0.169"",""0.551"",""0.831""]","[0,1,1,1]",0,32,32,32,1,1,1,,,0,FALSE,,,,,,,,,,,,,,,,,,,,,,,,,,,,,,
,60f9bc5e07f83abc9cbc1c54,001,2022-04-28_20h12.16.226,classification_task,2021.2.3,MacIntel,59.99880002,60f9bc5e07f83abc9cbc1c54,626b377229c10585ec392f8a,626b3a195faa9641b2715a26,,,,,,,,,,,,,,,,,,,,,,,a,0,0.8688,"[""0.133"",""0.346"",""0.475"",""0.764""]","[1,0,1,1]",0,33,33,33,1,1,0,,,0,FALSE,,,,,,,,,,,,,,,,,,,,,,,,,,,,,,
,60f9bc5e07f83abc9cbc1c54,001,2022-04-28_20h12.16.226,classification_task,2021.2.3,MacIntel,59.99880002,60f9bc5e07f83abc9cbc1c54,626b377229c10585ec392f8a,626b3a195faa9641b2715a26,,,,,,,,,,,,,,,,,,,,,,,a,1,0.7506,"[""0.242"",""0.393"",""0.588"",""0.903""]","[1,1,0,1]",0,34,34,34,1,0,0,,,0,FALSE,,,,,,,,,,,,,,,,,,,,,,,,,,,,,,
,60f9bc5e07f83abc9cbc1c54,001,2022-04-28_20h12.16.226,classification_task,2021.2.3,MacIntel,59.99880002,60f9bc5e07f83abc9cbc1c54,626b377229c10585ec392f8a,626b3a195faa9641b2715a26,,,,,,,,,,,,,,,,,,,,,,,a,1,1.9152,"[""0.028"",""0.393"",""0.727"",""0.903""]","[0,1,1,1]",0,35,35,35,1,0,0,,,0,FALSE,,,,,,,,,,,,,,,,,,,,,,,,,,,,,,
,60f9bc5e07f83abc9cbc1c54,001,2022-04-28_20h12.16.226,classification_task,2021.2.3,MacIntel,59.99880002,60f9bc5e07f83abc9cbc1c54,626b377229c10585ec392f8a,626b3a195faa9641b2715a26,,,,,,,,,,,,,,,,,,,,,,,l,0,0.6004,"[""0.284"",""0.616"",""0.681"",""0.959""]","[1,0,1,1]",0,36,36,36,1,0,1,,,0,FALSE,,,,,,,,,,,,,,,,,,,,,,,,,,,,,,
,60f9bc5e07f83abc9cbc1c54,001,2022-04-28_20h12.16.226,classification_task,2021.2.3,MacIntel,59.99880002,60f9bc5e07f83abc9cbc1c54,626b377229c10585ec392f8a,626b3a195faa9641b2715a26,,,,,,,,,,,,,,,,,,,,,,,a,0,0.6165,"[""0.070"",""0.320"",""0.551"",""0.831""]","[1,0,1,1]",0,37,37,37,1,1,1,,,0,FALSE,,,,,,,,,,,,,,,,,,,,,,,,,,,,,,
,60f9bc5e07f83abc9cbc1c54,001,2022-04-28_20h12.16.226,classification_task,2021.2.3,MacIntel,59.99880002,60f9bc5e07f83abc9cbc1c54,626b377229c10585ec392f8a,626b3a195faa9641b2715a26,,,,,,,,,,,,,,,,,,,,,,,a,0,0.3823,"[""0.070"",""0.169"",""0.551"",""0.588""]","[1,1,1,0]",0,38,38,38,1,1,1,,,0,FALSE,,,,,,,,,,,,,,,,,,,,,,,,,,,,,,
,60f9bc5e07f83abc9cbc1c54,001,2022-04-28_20h12.16.226,classification_task,2021.2.3,MacIntel,59.99880002,60f9bc5e07f83abc9cbc1c54,626b377229c10585ec392f8a,626b3a195faa9641b2715a26,,,,,,,,,,,,,,,,,,,,,,,a,1,0.2699,"[""0.284"",""0.432"",""0.608"",""0.959""]","[1,1,0,1]",0,39,39,39,1,0,1,,,0,FALSE,,,,,,,,,,,,,,,,,,,,,,,,,,,,,,
,60f9bc5e07f83abc9cbc1c54,001,2022-04-28_20h12.16.226,classification_task,2021.2.3,MacIntel,59.99880002,60f9bc5e07f83abc9cbc1c54,626b377229c10585ec392f8a,626b3a195faa9641b2715a26,,,,,,,,,,,,,,,,,,,,,,,a,0,0.3826,"[""0.133"",""0.206"",""0.475"",""0.608""]","[1,1,1,0]",0,40,40,40,1,1,0,,,0,FALSE,,,,,,,,,,,,,,,,,,,,,,,,,,,,,,
,60f9bc5e07f83abc9cbc1c54,001,2022-04-28_20h12.16.226,classification_task,2021.2.3,MacIntel,59.99880002,60f9bc5e07f83abc9cbc1c54,626b377229c10585ec392f8a,626b3a195faa9641b2715a26,,,,,,,,,,,,,,,,,,,,,,,l,1,0.7994,"[""0.070"",""0.169"",""0.608"",""0.831""]","[1,1,0,1]",0,41,41,41,1,1,1,,,0,FALSE,,,,,,,,,,,,,,,,,,,,,,,,,,,,,,
,60f9bc5e07f83abc9cbc1c54,001,2022-04-28_20h12.16.226,classification_task,2021.2.3,MacIntel,59.99880002,60f9bc5e07f83abc9cbc1c54,626b377229c10585ec392f8a,626b3a195faa9641b2715a26,,,,,,,,,,,,,,,,,,,,,,,l,0,0.3834,"[""0.242"",""0.346"",""0.727"",""0.903""]","[1,0,1,1]",0,42,42,42,1,0,0,,,0,FALSE,,,,,,,,,,,,,,,,,,,,,,,,,,,,,,
,60f9bc5e07f83abc9cbc1c54,001,2022-04-28_20h12.16.226,classification_task,2021.2.3,MacIntel,59.99880002,60f9bc5e07f83abc9cbc1c54,626b377229c10585ec392f8a,626b3a195faa9641b2715a26,,,,,,,,,,,,,,,,,,,,,,,a,1,0.3335,"[""0.284"",""0.432"",""0.681"",""0.343""]","[1,1,1,0]",0,43,43,43,1,0,1,,,0,FALSE,,,,,,,,,,,,,,,,,,,,,,,,,,,,,,
,60f9bc5e07f83abc9cbc1c54,001,2022-04-28_20h12.16.226,classification_task,2021.2.3,MacIntel,59.99880002,60f9bc5e07f83abc9cbc1c54,626b377229c10585ec392f8a,626b3a195faa9641b2715a26,,,,,,,,,,,,,,,,,,,,,,,a,1,0.5659,"[""0.324"",""0.432"",""0.681"",""0.959""]","[0,1,1,1]",0,44,44,44,1,0,1,,,0,FALSE,,,,,,,,,,,,,,,,,,,,,,,,,,,,,,
,60f9bc5e07f83abc9cbc1c54,001,2022-04-28_20h12.16.226,classification_task,2021.2.3,MacIntel,59.99880002,60f9bc5e07f83abc9cbc1c54,626b377229c10585ec392f8a,626b3a195faa9641b2715a26,,,,,,,,,,,,,,,,,,,,,,,l,1,0.4507,"[""0.591"",""0.206"",""0.475"",""0.764""]","[0,1,1,1]",0,45,45,45,1,1,0,,,0,FALSE,,,,,,,,,,,,,,,,,,,,,,,,,,,,,,
,60f9bc5e07f83abc9cbc1c54,001,2022-04-28_20h12.16.226,classification_task,2021.2.3,MacIntel,59.99880002,60f9bc5e07f83abc9cbc1c54,626b377229c10585ec392f8a,626b3a195faa9641b2715a26,,,,,,,,,,,,,,,,,,,,,,,a,0,0.4656,"[""0.133"",""0.206"",""0.035"",""0.764""]","[1,1,0,1]",0,46,46,46,1,1,0,,,0,FALSE,,,,,,,,,,,,,,,,,,,,,,,,,,,,,,
,60f9bc5e07f83abc9cbc1c54,001,2022-04-28_20h12.16.226,classification_task,2021.2.3,MacIntel,59.99880002,60f9bc5e07f83abc9cbc1c54,626b377229c10585ec392f8a,626b3a195faa9641b2715a26,,,,,,,,,,,,,,,,,,,,,,,a,1,0.4845,"[""0.242"",""0.393"",""0.727"",""0.591""]","[1,1,1,0]",0,47,47,47,1,0,0,,,0,FALSE,,,,,,,,,,,,,,,,,,,,,,,,,,,,,,
,60f9bc5e07f83abc9cbc1c54,001,2022-04-28_20h12.16.226,classification_task,2021.2.3,MacIntel,59.99880002,60f9bc5e07f83abc9cbc1c54,626b377229c10585ec392f8a,626b3a195faa9641b2715a26,,,,,,,,,,,,,,,,,,,,,,,l,0,1.4839,"[""0.591"",""0.393"",""0.727"",""0.903""]","[0,1,1,1]",0,48,48,48,1,0,0,,,0,FALSE,,,,,,,,,,,,,,,,,,,,,,,,,,,,,,
,60f9bc5e07f83abc9cbc1c54,001,2022-04-28_20h12.16.226,classification_task,2021.2.3,MacIntel,59.99880002,60f9bc5e07f83abc9cbc1c54,626b377229c10585ec392f8a,626b3a195faa9641b2715a26,,,,,,,,,,,,,,,,,,,,,,,a,0,0.4306,"[""0.320"",""0.206"",""0.475"",""0.764""]","[0,1,1,1]",0,49,49,49,1,1,0,,,0,FALSE,,,,,,,,,,,,,,,,,,,,,,,,,,,,,,
,60f9bc5e07f83abc9cbc1c54,001,2022-04-28_20h12.16.226,classification_task,2021.2.3,MacIntel,59.99880002,60f9bc5e07f83abc9cbc1c54,626b377229c10585ec392f8a,626b3a195faa9641b2715a26,,,,,,,,,,,,,,,,,,,,,,,a,0,1.9967,"[""0.070"",""0.169"",""0.551"",""0.599""]","[1,1,1,0]",0,50,50,50,1,1,1,,,0,FALSE,,,,,,,,,,,,,,,,,,,,,,,,,,,,,,
,60f9bc5e07f83abc9cbc1c54,001,2022-04-28_20h12.16.226,classification_task,2021.2.3,MacIntel,59.99880002,60f9bc5e07f83abc9cbc1c54,626b377229c10585ec392f8a,626b3a195faa9641b2715a26,,,,,,,,,,,,,,,,,,,,,,,l,1,0.6058,"[""0.133"",""0.608"",""0.475"",""0.764""]","[1,0,1,1]",0,51,51,51,1,1,0,,,0,FALSE,,,,,,,,,,,,,,,,,,,,,,,,,,,,,,
,60f9bc5e07f83abc9cbc1c54,001,2022-04-28_20h12.16.226,classification_task,2021.2.3,MacIntel,59.99880002,60f9bc5e07f83abc9cbc1c54,626b377229c10585ec392f8a,626b3a195faa9641b2715a26,,,,,,,,,,,,,,,,,,,,,,,a,1,0.8381,"[""0.242"",""0.393"",""0.028"",""0.903""]","[1,1,0,1]",0,52,52,52,1,0,0,,,0,FALSE,,,,,,,,,,,,,,,,,,,,,,,,,,,,,,
,60f9bc5e07f83abc9cbc1c54,001,2022-04-28_20h12.16.226,classification_task,2021.2.3,MacIntel,59.99880002,60f9bc5e07f83abc9cbc1c54,626b377229c10585ec392f8a,626b3a195faa9641b2715a26,,,,,,,,,,,,,,,,,,,,,,,a,1,0.4986,"[""0.242"",""0.393"",""0.727"",""0.028""]","[1,1,1,0]",0,53,53,53,1,0,0,,,0,FALSE,,,,,,,,,,,,,,,,,,,,,,,,,,,,,,
,60f9bc5e07f83abc9cbc1c54,001,2022-04-28_20h12.16.226,classification_task,2021.2.3,MacIntel,59.99880002,60f9bc5e07f83abc9cbc1c54,626b377229c10585ec392f8a,626b3a195faa9641b2715a26,,,,,,,,,,,,,,,,,,,,,,,a,0,0.6315,"[""0.070"",""0.169"",""0.616"",""0.831""]","[1,1,0,1]",0,54,54,54,1,1,1,,,0,FALSE,,,,,,,,,,,,,,,,,,,,,,,,,,,,,,
,60f9bc5e07f83abc9cbc1c54,001,2022-04-28_20h12.16.226,classification_task,2021.2.3,MacIntel,59.99880002,60f9bc5e07f83abc9cbc1c54,626b377229c10585ec392f8a,626b3a195faa9641b2715a26,,,,,,,,,,,,,,,,,,,,,,,a,0,0.4176,"[""0.133"",""0.206"",""0.028"",""0.764""]","[1,1,0,1]",0,55,55,55,1,1,0,,,0,FALSE,,,,,,,,,,,,,,,,,,,,,,,,,,,,,,
,60f9bc5e07f83abc9cbc1c54,001,2022-04-28_20h12.16.226,classification_task,2021.2.3,MacIntel,59.99880002,60f9bc5e07f83abc9cbc1c54,626b377229c10585ec392f8a,626b3a195faa9641b2715a26,,,,,,,,,,,,,,,,,,,,,,,l,0,0.3811,"[""0.284"",""0.432"",""0.629"",""0.959""]","[1,1,0,1]",0,56,56,56,1,0,1,,,0,FALSE,,,,,,,,,,,,,,,,,,,,,,,,,,,,,,
,60f9bc5e07f83abc9cbc1c54,001,2022-04-28_20h12.16.226,classification_task,2021.2.3,MacIntel,59.99880002,60f9bc5e07f83abc9cbc1c54,626b377229c10585ec392f8a,626b3a195faa9641b2715a26,,,,,,,,,,,,,,,,,,,,,,,l,1,0.4182,"[""0.070"",""0.343"",""0.551"",""0.831""]","[1,0,1,1]",0,57,57,57,1,1,1,,,0,FALSE,,,,,,,,,,,,,,,,,,,,,,,,,,,,,,
,60f9bc5e07f83abc9cbc1c54,001,2022-04-28_20h12.16.226,classification_task,2021.2.3,MacIntel,59.99880002,60f9bc5e07f83abc9cbc1c54,626b377229c10585ec392f8a,626b3a195faa9641b2715a26,,,,,,,,,,,,,,,,,,,,,,,a,0,0.416,"[""0.133"",""0.206"",""0.475"",""0.598""]","[1,1,1,0]",0,58,58,58,1,1,0,,,0,FALSE,,,,,,,,,,,,,,,,,,,,,,,,,,,,,,
,60f9bc5e07f83abc9cbc1c54,001,2022-04-28_20h12.16.226,classification_task,2021.2.3,MacIntel,59.99880002,60f9bc5e07f83abc9cbc1c54,626b377229c10585ec392f8a,626b3a195faa9641b2715a26,,,,,,,,,,,,,,,,,,,,,,,a,0,0.8146,"[""0.591"",""0.169"",""0.551"",""0.831""]","[0,1,1,1]",0,59,59,59,1,1,1,,,0,FALSE,,,,,,,,,,,,,,,,,,,,,,,,,,,,,,
,60f9bc5e07f83abc9cbc1c54,001,2022-04-28_20h12.16.226,classification_task,2021.2.3,MacIntel,59.99880002,60f9bc5e07f83abc9cbc1c54,626b377229c10585ec392f8a,626b3a195faa9641b2715a26,,,,,,,,,,,,,,,,,,,,,,,a,1,0.3845,"[""0.284"",""0.432"",""0.681"",""0.591""]","[1,1,1,0]",0,60,60,60,1,0,1,,,0,FALSE,,,,,,,,,,,,,,,,,,,,,,,,,,,,,,
,60f9bc5e07f83abc9cbc1c54,001,2022-04-28_20h12.16.226,classification_task,2021.2.3,MacIntel,59.99880002,60f9bc5e07f83abc9cbc1c54,626b377229c10585ec392f8a,626b3a195faa9641b2715a26,,,,,,,,,,,,,,,,,,,,,,,a,1,0.3175,"[""0.320"",""0.432"",""0.681"",""0.959""]","[0,1,1,1]",0,61,61,61,1,0,1,,,0,FALSE,,,,,,,,,,,,,,,,,,,,,,,,,,,,,,
,60f9bc5e07f83abc9cbc1c54,001,2022-04-28_20h12.16.226,classification_task,2021.2.3,MacIntel,59.99880002,60f9bc5e07f83abc9cbc1c54,626b377229c10585ec392f8a,626b3a195faa9641b2715a26,,,,,,,,,,,,,,,,,,,,,,,a,1,0.303,"[""0.242"",""0.599"",""0.727"",""0.903""]","[1,0,1,1]",0,62,62,62,1,0,0,,,0,FALSE,,,,,,,,,,,,,,,,,,,,,,,,,,,,,,
,60f9bc5e07f83abc9cbc1c54,001,2022-04-28_20h12.16.226,classification_task,2021.2.3,MacIntel,59.99880002,60f9bc5e07f83abc9cbc1c54,626b377229c10585ec392f8a,626b3a195faa9641b2715a26,,,,,,,,,,,,,,,,,,,,,,,a,1,0.3187,"[""0.284"",""0.598"",""0.681"",""0.959""]","[1,0,1,1]",0,63,63,63,1,0,1,,,0,FALSE,,,,,,,,,,,,,,,,,,,,,,,,,,,,,,
,60f9bc5e07f83abc9cbc1c54,001,2022-04-28_20h12.16.226,classification_task,2021.2.3,MacIntel,59.99880002,60f9bc5e07f83abc9cbc1c54,626b377229c10585ec392f8a,626b3a195faa9641b2715a26,,,,,,,,,,,,,,,,,,,,,,,,,,,,,,,,,,,,,,,0, ,,0,8.939433605,327.3545,0,0,0,0,1,2,1,,,,,,,,,,,,,,,,,
,60f9bc5e07f83abc9cbc1c54,001,2022-04-28_20h12.16.226,classification_task,2021.2.3,MacIntel,59.99880002,60f9bc5e07f83abc9cbc1c54,626b377229c10585ec392f8a,626b3a195faa9641b2715a26,,,,,,,,,,,,,,,,,,,,,,,,,,,,,,,,,,,,,,,1,  ,,0,5.67561361,333.7986,0,0,0,0,1,2,1,,,,,,,,,,,,,,,,,
,60f9bc5e07f83abc9cbc1c54,001,2022-04-28_20h12.16.226,classification_task,2021.2.3,MacIntel,59.99880002,60f9bc5e07f83abc9cbc1c54,626b377229c10585ec392f8a,626b3a195faa9641b2715a26,,,,,,,,,,,,,,,,,,,,,,,,,,,,,,,,,,,,,,,2,  ,,0,2.838013485,338.7484,0,0,0,0,1,2,1,,,,,,,,,,,,,,,,,
,60f9bc5e07f83abc9cbc1c54,001,2022-04-28_20h12.16.226,classification_task,2021.2.3,MacIntel,59.99880002,60f9bc5e07f83abc9cbc1c54,626b377229c10585ec392f8a,626b3a195faa9641b2715a26,,,,,,,,,,,,,,,,,,,,,,,,,,,,,,,,,,,,,,,,,,,,,0,0,0,0,1,,1,,,,,,,,,,,,,,,,,
,60f9bc5e07f83abc9cbc1c54,001,2022-04-28_20h12.16.226,classification_task,2021.2.3,MacIntel,59.99880002,60f9bc5e07f83abc9cbc1c54,626b377229c10585ec392f8a,626b3a195faa9641b2715a26,,,,,,,,,,,,,,,,,,,,,space,10.3775,a,1,1.7867,"[""0.284"",""0.343"",""0.681"",""0.959""]","[1,0,1,1]",0,0,0,0,1,0,1,,,0,FALSE,,,,,,,,,,,,,,,,,,,,,,,,,,,,,,
,60f9bc5e07f83abc9cbc1c54,001,2022-04-28_20h12.16.226,classification_task,2021.2.3,MacIntel,59.99880002,60f9bc5e07f83abc9cbc1c54,626b377229c10585ec392f8a,626b3a195faa9641b2715a26,,,,,,,,,,,,,,,,,,,,,,,a,1,1.5184,"[""0.284"",""0.432"",""0.514"",""0.959""]","[1,1,0,1]",0,1,1,1,1,0,1,,,0,FALSE,,,,,,,,,,,,,,,,,,,,,,,,,,,,,,
,60f9bc5e07f83abc9cbc1c54,001,2022-04-28_20h12.16.226,classification_task,2021.2.3,MacIntel,59.99880002,60f9bc5e07f83abc9cbc1c54,626b377229c10585ec392f8a,626b3a195faa9641b2715a26,,,,,,,,,,,,,,,,,,,,,,,a,1,1.3807,"[""0.284"",""0.432"",""0.681"",""0.616""]","[1,1,1,0]",0,2,2,2,1,0,1,,,0,FALSE,,,,,,,,,,,,,,,,,,,,,,,,,,,,,,
,60f9bc5e07f83abc9cbc1c54,001,2022-04-28_20h12.16.226,classification_task,2021.2.3,MacIntel,59.99880002,60f9bc5e07f83abc9cbc1c54,626b377229c10585ec392f8a,626b3a195faa9641b2715a26,,,,,,,,,,,,,,,,,,,,,,,l,1,0.4352,"[""0.070"",""0.169"",""0.551"",""0.028""]","[1,1,1,0]",0,3,3,3,1,1,1,,,0,FALSE,,,,,,,,,,,,,,,,,,,,,,,,,,,,,,
,60f9bc5e07f83abc9cbc1c54,001,2022-04-28_20h12.16.226,classification_task,2021.2.3,MacIntel,59.99880002,60f9bc5e07f83abc9cbc1c54,626b377229c10585ec392f8a,626b3a195faa9641b2715a26,,,,,,,,,,,,,,,,,,,,,,,a,0,0.7679,"[""0.133"",""0.343"",""0.475"",""0.764""]","[1,0,1,1]",0,4,4,4,1,1,0,,,0,FALSE,,,,,,,,,,,,,,,,,,,,,,,,,,,,,,
,60f9bc5e07f83abc9cbc1c54,001,2022-04-28_20h12.16.226,classification_task,2021.2.3,MacIntel,59.99880002,60f9bc5e07f83abc9cbc1c54,626b377229c10585ec392f8a,626b3a195faa9641b2715a26,,,,,,,,,,,,,,,,,,,,,,,l,1,0.5651,"[""0.591"",""0.169"",""0.551"",""0.831""]","[0,1,1,1]",0,5,5,5,1,1,1,,,0,FALSE,,,,,,,,,,,,,,,,,,,,,,,,,,,,,,
,60f9bc5e07f83abc9cbc1c54,001,2022-04-28_20h12.16.226,classification_task,2021.2.3,MacIntel,59.99880002,60f9bc5e07f83abc9cbc1c54,626b377229c10585ec392f8a,626b3a195faa9641b2715a26,,,,,,,,,,,,,,,,,,,,,,,l,1,0.6318,"[""0.070"",""0.169"",""0.320"",""0.831""]","[1,1,0,1]",0,6,6,6,1,1,1,,,0,FALSE,,,,,,,,,,,,,,,,,,,,,,,,,,,,,,
,60f9bc5e07f83abc9cbc1c54,001,2022-04-28_20h12.16.226,classification_task,2021.2.3,MacIntel,59.99880002,60f9bc5e07f83abc9cbc1c54,626b377229c10585ec392f8a,626b3a195faa9641b2715a26,,,,,,,,,,,,,,,,,,,,,,,l,1,0.6391,"[""0.133"",""0.206"",""0.475"",""0.608""]","[1,1,1,0]",0,7,7,7,1,1,0,,,0,FALSE,,,,,,,,,,,,,,,,,,,,,,,,,,,,,,
,60f9bc5e07f83abc9cbc1c54,001,2022-04-28_20h12.16.226,classification_task,2021.2.3,MacIntel,59.99880002,60f9bc5e07f83abc9cbc1c54,626b377229c10585ec392f8a,626b3a195faa9641b2715a26,,,,,,,,,,,,,,,,,,,,,,,a,0,0.3634,"[""0.070"",""0.591"",""0.551"",""0.831""]","[1,0,1,1]",0,8,8,8,1,1,1,,,0,FALSE,,,,,,,,,,,,,,,,,,,,,,,,,,,,,,
,60f9bc5e07f83abc9cbc1c54,001,2022-04-28_20h12.16.226,classification_task,2021.2.3,MacIntel,59.99880002,60f9bc5e07f83abc9cbc1c54,626b377229c10585ec392f8a,626b3a195faa9641b2715a26,,,,,,,,,,,,,,,,,,,,,,,l,0,0.548,"[""0.598"",""0.393"",""0.727"",""0.903""]","[0,1,1,1]",0,9,9,9,1,0,0,,,0,FALSE,,,,,,,,,,,,,,,,,,,,,,,,,,,,,,
,60f9bc5e07f83abc9cbc1c54,001,2022-04-28_20h12.16.226,classification_task,2021.2.3,MacIntel,59.99880002,60f9bc5e07f83abc9cbc1c54,626b377229c10585ec392f8a,626b3a195faa9641b2715a26,,,,,,,,,,,,,,,,,,,,,,,a,1,0.7841,"[""0.242"",""0.393"",""0.727"",""0.588""]","[1,1,1,0]",0,10,10,10,1,0,0,,,0,FALSE,,,,,,,,,,,,,,,,,,,,,,,,,,,,,,
,60f9bc5e07f83abc9cbc1c54,001,2022-04-28_20h12.16.226,classification_task,2021.2.3,MacIntel,59.99880002,60f9bc5e07f83abc9cbc1c54,626b377229c10585ec392f8a,626b3a195faa9641b2715a26,,,,,,,,,,,,,,,,,,,,,,,l,0,0.3173,"[""0.242"",""0.393"",""0.591"",""0.903""]","[1,1,0,1]",0,11,11,11,1,0,0,,,0,FALSE,,,,,,,,,,,,,,,,,,,,,,,,,,,,,,
,60f9bc5e07f83abc9cbc1c54,001,2022-04-28_20h12.16.226,classification_task,2021.2.3,MacIntel,59.99880002,60f9bc5e07f83abc9cbc1c54,626b377229c10585ec392f8a,626b3a195faa9641b2715a26,,,,,,,,,,,,,,,,,,,,,,,a,0,0.7386,"[""0.035"",""0.206"",""0.475"",""0.764""]","[0,1,1,1]",0,12,12,12,1,1,0,,,0,FALSE,,,,,,,,,,,,,,,,,,,,,,,,,,,,,,
,60f9bc5e07f83abc9cbc1c54,001,2022-04-28_20h12.16.226,classification_task,2021.2.3,MacIntel,59.99880002,60f9bc5e07f83abc9cbc1c54,626b377229c10585ec392f8a,626b3a195faa9641b2715a26,,,,,,,,,,,,,,,,,,,,,,,l,0,0.3444,"[""0.032"",""0.432"",""0.681"",""0.959""]","[0,1,1,1]",0,13,13,13,1,0,1,,,0,FALSE,,,,,,,,,,,,,,,,,,,,,,,,,,,,,,
,60f9bc5e07f83abc9cbc1c54,001,2022-04-28_20h12.16.226,classification_task,2021.2.3,MacIntel,59.99880002,60f9bc5e07f83abc9cbc1c54,626b377229c10585ec392f8a,626b3a195faa9641b2715a26,,,,,,,,,,,,,,,,,,,,,,,a,0,0.4524,"[""0.133"",""0.206"",""0.343"",""0.764""]","[1,1,0,1]",0,14,14,14,1,1,0,,,0,FALSE,,,,,,,,,,,,,,,,,,,,,,,,,,,,,,
,60f9bc5e07f83abc9cbc1c54,001,2022-04-28_20h12.16.226,classification_task,2021.2.3,MacIntel,59.99880002,60f9bc5e07f83abc9cbc1c54,626b377229c10585ec392f8a,626b3a195faa9641b2715a26,,,,,,,,,,,,,,,,,,,,,,,a,1,0.4358,"[""0.242"",""0.343"",""0.727"",""0.903""]","[1,0,1,1]",0,15,15,15,1,0,0,,,0,FALSE,,,,,,,,,,,,,,,,,,,,,,,,,,,,,,
,60f9bc5e07f83abc9cbc1c54,001,2022-04-28_20h12.16.226,classification_task,2021.2.3,MacIntel,59.99880002,60f9bc5e07f83abc9cbc1c54,626b377229c10585ec392f8a,626b3a195faa9641b2715a26,,,,,,,,,,,,,,,,,,,,,,,a,1,0.2972,"[""0.284"",""0.591"",""0.681"",""0.959""]","[1,0,1,1]",0,16,16,16,1,0,1,,,0,FALSE,,,,,,,,,,,,,,,,,,,,,,,,,,,,,,
,60f9bc5e07f83abc9cbc1c54,001,2022-04-28_20h12.16.226,classification_task,2021.2.3,MacIntel,59.99880002,60f9bc5e07f83abc9cbc1c54,626b377229c10585ec392f8a,626b3a195faa9641b2715a26,,,,,,,,,,,,,,,,,,,,,,,l,0,0.248,"[""0.284"",""0.432"",""0.681"",""0.324""]","[1,1,1,0]",0,17,17,17,1,0,1,,,0,FALSE,,,,,,,,,,,,,,,,,,,,,,,,,,,,,,
,60f9bc5e07f83abc9cbc1c54,001,2022-04-28_20h12.16.226,classification_task,2021.2.3,MacIntel,59.99880002,60f9bc5e07f83abc9cbc1c54,626b377229c10585ec392f8a,626b3a195faa9641b2715a26,,,,,,,,,,,,,,,,,,,,,,,a,1,0.2336,"[""0.588"",""0.393"",""0.727"",""0.903""]","[0,1,1,1]",0,18,18,18,1,0,0,,,0,FALSE,,,,,,,,,,,,,,,,,,,,,,,,,,,,,,
,60f9bc5e07f83abc9cbc1c54,001,2022-04-28_20h12.16.226,classification_task,2021.2.3,MacIntel,59.99880002,60f9bc5e07f83abc9cbc1c54,626b377229c10585ec392f8a,626b3a195faa9641b2715a26,,,,,,,,,,,,,,,,,,,,,,,a,1,0.2163,"[""0.284"",""0.432"",""0.598"",""0.959""]","[1,1,0,1]",0,19,19,19,1,0,1,,,0,FALSE,,,,,,,,,,,,,,,,,,,,,,,,,,,,,,
,60f9bc5e07f83abc9cbc1c54,001,2022-04-28_20h12.16.226,classification_task,2021.2.3,MacIntel,59.99880002,60f9bc5e07f83abc9cbc1c54,626b377229c10585ec392f8a,626b3a195faa9641b2715a26,,,,,,,,,,,,,,,,,,,,,,,l,1,0.2798,"[""0.032"",""0.206"",""0.475"",""0.764""]","[0,1,1,1]",0,20,20,20,1,1,0,,,0,FALSE,,,,,,,,,,,,,,,,,,,,,,,,,,,,,,
,60f9bc5e07f83abc9cbc1c54,001,2022-04-28_20h12.16.226,classification_task,2021.2.3,MacIntel,59.99880002,60f9bc5e07f83abc9cbc1c54,626b377229c10585ec392f8a,626b3a195faa9641b2715a26,,,,,,,,,,,,,,,,,,,,,,,a,0,0.1203,"[""0.133"",""0.032"",""0.475"",""0.764""]","[1,0,1,1]",0,21,21,21,1,1,0,,,0,FALSE,,,,,,,,,,,,,,,,,,,,,,,,,,,,,,
,60f9bc5e07f83abc9cbc1c54,001,2022-04-28_20h12.16.226,classification_task,2021.2.3,MacIntel,59.99880002,60f9bc5e07f83abc9cbc1c54,626b377229c10585ec392f8a,626b3a195faa9641b2715a26,,,,,,,,,,,,,,,,,,,,,,,l,0,0.1816,"[""0.242"",""0.393"",""0.727"",""0.616""]","[1,1,1,0]",0,22,22,22,1,0,0,,,0,FALSE,,,,,,,,,,,,,,,,,,,,,,,,,,,,,,
,60f9bc5e07f83abc9cbc1c54,001,2022-04-28_20h12.16.226,classification_task,2021.2.3,MacIntel,59.99880002,60f9bc5e07f83abc9cbc1c54,626b377229c10585ec392f8a,626b3a195faa9641b2715a26,,,,,,,,,,,,,,,,,,,,,,,l,1,0.0707,"[""0.133"",""0.206"",""0.475"",""0.320""]","[1,1,1,0]",0,23,23,23,1,1,0,,,0,FALSE,,,,,,,,,,,,,,,,,,,,,,,,,,,,,,
,60f9bc5e07f83abc9cbc1c54,001,2022-04-28_20h12.16.226,classification_task,2021.2.3,MacIntel,59.99880002,60f9bc5e07f83abc9cbc1c54,626b377229c10585ec392f8a,626b3a195faa9641b2715a26,,,,,,,,,,,,,,,,,,,,,,,a,0,1.0844,"[""0.346"",""0.169"",""0.551"",""0.831""]","[0,1,1,1]",0,24,24,24,1,1,1,,,0,FALSE,,,,,,,,,,,,,,,,,,,,,,,,,,,,,,
,60f9bc5e07f83abc9cbc1c54,001,2022-04-28_20h12.16.226,classification_task,2021.2.3,MacIntel,59.99880002,60f9bc5e07f83abc9cbc1c54,626b377229c10585ec392f8a,626b3a195faa9641b2715a26,,,,,,,,,,,,,,,,,,,,,,,l,0,0.7681,"[""0.242"",""0.343"",""0.727"",""0.903""]","[1,0,1,1]",0,25,25,25,1,0,0,,,0,FALSE,,,,,,,,,,,,,,,,,,,,,,,,,,,,,,
,60f9bc5e07f83abc9cbc1c54,001,2022-04-28_20h12.16.226,classification_task,2021.2.3,MacIntel,59.99880002,60f9bc5e07f83abc9cbc1c54,626b377229c10585ec392f8a,626b3a195faa9641b2715a26,,,,,,,,,,,,,,,,,,,,,,,a,0,1.1181,"[""0.070"",""0.169"",""0.608"",""0.831""]","[1,1,0,1]",0,26,26,26,1,1,1,,,0,FALSE,,,,,,,,,,,,,,,,,,,,,,,,,,,,,,
,60f9bc5e07f83abc9cbc1c54,001,2022-04-28_20h12.16.226,classification_task,2021.2.3,MacIntel,59.99880002,60f9bc5e07f83abc9cbc1c54,626b377229c10585ec392f8a,626b3a195faa9641b2715a26,,,,,,,,,,,,,,,,,,,,,,,a,1,0.8131,"[""0.599"",""0.432"",""0.681"",""0.959""]","[0,1,1,1]",0,27,27,27,1,0,1,,,0,FALSE,,,,,,,,,,,,,,,,,,,,,,,,,,,,,,
,60f9bc5e07f83abc9cbc1c54,001,2022-04-28_20h12.16.226,classification_task,2021.2.3,MacIntel,59.99880002,60f9bc5e07f83abc9cbc1c54,626b377229c10585ec392f8a,626b3a195faa9641b2715a26,,,,,,,,,,,,,,,,,,,,,,,a,0,0.6451,"[""0.133"",""0.206"",""0.320"",""0.764""]","[1,1,0,1]",0,28,28,28,1,1,0,,,0,FALSE,,,,,,,,,,,,,,,,,,,,,,,,,,,,,,
,60f9bc5e07f83abc9cbc1c54,001,2022-04-28_20h12.16.226,classification_task,2021.2.3,MacIntel,59.99880002,60f9bc5e07f83abc9cbc1c54,626b377229c10585ec392f8a,626b3a195faa9641b2715a26,,,,,,,,,,,,,,,,,,,,,,,l,0,0.5326,"[""0.242"",""0.393"",""0.598"",""0.903""]","[1,1,0,1]",0,29,29,29,1,0,0,,,0,FALSE,,,,,,,,,,,,,,,,,,,,,,,,,,,,,,
,60f9bc5e07f83abc9cbc1c54,001,2022-04-28_20h12.16.226,classification_task,2021.2.3,MacIntel,59.99880002,60f9bc5e07f83abc9cbc1c54,626b377229c10585ec392f8a,626b3a195faa9641b2715a26,,,,,,,,,,,,,,,,,,,,,,,l,1,0.2994,"[""0.070"",""0.169"",""0.551"",""0.599""]","[1,1,1,0]",0,30,30,30,1,1,1,,,0,FALSE,,,,,,,,,,,,,,,,,,,,,,,,,,,,,,
,60f9bc5e07f83abc9cbc1c54,001,2022-04-28_20h12.16.226,classification_task,2021.2.3,MacIntel,59.99880002,60f9bc5e07f83abc9cbc1c54,626b377229c10585ec392f8a,626b3a195faa9641b2715a26,,,,,,,,,,,,,,,,,,,,,,,l,1,0.4009,"[""0.070"",""0.591"",""0.551"",""0.831""]","[1,0,1,1]",0,31,31,31,1,1,1,,,0,FALSE,,,,,,,,,,,,,,,,,,,,,,,,,,,,,,
,60f9bc5e07f83abc9cbc1c54,001,2022-04-28_20h12.16.226,classification_task,2021.2.3,MacIntel,59.99880002,60f9bc5e07f83abc9cbc1c54,626b377229c10585ec392f8a,626b3a195faa9641b2715a26,,,,,,,,,,,,,,,,,,,,,,,a,1,0.5983,"[""0.284"",""0.432"",""0.032"",""0.959""]","[1,1,0,1]",0,32,32,32,1,0,1,,,0,FALSE,,,,,,,,,,,,,,,,,,,,,,,,,,,,,,
,60f9bc5e07f83abc9cbc1c54,001,2022-04-28_20h12.16.226,classification_task,2021.2.3,MacIntel,59.99880002,60f9bc5e07f83abc9cbc1c54,626b377229c10585ec392f8a,626b3a195faa9641b2715a26,,,,,,,,,,,,,,,,,,,,,,,l,0,0.4821,"[""0.598"",""0.432"",""0.681"",""0.959""]","[0,1,1,1]",0,33,33,33,1,0,1,,,0,FALSE,,,,,,,,,,,,,,,,,,,,,,,,,,,,,,
,60f9bc5e07f83abc9cbc1c54,001,2022-04-28_20h12.16.226,classification_task,2021.2.3,MacIntel,59.99880002,60f9bc5e07f83abc9cbc1c54,626b377229c10585ec392f8a,626b3a195faa9641b2715a26,,,,,,,,,,,,,,,,,,,,,,,a,0,0.4139,"[""0.070"",""0.169"",""0.514"",""0.831""]","[1,1,0,1]",0,34,34,34,1,1,1,,,0,FALSE,,,,,,,,,,,,,,,,,,,,,,,,,,,,,,
,60f9bc5e07f83abc9cbc1c54,001,2022-04-28_20h12.16.226,classification_task,2021.2.3,MacIntel,59.99880002,60f9bc5e07f83abc9cbc1c54,626b377229c10585ec392f8a,626b3a195faa9641b2715a26,,,,,,,,,,,,,,,,,,,,,,,a,0,0.4204,"[""0.133"",""0.206"",""0.475"",""0.032""]","[1,1,1,0]",0,35,35,35,1,1,0,,,0,FALSE,,,,,,,,,,,,,,,,,,,,,,,,,,,,,,
,60f9bc5e07f83abc9cbc1c54,001,2022-04-28_20h12.16.226,classification_task,2021.2.3,MacIntel,59.99880002,60f9bc5e07f83abc9cbc1c54,626b377229c10585ec392f8a,626b3a195faa9641b2715a26,,,,,,,,,,,,,,,,,,,,,,,l,1,0.3339,"[""0.070"",""0.599"",""0.551"",""0.831""]","[1,0,1,1]",0,36,36,36,1,1,1,,,0,FALSE,,,,,,,,,,,,,,,,,,,,,,,,,,,,,,
,60f9bc5e07f83abc9cbc1c54,001,2022-04-28_20h12.16.226,classification_task,2021.2.3,MacIntel,59.99880002,60f9bc5e07f83abc9cbc1c54,626b377229c10585ec392f8a,626b3a195faa9641b2715a26,,,,,,,,,,,,,,,,,,,,,,,l,0,0.3291,"[""0.320"",""0.393"",""0.727"",""0.903""]","[0,1,1,1]",0,37,37,37,1,0,0,,,0,FALSE,,,,,,,,,,,,,,,,,,,,,,,,,,,,,,
,60f9bc5e07f83abc9cbc1c54,001,2022-04-28_20h12.16.226,classification_task,2021.2.3,MacIntel,59.99880002,60f9bc5e07f83abc9cbc1c54,626b377229c10585ec392f8a,626b3a195faa9641b2715a26,,,,,,,,,,,,,,,,,,,,,,,a,1,0.3652,"[""0.284"",""0.591"",""0.681"",""0.959""]","[1,0,1,1]",0,38,38,38,1,0,1,,,0,FALSE,,,,,,,,,,,,,,,,,,,,,,,,,,,,,,
,60f9bc5e07f83abc9cbc1c54,001,2022-04-28_20h12.16.226,classification_task,2021.2.3,MacIntel,59.99880002,60f9bc5e07f83abc9cbc1c54,626b377229c10585ec392f8a,626b3a195faa9641b2715a26,,,,,,,,,,,,,,,,,,,,,,,l,1,0.43,"[""0.070"",""0.169"",""0.551"",""0.320""]","[1,1,1,0]",0,39,39,39,1,1,1,,,0,FALSE,,,,,,,,,,,,,,,,,,,,,,,,,,,,,,
,60f9bc5e07f83abc9cbc1c54,001,2022-04-28_20h12.16.226,classification_task,2021.2.3,MacIntel,59.99880002,60f9bc5e07f83abc9cbc1c54,626b377229c10585ec392f8a,626b3a195faa9641b2715a26,,,,,,,,,,,,,,,,,,,,,,,a,1,0.4005,"[""0.284"",""0.432"",""0.681"",""0.346""]","[1,1,1,0]",0,40,40,40,1,0,1,,,0,FALSE,,,,,,,,,,,,,,,,,,,,,,,,,,,,,,
,60f9bc5e07f83abc9cbc1c54,001,2022-04-28_20h12.16.226,classification_task,2021.2.3,MacIntel,59.99880002,60f9bc5e07f83abc9cbc1c54,626b377229c10585ec392f8a,626b3a195faa9641b2715a26,,,,,,,,,,,,,,,,,,,,,,,a,1,0.5676,"[""0.242"",""0.393"",""0.727"",""0.346""]","[1,1,1,0]",0,41,41,41,1,0,0,,,0,FALSE,,,,,,,,,,,,,,,,,,,,,,,,,,,,,,
,60f9bc5e07f83abc9cbc1c54,001,2022-04-28_20h12.16.226,classification_task,2021.2.3,MacIntel,59.99880002,60f9bc5e07f83abc9cbc1c54,626b377229c10585ec392f8a,626b3a195faa9641b2715a26,,,,,,,,,,,,,,,,,,,,,,,a,0,0.5491,"[""0.598"",""0.206"",""0.475"",""0.764""]","[0,1,1,1]",0,42,42,42,1,1,0,,,0,FALSE,,,,,,,,,,,,,,,,,,,,,,,,,,,,,,
,60f9bc5e07f83abc9cbc1c54,001,2022-04-28_20h12.16.226,classification_task,2021.2.3,MacIntel,59.99880002,60f9bc5e07f83abc9cbc1c54,626b377229c10585ec392f8a,626b3a195faa9641b2715a26,,,,,,,,,,,,,,,,,,,,,,,l,1,0.5986,"[""0.032"",""0.169"",""0.551"",""0.831""]","[0,1,1,1]",0,43,43,43,1,1,1,,,0,FALSE,,,,,,,,,,,,,,,,,,,,,,,,,,,,,,
,60f9bc5e07f83abc9cbc1c54,001,2022-04-28_20h12.16.226,classification_task,2021.2.3,MacIntel,59.99880002,60f9bc5e07f83abc9cbc1c54,626b377229c10585ec392f8a,626b3a195faa9641b2715a26,,,,,,,,,,,,,,,,,,,,,,,l,1,0.7476,"[""0.133"",""0.591"",""0.475"",""0.764""]","[1,0,1,1]",0,44,44,44,1,1,0,,,0,FALSE,,,,,,,,,,,,,,,,,,,,,,,,,,,,,,
,60f9bc5e07f83abc9cbc1c54,001,2022-04-28_20h12.16.226,classification_task,2021.2.3,MacIntel,59.99880002,60f9bc5e07f83abc9cbc1c54,626b377229c10585ec392f8a,626b3a195faa9641b2715a26,,,,,,,,,,,,,,,,,,,,,,,a,0,0.5531,"[""0.133"",""0.206"",""0.608"",""0.764""]","[1,1,0,1]",0,45,45,45,1,1,0,,,0,FALSE,,,,,,,,,,,,,,,,,,,,,,,,,,,,,,
,60f9bc5e07f83abc9cbc1c54,001,2022-04-28_20h12.16.226,classification_task,2021.2.3,MacIntel,59.99880002,60f9bc5e07f83abc9cbc1c54,626b377229c10585ec392f8a,626b3a195faa9641b2715a26,,,,,,,,,,,,,,,,,,,,,,,a,1,0.7661,"[""0.242"",""0.591"",""0.727"",""0.903""]","[1,0,1,1]",0,46,46,46,1,0,0,,,0,FALSE,,,,,,,,,,,,,,,,,,,,,,,,,,,,,,
,60f9bc5e07f83abc9cbc1c54,001,2022-04-28_20h12.16.226,classification_task,2021.2.3,MacIntel,59.99880002,60f9bc5e07f83abc9cbc1c54,626b377229c10585ec392f8a,626b3a195faa9641b2715a26,,,,,,,,,,,,,,,,,,,,,,,l,0,0.5305,"[""0.242"",""0.393"",""0.608"",""0.903""]","[1,1,0,1]",0,47,47,47,1,0,0,,,0,FALSE,,,,,,,,,,,,,,,,,,,,,,,,,,,,,,
,60f9bc5e07f83abc9cbc1c54,001,2022-04-28_20h12.16.226,classification_task,2021.2.3,MacIntel,59.99880002,60f9bc5e07f83abc9cbc1c54,626b377229c10585ec392f8a,626b3a195faa9641b2715a26,,,,,,,,,,,,,,,,,,,,,,,a,0,0.5646,"[""0.320"",""0.169"",""0.551"",""0.831""]","[0,1,1,1]",0,48,48,48,1,1,1,,,0,FALSE,,,,,,,,,,,,,,,,,,,,,,,,,,,,,,
,60f9bc5e07f83abc9cbc1c54,001,2022-04-28_20h12.16.226,classification_task,2021.2.3,MacIntel,59.99880002,60f9bc5e07f83abc9cbc1c54,626b377229c10585ec392f8a,626b3a195faa9641b2715a26,,,,,,,,,,,,,,,,,,,,,,,a,1,0.516,"[""0.242"",""0.393"",""0.727"",""0.343""]","[1,1,1,0]",0,49,49,49,1,0,0,,,0,FALSE,,,,,,,,,,,,,,,,,,,,,,,,,,,,,,
,60f9bc5e07f83abc9cbc1c54,001,2022-04-28_20h12.16.226,classification_task,2021.2.3,MacIntel,59.99880002,60f9bc5e07f83abc9cbc1c54,626b377229c10585ec392f8a,626b3a195faa9641b2715a26,,,,,,,,,,,,,,,,,,,,,,,a,1,0.5215,"[""0.242"",""0.393"",""0.629"",""0.903""]","[1,1,0,1]",0,50,50,50,1,0,0,,,0,FALSE,,,,,,,,,,,,,,,,,,,,,,,,,,,,,,
,60f9bc5e07f83abc9cbc1c54,001,2022-04-28_20h12.16.226,classification_task,2021.2.3,MacIntel,59.99880002,60f9bc5e07f83abc9cbc1c54,626b377229c10585ec392f8a,626b3a195faa9641b2715a26,,,,,,,,,,,,,,,,,,,,,,,a,0,0.4008,"[""0.133"",""0.206"",""0.598"",""0.764""]","[1,1,0,1]",0,51,51,51,1,1,0,,,0,FALSE,,,,,,,,,,,,,,,,,,,,,,,,,,,,,,
,60f9bc5e07f83abc9cbc1c54,001,2022-04-28_20h12.16.226,classification_task,2021.2.3,MacIntel,59.99880002,60f9bc5e07f83abc9cbc1c54,626b377229c10585ec392f8a,626b3a195faa9641b2715a26,,,,,,,,,,,,,,,,,,,,,,,l,0,0.2873,"[""0.284"",""0.432"",""0.681"",""0.324""]","[1,1,1,0]",0,52,52,52,1,0,1,,,0,FALSE,,,,,,,,,,,,,,,,,,,,,,,,,,,,,,
,60f9bc5e07f83abc9cbc1c54,001,2022-04-28_20h12.16.226,classification_task,2021.2.3,MacIntel,59.99880002,60f9bc5e07f83abc9cbc1c54,626b377229c10585ec392f8a,626b3a195faa9641b2715a26,,,,,,,,,,,,,,,,,,,,,,,a,0,0.5165,"[""0.070"",""0.169"",""0.514"",""0.831""]","[1,1,0,1]",0,53,53,53,1,1,1,,,0,FALSE,,,,,,,,,,,,,,,,,,,,,,,,,,,,,,
,60f9bc5e07f83abc9cbc1c54,001,2022-04-28_20h12.16.226,classification_task,2021.2.3,MacIntel,59.99880002,60f9bc5e07f83abc9cbc1c54,626b377229c10585ec392f8a,626b3a195faa9641b2715a26,,,,,,,,,,,,,,,,,,,,,,,a,1,0.1843,"[""0.284"",""0.599"",""0.681"",""0.959""]","[1,0,1,1]",0,54,54,54,1,0,1,,,0,FALSE,,,,,,,,,,,,,,,,,,,,,,,,,,,,,,
,60f9bc5e07f83abc9cbc1c54,001,2022-04-28_20h12.16.226,classification_task,2021.2.3,MacIntel,59.99880002,60f9bc5e07f83abc9cbc1c54,626b377229c10585ec392f8a,626b3a195faa9641b2715a26,,,,,,,,,,,,,,,,,,,,,,,l,1,0.415,"[""0.133"",""0.206"",""0.475"",""0.591""]","[1,1,1,0]",0,55,55,55,1,1,0,,,0,FALSE,,,,,,,,,,,,,,,,,,,,,,,,,,,,,,
,60f9bc5e07f83abc9cbc1c54,001,2022-04-28_20h12.16.226,classification_task,2021.2.3,MacIntel,59.99880002,60f9bc5e07f83abc9cbc1c54,626b377229c10585ec392f8a,626b3a195faa9641b2715a26,,,,,,,,,,,,,,,,,,,,,,,a,0,0.4488,"[""0.133"",""0.320"",""0.475"",""0.764""]","[1,0,1,1]",0,56,56,56,1,1,0,,,0,FALSE,,,,,,,,,,,,,,,,,,,,,,,,,,,,,,
,60f9bc5e07f83abc9cbc1c54,001,2022-04-28_20h12.16.226,classification_task,2021.2.3,MacIntel,59.99880002,60f9bc5e07f83abc9cbc1c54,626b377229c10585ec392f8a,626b3a195faa9641b2715a26,,,,,,,,,,,,,,,,,,,,,,,a,0,0.3543,"[""0.070"",""0.599"",""0.551"",""0.831""]","[1,0,1,1]",0,57,57,57,1,1,1,,,0,FALSE,,,,,,,,,,,,,,,,,,,,,,,,,,,,,,
,60f9bc5e07f83abc9cbc1c54,001,2022-04-28_20h12.16.226,classification_task,2021.2.3,MacIntel,59.99880002,60f9bc5e07f83abc9cbc1c54,626b377229c10585ec392f8a,626b3a195faa9641b2715a26,,,,,,,,,,,,,,,,,,,,,,,a,0,0.302,"[""0.070"",""0.169"",""0.551"",""0.616""]","[1,1,1,0]",0,58,58,58,1,1,1,,,0,FALSE,,,,,,,,,,,,,,,,,,,,,,,,,,,,,,
,60f9bc5e07f83abc9cbc1c54,001,2022-04-28_20h12.16.226,classification_task,2021.2.3,MacIntel,59.99880002,60f9bc5e07f83abc9cbc1c54,626b377229c10585ec392f8a,626b3a195faa9641b2715a26,,,,,,,,,,,,,,,,,,,,,,,l,1,0.2639,"[""0.616"",""0.206"",""0.475"",""0.764""]","[0,1,1,1]",0,59,59,59,1,1,0,,,0,FALSE,,,,,,,,,,,,,,,,,,,,,,,,,,,,,,
,60f9bc5e07f83abc9cbc1c54,001,2022-04-28_20h12.16.226,classification_task,2021.2.3,MacIntel,59.99880002,60f9bc5e07f83abc9cbc1c54,626b377229c10585ec392f8a,626b3a195faa9641b2715a26,,,,,,,,,,,,,,,,,,,,,,,a,1,0.3146,"[""0.242"",""0.616"",""0.727"",""0.903""]","[1,0,1,1]",0,60,60,60,1,0,0,,,0,FALSE,,,,,,,,,,,,,,,,,,,,,,,,,,,,,,
,60f9bc5e07f83abc9cbc1c54,001,2022-04-28_20h12.16.226,classification_task,2021.2.3,MacIntel,59.99880002,60f9bc5e07f83abc9cbc1c54,626b377229c10585ec392f8a,626b3a195faa9641b2715a26,,,,,,,,,,,,,,,,,,,,,,,a,1,0.2997,"[""0.591"",""0.393"",""0.727"",""0.903""]","[0,1,1,1]",0,61,61,61,1,0,0,,,0,FALSE,,,,,,,,,,,,,,,,,,,,,,,,,,,,,,
,60f9bc5e07f83abc9cbc1c54,001,2022-04-28_20h12.16.226,classification_task,2021.2.3,MacIntel,59.99880002,60f9bc5e07f83abc9cbc1c54,626b377229c10585ec392f8a,626b3a195faa9641b2715a26,,,,,,,,,,,,,,,,,,,,,,,a,1,0.2311,"[""0.284"",""0.432"",""0.599"",""0.959""]","[1,1,0,1]",0,62,62,62,1,0,1,,,0,FALSE,,,,,,,,,,,,,,,,,,,,,,,,,,,,,,
,60f9bc5e07f83abc9cbc1c54,001,2022-04-28_20h12.16.226,classification_task,2021.2.3,MacIntel,59.99880002,60f9bc5e07f83abc9cbc1c54,626b377229c10585ec392f8a,626b3a195faa9641b2715a26,,,,,,,,,,,,,,,,,,,,,,,l,0,0.2519,"[""0.028"",""0.432"",""0.681"",""0.959""]","[0,1,1,1]",0,63,63,63,1,0,1,,,0,FALSE,,,,,,,,,,,,,,,,,,,,,,,,,,,,,,
,60f9bc5e07f83abc9cbc1c54,001,2022-04-28_20h12.16.226,classification_task,2021.2.3,MacIntel,59.99880002,60f9bc5e07f83abc9cbc1c54,626b377229c10585ec392f8a,626b3a195faa9641b2715a26,,,,,,,,,,,,,,,,,,,,,,,,,,,,,,,,,,,,,,,0, ,,0,8.104446833,115.5395,0,1,1,1,1,2,2,,,,,,,,,,,,,,,,,
,60f9bc5e07f83abc9cbc1c54,001,2022-04-28_20h12.16.226,classification_task,2021.2.3,MacIntel,59.99880002,60f9bc5e07f83abc9cbc1c54,626b377229c10585ec392f8a,626b3a195faa9641b2715a26,,,,,,,,,,,,,,,,,,,,,,,,,,,,,,,,,,,,,,,1,  ,,0,6.439869929,119.8729,0,1,1,1,1,2,2,,,,,,,,,,,,,,,,,
,60f9bc5e07f83abc9cbc1c54,001,2022-04-28_20h12.16.226,classification_task,2021.2.3,MacIntel,59.99880002,60f9bc5e07f83abc9cbc1c54,626b377229c10585ec392f8a,626b3a195faa9641b2715a26,,,,,,,,,,,,,,,,,,,,,,,,,,,,,,,,,,,,,,,2,  ,,0,3.784033289,122.8103,0,1,1,1,1,2,2,,,,,,,,,,,,,,,,,
,60f9bc5e07f83abc9cbc1c54,001,2022-04-28_20h12.16.226,classification_task,2021.2.3,MacIntel,59.99880002,60f9bc5e07f83abc9cbc1c54,626b377229c10585ec392f8a,626b3a195faa9641b2715a26,,,,,,,,,,,,,,,,,,,,,,,,,,,,,,,,,,,,,,,,,,,,,0,1,1,1,1,,2,,,,,,,,,,,,,,,,,
,60f9bc5e07f83abc9cbc1c54,001,2022-04-28_20h12.16.226,classification_task,2021.2.3,MacIntel,59.99880002,60f9bc5e07f83abc9cbc1c54,626b377229c10585ec392f8a,626b3a195faa9641b2715a26,,,,,,,,,,,,,,,,,,,,,space,8.968,a,1,1.325,"[""0.284"",""0.432"",""0.028"",""0.959""]","[1,1,0,1]",0,0,0,0,1,0,1,,,0,FALSE,,,,,,,,,,,,,,,,,,,,,,,,,,,,,,
,60f9bc5e07f83abc9cbc1c54,001,2022-04-28_20h12.16.226,classification_task,2021.2.3,MacIntel,59.99880002,60f9bc5e07f83abc9cbc1c54,626b377229c10585ec392f8a,626b3a195faa9641b2715a26,,,,,,,,,,,,,,,,,,,,,,,a,0,0.652,"[""0.070"",""0.343"",""0.551"",""0.831""]","[1,0,1,1]",0,1,1,1,1,1,1,,,0,FALSE,,,,,,,,,,,,,,,,,,,,,,,,,,,,,,
,60f9bc5e07f83abc9cbc1c54,001,2022-04-28_20h12.16.226,classification_task,2021.2.3,MacIntel,59.99880002,60f9bc5e07f83abc9cbc1c54,626b377229c10585ec392f8a,626b3a195faa9641b2715a26,,,,,,,,,,,,,,,,,,,,,,,l,1,0.4968,"[""0.070"",""0.169"",""0.028"",""0.831""]","[1,1,0,1]",0,2,2,2,1,1,1,,,0,FALSE,,,,,,,,,,,,,,,,,,,,,,,,,,,,,,
,60f9bc5e07f83abc9cbc1c54,001,2022-04-28_20h12.16.226,classification_task,2021.2.3,MacIntel,59.99880002,60f9bc5e07f83abc9cbc1c54,626b377229c10585ec392f8a,626b3a195faa9641b2715a26,,,,,,,,,,,,,,,,,,,,,,,a,0,0.7984,"[""0.133"",""0.343"",""0.475"",""0.764""]","[1,0,1,1]",0,3,3,3,1,1,0,,,0,FALSE,,,,,,,,,,,,,,,,,,,,,,,,,,,,,,
,60f9bc5e07f83abc9cbc1c54,001,2022-04-28_20h12.16.226,classification_task,2021.2.3,MacIntel,59.99880002,60f9bc5e07f83abc9cbc1c54,626b377229c10585ec392f8a,626b3a195faa9641b2715a26,,,,,,,,,,,,,,,,,,,,,,,a,1,0.6493,"[""0.242"",""0.591"",""0.727"",""0.903""]","[1,0,1,1]",0,4,4,4,1,0,0,,,0,FALSE,,,,,,,,,,,,,,,,,,,,,,,,,,,,,,
,60f9bc5e07f83abc9cbc1c54,001,2022-04-28_20h12.16.226,classification_task,2021.2.3,MacIntel,59.99880002,60f9bc5e07f83abc9cbc1c54,626b377229c10585ec392f8a,626b3a195faa9641b2715a26,,,,,,,,,,,,,,,,,,,,,,,l,0,0.4828,"[""0.588"",""0.393"",""0.727"",""0.903""]","[0,1,1,1]",0,5,5,5,1,0,0,,,0,FALSE,,,,,,,,,,,,,,,,,,,,,,,,,,,,,,
,60f9bc5e07f83abc9cbc1c54,001,2022-04-28_20h12.16.226,classification_task,2021.2.3,MacIntel,59.99880002,60f9bc5e07f83abc9cbc1c54,626b377229c10585ec392f8a,626b3a195faa9641b2715a26,,,,,,,,,,,,,,,,,,,,,,,a,1,0.7334,"[""0.242"",""0.393"",""0.727"",""0.346""]","[1,1,1,0]",0,6,6,6,1,0,0,,,0,FALSE,,,,,,,,,,,,,,,,,,,,,,,,,,,,,,
,60f9bc5e07f83abc9cbc1c54,001,2022-04-28_20h12.16.226,classification_task,2021.2.3,MacIntel,59.99880002,60f9bc5e07f83abc9cbc1c54,626b377229c10585ec392f8a,626b3a195faa9641b2715a26,,,,,,,,,,,,,,,,,,,,,,,a,0,0.4809,"[""0.324"",""0.206"",""0.475"",""0.764""]","[0,1,1,1]",0,7,7,7,1,1,0,,,0,FALSE,,,,,,,,,,,,,,,,,,,,,,,,,,,,,,
,60f9bc5e07f83abc9cbc1c54,001,2022-04-28_20h12.16.226,classification_task,2021.2.3,MacIntel,59.99880002,60f9bc5e07f83abc9cbc1c54,626b377229c10585ec392f8a,626b3a195faa9641b2715a26,,,,,,,,,,,,,,,,,,,,,,,l,1,0.3963,"[""0.133"",""0.206"",""0.320"",""0.764""]","[1,1,0,1]",0,8,8,8,1,1,0,,,0,FALSE,,,,,,,,,,,,,,,,,,,,,,,,,,,,,,
,60f9bc5e07f83abc9cbc1c54,001,2022-04-28_20h12.16.226,classification_task,2021.2.3,MacIntel,59.99880002,60f9bc5e07f83abc9cbc1c54,626b377229c10585ec392f8a,626b3a195faa9641b2715a26,,,,,,,,,,,,,,,,,,,,,,,l,0,0.3819,"[""0.284"",""0.432"",""0.681"",""0.591""]","[1,1,1,0]",0,9,9,9,1,0,1,,,0,FALSE,,,,,,,,,,,,,,,,,,,,,,,,,,,,,,
,60f9bc5e07f83abc9cbc1c54,001,2022-04-28_20h12.16.226,classification_task,2021.2.3,MacIntel,59.99880002,60f9bc5e07f83abc9cbc1c54,626b377229c10585ec392f8a,626b3a195faa9641b2715a26,,,,,,,,,,,,,,,,,,,,,,,a,0,0.3815,"[""0.133"",""0.206"",""0.475"",""0.320""]","[1,1,1,0]",0,10,10,10,1,1,0,,,0,FALSE,,,,,,,,,,,,,,,,,,,,,,,,,,,,,,
,60f9bc5e07f83abc9cbc1c54,001,2022-04-28_20h12.16.226,classification_task,2021.2.3,MacIntel,59.99880002,60f9bc5e07f83abc9cbc1c54,626b377229c10585ec392f8a,626b3a195faa9641b2715a26,,,,,,,,,,,,,,,,,,,,,,,a,1,0.3333,"[""0.284"",""0.343"",""0.681"",""0.959""]","[1,0,1,1]",0,11,11,11,1,0,1,,,0,FALSE,,,,,,,,,,,,,,,,,,,,,,,,,,,,,,
,60f9bc5e07f83abc9cbc1c54,001,2022-04-28_20h12.16.226,classification_task,2021.2.3,MacIntel,59.99880002,60f9bc5e07f83abc9cbc1c54,626b377229c10585ec392f8a,626b3a195faa9641b2715a26,,,,,,,,,,,,,,,,,,,,,,,a,0,0.5488,"[""0.070"",""0.169"",""0.551"",""0.598""]","[1,1,1,0]",0,12,12,12,1,1,1,,,0,FALSE,,,,,,,,,,,,,,,,,,,,,,,,,,,,,,
,60f9bc5e07f83abc9cbc1c54,001,2022-04-28_20h12.16.226,classification_task,2021.2.3,MacIntel,59.99880002,60f9bc5e07f83abc9cbc1c54,626b377229c10585ec392f8a,626b3a195faa9641b2715a26,,,,,,,,,,,,,,,,,,,,,,,a,0,0.2224,"[""0.591"",""0.169"",""0.551"",""0.831""]","[0,1,1,1]",0,13,13,13,1,1,1,,,0,FALSE,,,,,,,,,,,,,,,,,,,,,,,,,,,,,,
,60f9bc5e07f83abc9cbc1c54,001,2022-04-28_20h12.16.226,classification_task,2021.2.3,MacIntel,59.99880002,60f9bc5e07f83abc9cbc1c54,626b377229c10585ec392f8a,626b3a195faa9641b2715a26,,,,,,,,,,,,,,,,,,,,,,,l,0,0.334,"[""0.242"",""0.393"",""0.343"",""0.903""]","[1,1,0,1]",0,14,14,14,1,0,0,,,0,FALSE,,,,,,,,,,,,,,,,,,,,,,,,,,,,,,
,60f9bc5e07f83abc9cbc1c54,001,2022-04-28_20h12.16.226,classification_task,2021.2.3,MacIntel,59.99880002,60f9bc5e07f83abc9cbc1c54,626b377229c10585ec392f8a,626b3a195faa9641b2715a26,,,,,,,,,,,,,,,,,,,,,,,l,0,0.5679,"[""0.514"",""0.432"",""0.681"",""0.959""]","[0,1,1,1]",0,15,15,15,1,0,1,,,0,FALSE,,,,,,,,,,,,,,,,,,,,,,,,,,,,,,
,60f9bc5e07f83abc9cbc1c54,001,2022-04-28_20h12.16.226,classification_task,2021.2.3,MacIntel,59.99880002,60f9bc5e07f83abc9cbc1c54,626b377229c10585ec392f8a,626b3a195faa9641b2715a26,,,,,,,,,,,,,,,,,,,,,,,l,1,0.3693,"[""0.133"",""0.608"",""0.475"",""0.764""]","[1,0,1,1]",0,16,16,16,1,1,0,,,0,FALSE,,,,,,,,,,,,,,,,,,,,,,,,,,,,,,
,60f9bc5e07f83abc9cbc1c54,001,2022-04-28_20h12.16.226,classification_task,2021.2.3,MacIntel,59.99880002,60f9bc5e07f83abc9cbc1c54,626b377229c10585ec392f8a,626b3a195faa9641b2715a26,,,,,,,,,,,,,,,,,,,,,,,l,0,0.697,"[""0.032"",""0.432"",""0.681"",""0.959""]","[0,1,1,1]",0,17,17,17,1,0,1,,,0,FALSE,,,,,,,,,,,,,,,,,,,,,,,,,,,,,,
,60f9bc5e07f83abc9cbc1c54,001,2022-04-28_20h12.16.226,classification_task,2021.2.3,MacIntel,59.99880002,60f9bc5e07f83abc9cbc1c54,626b377229c10585ec392f8a,626b3a195faa9641b2715a26,,,,,,,,,,,,,,,,,,,,,,,a,0,0.6978,"[""0.070"",""0.169"",""0.551"",""0.599""]","[1,1,1,0]",0,18,18,18,1,1,1,,,0,FALSE,,,,,,,,,,,,,,,,,,,,,,,,,,,,,,
,60f9bc5e07f83abc9cbc1c54,001,2022-04-28_20h12.16.226,classification_task,2021.2.3,MacIntel,59.99880002,60f9bc5e07f83abc9cbc1c54,626b377229c10585ec392f8a,626b3a195faa9641b2715a26,,,,,,,,,,,,,,,,,,,,,,,a,1,0.4824,"[""0.284"",""0.432"",""0.681"",""0.608""]","[1,1,1,0]",0,19,19,19,1,0,1,,,0,FALSE,,,,,,,,,,,,,,,,,,,,,,,,,,,,,,
,60f9bc5e07f83abc9cbc1c54,001,2022-04-28_20h12.16.226,classification_task,2021.2.3,MacIntel,59.99880002,60f9bc5e07f83abc9cbc1c54,626b377229c10585ec392f8a,626b3a195faa9641b2715a26,,,,,,,,,,,,,,,,,,,,,,,a,1,0.2995,"[""0.242"",""0.393"",""0.727"",""0.591""]","[1,1,1,0]",0,20,20,20,1,0,0,,,0,FALSE,,,,,,,,,,,,,,,,,,,,,,,,,,,,,,
,60f9bc5e07f83abc9cbc1c54,001,2022-04-28_20h12.16.226,classification_task,2021.2.3,MacIntel,59.99880002,60f9bc5e07f83abc9cbc1c54,626b377229c10585ec392f8a,626b3a195faa9641b2715a26,,,,,,,,,,,,,,,,,,,,,,,l,0,1.0655,"[""0.343"",""0.393"",""0.727"",""0.903""]","[0,1,1,1]",0,21,21,21,1,0,0,,,0,FALSE,,,,,,,,,,,,,,,,,,,,,,,,,,,,,,
,60f9bc5e07f83abc9cbc1c54,001,2022-04-28_20h12.16.226,classification_task,2021.2.3,MacIntel,59.99880002,60f9bc5e07f83abc9cbc1c54,626b377229c10585ec392f8a,626b3a195faa9641b2715a26,,,,,,,,,,,,,,,,,,,,,,,l,1,0.4649,"[""0.629"",""0.169"",""0.551"",""0.831""]","[0,1,1,1]",0,22,22,22,1,1,1,,,0,FALSE,,,,,,,,,,,,,,,,,,,,,,,,,,,,,,
,60f9bc5e07f83abc9cbc1c54,001,2022-04-28_20h12.16.226,classification_task,2021.2.3,MacIntel,59.99880002,60f9bc5e07f83abc9cbc1c54,626b377229c10585ec392f8a,626b3a195faa9641b2715a26,,,,,,,,,,,,,,,,,,,,,,,a,0,0.4151,"[""0.070"",""0.035"",""0.551"",""0.831""]","[1,0,1,1]",0,23,23,23,1,1,1,,,0,FALSE,,,,,,,,,,,,,,,,,,,,,,,,,,,,,,
,60f9bc5e07f83abc9cbc1c54,001,2022-04-28_20h12.16.226,classification_task,2021.2.3,MacIntel,59.99880002,60f9bc5e07f83abc9cbc1c54,626b377229c10585ec392f8a,626b3a195faa9641b2715a26,,,,,,,,,,,,,,,,,,,,,,,l,1,0.3305,"[""0.070"",""0.169"",""0.346"",""0.831""]","[1,1,0,1]",0,24,24,24,1,1,1,,,0,FALSE,,,,,,,,,,,,,,,,,,,,,,,,,,,,,,
,60f9bc5e07f83abc9cbc1c54,001,2022-04-28_20h12.16.226,classification_task,2021.2.3,MacIntel,59.99880002,60f9bc5e07f83abc9cbc1c54,626b377229c10585ec392f8a,626b3a195faa9641b2715a26,,,,,,,,,,,,,,,,,,,,,,,a,0,0.5124,"[""0.133"",""0.206"",""0.591"",""0.764""]","[1,1,0,1]",0,25,25,25,1,1,0,,,0,FALSE,,,,,,,,,,,,,,,,,,,,,,,,,,,,,,
,60f9bc5e07f83abc9cbc1c54,001,2022-04-28_20h12.16.226,classification_task,2021.2.3,MacIntel,59.99880002,60f9bc5e07f83abc9cbc1c54,626b377229c10585ec392f8a,626b3a195faa9641b2715a26,,,,,,,,,,,,,,,,,,,,,,,a,1,0.6818,"[""0.242"",""0.393"",""0.035"",""0.903""]","[1,1,0,1]",0,26,26,26,1,0,0,,,0,FALSE,,,,,,,,,,,,,,,,,,,,,,,,,,,,,,
,60f9bc5e07f83abc9cbc1c54,001,2022-04-28_20h12.16.226,classification_task,2021.2.3,MacIntel,59.99880002,60f9bc5e07f83abc9cbc1c54,626b377229c10585ec392f8a,626b3a195faa9641b2715a26,,,,,,,,,,,,,,,,,,,,,,,a,0,0.3334,"[""0.320"",""0.206"",""0.475"",""0.764""]","[0,1,1,1]",0,27,27,27,1,1,0,,,0,FALSE,,,,,,,,,,,,,,,,,,,,,,,,,,,,,,
,60f9bc5e07f83abc9cbc1c54,001,2022-04-28_20h12.16.226,classification_task,2021.2.3,MacIntel,59.99880002,60f9bc5e07f83abc9cbc1c54,626b377229c10585ec392f8a,626b3a195faa9641b2715a26,,,,,,,,,,,,,,,,,,,,,,,l,0,0.3323,"[""0.284"",""0.599"",""0.681"",""0.959""]","[1,0,1,1]",0,28,28,28,1,0,1,,,0,FALSE,,,,,,,,,,,,,,,,,,,,,,,,,,,,,,
,60f9bc5e07f83abc9cbc1c54,001,2022-04-28_20h12.16.226,classification_task,2021.2.3,MacIntel,59.99880002,60f9bc5e07f83abc9cbc1c54,626b377229c10585ec392f8a,626b3a195faa9641b2715a26,,,,,,,,,,,,,,,,,,,,,,,l,0,0.3483,"[""0.284"",""0.432"",""0.032"",""0.959""]","[1,1,0,1]",0,29,29,29,1,0,1,,,0,FALSE,,,,,,,,,,,,,,,,,,,,,,,,,,,,,,
,60f9bc5e07f83abc9cbc1c54,001,2022-04-28_20h12.16.226,classification_task,2021.2.3,MacIntel,59.99880002,60f9bc5e07f83abc9cbc1c54,626b377229c10585ec392f8a,626b3a195faa9641b2715a26,,,,,,,,,,,,,,,,,,,,,,,l,0,0.7151,"[""0.242"",""0.028"",""0.727"",""0.903""]","[1,0,1,1]",0,30,30,30,1,0,0,,,0,FALSE,,,,,,,,,,,,,,,,,,,,,,,,,,,,,,
,60f9bc5e07f83abc9cbc1c54,001,2022-04-28_20h12.16.226,classification_task,2021.2.3,MacIntel,59.99880002,60f9bc5e07f83abc9cbc1c54,626b377229c10585ec392f8a,626b3a195faa9641b2715a26,,,,,,,,,,,,,,,,,,,,,,,l,1,0.6165,"[""0.133"",""0.206"",""0.475"",""0.032""]","[1,1,1,0]",0,31,31,31,1,1,0,,,0,FALSE,,,,,,,,,,,,,,,,,,,,,,,,,,,,,,
,60f9bc5e07f83abc9cbc1c54,001,2022-04-28_20h12.16.226,classification_task,2021.2.3,MacIntel,59.99880002,60f9bc5e07f83abc9cbc1c54,626b377229c10585ec392f8a,626b3a195faa9641b2715a26,,,,,,,,,,,,,,,,,,,,,,,a,1,0.3486,"[""0.598"",""0.432"",""0.681"",""0.959""]","[0,1,1,1]",0,32,32,32,1,0,1,,,0,FALSE,,,,,,,,,,,,,,,,,,,,,,,,,,,,,,
,60f9bc5e07f83abc9cbc1c54,001,2022-04-28_20h12.16.226,classification_task,2021.2.3,MacIntel,59.99880002,60f9bc5e07f83abc9cbc1c54,626b377229c10585ec392f8a,626b3a195faa9641b2715a26,,,,,,,,,,,,,,,,,,,,,,,l,1,0.4812,"[""0.133"",""0.206"",""0.629"",""0.764""]","[1,1,0,1]",0,33,33,33,1,1,0,,,0,FALSE,,,,,,,,,,,,,,,,,,,,,,,,,,,,,,
,60f9bc5e07f83abc9cbc1c54,001,2022-04-28_20h12.16.226,classification_task,2021.2.3,MacIntel,59.99880002,60f9bc5e07f83abc9cbc1c54,626b377229c10585ec392f8a,626b3a195faa9641b2715a26,,,,,,,,,,,,,,,,,,,,,,,a,0,0.6506,"[""0.133"",""0.206"",""0.475"",""0.320""]","[1,1,1,0]",0,34,34,34,1,1,0,,,0,FALSE,,,,,,,,,,,,,,,,,,,,,,,,,,,,,,
,60f9bc5e07f83abc9cbc1c54,001,2022-04-28_20h12.16.226,classification_task,2021.2.3,MacIntel,59.99880002,60f9bc5e07f83abc9cbc1c54,626b377229c10585ec392f8a,626b3a195faa9641b2715a26,,,,,,,,,,,,,,,,,,,,,,,a,0,0.3831,"[""0.070"",""0.035"",""0.551"",""0.831""]","[1,0,1,1]",0,35,35,35,1,1,1,,,0,FALSE,,,,,,,,,,,,,,,,,,,,,,,,,,,,,,
,60f9bc5e07f83abc9cbc1c54,001,2022-04-28_20h12.16.226,classification_task,2021.2.3,MacIntel,59.99880002,60f9bc5e07f83abc9cbc1c54,626b377229c10585ec392f8a,626b3a195faa9641b2715a26,,,,,,,,,,,,,,,,,,,,,,,a,1,0.9983,"[""0.242"",""0.393"",""0.727"",""0.035""]","[1,1,1,0]",0,36,36,36,1,0,0,,,0,FALSE,,,,,,,,,,,,,,,,,,,,,,,,,,,,,,
,60f9bc5e07f83abc9cbc1c54,001,2022-04-28_20h12.16.226,classification_task,2021.2.3,MacIntel,59.99880002,60f9bc5e07f83abc9cbc1c54,626b377229c10585ec392f8a,626b3a195faa9641b2715a26,,,,,,,,,,,,,,,,,,,,,,,l,1,0.5167,"[""0.133"",""0.320"",""0.475"",""0.764""]","[1,0,1,1]",0,37,37,37,1,1,0,,,0,FALSE,,,,,,,,,,,,,,,,,,,,,,,,,,,,,,
,60f9bc5e07f83abc9cbc1c54,001,2022-04-28_20h12.16.226,classification_task,2021.2.3,MacIntel,59.99880002,60f9bc5e07f83abc9cbc1c54,626b377229c10585ec392f8a,626b3a195faa9641b2715a26,,,,,,,,,,,,,,,,,,,,,,,a,0,0.7847,"[""0.070"",""0.169"",""0.551"",""0.346""]","[1,1,1,0]",0,38,38,38,1,1,1,,,0,FALSE,,,,,,,,,,,,,,,,,,,,,,,,,,,,,,
,60f9bc5e07f83abc9cbc1c54,001,2022-04-28_20h12.16.226,classification_task,2021.2.3,MacIntel,59.99880002,60f9bc5e07f83abc9cbc1c54,626b377229c10585ec392f8a,626b3a195faa9641b2715a26,,,,,,,,,,,,,,,,,,,,,,,l,0,0.5168,"[""0.284"",""0.320"",""0.681"",""0.959""]","[1,0,1,1]",0,39,39,39,1,0,1,,,0,FALSE,,,,,,,,,,,,,,,,,,,,,,,,,,,,,,
,60f9bc5e07f83abc9cbc1c54,001,2022-04-28_20h12.16.226,classification_task,2021.2.3,MacIntel,59.99880002,60f9bc5e07f83abc9cbc1c54,626b377229c10585ec392f8a,626b3a195faa9641b2715a26,,,,,,,,,,,,,,,,,,,,,,,a,1,0.5813,"[""0.242"",""0.598"",""0.727"",""0.903""]","[1,0,1,1]",0,40,40,40,1,0,0,,,0,FALSE,,,,,,,,,,,,,,,,,,,,,,,,,,,,,,
,60f9bc5e07f83abc9cbc1c54,001,2022-04-28_20h12.16.226,classification_task,2021.2.3,MacIntel,59.99880002,60f9bc5e07f83abc9cbc1c54,626b377229c10585ec392f8a,626b3a195faa9641b2715a26,,,,,,,,,,,,,,,,,,,,,,,a,0,0.4481,"[""0.591"",""0.169"",""0.551"",""0.831""]","[0,1,1,1]",0,41,41,41,1,1,1,,,0,FALSE,,,,,,,,,,,,,,,,,,,,,,,,,,,,,,
,60f9bc5e07f83abc9cbc1c54,001,2022-04-28_20h12.16.226,classification_task,2021.2.3,MacIntel,59.99880002,60f9bc5e07f83abc9cbc1c54,626b377229c10585ec392f8a,626b3a195faa9641b2715a26,,,,,,,,,,,,,,,,,,,,,,,l,0,1.0153,"[""0.035"",""0.393"",""0.727"",""0.903""]","[0,1,1,1]",0,42,42,42,1,0,0,,,0,FALSE,,,,,,,,,,,,,,,,,,,,,,,,,,,,,,
,60f9bc5e07f83abc9cbc1c54,001,2022-04-28_20h12.16.226,classification_task,2021.2.3,MacIntel,59.99880002,60f9bc5e07f83abc9cbc1c54,626b377229c10585ec392f8a,626b3a195faa9641b2715a26,,,,,,,,,,,,,,,,,,,,,,,a,0,0.6658,"[""0.070"",""0.169"",""0.035"",""0.831""]","[1,1,0,1]",0,43,43,43,1,1,1,,,0,FALSE,,,,,,,,,,,,,,,,,,,,,,,,,,,,,,
,60f9bc5e07f83abc9cbc1c54,001,2022-04-28_20h12.16.226,classification_task,2021.2.3,MacIntel,59.99880002,60f9bc5e07f83abc9cbc1c54,626b377229c10585ec392f8a,626b3a195faa9641b2715a26,,,,,,,,,,,,,,,,,,,,,,,l,0,0.7305,"[""0.242"",""0.393"",""0.032"",""0.903""]","[1,1,0,1]",0,44,44,44,1,0,0,,,0,FALSE,,,,,,,,,,,,,,,,,,,,,,,,,,,,,,
,60f9bc5e07f83abc9cbc1c54,001,2022-04-28_20h12.16.226,classification_task,2021.2.3,MacIntel,59.99880002,60f9bc5e07f83abc9cbc1c54,626b377229c10585ec392f8a,626b3a195faa9641b2715a26,,,,,,,,,,,,,,,,,,,,,,,a,0,0.4651,"[""0.320"",""0.206"",""0.475"",""0.764""]","[0,1,1,1]",0,45,45,45,1,1,0,,,0,FALSE,,,,,,,,,,,,,,,,,,,,,,,,,,,,,,
,60f9bc5e07f83abc9cbc1c54,001,2022-04-28_20h12.16.226,classification_task,2021.2.3,MacIntel,59.99880002,60f9bc5e07f83abc9cbc1c54,626b377229c10585ec392f8a,626b3a195faa9641b2715a26,,,,,,,,,,,,,,,,,,,,,,,l,0,0.7307,"[""0.284"",""0.432"",""0.681"",""0.608""]","[1,1,1,0]",0,46,46,46,1,0,1,,,0,FALSE,,,,,,,,,,,,,,,,,,,,,,,,,,,,,,
,60f9bc5e07f83abc9cbc1c54,001,2022-04-28_20h12.16.226,classification_task,2021.2.3,MacIntel,59.99880002,60f9bc5e07f83abc9cbc1c54,626b377229c10585ec392f8a,626b3a195faa9641b2715a26,,,,,,,,,,,,,,,,,,,,,,,a,1,0.4841,"[""0.284"",""0.432"",""0.616"",""0.959""]","[1,1,0,1]",0,47,47,47,1,0,1,,,0,FALSE,,,,,,,,,,,,,,,,,,,,,,,,,,,,,,
,60f9bc5e07f83abc9cbc1c54,001,2022-04-28_20h12.16.226,classification_task,2021.2.3,MacIntel,59.99880002,60f9bc5e07f83abc9cbc1c54,626b377229c10585ec392f8a,626b3a195faa9641b2715a26,,,,,,,,,,,,,,,,,,,,,,,l,1,0.4676,"[""0.133"",""0.343"",""0.475"",""0.764""]","[1,0,1,1]",0,48,48,48,1,1,0,,,0,FALSE,,,,,,,,,,,,,,,,,,,,,,,,,,,,,,
,60f9bc5e07f83abc9cbc1c54,001,2022-04-28_20h12.16.226,classification_task,2021.2.3,MacIntel,59.99880002,60f9bc5e07f83abc9cbc1c54,626b377229c10585ec392f8a,626b3a195faa9641b2715a26,,,,,,,,,,,,,,,,,,,,,,,a,1,0.9805,"[""0.242"",""0.393"",""0.727"",""0.629""]","[1,1,1,0]",0,49,49,49,1,0,0,,,0,FALSE,,,,,,,,,,,,,,,,,,,,,,,,,,,,,,
,60f9bc5e07f83abc9cbc1c54,001,2022-04-28_20h12.16.226,classification_task,2021.2.3,MacIntel,59.99880002,60f9bc5e07f83abc9cbc1c54,626b377229c10585ec392f8a,626b3a195faa9641b2715a26,,,,,,,,,,,,,,,,,,,,,,,l,0,1.0356,"[""0.284"",""0.432"",""0.032"",""0.959""]","[1,1,0,1]",0,50,50,50,1,0,1,,,0,FALSE,,,,,,,,,,,,,,,,,,,,,,,,,,,,,,
,60f9bc5e07f83abc9cbc1c54,001,2022-04-28_20h12.16.226,classification_task,2021.2.3,MacIntel,59.99880002,60f9bc5e07f83abc9cbc1c54,626b377229c10585ec392f8a,626b3a195faa9641b2715a26,,,,,,,,,,,,,,,,,,,,,,,l,0,0.3488,"[""0.242"",""0.393"",""0.588"",""0.903""]","[1,1,0,1]",0,51,51,51,1,0,0,,,0,FALSE,,,,,,,,,,,,,,,,,,,,,,,,,,,,,,
,60f9bc5e07f83abc9cbc1c54,001,2022-04-28_20h12.16.226,classification_task,2021.2.3,MacIntel,59.99880002,60f9bc5e07f83abc9cbc1c54,626b377229c10585ec392f8a,626b3a195faa9641b2715a26,,,,,,,,,,,,,,,,,,,,,,,l,0,0.3202,"[""0.242"",""0.629"",""0.727"",""0.903""]","[1,0,1,1]",0,52,52,52,1,0,0,,,0,FALSE,,,,,,,,,,,,,,,,,,,,,,,,,,,,,,
,60f9bc5e07f83abc9cbc1c54,001,2022-04-28_20h12.16.226,classification_task,2021.2.3,MacIntel,59.99880002,60f9bc5e07f83abc9cbc1c54,626b377229c10585ec392f8a,626b3a195faa9641b2715a26,,,,,,,,,,,,,,,,,,,,,,,l,0,0.3481,"[""0.608"",""0.432"",""0.681"",""0.959""]","[0,1,1,1]",0,53,53,53,1,0,1,,,0,FALSE,,,,,,,,,,,,,,,,,,,,,,,,,,,,,,
,60f9bc5e07f83abc9cbc1c54,001,2022-04-28_20h12.16.226,classification_task,2021.2.3,MacIntel,59.99880002,60f9bc5e07f83abc9cbc1c54,626b377229c10585ec392f8a,626b3a195faa9641b2715a26,,,,,,,,,,,,,,,,,,,,,,,l,1,0.3636,"[""0.591"",""0.206"",""0.475"",""0.764""]","[0,1,1,1]",0,54,54,54,1,1,0,,,0,FALSE,,,,,,,,,,,,,,,,,,,,,,,,,,,,,,
,60f9bc5e07f83abc9cbc1c54,001,2022-04-28_20h12.16.226,classification_task,2021.2.3,MacIntel,59.99880002,60f9bc5e07f83abc9cbc1c54,626b377229c10585ec392f8a,626b3a195faa9641b2715a26,,,,,,,,,,,,,,,,,,,,,,,l,0,0.4656,"[""0.284"",""0.032"",""0.681"",""0.959""]","[1,0,1,1]",0,55,55,55,1,0,1,,,0,FALSE,,,,,,,,,,,,,,,,,,,,,,,,,,,,,,
,60f9bc5e07f83abc9cbc1c54,001,2022-04-28_20h12.16.226,classification_task,2021.2.3,MacIntel,59.99880002,60f9bc5e07f83abc9cbc1c54,626b377229c10585ec392f8a,626b3a195faa9641b2715a26,,,,,,,,,,,,,,,,,,,,,,,a,0,0.7657,"[""0.070"",""0.346"",""0.551"",""0.831""]","[1,0,1,1]",0,56,56,56,1,1,1,,,0,FALSE,,,,,,,,,,,,,,,,,,,,,,,,,,,,,,
,60f9bc5e07f83abc9cbc1c54,001,2022-04-28_20h12.16.226,classification_task,2021.2.3,MacIntel,59.99880002,60f9bc5e07f83abc9cbc1c54,626b377229c10585ec392f8a,626b3a195faa9641b2715a26,,,,,,,,,,,,,,,,,,,,,,,l,1,0.55,"[""0.133"",""0.206"",""0.320"",""0.764""]","[1,1,0,1]",0,57,57,57,1,1,0,,,0,FALSE,,,,,,,,,,,,,,,,,,,,,,,,,,,,,,
,60f9bc5e07f83abc9cbc1c54,001,2022-04-28_20h12.16.226,classification_task,2021.2.3,MacIntel,59.99880002,60f9bc5e07f83abc9cbc1c54,626b377229c10585ec392f8a,626b3a195faa9641b2715a26,,,,,,,,,,,,,,,,,,,,,,,l,1,0.6126,"[""0.343"",""0.169"",""0.551"",""0.831""]","[0,1,1,1]",0,58,58,58,1,1,1,,,0,FALSE,,,,,,,,,,,,,,,,,,,,,,,,,,,,,,
,60f9bc5e07f83abc9cbc1c54,001,2022-04-28_20h12.16.226,classification_task,2021.2.3,MacIntel,59.99880002,60f9bc5e07f83abc9cbc1c54,626b377229c10585ec392f8a,626b3a195faa9641b2715a26,,,,,,,,,,,,,,,,,,,,,,,l,1,0.252,"[""0.070"",""0.169"",""0.551"",""0.514""]","[1,1,1,0]",0,59,59,59,1,1,1,,,0,FALSE,,,,,,,,,,,,,,,,,,,,,,,,,,,,,,
,60f9bc5e07f83abc9cbc1c54,001,2022-04-28_20h12.16.226,classification_task,2021.2.3,MacIntel,59.99880002,60f9bc5e07f83abc9cbc1c54,626b377229c10585ec392f8a,626b3a195faa9641b2715a26,,,,,,,,,,,,,,,,,,,,,,,a,0,0.8686,"[""0.070"",""0.169"",""0.324"",""0.831""]","[1,1,0,1]",0,60,60,60,1,1,1,,,0,FALSE,,,,,,,,,,,,,,,,,,,,,,,,,,,,,,
,60f9bc5e07f83abc9cbc1c54,001,2022-04-28_20h12.16.226,classification_task,2021.2.3,MacIntel,59.99880002,60f9bc5e07f83abc9cbc1c54,626b377229c10585ec392f8a,626b3a195faa9641b2715a26,,,,,,,,,,,,,,,,,,,,,,,l,0,0.5495,"[""0.284"",""0.432"",""0.681"",""0.032""]","[1,1,1,0]",0,61,61,61,1,0,1,,,0,FALSE,,,,,,,,,,,,,,,,,,,,,,,,,,,,,,
,60f9bc5e07f83abc9cbc1c54,001,2022-04-28_20h12.16.226,classification_task,2021.2.3,MacIntel,59.99880002,60f9bc5e07f83abc9cbc1c54,626b377229c10585ec392f8a,626b3a195faa9641b2715a26,,,,,,,,,,,,,,,,,,,,,,,l,0,0.3646,"[""0.032"",""0.393"",""0.727"",""0.903""]","[0,1,1,1]",0,62,62,62,1,0,0,,,0,FALSE,,,,,,,,,,,,,,,,,,,,,,,,,,,,,,
,60f9bc5e07f83abc9cbc1c54,001,2022-04-28_20h12.16.226,classification_task,2021.2.3,MacIntel,59.99880002,60f9bc5e07f83abc9cbc1c54,626b377229c10585ec392f8a,626b3a195faa9641b2715a26,,,,,,,,,,,,,,,,,,,,,,,a,0,0.8496,"[""0.133"",""0.206"",""0.475"",""0.608""]","[1,1,1,0]",0,63,63,63,1,1,0,,,0,FALSE,,,,,,,,,,,,,,,,,,,,,,,,,,,,,,
,60f9bc5e07f83abc9cbc1c54,001,2022-04-28_20h12.16.226,classification_task,2021.2.3,MacIntel,59.99880002,60f9bc5e07f83abc9cbc1c54,626b377229c10585ec392f8a,626b3a195faa9641b2715a26,,,,,,,,,,,,,,,,,,,,,,,,,,,,,,,,,,,,,,,0, ,,0,6.486372906,113.3053,0,2,2,2,1,2,3,,,,,,,,,,,,,,,,,
,60f9bc5e07f83abc9cbc1c54,001,2022-04-28_20h12.16.226,classification_task,2021.2.3,MacIntel,59.99880002,60f9bc5e07f83abc9cbc1c54,626b377229c10585ec392f8a,626b3a195faa9641b2715a26,,,,,,,,,,,,,,,,,,,,,,,,,,,,,,,,,,,,,,,1,  ,,0,6.177845752,116.4148,0,2,2,2,1,2,3,,,,,,,,,,,,,,,,,
,60f9bc5e07f83abc9cbc1c54,001,2022-04-28_20h12.16.226,classification_task,2021.2.3,MacIntel,59.99880002,60f9bc5e07f83abc9cbc1c54,626b377229c10585ec392f8a,626b3a195faa9641b2715a26,,,,,,,,,,,,,,,,,,,,,,,,,,,,,,,,,,,,,,,2,  ,,0,3.382270539,117.6004,0,2,2,2,1,2,3,,,,,,,,,,,,,,,,,
,60f9bc5e07f83abc9cbc1c54,001,2022-04-28_20h12.16.226,classification_task,2021.2.3,MacIntel,59.99880002,60f9bc5e07f83abc9cbc1c54,626b377229c10585ec392f8a,626b3a195faa9641b2715a26,,,,,,,,,,,,,,,,,,,,,,,,,,,,,,,,,,,,,,,,,,,,,0,2,2,2,1,,3,,,,,,,,,,,,,,,,,
,60f9bc5e07f83abc9cbc1c54,001,2022-04-28_20h12.16.226,classification_task,2021.2.3,MacIntel,59.99880002,60f9bc5e07f83abc9cbc1c54,626b377229c10585ec392f8a,626b3a195faa9641b2715a26,,,,,,,,,,,,,,,,,,,,,,,,,,,,,,,,,,,,,,,,,,,,,,,,,,,,,I believe the aid is a competent performer,,0.7,0,4,621.5049,0,0,0,0,1,0,,,,
,60f9bc5e07f83abc9cbc1c54,001,2022-04-28_20h12.16.226,classification_task,2021.2.3,MacIntel,59.99880002,60f9bc5e07f83abc9cbc1c54,626b377229c10585ec392f8a,626b3a195faa9641b2715a26,,,,,,,,,,,,,,,,,,,,,,,,,,,,,,,,,,,,,,,,,,,,,,,,,,,,,I trust the aid,,0.7,0,3,607.416,0,0,0,0,1,0,,,,
,60f9bc5e07f83abc9cbc1c54,001,2022-04-28_20h12.16.226,classification_task,2021.2.3,MacIntel,59.99880002,60f9bc5e07f83abc9cbc1c54,626b377229c10585ec392f8a,626b3a195faa9641b2715a26,,,,,,,,,,,,,,,,,,,,,,,,,,,,,,,,,,,,,,,,,,,,,,,,,,,,,I have confidence in the advice given by the aid,,0.7,0,3,615.4136,0,0,0,0,1,0,,,,
,60f9bc5e07f83abc9cbc1c54,001,2022-04-28_20h12.16.226,classification_task,2021.2.3,MacIntel,59.99880002,60f9bc5e07f83abc9cbc1c54,626b377229c10585ec392f8a,626b3a195faa9641b2715a26,,,,,,,,,,,,,,,,,,,,,,,,,,,,,,,,,,,,,,,,,,,,,,,,,,,,,I can depend on the aid,,0.7,0,4,619.6383,0,0,0,0,1,0,,,,
,60f9bc5e07f83abc9cbc1c54,001,2022-04-28_20h12.16.226,classification_task,2021.2.3,MacIntel,59.99880002,60f9bc5e07f83abc9cbc1c54,626b377229c10585ec392f8a,626b3a195faa9641b2715a26,,,,,,,,,,,,,,,,,,,,,,,,,,,,,,,,,,,,,,,,,,,,,,,,,,,,,I can rely on the aid to behave in consistent ways,,0.7,0,4,622.5541,0,0,0,0,1,0,,,,
,60f9bc5e07f83abc9cbc1c54,001,2022-04-28_20h12.16.226,classification_task,2021.2.3,MacIntel,59.99880002,60f9bc5e07f83abc9cbc1c54,626b377229c10585ec392f8a,626b3a195faa9641b2715a26,,,,,,,,,,,,,,,,,,,,,,,,,,,,,,,,,,,,,,,,,,,,,,,,,,,,,I can rely on the aid to do its best every time I take its advice,,0.7,0,3,627.7081,0,0,0,0,1,0,,,,
,60f9bc5e07f83abc9cbc1c54,001,2022-04-28_20h12.16.226,classification_task,2021.2.3,MacIntel,59.99880002,60f9bc5e07f83abc9cbc1c54,626b377229c10585ec392f8a,626b3a195faa9641b2715a26,,,,,,,,,,,,,,,,,,,,,,,,,,,,,,,,,,,,,,,,,,,,,,,,,,,,,"On trials you completed with assistance from the aid, how frequently did you think the aid was correct?",,0.7,0,60,,0,0,0,0,1,0,,,,
,60f9bc5e07f83abc9cbc1c54,001,2022-04-28_20h12.16.226,classification_task,2021.2.3,MacIntel,59.99880002,60f9bc5e07f83abc9cbc1c54,626b377229c10585ec392f8a,626b3a195faa9641b2715a26,,,,,,,,,,,,,,,,,,,,,,,,,,,,,,,,,,,,,,,,,,,,,,,,,,,,,"On trials you completed without the aid, how frequently did you think you were correct?",,0.7,0,40,,0,0,0,0,1,0,,,,
,60f9bc5e07f83abc9cbc1c54,001,2022-04-28_20h12.16.226,classification_task,2021.2.3,MacIntel,59.99880002,60f9bc5e07f83abc9cbc1c54,626b377229c10585ec392f8a,626b3a195faa9641b2715a26,,,,,,,,,,,,,,,,,,,,,,,,,,,,,,,,,,,,,,,,,,,,,,,,,,,,,,,,,,,0,0,0,0,1,,,,,
,60f9bc5e07f83abc9cbc1c54,001,2022-04-28_20h12.16.226,classification_task,2021.2.3,MacIntel,59.99880002,60f9bc5e07f83abc9cbc1c54,626b377229c10585ec392f8a,626b3a195faa9641b2715a26,,,,,,,,,,,,,,,,,,,,,,,,,,,,,,,,,,,,,,,,,,,,,,,,,,,,,,,,,,,,,,,,,space,10.562,661.096,
,60f9bc5e07f83abc9cbc1c54,001,2022-04-28_20h12.16.226,classification_task,2021.2.3,MacIntel,59.99880002,60f9bc5e07f83abc9cbc1c54,626b377229c10585ec392f8a,626b3a195faa9641b2715a26,,,,,,,,,,,,,,,,,,,,,,,,,,,,,,,,,,,,,,,,,,,,,,,,,,,,,,,,,,,,,,,,,,,,"Mozilla/5.0 (Macintosh; Intel Mac OS X 10_14_6) AppleWebKit/537.36 (KHTML, like Gecko) Chrome/99.0.4844.51 Safari/537.36"
