usingWebGL,participant,session,date,expName,psychopyVersion,OS,frameRate,study_id,signatures_friend,signatures_foe,band_ranges_top,band_ranges_bottom,formitemText,formtype,formundefined,formitemWidth,formindex,formresponse,formrt,key_resp_2.keys,key_resp_2.rt,tute_resp.keys,tute_resp.rt,tutorial.thisRepN,tutorial.thisTrialN,tutorial.thisN,tutorial.thisIndex,tutorial.ran,key_resp_4.keys,key_resp_4.rt,key_resp.keys,key_resp.corr,lines_presented,is_signal_presented,trials.thisRepN,trials.thisTrialN,trials.thisN,trials.thisIndex,trials.ran,vessel,active_band,lines,is_signal,supported_pos,catch_trial,key_resp.rt,debrief_formindex,debrief_formitemText,debrief_formtype,debrief_formitemWidth,debrief_formresponse,debrief_formrt,phases.thisRepN,phases.thisTrialN,phases.thisN,phases.thisIndex,phases.ran,phases.order,phase,key_resp_3.keys,trustitemText,trusttype,trustitemWidth,trustindex,trustresponse,trustrt,support_status.thisRepN,support_status.thisTrialN,support_status.thisN,support_status.thisIndex,support_status.ran,support_status.order,key_resp_5.keys,key_resp_5.rt,globalClockTime,userAgent,manualCondition
TRUE,60fbb2dc4ccfafe85794049a,627c675dae0fb064bc6153d8,2022-05-12_04h01.17.925,classification_task,2021.2.3,Win32,60.01680471,627c6715c52fd12f31907bcf,,,,,,,,,,,,,,,,,,,,,,,,,,,,,,,,,,,,,,,,,,,,,,,,,,,,,,,,,,,,,,,,,,,,,
,60fbb2dc4ccfafe85794049a,627c675dae0fb064bc6153d8,2022-05-12_04h01.17.925,classification_task,2021.2.3,Win32,60.01680471,627c6715c52fd12f31907bcf,"[[""0.246"",""0.334"",""0.853"",""0.967""],[""0.299"",""0.486"",""0.886"",""0.920""]]","[[""0.132"",""0.195"",""0.637"",""0.716""],[""0.043"",""0.385"",""0.535"",""0.791""]]","[1,10]","[100,1000]",Video game experience,,,0.7,0,,,,,,,,,,,,,,,,,,,,,,,,,,,,,,,,,,,,,,,,,,,,,,,,,,,,,,,,,,,,
,60fbb2dc4ccfafe85794049a,627c675dae0fb064bc6153d8,2022-05-12_04h01.17.925,classification_task,2021.2.3,Win32,60.01680471,627c6715c52fd12f31907bcf,,,,,Approximately how many hours did you spend playing video games in the last week?,,,0.7,0,4,,,,,,,,,,,,,,,,,,,,,,,,,,,,,,,,,,,,,,,,,,,,,,,,,,,,,,,,,,,
,60fbb2dc4ccfafe85794049a,627c675dae0fb064bc6153d8,2022-05-12_04h01.17.925,classification_task,2021.2.3,Win32,60.01680471,627c6715c52fd12f31907bcf,,,,,"Which game did you play the most this year? (Enter ""None"" if you didn't play any)",,,0.7,0,call of duty,,,,,,,,,,,,,,,,,,,,,,,,,,,,,,,,,,,,,,,,,,,,,,,,,,,,,,,,,,,
,60fbb2dc4ccfafe85794049a,627c675dae0fb064bc6153d8,2022-05-12_04h01.17.925,classification_task,2021.2.3,Win32,60.01680471,627c6715c52fd12f31907bcf,,,,,Visual perception,,,0.7,0,,,,,,,,,,,,,,,,,,,,,,,,,,,,,,,,,,,,,,,,,,,,,,,,,,,,,,,,,,,,
,60fbb2dc4ccfafe85794049a,627c675dae0fb064bc6153d8,2022-05-12_04h01.17.925,classification_task,2021.2.3,Win32,60.01680471,627c6715c52fd12f31907bcf,,,,,Do you have any form of color blindness?,,,0.7,0,No,45.726,,,,,,,,,,,,,,,,,,,,,,,,,,,,,,,,,,,,,,,,,,,,,,,,,,,,,,,,,,
,60fbb2dc4ccfafe85794049a,627c675dae0fb064bc6153d8,2022-05-12_04h01.17.925,classification_task,2021.2.3,Win32,60.01680471,627c6715c52fd12f31907bcf,,,,,Do you use software to change the colour temperature of your screen (e.g. f.lux)?,,,0.7,0,No,52.4143,,,,,,,,,,,,,,,,,,,,,,,,,,,,,,,,,,,,,,,,,,,,,,,,,,,,,,,,,,
,60fbb2dc4ccfafe85794049a,627c675dae0fb064bc6153d8,2022-05-12_04h01.17.925,classification_task,2021.2.3,Win32,60.01680471,627c6715c52fd12f31907bcf,,,,,,,,,,,,space,69.4071,space,60.7538,0,0,0,0,1,,,,,,,,,,,,,,,,,,,,,,,,,,,,,,,,,,,,,,,,,,,,,,,,,
,60fbb2dc4ccfafe85794049a,627c675dae0fb064bc6153d8,2022-05-12_04h01.17.925,classification_task,2021.2.3,Win32,60.01680471,627c6715c52fd12f31907bcf,,,,,,,,,,,,,,space,23.6256,1,0,1,0,1,,,,,,,,,,,,,,,,,,,,,,,,,,,,,,,,,,,,,,,,,,,,,,,,,
,60fbb2dc4ccfafe85794049a,627c675dae0fb064bc6153d8,2022-05-12_04h01.17.925,classification_task,2021.2.3,Win32,60.01680471,627c6715c52fd12f31907bcf,,,,,,,,,,,,,,space,118.5194,2,0,2,0,1,,,,,,,,,,,,,,,,,,,,,,,,,,,,,,,,,,,,,,,,,,,,,,,,,
,60fbb2dc4ccfafe85794049a,627c675dae0fb064bc6153d8,2022-05-12_04h01.17.925,classification_task,2021.2.3,Win32,60.01680471,627c6715c52fd12f31907bcf,,,,,,,,,,,,,,space,19.3679,3,0,3,0,1,,,,,,,,,,,,,,,,,,,,,,,,,,,,,,,,,,,,,,,,,,,,,,,,,
,60fbb2dc4ccfafe85794049a,627c675dae0fb064bc6153d8,2022-05-12_04h01.17.925,classification_task,2021.2.3,Win32,60.01680471,627c6715c52fd12f31907bcf,,,,,,,,,,,,,,space,105.4529,4,0,4,0,1,,,,,,,,,,,,,,,,,,,,,,,,,,,,,,,,,,,,,,,,,,,,,,,,,
,60fbb2dc4ccfafe85794049a,627c675dae0fb064bc6153d8,2022-05-12_04h01.17.925,classification_task,2021.2.3,Win32,60.01680471,627c6715c52fd12f31907bcf,,,,,,,,,,,,,,,,,,,,,space,113.5299,,0,"[""0.246"",""0.334"",""0.853"",""0.590""]","[1,1,1,0]",0,0,0,0,1,0,0,,,1,FALSE,,,,,,,,,,,,,,,,,,,,,,,,,,,,,,,,
,60fbb2dc4ccfafe85794049a,627c675dae0fb064bc6153d8,2022-05-12_04h01.17.925,classification_task,2021.2.3,Win32,60.01680471,627c6715c52fd12f31907bcf,,,,,,,,,,,,,,,,,,,,,,,a,1,"[""0.299"",""0.095"",""0.886"",""0.920""]","[1,0,1,1]",0,1,1,1,1,0,1,,,1,FALSE,2.9323,,,,,,,,,,,,,,,,,,,,,,,,,,,,,,,
,60fbb2dc4ccfafe85794049a,627c675dae0fb064bc6153d8,2022-05-12_04h01.17.925,classification_task,2021.2.3,Win32,60.01680471,627c6715c52fd12f31907bcf,,,,,,,,,,,,,,,,,,,,,,,a,1,"[""0.584"",""0.486"",""0.886"",""0.920""]","[0,1,1,1]",0,2,2,2,1,0,1,,,1,FALSE,2.7824,,,,,,,,,,,,,,,,,,,,,,,,,,,,,,,
,60fbb2dc4ccfafe85794049a,627c675dae0fb064bc6153d8,2022-05-12_04h01.17.925,classification_task,2021.2.3,Win32,60.01680471,627c6715c52fd12f31907bcf,,,,,,,,,,,,,,,,,,,,,,,l,1,"[""0.132"",""0.195"",""0.443"",""0.716""]","[1,1,0,1]",0,3,3,3,1,1,0,,,1,FALSE,5.0097,,,,,,,,,,,,,,,,,,,,,,,,,,,,,,,
,60fbb2dc4ccfafe85794049a,627c675dae0fb064bc6153d8,2022-05-12_04h01.17.925,classification_task,2021.2.3,Win32,60.01680471,627c6715c52fd12f31907bcf,,,,,,,,,,,,,,,,,,,,,,,a,0,"[""0.085"",""0.195"",""0.637"",""0.716""]","[0,1,1,1]",0,4,4,4,1,1,0,,,1,FALSE,3.0589,,,,,,,,,,,,,,,,,,,,,,,,,,,,,,,
,60fbb2dc4ccfafe85794049a,627c675dae0fb064bc6153d8,2022-05-12_04h01.17.925,classification_task,2021.2.3,Win32,60.01680471,627c6715c52fd12f31907bcf,,,,,,,,,,,,,,,,,,,,,,,a,1,"[""0.246"",""0.589"",""0.853"",""0.967""]","[1,0,1,1]",0,5,5,5,1,0,0,,,1,FALSE,1.3217,,,,,,,,,,,,,,,,,,,,,,,,,,,,,,,
,60fbb2dc4ccfafe85794049a,627c675dae0fb064bc6153d8,2022-05-12_04h01.17.925,classification_task,2021.2.3,Win32,60.01680471,627c6715c52fd12f31907bcf,,,,,,,,,,,,,,,,,,,,,,,a,0,"[""0.043"",""0.385"",""0.535"",""0.095""]","[1,1,1,0]",0,6,6,6,1,1,1,,,1,FALSE,1.9454,,,,,,,,,,,,,,,,,,,,,,,,,,,,,,,
,60fbb2dc4ccfafe85794049a,627c675dae0fb064bc6153d8,2022-05-12_04h01.17.925,classification_task,2021.2.3,Win32,60.01680471,627c6715c52fd12f31907bcf,,,,,,,,,,,,,,,,,,,,,,,a,1,"[""0.299"",""0.486"",""0.584"",""0.920""]","[1,1,0,1]",0,7,7,7,1,0,1,,,1,FALSE,1.1749,,,,,,,,,,,,,,,,,,,,,,,,,,,,,,,
,60fbb2dc4ccfafe85794049a,627c675dae0fb064bc6153d8,2022-05-12_04h01.17.925,classification_task,2021.2.3,Win32,60.01680471,627c6715c52fd12f31907bcf,,,,,,,,,,,,,,,,,,,,,,,l,1,"[""0.422"",""0.385"",""0.535"",""0.791""]","[0,1,1,1]",0,8,8,8,1,1,1,,,1,FALSE,0.6804,,,,,,,,,,,,,,,,,,,,,,,,,,,,,,,
,60fbb2dc4ccfafe85794049a,627c675dae0fb064bc6153d8,2022-05-12_04h01.17.925,classification_task,2021.2.3,Win32,60.01680471,627c6715c52fd12f31907bcf,,,,,,,,,,,,,,,,,,,,,,,l,1,"[""0.043"",""0.385"",""0.590"",""0.791""]","[1,1,0,1]",0,9,9,9,1,1,1,,,1,FALSE,2.1971,,,,,,,,,,,,,,,,,,,,,,,,,,,,,,,
,60fbb2dc4ccfafe85794049a,627c675dae0fb064bc6153d8,2022-05-12_04h01.17.925,classification_task,2021.2.3,Win32,60.01680471,627c6715c52fd12f31907bcf,,,,,,,,,,,,,,,,,,,,,,,a,1,"[""0.087"",""0.334"",""0.853"",""0.967""]","[0,1,1,1]",0,10,10,10,1,0,0,,,1,FALSE,0.7322,,,,,,,,,,,,,,,,,,,,,,,,,,,,,,,
,60fbb2dc4ccfafe85794049a,627c675dae0fb064bc6153d8,2022-05-12_04h01.17.925,classification_task,2021.2.3,Win32,60.01680471,627c6715c52fd12f31907bcf,,,,,,,,,,,,,,,,,,,,,,,a,0,"[""0.132"",""0.195"",""0.637"",""0.431""]","[1,1,1,0]",0,11,11,11,1,1,0,,,1,FALSE,1.4351,,,,,,,,,,,,,,,,,,,,,,,,,,,,,,,
,60fbb2dc4ccfafe85794049a,627c675dae0fb064bc6153d8,2022-05-12_04h01.17.925,classification_task,2021.2.3,Win32,60.01680471,627c6715c52fd12f31907bcf,,,,,,,,,,,,,,,,,,,,,,,l,0,"[""0.299"",""0.486"",""0.886"",""0.450""]","[1,1,1,0]",0,12,12,12,1,0,1,,,1,FALSE,2.5828,,,,,,,,,,,,,,,,,,,,,,,,,,,,,,,
,60fbb2dc4ccfafe85794049a,627c675dae0fb064bc6153d8,2022-05-12_04h01.17.925,classification_task,2021.2.3,Win32,60.01680471,627c6715c52fd12f31907bcf,,,,,,,,,,,,,,,,,,,,,,,l,1,"[""0.043"",""0.422"",""0.535"",""0.791""]","[1,0,1,1]",0,13,13,13,1,1,1,,,1,FALSE,0.983,,,,,,,,,,,,,,,,,,,,,,,,,,,,,,,
,60fbb2dc4ccfafe85794049a,627c675dae0fb064bc6153d8,2022-05-12_04h01.17.925,classification_task,2021.2.3,Win32,60.01680471,627c6715c52fd12f31907bcf,,,,,,,,,,,,,,,,,,,,,,,l,0,"[""0.246"",""0.334"",""0.443"",""0.967""]","[1,1,0,1]",0,14,14,14,1,0,0,,,1,FALSE,1.9664,,,,,,,,,,,,,,,,,,,,,,,,,,,,,,,
,60fbb2dc4ccfafe85794049a,627c675dae0fb064bc6153d8,2022-05-12_04h01.17.925,classification_task,2021.2.3,Win32,60.01680471,627c6715c52fd12f31907bcf,,,,,,,,,,,,,,,,,,,,,,,a,0,"[""0.132"",""0.584"",""0.637"",""0.716""]","[1,0,1,1]",0,15,15,15,1,1,0,,,1,FALSE,0.835,,,,,,,,,,,,,,,,,,,,,,,,,,,,,,,
,60fbb2dc4ccfafe85794049a,627c675dae0fb064bc6153d8,2022-05-12_04h01.17.925,classification_task,2021.2.3,Win32,60.01680471,627c6715c52fd12f31907bcf,,,,,,,,,,,,,,,,,,,,,,,l,0,"[""0.299"",""0.589"",""0.886"",""0.920""]","[1,0,1,1]",0,16,16,16,1,0,1,,,1,FALSE,0.8178,,,,,,,,,,,,,,,,,,,,,,,,,,,,,,,
,60fbb2dc4ccfafe85794049a,627c675dae0fb064bc6153d8,2022-05-12_04h01.17.925,classification_task,2021.2.3,Win32,60.01680471,627c6715c52fd12f31907bcf,,,,,,,,,,,,,,,,,,,,,,,l,1,"[""0.043"",""0.385"",""0.584"",""0.791""]","[1,1,0,1]",0,17,17,17,1,1,1,,,1,FALSE,0.9824,,,,,,,,,,,,,,,,,,,,,,,,,,,,,,,
,60fbb2dc4ccfafe85794049a,627c675dae0fb064bc6153d8,2022-05-12_04h01.17.925,classification_task,2021.2.3,Win32,60.01680471,627c6715c52fd12f31907bcf,,,,,,,,,,,,,,,,,,,,,,,l,1,"[""0.584"",""0.195"",""0.637"",""0.716""]","[0,1,1,1]",0,18,18,18,1,1,0,,,1,FALSE,5.5622,,,,,,,,,,,,,,,,,,,,,,,,,,,,,,,
,60fbb2dc4ccfafe85794049a,627c675dae0fb064bc6153d8,2022-05-12_04h01.17.925,classification_task,2021.2.3,Win32,60.01680471,627c6715c52fd12f31907bcf,,,,,,,,,,,,,,,,,,,,,,,a,1,"[""0.422"",""0.334"",""0.853"",""0.967""]","[0,1,1,1]",0,19,19,19,1,0,0,,,1,FALSE,2.8088,,,,,,,,,,,,,,,,,,,,,,,,,,,,,,,
,60fbb2dc4ccfafe85794049a,627c675dae0fb064bc6153d8,2022-05-12_04h01.17.925,classification_task,2021.2.3,Win32,60.01680471,627c6715c52fd12f31907bcf,,,,,,,,,,,,,,,,,,,,,,,l,0,"[""0.246"",""0.590"",""0.853"",""0.967""]","[1,0,1,1]",0,20,20,20,1,0,0,,,1,FALSE,4.2179,,,,,,,,,,,,,,,,,,,,,,,,,,,,,,,
,60fbb2dc4ccfafe85794049a,627c675dae0fb064bc6153d8,2022-05-12_04h01.17.925,classification_task,2021.2.3,Win32,60.01680471,627c6715c52fd12f31907bcf,,,,,,,,,,,,,,,,,,,,,,,a,0,"[""0.043"",""0.087"",""0.535"",""0.791""]","[1,0,1,1]",0,21,21,21,1,1,1,,,1,FALSE,2.4338,,,,,,,,,,,,,,,,,,,,,,,,,,,,,,,
,60fbb2dc4ccfafe85794049a,627c675dae0fb064bc6153d8,2022-05-12_04h01.17.925,classification_task,2021.2.3,Win32,60.01680471,627c6715c52fd12f31907bcf,,,,,,,,,,,,,,,,,,,,,,,a,1,"[""0.577"",""0.486"",""0.886"",""0.920""]","[0,1,1,1]",0,22,22,22,1,0,1,,,1,FALSE,4.4898,,,,,,,,,,,,,,,,,,,,,,,,,,,,,,,
,60fbb2dc4ccfafe85794049a,627c675dae0fb064bc6153d8,2022-05-12_04h01.17.925,classification_task,2021.2.3,Win32,60.01680471,627c6715c52fd12f31907bcf,,,,,,,,,,,,,,,,,,,,,,,a,0,"[""0.132"",""0.195"",""0.637"",""0.593""]","[1,1,1,0]",0,23,23,23,1,1,0,,,1,FALSE,3.4159,,,,,,,,,,,,,,,,,,,,,,,,,,,,,,,
,60fbb2dc4ccfafe85794049a,627c675dae0fb064bc6153d8,2022-05-12_04h01.17.925,classification_task,2021.2.3,Win32,60.01680471,627c6715c52fd12f31907bcf,,,,,,,,,,,,,,,,,,,,,,,a,0,"[""0.043"",""0.385"",""0.535"",""0.593""]","[1,1,1,0]",0,24,24,24,1,1,1,,,1,FALSE,1.3809,,,,,,,,,,,,,,,,,,,,,,,,,,,,,,,
,60fbb2dc4ccfafe85794049a,627c675dae0fb064bc6153d8,2022-05-12_04h01.17.925,classification_task,2021.2.3,Win32,60.01680471,627c6715c52fd12f31907bcf,,,,,,,,,,,,,,,,,,,,,,,l,0,"[""0.299"",""0.486"",""0.087"",""0.920""]","[1,1,0,1]",0,25,25,25,1,0,1,,,1,FALSE,0.4337,,,,,,,,,,,,,,,,,,,,,,,,,,,,,,,
,60fbb2dc4ccfafe85794049a,627c675dae0fb064bc6153d8,2022-05-12_04h01.17.925,classification_task,2021.2.3,Win32,60.01680471,627c6715c52fd12f31907bcf,,,,,,,,,,,,,,,,,,,,,,,l,0,"[""0.246"",""0.334"",""0.450"",""0.967""]","[1,1,0,1]",0,26,26,26,1,0,0,,,1,FALSE,0.5034,,,,,,,,,,,,,,,,,,,,,,,,,,,,,,,
,60fbb2dc4ccfafe85794049a,627c675dae0fb064bc6153d8,2022-05-12_04h01.17.925,classification_task,2021.2.3,Win32,60.01680471,627c6715c52fd12f31907bcf,,,,,,,,,,,,,,,,,,,,,,,l,1,"[""0.132"",""0.195"",""0.082"",""0.716""]","[1,1,0,1]",0,27,27,27,1,1,0,,,1,FALSE,0.6558,,,,,,,,,,,,,,,,,,,,,,,,,,,,,,,
,60fbb2dc4ccfafe85794049a,627c675dae0fb064bc6153d8,2022-05-12_04h01.17.925,classification_task,2021.2.3,Win32,60.01680471,627c6715c52fd12f31907bcf,,,,,,,,,,,,,,,,,,,,,,,a,0,"[""0.132"",""0.590"",""0.637"",""0.716""]","[1,0,1,1]",0,28,28,28,1,1,0,,,1,FALSE,1.6954,,,,,,,,,,,,,,,,,,,,,,,,,,,,,,,
,60fbb2dc4ccfafe85794049a,627c675dae0fb064bc6153d8,2022-05-12_04h01.17.925,classification_task,2021.2.3,Win32,60.01680471,627c6715c52fd12f31907bcf,,,,,,,,,,,,,,,,,,,,,,,l,0,"[""0.246"",""0.334"",""0.853"",""0.590""]","[1,1,1,0]",0,29,29,29,1,0,0,,,1,FALSE,1.9384,,,,,,,,,,,,,,,,,,,,,,,,,,,,,,,
,60fbb2dc4ccfafe85794049a,627c675dae0fb064bc6153d8,2022-05-12_04h01.17.925,classification_task,2021.2.3,Win32,60.01680471,627c6715c52fd12f31907bcf,,,,,,,,,,,,,,,,,,,,,,,l,0,"[""0.299"",""0.486"",""0.886"",""0.593""]","[1,1,1,0]",0,30,30,30,1,0,1,,,1,FALSE,2.5742,,,,,,,,,,,,,,,,,,,,,,,,,,,,,,,
,60fbb2dc4ccfafe85794049a,627c675dae0fb064bc6153d8,2022-05-12_04h01.17.925,classification_task,2021.2.3,Win32,60.01680471,627c6715c52fd12f31907bcf,,,,,,,,,,,,,,,,,,,,,,,a,0,"[""0.431"",""0.385"",""0.535"",""0.791""]","[0,1,1,1]",0,31,31,31,1,1,1,,,1,FALSE,0.9522,,,,,,,,,,,,,,,,,,,,,,,,,,,,,,,
,60fbb2dc4ccfafe85794049a,627c675dae0fb064bc6153d8,2022-05-12_04h01.17.925,classification_task,2021.2.3,Win32,60.01680471,627c6715c52fd12f31907bcf,,,,,,,,,,,,,,,,,,,,,,,a,1,"[""0.246"",""0.334"",""0.853"",""0.082""]","[1,1,1,0]",0,32,32,32,1,0,0,,,1,FALSE,7.541,,,,,,,,,,,,,,,,,,,,,,,,,,,,,,,
,60fbb2dc4ccfafe85794049a,627c675dae0fb064bc6153d8,2022-05-12_04h01.17.925,classification_task,2021.2.3,Win32,60.01680471,627c6715c52fd12f31907bcf,,,,,,,,,,,,,,,,,,,,,,,a,1,"[""0.299"",""0.486"",""0.886"",""0.082""]","[1,1,1,0]",0,33,33,33,1,0,1,,,1,FALSE,4.5556,,,,,,,,,,,,,,,,,,,,,,,,,,,,,,,
,60fbb2dc4ccfafe85794049a,627c675dae0fb064bc6153d8,2022-05-12_04h01.17.925,classification_task,2021.2.3,Win32,60.01680471,627c6715c52fd12f31907bcf,,,,,,,,,,,,,,,,,,,,,,,l,1,"[""0.132"",""0.195"",""0.589"",""0.716""]","[1,1,0,1]",0,34,34,34,1,1,0,,,1,FALSE,2.4036,,,,,,,,,,,,,,,,,,,,,,,,,,,,,,,
,60fbb2dc4ccfafe85794049a,627c675dae0fb064bc6153d8,2022-05-12_04h01.17.925,classification_task,2021.2.3,Win32,60.01680471,627c6715c52fd12f31907bcf,,,,,,,,,,,,,,,,,,,,,,,a,1,"[""0.246"",""0.334"",""0.596"",""0.967""]","[1,1,0,1]",0,35,35,35,1,0,0,,,1,FALSE,4.8239,,,,,,,,,,,,,,,,,,,,,,,,,,,,,,,
,60fbb2dc4ccfafe85794049a,627c675dae0fb064bc6153d8,2022-05-12_04h01.17.925,classification_task,2021.2.3,Win32,60.01680471,627c6715c52fd12f31907bcf,,,,,,,,,,,,,,,,,,,,,,,a,1,"[""0.246"",""0.443"",""0.853"",""0.967""]","[1,0,1,1]",0,36,36,36,1,0,0,,,1,FALSE,2.9015,,,,,,,,,,,,,,,,,,,,,,,,,,,,,,,
,60fbb2dc4ccfafe85794049a,627c675dae0fb064bc6153d8,2022-05-12_04h01.17.925,classification_task,2021.2.3,Win32,60.01680471,627c6715c52fd12f31907bcf,,,,,,,,,,,,,,,,,,,,,,,a,1,"[""0.299"",""0.577"",""0.886"",""0.920""]","[1,0,1,1]",0,37,37,37,1,0,1,,,1,FALSE,2.4489,,,,,,,,,,,,,,,,,,,,,,,,,,,,,,,
,60fbb2dc4ccfafe85794049a,627c675dae0fb064bc6153d8,2022-05-12_04h01.17.925,classification_task,2021.2.3,Win32,60.01680471,627c6715c52fd12f31907bcf,,,,,,,,,,,,,,,,,,,,,,,l,0,"[""0.431"",""0.334"",""0.853"",""0.967""]","[0,1,1,1]",0,38,38,38,1,0,0,,,1,FALSE,2.1355,,,,,,,,,,,,,,,,,,,,,,,,,,,,,,,
,60fbb2dc4ccfafe85794049a,627c675dae0fb064bc6153d8,2022-05-12_04h01.17.925,classification_task,2021.2.3,Win32,60.01680471,627c6715c52fd12f31907bcf,,,,,,,,,,,,,,,,,,,,,,,l,1,"[""0.043"",""0.385"",""0.535"",""0.085""]","[1,1,1,0]",0,39,39,39,1,1,1,,,1,FALSE,2.3437,,,,,,,,,,,,,,,,,,,,,,,,,,,,,,,
,60fbb2dc4ccfafe85794049a,627c675dae0fb064bc6153d8,2022-05-12_04h01.17.925,classification_task,2021.2.3,Win32,60.01680471,627c6715c52fd12f31907bcf,,,,,,,,,,,,,,,,,,,,,,,l,1,"[""0.596"",""0.195"",""0.637"",""0.716""]","[0,1,1,1]",0,40,40,40,1,1,0,,,1,FALSE,1.3246,,,,,,,,,,,,,,,,,,,,,,,,,,,,,,,
,60fbb2dc4ccfafe85794049a,627c675dae0fb064bc6153d8,2022-05-12_04h01.17.925,classification_task,2021.2.3,Win32,60.01680471,627c6715c52fd12f31907bcf,,,,,,,,,,,,,,,,,,,,,,,l,1,"[""0.132"",""0.085"",""0.637"",""0.716""]","[1,0,1,1]",0,41,41,41,1,1,0,,,1,FALSE,3.4348,,,,,,,,,,,,,,,,,,,,,,,,,,,,,,,
,60fbb2dc4ccfafe85794049a,627c675dae0fb064bc6153d8,2022-05-12_04h01.17.925,classification_task,2021.2.3,Win32,60.01680471,627c6715c52fd12f31907bcf,,,,,,,,,,,,,,,,,,,,,,,l,1,"[""0.603"",""0.385"",""0.535"",""0.791""]","[0,1,1,1]",0,42,42,42,1,1,1,,,1,FALSE,4.6454,,,,,,,,,,,,,,,,,,,,,,,,,,,,,,,
,60fbb2dc4ccfafe85794049a,627c675dae0fb064bc6153d8,2022-05-12_04h01.17.925,classification_task,2021.2.3,Win32,60.01680471,627c6715c52fd12f31907bcf,,,,,,,,,,,,,,,,,,,,,,,a,1,"[""0.299"",""0.486"",""0.082"",""0.920""]","[1,1,0,1]",0,43,43,43,1,0,1,,,1,FALSE,1.3061,,,,,,,,,,,,,,,,,,,,,,,,,,,,,,,
,60fbb2dc4ccfafe85794049a,627c675dae0fb064bc6153d8,2022-05-12_04h01.17.925,classification_task,2021.2.3,Win32,60.01680471,627c6715c52fd12f31907bcf,,,,,,,,,,,,,,,,,,,,,,,l,1,"[""0.132"",""0.195"",""0.637"",""0.443""]","[1,1,1,0]",0,44,44,44,1,1,0,,,1,FALSE,1.8174,,,,,,,,,,,,,,,,,,,,,,,,,,,,,,,
,60fbb2dc4ccfafe85794049a,627c675dae0fb064bc6153d8,2022-05-12_04h01.17.925,classification_task,2021.2.3,Win32,60.01680471,627c6715c52fd12f31907bcf,,,,,,,,,,,,,,,,,,,,,,,a,1,"[""0.085"",""0.486"",""0.886"",""0.920""]","[0,1,1,1]",0,45,45,45,1,0,1,,,1,FALSE,1.7014,,,,,,,,,,,,,,,,,,,,,,,,,,,,,,,
,60fbb2dc4ccfafe85794049a,627c675dae0fb064bc6153d8,2022-05-12_04h01.17.925,classification_task,2021.2.3,Win32,60.01680471,627c6715c52fd12f31907bcf,,,,,,,,,,,,,,,,,,,,,,,a,0,"[""0.043"",""0.590"",""0.535"",""0.791""]","[1,0,1,1]",0,46,46,46,1,1,1,,,1,FALSE,1.3885,,,,,,,,,,,,,,,,,,,,,,,,,,,,,,,
,60fbb2dc4ccfafe85794049a,627c675dae0fb064bc6153d8,2022-05-12_04h01.17.925,classification_task,2021.2.3,Win32,60.01680471,627c6715c52fd12f31907bcf,,,,,,,,,,,,,,,,,,,,,,,a,0,"[""0.043"",""0.385"",""0.082"",""0.791""]","[1,1,0,1]",0,47,47,47,1,1,1,,,1,FALSE,1.2674,,,,,,,,,,,,,,,,,,,,,,,,,,,,,,,
,60fbb2dc4ccfafe85794049a,627c675dae0fb064bc6153d8,2022-05-12_04h01.17.925,classification_task,2021.2.3,Win32,60.01680471,627c6715c52fd12f31907bcf,,,,,,,,,,,,,,,,,,,,,,,l,1,"[""0.043"",""0.385"",""0.535"",""0.450""]","[1,1,1,0]",0,48,48,48,1,1,1,,,1,FALSE,1.0981,,,,,,,,,,,,,,,,,,,,,,,,,,,,,,,
,60fbb2dc4ccfafe85794049a,627c675dae0fb064bc6153d8,2022-05-12_04h01.17.925,classification_task,2021.2.3,Win32,60.01680471,627c6715c52fd12f31907bcf,,,,,,,,,,,,,,,,,,,,,,,a,1,"[""0.443"",""0.486"",""0.886"",""0.920""]","[0,1,1,1]",0,49,49,49,1,0,1,,,1,FALSE,3.0644,,,,,,,,,,,,,,,,,,,,,,,,,,,,,,,
,60fbb2dc4ccfafe85794049a,627c675dae0fb064bc6153d8,2022-05-12_04h01.17.925,classification_task,2021.2.3,Win32,60.01680471,627c6715c52fd12f31907bcf,,,,,,,,,,,,,,,,,,,,,,,a,1,"[""0.246"",""0.334"",""0.082"",""0.967""]","[1,1,0,1]",0,50,50,50,1,0,0,,,1,FALSE,2.0345,,,,,,,,,,,,,,,,,,,,,,,,,,,,,,,
,60fbb2dc4ccfafe85794049a,627c675dae0fb064bc6153d8,2022-05-12_04h01.17.925,classification_task,2021.2.3,Win32,60.01680471,627c6715c52fd12f31907bcf,,,,,,,,,,,,,,,,,,,,,,,l,0,"[""0.246"",""0.603"",""0.853"",""0.967""]","[1,0,1,1]",0,51,51,51,1,0,0,,,1,FALSE,2.9182,,,,,,,,,,,,,,,,,,,,,,,,,,,,,,,
,60fbb2dc4ccfafe85794049a,627c675dae0fb064bc6153d8,2022-05-12_04h01.17.925,classification_task,2021.2.3,Win32,60.01680471,627c6715c52fd12f31907bcf,,,,,,,,,,,,,,,,,,,,,,,l,1,"[""0.043"",""0.087"",""0.535"",""0.791""]","[1,0,1,1]",0,52,52,52,1,1,1,,,1,FALSE,1.5648,,,,,,,,,,,,,,,,,,,,,,,,,,,,,,,
,60fbb2dc4ccfafe85794049a,627c675dae0fb064bc6153d8,2022-05-12_04h01.17.925,classification_task,2021.2.3,Win32,60.01680471,627c6715c52fd12f31907bcf,,,,,,,,,,,,,,,,,,,,,,,l,1,"[""0.422"",""0.385"",""0.535"",""0.791""]","[0,1,1,1]",0,53,53,53,1,1,1,,,1,FALSE,1.4463,,,,,,,,,,,,,,,,,,,,,,,,,,,,,,,
,60fbb2dc4ccfafe85794049a,627c675dae0fb064bc6153d8,2022-05-12_04h01.17.925,classification_task,2021.2.3,Win32,60.01680471,627c6715c52fd12f31907bcf,,,,,,,,,,,,,,,,,,,,,,,l,0,"[""0.246"",""0.334"",""0.853"",""0.584""]","[1,1,1,0]",0,54,54,54,1,0,0,,,1,FALSE,2.5636,,,,,,,,,,,,,,,,,,,,,,,,,,,,,,,
,60fbb2dc4ccfafe85794049a,627c675dae0fb064bc6153d8,2022-05-12_04h01.17.925,classification_task,2021.2.3,Win32,60.01680471,627c6715c52fd12f31907bcf,,,,,,,,,,,,,,,,,,,,,,,a,0,"[""0.132"",""0.195"",""0.637"",""0.085""]","[1,1,1,0]",0,55,55,55,1,1,0,,,1,FALSE,1.4033,,,,,,,,,,,,,,,,,,,,,,,,,,,,,,,
,60fbb2dc4ccfafe85794049a,627c675dae0fb064bc6153d8,2022-05-12_04h01.17.925,classification_task,2021.2.3,Win32,60.01680471,627c6715c52fd12f31907bcf,,,,,,,,,,,,,,,,,,,,,,,a,1,"[""0.299"",""0.486"",""0.886"",""0.590""]","[1,1,1,0]",0,56,56,56,1,0,1,,,1,FALSE,1.7304,,,,,,,,,,,,,,,,,,,,,,,,,,,,,,,
,60fbb2dc4ccfafe85794049a,627c675dae0fb064bc6153d8,2022-05-12_04h01.17.925,classification_task,2021.2.3,Win32,60.01680471,627c6715c52fd12f31907bcf,,,,,,,,,,,,,,,,,,,,,,,a,1,"[""0.085"",""0.334"",""0.853"",""0.967""]","[0,1,1,1]",0,57,57,57,1,0,0,,,1,FALSE,3.0954,,,,,,,,,,,,,,,,,,,,,,,,,,,,,,,
,60fbb2dc4ccfafe85794049a,627c675dae0fb064bc6153d8,2022-05-12_04h01.17.925,classification_task,2021.2.3,Win32,60.01680471,627c6715c52fd12f31907bcf,,,,,,,,,,,,,,,,,,,,,,,a,0,"[""0.043"",""0.385"",""0.450"",""0.791""]","[1,1,0,1]",0,58,58,58,1,1,1,,,1,FALSE,2.4169,,,,,,,,,,,,,,,,,,,,,,,,,,,,,,,
,60fbb2dc4ccfafe85794049a,627c675dae0fb064bc6153d8,2022-05-12_04h01.17.925,classification_task,2021.2.3,Win32,60.01680471,627c6715c52fd12f31907bcf,,,,,,,,,,,,,,,,,,,,,,,l,0,"[""0.299"",""0.589"",""0.886"",""0.920""]","[1,0,1,1]",0,59,59,59,1,0,1,,,1,FALSE,1.7525,,,,,,,,,,,,,,,,,,,,,,,,,,,,,,,
,60fbb2dc4ccfafe85794049a,627c675dae0fb064bc6153d8,2022-05-12_04h01.17.925,classification_task,2021.2.3,Win32,60.01680471,627c6715c52fd12f31907bcf,,,,,,,,,,,,,,,,,,,,,,,l,1,"[""0.132"",""0.195"",""0.596"",""0.716""]","[1,1,0,1]",0,60,60,60,1,1,0,,,1,FALSE,1.3644,,,,,,,,,,,,,,,,,,,,,,,,,,,,,,,
,60fbb2dc4ccfafe85794049a,627c675dae0fb064bc6153d8,2022-05-12_04h01.17.925,classification_task,2021.2.3,Win32,60.01680471,627c6715c52fd12f31907bcf,,,,,,,,,,,,,,,,,,,,,,,l,0,"[""0.299"",""0.486"",""0.422"",""0.920""]","[1,1,0,1]",0,61,61,61,1,0,1,,,1,FALSE,1.5813,,,,,,,,,,,,,,,,,,,,,,,,,,,,,,,
,60fbb2dc4ccfafe85794049a,627c675dae0fb064bc6153d8,2022-05-12_04h01.17.925,classification_task,2021.2.3,Win32,60.01680471,627c6715c52fd12f31907bcf,,,,,,,,,,,,,,,,,,,,,,,l,1,"[""0.593"",""0.195"",""0.637"",""0.716""]","[0,1,1,1]",0,62,62,62,1,1,0,,,1,FALSE,2.18,,,,,,,,,,,,,,,,,,,,,,,,,,,,,,,
,60fbb2dc4ccfafe85794049a,627c675dae0fb064bc6153d8,2022-05-12_04h01.17.925,classification_task,2021.2.3,Win32,60.01680471,627c6715c52fd12f31907bcf,,,,,,,,,,,,,,,,,,,,,,,l,1,"[""0.132"",""0.443"",""0.637"",""0.716""]","[1,0,1,1]",0,63,63,63,1,1,0,,,1,FALSE,4.6525,,,,,,,,,,,,,,,,,,,,,,,,,,,,,,,
,60fbb2dc4ccfafe85794049a,627c675dae0fb064bc6153d8,2022-05-12_04h01.17.925,classification_task,2021.2.3,Win32,60.01680471,627c6715c52fd12f31907bcf,,,,,,,,,,,,,,,,,,,,,,,,,,,,,,,,,,,,,,,0, ,,0,1.520888448,813.3482,0,0,0,0,1,2,1,,,,,,,,,,,,,,,,,,
,60fbb2dc4ccfafe85794049a,627c675dae0fb064bc6153d8,2022-05-12_04h01.17.925,classification_task,2021.2.3,Win32,60.01680471,627c6715c52fd12f31907bcf,,,,,,,,,,,,,,,,,,,,,,,,,,,,,,,,,,,,,,,1,  ,,0,10,832.6456,0,0,0,0,1,2,1,,,,,,,,,,,,,,,,,,
,60fbb2dc4ccfafe85794049a,627c675dae0fb064bc6153d8,2022-05-12_04h01.17.925,classification_task,2021.2.3,Win32,60.01680471,627c6715c52fd12f31907bcf,,,,,,,,,,,,,,,,,,,,,,,,,,,,,,,,,,,,,,,2,  ,,0,10,853.9563,0,0,0,0,1,2,1,,,,,,,,,,,,,,,,,,
,60fbb2dc4ccfafe85794049a,627c675dae0fb064bc6153d8,2022-05-12_04h01.17.925,classification_task,2021.2.3,Win32,60.01680471,627c6715c52fd12f31907bcf,,,,,,,,,,,,,,,,,,,,,,,,,,,,,,,,,,,,,,,,,,,,,0,0,0,0,1,,1,,,,,,,,,,,,,,,,,,
,60fbb2dc4ccfafe85794049a,627c675dae0fb064bc6153d8,2022-05-12_04h01.17.925,classification_task,2021.2.3,Win32,60.01680471,627c6715c52fd12f31907bcf,,,,,,,,,,,,,,,,,,,,,space,21.1835,l,0,"[""0.590"",""0.486"",""0.886"",""0.920""]","[0,1,1,1]",0,0,0,0,1,0,1,,,1,FALSE,7.3246,,,,,,,,,,,,,,,,,,,,,,,,,,,,,,,
,60fbb2dc4ccfafe85794049a,627c675dae0fb064bc6153d8,2022-05-12_04h01.17.925,classification_task,2021.2.3,Win32,60.01680471,627c6715c52fd12f31907bcf,,,,,,,,,,,,,,,,,,,,,,,l,0,"[""0.577"",""0.334"",""0.853"",""0.967""]","[0,1,1,1]",0,1,1,1,1,0,0,,,1,FALSE,4.9649,,,,,,,,,,,,,,,,,,,,,,,,,,,,,,,
,60fbb2dc4ccfafe85794049a,627c675dae0fb064bc6153d8,2022-05-12_04h01.17.925,classification_task,2021.2.3,Win32,60.01680471,627c6715c52fd12f31907bcf,,,,,,,,,,,,,,,,,,,,,,,a,1,"[""0.299"",""0.486"",""0.085"",""0.920""]","[1,1,0,1]",0,2,2,2,1,0,1,,,1,FALSE,5.3948,,,,,,,,,,,,,,,,,,,,,,,,,,,,,,,
,60fbb2dc4ccfafe85794049a,627c675dae0fb064bc6153d8,2022-05-12_04h01.17.925,classification_task,2021.2.3,Win32,60.01680471,627c6715c52fd12f31907bcf,,,,,,,,,,,,,,,,,,,,,,,l,0,"[""0.246"",""0.334"",""0.853"",""0.590""]","[1,1,1,0]",0,3,3,3,1,0,0,,,1,FALSE,3.5503,,,,,,,,,,,,,,,,,,,,,,,,,,,,,,,
,60fbb2dc4ccfafe85794049a,627c675dae0fb064bc6153d8,2022-05-12_04h01.17.925,classification_task,2021.2.3,Win32,60.01680471,627c6715c52fd12f31907bcf,,,,,,,,,,,,,,,,,,,,,,,a,0,"[""0.043"",""0.385"",""0.535"",""0.095""]","[1,1,1,0]",0,4,4,4,1,1,1,,,1,FALSE,3.5315,,,,,,,,,,,,,,,,,,,,,,,,,,,,,,,
,60fbb2dc4ccfafe85794049a,627c675dae0fb064bc6153d8,2022-05-12_04h01.17.925,classification_task,2021.2.3,Win32,60.01680471,627c6715c52fd12f31907bcf,,,,,,,,,,,,,,,,,,,,,,,l,0,"[""0.246"",""0.087"",""0.853"",""0.967""]","[1,0,1,1]",0,5,5,5,1,0,0,,,1,FALSE,1.7541,,,,,,,,,,,,,,,,,,,,,,,,,,,,,,,
,60fbb2dc4ccfafe85794049a,627c675dae0fb064bc6153d8,2022-05-12_04h01.17.925,classification_task,2021.2.3,Win32,60.01680471,627c6715c52fd12f31907bcf,,,,,,,,,,,,,,,,,,,,,,,l,1,"[""0.132"",""0.195"",""0.637"",""0.431""]","[1,1,1,0]",0,6,6,6,1,1,0,,,1,FALSE,1.1207,,,,,,,,,,,,,,,,,,,,,,,,,,,,,,,
,60fbb2dc4ccfafe85794049a,627c675dae0fb064bc6153d8,2022-05-12_04h01.17.925,classification_task,2021.2.3,Win32,60.01680471,627c6715c52fd12f31907bcf,,,,,,,,,,,,,,,,,,,,,,,l,1,"[""0.087"",""0.385"",""0.535"",""0.791""]","[0,1,1,1]",0,7,7,7,1,1,1,,,1,FALSE,1.2807,,,,,,,,,,,,,,,,,,,,,,,,,,,,,,,
,60fbb2dc4ccfafe85794049a,627c675dae0fb064bc6153d8,2022-05-12_04h01.17.925,classification_task,2021.2.3,Win32,60.01680471,627c6715c52fd12f31907bcf,,,,,,,,,,,,,,,,,,,,,,,l,1,"[""0.443"",""0.195"",""0.637"",""0.716""]","[0,1,1,1]",0,8,8,8,1,1,0,,,1,FALSE,1.7154,,,,,,,,,,,,,,,,,,,,,,,,,,,,,,,
,60fbb2dc4ccfafe85794049a,627c675dae0fb064bc6153d8,2022-05-12_04h01.17.925,classification_task,2021.2.3,Win32,60.01680471,627c6715c52fd12f31907bcf,,,,,,,,,,,,,,,,,,,,,,,l,1,"[""0.043"",""0.385"",""0.422"",""0.791""]","[1,1,0,1]",0,9,9,9,1,1,1,,,1,FALSE,2.0855,,,,,,,,,,,,,,,,,,,,,,,,,,,,,,,
,60fbb2dc4ccfafe85794049a,627c675dae0fb064bc6153d8,2022-05-12_04h01.17.925,classification_task,2021.2.3,Win32,60.01680471,627c6715c52fd12f31907bcf,,,,,,,,,,,,,,,,,,,,,,,l,1,"[""0.043"",""0.593"",""0.535"",""0.791""]","[1,0,1,1]",0,10,10,10,1,1,1,,,1,FALSE,2.0353,,,,,,,,,,,,,,,,,,,,,,,,,,,,,,,
,60fbb2dc4ccfafe85794049a,627c675dae0fb064bc6153d8,2022-05-12_04h01.17.925,classification_task,2021.2.3,Win32,60.01680471,627c6715c52fd12f31907bcf,,,,,,,,,,,,,,,,,,,,,,,l,1,"[""0.132"",""0.195"",""0.590"",""0.716""]","[1,1,0,1]",0,11,11,11,1,1,0,,,1,FALSE,2.4223,,,,,,,,,,,,,,,,,,,,,,,,,,,,,,,
,60fbb2dc4ccfafe85794049a,627c675dae0fb064bc6153d8,2022-05-12_04h01.17.925,classification_task,2021.2.3,Win32,60.01680471,627c6715c52fd12f31907bcf,,,,,,,,,,,,,,,,,,,,,,,l,0,"[""0.299"",""0.486"",""0.886"",""0.422""]","[1,1,1,0]",0,12,12,12,1,0,1,,,1,FALSE,2.7034,,,,,,,,,,,,,,,,,,,,,,,,,,,,,,,
,60fbb2dc4ccfafe85794049a,627c675dae0fb064bc6153d8,2022-05-12_04h01.17.925,classification_task,2021.2.3,Win32,60.01680471,627c6715c52fd12f31907bcf,,,,,,,,,,,,,,,,,,,,,,,l,0,"[""0.246"",""0.334"",""0.422"",""0.967""]","[1,1,0,1]",0,13,13,13,1,0,0,,,1,FALSE,2.123,,,,,,,,,,,,,,,,,,,,,,,,,,,,,,,
,60fbb2dc4ccfafe85794049a,627c675dae0fb064bc6153d8,2022-05-12_04h01.17.925,classification_task,2021.2.3,Win32,60.01680471,627c6715c52fd12f31907bcf,,,,,,,,,,,,,,,,,,,,,,,a,0,"[""0.132"",""0.603"",""0.637"",""0.716""]","[1,0,1,1]",0,14,14,14,1,1,0,,,1,FALSE,1.5312,,,,,,,,,,,,,,,,,,,,,,,,,,,,,,,
,60fbb2dc4ccfafe85794049a,627c675dae0fb064bc6153d8,2022-05-12_04h01.17.925,classification_task,2021.2.3,Win32,60.01680471,627c6715c52fd12f31907bcf,,,,,,,,,,,,,,,,,,,,,,,l,0,"[""0.299"",""0.584"",""0.886"",""0.920""]","[1,0,1,1]",0,15,15,15,1,0,1,,,1,FALSE,0.4847,,,,,,,,,,,,,,,,,,,,,,,,,,,,,,,
,60fbb2dc4ccfafe85794049a,627c675dae0fb064bc6153d8,2022-05-12_04h01.17.925,classification_task,2021.2.3,Win32,60.01680471,627c6715c52fd12f31907bcf,,,,,,,,,,,,,,,,,,,,,,,a,1,"[""0.299"",""0.596"",""0.886"",""0.920""]","[1,0,1,1]",0,16,16,16,1,0,1,,,1,FALSE,0.4295,,,,,,,,,,,,,,,,,,,,,,,,,,,,,,,
,60fbb2dc4ccfafe85794049a,627c675dae0fb064bc6153d8,2022-05-12_04h01.17.925,classification_task,2021.2.3,Win32,60.01680471,627c6715c52fd12f31907bcf,,,,,,,,,,,,,,,,,,,,,,,a,0,"[""0.584"",""0.195"",""0.637"",""0.716""]","[0,1,1,1]",0,17,17,17,1,1,0,,,1,FALSE,0.6492,,,,,,,,,,,,,,,,,,,,,,,,,,,,,,,
,60fbb2dc4ccfafe85794049a,627c675dae0fb064bc6153d8,2022-05-12_04h01.17.925,classification_task,2021.2.3,Win32,60.01680471,627c6715c52fd12f31907bcf,,,,,,,,,,,,,,,,,,,,,,,a,1,"[""0.299"",""0.486"",""0.085"",""0.920""]","[1,1,0,1]",0,18,18,18,1,0,1,,,1,FALSE,0.4338,,,,,,,,,,,,,,,,,,,,,,,,,,,,,,,
,60fbb2dc4ccfafe85794049a,627c675dae0fb064bc6153d8,2022-05-12_04h01.17.925,classification_task,2021.2.3,Win32,60.01680471,627c6715c52fd12f31907bcf,,,,,,,,,,,,,,,,,,,,,,,a,0,"[""0.043"",""0.385"",""0.535"",""0.095""]","[1,1,1,0]",0,19,19,19,1,1,1,,,1,FALSE,0.8985,,,,,,,,,,,,,,,,,,,,,,,,,,,,,,,
,60fbb2dc4ccfafe85794049a,627c675dae0fb064bc6153d8,2022-05-12_04h01.17.925,classification_task,2021.2.3,Win32,60.01680471,627c6715c52fd12f31907bcf,,,,,,,,,,,,,,,,,,,,,,,a,0,"[""0.132"",""0.195"",""0.589"",""0.716""]","[1,1,0,1]",0,20,20,20,1,1,0,,,1,FALSE,0.5173,,,,,,,,,,,,,,,,,,,,,,,,,,,,,,,
,60fbb2dc4ccfafe85794049a,627c675dae0fb064bc6153d8,2022-05-12_04h01.17.925,classification_task,2021.2.3,Win32,60.01680471,627c6715c52fd12f31907bcf,,,,,,,,,,,,,,,,,,,,,,,l,0,"[""0.450"",""0.486"",""0.886"",""0.920""]","[0,1,1,1]",0,21,21,21,1,0,1,,,1,FALSE,0.8298,,,,,,,,,,,,,,,,,,,,,,,,,,,,,,,
,60fbb2dc4ccfafe85794049a,627c675dae0fb064bc6153d8,2022-05-12_04h01.17.925,classification_task,2021.2.3,Win32,60.01680471,627c6715c52fd12f31907bcf,,,,,,,,,,,,,,,,,,,,,,,a,1,"[""0.246"",""0.334"",""0.853"",""0.422""]","[1,1,1,0]",0,22,22,22,1,0,0,,,1,FALSE,0.9143,,,,,,,,,,,,,,,,,,,,,,,,,,,,,,,
,60fbb2dc4ccfafe85794049a,627c675dae0fb064bc6153d8,2022-05-12_04h01.17.925,classification_task,2021.2.3,Win32,60.01680471,627c6715c52fd12f31907bcf,,,,,,,,,,,,,,,,,,,,,,,a,0,"[""0.043"",""0.082"",""0.535"",""0.791""]","[1,0,1,1]",0,23,23,23,1,1,1,,,1,FALSE,2.9171,,,,,,,,,,,,,,,,,,,,,,,,,,,,,,,
,60fbb2dc4ccfafe85794049a,627c675dae0fb064bc6153d8,2022-05-12_04h01.17.925,classification_task,2021.2.3,Win32,60.01680471,627c6715c52fd12f31907bcf,,,,,,,,,,,,,,,,,,,,,,,a,1,"[""0.246"",""0.334"",""0.450"",""0.967""]","[1,1,0,1]",0,24,24,24,1,0,0,,,1,FALSE,4.0466,,,,,,,,,,,,,,,,,,,,,,,,,,,,,,,
,60fbb2dc4ccfafe85794049a,627c675dae0fb064bc6153d8,2022-05-12_04h01.17.925,classification_task,2021.2.3,Win32,60.01680471,627c6715c52fd12f31907bcf,,,,,,,,,,,,,,,,,,,,,,,a,1,"[""0.431"",""0.334"",""0.853"",""0.967""]","[0,1,1,1]",0,25,25,25,1,0,0,,,1,FALSE,5.634,,,,,,,,,,,,,,,,,,,,,,,,,,,,,,,
,60fbb2dc4ccfafe85794049a,627c675dae0fb064bc6153d8,2022-05-12_04h01.17.925,classification_task,2021.2.3,Win32,60.01680471,627c6715c52fd12f31907bcf,,,,,,,,,,,,,,,,,,,,,,,l,1,"[""0.584"",""0.385"",""0.535"",""0.791""]","[0,1,1,1]",0,26,26,26,1,1,1,,,1,FALSE,5.3165,,,,,,,,,,,,,,,,,,,,,,,,,,,,,,,
,60fbb2dc4ccfafe85794049a,627c675dae0fb064bc6153d8,2022-05-12_04h01.17.925,classification_task,2021.2.3,Win32,60.01680471,627c6715c52fd12f31907bcf,,,,,,,,,,,,,,,,,,,,,,,a,1,"[""0.299"",""0.486"",""0.886"",""0.082""]","[1,1,1,0]",0,27,27,27,1,0,1,,,1,FALSE,5.2377,,,,,,,,,,,,,,,,,,,,,,,,,,,,,,,
,60fbb2dc4ccfafe85794049a,627c675dae0fb064bc6153d8,2022-05-12_04h01.17.925,classification_task,2021.2.3,Win32,60.01680471,627c6715c52fd12f31907bcf,,,,,,,,,,,,,,,,,,,,,,,l,1,"[""0.132"",""0.195"",""0.637"",""0.095""]","[1,1,1,0]",0,28,28,28,1,1,0,,,1,FALSE,2.7559,,,,,,,,,,,,,,,,,,,,,,,,,,,,,,,
,60fbb2dc4ccfafe85794049a,627c675dae0fb064bc6153d8,2022-05-12_04h01.17.925,classification_task,2021.2.3,Win32,60.01680471,627c6715c52fd12f31907bcf,,,,,,,,,,,,,,,,,,,,,,,a,0,"[""0.043"",""0.385"",""0.443"",""0.791""]","[1,1,0,1]",0,29,29,29,1,1,1,,,1,FALSE,2.3352,,,,,,,,,,,,,,,,,,,,,,,,,,,,,,,
,60fbb2dc4ccfafe85794049a,627c675dae0fb064bc6153d8,2022-05-12_04h01.17.925,classification_task,2021.2.3,Win32,60.01680471,627c6715c52fd12f31907bcf,,,,,,,,,,,,,,,,,,,,,,,a,0,"[""0.132"",""0.443"",""0.637"",""0.716""]","[1,0,1,1]",0,30,30,30,1,1,0,,,1,FALSE,2.8538,,,,,,,,,,,,,,,,,,,,,,,,,,,,,,,
,60fbb2dc4ccfafe85794049a,627c675dae0fb064bc6153d8,2022-05-12_04h01.17.925,classification_task,2021.2.3,Win32,60.01680471,627c6715c52fd12f31907bcf,,,,,,,,,,,,,,,,,,,,,,,l,0,"[""0.246"",""0.431"",""0.853"",""0.967""]","[1,0,1,1]",0,31,31,31,1,0,0,,,1,FALSE,3.5934,,,,,,,,,,,,,,,,,,,,,,,,,,,,,,,
,60fbb2dc4ccfafe85794049a,627c675dae0fb064bc6153d8,2022-05-12_04h01.17.925,classification_task,2021.2.3,Win32,60.01680471,627c6715c52fd12f31907bcf,,,,,,,,,,,,,,,,,,,,,,,l,1,"[""0.043"",""0.385"",""0.535"",""0.431""]","[1,1,1,0]",0,32,32,32,1,1,1,,,1,FALSE,2.6699,,,,,,,,,,,,,,,,,,,,,,,,,,,,,,,
,60fbb2dc4ccfafe85794049a,627c675dae0fb064bc6153d8,2022-05-12_04h01.17.925,classification_task,2021.2.3,Win32,60.01680471,627c6715c52fd12f31907bcf,,,,,,,,,,,,,,,,,,,,,,,a,0,"[""0.043"",""0.385"",""0.603"",""0.791""]","[1,1,0,1]",0,33,33,33,1,1,1,,,1,FALSE,4.5958,,,,,,,,,,,,,,,,,,,,,,,,,,,,,,,
,60fbb2dc4ccfafe85794049a,627c675dae0fb064bc6153d8,2022-05-12_04h01.17.925,classification_task,2021.2.3,Win32,60.01680471,627c6715c52fd12f31907bcf,,,,,,,,,,,,,,,,,,,,,,,l,1,"[""0.132"",""0.195"",""0.637"",""0.584""]","[1,1,1,0]",0,34,34,34,1,1,0,,,1,FALSE,1.5692,,,,,,,,,,,,,,,,,,,,,,,,,,,,,,,
,60fbb2dc4ccfafe85794049a,627c675dae0fb064bc6153d8,2022-05-12_04h01.17.925,classification_task,2021.2.3,Win32,60.01680471,627c6715c52fd12f31907bcf,,,,,,,,,,,,,,,,,,,,,,,l,0,"[""0.299"",""0.082"",""0.886"",""0.920""]","[1,0,1,1]",0,35,35,35,1,0,1,,,1,FALSE,3.8343,,,,,,,,,,,,,,,,,,,,,,,,,,,,,,,
,60fbb2dc4ccfafe85794049a,627c675dae0fb064bc6153d8,2022-05-12_04h01.17.925,classification_task,2021.2.3,Win32,60.01680471,627c6715c52fd12f31907bcf,,,,,,,,,,,,,,,,,,,,,,,l,1,"[""0.132"",""0.195"",""0.095"",""0.716""]","[1,1,0,1]",0,36,36,36,1,1,0,,,1,FALSE,5.8176,,,,,,,,,,,,,,,,,,,,,,,,,,,,,,,
,60fbb2dc4ccfafe85794049a,627c675dae0fb064bc6153d8,2022-05-12_04h01.17.925,classification_task,2021.2.3,Win32,60.01680471,627c6715c52fd12f31907bcf,,,,,,,,,,,,,,,,,,,,,,,a,1,"[""0.299"",""0.486"",""0.886"",""0.082""]","[1,1,1,0]",0,37,37,37,1,0,1,,,1,FALSE,6.2458,,,,,,,,,,,,,,,,,,,,,,,,,,,,,,,
,60fbb2dc4ccfafe85794049a,627c675dae0fb064bc6153d8,2022-05-12_04h01.17.925,classification_task,2021.2.3,Win32,60.01680471,627c6715c52fd12f31907bcf,,,,,,,,,,,,,,,,,,,,,,,l,0,"[""0.584"",""0.486"",""0.886"",""0.920""]","[0,1,1,1]",0,38,38,38,1,0,1,,,1,FALSE,4.9066,,,,,,,,,,,,,,,,,,,,,,,,,,,,,,,
,60fbb2dc4ccfafe85794049a,627c675dae0fb064bc6153d8,2022-05-12_04h01.17.925,classification_task,2021.2.3,Win32,60.01680471,627c6715c52fd12f31907bcf,,,,,,,,,,,,,,,,,,,,,,,a,0,"[""0.450"",""0.195"",""0.637"",""0.716""]","[0,1,1,1]",0,39,39,39,1,1,0,,,1,FALSE,1.9207,,,,,,,,,,,,,,,,,,,,,,,,,,,,,,,
,60fbb2dc4ccfafe85794049a,627c675dae0fb064bc6153d8,2022-05-12_04h01.17.925,classification_task,2021.2.3,Win32,60.01680471,627c6715c52fd12f31907bcf,,,,,,,,,,,,,,,,,,,,,,,l,0,"[""0.589"",""0.334"",""0.853"",""0.967""]","[0,1,1,1]",0,40,40,40,1,0,0,,,1,FALSE,1.8682,,,,,,,,,,,,,,,,,,,,,,,,,,,,,,,
,60fbb2dc4ccfafe85794049a,627c675dae0fb064bc6153d8,2022-05-12_04h01.17.925,classification_task,2021.2.3,Win32,60.01680471,627c6715c52fd12f31907bcf,,,,,,,,,,,,,,,,,,,,,,,l,0,"[""0.246"",""0.334"",""0.082"",""0.967""]","[1,1,0,1]",0,41,41,41,1,0,0,,,1,FALSE,1.2396,,,,,,,,,,,,,,,,,,,,,,,,,,,,,,,
,60fbb2dc4ccfafe85794049a,627c675dae0fb064bc6153d8,2022-05-12_04h01.17.925,classification_task,2021.2.3,Win32,60.01680471,627c6715c52fd12f31907bcf,,,,,,,,,,,,,,,,,,,,,,,a,0,"[""0.132"",""0.450"",""0.637"",""0.716""]","[1,0,1,1]",0,42,42,42,1,1,0,,,1,FALSE,0.4151,,,,,,,,,,,,,,,,,,,,,,,,,,,,,,,
,60fbb2dc4ccfafe85794049a,627c675dae0fb064bc6153d8,2022-05-12_04h01.17.925,classification_task,2021.2.3,Win32,60.01680471,627c6715c52fd12f31907bcf,,,,,,,,,,,,,,,,,,,,,,,a,1,"[""0.246"",""0.334"",""0.853"",""0.589""]","[1,1,1,0]",0,43,43,43,1,0,0,,,1,FALSE,0.4456,,,,,,,,,,,,,,,,,,,,,,,,,,,,,,,
,60fbb2dc4ccfafe85794049a,627c675dae0fb064bc6153d8,2022-05-12_04h01.17.925,classification_task,2021.2.3,Win32,60.01680471,627c6715c52fd12f31907bcf,,,,,,,,,,,,,,,,,,,,,,,a,1,"[""0.299"",""0.486"",""0.422"",""0.920""]","[1,1,0,1]",0,44,44,44,1,0,1,,,1,FALSE,5.0175,,,,,,,,,,,,,,,,,,,,,,,,,,,,,,,
,60fbb2dc4ccfafe85794049a,627c675dae0fb064bc6153d8,2022-05-12_04h01.17.925,classification_task,2021.2.3,Win32,60.01680471,627c6715c52fd12f31907bcf,,,,,,,,,,,,,,,,,,,,,,,a,0,"[""0.043"",""0.422"",""0.535"",""0.791""]","[1,0,1,1]",0,45,45,45,1,1,1,,,1,FALSE,2.3721,,,,,,,,,,,,,,,,,,,,,,,,,,,,,,,
,60fbb2dc4ccfafe85794049a,627c675dae0fb064bc6153d8,2022-05-12_04h01.17.925,classification_task,2021.2.3,Win32,60.01680471,627c6715c52fd12f31907bcf,,,,,,,,,,,,,,,,,,,,,,,l,1,"[""0.596"",""0.385"",""0.535"",""0.791""]","[0,1,1,1]",0,46,46,46,1,1,1,,,1,FALSE,2.9492,,,,,,,,,,,,,,,,,,,,,,,,,,,,,,,
,60fbb2dc4ccfafe85794049a,627c675dae0fb064bc6153d8,2022-05-12_04h01.17.925,classification_task,2021.2.3,Win32,60.01680471,627c6715c52fd12f31907bcf,,,,,,,,,,,,,,,,,,,,,,,l,0,"[""0.246"",""0.431"",""0.853"",""0.967""]","[1,0,1,1]",0,47,47,47,1,0,0,,,1,FALSE,2.615,,,,,,,,,,,,,,,,,,,,,,,,,,,,,,,
,60fbb2dc4ccfafe85794049a,627c675dae0fb064bc6153d8,2022-05-12_04h01.17.925,classification_task,2021.2.3,Win32,60.01680471,627c6715c52fd12f31907bcf,,,,,,,,,,,,,,,,,,,,,,,l,0,"[""0.246"",""0.590"",""0.853"",""0.967""]","[1,0,1,1]",0,48,48,48,1,0,0,,,1,FALSE,2.2518,,,,,,,,,,,,,,,,,,,,,,,,,,,,,,,
,60fbb2dc4ccfafe85794049a,627c675dae0fb064bc6153d8,2022-05-12_04h01.17.925,classification_task,2021.2.3,Win32,60.01680471,627c6715c52fd12f31907bcf,,,,,,,,,,,,,,,,,,,,,,,l,0,"[""0.246"",""0.334"",""0.853"",""0.431""]","[1,1,1,0]",0,49,49,49,1,0,0,,,1,FALSE,2.1969,,,,,,,,,,,,,,,,,,,,,,,,,,,,,,,
,60fbb2dc4ccfafe85794049a,627c675dae0fb064bc6153d8,2022-05-12_04h01.17.925,classification_task,2021.2.3,Win32,60.01680471,627c6715c52fd12f31907bcf,,,,,,,,,,,,,,,,,,,,,,,a,0,"[""0.132"",""0.195"",""0.637"",""0.095""]","[1,1,1,0]",0,50,50,50,1,1,0,,,1,FALSE,1.3531,,,,,,,,,,,,,,,,,,,,,,,,,,,,,,,
,60fbb2dc4ccfafe85794049a,627c675dae0fb064bc6153d8,2022-05-12_04h01.17.925,classification_task,2021.2.3,Win32,60.01680471,627c6715c52fd12f31907bcf,,,,,,,,,,,,,,,,,,,,,,,l,0,"[""0.299"",""0.486"",""0.886"",""0.603""]","[1,1,1,0]",0,51,51,51,1,0,1,,,1,FALSE,1.3647,,,,,,,,,,,,,,,,,,,,,,,,,,,,,,,
,60fbb2dc4ccfafe85794049a,627c675dae0fb064bc6153d8,2022-05-12_04h01.17.925,classification_task,2021.2.3,Win32,60.01680471,627c6715c52fd12f31907bcf,,,,,,,,,,,,,,,,,,,,,,,a,0,"[""0.132"",""0.590"",""0.637"",""0.716""]","[1,0,1,1]",0,52,52,52,1,1,0,,,1,FALSE,2.9003,,,,,,,,,,,,,,,,,,,,,,,,,,,,,,,
,60fbb2dc4ccfafe85794049a,627c675dae0fb064bc6153d8,2022-05-12_04h01.17.925,classification_task,2021.2.3,Win32,60.01680471,627c6715c52fd12f31907bcf,,,,,,,,,,,,,,,,,,,,,,,l,1,"[""0.422"",""0.385"",""0.535"",""0.791""]","[0,1,1,1]",0,53,53,53,1,1,1,,,1,FALSE,1.6524,,,,,,,,,,,,,,,,,,,,,,,,,,,,,,,
,60fbb2dc4ccfafe85794049a,627c675dae0fb064bc6153d8,2022-05-12_04h01.17.925,classification_task,2021.2.3,Win32,60.01680471,627c6715c52fd12f31907bcf,,,,,,,,,,,,,,,,,,,,,,,a,0,"[""0.043"",""0.385"",""0.535"",""0.085""]","[1,1,1,0]",0,54,54,54,1,1,1,,,1,FALSE,2.8836,,,,,,,,,,,,,,,,,,,,,,,,,,,,,,,
,60fbb2dc4ccfafe85794049a,627c675dae0fb064bc6153d8,2022-05-12_04h01.17.925,classification_task,2021.2.3,Win32,60.01680471,627c6715c52fd12f31907bcf,,,,,,,,,,,,,,,,,,,,,,,l,0,"[""0.095"",""0.486"",""0.886"",""0.920""]","[0,1,1,1]",0,55,55,55,1,0,1,,,1,FALSE,1.0673,,,,,,,,,,,,,,,,,,,,,,,,,,,,,,,
,60fbb2dc4ccfafe85794049a,627c675dae0fb064bc6153d8,2022-05-12_04h01.17.925,classification_task,2021.2.3,Win32,60.01680471,627c6715c52fd12f31907bcf,,,,,,,,,,,,,,,,,,,,,,,l,0,"[""0.299"",""0.486"",""0.603"",""0.920""]","[1,1,0,1]",0,56,56,56,1,0,1,,,1,FALSE,0.2707,,,,,,,,,,,,,,,,,,,,,,,,,,,,,,,
,60fbb2dc4ccfafe85794049a,627c675dae0fb064bc6153d8,2022-05-12_04h01.17.925,classification_task,2021.2.3,Win32,60.01680471,627c6715c52fd12f31907bcf,,,,,,,,,,,,,,,,,,,,,,,a,0,"[""0.043"",""0.385"",""0.095"",""0.791""]","[1,1,0,1]",0,57,57,57,1,1,1,,,1,FALSE,0.1174,,,,,,,,,,,,,,,,,,,,,,,,,,,,,,,
,60fbb2dc4ccfafe85794049a,627c675dae0fb064bc6153d8,2022-05-12_04h01.17.925,classification_task,2021.2.3,Win32,60.01680471,627c6715c52fd12f31907bcf,,,,,,,,,,,,,,,,,,,,,,,l,0,"[""0.087"",""0.334"",""0.853"",""0.967""]","[0,1,1,1]",0,58,58,58,1,0,0,,,1,FALSE,0.0839,,,,,,,,,,,,,,,,,,,,,,,,,,,,,,,
,60fbb2dc4ccfafe85794049a,627c675dae0fb064bc6153d8,2022-05-12_04h01.17.925,classification_task,2021.2.3,Win32,60.01680471,627c6715c52fd12f31907bcf,,,,,,,,,,,,,,,,,,,,,,,l,1,"[""0.422"",""0.195"",""0.637"",""0.716""]","[0,1,1,1]",0,59,59,59,1,1,0,,,1,FALSE,0.2469,,,,,,,,,,,,,,,,,,,,,,,,,,,,,,,
,60fbb2dc4ccfafe85794049a,627c675dae0fb064bc6153d8,2022-05-12_04h01.17.925,classification_task,2021.2.3,Win32,60.01680471,627c6715c52fd12f31907bcf,,,,,,,,,,,,,,,,,,,,,,,l,0,"[""0.246"",""0.334"",""0.443"",""0.967""]","[1,1,0,1]",0,60,60,60,1,0,0,,,1,FALSE,1.4482,,,,,,,,,,,,,,,,,,,,,,,,,,,,,,,
,60fbb2dc4ccfafe85794049a,627c675dae0fb064bc6153d8,2022-05-12_04h01.17.925,classification_task,2021.2.3,Win32,60.01680471,627c6715c52fd12f31907bcf,,,,,,,,,,,,,,,,,,,,,,,a,0,"[""0.043"",""0.422"",""0.535"",""0.791""]","[1,0,1,1]",0,61,61,61,1,1,1,,,1,FALSE,0.9828,,,,,,,,,,,,,,,,,,,,,,,,,,,,,,,
,60fbb2dc4ccfafe85794049a,627c675dae0fb064bc6153d8,2022-05-12_04h01.17.925,classification_task,2021.2.3,Win32,60.01680471,627c6715c52fd12f31907bcf,,,,,,,,,,,,,,,,,,,,,,,l,1,"[""0.132"",""0.195"",""0.422"",""0.716""]","[1,1,0,1]",0,62,62,62,1,1,0,,,1,FALSE,0.6668,,,,,,,,,,,,,,,,,,,,,,,,,,,,,,,
,60fbb2dc4ccfafe85794049a,627c675dae0fb064bc6153d8,2022-05-12_04h01.17.925,classification_task,2021.2.3,Win32,60.01680471,627c6715c52fd12f31907bcf,,,,,,,,,,,,,,,,,,,,,,,a,1,"[""0.299"",""0.422"",""0.886"",""0.920""]","[1,0,1,1]",0,63,63,63,1,0,1,,,1,FALSE,2.9473,,,,,,,,,,,,,,,,,,,,,,,,,,,,,,,
,60fbb2dc4ccfafe85794049a,627c675dae0fb064bc6153d8,2022-05-12_04h01.17.925,classification_task,2021.2.3,Win32,60.01680471,627c6715c52fd12f31907bcf,,,,,,,,,,,,,,,,,,,,,,,,,,,,,,,,,,,,,,,0, ,,0,10,250.1352,0,1,1,1,1,2,2,,,,,,,,,,,,,,,,,,
,60fbb2dc4ccfafe85794049a,627c675dae0fb064bc6153d8,2022-05-12_04h01.17.925,classification_task,2021.2.3,Win32,60.01680471,627c6715c52fd12f31907bcf,,,,,,,,,,,,,,,,,,,,,,,,,,,,,,,,,,,,,,,1,  ,,0,9.925870811,254.4008,0,1,1,1,1,2,2,,,,,,,,,,,,,,,,,,
,60fbb2dc4ccfafe85794049a,627c675dae0fb064bc6153d8,2022-05-12_04h01.17.925,classification_task,2021.2.3,Win32,60.01680471,627c6715c52fd12f31907bcf,,,,,,,,,,,,,,,,,,,,,,,,,,,,,,,,,,,,,,,2,  ,,0,10,257.6212,0,1,1,1,1,2,2,,,,,,,,,,,,,,,,,,
,60fbb2dc4ccfafe85794049a,627c675dae0fb064bc6153d8,2022-05-12_04h01.17.925,classification_task,2021.2.3,Win32,60.01680471,627c6715c52fd12f31907bcf,,,,,,,,,,,,,,,,,,,,,,,,,,,,,,,,,,,,,,,,,,,,,0,1,1,1,1,,2,,,,,,,,,,,,,,,,,,
,60fbb2dc4ccfafe85794049a,627c675dae0fb064bc6153d8,2022-05-12_04h01.17.925,classification_task,2021.2.3,Win32,60.01680471,627c6715c52fd12f31907bcf,,,,,,,,,,,,,,,,,,,,,space,16.4204,l,0,"[""0.299"",""0.450"",""0.886"",""0.920""]","[1,0,1,1]",0,0,0,0,1,0,1,,,1,FALSE,5.1189,,,,,,,,,,,,,,,,,,,,,,,,,,,,,,,
,60fbb2dc4ccfafe85794049a,627c675dae0fb064bc6153d8,2022-05-12_04h01.17.925,classification_task,2021.2.3,Win32,60.01680471,627c6715c52fd12f31907bcf,,,,,,,,,,,,,,,,,,,,,,,l,0,"[""0.246"",""0.085"",""0.853"",""0.967""]","[1,0,1,1]",0,1,1,1,1,0,0,,,1,FALSE,4.2852,,,,,,,,,,,,,,,,,,,,,,,,,,,,,,,
,60fbb2dc4ccfafe85794049a,627c675dae0fb064bc6153d8,2022-05-12_04h01.17.925,classification_task,2021.2.3,Win32,60.01680471,627c6715c52fd12f31907bcf,,,,,,,,,,,,,,,,,,,,,,,l,1,"[""0.043"",""0.385"",""0.535"",""0.603""]","[1,1,1,0]",0,2,2,2,1,1,1,,,1,FALSE,4.8879,,,,,,,,,,,,,,,,,,,,,,,,,,,,,,,
,60fbb2dc4ccfafe85794049a,627c675dae0fb064bc6153d8,2022-05-12_04h01.17.925,classification_task,2021.2.3,Win32,60.01680471,627c6715c52fd12f31907bcf,,,,,,,,,,,,,,,,,,,,,,,a,0,"[""0.085"",""0.195"",""0.637"",""0.716""]","[0,1,1,1]",0,3,3,3,1,1,0,,,1,FALSE,2.3055,,,,,,,,,,,,,,,,,,,,,,,,,,,,,,,
,60fbb2dc4ccfafe85794049a,627c675dae0fb064bc6153d8,2022-05-12_04h01.17.925,classification_task,2021.2.3,Win32,60.01680471,627c6715c52fd12f31907bcf,,,,,,,,,,,,,,,,,,,,,,,l,0,"[""0.299"",""0.486"",""0.886"",""0.095""]","[1,1,1,0]",0,4,4,4,1,0,1,,,1,FALSE,1.6224,,,,,,,,,,,,,,,,,,,,,,,,,,,,,,,
,60fbb2dc4ccfafe85794049a,627c675dae0fb064bc6153d8,2022-05-12_04h01.17.925,classification_task,2021.2.3,Win32,60.01680471,627c6715c52fd12f31907bcf,,,,,,,,,,,,,,,,,,,,,,,a,0,"[""0.132"",""0.195"",""0.637"",""0.085""]","[1,1,1,0]",0,5,5,5,1,1,0,,,1,FALSE,4.0329,,,,,,,,,,,,,,,,,,,,,,,,,,,,,,,
,60fbb2dc4ccfafe85794049a,627c675dae0fb064bc6153d8,2022-05-12_04h01.17.925,classification_task,2021.2.3,Win32,60.01680471,627c6715c52fd12f31907bcf,,,,,,,,,,,,,,,,,,,,,,,a,0,"[""0.043"",""0.087"",""0.535"",""0.791""]","[1,0,1,1]",0,6,6,6,1,1,1,,,1,FALSE,1.7434,,,,,,,,,,,,,,,,,,,,,,,,,,,,,,,
,60fbb2dc4ccfafe85794049a,627c675dae0fb064bc6153d8,2022-05-12_04h01.17.925,classification_task,2021.2.3,Win32,60.01680471,627c6715c52fd12f31907bcf,,,,,,,,,,,,,,,,,,,,,,,a,1,"[""0.246"",""0.334"",""0.087"",""0.967""]","[1,1,0,1]",0,7,7,7,1,0,0,,,1,FALSE,1.6677,,,,,,,,,,,,,,,,,,,,,,,,,,,,,,,
,60fbb2dc4ccfafe85794049a,627c675dae0fb064bc6153d8,2022-05-12_04h01.17.925,classification_task,2021.2.3,Win32,60.01680471,627c6715c52fd12f31907bcf,,,,,,,,,,,,,,,,,,,,,,,l,1,"[""0.043"",""0.385"",""0.593"",""0.791""]","[1,1,0,1]",0,8,8,8,1,1,1,,,1,FALSE,2.2327,,,,,,,,,,,,,,,,,,,,,,,,,,,,,,,
,60fbb2dc4ccfafe85794049a,627c675dae0fb064bc6153d8,2022-05-12_04h01.17.925,classification_task,2021.2.3,Win32,60.01680471,627c6715c52fd12f31907bcf,,,,,,,,,,,,,,,,,,,,,,,a,0,"[""0.132"",""0.195"",""0.431"",""0.716""]","[1,1,0,1]",0,9,9,9,1,1,0,,,1,FALSE,1.5412,,,,,,,,,,,,,,,,,,,,,,,,,,,,,,,
,60fbb2dc4ccfafe85794049a,627c675dae0fb064bc6153d8,2022-05-12_04h01.17.925,classification_task,2021.2.3,Win32,60.01680471,627c6715c52fd12f31907bcf,,,,,,,,,,,,,,,,,,,,,,,l,1,"[""0.443"",""0.385"",""0.535"",""0.791""]","[0,1,1,1]",0,10,10,10,1,1,1,,,1,FALSE,1.3672,,,,,,,,,,,,,,,,,,,,,,,,,,,,,,,
,60fbb2dc4ccfafe85794049a,627c675dae0fb064bc6153d8,2022-05-12_04h01.17.925,classification_task,2021.2.3,Win32,60.01680471,627c6715c52fd12f31907bcf,,,,,,,,,,,,,,,,,,,,,,,a,1,"[""0.422"",""0.486"",""0.886"",""0.920""]","[0,1,1,1]",0,11,11,11,1,0,1,,,1,FALSE,1.1503,,,,,,,,,,,,,,,,,,,,,,,,,,,,,,,
,60fbb2dc4ccfafe85794049a,627c675dae0fb064bc6153d8,2022-05-12_04h01.17.925,classification_task,2021.2.3,Win32,60.01680471,627c6715c52fd12f31907bcf,,,,,,,,,,,,,,,,,,,,,,,a,1,"[""0.603"",""0.334"",""0.853"",""0.967""]","[0,1,1,1]",0,12,12,12,1,0,0,,,1,FALSE,0.9561,,,,,,,,,,,,,,,,,,,,,,,,,,,,,,,
,60fbb2dc4ccfafe85794049a,627c675dae0fb064bc6153d8,2022-05-12_04h01.17.925,classification_task,2021.2.3,Win32,60.01680471,627c6715c52fd12f31907bcf,,,,,,,,,,,,,,,,,,,,,,,l,1,"[""0.132"",""0.584"",""0.637"",""0.716""]","[1,0,1,1]",0,13,13,13,1,1,0,,,1,FALSE,0.9978,,,,,,,,,,,,,,,,,,,,,,,,,,,,,,,
,60fbb2dc4ccfafe85794049a,627c675dae0fb064bc6153d8,2022-05-12_04h01.17.925,classification_task,2021.2.3,Win32,60.01680471,627c6715c52fd12f31907bcf,,,,,,,,,,,,,,,,,,,,,,,a,1,"[""0.299"",""0.486"",""0.450"",""0.920""]","[1,1,0,1]",0,14,14,14,1,0,1,,,1,FALSE,0.7491,,,,,,,,,,,,,,,,,,,,,,,,,,,,,,,
,60fbb2dc4ccfafe85794049a,627c675dae0fb064bc6153d8,2022-05-12_04h01.17.925,classification_task,2021.2.3,Win32,60.01680471,627c6715c52fd12f31907bcf,,,,,,,,,,,,,,,,,,,,,,,a,1,"[""0.246"",""0.334"",""0.853"",""0.443""]","[1,1,1,0]",0,15,15,15,1,0,0,,,1,FALSE,0.664,,,,,,,,,,,,,,,,,,,,,,,,,,,,,,,
,60fbb2dc4ccfafe85794049a,627c675dae0fb064bc6153d8,2022-05-12_04h01.17.925,classification_task,2021.2.3,Win32,60.01680471,627c6715c52fd12f31907bcf,,,,,,,,,,,,,,,,,,,,,,,a,1,"[""0.085"",""0.486"",""0.886"",""0.920""]","[0,1,1,1]",0,16,16,16,1,0,1,,,1,FALSE,0.7507,,,,,,,,,,,,,,,,,,,,,,,,,,,,,,,
,60fbb2dc4ccfafe85794049a,627c675dae0fb064bc6153d8,2022-05-12_04h01.17.925,classification_task,2021.2.3,Win32,60.01680471,627c6715c52fd12f31907bcf,,,,,,,,,,,,,,,,,,,,,,,a,1,"[""0.584"",""0.334"",""0.853"",""0.967""]","[0,1,1,1]",0,17,17,17,1,0,0,,,1,FALSE,0.6322,,,,,,,,,,,,,,,,,,,,,,,,,,,,,,,
,60fbb2dc4ccfafe85794049a,627c675dae0fb064bc6153d8,2022-05-12_04h01.17.925,classification_task,2021.2.3,Win32,60.01680471,627c6715c52fd12f31907bcf,,,,,,,,,,,,,,,,,,,,,,,a,1,"[""0.246"",""0.334"",""0.593"",""0.967""]","[1,1,0,1]",0,18,18,18,1,0,0,,,1,FALSE,0.5847,,,,,,,,,,,,,,,,,,,,,,,,,,,,,,,
,60fbb2dc4ccfafe85794049a,627c675dae0fb064bc6153d8,2022-05-12_04h01.17.925,classification_task,2021.2.3,Win32,60.01680471,627c6715c52fd12f31907bcf,,,,,,,,,,,,,,,,,,,,,,,a,0,"[""0.132"",""0.195"",""0.584"",""0.716""]","[1,1,0,1]",0,19,19,19,1,1,0,,,1,FALSE,0.6961,,,,,,,,,,,,,,,,,,,,,,,,,,,,,,,
,60fbb2dc4ccfafe85794049a,627c675dae0fb064bc6153d8,2022-05-12_04h01.17.925,classification_task,2021.2.3,Win32,60.01680471,627c6715c52fd12f31907bcf,,,,,,,,,,,,,,,,,,,,,,,a,0,"[""0.577"",""0.385"",""0.535"",""0.791""]","[0,1,1,1]",0,20,20,20,1,1,1,,,1,FALSE,0.6315,,,,,,,,,,,,,,,,,,,,,,,,,,,,,,,
,60fbb2dc4ccfafe85794049a,627c675dae0fb064bc6153d8,2022-05-12_04h01.17.925,classification_task,2021.2.3,Win32,60.01680471,627c6715c52fd12f31907bcf,,,,,,,,,,,,,,,,,,,,,,,a,0,"[""0.132"",""0.087"",""0.637"",""0.716""]","[1,0,1,1]",0,21,21,21,1,1,0,,,1,FALSE,0.6515,,,,,,,,,,,,,,,,,,,,,,,,,,,,,,,
,60fbb2dc4ccfafe85794049a,627c675dae0fb064bc6153d8,2022-05-12_04h01.17.925,classification_task,2021.2.3,Win32,60.01680471,627c6715c52fd12f31907bcf,,,,,,,,,,,,,,,,,,,,,,,a,0,"[""0.043"",""0.422"",""0.535"",""0.791""]","[1,0,1,1]",0,22,22,22,1,1,1,,,1,FALSE,0.6186,,,,,,,,,,,,,,,,,,,,,,,,,,,,,,,
,60fbb2dc4ccfafe85794049a,627c675dae0fb064bc6153d8,2022-05-12_04h01.17.925,classification_task,2021.2.3,Win32,60.01680471,627c6715c52fd12f31907bcf,,,,,,,,,,,,,,,,,,,,,,,a,0,"[""0.043"",""0.385"",""0.085"",""0.791""]","[1,1,0,1]",0,23,23,23,1,1,1,,,1,FALSE,0.6198,,,,,,,,,,,,,,,,,,,,,,,,,,,,,,,
,60fbb2dc4ccfafe85794049a,627c675dae0fb064bc6153d8,2022-05-12_04h01.17.925,classification_task,2021.2.3,Win32,60.01680471,627c6715c52fd12f31907bcf,,,,,,,,,,,,,,,,,,,,,,,a,1,"[""0.246"",""0.334"",""0.853"",""0.443""]","[1,1,1,0]",0,24,24,24,1,0,0,,,1,FALSE,0.6687,,,,,,,,,,,,,,,,,,,,,,,,,,,,,,,
,60fbb2dc4ccfafe85794049a,627c675dae0fb064bc6153d8,2022-05-12_04h01.17.925,classification_task,2021.2.3,Win32,60.01680471,627c6715c52fd12f31907bcf,,,,,,,,,,,,,,,,,,,,,,,a,1,"[""0.299"",""0.085"",""0.886"",""0.920""]","[1,0,1,1]",0,25,25,25,1,0,1,,,1,FALSE,0.5292,,,,,,,,,,,,,,,,,,,,,,,,,,,,,,,
,60fbb2dc4ccfafe85794049a,627c675dae0fb064bc6153d8,2022-05-12_04h01.17.925,classification_task,2021.2.3,Win32,60.01680471,627c6715c52fd12f31907bcf,,,,,,,,,,,,,,,,,,,,,,,a,1,"[""0.246"",""0.590"",""0.853"",""0.967""]","[1,0,1,1]",0,26,26,26,1,0,0,,,1,FALSE,0.4516,,,,,,,,,,,,,,,,,,,,,,,,,,,,,,,
,60fbb2dc4ccfafe85794049a,627c675dae0fb064bc6153d8,2022-05-12_04h01.17.925,classification_task,2021.2.3,Win32,60.01680471,627c6715c52fd12f31907bcf,,,,,,,,,,,,,,,,,,,,,,,a,0,"[""0.589"",""0.195"",""0.637"",""0.716""]","[0,1,1,1]",0,27,27,27,1,1,0,,,1,FALSE,0.4138,,,,,,,,,,,,,,,,,,,,,,,,,,,,,,,
,60fbb2dc4ccfafe85794049a,627c675dae0fb064bc6153d8,2022-05-12_04h01.17.925,classification_task,2021.2.3,Win32,60.01680471,627c6715c52fd12f31907bcf,,,,,,,,,,,,,,,,,,,,,,,l,0,"[""0.299"",""0.486"",""0.085"",""0.920""]","[1,1,0,1]",0,28,28,28,1,0,1,,,1,FALSE,0.3811,,,,,,,,,,,,,,,,,,,,,,,,,,,,,,,
,60fbb2dc4ccfafe85794049a,627c675dae0fb064bc6153d8,2022-05-12_04h01.17.925,classification_task,2021.2.3,Win32,60.01680471,627c6715c52fd12f31907bcf,,,,,,,,,,,,,,,,,,,,,,,a,0,"[""0.132"",""0.195"",""0.637"",""0.596""]","[1,1,1,0]",0,29,29,29,1,1,0,,,1,FALSE,1.2524,,,,,,,,,,,,,,,,,,,,,,,,,,,,,,,
,60fbb2dc4ccfafe85794049a,627c675dae0fb064bc6153d8,2022-05-12_04h01.17.925,classification_task,2021.2.3,Win32,60.01680471,627c6715c52fd12f31907bcf,,,,,,,,,,,,,,,,,,,,,,,a,1,"[""0.299"",""0.486"",""0.886"",""0.603""]","[1,1,1,0]",0,30,30,30,1,0,1,,,1,FALSE,1.0337,,,,,,,,,,,,,,,,,,,,,,,,,,,,,,,
,60fbb2dc4ccfafe85794049a,627c675dae0fb064bc6153d8,2022-05-12_04h01.17.925,classification_task,2021.2.3,Win32,60.01680471,627c6715c52fd12f31907bcf,,,,,,,,,,,,,,,,,,,,,,,a,0,"[""0.043"",""0.385"",""0.535"",""0.085""]","[1,1,1,0]",0,31,31,31,1,1,1,,,1,FALSE,0.6661,,,,,,,,,,,,,,,,,,,,,,,,,,,,,,,
,60fbb2dc4ccfafe85794049a,627c675dae0fb064bc6153d8,2022-05-12_04h01.17.925,classification_task,2021.2.3,Win32,60.01680471,627c6715c52fd12f31907bcf,,,,,,,,,,,,,,,,,,,,,,,a,0,"[""0.132"",""0.195"",""0.637"",""0.603""]","[1,1,1,0]",0,32,32,32,1,1,0,,,1,FALSE,0.8503,,,,,,,,,,,,,,,,,,,,,,,,,,,,,,,
,60fbb2dc4ccfafe85794049a,627c675dae0fb064bc6153d8,2022-05-12_04h01.17.925,classification_task,2021.2.3,Win32,60.01680471,627c6715c52fd12f31907bcf,,,,,,,,,,,,,,,,,,,,,,,a,1,"[""0.246"",""0.577"",""0.853"",""0.967""]","[1,0,1,1]",0,33,33,33,1,0,0,,,1,FALSE,1.2543,,,,,,,,,,,,,,,,,,,,,,,,,,,,,,,
,60fbb2dc4ccfafe85794049a,627c675dae0fb064bc6153d8,2022-05-12_04h01.17.925,classification_task,2021.2.3,Win32,60.01680471,627c6715c52fd12f31907bcf,,,,,,,,,,,,,,,,,,,,,,,a,1,"[""0.422"",""0.486"",""0.886"",""0.920""]","[0,1,1,1]",0,34,34,34,1,0,1,,,1,FALSE,0.9339,,,,,,,,,,,,,,,,,,,,,,,,,,,,,,,
,60fbb2dc4ccfafe85794049a,627c675dae0fb064bc6153d8,2022-05-12_04h01.17.925,classification_task,2021.2.3,Win32,60.01680471,627c6715c52fd12f31907bcf,,,,,,,,,,,,,,,,,,,,,,,a,0,"[""0.043"",""0.385"",""0.590"",""0.791""]","[1,1,0,1]",0,35,35,35,1,1,1,,,1,FALSE,0.6467,,,,,,,,,,,,,,,,,,,,,,,,,,,,,,,
,60fbb2dc4ccfafe85794049a,627c675dae0fb064bc6153d8,2022-05-12_04h01.17.925,classification_task,2021.2.3,Win32,60.01680471,627c6715c52fd12f31907bcf,,,,,,,,,,,,,,,,,,,,,,,l,0,"[""0.603"",""0.334"",""0.853"",""0.967""]","[0,1,1,1]",0,36,36,36,1,0,0,,,1,FALSE,0.4966,,,,,,,,,,,,,,,,,,,,,,,,,,,,,,,
,60fbb2dc4ccfafe85794049a,627c675dae0fb064bc6153d8,2022-05-12_04h01.17.925,classification_task,2021.2.3,Win32,60.01680471,627c6715c52fd12f31907bcf,,,,,,,,,,,,,,,,,,,,,,,l,0,"[""0.246"",""0.334"",""0.853"",""0.603""]","[1,1,1,0]",0,37,37,37,1,0,0,,,1,FALSE,0.3718,,,,,,,,,,,,,,,,,,,,,,,,,,,,,,,
,60fbb2dc4ccfafe85794049a,627c675dae0fb064bc6153d8,2022-05-12_04h01.17.925,classification_task,2021.2.3,Win32,60.01680471,627c6715c52fd12f31907bcf,,,,,,,,,,,,,,,,,,,,,,,a,0,"[""0.043"",""0.085"",""0.535"",""0.791""]","[1,0,1,1]",0,38,38,38,1,1,1,,,1,FALSE,0.635,,,,,,,,,,,,,,,,,,,,,,,,,,,,,,,
,60fbb2dc4ccfafe85794049a,627c675dae0fb064bc6153d8,2022-05-12_04h01.17.925,classification_task,2021.2.3,Win32,60.01680471,627c6715c52fd12f31907bcf,,,,,,,,,,,,,,,,,,,,,,,l,1,"[""0.087"",""0.385"",""0.535"",""0.791""]","[0,1,1,1]",0,39,39,39,1,1,1,,,1,FALSE,0.3674,,,,,,,,,,,,,,,,,,,,,,,,,,,,,,,
,60fbb2dc4ccfafe85794049a,627c675dae0fb064bc6153d8,2022-05-12_04h01.17.925,classification_task,2021.2.3,Win32,60.01680471,627c6715c52fd12f31907bcf,,,,,,,,,,,,,,,,,,,,,,,a,0,"[""0.043"",""0.385"",""0.535"",""0.593""]","[1,1,1,0]",0,40,40,40,1,1,1,,,1,FALSE,0.2687,,,,,,,,,,,,,,,,,,,,,,,,,,,,,,,
,60fbb2dc4ccfafe85794049a,627c675dae0fb064bc6153d8,2022-05-12_04h01.17.925,classification_task,2021.2.3,Win32,60.01680471,627c6715c52fd12f31907bcf,,,,,,,,,,,,,,,,,,,,,,,a,0,"[""0.132"",""0.195"",""0.577"",""0.716""]","[1,1,0,1]",0,41,41,41,1,1,0,,,1,FALSE,0.318,,,,,,,,,,,,,,,,,,,,,,,,,,,,,,,
,60fbb2dc4ccfafe85794049a,627c675dae0fb064bc6153d8,2022-05-12_04h01.17.925,classification_task,2021.2.3,Win32,60.01680471,627c6715c52fd12f31907bcf,,,,,,,,,,,,,,,,,,,,,,,l,1,"[""0.132"",""0.087"",""0.637"",""0.716""]","[1,0,1,1]",0,42,42,42,1,1,0,,,1,FALSE,0.3683,,,,,,,,,,,,,,,,,,,,,,,,,,,,,,,
,60fbb2dc4ccfafe85794049a,627c675dae0fb064bc6153d8,2022-05-12_04h01.17.925,classification_task,2021.2.3,Win32,60.01680471,627c6715c52fd12f31907bcf,,,,,,,,,,,,,,,,,,,,,,,l,0,"[""0.299"",""0.486"",""0.085"",""0.920""]","[1,1,0,1]",0,43,43,43,1,0,1,,,1,FALSE,0.3301,,,,,,,,,,,,,,,,,,,,,,,,,,,,,,,
,60fbb2dc4ccfafe85794049a,627c675dae0fb064bc6153d8,2022-05-12_04h01.17.925,classification_task,2021.2.3,Win32,60.01680471,627c6715c52fd12f31907bcf,,,,,,,,,,,,,,,,,,,,,,,l,0,"[""0.299"",""0.589"",""0.886"",""0.920""]","[1,0,1,1]",0,44,44,44,1,0,1,,,1,FALSE,0.335,,,,,,,,,,,,,,,,,,,,,,,,,,,,,,,
,60fbb2dc4ccfafe85794049a,627c675dae0fb064bc6153d8,2022-05-12_04h01.17.925,classification_task,2021.2.3,Win32,60.01680471,627c6715c52fd12f31907bcf,,,,,,,,,,,,,,,,,,,,,,,a,1,"[""0.246"",""0.334"",""0.431"",""0.967""]","[1,1,0,1]",0,45,45,45,1,0,0,,,1,FALSE,0.2741,,,,,,,,,,,,,,,,,,,,,,,,,,,,,,,
,60fbb2dc4ccfafe85794049a,627c675dae0fb064bc6153d8,2022-05-12_04h01.17.925,classification_task,2021.2.3,Win32,60.01680471,627c6715c52fd12f31907bcf,,,,,,,,,,,,,,,,,,,,,,,a,1,"[""0.299"",""0.486"",""0.886"",""0.431""]","[1,1,1,0]",0,46,46,46,1,0,1,,,1,FALSE,0.2663,,,,,,,,,,,,,,,,,,,,,,,,,,,,,,,
,60fbb2dc4ccfafe85794049a,627c675dae0fb064bc6153d8,2022-05-12_04h01.17.925,classification_task,2021.2.3,Win32,60.01680471,627c6715c52fd12f31907bcf,,,,,,,,,,,,,,,,,,,,,,,l,1,"[""0.584"",""0.195"",""0.637"",""0.716""]","[0,1,1,1]",0,47,47,47,1,1,0,,,1,FALSE,0.3683,,,,,,,,,,,,,,,,,,,,,,,,,,,,,,,
,60fbb2dc4ccfafe85794049a,627c675dae0fb064bc6153d8,2022-05-12_04h01.17.925,classification_task,2021.2.3,Win32,60.01680471,627c6715c52fd12f31907bcf,,,,,,,,,,,,,,,,,,,,,,,l,0,"[""0.246"",""0.334"",""0.853"",""0.082""]","[1,1,1,0]",0,48,48,48,1,0,0,,,1,FALSE,1.3016,,,,,,,,,,,,,,,,,,,,,,,,,,,,,,,
,60fbb2dc4ccfafe85794049a,627c675dae0fb064bc6153d8,2022-05-12_04h01.17.925,classification_task,2021.2.3,Win32,60.01680471,627c6715c52fd12f31907bcf,,,,,,,,,,,,,,,,,,,,,,,a,0,"[""0.043"",""0.584"",""0.535"",""0.791""]","[1,0,1,1]",0,49,49,49,1,1,1,,,1,FALSE,4.6015,,,,,,,,,,,,,,,,,,,,,,,,,,,,,,,
,60fbb2dc4ccfafe85794049a,627c675dae0fb064bc6153d8,2022-05-12_04h01.17.925,classification_task,2021.2.3,Win32,60.01680471,627c6715c52fd12f31907bcf,,,,,,,,,,,,,,,,,,,,,,,a,0,"[""0.132"",""0.195"",""0.596"",""0.716""]","[1,1,0,1]",0,50,50,50,1,1,0,,,1,FALSE,2.4416,,,,,,,,,,,,,,,,,,,,,,,,,,,,,,,
,60fbb2dc4ccfafe85794049a,627c675dae0fb064bc6153d8,2022-05-12_04h01.17.925,classification_task,2021.2.3,Win32,60.01680471,627c6715c52fd12f31907bcf,,,,,,,,,,,,,,,,,,,,,,,l,0,"[""0.246"",""0.584"",""0.853"",""0.967""]","[1,0,1,1]",0,51,51,51,1,0,0,,,1,FALSE,2.4199,,,,,,,,,,,,,,,,,,,,,,,,,,,,,,,
,60fbb2dc4ccfafe85794049a,627c675dae0fb064bc6153d8,2022-05-12_04h01.17.925,classification_task,2021.2.3,Win32,60.01680471,627c6715c52fd12f31907bcf,,,,,,,,,,,,,,,,,,,,,,,a,0,"[""0.095"",""0.385"",""0.535"",""0.791""]","[0,1,1,1]",0,52,52,52,1,1,1,,,1,FALSE,1.9697,,,,,,,,,,,,,,,,,,,,,,,,,,,,,,,
,60fbb2dc4ccfafe85794049a,627c675dae0fb064bc6153d8,2022-05-12_04h01.17.925,classification_task,2021.2.3,Win32,60.01680471,627c6715c52fd12f31907bcf,,,,,,,,,,,,,,,,,,,,,,,l,1,"[""0.584"",""0.195"",""0.637"",""0.716""]","[0,1,1,1]",0,53,53,53,1,1,0,,,1,FALSE,1.7729,,,,,,,,,,,,,,,,,,,,,,,,,,,,,,,
,60fbb2dc4ccfafe85794049a,627c675dae0fb064bc6153d8,2022-05-12_04h01.17.925,classification_task,2021.2.3,Win32,60.01680471,627c6715c52fd12f31907bcf,,,,,,,,,,,,,,,,,,,,,,,l,0,"[""0.246"",""0.334"",""0.443"",""0.967""]","[1,1,0,1]",0,54,54,54,1,0,0,,,1,FALSE,2.7732,,,,,,,,,,,,,,,,,,,,,,,,,,,,,,,
,60fbb2dc4ccfafe85794049a,627c675dae0fb064bc6153d8,2022-05-12_04h01.17.925,classification_task,2021.2.3,Win32,60.01680471,627c6715c52fd12f31907bcf,,,,,,,,,,,,,,,,,,,,,,,a,1,"[""0.299"",""0.486"",""0.886"",""0.584""]","[1,1,1,0]",0,55,55,55,1,0,1,,,1,FALSE,2.1356,,,,,,,,,,,,,,,,,,,,,,,,,,,,,,,
,60fbb2dc4ccfafe85794049a,627c675dae0fb064bc6153d8,2022-05-12_04h01.17.925,classification_task,2021.2.3,Win32,60.01680471,627c6715c52fd12f31907bcf,,,,,,,,,,,,,,,,,,,,,,,a,1,"[""0.590"",""0.486"",""0.886"",""0.920""]","[0,1,1,1]",0,56,56,56,1,0,1,,,1,FALSE,1.8565,,,,,,,,,,,,,,,,,,,,,,,,,,,,,,,
,60fbb2dc4ccfafe85794049a,627c675dae0fb064bc6153d8,2022-05-12_04h01.17.925,classification_task,2021.2.3,Win32,60.01680471,627c6715c52fd12f31907bcf,,,,,,,,,,,,,,,,,,,,,,,a,1,"[""0.299"",""0.486"",""0.082"",""0.920""]","[1,1,0,1]",0,57,57,57,1,0,1,,,1,FALSE,1.6836,,,,,,,,,,,,,,,,,,,,,,,,,,,,,,,
,60fbb2dc4ccfafe85794049a,627c675dae0fb064bc6153d8,2022-05-12_04h01.17.925,classification_task,2021.2.3,Win32,60.01680471,627c6715c52fd12f31907bcf,,,,,,,,,,,,,,,,,,,,,,,l,1,"[""0.132"",""0.085"",""0.637"",""0.716""]","[1,0,1,1]",0,58,58,58,1,1,0,,,1,FALSE,1.1142,,,,,,,,,,,,,,,,,,,,,,,,,,,,,,,
,60fbb2dc4ccfafe85794049a,627c675dae0fb064bc6153d8,2022-05-12_04h01.17.925,classification_task,2021.2.3,Win32,60.01680471,627c6715c52fd12f31907bcf,,,,,,,,,,,,,,,,,,,,,,,a,1,"[""0.593"",""0.334"",""0.853"",""0.967""]","[0,1,1,1]",0,59,59,59,1,0,0,,,1,FALSE,0.8354,,,,,,,,,,,,,,,,,,,,,,,,,,,,,,,
,60fbb2dc4ccfafe85794049a,627c675dae0fb064bc6153d8,2022-05-12_04h01.17.925,classification_task,2021.2.3,Win32,60.01680471,627c6715c52fd12f31907bcf,,,,,,,,,,,,,,,,,,,,,,,a,0,"[""0.043"",""0.385"",""0.535"",""0.085""]","[1,1,1,0]",0,60,60,60,1,1,1,,,1,FALSE,0.6165,,,,,,,,,,,,,,,,,,,,,,,,,,,,,,,
,60fbb2dc4ccfafe85794049a,627c675dae0fb064bc6153d8,2022-05-12_04h01.17.925,classification_task,2021.2.3,Win32,60.01680471,627c6715c52fd12f31907bcf,,,,,,,,,,,,,,,,,,,,,,,a,0,"[""0.043"",""0.385"",""0.593"",""0.791""]","[1,1,0,1]",0,61,61,61,1,1,1,,,1,FALSE,0.6183,,,,,,,,,,,,,,,,,,,,,,,,,,,,,,,
,60fbb2dc4ccfafe85794049a,627c675dae0fb064bc6153d8,2022-05-12_04h01.17.925,classification_task,2021.2.3,Win32,60.01680471,627c6715c52fd12f31907bcf,,,,,,,,,,,,,,,,,,,,,,,l,1,"[""0.132"",""0.195"",""0.637"",""0.577""]","[1,1,1,0]",0,62,62,62,1,1,0,,,1,FALSE,0.5685,,,,,,,,,,,,,,,,,,,,,,,,,,,,,,,
,60fbb2dc4ccfafe85794049a,627c675dae0fb064bc6153d8,2022-05-12_04h01.17.925,classification_task,2021.2.3,Win32,60.01680471,627c6715c52fd12f31907bcf,,,,,,,,,,,,,,,,,,,,,,,a,1,"[""0.299"",""0.596"",""0.886"",""0.920""]","[1,0,1,1]",0,63,63,63,1,0,1,,,1,FALSE,0.58,,,,,,,,,,,,,,,,,,,,,,,,,,,,,,,
,60fbb2dc4ccfafe85794049a,627c675dae0fb064bc6153d8,2022-05-12_04h01.17.925,classification_task,2021.2.3,Win32,60.01680471,627c6715c52fd12f31907bcf,,,,,,,,,,,,,,,,,,,,,,,,,,,,,,,,,,,,,,,0, ,,0,2.657627866,176.5035,0,2,2,2,1,2,3,,,,,,,,,,,,,,,,,,
,60fbb2dc4ccfafe85794049a,627c675dae0fb064bc6153d8,2022-05-12_04h01.17.925,classification_task,2021.2.3,Win32,60.01680471,627c6715c52fd12f31907bcf,,,,,,,,,,,,,,,,,,,,,,,,,,,,,,,,,,,,,,,1,  ,,0,9.374724427,181.431,0,2,2,2,1,2,3,,,,,,,,,,,,,,,,,,
,60fbb2dc4ccfafe85794049a,627c675dae0fb064bc6153d8,2022-05-12_04h01.17.925,classification_task,2021.2.3,Win32,60.01680471,627c6715c52fd12f31907bcf,,,,,,,,,,,,,,,,,,,,,,,,,,,,,,,,,,,,,,,2,  ,,0,9.788084215,175.0933,0,2,2,2,1,2,3,,,,,,,,,,,,,,,,,,
,60fbb2dc4ccfafe85794049a,627c675dae0fb064bc6153d8,2022-05-12_04h01.17.925,classification_task,2021.2.3,Win32,60.01680471,627c6715c52fd12f31907bcf,,,,,,,,,,,,,,,,,,,,,,,,,,,,,,,,,,,,,,,,,,,,,0,2,2,2,1,,3,,,,,,,,,,,,,,,,,,
,60fbb2dc4ccfafe85794049a,627c675dae0fb064bc6153d8,2022-05-12_04h01.17.925,classification_task,2021.2.3,Win32,60.01680471,627c6715c52fd12f31907bcf,,,,,,,,,,,,,,,,,,,,,,,,,,,,,,,,,,,,,,,,,,,,,,,,,,,,,I believe the aid is a competent performer,,0.7,0,4,1322.0298,0,0,0,0,1,0,,,,,
,60fbb2dc4ccfafe85794049a,627c675dae0fb064bc6153d8,2022-05-12_04h01.17.925,classification_task,2021.2.3,Win32,60.01680471,627c6715c52fd12f31907bcf,,,,,,,,,,,,,,,,,,,,,,,,,,,,,,,,,,,,,,,,,,,,,,,,,,,,,I trust the aid,,0.7,0,4,1324.5613,0,0,0,0,1,0,,,,,
,60fbb2dc4ccfafe85794049a,627c675dae0fb064bc6153d8,2022-05-12_04h01.17.925,classification_task,2021.2.3,Win32,60.01680471,627c6715c52fd12f31907bcf,,,,,,,,,,,,,,,,,,,,,,,,,,,,,,,,,,,,,,,,,,,,,,,,,,,,,I have confidence in the advice given by the aid,,0.7,0,3,1328.8566,0,0,0,0,1,0,,,,,
,60fbb2dc4ccfafe85794049a,627c675dae0fb064bc6153d8,2022-05-12_04h01.17.925,classification_task,2021.2.3,Win32,60.01680471,627c6715c52fd12f31907bcf,,,,,,,,,,,,,,,,,,,,,,,,,,,,,,,,,,,,,,,,,,,,,,,,,,,,,I can depend on the aid,,0.7,0,3,1331.1861,0,0,0,0,1,0,,,,,
,60fbb2dc4ccfafe85794049a,627c675dae0fb064bc6153d8,2022-05-12_04h01.17.925,classification_task,2021.2.3,Win32,60.01680471,627c6715c52fd12f31907bcf,,,,,,,,,,,,,,,,,,,,,,,,,,,,,,,,,,,,,,,,,,,,,,,,,,,,,I can rely on the aid to behave in consistent ways,,0.7,0,2,1334.7089,0,0,0,0,1,0,,,,,
,60fbb2dc4ccfafe85794049a,627c675dae0fb064bc6153d8,2022-05-12_04h01.17.925,classification_task,2021.2.3,Win32,60.01680471,627c6715c52fd12f31907bcf,,,,,,,,,,,,,,,,,,,,,,,,,,,,,,,,,,,,,,,,,,,,,,,,,,,,,I can rely on the aid to do its best every time I take its advice,,0.7,0,4,1338.0077,0,0,0,0,1,0,,,,,
,60fbb2dc4ccfafe85794049a,627c675dae0fb064bc6153d8,2022-05-12_04h01.17.925,classification_task,2021.2.3,Win32,60.01680471,627c6715c52fd12f31907bcf,,,,,,,,,,,,,,,,,,,,,,,,,,,,,,,,,,,,,,,,,,,,,,,,,,,,,"On trials you completed with assistance from the aid, how frequently did you think the aid was correct?",,0.7,0,100,,0,0,0,0,1,0,,,,,
,60fbb2dc4ccfafe85794049a,627c675dae0fb064bc6153d8,2022-05-12_04h01.17.925,classification_task,2021.2.3,Win32,60.01680471,627c6715c52fd12f31907bcf,,,,,,,,,,,,,,,,,,,,,,,,,,,,,,,,,,,,,,,,,,,,,,,,,,,,,"On trials you completed without the aid, how frequently did you think you were correct?",,0.7,0,40,,0,0,0,0,1,0,,,,,
,60fbb2dc4ccfafe85794049a,627c675dae0fb064bc6153d8,2022-05-12_04h01.17.925,classification_task,2021.2.3,Win32,60.01680471,627c6715c52fd12f31907bcf,,,,,,,,,,,,,,,,,,,,,,,,,,,,,,,,,,,,,,,,,,,,,,,,,,,,,,,,,,,0,0,0,0,1,,,,,,
,60fbb2dc4ccfafe85794049a,627c675dae0fb064bc6153d8,2022-05-12_04h01.17.925,classification_task,2021.2.3,Win32,60.01680471,627c6715c52fd12f31907bcf,,,,,,,,,,,,,,,,,,,,,,,,,,,,,,,,,,,,,,,,,,,,,,,,,,,,,,,,,,,,,,,,,space,18.5262,1387.2293,,
,60fbb2dc4ccfafe85794049a,627c675dae0fb064bc6153d8,2022-05-12_04h01.17.925,classification_task,2021.2.3,Win32,60.01680471,627c6715c52fd12f31907bcf,,,,,,,,,,,,,,,,,,,,,,,,,,,,,,,,,,,,,,,,,,,,,,,,,,,,,,,,,,,,,,,,,,,,"Mozilla/5.0 (Windows NT 10.0; Win64; x64) AppleWebKit/537.36 (KHTML, like Gecko) Chrome/101.0.4951.54 Safari/537.36",
,60fbb2dc4ccfafe85794049a,627c675dae0fb064bc6153d8,2022-05-12_04h01.17.925,classification_task,2021.2.3,Win32,60.01680471,627c6715c52fd12f31907bcf,,,,,,,,,,,,,,,,,,,,,,,,,,,,,,,,,,,,,,,,,,,,,,,,,,,,,,,,,,,,,,,,,,,,,LOWLIGHT
