usingWebGL,participant,session,date,expName,psychopyVersion,OS,frameRate,PROLIFIC_PID,STUDY_ID,SESSION_ID,signatures_friend,signatures_foe,band_ranges_top,band_ranges_bottom,formitemText,formtype,formundefined,formitemWidth,formindex,formresponse,formrt,key_resp_2.keys,key_resp_2.rt,tute_resp.keys,tute_resp.rt,tutorial.thisRepN,tutorial.thisTrialN,tutorial.thisN,tutorial.thisIndex,tutorial.ran,key_resp_4.keys,key_resp_4.rt,key_resp.keys,key_resp.corr,lines_presented,is_signal_presented,trials.thisRepN,trials.thisTrialN,trials.thisN,trials.thisIndex,trials.ran,vessel,active_band,lines,is_signal,supported_pos,catch_trial,key_resp.rt,debrief_formindex,debrief_formitemText,debrief_formtype,debrief_formitemWidth,debrief_formresponse,debrief_formrt,phases.thisRepN,phases.thisTrialN,phases.thisN,phases.thisIndex,phases.ran,phases.order,phase,key_resp_3.keys,trustitemText,trusttype,trustitemWidth,trustindex,trustresponse,trustrt,support_status.thisRepN,support_status.thisTrialN,support_status.thisN,support_status.thisIndex,support_status.ran,support_status.order,key_resp_5.keys,key_resp_5.rt,globalClockTime,userAgent
TRUE,60fd9de7ba0e275915259979,001,2022-04-28_19h08.21.552,classification_task,2021.2.3,Win32,60.0024001,60fd9de7ba0e275915259979,626b377229c10585ec392f8a,626b3a69d09f6e209d8b33d0,,,,,,,,,,,,,,,,,,,,,,,,,,,,,,,,,,,,,,,,,,,,,,,,,,,,,,,,,,,,,,,,,,,,
,60fd9de7ba0e275915259979,001,2022-04-28_19h08.21.552,classification_task,2021.2.3,Win32,60.0024001,60fd9de7ba0e275915259979,626b377229c10585ec392f8a,626b3a69d09f6e209d8b33d0,"[[""0.285"",""0.456"",""0.923"",""0.959""],[""0.189"",""0.537"",""0.852"",""0.886""]]","[[""0.044"",""0.337"",""0.639"",""0.816""],[""0.152"",""0.227"",""0.490"",""0.695""]]","[1,10]","[100,1000]",Video game experience,,,0.7,0,,,,,,,,,,,,,,,,,,,,,,,,,,,,,,,,,,,,,,,,,,,,,,,,,,,,,,,,,,,
,60fd9de7ba0e275915259979,001,2022-04-28_19h08.21.552,classification_task,2021.2.3,Win32,60.0024001,60fd9de7ba0e275915259979,626b377229c10585ec392f8a,626b3a69d09f6e209d8b33d0,,,,,Approximately how many hours did you spend playing video games in the last week?,,,0.7,0,21,,,,,,,,,,,,,,,,,,,,,,,,,,,,,,,,,,,,,,,,,,,,,,,,,,,,,,,,,,
,60fd9de7ba0e275915259979,001,2022-04-28_19h08.21.552,classification_task,2021.2.3,Win32,60.0024001,60fd9de7ba0e275915259979,626b377229c10585ec392f8a,626b3a69d09f6e209d8b33d0,,,,,"Which game did you play the most this year? (Enter ""None"" if you didn't play any)",,,0.7,0,Genshin Impact,,,,,,,,,,,,,,,,,,,,,,,,,,,,,,,,,,,,,,,,,,,,,,,,,,,,,,,,,,
,60fd9de7ba0e275915259979,001,2022-04-28_19h08.21.552,classification_task,2021.2.3,Win32,60.0024001,60fd9de7ba0e275915259979,626b377229c10585ec392f8a,626b3a69d09f6e209d8b33d0,,,,,Visual perception,,,0.7,0,,,,,,,,,,,,,,,,,,,,,,,,,,,,,,,,,,,,,,,,,,,,,,,,,,,,,,,,,,,
,60fd9de7ba0e275915259979,001,2022-04-28_19h08.21.552,classification_task,2021.2.3,Win32,60.0024001,60fd9de7ba0e275915259979,626b377229c10585ec392f8a,626b3a69d09f6e209d8b33d0,,,,,Do you have any form of color blindness?,,,0.7,0,No,21.3017,,,,,,,,,,,,,,,,,,,,,,,,,,,,,,,,,,,,,,,,,,,,,,,,,,,,,,,,,
,60fd9de7ba0e275915259979,001,2022-04-28_19h08.21.552,classification_task,2021.2.3,Win32,60.0024001,60fd9de7ba0e275915259979,626b377229c10585ec392f8a,626b3a69d09f6e209d8b33d0,,,,,Do you use software to change the colour temperature of your screen (e.g. f.lux)?,,,0.7,0,No,23.2577,,,,,,,,,,,,,,,,,,,,,,,,,,,,,,,,,,,,,,,,,,,,,,,,,,,,,,,,,
,60fd9de7ba0e275915259979,001,2022-04-28_19h08.21.552,classification_task,2021.2.3,Win32,60.0024001,60fd9de7ba0e275915259979,626b377229c10585ec392f8a,626b3a69d09f6e209d8b33d0,,,,,,,,,,,,space,14.6474,space,5.7243,0,0,0,0,1,,,,,,,,,,,,,,,,,,,,,,,,,,,,,,,,,,,,,,,,,,,,,,,,
,60fd9de7ba0e275915259979,001,2022-04-28_19h08.21.552,classification_task,2021.2.3,Win32,60.0024001,60fd9de7ba0e275915259979,626b377229c10585ec392f8a,626b3a69d09f6e209d8b33d0,,,,,,,,,,,,,,space,4.8458,1,0,1,0,1,,,,,,,,,,,,,,,,,,,,,,,,,,,,,,,,,,,,,,,,,,,,,,,,
,60fd9de7ba0e275915259979,001,2022-04-28_19h08.21.552,classification_task,2021.2.3,Win32,60.0024001,60fd9de7ba0e275915259979,626b377229c10585ec392f8a,626b3a69d09f6e209d8b33d0,,,,,,,,,,,,,,space,45.3632,2,0,2,0,1,,,,,,,,,,,,,,,,,,,,,,,,,,,,,,,,,,,,,,,,,,,,,,,,
,60fd9de7ba0e275915259979,001,2022-04-28_19h08.21.552,classification_task,2021.2.3,Win32,60.0024001,60fd9de7ba0e275915259979,626b377229c10585ec392f8a,626b3a69d09f6e209d8b33d0,,,,,,,,,,,,,,space,3.4681,3,0,3,0,1,,,,,,,,,,,,,,,,,,,,,,,,,,,,,,,,,,,,,,,,,,,,,,,,
,60fd9de7ba0e275915259979,001,2022-04-28_19h08.21.552,classification_task,2021.2.3,Win32,60.0024001,60fd9de7ba0e275915259979,626b377229c10585ec392f8a,626b3a69d09f6e209d8b33d0,,,,,,,,,,,,,,space,6.8699,4,0,4,0,1,,,,,,,,,,,,,,,,,,,,,,,,,,,,,,,,,,,,,,,,,,,,,,,,
,60fd9de7ba0e275915259979,001,2022-04-28_19h08.21.552,classification_task,2021.2.3,Win32,60.0024001,60fd9de7ba0e275915259979,626b377229c10585ec392f8a,626b3a69d09f6e209d8b33d0,,,,,,,,,,,,,,,,,,,,,space,15.499,,0,"[""0.285"",""0.592"",""0.923"",""0.959""]","[1,0,1,1]",0,0,0,0,1,0,0,,,1,FALSE,,,,,,,,,,,,,,,,,,,,,,,,,,,,,,,
,60fd9de7ba0e275915259979,001,2022-04-28_19h08.21.552,classification_task,2021.2.3,Win32,60.0024001,60fd9de7ba0e275915259979,626b377229c10585ec392f8a,626b3a69d09f6e209d8b33d0,,,,,,,,,,,,,,,,,,,,,,,,0,"[""0.189"",""0.585"",""0.852"",""0.886""]","[1,0,1,1]",0,1,1,1,1,0,1,,,1,FALSE,,,,,,,,,,,,,,,,,,,,,,,,,,,,,,,
,60fd9de7ba0e275915259979,001,2022-04-28_19h08.21.552,classification_task,2021.2.3,Win32,60.0024001,60fd9de7ba0e275915259979,626b377229c10585ec392f8a,626b3a69d09f6e209d8b33d0,,,,,,,,,,,,,,,,,,,,,,,a,1,"[""0.189"",""0.537"",""0.589"",""0.886""]","[1,1,0,1]",0,2,2,2,1,0,1,,,1,FALSE,5.3073,,,,,,,,,,,,,,,,,,,,,,,,,,,,,,
,60fd9de7ba0e275915259979,001,2022-04-28_19h08.21.552,classification_task,2021.2.3,Win32,60.0024001,60fd9de7ba0e275915259979,626b377229c10585ec392f8a,626b3a69d09f6e209d8b33d0,,,,,,,,,,,,,,,,,,,,,,,l,1,"[""0.044"",""0.414"",""0.639"",""0.816""]","[1,0,1,1]",0,3,3,3,1,1,0,,,1,FALSE,4.0136,,,,,,,,,,,,,,,,,,,,,,,,,,,,,,
,60fd9de7ba0e275915259979,001,2022-04-28_19h08.21.552,classification_task,2021.2.3,Win32,60.0024001,60fd9de7ba0e275915259979,626b377229c10585ec392f8a,626b3a69d09f6e209d8b33d0,,,,,,,,,,,,,,,,,,,,,,,l,1,"[""0.152"",""0.227"",""0.571"",""0.695""]","[1,1,0,1]",0,4,4,4,1,1,1,,,1,FALSE,4.0776,,,,,,,,,,,,,,,,,,,,,,,,,,,,,,
,60fd9de7ba0e275915259979,001,2022-04-28_19h08.21.552,classification_task,2021.2.3,Win32,60.0024001,60fd9de7ba0e275915259979,626b377229c10585ec392f8a,626b3a69d09f6e209d8b33d0,,,,,,,,,,,,,,,,,,,,,,,a,1,"[""0.189"",""0.537"",""0.852"",""0.585""]","[1,1,1,0]",0,5,5,5,1,0,1,,,1,FALSE,4.2182,,,,,,,,,,,,,,,,,,,,,,,,,,,,,,
,60fd9de7ba0e275915259979,001,2022-04-28_19h08.21.552,classification_task,2021.2.3,Win32,60.0024001,60fd9de7ba0e275915259979,626b377229c10585ec392f8a,626b3a69d09f6e209d8b33d0,,,,,,,,,,,,,,,,,,,,,,,l,1,"[""0.044"",""0.337"",""0.639"",""0.571""]","[1,1,1,0]",0,6,6,6,1,1,0,,,1,FALSE,5.9601,,,,,,,,,,,,,,,,,,,,,,,,,,,,,,
,60fd9de7ba0e275915259979,001,2022-04-28_19h08.21.552,classification_task,2021.2.3,Win32,60.0024001,60fd9de7ba0e275915259979,626b377229c10585ec392f8a,626b3a69d09f6e209d8b33d0,,,,,,,,,,,,,,,,,,,,,,,a,1,"[""0.285"",""0.456"",""0.582"",""0.959""]","[1,1,0,1]",0,7,7,7,1,0,0,,,1,FALSE,5.437,,,,,,,,,,,,,,,,,,,,,,,,,,,,,,
,60fd9de7ba0e275915259979,001,2022-04-28_19h08.21.552,classification_task,2021.2.3,Win32,60.0024001,60fd9de7ba0e275915259979,626b377229c10585ec392f8a,626b3a69d09f6e209d8b33d0,,,,,,,,,,,,,,,,,,,,,,,l,1,"[""0.152"",""0.227"",""0.490"",""0.592""]","[1,1,1,0]",0,8,8,8,1,1,1,,,1,FALSE,4.5085,,,,,,,,,,,,,,,,,,,,,,,,,,,,,,
,60fd9de7ba0e275915259979,001,2022-04-28_19h08.21.552,classification_task,2021.2.3,Win32,60.0024001,60fd9de7ba0e275915259979,626b377229c10585ec392f8a,626b3a69d09f6e209d8b33d0,,,,,,,,,,,,,,,,,,,,,,,,0,"[""0.084"",""0.537"",""0.852"",""0.886""]","[0,1,1,1]",0,9,9,9,1,0,1,,,1,FALSE,,,,,,,,,,,,,,,,,,,,,,,,,,,,,,,
,60fd9de7ba0e275915259979,001,2022-04-28_19h08.21.552,classification_task,2021.2.3,Win32,60.0024001,60fd9de7ba0e275915259979,626b377229c10585ec392f8a,626b3a69d09f6e209d8b33d0,,,,,,,,,,,,,,,,,,,,,,,,0,"[""0.044"",""0.337"",""0.084"",""0.816""]","[1,1,0,1]",0,10,10,10,1,1,0,,,1,FALSE,,,,,,,,,,,,,,,,,,,,,,,,,,,,,,,
,60fd9de7ba0e275915259979,001,2022-04-28_19h08.21.552,classification_task,2021.2.3,Win32,60.0024001,60fd9de7ba0e275915259979,626b377229c10585ec392f8a,626b3a69d09f6e209d8b33d0,,,,,,,,,,,,,,,,,,,,,,,a,0,"[""0.571"",""0.227"",""0.490"",""0.695""]","[0,1,1,1]",0,11,11,11,1,1,1,,,1,FALSE,5.4686,,,,,,,,,,,,,,,,,,,,,,,,,,,,,,
,60fd9de7ba0e275915259979,001,2022-04-28_19h08.21.552,classification_task,2021.2.3,Win32,60.0024001,60fd9de7ba0e275915259979,626b377229c10585ec392f8a,626b3a69d09f6e209d8b33d0,,,,,,,,,,,,,,,,,,,,,,,l,1,"[""0.756"",""0.337"",""0.639"",""0.816""]","[0,1,1,1]",0,12,12,12,1,1,0,,,1,FALSE,4.0543,,,,,,,,,,,,,,,,,,,,,,,,,,,,,,
,60fd9de7ba0e275915259979,001,2022-04-28_19h08.21.552,classification_task,2021.2.3,Win32,60.0024001,60fd9de7ba0e275915259979,626b377229c10585ec392f8a,626b3a69d09f6e209d8b33d0,,,,,,,,,,,,,,,,,,,,,,,a,1,"[""0.285"",""0.456"",""0.923"",""0.414""]","[1,1,1,0]",0,13,13,13,1,0,0,,,1,FALSE,5.5572,,,,,,,,,,,,,,,,,,,,,,,,,,,,,,
,60fd9de7ba0e275915259979,001,2022-04-28_19h08.21.552,classification_task,2021.2.3,Win32,60.0024001,60fd9de7ba0e275915259979,626b377229c10585ec392f8a,626b3a69d09f6e209d8b33d0,,,,,,,,,,,,,,,,,,,,,,,l,1,"[""0.152"",""0.084"",""0.490"",""0.695""]","[1,0,1,1]",0,14,14,14,1,1,1,,,1,FALSE,4.021,,,,,,,,,,,,,,,,,,,,,,,,,,,,,,
,60fd9de7ba0e275915259979,001,2022-04-28_19h08.21.552,classification_task,2021.2.3,Win32,60.0024001,60fd9de7ba0e275915259979,626b377229c10585ec392f8a,626b3a69d09f6e209d8b33d0,,,,,,,,,,,,,,,,,,,,,,,a,1,"[""0.767"",""0.456"",""0.923"",""0.959""]","[0,1,1,1]",0,15,15,15,1,0,0,,,1,FALSE,3.6905,,,,,,,,,,,,,,,,,,,,,,,,,,,,,,
,60fd9de7ba0e275915259979,001,2022-04-28_19h08.21.552,classification_task,2021.2.3,Win32,60.0024001,60fd9de7ba0e275915259979,626b377229c10585ec392f8a,626b3a69d09f6e209d8b33d0,,,,,,,,,,,,,,,,,,,,,,,l,1,"[""0.605"",""0.337"",""0.639"",""0.816""]","[0,1,1,1]",0,16,16,16,1,1,0,,,1,FALSE,4.078,,,,,,,,,,,,,,,,,,,,,,,,,,,,,,
,60fd9de7ba0e275915259979,001,2022-04-28_19h08.21.552,classification_task,2021.2.3,Win32,60.0024001,60fd9de7ba0e275915259979,626b377229c10585ec392f8a,626b3a69d09f6e209d8b33d0,,,,,,,,,,,,,,,,,,,,,,,l,1,"[""0.044"",""0.408"",""0.639"",""0.816""]","[1,0,1,1]",0,17,17,17,1,1,0,,,1,FALSE,5.3781,,,,,,,,,,,,,,,,,,,,,,,,,,,,,,
,60fd9de7ba0e275915259979,001,2022-04-28_19h08.21.552,classification_task,2021.2.3,Win32,60.0024001,60fd9de7ba0e275915259979,626b377229c10585ec392f8a,626b3a69d09f6e209d8b33d0,,,,,,,,,,,,,,,,,,,,,,,a,1,"[""0.116"",""0.456"",""0.923"",""0.959""]","[0,1,1,1]",0,18,18,18,1,0,0,,,1,FALSE,5.9892,,,,,,,,,,,,,,,,,,,,,,,,,,,,,,
,60fd9de7ba0e275915259979,001,2022-04-28_19h08.21.552,classification_task,2021.2.3,Win32,60.0024001,60fd9de7ba0e275915259979,626b377229c10585ec392f8a,626b3a69d09f6e209d8b33d0,,,,,,,,,,,,,,,,,,,,,,,a,1,"[""0.285"",""0.456"",""0.923"",""0.585""]","[1,1,1,0]",0,19,19,19,1,0,0,,,1,FALSE,3.8798,,,,,,,,,,,,,,,,,,,,,,,,,,,,,,
,60fd9de7ba0e275915259979,001,2022-04-28_19h08.21.552,classification_task,2021.2.3,Win32,60.0024001,60fd9de7ba0e275915259979,626b377229c10585ec392f8a,626b3a69d09f6e209d8b33d0,,,,,,,,,,,,,,,,,,,,,,,l,1,"[""0.044"",""0.337"",""0.571"",""0.816""]","[1,1,0,1]",0,20,20,20,1,1,0,,,1,FALSE,3.0022,,,,,,,,,,,,,,,,,,,,,,,,,,,,,,
,60fd9de7ba0e275915259979,001,2022-04-28_19h08.21.552,classification_task,2021.2.3,Win32,60.0024001,60fd9de7ba0e275915259979,626b377229c10585ec392f8a,626b3a69d09f6e209d8b33d0,,,,,,,,,,,,,,,,,,,,,,,l,1,"[""0.044"",""0.337"",""0.639"",""0.086""]","[1,1,1,0]",0,21,21,21,1,1,0,,,1,FALSE,3.4672,,,,,,,,,,,,,,,,,,,,,,,,,,,,,,
,60fd9de7ba0e275915259979,001,2022-04-28_19h08.21.552,classification_task,2021.2.3,Win32,60.0024001,60fd9de7ba0e275915259979,626b377229c10585ec392f8a,626b3a69d09f6e209d8b33d0,,,,,,,,,,,,,,,,,,,,,,,l,1,"[""0.152"",""0.396"",""0.490"",""0.695""]","[1,0,1,1]",0,22,22,22,1,1,1,,,1,FALSE,4.9592,,,,,,,,,,,,,,,,,,,,,,,,,,,,,,
,60fd9de7ba0e275915259979,001,2022-04-28_19h08.21.552,classification_task,2021.2.3,Win32,60.0024001,60fd9de7ba0e275915259979,626b377229c10585ec392f8a,626b3a69d09f6e209d8b33d0,,,,,,,,,,,,,,,,,,,,,,,a,1,"[""0.285"",""0.415"",""0.923"",""0.959""]","[1,0,1,1]",0,23,23,23,1,0,0,,,1,FALSE,7.1975,,,,,,,,,,,,,,,,,,,,,,,,,,,,,,
,60fd9de7ba0e275915259979,001,2022-04-28_19h08.21.552,classification_task,2021.2.3,Win32,60.0024001,60fd9de7ba0e275915259979,626b377229c10585ec392f8a,626b3a69d09f6e209d8b33d0,,,,,,,,,,,,,,,,,,,,,,,a,1,"[""0.285"",""0.456"",""0.589"",""0.959""]","[1,1,0,1]",0,24,24,24,1,0,0,,,1,FALSE,6.5066,,,,,,,,,,,,,,,,,,,,,,,,,,,,,,
,60fd9de7ba0e275915259979,001,2022-04-28_19h08.21.552,classification_task,2021.2.3,Win32,60.0024001,60fd9de7ba0e275915259979,626b377229c10585ec392f8a,626b3a69d09f6e209d8b33d0,,,,,,,,,,,,,,,,,,,,,,,l,1,"[""0.152"",""0.227"",""0.490"",""0.415""]","[1,1,1,0]",0,25,25,25,1,1,1,,,1,FALSE,3.8489,,,,,,,,,,,,,,,,,,,,,,,,,,,,,,
,60fd9de7ba0e275915259979,001,2022-04-28_19h08.21.552,classification_task,2021.2.3,Win32,60.0024001,60fd9de7ba0e275915259979,626b377229c10585ec392f8a,626b3a69d09f6e209d8b33d0,,,,,,,,,,,,,,,,,,,,,,,a,1,"[""0.189"",""0.537"",""0.084"",""0.886""]","[1,1,0,1]",0,26,26,26,1,0,1,,,1,FALSE,4.5224,,,,,,,,,,,,,,,,,,,,,,,,,,,,,,
,60fd9de7ba0e275915259979,001,2022-04-28_19h08.21.552,classification_task,2021.2.3,Win32,60.0024001,60fd9de7ba0e275915259979,626b377229c10585ec392f8a,626b3a69d09f6e209d8b33d0,,,,,,,,,,,,,,,,,,,,,,,l,1,"[""0.084"",""0.227"",""0.490"",""0.695""]","[0,1,1,1]",0,27,27,27,1,1,1,,,1,FALSE,4.5731,,,,,,,,,,,,,,,,,,,,,,,,,,,,,,
,60fd9de7ba0e275915259979,001,2022-04-28_19h08.21.552,classification_task,2021.2.3,Win32,60.0024001,60fd9de7ba0e275915259979,626b377229c10585ec392f8a,626b3a69d09f6e209d8b33d0,,,,,,,,,,,,,,,,,,,,,,,a,1,"[""0.756"",""0.537"",""0.852"",""0.886""]","[0,1,1,1]",0,28,28,28,1,0,1,,,1,FALSE,6.3645,,,,,,,,,,,,,,,,,,,,,,,,,,,,,,
,60fd9de7ba0e275915259979,001,2022-04-28_19h08.21.552,classification_task,2021.2.3,Win32,60.0024001,60fd9de7ba0e275915259979,626b377229c10585ec392f8a,626b3a69d09f6e209d8b33d0,,,,,,,,,,,,,,,,,,,,,,,a,1,"[""0.189"",""0.116"",""0.852"",""0.886""]","[1,0,1,1]",0,29,29,29,1,0,1,,,1,FALSE,6.4248,,,,,,,,,,,,,,,,,,,,,,,,,,,,,,
,60fd9de7ba0e275915259979,001,2022-04-28_19h08.21.552,classification_task,2021.2.3,Win32,60.0024001,60fd9de7ba0e275915259979,626b377229c10585ec392f8a,626b3a69d09f6e209d8b33d0,,,,,,,,,,,,,,,,,,,,,,,a,1,"[""0.189"",""0.537"",""0.852"",""0.116""]","[1,1,1,0]",0,30,30,30,1,0,1,,,1,FALSE,5.0203,,,,,,,,,,,,,,,,,,,,,,,,,,,,,,
,60fd9de7ba0e275915259979,001,2022-04-28_19h08.21.552,classification_task,2021.2.3,Win32,60.0024001,60fd9de7ba0e275915259979,626b377229c10585ec392f8a,626b3a69d09f6e209d8b33d0,,,,,,,,,,,,,,,,,,,,,,,l,1,"[""0.152"",""0.227"",""0.086"",""0.695""]","[1,1,0,1]",0,31,31,31,1,1,1,,,1,FALSE,3.3594,,,,,,,,,,,,,,,,,,,,,,,,,,,,,,
,60fd9de7ba0e275915259979,001,2022-04-28_19h08.21.552,classification_task,2021.2.3,Win32,60.0024001,60fd9de7ba0e275915259979,626b377229c10585ec392f8a,626b3a69d09f6e209d8b33d0,,,,,,,,,,,,,,,,,,,,,,,a,0,"[""0.044"",""0.605"",""0.639"",""0.816""]","[1,0,1,1]",0,32,32,32,1,1,0,,,1,FALSE,3.6343,,,,,,,,,,,,,,,,,,,,,,,,,,,,,,
,60fd9de7ba0e275915259979,001,2022-04-28_19h08.21.552,classification_task,2021.2.3,Win32,60.0024001,60fd9de7ba0e275915259979,626b377229c10585ec392f8a,626b3a69d09f6e209d8b33d0,,,,,,,,,,,,,,,,,,,,,,,a,1,"[""0.285"",""0.605"",""0.923"",""0.959""]","[1,0,1,1]",0,33,33,33,1,0,0,,,1,FALSE,3.841,,,,,,,,,,,,,,,,,,,,,,,,,,,,,,
,60fd9de7ba0e275915259979,001,2022-04-28_19h08.21.552,classification_task,2021.2.3,Win32,60.0024001,60fd9de7ba0e275915259979,626b377229c10585ec392f8a,626b3a69d09f6e209d8b33d0,,,,,,,,,,,,,,,,,,,,,,,a,0,"[""0.152"",""0.227"",""0.571"",""0.695""]","[1,1,0,1]",0,34,34,34,1,1,1,,,1,FALSE,2.5467,,,,,,,,,,,,,,,,,,,,,,,,,,,,,,
,60fd9de7ba0e275915259979,001,2022-04-28_19h08.21.552,classification_task,2021.2.3,Win32,60.0024001,60fd9de7ba0e275915259979,626b377229c10585ec392f8a,626b3a69d09f6e209d8b33d0,,,,,,,,,,,,,,,,,,,,,,,l,1,"[""0.152"",""0.227"",""0.490"",""0.084""]","[1,1,1,0]",0,35,35,35,1,1,1,,,1,FALSE,2.6725,,,,,,,,,,,,,,,,,,,,,,,,,,,,,,
,60fd9de7ba0e275915259979,001,2022-04-28_19h08.21.552,classification_task,2021.2.3,Win32,60.0024001,60fd9de7ba0e275915259979,626b377229c10585ec392f8a,626b3a69d09f6e209d8b33d0,,,,,,,,,,,,,,,,,,,,,,,a,0,"[""0.044"",""0.337"",""0.639"",""0.414""]","[1,1,1,0]",0,36,36,36,1,1,0,,,1,FALSE,1.0919,,,,,,,,,,,,,,,,,,,,,,,,,,,,,,
,60fd9de7ba0e275915259979,001,2022-04-28_19h08.21.552,classification_task,2021.2.3,Win32,60.0024001,60fd9de7ba0e275915259979,626b377229c10585ec392f8a,626b3a69d09f6e209d8b33d0,,,,,,,,,,,,,,,,,,,,,,,a,0,"[""0.592"",""0.227"",""0.490"",""0.695""]","[0,1,1,1]",0,37,37,37,1,1,1,,,1,FALSE,1.7287,,,,,,,,,,,,,,,,,,,,,,,,,,,,,,
,60fd9de7ba0e275915259979,001,2022-04-28_19h08.21.552,classification_task,2021.2.3,Win32,60.0024001,60fd9de7ba0e275915259979,626b377229c10585ec392f8a,626b3a69d09f6e209d8b33d0,,,,,,,,,,,,,,,,,,,,,,,l,0,"[""0.189"",""0.759"",""0.852"",""0.886""]","[1,0,1,1]",0,38,38,38,1,0,1,,,1,FALSE,2.0314,,,,,,,,,,,,,,,,,,,,,,,,,,,,,,
,60fd9de7ba0e275915259979,001,2022-04-28_19h08.21.552,classification_task,2021.2.3,Win32,60.0024001,60fd9de7ba0e275915259979,626b377229c10585ec392f8a,626b3a69d09f6e209d8b33d0,,,,,,,,,,,,,,,,,,,,,,,a,1,"[""0.189"",""0.537"",""0.582"",""0.886""]","[1,1,0,1]",0,39,39,39,1,0,1,,,1,FALSE,2.0034,,,,,,,,,,,,,,,,,,,,,,,,,,,,,,
,60fd9de7ba0e275915259979,001,2022-04-28_19h08.21.552,classification_task,2021.2.3,Win32,60.0024001,60fd9de7ba0e275915259979,626b377229c10585ec392f8a,626b3a69d09f6e209d8b33d0,,,,,,,,,,,,,,,,,,,,,,,a,1,"[""0.189"",""0.537"",""0.852"",""0.756""]","[1,1,1,0]",0,40,40,40,1,0,1,,,1,FALSE,2.4263,,,,,,,,,,,,,,,,,,,,,,,,,,,,,,
,60fd9de7ba0e275915259979,001,2022-04-28_19h08.21.552,classification_task,2021.2.3,Win32,60.0024001,60fd9de7ba0e275915259979,626b377229c10585ec392f8a,626b3a69d09f6e209d8b33d0,,,,,,,,,,,,,,,,,,,,,,,a,0,"[""0.605"",""0.337"",""0.639"",""0.816""]","[0,1,1,1]",0,41,41,41,1,1,0,,,1,FALSE,1.6613,,,,,,,,,,,,,,,,,,,,,,,,,,,,,,
,60fd9de7ba0e275915259979,001,2022-04-28_19h08.21.552,classification_task,2021.2.3,Win32,60.0024001,60fd9de7ba0e275915259979,626b377229c10585ec392f8a,626b3a69d09f6e209d8b33d0,,,,,,,,,,,,,,,,,,,,,,,a,0,"[""0.044"",""0.337"",""0.415"",""0.816""]","[1,1,0,1]",0,42,42,42,1,1,0,,,1,FALSE,2.1723,,,,,,,,,,,,,,,,,,,,,,,,,,,,,,
,60fd9de7ba0e275915259979,001,2022-04-28_19h08.21.552,classification_task,2021.2.3,Win32,60.0024001,60fd9de7ba0e275915259979,626b377229c10585ec392f8a,626b3a69d09f6e209d8b33d0,,,,,,,,,,,,,,,,,,,,,,,a,1,"[""0.285"",""0.456"",""0.923"",""0.605""]","[1,1,1,0]",0,43,43,43,1,0,0,,,1,FALSE,1.5551,,,,,,,,,,,,,,,,,,,,,,,,,,,,,,
,60fd9de7ba0e275915259979,001,2022-04-28_19h08.21.552,classification_task,2021.2.3,Win32,60.0024001,60fd9de7ba0e275915259979,626b377229c10585ec392f8a,626b3a69d09f6e209d8b33d0,,,,,,,,,,,,,,,,,,,,,,,a,1,"[""0.414"",""0.456"",""0.923"",""0.959""]","[0,1,1,1]",0,44,44,44,1,0,0,,,1,FALSE,0.9993,,,,,,,,,,,,,,,,,,,,,,,,,,,,,,
,60fd9de7ba0e275915259979,001,2022-04-28_19h08.21.552,classification_task,2021.2.3,Win32,60.0024001,60fd9de7ba0e275915259979,626b377229c10585ec392f8a,626b3a69d09f6e209d8b33d0,,,,,,,,,,,,,,,,,,,,,,,a,1,"[""0.285"",""0.456"",""0.589"",""0.959""]","[1,1,0,1]",0,45,45,45,1,0,0,,,1,FALSE,1.4788,,,,,,,,,,,,,,,,,,,,,,,,,,,,,,
,60fd9de7ba0e275915259979,001,2022-04-28_19h08.21.552,classification_task,2021.2.3,Win32,60.0024001,60fd9de7ba0e275915259979,626b377229c10585ec392f8a,626b3a69d09f6e209d8b33d0,,,,,,,,,,,,,,,,,,,,,,,l,1,"[""0.152"",""0.084"",""0.490"",""0.695""]","[1,0,1,1]",0,46,46,46,1,1,1,,,1,FALSE,1.4245,,,,,,,,,,,,,,,,,,,,,,,,,,,,,,
,60fd9de7ba0e275915259979,001,2022-04-28_19h08.21.552,classification_task,2021.2.3,Win32,60.0024001,60fd9de7ba0e275915259979,626b377229c10585ec392f8a,626b3a69d09f6e209d8b33d0,,,,,,,,,,,,,,,,,,,,,,,l,0,"[""0.756"",""0.537"",""0.852"",""0.886""]","[0,1,1,1]",0,47,47,47,1,0,1,,,1,FALSE,1.6461,,,,,,,,,,,,,,,,,,,,,,,,,,,,,,
,60fd9de7ba0e275915259979,001,2022-04-28_19h08.21.552,classification_task,2021.2.3,Win32,60.0024001,60fd9de7ba0e275915259979,626b377229c10585ec392f8a,626b3a69d09f6e209d8b33d0,,,,,,,,,,,,,,,,,,,,,,,a,1,"[""0.189"",""0.408"",""0.852"",""0.886""]","[1,0,1,1]",0,48,48,48,1,0,1,,,1,FALSE,1.0113,,,,,,,,,,,,,,,,,,,,,,,,,,,,,,
,60fd9de7ba0e275915259979,001,2022-04-28_19h08.21.552,classification_task,2021.2.3,Win32,60.0024001,60fd9de7ba0e275915259979,626b377229c10585ec392f8a,626b3a69d09f6e209d8b33d0,,,,,,,,,,,,,,,,,,,,,,,a,1,"[""0.285"",""0.456"",""0.756"",""0.959""]","[1,1,0,1]",0,49,49,49,1,0,0,,,1,FALSE,1.5512,,,,,,,,,,,,,,,,,,,,,,,,,,,,,,
,60fd9de7ba0e275915259979,001,2022-04-28_19h08.21.552,classification_task,2021.2.3,Win32,60.0024001,60fd9de7ba0e275915259979,626b377229c10585ec392f8a,626b3a69d09f6e209d8b33d0,,,,,,,,,,,,,,,,,,,,,,,a,0,"[""0.408"",""0.227"",""0.490"",""0.695""]","[0,1,1,1]",0,50,50,50,1,1,1,,,1,FALSE,1.2697,,,,,,,,,,,,,,,,,,,,,,,,,,,,,,
,60fd9de7ba0e275915259979,001,2022-04-28_19h08.21.552,classification_task,2021.2.3,Win32,60.0024001,60fd9de7ba0e275915259979,626b377229c10585ec392f8a,626b3a69d09f6e209d8b33d0,,,,,,,,,,,,,,,,,,,,,,,l,1,"[""0.044"",""0.337"",""0.116"",""0.816""]","[1,1,0,1]",0,51,51,51,1,1,0,,,1,FALSE,2.0885,,,,,,,,,,,,,,,,,,,,,,,,,,,,,,
,60fd9de7ba0e275915259979,001,2022-04-28_19h08.21.552,classification_task,2021.2.3,Win32,60.0024001,60fd9de7ba0e275915259979,626b377229c10585ec392f8a,626b3a69d09f6e209d8b33d0,,,,,,,,,,,,,,,,,,,,,,,l,1,"[""0.152"",""0.759"",""0.490"",""0.695""]","[1,0,1,1]",0,52,52,52,1,1,1,,,1,FALSE,1.8156,,,,,,,,,,,,,,,,,,,,,,,,,,,,,,
,60fd9de7ba0e275915259979,001,2022-04-28_19h08.21.552,classification_task,2021.2.3,Win32,60.0024001,60fd9de7ba0e275915259979,626b377229c10585ec392f8a,626b3a69d09f6e209d8b33d0,,,,,,,,,,,,,,,,,,,,,,,a,1,"[""0.759"",""0.537"",""0.852"",""0.886""]","[0,1,1,1]",0,53,53,53,1,0,1,,,1,FALSE,2.0543,,,,,,,,,,,,,,,,,,,,,,,,,,,,,,
,60fd9de7ba0e275915259979,001,2022-04-28_19h08.21.552,classification_task,2021.2.3,Win32,60.0024001,60fd9de7ba0e275915259979,626b377229c10585ec392f8a,626b3a69d09f6e209d8b33d0,,,,,,,,,,,,,,,,,,,,,,,a,1,"[""0.189"",""0.537"",""0.582"",""0.886""]","[1,1,0,1]",0,54,54,54,1,0,1,,,1,FALSE,1.5669,,,,,,,,,,,,,,,,,,,,,,,,,,,,,,
,60fd9de7ba0e275915259979,001,2022-04-28_19h08.21.552,classification_task,2021.2.3,Win32,60.0024001,60fd9de7ba0e275915259979,626b377229c10585ec392f8a,626b3a69d09f6e209d8b33d0,,,,,,,,,,,,,,,,,,,,,,,a,0,"[""0.152"",""0.227"",""0.490"",""0.759""]","[1,1,1,0]",0,55,55,55,1,1,1,,,1,FALSE,1.0861,,,,,,,,,,,,,,,,,,,,,,,,,,,,,,
,60fd9de7ba0e275915259979,001,2022-04-28_19h08.21.552,classification_task,2021.2.3,Win32,60.0024001,60fd9de7ba0e275915259979,626b377229c10585ec392f8a,626b3a69d09f6e209d8b33d0,,,,,,,,,,,,,,,,,,,,,,,a,1,"[""0.285"",""0.585"",""0.923"",""0.959""]","[1,0,1,1]",0,56,56,56,1,0,0,,,1,FALSE,1.0685,,,,,,,,,,,,,,,,,,,,,,,,,,,,,,
,60fd9de7ba0e275915259979,001,2022-04-28_19h08.21.552,classification_task,2021.2.3,Win32,60.0024001,60fd9de7ba0e275915259979,626b377229c10585ec392f8a,626b3a69d09f6e209d8b33d0,,,,,,,,,,,,,,,,,,,,,,,l,1,"[""0.084"",""0.337"",""0.639"",""0.816""]","[0,1,1,1]",0,57,57,57,1,1,0,,,1,FALSE,0.9294,,,,,,,,,,,,,,,,,,,,,,,,,,,,,,
,60fd9de7ba0e275915259979,001,2022-04-28_19h08.21.552,classification_task,2021.2.3,Win32,60.0024001,60fd9de7ba0e275915259979,626b377229c10585ec392f8a,626b3a69d09f6e209d8b33d0,,,,,,,,,,,,,,,,,,,,,,,a,1,"[""0.189"",""0.537"",""0.852"",""0.605""]","[1,1,1,0]",0,58,58,58,1,0,1,,,1,FALSE,0.8501,,,,,,,,,,,,,,,,,,,,,,,,,,,,,,
,60fd9de7ba0e275915259979,001,2022-04-28_19h08.21.552,classification_task,2021.2.3,Win32,60.0024001,60fd9de7ba0e275915259979,626b377229c10585ec392f8a,626b3a69d09f6e209d8b33d0,,,,,,,,,,,,,,,,,,,,,,,a,1,"[""0.585"",""0.456"",""0.923"",""0.959""]","[0,1,1,1]",0,59,59,59,1,0,0,,,1,FALSE,1.5517,,,,,,,,,,,,,,,,,,,,,,,,,,,,,,
,60fd9de7ba0e275915259979,001,2022-04-28_19h08.21.552,classification_task,2021.2.3,Win32,60.0024001,60fd9de7ba0e275915259979,626b377229c10585ec392f8a,626b3a69d09f6e209d8b33d0,,,,,,,,,,,,,,,,,,,,,,,a,0,"[""0.152"",""0.227"",""0.585"",""0.695""]","[1,1,0,1]",0,60,60,60,1,1,1,,,1,FALSE,1.2197,,,,,,,,,,,,,,,,,,,,,,,,,,,,,,
,60fd9de7ba0e275915259979,001,2022-04-28_19h08.21.552,classification_task,2021.2.3,Win32,60.0024001,60fd9de7ba0e275915259979,626b377229c10585ec392f8a,626b3a69d09f6e209d8b33d0,,,,,,,,,,,,,,,,,,,,,,,l,1,"[""0.044"",""0.337"",""0.639"",""0.414""]","[1,1,1,0]",0,61,61,61,1,1,0,,,1,FALSE,1.0376,,,,,,,,,,,,,,,,,,,,,,,,,,,,,,
,60fd9de7ba0e275915259979,001,2022-04-28_19h08.21.552,classification_task,2021.2.3,Win32,60.0024001,60fd9de7ba0e275915259979,626b377229c10585ec392f8a,626b3a69d09f6e209d8b33d0,,,,,,,,,,,,,,,,,,,,,,,a,1,"[""0.285"",""0.456"",""0.923"",""0.756""]","[1,1,1,0]",0,62,62,62,1,0,0,,,1,FALSE,0.8758,,,,,,,,,,,,,,,,,,,,,,,,,,,,,,
,60fd9de7ba0e275915259979,001,2022-04-28_19h08.21.552,classification_task,2021.2.3,Win32,60.0024001,60fd9de7ba0e275915259979,626b377229c10585ec392f8a,626b3a69d09f6e209d8b33d0,,,,,,,,,,,,,,,,,,,,,,,l,1,"[""0.044"",""0.585"",""0.639"",""0.816""]","[1,0,1,1]",0,63,63,63,1,1,0,,,1,FALSE,1.2355,,,,,,,,,,,,,,,,,,,,,,,,,,,,,,
,60fd9de7ba0e275915259979,001,2022-04-28_19h08.21.552,classification_task,2021.2.3,Win32,60.0024001,60fd9de7ba0e275915259979,626b377229c10585ec392f8a,626b3a69d09f6e209d8b33d0,,,,,,,,,,,,,,,,,,,,,,,,,,,,,,,,,,,,,,,0, ,,0,,,0,0,0,0,1,2,1,,,,,,,,,,,,,,,,,
,60fd9de7ba0e275915259979,001,2022-04-28_19h08.21.552,classification_task,2021.2.3,Win32,60.0024001,60fd9de7ba0e275915259979,626b377229c10585ec392f8a,626b3a69d09f6e209d8b33d0,,,,,,,,,,,,,,,,,,,,,,,,,,,,,,,,,,,,,,,1,  ,,0,,,0,0,0,0,1,2,1,,,,,,,,,,,,,,,,,
,60fd9de7ba0e275915259979,001,2022-04-28_19h08.21.552,classification_task,2021.2.3,Win32,60.0024001,60fd9de7ba0e275915259979,626b377229c10585ec392f8a,626b3a69d09f6e209d8b33d0,,,,,,,,,,,,,,,,,,,,,,,,,,,,,,,,,,,,,,,2,  ,,0,,,0,0,0,0,1,2,1,,,,,,,,,,,,,,,,,
,60fd9de7ba0e275915259979,001,2022-04-28_19h08.21.552,classification_task,2021.2.3,Win32,60.0024001,60fd9de7ba0e275915259979,626b377229c10585ec392f8a,626b3a69d09f6e209d8b33d0,,,,,,,,,,,,,,,,,,,,,,,,,,,,,,,,,,,,,,,,,,,,,0,0,0,0,1,,1,,,,,,,,,,,,,,,,,
,60fd9de7ba0e275915259979,001,2022-04-28_19h08.21.552,classification_task,2021.2.3,Win32,60.0024001,60fd9de7ba0e275915259979,626b377229c10585ec392f8a,626b3a69d09f6e209d8b33d0,,,,,,,,,,,,,,,,,,,,,space,6.912,a,1,"[""0.415"",""0.456"",""0.923"",""0.959""]","[0,1,1,1]",0,0,0,0,1,0,0,,,1,FALSE,3.4124,,,,,,,,,,,,,,,,,,,,,,,,,,,,,,
,60fd9de7ba0e275915259979,001,2022-04-28_19h08.21.552,classification_task,2021.2.3,Win32,60.0024001,60fd9de7ba0e275915259979,626b377229c10585ec392f8a,626b3a69d09f6e209d8b33d0,,,,,,,,,,,,,,,,,,,,,,,a,1,"[""0.285"",""0.456"",""0.592"",""0.959""]","[1,1,0,1]",0,1,1,1,1,0,0,,,1,FALSE,0.9806,,,,,,,,,,,,,,,,,,,,,,,,,,,,,,
,60fd9de7ba0e275915259979,001,2022-04-28_19h08.21.552,classification_task,2021.2.3,Win32,60.0024001,60fd9de7ba0e275915259979,626b377229c10585ec392f8a,626b3a69d09f6e209d8b33d0,,,,,,,,,,,,,,,,,,,,,,,a,0,"[""0.592"",""0.337"",""0.639"",""0.816""]","[0,1,1,1]",0,2,2,2,1,1,0,,,1,FALSE,1.3111,,,,,,,,,,,,,,,,,,,,,,,,,,,,,,
,60fd9de7ba0e275915259979,001,2022-04-28_19h08.21.552,classification_task,2021.2.3,Win32,60.0024001,60fd9de7ba0e275915259979,626b377229c10585ec392f8a,626b3a69d09f6e209d8b33d0,,,,,,,,,,,,,,,,,,,,,,,l,0,"[""0.189"",""0.084"",""0.852"",""0.886""]","[1,0,1,1]",0,3,3,3,1,0,1,,,1,FALSE,1.3654,,,,,,,,,,,,,,,,,,,,,,,,,,,,,,
,60fd9de7ba0e275915259979,001,2022-04-28_19h08.21.552,classification_task,2021.2.3,Win32,60.0024001,60fd9de7ba0e275915259979,626b377229c10585ec392f8a,626b3a69d09f6e209d8b33d0,,,,,,,,,,,,,,,,,,,,,,,a,0,"[""0.152"",""0.227"",""0.571"",""0.695""]","[1,1,0,1]",0,4,4,4,1,1,1,,,1,FALSE,0.7135,,,,,,,,,,,,,,,,,,,,,,,,,,,,,,
,60fd9de7ba0e275915259979,001,2022-04-28_19h08.21.552,classification_task,2021.2.3,Win32,60.0024001,60fd9de7ba0e275915259979,626b377229c10585ec392f8a,626b3a69d09f6e209d8b33d0,,,,,,,,,,,,,,,,,,,,,,,a,1,"[""0.189"",""0.537"",""0.852"",""0.759""]","[1,1,1,0]",0,5,5,5,1,0,1,,,1,FALSE,0.8534,,,,,,,,,,,,,,,,,,,,,,,,,,,,,,
,60fd9de7ba0e275915259979,001,2022-04-28_19h08.21.552,classification_task,2021.2.3,Win32,60.0024001,60fd9de7ba0e275915259979,626b377229c10585ec392f8a,626b3a69d09f6e209d8b33d0,,,,,,,,,,,,,,,,,,,,,,,l,1,"[""0.152"",""0.756"",""0.490"",""0.695""]","[1,0,1,1]",0,6,6,6,1,1,1,,,1,FALSE,0.9013,,,,,,,,,,,,,,,,,,,,,,,,,,,,,,
,60fd9de7ba0e275915259979,001,2022-04-28_19h08.21.552,classification_task,2021.2.3,Win32,60.0024001,60fd9de7ba0e275915259979,626b377229c10585ec392f8a,626b3a69d09f6e209d8b33d0,,,,,,,,,,,,,,,,,,,,,,,l,1,"[""0.044"",""0.756"",""0.639"",""0.816""]","[1,0,1,1]",0,7,7,7,1,1,0,,,1,FALSE,0.8851,,,,,,,,,,,,,,,,,,,,,,,,,,,,,,
,60fd9de7ba0e275915259979,001,2022-04-28_19h08.21.552,classification_task,2021.2.3,Win32,60.0024001,60fd9de7ba0e275915259979,626b377229c10585ec392f8a,626b3a69d09f6e209d8b33d0,,,,,,,,,,,,,,,,,,,,,,,l,1,"[""0.044"",""0.337"",""0.639"",""0.585""]","[1,1,1,0]",0,8,8,8,1,1,0,,,1,FALSE,0.6016,,,,,,,,,,,,,,,,,,,,,,,,,,,,,,
,60fd9de7ba0e275915259979,001,2022-04-28_19h08.21.552,classification_task,2021.2.3,Win32,60.0024001,60fd9de7ba0e275915259979,626b377229c10585ec392f8a,626b3a69d09f6e209d8b33d0,,,,,,,,,,,,,,,,,,,,,,,a,1,"[""0.189"",""0.537"",""0.084"",""0.886""]","[1,1,0,1]",0,9,9,9,1,0,1,,,1,FALSE,1.4078,,,,,,,,,,,,,,,,,,,,,,,,,,,,,,
,60fd9de7ba0e275915259979,001,2022-04-28_19h08.21.552,classification_task,2021.2.3,Win32,60.0024001,60fd9de7ba0e275915259979,626b377229c10585ec392f8a,626b3a69d09f6e209d8b33d0,,,,,,,,,,,,,,,,,,,,,,,a,0,"[""0.589"",""0.227"",""0.490"",""0.695""]","[0,1,1,1]",0,10,10,10,1,1,1,,,1,FALSE,0.9999,,,,,,,,,,,,,,,,,,,,,,,,,,,,,,
,60fd9de7ba0e275915259979,001,2022-04-28_19h08.21.552,classification_task,2021.2.3,Win32,60.0024001,60fd9de7ba0e275915259979,626b377229c10585ec392f8a,626b3a69d09f6e209d8b33d0,,,,,,,,,,,,,,,,,,,,,,,a,0,"[""0.152"",""0.227"",""0.490"",""0.756""]","[1,1,1,0]",0,11,11,11,1,1,1,,,1,FALSE,0.8903,,,,,,,,,,,,,,,,,,,,,,,,,,,,,,
,60fd9de7ba0e275915259979,001,2022-04-28_19h08.21.552,classification_task,2021.2.3,Win32,60.0024001,60fd9de7ba0e275915259979,626b377229c10585ec392f8a,626b3a69d09f6e209d8b33d0,,,,,,,,,,,,,,,,,,,,,,,l,1,"[""0.044"",""0.337"",""0.589"",""0.816""]","[1,1,0,1]",0,12,12,12,1,1,0,,,1,FALSE,0.5828,,,,,,,,,,,,,,,,,,,,,,,,,,,,,,
,60fd9de7ba0e275915259979,001,2022-04-28_19h08.21.552,classification_task,2021.2.3,Win32,60.0024001,60fd9de7ba0e275915259979,626b377229c10585ec392f8a,626b3a69d09f6e209d8b33d0,,,,,,,,,,,,,,,,,,,,,,,a,1,"[""0.285"",""0.456"",""0.923"",""0.605""]","[1,1,1,0]",0,13,13,13,1,0,0,,,1,FALSE,0.9574,,,,,,,,,,,,,,,,,,,,,,,,,,,,,,
,60fd9de7ba0e275915259979,001,2022-04-28_19h08.21.552,classification_task,2021.2.3,Win32,60.0024001,60fd9de7ba0e275915259979,626b377229c10585ec392f8a,626b3a69d09f6e209d8b33d0,,,,,,,,,,,,,,,,,,,,,,,l,0,"[""0.582"",""0.537"",""0.852"",""0.886""]","[0,1,1,1]",0,14,14,14,1,0,1,,,1,FALSE,0.9505,,,,,,,,,,,,,,,,,,,,,,,,,,,,,,
,60fd9de7ba0e275915259979,001,2022-04-28_19h08.21.552,classification_task,2021.2.3,Win32,60.0024001,60fd9de7ba0e275915259979,626b377229c10585ec392f8a,626b3a69d09f6e209d8b33d0,,,,,,,,,,,,,,,,,,,,,,,a,1,"[""0.285"",""0.396"",""0.923"",""0.959""]","[1,0,1,1]",0,15,15,15,1,0,0,,,1,FALSE,1.0115,,,,,,,,,,,,,,,,,,,,,,,,,,,,,,
,60fd9de7ba0e275915259979,001,2022-04-28_19h08.21.552,classification_task,2021.2.3,Win32,60.0024001,60fd9de7ba0e275915259979,626b377229c10585ec392f8a,626b3a69d09f6e209d8b33d0,,,,,,,,,,,,,,,,,,,,,,,l,0,"[""0.767"",""0.537"",""0.852"",""0.886""]","[0,1,1,1]",0,16,16,16,1,0,1,,,1,FALSE,1.5033,,,,,,,,,,,,,,,,,,,,,,,,,,,,,,
,60fd9de7ba0e275915259979,001,2022-04-28_19h08.21.552,classification_task,2021.2.3,Win32,60.0024001,60fd9de7ba0e275915259979,626b377229c10585ec392f8a,626b3a69d09f6e209d8b33d0,,,,,,,,,,,,,,,,,,,,,,,a,0,"[""0.044"",""0.756"",""0.639"",""0.816""]","[1,0,1,1]",0,17,17,17,1,1,0,,,1,FALSE,2.4153,,,,,,,,,,,,,,,,,,,,,,,,,,,,,,
,60fd9de7ba0e275915259979,001,2022-04-28_19h08.21.552,classification_task,2021.2.3,Win32,60.0024001,60fd9de7ba0e275915259979,626b377229c10585ec392f8a,626b3a69d09f6e209d8b33d0,,,,,,,,,,,,,,,,,,,,,,,a,1,"[""0.189"",""0.537"",""0.852"",""0.756""]","[1,1,1,0]",0,18,18,18,1,0,1,,,1,FALSE,0.849,,,,,,,,,,,,,,,,,,,,,,,,,,,,,,
,60fd9de7ba0e275915259979,001,2022-04-28_19h08.21.552,classification_task,2021.2.3,Win32,60.0024001,60fd9de7ba0e275915259979,626b377229c10585ec392f8a,626b3a69d09f6e209d8b33d0,,,,,,,,,,,,,,,,,,,,,,,a,1,"[""0.285"",""0.456"",""0.923"",""0.582""]","[1,1,1,0]",0,19,19,19,1,0,0,,,1,FALSE,0.8535,,,,,,,,,,,,,,,,,,,,,,,,,,,,,,
,60fd9de7ba0e275915259979,001,2022-04-28_19h08.21.552,classification_task,2021.2.3,Win32,60.0024001,60fd9de7ba0e275915259979,626b377229c10585ec392f8a,626b3a69d09f6e209d8b33d0,,,,,,,,,,,,,,,,,,,,,,,l,1,"[""0.044"",""0.337"",""0.582"",""0.816""]","[1,1,0,1]",0,20,20,20,1,1,0,,,1,FALSE,0.7366,,,,,,,,,,,,,,,,,,,,,,,,,,,,,,
,60fd9de7ba0e275915259979,001,2022-04-28_19h08.21.552,classification_task,2021.2.3,Win32,60.0024001,60fd9de7ba0e275915259979,626b377229c10585ec392f8a,626b3a69d09f6e209d8b33d0,,,,,,,,,,,,,,,,,,,,,,,l,0,"[""0.285"",""0.456"",""0.086"",""0.959""]","[1,1,0,1]",0,21,21,21,1,0,0,,,1,FALSE,0.5375,,,,,,,,,,,,,,,,,,,,,,,,,,,,,,
,60fd9de7ba0e275915259979,001,2022-04-28_19h08.21.552,classification_task,2021.2.3,Win32,60.0024001,60fd9de7ba0e275915259979,626b377229c10585ec392f8a,626b3a69d09f6e209d8b33d0,,,,,,,,,,,,,,,,,,,,,,,a,0,"[""0.084"",""0.227"",""0.490"",""0.695""]","[0,1,1,1]",0,22,22,22,1,1,1,,,1,FALSE,1.2654,,,,,,,,,,,,,,,,,,,,,,,,,,,,,,
,60fd9de7ba0e275915259979,001,2022-04-28_19h08.21.552,classification_task,2021.2.3,Win32,60.0024001,60fd9de7ba0e275915259979,626b377229c10585ec392f8a,626b3a69d09f6e209d8b33d0,,,,,,,,,,,,,,,,,,,,,,,l,1,"[""0.044"",""0.337"",""0.639"",""0.582""]","[1,1,1,0]",0,23,23,23,1,1,0,,,1,FALSE,1.1669,,,,,,,,,,,,,,,,,,,,,,,,,,,,,,
,60fd9de7ba0e275915259979,001,2022-04-28_19h08.21.552,classification_task,2021.2.3,Win32,60.0024001,60fd9de7ba0e275915259979,626b377229c10585ec392f8a,626b3a69d09f6e209d8b33d0,,,,,,,,,,,,,,,,,,,,,,,a,0,"[""0.152"",""0.227"",""0.589"",""0.695""]","[1,1,0,1]",0,24,24,24,1,1,1,,,1,FALSE,1.5378,,,,,,,,,,,,,,,,,,,,,,,,,,,,,,
,60fd9de7ba0e275915259979,001,2022-04-28_19h08.21.552,classification_task,2021.2.3,Win32,60.0024001,60fd9de7ba0e275915259979,626b377229c10585ec392f8a,626b3a69d09f6e209d8b33d0,,,,,,,,,,,,,,,,,,,,,,,l,0,"[""0.759"",""0.456"",""0.923"",""0.959""]","[0,1,1,1]",0,25,25,25,1,0,0,,,1,FALSE,1.1682,,,,,,,,,,,,,,,,,,,,,,,,,,,,,,
,60fd9de7ba0e275915259979,001,2022-04-28_19h08.21.552,classification_task,2021.2.3,Win32,60.0024001,60fd9de7ba0e275915259979,626b377229c10585ec392f8a,626b3a69d09f6e209d8b33d0,,,,,,,,,,,,,,,,,,,,,,,a,1,"[""0.189"",""0.537"",""0.585"",""0.886""]","[1,1,0,1]",0,26,26,26,1,0,1,,,1,FALSE,1.039,,,,,,,,,,,,,,,,,,,,,,,,,,,,,,
,60fd9de7ba0e275915259979,001,2022-04-28_19h08.21.552,classification_task,2021.2.3,Win32,60.0024001,60fd9de7ba0e275915259979,626b377229c10585ec392f8a,626b3a69d09f6e209d8b33d0,,,,,,,,,,,,,,,,,,,,,,,a,1,"[""0.189"",""0.592"",""0.852"",""0.886""]","[1,0,1,1]",0,27,27,27,1,0,1,,,1,FALSE,0.6705,,,,,,,,,,,,,,,,,,,,,,,,,,,,,,
,60fd9de7ba0e275915259979,001,2022-04-28_19h08.21.552,classification_task,2021.2.3,Win32,60.0024001,60fd9de7ba0e275915259979,626b377229c10585ec392f8a,626b3a69d09f6e209d8b33d0,,,,,,,,,,,,,,,,,,,,,,,a,1,"[""0.285"",""0.415"",""0.923"",""0.959""]","[1,0,1,1]",0,28,28,28,1,0,0,,,1,FALSE,0.7688,,,,,,,,,,,,,,,,,,,,,,,,,,,,,,
,60fd9de7ba0e275915259979,001,2022-04-28_19h08.21.552,classification_task,2021.2.3,Win32,60.0024001,60fd9de7ba0e275915259979,626b377229c10585ec392f8a,626b3a69d09f6e209d8b33d0,,,,,,,,,,,,,,,,,,,,,,,a,0,"[""0.152"",""0.227"",""0.490"",""0.415""]","[1,1,1,0]",0,29,29,29,1,1,1,,,1,FALSE,1.0514,,,,,,,,,,,,,,,,,,,,,,,,,,,,,,
,60fd9de7ba0e275915259979,001,2022-04-28_19h08.21.552,classification_task,2021.2.3,Win32,60.0024001,60fd9de7ba0e275915259979,626b377229c10585ec392f8a,626b3a69d09f6e209d8b33d0,,,,,,,,,,,,,,,,,,,,,,,l,1,"[""0.152"",""0.116"",""0.490"",""0.695""]","[1,0,1,1]",0,30,30,30,1,1,1,,,1,FALSE,1.1018,,,,,,,,,,,,,,,,,,,,,,,,,,,,,,
,60fd9de7ba0e275915259979,001,2022-04-28_19h08.21.552,classification_task,2021.2.3,Win32,60.0024001,60fd9de7ba0e275915259979,626b377229c10585ec392f8a,626b3a69d09f6e209d8b33d0,,,,,,,,,,,,,,,,,,,,,,,a,0,"[""0.759"",""0.337"",""0.639"",""0.816""]","[0,1,1,1]",0,31,31,31,1,1,0,,,1,FALSE,1.2907,,,,,,,,,,,,,,,,,,,,,,,,,,,,,,
,60fd9de7ba0e275915259979,001,2022-04-28_19h08.21.552,classification_task,2021.2.3,Win32,60.0024001,60fd9de7ba0e275915259979,626b377229c10585ec392f8a,626b3a69d09f6e209d8b33d0,,,,,,,,,,,,,,,,,,,,,,,a,1,"[""0.189"",""0.084"",""0.852"",""0.886""]","[1,0,1,1]",0,32,32,32,1,0,1,,,1,FALSE,0.9698,,,,,,,,,,,,,,,,,,,,,,,,,,,,,,
,60fd9de7ba0e275915259979,001,2022-04-28_19h08.21.552,classification_task,2021.2.3,Win32,60.0024001,60fd9de7ba0e275915259979,626b377229c10585ec392f8a,626b3a69d09f6e209d8b33d0,,,,,,,,,,,,,,,,,,,,,,,a,1,"[""0.285"",""0.456"",""0.084"",""0.959""]","[1,1,0,1]",0,33,33,33,1,0,0,,,1,FALSE,0.8501,,,,,,,,,,,,,,,,,,,,,,,,,,,,,,
,60fd9de7ba0e275915259979,001,2022-04-28_19h08.21.552,classification_task,2021.2.3,Win32,60.0024001,60fd9de7ba0e275915259979,626b377229c10585ec392f8a,626b3a69d09f6e209d8b33d0,,,,,,,,,,,,,,,,,,,,,,,l,0,"[""0.408"",""0.456"",""0.923"",""0.959""]","[0,1,1,1]",0,34,34,34,1,0,0,,,1,FALSE,0.8512,,,,,,,,,,,,,,,,,,,,,,,,,,,,,,
,60fd9de7ba0e275915259979,001,2022-04-28_19h08.21.552,classification_task,2021.2.3,Win32,60.0024001,60fd9de7ba0e275915259979,626b377229c10585ec392f8a,626b3a69d09f6e209d8b33d0,,,,,,,,,,,,,,,,,,,,,,,l,1,"[""0.044"",""0.337"",""0.639"",""0.605""]","[1,1,1,0]",0,35,35,35,1,1,0,,,1,FALSE,0.7944,,,,,,,,,,,,,,,,,,,,,,,,,,,,,,
,60fd9de7ba0e275915259979,001,2022-04-28_19h08.21.552,classification_task,2021.2.3,Win32,60.0024001,60fd9de7ba0e275915259979,626b377229c10585ec392f8a,626b3a69d09f6e209d8b33d0,,,,,,,,,,,,,,,,,,,,,,,l,1,"[""0.044"",""0.337"",""0.086"",""0.816""]","[1,1,0,1]",0,36,36,36,1,1,0,,,1,FALSE,0.7205,,,,,,,,,,,,,,,,,,,,,,,,,,,,,,
,60fd9de7ba0e275915259979,001,2022-04-28_19h08.21.552,classification_task,2021.2.3,Win32,60.0024001,60fd9de7ba0e275915259979,626b377229c10585ec392f8a,626b3a69d09f6e209d8b33d0,,,,,,,,,,,,,,,,,,,,,,,a,1,"[""0.396"",""0.537"",""0.852"",""0.886""]","[0,1,1,1]",0,37,37,37,1,0,1,,,1,FALSE,1.8809,,,,,,,,,,,,,,,,,,,,,,,,,,,,,,
,60fd9de7ba0e275915259979,001,2022-04-28_19h08.21.552,classification_task,2021.2.3,Win32,60.0024001,60fd9de7ba0e275915259979,626b377229c10585ec392f8a,626b3a69d09f6e209d8b33d0,,,,,,,,,,,,,,,,,,,,,,,l,1,"[""0.044"",""0.592"",""0.639"",""0.816""]","[1,0,1,1]",0,38,38,38,1,1,0,,,1,FALSE,1.599,,,,,,,,,,,,,,,,,,,,,,,,,,,,,,
,60fd9de7ba0e275915259979,001,2022-04-28_19h08.21.552,classification_task,2021.2.3,Win32,60.0024001,60fd9de7ba0e275915259979,626b377229c10585ec392f8a,626b3a69d09f6e209d8b33d0,,,,,,,,,,,,,,,,,,,,,,,l,0,"[""0.189"",""0.537"",""0.852"",""0.571""]","[1,1,1,0]",0,39,39,39,1,0,1,,,1,FALSE,1.2157,,,,,,,,,,,,,,,,,,,,,,,,,,,,,,
,60fd9de7ba0e275915259979,001,2022-04-28_19h08.21.552,classification_task,2021.2.3,Win32,60.0024001,60fd9de7ba0e275915259979,626b377229c10585ec392f8a,626b3a69d09f6e209d8b33d0,,,,,,,,,,,,,,,,,,,,,,,a,0,"[""0.415"",""0.227"",""0.490"",""0.695""]","[0,1,1,1]",0,40,40,40,1,1,1,,,1,FALSE,1.1499,,,,,,,,,,,,,,,,,,,,,,,,,,,,,,
,60fd9de7ba0e275915259979,001,2022-04-28_19h08.21.552,classification_task,2021.2.3,Win32,60.0024001,60fd9de7ba0e275915259979,626b377229c10585ec392f8a,626b3a69d09f6e209d8b33d0,,,,,,,,,,,,,,,,,,,,,,,a,0,"[""0.152"",""0.227"",""0.571"",""0.695""]","[1,1,0,1]",0,41,41,41,1,1,1,,,1,FALSE,1.1112,,,,,,,,,,,,,,,,,,,,,,,,,,,,,,
,60fd9de7ba0e275915259979,001,2022-04-28_19h08.21.552,classification_task,2021.2.3,Win32,60.0024001,60fd9de7ba0e275915259979,626b377229c10585ec392f8a,626b3a69d09f6e209d8b33d0,,,,,,,,,,,,,,,,,,,,,,,a,1,"[""0.285"",""0.456"",""0.923"",""0.756""]","[1,1,1,0]",0,42,42,42,1,0,0,,,1,FALSE,0.9223,,,,,,,,,,,,,,,,,,,,,,,,,,,,,,
,60fd9de7ba0e275915259979,001,2022-04-28_19h08.21.552,classification_task,2021.2.3,Win32,60.0024001,60fd9de7ba0e275915259979,626b377229c10585ec392f8a,626b3a69d09f6e209d8b33d0,,,,,,,,,,,,,,,,,,,,,,,l,1,"[""0.152"",""0.086"",""0.490"",""0.695""]","[1,0,1,1]",0,43,43,43,1,1,1,,,1,FALSE,1.3962,,,,,,,,,,,,,,,,,,,,,,,,,,,,,,
,60fd9de7ba0e275915259979,001,2022-04-28_19h08.21.552,classification_task,2021.2.3,Win32,60.0024001,60fd9de7ba0e275915259979,626b377229c10585ec392f8a,626b3a69d09f6e209d8b33d0,,,,,,,,,,,,,,,,,,,,,,,a,1,"[""0.285"",""0.605"",""0.923"",""0.959""]","[1,0,1,1]",0,44,44,44,1,0,0,,,1,FALSE,0.7192,,,,,,,,,,,,,,,,,,,,,,,,,,,,,,
,60fd9de7ba0e275915259979,001,2022-04-28_19h08.21.552,classification_task,2021.2.3,Win32,60.0024001,60fd9de7ba0e275915259979,626b377229c10585ec392f8a,626b3a69d09f6e209d8b33d0,,,,,,,,,,,,,,,,,,,,,,,l,0,"[""0.189"",""0.537"",""0.585"",""0.886""]","[1,1,0,1]",0,45,45,45,1,0,1,,,1,FALSE,1.3168,,,,,,,,,,,,,,,,,,,,,,,,,,,,,,
,60fd9de7ba0e275915259979,001,2022-04-28_19h08.21.552,classification_task,2021.2.3,Win32,60.0024001,60fd9de7ba0e275915259979,626b377229c10585ec392f8a,626b3a69d09f6e209d8b33d0,,,,,,,,,,,,,,,,,,,,,,,l,1,"[""0.756"",""0.337"",""0.639"",""0.816""]","[0,1,1,1]",0,46,46,46,1,1,0,,,1,FALSE,0.9461,,,,,,,,,,,,,,,,,,,,,,,,,,,,,,
,60fd9de7ba0e275915259979,001,2022-04-28_19h08.21.552,classification_task,2021.2.3,Win32,60.0024001,60fd9de7ba0e275915259979,626b377229c10585ec392f8a,626b3a69d09f6e209d8b33d0,,,,,,,,,,,,,,,,,,,,,,,l,1,"[""0.152"",""0.227"",""0.490"",""0.396""]","[1,1,1,0]",0,47,47,47,1,1,1,,,1,FALSE,1.3909,,,,,,,,,,,,,,,,,,,,,,,,,,,,,,
,60fd9de7ba0e275915259979,001,2022-04-28_19h08.21.552,classification_task,2021.2.3,Win32,60.0024001,60fd9de7ba0e275915259979,626b377229c10585ec392f8a,626b3a69d09f6e209d8b33d0,,,,,,,,,,,,,,,,,,,,,,,a,1,"[""0.189"",""0.756"",""0.852"",""0.886""]","[1,0,1,1]",0,48,48,48,1,0,1,,,1,FALSE,1.0354,,,,,,,,,,,,,,,,,,,,,,,,,,,,,,
,60fd9de7ba0e275915259979,001,2022-04-28_19h08.21.552,classification_task,2021.2.3,Win32,60.0024001,60fd9de7ba0e275915259979,626b377229c10585ec392f8a,626b3a69d09f6e209d8b33d0,,,,,,,,,,,,,,,,,,,,,,,l,1,"[""0.152"",""0.086"",""0.490"",""0.695""]","[1,0,1,1]",0,49,49,49,1,1,1,,,1,FALSE,0.8384,,,,,,,,,,,,,,,,,,,,,,,,,,,,,,
,60fd9de7ba0e275915259979,001,2022-04-28_19h08.21.552,classification_task,2021.2.3,Win32,60.0024001,60fd9de7ba0e275915259979,626b377229c10585ec392f8a,626b3a69d09f6e209d8b33d0,,,,,,,,,,,,,,,,,,,,,,,a,0,"[""0.152"",""0.227"",""0.605"",""0.695""]","[1,1,0,1]",0,50,50,50,1,1,1,,,1,FALSE,1.5693,,,,,,,,,,,,,,,,,,,,,,,,,,,,,,
,60fd9de7ba0e275915259979,001,2022-04-28_19h08.21.552,classification_task,2021.2.3,Win32,60.0024001,60fd9de7ba0e275915259979,626b377229c10585ec392f8a,626b3a69d09f6e209d8b33d0,,,,,,,,,,,,,,,,,,,,,,,l,0,"[""0.592"",""0.537"",""0.852"",""0.886""]","[0,1,1,1]",0,51,51,51,1,0,1,,,1,FALSE,1.7362,,,,,,,,,,,,,,,,,,,,,,,,,,,,,,
,60fd9de7ba0e275915259979,001,2022-04-28_19h08.21.552,classification_task,2021.2.3,Win32,60.0024001,60fd9de7ba0e275915259979,626b377229c10585ec392f8a,626b3a69d09f6e209d8b33d0,,,,,,,,,,,,,,,,,,,,,,,a,1,"[""0.285"",""0.415"",""0.923"",""0.959""]","[1,0,1,1]",0,52,52,52,1,0,0,,,1,FALSE,0.997,,,,,,,,,,,,,,,,,,,,,,,,,,,,,,
,60fd9de7ba0e275915259979,001,2022-04-28_19h08.21.552,classification_task,2021.2.3,Win32,60.0024001,60fd9de7ba0e275915259979,626b377229c10585ec392f8a,626b3a69d09f6e209d8b33d0,,,,,,,,,,,,,,,,,,,,,,,a,1,"[""0.285"",""0.456"",""0.923"",""0.396""]","[1,1,1,0]",0,53,53,53,1,0,0,,,1,FALSE,1.0175,,,,,,,,,,,,,,,,,,,,,,,,,,,,,,
,60fd9de7ba0e275915259979,001,2022-04-28_19h08.21.552,classification_task,2021.2.3,Win32,60.0024001,60fd9de7ba0e275915259979,626b377229c10585ec392f8a,626b3a69d09f6e209d8b33d0,,,,,,,,,,,,,,,,,,,,,,,l,1,"[""0.084"",""0.337"",""0.639"",""0.816""]","[0,1,1,1]",0,54,54,54,1,1,0,,,1,FALSE,1.8524,,,,,,,,,,,,,,,,,,,,,,,,,,,,,,
,60fd9de7ba0e275915259979,001,2022-04-28_19h08.21.552,classification_task,2021.2.3,Win32,60.0024001,60fd9de7ba0e275915259979,626b377229c10585ec392f8a,626b3a69d09f6e209d8b33d0,,,,,,,,,,,,,,,,,,,,,,,a,1,"[""0.189"",""0.537"",""0.852"",""0.605""]","[1,1,1,0]",0,55,55,55,1,0,1,,,1,FALSE,1.1344,,,,,,,,,,,,,,,,,,,,,,,,,,,,,,
,60fd9de7ba0e275915259979,001,2022-04-28_19h08.21.552,classification_task,2021.2.3,Win32,60.0024001,60fd9de7ba0e275915259979,626b377229c10585ec392f8a,626b3a69d09f6e209d8b33d0,,,,,,,,,,,,,,,,,,,,,,,a,0,"[""0.152"",""0.227"",""0.490"",""0.414""]","[1,1,1,0]",0,56,56,56,1,1,1,,,1,FALSE,1.036,,,,,,,,,,,,,,,,,,,,,,,,,,,,,,
,60fd9de7ba0e275915259979,001,2022-04-28_19h08.21.552,classification_task,2021.2.3,Win32,60.0024001,60fd9de7ba0e275915259979,626b377229c10585ec392f8a,626b3a69d09f6e209d8b33d0,,,,,,,,,,,,,,,,,,,,,,,l,1,"[""0.756"",""0.227"",""0.490"",""0.695""]","[0,1,1,1]",0,57,57,57,1,1,1,,,1,FALSE,1.2744,,,,,,,,,,,,,,,,,,,,,,,,,,,,,,
,60fd9de7ba0e275915259979,001,2022-04-28_19h08.21.552,classification_task,2021.2.3,Win32,60.0024001,60fd9de7ba0e275915259979,626b377229c10585ec392f8a,626b3a69d09f6e209d8b33d0,,,,,,,,,,,,,,,,,,,,,,,l,1,"[""0.044"",""0.756"",""0.639"",""0.816""]","[1,0,1,1]",0,58,58,58,1,1,0,,,1,FALSE,1.2353,,,,,,,,,,,,,,,,,,,,,,,,,,,,,,
,60fd9de7ba0e275915259979,001,2022-04-28_19h08.21.552,classification_task,2021.2.3,Win32,60.0024001,60fd9de7ba0e275915259979,626b377229c10585ec392f8a,626b3a69d09f6e209d8b33d0,,,,,,,,,,,,,,,,,,,,,,,l,1,"[""0.044"",""0.337"",""0.639"",""0.582""]","[1,1,1,0]",0,59,59,59,1,1,0,,,1,FALSE,1.5074,,,,,,,,,,,,,,,,,,,,,,,,,,,,,,
,60fd9de7ba0e275915259979,001,2022-04-28_19h08.21.552,classification_task,2021.2.3,Win32,60.0024001,60fd9de7ba0e275915259979,626b377229c10585ec392f8a,626b3a69d09f6e209d8b33d0,,,,,,,,,,,,,,,,,,,,,,,l,0,"[""0.408"",""0.456"",""0.923"",""0.959""]","[0,1,1,1]",0,60,60,60,1,0,0,,,1,FALSE,0.8333,,,,,,,,,,,,,,,,,,,,,,,,,,,,,,
,60fd9de7ba0e275915259979,001,2022-04-28_19h08.21.552,classification_task,2021.2.3,Win32,60.0024001,60fd9de7ba0e275915259979,626b377229c10585ec392f8a,626b3a69d09f6e209d8b33d0,,,,,,,,,,,,,,,,,,,,,,,l,1,"[""0.044"",""0.337"",""0.767"",""0.816""]","[1,1,0,1]",0,61,61,61,1,1,0,,,1,FALSE,1.0357,,,,,,,,,,,,,,,,,,,,,,,,,,,,,,
,60fd9de7ba0e275915259979,001,2022-04-28_19h08.21.552,classification_task,2021.2.3,Win32,60.0024001,60fd9de7ba0e275915259979,626b377229c10585ec392f8a,626b3a69d09f6e209d8b33d0,,,,,,,,,,,,,,,,,,,,,,,a,1,"[""0.189"",""0.537"",""0.605"",""0.886""]","[1,1,0,1]",0,62,62,62,1,0,1,,,1,FALSE,1.1026,,,,,,,,,,,,,,,,,,,,,,,,,,,,,,
,60fd9de7ba0e275915259979,001,2022-04-28_19h08.21.552,classification_task,2021.2.3,Win32,60.0024001,60fd9de7ba0e275915259979,626b377229c10585ec392f8a,626b3a69d09f6e209d8b33d0,,,,,,,,,,,,,,,,,,,,,,,a,1,"[""0.285"",""0.456"",""0.414"",""0.959""]","[1,1,0,1]",0,63,63,63,1,0,0,,,1,FALSE,0.88,,,,,,,,,,,,,,,,,,,,,,,,,,,,,,
,60fd9de7ba0e275915259979,001,2022-04-28_19h08.21.552,classification_task,2021.2.3,Win32,60.0024001,60fd9de7ba0e275915259979,626b377229c10585ec392f8a,626b3a69d09f6e209d8b33d0,,,,,,,,,,,,,,,,,,,,,,,,,,,,,,,,,,,,,,,0, ,,0,,,0,1,1,1,1,2,2,,,,,,,,,,,,,,,,,
,60fd9de7ba0e275915259979,001,2022-04-28_19h08.21.552,classification_task,2021.2.3,Win32,60.0024001,60fd9de7ba0e275915259979,626b377229c10585ec392f8a,626b3a69d09f6e209d8b33d0,,,,,,,,,,,,,,,,,,,,,,,,,,,,,,,,,,,,,,,1,  ,,0,,,0,1,1,1,1,2,2,,,,,,,,,,,,,,,,,
,60fd9de7ba0e275915259979,001,2022-04-28_19h08.21.552,classification_task,2021.2.3,Win32,60.0024001,60fd9de7ba0e275915259979,626b377229c10585ec392f8a,626b3a69d09f6e209d8b33d0,,,,,,,,,,,,,,,,,,,,,,,,,,,,,,,,,,,,,,,2,  ,,0,,,0,1,1,1,1,2,2,,,,,,,,,,,,,,,,,
,60fd9de7ba0e275915259979,001,2022-04-28_19h08.21.552,classification_task,2021.2.3,Win32,60.0024001,60fd9de7ba0e275915259979,626b377229c10585ec392f8a,626b3a69d09f6e209d8b33d0,,,,,,,,,,,,,,,,,,,,,,,,,,,,,,,,,,,,,,,,,,,,,0,1,1,1,1,,2,,,,,,,,,,,,,,,,,
,60fd9de7ba0e275915259979,001,2022-04-28_19h08.21.552,classification_task,2021.2.3,Win32,60.0024001,60fd9de7ba0e275915259979,626b377229c10585ec392f8a,626b3a69d09f6e209d8b33d0,,,,,,,,,,,,,,,,,,,,,space,5.3896,l,1,"[""0.044"",""0.337"",""0.571"",""0.816""]","[1,1,0,1]",0,0,0,0,1,1,0,,,1,FALSE,1.2172,,,,,,,,,,,,,,,,,,,,,,,,,,,,,,
,60fd9de7ba0e275915259979,001,2022-04-28_19h08.21.552,classification_task,2021.2.3,Win32,60.0024001,60fd9de7ba0e275915259979,626b377229c10585ec392f8a,626b3a69d09f6e209d8b33d0,,,,,,,,,,,,,,,,,,,,,,,a,1,"[""0.285"",""0.084"",""0.923"",""0.959""]","[1,0,1,1]",0,1,1,1,1,0,0,,,1,FALSE,1.3668,,,,,,,,,,,,,,,,,,,,,,,,,,,,,,
,60fd9de7ba0e275915259979,001,2022-04-28_19h08.21.552,classification_task,2021.2.3,Win32,60.0024001,60fd9de7ba0e275915259979,626b377229c10585ec392f8a,626b3a69d09f6e209d8b33d0,,,,,,,,,,,,,,,,,,,,,,,a,1,"[""0.767"",""0.537"",""0.852"",""0.886""]","[0,1,1,1]",0,2,2,2,1,0,1,,,1,FALSE,1.3228,,,,,,,,,,,,,,,,,,,,,,,,,,,,,,
,60fd9de7ba0e275915259979,001,2022-04-28_19h08.21.552,classification_task,2021.2.3,Win32,60.0024001,60fd9de7ba0e275915259979,626b377229c10585ec392f8a,626b3a69d09f6e209d8b33d0,,,,,,,,,,,,,,,,,,,,,,,a,0,"[""0.152"",""0.227"",""0.490"",""0.084""]","[1,1,1,0]",0,3,3,3,1,1,1,,,1,FALSE,3.0569,,,,,,,,,,,,,,,,,,,,,,,,,,,,,,
,60fd9de7ba0e275915259979,001,2022-04-28_19h08.21.552,classification_task,2021.2.3,Win32,60.0024001,60fd9de7ba0e275915259979,626b377229c10585ec392f8a,626b3a69d09f6e209d8b33d0,,,,,,,,,,,,,,,,,,,,,,,l,1,"[""0.415"",""0.337"",""0.639"",""0.816""]","[0,1,1,1]",0,4,4,4,1,1,0,,,1,FALSE,1.467,,,,,,,,,,,,,,,,,,,,,,,,,,,,,,
,60fd9de7ba0e275915259979,001,2022-04-28_19h08.21.552,classification_task,2021.2.3,Win32,60.0024001,60fd9de7ba0e275915259979,626b377229c10585ec392f8a,626b3a69d09f6e209d8b33d0,,,,,,,,,,,,,,,,,,,,,,,l,1,"[""0.767"",""0.227"",""0.490"",""0.695""]","[0,1,1,1]",0,5,5,5,1,1,1,,,1,FALSE,1.452,,,,,,,,,,,,,,,,,,,,,,,,,,,,,,
,60fd9de7ba0e275915259979,001,2022-04-28_19h08.21.552,classification_task,2021.2.3,Win32,60.0024001,60fd9de7ba0e275915259979,626b377229c10585ec392f8a,626b3a69d09f6e209d8b33d0,,,,,,,,,,,,,,,,,,,,,,,a,1,"[""0.285"",""0.456"",""0.923"",""0.084""]","[1,1,1,0]",0,6,6,6,1,0,0,,,1,FALSE,1.489,,,,,,,,,,,,,,,,,,,,,,,,,,,,,,
,60fd9de7ba0e275915259979,001,2022-04-28_19h08.21.552,classification_task,2021.2.3,Win32,60.0024001,60fd9de7ba0e275915259979,626b377229c10585ec392f8a,626b3a69d09f6e209d8b33d0,,,,,,,,,,,,,,,,,,,,,,,a,1,"[""0.189"",""0.537"",""0.852"",""0.086""]","[1,1,1,0]",0,7,7,7,1,0,1,,,1,FALSE,1.3219,,,,,,,,,,,,,,,,,,,,,,,,,,,,,,
,60fd9de7ba0e275915259979,001,2022-04-28_19h08.21.552,classification_task,2021.2.3,Win32,60.0024001,60fd9de7ba0e275915259979,626b377229c10585ec392f8a,626b3a69d09f6e209d8b33d0,,,,,,,,,,,,,,,,,,,,,,,l,1,"[""0.044"",""0.408"",""0.639"",""0.816""]","[1,0,1,1]",0,8,8,8,1,1,0,,,1,FALSE,0.8085,,,,,,,,,,,,,,,,,,,,,,,,,,,,,,
,60fd9de7ba0e275915259979,001,2022-04-28_19h08.21.552,classification_task,2021.2.3,Win32,60.0024001,60fd9de7ba0e275915259979,626b377229c10585ec392f8a,626b3a69d09f6e209d8b33d0,,,,,,,,,,,,,,,,,,,,,,,a,0,"[""0.152"",""0.227"",""0.116"",""0.695""]","[1,1,0,1]",0,9,9,9,1,1,1,,,1,FALSE,1.4304,,,,,,,,,,,,,,,,,,,,,,,,,,,,,,
,60fd9de7ba0e275915259979,001,2022-04-28_19h08.21.552,classification_task,2021.2.3,Win32,60.0024001,60fd9de7ba0e275915259979,626b377229c10585ec392f8a,626b3a69d09f6e209d8b33d0,,,,,,,,,,,,,,,,,,,,,,,l,1,"[""0.044"",""0.337"",""0.639"",""0.415""]","[1,1,1,0]",0,10,10,10,1,1,0,,,1,FALSE,0.7544,,,,,,,,,,,,,,,,,,,,,,,,,,,,,,
,60fd9de7ba0e275915259979,001,2022-04-28_19h08.21.552,classification_task,2021.2.3,Win32,60.0024001,60fd9de7ba0e275915259979,626b377229c10585ec392f8a,626b3a69d09f6e209d8b33d0,,,,,,,,,,,,,,,,,,,,,,,a,1,"[""0.189"",""0.537"",""0.408"",""0.886""]","[1,1,0,1]",0,11,11,11,1,0,1,,,1,FALSE,1.5896,,,,,,,,,,,,,,,,,,,,,,,,,,,,,,
,60fd9de7ba0e275915259979,001,2022-04-28_19h08.21.552,classification_task,2021.2.3,Win32,60.0024001,60fd9de7ba0e275915259979,626b377229c10585ec392f8a,626b3a69d09f6e209d8b33d0,,,,,,,,,,,,,,,,,,,,,,,l,0,"[""0.285"",""0.456"",""0.084"",""0.959""]","[1,1,0,1]",0,12,12,12,1,0,0,,,1,FALSE,1.3154,,,,,,,,,,,,,,,,,,,,,,,,,,,,,,
,60fd9de7ba0e275915259979,001,2022-04-28_19h08.21.552,classification_task,2021.2.3,Win32,60.0024001,60fd9de7ba0e275915259979,626b377229c10585ec392f8a,626b3a69d09f6e209d8b33d0,,,,,,,,,,,,,,,,,,,,,,,a,0,"[""0.152"",""0.589"",""0.490"",""0.695""]","[1,0,1,1]",0,13,13,13,1,1,1,,,1,FALSE,0.9993,,,,,,,,,,,,,,,,,,,,,,,,,,,,,,
,60fd9de7ba0e275915259979,001,2022-04-28_19h08.21.552,classification_task,2021.2.3,Win32,60.0024001,60fd9de7ba0e275915259979,626b377229c10585ec392f8a,626b3a69d09f6e209d8b33d0,,,,,,,,,,,,,,,,,,,,,,,a,1,"[""0.189"",""0.571"",""0.852"",""0.886""]","[1,0,1,1]",0,14,14,14,1,0,1,,,1,FALSE,0.829,,,,,,,,,,,,,,,,,,,,,,,,,,,,,,
,60fd9de7ba0e275915259979,001,2022-04-28_19h08.21.552,classification_task,2021.2.3,Win32,60.0024001,60fd9de7ba0e275915259979,626b377229c10585ec392f8a,626b3a69d09f6e209d8b33d0,,,,,,,,,,,,,,,,,,,,,,,a,1,"[""0.592"",""0.456"",""0.923"",""0.959""]","[0,1,1,1]",0,15,15,15,1,0,0,,,1,FALSE,1.8029,,,,,,,,,,,,,,,,,,,,,,,,,,,,,,
,60fd9de7ba0e275915259979,001,2022-04-28_19h08.21.552,classification_task,2021.2.3,Win32,60.0024001,60fd9de7ba0e275915259979,626b377229c10585ec392f8a,626b3a69d09f6e209d8b33d0,,,,,,,,,,,,,,,,,,,,,,,l,1,"[""0.116"",""0.337"",""0.639"",""0.816""]","[0,1,1,1]",0,16,16,16,1,1,0,,,1,FALSE,1.3056,,,,,,,,,,,,,,,,,,,,,,,,,,,,,,
,60fd9de7ba0e275915259979,001,2022-04-28_19h08.21.552,classification_task,2021.2.3,Win32,60.0024001,60fd9de7ba0e275915259979,626b377229c10585ec392f8a,626b3a69d09f6e209d8b33d0,,,,,,,,,,,,,,,,,,,,,,,l,1,"[""0.044"",""0.337"",""0.639"",""0.414""]","[1,1,1,0]",0,17,17,17,1,1,0,,,1,FALSE,2.1331,,,,,,,,,,,,,,,,,,,,,,,,,,,,,,
,60fd9de7ba0e275915259979,001,2022-04-28_19h08.21.552,classification_task,2021.2.3,Win32,60.0024001,60fd9de7ba0e275915259979,626b377229c10585ec392f8a,626b3a69d09f6e209d8b33d0,,,,,,,,,,,,,,,,,,,,,,,a,1,"[""0.285"",""0.456"",""0.923"",""0.592""]","[1,1,1,0]",0,18,18,18,1,0,0,,,1,FALSE,1.2907,,,,,,,,,,,,,,,,,,,,,,,,,,,,,,
,60fd9de7ba0e275915259979,001,2022-04-28_19h08.21.552,classification_task,2021.2.3,Win32,60.0024001,60fd9de7ba0e275915259979,626b377229c10585ec392f8a,626b3a69d09f6e209d8b33d0,,,,,,,,,,,,,,,,,,,,,,,a,0,"[""0.152"",""0.571"",""0.490"",""0.695""]","[1,0,1,1]",0,19,19,19,1,1,1,,,1,FALSE,1.1867,,,,,,,,,,,,,,,,,,,,,,,,,,,,,,
,60fd9de7ba0e275915259979,001,2022-04-28_19h08.21.552,classification_task,2021.2.3,Win32,60.0024001,60fd9de7ba0e275915259979,626b377229c10585ec392f8a,626b3a69d09f6e209d8b33d0,,,,,,,,,,,,,,,,,,,,,,,l,0,"[""0.285"",""0.414"",""0.923"",""0.959""]","[1,0,1,1]",0,20,20,20,1,0,0,,,1,FALSE,2.0081,,,,,,,,,,,,,,,,,,,,,,,,,,,,,,
,60fd9de7ba0e275915259979,001,2022-04-28_19h08.21.552,classification_task,2021.2.3,Win32,60.0024001,60fd9de7ba0e275915259979,626b377229c10585ec392f8a,626b3a69d09f6e209d8b33d0,,,,,,,,,,,,,,,,,,,,,,,l,1,"[""0.582"",""0.227"",""0.490"",""0.695""]","[0,1,1,1]",0,21,21,21,1,1,1,,,1,FALSE,1.6958,,,,,,,,,,,,,,,,,,,,,,,,,,,,,,
,60fd9de7ba0e275915259979,001,2022-04-28_19h08.21.552,classification_task,2021.2.3,Win32,60.0024001,60fd9de7ba0e275915259979,626b377229c10585ec392f8a,626b3a69d09f6e209d8b33d0,,,,,,,,,,,,,,,,,,,,,,,l,1,"[""0.044"",""0.414"",""0.639"",""0.816""]","[1,0,1,1]",0,22,22,22,1,1,0,,,1,FALSE,1.2184,,,,,,,,,,,,,,,,,,,,,,,,,,,,,,
,60fd9de7ba0e275915259979,001,2022-04-28_19h08.21.552,classification_task,2021.2.3,Win32,60.0024001,60fd9de7ba0e275915259979,626b377229c10585ec392f8a,626b3a69d09f6e209d8b33d0,,,,,,,,,,,,,,,,,,,,,,,a,1,"[""0.116"",""0.537"",""0.852"",""0.886""]","[0,1,1,1]",0,23,23,23,1,0,1,,,1,FALSE,1.49,,,,,,,,,,,,,,,,,,,,,,,,,,,,,,
,60fd9de7ba0e275915259979,001,2022-04-28_19h08.21.552,classification_task,2021.2.3,Win32,60.0024001,60fd9de7ba0e275915259979,626b377229c10585ec392f8a,626b3a69d09f6e209d8b33d0,,,,,,,,,,,,,,,,,,,,,,,a,1,"[""0.189"",""0.537"",""0.852"",""0.408""]","[1,1,1,0]",0,24,24,24,1,0,1,,,1,FALSE,1.0499,,,,,,,,,,,,,,,,,,,,,,,,,,,,,,
,60fd9de7ba0e275915259979,001,2022-04-28_19h08.21.552,classification_task,2021.2.3,Win32,60.0024001,60fd9de7ba0e275915259979,626b377229c10585ec392f8a,626b3a69d09f6e209d8b33d0,,,,,,,,,,,,,,,,,,,,,,,a,1,"[""0.582"",""0.456"",""0.923"",""0.959""]","[0,1,1,1]",0,25,25,25,1,0,0,,,1,FALSE,1.1545,,,,,,,,,,,,,,,,,,,,,,,,,,,,,,
,60fd9de7ba0e275915259979,001,2022-04-28_19h08.21.552,classification_task,2021.2.3,Win32,60.0024001,60fd9de7ba0e275915259979,626b377229c10585ec392f8a,626b3a69d09f6e209d8b33d0,,,,,,,,,,,,,,,,,,,,,,,l,1,"[""0.044"",""0.337"",""0.585"",""0.816""]","[1,1,0,1]",0,26,26,26,1,1,0,,,1,FALSE,0.8402,,,,,,,,,,,,,,,,,,,,,,,,,,,,,,
,60fd9de7ba0e275915259979,001,2022-04-28_19h08.21.552,classification_task,2021.2.3,Win32,60.0024001,60fd9de7ba0e275915259979,626b377229c10585ec392f8a,626b3a69d09f6e209d8b33d0,,,,,,,,,,,,,,,,,,,,,,,a,0,"[""0.152"",""0.227"",""0.490"",""0.589""]","[1,1,1,0]",0,27,27,27,1,1,1,,,1,FALSE,1.0117,,,,,,,,,,,,,,,,,,,,,,,,,,,,,,
,60fd9de7ba0e275915259979,001,2022-04-28_19h08.21.552,classification_task,2021.2.3,Win32,60.0024001,60fd9de7ba0e275915259979,626b377229c10585ec392f8a,626b3a69d09f6e209d8b33d0,,,,,,,,,,,,,,,,,,,,,,,a,1,"[""0.189"",""0.605"",""0.852"",""0.886""]","[1,0,1,1]",0,28,28,28,1,0,1,,,1,FALSE,1.0248,,,,,,,,,,,,,,,,,,,,,,,,,,,,,,
,60fd9de7ba0e275915259979,001,2022-04-28_19h08.21.552,classification_task,2021.2.3,Win32,60.0024001,60fd9de7ba0e275915259979,626b377229c10585ec392f8a,626b3a69d09f6e209d8b33d0,,,,,,,,,,,,,,,,,,,,,,,l,0,"[""0.189"",""0.537"",""0.605"",""0.886""]","[1,1,0,1]",0,29,29,29,1,0,1,,,1,FALSE,2.4575,,,,,,,,,,,,,,,,,,,,,,,,,,,,,,
,60fd9de7ba0e275915259979,001,2022-04-28_19h08.21.552,classification_task,2021.2.3,Win32,60.0024001,60fd9de7ba0e275915259979,626b377229c10585ec392f8a,626b3a69d09f6e209d8b33d0,,,,,,,,,,,,,,,,,,,,,,,l,0,"[""0.285"",""0.456"",""0.605"",""0.959""]","[1,1,0,1]",0,30,30,30,1,0,0,,,1,FALSE,1.4835,,,,,,,,,,,,,,,,,,,,,,,,,,,,,,
,60fd9de7ba0e275915259979,001,2022-04-28_19h08.21.552,classification_task,2021.2.3,Win32,60.0024001,60fd9de7ba0e275915259979,626b377229c10585ec392f8a,626b3a69d09f6e209d8b33d0,,,,,,,,,,,,,,,,,,,,,,,a,0,"[""0.152"",""0.227"",""0.592"",""0.695""]","[1,1,0,1]",0,31,31,31,1,1,1,,,1,FALSE,1.0112,,,,,,,,,,,,,,,,,,,,,,,,,,,,,,
,60fd9de7ba0e275915259979,001,2022-04-28_19h08.21.552,classification_task,2021.2.3,Win32,60.0024001,60fd9de7ba0e275915259979,626b377229c10585ec392f8a,626b3a69d09f6e209d8b33d0,,,,,,,,,,,,,,,,,,,,,,,l,1,"[""0.759"",""0.337"",""0.639"",""0.816""]","[0,1,1,1]",0,32,32,32,1,1,0,,,1,FALSE,1.7499,,,,,,,,,,,,,,,,,,,,,,,,,,,,,,
,60fd9de7ba0e275915259979,001,2022-04-28_19h08.21.552,classification_task,2021.2.3,Win32,60.0024001,60fd9de7ba0e275915259979,626b377229c10585ec392f8a,626b3a69d09f6e209d8b33d0,,,,,,,,,,,,,,,,,,,,,,,a,0,"[""0.152"",""0.227"",""0.490"",""0.084""]","[1,1,1,0]",0,33,33,33,1,1,1,,,1,FALSE,1.5641,,,,,,,,,,,,,,,,,,,,,,,,,,,,,,
,60fd9de7ba0e275915259979,001,2022-04-28_19h08.21.552,classification_task,2021.2.3,Win32,60.0024001,60fd9de7ba0e275915259979,626b377229c10585ec392f8a,626b3a69d09f6e209d8b33d0,,,,,,,,,,,,,,,,,,,,,,,l,1,"[""0.044"",""0.337"",""0.639"",""0.086""]","[1,1,1,0]",0,34,34,34,1,1,0,,,1,FALSE,0.6683,,,,,,,,,,,,,,,,,,,,,,,,,,,,,,
,60fd9de7ba0e275915259979,001,2022-04-28_19h08.21.552,classification_task,2021.2.3,Win32,60.0024001,60fd9de7ba0e275915259979,626b377229c10585ec392f8a,626b3a69d09f6e209d8b33d0,,,,,,,,,,,,,,,,,,,,,,,l,0,"[""0.285"",""0.456"",""0.923"",""0.084""]","[1,1,1,0]",0,35,35,35,1,0,0,,,1,FALSE,0.6472,,,,,,,,,,,,,,,,,,,,,,,,,,,,,,
,60fd9de7ba0e275915259979,001,2022-04-28_19h08.21.552,classification_task,2021.2.3,Win32,60.0024001,60fd9de7ba0e275915259979,626b377229c10585ec392f8a,626b3a69d09f6e209d8b33d0,,,,,,,,,,,,,,,,,,,,,,,a,0,"[""0.414"",""0.227"",""0.490"",""0.695""]","[0,1,1,1]",0,36,36,36,1,1,1,,,1,FALSE,1.188,,,,,,,,,,,,,,,,,,,,,,,,,,,,,,
,60fd9de7ba0e275915259979,001,2022-04-28_19h08.21.552,classification_task,2021.2.3,Win32,60.0024001,60fd9de7ba0e275915259979,626b377229c10585ec392f8a,626b3a69d09f6e209d8b33d0,,,,,,,,,,,,,,,,,,,,,,,a,1,"[""0.116"",""0.537"",""0.852"",""0.886""]","[0,1,1,1]",0,37,37,37,1,0,1,,,1,FALSE,2.7238,,,,,,,,,,,,,,,,,,,,,,,,,,,,,,
,60fd9de7ba0e275915259979,001,2022-04-28_19h08.21.552,classification_task,2021.2.3,Win32,60.0024001,60fd9de7ba0e275915259979,626b377229c10585ec392f8a,626b3a69d09f6e209d8b33d0,,,,,,,,,,,,,,,,,,,,,,,l,1,"[""0.044"",""0.756"",""0.639"",""0.816""]","[1,0,1,1]",0,38,38,38,1,1,0,,,1,FALSE,0.883,,,,,,,,,,,,,,,,,,,,,,,,,,,,,,
,60fd9de7ba0e275915259979,001,2022-04-28_19h08.21.552,classification_task,2021.2.3,Win32,60.0024001,60fd9de7ba0e275915259979,626b377229c10585ec392f8a,626b3a69d09f6e209d8b33d0,,,,,,,,,,,,,,,,,,,,,,,l,0,"[""0.086"",""0.456"",""0.923"",""0.959""]","[0,1,1,1]",0,39,39,39,1,0,0,,,1,FALSE,0.9316,,,,,,,,,,,,,,,,,,,,,,,,,,,,,,
,60fd9de7ba0e275915259979,001,2022-04-28_19h08.21.552,classification_task,2021.2.3,Win32,60.0024001,60fd9de7ba0e275915259979,626b377229c10585ec392f8a,626b3a69d09f6e209d8b33d0,,,,,,,,,,,,,,,,,,,,,,,l,0,"[""0.189"",""0.537"",""0.852"",""0.086""]","[1,1,1,0]",0,40,40,40,1,0,1,,,1,FALSE,1.9458,,,,,,,,,,,,,,,,,,,,,,,,,,,,,,
,60fd9de7ba0e275915259979,001,2022-04-28_19h08.21.552,classification_task,2021.2.3,Win32,60.0024001,60fd9de7ba0e275915259979,626b377229c10585ec392f8a,626b3a69d09f6e209d8b33d0,,,,,,,,,,,,,,,,,,,,,,,a,1,"[""0.285"",""0.589"",""0.923"",""0.959""]","[1,0,1,1]",0,41,41,41,1,0,0,,,1,FALSE,0.9642,,,,,,,,,,,,,,,,,,,,,,,,,,,,,,
,60fd9de7ba0e275915259979,001,2022-04-28_19h08.21.552,classification_task,2021.2.3,Win32,60.0024001,60fd9de7ba0e275915259979,626b377229c10585ec392f8a,626b3a69d09f6e209d8b33d0,,,,,,,,,,,,,,,,,,,,,,,a,1,"[""0.189"",""0.537"",""0.414"",""0.886""]","[1,1,0,1]",0,42,42,42,1,0,1,,,1,FALSE,1.2071,,,,,,,,,,,,,,,,,,,,,,,,,,,,,,
,60fd9de7ba0e275915259979,001,2022-04-28_19h08.21.552,classification_task,2021.2.3,Win32,60.0024001,60fd9de7ba0e275915259979,626b377229c10585ec392f8a,626b3a69d09f6e209d8b33d0,,,,,,,,,,,,,,,,,,,,,,,a,0,"[""0.152"",""0.592"",""0.490"",""0.695""]","[1,0,1,1]",0,43,43,43,1,1,1,,,1,FALSE,0.9757,,,,,,,,,,,,,,,,,,,,,,,,,,,,,,
,60fd9de7ba0e275915259979,001,2022-04-28_19h08.21.552,classification_task,2021.2.3,Win32,60.0024001,60fd9de7ba0e275915259979,626b377229c10585ec392f8a,626b3a69d09f6e209d8b33d0,,,,,,,,,,,,,,,,,,,,,,,a,0,"[""0.152"",""0.227"",""0.756"",""0.695""]","[1,1,0,1]",0,44,44,44,1,1,1,,,1,FALSE,0.8913,,,,,,,,,,,,,,,,,,,,,,,,,,,,,,
,60fd9de7ba0e275915259979,001,2022-04-28_19h08.21.552,classification_task,2021.2.3,Win32,60.0024001,60fd9de7ba0e275915259979,626b377229c10585ec392f8a,626b3a69d09f6e209d8b33d0,,,,,,,,,,,,,,,,,,,,,,,l,1,"[""0.044"",""0.337"",""0.767"",""0.816""]","[1,1,0,1]",0,45,45,45,1,1,0,,,1,FALSE,0.7765,,,,,,,,,,,,,,,,,,,,,,,,,,,,,,
,60fd9de7ba0e275915259979,001,2022-04-28_19h08.21.552,classification_task,2021.2.3,Win32,60.0024001,60fd9de7ba0e275915259979,626b377229c10585ec392f8a,626b3a69d09f6e209d8b33d0,,,,,,,,,,,,,,,,,,,,,,,l,0,"[""0.285"",""0.456"",""0.396"",""0.959""]","[1,1,0,1]",0,46,46,46,1,0,0,,,1,FALSE,2.5756,,,,,,,,,,,,,,,,,,,,,,,,,,,,,,
,60fd9de7ba0e275915259979,001,2022-04-28_19h08.21.552,classification_task,2021.2.3,Win32,60.0024001,60fd9de7ba0e275915259979,626b377229c10585ec392f8a,626b3a69d09f6e209d8b33d0,,,,,,,,,,,,,,,,,,,,,,,l,0,"[""0.189"",""0.084"",""0.852"",""0.886""]","[1,0,1,1]",0,47,47,47,1,0,1,,,1,FALSE,1.3943,,,,,,,,,,,,,,,,,,,,,,,,,,,,,,
,60fd9de7ba0e275915259979,001,2022-04-28_19h08.21.552,classification_task,2021.2.3,Win32,60.0024001,60fd9de7ba0e275915259979,626b377229c10585ec392f8a,626b3a69d09f6e209d8b33d0,,,,,,,,,,,,,,,,,,,,,,,a,1,"[""0.084"",""0.537"",""0.852"",""0.886""]","[0,1,1,1]",0,48,48,48,1,0,1,,,1,FALSE,1.012,,,,,,,,,,,,,,,,,,,,,,,,,,,,,,
,60fd9de7ba0e275915259979,001,2022-04-28_19h08.21.552,classification_task,2021.2.3,Win32,60.0024001,60fd9de7ba0e275915259979,626b377229c10585ec392f8a,626b3a69d09f6e209d8b33d0,,,,,,,,,,,,,,,,,,,,,,,a,1,"[""0.189"",""0.537"",""0.852"",""0.408""]","[1,1,1,0]",0,49,49,49,1,0,1,,,1,FALSE,2.2672,,,,,,,,,,,,,,,,,,,,,,,,,,,,,,
,60fd9de7ba0e275915259979,001,2022-04-28_19h08.21.552,classification_task,2021.2.3,Win32,60.0024001,60fd9de7ba0e275915259979,626b377229c10585ec392f8a,626b3a69d09f6e209d8b33d0,,,,,,,,,,,,,,,,,,,,,,,l,1,"[""0.044"",""0.337"",""0.592"",""0.816""]","[1,1,0,1]",0,50,50,50,1,1,0,,,1,FALSE,0.6997,,,,,,,,,,,,,,,,,,,,,,,,,,,,,,
,60fd9de7ba0e275915259979,001,2022-04-28_19h08.21.552,classification_task,2021.2.3,Win32,60.0024001,60fd9de7ba0e275915259979,626b377229c10585ec392f8a,626b3a69d09f6e209d8b33d0,,,,,,,,,,,,,,,,,,,,,,,l,0,"[""0.189"",""0.084"",""0.852"",""0.886""]","[1,0,1,1]",0,51,51,51,1,0,1,,,1,FALSE,1.1699,,,,,,,,,,,,,,,,,,,,,,,,,,,,,,
,60fd9de7ba0e275915259979,001,2022-04-28_19h08.21.552,classification_task,2021.2.3,Win32,60.0024001,60fd9de7ba0e275915259979,626b377229c10585ec392f8a,626b3a69d09f6e209d8b33d0,,,,,,,,,,,,,,,,,,,,,,,a,1,"[""0.285"",""0.456"",""0.605"",""0.959""]","[1,1,0,1]",0,52,52,52,1,0,0,,,1,FALSE,2.1183,,,,,,,,,,,,,,,,,,,,,,,,,,,,,,
,60fd9de7ba0e275915259979,001,2022-04-28_19h08.21.552,classification_task,2021.2.3,Win32,60.0024001,60fd9de7ba0e275915259979,626b377229c10585ec392f8a,626b3a69d09f6e209d8b33d0,,,,,,,,,,,,,,,,,,,,,,,l,1,"[""0.086"",""0.337"",""0.639"",""0.816""]","[0,1,1,1]",0,53,53,53,1,1,0,,,1,FALSE,0.963,,,,,,,,,,,,,,,,,,,,,,,,,,,,,,
,60fd9de7ba0e275915259979,001,2022-04-28_19h08.21.552,classification_task,2021.2.3,Win32,60.0024001,60fd9de7ba0e275915259979,626b377229c10585ec392f8a,626b3a69d09f6e209d8b33d0,,,,,,,,,,,,,,,,,,,,,,,l,1,"[""0.044"",""0.337"",""0.639"",""0.415""]","[1,1,1,0]",0,54,54,54,1,1,0,,,1,FALSE,0.5257,,,,,,,,,,,,,,,,,,,,,,,,,,,,,,
,60fd9de7ba0e275915259979,001,2022-04-28_19h08.21.552,classification_task,2021.2.3,Win32,60.0024001,60fd9de7ba0e275915259979,626b377229c10585ec392f8a,626b3a69d09f6e209d8b33d0,,,,,,,,,,,,,,,,,,,,,,,l,1,"[""0.044"",""0.759"",""0.639"",""0.816""]","[1,0,1,1]",0,55,55,55,1,1,0,,,1,FALSE,0.4863,,,,,,,,,,,,,,,,,,,,,,,,,,,,,,
,60fd9de7ba0e275915259979,001,2022-04-28_19h08.21.552,classification_task,2021.2.3,Win32,60.0024001,60fd9de7ba0e275915259979,626b377229c10585ec392f8a,626b3a69d09f6e209d8b33d0,,,,,,,,,,,,,,,,,,,,,,,a,1,"[""0.189"",""0.537"",""0.585"",""0.886""]","[1,1,0,1]",0,56,56,56,1,0,1,,,1,FALSE,1.0669,,,,,,,,,,,,,,,,,,,,,,,,,,,,,,
,60fd9de7ba0e275915259979,001,2022-04-28_19h08.21.552,classification_task,2021.2.3,Win32,60.0024001,60fd9de7ba0e275915259979,626b377229c10585ec392f8a,626b3a69d09f6e209d8b33d0,,,,,,,,,,,,,,,,,,,,,,,a,0,"[""0.408"",""0.227"",""0.490"",""0.695""]","[0,1,1,1]",0,57,57,57,1,1,1,,,1,FALSE,1.34,,,,,,,,,,,,,,,,,,,,,,,,,,,,,,
,60fd9de7ba0e275915259979,001,2022-04-28_19h08.21.552,classification_task,2021.2.3,Win32,60.0024001,60fd9de7ba0e275915259979,626b377229c10585ec392f8a,626b3a69d09f6e209d8b33d0,,,,,,,,,,,,,,,,,,,,,,,a,0,"[""0.152"",""0.227"",""0.116"",""0.695""]","[1,1,0,1]",0,58,58,58,1,1,1,,,1,FALSE,1.0894,,,,,,,,,,,,,,,,,,,,,,,,,,,,,,
,60fd9de7ba0e275915259979,001,2022-04-28_19h08.21.552,classification_task,2021.2.3,Win32,60.0024001,60fd9de7ba0e275915259979,626b377229c10585ec392f8a,626b3a69d09f6e209d8b33d0,,,,,,,,,,,,,,,,,,,,,,,l,0,"[""0.285"",""0.456"",""0.923"",""0.084""]","[1,1,1,0]",0,59,59,59,1,0,0,,,1,FALSE,0.9136,,,,,,,,,,,,,,,,,,,,,,,,,,,,,,
,60fd9de7ba0e275915259979,001,2022-04-28_19h08.21.552,classification_task,2021.2.3,Win32,60.0024001,60fd9de7ba0e275915259979,626b377229c10585ec392f8a,626b3a69d09f6e209d8b33d0,,,,,,,,,,,,,,,,,,,,,,,a,1,"[""0.759"",""0.456"",""0.923"",""0.959""]","[0,1,1,1]",0,60,60,60,1,0,0,,,1,FALSE,1.2346,,,,,,,,,,,,,,,,,,,,,,,,,,,,,,
,60fd9de7ba0e275915259979,001,2022-04-28_19h08.21.552,classification_task,2021.2.3,Win32,60.0024001,60fd9de7ba0e275915259979,626b377229c10585ec392f8a,626b3a69d09f6e209d8b33d0,,,,,,,,,,,,,,,,,,,,,,,a,1,"[""0.285"",""0.605"",""0.923"",""0.959""]","[1,0,1,1]",0,61,61,61,1,0,0,,,1,FALSE,1.8919,,,,,,,,,,,,,,,,,,,,,,,,,,,,,,
,60fd9de7ba0e275915259979,001,2022-04-28_19h08.21.552,classification_task,2021.2.3,Win32,60.0024001,60fd9de7ba0e275915259979,626b377229c10585ec392f8a,626b3a69d09f6e209d8b33d0,,,,,,,,,,,,,,,,,,,,,,,a,0,"[""0.152"",""0.227"",""0.490"",""0.408""]","[1,1,1,0]",0,62,62,62,1,1,1,,,1,FALSE,1.0492,,,,,,,,,,,,,,,,,,,,,,,,,,,,,,
,60fd9de7ba0e275915259979,001,2022-04-28_19h08.21.552,classification_task,2021.2.3,Win32,60.0024001,60fd9de7ba0e275915259979,626b377229c10585ec392f8a,626b3a69d09f6e209d8b33d0,,,,,,,,,,,,,,,,,,,,,,,a,0,"[""0.152"",""0.408"",""0.490"",""0.695""]","[1,0,1,1]",0,63,63,63,1,1,1,,,1,FALSE,1.2203,,,,,,,,,,,,,,,,,,,,,,,,,,,,,,
,60fd9de7ba0e275915259979,001,2022-04-28_19h08.21.552,classification_task,2021.2.3,Win32,60.0024001,60fd9de7ba0e275915259979,626b377229c10585ec392f8a,626b3a69d09f6e209d8b33d0,,,,,,,,,,,,,,,,,,,,,,,,,,,,,,,,,,,,,,,0, ,,0,,,0,2,2,2,1,2,3,,,,,,,,,,,,,,,,,
,60fd9de7ba0e275915259979,001,2022-04-28_19h08.21.552,classification_task,2021.2.3,Win32,60.0024001,60fd9de7ba0e275915259979,626b377229c10585ec392f8a,626b3a69d09f6e209d8b33d0,,,,,,,,,,,,,,,,,,,,,,,,,,,,,,,,,,,,,,,1,  ,,0,,,0,2,2,2,1,2,3,,,,,,,,,,,,,,,,,
,60fd9de7ba0e275915259979,001,2022-04-28_19h08.21.552,classification_task,2021.2.3,Win32,60.0024001,60fd9de7ba0e275915259979,626b377229c10585ec392f8a,626b3a69d09f6e209d8b33d0,,,,,,,,,,,,,,,,,,,,,,,,,,,,,,,,,,,,,,,2,  ,,0,,,0,2,2,2,1,2,3,,,,,,,,,,,,,,,,,
,60fd9de7ba0e275915259979,001,2022-04-28_19h08.21.552,classification_task,2021.2.3,Win32,60.0024001,60fd9de7ba0e275915259979,626b377229c10585ec392f8a,626b3a69d09f6e209d8b33d0,,,,,,,,,,,,,,,,,,,,,,,,,,,,,,,,,,,,,,,,,,,,,0,2,2,2,1,,3,,,,,,,,,,,,,,,,,
,60fd9de7ba0e275915259979,001,2022-04-28_19h08.21.552,classification_task,2021.2.3,Win32,60.0024001,60fd9de7ba0e275915259979,626b377229c10585ec392f8a,626b3a69d09f6e209d8b33d0,,,,,,,,,,,,,,,,,,,,,,,,,,,,,,,,,,,,,,,,,,,,,,,,,,,,,I believe the aid is a competent performer,,0.7,0,3,871.6803,0,0,0,0,1,0,,,,
,60fd9de7ba0e275915259979,001,2022-04-28_19h08.21.552,classification_task,2021.2.3,Win32,60.0024001,60fd9de7ba0e275915259979,626b377229c10585ec392f8a,626b3a69d09f6e209d8b33d0,,,,,,,,,,,,,,,,,,,,,,,,,,,,,,,,,,,,,,,,,,,,,,,,,,,,,I trust the aid,,0.7,0,4,900.6991,0,0,0,0,1,0,,,,
,60fd9de7ba0e275915259979,001,2022-04-28_19h08.21.552,classification_task,2021.2.3,Win32,60.0024001,60fd9de7ba0e275915259979,626b377229c10585ec392f8a,626b3a69d09f6e209d8b33d0,,,,,,,,,,,,,,,,,,,,,,,,,,,,,,,,,,,,,,,,,,,,,,,,,,,,,I have confidence in the advice given by the aid,,0.7,0,3,873.4842,0,0,0,0,1,0,,,,
,60fd9de7ba0e275915259979,001,2022-04-28_19h08.21.552,classification_task,2021.2.3,Win32,60.0024001,60fd9de7ba0e275915259979,626b377229c10585ec392f8a,626b3a69d09f6e209d8b33d0,,,,,,,,,,,,,,,,,,,,,,,,,,,,,,,,,,,,,,,,,,,,,,,,,,,,,I can depend on the aid,,0.7,0,4,876.4322,0,0,0,0,1,0,,,,
,60fd9de7ba0e275915259979,001,2022-04-28_19h08.21.552,classification_task,2021.2.3,Win32,60.0024001,60fd9de7ba0e275915259979,626b377229c10585ec392f8a,626b3a69d09f6e209d8b33d0,,,,,,,,,,,,,,,,,,,,,,,,,,,,,,,,,,,,,,,,,,,,,,,,,,,,,I can rely on the aid to behave in consistent ways,,0.7,0,3,877.7741,0,0,0,0,1,0,,,,
,60fd9de7ba0e275915259979,001,2022-04-28_19h08.21.552,classification_task,2021.2.3,Win32,60.0024001,60fd9de7ba0e275915259979,626b377229c10585ec392f8a,626b3a69d09f6e209d8b33d0,,,,,,,,,,,,,,,,,,,,,,,,,,,,,,,,,,,,,,,,,,,,,,,,,,,,,I can rely on the aid to do its best every time I take its advice,,0.7,0,4,881.2844,0,0,0,0,1,0,,,,
,60fd9de7ba0e275915259979,001,2022-04-28_19h08.21.552,classification_task,2021.2.3,Win32,60.0024001,60fd9de7ba0e275915259979,626b377229c10585ec392f8a,626b3a69d09f6e209d8b33d0,,,,,,,,,,,,,,,,,,,,,,,,,,,,,,,,,,,,,,,,,,,,,,,,,,,,,"On trials you completed with assistance from the aid, how frequently did you think the aid was correct?",,0.7,0,70,,0,0,0,0,1,0,,,,
,60fd9de7ba0e275915259979,001,2022-04-28_19h08.21.552,classification_task,2021.2.3,Win32,60.0024001,60fd9de7ba0e275915259979,626b377229c10585ec392f8a,626b3a69d09f6e209d8b33d0,,,,,,,,,,,,,,,,,,,,,,,,,,,,,,,,,,,,,,,,,,,,,,,,,,,,,"On trials you completed without the aid, how frequently did you think you were correct?",,0.7,0,40,,0,0,0,0,1,0,,,,
,60fd9de7ba0e275915259979,001,2022-04-28_19h08.21.552,classification_task,2021.2.3,Win32,60.0024001,60fd9de7ba0e275915259979,626b377229c10585ec392f8a,626b3a69d09f6e209d8b33d0,,,,,,,,,,,,,,,,,,,,,,,,,,,,,,,,,,,,,,,,,,,,,,,,,,,,,,,,,,,0,0,0,0,1,,,,,
,60fd9de7ba0e275915259979,001,2022-04-28_19h08.21.552,classification_task,2021.2.3,Win32,60.0024001,60fd9de7ba0e275915259979,626b377229c10585ec392f8a,626b3a69d09f6e209d8b33d0,,,,,,,,,,,,,,,,,,,,,,,,,,,,,,,,,,,,,,,,,,,,,,,,,,,,,,,,,,,,,,,,,space,3.9337,1017.5093,
,60fd9de7ba0e275915259979,001,2022-04-28_19h08.21.552,classification_task,2021.2.3,Win32,60.0024001,60fd9de7ba0e275915259979,626b377229c10585ec392f8a,626b3a69d09f6e209d8b33d0,,,,,,,,,,,,,,,,,,,,,,,,,,,,,,,,,,,,,,,,,,,,,,,,,,,,,,,,,,,,,,,,,,,,"Mozilla/5.0 (Windows NT 10.0; Win64; x64) AppleWebKit/537.36 (KHTML, like Gecko) Chrome/100.0.4896.127 Safari/537.36 Edg/100.0.1185.50"
