usingWebGL,participant,session,date,expName,psychopyVersion,OS,frameRate,PROLIFIC_PID,STUDY_ID,SESSION_ID,signatures_friend,signatures_foe,band_ranges_top,band_ranges_bottom,formitemText,formtype,formundefined,formitemWidth,formindex,formresponse,formrt,key_resp_2.keys,key_resp_2.rt,tute_resp.keys,tute_resp.rt,tutorial.thisRepN,tutorial.thisTrialN,tutorial.thisN,tutorial.thisIndex,tutorial.ran,key_resp_4.keys,key_resp_4.rt,key_resp.keys,key_resp.corr,key_resp.rt,lines_presented,is_signal_presented,trials.thisRepN,trials.thisTrialN,trials.thisN,trials.thisIndex,trials.ran,vessel,active_band,lines,is_signal,supported_pos,catch_trial,debrief_formindex,debrief_formitemText,debrief_formtype,debrief_formitemWidth,debrief_formresponse,debrief_formrt,phases.thisRepN,phases.thisTrialN,phases.thisN,phases.thisIndex,phases.ran,phases.order,phase,key_resp_3.keys,trustitemText,trusttype,trustitemWidth,trustindex,trustresponse,trustrt,support_status.thisRepN,support_status.thisTrialN,support_status.thisN,support_status.thisIndex,support_status.ran,support_status.order,key_resp_5.keys,key_resp_5.rt,globalClockTime,userAgent
TRUE,61006e8a4fe954de47730409,001,2022-04-29_04h16.02.606,classification_task,2021.2.3,Win32,60.20832079,61006e8a4fe954de47730409,626b377229c10585ec392f8a,626b3b88d836661cb141158e,,,,,,,,,,,,,,,,,,,,,,,,,,,,,,,,,,,,,,,,,,,,,,,,,,,,,,,,,,,,,,,,,,,,
,61006e8a4fe954de47730409,001,2022-04-29_04h16.02.606,classification_task,2021.2.3,Win32,60.20832079,61006e8a4fe954de47730409,626b377229c10585ec392f8a,626b3b88d836661cb141158e,"[[""0.291"",""0.364"",""0.680"",""0.895""],[""0.326"",""0.503"",""0.859"",""0.929""]]","[[""0.069"",""0.120"",""0.540"",""0.743""],[""0.035"",""0.400"",""0.460"",""0.813""]]","[1,10]","[100,1000]",Video game experience,,,0.7,0,,,,,,,,,,,,,,,,,,,,,,,,,,,,,,,,,,,,,,,,,,,,,,,,,,,,,,,,,,,
,61006e8a4fe954de47730409,001,2022-04-29_04h16.02.606,classification_task,2021.2.3,Win32,60.20832079,61006e8a4fe954de47730409,626b377229c10585ec392f8a,626b3b88d836661cb141158e,,,,,Approximately how many hours did you spend playing video games in the last week?,,,0.7,0,7,,,,,,,,,,,,,,,,,,,,,,,,,,,,,,,,,,,,,,,,,,,,,,,,,,,,,,,,,,
,61006e8a4fe954de47730409,001,2022-04-29_04h16.02.606,classification_task,2021.2.3,Win32,60.20832079,61006e8a4fe954de47730409,626b377229c10585ec392f8a,626b3b88d836661cb141158e,,,,,"Which game did you play the most this year? (Enter ""None"" if you didn't play any)",,,0.7,0,Terraria,,,,,,,,,,,,,,,,,,,,,,,,,,,,,,,,,,,,,,,,,,,,,,,,,,,,,,,,,,
,61006e8a4fe954de47730409,001,2022-04-29_04h16.02.606,classification_task,2021.2.3,Win32,60.20832079,61006e8a4fe954de47730409,626b377229c10585ec392f8a,626b3b88d836661cb141158e,,,,,Visual perception,,,0.7,0,,,,,,,,,,,,,,,,,,,,,,,,,,,,,,,,,,,,,,,,,,,,,,,,,,,,,,,,,,,
,61006e8a4fe954de47730409,001,2022-04-29_04h16.02.606,classification_task,2021.2.3,Win32,60.20832079,61006e8a4fe954de47730409,626b377229c10585ec392f8a,626b3b88d836661cb141158e,,,,,Do you have any form of color blindness?,,,0.7,0,No,23.3543,,,,,,,,,,,,,,,,,,,,,,,,,,,,,,,,,,,,,,,,,,,,,,,,,,,,,,,,,
,61006e8a4fe954de47730409,001,2022-04-29_04h16.02.606,classification_task,2021.2.3,Win32,60.20832079,61006e8a4fe954de47730409,626b377229c10585ec392f8a,626b3b88d836661cb141158e,,,,,Do you use software to change the colour temperature of your screen (e.g. f.lux)?,,,0.7,0,No,28.2173,,,,,,,,,,,,,,,,,,,,,,,,,,,,,,,,,,,,,,,,,,,,,,,,,,,,,,,,,
,61006e8a4fe954de47730409,001,2022-04-29_04h16.02.606,classification_task,2021.2.3,Win32,60.20832079,61006e8a4fe954de47730409,626b377229c10585ec392f8a,626b3b88d836661cb141158e,,,,,,,,,,,,space,23.6966,space,11.3936,0,0,0,0,1,,,,,,,,,,,,,,,,,,,,,,,,,,,,,,,,,,,,,,,,,,,,,,,,
,61006e8a4fe954de47730409,001,2022-04-29_04h16.02.606,classification_task,2021.2.3,Win32,60.20832079,61006e8a4fe954de47730409,626b377229c10585ec392f8a,626b3b88d836661cb141158e,,,,,,,,,,,,,,space,6.3352,1,0,1,0,1,,,,,,,,,,,,,,,,,,,,,,,,,,,,,,,,,,,,,,,,,,,,,,,,
,61006e8a4fe954de47730409,001,2022-04-29_04h16.02.606,classification_task,2021.2.3,Win32,60.20832079,61006e8a4fe954de47730409,626b377229c10585ec392f8a,626b3b88d836661cb141158e,,,,,,,,,,,,,,space,29.5228,2,0,2,0,1,,,,,,,,,,,,,,,,,,,,,,,,,,,,,,,,,,,,,,,,,,,,,,,,
,61006e8a4fe954de47730409,001,2022-04-29_04h16.02.606,classification_task,2021.2.3,Win32,60.20832079,61006e8a4fe954de47730409,626b377229c10585ec392f8a,626b3b88d836661cb141158e,,,,,,,,,,,,,,space,6.7215,3,0,3,0,1,,,,,,,,,,,,,,,,,,,,,,,,,,,,,,,,,,,,,,,,,,,,,,,,
,61006e8a4fe954de47730409,001,2022-04-29_04h16.02.606,classification_task,2021.2.3,Win32,60.20832079,61006e8a4fe954de47730409,626b377229c10585ec392f8a,626b3b88d836661cb141158e,,,,,,,,,,,,,,space,10.5506,4,0,4,0,1,,,,,,,,,,,,,,,,,,,,,,,,,,,,,,,,,,,,,,,,,,,,,,,,
,61006e8a4fe954de47730409,001,2022-04-29_04h16.02.606,classification_task,2021.2.3,Win32,60.20832079,61006e8a4fe954de47730409,626b377229c10585ec392f8a,626b3b88d836661cb141158e,,,,,,,,,,,,,,,,,,,,,space,16.4909,l,0,4.1121,"[""0.209"",""0.364"",""0.680"",""0.895""]","[0,1,1,1]",0,0,0,0,1,0,0,,,1,FALSE,,,,,,,,,,,,,,,,,,,,,,,,,,,,,,
,61006e8a4fe954de47730409,001,2022-04-29_04h16.02.606,classification_task,2021.2.3,Win32,60.20832079,61006e8a4fe954de47730409,626b377229c10585ec392f8a,626b3b88d836661cb141158e,,,,,,,,,,,,,,,,,,,,,,,l,1,5.3792,"[""0.069"",""0.120"",""0.580"",""0.743""]","[1,1,0,1]",0,1,1,1,1,1,0,,,1,FALSE,,,,,,,,,,,,,,,,,,,,,,,,,,,,,,
,61006e8a4fe954de47730409,001,2022-04-29_04h16.02.606,classification_task,2021.2.3,Win32,60.20832079,61006e8a4fe954de47730409,626b377229c10585ec392f8a,626b3b88d836661cb141158e,,,,,,,,,,,,,,,,,,,,,,,,0,,"[""0.326"",""0.503"",""0.859"",""0.209""]","[1,1,1,0]",0,2,2,2,1,0,1,,,1,FALSE,,,,,,,,,,,,,,,,,,,,,,,,,,,,,,
,61006e8a4fe954de47730409,001,2022-04-29_04h16.02.606,classification_task,2021.2.3,Win32,60.20832079,61006e8a4fe954de47730409,626b377229c10585ec392f8a,626b3b88d836661cb141158e,,,,,,,,,,,,,,,,,,,,,,,l,1,5.1271,"[""0.177"",""0.120"",""0.540"",""0.743""]","[0,1,1,1]",0,3,3,3,1,1,0,,,1,FALSE,,,,,,,,,,,,,,,,,,,,,,,,,,,,,,
,61006e8a4fe954de47730409,001,2022-04-29_04h16.02.606,classification_task,2021.2.3,Win32,60.20832079,61006e8a4fe954de47730409,626b377229c10585ec392f8a,626b3b88d836661cb141158e,,,,,,,,,,,,,,,,,,,,,,,l,1,4.5115,"[""0.035"",""0.400"",""0.777"",""0.813""]","[1,1,0,1]",0,4,4,4,1,1,1,,,1,FALSE,,,,,,,,,,,,,,,,,,,,,,,,,,,,,,
,61006e8a4fe954de47730409,001,2022-04-29_04h16.02.606,classification_task,2021.2.3,Win32,60.20832079,61006e8a4fe954de47730409,626b377229c10585ec392f8a,626b3b88d836661cb141158e,,,,,,,,,,,,,,,,,,,,,,,l,1,4.4887,"[""0.069"",""0.167"",""0.540"",""0.743""]","[1,0,1,1]",0,5,5,5,1,1,0,,,1,FALSE,,,,,,,,,,,,,,,,,,,,,,,,,,,,,,
,61006e8a4fe954de47730409,001,2022-04-29_04h16.02.606,classification_task,2021.2.3,Win32,60.20832079,61006e8a4fe954de47730409,626b377229c10585ec392f8a,626b3b88d836661cb141158e,,,,,,,,,,,,,,,,,,,,,,,a,1,4.2809,"[""0.326"",""0.777"",""0.859"",""0.929""]","[1,0,1,1]",0,6,6,6,1,0,1,,,1,FALSE,,,,,,,,,,,,,,,,,,,,,,,,,,,,,,
,61006e8a4fe954de47730409,001,2022-04-29_04h16.02.606,classification_task,2021.2.3,Win32,60.20832079,61006e8a4fe954de47730409,626b377229c10585ec392f8a,626b3b88d836661cb141158e,,,,,,,,,,,,,,,,,,,,,,,a,1,2.5806,"[""0.291"",""0.364"",""0.609"",""0.895""]","[1,1,0,1]",0,7,7,7,1,0,0,,,1,FALSE,,,,,,,,,,,,,,,,,,,,,,,,,,,,,,
,61006e8a4fe954de47730409,001,2022-04-29_04h16.02.606,classification_task,2021.2.3,Win32,60.20832079,61006e8a4fe954de47730409,626b377229c10585ec392f8a,626b3b88d836661cb141158e,,,,,,,,,,,,,,,,,,,,,,,l,1,2.6429,"[""0.035"",""0.642"",""0.460"",""0.813""]","[1,0,1,1]",0,8,8,8,1,1,1,,,1,FALSE,,,,,,,,,,,,,,,,,,,,,,,,,,,,,,
,61006e8a4fe954de47730409,001,2022-04-29_04h16.02.606,classification_task,2021.2.3,Win32,60.20832079,61006e8a4fe954de47730409,626b377229c10585ec392f8a,626b3b88d836661cb141158e,,,,,,,,,,,,,,,,,,,,,,,l,0,6.3278,"[""0.291"",""0.185"",""0.680"",""0.895""]","[1,0,1,1]",0,9,9,9,1,0,0,,,1,FALSE,,,,,,,,,,,,,,,,,,,,,,,,,,,,,,
,61006e8a4fe954de47730409,001,2022-04-29_04h16.02.606,classification_task,2021.2.3,Win32,60.20832079,61006e8a4fe954de47730409,626b377229c10585ec392f8a,626b3b88d836661cb141158e,,,,,,,,,,,,,,,,,,,,,,,,0,,"[""0.209"",""0.400"",""0.460"",""0.813""]","[0,1,1,1]",0,10,10,10,1,1,1,,,1,FALSE,,,,,,,,,,,,,,,,,,,,,,,,,,,,,,
,61006e8a4fe954de47730409,001,2022-04-29_04h16.02.606,classification_task,2021.2.3,Win32,60.20832079,61006e8a4fe954de47730409,626b377229c10585ec392f8a,626b3b88d836661cb141158e,,,,,,,,,,,,,,,,,,,,,,,a,1,6.1358,"[""0.598"",""0.503"",""0.859"",""0.929""]","[0,1,1,1]",0,11,11,11,1,0,1,,,1,FALSE,,,,,,,,,,,,,,,,,,,,,,,,,,,,,,
,61006e8a4fe954de47730409,001,2022-04-29_04h16.02.606,classification_task,2021.2.3,Win32,60.20832079,61006e8a4fe954de47730409,626b377229c10585ec392f8a,626b3b88d836661cb141158e,,,,,,,,,,,,,,,,,,,,,,,,0,,"[""0.069"",""0.120"",""0.540"",""0.167""]","[1,1,1,0]",0,12,12,12,1,1,0,,,1,FALSE,,,,,,,,,,,,,,,,,,,,,,,,,,,,,,
,61006e8a4fe954de47730409,001,2022-04-29_04h16.02.606,classification_task,2021.2.3,Win32,60.20832079,61006e8a4fe954de47730409,626b377229c10585ec392f8a,626b3b88d836661cb141158e,,,,,,,,,,,,,,,,,,,,,,,a,1,5.5795,"[""0.326"",""0.503"",""0.609"",""0.929""]","[1,1,0,1]",0,13,13,13,1,0,1,,,1,FALSE,,,,,,,,,,,,,,,,,,,,,,,,,,,,,,
,61006e8a4fe954de47730409,001,2022-04-29_04h16.02.606,classification_task,2021.2.3,Win32,60.20832079,61006e8a4fe954de47730409,626b377229c10585ec392f8a,626b3b88d836661cb141158e,,,,,,,,,,,,,,,,,,,,,,,a,1,2.2942,"[""0.291"",""0.364"",""0.680"",""0.609""]","[1,1,1,0]",0,14,14,14,1,0,0,,,1,FALSE,,,,,,,,,,,,,,,,,,,,,,,,,,,,,,
,61006e8a4fe954de47730409,001,2022-04-29_04h16.02.606,classification_task,2021.2.3,Win32,60.20832079,61006e8a4fe954de47730409,626b377229c10585ec392f8a,626b3b88d836661cb141158e,,,,,,,,,,,,,,,,,,,,,,,l,1,3.7312,"[""0.035"",""0.400"",""0.460"",""0.777""]","[1,1,1,0]",0,15,15,15,1,1,1,,,1,FALSE,,,,,,,,,,,,,,,,,,,,,,,,,,,,,,
,61006e8a4fe954de47730409,001,2022-04-29_04h16.02.606,classification_task,2021.2.3,Win32,60.20832079,61006e8a4fe954de47730409,626b377229c10585ec392f8a,626b3b88d836661cb141158e,,,,,,,,,,,,,,,,,,,,,,,a,1,4.9853,"[""0.291"",""0.364"",""0.633"",""0.895""]","[1,1,0,1]",0,16,16,16,1,0,0,,,1,FALSE,,,,,,,,,,,,,,,,,,,,,,,,,,,,,,
,61006e8a4fe954de47730409,001,2022-04-29_04h16.02.606,classification_task,2021.2.3,Win32,60.20832079,61006e8a4fe954de47730409,626b377229c10585ec392f8a,626b3b88d836661cb141158e,,,,,,,,,,,,,,,,,,,,,,,l,1,2.2533,"[""0.035"",""0.400"",""0.592"",""0.813""]","[1,1,0,1]",0,17,17,17,1,1,1,,,1,FALSE,,,,,,,,,,,,,,,,,,,,,,,,,,,,,,
,61006e8a4fe954de47730409,001,2022-04-29_04h16.02.606,classification_task,2021.2.3,Win32,60.20832079,61006e8a4fe954de47730409,626b377229c10585ec392f8a,626b3b88d836661cb141158e,,,,,,,,,,,,,,,,,,,,,,,a,1,3.6255,"[""0.326"",""0.167"",""0.859"",""0.929""]","[1,0,1,1]",0,18,18,18,1,0,1,,,1,FALSE,,,,,,,,,,,,,,,,,,,,,,,,,,,,,,
,61006e8a4fe954de47730409,001,2022-04-29_04h16.02.606,classification_task,2021.2.3,Win32,60.20832079,61006e8a4fe954de47730409,626b377229c10585ec392f8a,626b3b88d836661cb141158e,,,,,,,,,,,,,,,,,,,,,,,l,1,2.415,"[""0.069"",""0.120"",""0.633"",""0.743""]","[1,1,0,1]",0,19,19,19,1,1,0,,,1,FALSE,,,,,,,,,,,,,,,,,,,,,,,,,,,,,,
,61006e8a4fe954de47730409,001,2022-04-29_04h16.02.606,classification_task,2021.2.3,Win32,60.20832079,61006e8a4fe954de47730409,626b377229c10585ec392f8a,626b3b88d836661cb141158e,,,,,,,,,,,,,,,,,,,,,,,a,1,2.4143,"[""0.326"",""0.503"",""0.170"",""0.929""]","[1,1,0,1]",0,20,20,20,1,0,1,,,1,FALSE,,,,,,,,,,,,,,,,,,,,,,,,,,,,,,
,61006e8a4fe954de47730409,001,2022-04-29_04h16.02.606,classification_task,2021.2.3,Win32,60.20832079,61006e8a4fe954de47730409,626b377229c10585ec392f8a,626b3b88d836661cb141158e,,,,,,,,,,,,,,,,,,,,,,,l,1,2.9089,"[""0.609"",""0.120"",""0.540"",""0.743""]","[0,1,1,1]",0,21,21,21,1,1,0,,,1,FALSE,,,,,,,,,,,,,,,,,,,,,,,,,,,,,,
,61006e8a4fe954de47730409,001,2022-04-29_04h16.02.606,classification_task,2021.2.3,Win32,60.20832079,61006e8a4fe954de47730409,626b377229c10585ec392f8a,626b3b88d836661cb141158e,,,,,,,,,,,,,,,,,,,,,,,l,1,2.7488,"[""0.035"",""0.167"",""0.460"",""0.813""]","[1,0,1,1]",0,22,22,22,1,1,1,,,1,FALSE,,,,,,,,,,,,,,,,,,,,,,,,,,,,,,
,61006e8a4fe954de47730409,001,2022-04-29_04h16.02.606,classification_task,2021.2.3,Win32,60.20832079,61006e8a4fe954de47730409,626b377229c10585ec392f8a,626b3b88d836661cb141158e,,,,,,,,,,,,,,,,,,,,,,,l,0,3.2891,"[""0.291"",""0.167"",""0.680"",""0.895""]","[1,0,1,1]",0,23,23,23,1,0,0,,,1,FALSE,,,,,,,,,,,,,,,,,,,,,,,,,,,,,,
,61006e8a4fe954de47730409,001,2022-04-29_04h16.02.606,classification_task,2021.2.3,Win32,60.20832079,61006e8a4fe954de47730409,626b377229c10585ec392f8a,626b3b88d836661cb141158e,,,,,,,,,,,,,,,,,,,,,,,,0,,"[""0.326"",""0.503"",""0.859"",""0.177""]","[1,1,1,0]",0,24,24,24,1,0,1,,,1,FALSE,,,,,,,,,,,,,,,,,,,,,,,,,,,,,,
,61006e8a4fe954de47730409,001,2022-04-29_04h16.02.606,classification_task,2021.2.3,Win32,60.20832079,61006e8a4fe954de47730409,626b377229c10585ec392f8a,626b3b88d836661cb141158e,,,,,,,,,,,,,,,,,,,,,,,l,1,5.4455,"[""0.195"",""0.400"",""0.460"",""0.813""]","[0,1,1,1]",0,25,25,25,1,1,1,,,1,FALSE,,,,,,,,,,,,,,,,,,,,,,,,,,,,,,
,61006e8a4fe954de47730409,001,2022-04-29_04h16.02.606,classification_task,2021.2.3,Win32,60.20832079,61006e8a4fe954de47730409,626b377229c10585ec392f8a,626b3b88d836661cb141158e,,,,,,,,,,,,,,,,,,,,,,,l,1,2.8995,"[""0.069"",""0.195"",""0.540"",""0.743""]","[1,0,1,1]",0,26,26,26,1,1,0,,,1,FALSE,,,,,,,,,,,,,,,,,,,,,,,,,,,,,,
,61006e8a4fe954de47730409,001,2022-04-29_04h16.02.606,classification_task,2021.2.3,Win32,60.20832079,61006e8a4fe954de47730409,626b377229c10585ec392f8a,626b3b88d836661cb141158e,,,,,,,,,,,,,,,,,,,,,,,l,1,2.1425,"[""0.035"",""0.400"",""0.460"",""0.621""]","[1,1,1,0]",0,27,27,27,1,1,1,,,1,FALSE,,,,,,,,,,,,,,,,,,,,,,,,,,,,,,
,61006e8a4fe954de47730409,001,2022-04-29_04h16.02.606,classification_task,2021.2.3,Win32,60.20832079,61006e8a4fe954de47730409,626b377229c10585ec392f8a,626b3b88d836661cb141158e,,,,,,,,,,,,,,,,,,,,,,,a,1,2.31,"[""0.633"",""0.503"",""0.859"",""0.929""]","[0,1,1,1]",0,28,28,28,1,0,1,,,1,FALSE,,,,,,,,,,,,,,,,,,,,,,,,,,,,,,
,61006e8a4fe954de47730409,001,2022-04-29_04h16.02.606,classification_task,2021.2.3,Win32,60.20832079,61006e8a4fe954de47730409,626b377229c10585ec392f8a,626b3b88d836661cb141158e,,,,,,,,,,,,,,,,,,,,,,,l,1,3.6659,"[""0.069"",""0.120"",""0.540"",""0.167""]","[1,1,1,0]",0,29,29,29,1,1,0,,,1,FALSE,,,,,,,,,,,,,,,,,,,,,,,,,,,,,,
,61006e8a4fe954de47730409,001,2022-04-29_04h16.02.606,classification_task,2021.2.3,Win32,60.20832079,61006e8a4fe954de47730409,626b377229c10585ec392f8a,626b3b88d836661cb141158e,,,,,,,,,,,,,,,,,,,,,,,a,1,3.9805,"[""0.621"",""0.364"",""0.680"",""0.895""]","[0,1,1,1]",0,30,30,30,1,0,0,,,1,FALSE,,,,,,,,,,,,,,,,,,,,,,,,,,,,,,
,61006e8a4fe954de47730409,001,2022-04-29_04h16.02.606,classification_task,2021.2.3,Win32,60.20832079,61006e8a4fe954de47730409,626b377229c10585ec392f8a,626b3b88d836661cb141158e,,,,,,,,,,,,,,,,,,,,,,,a,1,2.1915,"[""0.291"",""0.364"",""0.680"",""0.633""]","[1,1,1,0]",0,31,31,31,1,0,0,,,1,FALSE,,,,,,,,,,,,,,,,,,,,,,,,,,,,,,
,61006e8a4fe954de47730409,001,2022-04-29_04h16.02.606,classification_task,2021.2.3,Win32,60.20832079,61006e8a4fe954de47730409,626b377229c10585ec392f8a,626b3b88d836661cb141158e,,,,,,,,,,,,,,,,,,,,,,,l,1,3.5431,"[""0.069"",""0.120"",""0.540"",""0.580""]","[1,1,1,0]",0,32,32,32,1,1,0,,,1,FALSE,,,,,,,,,,,,,,,,,,,,,,,,,,,,,,
,61006e8a4fe954de47730409,001,2022-04-29_04h16.02.606,classification_task,2021.2.3,Win32,60.20832079,61006e8a4fe954de47730409,626b377229c10585ec392f8a,626b3b88d836661cb141158e,,,,,,,,,,,,,,,,,,,,,,,a,1,1.568,"[""0.326"",""0.503"",""0.859"",""0.189""]","[1,1,1,0]",0,33,33,33,1,0,1,,,1,FALSE,,,,,,,,,,,,,,,,,,,,,,,,,,,,,,
,61006e8a4fe954de47730409,001,2022-04-29_04h16.02.606,classification_task,2021.2.3,Win32,60.20832079,61006e8a4fe954de47730409,626b377229c10585ec392f8a,626b3b88d836661cb141158e,,,,,,,,,,,,,,,,,,,,,,,l,0,2.8104,"[""0.170"",""0.503"",""0.859"",""0.929""]","[0,1,1,1]",0,34,34,34,1,0,1,,,1,FALSE,,,,,,,,,,,,,,,,,,,,,,,,,,,,,,
,61006e8a4fe954de47730409,001,2022-04-29_04h16.02.606,classification_task,2021.2.3,Win32,60.20832079,61006e8a4fe954de47730409,626b377229c10585ec392f8a,626b3b88d836661cb141158e,,,,,,,,,,,,,,,,,,,,,,,l,1,1.7899,"[""0.035"",""0.400"",""0.580"",""0.813""]","[1,1,0,1]",0,35,35,35,1,1,1,,,1,FALSE,,,,,,,,,,,,,,,,,,,,,,,,,,,,,,
,61006e8a4fe954de47730409,001,2022-04-29_04h16.02.606,classification_task,2021.2.3,Win32,60.20832079,61006e8a4fe954de47730409,626b377229c10585ec392f8a,626b3b88d836661cb141158e,,,,,,,,,,,,,,,,,,,,,,,a,0,1.2899,"[""0.170"",""0.120"",""0.540"",""0.743""]","[0,1,1,1]",0,36,36,36,1,1,0,,,1,FALSE,,,,,,,,,,,,,,,,,,,,,,,,,,,,,,
,61006e8a4fe954de47730409,001,2022-04-29_04h16.02.606,classification_task,2021.2.3,Win32,60.20832079,61006e8a4fe954de47730409,626b377229c10585ec392f8a,626b3b88d836661cb141158e,,,,,,,,,,,,,,,,,,,,,,,l,1,2.9525,"[""0.069"",""0.120"",""0.609"",""0.743""]","[1,1,0,1]",0,37,37,37,1,1,0,,,1,FALSE,,,,,,,,,,,,,,,,,,,,,,,,,,,,,,
,61006e8a4fe954de47730409,001,2022-04-29_04h16.02.606,classification_task,2021.2.3,Win32,60.20832079,61006e8a4fe954de47730409,626b377229c10585ec392f8a,626b3b88d836661cb141158e,,,,,,,,,,,,,,,,,,,,,,,a,1,1.9362,"[""0.291"",""0.364"",""0.680"",""0.598""]","[1,1,1,0]",0,38,38,38,1,0,0,,,1,FALSE,,,,,,,,,,,,,,,,,,,,,,,,,,,,,,
,61006e8a4fe954de47730409,001,2022-04-29_04h16.02.606,classification_task,2021.2.3,Win32,60.20832079,61006e8a4fe954de47730409,626b377229c10585ec392f8a,626b3b88d836661cb141158e,,,,,,,,,,,,,,,,,,,,,,,l,0,2.2749,"[""0.326"",""0.185"",""0.859"",""0.929""]","[1,0,1,1]",0,39,39,39,1,0,1,,,1,FALSE,,,,,,,,,,,,,,,,,,,,,,,,,,,,,,
,61006e8a4fe954de47730409,001,2022-04-29_04h16.02.606,classification_task,2021.2.3,Win32,60.20832079,61006e8a4fe954de47730409,626b377229c10585ec392f8a,626b3b88d836661cb141158e,,,,,,,,,,,,,,,,,,,,,,,a,1,3.3562,"[""0.291"",""0.364"",""0.598"",""0.895""]","[1,1,0,1]",0,40,40,40,1,0,0,,,1,FALSE,,,,,,,,,,,,,,,,,,,,,,,,,,,,,,
,61006e8a4fe954de47730409,001,2022-04-29_04h16.02.606,classification_task,2021.2.3,Win32,60.20832079,61006e8a4fe954de47730409,626b377229c10585ec392f8a,626b3b88d836661cb141158e,,,,,,,,,,,,,,,,,,,,,,,l,1,1.6156,"[""0.069"",""0.592"",""0.540"",""0.743""]","[1,0,1,1]",0,41,41,41,1,1,0,,,1,FALSE,,,,,,,,,,,,,,,,,,,,,,,,,,,,,,
,61006e8a4fe954de47730409,001,2022-04-29_04h16.02.606,classification_task,2021.2.3,Win32,60.20832079,61006e8a4fe954de47730409,626b377229c10585ec392f8a,626b3b88d836661cb141158e,,,,,,,,,,,,,,,,,,,,,,,a,0,4.9606,"[""0.609"",""0.400"",""0.460"",""0.813""]","[0,1,1,1]",0,42,42,42,1,1,1,,,1,FALSE,,,,,,,,,,,,,,,,,,,,,,,,,,,,,,
,61006e8a4fe954de47730409,001,2022-04-29_04h16.02.606,classification_task,2021.2.3,Win32,60.20832079,61006e8a4fe954de47730409,626b377229c10585ec392f8a,626b3b88d836661cb141158e,,,,,,,,,,,,,,,,,,,,,,,a,1,5.3465,"[""0.326"",""0.503"",""0.592"",""0.929""]","[1,1,0,1]",0,43,43,43,1,0,1,,,1,FALSE,,,,,,,,,,,,,,,,,,,,,,,,,,,,,,
,61006e8a4fe954de47730409,001,2022-04-29_04h16.02.606,classification_task,2021.2.3,Win32,60.20832079,61006e8a4fe954de47730409,626b377229c10585ec392f8a,626b3b88d836661cb141158e,,,,,,,,,,,,,,,,,,,,,,,a,1,1.6696,"[""0.291"",""0.598"",""0.680"",""0.895""]","[1,0,1,1]",0,44,44,44,1,0,0,,,1,FALSE,,,,,,,,,,,,,,,,,,,,,,,,,,,,,,
,61006e8a4fe954de47730409,001,2022-04-29_04h16.02.606,classification_task,2021.2.3,Win32,60.20832079,61006e8a4fe954de47730409,626b377229c10585ec392f8a,626b3b88d836661cb141158e,,,,,,,,,,,,,,,,,,,,,,,a,0,3.3478,"[""0.035"",""0.633"",""0.460"",""0.813""]","[1,0,1,1]",0,45,45,45,1,1,1,,,1,FALSE,,,,,,,,,,,,,,,,,,,,,,,,,,,,,,
,61006e8a4fe954de47730409,001,2022-04-29_04h16.02.606,classification_task,2021.2.3,Win32,60.20832079,61006e8a4fe954de47730409,626b377229c10585ec392f8a,626b3b88d836661cb141158e,,,,,,,,,,,,,,,,,,,,,,,l,1,3.786,"[""0.035"",""0.400"",""0.460"",""0.633""]","[1,1,1,0]",0,46,46,46,1,1,1,,,1,FALSE,,,,,,,,,,,,,,,,,,,,,,,,,,,,,,
,61006e8a4fe954de47730409,001,2022-04-29_04h16.02.606,classification_task,2021.2.3,Win32,60.20832079,61006e8a4fe954de47730409,626b377229c10585ec392f8a,626b3b88d836661cb141158e,,,,,,,,,,,,,,,,,,,,,,,l,0,1.5073,"[""0.975"",""0.364"",""0.680"",""0.895""]","[0,1,1,1]",0,47,47,47,1,0,0,,,1,FALSE,,,,,,,,,,,,,,,,,,,,,,,,,,,,,,
,61006e8a4fe954de47730409,001,2022-04-29_04h16.02.606,classification_task,2021.2.3,Win32,60.20832079,61006e8a4fe954de47730409,626b377229c10585ec392f8a,626b3b88d836661cb141158e,,,,,,,,,,,,,,,,,,,,,,,a,1,1.4075,"[""0.326"",""0.503"",""0.195"",""0.929""]","[1,1,0,1]",0,48,48,48,1,0,1,,,1,FALSE,,,,,,,,,,,,,,,,,,,,,,,,,,,,,,
,61006e8a4fe954de47730409,001,2022-04-29_04h16.02.606,classification_task,2021.2.3,Win32,60.20832079,61006e8a4fe954de47730409,626b377229c10585ec392f8a,626b3b88d836661cb141158e,,,,,,,,,,,,,,,,,,,,,,,a,1,2.3144,"[""0.291"",""0.189"",""0.680"",""0.895""]","[1,0,1,1]",0,49,49,49,1,0,0,,,1,FALSE,,,,,,,,,,,,,,,,,,,,,,,,,,,,,,
,61006e8a4fe954de47730409,001,2022-04-29_04h16.02.606,classification_task,2021.2.3,Win32,60.20832079,61006e8a4fe954de47730409,626b377229c10585ec392f8a,626b3b88d836661cb141158e,,,,,,,,,,,,,,,,,,,,,,,l,0,1.2415,"[""0.291"",""0.364"",""0.680"",""0.167""]","[1,1,1,0]",0,50,50,50,1,0,0,,,1,FALSE,,,,,,,,,,,,,,,,,,,,,,,,,,,,,,
,61006e8a4fe954de47730409,001,2022-04-29_04h16.02.606,classification_task,2021.2.3,Win32,60.20832079,61006e8a4fe954de47730409,626b377229c10585ec392f8a,626b3b88d836661cb141158e,,,,,,,,,,,,,,,,,,,,,,,l,1,3.061,"[""0.642"",""0.120"",""0.540"",""0.743""]","[0,1,1,1]",0,51,51,51,1,1,0,,,1,FALSE,,,,,,,,,,,,,,,,,,,,,,,,,,,,,,
,61006e8a4fe954de47730409,001,2022-04-29_04h16.02.606,classification_task,2021.2.3,Win32,60.20832079,61006e8a4fe954de47730409,626b377229c10585ec392f8a,626b3b88d836661cb141158e,,,,,,,,,,,,,,,,,,,,,,,a,1,2.2612,"[""0.642"",""0.364"",""0.680"",""0.895""]","[0,1,1,1]",0,52,52,52,1,0,0,,,1,FALSE,,,,,,,,,,,,,,,,,,,,,,,,,,,,,,
,61006e8a4fe954de47730409,001,2022-04-29_04h16.02.606,classification_task,2021.2.3,Win32,60.20832079,61006e8a4fe954de47730409,626b377229c10585ec392f8a,626b3b88d836661cb141158e,,,,,,,,,,,,,,,,,,,,,,,l,1,3.236,"[""0.035"",""0.400"",""0.460"",""0.580""]","[1,1,1,0]",0,53,53,53,1,1,1,,,1,FALSE,,,,,,,,,,,,,,,,,,,,,,,,,,,,,,
,61006e8a4fe954de47730409,001,2022-04-29_04h16.02.606,classification_task,2021.2.3,Win32,60.20832079,61006e8a4fe954de47730409,626b377229c10585ec392f8a,626b3b88d836661cb141158e,,,,,,,,,,,,,,,,,,,,,,,a,1,1.6751,"[""0.326"",""0.503"",""0.859"",""0.592""]","[1,1,1,0]",0,54,54,54,1,0,1,,,1,FALSE,,,,,,,,,,,,,,,,,,,,,,,,,,,,,,
,61006e8a4fe954de47730409,001,2022-04-29_04h16.02.606,classification_task,2021.2.3,Win32,60.20832079,61006e8a4fe954de47730409,626b377229c10585ec392f8a,626b3b88d836661cb141158e,,,,,,,,,,,,,,,,,,,,,,,a,0,3.714,"[""0.069"",""0.777"",""0.540"",""0.743""]","[1,0,1,1]",0,55,55,55,1,1,0,,,1,FALSE,,,,,,,,,,,,,,,,,,,,,,,,,,,,,,
,61006e8a4fe954de47730409,001,2022-04-29_04h16.02.606,classification_task,2021.2.3,Win32,60.20832079,61006e8a4fe954de47730409,626b377229c10585ec392f8a,626b3b88d836661cb141158e,,,,,,,,,,,,,,,,,,,,,,,l,1,2.9772,"[""0.069"",""0.120"",""0.540"",""0.975""]","[1,1,1,0]",0,56,56,56,1,1,0,,,1,FALSE,,,,,,,,,,,,,,,,,,,,,,,,,,,,,,
,61006e8a4fe954de47730409,001,2022-04-29_04h16.02.606,classification_task,2021.2.3,Win32,60.20832079,61006e8a4fe954de47730409,626b377229c10585ec392f8a,626b3b88d836661cb141158e,,,,,,,,,,,,,,,,,,,,,,,l,1,1.7894,"[""0.035"",""0.400"",""0.598"",""0.813""]","[1,1,0,1]",0,57,57,57,1,1,1,,,1,FALSE,,,,,,,,,,,,,,,,,,,,,,,,,,,,,,
,61006e8a4fe954de47730409,001,2022-04-29_04h16.02.606,classification_task,2021.2.3,Win32,60.20832079,61006e8a4fe954de47730409,626b377229c10585ec392f8a,626b3b88d836661cb141158e,,,,,,,,,,,,,,,,,,,,,,,a,0,2.4281,"[""0.177"",""0.400"",""0.460"",""0.813""]","[0,1,1,1]",0,58,58,58,1,1,1,,,1,FALSE,,,,,,,,,,,,,,,,,,,,,,,,,,,,,,
,61006e8a4fe954de47730409,001,2022-04-29_04h16.02.606,classification_task,2021.2.3,Win32,60.20832079,61006e8a4fe954de47730409,626b377229c10585ec392f8a,626b3b88d836661cb141158e,,,,,,,,,,,,,,,,,,,,,,,a,1,2.9055,"[""0.291"",""0.364"",""0.170"",""0.895""]","[1,1,0,1]",0,59,59,59,1,0,0,,,1,FALSE,,,,,,,,,,,,,,,,,,,,,,,,,,,,,,
,61006e8a4fe954de47730409,001,2022-04-29_04h16.02.606,classification_task,2021.2.3,Win32,60.20832079,61006e8a4fe954de47730409,626b377229c10585ec392f8a,626b3b88d836661cb141158e,,,,,,,,,,,,,,,,,,,,,,,a,1,1.4123,"[""0.326"",""0.598"",""0.859"",""0.929""]","[1,0,1,1]",0,60,60,60,1,0,1,,,1,FALSE,,,,,,,,,,,,,,,,,,,,,,,,,,,,,,
,61006e8a4fe954de47730409,001,2022-04-29_04h16.02.606,classification_task,2021.2.3,Win32,60.20832079,61006e8a4fe954de47730409,626b377229c10585ec392f8a,626b3b88d836661cb141158e,,,,,,,,,,,,,,,,,,,,,,,a,1,3.3471,"[""0.621"",""0.503"",""0.859"",""0.929""]","[0,1,1,1]",0,61,61,61,1,0,1,,,1,FALSE,,,,,,,,,,,,,,,,,,,,,,,,,,,,,,
,61006e8a4fe954de47730409,001,2022-04-29_04h16.02.606,classification_task,2021.2.3,Win32,60.20832079,61006e8a4fe954de47730409,626b377229c10585ec392f8a,626b3b88d836661cb141158e,,,,,,,,,,,,,,,,,,,,,,,l,1,1.6204,"[""0.035"",""0.975"",""0.460"",""0.813""]","[1,0,1,1]",0,62,62,62,1,1,1,,,1,FALSE,,,,,,,,,,,,,,,,,,,,,,,,,,,,,,
,61006e8a4fe954de47730409,001,2022-04-29_04h16.02.606,classification_task,2021.2.3,Win32,60.20832079,61006e8a4fe954de47730409,626b377229c10585ec392f8a,626b3b88d836661cb141158e,,,,,,,,,,,,,,,,,,,,,,,l,1,1.2384,"[""0.069"",""0.120"",""0.195"",""0.743""]","[1,1,0,1]",0,63,63,63,1,1,0,,,1,FALSE,,,,,,,,,,,,,,,,,,,,,,,,,,,,,,
,61006e8a4fe954de47730409,001,2022-04-29_04h16.02.606,classification_task,2021.2.3,Win32,60.20832079,61006e8a4fe954de47730409,626b377229c10585ec392f8a,626b3b88d836661cb141158e,,,,,,,,,,,,,,,,,,,,,,,,,,,,,,,,,,,,,,,0, ,,0,0.968757874,488.951,0,0,0,0,1,2,1,,,,,,,,,,,,,,,,,
,61006e8a4fe954de47730409,001,2022-04-29_04h16.02.606,classification_task,2021.2.3,Win32,60.20832079,61006e8a4fe954de47730409,626b377229c10585ec392f8a,626b3b88d836661cb141158e,,,,,,,,,,,,,,,,,,,,,,,,,,,,,,,,,,,,,,,1,  ,,0,2.556059461,476.2471,0,0,0,0,1,2,1,,,,,,,,,,,,,,,,,
,61006e8a4fe954de47730409,001,2022-04-29_04h16.02.606,classification_task,2021.2.3,Win32,60.20832079,61006e8a4fe954de47730409,626b377229c10585ec392f8a,626b3b88d836661cb141158e,,,,,,,,,,,,,,,,,,,,,,,,,,,,,,,,,,,,,,,2,  ,,0,6.184177375,482.7248,0,0,0,0,1,2,1,,,,,,,,,,,,,,,,,
,61006e8a4fe954de47730409,001,2022-04-29_04h16.02.606,classification_task,2021.2.3,Win32,60.20832079,61006e8a4fe954de47730409,626b377229c10585ec392f8a,626b3b88d836661cb141158e,,,,,,,,,,,,,,,,,,,,,,,,,,,,,,,,,,,,,,,,,,,,,0,0,0,0,1,,1,,,,,,,,,,,,,,,,,
,61006e8a4fe954de47730409,001,2022-04-29_04h16.02.606,classification_task,2021.2.3,Win32,60.20832079,61006e8a4fe954de47730409,626b377229c10585ec392f8a,626b3b88d836661cb141158e,,,,,,,,,,,,,,,,,,,,,space,10.5085,l,0,4.4424,"[""0.291"",""0.642"",""0.680"",""0.895""]","[1,0,1,1]",0,0,0,0,1,0,0,,,1,FALSE,,,,,,,,,,,,,,,,,,,,,,,,,,,,,,
,61006e8a4fe954de47730409,001,2022-04-29_04h16.02.606,classification_task,2021.2.3,Win32,60.20832079,61006e8a4fe954de47730409,626b377229c10585ec392f8a,626b3b88d836661cb141158e,,,,,,,,,,,,,,,,,,,,,,,l,1,2.2477,"[""0.069"",""0.120"",""0.540"",""0.185""]","[1,1,1,0]",0,1,1,1,1,1,0,,,1,FALSE,,,,,,,,,,,,,,,,,,,,,,,,,,,,,,
,61006e8a4fe954de47730409,001,2022-04-29_04h16.02.606,classification_task,2021.2.3,Win32,60.20832079,61006e8a4fe954de47730409,626b377229c10585ec392f8a,626b3b88d836661cb141158e,,,,,,,,,,,,,,,,,,,,,,,l,0,4.6637,"[""0.291"",""0.364"",""0.185"",""0.895""]","[1,1,0,1]",0,2,2,2,1,0,0,,,1,FALSE,,,,,,,,,,,,,,,,,,,,,,,,,,,,,,
,61006e8a4fe954de47730409,001,2022-04-29_04h16.02.606,classification_task,2021.2.3,Win32,60.20832079,61006e8a4fe954de47730409,626b377229c10585ec392f8a,626b3b88d836661cb141158e,,,,,,,,,,,,,,,,,,,,,,,l,1,1.4315,"[""0.069"",""0.177"",""0.540"",""0.743""]","[1,0,1,1]",0,3,3,3,1,1,0,,,1,FALSE,,,,,,,,,,,,,,,,,,,,,,,,,,,,,,
,61006e8a4fe954de47730409,001,2022-04-29_04h16.02.606,classification_task,2021.2.3,Win32,60.20832079,61006e8a4fe954de47730409,626b377229c10585ec392f8a,626b3b88d836661cb141158e,,,,,,,,,,,,,,,,,,,,,,,l,1,2.4665,"[""0.069"",""0.120"",""0.642"",""0.743""]","[1,1,0,1]",0,4,4,4,1,1,0,,,1,FALSE,,,,,,,,,,,,,,,,,,,,,,,,,,,,,,
,61006e8a4fe954de47730409,001,2022-04-29_04h16.02.606,classification_task,2021.2.3,Win32,60.20832079,61006e8a4fe954de47730409,626b377229c10585ec392f8a,626b3b88d836661cb141158e,,,,,,,,,,,,,,,,,,,,,,,l,1,3.8773,"[""0.035"",""0.400"",""0.460"",""0.170""]","[1,1,1,0]",0,5,5,5,1,1,1,,,1,FALSE,,,,,,,,,,,,,,,,,,,,,,,,,,,,,,
,61006e8a4fe954de47730409,001,2022-04-29_04h16.02.606,classification_task,2021.2.3,Win32,60.20832079,61006e8a4fe954de47730409,626b377229c10585ec392f8a,626b3b88d836661cb141158e,,,,,,,,,,,,,,,,,,,,,,,a,1,0.8957,"[""0.326"",""0.503"",""0.609"",""0.929""]","[1,1,0,1]",0,6,6,6,1,0,1,,,1,FALSE,,,,,,,,,,,,,,,,,,,,,,,,,,,,,,
,61006e8a4fe954de47730409,001,2022-04-29_04h16.02.606,classification_task,2021.2.3,Win32,60.20832079,61006e8a4fe954de47730409,626b377229c10585ec392f8a,626b3b88d836661cb141158e,,,,,,,,,,,,,,,,,,,,,,,a,1,1.0535,"[""0.326"",""0.189"",""0.859"",""0.929""]","[1,0,1,1]",0,7,7,7,1,0,1,,,1,FALSE,,,,,,,,,,,,,,,,,,,,,,,,,,,,,,
,61006e8a4fe954de47730409,001,2022-04-29_04h16.02.606,classification_task,2021.2.3,Win32,60.20832079,61006e8a4fe954de47730409,626b377229c10585ec392f8a,626b3b88d836661cb141158e,,,,,,,,,,,,,,,,,,,,,,,l,0,6.8426,"[""0.598"",""0.364"",""0.680"",""0.895""]","[0,1,1,1]",0,8,8,8,1,0,0,,,1,FALSE,,,,,,,,,,,,,,,,,,,,,,,,,,,,,,
,61006e8a4fe954de47730409,001,2022-04-29_04h16.02.606,classification_task,2021.2.3,Win32,60.20832079,61006e8a4fe954de47730409,626b377229c10585ec392f8a,626b3b88d836661cb141158e,,,,,,,,,,,,,,,,,,,,,,,a,1,1.2821,"[""0.177"",""0.503"",""0.859"",""0.929""]","[0,1,1,1]",0,9,9,9,1,0,1,,,1,FALSE,,,,,,,,,,,,,,,,,,,,,,,,,,,,,,
,61006e8a4fe954de47730409,001,2022-04-29_04h16.02.606,classification_task,2021.2.3,Win32,60.20832079,61006e8a4fe954de47730409,626b377229c10585ec392f8a,626b3b88d836661cb141158e,,,,,,,,,,,,,,,,,,,,,,,a,1,2.8753,"[""0.326"",""0.503"",""0.859"",""0.167""]","[1,1,1,0]",0,10,10,10,1,0,1,,,1,FALSE,,,,,,,,,,,,,,,,,,,,,,,,,,,,,,
,61006e8a4fe954de47730409,001,2022-04-29_04h16.02.606,classification_task,2021.2.3,Win32,60.20832079,61006e8a4fe954de47730409,626b377229c10585ec392f8a,626b3b88d836661cb141158e,,,,,,,,,,,,,,,,,,,,,,,l,1,2.7513,"[""0.642"",""0.120"",""0.540"",""0.743""]","[0,1,1,1]",0,11,11,11,1,1,0,,,1,FALSE,,,,,,,,,,,,,,,,,,,,,,,,,,,,,,
,61006e8a4fe954de47730409,001,2022-04-29_04h16.02.606,classification_task,2021.2.3,Win32,60.20832079,61006e8a4fe954de47730409,626b377229c10585ec392f8a,626b3b88d836661cb141158e,,,,,,,,,,,,,,,,,,,,,,,l,1,1.4954,"[""0.035"",""0.400"",""0.621"",""0.813""]","[1,1,0,1]",0,12,12,12,1,1,1,,,1,FALSE,,,,,,,,,,,,,,,,,,,,,,,,,,,,,,
,61006e8a4fe954de47730409,001,2022-04-29_04h16.02.606,classification_task,2021.2.3,Win32,60.20832079,61006e8a4fe954de47730409,626b377229c10585ec392f8a,626b3b88d836661cb141158e,,,,,,,,,,,,,,,,,,,,,,,l,1,1.1633,"[""0.185"",""0.400"",""0.460"",""0.813""]","[0,1,1,1]",0,13,13,13,1,1,1,,,1,FALSE,,,,,,,,,,,,,,,,,,,,,,,,,,,,,,
,61006e8a4fe954de47730409,001,2022-04-29_04h16.02.606,classification_task,2021.2.3,Win32,60.20832079,61006e8a4fe954de47730409,626b377229c10585ec392f8a,626b3b88d836661cb141158e,,,,,,,,,,,,,,,,,,,,,,,a,1,2.2495,"[""0.291"",""0.364"",""0.680"",""0.167""]","[1,1,1,0]",0,14,14,14,1,0,0,,,1,FALSE,,,,,,,,,,,,,,,,,,,,,,,,,,,,,,
,61006e8a4fe954de47730409,001,2022-04-29_04h16.02.606,classification_task,2021.2.3,Win32,60.20832079,61006e8a4fe954de47730409,626b377229c10585ec392f8a,626b3b88d836661cb141158e,,,,,,,,,,,,,,,,,,,,,,,l,1,1.608,"[""0.035"",""0.621"",""0.460"",""0.813""]","[1,0,1,1]",0,15,15,15,1,1,1,,,1,FALSE,,,,,,,,,,,,,,,,,,,,,,,,,,,,,,
,61006e8a4fe954de47730409,001,2022-04-29_04h16.02.606,classification_task,2021.2.3,Win32,60.20832079,61006e8a4fe954de47730409,626b377229c10585ec392f8a,626b3b88d836661cb141158e,,,,,,,,,,,,,,,,,,,,,,,a,1,1.2163,"[""0.326"",""0.209"",""0.859"",""0.929""]","[1,0,1,1]",0,16,16,16,1,0,1,,,1,FALSE,,,,,,,,,,,,,,,,,,,,,,,,,,,,,,
,61006e8a4fe954de47730409,001,2022-04-29_04h16.02.606,classification_task,2021.2.3,Win32,60.20832079,61006e8a4fe954de47730409,626b377229c10585ec392f8a,626b3b88d836661cb141158e,,,,,,,,,,,,,,,,,,,,,,,l,0,2.7434,"[""0.291"",""0.364"",""0.170"",""0.895""]","[1,1,0,1]",0,17,17,17,1,0,0,,,1,FALSE,,,,,,,,,,,,,,,,,,,,,,,,,,,,,,
,61006e8a4fe954de47730409,001,2022-04-29_04h16.02.606,classification_task,2021.2.3,Win32,60.20832079,61006e8a4fe954de47730409,626b377229c10585ec392f8a,626b3b88d836661cb141158e,,,,,,,,,,,,,,,,,,,,,,,a,1,1.0008,"[""0.326"",""0.503"",""0.195"",""0.929""]","[1,1,0,1]",0,18,18,18,1,0,1,,,1,FALSE,,,,,,,,,,,,,,,,,,,,,,,,,,,,,,
,61006e8a4fe954de47730409,001,2022-04-29_04h16.02.606,classification_task,2021.2.3,Win32,60.20832079,61006e8a4fe954de47730409,626b377229c10585ec392f8a,626b3b88d836661cb141158e,,,,,,,,,,,,,,,,,,,,,,,a,1,1.6504,"[""0.592"",""0.364"",""0.680"",""0.895""]","[0,1,1,1]",0,19,19,19,1,0,0,,,1,FALSE,,,,,,,,,,,,,,,,,,,,,,,,,,,,,,
,61006e8a4fe954de47730409,001,2022-04-29_04h16.02.606,classification_task,2021.2.3,Win32,60.20832079,61006e8a4fe954de47730409,626b377229c10585ec392f8a,626b3b88d836661cb141158e,,,,,,,,,,,,,,,,,,,,,,,l,1,1.6606,"[""0.035"",""0.592"",""0.460"",""0.813""]","[1,0,1,1]",0,20,20,20,1,1,1,,,1,FALSE,,,,,,,,,,,,,,,,,,,,,,,,,,,,,,
,61006e8a4fe954de47730409,001,2022-04-29_04h16.02.606,classification_task,2021.2.3,Win32,60.20832079,61006e8a4fe954de47730409,626b377229c10585ec392f8a,626b3b88d836661cb141158e,,,,,,,,,,,,,,,,,,,,,,,l,1,0.7824,"[""0.035"",""0.400"",""0.460"",""0.642""]","[1,1,1,0]",0,21,21,21,1,1,1,,,1,FALSE,,,,,,,,,,,,,,,,,,,,,,,,,,,,,,
,61006e8a4fe954de47730409,001,2022-04-29_04h16.02.606,classification_task,2021.2.3,Win32,60.20832079,61006e8a4fe954de47730409,626b377229c10585ec392f8a,626b3b88d836661cb141158e,,,,,,,,,,,,,,,,,,,,,,,l,1,3.9883,"[""0.035"",""0.400"",""0.621"",""0.813""]","[1,1,0,1]",0,22,22,22,1,1,1,,,1,FALSE,,,,,,,,,,,,,,,,,,,,,,,,,,,,,,
,61006e8a4fe954de47730409,001,2022-04-29_04h16.02.606,classification_task,2021.2.3,Win32,60.20832079,61006e8a4fe954de47730409,626b377229c10585ec392f8a,626b3b88d836661cb141158e,,,,,,,,,,,,,,,,,,,,,,,a,1,0.7225,"[""0.326"",""0.503"",""0.859"",""0.170""]","[1,1,1,0]",0,23,23,23,1,0,1,,,1,FALSE,,,,,,,,,,,,,,,,,,,,,,,,,,,,,,
,61006e8a4fe954de47730409,001,2022-04-29_04h16.02.606,classification_task,2021.2.3,Win32,60.20832079,61006e8a4fe954de47730409,626b377229c10585ec392f8a,626b3b88d836661cb141158e,,,,,,,,,,,,,,,,,,,,,,,a,1,0.7836,"[""0.633"",""0.503"",""0.859"",""0.929""]","[0,1,1,1]",0,24,24,24,1,0,1,,,1,FALSE,,,,,,,,,,,,,,,,,,,,,,,,,,,,,,
,61006e8a4fe954de47730409,001,2022-04-29_04h16.02.606,classification_task,2021.2.3,Win32,60.20832079,61006e8a4fe954de47730409,626b377229c10585ec392f8a,626b3b88d836661cb141158e,,,,,,,,,,,,,,,,,,,,,,,l,1,1.3772,"[""0.167"",""0.120"",""0.540"",""0.743""]","[0,1,1,1]",0,25,25,25,1,1,0,,,1,FALSE,,,,,,,,,,,,,,,,,,,,,,,,,,,,,,
,61006e8a4fe954de47730409,001,2022-04-29_04h16.02.606,classification_task,2021.2.3,Win32,60.20832079,61006e8a4fe954de47730409,626b377229c10585ec392f8a,626b3b88d836661cb141158e,,,,,,,,,,,,,,,,,,,,,,,l,1,2.1845,"[""0.621"",""0.400"",""0.460"",""0.813""]","[0,1,1,1]",0,26,26,26,1,1,1,,,1,FALSE,,,,,,,,,,,,,,,,,,,,,,,,,,,,,,
,61006e8a4fe954de47730409,001,2022-04-29_04h16.02.606,classification_task,2021.2.3,Win32,60.20832079,61006e8a4fe954de47730409,626b377229c10585ec392f8a,626b3b88d836661cb141158e,,,,,,,,,,,,,,,,,,,,,,,a,1,2.2342,"[""0.291"",""0.598"",""0.680"",""0.895""]","[1,0,1,1]",0,27,27,27,1,0,0,,,1,FALSE,,,,,,,,,,,,,,,,,,,,,,,,,,,,,,
,61006e8a4fe954de47730409,001,2022-04-29_04h16.02.606,classification_task,2021.2.3,Win32,60.20832079,61006e8a4fe954de47730409,626b377229c10585ec392f8a,626b3b88d836661cb141158e,,,,,,,,,,,,,,,,,,,,,,,l,1,1.4698,"[""0.069"",""0.120"",""0.540"",""0.185""]","[1,1,1,0]",0,28,28,28,1,1,0,,,1,FALSE,,,,,,,,,,,,,,,,,,,,,,,,,,,,,,
,61006e8a4fe954de47730409,001,2022-04-29_04h16.02.606,classification_task,2021.2.3,Win32,60.20832079,61006e8a4fe954de47730409,626b377229c10585ec392f8a,626b3b88d836661cb141158e,,,,,,,,,,,,,,,,,,,,,,,a,0,1.5371,"[""0.069"",""0.580"",""0.540"",""0.743""]","[1,0,1,1]",0,29,29,29,1,1,0,,,1,FALSE,,,,,,,,,,,,,,,,,,,,,,,,,,,,,,
,61006e8a4fe954de47730409,001,2022-04-29_04h16.02.606,classification_task,2021.2.3,Win32,60.20832079,61006e8a4fe954de47730409,626b377229c10585ec392f8a,626b3b88d836661cb141158e,,,,,,,,,,,,,,,,,,,,,,,l,1,1.2536,"[""0.069"",""0.120"",""0.170"",""0.743""]","[1,1,0,1]",0,30,30,30,1,1,0,,,1,FALSE,,,,,,,,,,,,,,,,,,,,,,,,,,,,,,
,61006e8a4fe954de47730409,001,2022-04-29_04h16.02.606,classification_task,2021.2.3,Win32,60.20832079,61006e8a4fe954de47730409,626b377229c10585ec392f8a,626b3b88d836661cb141158e,,,,,,,,,,,,,,,,,,,,,,,l,0,1.2567,"[""0.291"",""0.364"",""0.680"",""0.209""]","[1,1,1,0]",0,31,31,31,1,0,0,,,1,FALSE,,,,,,,,,,,,,,,,,,,,,,,,,,,,,,
,61006e8a4fe954de47730409,001,2022-04-29_04h16.02.606,classification_task,2021.2.3,Win32,60.20832079,61006e8a4fe954de47730409,626b377229c10585ec392f8a,626b3b88d836661cb141158e,,,,,,,,,,,,,,,,,,,,,,,a,1,1.6945,"[""0.195"",""0.364"",""0.680"",""0.895""]","[0,1,1,1]",0,32,32,32,1,0,0,,,1,FALSE,,,,,,,,,,,,,,,,,,,,,,,,,,,,,,
,61006e8a4fe954de47730409,001,2022-04-29_04h16.02.606,classification_task,2021.2.3,Win32,60.20832079,61006e8a4fe954de47730409,626b377229c10585ec392f8a,626b3b88d836661cb141158e,,,,,,,,,,,,,,,,,,,,,,,l,1,1.4847,"[""0.580"",""0.400"",""0.460"",""0.813""]","[0,1,1,1]",0,33,33,33,1,1,1,,,1,FALSE,,,,,,,,,,,,,,,,,,,,,,,,,,,,,,
,61006e8a4fe954de47730409,001,2022-04-29_04h16.02.606,classification_task,2021.2.3,Win32,60.20832079,61006e8a4fe954de47730409,626b377229c10585ec392f8a,626b3b88d836661cb141158e,,,,,,,,,,,,,,,,,,,,,,,l,1,1.1589,"[""0.035"",""0.400"",""0.460"",""0.170""]","[1,1,1,0]",0,34,34,34,1,1,1,,,1,FALSE,,,,,,,,,,,,,,,,,,,,,,,,,,,,,,
,61006e8a4fe954de47730409,001,2022-04-29_04h16.02.606,classification_task,2021.2.3,Win32,60.20832079,61006e8a4fe954de47730409,626b377229c10585ec392f8a,626b3b88d836661cb141158e,,,,,,,,,,,,,,,,,,,,,,,l,1,1.5859,"[""0.189"",""0.120"",""0.540"",""0.743""]","[0,1,1,1]",0,35,35,35,1,1,0,,,1,FALSE,,,,,,,,,,,,,,,,,,,,,,,,,,,,,,
,61006e8a4fe954de47730409,001,2022-04-29_04h16.02.606,classification_task,2021.2.3,Win32,60.20832079,61006e8a4fe954de47730409,626b377229c10585ec392f8a,626b3b88d836661cb141158e,,,,,,,,,,,,,,,,,,,,,,,l,0,2.0783,"[""0.291"",""0.364"",""0.167"",""0.895""]","[1,1,0,1]",0,36,36,36,1,0,0,,,1,FALSE,,,,,,,,,,,,,,,,,,,,,,,,,,,,,,
,61006e8a4fe954de47730409,001,2022-04-29_04h16.02.606,classification_task,2021.2.3,Win32,60.20832079,61006e8a4fe954de47730409,626b377229c10585ec392f8a,626b3b88d836661cb141158e,,,,,,,,,,,,,,,,,,,,,,,a,1,1.4872,"[""0.326"",""0.777"",""0.859"",""0.929""]","[1,0,1,1]",0,37,37,37,1,0,1,,,1,FALSE,,,,,,,,,,,,,,,,,,,,,,,,,,,,,,
,61006e8a4fe954de47730409,001,2022-04-29_04h16.02.606,classification_task,2021.2.3,Win32,60.20832079,61006e8a4fe954de47730409,626b377229c10585ec392f8a,626b3b88d836661cb141158e,,,,,,,,,,,,,,,,,,,,,,,a,1,0.8821,"[""0.326"",""0.503"",""0.859"",""0.598""]","[1,1,1,0]",0,38,38,38,1,0,1,,,1,FALSE,,,,,,,,,,,,,,,,,,,,,,,,,,,,,,
,61006e8a4fe954de47730409,001,2022-04-29_04h16.02.606,classification_task,2021.2.3,Win32,60.20832079,61006e8a4fe954de47730409,626b377229c10585ec392f8a,626b3b88d836661cb141158e,,,,,,,,,,,,,,,,,,,,,,,l,1,0.8875,"[""0.035"",""0.621"",""0.460"",""0.813""]","[1,0,1,1]",0,39,39,39,1,1,1,,,1,FALSE,,,,,,,,,,,,,,,,,,,,,,,,,,,,,,
,61006e8a4fe954de47730409,001,2022-04-29_04h16.02.606,classification_task,2021.2.3,Win32,60.20832079,61006e8a4fe954de47730409,626b377229c10585ec392f8a,626b3b88d836661cb141158e,,,,,,,,,,,,,,,,,,,,,,,a,1,2.5627,"[""0.291"",""0.195"",""0.680"",""0.895""]","[1,0,1,1]",0,40,40,40,1,0,0,,,1,FALSE,,,,,,,,,,,,,,,,,,,,,,,,,,,,,,
,61006e8a4fe954de47730409,001,2022-04-29_04h16.02.606,classification_task,2021.2.3,Win32,60.20832079,61006e8a4fe954de47730409,626b377229c10585ec392f8a,626b3b88d836661cb141158e,,,,,,,,,,,,,,,,,,,,,,,a,0,1.4185,"[""0.069"",""0.120"",""0.540"",""0.195""]","[1,1,1,0]",0,41,41,41,1,1,0,,,1,FALSE,,,,,,,,,,,,,,,,,,,,,,,,,,,,,,
,61006e8a4fe954de47730409,001,2022-04-29_04h16.02.606,classification_task,2021.2.3,Win32,60.20832079,61006e8a4fe954de47730409,626b377229c10585ec392f8a,626b3b88d836661cb141158e,,,,,,,,,,,,,,,,,,,,,,,a,0,1.2043,"[""0.069"",""0.592"",""0.540"",""0.743""]","[1,0,1,1]",0,42,42,42,1,1,0,,,1,FALSE,,,,,,,,,,,,,,,,,,,,,,,,,,,,,,
,61006e8a4fe954de47730409,001,2022-04-29_04h16.02.606,classification_task,2021.2.3,Win32,60.20832079,61006e8a4fe954de47730409,626b377229c10585ec392f8a,626b3b88d836661cb141158e,,,,,,,,,,,,,,,,,,,,,,,l,1,1.1423,"[""0.069"",""0.120"",""0.177"",""0.743""]","[1,1,0,1]",0,43,43,43,1,1,0,,,1,FALSE,,,,,,,,,,,,,,,,,,,,,,,,,,,,,,
,61006e8a4fe954de47730409,001,2022-04-29_04h16.02.606,classification_task,2021.2.3,Win32,60.20832079,61006e8a4fe954de47730409,626b377229c10585ec392f8a,626b3b88d836661cb141158e,,,,,,,,,,,,,,,,,,,,,,,a,1,1.2123,"[""0.170"",""0.503"",""0.859"",""0.929""]","[0,1,1,1]",0,44,44,44,1,0,1,,,1,FALSE,,,,,,,,,,,,,,,,,,,,,,,,,,,,,,
,61006e8a4fe954de47730409,001,2022-04-29_04h16.02.606,classification_task,2021.2.3,Win32,60.20832079,61006e8a4fe954de47730409,626b377229c10585ec392f8a,626b3b88d836661cb141158e,,,,,,,,,,,,,,,,,,,,,,,l,1,0.827,"[""0.035"",""0.400"",""0.621"",""0.813""]","[1,1,0,1]",0,45,45,45,1,1,1,,,1,FALSE,,,,,,,,,,,,,,,,,,,,,,,,,,,,,,
,61006e8a4fe954de47730409,001,2022-04-29_04h16.02.606,classification_task,2021.2.3,Win32,60.20832079,61006e8a4fe954de47730409,626b377229c10585ec392f8a,626b3b88d836661cb141158e,,,,,,,,,,,,,,,,,,,,,,,a,1,0.6159,"[""0.326"",""0.503"",""0.598"",""0.929""]","[1,1,0,1]",0,46,46,46,1,0,1,,,1,FALSE,,,,,,,,,,,,,,,,,,,,,,,,,,,,,,
,61006e8a4fe954de47730409,001,2022-04-29_04h16.02.606,classification_task,2021.2.3,Win32,60.20832079,61006e8a4fe954de47730409,626b377229c10585ec392f8a,626b3b88d836661cb141158e,,,,,,,,,,,,,,,,,,,,,,,l,0,1.4272,"[""0.291"",""0.364"",""0.680"",""0.642""]","[1,1,1,0]",0,47,47,47,1,0,0,,,1,FALSE,,,,,,,,,,,,,,,,,,,,,,,,,,,,,,
,61006e8a4fe954de47730409,001,2022-04-29_04h16.02.606,classification_task,2021.2.3,Win32,60.20832079,61006e8a4fe954de47730409,626b377229c10585ec392f8a,626b3b88d836661cb141158e,,,,,,,,,,,,,,,,,,,,,,,l,1,1.871,"[""0.035"",""0.400"",""0.460"",""0.185""]","[1,1,1,0]",0,48,48,48,1,1,1,,,1,FALSE,,,,,,,,,,,,,,,,,,,,,,,,,,,,,,
,61006e8a4fe954de47730409,001,2022-04-29_04h16.02.606,classification_task,2021.2.3,Win32,60.20832079,61006e8a4fe954de47730409,626b377229c10585ec392f8a,626b3b88d836661cb141158e,,,,,,,,,,,,,,,,,,,,,,,a,0,1.8106,"[""0.069"",""0.633"",""0.540"",""0.743""]","[1,0,1,1]",0,49,49,49,1,1,0,,,1,FALSE,,,,,,,,,,,,,,,,,,,,,,,,,,,,,,
,61006e8a4fe954de47730409,001,2022-04-29_04h16.02.606,classification_task,2021.2.3,Win32,60.20832079,61006e8a4fe954de47730409,626b377229c10585ec392f8a,626b3b88d836661cb141158e,,,,,,,,,,,,,,,,,,,,,,,a,0,1.0976,"[""0.189"",""0.120"",""0.540"",""0.743""]","[0,1,1,1]",0,50,50,50,1,1,0,,,1,FALSE,,,,,,,,,,,,,,,,,,,,,,,,,,,,,,
,61006e8a4fe954de47730409,001,2022-04-29_04h16.02.606,classification_task,2021.2.3,Win32,60.20832079,61006e8a4fe954de47730409,626b377229c10585ec392f8a,626b3b88d836661cb141158e,,,,,,,,,,,,,,,,,,,,,,,l,0,1.154,"[""0.291"",""0.364"",""0.170"",""0.895""]","[1,1,0,1]",0,51,51,51,1,0,0,,,1,FALSE,,,,,,,,,,,,,,,,,,,,,,,,,,,,,,
,61006e8a4fe954de47730409,001,2022-04-29_04h16.02.606,classification_task,2021.2.3,Win32,60.20832079,61006e8a4fe954de47730409,626b377229c10585ec392f8a,626b3b88d836661cb141158e,,,,,,,,,,,,,,,,,,,,,,,l,0,1.5303,"[""0.167"",""0.364"",""0.680"",""0.895""]","[0,1,1,1]",0,52,52,52,1,0,0,,,1,FALSE,,,,,,,,,,,,,,,,,,,,,,,,,,,,,,
,61006e8a4fe954de47730409,001,2022-04-29_04h16.02.606,classification_task,2021.2.3,Win32,60.20832079,61006e8a4fe954de47730409,626b377229c10585ec392f8a,626b3b88d836661cb141158e,,,,,,,,,,,,,,,,,,,,,,,a,1,1.1587,"[""0.326"",""0.503"",""0.859"",""0.195""]","[1,1,1,0]",0,53,53,53,1,0,1,,,1,FALSE,,,,,,,,,,,,,,,,,,,,,,,,,,,,,,
,61006e8a4fe954de47730409,001,2022-04-29_04h16.02.606,classification_task,2021.2.3,Win32,60.20832079,61006e8a4fe954de47730409,626b377229c10585ec392f8a,626b3b88d836661cb141158e,,,,,,,,,,,,,,,,,,,,,,,l,1,0.8851,"[""0.035"",""0.400"",""0.975"",""0.813""]","[1,1,0,1]",0,54,54,54,1,1,1,,,1,FALSE,,,,,,,,,,,,,,,,,,,,,,,,,,,,,,
,61006e8a4fe954de47730409,001,2022-04-29_04h16.02.606,classification_task,2021.2.3,Win32,60.20832079,61006e8a4fe954de47730409,626b377229c10585ec392f8a,626b3b88d836661cb141158e,,,,,,,,,,,,,,,,,,,,,,,l,1,1.0936,"[""0.069"",""0.120"",""0.195"",""0.743""]","[1,1,0,1]",0,55,55,55,1,1,0,,,1,FALSE,,,,,,,,,,,,,,,,,,,,,,,,,,,,,,
,61006e8a4fe954de47730409,001,2022-04-29_04h16.02.606,classification_task,2021.2.3,Win32,60.20832079,61006e8a4fe954de47730409,626b377229c10585ec392f8a,626b3b88d836661cb141158e,,,,,,,,,,,,,,,,,,,,,,,a,1,1.202,"[""0.291"",""0.364"",""0.680"",""0.195""]","[1,1,1,0]",0,56,56,56,1,0,0,,,1,FALSE,,,,,,,,,,,,,,,,,,,,,,,,,,,,,,
,61006e8a4fe954de47730409,001,2022-04-29_04h16.02.606,classification_task,2021.2.3,Win32,60.20832079,61006e8a4fe954de47730409,626b377229c10585ec392f8a,626b3b88d836661cb141158e,,,,,,,,,,,,,,,,,,,,,,,l,1,1.1515,"[""0.069"",""0.120"",""0.540"",""0.777""]","[1,1,1,0]",0,57,57,57,1,1,0,,,1,FALSE,,,,,,,,,,,,,,,,,,,,,,,,,,,,,,
,61006e8a4fe954de47730409,001,2022-04-29_04h16.02.606,classification_task,2021.2.3,Win32,60.20832079,61006e8a4fe954de47730409,626b377229c10585ec392f8a,626b3b88d836661cb141158e,,,,,,,,,,,,,,,,,,,,,,,a,1,2.4521,"[""0.291"",""0.975"",""0.680"",""0.895""]","[1,0,1,1]",0,58,58,58,1,0,0,,,1,FALSE,,,,,,,,,,,,,,,,,,,,,,,,,,,,,,
,61006e8a4fe954de47730409,001,2022-04-29_04h16.02.606,classification_task,2021.2.3,Win32,60.20832079,61006e8a4fe954de47730409,626b377229c10585ec392f8a,626b3b88d836661cb141158e,,,,,,,,,,,,,,,,,,,,,,,l,1,0.9427,"[""0.975"",""0.400"",""0.460"",""0.813""]","[0,1,1,1]",0,59,59,59,1,1,1,,,1,FALSE,,,,,,,,,,,,,,,,,,,,,,,,,,,,,,
,61006e8a4fe954de47730409,001,2022-04-29_04h16.02.606,classification_task,2021.2.3,Win32,60.20832079,61006e8a4fe954de47730409,626b377229c10585ec392f8a,626b3b88d836661cb141158e,,,,,,,,,,,,,,,,,,,,,,,a,1,0.7744,"[""0.326"",""0.177"",""0.859"",""0.929""]","[1,0,1,1]",0,60,60,60,1,0,1,,,1,FALSE,,,,,,,,,,,,,,,,,,,,,,,,,,,,,,
,61006e8a4fe954de47730409,001,2022-04-29_04h16.02.606,classification_task,2021.2.3,Win32,60.20832079,61006e8a4fe954de47730409,626b377229c10585ec392f8a,626b3b88d836661cb141158e,,,,,,,,,,,,,,,,,,,,,,,l,1,0.7228,"[""0.035"",""0.777"",""0.460"",""0.813""]","[1,0,1,1]",0,61,61,61,1,1,1,,,1,FALSE,,,,,,,,,,,,,,,,,,,,,,,,,,,,,,
,61006e8a4fe954de47730409,001,2022-04-29_04h16.02.606,classification_task,2021.2.3,Win32,60.20832079,61006e8a4fe954de47730409,626b377229c10585ec392f8a,626b3b88d836661cb141158e,,,,,,,,,,,,,,,,,,,,,,,a,1,0.669,"[""0.326"",""0.503"",""0.167"",""0.929""]","[1,1,0,1]",0,62,62,62,1,0,1,,,1,FALSE,,,,,,,,,,,,,,,,,,,,,,,,,,,,,,
,61006e8a4fe954de47730409,001,2022-04-29_04h16.02.606,classification_task,2021.2.3,Win32,60.20832079,61006e8a4fe954de47730409,626b377229c10585ec392f8a,626b3b88d836661cb141158e,,,,,,,,,,,,,,,,,,,,,,,a,1,0.7695,"[""0.185"",""0.503"",""0.859"",""0.929""]","[0,1,1,1]",0,63,63,63,1,0,1,,,1,FALSE,,,,,,,,,,,,,,,,,,,,,,,,,,,,,,
,61006e8a4fe954de47730409,001,2022-04-29_04h16.02.606,classification_task,2021.2.3,Win32,60.20832079,61006e8a4fe954de47730409,626b377229c10585ec392f8a,626b3b88d836661cb141158e,,,,,,,,,,,,,,,,,,,,,,,,,,,,,,,,,,,,,,,0, ,,0,6.007810532,191.5299,0,1,1,1,1,2,2,,,,,,,,,,,,,,,,,
,61006e8a4fe954de47730409,001,2022-04-29_04h16.02.606,classification_task,2021.2.3,Win32,60.20832079,61006e8a4fe954de47730409,626b377229c10585ec392f8a,626b3b88d836661cb141158e,,,,,,,,,,,,,,,,,,,,,,,,,,,,,,,,,,,,,,,1,  ,,0,7.166792643,193.695,0,1,1,1,1,2,2,,,,,,,,,,,,,,,,,
,61006e8a4fe954de47730409,001,2022-04-29_04h16.02.606,classification_task,2021.2.3,Win32,60.20832079,61006e8a4fe954de47730409,626b377229c10585ec392f8a,626b3b88d836661cb141158e,,,,,,,,,,,,,,,,,,,,,,,,,,,,,,,,,,,,,,,2,  ,,0,7.519526329,195.2868,0,1,1,1,1,2,2,,,,,,,,,,,,,,,,,
,61006e8a4fe954de47730409,001,2022-04-29_04h16.02.606,classification_task,2021.2.3,Win32,60.20832079,61006e8a4fe954de47730409,626b377229c10585ec392f8a,626b3b88d836661cb141158e,,,,,,,,,,,,,,,,,,,,,,,,,,,,,,,,,,,,,,,,,,,,,0,1,1,1,1,,2,,,,,,,,,,,,,,,,,
,61006e8a4fe954de47730409,001,2022-04-29_04h16.02.606,classification_task,2021.2.3,Win32,60.20832079,61006e8a4fe954de47730409,626b377229c10585ec392f8a,626b3b88d836661cb141158e,,,,,,,,,,,,,,,,,,,,,space,10.2482,l,1,1.619,"[""0.035"",""0.400"",""0.633"",""0.813""]","[1,1,0,1]",0,0,0,0,1,1,1,,,1,FALSE,,,,,,,,,,,,,,,,,,,,,,,,,,,,,,
,61006e8a4fe954de47730409,001,2022-04-29_04h16.02.606,classification_task,2021.2.3,Win32,60.20832079,61006e8a4fe954de47730409,626b377229c10585ec392f8a,626b3b88d836661cb141158e,,,,,,,,,,,,,,,,,,,,,,,a,1,1.6809,"[""0.326"",""0.503"",""0.598"",""0.929""]","[1,1,0,1]",0,1,1,1,1,0,1,,,1,FALSE,,,,,,,,,,,,,,,,,,,,,,,,,,,,,,
,61006e8a4fe954de47730409,001,2022-04-29_04h16.02.606,classification_task,2021.2.3,Win32,60.20832079,61006e8a4fe954de47730409,626b377229c10585ec392f8a,626b3b88d836661cb141158e,,,,,,,,,,,,,,,,,,,,,,,l,1,1.6712,"[""0.069"",""0.120"",""0.540"",""0.609""]","[1,1,1,0]",0,2,2,2,1,1,0,,,1,FALSE,,,,,,,,,,,,,,,,,,,,,,,,,,,,,,
,61006e8a4fe954de47730409,001,2022-04-29_04h16.02.606,classification_task,2021.2.3,Win32,60.20832079,61006e8a4fe954de47730409,626b377229c10585ec392f8a,626b3b88d836661cb141158e,,,,,,,,,,,,,,,,,,,,,,,l,1,2.4937,"[""0.035"",""0.400"",""0.460"",""0.167""]","[1,1,1,0]",0,3,3,3,1,1,1,,,1,FALSE,,,,,,,,,,,,,,,,,,,,,,,,,,,,,,
,61006e8a4fe954de47730409,001,2022-04-29_04h16.02.606,classification_task,2021.2.3,Win32,60.20832079,61006e8a4fe954de47730409,626b377229c10585ec392f8a,626b3b88d836661cb141158e,,,,,,,,,,,,,,,,,,,,,,,l,1,2.3693,"[""0.069"",""0.120"",""0.975"",""0.743""]","[1,1,0,1]",0,4,4,4,1,1,0,,,1,FALSE,,,,,,,,,,,,,,,,,,,,,,,,,,,,,,
,61006e8a4fe954de47730409,001,2022-04-29_04h16.02.606,classification_task,2021.2.3,Win32,60.20832079,61006e8a4fe954de47730409,626b377229c10585ec392f8a,626b3b88d836661cb141158e,,,,,,,,,,,,,,,,,,,,,,,l,0,3.7669,"[""0.209"",""0.364"",""0.680"",""0.895""]","[0,1,1,1]",0,5,5,5,1,0,0,,,1,FALSE,,,,,,,,,,,,,,,,,,,,,,,,,,,,,,
,61006e8a4fe954de47730409,001,2022-04-29_04h16.02.606,classification_task,2021.2.3,Win32,60.20832079,61006e8a4fe954de47730409,626b377229c10585ec392f8a,626b3b88d836661cb141158e,,,,,,,,,,,,,,,,,,,,,,,a,1,2.5899,"[""0.291"",""0.364"",""0.598"",""0.895""]","[1,1,0,1]",0,6,6,6,1,0,0,,,1,FALSE,,,,,,,,,,,,,,,,,,,,,,,,,,,,,,
,61006e8a4fe954de47730409,001,2022-04-29_04h16.02.606,classification_task,2021.2.3,Win32,60.20832079,61006e8a4fe954de47730409,626b377229c10585ec392f8a,626b3b88d836661cb141158e,,,,,,,,,,,,,,,,,,,,,,,l,0,2.6392,"[""0.291"",""0.170"",""0.680"",""0.895""]","[1,0,1,1]",0,7,7,7,1,0,0,,,1,FALSE,,,,,,,,,,,,,,,,,,,,,,,,,,,,,,
,61006e8a4fe954de47730409,001,2022-04-29_04h16.02.606,classification_task,2021.2.3,Win32,60.20832079,61006e8a4fe954de47730409,626b377229c10585ec392f8a,626b3b88d836661cb141158e,,,,,,,,,,,,,,,,,,,,,,,a,0,3.0244,"[""0.177"",""0.400"",""0.460"",""0.813""]","[0,1,1,1]",0,8,8,8,1,1,1,,,1,FALSE,,,,,,,,,,,,,,,,,,,,,,,,,,,,,,
,61006e8a4fe954de47730409,001,2022-04-29_04h16.02.606,classification_task,2021.2.3,Win32,60.20832079,61006e8a4fe954de47730409,626b377229c10585ec392f8a,626b3b88d836661cb141158e,,,,,,,,,,,,,,,,,,,,,,,l,1,3.2906,"[""0.177"",""0.120"",""0.540"",""0.743""]","[0,1,1,1]",0,9,9,9,1,1,0,,,1,FALSE,,,,,,,,,,,,,,,,,,,,,,,,,,,,,,
,61006e8a4fe954de47730409,001,2022-04-29_04h16.02.606,classification_task,2021.2.3,Win32,60.20832079,61006e8a4fe954de47730409,626b377229c10585ec392f8a,626b3b88d836661cb141158e,,,,,,,,,,,,,,,,,,,,,,,a,1,1.3588,"[""0.326"",""0.609"",""0.859"",""0.929""]","[1,0,1,1]",0,10,10,10,1,0,1,,,1,FALSE,,,,,,,,,,,,,,,,,,,,,,,,,,,,,,
,61006e8a4fe954de47730409,001,2022-04-29_04h16.02.606,classification_task,2021.2.3,Win32,60.20832079,61006e8a4fe954de47730409,626b377229c10585ec392f8a,626b3b88d836661cb141158e,,,,,,,,,,,,,,,,,,,,,,,l,1,1.2471,"[""0.035"",""0.633"",""0.460"",""0.813""]","[1,0,1,1]",0,11,11,11,1,1,1,,,1,FALSE,,,,,,,,,,,,,,,,,,,,,,,,,,,,,,
,61006e8a4fe954de47730409,001,2022-04-29_04h16.02.606,classification_task,2021.2.3,Win32,60.20832079,61006e8a4fe954de47730409,626b377229c10585ec392f8a,626b3b88d836661cb141158e,,,,,,,,,,,,,,,,,,,,,,,a,1,3.1542,"[""0.592"",""0.503"",""0.859"",""0.929""]","[0,1,1,1]",0,12,12,12,1,0,1,,,1,FALSE,,,,,,,,,,,,,,,,,,,,,,,,,,,,,,
,61006e8a4fe954de47730409,001,2022-04-29_04h16.02.606,classification_task,2021.2.3,Win32,60.20832079,61006e8a4fe954de47730409,626b377229c10585ec392f8a,626b3b88d836661cb141158e,,,,,,,,,,,,,,,,,,,,,,,l,1,2.322,"[""0.069"",""0.777"",""0.540"",""0.743""]","[1,0,1,1]",0,13,13,13,1,1,0,,,1,FALSE,,,,,,,,,,,,,,,,,,,,,,,,,,,,,,
,61006e8a4fe954de47730409,001,2022-04-29_04h16.02.606,classification_task,2021.2.3,Win32,60.20832079,61006e8a4fe954de47730409,626b377229c10585ec392f8a,626b3b88d836661cb141158e,,,,,,,,,,,,,,,,,,,,,,,a,1,1.9946,"[""0.291"",""0.364"",""0.680"",""0.170""]","[1,1,1,0]",0,14,14,14,1,0,0,,,1,FALSE,,,,,,,,,,,,,,,,,,,,,,,,,,,,,,
,61006e8a4fe954de47730409,001,2022-04-29_04h16.02.606,classification_task,2021.2.3,Win32,60.20832079,61006e8a4fe954de47730409,626b377229c10585ec392f8a,626b3b88d836661cb141158e,,,,,,,,,,,,,,,,,,,,,,,a,1,1.8067,"[""0.326"",""0.503"",""0.859"",""0.189""]","[1,1,1,0]",0,15,15,15,1,0,1,,,1,FALSE,,,,,,,,,,,,,,,,,,,,,,,,,,,,,,
,61006e8a4fe954de47730409,001,2022-04-29_04h16.02.606,classification_task,2021.2.3,Win32,60.20832079,61006e8a4fe954de47730409,626b377229c10585ec392f8a,626b3b88d836661cb141158e,,,,,,,,,,,,,,,,,,,,,,,a,1,3.0703,"[""0.291"",""0.364"",""0.195"",""0.895""]","[1,1,0,1]",0,16,16,16,1,0,0,,,1,FALSE,,,,,,,,,,,,,,,,,,,,,,,,,,,,,,
,61006e8a4fe954de47730409,001,2022-04-29_04h16.02.606,classification_task,2021.2.3,Win32,60.20832079,61006e8a4fe954de47730409,626b377229c10585ec392f8a,626b3b88d836661cb141158e,,,,,,,,,,,,,,,,,,,,,,,l,1,1.3571,"[""0.035"",""0.185"",""0.460"",""0.813""]","[1,0,1,1]",0,17,17,17,1,1,1,,,1,FALSE,,,,,,,,,,,,,,,,,,,,,,,,,,,,,,
,61006e8a4fe954de47730409,001,2022-04-29_04h16.02.606,classification_task,2021.2.3,Win32,60.20832079,61006e8a4fe954de47730409,626b377229c10585ec392f8a,626b3b88d836661cb141158e,,,,,,,,,,,,,,,,,,,,,,,l,1,2.9135,"[""0.069"",""0.120"",""0.170"",""0.743""]","[1,1,0,1]",0,18,18,18,1,1,0,,,1,FALSE,,,,,,,,,,,,,,,,,,,,,,,,,,,,,,
,61006e8a4fe954de47730409,001,2022-04-29_04h16.02.606,classification_task,2021.2.3,Win32,60.20832079,61006e8a4fe954de47730409,626b377229c10585ec392f8a,626b3b88d836661cb141158e,,,,,,,,,,,,,,,,,,,,,,,l,1,0.7597,"[""0.069"",""0.120"",""0.540"",""0.167""]","[1,1,1,0]",0,19,19,19,1,1,0,,,1,FALSE,,,,,,,,,,,,,,,,,,,,,,,,,,,,,,
,61006e8a4fe954de47730409,001,2022-04-29_04h16.02.606,classification_task,2021.2.3,Win32,60.20832079,61006e8a4fe954de47730409,626b377229c10585ec392f8a,626b3b88d836661cb141158e,,,,,,,,,,,,,,,,,,,,,,,l,0,3.6616,"[""0.291"",""0.189"",""0.680"",""0.895""]","[1,0,1,1]",0,20,20,20,1,0,0,,,1,FALSE,,,,,,,,,,,,,,,,,,,,,,,,,,,,,,
,61006e8a4fe954de47730409,001,2022-04-29_04h16.02.606,classification_task,2021.2.3,Win32,60.20832079,61006e8a4fe954de47730409,626b377229c10585ec392f8a,626b3b88d836661cb141158e,,,,,,,,,,,,,,,,,,,,,,,a,1,3.0967,"[""0.621"",""0.503"",""0.859"",""0.929""]","[0,1,1,1]",0,21,21,21,1,0,1,,,1,FALSE,,,,,,,,,,,,,,,,,,,,,,,,,,,,,,
,61006e8a4fe954de47730409,001,2022-04-29_04h16.02.606,classification_task,2021.2.3,Win32,60.20832079,61006e8a4fe954de47730409,626b377229c10585ec392f8a,626b3b88d836661cb141158e,,,,,,,,,,,,,,,,,,,,,,,a,0,1.7811,"[""0.580"",""0.120"",""0.540"",""0.743""]","[0,1,1,1]",0,22,22,22,1,1,0,,,1,FALSE,,,,,,,,,,,,,,,,,,,,,,,,,,,,,,
,61006e8a4fe954de47730409,001,2022-04-29_04h16.02.606,classification_task,2021.2.3,Win32,60.20832079,61006e8a4fe954de47730409,626b377229c10585ec392f8a,626b3b88d836661cb141158e,,,,,,,,,,,,,,,,,,,,,,,l,1,1.0772,"[""0.069"",""0.609"",""0.540"",""0.743""]","[1,0,1,1]",0,23,23,23,1,1,0,,,1,FALSE,,,,,,,,,,,,,,,,,,,,,,,,,,,,,,
,61006e8a4fe954de47730409,001,2022-04-29_04h16.02.606,classification_task,2021.2.3,Win32,60.20832079,61006e8a4fe954de47730409,626b377229c10585ec392f8a,626b3b88d836661cb141158e,,,,,,,,,,,,,,,,,,,,,,,l,0,4.2794,"[""0.326"",""0.503"",""0.609"",""0.929""]","[1,1,0,1]",0,24,24,24,1,0,1,,,1,FALSE,,,,,,,,,,,,,,,,,,,,,,,,,,,,,,
,61006e8a4fe954de47730409,001,2022-04-29_04h16.02.606,classification_task,2021.2.3,Win32,60.20832079,61006e8a4fe954de47730409,626b377229c10585ec392f8a,626b3b88d836661cb141158e,,,,,,,,,,,,,,,,,,,,,,,l,1,1.7933,"[""0.035"",""0.400"",""0.621"",""0.813""]","[1,1,0,1]",0,25,25,25,1,1,1,,,1,FALSE,,,,,,,,,,,,,,,,,,,,,,,,,,,,,,
,61006e8a4fe954de47730409,001,2022-04-29_04h16.02.606,classification_task,2021.2.3,Win32,60.20832079,61006e8a4fe954de47730409,626b377229c10585ec392f8a,626b3b88d836661cb141158e,,,,,,,,,,,,,,,,,,,,,,,a,1,1.1435,"[""0.326"",""0.503"",""0.859"",""0.777""]","[1,1,1,0]",0,26,26,26,1,0,1,,,1,FALSE,,,,,,,,,,,,,,,,,,,,,,,,,,,,,,
,61006e8a4fe954de47730409,001,2022-04-29_04h16.02.606,classification_task,2021.2.3,Win32,60.20832079,61006e8a4fe954de47730409,626b377229c10585ec392f8a,626b3b88d836661cb141158e,,,,,,,,,,,,,,,,,,,,,,,l,1,2.1162,"[""0.170"",""0.400"",""0.460"",""0.813""]","[0,1,1,1]",0,27,27,27,1,1,1,,,1,FALSE,,,,,,,,,,,,,,,,,,,,,,,,,,,,,,
,61006e8a4fe954de47730409,001,2022-04-29_04h16.02.606,classification_task,2021.2.3,Win32,60.20832079,61006e8a4fe954de47730409,626b377229c10585ec392f8a,626b3b88d836661cb141158e,,,,,,,,,,,,,,,,,,,,,,,a,1,2.2103,"[""0.291"",""0.364"",""0.680"",""0.777""]","[1,1,1,0]",0,28,28,28,1,0,0,,,1,FALSE,,,,,,,,,,,,,,,,,,,,,,,,,,,,,,
,61006e8a4fe954de47730409,001,2022-04-29_04h16.02.606,classification_task,2021.2.3,Win32,60.20832079,61006e8a4fe954de47730409,626b377229c10585ec392f8a,626b3b88d836661cb141158e,,,,,,,,,,,,,,,,,,,,,,,a,1,2.0096,"[""0.326"",""0.195"",""0.859"",""0.929""]","[1,0,1,1]",0,29,29,29,1,0,1,,,1,FALSE,,,,,,,,,,,,,,,,,,,,,,,,,,,,,,
,61006e8a4fe954de47730409,001,2022-04-29_04h16.02.606,classification_task,2021.2.3,Win32,60.20832079,61006e8a4fe954de47730409,626b377229c10585ec392f8a,626b3b88d836661cb141158e,,,,,,,,,,,,,,,,,,,,,,,l,1,1.1992,"[""0.035"",""0.400"",""0.460"",""0.633""]","[1,1,1,0]",0,30,30,30,1,1,1,,,1,FALSE,,,,,,,,,,,,,,,,,,,,,,,,,,,,,,
,61006e8a4fe954de47730409,001,2022-04-29_04h16.02.606,classification_task,2021.2.3,Win32,60.20832079,61006e8a4fe954de47730409,626b377229c10585ec392f8a,626b3b88d836661cb141158e,,,,,,,,,,,,,,,,,,,,,,,a,1,2.645,"[""0.209"",""0.364"",""0.680"",""0.895""]","[0,1,1,1]",0,31,31,31,1,0,0,,,1,FALSE,,,,,,,,,,,,,,,,,,,,,,,,,,,,,,
,61006e8a4fe954de47730409,001,2022-04-29_04h16.02.606,classification_task,2021.2.3,Win32,60.20832079,61006e8a4fe954de47730409,626b377229c10585ec392f8a,626b3b88d836661cb141158e,,,,,,,,,,,,,,,,,,,,,,,a,1,0.8691,"[""0.209"",""0.364"",""0.680"",""0.895""]","[0,1,1,1]",0,32,32,32,1,0,0,,,1,FALSE,,,,,,,,,,,,,,,,,,,,,,,,,,,,,,
,61006e8a4fe954de47730409,001,2022-04-29_04h16.02.606,classification_task,2021.2.3,Win32,60.20832079,61006e8a4fe954de47730409,626b377229c10585ec392f8a,626b3b88d836661cb141158e,,,,,,,,,,,,,,,,,,,,,,,l,1,1.085,"[""0.069"",""0.195"",""0.540"",""0.743""]","[1,0,1,1]",0,33,33,33,1,1,0,,,1,FALSE,,,,,,,,,,,,,,,,,,,,,,,,,,,,,,
,61006e8a4fe954de47730409,001,2022-04-29_04h16.02.606,classification_task,2021.2.3,Win32,60.20832079,61006e8a4fe954de47730409,626b377229c10585ec392f8a,626b3b88d836661cb141158e,,,,,,,,,,,,,,,,,,,,,,,l,0,2.7006,"[""0.291"",""0.364"",""0.680"",""0.185""]","[1,1,1,0]",0,34,34,34,1,0,0,,,1,FALSE,,,,,,,,,,,,,,,,,,,,,,,,,,,,,,
,61006e8a4fe954de47730409,001,2022-04-29_04h16.02.606,classification_task,2021.2.3,Win32,60.20832079,61006e8a4fe954de47730409,626b377229c10585ec392f8a,626b3b88d836661cb141158e,,,,,,,,,,,,,,,,,,,,,,,a,0,2.8794,"[""0.642"",""0.400"",""0.460"",""0.813""]","[0,1,1,1]",0,35,35,35,1,1,1,,,1,FALSE,,,,,,,,,,,,,,,,,,,,,,,,,,,,,,
,61006e8a4fe954de47730409,001,2022-04-29_04h16.02.606,classification_task,2021.2.3,Win32,60.20832079,61006e8a4fe954de47730409,626b377229c10585ec392f8a,626b3b88d836661cb141158e,,,,,,,,,,,,,,,,,,,,,,,a,1,3.942,"[""0.291"",""0.364"",""0.777"",""0.895""]","[1,1,0,1]",0,36,36,36,1,0,0,,,1,FALSE,,,,,,,,,,,,,,,,,,,,,,,,,,,,,,
,61006e8a4fe954de47730409,001,2022-04-29_04h16.02.606,classification_task,2021.2.3,Win32,60.20832079,61006e8a4fe954de47730409,626b377229c10585ec392f8a,626b3b88d836661cb141158e,,,,,,,,,,,,,,,,,,,,,,,a,1,1.1437,"[""0.326"",""0.503"",""0.185"",""0.929""]","[1,1,0,1]",0,37,37,37,1,0,1,,,1,FALSE,,,,,,,,,,,,,,,,,,,,,,,,,,,,,,
,61006e8a4fe954de47730409,001,2022-04-29_04h16.02.606,classification_task,2021.2.3,Win32,60.20832079,61006e8a4fe954de47730409,626b377229c10585ec392f8a,626b3b88d836661cb141158e,,,,,,,,,,,,,,,,,,,,,,,a,1,0.9819,"[""0.326"",""0.503"",""0.859"",""0.592""]","[1,1,1,0]",0,38,38,38,1,0,1,,,1,FALSE,,,,,,,,,,,,,,,,,,,,,,,,,,,,,,
,61006e8a4fe954de47730409,001,2022-04-29_04h16.02.606,classification_task,2021.2.3,Win32,60.20832079,61006e8a4fe954de47730409,626b377229c10585ec392f8a,626b3b88d836661cb141158e,,,,,,,,,,,,,,,,,,,,,,,a,1,0.7635,"[""0.326"",""0.177"",""0.859"",""0.929""]","[1,0,1,1]",0,39,39,39,1,0,1,,,1,FALSE,,,,,,,,,,,,,,,,,,,,,,,,,,,,,,
,61006e8a4fe954de47730409,001,2022-04-29_04h16.02.606,classification_task,2021.2.3,Win32,60.20832079,61006e8a4fe954de47730409,626b377229c10585ec392f8a,626b3b88d836661cb141158e,,,,,,,,,,,,,,,,,,,,,,,l,0,0.9803,"[""0.598"",""0.503"",""0.859"",""0.929""]","[0,1,1,1]",0,40,40,40,1,0,1,,,1,FALSE,,,,,,,,,,,,,,,,,,,,,,,,,,,,,,
,61006e8a4fe954de47730409,001,2022-04-29_04h16.02.606,classification_task,2021.2.3,Win32,60.20832079,61006e8a4fe954de47730409,626b377229c10585ec392f8a,626b3b88d836661cb141158e,,,,,,,,,,,,,,,,,,,,,,,a,1,2.1086,"[""0.291"",""0.209"",""0.680"",""0.895""]","[1,0,1,1]",0,41,41,41,1,0,0,,,1,FALSE,,,,,,,,,,,,,,,,,,,,,,,,,,,,,,
,61006e8a4fe954de47730409,001,2022-04-29_04h16.02.606,classification_task,2021.2.3,Win32,60.20832079,61006e8a4fe954de47730409,626b377229c10585ec392f8a,626b3b88d836661cb141158e,,,,,,,,,,,,,,,,,,,,,,,l,1,1.9455,"[""0.069"",""0.120"",""0.540"",""0.209""]","[1,1,1,0]",0,42,42,42,1,1,0,,,1,FALSE,,,,,,,,,,,,,,,,,,,,,,,,,,,,,,
,61006e8a4fe954de47730409,001,2022-04-29_04h16.02.606,classification_task,2021.2.3,Win32,60.20832079,61006e8a4fe954de47730409,626b377229c10585ec392f8a,626b3b88d836661cb141158e,,,,,,,,,,,,,,,,,,,,,,,l,1,0.874,"[""0.069"",""0.120"",""0.177"",""0.743""]","[1,1,0,1]",0,43,43,43,1,1,0,,,1,FALSE,,,,,,,,,,,,,,,,,,,,,,,,,,,,,,
,61006e8a4fe954de47730409,001,2022-04-29_04h16.02.606,classification_task,2021.2.3,Win32,60.20832079,61006e8a4fe954de47730409,626b377229c10585ec392f8a,626b3b88d836661cb141158e,,,,,,,,,,,,,,,,,,,,,,,l,1,1.2492,"[""0.035"",""0.400"",""0.633"",""0.813""]","[1,1,0,1]",0,44,44,44,1,1,1,,,1,FALSE,,,,,,,,,,,,,,,,,,,,,,,,,,,,,,
,61006e8a4fe954de47730409,001,2022-04-29_04h16.02.606,classification_task,2021.2.3,Win32,60.20832079,61006e8a4fe954de47730409,626b377229c10585ec392f8a,626b3b88d836661cb141158e,,,,,,,,,,,,,,,,,,,,,,,l,1,0.7621,"[""0.035"",""0.777"",""0.460"",""0.813""]","[1,0,1,1]",0,45,45,45,1,1,1,,,1,FALSE,,,,,,,,,,,,,,,,,,,,,,,,,,,,,,
,61006e8a4fe954de47730409,001,2022-04-29_04h16.02.606,classification_task,2021.2.3,Win32,60.20832079,61006e8a4fe954de47730409,626b377229c10585ec392f8a,626b3b88d836661cb141158e,,,,,,,,,,,,,,,,,,,,,,,a,0,4.7545,"[""0.167"",""0.120"",""0.540"",""0.743""]","[0,1,1,1]",0,46,46,46,1,1,0,,,1,FALSE,,,,,,,,,,,,,,,,,,,,,,,,,,,,,,
,61006e8a4fe954de47730409,001,2022-04-29_04h16.02.606,classification_task,2021.2.3,Win32,60.20832079,61006e8a4fe954de47730409,626b377229c10585ec392f8a,626b3b88d836661cb141158e,,,,,,,,,,,,,,,,,,,,,,,l,1,1.0343,"[""0.035"",""0.400"",""0.460"",""0.642""]","[1,1,1,0]",0,47,47,47,1,1,1,,,1,FALSE,,,,,,,,,,,,,,,,,,,,,,,,,,,,,,
,61006e8a4fe954de47730409,001,2022-04-29_04h16.02.606,classification_task,2021.2.3,Win32,60.20832079,61006e8a4fe954de47730409,626b377229c10585ec392f8a,626b3b88d836661cb141158e,,,,,,,,,,,,,,,,,,,,,,,a,1,1.739,"[""0.326"",""0.503"",""0.859"",""0.167""]","[1,1,1,0]",0,48,48,48,1,0,1,,,1,FALSE,,,,,,,,,,,,,,,,,,,,,,,,,,,,,,
,61006e8a4fe954de47730409,001,2022-04-29_04h16.02.606,classification_task,2021.2.3,Win32,60.20832079,61006e8a4fe954de47730409,626b377229c10585ec392f8a,626b3b88d836661cb141158e,,,,,,,,,,,,,,,,,,,,,,,a,1,2.2178,"[""0.291"",""0.364"",""0.580"",""0.895""]","[1,1,0,1]",0,49,49,49,1,0,0,,,1,FALSE,,,,,,,,,,,,,,,,,,,,,,,,,,,,,,
,61006e8a4fe954de47730409,001,2022-04-29_04h16.02.606,classification_task,2021.2.3,Win32,60.20832079,61006e8a4fe954de47730409,626b377229c10585ec392f8a,626b3b88d836661cb141158e,,,,,,,,,,,,,,,,,,,,,,,a,1,1.0305,"[""0.777"",""0.364"",""0.680"",""0.895""]","[0,1,1,1]",0,50,50,50,1,0,0,,,1,FALSE,,,,,,,,,,,,,,,,,,,,,,,,,,,,,,
,61006e8a4fe954de47730409,001,2022-04-29_04h16.02.606,classification_task,2021.2.3,Win32,60.20832079,61006e8a4fe954de47730409,626b377229c10585ec392f8a,626b3b88d836661cb141158e,,,,,,,,,,,,,,,,,,,,,,,a,1,1.1362,"[""0.291"",""0.364"",""0.680"",""0.598""]","[1,1,1,0]",0,51,51,51,1,0,0,,,1,FALSE,,,,,,,,,,,,,,,,,,,,,,,,,,,,,,
,61006e8a4fe954de47730409,001,2022-04-29_04h16.02.606,classification_task,2021.2.3,Win32,60.20832079,61006e8a4fe954de47730409,626b377229c10585ec392f8a,626b3b88d836661cb141158e,,,,,,,,,,,,,,,,,,,,,,,l,1,1.0828,"[""0.209"",""0.120"",""0.540"",""0.743""]","[0,1,1,1]",0,52,52,52,1,1,0,,,1,FALSE,,,,,,,,,,,,,,,,,,,,,,,,,,,,,,
,61006e8a4fe954de47730409,001,2022-04-29_04h16.02.606,classification_task,2021.2.3,Win32,60.20832079,61006e8a4fe954de47730409,626b377229c10585ec392f8a,626b3b88d836661cb141158e,,,,,,,,,,,,,,,,,,,,,,,a,1,1.6331,"[""0.326"",""0.503"",""0.209"",""0.929""]","[1,1,0,1]",0,53,53,53,1,0,1,,,1,FALSE,,,,,,,,,,,,,,,,,,,,,,,,,,,,,,
,61006e8a4fe954de47730409,001,2022-04-29_04h16.02.606,classification_task,2021.2.3,Win32,60.20832079,61006e8a4fe954de47730409,626b377229c10585ec392f8a,626b3b88d836661cb141158e,,,,,,,,,,,,,,,,,,,,,,,l,1,1.4735,"[""0.035"",""0.777"",""0.460"",""0.813""]","[1,0,1,1]",0,54,54,54,1,1,1,,,1,FALSE,,,,,,,,,,,,,,,,,,,,,,,,,,,,,,
,61006e8a4fe954de47730409,001,2022-04-29_04h16.02.606,classification_task,2021.2.3,Win32,60.20832079,61006e8a4fe954de47730409,626b377229c10585ec392f8a,626b3b88d836661cb141158e,,,,,,,,,,,,,,,,,,,,,,,a,1,0.9231,"[""0.195"",""0.503"",""0.859"",""0.929""]","[0,1,1,1]",0,55,55,55,1,0,1,,,1,FALSE,,,,,,,,,,,,,,,,,,,,,,,,,,,,,,
,61006e8a4fe954de47730409,001,2022-04-29_04h16.02.606,classification_task,2021.2.3,Win32,60.20832079,61006e8a4fe954de47730409,626b377229c10585ec392f8a,626b3b88d836661cb141158e,,,,,,,,,,,,,,,,,,,,,,,l,1,1.7859,"[""0.069"",""0.167"",""0.540"",""0.743""]","[1,0,1,1]",0,56,56,56,1,1,0,,,1,FALSE,,,,,,,,,,,,,,,,,,,,,,,,,,,,,,
,61006e8a4fe954de47730409,001,2022-04-29_04h16.02.606,classification_task,2021.2.3,Win32,60.20832079,61006e8a4fe954de47730409,626b377229c10585ec392f8a,626b3b88d836661cb141158e,,,,,,,,,,,,,,,,,,,,,,,l,1,2.3409,"[""0.167"",""0.400"",""0.460"",""0.813""]","[0,1,1,1]",0,57,57,57,1,1,1,,,1,FALSE,,,,,,,,,,,,,,,,,,,,,,,,,,,,,,
,61006e8a4fe954de47730409,001,2022-04-29_04h16.02.606,classification_task,2021.2.3,Win32,60.20832079,61006e8a4fe954de47730409,626b377229c10585ec392f8a,626b3b88d836661cb141158e,,,,,,,,,,,,,,,,,,,,,,,l,1,1.8392,"[""0.069"",""0.120"",""0.592"",""0.743""]","[1,1,0,1]",0,58,58,58,1,1,0,,,1,FALSE,,,,,,,,,,,,,,,,,,,,,,,,,,,,,,
,61006e8a4fe954de47730409,001,2022-04-29_04h16.02.606,classification_task,2021.2.3,Win32,60.20832079,61006e8a4fe954de47730409,626b377229c10585ec392f8a,626b3b88d836661cb141158e,,,,,,,,,,,,,,,,,,,,,,,a,1,2.0011,"[""0.291"",""0.209"",""0.680"",""0.895""]","[1,0,1,1]",0,59,59,59,1,0,0,,,1,FALSE,,,,,,,,,,,,,,,,,,,,,,,,,,,,,,
,61006e8a4fe954de47730409,001,2022-04-29_04h16.02.606,classification_task,2021.2.3,Win32,60.20832079,61006e8a4fe954de47730409,626b377229c10585ec392f8a,626b3b88d836661cb141158e,,,,,,,,,,,,,,,,,,,,,,,l,1,1.0908,"[""0.035"",""0.400"",""0.460"",""0.580""]","[1,1,1,0]",0,60,60,60,1,1,1,,,1,FALSE,,,,,,,,,,,,,,,,,,,,,,,,,,,,,,
,61006e8a4fe954de47730409,001,2022-04-29_04h16.02.606,classification_task,2021.2.3,Win32,60.20832079,61006e8a4fe954de47730409,626b377229c10585ec392f8a,626b3b88d836661cb141158e,,,,,,,,,,,,,,,,,,,,,,,a,1,3.2751,"[""0.326"",""0.633"",""0.859"",""0.929""]","[1,0,1,1]",0,61,61,61,1,0,1,,,1,FALSE,,,,,,,,,,,,,,,,,,,,,,,,,,,,,,
,61006e8a4fe954de47730409,001,2022-04-29_04h16.02.606,classification_task,2021.2.3,Win32,60.20832079,61006e8a4fe954de47730409,626b377229c10585ec392f8a,626b3b88d836661cb141158e,,,,,,,,,,,,,,,,,,,,,,,l,1,2.7646,"[""0.069"",""0.120"",""0.540"",""0.167""]","[1,1,1,0]",0,62,62,62,1,1,0,,,1,FALSE,,,,,,,,,,,,,,,,,,,,,,,,,,,,,,
,61006e8a4fe954de47730409,001,2022-04-29_04h16.02.606,classification_task,2021.2.3,Win32,60.20832079,61006e8a4fe954de47730409,626b377229c10585ec392f8a,626b3b88d836661cb141158e,,,,,,,,,,,,,,,,,,,,,,,l,1,1.3726,"[""0.035"",""0.400"",""0.777"",""0.813""]","[1,1,0,1]",0,63,63,63,1,1,1,,,1,FALSE,,,,,,,,,,,,,,,,,,,,,,,,,,,,,,
,61006e8a4fe954de47730409,001,2022-04-29_04h16.02.606,classification_task,2021.2.3,Win32,60.20832079,61006e8a4fe954de47730409,626b377229c10585ec392f8a,626b3b88d836661cb141158e,,,,,,,,,,,,,,,,,,,,,,,,,,,,,,,,,,,,,,,0, ,,0,2.379692618,210.2375,0,2,2,2,1,2,3,,,,,,,,,,,,,,,,,
,61006e8a4fe954de47730409,001,2022-04-29_04h16.02.606,classification_task,2021.2.3,Win32,60.20832079,61006e8a4fe954de47730409,626b377229c10585ec392f8a,626b3b88d836661cb141158e,,,,,,,,,,,,,,,,,,,,,,,,,,,,,,,,,,,,,,,1,  ,,0,0.968757874,211.533,0,2,2,2,1,2,3,,,,,,,,,,,,,,,,,
,61006e8a4fe954de47730409,001,2022-04-29_04h16.02.606,classification_task,2021.2.3,Win32,60.20832079,61006e8a4fe954de47730409,626b377229c10585ec392f8a,626b3b88d836661cb141158e,,,,,,,,,,,,,,,,,,,,,,,,,,,,,,,,,,,,,,,2,  ,,0,6.864449483,214.9061,0,2,2,2,1,2,3,,,,,,,,,,,,,,,,,
,61006e8a4fe954de47730409,001,2022-04-29_04h16.02.606,classification_task,2021.2.3,Win32,60.20832079,61006e8a4fe954de47730409,626b377229c10585ec392f8a,626b3b88d836661cb141158e,,,,,,,,,,,,,,,,,,,,,,,,,,,,,,,,,,,,,,,,,,,,,0,2,2,2,1,,3,,,,,,,,,,,,,,,,,
,61006e8a4fe954de47730409,001,2022-04-29_04h16.02.606,classification_task,2021.2.3,Win32,60.20832079,61006e8a4fe954de47730409,626b377229c10585ec392f8a,626b3b88d836661cb141158e,,,,,,,,,,,,,,,,,,,,,,,,,,,,,,,,,,,,,,,,,,,,,,,,,,,,,I believe the aid is a competent performer,,0.7,0,4,992.6817,0,0,0,0,1,0,,,,
,61006e8a4fe954de47730409,001,2022-04-29_04h16.02.606,classification_task,2021.2.3,Win32,60.20832079,61006e8a4fe954de47730409,626b377229c10585ec392f8a,626b3b88d836661cb141158e,,,,,,,,,,,,,,,,,,,,,,,,,,,,,,,,,,,,,,,,,,,,,,,,,,,,,I trust the aid,,0.7,0,5,1027.8749,0,0,0,0,1,0,,,,
,61006e8a4fe954de47730409,001,2022-04-29_04h16.02.606,classification_task,2021.2.3,Win32,60.20832079,61006e8a4fe954de47730409,626b377229c10585ec392f8a,626b3b88d836661cb141158e,,,,,,,,,,,,,,,,,,,,,,,,,,,,,,,,,,,,,,,,,,,,,,,,,,,,,I have confidence in the advice given by the aid,,0.7,0,5,1033.7786,0,0,0,0,1,0,,,,
,61006e8a4fe954de47730409,001,2022-04-29_04h16.02.606,classification_task,2021.2.3,Win32,60.20832079,61006e8a4fe954de47730409,626b377229c10585ec392f8a,626b3b88d836661cb141158e,,,,,,,,,,,,,,,,,,,,,,,,,,,,,,,,,,,,,,,,,,,,,,,,,,,,,I can depend on the aid,,0.7,0,4,1001.6813,0,0,0,0,1,0,,,,
,61006e8a4fe954de47730409,001,2022-04-29_04h16.02.606,classification_task,2021.2.3,Win32,60.20832079,61006e8a4fe954de47730409,626b377229c10585ec392f8a,626b3b88d836661cb141158e,,,,,,,,,,,,,,,,,,,,,,,,,,,,,,,,,,,,,,,,,,,,,,,,,,,,,I can rely on the aid to behave in consistent ways,,0.7,0,3,1005.6446,0,0,0,0,1,0,,,,
,61006e8a4fe954de47730409,001,2022-04-29_04h16.02.606,classification_task,2021.2.3,Win32,60.20832079,61006e8a4fe954de47730409,626b377229c10585ec392f8a,626b3b88d836661cb141158e,,,,,,,,,,,,,,,,,,,,,,,,,,,,,,,,,,,,,,,,,,,,,,,,,,,,,I can rely on the aid to do its best every time I take its advice,,0.7,0,4,1009.7406,0,0,0,0,1,0,,,,
,61006e8a4fe954de47730409,001,2022-04-29_04h16.02.606,classification_task,2021.2.3,Win32,60.20832079,61006e8a4fe954de47730409,626b377229c10585ec392f8a,626b3b88d836661cb141158e,,,,,,,,,,,,,,,,,,,,,,,,,,,,,,,,,,,,,,,,,,,,,,,,,,,,,"On trials you completed with assistance from the aid, how frequently did you think the aid was correct?",,0.7,0,100%,,0,0,0,0,1,0,,,,
,61006e8a4fe954de47730409,001,2022-04-29_04h16.02.606,classification_task,2021.2.3,Win32,60.20832079,61006e8a4fe954de47730409,626b377229c10585ec392f8a,626b3b88d836661cb141158e,,,,,,,,,,,,,,,,,,,,,,,,,,,,,,,,,,,,,,,,,,,,,,,,,,,,,"On trials you completed without the aid, how frequently did you think you were correct?",,0.7,0,40%,,0,0,0,0,1,0,,,,
,61006e8a4fe954de47730409,001,2022-04-29_04h16.02.606,classification_task,2021.2.3,Win32,60.20832079,61006e8a4fe954de47730409,626b377229c10585ec392f8a,626b3b88d836661cb141158e,,,,,,,,,,,,,,,,,,,,,,,,,,,,,,,,,,,,,,,,,,,,,,,,,,,,,,,,,,,0,0,0,0,1,,,,,
,61006e8a4fe954de47730409,001,2022-04-29_04h16.02.606,classification_task,2021.2.3,Win32,60.20832079,61006e8a4fe954de47730409,626b377229c10585ec392f8a,626b3b88d836661cb141158e,,,,,,,,,,,,,,,,,,,,,,,,,,,,,,,,,,,,,,,,,,,,,,,,,,,,,,,,,,,,,,,,,up,12.771,1050.6379,
,61006e8a4fe954de47730409,001,2022-04-29_04h16.02.606,classification_task,2021.2.3,Win32,60.20832079,61006e8a4fe954de47730409,626b377229c10585ec392f8a,626b3b88d836661cb141158e,,,,,,,,,,,,,,,,,,,,,,,,,,,,,,,,,,,,,,,,,,,,,,,,,,,,,,,,,,,,,,,,,,,,"Mozilla/5.0 (Windows NT 10.0; Win64; x64) AppleWebKit/537.36 (KHTML, like Gecko) Chrome/99.0.4844.84 Safari/537.36 OPR/85.0.4341.72"
