usingWebGL,participant,session,date,expName,psychopyVersion,OS,frameRate,study_id,signatures_friend,signatures_foe,band_ranges_top,band_ranges_bottom,formitemText,formtype,formundefined,formitemWidth,formindex,formresponse,formrt,key_resp_2.keys,key_resp_2.rt,tute_resp.keys,tute_resp.rt,tutorial.thisRepN,tutorial.thisTrialN,tutorial.thisN,tutorial.thisIndex,tutorial.ran,key_resp_4.keys,key_resp_4.rt,key_resp.keys,key_resp.corr,key_resp.rt,lines_presented,is_signal_presented,trials.thisRepN,trials.thisTrialN,trials.thisN,trials.thisIndex,trials.ran,vessel,active_band,lines,is_signal,supported_pos,catch_trial,debrief_formindex,debrief_formitemText,debrief_formtype,debrief_formitemWidth,debrief_formresponse,debrief_formrt,phases.thisRepN,phases.thisTrialN,phases.thisN,phases.thisIndex,phases.ran,phases.order,phase,key_resp_3.keys,trustitemText,trusttype,trustitemWidth,trustindex,trustresponse,trustrt,support_status.thisRepN,support_status.thisTrialN,support_status.thisN,support_status.thisIndex,support_status.ran,support_status.order,key_resp_5.keys,key_resp_5.rt,globalClockTime,userAgent,manualCondition
TRUE,6100f8806915845f7cfc1707,627c6f3e3646f4d7c3b15976,2022-05-11_19h22.11.126,classification_task,2021.2.3,MacIntel,60.0024001,627c6715c52fd12f31907bd0,,,,,,,,,,,,,,,,,,,,,,,,,,,,,,,,,,,,,,,,,,,,,,,,,,,,,,,,,,,,,,,,,,,,,
,6100f8806915845f7cfc1707,627c6f3e3646f4d7c3b15976,2022-05-11_19h22.11.126,classification_task,2021.2.3,MacIntel,60.0024001,627c6715c52fd12f31907bd0,"[[""0.209"",""0.348"",""0.735"",""0.931""],[""0.163"",""0.538"",""0.699"",""0.967""]]","[[""0.036"",""0.294"",""0.663"",""0.776""],[""0.097"",""0.251"",""0.623"",""0.832""]]","[1,10]","[100,1000]",Video game experience,,,0.7,0,,,,,,,,,,,,,,,,,,,,,,,,,,,,,,,,,,,,,,,,,,,,,,,,,,,,,,,,,,,,
,6100f8806915845f7cfc1707,627c6f3e3646f4d7c3b15976,2022-05-11_19h22.11.126,classification_task,2021.2.3,MacIntel,60.0024001,627c6715c52fd12f31907bd0,,,,,Approximately how many hours did you spend playing video games in the last week?,,,0.7,0,0,,,,,,,,,,,,,,,,,,,,,,,,,,,,,,,,,,,,,,,,,,,,,,,,,,,,,,,,,,,
,6100f8806915845f7cfc1707,627c6f3e3646f4d7c3b15976,2022-05-11_19h22.11.126,classification_task,2021.2.3,MacIntel,60.0024001,627c6715c52fd12f31907bd0,,,,,"Which game did you play the most this year? (Enter ""None"" if you didn't play any)",,,0.7,0,none,,,,,,,,,,,,,,,,,,,,,,,,,,,,,,,,,,,,,,,,,,,,,,,,,,,,,,,,,,,
,6100f8806915845f7cfc1707,627c6f3e3646f4d7c3b15976,2022-05-11_19h22.11.126,classification_task,2021.2.3,MacIntel,60.0024001,627c6715c52fd12f31907bd0,,,,,Visual perception,,,0.7,0,,,,,,,,,,,,,,,,,,,,,,,,,,,,,,,,,,,,,,,,,,,,,,,,,,,,,,,,,,,,
,6100f8806915845f7cfc1707,627c6f3e3646f4d7c3b15976,2022-05-11_19h22.11.126,classification_task,2021.2.3,MacIntel,60.0024001,627c6715c52fd12f31907bd0,,,,,Do you have any form of color blindness?,,,0.7,0,No,11.7811,,,,,,,,,,,,,,,,,,,,,,,,,,,,,,,,,,,,,,,,,,,,,,,,,,,,,,,,,,
,6100f8806915845f7cfc1707,627c6f3e3646f4d7c3b15976,2022-05-11_19h22.11.126,classification_task,2021.2.3,MacIntel,60.0024001,627c6715c52fd12f31907bd0,,,,,Do you use software to change the colour temperature of your screen (e.g. f.lux)?,,,0.7,0,No,13.6312,,,,,,,,,,,,,,,,,,,,,,,,,,,,,,,,,,,,,,,,,,,,,,,,,,,,,,,,,,
,6100f8806915845f7cfc1707,627c6f3e3646f4d7c3b15976,2022-05-11_19h22.11.126,classification_task,2021.2.3,MacIntel,60.0024001,627c6715c52fd12f31907bd0,,,,,,,,,,,,space,21.9461,space,4.5126,0,0,0,0,1,,,,,,,,,,,,,,,,,,,,,,,,,,,,,,,,,,,,,,,,,,,,,,,,,
,6100f8806915845f7cfc1707,627c6f3e3646f4d7c3b15976,2022-05-11_19h22.11.126,classification_task,2021.2.3,MacIntel,60.0024001,627c6715c52fd12f31907bd0,,,,,,,,,,,,,,space,6.0807,1,0,1,0,1,,,,,,,,,,,,,,,,,,,,,,,,,,,,,,,,,,,,,,,,,,,,,,,,,
,6100f8806915845f7cfc1707,627c6f3e3646f4d7c3b15976,2022-05-11_19h22.11.126,classification_task,2021.2.3,MacIntel,60.0024001,627c6715c52fd12f31907bd0,,,,,,,,,,,,,,space,10.4154,2,0,2,0,1,,,,,,,,,,,,,,,,,,,,,,,,,,,,,,,,,,,,,,,,,,,,,,,,,
,6100f8806915845f7cfc1707,627c6f3e3646f4d7c3b15976,2022-05-11_19h22.11.126,classification_task,2021.2.3,MacIntel,60.0024001,627c6715c52fd12f31907bd0,,,,,,,,,,,,,,space,15.7944,3,0,3,0,1,,,,,,,,,,,,,,,,,,,,,,,,,,,,,,,,,,,,,,,,,,,,,,,,,
,6100f8806915845f7cfc1707,627c6f3e3646f4d7c3b15976,2022-05-11_19h22.11.126,classification_task,2021.2.3,MacIntel,60.0024001,627c6715c52fd12f31907bd0,,,,,,,,,,,,,,space,10.9978,4,0,4,0,1,,,,,,,,,,,,,,,,,,,,,,,,,,,,,,,,,,,,,,,,,,,,,,,,,
,6100f8806915845f7cfc1707,627c6f3e3646f4d7c3b15976,2022-05-11_19h22.11.126,classification_task,2021.2.3,MacIntel,60.0024001,627c6715c52fd12f31907bd0,,,,,,,,,,,,,,,,,,,,,space,5.4452,a,1,3.1274,"[""0.209"",""0.404"",""0.735"",""0.931""]","[1,0,1,1]",0,0,0,0,1,0,0,,,0,FALSE,,,,,,,,,,,,,,,,,,,,,,,,,,,,,,,
,6100f8806915845f7cfc1707,627c6f3e3646f4d7c3b15976,2022-05-11_19h22.11.126,classification_task,2021.2.3,MacIntel,60.0024001,627c6715c52fd12f31907bd0,,,,,,,,,,,,,,,,,,,,,,,a,1,2.301,"[""0.163"",""0.538"",""0.699"",""0.488""]","[1,1,1,0]",0,1,1,1,1,0,1,,,0,FALSE,,,,,,,,,,,,,,,,,,,,,,,,,,,,,,,
,6100f8806915845f7cfc1707,627c6f3e3646f4d7c3b15976,2022-05-11_19h22.11.126,classification_task,2021.2.3,MacIntel,60.0024001,627c6715c52fd12f31907bd0,,,,,,,,,,,,,,,,,,,,,,,l,1,1.8286,"[""0.097"",""0.251"",""0.623"",""0.436""]","[1,1,1,0]",0,2,2,2,1,1,1,,,0,FALSE,,,,,,,,,,,,,,,,,,,,,,,,,,,,,,,
,6100f8806915845f7cfc1707,627c6f3e3646f4d7c3b15976,2022-05-11_19h22.11.126,classification_task,2021.2.3,MacIntel,60.0024001,627c6715c52fd12f31907bd0,,,,,,,,,,,,,,,,,,,,,,,l,1,4.6588,"[""0.895"",""0.251"",""0.623"",""0.832""]","[0,1,1,1]",0,3,3,3,1,1,1,,,0,FALSE,,,,,,,,,,,,,,,,,,,,,,,,,,,,,,,
,6100f8806915845f7cfc1707,627c6f3e3646f4d7c3b15976,2022-05-11_19h22.11.126,classification_task,2021.2.3,MacIntel,60.0024001,627c6715c52fd12f31907bd0,,,,,,,,,,,,,,,,,,,,,,,a,1,3.1041,"[""0.872"",""0.538"",""0.699"",""0.967""]","[0,1,1,1]",0,4,4,4,1,0,1,,,0,FALSE,,,,,,,,,,,,,,,,,,,,,,,,,,,,,,,
,6100f8806915845f7cfc1707,627c6f3e3646f4d7c3b15976,2022-05-11_19h22.11.126,classification_task,2021.2.3,MacIntel,60.0024001,627c6715c52fd12f31907bd0,,,,,,,,,,,,,,,,,,,,,,,a,1,1.7445,"[""0.163"",""0.488"",""0.699"",""0.967""]","[1,0,1,1]",0,5,5,5,1,0,1,,,0,FALSE,,,,,,,,,,,,,,,,,,,,,,,,,,,,,,,
,6100f8806915845f7cfc1707,627c6f3e3646f4d7c3b15976,2022-05-11_19h22.11.126,classification_task,2021.2.3,MacIntel,60.0024001,627c6715c52fd12f31907bd0,,,,,,,,,,,,,,,,,,,,,,,a,1,1.7979,"[""0.163"",""0.538"",""0.879"",""0.967""]","[1,1,0,1]",0,6,6,6,1,0,1,,,0,FALSE,,,,,,,,,,,,,,,,,,,,,,,,,,,,,,,
,6100f8806915845f7cfc1707,627c6f3e3646f4d7c3b15976,2022-05-11_19h22.11.126,classification_task,2021.2.3,MacIntel,60.0024001,627c6715c52fd12f31907bd0,,,,,,,,,,,,,,,,,,,,,,,l,1,3.2512,"[""0.036"",""0.294"",""0.663"",""0.872""]","[1,1,1,0]",0,7,7,7,1,1,0,,,0,FALSE,,,,,,,,,,,,,,,,,,,,,,,,,,,,,,,
,6100f8806915845f7cfc1707,627c6f3e3646f4d7c3b15976,2022-05-11_19h22.11.126,classification_task,2021.2.3,MacIntel,60.0024001,627c6715c52fd12f31907bd0,,,,,,,,,,,,,,,,,,,,,,,l,1,1.678,"[""0.036"",""0.294"",""0.404"",""0.776""]","[1,1,0,1]",0,8,8,8,1,1,0,,,0,FALSE,,,,,,,,,,,,,,,,,,,,,,,,,,,,,,,
,6100f8806915845f7cfc1707,627c6f3e3646f4d7c3b15976,2022-05-11_19h22.11.126,classification_task,2021.2.3,MacIntel,60.0024001,627c6715c52fd12f31907bd0,,,,,,,,,,,,,,,,,,,,,,,l,1,1.947,"[""0.097"",""0.432"",""0.623"",""0.832""]","[1,0,1,1]",0,9,9,9,1,1,1,,,0,FALSE,,,,,,,,,,,,,,,,,,,,,,,,,,,,,,,
,6100f8806915845f7cfc1707,627c6f3e3646f4d7c3b15976,2022-05-11_19h22.11.126,classification_task,2021.2.3,MacIntel,60.0024001,627c6715c52fd12f31907bd0,,,,,,,,,,,,,,,,,,,,,,,a,1,3.2522,"[""0.881"",""0.348"",""0.735"",""0.931""]","[0,1,1,1]",0,10,10,10,1,0,0,,,0,FALSE,,,,,,,,,,,,,,,,,,,,,,,,,,,,,,,
,6100f8806915845f7cfc1707,627c6f3e3646f4d7c3b15976,2022-05-11_19h22.11.126,classification_task,2021.2.3,MacIntel,60.0024001,627c6715c52fd12f31907bd0,,,,,,,,,,,,,,,,,,,,,,,l,1,3.1969,"[""0.097"",""0.251"",""0.488"",""0.832""]","[1,1,0,1]",0,11,11,11,1,1,1,,,0,FALSE,,,,,,,,,,,,,,,,,,,,,,,,,,,,,,,
,6100f8806915845f7cfc1707,627c6f3e3646f4d7c3b15976,2022-05-11_19h22.11.126,classification_task,2021.2.3,MacIntel,60.0024001,627c6715c52fd12f31907bd0,,,,,,,,,,,,,,,,,,,,,,,a,1,1.8526,"[""0.209"",""0.348"",""0.887"",""0.931""]","[1,1,0,1]",0,12,12,12,1,0,0,,,0,FALSE,,,,,,,,,,,,,,,,,,,,,,,,,,,,,,,
,6100f8806915845f7cfc1707,627c6f3e3646f4d7c3b15976,2022-05-11_19h22.11.126,classification_task,2021.2.3,MacIntel,60.0024001,627c6715c52fd12f31907bd0,,,,,,,,,,,,,,,,,,,,,,,l,1,2.513,"[""0.396"",""0.294"",""0.663"",""0.776""]","[0,1,1,1]",0,13,13,13,1,1,0,,,0,FALSE,,,,,,,,,,,,,,,,,,,,,,,,,,,,,,,
,6100f8806915845f7cfc1707,627c6f3e3646f4d7c3b15976,2022-05-11_19h22.11.126,classification_task,2021.2.3,MacIntel,60.0024001,627c6715c52fd12f31907bd0,,,,,,,,,,,,,,,,,,,,,,,a,1,2.0957,"[""0.209"",""0.348"",""0.735"",""0.396""]","[1,1,1,0]",0,14,14,14,1,0,0,,,0,FALSE,,,,,,,,,,,,,,,,,,,,,,,,,,,,,,,
,6100f8806915845f7cfc1707,627c6f3e3646f4d7c3b15976,2022-05-11_19h22.11.126,classification_task,2021.2.3,MacIntel,60.0024001,627c6715c52fd12f31907bd0,,,,,,,,,,,,,,,,,,,,,,,l,1,2.1803,"[""0.036"",""0.404"",""0.663"",""0.776""]","[1,0,1,1]",0,15,15,15,1,1,0,,,0,FALSE,,,,,,,,,,,,,,,,,,,,,,,,,,,,,,,
,6100f8806915845f7cfc1707,627c6f3e3646f4d7c3b15976,2022-05-11_19h22.11.126,classification_task,2021.2.3,MacIntel,60.0024001,627c6715c52fd12f31907bd0,,,,,,,,,,,,,,,,,,,,,,,a,1,1.5801,"[""0.209"",""0.887"",""0.735"",""0.931""]","[1,0,1,1]",0,16,16,16,1,0,0,,,0,FALSE,,,,,,,,,,,,,,,,,,,,,,,,,,,,,,,
,6100f8806915845f7cfc1707,627c6f3e3646f4d7c3b15976,2022-05-11_19h22.11.126,classification_task,2021.2.3,MacIntel,60.0024001,627c6715c52fd12f31907bd0,,,,,,,,,,,,,,,,,,,,,,,a,1,2.2852,"[""0.874"",""0.538"",""0.699"",""0.967""]","[0,1,1,1]",0,17,17,17,1,0,1,,,0,FALSE,,,,,,,,,,,,,,,,,,,,,,,,,,,,,,,
,6100f8806915845f7cfc1707,627c6f3e3646f4d7c3b15976,2022-05-11_19h22.11.126,classification_task,2021.2.3,MacIntel,60.0024001,627c6715c52fd12f31907bd0,,,,,,,,,,,,,,,,,,,,,,,a,1,1.8259,"[""0.163"",""0.871"",""0.699"",""0.967""]","[1,0,1,1]",0,18,18,18,1,0,1,,,0,FALSE,,,,,,,,,,,,,,,,,,,,,,,,,,,,,,,
,6100f8806915845f7cfc1707,627c6f3e3646f4d7c3b15976,2022-05-11_19h22.11.126,classification_task,2021.2.3,MacIntel,60.0024001,627c6715c52fd12f31907bd0,,,,,,,,,,,,,,,,,,,,,,,l,1,1.7865,"[""0.036"",""0.396"",""0.663"",""0.776""]","[1,0,1,1]",0,19,19,19,1,1,0,,,0,FALSE,,,,,,,,,,,,,,,,,,,,,,,,,,,,,,,
,6100f8806915845f7cfc1707,627c6f3e3646f4d7c3b15976,2022-05-11_19h22.11.126,classification_task,2021.2.3,MacIntel,60.0024001,627c6715c52fd12f31907bd0,,,,,,,,,,,,,,,,,,,,,,,a,1,2.0832,"[""0.163"",""0.538"",""0.881"",""0.967""]","[1,1,0,1]",0,20,20,20,1,0,1,,,0,FALSE,,,,,,,,,,,,,,,,,,,,,,,,,,,,,,,
,6100f8806915845f7cfc1707,627c6f3e3646f4d7c3b15976,2022-05-11_19h22.11.126,classification_task,2021.2.3,MacIntel,60.0024001,627c6715c52fd12f31907bd0,,,,,,,,,,,,,,,,,,,,,,,l,1,2.362,"[""0.887"",""0.294"",""0.663"",""0.776""]","[0,1,1,1]",0,21,21,21,1,1,0,,,0,FALSE,,,,,,,,,,,,,,,,,,,,,,,,,,,,,,,
,6100f8806915845f7cfc1707,627c6f3e3646f4d7c3b15976,2022-05-11_19h22.11.126,classification_task,2021.2.3,MacIntel,60.0024001,627c6715c52fd12f31907bd0,,,,,,,,,,,,,,,,,,,,,,,l,1,2.1209,"[""0.097"",""0.251"",""0.467"",""0.832""]","[1,1,0,1]",0,22,22,22,1,1,1,,,0,FALSE,,,,,,,,,,,,,,,,,,,,,,,,,,,,,,,
,6100f8806915845f7cfc1707,627c6f3e3646f4d7c3b15976,2022-05-11_19h22.11.126,classification_task,2021.2.3,MacIntel,60.0024001,627c6715c52fd12f31907bd0,,,,,,,,,,,,,,,,,,,,,,,l,1,1.7392,"[""0.036"",""0.294"",""0.584"",""0.776""]","[1,1,0,1]",0,23,23,23,1,1,0,,,0,FALSE,,,,,,,,,,,,,,,,,,,,,,,,,,,,,,,
,6100f8806915845f7cfc1707,627c6f3e3646f4d7c3b15976,2022-05-11_19h22.11.126,classification_task,2021.2.3,MacIntel,60.0024001,627c6715c52fd12f31907bd0,,,,,,,,,,,,,,,,,,,,,,,l,1,2.1472,"[""0.097"",""0.408"",""0.623"",""0.832""]","[1,0,1,1]",0,24,24,24,1,1,1,,,0,FALSE,,,,,,,,,,,,,,,,,,,,,,,,,,,,,,,
,6100f8806915845f7cfc1707,627c6f3e3646f4d7c3b15976,2022-05-11_19h22.11.126,classification_task,2021.2.3,MacIntel,60.0024001,627c6715c52fd12f31907bd0,,,,,,,,,,,,,,,,,,,,,,,l,1,2.4927,"[""0.872"",""0.251"",""0.623"",""0.832""]","[0,1,1,1]",0,25,25,25,1,1,1,,,0,FALSE,,,,,,,,,,,,,,,,,,,,,,,,,,,,,,,
,6100f8806915845f7cfc1707,627c6f3e3646f4d7c3b15976,2022-05-11_19h22.11.126,classification_task,2021.2.3,MacIntel,60.0024001,627c6715c52fd12f31907bd0,,,,,,,,,,,,,,,,,,,,,,,a,1,1.3991,"[""0.163"",""0.538"",""0.699"",""0.871""]","[1,1,1,0]",0,26,26,26,1,0,1,,,0,FALSE,,,,,,,,,,,,,,,,,,,,,,,,,,,,,,,
,6100f8806915845f7cfc1707,627c6f3e3646f4d7c3b15976,2022-05-11_19h22.11.126,classification_task,2021.2.3,MacIntel,60.0024001,627c6715c52fd12f31907bd0,,,,,,,,,,,,,,,,,,,,,,,l,1,1.6757,"[""0.097"",""0.251"",""0.623"",""0.879""]","[1,1,1,0]",0,27,27,27,1,1,1,,,0,FALSE,,,,,,,,,,,,,,,,,,,,,,,,,,,,,,,
,6100f8806915845f7cfc1707,627c6f3e3646f4d7c3b15976,2022-05-11_19h22.11.126,classification_task,2021.2.3,MacIntel,60.0024001,627c6715c52fd12f31907bd0,,,,,,,,,,,,,,,,,,,,,,,l,1,1.944,"[""0.036"",""0.294"",""0.663"",""0.872""]","[1,1,1,0]",0,28,28,28,1,1,0,,,0,FALSE,,,,,,,,,,,,,,,,,,,,,,,,,,,,,,,
,6100f8806915845f7cfc1707,627c6f3e3646f4d7c3b15976,2022-05-11_19h22.11.126,classification_task,2021.2.3,MacIntel,60.0024001,627c6715c52fd12f31907bd0,,,,,,,,,,,,,,,,,,,,,,,a,1,1.8738,"[""0.396"",""0.348"",""0.735"",""0.931""]","[0,1,1,1]",0,29,29,29,1,0,0,,,0,FALSE,,,,,,,,,,,,,,,,,,,,,,,,,,,,,,,
,6100f8806915845f7cfc1707,627c6f3e3646f4d7c3b15976,2022-05-11_19h22.11.126,classification_task,2021.2.3,MacIntel,60.0024001,627c6715c52fd12f31907bd0,,,,,,,,,,,,,,,,,,,,,,,a,1,2.675,"[""0.209"",""0.348"",""0.735"",""0.404""]","[1,1,1,0]",0,30,30,30,1,0,0,,,0,FALSE,,,,,,,,,,,,,,,,,,,,,,,,,,,,,,,
,6100f8806915845f7cfc1707,627c6f3e3646f4d7c3b15976,2022-05-11_19h22.11.126,classification_task,2021.2.3,MacIntel,60.0024001,627c6715c52fd12f31907bd0,,,,,,,,,,,,,,,,,,,,,,,a,1,2.882,"[""0.209"",""0.348"",""0.871"",""0.931""]","[1,1,0,1]",0,31,31,31,1,0,0,,,0,FALSE,,,,,,,,,,,,,,,,,,,,,,,,,,,,,,,
,6100f8806915845f7cfc1707,627c6f3e3646f4d7c3b15976,2022-05-11_19h22.11.126,classification_task,2021.2.3,MacIntel,60.0024001,627c6715c52fd12f31907bd0,,,,,,,,,,,,,,,,,,,,,,,l,1,2.9264,"[""0.895"",""0.294"",""0.663"",""0.776""]","[0,1,1,1]",0,32,32,32,1,1,0,,,0,FALSE,,,,,,,,,,,,,,,,,,,,,,,,,,,,,,,
,6100f8806915845f7cfc1707,627c6f3e3646f4d7c3b15976,2022-05-11_19h22.11.126,classification_task,2021.2.3,MacIntel,60.0024001,627c6715c52fd12f31907bd0,,,,,,,,,,,,,,,,,,,,,,,a,1,0.8295,"[""0.209"",""0.436"",""0.735"",""0.931""]","[1,0,1,1]",0,33,33,33,1,0,0,,,0,FALSE,,,,,,,,,,,,,,,,,,,,,,,,,,,,,,,
,6100f8806915845f7cfc1707,627c6f3e3646f4d7c3b15976,2022-05-11_19h22.11.126,classification_task,2021.2.3,MacIntel,60.0024001,627c6715c52fd12f31907bd0,,,,,,,,,,,,,,,,,,,,,,,l,0,1.43,"[""0.432"",""0.348"",""0.735"",""0.931""]","[0,1,1,1]",0,34,34,34,1,0,0,,,0,FALSE,,,,,,,,,,,,,,,,,,,,,,,,,,,,,,,
,6100f8806915845f7cfc1707,627c6f3e3646f4d7c3b15976,2022-05-11_19h22.11.126,classification_task,2021.2.3,MacIntel,60.0024001,627c6715c52fd12f31907bd0,,,,,,,,,,,,,,,,,,,,,,,a,1,1.344,"[""0.209"",""0.348"",""0.872"",""0.931""]","[1,1,0,1]",0,35,35,35,1,0,0,,,0,FALSE,,,,,,,,,,,,,,,,,,,,,,,,,,,,,,,
,6100f8806915845f7cfc1707,627c6f3e3646f4d7c3b15976,2022-05-11_19h22.11.126,classification_task,2021.2.3,MacIntel,60.0024001,627c6715c52fd12f31907bd0,,,,,,,,,,,,,,,,,,,,,,,a,1,0.9128,"[""0.209"",""0.348"",""0.735"",""0.887""]","[1,1,1,0]",0,36,36,36,1,0,0,,,0,FALSE,,,,,,,,,,,,,,,,,,,,,,,,,,,,,,,
,6100f8806915845f7cfc1707,627c6f3e3646f4d7c3b15976,2022-05-11_19h22.11.126,classification_task,2021.2.3,MacIntel,60.0024001,627c6715c52fd12f31907bd0,,,,,,,,,,,,,,,,,,,,,,,a,1,1.655,"[""0.163"",""0.488"",""0.699"",""0.967""]","[1,0,1,1]",0,37,37,37,1,0,1,,,0,FALSE,,,,,,,,,,,,,,,,,,,,,,,,,,,,,,,
,6100f8806915845f7cfc1707,627c6f3e3646f4d7c3b15976,2022-05-11_19h22.11.126,classification_task,2021.2.3,MacIntel,60.0024001,627c6715c52fd12f31907bd0,,,,,,,,,,,,,,,,,,,,,,,l,1,0.7258,"[""0.097"",""0.251"",""0.488"",""0.832""]","[1,1,0,1]",0,38,38,38,1,1,1,,,0,FALSE,,,,,,,,,,,,,,,,,,,,,,,,,,,,,,,
,6100f8806915845f7cfc1707,627c6f3e3646f4d7c3b15976,2022-05-11_19h22.11.126,classification_task,2021.2.3,MacIntel,60.0024001,627c6715c52fd12f31907bd0,,,,,,,,,,,,,,,,,,,,,,,l,1,0.6614,"[""0.097"",""0.251"",""0.623"",""0.467""]","[1,1,1,0]",0,39,39,39,1,1,1,,,0,FALSE,,,,,,,,,,,,,,,,,,,,,,,,,,,,,,,
,6100f8806915845f7cfc1707,627c6f3e3646f4d7c3b15976,2022-05-11_19h22.11.126,classification_task,2021.2.3,MacIntel,60.0024001,627c6715c52fd12f31907bd0,,,,,,,,,,,,,,,,,,,,,,,a,1,1.496,"[""0.436"",""0.538"",""0.699"",""0.967""]","[0,1,1,1]",0,40,40,40,1,0,1,,,0,FALSE,,,,,,,,,,,,,,,,,,,,,,,,,,,,,,,
,6100f8806915845f7cfc1707,627c6f3e3646f4d7c3b15976,2022-05-11_19h22.11.126,classification_task,2021.2.3,MacIntel,60.0024001,627c6715c52fd12f31907bd0,,,,,,,,,,,,,,,,,,,,,,,l,1,0.877,"[""0.097"",""0.488"",""0.623"",""0.832""]","[1,0,1,1]",0,41,41,41,1,1,1,,,0,FALSE,,,,,,,,,,,,,,,,,,,,,,,,,,,,,,,
,6100f8806915845f7cfc1707,627c6f3e3646f4d7c3b15976,2022-05-11_19h22.11.126,classification_task,2021.2.3,MacIntel,60.0024001,627c6715c52fd12f31907bd0,,,,,,,,,,,,,,,,,,,,,,,a,1,0.8166,"[""0.163"",""0.538"",""0.699"",""0.467""]","[1,1,1,0]",0,42,42,42,1,0,1,,,0,FALSE,,,,,,,,,,,,,,,,,,,,,,,,,,,,,,,
,6100f8806915845f7cfc1707,627c6f3e3646f4d7c3b15976,2022-05-11_19h22.11.126,classification_task,2021.2.3,MacIntel,60.0024001,627c6715c52fd12f31907bd0,,,,,,,,,,,,,,,,,,,,,,,l,1,0.7918,"[""0.036"",""0.872"",""0.663"",""0.776""]","[1,0,1,1]",0,43,43,43,1,1,0,,,0,FALSE,,,,,,,,,,,,,,,,,,,,,,,,,,,,,,,
,6100f8806915845f7cfc1707,627c6f3e3646f4d7c3b15976,2022-05-11_19h22.11.126,classification_task,2021.2.3,MacIntel,60.0024001,627c6715c52fd12f31907bd0,,,,,,,,,,,,,,,,,,,,,,,l,1,0.6267,"[""0.036"",""0.294"",""0.663"",""0.436""]","[1,1,1,0]",0,44,44,44,1,1,0,,,0,FALSE,,,,,,,,,,,,,,,,,,,,,,,,,,,,,,,
,6100f8806915845f7cfc1707,627c6f3e3646f4d7c3b15976,2022-05-11_19h22.11.126,classification_task,2021.2.3,MacIntel,60.0024001,627c6715c52fd12f31907bd0,,,,,,,,,,,,,,,,,,,,,,,a,1,0.8589,"[""0.163"",""0.538"",""0.887"",""0.967""]","[1,1,0,1]",0,45,45,45,1,0,1,,,0,FALSE,,,,,,,,,,,,,,,,,,,,,,,,,,,,,,,
,6100f8806915845f7cfc1707,627c6f3e3646f4d7c3b15976,2022-05-11_19h22.11.126,classification_task,2021.2.3,MacIntel,60.0024001,627c6715c52fd12f31907bd0,,,,,,,,,,,,,,,,,,,,,,,l,1,0.6773,"[""0.036"",""0.294"",""0.868"",""0.776""]","[1,1,0,1]",0,46,46,46,1,1,0,,,0,FALSE,,,,,,,,,,,,,,,,,,,,,,,,,,,,,,,
,6100f8806915845f7cfc1707,627c6f3e3646f4d7c3b15976,2022-05-11_19h22.11.126,classification_task,2021.2.3,MacIntel,60.0024001,627c6715c52fd12f31907bd0,,,,,,,,,,,,,,,,,,,,,,,a,0,0.7239,"[""0.404"",""0.251"",""0.623"",""0.832""]","[0,1,1,1]",0,47,47,47,1,1,1,,,0,FALSE,,,,,,,,,,,,,,,,,,,,,,,,,,,,,,,
,6100f8806915845f7cfc1707,627c6f3e3646f4d7c3b15976,2022-05-11_19h22.11.126,classification_task,2021.2.3,MacIntel,60.0024001,627c6715c52fd12f31907bd0,,,,,,,,,,,,,,,,,,,,,,,l,1,1.3452,"[""0.036"",""0.294"",""0.467"",""0.776""]","[1,1,0,1]",0,48,48,48,1,1,0,,,0,FALSE,,,,,,,,,,,,,,,,,,,,,,,,,,,,,,,
,6100f8806915845f7cfc1707,627c6f3e3646f4d7c3b15976,2022-05-11_19h22.11.126,classification_task,2021.2.3,MacIntel,60.0024001,627c6715c52fd12f31907bd0,,,,,,,,,,,,,,,,,,,,,,,a,1,0.8466,"[""0.209"",""0.584"",""0.735"",""0.931""]","[1,0,1,1]",0,49,49,49,1,0,0,,,0,FALSE,,,,,,,,,,,,,,,,,,,,,,,,,,,,,,,
,6100f8806915845f7cfc1707,627c6f3e3646f4d7c3b15976,2022-05-11_19h22.11.126,classification_task,2021.2.3,MacIntel,60.0024001,627c6715c52fd12f31907bd0,,,,,,,,,,,,,,,,,,,,,,,a,1,0.7625,"[""0.209"",""0.348"",""0.872"",""0.931""]","[1,1,0,1]",0,50,50,50,1,0,0,,,0,FALSE,,,,,,,,,,,,,,,,,,,,,,,,,,,,,,,
,6100f8806915845f7cfc1707,627c6f3e3646f4d7c3b15976,2022-05-11_19h22.11.126,classification_task,2021.2.3,MacIntel,60.0024001,627c6715c52fd12f31907bd0,,,,,,,,,,,,,,,,,,,,,,,l,1,0.9272,"[""0.097"",""0.251"",""0.887"",""0.832""]","[1,1,0,1]",0,51,51,51,1,1,1,,,0,FALSE,,,,,,,,,,,,,,,,,,,,,,,,,,,,,,,
,6100f8806915845f7cfc1707,627c6f3e3646f4d7c3b15976,2022-05-11_19h22.11.126,classification_task,2021.2.3,MacIntel,60.0024001,627c6715c52fd12f31907bd0,,,,,,,,,,,,,,,,,,,,,,,a,1,1.6273,"[""0.436"",""0.348"",""0.735"",""0.931""]","[0,1,1,1]",0,52,52,52,1,0,0,,,0,FALSE,,,,,,,,,,,,,,,,,,,,,,,,,,,,,,,
,6100f8806915845f7cfc1707,627c6f3e3646f4d7c3b15976,2022-05-11_19h22.11.126,classification_task,2021.2.3,MacIntel,60.0024001,627c6715c52fd12f31907bd0,,,,,,,,,,,,,,,,,,,,,,,a,1,1.1778,"[""0.209"",""0.348"",""0.735"",""0.436""]","[1,1,1,0]",0,53,53,53,1,0,0,,,0,FALSE,,,,,,,,,,,,,,,,,,,,,,,,,,,,,,,
,6100f8806915845f7cfc1707,627c6f3e3646f4d7c3b15976,2022-05-11_19h22.11.126,classification_task,2021.2.3,MacIntel,60.0024001,627c6715c52fd12f31907bd0,,,,,,,,,,,,,,,,,,,,,,,l,1,0.9662,"[""0.097"",""0.871"",""0.623"",""0.832""]","[1,0,1,1]",0,54,54,54,1,1,1,,,0,FALSE,,,,,,,,,,,,,,,,,,,,,,,,,,,,,,,
,6100f8806915845f7cfc1707,627c6f3e3646f4d7c3b15976,2022-05-11_19h22.11.126,classification_task,2021.2.3,MacIntel,60.0024001,627c6715c52fd12f31907bd0,,,,,,,,,,,,,,,,,,,,,,,l,1,1.1632,"[""0.097"",""0.251"",""0.623"",""0.874""]","[1,1,1,0]",0,55,55,55,1,1,1,,,0,FALSE,,,,,,,,,,,,,,,,,,,,,,,,,,,,,,,
,6100f8806915845f7cfc1707,627c6f3e3646f4d7c3b15976,2022-05-11_19h22.11.126,classification_task,2021.2.3,MacIntel,60.0024001,627c6715c52fd12f31907bd0,,,,,,,,,,,,,,,,,,,,,,,l,1,1.0486,"[""0.467"",""0.251"",""0.623"",""0.832""]","[0,1,1,1]",0,56,56,56,1,1,1,,,0,FALSE,,,,,,,,,,,,,,,,,,,,,,,,,,,,,,,
,6100f8806915845f7cfc1707,627c6f3e3646f4d7c3b15976,2022-05-11_19h22.11.126,classification_task,2021.2.3,MacIntel,60.0024001,627c6715c52fd12f31907bd0,,,,,,,,,,,,,,,,,,,,,,,a,1,0.7186,"[""0.163"",""0.879"",""0.699"",""0.967""]","[1,0,1,1]",0,57,57,57,1,0,1,,,0,FALSE,,,,,,,,,,,,,,,,,,,,,,,,,,,,,,,
,6100f8806915845f7cfc1707,627c6f3e3646f4d7c3b15976,2022-05-11_19h22.11.126,classification_task,2021.2.3,MacIntel,60.0024001,627c6715c52fd12f31907bd0,,,,,,,,,,,,,,,,,,,,,,,a,1,0.661,"[""0.163"",""0.538"",""0.699"",""0.895""]","[1,1,1,0]",0,58,58,58,1,0,1,,,0,FALSE,,,,,,,,,,,,,,,,,,,,,,,,,,,,,,,
,6100f8806915845f7cfc1707,627c6f3e3646f4d7c3b15976,2022-05-11_19h22.11.126,classification_task,2021.2.3,MacIntel,60.0024001,627c6715c52fd12f31907bd0,,,,,,,,,,,,,,,,,,,,,,,a,1,0.7127,"[""0.163"",""0.538"",""0.868"",""0.967""]","[1,1,0,1]",0,59,59,59,1,0,1,,,0,FALSE,,,,,,,,,,,,,,,,,,,,,,,,,,,,,,,
,6100f8806915845f7cfc1707,627c6f3e3646f4d7c3b15976,2022-05-11_19h22.11.126,classification_task,2021.2.3,MacIntel,60.0024001,627c6715c52fd12f31907bd0,,,,,,,,,,,,,,,,,,,,,,,l,1,0.8758,"[""0.404"",""0.294"",""0.663"",""0.776""]","[0,1,1,1]",0,60,60,60,1,1,0,,,0,FALSE,,,,,,,,,,,,,,,,,,,,,,,,,,,,,,,
,6100f8806915845f7cfc1707,627c6f3e3646f4d7c3b15976,2022-05-11_19h22.11.126,classification_task,2021.2.3,MacIntel,60.0024001,627c6715c52fd12f31907bd0,,,,,,,,,,,,,,,,,,,,,,,l,1,0.6781,"[""0.036"",""0.881"",""0.663"",""0.776""]","[1,0,1,1]",0,61,61,61,1,1,0,,,0,FALSE,,,,,,,,,,,,,,,,,,,,,,,,,,,,,,,
,6100f8806915845f7cfc1707,627c6f3e3646f4d7c3b15976,2022-05-11_19h22.11.126,classification_task,2021.2.3,MacIntel,60.0024001,627c6715c52fd12f31907bd0,,,,,,,,,,,,,,,,,,,,,,,l,0,1.4094,"[""0.887"",""0.538"",""0.699"",""0.967""]","[0,1,1,1]",0,62,62,62,1,0,1,,,0,FALSE,,,,,,,,,,,,,,,,,,,,,,,,,,,,,,,
,6100f8806915845f7cfc1707,627c6f3e3646f4d7c3b15976,2022-05-11_19h22.11.126,classification_task,2021.2.3,MacIntel,60.0024001,627c6715c52fd12f31907bd0,,,,,,,,,,,,,,,,,,,,,,,l,1,0.786,"[""0.036"",""0.294"",""0.663"",""0.872""]","[1,1,1,0]",0,63,63,63,1,1,0,,,0,FALSE,,,,,,,,,,,,,,,,,,,,,,,,,,,,,,,
,6100f8806915845f7cfc1707,627c6f3e3646f4d7c3b15976,2022-05-11_19h22.11.126,classification_task,2021.2.3,MacIntel,60.0024001,627c6715c52fd12f31907bd0,,,,,,,,,,,,,,,,,,,,,,,,,,,,,,,,,,,,,,,0, ,,0,0,275.0644,0,0,0,0,1,2,1,,,,,,,,,,,,,,,,,,
,6100f8806915845f7cfc1707,627c6f3e3646f4d7c3b15976,2022-05-11_19h22.11.126,classification_task,2021.2.3,MacIntel,60.0024001,627c6715c52fd12f31907bd0,,,,,,,,,,,,,,,,,,,,,,,,,,,,,,,,,,,,,,,1,  ,,0,4.04203869,282.9811,0,0,0,0,1,2,1,,,,,,,,,,,,,,,,,,
,6100f8806915845f7cfc1707,627c6f3e3646f4d7c3b15976,2022-05-11_19h22.11.126,classification_task,2021.2.3,MacIntel,60.0024001,627c6715c52fd12f31907bd0,,,,,,,,,,,,,,,,,,,,,,,,,,,,,,,,,,,,,,,2,  ,,0,0,286.516,0,0,0,0,1,2,1,,,,,,,,,,,,,,,,,,
,6100f8806915845f7cfc1707,627c6f3e3646f4d7c3b15976,2022-05-11_19h22.11.126,classification_task,2021.2.3,MacIntel,60.0024001,627c6715c52fd12f31907bd0,,,,,,,,,,,,,,,,,,,,,,,,,,,,,,,,,,,,,,,,,,,,,0,0,0,0,1,,1,,,,,,,,,,,,,,,,,,
,6100f8806915845f7cfc1707,627c6f3e3646f4d7c3b15976,2022-05-11_19h22.11.126,classification_task,2021.2.3,MacIntel,60.0024001,627c6715c52fd12f31907bd0,,,,,,,,,,,,,,,,,,,,,space,10.6946,l,1,2.5807,"[""0.097"",""0.251"",""0.871"",""0.832""]","[1,1,0,1]",0,0,0,0,1,1,1,,,0,FALSE,,,,,,,,,,,,,,,,,,,,,,,,,,,,,,,
,6100f8806915845f7cfc1707,627c6f3e3646f4d7c3b15976,2022-05-11_19h22.11.126,classification_task,2021.2.3,MacIntel,60.0024001,627c6715c52fd12f31907bd0,,,,,,,,,,,,,,,,,,,,,,,a,1,1.4844,"[""0.163"",""0.538"",""0.699"",""0.404""]","[1,1,1,0]",0,1,1,1,1,0,1,,,0,FALSE,,,,,,,,,,,,,,,,,,,,,,,,,,,,,,,
,6100f8806915845f7cfc1707,627c6f3e3646f4d7c3b15976,2022-05-11_19h22.11.126,classification_task,2021.2.3,MacIntel,60.0024001,627c6715c52fd12f31907bd0,,,,,,,,,,,,,,,,,,,,,,,a,1,3.3678,"[""0.209"",""0.348"",""0.735"",""0.404""]","[1,1,1,0]",0,2,2,2,1,0,0,,,0,FALSE,,,,,,,,,,,,,,,,,,,,,,,,,,,,,,,
,6100f8806915845f7cfc1707,627c6f3e3646f4d7c3b15976,2022-05-11_19h22.11.126,classification_task,2021.2.3,MacIntel,60.0024001,627c6715c52fd12f31907bd0,,,,,,,,,,,,,,,,,,,,,,,l,1,0.9956,"[""0.436"",""0.251"",""0.623"",""0.832""]","[0,1,1,1]",0,3,3,3,1,1,1,,,0,FALSE,,,,,,,,,,,,,,,,,,,,,,,,,,,,,,,
,6100f8806915845f7cfc1707,627c6f3e3646f4d7c3b15976,2022-05-11_19h22.11.126,classification_task,2021.2.3,MacIntel,60.0024001,627c6715c52fd12f31907bd0,,,,,,,,,,,,,,,,,,,,,,,l,1,1.044,"[""0.097"",""0.251"",""0.623"",""0.432""]","[1,1,1,0]",0,4,4,4,1,1,1,,,0,FALSE,,,,,,,,,,,,,,,,,,,,,,,,,,,,,,,
,6100f8806915845f7cfc1707,627c6f3e3646f4d7c3b15976,2022-05-11_19h22.11.126,classification_task,2021.2.3,MacIntel,60.0024001,627c6715c52fd12f31907bd0,,,,,,,,,,,,,,,,,,,,,,,l,0,1.1188,"[""0.868"",""0.538"",""0.699"",""0.967""]","[0,1,1,1]",0,5,5,5,1,0,1,,,0,FALSE,,,,,,,,,,,,,,,,,,,,,,,,,,,,,,,
,6100f8806915845f7cfc1707,627c6f3e3646f4d7c3b15976,2022-05-11_19h22.11.126,classification_task,2021.2.3,MacIntel,60.0024001,627c6715c52fd12f31907bd0,,,,,,,,,,,,,,,,,,,,,,,a,1,0.9351,"[""0.163"",""0.538"",""0.887"",""0.967""]","[1,1,0,1]",0,6,6,6,1,0,1,,,0,FALSE,,,,,,,,,,,,,,,,,,,,,,,,,,,,,,,
,6100f8806915845f7cfc1707,627c6f3e3646f4d7c3b15976,2022-05-11_19h22.11.126,classification_task,2021.2.3,MacIntel,60.0024001,627c6715c52fd12f31907bd0,,,,,,,,,,,,,,,,,,,,,,,l,1,0.7796,"[""0.097"",""0.404"",""0.623"",""0.832""]","[1,0,1,1]",0,7,7,7,1,1,1,,,0,FALSE,,,,,,,,,,,,,,,,,,,,,,,,,,,,,,,
,6100f8806915845f7cfc1707,627c6f3e3646f4d7c3b15976,2022-05-11_19h22.11.126,classification_task,2021.2.3,MacIntel,60.0024001,627c6715c52fd12f31907bd0,,,,,,,,,,,,,,,,,,,,,,,a,1,0.7931,"[""0.163"",""0.432"",""0.699"",""0.967""]","[1,0,1,1]",0,8,8,8,1,0,1,,,0,FALSE,,,,,,,,,,,,,,,,,,,,,,,,,,,,,,,
,6100f8806915845f7cfc1707,627c6f3e3646f4d7c3b15976,2022-05-11_19h22.11.126,classification_task,2021.2.3,MacIntel,60.0024001,627c6715c52fd12f31907bd0,,,,,,,,,,,,,,,,,,,,,,,l,1,1.0542,"[""0.036"",""0.436"",""0.663"",""0.776""]","[1,0,1,1]",0,9,9,9,1,1,0,,,0,FALSE,,,,,,,,,,,,,,,,,,,,,,,,,,,,,,,
,6100f8806915845f7cfc1707,627c6f3e3646f4d7c3b15976,2022-05-11_19h22.11.126,classification_task,2021.2.3,MacIntel,60.0024001,627c6715c52fd12f31907bd0,,,,,,,,,,,,,,,,,,,,,,,l,1,1.0598,"[""0.872"",""0.294"",""0.663"",""0.776""]","[0,1,1,1]",0,10,10,10,1,1,0,,,0,FALSE,,,,,,,,,,,,,,,,,,,,,,,,,,,,,,,
,6100f8806915845f7cfc1707,627c6f3e3646f4d7c3b15976,2022-05-11_19h22.11.126,classification_task,2021.2.3,MacIntel,60.0024001,627c6715c52fd12f31907bd0,,,,,,,,,,,,,,,,,,,,,,,l,1,0.8703,"[""0.036"",""0.294"",""0.874"",""0.776""]","[1,1,0,1]",0,11,11,11,1,1,0,,,0,FALSE,,,,,,,,,,,,,,,,,,,,,,,,,,,,,,,
,6100f8806915845f7cfc1707,627c6f3e3646f4d7c3b15976,2022-05-11_19h22.11.126,classification_task,2021.2.3,MacIntel,60.0024001,627c6715c52fd12f31907bd0,,,,,,,,,,,,,,,,,,,,,,,l,1,0.7435,"[""0.036"",""0.294"",""0.663"",""0.881""]","[1,1,1,0]",0,12,12,12,1,1,0,,,0,FALSE,,,,,,,,,,,,,,,,,,,,,,,,,,,,,,,
,6100f8806915845f7cfc1707,627c6f3e3646f4d7c3b15976,2022-05-11_19h22.11.126,classification_task,2021.2.3,MacIntel,60.0024001,627c6715c52fd12f31907bd0,,,,,,,,,,,,,,,,,,,,,,,a,1,0.8264,"[""0.209"",""0.348"",""0.396"",""0.931""]","[1,1,0,1]",0,13,13,13,1,0,0,,,0,FALSE,,,,,,,,,,,,,,,,,,,,,,,,,,,,,,,
,6100f8806915845f7cfc1707,627c6f3e3646f4d7c3b15976,2022-05-11_19h22.11.126,classification_task,2021.2.3,MacIntel,60.0024001,627c6715c52fd12f31907bd0,,,,,,,,,,,,,,,,,,,,,,,a,1,0.7472,"[""0.209"",""0.895"",""0.735"",""0.931""]","[1,0,1,1]",0,14,14,14,1,0,0,,,0,FALSE,,,,,,,,,,,,,,,,,,,,,,,,,,,,,,,
,6100f8806915845f7cfc1707,627c6f3e3646f4d7c3b15976,2022-05-11_19h22.11.126,classification_task,2021.2.3,MacIntel,60.0024001,627c6715c52fd12f31907bd0,,,,,,,,,,,,,,,,,,,,,,,a,1,0.8431,"[""0.872"",""0.348"",""0.735"",""0.931""]","[0,1,1,1]",0,15,15,15,1,0,0,,,0,FALSE,,,,,,,,,,,,,,,,,,,,,,,,,,,,,,,
,6100f8806915845f7cfc1707,627c6f3e3646f4d7c3b15976,2022-05-11_19h22.11.126,classification_task,2021.2.3,MacIntel,60.0024001,627c6715c52fd12f31907bd0,,,,,,,,,,,,,,,,,,,,,,,l,1,1.2098,"[""0.097"",""0.874"",""0.623"",""0.832""]","[1,0,1,1]",0,16,16,16,1,1,1,,,0,FALSE,,,,,,,,,,,,,,,,,,,,,,,,,,,,,,,
,6100f8806915845f7cfc1707,627c6f3e3646f4d7c3b15976,2022-05-11_19h22.11.126,classification_task,2021.2.3,MacIntel,60.0024001,627c6715c52fd12f31907bd0,,,,,,,,,,,,,,,,,,,,,,,a,1,0.987,"[""0.209"",""0.348"",""0.735"",""0.467""]","[1,1,1,0]",0,17,17,17,1,0,0,,,0,FALSE,,,,,,,,,,,,,,,,,,,,,,,,,,,,,,,
,6100f8806915845f7cfc1707,627c6f3e3646f4d7c3b15976,2022-05-11_19h22.11.126,classification_task,2021.2.3,MacIntel,60.0024001,627c6715c52fd12f31907bd0,,,,,,,,,,,,,,,,,,,,,,,a,1,0.7332,"[""0.163"",""0.881"",""0.699"",""0.967""]","[1,0,1,1]",0,18,18,18,1,0,1,,,0,FALSE,,,,,,,,,,,,,,,,,,,,,,,,,,,,,,,
,6100f8806915845f7cfc1707,627c6f3e3646f4d7c3b15976,2022-05-11_19h22.11.126,classification_task,2021.2.3,MacIntel,60.0024001,627c6715c52fd12f31907bd0,,,,,,,,,,,,,,,,,,,,,,,a,1,1.3676,"[""0.467"",""0.348"",""0.735"",""0.931""]","[0,1,1,1]",0,19,19,19,1,0,0,,,0,FALSE,,,,,,,,,,,,,,,,,,,,,,,,,,,,,,,
,6100f8806915845f7cfc1707,627c6f3e3646f4d7c3b15976,2022-05-11_19h22.11.126,classification_task,2021.2.3,MacIntel,60.0024001,627c6715c52fd12f31907bd0,,,,,,,,,,,,,,,,,,,,,,,a,1,0.93,"[""0.163"",""0.538"",""0.699"",""0.404""]","[1,1,1,0]",0,20,20,20,1,0,1,,,0,FALSE,,,,,,,,,,,,,,,,,,,,,,,,,,,,,,,
,6100f8806915845f7cfc1707,627c6f3e3646f4d7c3b15976,2022-05-11_19h22.11.126,classification_task,2021.2.3,MacIntel,60.0024001,627c6715c52fd12f31907bd0,,,,,,,,,,,,,,,,,,,,,,,l,1,0.8832,"[""0.868"",""0.251"",""0.623"",""0.832""]","[0,1,1,1]",0,21,21,21,1,1,1,,,0,FALSE,,,,,,,,,,,,,,,,,,,,,,,,,,,,,,,
,6100f8806915845f7cfc1707,627c6f3e3646f4d7c3b15976,2022-05-11_19h22.11.126,classification_task,2021.2.3,MacIntel,60.0024001,627c6715c52fd12f31907bd0,,,,,,,,,,,,,,,,,,,,,,,l,1,0.6854,"[""0.036"",""0.294"",""0.408"",""0.776""]","[1,1,0,1]",0,22,22,22,1,1,0,,,0,FALSE,,,,,,,,,,,,,,,,,,,,,,,,,,,,,,,
,6100f8806915845f7cfc1707,627c6f3e3646f4d7c3b15976,2022-05-11_19h22.11.126,classification_task,2021.2.3,MacIntel,60.0024001,627c6715c52fd12f31907bd0,,,,,,,,,,,,,,,,,,,,,,,a,1,0.8675,"[""0.163"",""0.538"",""0.408"",""0.967""]","[1,1,0,1]",0,23,23,23,1,0,1,,,0,FALSE,,,,,,,,,,,,,,,,,,,,,,,,,,,,,,,
,6100f8806915845f7cfc1707,627c6f3e3646f4d7c3b15976,2022-05-11_19h22.11.126,classification_task,2021.2.3,MacIntel,60.0024001,627c6715c52fd12f31907bd0,,,,,,,,,,,,,,,,,,,,,,,a,1,1.2336,"[""0.209"",""0.348"",""0.436"",""0.931""]","[1,1,0,1]",0,24,24,24,1,0,0,,,0,FALSE,,,,,,,,,,,,,,,,,,,,,,,,,,,,,,,
,6100f8806915845f7cfc1707,627c6f3e3646f4d7c3b15976,2022-05-11_19h22.11.126,classification_task,2021.2.3,MacIntel,60.0024001,627c6715c52fd12f31907bd0,,,,,,,,,,,,,,,,,,,,,,,l,1,0.9666,"[""0.097"",""0.251"",""0.623"",""0.396""]","[1,1,1,0]",0,25,25,25,1,1,1,,,0,FALSE,,,,,,,,,,,,,,,,,,,,,,,,,,,,,,,
,6100f8806915845f7cfc1707,627c6f3e3646f4d7c3b15976,2022-05-11_19h22.11.126,classification_task,2021.2.3,MacIntel,60.0024001,627c6715c52fd12f31907bd0,,,,,,,,,,,,,,,,,,,,,,,a,1,1.3426,"[""0.872"",""0.538"",""0.699"",""0.967""]","[0,1,1,1]",0,26,26,26,1,0,1,,,0,FALSE,,,,,,,,,,,,,,,,,,,,,,,,,,,,,,,
,6100f8806915845f7cfc1707,627c6f3e3646f4d7c3b15976,2022-05-11_19h22.11.126,classification_task,2021.2.3,MacIntel,60.0024001,627c6715c52fd12f31907bd0,,,,,,,,,,,,,,,,,,,,,,,l,1,1.2219,"[""0.874"",""0.294"",""0.663"",""0.776""]","[0,1,1,1]",0,27,27,27,1,1,0,,,0,FALSE,,,,,,,,,,,,,,,,,,,,,,,,,,,,,,,
,6100f8806915845f7cfc1707,627c6f3e3646f4d7c3b15976,2022-05-11_19h22.11.126,classification_task,2021.2.3,MacIntel,60.0024001,627c6715c52fd12f31907bd0,,,,,,,,,,,,,,,,,,,,,,,l,1,0.553,"[""0.036"",""0.881"",""0.663"",""0.776""]","[1,0,1,1]",0,28,28,28,1,1,0,,,0,FALSE,,,,,,,,,,,,,,,,,,,,,,,,,,,,,,,
,6100f8806915845f7cfc1707,627c6f3e3646f4d7c3b15976,2022-05-11_19h22.11.126,classification_task,2021.2.3,MacIntel,60.0024001,627c6715c52fd12f31907bd0,,,,,,,,,,,,,,,,,,,,,,,l,1,0.9882,"[""0.097"",""0.251"",""0.874"",""0.832""]","[1,1,0,1]",0,29,29,29,1,1,1,,,0,FALSE,,,,,,,,,,,,,,,,,,,,,,,,,,,,,,,
,6100f8806915845f7cfc1707,627c6f3e3646f4d7c3b15976,2022-05-11_19h22.11.126,classification_task,2021.2.3,MacIntel,60.0024001,627c6715c52fd12f31907bd0,,,,,,,,,,,,,,,,,,,,,,,a,1,0.5715,"[""0.209"",""0.868"",""0.735"",""0.931""]","[1,0,1,1]",0,30,30,30,1,0,0,,,0,FALSE,,,,,,,,,,,,,,,,,,,,,,,,,,,,,,,
,6100f8806915845f7cfc1707,627c6f3e3646f4d7c3b15976,2022-05-11_19h22.11.126,classification_task,2021.2.3,MacIntel,60.0024001,627c6715c52fd12f31907bd0,,,,,,,,,,,,,,,,,,,,,,,l,1,0.7035,"[""0.036"",""0.294"",""0.663"",""0.895""]","[1,1,1,0]",0,31,31,31,1,1,0,,,0,FALSE,,,,,,,,,,,,,,,,,,,,,,,,,,,,,,,
,6100f8806915845f7cfc1707,627c6f3e3646f4d7c3b15976,2022-05-11_19h22.11.126,classification_task,2021.2.3,MacIntel,60.0024001,627c6715c52fd12f31907bd0,,,,,,,,,,,,,,,,,,,,,,,a,1,1.002,"[""0.163"",""0.538"",""0.699"",""0.879""]","[1,1,1,0]",0,32,32,32,1,0,1,,,0,FALSE,,,,,,,,,,,,,,,,,,,,,,,,,,,,,,,
,6100f8806915845f7cfc1707,627c6f3e3646f4d7c3b15976,2022-05-11_19h22.11.126,classification_task,2021.2.3,MacIntel,60.0024001,627c6715c52fd12f31907bd0,,,,,,,,,,,,,,,,,,,,,,,a,1,1.0607,"[""0.209"",""0.404"",""0.735"",""0.931""]","[1,0,1,1]",0,33,33,33,1,0,0,,,0,FALSE,,,,,,,,,,,,,,,,,,,,,,,,,,,,,,,
,6100f8806915845f7cfc1707,627c6f3e3646f4d7c3b15976,2022-05-11_19h22.11.126,classification_task,2021.2.3,MacIntel,60.0024001,627c6715c52fd12f31907bd0,,,,,,,,,,,,,,,,,,,,,,,l,1,0.6265,"[""0.036"",""0.294"",""0.663"",""0.404""]","[1,1,1,0]",0,34,34,34,1,1,0,,,0,FALSE,,,,,,,,,,,,,,,,,,,,,,,,,,,,,,,
,6100f8806915845f7cfc1707,627c6f3e3646f4d7c3b15976,2022-05-11_19h22.11.126,classification_task,2021.2.3,MacIntel,60.0024001,627c6715c52fd12f31907bd0,,,,,,,,,,,,,,,,,,,,,,,a,1,0.9361,"[""0.163"",""0.871"",""0.699"",""0.967""]","[1,0,1,1]",0,35,35,35,1,0,1,,,0,FALSE,,,,,,,,,,,,,,,,,,,,,,,,,,,,,,,
,6100f8806915845f7cfc1707,627c6f3e3646f4d7c3b15976,2022-05-11_19h22.11.126,classification_task,2021.2.3,MacIntel,60.0024001,627c6715c52fd12f31907bd0,,,,,,,,,,,,,,,,,,,,,,,a,1,1.0681,"[""0.209"",""0.348"",""0.868"",""0.931""]","[1,1,0,1]",0,36,36,36,1,0,0,,,0,FALSE,,,,,,,,,,,,,,,,,,,,,,,,,,,,,,,
,6100f8806915845f7cfc1707,627c6f3e3646f4d7c3b15976,2022-05-11_19h22.11.126,classification_task,2021.2.3,MacIntel,60.0024001,627c6715c52fd12f31907bd0,,,,,,,,,,,,,,,,,,,,,,,l,1,1.1347,"[""0.097"",""0.251"",""0.623"",""0.584""]","[1,1,1,0]",0,37,37,37,1,1,1,,,0,FALSE,,,,,,,,,,,,,,,,,,,,,,,,,,,,,,,
,6100f8806915845f7cfc1707,627c6f3e3646f4d7c3b15976,2022-05-11_19h22.11.126,classification_task,2021.2.3,MacIntel,60.0024001,627c6715c52fd12f31907bd0,,,,,,,,,,,,,,,,,,,,,,,a,1,1.2775,"[""0.209"",""0.348"",""0.735"",""0.871""]","[1,1,1,0]",0,38,38,38,1,0,0,,,0,FALSE,,,,,,,,,,,,,,,,,,,,,,,,,,,,,,,
,6100f8806915845f7cfc1707,627c6f3e3646f4d7c3b15976,2022-05-11_19h22.11.126,classification_task,2021.2.3,MacIntel,60.0024001,627c6715c52fd12f31907bd0,,,,,,,,,,,,,,,,,,,,,,,l,1,2.3192,"[""0.871"",""0.251"",""0.623"",""0.832""]","[0,1,1,1]",0,39,39,39,1,1,1,,,0,FALSE,,,,,,,,,,,,,,,,,,,,,,,,,,,,,,,
,6100f8806915845f7cfc1707,627c6f3e3646f4d7c3b15976,2022-05-11_19h22.11.126,classification_task,2021.2.3,MacIntel,60.0024001,627c6715c52fd12f31907bd0,,,,,,,,,,,,,,,,,,,,,,,l,1,0.9407,"[""0.036"",""0.871"",""0.663"",""0.776""]","[1,0,1,1]",0,40,40,40,1,1,0,,,0,FALSE,,,,,,,,,,,,,,,,,,,,,,,,,,,,,,,
,6100f8806915845f7cfc1707,627c6f3e3646f4d7c3b15976,2022-05-11_19h22.11.126,classification_task,2021.2.3,MacIntel,60.0024001,627c6715c52fd12f31907bd0,,,,,,,,,,,,,,,,,,,,,,,a,1,1.1119,"[""0.404"",""0.538"",""0.699"",""0.967""]","[0,1,1,1]",0,41,41,41,1,0,1,,,0,FALSE,,,,,,,,,,,,,,,,,,,,,,,,,,,,,,,
,6100f8806915845f7cfc1707,627c6f3e3646f4d7c3b15976,2022-05-11_19h22.11.126,classification_task,2021.2.3,MacIntel,60.0024001,627c6715c52fd12f31907bd0,,,,,,,,,,,,,,,,,,,,,,,l,1,1.3793,"[""0.467"",""0.294"",""0.663"",""0.776""]","[0,1,1,1]",0,42,42,42,1,1,0,,,0,FALSE,,,,,,,,,,,,,,,,,,,,,,,,,,,,,,,
,6100f8806915845f7cfc1707,627c6f3e3646f4d7c3b15976,2022-05-11_19h22.11.126,classification_task,2021.2.3,MacIntel,60.0024001,627c6715c52fd12f31907bd0,,,,,,,,,,,,,,,,,,,,,,,l,1,0.693,"[""0.036"",""0.294"",""0.887"",""0.776""]","[1,1,0,1]",0,43,43,43,1,1,0,,,0,FALSE,,,,,,,,,,,,,,,,,,,,,,,,,,,,,,,
,6100f8806915845f7cfc1707,627c6f3e3646f4d7c3b15976,2022-05-11_19h22.11.126,classification_task,2021.2.3,MacIntel,60.0024001,627c6715c52fd12f31907bd0,,,,,,,,,,,,,,,,,,,,,,,l,1,0.9664,"[""0.097"",""0.251"",""0.872"",""0.832""]","[1,1,0,1]",0,44,44,44,1,1,1,,,0,FALSE,,,,,,,,,,,,,,,,,,,,,,,,,,,,,,,
,6100f8806915845f7cfc1707,627c6f3e3646f4d7c3b15976,2022-05-11_19h22.11.126,classification_task,2021.2.3,MacIntel,60.0024001,627c6715c52fd12f31907bd0,,,,,,,,,,,,,,,,,,,,,,,a,1,0.9415,"[""0.163"",""0.538"",""0.584"",""0.967""]","[1,1,0,1]",0,45,45,45,1,0,1,,,0,FALSE,,,,,,,,,,,,,,,,,,,,,,,,,,,,,,,
,6100f8806915845f7cfc1707,627c6f3e3646f4d7c3b15976,2022-05-11_19h22.11.126,classification_task,2021.2.3,MacIntel,60.0024001,627c6715c52fd12f31907bd0,,,,,,,,,,,,,,,,,,,,,,,a,1,0.803,"[""0.408"",""0.348"",""0.735"",""0.931""]","[0,1,1,1]",0,46,46,46,1,0,0,,,0,FALSE,,,,,,,,,,,,,,,,,,,,,,,,,,,,,,,
,6100f8806915845f7cfc1707,627c6f3e3646f4d7c3b15976,2022-05-11_19h22.11.126,classification_task,2021.2.3,MacIntel,60.0024001,627c6715c52fd12f31907bd0,,,,,,,,,,,,,,,,,,,,,,,l,1,0.7898,"[""0.097"",""0.488"",""0.623"",""0.832""]","[1,0,1,1]",0,47,47,47,1,1,1,,,0,FALSE,,,,,,,,,,,,,,,,,,,,,,,,,,,,,,,
,6100f8806915845f7cfc1707,627c6f3e3646f4d7c3b15976,2022-05-11_19h22.11.126,classification_task,2021.2.3,MacIntel,60.0024001,627c6715c52fd12f31907bd0,,,,,,,,,,,,,,,,,,,,,,,a,1,1.2528,"[""0.209"",""0.348"",""0.735"",""0.584""]","[1,1,1,0]",0,48,48,48,1,0,0,,,0,FALSE,,,,,,,,,,,,,,,,,,,,,,,,,,,,,,,
,6100f8806915845f7cfc1707,627c6f3e3646f4d7c3b15976,2022-05-11_19h22.11.126,classification_task,2021.2.3,MacIntel,60.0024001,627c6715c52fd12f31907bd0,,,,,,,,,,,,,,,,,,,,,,,l,1,0.5296,"[""0.036"",""0.294"",""0.663"",""0.881""]","[1,1,1,0]",0,49,49,49,1,1,0,,,0,FALSE,,,,,,,,,,,,,,,,,,,,,,,,,,,,,,,
,6100f8806915845f7cfc1707,627c6f3e3646f4d7c3b15976,2022-05-11_19h22.11.126,classification_task,2021.2.3,MacIntel,60.0024001,627c6715c52fd12f31907bd0,,,,,,,,,,,,,,,,,,,,,,,l,1,0.7862,"[""0.097"",""0.251"",""0.623"",""0.396""]","[1,1,1,0]",0,50,50,50,1,1,1,,,0,FALSE,,,,,,,,,,,,,,,,,,,,,,,,,,,,,,,
,6100f8806915845f7cfc1707,627c6f3e3646f4d7c3b15976,2022-05-11_19h22.11.126,classification_task,2021.2.3,MacIntel,60.0024001,627c6715c52fd12f31907bd0,,,,,,,,,,,,,,,,,,,,,,,a,1,0.736,"[""0.163"",""0.488"",""0.699"",""0.967""]","[1,0,1,1]",0,51,51,51,1,0,1,,,0,FALSE,,,,,,,,,,,,,,,,,,,,,,,,,,,,,,,
,6100f8806915845f7cfc1707,627c6f3e3646f4d7c3b15976,2022-05-11_19h22.11.126,classification_task,2021.2.3,MacIntel,60.0024001,627c6715c52fd12f31907bd0,,,,,,,,,,,,,,,,,,,,,,,a,1,0.9765,"[""0.432"",""0.538"",""0.699"",""0.967""]","[0,1,1,1]",0,52,52,52,1,0,1,,,0,FALSE,,,,,,,,,,,,,,,,,,,,,,,,,,,,,,,
,6100f8806915845f7cfc1707,627c6f3e3646f4d7c3b15976,2022-05-11_19h22.11.126,classification_task,2021.2.3,MacIntel,60.0024001,627c6715c52fd12f31907bd0,,,,,,,,,,,,,,,,,,,,,,,l,1,0.9273,"[""0.097"",""0.251"",""0.874"",""0.832""]","[1,1,0,1]",0,53,53,53,1,1,1,,,0,FALSE,,,,,,,,,,,,,,,,,,,,,,,,,,,,,,,
,6100f8806915845f7cfc1707,627c6f3e3646f4d7c3b15976,2022-05-11_19h22.11.126,classification_task,2021.2.3,MacIntel,60.0024001,627c6715c52fd12f31907bd0,,,,,,,,,,,,,,,,,,,,,,,l,1,0.6511,"[""0.036"",""0.396"",""0.663"",""0.776""]","[1,0,1,1]",0,54,54,54,1,1,0,,,0,FALSE,,,,,,,,,,,,,,,,,,,,,,,,,,,,,,,
,6100f8806915845f7cfc1707,627c6f3e3646f4d7c3b15976,2022-05-11_19h22.11.126,classification_task,2021.2.3,MacIntel,60.0024001,627c6715c52fd12f31907bd0,,,,,,,,,,,,,,,,,,,,,,,a,1,0.5777,"[""0.209"",""0.396"",""0.735"",""0.931""]","[1,0,1,1]",0,55,55,55,1,0,0,,,0,FALSE,,,,,,,,,,,,,,,,,,,,,,,,,,,,,,,
,6100f8806915845f7cfc1707,627c6f3e3646f4d7c3b15976,2022-05-11_19h22.11.126,classification_task,2021.2.3,MacIntel,60.0024001,627c6715c52fd12f31907bd0,,,,,,,,,,,,,,,,,,,,,,,l,1,1.2646,"[""0.097"",""0.868"",""0.623"",""0.832""]","[1,0,1,1]",0,56,56,56,1,1,1,,,0,FALSE,,,,,,,,,,,,,,,,,,,,,,,,,,,,,,,
,6100f8806915845f7cfc1707,627c6f3e3646f4d7c3b15976,2022-05-11_19h22.11.126,classification_task,2021.2.3,MacIntel,60.0024001,627c6715c52fd12f31907bd0,,,,,,,,,,,,,,,,,,,,,,,a,1,0.8514,"[""0.163"",""0.538"",""0.699"",""0.871""]","[1,1,1,0]",0,57,57,57,1,0,1,,,0,FALSE,,,,,,,,,,,,,,,,,,,,,,,,,,,,,,,
,6100f8806915845f7cfc1707,627c6f3e3646f4d7c3b15976,2022-05-11_19h22.11.126,classification_task,2021.2.3,MacIntel,60.0024001,627c6715c52fd12f31907bd0,,,,,,,,,,,,,,,,,,,,,,,a,1,0.9196,"[""0.874"",""0.348"",""0.735"",""0.931""]","[0,1,1,1]",0,58,58,58,1,0,0,,,0,FALSE,,,,,,,,,,,,,,,,,,,,,,,,,,,,,,,
,6100f8806915845f7cfc1707,627c6f3e3646f4d7c3b15976,2022-05-11_19h22.11.126,classification_task,2021.2.3,MacIntel,60.0024001,627c6715c52fd12f31907bd0,,,,,,,,,,,,,,,,,,,,,,,l,1,0.46,"[""0.887"",""0.294"",""0.663"",""0.776""]","[0,1,1,1]",0,59,59,59,1,1,0,,,0,FALSE,,,,,,,,,,,,,,,,,,,,,,,,,,,,,,,
,6100f8806915845f7cfc1707,627c6f3e3646f4d7c3b15976,2022-05-11_19h22.11.126,classification_task,2021.2.3,MacIntel,60.0024001,627c6715c52fd12f31907bd0,,,,,,,,,,,,,,,,,,,,,,,a,1,0.9005,"[""0.163"",""0.538"",""0.868"",""0.967""]","[1,1,0,1]",0,60,60,60,1,0,1,,,0,FALSE,,,,,,,,,,,,,,,,,,,,,,,,,,,,,,,
,6100f8806915845f7cfc1707,627c6f3e3646f4d7c3b15976,2022-05-11_19h22.11.126,classification_task,2021.2.3,MacIntel,60.0024001,627c6715c52fd12f31907bd0,,,,,,,,,,,,,,,,,,,,,,,a,1,0.8008,"[""0.209"",""0.348"",""0.881"",""0.931""]","[1,1,0,1]",0,61,61,61,1,0,0,,,0,FALSE,,,,,,,,,,,,,,,,,,,,,,,,,,,,,,,
,6100f8806915845f7cfc1707,627c6f3e3646f4d7c3b15976,2022-05-11_19h22.11.126,classification_task,2021.2.3,MacIntel,60.0024001,627c6715c52fd12f31907bd0,,,,,,,,,,,,,,,,,,,,,,,l,1,1.0511,"[""0.408"",""0.251"",""0.623"",""0.832""]","[0,1,1,1]",0,62,62,62,1,1,1,,,0,FALSE,,,,,,,,,,,,,,,,,,,,,,,,,,,,,,,
,6100f8806915845f7cfc1707,627c6f3e3646f4d7c3b15976,2022-05-11_19h22.11.126,classification_task,2021.2.3,MacIntel,60.0024001,627c6715c52fd12f31907bd0,,,,,,,,,,,,,,,,,,,,,,,l,1,0.5784,"[""0.036"",""0.294"",""0.868"",""0.776""]","[1,1,0,1]",0,63,63,63,1,1,0,,,0,FALSE,,,,,,,,,,,,,,,,,,,,,,,,,,,,,,,
,6100f8806915845f7cfc1707,627c6f3e3646f4d7c3b15976,2022-05-11_19h22.11.126,classification_task,2021.2.3,MacIntel,60.0024001,627c6715c52fd12f31907bd0,,,,,,,,,,,,,,,,,,,,,,,,,,,,,,,,,,,,,,,0, ,,0,0,145.4461,0,1,1,1,1,2,2,,,,,,,,,,,,,,,,,,
,6100f8806915845f7cfc1707,627c6f3e3646f4d7c3b15976,2022-05-11_19h22.11.126,classification_task,2021.2.3,MacIntel,60.0024001,627c6715c52fd12f31907bd0,,,,,,,,,,,,,,,,,,,,,,,,,,,,,,,,,,,,,,,1,  ,,0,0,147.0747,0,1,1,1,1,2,2,,,,,,,,,,,,,,,,,,
,6100f8806915845f7cfc1707,627c6f3e3646f4d7c3b15976,2022-05-11_19h22.11.126,classification_task,2021.2.3,MacIntel,60.0024001,627c6715c52fd12f31907bd0,,,,,,,,,,,,,,,,,,,,,,,,,,,,,,,,,,,,,,,2,  ,,0,0,151.0728,0,1,1,1,1,2,2,,,,,,,,,,,,,,,,,,
,6100f8806915845f7cfc1707,627c6f3e3646f4d7c3b15976,2022-05-11_19h22.11.126,classification_task,2021.2.3,MacIntel,60.0024001,627c6715c52fd12f31907bd0,,,,,,,,,,,,,,,,,,,,,,,,,,,,,,,,,,,,,,,,,,,,,0,1,1,1,1,,2,,,,,,,,,,,,,,,,,,
,6100f8806915845f7cfc1707,627c6f3e3646f4d7c3b15976,2022-05-11_19h22.11.126,classification_task,2021.2.3,MacIntel,60.0024001,627c6715c52fd12f31907bd0,,,,,,,,,,,,,,,,,,,,,space,2.7452,l,1,1.3147,"[""0.097"",""0.396"",""0.623"",""0.832""]","[1,0,1,1]",0,0,0,0,1,1,1,,,0,FALSE,,,,,,,,,,,,,,,,,,,,,,,,,,,,,,,
,6100f8806915845f7cfc1707,627c6f3e3646f4d7c3b15976,2022-05-11_19h22.11.126,classification_task,2021.2.3,MacIntel,60.0024001,627c6715c52fd12f31907bd0,,,,,,,,,,,,,,,,,,,,,,,a,1,1.8955,"[""0.163"",""0.432"",""0.699"",""0.967""]","[1,0,1,1]",0,1,1,1,1,0,1,,,0,FALSE,,,,,,,,,,,,,,,,,,,,,,,,,,,,,,,
,6100f8806915845f7cfc1707,627c6f3e3646f4d7c3b15976,2022-05-11_19h22.11.126,classification_task,2021.2.3,MacIntel,60.0024001,627c6715c52fd12f31907bd0,,,,,,,,,,,,,,,,,,,,,,,l,1,0.996,"[""0.036"",""0.488"",""0.663"",""0.776""]","[1,0,1,1]",0,2,2,2,1,1,0,,,0,FALSE,,,,,,,,,,,,,,,,,,,,,,,,,,,,,,,
,6100f8806915845f7cfc1707,627c6f3e3646f4d7c3b15976,2022-05-11_19h22.11.126,classification_task,2021.2.3,MacIntel,60.0024001,627c6715c52fd12f31907bd0,,,,,,,,,,,,,,,,,,,,,,,a,1,0.9616,"[""0.163"",""0.538"",""0.699"",""0.874""]","[1,1,1,0]",0,3,3,3,1,0,1,,,0,FALSE,,,,,,,,,,,,,,,,,,,,,,,,,,,,,,,
,6100f8806915845f7cfc1707,627c6f3e3646f4d7c3b15976,2022-05-11_19h22.11.126,classification_task,2021.2.3,MacIntel,60.0024001,627c6715c52fd12f31907bd0,,,,,,,,,,,,,,,,,,,,,,,a,1,1.2019,"[""0.209"",""0.348"",""0.872"",""0.931""]","[1,1,0,1]",0,4,4,4,1,0,0,,,0,FALSE,,,,,,,,,,,,,,,,,,,,,,,,,,,,,,,
,6100f8806915845f7cfc1707,627c6f3e3646f4d7c3b15976,2022-05-11_19h22.11.126,classification_task,2021.2.3,MacIntel,60.0024001,627c6715c52fd12f31907bd0,,,,,,,,,,,,,,,,,,,,,,,a,1,1.5097,"[""0.209"",""0.348"",""0.735"",""0.408""]","[1,1,1,0]",0,5,5,5,1,0,0,,,0,FALSE,,,,,,,,,,,,,,,,,,,,,,,,,,,,,,,
,6100f8806915845f7cfc1707,627c6f3e3646f4d7c3b15976,2022-05-11_19h22.11.126,classification_task,2021.2.3,MacIntel,60.0024001,627c6715c52fd12f31907bd0,,,,,,,,,,,,,,,,,,,,,,,a,1,0.891,"[""0.163"",""0.538"",""0.881"",""0.967""]","[1,1,0,1]",0,6,6,6,1,0,1,,,0,FALSE,,,,,,,,,,,,,,,,,,,,,,,,,,,,,,,
,6100f8806915845f7cfc1707,627c6f3e3646f4d7c3b15976,2022-05-11_19h22.11.126,classification_task,2021.2.3,MacIntel,60.0024001,627c6715c52fd12f31907bd0,,,,,,,,,,,,,,,,,,,,,,,l,1,1.1899,"[""0.097"",""0.251"",""0.623"",""0.872""]","[1,1,1,0]",0,7,7,7,1,1,1,,,0,FALSE,,,,,,,,,,,,,,,,,,,,,,,,,,,,,,,
,6100f8806915845f7cfc1707,627c6f3e3646f4d7c3b15976,2022-05-11_19h22.11.126,classification_task,2021.2.3,MacIntel,60.0024001,627c6715c52fd12f31907bd0,,,,,,,,,,,,,,,,,,,,,,,l,1,1.2758,"[""0.097"",""0.251"",""0.584"",""0.832""]","[1,1,0,1]",0,8,8,8,1,1,1,,,0,FALSE,,,,,,,,,,,,,,,,,,,,,,,,,,,,,,,
,6100f8806915845f7cfc1707,627c6f3e3646f4d7c3b15976,2022-05-11_19h22.11.126,classification_task,2021.2.3,MacIntel,60.0024001,627c6715c52fd12f31907bd0,,,,,,,,,,,,,,,,,,,,,,,l,1,0.343,"[""0.036"",""0.294"",""0.584"",""0.776""]","[1,1,0,1]",0,9,9,9,1,1,0,,,0,FALSE,,,,,,,,,,,,,,,,,,,,,,,,,,,,,,,
,6100f8806915845f7cfc1707,627c6f3e3646f4d7c3b15976,2022-05-11_19h22.11.126,classification_task,2021.2.3,MacIntel,60.0024001,627c6715c52fd12f31907bd0,,,,,,,,,,,,,,,,,,,,,,,l,1,0.6099,"[""0.036"",""0.294"",""0.663"",""0.467""]","[1,1,1,0]",0,10,10,10,1,1,0,,,0,FALSE,,,,,,,,,,,,,,,,,,,,,,,,,,,,,,,
,6100f8806915845f7cfc1707,627c6f3e3646f4d7c3b15976,2022-05-11_19h22.11.126,classification_task,2021.2.3,MacIntel,60.0024001,627c6715c52fd12f31907bd0,,,,,,,,,,,,,,,,,,,,,,,a,1,0.7823,"[""0.209"",""0.871"",""0.735"",""0.931""]","[1,0,1,1]",0,11,11,11,1,0,0,,,0,FALSE,,,,,,,,,,,,,,,,,,,,,,,,,,,,,,,
,6100f8806915845f7cfc1707,627c6f3e3646f4d7c3b15976,2022-05-11_19h22.11.126,classification_task,2021.2.3,MacIntel,60.0024001,627c6715c52fd12f31907bd0,,,,,,,,,,,,,,,,,,,,,,,l,1,1.2028,"[""0.432"",""0.251"",""0.623"",""0.832""]","[0,1,1,1]",0,12,12,12,1,1,1,,,0,FALSE,,,,,,,,,,,,,,,,,,,,,,,,,,,,,,,
,6100f8806915845f7cfc1707,627c6f3e3646f4d7c3b15976,2022-05-11_19h22.11.126,classification_task,2021.2.3,MacIntel,60.0024001,627c6715c52fd12f31907bd0,,,,,,,,,,,,,,,,,,,,,,,a,1,1.0824,"[""0.408"",""0.348"",""0.735"",""0.931""]","[0,1,1,1]",0,13,13,13,1,0,0,,,0,FALSE,,,,,,,,,,,,,,,,,,,,,,,,,,,,,,,
,6100f8806915845f7cfc1707,627c6f3e3646f4d7c3b15976,2022-05-11_19h22.11.126,classification_task,2021.2.3,MacIntel,60.0024001,627c6715c52fd12f31907bd0,,,,,,,,,,,,,,,,,,,,,,,a,1,1.1593,"[""0.436"",""0.538"",""0.699"",""0.967""]","[0,1,1,1]",0,14,14,14,1,0,1,,,0,FALSE,,,,,,,,,,,,,,,,,,,,,,,,,,,,,,,
,6100f8806915845f7cfc1707,627c6f3e3646f4d7c3b15976,2022-05-11_19h22.11.126,classification_task,2021.2.3,MacIntel,60.0024001,627c6715c52fd12f31907bd0,,,,,,,,,,,,,,,,,,,,,,,l,1,0.9258,"[""0.432"",""0.294"",""0.663"",""0.776""]","[0,1,1,1]",0,15,15,15,1,1,0,,,0,FALSE,,,,,,,,,,,,,,,,,,,,,,,,,,,,,,,
,6100f8806915845f7cfc1707,627c6f3e3646f4d7c3b15976,2022-05-11_19h22.11.126,classification_task,2021.2.3,MacIntel,60.0024001,627c6715c52fd12f31907bd0,,,,,,,,,,,,,,,,,,,,,,,a,1,1.0415,"[""0.209"",""0.348"",""0.735"",""0.488""]","[1,1,1,0]",0,16,16,16,1,0,0,,,0,FALSE,,,,,,,,,,,,,,,,,,,,,,,,,,,,,,,
,6100f8806915845f7cfc1707,627c6f3e3646f4d7c3b15976,2022-05-11_19h22.11.126,classification_task,2021.2.3,MacIntel,60.0024001,627c6715c52fd12f31907bd0,,,,,,,,,,,,,,,,,,,,,,,l,1,0.6314,"[""0.036"",""0.584"",""0.663"",""0.776""]","[1,0,1,1]",0,17,17,17,1,1,0,,,0,FALSE,,,,,,,,,,,,,,,,,,,,,,,,,,,,,,,
,6100f8806915845f7cfc1707,627c6f3e3646f4d7c3b15976,2022-05-11_19h22.11.126,classification_task,2021.2.3,MacIntel,60.0024001,627c6715c52fd12f31907bd0,,,,,,,,,,,,,,,,,,,,,,,a,1,0.7592,"[""0.163"",""0.872"",""0.699"",""0.967""]","[1,0,1,1]",0,18,18,18,1,0,1,,,0,FALSE,,,,,,,,,,,,,,,,,,,,,,,,,,,,,,,
,6100f8806915845f7cfc1707,627c6f3e3646f4d7c3b15976,2022-05-11_19h22.11.126,classification_task,2021.2.3,MacIntel,60.0024001,627c6715c52fd12f31907bd0,,,,,,,,,,,,,,,,,,,,,,,l,1,0.9445,"[""0.408"",""0.294"",""0.663"",""0.776""]","[0,1,1,1]",0,19,19,19,1,1,0,,,0,FALSE,,,,,,,,,,,,,,,,,,,,,,,,,,,,,,,
,6100f8806915845f7cfc1707,627c6f3e3646f4d7c3b15976,2022-05-11_19h22.11.126,classification_task,2021.2.3,MacIntel,60.0024001,627c6715c52fd12f31907bd0,,,,,,,,,,,,,,,,,,,,,,,a,1,1.3734,"[""0.408"",""0.538"",""0.699"",""0.967""]","[0,1,1,1]",0,20,20,20,1,0,1,,,0,FALSE,,,,,,,,,,,,,,,,,,,,,,,,,,,,,,,
,6100f8806915845f7cfc1707,627c6f3e3646f4d7c3b15976,2022-05-11_19h22.11.126,classification_task,2021.2.3,MacIntel,60.0024001,627c6715c52fd12f31907bd0,,,,,,,,,,,,,,,,,,,,,,,a,1,0.8802,"[""0.209"",""0.348"",""0.872"",""0.931""]","[1,1,0,1]",0,21,21,21,1,0,0,,,0,FALSE,,,,,,,,,,,,,,,,,,,,,,,,,,,,,,,
,6100f8806915845f7cfc1707,627c6f3e3646f4d7c3b15976,2022-05-11_19h22.11.126,classification_task,2021.2.3,MacIntel,60.0024001,627c6715c52fd12f31907bd0,,,,,,,,,,,,,,,,,,,,,,,l,1,0.8094,"[""0.097"",""0.251"",""0.871"",""0.832""]","[1,1,0,1]",0,22,22,22,1,1,1,,,0,FALSE,,,,,,,,,,,,,,,,,,,,,,,,,,,,,,,
,6100f8806915845f7cfc1707,627c6f3e3646f4d7c3b15976,2022-05-11_19h22.11.126,classification_task,2021.2.3,MacIntel,60.0024001,627c6715c52fd12f31907bd0,,,,,,,,,,,,,,,,,,,,,,,l,1,0.759,"[""0.036"",""0.294"",""0.663"",""0.408""]","[1,1,1,0]",0,23,23,23,1,1,0,,,0,FALSE,,,,,,,,,,,,,,,,,,,,,,,,,,,,,,,
,6100f8806915845f7cfc1707,627c6f3e3646f4d7c3b15976,2022-05-11_19h22.11.126,classification_task,2021.2.3,MacIntel,60.0024001,627c6715c52fd12f31907bd0,,,,,,,,,,,,,,,,,,,,,,,l,1,0.8416,"[""0.097"",""0.871"",""0.623"",""0.832""]","[1,0,1,1]",0,24,24,24,1,1,1,,,0,FALSE,,,,,,,,,,,,,,,,,,,,,,,,,,,,,,,
,6100f8806915845f7cfc1707,627c6f3e3646f4d7c3b15976,2022-05-11_19h22.11.126,classification_task,2021.2.3,MacIntel,60.0024001,627c6715c52fd12f31907bd0,,,,,,,,,,,,,,,,,,,,,,,a,1,0.5939,"[""0.209"",""0.467"",""0.735"",""0.931""]","[1,0,1,1]",0,25,25,25,1,0,0,,,0,FALSE,,,,,,,,,,,,,,,,,,,,,,,,,,,,,,,
,6100f8806915845f7cfc1707,627c6f3e3646f4d7c3b15976,2022-05-11_19h22.11.126,classification_task,2021.2.3,MacIntel,60.0024001,627c6715c52fd12f31907bd0,,,,,,,,,,,,,,,,,,,,,,,a,1,0.8133,"[""0.163"",""0.538"",""0.699"",""0.895""]","[1,1,1,0]",0,26,26,26,1,0,1,,,0,FALSE,,,,,,,,,,,,,,,,,,,,,,,,,,,,,,,
,6100f8806915845f7cfc1707,627c6f3e3646f4d7c3b15976,2022-05-11_19h22.11.126,classification_task,2021.2.3,MacIntel,60.0024001,627c6715c52fd12f31907bd0,,,,,,,,,,,,,,,,,,,,,,,l,1,0.9283,"[""0.097"",""0.251"",""0.623"",""0.488""]","[1,1,1,0]",0,27,27,27,1,1,1,,,0,FALSE,,,,,,,,,,,,,,,,,,,,,,,,,,,,,,,
,6100f8806915845f7cfc1707,627c6f3e3646f4d7c3b15976,2022-05-11_19h22.11.126,classification_task,2021.2.3,MacIntel,60.0024001,627c6715c52fd12f31907bd0,,,,,,,,,,,,,,,,,,,,,,,a,1,0.8928,"[""0.584"",""0.348"",""0.735"",""0.931""]","[0,1,1,1]",0,28,28,28,1,0,0,,,0,FALSE,,,,,,,,,,,,,,,,,,,,,,,,,,,,,,,
,6100f8806915845f7cfc1707,627c6f3e3646f4d7c3b15976,2022-05-11_19h22.11.126,classification_task,2021.2.3,MacIntel,60.0024001,627c6715c52fd12f31907bd0,,,,,,,,,,,,,,,,,,,,,,,a,1,1.076,"[""0.163"",""0.538"",""0.396"",""0.967""]","[1,1,0,1]",0,29,29,29,1,0,1,,,0,FALSE,,,,,,,,,,,,,,,,,,,,,,,,,,,,,,,
,6100f8806915845f7cfc1707,627c6f3e3646f4d7c3b15976,2022-05-11_19h22.11.126,classification_task,2021.2.3,MacIntel,60.0024001,627c6715c52fd12f31907bd0,,,,,,,,,,,,,,,,,,,,,,,l,1,1.3259,"[""0.874"",""0.251"",""0.623"",""0.832""]","[0,1,1,1]",0,30,30,30,1,1,1,,,0,FALSE,,,,,,,,,,,,,,,,,,,,,,,,,,,,,,,
,6100f8806915845f7cfc1707,627c6f3e3646f4d7c3b15976,2022-05-11_19h22.11.126,classification_task,2021.2.3,MacIntel,60.0024001,627c6715c52fd12f31907bd0,,,,,,,,,,,,,,,,,,,,,,,l,1,1.4594,"[""0.036"",""0.294"",""0.584"",""0.776""]","[1,1,0,1]",0,31,31,31,1,1,0,,,0,FALSE,,,,,,,,,,,,,,,,,,,,,,,,,,,,,,,
,6100f8806915845f7cfc1707,627c6f3e3646f4d7c3b15976,2022-05-11_19h22.11.126,classification_task,2021.2.3,MacIntel,60.0024001,627c6715c52fd12f31907bd0,,,,,,,,,,,,,,,,,,,,,,,a,1,0.7605,"[""0.436"",""0.348"",""0.735"",""0.931""]","[0,1,1,1]",0,32,32,32,1,0,0,,,0,FALSE,,,,,,,,,,,,,,,,,,,,,,,,,,,,,,,
,6100f8806915845f7cfc1707,627c6f3e3646f4d7c3b15976,2022-05-11_19h22.11.126,classification_task,2021.2.3,MacIntel,60.0024001,627c6715c52fd12f31907bd0,,,,,,,,,,,,,,,,,,,,,,,l,1,1.1111,"[""0.868"",""0.251"",""0.623"",""0.832""]","[0,1,1,1]",0,33,33,33,1,1,1,,,0,FALSE,,,,,,,,,,,,,,,,,,,,,,,,,,,,,,,
,6100f8806915845f7cfc1707,627c6f3e3646f4d7c3b15976,2022-05-11_19h22.11.126,classification_task,2021.2.3,MacIntel,60.0024001,627c6715c52fd12f31907bd0,,,,,,,,,,,,,,,,,,,,,,,l,1,1.1224,"[""0.036"",""0.872"",""0.663"",""0.776""]","[1,0,1,1]",0,34,34,34,1,1,0,,,0,FALSE,,,,,,,,,,,,,,,,,,,,,,,,,,,,,,,
,6100f8806915845f7cfc1707,627c6f3e3646f4d7c3b15976,2022-05-11_19h22.11.126,classification_task,2021.2.3,MacIntel,60.0024001,627c6715c52fd12f31907bd0,,,,,,,,,,,,,,,,,,,,,,,a,1,0.7603,"[""0.163"",""0.879"",""0.699"",""0.967""]","[1,0,1,1]",0,35,35,35,1,0,1,,,0,FALSE,,,,,,,,,,,,,,,,,,,,,,,,,,,,,,,
,6100f8806915845f7cfc1707,627c6f3e3646f4d7c3b15976,2022-05-11_19h22.11.126,classification_task,2021.2.3,MacIntel,60.0024001,627c6715c52fd12f31907bd0,,,,,,,,,,,,,,,,,,,,,,,l,1,0.828,"[""0.097"",""0.251"",""0.881"",""0.832""]","[1,1,0,1]",0,36,36,36,1,1,1,,,0,FALSE,,,,,,,,,,,,,,,,,,,,,,,,,,,,,,,
,6100f8806915845f7cfc1707,627c6f3e3646f4d7c3b15976,2022-05-11_19h22.11.126,classification_task,2021.2.3,MacIntel,60.0024001,627c6715c52fd12f31907bd0,,,,,,,,,,,,,,,,,,,,,,,l,0,0.7961,"[""0.209"",""0.348"",""0.735"",""0.887""]","[1,1,1,0]",0,37,37,37,1,0,0,,,0,FALSE,,,,,,,,,,,,,,,,,,,,,,,,,,,,,,,
,6100f8806915845f7cfc1707,627c6f3e3646f4d7c3b15976,2022-05-11_19h22.11.126,classification_task,2021.2.3,MacIntel,60.0024001,627c6715c52fd12f31907bd0,,,,,,,,,,,,,,,,,,,,,,,l,1,0.8698,"[""0.097"",""0.874"",""0.623"",""0.832""]","[1,0,1,1]",0,38,38,38,1,1,1,,,0,FALSE,,,,,,,,,,,,,,,,,,,,,,,,,,,,,,,
,6100f8806915845f7cfc1707,627c6f3e3646f4d7c3b15976,2022-05-11_19h22.11.126,classification_task,2021.2.3,MacIntel,60.0024001,627c6715c52fd12f31907bd0,,,,,,,,,,,,,,,,,,,,,,,a,1,0.9295,"[""0.404"",""0.538"",""0.699"",""0.967""]","[0,1,1,1]",0,39,39,39,1,0,1,,,0,FALSE,,,,,,,,,,,,,,,,,,,,,,,,,,,,,,,
,6100f8806915845f7cfc1707,627c6f3e3646f4d7c3b15976,2022-05-11_19h22.11.126,classification_task,2021.2.3,MacIntel,60.0024001,627c6715c52fd12f31907bd0,,,,,,,,,,,,,,,,,,,,,,,l,1,1.3627,"[""0.097"",""0.251"",""0.623"",""0.874""]","[1,1,1,0]",0,40,40,40,1,1,1,,,0,FALSE,,,,,,,,,,,,,,,,,,,,,,,,,,,,,,,
,6100f8806915845f7cfc1707,627c6f3e3646f4d7c3b15976,2022-05-11_19h22.11.126,classification_task,2021.2.3,MacIntel,60.0024001,627c6715c52fd12f31907bd0,,,,,,,,,,,,,,,,,,,,,,,l,1,0.7668,"[""0.036"",""0.294"",""0.879"",""0.776""]","[1,1,0,1]",0,41,41,41,1,1,0,,,0,FALSE,,,,,,,,,,,,,,,,,,,,,,,,,,,,,,,
,6100f8806915845f7cfc1707,627c6f3e3646f4d7c3b15976,2022-05-11_19h22.11.126,classification_task,2021.2.3,MacIntel,60.0024001,627c6715c52fd12f31907bd0,,,,,,,,,,,,,,,,,,,,,,,l,1,0.6299,"[""0.036"",""0.294"",""0.663"",""0.396""]","[1,1,1,0]",0,42,42,42,1,1,0,,,0,FALSE,,,,,,,,,,,,,,,,,,,,,,,,,,,,,,,
,6100f8806915845f7cfc1707,627c6f3e3646f4d7c3b15976,2022-05-11_19h22.11.126,classification_task,2021.2.3,MacIntel,60.0024001,627c6715c52fd12f31907bd0,,,,,,,,,,,,,,,,,,,,,,,a,1,0.7965,"[""0.163"",""0.538"",""0.699"",""0.396""]","[1,1,1,0]",0,43,43,43,1,0,1,,,0,FALSE,,,,,,,,,,,,,,,,,,,,,,,,,,,,,,,
,6100f8806915845f7cfc1707,627c6f3e3646f4d7c3b15976,2022-05-11_19h22.11.126,classification_task,2021.2.3,MacIntel,60.0024001,627c6715c52fd12f31907bd0,,,,,,,,,,,,,,,,,,,,,,,l,0,0.9266,"[""0.209"",""0.348"",""0.404"",""0.931""]","[1,1,0,1]",0,44,44,44,1,0,0,,,0,FALSE,,,,,,,,,,,,,,,,,,,,,,,,,,,,,,,
,6100f8806915845f7cfc1707,627c6f3e3646f4d7c3b15976,2022-05-11_19h22.11.126,classification_task,2021.2.3,MacIntel,60.0024001,627c6715c52fd12f31907bd0,,,,,,,,,,,,,,,,,,,,,,,l,1,0.9611,"[""0.488"",""0.294"",""0.663"",""0.776""]","[0,1,1,1]",0,45,45,45,1,1,0,,,0,FALSE,,,,,,,,,,,,,,,,,,,,,,,,,,,,,,,
,6100f8806915845f7cfc1707,627c6f3e3646f4d7c3b15976,2022-05-11_19h22.11.126,classification_task,2021.2.3,MacIntel,60.0024001,627c6715c52fd12f31907bd0,,,,,,,,,,,,,,,,,,,,,,,a,1,0.7751,"[""0.163"",""0.538"",""0.868"",""0.967""]","[1,1,0,1]",0,46,46,46,1,0,1,,,0,FALSE,,,,,,,,,,,,,,,,,,,,,,,,,,,,,,,
,6100f8806915845f7cfc1707,627c6f3e3646f4d7c3b15976,2022-05-11_19h22.11.126,classification_task,2021.2.3,MacIntel,60.0024001,627c6715c52fd12f31907bd0,,,,,,,,,,,,,,,,,,,,,,,a,1,1.0113,"[""0.209"",""0.895"",""0.735"",""0.931""]","[1,0,1,1]",0,47,47,47,1,0,0,,,0,FALSE,,,,,,,,,,,,,,,,,,,,,,,,,,,,,,,
,6100f8806915845f7cfc1707,627c6f3e3646f4d7c3b15976,2022-05-11_19h22.11.126,classification_task,2021.2.3,MacIntel,60.0024001,627c6715c52fd12f31907bd0,,,,,,,,,,,,,,,,,,,,,,,a,1,0.7744,"[""0.163"",""0.872"",""0.699"",""0.967""]","[1,0,1,1]",0,48,48,48,1,0,1,,,0,FALSE,,,,,,,,,,,,,,,,,,,,,,,,,,,,,,,
,6100f8806915845f7cfc1707,627c6f3e3646f4d7c3b15976,2022-05-11_19h22.11.126,classification_task,2021.2.3,MacIntel,60.0024001,627c6715c52fd12f31907bd0,,,,,,,,,,,,,,,,,,,,,,,l,1,0.8465,"[""0.097"",""0.871"",""0.623"",""0.832""]","[1,0,1,1]",0,49,49,49,1,1,1,,,0,FALSE,,,,,,,,,,,,,,,,,,,,,,,,,,,,,,,
,6100f8806915845f7cfc1707,627c6f3e3646f4d7c3b15976,2022-05-11_19h22.11.126,classification_task,2021.2.3,MacIntel,60.0024001,627c6715c52fd12f31907bd0,,,,,,,,,,,,,,,,,,,,,,,l,1,0.9024,"[""0.036"",""0.294"",""0.488"",""0.776""]","[1,1,0,1]",0,50,50,50,1,1,0,,,0,FALSE,,,,,,,,,,,,,,,,,,,,,,,,,,,,,,,
,6100f8806915845f7cfc1707,627c6f3e3646f4d7c3b15976,2022-05-11_19h22.11.126,classification_task,2021.2.3,MacIntel,60.0024001,627c6715c52fd12f31907bd0,,,,,,,,,,,,,,,,,,,,,,,l,1,0.8512,"[""0.097"",""0.251"",""0.879"",""0.832""]","[1,1,0,1]",0,51,51,51,1,1,1,,,0,FALSE,,,,,,,,,,,,,,,,,,,,,,,,,,,,,,,
,6100f8806915845f7cfc1707,627c6f3e3646f4d7c3b15976,2022-05-11_19h22.11.126,classification_task,2021.2.3,MacIntel,60.0024001,627c6715c52fd12f31907bd0,,,,,,,,,,,,,,,,,,,,,,,a,1,0.9206,"[""0.163"",""0.538"",""0.432"",""0.967""]","[1,1,0,1]",0,52,52,52,1,0,1,,,0,FALSE,,,,,,,,,,,,,,,,,,,,,,,,,,,,,,,
,6100f8806915845f7cfc1707,627c6f3e3646f4d7c3b15976,2022-05-11_19h22.11.126,classification_task,2021.2.3,MacIntel,60.0024001,627c6715c52fd12f31907bd0,,,,,,,,,,,,,,,,,,,,,,,a,1,0.9796,"[""0.209"",""0.348"",""0.396"",""0.931""]","[1,1,0,1]",0,53,53,53,1,0,0,,,0,FALSE,,,,,,,,,,,,,,,,,,,,,,,,,,,,,,,
,6100f8806915845f7cfc1707,627c6f3e3646f4d7c3b15976,2022-05-11_19h22.11.126,classification_task,2021.2.3,MacIntel,60.0024001,627c6715c52fd12f31907bd0,,,,,,,,,,,,,,,,,,,,,,,l,1,0.894,"[""0.036"",""0.872"",""0.663"",""0.776""]","[1,0,1,1]",0,54,54,54,1,1,0,,,0,FALSE,,,,,,,,,,,,,,,,,,,,,,,,,,,,,,,
,6100f8806915845f7cfc1707,627c6f3e3646f4d7c3b15976,2022-05-11_19h22.11.126,classification_task,2021.2.3,MacIntel,60.0024001,627c6715c52fd12f31907bd0,,,,,,,,,,,,,,,,,,,,,,,l,1,0.8659,"[""0.408"",""0.294"",""0.663"",""0.776""]","[0,1,1,1]",0,55,55,55,1,1,0,,,0,FALSE,,,,,,,,,,,,,,,,,,,,,,,,,,,,,,,
,6100f8806915845f7cfc1707,627c6f3e3646f4d7c3b15976,2022-05-11_19h22.11.126,classification_task,2021.2.3,MacIntel,60.0024001,627c6715c52fd12f31907bd0,,,,,,,,,,,,,,,,,,,,,,,a,1,0.6706,"[""0.408"",""0.348"",""0.735"",""0.931""]","[0,1,1,1]",0,56,56,56,1,0,0,,,0,FALSE,,,,,,,,,,,,,,,,,,,,,,,,,,,,,,,
,6100f8806915845f7cfc1707,627c6f3e3646f4d7c3b15976,2022-05-11_19h22.11.126,classification_task,2021.2.3,MacIntel,60.0024001,627c6715c52fd12f31907bd0,,,,,,,,,,,,,,,,,,,,,,,a,1,0.9795,"[""0.209"",""0.881"",""0.735"",""0.931""]","[1,0,1,1]",0,57,57,57,1,0,0,,,0,FALSE,,,,,,,,,,,,,,,,,,,,,,,,,,,,,,,
,6100f8806915845f7cfc1707,627c6f3e3646f4d7c3b15976,2022-05-11_19h22.11.126,classification_task,2021.2.3,MacIntel,60.0024001,627c6715c52fd12f31907bd0,,,,,,,,,,,,,,,,,,,,,,,l,1,1.0266,"[""0.871"",""0.251"",""0.623"",""0.832""]","[0,1,1,1]",0,58,58,58,1,1,1,,,0,FALSE,,,,,,,,,,,,,,,,,,,,,,,,,,,,,,,
,6100f8806915845f7cfc1707,627c6f3e3646f4d7c3b15976,2022-05-11_19h22.11.126,classification_task,2021.2.3,MacIntel,60.0024001,627c6715c52fd12f31907bd0,,,,,,,,,,,,,,,,,,,,,,,l,1,1.1955,"[""0.036"",""0.294"",""0.663"",""0.488""]","[1,1,1,0]",0,59,59,59,1,1,0,,,0,FALSE,,,,,,,,,,,,,,,,,,,,,,,,,,,,,,,
,6100f8806915845f7cfc1707,627c6f3e3646f4d7c3b15976,2022-05-11_19h22.11.126,classification_task,2021.2.3,MacIntel,60.0024001,627c6715c52fd12f31907bd0,,,,,,,,,,,,,,,,,,,,,,,l,1,0.9946,"[""0.097"",""0.251"",""0.623"",""0.396""]","[1,1,1,0]",0,60,60,60,1,1,1,,,0,FALSE,,,,,,,,,,,,,,,,,,,,,,,,,,,,,,,
,6100f8806915845f7cfc1707,627c6f3e3646f4d7c3b15976,2022-05-11_19h22.11.126,classification_task,2021.2.3,MacIntel,60.0024001,627c6715c52fd12f31907bd0,,,,,,,,,,,,,,,,,,,,,,,a,1,0.9072,"[""0.209"",""0.348"",""0.735"",""0.584""]","[1,1,1,0]",0,61,61,61,1,0,0,,,0,FALSE,,,,,,,,,,,,,,,,,,,,,,,,,,,,,,,
,6100f8806915845f7cfc1707,627c6f3e3646f4d7c3b15976,2022-05-11_19h22.11.126,classification_task,2021.2.3,MacIntel,60.0024001,627c6715c52fd12f31907bd0,,,,,,,,,,,,,,,,,,,,,,,l,0,1.1937,"[""0.871"",""0.538"",""0.699"",""0.967""]","[0,1,1,1]",0,62,62,62,1,0,1,,,0,FALSE,,,,,,,,,,,,,,,,,,,,,,,,,,,,,,,
,6100f8806915845f7cfc1707,627c6f3e3646f4d7c3b15976,2022-05-11_19h22.11.126,classification_task,2021.2.3,MacIntel,60.0024001,627c6715c52fd12f31907bd0,,,,,,,,,,,,,,,,,,,,,,,a,1,0.7713,"[""0.163"",""0.538"",""0.699"",""0.874""]","[1,1,1,0]",0,63,63,63,1,0,1,,,0,FALSE,,,,,,,,,,,,,,,,,,,,,,,,,,,,,,,
,6100f8806915845f7cfc1707,627c6f3e3646f4d7c3b15976,2022-05-11_19h22.11.126,classification_task,2021.2.3,MacIntel,60.0024001,627c6715c52fd12f31907bd0,,,,,,,,,,,,,,,,,,,,,,,,,,,,,,,,,,,,,,,0, ,,0,0,132.5781,0,2,2,2,1,2,3,,,,,,,,,,,,,,,,,,
,6100f8806915845f7cfc1707,627c6f3e3646f4d7c3b15976,2022-05-11_19h22.11.126,classification_task,2021.2.3,MacIntel,60.0024001,627c6715c52fd12f31907bd0,,,,,,,,,,,,,,,,,,,,,,,,,,,,,,,,,,,,,,,1,  ,,0,0.24349188,133.9423,0,2,2,2,1,2,3,,,,,,,,,,,,,,,,,,
,6100f8806915845f7cfc1707,627c6f3e3646f4d7c3b15976,2022-05-11_19h22.11.126,classification_task,2021.2.3,MacIntel,60.0024001,627c6715c52fd12f31907bd0,,,,,,,,,,,,,,,,,,,,,,,,,,,,,,,,,,,,,,,2,  ,,0,0.284827859,136.3267,0,2,2,2,1,2,3,,,,,,,,,,,,,,,,,,
,6100f8806915845f7cfc1707,627c6f3e3646f4d7c3b15976,2022-05-11_19h22.11.126,classification_task,2021.2.3,MacIntel,60.0024001,627c6715c52fd12f31907bd0,,,,,,,,,,,,,,,,,,,,,,,,,,,,,,,,,,,,,,,,,,,,,0,2,2,2,1,,3,,,,,,,,,,,,,,,,,,
,6100f8806915845f7cfc1707,627c6f3e3646f4d7c3b15976,2022-05-11_19h22.11.126,classification_task,2021.2.3,MacIntel,60.0024001,627c6715c52fd12f31907bd0,,,,,,,,,,,,,,,,,,,,,,,,,,,,,,,,,,,,,,,,,,,,,,,,,,,,,I believe the aid is a competent performer,,0.7,0,4,586.4249,0,0,0,0,1,0,,,,,
,6100f8806915845f7cfc1707,627c6f3e3646f4d7c3b15976,2022-05-11_19h22.11.126,classification_task,2021.2.3,MacIntel,60.0024001,627c6715c52fd12f31907bd0,,,,,,,,,,,,,,,,,,,,,,,,,,,,,,,,,,,,,,,,,,,,,,,,,,,,,I trust the aid,,0.7,0,5,590.3654,0,0,0,0,1,0,,,,,
,6100f8806915845f7cfc1707,627c6f3e3646f4d7c3b15976,2022-05-11_19h22.11.126,classification_task,2021.2.3,MacIntel,60.0024001,627c6715c52fd12f31907bd0,,,,,,,,,,,,,,,,,,,,,,,,,,,,,,,,,,,,,,,,,,,,,,,,,,,,,I have confidence in the advice given by the aid,,0.7,0,5,589.764,0,0,0,0,1,0,,,,,
,6100f8806915845f7cfc1707,627c6f3e3646f4d7c3b15976,2022-05-11_19h22.11.126,classification_task,2021.2.3,MacIntel,60.0024001,627c6715c52fd12f31907bd0,,,,,,,,,,,,,,,,,,,,,,,,,,,,,,,,,,,,,,,,,,,,,,,,,,,,,I can depend on the aid,,0.7,0,5,591.897,0,0,0,0,1,0,,,,,
,6100f8806915845f7cfc1707,627c6f3e3646f4d7c3b15976,2022-05-11_19h22.11.126,classification_task,2021.2.3,MacIntel,60.0024001,627c6715c52fd12f31907bd0,,,,,,,,,,,,,,,,,,,,,,,,,,,,,,,,,,,,,,,,,,,,,,,,,,,,,I can rely on the aid to behave in consistent ways,,0.7,0,5,592.6957,0,0,0,0,1,0,,,,,
,6100f8806915845f7cfc1707,627c6f3e3646f4d7c3b15976,2022-05-11_19h22.11.126,classification_task,2021.2.3,MacIntel,60.0024001,627c6715c52fd12f31907bd0,,,,,,,,,,,,,,,,,,,,,,,,,,,,,,,,,,,,,,,,,,,,,,,,,,,,,I can rely on the aid to do its best every time I take its advice,,0.7,0,5,595.0557,0,0,0,0,1,0,,,,,
,6100f8806915845f7cfc1707,627c6f3e3646f4d7c3b15976,2022-05-11_19h22.11.126,classification_task,2021.2.3,MacIntel,60.0024001,627c6715c52fd12f31907bd0,,,,,,,,,,,,,,,,,,,,,,,,,,,,,,,,,,,,,,,,,,,,,,,,,,,,,"On trials you completed with assistance from the aid, how frequently did you think the aid was correct?",,0.7,0,100%,,0,0,0,0,1,0,,,,,
,6100f8806915845f7cfc1707,627c6f3e3646f4d7c3b15976,2022-05-11_19h22.11.126,classification_task,2021.2.3,MacIntel,60.0024001,627c6715c52fd12f31907bd0,,,,,,,,,,,,,,,,,,,,,,,,,,,,,,,,,,,,,,,,,,,,,,,,,,,,,"On trials you completed without the aid, how frequently did you think you were correct?",,0.7,0,80%,,0,0,0,0,1,0,,,,,
,6100f8806915845f7cfc1707,627c6f3e3646f4d7c3b15976,2022-05-11_19h22.11.126,classification_task,2021.2.3,MacIntel,60.0024001,627c6715c52fd12f31907bd0,,,,,,,,,,,,,,,,,,,,,,,,,,,,,,,,,,,,,,,,,,,,,,,,,,,,,,,,,,,0,0,0,0,1,,,,,,
,6100f8806915845f7cfc1707,627c6f3e3646f4d7c3b15976,2022-05-11_19h22.11.126,classification_task,2021.2.3,MacIntel,60.0024001,627c6715c52fd12f31907bd0,,,,,,,,,,,,,,,,,,,,,,,,,,,,,,,,,,,,,,,,,,,,,,,,,,,,,,,,,,,,,,,,,space,4.6462,613.7356,,
,6100f8806915845f7cfc1707,627c6f3e3646f4d7c3b15976,2022-05-11_19h22.11.126,classification_task,2021.2.3,MacIntel,60.0024001,627c6715c52fd12f31907bd0,,,,,,,,,,,,,,,,,,,,,,,,,,,,,,,,,,,,,,,,,,,,,,,,,,,,,,,,,,,,,,,,,,,,"Mozilla/5.0 (Macintosh; Intel Mac OS X 10_15_7) AppleWebKit/537.36 (KHTML, like Gecko) Chrome/100.0.4896.127 Safari/537.36",
,6100f8806915845f7cfc1707,627c6f3e3646f4d7c3b15976,2022-05-11_19h22.11.126,classification_task,2021.2.3,MacIntel,60.0024001,627c6715c52fd12f31907bd0,,,,,,,,,,,,,,,,,,,,,,,,,,,,,,,,,,,,,,,,,,,,,,,,,,,,,,,,,,,,,,,,,,,,,HIGHLIGHT
