usingWebGL,participant,session,date,expName,psychopyVersion,OS,frameRate,study_id,signatures_friend,signatures_foe,band_ranges_top,band_ranges_bottom,formitemText,formtype,formundefined,formitemWidth,formindex,formresponse,formrt,key_resp_2.keys,key_resp_2.rt,tute_resp.keys,tute_resp.rt,tutorial.thisRepN,tutorial.thisTrialN,tutorial.thisN,tutorial.thisIndex,tutorial.ran,key_resp_4.keys,key_resp_4.rt,key_resp.keys,key_resp.corr,key_resp.rt,lines_presented,is_signal_presented,trials.thisRepN,trials.thisTrialN,trials.thisN,trials.thisIndex,trials.ran,vessel,active_band,lines,is_signal,supported_pos,catch_trial,debrief_formindex,debrief_formitemText,debrief_formtype,debrief_formitemWidth,debrief_formresponse,debrief_formrt,phases.thisRepN,phases.thisTrialN,phases.thisN,phases.thisIndex,phases.ran,phases.order,phase,key_resp_3.keys,trustitemText,trusttype,trustitemWidth,trustindex,trustresponse,trustrt,support_status.thisRepN,support_status.thisTrialN,support_status.thisN,support_status.thisIndex,support_status.ran,support_status.order,key_resp_5.keys,key_resp_5.rt,globalClockTime,userAgent,manualCondition
TRUE,61028f3aebce0a1f0d72420e,627c6fe1a6de7b82bc23ca40,2022-05-12_04h29.48.646,classification_task,2021.2.3,Win32,29.9940012,627c6715c52fd12f31907bcf,,,,,,,,,,,,,,,,,,,,,,,,,,,,,,,,,,,,,,,,,,,,,,,,,,,,,,,,,,,,,,,,,,,,,
,61028f3aebce0a1f0d72420e,627c6fe1a6de7b82bc23ca40,2022-05-12_04h29.48.646,classification_task,2021.2.3,Win32,29.9940012,627c6715c52fd12f31907bcf,"[[""0.190"",""0.477"",""0.851"",""0.898""],[""0.302"",""0.369"",""0.934"",""0.969""]]","[[""0.126"",""0.426"",""0.543"",""0.694""],[""0.052"",""0.235"",""0.660"",""0.762""]]","[1,10]","[100,1000]",Video game experience,,,0.7,0,,,,,,,,,,,,,,,,,,,,,,,,,,,,,,,,,,,,,,,,,,,,,,,,,,,,,,,,,,,,
,61028f3aebce0a1f0d72420e,627c6fe1a6de7b82bc23ca40,2022-05-12_04h29.48.646,classification_task,2021.2.3,Win32,29.9940012,627c6715c52fd12f31907bcf,,,,,Approximately how many hours did you spend playing video games in the last week?,,,0.7,0,30,,,,,,,,,,,,,,,,,,,,,,,,,,,,,,,,,,,,,,,,,,,,,,,,,,,,,,,,,,,
,61028f3aebce0a1f0d72420e,627c6fe1a6de7b82bc23ca40,2022-05-12_04h29.48.646,classification_task,2021.2.3,Win32,29.9940012,627c6715c52fd12f31907bcf,,,,,"Which game did you play the most this year? (Enter ""None"" if you didn't play any)",,,0.7,0,Honkai Impact 3rd,,,,,,,,,,,,,,,,,,,,,,,,,,,,,,,,,,,,,,,,,,,,,,,,,,,,,,,,,,,
,61028f3aebce0a1f0d72420e,627c6fe1a6de7b82bc23ca40,2022-05-12_04h29.48.646,classification_task,2021.2.3,Win32,29.9940012,627c6715c52fd12f31907bcf,,,,,Visual perception,,,0.7,0,,,,,,,,,,,,,,,,,,,,,,,,,,,,,,,,,,,,,,,,,,,,,,,,,,,,,,,,,,,,
,61028f3aebce0a1f0d72420e,627c6fe1a6de7b82bc23ca40,2022-05-12_04h29.48.646,classification_task,2021.2.3,Win32,29.9940012,627c6715c52fd12f31907bcf,,,,,Do you have any form of color blindness?,,,0.7,0,No,61.215,,,,,,,,,,,,,,,,,,,,,,,,,,,,,,,,,,,,,,,,,,,,,,,,,,,,,,,,,,
,61028f3aebce0a1f0d72420e,627c6fe1a6de7b82bc23ca40,2022-05-12_04h29.48.646,classification_task,2021.2.3,Win32,29.9940012,627c6715c52fd12f31907bcf,,,,,Do you use software to change the colour temperature of your screen (e.g. f.lux)?,,,0.7,0,No,63.395,,,,,,,,,,,,,,,,,,,,,,,,,,,,,,,,,,,,,,,,,,,,,,,,,,,,,,,,,,
,61028f3aebce0a1f0d72420e,627c6fe1a6de7b82bc23ca40,2022-05-12_04h29.48.646,classification_task,2021.2.3,Win32,29.9940012,627c6715c52fd12f31907bcf,,,,,,,,,,,,space,24.221,space,7.955,0,0,0,0,1,,,,,,,,,,,,,,,,,,,,,,,,,,,,,,,,,,,,,,,,,,,,,,,,,
,61028f3aebce0a1f0d72420e,627c6fe1a6de7b82bc23ca40,2022-05-12_04h29.48.646,classification_task,2021.2.3,Win32,29.9940012,627c6715c52fd12f31907bcf,,,,,,,,,,,,,,space,23.655,1,0,1,0,1,,,,,,,,,,,,,,,,,,,,,,,,,,,,,,,,,,,,,,,,,,,,,,,,,
,61028f3aebce0a1f0d72420e,627c6fe1a6de7b82bc23ca40,2022-05-12_04h29.48.646,classification_task,2021.2.3,Win32,29.9940012,627c6715c52fd12f31907bcf,,,,,,,,,,,,,,space,69.449,2,0,2,0,1,,,,,,,,,,,,,,,,,,,,,,,,,,,,,,,,,,,,,,,,,,,,,,,,,
,61028f3aebce0a1f0d72420e,627c6fe1a6de7b82bc23ca40,2022-05-12_04h29.48.646,classification_task,2021.2.3,Win32,29.9940012,627c6715c52fd12f31907bcf,,,,,,,,,,,,,,space,10.863,3,0,3,0,1,,,,,,,,,,,,,,,,,,,,,,,,,,,,,,,,,,,,,,,,,,,,,,,,,
,61028f3aebce0a1f0d72420e,627c6fe1a6de7b82bc23ca40,2022-05-12_04h29.48.646,classification_task,2021.2.3,Win32,29.9940012,627c6715c52fd12f31907bcf,,,,,,,,,,,,,,space,20.911,4,0,4,0,1,,,,,,,,,,,,,,,,,,,,,,,,,,,,,,,,,,,,,,,,,,,,,,,,,
,61028f3aebce0a1f0d72420e,627c6fe1a6de7b82bc23ca40,2022-05-12_04h29.48.646,classification_task,2021.2.3,Win32,29.9940012,627c6715c52fd12f31907bcf,,,,,,,,,,,,,,,,,,,,,space,343.919,a,0,8.891,"[""0.086"",""0.426"",""0.543"",""0.694""]","[0,1,1,1]",0,0,0,0,1,1,0,,,0,FALSE,,,,,,,,,,,,,,,,,,,,,,,,,,,,,,,
,61028f3aebce0a1f0d72420e,627c6fe1a6de7b82bc23ca40,2022-05-12_04h29.48.646,classification_task,2021.2.3,Win32,29.9940012,627c6715c52fd12f31907bcf,,,,,,,,,,,,,,,,,,,,,,,,0,,"[""0.052"",""0.601"",""0.660"",""0.762""]","[1,0,1,1]",0,1,1,1,1,1,1,,,0,FALSE,,,,,,,,,,,,,,,,,,,,,,,,,,,,,,,
,61028f3aebce0a1f0d72420e,627c6fe1a6de7b82bc23ca40,2022-05-12_04h29.48.646,classification_task,2021.2.3,Win32,29.9940012,627c6715c52fd12f31907bcf,,,,,,,,,,,,,,,,,,,,,,,l,1,8.067,"[""0.052"",""0.235"",""0.660"",""0.601""]","[1,1,1,0]",0,2,2,2,1,1,1,,,0,FALSE,,,,,,,,,,,,,,,,,,,,,,,,,,,,,,,
,61028f3aebce0a1f0d72420e,627c6fe1a6de7b82bc23ca40,2022-05-12_04h29.48.646,classification_task,2021.2.3,Win32,29.9940012,627c6715c52fd12f31907bcf,,,,,,,,,,,,,,,,,,,,,,,a,1,5.668,"[""0.302"",""0.369"",""0.268"",""0.969""]","[1,1,0,1]",0,3,3,3,1,0,1,,,0,FALSE,,,,,,,,,,,,,,,,,,,,,,,,,,,,,,,
,61028f3aebce0a1f0d72420e,627c6fe1a6de7b82bc23ca40,2022-05-12_04h29.48.646,classification_task,2021.2.3,Win32,29.9940012,627c6715c52fd12f31907bcf,,,,,,,,,,,,,,,,,,,,,,,l,0,6.858,"[""0.190"",""0.477"",""0.086"",""0.898""]","[1,1,0,1]",0,4,4,4,1,0,0,,,0,FALSE,,,,,,,,,,,,,,,,,,,,,,,,,,,,,,,
,61028f3aebce0a1f0d72420e,627c6fe1a6de7b82bc23ca40,2022-05-12_04h29.48.646,classification_task,2021.2.3,Win32,29.9940012,627c6715c52fd12f31907bcf,,,,,,,,,,,,,,,,,,,,,,,a,1,5.587,"[""0.302"",""0.601"",""0.934"",""0.969""]","[1,0,1,1]",0,5,5,5,1,0,1,,,0,FALSE,,,,,,,,,,,,,,,,,,,,,,,,,,,,,,,
,61028f3aebce0a1f0d72420e,627c6fe1a6de7b82bc23ca40,2022-05-12_04h29.48.646,classification_task,2021.2.3,Win32,29.9940012,627c6715c52fd12f31907bcf,,,,,,,,,,,,,,,,,,,,,,,a,1,4.177,"[""0.816"",""0.369"",""0.934"",""0.969""]","[0,1,1,1]",0,6,6,6,1,0,1,,,0,FALSE,,,,,,,,,,,,,,,,,,,,,,,,,,,,,,,
,61028f3aebce0a1f0d72420e,627c6fe1a6de7b82bc23ca40,2022-05-12_04h29.48.646,classification_task,2021.2.3,Win32,29.9940012,627c6715c52fd12f31907bcf,,,,,,,,,,,,,,,,,,,,,,,l,1,4.106,"[""0.126"",""0.623"",""0.543"",""0.694""]","[1,0,1,1]",0,7,7,7,1,1,0,,,0,FALSE,,,,,,,,,,,,,,,,,,,,,,,,,,,,,,,
,61028f3aebce0a1f0d72420e,627c6fe1a6de7b82bc23ca40,2022-05-12_04h29.48.646,classification_task,2021.2.3,Win32,29.9940012,627c6715c52fd12f31907bcf,,,,,,,,,,,,,,,,,,,,,,,l,0,5.134,"[""0.190"",""0.621"",""0.851"",""0.898""]","[1,0,1,1]",0,8,8,8,1,0,0,,,0,FALSE,,,,,,,,,,,,,,,,,,,,,,,,,,,,,,,
,61028f3aebce0a1f0d72420e,627c6fe1a6de7b82bc23ca40,2022-05-12_04h29.48.646,classification_task,2021.2.3,Win32,29.9940012,627c6715c52fd12f31907bcf,,,,,,,,,,,,,,,,,,,,,,,a,1,6.201,"[""0.190"",""0.477"",""0.851"",""0.625""]","[1,1,1,0]",0,9,9,9,1,0,0,,,0,FALSE,,,,,,,,,,,,,,,,,,,,,,,,,,,,,,,
,61028f3aebce0a1f0d72420e,627c6fe1a6de7b82bc23ca40,2022-05-12_04h29.48.646,classification_task,2021.2.3,Win32,29.9940012,627c6715c52fd12f31907bcf,,,,,,,,,,,,,,,,,,,,,,,l,1,4.642,"[""0.610"",""0.235"",""0.660"",""0.762""]","[0,1,1,1]",0,10,10,10,1,1,1,,,0,FALSE,,,,,,,,,,,,,,,,,,,,,,,,,,,,,,,
,61028f3aebce0a1f0d72420e,627c6fe1a6de7b82bc23ca40,2022-05-12_04h29.48.646,classification_task,2021.2.3,Win32,29.9940012,627c6715c52fd12f31907bcf,,,,,,,,,,,,,,,,,,,,,,,l,1,3.348,"[""0.126"",""0.426"",""0.621"",""0.694""]","[1,1,0,1]",0,11,11,11,1,1,0,,,0,FALSE,,,,,,,,,,,,,,,,,,,,,,,,,,,,,,,
,61028f3aebce0a1f0d72420e,627c6fe1a6de7b82bc23ca40,2022-05-12_04h29.48.646,classification_task,2021.2.3,Win32,29.9940012,627c6715c52fd12f31907bcf,,,,,,,,,,,,,,,,,,,,,,,l,1,4.383,"[""0.052"",""0.235"",""0.614"",""0.762""]","[1,1,0,1]",0,12,12,12,1,1,1,,,0,FALSE,,,,,,,,,,,,,,,,,,,,,,,,,,,,,,,
,61028f3aebce0a1f0d72420e,627c6fe1a6de7b82bc23ca40,2022-05-12_04h29.48.646,classification_task,2021.2.3,Win32,29.9940012,627c6715c52fd12f31907bcf,,,,,,,,,,,,,,,,,,,,,,,l,1,5.628,"[""0.126"",""0.426"",""0.543"",""0.611""]","[1,1,1,0]",0,13,13,13,1,1,0,,,0,FALSE,,,,,,,,,,,,,,,,,,,,,,,,,,,,,,,
,61028f3aebce0a1f0d72420e,627c6fe1a6de7b82bc23ca40,2022-05-12_04h29.48.646,classification_task,2021.2.3,Win32,29.9940012,627c6715c52fd12f31907bcf,,,,,,,,,,,,,,,,,,,,,,,a,1,5.765,"[""0.302"",""0.369"",""0.934"",""0.614""]","[1,1,1,0]",0,14,14,14,1,0,1,,,0,FALSE,,,,,,,,,,,,,,,,,,,,,,,,,,,,,,,
,61028f3aebce0a1f0d72420e,627c6fe1a6de7b82bc23ca40,2022-05-12_04h29.48.646,classification_task,2021.2.3,Win32,29.9940012,627c6715c52fd12f31907bcf,,,,,,,,,,,,,,,,,,,,,,,a,1,4.989,"[""0.086"",""0.477"",""0.851"",""0.898""]","[0,1,1,1]",0,15,15,15,1,0,0,,,0,FALSE,,,,,,,,,,,,,,,,,,,,,,,,,,,,,,,
,61028f3aebce0a1f0d72420e,627c6fe1a6de7b82bc23ca40,2022-05-12_04h29.48.646,classification_task,2021.2.3,Win32,29.9940012,627c6715c52fd12f31907bcf,,,,,,,,,,,,,,,,,,,,,,,l,1,2.345,"[""0.126"",""0.426"",""0.614"",""0.694""]","[1,1,0,1]",0,16,16,16,1,1,0,,,0,FALSE,,,,,,,,,,,,,,,,,,,,,,,,,,,,,,,
,61028f3aebce0a1f0d72420e,627c6fe1a6de7b82bc23ca40,2022-05-12_04h29.48.646,classification_task,2021.2.3,Win32,29.9940012,627c6715c52fd12f31907bcf,,,,,,,,,,,,,,,,,,,,,,,a,1,4.053,"[""0.190"",""0.477"",""0.851"",""0.597""]","[1,1,1,0]",0,17,17,17,1,0,0,,,0,FALSE,,,,,,,,,,,,,,,,,,,,,,,,,,,,,,,
,61028f3aebce0a1f0d72420e,627c6fe1a6de7b82bc23ca40,2022-05-12_04h29.48.646,classification_task,2021.2.3,Win32,29.9940012,627c6715c52fd12f31907bcf,,,,,,,,,,,,,,,,,,,,,,,l,1,3.808,"[""0.086"",""0.235"",""0.660"",""0.762""]","[0,1,1,1]",0,18,18,18,1,1,1,,,0,FALSE,,,,,,,,,,,,,,,,,,,,,,,,,,,,,,,
,61028f3aebce0a1f0d72420e,627c6fe1a6de7b82bc23ca40,2022-05-12_04h29.48.646,classification_task,2021.2.3,Win32,29.9940012,627c6715c52fd12f31907bcf,,,,,,,,,,,,,,,,,,,,,,,l,1,3.979,"[""0.052"",""0.235"",""0.621"",""0.762""]","[1,1,0,1]",0,19,19,19,1,1,1,,,0,FALSE,,,,,,,,,,,,,,,,,,,,,,,,,,,,,,,
,61028f3aebce0a1f0d72420e,627c6fe1a6de7b82bc23ca40,2022-05-12_04h29.48.646,classification_task,2021.2.3,Win32,29.9940012,627c6715c52fd12f31907bcf,,,,,,,,,,,,,,,,,,,,,,,l,1,3.86,"[""0.052"",""0.613"",""0.660"",""0.762""]","[1,0,1,1]",0,20,20,20,1,1,1,,,0,FALSE,,,,,,,,,,,,,,,,,,,,,,,,,,,,,,,
,61028f3aebce0a1f0d72420e,627c6fe1a6de7b82bc23ca40,2022-05-12_04h29.48.646,classification_task,2021.2.3,Win32,29.9940012,627c6715c52fd12f31907bcf,,,,,,,,,,,,,,,,,,,,,,,a,1,4.384,"[""0.190"",""0.477"",""0.623"",""0.898""]","[1,1,0,1]",0,21,21,21,1,0,0,,,0,FALSE,,,,,,,,,,,,,,,,,,,,,,,,,,,,,,,
,61028f3aebce0a1f0d72420e,627c6fe1a6de7b82bc23ca40,2022-05-12_04h29.48.646,classification_task,2021.2.3,Win32,29.9940012,627c6715c52fd12f31907bcf,,,,,,,,,,,,,,,,,,,,,,,a,1,3.953,"[""0.302"",""0.369"",""0.934"",""0.623""]","[1,1,1,0]",0,22,22,22,1,0,1,,,0,FALSE,,,,,,,,,,,,,,,,,,,,,,,,,,,,,,,
,61028f3aebce0a1f0d72420e,627c6fe1a6de7b82bc23ca40,2022-05-12_04h29.48.646,classification_task,2021.2.3,Win32,29.9940012,627c6715c52fd12f31907bcf,,,,,,,,,,,,,,,,,,,,,,,l,1,2.436,"[""0.126"",""0.426"",""0.543"",""0.610""]","[1,1,1,0]",0,23,23,23,1,1,0,,,0,FALSE,,,,,,,,,,,,,,,,,,,,,,,,,,,,,,,
,61028f3aebce0a1f0d72420e,627c6fe1a6de7b82bc23ca40,2022-05-12_04h29.48.646,classification_task,2021.2.3,Win32,29.9940012,627c6715c52fd12f31907bcf,,,,,,,,,,,,,,,,,,,,,,,a,0,4.022,"[""0.126"",""0.086"",""0.543"",""0.694""]","[1,0,1,1]",0,24,24,24,1,1,0,,,0,FALSE,,,,,,,,,,,,,,,,,,,,,,,,,,,,,,,
,61028f3aebce0a1f0d72420e,627c6fe1a6de7b82bc23ca40,2022-05-12_04h29.48.646,classification_task,2021.2.3,Win32,29.9940012,627c6715c52fd12f31907bcf,,,,,,,,,,,,,,,,,,,,,,,a,1,4.048,"[""0.613"",""0.369"",""0.934"",""0.969""]","[0,1,1,1]",0,25,25,25,1,0,1,,,0,FALSE,,,,,,,,,,,,,,,,,,,,,,,,,,,,,,,
,61028f3aebce0a1f0d72420e,627c6fe1a6de7b82bc23ca40,2022-05-12_04h29.48.646,classification_task,2021.2.3,Win32,29.9940012,627c6715c52fd12f31907bcf,,,,,,,,,,,,,,,,,,,,,,,l,1,2.979,"[""0.625"",""0.426"",""0.543"",""0.694""]","[0,1,1,1]",0,26,26,26,1,1,0,,,0,FALSE,,,,,,,,,,,,,,,,,,,,,,,,,,,,,,,
,61028f3aebce0a1f0d72420e,627c6fe1a6de7b82bc23ca40,2022-05-12_04h29.48.646,classification_task,2021.2.3,Win32,29.9940012,627c6715c52fd12f31907bcf,,,,,,,,,,,,,,,,,,,,,,,l,1,4.989,"[""0.052"",""0.235"",""0.660"",""0.597""]","[1,1,1,0]",0,27,27,27,1,1,1,,,0,FALSE,,,,,,,,,,,,,,,,,,,,,,,,,,,,,,,
,61028f3aebce0a1f0d72420e,627c6fe1a6de7b82bc23ca40,2022-05-12_04h29.48.646,classification_task,2021.2.3,Win32,29.9940012,627c6715c52fd12f31907bcf,,,,,,,,,,,,,,,,,,,,,,,a,1,4.518,"[""0.190"",""0.614"",""0.851"",""0.898""]","[1,0,1,1]",0,28,28,28,1,0,0,,,0,FALSE,,,,,,,,,,,,,,,,,,,,,,,,,,,,,,,
,61028f3aebce0a1f0d72420e,627c6fe1a6de7b82bc23ca40,2022-05-12_04h29.48.646,classification_task,2021.2.3,Win32,29.9940012,627c6715c52fd12f31907bcf,,,,,,,,,,,,,,,,,,,,,,,a,1,3.44,"[""0.302"",""0.369"",""0.623"",""0.969""]","[1,1,0,1]",0,29,29,29,1,0,1,,,0,FALSE,,,,,,,,,,,,,,,,,,,,,,,,,,,,,,,
,61028f3aebce0a1f0d72420e,627c6fe1a6de7b82bc23ca40,2022-05-12_04h29.48.646,classification_task,2021.2.3,Win32,29.9940012,627c6715c52fd12f31907bcf,,,,,,,,,,,,,,,,,,,,,,,l,0,3.67,"[""0.086"",""0.477"",""0.851"",""0.898""]","[0,1,1,1]",0,30,30,30,1,0,0,,,0,FALSE,,,,,,,,,,,,,,,,,,,,,,,,,,,,,,,
,61028f3aebce0a1f0d72420e,627c6fe1a6de7b82bc23ca40,2022-05-12_04h29.48.646,classification_task,2021.2.3,Win32,29.9940012,627c6715c52fd12f31907bcf,,,,,,,,,,,,,,,,,,,,,,,a,1,2.608,"[""0.302"",""0.801"",""0.934"",""0.969""]","[1,0,1,1]",0,31,31,31,1,0,1,,,0,FALSE,,,,,,,,,,,,,,,,,,,,,,,,,,,,,,,
,61028f3aebce0a1f0d72420e,627c6fe1a6de7b82bc23ca40,2022-05-12_04h29.48.646,classification_task,2021.2.3,Win32,29.9940012,627c6715c52fd12f31907bcf,,,,,,,,,,,,,,,,,,,,,,,a,0,3.703,"[""0.126"",""0.426"",""0.543"",""0.621""]","[1,1,1,0]",0,32,32,32,1,1,0,,,0,FALSE,,,,,,,,,,,,,,,,,,,,,,,,,,,,,,,
,61028f3aebce0a1f0d72420e,627c6fe1a6de7b82bc23ca40,2022-05-12_04h29.48.646,classification_task,2021.2.3,Win32,29.9940012,627c6715c52fd12f31907bcf,,,,,,,,,,,,,,,,,,,,,,,l,1,2.385,"[""0.610"",""0.235"",""0.660"",""0.762""]","[0,1,1,1]",0,33,33,33,1,1,1,,,0,FALSE,,,,,,,,,,,,,,,,,,,,,,,,,,,,,,,
,61028f3aebce0a1f0d72420e,627c6fe1a6de7b82bc23ca40,2022-05-12_04h29.48.646,classification_task,2021.2.3,Win32,29.9940012,627c6715c52fd12f31907bcf,,,,,,,,,,,,,,,,,,,,,,,l,1,2.187,"[""0.126"",""0.426"",""0.614"",""0.694""]","[1,1,0,1]",0,34,34,34,1,1,0,,,0,FALSE,,,,,,,,,,,,,,,,,,,,,,,,,,,,,,,
,61028f3aebce0a1f0d72420e,627c6fe1a6de7b82bc23ca40,2022-05-12_04h29.48.646,classification_task,2021.2.3,Win32,29.9940012,627c6715c52fd12f31907bcf,,,,,,,,,,,,,,,,,,,,,,,a,1,1.691,"[""0.190"",""0.477"",""0.611"",""0.898""]","[1,1,0,1]",0,35,35,35,1,0,0,,,0,FALSE,,,,,,,,,,,,,,,,,,,,,,,,,,,,,,,
,61028f3aebce0a1f0d72420e,627c6fe1a6de7b82bc23ca40,2022-05-12_04h29.48.646,classification_task,2021.2.3,Win32,29.9940012,627c6715c52fd12f31907bcf,,,,,,,,,,,,,,,,,,,,,,,a,1,3.253,"[""0.302"",""0.369"",""0.621"",""0.969""]","[1,1,0,1]",0,36,36,36,1,0,1,,,0,FALSE,,,,,,,,,,,,,,,,,,,,,,,,,,,,,,,
,61028f3aebce0a1f0d72420e,627c6fe1a6de7b82bc23ca40,2022-05-12_04h29.48.646,classification_task,2021.2.3,Win32,29.9940012,627c6715c52fd12f31907bcf,,,,,,,,,,,,,,,,,,,,,,,a,1,3.367,"[""0.190"",""0.801"",""0.851"",""0.898""]","[1,0,1,1]",0,37,37,37,1,0,0,,,0,FALSE,,,,,,,,,,,,,,,,,,,,,,,,,,,,,,,
,61028f3aebce0a1f0d72420e,627c6fe1a6de7b82bc23ca40,2022-05-12_04h29.48.646,classification_task,2021.2.3,Win32,29.9940012,627c6715c52fd12f31907bcf,,,,,,,,,,,,,,,,,,,,,,,l,1,1.96,"[""0.126"",""0.626"",""0.543"",""0.694""]","[1,0,1,1]",0,38,38,38,1,1,0,,,0,FALSE,,,,,,,,,,,,,,,,,,,,,,,,,,,,,,,
,61028f3aebce0a1f0d72420e,627c6fe1a6de7b82bc23ca40,2022-05-12_04h29.48.646,classification_task,2021.2.3,Win32,29.9940012,627c6715c52fd12f31907bcf,,,,,,,,,,,,,,,,,,,,,,,a,1,2.491,"[""0.302"",""0.369"",""0.934"",""0.613""]","[1,1,1,0]",0,39,39,39,1,0,1,,,0,FALSE,,,,,,,,,,,,,,,,,,,,,,,,,,,,,,,
,61028f3aebce0a1f0d72420e,627c6fe1a6de7b82bc23ca40,2022-05-12_04h29.48.646,classification_task,2021.2.3,Win32,29.9940012,627c6715c52fd12f31907bcf,,,,,,,,,,,,,,,,,,,,,,,l,0,1.659,"[""0.302"",""0.801"",""0.934"",""0.969""]","[1,0,1,1]",0,40,40,40,1,0,1,,,0,FALSE,,,,,,,,,,,,,,,,,,,,,,,,,,,,,,,
,61028f3aebce0a1f0d72420e,627c6fe1a6de7b82bc23ca40,2022-05-12_04h29.48.646,classification_task,2021.2.3,Win32,29.9940012,627c6715c52fd12f31907bcf,,,,,,,,,,,,,,,,,,,,,,,l,1,1.394,"[""0.052"",""0.235"",""0.614"",""0.762""]","[1,1,0,1]",0,41,41,41,1,1,1,,,0,FALSE,,,,,,,,,,,,,,,,,,,,,,,,,,,,,,,
,61028f3aebce0a1f0d72420e,627c6fe1a6de7b82bc23ca40,2022-05-12_04h29.48.646,classification_task,2021.2.3,Win32,29.9940012,627c6715c52fd12f31907bcf,,,,,,,,,,,,,,,,,,,,,,,a,1,1.752,"[""0.190"",""0.477"",""0.851"",""0.610""]","[1,1,1,0]",0,42,42,42,1,0,0,,,0,FALSE,,,,,,,,,,,,,,,,,,,,,,,,,,,,,,,
,61028f3aebce0a1f0d72420e,627c6fe1a6de7b82bc23ca40,2022-05-12_04h29.48.646,classification_task,2021.2.3,Win32,29.9940012,627c6715c52fd12f31907bcf,,,,,,,,,,,,,,,,,,,,,,,l,1,1.654,"[""0.623"",""0.426"",""0.543"",""0.694""]","[0,1,1,1]",0,43,43,43,1,1,0,,,0,FALSE,,,,,,,,,,,,,,,,,,,,,,,,,,,,,,,
,61028f3aebce0a1f0d72420e,627c6fe1a6de7b82bc23ca40,2022-05-12_04h29.48.646,classification_task,2021.2.3,Win32,29.9940012,627c6715c52fd12f31907bcf,,,,,,,,,,,,,,,,,,,,,,,l,1,2.244,"[""0.052"",""0.235"",""0.660"",""0.610""]","[1,1,1,0]",0,44,44,44,1,1,1,,,0,FALSE,,,,,,,,,,,,,,,,,,,,,,,,,,,,,,,
,61028f3aebce0a1f0d72420e,627c6fe1a6de7b82bc23ca40,2022-05-12_04h29.48.646,classification_task,2021.2.3,Win32,29.9940012,627c6715c52fd12f31907bcf,,,,,,,,,,,,,,,,,,,,,,,a,1,2.418,"[""0.815"",""0.477"",""0.851"",""0.898""]","[0,1,1,1]",0,45,45,45,1,0,0,,,0,FALSE,,,,,,,,,,,,,,,,,,,,,,,,,,,,,,,
,61028f3aebce0a1f0d72420e,627c6fe1a6de7b82bc23ca40,2022-05-12_04h29.48.646,classification_task,2021.2.3,Win32,29.9940012,627c6715c52fd12f31907bcf,,,,,,,,,,,,,,,,,,,,,,,l,0,2.453,"[""0.626"",""0.369"",""0.934"",""0.969""]","[0,1,1,1]",0,46,46,46,1,0,1,,,0,FALSE,,,,,,,,,,,,,,,,,,,,,,,,,,,,,,,
,61028f3aebce0a1f0d72420e,627c6fe1a6de7b82bc23ca40,2022-05-12_04h29.48.646,classification_task,2021.2.3,Win32,29.9940012,627c6715c52fd12f31907bcf,,,,,,,,,,,,,,,,,,,,,,,l,1,1.601,"[""0.052"",""0.625"",""0.660"",""0.762""]","[1,0,1,1]",0,47,47,47,1,1,1,,,0,FALSE,,,,,,,,,,,,,,,,,,,,,,,,,,,,,,,
,61028f3aebce0a1f0d72420e,627c6fe1a6de7b82bc23ca40,2022-05-12_04h29.48.646,classification_task,2021.2.3,Win32,29.9940012,627c6715c52fd12f31907bcf,,,,,,,,,,,,,,,,,,,,,,,a,0,2.849,"[""0.052"",""0.235"",""0.660"",""0.613""]","[1,1,1,0]",0,48,48,48,1,1,1,,,0,FALSE,,,,,,,,,,,,,,,,,,,,,,,,,,,,,,,
,61028f3aebce0a1f0d72420e,627c6fe1a6de7b82bc23ca40,2022-05-12_04h29.48.646,classification_task,2021.2.3,Win32,29.9940012,627c6715c52fd12f31907bcf,,,,,,,,,,,,,,,,,,,,,,,a,1,2.629,"[""0.302"",""0.369"",""0.934"",""0.815""]","[1,1,1,0]",0,49,49,49,1,0,1,,,0,FALSE,,,,,,,,,,,,,,,,,,,,,,,,,,,,,,,
,61028f3aebce0a1f0d72420e,627c6fe1a6de7b82bc23ca40,2022-05-12_04h29.48.646,classification_task,2021.2.3,Win32,29.9940012,627c6715c52fd12f31907bcf,,,,,,,,,,,,,,,,,,,,,,,l,1,1.673,"[""0.052"",""0.621"",""0.660"",""0.762""]","[1,0,1,1]",0,50,50,50,1,1,1,,,0,FALSE,,,,,,,,,,,,,,,,,,,,,,,,,,,,,,,
,61028f3aebce0a1f0d72420e,627c6fe1a6de7b82bc23ca40,2022-05-12_04h29.48.646,classification_task,2021.2.3,Win32,29.9940012,627c6715c52fd12f31907bcf,,,,,,,,,,,,,,,,,,,,,,,l,1,2.771,"[""0.126"",""0.812"",""0.543"",""0.694""]","[1,0,1,1]",0,51,51,51,1,1,0,,,0,FALSE,,,,,,,,,,,,,,,,,,,,,,,,,,,,,,,
,61028f3aebce0a1f0d72420e,627c6fe1a6de7b82bc23ca40,2022-05-12_04h29.48.646,classification_task,2021.2.3,Win32,29.9940012,627c6715c52fd12f31907bcf,,,,,,,,,,,,,,,,,,,,,,,l,0,2.514,"[""0.302"",""0.815"",""0.934"",""0.969""]","[1,0,1,1]",0,52,52,52,1,0,1,,,0,FALSE,,,,,,,,,,,,,,,,,,,,,,,,,,,,,,,
,61028f3aebce0a1f0d72420e,627c6fe1a6de7b82bc23ca40,2022-05-12_04h29.48.646,classification_task,2021.2.3,Win32,29.9940012,627c6715c52fd12f31907bcf,,,,,,,,,,,,,,,,,,,,,,,l,1,1.587,"[""0.610"",""0.235"",""0.660"",""0.762""]","[0,1,1,1]",0,53,53,53,1,1,1,,,0,FALSE,,,,,,,,,,,,,,,,,,,,,,,,,,,,,,,
,61028f3aebce0a1f0d72420e,627c6fe1a6de7b82bc23ca40,2022-05-12_04h29.48.646,classification_task,2021.2.3,Win32,29.9940012,627c6715c52fd12f31907bcf,,,,,,,,,,,,,,,,,,,,,,,l,1,2.505,"[""0.052"",""0.235"",""0.621"",""0.762""]","[1,1,0,1]",0,54,54,54,1,1,1,,,0,FALSE,,,,,,,,,,,,,,,,,,,,,,,,,,,,,,,
,61028f3aebce0a1f0d72420e,627c6fe1a6de7b82bc23ca40,2022-05-12_04h29.48.646,classification_task,2021.2.3,Win32,29.9940012,627c6715c52fd12f31907bcf,,,,,,,,,,,,,,,,,,,,,,,a,1,1.841,"[""0.302"",""0.369"",""0.610"",""0.969""]","[1,1,0,1]",0,55,55,55,1,0,1,,,0,FALSE,,,,,,,,,,,,,,,,,,,,,,,,,,,,,,,
,61028f3aebce0a1f0d72420e,627c6fe1a6de7b82bc23ca40,2022-05-12_04h29.48.646,classification_task,2021.2.3,Win32,29.9940012,627c6715c52fd12f31907bcf,,,,,,,,,,,,,,,,,,,,,,,l,1,2.536,"[""0.126"",""0.426"",""0.626"",""0.694""]","[1,1,0,1]",0,56,56,56,1,1,0,,,0,FALSE,,,,,,,,,,,,,,,,,,,,,,,,,,,,,,,
,61028f3aebce0a1f0d72420e,627c6fe1a6de7b82bc23ca40,2022-05-12_04h29.48.646,classification_task,2021.2.3,Win32,29.9940012,627c6715c52fd12f31907bcf,,,,,,,,,,,,,,,,,,,,,,,l,1,1.66,"[""0.623"",""0.426"",""0.543"",""0.694""]","[0,1,1,1]",0,57,57,57,1,1,0,,,0,FALSE,,,,,,,,,,,,,,,,,,,,,,,,,,,,,,,
,61028f3aebce0a1f0d72420e,627c6fe1a6de7b82bc23ca40,2022-05-12_04h29.48.646,classification_task,2021.2.3,Win32,29.9940012,627c6715c52fd12f31907bcf,,,,,,,,,,,,,,,,,,,,,,,a,1,1.647,"[""0.190"",""0.477"",""0.851"",""0.621""]","[1,1,1,0]",0,58,58,58,1,0,0,,,0,FALSE,,,,,,,,,,,,,,,,,,,,,,,,,,,,,,,
,61028f3aebce0a1f0d72420e,627c6fe1a6de7b82bc23ca40,2022-05-12_04h29.48.646,classification_task,2021.2.3,Win32,29.9940012,627c6715c52fd12f31907bcf,,,,,,,,,,,,,,,,,,,,,,,l,1,1.975,"[""0.126"",""0.426"",""0.543"",""0.621""]","[1,1,1,0]",0,59,59,59,1,1,0,,,0,FALSE,,,,,,,,,,,,,,,,,,,,,,,,,,,,,,,
,61028f3aebce0a1f0d72420e,627c6fe1a6de7b82bc23ca40,2022-05-12_04h29.48.646,classification_task,2021.2.3,Win32,29.9940012,627c6715c52fd12f31907bcf,,,,,,,,,,,,,,,,,,,,,,,a,1,1.991,"[""0.626"",""0.369"",""0.934"",""0.969""]","[0,1,1,1]",0,60,60,60,1,0,1,,,0,FALSE,,,,,,,,,,,,,,,,,,,,,,,,,,,,,,,
,61028f3aebce0a1f0d72420e,627c6fe1a6de7b82bc23ca40,2022-05-12_04h29.48.646,classification_task,2021.2.3,Win32,29.9940012,627c6715c52fd12f31907bcf,,,,,,,,,,,,,,,,,,,,,,,a,1,1.594,"[""0.190"",""0.611"",""0.851"",""0.898""]","[1,0,1,1]",0,61,61,61,1,0,0,,,0,FALSE,,,,,,,,,,,,,,,,,,,,,,,,,,,,,,,
,61028f3aebce0a1f0d72420e,627c6fe1a6de7b82bc23ca40,2022-05-12_04h29.48.646,classification_task,2021.2.3,Win32,29.9940012,627c6715c52fd12f31907bcf,,,,,,,,,,,,,,,,,,,,,,,a,1,1.708,"[""0.190"",""0.477"",""0.816"",""0.898""]","[1,1,0,1]",0,62,62,62,1,0,0,,,0,FALSE,,,,,,,,,,,,,,,,,,,,,,,,,,,,,,,
,61028f3aebce0a1f0d72420e,627c6fe1a6de7b82bc23ca40,2022-05-12_04h29.48.646,classification_task,2021.2.3,Win32,29.9940012,627c6715c52fd12f31907bcf,,,,,,,,,,,,,,,,,,,,,,,a,1,1.849,"[""0.086"",""0.477"",""0.851"",""0.898""]","[0,1,1,1]",0,63,63,63,1,0,0,,,0,FALSE,,,,,,,,,,,,,,,,,,,,,,,,,,,,,,,
,61028f3aebce0a1f0d72420e,627c6fe1a6de7b82bc23ca40,2022-05-12_04h29.48.646,classification_task,2021.2.3,Win32,29.9940012,627c6715c52fd12f31907bcf,,,,,,,,,,,,,,,,,,,,,,,,,,,,,,,,,,,,,,,0, ,,0,5,907.774,0,0,0,0,1,2,1,,,,,,,,,,,,,,,,,,
,61028f3aebce0a1f0d72420e,627c6fe1a6de7b82bc23ca40,2022-05-12_04h29.48.646,classification_task,2021.2.3,Win32,29.9940012,627c6715c52fd12f31907bcf,,,,,,,,,,,,,,,,,,,,,,,,,,,,,,,,,,,,,,,1,  ,,0,6.825672399,899.052,0,0,0,0,1,2,1,,,,,,,,,,,,,,,,,,
,61028f3aebce0a1f0d72420e,627c6fe1a6de7b82bc23ca40,2022-05-12_04h29.48.646,classification_task,2021.2.3,Win32,29.9940012,627c6715c52fd12f31907bcf,,,,,,,,,,,,,,,,,,,,,,,,,,,,,,,,,,,,,,,2,  ,,0,5.482253086,919.84,0,0,0,0,1,2,1,,,,,,,,,,,,,,,,,,
,61028f3aebce0a1f0d72420e,627c6fe1a6de7b82bc23ca40,2022-05-12_04h29.48.646,classification_task,2021.2.3,Win32,29.9940012,627c6715c52fd12f31907bcf,,,,,,,,,,,,,,,,,,,,,,,,,,,,,,,,,,,,,,,,,,,,,0,0,0,0,1,,1,,,,,,,,,,,,,,,,,,
,61028f3aebce0a1f0d72420e,627c6fe1a6de7b82bc23ca40,2022-05-12_04h29.48.646,classification_task,2021.2.3,Win32,29.9940012,627c6715c52fd12f31907bcf,,,,,,,,,,,,,,,,,,,,,space,23.067,a,1,3.204,"[""0.302"",""0.597"",""0.934"",""0.969""]","[1,0,1,1]",0,0,0,0,1,0,1,,,0,FALSE,,,,,,,,,,,,,,,,,,,,,,,,,,,,,,,
,61028f3aebce0a1f0d72420e,627c6fe1a6de7b82bc23ca40,2022-05-12_04h29.48.646,classification_task,2021.2.3,Win32,29.9940012,627c6715c52fd12f31907bcf,,,,,,,,,,,,,,,,,,,,,,,l,1,3.621,"[""0.052"",""0.235"",""0.660"",""0.621""]","[1,1,1,0]",0,1,1,1,1,1,1,,,0,FALSE,,,,,,,,,,,,,,,,,,,,,,,,,,,,,,,
,61028f3aebce0a1f0d72420e,627c6fe1a6de7b82bc23ca40,2022-05-12_04h29.48.646,classification_task,2021.2.3,Win32,29.9940012,627c6715c52fd12f31907bcf,,,,,,,,,,,,,,,,,,,,,,,l,0,5.831,"[""0.190"",""0.477"",""0.851"",""0.086""]","[1,1,1,0]",0,2,2,2,1,0,0,,,0,FALSE,,,,,,,,,,,,,,,,,,,,,,,,,,,,,,,
,61028f3aebce0a1f0d72420e,627c6fe1a6de7b82bc23ca40,2022-05-12_04h29.48.646,classification_task,2021.2.3,Win32,29.9940012,627c6715c52fd12f31907bcf,,,,,,,,,,,,,,,,,,,,,,,a,1,3.573,"[""0.812"",""0.369"",""0.934"",""0.969""]","[0,1,1,1]",0,3,3,3,1,0,1,,,0,FALSE,,,,,,,,,,,,,,,,,,,,,,,,,,,,,,,
,61028f3aebce0a1f0d72420e,627c6fe1a6de7b82bc23ca40,2022-05-12_04h29.48.646,classification_task,2021.2.3,Win32,29.9940012,627c6715c52fd12f31907bcf,,,,,,,,,,,,,,,,,,,,,,,l,1,3.494,"[""0.126"",""0.426"",""0.543"",""0.625""]","[1,1,1,0]",0,4,4,4,1,1,0,,,0,FALSE,,,,,,,,,,,,,,,,,,,,,,,,,,,,,,,
,61028f3aebce0a1f0d72420e,627c6fe1a6de7b82bc23ca40,2022-05-12_04h29.48.646,classification_task,2021.2.3,Win32,29.9940012,627c6715c52fd12f31907bcf,,,,,,,,,,,,,,,,,,,,,,,a,1,1.839,"[""0.302"",""0.369"",""0.801"",""0.969""]","[1,1,0,1]",0,5,5,5,1,0,1,,,0,FALSE,,,,,,,,,,,,,,,,,,,,,,,,,,,,,,,
,61028f3aebce0a1f0d72420e,627c6fe1a6de7b82bc23ca40,2022-05-12_04h29.48.646,classification_task,2021.2.3,Win32,29.9940012,627c6715c52fd12f31907bcf,,,,,,,,,,,,,,,,,,,,,,,l,0,3.999,"[""0.801"",""0.477"",""0.851"",""0.898""]","[0,1,1,1]",0,6,6,6,1,0,0,,,0,FALSE,,,,,,,,,,,,,,,,,,,,,,,,,,,,,,,
,61028f3aebce0a1f0d72420e,627c6fe1a6de7b82bc23ca40,2022-05-12_04h29.48.646,classification_task,2021.2.3,Win32,29.9940012,627c6715c52fd12f31907bcf,,,,,,,,,,,,,,,,,,,,,,,a,1,1.76,"[""0.302"",""0.369"",""0.934"",""0.815""]","[1,1,1,0]",0,7,7,7,1,0,1,,,0,FALSE,,,,,,,,,,,,,,,,,,,,,,,,,,,,,,,
,61028f3aebce0a1f0d72420e,627c6fe1a6de7b82bc23ca40,2022-05-12_04h29.48.646,classification_task,2021.2.3,Win32,29.9940012,627c6715c52fd12f31907bcf,,,,,,,,,,,,,,,,,,,,,,,a,1,2.014,"[""0.190"",""0.625"",""0.851"",""0.898""]","[1,0,1,1]",0,8,8,8,1,0,0,,,0,FALSE,,,,,,,,,,,,,,,,,,,,,,,,,,,,,,,
,61028f3aebce0a1f0d72420e,627c6fe1a6de7b82bc23ca40,2022-05-12_04h29.48.646,classification_task,2021.2.3,Win32,29.9940012,627c6715c52fd12f31907bcf,,,,,,,,,,,,,,,,,,,,,,,l,0,3.557,"[""0.190"",""0.477"",""0.816"",""0.898""]","[1,1,0,1]",0,9,9,9,1,0,0,,,0,FALSE,,,,,,,,,,,,,,,,,,,,,,,,,,,,,,,
,61028f3aebce0a1f0d72420e,627c6fe1a6de7b82bc23ca40,2022-05-12_04h29.48.646,classification_task,2021.2.3,Win32,29.9940012,627c6715c52fd12f31907bcf,,,,,,,,,,,,,,,,,,,,,,,l,1,2.894,"[""0.816"",""0.235"",""0.660"",""0.762""]","[0,1,1,1]",0,10,10,10,1,1,1,,,0,FALSE,,,,,,,,,,,,,,,,,,,,,,,,,,,,,,,
,61028f3aebce0a1f0d72420e,627c6fe1a6de7b82bc23ca40,2022-05-12_04h29.48.646,classification_task,2021.2.3,Win32,29.9940012,627c6715c52fd12f31907bcf,,,,,,,,,,,,,,,,,,,,,,,l,1,2.105,"[""0.052"",""0.235"",""0.268"",""0.762""]","[1,1,0,1]",0,11,11,11,1,1,1,,,0,FALSE,,,,,,,,,,,,,,,,,,,,,,,,,,,,,,,
,61028f3aebce0a1f0d72420e,627c6fe1a6de7b82bc23ca40,2022-05-12_04h29.48.646,classification_task,2021.2.3,Win32,29.9940012,627c6715c52fd12f31907bcf,,,,,,,,,,,,,,,,,,,,,,,a,0,1.852,"[""0.126"",""0.613"",""0.543"",""0.694""]","[1,0,1,1]",0,12,12,12,1,1,0,,,0,FALSE,,,,,,,,,,,,,,,,,,,,,,,,,,,,,,,
,61028f3aebce0a1f0d72420e,627c6fe1a6de7b82bc23ca40,2022-05-12_04h29.48.646,classification_task,2021.2.3,Win32,29.9940012,627c6715c52fd12f31907bcf,,,,,,,,,,,,,,,,,,,,,,,l,1,1.312,"[""0.268"",""0.426"",""0.543"",""0.694""]","[0,1,1,1]",0,13,13,13,1,1,0,,,0,FALSE,,,,,,,,,,,,,,,,,,,,,,,,,,,,,,,
,61028f3aebce0a1f0d72420e,627c6fe1a6de7b82bc23ca40,2022-05-12_04h29.48.646,classification_task,2021.2.3,Win32,29.9940012,627c6715c52fd12f31907bcf,,,,,,,,,,,,,,,,,,,,,,,l,1,2.916,"[""0.126"",""0.426"",""0.614"",""0.694""]","[1,1,0,1]",0,14,14,14,1,1,0,,,0,FALSE,,,,,,,,,,,,,,,,,,,,,,,,,,,,,,,
,61028f3aebce0a1f0d72420e,627c6fe1a6de7b82bc23ca40,2022-05-12_04h29.48.646,classification_task,2021.2.3,Win32,29.9940012,627c6715c52fd12f31907bcf,,,,,,,,,,,,,,,,,,,,,,,l,1,1.871,"[""0.052"",""0.815"",""0.660"",""0.762""]","[1,0,1,1]",0,15,15,15,1,1,1,,,0,FALSE,,,,,,,,,,,,,,,,,,,,,,,,,,,,,,,
,61028f3aebce0a1f0d72420e,627c6fe1a6de7b82bc23ca40,2022-05-12_04h29.48.646,classification_task,2021.2.3,Win32,29.9940012,627c6715c52fd12f31907bcf,,,,,,,,,,,,,,,,,,,,,,,l,1,1.797,"[""0.052"",""0.613"",""0.660"",""0.762""]","[1,0,1,1]",0,16,16,16,1,1,1,,,0,FALSE,,,,,,,,,,,,,,,,,,,,,,,,,,,,,,,
,61028f3aebce0a1f0d72420e,627c6fe1a6de7b82bc23ca40,2022-05-12_04h29.48.646,classification_task,2021.2.3,Win32,29.9940012,627c6715c52fd12f31907bcf,,,,,,,,,,,,,,,,,,,,,,,a,1,2.347,"[""0.190"",""0.597"",""0.851"",""0.898""]","[1,0,1,1]",0,17,17,17,1,0,0,,,0,FALSE,,,,,,,,,,,,,,,,,,,,,,,,,,,,,,,
,61028f3aebce0a1f0d72420e,627c6fe1a6de7b82bc23ca40,2022-05-12_04h29.48.646,classification_task,2021.2.3,Win32,29.9940012,627c6715c52fd12f31907bcf,,,,,,,,,,,,,,,,,,,,,,,l,1,1.506,"[""0.052"",""0.235"",""0.660"",""0.268""]","[1,1,1,0]",0,18,18,18,1,1,1,,,0,FALSE,,,,,,,,,,,,,,,,,,,,,,,,,,,,,,,
,61028f3aebce0a1f0d72420e,627c6fe1a6de7b82bc23ca40,2022-05-12_04h29.48.646,classification_task,2021.2.3,Win32,29.9940012,627c6715c52fd12f31907bcf,,,,,,,,,,,,,,,,,,,,,,,l,1,2.418,"[""0.614"",""0.426"",""0.543"",""0.694""]","[0,1,1,1]",0,19,19,19,1,1,0,,,0,FALSE,,,,,,,,,,,,,,,,,,,,,,,,,,,,,,,
,61028f3aebce0a1f0d72420e,627c6fe1a6de7b82bc23ca40,2022-05-12_04h29.48.646,classification_task,2021.2.3,Win32,29.9940012,627c6715c52fd12f31907bcf,,,,,,,,,,,,,,,,,,,,,,,a,1,2.158,"[""0.302"",""0.369"",""0.626"",""0.969""]","[1,1,0,1]",0,20,20,20,1,0,1,,,0,FALSE,,,,,,,,,,,,,,,,,,,,,,,,,,,,,,,
,61028f3aebce0a1f0d72420e,627c6fe1a6de7b82bc23ca40,2022-05-12_04h29.48.646,classification_task,2021.2.3,Win32,29.9940012,627c6715c52fd12f31907bcf,,,,,,,,,,,,,,,,,,,,,,,a,1,1.944,"[""0.597"",""0.477"",""0.851"",""0.898""]","[0,1,1,1]",0,21,21,21,1,0,0,,,0,FALSE,,,,,,,,,,,,,,,,,,,,,,,,,,,,,,,
,61028f3aebce0a1f0d72420e,627c6fe1a6de7b82bc23ca40,2022-05-12_04h29.48.646,classification_task,2021.2.3,Win32,29.9940012,627c6715c52fd12f31907bcf,,,,,,,,,,,,,,,,,,,,,,,l,1,1.786,"[""0.126"",""0.426"",""0.623"",""0.694""]","[1,1,0,1]",0,22,22,22,1,1,0,,,0,FALSE,,,,,,,,,,,,,,,,,,,,,,,,,,,,,,,
,61028f3aebce0a1f0d72420e,627c6fe1a6de7b82bc23ca40,2022-05-12_04h29.48.646,classification_task,2021.2.3,Win32,29.9940012,627c6715c52fd12f31907bcf,,,,,,,,,,,,,,,,,,,,,,,l,0,2.658,"[""0.302"",""0.369"",""0.934"",""0.621""]","[1,1,1,0]",0,23,23,23,1,0,1,,,0,FALSE,,,,,,,,,,,,,,,,,,,,,,,,,,,,,,,
,61028f3aebce0a1f0d72420e,627c6fe1a6de7b82bc23ca40,2022-05-12_04h29.48.646,classification_task,2021.2.3,Win32,29.9940012,627c6715c52fd12f31907bcf,,,,,,,,,,,,,,,,,,,,,,,l,1,1.962,"[""0.126"",""0.626"",""0.543"",""0.694""]","[1,0,1,1]",0,24,24,24,1,1,0,,,0,FALSE,,,,,,,,,,,,,,,,,,,,,,,,,,,,,,,
,61028f3aebce0a1f0d72420e,627c6fe1a6de7b82bc23ca40,2022-05-12_04h29.48.646,classification_task,2021.2.3,Win32,29.9940012,627c6715c52fd12f31907bcf,,,,,,,,,,,,,,,,,,,,,,,a,1,1.94,"[""0.626"",""0.369"",""0.934"",""0.969""]","[0,1,1,1]",0,25,25,25,1,0,1,,,0,FALSE,,,,,,,,,,,,,,,,,,,,,,,,,,,,,,,
,61028f3aebce0a1f0d72420e,627c6fe1a6de7b82bc23ca40,2022-05-12_04h29.48.646,classification_task,2021.2.3,Win32,29.9940012,627c6715c52fd12f31907bcf,,,,,,,,,,,,,,,,,,,,,,,l,0,4.024,"[""0.302"",""0.086"",""0.934"",""0.969""]","[1,0,1,1]",0,26,26,26,1,0,1,,,0,FALSE,,,,,,,,,,,,,,,,,,,,,,,,,,,,,,,
,61028f3aebce0a1f0d72420e,627c6fe1a6de7b82bc23ca40,2022-05-12_04h29.48.646,classification_task,2021.2.3,Win32,29.9940012,627c6715c52fd12f31907bcf,,,,,,,,,,,,,,,,,,,,,,,a,1,1.987,"[""0.190"",""0.477"",""0.623"",""0.898""]","[1,1,0,1]",0,27,27,27,1,0,0,,,0,FALSE,,,,,,,,,,,,,,,,,,,,,,,,,,,,,,,
,61028f3aebce0a1f0d72420e,627c6fe1a6de7b82bc23ca40,2022-05-12_04h29.48.646,classification_task,2021.2.3,Win32,29.9940012,627c6715c52fd12f31907bcf,,,,,,,,,,,,,,,,,,,,,,,l,1,2.382,"[""0.610"",""0.235"",""0.660"",""0.762""]","[0,1,1,1]",0,28,28,28,1,1,1,,,0,FALSE,,,,,,,,,,,,,,,,,,,,,,,,,,,,,,,
,61028f3aebce0a1f0d72420e,627c6fe1a6de7b82bc23ca40,2022-05-12_04h29.48.646,classification_task,2021.2.3,Win32,29.9940012,627c6715c52fd12f31907bcf,,,,,,,,,,,,,,,,,,,,,,,l,1,5.017,"[""0.126"",""0.426"",""0.543"",""0.086""]","[1,1,1,0]",0,29,29,29,1,1,0,,,0,FALSE,,,,,,,,,,,,,,,,,,,,,,,,,,,,,,,
,61028f3aebce0a1f0d72420e,627c6fe1a6de7b82bc23ca40,2022-05-12_04h29.48.646,classification_task,2021.2.3,Win32,29.9940012,627c6715c52fd12f31907bcf,,,,,,,,,,,,,,,,,,,,,,,l,1,2.912,"[""0.052"",""0.235"",""0.613"",""0.762""]","[1,1,0,1]",0,30,30,30,1,1,1,,,0,FALSE,,,,,,,,,,,,,,,,,,,,,,,,,,,,,,,
,61028f3aebce0a1f0d72420e,627c6fe1a6de7b82bc23ca40,2022-05-12_04h29.48.646,classification_task,2021.2.3,Win32,29.9940012,627c6715c52fd12f31907bcf,,,,,,,,,,,,,,,,,,,,,,,a,1,1.388,"[""0.190"",""0.477"",""0.851"",""0.815""]","[1,1,1,0]",0,31,31,31,1,0,0,,,0,FALSE,,,,,,,,,,,,,,,,,,,,,,,,,,,,,,,
,61028f3aebce0a1f0d72420e,627c6fe1a6de7b82bc23ca40,2022-05-12_04h29.48.646,classification_task,2021.2.3,Win32,29.9940012,627c6715c52fd12f31907bcf,,,,,,,,,,,,,,,,,,,,,,,l,1,1.621,"[""0.126"",""0.426"",""0.268"",""0.694""]","[1,1,0,1]",0,32,32,32,1,1,0,,,0,FALSE,,,,,,,,,,,,,,,,,,,,,,,,,,,,,,,
,61028f3aebce0a1f0d72420e,627c6fe1a6de7b82bc23ca40,2022-05-12_04h29.48.646,classification_task,2021.2.3,Win32,29.9940012,627c6715c52fd12f31907bcf,,,,,,,,,,,,,,,,,,,,,,,a,1,2.436,"[""0.190"",""0.477"",""0.597"",""0.898""]","[1,1,0,1]",0,33,33,33,1,0,0,,,0,FALSE,,,,,,,,,,,,,,,,,,,,,,,,,,,,,,,
,61028f3aebce0a1f0d72420e,627c6fe1a6de7b82bc23ca40,2022-05-12_04h29.48.646,classification_task,2021.2.3,Win32,29.9940012,627c6715c52fd12f31907bcf,,,,,,,,,,,,,,,,,,,,,,,l,1,1.222,"[""0.052"",""0.235"",""0.660"",""0.614""]","[1,1,1,0]",0,34,34,34,1,1,1,,,0,FALSE,,,,,,,,,,,,,,,,,,,,,,,,,,,,,,,
,61028f3aebce0a1f0d72420e,627c6fe1a6de7b82bc23ca40,2022-05-12_04h29.48.646,classification_task,2021.2.3,Win32,29.9940012,627c6715c52fd12f31907bcf,,,,,,,,,,,,,,,,,,,,,,,a,1,1.881,"[""0.302"",""0.369"",""0.934"",""0.610""]","[1,1,1,0]",0,35,35,35,1,0,1,,,0,FALSE,,,,,,,,,,,,,,,,,,,,,,,,,,,,,,,
,61028f3aebce0a1f0d72420e,627c6fe1a6de7b82bc23ca40,2022-05-12_04h29.48.646,classification_task,2021.2.3,Win32,29.9940012,627c6715c52fd12f31907bcf,,,,,,,,,,,,,,,,,,,,,,,l,1,1.513,"[""0.052"",""0.086"",""0.660"",""0.762""]","[1,0,1,1]",0,36,36,36,1,1,1,,,0,FALSE,,,,,,,,,,,,,,,,,,,,,,,,,,,,,,,
,61028f3aebce0a1f0d72420e,627c6fe1a6de7b82bc23ca40,2022-05-12_04h29.48.646,classification_task,2021.2.3,Win32,29.9940012,627c6715c52fd12f31907bcf,,,,,,,,,,,,,,,,,,,,,,,a,1,2.042,"[""0.268"",""0.369"",""0.934"",""0.969""]","[0,1,1,1]",0,37,37,37,1,0,1,,,0,FALSE,,,,,,,,,,,,,,,,,,,,,,,,,,,,,,,
,61028f3aebce0a1f0d72420e,627c6fe1a6de7b82bc23ca40,2022-05-12_04h29.48.646,classification_task,2021.2.3,Win32,29.9940012,627c6715c52fd12f31907bcf,,,,,,,,,,,,,,,,,,,,,,,l,1,1.778,"[""0.126"",""0.815"",""0.543"",""0.694""]","[1,0,1,1]",0,38,38,38,1,1,0,,,0,FALSE,,,,,,,,,,,,,,,,,,,,,,,,,,,,,,,
,61028f3aebce0a1f0d72420e,627c6fe1a6de7b82bc23ca40,2022-05-12_04h29.48.646,classification_task,2021.2.3,Win32,29.9940012,627c6715c52fd12f31907bcf,,,,,,,,,,,,,,,,,,,,,,,a,1,2.629,"[""0.302"",""0.369"",""0.597"",""0.969""]","[1,1,0,1]",0,39,39,39,1,0,1,,,0,FALSE,,,,,,,,,,,,,,,,,,,,,,,,,,,,,,,
,61028f3aebce0a1f0d72420e,627c6fe1a6de7b82bc23ca40,2022-05-12_04h29.48.646,classification_task,2021.2.3,Win32,29.9940012,627c6715c52fd12f31907bcf,,,,,,,,,,,,,,,,,,,,,,,l,1,1.87,"[""0.626"",""0.235"",""0.660"",""0.762""]","[0,1,1,1]",0,40,40,40,1,1,1,,,0,FALSE,,,,,,,,,,,,,,,,,,,,,,,,,,,,,,,
,61028f3aebce0a1f0d72420e,627c6fe1a6de7b82bc23ca40,2022-05-12_04h29.48.646,classification_task,2021.2.3,Win32,29.9940012,627c6715c52fd12f31907bcf,,,,,,,,,,,,,,,,,,,,,,,a,1,1.536,"[""0.302"",""0.626"",""0.934"",""0.969""]","[1,0,1,1]",0,41,41,41,1,0,1,,,0,FALSE,,,,,,,,,,,,,,,,,,,,,,,,,,,,,,,
,61028f3aebce0a1f0d72420e,627c6fe1a6de7b82bc23ca40,2022-05-12_04h29.48.646,classification_task,2021.2.3,Win32,29.9940012,627c6715c52fd12f31907bcf,,,,,,,,,,,,,,,,,,,,,,,l,1,1.491,"[""0.126"",""0.426"",""0.543"",""0.625""]","[1,1,1,0]",0,42,42,42,1,1,0,,,0,FALSE,,,,,,,,,,,,,,,,,,,,,,,,,,,,,,,
,61028f3aebce0a1f0d72420e,627c6fe1a6de7b82bc23ca40,2022-05-12_04h29.48.646,classification_task,2021.2.3,Win32,29.9940012,627c6715c52fd12f31907bcf,,,,,,,,,,,,,,,,,,,,,,,a,1,2.453,"[""0.190"",""0.477"",""0.851"",""0.801""]","[1,1,1,0]",0,43,43,43,1,0,0,,,0,FALSE,,,,,,,,,,,,,,,,,,,,,,,,,,,,,,,
,61028f3aebce0a1f0d72420e,627c6fe1a6de7b82bc23ca40,2022-05-12_04h29.48.646,classification_task,2021.2.3,Win32,29.9940012,627c6715c52fd12f31907bcf,,,,,,,,,,,,,,,,,,,,,,,a,1,2.087,"[""0.190"",""0.597"",""0.851"",""0.898""]","[1,0,1,1]",0,44,44,44,1,0,0,,,0,FALSE,,,,,,,,,,,,,,,,,,,,,,,,,,,,,,,
,61028f3aebce0a1f0d72420e,627c6fe1a6de7b82bc23ca40,2022-05-12_04h29.48.646,classification_task,2021.2.3,Win32,29.9940012,627c6715c52fd12f31907bcf,,,,,,,,,,,,,,,,,,,,,,,l,1,1.294,"[""0.052"",""0.235"",""0.816"",""0.762""]","[1,1,0,1]",0,45,45,45,1,1,1,,,0,FALSE,,,,,,,,,,,,,,,,,,,,,,,,,,,,,,,
,61028f3aebce0a1f0d72420e,627c6fe1a6de7b82bc23ca40,2022-05-12_04h29.48.646,classification_task,2021.2.3,Win32,29.9940012,627c6715c52fd12f31907bcf,,,,,,,,,,,,,,,,,,,,,,,l,1,1.62,"[""0.611"",""0.426"",""0.543"",""0.694""]","[0,1,1,1]",0,46,46,46,1,1,0,,,0,FALSE,,,,,,,,,,,,,,,,,,,,,,,,,,,,,,,
,61028f3aebce0a1f0d72420e,627c6fe1a6de7b82bc23ca40,2022-05-12_04h29.48.646,classification_task,2021.2.3,Win32,29.9940012,627c6715c52fd12f31907bcf,,,,,,,,,,,,,,,,,,,,,,,a,1,1.576,"[""0.614"",""0.477"",""0.851"",""0.898""]","[0,1,1,1]",0,47,47,47,1,0,0,,,0,FALSE,,,,,,,,,,,,,,,,,,,,,,,,,,,,,,,
,61028f3aebce0a1f0d72420e,627c6fe1a6de7b82bc23ca40,2022-05-12_04h29.48.646,classification_task,2021.2.3,Win32,29.9940012,627c6715c52fd12f31907bcf,,,,,,,,,,,,,,,,,,,,,,,l,1,3.167,"[""0.052"",""0.235"",""0.626"",""0.762""]","[1,1,0,1]",0,48,48,48,1,1,1,,,0,FALSE,,,,,,,,,,,,,,,,,,,,,,,,,,,,,,,
,61028f3aebce0a1f0d72420e,627c6fe1a6de7b82bc23ca40,2022-05-12_04h29.48.646,classification_task,2021.2.3,Win32,29.9940012,627c6715c52fd12f31907bcf,,,,,,,,,,,,,,,,,,,,,,,l,1,1.531,"[""0.126"",""0.623"",""0.543"",""0.694""]","[1,0,1,1]",0,49,49,49,1,1,0,,,0,FALSE,,,,,,,,,,,,,,,,,,,,,,,,,,,,,,,
,61028f3aebce0a1f0d72420e,627c6fe1a6de7b82bc23ca40,2022-05-12_04h29.48.646,classification_task,2021.2.3,Win32,29.9940012,627c6715c52fd12f31907bcf,,,,,,,,,,,,,,,,,,,,,,,l,1,1.565,"[""0.126"",""0.426"",""0.801"",""0.694""]","[1,1,0,1]",0,50,50,50,1,1,0,,,0,FALSE,,,,,,,,,,,,,,,,,,,,,,,,,,,,,,,
,61028f3aebce0a1f0d72420e,627c6fe1a6de7b82bc23ca40,2022-05-12_04h29.48.646,classification_task,2021.2.3,Win32,29.9940012,627c6715c52fd12f31907bcf,,,,,,,,,,,,,,,,,,,,,,,a,1,1.421,"[""0.601"",""0.369"",""0.934"",""0.969""]","[0,1,1,1]",0,51,51,51,1,0,1,,,0,FALSE,,,,,,,,,,,,,,,,,,,,,,,,,,,,,,,
,61028f3aebce0a1f0d72420e,627c6fe1a6de7b82bc23ca40,2022-05-12_04h29.48.646,classification_task,2021.2.3,Win32,29.9940012,627c6715c52fd12f31907bcf,,,,,,,,,,,,,,,,,,,,,,,l,1,2.489,"[""0.126"",""0.426"",""0.543"",""0.601""]","[1,1,1,0]",0,52,52,52,1,1,0,,,0,FALSE,,,,,,,,,,,,,,,,,,,,,,,,,,,,,,,
,61028f3aebce0a1f0d72420e,627c6fe1a6de7b82bc23ca40,2022-05-12_04h29.48.646,classification_task,2021.2.3,Win32,29.9940012,627c6715c52fd12f31907bcf,,,,,,,,,,,,,,,,,,,,,,,a,1,1.695,"[""0.302"",""0.369"",""0.934"",""0.623""]","[1,1,1,0]",0,53,53,53,1,0,1,,,0,FALSE,,,,,,,,,,,,,,,,,,,,,,,,,,,,,,,
,61028f3aebce0a1f0d72420e,627c6fe1a6de7b82bc23ca40,2022-05-12_04h29.48.646,classification_task,2021.2.3,Win32,29.9940012,627c6715c52fd12f31907bcf,,,,,,,,,,,,,,,,,,,,,,,a,1,1.526,"[""0.190"",""0.477"",""0.851"",""0.621""]","[1,1,1,0]",0,54,54,54,1,0,0,,,0,FALSE,,,,,,,,,,,,,,,,,,,,,,,,,,,,,,,
,61028f3aebce0a1f0d72420e,627c6fe1a6de7b82bc23ca40,2022-05-12_04h29.48.646,classification_task,2021.2.3,Win32,29.9940012,627c6715c52fd12f31907bcf,,,,,,,,,,,,,,,,,,,,,,,a,1,1.179,"[""0.190"",""0.477"",""0.626"",""0.898""]","[1,1,0,1]",0,55,55,55,1,0,0,,,0,FALSE,,,,,,,,,,,,,,,,,,,,,,,,,,,,,,,
,61028f3aebce0a1f0d72420e,627c6fe1a6de7b82bc23ca40,2022-05-12_04h29.48.646,classification_task,2021.2.3,Win32,29.9940012,627c6715c52fd12f31907bcf,,,,,,,,,,,,,,,,,,,,,,,a,1,1.311,"[""0.302"",""0.623"",""0.934"",""0.969""]","[1,0,1,1]",0,56,56,56,1,0,1,,,0,FALSE,,,,,,,,,,,,,,,,,,,,,,,,,,,,,,,
,61028f3aebce0a1f0d72420e,627c6fe1a6de7b82bc23ca40,2022-05-12_04h29.48.646,classification_task,2021.2.3,Win32,29.9940012,627c6715c52fd12f31907bcf,,,,,,,,,,,,,,,,,,,,,,,l,1,0.926,"[""0.268"",""0.426"",""0.543"",""0.694""]","[0,1,1,1]",0,57,57,57,1,1,0,,,0,FALSE,,,,,,,,,,,,,,,,,,,,,,,,,,,,,,,
,61028f3aebce0a1f0d72420e,627c6fe1a6de7b82bc23ca40,2022-05-12_04h29.48.646,classification_task,2021.2.3,Win32,29.9940012,627c6715c52fd12f31907bcf,,,,,,,,,,,,,,,,,,,,,,,l,1,1.951,"[""0.052"",""0.235"",""0.660"",""0.601""]","[1,1,1,0]",0,58,58,58,1,1,1,,,0,FALSE,,,,,,,,,,,,,,,,,,,,,,,,,,,,,,,
,61028f3aebce0a1f0d72420e,627c6fe1a6de7b82bc23ca40,2022-05-12_04h29.48.646,classification_task,2021.2.3,Win32,29.9940012,627c6715c52fd12f31907bcf,,,,,,,,,,,,,,,,,,,,,,,l,0,1.627,"[""0.302"",""0.369"",""0.086"",""0.969""]","[1,1,0,1]",0,59,59,59,1,0,1,,,0,FALSE,,,,,,,,,,,,,,,,,,,,,,,,,,,,,,,
,61028f3aebce0a1f0d72420e,627c6fe1a6de7b82bc23ca40,2022-05-12_04h29.48.646,classification_task,2021.2.3,Win32,29.9940012,627c6715c52fd12f31907bcf,,,,,,,,,,,,,,,,,,,,,,,l,1,1.562,"[""0.052"",""0.625"",""0.660"",""0.762""]","[1,0,1,1]",0,60,60,60,1,1,1,,,0,FALSE,,,,,,,,,,,,,,,,,,,,,,,,,,,,,,,
,61028f3aebce0a1f0d72420e,627c6fe1a6de7b82bc23ca40,2022-05-12_04h29.48.646,classification_task,2021.2.3,Win32,29.9940012,627c6715c52fd12f31907bcf,,,,,,,,,,,,,,,,,,,,,,,a,1,1.556,"[""0.190"",""0.626"",""0.851"",""0.898""]","[1,0,1,1]",0,61,61,61,1,0,0,,,0,FALSE,,,,,,,,,,,,,,,,,,,,,,,,,,,,,,,
,61028f3aebce0a1f0d72420e,627c6fe1a6de7b82bc23ca40,2022-05-12_04h29.48.646,classification_task,2021.2.3,Win32,29.9940012,627c6715c52fd12f31907bcf,,,,,,,,,,,,,,,,,,,,,,,a,1,1.697,"[""0.597"",""0.477"",""0.851"",""0.898""]","[0,1,1,1]",0,62,62,62,1,0,0,,,0,FALSE,,,,,,,,,,,,,,,,,,,,,,,,,,,,,,,
,61028f3aebce0a1f0d72420e,627c6fe1a6de7b82bc23ca40,2022-05-12_04h29.48.646,classification_task,2021.2.3,Win32,29.9940012,627c6715c52fd12f31907bcf,,,,,,,,,,,,,,,,,,,,,,,l,1,2.746,"[""0.268"",""0.235"",""0.660"",""0.762""]","[0,1,1,1]",0,63,63,63,1,1,1,,,0,FALSE,,,,,,,,,,,,,,,,,,,,,,,,,,,,,,,
,61028f3aebce0a1f0d72420e,627c6fe1a6de7b82bc23ca40,2022-05-12_04h29.48.646,classification_task,2021.2.3,Win32,29.9940012,627c6715c52fd12f31907bcf,,,,,,,,,,,,,,,,,,,,,,,,,,,,,,,,,,,,,,,0, ,,0,2.450947972,243.674,0,1,1,1,1,2,2,,,,,,,,,,,,,,,,,,
,61028f3aebce0a1f0d72420e,627c6fe1a6de7b82bc23ca40,2022-05-12_04h29.48.646,classification_task,2021.2.3,Win32,29.9940012,627c6715c52fd12f31907bcf,,,,,,,,,,,,,,,,,,,,,,,,,,,,,,,,,,,,,,,1,  ,,0,3.002094356,236.985,0,1,1,1,1,2,2,,,,,,,,,,,,,,,,,,
,61028f3aebce0a1f0d72420e,627c6fe1a6de7b82bc23ca40,2022-05-12_04h29.48.646,classification_task,2021.2.3,Win32,29.9940012,627c6715c52fd12f31907bcf,,,,,,,,,,,,,,,,,,,,,,,,,,,,,,,,,,,,,,,2,  ,,0,3.828813933,236.04,0,1,1,1,1,2,2,,,,,,,,,,,,,,,,,,
,61028f3aebce0a1f0d72420e,627c6fe1a6de7b82bc23ca40,2022-05-12_04h29.48.646,classification_task,2021.2.3,Win32,29.9940012,627c6715c52fd12f31907bcf,,,,,,,,,,,,,,,,,,,,,,,,,,,,,,,,,,,,,,,,,,,,,0,1,1,1,1,,2,,,,,,,,,,,,,,,,,,
,61028f3aebce0a1f0d72420e,627c6fe1a6de7b82bc23ca40,2022-05-12_04h29.48.646,classification_task,2021.2.3,Win32,29.9940012,627c6715c52fd12f31907bcf,,,,,,,,,,,,,,,,,,,,,space,9.481,a,1,1.39,"[""0.190"",""0.477"",""0.611"",""0.898""]","[1,1,0,1]",0,0,0,0,1,0,0,,,0,FALSE,,,,,,,,,,,,,,,,,,,,,,,,,,,,,,,
,61028f3aebce0a1f0d72420e,627c6fe1a6de7b82bc23ca40,2022-05-12_04h29.48.646,classification_task,2021.2.3,Win32,29.9940012,627c6715c52fd12f31907bcf,,,,,,,,,,,,,,,,,,,,,,,a,1,1.491,"[""0.190"",""0.801"",""0.851"",""0.898""]","[1,0,1,1]",0,1,1,1,1,0,0,,,0,FALSE,,,,,,,,,,,,,,,,,,,,,,,,,,,,,,,
,61028f3aebce0a1f0d72420e,627c6fe1a6de7b82bc23ca40,2022-05-12_04h29.48.646,classification_task,2021.2.3,Win32,29.9940012,627c6715c52fd12f31907bcf,,,,,,,,,,,,,,,,,,,,,,,l,1,1.726,"[""0.052"",""0.235"",""0.660"",""0.268""]","[1,1,1,0]",0,2,2,2,1,1,1,,,0,FALSE,,,,,,,,,,,,,,,,,,,,,,,,,,,,,,,
,61028f3aebce0a1f0d72420e,627c6fe1a6de7b82bc23ca40,2022-05-12_04h29.48.646,classification_task,2021.2.3,Win32,29.9940012,627c6715c52fd12f31907bcf,,,,,,,,,,,,,,,,,,,,,,,a,1,2.077,"[""0.302"",""0.625"",""0.934"",""0.969""]","[1,0,1,1]",0,3,3,3,1,0,1,,,0,FALSE,,,,,,,,,,,,,,,,,,,,,,,,,,,,,,,
,61028f3aebce0a1f0d72420e,627c6fe1a6de7b82bc23ca40,2022-05-12_04h29.48.646,classification_task,2021.2.3,Win32,29.9940012,627c6715c52fd12f31907bcf,,,,,,,,,,,,,,,,,,,,,,,l,1,1.435,"[""0.126"",""0.426"",""0.543"",""0.801""]","[1,1,1,0]",0,4,4,4,1,1,0,,,0,FALSE,,,,,,,,,,,,,,,,,,,,,,,,,,,,,,,
,61028f3aebce0a1f0d72420e,627c6fe1a6de7b82bc23ca40,2022-05-12_04h29.48.646,classification_task,2021.2.3,Win32,29.9940012,627c6715c52fd12f31907bcf,,,,,,,,,,,,,,,,,,,,,,,a,1,2.919,"[""0.621"",""0.477"",""0.851"",""0.898""]","[0,1,1,1]",0,5,5,5,1,0,0,,,0,FALSE,,,,,,,,,,,,,,,,,,,,,,,,,,,,,,,
,61028f3aebce0a1f0d72420e,627c6fe1a6de7b82bc23ca40,2022-05-12_04h29.48.646,classification_task,2021.2.3,Win32,29.9940012,627c6715c52fd12f31907bcf,,,,,,,,,,,,,,,,,,,,,,,a,1,1.83,"[""0.190"",""0.477"",""0.851"",""0.625""]","[1,1,1,0]",0,6,6,6,1,0,0,,,0,FALSE,,,,,,,,,,,,,,,,,,,,,,,,,,,,,,,
,61028f3aebce0a1f0d72420e,627c6fe1a6de7b82bc23ca40,2022-05-12_04h29.48.646,classification_task,2021.2.3,Win32,29.9940012,627c6715c52fd12f31907bcf,,,,,,,,,,,,,,,,,,,,,,,l,1,1.871,"[""0.126"",""0.426"",""0.626"",""0.694""]","[1,1,0,1]",0,7,7,7,1,1,0,,,0,FALSE,,,,,,,,,,,,,,,,,,,,,,,,,,,,,,,
,61028f3aebce0a1f0d72420e,627c6fe1a6de7b82bc23ca40,2022-05-12_04h29.48.646,classification_task,2021.2.3,Win32,29.9940012,627c6715c52fd12f31907bcf,,,,,,,,,,,,,,,,,,,,,,,l,1,2.072,"[""0.052"",""0.235"",""0.601"",""0.762""]","[1,1,0,1]",0,8,8,8,1,1,1,,,0,FALSE,,,,,,,,,,,,,,,,,,,,,,,,,,,,,,,
,61028f3aebce0a1f0d72420e,627c6fe1a6de7b82bc23ca40,2022-05-12_04h29.48.646,classification_task,2021.2.3,Win32,29.9940012,627c6715c52fd12f31907bcf,,,,,,,,,,,,,,,,,,,,,,,l,1,1.616,"[""0.126"",""0.812"",""0.543"",""0.694""]","[1,0,1,1]",0,9,9,9,1,1,0,,,0,FALSE,,,,,,,,,,,,,,,,,,,,,,,,,,,,,,,
,61028f3aebce0a1f0d72420e,627c6fe1a6de7b82bc23ca40,2022-05-12_04h29.48.646,classification_task,2021.2.3,Win32,29.9940012,627c6715c52fd12f31907bcf,,,,,,,,,,,,,,,,,,,,,,,l,1,1.112,"[""0.597"",""0.426"",""0.543"",""0.694""]","[0,1,1,1]",0,10,10,10,1,1,0,,,0,FALSE,,,,,,,,,,,,,,,,,,,,,,,,,,,,,,,
,61028f3aebce0a1f0d72420e,627c6fe1a6de7b82bc23ca40,2022-05-12_04h29.48.646,classification_task,2021.2.3,Win32,29.9940012,627c6715c52fd12f31907bcf,,,,,,,,,,,,,,,,,,,,,,,l,1,1.912,"[""0.052"",""0.626"",""0.660"",""0.762""]","[1,0,1,1]",0,11,11,11,1,1,1,,,0,FALSE,,,,,,,,,,,,,,,,,,,,,,,,,,,,,,,
,61028f3aebce0a1f0d72420e,627c6fe1a6de7b82bc23ca40,2022-05-12_04h29.48.646,classification_task,2021.2.3,Win32,29.9940012,627c6715c52fd12f31907bcf,,,,,,,,,,,,,,,,,,,,,,,a,1,1.595,"[""0.302"",""0.369"",""0.934"",""0.610""]","[1,1,1,0]",0,12,12,12,1,0,1,,,0,FALSE,,,,,,,,,,,,,,,,,,,,,,,,,,,,,,,
,61028f3aebce0a1f0d72420e,627c6fe1a6de7b82bc23ca40,2022-05-12_04h29.48.646,classification_task,2021.2.3,Win32,29.9940012,627c6715c52fd12f31907bcf,,,,,,,,,,,,,,,,,,,,,,,l,1,1.449,"[""0.614"",""0.235"",""0.660"",""0.762""]","[0,1,1,1]",0,13,13,13,1,1,1,,,0,FALSE,,,,,,,,,,,,,,,,,,,,,,,,,,,,,,,
,61028f3aebce0a1f0d72420e,627c6fe1a6de7b82bc23ca40,2022-05-12_04h29.48.646,classification_task,2021.2.3,Win32,29.9940012,627c6715c52fd12f31907bcf,,,,,,,,,,,,,,,,,,,,,,,a,1,1.646,"[""0.302"",""0.369"",""0.625"",""0.969""]","[1,1,0,1]",0,14,14,14,1,0,1,,,0,FALSE,,,,,,,,,,,,,,,,,,,,,,,,,,,,,,,
,61028f3aebce0a1f0d72420e,627c6fe1a6de7b82bc23ca40,2022-05-12_04h29.48.646,classification_task,2021.2.3,Win32,29.9940012,627c6715c52fd12f31907bcf,,,,,,,,,,,,,,,,,,,,,,,a,1,1.633,"[""0.626"",""0.369"",""0.934"",""0.969""]","[0,1,1,1]",0,15,15,15,1,0,1,,,0,FALSE,,,,,,,,,,,,,,,,,,,,,,,,,,,,,,,
,61028f3aebce0a1f0d72420e,627c6fe1a6de7b82bc23ca40,2022-05-12_04h29.48.646,classification_task,2021.2.3,Win32,29.9940012,627c6715c52fd12f31907bcf,,,,,,,,,,,,,,,,,,,,,,,l,1,2.263,"[""0.052"",""0.611"",""0.660"",""0.762""]","[1,0,1,1]",0,16,16,16,1,1,1,,,0,FALSE,,,,,,,,,,,,,,,,,,,,,,,,,,,,,,,
,61028f3aebce0a1f0d72420e,627c6fe1a6de7b82bc23ca40,2022-05-12_04h29.48.646,classification_task,2021.2.3,Win32,29.9940012,627c6715c52fd12f31907bcf,,,,,,,,,,,,,,,,,,,,,,,a,1,1.551,"[""0.190"",""0.621"",""0.851"",""0.898""]","[1,0,1,1]",0,17,17,17,1,0,0,,,0,FALSE,,,,,,,,,,,,,,,,,,,,,,,,,,,,,,,
,61028f3aebce0a1f0d72420e,627c6fe1a6de7b82bc23ca40,2022-05-12_04h29.48.646,classification_task,2021.2.3,Win32,29.9940012,627c6715c52fd12f31907bcf,,,,,,,,,,,,,,,,,,,,,,,a,1,1.392,"[""0.302"",""0.812"",""0.934"",""0.969""]","[1,0,1,1]",0,18,18,18,1,0,1,,,0,FALSE,,,,,,,,,,,,,,,,,,,,,,,,,,,,,,,
,61028f3aebce0a1f0d72420e,627c6fe1a6de7b82bc23ca40,2022-05-12_04h29.48.646,classification_task,2021.2.3,Win32,29.9940012,627c6715c52fd12f31907bcf,,,,,,,,,,,,,,,,,,,,,,,a,1,2.276,"[""0.610"",""0.369"",""0.934"",""0.969""]","[0,1,1,1]",0,19,19,19,1,0,1,,,0,FALSE,,,,,,,,,,,,,,,,,,,,,,,,,,,,,,,
,61028f3aebce0a1f0d72420e,627c6fe1a6de7b82bc23ca40,2022-05-12_04h29.48.646,classification_task,2021.2.3,Win32,29.9940012,627c6715c52fd12f31907bcf,,,,,,,,,,,,,,,,,,,,,,,a,1,2.284,"[""0.302"",""0.369"",""0.812"",""0.969""]","[1,1,0,1]",0,20,20,20,1,0,1,,,0,FALSE,,,,,,,,,,,,,,,,,,,,,,,,,,,,,,,
,61028f3aebce0a1f0d72420e,627c6fe1a6de7b82bc23ca40,2022-05-12_04h29.48.646,classification_task,2021.2.3,Win32,29.9940012,627c6715c52fd12f31907bcf,,,,,,,,,,,,,,,,,,,,,,,l,0,2.071,"[""0.190"",""0.477"",""0.851"",""0.601""]","[1,1,1,0]",0,21,21,21,1,0,0,,,0,FALSE,,,,,,,,,,,,,,,,,,,,,,,,,,,,,,,
,61028f3aebce0a1f0d72420e,627c6fe1a6de7b82bc23ca40,2022-05-12_04h29.48.646,classification_task,2021.2.3,Win32,29.9940012,627c6715c52fd12f31907bcf,,,,,,,,,,,,,,,,,,,,,,,a,1,2.152,"[""0.601"",""0.477"",""0.851"",""0.898""]","[0,1,1,1]",0,22,22,22,1,0,0,,,0,FALSE,,,,,,,,,,,,,,,,,,,,,,,,,,,,,,,
,61028f3aebce0a1f0d72420e,627c6fe1a6de7b82bc23ca40,2022-05-12_04h29.48.646,classification_task,2021.2.3,Win32,29.9940012,627c6715c52fd12f31907bcf,,,,,,,,,,,,,,,,,,,,,,,l,1,1.354,"[""0.126"",""0.426"",""0.816"",""0.694""]","[1,1,0,1]",0,23,23,23,1,1,0,,,0,FALSE,,,,,,,,,,,,,,,,,,,,,,,,,,,,,,,
,61028f3aebce0a1f0d72420e,627c6fe1a6de7b82bc23ca40,2022-05-12_04h29.48.646,classification_task,2021.2.3,Win32,29.9940012,627c6715c52fd12f31907bcf,,,,,,,,,,,,,,,,,,,,,,,l,1,1.743,"[""0.613"",""0.235"",""0.660"",""0.762""]","[0,1,1,1]",0,24,24,24,1,1,1,,,0,FALSE,,,,,,,,,,,,,,,,,,,,,,,,,,,,,,,
,61028f3aebce0a1f0d72420e,627c6fe1a6de7b82bc23ca40,2022-05-12_04h29.48.646,classification_task,2021.2.3,Win32,29.9940012,627c6715c52fd12f31907bcf,,,,,,,,,,,,,,,,,,,,,,,l,1,1.28,"[""0.126"",""0.614"",""0.543"",""0.694""]","[1,0,1,1]",0,25,25,25,1,1,0,,,0,FALSE,,,,,,,,,,,,,,,,,,,,,,,,,,,,,,,
,61028f3aebce0a1f0d72420e,627c6fe1a6de7b82bc23ca40,2022-05-12_04h29.48.646,classification_task,2021.2.3,Win32,29.9940012,627c6715c52fd12f31907bcf,,,,,,,,,,,,,,,,,,,,,,,l,1,1.82,"[""0.052"",""0.235"",""0.660"",""0.613""]","[1,1,1,0]",0,26,26,26,1,1,1,,,0,FALSE,,,,,,,,,,,,,,,,,,,,,,,,,,,,,,,
,61028f3aebce0a1f0d72420e,627c6fe1a6de7b82bc23ca40,2022-05-12_04h29.48.646,classification_task,2021.2.3,Win32,29.9940012,627c6715c52fd12f31907bcf,,,,,,,,,,,,,,,,,,,,,,,l,0,2.748,"[""0.190"",""0.477"",""0.623"",""0.898""]","[1,1,0,1]",0,27,27,27,1,0,0,,,0,FALSE,,,,,,,,,,,,,,,,,,,,,,,,,,,,,,,
,61028f3aebce0a1f0d72420e,627c6fe1a6de7b82bc23ca40,2022-05-12_04h29.48.646,classification_task,2021.2.3,Win32,29.9940012,627c6715c52fd12f31907bcf,,,,,,,,,,,,,,,,,,,,,,,l,1,1.704,"[""0.052"",""0.235"",""0.621"",""0.762""]","[1,1,0,1]",0,28,28,28,1,1,1,,,0,FALSE,,,,,,,,,,,,,,,,,,,,,,,,,,,,,,,
,61028f3aebce0a1f0d72420e,627c6fe1a6de7b82bc23ca40,2022-05-12_04h29.48.646,classification_task,2021.2.3,Win32,29.9940012,627c6715c52fd12f31907bcf,,,,,,,,,,,,,,,,,,,,,,,l,1,2.461,"[""0.126"",""0.426"",""0.543"",""0.086""]","[1,1,1,0]",0,29,29,29,1,1,0,,,0,FALSE,,,,,,,,,,,,,,,,,,,,,,,,,,,,,,,
,61028f3aebce0a1f0d72420e,627c6fe1a6de7b82bc23ca40,2022-05-12_04h29.48.646,classification_task,2021.2.3,Win32,29.9940012,627c6715c52fd12f31907bcf,,,,,,,,,,,,,,,,,,,,,,,l,1,1.049,"[""0.613"",""0.426"",""0.543"",""0.694""]","[0,1,1,1]",0,30,30,30,1,1,0,,,0,FALSE,,,,,,,,,,,,,,,,,,,,,,,,,,,,,,,
,61028f3aebce0a1f0d72420e,627c6fe1a6de7b82bc23ca40,2022-05-12_04h29.48.646,classification_task,2021.2.3,Win32,29.9940012,627c6715c52fd12f31907bcf,,,,,,,,,,,,,,,,,,,,,,,a,1,2.766,"[""0.302"",""0.369"",""0.934"",""0.623""]","[1,1,1,0]",0,31,31,31,1,0,1,,,0,FALSE,,,,,,,,,,,,,,,,,,,,,,,,,,,,,,,
,61028f3aebce0a1f0d72420e,627c6fe1a6de7b82bc23ca40,2022-05-12_04h29.48.646,classification_task,2021.2.3,Win32,29.9940012,627c6715c52fd12f31907bcf,,,,,,,,,,,,,,,,,,,,,,,l,1,4.609,"[""0.597"",""0.235"",""0.660"",""0.762""]","[0,1,1,1]",0,32,32,32,1,1,1,,,0,FALSE,,,,,,,,,,,,,,,,,,,,,,,,,,,,,,,
,61028f3aebce0a1f0d72420e,627c6fe1a6de7b82bc23ca40,2022-05-12_04h29.48.646,classification_task,2021.2.3,Win32,29.9940012,627c6715c52fd12f31907bcf,,,,,,,,,,,,,,,,,,,,,,,l,1,2.972,"[""0.126"",""0.268"",""0.543"",""0.694""]","[1,0,1,1]",0,33,33,33,1,1,0,,,0,FALSE,,,,,,,,,,,,,,,,,,,,,,,,,,,,,,,
,61028f3aebce0a1f0d72420e,627c6fe1a6de7b82bc23ca40,2022-05-12_04h29.48.646,classification_task,2021.2.3,Win32,29.9940012,627c6715c52fd12f31907bcf,,,,,,,,,,,,,,,,,,,,,,,a,1,1.886,"[""0.302"",""0.369"",""0.601"",""0.969""]","[1,1,0,1]",0,34,34,34,1,0,1,,,0,FALSE,,,,,,,,,,,,,,,,,,,,,,,,,,,,,,,
,61028f3aebce0a1f0d72420e,627c6fe1a6de7b82bc23ca40,2022-05-12_04h29.48.646,classification_task,2021.2.3,Win32,29.9940012,627c6715c52fd12f31907bcf,,,,,,,,,,,,,,,,,,,,,,,l,1,1.787,"[""0.126"",""0.426"",""0.543"",""0.597""]","[1,1,1,0]",0,35,35,35,1,1,0,,,0,FALSE,,,,,,,,,,,,,,,,,,,,,,,,,,,,,,,
,61028f3aebce0a1f0d72420e,627c6fe1a6de7b82bc23ca40,2022-05-12_04h29.48.646,classification_task,2021.2.3,Win32,29.9940012,627c6715c52fd12f31907bcf,,,,,,,,,,,,,,,,,,,,,,,a,1,4.615,"[""0.190"",""0.610"",""0.851"",""0.898""]","[1,0,1,1]",0,36,36,36,1,0,0,,,0,FALSE,,,,,,,,,,,,,,,,,,,,,,,,,,,,,,,
,61028f3aebce0a1f0d72420e,627c6fe1a6de7b82bc23ca40,2022-05-12_04h29.48.646,classification_task,2021.2.3,Win32,29.9940012,627c6715c52fd12f31907bcf,,,,,,,,,,,,,,,,,,,,,,,a,1,2.03,"[""0.302"",""0.369"",""0.934"",""0.621""]","[1,1,1,0]",0,37,37,37,1,0,1,,,0,FALSE,,,,,,,,,,,,,,,,,,,,,,,,,,,,,,,
,61028f3aebce0a1f0d72420e,627c6fe1a6de7b82bc23ca40,2022-05-12_04h29.48.646,classification_task,2021.2.3,Win32,29.9940012,627c6715c52fd12f31907bcf,,,,,,,,,,,,,,,,,,,,,,,a,1,2.253,"[""0.597"",""0.477"",""0.851"",""0.898""]","[0,1,1,1]",0,38,38,38,1,0,0,,,0,FALSE,,,,,,,,,,,,,,,,,,,,,,,,,,,,,,,
,61028f3aebce0a1f0d72420e,627c6fe1a6de7b82bc23ca40,2022-05-12_04h29.48.646,classification_task,2021.2.3,Win32,29.9940012,627c6715c52fd12f31907bcf,,,,,,,,,,,,,,,,,,,,,,,a,1,2.114,"[""0.626"",""0.369"",""0.934"",""0.969""]","[0,1,1,1]",0,39,39,39,1,0,1,,,0,FALSE,,,,,,,,,,,,,,,,,,,,,,,,,,,,,,,
,61028f3aebce0a1f0d72420e,627c6fe1a6de7b82bc23ca40,2022-05-12_04h29.48.646,classification_task,2021.2.3,Win32,29.9940012,627c6715c52fd12f31907bcf,,,,,,,,,,,,,,,,,,,,,,,a,1,2.175,"[""0.302"",""0.611"",""0.934"",""0.969""]","[1,0,1,1]",0,40,40,40,1,0,1,,,0,FALSE,,,,,,,,,,,,,,,,,,,,,,,,,,,,,,,
,61028f3aebce0a1f0d72420e,627c6fe1a6de7b82bc23ca40,2022-05-12_04h29.48.646,classification_task,2021.2.3,Win32,29.9940012,627c6715c52fd12f31907bcf,,,,,,,,,,,,,,,,,,,,,,,l,1,2.365,"[""0.126"",""0.426"",""0.086"",""0.694""]","[1,1,0,1]",0,41,41,41,1,1,0,,,0,FALSE,,,,,,,,,,,,,,,,,,,,,,,,,,,,,,,
,61028f3aebce0a1f0d72420e,627c6fe1a6de7b82bc23ca40,2022-05-12_04h29.48.646,classification_task,2021.2.3,Win32,29.9940012,627c6715c52fd12f31907bcf,,,,,,,,,,,,,,,,,,,,,,,l,1,1.629,"[""0.052"",""0.235"",""0.625"",""0.762""]","[1,1,0,1]",0,42,42,42,1,1,1,,,0,FALSE,,,,,,,,,,,,,,,,,,,,,,,,,,,,,,,
,61028f3aebce0a1f0d72420e,627c6fe1a6de7b82bc23ca40,2022-05-12_04h29.48.646,classification_task,2021.2.3,Win32,29.9940012,627c6715c52fd12f31907bcf,,,,,,,,,,,,,,,,,,,,,,,l,0,2.728,"[""0.190"",""0.477"",""0.610"",""0.898""]","[1,1,0,1]",0,43,43,43,1,0,0,,,0,FALSE,,,,,,,,,,,,,,,,,,,,,,,,,,,,,,,
,61028f3aebce0a1f0d72420e,627c6fe1a6de7b82bc23ca40,2022-05-12_04h29.48.646,classification_task,2021.2.3,Win32,29.9940012,627c6715c52fd12f31907bcf,,,,,,,,,,,,,,,,,,,,,,,l,1,1.994,"[""0.052"",""0.235"",""0.660"",""0.623""]","[1,1,1,0]",0,44,44,44,1,1,1,,,0,FALSE,,,,,,,,,,,,,,,,,,,,,,,,,,,,,,,
,61028f3aebce0a1f0d72420e,627c6fe1a6de7b82bc23ca40,2022-05-12_04h29.48.646,classification_task,2021.2.3,Win32,29.9940012,627c6715c52fd12f31907bcf,,,,,,,,,,,,,,,,,,,,,,,l,1,1.514,"[""0.815"",""0.426"",""0.543"",""0.694""]","[0,1,1,1]",0,45,45,45,1,1,0,,,0,FALSE,,,,,,,,,,,,,,,,,,,,,,,,,,,,,,,
,61028f3aebce0a1f0d72420e,627c6fe1a6de7b82bc23ca40,2022-05-12_04h29.48.646,classification_task,2021.2.3,Win32,29.9940012,627c6715c52fd12f31907bcf,,,,,,,,,,,,,,,,,,,,,,,l,0,2.328,"[""0.190"",""0.477"",""0.851"",""0.086""]","[1,1,1,0]",0,46,46,46,1,0,0,,,0,FALSE,,,,,,,,,,,,,,,,,,,,,,,,,,,,,,,
,61028f3aebce0a1f0d72420e,627c6fe1a6de7b82bc23ca40,2022-05-12_04h29.48.646,classification_task,2021.2.3,Win32,29.9940012,627c6715c52fd12f31907bcf,,,,,,,,,,,,,,,,,,,,,,,l,1,3.18,"[""0.052"",""0.268"",""0.660"",""0.762""]","[1,0,1,1]",0,47,47,47,1,1,1,,,0,FALSE,,,,,,,,,,,,,,,,,,,,,,,,,,,,,,,
,61028f3aebce0a1f0d72420e,627c6fe1a6de7b82bc23ca40,2022-05-12_04h29.48.646,classification_task,2021.2.3,Win32,29.9940012,627c6715c52fd12f31907bcf,,,,,,,,,,,,,,,,,,,,,,,l,1,1.087,"[""0.621"",""0.426"",""0.543"",""0.694""]","[0,1,1,1]",0,48,48,48,1,1,0,,,0,FALSE,,,,,,,,,,,,,,,,,,,,,,,,,,,,,,,
,61028f3aebce0a1f0d72420e,627c6fe1a6de7b82bc23ca40,2022-05-12_04h29.48.646,classification_task,2021.2.3,Win32,29.9940012,627c6715c52fd12f31907bcf,,,,,,,,,,,,,,,,,,,,,,,l,1,3.683,"[""0.052"",""0.235"",""0.660"",""0.623""]","[1,1,1,0]",0,49,49,49,1,1,1,,,0,FALSE,,,,,,,,,,,,,,,,,,,,,,,,,,,,,,,
,61028f3aebce0a1f0d72420e,627c6fe1a6de7b82bc23ca40,2022-05-12_04h29.48.646,classification_task,2021.2.3,Win32,29.9940012,627c6715c52fd12f31907bcf,,,,,,,,,,,,,,,,,,,,,,,a,1,1.346,"[""0.302"",""0.369"",""0.934"",""0.625""]","[1,1,1,0]",0,50,50,50,1,0,1,,,0,FALSE,,,,,,,,,,,,,,,,,,,,,,,,,,,,,,,
,61028f3aebce0a1f0d72420e,627c6fe1a6de7b82bc23ca40,2022-05-12_04h29.48.646,classification_task,2021.2.3,Win32,29.9940012,627c6715c52fd12f31907bcf,,,,,,,,,,,,,,,,,,,,,,,a,1,1.23,"[""0.302"",""0.369"",""0.614"",""0.969""]","[1,1,0,1]",0,51,51,51,1,0,1,,,0,FALSE,,,,,,,,,,,,,,,,,,,,,,,,,,,,,,,
,61028f3aebce0a1f0d72420e,627c6fe1a6de7b82bc23ca40,2022-05-12_04h29.48.646,classification_task,2021.2.3,Win32,29.9940012,627c6715c52fd12f31907bcf,,,,,,,,,,,,,,,,,,,,,,,l,1,1.98,"[""0.052"",""0.235"",""0.626"",""0.762""]","[1,1,0,1]",0,52,52,52,1,1,1,,,0,FALSE,,,,,,,,,,,,,,,,,,,,,,,,,,,,,,,
,61028f3aebce0a1f0d72420e,627c6fe1a6de7b82bc23ca40,2022-05-12_04h29.48.646,classification_task,2021.2.3,Win32,29.9940012,627c6715c52fd12f31907bcf,,,,,,,,,,,,,,,,,,,,,,,a,1,1.747,"[""0.190"",""0.477"",""0.812"",""0.898""]","[1,1,0,1]",0,53,53,53,1,0,0,,,0,FALSE,,,,,,,,,,,,,,,,,,,,,,,,,,,,,,,
,61028f3aebce0a1f0d72420e,627c6fe1a6de7b82bc23ca40,2022-05-12_04h29.48.646,classification_task,2021.2.3,Win32,29.9940012,627c6715c52fd12f31907bcf,,,,,,,,,,,,,,,,,,,,,,,l,1,1.543,"[""0.126"",""0.426"",""0.543"",""0.613""]","[1,1,1,0]",0,54,54,54,1,1,0,,,0,FALSE,,,,,,,,,,,,,,,,,,,,,,,,,,,,,,,
,61028f3aebce0a1f0d72420e,627c6fe1a6de7b82bc23ca40,2022-05-12_04h29.48.646,classification_task,2021.2.3,Win32,29.9940012,627c6715c52fd12f31907bcf,,,,,,,,,,,,,,,,,,,,,,,l,1,1.517,"[""0.126"",""0.426"",""0.610"",""0.694""]","[1,1,0,1]",0,55,55,55,1,1,0,,,0,FALSE,,,,,,,,,,,,,,,,,,,,,,,,,,,,,,,
,61028f3aebce0a1f0d72420e,627c6fe1a6de7b82bc23ca40,2022-05-12_04h29.48.646,classification_task,2021.2.3,Win32,29.9940012,627c6715c52fd12f31907bcf,,,,,,,,,,,,,,,,,,,,,,,l,1,1.783,"[""0.812"",""0.235"",""0.660"",""0.762""]","[0,1,1,1]",0,56,56,56,1,1,1,,,0,FALSE,,,,,,,,,,,,,,,,,,,,,,,,,,,,,,,
,61028f3aebce0a1f0d72420e,627c6fe1a6de7b82bc23ca40,2022-05-12_04h29.48.646,classification_task,2021.2.3,Win32,29.9940012,627c6715c52fd12f31907bcf,,,,,,,,,,,,,,,,,,,,,,,l,1,1.736,"[""0.052"",""0.268"",""0.660"",""0.762""]","[1,0,1,1]",0,57,57,57,1,1,1,,,0,FALSE,,,,,,,,,,,,,,,,,,,,,,,,,,,,,,,
,61028f3aebce0a1f0d72420e,627c6fe1a6de7b82bc23ca40,2022-05-12_04h29.48.646,classification_task,2021.2.3,Win32,29.9940012,627c6715c52fd12f31907bcf,,,,,,,,,,,,,,,,,,,,,,,l,1,1.294,"[""0.126"",""0.611"",""0.543"",""0.694""]","[1,0,1,1]",0,58,58,58,1,1,0,,,0,FALSE,,,,,,,,,,,,,,,,,,,,,,,,,,,,,,,
,61028f3aebce0a1f0d72420e,627c6fe1a6de7b82bc23ca40,2022-05-12_04h29.48.646,classification_task,2021.2.3,Win32,29.9940012,627c6715c52fd12f31907bcf,,,,,,,,,,,,,,,,,,,,,,,a,1,2.137,"[""0.302"",""0.268"",""0.934"",""0.969""]","[1,0,1,1]",0,59,59,59,1,0,1,,,0,FALSE,,,,,,,,,,,,,,,,,,,,,,,,,,,,,,,
,61028f3aebce0a1f0d72420e,627c6fe1a6de7b82bc23ca40,2022-05-12_04h29.48.646,classification_task,2021.2.3,Win32,29.9940012,627c6715c52fd12f31907bcf,,,,,,,,,,,,,,,,,,,,,,,a,1,2.112,"[""0.816"",""0.477"",""0.851"",""0.898""]","[0,1,1,1]",0,60,60,60,1,0,0,,,0,FALSE,,,,,,,,,,,,,,,,,,,,,,,,,,,,,,,
,61028f3aebce0a1f0d72420e,627c6fe1a6de7b82bc23ca40,2022-05-12_04h29.48.646,classification_task,2021.2.3,Win32,29.9940012,627c6715c52fd12f31907bcf,,,,,,,,,,,,,,,,,,,,,,,l,0,2.625,"[""0.190"",""0.621"",""0.851"",""0.898""]","[1,0,1,1]",0,61,61,61,1,0,0,,,0,FALSE,,,,,,,,,,,,,,,,,,,,,,,,,,,,,,,
,61028f3aebce0a1f0d72420e,627c6fe1a6de7b82bc23ca40,2022-05-12_04h29.48.646,classification_task,2021.2.3,Win32,29.9940012,627c6715c52fd12f31907bcf,,,,,,,,,,,,,,,,,,,,,,,l,0,2.139,"[""0.190"",""0.477"",""0.851"",""0.801""]","[1,1,1,0]",0,62,62,62,1,0,0,,,0,FALSE,,,,,,,,,,,,,,,,,,,,,,,,,,,,,,,
,61028f3aebce0a1f0d72420e,627c6fe1a6de7b82bc23ca40,2022-05-12_04h29.48.646,classification_task,2021.2.3,Win32,29.9940012,627c6715c52fd12f31907bcf,,,,,,,,,,,,,,,,,,,,,,,a,1,1.472,"[""0.816"",""0.369"",""0.934"",""0.969""]","[0,1,1,1]",0,63,63,63,1,0,1,,,0,FALSE,,,,,,,,,,,,,,,,,,,,,,,,,,,,,,,
,61028f3aebce0a1f0d72420e,627c6fe1a6de7b82bc23ca40,2022-05-12_04h29.48.646,classification_task,2021.2.3,Win32,29.9940012,627c6715c52fd12f31907bcf,,,,,,,,,,,,,,,,,,,,,,,,,,,,,,,,,,,,,,,0, ,,0,4.65553351,209.456,0,2,2,2,1,2,3,,,,,,,,,,,,,,,,,,
,61028f3aebce0a1f0d72420e,627c6fe1a6de7b82bc23ca40,2022-05-12_04h29.48.646,classification_task,2021.2.3,Win32,29.9940012,627c6715c52fd12f31907bcf,,,,,,,,,,,,,,,,,,,,,,,,,,,,,,,,,,,,,,,1,  ,,0,4.414406966,211.064,0,2,2,2,1,2,3,,,,,,,,,,,,,,,,,,
,61028f3aebce0a1f0d72420e,627c6fe1a6de7b82bc23ca40,2022-05-12_04h29.48.646,classification_task,2021.2.3,Win32,29.9940012,627c6715c52fd12f31907bcf,,,,,,,,,,,,,,,,,,,,,,,,,,,,,,,,,,,,,,,2,  ,,0,4.689980159,212.688,0,2,2,2,1,2,3,,,,,,,,,,,,,,,,,,
,61028f3aebce0a1f0d72420e,627c6fe1a6de7b82bc23ca40,2022-05-12_04h29.48.646,classification_task,2021.2.3,Win32,29.9940012,627c6715c52fd12f31907bcf,,,,,,,,,,,,,,,,,,,,,,,,,,,,,,,,,,,,,,,,,,,,,0,2,2,2,1,,3,,,,,,,,,,,,,,,,,,
,61028f3aebce0a1f0d72420e,627c6fe1a6de7b82bc23ca40,2022-05-12_04h29.48.646,classification_task,2021.2.3,Win32,29.9940012,627c6715c52fd12f31907bcf,,,,,,,,,,,,,,,,,,,,,,,,,,,,,,,,,,,,,,,,,,,,,,,,,,,,,I believe the aid is a competent performer,,0.7,0,3,1396.815,0,0,0,0,1,0,,,,,
,61028f3aebce0a1f0d72420e,627c6fe1a6de7b82bc23ca40,2022-05-12_04h29.48.646,classification_task,2021.2.3,Win32,29.9940012,627c6715c52fd12f31907bcf,,,,,,,,,,,,,,,,,,,,,,,,,,,,,,,,,,,,,,,,,,,,,,,,,,,,,I trust the aid,,0.7,0,3,1398.077,0,0,0,0,1,0,,,,,
,61028f3aebce0a1f0d72420e,627c6fe1a6de7b82bc23ca40,2022-05-12_04h29.48.646,classification_task,2021.2.3,Win32,29.9940012,627c6715c52fd12f31907bcf,,,,,,,,,,,,,,,,,,,,,,,,,,,,,,,,,,,,,,,,,,,,,,,,,,,,,I have confidence in the advice given by the aid,,0.7,0,3,1398.916,0,0,0,0,1,0,,,,,
,61028f3aebce0a1f0d72420e,627c6fe1a6de7b82bc23ca40,2022-05-12_04h29.48.646,classification_task,2021.2.3,Win32,29.9940012,627c6715c52fd12f31907bcf,,,,,,,,,,,,,,,,,,,,,,,,,,,,,,,,,,,,,,,,,,,,,,,,,,,,,I can depend on the aid,,0.7,0,3,1399.9,0,0,0,0,1,0,,,,,
,61028f3aebce0a1f0d72420e,627c6fe1a6de7b82bc23ca40,2022-05-12_04h29.48.646,classification_task,2021.2.3,Win32,29.9940012,627c6715c52fd12f31907bcf,,,,,,,,,,,,,,,,,,,,,,,,,,,,,,,,,,,,,,,,,,,,,,,,,,,,,I can rely on the aid to behave in consistent ways,,0.7,0,3,1400.708,0,0,0,0,1,0,,,,,
,61028f3aebce0a1f0d72420e,627c6fe1a6de7b82bc23ca40,2022-05-12_04h29.48.646,classification_task,2021.2.3,Win32,29.9940012,627c6715c52fd12f31907bcf,,,,,,,,,,,,,,,,,,,,,,,,,,,,,,,,,,,,,,,,,,,,,,,,,,,,,I can rely on the aid to do its best every time I take its advice,,0.7,0,3,1401.439,0,0,0,0,1,0,,,,,
,61028f3aebce0a1f0d72420e,627c6fe1a6de7b82bc23ca40,2022-05-12_04h29.48.646,classification_task,2021.2.3,Win32,29.9940012,627c6715c52fd12f31907bcf,,,,,,,,,,,,,,,,,,,,,,,,,,,,,,,,,,,,,,,,,,,,,,,,,,,,,"On trials you completed with assistance from the aid, how frequently did you think the aid was correct?",,0.7,0,70%,,0,0,0,0,1,0,,,,,
,61028f3aebce0a1f0d72420e,627c6fe1a6de7b82bc23ca40,2022-05-12_04h29.48.646,classification_task,2021.2.3,Win32,29.9940012,627c6715c52fd12f31907bcf,,,,,,,,,,,,,,,,,,,,,,,,,,,,,,,,,,,,,,,,,,,,,,,,,,,,,"On trials you completed without the aid, how frequently did you think you were correct?",,0.7,0,70%,,0,0,0,0,1,0,,,,,
,61028f3aebce0a1f0d72420e,627c6fe1a6de7b82bc23ca40,2022-05-12_04h29.48.646,classification_task,2021.2.3,Win32,29.9940012,627c6715c52fd12f31907bcf,,,,,,,,,,,,,,,,,,,,,,,,,,,,,,,,,,,,,,,,,,,,,,,,,,,,,,,,,,,0,0,0,0,1,,,,,,
,61028f3aebce0a1f0d72420e,627c6fe1a6de7b82bc23ca40,2022-05-12_04h29.48.646,classification_task,2021.2.3,Win32,29.9940012,627c6715c52fd12f31907bcf,,,,,,,,,,,,,,,,,,,,,,,,,,,,,,,,,,,,,,,,,,,,,,,,,,,,,,,,,,,,,,,,,space,18.337,1491.203,,
,61028f3aebce0a1f0d72420e,627c6fe1a6de7b82bc23ca40,2022-05-12_04h29.48.646,classification_task,2021.2.3,Win32,29.9940012,627c6715c52fd12f31907bcf,,,,,,,,,,,,,,,,,,,,,,,,,,,,,,,,,,,,,,,,,,,,,,,,,,,,,,,,,,,,,,,,,,,,Mozilla/5.0 (Windows NT 6.3; Win64; x64; rv:99.0) Gecko/20100101 Firefox/99.0,
,61028f3aebce0a1f0d72420e,627c6fe1a6de7b82bc23ca40,2022-05-12_04h29.48.646,classification_task,2021.2.3,Win32,29.9940012,627c6715c52fd12f31907bcf,,,,,,,,,,,,,,,,,,,,,,,,,,,,,,,,,,,,,,,,,,,,,,,,,,,,,,,,,,,,,,,,,,,,,LOWLIGHT
