usingWebGL,participant,session,date,expName,psychopyVersion,OS,frameRate,study_id,signatures_friend,signatures_foe,band_ranges_top,band_ranges_bottom,formitemText,formtype,formundefined,formitemWidth,formindex,formresponse,formrt,key_resp_2.keys,key_resp_2.rt,tute_resp.keys,tute_resp.rt,tutorial.thisRepN,tutorial.thisTrialN,tutorial.thisN,tutorial.thisIndex,tutorial.ran,key_resp_4.keys,key_resp_4.rt,key_resp.keys,key_resp.corr,key_resp.rt,lines_presented,is_signal_presented,trials.thisRepN,trials.thisTrialN,trials.thisN,trials.thisIndex,trials.ran,vessel,active_band,lines,is_signal,supported_pos,catch_trial,debrief_formindex,debrief_formitemText,debrief_formtype,debrief_formitemWidth,debrief_formresponse,debrief_formrt,phases.thisRepN,phases.thisTrialN,phases.thisN,phases.thisIndex,phases.ran,phases.order,phase,key_resp_3.keys,trustitemText,trusttype,trustitemWidth,trustindex,trustresponse,trustrt,support_status.thisRepN,support_status.thisTrialN,support_status.thisN,support_status.thisIndex,support_status.ran,support_status.order,key_resp_5.keys,key_resp_5.rt,globalClockTime,userAgent,manualCondition
TRUE,610392e34a7b8ed05fe9ba56,627c753c7c60c75250410889,2022-05-11_21h47.38.964,classification_task,2021.2.3,MacIntel,59.99880002,627c6715c52fd12f31907bd0,,,,,,,,,,,,,,,,,,,,,,,,,,,,,,,,,,,,,,,,,,,,,,,,,,,,,,,,,,,,,,,,,,,,,
,610392e34a7b8ed05fe9ba56,627c753c7c60c75250410889,2022-05-11_21h47.38.964,classification_task,2021.2.3,MacIntel,59.99880002,627c6715c52fd12f31907bd0,"[[""0.237"",""0.334"",""0.770"",""0.910""],[""0.187"",""0.430"",""0.876"",""0.968""]]","[[""0.142"",""0.297"",""0.500"",""0.709""],[""0.108"",""0.386"",""0.579"",""0.818""]]","[1,10]","[100,1000]",Video game experience,,,0.7,0,,,,,,,,,,,,,,,,,,,,,,,,,,,,,,,,,,,,,,,,,,,,,,,,,,,,,,,,,,,,
,610392e34a7b8ed05fe9ba56,627c753c7c60c75250410889,2022-05-11_21h47.38.964,classification_task,2021.2.3,MacIntel,59.99880002,627c6715c52fd12f31907bd0,,,,,Approximately how many hours did you spend playing video games in the last week?,,,0.7,0,24,,,,,,,,,,,,,,,,,,,,,,,,,,,,,,,,,,,,,,,,,,,,,,,,,,,,,,,,,,,
,610392e34a7b8ed05fe9ba56,627c753c7c60c75250410889,2022-05-11_21h47.38.964,classification_task,2021.2.3,MacIntel,59.99880002,627c6715c52fd12f31907bd0,,,,,"Which game did you play the most this year? (Enter ""None"" if you didn't play any)",,,0.7,0,Visual Novel games,,,,,,,,,,,,,,,,,,,,,,,,,,,,,,,,,,,,,,,,,,,,,,,,,,,,,,,,,,,
,610392e34a7b8ed05fe9ba56,627c753c7c60c75250410889,2022-05-11_21h47.38.964,classification_task,2021.2.3,MacIntel,59.99880002,627c6715c52fd12f31907bd0,,,,,Visual perception,,,0.7,0,,,,,,,,,,,,,,,,,,,,,,,,,,,,,,,,,,,,,,,,,,,,,,,,,,,,,,,,,,,,
,610392e34a7b8ed05fe9ba56,627c753c7c60c75250410889,2022-05-11_21h47.38.964,classification_task,2021.2.3,MacIntel,59.99880002,627c6715c52fd12f31907bd0,,,,,Do you have any form of color blindness?,,,0.7,0,No,39.2137,,,,,,,,,,,,,,,,,,,,,,,,,,,,,,,,,,,,,,,,,,,,,,,,,,,,,,,,,,
,610392e34a7b8ed05fe9ba56,627c753c7c60c75250410889,2022-05-11_21h47.38.964,classification_task,2021.2.3,MacIntel,59.99880002,627c6715c52fd12f31907bd0,,,,,Do you use software to change the colour temperature of your screen (e.g. f.lux)?,,,0.7,0,No,43.7737,,,,,,,,,,,,,,,,,,,,,,,,,,,,,,,,,,,,,,,,,,,,,,,,,,,,,,,,,,
,610392e34a7b8ed05fe9ba56,627c753c7c60c75250410889,2022-05-11_21h47.38.964,classification_task,2021.2.3,MacIntel,59.99880002,627c6715c52fd12f31907bd0,,,,,,,,,,,,space,45.6227,space,6.5716,0,0,0,0,1,,,,,,,,,,,,,,,,,,,,,,,,,,,,,,,,,,,,,,,,,,,,,,,,,
,610392e34a7b8ed05fe9ba56,627c753c7c60c75250410889,2022-05-11_21h47.38.964,classification_task,2021.2.3,MacIntel,59.99880002,627c6715c52fd12f31907bd0,,,,,,,,,,,,,,space,5.9541,1,0,1,0,1,,,,,,,,,,,,,,,,,,,,,,,,,,,,,,,,,,,,,,,,,,,,,,,,,
,610392e34a7b8ed05fe9ba56,627c753c7c60c75250410889,2022-05-11_21h47.38.964,classification_task,2021.2.3,MacIntel,59.99880002,627c6715c52fd12f31907bd0,,,,,,,,,,,,,,space,42.8496,2,0,2,0,1,,,,,,,,,,,,,,,,,,,,,,,,,,,,,,,,,,,,,,,,,,,,,,,,,
,610392e34a7b8ed05fe9ba56,627c753c7c60c75250410889,2022-05-11_21h47.38.964,classification_task,2021.2.3,MacIntel,59.99880002,627c6715c52fd12f31907bd0,,,,,,,,,,,,,,space,6.2169,3,0,3,0,1,,,,,,,,,,,,,,,,,,,,,,,,,,,,,,,,,,,,,,,,,,,,,,,,,
,610392e34a7b8ed05fe9ba56,627c753c7c60c75250410889,2022-05-11_21h47.38.964,classification_task,2021.2.3,MacIntel,59.99880002,627c6715c52fd12f31907bd0,,,,,,,,,,,,,,space,13.9006,4,0,4,0,1,,,,,,,,,,,,,,,,,,,,,,,,,,,,,,,,,,,,,,,,,,,,,,,,,
,610392e34a7b8ed05fe9ba56,627c753c7c60c75250410889,2022-05-11_21h47.38.964,classification_task,2021.2.3,MacIntel,59.99880002,627c6715c52fd12f31907bd0,,,,,,,,,,,,,,,,,,,,,space,497.8685,l,1,3.9167,"[""0.108"",""0.386"",""0.579"",""0.036""]","[1,1,1,0]",0,0,0,0,1,1,1,,,0,FALSE,,,,,,,,,,,,,,,,,,,,,,,,,,,,,,,
,610392e34a7b8ed05fe9ba56,627c753c7c60c75250410889,2022-05-11_21h47.38.964,classification_task,2021.2.3,MacIntel,59.99880002,627c6715c52fd12f31907bd0,,,,,,,,,,,,,,,,,,,,,,,l,0,6.9656,"[""0.237"",""0.039"",""0.770"",""0.910""]","[1,0,1,1]",0,1,1,1,1,0,0,,,0,FALSE,,,,,,,,,,,,,,,,,,,,,,,,,,,,,,,
,610392e34a7b8ed05fe9ba56,627c753c7c60c75250410889,2022-05-11_21h47.38.964,classification_task,2021.2.3,MacIntel,59.99880002,627c6715c52fd12f31907bd0,,,,,,,,,,,,,,,,,,,,,,,a,0,6.7198,"[""0.047"",""0.386"",""0.579"",""0.818""]","[0,1,1,1]",0,2,2,2,1,1,1,,,0,FALSE,,,,,,,,,,,,,,,,,,,,,,,,,,,,,,,
,610392e34a7b8ed05fe9ba56,627c753c7c60c75250410889,2022-05-11_21h47.38.964,classification_task,2021.2.3,MacIntel,59.99880002,627c6715c52fd12f31907bd0,,,,,,,,,,,,,,,,,,,,,,,l,0,8.2763,"[""0.187"",""0.430"",""0.643"",""0.968""]","[1,1,0,1]",0,3,3,3,1,0,1,,,0,FALSE,,,,,,,,,,,,,,,,,,,,,,,,,,,,,,,
,610392e34a7b8ed05fe9ba56,627c753c7c60c75250410889,2022-05-11_21h47.38.964,classification_task,2021.2.3,MacIntel,59.99880002,627c6715c52fd12f31907bd0,,,,,,,,,,,,,,,,,,,,,,,l,1,8.305,"[""0.142"",""0.297"",""0.500"",""0.646""]","[1,1,1,0]",0,4,4,4,1,1,0,,,0,FALSE,,,,,,,,,,,,,,,,,,,,,,,,,,,,,,,
,610392e34a7b8ed05fe9ba56,627c753c7c60c75250410889,2022-05-11_21h47.38.964,classification_task,2021.2.3,MacIntel,59.99880002,627c6715c52fd12f31907bd0,,,,,,,,,,,,,,,,,,,,,,,l,0,3.8368,"[""0.187"",""0.047"",""0.876"",""0.968""]","[1,0,1,1]",0,5,5,5,1,0,1,,,0,FALSE,,,,,,,,,,,,,,,,,,,,,,,,,,,,,,,
,610392e34a7b8ed05fe9ba56,627c753c7c60c75250410889,2022-05-11_21h47.38.964,classification_task,2021.2.3,MacIntel,59.99880002,627c6715c52fd12f31907bd0,,,,,,,,,,,,,,,,,,,,,,,,0,,"[""0.039"",""0.297"",""0.500"",""0.709""]","[0,1,1,1]",0,6,6,6,1,1,0,,,0,FALSE,,,,,,,,,,,,,,,,,,,,,,,,,,,,,,,
,610392e34a7b8ed05fe9ba56,627c753c7c60c75250410889,2022-05-11_21h47.38.964,classification_task,2021.2.3,MacIntel,59.99880002,627c6715c52fd12f31907bd0,,,,,,,,,,,,,,,,,,,,,,,l,0,6.9416,"[""0.058"",""0.334"",""0.770"",""0.910""]","[0,1,1,1]",0,7,7,7,1,0,0,,,0,FALSE,,,,,,,,,,,,,,,,,,,,,,,,,,,,,,,
,610392e34a7b8ed05fe9ba56,627c753c7c60c75250410889,2022-05-11_21h47.38.964,classification_task,2021.2.3,MacIntel,59.99880002,627c6715c52fd12f31907bd0,,,,,,,,,,,,,,,,,,,,,,,l,1,6.2885,"[""0.142"",""0.039"",""0.500"",""0.709""]","[1,0,1,1]",0,8,8,8,1,1,0,,,0,FALSE,,,,,,,,,,,,,,,,,,,,,,,,,,,,,,,
,610392e34a7b8ed05fe9ba56,627c753c7c60c75250410889,2022-05-11_21h47.38.964,classification_task,2021.2.3,MacIntel,59.99880002,627c6715c52fd12f31907bd0,,,,,,,,,,,,,,,,,,,,,,,l,0,7.2714,"[""0.058"",""0.430"",""0.876"",""0.968""]","[0,1,1,1]",0,9,9,9,1,0,1,,,0,FALSE,,,,,,,,,,,,,,,,,,,,,,,,,,,,,,,
,610392e34a7b8ed05fe9ba56,627c753c7c60c75250410889,2022-05-11_21h47.38.964,classification_task,2021.2.3,MacIntel,59.99880002,627c6715c52fd12f31907bd0,,,,,,,,,,,,,,,,,,,,,,,,0,,"[""0.237"",""0.334"",""0.770"",""0.047""]","[1,1,1,0]",0,10,10,10,1,0,0,,,0,FALSE,,,,,,,,,,,,,,,,,,,,,,,,,,,,,,,
,610392e34a7b8ed05fe9ba56,627c753c7c60c75250410889,2022-05-11_21h47.38.964,classification_task,2021.2.3,MacIntel,59.99880002,627c6715c52fd12f31907bd0,,,,,,,,,,,,,,,,,,,,,,,l,0,4.9357,"[""0.187"",""0.430"",""0.876"",""0.027""]","[1,1,1,0]",0,11,11,11,1,0,1,,,0,FALSE,,,,,,,,,,,,,,,,,,,,,,,,,,,,,,,
,610392e34a7b8ed05fe9ba56,627c753c7c60c75250410889,2022-05-11_21h47.38.964,classification_task,2021.2.3,MacIntel,59.99880002,627c6715c52fd12f31907bd0,,,,,,,,,,,,,,,,,,,,,,,l,1,5.2891,"[""0.142"",""0.297"",""0.039"",""0.709""]","[1,1,0,1]",0,12,12,12,1,1,0,,,0,FALSE,,,,,,,,,,,,,,,,,,,,,,,,,,,,,,,
,610392e34a7b8ed05fe9ba56,627c753c7c60c75250410889,2022-05-11_21h47.38.964,classification_task,2021.2.3,MacIntel,59.99880002,627c6715c52fd12f31907bd0,,,,,,,,,,,,,,,,,,,,,,,,0,,"[""0.108"",""0.047"",""0.579"",""0.818""]","[1,0,1,1]",0,13,13,13,1,1,1,,,0,FALSE,,,,,,,,,,,,,,,,,,,,,,,,,,,,,,,
,610392e34a7b8ed05fe9ba56,627c753c7c60c75250410889,2022-05-11_21h47.38.964,classification_task,2021.2.3,MacIntel,59.99880002,627c6715c52fd12f31907bd0,,,,,,,,,,,,,,,,,,,,,,,l,1,5.9338,"[""0.108"",""0.386"",""0.052"",""0.818""]","[1,1,0,1]",0,14,14,14,1,1,1,,,0,FALSE,,,,,,,,,,,,,,,,,,,,,,,,,,,,,,,
,610392e34a7b8ed05fe9ba56,627c753c7c60c75250410889,2022-05-11_21h47.38.964,classification_task,2021.2.3,MacIntel,59.99880002,627c6715c52fd12f31907bd0,,,,,,,,,,,,,,,,,,,,,,,l,0,7.6712,"[""0.237"",""0.334"",""0.627"",""0.910""]","[1,1,0,1]",0,15,15,15,1,0,0,,,0,FALSE,,,,,,,,,,,,,,,,,,,,,,,,,,,,,,,
,610392e34a7b8ed05fe9ba56,627c753c7c60c75250410889,2022-05-11_21h47.38.964,classification_task,2021.2.3,MacIntel,59.99880002,627c6715c52fd12f31907bd0,,,,,,,,,,,,,,,,,,,,,,,a,1,6.103,"[""0.187"",""0.643"",""0.876"",""0.968""]","[1,0,1,1]",0,16,16,16,1,0,1,,,0,FALSE,,,,,,,,,,,,,,,,,,,,,,,,,,,,,,,
,610392e34a7b8ed05fe9ba56,627c753c7c60c75250410889,2022-05-11_21h47.38.964,classification_task,2021.2.3,MacIntel,59.99880002,627c6715c52fd12f31907bd0,,,,,,,,,,,,,,,,,,,,,,,l,1,6.8859,"[""0.142"",""0.297"",""0.500"",""0.047""]","[1,1,1,0]",0,17,17,17,1,1,0,,,0,FALSE,,,,,,,,,,,,,,,,,,,,,,,,,,,,,,,
,610392e34a7b8ed05fe9ba56,627c753c7c60c75250410889,2022-05-11_21h47.38.964,classification_task,2021.2.3,MacIntel,59.99880002,627c6715c52fd12f31907bd0,,,,,,,,,,,,,,,,,,,,,,,l,1,3.5417,"[""0.108"",""0.386"",""0.026"",""0.818""]","[1,1,0,1]",0,18,18,18,1,1,1,,,0,FALSE,,,,,,,,,,,,,,,,,,,,,,,,,,,,,,,
,610392e34a7b8ed05fe9ba56,627c753c7c60c75250410889,2022-05-11_21h47.38.964,classification_task,2021.2.3,MacIntel,59.99880002,627c6715c52fd12f31907bd0,,,,,,,,,,,,,,,,,,,,,,,l,0,4.3367,"[""0.627"",""0.334"",""0.770"",""0.910""]","[0,1,1,1]",0,19,19,19,1,0,0,,,0,FALSE,,,,,,,,,,,,,,,,,,,,,,,,,,,,,,,
,610392e34a7b8ed05fe9ba56,627c753c7c60c75250410889,2022-05-11_21h47.38.964,classification_task,2021.2.3,MacIntel,59.99880002,627c6715c52fd12f31907bd0,,,,,,,,,,,,,,,,,,,,,,,a,1,5.0589,"[""0.237"",""0.334"",""0.770"",""0.643""]","[1,1,1,0]",0,20,20,20,1,0,0,,,0,FALSE,,,,,,,,,,,,,,,,,,,,,,,,,,,,,,,
,610392e34a7b8ed05fe9ba56,627c753c7c60c75250410889,2022-05-11_21h47.38.964,classification_task,2021.2.3,MacIntel,59.99880002,627c6715c52fd12f31907bd0,,,,,,,,,,,,,,,,,,,,,,,a,1,4.17,"[""0.237"",""0.644"",""0.770"",""0.910""]","[1,0,1,1]",0,21,21,21,1,0,0,,,0,FALSE,,,,,,,,,,,,,,,,,,,,,,,,,,,,,,,
,610392e34a7b8ed05fe9ba56,627c753c7c60c75250410889,2022-05-11_21h47.38.964,classification_task,2021.2.3,MacIntel,59.99880002,627c6715c52fd12f31907bd0,,,,,,,,,,,,,,,,,,,,,,,l,1,2.0713,"[""0.646"",""0.297"",""0.500"",""0.709""]","[0,1,1,1]",0,22,22,22,1,1,0,,,0,FALSE,,,,,,,,,,,,,,,,,,,,,,,,,,,,,,,
,610392e34a7b8ed05fe9ba56,627c753c7c60c75250410889,2022-05-11_21h47.38.964,classification_task,2021.2.3,MacIntel,59.99880002,627c6715c52fd12f31907bd0,,,,,,,,,,,,,,,,,,,,,,,l,1,5.1687,"[""0.047"",""0.386"",""0.579"",""0.818""]","[0,1,1,1]",0,23,23,23,1,1,1,,,0,FALSE,,,,,,,,,,,,,,,,,,,,,,,,,,,,,,,
,610392e34a7b8ed05fe9ba56,627c753c7c60c75250410889,2022-05-11_21h47.38.964,classification_task,2021.2.3,MacIntel,59.99880002,627c6715c52fd12f31907bd0,,,,,,,,,,,,,,,,,,,,,,,l,1,7.5369,"[""0.142"",""0.047"",""0.500"",""0.709""]","[1,0,1,1]",0,24,24,24,1,1,0,,,0,FALSE,,,,,,,,,,,,,,,,,,,,,,,,,,,,,,,
,610392e34a7b8ed05fe9ba56,627c753c7c60c75250410889,2022-05-11_21h47.38.964,classification_task,2021.2.3,MacIntel,59.99880002,627c6715c52fd12f31907bd0,,,,,,,,,,,,,,,,,,,,,,,l,1,2.8421,"[""0.142"",""0.297"",""0.036"",""0.709""]","[1,1,0,1]",0,25,25,25,1,1,0,,,0,FALSE,,,,,,,,,,,,,,,,,,,,,,,,,,,,,,,
,610392e34a7b8ed05fe9ba56,627c753c7c60c75250410889,2022-05-11_21h47.38.964,classification_task,2021.2.3,MacIntel,59.99880002,627c6715c52fd12f31907bd0,,,,,,,,,,,,,,,,,,,,,,,l,0,3.131,"[""0.187"",""0.430"",""0.058"",""0.968""]","[1,1,0,1]",0,26,26,26,1,0,1,,,0,FALSE,,,,,,,,,,,,,,,,,,,,,,,,,,,,,,,
,610392e34a7b8ed05fe9ba56,627c753c7c60c75250410889,2022-05-11_21h47.38.964,classification_task,2021.2.3,MacIntel,59.99880002,627c6715c52fd12f31907bd0,,,,,,,,,,,,,,,,,,,,,,,l,1,5.5273,"[""0.108"",""0.643"",""0.579"",""0.818""]","[1,0,1,1]",0,27,27,27,1,1,1,,,0,FALSE,,,,,,,,,,,,,,,,,,,,,,,,,,,,,,,
,610392e34a7b8ed05fe9ba56,627c753c7c60c75250410889,2022-05-11_21h47.38.964,classification_task,2021.2.3,MacIntel,59.99880002,627c6715c52fd12f31907bd0,,,,,,,,,,,,,,,,,,,,,,,l,1,4.8461,"[""0.108"",""0.386"",""0.579"",""0.643""]","[1,1,1,0]",0,28,28,28,1,1,1,,,0,FALSE,,,,,,,,,,,,,,,,,,,,,,,,,,,,,,,
,610392e34a7b8ed05fe9ba56,627c753c7c60c75250410889,2022-05-11_21h47.38.964,classification_task,2021.2.3,MacIntel,59.99880002,627c6715c52fd12f31907bd0,,,,,,,,,,,,,,,,,,,,,,,l,0,3.8403,"[""0.545"",""0.430"",""0.876"",""0.968""]","[0,1,1,1]",0,29,29,29,1,0,1,,,0,FALSE,,,,,,,,,,,,,,,,,,,,,,,,,,,,,,,
,610392e34a7b8ed05fe9ba56,627c753c7c60c75250410889,2022-05-11_21h47.38.964,classification_task,2021.2.3,MacIntel,59.99880002,627c6715c52fd12f31907bd0,,,,,,,,,,,,,,,,,,,,,,,a,1,7.2567,"[""0.237"",""0.334"",""0.638"",""0.910""]","[1,1,0,1]",0,30,30,30,1,0,0,,,0,FALSE,,,,,,,,,,,,,,,,,,,,,,,,,,,,,,,
,610392e34a7b8ed05fe9ba56,627c753c7c60c75250410889,2022-05-11_21h47.38.964,classification_task,2021.2.3,MacIntel,59.99880002,627c6715c52fd12f31907bd0,,,,,,,,,,,,,,,,,,,,,,,l,0,2.4692,"[""0.187"",""0.430"",""0.876"",""0.047""]","[1,1,1,0]",0,31,31,31,1,0,1,,,0,FALSE,,,,,,,,,,,,,,,,,,,,,,,,,,,,,,,
,610392e34a7b8ed05fe9ba56,627c753c7c60c75250410889,2022-05-11_21h47.38.964,classification_task,2021.2.3,MacIntel,59.99880002,627c6715c52fd12f31907bd0,,,,,,,,,,,,,,,,,,,,,,,a,1,2.3965,"[""0.187"",""0.430"",""0.876"",""0.058""]","[1,1,1,0]",0,32,32,32,1,0,1,,,0,FALSE,,,,,,,,,,,,,,,,,,,,,,,,,,,,,,,
,610392e34a7b8ed05fe9ba56,627c753c7c60c75250410889,2022-05-11_21h47.38.964,classification_task,2021.2.3,MacIntel,59.99880002,627c6715c52fd12f31907bd0,,,,,,,,,,,,,,,,,,,,,,,a,0,4.9754,"[""0.142"",""0.039"",""0.500"",""0.709""]","[1,0,1,1]",0,33,33,33,1,1,0,,,0,FALSE,,,,,,,,,,,,,,,,,,,,,,,,,,,,,,,
,610392e34a7b8ed05fe9ba56,627c753c7c60c75250410889,2022-05-11_21h47.38.964,classification_task,2021.2.3,MacIntel,59.99880002,627c6715c52fd12f31907bd0,,,,,,,,,,,,,,,,,,,,,,,a,0,2.2431,"[""0.108"",""0.386"",""0.646"",""0.818""]","[1,1,0,1]",0,34,34,34,1,1,1,,,0,FALSE,,,,,,,,,,,,,,,,,,,,,,,,,,,,,,,
,610392e34a7b8ed05fe9ba56,627c753c7c60c75250410889,2022-05-11_21h47.38.964,classification_task,2021.2.3,MacIntel,59.99880002,627c6715c52fd12f31907bd0,,,,,,,,,,,,,,,,,,,,,,,a,0,1.6594,"[""0.108"",""0.036"",""0.579"",""0.818""]","[1,0,1,1]",0,35,35,35,1,1,1,,,0,FALSE,,,,,,,,,,,,,,,,,,,,,,,,,,,,,,,
,610392e34a7b8ed05fe9ba56,627c753c7c60c75250410889,2022-05-11_21h47.38.964,classification_task,2021.2.3,MacIntel,59.99880002,627c6715c52fd12f31907bd0,,,,,,,,,,,,,,,,,,,,,,,l,1,1.6183,"[""0.142"",""0.297"",""0.036"",""0.709""]","[1,1,0,1]",0,36,36,36,1,1,0,,,0,FALSE,,,,,,,,,,,,,,,,,,,,,,,,,,,,,,,
,610392e34a7b8ed05fe9ba56,627c753c7c60c75250410889,2022-05-11_21h47.38.964,classification_task,2021.2.3,MacIntel,59.99880002,627c6715c52fd12f31907bd0,,,,,,,,,,,,,,,,,,,,,,,a,1,4.4348,"[""0.042"",""0.334"",""0.770"",""0.910""]","[0,1,1,1]",0,37,37,37,1,0,0,,,0,FALSE,,,,,,,,,,,,,,,,,,,,,,,,,,,,,,,
,610392e34a7b8ed05fe9ba56,627c753c7c60c75250410889,2022-05-11_21h47.38.964,classification_task,2021.2.3,MacIntel,59.99880002,627c6715c52fd12f31907bd0,,,,,,,,,,,,,,,,,,,,,,,l,0,1.8567,"[""0.237"",""0.334"",""0.646"",""0.910""]","[1,1,0,1]",0,38,38,38,1,0,0,,,0,FALSE,,,,,,,,,,,,,,,,,,,,,,,,,,,,,,,
,610392e34a7b8ed05fe9ba56,627c753c7c60c75250410889,2022-05-11_21h47.38.964,classification_task,2021.2.3,MacIntel,59.99880002,627c6715c52fd12f31907bd0,,,,,,,,,,,,,,,,,,,,,,,l,0,4.7026,"[""0.646"",""0.430"",""0.876"",""0.968""]","[0,1,1,1]",0,39,39,39,1,0,1,,,0,FALSE,,,,,,,,,,,,,,,,,,,,,,,,,,,,,,,
,610392e34a7b8ed05fe9ba56,627c753c7c60c75250410889,2022-05-11_21h47.38.964,classification_task,2021.2.3,MacIntel,59.99880002,627c6715c52fd12f31907bd0,,,,,,,,,,,,,,,,,,,,,,,l,0,2.3943,"[""0.187"",""0.036"",""0.876"",""0.968""]","[1,0,1,1]",0,40,40,40,1,0,1,,,0,FALSE,,,,,,,,,,,,,,,,,,,,,,,,,,,,,,,
,610392e34a7b8ed05fe9ba56,627c753c7c60c75250410889,2022-05-11_21h47.38.964,classification_task,2021.2.3,MacIntel,59.99880002,627c6715c52fd12f31907bd0,,,,,,,,,,,,,,,,,,,,,,,a,1,1.1907,"[""0.187"",""0.430"",""0.042"",""0.968""]","[1,1,0,1]",0,41,41,41,1,0,1,,,0,FALSE,,,,,,,,,,,,,,,,,,,,,,,,,,,,,,,
,610392e34a7b8ed05fe9ba56,627c753c7c60c75250410889,2022-05-11_21h47.38.964,classification_task,2021.2.3,MacIntel,59.99880002,627c6715c52fd12f31907bd0,,,,,,,,,,,,,,,,,,,,,,,a,0,1.6715,"[""0.027"",""0.297"",""0.500"",""0.709""]","[0,1,1,1]",0,42,42,42,1,1,0,,,0,FALSE,,,,,,,,,,,,,,,,,,,,,,,,,,,,,,,
,610392e34a7b8ed05fe9ba56,627c753c7c60c75250410889,2022-05-11_21h47.38.964,classification_task,2021.2.3,MacIntel,59.99880002,627c6715c52fd12f31907bd0,,,,,,,,,,,,,,,,,,,,,,,l,0,4.0887,"[""0.237"",""0.047"",""0.770"",""0.910""]","[1,0,1,1]",0,43,43,43,1,0,0,,,0,FALSE,,,,,,,,,,,,,,,,,,,,,,,,,,,,,,,
,610392e34a7b8ed05fe9ba56,627c753c7c60c75250410889,2022-05-11_21h47.38.964,classification_task,2021.2.3,MacIntel,59.99880002,627c6715c52fd12f31907bd0,,,,,,,,,,,,,,,,,,,,,,,a,0,1.4568,"[""0.142"",""0.297"",""0.500"",""0.047""]","[1,1,1,0]",0,44,44,44,1,1,0,,,0,FALSE,,,,,,,,,,,,,,,,,,,,,,,,,,,,,,,
,610392e34a7b8ed05fe9ba56,627c753c7c60c75250410889,2022-05-11_21h47.38.964,classification_task,2021.2.3,MacIntel,59.99880002,627c6715c52fd12f31907bd0,,,,,,,,,,,,,,,,,,,,,,,l,0,1.5707,"[""0.237"",""0.334"",""0.770"",""0.047""]","[1,1,1,0]",0,45,45,45,1,0,0,,,0,FALSE,,,,,,,,,,,,,,,,,,,,,,,,,,,,,,,
,610392e34a7b8ed05fe9ba56,627c753c7c60c75250410889,2022-05-11_21h47.38.964,classification_task,2021.2.3,MacIntel,59.99880002,627c6715c52fd12f31907bd0,,,,,,,,,,,,,,,,,,,,,,,a,0,1.3866,"[""0.108"",""0.386"",""0.579"",""0.027""]","[1,1,1,0]",0,46,46,46,1,1,1,,,0,FALSE,,,,,,,,,,,,,,,,,,,,,,,,,,,,,,,
,610392e34a7b8ed05fe9ba56,627c753c7c60c75250410889,2022-05-11_21h47.38.964,classification_task,2021.2.3,MacIntel,59.99880002,627c6715c52fd12f31907bd0,,,,,,,,,,,,,,,,,,,,,,,l,1,0.7421,"[""0.646"",""0.386"",""0.579"",""0.818""]","[0,1,1,1]",0,47,47,47,1,1,1,,,0,FALSE,,,,,,,,,,,,,,,,,,,,,,,,,,,,,,,
,610392e34a7b8ed05fe9ba56,627c753c7c60c75250410889,2022-05-11_21h47.38.964,classification_task,2021.2.3,MacIntel,59.99880002,627c6715c52fd12f31907bd0,,,,,,,,,,,,,,,,,,,,,,,a,1,2.353,"[""0.187"",""0.430"",""0.876"",""0.047""]","[1,1,1,0]",0,48,48,48,1,0,1,,,0,FALSE,,,,,,,,,,,,,,,,,,,,,,,,,,,,,,,
,610392e34a7b8ed05fe9ba56,627c753c7c60c75250410889,2022-05-11_21h47.38.964,classification_task,2021.2.3,MacIntel,59.99880002,627c6715c52fd12f31907bd0,,,,,,,,,,,,,,,,,,,,,,,a,1,2.8368,"[""0.638"",""0.430"",""0.876"",""0.968""]","[0,1,1,1]",0,49,49,49,1,0,1,,,0,FALSE,,,,,,,,,,,,,,,,,,,,,,,,,,,,,,,
,610392e34a7b8ed05fe9ba56,627c753c7c60c75250410889,2022-05-11_21h47.38.964,classification_task,2021.2.3,MacIntel,59.99880002,627c6715c52fd12f31907bd0,,,,,,,,,,,,,,,,,,,,,,,a,0,2.3384,"[""0.142"",""0.297"",""0.500"",""0.052""]","[1,1,1,0]",0,50,50,50,1,1,0,,,0,FALSE,,,,,,,,,,,,,,,,,,,,,,,,,,,,,,,
,610392e34a7b8ed05fe9ba56,627c753c7c60c75250410889,2022-05-11_21h47.38.964,classification_task,2021.2.3,MacIntel,59.99880002,627c6715c52fd12f31907bd0,,,,,,,,,,,,,,,,,,,,,,,l,0,3.4091,"[""0.187"",""0.430"",""0.638"",""0.968""]","[1,1,0,1]",0,51,51,51,1,0,1,,,0,FALSE,,,,,,,,,,,,,,,,,,,,,,,,,,,,,,,
,610392e34a7b8ed05fe9ba56,627c753c7c60c75250410889,2022-05-11_21h47.38.964,classification_task,2021.2.3,MacIntel,59.99880002,627c6715c52fd12f31907bd0,,,,,,,,,,,,,,,,,,,,,,,a,0,1.7571,"[""0.026"",""0.297"",""0.500"",""0.709""]","[0,1,1,1]",0,52,52,52,1,1,0,,,0,FALSE,,,,,,,,,,,,,,,,,,,,,,,,,,,,,,,
,610392e34a7b8ed05fe9ba56,627c753c7c60c75250410889,2022-05-11_21h47.38.964,classification_task,2021.2.3,MacIntel,59.99880002,627c6715c52fd12f31907bd0,,,,,,,,,,,,,,,,,,,,,,,a,1,1.7842,"[""0.237"",""0.334"",""0.770"",""0.646""]","[1,1,1,0]",0,53,53,53,1,0,0,,,0,FALSE,,,,,,,,,,,,,,,,,,,,,,,,,,,,,,,
,610392e34a7b8ed05fe9ba56,627c753c7c60c75250410889,2022-05-11_21h47.38.964,classification_task,2021.2.3,MacIntel,59.99880002,627c6715c52fd12f31907bd0,,,,,,,,,,,,,,,,,,,,,,,l,1,1.0074,"[""0.652"",""0.386"",""0.579"",""0.818""]","[0,1,1,1]",0,54,54,54,1,1,1,,,0,FALSE,,,,,,,,,,,,,,,,,,,,,,,,,,,,,,,
,610392e34a7b8ed05fe9ba56,627c753c7c60c75250410889,2022-05-11_21h47.38.964,classification_task,2021.2.3,MacIntel,59.99880002,627c6715c52fd12f31907bd0,,,,,,,,,,,,,,,,,,,,,,,l,0,1.0172,"[""0.052"",""0.334"",""0.770"",""0.910""]","[0,1,1,1]",0,55,55,55,1,0,0,,,0,FALSE,,,,,,,,,,,,,,,,,,,,,,,,,,,,,,,
,610392e34a7b8ed05fe9ba56,627c753c7c60c75250410889,2022-05-11_21h47.38.964,classification_task,2021.2.3,MacIntel,59.99880002,627c6715c52fd12f31907bd0,,,,,,,,,,,,,,,,,,,,,,,l,0,3.22,"[""0.187"",""0.039"",""0.876"",""0.968""]","[1,0,1,1]",0,56,56,56,1,0,1,,,0,FALSE,,,,,,,,,,,,,,,,,,,,,,,,,,,,,,,
,610392e34a7b8ed05fe9ba56,627c753c7c60c75250410889,2022-05-11_21h47.38.964,classification_task,2021.2.3,MacIntel,59.99880002,627c6715c52fd12f31907bd0,,,,,,,,,,,,,,,,,,,,,,,l,0,0.7404,"[""0.237"",""0.042"",""0.770"",""0.910""]","[1,0,1,1]",0,57,57,57,1,0,0,,,0,FALSE,,,,,,,,,,,,,,,,,,,,,,,,,,,,,,,
,610392e34a7b8ed05fe9ba56,627c753c7c60c75250410889,2022-05-11_21h47.38.964,classification_task,2021.2.3,MacIntel,59.99880002,627c6715c52fd12f31907bd0,,,,,,,,,,,,,,,,,,,,,,,l,0,1.1516,"[""0.237"",""0.334"",""0.058"",""0.910""]","[1,1,0,1]",0,58,58,58,1,0,0,,,0,FALSE,,,,,,,,,,,,,,,,,,,,,,,,,,,,,,,
,610392e34a7b8ed05fe9ba56,627c753c7c60c75250410889,2022-05-11_21h47.38.964,classification_task,2021.2.3,MacIntel,59.99880002,627c6715c52fd12f31907bd0,,,,,,,,,,,,,,,,,,,,,,,a,0,1.1524,"[""0.142"",""0.039"",""0.500"",""0.709""]","[1,0,1,1]",0,59,59,59,1,1,0,,,0,FALSE,,,,,,,,,,,,,,,,,,,,,,,,,,,,,,,
,610392e34a7b8ed05fe9ba56,627c753c7c60c75250410889,2022-05-11_21h47.38.964,classification_task,2021.2.3,MacIntel,59.99880002,627c6715c52fd12f31907bd0,,,,,,,,,,,,,,,,,,,,,,,a,0,0.8023,"[""0.108"",""0.386"",""0.039"",""0.818""]","[1,1,0,1]",0,60,60,60,1,1,1,,,0,FALSE,,,,,,,,,,,,,,,,,,,,,,,,,,,,,,,
,610392e34a7b8ed05fe9ba56,627c753c7c60c75250410889,2022-05-11_21h47.38.964,classification_task,2021.2.3,MacIntel,59.99880002,627c6715c52fd12f31907bd0,,,,,,,,,,,,,,,,,,,,,,,l,1,4.1059,"[""0.108"",""0.386"",""0.579"",""0.652""]","[1,1,1,0]",0,61,61,61,1,1,1,,,0,FALSE,,,,,,,,,,,,,,,,,,,,,,,,,,,,,,,
,610392e34a7b8ed05fe9ba56,627c753c7c60c75250410889,2022-05-11_21h47.38.964,classification_task,2021.2.3,MacIntel,59.99880002,627c6715c52fd12f31907bd0,,,,,,,,,,,,,,,,,,,,,,,l,1,1.1727,"[""0.142"",""0.297"",""0.047"",""0.709""]","[1,1,0,1]",0,62,62,62,1,1,0,,,0,FALSE,,,,,,,,,,,,,,,,,,,,,,,,,,,,,,,
,610392e34a7b8ed05fe9ba56,627c753c7c60c75250410889,2022-05-11_21h47.38.964,classification_task,2021.2.3,MacIntel,59.99880002,627c6715c52fd12f31907bd0,,,,,,,,,,,,,,,,,,,,,,,l,1,2.5023,"[""0.108"",""0.644"",""0.579"",""0.818""]","[1,0,1,1]",0,63,63,63,1,1,1,,,0,FALSE,,,,,,,,,,,,,,,,,,,,,,,,,,,,,,,
,610392e34a7b8ed05fe9ba56,627c753c7c60c75250410889,2022-05-11_21h47.38.964,classification_task,2021.2.3,MacIntel,59.99880002,627c6715c52fd12f31907bd0,,,,,,,,,,,,,,,,,,,,,,,,,,,,,,,,,,,,,,,0, ,,0,9.128598832,1014.4594,0,0,0,0,1,2,1,,,,,,,,,,,,,,,,,,
,610392e34a7b8ed05fe9ba56,627c753c7c60c75250410889,2022-05-11_21h47.38.964,classification_task,2021.2.3,MacIntel,59.99880002,627c6715c52fd12f31907bd0,,,,,,,,,,,,,,,,,,,,,,,,,,,,,,,,,,,,,,,1,  ,,0,7.804472481,1022.168,0,0,0,0,1,2,1,,,,,,,,,,,,,,,,,,
,610392e34a7b8ed05fe9ba56,627c753c7c60c75250410889,2022-05-11_21h47.38.964,classification_task,2021.2.3,MacIntel,59.99880002,627c6715c52fd12f31907bd0,,,,,,,,,,,,,,,,,,,,,,,,,,,,,,,,,,,,,,,2,  ,,0,6.463579298,1027.0517,0,0,0,0,1,2,1,,,,,,,,,,,,,,,,,,
,610392e34a7b8ed05fe9ba56,627c753c7c60c75250410889,2022-05-11_21h47.38.964,classification_task,2021.2.3,MacIntel,59.99880002,627c6715c52fd12f31907bd0,,,,,,,,,,,,,,,,,,,,,,,,,,,,,,,,,,,,,,,,,,,,,0,0,0,0,1,,1,,,,,,,,,,,,,,,,,,
,610392e34a7b8ed05fe9ba56,627c753c7c60c75250410889,2022-05-11_21h47.38.964,classification_task,2021.2.3,MacIntel,59.99880002,627c6715c52fd12f31907bd0,,,,,,,,,,,,,,,,,,,,,space,15.9344,a,1,1.1266,"[""0.237"",""0.334"",""0.770"",""0.039""]","[1,1,1,0]",0,0,0,0,1,0,0,,,0,FALSE,,,,,,,,,,,,,,,,,,,,,,,,,,,,,,,
,610392e34a7b8ed05fe9ba56,627c753c7c60c75250410889,2022-05-11_21h47.38.964,classification_task,2021.2.3,MacIntel,59.99880002,627c6715c52fd12f31907bd0,,,,,,,,,,,,,,,,,,,,,,,l,1,0.5816,"[""0.142"",""0.047"",""0.500"",""0.709""]","[1,0,1,1]",0,1,1,1,1,1,0,,,0,FALSE,,,,,,,,,,,,,,,,,,,,,,,,,,,,,,,
,610392e34a7b8ed05fe9ba56,627c753c7c60c75250410889,2022-05-11_21h47.38.964,classification_task,2021.2.3,MacIntel,59.99880002,627c6715c52fd12f31907bd0,,,,,,,,,,,,,,,,,,,,,,,a,1,2.8104,"[""0.187"",""0.430"",""0.036"",""0.968""]","[1,1,0,1]",0,2,2,2,1,0,1,,,0,FALSE,,,,,,,,,,,,,,,,,,,,,,,,,,,,,,,
,610392e34a7b8ed05fe9ba56,627c753c7c60c75250410889,2022-05-11_21h47.38.964,classification_task,2021.2.3,MacIntel,59.99880002,627c6715c52fd12f31907bd0,,,,,,,,,,,,,,,,,,,,,,,l,0,0.796,"[""0.039"",""0.334"",""0.770"",""0.910""]","[0,1,1,1]",0,3,3,3,1,0,0,,,0,FALSE,,,,,,,,,,,,,,,,,,,,,,,,,,,,,,,
,610392e34a7b8ed05fe9ba56,627c753c7c60c75250410889,2022-05-11_21h47.38.964,classification_task,2021.2.3,MacIntel,59.99880002,627c6715c52fd12f31907bd0,,,,,,,,,,,,,,,,,,,,,,,l,1,0.8115,"[""0.627"",""0.386"",""0.579"",""0.818""]","[0,1,1,1]",0,4,4,4,1,1,1,,,0,FALSE,,,,,,,,,,,,,,,,,,,,,,,,,,,,,,,
,610392e34a7b8ed05fe9ba56,627c753c7c60c75250410889,2022-05-11_21h47.38.964,classification_task,2021.2.3,MacIntel,59.99880002,627c6715c52fd12f31907bd0,,,,,,,,,,,,,,,,,,,,,,,l,0,1.6999,"[""0.646"",""0.430"",""0.876"",""0.968""]","[0,1,1,1]",0,5,5,5,1,0,1,,,0,FALSE,,,,,,,,,,,,,,,,,,,,,,,,,,,,,,,
,610392e34a7b8ed05fe9ba56,627c753c7c60c75250410889,2022-05-11_21h47.38.964,classification_task,2021.2.3,MacIntel,59.99880002,627c6715c52fd12f31907bd0,,,,,,,,,,,,,,,,,,,,,,,a,0,0.6483,"[""0.142"",""0.297"",""0.500"",""0.638""]","[1,1,1,0]",0,6,6,6,1,1,0,,,0,FALSE,,,,,,,,,,,,,,,,,,,,,,,,,,,,,,,
,610392e34a7b8ed05fe9ba56,627c753c7c60c75250410889,2022-05-11_21h47.38.964,classification_task,2021.2.3,MacIntel,59.99880002,627c6715c52fd12f31907bd0,,,,,,,,,,,,,,,,,,,,,,,l,1,2.0928,"[""0.108"",""0.652"",""0.579"",""0.818""]","[1,0,1,1]",0,7,7,7,1,1,1,,,0,FALSE,,,,,,,,,,,,,,,,,,,,,,,,,,,,,,,
,610392e34a7b8ed05fe9ba56,627c753c7c60c75250410889,2022-05-11_21h47.38.964,classification_task,2021.2.3,MacIntel,59.99880002,627c6715c52fd12f31907bd0,,,,,,,,,,,,,,,,,,,,,,,l,0,3.0398,"[""0.187"",""0.643"",""0.876"",""0.968""]","[1,0,1,1]",0,8,8,8,1,0,1,,,0,FALSE,,,,,,,,,,,,,,,,,,,,,,,,,,,,,,,
,610392e34a7b8ed05fe9ba56,627c753c7c60c75250410889,2022-05-11_21h47.38.964,classification_task,2021.2.3,MacIntel,59.99880002,627c6715c52fd12f31907bd0,,,,,,,,,,,,,,,,,,,,,,,l,0,1.0686,"[""0.237"",""0.334"",""0.047"",""0.910""]","[1,1,0,1]",0,9,9,9,1,0,0,,,0,FALSE,,,,,,,,,,,,,,,,,,,,,,,,,,,,,,,
,610392e34a7b8ed05fe9ba56,627c753c7c60c75250410889,2022-05-11_21h47.38.964,classification_task,2021.2.3,MacIntel,59.99880002,627c6715c52fd12f31907bd0,,,,,,,,,,,,,,,,,,,,,,,l,1,1.8263,"[""0.108"",""0.386"",""0.579"",""0.036""]","[1,1,1,0]",0,10,10,10,1,1,1,,,0,FALSE,,,,,,,,,,,,,,,,,,,,,,,,,,,,,,,
,610392e34a7b8ed05fe9ba56,627c753c7c60c75250410889,2022-05-11_21h47.38.964,classification_task,2021.2.3,MacIntel,59.99880002,627c6715c52fd12f31907bd0,,,,,,,,,,,,,,,,,,,,,,,l,0,0.5516,"[""0.187"",""0.430"",""0.876"",""0.638""]","[1,1,1,0]",0,11,11,11,1,0,1,,,0,FALSE,,,,,,,,,,,,,,,,,,,,,,,,,,,,,,,
,610392e34a7b8ed05fe9ba56,627c753c7c60c75250410889,2022-05-11_21h47.38.964,classification_task,2021.2.3,MacIntel,59.99880002,627c6715c52fd12f31907bd0,,,,,,,,,,,,,,,,,,,,,,,l,1,0.5254,"[""0.027"",""0.297"",""0.500"",""0.709""]","[0,1,1,1]",0,12,12,12,1,1,0,,,0,FALSE,,,,,,,,,,,,,,,,,,,,,,,,,,,,,,,
,610392e34a7b8ed05fe9ba56,627c753c7c60c75250410889,2022-05-11_21h47.38.964,classification_task,2021.2.3,MacIntel,59.99880002,627c6715c52fd12f31907bd0,,,,,,,,,,,,,,,,,,,,,,,a,1,0.9855,"[""0.237"",""0.627"",""0.770"",""0.910""]","[1,0,1,1]",0,13,13,13,1,0,0,,,0,FALSE,,,,,,,,,,,,,,,,,,,,,,,,,,,,,,,
,610392e34a7b8ed05fe9ba56,627c753c7c60c75250410889,2022-05-11_21h47.38.964,classification_task,2021.2.3,MacIntel,59.99880002,627c6715c52fd12f31907bd0,,,,,,,,,,,,,,,,,,,,,,,l,1,0.6002,"[""0.142"",""0.297"",""0.047"",""0.709""]","[1,1,0,1]",0,14,14,14,1,1,0,,,0,FALSE,,,,,,,,,,,,,,,,,,,,,,,,,,,,,,,
,610392e34a7b8ed05fe9ba56,627c753c7c60c75250410889,2022-05-11_21h47.38.964,classification_task,2021.2.3,MacIntel,59.99880002,627c6715c52fd12f31907bd0,,,,,,,,,,,,,,,,,,,,,,,l,1,1.9397,"[""0.108"",""0.386"",""0.039"",""0.818""]","[1,1,0,1]",0,15,15,15,1,1,1,,,0,FALSE,,,,,,,,,,,,,,,,,,,,,,,,,,,,,,,
,610392e34a7b8ed05fe9ba56,627c753c7c60c75250410889,2022-05-11_21h47.38.964,classification_task,2021.2.3,MacIntel,59.99880002,627c6715c52fd12f31907bd0,,,,,,,,,,,,,,,,,,,,,,,l,1,1.2437,"[""0.142"",""0.036"",""0.500"",""0.709""]","[1,0,1,1]",0,16,16,16,1,1,0,,,0,FALSE,,,,,,,,,,,,,,,,,,,,,,,,,,,,,,,
,610392e34a7b8ed05fe9ba56,627c753c7c60c75250410889,2022-05-11_21h47.38.964,classification_task,2021.2.3,MacIntel,59.99880002,627c6715c52fd12f31907bd0,,,,,,,,,,,,,,,,,,,,,,,a,1,0.7008,"[""0.237"",""0.334"",""0.770"",""0.646""]","[1,1,1,0]",0,17,17,17,1,0,0,,,0,FALSE,,,,,,,,,,,,,,,,,,,,,,,,,,,,,,,
,610392e34a7b8ed05fe9ba56,627c753c7c60c75250410889,2022-05-11_21h47.38.964,classification_task,2021.2.3,MacIntel,59.99880002,627c6715c52fd12f31907bd0,,,,,,,,,,,,,,,,,,,,,,,l,1,0.7691,"[""0.142"",""0.297"",""0.545"",""0.709""]","[1,1,0,1]",0,18,18,18,1,1,0,,,0,FALSE,,,,,,,,,,,,,,,,,,,,,,,,,,,,,,,
,610392e34a7b8ed05fe9ba56,627c753c7c60c75250410889,2022-05-11_21h47.38.964,classification_task,2021.2.3,MacIntel,59.99880002,627c6715c52fd12f31907bd0,,,,,,,,,,,,,,,,,,,,,,,a,1,0.763,"[""0.058"",""0.430"",""0.876"",""0.968""]","[0,1,1,1]",0,19,19,19,1,0,1,,,0,FALSE,,,,,,,,,,,,,,,,,,,,,,,,,,,,,,,
,610392e34a7b8ed05fe9ba56,627c753c7c60c75250410889,2022-05-11_21h47.38.964,classification_task,2021.2.3,MacIntel,59.99880002,627c6715c52fd12f31907bd0,,,,,,,,,,,,,,,,,,,,,,,a,1,1.0303,"[""0.237"",""0.627"",""0.770"",""0.910""]","[1,0,1,1]",0,20,20,20,1,0,0,,,0,FALSE,,,,,,,,,,,,,,,,,,,,,,,,,,,,,,,
,610392e34a7b8ed05fe9ba56,627c753c7c60c75250410889,2022-05-11_21h47.38.964,classification_task,2021.2.3,MacIntel,59.99880002,627c6715c52fd12f31907bd0,,,,,,,,,,,,,,,,,,,,,,,l,0,0.5468,"[""0.187"",""0.430"",""0.876"",""0.058""]","[1,1,1,0]",0,21,21,21,1,0,1,,,0,FALSE,,,,,,,,,,,,,,,,,,,,,,,,,,,,,,,
,610392e34a7b8ed05fe9ba56,627c753c7c60c75250410889,2022-05-11_21h47.38.964,classification_task,2021.2.3,MacIntel,59.99880002,627c6715c52fd12f31907bd0,,,,,,,,,,,,,,,,,,,,,,,l,1,0.4676,"[""0.039"",""0.386"",""0.579"",""0.818""]","[0,1,1,1]",0,22,22,22,1,1,1,,,0,FALSE,,,,,,,,,,,,,,,,,,,,,,,,,,,,,,,
,610392e34a7b8ed05fe9ba56,627c753c7c60c75250410889,2022-05-11_21h47.38.964,classification_task,2021.2.3,MacIntel,59.99880002,627c6715c52fd12f31907bd0,,,,,,,,,,,,,,,,,,,,,,,a,0,0.7683,"[""0.108"",""0.386"",""0.627"",""0.818""]","[1,1,0,1]",0,23,23,23,1,1,1,,,0,FALSE,,,,,,,,,,,,,,,,,,,,,,,,,,,,,,,
,610392e34a7b8ed05fe9ba56,627c753c7c60c75250410889,2022-05-11_21h47.38.964,classification_task,2021.2.3,MacIntel,59.99880002,627c6715c52fd12f31907bd0,,,,,,,,,,,,,,,,,,,,,,,l,1,1.1824,"[""0.142"",""0.297"",""0.500"",""0.047""]","[1,1,1,0]",0,24,24,24,1,1,0,,,0,FALSE,,,,,,,,,,,,,,,,,,,,,,,,,,,,,,,
,610392e34a7b8ed05fe9ba56,627c753c7c60c75250410889,2022-05-11_21h47.38.964,classification_task,2021.2.3,MacIntel,59.99880002,627c6715c52fd12f31907bd0,,,,,,,,,,,,,,,,,,,,,,,a,1,0.583,"[""0.646"",""0.334"",""0.770"",""0.910""]","[0,1,1,1]",0,25,25,25,1,0,0,,,0,FALSE,,,,,,,,,,,,,,,,,,,,,,,,,,,,,,,
,610392e34a7b8ed05fe9ba56,627c753c7c60c75250410889,2022-05-11_21h47.38.964,classification_task,2021.2.3,MacIntel,59.99880002,627c6715c52fd12f31907bd0,,,,,,,,,,,,,,,,,,,,,,,a,1,0.5719,"[""0.237"",""0.334"",""0.047"",""0.910""]","[1,1,0,1]",0,26,26,26,1,0,0,,,0,FALSE,,,,,,,,,,,,,,,,,,,,,,,,,,,,,,,
,610392e34a7b8ed05fe9ba56,627c753c7c60c75250410889,2022-05-11_21h47.38.964,classification_task,2021.2.3,MacIntel,59.99880002,627c6715c52fd12f31907bd0,,,,,,,,,,,,,,,,,,,,,,,a,1,0.565,"[""0.187"",""0.627"",""0.876"",""0.968""]","[1,0,1,1]",0,27,27,27,1,0,1,,,0,FALSE,,,,,,,,,,,,,,,,,,,,,,,,,,,,,,,
,610392e34a7b8ed05fe9ba56,627c753c7c60c75250410889,2022-05-11_21h47.38.964,classification_task,2021.2.3,MacIntel,59.99880002,627c6715c52fd12f31907bd0,,,,,,,,,,,,,,,,,,,,,,,a,0,0.4668,"[""0.108"",""0.036"",""0.579"",""0.818""]","[1,0,1,1]",0,28,28,28,1,1,1,,,0,FALSE,,,,,,,,,,,,,,,,,,,,,,,,,,,,,,,
,610392e34a7b8ed05fe9ba56,627c753c7c60c75250410889,2022-05-11_21h47.38.964,classification_task,2021.2.3,MacIntel,59.99880002,627c6715c52fd12f31907bd0,,,,,,,,,,,,,,,,,,,,,,,a,0,0.548,"[""0.108"",""0.386"",""0.579"",""0.627""]","[1,1,1,0]",0,29,29,29,1,1,1,,,0,FALSE,,,,,,,,,,,,,,,,,,,,,,,,,,,,,,,
,610392e34a7b8ed05fe9ba56,627c753c7c60c75250410889,2022-05-11_21h47.38.964,classification_task,2021.2.3,MacIntel,59.99880002,627c6715c52fd12f31907bd0,,,,,,,,,,,,,,,,,,,,,,,a,0,0.3528,"[""0.026"",""0.297"",""0.500"",""0.709""]","[0,1,1,1]",0,30,30,30,1,1,0,,,0,FALSE,,,,,,,,,,,,,,,,,,,,,,,,,,,,,,,
,610392e34a7b8ed05fe9ba56,627c753c7c60c75250410889,2022-05-11_21h47.38.964,classification_task,2021.2.3,MacIntel,59.99880002,627c6715c52fd12f31907bd0,,,,,,,,,,,,,,,,,,,,,,,l,0,0.8939,"[""0.187"",""0.430"",""0.036"",""0.968""]","[1,1,0,1]",0,31,31,31,1,0,1,,,0,FALSE,,,,,,,,,,,,,,,,,,,,,,,,,,,,,,,
,610392e34a7b8ed05fe9ba56,627c753c7c60c75250410889,2022-05-11_21h47.38.964,classification_task,2021.2.3,MacIntel,59.99880002,627c6715c52fd12f31907bd0,,,,,,,,,,,,,,,,,,,,,,,l,1,0.9946,"[""0.638"",""0.297"",""0.500"",""0.709""]","[0,1,1,1]",0,32,32,32,1,1,0,,,0,FALSE,,,,,,,,,,,,,,,,,,,,,,,,,,,,,,,
,610392e34a7b8ed05fe9ba56,627c753c7c60c75250410889,2022-05-11_21h47.38.964,classification_task,2021.2.3,MacIntel,59.99880002,627c6715c52fd12f31907bd0,,,,,,,,,,,,,,,,,,,,,,,l,1,0.7159,"[""0.142"",""0.297"",""0.500"",""0.643""]","[1,1,1,0]",0,33,33,33,1,1,0,,,0,FALSE,,,,,,,,,,,,,,,,,,,,,,,,,,,,,,,
,610392e34a7b8ed05fe9ba56,627c753c7c60c75250410889,2022-05-11_21h47.38.964,classification_task,2021.2.3,MacIntel,59.99880002,627c6715c52fd12f31907bd0,,,,,,,,,,,,,,,,,,,,,,,a,1,0.6847,"[""0.237"",""0.334"",""0.770"",""0.627""]","[1,1,1,0]",0,34,34,34,1,0,0,,,0,FALSE,,,,,,,,,,,,,,,,,,,,,,,,,,,,,,,
,610392e34a7b8ed05fe9ba56,627c753c7c60c75250410889,2022-05-11_21h47.38.964,classification_task,2021.2.3,MacIntel,59.99880002,627c6715c52fd12f31907bd0,,,,,,,,,,,,,,,,,,,,,,,l,1,0.6084,"[""0.108"",""0.386"",""0.579"",""0.052""]","[1,1,1,0]",0,35,35,35,1,1,1,,,0,FALSE,,,,,,,,,,,,,,,,,,,,,,,,,,,,,,,
,610392e34a7b8ed05fe9ba56,627c753c7c60c75250410889,2022-05-11_21h47.38.964,classification_task,2021.2.3,MacIntel,59.99880002,627c6715c52fd12f31907bd0,,,,,,,,,,,,,,,,,,,,,,,a,1,1.0399,"[""0.237"",""0.334"",""0.042"",""0.910""]","[1,1,0,1]",0,36,36,36,1,0,0,,,0,FALSE,,,,,,,,,,,,,,,,,,,,,,,,,,,,,,,
,610392e34a7b8ed05fe9ba56,627c753c7c60c75250410889,2022-05-11_21h47.38.964,classification_task,2021.2.3,MacIntel,59.99880002,627c6715c52fd12f31907bd0,,,,,,,,,,,,,,,,,,,,,,,a,1,0.6648,"[""0.237"",""0.052"",""0.770"",""0.910""]","[1,0,1,1]",0,37,37,37,1,0,0,,,0,FALSE,,,,,,,,,,,,,,,,,,,,,,,,,,,,,,,
,610392e34a7b8ed05fe9ba56,627c753c7c60c75250410889,2022-05-11_21h47.38.964,classification_task,2021.2.3,MacIntel,59.99880002,627c6715c52fd12f31907bd0,,,,,,,,,,,,,,,,,,,,,,,l,1,0.5503,"[""0.142"",""0.297"",""0.039"",""0.709""]","[1,1,0,1]",0,38,38,38,1,1,0,,,0,FALSE,,,,,,,,,,,,,,,,,,,,,,,,,,,,,,,
,610392e34a7b8ed05fe9ba56,627c753c7c60c75250410889,2022-05-11_21h47.38.964,classification_task,2021.2.3,MacIntel,59.99880002,627c6715c52fd12f31907bd0,,,,,,,,,,,,,,,,,,,,,,,l,1,0.7294,"[""0.108"",""0.386"",""0.036"",""0.818""]","[1,1,0,1]",0,39,39,39,1,1,1,,,0,FALSE,,,,,,,,,,,,,,,,,,,,,,,,,,,,,,,
,610392e34a7b8ed05fe9ba56,627c753c7c60c75250410889,2022-05-11_21h47.38.964,classification_task,2021.2.3,MacIntel,59.99880002,627c6715c52fd12f31907bd0,,,,,,,,,,,,,,,,,,,,,,,l,1,0.9071,"[""0.142"",""0.047"",""0.500"",""0.709""]","[1,0,1,1]",0,40,40,40,1,1,0,,,0,FALSE,,,,,,,,,,,,,,,,,,,,,,,,,,,,,,,
,610392e34a7b8ed05fe9ba56,627c753c7c60c75250410889,2022-05-11_21h47.38.964,classification_task,2021.2.3,MacIntel,59.99880002,627c6715c52fd12f31907bd0,,,,,,,,,,,,,,,,,,,,,,,a,1,0.566,"[""0.039"",""0.334"",""0.770"",""0.910""]","[0,1,1,1]",0,41,41,41,1,0,0,,,0,FALSE,,,,,,,,,,,,,,,,,,,,,,,,,,,,,,,
,610392e34a7b8ed05fe9ba56,627c753c7c60c75250410889,2022-05-11_21h47.38.964,classification_task,2021.2.3,MacIntel,59.99880002,627c6715c52fd12f31907bd0,,,,,,,,,,,,,,,,,,,,,,,l,1,0.6901,"[""0.108"",""0.052"",""0.579"",""0.818""]","[1,0,1,1]",0,42,42,42,1,1,1,,,0,FALSE,,,,,,,,,,,,,,,,,,,,,,,,,,,,,,,
,610392e34a7b8ed05fe9ba56,627c753c7c60c75250410889,2022-05-11_21h47.38.964,classification_task,2021.2.3,MacIntel,59.99880002,627c6715c52fd12f31907bd0,,,,,,,,,,,,,,,,,,,,,,,l,0,0.5312,"[""0.187"",""0.430"",""0.876"",""0.545""]","[1,1,1,0]",0,43,43,43,1,0,1,,,0,FALSE,,,,,,,,,,,,,,,,,,,,,,,,,,,,,,,
,610392e34a7b8ed05fe9ba56,627c753c7c60c75250410889,2022-05-11_21h47.38.964,classification_task,2021.2.3,MacIntel,59.99880002,627c6715c52fd12f31907bd0,,,,,,,,,,,,,,,,,,,,,,,l,0,0.5517,"[""0.026"",""0.430"",""0.876"",""0.968""]","[0,1,1,1]",0,44,44,44,1,0,1,,,0,FALSE,,,,,,,,,,,,,,,,,,,,,,,,,,,,,,,
,610392e34a7b8ed05fe9ba56,627c753c7c60c75250410889,2022-05-11_21h47.38.964,classification_task,2021.2.3,MacIntel,59.99880002,627c6715c52fd12f31907bd0,,,,,,,,,,,,,,,,,,,,,,,a,1,0.4825,"[""0.187"",""0.638"",""0.876"",""0.968""]","[1,0,1,1]",0,45,45,45,1,0,1,,,0,FALSE,,,,,,,,,,,,,,,,,,,,,,,,,,,,,,,
,610392e34a7b8ed05fe9ba56,627c753c7c60c75250410889,2022-05-11_21h47.38.964,classification_task,2021.2.3,MacIntel,59.99880002,627c6715c52fd12f31907bd0,,,,,,,,,,,,,,,,,,,,,,,a,0,0.6506,"[""0.036"",""0.386"",""0.579"",""0.818""]","[0,1,1,1]",0,46,46,46,1,1,1,,,0,FALSE,,,,,,,,,,,,,,,,,,,,,,,,,,,,,,,
,610392e34a7b8ed05fe9ba56,627c753c7c60c75250410889,2022-05-11_21h47.38.964,classification_task,2021.2.3,MacIntel,59.99880002,627c6715c52fd12f31907bd0,,,,,,,,,,,,,,,,,,,,,,,l,0,0.4846,"[""0.187"",""0.430"",""0.638"",""0.968""]","[1,1,0,1]",0,47,47,47,1,0,1,,,0,FALSE,,,,,,,,,,,,,,,,,,,,,,,,,,,,,,,
,610392e34a7b8ed05fe9ba56,627c753c7c60c75250410889,2022-05-11_21h47.38.964,classification_task,2021.2.3,MacIntel,59.99880002,627c6715c52fd12f31907bd0,,,,,,,,,,,,,,,,,,,,,,,a,1,1.2637,"[""0.627"",""0.334"",""0.770"",""0.910""]","[0,1,1,1]",0,48,48,48,1,0,0,,,0,FALSE,,,,,,,,,,,,,,,,,,,,,,,,,,,,,,,
,610392e34a7b8ed05fe9ba56,627c753c7c60c75250410889,2022-05-11_21h47.38.964,classification_task,2021.2.3,MacIntel,59.99880002,627c6715c52fd12f31907bd0,,,,,,,,,,,,,,,,,,,,,,,a,1,0.7145,"[""0.237"",""0.334"",""0.627"",""0.910""]","[1,1,0,1]",0,49,49,49,1,0,0,,,0,FALSE,,,,,,,,,,,,,,,,,,,,,,,,,,,,,,,
,610392e34a7b8ed05fe9ba56,627c753c7c60c75250410889,2022-05-11_21h47.38.964,classification_task,2021.2.3,MacIntel,59.99880002,627c6715c52fd12f31907bd0,,,,,,,,,,,,,,,,,,,,,,,a,1,0.863,"[""0.047"",""0.430"",""0.876"",""0.968""]","[0,1,1,1]",0,50,50,50,1,0,1,,,0,FALSE,,,,,,,,,,,,,,,,,,,,,,,,,,,,,,,
,610392e34a7b8ed05fe9ba56,627c753c7c60c75250410889,2022-05-11_21h47.38.964,classification_task,2021.2.3,MacIntel,59.99880002,627c6715c52fd12f31907bd0,,,,,,,,,,,,,,,,,,,,,,,a,1,0.5638,"[""0.187"",""0.430"",""0.876"",""0.026""]","[1,1,1,0]",0,51,51,51,1,0,1,,,0,FALSE,,,,,,,,,,,,,,,,,,,,,,,,,,,,,,,
,610392e34a7b8ed05fe9ba56,627c753c7c60c75250410889,2022-05-11_21h47.38.964,classification_task,2021.2.3,MacIntel,59.99880002,627c6715c52fd12f31907bd0,,,,,,,,,,,,,,,,,,,,,,,l,1,1.9575,"[""0.142"",""0.643"",""0.500"",""0.709""]","[1,0,1,1]",0,52,52,52,1,1,0,,,0,FALSE,,,,,,,,,,,,,,,,,,,,,,,,,,,,,,,
,610392e34a7b8ed05fe9ba56,627c753c7c60c75250410889,2022-05-11_21h47.38.964,classification_task,2021.2.3,MacIntel,59.99880002,627c6715c52fd12f31907bd0,,,,,,,,,,,,,,,,,,,,,,,a,0,0.6848,"[""0.108"",""0.386"",""0.052"",""0.818""]","[1,1,0,1]",0,53,53,53,1,1,1,,,0,FALSE,,,,,,,,,,,,,,,,,,,,,,,,,,,,,,,
,610392e34a7b8ed05fe9ba56,627c753c7c60c75250410889,2022-05-11_21h47.38.964,classification_task,2021.2.3,MacIntel,59.99880002,627c6715c52fd12f31907bd0,,,,,,,,,,,,,,,,,,,,,,,l,0,0.3685,"[""0.187"",""0.643"",""0.876"",""0.968""]","[1,0,1,1]",0,54,54,54,1,0,1,,,0,FALSE,,,,,,,,,,,,,,,,,,,,,,,,,,,,,,,
,610392e34a7b8ed05fe9ba56,627c753c7c60c75250410889,2022-05-11_21h47.38.964,classification_task,2021.2.3,MacIntel,59.99880002,627c6715c52fd12f31907bd0,,,,,,,,,,,,,,,,,,,,,,,a,1,0.8314,"[""0.237"",""0.646"",""0.770"",""0.910""]","[1,0,1,1]",0,55,55,55,1,0,0,,,0,FALSE,,,,,,,,,,,,,,,,,,,,,,,,,,,,,,,
,610392e34a7b8ed05fe9ba56,627c753c7c60c75250410889,2022-05-11_21h47.38.964,classification_task,2021.2.3,MacIntel,59.99880002,627c6715c52fd12f31907bd0,,,,,,,,,,,,,,,,,,,,,,,a,0,1.1897,"[""0.052"",""0.386"",""0.579"",""0.818""]","[0,1,1,1]",0,56,56,56,1,1,1,,,0,FALSE,,,,,,,,,,,,,,,,,,,,,,,,,,,,,,,
,610392e34a7b8ed05fe9ba56,627c753c7c60c75250410889,2022-05-11_21h47.38.964,classification_task,2021.2.3,MacIntel,59.99880002,627c6715c52fd12f31907bd0,,,,,,,,,,,,,,,,,,,,,,,a,1,1.3332,"[""0.187"",""0.430"",""0.026"",""0.968""]","[1,1,0,1]",0,57,57,57,1,0,1,,,0,FALSE,,,,,,,,,,,,,,,,,,,,,,,,,,,,,,,
,610392e34a7b8ed05fe9ba56,627c753c7c60c75250410889,2022-05-11_21h47.38.964,classification_task,2021.2.3,MacIntel,59.99880002,627c6715c52fd12f31907bd0,,,,,,,,,,,,,,,,,,,,,,,l,1,0.684,"[""0.042"",""0.297"",""0.500"",""0.709""]","[0,1,1,1]",0,58,58,58,1,1,0,,,0,FALSE,,,,,,,,,,,,,,,,,,,,,,,,,,,,,,,
,610392e34a7b8ed05fe9ba56,627c753c7c60c75250410889,2022-05-11_21h47.38.964,classification_task,2021.2.3,MacIntel,59.99880002,627c6715c52fd12f31907bd0,,,,,,,,,,,,,,,,,,,,,,,a,1,0.5823,"[""0.237"",""0.334"",""0.770"",""0.627""]","[1,1,1,0]",0,59,59,59,1,0,0,,,0,FALSE,,,,,,,,,,,,,,,,,,,,,,,,,,,,,,,
,610392e34a7b8ed05fe9ba56,627c753c7c60c75250410889,2022-05-11_21h47.38.964,classification_task,2021.2.3,MacIntel,59.99880002,627c6715c52fd12f31907bd0,,,,,,,,,,,,,,,,,,,,,,,l,1,1.0775,"[""0.108"",""0.386"",""0.579"",""0.058""]","[1,1,1,0]",0,60,60,60,1,1,1,,,0,FALSE,,,,,,,,,,,,,,,,,,,,,,,,,,,,,,,
,610392e34a7b8ed05fe9ba56,627c753c7c60c75250410889,2022-05-11_21h47.38.964,classification_task,2021.2.3,MacIntel,59.99880002,627c6715c52fd12f31907bd0,,,,,,,,,,,,,,,,,,,,,,,a,0,0.844,"[""0.142"",""0.297"",""0.058"",""0.709""]","[1,1,0,1]",0,61,61,61,1,1,0,,,0,FALSE,,,,,,,,,,,,,,,,,,,,,,,,,,,,,,,
,610392e34a7b8ed05fe9ba56,627c753c7c60c75250410889,2022-05-11_21h47.38.964,classification_task,2021.2.3,MacIntel,59.99880002,627c6715c52fd12f31907bd0,,,,,,,,,,,,,,,,,,,,,,,l,1,0.9998,"[""0.142"",""0.297"",""0.500"",""0.052""]","[1,1,1,0]",0,62,62,62,1,1,0,,,0,FALSE,,,,,,,,,,,,,,,,,,,,,,,,,,,,,,,
,610392e34a7b8ed05fe9ba56,627c753c7c60c75250410889,2022-05-11_21h47.38.964,classification_task,2021.2.3,MacIntel,59.99880002,627c6715c52fd12f31907bd0,,,,,,,,,,,,,,,,,,,,,,,l,1,0.5816,"[""0.108"",""0.644"",""0.579"",""0.818""]","[1,0,1,1]",0,63,63,63,1,1,1,,,0,FALSE,,,,,,,,,,,,,,,,,,,,,,,,,,,,,,,
,610392e34a7b8ed05fe9ba56,627c753c7c60c75250410889,2022-05-11_21h47.38.964,classification_task,2021.2.3,MacIntel,59.99880002,627c6715c52fd12f31907bd0,,,,,,,,,,,,,,,,,,,,,,,,,,,,,,,,,,,,,,,0, ,,0,4.880078285,148.2614,0,1,1,1,1,2,2,,,,,,,,,,,,,,,,,,
,610392e34a7b8ed05fe9ba56,627c753c7c60c75250410889,2022-05-11_21h47.38.964,classification_task,2021.2.3,MacIntel,59.99880002,627c6715c52fd12f31907bd0,,,,,,,,,,,,,,,,,,,,,,,,,,,,,,,,,,,,,,,1,  ,,0,1.608093866,144.7809,0,1,1,1,1,2,2,,,,,,,,,,,,,,,,,,
,610392e34a7b8ed05fe9ba56,627c753c7c60c75250410889,2022-05-11_21h47.38.964,classification_task,2021.2.3,MacIntel,59.99880002,627c6715c52fd12f31907bd0,,,,,,,,,,,,,,,,,,,,,,,,,,,,,,,,,,,,,,,2,  ,,0,0.64883581,143.7414,0,1,1,1,1,2,2,,,,,,,,,,,,,,,,,,
,610392e34a7b8ed05fe9ba56,627c753c7c60c75250410889,2022-05-11_21h47.38.964,classification_task,2021.2.3,MacIntel,59.99880002,627c6715c52fd12f31907bd0,,,,,,,,,,,,,,,,,,,,,,,,,,,,,,,,,,,,,,,,,,,,,0,1,1,1,1,,2,,,,,,,,,,,,,,,,,,
,610392e34a7b8ed05fe9ba56,627c753c7c60c75250410889,2022-05-11_21h47.38.964,classification_task,2021.2.3,MacIntel,59.99880002,627c6715c52fd12f31907bd0,,,,,,,,,,,,,,,,,,,,,space,7.7503,a,1,1.7213,"[""0.237"",""0.042"",""0.770"",""0.910""]","[1,0,1,1]",0,0,0,0,1,0,0,,,0,FALSE,,,,,,,,,,,,,,,,,,,,,,,,,,,,,,,
,610392e34a7b8ed05fe9ba56,627c753c7c60c75250410889,2022-05-11_21h47.38.964,classification_task,2021.2.3,MacIntel,59.99880002,627c6715c52fd12f31907bd0,,,,,,,,,,,,,,,,,,,,,,,a,0,0.9823,"[""0.142"",""0.047"",""0.500"",""0.709""]","[1,0,1,1]",0,1,1,1,1,1,0,,,0,FALSE,,,,,,,,,,,,,,,,,,,,,,,,,,,,,,,
,610392e34a7b8ed05fe9ba56,627c753c7c60c75250410889,2022-05-11_21h47.38.964,classification_task,2021.2.3,MacIntel,59.99880002,627c6715c52fd12f31907bd0,,,,,,,,,,,,,,,,,,,,,,,l,1,0.2997,"[""0.108"",""0.386"",""0.579"",""0.638""]","[1,1,1,0]",0,2,2,2,1,1,1,,,0,FALSE,,,,,,,,,,,,,,,,,,,,,,,,,,,,,,,
,610392e34a7b8ed05fe9ba56,627c753c7c60c75250410889,2022-05-11_21h47.38.964,classification_task,2021.2.3,MacIntel,59.99880002,627c6715c52fd12f31907bd0,,,,,,,,,,,,,,,,,,,,,,,a,0,0.2359,"[""0.142"",""0.297"",""0.036"",""0.709""]","[1,1,0,1]",0,3,3,3,1,1,0,,,0,FALSE,,,,,,,,,,,,,,,,,,,,,,,,,,,,,,,
,610392e34a7b8ed05fe9ba56,627c753c7c60c75250410889,2022-05-11_21h47.38.964,classification_task,2021.2.3,MacIntel,59.99880002,627c6715c52fd12f31907bd0,,,,,,,,,,,,,,,,,,,,,,,l,0,0.2837,"[""0.237"",""0.334"",""0.770"",""0.047""]","[1,1,1,0]",0,4,4,4,1,0,0,,,0,FALSE,,,,,,,,,,,,,,,,,,,,,,,,,,,,,,,
,610392e34a7b8ed05fe9ba56,627c753c7c60c75250410889,2022-05-11_21h47.38.964,classification_task,2021.2.3,MacIntel,59.99880002,627c6715c52fd12f31907bd0,,,,,,,,,,,,,,,,,,,,,,,l,1,0.3004,"[""0.142"",""0.297"",""0.500"",""0.644""]","[1,1,1,0]",0,5,5,5,1,1,0,,,0,FALSE,,,,,,,,,,,,,,,,,,,,,,,,,,,,,,,
,610392e34a7b8ed05fe9ba56,627c753c7c60c75250410889,2022-05-11_21h47.38.964,classification_task,2021.2.3,MacIntel,59.99880002,627c6715c52fd12f31907bd0,,,,,,,,,,,,,,,,,,,,,,,a,1,0.8495,"[""0.627"",""0.430"",""0.876"",""0.968""]","[0,1,1,1]",0,6,6,6,1,0,1,,,0,FALSE,,,,,,,,,,,,,,,,,,,,,,,,,,,,,,,
,610392e34a7b8ed05fe9ba56,627c753c7c60c75250410889,2022-05-11_21h47.38.964,classification_task,2021.2.3,MacIntel,59.99880002,627c6715c52fd12f31907bd0,,,,,,,,,,,,,,,,,,,,,,,l,0,0.8201,"[""0.237"",""0.334"",""0.047"",""0.910""]","[1,1,0,1]",0,7,7,7,1,0,0,,,0,FALSE,,,,,,,,,,,,,,,,,,,,,,,,,,,,,,,
,610392e34a7b8ed05fe9ba56,627c753c7c60c75250410889,2022-05-11_21h47.38.964,classification_task,2021.2.3,MacIntel,59.99880002,627c6715c52fd12f31907bd0,,,,,,,,,,,,,,,,,,,,,,,a,0,0.6353,"[""0.027"",""0.386"",""0.579"",""0.818""]","[0,1,1,1]",0,8,8,8,1,1,1,,,0,FALSE,,,,,,,,,,,,,,,,,,,,,,,,,,,,,,,
,610392e34a7b8ed05fe9ba56,627c753c7c60c75250410889,2022-05-11_21h47.38.964,classification_task,2021.2.3,MacIntel,59.99880002,627c6715c52fd12f31907bd0,,,,,,,,,,,,,,,,,,,,,,,a,0,0.4495,"[""0.643"",""0.297"",""0.500"",""0.709""]","[0,1,1,1]",0,9,9,9,1,1,0,,,0,FALSE,,,,,,,,,,,,,,,,,,,,,,,,,,,,,,,
,610392e34a7b8ed05fe9ba56,627c753c7c60c75250410889,2022-05-11_21h47.38.964,classification_task,2021.2.3,MacIntel,59.99880002,627c6715c52fd12f31907bd0,,,,,,,,,,,,,,,,,,,,,,,l,0,0.7166,"[""0.187"",""0.430"",""0.876"",""0.026""]","[1,1,1,0]",0,10,10,10,1,0,1,,,0,FALSE,,,,,,,,,,,,,,,,,,,,,,,,,,,,,,,
,610392e34a7b8ed05fe9ba56,627c753c7c60c75250410889,2022-05-11_21h47.38.964,classification_task,2021.2.3,MacIntel,59.99880002,627c6715c52fd12f31907bd0,,,,,,,,,,,,,,,,,,,,,,,l,1,0.3647,"[""0.108"",""0.386"",""0.627"",""0.818""]","[1,1,0,1]",0,11,11,11,1,1,1,,,0,FALSE,,,,,,,,,,,,,,,,,,,,,,,,,,,,,,,
,610392e34a7b8ed05fe9ba56,627c753c7c60c75250410889,2022-05-11_21h47.38.964,classification_task,2021.2.3,MacIntel,59.99880002,627c6715c52fd12f31907bd0,,,,,,,,,,,,,,,,,,,,,,,a,1,0.2179,"[""0.027"",""0.334"",""0.770"",""0.910""]","[0,1,1,1]",0,12,12,12,1,0,0,,,0,FALSE,,,,,,,,,,,,,,,,,,,,,,,,,,,,,,,
,610392e34a7b8ed05fe9ba56,627c753c7c60c75250410889,2022-05-11_21h47.38.964,classification_task,2021.2.3,MacIntel,59.99880002,627c6715c52fd12f31907bd0,,,,,,,,,,,,,,,,,,,,,,,l,0,0.6163,"[""0.187"",""0.430"",""0.027"",""0.968""]","[1,1,0,1]",0,13,13,13,1,0,1,,,0,FALSE,,,,,,,,,,,,,,,,,,,,,,,,,,,,,,,
,610392e34a7b8ed05fe9ba56,627c753c7c60c75250410889,2022-05-11_21h47.38.964,classification_task,2021.2.3,MacIntel,59.99880002,627c6715c52fd12f31907bd0,,,,,,,,,,,,,,,,,,,,,,,a,0,0.349,"[""0.108"",""0.026"",""0.579"",""0.818""]","[1,0,1,1]",0,14,14,14,1,1,1,,,0,FALSE,,,,,,,,,,,,,,,,,,,,,,,,,,,,,,,
,610392e34a7b8ed05fe9ba56,627c753c7c60c75250410889,2022-05-11_21h47.38.964,classification_task,2021.2.3,MacIntel,59.99880002,627c6715c52fd12f31907bd0,,,,,,,,,,,,,,,,,,,,,,,l,0,0.3173,"[""0.187"",""0.646"",""0.876"",""0.968""]","[1,0,1,1]",0,15,15,15,1,0,1,,,0,FALSE,,,,,,,,,,,,,,,,,,,,,,,,,,,,,,,
,610392e34a7b8ed05fe9ba56,627c753c7c60c75250410889,2022-05-11_21h47.38.964,classification_task,2021.2.3,MacIntel,59.99880002,627c6715c52fd12f31907bd0,,,,,,,,,,,,,,,,,,,,,,,a,1,0.6826,"[""0.237"",""0.334"",""0.042"",""0.910""]","[1,1,0,1]",0,16,16,16,1,0,0,,,0,FALSE,,,,,,,,,,,,,,,,,,,,,,,,,,,,,,,
,610392e34a7b8ed05fe9ba56,627c753c7c60c75250410889,2022-05-11_21h47.38.964,classification_task,2021.2.3,MacIntel,59.99880002,627c6715c52fd12f31907bd0,,,,,,,,,,,,,,,,,,,,,,,l,1,1.4544,"[""0.142"",""0.047"",""0.500"",""0.709""]","[1,0,1,1]",0,17,17,17,1,1,0,,,0,FALSE,,,,,,,,,,,,,,,,,,,,,,,,,,,,,,,
,610392e34a7b8ed05fe9ba56,627c753c7c60c75250410889,2022-05-11_21h47.38.964,classification_task,2021.2.3,MacIntel,59.99880002,627c6715c52fd12f31907bd0,,,,,,,,,,,,,,,,,,,,,,,a,1,2.4165,"[""0.237"",""0.036"",""0.770"",""0.910""]","[1,0,1,1]",0,18,18,18,1,0,0,,,0,FALSE,,,,,,,,,,,,,,,,,,,,,,,,,,,,,,,
,610392e34a7b8ed05fe9ba56,627c753c7c60c75250410889,2022-05-11_21h47.38.964,classification_task,2021.2.3,MacIntel,59.99880002,627c6715c52fd12f31907bd0,,,,,,,,,,,,,,,,,,,,,,,a,1,0.8716,"[""0.047"",""0.430"",""0.876"",""0.968""]","[0,1,1,1]",0,19,19,19,1,0,1,,,0,FALSE,,,,,,,,,,,,,,,,,,,,,,,,,,,,,,,
,610392e34a7b8ed05fe9ba56,627c753c7c60c75250410889,2022-05-11_21h47.38.964,classification_task,2021.2.3,MacIntel,59.99880002,627c6715c52fd12f31907bd0,,,,,,,,,,,,,,,,,,,,,,,a,0,0.7701,"[""0.142"",""0.297"",""0.638"",""0.709""]","[1,1,0,1]",0,20,20,20,1,1,0,,,0,FALSE,,,,,,,,,,,,,,,,,,,,,,,,,,,,,,,
,610392e34a7b8ed05fe9ba56,627c753c7c60c75250410889,2022-05-11_21h47.38.964,classification_task,2021.2.3,MacIntel,59.99880002,627c6715c52fd12f31907bd0,,,,,,,,,,,,,,,,,,,,,,,a,1,1.114,"[""0.187"",""0.643"",""0.876"",""0.968""]","[1,0,1,1]",0,21,21,21,1,0,1,,,0,FALSE,,,,,,,,,,,,,,,,,,,,,,,,,,,,,,,
,610392e34a7b8ed05fe9ba56,627c753c7c60c75250410889,2022-05-11_21h47.38.964,classification_task,2021.2.3,MacIntel,59.99880002,627c6715c52fd12f31907bd0,,,,,,,,,,,,,,,,,,,,,,,l,1,1.2495,"[""0.027"",""0.386"",""0.579"",""0.818""]","[0,1,1,1]",0,22,22,22,1,1,1,,,0,FALSE,,,,,,,,,,,,,,,,,,,,,,,,,,,,,,,
,610392e34a7b8ed05fe9ba56,627c753c7c60c75250410889,2022-05-11_21h47.38.964,classification_task,2021.2.3,MacIntel,59.99880002,627c6715c52fd12f31907bd0,,,,,,,,,,,,,,,,,,,,,,,l,0,1.1303,"[""0.187"",""0.430"",""0.876"",""0.644""]","[1,1,1,0]",0,23,23,23,1,0,1,,,0,FALSE,,,,,,,,,,,,,,,,,,,,,,,,,,,,,,,
,610392e34a7b8ed05fe9ba56,627c753c7c60c75250410889,2022-05-11_21h47.38.964,classification_task,2021.2.3,MacIntel,59.99880002,627c6715c52fd12f31907bd0,,,,,,,,,,,,,,,,,,,,,,,a,0,1.1674,"[""0.026"",""0.297"",""0.500"",""0.709""]","[0,1,1,1]",0,24,24,24,1,1,0,,,0,FALSE,,,,,,,,,,,,,,,,,,,,,,,,,,,,,,,
,610392e34a7b8ed05fe9ba56,627c753c7c60c75250410889,2022-05-11_21h47.38.964,classification_task,2021.2.3,MacIntel,59.99880002,627c6715c52fd12f31907bd0,,,,,,,,,,,,,,,,,,,,,,,a,0,0.9497,"[""0.108"",""0.052"",""0.579"",""0.818""]","[1,0,1,1]",0,25,25,25,1,1,1,,,0,FALSE,,,,,,,,,,,,,,,,,,,,,,,,,,,,,,,
,610392e34a7b8ed05fe9ba56,627c753c7c60c75250410889,2022-05-11_21h47.38.964,classification_task,2021.2.3,MacIntel,59.99880002,627c6715c52fd12f31907bd0,,,,,,,,,,,,,,,,,,,,,,,a,0,1.0479,"[""0.142"",""0.297"",""0.500"",""0.052""]","[1,1,1,0]",0,26,26,26,1,1,0,,,0,FALSE,,,,,,,,,,,,,,,,,,,,,,,,,,,,,,,
,610392e34a7b8ed05fe9ba56,627c753c7c60c75250410889,2022-05-11_21h47.38.964,classification_task,2021.2.3,MacIntel,59.99880002,627c6715c52fd12f31907bd0,,,,,,,,,,,,,,,,,,,,,,,a,0,1.066,"[""0.108"",""0.386"",""0.579"",""0.638""]","[1,1,1,0]",0,27,27,27,1,1,1,,,0,FALSE,,,,,,,,,,,,,,,,,,,,,,,,,,,,,,,
,610392e34a7b8ed05fe9ba56,627c753c7c60c75250410889,2022-05-11_21h47.38.964,classification_task,2021.2.3,MacIntel,59.99880002,627c6715c52fd12f31907bd0,,,,,,,,,,,,,,,,,,,,,,,a,1,1.0655,"[""0.187"",""0.430"",""0.058"",""0.968""]","[1,1,0,1]",0,28,28,28,1,0,1,,,0,FALSE,,,,,,,,,,,,,,,,,,,,,,,,,,,,,,,
,610392e34a7b8ed05fe9ba56,627c753c7c60c75250410889,2022-05-11_21h47.38.964,classification_task,2021.2.3,MacIntel,59.99880002,627c6715c52fd12f31907bd0,,,,,,,,,,,,,,,,,,,,,,,a,1,2.0499,"[""0.627"",""0.334"",""0.770"",""0.910""]","[0,1,1,1]",0,29,29,29,1,0,0,,,0,FALSE,,,,,,,,,,,,,,,,,,,,,,,,,,,,,,,
,610392e34a7b8ed05fe9ba56,627c753c7c60c75250410889,2022-05-11_21h47.38.964,classification_task,2021.2.3,MacIntel,59.99880002,627c6715c52fd12f31907bd0,,,,,,,,,,,,,,,,,,,,,,,l,1,1.0395,"[""0.108"",""0.386"",""0.652"",""0.818""]","[1,1,0,1]",0,30,30,30,1,1,1,,,0,FALSE,,,,,,,,,,,,,,,,,,,,,,,,,,,,,,,
,610392e34a7b8ed05fe9ba56,627c753c7c60c75250410889,2022-05-11_21h47.38.964,classification_task,2021.2.3,MacIntel,59.99880002,627c6715c52fd12f31907bd0,,,,,,,,,,,,,,,,,,,,,,,l,0,1.4367,"[""0.237"",""0.334"",""0.770"",""0.644""]","[1,1,1,0]",0,31,31,31,1,0,0,,,0,FALSE,,,,,,,,,,,,,,,,,,,,,,,,,,,,,,,
,610392e34a7b8ed05fe9ba56,627c753c7c60c75250410889,2022-05-11_21h47.38.964,classification_task,2021.2.3,MacIntel,59.99880002,627c6715c52fd12f31907bd0,,,,,,,,,,,,,,,,,,,,,,,l,1,1.585,"[""0.652"",""0.297"",""0.500"",""0.709""]","[0,1,1,1]",0,32,32,32,1,1,0,,,0,FALSE,,,,,,,,,,,,,,,,,,,,,,,,,,,,,,,
,610392e34a7b8ed05fe9ba56,627c753c7c60c75250410889,2022-05-11_21h47.38.964,classification_task,2021.2.3,MacIntel,59.99880002,627c6715c52fd12f31907bd0,,,,,,,,,,,,,,,,,,,,,,,l,1,1.4839,"[""0.027"",""0.386"",""0.579"",""0.818""]","[0,1,1,1]",0,33,33,33,1,1,1,,,0,FALSE,,,,,,,,,,,,,,,,,,,,,,,,,,,,,,,
,610392e34a7b8ed05fe9ba56,627c753c7c60c75250410889,2022-05-11_21h47.38.964,classification_task,2021.2.3,MacIntel,59.99880002,627c6715c52fd12f31907bd0,,,,,,,,,,,,,,,,,,,,,,,a,0,0.795,"[""0.142"",""0.297"",""0.052"",""0.709""]","[1,1,0,1]",0,34,34,34,1,1,0,,,0,FALSE,,,,,,,,,,,,,,,,,,,,,,,,,,,,,,,
,610392e34a7b8ed05fe9ba56,627c753c7c60c75250410889,2022-05-11_21h47.38.964,classification_task,2021.2.3,MacIntel,59.99880002,627c6715c52fd12f31907bd0,,,,,,,,,,,,,,,,,,,,,,,l,0,1.0808,"[""0.187"",""0.026"",""0.876"",""0.968""]","[1,0,1,1]",0,35,35,35,1,0,1,,,0,FALSE,,,,,,,,,,,,,,,,,,,,,,,,,,,,,,,
,610392e34a7b8ed05fe9ba56,627c753c7c60c75250410889,2022-05-11_21h47.38.964,classification_task,2021.2.3,MacIntel,59.99880002,627c6715c52fd12f31907bd0,,,,,,,,,,,,,,,,,,,,,,,a,0,0.8337,"[""0.108"",""0.386"",""0.039"",""0.818""]","[1,1,0,1]",0,36,36,36,1,1,1,,,0,FALSE,,,,,,,,,,,,,,,,,,,,,,,,,,,,,,,
,610392e34a7b8ed05fe9ba56,627c753c7c60c75250410889,2022-05-11_21h47.38.964,classification_task,2021.2.3,MacIntel,59.99880002,627c6715c52fd12f31907bd0,,,,,,,,,,,,,,,,,,,,,,,l,0,2.7851,"[""0.643"",""0.430"",""0.876"",""0.968""]","[0,1,1,1]",0,37,37,37,1,0,1,,,0,FALSE,,,,,,,,,,,,,,,,,,,,,,,,,,,,,,,
,610392e34a7b8ed05fe9ba56,627c753c7c60c75250410889,2022-05-11_21h47.38.964,classification_task,2021.2.3,MacIntel,59.99880002,627c6715c52fd12f31907bd0,,,,,,,,,,,,,,,,,,,,,,,l,0,1.6675,"[""0.187"",""0.430"",""0.545"",""0.968""]","[1,1,0,1]",0,38,38,38,1,0,1,,,0,FALSE,,,,,,,,,,,,,,,,,,,,,,,,,,,,,,,
,610392e34a7b8ed05fe9ba56,627c753c7c60c75250410889,2022-05-11_21h47.38.964,classification_task,2021.2.3,MacIntel,59.99880002,627c6715c52fd12f31907bd0,,,,,,,,,,,,,,,,,,,,,,,a,1,1.8075,"[""0.545"",""0.334"",""0.770"",""0.910""]","[0,1,1,1]",0,39,39,39,1,0,0,,,0,FALSE,,,,,,,,,,,,,,,,,,,,,,,,,,,,,,,
,610392e34a7b8ed05fe9ba56,627c753c7c60c75250410889,2022-05-11_21h47.38.964,classification_task,2021.2.3,MacIntel,59.99880002,627c6715c52fd12f31907bd0,,,,,,,,,,,,,,,,,,,,,,,a,1,0.9366,"[""0.237"",""0.334"",""0.770"",""0.644""]","[1,1,1,0]",0,40,40,40,1,0,0,,,0,FALSE,,,,,,,,,,,,,,,,,,,,,,,,,,,,,,,
,610392e34a7b8ed05fe9ba56,627c753c7c60c75250410889,2022-05-11_21h47.38.964,classification_task,2021.2.3,MacIntel,59.99880002,627c6715c52fd12f31907bd0,,,,,,,,,,,,,,,,,,,,,,,a,0,0.6018,"[""0.142"",""0.297"",""0.500"",""0.052""]","[1,1,1,0]",0,41,41,41,1,1,0,,,0,FALSE,,,,,,,,,,,,,,,,,,,,,,,,,,,,,,,
,610392e34a7b8ed05fe9ba56,627c753c7c60c75250410889,2022-05-11_21h47.38.964,classification_task,2021.2.3,MacIntel,59.99880002,627c6715c52fd12f31907bd0,,,,,,,,,,,,,,,,,,,,,,,l,1,1.3334,"[""0.108"",""0.036"",""0.579"",""0.818""]","[1,0,1,1]",0,42,42,42,1,1,1,,,0,FALSE,,,,,,,,,,,,,,,,,,,,,,,,,,,,,,,
,610392e34a7b8ed05fe9ba56,627c753c7c60c75250410889,2022-05-11_21h47.38.964,classification_task,2021.2.3,MacIntel,59.99880002,627c6715c52fd12f31907bd0,,,,,,,,,,,,,,,,,,,,,,,a,1,0.4321,"[""0.237"",""0.334"",""0.652"",""0.910""]","[1,1,0,1]",0,43,43,43,1,0,0,,,0,FALSE,,,,,,,,,,,,,,,,,,,,,,,,,,,,,,,
,610392e34a7b8ed05fe9ba56,627c753c7c60c75250410889,2022-05-11_21h47.38.964,classification_task,2021.2.3,MacIntel,59.99880002,627c6715c52fd12f31907bd0,,,,,,,,,,,,,,,,,,,,,,,l,0,0.6487,"[""0.187"",""0.430"",""0.876"",""0.652""]","[1,1,1,0]",0,44,44,44,1,0,1,,,0,FALSE,,,,,,,,,,,,,,,,,,,,,,,,,,,,,,,
,610392e34a7b8ed05fe9ba56,627c753c7c60c75250410889,2022-05-11_21h47.38.964,classification_task,2021.2.3,MacIntel,59.99880002,627c6715c52fd12f31907bd0,,,,,,,,,,,,,,,,,,,,,,,l,0,0.6999,"[""0.237"",""0.643"",""0.770"",""0.910""]","[1,0,1,1]",0,45,45,45,1,0,0,,,0,FALSE,,,,,,,,,,,,,,,,,,,,,,,,,,,,,,,
,610392e34a7b8ed05fe9ba56,627c753c7c60c75250410889,2022-05-11_21h47.38.964,classification_task,2021.2.3,MacIntel,59.99880002,627c6715c52fd12f31907bd0,,,,,,,,,,,,,,,,,,,,,,,l,1,0.4873,"[""0.142"",""0.638"",""0.500"",""0.709""]","[1,0,1,1]",0,46,46,46,1,1,0,,,0,FALSE,,,,,,,,,,,,,,,,,,,,,,,,,,,,,,,
,610392e34a7b8ed05fe9ba56,627c753c7c60c75250410889,2022-05-11_21h47.38.964,classification_task,2021.2.3,MacIntel,59.99880002,627c6715c52fd12f31907bd0,,,,,,,,,,,,,,,,,,,,,,,a,0,0.3664,"[""0.108"",""0.386"",""0.579"",""0.652""]","[1,1,1,0]",0,47,47,47,1,1,1,,,0,FALSE,,,,,,,,,,,,,,,,,,,,,,,,,,,,,,,
,610392e34a7b8ed05fe9ba56,627c753c7c60c75250410889,2022-05-11_21h47.38.964,classification_task,2021.2.3,MacIntel,59.99880002,627c6715c52fd12f31907bd0,,,,,,,,,,,,,,,,,,,,,,,l,1,0.3353,"[""0.142"",""0.027"",""0.500"",""0.709""]","[1,0,1,1]",0,48,48,48,1,1,0,,,0,FALSE,,,,,,,,,,,,,,,,,,,,,,,,,,,,,,,
,610392e34a7b8ed05fe9ba56,627c753c7c60c75250410889,2022-05-11_21h47.38.964,classification_task,2021.2.3,MacIntel,59.99880002,627c6715c52fd12f31907bd0,,,,,,,,,,,,,,,,,,,,,,,l,0,0.383,"[""0.237"",""0.334"",""0.770"",""0.039""]","[1,1,1,0]",0,49,49,49,1,0,0,,,0,FALSE,,,,,,,,,,,,,,,,,,,,,,,,,,,,,,,
,610392e34a7b8ed05fe9ba56,627c753c7c60c75250410889,2022-05-11_21h47.38.964,classification_task,2021.2.3,MacIntel,59.99880002,627c6715c52fd12f31907bd0,,,,,,,,,,,,,,,,,,,,,,,a,1,0.3991,"[""0.187"",""0.545"",""0.876"",""0.968""]","[1,0,1,1]",0,50,50,50,1,0,1,,,0,FALSE,,,,,,,,,,,,,,,,,,,,,,,,,,,,,,,
,610392e34a7b8ed05fe9ba56,627c753c7c60c75250410889,2022-05-11_21h47.38.964,classification_task,2021.2.3,MacIntel,59.99880002,627c6715c52fd12f31907bd0,,,,,,,,,,,,,,,,,,,,,,,a,1,0.516,"[""0.187"",""0.430"",""0.876"",""0.052""]","[1,1,1,0]",0,51,51,51,1,0,1,,,0,FALSE,,,,,,,,,,,,,,,,,,,,,,,,,,,,,,,
,610392e34a7b8ed05fe9ba56,627c753c7c60c75250410889,2022-05-11_21h47.38.964,classification_task,2021.2.3,MacIntel,59.99880002,627c6715c52fd12f31907bd0,,,,,,,,,,,,,,,,,,,,,,,a,1,0.449,"[""0.027"",""0.430"",""0.876"",""0.968""]","[0,1,1,1]",0,52,52,52,1,0,1,,,0,FALSE,,,,,,,,,,,,,,,,,,,,,,,,,,,,,,,
,610392e34a7b8ed05fe9ba56,627c753c7c60c75250410889,2022-05-11_21h47.38.964,classification_task,2021.2.3,MacIntel,59.99880002,627c6715c52fd12f31907bd0,,,,,,,,,,,,,,,,,,,,,,,l,0,1.1355,"[""0.039"",""0.334"",""0.770"",""0.910""]","[0,1,1,1]",0,53,53,53,1,0,0,,,0,FALSE,,,,,,,,,,,,,,,,,,,,,,,,,,,,,,,
,610392e34a7b8ed05fe9ba56,627c753c7c60c75250410889,2022-05-11_21h47.38.964,classification_task,2021.2.3,MacIntel,59.99880002,627c6715c52fd12f31907bd0,,,,,,,,,,,,,,,,,,,,,,,l,1,1.002,"[""0.142"",""0.297"",""0.500"",""0.026""]","[1,1,1,0]",0,54,54,54,1,1,0,,,0,FALSE,,,,,,,,,,,,,,,,,,,,,,,,,,,,,,,
,610392e34a7b8ed05fe9ba56,627c753c7c60c75250410889,2022-05-11_21h47.38.964,classification_task,2021.2.3,MacIntel,59.99880002,627c6715c52fd12f31907bd0,,,,,,,,,,,,,,,,,,,,,,,l,1,0.5845,"[""0.108"",""0.386"",""0.652"",""0.818""]","[1,1,0,1]",0,55,55,55,1,1,1,,,0,FALSE,,,,,,,,,,,,,,,,,,,,,,,,,,,,,,,
,610392e34a7b8ed05fe9ba56,627c753c7c60c75250410889,2022-05-11_21h47.38.964,classification_task,2021.2.3,MacIntel,59.99880002,627c6715c52fd12f31907bd0,,,,,,,,,,,,,,,,,,,,,,,a,0,0.5704,"[""0.042"",""0.297"",""0.500"",""0.709""]","[0,1,1,1]",0,56,56,56,1,1,0,,,0,FALSE,,,,,,,,,,,,,,,,,,,,,,,,,,,,,,,
,610392e34a7b8ed05fe9ba56,627c753c7c60c75250410889,2022-05-11_21h47.38.964,classification_task,2021.2.3,MacIntel,59.99880002,627c6715c52fd12f31907bd0,,,,,,,,,,,,,,,,,,,,,,,l,0,0.5157,"[""0.187"",""0.430"",""0.545"",""0.968""]","[1,1,0,1]",0,57,57,57,1,0,1,,,0,FALSE,,,,,,,,,,,,,,,,,,,,,,,,,,,,,,,
,610392e34a7b8ed05fe9ba56,627c753c7c60c75250410889,2022-05-11_21h47.38.964,classification_task,2021.2.3,MacIntel,59.99880002,627c6715c52fd12f31907bd0,,,,,,,,,,,,,,,,,,,,,,,a,0,0.5846,"[""0.142"",""0.297"",""0.643"",""0.709""]","[1,1,0,1]",0,58,58,58,1,1,0,,,0,FALSE,,,,,,,,,,,,,,,,,,,,,,,,,,,,,,,
,610392e34a7b8ed05fe9ba56,627c753c7c60c75250410889,2022-05-11_21h47.38.964,classification_task,2021.2.3,MacIntel,59.99880002,627c6715c52fd12f31907bd0,,,,,,,,,,,,,,,,,,,,,,,a,0,0.9824,"[""0.047"",""0.386"",""0.579"",""0.818""]","[0,1,1,1]",0,59,59,59,1,1,1,,,0,FALSE,,,,,,,,,,,,,,,,,,,,,,,,,,,,,,,
,610392e34a7b8ed05fe9ba56,627c753c7c60c75250410889,2022-05-11_21h47.38.964,classification_task,2021.2.3,MacIntel,59.99880002,627c6715c52fd12f31907bd0,,,,,,,,,,,,,,,,,,,,,,,l,1,0.9329,"[""0.108"",""0.638"",""0.579"",""0.818""]","[1,0,1,1]",0,60,60,60,1,1,1,,,0,FALSE,,,,,,,,,,,,,,,,,,,,,,,,,,,,,,,
,610392e34a7b8ed05fe9ba56,627c753c7c60c75250410889,2022-05-11_21h47.38.964,classification_task,2021.2.3,MacIntel,59.99880002,627c6715c52fd12f31907bd0,,,,,,,,,,,,,,,,,,,,,,,a,0,1.0016,"[""0.108"",""0.386"",""0.579"",""0.646""]","[1,1,1,0]",0,61,61,61,1,1,1,,,0,FALSE,,,,,,,,,,,,,,,,,,,,,,,,,,,,,,,
,610392e34a7b8ed05fe9ba56,627c753c7c60c75250410889,2022-05-11_21h47.38.964,classification_task,2021.2.3,MacIntel,59.99880002,627c6715c52fd12f31907bd0,,,,,,,,,,,,,,,,,,,,,,,a,1,1.8,"[""0.237"",""0.042"",""0.770"",""0.910""]","[1,0,1,1]",0,62,62,62,1,0,0,,,0,FALSE,,,,,,,,,,,,,,,,,,,,,,,,,,,,,,,
,610392e34a7b8ed05fe9ba56,627c753c7c60c75250410889,2022-05-11_21h47.38.964,classification_task,2021.2.3,MacIntel,59.99880002,627c6715c52fd12f31907bd0,,,,,,,,,,,,,,,,,,,,,,,a,1,0.553,"[""0.237"",""0.334"",""0.027"",""0.910""]","[1,1,0,1]",0,63,63,63,1,0,0,,,0,FALSE,,,,,,,,,,,,,,,,,,,,,,,,,,,,,,,
,610392e34a7b8ed05fe9ba56,627c753c7c60c75250410889,2022-05-11_21h47.38.964,classification_task,2021.2.3,MacIntel,59.99880002,627c6715c52fd12f31907bd0,,,,,,,,,,,,,,,,,,,,,,,,,,,,,,,,,,,,,,,0, ,,0,3.703367275,142.6268,0,2,2,2,1,2,3,,,,,,,,,,,,,,,,,,
,610392e34a7b8ed05fe9ba56,627c753c7c60c75250410889,2022-05-11_21h47.38.964,classification_task,2021.2.3,MacIntel,59.99880002,627c6715c52fd12f31907bd0,,,,,,,,,,,,,,,,,,,,,,,,,,,,,,,,,,,,,,,1,  ,,0,0,136.6283,0,2,2,2,1,2,3,,,,,,,,,,,,,,,,,,
,610392e34a7b8ed05fe9ba56,627c753c7c60c75250410889,2022-05-11_21h47.38.964,classification_task,2021.2.3,MacIntel,59.99880002,627c6715c52fd12f31907bd0,,,,,,,,,,,,,,,,,,,,,,,,,,,,,,,,,,,,,,,2,  ,,0,5.229489078,137.6979,0,2,2,2,1,2,3,,,,,,,,,,,,,,,,,,
,610392e34a7b8ed05fe9ba56,627c753c7c60c75250410889,2022-05-11_21h47.38.964,classification_task,2021.2.3,MacIntel,59.99880002,627c6715c52fd12f31907bd0,,,,,,,,,,,,,,,,,,,,,,,,,,,,,,,,,,,,,,,,,,,,,0,2,2,2,1,,3,,,,,,,,,,,,,,,,,,
,610392e34a7b8ed05fe9ba56,627c753c7c60c75250410889,2022-05-11_21h47.38.964,classification_task,2021.2.3,MacIntel,59.99880002,627c6715c52fd12f31907bd0,,,,,,,,,,,,,,,,,,,,,,,,,,,,,,,,,,,,,,,,,,,,,,,,,,,,,I believe the aid is a competent performer,,0.7,0,3,1356.1819,0,0,0,0,1,0,,,,,
,610392e34a7b8ed05fe9ba56,627c753c7c60c75250410889,2022-05-11_21h47.38.964,classification_task,2021.2.3,MacIntel,59.99880002,627c6715c52fd12f31907bd0,,,,,,,,,,,,,,,,,,,,,,,,,,,,,,,,,,,,,,,,,,,,,,,,,,,,,I trust the aid,,0.7,0,5,1341.8098,0,0,0,0,1,0,,,,,
,610392e34a7b8ed05fe9ba56,627c753c7c60c75250410889,2022-05-11_21h47.38.964,classification_task,2021.2.3,MacIntel,59.99880002,627c6715c52fd12f31907bd0,,,,,,,,,,,,,,,,,,,,,,,,,,,,,,,,,,,,,,,,,,,,,,,,,,,,,I have confidence in the advice given by the aid,,0.7,0,2,1347.3257,0,0,0,0,1,0,,,,,
,610392e34a7b8ed05fe9ba56,627c753c7c60c75250410889,2022-05-11_21h47.38.964,classification_task,2021.2.3,MacIntel,59.99880002,627c6715c52fd12f31907bd0,,,,,,,,,,,,,,,,,,,,,,,,,,,,,,,,,,,,,,,,,,,,,,,,,,,,,I can depend on the aid,,0.7,0,4,1352.1249,0,0,0,0,1,0,,,,,
,610392e34a7b8ed05fe9ba56,627c753c7c60c75250410889,2022-05-11_21h47.38.964,classification_task,2021.2.3,MacIntel,59.99880002,627c6715c52fd12f31907bd0,,,,,,,,,,,,,,,,,,,,,,,,,,,,,,,,,,,,,,,,,,,,,,,,,,,,,I can rely on the aid to behave in consistent ways,,0.7,0,4,1353.1941,0,0,0,0,1,0,,,,,
,610392e34a7b8ed05fe9ba56,627c753c7c60c75250410889,2022-05-11_21h47.38.964,classification_task,2021.2.3,MacIntel,59.99880002,627c6715c52fd12f31907bd0,,,,,,,,,,,,,,,,,,,,,,,,,,,,,,,,,,,,,,,,,,,,,,,,,,,,,I can rely on the aid to do its best every time I take its advice,,0.7,0,5,1363.8365,0,0,0,0,1,0,,,,,
,610392e34a7b8ed05fe9ba56,627c753c7c60c75250410889,2022-05-11_21h47.38.964,classification_task,2021.2.3,MacIntel,59.99880002,627c6715c52fd12f31907bd0,,,,,,,,,,,,,,,,,,,,,,,,,,,,,,,,,,,,,,,,,,,,,,,,,,,,,"On trials you completed with assistance from the aid, how frequently did you think the aid was correct?",,0.7,0,95%,,0,0,0,0,1,0,,,,,
,610392e34a7b8ed05fe9ba56,627c753c7c60c75250410889,2022-05-11_21h47.38.964,classification_task,2021.2.3,MacIntel,59.99880002,627c6715c52fd12f31907bd0,,,,,,,,,,,,,,,,,,,,,,,,,,,,,,,,,,,,,,,,,,,,,,,,,,,,,"On trials you completed without the aid, how frequently did you think you were correct?",,0.7,0,25%,,0,0,0,0,1,0,,,,,
,610392e34a7b8ed05fe9ba56,627c753c7c60c75250410889,2022-05-11_21h47.38.964,classification_task,2021.2.3,MacIntel,59.99880002,627c6715c52fd12f31907bd0,,,,,,,,,,,,,,,,,,,,,,,,,,,,,,,,,,,,,,,,,,,,,,,,,,,,,,,,,,,0,0,0,0,1,,,,,,
,610392e34a7b8ed05fe9ba56,627c753c7c60c75250410889,2022-05-11_21h47.38.964,classification_task,2021.2.3,MacIntel,59.99880002,627c6715c52fd12f31907bd0,,,,,,,,,,,,,,,,,,,,,,,,,,,,,,,,,,,,,,,,,,,,,,,,,,,,,,,,,,,,,,,,,space,7.5854,1390.449,,
,610392e34a7b8ed05fe9ba56,627c753c7c60c75250410889,2022-05-11_21h47.38.964,classification_task,2021.2.3,MacIntel,59.99880002,627c6715c52fd12f31907bd0,,,,,,,,,,,,,,,,,,,,,,,,,,,,,,,,,,,,,,,,,,,,,,,,,,,,,,,,,,,,,,,,,,,,"Mozilla/5.0 (Macintosh; Intel Mac OS X 10_15_7) AppleWebKit/537.36 (KHTML, like Gecko) Chrome/101.0.4951.54 Safari/537.36",
,610392e34a7b8ed05fe9ba56,627c753c7c60c75250410889,2022-05-11_21h47.38.964,classification_task,2021.2.3,MacIntel,59.99880002,627c6715c52fd12f31907bd0,,,,,,,,,,,,,,,,,,,,,,,,,,,,,,,,,,,,,,,,,,,,,,,,,,,,,,,,,,,,,,,,,,,,,FADING
