usingWebGL,participant,session,date,expName,psychopyVersion,OS,frameRate,study_id,signatures_friend,signatures_foe,band_ranges_top,band_ranges_bottom,formitemText,formtype,formundefined,formitemWidth,formindex,formresponse,formrt,key_resp_2.keys,key_resp_2.rt,tute_resp.keys,tute_resp.rt,tutorial.thisRepN,tutorial.thisTrialN,tutorial.thisN,tutorial.thisIndex,tutorial.ran,key_resp_4.keys,key_resp_4.rt,key_resp.keys,key_resp.corr,key_resp.rt,lines_presented,is_signal_presented,trials.thisRepN,trials.thisTrialN,trials.thisN,trials.thisIndex,trials.ran,vessel,active_band,lines,is_signal,supported_pos,catch_trial,debrief_formindex,debrief_formitemText,debrief_formtype,debrief_formitemWidth,debrief_formresponse,debrief_formrt,phases.thisRepN,phases.thisTrialN,phases.thisN,phases.thisIndex,phases.ran,phases.order,phase,key_resp_3.keys,trustitemText,trusttype,trustitemWidth,trustindex,trustresponse,trustrt,support_status.thisRepN,support_status.thisTrialN,support_status.thisN,support_status.thisIndex,support_status.ran,support_status.order,key_resp_5.keys,key_resp_5.rt,globalClockTime,userAgent,manualCondition
TRUE,6103f6e09066149d3687c2bb,627c76204296e2272a3fc1c8,2022-05-12_04h52.01.815,classification_task,2021.2.3,Win32,59.99160118,627c6715c52fd12f31907bd0,,,,,,,,,,,,,,,,,,,,,,,,,,,,,,,,,,,,,,,,,,,,,,,,,,,,,,,,,,,,,,,,,,,,,
,6103f6e09066149d3687c2bb,627c76204296e2272a3fc1c8,2022-05-12_04h52.01.815,classification_task,2021.2.3,Win32,59.99160118,627c6715c52fd12f31907bd0,"[[""0.198"",""0.521"",""0.862"",""0.900""],[""0.246"",""0.428"",""0.624"",""0.957""]]","[[""0.084"",""0.125"",""0.463"",""0.814""],[""0.048"",""0.341"",""0.563"",""0.711""]]","[1,10]","[100,1000]",Video game experience,,,0.7,0,,,,,,,,,,,,,,,,,,,,,,,,,,,,,,,,,,,,,,,,,,,,,,,,,,,,,,,,,,,,
,6103f6e09066149d3687c2bb,627c76204296e2272a3fc1c8,2022-05-12_04h52.01.815,classification_task,2021.2.3,Win32,59.99160118,627c6715c52fd12f31907bd0,,,,,Approximately how many hours did you spend playing video games in the last week?,,,0.7,0,4,,,,,,,,,,,,,,,,,,,,,,,,,,,,,,,,,,,,,,,,,,,,,,,,,,,,,,,,,,,
,6103f6e09066149d3687c2bb,627c76204296e2272a3fc1c8,2022-05-12_04h52.01.815,classification_task,2021.2.3,Win32,59.99160118,627c6715c52fd12f31907bd0,,,,,"Which game did you play the most this year? (Enter ""None"" if you didn't play any)",,,0.7,0,spiderman,,,,,,,,,,,,,,,,,,,,,,,,,,,,,,,,,,,,,,,,,,,,,,,,,,,,,,,,,,,
,6103f6e09066149d3687c2bb,627c76204296e2272a3fc1c8,2022-05-12_04h52.01.815,classification_task,2021.2.3,Win32,59.99160118,627c6715c52fd12f31907bd0,,,,,Visual perception,,,0.7,0,,,,,,,,,,,,,,,,,,,,,,,,,,,,,,,,,,,,,,,,,,,,,,,,,,,,,,,,,,,,
,6103f6e09066149d3687c2bb,627c76204296e2272a3fc1c8,2022-05-12_04h52.01.815,classification_task,2021.2.3,Win32,59.99160118,627c6715c52fd12f31907bd0,,,,,Do you have any form of color blindness?,,,0.7,0,No,48.8589,,,,,,,,,,,,,,,,,,,,,,,,,,,,,,,,,,,,,,,,,,,,,,,,,,,,,,,,,,
,6103f6e09066149d3687c2bb,627c76204296e2272a3fc1c8,2022-05-12_04h52.01.815,classification_task,2021.2.3,Win32,59.99160118,627c6715c52fd12f31907bd0,,,,,Do you use software to change the colour temperature of your screen (e.g. f.lux)?,,,0.7,0,No,56.2142,,,,,,,,,,,,,,,,,,,,,,,,,,,,,,,,,,,,,,,,,,,,,,,,,,,,,,,,,,
,6103f6e09066149d3687c2bb,627c76204296e2272a3fc1c8,2022-05-12_04h52.01.815,classification_task,2021.2.3,Win32,59.99160118,627c6715c52fd12f31907bd0,,,,,,,,,,,,space,37.8987,space,13.0181,0,0,0,0,1,,,,,,,,,,,,,,,,,,,,,,,,,,,,,,,,,,,,,,,,,,,,,,,,,
,6103f6e09066149d3687c2bb,627c76204296e2272a3fc1c8,2022-05-12_04h52.01.815,classification_task,2021.2.3,Win32,59.99160118,627c6715c52fd12f31907bd0,,,,,,,,,,,,,,space,14.6883,1,0,1,0,1,,,,,,,,,,,,,,,,,,,,,,,,,,,,,,,,,,,,,,,,,,,,,,,,,
,6103f6e09066149d3687c2bb,627c76204296e2272a3fc1c8,2022-05-12_04h52.01.815,classification_task,2021.2.3,Win32,59.99160118,627c6715c52fd12f31907bd0,,,,,,,,,,,,,,space,24.5487,2,0,2,0,1,,,,,,,,,,,,,,,,,,,,,,,,,,,,,,,,,,,,,,,,,,,,,,,,,
,6103f6e09066149d3687c2bb,627c76204296e2272a3fc1c8,2022-05-12_04h52.01.815,classification_task,2021.2.3,Win32,59.99160118,627c6715c52fd12f31907bd0,,,,,,,,,,,,,,space,15.484,3,0,3,0,1,,,,,,,,,,,,,,,,,,,,,,,,,,,,,,,,,,,,,,,,,,,,,,,,,
,6103f6e09066149d3687c2bb,627c76204296e2272a3fc1c8,2022-05-12_04h52.01.815,classification_task,2021.2.3,Win32,59.99160118,627c6715c52fd12f31907bd0,,,,,,,,,,,,,,space,24.4547,4,0,4,0,1,,,,,,,,,,,,,,,,,,,,,,,,,,,,,,,,,,,,,,,,,,,,,,,,,
,6103f6e09066149d3687c2bb,627c76204296e2272a3fc1c8,2022-05-12_04h52.01.815,classification_task,2021.2.3,Win32,59.99160118,627c6715c52fd12f31907bd0,,,,,,,,,,,,,,,,,,,,,space,20.6739,a,0,2.4073,"[""0.048"",""0.770"",""0.563"",""0.711""]","[1,0,1,1]",0,0,0,0,1,1,1,,,1,FALSE,,,,,,,,,,,,,,,,,,,,,,,,,,,,,,,
,6103f6e09066149d3687c2bb,627c76204296e2272a3fc1c8,2022-05-12_04h52.01.815,classification_task,2021.2.3,Win32,59.99160118,627c6715c52fd12f31907bd0,,,,,,,,,,,,,,,,,,,,,,,a,0,3.3949,"[""0.285"",""0.125"",""0.463"",""0.814""]","[0,1,1,1]",0,1,1,1,1,1,0,,,1,FALSE,,,,,,,,,,,,,,,,,,,,,,,,,,,,,,,
,6103f6e09066149d3687c2bb,627c76204296e2272a3fc1c8,2022-05-12_04h52.01.815,classification_task,2021.2.3,Win32,59.99160118,627c6715c52fd12f31907bd0,,,,,,,,,,,,,,,,,,,,,,,a,0,3.0286,"[""0.048"",""0.341"",""0.563"",""0.163""]","[1,1,1,0]",0,2,2,2,1,1,1,,,1,FALSE,,,,,,,,,,,,,,,,,,,,,,,,,,,,,,,
,6103f6e09066149d3687c2bb,627c76204296e2272a3fc1c8,2022-05-12_04h52.01.815,classification_task,2021.2.3,Win32,59.99160118,627c6715c52fd12f31907bd0,,,,,,,,,,,,,,,,,,,,,,,a,1,1.5445,"[""0.246"",""0.428"",""0.303"",""0.957""]","[1,1,0,1]",0,3,3,3,1,0,1,,,1,FALSE,,,,,,,,,,,,,,,,,,,,,,,,,,,,,,,
,6103f6e09066149d3687c2bb,627c76204296e2272a3fc1c8,2022-05-12_04h52.01.815,classification_task,2021.2.3,Win32,59.99160118,627c6715c52fd12f31907bd0,,,,,,,,,,,,,,,,,,,,,,,l,0,4.6206,"[""0.198"",""0.285"",""0.862"",""0.900""]","[1,0,1,1]",0,4,4,4,1,0,0,,,1,FALSE,,,,,,,,,,,,,,,,,,,,,,,,,,,,,,,
,6103f6e09066149d3687c2bb,627c76204296e2272a3fc1c8,2022-05-12_04h52.01.815,classification_task,2021.2.3,Win32,59.99160118,627c6715c52fd12f31907bd0,,,,,,,,,,,,,,,,,,,,,,,l,0,7.1094,"[""0.761"",""0.521"",""0.862"",""0.900""]","[0,1,1,1]",0,5,5,5,1,0,0,,,1,FALSE,,,,,,,,,,,,,,,,,,,,,,,,,,,,,,,
,6103f6e09066149d3687c2bb,627c76204296e2272a3fc1c8,2022-05-12_04h52.01.815,classification_task,2021.2.3,Win32,59.99160118,627c6715c52fd12f31907bd0,,,,,,,,,,,,,,,,,,,,,,,a,0,9.3255,"[""0.084"",""0.125"",""0.463"",""0.761""]","[1,1,1,0]",0,6,6,6,1,1,0,,,1,FALSE,,,,,,,,,,,,,,,,,,,,,,,,,,,,,,,
,6103f6e09066149d3687c2bb,627c76204296e2272a3fc1c8,2022-05-12_04h52.01.815,classification_task,2021.2.3,Win32,59.99160118,627c6715c52fd12f31907bd0,,,,,,,,,,,,,,,,,,,,,,,a,0,6.6707,"[""0.286"",""0.341"",""0.563"",""0.711""]","[0,1,1,1]",0,7,7,7,1,1,1,,,1,FALSE,,,,,,,,,,,,,,,,,,,,,,,,,,,,,,,
,6103f6e09066149d3687c2bb,627c76204296e2272a3fc1c8,2022-05-12_04h52.01.815,classification_task,2021.2.3,Win32,59.99160118,627c6715c52fd12f31907bd0,,,,,,,,,,,,,,,,,,,,,,,a,0,4.3289,"[""0.048"",""0.341"",""0.675"",""0.711""]","[1,1,0,1]",0,8,8,8,1,1,1,,,1,FALSE,,,,,,,,,,,,,,,,,,,,,,,,,,,,,,,
,6103f6e09066149d3687c2bb,627c76204296e2272a3fc1c8,2022-05-12_04h52.01.815,classification_task,2021.2.3,Win32,59.99160118,627c6715c52fd12f31907bd0,,,,,,,,,,,,,,,,,,,,,,,l,0,0.809,"[""0.246"",""0.303"",""0.624"",""0.957""]","[1,0,1,1]",0,9,9,9,1,0,1,,,1,FALSE,,,,,,,,,,,,,,,,,,,,,,,,,,,,,,,
,6103f6e09066149d3687c2bb,627c76204296e2272a3fc1c8,2022-05-12_04h52.01.815,classification_task,2021.2.3,Win32,59.99160118,627c6715c52fd12f31907bd0,,,,,,,,,,,,,,,,,,,,,,,l,0,4.4956,"[""0.198"",""0.521"",""0.862"",""0.285""]","[1,1,1,0]",0,10,10,10,1,0,0,,,1,FALSE,,,,,,,,,,,,,,,,,,,,,,,,,,,,,,,
,6103f6e09066149d3687c2bb,627c76204296e2272a3fc1c8,2022-05-12_04h52.01.815,classification_task,2021.2.3,Win32,59.99160118,627c6715c52fd12f31907bd0,,,,,,,,,,,,,,,,,,,,,,,a,0,4.8439,"[""0.084"",""0.761"",""0.463"",""0.814""]","[1,0,1,1]",0,11,11,11,1,1,0,,,1,FALSE,,,,,,,,,,,,,,,,,,,,,,,,,,,,,,,
,6103f6e09066149d3687c2bb,627c76204296e2272a3fc1c8,2022-05-12_04h52.01.815,classification_task,2021.2.3,Win32,59.99160118,627c6715c52fd12f31907bd0,,,,,,,,,,,,,,,,,,,,,,,a,1,5.2592,"[""0.198"",""0.521"",""0.780"",""0.900""]","[1,1,0,1]",0,12,12,12,1,0,0,,,1,FALSE,,,,,,,,,,,,,,,,,,,,,,,,,,,,,,,
,6103f6e09066149d3687c2bb,627c76204296e2272a3fc1c8,2022-05-12_04h52.01.815,classification_task,2021.2.3,Win32,59.99160118,627c6715c52fd12f31907bd0,,,,,,,,,,,,,,,,,,,,,,,a,1,3.3387,"[""0.291"",""0.428"",""0.624"",""0.957""]","[0,1,1,1]",0,13,13,13,1,0,1,,,1,FALSE,,,,,,,,,,,,,,,,,,,,,,,,,,,,,,,
,6103f6e09066149d3687c2bb,627c76204296e2272a3fc1c8,2022-05-12_04h52.01.815,classification_task,2021.2.3,Win32,59.99160118,627c6715c52fd12f31907bd0,,,,,,,,,,,,,,,,,,,,,,,a,1,7.3928,"[""0.246"",""0.428"",""0.624"",""0.394""]","[1,1,1,0]",0,14,14,14,1,0,1,,,1,FALSE,,,,,,,,,,,,,,,,,,,,,,,,,,,,,,,
,6103f6e09066149d3687c2bb,627c76204296e2272a3fc1c8,2022-05-12_04h52.01.815,classification_task,2021.2.3,Win32,59.99160118,627c6715c52fd12f31907bd0,,,,,,,,,,,,,,,,,,,,,,,l,1,4.0224,"[""0.084"",""0.125"",""0.780"",""0.814""]","[1,1,0,1]",0,15,15,15,1,1,0,,,1,FALSE,,,,,,,,,,,,,,,,,,,,,,,,,,,,,,,
,6103f6e09066149d3687c2bb,627c76204296e2272a3fc1c8,2022-05-12_04h52.01.815,classification_task,2021.2.3,Win32,59.99160118,627c6715c52fd12f31907bd0,,,,,,,,,,,,,,,,,,,,,,,l,1,3.0746,"[""0.084"",""0.125"",""0.163"",""0.814""]","[1,1,0,1]",0,16,16,16,1,1,0,,,1,FALSE,,,,,,,,,,,,,,,,,,,,,,,,,,,,,,,
,6103f6e09066149d3687c2bb,627c76204296e2272a3fc1c8,2022-05-12_04h52.01.815,classification_task,2021.2.3,Win32,59.99160118,627c6715c52fd12f31907bd0,,,,,,,,,,,,,,,,,,,,,,,a,1,4.2551,"[""0.246"",""0.428"",""0.286"",""0.957""]","[1,1,0,1]",0,17,17,17,1,0,1,,,1,FALSE,,,,,,,,,,,,,,,,,,,,,,,,,,,,,,,
,6103f6e09066149d3687c2bb,627c76204296e2272a3fc1c8,2022-05-12_04h52.01.815,classification_task,2021.2.3,Win32,59.99160118,627c6715c52fd12f31907bd0,,,,,,,,,,,,,,,,,,,,,,,l,0,3.5595,"[""0.198"",""0.521"",""0.862"",""0.394""]","[1,1,1,0]",0,18,18,18,1,0,0,,,1,FALSE,,,,,,,,,,,,,,,,,,,,,,,,,,,,,,,
,6103f6e09066149d3687c2bb,627c76204296e2272a3fc1c8,2022-05-12_04h52.01.815,classification_task,2021.2.3,Win32,59.99160118,627c6715c52fd12f31907bd0,,,,,,,,,,,,,,,,,,,,,,,l,1,5.5757,"[""0.084"",""0.751"",""0.463"",""0.814""]","[1,0,1,1]",0,19,19,19,1,1,0,,,1,FALSE,,,,,,,,,,,,,,,,,,,,,,,,,,,,,,,
,6103f6e09066149d3687c2bb,627c76204296e2272a3fc1c8,2022-05-12_04h52.01.815,classification_task,2021.2.3,Win32,59.99160118,627c6715c52fd12f31907bd0,,,,,,,,,,,,,,,,,,,,,,,a,1,5.63,"[""0.198"",""0.292"",""0.862"",""0.900""]","[1,0,1,1]",0,20,20,20,1,0,0,,,1,FALSE,,,,,,,,,,,,,,,,,,,,,,,,,,,,,,,
,6103f6e09066149d3687c2bb,627c76204296e2272a3fc1c8,2022-05-12_04h52.01.815,classification_task,2021.2.3,Win32,59.99160118,627c6715c52fd12f31907bd0,,,,,,,,,,,,,,,,,,,,,,,a,0,6.339,"[""0.675"",""0.341"",""0.563"",""0.711""]","[0,1,1,1]",0,21,21,21,1,1,1,,,1,FALSE,,,,,,,,,,,,,,,,,,,,,,,,,,,,,,,
,6103f6e09066149d3687c2bb,627c76204296e2272a3fc1c8,2022-05-12_04h52.01.815,classification_task,2021.2.3,Win32,59.99160118,627c6715c52fd12f31907bd0,,,,,,,,,,,,,,,,,,,,,,,l,1,3.4913,"[""0.048"",""0.341"",""0.563"",""0.292""]","[1,1,1,0]",0,22,22,22,1,1,1,,,1,FALSE,,,,,,,,,,,,,,,,,,,,,,,,,,,,,,,
,6103f6e09066149d3687c2bb,627c76204296e2272a3fc1c8,2022-05-12_04h52.01.815,classification_task,2021.2.3,Win32,59.99160118,627c6715c52fd12f31907bd0,,,,,,,,,,,,,,,,,,,,,,,l,1,3.2365,"[""0.780"",""0.125"",""0.463"",""0.814""]","[0,1,1,1]",0,23,23,23,1,1,0,,,1,FALSE,,,,,,,,,,,,,,,,,,,,,,,,,,,,,,,
,6103f6e09066149d3687c2bb,627c76204296e2272a3fc1c8,2022-05-12_04h52.01.815,classification_task,2021.2.3,Win32,59.99160118,627c6715c52fd12f31907bd0,,,,,,,,,,,,,,,,,,,,,,,a,0,4.8084,"[""0.084"",""0.125"",""0.463"",""0.303""]","[1,1,1,0]",0,24,24,24,1,1,0,,,1,FALSE,,,,,,,,,,,,,,,,,,,,,,,,,,,,,,,
,6103f6e09066149d3687c2bb,627c76204296e2272a3fc1c8,2022-05-12_04h52.01.815,classification_task,2021.2.3,Win32,59.99160118,627c6715c52fd12f31907bd0,,,,,,,,,,,,,,,,,,,,,,,l,0,5.3222,"[""0.246"",""0.428"",""0.624"",""0.770""]","[1,1,1,0]",0,25,25,25,1,0,1,,,1,FALSE,,,,,,,,,,,,,,,,,,,,,,,,,,,,,,,
,6103f6e09066149d3687c2bb,627c76204296e2272a3fc1c8,2022-05-12_04h52.01.815,classification_task,2021.2.3,Win32,59.99160118,627c6715c52fd12f31907bd0,,,,,,,,,,,,,,,,,,,,,,,l,1,4.4073,"[""0.048"",""0.341"",""0.761"",""0.711""]","[1,1,0,1]",0,26,26,26,1,1,1,,,1,FALSE,,,,,,,,,,,,,,,,,,,,,,,,,,,,,,,
,6103f6e09066149d3687c2bb,627c76204296e2272a3fc1c8,2022-05-12_04h52.01.815,classification_task,2021.2.3,Win32,59.99160118,627c6715c52fd12f31907bd0,,,,,,,,,,,,,,,,,,,,,,,a,1,3.4712,"[""0.198"",""0.521"",""0.286"",""0.900""]","[1,1,0,1]",0,27,27,27,1,0,0,,,1,FALSE,,,,,,,,,,,,,,,,,,,,,,,,,,,,,,,
,6103f6e09066149d3687c2bb,627c76204296e2272a3fc1c8,2022-05-12_04h52.01.815,classification_task,2021.2.3,Win32,59.99160118,627c6715c52fd12f31907bd0,,,,,,,,,,,,,,,,,,,,,,,a,1,4.4437,"[""0.289"",""0.428"",""0.624"",""0.957""]","[0,1,1,1]",0,28,28,28,1,0,1,,,1,FALSE,,,,,,,,,,,,,,,,,,,,,,,,,,,,,,,
,6103f6e09066149d3687c2bb,627c76204296e2272a3fc1c8,2022-05-12_04h52.01.815,classification_task,2021.2.3,Win32,59.99160118,627c6715c52fd12f31907bd0,,,,,,,,,,,,,,,,,,,,,,,a,1,3.4232,"[""0.286"",""0.521"",""0.862"",""0.900""]","[0,1,1,1]",0,29,29,29,1,0,0,,,1,FALSE,,,,,,,,,,,,,,,,,,,,,,,,,,,,,,,
,6103f6e09066149d3687c2bb,627c76204296e2272a3fc1c8,2022-05-12_04h52.01.815,classification_task,2021.2.3,Win32,59.99160118,627c6715c52fd12f31907bd0,,,,,,,,,,,,,,,,,,,,,,,l,1,4.3303,"[""0.048"",""0.761"",""0.563"",""0.711""]","[1,0,1,1]",0,30,30,30,1,1,1,,,1,FALSE,,,,,,,,,,,,,,,,,,,,,,,,,,,,,,,
,6103f6e09066149d3687c2bb,627c76204296e2272a3fc1c8,2022-05-12_04h52.01.815,classification_task,2021.2.3,Win32,59.99160118,627c6715c52fd12f31907bd0,,,,,,,,,,,,,,,,,,,,,,,a,1,2.959,"[""0.246"",""0.289"",""0.624"",""0.957""]","[1,0,1,1]",0,31,31,31,1,0,1,,,1,FALSE,,,,,,,,,,,,,,,,,,,,,,,,,,,,,,,
,6103f6e09066149d3687c2bb,627c76204296e2272a3fc1c8,2022-05-12_04h52.01.815,classification_task,2021.2.3,Win32,59.99160118,627c6715c52fd12f31907bd0,,,,,,,,,,,,,,,,,,,,,,,a,1,6.8721,"[""0.198"",""0.521"",""0.862"",""0.394""]","[1,1,1,0]",0,32,32,32,1,0,0,,,1,FALSE,,,,,,,,,,,,,,,,,,,,,,,,,,,,,,,
,6103f6e09066149d3687c2bb,627c76204296e2272a3fc1c8,2022-05-12_04h52.01.815,classification_task,2021.2.3,Win32,59.99160118,627c6715c52fd12f31907bd0,,,,,,,,,,,,,,,,,,,,,,,a,1,3.1328,"[""0.163"",""0.428"",""0.624"",""0.957""]","[0,1,1,1]",0,33,33,33,1,0,1,,,1,FALSE,,,,,,,,,,,,,,,,,,,,,,,,,,,,,,,
,6103f6e09066149d3687c2bb,627c76204296e2272a3fc1c8,2022-05-12_04h52.01.815,classification_task,2021.2.3,Win32,59.99160118,627c6715c52fd12f31907bd0,,,,,,,,,,,,,,,,,,,,,,,a,1,1.5915,"[""0.198"",""0.286"",""0.862"",""0.900""]","[1,0,1,1]",0,34,34,34,1,0,0,,,1,FALSE,,,,,,,,,,,,,,,,,,,,,,,,,,,,,,,
,6103f6e09066149d3687c2bb,627c76204296e2272a3fc1c8,2022-05-12_04h52.01.815,classification_task,2021.2.3,Win32,59.99160118,627c6715c52fd12f31907bd0,,,,,,,,,,,,,,,,,,,,,,,a,1,1.1823,"[""0.246"",""0.428"",""0.291"",""0.957""]","[1,1,0,1]",0,35,35,35,1,0,1,,,1,FALSE,,,,,,,,,,,,,,,,,,,,,,,,,,,,,,,
,6103f6e09066149d3687c2bb,627c76204296e2272a3fc1c8,2022-05-12_04h52.01.815,classification_task,2021.2.3,Win32,59.99160118,627c6715c52fd12f31907bd0,,,,,,,,,,,,,,,,,,,,,,,l,1,1.6552,"[""0.675"",""0.125"",""0.463"",""0.814""]","[0,1,1,1]",0,36,36,36,1,1,0,,,1,FALSE,,,,,,,,,,,,,,,,,,,,,,,,,,,,,,,
,6103f6e09066149d3687c2bb,627c76204296e2272a3fc1c8,2022-05-12_04h52.01.815,classification_task,2021.2.3,Win32,59.99160118,627c6715c52fd12f31907bd0,,,,,,,,,,,,,,,,,,,,,,,l,1,2.0426,"[""0.048"",""0.163"",""0.563"",""0.711""]","[1,0,1,1]",0,37,37,37,1,1,1,,,1,FALSE,,,,,,,,,,,,,,,,,,,,,,,,,,,,,,,
,6103f6e09066149d3687c2bb,627c76204296e2272a3fc1c8,2022-05-12_04h52.01.815,classification_task,2021.2.3,Win32,59.99160118,627c6715c52fd12f31907bd0,,,,,,,,,,,,,,,,,,,,,,,a,1,1.5161,"[""0.198"",""0.521"",""0.289"",""0.900""]","[1,1,0,1]",0,38,38,38,1,0,0,,,1,FALSE,,,,,,,,,,,,,,,,,,,,,,,,,,,,,,,
,6103f6e09066149d3687c2bb,627c76204296e2272a3fc1c8,2022-05-12_04h52.01.815,classification_task,2021.2.3,Win32,59.99160118,627c6715c52fd12f31907bd0,,,,,,,,,,,,,,,,,,,,,,,l,1,2.116,"[""0.048"",""0.341"",""0.163"",""0.711""]","[1,1,0,1]",0,39,39,39,1,1,1,,,1,FALSE,,,,,,,,,,,,,,,,,,,,,,,,,,,,,,,
,6103f6e09066149d3687c2bb,627c76204296e2272a3fc1c8,2022-05-12_04h52.01.815,classification_task,2021.2.3,Win32,59.99160118,627c6715c52fd12f31907bd0,,,,,,,,,,,,,,,,,,,,,,,a,1,1.0995,"[""0.246"",""0.774"",""0.624"",""0.957""]","[1,0,1,1]",0,40,40,40,1,0,1,,,1,FALSE,,,,,,,,,,,,,,,,,,,,,,,,,,,,,,,
,6103f6e09066149d3687c2bb,627c76204296e2272a3fc1c8,2022-05-12_04h52.01.815,classification_task,2021.2.3,Win32,59.99160118,627c6715c52fd12f31907bd0,,,,,,,,,,,,,,,,,,,,,,,a,0,1.7705,"[""0.084"",""0.125"",""0.780"",""0.814""]","[1,1,0,1]",0,41,41,41,1,1,0,,,1,FALSE,,,,,,,,,,,,,,,,,,,,,,,,,,,,,,,
,6103f6e09066149d3687c2bb,627c76204296e2272a3fc1c8,2022-05-12_04h52.01.815,classification_task,2021.2.3,Win32,59.99160118,627c6715c52fd12f31907bd0,,,,,,,,,,,,,,,,,,,,,,,l,1,2.283,"[""0.084"",""0.125"",""0.463"",""0.291""]","[1,1,1,0]",0,42,42,42,1,1,0,,,1,FALSE,,,,,,,,,,,,,,,,,,,,,,,,,,,,,,,
,6103f6e09066149d3687c2bb,627c76204296e2272a3fc1c8,2022-05-12_04h52.01.815,classification_task,2021.2.3,Win32,59.99160118,627c6715c52fd12f31907bd0,,,,,,,,,,,,,,,,,,,,,,,l,1,2.0105,"[""0.048"",""0.341"",""0.563"",""0.394""]","[1,1,1,0]",0,43,43,43,1,1,1,,,1,FALSE,,,,,,,,,,,,,,,,,,,,,,,,,,,,,,,
,6103f6e09066149d3687c2bb,627c76204296e2272a3fc1c8,2022-05-12_04h52.01.815,classification_task,2021.2.3,Win32,59.99160118,627c6715c52fd12f31907bd0,,,,,,,,,,,,,,,,,,,,,,,a,1,1.6268,"[""0.292"",""0.521"",""0.862"",""0.900""]","[0,1,1,1]",0,44,44,44,1,0,0,,,1,FALSE,,,,,,,,,,,,,,,,,,,,,,,,,,,,,,,
,6103f6e09066149d3687c2bb,627c76204296e2272a3fc1c8,2022-05-12_04h52.01.815,classification_task,2021.2.3,Win32,59.99160118,627c6715c52fd12f31907bd0,,,,,,,,,,,,,,,,,,,,,,,l,0,3.0324,"[""0.246"",""0.428"",""0.624"",""0.292""]","[1,1,1,0]",0,45,45,45,1,0,1,,,1,FALSE,,,,,,,,,,,,,,,,,,,,,,,,,,,,,,,
,6103f6e09066149d3687c2bb,627c76204296e2272a3fc1c8,2022-05-12_04h52.01.815,classification_task,2021.2.3,Win32,59.99160118,627c6715c52fd12f31907bd0,,,,,,,,,,,,,,,,,,,,,,,l,1,1.6648,"[""0.286"",""0.341"",""0.563"",""0.711""]","[0,1,1,1]",0,46,46,46,1,1,1,,,1,FALSE,,,,,,,,,,,,,,,,,,,,,,,,,,,,,,,
,6103f6e09066149d3687c2bb,627c76204296e2272a3fc1c8,2022-05-12_04h52.01.815,classification_task,2021.2.3,Win32,59.99160118,627c6715c52fd12f31907bd0,,,,,,,,,,,,,,,,,,,,,,,a,0,1.6499,"[""0.084"",""0.285"",""0.463"",""0.814""]","[1,0,1,1]",0,47,47,47,1,1,0,,,1,FALSE,,,,,,,,,,,,,,,,,,,,,,,,,,,,,,,
,6103f6e09066149d3687c2bb,627c76204296e2272a3fc1c8,2022-05-12_04h52.01.815,classification_task,2021.2.3,Win32,59.99160118,627c6715c52fd12f31907bd0,,,,,,,,,,,,,,,,,,,,,,,a,1,1.1587,"[""0.246"",""0.761"",""0.624"",""0.957""]","[1,0,1,1]",0,48,48,48,1,0,1,,,1,FALSE,,,,,,,,,,,,,,,,,,,,,,,,,,,,,,,
,6103f6e09066149d3687c2bb,627c76204296e2272a3fc1c8,2022-05-12_04h52.01.815,classification_task,2021.2.3,Win32,59.99160118,627c6715c52fd12f31907bd0,,,,,,,,,,,,,,,,,,,,,,,a,1,1.8495,"[""0.246"",""0.428"",""0.624"",""0.286""]","[1,1,1,0]",0,49,49,49,1,0,1,,,1,FALSE,,,,,,,,,,,,,,,,,,,,,,,,,,,,,,,
,6103f6e09066149d3687c2bb,627c76204296e2272a3fc1c8,2022-05-12_04h52.01.815,classification_task,2021.2.3,Win32,59.99160118,627c6715c52fd12f31907bd0,,,,,,,,,,,,,,,,,,,,,,,l,1,1.6005,"[""0.048"",""0.761"",""0.563"",""0.711""]","[1,0,1,1]",0,50,50,50,1,1,1,,,1,FALSE,,,,,,,,,,,,,,,,,,,,,,,,,,,,,,,
,6103f6e09066149d3687c2bb,627c76204296e2272a3fc1c8,2022-05-12_04h52.01.815,classification_task,2021.2.3,Win32,59.99160118,627c6715c52fd12f31907bd0,,,,,,,,,,,,,,,,,,,,,,,l,1,1.465,"[""0.084"",""0.125"",""0.463"",""0.761""]","[1,1,1,0]",0,51,51,51,1,1,0,,,1,FALSE,,,,,,,,,,,,,,,,,,,,,,,,,,,,,,,
,6103f6e09066149d3687c2bb,627c76204296e2272a3fc1c8,2022-05-12_04h52.01.815,classification_task,2021.2.3,Win32,59.99160118,627c6715c52fd12f31907bd0,,,,,,,,,,,,,,,,,,,,,,,a,0,1.5416,"[""0.761"",""0.125"",""0.463"",""0.814""]","[0,1,1,1]",0,52,52,52,1,1,0,,,1,FALSE,,,,,,,,,,,,,,,,,,,,,,,,,,,,,,,
,6103f6e09066149d3687c2bb,627c76204296e2272a3fc1c8,2022-05-12_04h52.01.815,classification_task,2021.2.3,Win32,59.99160118,627c6715c52fd12f31907bd0,,,,,,,,,,,,,,,,,,,,,,,l,1,1.6169,"[""0.048"",""0.341"",""0.761"",""0.711""]","[1,1,0,1]",0,53,53,53,1,1,1,,,1,FALSE,,,,,,,,,,,,,,,,,,,,,,,,,,,,,,,
,6103f6e09066149d3687c2bb,627c76204296e2272a3fc1c8,2022-05-12_04h52.01.815,classification_task,2021.2.3,Win32,59.99160118,627c6715c52fd12f31907bd0,,,,,,,,,,,,,,,,,,,,,,,a,1,1.1017,"[""0.198"",""0.303"",""0.862"",""0.900""]","[1,0,1,1]",0,54,54,54,1,0,0,,,1,FALSE,,,,,,,,,,,,,,,,,,,,,,,,,,,,,,,
,6103f6e09066149d3687c2bb,627c76204296e2272a3fc1c8,2022-05-12_04h52.01.815,classification_task,2021.2.3,Win32,59.99160118,627c6715c52fd12f31907bd0,,,,,,,,,,,,,,,,,,,,,,,a,1,1.1488,"[""0.675"",""0.428"",""0.624"",""0.957""]","[0,1,1,1]",0,55,55,55,1,0,1,,,1,FALSE,,,,,,,,,,,,,,,,,,,,,,,,,,,,,,,
,6103f6e09066149d3687c2bb,627c76204296e2272a3fc1c8,2022-05-12_04h52.01.815,classification_task,2021.2.3,Win32,59.99160118,627c6715c52fd12f31907bd0,,,,,,,,,,,,,,,,,,,,,,,a,1,1.433,"[""0.198"",""0.521"",""0.285"",""0.900""]","[1,1,0,1]",0,56,56,56,1,0,0,,,1,FALSE,,,,,,,,,,,,,,,,,,,,,,,,,,,,,,,
,6103f6e09066149d3687c2bb,627c76204296e2272a3fc1c8,2022-05-12_04h52.01.815,classification_task,2021.2.3,Win32,59.99160118,627c6715c52fd12f31907bd0,,,,,,,,,,,,,,,,,,,,,,,l,1,1.2091,"[""0.084"",""0.125"",""0.780"",""0.814""]","[1,1,0,1]",0,57,57,57,1,1,0,,,1,FALSE,,,,,,,,,,,,,,,,,,,,,,,,,,,,,,,
,6103f6e09066149d3687c2bb,627c76204296e2272a3fc1c8,2022-05-12_04h52.01.815,classification_task,2021.2.3,Win32,59.99160118,627c6715c52fd12f31907bd0,,,,,,,,,,,,,,,,,,,,,,,a,1,1.0989,"[""0.246"",""0.428"",""0.751"",""0.957""]","[1,1,0,1]",0,58,58,58,1,0,1,,,1,FALSE,,,,,,,,,,,,,,,,,,,,,,,,,,,,,,,
,6103f6e09066149d3687c2bb,627c76204296e2272a3fc1c8,2022-05-12_04h52.01.815,classification_task,2021.2.3,Win32,59.99160118,627c6715c52fd12f31907bd0,,,,,,,,,,,,,,,,,,,,,,,l,1,3.0506,"[""0.761"",""0.341"",""0.563"",""0.711""]","[0,1,1,1]",0,59,59,59,1,1,1,,,1,FALSE,,,,,,,,,,,,,,,,,,,,,,,,,,,,,,,
,6103f6e09066149d3687c2bb,627c76204296e2272a3fc1c8,2022-05-12_04h52.01.815,classification_task,2021.2.3,Win32,59.99160118,627c6715c52fd12f31907bd0,,,,,,,,,,,,,,,,,,,,,,,l,1,2.2317,"[""0.084"",""0.761"",""0.463"",""0.814""]","[1,0,1,1]",0,60,60,60,1,1,0,,,1,FALSE,,,,,,,,,,,,,,,,,,,,,,,,,,,,,,,
,6103f6e09066149d3687c2bb,627c76204296e2272a3fc1c8,2022-05-12_04h52.01.815,classification_task,2021.2.3,Win32,59.99160118,627c6715c52fd12f31907bd0,,,,,,,,,,,,,,,,,,,,,,,l,0,1.8992,"[""0.198"",""0.521"",""0.862"",""0.394""]","[1,1,1,0]",0,61,61,61,1,0,0,,,1,FALSE,,,,,,,,,,,,,,,,,,,,,,,,,,,,,,,
,6103f6e09066149d3687c2bb,627c76204296e2272a3fc1c8,2022-05-12_04h52.01.815,classification_task,2021.2.3,Win32,59.99160118,627c6715c52fd12f31907bd0,,,,,,,,,,,,,,,,,,,,,,,a,1,1.0091,"[""0.303"",""0.521"",""0.862"",""0.900""]","[0,1,1,1]",0,62,62,62,1,0,0,,,1,FALSE,,,,,,,,,,,,,,,,,,,,,,,,,,,,,,,
,6103f6e09066149d3687c2bb,627c76204296e2272a3fc1c8,2022-05-12_04h52.01.815,classification_task,2021.2.3,Win32,59.99160118,627c6715c52fd12f31907bd0,,,,,,,,,,,,,,,,,,,,,,,l,1,2.0336,"[""0.048"",""0.341"",""0.563"",""0.774""]","[1,1,1,0]",0,63,63,63,1,1,1,,,1,FALSE,,,,,,,,,,,,,,,,,,,,,,,,,,,,,,,
,6103f6e09066149d3687c2bb,627c76204296e2272a3fc1c8,2022-05-12_04h52.01.815,classification_task,2021.2.3,Win32,59.99160118,627c6715c52fd12f31907bd0,,,,,,,,,,,,,,,,,,,,,,,,,,,,,,,,,,,,,,,0, ,,0,,,0,0,0,0,1,2,1,,,,,,,,,,,,,,,,,,
,6103f6e09066149d3687c2bb,627c76204296e2272a3fc1c8,2022-05-12_04h52.01.815,classification_task,2021.2.3,Win32,59.99160118,627c6715c52fd12f31907bd0,,,,,,,,,,,,,,,,,,,,,,,,,,,,,,,,,,,,,,,1,  ,,0,,,0,0,0,0,1,2,1,,,,,,,,,,,,,,,,,,
,6103f6e09066149d3687c2bb,627c76204296e2272a3fc1c8,2022-05-12_04h52.01.815,classification_task,2021.2.3,Win32,59.99160118,627c6715c52fd12f31907bd0,,,,,,,,,,,,,,,,,,,,,,,,,,,,,,,,,,,,,,,2,  ,,0,,,0,0,0,0,1,2,1,,,,,,,,,,,,,,,,,,
,6103f6e09066149d3687c2bb,627c76204296e2272a3fc1c8,2022-05-12_04h52.01.815,classification_task,2021.2.3,Win32,59.99160118,627c6715c52fd12f31907bd0,,,,,,,,,,,,,,,,,,,,,,,,,,,,,,,,,,,,,,,,,,,,,0,0,0,0,1,,1,,,,,,,,,,,,,,,,,,
,6103f6e09066149d3687c2bb,627c76204296e2272a3fc1c8,2022-05-12_04h52.01.815,classification_task,2021.2.3,Win32,59.99160118,627c6715c52fd12f31907bd0,,,,,,,,,,,,,,,,,,,,,space,9.6454,l,1,3.7697,"[""0.163"",""0.341"",""0.563"",""0.711""]","[0,1,1,1]",0,0,0,0,1,1,1,,,1,FALSE,,,,,,,,,,,,,,,,,,,,,,,,,,,,,,,
,6103f6e09066149d3687c2bb,627c76204296e2272a3fc1c8,2022-05-12_04h52.01.815,classification_task,2021.2.3,Win32,59.99160118,627c6715c52fd12f31907bd0,,,,,,,,,,,,,,,,,,,,,,,a,0,3.5385,"[""0.084"",""0.770"",""0.463"",""0.814""]","[1,0,1,1]",0,1,1,1,1,1,0,,,1,FALSE,,,,,,,,,,,,,,,,,,,,,,,,,,,,,,,
,6103f6e09066149d3687c2bb,627c76204296e2272a3fc1c8,2022-05-12_04h52.01.815,classification_task,2021.2.3,Win32,59.99160118,627c6715c52fd12f31907bd0,,,,,,,,,,,,,,,,,,,,,,,l,1,1.4553,"[""0.048"",""0.341"",""0.675"",""0.711""]","[1,1,0,1]",0,2,2,2,1,1,1,,,1,FALSE,,,,,,,,,,,,,,,,,,,,,,,,,,,,,,,
,6103f6e09066149d3687c2bb,627c76204296e2272a3fc1c8,2022-05-12_04h52.01.815,classification_task,2021.2.3,Win32,59.99160118,627c6715c52fd12f31907bd0,,,,,,,,,,,,,,,,,,,,,,,a,1,1.6145,"[""0.198"",""0.521"",""0.862"",""0.770""]","[1,1,1,0]",0,3,3,3,1,0,0,,,1,FALSE,,,,,,,,,,,,,,,,,,,,,,,,,,,,,,,
,6103f6e09066149d3687c2bb,627c76204296e2272a3fc1c8,2022-05-12_04h52.01.815,classification_task,2021.2.3,Win32,59.99160118,627c6715c52fd12f31907bd0,,,,,,,,,,,,,,,,,,,,,,,a,1,0.9135,"[""0.198"",""0.521"",""0.289"",""0.900""]","[1,1,0,1]",0,4,4,4,1,0,0,,,1,FALSE,,,,,,,,,,,,,,,,,,,,,,,,,,,,,,,
,6103f6e09066149d3687c2bb,627c76204296e2272a3fc1c8,2022-05-12_04h52.01.815,classification_task,2021.2.3,Win32,59.99160118,627c6715c52fd12f31907bd0,,,,,,,,,,,,,,,,,,,,,,,l,1,3.3315,"[""0.289"",""0.125"",""0.463"",""0.814""]","[0,1,1,1]",0,5,5,5,1,1,0,,,1,FALSE,,,,,,,,,,,,,,,,,,,,,,,,,,,,,,,
,6103f6e09066149d3687c2bb,627c76204296e2272a3fc1c8,2022-05-12_04h52.01.815,classification_task,2021.2.3,Win32,59.99160118,627c6715c52fd12f31907bd0,,,,,,,,,,,,,,,,,,,,,,,a,1,0.9584,"[""0.291"",""0.521"",""0.862"",""0.900""]","[0,1,1,1]",0,6,6,6,1,0,0,,,1,FALSE,,,,,,,,,,,,,,,,,,,,,,,,,,,,,,,
,6103f6e09066149d3687c2bb,627c76204296e2272a3fc1c8,2022-05-12_04h52.01.815,classification_task,2021.2.3,Win32,59.99160118,627c6715c52fd12f31907bd0,,,,,,,,,,,,,,,,,,,,,,,l,0,1.3136,"[""0.246"",""0.428"",""0.624"",""0.163""]","[1,1,1,0]",0,7,7,7,1,0,1,,,1,FALSE,,,,,,,,,,,,,,,,,,,,,,,,,,,,,,,
,6103f6e09066149d3687c2bb,627c76204296e2272a3fc1c8,2022-05-12_04h52.01.815,classification_task,2021.2.3,Win32,59.99160118,627c6715c52fd12f31907bd0,,,,,,,,,,,,,,,,,,,,,,,a,1,1.0803,"[""0.246"",""0.163"",""0.624"",""0.957""]","[1,0,1,1]",0,8,8,8,1,0,1,,,1,FALSE,,,,,,,,,,,,,,,,,,,,,,,,,,,,,,,
,6103f6e09066149d3687c2bb,627c76204296e2272a3fc1c8,2022-05-12_04h52.01.815,classification_task,2021.2.3,Win32,59.99160118,627c6715c52fd12f31907bd0,,,,,,,,,,,,,,,,,,,,,,,l,1,1.6442,"[""0.084"",""0.125"",""0.463"",""0.761""]","[1,1,1,0]",0,9,9,9,1,1,0,,,1,FALSE,,,,,,,,,,,,,,,,,,,,,,,,,,,,,,,
,6103f6e09066149d3687c2bb,627c76204296e2272a3fc1c8,2022-05-12_04h52.01.815,classification_task,2021.2.3,Win32,59.99160118,627c6715c52fd12f31907bd0,,,,,,,,,,,,,,,,,,,,,,,l,1,1.4655,"[""0.084"",""0.125"",""0.285"",""0.814""]","[1,1,0,1]",0,10,10,10,1,1,0,,,1,FALSE,,,,,,,,,,,,,,,,,,,,,,,,,,,,,,,
,6103f6e09066149d3687c2bb,627c76204296e2272a3fc1c8,2022-05-12_04h52.01.815,classification_task,2021.2.3,Win32,59.99160118,627c6715c52fd12f31907bd0,,,,,,,,,,,,,,,,,,,,,,,a,1,0.6749,"[""0.198"",""0.289"",""0.862"",""0.900""]","[1,0,1,1]",0,11,11,11,1,0,0,,,1,FALSE,,,,,,,,,,,,,,,,,,,,,,,,,,,,,,,
,6103f6e09066149d3687c2bb,627c76204296e2272a3fc1c8,2022-05-12_04h52.01.815,classification_task,2021.2.3,Win32,59.99160118,627c6715c52fd12f31907bd0,,,,,,,,,,,,,,,,,,,,,,,l,1,1.2886,"[""0.048"",""0.675"",""0.563"",""0.711""]","[1,0,1,1]",0,12,12,12,1,1,1,,,1,FALSE,,,,,,,,,,,,,,,,,,,,,,,,,,,,,,,
,6103f6e09066149d3687c2bb,627c76204296e2272a3fc1c8,2022-05-12_04h52.01.815,classification_task,2021.2.3,Win32,59.99160118,627c6715c52fd12f31907bd0,,,,,,,,,,,,,,,,,,,,,,,l,1,1.0252,"[""0.048"",""0.341"",""0.563"",""0.286""]","[1,1,1,0]",0,13,13,13,1,1,1,,,1,FALSE,,,,,,,,,,,,,,,,,,,,,,,,,,,,,,,
,6103f6e09066149d3687c2bb,627c76204296e2272a3fc1c8,2022-05-12_04h52.01.815,classification_task,2021.2.3,Win32,59.99160118,627c6715c52fd12f31907bd0,,,,,,,,,,,,,,,,,,,,,,,a,1,0.865,"[""0.246"",""0.428"",""0.780"",""0.957""]","[1,1,0,1]",0,14,14,14,1,0,1,,,1,FALSE,,,,,,,,,,,,,,,,,,,,,,,,,,,,,,,
,6103f6e09066149d3687c2bb,627c76204296e2272a3fc1c8,2022-05-12_04h52.01.815,classification_task,2021.2.3,Win32,59.99160118,627c6715c52fd12f31907bd0,,,,,,,,,,,,,,,,,,,,,,,a,1,0.9657,"[""0.285"",""0.428"",""0.624"",""0.957""]","[0,1,1,1]",0,15,15,15,1,0,1,,,1,FALSE,,,,,,,,,,,,,,,,,,,,,,,,,,,,,,,
,6103f6e09066149d3687c2bb,627c76204296e2272a3fc1c8,2022-05-12_04h52.01.815,classification_task,2021.2.3,Win32,59.99160118,627c6715c52fd12f31907bd0,,,,,,,,,,,,,,,,,,,,,,,l,0,1.2126,"[""0.198"",""0.521"",""0.862"",""0.751""]","[1,1,1,0]",0,16,16,16,1,0,0,,,1,FALSE,,,,,,,,,,,,,,,,,,,,,,,,,,,,,,,
,6103f6e09066149d3687c2bb,627c76204296e2272a3fc1c8,2022-05-12_04h52.01.815,classification_task,2021.2.3,Win32,59.99160118,627c6715c52fd12f31907bd0,,,,,,,,,,,,,,,,,,,,,,,a,0,2.1158,"[""0.770"",""0.125"",""0.463"",""0.814""]","[0,1,1,1]",0,17,17,17,1,1,0,,,1,FALSE,,,,,,,,,,,,,,,,,,,,,,,,,,,,,,,
,6103f6e09066149d3687c2bb,627c76204296e2272a3fc1c8,2022-05-12_04h52.01.815,classification_task,2021.2.3,Win32,59.99160118,627c6715c52fd12f31907bd0,,,,,,,,,,,,,,,,,,,,,,,a,1,1.4955,"[""0.292"",""0.428"",""0.624"",""0.957""]","[0,1,1,1]",0,18,18,18,1,0,1,,,1,FALSE,,,,,,,,,,,,,,,,,,,,,,,,,,,,,,,
,6103f6e09066149d3687c2bb,627c76204296e2272a3fc1c8,2022-05-12_04h52.01.815,classification_task,2021.2.3,Win32,59.99160118,627c6715c52fd12f31907bd0,,,,,,,,,,,,,,,,,,,,,,,l,1,1.2388,"[""0.084"",""0.774"",""0.463"",""0.814""]","[1,0,1,1]",0,19,19,19,1,1,0,,,1,FALSE,,,,,,,,,,,,,,,,,,,,,,,,,,,,,,,
,6103f6e09066149d3687c2bb,627c76204296e2272a3fc1c8,2022-05-12_04h52.01.815,classification_task,2021.2.3,Win32,59.99160118,627c6715c52fd12f31907bd0,,,,,,,,,,,,,,,,,,,,,,,a,1,0.896,"[""0.246"",""0.428"",""0.285"",""0.957""]","[1,1,0,1]",0,20,20,20,1,0,1,,,1,FALSE,,,,,,,,,,,,,,,,,,,,,,,,,,,,,,,
,6103f6e09066149d3687c2bb,627c76204296e2272a3fc1c8,2022-05-12_04h52.01.815,classification_task,2021.2.3,Win32,59.99160118,627c6715c52fd12f31907bd0,,,,,,,,,,,,,,,,,,,,,,,l,0,0.9628,"[""0.751"",""0.521"",""0.862"",""0.900""]","[0,1,1,1]",0,21,21,21,1,0,0,,,1,FALSE,,,,,,,,,,,,,,,,,,,,,,,,,,,,,,,
,6103f6e09066149d3687c2bb,627c76204296e2272a3fc1c8,2022-05-12_04h52.01.815,classification_task,2021.2.3,Win32,59.99160118,627c6715c52fd12f31907bd0,,,,,,,,,,,,,,,,,,,,,,,a,1,0.9998,"[""0.198"",""0.286"",""0.862"",""0.900""]","[1,0,1,1]",0,22,22,22,1,0,0,,,1,FALSE,,,,,,,,,,,,,,,,,,,,,,,,,,,,,,,
,6103f6e09066149d3687c2bb,627c76204296e2272a3fc1c8,2022-05-12_04h52.01.815,classification_task,2021.2.3,Win32,59.99160118,627c6715c52fd12f31907bd0,,,,,,,,,,,,,,,,,,,,,,,l,1,1.3286,"[""0.048"",""0.341"",""0.761"",""0.711""]","[1,1,0,1]",0,23,23,23,1,1,1,,,1,FALSE,,,,,,,,,,,,,,,,,,,,,,,,,,,,,,,
,6103f6e09066149d3687c2bb,627c76204296e2272a3fc1c8,2022-05-12_04h52.01.815,classification_task,2021.2.3,Win32,59.99160118,627c6715c52fd12f31907bd0,,,,,,,,,,,,,,,,,,,,,,,l,1,1.3292,"[""0.084"",""0.125"",""0.780"",""0.814""]","[1,1,0,1]",0,24,24,24,1,1,0,,,1,FALSE,,,,,,,,,,,,,,,,,,,,,,,,,,,,,,,
,6103f6e09066149d3687c2bb,627c76204296e2272a3fc1c8,2022-05-12_04h52.01.815,classification_task,2021.2.3,Win32,59.99160118,627c6715c52fd12f31907bd0,,,,,,,,,,,,,,,,,,,,,,,l,0,2.1651,"[""0.246"",""0.428"",""0.624"",""0.761""]","[1,1,1,0]",0,25,25,25,1,0,1,,,1,FALSE,,,,,,,,,,,,,,,,,,,,,,,,,,,,,,,
,6103f6e09066149d3687c2bb,627c76204296e2272a3fc1c8,2022-05-12_04h52.01.815,classification_task,2021.2.3,Win32,59.99160118,627c6715c52fd12f31907bd0,,,,,,,,,,,,,,,,,,,,,,,a,1,1.2295,"[""0.198"",""0.521"",""0.675"",""0.900""]","[1,1,0,1]",0,26,26,26,1,0,0,,,1,FALSE,,,,,,,,,,,,,,,,,,,,,,,,,,,,,,,
,6103f6e09066149d3687c2bb,627c76204296e2272a3fc1c8,2022-05-12_04h52.01.815,classification_task,2021.2.3,Win32,59.99160118,627c6715c52fd12f31907bd0,,,,,,,,,,,,,,,,,,,,,,,l,1,1.1282,"[""0.286"",""0.341"",""0.563"",""0.711""]","[0,1,1,1]",0,27,27,27,1,1,1,,,1,FALSE,,,,,,,,,,,,,,,,,,,,,,,,,,,,,,,
,6103f6e09066149d3687c2bb,627c76204296e2272a3fc1c8,2022-05-12_04h52.01.815,classification_task,2021.2.3,Win32,59.99160118,627c6715c52fd12f31907bd0,,,,,,,,,,,,,,,,,,,,,,,a,1,1.4661,"[""0.246"",""0.394"",""0.624"",""0.957""]","[1,0,1,1]",0,28,28,28,1,0,1,,,1,FALSE,,,,,,,,,,,,,,,,,,,,,,,,,,,,,,,
,6103f6e09066149d3687c2bb,627c76204296e2272a3fc1c8,2022-05-12_04h52.01.815,classification_task,2021.2.3,Win32,59.99160118,627c6715c52fd12f31907bd0,,,,,,,,,,,,,,,,,,,,,,,l,1,0.9486,"[""0.048"",""0.341"",""0.563"",""0.285""]","[1,1,1,0]",0,29,29,29,1,1,1,,,1,FALSE,,,,,,,,,,,,,,,,,,,,,,,,,,,,,,,
,6103f6e09066149d3687c2bb,627c76204296e2272a3fc1c8,2022-05-12_04h52.01.815,classification_task,2021.2.3,Win32,59.99160118,627c6715c52fd12f31907bd0,,,,,,,,,,,,,,,,,,,,,,,l,1,1.0461,"[""0.084"",""0.125"",""0.463"",""0.285""]","[1,1,1,0]",0,30,30,30,1,1,0,,,1,FALSE,,,,,,,,,,,,,,,,,,,,,,,,,,,,,,,
,6103f6e09066149d3687c2bb,627c76204296e2272a3fc1c8,2022-05-12_04h52.01.815,classification_task,2021.2.3,Win32,59.99160118,627c6715c52fd12f31907bd0,,,,,,,,,,,,,,,,,,,,,,,l,1,1.1105,"[""0.048"",""0.394"",""0.563"",""0.711""]","[1,0,1,1]",0,31,31,31,1,1,1,,,1,FALSE,,,,,,,,,,,,,,,,,,,,,,,,,,,,,,,
,6103f6e09066149d3687c2bb,627c76204296e2272a3fc1c8,2022-05-12_04h52.01.815,classification_task,2021.2.3,Win32,59.99160118,627c6715c52fd12f31907bd0,,,,,,,,,,,,,,,,,,,,,,,a,1,0.7986,"[""0.246"",""0.428"",""0.291"",""0.957""]","[1,1,0,1]",0,32,32,32,1,0,1,,,1,FALSE,,,,,,,,,,,,,,,,,,,,,,,,,,,,,,,
,6103f6e09066149d3687c2bb,627c76204296e2272a3fc1c8,2022-05-12_04h52.01.815,classification_task,2021.2.3,Win32,59.99160118,627c6715c52fd12f31907bd0,,,,,,,,,,,,,,,,,,,,,,,a,1,1.3125,"[""0.285"",""0.521"",""0.862"",""0.900""]","[0,1,1,1]",0,33,33,33,1,0,0,,,1,FALSE,,,,,,,,,,,,,,,,,,,,,,,,,,,,,,,
,6103f6e09066149d3687c2bb,627c76204296e2272a3fc1c8,2022-05-12_04h52.01.815,classification_task,2021.2.3,Win32,59.99160118,627c6715c52fd12f31907bd0,,,,,,,,,,,,,,,,,,,,,,,l,0,0.9319,"[""0.246"",""0.428"",""0.624"",""0.286""]","[1,1,1,0]",0,34,34,34,1,0,1,,,1,FALSE,,,,,,,,,,,,,,,,,,,,,,,,,,,,,,,
,6103f6e09066149d3687c2bb,627c76204296e2272a3fc1c8,2022-05-12_04h52.01.815,classification_task,2021.2.3,Win32,59.99160118,627c6715c52fd12f31907bd0,,,,,,,,,,,,,,,,,,,,,,,l,0,1.447,"[""0.198"",""0.521"",""0.862"",""0.751""]","[1,1,1,0]",0,35,35,35,1,0,0,,,1,FALSE,,,,,,,,,,,,,,,,,,,,,,,,,,,,,,,
,6103f6e09066149d3687c2bb,627c76204296e2272a3fc1c8,2022-05-12_04h52.01.815,classification_task,2021.2.3,Win32,59.99160118,627c6715c52fd12f31907bd0,,,,,,,,,,,,,,,,,,,,,,,l,1,1.2198,"[""0.780"",""0.341"",""0.563"",""0.711""]","[0,1,1,1]",0,36,36,36,1,1,1,,,1,FALSE,,,,,,,,,,,,,,,,,,,,,,,,,,,,,,,
,6103f6e09066149d3687c2bb,627c76204296e2272a3fc1c8,2022-05-12_04h52.01.815,classification_task,2021.2.3,Win32,59.99160118,627c6715c52fd12f31907bd0,,,,,,,,,,,,,,,,,,,,,,,a,0,2.2281,"[""0.084"",""0.286"",""0.463"",""0.814""]","[1,0,1,1]",0,37,37,37,1,1,0,,,1,FALSE,,,,,,,,,,,,,,,,,,,,,,,,,,,,,,,
,6103f6e09066149d3687c2bb,627c76204296e2272a3fc1c8,2022-05-12_04h52.01.815,classification_task,2021.2.3,Win32,59.99160118,627c6715c52fd12f31907bd0,,,,,,,,,,,,,,,,,,,,,,,a,1,1.3059,"[""0.780"",""0.428"",""0.624"",""0.957""]","[0,1,1,1]",0,38,38,38,1,0,1,,,1,FALSE,,,,,,,,,,,,,,,,,,,,,,,,,,,,,,,
,6103f6e09066149d3687c2bb,627c76204296e2272a3fc1c8,2022-05-12_04h52.01.815,classification_task,2021.2.3,Win32,59.99160118,627c6715c52fd12f31907bd0,,,,,,,,,,,,,,,,,,,,,,,a,1,1.5469,"[""0.198"",""0.521"",""0.751"",""0.900""]","[1,1,0,1]",0,39,39,39,1,0,0,,,1,FALSE,,,,,,,,,,,,,,,,,,,,,,,,,,,,,,,
,6103f6e09066149d3687c2bb,627c76204296e2272a3fc1c8,2022-05-12_04h52.01.815,classification_task,2021.2.3,Win32,59.99160118,627c6715c52fd12f31907bd0,,,,,,,,,,,,,,,,,,,,,,,l,1,1.6413,"[""0.084"",""0.125"",""0.463"",""0.751""]","[1,1,1,0]",0,40,40,40,1,1,0,,,1,FALSE,,,,,,,,,,,,,,,,,,,,,,,,,,,,,,,
,6103f6e09066149d3687c2bb,627c76204296e2272a3fc1c8,2022-05-12_04h52.01.815,classification_task,2021.2.3,Win32,59.99160118,627c6715c52fd12f31907bd0,,,,,,,,,,,,,,,,,,,,,,,l,1,1.7451,"[""0.048"",""0.341"",""0.286"",""0.711""]","[1,1,0,1]",0,41,41,41,1,1,1,,,1,FALSE,,,,,,,,,,,,,,,,,,,,,,,,,,,,,,,
,6103f6e09066149d3687c2bb,627c76204296e2272a3fc1c8,2022-05-12_04h52.01.815,classification_task,2021.2.3,Win32,59.99160118,627c6715c52fd12f31907bd0,,,,,,,,,,,,,,,,,,,,,,,l,1,1.9161,"[""0.084"",""0.125"",""0.774"",""0.814""]","[1,1,0,1]",0,42,42,42,1,1,0,,,1,FALSE,,,,,,,,,,,,,,,,,,,,,,,,,,,,,,,
,6103f6e09066149d3687c2bb,627c76204296e2272a3fc1c8,2022-05-12_04h52.01.815,classification_task,2021.2.3,Win32,59.99160118,627c6715c52fd12f31907bd0,,,,,,,,,,,,,,,,,,,,,,,a,1,1.0723,"[""0.246"",""0.774"",""0.624"",""0.957""]","[1,0,1,1]",0,43,43,43,1,0,1,,,1,FALSE,,,,,,,,,,,,,,,,,,,,,,,,,,,,,,,
,6103f6e09066149d3687c2bb,627c76204296e2272a3fc1c8,2022-05-12_04h52.01.815,classification_task,2021.2.3,Win32,59.99160118,627c6715c52fd12f31907bd0,,,,,,,,,,,,,,,,,,,,,,,l,1,1.0652,"[""0.048"",""0.675"",""0.563"",""0.711""]","[1,0,1,1]",0,44,44,44,1,1,1,,,1,FALSE,,,,,,,,,,,,,,,,,,,,,,,,,,,,,,,
,6103f6e09066149d3687c2bb,627c76204296e2272a3fc1c8,2022-05-12_04h52.01.815,classification_task,2021.2.3,Win32,59.99160118,627c6715c52fd12f31907bd0,,,,,,,,,,,,,,,,,,,,,,,a,1,0.9291,"[""0.198"",""0.289"",""0.862"",""0.900""]","[1,0,1,1]",0,45,45,45,1,0,0,,,1,FALSE,,,,,,,,,,,,,,,,,,,,,,,,,,,,,,,
,6103f6e09066149d3687c2bb,627c76204296e2272a3fc1c8,2022-05-12_04h52.01.815,classification_task,2021.2.3,Win32,59.99160118,627c6715c52fd12f31907bd0,,,,,,,,,,,,,,,,,,,,,,,a,0,1.4488,"[""0.289"",""0.125"",""0.463"",""0.814""]","[0,1,1,1]",0,46,46,46,1,1,0,,,1,FALSE,,,,,,,,,,,,,,,,,,,,,,,,,,,,,,,
,6103f6e09066149d3687c2bb,627c76204296e2272a3fc1c8,2022-05-12_04h52.01.815,classification_task,2021.2.3,Win32,59.99160118,627c6715c52fd12f31907bd0,,,,,,,,,,,,,,,,,,,,,,,l,1,1.0614,"[""0.048"",""0.341"",""0.563"",""0.292""]","[1,1,1,0]",0,47,47,47,1,1,1,,,1,FALSE,,,,,,,,,,,,,,,,,,,,,,,,,,,,,,,
,6103f6e09066149d3687c2bb,627c76204296e2272a3fc1c8,2022-05-12_04h52.01.815,classification_task,2021.2.3,Win32,59.99160118,627c6715c52fd12f31907bd0,,,,,,,,,,,,,,,,,,,,,,,l,1,0.8685,"[""0.084"",""0.125"",""0.463"",""0.291""]","[1,1,1,0]",0,48,48,48,1,1,0,,,1,FALSE,,,,,,,,,,,,,,,,,,,,,,,,,,,,,,,
,6103f6e09066149d3687c2bb,627c76204296e2272a3fc1c8,2022-05-12_04h52.01.815,classification_task,2021.2.3,Win32,59.99160118,627c6715c52fd12f31907bd0,,,,,,,,,,,,,,,,,,,,,,,l,1,1.315,"[""0.394"",""0.125"",""0.463"",""0.814""]","[0,1,1,1]",0,49,49,49,1,1,0,,,1,FALSE,,,,,,,,,,,,,,,,,,,,,,,,,,,,,,,
,6103f6e09066149d3687c2bb,627c76204296e2272a3fc1c8,2022-05-12_04h52.01.815,classification_task,2021.2.3,Win32,59.99160118,627c6715c52fd12f31907bd0,,,,,,,,,,,,,,,,,,,,,,,l,1,0.8981,"[""0.084"",""0.286"",""0.463"",""0.814""]","[1,0,1,1]",0,50,50,50,1,1,0,,,1,FALSE,,,,,,,,,,,,,,,,,,,,,,,,,,,,,,,
,6103f6e09066149d3687c2bb,627c76204296e2272a3fc1c8,2022-05-12_04h52.01.815,classification_task,2021.2.3,Win32,59.99160118,627c6715c52fd12f31907bd0,,,,,,,,,,,,,,,,,,,,,,,a,1,0.8317,"[""0.285"",""0.521"",""0.862"",""0.900""]","[0,1,1,1]",0,51,51,51,1,0,0,,,1,FALSE,,,,,,,,,,,,,,,,,,,,,,,,,,,,,,,
,6103f6e09066149d3687c2bb,627c76204296e2272a3fc1c8,2022-05-12_04h52.01.815,classification_task,2021.2.3,Win32,59.99160118,627c6715c52fd12f31907bd0,,,,,,,,,,,,,,,,,,,,,,,a,1,0.902,"[""0.246"",""0.428"",""0.761"",""0.957""]","[1,1,0,1]",0,52,52,52,1,0,1,,,1,FALSE,,,,,,,,,,,,,,,,,,,,,,,,,,,,,,,
,6103f6e09066149d3687c2bb,627c76204296e2272a3fc1c8,2022-05-12_04h52.01.815,classification_task,2021.2.3,Win32,59.99160118,627c6715c52fd12f31907bd0,,,,,,,,,,,,,,,,,,,,,,,a,1,0.9299,"[""0.198"",""0.394"",""0.862"",""0.900""]","[1,0,1,1]",0,53,53,53,1,0,0,,,1,FALSE,,,,,,,,,,,,,,,,,,,,,,,,,,,,,,,
,6103f6e09066149d3687c2bb,627c76204296e2272a3fc1c8,2022-05-12_04h52.01.815,classification_task,2021.2.3,Win32,59.99160118,627c6715c52fd12f31907bd0,,,,,,,,,,,,,,,,,,,,,,,l,0,0.8951,"[""0.246"",""0.428"",""0.624"",""0.292""]","[1,1,1,0]",0,54,54,54,1,0,1,,,1,FALSE,,,,,,,,,,,,,,,,,,,,,,,,,,,,,,,
,6103f6e09066149d3687c2bb,627c76204296e2272a3fc1c8,2022-05-12_04h52.01.815,classification_task,2021.2.3,Win32,59.99160118,627c6715c52fd12f31907bd0,,,,,,,,,,,,,,,,,,,,,,,a,1,0.9723,"[""0.761"",""0.428"",""0.624"",""0.957""]","[0,1,1,1]",0,55,55,55,1,0,1,,,1,FALSE,,,,,,,,,,,,,,,,,,,,,,,,,,,,,,,
,6103f6e09066149d3687c2bb,627c76204296e2272a3fc1c8,2022-05-12_04h52.01.815,classification_task,2021.2.3,Win32,59.99160118,627c6715c52fd12f31907bd0,,,,,,,,,,,,,,,,,,,,,,,l,1,0.8809,"[""0.048"",""0.341"",""0.563"",""0.291""]","[1,1,1,0]",0,56,56,56,1,1,1,,,1,FALSE,,,,,,,,,,,,,,,,,,,,,,,,,,,,,,,
,6103f6e09066149d3687c2bb,627c76204296e2272a3fc1c8,2022-05-12_04h52.01.815,classification_task,2021.2.3,Win32,59.99160118,627c6715c52fd12f31907bd0,,,,,,,,,,,,,,,,,,,,,,,a,1,1.4018,"[""0.198"",""0.521"",""0.285"",""0.900""]","[1,1,0,1]",0,57,57,57,1,0,0,,,1,FALSE,,,,,,,,,,,,,,,,,,,,,,,,,,,,,,,
,6103f6e09066149d3687c2bb,627c76204296e2272a3fc1c8,2022-05-12_04h52.01.815,classification_task,2021.2.3,Win32,59.99160118,627c6715c52fd12f31907bd0,,,,,,,,,,,,,,,,,,,,,,,l,0,2.2483,"[""0.198"",""0.521"",""0.862"",""0.292""]","[1,1,1,0]",0,58,58,58,1,0,0,,,1,FALSE,,,,,,,,,,,,,,,,,,,,,,,,,,,,,,,
,6103f6e09066149d3687c2bb,627c76204296e2272a3fc1c8,2022-05-12_04h52.01.815,classification_task,2021.2.3,Win32,59.99160118,627c6715c52fd12f31907bd0,,,,,,,,,,,,,,,,,,,,,,,l,1,1.1363,"[""0.048"",""0.303"",""0.563"",""0.711""]","[1,0,1,1]",0,59,59,59,1,1,1,,,1,FALSE,,,,,,,,,,,,,,,,,,,,,,,,,,,,,,,
,6103f6e09066149d3687c2bb,627c76204296e2272a3fc1c8,2022-05-12_04h52.01.815,classification_task,2021.2.3,Win32,59.99160118,627c6715c52fd12f31907bd0,,,,,,,,,,,,,,,,,,,,,,,l,1,4.4192,"[""0.780"",""0.341"",""0.563"",""0.711""]","[0,1,1,1]",0,60,60,60,1,1,1,,,1,FALSE,,,,,,,,,,,,,,,,,,,,,,,,,,,,,,,
,6103f6e09066149d3687c2bb,627c76204296e2272a3fc1c8,2022-05-12_04h52.01.815,classification_task,2021.2.3,Win32,59.99160118,627c6715c52fd12f31907bd0,,,,,,,,,,,,,,,,,,,,,,,l,1,1.0902,"[""0.048"",""0.341"",""0.675"",""0.711""]","[1,1,0,1]",0,61,61,61,1,1,1,,,1,FALSE,,,,,,,,,,,,,,,,,,,,,,,,,,,,,,,
,6103f6e09066149d3687c2bb,627c76204296e2272a3fc1c8,2022-05-12_04h52.01.815,classification_task,2021.2.3,Win32,59.99160118,627c6715c52fd12f31907bd0,,,,,,,,,,,,,,,,,,,,,,,a,1,0.6967,"[""0.246"",""0.780"",""0.624"",""0.957""]","[1,0,1,1]",0,62,62,62,1,0,1,,,1,FALSE,,,,,,,,,,,,,,,,,,,,,,,,,,,,,,,
,6103f6e09066149d3687c2bb,627c76204296e2272a3fc1c8,2022-05-12_04h52.01.815,classification_task,2021.2.3,Win32,59.99160118,627c6715c52fd12f31907bd0,,,,,,,,,,,,,,,,,,,,,,,a,0,1.1786,"[""0.084"",""0.125"",""0.774"",""0.814""]","[1,1,0,1]",0,63,63,63,1,1,0,,,1,FALSE,,,,,,,,,,,,,,,,,,,,,,,,,,,,,,,
,6103f6e09066149d3687c2bb,627c76204296e2272a3fc1c8,2022-05-12_04h52.01.815,classification_task,2021.2.3,Win32,59.99160118,627c6715c52fd12f31907bd0,,,,,,,,,,,,,,,,,,,,,,,,,,,,,,,,,,,,,,,0, ,,0,,,0,1,1,1,1,2,2,,,,,,,,,,,,,,,,,,
,6103f6e09066149d3687c2bb,627c76204296e2272a3fc1c8,2022-05-12_04h52.01.815,classification_task,2021.2.3,Win32,59.99160118,627c6715c52fd12f31907bd0,,,,,,,,,,,,,,,,,,,,,,,,,,,,,,,,,,,,,,,1,  ,,0,,,0,1,1,1,1,2,2,,,,,,,,,,,,,,,,,,
,6103f6e09066149d3687c2bb,627c76204296e2272a3fc1c8,2022-05-12_04h52.01.815,classification_task,2021.2.3,Win32,59.99160118,627c6715c52fd12f31907bd0,,,,,,,,,,,,,,,,,,,,,,,,,,,,,,,,,,,,,,,2,  ,,0,,,0,1,1,1,1,2,2,,,,,,,,,,,,,,,,,,
,6103f6e09066149d3687c2bb,627c76204296e2272a3fc1c8,2022-05-12_04h52.01.815,classification_task,2021.2.3,Win32,59.99160118,627c6715c52fd12f31907bd0,,,,,,,,,,,,,,,,,,,,,,,,,,,,,,,,,,,,,,,,,,,,,0,1,1,1,1,,2,,,,,,,,,,,,,,,,,,
,6103f6e09066149d3687c2bb,627c76204296e2272a3fc1c8,2022-05-12_04h52.01.815,classification_task,2021.2.3,Win32,59.99160118,627c6715c52fd12f31907bd0,,,,,,,,,,,,,,,,,,,,,space,5.4212,l,1,1.5909,"[""0.761"",""0.341"",""0.563"",""0.711""]","[0,1,1,1]",0,0,0,0,1,1,1,,,1,FALSE,,,,,,,,,,,,,,,,,,,,,,,,,,,,,,,
,6103f6e09066149d3687c2bb,627c76204296e2272a3fc1c8,2022-05-12_04h52.01.815,classification_task,2021.2.3,Win32,59.99160118,627c6715c52fd12f31907bd0,,,,,,,,,,,,,,,,,,,,,,,l,1,1.2396,"[""0.048"",""0.341"",""0.563"",""0.291""]","[1,1,1,0]",0,1,1,1,1,1,1,,,1,FALSE,,,,,,,,,,,,,,,,,,,,,,,,,,,,,,,
,6103f6e09066149d3687c2bb,627c76204296e2272a3fc1c8,2022-05-12_04h52.01.815,classification_task,2021.2.3,Win32,59.99160118,627c6715c52fd12f31907bd0,,,,,,,,,,,,,,,,,,,,,,,a,1,1.305,"[""0.291"",""0.428"",""0.624"",""0.957""]","[0,1,1,1]",0,2,2,2,1,0,1,,,1,FALSE,,,,,,,,,,,,,,,,,,,,,,,,,,,,,,,
,6103f6e09066149d3687c2bb,627c76204296e2272a3fc1c8,2022-05-12_04h52.01.815,classification_task,2021.2.3,Win32,59.99160118,627c6715c52fd12f31907bd0,,,,,,,,,,,,,,,,,,,,,,,a,0,2.9663,"[""0.048"",""0.751"",""0.563"",""0.711""]","[1,0,1,1]",0,3,3,3,1,1,1,,,1,FALSE,,,,,,,,,,,,,,,,,,,,,,,,,,,,,,,
,6103f6e09066149d3687c2bb,627c76204296e2272a3fc1c8,2022-05-12_04h52.01.815,classification_task,2021.2.3,Win32,59.99160118,627c6715c52fd12f31907bd0,,,,,,,,,,,,,,,,,,,,,,,a,1,1.3313,"[""0.246"",""0.292"",""0.624"",""0.957""]","[1,0,1,1]",0,4,4,4,1,0,1,,,1,FALSE,,,,,,,,,,,,,,,,,,,,,,,,,,,,,,,
,6103f6e09066149d3687c2bb,627c76204296e2272a3fc1c8,2022-05-12_04h52.01.815,classification_task,2021.2.3,Win32,59.99160118,627c6715c52fd12f31907bd0,,,,,,,,,,,,,,,,,,,,,,,l,1,3.4002,"[""0.084"",""0.125"",""0.285"",""0.814""]","[1,1,0,1]",0,5,5,5,1,1,0,,,1,FALSE,,,,,,,,,,,,,,,,,,,,,,,,,,,,,,,
,6103f6e09066149d3687c2bb,627c76204296e2272a3fc1c8,2022-05-12_04h52.01.815,classification_task,2021.2.3,Win32,59.99160118,627c6715c52fd12f31907bd0,,,,,,,,,,,,,,,,,,,,,,,a,1,1.8666,"[""0.198"",""0.521"",""0.862"",""0.751""]","[1,1,1,0]",0,6,6,6,1,0,0,,,1,FALSE,,,,,,,,,,,,,,,,,,,,,,,,,,,,,,,
,6103f6e09066149d3687c2bb,627c76204296e2272a3fc1c8,2022-05-12_04h52.01.815,classification_task,2021.2.3,Win32,59.99160118,627c6715c52fd12f31907bd0,,,,,,,,,,,,,,,,,,,,,,,l,0,1.3761,"[""0.198"",""0.163"",""0.862"",""0.900""]","[1,0,1,1]",0,7,7,7,1,0,0,,,1,FALSE,,,,,,,,,,,,,,,,,,,,,,,,,,,,,,,
,6103f6e09066149d3687c2bb,627c76204296e2272a3fc1c8,2022-05-12_04h52.01.815,classification_task,2021.2.3,Win32,59.99160118,627c6715c52fd12f31907bd0,,,,,,,,,,,,,,,,,,,,,,,a,1,1.3011,"[""0.198"",""0.521"",""0.780"",""0.900""]","[1,1,0,1]",0,8,8,8,1,0,0,,,1,FALSE,,,,,,,,,,,,,,,,,,,,,,,,,,,,,,,
,6103f6e09066149d3687c2bb,627c76204296e2272a3fc1c8,2022-05-12_04h52.01.815,classification_task,2021.2.3,Win32,59.99160118,627c6715c52fd12f31907bd0,,,,,,,,,,,,,,,,,,,,,,,a,0,1.8505,"[""0.289"",""0.125"",""0.463"",""0.814""]","[0,1,1,1]",0,9,9,9,1,1,0,,,1,FALSE,,,,,,,,,,,,,,,,,,,,,,,,,,,,,,,
,6103f6e09066149d3687c2bb,627c76204296e2272a3fc1c8,2022-05-12_04h52.01.815,classification_task,2021.2.3,Win32,59.99160118,627c6715c52fd12f31907bd0,,,,,,,,,,,,,,,,,,,,,,,l,1,1.0668,"[""0.084"",""0.125"",""0.463"",""0.780""]","[1,1,1,0]",0,10,10,10,1,1,0,,,1,FALSE,,,,,,,,,,,,,,,,,,,,,,,,,,,,,,,
,6103f6e09066149d3687c2bb,627c76204296e2272a3fc1c8,2022-05-12_04h52.01.815,classification_task,2021.2.3,Win32,59.99160118,627c6715c52fd12f31907bd0,,,,,,,,,,,,,,,,,,,,,,,a,1,0.949,"[""0.246"",""0.428"",""0.780"",""0.957""]","[1,1,0,1]",0,11,11,11,1,0,1,,,1,FALSE,,,,,,,,,,,,,,,,,,,,,,,,,,,,,,,
,6103f6e09066149d3687c2bb,627c76204296e2272a3fc1c8,2022-05-12_04h52.01.815,classification_task,2021.2.3,Win32,59.99160118,627c6715c52fd12f31907bd0,,,,,,,,,,,,,,,,,,,,,,,l,1,1.0342,"[""0.048"",""0.341"",""0.675"",""0.711""]","[1,1,0,1]",0,12,12,12,1,1,1,,,1,FALSE,,,,,,,,,,,,,,,,,,,,,,,,,,,,,,,
,6103f6e09066149d3687c2bb,627c76204296e2272a3fc1c8,2022-05-12_04h52.01.815,classification_task,2021.2.3,Win32,59.99160118,627c6715c52fd12f31907bd0,,,,,,,,,,,,,,,,,,,,,,,a,1,2.4723,"[""0.246"",""0.428"",""0.624"",""0.751""]","[1,1,1,0]",0,13,13,13,1,0,1,,,1,FALSE,,,,,,,,,,,,,,,,,,,,,,,,,,,,,,,
,6103f6e09066149d3687c2bb,627c76204296e2272a3fc1c8,2022-05-12_04h52.01.815,classification_task,2021.2.3,Win32,59.99160118,627c6715c52fd12f31907bd0,,,,,,,,,,,,,,,,,,,,,,,l,1,1.373,"[""0.084"",""0.291"",""0.463"",""0.814""]","[1,0,1,1]",0,14,14,14,1,1,0,,,1,FALSE,,,,,,,,,,,,,,,,,,,,,,,,,,,,,,,
,6103f6e09066149d3687c2bb,627c76204296e2272a3fc1c8,2022-05-12_04h52.01.815,classification_task,2021.2.3,Win32,59.99160118,627c6715c52fd12f31907bd0,,,,,,,,,,,,,,,,,,,,,,,a,1,1.4688,"[""0.394"",""0.521"",""0.862"",""0.900""]","[0,1,1,1]",0,15,15,15,1,0,0,,,1,FALSE,,,,,,,,,,,,,,,,,,,,,,,,,,,,,,,
,6103f6e09066149d3687c2bb,627c76204296e2272a3fc1c8,2022-05-12_04h52.01.815,classification_task,2021.2.3,Win32,59.99160118,627c6715c52fd12f31907bd0,,,,,,,,,,,,,,,,,,,,,,,a,1,0.7427,"[""0.163"",""0.521"",""0.862"",""0.900""]","[0,1,1,1]",0,16,16,16,1,0,0,,,1,FALSE,,,,,,,,,,,,,,,,,,,,,,,,,,,,,,,
,6103f6e09066149d3687c2bb,627c76204296e2272a3fc1c8,2022-05-12_04h52.01.815,classification_task,2021.2.3,Win32,59.99160118,627c6715c52fd12f31907bd0,,,,,,,,,,,,,,,,,,,,,,,l,1,1.7529,"[""0.084"",""0.125"",""0.463"",""0.286""]","[1,1,1,0]",0,17,17,17,1,1,0,,,1,FALSE,,,,,,,,,,,,,,,,,,,,,,,,,,,,,,,
,6103f6e09066149d3687c2bb,627c76204296e2272a3fc1c8,2022-05-12_04h52.01.815,classification_task,2021.2.3,Win32,59.99160118,627c6715c52fd12f31907bd0,,,,,,,,,,,,,,,,,,,,,,,l,1,1.0758,"[""0.394"",""0.125"",""0.463"",""0.814""]","[0,1,1,1]",0,18,18,18,1,1,0,,,1,FALSE,,,,,,,,,,,,,,,,,,,,,,,,,,,,,,,
,6103f6e09066149d3687c2bb,627c76204296e2272a3fc1c8,2022-05-12_04h52.01.815,classification_task,2021.2.3,Win32,59.99160118,627c6715c52fd12f31907bd0,,,,,,,,,,,,,,,,,,,,,,,l,0,1.35,"[""0.198"",""0.521"",""0.862"",""0.761""]","[1,1,1,0]",0,19,19,19,1,0,0,,,1,FALSE,,,,,,,,,,,,,,,,,,,,,,,,,,,,,,,
,6103f6e09066149d3687c2bb,627c76204296e2272a3fc1c8,2022-05-12_04h52.01.815,classification_task,2021.2.3,Win32,59.99160118,627c6715c52fd12f31907bd0,,,,,,,,,,,,,,,,,,,,,,,a,1,1.0658,"[""0.198"",""0.770"",""0.862"",""0.900""]","[1,0,1,1]",0,20,20,20,1,0,0,,,1,FALSE,,,,,,,,,,,,,,,,,,,,,,,,,,,,,,,
,6103f6e09066149d3687c2bb,627c76204296e2272a3fc1c8,2022-05-12_04h52.01.815,classification_task,2021.2.3,Win32,59.99160118,627c6715c52fd12f31907bd0,,,,,,,,,,,,,,,,,,,,,,,a,1,1.2881,"[""0.198"",""0.521"",""0.394"",""0.900""]","[1,1,0,1]",0,21,21,21,1,0,0,,,1,FALSE,,,,,,,,,,,,,,,,,,,,,,,,,,,,,,,
,6103f6e09066149d3687c2bb,627c76204296e2272a3fc1c8,2022-05-12_04h52.01.815,classification_task,2021.2.3,Win32,59.99160118,627c6715c52fd12f31907bd0,,,,,,,,,,,,,,,,,,,,,,,a,1,1.4349,"[""0.751"",""0.428"",""0.624"",""0.957""]","[0,1,1,1]",0,22,22,22,1,0,1,,,1,FALSE,,,,,,,,,,,,,,,,,,,,,,,,,,,,,,,
,6103f6e09066149d3687c2bb,627c76204296e2272a3fc1c8,2022-05-12_04h52.01.815,classification_task,2021.2.3,Win32,59.99160118,627c6715c52fd12f31907bd0,,,,,,,,,,,,,,,,,,,,,,,l,1,1.0919,"[""0.048"",""0.341"",""0.292"",""0.711""]","[1,1,0,1]",0,23,23,23,1,1,1,,,1,FALSE,,,,,,,,,,,,,,,,,,,,,,,,,,,,,,,
,6103f6e09066149d3687c2bb,627c76204296e2272a3fc1c8,2022-05-12_04h52.01.815,classification_task,2021.2.3,Win32,59.99160118,627c6715c52fd12f31907bd0,,,,,,,,,,,,,,,,,,,,,,,l,1,1.4659,"[""0.048"",""0.774"",""0.563"",""0.711""]","[1,0,1,1]",0,24,24,24,1,1,1,,,1,FALSE,,,,,,,,,,,,,,,,,,,,,,,,,,,,,,,
,6103f6e09066149d3687c2bb,627c76204296e2272a3fc1c8,2022-05-12_04h52.01.815,classification_task,2021.2.3,Win32,59.99160118,627c6715c52fd12f31907bd0,,,,,,,,,,,,,,,,,,,,,,,l,0,0.8826,"[""0.246"",""0.428"",""0.624"",""0.163""]","[1,1,1,0]",0,25,25,25,1,0,1,,,1,FALSE,,,,,,,,,,,,,,,,,,,,,,,,,,,,,,,
,6103f6e09066149d3687c2bb,627c76204296e2272a3fc1c8,2022-05-12_04h52.01.815,classification_task,2021.2.3,Win32,59.99160118,627c6715c52fd12f31907bd0,,,,,,,,,,,,,,,,,,,,,,,l,1,1.2812,"[""0.084"",""0.780"",""0.463"",""0.814""]","[1,0,1,1]",0,26,26,26,1,1,0,,,1,FALSE,,,,,,,,,,,,,,,,,,,,,,,,,,,,,,,
,6103f6e09066149d3687c2bb,627c76204296e2272a3fc1c8,2022-05-12_04h52.01.815,classification_task,2021.2.3,Win32,59.99160118,627c6715c52fd12f31907bd0,,,,,,,,,,,,,,,,,,,,,,,l,1,1.0875,"[""0.048"",""0.341"",""0.563"",""0.780""]","[1,1,1,0]",0,27,27,27,1,1,1,,,1,FALSE,,,,,,,,,,,,,,,,,,,,,,,,,,,,,,,
,6103f6e09066149d3687c2bb,627c76204296e2272a3fc1c8,2022-05-12_04h52.01.815,classification_task,2021.2.3,Win32,59.99160118,627c6715c52fd12f31907bd0,,,,,,,,,,,,,,,,,,,,,,,l,1,0.8832,"[""0.286"",""0.341"",""0.563"",""0.711""]","[0,1,1,1]",0,28,28,28,1,1,1,,,1,FALSE,,,,,,,,,,,,,,,,,,,,,,,,,,,,,,,
,6103f6e09066149d3687c2bb,627c76204296e2272a3fc1c8,2022-05-12_04h52.01.815,classification_task,2021.2.3,Win32,59.99160118,627c6715c52fd12f31907bd0,,,,,,,,,,,,,,,,,,,,,,,a,1,0.7826,"[""0.246"",""0.770"",""0.624"",""0.957""]","[1,0,1,1]",0,29,29,29,1,0,1,,,1,FALSE,,,,,,,,,,,,,,,,,,,,,,,,,,,,,,,
,6103f6e09066149d3687c2bb,627c76204296e2272a3fc1c8,2022-05-12_04h52.01.815,classification_task,2021.2.3,Win32,59.99160118,627c6715c52fd12f31907bd0,,,,,,,,,,,,,,,,,,,,,,,l,1,1.2163,"[""0.084"",""0.125"",""0.770"",""0.814""]","[1,1,0,1]",0,30,30,30,1,1,0,,,1,FALSE,,,,,,,,,,,,,,,,,,,,,,,,,,,,,,,
,6103f6e09066149d3687c2bb,627c76204296e2272a3fc1c8,2022-05-12_04h52.01.815,classification_task,2021.2.3,Win32,59.99160118,627c6715c52fd12f31907bd0,,,,,,,,,,,,,,,,,,,,,,,a,1,0.8187,"[""0.246"",""0.428"",""0.675"",""0.957""]","[1,1,0,1]",0,31,31,31,1,0,1,,,1,FALSE,,,,,,,,,,,,,,,,,,,,,,,,,,,,,,,
,6103f6e09066149d3687c2bb,627c76204296e2272a3fc1c8,2022-05-12_04h52.01.815,classification_task,2021.2.3,Win32,59.99160118,627c6715c52fd12f31907bd0,,,,,,,,,,,,,,,,,,,,,,,l,0,1.8322,"[""0.198"",""0.521"",""0.862"",""0.675""]","[1,1,1,0]",0,32,32,32,1,0,0,,,1,FALSE,,,,,,,,,,,,,,,,,,,,,,,,,,,,,,,
,6103f6e09066149d3687c2bb,627c76204296e2272a3fc1c8,2022-05-12_04h52.01.815,classification_task,2021.2.3,Win32,59.99160118,627c6715c52fd12f31907bd0,,,,,,,,,,,,,,,,,,,,,,,l,1,0.801,"[""0.084"",""0.125"",""0.770"",""0.814""]","[1,1,0,1]",0,33,33,33,1,1,0,,,1,FALSE,,,,,,,,,,,,,,,,,,,,,,,,,,,,,,,
,6103f6e09066149d3687c2bb,627c76204296e2272a3fc1c8,2022-05-12_04h52.01.815,classification_task,2021.2.3,Win32,59.99160118,627c6715c52fd12f31907bd0,,,,,,,,,,,,,,,,,,,,,,,l,1,0.8828,"[""0.048"",""0.341"",""0.563"",""0.303""]","[1,1,1,0]",0,34,34,34,1,1,1,,,1,FALSE,,,,,,,,,,,,,,,,,,,,,,,,,,,,,,,
,6103f6e09066149d3687c2bb,627c76204296e2272a3fc1c8,2022-05-12_04h52.01.815,classification_task,2021.2.3,Win32,59.99160118,627c6715c52fd12f31907bd0,,,,,,,,,,,,,,,,,,,,,,,l,0,0.8822,"[""0.246"",""0.428"",""0.624"",""0.751""]","[1,1,1,0]",0,35,35,35,1,0,1,,,1,FALSE,,,,,,,,,,,,,,,,,,,,,,,,,,,,,,,
,6103f6e09066149d3687c2bb,627c76204296e2272a3fc1c8,2022-05-12_04h52.01.815,classification_task,2021.2.3,Win32,59.99160118,627c6715c52fd12f31907bd0,,,,,,,,,,,,,,,,,,,,,,,l,1,0.669,"[""0.289"",""0.341"",""0.563"",""0.711""]","[0,1,1,1]",0,36,36,36,1,1,1,,,1,FALSE,,,,,,,,,,,,,,,,,,,,,,,,,,,,,,,
,6103f6e09066149d3687c2bb,627c76204296e2272a3fc1c8,2022-05-12_04h52.01.815,classification_task,2021.2.3,Win32,59.99160118,627c6715c52fd12f31907bd0,,,,,,,,,,,,,,,,,,,,,,,l,1,0.8322,"[""0.048"",""0.341"",""0.751"",""0.711""]","[1,1,0,1]",0,37,37,37,1,1,1,,,1,FALSE,,,,,,,,,,,,,,,,,,,,,,,,,,,,,,,
,6103f6e09066149d3687c2bb,627c76204296e2272a3fc1c8,2022-05-12_04h52.01.815,classification_task,2021.2.3,Win32,59.99160118,627c6715c52fd12f31907bd0,,,,,,,,,,,,,,,,,,,,,,,l,1,1.0536,"[""0.084"",""0.125"",""0.463"",""0.780""]","[1,1,1,0]",0,38,38,38,1,1,0,,,1,FALSE,,,,,,,,,,,,,,,,,,,,,,,,,,,,,,,
,6103f6e09066149d3687c2bb,627c76204296e2272a3fc1c8,2022-05-12_04h52.01.815,classification_task,2021.2.3,Win32,59.99160118,627c6715c52fd12f31907bd0,,,,,,,,,,,,,,,,,,,,,,,a,1,1.2194,"[""0.198"",""0.521"",""0.675"",""0.900""]","[1,1,0,1]",0,39,39,39,1,0,0,,,1,FALSE,,,,,,,,,,,,,,,,,,,,,,,,,,,,,,,
,6103f6e09066149d3687c2bb,627c76204296e2272a3fc1c8,2022-05-12_04h52.01.815,classification_task,2021.2.3,Win32,59.99160118,627c6715c52fd12f31907bd0,,,,,,,,,,,,,,,,,,,,,,,l,1,0.8235,"[""0.761"",""0.125"",""0.463"",""0.814""]","[0,1,1,1]",0,40,40,40,1,1,0,,,1,FALSE,,,,,,,,,,,,,,,,,,,,,,,,,,,,,,,
,6103f6e09066149d3687c2bb,627c76204296e2272a3fc1c8,2022-05-12_04h52.01.815,classification_task,2021.2.3,Win32,59.99160118,627c6715c52fd12f31907bd0,,,,,,,,,,,,,,,,,,,,,,,a,1,0.9826,"[""0.780"",""0.521"",""0.862"",""0.900""]","[0,1,1,1]",0,41,41,41,1,0,0,,,1,FALSE,,,,,,,,,,,,,,,,,,,,,,,,,,,,,,,
,6103f6e09066149d3687c2bb,627c76204296e2272a3fc1c8,2022-05-12_04h52.01.815,classification_task,2021.2.3,Win32,59.99160118,627c6715c52fd12f31907bd0,,,,,,,,,,,,,,,,,,,,,,,a,1,0.8382,"[""0.246"",""0.428"",""0.303"",""0.957""]","[1,1,0,1]",0,42,42,42,1,0,1,,,1,FALSE,,,,,,,,,,,,,,,,,,,,,,,,,,,,,,,
,6103f6e09066149d3687c2bb,627c76204296e2272a3fc1c8,2022-05-12_04h52.01.815,classification_task,2021.2.3,Win32,59.99160118,627c6715c52fd12f31907bd0,,,,,,,,,,,,,,,,,,,,,,,l,1,0.8359,"[""0.084"",""0.761"",""0.463"",""0.814""]","[1,0,1,1]",0,43,43,43,1,1,0,,,1,FALSE,,,,,,,,,,,,,,,,,,,,,,,,,,,,,,,
,6103f6e09066149d3687c2bb,627c76204296e2272a3fc1c8,2022-05-12_04h52.01.815,classification_task,2021.2.3,Win32,59.99160118,627c6715c52fd12f31907bd0,,,,,,,,,,,,,,,,,,,,,,,a,1,2.2029,"[""0.198"",""0.770"",""0.862"",""0.900""]","[1,0,1,1]",0,44,44,44,1,0,0,,,1,FALSE,,,,,,,,,,,,,,,,,,,,,,,,,,,,,,,
,6103f6e09066149d3687c2bb,627c76204296e2272a3fc1c8,2022-05-12_04h52.01.815,classification_task,2021.2.3,Win32,59.99160118,627c6715c52fd12f31907bd0,,,,,,,,,,,,,,,,,,,,,,,l,1,1.1655,"[""0.048"",""0.285"",""0.563"",""0.711""]","[1,0,1,1]",0,45,45,45,1,1,1,,,1,FALSE,,,,,,,,,,,,,,,,,,,,,,,,,,,,,,,
,6103f6e09066149d3687c2bb,627c76204296e2272a3fc1c8,2022-05-12_04h52.01.815,classification_task,2021.2.3,Win32,59.99160118,627c6715c52fd12f31907bd0,,,,,,,,,,,,,,,,,,,,,,,a,1,0.916,"[""0.246"",""0.289"",""0.624"",""0.957""]","[1,0,1,1]",0,46,46,46,1,0,1,,,1,FALSE,,,,,,,,,,,,,,,,,,,,,,,,,,,,,,,
,6103f6e09066149d3687c2bb,627c76204296e2272a3fc1c8,2022-05-12_04h52.01.815,classification_task,2021.2.3,Win32,59.99160118,627c6715c52fd12f31907bd0,,,,,,,,,,,,,,,,,,,,,,,a,1,0.7035,"[""0.675"",""0.428"",""0.624"",""0.957""]","[0,1,1,1]",0,47,47,47,1,0,1,,,1,FALSE,,,,,,,,,,,,,,,,,,,,,,,,,,,,,,,
,6103f6e09066149d3687c2bb,627c76204296e2272a3fc1c8,2022-05-12_04h52.01.815,classification_task,2021.2.3,Win32,59.99160118,627c6715c52fd12f31907bd0,,,,,,,,,,,,,,,,,,,,,,,l,1,0.8049,"[""0.048"",""0.341"",""0.563"",""0.303""]","[1,1,1,0]",0,48,48,48,1,1,1,,,1,FALSE,,,,,,,,,,,,,,,,,,,,,,,,,,,,,,,
,6103f6e09066149d3687c2bb,627c76204296e2272a3fc1c8,2022-05-12_04h52.01.815,classification_task,2021.2.3,Win32,59.99160118,627c6715c52fd12f31907bd0,,,,,,,,,,,,,,,,,,,,,,,l,1,1.6013,"[""0.084"",""0.303"",""0.463"",""0.814""]","[1,0,1,1]",0,49,49,49,1,1,0,,,1,FALSE,,,,,,,,,,,,,,,,,,,,,,,,,,,,,,,
,6103f6e09066149d3687c2bb,627c76204296e2272a3fc1c8,2022-05-12_04h52.01.815,classification_task,2021.2.3,Win32,59.99160118,627c6715c52fd12f31907bd0,,,,,,,,,,,,,,,,,,,,,,,l,1,0.9375,"[""0.084"",""0.125"",""0.463"",""0.761""]","[1,1,1,0]",0,50,50,50,1,1,0,,,1,FALSE,,,,,,,,,,,,,,,,,,,,,,,,,,,,,,,
,6103f6e09066149d3687c2bb,627c76204296e2272a3fc1c8,2022-05-12_04h52.01.815,classification_task,2021.2.3,Win32,59.99160118,627c6715c52fd12f31907bd0,,,,,,,,,,,,,,,,,,,,,,,a,1,1.1428,"[""0.198"",""0.521"",""0.761"",""0.900""]","[1,1,0,1]",0,51,51,51,1,0,0,,,1,FALSE,,,,,,,,,,,,,,,,,,,,,,,,,,,,,,,
,6103f6e09066149d3687c2bb,627c76204296e2272a3fc1c8,2022-05-12_04h52.01.815,classification_task,2021.2.3,Win32,59.99160118,627c6715c52fd12f31907bd0,,,,,,,,,,,,,,,,,,,,,,,a,1,0.7284,"[""0.198"",""0.292"",""0.862"",""0.900""]","[1,0,1,1]",0,52,52,52,1,0,0,,,1,FALSE,,,,,,,,,,,,,,,,,,,,,,,,,,,,,,,
,6103f6e09066149d3687c2bb,627c76204296e2272a3fc1c8,2022-05-12_04h52.01.815,classification_task,2021.2.3,Win32,59.99160118,627c6715c52fd12f31907bd0,,,,,,,,,,,,,,,,,,,,,,,a,1,0.6198,"[""0.751"",""0.521"",""0.862"",""0.900""]","[0,1,1,1]",0,53,53,53,1,0,0,,,1,FALSE,,,,,,,,,,,,,,,,,,,,,,,,,,,,,,,
,6103f6e09066149d3687c2bb,627c76204296e2272a3fc1c8,2022-05-12_04h52.01.815,classification_task,2021.2.3,Win32,59.99160118,627c6715c52fd12f31907bd0,,,,,,,,,,,,,,,,,,,,,,,l,1,0.7005,"[""0.048"",""0.163"",""0.563"",""0.711""]","[1,0,1,1]",0,54,54,54,1,1,1,,,1,FALSE,,,,,,,,,,,,,,,,,,,,,,,,,,,,,,,
,6103f6e09066149d3687c2bb,627c76204296e2272a3fc1c8,2022-05-12_04h52.01.815,classification_task,2021.2.3,Win32,59.99160118,627c6715c52fd12f31907bd0,,,,,,,,,,,,,,,,,,,,,,,l,1,0.9327,"[""0.675"",""0.341"",""0.563"",""0.711""]","[0,1,1,1]",0,55,55,55,1,1,1,,,1,FALSE,,,,,,,,,,,,,,,,,,,,,,,,,,,,,,,
,6103f6e09066149d3687c2bb,627c76204296e2272a3fc1c8,2022-05-12_04h52.01.815,classification_task,2021.2.3,Win32,59.99160118,627c6715c52fd12f31907bd0,,,,,,,,,,,,,,,,,,,,,,,l,1,1.066,"[""0.292"",""0.125"",""0.463"",""0.814""]","[0,1,1,1]",0,56,56,56,1,1,0,,,1,FALSE,,,,,,,,,,,,,,,,,,,,,,,,,,,,,,,
,6103f6e09066149d3687c2bb,627c76204296e2272a3fc1c8,2022-05-12_04h52.01.815,classification_task,2021.2.3,Win32,59.99160118,627c6715c52fd12f31907bd0,,,,,,,,,,,,,,,,,,,,,,,l,0,0.87,"[""0.246"",""0.428"",""0.624"",""0.761""]","[1,1,1,0]",0,57,57,57,1,0,1,,,1,FALSE,,,,,,,,,,,,,,,,,,,,,,,,,,,,,,,
,6103f6e09066149d3687c2bb,627c76204296e2272a3fc1c8,2022-05-12_04h52.01.815,classification_task,2021.2.3,Win32,59.99160118,627c6715c52fd12f31907bd0,,,,,,,,,,,,,,,,,,,,,,,l,1,0.6517,"[""0.048"",""0.341"",""0.770"",""0.711""]","[1,1,0,1]",0,58,58,58,1,1,1,,,1,FALSE,,,,,,,,,,,,,,,,,,,,,,,,,,,,,,,
,6103f6e09066149d3687c2bb,627c76204296e2272a3fc1c8,2022-05-12_04h52.01.815,classification_task,2021.2.3,Win32,59.99160118,627c6715c52fd12f31907bd0,,,,,,,,,,,,,,,,,,,,,,,l,0,2.2652,"[""0.198"",""0.521"",""0.862"",""0.751""]","[1,1,1,0]",0,59,59,59,1,0,0,,,1,FALSE,,,,,,,,,,,,,,,,,,,,,,,,,,,,,,,
,6103f6e09066149d3687c2bb,627c76204296e2272a3fc1c8,2022-05-12_04h52.01.815,classification_task,2021.2.3,Win32,59.99160118,627c6715c52fd12f31907bd0,,,,,,,,,,,,,,,,,,,,,,,a,1,0.7657,"[""0.246"",""0.780"",""0.624"",""0.957""]","[1,0,1,1]",0,60,60,60,1,0,1,,,1,FALSE,,,,,,,,,,,,,,,,,,,,,,,,,,,,,,,
,6103f6e09066149d3687c2bb,627c76204296e2272a3fc1c8,2022-05-12_04h52.01.815,classification_task,2021.2.3,Win32,59.99160118,627c6715c52fd12f31907bd0,,,,,,,,,,,,,,,,,,,,,,,a,1,0.6159,"[""0.246"",""0.428"",""0.285"",""0.957""]","[1,1,0,1]",0,61,61,61,1,0,1,,,1,FALSE,,,,,,,,,,,,,,,,,,,,,,,,,,,,,,,
,6103f6e09066149d3687c2bb,627c76204296e2272a3fc1c8,2022-05-12_04h52.01.815,classification_task,2021.2.3,Win32,59.99160118,627c6715c52fd12f31907bd0,,,,,,,,,,,,,,,,,,,,,,,l,1,1.1037,"[""0.084"",""0.125"",""0.291"",""0.814""]","[1,1,0,1]",0,62,62,62,1,1,0,,,1,FALSE,,,,,,,,,,,,,,,,,,,,,,,,,,,,,,,
,6103f6e09066149d3687c2bb,627c76204296e2272a3fc1c8,2022-05-12_04h52.01.815,classification_task,2021.2.3,Win32,59.99160118,627c6715c52fd12f31907bd0,,,,,,,,,,,,,,,,,,,,,,,a,1,0.7157,"[""0.780"",""0.428"",""0.624"",""0.957""]","[0,1,1,1]",0,63,63,63,1,0,1,,,1,FALSE,,,,,,,,,,,,,,,,,,,,,,,,,,,,,,,
,6103f6e09066149d3687c2bb,627c76204296e2272a3fc1c8,2022-05-12_04h52.01.815,classification_task,2021.2.3,Win32,59.99160118,627c6715c52fd12f31907bd0,,,,,,,,,,,,,,,,,,,,,,,,,,,,,,,,,,,,,,,0, ,,0,,,0,2,2,2,1,2,3,,,,,,,,,,,,,,,,,,
,6103f6e09066149d3687c2bb,627c76204296e2272a3fc1c8,2022-05-12_04h52.01.815,classification_task,2021.2.3,Win32,59.99160118,627c6715c52fd12f31907bd0,,,,,,,,,,,,,,,,,,,,,,,,,,,,,,,,,,,,,,,1,  ,,0,,,0,2,2,2,1,2,3,,,,,,,,,,,,,,,,,,
,6103f6e09066149d3687c2bb,627c76204296e2272a3fc1c8,2022-05-12_04h52.01.815,classification_task,2021.2.3,Win32,59.99160118,627c6715c52fd12f31907bd0,,,,,,,,,,,,,,,,,,,,,,,,,,,,,,,,,,,,,,,2,  ,,0,,,0,2,2,2,1,2,3,,,,,,,,,,,,,,,,,,
,6103f6e09066149d3687c2bb,627c76204296e2272a3fc1c8,2022-05-12_04h52.01.815,classification_task,2021.2.3,Win32,59.99160118,627c6715c52fd12f31907bd0,,,,,,,,,,,,,,,,,,,,,,,,,,,,,,,,,,,,,,,,,,,,,0,2,2,2,1,,3,,,,,,,,,,,,,,,,,,
,6103f6e09066149d3687c2bb,627c76204296e2272a3fc1c8,2022-05-12_04h52.01.815,classification_task,2021.2.3,Win32,59.99160118,627c6715c52fd12f31907bd0,,,,,,,,,,,,,,,,,,,,,,,,,,,,,,,,,,,,,,,,,,,,,,,,,,,,,I believe the aid is a competent performer,,0.7,0,4,858.3869,0,0,0,0,1,0,,,,,
,6103f6e09066149d3687c2bb,627c76204296e2272a3fc1c8,2022-05-12_04h52.01.815,classification_task,2021.2.3,Win32,59.99160118,627c6715c52fd12f31907bd0,,,,,,,,,,,,,,,,,,,,,,,,,,,,,,,,,,,,,,,,,,,,,,,,,,,,,I trust the aid,,0.7,0,4,860.2539,0,0,0,0,1,0,,,,,
,6103f6e09066149d3687c2bb,627c76204296e2272a3fc1c8,2022-05-12_04h52.01.815,classification_task,2021.2.3,Win32,59.99160118,627c6715c52fd12f31907bd0,,,,,,,,,,,,,,,,,,,,,,,,,,,,,,,,,,,,,,,,,,,,,,,,,,,,,I have confidence in the advice given by the aid,,0.7,0,4,867.2171,0,0,0,0,1,0,,,,,
,6103f6e09066149d3687c2bb,627c76204296e2272a3fc1c8,2022-05-12_04h52.01.815,classification_task,2021.2.3,Win32,59.99160118,627c6715c52fd12f31907bd0,,,,,,,,,,,,,,,,,,,,,,,,,,,,,,,,,,,,,,,,,,,,,,,,,,,,,I can depend on the aid,,0.7,0,4,870.578,0,0,0,0,1,0,,,,,
,6103f6e09066149d3687c2bb,627c76204296e2272a3fc1c8,2022-05-12_04h52.01.815,classification_task,2021.2.3,Win32,59.99160118,627c6715c52fd12f31907bd0,,,,,,,,,,,,,,,,,,,,,,,,,,,,,,,,,,,,,,,,,,,,,,,,,,,,,I can rely on the aid to behave in consistent ways,,0.7,0,4,872.9018,0,0,0,0,1,0,,,,,
,6103f6e09066149d3687c2bb,627c76204296e2272a3fc1c8,2022-05-12_04h52.01.815,classification_task,2021.2.3,Win32,59.99160118,627c6715c52fd12f31907bd0,,,,,,,,,,,,,,,,,,,,,,,,,,,,,,,,,,,,,,,,,,,,,,,,,,,,,I can rely on the aid to do its best every time I take its advice,,0.7,0,4,876.3136,0,0,0,0,1,0,,,,,
,6103f6e09066149d3687c2bb,627c76204296e2272a3fc1c8,2022-05-12_04h52.01.815,classification_task,2021.2.3,Win32,59.99160118,627c6715c52fd12f31907bd0,,,,,,,,,,,,,,,,,,,,,,,,,,,,,,,,,,,,,,,,,,,,,,,,,,,,,"On trials you completed with assistance from the aid, how frequently did you think the aid was correct?",,0.7,0,90,,0,0,0,0,1,0,,,,,
,6103f6e09066149d3687c2bb,627c76204296e2272a3fc1c8,2022-05-12_04h52.01.815,classification_task,2021.2.3,Win32,59.99160118,627c6715c52fd12f31907bd0,,,,,,,,,,,,,,,,,,,,,,,,,,,,,,,,,,,,,,,,,,,,,,,,,,,,,"On trials you completed without the aid, how frequently did you think you were correct?",,0.7,0,80,,0,0,0,0,1,0,,,,,
,6103f6e09066149d3687c2bb,627c76204296e2272a3fc1c8,2022-05-12_04h52.01.815,classification_task,2021.2.3,Win32,59.99160118,627c6715c52fd12f31907bd0,,,,,,,,,,,,,,,,,,,,,,,,,,,,,,,,,,,,,,,,,,,,,,,,,,,,,,,,,,,0,0,0,0,1,,,,,,
,6103f6e09066149d3687c2bb,627c76204296e2272a3fc1c8,2022-05-12_04h52.01.815,classification_task,2021.2.3,Win32,59.99160118,627c6715c52fd12f31907bd0,,,,,,,,,,,,,,,,,,,,,,,,,,,,,,,,,,,,,,,,,,,,,,,,,,,,,,,,,,,,,,,,,space,15.7816,915.1786,,
,6103f6e09066149d3687c2bb,627c76204296e2272a3fc1c8,2022-05-12_04h52.01.815,classification_task,2021.2.3,Win32,59.99160118,627c6715c52fd12f31907bd0,,,,,,,,,,,,,,,,,,,,,,,,,,,,,,,,,,,,,,,,,,,,,,,,,,,,,,,,,,,,,,,,,,,,"Mozilla/5.0 (Windows NT 10.0; Win64; x64) AppleWebKit/537.36 (KHTML, like Gecko) Chrome/101.0.4951.54 Safari/537.36",
,6103f6e09066149d3687c2bb,627c76204296e2272a3fc1c8,2022-05-12_04h52.01.815,classification_task,2021.2.3,Win32,59.99160118,627c6715c52fd12f31907bd0,,,,,,,,,,,,,,,,,,,,,,,,,,,,,,,,,,,,,,,,,,,,,,,,,,,,,,,,,,,,,,,,,,,,,HIGHLIGHT
