usingWebGL,participant,session,date,expName,psychopyVersion,OS,frameRate,study_id,signatures_friend,signatures_foe,band_ranges_top,band_ranges_bottom,formitemText,formtype,formundefined,formitemWidth,formindex,formresponse,formrt,key_resp_2.keys,key_resp_2.rt,tute_resp.keys,tute_resp.rt,tutorial.thisRepN,tutorial.thisTrialN,tutorial.thisN,tutorial.thisIndex,tutorial.ran,key_resp_4.keys,key_resp_4.rt,key_resp.keys,key_resp.corr,key_resp.rt,lines_presented,is_signal_presented,trials.thisRepN,trials.thisTrialN,trials.thisN,trials.thisIndex,trials.ran,vessel,active_band,lines,is_signal,supported_pos,catch_trial,debrief_formindex,debrief_formitemText,debrief_formtype,debrief_formitemWidth,debrief_formresponse,debrief_formrt,phases.thisRepN,phases.thisTrialN,phases.thisN,phases.thisIndex,phases.ran,phases.order,phase,key_resp_3.keys,trustitemText,trusttype,trustitemWidth,trustindex,trustresponse,trustrt,support_status.thisRepN,support_status.thisTrialN,support_status.thisN,support_status.thisIndex,support_status.ran,support_status.order,key_resp_5.keys,key_resp_5.rt,globalClockTime,userAgent,manualCondition
TRUE,6106c8ad588fa9a7e605acc8,627c67de61dd416ac7e46de8,2022-05-12_03h50.59.335,classification_task,2021.2.3,Win32,60.63178318,627c6715c52fd12f31907bd0,,,,,,,,,,,,,,,,,,,,,,,,,,,,,,,,,,,,,,,,,,,,,,,,,,,,,,,,,,,,,,,,,,,,,
,6106c8ad588fa9a7e605acc8,627c67de61dd416ac7e46de8,2022-05-12_03h50.59.335,classification_task,2021.2.3,Win32,60.63178318,627c6715c52fd12f31907bd0,"[[""0.312"",""0.394"",""0.642"",""0.861""],[""0.161"",""0.509"",""0.758"",""0.971""]]","[[""0.082"",""0.254"",""0.576"",""0.684""],[""0.126"",""0.204"",""0.437"",""0.826""]]","[1,10]","[100,1000]",Video game experience,,,0.7,0,,,,,,,,,,,,,,,,,,,,,,,,,,,,,,,,,,,,,,,,,,,,,,,,,,,,,,,,,,,,
,6106c8ad588fa9a7e605acc8,627c67de61dd416ac7e46de8,2022-05-12_03h50.59.335,classification_task,2021.2.3,Win32,60.63178318,627c6715c52fd12f31907bd0,,,,,Approximately how many hours did you spend playing video games in the last week?,,,0.7,0,0,,,,,,,,,,,,,,,,,,,,,,,,,,,,,,,,,,,,,,,,,,,,,,,,,,,,,,,,,,,
,6106c8ad588fa9a7e605acc8,627c67de61dd416ac7e46de8,2022-05-12_03h50.59.335,classification_task,2021.2.3,Win32,60.63178318,627c6715c52fd12f31907bd0,,,,,"Which game did you play the most this year? (Enter ""None"" if you didn't play any)",,,0.7,0,None,,,,,,,,,,,,,,,,,,,,,,,,,,,,,,,,,,,,,,,,,,,,,,,,,,,,,,,,,,,
,6106c8ad588fa9a7e605acc8,627c67de61dd416ac7e46de8,2022-05-12_03h50.59.335,classification_task,2021.2.3,Win32,60.63178318,627c6715c52fd12f31907bd0,,,,,Visual perception,,,0.7,0,,,,,,,,,,,,,,,,,,,,,,,,,,,,,,,,,,,,,,,,,,,,,,,,,,,,,,,,,,,,
,6106c8ad588fa9a7e605acc8,627c67de61dd416ac7e46de8,2022-05-12_03h50.59.335,classification_task,2021.2.3,Win32,60.63178318,627c6715c52fd12f31907bd0,,,,,Do you have any form of color blindness?,,,0.7,0,No,35.5893,,,,,,,,,,,,,,,,,,,,,,,,,,,,,,,,,,,,,,,,,,,,,,,,,,,,,,,,,,
,6106c8ad588fa9a7e605acc8,627c67de61dd416ac7e46de8,2022-05-12_03h50.59.335,classification_task,2021.2.3,Win32,60.63178318,627c6715c52fd12f31907bd0,,,,,Do you use software to change the colour temperature of your screen (e.g. f.lux)?,,,0.7,0,No,39.335,,,,,,,,,,,,,,,,,,,,,,,,,,,,,,,,,,,,,,,,,,,,,,,,,,,,,,,,,,
,6106c8ad588fa9a7e605acc8,627c67de61dd416ac7e46de8,2022-05-12_03h50.59.335,classification_task,2021.2.3,Win32,60.63178318,627c6715c52fd12f31907bd0,,,,,,,,,,,,space,19.7172,space,6.7409,0,0,0,0,1,,,,,,,,,,,,,,,,,,,,,,,,,,,,,,,,,,,,,,,,,,,,,,,,,
,6106c8ad588fa9a7e605acc8,627c67de61dd416ac7e46de8,2022-05-12_03h50.59.335,classification_task,2021.2.3,Win32,60.63178318,627c6715c52fd12f31907bd0,,,,,,,,,,,,,,space,9.1699,1,0,1,0,1,,,,,,,,,,,,,,,,,,,,,,,,,,,,,,,,,,,,,,,,,,,,,,,,,
,6106c8ad588fa9a7e605acc8,627c67de61dd416ac7e46de8,2022-05-12_03h50.59.335,classification_task,2021.2.3,Win32,60.63178318,627c6715c52fd12f31907bd0,,,,,,,,,,,,,,space,25.6806,2,0,2,0,1,,,,,,,,,,,,,,,,,,,,,,,,,,,,,,,,,,,,,,,,,,,,,,,,,
,6106c8ad588fa9a7e605acc8,627c67de61dd416ac7e46de8,2022-05-12_03h50.59.335,classification_task,2021.2.3,Win32,60.63178318,627c6715c52fd12f31907bd0,,,,,,,,,,,,,,space,16.3783,3,0,3,0,1,,,,,,,,,,,,,,,,,,,,,,,,,,,,,,,,,,,,,,,,,,,,,,,,,
,6106c8ad588fa9a7e605acc8,627c67de61dd416ac7e46de8,2022-05-12_03h50.59.335,classification_task,2021.2.3,Win32,60.63178318,627c6715c52fd12f31907bd0,,,,,,,,,,,,,,space,9.2977,4,0,4,0,1,,,,,,,,,,,,,,,,,,,,,,,,,,,,,,,,,,,,,,,,,,,,,,,,,
,6106c8ad588fa9a7e605acc8,627c67de61dd416ac7e46de8,2022-05-12_03h50.59.335,classification_task,2021.2.3,Win32,60.63178318,627c6715c52fd12f31907bd0,,,,,,,,,,,,,,,,,,,,,space,9.4758,a,1,4.9273,"[""0.312"",""0.394"",""0.642"",""0.474""]","[1,1,1,0]",0,0,0,0,1,0,0,,,1,FALSE,,,,,,,,,,,,,,,,,,,,,,,,,,,,,,,
,6106c8ad588fa9a7e605acc8,627c67de61dd416ac7e46de8,2022-05-12_03h50.59.335,classification_task,2021.2.3,Win32,60.63178318,627c6715c52fd12f31907bd0,,,,,,,,,,,,,,,,,,,,,,,l,1,6.0262,"[""0.126"",""0.543"",""0.437"",""0.826""]","[1,0,1,1]",0,1,1,1,1,1,1,,,1,FALSE,,,,,,,,,,,,,,,,,,,,,,,,,,,,,,,
,6106c8ad588fa9a7e605acc8,627c67de61dd416ac7e46de8,2022-05-12_03h50.59.335,classification_task,2021.2.3,Win32,60.63178318,627c6715c52fd12f31907bd0,,,,,,,,,,,,,,,,,,,,,,,,0,,"[""0.349"",""0.509"",""0.758"",""0.971""]","[0,1,1,1]",0,2,2,2,1,0,1,,,1,FALSE,,,,,,,,,,,,,,,,,,,,,,,,,,,,,,,
,6106c8ad588fa9a7e605acc8,627c67de61dd416ac7e46de8,2022-05-12_03h50.59.335,classification_task,2021.2.3,Win32,60.63178318,627c6715c52fd12f31907bd0,,,,,,,,,,,,,,,,,,,,,,,l,1,6.4169,"[""0.126"",""0.204"",""0.437"",""0.349""]","[1,1,1,0]",0,3,3,3,1,1,1,,,1,FALSE,,,,,,,,,,,,,,,,,,,,,,,,,,,,,,,
,6106c8ad588fa9a7e605acc8,627c67de61dd416ac7e46de8,2022-05-12_03h50.59.335,classification_task,2021.2.3,Win32,60.63178318,627c6715c52fd12f31907bd0,,,,,,,,,,,,,,,,,,,,,,,l,1,6.879,"[""0.910"",""0.254"",""0.576"",""0.684""]","[0,1,1,1]",0,4,4,4,1,1,0,,,1,FALSE,,,,,,,,,,,,,,,,,,,,,,,,,,,,,,,
,6106c8ad588fa9a7e605acc8,627c67de61dd416ac7e46de8,2022-05-12_03h50.59.335,classification_task,2021.2.3,Win32,60.63178318,627c6715c52fd12f31907bd0,,,,,,,,,,,,,,,,,,,,,,,a,1,5.4141,"[""0.312"",""0.394"",""0.923"",""0.861""]","[1,1,0,1]",0,5,5,5,1,0,0,,,1,FALSE,,,,,,,,,,,,,,,,,,,,,,,,,,,,,,,
,6106c8ad588fa9a7e605acc8,627c67de61dd416ac7e46de8,2022-05-12_03h50.59.335,classification_task,2021.2.3,Win32,60.63178318,627c6715c52fd12f31907bd0,,,,,,,,,,,,,,,,,,,,,,,l,1,4.2495,"[""0.082"",""0.905"",""0.576"",""0.684""]","[1,0,1,1]",0,6,6,6,1,1,0,,,1,FALSE,,,,,,,,,,,,,,,,,,,,,,,,,,,,,,,
,6106c8ad588fa9a7e605acc8,627c67de61dd416ac7e46de8,2022-05-12_03h50.59.335,classification_task,2021.2.3,Win32,60.63178318,627c6715c52fd12f31907bd0,,,,,,,,,,,,,,,,,,,,,,,l,1,2.4011,"[""0.082"",""0.254"",""0.576"",""0.043""]","[1,1,1,0]",0,7,7,7,1,1,0,,,1,FALSE,,,,,,,,,,,,,,,,,,,,,,,,,,,,,,,
,6106c8ad588fa9a7e605acc8,627c67de61dd416ac7e46de8,2022-05-12_03h50.59.335,classification_task,2021.2.3,Win32,60.63178318,627c6715c52fd12f31907bd0,,,,,,,,,,,,,,,,,,,,,,,a,1,5.7478,"[""0.161"",""0.349"",""0.758"",""0.971""]","[1,0,1,1]",0,8,8,8,1,0,1,,,1,FALSE,,,,,,,,,,,,,,,,,,,,,,,,,,,,,,,
,6106c8ad588fa9a7e605acc8,627c67de61dd416ac7e46de8,2022-05-12_03h50.59.335,classification_task,2021.2.3,Win32,60.63178318,627c6715c52fd12f31907bd0,,,,,,,,,,,,,,,,,,,,,,,a,1,5.7685,"[""0.161"",""0.509"",""0.758"",""0.473""]","[1,1,1,0]",0,9,9,9,1,0,1,,,1,FALSE,,,,,,,,,,,,,,,,,,,,,,,,,,,,,,,
,6106c8ad588fa9a7e605acc8,627c67de61dd416ac7e46de8,2022-05-12_03h50.59.335,classification_task,2021.2.3,Win32,60.63178318,627c6715c52fd12f31907bd0,,,,,,,,,,,,,,,,,,,,,,,a,1,3.9521,"[""0.161"",""0.509"",""0.474"",""0.971""]","[1,1,0,1]",0,10,10,10,1,0,1,,,1,FALSE,,,,,,,,,,,,,,,,,,,,,,,,,,,,,,,
,6106c8ad588fa9a7e605acc8,627c67de61dd416ac7e46de8,2022-05-12_03h50.59.335,classification_task,2021.2.3,Win32,60.63178318,627c6715c52fd12f31907bd0,,,,,,,,,,,,,,,,,,,,,,,a,1,4.7498,"[""0.312"",""0.543"",""0.642"",""0.861""]","[1,0,1,1]",0,11,11,11,1,0,0,,,1,FALSE,,,,,,,,,,,,,,,,,,,,,,,,,,,,,,,
,6106c8ad588fa9a7e605acc8,627c67de61dd416ac7e46de8,2022-05-12_03h50.59.335,classification_task,2021.2.3,Win32,60.63178318,627c6715c52fd12f31907bd0,,,,,,,,,,,,,,,,,,,,,,,l,1,4.4474,"[""0.126"",""0.204"",""0.900"",""0.826""]","[1,1,0,1]",0,12,12,12,1,1,1,,,1,FALSE,,,,,,,,,,,,,,,,,,,,,,,,,,,,,,,
,6106c8ad588fa9a7e605acc8,627c67de61dd416ac7e46de8,2022-05-12_03h50.59.335,classification_task,2021.2.3,Win32,60.63178318,627c6715c52fd12f31907bd0,,,,,,,,,,,,,,,,,,,,,,,l,1,4.401,"[""0.037"",""0.204"",""0.437"",""0.826""]","[0,1,1,1]",0,13,13,13,1,1,1,,,1,FALSE,,,,,,,,,,,,,,,,,,,,,,,,,,,,,,,
,6106c8ad588fa9a7e605acc8,627c67de61dd416ac7e46de8,2022-05-12_03h50.59.335,classification_task,2021.2.3,Win32,60.63178318,627c6715c52fd12f31907bd0,,,,,,,,,,,,,,,,,,,,,,,l,1,3.4325,"[""0.082"",""0.254"",""0.923"",""0.684""]","[1,1,0,1]",0,14,14,14,1,1,0,,,1,FALSE,,,,,,,,,,,,,,,,,,,,,,,,,,,,,,,
,6106c8ad588fa9a7e605acc8,627c67de61dd416ac7e46de8,2022-05-12_03h50.59.335,classification_task,2021.2.3,Win32,60.63178318,627c6715c52fd12f31907bd0,,,,,,,,,,,,,,,,,,,,,,,a,1,3.8225,"[""0.352"",""0.394"",""0.642"",""0.861""]","[0,1,1,1]",0,15,15,15,1,0,0,,,1,FALSE,,,,,,,,,,,,,,,,,,,,,,,,,,,,,,,
,6106c8ad588fa9a7e605acc8,627c67de61dd416ac7e46de8,2022-05-12_03h50.59.335,classification_task,2021.2.3,Win32,60.63178318,627c6715c52fd12f31907bd0,,,,,,,,,,,,,,,,,,,,,,,l,1,2.8049,"[""0.082"",""0.254"",""0.576"",""0.043""]","[1,1,1,0]",0,16,16,16,1,1,0,,,1,FALSE,,,,,,,,,,,,,,,,,,,,,,,,,,,,,,,
,6106c8ad588fa9a7e605acc8,627c67de61dd416ac7e46de8,2022-05-12_03h50.59.335,classification_task,2021.2.3,Win32,60.63178318,627c6715c52fd12f31907bd0,,,,,,,,,,,,,,,,,,,,,,,l,1,3.2755,"[""0.924"",""0.254"",""0.576"",""0.684""]","[0,1,1,1]",0,17,17,17,1,1,0,,,1,FALSE,,,,,,,,,,,,,,,,,,,,,,,,,,,,,,,
,6106c8ad588fa9a7e605acc8,627c67de61dd416ac7e46de8,2022-05-12_03h50.59.335,classification_task,2021.2.3,Win32,60.63178318,627c6715c52fd12f31907bd0,,,,,,,,,,,,,,,,,,,,,,,a,1,8.5205,"[""0.910"",""0.394"",""0.642"",""0.861""]","[0,1,1,1]",0,18,18,18,1,0,0,,,1,FALSE,,,,,,,,,,,,,,,,,,,,,,,,,,,,,,,
,6106c8ad588fa9a7e605acc8,627c67de61dd416ac7e46de8,2022-05-12_03h50.59.335,classification_task,2021.2.3,Win32,60.63178318,627c6715c52fd12f31907bd0,,,,,,,,,,,,,,,,,,,,,,,a,1,4.0376,"[""0.312"",""0.394"",""0.642"",""0.543""]","[1,1,1,0]",0,19,19,19,1,0,0,,,1,FALSE,,,,,,,,,,,,,,,,,,,,,,,,,,,,,,,
,6106c8ad588fa9a7e605acc8,627c67de61dd416ac7e46de8,2022-05-12_03h50.59.335,classification_task,2021.2.3,Win32,60.63178318,627c6715c52fd12f31907bd0,,,,,,,,,,,,,,,,,,,,,,,l,1,4.0368,"[""0.126"",""0.905"",""0.437"",""0.826""]","[1,0,1,1]",0,20,20,20,1,1,1,,,1,FALSE,,,,,,,,,,,,,,,,,,,,,,,,,,,,,,,
,6106c8ad588fa9a7e605acc8,627c67de61dd416ac7e46de8,2022-05-12_03h50.59.335,classification_task,2021.2.3,Win32,60.63178318,627c6715c52fd12f31907bd0,,,,,,,,,,,,,,,,,,,,,,,l,1,4.6393,"[""0.082"",""0.254"",""0.924"",""0.684""]","[1,1,0,1]",0,21,21,21,1,1,0,,,1,FALSE,,,,,,,,,,,,,,,,,,,,,,,,,,,,,,,
,6106c8ad588fa9a7e605acc8,627c67de61dd416ac7e46de8,2022-05-12_03h50.59.335,classification_task,2021.2.3,Win32,60.63178318,627c6715c52fd12f31907bd0,,,,,,,,,,,,,,,,,,,,,,,a,1,3.9378,"[""0.312"",""0.924"",""0.642"",""0.861""]","[1,0,1,1]",0,22,22,22,1,0,0,,,1,FALSE,,,,,,,,,,,,,,,,,,,,,,,,,,,,,,,
,6106c8ad588fa9a7e605acc8,627c67de61dd416ac7e46de8,2022-05-12_03h50.59.335,classification_task,2021.2.3,Win32,60.63178318,627c6715c52fd12f31907bd0,,,,,,,,,,,,,,,,,,,,,,,l,1,3.2523,"[""0.082"",""0.361"",""0.576"",""0.684""]","[1,0,1,1]",0,23,23,23,1,1,0,,,1,FALSE,,,,,,,,,,,,,,,,,,,,,,,,,,,,,,,
,6106c8ad588fa9a7e605acc8,627c67de61dd416ac7e46de8,2022-05-12_03h50.59.335,classification_task,2021.2.3,Win32,60.63178318,627c6715c52fd12f31907bd0,,,,,,,,,,,,,,,,,,,,,,,a,1,4.6312,"[""0.161"",""0.509"",""0.923"",""0.971""]","[1,1,0,1]",0,24,24,24,1,0,1,,,1,FALSE,,,,,,,,,,,,,,,,,,,,,,,,,,,,,,,
,6106c8ad588fa9a7e605acc8,627c67de61dd416ac7e46de8,2022-05-12_03h50.59.335,classification_task,2021.2.3,Win32,60.63178318,627c6715c52fd12f31907bd0,,,,,,,,,,,,,,,,,,,,,,,a,1,3.0989,"[""0.161"",""0.910"",""0.758"",""0.971""]","[1,0,1,1]",0,25,25,25,1,0,1,,,1,FALSE,,,,,,,,,,,,,,,,,,,,,,,,,,,,,,,
,6106c8ad588fa9a7e605acc8,627c67de61dd416ac7e46de8,2022-05-12_03h50.59.335,classification_task,2021.2.3,Win32,60.63178318,627c6715c52fd12f31907bd0,,,,,,,,,,,,,,,,,,,,,,,a,1,1.9717,"[""0.312"",""0.394"",""0.473"",""0.861""]","[1,1,0,1]",0,26,26,26,1,0,0,,,1,FALSE,,,,,,,,,,,,,,,,,,,,,,,,,,,,,,,
,6106c8ad588fa9a7e605acc8,627c67de61dd416ac7e46de8,2022-05-12_03h50.59.335,classification_task,2021.2.3,Win32,60.63178318,627c6715c52fd12f31907bd0,,,,,,,,,,,,,,,,,,,,,,,a,1,1.7974,"[""0.161"",""0.509"",""0.758"",""0.543""]","[1,1,1,0]",0,27,27,27,1,0,1,,,1,FALSE,,,,,,,,,,,,,,,,,,,,,,,,,,,,,,,
,6106c8ad588fa9a7e605acc8,627c67de61dd416ac7e46de8,2022-05-12_03h50.59.335,classification_task,2021.2.3,Win32,60.63178318,627c6715c52fd12f31907bd0,,,,,,,,,,,,,,,,,,,,,,,l,0,8.2262,"[""0.361"",""0.509"",""0.758"",""0.971""]","[0,1,1,1]",0,28,28,28,1,0,1,,,1,FALSE,,,,,,,,,,,,,,,,,,,,,,,,,,,,,,,
,6106c8ad588fa9a7e605acc8,627c67de61dd416ac7e46de8,2022-05-12_03h50.59.335,classification_task,2021.2.3,Win32,60.63178318,627c6715c52fd12f31907bd0,,,,,,,,,,,,,,,,,,,,,,,l,1,5.3191,"[""0.543"",""0.204"",""0.437"",""0.826""]","[0,1,1,1]",0,29,29,29,1,1,1,,,1,FALSE,,,,,,,,,,,,,,,,,,,,,,,,,,,,,,,
,6106c8ad588fa9a7e605acc8,627c67de61dd416ac7e46de8,2022-05-12_03h50.59.335,classification_task,2021.2.3,Win32,60.63178318,627c6715c52fd12f31907bd0,,,,,,,,,,,,,,,,,,,,,,,l,1,3.3171,"[""0.126"",""0.204"",""0.348"",""0.826""]","[1,1,0,1]",0,30,30,30,1,1,1,,,1,FALSE,,,,,,,,,,,,,,,,,,,,,,,,,,,,,,,
,6106c8ad588fa9a7e605acc8,627c67de61dd416ac7e46de8,2022-05-12_03h50.59.335,classification_task,2021.2.3,Win32,60.63178318,627c6715c52fd12f31907bd0,,,,,,,,,,,,,,,,,,,,,,,l,1,6.3855,"[""0.126"",""0.204"",""0.437"",""0.037""]","[1,1,1,0]",0,31,31,31,1,1,1,,,1,FALSE,,,,,,,,,,,,,,,,,,,,,,,,,,,,,,,
,6106c8ad588fa9a7e605acc8,627c67de61dd416ac7e46de8,2022-05-12_03h50.59.335,classification_task,2021.2.3,Win32,60.63178318,627c6715c52fd12f31907bd0,,,,,,,,,,,,,,,,,,,,,,,l,1,5.146,"[""0.126"",""0.204"",""0.437"",""0.351""]","[1,1,1,0]",0,32,32,32,1,1,1,,,1,FALSE,,,,,,,,,,,,,,,,,,,,,,,,,,,,,,,
,6106c8ad588fa9a7e605acc8,627c67de61dd416ac7e46de8,2022-05-12_03h50.59.335,classification_task,2021.2.3,Win32,60.63178318,627c6715c52fd12f31907bd0,,,,,,,,,,,,,,,,,,,,,,,l,1,2.9857,"[""0.126"",""0.204"",""0.351"",""0.826""]","[1,1,0,1]",0,33,33,33,1,1,1,,,1,FALSE,,,,,,,,,,,,,,,,,,,,,,,,,,,,,,,
,6106c8ad588fa9a7e605acc8,627c67de61dd416ac7e46de8,2022-05-12_03h50.59.335,classification_task,2021.2.3,Win32,60.63178318,627c6715c52fd12f31907bd0,,,,,,,,,,,,,,,,,,,,,,,a,1,3.2477,"[""0.312"",""0.394"",""0.642"",""0.351""]","[1,1,1,0]",0,34,34,34,1,0,0,,,1,FALSE,,,,,,,,,,,,,,,,,,,,,,,,,,,,,,,
,6106c8ad588fa9a7e605acc8,627c67de61dd416ac7e46de8,2022-05-12_03h50.59.335,classification_task,2021.2.3,Win32,60.63178318,627c6715c52fd12f31907bd0,,,,,,,,,,,,,,,,,,,,,,,a,1,4.1839,"[""0.161"",""0.349"",""0.758"",""0.971""]","[1,0,1,1]",0,35,35,35,1,0,1,,,1,FALSE,,,,,,,,,,,,,,,,,,,,,,,,,,,,,,,
,6106c8ad588fa9a7e605acc8,627c67de61dd416ac7e46de8,2022-05-12_03h50.59.335,classification_task,2021.2.3,Win32,60.63178318,627c6715c52fd12f31907bd0,,,,,,,,,,,,,,,,,,,,,,,l,1,1.4867,"[""0.043"",""0.254"",""0.576"",""0.684""]","[0,1,1,1]",0,36,36,36,1,1,0,,,1,FALSE,,,,,,,,,,,,,,,,,,,,,,,,,,,,,,,
,6106c8ad588fa9a7e605acc8,627c67de61dd416ac7e46de8,2022-05-12_03h50.59.335,classification_task,2021.2.3,Win32,60.63178318,627c6715c52fd12f31907bd0,,,,,,,,,,,,,,,,,,,,,,,l,1,1.0677,"[""0.126"",""0.905"",""0.437"",""0.826""]","[1,0,1,1]",0,37,37,37,1,1,1,,,1,FALSE,,,,,,,,,,,,,,,,,,,,,,,,,,,,,,,
,6106c8ad588fa9a7e605acc8,627c67de61dd416ac7e46de8,2022-05-12_03h50.59.335,classification_task,2021.2.3,Win32,60.63178318,627c6715c52fd12f31907bd0,,,,,,,,,,,,,,,,,,,,,,,a,1,1.2813,"[""0.312"",""0.394"",""0.348"",""0.861""]","[1,1,0,1]",0,38,38,38,1,0,0,,,1,FALSE,,,,,,,,,,,,,,,,,,,,,,,,,,,,,,,
,6106c8ad588fa9a7e605acc8,627c67de61dd416ac7e46de8,2022-05-12_03h50.59.335,classification_task,2021.2.3,Win32,60.63178318,627c6715c52fd12f31907bd0,,,,,,,,,,,,,,,,,,,,,,,a,0,0.8653,"[""0.082"",""0.037"",""0.576"",""0.684""]","[1,0,1,1]",0,39,39,39,1,1,0,,,1,FALSE,,,,,,,,,,,,,,,,,,,,,,,,,,,,,,,
,6106c8ad588fa9a7e605acc8,627c67de61dd416ac7e46de8,2022-05-12_03h50.59.335,classification_task,2021.2.3,Win32,60.63178318,627c6715c52fd12f31907bd0,,,,,,,,,,,,,,,,,,,,,,,a,0,1.7961,"[""0.910"",""0.204"",""0.437"",""0.826""]","[0,1,1,1]",0,40,40,40,1,1,1,,,1,FALSE,,,,,,,,,,,,,,,,,,,,,,,,,,,,,,,
,6106c8ad588fa9a7e605acc8,627c67de61dd416ac7e46de8,2022-05-12_03h50.59.335,classification_task,2021.2.3,Win32,60.63178318,627c6715c52fd12f31907bd0,,,,,,,,,,,,,,,,,,,,,,,a,0,1.2802,"[""0.082"",""0.254"",""0.576"",""0.910""]","[1,1,1,0]",0,41,41,41,1,1,0,,,1,FALSE,,,,,,,,,,,,,,,,,,,,,,,,,,,,,,,
,6106c8ad588fa9a7e605acc8,627c67de61dd416ac7e46de8,2022-05-12_03h50.59.335,classification_task,2021.2.3,Win32,60.63178318,627c6715c52fd12f31907bd0,,,,,,,,,,,,,,,,,,,,,,,a,1,1.2944,"[""0.161"",""0.509"",""0.910"",""0.971""]","[1,1,0,1]",0,42,42,42,1,0,1,,,1,FALSE,,,,,,,,,,,,,,,,,,,,,,,,,,,,,,,
,6106c8ad588fa9a7e605acc8,627c67de61dd416ac7e46de8,2022-05-12_03h50.59.335,classification_task,2021.2.3,Win32,60.63178318,627c6715c52fd12f31907bd0,,,,,,,,,,,,,,,,,,,,,,,l,0,1.2322,"[""0.312"",""0.361"",""0.642"",""0.861""]","[1,0,1,1]",0,43,43,43,1,0,0,,,1,FALSE,,,,,,,,,,,,,,,,,,,,,,,,,,,,,,,
,6106c8ad588fa9a7e605acc8,627c67de61dd416ac7e46de8,2022-05-12_03h50.59.335,classification_task,2021.2.3,Win32,60.63178318,627c6715c52fd12f31907bd0,,,,,,,,,,,,,,,,,,,,,,,a,1,1.3312,"[""0.161"",""0.509"",""0.758"",""0.037""]","[1,1,1,0]",0,44,44,44,1,0,1,,,1,FALSE,,,,,,,,,,,,,,,,,,,,,,,,,,,,,,,
,6106c8ad588fa9a7e605acc8,627c67de61dd416ac7e46de8,2022-05-12_03h50.59.335,classification_task,2021.2.3,Win32,60.63178318,627c6715c52fd12f31907bd0,,,,,,,,,,,,,,,,,,,,,,,a,1,1.2867,"[""0.905"",""0.394"",""0.642"",""0.861""]","[0,1,1,1]",0,45,45,45,1,0,0,,,1,FALSE,,,,,,,,,,,,,,,,,,,,,,,,,,,,,,,
,6106c8ad588fa9a7e605acc8,627c67de61dd416ac7e46de8,2022-05-12_03h50.59.335,classification_task,2021.2.3,Win32,60.63178318,627c6715c52fd12f31907bd0,,,,,,,,,,,,,,,,,,,,,,,l,1,1.2805,"[""0.082"",""0.254"",""0.349"",""0.684""]","[1,1,0,1]",0,46,46,46,1,1,0,,,1,FALSE,,,,,,,,,,,,,,,,,,,,,,,,,,,,,,,
,6106c8ad588fa9a7e605acc8,627c67de61dd416ac7e46de8,2022-05-12_03h50.59.335,classification_task,2021.2.3,Win32,60.63178318,627c6715c52fd12f31907bd0,,,,,,,,,,,,,,,,,,,,,,,l,0,3.1171,"[""0.718"",""0.509"",""0.758"",""0.971""]","[0,1,1,1]",0,47,47,47,1,0,1,,,1,FALSE,,,,,,,,,,,,,,,,,,,,,,,,,,,,,,,
,6106c8ad588fa9a7e605acc8,627c67de61dd416ac7e46de8,2022-05-12_03h50.59.335,classification_task,2021.2.3,Win32,60.63178318,627c6715c52fd12f31907bd0,,,,,,,,,,,,,,,,,,,,,,,a,0,1.7033,"[""0.082"",""0.254"",""0.576"",""0.924""]","[1,1,1,0]",0,48,48,48,1,1,0,,,1,FALSE,,,,,,,,,,,,,,,,,,,,,,,,,,,,,,,
,6106c8ad588fa9a7e605acc8,627c67de61dd416ac7e46de8,2022-05-12_03h50.59.335,classification_task,2021.2.3,Win32,60.63178318,627c6715c52fd12f31907bd0,,,,,,,,,,,,,,,,,,,,,,,a,1,1.7645,"[""0.900"",""0.394"",""0.642"",""0.861""]","[0,1,1,1]",0,49,49,49,1,0,0,,,1,FALSE,,,,,,,,,,,,,,,,,,,,,,,,,,,,,,,
,6106c8ad588fa9a7e605acc8,627c67de61dd416ac7e46de8,2022-05-12_03h50.59.335,classification_task,2021.2.3,Win32,60.63178318,627c6715c52fd12f31907bd0,,,,,,,,,,,,,,,,,,,,,,,a,1,1.1359,"[""0.161"",""0.509"",""0.758"",""0.473""]","[1,1,1,0]",0,50,50,50,1,0,1,,,1,FALSE,,,,,,,,,,,,,,,,,,,,,,,,,,,,,,,
,6106c8ad588fa9a7e605acc8,627c67de61dd416ac7e46de8,2022-05-12_03h50.59.335,classification_task,2021.2.3,Win32,60.63178318,627c6715c52fd12f31907bd0,,,,,,,,,,,,,,,,,,,,,,,l,0,0.9352,"[""0.043"",""0.509"",""0.758"",""0.971""]","[0,1,1,1]",0,51,51,51,1,0,1,,,1,FALSE,,,,,,,,,,,,,,,,,,,,,,,,,,,,,,,
,6106c8ad588fa9a7e605acc8,627c67de61dd416ac7e46de8,2022-05-12_03h50.59.335,classification_task,2021.2.3,Win32,60.63178318,627c6715c52fd12f31907bd0,,,,,,,,,,,,,,,,,,,,,,,l,0,0.8465,"[""0.312"",""0.394"",""0.043"",""0.861""]","[1,1,0,1]",0,52,52,52,1,0,0,,,1,FALSE,,,,,,,,,,,,,,,,,,,,,,,,,,,,,,,
,6106c8ad588fa9a7e605acc8,627c67de61dd416ac7e46de8,2022-05-12_03h50.59.335,classification_task,2021.2.3,Win32,60.63178318,627c6715c52fd12f31907bd0,,,,,,,,,,,,,,,,,,,,,,,a,0,0.7146,"[""0.082"",""0.254"",""0.352"",""0.684""]","[1,1,0,1]",0,53,53,53,1,1,0,,,1,FALSE,,,,,,,,,,,,,,,,,,,,,,,,,,,,,,,
,6106c8ad588fa9a7e605acc8,627c67de61dd416ac7e46de8,2022-05-12_03h50.59.335,classification_task,2021.2.3,Win32,60.63178318,627c6715c52fd12f31907bd0,,,,,,,,,,,,,,,,,,,,,,,l,0,1.9808,"[""0.312"",""0.543"",""0.642"",""0.861""]","[1,0,1,1]",0,54,54,54,1,0,0,,,1,FALSE,,,,,,,,,,,,,,,,,,,,,,,,,,,,,,,
,6106c8ad588fa9a7e605acc8,627c67de61dd416ac7e46de8,2022-05-12_03h50.59.335,classification_task,2021.2.3,Win32,60.63178318,627c6715c52fd12f31907bd0,,,,,,,,,,,,,,,,,,,,,,,l,1,1.2303,"[""0.126"",""0.037"",""0.437"",""0.826""]","[1,0,1,1]",0,55,55,55,1,1,1,,,1,FALSE,,,,,,,,,,,,,,,,,,,,,,,,,,,,,,,
,6106c8ad588fa9a7e605acc8,627c67de61dd416ac7e46de8,2022-05-12_03h50.59.335,classification_task,2021.2.3,Win32,60.63178318,627c6715c52fd12f31907bd0,,,,,,,,,,,,,,,,,,,,,,,a,0,1.741,"[""0.082"",""0.718"",""0.576"",""0.684""]","[1,0,1,1]",0,56,56,56,1,1,0,,,1,FALSE,,,,,,,,,,,,,,,,,,,,,,,,,,,,,,,
,6106c8ad588fa9a7e605acc8,627c67de61dd416ac7e46de8,2022-05-12_03h50.59.335,classification_task,2021.2.3,Win32,60.63178318,627c6715c52fd12f31907bd0,,,,,,,,,,,,,,,,,,,,,,,a,1,1.5175,"[""0.312"",""0.394"",""0.642"",""0.351""]","[1,1,1,0]",0,57,57,57,1,0,0,,,1,FALSE,,,,,,,,,,,,,,,,,,,,,,,,,,,,,,,
,6106c8ad588fa9a7e605acc8,627c67de61dd416ac7e46de8,2022-05-12_03h50.59.335,classification_task,2021.2.3,Win32,60.63178318,627c6715c52fd12f31907bd0,,,,,,,,,,,,,,,,,,,,,,,a,0,1.6837,"[""0.126"",""0.204"",""0.437"",""0.473""]","[1,1,1,0]",0,58,58,58,1,1,1,,,1,FALSE,,,,,,,,,,,,,,,,,,,,,,,,,,,,,,,
,6106c8ad588fa9a7e605acc8,627c67de61dd416ac7e46de8,2022-05-12_03h50.59.335,classification_task,2021.2.3,Win32,60.63178318,627c6715c52fd12f31907bd0,,,,,,,,,,,,,,,,,,,,,,,a,1,5.193,"[""0.161"",""0.352"",""0.758"",""0.971""]","[1,0,1,1]",0,59,59,59,1,0,1,,,1,FALSE,,,,,,,,,,,,,,,,,,,,,,,,,,,,,,,
,6106c8ad588fa9a7e605acc8,627c67de61dd416ac7e46de8,2022-05-12_03h50.59.335,classification_task,2021.2.3,Win32,60.63178318,627c6715c52fd12f31907bd0,,,,,,,,,,,,,,,,,,,,,,,l,1,1.1703,"[""0.126"",""0.204"",""0.474"",""0.826""]","[1,1,0,1]",0,60,60,60,1,1,1,,,1,FALSE,,,,,,,,,,,,,,,,,,,,,,,,,,,,,,,
,6106c8ad588fa9a7e605acc8,627c67de61dd416ac7e46de8,2022-05-12_03h50.59.335,classification_task,2021.2.3,Win32,60.63178318,627c6715c52fd12f31907bd0,,,,,,,,,,,,,,,,,,,,,,,a,0,1.7634,"[""0.361"",""0.254"",""0.576"",""0.684""]","[0,1,1,1]",0,61,61,61,1,1,0,,,1,FALSE,,,,,,,,,,,,,,,,,,,,,,,,,,,,,,,
,6106c8ad588fa9a7e605acc8,627c67de61dd416ac7e46de8,2022-05-12_03h50.59.335,classification_task,2021.2.3,Win32,60.63178318,627c6715c52fd12f31907bd0,,,,,,,,,,,,,,,,,,,,,,,l,1,1.2404,"[""0.923"",""0.204"",""0.437"",""0.826""]","[0,1,1,1]",0,62,62,62,1,1,1,,,1,FALSE,,,,,,,,,,,,,,,,,,,,,,,,,,,,,,,
,6106c8ad588fa9a7e605acc8,627c67de61dd416ac7e46de8,2022-05-12_03h50.59.335,classification_task,2021.2.3,Win32,60.63178318,627c6715c52fd12f31907bd0,,,,,,,,,,,,,,,,,,,,,,,a,1,1.0405,"[""0.161"",""0.509"",""0.923"",""0.971""]","[1,1,0,1]",0,63,63,63,1,0,1,,,1,FALSE,,,,,,,,,,,,,,,,,,,,,,,,,,,,,,,
,6106c8ad588fa9a7e605acc8,627c67de61dd416ac7e46de8,2022-05-12_03h50.59.335,classification_task,2021.2.3,Win32,60.63178318,627c6715c52fd12f31907bd0,,,,,,,,,,,,,,,,,,,,,,,,,,,,,,,,,,,,,,,0, ,,0,5.585593034,445.4988,0,0,0,0,1,2,1,,,,,,,,,,,,,,,,,,
,6106c8ad588fa9a7e605acc8,627c67de61dd416ac7e46de8,2022-05-12_03h50.59.335,classification_task,2021.2.3,Win32,60.63178318,627c6715c52fd12f31907bd0,,,,,,,,,,,,,,,,,,,,,,,,,,,,,,,,,,,,,,,1,  ,,0,10,450.7638,0,0,0,0,1,2,1,,,,,,,,,,,,,,,,,,
,6106c8ad588fa9a7e605acc8,627c67de61dd416ac7e46de8,2022-05-12_03h50.59.335,classification_task,2021.2.3,Win32,60.63178318,627c6715c52fd12f31907bd0,,,,,,,,,,,,,,,,,,,,,,,,,,,,,,,,,,,,,,,2,  ,,0,5,457.1625,0,0,0,0,1,2,1,,,,,,,,,,,,,,,,,,
,6106c8ad588fa9a7e605acc8,627c67de61dd416ac7e46de8,2022-05-12_03h50.59.335,classification_task,2021.2.3,Win32,60.63178318,627c6715c52fd12f31907bd0,,,,,,,,,,,,,,,,,,,,,,,,,,,,,,,,,,,,,,,,,,,,,0,0,0,0,1,,1,,,,,,,,,,,,,,,,,,
,6106c8ad588fa9a7e605acc8,627c67de61dd416ac7e46de8,2022-05-12_03h50.59.335,classification_task,2021.2.3,Win32,60.63178318,627c6715c52fd12f31907bd0,,,,,,,,,,,,,,,,,,,,,space,12.8442,l,0,8.0675,"[""0.312"",""0.394"",""0.642"",""0.361""]","[1,1,1,0]",0,0,0,0,1,0,0,,,1,FALSE,,,,,,,,,,,,,,,,,,,,,,,,,,,,,,,
,6106c8ad588fa9a7e605acc8,627c67de61dd416ac7e46de8,2022-05-12_03h50.59.335,classification_task,2021.2.3,Win32,60.63178318,627c6715c52fd12f31907bd0,,,,,,,,,,,,,,,,,,,,,,,l,1,4.6261,"[""0.126"",""0.204"",""0.352"",""0.826""]","[1,1,0,1]",0,1,1,1,1,1,1,,,1,FALSE,,,,,,,,,,,,,,,,,,,,,,,,,,,,,,,
,6106c8ad588fa9a7e605acc8,627c67de61dd416ac7e46de8,2022-05-12_03h50.59.335,classification_task,2021.2.3,Win32,60.63178318,627c6715c52fd12f31907bd0,,,,,,,,,,,,,,,,,,,,,,,a,1,2.8137,"[""0.312"",""0.352"",""0.642"",""0.861""]","[1,0,1,1]",0,2,2,2,1,0,0,,,1,FALSE,,,,,,,,,,,,,,,,,,,,,,,,,,,,,,,
,6106c8ad588fa9a7e605acc8,627c67de61dd416ac7e46de8,2022-05-12_03h50.59.335,classification_task,2021.2.3,Win32,60.63178318,627c6715c52fd12f31907bd0,,,,,,,,,,,,,,,,,,,,,,,a,1,0.9303,"[""0.161"",""0.509"",""0.758"",""0.905""]","[1,1,1,0]",0,3,3,3,1,0,1,,,1,FALSE,,,,,,,,,,,,,,,,,,,,,,,,,,,,,,,
,6106c8ad588fa9a7e605acc8,627c67de61dd416ac7e46de8,2022-05-12_03h50.59.335,classification_task,2021.2.3,Win32,60.63178318,627c6715c52fd12f31907bd0,,,,,,,,,,,,,,,,,,,,,,,a,1,0.9748,"[""0.312"",""0.394"",""0.351"",""0.861""]","[1,1,0,1]",0,4,4,4,1,0,0,,,1,FALSE,,,,,,,,,,,,,,,,,,,,,,,,,,,,,,,
,6106c8ad588fa9a7e605acc8,627c67de61dd416ac7e46de8,2022-05-12_03h50.59.335,classification_task,2021.2.3,Win32,60.63178318,627c6715c52fd12f31907bd0,,,,,,,,,,,,,,,,,,,,,,,l,1,1.5296,"[""0.082"",""0.254"",""0.474"",""0.684""]","[1,1,0,1]",0,5,5,5,1,1,0,,,1,FALSE,,,,,,,,,,,,,,,,,,,,,,,,,,,,,,,
,6106c8ad588fa9a7e605acc8,627c67de61dd416ac7e46de8,2022-05-12_03h50.59.335,classification_task,2021.2.3,Win32,60.63178318,627c6715c52fd12f31907bd0,,,,,,,,,,,,,,,,,,,,,,,l,1,0.8276,"[""0.126"",""0.204"",""0.437"",""0.348""]","[1,1,1,0]",0,6,6,6,1,1,1,,,1,FALSE,,,,,,,,,,,,,,,,,,,,,,,,,,,,,,,
,6106c8ad588fa9a7e605acc8,627c67de61dd416ac7e46de8,2022-05-12_03h50.59.335,classification_task,2021.2.3,Win32,60.63178318,627c6715c52fd12f31907bd0,,,,,,,,,,,,,,,,,,,,,,,l,1,1.6432,"[""0.082"",""0.254"",""0.576"",""0.718""]","[1,1,1,0]",0,7,7,7,1,1,0,,,1,FALSE,,,,,,,,,,,,,,,,,,,,,,,,,,,,,,,
,6106c8ad588fa9a7e605acc8,627c67de61dd416ac7e46de8,2022-05-12_03h50.59.335,classification_task,2021.2.3,Win32,60.63178318,627c6715c52fd12f31907bd0,,,,,,,,,,,,,,,,,,,,,,,l,1,1.1664,"[""0.082"",""0.351"",""0.576"",""0.684""]","[1,0,1,1]",0,8,8,8,1,1,0,,,1,FALSE,,,,,,,,,,,,,,,,,,,,,,,,,,,,,,,
,6106c8ad588fa9a7e605acc8,627c67de61dd416ac7e46de8,2022-05-12_03h50.59.335,classification_task,2021.2.3,Win32,60.63178318,627c6715c52fd12f31907bd0,,,,,,,,,,,,,,,,,,,,,,,a,1,1.1808,"[""0.474"",""0.394"",""0.642"",""0.861""]","[0,1,1,1]",0,9,9,9,1,0,0,,,1,FALSE,,,,,,,,,,,,,,,,,,,,,,,,,,,,,,,
,6106c8ad588fa9a7e605acc8,627c67de61dd416ac7e46de8,2022-05-12_03h50.59.335,classification_task,2021.2.3,Win32,60.63178318,627c6715c52fd12f31907bd0,,,,,,,,,,,,,,,,,,,,,,,l,1,1.4806,"[""0.126"",""0.474"",""0.437"",""0.826""]","[1,0,1,1]",0,10,10,10,1,1,1,,,1,FALSE,,,,,,,,,,,,,,,,,,,,,,,,,,,,,,,
,6106c8ad588fa9a7e605acc8,627c67de61dd416ac7e46de8,2022-05-12_03h50.59.335,classification_task,2021.2.3,Win32,60.63178318,627c6715c52fd12f31907bd0,,,,,,,,,,,,,,,,,,,,,,,a,1,0.617,"[""0.348"",""0.509"",""0.758"",""0.971""]","[0,1,1,1]",0,11,11,11,1,0,1,,,1,FALSE,,,,,,,,,,,,,,,,,,,,,,,,,,,,,,,
,6106c8ad588fa9a7e605acc8,627c67de61dd416ac7e46de8,2022-05-12_03h50.59.335,classification_task,2021.2.3,Win32,60.63178318,627c6715c52fd12f31907bd0,,,,,,,,,,,,,,,,,,,,,,,a,1,0.5646,"[""0.161"",""0.718"",""0.758"",""0.971""]","[1,0,1,1]",0,12,12,12,1,0,1,,,1,FALSE,,,,,,,,,,,,,,,,,,,,,,,,,,,,,,,
,6106c8ad588fa9a7e605acc8,627c67de61dd416ac7e46de8,2022-05-12_03h50.59.335,classification_task,2021.2.3,Win32,60.63178318,627c6715c52fd12f31907bd0,,,,,,,,,,,,,,,,,,,,,,,l,1,0.5106,"[""0.037"",""0.204"",""0.437"",""0.826""]","[0,1,1,1]",0,13,13,13,1,1,1,,,1,FALSE,,,,,,,,,,,,,,,,,,,,,,,,,,,,,,,
,6106c8ad588fa9a7e605acc8,627c67de61dd416ac7e46de8,2022-05-12_03h50.59.335,classification_task,2021.2.3,Win32,60.63178318,627c6715c52fd12f31907bd0,,,,,,,,,,,,,,,,,,,,,,,a,0,3.4169,"[""0.361"",""0.254"",""0.576"",""0.684""]","[0,1,1,1]",0,14,14,14,1,1,0,,,1,FALSE,,,,,,,,,,,,,,,,,,,,,,,,,,,,,,,
,6106c8ad588fa9a7e605acc8,627c67de61dd416ac7e46de8,2022-05-12_03h50.59.335,classification_task,2021.2.3,Win32,60.63178318,627c6715c52fd12f31907bd0,,,,,,,,,,,,,,,,,,,,,,,a,1,0.9484,"[""0.161"",""0.509"",""0.361"",""0.971""]","[1,1,0,1]",0,15,15,15,1,0,1,,,1,FALSE,,,,,,,,,,,,,,,,,,,,,,,,,,,,,,,
,6106c8ad588fa9a7e605acc8,627c67de61dd416ac7e46de8,2022-05-12_03h50.59.335,classification_task,2021.2.3,Win32,60.63178318,627c6715c52fd12f31907bd0,,,,,,,,,,,,,,,,,,,,,,,l,1,0.6235,"[""0.126"",""0.543"",""0.437"",""0.826""]","[1,0,1,1]",0,16,16,16,1,1,1,,,1,FALSE,,,,,,,,,,,,,,,,,,,,,,,,,,,,,,,
,6106c8ad588fa9a7e605acc8,627c67de61dd416ac7e46de8,2022-05-12_03h50.59.335,classification_task,2021.2.3,Win32,60.63178318,627c6715c52fd12f31907bd0,,,,,,,,,,,,,,,,,,,,,,,l,0,1.4123,"[""0.312"",""0.394"",""0.642"",""0.910""]","[1,1,1,0]",0,17,17,17,1,0,0,,,1,FALSE,,,,,,,,,,,,,,,,,,,,,,,,,,,,,,,
,6106c8ad588fa9a7e605acc8,627c67de61dd416ac7e46de8,2022-05-12_03h50.59.335,classification_task,2021.2.3,Win32,60.63178318,627c6715c52fd12f31907bd0,,,,,,,,,,,,,,,,,,,,,,,a,1,0.8156,"[""0.312"",""0.718"",""0.642"",""0.861""]","[1,0,1,1]",0,18,18,18,1,0,0,,,1,FALSE,,,,,,,,,,,,,,,,,,,,,,,,,,,,,,,
,6106c8ad588fa9a7e605acc8,627c67de61dd416ac7e46de8,2022-05-12_03h50.59.335,classification_task,2021.2.3,Win32,60.63178318,627c6715c52fd12f31907bd0,,,,,,,,,,,,,,,,,,,,,,,l,1,0.6288,"[""0.126"",""0.204"",""0.437"",""0.543""]","[1,1,1,0]",0,19,19,19,1,1,1,,,1,FALSE,,,,,,,,,,,,,,,,,,,,,,,,,,,,,,,
,6106c8ad588fa9a7e605acc8,627c67de61dd416ac7e46de8,2022-05-12_03h50.59.335,classification_task,2021.2.3,Win32,60.63178318,627c6715c52fd12f31907bd0,,,,,,,,,,,,,,,,,,,,,,,a,0,1.2761,"[""0.037"",""0.254"",""0.576"",""0.684""]","[0,1,1,1]",0,20,20,20,1,1,0,,,1,FALSE,,,,,,,,,,,,,,,,,,,,,,,,,,,,,,,
,6106c8ad588fa9a7e605acc8,627c67de61dd416ac7e46de8,2022-05-12_03h50.59.335,classification_task,2021.2.3,Win32,60.63178318,627c6715c52fd12f31907bd0,,,,,,,,,,,,,,,,,,,,,,,l,1,0.7241,"[""0.126"",""0.204"",""0.924"",""0.826""]","[1,1,0,1]",0,21,21,21,1,1,1,,,1,FALSE,,,,,,,,,,,,,,,,,,,,,,,,,,,,,,,
,6106c8ad588fa9a7e605acc8,627c67de61dd416ac7e46de8,2022-05-12_03h50.59.335,classification_task,2021.2.3,Win32,60.63178318,627c6715c52fd12f31907bd0,,,,,,,,,,,,,,,,,,,,,,,a,0,1.2456,"[""0.082"",""0.348"",""0.576"",""0.684""]","[1,0,1,1]",0,22,22,22,1,1,0,,,1,FALSE,,,,,,,,,,,,,,,,,,,,,,,,,,,,,,,
,6106c8ad588fa9a7e605acc8,627c67de61dd416ac7e46de8,2022-05-12_03h50.59.335,classification_task,2021.2.3,Win32,60.63178318,627c6715c52fd12f31907bd0,,,,,,,,,,,,,,,,,,,,,,,a,1,0.5625,"[""0.161"",""0.509"",""0.900"",""0.971""]","[1,1,0,1]",0,23,23,23,1,0,1,,,1,FALSE,,,,,,,,,,,,,,,,,,,,,,,,,,,,,,,
,6106c8ad588fa9a7e605acc8,627c67de61dd416ac7e46de8,2022-05-12_03h50.59.335,classification_task,2021.2.3,Win32,60.63178318,627c6715c52fd12f31907bd0,,,,,,,,,,,,,,,,,,,,,,,l,1,0.5682,"[""0.924"",""0.204"",""0.437"",""0.826""]","[0,1,1,1]",0,24,24,24,1,1,1,,,1,FALSE,,,,,,,,,,,,,,,,,,,,,,,,,,,,,,,
,6106c8ad588fa9a7e605acc8,627c67de61dd416ac7e46de8,2022-05-12_03h50.59.335,classification_task,2021.2.3,Win32,60.63178318,627c6715c52fd12f31907bd0,,,,,,,,,,,,,,,,,,,,,,,a,1,0.6627,"[""0.474"",""0.509"",""0.758"",""0.971""]","[0,1,1,1]",0,25,25,25,1,0,1,,,1,FALSE,,,,,,,,,,,,,,,,,,,,,,,,,,,,,,,
,6106c8ad588fa9a7e605acc8,627c67de61dd416ac7e46de8,2022-05-12_03h50.59.335,classification_task,2021.2.3,Win32,60.63178318,627c6715c52fd12f31907bd0,,,,,,,,,,,,,,,,,,,,,,,a,1,1.4652,"[""0.312"",""0.394"",""0.348"",""0.861""]","[1,1,0,1]",0,26,26,26,1,0,0,,,1,FALSE,,,,,,,,,,,,,,,,,,,,,,,,,,,,,,,
,6106c8ad588fa9a7e605acc8,627c67de61dd416ac7e46de8,2022-05-12_03h50.59.335,classification_task,2021.2.3,Win32,60.63178318,627c6715c52fd12f31907bd0,,,,,,,,,,,,,,,,,,,,,,,l,1,1.2978,"[""0.082"",""0.254"",""0.351"",""0.684""]","[1,1,0,1]",0,27,27,27,1,1,0,,,1,FALSE,,,,,,,,,,,,,,,,,,,,,,,,,,,,,,,
,6106c8ad588fa9a7e605acc8,627c67de61dd416ac7e46de8,2022-05-12_03h50.59.335,classification_task,2021.2.3,Win32,60.63178318,627c6715c52fd12f31907bd0,,,,,,,,,,,,,,,,,,,,,,,a,1,0.7276,"[""0.161"",""0.351"",""0.758"",""0.971""]","[1,0,1,1]",0,28,28,28,1,0,1,,,1,FALSE,,,,,,,,,,,,,,,,,,,,,,,,,,,,,,,
,6106c8ad588fa9a7e605acc8,627c67de61dd416ac7e46de8,2022-05-12_03h50.59.335,classification_task,2021.2.3,Win32,60.63178318,627c6715c52fd12f31907bd0,,,,,,,,,,,,,,,,,,,,,,,a,1,0.6303,"[""0.161"",""0.509"",""0.758"",""0.543""]","[1,1,1,0]",0,29,29,29,1,0,1,,,1,FALSE,,,,,,,,,,,,,,,,,,,,,,,,,,,,,,,
,6106c8ad588fa9a7e605acc8,627c67de61dd416ac7e46de8,2022-05-12_03h50.59.335,classification_task,2021.2.3,Win32,60.63178318,627c6715c52fd12f31907bd0,,,,,,,,,,,,,,,,,,,,,,,a,1,1.3435,"[""0.348"",""0.394"",""0.642"",""0.861""]","[0,1,1,1]",0,30,30,30,1,0,0,,,1,FALSE,,,,,,,,,,,,,,,,,,,,,,,,,,,,,,,
,6106c8ad588fa9a7e605acc8,627c67de61dd416ac7e46de8,2022-05-12_03h50.59.335,classification_task,2021.2.3,Win32,60.63178318,627c6715c52fd12f31907bd0,,,,,,,,,,,,,,,,,,,,,,,l,1,1.1301,"[""0.082"",""0.254"",""0.576"",""0.923""]","[1,1,1,0]",0,31,31,31,1,1,0,,,1,FALSE,,,,,,,,,,,,,,,,,,,,,,,,,,,,,,,
,6106c8ad588fa9a7e605acc8,627c67de61dd416ac7e46de8,2022-05-12_03h50.59.335,classification_task,2021.2.3,Win32,60.63178318,627c6715c52fd12f31907bd0,,,,,,,,,,,,,,,,,,,,,,,l,1,1.431,"[""0.037"",""0.254"",""0.576"",""0.684""]","[0,1,1,1]",0,32,32,32,1,1,0,,,1,FALSE,,,,,,,,,,,,,,,,,,,,,,,,,,,,,,,
,6106c8ad588fa9a7e605acc8,627c67de61dd416ac7e46de8,2022-05-12_03h50.59.335,classification_task,2021.2.3,Win32,60.63178318,627c6715c52fd12f31907bd0,,,,,,,,,,,,,,,,,,,,,,,l,1,1.5659,"[""0.126"",""0.204"",""0.910"",""0.826""]","[1,1,0,1]",0,33,33,33,1,1,1,,,1,FALSE,,,,,,,,,,,,,,,,,,,,,,,,,,,,,,,
,6106c8ad588fa9a7e605acc8,627c67de61dd416ac7e46de8,2022-05-12_03h50.59.335,classification_task,2021.2.3,Win32,60.63178318,627c6715c52fd12f31907bd0,,,,,,,,,,,,,,,,,,,,,,,l,1,0.8702,"[""0.348"",""0.204"",""0.437"",""0.826""]","[0,1,1,1]",0,34,34,34,1,1,1,,,1,FALSE,,,,,,,,,,,,,,,,,,,,,,,,,,,,,,,
,6106c8ad588fa9a7e605acc8,627c67de61dd416ac7e46de8,2022-05-12_03h50.59.335,classification_task,2021.2.3,Win32,60.63178318,627c6715c52fd12f31907bd0,,,,,,,,,,,,,,,,,,,,,,,a,1,1.0265,"[""0.349"",""0.394"",""0.642"",""0.861""]","[0,1,1,1]",0,35,35,35,1,0,0,,,1,FALSE,,,,,,,,,,,,,,,,,,,,,,,,,,,,,,,
,6106c8ad588fa9a7e605acc8,627c67de61dd416ac7e46de8,2022-05-12_03h50.59.335,classification_task,2021.2.3,Win32,60.63178318,627c6715c52fd12f31907bd0,,,,,,,,,,,,,,,,,,,,,,,a,0,1.6514,"[""0.082"",""0.254"",""0.923"",""0.684""]","[1,1,0,1]",0,36,36,36,1,1,0,,,1,FALSE,,,,,,,,,,,,,,,,,,,,,,,,,,,,,,,
,6106c8ad588fa9a7e605acc8,627c67de61dd416ac7e46de8,2022-05-12_03h50.59.335,classification_task,2021.2.3,Win32,60.63178318,627c6715c52fd12f31907bd0,,,,,,,,,,,,,,,,,,,,,,,a,1,0.6365,"[""0.161"",""0.509"",""0.758"",""0.043""]","[1,1,1,0]",0,37,37,37,1,0,1,,,1,FALSE,,,,,,,,,,,,,,,,,,,,,,,,,,,,,,,
,6106c8ad588fa9a7e605acc8,627c67de61dd416ac7e46de8,2022-05-12_03h50.59.335,classification_task,2021.2.3,Win32,60.63178318,627c6715c52fd12f31907bd0,,,,,,,,,,,,,,,,,,,,,,,a,0,1.2453,"[""0.082"",""0.254"",""0.576"",""0.043""]","[1,1,1,0]",0,38,38,38,1,1,0,,,1,FALSE,,,,,,,,,,,,,,,,,,,,,,,,,,,,,,,
,6106c8ad588fa9a7e605acc8,627c67de61dd416ac7e46de8,2022-05-12_03h50.59.335,classification_task,2021.2.3,Win32,60.63178318,627c6715c52fd12f31907bd0,,,,,,,,,,,,,,,,,,,,,,,a,0,1.0632,"[""0.082"",""0.473"",""0.576"",""0.684""]","[1,0,1,1]",0,39,39,39,1,1,0,,,1,FALSE,,,,,,,,,,,,,,,,,,,,,,,,,,,,,,,
,6106c8ad588fa9a7e605acc8,627c67de61dd416ac7e46de8,2022-05-12_03h50.59.335,classification_task,2021.2.3,Win32,60.63178318,627c6715c52fd12f31907bd0,,,,,,,,,,,,,,,,,,,,,,,a,1,0.6768,"[""0.543"",""0.509"",""0.758"",""0.971""]","[0,1,1,1]",0,40,40,40,1,0,1,,,1,FALSE,,,,,,,,,,,,,,,,,,,,,,,,,,,,,,,
,6106c8ad588fa9a7e605acc8,627c67de61dd416ac7e46de8,2022-05-12_03h50.59.335,classification_task,2021.2.3,Win32,60.63178318,627c6715c52fd12f31907bd0,,,,,,,,,,,,,,,,,,,,,,,a,1,1.3985,"[""0.312"",""0.900"",""0.642"",""0.861""]","[1,0,1,1]",0,41,41,41,1,0,0,,,1,FALSE,,,,,,,,,,,,,,,,,,,,,,,,,,,,,,,
,6106c8ad588fa9a7e605acc8,627c67de61dd416ac7e46de8,2022-05-12_03h50.59.335,classification_task,2021.2.3,Win32,60.63178318,627c6715c52fd12f31907bd0,,,,,,,,,,,,,,,,,,,,,,,a,1,0.678,"[""0.161"",""0.509"",""0.900"",""0.971""]","[1,1,0,1]",0,42,42,42,1,0,1,,,1,FALSE,,,,,,,,,,,,,,,,,,,,,,,,,,,,,,,
,6106c8ad588fa9a7e605acc8,627c67de61dd416ac7e46de8,2022-05-12_03h50.59.335,classification_task,2021.2.3,Win32,60.63178318,627c6715c52fd12f31907bd0,,,,,,,,,,,,,,,,,,,,,,,a,1,0.8106,"[""0.312"",""0.394"",""0.642"",""0.351""]","[1,1,1,0]",0,43,43,43,1,0,0,,,1,FALSE,,,,,,,,,,,,,,,,,,,,,,,,,,,,,,,
,6106c8ad588fa9a7e605acc8,627c67de61dd416ac7e46de8,2022-05-12_03h50.59.335,classification_task,2021.2.3,Win32,60.63178318,627c6715c52fd12f31907bd0,,,,,,,,,,,,,,,,,,,,,,,l,1,1.5658,"[""0.126"",""0.204"",""0.437"",""0.924""]","[1,1,1,0]",0,44,44,44,1,1,1,,,1,FALSE,,,,,,,,,,,,,,,,,,,,,,,,,,,,,,,
,6106c8ad588fa9a7e605acc8,627c67de61dd416ac7e46de8,2022-05-12_03h50.59.335,classification_task,2021.2.3,Win32,60.63178318,627c6715c52fd12f31907bd0,,,,,,,,,,,,,,,,,,,,,,,a,1,1.0298,"[""0.312"",""0.394"",""0.473"",""0.861""]","[1,1,0,1]",0,45,45,45,1,0,0,,,1,FALSE,,,,,,,,,,,,,,,,,,,,,,,,,,,,,,,
,6106c8ad588fa9a7e605acc8,627c67de61dd416ac7e46de8,2022-05-12_03h50.59.335,classification_task,2021.2.3,Win32,60.63178318,627c6715c52fd12f31907bd0,,,,,,,,,,,,,,,,,,,,,,,l,1,4.8606,"[""0.126"",""0.473"",""0.437"",""0.826""]","[1,0,1,1]",0,46,46,46,1,1,1,,,1,FALSE,,,,,,,,,,,,,,,,,,,,,,,,,,,,,,,
,6106c8ad588fa9a7e605acc8,627c67de61dd416ac7e46de8,2022-05-12_03h50.59.335,classification_task,2021.2.3,Win32,60.63178318,627c6715c52fd12f31907bd0,,,,,,,,,,,,,,,,,,,,,,,a,1,0.8347,"[""0.161"",""0.718"",""0.758"",""0.971""]","[1,0,1,1]",0,47,47,47,1,0,1,,,1,FALSE,,,,,,,,,,,,,,,,,,,,,,,,,,,,,,,
,6106c8ad588fa9a7e605acc8,627c67de61dd416ac7e46de8,2022-05-12_03h50.59.335,classification_task,2021.2.3,Win32,60.63178318,627c6715c52fd12f31907bd0,,,,,,,,,,,,,,,,,,,,,,,l,1,0.8092,"[""0.126"",""0.352"",""0.437"",""0.826""]","[1,0,1,1]",0,48,48,48,1,1,1,,,1,FALSE,,,,,,,,,,,,,,,,,,,,,,,,,,,,,,,
,6106c8ad588fa9a7e605acc8,627c67de61dd416ac7e46de8,2022-05-12_03h50.59.335,classification_task,2021.2.3,Win32,60.63178318,627c6715c52fd12f31907bd0,,,,,,,,,,,,,,,,,,,,,,,a,0,0.9615,"[""0.082"",""0.361"",""0.576"",""0.684""]","[1,0,1,1]",0,49,49,49,1,1,0,,,1,FALSE,,,,,,,,,,,,,,,,,,,,,,,,,,,,,,,
,6106c8ad588fa9a7e605acc8,627c67de61dd416ac7e46de8,2022-05-12_03h50.59.335,classification_task,2021.2.3,Win32,60.63178318,627c6715c52fd12f31907bd0,,,,,,,,,,,,,,,,,,,,,,,a,1,0.7283,"[""0.312"",""0.394"",""0.642"",""0.474""]","[1,1,1,0]",0,50,50,50,1,0,0,,,1,FALSE,,,,,,,,,,,,,,,,,,,,,,,,,,,,,,,
,6106c8ad588fa9a7e605acc8,627c67de61dd416ac7e46de8,2022-05-12_03h50.59.335,classification_task,2021.2.3,Win32,60.63178318,627c6715c52fd12f31907bd0,,,,,,,,,,,,,,,,,,,,,,,a,1,1.2311,"[""0.312"",""0.394"",""0.037"",""0.861""]","[1,1,0,1]",0,51,51,51,1,0,0,,,1,FALSE,,,,,,,,,,,,,,,,,,,,,,,,,,,,,,,
,6106c8ad588fa9a7e605acc8,627c67de61dd416ac7e46de8,2022-05-12_03h50.59.335,classification_task,2021.2.3,Win32,60.63178318,627c6715c52fd12f31907bd0,,,,,,,,,,,,,,,,,,,,,,,l,1,0.996,"[""0.126"",""0.204"",""0.543"",""0.826""]","[1,1,0,1]",0,52,52,52,1,1,1,,,1,FALSE,,,,,,,,,,,,,,,,,,,,,,,,,,,,,,,
,6106c8ad588fa9a7e605acc8,627c67de61dd416ac7e46de8,2022-05-12_03h50.59.335,classification_task,2021.2.3,Win32,60.63178318,627c6715c52fd12f31907bd0,,,,,,,,,,,,,,,,,,,,,,,a,1,1.4983,"[""0.312"",""0.043"",""0.642"",""0.861""]","[1,0,1,1]",0,53,53,53,1,0,0,,,1,FALSE,,,,,,,,,,,,,,,,,,,,,,,,,,,,,,,
,6106c8ad588fa9a7e605acc8,627c67de61dd416ac7e46de8,2022-05-12_03h50.59.335,classification_task,2021.2.3,Win32,60.63178318,627c6715c52fd12f31907bd0,,,,,,,,,,,,,,,,,,,,,,,a,0,1.1235,"[""0.361"",""0.254"",""0.576"",""0.684""]","[0,1,1,1]",0,54,54,54,1,1,0,,,1,FALSE,,,,,,,,,,,,,,,,,,,,,,,,,,,,,,,
,6106c8ad588fa9a7e605acc8,627c67de61dd416ac7e46de8,2022-05-12_03h50.59.335,classification_task,2021.2.3,Win32,60.63178318,627c6715c52fd12f31907bd0,,,,,,,,,,,,,,,,,,,,,,,a,1,0.6454,"[""0.161"",""0.509"",""0.758"",""0.474""]","[1,1,1,0]",0,55,55,55,1,0,1,,,1,FALSE,,,,,,,,,,,,,,,,,,,,,,,,,,,,,,,
,6106c8ad588fa9a7e605acc8,627c67de61dd416ac7e46de8,2022-05-12_03h50.59.335,classification_task,2021.2.3,Win32,60.63178318,627c6715c52fd12f31907bd0,,,,,,,,,,,,,,,,,,,,,,,l,1,0.6474,"[""0.718"",""0.204"",""0.437"",""0.826""]","[0,1,1,1]",0,56,56,56,1,1,1,,,1,FALSE,,,,,,,,,,,,,,,,,,,,,,,,,,,,,,,
,6106c8ad588fa9a7e605acc8,627c67de61dd416ac7e46de8,2022-05-12_03h50.59.335,classification_task,2021.2.3,Win32,60.63178318,627c6715c52fd12f31907bd0,,,,,,,,,,,,,,,,,,,,,,,a,0,1.1767,"[""0.082"",""0.254"",""0.576"",""0.900""]","[1,1,1,0]",0,57,57,57,1,1,0,,,1,FALSE,,,,,,,,,,,,,,,,,,,,,,,,,,,,,,,
,6106c8ad588fa9a7e605acc8,627c67de61dd416ac7e46de8,2022-05-12_03h50.59.335,classification_task,2021.2.3,Win32,60.63178318,627c6715c52fd12f31907bd0,,,,,,,,,,,,,,,,,,,,,,,a,1,0.8581,"[""0.161"",""0.509"",""0.361"",""0.971""]","[1,1,0,1]",0,58,58,58,1,0,1,,,1,FALSE,,,,,,,,,,,,,,,,,,,,,,,,,,,,,,,
,6106c8ad588fa9a7e605acc8,627c67de61dd416ac7e46de8,2022-05-12_03h50.59.335,classification_task,2021.2.3,Win32,60.63178318,627c6715c52fd12f31907bd0,,,,,,,,,,,,,,,,,,,,,,,a,1,1.0482,"[""0.349"",""0.394"",""0.642"",""0.861""]","[0,1,1,1]",0,59,59,59,1,0,0,,,1,FALSE,,,,,,,,,,,,,,,,,,,,,,,,,,,,,,,
,6106c8ad588fa9a7e605acc8,627c67de61dd416ac7e46de8,2022-05-12_03h50.59.335,classification_task,2021.2.3,Win32,60.63178318,627c6715c52fd12f31907bd0,,,,,,,,,,,,,,,,,,,,,,,l,1,0.6497,"[""0.126"",""0.204"",""0.437"",""0.900""]","[1,1,1,0]",0,60,60,60,1,1,1,,,1,FALSE,,,,,,,,,,,,,,,,,,,,,,,,,,,,,,,
,6106c8ad588fa9a7e605acc8,627c67de61dd416ac7e46de8,2022-05-12_03h50.59.335,classification_task,2021.2.3,Win32,60.63178318,627c6715c52fd12f31907bd0,,,,,,,,,,,,,,,,,,,,,,,a,1,0.6969,"[""0.161"",""0.905"",""0.758"",""0.971""]","[1,0,1,1]",0,61,61,61,1,0,1,,,1,FALSE,,,,,,,,,,,,,,,,,,,,,,,,,,,,,,,
,6106c8ad588fa9a7e605acc8,627c67de61dd416ac7e46de8,2022-05-12_03h50.59.335,classification_task,2021.2.3,Win32,60.63178318,627c6715c52fd12f31907bd0,,,,,,,,,,,,,,,,,,,,,,,a,1,1.5997,"[""0.473"",""0.509"",""0.758"",""0.971""]","[0,1,1,1]",0,62,62,62,1,0,1,,,1,FALSE,,,,,,,,,,,,,,,,,,,,,,,,,,,,,,,
,6106c8ad588fa9a7e605acc8,627c67de61dd416ac7e46de8,2022-05-12_03h50.59.335,classification_task,2021.2.3,Win32,60.63178318,627c6715c52fd12f31907bd0,,,,,,,,,,,,,,,,,,,,,,,l,1,1.1835,"[""0.082"",""0.254"",""0.474"",""0.684""]","[1,1,0,1]",0,63,63,63,1,1,0,,,1,FALSE,,,,,,,,,,,,,,,,,,,,,,,,,,,,,,,
,6106c8ad588fa9a7e605acc8,627c67de61dd416ac7e46de8,2022-05-12_03h50.59.335,classification_task,2021.2.3,Win32,60.63178318,627c6715c52fd12f31907bd0,,,,,,,,,,,,,,,,,,,,,,,,,,,,,,,,,,,,,,,0, ,,0,2.898754409,168.5184,0,1,1,1,1,2,2,,,,,,,,,,,,,,,,,,
,6106c8ad588fa9a7e605acc8,627c67de61dd416ac7e46de8,2022-05-12_03h50.59.335,classification_task,2021.2.3,Win32,60.63178318,627c6715c52fd12f31907bd0,,,,,,,,,,,,,,,,,,,,,,,,,,,,,,,,,,,,,,,1,  ,,0,10,172.2854,0,1,1,1,1,2,2,,,,,,,,,,,,,,,,,,
,6106c8ad588fa9a7e605acc8,627c67de61dd416ac7e46de8,2022-05-12_03h50.59.335,classification_task,2021.2.3,Win32,60.63178318,627c6715c52fd12f31907bd0,,,,,,,,,,,,,,,,,,,,,,,,,,,,,,,,,,,,,,,2,  ,,0,4.448853616,173.8183,0,1,1,1,1,2,2,,,,,,,,,,,,,,,,,,
,6106c8ad588fa9a7e605acc8,627c67de61dd416ac7e46de8,2022-05-12_03h50.59.335,classification_task,2021.2.3,Win32,60.63178318,627c6715c52fd12f31907bd0,,,,,,,,,,,,,,,,,,,,,,,,,,,,,,,,,,,,,,,,,,,,,0,1,1,1,1,,2,,,,,,,,,,,,,,,,,,
,6106c8ad588fa9a7e605acc8,627c67de61dd416ac7e46de8,2022-05-12_03h50.59.335,classification_task,2021.2.3,Win32,60.63178318,627c6715c52fd12f31907bd0,,,,,,,,,,,,,,,,,,,,,space,8.955,l,0,3.4173,"[""0.718"",""0.509"",""0.758"",""0.971""]","[0,1,1,1]",0,0,0,0,1,0,1,,,1,FALSE,,,,,,,,,,,,,,,,,,,,,,,,,,,,,,,
,6106c8ad588fa9a7e605acc8,627c67de61dd416ac7e46de8,2022-05-12_03h50.59.335,classification_task,2021.2.3,Win32,60.63178318,627c6715c52fd12f31907bd0,,,,,,,,,,,,,,,,,,,,,,,a,1,3.7854,"[""0.312"",""0.394"",""0.349"",""0.861""]","[1,1,0,1]",0,1,1,1,1,0,0,,,1,FALSE,,,,,,,,,,,,,,,,,,,,,,,,,,,,,,,
,6106c8ad588fa9a7e605acc8,627c67de61dd416ac7e46de8,2022-05-12_03h50.59.335,classification_task,2021.2.3,Win32,60.63178318,627c6715c52fd12f31907bd0,,,,,,,,,,,,,,,,,,,,,,,l,1,1.0506,"[""0.543"",""0.254"",""0.576"",""0.684""]","[0,1,1,1]",0,2,2,2,1,1,0,,,1,FALSE,,,,,,,,,,,,,,,,,,,,,,,,,,,,,,,
,6106c8ad588fa9a7e605acc8,627c67de61dd416ac7e46de8,2022-05-12_03h50.59.335,classification_task,2021.2.3,Win32,60.63178318,627c6715c52fd12f31907bd0,,,,,,,,,,,,,,,,,,,,,,,l,1,1.3974,"[""0.126"",""0.204"",""0.718"",""0.826""]","[1,1,0,1]",0,3,3,3,1,1,1,,,1,FALSE,,,,,,,,,,,,,,,,,,,,,,,,,,,,,,,
,6106c8ad588fa9a7e605acc8,627c67de61dd416ac7e46de8,2022-05-12_03h50.59.335,classification_task,2021.2.3,Win32,60.63178318,627c6715c52fd12f31907bd0,,,,,,,,,,,,,,,,,,,,,,,l,1,1.6479,"[""0.126"",""0.204"",""0.437"",""0.037""]","[1,1,1,0]",0,4,4,4,1,1,1,,,1,FALSE,,,,,,,,,,,,,,,,,,,,,,,,,,,,,,,
,6106c8ad588fa9a7e605acc8,627c67de61dd416ac7e46de8,2022-05-12_03h50.59.335,classification_task,2021.2.3,Win32,60.63178318,627c6715c52fd12f31907bd0,,,,,,,,,,,,,,,,,,,,,,,a,1,1.2105,"[""0.474"",""0.394"",""0.642"",""0.861""]","[0,1,1,1]",0,5,5,5,1,0,0,,,1,FALSE,,,,,,,,,,,,,,,,,,,,,,,,,,,,,,,
,6106c8ad588fa9a7e605acc8,627c67de61dd416ac7e46de8,2022-05-12_03h50.59.335,classification_task,2021.2.3,Win32,60.63178318,627c6715c52fd12f31907bd0,,,,,,,,,,,,,,,,,,,,,,,a,1,1.5162,"[""0.312"",""0.900"",""0.642"",""0.861""]","[1,0,1,1]",0,6,6,6,1,0,0,,,1,FALSE,,,,,,,,,,,,,,,,,,,,,,,,,,,,,,,
,6106c8ad588fa9a7e605acc8,627c67de61dd416ac7e46de8,2022-05-12_03h50.59.335,classification_task,2021.2.3,Win32,60.63178318,627c6715c52fd12f31907bd0,,,,,,,,,,,,,,,,,,,,,,,a,1,1.0525,"[""0.161"",""0.352"",""0.758"",""0.971""]","[1,0,1,1]",0,7,7,7,1,0,1,,,1,FALSE,,,,,,,,,,,,,,,,,,,,,,,,,,,,,,,
,6106c8ad588fa9a7e605acc8,627c67de61dd416ac7e46de8,2022-05-12_03h50.59.335,classification_task,2021.2.3,Win32,60.63178318,627c6715c52fd12f31907bd0,,,,,,,,,,,,,,,,,,,,,,,l,1,1.2995,"[""0.082"",""0.254"",""0.351"",""0.684""]","[1,1,0,1]",0,8,8,8,1,1,0,,,1,FALSE,,,,,,,,,,,,,,,,,,,,,,,,,,,,,,,
,6106c8ad588fa9a7e605acc8,627c67de61dd416ac7e46de8,2022-05-12_03h50.59.335,classification_task,2021.2.3,Win32,60.63178318,627c6715c52fd12f31907bd0,,,,,,,,,,,,,,,,,,,,,,,l,0,1.5325,"[""0.161"",""0.509"",""0.758"",""0.037""]","[1,1,1,0]",0,9,9,9,1,0,1,,,1,FALSE,,,,,,,,,,,,,,,,,,,,,,,,,,,,,,,
,6106c8ad588fa9a7e605acc8,627c67de61dd416ac7e46de8,2022-05-12_03h50.59.335,classification_task,2021.2.3,Win32,60.63178318,627c6715c52fd12f31907bd0,,,,,,,,,,,,,,,,,,,,,,,a,1,1.2192,"[""0.312"",""0.394"",""0.642"",""0.923""]","[1,1,1,0]",0,10,10,10,1,0,0,,,1,FALSE,,,,,,,,,,,,,,,,,,,,,,,,,,,,,,,
,6106c8ad588fa9a7e605acc8,627c67de61dd416ac7e46de8,2022-05-12_03h50.59.335,classification_task,2021.2.3,Win32,60.63178318,627c6715c52fd12f31907bd0,,,,,,,,,,,,,,,,,,,,,,,l,1,1.7978,"[""0.082"",""0.543"",""0.576"",""0.684""]","[1,0,1,1]",0,11,11,11,1,1,0,,,1,FALSE,,,,,,,,,,,,,,,,,,,,,,,,,,,,,,,
,6106c8ad588fa9a7e605acc8,627c67de61dd416ac7e46de8,2022-05-12_03h50.59.335,classification_task,2021.2.3,Win32,60.63178318,627c6715c52fd12f31907bd0,,,,,,,,,,,,,,,,,,,,,,,l,1,1.5364,"[""0.473"",""0.204"",""0.437"",""0.826""]","[0,1,1,1]",0,12,12,12,1,1,1,,,1,FALSE,,,,,,,,,,,,,,,,,,,,,,,,,,,,,,,
,6106c8ad588fa9a7e605acc8,627c67de61dd416ac7e46de8,2022-05-12_03h50.59.335,classification_task,2021.2.3,Win32,60.63178318,627c6715c52fd12f31907bd0,,,,,,,,,,,,,,,,,,,,,,,a,1,1.1643,"[""0.161"",""0.509"",""0.718"",""0.971""]","[1,1,0,1]",0,13,13,13,1,0,1,,,1,FALSE,,,,,,,,,,,,,,,,,,,,,,,,,,,,,,,
,6106c8ad588fa9a7e605acc8,627c67de61dd416ac7e46de8,2022-05-12_03h50.59.335,classification_task,2021.2.3,Win32,60.63178318,627c6715c52fd12f31907bd0,,,,,,,,,,,,,,,,,,,,,,,l,1,3.2343,"[""0.126"",""0.348"",""0.437"",""0.826""]","[1,0,1,1]",0,14,14,14,1,1,1,,,1,FALSE,,,,,,,,,,,,,,,,,,,,,,,,,,,,,,,
,6106c8ad588fa9a7e605acc8,627c67de61dd416ac7e46de8,2022-05-12_03h50.59.335,classification_task,2021.2.3,Win32,60.63178318,627c6715c52fd12f31907bd0,,,,,,,,,,,,,,,,,,,,,,,l,1,1.3533,"[""0.082"",""0.254"",""0.576"",""0.474""]","[1,1,1,0]",0,15,15,15,1,1,0,,,1,FALSE,,,,,,,,,,,,,,,,,,,,,,,,,,,,,,,
,6106c8ad588fa9a7e605acc8,627c67de61dd416ac7e46de8,2022-05-12_03h50.59.335,classification_task,2021.2.3,Win32,60.63178318,627c6715c52fd12f31907bd0,,,,,,,,,,,,,,,,,,,,,,,a,1,1.2168,"[""0.161"",""0.923"",""0.758"",""0.971""]","[1,0,1,1]",0,16,16,16,1,0,1,,,1,FALSE,,,,,,,,,,,,,,,,,,,,,,,,,,,,,,,
,6106c8ad588fa9a7e605acc8,627c67de61dd416ac7e46de8,2022-05-12_03h50.59.335,classification_task,2021.2.3,Win32,60.63178318,627c6715c52fd12f31907bd0,,,,,,,,,,,,,,,,,,,,,,,l,1,1.286,"[""0.126"",""0.718"",""0.437"",""0.826""]","[1,0,1,1]",0,17,17,17,1,1,1,,,1,FALSE,,,,,,,,,,,,,,,,,,,,,,,,,,,,,,,
,6106c8ad588fa9a7e605acc8,627c67de61dd416ac7e46de8,2022-05-12_03h50.59.335,classification_task,2021.2.3,Win32,60.63178318,627c6715c52fd12f31907bd0,,,,,,,,,,,,,,,,,,,,,,,l,1,1.1701,"[""0.126"",""0.204"",""0.437"",""0.349""]","[1,1,1,0]",0,18,18,18,1,1,1,,,1,FALSE,,,,,,,,,,,,,,,,,,,,,,,,,,,,,,,
,6106c8ad588fa9a7e605acc8,627c67de61dd416ac7e46de8,2022-05-12_03h50.59.335,classification_task,2021.2.3,Win32,60.63178318,627c6715c52fd12f31907bd0,,,,,,,,,,,,,,,,,,,,,,,a,1,0.7678,"[""0.161"",""0.509"",""0.361"",""0.971""]","[1,1,0,1]",0,19,19,19,1,0,1,,,1,FALSE,,,,,,,,,,,,,,,,,,,,,,,,,,,,,,,
,6106c8ad588fa9a7e605acc8,627c67de61dd416ac7e46de8,2022-05-12_03h50.59.335,classification_task,2021.2.3,Win32,60.63178318,627c6715c52fd12f31907bd0,,,,,,,,,,,,,,,,,,,,,,,a,0,1.3818,"[""0.473"",""0.204"",""0.437"",""0.826""]","[0,1,1,1]",0,20,20,20,1,1,1,,,1,FALSE,,,,,,,,,,,,,,,,,,,,,,,,,,,,,,,
,6106c8ad588fa9a7e605acc8,627c67de61dd416ac7e46de8,2022-05-12_03h50.59.335,classification_task,2021.2.3,Win32,60.63178318,627c6715c52fd12f31907bd0,,,,,,,,,,,,,,,,,,,,,,,a,1,1.1461,"[""0.312"",""0.394"",""0.543"",""0.861""]","[1,1,0,1]",0,21,21,21,1,0,0,,,1,FALSE,,,,,,,,,,,,,,,,,,,,,,,,,,,,,,,
,6106c8ad588fa9a7e605acc8,627c67de61dd416ac7e46de8,2022-05-12_03h50.59.335,classification_task,2021.2.3,Win32,60.63178318,627c6715c52fd12f31907bd0,,,,,,,,,,,,,,,,,,,,,,,l,1,1.3136,"[""0.126"",""0.204"",""0.351"",""0.826""]","[1,1,0,1]",0,22,22,22,1,1,1,,,1,FALSE,,,,,,,,,,,,,,,,,,,,,,,,,,,,,,,
,6106c8ad588fa9a7e605acc8,627c67de61dd416ac7e46de8,2022-05-12_03h50.59.335,classification_task,2021.2.3,Win32,60.63178318,627c6715c52fd12f31907bd0,,,,,,,,,,,,,,,,,,,,,,,a,1,1.4832,"[""0.312"",""0.394"",""0.642"",""0.905""]","[1,1,1,0]",0,23,23,23,1,0,0,,,1,FALSE,,,,,,,,,,,,,,,,,,,,,,,,,,,,,,,
,6106c8ad588fa9a7e605acc8,627c67de61dd416ac7e46de8,2022-05-12_03h50.59.335,classification_task,2021.2.3,Win32,60.63178318,627c6715c52fd12f31907bd0,,,,,,,,,,,,,,,,,,,,,,,l,1,1.5647,"[""0.082"",""0.254"",""0.473"",""0.684""]","[1,1,0,1]",0,24,24,24,1,1,0,,,1,FALSE,,,,,,,,,,,,,,,,,,,,,,,,,,,,,,,
,6106c8ad588fa9a7e605acc8,627c67de61dd416ac7e46de8,2022-05-12_03h50.59.335,classification_task,2021.2.3,Win32,60.63178318,627c6715c52fd12f31907bd0,,,,,,,,,,,,,,,,,,,,,,,l,0,1.4641,"[""0.351"",""0.509"",""0.758"",""0.971""]","[0,1,1,1]",0,25,25,25,1,0,1,,,1,FALSE,,,,,,,,,,,,,,,,,,,,,,,,,,,,,,,
,6106c8ad588fa9a7e605acc8,627c67de61dd416ac7e46de8,2022-05-12_03h50.59.335,classification_task,2021.2.3,Win32,60.63178318,627c6715c52fd12f31907bd0,,,,,,,,,,,,,,,,,,,,,,,l,0,1.3512,"[""0.473"",""0.394"",""0.642"",""0.861""]","[0,1,1,1]",0,26,26,26,1,0,0,,,1,FALSE,,,,,,,,,,,,,,,,,,,,,,,,,,,,,,,
,6106c8ad588fa9a7e605acc8,627c67de61dd416ac7e46de8,2022-05-12_03h50.59.335,classification_task,2021.2.3,Win32,60.63178318,627c6715c52fd12f31907bd0,,,,,,,,,,,,,,,,,,,,,,,l,1,1.4833,"[""0.473"",""0.254"",""0.576"",""0.684""]","[0,1,1,1]",0,27,27,27,1,1,0,,,1,FALSE,,,,,,,,,,,,,,,,,,,,,,,,,,,,,,,
,6106c8ad588fa9a7e605acc8,627c67de61dd416ac7e46de8,2022-05-12_03h50.59.335,classification_task,2021.2.3,Win32,60.63178318,627c6715c52fd12f31907bd0,,,,,,,,,,,,,,,,,,,,,,,a,0,1.3495,"[""0.082"",""0.474"",""0.576"",""0.684""]","[1,0,1,1]",0,28,28,28,1,1,0,,,1,FALSE,,,,,,,,,,,,,,,,,,,,,,,,,,,,,,,
,6106c8ad588fa9a7e605acc8,627c67de61dd416ac7e46de8,2022-05-12_03h50.59.335,classification_task,2021.2.3,Win32,60.63178318,627c6715c52fd12f31907bd0,,,,,,,,,,,,,,,,,,,,,,,a,0,1.4291,"[""0.082"",""0.254"",""0.576"",""0.351""]","[1,1,1,0]",0,29,29,29,1,1,0,,,1,FALSE,,,,,,,,,,,,,,,,,,,,,,,,,,,,,,,
,6106c8ad588fa9a7e605acc8,627c67de61dd416ac7e46de8,2022-05-12_03h50.59.335,classification_task,2021.2.3,Win32,60.63178318,627c6715c52fd12f31907bd0,,,,,,,,,,,,,,,,,,,,,,,a,1,1.2195,"[""0.161"",""0.509"",""0.758"",""0.543""]","[1,1,1,0]",0,30,30,30,1,0,1,,,1,FALSE,,,,,,,,,,,,,,,,,,,,,,,,,,,,,,,
,6106c8ad588fa9a7e605acc8,627c67de61dd416ac7e46de8,2022-05-12_03h50.59.335,classification_task,2021.2.3,Win32,60.63178318,627c6715c52fd12f31907bd0,,,,,,,,,,,,,,,,,,,,,,,l,0,1.4313,"[""0.312"",""0.473"",""0.642"",""0.861""]","[1,0,1,1]",0,31,31,31,1,0,0,,,1,FALSE,,,,,,,,,,,,,,,,,,,,,,,,,,,,,,,
,6106c8ad588fa9a7e605acc8,627c67de61dd416ac7e46de8,2022-05-12_03h50.59.335,classification_task,2021.2.3,Win32,60.63178318,627c6715c52fd12f31907bd0,,,,,,,,,,,,,,,,,,,,,,,l,1,1.3471,"[""0.126"",""0.204"",""0.352"",""0.826""]","[1,1,0,1]",0,32,32,32,1,1,1,,,1,FALSE,,,,,,,,,,,,,,,,,,,,,,,,,,,,,,,
,6106c8ad588fa9a7e605acc8,627c67de61dd416ac7e46de8,2022-05-12_03h50.59.335,classification_task,2021.2.3,Win32,60.63178318,627c6715c52fd12f31907bd0,,,,,,,,,,,,,,,,,,,,,,,a,1,1.1003,"[""0.161"",""0.509"",""0.758"",""0.718""]","[1,1,1,0]",0,33,33,33,1,0,1,,,1,FALSE,,,,,,,,,,,,,,,,,,,,,,,,,,,,,,,
,6106c8ad588fa9a7e605acc8,627c67de61dd416ac7e46de8,2022-05-12_03h50.59.335,classification_task,2021.2.3,Win32,60.63178318,627c6715c52fd12f31907bd0,,,,,,,,,,,,,,,,,,,,,,,l,0,1.5133,"[""0.351"",""0.394"",""0.642"",""0.861""]","[0,1,1,1]",0,34,34,34,1,0,0,,,1,FALSE,,,,,,,,,,,,,,,,,,,,,,,,,,,,,,,
,6106c8ad588fa9a7e605acc8,627c67de61dd416ac7e46de8,2022-05-12_03h50.59.335,classification_task,2021.2.3,Win32,60.63178318,627c6715c52fd12f31907bd0,,,,,,,,,,,,,,,,,,,,,,,l,0,0.8638,"[""0.312"",""0.474"",""0.642"",""0.861""]","[1,0,1,1]",0,35,35,35,1,0,0,,,1,FALSE,,,,,,,,,,,,,,,,,,,,,,,,,,,,,,,
,6106c8ad588fa9a7e605acc8,627c67de61dd416ac7e46de8,2022-05-12_03h50.59.335,classification_task,2021.2.3,Win32,60.63178318,627c6715c52fd12f31907bd0,,,,,,,,,,,,,,,,,,,,,,,l,1,1.1675,"[""0.126"",""0.204"",""0.437"",""0.037""]","[1,1,1,0]",0,36,36,36,1,1,1,,,1,FALSE,,,,,,,,,,,,,,,,,,,,,,,,,,,,,,,
,6106c8ad588fa9a7e605acc8,627c67de61dd416ac7e46de8,2022-05-12_03h50.59.335,classification_task,2021.2.3,Win32,60.63178318,627c6715c52fd12f31907bd0,,,,,,,,,,,,,,,,,,,,,,,a,0,0.8483,"[""0.082"",""0.923"",""0.576"",""0.684""]","[1,0,1,1]",0,37,37,37,1,1,0,,,1,FALSE,,,,,,,,,,,,,,,,,,,,,,,,,,,,,,,
,6106c8ad588fa9a7e605acc8,627c67de61dd416ac7e46de8,2022-05-12_03h50.59.335,classification_task,2021.2.3,Win32,60.63178318,627c6715c52fd12f31907bd0,,,,,,,,,,,,,,,,,,,,,,,l,1,1.2676,"[""0.082"",""0.254"",""0.900"",""0.684""]","[1,1,0,1]",0,38,38,38,1,1,0,,,1,FALSE,,,,,,,,,,,,,,,,,,,,,,,,,,,,,,,
,6106c8ad588fa9a7e605acc8,627c67de61dd416ac7e46de8,2022-05-12_03h50.59.335,classification_task,2021.2.3,Win32,60.63178318,627c6715c52fd12f31907bd0,,,,,,,,,,,,,,,,,,,,,,,l,1,1.2597,"[""0.082"",""0.254"",""0.576"",""0.718""]","[1,1,1,0]",0,39,39,39,1,1,0,,,1,FALSE,,,,,,,,,,,,,,,,,,,,,,,,,,,,,,,
,6106c8ad588fa9a7e605acc8,627c67de61dd416ac7e46de8,2022-05-12_03h50.59.335,classification_task,2021.2.3,Win32,60.63178318,627c6715c52fd12f31907bd0,,,,,,,,,,,,,,,,,,,,,,,l,0,1.1522,"[""0.161"",""0.509"",""0.037"",""0.971""]","[1,1,0,1]",0,40,40,40,1,0,1,,,1,FALSE,,,,,,,,,,,,,,,,,,,,,,,,,,,,,,,
,6106c8ad588fa9a7e605acc8,627c67de61dd416ac7e46de8,2022-05-12_03h50.59.335,classification_task,2021.2.3,Win32,60.63178318,627c6715c52fd12f31907bd0,,,,,,,,,,,,,,,,,,,,,,,l,1,1.7962,"[""0.910"",""0.254"",""0.576"",""0.684""]","[0,1,1,1]",0,41,41,41,1,1,0,,,1,FALSE,,,,,,,,,,,,,,,,,,,,,,,,,,,,,,,
,6106c8ad588fa9a7e605acc8,627c67de61dd416ac7e46de8,2022-05-12_03h50.59.335,classification_task,2021.2.3,Win32,60.63178318,627c6715c52fd12f31907bd0,,,,,,,,,,,,,,,,,,,,,,,l,1,1.136,"[""0.037"",""0.204"",""0.437"",""0.826""]","[0,1,1,1]",0,42,42,42,1,1,1,,,1,FALSE,,,,,,,,,,,,,,,,,,,,,,,,,,,,,,,
,6106c8ad588fa9a7e605acc8,627c67de61dd416ac7e46de8,2022-05-12_03h50.59.335,classification_task,2021.2.3,Win32,60.63178318,627c6715c52fd12f31907bd0,,,,,,,,,,,,,,,,,,,,,,,a,1,1.2315,"[""0.348"",""0.509"",""0.758"",""0.971""]","[0,1,1,1]",0,43,43,43,1,0,1,,,1,FALSE,,,,,,,,,,,,,,,,,,,,,,,,,,,,,,,
,6106c8ad588fa9a7e605acc8,627c67de61dd416ac7e46de8,2022-05-12_03h50.59.335,classification_task,2021.2.3,Win32,60.63178318,627c6715c52fd12f31907bd0,,,,,,,,,,,,,,,,,,,,,,,a,1,0.8698,"[""0.161"",""0.923"",""0.758"",""0.971""]","[1,0,1,1]",0,44,44,44,1,0,1,,,1,FALSE,,,,,,,,,,,,,,,,,,,,,,,,,,,,,,,
,6106c8ad588fa9a7e605acc8,627c67de61dd416ac7e46de8,2022-05-12_03h50.59.335,classification_task,2021.2.3,Win32,60.63178318,627c6715c52fd12f31907bd0,,,,,,,,,,,,,,,,,,,,,,,l,1,2.1484,"[""0.126"",""0.043"",""0.437"",""0.826""]","[1,0,1,1]",0,45,45,45,1,1,1,,,1,FALSE,,,,,,,,,,,,,,,,,,,,,,,,,,,,,,,
,6106c8ad588fa9a7e605acc8,627c67de61dd416ac7e46de8,2022-05-12_03h50.59.335,classification_task,2021.2.3,Win32,60.63178318,627c6715c52fd12f31907bd0,,,,,,,,,,,,,,,,,,,,,,,a,1,0.8535,"[""0.312"",""0.394"",""0.642"",""0.543""]","[1,1,1,0]",0,46,46,46,1,0,0,,,1,FALSE,,,,,,,,,,,,,,,,,,,,,,,,,,,,,,,
,6106c8ad588fa9a7e605acc8,627c67de61dd416ac7e46de8,2022-05-12_03h50.59.335,classification_task,2021.2.3,Win32,60.63178318,627c6715c52fd12f31907bd0,,,,,,,,,,,,,,,,,,,,,,,a,1,0.6172,"[""0.312"",""0.394"",""0.037"",""0.861""]","[1,1,0,1]",0,47,47,47,1,0,0,,,1,FALSE,,,,,,,,,,,,,,,,,,,,,,,,,,,,,,,
,6106c8ad588fa9a7e605acc8,627c67de61dd416ac7e46de8,2022-05-12_03h50.59.335,classification_task,2021.2.3,Win32,60.63178318,627c6715c52fd12f31907bd0,,,,,,,,,,,,,,,,,,,,,,,a,1,0.6478,"[""0.312"",""0.394"",""0.043"",""0.861""]","[1,1,0,1]",0,48,48,48,1,0,0,,,1,FALSE,,,,,,,,,,,,,,,,,,,,,,,,,,,,,,,
,6106c8ad588fa9a7e605acc8,627c67de61dd416ac7e46de8,2022-05-12_03h50.59.335,classification_task,2021.2.3,Win32,60.63178318,627c6715c52fd12f31907bd0,,,,,,,,,,,,,,,,,,,,,,,l,1,1.0651,"[""0.082"",""0.254"",""0.352"",""0.684""]","[1,1,0,1]",0,49,49,49,1,1,0,,,1,FALSE,,,,,,,,,,,,,,,,,,,,,,,,,,,,,,,
,6106c8ad588fa9a7e605acc8,627c67de61dd416ac7e46de8,2022-05-12_03h50.59.335,classification_task,2021.2.3,Win32,60.63178318,627c6715c52fd12f31907bd0,,,,,,,,,,,,,,,,,,,,,,,l,0,1.8479,"[""0.161"",""0.509"",""0.349"",""0.971""]","[1,1,0,1]",0,50,50,50,1,0,1,,,1,FALSE,,,,,,,,,,,,,,,,,,,,,,,,,,,,,,,
,6106c8ad588fa9a7e605acc8,627c67de61dd416ac7e46de8,2022-05-12_03h50.59.335,classification_task,2021.2.3,Win32,60.63178318,627c6715c52fd12f31907bd0,,,,,,,,,,,,,,,,,,,,,,,l,1,1.2049,"[""0.351"",""0.204"",""0.437"",""0.826""]","[0,1,1,1]",0,51,51,51,1,1,1,,,1,FALSE,,,,,,,,,,,,,,,,,,,,,,,,,,,,,,,
,6106c8ad588fa9a7e605acc8,627c67de61dd416ac7e46de8,2022-05-12_03h50.59.335,classification_task,2021.2.3,Win32,60.63178318,627c6715c52fd12f31907bd0,,,,,,,,,,,,,,,,,,,,,,,a,1,3.2973,"[""0.037"",""0.509"",""0.758"",""0.971""]","[0,1,1,1]",0,52,52,52,1,0,1,,,1,FALSE,,,,,,,,,,,,,,,,,,,,,,,,,,,,,,,
,6106c8ad588fa9a7e605acc8,627c67de61dd416ac7e46de8,2022-05-12_03h50.59.335,classification_task,2021.2.3,Win32,60.63178318,627c6715c52fd12f31907bd0,,,,,,,,,,,,,,,,,,,,,,,a,1,1.2393,"[""0.312"",""0.352"",""0.642"",""0.861""]","[1,0,1,1]",0,53,53,53,1,0,0,,,1,FALSE,,,,,,,,,,,,,,,,,,,,,,,,,,,,,,,
,6106c8ad588fa9a7e605acc8,627c67de61dd416ac7e46de8,2022-05-12_03h50.59.335,classification_task,2021.2.3,Win32,60.63178318,627c6715c52fd12f31907bd0,,,,,,,,,,,,,,,,,,,,,,,a,0,1.2803,"[""0.126"",""0.204"",""0.043"",""0.826""]","[1,1,0,1]",0,54,54,54,1,1,1,,,1,FALSE,,,,,,,,,,,,,,,,,,,,,,,,,,,,,,,
,6106c8ad588fa9a7e605acc8,627c67de61dd416ac7e46de8,2022-05-12_03h50.59.335,classification_task,2021.2.3,Win32,60.63178318,627c6715c52fd12f31907bd0,,,,,,,,,,,,,,,,,,,,,,,l,1,1.3476,"[""0.126"",""0.351"",""0.437"",""0.826""]","[1,0,1,1]",0,55,55,55,1,1,1,,,1,FALSE,,,,,,,,,,,,,,,,,,,,,,,,,,,,,,,
,6106c8ad588fa9a7e605acc8,627c67de61dd416ac7e46de8,2022-05-12_03h50.59.335,classification_task,2021.2.3,Win32,60.63178318,627c6715c52fd12f31907bd0,,,,,,,,,,,,,,,,,,,,,,,l,1,1.1179,"[""0.126"",""0.204"",""0.437"",""0.043""]","[1,1,1,0]",0,56,56,56,1,1,1,,,1,FALSE,,,,,,,,,,,,,,,,,,,,,,,,,,,,,,,
,6106c8ad588fa9a7e605acc8,627c67de61dd416ac7e46de8,2022-05-12_03h50.59.335,classification_task,2021.2.3,Win32,60.63178318,627c6715c52fd12f31907bd0,,,,,,,,,,,,,,,,,,,,,,,a,0,1.3965,"[""0.082"",""0.923"",""0.576"",""0.684""]","[1,0,1,1]",0,57,57,57,1,1,0,,,1,FALSE,,,,,,,,,,,,,,,,,,,,,,,,,,,,,,,
,6106c8ad588fa9a7e605acc8,627c67de61dd416ac7e46de8,2022-05-12_03h50.59.335,classification_task,2021.2.3,Win32,60.63178318,627c6715c52fd12f31907bd0,,,,,,,,,,,,,,,,,,,,,,,a,1,1.0978,"[""0.312"",""0.394"",""0.642"",""0.474""]","[1,1,1,0]",0,58,58,58,1,0,0,,,1,FALSE,,,,,,,,,,,,,,,,,,,,,,,,,,,,,,,
,6106c8ad588fa9a7e605acc8,627c67de61dd416ac7e46de8,2022-05-12_03h50.59.335,classification_task,2021.2.3,Win32,60.63178318,627c6715c52fd12f31907bd0,,,,,,,,,,,,,,,,,,,,,,,l,1,1.0494,"[""0.082"",""0.254"",""0.576"",""0.361""]","[1,1,1,0]",0,59,59,59,1,1,0,,,1,FALSE,,,,,,,,,,,,,,,,,,,,,,,,,,,,,,,
,6106c8ad588fa9a7e605acc8,627c67de61dd416ac7e46de8,2022-05-12_03h50.59.335,classification_task,2021.2.3,Win32,60.63178318,627c6715c52fd12f31907bd0,,,,,,,,,,,,,,,,,,,,,,,a,1,1.2147,"[""0.543"",""0.394"",""0.642"",""0.861""]","[0,1,1,1]",0,60,60,60,1,0,0,,,1,FALSE,,,,,,,,,,,,,,,,,,,,,,,,,,,,,,,
,6106c8ad588fa9a7e605acc8,627c67de61dd416ac7e46de8,2022-05-12_03h50.59.335,classification_task,2021.2.3,Win32,60.63178318,627c6715c52fd12f31907bd0,,,,,,,,,,,,,,,,,,,,,,,l,0,1.1459,"[""0.161"",""0.509"",""0.758"",""0.352""]","[1,1,1,0]",0,61,61,61,1,0,1,,,1,FALSE,,,,,,,,,,,,,,,,,,,,,,,,,,,,,,,
,6106c8ad588fa9a7e605acc8,627c67de61dd416ac7e46de8,2022-05-12_03h50.59.335,classification_task,2021.2.3,Win32,60.63178318,627c6715c52fd12f31907bd0,,,,,,,,,,,,,,,,,,,,,,,l,1,1.1454,"[""0.474"",""0.254"",""0.576"",""0.684""]","[0,1,1,1]",0,62,62,62,1,1,0,,,1,FALSE,,,,,,,,,,,,,,,,,,,,,,,,,,,,,,,
,6106c8ad588fa9a7e605acc8,627c67de61dd416ac7e46de8,2022-05-12_03h50.59.335,classification_task,2021.2.3,Win32,60.63178318,627c6715c52fd12f31907bd0,,,,,,,,,,,,,,,,,,,,,,,l,0,1.5653,"[""0.161"",""0.043"",""0.758"",""0.971""]","[1,0,1,1]",0,63,63,63,1,0,1,,,1,FALSE,,,,,,,,,,,,,,,,,,,,,,,,,,,,,,,
,6106c8ad588fa9a7e605acc8,627c67de61dd416ac7e46de8,2022-05-12_03h50.59.335,classification_task,2021.2.3,Win32,60.63178318,627c6715c52fd12f31907bd0,,,,,,,,,,,,,,,,,,,,,,,,,,,,,,,,,,,,,,,0, ,,0,4.724426808,170.7379,0,2,2,2,1,2,3,,,,,,,,,,,,,,,,,,
,6106c8ad588fa9a7e605acc8,627c67de61dd416ac7e46de8,2022-05-12_03h50.59.335,classification_task,2021.2.3,Win32,60.63178318,627c6715c52fd12f31907bd0,,,,,,,,,,,,,,,,,,,,,,,,,,,,,,,,,,,,,,,1,  ,,0,10,175.4463,0,2,2,2,1,2,3,,,,,,,,,,,,,,,,,,
,6106c8ad588fa9a7e605acc8,627c67de61dd416ac7e46de8,2022-05-12_03h50.59.335,classification_task,2021.2.3,Win32,60.63178318,627c6715c52fd12f31907bd0,,,,,,,,,,,,,,,,,,,,,,,,,,,,,,,,,,,,,,,2,  ,,0,10,178.1807,0,2,2,2,1,2,3,,,,,,,,,,,,,,,,,,
,6106c8ad588fa9a7e605acc8,627c67de61dd416ac7e46de8,2022-05-12_03h50.59.335,classification_task,2021.2.3,Win32,60.63178318,627c6715c52fd12f31907bd0,,,,,,,,,,,,,,,,,,,,,,,,,,,,,,,,,,,,,,,,,,,,,0,2,2,2,1,,3,,,,,,,,,,,,,,,,,,
,6106c8ad588fa9a7e605acc8,627c67de61dd416ac7e46de8,2022-05-12_03h50.59.335,classification_task,2021.2.3,Win32,60.63178318,627c6715c52fd12f31907bd0,,,,,,,,,,,,,,,,,,,,,,,,,,,,,,,,,,,,,,,,,,,,,,,,,,,,,I believe the aid is a competent performer,,0.7,0,4,917.359,0,0,0,0,1,0,,,,,
,6106c8ad588fa9a7e605acc8,627c67de61dd416ac7e46de8,2022-05-12_03h50.59.335,classification_task,2021.2.3,Win32,60.63178318,627c6715c52fd12f31907bd0,,,,,,,,,,,,,,,,,,,,,,,,,,,,,,,,,,,,,,,,,,,,,,,,,,,,,I trust the aid,,0.7,0,4,913.3897,0,0,0,0,1,0,,,,,
,6106c8ad588fa9a7e605acc8,627c67de61dd416ac7e46de8,2022-05-12_03h50.59.335,classification_task,2021.2.3,Win32,60.63178318,627c6715c52fd12f31907bd0,,,,,,,,,,,,,,,,,,,,,,,,,,,,,,,,,,,,,,,,,,,,,,,,,,,,,I have confidence in the advice given by the aid,,0.7,0,4,919.0021,0,0,0,0,1,0,,,,,
,6106c8ad588fa9a7e605acc8,627c67de61dd416ac7e46de8,2022-05-12_03h50.59.335,classification_task,2021.2.3,Win32,60.63178318,627c6715c52fd12f31907bd0,,,,,,,,,,,,,,,,,,,,,,,,,,,,,,,,,,,,,,,,,,,,,,,,,,,,,I can depend on the aid,,0.7,0,4,921.7625,0,0,0,0,1,0,,,,,
,6106c8ad588fa9a7e605acc8,627c67de61dd416ac7e46de8,2022-05-12_03h50.59.335,classification_task,2021.2.3,Win32,60.63178318,627c6715c52fd12f31907bd0,,,,,,,,,,,,,,,,,,,,,,,,,,,,,,,,,,,,,,,,,,,,,,,,,,,,,I can rely on the aid to behave in consistent ways,,0.7,0,4,922.9881,0,0,0,0,1,0,,,,,
,6106c8ad588fa9a7e605acc8,627c67de61dd416ac7e46de8,2022-05-12_03h50.59.335,classification_task,2021.2.3,Win32,60.63178318,627c6715c52fd12f31907bd0,,,,,,,,,,,,,,,,,,,,,,,,,,,,,,,,,,,,,,,,,,,,,,,,,,,,,I can rely on the aid to do its best every time I take its advice,,0.7,0,4,925.1462,0,0,0,0,1,0,,,,,
,6106c8ad588fa9a7e605acc8,627c67de61dd416ac7e46de8,2022-05-12_03h50.59.335,classification_task,2021.2.3,Win32,60.63178318,627c6715c52fd12f31907bd0,,,,,,,,,,,,,,,,,,,,,,,,,,,,,,,,,,,,,,,,,,,,,,,,,,,,,"On trials you completed with assistance from the aid, how frequently did you think the aid was correct?",,0.7,0,70%,,0,0,0,0,1,0,,,,,
,6106c8ad588fa9a7e605acc8,627c67de61dd416ac7e46de8,2022-05-12_03h50.59.335,classification_task,2021.2.3,Win32,60.63178318,627c6715c52fd12f31907bd0,,,,,,,,,,,,,,,,,,,,,,,,,,,,,,,,,,,,,,,,,,,,,,,,,,,,,"On trials you completed without the aid, how frequently did you think you were correct?",,0.7,0,40%,,0,0,0,0,1,0,,,,,
,6106c8ad588fa9a7e605acc8,627c67de61dd416ac7e46de8,2022-05-12_03h50.59.335,classification_task,2021.2.3,Win32,60.63178318,627c6715c52fd12f31907bd0,,,,,,,,,,,,,,,,,,,,,,,,,,,,,,,,,,,,,,,,,,,,,,,,,,,,,,,,,,,0,0,0,0,1,,,,,,
,6106c8ad588fa9a7e605acc8,627c67de61dd416ac7e46de8,2022-05-12_03h50.59.335,classification_task,2021.2.3,Win32,60.63178318,627c6715c52fd12f31907bd0,,,,,,,,,,,,,,,,,,,,,,,,,,,,,,,,,,,,,,,,,,,,,,,,,,,,,,,,,,,,,,,,,space,6.5006,933.2162,,
,6106c8ad588fa9a7e605acc8,627c67de61dd416ac7e46de8,2022-05-12_03h50.59.335,classification_task,2021.2.3,Win32,60.63178318,627c6715c52fd12f31907bd0,,,,,,,,,,,,,,,,,,,,,,,,,,,,,,,,,,,,,,,,,,,,,,,,,,,,,,,,,,,,,,,,,,,,"Mozilla/5.0 (Windows NT 10.0; Win64; x64) AppleWebKit/537.36 (KHTML, like Gecko) Chrome/101.0.4951.54 Safari/537.36",
,6106c8ad588fa9a7e605acc8,627c67de61dd416ac7e46de8,2022-05-12_03h50.59.335,classification_task,2021.2.3,Win32,60.63178318,627c6715c52fd12f31907bd0,,,,,,,,,,,,,,,,,,,,,,,,,,,,,,,,,,,,,,,,,,,,,,,,,,,,,,,,,,,,,,,,,,,,,FADING
