usingWebGL,participant,session,date,expName,psychopyVersion,OS,frameRate,study_id,signatures_friend,signatures_foe,band_ranges_top,band_ranges_bottom,formitemText,formtype,formundefined,formitemWidth,formindex,formresponse,formrt,key_resp_2.keys,key_resp_2.rt,tute_resp.keys,tute_resp.rt,tutorial.thisRepN,tutorial.thisTrialN,tutorial.thisN,tutorial.thisIndex,tutorial.ran,key_resp_4.keys,key_resp_4.rt,key_resp.keys,key_resp.corr,key_resp.rt,lines_presented,is_signal_presented,trials.thisRepN,trials.thisTrialN,trials.thisN,trials.thisIndex,trials.ran,vessel,active_band,lines,is_signal,supported_pos,catch_trial,debrief_formindex,debrief_formitemText,debrief_formtype,debrief_formitemWidth,debrief_formresponse,debrief_formrt,phases.thisRepN,phases.thisTrialN,phases.thisN,phases.thisIndex,phases.ran,phases.order,phase,key_resp_3.keys,trustitemText,trusttype,trustitemWidth,trustindex,trustresponse,trustrt,support_status.thisRepN,support_status.thisTrialN,support_status.thisN,support_status.thisIndex,support_status.ran,support_status.order,key_resp_5.keys,key_resp_5.rt,globalClockTime,userAgent,manualCondition
TRUE,6107a61bb8c7ec465a529c11,627c6f88297d3217c260433d,2022-05-11_21h24.03.447,classification_task,2021.2.3,Win32,60.0132029,627c6715c52fd12f31907bd0,,,,,,,,,,,,,,,,,,,,,,,,,,,,,,,,,,,,,,,,,,,,,,,,,,,,,,,,,,,,,,,,,,,,,
,6107a61bb8c7ec465a529c11,627c6f88297d3217c260433d,2022-05-11_21h24.03.447,classification_task,2021.2.3,Win32,60.0132029,627c6715c52fd12f31907bd0,"[[""0.187"",""0.380"",""0.909"",""0.954""],[""0.280"",""0.478"",""0.702"",""0.867""]]","[[""0.075"",""0.427"",""0.584"",""0.833""],[""0.111"",""0.340"",""0.638"",""0.792""]]","[1,10]","[100,1000]",Video game experience,,,0.7,0,,,,,,,,,,,,,,,,,,,,,,,,,,,,,,,,,,,,,,,,,,,,,,,,,,,,,,,,,,,,
,6107a61bb8c7ec465a529c11,627c6f88297d3217c260433d,2022-05-11_21h24.03.447,classification_task,2021.2.3,Win32,60.0132029,627c6715c52fd12f31907bd0,,,,,Approximately how many hours did you spend playing video games in the last week?,,,0.7,0,2,,,,,,,,,,,,,,,,,,,,,,,,,,,,,,,,,,,,,,,,,,,,,,,,,,,,,,,,,,,
,6107a61bb8c7ec465a529c11,627c6f88297d3217c260433d,2022-05-11_21h24.03.447,classification_task,2021.2.3,Win32,60.0132029,627c6715c52fd12f31907bd0,,,,,"Which game did you play the most this year? (Enter ""None"" if you didn't play any)",,,0.7,0,Animal Restaurant,,,,,,,,,,,,,,,,,,,,,,,,,,,,,,,,,,,,,,,,,,,,,,,,,,,,,,,,,,,
,6107a61bb8c7ec465a529c11,627c6f88297d3217c260433d,2022-05-11_21h24.03.447,classification_task,2021.2.3,Win32,60.0132029,627c6715c52fd12f31907bd0,,,,,Visual perception,,,0.7,0,,,,,,,,,,,,,,,,,,,,,,,,,,,,,,,,,,,,,,,,,,,,,,,,,,,,,,,,,,,,
,6107a61bb8c7ec465a529c11,627c6f88297d3217c260433d,2022-05-11_21h24.03.447,classification_task,2021.2.3,Win32,60.0132029,627c6715c52fd12f31907bd0,,,,,Do you have any form of color blindness?,,,0.7,0,No,24.3633,,,,,,,,,,,,,,,,,,,,,,,,,,,,,,,,,,,,,,,,,,,,,,,,,,,,,,,,,,
,6107a61bb8c7ec465a529c11,627c6f88297d3217c260433d,2022-05-11_21h24.03.447,classification_task,2021.2.3,Win32,60.0132029,627c6715c52fd12f31907bd0,,,,,Do you use software to change the colour temperature of your screen (e.g. f.lux)?,,,0.7,0,No,26.694,,,,,,,,,,,,,,,,,,,,,,,,,,,,,,,,,,,,,,,,,,,,,,,,,,,,,,,,,,
,6107a61bb8c7ec465a529c11,627c6f88297d3217c260433d,2022-05-11_21h24.03.447,classification_task,2021.2.3,Win32,60.0132029,627c6715c52fd12f31907bd0,,,,,,,,,,,,space,28.0573,space,8.0926,0,0,0,0,1,,,,,,,,,,,,,,,,,,,,,,,,,,,,,,,,,,,,,,,,,,,,,,,,,
,6107a61bb8c7ec465a529c11,627c6f88297d3217c260433d,2022-05-11_21h24.03.447,classification_task,2021.2.3,Win32,60.0132029,627c6715c52fd12f31907bd0,,,,,,,,,,,,,,space,7.7074,1,0,1,0,1,,,,,,,,,,,,,,,,,,,,,,,,,,,,,,,,,,,,,,,,,,,,,,,,,
,6107a61bb8c7ec465a529c11,627c6f88297d3217c260433d,2022-05-11_21h24.03.447,classification_task,2021.2.3,Win32,60.0132029,627c6715c52fd12f31907bd0,,,,,,,,,,,,,,space,18.8408,2,0,2,0,1,,,,,,,,,,,,,,,,,,,,,,,,,,,,,,,,,,,,,,,,,,,,,,,,,
,6107a61bb8c7ec465a529c11,627c6f88297d3217c260433d,2022-05-11_21h24.03.447,classification_task,2021.2.3,Win32,60.0132029,627c6715c52fd12f31907bd0,,,,,,,,,,,,,,space,8.5499,3,0,3,0,1,,,,,,,,,,,,,,,,,,,,,,,,,,,,,,,,,,,,,,,,,,,,,,,,,
,6107a61bb8c7ec465a529c11,627c6f88297d3217c260433d,2022-05-11_21h24.03.447,classification_task,2021.2.3,Win32,60.0132029,627c6715c52fd12f31907bd0,,,,,,,,,,,,,,space,12.5277,4,0,4,0,1,,,,,,,,,,,,,,,,,,,,,,,,,,,,,,,,,,,,,,,,,,,,,,,,,
,6107a61bb8c7ec465a529c11,627c6f88297d3217c260433d,2022-05-11_21h24.03.447,classification_task,2021.2.3,Win32,60.0132029,627c6715c52fd12f31907bd0,,,,,,,,,,,,,,,,,,,,,space,20.0325,a,1,4.4199,"[""0.550"",""0.380"",""0.909"",""0.954""]","[0,1,1,1]",0,0,0,0,1,0,0,,,0,FALSE,,,,,,,,,,,,,,,,,,,,,,,,,,,,,,,
,6107a61bb8c7ec465a529c11,627c6f88297d3217c260433d,2022-05-11_21h24.03.447,classification_task,2021.2.3,Win32,60.0132029,627c6715c52fd12f31907bd0,,,,,,,,,,,,,,,,,,,,,,,l,1,2.5509,"[""0.075"",""0.427"",""0.758"",""0.833""]","[1,1,0,1]",0,1,1,1,1,1,0,,,0,FALSE,,,,,,,,,,,,,,,,,,,,,,,,,,,,,,,
,6107a61bb8c7ec465a529c11,627c6f88297d3217c260433d,2022-05-11_21h24.03.447,classification_task,2021.2.3,Win32,60.0132029,627c6715c52fd12f31907bd0,,,,,,,,,,,,,,,,,,,,,,,l,1,2.3934,"[""0.111"",""0.340"",""0.638"",""0.519""]","[1,1,1,0]",0,2,2,2,1,1,1,,,0,FALSE,,,,,,,,,,,,,,,,,,,,,,,,,,,,,,,
,6107a61bb8c7ec465a529c11,627c6f88297d3217c260433d,2022-05-11_21h24.03.447,classification_task,2021.2.3,Win32,60.0132029,627c6715c52fd12f31907bd0,,,,,,,,,,,,,,,,,,,,,,,l,1,5.2813,"[""0.546"",""0.427"",""0.584"",""0.833""]","[0,1,1,1]",0,3,3,3,1,1,0,,,0,FALSE,,,,,,,,,,,,,,,,,,,,,,,,,,,,,,,
,6107a61bb8c7ec465a529c11,627c6f88297d3217c260433d,2022-05-11_21h24.03.447,classification_task,2021.2.3,Win32,60.0132029,627c6715c52fd12f31907bd0,,,,,,,,,,,,,,,,,,,,,,,a,1,4.8465,"[""0.280"",""0.478"",""0.702"",""0.539""]","[1,1,1,0]",0,4,4,4,1,0,1,,,0,FALSE,,,,,,,,,,,,,,,,,,,,,,,,,,,,,,,
,6107a61bb8c7ec465a529c11,627c6f88297d3217c260433d,2022-05-11_21h24.03.447,classification_task,2021.2.3,Win32,60.0132029,627c6715c52fd12f31907bd0,,,,,,,,,,,,,,,,,,,,,,,l,0,3.5815,"[""0.280"",""0.223"",""0.702"",""0.867""]","[1,0,1,1]",0,5,5,5,1,0,1,,,0,FALSE,,,,,,,,,,,,,,,,,,,,,,,,,,,,,,,
,6107a61bb8c7ec465a529c11,627c6f88297d3217c260433d,2022-05-11_21h24.03.447,classification_task,2021.2.3,Win32,60.0132029,627c6715c52fd12f31907bd0,,,,,,,,,,,,,,,,,,,,,,,l,1,3.9123,"[""0.075"",""0.758"",""0.584"",""0.833""]","[1,0,1,1]",0,6,6,6,1,1,0,,,0,FALSE,,,,,,,,,,,,,,,,,,,,,,,,,,,,,,,
,6107a61bb8c7ec465a529c11,627c6f88297d3217c260433d,2022-05-11_21h24.03.447,classification_task,2021.2.3,Win32,60.0132029,627c6715c52fd12f31907bd0,,,,,,,,,,,,,,,,,,,,,,,l,0,4.0152,"[""0.187"",""0.380"",""0.909"",""0.232""]","[1,1,1,0]",0,7,7,7,1,0,0,,,0,FALSE,,,,,,,,,,,,,,,,,,,,,,,,,,,,,,,
,6107a61bb8c7ec465a529c11,627c6f88297d3217c260433d,2022-05-11_21h24.03.447,classification_task,2021.2.3,Win32,60.0132029,627c6715c52fd12f31907bd0,,,,,,,,,,,,,,,,,,,,,,,a,1,3.7046,"[""0.232"",""0.478"",""0.702"",""0.867""]","[0,1,1,1]",0,8,8,8,1,0,1,,,0,FALSE,,,,,,,,,,,,,,,,,,,,,,,,,,,,,,,
,6107a61bb8c7ec465a529c11,627c6f88297d3217c260433d,2022-05-11_21h24.03.447,classification_task,2021.2.3,Win32,60.0132029,627c6715c52fd12f31907bd0,,,,,,,,,,,,,,,,,,,,,,,l,1,4.7404,"[""0.758"",""0.340"",""0.638"",""0.792""]","[0,1,1,1]",0,9,9,9,1,1,1,,,0,FALSE,,,,,,,,,,,,,,,,,,,,,,,,,,,,,,,
,6107a61bb8c7ec465a529c11,627c6f88297d3217c260433d,2022-05-11_21h24.03.447,classification_task,2021.2.3,Win32,60.0132029,627c6715c52fd12f31907bd0,,,,,,,,,,,,,,,,,,,,,,,l,1,4.55,"[""0.075"",""0.427"",""0.584"",""0.758""]","[1,1,1,0]",0,10,10,10,1,1,0,,,0,FALSE,,,,,,,,,,,,,,,,,,,,,,,,,,,,,,,
,6107a61bb8c7ec465a529c11,627c6f88297d3217c260433d,2022-05-11_21h24.03.447,classification_task,2021.2.3,Win32,60.0132029,627c6715c52fd12f31907bd0,,,,,,,,,,,,,,,,,,,,,,,a,1,4.4663,"[""0.187"",""0.380"",""0.223"",""0.954""]","[1,1,0,1]",0,11,11,11,1,0,0,,,0,FALSE,,,,,,,,,,,,,,,,,,,,,,,,,,,,,,,
,6107a61bb8c7ec465a529c11,627c6f88297d3217c260433d,2022-05-11_21h24.03.447,classification_task,2021.2.3,Win32,60.0132029,627c6715c52fd12f31907bd0,,,,,,,,,,,,,,,,,,,,,,,l,1,4.8454,"[""0.111"",""0.340"",""0.758"",""0.792""]","[1,1,0,1]",0,12,12,12,1,1,1,,,0,FALSE,,,,,,,,,,,,,,,,,,,,,,,,,,,,,,,
,6107a61bb8c7ec465a529c11,627c6f88297d3217c260433d,2022-05-11_21h24.03.447,classification_task,2021.2.3,Win32,60.0132029,627c6715c52fd12f31907bd0,,,,,,,,,,,,,,,,,,,,,,,a,1,3.6762,"[""0.187"",""0.223"",""0.909"",""0.954""]","[1,0,1,1]",0,13,13,13,1,0,0,,,0,FALSE,,,,,,,,,,,,,,,,,,,,,,,,,,,,,,,
,6107a61bb8c7ec465a529c11,627c6f88297d3217c260433d,2022-05-11_21h24.03.447,classification_task,2021.2.3,Win32,60.0132029,627c6715c52fd12f31907bd0,,,,,,,,,,,,,,,,,,,,,,,l,1,2.7368,"[""0.111"",""0.520"",""0.638"",""0.792""]","[1,0,1,1]",0,14,14,14,1,1,1,,,0,FALSE,,,,,,,,,,,,,,,,,,,,,,,,,,,,,,,
,6107a61bb8c7ec465a529c11,627c6f88297d3217c260433d,2022-05-11_21h24.03.447,classification_task,2021.2.3,Win32,60.0132029,627c6715c52fd12f31907bd0,,,,,,,,,,,,,,,,,,,,,,,a,1,4.4328,"[""0.280"",""0.478"",""0.546"",""0.867""]","[1,1,0,1]",0,15,15,15,1,0,1,,,0,FALSE,,,,,,,,,,,,,,,,,,,,,,,,,,,,,,,
,6107a61bb8c7ec465a529c11,627c6f88297d3217c260433d,2022-05-11_21h24.03.447,classification_task,2021.2.3,Win32,60.0132029,627c6715c52fd12f31907bd0,,,,,,,,,,,,,,,,,,,,,,,a,1,2.7476,"[""0.187"",""0.380"",""0.246"",""0.954""]","[1,1,0,1]",0,16,16,16,1,0,0,,,0,FALSE,,,,,,,,,,,,,,,,,,,,,,,,,,,,,,,
,6107a61bb8c7ec465a529c11,627c6f88297d3217c260433d,2022-05-11_21h24.03.447,classification_task,2021.2.3,Win32,60.0132029,627c6715c52fd12f31907bd0,,,,,,,,,,,,,,,,,,,,,,,l,1,2.8252,"[""0.075"",""0.427"",""0.514"",""0.833""]","[1,1,0,1]",0,17,17,17,1,1,0,,,0,FALSE,,,,,,,,,,,,,,,,,,,,,,,,,,,,,,,
,6107a61bb8c7ec465a529c11,627c6f88297d3217c260433d,2022-05-11_21h24.03.447,classification_task,2021.2.3,Win32,60.0132029,627c6715c52fd12f31907bd0,,,,,,,,,,,,,,,,,,,,,,,a,1,4.7091,"[""0.539"",""0.478"",""0.702"",""0.867""]","[0,1,1,1]",0,18,18,18,1,0,1,,,0,FALSE,,,,,,,,,,,,,,,,,,,,,,,,,,,,,,,
,6107a61bb8c7ec465a529c11,627c6f88297d3217c260433d,2022-05-11_21h24.03.447,classification_task,2021.2.3,Win32,60.0132029,627c6715c52fd12f31907bd0,,,,,,,,,,,,,,,,,,,,,,,l,1,3.6348,"[""0.111"",""0.340"",""0.638"",""0.738""]","[1,1,1,0]",0,19,19,19,1,1,1,,,0,FALSE,,,,,,,,,,,,,,,,,,,,,,,,,,,,,,,
,6107a61bb8c7ec465a529c11,627c6f88297d3217c260433d,2022-05-11_21h24.03.447,classification_task,2021.2.3,Win32,60.0132029,627c6715c52fd12f31907bd0,,,,,,,,,,,,,,,,,,,,,,,a,1,4.9227,"[""0.280"",""0.478"",""0.758"",""0.867""]","[1,1,0,1]",0,20,20,20,1,0,1,,,0,FALSE,,,,,,,,,,,,,,,,,,,,,,,,,,,,,,,
,6107a61bb8c7ec465a529c11,627c6f88297d3217c260433d,2022-05-11_21h24.03.447,classification_task,2021.2.3,Win32,60.0132029,627c6715c52fd12f31907bd0,,,,,,,,,,,,,,,,,,,,,,,l,1,4.1663,"[""0.075"",""0.427"",""0.584"",""0.221""]","[1,1,1,0]",0,21,21,21,1,1,0,,,0,FALSE,,,,,,,,,,,,,,,,,,,,,,,,,,,,,,,
,6107a61bb8c7ec465a529c11,627c6f88297d3217c260433d,2022-05-11_21h24.03.447,classification_task,2021.2.3,Win32,60.0132029,627c6715c52fd12f31907bd0,,,,,,,,,,,,,,,,,,,,,,,a,1,1.7908,"[""0.519"",""0.380"",""0.909"",""0.954""]","[0,1,1,1]",0,22,22,22,1,0,0,,,0,FALSE,,,,,,,,,,,,,,,,,,,,,,,,,,,,,,,
,6107a61bb8c7ec465a529c11,627c6f88297d3217c260433d,2022-05-11_21h24.03.447,classification_task,2021.2.3,Win32,60.0132029,627c6715c52fd12f31907bd0,,,,,,,,,,,,,,,,,,,,,,,a,1,3.1736,"[""0.187"",""0.758"",""0.909"",""0.954""]","[1,0,1,1]",0,23,23,23,1,0,0,,,0,FALSE,,,,,,,,,,,,,,,,,,,,,,,,,,,,,,,
,6107a61bb8c7ec465a529c11,627c6f88297d3217c260433d,2022-05-11_21h24.03.447,classification_task,2021.2.3,Win32,60.0132029,627c6715c52fd12f31907bd0,,,,,,,,,,,,,,,,,,,,,,,a,1,2.5884,"[""0.280"",""0.550"",""0.702"",""0.867""]","[1,0,1,1]",0,24,24,24,1,0,1,,,0,FALSE,,,,,,,,,,,,,,,,,,,,,,,,,,,,,,,
,6107a61bb8c7ec465a529c11,627c6f88297d3217c260433d,2022-05-11_21h24.03.447,classification_task,2021.2.3,Win32,60.0132029,627c6715c52fd12f31907bd0,,,,,,,,,,,,,,,,,,,,,,,l,1,2.6131,"[""0.075"",""0.738"",""0.584"",""0.833""]","[1,0,1,1]",0,25,25,25,1,1,0,,,0,FALSE,,,,,,,,,,,,,,,,,,,,,,,,,,,,,,,
,6107a61bb8c7ec465a529c11,627c6f88297d3217c260433d,2022-05-11_21h24.03.447,classification_task,2021.2.3,Win32,60.0132029,627c6715c52fd12f31907bd0,,,,,,,,,,,,,,,,,,,,,,,l,1,3.0903,"[""0.232"",""0.340"",""0.638"",""0.792""]","[0,1,1,1]",0,26,26,26,1,1,1,,,0,FALSE,,,,,,,,,,,,,,,,,,,,,,,,,,,,,,,
,6107a61bb8c7ec465a529c11,627c6f88297d3217c260433d,2022-05-11_21h24.03.447,classification_task,2021.2.3,Win32,60.0132029,627c6715c52fd12f31907bd0,,,,,,,,,,,,,,,,,,,,,,,a,1,3.544,"[""0.187"",""0.380"",""0.909"",""0.246""]","[1,1,1,0]",0,27,27,27,1,0,0,,,0,FALSE,,,,,,,,,,,,,,,,,,,,,,,,,,,,,,,
,6107a61bb8c7ec465a529c11,627c6f88297d3217c260433d,2022-05-11_21h24.03.447,classification_task,2021.2.3,Win32,60.0132029,627c6715c52fd12f31907bd0,,,,,,,,,,,,,,,,,,,,,,,l,1,3.5645,"[""0.111"",""0.340"",""0.028"",""0.792""]","[1,1,0,1]",0,28,28,28,1,1,1,,,0,FALSE,,,,,,,,,,,,,,,,,,,,,,,,,,,,,,,
,6107a61bb8c7ec465a529c11,627c6f88297d3217c260433d,2022-05-11_21h24.03.447,classification_task,2021.2.3,Win32,60.0132029,627c6715c52fd12f31907bd0,,,,,,,,,,,,,,,,,,,,,,,l,1,2.0763,"[""0.111"",""0.221"",""0.638"",""0.792""]","[1,0,1,1]",0,29,29,29,1,1,1,,,0,FALSE,,,,,,,,,,,,,,,,,,,,,,,,,,,,,,,
,6107a61bb8c7ec465a529c11,627c6f88297d3217c260433d,2022-05-11_21h24.03.447,classification_task,2021.2.3,Win32,60.0132029,627c6715c52fd12f31907bd0,,,,,,,,,,,,,,,,,,,,,,,l,1,2.095,"[""0.514"",""0.427"",""0.584"",""0.833""]","[0,1,1,1]",0,30,30,30,1,1,0,,,0,FALSE,,,,,,,,,,,,,,,,,,,,,,,,,,,,,,,
,6107a61bb8c7ec465a529c11,627c6f88297d3217c260433d,2022-05-11_21h24.03.447,classification_task,2021.2.3,Win32,60.0132029,627c6715c52fd12f31907bd0,,,,,,,,,,,,,,,,,,,,,,,a,1,2.8931,"[""0.280"",""0.478"",""0.702"",""0.232""]","[1,1,1,0]",0,31,31,31,1,0,1,,,0,FALSE,,,,,,,,,,,,,,,,,,,,,,,,,,,,,,,
,6107a61bb8c7ec465a529c11,627c6f88297d3217c260433d,2022-05-11_21h24.03.447,classification_task,2021.2.3,Win32,60.0132029,627c6715c52fd12f31907bd0,,,,,,,,,,,,,,,,,,,,,,,l,0,3.8804,"[""0.187"",""0.380"",""0.909"",""0.758""]","[1,1,1,0]",0,32,32,32,1,0,0,,,0,FALSE,,,,,,,,,,,,,,,,,,,,,,,,,,,,,,,
,6107a61bb8c7ec465a529c11,627c6f88297d3217c260433d,2022-05-11_21h24.03.447,classification_task,2021.2.3,Win32,60.0132029,627c6715c52fd12f31907bd0,,,,,,,,,,,,,,,,,,,,,,,a,1,3.2277,"[""0.546"",""0.380"",""0.909"",""0.954""]","[0,1,1,1]",0,33,33,33,1,0,0,,,0,FALSE,,,,,,,,,,,,,,,,,,,,,,,,,,,,,,,
,6107a61bb8c7ec465a529c11,627c6f88297d3217c260433d,2022-05-11_21h24.03.447,classification_task,2021.2.3,Win32,60.0132029,627c6715c52fd12f31907bd0,,,,,,,,,,,,,,,,,,,,,,,a,0,3.1768,"[""0.075"",""0.427"",""0.584"",""0.738""]","[1,1,1,0]",0,34,34,34,1,1,0,,,0,FALSE,,,,,,,,,,,,,,,,,,,,,,,,,,,,,,,
,6107a61bb8c7ec465a529c11,627c6f88297d3217c260433d,2022-05-11_21h24.03.447,classification_task,2021.2.3,Win32,60.0132029,627c6715c52fd12f31907bd0,,,,,,,,,,,,,,,,,,,,,,,l,0,3.0668,"[""0.280"",""0.478"",""0.702"",""0.514""]","[1,1,1,0]",0,35,35,35,1,0,1,,,0,FALSE,,,,,,,,,,,,,,,,,,,,,,,,,,,,,,,
,6107a61bb8c7ec465a529c11,627c6f88297d3217c260433d,2022-05-11_21h24.03.447,classification_task,2021.2.3,Win32,60.0132029,627c6715c52fd12f31907bd0,,,,,,,,,,,,,,,,,,,,,,,a,0,2.6015,"[""0.075"",""0.427"",""0.758"",""0.833""]","[1,1,0,1]",0,36,36,36,1,1,0,,,0,FALSE,,,,,,,,,,,,,,,,,,,,,,,,,,,,,,,
,6107a61bb8c7ec465a529c11,627c6f88297d3217c260433d,2022-05-11_21h24.03.447,classification_task,2021.2.3,Win32,60.0132029,627c6715c52fd12f31907bd0,,,,,,,,,,,,,,,,,,,,,,,a,0,3.2148,"[""0.111"",""0.340"",""0.638"",""0.546""]","[1,1,1,0]",0,37,37,37,1,1,1,,,0,FALSE,,,,,,,,,,,,,,,,,,,,,,,,,,,,,,,
,6107a61bb8c7ec465a529c11,627c6f88297d3217c260433d,2022-05-11_21h24.03.447,classification_task,2021.2.3,Win32,60.0132029,627c6715c52fd12f31907bd0,,,,,,,,,,,,,,,,,,,,,,,l,1,2.7992,"[""0.111"",""0.028"",""0.638"",""0.792""]","[1,0,1,1]",0,38,38,38,1,1,1,,,0,FALSE,,,,,,,,,,,,,,,,,,,,,,,,,,,,,,,
,6107a61bb8c7ec465a529c11,627c6f88297d3217c260433d,2022-05-11_21h24.03.447,classification_task,2021.2.3,Win32,60.0132029,627c6715c52fd12f31907bd0,,,,,,,,,,,,,,,,,,,,,,,l,1,1.9977,"[""0.075"",""0.223"",""0.584"",""0.833""]","[1,0,1,1]",0,39,39,39,1,1,0,,,0,FALSE,,,,,,,,,,,,,,,,,,,,,,,,,,,,,,,
,6107a61bb8c7ec465a529c11,627c6f88297d3217c260433d,2022-05-11_21h24.03.447,classification_task,2021.2.3,Win32,60.0132029,627c6715c52fd12f31907bd0,,,,,,,,,,,,,,,,,,,,,,,a,1,1.7005,"[""0.187"",""0.514"",""0.909"",""0.954""]","[1,0,1,1]",0,40,40,40,1,0,0,,,0,FALSE,,,,,,,,,,,,,,,,,,,,,,,,,,,,,,,
,6107a61bb8c7ec465a529c11,627c6f88297d3217c260433d,2022-05-11_21h24.03.447,classification_task,2021.2.3,Win32,60.0132029,627c6715c52fd12f31907bd0,,,,,,,,,,,,,,,,,,,,,,,l,1,2.6348,"[""0.221"",""0.427"",""0.584"",""0.833""]","[0,1,1,1]",0,41,41,41,1,1,0,,,0,FALSE,,,,,,,,,,,,,,,,,,,,,,,,,,,,,,,
,6107a61bb8c7ec465a529c11,627c6f88297d3217c260433d,2022-05-11_21h24.03.447,classification_task,2021.2.3,Win32,60.0132029,627c6715c52fd12f31907bd0,,,,,,,,,,,,,,,,,,,,,,,a,1,2.162,"[""0.280"",""0.519"",""0.702"",""0.867""]","[1,0,1,1]",0,42,42,42,1,0,1,,,0,FALSE,,,,,,,,,,,,,,,,,,,,,,,,,,,,,,,
,6107a61bb8c7ec465a529c11,627c6f88297d3217c260433d,2022-05-11_21h24.03.447,classification_task,2021.2.3,Win32,60.0132029,627c6715c52fd12f31907bd0,,,,,,,,,,,,,,,,,,,,,,,a,1,2.5586,"[""0.246"",""0.478"",""0.702"",""0.867""]","[0,1,1,1]",0,43,43,43,1,0,1,,,0,FALSE,,,,,,,,,,,,,,,,,,,,,,,,,,,,,,,
,6107a61bb8c7ec465a529c11,627c6f88297d3217c260433d,2022-05-11_21h24.03.447,classification_task,2021.2.3,Win32,60.0132029,627c6715c52fd12f31907bd0,,,,,,,,,,,,,,,,,,,,,,,a,0,2.6083,"[""0.111"",""0.340"",""0.546"",""0.792""]","[1,1,0,1]",0,44,44,44,1,1,1,,,0,FALSE,,,,,,,,,,,,,,,,,,,,,,,,,,,,,,,
,6107a61bb8c7ec465a529c11,627c6f88297d3217c260433d,2022-05-11_21h24.03.447,classification_task,2021.2.3,Win32,60.0132029,627c6715c52fd12f31907bd0,,,,,,,,,,,,,,,,,,,,,,,a,1,2.3735,"[""0.187"",""0.380"",""0.758"",""0.954""]","[1,1,0,1]",0,45,45,45,1,0,0,,,0,FALSE,,,,,,,,,,,,,,,,,,,,,,,,,,,,,,,
,6107a61bb8c7ec465a529c11,627c6f88297d3217c260433d,2022-05-11_21h24.03.447,classification_task,2021.2.3,Win32,60.0132029,627c6715c52fd12f31907bd0,,,,,,,,,,,,,,,,,,,,,,,l,1,1.974,"[""0.550"",""0.340"",""0.638"",""0.792""]","[0,1,1,1]",0,46,46,46,1,1,1,,,0,FALSE,,,,,,,,,,,,,,,,,,,,,,,,,,,,,,,
,6107a61bb8c7ec465a529c11,627c6f88297d3217c260433d,2022-05-11_21h24.03.447,classification_task,2021.2.3,Win32,60.0132029,627c6715c52fd12f31907bd0,,,,,,,,,,,,,,,,,,,,,,,l,0,3.1569,"[""0.280"",""0.478"",""0.223"",""0.867""]","[1,1,0,1]",0,47,47,47,1,0,1,,,0,FALSE,,,,,,,,,,,,,,,,,,,,,,,,,,,,,,,
,6107a61bb8c7ec465a529c11,627c6f88297d3217c260433d,2022-05-11_21h24.03.447,classification_task,2021.2.3,Win32,60.0132029,627c6715c52fd12f31907bd0,,,,,,,,,,,,,,,,,,,,,,,l,1,1.6063,"[""0.748"",""0.427"",""0.584"",""0.833""]","[0,1,1,1]",0,48,48,48,1,1,0,,,0,FALSE,,,,,,,,,,,,,,,,,,,,,,,,,,,,,,,
,6107a61bb8c7ec465a529c11,627c6f88297d3217c260433d,2022-05-11_21h24.03.447,classification_task,2021.2.3,Win32,60.0132029,627c6715c52fd12f31907bd0,,,,,,,,,,,,,,,,,,,,,,,a,0,3.1152,"[""0.111"",""0.340"",""0.638"",""0.539""]","[1,1,1,0]",0,49,49,49,1,1,1,,,0,FALSE,,,,,,,,,,,,,,,,,,,,,,,,,,,,,,,
,6107a61bb8c7ec465a529c11,627c6f88297d3217c260433d,2022-05-11_21h24.03.447,classification_task,2021.2.3,Win32,60.0132029,627c6715c52fd12f31907bd0,,,,,,,,,,,,,,,,,,,,,,,a,0,1.5446,"[""0.111"",""0.340"",""0.539"",""0.792""]","[1,1,0,1]",0,50,50,50,1,1,1,,,0,FALSE,,,,,,,,,,,,,,,,,,,,,,,,,,,,,,,
,6107a61bb8c7ec465a529c11,627c6f88297d3217c260433d,2022-05-11_21h24.03.447,classification_task,2021.2.3,Win32,60.0132029,627c6715c52fd12f31907bd0,,,,,,,,,,,,,,,,,,,,,,,a,1,0.8991,"[""0.187"",""0.738"",""0.909"",""0.954""]","[1,0,1,1]",0,51,51,51,1,0,0,,,0,FALSE,,,,,,,,,,,,,,,,,,,,,,,,,,,,,,,
,6107a61bb8c7ec465a529c11,627c6f88297d3217c260433d,2022-05-11_21h24.03.447,classification_task,2021.2.3,Win32,60.0132029,627c6715c52fd12f31907bd0,,,,,,,,,,,,,,,,,,,,,,,l,1,1.8158,"[""0.111"",""0.223"",""0.638"",""0.792""]","[1,0,1,1]",0,52,52,52,1,1,1,,,0,FALSE,,,,,,,,,,,,,,,,,,,,,,,,,,,,,,,
,6107a61bb8c7ec465a529c11,627c6f88297d3217c260433d,2022-05-11_21h24.03.447,classification_task,2021.2.3,Win32,60.0132029,627c6715c52fd12f31907bd0,,,,,,,,,,,,,,,,,,,,,,,a,1,1.617,"[""0.187"",""0.380"",""0.546"",""0.954""]","[1,1,0,1]",0,53,53,53,1,0,0,,,0,FALSE,,,,,,,,,,,,,,,,,,,,,,,,,,,,,,,
,6107a61bb8c7ec465a529c11,627c6f88297d3217c260433d,2022-05-11_21h24.03.447,classification_task,2021.2.3,Win32,60.0132029,627c6715c52fd12f31907bd0,,,,,,,,,,,,,,,,,,,,,,,l,1,1.8803,"[""0.075"",""0.427"",""0.584"",""0.232""]","[1,1,1,0]",0,54,54,54,1,1,0,,,0,FALSE,,,,,,,,,,,,,,,,,,,,,,,,,,,,,,,
,6107a61bb8c7ec465a529c11,627c6f88297d3217c260433d,2022-05-11_21h24.03.447,classification_task,2021.2.3,Win32,60.0132029,627c6715c52fd12f31907bd0,,,,,,,,,,,,,,,,,,,,,,,a,1,2.4487,"[""0.223"",""0.478"",""0.702"",""0.867""]","[0,1,1,1]",0,55,55,55,1,0,1,,,0,FALSE,,,,,,,,,,,,,,,,,,,,,,,,,,,,,,,
,6107a61bb8c7ec465a529c11,627c6f88297d3217c260433d,2022-05-11_21h24.03.447,classification_task,2021.2.3,Win32,60.0132029,627c6715c52fd12f31907bd0,,,,,,,,,,,,,,,,,,,,,,,a,1,2.2608,"[""0.280"",""0.478"",""0.514"",""0.867""]","[1,1,0,1]",0,56,56,56,1,0,1,,,0,FALSE,,,,,,,,,,,,,,,,,,,,,,,,,,,,,,,
,6107a61bb8c7ec465a529c11,627c6f88297d3217c260433d,2022-05-11_21h24.03.447,classification_task,2021.2.3,Win32,60.0132029,627c6715c52fd12f31907bd0,,,,,,,,,,,,,,,,,,,,,,,l,0,2.0714,"[""0.187"",""0.380"",""0.909"",""0.738""]","[1,1,1,0]",0,57,57,57,1,0,0,,,0,FALSE,,,,,,,,,,,,,,,,,,,,,,,,,,,,,,,
,6107a61bb8c7ec465a529c11,627c6f88297d3217c260433d,2022-05-11_21h24.03.447,classification_task,2021.2.3,Win32,60.0132029,627c6715c52fd12f31907bd0,,,,,,,,,,,,,,,,,,,,,,,a,0,2.9368,"[""0.246"",""0.340"",""0.638"",""0.792""]","[0,1,1,1]",0,58,58,58,1,1,1,,,0,FALSE,,,,,,,,,,,,,,,,,,,,,,,,,,,,,,,
,6107a61bb8c7ec465a529c11,627c6f88297d3217c260433d,2022-05-11_21h24.03.447,classification_task,2021.2.3,Win32,60.0132029,627c6715c52fd12f31907bd0,,,,,,,,,,,,,,,,,,,,,,,a,1,2.4568,"[""0.280"",""0.478"",""0.702"",""0.738""]","[1,1,1,0]",0,59,59,59,1,0,1,,,0,FALSE,,,,,,,,,,,,,,,,,,,,,,,,,,,,,,,
,6107a61bb8c7ec465a529c11,627c6f88297d3217c260433d,2022-05-11_21h24.03.447,classification_task,2021.2.3,Win32,60.0132029,627c6715c52fd12f31907bd0,,,,,,,,,,,,,,,,,,,,,,,a,1,1.0449,"[""0.546"",""0.380"",""0.909"",""0.954""]","[0,1,1,1]",0,60,60,60,1,0,0,,,0,FALSE,,,,,,,,,,,,,,,,,,,,,,,,,,,,,,,
,6107a61bb8c7ec465a529c11,627c6f88297d3217c260433d,2022-05-11_21h24.03.447,classification_task,2021.2.3,Win32,60.0132029,627c6715c52fd12f31907bd0,,,,,,,,,,,,,,,,,,,,,,,l,1,1.5338,"[""0.075"",""0.748"",""0.584"",""0.833""]","[1,0,1,1]",0,61,61,61,1,1,0,,,0,FALSE,,,,,,,,,,,,,,,,,,,,,,,,,,,,,,,
,6107a61bb8c7ec465a529c11,627c6f88297d3217c260433d,2022-05-11_21h24.03.447,classification_task,2021.2.3,Win32,60.0132029,627c6715c52fd12f31907bd0,,,,,,,,,,,,,,,,,,,,,,,a,1,1.9374,"[""0.280"",""0.221"",""0.702"",""0.867""]","[1,0,1,1]",0,62,62,62,1,0,1,,,0,FALSE,,,,,,,,,,,,,,,,,,,,,,,,,,,,,,,
,6107a61bb8c7ec465a529c11,627c6f88297d3217c260433d,2022-05-11_21h24.03.447,classification_task,2021.2.3,Win32,60.0132029,627c6715c52fd12f31907bd0,,,,,,,,,,,,,,,,,,,,,,,l,1,2.1435,"[""0.075"",""0.427"",""0.246"",""0.833""]","[1,1,0,1]",0,63,63,63,1,1,0,,,0,FALSE,,,,,,,,,,,,,,,,,,,,,,,,,,,,,,,
,6107a61bb8c7ec465a529c11,627c6f88297d3217c260433d,2022-05-11_21h24.03.447,classification_task,2021.2.3,Win32,60.0132029,627c6715c52fd12f31907bd0,,,,,,,,,,,,,,,,,,,,,,,,,,,,,,,,,,,,,,,0, ,,0,9.96031746,407.3666,0,0,0,0,1,2,1,,,,,,,,,,,,,,,,,,
,6107a61bb8c7ec465a529c11,627c6f88297d3217c260433d,2022-05-11_21h24.03.447,classification_task,2021.2.3,Win32,60.0132029,627c6715c52fd12f31907bd0,,,,,,,,,,,,,,,,,,,,,,,,,,,,,,,,,,,,,,,1,  ,,0,7.514605379,413.3002,0,0,0,0,1,2,1,,,,,,,,,,,,,,,,,,
,6107a61bb8c7ec465a529c11,627c6f88297d3217c260433d,2022-05-11_21h24.03.447,classification_task,2021.2.3,Win32,60.0132029,627c6715c52fd12f31907bd0,,,,,,,,,,,,,,,,,,,,,,,,,,,,,,,,,,,,,,,2,  ,,0,3.484347443,424.1123,0,0,0,0,1,2,1,,,,,,,,,,,,,,,,,,
,6107a61bb8c7ec465a529c11,627c6f88297d3217c260433d,2022-05-11_21h24.03.447,classification_task,2021.2.3,Win32,60.0132029,627c6715c52fd12f31907bd0,,,,,,,,,,,,,,,,,,,,,,,,,,,,,,,,,,,,,,,,,,,,,0,0,0,0,1,,1,,,,,,,,,,,,,,,,,,
,6107a61bb8c7ec465a529c11,627c6f88297d3217c260433d,2022-05-11_21h24.03.447,classification_task,2021.2.3,Win32,60.0132029,627c6715c52fd12f31907bd0,,,,,,,,,,,,,,,,,,,,,space,19.0386,a,1,4.427,"[""0.738"",""0.478"",""0.702"",""0.867""]","[0,1,1,1]",0,0,0,0,1,0,1,,,0,FALSE,,,,,,,,,,,,,,,,,,,,,,,,,,,,,,,
,6107a61bb8c7ec465a529c11,627c6f88297d3217c260433d,2022-05-11_21h24.03.447,classification_task,2021.2.3,Win32,60.0132029,627c6715c52fd12f31907bd0,,,,,,,,,,,,,,,,,,,,,,,a,1,1.6377,"[""0.546"",""0.380"",""0.909"",""0.954""]","[0,1,1,1]",0,1,1,1,1,0,0,,,0,FALSE,,,,,,,,,,,,,,,,,,,,,,,,,,,,,,,
,6107a61bb8c7ec465a529c11,627c6f88297d3217c260433d,2022-05-11_21h24.03.447,classification_task,2021.2.3,Win32,60.0132029,627c6715c52fd12f31907bd0,,,,,,,,,,,,,,,,,,,,,,,l,1,1.8661,"[""0.111"",""0.748"",""0.638"",""0.792""]","[1,0,1,1]",0,2,2,2,1,1,1,,,0,FALSE,,,,,,,,,,,,,,,,,,,,,,,,,,,,,,,
,6107a61bb8c7ec465a529c11,627c6f88297d3217c260433d,2022-05-11_21h24.03.447,classification_task,2021.2.3,Win32,60.0132029,627c6715c52fd12f31907bd0,,,,,,,,,,,,,,,,,,,,,,,a,1,0.9228,"[""0.187"",""0.380"",""0.246"",""0.954""]","[1,1,0,1]",0,3,3,3,1,0,0,,,0,FALSE,,,,,,,,,,,,,,,,,,,,,,,,,,,,,,,
,6107a61bb8c7ec465a529c11,627c6f88297d3217c260433d,2022-05-11_21h24.03.447,classification_task,2021.2.3,Win32,60.0132029,627c6715c52fd12f31907bd0,,,,,,,,,,,,,,,,,,,,,,,a,0,2.5321,"[""0.546"",""0.340"",""0.638"",""0.792""]","[0,1,1,1]",0,4,4,4,1,1,1,,,0,FALSE,,,,,,,,,,,,,,,,,,,,,,,,,,,,,,,
,6107a61bb8c7ec465a529c11,627c6f88297d3217c260433d,2022-05-11_21h24.03.447,classification_task,2021.2.3,Win32,60.0132029,627c6715c52fd12f31907bd0,,,,,,,,,,,,,,,,,,,,,,,l,1,0.8796,"[""0.075"",""0.221"",""0.584"",""0.833""]","[1,0,1,1]",0,5,5,5,1,1,0,,,0,FALSE,,,,,,,,,,,,,,,,,,,,,,,,,,,,,,,
,6107a61bb8c7ec465a529c11,627c6f88297d3217c260433d,2022-05-11_21h24.03.447,classification_task,2021.2.3,Win32,60.0132029,627c6715c52fd12f31907bd0,,,,,,,,,,,,,,,,,,,,,,,a,0,2.4212,"[""0.111"",""0.340"",""0.638"",""0.221""]","[1,1,1,0]",0,6,6,6,1,1,1,,,0,FALSE,,,,,,,,,,,,,,,,,,,,,,,,,,,,,,,
,6107a61bb8c7ec465a529c11,627c6f88297d3217c260433d,2022-05-11_21h24.03.447,classification_task,2021.2.3,Win32,60.0132029,627c6715c52fd12f31907bd0,,,,,,,,,,,,,,,,,,,,,,,a,1,1.2477,"[""0.280"",""0.758"",""0.702"",""0.867""]","[1,0,1,1]",0,7,7,7,1,0,1,,,0,FALSE,,,,,,,,,,,,,,,,,,,,,,,,,,,,,,,
,6107a61bb8c7ec465a529c11,627c6f88297d3217c260433d,2022-05-11_21h24.03.447,classification_task,2021.2.3,Win32,60.0132029,627c6715c52fd12f31907bd0,,,,,,,,,,,,,,,,,,,,,,,a,1,1.5608,"[""0.187"",""0.380"",""0.909"",""0.758""]","[1,1,1,0]",0,8,8,8,1,0,0,,,0,FALSE,,,,,,,,,,,,,,,,,,,,,,,,,,,,,,,
,6107a61bb8c7ec465a529c11,627c6f88297d3217c260433d,2022-05-11_21h24.03.447,classification_task,2021.2.3,Win32,60.0132029,627c6715c52fd12f31907bd0,,,,,,,,,,,,,,,,,,,,,,,l,1,0.8072,"[""0.075"",""0.427"",""0.584"",""0.223""]","[1,1,1,0]",0,9,9,9,1,1,0,,,0,FALSE,,,,,,,,,,,,,,,,,,,,,,,,,,,,,,,
,6107a61bb8c7ec465a529c11,627c6f88297d3217c260433d,2022-05-11_21h24.03.447,classification_task,2021.2.3,Win32,60.0132029,627c6715c52fd12f31907bd0,,,,,,,,,,,,,,,,,,,,,,,a,1,1.6385,"[""0.280"",""0.478"",""0.758"",""0.867""]","[1,1,0,1]",0,10,10,10,1,0,1,,,0,FALSE,,,,,,,,,,,,,,,,,,,,,,,,,,,,,,,
,6107a61bb8c7ec465a529c11,627c6f88297d3217c260433d,2022-05-11_21h24.03.447,classification_task,2021.2.3,Win32,60.0132029,627c6715c52fd12f31907bd0,,,,,,,,,,,,,,,,,,,,,,,l,1,1.0917,"[""0.539"",""0.427"",""0.584"",""0.833""]","[0,1,1,1]",0,11,11,11,1,1,0,,,0,FALSE,,,,,,,,,,,,,,,,,,,,,,,,,,,,,,,
,6107a61bb8c7ec465a529c11,627c6f88297d3217c260433d,2022-05-11_21h24.03.447,classification_task,2021.2.3,Win32,60.0132029,627c6715c52fd12f31907bd0,,,,,,,,,,,,,,,,,,,,,,,a,1,1.1574,"[""0.187"",""0.748"",""0.909"",""0.954""]","[1,0,1,1]",0,12,12,12,1,0,0,,,0,FALSE,,,,,,,,,,,,,,,,,,,,,,,,,,,,,,,
,6107a61bb8c7ec465a529c11,627c6f88297d3217c260433d,2022-05-11_21h24.03.447,classification_task,2021.2.3,Win32,60.0132029,627c6715c52fd12f31907bd0,,,,,,,,,,,,,,,,,,,,,,,a,1,1.5183,"[""0.280"",""0.478"",""0.702"",""0.246""]","[1,1,1,0]",0,13,13,13,1,0,1,,,0,FALSE,,,,,,,,,,,,,,,,,,,,,,,,,,,,,,,
,6107a61bb8c7ec465a529c11,627c6f88297d3217c260433d,2022-05-11_21h24.03.447,classification_task,2021.2.3,Win32,60.0132029,627c6715c52fd12f31907bd0,,,,,,,,,,,,,,,,,,,,,,,l,1,0.7983,"[""0.075"",""0.427"",""0.519"",""0.833""]","[1,1,0,1]",0,14,14,14,1,1,0,,,0,FALSE,,,,,,,,,,,,,,,,,,,,,,,,,,,,,,,
,6107a61bb8c7ec465a529c11,627c6f88297d3217c260433d,2022-05-11_21h24.03.447,classification_task,2021.2.3,Win32,60.0132029,627c6715c52fd12f31907bd0,,,,,,,,,,,,,,,,,,,,,,,a,0,2.9698,"[""0.111"",""0.340"",""0.758"",""0.792""]","[1,1,0,1]",0,15,15,15,1,1,1,,,0,FALSE,,,,,,,,,,,,,,,,,,,,,,,,,,,,,,,
,6107a61bb8c7ec465a529c11,627c6f88297d3217c260433d,2022-05-11_21h24.03.447,classification_task,2021.2.3,Win32,60.0132029,627c6715c52fd12f31907bd0,,,,,,,,,,,,,,,,,,,,,,,a,0,1.2445,"[""0.111"",""0.340"",""0.638"",""0.529""]","[1,1,1,0]",0,16,16,16,1,1,1,,,0,FALSE,,,,,,,,,,,,,,,,,,,,,,,,,,,,,,,
,6107a61bb8c7ec465a529c11,627c6f88297d3217c260433d,2022-05-11_21h24.03.447,classification_task,2021.2.3,Win32,60.0132029,627c6715c52fd12f31907bd0,,,,,,,,,,,,,,,,,,,,,,,a,1,1.2431,"[""0.187"",""0.380"",""0.758"",""0.954""]","[1,1,0,1]",0,17,17,17,1,0,0,,,0,FALSE,,,,,,,,,,,,,,,,,,,,,,,,,,,,,,,
,6107a61bb8c7ec465a529c11,627c6f88297d3217c260433d,2022-05-11_21h24.03.447,classification_task,2021.2.3,Win32,60.0132029,627c6715c52fd12f31907bd0,,,,,,,,,,,,,,,,,,,,,,,l,1,1.2623,"[""0.075"",""0.427"",""0.584"",""0.223""]","[1,1,1,0]",0,18,18,18,1,1,0,,,0,FALSE,,,,,,,,,,,,,,,,,,,,,,,,,,,,,,,
,6107a61bb8c7ec465a529c11,627c6f88297d3217c260433d,2022-05-11_21h24.03.447,classification_task,2021.2.3,Win32,60.0132029,627c6715c52fd12f31907bd0,,,,,,,,,,,,,,,,,,,,,,,a,1,1.0482,"[""0.187"",""0.380"",""0.909"",""0.758""]","[1,1,1,0]",0,19,19,19,1,0,0,,,0,FALSE,,,,,,,,,,,,,,,,,,,,,,,,,,,,,,,
,6107a61bb8c7ec465a529c11,627c6f88297d3217c260433d,2022-05-11_21h24.03.447,classification_task,2021.2.3,Win32,60.0132029,627c6715c52fd12f31907bd0,,,,,,,,,,,,,,,,,,,,,,,a,1,1.3805,"[""0.280"",""0.550"",""0.702"",""0.867""]","[1,0,1,1]",0,20,20,20,1,0,1,,,0,FALSE,,,,,,,,,,,,,,,,,,,,,,,,,,,,,,,
,6107a61bb8c7ec465a529c11,627c6f88297d3217c260433d,2022-05-11_21h24.03.447,classification_task,2021.2.3,Win32,60.0132029,627c6715c52fd12f31907bd0,,,,,,,,,,,,,,,,,,,,,,,l,1,0.9761,"[""0.075"",""0.221"",""0.584"",""0.833""]","[1,0,1,1]",0,21,21,21,1,1,0,,,0,FALSE,,,,,,,,,,,,,,,,,,,,,,,,,,,,,,,
,6107a61bb8c7ec465a529c11,627c6f88297d3217c260433d,2022-05-11_21h24.03.447,classification_task,2021.2.3,Win32,60.0132029,627c6715c52fd12f31907bd0,,,,,,,,,,,,,,,,,,,,,,,l,1,1.8499,"[""0.111"",""0.340"",""0.221"",""0.792""]","[1,1,0,1]",0,22,22,22,1,1,1,,,0,FALSE,,,,,,,,,,,,,,,,,,,,,,,,,,,,,,,
,6107a61bb8c7ec465a529c11,627c6f88297d3217c260433d,2022-05-11_21h24.03.447,classification_task,2021.2.3,Win32,60.0132029,627c6715c52fd12f31907bd0,,,,,,,,,,,,,,,,,,,,,,,l,1,1.1984,"[""0.111"",""0.529"",""0.638"",""0.792""]","[1,0,1,1]",0,23,23,23,1,1,1,,,0,FALSE,,,,,,,,,,,,,,,,,,,,,,,,,,,,,,,
,6107a61bb8c7ec465a529c11,627c6f88297d3217c260433d,2022-05-11_21h24.03.447,classification_task,2021.2.3,Win32,60.0132029,627c6715c52fd12f31907bd0,,,,,,,,,,,,,,,,,,,,,,,a,1,1.1097,"[""0.187"",""0.223"",""0.909"",""0.954""]","[1,0,1,1]",0,24,24,24,1,0,0,,,0,FALSE,,,,,,,,,,,,,,,,,,,,,,,,,,,,,,,
,6107a61bb8c7ec465a529c11,627c6f88297d3217c260433d,2022-05-11_21h24.03.447,classification_task,2021.2.3,Win32,60.0132029,627c6715c52fd12f31907bd0,,,,,,,,,,,,,,,,,,,,,,,l,1,1.4466,"[""0.246"",""0.340"",""0.638"",""0.792""]","[0,1,1,1]",0,25,25,25,1,1,1,,,0,FALSE,,,,,,,,,,,,,,,,,,,,,,,,,,,,,,,
,6107a61bb8c7ec465a529c11,627c6f88297d3217c260433d,2022-05-11_21h24.03.447,classification_task,2021.2.3,Win32,60.0132029,627c6715c52fd12f31907bd0,,,,,,,,,,,,,,,,,,,,,,,a,1,1.8635,"[""0.280"",""0.478"",""0.246"",""0.867""]","[1,1,0,1]",0,26,26,26,1,0,1,,,0,FALSE,,,,,,,,,,,,,,,,,,,,,,,,,,,,,,,
,6107a61bb8c7ec465a529c11,627c6f88297d3217c260433d,2022-05-11_21h24.03.447,classification_task,2021.2.3,Win32,60.0132029,627c6715c52fd12f31907bd0,,,,,,,,,,,,,,,,,,,,,,,a,1,0.8985,"[""0.520"",""0.380"",""0.909"",""0.954""]","[0,1,1,1]",0,27,27,27,1,0,0,,,0,FALSE,,,,,,,,,,,,,,,,,,,,,,,,,,,,,,,
,6107a61bb8c7ec465a529c11,627c6f88297d3217c260433d,2022-05-11_21h24.03.447,classification_task,2021.2.3,Win32,60.0132029,627c6715c52fd12f31907bd0,,,,,,,,,,,,,,,,,,,,,,,l,0,1.266,"[""0.280"",""0.478"",""0.702"",""0.529""]","[1,1,1,0]",0,28,28,28,1,0,1,,,0,FALSE,,,,,,,,,,,,,,,,,,,,,,,,,,,,,,,
,6107a61bb8c7ec465a529c11,627c6f88297d3217c260433d,2022-05-11_21h24.03.447,classification_task,2021.2.3,Win32,60.0132029,627c6715c52fd12f31907bd0,,,,,,,,,,,,,,,,,,,,,,,l,1,0.6997,"[""0.075"",""0.427"",""0.529"",""0.833""]","[1,1,0,1]",0,29,29,29,1,1,0,,,0,FALSE,,,,,,,,,,,,,,,,,,,,,,,,,,,,,,,
,6107a61bb8c7ec465a529c11,627c6f88297d3217c260433d,2022-05-11_21h24.03.447,classification_task,2021.2.3,Win32,60.0132029,627c6715c52fd12f31907bd0,,,,,,,,,,,,,,,,,,,,,,,l,1,0.7335,"[""0.546"",""0.427"",""0.584"",""0.833""]","[0,1,1,1]",0,30,30,30,1,1,0,,,0,FALSE,,,,,,,,,,,,,,,,,,,,,,,,,,,,,,,
,6107a61bb8c7ec465a529c11,627c6f88297d3217c260433d,2022-05-11_21h24.03.447,classification_task,2021.2.3,Win32,60.0132029,627c6715c52fd12f31907bd0,,,,,,,,,,,,,,,,,,,,,,,a,1,1.8661,"[""0.539"",""0.478"",""0.702"",""0.867""]","[0,1,1,1]",0,31,31,31,1,0,1,,,0,FALSE,,,,,,,,,,,,,,,,,,,,,,,,,,,,,,,
,6107a61bb8c7ec465a529c11,627c6f88297d3217c260433d,2022-05-11_21h24.03.447,classification_task,2021.2.3,Win32,60.0132029,627c6715c52fd12f31907bd0,,,,,,,,,,,,,,,,,,,,,,,a,0,1.3321,"[""0.111"",""0.340"",""0.232"",""0.792""]","[1,1,0,1]",0,32,32,32,1,1,1,,,0,FALSE,,,,,,,,,,,,,,,,,,,,,,,,,,,,,,,
,6107a61bb8c7ec465a529c11,627c6f88297d3217c260433d,2022-05-11_21h24.03.447,classification_task,2021.2.3,Win32,60.0132029,627c6715c52fd12f31907bd0,,,,,,,,,,,,,,,,,,,,,,,a,1,1.0503,"[""0.187"",""0.380"",""0.758"",""0.954""]","[1,1,0,1]",0,33,33,33,1,0,0,,,0,FALSE,,,,,,,,,,,,,,,,,,,,,,,,,,,,,,,
,6107a61bb8c7ec465a529c11,627c6f88297d3217c260433d,2022-05-11_21h24.03.447,classification_task,2021.2.3,Win32,60.0132029,627c6715c52fd12f31907bd0,,,,,,,,,,,,,,,,,,,,,,,l,0,1.7122,"[""0.280"",""0.478"",""0.702"",""0.028""]","[1,1,1,0]",0,34,34,34,1,0,1,,,0,FALSE,,,,,,,,,,,,,,,,,,,,,,,,,,,,,,,
,6107a61bb8c7ec465a529c11,627c6f88297d3217c260433d,2022-05-11_21h24.03.447,classification_task,2021.2.3,Win32,60.0132029,627c6715c52fd12f31907bd0,,,,,,,,,,,,,,,,,,,,,,,a,1,1.638,"[""0.539"",""0.478"",""0.702"",""0.867""]","[0,1,1,1]",0,35,35,35,1,0,1,,,0,FALSE,,,,,,,,,,,,,,,,,,,,,,,,,,,,,,,
,6107a61bb8c7ec465a529c11,627c6f88297d3217c260433d,2022-05-11_21h24.03.447,classification_task,2021.2.3,Win32,60.0132029,627c6715c52fd12f31907bd0,,,,,,,,,,,,,,,,,,,,,,,a,0,1.9586,"[""0.758"",""0.340"",""0.638"",""0.792""]","[0,1,1,1]",0,36,36,36,1,1,1,,,0,FALSE,,,,,,,,,,,,,,,,,,,,,,,,,,,,,,,
,6107a61bb8c7ec465a529c11,627c6f88297d3217c260433d,2022-05-11_21h24.03.447,classification_task,2021.2.3,Win32,60.0132029,627c6715c52fd12f31907bd0,,,,,,,,,,,,,,,,,,,,,,,l,1,1.1147,"[""0.514"",""0.427"",""0.584"",""0.833""]","[0,1,1,1]",0,37,37,37,1,1,0,,,0,FALSE,,,,,,,,,,,,,,,,,,,,,,,,,,,,,,,
,6107a61bb8c7ec465a529c11,627c6f88297d3217c260433d,2022-05-11_21h24.03.447,classification_task,2021.2.3,Win32,60.0132029,627c6715c52fd12f31907bd0,,,,,,,,,,,,,,,,,,,,,,,l,1,2.0927,"[""0.111"",""0.340"",""0.638"",""0.738""]","[1,1,1,0]",0,38,38,38,1,1,1,,,0,FALSE,,,,,,,,,,,,,,,,,,,,,,,,,,,,,,,
,6107a61bb8c7ec465a529c11,627c6f88297d3217c260433d,2022-05-11_21h24.03.447,classification_task,2021.2.3,Win32,60.0132029,627c6715c52fd12f31907bd0,,,,,,,,,,,,,,,,,,,,,,,a,1,0.6702,"[""0.187"",""0.221"",""0.909"",""0.954""]","[1,0,1,1]",0,39,39,39,1,0,0,,,0,FALSE,,,,,,,,,,,,,,,,,,,,,,,,,,,,,,,
,6107a61bb8c7ec465a529c11,627c6f88297d3217c260433d,2022-05-11_21h24.03.447,classification_task,2021.2.3,Win32,60.0132029,627c6715c52fd12f31907bd0,,,,,,,,,,,,,,,,,,,,,,,l,1,0.8893,"[""0.075"",""0.028"",""0.584"",""0.833""]","[1,0,1,1]",0,40,40,40,1,1,0,,,0,FALSE,,,,,,,,,,,,,,,,,,,,,,,,,,,,,,,
,6107a61bb8c7ec465a529c11,627c6f88297d3217c260433d,2022-05-11_21h24.03.447,classification_task,2021.2.3,Win32,60.0132029,627c6715c52fd12f31907bd0,,,,,,,,,,,,,,,,,,,,,,,l,1,1.5992,"[""0.111"",""0.223"",""0.638"",""0.792""]","[1,0,1,1]",0,41,41,41,1,1,1,,,0,FALSE,,,,,,,,,,,,,,,,,,,,,,,,,,,,,,,
,6107a61bb8c7ec465a529c11,627c6f88297d3217c260433d,2022-05-11_21h24.03.447,classification_task,2021.2.3,Win32,60.0132029,627c6715c52fd12f31907bd0,,,,,,,,,,,,,,,,,,,,,,,a,1,1.097,"[""0.519"",""0.380"",""0.909"",""0.954""]","[0,1,1,1]",0,42,42,42,1,0,0,,,0,FALSE,,,,,,,,,,,,,,,,,,,,,,,,,,,,,,,
,6107a61bb8c7ec465a529c11,627c6f88297d3217c260433d,2022-05-11_21h24.03.447,classification_task,2021.2.3,Win32,60.0132029,627c6715c52fd12f31907bd0,,,,,,,,,,,,,,,,,,,,,,,l,1,0.7661,"[""0.075"",""0.427"",""0.584"",""0.232""]","[1,1,1,0]",0,43,43,43,1,1,0,,,0,FALSE,,,,,,,,,,,,,,,,,,,,,,,,,,,,,,,
,6107a61bb8c7ec465a529c11,627c6f88297d3217c260433d,2022-05-11_21h24.03.447,classification_task,2021.2.3,Win32,60.0132029,627c6715c52fd12f31907bd0,,,,,,,,,,,,,,,,,,,,,,,a,1,1.9426,"[""0.280"",""0.478"",""0.758"",""0.867""]","[1,1,0,1]",0,44,44,44,1,0,1,,,0,FALSE,,,,,,,,,,,,,,,,,,,,,,,,,,,,,,,
,6107a61bb8c7ec465a529c11,627c6f88297d3217c260433d,2022-05-11_21h24.03.447,classification_task,2021.2.3,Win32,60.0132029,627c6715c52fd12f31907bd0,,,,,,,,,,,,,,,,,,,,,,,a,1,1.2528,"[""0.280"",""0.550"",""0.702"",""0.867""]","[1,0,1,1]",0,45,45,45,1,0,1,,,0,FALSE,,,,,,,,,,,,,,,,,,,,,,,,,,,,,,,
,6107a61bb8c7ec465a529c11,627c6f88297d3217c260433d,2022-05-11_21h24.03.447,classification_task,2021.2.3,Win32,60.0132029,627c6715c52fd12f31907bd0,,,,,,,,,,,,,,,,,,,,,,,a,1,1.0462,"[""0.187"",""0.380"",""0.909"",""0.232""]","[1,1,1,0]",0,46,46,46,1,0,0,,,0,FALSE,,,,,,,,,,,,,,,,,,,,,,,,,,,,,,,
,6107a61bb8c7ec465a529c11,627c6f88297d3217c260433d,2022-05-11_21h24.03.447,classification_task,2021.2.3,Win32,60.0132029,627c6715c52fd12f31907bd0,,,,,,,,,,,,,,,,,,,,,,,l,1,1.3973,"[""0.075"",""0.427"",""0.028"",""0.833""]","[1,1,0,1]",0,47,47,47,1,1,0,,,0,FALSE,,,,,,,,,,,,,,,,,,,,,,,,,,,,,,,
,6107a61bb8c7ec465a529c11,627c6f88297d3217c260433d,2022-05-11_21h24.03.447,classification_task,2021.2.3,Win32,60.0132029,627c6715c52fd12f31907bd0,,,,,,,,,,,,,,,,,,,,,,,l,1,1.1224,"[""0.111"",""0.028"",""0.638"",""0.792""]","[1,0,1,1]",0,48,48,48,1,1,1,,,0,FALSE,,,,,,,,,,,,,,,,,,,,,,,,,,,,,,,
,6107a61bb8c7ec465a529c11,627c6f88297d3217c260433d,2022-05-11_21h24.03.447,classification_task,2021.2.3,Win32,60.0132029,627c6715c52fd12f31907bd0,,,,,,,,,,,,,,,,,,,,,,,a,1,1.3726,"[""0.280"",""0.478"",""0.232"",""0.867""]","[1,1,0,1]",0,49,49,49,1,0,1,,,0,FALSE,,,,,,,,,,,,,,,,,,,,,,,,,,,,,,,
,6107a61bb8c7ec465a529c11,627c6f88297d3217c260433d,2022-05-11_21h24.03.447,classification_task,2021.2.3,Win32,60.0132029,627c6715c52fd12f31907bd0,,,,,,,,,,,,,,,,,,,,,,,l,1,1.1964,"[""0.075"",""0.427"",""0.584"",""0.738""]","[1,1,1,0]",0,50,50,50,1,1,0,,,0,FALSE,,,,,,,,,,,,,,,,,,,,,,,,,,,,,,,
,6107a61bb8c7ec465a529c11,627c6f88297d3217c260433d,2022-05-11_21h24.03.447,classification_task,2021.2.3,Win32,60.0132029,627c6715c52fd12f31907bd0,,,,,,,,,,,,,,,,,,,,,,,a,0,1.8481,"[""0.111"",""0.340"",""0.638"",""0.232""]","[1,1,1,0]",0,51,51,51,1,1,1,,,0,FALSE,,,,,,,,,,,,,,,,,,,,,,,,,,,,,,,
,6107a61bb8c7ec465a529c11,627c6f88297d3217c260433d,2022-05-11_21h24.03.447,classification_task,2021.2.3,Win32,60.0132029,627c6715c52fd12f31907bd0,,,,,,,,,,,,,,,,,,,,,,,l,1,1.7685,"[""0.529"",""0.340"",""0.638"",""0.792""]","[0,1,1,1]",0,52,52,52,1,1,1,,,0,FALSE,,,,,,,,,,,,,,,,,,,,,,,,,,,,,,,
,6107a61bb8c7ec465a529c11,627c6f88297d3217c260433d,2022-05-11_21h24.03.447,classification_task,2021.2.3,Win32,60.0132029,627c6715c52fd12f31907bd0,,,,,,,,,,,,,,,,,,,,,,,a,1,0.9777,"[""0.187"",""0.246"",""0.909"",""0.954""]","[1,0,1,1]",0,53,53,53,1,0,0,,,0,FALSE,,,,,,,,,,,,,,,,,,,,,,,,,,,,,,,
,6107a61bb8c7ec465a529c11,627c6f88297d3217c260433d,2022-05-11_21h24.03.447,classification_task,2021.2.3,Win32,60.0132029,627c6715c52fd12f31907bd0,,,,,,,,,,,,,,,,,,,,,,,a,1,1.1335,"[""0.550"",""0.380"",""0.909"",""0.954""]","[0,1,1,1]",0,54,54,54,1,0,0,,,0,FALSE,,,,,,,,,,,,,,,,,,,,,,,,,,,,,,,
,6107a61bb8c7ec465a529c11,627c6f88297d3217c260433d,2022-05-11_21h24.03.447,classification_task,2021.2.3,Win32,60.0132029,627c6715c52fd12f31907bd0,,,,,,,,,,,,,,,,,,,,,,,a,1,2.8779,"[""0.280"",""0.478"",""0.702"",""0.758""]","[1,1,1,0]",0,55,55,55,1,0,1,,,0,FALSE,,,,,,,,,,,,,,,,,,,,,,,,,,,,,,,
,6107a61bb8c7ec465a529c11,627c6f88297d3217c260433d,2022-05-11_21h24.03.447,classification_task,2021.2.3,Win32,60.0132029,627c6715c52fd12f31907bd0,,,,,,,,,,,,,,,,,,,,,,,l,1,1.691,"[""0.111"",""0.340"",""0.546"",""0.792""]","[1,1,0,1]",0,56,56,56,1,1,1,,,0,FALSE,,,,,,,,,,,,,,,,,,,,,,,,,,,,,,,
,6107a61bb8c7ec465a529c11,627c6f88297d3217c260433d,2022-05-11_21h24.03.447,classification_task,2021.2.3,Win32,60.0132029,627c6715c52fd12f31907bd0,,,,,,,,,,,,,,,,,,,,,,,a,1,1.1872,"[""0.280"",""0.539"",""0.702"",""0.867""]","[1,0,1,1]",0,57,57,57,1,0,1,,,0,FALSE,,,,,,,,,,,,,,,,,,,,,,,,,,,,,,,
,6107a61bb8c7ec465a529c11,627c6f88297d3217c260433d,2022-05-11_21h24.03.447,classification_task,2021.2.3,Win32,60.0132029,627c6715c52fd12f31907bd0,,,,,,,,,,,,,,,,,,,,,,,a,1,1.6232,"[""0.550"",""0.478"",""0.702"",""0.867""]","[0,1,1,1]",0,58,58,58,1,0,1,,,0,FALSE,,,,,,,,,,,,,,,,,,,,,,,,,,,,,,,
,6107a61bb8c7ec465a529c11,627c6f88297d3217c260433d,2022-05-11_21h24.03.447,classification_task,2021.2.3,Win32,60.0132029,627c6715c52fd12f31907bd0,,,,,,,,,,,,,,,,,,,,,,,a,1,0.893,"[""0.187"",""0.380"",""0.909"",""0.550""]","[1,1,1,0]",0,59,59,59,1,0,0,,,0,FALSE,,,,,,,,,,,,,,,,,,,,,,,,,,,,,,,
,6107a61bb8c7ec465a529c11,627c6f88297d3217c260433d,2022-05-11_21h24.03.447,classification_task,2021.2.3,Win32,60.0132029,627c6715c52fd12f31907bd0,,,,,,,,,,,,,,,,,,,,,,,l,1,1.1173,"[""0.075"",""0.427"",""0.028"",""0.833""]","[1,1,0,1]",0,60,60,60,1,1,0,,,0,FALSE,,,,,,,,,,,,,,,,,,,,,,,,,,,,,,,
,6107a61bb8c7ec465a529c11,627c6f88297d3217c260433d,2022-05-11_21h24.03.447,classification_task,2021.2.3,Win32,60.0132029,627c6715c52fd12f31907bd0,,,,,,,,,,,,,,,,,,,,,,,l,1,1.1482,"[""0.075"",""0.246"",""0.584"",""0.833""]","[1,0,1,1]",0,61,61,61,1,1,0,,,0,FALSE,,,,,,,,,,,,,,,,,,,,,,,,,,,,,,,
,6107a61bb8c7ec465a529c11,627c6f88297d3217c260433d,2022-05-11_21h24.03.447,classification_task,2021.2.3,Win32,60.0132029,627c6715c52fd12f31907bd0,,,,,,,,,,,,,,,,,,,,,,,l,1,0.9377,"[""0.748"",""0.427"",""0.584"",""0.833""]","[0,1,1,1]",0,62,62,62,1,1,0,,,0,FALSE,,,,,,,,,,,,,,,,,,,,,,,,,,,,,,,
,6107a61bb8c7ec465a529c11,627c6f88297d3217c260433d,2022-05-11_21h24.03.447,classification_task,2021.2.3,Win32,60.0132029,627c6715c52fd12f31907bd0,,,,,,,,,,,,,,,,,,,,,,,a,1,0.8345,"[""0.187"",""0.380"",""0.550"",""0.954""]","[1,1,0,1]",0,63,63,63,1,0,0,,,0,FALSE,,,,,,,,,,,,,,,,,,,,,,,,,,,,,,,
,6107a61bb8c7ec465a529c11,627c6f88297d3217c260433d,2022-05-11_21h24.03.447,classification_task,2021.2.3,Win32,60.0132029,627c6715c52fd12f31907bd0,,,,,,,,,,,,,,,,,,,,,,,,,,,,,,,,,,,,,,,0, ,,0,8.89247134,194.6121,0,1,1,1,1,2,2,,,,,,,,,,,,,,,,,,
,6107a61bb8c7ec465a529c11,627c6f88297d3217c260433d,2022-05-11_21h24.03.447,classification_task,2021.2.3,Win32,60.0132029,627c6715c52fd12f31907bd0,,,,,,,,,,,,,,,,,,,,,,,,,,,,,,,,,,,,,,,1,  ,,0,5.447806437,197.4036,0,1,1,1,1,2,2,,,,,,,,,,,,,,,,,,
,6107a61bb8c7ec465a529c11,627c6f88297d3217c260433d,2022-05-11_21h24.03.447,classification_task,2021.2.3,Win32,60.0132029,627c6715c52fd12f31907bd0,,,,,,,,,,,,,,,,,,,,,,,,,,,,,,,,,,,,,,,2,  ,,0,2.106481481,201.9203,0,1,1,1,1,2,2,,,,,,,,,,,,,,,,,,
,6107a61bb8c7ec465a529c11,627c6f88297d3217c260433d,2022-05-11_21h24.03.447,classification_task,2021.2.3,Win32,60.0132029,627c6715c52fd12f31907bd0,,,,,,,,,,,,,,,,,,,,,,,,,,,,,,,,,,,,,,,,,,,,,0,1,1,1,1,,2,,,,,,,,,,,,,,,,,,
,6107a61bb8c7ec465a529c11,627c6f88297d3217c260433d,2022-05-11_21h24.03.447,classification_task,2021.2.3,Win32,60.0132029,627c6715c52fd12f31907bd0,,,,,,,,,,,,,,,,,,,,,space,8.8968,a,0,1.3922,"[""0.075"",""0.221"",""0.584"",""0.833""]","[1,0,1,1]",0,0,0,0,1,1,0,,,0,FALSE,,,,,,,,,,,,,,,,,,,,,,,,,,,,,,,
,6107a61bb8c7ec465a529c11,627c6f88297d3217c260433d,2022-05-11_21h24.03.447,classification_task,2021.2.3,Win32,60.0132029,627c6715c52fd12f31907bd0,,,,,,,,,,,,,,,,,,,,,,,a,1,1.0859,"[""0.280"",""0.478"",""0.223"",""0.867""]","[1,1,0,1]",0,1,1,1,1,0,1,,,0,FALSE,,,,,,,,,,,,,,,,,,,,,,,,,,,,,,,
,6107a61bb8c7ec465a529c11,627c6f88297d3217c260433d,2022-05-11_21h24.03.447,classification_task,2021.2.3,Win32,60.0132029,627c6715c52fd12f31907bd0,,,,,,,,,,,,,,,,,,,,,,,l,1,1.5995,"[""0.111"",""0.221"",""0.638"",""0.792""]","[1,0,1,1]",0,2,2,2,1,1,1,,,0,FALSE,,,,,,,,,,,,,,,,,,,,,,,,,,,,,,,
,6107a61bb8c7ec465a529c11,627c6f88297d3217c260433d,2022-05-11_21h24.03.447,classification_task,2021.2.3,Win32,60.0132029,627c6715c52fd12f31907bd0,,,,,,,,,,,,,,,,,,,,,,,l,1,1.5515,"[""0.111"",""0.340"",""0.221"",""0.792""]","[1,1,0,1]",0,3,3,3,1,1,1,,,0,FALSE,,,,,,,,,,,,,,,,,,,,,,,,,,,,,,,
,6107a61bb8c7ec465a529c11,627c6f88297d3217c260433d,2022-05-11_21h24.03.447,classification_task,2021.2.3,Win32,60.0132029,627c6715c52fd12f31907bd0,,,,,,,,,,,,,,,,,,,,,,,a,1,1.9193,"[""0.758"",""0.478"",""0.702"",""0.867""]","[0,1,1,1]",0,4,4,4,1,0,1,,,0,FALSE,,,,,,,,,,,,,,,,,,,,,,,,,,,,,,,
,6107a61bb8c7ec465a529c11,627c6f88297d3217c260433d,2022-05-11_21h24.03.447,classification_task,2021.2.3,Win32,60.0132029,627c6715c52fd12f31907bd0,,,,,,,,,,,,,,,,,,,,,,,a,1,0.8126,"[""0.187"",""0.758"",""0.909"",""0.954""]","[1,0,1,1]",0,5,5,5,1,0,0,,,0,FALSE,,,,,,,,,,,,,,,,,,,,,,,,,,,,,,,
,6107a61bb8c7ec465a529c11,627c6f88297d3217c260433d,2022-05-11_21h24.03.447,classification_task,2021.2.3,Win32,60.0132029,627c6715c52fd12f31907bd0,,,,,,,,,,,,,,,,,,,,,,,l,1,1.2356,"[""0.075"",""0.427"",""0.584"",""0.514""]","[1,1,1,0]",0,6,6,6,1,1,0,,,0,FALSE,,,,,,,,,,,,,,,,,,,,,,,,,,,,,,,
,6107a61bb8c7ec465a529c11,627c6f88297d3217c260433d,2022-05-11_21h24.03.447,classification_task,2021.2.3,Win32,60.0132029,627c6715c52fd12f31907bd0,,,,,,,,,,,,,,,,,,,,,,,l,1,2.5503,"[""0.111"",""0.340"",""0.638"",""0.748""]","[1,1,1,0]",0,7,7,7,1,1,1,,,0,FALSE,,,,,,,,,,,,,,,,,,,,,,,,,,,,,,,
,6107a61bb8c7ec465a529c11,627c6f88297d3217c260433d,2022-05-11_21h24.03.447,classification_task,2021.2.3,Win32,60.0132029,627c6715c52fd12f31907bd0,,,,,,,,,,,,,,,,,,,,,,,l,1,1.6631,"[""0.232"",""0.427"",""0.584"",""0.833""]","[0,1,1,1]",0,8,8,8,1,1,0,,,0,FALSE,,,,,,,,,,,,,,,,,,,,,,,,,,,,,,,
,6107a61bb8c7ec465a529c11,627c6f88297d3217c260433d,2022-05-11_21h24.03.447,classification_task,2021.2.3,Win32,60.0132029,627c6715c52fd12f31907bd0,,,,,,,,,,,,,,,,,,,,,,,a,1,1.5006,"[""0.280"",""0.223"",""0.702"",""0.867""]","[1,0,1,1]",0,9,9,9,1,0,1,,,0,FALSE,,,,,,,,,,,,,,,,,,,,,,,,,,,,,,,
,6107a61bb8c7ec465a529c11,627c6f88297d3217c260433d,2022-05-11_21h24.03.447,classification_task,2021.2.3,Win32,60.0132029,627c6715c52fd12f31907bd0,,,,,,,,,,,,,,,,,,,,,,,l,1,1.9982,"[""0.520"",""0.340"",""0.638"",""0.792""]","[0,1,1,1]",0,10,10,10,1,1,1,,,0,FALSE,,,,,,,,,,,,,,,,,,,,,,,,,,,,,,,
,6107a61bb8c7ec465a529c11,627c6f88297d3217c260433d,2022-05-11_21h24.03.447,classification_task,2021.2.3,Win32,60.0132029,627c6715c52fd12f31907bd0,,,,,,,,,,,,,,,,,,,,,,,a,1,1.4274,"[""0.187"",""0.380"",""0.519"",""0.954""]","[1,1,0,1]",0,11,11,11,1,0,0,,,0,FALSE,,,,,,,,,,,,,,,,,,,,,,,,,,,,,,,
,6107a61bb8c7ec465a529c11,627c6f88297d3217c260433d,2022-05-11_21h24.03.447,classification_task,2021.2.3,Win32,60.0132029,627c6715c52fd12f31907bd0,,,,,,,,,,,,,,,,,,,,,,,a,1,1.124,"[""0.187"",""0.380"",""0.909"",""0.550""]","[1,1,1,0]",0,12,12,12,1,0,0,,,0,FALSE,,,,,,,,,,,,,,,,,,,,,,,,,,,,,,,
,6107a61bb8c7ec465a529c11,627c6f88297d3217c260433d,2022-05-11_21h24.03.447,classification_task,2021.2.3,Win32,60.0132029,627c6715c52fd12f31907bd0,,,,,,,,,,,,,,,,,,,,,,,a,1,2.5488,"[""0.280"",""0.478"",""0.702"",""0.758""]","[1,1,1,0]",0,13,13,13,1,0,1,,,0,FALSE,,,,,,,,,,,,,,,,,,,,,,,,,,,,,,,
,6107a61bb8c7ec465a529c11,627c6f88297d3217c260433d,2022-05-11_21h24.03.447,classification_task,2021.2.3,Win32,60.0132029,627c6715c52fd12f31907bd0,,,,,,,,,,,,,,,,,,,,,,,a,1,0.7742,"[""0.223"",""0.380"",""0.909"",""0.954""]","[0,1,1,1]",0,14,14,14,1,0,0,,,0,FALSE,,,,,,,,,,,,,,,,,,,,,,,,,,,,,,,
,6107a61bb8c7ec465a529c11,627c6f88297d3217c260433d,2022-05-11_21h24.03.447,classification_task,2021.2.3,Win32,60.0132029,627c6715c52fd12f31907bd0,,,,,,,,,,,,,,,,,,,,,,,l,1,1.2168,"[""0.075"",""0.427"",""0.028"",""0.833""]","[1,1,0,1]",0,15,15,15,1,1,0,,,0,FALSE,,,,,,,,,,,,,,,,,,,,,,,,,,,,,,,
,6107a61bb8c7ec465a529c11,627c6f88297d3217c260433d,2022-05-11_21h24.03.447,classification_task,2021.2.3,Win32,60.0132029,627c6715c52fd12f31907bd0,,,,,,,,,,,,,,,,,,,,,,,a,1,1.2316,"[""0.758"",""0.478"",""0.702"",""0.867""]","[0,1,1,1]",0,16,16,16,1,0,1,,,0,FALSE,,,,,,,,,,,,,,,,,,,,,,,,,,,,,,,
,6107a61bb8c7ec465a529c11,627c6f88297d3217c260433d,2022-05-11_21h24.03.447,classification_task,2021.2.3,Win32,60.0132029,627c6715c52fd12f31907bd0,,,,,,,,,,,,,,,,,,,,,,,l,1,0.9513,"[""0.075"",""0.246"",""0.584"",""0.833""]","[1,0,1,1]",0,17,17,17,1,1,0,,,0,FALSE,,,,,,,,,,,,,,,,,,,,,,,,,,,,,,,
,6107a61bb8c7ec465a529c11,627c6f88297d3217c260433d,2022-05-11_21h24.03.447,classification_task,2021.2.3,Win32,60.0132029,627c6715c52fd12f31907bd0,,,,,,,,,,,,,,,,,,,,,,,a,1,1.3496,"[""0.280"",""0.519"",""0.702"",""0.867""]","[1,0,1,1]",0,18,18,18,1,0,1,,,0,FALSE,,,,,,,,,,,,,,,,,,,,,,,,,,,,,,,
,6107a61bb8c7ec465a529c11,627c6f88297d3217c260433d,2022-05-11_21h24.03.447,classification_task,2021.2.3,Win32,60.0132029,627c6715c52fd12f31907bd0,,,,,,,,,,,,,,,,,,,,,,,l,1,1.4346,"[""0.075"",""0.427"",""0.584"",""0.546""]","[1,1,1,0]",0,19,19,19,1,1,0,,,0,FALSE,,,,,,,,,,,,,,,,,,,,,,,,,,,,,,,
,6107a61bb8c7ec465a529c11,627c6f88297d3217c260433d,2022-05-11_21h24.03.447,classification_task,2021.2.3,Win32,60.0132029,627c6715c52fd12f31907bd0,,,,,,,,,,,,,,,,,,,,,,,a,1,0.9002,"[""0.187"",""0.246"",""0.909"",""0.954""]","[1,0,1,1]",0,20,20,20,1,0,0,,,0,FALSE,,,,,,,,,,,,,,,,,,,,,,,,,,,,,,,
,6107a61bb8c7ec465a529c11,627c6f88297d3217c260433d,2022-05-11_21h24.03.447,classification_task,2021.2.3,Win32,60.0132029,627c6715c52fd12f31907bd0,,,,,,,,,,,,,,,,,,,,,,,a,1,1.4672,"[""0.187"",""0.380"",""0.909"",""0.529""]","[1,1,1,0]",0,21,21,21,1,0,0,,,0,FALSE,,,,,,,,,,,,,,,,,,,,,,,,,,,,,,,
,6107a61bb8c7ec465a529c11,627c6f88297d3217c260433d,2022-05-11_21h24.03.447,classification_task,2021.2.3,Win32,60.0132029,627c6715c52fd12f31907bd0,,,,,,,,,,,,,,,,,,,,,,,l,1,1.2335,"[""0.111"",""0.340"",""0.638"",""0.246""]","[1,1,1,0]",0,22,22,22,1,1,1,,,0,FALSE,,,,,,,,,,,,,,,,,,,,,,,,,,,,,,,
,6107a61bb8c7ec465a529c11,627c6f88297d3217c260433d,2022-05-11_21h24.03.447,classification_task,2021.2.3,Win32,60.0132029,627c6715c52fd12f31907bd0,,,,,,,,,,,,,,,,,,,,,,,a,1,1.3103,"[""0.280"",""0.478"",""0.758"",""0.867""]","[1,1,0,1]",0,23,23,23,1,0,1,,,0,FALSE,,,,,,,,,,,,,,,,,,,,,,,,,,,,,,,
,6107a61bb8c7ec465a529c11,627c6f88297d3217c260433d,2022-05-11_21h24.03.447,classification_task,2021.2.3,Win32,60.0132029,627c6715c52fd12f31907bd0,,,,,,,,,,,,,,,,,,,,,,,l,0,1.5325,"[""0.280"",""0.478"",""0.702"",""0.539""]","[1,1,1,0]",0,24,24,24,1,0,1,,,0,FALSE,,,,,,,,,,,,,,,,,,,,,,,,,,,,,,,
,6107a61bb8c7ec465a529c11,627c6f88297d3217c260433d,2022-05-11_21h24.03.447,classification_task,2021.2.3,Win32,60.0132029,627c6715c52fd12f31907bd0,,,,,,,,,,,,,,,,,,,,,,,l,1,2.2343,"[""0.111"",""0.519"",""0.638"",""0.792""]","[1,0,1,1]",0,25,25,25,1,1,1,,,0,FALSE,,,,,,,,,,,,,,,,,,,,,,,,,,,,,,,
,6107a61bb8c7ec465a529c11,627c6f88297d3217c260433d,2022-05-11_21h24.03.447,classification_task,2021.2.3,Win32,60.0132029,627c6715c52fd12f31907bd0,,,,,,,,,,,,,,,,,,,,,,,a,1,0.933,"[""0.187"",""0.380"",""0.748"",""0.954""]","[1,1,0,1]",0,26,26,26,1,0,0,,,0,FALSE,,,,,,,,,,,,,,,,,,,,,,,,,,,,,,,
,6107a61bb8c7ec465a529c11,627c6f88297d3217c260433d,2022-05-11_21h24.03.447,classification_task,2021.2.3,Win32,60.0132029,627c6715c52fd12f31907bd0,,,,,,,,,,,,,,,,,,,,,,,a,1,0.9677,"[""0.246"",""0.380"",""0.909"",""0.954""]","[0,1,1,1]",0,27,27,27,1,0,0,,,0,FALSE,,,,,,,,,,,,,,,,,,,,,,,,,,,,,,,
,6107a61bb8c7ec465a529c11,627c6f88297d3217c260433d,2022-05-11_21h24.03.447,classification_task,2021.2.3,Win32,60.0132029,627c6715c52fd12f31907bd0,,,,,,,,,,,,,,,,,,,,,,,l,1,1.1241,"[""0.550"",""0.427"",""0.584"",""0.833""]","[0,1,1,1]",0,28,28,28,1,1,0,,,0,FALSE,,,,,,,,,,,,,,,,,,,,,,,,,,,,,,,
,6107a61bb8c7ec465a529c11,627c6f88297d3217c260433d,2022-05-11_21h24.03.447,classification_task,2021.2.3,Win32,60.0132029,627c6715c52fd12f31907bd0,,,,,,,,,,,,,,,,,,,,,,,l,1,1.9911,"[""0.111"",""0.340"",""0.529"",""0.792""]","[1,1,0,1]",0,29,29,29,1,1,1,,,0,FALSE,,,,,,,,,,,,,,,,,,,,,,,,,,,,,,,
,6107a61bb8c7ec465a529c11,627c6f88297d3217c260433d,2022-05-11_21h24.03.447,classification_task,2021.2.3,Win32,60.0132029,627c6715c52fd12f31907bd0,,,,,,,,,,,,,,,,,,,,,,,l,1,1.5493,"[""0.539"",""0.340"",""0.638"",""0.792""]","[0,1,1,1]",0,30,30,30,1,1,1,,,0,FALSE,,,,,,,,,,,,,,,,,,,,,,,,,,,,,,,
,6107a61bb8c7ec465a529c11,627c6f88297d3217c260433d,2022-05-11_21h24.03.447,classification_task,2021.2.3,Win32,60.0132029,627c6715c52fd12f31907bd0,,,,,,,,,,,,,,,,,,,,,,,l,1,1.23,"[""0.075"",""0.427"",""0.221"",""0.833""]","[1,1,0,1]",0,31,31,31,1,1,0,,,0,FALSE,,,,,,,,,,,,,,,,,,,,,,,,,,,,,,,
,6107a61bb8c7ec465a529c11,627c6f88297d3217c260433d,2022-05-11_21h24.03.447,classification_task,2021.2.3,Win32,60.0132029,627c6715c52fd12f31907bd0,,,,,,,,,,,,,,,,,,,,,,,l,1,2.2099,"[""0.111"",""0.340"",""0.028"",""0.792""]","[1,1,0,1]",0,32,32,32,1,1,1,,,0,FALSE,,,,,,,,,,,,,,,,,,,,,,,,,,,,,,,
,6107a61bb8c7ec465a529c11,627c6f88297d3217c260433d,2022-05-11_21h24.03.447,classification_task,2021.2.3,Win32,60.0132029,627c6715c52fd12f31907bd0,,,,,,,,,,,,,,,,,,,,,,,l,1,1.6171,"[""0.111"",""0.340"",""0.638"",""0.519""]","[1,1,1,0]",0,33,33,33,1,1,1,,,0,FALSE,,,,,,,,,,,,,,,,,,,,,,,,,,,,,,,
,6107a61bb8c7ec465a529c11,627c6f88297d3217c260433d,2022-05-11_21h24.03.447,classification_task,2021.2.3,Win32,60.0132029,627c6715c52fd12f31907bd0,,,,,,,,,,,,,,,,,,,,,,,a,1,1.1913,"[""0.280"",""0.478"",""0.758"",""0.867""]","[1,1,0,1]",0,34,34,34,1,0,1,,,0,FALSE,,,,,,,,,,,,,,,,,,,,,,,,,,,,,,,
,6107a61bb8c7ec465a529c11,627c6f88297d3217c260433d,2022-05-11_21h24.03.447,classification_task,2021.2.3,Win32,60.0132029,627c6715c52fd12f31907bd0,,,,,,,,,,,,,,,,,,,,,,,l,1,2.0998,"[""0.075"",""0.758"",""0.584"",""0.833""]","[1,0,1,1]",0,35,35,35,1,1,0,,,0,FALSE,,,,,,,,,,,,,,,,,,,,,,,,,,,,,,,
,6107a61bb8c7ec465a529c11,627c6f88297d3217c260433d,2022-05-11_21h24.03.447,classification_task,2021.2.3,Win32,60.0132029,627c6715c52fd12f31907bd0,,,,,,,,,,,,,,,,,,,,,,,l,1,1.566,"[""0.111"",""0.550"",""0.638"",""0.792""]","[1,0,1,1]",0,36,36,36,1,1,1,,,0,FALSE,,,,,,,,,,,,,,,,,,,,,,,,,,,,,,,
,6107a61bb8c7ec465a529c11,627c6f88297d3217c260433d,2022-05-11_21h24.03.447,classification_task,2021.2.3,Win32,60.0132029,627c6715c52fd12f31907bd0,,,,,,,,,,,,,,,,,,,,,,,a,1,0.6351,"[""0.546"",""0.380"",""0.909"",""0.954""]","[0,1,1,1]",0,37,37,37,1,0,0,,,0,FALSE,,,,,,,,,,,,,,,,,,,,,,,,,,,,,,,
,6107a61bb8c7ec465a529c11,627c6f88297d3217c260433d,2022-05-11_21h24.03.447,classification_task,2021.2.3,Win32,60.0132029,627c6715c52fd12f31907bd0,,,,,,,,,,,,,,,,,,,,,,,a,1,1.0922,"[""0.187"",""0.529"",""0.909"",""0.954""]","[1,0,1,1]",0,38,38,38,1,0,0,,,0,FALSE,,,,,,,,,,,,,,,,,,,,,,,,,,,,,,,
,6107a61bb8c7ec465a529c11,627c6f88297d3217c260433d,2022-05-11_21h24.03.447,classification_task,2021.2.3,Win32,60.0132029,627c6715c52fd12f31907bd0,,,,,,,,,,,,,,,,,,,,,,,l,1,1.0491,"[""0.221"",""0.427"",""0.584"",""0.833""]","[0,1,1,1]",0,39,39,39,1,1,0,,,0,FALSE,,,,,,,,,,,,,,,,,,,,,,,,,,,,,,,
,6107a61bb8c7ec465a529c11,627c6f88297d3217c260433d,2022-05-11_21h24.03.447,classification_task,2021.2.3,Win32,60.0132029,627c6715c52fd12f31907bd0,,,,,,,,,,,,,,,,,,,,,,,a,1,2.3188,"[""0.187"",""0.380"",""0.909"",""0.748""]","[1,1,1,0]",0,40,40,40,1,0,0,,,0,FALSE,,,,,,,,,,,,,,,,,,,,,,,,,,,,,,,
,6107a61bb8c7ec465a529c11,627c6f88297d3217c260433d,2022-05-11_21h24.03.447,classification_task,2021.2.3,Win32,60.0132029,627c6715c52fd12f31907bd0,,,,,,,,,,,,,,,,,,,,,,,a,1,2.5736,"[""0.539"",""0.478"",""0.702"",""0.867""]","[0,1,1,1]",0,41,41,41,1,0,1,,,0,FALSE,,,,,,,,,,,,,,,,,,,,,,,,,,,,,,,
,6107a61bb8c7ec465a529c11,627c6f88297d3217c260433d,2022-05-11_21h24.03.447,classification_task,2021.2.3,Win32,60.0132029,627c6715c52fd12f31907bd0,,,,,,,,,,,,,,,,,,,,,,,l,1,1.0069,"[""0.075"",""0.427"",""0.519"",""0.833""]","[1,1,0,1]",0,42,42,42,1,1,0,,,0,FALSE,,,,,,,,,,,,,,,,,,,,,,,,,,,,,,,
,6107a61bb8c7ec465a529c11,627c6f88297d3217c260433d,2022-05-11_21h24.03.447,classification_task,2021.2.3,Win32,60.0132029,627c6715c52fd12f31907bd0,,,,,,,,,,,,,,,,,,,,,,,a,0,1.2004,"[""0.232"",""0.340"",""0.638"",""0.792""]","[0,1,1,1]",0,43,43,43,1,1,1,,,0,FALSE,,,,,,,,,,,,,,,,,,,,,,,,,,,,,,,
,6107a61bb8c7ec465a529c11,627c6f88297d3217c260433d,2022-05-11_21h24.03.447,classification_task,2021.2.3,Win32,60.0132029,627c6715c52fd12f31907bd0,,,,,,,,,,,,,,,,,,,,,,,l,1,1.2547,"[""0.075"",""0.427"",""0.584"",""0.546""]","[1,1,1,0]",0,44,44,44,1,1,0,,,0,FALSE,,,,,,,,,,,,,,,,,,,,,,,,,,,,,,,
,6107a61bb8c7ec465a529c11,627c6f88297d3217c260433d,2022-05-11_21h24.03.447,classification_task,2021.2.3,Win32,60.0132029,627c6715c52fd12f31907bd0,,,,,,,,,,,,,,,,,,,,,,,l,0,1.2672,"[""0.280"",""0.478"",""0.702"",""0.028""]","[1,1,1,0]",0,45,45,45,1,0,1,,,0,FALSE,,,,,,,,,,,,,,,,,,,,,,,,,,,,,,,
,6107a61bb8c7ec465a529c11,627c6f88297d3217c260433d,2022-05-11_21h24.03.447,classification_task,2021.2.3,Win32,60.0132029,627c6715c52fd12f31907bd0,,,,,,,,,,,,,,,,,,,,,,,a,1,0.8503,"[""0.187"",""0.380"",""0.550"",""0.954""]","[1,1,0,1]",0,46,46,46,1,0,0,,,0,FALSE,,,,,,,,,,,,,,,,,,,,,,,,,,,,,,,
,6107a61bb8c7ec465a529c11,627c6f88297d3217c260433d,2022-05-11_21h24.03.447,classification_task,2021.2.3,Win32,60.0132029,627c6715c52fd12f31907bd0,,,,,,,,,,,,,,,,,,,,,,,a,1,1.9737,"[""0.280"",""0.514"",""0.702"",""0.867""]","[1,0,1,1]",0,47,47,47,1,0,1,,,0,FALSE,,,,,,,,,,,,,,,,,,,,,,,,,,,,,,,
,6107a61bb8c7ec465a529c11,627c6f88297d3217c260433d,2022-05-11_21h24.03.447,classification_task,2021.2.3,Win32,60.0132029,627c6715c52fd12f31907bd0,,,,,,,,,,,,,,,,,,,,,,,a,1,1.7355,"[""0.280"",""0.478"",""0.221"",""0.867""]","[1,1,0,1]",0,48,48,48,1,0,1,,,0,FALSE,,,,,,,,,,,,,,,,,,,,,,,,,,,,,,,
,6107a61bb8c7ec465a529c11,627c6f88297d3217c260433d,2022-05-11_21h24.03.447,classification_task,2021.2.3,Win32,60.0132029,627c6715c52fd12f31907bd0,,,,,,,,,,,,,,,,,,,,,,,l,1,1.0333,"[""0.075"",""0.427"",""0.584"",""0.223""]","[1,1,1,0]",0,49,49,49,1,1,0,,,0,FALSE,,,,,,,,,,,,,,,,,,,,,,,,,,,,,,,
,6107a61bb8c7ec465a529c11,627c6f88297d3217c260433d,2022-05-11_21h24.03.447,classification_task,2021.2.3,Win32,60.0132029,627c6715c52fd12f31907bd0,,,,,,,,,,,,,,,,,,,,,,,l,1,1.0143,"[""0.075"",""0.221"",""0.584"",""0.833""]","[1,0,1,1]",0,50,50,50,1,1,0,,,0,FALSE,,,,,,,,,,,,,,,,,,,,,,,,,,,,,,,
,6107a61bb8c7ec465a529c11,627c6f88297d3217c260433d,2022-05-11_21h24.03.447,classification_task,2021.2.3,Win32,60.0132029,627c6715c52fd12f31907bd0,,,,,,,,,,,,,,,,,,,,,,,a,1,2.666,"[""0.028"",""0.478"",""0.702"",""0.867""]","[0,1,1,1]",0,51,51,51,1,0,1,,,0,FALSE,,,,,,,,,,,,,,,,,,,,,,,,,,,,,,,
,6107a61bb8c7ec465a529c11,627c6f88297d3217c260433d,2022-05-11_21h24.03.447,classification_task,2021.2.3,Win32,60.0132029,627c6715c52fd12f31907bd0,,,,,,,,,,,,,,,,,,,,,,,l,1,1.3132,"[""0.111"",""0.340"",""0.638"",""0.221""]","[1,1,1,0]",0,52,52,52,1,1,1,,,0,FALSE,,,,,,,,,,,,,,,,,,,,,,,,,,,,,,,
,6107a61bb8c7ec465a529c11,627c6f88297d3217c260433d,2022-05-11_21h24.03.447,classification_task,2021.2.3,Win32,60.0132029,627c6715c52fd12f31907bd0,,,,,,,,,,,,,,,,,,,,,,,a,1,0.8688,"[""0.187"",""0.380"",""0.028"",""0.954""]","[1,1,0,1]",0,53,53,53,1,0,0,,,0,FALSE,,,,,,,,,,,,,,,,,,,,,,,,,,,,,,,
,6107a61bb8c7ec465a529c11,627c6f88297d3217c260433d,2022-05-11_21h24.03.447,classification_task,2021.2.3,Win32,60.0132029,627c6715c52fd12f31907bd0,,,,,,,,,,,,,,,,,,,,,,,l,1,1.588,"[""0.758"",""0.340"",""0.638"",""0.792""]","[0,1,1,1]",0,54,54,54,1,1,1,,,0,FALSE,,,,,,,,,,,,,,,,,,,,,,,,,,,,,,,
,6107a61bb8c7ec465a529c11,627c6f88297d3217c260433d,2022-05-11_21h24.03.447,classification_task,2021.2.3,Win32,60.0132029,627c6715c52fd12f31907bd0,,,,,,,,,,,,,,,,,,,,,,,a,1,0.9683,"[""0.187"",""0.519"",""0.909"",""0.954""]","[1,0,1,1]",0,55,55,55,1,0,0,,,0,FALSE,,,,,,,,,,,,,,,,,,,,,,,,,,,,,,,
,6107a61bb8c7ec465a529c11,627c6f88297d3217c260433d,2022-05-11_21h24.03.447,classification_task,2021.2.3,Win32,60.0132029,627c6715c52fd12f31907bd0,,,,,,,,,,,,,,,,,,,,,,,a,1,0.8877,"[""0.520"",""0.380"",""0.909"",""0.954""]","[0,1,1,1]",0,56,56,56,1,0,0,,,0,FALSE,,,,,,,,,,,,,,,,,,,,,,,,,,,,,,,
,6107a61bb8c7ec465a529c11,627c6f88297d3217c260433d,2022-05-11_21h24.03.447,classification_task,2021.2.3,Win32,60.0132029,627c6715c52fd12f31907bd0,,,,,,,,,,,,,,,,,,,,,,,l,1,1.5013,"[""0.075"",""0.427"",""0.738"",""0.833""]","[1,1,0,1]",0,57,57,57,1,1,0,,,0,FALSE,,,,,,,,,,,,,,,,,,,,,,,,,,,,,,,
,6107a61bb8c7ec465a529c11,627c6f88297d3217c260433d,2022-05-11_21h24.03.447,classification_task,2021.2.3,Win32,60.0132029,627c6715c52fd12f31907bd0,,,,,,,,,,,,,,,,,,,,,,,a,0,2.535,"[""0.111"",""0.340"",""0.223"",""0.792""]","[1,1,0,1]",0,58,58,58,1,1,1,,,0,FALSE,,,,,,,,,,,,,,,,,,,,,,,,,,,,,,,
,6107a61bb8c7ec465a529c11,627c6f88297d3217c260433d,2022-05-11_21h24.03.447,classification_task,2021.2.3,Win32,60.0132029,627c6715c52fd12f31907bd0,,,,,,,,,,,,,,,,,,,,,,,l,0,1.7018,"[""0.280"",""0.478"",""0.702"",""0.758""]","[1,1,1,0]",0,59,59,59,1,0,1,,,0,FALSE,,,,,,,,,,,,,,,,,,,,,,,,,,,,,,,
,6107a61bb8c7ec465a529c11,627c6f88297d3217c260433d,2022-05-11_21h24.03.447,classification_task,2021.2.3,Win32,60.0132029,627c6715c52fd12f31907bd0,,,,,,,,,,,,,,,,,,,,,,,a,1,1.1739,"[""0.280"",""0.520"",""0.702"",""0.867""]","[1,0,1,1]",0,60,60,60,1,0,1,,,0,FALSE,,,,,,,,,,,,,,,,,,,,,,,,,,,,,,,
,6107a61bb8c7ec465a529c11,627c6f88297d3217c260433d,2022-05-11_21h24.03.447,classification_task,2021.2.3,Win32,60.0132029,627c6715c52fd12f31907bd0,,,,,,,,,,,,,,,,,,,,,,,a,1,1.1145,"[""0.187"",""0.380"",""0.909"",""0.514""]","[1,1,1,0]",0,61,61,61,1,0,0,,,0,FALSE,,,,,,,,,,,,,,,,,,,,,,,,,,,,,,,
,6107a61bb8c7ec465a529c11,627c6f88297d3217c260433d,2022-05-11_21h24.03.447,classification_task,2021.2.3,Win32,60.0132029,627c6715c52fd12f31907bd0,,,,,,,,,,,,,,,,,,,,,,,l,1,0.9835,"[""0.539"",""0.427"",""0.584"",""0.833""]","[0,1,1,1]",0,62,62,62,1,1,0,,,0,FALSE,,,,,,,,,,,,,,,,,,,,,,,,,,,,,,,
,6107a61bb8c7ec465a529c11,627c6f88297d3217c260433d,2022-05-11_21h24.03.447,classification_task,2021.2.3,Win32,60.0132029,627c6715c52fd12f31907bd0,,,,,,,,,,,,,,,,,,,,,,,l,1,1.9162,"[""0.111"",""0.529"",""0.638"",""0.792""]","[1,0,1,1]",0,63,63,63,1,1,1,,,0,FALSE,,,,,,,,,,,,,,,,,,,,,,,,,,,,,,,
,6107a61bb8c7ec465a529c11,627c6f88297d3217c260433d,2022-05-11_21h24.03.447,classification_task,2021.2.3,Win32,60.0132029,627c6715c52fd12f31907bd0,,,,,,,,,,,,,,,,,,,,,,,,,,,,,,,,,,,,,,,0, ,,0,0.659722222,184.4212,0,2,2,2,1,2,3,,,,,,,,,,,,,,,,,,
,6107a61bb8c7ec465a529c11,627c6f88297d3217c260433d,2022-05-11_21h24.03.447,classification_task,2021.2.3,Win32,60.0132029,627c6715c52fd12f31907bd0,,,,,,,,,,,,,,,,,,,,,,,,,,,,,,,,,,,,,,,1,  ,,0,8.789131393,187.9058,0,2,2,2,1,2,3,,,,,,,,,,,,,,,,,,
,6107a61bb8c7ec465a529c11,627c6f88297d3217c260433d,2022-05-11_21h24.03.447,classification_task,2021.2.3,Win32,60.0132029,627c6715c52fd12f31907bd0,,,,,,,,,,,,,,,,,,,,,,,,,,,,,,,,,,,,,,,2,  ,,0,3.484347443,190.9509,0,2,2,2,1,2,3,,,,,,,,,,,,,,,,,,
,6107a61bb8c7ec465a529c11,627c6f88297d3217c260433d,2022-05-11_21h24.03.447,classification_task,2021.2.3,Win32,60.0132029,627c6715c52fd12f31907bd0,,,,,,,,,,,,,,,,,,,,,,,,,,,,,,,,,,,,,,,,,,,,,0,2,2,2,1,,3,,,,,,,,,,,,,,,,,,
,6107a61bb8c7ec465a529c11,627c6f88297d3217c260433d,2022-05-11_21h24.03.447,classification_task,2021.2.3,Win32,60.0132029,627c6715c52fd12f31907bd0,,,,,,,,,,,,,,,,,,,,,,,,,,,,,,,,,,,,,,,,,,,,,,,,,,,,,I believe the aid is a competent performer,,0.7,0,3,884.7822,0,0,0,0,1,0,,,,,
,6107a61bb8c7ec465a529c11,627c6f88297d3217c260433d,2022-05-11_21h24.03.447,classification_task,2021.2.3,Win32,60.0132029,627c6715c52fd12f31907bd0,,,,,,,,,,,,,,,,,,,,,,,,,,,,,,,,,,,,,,,,,,,,,,,,,,,,,I trust the aid,,0.7,0,4,886.2003,0,0,0,0,1,0,,,,,
,6107a61bb8c7ec465a529c11,627c6f88297d3217c260433d,2022-05-11_21h24.03.447,classification_task,2021.2.3,Win32,60.0132029,627c6715c52fd12f31907bd0,,,,,,,,,,,,,,,,,,,,,,,,,,,,,,,,,,,,,,,,,,,,,,,,,,,,,I have confidence in the advice given by the aid,,0.7,0,4,894.1311,0,0,0,0,1,0,,,,,
,6107a61bb8c7ec465a529c11,627c6f88297d3217c260433d,2022-05-11_21h24.03.447,classification_task,2021.2.3,Win32,60.0132029,627c6715c52fd12f31907bd0,,,,,,,,,,,,,,,,,,,,,,,,,,,,,,,,,,,,,,,,,,,,,,,,,,,,,I can depend on the aid,,0.7,0,5,892.8929,0,0,0,0,1,0,,,,,
,6107a61bb8c7ec465a529c11,627c6f88297d3217c260433d,2022-05-11_21h24.03.447,classification_task,2021.2.3,Win32,60.0132029,627c6715c52fd12f31907bd0,,,,,,,,,,,,,,,,,,,,,,,,,,,,,,,,,,,,,,,,,,,,,,,,,,,,,I can rely on the aid to behave in consistent ways,,0.7,0,4,896.5012,0,0,0,0,1,0,,,,,
,6107a61bb8c7ec465a529c11,627c6f88297d3217c260433d,2022-05-11_21h24.03.447,classification_task,2021.2.3,Win32,60.0132029,627c6715c52fd12f31907bd0,,,,,,,,,,,,,,,,,,,,,,,,,,,,,,,,,,,,,,,,,,,,,,,,,,,,,I can rely on the aid to do its best every time I take its advice,,0.7,0,4,899.0832,0,0,0,0,1,0,,,,,
,6107a61bb8c7ec465a529c11,627c6f88297d3217c260433d,2022-05-11_21h24.03.447,classification_task,2021.2.3,Win32,60.0132029,627c6715c52fd12f31907bd0,,,,,,,,,,,,,,,,,,,,,,,,,,,,,,,,,,,,,,,,,,,,,,,,,,,,,"On trials you completed with assistance from the aid, how frequently did you think the aid was correct?",,0.7,0,100%,,0,0,0,0,1,0,,,,,
,6107a61bb8c7ec465a529c11,627c6f88297d3217c260433d,2022-05-11_21h24.03.447,classification_task,2021.2.3,Win32,60.0132029,627c6715c52fd12f31907bd0,,,,,,,,,,,,,,,,,,,,,,,,,,,,,,,,,,,,,,,,,,,,,,,,,,,,,"On trials you completed without the aid, how frequently did you think you were correct?",,0.7,0,60%,,0,0,0,0,1,0,,,,,
,6107a61bb8c7ec465a529c11,627c6f88297d3217c260433d,2022-05-11_21h24.03.447,classification_task,2021.2.3,Win32,60.0132029,627c6715c52fd12f31907bd0,,,,,,,,,,,,,,,,,,,,,,,,,,,,,,,,,,,,,,,,,,,,,,,,,,,,,,,,,,,0,0,0,0,1,,,,,,
,6107a61bb8c7ec465a529c11,627c6f88297d3217c260433d,2022-05-11_21h24.03.447,classification_task,2021.2.3,Win32,60.0132029,627c6715c52fd12f31907bd0,,,,,,,,,,,,,,,,,,,,,,,,,,,,,,,,,,,,,,,,,,,,,,,,,,,,,,,,,,,,,,,,,space,9.7601,927.7644,,
,6107a61bb8c7ec465a529c11,627c6f88297d3217c260433d,2022-05-11_21h24.03.447,classification_task,2021.2.3,Win32,60.0132029,627c6715c52fd12f31907bd0,,,,,,,,,,,,,,,,,,,,,,,,,,,,,,,,,,,,,,,,,,,,,,,,,,,,,,,,,,,,,,,,,,,,"Mozilla/5.0 (Windows NT 10.0; Win64; x64) AppleWebKit/537.36 (KHTML, like Gecko) Chrome/101.0.4951.54 Safari/537.36",
,6107a61bb8c7ec465a529c11,627c6f88297d3217c260433d,2022-05-11_21h24.03.447,classification_task,2021.2.3,Win32,60.0132029,627c6715c52fd12f31907bd0,,,,,,,,,,,,,,,,,,,,,,,,,,,,,,,,,,,,,,,,,,,,,,,,,,,,,,,,,,,,,,,,,,,,,FADING
