usingWebGL,participant,session,date,expName,psychopyVersion,OS,frameRate,study_id,signatures_friend,signatures_foe,band_ranges_top,band_ranges_bottom,formitemText,formtype,formundefined,formitemWidth,formindex,formresponse,formrt,key_resp_2.keys,key_resp_2.rt,tute_resp.keys,tute_resp.rt,tutorial.thisRepN,tutorial.thisTrialN,tutorial.thisN,tutorial.thisIndex,tutorial.ran,key_resp_4.keys,key_resp_4.rt,key_resp.keys,key_resp.corr,key_resp.rt,lines_presented,is_signal_presented,trials.thisRepN,trials.thisTrialN,trials.thisN,trials.thisIndex,trials.ran,vessel,active_band,lines,is_signal,supported_pos,catch_trial,debrief_formindex,debrief_formitemText,debrief_formtype,debrief_formitemWidth,debrief_formresponse,debrief_formrt,phases.thisRepN,phases.thisTrialN,phases.thisN,phases.thisIndex,phases.ran,phases.order,phase,key_resp_3.keys,trustitemText,trusttype,trustitemWidth,trustindex,trustresponse,trustrt,support_status.thisRepN,support_status.thisTrialN,support_status.thisN,support_status.thisIndex,support_status.ran,support_status.order,key_resp_5.keys,key_resp_5.rt,globalClockTime,userAgent,manualCondition
TRUE,61073e6d38111b5924507b77,627c6fad59bfe5359f80482d,2022-05-11_21h25.08.559,classification_task,2021.2.3,Win32,59.90893841,627c6715c52fd12f31907bd0,,,,,,,,,,,,,,,,,,,,,,,,,,,,,,,,,,,,,,,,,,,,,,,,,,,,,,,,,,,,,,,,,,,,,
,61073e6d38111b5924507b77,627c6fad59bfe5359f80482d,2022-05-11_21h25.08.559,classification_task,2021.2.3,Win32,59.90893841,627c6715c52fd12f31907bd0,"[[""0.237"",""0.356"",""0.829"",""0.871""],[""0.322"",""0.548"",""0.681"",""0.967""]]","[[""0.066"",""0.418"",""0.498"",""0.746""],[""0.103"",""0.182"",""0.630"",""0.792""]]","[1,10]","[100,1000]",Video game experience,,,0.7,0,,,,,,,,,,,,,,,,,,,,,,,,,,,,,,,,,,,,,,,,,,,,,,,,,,,,,,,,,,,,
,61073e6d38111b5924507b77,627c6fad59bfe5359f80482d,2022-05-11_21h25.08.559,classification_task,2021.2.3,Win32,59.90893841,627c6715c52fd12f31907bd0,,,,,Approximately how many hours did you spend playing video games in the last week?,,,0.7,0,3,,,,,,,,,,,,,,,,,,,,,,,,,,,,,,,,,,,,,,,,,,,,,,,,,,,,,,,,,,,
,61073e6d38111b5924507b77,627c6fad59bfe5359f80482d,2022-05-11_21h25.08.559,classification_task,2021.2.3,Win32,59.90893841,627c6715c52fd12f31907bd0,,,,,"Which game did you play the most this year? (Enter ""None"" if you didn't play any)",,,0.7,0,Mario kart,,,,,,,,,,,,,,,,,,,,,,,,,,,,,,,,,,,,,,,,,,,,,,,,,,,,,,,,,,,
,61073e6d38111b5924507b77,627c6fad59bfe5359f80482d,2022-05-11_21h25.08.559,classification_task,2021.2.3,Win32,59.90893841,627c6715c52fd12f31907bd0,,,,,Visual perception,,,0.7,0,,,,,,,,,,,,,,,,,,,,,,,,,,,,,,,,,,,,,,,,,,,,,,,,,,,,,,,,,,,,
,61073e6d38111b5924507b77,627c6fad59bfe5359f80482d,2022-05-11_21h25.08.559,classification_task,2021.2.3,Win32,59.90893841,627c6715c52fd12f31907bd0,,,,,Do you have any form of color blindness?,,,0.7,0,No,42.3379,,,,,,,,,,,,,,,,,,,,,,,,,,,,,,,,,,,,,,,,,,,,,,,,,,,,,,,,,,
,61073e6d38111b5924507b77,627c6fad59bfe5359f80482d,2022-05-11_21h25.08.559,classification_task,2021.2.3,Win32,59.90893841,627c6715c52fd12f31907bd0,,,,,Do you use software to change the colour temperature of your screen (e.g. f.lux)?,,,0.7,0,No,47.5075,,,,,,,,,,,,,,,,,,,,,,,,,,,,,,,,,,,,,,,,,,,,,,,,,,,,,,,,,,
,61073e6d38111b5924507b77,627c6fad59bfe5359f80482d,2022-05-11_21h25.08.559,classification_task,2021.2.3,Win32,59.90893841,627c6715c52fd12f31907bd0,,,,,,,,,,,,space,49.458,space,9.3907,0,0,0,0,1,,,,,,,,,,,,,,,,,,,,,,,,,,,,,,,,,,,,,,,,,,,,,,,,,
,61073e6d38111b5924507b77,627c6fad59bfe5359f80482d,2022-05-11_21h25.08.559,classification_task,2021.2.3,Win32,59.90893841,627c6715c52fd12f31907bd0,,,,,,,,,,,,,,space,21.8613,1,0,1,0,1,,,,,,,,,,,,,,,,,,,,,,,,,,,,,,,,,,,,,,,,,,,,,,,,,
,61073e6d38111b5924507b77,627c6fad59bfe5359f80482d,2022-05-11_21h25.08.559,classification_task,2021.2.3,Win32,59.90893841,627c6715c52fd12f31907bd0,,,,,,,,,,,,,,space,19.6716,2,0,2,0,1,,,,,,,,,,,,,,,,,,,,,,,,,,,,,,,,,,,,,,,,,,,,,,,,,
,61073e6d38111b5924507b77,627c6fad59bfe5359f80482d,2022-05-11_21h25.08.559,classification_task,2021.2.3,Win32,59.90893841,627c6715c52fd12f31907bd0,,,,,,,,,,,,,,space,45.604,3,0,3,0,1,,,,,,,,,,,,,,,,,,,,,,,,,,,,,,,,,,,,,,,,,,,,,,,,,
,61073e6d38111b5924507b77,627c6fad59bfe5359f80482d,2022-05-11_21h25.08.559,classification_task,2021.2.3,Win32,59.90893841,627c6715c52fd12f31907bd0,,,,,,,,,,,,,,space,48.7407,4,0,4,0,1,,,,,,,,,,,,,,,,,,,,,,,,,,,,,,,,,,,,,,,,,,,,,,,,,
,61073e6d38111b5924507b77,627c6fad59bfe5359f80482d,2022-05-11_21h25.08.559,classification_task,2021.2.3,Win32,59.90893841,627c6715c52fd12f31907bd0,,,,,,,,,,,,,,,,,,,,,space,16.8016,l,1,4.9409,"[""0.103"",""0.919"",""0.630"",""0.792""]","[1,0,1,1]",0,0,0,0,1,1,1,,,0,FALSE,,,,,,,,,,,,,,,,,,,,,,,,,,,,,,,
,61073e6d38111b5924507b77,627c6fad59bfe5359f80482d,2022-05-11_21h25.08.559,classification_task,2021.2.3,Win32,59.90893841,627c6715c52fd12f31907bd0,,,,,,,,,,,,,,,,,,,,,,,l,1,4.6144,"[""0.103"",""0.182"",""0.630"",""0.026""]","[1,1,1,0]",0,1,1,1,1,1,1,,,0,FALSE,,,,,,,,,,,,,,,,,,,,,,,,,,,,,,,
,61073e6d38111b5924507b77,627c6fad59bfe5359f80482d,2022-05-11_21h25.08.559,classification_task,2021.2.3,Win32,59.90893841,627c6715c52fd12f31907bd0,,,,,,,,,,,,,,,,,,,,,,,l,1,4.8614,"[""0.066"",""0.026"",""0.498"",""0.746""]","[1,0,1,1]",0,2,2,2,1,1,0,,,0,FALSE,,,,,,,,,,,,,,,,,,,,,,,,,,,,,,,
,61073e6d38111b5924507b77,627c6fad59bfe5359f80482d,2022-05-11_21h25.08.559,classification_task,2021.2.3,Win32,59.90893841,627c6715c52fd12f31907bd0,,,,,,,,,,,,,,,,,,,,,,,l,1,6.9936,"[""0.103"",""0.182"",""0.147"",""0.792""]","[1,1,0,1]",0,3,3,3,1,1,1,,,0,FALSE,,,,,,,,,,,,,,,,,,,,,,,,,,,,,,,
,61073e6d38111b5924507b77,627c6fad59bfe5359f80482d,2022-05-11_21h25.08.559,classification_task,2021.2.3,Win32,59.90893841,627c6715c52fd12f31907bd0,,,,,,,,,,,,,,,,,,,,,,,a,1,5.0462,"[""0.592"",""0.548"",""0.681"",""0.967""]","[0,1,1,1]",0,4,4,4,1,0,1,,,0,FALSE,,,,,,,,,,,,,,,,,,,,,,,,,,,,,,,
,61073e6d38111b5924507b77,627c6fad59bfe5359f80482d,2022-05-11_21h25.08.559,classification_task,2021.2.3,Win32,59.90893841,627c6715c52fd12f31907bd0,,,,,,,,,,,,,,,,,,,,,,,l,1,3.7419,"[""0.592"",""0.182"",""0.630"",""0.792""]","[0,1,1,1]",0,5,5,5,1,1,1,,,0,FALSE,,,,,,,,,,,,,,,,,,,,,,,,,,,,,,,
,61073e6d38111b5924507b77,627c6fad59bfe5359f80482d,2022-05-11_21h25.08.559,classification_task,2021.2.3,Win32,59.90893841,627c6715c52fd12f31907bd0,,,,,,,,,,,,,,,,,,,,,,,a,1,5.989,"[""0.322"",""0.548"",""0.141"",""0.967""]","[1,1,0,1]",0,6,6,6,1,0,1,,,0,FALSE,,,,,,,,,,,,,,,,,,,,,,,,,,,,,,,
,61073e6d38111b5924507b77,627c6fad59bfe5359f80482d,2022-05-11_21h25.08.559,classification_task,2021.2.3,Win32,59.90893841,627c6715c52fd12f31907bd0,,,,,,,,,,,,,,,,,,,,,,,l,1,3.1814,"[""0.066"",""0.418"",""0.919"",""0.746""]","[1,1,0,1]",0,7,7,7,1,1,0,,,0,FALSE,,,,,,,,,,,,,,,,,,,,,,,,,,,,,,,
,61073e6d38111b5924507b77,627c6fad59bfe5359f80482d,2022-05-11_21h25.08.559,classification_task,2021.2.3,Win32,59.90893841,627c6715c52fd12f31907bd0,,,,,,,,,,,,,,,,,,,,,,,a,1,2.8748,"[""0.322"",""0.281"",""0.681"",""0.967""]","[1,0,1,1]",0,8,8,8,1,0,1,,,0,FALSE,,,,,,,,,,,,,,,,,,,,,,,,,,,,,,,
,61073e6d38111b5924507b77,627c6fad59bfe5359f80482d,2022-05-11_21h25.08.559,classification_task,2021.2.3,Win32,59.90893841,627c6715c52fd12f31907bd0,,,,,,,,,,,,,,,,,,,,,,,a,1,3.5767,"[""0.237"",""0.356"",""0.829"",""0.908""]","[1,1,1,0]",0,9,9,9,1,0,0,,,0,FALSE,,,,,,,,,,,,,,,,,,,,,,,,,,,,,,,
,61073e6d38111b5924507b77,627c6fad59bfe5359f80482d,2022-05-11_21h25.08.559,classification_task,2021.2.3,Win32,59.90893841,627c6715c52fd12f31907bd0,,,,,,,,,,,,,,,,,,,,,,,a,0,3.0824,"[""0.066"",""0.418"",""0.498"",""0.593""]","[1,1,1,0]",0,10,10,10,1,1,0,,,0,FALSE,,,,,,,,,,,,,,,,,,,,,,,,,,,,,,,
,61073e6d38111b5924507b77,627c6fad59bfe5359f80482d,2022-05-11_21h25.08.559,classification_task,2021.2.3,Win32,59.90893841,627c6715c52fd12f31907bd0,,,,,,,,,,,,,,,,,,,,,,,a,1,3.7376,"[""0.237"",""0.356"",""0.592"",""0.871""]","[1,1,0,1]",0,11,11,11,1,0,0,,,0,FALSE,,,,,,,,,,,,,,,,,,,,,,,,,,,,,,,
,61073e6d38111b5924507b77,627c6fad59bfe5359f80482d,2022-05-11_21h25.08.559,classification_task,2021.2.3,Win32,59.90893841,627c6715c52fd12f31907bd0,,,,,,,,,,,,,,,,,,,,,,,a,1,3.4031,"[""0.277"",""0.356"",""0.829"",""0.871""]","[0,1,1,1]",0,12,12,12,1,0,0,,,0,FALSE,,,,,,,,,,,,,,,,,,,,,,,,,,,,,,,
,61073e6d38111b5924507b77,627c6fad59bfe5359f80482d,2022-05-11_21h25.08.559,classification_task,2021.2.3,Win32,59.90893841,627c6715c52fd12f31907bd0,,,,,,,,,,,,,,,,,,,,,,,a,1,2.8519,"[""0.322"",""0.548"",""0.681"",""0.595""]","[1,1,1,0]",0,13,13,13,1,0,1,,,0,FALSE,,,,,,,,,,,,,,,,,,,,,,,,,,,,,,,
,61073e6d38111b5924507b77,627c6fad59bfe5359f80482d,2022-05-11_21h25.08.559,classification_task,2021.2.3,Win32,59.90893841,627c6715c52fd12f31907bd0,,,,,,,,,,,,,,,,,,,,,,,a,1,2.7687,"[""0.237"",""0.284"",""0.829"",""0.871""]","[1,0,1,1]",0,14,14,14,1,0,0,,,0,FALSE,,,,,,,,,,,,,,,,,,,,,,,,,,,,,,,
,61073e6d38111b5924507b77,627c6fad59bfe5359f80482d,2022-05-11_21h25.08.559,classification_task,2021.2.3,Win32,59.90893841,627c6715c52fd12f31907bd0,,,,,,,,,,,,,,,,,,,,,,,a,0,1.8663,"[""0.277"",""0.418"",""0.498"",""0.746""]","[0,1,1,1]",0,15,15,15,1,1,0,,,0,FALSE,,,,,,,,,,,,,,,,,,,,,,,,,,,,,,,
,61073e6d38111b5924507b77,627c6fad59bfe5359f80482d,2022-05-11_21h25.08.559,classification_task,2021.2.3,Win32,59.90893841,627c6715c52fd12f31907bd0,,,,,,,,,,,,,,,,,,,,,,,l,1,3.1605,"[""0.103"",""0.182"",""0.630"",""0.595""]","[1,1,1,0]",0,16,16,16,1,1,1,,,0,FALSE,,,,,,,,,,,,,,,,,,,,,,,,,,,,,,,
,61073e6d38111b5924507b77,627c6fad59bfe5359f80482d,2022-05-11_21h25.08.559,classification_task,2021.2.3,Win32,59.90893841,627c6715c52fd12f31907bd0,,,,,,,,,,,,,,,,,,,,,,,l,1,4.3063,"[""0.592"",""0.418"",""0.498"",""0.746""]","[0,1,1,1]",0,17,17,17,1,1,0,,,0,FALSE,,,,,,,,,,,,,,,,,,,,,,,,,,,,,,,
,61073e6d38111b5924507b77,627c6fad59bfe5359f80482d,2022-05-11_21h25.08.559,classification_task,2021.2.3,Win32,59.90893841,627c6715c52fd12f31907bd0,,,,,,,,,,,,,,,,,,,,,,,a,1,8.1455,"[""0.595"",""0.548"",""0.681"",""0.967""]","[0,1,1,1]",0,18,18,18,1,0,1,,,0,FALSE,,,,,,,,,,,,,,,,,,,,,,,,,,,,,,,
,61073e6d38111b5924507b77,627c6fad59bfe5359f80482d,2022-05-11_21h25.08.559,classification_task,2021.2.3,Win32,59.90893841,627c6715c52fd12f31907bd0,,,,,,,,,,,,,,,,,,,,,,,l,1,3.316,"[""0.103"",""0.182"",""0.281"",""0.792""]","[1,1,0,1]",0,19,19,19,1,1,1,,,0,FALSE,,,,,,,,,,,,,,,,,,,,,,,,,,,,,,,
,61073e6d38111b5924507b77,627c6fad59bfe5359f80482d,2022-05-11_21h25.08.559,classification_task,2021.2.3,Win32,59.90893841,627c6715c52fd12f31907bd0,,,,,,,,,,,,,,,,,,,,,,,l,0,3.3879,"[""0.322"",""0.548"",""0.681"",""0.284""]","[1,1,1,0]",0,20,20,20,1,0,1,,,0,FALSE,,,,,,,,,,,,,,,,,,,,,,,,,,,,,,,
,61073e6d38111b5924507b77,627c6fad59bfe5359f80482d,2022-05-11_21h25.08.559,classification_task,2021.2.3,Win32,59.90893841,627c6715c52fd12f31907bd0,,,,,,,,,,,,,,,,,,,,,,,a,1,4.0846,"[""0.322"",""0.548"",""0.282"",""0.967""]","[1,1,0,1]",0,21,21,21,1,0,1,,,0,FALSE,,,,,,,,,,,,,,,,,,,,,,,,,,,,,,,
,61073e6d38111b5924507b77,627c6fad59bfe5359f80482d,2022-05-11_21h25.08.559,classification_task,2021.2.3,Win32,59.90893841,627c6715c52fd12f31907bd0,,,,,,,,,,,,,,,,,,,,,,,l,1,3.0902,"[""0.066"",""0.147"",""0.498"",""0.746""]","[1,0,1,1]",0,22,22,22,1,1,0,,,0,FALSE,,,,,,,,,,,,,,,,,,,,,,,,,,,,,,,
,61073e6d38111b5924507b77,627c6fad59bfe5359f80482d,2022-05-11_21h25.08.559,classification_task,2021.2.3,Win32,59.90893841,627c6715c52fd12f31907bd0,,,,,,,,,,,,,,,,,,,,,,,a,1,3.8979,"[""0.237"",""0.147"",""0.829"",""0.871""]","[1,0,1,1]",0,23,23,23,1,0,0,,,0,FALSE,,,,,,,,,,,,,,,,,,,,,,,,,,,,,,,
,61073e6d38111b5924507b77,627c6fad59bfe5359f80482d,2022-05-11_21h25.08.559,classification_task,2021.2.3,Win32,59.90893841,627c6715c52fd12f31907bd0,,,,,,,,,,,,,,,,,,,,,,,a,1,3.9472,"[""0.237"",""0.356"",""0.281"",""0.871""]","[1,1,0,1]",0,24,24,24,1,0,0,,,0,FALSE,,,,,,,,,,,,,,,,,,,,,,,,,,,,,,,
,61073e6d38111b5924507b77,627c6fad59bfe5359f80482d,2022-05-11_21h25.08.559,classification_task,2021.2.3,Win32,59.90893841,627c6715c52fd12f31907bd0,,,,,,,,,,,,,,,,,,,,,,,l,1,3.7824,"[""0.066"",""0.418"",""0.281"",""0.746""]","[1,1,0,1]",0,25,25,25,1,1,0,,,0,FALSE,,,,,,,,,,,,,,,,,,,,,,,,,,,,,,,
,61073e6d38111b5924507b77,627c6fad59bfe5359f80482d,2022-05-11_21h25.08.559,classification_task,2021.2.3,Win32,59.90893841,627c6715c52fd12f31907bd0,,,,,,,,,,,,,,,,,,,,,,,l,0,3.2289,"[""0.237"",""0.356"",""0.829"",""0.026""]","[1,1,1,0]",0,26,26,26,1,0,0,,,0,FALSE,,,,,,,,,,,,,,,,,,,,,,,,,,,,,,,
,61073e6d38111b5924507b77,627c6fad59bfe5359f80482d,2022-05-11_21h25.08.559,classification_task,2021.2.3,Win32,59.90893841,627c6715c52fd12f31907bd0,,,,,,,,,,,,,,,,,,,,,,,l,1,2.711,"[""0.066"",""0.418"",""0.498"",""0.026""]","[1,1,1,0]",0,27,27,27,1,1,0,,,0,FALSE,,,,,,,,,,,,,,,,,,,,,,,,,,,,,,,
,61073e6d38111b5924507b77,627c6fad59bfe5359f80482d,2022-05-11_21h25.08.559,classification_task,2021.2.3,Win32,59.90893841,627c6715c52fd12f31907bd0,,,,,,,,,,,,,,,,,,,,,,,a,1,4.3694,"[""0.322"",""0.908"",""0.681"",""0.967""]","[1,0,1,1]",0,28,28,28,1,0,1,,,0,FALSE,,,,,,,,,,,,,,,,,,,,,,,,,,,,,,,
,61073e6d38111b5924507b77,627c6fad59bfe5359f80482d,2022-05-11_21h25.08.559,classification_task,2021.2.3,Win32,59.90893841,627c6715c52fd12f31907bd0,,,,,,,,,,,,,,,,,,,,,,,a,0,5.6999,"[""0.919"",""0.182"",""0.630"",""0.792""]","[0,1,1,1]",0,29,29,29,1,1,1,,,0,FALSE,,,,,,,,,,,,,,,,,,,,,,,,,,,,,,,
,61073e6d38111b5924507b77,627c6fad59bfe5359f80482d,2022-05-11_21h25.08.559,classification_task,2021.2.3,Win32,59.90893841,627c6715c52fd12f31907bd0,,,,,,,,,,,,,,,,,,,,,,,a,1,6.625,"[""0.908"",""0.356"",""0.829"",""0.871""]","[0,1,1,1]",0,30,30,30,1,0,0,,,0,FALSE,,,,,,,,,,,,,,,,,,,,,,,,,,,,,,,
,61073e6d38111b5924507b77,627c6fad59bfe5359f80482d,2022-05-11_21h25.08.559,classification_task,2021.2.3,Win32,59.90893841,627c6715c52fd12f31907bd0,,,,,,,,,,,,,,,,,,,,,,,l,1,4.6994,"[""0.103"",""0.908"",""0.630"",""0.792""]","[1,0,1,1]",0,31,31,31,1,1,1,,,0,FALSE,,,,,,,,,,,,,,,,,,,,,,,,,,,,,,,
,61073e6d38111b5924507b77,627c6fad59bfe5359f80482d,2022-05-11_21h25.08.559,classification_task,2021.2.3,Win32,59.90893841,627c6715c52fd12f31907bd0,,,,,,,,,,,,,,,,,,,,,,,l,0,5.0504,"[""0.916"",""0.356"",""0.829"",""0.871""]","[0,1,1,1]",0,32,32,32,1,0,0,,,0,FALSE,,,,,,,,,,,,,,,,,,,,,,,,,,,,,,,
,61073e6d38111b5924507b77,627c6fad59bfe5359f80482d,2022-05-11_21h25.08.559,classification_task,2021.2.3,Win32,59.90893841,627c6715c52fd12f31907bd0,,,,,,,,,,,,,,,,,,,,,,,a,0,2.2496,"[""0.103"",""0.916"",""0.630"",""0.792""]","[1,0,1,1]",0,33,33,33,1,1,1,,,0,FALSE,,,,,,,,,,,,,,,,,,,,,,,,,,,,,,,
,61073e6d38111b5924507b77,627c6fad59bfe5359f80482d,2022-05-11_21h25.08.559,classification_task,2021.2.3,Win32,59.90893841,627c6715c52fd12f31907bd0,,,,,,,,,,,,,,,,,,,,,,,l,0,4.3833,"[""0.322"",""0.548"",""0.281"",""0.967""]","[1,1,0,1]",0,34,34,34,1,0,1,,,0,FALSE,,,,,,,,,,,,,,,,,,,,,,,,,,,,,,,
,61073e6d38111b5924507b77,627c6fad59bfe5359f80482d,2022-05-11_21h25.08.559,classification_task,2021.2.3,Win32,59.90893841,627c6715c52fd12f31907bd0,,,,,,,,,,,,,,,,,,,,,,,a,0,3.9551,"[""0.066"",""0.281"",""0.498"",""0.746""]","[1,0,1,1]",0,35,35,35,1,1,0,,,0,FALSE,,,,,,,,,,,,,,,,,,,,,,,,,,,,,,,
,61073e6d38111b5924507b77,627c6fad59bfe5359f80482d,2022-05-11_21h25.08.559,classification_task,2021.2.3,Win32,59.90893841,627c6715c52fd12f31907bd0,,,,,,,,,,,,,,,,,,,,,,,a,1,1.8433,"[""0.237"",""0.356"",""0.147"",""0.871""]","[1,1,0,1]",0,36,36,36,1,0,0,,,0,FALSE,,,,,,,,,,,,,,,,,,,,,,,,,,,,,,,
,61073e6d38111b5924507b77,627c6fad59bfe5359f80482d,2022-05-11_21h25.08.559,classification_task,2021.2.3,Win32,59.90893841,627c6715c52fd12f31907bd0,,,,,,,,,,,,,,,,,,,,,,,a,1,1.5953,"[""0.237"",""0.592"",""0.829"",""0.871""]","[1,0,1,1]",0,37,37,37,1,0,0,,,0,FALSE,,,,,,,,,,,,,,,,,,,,,,,,,,,,,,,
,61073e6d38111b5924507b77,627c6fad59bfe5359f80482d,2022-05-11_21h25.08.559,classification_task,2021.2.3,Win32,59.90893841,627c6715c52fd12f31907bd0,,,,,,,,,,,,,,,,,,,,,,,a,0,2.3264,"[""0.103"",""0.182"",""0.630"",""0.141""]","[1,1,1,0]",0,38,38,38,1,1,1,,,0,FALSE,,,,,,,,,,,,,,,,,,,,,,,,,,,,,,,
,61073e6d38111b5924507b77,627c6fad59bfe5359f80482d,2022-05-11_21h25.08.559,classification_task,2021.2.3,Win32,59.90893841,627c6715c52fd12f31907bd0,,,,,,,,,,,,,,,,,,,,,,,a,0,2.4645,"[""0.066"",""0.418"",""0.919"",""0.746""]","[1,1,0,1]",0,39,39,39,1,1,0,,,0,FALSE,,,,,,,,,,,,,,,,,,,,,,,,,,,,,,,
,61073e6d38111b5924507b77,627c6fad59bfe5359f80482d,2022-05-11_21h25.08.559,classification_task,2021.2.3,Win32,59.90893841,627c6715c52fd12f31907bd0,,,,,,,,,,,,,,,,,,,,,,,a,0,1.9433,"[""0.103"",""0.182"",""0.908"",""0.792""]","[1,1,0,1]",0,40,40,40,1,1,1,,,0,FALSE,,,,,,,,,,,,,,,,,,,,,,,,,,,,,,,
,61073e6d38111b5924507b77,627c6fad59bfe5359f80482d,2022-05-11_21h25.08.559,classification_task,2021.2.3,Win32,59.90893841,627c6715c52fd12f31907bd0,,,,,,,,,,,,,,,,,,,,,,,l,1,1.3512,"[""0.277"",""0.182"",""0.630"",""0.792""]","[0,1,1,1]",0,41,41,41,1,1,1,,,0,FALSE,,,,,,,,,,,,,,,,,,,,,,,,,,,,,,,
,61073e6d38111b5924507b77,627c6fad59bfe5359f80482d,2022-05-11_21h25.08.559,classification_task,2021.2.3,Win32,59.90893841,627c6715c52fd12f31907bd0,,,,,,,,,,,,,,,,,,,,,,,a,1,1.3414,"[""0.277"",""0.548"",""0.681"",""0.967""]","[0,1,1,1]",0,42,42,42,1,0,1,,,0,FALSE,,,,,,,,,,,,,,,,,,,,,,,,,,,,,,,
,61073e6d38111b5924507b77,627c6fad59bfe5359f80482d,2022-05-11_21h25.08.559,classification_task,2021.2.3,Win32,59.90893841,627c6715c52fd12f31907bd0,,,,,,,,,,,,,,,,,,,,,,,a,1,1.2231,"[""0.237"",""0.356"",""0.829"",""0.141""]","[1,1,1,0]",0,43,43,43,1,0,0,,,0,FALSE,,,,,,,,,,,,,,,,,,,,,,,,,,,,,,,
,61073e6d38111b5924507b77,627c6fad59bfe5359f80482d,2022-05-11_21h25.08.559,classification_task,2021.2.3,Win32,59.90893841,627c6715c52fd12f31907bd0,,,,,,,,,,,,,,,,,,,,,,,a,1,1.7155,"[""0.322"",""0.281"",""0.681"",""0.967""]","[1,0,1,1]",0,44,44,44,1,0,1,,,0,FALSE,,,,,,,,,,,,,,,,,,,,,,,,,,,,,,,
,61073e6d38111b5924507b77,627c6fad59bfe5359f80482d,2022-05-11_21h25.08.559,classification_task,2021.2.3,Win32,59.90893841,627c6715c52fd12f31907bd0,,,,,,,,,,,,,,,,,,,,,,,l,1,1.2246,"[""0.595"",""0.418"",""0.498"",""0.746""]","[0,1,1,1]",0,45,45,45,1,1,0,,,0,FALSE,,,,,,,,,,,,,,,,,,,,,,,,,,,,,,,
,61073e6d38111b5924507b77,627c6fad59bfe5359f80482d,2022-05-11_21h25.08.559,classification_task,2021.2.3,Win32,59.90893841,627c6715c52fd12f31907bd0,,,,,,,,,,,,,,,,,,,,,,,a,0,2.6396,"[""0.066"",""0.418"",""0.498"",""0.284""]","[1,1,1,0]",0,46,46,46,1,1,0,,,0,FALSE,,,,,,,,,,,,,,,,,,,,,,,,,,,,,,,
,61073e6d38111b5924507b77,627c6fad59bfe5359f80482d,2022-05-11_21h25.08.559,classification_task,2021.2.3,Win32,59.90893841,627c6715c52fd12f31907bd0,,,,,,,,,,,,,,,,,,,,,,,a,1,1.588,"[""0.322"",""0.548"",""0.681"",""0.919""]","[1,1,1,0]",0,47,47,47,1,0,1,,,0,FALSE,,,,,,,,,,,,,,,,,,,,,,,,,,,,,,,
,61073e6d38111b5924507b77,627c6fad59bfe5359f80482d,2022-05-11_21h25.08.559,classification_task,2021.2.3,Win32,59.90893841,627c6715c52fd12f31907bd0,,,,,,,,,,,,,,,,,,,,,,,l,1,1.5098,"[""0.103"",""0.182"",""0.630"",""0.137""]","[1,1,1,0]",0,48,48,48,1,1,1,,,0,FALSE,,,,,,,,,,,,,,,,,,,,,,,,,,,,,,,
,61073e6d38111b5924507b77,627c6fad59bfe5359f80482d,2022-05-11_21h25.08.559,classification_task,2021.2.3,Win32,59.90893841,627c6715c52fd12f31907bd0,,,,,,,,,,,,,,,,,,,,,,,l,0,1.7279,"[""0.237"",""0.356"",""0.595"",""0.871""]","[1,1,0,1]",0,49,49,49,1,0,0,,,0,FALSE,,,,,,,,,,,,,,,,,,,,,,,,,,,,,,,
,61073e6d38111b5924507b77,627c6fad59bfe5359f80482d,2022-05-11_21h25.08.559,classification_task,2021.2.3,Win32,59.90893841,627c6715c52fd12f31907bd0,,,,,,,,,,,,,,,,,,,,,,,l,1,1.217,"[""0.066"",""0.595"",""0.498"",""0.746""]","[1,0,1,1]",0,50,50,50,1,1,0,,,0,FALSE,,,,,,,,,,,,,,,,,,,,,,,,,,,,,,,
,61073e6d38111b5924507b77,627c6fad59bfe5359f80482d,2022-05-11_21h25.08.559,classification_task,2021.2.3,Win32,59.90893841,627c6715c52fd12f31907bd0,,,,,,,,,,,,,,,,,,,,,,,l,1,1.4783,"[""0.066"",""0.418"",""0.498"",""0.595""]","[1,1,1,0]",0,51,51,51,1,1,0,,,0,FALSE,,,,,,,,,,,,,,,,,,,,,,,,,,,,,,,
,61073e6d38111b5924507b77,627c6fad59bfe5359f80482d,2022-05-11_21h25.08.559,classification_task,2021.2.3,Win32,59.90893841,627c6715c52fd12f31907bd0,,,,,,,,,,,,,,,,,,,,,,,a,0,1.4464,"[""0.284"",""0.182"",""0.630"",""0.792""]","[0,1,1,1]",0,52,52,52,1,1,1,,,0,FALSE,,,,,,,,,,,,,,,,,,,,,,,,,,,,,,,
,61073e6d38111b5924507b77,627c6fad59bfe5359f80482d,2022-05-11_21h25.08.559,classification_task,2021.2.3,Win32,59.90893841,627c6715c52fd12f31907bd0,,,,,,,,,,,,,,,,,,,,,,,l,0,1.6235,"[""0.593"",""0.356"",""0.829"",""0.871""]","[0,1,1,1]",0,53,53,53,1,0,0,,,0,FALSE,,,,,,,,,,,,,,,,,,,,,,,,,,,,,,,
,61073e6d38111b5924507b77,627c6fad59bfe5359f80482d,2022-05-11_21h25.08.559,classification_task,2021.2.3,Win32,59.90893841,627c6715c52fd12f31907bd0,,,,,,,,,,,,,,,,,,,,,,,l,0,1.2374,"[""0.322"",""0.548"",""0.681"",""0.137""]","[1,1,1,0]",0,54,54,54,1,0,1,,,0,FALSE,,,,,,,,,,,,,,,,,,,,,,,,,,,,,,,
,61073e6d38111b5924507b77,627c6fad59bfe5359f80482d,2022-05-11_21h25.08.559,classification_task,2021.2.3,Win32,59.90893841,627c6715c52fd12f31907bd0,,,,,,,,,,,,,,,,,,,,,,,l,1,1.223,"[""0.103"",""0.137"",""0.630"",""0.792""]","[1,0,1,1]",0,55,55,55,1,1,1,,,0,FALSE,,,,,,,,,,,,,,,,,,,,,,,,,,,,,,,
,61073e6d38111b5924507b77,627c6fad59bfe5359f80482d,2022-05-11_21h25.08.559,classification_task,2021.2.3,Win32,59.90893841,627c6715c52fd12f31907bd0,,,,,,,,,,,,,,,,,,,,,,,l,0,1.7762,"[""0.237"",""0.592"",""0.829"",""0.871""]","[1,0,1,1]",0,56,56,56,1,0,0,,,0,FALSE,,,,,,,,,,,,,,,,,,,,,,,,,,,,,,,
,61073e6d38111b5924507b77,627c6fad59bfe5359f80482d,2022-05-11_21h25.08.559,classification_task,2021.2.3,Win32,59.90893841,627c6715c52fd12f31907bd0,,,,,,,,,,,,,,,,,,,,,,,a,0,1.3649,"[""0.066"",""0.418"",""0.281"",""0.746""]","[1,1,0,1]",0,57,57,57,1,1,0,,,0,FALSE,,,,,,,,,,,,,,,,,,,,,,,,,,,,,,,
,61073e6d38111b5924507b77,627c6fad59bfe5359f80482d,2022-05-11_21h25.08.559,classification_task,2021.2.3,Win32,59.90893841,627c6715c52fd12f31907bd0,,,,,,,,,,,,,,,,,,,,,,,a,1,0.9747,"[""0.322"",""0.548"",""0.141"",""0.967""]","[1,1,0,1]",0,58,58,58,1,0,1,,,0,FALSE,,,,,,,,,,,,,,,,,,,,,,,,,,,,,,,
,61073e6d38111b5924507b77,627c6fad59bfe5359f80482d,2022-05-11_21h25.08.559,classification_task,2021.2.3,Win32,59.90893841,627c6715c52fd12f31907bd0,,,,,,,,,,,,,,,,,,,,,,,a,1,1.6097,"[""0.322"",""0.147"",""0.681"",""0.967""]","[1,0,1,1]",0,59,59,59,1,0,1,,,0,FALSE,,,,,,,,,,,,,,,,,,,,,,,,,,,,,,,
,61073e6d38111b5924507b77,627c6fad59bfe5359f80482d,2022-05-11_21h25.08.559,classification_task,2021.2.3,Win32,59.90893841,627c6715c52fd12f31907bd0,,,,,,,,,,,,,,,,,,,,,,,l,0,2.2289,"[""0.592"",""0.548"",""0.681"",""0.967""]","[0,1,1,1]",0,60,60,60,1,0,1,,,0,FALSE,,,,,,,,,,,,,,,,,,,,,,,,,,,,,,,
,61073e6d38111b5924507b77,627c6fad59bfe5359f80482d,2022-05-11_21h25.08.559,classification_task,2021.2.3,Win32,59.90893841,627c6715c52fd12f31907bd0,,,,,,,,,,,,,,,,,,,,,,,a,0,1.5207,"[""0.281"",""0.418"",""0.498"",""0.746""]","[0,1,1,1]",0,61,61,61,1,1,0,,,0,FALSE,,,,,,,,,,,,,,,,,,,,,,,,,,,,,,,
,61073e6d38111b5924507b77,627c6fad59bfe5359f80482d,2022-05-11_21h25.08.559,classification_task,2021.2.3,Win32,59.90893841,627c6715c52fd12f31907bd0,,,,,,,,,,,,,,,,,,,,,,,l,1,1.9641,"[""0.103"",""0.182"",""0.026"",""0.792""]","[1,1,0,1]",0,62,62,62,1,1,1,,,0,FALSE,,,,,,,,,,,,,,,,,,,,,,,,,,,,,,,
,61073e6d38111b5924507b77,627c6fad59bfe5359f80482d,2022-05-11_21h25.08.559,classification_task,2021.2.3,Win32,59.90893841,627c6715c52fd12f31907bd0,,,,,,,,,,,,,,,,,,,,,,,a,1,1.1235,"[""0.237"",""0.356"",""0.829"",""0.595""]","[1,1,1,0]",0,63,63,63,1,0,0,,,0,FALSE,,,,,,,,,,,,,,,,,,,,,,,,,,,,,,,
,61073e6d38111b5924507b77,627c6fad59bfe5359f80482d,2022-05-11_21h25.08.559,classification_task,2021.2.3,Win32,59.90893841,627c6715c52fd12f31907bd0,,,,,,,,,,,,,,,,,,,,,,,,,,,,,,,,,,,,,,,0, ,,0,10,558.7219,0,0,0,0,1,2,1,,,,,,,,,,,,,,,,,,
,61073e6d38111b5924507b77,627c6fad59bfe5359f80482d,2022-05-11_21h25.08.559,classification_task,2021.2.3,Win32,59.90893841,627c6715c52fd12f31907bd0,,,,,,,,,,,,,,,,,,,,,,,,,,,,,,,,,,,,,,,1,  ,,0,8.961364638,564.0737,0,0,0,0,1,2,1,,,,,,,,,,,,,,,,,,
,61073e6d38111b5924507b77,627c6fad59bfe5359f80482d,2022-05-11_21h25.08.559,classification_task,2021.2.3,Win32,59.90893841,627c6715c52fd12f31907bd0,,,,,,,,,,,,,,,,,,,,,,,,,,,,,,,,,,,,,,,2,  ,,0,5.034446649,571.8143,0,0,0,0,1,2,1,,,,,,,,,,,,,,,,,,
,61073e6d38111b5924507b77,627c6fad59bfe5359f80482d,2022-05-11_21h25.08.559,classification_task,2021.2.3,Win32,59.90893841,627c6715c52fd12f31907bd0,,,,,,,,,,,,,,,,,,,,,,,,,,,,,,,,,,,,,,,,,,,,,0,0,0,0,1,,1,,,,,,,,,,,,,,,,,,
,61073e6d38111b5924507b77,627c6fad59bfe5359f80482d,2022-05-11_21h25.08.559,classification_task,2021.2.3,Win32,59.90893841,627c6715c52fd12f31907bd0,,,,,,,,,,,,,,,,,,,,,space,27.8105,a,1,3.5951,"[""0.322"",""0.277"",""0.681"",""0.967""]","[1,0,1,1]",0,0,0,0,1,0,1,,,0,FALSE,,,,,,,,,,,,,,,,,,,,,,,,,,,,,,,
,61073e6d38111b5924507b77,627c6fad59bfe5359f80482d,2022-05-11_21h25.08.559,classification_task,2021.2.3,Win32,59.90893841,627c6715c52fd12f31907bd0,,,,,,,,,,,,,,,,,,,,,,,a,1,2.9165,"[""0.322"",""0.548"",""0.277"",""0.967""]","[1,1,0,1]",0,1,1,1,1,0,1,,,0,FALSE,,,,,,,,,,,,,,,,,,,,,,,,,,,,,,,
,61073e6d38111b5924507b77,627c6fad59bfe5359f80482d,2022-05-11_21h25.08.559,classification_task,2021.2.3,Win32,59.90893841,627c6715c52fd12f31907bd0,,,,,,,,,,,,,,,,,,,,,,,a,1,1.88,"[""0.237"",""0.356"",""0.829"",""0.147""]","[1,1,1,0]",0,2,2,2,1,0,0,,,0,FALSE,,,,,,,,,,,,,,,,,,,,,,,,,,,,,,,
,61073e6d38111b5924507b77,627c6fad59bfe5359f80482d,2022-05-11_21h25.08.559,classification_task,2021.2.3,Win32,59.90893841,627c6715c52fd12f31907bd0,,,,,,,,,,,,,,,,,,,,,,,a,0,1.394,"[""0.595"",""0.182"",""0.630"",""0.792""]","[0,1,1,1]",0,3,3,3,1,1,1,,,0,FALSE,,,,,,,,,,,,,,,,,,,,,,,,,,,,,,,
,61073e6d38111b5924507b77,627c6fad59bfe5359f80482d,2022-05-11_21h25.08.559,classification_task,2021.2.3,Win32,59.90893841,627c6715c52fd12f31907bd0,,,,,,,,,,,,,,,,,,,,,,,a,1,0.7566,"[""0.237"",""0.356"",""0.595"",""0.871""]","[1,1,0,1]",0,4,4,4,1,0,0,,,0,FALSE,,,,,,,,,,,,,,,,,,,,,,,,,,,,,,,
,61073e6d38111b5924507b77,627c6fad59bfe5359f80482d,2022-05-11_21h25.08.559,classification_task,2021.2.3,Win32,59.90893841,627c6715c52fd12f31907bd0,,,,,,,,,,,,,,,,,,,,,,,l,1,0.7583,"[""0.066"",""0.137"",""0.498"",""0.746""]","[1,0,1,1]",0,5,5,5,1,1,0,,,0,FALSE,,,,,,,,,,,,,,,,,,,,,,,,,,,,,,,
,61073e6d38111b5924507b77,627c6fad59bfe5359f80482d,2022-05-11_21h25.08.559,classification_task,2021.2.3,Win32,59.90893841,627c6715c52fd12f31907bd0,,,,,,,,,,,,,,,,,,,,,,,l,1,0.6398,"[""0.066"",""0.418"",""0.498"",""0.595""]","[1,1,1,0]",0,6,6,6,1,1,0,,,0,FALSE,,,,,,,,,,,,,,,,,,,,,,,,,,,,,,,
,61073e6d38111b5924507b77,627c6fad59bfe5359f80482d,2022-05-11_21h25.08.559,classification_task,2021.2.3,Win32,59.90893841,627c6715c52fd12f31907bd0,,,,,,,,,,,,,,,,,,,,,,,l,1,0.6291,"[""0.066"",""0.418"",""0.595"",""0.746""]","[1,1,0,1]",0,7,7,7,1,1,0,,,0,FALSE,,,,,,,,,,,,,,,,,,,,,,,,,,,,,,,
,61073e6d38111b5924507b77,627c6fad59bfe5359f80482d,2022-05-11_21h25.08.559,classification_task,2021.2.3,Win32,59.90893841,627c6715c52fd12f31907bd0,,,,,,,,,,,,,,,,,,,,,,,a,1,0.7563,"[""0.919"",""0.356"",""0.829"",""0.871""]","[0,1,1,1]",0,8,8,8,1,0,0,,,0,FALSE,,,,,,,,,,,,,,,,,,,,,,,,,,,,,,,
,61073e6d38111b5924507b77,627c6fad59bfe5359f80482d,2022-05-11_21h25.08.559,classification_task,2021.2.3,Win32,59.90893841,627c6715c52fd12f31907bd0,,,,,,,,,,,,,,,,,,,,,,,a,0,1.2626,"[""0.103"",""0.182"",""0.026"",""0.792""]","[1,1,0,1]",0,9,9,9,1,1,1,,,0,FALSE,,,,,,,,,,,,,,,,,,,,,,,,,,,,,,,
,61073e6d38111b5924507b77,627c6fad59bfe5359f80482d,2022-05-11_21h25.08.559,classification_task,2021.2.3,Win32,59.90893841,627c6715c52fd12f31907bd0,,,,,,,,,,,,,,,,,,,,,,,a,1,1.0261,"[""0.141"",""0.548"",""0.681"",""0.967""]","[0,1,1,1]",0,10,10,10,1,0,1,,,0,FALSE,,,,,,,,,,,,,,,,,,,,,,,,,,,,,,,
,61073e6d38111b5924507b77,627c6fad59bfe5359f80482d,2022-05-11_21h25.08.559,classification_task,2021.2.3,Win32,59.90893841,627c6715c52fd12f31907bd0,,,,,,,,,,,,,,,,,,,,,,,l,0,1.1308,"[""0.237"",""0.281"",""0.829"",""0.871""]","[1,0,1,1]",0,11,11,11,1,0,0,,,0,FALSE,,,,,,,,,,,,,,,,,,,,,,,,,,,,,,,
,61073e6d38111b5924507b77,627c6fad59bfe5359f80482d,2022-05-11_21h25.08.559,classification_task,2021.2.3,Win32,59.90893841,627c6715c52fd12f31907bd0,,,,,,,,,,,,,,,,,,,,,,,l,1,2.2966,"[""0.103"",""0.182"",""0.630"",""0.147""]","[1,1,1,0]",0,12,12,12,1,1,1,,,0,FALSE,,,,,,,,,,,,,,,,,,,,,,,,,,,,,,,
,61073e6d38111b5924507b77,627c6fad59bfe5359f80482d,2022-05-11_21h25.08.559,classification_task,2021.2.3,Win32,59.90893841,627c6715c52fd12f31907bd0,,,,,,,,,,,,,,,,,,,,,,,a,0,1.3794,"[""0.103"",""0.593"",""0.630"",""0.792""]","[1,0,1,1]",0,13,13,13,1,1,1,,,0,FALSE,,,,,,,,,,,,,,,,,,,,,,,,,,,,,,,
,61073e6d38111b5924507b77,627c6fad59bfe5359f80482d,2022-05-11_21h25.08.559,classification_task,2021.2.3,Win32,59.90893841,627c6715c52fd12f31907bd0,,,,,,,,,,,,,,,,,,,,,,,l,1,1.0144,"[""0.141"",""0.418"",""0.498"",""0.746""]","[0,1,1,1]",0,14,14,14,1,1,0,,,0,FALSE,,,,,,,,,,,,,,,,,,,,,,,,,,,,,,,
,61073e6d38111b5924507b77,627c6fad59bfe5359f80482d,2022-05-11_21h25.08.559,classification_task,2021.2.3,Win32,59.90893841,627c6715c52fd12f31907bd0,,,,,,,,,,,,,,,,,,,,,,,l,0,1.3816,"[""0.322"",""0.548"",""0.681"",""0.282""]","[1,1,1,0]",0,15,15,15,1,0,1,,,0,FALSE,,,,,,,,,,,,,,,,,,,,,,,,,,,,,,,
,61073e6d38111b5924507b77,627c6fad59bfe5359f80482d,2022-05-11_21h25.08.559,classification_task,2021.2.3,Win32,59.90893841,627c6715c52fd12f31907bd0,,,,,,,,,,,,,,,,,,,,,,,a,1,1.1332,"[""0.322"",""0.595"",""0.681"",""0.967""]","[1,0,1,1]",0,16,16,16,1,0,1,,,0,FALSE,,,,,,,,,,,,,,,,,,,,,,,,,,,,,,,
,61073e6d38111b5924507b77,627c6fad59bfe5359f80482d,2022-05-11_21h25.08.559,classification_task,2021.2.3,Win32,59.90893841,627c6715c52fd12f31907bd0,,,,,,,,,,,,,,,,,,,,,,,a,1,0.8779,"[""0.237"",""0.356"",""0.141"",""0.871""]","[1,1,0,1]",0,17,17,17,1,0,0,,,0,FALSE,,,,,,,,,,,,,,,,,,,,,,,,,,,,,,,
,61073e6d38111b5924507b77,627c6fad59bfe5359f80482d,2022-05-11_21h25.08.559,classification_task,2021.2.3,Win32,59.90893841,627c6715c52fd12f31907bd0,,,,,,,,,,,,,,,,,,,,,,,l,0,1.125,"[""0.322"",""0.548"",""0.284"",""0.967""]","[1,1,0,1]",0,18,18,18,1,0,1,,,0,FALSE,,,,,,,,,,,,,,,,,,,,,,,,,,,,,,,
,61073e6d38111b5924507b77,627c6fad59bfe5359f80482d,2022-05-11_21h25.08.559,classification_task,2021.2.3,Win32,59.90893841,627c6715c52fd12f31907bd0,,,,,,,,,,,,,,,,,,,,,,,l,1,1.1589,"[""0.066"",""0.277"",""0.498"",""0.746""]","[1,0,1,1]",0,19,19,19,1,1,0,,,0,FALSE,,,,,,,,,,,,,,,,,,,,,,,,,,,,,,,
,61073e6d38111b5924507b77,627c6fad59bfe5359f80482d,2022-05-11_21h25.08.559,classification_task,2021.2.3,Win32,59.90893841,627c6715c52fd12f31907bd0,,,,,,,,,,,,,,,,,,,,,,,l,1,1.3068,"[""0.066"",""0.418"",""0.498"",""0.908""]","[1,1,1,0]",0,20,20,20,1,1,0,,,0,FALSE,,,,,,,,,,,,,,,,,,,,,,,,,,,,,,,
,61073e6d38111b5924507b77,627c6fad59bfe5359f80482d,2022-05-11_21h25.08.559,classification_task,2021.2.3,Win32,59.90893841,627c6715c52fd12f31907bd0,,,,,,,,,,,,,,,,,,,,,,,a,0,0.8813,"[""0.595"",""0.182"",""0.630"",""0.792""]","[0,1,1,1]",0,21,21,21,1,1,1,,,0,FALSE,,,,,,,,,,,,,,,,,,,,,,,,,,,,,,,
,61073e6d38111b5924507b77,627c6fad59bfe5359f80482d,2022-05-11_21h25.08.559,classification_task,2021.2.3,Win32,59.90893841,627c6715c52fd12f31907bd0,,,,,,,,,,,,,,,,,,,,,,,a,1,0.8801,"[""0.322"",""0.548"",""0.681"",""0.282""]","[1,1,1,0]",0,22,22,22,1,0,1,,,0,FALSE,,,,,,,,,,,,,,,,,,,,,,,,,,,,,,,
,61073e6d38111b5924507b77,627c6fad59bfe5359f80482d,2022-05-11_21h25.08.559,classification_task,2021.2.3,Win32,59.90893841,627c6715c52fd12f31907bd0,,,,,,,,,,,,,,,,,,,,,,,a,1,1.6447,"[""0.595"",""0.548"",""0.681"",""0.967""]","[0,1,1,1]",0,23,23,23,1,0,1,,,0,FALSE,,,,,,,,,,,,,,,,,,,,,,,,,,,,,,,
,61073e6d38111b5924507b77,627c6fad59bfe5359f80482d,2022-05-11_21h25.08.559,classification_task,2021.2.3,Win32,59.90893841,627c6715c52fd12f31907bd0,,,,,,,,,,,,,,,,,,,,,,,a,0,1.6358,"[""0.103"",""0.182"",""0.284"",""0.792""]","[1,1,0,1]",0,24,24,24,1,1,1,,,0,FALSE,,,,,,,,,,,,,,,,,,,,,,,,,,,,,,,
,61073e6d38111b5924507b77,627c6fad59bfe5359f80482d,2022-05-11_21h25.08.559,classification_task,2021.2.3,Win32,59.90893841,627c6715c52fd12f31907bd0,,,,,,,,,,,,,,,,,,,,,,,l,1,1.137,"[""0.103"",""0.182"",""0.630"",""0.281""]","[1,1,1,0]",0,25,25,25,1,1,1,,,0,FALSE,,,,,,,,,,,,,,,,,,,,,,,,,,,,,,,
,61073e6d38111b5924507b77,627c6fad59bfe5359f80482d,2022-05-11_21h25.08.559,classification_task,2021.2.3,Win32,59.90893841,627c6715c52fd12f31907bd0,,,,,,,,,,,,,,,,,,,,,,,l,1,1.0133,"[""0.026"",""0.418"",""0.498"",""0.746""]","[0,1,1,1]",0,26,26,26,1,1,0,,,0,FALSE,,,,,,,,,,,,,,,,,,,,,,,,,,,,,,,
,61073e6d38111b5924507b77,627c6fad59bfe5359f80482d,2022-05-11_21h25.08.559,classification_task,2021.2.3,Win32,59.90893841,627c6715c52fd12f31907bd0,,,,,,,,,,,,,,,,,,,,,,,l,1,0.8897,"[""0.066"",""0.418"",""0.919"",""0.746""]","[1,1,0,1]",0,27,27,27,1,1,0,,,0,FALSE,,,,,,,,,,,,,,,,,,,,,,,,,,,,,,,
,61073e6d38111b5924507b77,627c6fad59bfe5359f80482d,2022-05-11_21h25.08.559,classification_task,2021.2.3,Win32,59.90893841,627c6715c52fd12f31907bd0,,,,,,,,,,,,,,,,,,,,,,,a,1,0.6385,"[""0.237"",""0.356"",""0.829"",""0.026""]","[1,1,1,0]",0,28,28,28,1,0,0,,,0,FALSE,,,,,,,,,,,,,,,,,,,,,,,,,,,,,,,
,61073e6d38111b5924507b77,627c6fad59bfe5359f80482d,2022-05-11_21h25.08.559,classification_task,2021.2.3,Win32,59.90893841,627c6715c52fd12f31907bd0,,,,,,,,,,,,,,,,,,,,,,,a,0,1.6515,"[""0.103"",""0.593"",""0.630"",""0.792""]","[1,0,1,1]",0,29,29,29,1,1,1,,,0,FALSE,,,,,,,,,,,,,,,,,,,,,,,,,,,,,,,
,61073e6d38111b5924507b77,627c6fad59bfe5359f80482d,2022-05-11_21h25.08.559,classification_task,2021.2.3,Win32,59.90893841,627c6715c52fd12f31907bd0,,,,,,,,,,,,,,,,,,,,,,,a,1,1.1277,"[""0.908"",""0.356"",""0.829"",""0.871""]","[0,1,1,1]",0,30,30,30,1,0,0,,,0,FALSE,,,,,,,,,,,,,,,,,,,,,,,,,,,,,,,
,61073e6d38111b5924507b77,627c6fad59bfe5359f80482d,2022-05-11_21h25.08.559,classification_task,2021.2.3,Win32,59.90893841,627c6715c52fd12f31907bd0,,,,,,,,,,,,,,,,,,,,,,,a,1,0.6289,"[""0.237"",""0.282"",""0.829"",""0.871""]","[1,0,1,1]",0,31,31,31,1,0,0,,,0,FALSE,,,,,,,,,,,,,,,,,,,,,,,,,,,,,,,
,61073e6d38111b5924507b77,627c6fad59bfe5359f80482d,2022-05-11_21h25.08.559,classification_task,2021.2.3,Win32,59.90893841,627c6715c52fd12f31907bd0,,,,,,,,,,,,,,,,,,,,,,,a,1,0.7608,"[""0.237"",""0.593"",""0.829"",""0.871""]","[1,0,1,1]",0,32,32,32,1,0,0,,,0,FALSE,,,,,,,,,,,,,,,,,,,,,,,,,,,,,,,
,61073e6d38111b5924507b77,627c6fad59bfe5359f80482d,2022-05-11_21h25.08.559,classification_task,2021.2.3,Win32,59.90893841,627c6715c52fd12f31907bd0,,,,,,,,,,,,,,,,,,,,,,,l,1,0.9325,"[""0.066"",""0.418"",""0.147"",""0.746""]","[1,1,0,1]",0,33,33,33,1,1,0,,,0,FALSE,,,,,,,,,,,,,,,,,,,,,,,,,,,,,,,
,61073e6d38111b5924507b77,627c6fad59bfe5359f80482d,2022-05-11_21h25.08.559,classification_task,2021.2.3,Win32,59.90893841,627c6715c52fd12f31907bd0,,,,,,,,,,,,,,,,,,,,,,,l,1,0.6317,"[""0.066"",""0.418"",""0.498"",""0.147""]","[1,1,1,0]",0,34,34,34,1,1,0,,,0,FALSE,,,,,,,,,,,,,,,,,,,,,,,,,,,,,,,
,61073e6d38111b5924507b77,627c6fad59bfe5359f80482d,2022-05-11_21h25.08.559,classification_task,2021.2.3,Win32,59.90893841,627c6715c52fd12f31907bd0,,,,,,,,,,,,,,,,,,,,,,,l,0,1.132,"[""0.322"",""0.548"",""0.281"",""0.967""]","[1,1,0,1]",0,35,35,35,1,0,1,,,0,FALSE,,,,,,,,,,,,,,,,,,,,,,,,,,,,,,,
,61073e6d38111b5924507b77,627c6fad59bfe5359f80482d,2022-05-11_21h25.08.559,classification_task,2021.2.3,Win32,59.90893841,627c6715c52fd12f31907bd0,,,,,,,,,,,,,,,,,,,,,,,l,1,1.4972,"[""0.282"",""0.182"",""0.630"",""0.792""]","[0,1,1,1]",0,36,36,36,1,1,1,,,0,FALSE,,,,,,,,,,,,,,,,,,,,,,,,,,,,,,,
,61073e6d38111b5924507b77,627c6fad59bfe5359f80482d,2022-05-11_21h25.08.559,classification_task,2021.2.3,Win32,59.90893841,627c6715c52fd12f31907bd0,,,,,,,,,,,,,,,,,,,,,,,a,1,0.7689,"[""0.237"",""0.356"",""0.593"",""0.871""]","[1,1,0,1]",0,37,37,37,1,0,0,,,0,FALSE,,,,,,,,,,,,,,,,,,,,,,,,,,,,,,,
,61073e6d38111b5924507b77,627c6fad59bfe5359f80482d,2022-05-11_21h25.08.559,classification_task,2021.2.3,Win32,59.90893841,627c6715c52fd12f31907bd0,,,,,,,,,,,,,,,,,,,,,,,l,1,1.3778,"[""0.103"",""0.277"",""0.630"",""0.792""]","[1,0,1,1]",0,38,38,38,1,1,1,,,0,FALSE,,,,,,,,,,,,,,,,,,,,,,,,,,,,,,,
,61073e6d38111b5924507b77,627c6fad59bfe5359f80482d,2022-05-11_21h25.08.559,classification_task,2021.2.3,Win32,59.90893841,627c6715c52fd12f31907bd0,,,,,,,,,,,,,,,,,,,,,,,a,0,1.1648,"[""0.103"",""0.182"",""0.630"",""0.284""]","[1,1,1,0]",0,39,39,39,1,1,1,,,0,FALSE,,,,,,,,,,,,,,,,,,,,,,,,,,,,,,,
,61073e6d38111b5924507b77,627c6fad59bfe5359f80482d,2022-05-11_21h25.08.559,classification_task,2021.2.3,Win32,59.90893841,627c6715c52fd12f31907bd0,,,,,,,,,,,,,,,,,,,,,,,l,0,1.0549,"[""0.322"",""0.548"",""0.681"",""0.026""]","[1,1,1,0]",0,40,40,40,1,0,1,,,0,FALSE,,,,,,,,,,,,,,,,,,,,,,,,,,,,,,,
,61073e6d38111b5924507b77,627c6fad59bfe5359f80482d,2022-05-11_21h25.08.559,classification_task,2021.2.3,Win32,59.90893841,627c6715c52fd12f31907bd0,,,,,,,,,,,,,,,,,,,,,,,a,1,0.9,"[""0.322"",""0.919"",""0.681"",""0.967""]","[1,0,1,1]",0,41,41,41,1,0,1,,,0,FALSE,,,,,,,,,,,,,,,,,,,,,,,,,,,,,,,
,61073e6d38111b5924507b77,627c6fad59bfe5359f80482d,2022-05-11_21h25.08.559,classification_task,2021.2.3,Win32,59.90893841,627c6715c52fd12f31907bd0,,,,,,,,,,,,,,,,,,,,,,,a,1,0.9016,"[""0.237"",""0.356"",""0.829"",""0.281""]","[1,1,1,0]",0,42,42,42,1,0,0,,,0,FALSE,,,,,,,,,,,,,,,,,,,,,,,,,,,,,,,
,61073e6d38111b5924507b77,627c6fad59bfe5359f80482d,2022-05-11_21h25.08.559,classification_task,2021.2.3,Win32,59.90893841,627c6715c52fd12f31907bd0,,,,,,,,,,,,,,,,,,,,,,,a,1,1.0089,"[""0.916"",""0.548"",""0.681"",""0.967""]","[0,1,1,1]",0,43,43,43,1,0,1,,,0,FALSE,,,,,,,,,,,,,,,,,,,,,,,,,,,,,,,
,61073e6d38111b5924507b77,627c6fad59bfe5359f80482d,2022-05-11_21h25.08.559,classification_task,2021.2.3,Win32,59.90893841,627c6715c52fd12f31907bd0,,,,,,,,,,,,,,,,,,,,,,,l,1,1.0074,"[""0.103"",""0.182"",""0.284"",""0.792""]","[1,1,0,1]",0,44,44,44,1,1,1,,,0,FALSE,,,,,,,,,,,,,,,,,,,,,,,,,,,,,,,
,61073e6d38111b5924507b77,627c6fad59bfe5359f80482d,2022-05-11_21h25.08.559,classification_task,2021.2.3,Win32,59.90893841,627c6715c52fd12f31907bd0,,,,,,,,,,,,,,,,,,,,,,,l,1,0.7532,"[""0.141"",""0.418"",""0.498"",""0.746""]","[0,1,1,1]",0,45,45,45,1,1,0,,,0,FALSE,,,,,,,,,,,,,,,,,,,,,,,,,,,,,,,
,61073e6d38111b5924507b77,627c6fad59bfe5359f80482d,2022-05-11_21h25.08.559,classification_task,2021.2.3,Win32,59.90893841,627c6715c52fd12f31907bd0,,,,,,,,,,,,,,,,,,,,,,,a,1,0.6341,"[""0.592"",""0.356"",""0.829"",""0.871""]","[0,1,1,1]",0,46,46,46,1,0,0,,,0,FALSE,,,,,,,,,,,,,,,,,,,,,,,,,,,,,,,
,61073e6d38111b5924507b77,627c6fad59bfe5359f80482d,2022-05-11_21h25.08.559,classification_task,2021.2.3,Win32,59.90893841,627c6715c52fd12f31907bd0,,,,,,,,,,,,,,,,,,,,,,,l,1,0.6286,"[""0.066"",""0.916"",""0.498"",""0.746""]","[1,0,1,1]",0,47,47,47,1,1,0,,,0,FALSE,,,,,,,,,,,,,,,,,,,,,,,,,,,,,,,
,61073e6d38111b5924507b77,627c6fad59bfe5359f80482d,2022-05-11_21h25.08.559,classification_task,2021.2.3,Win32,59.90893841,627c6715c52fd12f31907bd0,,,,,,,,,,,,,,,,,,,,,,,a,1,1.148,"[""0.237"",""0.916"",""0.829"",""0.871""]","[1,0,1,1]",0,48,48,48,1,0,0,,,0,FALSE,,,,,,,,,,,,,,,,,,,,,,,,,,,,,,,
,61073e6d38111b5924507b77,627c6fad59bfe5359f80482d,2022-05-11_21h25.08.559,classification_task,2021.2.3,Win32,59.90893841,627c6715c52fd12f31907bd0,,,,,,,,,,,,,,,,,,,,,,,a,1,1.0027,"[""0.237"",""0.356"",""0.595"",""0.871""]","[1,1,0,1]",0,49,49,49,1,0,0,,,0,FALSE,,,,,,,,,,,,,,,,,,,,,,,,,,,,,,,
,61073e6d38111b5924507b77,627c6fad59bfe5359f80482d,2022-05-11_21h25.08.559,classification_task,2021.2.3,Win32,59.90893841,627c6715c52fd12f31907bd0,,,,,,,,,,,,,,,,,,,,,,,l,1,0.997,"[""0.593"",""0.182"",""0.630"",""0.792""]","[0,1,1,1]",0,50,50,50,1,1,1,,,0,FALSE,,,,,,,,,,,,,,,,,,,,,,,,,,,,,,,
,61073e6d38111b5924507b77,627c6fad59bfe5359f80482d,2022-05-11_21h25.08.559,classification_task,2021.2.3,Win32,59.90893841,627c6715c52fd12f31907bd0,,,,,,,,,,,,,,,,,,,,,,,a,0,0.7678,"[""0.066"",""0.593"",""0.498"",""0.746""]","[1,0,1,1]",0,51,51,51,1,1,0,,,0,FALSE,,,,,,,,,,,,,,,,,,,,,,,,,,,,,,,
,61073e6d38111b5924507b77,627c6fad59bfe5359f80482d,2022-05-11_21h25.08.559,classification_task,2021.2.3,Win32,59.90893841,627c6715c52fd12f31907bd0,,,,,,,,,,,,,,,,,,,,,,,a,1,0.8857,"[""0.919"",""0.356"",""0.829"",""0.871""]","[0,1,1,1]",0,52,52,52,1,0,0,,,0,FALSE,,,,,,,,,,,,,,,,,,,,,,,,,,,,,,,
,61073e6d38111b5924507b77,627c6fad59bfe5359f80482d,2022-05-11_21h25.08.559,classification_task,2021.2.3,Win32,59.90893841,627c6715c52fd12f31907bd0,,,,,,,,,,,,,,,,,,,,,,,l,0,1.002,"[""0.322"",""0.592"",""0.681"",""0.967""]","[1,0,1,1]",0,53,53,53,1,0,1,,,0,FALSE,,,,,,,,,,,,,,,,,,,,,,,,,,,,,,,
,61073e6d38111b5924507b77,627c6fad59bfe5359f80482d,2022-05-11_21h25.08.559,classification_task,2021.2.3,Win32,59.90893841,627c6715c52fd12f31907bd0,,,,,,,,,,,,,,,,,,,,,,,l,1,1.1259,"[""0.103"",""0.182"",""0.592"",""0.792""]","[1,1,0,1]",0,54,54,54,1,1,1,,,0,FALSE,,,,,,,,,,,,,,,,,,,,,,,,,,,,,,,
,61073e6d38111b5924507b77,627c6fad59bfe5359f80482d,2022-05-11_21h25.08.559,classification_task,2021.2.3,Win32,59.90893841,627c6715c52fd12f31907bd0,,,,,,,,,,,,,,,,,,,,,,,a,0,0.9195,"[""0.103"",""0.182"",""0.630"",""0.593""]","[1,1,1,0]",0,55,55,55,1,1,1,,,0,FALSE,,,,,,,,,,,,,,,,,,,,,,,,,,,,,,,
,61073e6d38111b5924507b77,627c6fad59bfe5359f80482d,2022-05-11_21h25.08.559,classification_task,2021.2.3,Win32,59.90893841,627c6715c52fd12f31907bd0,,,,,,,,,,,,,,,,,,,,,,,l,1,1.1904,"[""0.066"",""0.418"",""0.277"",""0.746""]","[1,1,0,1]",0,56,56,56,1,1,0,,,0,FALSE,,,,,,,,,,,,,,,,,,,,,,,,,,,,,,,
,61073e6d38111b5924507b77,627c6fad59bfe5359f80482d,2022-05-11_21h25.08.559,classification_task,2021.2.3,Win32,59.90893841,627c6715c52fd12f31907bd0,,,,,,,,,,,,,,,,,,,,,,,l,1,0.8996,"[""0.103"",""0.277"",""0.630"",""0.792""]","[1,0,1,1]",0,57,57,57,1,1,1,,,0,FALSE,,,,,,,,,,,,,,,,,,,,,,,,,,,,,,,
,61073e6d38111b5924507b77,627c6fad59bfe5359f80482d,2022-05-11_21h25.08.559,classification_task,2021.2.3,Win32,59.90893841,627c6715c52fd12f31907bd0,,,,,,,,,,,,,,,,,,,,,,,l,0,0.7574,"[""0.237"",""0.356"",""0.829"",""0.908""]","[1,1,1,0]",0,58,58,58,1,0,0,,,0,FALSE,,,,,,,,,,,,,,,,,,,,,,,,,,,,,,,
,61073e6d38111b5924507b77,627c6fad59bfe5359f80482d,2022-05-11_21h25.08.559,classification_task,2021.2.3,Win32,59.90893841,627c6715c52fd12f31907bd0,,,,,,,,,,,,,,,,,,,,,,,a,1,0.8802,"[""0.916"",""0.548"",""0.681"",""0.967""]","[0,1,1,1]",0,59,59,59,1,0,1,,,0,FALSE,,,,,,,,,,,,,,,,,,,,,,,,,,,,,,,
,61073e6d38111b5924507b77,627c6fad59bfe5359f80482d,2022-05-11_21h25.08.559,classification_task,2021.2.3,Win32,59.90893841,627c6715c52fd12f31907bd0,,,,,,,,,,,,,,,,,,,,,,,a,1,1.1332,"[""0.322"",""0.548"",""0.592"",""0.967""]","[1,1,0,1]",0,60,60,60,1,0,1,,,0,FALSE,,,,,,,,,,,,,,,,,,,,,,,,,,,,,,,
,61073e6d38111b5924507b77,627c6fad59bfe5359f80482d,2022-05-11_21h25.08.559,classification_task,2021.2.3,Win32,59.90893841,627c6715c52fd12f31907bd0,,,,,,,,,,,,,,,,,,,,,,,a,0,1.1488,"[""0.908"",""0.418"",""0.498"",""0.746""]","[0,1,1,1]",0,61,61,61,1,1,0,,,0,FALSE,,,,,,,,,,,,,,,,,,,,,,,,,,,,,,,
,61073e6d38111b5924507b77,627c6fad59bfe5359f80482d,2022-05-11_21h25.08.559,classification_task,2021.2.3,Win32,59.90893841,627c6715c52fd12f31907bd0,,,,,,,,,,,,,,,,,,,,,,,l,1,1.0205,"[""0.066"",""0.418"",""0.498"",""0.593""]","[1,1,1,0]",0,62,62,62,1,1,0,,,0,FALSE,,,,,,,,,,,,,,,,,,,,,,,,,,,,,,,
,61073e6d38111b5924507b77,627c6fad59bfe5359f80482d,2022-05-11_21h25.08.559,classification_task,2021.2.3,Win32,59.90893841,627c6715c52fd12f31907bd0,,,,,,,,,,,,,,,,,,,,,,,a,1,2.1227,"[""0.322"",""0.548"",""0.681"",""0.595""]","[1,1,1,0]",0,63,63,63,1,0,1,,,0,FALSE,,,,,,,,,,,,,,,,,,,,,,,,,,,,,,,
,61073e6d38111b5924507b77,627c6fad59bfe5359f80482d,2022-05-11_21h25.08.559,classification_task,2021.2.3,Win32,59.90893841,627c6715c52fd12f31907bd0,,,,,,,,,,,,,,,,,,,,,,,,,,,,,,,,,,,,,,,0, ,,0,9.581404321,175.934,0,1,1,1,1,2,2,,,,,,,,,,,,,,,,,,
,61073e6d38111b5924507b77,627c6fad59bfe5359f80482d,2022-05-11_21h25.08.559,classification_task,2021.2.3,Win32,59.90893841,627c6715c52fd12f31907bd0,,,,,,,,,,,,,,,,,,,,,,,,,,,,,,,,,,,,,,,1,  ,,0,5.654486332,181.6295,0,1,1,1,1,2,2,,,,,,,,,,,,,,,,,,
,61073e6d38111b5924507b77,627c6fad59bfe5359f80482d,2022-05-11_21h25.08.559,classification_task,2021.2.3,Win32,59.90893841,627c6715c52fd12f31907bd0,,,,,,,,,,,,,,,,,,,,,,,,,,,,,,,,,,,,,,,2,  ,,0,2.829861111,190.3293,0,1,1,1,1,2,2,,,,,,,,,,,,,,,,,,
,61073e6d38111b5924507b77,627c6fad59bfe5359f80482d,2022-05-11_21h25.08.559,classification_task,2021.2.3,Win32,59.90893841,627c6715c52fd12f31907bd0,,,,,,,,,,,,,,,,,,,,,,,,,,,,,,,,,,,,,,,,,,,,,0,1,1,1,1,,2,,,,,,,,,,,,,,,,,,
,61073e6d38111b5924507b77,627c6fad59bfe5359f80482d,2022-05-11_21h25.08.559,classification_task,2021.2.3,Win32,59.90893841,627c6715c52fd12f31907bd0,,,,,,,,,,,,,,,,,,,,,space,13.7532,a,0,1.4643,"[""0.103"",""0.182"",""0.282"",""0.792""]","[1,1,0,1]",0,0,0,0,1,1,1,,,0,FALSE,,,,,,,,,,,,,,,,,,,,,,,,,,,,,,,
,61073e6d38111b5924507b77,627c6fad59bfe5359f80482d,2022-05-11_21h25.08.559,classification_task,2021.2.3,Win32,59.90893841,627c6715c52fd12f31907bd0,,,,,,,,,,,,,,,,,,,,,,,l,0,1.6369,"[""0.322"",""0.548"",""0.681"",""0.595""]","[1,1,1,0]",0,1,1,1,1,0,1,,,0,FALSE,,,,,,,,,,,,,,,,,,,,,,,,,,,,,,,
,61073e6d38111b5924507b77,627c6fad59bfe5359f80482d,2022-05-11_21h25.08.559,classification_task,2021.2.3,Win32,59.90893841,627c6715c52fd12f31907bd0,,,,,,,,,,,,,,,,,,,,,,,a,1,1.2263,"[""0.322"",""0.548"",""0.919"",""0.967""]","[1,1,0,1]",0,2,2,2,1,0,1,,,0,FALSE,,,,,,,,,,,,,,,,,,,,,,,,,,,,,,,
,61073e6d38111b5924507b77,627c6fad59bfe5359f80482d,2022-05-11_21h25.08.559,classification_task,2021.2.3,Win32,59.90893841,627c6715c52fd12f31907bd0,,,,,,,,,,,,,,,,,,,,,,,l,1,0.8554,"[""0.282"",""0.182"",""0.630"",""0.792""]","[0,1,1,1]",0,3,3,3,1,1,1,,,0,FALSE,,,,,,,,,,,,,,,,,,,,,,,,,,,,,,,
,61073e6d38111b5924507b77,627c6fad59bfe5359f80482d,2022-05-11_21h25.08.559,classification_task,2021.2.3,Win32,59.90893841,627c6715c52fd12f31907bd0,,,,,,,,,,,,,,,,,,,,,,,a,1,1.9499,"[""0.595"",""0.356"",""0.829"",""0.871""]","[0,1,1,1]",0,4,4,4,1,0,0,,,0,FALSE,,,,,,,,,,,,,,,,,,,,,,,,,,,,,,,
,61073e6d38111b5924507b77,627c6fad59bfe5359f80482d,2022-05-11_21h25.08.559,classification_task,2021.2.3,Win32,59.90893841,627c6715c52fd12f31907bd0,,,,,,,,,,,,,,,,,,,,,,,a,0,1.0222,"[""0.103"",""0.182"",""0.630"",""0.592""]","[1,1,1,0]",0,5,5,5,1,1,1,,,0,FALSE,,,,,,,,,,,,,,,,,,,,,,,,,,,,,,,
,61073e6d38111b5924507b77,627c6fad59bfe5359f80482d,2022-05-11_21h25.08.559,classification_task,2021.2.3,Win32,59.90893841,627c6715c52fd12f31907bd0,,,,,,,,,,,,,,,,,,,,,,,a,1,1.1017,"[""0.237"",""0.356"",""0.908"",""0.871""]","[1,1,0,1]",0,6,6,6,1,0,0,,,0,FALSE,,,,,,,,,,,,,,,,,,,,,,,,,,,,,,,
,61073e6d38111b5924507b77,627c6fad59bfe5359f80482d,2022-05-11_21h25.08.559,classification_task,2021.2.3,Win32,59.90893841,627c6715c52fd12f31907bd0,,,,,,,,,,,,,,,,,,,,,,,l,1,0.9776,"[""0.595"",""0.418"",""0.498"",""0.746""]","[0,1,1,1]",0,7,7,7,1,1,0,,,0,FALSE,,,,,,,,,,,,,,,,,,,,,,,,,,,,,,,
,61073e6d38111b5924507b77,627c6fad59bfe5359f80482d,2022-05-11_21h25.08.559,classification_task,2021.2.3,Win32,59.90893841,627c6715c52fd12f31907bd0,,,,,,,,,,,,,,,,,,,,,,,l,0,1.0981,"[""0.237"",""0.284"",""0.829"",""0.871""]","[1,0,1,1]",0,8,8,8,1,0,0,,,0,FALSE,,,,,,,,,,,,,,,,,,,,,,,,,,,,,,,
,61073e6d38111b5924507b77,627c6fad59bfe5359f80482d,2022-05-11_21h25.08.559,classification_task,2021.2.3,Win32,59.90893841,627c6715c52fd12f31907bd0,,,,,,,,,,,,,,,,,,,,,,,l,1,0.736,"[""0.103"",""0.284"",""0.630"",""0.792""]","[1,0,1,1]",0,9,9,9,1,1,1,,,0,FALSE,,,,,,,,,,,,,,,,,,,,,,,,,,,,,,,
,61073e6d38111b5924507b77,627c6fad59bfe5359f80482d,2022-05-11_21h25.08.559,classification_task,2021.2.3,Win32,59.90893841,627c6715c52fd12f31907bd0,,,,,,,,,,,,,,,,,,,,,,,l,0,0.9877,"[""0.237"",""0.356"",""0.829"",""0.595""]","[1,1,1,0]",0,10,10,10,1,0,0,,,0,FALSE,,,,,,,,,,,,,,,,,,,,,,,,,,,,,,,
,61073e6d38111b5924507b77,627c6fad59bfe5359f80482d,2022-05-11_21h25.08.559,classification_task,2021.2.3,Win32,59.90893841,627c6715c52fd12f31907bd0,,,,,,,,,,,,,,,,,,,,,,,l,1,0.8528,"[""0.066"",""0.418"",""0.498"",""0.147""]","[1,1,1,0]",0,11,11,11,1,1,0,,,0,FALSE,,,,,,,,,,,,,,,,,,,,,,,,,,,,,,,
,61073e6d38111b5924507b77,627c6fad59bfe5359f80482d,2022-05-11_21h25.08.559,classification_task,2021.2.3,Win32,59.90893841,627c6715c52fd12f31907bd0,,,,,,,,,,,,,,,,,,,,,,,l,1,0.9757,"[""0.066"",""0.908"",""0.498"",""0.746""]","[1,0,1,1]",0,12,12,12,1,1,0,,,0,FALSE,,,,,,,,,,,,,,,,,,,,,,,,,,,,,,,
,61073e6d38111b5924507b77,627c6fad59bfe5359f80482d,2022-05-11_21h25.08.559,classification_task,2021.2.3,Win32,59.90893841,627c6715c52fd12f31907bd0,,,,,,,,,,,,,,,,,,,,,,,a,1,0.7325,"[""0.322"",""0.908"",""0.681"",""0.967""]","[1,0,1,1]",0,13,13,13,1,0,1,,,0,FALSE,,,,,,,,,,,,,,,,,,,,,,,,,,,,,,,
,61073e6d38111b5924507b77,627c6fad59bfe5359f80482d,2022-05-11_21h25.08.559,classification_task,2021.2.3,Win32,59.90893841,627c6715c52fd12f31907bd0,,,,,,,,,,,,,,,,,,,,,,,l,1,0.853,"[""0.066"",""0.418"",""0.916"",""0.746""]","[1,1,0,1]",0,14,14,14,1,1,0,,,0,FALSE,,,,,,,,,,,,,,,,,,,,,,,,,,,,,,,
,61073e6d38111b5924507b77,627c6fad59bfe5359f80482d,2022-05-11_21h25.08.559,classification_task,2021.2.3,Win32,59.90893841,627c6715c52fd12f31907bd0,,,,,,,,,,,,,,,,,,,,,,,a,1,1.8225,"[""0.593"",""0.548"",""0.681"",""0.967""]","[0,1,1,1]",0,15,15,15,1,0,1,,,0,FALSE,,,,,,,,,,,,,,,,,,,,,,,,,,,,,,,
,61073e6d38111b5924507b77,627c6fad59bfe5359f80482d,2022-05-11_21h25.08.559,classification_task,2021.2.3,Win32,59.90893841,627c6715c52fd12f31907bd0,,,,,,,,,,,,,,,,,,,,,,,l,1,1.698,"[""0.066"",""0.282"",""0.498"",""0.746""]","[1,0,1,1]",0,16,16,16,1,1,0,,,0,FALSE,,,,,,,,,,,,,,,,,,,,,,,,,,,,,,,
,61073e6d38111b5924507b77,627c6fad59bfe5359f80482d,2022-05-11_21h25.08.559,classification_task,2021.2.3,Win32,59.90893841,627c6715c52fd12f31907bd0,,,,,,,,,,,,,,,,,,,,,,,l,1,0.6179,"[""0.103"",""0.595"",""0.630"",""0.792""]","[1,0,1,1]",0,17,17,17,1,1,1,,,0,FALSE,,,,,,,,,,,,,,,,,,,,,,,,,,,,,,,
,61073e6d38111b5924507b77,627c6fad59bfe5359f80482d,2022-05-11_21h25.08.559,classification_task,2021.2.3,Win32,59.90893841,627c6715c52fd12f31907bd0,,,,,,,,,,,,,,,,,,,,,,,a,1,2.5527,"[""0.322"",""0.548"",""0.681"",""0.147""]","[1,1,1,0]",0,18,18,18,1,0,1,,,0,FALSE,,,,,,,,,,,,,,,,,,,,,,,,,,,,,,,
,61073e6d38111b5924507b77,627c6fad59bfe5359f80482d,2022-05-11_21h25.08.559,classification_task,2021.2.3,Win32,59.90893841,627c6715c52fd12f31907bd0,,,,,,,,,,,,,,,,,,,,,,,l,0,0.8632,"[""0.322"",""0.908"",""0.681"",""0.967""]","[1,0,1,1]",0,19,19,19,1,0,1,,,0,FALSE,,,,,,,,,,,,,,,,,,,,,,,,,,,,,,,
,61073e6d38111b5924507b77,627c6fad59bfe5359f80482d,2022-05-11_21h25.08.559,classification_task,2021.2.3,Win32,59.90893841,627c6715c52fd12f31907bd0,,,,,,,,,,,,,,,,,,,,,,,l,1,0.7354,"[""0.137"",""0.182"",""0.630"",""0.792""]","[0,1,1,1]",0,20,20,20,1,1,1,,,0,FALSE,,,,,,,,,,,,,,,,,,,,,,,,,,,,,,,
,61073e6d38111b5924507b77,627c6fad59bfe5359f80482d,2022-05-11_21h25.08.559,classification_task,2021.2.3,Win32,59.90893841,627c6715c52fd12f31907bd0,,,,,,,,,,,,,,,,,,,,,,,a,1,1.2212,"[""0.237"",""0.595"",""0.829"",""0.871""]","[1,0,1,1]",0,21,21,21,1,0,0,,,0,FALSE,,,,,,,,,,,,,,,,,,,,,,,,,,,,,,,
,61073e6d38111b5924507b77,627c6fad59bfe5359f80482d,2022-05-11_21h25.08.559,classification_task,2021.2.3,Win32,59.90893841,627c6715c52fd12f31907bd0,,,,,,,,,,,,,,,,,,,,,,,a,1,1.7054,"[""0.237"",""0.356"",""0.137"",""0.871""]","[1,1,0,1]",0,22,22,22,1,0,0,,,0,FALSE,,,,,,,,,,,,,,,,,,,,,,,,,,,,,,,
,61073e6d38111b5924507b77,627c6fad59bfe5359f80482d,2022-05-11_21h25.08.559,classification_task,2021.2.3,Win32,59.90893841,627c6715c52fd12f31907bd0,,,,,,,,,,,,,,,,,,,,,,,a,1,2.0672,"[""0.147"",""0.356"",""0.829"",""0.871""]","[0,1,1,1]",0,23,23,23,1,0,0,,,0,FALSE,,,,,,,,,,,,,,,,,,,,,,,,,,,,,,,
,61073e6d38111b5924507b77,627c6fad59bfe5359f80482d,2022-05-11_21h25.08.559,classification_task,2021.2.3,Win32,59.90893841,627c6715c52fd12f31907bd0,,,,,,,,,,,,,,,,,,,,,,,a,1,4.4053,"[""0.916"",""0.548"",""0.681"",""0.967""]","[0,1,1,1]",0,24,24,24,1,0,1,,,0,FALSE,,,,,,,,,,,,,,,,,,,,,,,,,,,,,,,
,61073e6d38111b5924507b77,627c6fad59bfe5359f80482d,2022-05-11_21h25.08.559,classification_task,2021.2.3,Win32,59.90893841,627c6715c52fd12f31907bd0,,,,,,,,,,,,,,,,,,,,,,,a,0,1.6581,"[""0.066"",""0.418"",""0.498"",""0.595""]","[1,1,1,0]",0,25,25,25,1,1,0,,,0,FALSE,,,,,,,,,,,,,,,,,,,,,,,,,,,,,,,
,61073e6d38111b5924507b77,627c6fad59bfe5359f80482d,2022-05-11_21h25.08.559,classification_task,2021.2.3,Win32,59.90893841,627c6715c52fd12f31907bd0,,,,,,,,,,,,,,,,,,,,,,,a,0,3.0304,"[""0.277"",""0.418"",""0.498"",""0.746""]","[0,1,1,1]",0,26,26,26,1,1,0,,,0,FALSE,,,,,,,,,,,,,,,,,,,,,,,,,,,,,,,
,61073e6d38111b5924507b77,627c6fad59bfe5359f80482d,2022-05-11_21h25.08.559,classification_task,2021.2.3,Win32,59.90893841,627c6715c52fd12f31907bd0,,,,,,,,,,,,,,,,,,,,,,,l,1,0.8576,"[""0.066"",""0.418"",""0.908"",""0.746""]","[1,1,0,1]",0,27,27,27,1,1,0,,,0,FALSE,,,,,,,,,,,,,,,,,,,,,,,,,,,,,,,
,61073e6d38111b5924507b77,627c6fad59bfe5359f80482d,2022-05-11_21h25.08.559,classification_task,2021.2.3,Win32,59.90893841,627c6715c52fd12f31907bd0,,,,,,,,,,,,,,,,,,,,,,,a,1,1.1006,"[""0.322"",""0.548"",""0.284"",""0.967""]","[1,1,0,1]",0,28,28,28,1,0,1,,,0,FALSE,,,,,,,,,,,,,,,,,,,,,,,,,,,,,,,
,61073e6d38111b5924507b77,627c6fad59bfe5359f80482d,2022-05-11_21h25.08.559,classification_task,2021.2.3,Win32,59.90893841,627c6715c52fd12f31907bd0,,,,,,,,,,,,,,,,,,,,,,,a,0,1.0255,"[""0.103"",""0.182"",""0.630"",""0.916""]","[1,1,1,0]",0,29,29,29,1,1,1,,,0,FALSE,,,,,,,,,,,,,,,,,,,,,,,,,,,,,,,
,61073e6d38111b5924507b77,627c6fad59bfe5359f80482d,2022-05-11_21h25.08.559,classification_task,2021.2.3,Win32,59.90893841,627c6715c52fd12f31907bd0,,,,,,,,,,,,,,,,,,,,,,,a,1,1.1023,"[""0.237"",""0.356"",""0.829"",""0.147""]","[1,1,1,0]",0,30,30,30,1,0,0,,,0,FALSE,,,,,,,,,,,,,,,,,,,,,,,,,,,,,,,
,61073e6d38111b5924507b77,627c6fad59bfe5359f80482d,2022-05-11_21h25.08.559,classification_task,2021.2.3,Win32,59.90893841,627c6715c52fd12f31907bd0,,,,,,,,,,,,,,,,,,,,,,,a,0,2.1931,"[""0.103"",""0.182"",""0.595"",""0.792""]","[1,1,0,1]",0,31,31,31,1,1,1,,,0,FALSE,,,,,,,,,,,,,,,,,,,,,,,,,,,,,,,
,61073e6d38111b5924507b77,627c6fad59bfe5359f80482d,2022-05-11_21h25.08.559,classification_task,2021.2.3,Win32,59.90893841,627c6715c52fd12f31907bd0,,,,,,,,,,,,,,,,,,,,,,,l,1,1.4687,"[""0.066"",""0.908"",""0.498"",""0.746""]","[1,0,1,1]",0,32,32,32,1,1,0,,,0,FALSE,,,,,,,,,,,,,,,,,,,,,,,,,,,,,,,
,61073e6d38111b5924507b77,627c6fad59bfe5359f80482d,2022-05-11_21h25.08.559,classification_task,2021.2.3,Win32,59.90893841,627c6715c52fd12f31907bd0,,,,,,,,,,,,,,,,,,,,,,,a,1,1.7099,"[""0.237"",""0.356"",""0.147"",""0.871""]","[1,1,0,1]",0,33,33,33,1,0,0,,,0,FALSE,,,,,,,,,,,,,,,,,,,,,,,,,,,,,,,
,61073e6d38111b5924507b77,627c6fad59bfe5359f80482d,2022-05-11_21h25.08.559,classification_task,2021.2.3,Win32,59.90893841,627c6715c52fd12f31907bd0,,,,,,,,,,,,,,,,,,,,,,,a,0,1.5838,"[""0.103"",""0.182"",""0.026"",""0.792""]","[1,1,0,1]",0,34,34,34,1,1,1,,,0,FALSE,,,,,,,,,,,,,,,,,,,,,,,,,,,,,,,
,61073e6d38111b5924507b77,627c6fad59bfe5359f80482d,2022-05-11_21h25.08.559,classification_task,2021.2.3,Win32,59.90893841,627c6715c52fd12f31907bd0,,,,,,,,,,,,,,,,,,,,,,,l,0,3.2931,"[""0.919"",""0.548"",""0.681"",""0.967""]","[0,1,1,1]",0,35,35,35,1,0,1,,,0,FALSE,,,,,,,,,,,,,,,,,,,,,,,,,,,,,,,
,61073e6d38111b5924507b77,627c6fad59bfe5359f80482d,2022-05-11_21h25.08.559,classification_task,2021.2.3,Win32,59.90893841,627c6715c52fd12f31907bd0,,,,,,,,,,,,,,,,,,,,,,,a,0,1.4693,"[""0.103"",""0.908"",""0.630"",""0.792""]","[1,0,1,1]",0,36,36,36,1,1,1,,,0,FALSE,,,,,,,,,,,,,,,,,,,,,,,,,,,,,,,
,61073e6d38111b5924507b77,627c6fad59bfe5359f80482d,2022-05-11_21h25.08.559,classification_task,2021.2.3,Win32,59.90893841,627c6715c52fd12f31907bd0,,,,,,,,,,,,,,,,,,,,,,,a,1,1.4788,"[""0.237"",""0.026"",""0.829"",""0.871""]","[1,0,1,1]",0,37,37,37,1,0,0,,,0,FALSE,,,,,,,,,,,,,,,,,,,,,,,,,,,,,,,
,61073e6d38111b5924507b77,627c6fad59bfe5359f80482d,2022-05-11_21h25.08.559,classification_task,2021.2.3,Win32,59.90893841,627c6715c52fd12f31907bd0,,,,,,,,,,,,,,,,,,,,,,,a,1,1.1083,"[""0.322"",""0.548"",""0.595"",""0.967""]","[1,1,0,1]",0,38,38,38,1,0,1,,,0,FALSE,,,,,,,,,,,,,,,,,,,,,,,,,,,,,,,
,61073e6d38111b5924507b77,627c6fad59bfe5359f80482d,2022-05-11_21h25.08.559,classification_task,2021.2.3,Win32,59.90893841,627c6715c52fd12f31907bd0,,,,,,,,,,,,,,,,,,,,,,,a,0,1.4641,"[""0.066"",""0.418"",""0.282"",""0.746""]","[1,1,0,1]",0,39,39,39,1,1,0,,,0,FALSE,,,,,,,,,,,,,,,,,,,,,,,,,,,,,,,
,61073e6d38111b5924507b77,627c6fad59bfe5359f80482d,2022-05-11_21h25.08.559,classification_task,2021.2.3,Win32,59.90893841,627c6715c52fd12f31907bd0,,,,,,,,,,,,,,,,,,,,,,,a,1,0.7406,"[""0.322"",""0.919"",""0.681"",""0.967""]","[1,0,1,1]",0,40,40,40,1,0,1,,,0,FALSE,,,,,,,,,,,,,,,,,,,,,,,,,,,,,,,
,61073e6d38111b5924507b77,627c6fad59bfe5359f80482d,2022-05-11_21h25.08.559,classification_task,2021.2.3,Win32,59.90893841,627c6715c52fd12f31907bd0,,,,,,,,,,,,,,,,,,,,,,,l,1,0.9799,"[""0.137"",""0.182"",""0.630"",""0.792""]","[0,1,1,1]",0,41,41,41,1,1,1,,,0,FALSE,,,,,,,,,,,,,,,,,,,,,,,,,,,,,,,
,61073e6d38111b5924507b77,627c6fad59bfe5359f80482d,2022-05-11_21h25.08.559,classification_task,2021.2.3,Win32,59.90893841,627c6715c52fd12f31907bd0,,,,,,,,,,,,,,,,,,,,,,,a,1,1.0977,"[""0.237"",""0.356"",""0.829"",""0.916""]","[1,1,1,0]",0,42,42,42,1,0,0,,,0,FALSE,,,,,,,,,,,,,,,,,,,,,,,,,,,,,,,
,61073e6d38111b5924507b77,627c6fad59bfe5359f80482d,2022-05-11_21h25.08.559,classification_task,2021.2.3,Win32,59.90893841,627c6715c52fd12f31907bd0,,,,,,,,,,,,,,,,,,,,,,,l,0,2.4286,"[""0.593"",""0.356"",""0.829"",""0.871""]","[0,1,1,1]",0,43,43,43,1,0,0,,,0,FALSE,,,,,,,,,,,,,,,,,,,,,,,,,,,,,,,
,61073e6d38111b5924507b77,627c6fad59bfe5359f80482d,2022-05-11_21h25.08.559,classification_task,2021.2.3,Win32,59.90893841,627c6715c52fd12f31907bd0,,,,,,,,,,,,,,,,,,,,,,,a,1,1.1232,"[""0.322"",""0.548"",""0.681"",""0.916""]","[1,1,1,0]",0,44,44,44,1,0,1,,,0,FALSE,,,,,,,,,,,,,,,,,,,,,,,,,,,,,,,
,61073e6d38111b5924507b77,627c6fad59bfe5359f80482d,2022-05-11_21h25.08.559,classification_task,2021.2.3,Win32,59.90893841,627c6715c52fd12f31907bd0,,,,,,,,,,,,,,,,,,,,,,,l,1,2.5866,"[""0.592"",""0.418"",""0.498"",""0.746""]","[0,1,1,1]",0,45,45,45,1,1,0,,,0,FALSE,,,,,,,,,,,,,,,,,,,,,,,,,,,,,,,
,61073e6d38111b5924507b77,627c6fad59bfe5359f80482d,2022-05-11_21h25.08.559,classification_task,2021.2.3,Win32,59.90893841,627c6715c52fd12f31907bd0,,,,,,,,,,,,,,,,,,,,,,,a,0,1.3866,"[""0.066"",""0.418"",""0.498"",""0.592""]","[1,1,1,0]",0,46,46,46,1,1,0,,,0,FALSE,,,,,,,,,,,,,,,,,,,,,,,,,,,,,,,
,61073e6d38111b5924507b77,627c6fad59bfe5359f80482d,2022-05-11_21h25.08.559,classification_task,2021.2.3,Win32,59.90893841,627c6715c52fd12f31907bd0,,,,,,,,,,,,,,,,,,,,,,,a,0,1.5908,"[""0.103"",""0.182"",""0.630"",""0.916""]","[1,1,1,0]",0,47,47,47,1,1,1,,,0,FALSE,,,,,,,,,,,,,,,,,,,,,,,,,,,,,,,
,61073e6d38111b5924507b77,627c6fad59bfe5359f80482d,2022-05-11_21h25.08.559,classification_task,2021.2.3,Win32,59.90893841,627c6715c52fd12f31907bd0,,,,,,,,,,,,,,,,,,,,,,,a,0,1.3395,"[""0.066"",""0.418"",""0.498"",""0.137""]","[1,1,1,0]",0,48,48,48,1,1,0,,,0,FALSE,,,,,,,,,,,,,,,,,,,,,,,,,,,,,,,
,61073e6d38111b5924507b77,627c6fad59bfe5359f80482d,2022-05-11_21h25.08.559,classification_task,2021.2.3,Win32,59.90893841,627c6715c52fd12f31907bd0,,,,,,,,,,,,,,,,,,,,,,,a,0,0.8915,"[""0.284"",""0.182"",""0.630"",""0.792""]","[0,1,1,1]",0,49,49,49,1,1,1,,,0,FALSE,,,,,,,,,,,,,,,,,,,,,,,,,,,,,,,
,61073e6d38111b5924507b77,627c6fad59bfe5359f80482d,2022-05-11_21h25.08.559,classification_task,2021.2.3,Win32,59.90893841,627c6715c52fd12f31907bd0,,,,,,,,,,,,,,,,,,,,,,,l,0,1.1068,"[""0.322"",""0.284"",""0.681"",""0.967""]","[1,0,1,1]",0,50,50,50,1,0,1,,,0,FALSE,,,,,,,,,,,,,,,,,,,,,,,,,,,,,,,
,61073e6d38111b5924507b77,627c6fad59bfe5359f80482d,2022-05-11_21h25.08.559,classification_task,2021.2.3,Win32,59.90893841,627c6715c52fd12f31907bd0,,,,,,,,,,,,,,,,,,,,,,,a,1,1.5972,"[""0.322"",""0.548"",""0.026"",""0.967""]","[1,1,0,1]",0,51,51,51,1,0,1,,,0,FALSE,,,,,,,,,,,,,,,,,,,,,,,,,,,,,,,
,61073e6d38111b5924507b77,627c6fad59bfe5359f80482d,2022-05-11_21h25.08.559,classification_task,2021.2.3,Win32,59.90893841,627c6715c52fd12f31907bd0,,,,,,,,,,,,,,,,,,,,,,,a,1,1.4619,"[""0.026"",""0.356"",""0.829"",""0.871""]","[0,1,1,1]",0,52,52,52,1,0,0,,,0,FALSE,,,,,,,,,,,,,,,,,,,,,,,,,,,,,,,
,61073e6d38111b5924507b77,627c6fad59bfe5359f80482d,2022-05-11_21h25.08.559,classification_task,2021.2.3,Win32,59.90893841,627c6715c52fd12f31907bd0,,,,,,,,,,,,,,,,,,,,,,,a,1,1.362,"[""0.237"",""0.356"",""0.137"",""0.871""]","[1,1,0,1]",0,53,53,53,1,0,0,,,0,FALSE,,,,,,,,,,,,,,,,,,,,,,,,,,,,,,,
,61073e6d38111b5924507b77,627c6fad59bfe5359f80482d,2022-05-11_21h25.08.559,classification_task,2021.2.3,Win32,59.90893841,627c6715c52fd12f31907bd0,,,,,,,,,,,,,,,,,,,,,,,l,1,0.7378,"[""0.066"",""0.284"",""0.498"",""0.746""]","[1,0,1,1]",0,54,54,54,1,1,0,,,0,FALSE,,,,,,,,,,,,,,,,,,,,,,,,,,,,,,,
,61073e6d38111b5924507b77,627c6fad59bfe5359f80482d,2022-05-11_21h25.08.559,classification_task,2021.2.3,Win32,59.90893841,627c6715c52fd12f31907bd0,,,,,,,,,,,,,,,,,,,,,,,a,1,0.6844,"[""0.237"",""0.356"",""0.829"",""0.281""]","[1,1,1,0]",0,55,55,55,1,0,0,,,0,FALSE,,,,,,,,,,,,,,,,,,,,,,,,,,,,,,,
,61073e6d38111b5924507b77,627c6fad59bfe5359f80482d,2022-05-11_21h25.08.559,classification_task,2021.2.3,Win32,59.90893841,627c6715c52fd12f31907bd0,,,,,,,,,,,,,,,,,,,,,,,l,1,0.7322,"[""0.592"",""0.418"",""0.498"",""0.746""]","[0,1,1,1]",0,56,56,56,1,1,0,,,0,FALSE,,,,,,,,,,,,,,,,,,,,,,,,,,,,,,,
,61073e6d38111b5924507b77,627c6fad59bfe5359f80482d,2022-05-11_21h25.08.559,classification_task,2021.2.3,Win32,59.90893841,627c6715c52fd12f31907bd0,,,,,,,,,,,,,,,,,,,,,,,l,0,0.9763,"[""0.141"",""0.548"",""0.681"",""0.967""]","[0,1,1,1]",0,57,57,57,1,0,1,,,0,FALSE,,,,,,,,,,,,,,,,,,,,,,,,,,,,,,,
,61073e6d38111b5924507b77,627c6fad59bfe5359f80482d,2022-05-11_21h25.08.559,classification_task,2021.2.3,Win32,59.90893841,627c6715c52fd12f31907bd0,,,,,,,,,,,,,,,,,,,,,,,a,0,0.9775,"[""0.103"",""0.147"",""0.630"",""0.792""]","[1,0,1,1]",0,58,58,58,1,1,1,,,0,FALSE,,,,,,,,,,,,,,,,,,,,,,,,,,,,,,,
,61073e6d38111b5924507b77,627c6fad59bfe5359f80482d,2022-05-11_21h25.08.559,classification_task,2021.2.3,Win32,59.90893841,627c6715c52fd12f31907bd0,,,,,,,,,,,,,,,,,,,,,,,a,0,0.7356,"[""0.066"",""0.418"",""0.277"",""0.746""]","[1,1,0,1]",0,59,59,59,1,1,0,,,0,FALSE,,,,,,,,,,,,,,,,,,,,,,,,,,,,,,,
,61073e6d38111b5924507b77,627c6fad59bfe5359f80482d,2022-05-11_21h25.08.559,classification_task,2021.2.3,Win32,59.90893841,627c6715c52fd12f31907bd0,,,,,,,,,,,,,,,,,,,,,,,a,0,0.9746,"[""0.103"",""0.182"",""0.630"",""0.281""]","[1,1,1,0]",0,60,60,60,1,1,1,,,0,FALSE,,,,,,,,,,,,,,,,,,,,,,,,,,,,,,,
,61073e6d38111b5924507b77,627c6fad59bfe5359f80482d,2022-05-11_21h25.08.559,classification_task,2021.2.3,Win32,59.90893841,627c6715c52fd12f31907bd0,,,,,,,,,,,,,,,,,,,,,,,l,0,0.8552,"[""0.322"",""0.548"",""0.681"",""0.137""]","[1,1,1,0]",0,61,61,61,1,0,1,,,0,FALSE,,,,,,,,,,,,,,,,,,,,,,,,,,,,,,,
,61073e6d38111b5924507b77,627c6fad59bfe5359f80482d,2022-05-11_21h25.08.559,classification_task,2021.2.3,Win32,59.90893841,627c6715c52fd12f31907bd0,,,,,,,,,,,,,,,,,,,,,,,a,0,2.1848,"[""0.103"",""0.182"",""0.281"",""0.792""]","[1,1,0,1]",0,62,62,62,1,1,1,,,0,FALSE,,,,,,,,,,,,,,,,,,,,,,,,,,,,,,,
,61073e6d38111b5924507b77,627c6fad59bfe5359f80482d,2022-05-11_21h25.08.559,classification_task,2021.2.3,Win32,59.90893841,627c6715c52fd12f31907bd0,,,,,,,,,,,,,,,,,,,,,,,l,0,0.999,"[""0.237"",""0.137"",""0.829"",""0.871""]","[1,0,1,1]",0,63,63,63,1,0,0,,,0,FALSE,,,,,,,,,,,,,,,,,,,,,,,,,,,,,,,
,61073e6d38111b5924507b77,627c6fad59bfe5359f80482d,2022-05-11_21h25.08.559,classification_task,2021.2.3,Win32,59.90893841,627c6715c52fd12f31907bd0,,,,,,,,,,,,,,,,,,,,,,,,,,,,,,,,,,,,,,,0, ,,0,10,179.4588,0,2,2,2,1,2,3,,,,,,,,,,,,,,,,,,
,61073e6d38111b5924507b77,627c6fad59bfe5359f80482d,2022-05-11_21h25.08.559,classification_task,2021.2.3,Win32,59.90893841,627c6715c52fd12f31907bd0,,,,,,,,,,,,,,,,,,,,,,,,,,,,,,,,,,,,,,,1,  ,,0,10,183.7207,0,2,2,2,1,2,3,,,,,,,,,,,,,,,,,,
,61073e6d38111b5924507b77,627c6fad59bfe5359f80482d,2022-05-11_21h25.08.559,classification_task,2021.2.3,Win32,59.90893841,627c6715c52fd12f31907bd0,,,,,,,,,,,,,,,,,,,,,,,,,,,,,,,,,,,,,,,2,  ,,0,1.383101852,188.4651,0,2,2,2,1,2,3,,,,,,,,,,,,,,,,,,
,61073e6d38111b5924507b77,627c6fad59bfe5359f80482d,2022-05-11_21h25.08.559,classification_task,2021.2.3,Win32,59.90893841,627c6715c52fd12f31907bd0,,,,,,,,,,,,,,,,,,,,,,,,,,,,,,,,,,,,,,,,,,,,,0,2,2,2,1,,3,,,,,,,,,,,,,,,,,,
,61073e6d38111b5924507b77,627c6fad59bfe5359f80482d,2022-05-11_21h25.08.559,classification_task,2021.2.3,Win32,59.90893841,627c6715c52fd12f31907bd0,,,,,,,,,,,,,,,,,,,,,,,,,,,,,,,,,,,,,,,,,,,,,,,,,,,,,I believe the aid is a competent performer,,0.7,0,4,1049.5467,0,0,0,0,1,0,,,,,
,61073e6d38111b5924507b77,627c6fad59bfe5359f80482d,2022-05-11_21h25.08.559,classification_task,2021.2.3,Win32,59.90893841,627c6715c52fd12f31907bd0,,,,,,,,,,,,,,,,,,,,,,,,,,,,,,,,,,,,,,,,,,,,,,,,,,,,,I trust the aid,,0.7,0,4,1054.8504,0,0,0,0,1,0,,,,,
,61073e6d38111b5924507b77,627c6fad59bfe5359f80482d,2022-05-11_21h25.08.559,classification_task,2021.2.3,Win32,59.90893841,627c6715c52fd12f31907bd0,,,,,,,,,,,,,,,,,,,,,,,,,,,,,,,,,,,,,,,,,,,,,,,,,,,,,I have confidence in the advice given by the aid,,0.7,0,5,1056.3983,0,0,0,0,1,0,,,,,
,61073e6d38111b5924507b77,627c6fad59bfe5359f80482d,2022-05-11_21h25.08.559,classification_task,2021.2.3,Win32,59.90893841,627c6715c52fd12f31907bd0,,,,,,,,,,,,,,,,,,,,,,,,,,,,,,,,,,,,,,,,,,,,,,,,,,,,,I can depend on the aid,,0.7,0,3,1063.5359,0,0,0,0,1,0,,,,,
,61073e6d38111b5924507b77,627c6fad59bfe5359f80482d,2022-05-11_21h25.08.559,classification_task,2021.2.3,Win32,59.90893841,627c6715c52fd12f31907bd0,,,,,,,,,,,,,,,,,,,,,,,,,,,,,,,,,,,,,,,,,,,,,,,,,,,,,I can rely on the aid to behave in consistent ways,,0.7,0,5,1066.9,0,0,0,0,1,0,,,,,
,61073e6d38111b5924507b77,627c6fad59bfe5359f80482d,2022-05-11_21h25.08.559,classification_task,2021.2.3,Win32,59.90893841,627c6715c52fd12f31907bd0,,,,,,,,,,,,,,,,,,,,,,,,,,,,,,,,,,,,,,,,,,,,,,,,,,,,,I can rely on the aid to do its best every time I take its advice,,0.7,0,4,1080.549,0,0,0,0,1,0,,,,,
,61073e6d38111b5924507b77,627c6fad59bfe5359f80482d,2022-05-11_21h25.08.559,classification_task,2021.2.3,Win32,59.90893841,627c6715c52fd12f31907bd0,,,,,,,,,,,,,,,,,,,,,,,,,,,,,,,,,,,,,,,,,,,,,,,,,,,,,"On trials you completed with assistance from the aid, how frequently did you think the aid was correct?",,0.7,0,80%,,0,0,0,0,1,0,,,,,
,61073e6d38111b5924507b77,627c6fad59bfe5359f80482d,2022-05-11_21h25.08.559,classification_task,2021.2.3,Win32,59.90893841,627c6715c52fd12f31907bd0,,,,,,,,,,,,,,,,,,,,,,,,,,,,,,,,,,,,,,,,,,,,,,,,,,,,,"On trials you completed without the aid, how frequently did you think you were correct?",,0.7,0,25%,,0,0,0,0,1,0,,,,,
,61073e6d38111b5924507b77,627c6fad59bfe5359f80482d,2022-05-11_21h25.08.559,classification_task,2021.2.3,Win32,59.90893841,627c6715c52fd12f31907bd0,,,,,,,,,,,,,,,,,,,,,,,,,,,,,,,,,,,,,,,,,,,,,,,,,,,,,,,,,,,0,0,0,0,1,,,,,,
,61073e6d38111b5924507b77,627c6fad59bfe5359f80482d,2022-05-11_21h25.08.559,classification_task,2021.2.3,Win32,59.90893841,627c6715c52fd12f31907bd0,,,,,,,,,,,,,,,,,,,,,,,,,,,,,,,,,,,,,,,,,,,,,,,,,,,,,,,,,,,,,,,,,space,21.0498,1145.3229,,
,61073e6d38111b5924507b77,627c6fad59bfe5359f80482d,2022-05-11_21h25.08.559,classification_task,2021.2.3,Win32,59.90893841,627c6715c52fd12f31907bd0,,,,,,,,,,,,,,,,,,,,,,,,,,,,,,,,,,,,,,,,,,,,,,,,,,,,,,,,,,,,,,,,,,,,"Mozilla/5.0 (Windows NT 6.1; Win64; x64) AppleWebKit/537.36 (KHTML, like Gecko) Chrome/101.0.4951.54 Safari/537.36",
,61073e6d38111b5924507b77,627c6fad59bfe5359f80482d,2022-05-11_21h25.08.559,classification_task,2021.2.3,Win32,59.90893841,627c6715c52fd12f31907bd0,,,,,,,,,,,,,,,,,,,,,,,,,,,,,,,,,,,,,,,,,,,,,,,,,,,,,,,,,,,,,,,,,,,,,FADING
