usingWebGL,participant,session,date,expName,psychopyVersion,OS,frameRate,PROLIFIC_PID,STUDY_ID,SESSION_ID,signatures_friend,signatures_foe,band_ranges_top,band_ranges_bottom,formitemText,formtype,formundefined,formitemWidth,formindex,formresponse,formrt,key_resp_2.keys,key_resp_2.rt,tute_resp.keys,tute_resp.rt,tutorial.thisRepN,tutorial.thisTrialN,tutorial.thisN,tutorial.thisIndex,tutorial.ran,key_resp_4.keys,key_resp_4.rt,key_resp.keys,key_resp.corr,key_resp.rt,lines_presented,is_signal_presented,trials.thisRepN,trials.thisTrialN,trials.thisN,trials.thisIndex,trials.ran,vessel,active_band,lines,is_signal,supported_pos,catch_trial,debrief_formindex,debrief_formitemText,debrief_formtype,debrief_formitemWidth,debrief_formresponse,debrief_formrt,phases.thisRepN,phases.thisTrialN,phases.thisN,phases.thisIndex,phases.ran,phases.order,phase,key_resp_3.keys,trustitemText,trusttype,trustitemWidth,trustindex,trustresponse,trustrt,support_status.thisRepN,support_status.thisTrialN,support_status.thisN,support_status.thisIndex,support_status.ran,support_status.order,key_resp_5.keys,key_resp_5.rt,globalClockTime,userAgent
TRUE,61074312e42690a97177bb63,001,2022-04-29_03h08.28.185,classification_task,2021.2.3,MacIntel,59.99880002,61074312e42690a97177bb63,626b377229c10585ec392f8a,626b3a7e370e1de6d1d46a94,,,,,,,,,,,,,,,,,,,,,,,,,,,,,,,,,,,,,,,,,,,,,,,,,,,,,,,,,,,,,,,,,,,,
,61074312e42690a97177bb63,001,2022-04-29_03h08.28.185,classification_task,2021.2.3,MacIntel,59.99880002,61074312e42690a97177bb63,626b377229c10585ec392f8a,626b3a7e370e1de6d1d46a94,"[[""0.192"",""0.462"",""0.884"",""0.925""],[""0.308"",""0.419"",""0.613"",""0.959""]]","[[""0.132"",""0.252"",""0.500"",""0.787""],[""0.092"",""0.376"",""0.550"",""0.675""]]","[1,10]","[100,1000]",Video game experience,,,0.7,0,,,,,,,,,,,,,,,,,,,,,,,,,,,,,,,,,,,,,,,,,,,,,,,,,,,,,,,,,,,
,61074312e42690a97177bb63,001,2022-04-29_03h08.28.185,classification_task,2021.2.3,MacIntel,59.99880002,61074312e42690a97177bb63,626b377229c10585ec392f8a,626b3a7e370e1de6d1d46a94,,,,,Approximately how many hours did you spend playing video games in the last week?,,,0.7,0,0,,,,,,,,,,,,,,,,,,,,,,,,,,,,,,,,,,,,,,,,,,,,,,,,,,,,,,,,,,
,61074312e42690a97177bb63,001,2022-04-29_03h08.28.185,classification_task,2021.2.3,MacIntel,59.99880002,61074312e42690a97177bb63,626b377229c10585ec392f8a,626b3a7e370e1de6d1d46a94,,,,,"Which game did you play the most this year? (Enter ""None"" if you didn't play any)",,,0.7,0,none,,,,,,,,,,,,,,,,,,,,,,,,,,,,,,,,,,,,,,,,,,,,,,,,,,,,,,,,,,
,61074312e42690a97177bb63,001,2022-04-29_03h08.28.185,classification_task,2021.2.3,MacIntel,59.99880002,61074312e42690a97177bb63,626b377229c10585ec392f8a,626b3a7e370e1de6d1d46a94,,,,,Visual perception,,,0.7,0,,,,,,,,,,,,,,,,,,,,,,,,,,,,,,,,,,,,,,,,,,,,,,,,,,,,,,,,,,,
,61074312e42690a97177bb63,001,2022-04-29_03h08.28.185,classification_task,2021.2.3,MacIntel,59.99880002,61074312e42690a97177bb63,626b377229c10585ec392f8a,626b3a7e370e1de6d1d46a94,,,,,Do you have any form of color blindness?,,,0.7,0,No,23.8338,,,,,,,,,,,,,,,,,,,,,,,,,,,,,,,,,,,,,,,,,,,,,,,,,,,,,,,,,
,61074312e42690a97177bb63,001,2022-04-29_03h08.28.185,classification_task,2021.2.3,MacIntel,59.99880002,61074312e42690a97177bb63,626b377229c10585ec392f8a,626b3a7e370e1de6d1d46a94,,,,,Do you use software to change the colour temperature of your screen (e.g. f.lux)?,,,0.7,0,No,25.8645,,,,,,,,,,,,,,,,,,,,,,,,,,,,,,,,,,,,,,,,,,,,,,,,,,,,,,,,,
,61074312e42690a97177bb63,001,2022-04-29_03h08.28.185,classification_task,2021.2.3,MacIntel,59.99880002,61074312e42690a97177bb63,626b377229c10585ec392f8a,626b3a7e370e1de6d1d46a94,,,,,,,,,,,,space,13.0854,space,6.6878,0,0,0,0,1,,,,,,,,,,,,,,,,,,,,,,,,,,,,,,,,,,,,,,,,,,,,,,,,
,61074312e42690a97177bb63,001,2022-04-29_03h08.28.185,classification_task,2021.2.3,MacIntel,59.99880002,61074312e42690a97177bb63,626b377229c10585ec392f8a,626b3a7e370e1de6d1d46a94,,,,,,,,,,,,,,space,5.8192,1,0,1,0,1,,,,,,,,,,,,,,,,,,,,,,,,,,,,,,,,,,,,,,,,,,,,,,,,
,61074312e42690a97177bb63,001,2022-04-29_03h08.28.185,classification_task,2021.2.3,MacIntel,59.99880002,61074312e42690a97177bb63,626b377229c10585ec392f8a,626b3a7e370e1de6d1d46a94,,,,,,,,,,,,,,space,18.959,2,0,2,0,1,,,,,,,,,,,,,,,,,,,,,,,,,,,,,,,,,,,,,,,,,,,,,,,,
,61074312e42690a97177bb63,001,2022-04-29_03h08.28.185,classification_task,2021.2.3,MacIntel,59.99880002,61074312e42690a97177bb63,626b377229c10585ec392f8a,626b3a7e370e1de6d1d46a94,,,,,,,,,,,,,,space,8.3125,3,0,3,0,1,,,,,,,,,,,,,,,,,,,,,,,,,,,,,,,,,,,,,,,,,,,,,,,,
,61074312e42690a97177bb63,001,2022-04-29_03h08.28.185,classification_task,2021.2.3,MacIntel,59.99880002,61074312e42690a97177bb63,626b377229c10585ec392f8a,626b3a7e370e1de6d1d46a94,,,,,,,,,,,,,,space,8.5015,4,0,4,0,1,,,,,,,,,,,,,,,,,,,,,,,,,,,,,,,,,,,,,,,,,,,,,,,,
,61074312e42690a97177bb63,001,2022-04-29_03h08.28.185,classification_task,2021.2.3,MacIntel,59.99880002,61074312e42690a97177bb63,626b377229c10585ec392f8a,626b3a7e370e1de6d1d46a94,,,,,,,,,,,,,,,,,,,,,space,8.8036,a,1,4.3513,"[""0.192"",""0.462"",""0.884"",""0.743""]","[1,1,1,0]",0,0,0,0,1,0,0,,,1,FALSE,,,,,,,,,,,,,,,,,,,,,,,,,,,,,,
,61074312e42690a97177bb63,001,2022-04-29_03h08.28.185,classification_task,2021.2.3,MacIntel,59.99880002,61074312e42690a97177bb63,626b377229c10585ec392f8a,626b3a7e370e1de6d1d46a94,,,,,,,,,,,,,,,,,,,,,,,a,1,2.6427,"[""0.192"",""0.462"",""0.746"",""0.925""]","[1,1,0,1]",0,1,1,1,1,0,0,,,1,FALSE,,,,,,,,,,,,,,,,,,,,,,,,,,,,,,
,61074312e42690a97177bb63,001,2022-04-29_03h08.28.185,classification_task,2021.2.3,MacIntel,59.99880002,61074312e42690a97177bb63,626b377229c10585ec392f8a,626b3a7e370e1de6d1d46a94,,,,,,,,,,,,,,,,,,,,,,,l,1,8.2657,"[""0.092"",""0.376"",""0.550"",""0.030""]","[1,1,1,0]",0,2,2,2,1,1,1,,,1,FALSE,,,,,,,,,,,,,,,,,,,,,,,,,,,,,,
,61074312e42690a97177bb63,001,2022-04-29_03h08.28.185,classification_task,2021.2.3,MacIntel,59.99880002,61074312e42690a97177bb63,626b377229c10585ec392f8a,626b3a7e370e1de6d1d46a94,,,,,,,,,,,,,,,,,,,,,,,l,1,5.5272,"[""0.718"",""0.376"",""0.550"",""0.675""]","[0,1,1,1]",0,3,3,3,1,1,1,,,1,FALSE,,,,,,,,,,,,,,,,,,,,,,,,,,,,,,
,61074312e42690a97177bb63,001,2022-04-29_03h08.28.185,classification_task,2021.2.3,MacIntel,59.99880002,61074312e42690a97177bb63,626b377229c10585ec392f8a,626b3a7e370e1de6d1d46a94,,,,,,,,,,,,,,,,,,,,,,,a,1,3.6498,"[""0.743"",""0.419"",""0.613"",""0.959""]","[0,1,1,1]",0,4,4,4,1,0,1,,,1,FALSE,,,,,,,,,,,,,,,,,,,,,,,,,,,,,,
,61074312e42690a97177bb63,001,2022-04-29_03h08.28.185,classification_task,2021.2.3,MacIntel,59.99880002,61074312e42690a97177bb63,626b377229c10585ec392f8a,626b3a7e370e1de6d1d46a94,,,,,,,,,,,,,,,,,,,,,,,a,0,2.8306,"[""0.092"",""0.376"",""0.718"",""0.675""]","[1,1,0,1]",0,5,5,5,1,1,1,,,1,FALSE,,,,,,,,,,,,,,,,,,,,,,,,,,,,,,
,61074312e42690a97177bb63,001,2022-04-29_03h08.28.185,classification_task,2021.2.3,MacIntel,59.99880002,61074312e42690a97177bb63,626b377229c10585ec392f8a,626b3a7e370e1de6d1d46a94,,,,,,,,,,,,,,,,,,,,,,,l,1,5.9459,"[""0.132"",""0.046"",""0.500"",""0.787""]","[1,0,1,1]",0,6,6,6,1,1,0,,,1,FALSE,,,,,,,,,,,,,,,,,,,,,,,,,,,,,,
,61074312e42690a97177bb63,001,2022-04-29_03h08.28.185,classification_task,2021.2.3,MacIntel,59.99880002,61074312e42690a97177bb63,626b377229c10585ec392f8a,626b3a7e370e1de6d1d46a94,,,,,,,,,,,,,,,,,,,,,,,a,1,5.9368,"[""0.046"",""0.462"",""0.884"",""0.925""]","[0,1,1,1]",0,7,7,7,1,0,0,,,1,FALSE,,,,,,,,,,,,,,,,,,,,,,,,,,,,,,
,61074312e42690a97177bb63,001,2022-04-29_03h08.28.185,classification_task,2021.2.3,MacIntel,59.99880002,61074312e42690a97177bb63,626b377229c10585ec392f8a,626b3a7e370e1de6d1d46a94,,,,,,,,,,,,,,,,,,,,,,,l,1,4.6311,"[""0.748"",""0.252"",""0.500"",""0.787""]","[0,1,1,1]",0,8,8,8,1,1,0,,,1,FALSE,,,,,,,,,,,,,,,,,,,,,,,,,,,,,,
,61074312e42690a97177bb63,001,2022-04-29_03h08.28.185,classification_task,2021.2.3,MacIntel,59.99880002,61074312e42690a97177bb63,626b377229c10585ec392f8a,626b3a7e370e1de6d1d46a94,,,,,,,,,,,,,,,,,,,,,,,a,1,4.4308,"[""0.308"",""0.419"",""0.033"",""0.959""]","[1,1,0,1]",0,9,9,9,1,0,1,,,1,FALSE,,,,,,,,,,,,,,,,,,,,,,,,,,,,,,
,61074312e42690a97177bb63,001,2022-04-29_03h08.28.185,classification_task,2021.2.3,MacIntel,59.99880002,61074312e42690a97177bb63,626b377229c10585ec392f8a,626b3a7e370e1de6d1d46a94,,,,,,,,,,,,,,,,,,,,,,,a,1,2.0063,"[""0.308"",""0.743"",""0.613"",""0.959""]","[1,0,1,1]",0,10,10,10,1,0,1,,,1,FALSE,,,,,,,,,,,,,,,,,,,,,,,,,,,,,,
,61074312e42690a97177bb63,001,2022-04-29_03h08.28.185,classification_task,2021.2.3,MacIntel,59.99880002,61074312e42690a97177bb63,626b377229c10585ec392f8a,626b3a7e370e1de6d1d46a94,,,,,,,,,,,,,,,,,,,,,,,l,1,3.3115,"[""0.132"",""0.252"",""0.036"",""0.787""]","[1,1,0,1]",0,11,11,11,1,1,0,,,1,FALSE,,,,,,,,,,,,,,,,,,,,,,,,,,,,,,
,61074312e42690a97177bb63,001,2022-04-29_03h08.28.185,classification_task,2021.2.3,MacIntel,59.99880002,61074312e42690a97177bb63,626b377229c10585ec392f8a,626b3a7e370e1de6d1d46a94,,,,,,,,,,,,,,,,,,,,,,,l,1,2.0604,"[""0.132"",""0.252"",""0.500"",""0.710""]","[1,1,1,0]",0,12,12,12,1,1,0,,,1,FALSE,,,,,,,,,,,,,,,,,,,,,,,,,,,,,,
,61074312e42690a97177bb63,001,2022-04-29_03h08.28.185,classification_task,2021.2.3,MacIntel,59.99880002,61074312e42690a97177bb63,626b377229c10585ec392f8a,626b3a7e370e1de6d1d46a94,,,,,,,,,,,,,,,,,,,,,,,a,1,3.6113,"[""0.308"",""0.419"",""0.613"",""0.036""]","[1,1,1,0]",0,13,13,13,1,0,1,,,1,FALSE,,,,,,,,,,,,,,,,,,,,,,,,,,,,,,
,61074312e42690a97177bb63,001,2022-04-29_03h08.28.185,classification_task,2021.2.3,MacIntel,59.99880002,61074312e42690a97177bb63,626b377229c10585ec392f8a,626b3a7e370e1de6d1d46a94,,,,,,,,,,,,,,,,,,,,,,,l,1,3.1088,"[""0.092"",""0.743"",""0.550"",""0.675""]","[1,0,1,1]",0,14,14,14,1,1,1,,,1,FALSE,,,,,,,,,,,,,,,,,,,,,,,,,,,,,,
,61074312e42690a97177bb63,001,2022-04-29_03h08.28.185,classification_task,2021.2.3,MacIntel,59.99880002,61074312e42690a97177bb63,626b377229c10585ec392f8a,626b3a7e370e1de6d1d46a94,,,,,,,,,,,,,,,,,,,,,,,a,1,6.4561,"[""0.192"",""0.036"",""0.884"",""0.925""]","[1,0,1,1]",0,15,15,15,1,0,0,,,1,FALSE,,,,,,,,,,,,,,,,,,,,,,,,,,,,,,
,61074312e42690a97177bb63,001,2022-04-29_03h08.28.185,classification_task,2021.2.3,MacIntel,59.99880002,61074312e42690a97177bb63,626b377229c10585ec392f8a,626b3a7e370e1de6d1d46a94,,,,,,,,,,,,,,,,,,,,,,,l,1,2.6533,"[""0.046"",""0.252"",""0.500"",""0.787""]","[0,1,1,1]",0,16,16,16,1,1,0,,,1,FALSE,,,,,,,,,,,,,,,,,,,,,,,,,,,,,,
,61074312e42690a97177bb63,001,2022-04-29_03h08.28.185,classification_task,2021.2.3,MacIntel,59.99880002,61074312e42690a97177bb63,626b377229c10585ec392f8a,626b3a7e370e1de6d1d46a94,,,,,,,,,,,,,,,,,,,,,,,a,1,4.2999,"[""0.308"",""0.419"",""0.613"",""0.727""]","[1,1,1,0]",0,17,17,17,1,0,1,,,1,FALSE,,,,,,,,,,,,,,,,,,,,,,,,,,,,,,
,61074312e42690a97177bb63,001,2022-04-29_03h08.28.185,classification_task,2021.2.3,MacIntel,59.99880002,61074312e42690a97177bb63,626b377229c10585ec392f8a,626b3a7e370e1de6d1d46a94,,,,,,,,,,,,,,,,,,,,,,,l,1,2.5104,"[""0.132"",""0.252"",""0.500"",""0.030""]","[1,1,1,0]",0,18,18,18,1,1,0,,,1,FALSE,,,,,,,,,,,,,,,,,,,,,,,,,,,,,,
,61074312e42690a97177bb63,001,2022-04-29_03h08.28.185,classification_task,2021.2.3,MacIntel,59.99880002,61074312e42690a97177bb63,626b377229c10585ec392f8a,626b3a7e370e1de6d1d46a94,,,,,,,,,,,,,,,,,,,,,,,l,1,3.7829,"[""0.033"",""0.376"",""0.550"",""0.675""]","[0,1,1,1]",0,19,19,19,1,1,1,,,1,FALSE,,,,,,,,,,,,,,,,,,,,,,,,,,,,,,
,61074312e42690a97177bb63,001,2022-04-29_03h08.28.185,classification_task,2021.2.3,MacIntel,59.99880002,61074312e42690a97177bb63,626b377229c10585ec392f8a,626b3a7e370e1de6d1d46a94,,,,,,,,,,,,,,,,,,,,,,,a,1,3.7417,"[""0.192"",""0.462"",""0.046"",""0.925""]","[1,1,0,1]",0,20,20,20,1,0,0,,,1,FALSE,,,,,,,,,,,,,,,,,,,,,,,,,,,,,,
,61074312e42690a97177bb63,001,2022-04-29_03h08.28.185,classification_task,2021.2.3,MacIntel,59.99880002,61074312e42690a97177bb63,626b377229c10585ec392f8a,626b3a7e370e1de6d1d46a94,,,,,,,,,,,,,,,,,,,,,,,a,1,2.179,"[""0.192"",""0.462"",""0.884"",""0.036""]","[1,1,1,0]",0,21,21,21,1,0,0,,,1,FALSE,,,,,,,,,,,,,,,,,,,,,,,,,,,,,,
,61074312e42690a97177bb63,001,2022-04-29_03h08.28.185,classification_task,2021.2.3,MacIntel,59.99880002,61074312e42690a97177bb63,626b377229c10585ec392f8a,626b3a7e370e1de6d1d46a94,,,,,,,,,,,,,,,,,,,,,,,l,1,2.6983,"[""0.092"",""0.748"",""0.550"",""0.675""]","[1,0,1,1]",0,22,22,22,1,1,1,,,1,FALSE,,,,,,,,,,,,,,,,,,,,,,,,,,,,,,
,61074312e42690a97177bb63,001,2022-04-29_03h08.28.185,classification_task,2021.2.3,MacIntel,59.99880002,61074312e42690a97177bb63,626b377229c10585ec392f8a,626b3a7e370e1de6d1d46a94,,,,,,,,,,,,,,,,,,,,,,,a,1,4.7073,"[""0.036"",""0.462"",""0.884"",""0.925""]","[0,1,1,1]",0,23,23,23,1,0,0,,,1,FALSE,,,,,,,,,,,,,,,,,,,,,,,,,,,,,,
,61074312e42690a97177bb63,001,2022-04-29_03h08.28.185,classification_task,2021.2.3,MacIntel,59.99880002,61074312e42690a97177bb63,626b377229c10585ec392f8a,626b3a7e370e1de6d1d46a94,,,,,,,,,,,,,,,,,,,,,,,a,1,5.3756,"[""0.308"",""0.036"",""0.613"",""0.959""]","[1,0,1,1]",0,24,24,24,1,0,1,,,1,FALSE,,,,,,,,,,,,,,,,,,,,,,,,,,,,,,
,61074312e42690a97177bb63,001,2022-04-29_03h08.28.185,classification_task,2021.2.3,MacIntel,59.99880002,61074312e42690a97177bb63,626b377229c10585ec392f8a,626b3a7e370e1de6d1d46a94,,,,,,,,,,,,,,,,,,,,,,,l,1,2.6764,"[""0.132"",""0.252"",""0.727"",""0.787""]","[1,1,0,1]",0,25,25,25,1,1,0,,,1,FALSE,,,,,,,,,,,,,,,,,,,,,,,,,,,,,,
,61074312e42690a97177bb63,001,2022-04-29_03h08.28.185,classification_task,2021.2.3,MacIntel,59.99880002,61074312e42690a97177bb63,626b377229c10585ec392f8a,626b3a7e370e1de6d1d46a94,,,,,,,,,,,,,,,,,,,,,,,a,1,3.3778,"[""0.192"",""0.743"",""0.884"",""0.925""]","[1,0,1,1]",0,26,26,26,1,0,0,,,1,FALSE,,,,,,,,,,,,,,,,,,,,,,,,,,,,,,
,61074312e42690a97177bb63,001,2022-04-29_03h08.28.185,classification_task,2021.2.3,MacIntel,59.99880002,61074312e42690a97177bb63,626b377229c10585ec392f8a,626b3a7e370e1de6d1d46a94,,,,,,,,,,,,,,,,,,,,,,,a,1,2.6001,"[""0.743"",""0.419"",""0.613"",""0.959""]","[0,1,1,1]",0,27,27,27,1,0,1,,,1,FALSE,,,,,,,,,,,,,,,,,,,,,,,,,,,,,,
,61074312e42690a97177bb63,001,2022-04-29_03h08.28.185,classification_task,2021.2.3,MacIntel,59.99880002,61074312e42690a97177bb63,626b377229c10585ec392f8a,626b3a7e370e1de6d1d46a94,,,,,,,,,,,,,,,,,,,,,,,l,1,2.0793,"[""0.092"",""0.376"",""0.046"",""0.675""]","[1,1,0,1]",0,28,28,28,1,1,1,,,1,FALSE,,,,,,,,,,,,,,,,,,,,,,,,,,,,,,
,61074312e42690a97177bb63,001,2022-04-29_03h08.28.185,classification_task,2021.2.3,MacIntel,59.99880002,61074312e42690a97177bb63,626b377229c10585ec392f8a,626b3a7e370e1de6d1d46a94,,,,,,,,,,,,,,,,,,,,,,,a,1,4.8854,"[""0.308"",""0.419"",""0.743"",""0.959""]","[1,1,0,1]",0,29,29,29,1,0,1,,,1,FALSE,,,,,,,,,,,,,,,,,,,,,,,,,,,,,,
,61074312e42690a97177bb63,001,2022-04-29_03h08.28.185,classification_task,2021.2.3,MacIntel,59.99880002,61074312e42690a97177bb63,626b377229c10585ec392f8a,626b3a7e370e1de6d1d46a94,,,,,,,,,,,,,,,,,,,,,,,l,1,2.3297,"[""0.132"",""0.028"",""0.500"",""0.787""]","[1,0,1,1]",0,30,30,30,1,1,0,,,1,FALSE,,,,,,,,,,,,,,,,,,,,,,,,,,,,,,
,61074312e42690a97177bb63,001,2022-04-29_03h08.28.185,classification_task,2021.2.3,MacIntel,59.99880002,61074312e42690a97177bb63,626b377229c10585ec392f8a,626b3a7e370e1de6d1d46a94,,,,,,,,,,,,,,,,,,,,,,,l,1,3.6208,"[""0.092"",""0.376"",""0.550"",""0.030""]","[1,1,1,0]",0,31,31,31,1,1,1,,,1,FALSE,,,,,,,,,,,,,,,,,,,,,,,,,,,,,,
,61074312e42690a97177bb63,001,2022-04-29_03h08.28.185,classification_task,2021.2.3,MacIntel,59.99880002,61074312e42690a97177bb63,626b377229c10585ec392f8a,626b3a7e370e1de6d1d46a94,,,,,,,,,,,,,,,,,,,,,,,l,0,5.2974,"[""0.308"",""0.748"",""0.613"",""0.959""]","[1,0,1,1]",0,32,32,32,1,0,1,,,1,FALSE,,,,,,,,,,,,,,,,,,,,,,,,,,,,,,
,61074312e42690a97177bb63,001,2022-04-29_03h08.28.185,classification_task,2021.2.3,MacIntel,59.99880002,61074312e42690a97177bb63,626b377229c10585ec392f8a,626b3a7e370e1de6d1d46a94,,,,,,,,,,,,,,,,,,,,,,,l,1,1.4547,"[""0.092"",""0.735"",""0.550"",""0.675""]","[1,0,1,1]",0,33,33,33,1,1,1,,,1,FALSE,,,,,,,,,,,,,,,,,,,,,,,,,,,,,,
,61074312e42690a97177bb63,001,2022-04-29_03h08.28.185,classification_task,2021.2.3,MacIntel,59.99880002,61074312e42690a97177bb63,626b377229c10585ec392f8a,626b3a7e370e1de6d1d46a94,,,,,,,,,,,,,,,,,,,,,,,l,0,2.4976,"[""0.743"",""0.462"",""0.884"",""0.925""]","[0,1,1,1]",0,34,34,34,1,0,0,,,1,FALSE,,,,,,,,,,,,,,,,,,,,,,,,,,,,,,
,61074312e42690a97177bb63,001,2022-04-29_03h08.28.185,classification_task,2021.2.3,MacIntel,59.99880002,61074312e42690a97177bb63,626b377229c10585ec392f8a,626b3a7e370e1de6d1d46a94,,,,,,,,,,,,,,,,,,,,,,,a,1,1.6515,"[""0.308"",""0.419"",""0.743"",""0.959""]","[1,1,0,1]",0,35,35,35,1,0,1,,,1,FALSE,,,,,,,,,,,,,,,,,,,,,,,,,,,,,,
,61074312e42690a97177bb63,001,2022-04-29_03h08.28.185,classification_task,2021.2.3,MacIntel,59.99880002,61074312e42690a97177bb63,626b377229c10585ec392f8a,626b3a7e370e1de6d1d46a94,,,,,,,,,,,,,,,,,,,,,,,a,0,4.6003,"[""0.092"",""0.376"",""0.736"",""0.675""]","[1,1,0,1]",0,36,36,36,1,1,1,,,1,FALSE,,,,,,,,,,,,,,,,,,,,,,,,,,,,,,
,61074312e42690a97177bb63,001,2022-04-29_03h08.28.185,classification_task,2021.2.3,MacIntel,59.99880002,61074312e42690a97177bb63,626b377229c10585ec392f8a,626b3a7e370e1de6d1d46a94,,,,,,,,,,,,,,,,,,,,,,,a,1,4.0917,"[""0.192"",""0.748"",""0.884"",""0.925""]","[1,0,1,1]",0,37,37,37,1,0,0,,,1,FALSE,,,,,,,,,,,,,,,,,,,,,,,,,,,,,,
,61074312e42690a97177bb63,001,2022-04-29_03h08.28.185,classification_task,2021.2.3,MacIntel,59.99880002,61074312e42690a97177bb63,626b377229c10585ec392f8a,626b3a7e370e1de6d1d46a94,,,,,,,,,,,,,,,,,,,,,,,l,0,1.4206,"[""0.308"",""0.419"",""0.613"",""0.028""]","[1,1,1,0]",0,38,38,38,1,0,1,,,1,FALSE,,,,,,,,,,,,,,,,,,,,,,,,,,,,,,
,61074312e42690a97177bb63,001,2022-04-29_03h08.28.185,classification_task,2021.2.3,MacIntel,59.99880002,61074312e42690a97177bb63,626b377229c10585ec392f8a,626b3a7e370e1de6d1d46a94,,,,,,,,,,,,,,,,,,,,,,,l,0,1.5088,"[""0.192"",""0.462"",""0.049"",""0.925""]","[1,1,0,1]",0,39,39,39,1,0,0,,,1,FALSE,,,,,,,,,,,,,,,,,,,,,,,,,,,,,,
,61074312e42690a97177bb63,001,2022-04-29_03h08.28.185,classification_task,2021.2.3,MacIntel,59.99880002,61074312e42690a97177bb63,626b377229c10585ec392f8a,626b3a7e370e1de6d1d46a94,,,,,,,,,,,,,,,,,,,,,,,l,1,1.8061,"[""0.028"",""0.376"",""0.550"",""0.675""]","[0,1,1,1]",0,40,40,40,1,1,1,,,1,FALSE,,,,,,,,,,,,,,,,,,,,,,,,,,,,,,
,61074312e42690a97177bb63,001,2022-04-29_03h08.28.185,classification_task,2021.2.3,MacIntel,59.99880002,61074312e42690a97177bb63,626b377229c10585ec392f8a,626b3a7e370e1de6d1d46a94,,,,,,,,,,,,,,,,,,,,,,,a,0,1.7806,"[""0.132"",""0.252"",""0.727"",""0.787""]","[1,1,0,1]",0,41,41,41,1,1,0,,,1,FALSE,,,,,,,,,,,,,,,,,,,,,,,,,,,,,,
,61074312e42690a97177bb63,001,2022-04-29_03h08.28.185,classification_task,2021.2.3,MacIntel,59.99880002,61074312e42690a97177bb63,626b377229c10585ec392f8a,626b3a7e370e1de6d1d46a94,,,,,,,,,,,,,,,,,,,,,,,a,0,2.1102,"[""0.132"",""0.252"",""0.500"",""0.033""]","[1,1,1,0]",0,42,42,42,1,1,0,,,1,FALSE,,,,,,,,,,,,,,,,,,,,,,,,,,,,,,
,61074312e42690a97177bb63,001,2022-04-29_03h08.28.185,classification_task,2021.2.3,MacIntel,59.99880002,61074312e42690a97177bb63,626b377229c10585ec392f8a,626b3a7e370e1de6d1d46a94,,,,,,,,,,,,,,,,,,,,,,,a,1,2.5055,"[""0.192"",""0.462"",""0.884"",""0.743""]","[1,1,1,0]",0,43,43,43,1,0,0,,,1,FALSE,,,,,,,,,,,,,,,,,,,,,,,,,,,,,,
,61074312e42690a97177bb63,001,2022-04-29_03h08.28.185,classification_task,2021.2.3,MacIntel,59.99880002,61074312e42690a97177bb63,626b377229c10585ec392f8a,626b3a7e370e1de6d1d46a94,,,,,,,,,,,,,,,,,,,,,,,a,0,1.3591,"[""0.743"",""0.252"",""0.500"",""0.787""]","[0,1,1,1]",0,44,44,44,1,1,0,,,1,FALSE,,,,,,,,,,,,,,,,,,,,,,,,,,,,,,
,61074312e42690a97177bb63,001,2022-04-29_03h08.28.185,classification_task,2021.2.3,MacIntel,59.99880002,61074312e42690a97177bb63,626b377229c10585ec392f8a,626b3a7e370e1de6d1d46a94,,,,,,,,,,,,,,,,,,,,,,,l,0,1.8261,"[""0.735"",""0.419"",""0.613"",""0.959""]","[0,1,1,1]",0,45,45,45,1,0,1,,,1,FALSE,,,,,,,,,,,,,,,,,,,,,,,,,,,,,,
,61074312e42690a97177bb63,001,2022-04-29_03h08.28.185,classification_task,2021.2.3,MacIntel,59.99880002,61074312e42690a97177bb63,626b377229c10585ec392f8a,626b3a7e370e1de6d1d46a94,,,,,,,,,,,,,,,,,,,,,,,l,1,1.4099,"[""0.132"",""0.735"",""0.500"",""0.787""]","[1,0,1,1]",0,46,46,46,1,1,0,,,1,FALSE,,,,,,,,,,,,,,,,,,,,,,,,,,,,,,
,61074312e42690a97177bb63,001,2022-04-29_03h08.28.185,classification_task,2021.2.3,MacIntel,59.99880002,61074312e42690a97177bb63,626b377229c10585ec392f8a,626b3a7e370e1de6d1d46a94,,,,,,,,,,,,,,,,,,,,,,,a,0,1.2952,"[""0.092"",""0.376"",""0.550"",""0.748""]","[1,1,1,0]",0,47,47,47,1,1,1,,,1,FALSE,,,,,,,,,,,,,,,,,,,,,,,,,,,,,,
,61074312e42690a97177bb63,001,2022-04-29_03h08.28.185,classification_task,2021.2.3,MacIntel,59.99880002,61074312e42690a97177bb63,626b377229c10585ec392f8a,626b3a7e370e1de6d1d46a94,,,,,,,,,,,,,,,,,,,,,,,l,0,1.7662,"[""0.308"",""0.030"",""0.613"",""0.959""]","[1,0,1,1]",0,48,48,48,1,0,1,,,1,FALSE,,,,,,,,,,,,,,,,,,,,,,,,,,,,,,
,61074312e42690a97177bb63,001,2022-04-29_03h08.28.185,classification_task,2021.2.3,MacIntel,59.99880002,61074312e42690a97177bb63,626b377229c10585ec392f8a,626b3a7e370e1de6d1d46a94,,,,,,,,,,,,,,,,,,,,,,,l,1,2.3043,"[""0.132"",""0.746"",""0.500"",""0.787""]","[1,0,1,1]",0,49,49,49,1,1,0,,,1,FALSE,,,,,,,,,,,,,,,,,,,,,,,,,,,,,,
,61074312e42690a97177bb63,001,2022-04-29_03h08.28.185,classification_task,2021.2.3,MacIntel,59.99880002,61074312e42690a97177bb63,626b377229c10585ec392f8a,626b3a7e370e1de6d1d46a94,,,,,,,,,,,,,,,,,,,,,,,l,1,0.8622,"[""0.132"",""0.252"",""0.727"",""0.787""]","[1,1,0,1]",0,50,50,50,1,1,0,,,1,FALSE,,,,,,,,,,,,,,,,,,,,,,,,,,,,,,
,61074312e42690a97177bb63,001,2022-04-29_03h08.28.185,classification_task,2021.2.3,MacIntel,59.99880002,61074312e42690a97177bb63,626b377229c10585ec392f8a,626b3a7e370e1de6d1d46a94,,,,,,,,,,,,,,,,,,,,,,,a,0,0.8031,"[""0.132"",""0.252"",""0.500"",""0.748""]","[1,1,1,0]",0,51,51,51,1,1,0,,,1,FALSE,,,,,,,,,,,,,,,,,,,,,,,,,,,,,,
,61074312e42690a97177bb63,001,2022-04-29_03h08.28.185,classification_task,2021.2.3,MacIntel,59.99880002,61074312e42690a97177bb63,626b377229c10585ec392f8a,626b3a7e370e1de6d1d46a94,,,,,,,,,,,,,,,,,,,,,,,a,0,1.7749,"[""0.092"",""0.746"",""0.550"",""0.675""]","[1,0,1,1]",0,52,52,52,1,1,1,,,1,FALSE,,,,,,,,,,,,,,,,,,,,,,,,,,,,,,
,61074312e42690a97177bb63,001,2022-04-29_03h08.28.185,classification_task,2021.2.3,MacIntel,59.99880002,61074312e42690a97177bb63,626b377229c10585ec392f8a,626b3a7e370e1de6d1d46a94,,,,,,,,,,,,,,,,,,,,,,,l,0,1.2098,"[""0.192"",""0.718"",""0.884"",""0.925""]","[1,0,1,1]",0,53,53,53,1,0,0,,,1,FALSE,,,,,,,,,,,,,,,,,,,,,,,,,,,,,,
,61074312e42690a97177bb63,001,2022-04-29_03h08.28.185,classification_task,2021.2.3,MacIntel,59.99880002,61074312e42690a97177bb63,626b377229c10585ec392f8a,626b3a7e370e1de6d1d46a94,,,,,,,,,,,,,,,,,,,,,,,l,0,1.4138,"[""0.308"",""0.419"",""0.028"",""0.959""]","[1,1,0,1]",0,54,54,54,1,0,1,,,1,FALSE,,,,,,,,,,,,,,,,,,,,,,,,,,,,,,
,61074312e42690a97177bb63,001,2022-04-29_03h08.28.185,classification_task,2021.2.3,MacIntel,59.99880002,61074312e42690a97177bb63,626b377229c10585ec392f8a,626b3a7e370e1de6d1d46a94,,,,,,,,,,,,,,,,,,,,,,,a,0,1.0587,"[""0.049"",""0.252"",""0.500"",""0.787""]","[0,1,1,1]",0,55,55,55,1,1,0,,,1,FALSE,,,,,,,,,,,,,,,,,,,,,,,,,,,,,,
,61074312e42690a97177bb63,001,2022-04-29_03h08.28.185,classification_task,2021.2.3,MacIntel,59.99880002,61074312e42690a97177bb63,626b377229c10585ec392f8a,626b3a7e370e1de6d1d46a94,,,,,,,,,,,,,,,,,,,,,,,a,1,1.1037,"[""0.743"",""0.419"",""0.613"",""0.959""]","[0,1,1,1]",0,56,56,56,1,0,1,,,1,FALSE,,,,,,,,,,,,,,,,,,,,,,,,,,,,,,
,61074312e42690a97177bb63,001,2022-04-29_03h08.28.185,classification_task,2021.2.3,MacIntel,59.99880002,61074312e42690a97177bb63,626b377229c10585ec392f8a,626b3a7e370e1de6d1d46a94,,,,,,,,,,,,,,,,,,,,,,,a,1,0.9638,"[""0.192"",""0.462"",""0.743"",""0.925""]","[1,1,0,1]",0,57,57,57,1,0,0,,,1,FALSE,,,,,,,,,,,,,,,,,,,,,,,,,,,,,,
,61074312e42690a97177bb63,001,2022-04-29_03h08.28.185,classification_task,2021.2.3,MacIntel,59.99880002,61074312e42690a97177bb63,626b377229c10585ec392f8a,626b3a7e370e1de6d1d46a94,,,,,,,,,,,,,,,,,,,,,,,a,1,0.9302,"[""0.308"",""0.419"",""0.613"",""0.736""]","[1,1,1,0]",0,58,58,58,1,0,1,,,1,FALSE,,,,,,,,,,,,,,,,,,,,,,,,,,,,,,
,61074312e42690a97177bb63,001,2022-04-29_03h08.28.185,classification_task,2021.2.3,MacIntel,59.99880002,61074312e42690a97177bb63,626b377229c10585ec392f8a,626b3a7e370e1de6d1d46a94,,,,,,,,,,,,,,,,,,,,,,,l,0,1.1216,"[""0.192"",""0.462"",""0.884"",""0.028""]","[1,1,1,0]",0,59,59,59,1,0,0,,,1,FALSE,,,,,,,,,,,,,,,,,,,,,,,,,,,,,,
,61074312e42690a97177bb63,001,2022-04-29_03h08.28.185,classification_task,2021.2.3,MacIntel,59.99880002,61074312e42690a97177bb63,626b377229c10585ec392f8a,626b3a7e370e1de6d1d46a94,,,,,,,,,,,,,,,,,,,,,,,l,1,1.6552,"[""0.046"",""0.376"",""0.550"",""0.675""]","[0,1,1,1]",0,60,60,60,1,1,1,,,1,FALSE,,,,,,,,,,,,,,,,,,,,,,,,,,,,,,
,61074312e42690a97177bb63,001,2022-04-29_03h08.28.185,classification_task,2021.2.3,MacIntel,59.99880002,61074312e42690a97177bb63,626b377229c10585ec392f8a,626b3a7e370e1de6d1d46a94,,,,,,,,,,,,,,,,,,,,,,,l,1,1.0302,"[""0.092"",""0.376"",""0.748"",""0.675""]","[1,1,0,1]",0,61,61,61,1,1,1,,,1,FALSE,,,,,,,,,,,,,,,,,,,,,,,,,,,,,,
,61074312e42690a97177bb63,001,2022-04-29_03h08.28.185,classification_task,2021.2.3,MacIntel,59.99880002,61074312e42690a97177bb63,626b377229c10585ec392f8a,626b3a7e370e1de6d1d46a94,,,,,,,,,,,,,,,,,,,,,,,a,1,2.1332,"[""0.743"",""0.462"",""0.884"",""0.925""]","[0,1,1,1]",0,62,62,62,1,0,0,,,1,FALSE,,,,,,,,,,,,,,,,,,,,,,,,,,,,,,
,61074312e42690a97177bb63,001,2022-04-29_03h08.28.185,classification_task,2021.2.3,MacIntel,59.99880002,61074312e42690a97177bb63,626b377229c10585ec392f8a,626b3a7e370e1de6d1d46a94,,,,,,,,,,,,,,,,,,,,,,,a,0,1.135,"[""0.092"",""0.376"",""0.550"",""0.735""]","[1,1,1,0]",0,63,63,63,1,1,1,,,1,FALSE,,,,,,,,,,,,,,,,,,,,,,,,,,,,,,
,61074312e42690a97177bb63,001,2022-04-29_03h08.28.185,classification_task,2021.2.3,MacIntel,59.99880002,61074312e42690a97177bb63,626b377229c10585ec392f8a,626b3a7e370e1de6d1d46a94,,,,,,,,,,,,,,,,,,,,,,,,,,,,,,,,,,,,,,,0, ,,0,0.784447797,361.4754,0,0,0,0,1,2,1,,,,,,,,,,,,,,,,,
,61074312e42690a97177bb63,001,2022-04-29_03h08.28.185,classification_task,2021.2.3,MacIntel,59.99880002,61074312e42690a97177bb63,626b377229c10585ec392f8a,626b3a7e370e1de6d1d46a94,,,,,,,,,,,,,,,,,,,,,,,,,,,,,,,,,,,,,,,1,  ,,0,3.386341344,365.7543,0,0,0,0,1,2,1,,,,,,,,,,,,,,,,,
,61074312e42690a97177bb63,001,2022-04-29_03h08.28.185,classification_task,2021.2.3,MacIntel,59.99880002,61074312e42690a97177bb63,626b377229c10585ec392f8a,626b3a7e370e1de6d1d46a94,,,,,,,,,,,,,,,,,,,,,,,,,,,,,,,,,,,,,,,2,  ,,0,2.692225219,369.8858,0,0,0,0,1,2,1,,,,,,,,,,,,,,,,,
,61074312e42690a97177bb63,001,2022-04-29_03h08.28.185,classification_task,2021.2.3,MacIntel,59.99880002,61074312e42690a97177bb63,626b377229c10585ec392f8a,626b3a7e370e1de6d1d46a94,,,,,,,,,,,,,,,,,,,,,,,,,,,,,,,,,,,,,,,,,,,,,0,0,0,0,1,,1,,,,,,,,,,,,,,,,,
,61074312e42690a97177bb63,001,2022-04-29_03h08.28.185,classification_task,2021.2.3,MacIntel,59.99880002,61074312e42690a97177bb63,626b377229c10585ec392f8a,626b3a7e370e1de6d1d46a94,,,,,,,,,,,,,,,,,,,,,space,9.8168,l,1,6.4617,"[""0.132"",""0.252"",""0.718"",""0.787""]","[1,1,0,1]",0,0,0,0,1,1,0,,,1,FALSE,,,,,,,,,,,,,,,,,,,,,,,,,,,,,,
,61074312e42690a97177bb63,001,2022-04-29_03h08.28.185,classification_task,2021.2.3,MacIntel,59.99880002,61074312e42690a97177bb63,626b377229c10585ec392f8a,626b3a7e370e1de6d1d46a94,,,,,,,,,,,,,,,,,,,,,,,a,1,9.2428,"[""0.748"",""0.462"",""0.884"",""0.925""]","[0,1,1,1]",0,1,1,1,1,0,0,,,1,FALSE,,,,,,,,,,,,,,,,,,,,,,,,,,,,,,
,61074312e42690a97177bb63,001,2022-04-29_03h08.28.185,classification_task,2021.2.3,MacIntel,59.99880002,61074312e42690a97177bb63,626b377229c10585ec392f8a,626b3a7e370e1de6d1d46a94,,,,,,,,,,,,,,,,,,,,,,,l,1,4.5303,"[""0.727"",""0.376"",""0.550"",""0.675""]","[0,1,1,1]",0,2,2,2,1,1,1,,,1,FALSE,,,,,,,,,,,,,,,,,,,,,,,,,,,,,,
,61074312e42690a97177bb63,001,2022-04-29_03h08.28.185,classification_task,2021.2.3,MacIntel,59.99880002,61074312e42690a97177bb63,626b377229c10585ec392f8a,626b3a7e370e1de6d1d46a94,,,,,,,,,,,,,,,,,,,,,,,a,1,1.2573,"[""0.748"",""0.419"",""0.613"",""0.959""]","[0,1,1,1]",0,3,3,3,1,0,1,,,1,FALSE,,,,,,,,,,,,,,,,,,,,,,,,,,,,,,
,61074312e42690a97177bb63,001,2022-04-29_03h08.28.185,classification_task,2021.2.3,MacIntel,59.99880002,61074312e42690a97177bb63,626b377229c10585ec392f8a,626b3a7e370e1de6d1d46a94,,,,,,,,,,,,,,,,,,,,,,,l,0,1.7869,"[""0.192"",""0.462"",""0.884"",""0.030""]","[1,1,1,0]",0,4,4,4,1,0,0,,,1,FALSE,,,,,,,,,,,,,,,,,,,,,,,,,,,,,,
,61074312e42690a97177bb63,001,2022-04-29_03h08.28.185,classification_task,2021.2.3,MacIntel,59.99880002,61074312e42690a97177bb63,626b377229c10585ec392f8a,626b3a7e370e1de6d1d46a94,,,,,,,,,,,,,,,,,,,,,,,l,1,2.1375,"[""0.092"",""0.743"",""0.550"",""0.675""]","[1,0,1,1]",0,5,5,5,1,1,1,,,1,FALSE,,,,,,,,,,,,,,,,,,,,,,,,,,,,,,
,61074312e42690a97177bb63,001,2022-04-29_03h08.28.185,classification_task,2021.2.3,MacIntel,59.99880002,61074312e42690a97177bb63,626b377229c10585ec392f8a,626b3a7e370e1de6d1d46a94,,,,,,,,,,,,,,,,,,,,,,,l,0,1.1171,"[""0.192"",""0.462"",""0.735"",""0.925""]","[1,1,0,1]",0,6,6,6,1,0,0,,,1,FALSE,,,,,,,,,,,,,,,,,,,,,,,,,,,,,,
,61074312e42690a97177bb63,001,2022-04-29_03h08.28.185,classification_task,2021.2.3,MacIntel,59.99880002,61074312e42690a97177bb63,626b377229c10585ec392f8a,626b3a7e370e1de6d1d46a94,,,,,,,,,,,,,,,,,,,,,,,a,1,1.0461,"[""0.308"",""0.748"",""0.613"",""0.959""]","[1,0,1,1]",0,7,7,7,1,0,1,,,1,FALSE,,,,,,,,,,,,,,,,,,,,,,,,,,,,,,
,61074312e42690a97177bb63,001,2022-04-29_03h08.28.185,classification_task,2021.2.3,MacIntel,59.99880002,61074312e42690a97177bb63,626b377229c10585ec392f8a,626b3a7e370e1de6d1d46a94,,,,,,,,,,,,,,,,,,,,,,,l,1,1.4147,"[""0.748"",""0.252"",""0.500"",""0.787""]","[0,1,1,1]",0,8,8,8,1,1,0,,,1,FALSE,,,,,,,,,,,,,,,,,,,,,,,,,,,,,,
,61074312e42690a97177bb63,001,2022-04-29_03h08.28.185,classification_task,2021.2.3,MacIntel,59.99880002,61074312e42690a97177bb63,626b377229c10585ec392f8a,626b3a7e370e1de6d1d46a94,,,,,,,,,,,,,,,,,,,,,,,a,0,1.5154,"[""0.092"",""0.376"",""0.735"",""0.675""]","[1,1,0,1]",0,9,9,9,1,1,1,,,1,FALSE,,,,,,,,,,,,,,,,,,,,,,,,,,,,,,
,61074312e42690a97177bb63,001,2022-04-29_03h08.28.185,classification_task,2021.2.3,MacIntel,59.99880002,61074312e42690a97177bb63,626b377229c10585ec392f8a,626b3a7e370e1de6d1d46a94,,,,,,,,,,,,,,,,,,,,,,,a,1,1.2311,"[""0.308"",""0.419"",""0.613"",""0.736""]","[1,1,1,0]",0,10,10,10,1,0,1,,,1,FALSE,,,,,,,,,,,,,,,,,,,,,,,,,,,,,,
,61074312e42690a97177bb63,001,2022-04-29_03h08.28.185,classification_task,2021.2.3,MacIntel,59.99880002,61074312e42690a97177bb63,626b377229c10585ec392f8a,626b3a7e370e1de6d1d46a94,,,,,,,,,,,,,,,,,,,,,,,l,1,0.9245,"[""0.132"",""0.746"",""0.500"",""0.787""]","[1,0,1,1]",0,11,11,11,1,1,0,,,1,FALSE,,,,,,,,,,,,,,,,,,,,,,,,,,,,,,
,61074312e42690a97177bb63,001,2022-04-29_03h08.28.185,classification_task,2021.2.3,MacIntel,59.99880002,61074312e42690a97177bb63,626b377229c10585ec392f8a,626b3a7e370e1de6d1d46a94,,,,,,,,,,,,,,,,,,,,,,,l,0,1.1062,"[""0.192"",""0.033"",""0.884"",""0.925""]","[1,0,1,1]",0,12,12,12,1,0,0,,,1,FALSE,,,,,,,,,,,,,,,,,,,,,,,,,,,,,,
,61074312e42690a97177bb63,001,2022-04-29_03h08.28.185,classification_task,2021.2.3,MacIntel,59.99880002,61074312e42690a97177bb63,626b377229c10585ec392f8a,626b3a7e370e1de6d1d46a94,,,,,,,,,,,,,,,,,,,,,,,a,0,2.1171,"[""0.132"",""0.252"",""0.500"",""0.049""]","[1,1,1,0]",0,13,13,13,1,1,0,,,1,FALSE,,,,,,,,,,,,,,,,,,,,,,,,,,,,,,
,61074312e42690a97177bb63,001,2022-04-29_03h08.28.185,classification_task,2021.2.3,MacIntel,59.99880002,61074312e42690a97177bb63,626b377229c10585ec392f8a,626b3a7e370e1de6d1d46a94,,,,,,,,,,,,,,,,,,,,,,,l,1,1.4163,"[""0.092"",""0.376"",""0.550"",""0.036""]","[1,1,1,0]",0,14,14,14,1,1,1,,,1,FALSE,,,,,,,,,,,,,,,,,,,,,,,,,,,,,,
,61074312e42690a97177bb63,001,2022-04-29_03h08.28.185,classification_task,2021.2.3,MacIntel,59.99880002,61074312e42690a97177bb63,626b377229c10585ec392f8a,626b3a7e370e1de6d1d46a94,,,,,,,,,,,,,,,,,,,,,,,a,1,1.8306,"[""0.308"",""0.419"",""0.746"",""0.959""]","[1,1,0,1]",0,15,15,15,1,0,1,,,1,FALSE,,,,,,,,,,,,,,,,,,,,,,,,,,,,,,
,61074312e42690a97177bb63,001,2022-04-29_03h08.28.185,classification_task,2021.2.3,MacIntel,59.99880002,61074312e42690a97177bb63,626b377229c10585ec392f8a,626b3a7e370e1de6d1d46a94,,,,,,,,,,,,,,,,,,,,,,,a,1,2.0751,"[""0.727"",""0.462"",""0.884"",""0.925""]","[0,1,1,1]",0,16,16,16,1,0,0,,,1,FALSE,,,,,,,,,,,,,,,,,,,,,,,,,,,,,,
,61074312e42690a97177bb63,001,2022-04-29_03h08.28.185,classification_task,2021.2.3,MacIntel,59.99880002,61074312e42690a97177bb63,626b377229c10585ec392f8a,626b3a7e370e1de6d1d46a94,,,,,,,,,,,,,,,,,,,,,,,l,1,1.4122,"[""0.092"",""0.376"",""0.030"",""0.675""]","[1,1,0,1]",0,17,17,17,1,1,1,,,1,FALSE,,,,,,,,,,,,,,,,,,,,,,,,,,,,,,
,61074312e42690a97177bb63,001,2022-04-29_03h08.28.185,classification_task,2021.2.3,MacIntel,59.99880002,61074312e42690a97177bb63,626b377229c10585ec392f8a,626b3a7e370e1de6d1d46a94,,,,,,,,,,,,,,,,,,,,,,,a,0,1.1182,"[""0.092"",""0.376"",""0.550"",""0.036""]","[1,1,1,0]",0,18,18,18,1,1,1,,,1,FALSE,,,,,,,,,,,,,,,,,,,,,,,,,,,,,,
,61074312e42690a97177bb63,001,2022-04-29_03h08.28.185,classification_task,2021.2.3,MacIntel,59.99880002,61074312e42690a97177bb63,626b377229c10585ec392f8a,626b3a7e370e1de6d1d46a94,,,,,,,,,,,,,,,,,,,,,,,l,1,1.1487,"[""0.092"",""0.710"",""0.550"",""0.675""]","[1,0,1,1]",0,19,19,19,1,1,1,,,1,FALSE,,,,,,,,,,,,,,,,,,,,,,,,,,,,,,
,61074312e42690a97177bb63,001,2022-04-29_03h08.28.185,classification_task,2021.2.3,MacIntel,59.99880002,61074312e42690a97177bb63,626b377229c10585ec392f8a,626b3a7e370e1de6d1d46a94,,,,,,,,,,,,,,,,,,,,,,,l,0,2.337,"[""0.308"",""0.419"",""0.736"",""0.959""]","[1,1,0,1]",0,20,20,20,1,0,1,,,1,FALSE,,,,,,,,,,,,,,,,,,,,,,,,,,,,,,
,61074312e42690a97177bb63,001,2022-04-29_03h08.28.185,classification_task,2021.2.3,MacIntel,59.99880002,61074312e42690a97177bb63,626b377229c10585ec392f8a,626b3a7e370e1de6d1d46a94,,,,,,,,,,,,,,,,,,,,,,,a,1,1.1768,"[""0.308"",""0.419"",""0.613"",""0.736""]","[1,1,1,0]",0,21,21,21,1,0,1,,,1,FALSE,,,,,,,,,,,,,,,,,,,,,,,,,,,,,,
,61074312e42690a97177bb63,001,2022-04-29_03h08.28.185,classification_task,2021.2.3,MacIntel,59.99880002,61074312e42690a97177bb63,626b377229c10585ec392f8a,626b3a7e370e1de6d1d46a94,,,,,,,,,,,,,,,,,,,,,,,a,1,1.0384,"[""0.748"",""0.419"",""0.613"",""0.959""]","[0,1,1,1]",0,22,22,22,1,0,1,,,1,FALSE,,,,,,,,,,,,,,,,,,,,,,,,,,,,,,
,61074312e42690a97177bb63,001,2022-04-29_03h08.28.185,classification_task,2021.2.3,MacIntel,59.99880002,61074312e42690a97177bb63,626b377229c10585ec392f8a,626b3a7e370e1de6d1d46a94,,,,,,,,,,,,,,,,,,,,,,,a,0,1.2616,"[""0.710"",""0.376"",""0.550"",""0.675""]","[0,1,1,1]",0,23,23,23,1,1,1,,,1,FALSE,,,,,,,,,,,,,,,,,,,,,,,,,,,,,,
,61074312e42690a97177bb63,001,2022-04-29_03h08.28.185,classification_task,2021.2.3,MacIntel,59.99880002,61074312e42690a97177bb63,626b377229c10585ec392f8a,626b3a7e370e1de6d1d46a94,,,,,,,,,,,,,,,,,,,,,,,a,0,1.65,"[""0.132"",""0.252"",""0.500"",""0.046""]","[1,1,1,0]",0,24,24,24,1,1,0,,,1,FALSE,,,,,,,,,,,,,,,,,,,,,,,,,,,,,,
,61074312e42690a97177bb63,001,2022-04-29_03h08.28.185,classification_task,2021.2.3,MacIntel,59.99880002,61074312e42690a97177bb63,626b377229c10585ec392f8a,626b3a7e370e1de6d1d46a94,,,,,,,,,,,,,,,,,,,,,,,a,1,1.2632,"[""0.192"",""0.462"",""0.746"",""0.925""]","[1,1,0,1]",0,25,25,25,1,0,0,,,1,FALSE,,,,,,,,,,,,,,,,,,,,,,,,,,,,,,
,61074312e42690a97177bb63,001,2022-04-29_03h08.28.185,classification_task,2021.2.3,MacIntel,59.99880002,61074312e42690a97177bb63,626b377229c10585ec392f8a,626b3a7e370e1de6d1d46a94,,,,,,,,,,,,,,,,,,,,,,,a,1,1.4853,"[""0.192"",""0.046"",""0.884"",""0.925""]","[1,0,1,1]",0,26,26,26,1,0,0,,,1,FALSE,,,,,,,,,,,,,,,,,,,,,,,,,,,,,,
,61074312e42690a97177bb63,001,2022-04-29_03h08.28.185,classification_task,2021.2.3,MacIntel,59.99880002,61074312e42690a97177bb63,626b377229c10585ec392f8a,626b3a7e370e1de6d1d46a94,,,,,,,,,,,,,,,,,,,,,,,l,1,0.902,"[""0.736"",""0.252"",""0.500"",""0.787""]","[0,1,1,1]",0,27,27,27,1,1,0,,,1,FALSE,,,,,,,,,,,,,,,,,,,,,,,,,,,,,,
,61074312e42690a97177bb63,001,2022-04-29_03h08.28.185,classification_task,2021.2.3,MacIntel,59.99880002,61074312e42690a97177bb63,626b377229c10585ec392f8a,626b3a7e370e1de6d1d46a94,,,,,,,,,,,,,,,,,,,,,,,a,1,1.0874,"[""0.308"",""0.748"",""0.613"",""0.959""]","[1,0,1,1]",0,28,28,28,1,0,1,,,1,FALSE,,,,,,,,,,,,,,,,,,,,,,,,,,,,,,
,61074312e42690a97177bb63,001,2022-04-29_03h08.28.185,classification_task,2021.2.3,MacIntel,59.99880002,61074312e42690a97177bb63,626b377229c10585ec392f8a,626b3a7e370e1de6d1d46a94,,,,,,,,,,,,,,,,,,,,,,,l,1,0.9877,"[""0.132"",""0.033"",""0.500"",""0.787""]","[1,0,1,1]",0,29,29,29,1,1,0,,,1,FALSE,,,,,,,,,,,,,,,,,,,,,,,,,,,,,,
,61074312e42690a97177bb63,001,2022-04-29_03h08.28.185,classification_task,2021.2.3,MacIntel,59.99880002,61074312e42690a97177bb63,626b377229c10585ec392f8a,626b3a7e370e1de6d1d46a94,,,,,,,,,,,,,,,,,,,,,,,l,1,0.5949,"[""0.132"",""0.252"",""0.028"",""0.787""]","[1,1,0,1]",0,30,30,30,1,1,0,,,1,FALSE,,,,,,,,,,,,,,,,,,,,,,,,,,,,,,
,61074312e42690a97177bb63,001,2022-04-29_03h08.28.185,classification_task,2021.2.3,MacIntel,59.99880002,61074312e42690a97177bb63,626b377229c10585ec392f8a,626b3a7e370e1de6d1d46a94,,,,,,,,,,,,,,,,,,,,,,,a,1,0.8438,"[""0.192"",""0.462"",""0.884"",""0.736""]","[1,1,1,0]",0,31,31,31,1,0,0,,,1,FALSE,,,,,,,,,,,,,,,,,,,,,,,,,,,,,,
,61074312e42690a97177bb63,001,2022-04-29_03h08.28.185,classification_task,2021.2.3,MacIntel,59.99880002,61074312e42690a97177bb63,626b377229c10585ec392f8a,626b3a7e370e1de6d1d46a94,,,,,,,,,,,,,,,,,,,,,,,l,1,0.7315,"[""0.736"",""0.252"",""0.500"",""0.787""]","[0,1,1,1]",0,32,32,32,1,1,0,,,1,FALSE,,,,,,,,,,,,,,,,,,,,,,,,,,,,,,
,61074312e42690a97177bb63,001,2022-04-29_03h08.28.185,classification_task,2021.2.3,MacIntel,59.99880002,61074312e42690a97177bb63,626b377229c10585ec392f8a,626b3a7e370e1de6d1d46a94,,,,,,,,,,,,,,,,,,,,,,,l,1,0.6156,"[""0.132"",""0.252"",""0.030"",""0.787""]","[1,1,0,1]",0,33,33,33,1,1,0,,,1,FALSE,,,,,,,,,,,,,,,,,,,,,,,,,,,,,,
,61074312e42690a97177bb63,001,2022-04-29_03h08.28.185,classification_task,2021.2.3,MacIntel,59.99880002,61074312e42690a97177bb63,626b377229c10585ec392f8a,626b3a7e370e1de6d1d46a94,,,,,,,,,,,,,,,,,,,,,,,a,0,1.2069,"[""0.092"",""0.376"",""0.710"",""0.675""]","[1,1,0,1]",0,34,34,34,1,1,1,,,1,FALSE,,,,,,,,,,,,,,,,,,,,,,,,,,,,,,
,61074312e42690a97177bb63,001,2022-04-29_03h08.28.185,classification_task,2021.2.3,MacIntel,59.99880002,61074312e42690a97177bb63,626b377229c10585ec392f8a,626b3a7e370e1de6d1d46a94,,,,,,,,,,,,,,,,,,,,,,,a,1,0.9142,"[""0.192"",""0.462"",""0.884"",""0.743""]","[1,1,1,0]",0,35,35,35,1,0,0,,,1,FALSE,,,,,,,,,,,,,,,,,,,,,,,,,,,,,,
,61074312e42690a97177bb63,001,2022-04-29_03h08.28.185,classification_task,2021.2.3,MacIntel,59.99880002,61074312e42690a97177bb63,626b377229c10585ec392f8a,626b3a7e370e1de6d1d46a94,,,,,,,,,,,,,,,,,,,,,,,l,0,2.3158,"[""0.192"",""0.049"",""0.884"",""0.925""]","[1,0,1,1]",0,36,36,36,1,0,0,,,1,FALSE,,,,,,,,,,,,,,,,,,,,,,,,,,,,,,
,61074312e42690a97177bb63,001,2022-04-29_03h08.28.185,classification_task,2021.2.3,MacIntel,59.99880002,61074312e42690a97177bb63,626b377229c10585ec392f8a,626b3a7e370e1de6d1d46a94,,,,,,,,,,,,,,,,,,,,,,,a,0,1.1026,"[""0.727"",""0.376"",""0.550"",""0.675""]","[0,1,1,1]",0,37,37,37,1,1,1,,,1,FALSE,,,,,,,,,,,,,,,,,,,,,,,,,,,,,,
,61074312e42690a97177bb63,001,2022-04-29_03h08.28.185,classification_task,2021.2.3,MacIntel,59.99880002,61074312e42690a97177bb63,626b377229c10585ec392f8a,626b3a7e370e1de6d1d46a94,,,,,,,,,,,,,,,,,,,,,,,l,1,1.4331,"[""0.092"",""0.376"",""0.550"",""0.736""]","[1,1,1,0]",0,38,38,38,1,1,1,,,1,FALSE,,,,,,,,,,,,,,,,,,,,,,,,,,,,,,
,61074312e42690a97177bb63,001,2022-04-29_03h08.28.185,classification_task,2021.2.3,MacIntel,59.99880002,61074312e42690a97177bb63,626b377229c10585ec392f8a,626b3a7e370e1de6d1d46a94,,,,,,,,,,,,,,,,,,,,,,,l,0,0.9976,"[""0.308"",""0.736"",""0.613"",""0.959""]","[1,0,1,1]",0,39,39,39,1,0,1,,,1,FALSE,,,,,,,,,,,,,,,,,,,,,,,,,,,,,,
,61074312e42690a97177bb63,001,2022-04-29_03h08.28.185,classification_task,2021.2.3,MacIntel,59.99880002,61074312e42690a97177bb63,626b377229c10585ec392f8a,626b3a7e370e1de6d1d46a94,,,,,,,,,,,,,,,,,,,,,,,l,1,1.1956,"[""0.092"",""0.046"",""0.550"",""0.675""]","[1,0,1,1]",0,40,40,40,1,1,1,,,1,FALSE,,,,,,,,,,,,,,,,,,,,,,,,,,,,,,
,61074312e42690a97177bb63,001,2022-04-29_03h08.28.185,classification_task,2021.2.3,MacIntel,59.99880002,61074312e42690a97177bb63,626b377229c10585ec392f8a,626b3a7e370e1de6d1d46a94,,,,,,,,,,,,,,,,,,,,,,,a,0,1.0975,"[""0.132"",""0.252"",""0.500"",""0.746""]","[1,1,1,0]",0,41,41,41,1,1,0,,,1,FALSE,,,,,,,,,,,,,,,,,,,,,,,,,,,,,,
,61074312e42690a97177bb63,001,2022-04-29_03h08.28.185,classification_task,2021.2.3,MacIntel,59.99880002,61074312e42690a97177bb63,626b377229c10585ec392f8a,626b3a7e370e1de6d1d46a94,,,,,,,,,,,,,,,,,,,,,,,a,1,1.4932,"[""0.710"",""0.419"",""0.613"",""0.959""]","[0,1,1,1]",0,42,42,42,1,0,1,,,1,FALSE,,,,,,,,,,,,,,,,,,,,,,,,,,,,,,
,61074312e42690a97177bb63,001,2022-04-29_03h08.28.185,classification_task,2021.2.3,MacIntel,59.99880002,61074312e42690a97177bb63,626b377229c10585ec392f8a,626b3a7e370e1de6d1d46a94,,,,,,,,,,,,,,,,,,,,,,,a,1,0.908,"[""0.308"",""0.419"",""0.718"",""0.959""]","[1,1,0,1]",0,43,43,43,1,0,1,,,1,FALSE,,,,,,,,,,,,,,,,,,,,,,,,,,,,,,
,61074312e42690a97177bb63,001,2022-04-29_03h08.28.185,classification_task,2021.2.3,MacIntel,59.99880002,61074312e42690a97177bb63,626b377229c10585ec392f8a,626b3a7e370e1de6d1d46a94,,,,,,,,,,,,,,,,,,,,,,,l,0,1.9235,"[""0.710"",""0.462"",""0.884"",""0.925""]","[0,1,1,1]",0,44,44,44,1,0,0,,,1,FALSE,,,,,,,,,,,,,,,,,,,,,,,,,,,,,,
,61074312e42690a97177bb63,001,2022-04-29_03h08.28.185,classification_task,2021.2.3,MacIntel,59.99880002,61074312e42690a97177bb63,626b377229c10585ec392f8a,626b3a7e370e1de6d1d46a94,,,,,,,,,,,,,,,,,,,,,,,a,1,1.3476,"[""0.308"",""0.419"",""0.613"",""0.036""]","[1,1,1,0]",0,45,45,45,1,0,1,,,1,FALSE,,,,,,,,,,,,,,,,,,,,,,,,,,,,,,
,61074312e42690a97177bb63,001,2022-04-29_03h08.28.185,classification_task,2021.2.3,MacIntel,59.99880002,61074312e42690a97177bb63,626b377229c10585ec392f8a,626b3a7e370e1de6d1d46a94,,,,,,,,,,,,,,,,,,,,,,,l,1,0.6935,"[""0.132"",""0.727"",""0.500"",""0.787""]","[1,0,1,1]",0,46,46,46,1,1,0,,,1,FALSE,,,,,,,,,,,,,,,,,,,,,,,,,,,,,,
,61074312e42690a97177bb63,001,2022-04-29_03h08.28.185,classification_task,2021.2.3,MacIntel,59.99880002,61074312e42690a97177bb63,626b377229c10585ec392f8a,626b3a7e370e1de6d1d46a94,,,,,,,,,,,,,,,,,,,,,,,l,0,1.3623,"[""0.192"",""0.462"",""0.710"",""0.925""]","[1,1,0,1]",0,47,47,47,1,0,0,,,1,FALSE,,,,,,,,,,,,,,,,,,,,,,,,,,,,,,
,61074312e42690a97177bb63,001,2022-04-29_03h08.28.185,classification_task,2021.2.3,MacIntel,59.99880002,61074312e42690a97177bb63,626b377229c10585ec392f8a,626b3a7e370e1de6d1d46a94,,,,,,,,,,,,,,,,,,,,,,,l,0,1.3677,"[""0.727"",""0.419"",""0.613"",""0.959""]","[0,1,1,1]",0,48,48,48,1,0,1,,,1,FALSE,,,,,,,,,,,,,,,,,,,,,,,,,,,,,,
,61074312e42690a97177bb63,001,2022-04-29_03h08.28.185,classification_task,2021.2.3,MacIntel,59.99880002,61074312e42690a97177bb63,626b377229c10585ec392f8a,626b3a7e370e1de6d1d46a94,,,,,,,,,,,,,,,,,,,,,,,a,1,0.9219,"[""0.192"",""0.462"",""0.884"",""0.743""]","[1,1,1,0]",0,49,49,49,1,0,0,,,1,FALSE,,,,,,,,,,,,,,,,,,,,,,,,,,,,,,
,61074312e42690a97177bb63,001,2022-04-29_03h08.28.185,classification_task,2021.2.3,MacIntel,59.99880002,61074312e42690a97177bb63,626b377229c10585ec392f8a,626b3a7e370e1de6d1d46a94,,,,,,,,,,,,,,,,,,,,,,,l,1,0.615,"[""0.132"",""0.748"",""0.500"",""0.787""]","[1,0,1,1]",0,50,50,50,1,1,0,,,1,FALSE,,,,,,,,,,,,,,,,,,,,,,,,,,,,,,
,61074312e42690a97177bb63,001,2022-04-29_03h08.28.185,classification_task,2021.2.3,MacIntel,59.99880002,61074312e42690a97177bb63,626b377229c10585ec392f8a,626b3a7e370e1de6d1d46a94,,,,,,,,,,,,,,,,,,,,,,,l,1,1.7372,"[""0.092"",""0.028"",""0.550"",""0.675""]","[1,0,1,1]",0,51,51,51,1,1,1,,,1,FALSE,,,,,,,,,,,,,,,,,,,,,,,,,,,,,,
,61074312e42690a97177bb63,001,2022-04-29_03h08.28.185,classification_task,2021.2.3,MacIntel,59.99880002,61074312e42690a97177bb63,626b377229c10585ec392f8a,626b3a7e370e1de6d1d46a94,,,,,,,,,,,,,,,,,,,,,,,l,1,0.8294,"[""0.092"",""0.376"",""0.036"",""0.675""]","[1,1,0,1]",0,52,52,52,1,1,1,,,1,FALSE,,,,,,,,,,,,,,,,,,,,,,,,,,,,,,
,61074312e42690a97177bb63,001,2022-04-29_03h08.28.185,classification_task,2021.2.3,MacIntel,59.99880002,61074312e42690a97177bb63,626b377229c10585ec392f8a,626b3a7e370e1de6d1d46a94,,,,,,,,,,,,,,,,,,,,,,,a,1,1.108,"[""0.192"",""0.748"",""0.884"",""0.925""]","[1,0,1,1]",0,53,53,53,1,0,0,,,1,FALSE,,,,,,,,,,,,,,,,,,,,,,,,,,,,,,
,61074312e42690a97177bb63,001,2022-04-29_03h08.28.185,classification_task,2021.2.3,MacIntel,59.99880002,61074312e42690a97177bb63,626b377229c10585ec392f8a,626b3a7e370e1de6d1d46a94,,,,,,,,,,,,,,,,,,,,,,,a,1,0.8168,"[""0.192"",""0.462"",""0.735"",""0.925""]","[1,1,0,1]",0,54,54,54,1,0,0,,,1,FALSE,,,,,,,,,,,,,,,,,,,,,,,,,,,,,,
,61074312e42690a97177bb63,001,2022-04-29_03h08.28.185,classification_task,2021.2.3,MacIntel,59.99880002,61074312e42690a97177bb63,626b377229c10585ec392f8a,626b3a7e370e1de6d1d46a94,,,,,,,,,,,,,,,,,,,,,,,l,1,1.1311,"[""0.092"",""0.376"",""0.550"",""0.743""]","[1,1,1,0]",0,55,55,55,1,1,1,,,1,FALSE,,,,,,,,,,,,,,,,,,,,,,,,,,,,,,
,61074312e42690a97177bb63,001,2022-04-29_03h08.28.185,classification_task,2021.2.3,MacIntel,59.99880002,61074312e42690a97177bb63,626b377229c10585ec392f8a,626b3a7e370e1de6d1d46a94,,,,,,,,,,,,,,,,,,,,,,,l,0,0.8075,"[""0.308"",""0.419"",""0.613"",""0.736""]","[1,1,1,0]",0,56,56,56,1,0,1,,,1,FALSE,,,,,,,,,,,,,,,,,,,,,,,,,,,,,,
,61074312e42690a97177bb63,001,2022-04-29_03h08.28.185,classification_task,2021.2.3,MacIntel,59.99880002,61074312e42690a97177bb63,626b377229c10585ec392f8a,626b3a7e370e1de6d1d46a94,,,,,,,,,,,,,,,,,,,,,,,a,0,0.9203,"[""0.132"",""0.252"",""0.500"",""0.736""]","[1,1,1,0]",0,57,57,57,1,1,0,,,1,FALSE,,,,,,,,,,,,,,,,,,,,,,,,,,,,,,
,61074312e42690a97177bb63,001,2022-04-29_03h08.28.185,classification_task,2021.2.3,MacIntel,59.99880002,61074312e42690a97177bb63,626b377229c10585ec392f8a,626b3a7e370e1de6d1d46a94,,,,,,,,,,,,,,,,,,,,,,,a,1,0.9086,"[""0.308"",""0.718"",""0.613"",""0.959""]","[1,0,1,1]",0,58,58,58,1,0,1,,,1,FALSE,,,,,,,,,,,,,,,,,,,,,,,,,,,,,,
,61074312e42690a97177bb63,001,2022-04-29_03h08.28.185,classification_task,2021.2.3,MacIntel,59.99880002,61074312e42690a97177bb63,626b377229c10585ec392f8a,626b3a7e370e1de6d1d46a94,,,,,,,,,,,,,,,,,,,,,,,a,1,1.5132,"[""0.308"",""0.419"",""0.028"",""0.959""]","[1,1,0,1]",0,59,59,59,1,0,1,,,1,FALSE,,,,,,,,,,,,,,,,,,,,,,,,,,,,,,
,61074312e42690a97177bb63,001,2022-04-29_03h08.28.185,classification_task,2021.2.3,MacIntel,59.99880002,61074312e42690a97177bb63,626b377229c10585ec392f8a,626b3a7e370e1de6d1d46a94,,,,,,,,,,,,,,,,,,,,,,,l,1,0.8133,"[""0.049"",""0.252"",""0.500"",""0.787""]","[0,1,1,1]",0,60,60,60,1,1,0,,,1,FALSE,,,,,,,,,,,,,,,,,,,,,,,,,,,,,,
,61074312e42690a97177bb63,001,2022-04-29_03h08.28.185,classification_task,2021.2.3,MacIntel,59.99880002,61074312e42690a97177bb63,626b377229c10585ec392f8a,626b3a7e370e1de6d1d46a94,,,,,,,,,,,,,,,,,,,,,,,l,1,0.6311,"[""0.132"",""0.252"",""0.735"",""0.787""]","[1,1,0,1]",0,61,61,61,1,1,0,,,1,FALSE,,,,,,,,,,,,,,,,,,,,,,,,,,,,,,
,61074312e42690a97177bb63,001,2022-04-29_03h08.28.185,classification_task,2021.2.3,MacIntel,59.99880002,61074312e42690a97177bb63,626b377229c10585ec392f8a,626b3a7e370e1de6d1d46a94,,,,,,,,,,,,,,,,,,,,,,,a,0,0.8257,"[""0.049"",""0.376"",""0.550"",""0.675""]","[0,1,1,1]",0,62,62,62,1,1,1,,,1,FALSE,,,,,,,,,,,,,,,,,,,,,,,,,,,,,,
,61074312e42690a97177bb63,001,2022-04-29_03h08.28.185,classification_task,2021.2.3,MacIntel,59.99880002,61074312e42690a97177bb63,626b377229c10585ec392f8a,626b3a7e370e1de6d1d46a94,,,,,,,,,,,,,,,,,,,,,,,l,0,1.7073,"[""0.746"",""0.462"",""0.884"",""0.925""]","[0,1,1,1]",0,63,63,63,1,0,0,,,1,FALSE,,,,,,,,,,,,,,,,,,,,,,,,,,,,,,
,61074312e42690a97177bb63,001,2022-04-29_03h08.28.185,classification_task,2021.2.3,MacIntel,59.99880002,61074312e42690a97177bb63,626b377229c10585ec392f8a,626b3a7e370e1de6d1d46a94,,,,,,,,,,,,,,,,,,,,,,,,,,,,,,,,,,,,,,,0, ,,0,0.785264111,179.2642,0,1,1,1,1,2,2,,,,,,,,,,,,,,,,,
,61074312e42690a97177bb63,001,2022-04-29_03h08.28.185,classification_task,2021.2.3,MacIntel,59.99880002,61074312e42690a97177bb63,626b377229c10585ec392f8a,626b3a7e370e1de6d1d46a94,,,,,,,,,,,,,,,,,,,,,,,,,,,,,,,,,,,,,,,1,  ,,0,5.995326953,181.6189,0,1,1,1,1,2,2,,,,,,,,,,,,,,,,,
,61074312e42690a97177bb63,001,2022-04-29_03h08.28.185,classification_task,2021.2.3,MacIntel,59.99880002,61074312e42690a97177bb63,626b377229c10585ec392f8a,626b3a7e370e1de6d1d46a94,,,,,,,,,,,,,,,,,,,,,,,,,,,,,,,,,,,,,,,2,  ,,0,6.297230303,184.8791,0,1,1,1,1,2,2,,,,,,,,,,,,,,,,,
,61074312e42690a97177bb63,001,2022-04-29_03h08.28.185,classification_task,2021.2.3,MacIntel,59.99880002,61074312e42690a97177bb63,626b377229c10585ec392f8a,626b3a7e370e1de6d1d46a94,,,,,,,,,,,,,,,,,,,,,,,,,,,,,,,,,,,,,,,,,,,,,0,1,1,1,1,,2,,,,,,,,,,,,,,,,,
,61074312e42690a97177bb63,001,2022-04-29_03h08.28.185,classification_task,2021.2.3,MacIntel,59.99880002,61074312e42690a97177bb63,626b377229c10585ec392f8a,626b3a7e370e1de6d1d46a94,,,,,,,,,,,,,,,,,,,,,space,4.6205,a,0,3.8616,"[""0.092"",""0.376"",""0.550"",""0.718""]","[1,1,1,0]",0,0,0,0,1,1,1,,,1,FALSE,,,,,,,,,,,,,,,,,,,,,,,,,,,,,,
,61074312e42690a97177bb63,001,2022-04-29_03h08.28.185,classification_task,2021.2.3,MacIntel,59.99880002,61074312e42690a97177bb63,626b377229c10585ec392f8a,626b3a7e370e1de6d1d46a94,,,,,,,,,,,,,,,,,,,,,,,l,1,3.1626,"[""0.049"",""0.252"",""0.500"",""0.787""]","[0,1,1,1]",0,1,1,1,1,1,0,,,1,FALSE,,,,,,,,,,,,,,,,,,,,,,,,,,,,,,
,61074312e42690a97177bb63,001,2022-04-29_03h08.28.185,classification_task,2021.2.3,MacIntel,59.99880002,61074312e42690a97177bb63,626b377229c10585ec392f8a,626b3a7e370e1de6d1d46a94,,,,,,,,,,,,,,,,,,,,,,,l,0,2.1977,"[""0.192"",""0.462"",""0.033"",""0.925""]","[1,1,0,1]",0,2,2,2,1,0,0,,,1,FALSE,,,,,,,,,,,,,,,,,,,,,,,,,,,,,,
,61074312e42690a97177bb63,001,2022-04-29_03h08.28.185,classification_task,2021.2.3,MacIntel,59.99880002,61074312e42690a97177bb63,626b377229c10585ec392f8a,626b3a7e370e1de6d1d46a94,,,,,,,,,,,,,,,,,,,,,,,a,1,3.0732,"[""0.748"",""0.462"",""0.884"",""0.925""]","[0,1,1,1]",0,3,3,3,1,0,0,,,1,FALSE,,,,,,,,,,,,,,,,,,,,,,,,,,,,,,
,61074312e42690a97177bb63,001,2022-04-29_03h08.28.185,classification_task,2021.2.3,MacIntel,59.99880002,61074312e42690a97177bb63,626b377229c10585ec392f8a,626b3a7e370e1de6d1d46a94,,,,,,,,,,,,,,,,,,,,,,,l,1,1.2853,"[""0.092"",""0.376"",""0.028"",""0.675""]","[1,1,0,1]",0,4,4,4,1,1,1,,,1,FALSE,,,,,,,,,,,,,,,,,,,,,,,,,,,,,,
,61074312e42690a97177bb63,001,2022-04-29_03h08.28.185,classification_task,2021.2.3,MacIntel,59.99880002,61074312e42690a97177bb63,626b377229c10585ec392f8a,626b3a7e370e1de6d1d46a94,,,,,,,,,,,,,,,,,,,,,,,a,0,0.8409,"[""0.132"",""0.252"",""0.500"",""0.735""]","[1,1,1,0]",0,5,5,5,1,1,0,,,1,FALSE,,,,,,,,,,,,,,,,,,,,,,,,,,,,,,
,61074312e42690a97177bb63,001,2022-04-29_03h08.28.185,classification_task,2021.2.3,MacIntel,59.99880002,61074312e42690a97177bb63,626b377229c10585ec392f8a,626b3a7e370e1de6d1d46a94,,,,,,,,,,,,,,,,,,,,,,,l,1,0.5168,"[""0.132"",""0.735"",""0.500"",""0.787""]","[1,0,1,1]",0,6,6,6,1,1,0,,,1,FALSE,,,,,,,,,,,,,,,,,,,,,,,,,,,,,,
,61074312e42690a97177bb63,001,2022-04-29_03h08.28.185,classification_task,2021.2.3,MacIntel,59.99880002,61074312e42690a97177bb63,626b377229c10585ec392f8a,626b3a7e370e1de6d1d46a94,,,,,,,,,,,,,,,,,,,,,,,a,1,1.4404,"[""0.308"",""0.419"",""0.613"",""0.028""]","[1,1,1,0]",0,7,7,7,1,0,1,,,1,FALSE,,,,,,,,,,,,,,,,,,,,,,,,,,,,,,
,61074312e42690a97177bb63,001,2022-04-29_03h08.28.185,classification_task,2021.2.3,MacIntel,59.99880002,61074312e42690a97177bb63,626b377229c10585ec392f8a,626b3a7e370e1de6d1d46a94,,,,,,,,,,,,,,,,,,,,,,,a,0,1.0141,"[""0.092"",""0.743"",""0.550"",""0.675""]","[1,0,1,1]",0,8,8,8,1,1,1,,,1,FALSE,,,,,,,,,,,,,,,,,,,,,,,,,,,,,,
,61074312e42690a97177bb63,001,2022-04-29_03h08.28.185,classification_task,2021.2.3,MacIntel,59.99880002,61074312e42690a97177bb63,626b377229c10585ec392f8a,626b3a7e370e1de6d1d46a94,,,,,,,,,,,,,,,,,,,,,,,l,0,1.9669,"[""0.192"",""0.718"",""0.884"",""0.925""]","[1,0,1,1]",0,9,9,9,1,0,0,,,1,FALSE,,,,,,,,,,,,,,,,,,,,,,,,,,,,,,
,61074312e42690a97177bb63,001,2022-04-29_03h08.28.185,classification_task,2021.2.3,MacIntel,59.99880002,61074312e42690a97177bb63,626b377229c10585ec392f8a,626b3a7e370e1de6d1d46a94,,,,,,,,,,,,,,,,,,,,,,,l,0,1.037,"[""0.192"",""0.462"",""0.884"",""0.735""]","[1,1,1,0]",0,10,10,10,1,0,0,,,1,FALSE,,,,,,,,,,,,,,,,,,,,,,,,,,,,,,
,61074312e42690a97177bb63,001,2022-04-29_03h08.28.185,classification_task,2021.2.3,MacIntel,59.99880002,61074312e42690a97177bb63,626b377229c10585ec392f8a,626b3a7e370e1de6d1d46a94,,,,,,,,,,,,,,,,,,,,,,,a,0,1.2314,"[""0.727"",""0.376"",""0.550"",""0.675""]","[0,1,1,1]",0,11,11,11,1,1,1,,,1,FALSE,,,,,,,,,,,,,,,,,,,,,,,,,,,,,,
,61074312e42690a97177bb63,001,2022-04-29_03h08.28.185,classification_task,2021.2.3,MacIntel,59.99880002,61074312e42690a97177bb63,626b377229c10585ec392f8a,626b3a7e370e1de6d1d46a94,,,,,,,,,,,,,,,,,,,,,,,l,1,0.5078,"[""0.132"",""0.252"",""0.746"",""0.787""]","[1,1,0,1]",0,12,12,12,1,1,0,,,1,FALSE,,,,,,,,,,,,,,,,,,,,,,,,,,,,,,
,61074312e42690a97177bb63,001,2022-04-29_03h08.28.185,classification_task,2021.2.3,MacIntel,59.99880002,61074312e42690a97177bb63,626b377229c10585ec392f8a,626b3a7e370e1de6d1d46a94,,,,,,,,,,,,,,,,,,,,,,,l,0,1.4931,"[""0.308"",""0.419"",""0.743"",""0.959""]","[1,1,0,1]",0,13,13,13,1,0,1,,,1,FALSE,,,,,,,,,,,,,,,,,,,,,,,,,,,,,,
,61074312e42690a97177bb63,001,2022-04-29_03h08.28.185,classification_task,2021.2.3,MacIntel,59.99880002,61074312e42690a97177bb63,626b377229c10585ec392f8a,626b3a7e370e1de6d1d46a94,,,,,,,,,,,,,,,,,,,,,,,a,1,1.0015,"[""0.308"",""0.748"",""0.613"",""0.959""]","[1,0,1,1]",0,14,14,14,1,0,1,,,1,FALSE,,,,,,,,,,,,,,,,,,,,,,,,,,,,,,
,61074312e42690a97177bb63,001,2022-04-29_03h08.28.185,classification_task,2021.2.3,MacIntel,59.99880002,61074312e42690a97177bb63,626b377229c10585ec392f8a,626b3a7e370e1de6d1d46a94,,,,,,,,,,,,,,,,,,,,,,,a,1,0.7074,"[""0.743"",""0.419"",""0.613"",""0.959""]","[0,1,1,1]",0,15,15,15,1,0,1,,,1,FALSE,,,,,,,,,,,,,,,,,,,,,,,,,,,,,,
,61074312e42690a97177bb63,001,2022-04-29_03h08.28.185,classification_task,2021.2.3,MacIntel,59.99880002,61074312e42690a97177bb63,626b377229c10585ec392f8a,626b3a7e370e1de6d1d46a94,,,,,,,,,,,,,,,,,,,,,,,a,1,0.6097,"[""0.308"",""0.743"",""0.613"",""0.959""]","[1,0,1,1]",0,16,16,16,1,0,1,,,1,FALSE,,,,,,,,,,,,,,,,,,,,,,,,,,,,,,
,61074312e42690a97177bb63,001,2022-04-29_03h08.28.185,classification_task,2021.2.3,MacIntel,59.99880002,61074312e42690a97177bb63,626b377229c10585ec392f8a,626b3a7e370e1de6d1d46a94,,,,,,,,,,,,,,,,,,,,,,,l,1,0.7016,"[""0.132"",""0.727"",""0.500"",""0.787""]","[1,0,1,1]",0,17,17,17,1,1,0,,,1,FALSE,,,,,,,,,,,,,,,,,,,,,,,,,,,,,,
,61074312e42690a97177bb63,001,2022-04-29_03h08.28.185,classification_task,2021.2.3,MacIntel,59.99880002,61074312e42690a97177bb63,626b377229c10585ec392f8a,626b3a7e370e1de6d1d46a94,,,,,,,,,,,,,,,,,,,,,,,a,1,2.0635,"[""0.308"",""0.419"",""0.613"",""0.036""]","[1,1,1,0]",0,18,18,18,1,0,1,,,1,FALSE,,,,,,,,,,,,,,,,,,,,,,,,,,,,,,
,61074312e42690a97177bb63,001,2022-04-29_03h08.28.185,classification_task,2021.2.3,MacIntel,59.99880002,61074312e42690a97177bb63,626b377229c10585ec392f8a,626b3a7e370e1de6d1d46a94,,,,,,,,,,,,,,,,,,,,,,,a,1,1.1922,"[""0.192"",""0.462"",""0.884"",""0.049""]","[1,1,1,0]",0,19,19,19,1,0,0,,,1,FALSE,,,,,,,,,,,,,,,,,,,,,,,,,,,,,,
,61074312e42690a97177bb63,001,2022-04-29_03h08.28.185,classification_task,2021.2.3,MacIntel,59.99880002,61074312e42690a97177bb63,626b377229c10585ec392f8a,626b3a7e370e1de6d1d46a94,,,,,,,,,,,,,,,,,,,,,,,l,0,1.1228,"[""0.192"",""0.462"",""0.046"",""0.925""]","[1,1,0,1]",0,20,20,20,1,0,0,,,1,FALSE,,,,,,,,,,,,,,,,,,,,,,,,,,,,,,
,61074312e42690a97177bb63,001,2022-04-29_03h08.28.185,classification_task,2021.2.3,MacIntel,59.99880002,61074312e42690a97177bb63,626b377229c10585ec392f8a,626b3a7e370e1de6d1d46a94,,,,,,,,,,,,,,,,,,,,,,,a,0,1.2875,"[""0.092"",""0.376"",""0.736"",""0.675""]","[1,1,0,1]",0,21,21,21,1,1,1,,,1,FALSE,,,,,,,,,,,,,,,,,,,,,,,,,,,,,,
,61074312e42690a97177bb63,001,2022-04-29_03h08.28.185,classification_task,2021.2.3,MacIntel,59.99880002,61074312e42690a97177bb63,626b377229c10585ec392f8a,626b3a7e370e1de6d1d46a94,,,,,,,,,,,,,,,,,,,,,,,a,1,1.1114,"[""0.736"",""0.462"",""0.884"",""0.925""]","[0,1,1,1]",0,22,22,22,1,0,0,,,1,FALSE,,,,,,,,,,,,,,,,,,,,,,,,,,,,,,
,61074312e42690a97177bb63,001,2022-04-29_03h08.28.185,classification_task,2021.2.3,MacIntel,59.99880002,61074312e42690a97177bb63,626b377229c10585ec392f8a,626b3a7e370e1de6d1d46a94,,,,,,,,,,,,,,,,,,,,,,,l,0,1.102,"[""0.028"",""0.419"",""0.613"",""0.959""]","[0,1,1,1]",0,23,23,23,1,0,1,,,1,FALSE,,,,,,,,,,,,,,,,,,,,,,,,,,,,,,
,61074312e42690a97177bb63,001,2022-04-29_03h08.28.185,classification_task,2021.2.3,MacIntel,59.99880002,61074312e42690a97177bb63,626b377229c10585ec392f8a,626b3a7e370e1de6d1d46a94,,,,,,,,,,,,,,,,,,,,,,,a,0,1.0046,"[""0.736"",""0.376"",""0.550"",""0.675""]","[0,1,1,1]",0,24,24,24,1,1,1,,,1,FALSE,,,,,,,,,,,,,,,,,,,,,,,,,,,,,,
,61074312e42690a97177bb63,001,2022-04-29_03h08.28.185,classification_task,2021.2.3,MacIntel,59.99880002,61074312e42690a97177bb63,626b377229c10585ec392f8a,626b3a7e370e1de6d1d46a94,,,,,,,,,,,,,,,,,,,,,,,a,1,0.8167,"[""0.308"",""0.419"",""0.748"",""0.959""]","[1,1,0,1]",0,25,25,25,1,0,1,,,1,FALSE,,,,,,,,,,,,,,,,,,,,,,,,,,,,,,
,61074312e42690a97177bb63,001,2022-04-29_03h08.28.185,classification_task,2021.2.3,MacIntel,59.99880002,61074312e42690a97177bb63,626b377229c10585ec392f8a,626b3a7e370e1de6d1d46a94,,,,,,,,,,,,,,,,,,,,,,,l,1,1.4965,"[""0.132"",""0.252"",""0.500"",""0.046""]","[1,1,1,0]",0,26,26,26,1,1,0,,,1,FALSE,,,,,,,,,,,,,,,,,,,,,,,,,,,,,,
,61074312e42690a97177bb63,001,2022-04-29_03h08.28.185,classification_task,2021.2.3,MacIntel,59.99880002,61074312e42690a97177bb63,626b377229c10585ec392f8a,626b3a7e370e1de6d1d46a94,,,,,,,,,,,,,,,,,,,,,,,a,0,1.1094,"[""0.092"",""0.736"",""0.550"",""0.675""]","[1,0,1,1]",0,27,27,27,1,1,1,,,1,FALSE,,,,,,,,,,,,,,,,,,,,,,,,,,,,,,
,61074312e42690a97177bb63,001,2022-04-29_03h08.28.185,classification_task,2021.2.3,MacIntel,59.99880002,61074312e42690a97177bb63,626b377229c10585ec392f8a,626b3a7e370e1de6d1d46a94,,,,,,,,,,,,,,,,,,,,,,,l,1,0.7387,"[""0.710"",""0.252"",""0.500"",""0.787""]","[0,1,1,1]",0,28,28,28,1,1,0,,,1,FALSE,,,,,,,,,,,,,,,,,,,,,,,,,,,,,,
,61074312e42690a97177bb63,001,2022-04-29_03h08.28.185,classification_task,2021.2.3,MacIntel,59.99880002,61074312e42690a97177bb63,626b377229c10585ec392f8a,626b3a7e370e1de6d1d46a94,,,,,,,,,,,,,,,,,,,,,,,a,0,1.1963,"[""0.092"",""0.376"",""0.550"",""0.028""]","[1,1,1,0]",0,29,29,29,1,1,1,,,1,FALSE,,,,,,,,,,,,,,,,,,,,,,,,,,,,,,
,61074312e42690a97177bb63,001,2022-04-29_03h08.28.185,classification_task,2021.2.3,MacIntel,59.99880002,61074312e42690a97177bb63,626b377229c10585ec392f8a,626b3a7e370e1de6d1d46a94,,,,,,,,,,,,,,,,,,,,,,,l,1,0.6035,"[""0.132"",""0.252"",""0.743"",""0.787""]","[1,1,0,1]",0,30,30,30,1,1,0,,,1,FALSE,,,,,,,,,,,,,,,,,,,,,,,,,,,,,,
,61074312e42690a97177bb63,001,2022-04-29_03h08.28.185,classification_task,2021.2.3,MacIntel,59.99880002,61074312e42690a97177bb63,626b377229c10585ec392f8a,626b3a7e370e1de6d1d46a94,,,,,,,,,,,,,,,,,,,,,,,l,0,1.2032,"[""0.192"",""0.748"",""0.884"",""0.925""]","[1,0,1,1]",0,31,31,31,1,0,0,,,1,FALSE,,,,,,,,,,,,,,,,,,,,,,,,,,,,,,
,61074312e42690a97177bb63,001,2022-04-29_03h08.28.185,classification_task,2021.2.3,MacIntel,59.99880002,61074312e42690a97177bb63,626b377229c10585ec392f8a,626b3a7e370e1de6d1d46a94,,,,,,,,,,,,,,,,,,,,,,,l,1,0.9064,"[""0.132"",""0.710"",""0.500"",""0.787""]","[1,0,1,1]",0,32,32,32,1,1,0,,,1,FALSE,,,,,,,,,,,,,,,,,,,,,,,,,,,,,,
,61074312e42690a97177bb63,001,2022-04-29_03h08.28.185,classification_task,2021.2.3,MacIntel,59.99880002,61074312e42690a97177bb63,626b377229c10585ec392f8a,626b3a7e370e1de6d1d46a94,,,,,,,,,,,,,,,,,,,,,,,a,1,0.8084,"[""0.308"",""0.419"",""0.736"",""0.959""]","[1,1,0,1]",0,33,33,33,1,0,1,,,1,FALSE,,,,,,,,,,,,,,,,,,,,,,,,,,,,,,
,61074312e42690a97177bb63,001,2022-04-29_03h08.28.185,classification_task,2021.2.3,MacIntel,59.99880002,61074312e42690a97177bb63,626b377229c10585ec392f8a,626b3a7e370e1de6d1d46a94,,,,,,,,,,,,,,,,,,,,,,,l,1,1.4801,"[""0.092"",""0.376"",""0.550"",""0.028""]","[1,1,1,0]",0,34,34,34,1,1,1,,,1,FALSE,,,,,,,,,,,,,,,,,,,,,,,,,,,,,,
,61074312e42690a97177bb63,001,2022-04-29_03h08.28.185,classification_task,2021.2.3,MacIntel,59.99880002,61074312e42690a97177bb63,626b377229c10585ec392f8a,626b3a7e370e1de6d1d46a94,,,,,,,,,,,,,,,,,,,,,,,l,0,1.1939,"[""0.192"",""0.746"",""0.884"",""0.925""]","[1,0,1,1]",0,35,35,35,1,0,0,,,1,FALSE,,,,,,,,,,,,,,,,,,,,,,,,,,,,,,
,61074312e42690a97177bb63,001,2022-04-29_03h08.28.185,classification_task,2021.2.3,MacIntel,59.99880002,61074312e42690a97177bb63,626b377229c10585ec392f8a,626b3a7e370e1de6d1d46a94,,,,,,,,,,,,,,,,,,,,,,,a,0,1.1892,"[""0.092"",""0.376"",""0.727"",""0.675""]","[1,1,0,1]",0,36,36,36,1,1,1,,,1,FALSE,,,,,,,,,,,,,,,,,,,,,,,,,,,,,,
,61074312e42690a97177bb63,001,2022-04-29_03h08.28.185,classification_task,2021.2.3,MacIntel,59.99880002,61074312e42690a97177bb63,626b377229c10585ec392f8a,626b3a7e370e1de6d1d46a94,,,,,,,,,,,,,,,,,,,,,,,a,0,0.6083,"[""0.132"",""0.252"",""0.500"",""0.718""]","[1,1,1,0]",0,37,37,37,1,1,0,,,1,FALSE,,,,,,,,,,,,,,,,,,,,,,,,,,,,,,
,61074312e42690a97177bb63,001,2022-04-29_03h08.28.185,classification_task,2021.2.3,MacIntel,59.99880002,61074312e42690a97177bb63,626b377229c10585ec392f8a,626b3a7e370e1de6d1d46a94,,,,,,,,,,,,,,,,,,,,,,,a,1,0.8009,"[""0.036"",""0.419"",""0.613"",""0.959""]","[0,1,1,1]",0,38,38,38,1,0,1,,,1,FALSE,,,,,,,,,,,,,,,,,,,,,,,,,,,,,,
,61074312e42690a97177bb63,001,2022-04-29_03h08.28.185,classification_task,2021.2.3,MacIntel,59.99880002,61074312e42690a97177bb63,626b377229c10585ec392f8a,626b3a7e370e1de6d1d46a94,,,,,,,,,,,,,,,,,,,,,,,a,1,0.8084,"[""0.308"",""0.419"",""0.613"",""0.049""]","[1,1,1,0]",0,39,39,39,1,0,1,,,1,FALSE,,,,,,,,,,,,,,,,,,,,,,,,,,,,,,
,61074312e42690a97177bb63,001,2022-04-29_03h08.28.185,classification_task,2021.2.3,MacIntel,59.99880002,61074312e42690a97177bb63,626b377229c10585ec392f8a,626b3a7e370e1de6d1d46a94,,,,,,,,,,,,,,,,,,,,,,,a,0,1.0969,"[""0.092"",""0.743"",""0.550"",""0.675""]","[1,0,1,1]",0,40,40,40,1,1,1,,,1,FALSE,,,,,,,,,,,,,,,,,,,,,,,,,,,,,,
,61074312e42690a97177bb63,001,2022-04-29_03h08.28.185,classification_task,2021.2.3,MacIntel,59.99880002,61074312e42690a97177bb63,626b377229c10585ec392f8a,626b3a7e370e1de6d1d46a94,,,,,,,,,,,,,,,,,,,,,,,l,1,0.6049,"[""0.132"",""0.252"",""0.710"",""0.787""]","[1,1,0,1]",0,41,41,41,1,1,0,,,1,FALSE,,,,,,,,,,,,,,,,,,,,,,,,,,,,,,
,61074312e42690a97177bb63,001,2022-04-29_03h08.28.185,classification_task,2021.2.3,MacIntel,59.99880002,61074312e42690a97177bb63,626b377229c10585ec392f8a,626b3a7e370e1de6d1d46a94,,,,,,,,,,,,,,,,,,,,,,,l,0,0.9083,"[""0.192"",""0.462"",""0.743"",""0.925""]","[1,1,0,1]",0,42,42,42,1,0,0,,,1,FALSE,,,,,,,,,,,,,,,,,,,,,,,,,,,,,,
,61074312e42690a97177bb63,001,2022-04-29_03h08.28.185,classification_task,2021.2.3,MacIntel,59.99880002,61074312e42690a97177bb63,626b377229c10585ec392f8a,626b3a7e370e1de6d1d46a94,,,,,,,,,,,,,,,,,,,,,,,l,0,0.6271,"[""0.192"",""0.462"",""0.884"",""0.748""]","[1,1,1,0]",0,43,43,43,1,0,0,,,1,FALSE,,,,,,,,,,,,,,,,,,,,,,,,,,,,,,
,61074312e42690a97177bb63,001,2022-04-29_03h08.28.185,classification_task,2021.2.3,MacIntel,59.99880002,61074312e42690a97177bb63,626b377229c10585ec392f8a,626b3a7e370e1de6d1d46a94,,,,,,,,,,,,,,,,,,,,,,,l,0,0.8037,"[""0.748"",""0.462"",""0.884"",""0.925""]","[0,1,1,1]",0,44,44,44,1,0,0,,,1,FALSE,,,,,,,,,,,,,,,,,,,,,,,,,,,,,,
,61074312e42690a97177bb63,001,2022-04-29_03h08.28.185,classification_task,2021.2.3,MacIntel,59.99880002,61074312e42690a97177bb63,626b377229c10585ec392f8a,626b3a7e370e1de6d1d46a94,,,,,,,,,,,,,,,,,,,,,,,l,1,0.604,"[""0.736"",""0.252"",""0.500"",""0.787""]","[0,1,1,1]",0,45,45,45,1,1,0,,,1,FALSE,,,,,,,,,,,,,,,,,,,,,,,,,,,,,,
,61074312e42690a97177bb63,001,2022-04-29_03h08.28.185,classification_task,2021.2.3,MacIntel,59.99880002,61074312e42690a97177bb63,626b377229c10585ec392f8a,626b3a7e370e1de6d1d46a94,,,,,,,,,,,,,,,,,,,,,,,a,1,1.0029,"[""0.308"",""0.046"",""0.613"",""0.959""]","[1,0,1,1]",0,46,46,46,1,0,1,,,1,FALSE,,,,,,,,,,,,,,,,,,,,,,,,,,,,,,
,61074312e42690a97177bb63,001,2022-04-29_03h08.28.185,classification_task,2021.2.3,MacIntel,59.99880002,61074312e42690a97177bb63,626b377229c10585ec392f8a,626b3a7e370e1de6d1d46a94,,,,,,,,,,,,,,,,,,,,,,,a,0,1.0071,"[""0.049"",""0.376"",""0.550"",""0.675""]","[0,1,1,1]",0,47,47,47,1,1,1,,,1,FALSE,,,,,,,,,,,,,,,,,,,,,,,,,,,,,,
,61074312e42690a97177bb63,001,2022-04-29_03h08.28.185,classification_task,2021.2.3,MacIntel,59.99880002,61074312e42690a97177bb63,626b377229c10585ec392f8a,626b3a7e370e1de6d1d46a94,,,,,,,,,,,,,,,,,,,,,,,l,1,1.2878,"[""0.092"",""0.376"",""0.550"",""0.746""]","[1,1,1,0]",0,48,48,48,1,1,1,,,1,FALSE,,,,,,,,,,,,,,,,,,,,,,,,,,,,,,
,61074312e42690a97177bb63,001,2022-04-29_03h08.28.185,classification_task,2021.2.3,MacIntel,59.99880002,61074312e42690a97177bb63,626b377229c10585ec392f8a,626b3a7e370e1de6d1d46a94,,,,,,,,,,,,,,,,,,,,,,,a,0,0.8003,"[""0.092"",""0.376"",""0.736"",""0.675""]","[1,1,0,1]",0,49,49,49,1,1,1,,,1,FALSE,,,,,,,,,,,,,,,,,,,,,,,,,,,,,,
,61074312e42690a97177bb63,001,2022-04-29_03h08.28.185,classification_task,2021.2.3,MacIntel,59.99880002,61074312e42690a97177bb63,626b377229c10585ec392f8a,626b3a7e370e1de6d1d46a94,,,,,,,,,,,,,,,,,,,,,,,l,1,1.0001,"[""0.132"",""0.252"",""0.033"",""0.787""]","[1,1,0,1]",0,50,50,50,1,1,0,,,1,FALSE,,,,,,,,,,,,,,,,,,,,,,,,,,,,,,
,61074312e42690a97177bb63,001,2022-04-29_03h08.28.185,classification_task,2021.2.3,MacIntel,59.99880002,61074312e42690a97177bb63,626b377229c10585ec392f8a,626b3a7e370e1de6d1d46a94,,,,,,,,,,,,,,,,,,,,,,,a,1,1.0975,"[""0.308"",""0.748"",""0.613"",""0.959""]","[1,0,1,1]",0,51,51,51,1,0,1,,,1,FALSE,,,,,,,,,,,,,,,,,,,,,,,,,,,,,,
,61074312e42690a97177bb63,001,2022-04-29_03h08.28.185,classification_task,2021.2.3,MacIntel,59.99880002,61074312e42690a97177bb63,626b377229c10585ec392f8a,626b3a7e370e1de6d1d46a94,,,,,,,,,,,,,,,,,,,,,,,l,1,0.7014,"[""0.049"",""0.252"",""0.500"",""0.787""]","[0,1,1,1]",0,52,52,52,1,1,0,,,1,FALSE,,,,,,,,,,,,,,,,,,,,,,,,,,,,,,
,61074312e42690a97177bb63,001,2022-04-29_03h08.28.185,classification_task,2021.2.3,MacIntel,59.99880002,61074312e42690a97177bb63,626b377229c10585ec392f8a,626b3a7e370e1de6d1d46a94,,,,,,,,,,,,,,,,,,,,,,,l,1,0.9893,"[""0.748"",""0.376"",""0.550"",""0.675""]","[0,1,1,1]",0,53,53,53,1,1,1,,,1,FALSE,,,,,,,,,,,,,,,,,,,,,,,,,,,,,,
,61074312e42690a97177bb63,001,2022-04-29_03h08.28.185,classification_task,2021.2.3,MacIntel,59.99880002,61074312e42690a97177bb63,626b377229c10585ec392f8a,626b3a7e370e1de6d1d46a94,,,,,,,,,,,,,,,,,,,,,,,l,0,1.2846,"[""0.192"",""0.736"",""0.884"",""0.925""]","[1,0,1,1]",0,54,54,54,1,0,0,,,1,FALSE,,,,,,,,,,,,,,,,,,,,,,,,,,,,,,
,61074312e42690a97177bb63,001,2022-04-29_03h08.28.185,classification_task,2021.2.3,MacIntel,59.99880002,61074312e42690a97177bb63,626b377229c10585ec392f8a,626b3a7e370e1de6d1d46a94,,,,,,,,,,,,,,,,,,,,,,,l,1,1.4234,"[""0.132"",""0.252"",""0.500"",""0.746""]","[1,1,1,0]",0,55,55,55,1,1,0,,,1,FALSE,,,,,,,,,,,,,,,,,,,,,,,,,,,,,,
,61074312e42690a97177bb63,001,2022-04-29_03h08.28.185,classification_task,2021.2.3,MacIntel,59.99880002,61074312e42690a97177bb63,626b377229c10585ec392f8a,626b3a7e370e1de6d1d46a94,,,,,,,,,,,,,,,,,,,,,,,a,1,1.1064,"[""0.308"",""0.419"",""0.743"",""0.959""]","[1,1,0,1]",0,56,56,56,1,0,1,,,1,FALSE,,,,,,,,,,,,,,,,,,,,,,,,,,,,,,
,61074312e42690a97177bb63,001,2022-04-29_03h08.28.185,classification_task,2021.2.3,MacIntel,59.99880002,61074312e42690a97177bb63,626b377229c10585ec392f8a,626b3a7e370e1de6d1d46a94,,,,,,,,,,,,,,,,,,,,,,,a,1,1.2238,"[""0.192"",""0.462"",""0.884"",""0.030""]","[1,1,1,0]",0,57,57,57,1,0,0,,,1,FALSE,,,,,,,,,,,,,,,,,,,,,,,,,,,,,,
,61074312e42690a97177bb63,001,2022-04-29_03h08.28.185,classification_task,2021.2.3,MacIntel,59.99880002,61074312e42690a97177bb63,626b377229c10585ec392f8a,626b3a7e370e1de6d1d46a94,,,,,,,,,,,,,,,,,,,,,,,a,1,1.081,"[""0.030"",""0.462"",""0.884"",""0.925""]","[0,1,1,1]",0,58,58,58,1,0,0,,,1,FALSE,,,,,,,,,,,,,,,,,,,,,,,,,,,,,,
,61074312e42690a97177bb63,001,2022-04-29_03h08.28.185,classification_task,2021.2.3,MacIntel,59.99880002,61074312e42690a97177bb63,626b377229c10585ec392f8a,626b3a7e370e1de6d1d46a94,,,,,,,,,,,,,,,,,,,,,,,a,1,0.6985,"[""0.192"",""0.462"",""0.736"",""0.925""]","[1,1,0,1]",0,59,59,59,1,0,0,,,1,FALSE,,,,,,,,,,,,,,,,,,,,,,,,,,,,,,
,61074312e42690a97177bb63,001,2022-04-29_03h08.28.185,classification_task,2021.2.3,MacIntel,59.99880002,61074312e42690a97177bb63,626b377229c10585ec392f8a,626b3a7e370e1de6d1d46a94,,,,,,,,,,,,,,,,,,,,,,,l,1,0.7031,"[""0.132"",""0.718"",""0.500"",""0.787""]","[1,0,1,1]",0,60,60,60,1,1,0,,,1,FALSE,,,,,,,,,,,,,,,,,,,,,,,,,,,,,,
,61074312e42690a97177bb63,001,2022-04-29_03h08.28.185,classification_task,2021.2.3,MacIntel,59.99880002,61074312e42690a97177bb63,626b377229c10585ec392f8a,626b3a7e370e1de6d1d46a94,,,,,,,,,,,,,,,,,,,,,,,a,0,1.0037,"[""0.092"",""0.748"",""0.550"",""0.675""]","[1,0,1,1]",0,61,61,61,1,1,1,,,1,FALSE,,,,,,,,,,,,,,,,,,,,,,,,,,,,,,
,61074312e42690a97177bb63,001,2022-04-29_03h08.28.185,classification_task,2021.2.3,MacIntel,59.99880002,61074312e42690a97177bb63,626b377229c10585ec392f8a,626b3a7e370e1de6d1d46a94,,,,,,,,,,,,,,,,,,,,,,,a,1,0.7138,"[""0.735"",""0.419"",""0.613"",""0.959""]","[0,1,1,1]",0,62,62,62,1,0,1,,,1,FALSE,,,,,,,,,,,,,,,,,,,,,,,,,,,,,,
,61074312e42690a97177bb63,001,2022-04-29_03h08.28.185,classification_task,2021.2.3,MacIntel,59.99880002,61074312e42690a97177bb63,626b377229c10585ec392f8a,626b3a7e370e1de6d1d46a94,,,,,,,,,,,,,,,,,,,,,,,a,1,0.6244,"[""0.308"",""0.419"",""0.613"",""0.033""]","[1,1,1,0]",0,63,63,63,1,0,1,,,1,FALSE,,,,,,,,,,,,,,,,,,,,,,,,,,,,,,
,61074312e42690a97177bb63,001,2022-04-29_03h08.28.185,classification_task,2021.2.3,MacIntel,59.99880002,61074312e42690a97177bb63,626b377229c10585ec392f8a,626b3a7e370e1de6d1d46a94,,,,,,,,,,,,,,,,,,,,,,,,,,,,,,,,,,,,,,,0, ,,0,1.811433374,150.797,0,2,2,2,1,2,3,,,,,,,,,,,,,,,,,
,61074312e42690a97177bb63,001,2022-04-29_03h08.28.185,classification_task,2021.2.3,MacIntel,59.99880002,61074312e42690a97177bb63,626b377229c10585ec392f8a,626b3a7e370e1de6d1d46a94,,,,,,,,,,,,,,,,,,,,,,,,,,,,,,,,,,,,,,,1,  ,,0,7.050589282,152.112,0,2,2,2,1,2,3,,,,,,,,,,,,,,,,,
,61074312e42690a97177bb63,001,2022-04-29_03h08.28.185,classification_task,2021.2.3,MacIntel,59.99880002,61074312e42690a97177bb63,626b377229c10585ec392f8a,626b3a7e370e1de6d1d46a94,,,,,,,,,,,,,,,,,,,,,,,,,,,,,,,,,,,,,,,2,  ,,0,8.073574024,153.1443,0,2,2,2,1,2,3,,,,,,,,,,,,,,,,,
,61074312e42690a97177bb63,001,2022-04-29_03h08.28.185,classification_task,2021.2.3,MacIntel,59.99880002,61074312e42690a97177bb63,626b377229c10585ec392f8a,626b3a7e370e1de6d1d46a94,,,,,,,,,,,,,,,,,,,,,,,,,,,,,,,,,,,,,,,,,,,,,0,2,2,2,1,,3,,,,,,,,,,,,,,,,,
,61074312e42690a97177bb63,001,2022-04-29_03h08.28.185,classification_task,2021.2.3,MacIntel,59.99880002,61074312e42690a97177bb63,626b377229c10585ec392f8a,626b3a7e370e1de6d1d46a94,,,,,,,,,,,,,,,,,,,,,,,,,,,,,,,,,,,,,,,,,,,,,,,,,,,,,I believe the aid is a competent performer,,0.7,0,2,720.7134,0,0,0,0,1,0,,,,
,61074312e42690a97177bb63,001,2022-04-29_03h08.28.185,classification_task,2021.2.3,MacIntel,59.99880002,61074312e42690a97177bb63,626b377229c10585ec392f8a,626b3a7e370e1de6d1d46a94,,,,,,,,,,,,,,,,,,,,,,,,,,,,,,,,,,,,,,,,,,,,,,,,,,,,,I trust the aid,,0.7,0,3,722.7312,0,0,0,0,1,0,,,,
,61074312e42690a97177bb63,001,2022-04-29_03h08.28.185,classification_task,2021.2.3,MacIntel,59.99880002,61074312e42690a97177bb63,626b377229c10585ec392f8a,626b3a7e370e1de6d1d46a94,,,,,,,,,,,,,,,,,,,,,,,,,,,,,,,,,,,,,,,,,,,,,,,,,,,,,I have confidence in the advice given by the aid,,0.7,0,3,724.5514,0,0,0,0,1,0,,,,
,61074312e42690a97177bb63,001,2022-04-29_03h08.28.185,classification_task,2021.2.3,MacIntel,59.99880002,61074312e42690a97177bb63,626b377229c10585ec392f8a,626b3a7e370e1de6d1d46a94,,,,,,,,,,,,,,,,,,,,,,,,,,,,,,,,,,,,,,,,,,,,,,,,,,,,,I can depend on the aid,,0.7,0,2,727.1324,0,0,0,0,1,0,,,,
,61074312e42690a97177bb63,001,2022-04-29_03h08.28.185,classification_task,2021.2.3,MacIntel,59.99880002,61074312e42690a97177bb63,626b377229c10585ec392f8a,626b3a7e370e1de6d1d46a94,,,,,,,,,,,,,,,,,,,,,,,,,,,,,,,,,,,,,,,,,,,,,,,,,,,,,I can rely on the aid to behave in consistent ways,,0.7,0,2,729.7589,0,0,0,0,1,0,,,,
,61074312e42690a97177bb63,001,2022-04-29_03h08.28.185,classification_task,2021.2.3,MacIntel,59.99880002,61074312e42690a97177bb63,626b377229c10585ec392f8a,626b3a7e370e1de6d1d46a94,,,,,,,,,,,,,,,,,,,,,,,,,,,,,,,,,,,,,,,,,,,,,,,,,,,,,I can rely on the aid to do its best every time I take its advice,,0.7,0,2,733.582,0,0,0,0,1,0,,,,
,61074312e42690a97177bb63,001,2022-04-29_03h08.28.185,classification_task,2021.2.3,MacIntel,59.99880002,61074312e42690a97177bb63,626b377229c10585ec392f8a,626b3a7e370e1de6d1d46a94,,,,,,,,,,,,,,,,,,,,,,,,,,,,,,,,,,,,,,,,,,,,,,,,,,,,,"On trials you completed with assistance from the aid, how frequently did you think the aid was correct?",,0.7,0,70%,,0,0,0,0,1,0,,,,
,61074312e42690a97177bb63,001,2022-04-29_03h08.28.185,classification_task,2021.2.3,MacIntel,59.99880002,61074312e42690a97177bb63,626b377229c10585ec392f8a,626b3a7e370e1de6d1d46a94,,,,,,,,,,,,,,,,,,,,,,,,,,,,,,,,,,,,,,,,,,,,,,,,,,,,,"On trials you completed without the aid, how frequently did you think you were correct?",,0.7,0,30%,,0,0,0,0,1,0,,,,
,61074312e42690a97177bb63,001,2022-04-29_03h08.28.185,classification_task,2021.2.3,MacIntel,59.99880002,61074312e42690a97177bb63,626b377229c10585ec392f8a,626b3a7e370e1de6d1d46a94,,,,,,,,,,,,,,,,,,,,,,,,,,,,,,,,,,,,,,,,,,,,,,,,,,,,,,,,,,,0,0,0,0,1,,,,,
,61074312e42690a97177bb63,001,2022-04-29_03h08.28.185,classification_task,2021.2.3,MacIntel,59.99880002,61074312e42690a97177bb63,626b377229c10585ec392f8a,626b3a7e370e1de6d1d46a94,,,,,,,,,,,,,,,,,,,,,,,,,,,,,,,,,,,,,,,,,,,,,,,,,,,,,,,,,,,,,,,,,space,4.2445,754.5688,
,61074312e42690a97177bb63,001,2022-04-29_03h08.28.185,classification_task,2021.2.3,MacIntel,59.99880002,61074312e42690a97177bb63,626b377229c10585ec392f8a,626b3a7e370e1de6d1d46a94,,,,,,,,,,,,,,,,,,,,,,,,,,,,,,,,,,,,,,,,,,,,,,,,,,,,,,,,,,,,,,,,,,,,"Mozilla/5.0 (Macintosh; Intel Mac OS X 10_15_7) AppleWebKit/537.36 (KHTML, like Gecko) Chrome/100.0.4896.88 Safari/537.36"
