usingWebGL,participant,session,date,expName,psychopyVersion,OS,frameRate,study_id,signatures_friend,signatures_foe,band_ranges_top,band_ranges_bottom,formitemText,formtype,formundefined,formitemWidth,formindex,formresponse,formrt,key_resp_2.keys,key_resp_2.rt,tute_resp.keys,tute_resp.rt,tutorial.thisRepN,tutorial.thisTrialN,tutorial.thisN,tutorial.thisIndex,tutorial.ran,key_resp_4.keys,key_resp_4.rt,key_resp.keys,key_resp.corr,key_resp.rt,lines_presented,is_signal_presented,trials.thisRepN,trials.thisTrialN,trials.thisN,trials.thisIndex,trials.ran,vessel,active_band,lines,is_signal,supported_pos,catch_trial,debrief_formindex,debrief_formitemText,debrief_formtype,debrief_formitemWidth,debrief_formresponse,debrief_formrt,phases.thisRepN,phases.thisTrialN,phases.thisN,phases.thisIndex,phases.ran,phases.order,phase,key_resp_3.keys,trustitemText,trusttype,trustitemWidth,trustindex,trustresponse,trustrt,support_status.thisRepN,support_status.thisTrialN,support_status.thisN,support_status.thisIndex,support_status.ran,support_status.order,key_resp_5.keys,key_resp_5.rt,globalClockTime,userAgent,manualCondition
TRUE,61073e6d38111b5924507b77,627c6fad59bfe5359f80482d,2022-05-11_21h46.39.308,classification_task,2021.2.3,Win32,60.87168249,627c6715c52fd12f31907bd0,,,,,,,,,,,,,,,,,,,,,,,,,,,,,,,,,,,,,,,,,,,,,,,,,,,,,,,,,,,,,,,,,,,,,
,61073e6d38111b5924507b77,627c6fad59bfe5359f80482d,2022-05-11_21h46.39.308,classification_task,2021.2.3,Win32,60.87168249,627c6715c52fd12f31907bd0,"[[""0.225"",""0.423"",""0.770"",""0.900""],[""0.188"",""0.379"",""0.610"",""0.960""]]","[[""0.095"",""0.268"",""0.664"",""0.805""],[""0.026"",""0.134"",""0.497"",""0.707""]]","[1,10]","[100,1000]",Video game experience,,,0.7,0,,,,,,,,,,,,,,,,,,,,,,,,,,,,,,,,,,,,,,,,,,,,,,,,,,,,,,,,,,,,
,61073e6d38111b5924507b77,627c6fad59bfe5359f80482d,2022-05-11_21h46.39.308,classification_task,2021.2.3,Win32,60.87168249,627c6715c52fd12f31907bd0,,,,,Approximately how many hours did you spend playing video games in the last week?,,,0.7,0,3,,,,,,,,,,,,,,,,,,,,,,,,,,,,,,,,,,,,,,,,,,,,,,,,,,,,,,,,,,,
,61073e6d38111b5924507b77,627c6fad59bfe5359f80482d,2022-05-11_21h46.39.308,classification_task,2021.2.3,Win32,60.87168249,627c6715c52fd12f31907bd0,,,,,"Which game did you play the most this year? (Enter ""None"" if you didn't play any)",,,0.7,0,Mario kart,,,,,,,,,,,,,,,,,,,,,,,,,,,,,,,,,,,,,,,,,,,,,,,,,,,,,,,,,,,
,61073e6d38111b5924507b77,627c6fad59bfe5359f80482d,2022-05-11_21h46.39.308,classification_task,2021.2.3,Win32,60.87168249,627c6715c52fd12f31907bd0,,,,,Visual perception,,,0.7,0,,,,,,,,,,,,,,,,,,,,,,,,,,,,,,,,,,,,,,,,,,,,,,,,,,,,,,,,,,,,
,61073e6d38111b5924507b77,627c6fad59bfe5359f80482d,2022-05-11_21h46.39.308,classification_task,2021.2.3,Win32,60.87168249,627c6715c52fd12f31907bd0,,,,,Do you have any form of color blindness?,,,0.7,0,No,10.9799,,,,,,,,,,,,,,,,,,,,,,,,,,,,,,,,,,,,,,,,,,,,,,,,,,,,,,,,,,
,61073e6d38111b5924507b77,627c6fad59bfe5359f80482d,2022-05-11_21h46.39.308,classification_task,2021.2.3,Win32,60.87168249,627c6715c52fd12f31907bd0,,,,,Do you use software to change the colour temperature of your screen (e.g. f.lux)?,,,0.7,0,No,11.9954,,,,,,,,,,,,,,,,,,,,,,,,,,,,,,,,,,,,,,,,,,,,,,,,,,,,,,,,,,
,61073e6d38111b5924507b77,627c6fad59bfe5359f80482d,2022-05-11_21h46.39.308,classification_task,2021.2.3,Win32,60.87168249,627c6715c52fd12f31907bd0,,,,,,,,,,,,space,1.2131,space,1.1436,0,0,0,0,1,,,,,,,,,,,,,,,,,,,,,,,,,,,,,,,,,,,,,,,,,,,,,,,,,
,61073e6d38111b5924507b77,627c6fad59bfe5359f80482d,2022-05-11_21h46.39.308,classification_task,2021.2.3,Win32,60.87168249,627c6715c52fd12f31907bd0,,,,,,,,,,,,,,space,0.7668,1,0,1,0,1,,,,,,,,,,,,,,,,,,,,,,,,,,,,,,,,,,,,,,,,,,,,,,,,,
,61073e6d38111b5924507b77,627c6fad59bfe5359f80482d,2022-05-11_21h46.39.308,classification_task,2021.2.3,Win32,60.87168249,627c6715c52fd12f31907bd0,,,,,,,,,,,,,,space,1.4301,2,0,2,0,1,,,,,,,,,,,,,,,,,,,,,,,,,,,,,,,,,,,,,,,,,,,,,,,,,
,61073e6d38111b5924507b77,627c6fad59bfe5359f80482d,2022-05-11_21h46.39.308,classification_task,2021.2.3,Win32,60.87168249,627c6715c52fd12f31907bd0,,,,,,,,,,,,,,space,0.4724,3,0,3,0,1,,,,,,,,,,,,,,,,,,,,,,,,,,,,,,,,,,,,,,,,,,,,,,,,,
,61073e6d38111b5924507b77,627c6fad59bfe5359f80482d,2022-05-11_21h46.39.308,classification_task,2021.2.3,Win32,60.87168249,627c6715c52fd12f31907bd0,,,,,,,,,,,,,,space,0.4946,4,0,4,0,1,,,,,,,,,,,,,,,,,,,,,,,,,,,,,,,,,,,,,,,,,,,,,,,,,
,61073e6d38111b5924507b77,627c6fad59bfe5359f80482d,2022-05-11_21h46.39.308,classification_task,2021.2.3,Win32,60.87168249,627c6715c52fd12f31907bd0,,,,,,,,,,,,,,,,,,,,,space,1.3207,l,1,2.693,"[""0.095"",""0.341"",""0.664"",""0.805""]","[1,0,1,1]",0,0,0,0,1,1,0,,,0,FALSE,,,,,,,,,,,,,,,,,,,,,,,,,,,,,,,
,61073e6d38111b5924507b77,627c6fad59bfe5359f80482d,2022-05-11_21h46.39.308,classification_task,2021.2.3,Win32,60.87168249,627c6715c52fd12f31907bd0,,,,,,,,,,,,,,,,,,,,,,,a,1,3.4256,"[""0.188"",""0.379"",""0.610"",""0.341""]","[1,1,1,0]",0,1,1,1,1,0,1,,,0,FALSE,,,,,,,,,,,,,,,,,,,,,,,,,,,,,,,
,61073e6d38111b5924507b77,627c6fad59bfe5359f80482d,2022-05-11_21h46.39.308,classification_task,2021.2.3,Win32,60.87168249,627c6715c52fd12f31907bd0,,,,,,,,,,,,,,,,,,,,,,,l,1,3.5175,"[""0.095"",""0.268"",""0.664"",""0.333""]","[1,1,1,0]",0,2,2,2,1,1,0,,,0,FALSE,,,,,,,,,,,,,,,,,,,,,,,,,,,,,,,
,61073e6d38111b5924507b77,627c6fad59bfe5359f80482d,2022-05-11_21h46.39.308,classification_task,2021.2.3,Win32,60.87168249,627c6715c52fd12f31907bd0,,,,,,,,,,,,,,,,,,,,,,,a,1,3.7607,"[""0.535"",""0.423"",""0.770"",""0.900""]","[0,1,1,1]",0,3,3,3,1,0,0,,,0,FALSE,,,,,,,,,,,,,,,,,,,,,,,,,,,,,,,
,61073e6d38111b5924507b77,627c6fad59bfe5359f80482d,2022-05-11_21h46.39.308,classification_task,2021.2.3,Win32,60.87168249,627c6715c52fd12f31907bd0,,,,,,,,,,,,,,,,,,,,,,,l,0,2.4367,"[""0.188"",""0.379"",""0.864"",""0.960""]","[1,1,0,1]",0,4,4,4,1,0,1,,,0,FALSE,,,,,,,,,,,,,,,,,,,,,,,,,,,,,,,
,61073e6d38111b5924507b77,627c6fad59bfe5359f80482d,2022-05-11_21h46.39.308,classification_task,2021.2.3,Win32,60.87168249,627c6715c52fd12f31907bd0,,,,,,,,,,,,,,,,,,,,,,,a,1,4.3182,"[""0.317"",""0.379"",""0.610"",""0.960""]","[0,1,1,1]",0,5,5,5,1,0,1,,,0,FALSE,,,,,,,,,,,,,,,,,,,,,,,,,,,,,,,
,61073e6d38111b5924507b77,627c6fad59bfe5359f80482d,2022-05-11_21h46.39.308,classification_task,2021.2.3,Win32,60.87168249,627c6715c52fd12f31907bd0,,,,,,,,,,,,,,,,,,,,,,,a,0,3.4283,"[""0.856"",""0.134"",""0.497"",""0.707""]","[0,1,1,1]",0,6,6,6,1,1,1,,,0,FALSE,,,,,,,,,,,,,,,,,,,,,,,,,,,,,,,
,61073e6d38111b5924507b77,627c6fad59bfe5359f80482d,2022-05-11_21h46.39.308,classification_task,2021.2.3,Win32,60.87168249,627c6715c52fd12f31907bd0,,,,,,,,,,,,,,,,,,,,,,,l,1,5.4398,"[""0.026"",""0.134"",""0.497"",""0.556""]","[1,1,1,0]",0,7,7,7,1,1,1,,,0,FALSE,,,,,,,,,,,,,,,,,,,,,,,,,,,,,,,
,61073e6d38111b5924507b77,627c6fad59bfe5359f80482d,2022-05-11_21h46.39.308,classification_task,2021.2.3,Win32,60.87168249,627c6715c52fd12f31907bd0,,,,,,,,,,,,,,,,,,,,,,,a,1,2.2883,"[""0.225"",""0.423"",""0.553"",""0.900""]","[1,1,0,1]",0,8,8,8,1,0,0,,,0,FALSE,,,,,,,,,,,,,,,,,,,,,,,,,,,,,,,
,61073e6d38111b5924507b77,627c6fad59bfe5359f80482d,2022-05-11_21h46.39.308,classification_task,2021.2.3,Win32,60.87168249,627c6715c52fd12f31907bd0,,,,,,,,,,,,,,,,,,,,,,,a,0,4.1826,"[""0.026"",""0.134"",""0.317"",""0.707""]","[1,1,0,1]",0,9,9,9,1,1,1,,,0,FALSE,,,,,,,,,,,,,,,,,,,,,,,,,,,,,,,
,61073e6d38111b5924507b77,627c6fad59bfe5359f80482d,2022-05-11_21h46.39.308,classification_task,2021.2.3,Win32,60.87168249,627c6715c52fd12f31907bd0,,,,,,,,,,,,,,,,,,,,,,,a,1,5.1149,"[""0.225"",""0.423"",""0.770"",""0.333""]","[1,1,1,0]",0,10,10,10,1,0,0,,,0,FALSE,,,,,,,,,,,,,,,,,,,,,,,,,,,,,,,
,61073e6d38111b5924507b77,627c6fad59bfe5359f80482d,2022-05-11_21h46.39.308,classification_task,2021.2.3,Win32,60.87168249,627c6715c52fd12f31907bd0,,,,,,,,,,,,,,,,,,,,,,,l,1,4.3718,"[""0.554"",""0.268"",""0.664"",""0.805""]","[0,1,1,1]",0,11,11,11,1,1,0,,,0,FALSE,,,,,,,,,,,,,,,,,,,,,,,,,,,,,,,
,61073e6d38111b5924507b77,627c6fad59bfe5359f80482d,2022-05-11_21h46.39.308,classification_task,2021.2.3,Win32,60.87168249,627c6715c52fd12f31907bd0,,,,,,,,,,,,,,,,,,,,,,,l,1,4.7786,"[""0.026"",""0.856"",""0.497"",""0.707""]","[1,0,1,1]",0,12,12,12,1,1,1,,,0,FALSE,,,,,,,,,,,,,,,,,,,,,,,,,,,,,,,
,61073e6d38111b5924507b77,627c6fad59bfe5359f80482d,2022-05-11_21h46.39.308,classification_task,2021.2.3,Win32,60.87168249,627c6715c52fd12f31907bd0,,,,,,,,,,,,,,,,,,,,,,,a,1,5.2827,"[""0.225"",""0.061"",""0.770"",""0.900""]","[1,0,1,1]",0,13,13,13,1,0,0,,,0,FALSE,,,,,,,,,,,,,,,,,,,,,,,,,,,,,,,
,61073e6d38111b5924507b77,627c6fad59bfe5359f80482d,2022-05-11_21h46.39.308,classification_task,2021.2.3,Win32,60.87168249,627c6715c52fd12f31907bd0,,,,,,,,,,,,,,,,,,,,,,,a,1,2.515,"[""0.188"",""0.553"",""0.610"",""0.960""]","[1,0,1,1]",0,14,14,14,1,0,1,,,0,FALSE,,,,,,,,,,,,,,,,,,,,,,,,,,,,,,,
,61073e6d38111b5924507b77,627c6fad59bfe5359f80482d,2022-05-11_21h46.39.308,classification_task,2021.2.3,Win32,60.87168249,627c6715c52fd12f31907bd0,,,,,,,,,,,,,,,,,,,,,,,l,1,2.3757,"[""0.095"",""0.268"",""0.850"",""0.805""]","[1,1,0,1]",0,15,15,15,1,1,0,,,0,FALSE,,,,,,,,,,,,,,,,,,,,,,,,,,,,,,,
,61073e6d38111b5924507b77,627c6fad59bfe5359f80482d,2022-05-11_21h46.39.308,classification_task,2021.2.3,Win32,60.87168249,627c6715c52fd12f31907bd0,,,,,,,,,,,,,,,,,,,,,,,l,0,2.2858,"[""0.188"",""0.864"",""0.610"",""0.960""]","[1,0,1,1]",0,16,16,16,1,0,1,,,0,FALSE,,,,,,,,,,,,,,,,,,,,,,,,,,,,,,,
,61073e6d38111b5924507b77,627c6fad59bfe5359f80482d,2022-05-11_21h46.39.308,classification_task,2021.2.3,Win32,60.87168249,627c6715c52fd12f31907bd0,,,,,,,,,,,,,,,,,,,,,,,a,1,2.2651,"[""0.188"",""0.379"",""0.862"",""0.960""]","[1,1,0,1]",0,17,17,17,1,0,1,,,0,FALSE,,,,,,,,,,,,,,,,,,,,,,,,,,,,,,,
,61073e6d38111b5924507b77,627c6fad59bfe5359f80482d,2022-05-11_21h46.39.308,classification_task,2021.2.3,Win32,60.87168249,627c6715c52fd12f31907bd0,,,,,,,,,,,,,,,,,,,,,,,l,1,3.4114,"[""0.026"",""0.134"",""0.497"",""0.554""]","[1,1,1,0]",0,18,18,18,1,1,1,,,0,FALSE,,,,,,,,,,,,,,,,,,,,,,,,,,,,,,,
,61073e6d38111b5924507b77,627c6fad59bfe5359f80482d,2022-05-11_21h46.39.308,classification_task,2021.2.3,Win32,60.87168249,627c6715c52fd12f31907bd0,,,,,,,,,,,,,,,,,,,,,,,a,0,4.2245,"[""0.095"",""0.268"",""0.664"",""0.569""]","[1,1,1,0]",0,19,19,19,1,1,0,,,0,FALSE,,,,,,,,,,,,,,,,,,,,,,,,,,,,,,,
,61073e6d38111b5924507b77,627c6fad59bfe5359f80482d,2022-05-11_21h46.39.308,classification_task,2021.2.3,Win32,60.87168249,627c6715c52fd12f31907bd0,,,,,,,,,,,,,,,,,,,,,,,l,0,2.918,"[""0.225"",""0.423"",""0.770"",""0.866""]","[1,1,1,0]",0,20,20,20,1,0,0,,,0,FALSE,,,,,,,,,,,,,,,,,,,,,,,,,,,,,,,
,61073e6d38111b5924507b77,627c6fad59bfe5359f80482d,2022-05-11_21h46.39.308,classification_task,2021.2.3,Win32,60.87168249,627c6715c52fd12f31907bd0,,,,,,,,,,,,,,,,,,,,,,,a,0,3.9246,"[""0.095"",""0.268"",""0.866"",""0.805""]","[1,1,0,1]",0,21,21,21,1,1,0,,,0,FALSE,,,,,,,,,,,,,,,,,,,,,,,,,,,,,,,
,61073e6d38111b5924507b77,627c6fad59bfe5359f80482d,2022-05-11_21h46.39.308,classification_task,2021.2.3,Win32,60.87168249,627c6715c52fd12f31907bd0,,,,,,,,,,,,,,,,,,,,,,,a,1,2.7027,"[""0.866"",""0.379"",""0.610"",""0.960""]","[0,1,1,1]",0,22,22,22,1,0,1,,,0,FALSE,,,,,,,,,,,,,,,,,,,,,,,,,,,,,,,
,61073e6d38111b5924507b77,627c6fad59bfe5359f80482d,2022-05-11_21h46.39.308,classification_task,2021.2.3,Win32,60.87168249,627c6715c52fd12f31907bd0,,,,,,,,,,,,,,,,,,,,,,,a,1,2.9066,"[""0.225"",""0.423"",""0.553"",""0.900""]","[1,1,0,1]",0,23,23,23,1,0,0,,,0,FALSE,,,,,,,,,,,,,,,,,,,,,,,,,,,,,,,
,61073e6d38111b5924507b77,627c6fad59bfe5359f80482d,2022-05-11_21h46.39.308,classification_task,2021.2.3,Win32,60.87168249,627c6715c52fd12f31907bd0,,,,,,,,,,,,,,,,,,,,,,,l,1,4.8872,"[""0.026"",""0.535"",""0.497"",""0.707""]","[1,0,1,1]",0,24,24,24,1,1,1,,,0,FALSE,,,,,,,,,,,,,,,,,,,,,,,,,,,,,,,
,61073e6d38111b5924507b77,627c6fad59bfe5359f80482d,2022-05-11_21h46.39.308,classification_task,2021.2.3,Win32,60.87168249,627c6715c52fd12f31907bd0,,,,,,,,,,,,,,,,,,,,,,,l,0,6.0373,"[""0.333"",""0.423"",""0.770"",""0.900""]","[0,1,1,1]",0,25,25,25,1,0,0,,,0,FALSE,,,,,,,,,,,,,,,,,,,,,,,,,,,,,,,
,61073e6d38111b5924507b77,627c6fad59bfe5359f80482d,2022-05-11_21h46.39.308,classification_task,2021.2.3,Win32,60.87168249,627c6715c52fd12f31907bd0,,,,,,,,,,,,,,,,,,,,,,,l,1,2.1102,"[""0.095"",""0.553"",""0.664"",""0.805""]","[1,0,1,1]",0,26,26,26,1,1,0,,,0,FALSE,,,,,,,,,,,,,,,,,,,,,,,,,,,,,,,
,61073e6d38111b5924507b77,627c6fad59bfe5359f80482d,2022-05-11_21h46.39.308,classification_task,2021.2.3,Win32,60.87168249,627c6715c52fd12f31907bd0,,,,,,,,,,,,,,,,,,,,,,,l,1,2.5685,"[""0.535"",""0.134"",""0.497"",""0.707""]","[0,1,1,1]",0,27,27,27,1,1,1,,,0,FALSE,,,,,,,,,,,,,,,,,,,,,,,,,,,,,,,
,61073e6d38111b5924507b77,627c6fad59bfe5359f80482d,2022-05-11_21h46.39.308,classification_task,2021.2.3,Win32,60.87168249,627c6715c52fd12f31907bd0,,,,,,,,,,,,,,,,,,,,,,,l,1,3.5895,"[""0.026"",""0.134"",""0.862"",""0.707""]","[1,1,0,1]",0,28,28,28,1,1,1,,,0,FALSE,,,,,,,,,,,,,,,,,,,,,,,,,,,,,,,
,61073e6d38111b5924507b77,627c6fad59bfe5359f80482d,2022-05-11_21h46.39.308,classification_task,2021.2.3,Win32,60.87168249,627c6715c52fd12f31907bd0,,,,,,,,,,,,,,,,,,,,,,,a,1,2.2658,"[""0.225"",""0.554"",""0.770"",""0.900""]","[1,0,1,1]",0,29,29,29,1,0,0,,,0,FALSE,,,,,,,,,,,,,,,,,,,,,,,,,,,,,,,
,61073e6d38111b5924507b77,627c6fad59bfe5359f80482d,2022-05-11_21h46.39.308,classification_task,2021.2.3,Win32,60.87168249,627c6715c52fd12f31907bd0,,,,,,,,,,,,,,,,,,,,,,,a,1,3.0067,"[""0.188"",""0.379"",""0.610"",""0.569""]","[1,1,1,0]",0,30,30,30,1,0,1,,,0,FALSE,,,,,,,,,,,,,,,,,,,,,,,,,,,,,,,
,61073e6d38111b5924507b77,627c6fad59bfe5359f80482d,2022-05-11_21h46.39.308,classification_task,2021.2.3,Win32,60.87168249,627c6715c52fd12f31907bd0,,,,,,,,,,,,,,,,,,,,,,,l,1,3.2425,"[""0.553"",""0.268"",""0.664"",""0.805""]","[0,1,1,1]",0,31,31,31,1,1,0,,,0,FALSE,,,,,,,,,,,,,,,,,,,,,,,,,,,,,,,
,61073e6d38111b5924507b77,627c6fad59bfe5359f80482d,2022-05-11_21h46.39.308,classification_task,2021.2.3,Win32,60.87168249,627c6715c52fd12f31907bd0,,,,,,,,,,,,,,,,,,,,,,,l,1,3.4817,"[""0.095"",""0.553"",""0.664"",""0.805""]","[1,0,1,1]",0,32,32,32,1,1,0,,,0,FALSE,,,,,,,,,,,,,,,,,,,,,,,,,,,,,,,
,61073e6d38111b5924507b77,627c6fad59bfe5359f80482d,2022-05-11_21h46.39.308,classification_task,2021.2.3,Win32,60.87168249,627c6715c52fd12f31907bd0,,,,,,,,,,,,,,,,,,,,,,,l,1,1.8773,"[""0.026"",""0.061"",""0.497"",""0.707""]","[1,0,1,1]",0,33,33,33,1,1,1,,,0,FALSE,,,,,,,,,,,,,,,,,,,,,,,,,,,,,,,
,61073e6d38111b5924507b77,627c6fad59bfe5359f80482d,2022-05-11_21h46.39.308,classification_task,2021.2.3,Win32,60.87168249,627c6715c52fd12f31907bd0,,,,,,,,,,,,,,,,,,,,,,,a,0,1.1155,"[""0.850"",""0.134"",""0.497"",""0.707""]","[0,1,1,1]",0,34,34,34,1,1,1,,,0,FALSE,,,,,,,,,,,,,,,,,,,,,,,,,,,,,,,
,61073e6d38111b5924507b77,627c6fad59bfe5359f80482d,2022-05-11_21h46.39.308,classification_task,2021.2.3,Win32,60.87168249,627c6715c52fd12f31907bd0,,,,,,,,,,,,,,,,,,,,,,,l,1,1.4173,"[""0.026"",""0.134"",""0.497"",""0.553""]","[1,1,1,0]",0,35,35,35,1,1,1,,,0,FALSE,,,,,,,,,,,,,,,,,,,,,,,,,,,,,,,
,61073e6d38111b5924507b77,627c6fad59bfe5359f80482d,2022-05-11_21h46.39.308,classification_task,2021.2.3,Win32,60.87168249,627c6715c52fd12f31907bd0,,,,,,,,,,,,,,,,,,,,,,,l,1,1.8588,"[""0.095"",""0.268"",""0.866"",""0.805""]","[1,1,0,1]",0,36,36,36,1,1,0,,,0,FALSE,,,,,,,,,,,,,,,,,,,,,,,,,,,,,,,
,61073e6d38111b5924507b77,627c6fad59bfe5359f80482d,2022-05-11_21h46.39.308,classification_task,2021.2.3,Win32,60.87168249,627c6715c52fd12f31907bd0,,,,,,,,,,,,,,,,,,,,,,,a,1,0.997,"[""0.308"",""0.423"",""0.770"",""0.900""]","[0,1,1,1]",0,37,37,37,1,0,0,,,0,FALSE,,,,,,,,,,,,,,,,,,,,,,,,,,,,,,,
,61073e6d38111b5924507b77,627c6fad59bfe5359f80482d,2022-05-11_21h46.39.308,classification_task,2021.2.3,Win32,60.87168249,627c6715c52fd12f31907bd0,,,,,,,,,,,,,,,,,,,,,,,a,1,0.8693,"[""0.225"",""0.423"",""0.770"",""0.556""]","[1,1,1,0]",0,38,38,38,1,0,0,,,0,FALSE,,,,,,,,,,,,,,,,,,,,,,,,,,,,,,,
,61073e6d38111b5924507b77,627c6fad59bfe5359f80482d,2022-05-11_21h46.39.308,classification_task,2021.2.3,Win32,60.87168249,627c6715c52fd12f31907bd0,,,,,,,,,,,,,,,,,,,,,,,l,1,1.1236,"[""0.026"",""0.134"",""0.333"",""0.707""]","[1,1,0,1]",0,39,39,39,1,1,1,,,0,FALSE,,,,,,,,,,,,,,,,,,,,,,,,,,,,,,,
,61073e6d38111b5924507b77,627c6fad59bfe5359f80482d,2022-05-11_21h46.39.308,classification_task,2021.2.3,Win32,60.87168249,627c6715c52fd12f31907bd0,,,,,,,,,,,,,,,,,,,,,,,l,0,2.2221,"[""0.864"",""0.379"",""0.610"",""0.960""]","[0,1,1,1]",0,40,40,40,1,0,1,,,0,FALSE,,,,,,,,,,,,,,,,,,,,,,,,,,,,,,,
,61073e6d38111b5924507b77,627c6fad59bfe5359f80482d,2022-05-11_21h46.39.308,classification_task,2021.2.3,Win32,60.87168249,627c6715c52fd12f31907bd0,,,,,,,,,,,,,,,,,,,,,,,a,1,0.8856,"[""0.225"",""0.423"",""0.553"",""0.900""]","[1,1,0,1]",0,41,41,41,1,0,0,,,0,FALSE,,,,,,,,,,,,,,,,,,,,,,,,,,,,,,,
,61073e6d38111b5924507b77,627c6fad59bfe5359f80482d,2022-05-11_21h46.39.308,classification_task,2021.2.3,Win32,60.87168249,627c6715c52fd12f31907bd0,,,,,,,,,,,,,,,,,,,,,,,l,1,0.8393,"[""0.317"",""0.268"",""0.664"",""0.805""]","[0,1,1,1]",0,42,42,42,1,1,0,,,0,FALSE,,,,,,,,,,,,,,,,,,,,,,,,,,,,,,,
,61073e6d38111b5924507b77,627c6fad59bfe5359f80482d,2022-05-11_21h46.39.308,classification_task,2021.2.3,Win32,60.87168249,627c6715c52fd12f31907bd0,,,,,,,,,,,,,,,,,,,,,,,l,0,1.5602,"[""0.188"",""0.379"",""0.610"",""0.535""]","[1,1,1,0]",0,43,43,43,1,0,1,,,0,FALSE,,,,,,,,,,,,,,,,,,,,,,,,,,,,,,,
,61073e6d38111b5924507b77,627c6fad59bfe5359f80482d,2022-05-11_21h46.39.308,classification_task,2021.2.3,Win32,60.87168249,627c6715c52fd12f31907bd0,,,,,,,,,,,,,,,,,,,,,,,l,0,1.7281,"[""0.188"",""0.379"",""0.862"",""0.960""]","[1,1,0,1]",0,44,44,44,1,0,1,,,0,FALSE,,,,,,,,,,,,,,,,,,,,,,,,,,,,,,,
,61073e6d38111b5924507b77,627c6fad59bfe5359f80482d,2022-05-11_21h46.39.308,classification_task,2021.2.3,Win32,60.87168249,627c6715c52fd12f31907bd0,,,,,,,,,,,,,,,,,,,,,,,a,1,0.7516,"[""0.225"",""0.333"",""0.770"",""0.900""]","[1,0,1,1]",0,45,45,45,1,0,0,,,0,FALSE,,,,,,,,,,,,,,,,,,,,,,,,,,,,,,,
,61073e6d38111b5924507b77,627c6fad59bfe5359f80482d,2022-05-11_21h46.39.308,classification_task,2021.2.3,Win32,60.87168249,627c6715c52fd12f31907bd0,,,,,,,,,,,,,,,,,,,,,,,a,1,0.9954,"[""0.188"",""0.341"",""0.610"",""0.960""]","[1,0,1,1]",0,46,46,46,1,0,1,,,0,FALSE,,,,,,,,,,,,,,,,,,,,,,,,,,,,,,,
,61073e6d38111b5924507b77,627c6fad59bfe5359f80482d,2022-05-11_21h46.39.308,classification_task,2021.2.3,Win32,60.87168249,627c6715c52fd12f31907bd0,,,,,,,,,,,,,,,,,,,,,,,l,1,0.9958,"[""0.095"",""0.268"",""0.664"",""0.308""]","[1,1,1,0]",0,47,47,47,1,1,0,,,0,FALSE,,,,,,,,,,,,,,,,,,,,,,,,,,,,,,,
,61073e6d38111b5924507b77,627c6fad59bfe5359f80482d,2022-05-11_21h46.39.308,classification_task,2021.2.3,Win32,60.87168249,627c6715c52fd12f31907bd0,,,,,,,,,,,,,,,,,,,,,,,a,0,1.8583,"[""0.095"",""0.535"",""0.664"",""0.805""]","[1,0,1,1]",0,48,48,48,1,1,0,,,0,FALSE,,,,,,,,,,,,,,,,,,,,,,,,,,,,,,,
,61073e6d38111b5924507b77,627c6fad59bfe5359f80482d,2022-05-11_21h46.39.308,classification_task,2021.2.3,Win32,60.87168249,627c6715c52fd12f31907bd0,,,,,,,,,,,,,,,,,,,,,,,l,1,1.0194,"[""0.095"",""0.268"",""0.341"",""0.805""]","[1,1,0,1]",0,49,49,49,1,1,0,,,0,FALSE,,,,,,,,,,,,,,,,,,,,,,,,,,,,,,,
,61073e6d38111b5924507b77,627c6fad59bfe5359f80482d,2022-05-11_21h46.39.308,classification_task,2021.2.3,Win32,60.87168249,627c6715c52fd12f31907bd0,,,,,,,,,,,,,,,,,,,,,,,a,1,1.0412,"[""0.864"",""0.379"",""0.610"",""0.960""]","[0,1,1,1]",0,50,50,50,1,0,1,,,0,FALSE,,,,,,,,,,,,,,,,,,,,,,,,,,,,,,,
,61073e6d38111b5924507b77,627c6fad59bfe5359f80482d,2022-05-11_21h46.39.308,classification_task,2021.2.3,Win32,60.87168249,627c6715c52fd12f31907bd0,,,,,,,,,,,,,,,,,,,,,,,a,1,0.993,"[""0.225"",""0.317"",""0.770"",""0.900""]","[1,0,1,1]",0,51,51,51,1,0,0,,,0,FALSE,,,,,,,,,,,,,,,,,,,,,,,,,,,,,,,
,61073e6d38111b5924507b77,627c6fad59bfe5359f80482d,2022-05-11_21h46.39.308,classification_task,2021.2.3,Win32,60.87168249,627c6715c52fd12f31907bd0,,,,,,,,,,,,,,,,,,,,,,,a,0,0.8824,"[""0.333"",""0.134"",""0.497"",""0.707""]","[0,1,1,1]",0,52,52,52,1,1,1,,,0,FALSE,,,,,,,,,,,,,,,,,,,,,,,,,,,,,,,
,61073e6d38111b5924507b77,627c6fad59bfe5359f80482d,2022-05-11_21h46.39.308,classification_task,2021.2.3,Win32,60.87168249,627c6715c52fd12f31907bd0,,,,,,,,,,,,,,,,,,,,,,,a,0,0.7472,"[""0.026"",""0.341"",""0.497"",""0.707""]","[1,0,1,1]",0,53,53,53,1,1,1,,,0,FALSE,,,,,,,,,,,,,,,,,,,,,,,,,,,,,,,
,61073e6d38111b5924507b77,627c6fad59bfe5359f80482d,2022-05-11_21h46.39.308,classification_task,2021.2.3,Win32,60.87168249,627c6715c52fd12f31907bd0,,,,,,,,,,,,,,,,,,,,,,,a,0,0.8711,"[""0.026"",""0.134"",""0.497"",""0.333""]","[1,1,1,0]",0,54,54,54,1,1,1,,,0,FALSE,,,,,,,,,,,,,,,,,,,,,,,,,,,,,,,
,61073e6d38111b5924507b77,627c6fad59bfe5359f80482d,2022-05-11_21h46.39.308,classification_task,2021.2.3,Win32,60.87168249,627c6715c52fd12f31907bd0,,,,,,,,,,,,,,,,,,,,,,,l,0,0.9936,"[""0.225"",""0.423"",""0.770"",""0.308""]","[1,1,1,0]",0,55,55,55,1,0,0,,,0,FALSE,,,,,,,,,,,,,,,,,,,,,,,,,,,,,,,
,61073e6d38111b5924507b77,627c6fad59bfe5359f80482d,2022-05-11_21h46.39.308,classification_task,2021.2.3,Win32,60.87168249,627c6715c52fd12f31907bd0,,,,,,,,,,,,,,,,,,,,,,,a,1,0.8686,"[""0.188"",""0.379"",""0.610"",""0.862""]","[1,1,1,0]",0,56,56,56,1,0,1,,,0,FALSE,,,,,,,,,,,,,,,,,,,,,,,,,,,,,,,
,61073e6d38111b5924507b77,627c6fad59bfe5359f80482d,2022-05-11_21h46.39.308,classification_task,2021.2.3,Win32,60.87168249,627c6715c52fd12f31907bd0,,,,,,,,,,,,,,,,,,,,,,,l,0,0.7488,"[""0.856"",""0.423"",""0.770"",""0.900""]","[0,1,1,1]",0,57,57,57,1,0,0,,,0,FALSE,,,,,,,,,,,,,,,,,,,,,,,,,,,,,,,
,61073e6d38111b5924507b77,627c6fad59bfe5359f80482d,2022-05-11_21h46.39.308,classification_task,2021.2.3,Win32,60.87168249,627c6715c52fd12f31907bd0,,,,,,,,,,,,,,,,,,,,,,,a,0,0.8727,"[""0.095"",""0.268"",""0.664"",""0.856""]","[1,1,1,0]",0,58,58,58,1,1,0,,,0,FALSE,,,,,,,,,,,,,,,,,,,,,,,,,,,,,,,
,61073e6d38111b5924507b77,627c6fad59bfe5359f80482d,2022-05-11_21h46.39.308,classification_task,2021.2.3,Win32,60.87168249,627c6715c52fd12f31907bd0,,,,,,,,,,,,,,,,,,,,,,,a,1,0.868,"[""0.188"",""0.379"",""0.553"",""0.960""]","[1,1,0,1]",0,59,59,59,1,0,1,,,0,FALSE,,,,,,,,,,,,,,,,,,,,,,,,,,,,,,,
,61073e6d38111b5924507b77,627c6fad59bfe5359f80482d,2022-05-11_21h46.39.308,classification_task,2021.2.3,Win32,60.87168249,627c6715c52fd12f31907bd0,,,,,,,,,,,,,,,,,,,,,,,l,0,1.0189,"[""0.188"",""0.554"",""0.610"",""0.960""]","[1,0,1,1]",0,60,60,60,1,0,1,,,0,FALSE,,,,,,,,,,,,,,,,,,,,,,,,,,,,,,,
,61073e6d38111b5924507b77,627c6fad59bfe5359f80482d,2022-05-11_21h46.39.308,classification_task,2021.2.3,Win32,60.87168249,627c6715c52fd12f31907bd0,,,,,,,,,,,,,,,,,,,,,,,l,1,1.1135,"[""0.026"",""0.134"",""0.535"",""0.707""]","[1,1,0,1]",0,61,61,61,1,1,1,,,0,FALSE,,,,,,,,,,,,,,,,,,,,,,,,,,,,,,,
,61073e6d38111b5924507b77,627c6fad59bfe5359f80482d,2022-05-11_21h46.39.308,classification_task,2021.2.3,Win32,60.87168249,627c6715c52fd12f31907bd0,,,,,,,,,,,,,,,,,,,,,,,a,1,1.0346,"[""0.225"",""0.423"",""0.850"",""0.900""]","[1,1,0,1]",0,62,62,62,1,0,0,,,0,FALSE,,,,,,,,,,,,,,,,,,,,,,,,,,,,,,,
,61073e6d38111b5924507b77,627c6fad59bfe5359f80482d,2022-05-11_21h46.39.308,classification_task,2021.2.3,Win32,60.87168249,627c6715c52fd12f31907bd0,,,,,,,,,,,,,,,,,,,,,,,l,1,1.6237,"[""0.553"",""0.268"",""0.664"",""0.805""]","[0,1,1,1]",0,63,63,63,1,1,0,,,0,FALSE,,,,,,,,,,,,,,,,,,,,,,,,,,,,,,,
,61073e6d38111b5924507b77,627c6fad59bfe5359f80482d,2022-05-11_21h46.39.308,classification_task,2021.2.3,Win32,60.87168249,627c6715c52fd12f31907bd0,,,,,,,,,,,,,,,,,,,,,,,,,,,,,,,,,,,,,,,0, ,,0,4.896660053,260.3344,0,0,0,0,1,2,1,,,,,,,,,,,,,,,,,,
,61073e6d38111b5924507b77,627c6fad59bfe5359f80482d,2022-05-11_21h46.39.308,classification_task,2021.2.3,Win32,60.87168249,627c6715c52fd12f31907bd0,,,,,,,,,,,,,,,,,,,,,,,,,,,,,,,,,,,,,,,1,  ,,0,7.893518519,265.0606,0,0,0,0,1,2,1,,,,,,,,,,,,,,,,,,
,61073e6d38111b5924507b77,627c6fad59bfe5359f80482d,2022-05-11_21h46.39.308,classification_task,2021.2.3,Win32,60.87168249,627c6715c52fd12f31907bd0,,,,,,,,,,,,,,,,,,,,,,,,,,,,,,,,,,,,,,,2,  ,,0,3.312114198,268.783,0,0,0,0,1,2,1,,,,,,,,,,,,,,,,,,
,61073e6d38111b5924507b77,627c6fad59bfe5359f80482d,2022-05-11_21h46.39.308,classification_task,2021.2.3,Win32,60.87168249,627c6715c52fd12f31907bd0,,,,,,,,,,,,,,,,,,,,,,,,,,,,,,,,,,,,,,,,,,,,,0,0,0,0,1,,1,,,,,,,,,,,,,,,,,,
,61073e6d38111b5924507b77,627c6fad59bfe5359f80482d,2022-05-11_21h46.39.308,classification_task,2021.2.3,Win32,60.87168249,627c6715c52fd12f31907bd0,,,,,,,,,,,,,,,,,,,,,space,1.3627,a,0,4.6355,"[""0.026"",""0.134"",""0.497"",""0.864""]","[1,1,1,0]",0,0,0,0,1,1,1,,,0,FALSE,,,,,,,,,,,,,,,,,,,,,,,,,,,,,,,
,61073e6d38111b5924507b77,627c6fad59bfe5359f80482d,2022-05-11_21h46.39.308,classification_task,2021.2.3,Win32,60.87168249,627c6715c52fd12f31907bd0,,,,,,,,,,,,,,,,,,,,,,,a,0,0.8537,"[""0.026"",""0.553"",""0.497"",""0.707""]","[1,0,1,1]",0,1,1,1,1,1,1,,,0,FALSE,,,,,,,,,,,,,,,,,,,,,,,,,,,,,,,
,61073e6d38111b5924507b77,627c6fad59bfe5359f80482d,2022-05-11_21h46.39.308,classification_task,2021.2.3,Win32,60.87168249,627c6715c52fd12f31907bd0,,,,,,,,,,,,,,,,,,,,,,,l,0,0.7069,"[""0.188"",""0.856"",""0.610"",""0.960""]","[1,0,1,1]",0,2,2,2,1,0,1,,,0,FALSE,,,,,,,,,,,,,,,,,,,,,,,,,,,,,,,
,61073e6d38111b5924507b77,627c6fad59bfe5359f80482d,2022-05-11_21h46.39.308,classification_task,2021.2.3,Win32,60.87168249,627c6715c52fd12f31907bd0,,,,,,,,,,,,,,,,,,,,,,,l,0,0.8737,"[""0.308"",""0.423"",""0.770"",""0.900""]","[0,1,1,1]",0,3,3,3,1,0,0,,,0,FALSE,,,,,,,,,,,,,,,,,,,,,,,,,,,,,,,
,61073e6d38111b5924507b77,627c6fad59bfe5359f80482d,2022-05-11_21h46.39.308,classification_task,2021.2.3,Win32,60.87168249,627c6715c52fd12f31907bd0,,,,,,,,,,,,,,,,,,,,,,,a,1,0.7547,"[""0.225"",""0.423"",""0.770"",""0.856""]","[1,1,1,0]",0,4,4,4,1,0,0,,,0,FALSE,,,,,,,,,,,,,,,,,,,,,,,,,,,,,,,
,61073e6d38111b5924507b77,627c6fad59bfe5359f80482d,2022-05-11_21h46.39.308,classification_task,2021.2.3,Win32,60.87168249,627c6715c52fd12f31907bd0,,,,,,,,,,,,,,,,,,,,,,,a,0,1.6608,"[""0.026"",""0.134"",""0.317"",""0.707""]","[1,1,0,1]",0,5,5,5,1,1,1,,,0,FALSE,,,,,,,,,,,,,,,,,,,,,,,,,,,,,,,
,61073e6d38111b5924507b77,627c6fad59bfe5359f80482d,2022-05-11_21h46.39.308,classification_task,2021.2.3,Win32,60.87168249,627c6715c52fd12f31907bd0,,,,,,,,,,,,,,,,,,,,,,,l,1,0.5065,"[""0.308"",""0.268"",""0.664"",""0.805""]","[0,1,1,1]",0,6,6,6,1,1,0,,,0,FALSE,,,,,,,,,,,,,,,,,,,,,,,,,,,,,,,
,61073e6d38111b5924507b77,627c6fad59bfe5359f80482d,2022-05-11_21h46.39.308,classification_task,2021.2.3,Win32,60.87168249,627c6715c52fd12f31907bd0,,,,,,,,,,,,,,,,,,,,,,,a,1,0.5022,"[""0.225"",""0.423"",""0.308"",""0.900""]","[1,1,0,1]",0,7,7,7,1,0,0,,,0,FALSE,,,,,,,,,,,,,,,,,,,,,,,,,,,,,,,
,61073e6d38111b5924507b77,627c6fad59bfe5359f80482d,2022-05-11_21h46.39.308,classification_task,2021.2.3,Win32,60.87168249,627c6715c52fd12f31907bd0,,,,,,,,,,,,,,,,,,,,,,,l,1,0.6331,"[""0.095"",""0.856"",""0.664"",""0.805""]","[1,0,1,1]",0,8,8,8,1,1,0,,,0,FALSE,,,,,,,,,,,,,,,,,,,,,,,,,,,,,,,
,61073e6d38111b5924507b77,627c6fad59bfe5359f80482d,2022-05-11_21h46.39.308,classification_task,2021.2.3,Win32,60.87168249,627c6715c52fd12f31907bd0,,,,,,,,,,,,,,,,,,,,,,,a,1,1.2588,"[""0.188"",""0.379"",""0.554"",""0.960""]","[1,1,0,1]",0,9,9,9,1,0,1,,,0,FALSE,,,,,,,,,,,,,,,,,,,,,,,,,,,,,,,
,61073e6d38111b5924507b77,627c6fad59bfe5359f80482d,2022-05-11_21h46.39.308,classification_task,2021.2.3,Win32,60.87168249,627c6715c52fd12f31907bd0,,,,,,,,,,,,,,,,,,,,,,,l,1,0.5034,"[""0.095"",""0.268"",""0.664"",""0.061""]","[1,1,1,0]",0,10,10,10,1,1,0,,,0,FALSE,,,,,,,,,,,,,,,,,,,,,,,,,,,,,,,
,61073e6d38111b5924507b77,627c6fad59bfe5359f80482d,2022-05-11_21h46.39.308,classification_task,2021.2.3,Win32,60.87168249,627c6715c52fd12f31907bd0,,,,,,,,,,,,,,,,,,,,,,,l,1,0.5204,"[""0.095"",""0.268"",""0.061"",""0.805""]","[1,1,0,1]",0,11,11,11,1,1,0,,,0,FALSE,,,,,,,,,,,,,,,,,,,,,,,,,,,,,,,
,61073e6d38111b5924507b77,627c6fad59bfe5359f80482d,2022-05-11_21h46.39.308,classification_task,2021.2.3,Win32,60.87168249,627c6715c52fd12f31907bd0,,,,,,,,,,,,,,,,,,,,,,,a,1,0.5426,"[""0.225"",""0.341"",""0.770"",""0.900""]","[1,0,1,1]",0,12,12,12,1,0,0,,,0,FALSE,,,,,,,,,,,,,,,,,,,,,,,,,,,,,,,
,61073e6d38111b5924507b77,627c6fad59bfe5359f80482d,2022-05-11_21h46.39.308,classification_task,2021.2.3,Win32,60.87168249,627c6715c52fd12f31907bd0,,,,,,,,,,,,,,,,,,,,,,,l,0,1.7861,"[""0.556"",""0.379"",""0.610"",""0.960""]","[0,1,1,1]",0,13,13,13,1,0,1,,,0,FALSE,,,,,,,,,,,,,,,,,,,,,,,,,,,,,,,
,61073e6d38111b5924507b77,627c6fad59bfe5359f80482d,2022-05-11_21h46.39.308,classification_task,2021.2.3,Win32,60.87168249,627c6715c52fd12f31907bd0,,,,,,,,,,,,,,,,,,,,,,,a,0,1.4119,"[""0.569"",""0.134"",""0.497"",""0.707""]","[0,1,1,1]",0,14,14,14,1,1,1,,,0,FALSE,,,,,,,,,,,,,,,,,,,,,,,,,,,,,,,
,61073e6d38111b5924507b77,627c6fad59bfe5359f80482d,2022-05-11_21h46.39.308,classification_task,2021.2.3,Win32,60.87168249,627c6715c52fd12f31907bd0,,,,,,,,,,,,,,,,,,,,,,,l,0,1.0257,"[""0.188"",""0.379"",""0.610"",""0.317""]","[1,1,1,0]",0,15,15,15,1,0,1,,,0,FALSE,,,,,,,,,,,,,,,,,,,,,,,,,,,,,,,
,61073e6d38111b5924507b77,627c6fad59bfe5359f80482d,2022-05-11_21h46.39.308,classification_task,2021.2.3,Win32,60.87168249,627c6715c52fd12f31907bd0,,,,,,,,,,,,,,,,,,,,,,,l,1,1.4196,"[""0.026"",""0.134"",""0.497"",""0.308""]","[1,1,1,0]",0,16,16,16,1,1,1,,,0,FALSE,,,,,,,,,,,,,,,,,,,,,,,,,,,,,,,
,61073e6d38111b5924507b77,627c6fad59bfe5359f80482d,2022-05-11_21h46.39.308,classification_task,2021.2.3,Win32,60.87168249,627c6715c52fd12f31907bd0,,,,,,,,,,,,,,,,,,,,,,,a,1,0.8382,"[""0.866"",""0.423"",""0.770"",""0.900""]","[0,1,1,1]",0,17,17,17,1,0,0,,,0,FALSE,,,,,,,,,,,,,,,,,,,,,,,,,,,,,,,
,61073e6d38111b5924507b77,627c6fad59bfe5359f80482d,2022-05-11_21h46.39.308,classification_task,2021.2.3,Win32,60.87168249,627c6715c52fd12f31907bd0,,,,,,,,,,,,,,,,,,,,,,,a,1,1.0014,"[""0.554"",""0.379"",""0.610"",""0.960""]","[0,1,1,1]",0,18,18,18,1,0,1,,,0,FALSE,,,,,,,,,,,,,,,,,,,,,,,,,,,,,,,
,61073e6d38111b5924507b77,627c6fad59bfe5359f80482d,2022-05-11_21h46.39.308,classification_task,2021.2.3,Win32,60.87168249,627c6715c52fd12f31907bd0,,,,,,,,,,,,,,,,,,,,,,,a,1,0.8923,"[""0.225"",""0.423"",""0.554"",""0.900""]","[1,1,0,1]",0,19,19,19,1,0,0,,,0,FALSE,,,,,,,,,,,,,,,,,,,,,,,,,,,,,,,
,61073e6d38111b5924507b77,627c6fad59bfe5359f80482d,2022-05-11_21h46.39.308,classification_task,2021.2.3,Win32,60.87168249,627c6715c52fd12f31907bd0,,,,,,,,,,,,,,,,,,,,,,,a,1,0.635,"[""0.225"",""0.423"",""0.770"",""0.308""]","[1,1,1,0]",0,20,20,20,1,0,0,,,0,FALSE,,,,,,,,,,,,,,,,,,,,,,,,,,,,,,,
,61073e6d38111b5924507b77,627c6fad59bfe5359f80482d,2022-05-11_21h46.39.308,classification_task,2021.2.3,Win32,60.87168249,627c6715c52fd12f31907bd0,,,,,,,,,,,,,,,,,,,,,,,l,1,0.6471,"[""0.095"",""0.268"",""0.664"",""0.553""]","[1,1,1,0]",0,21,21,21,1,1,0,,,0,FALSE,,,,,,,,,,,,,,,,,,,,,,,,,,,,,,,
,61073e6d38111b5924507b77,627c6fad59bfe5359f80482d,2022-05-11_21h46.39.308,classification_task,2021.2.3,Win32,60.87168249,627c6715c52fd12f31907bd0,,,,,,,,,,,,,,,,,,,,,,,a,0,1.4046,"[""0.026"",""0.333"",""0.497"",""0.707""]","[1,0,1,1]",0,22,22,22,1,1,1,,,0,FALSE,,,,,,,,,,,,,,,,,,,,,,,,,,,,,,,
,61073e6d38111b5924507b77,627c6fad59bfe5359f80482d,2022-05-11_21h46.39.308,classification_task,2021.2.3,Win32,60.87168249,627c6715c52fd12f31907bd0,,,,,,,,,,,,,,,,,,,,,,,l,1,0.7672,"[""0.026"",""0.134"",""0.856"",""0.707""]","[1,1,0,1]",0,23,23,23,1,1,1,,,0,FALSE,,,,,,,,,,,,,,,,,,,,,,,,,,,,,,,
,61073e6d38111b5924507b77,627c6fad59bfe5359f80482d,2022-05-11_21h46.39.308,classification_task,2021.2.3,Win32,60.87168249,627c6715c52fd12f31907bd0,,,,,,,,,,,,,,,,,,,,,,,a,1,1.5328,"[""0.225"",""0.061"",""0.770"",""0.900""]","[1,0,1,1]",0,24,24,24,1,0,0,,,0,FALSE,,,,,,,,,,,,,,,,,,,,,,,,,,,,,,,
,61073e6d38111b5924507b77,627c6fad59bfe5359f80482d,2022-05-11_21h46.39.308,classification_task,2021.2.3,Win32,60.87168249,627c6715c52fd12f31907bd0,,,,,,,,,,,,,,,,,,,,,,,l,1,0.5187,"[""0.556"",""0.268"",""0.664"",""0.805""]","[0,1,1,1]",0,25,25,25,1,1,0,,,0,FALSE,,,,,,,,,,,,,,,,,,,,,,,,,,,,,,,
,61073e6d38111b5924507b77,627c6fad59bfe5359f80482d,2022-05-11_21h46.39.308,classification_task,2021.2.3,Win32,60.87168249,627c6715c52fd12f31907bd0,,,,,,,,,,,,,,,,,,,,,,,a,0,0.8859,"[""0.556"",""0.134"",""0.497"",""0.707""]","[0,1,1,1]",0,26,26,26,1,1,1,,,0,FALSE,,,,,,,,,,,,,,,,,,,,,,,,,,,,,,,
,61073e6d38111b5924507b77,627c6fad59bfe5359f80482d,2022-05-11_21h46.39.308,classification_task,2021.2.3,Win32,60.87168249,627c6715c52fd12f31907bd0,,,,,,,,,,,,,,,,,,,,,,,l,1,1.0113,"[""0.095"",""0.268"",""0.856"",""0.805""]","[1,1,0,1]",0,27,27,27,1,1,0,,,0,FALSE,,,,,,,,,,,,,,,,,,,,,,,,,,,,,,,
,61073e6d38111b5924507b77,627c6fad59bfe5359f80482d,2022-05-11_21h46.39.308,classification_task,2021.2.3,Win32,60.87168249,627c6715c52fd12f31907bd0,,,,,,,,,,,,,,,,,,,,,,,l,0,1.5164,"[""0.188"",""0.379"",""0.610"",""0.866""]","[1,1,1,0]",0,28,28,28,1,0,1,,,0,FALSE,,,,,,,,,,,,,,,,,,,,,,,,,,,,,,,
,61073e6d38111b5924507b77,627c6fad59bfe5359f80482d,2022-05-11_21h46.39.308,classification_task,2021.2.3,Win32,60.87168249,627c6715c52fd12f31907bd0,,,,,,,,,,,,,,,,,,,,,,,l,0,0.8803,"[""0.188"",""0.379"",""0.061"",""0.960""]","[1,1,0,1]",0,29,29,29,1,0,1,,,0,FALSE,,,,,,,,,,,,,,,,,,,,,,,,,,,,,,,
,61073e6d38111b5924507b77,627c6fad59bfe5359f80482d,2022-05-11_21h46.39.308,classification_task,2021.2.3,Win32,60.87168249,627c6715c52fd12f31907bd0,,,,,,,,,,,,,,,,,,,,,,,l,0,1.456,"[""0.188"",""0.569"",""0.610"",""0.960""]","[1,0,1,1]",0,30,30,30,1,0,1,,,0,FALSE,,,,,,,,,,,,,,,,,,,,,,,,,,,,,,,
,61073e6d38111b5924507b77,627c6fad59bfe5359f80482d,2022-05-11_21h46.39.308,classification_task,2021.2.3,Win32,60.87168249,627c6715c52fd12f31907bd0,,,,,,,,,,,,,,,,,,,,,,,l,1,1.8705,"[""0.095"",""0.850"",""0.664"",""0.805""]","[1,0,1,1]",0,31,31,31,1,1,0,,,0,FALSE,,,,,,,,,,,,,,,,,,,,,,,,,,,,,,,
,61073e6d38111b5924507b77,627c6fad59bfe5359f80482d,2022-05-11_21h46.39.308,classification_task,2021.2.3,Win32,60.87168249,627c6715c52fd12f31907bd0,,,,,,,,,,,,,,,,,,,,,,,a,1,0.8907,"[""0.225"",""0.423"",""0.770"",""0.554""]","[1,1,1,0]",0,32,32,32,1,0,0,,,0,FALSE,,,,,,,,,,,,,,,,,,,,,,,,,,,,,,,
,61073e6d38111b5924507b77,627c6fad59bfe5359f80482d,2022-05-11_21h46.39.308,classification_task,2021.2.3,Win32,60.87168249,627c6715c52fd12f31907bd0,,,,,,,,,,,,,,,,,,,,,,,a,0,1.1482,"[""0.026"",""0.134"",""0.535"",""0.707""]","[1,1,0,1]",0,33,33,33,1,1,1,,,0,FALSE,,,,,,,,,,,,,,,,,,,,,,,,,,,,,,,
,61073e6d38111b5924507b77,627c6fad59bfe5359f80482d,2022-05-11_21h46.39.308,classification_task,2021.2.3,Win32,60.87168249,627c6715c52fd12f31907bd0,,,,,,,,,,,,,,,,,,,,,,,l,1,1.152,"[""0.095"",""0.268"",""0.553"",""0.805""]","[1,1,0,1]",0,34,34,34,1,1,0,,,0,FALSE,,,,,,,,,,,,,,,,,,,,,,,,,,,,,,,
,61073e6d38111b5924507b77,627c6fad59bfe5359f80482d,2022-05-11_21h46.39.308,classification_task,2021.2.3,Win32,60.87168249,627c6715c52fd12f31907bd0,,,,,,,,,,,,,,,,,,,,,,,a,0,1.4183,"[""0.862"",""0.134"",""0.497"",""0.707""]","[0,1,1,1]",0,35,35,35,1,1,1,,,0,FALSE,,,,,,,,,,,,,,,,,,,,,,,,,,,,,,,
,61073e6d38111b5924507b77,627c6fad59bfe5359f80482d,2022-05-11_21h46.39.308,classification_task,2021.2.3,Win32,60.87168249,627c6715c52fd12f31907bd0,,,,,,,,,,,,,,,,,,,,,,,a,1,0.7661,"[""0.569"",""0.423"",""0.770"",""0.900""]","[0,1,1,1]",0,36,36,36,1,0,0,,,0,FALSE,,,,,,,,,,,,,,,,,,,,,,,,,,,,,,,
,61073e6d38111b5924507b77,627c6fad59bfe5359f80482d,2022-05-11_21h46.39.308,classification_task,2021.2.3,Win32,60.87168249,627c6715c52fd12f31907bd0,,,,,,,,,,,,,,,,,,,,,,,l,0,1.1412,"[""0.188"",""0.379"",""0.554"",""0.960""]","[1,1,0,1]",0,37,37,37,1,0,1,,,0,FALSE,,,,,,,,,,,,,,,,,,,,,,,,,,,,,,,
,61073e6d38111b5924507b77,627c6fad59bfe5359f80482d,2022-05-11_21h46.39.308,classification_task,2021.2.3,Win32,60.87168249,627c6715c52fd12f31907bd0,,,,,,,,,,,,,,,,,,,,,,,l,0,1.1449,"[""0.225"",""0.061"",""0.770"",""0.900""]","[1,0,1,1]",0,38,38,38,1,0,0,,,0,FALSE,,,,,,,,,,,,,,,,,,,,,,,,,,,,,,,
,61073e6d38111b5924507b77,627c6fad59bfe5359f80482d,2022-05-11_21h46.39.308,classification_task,2021.2.3,Win32,60.87168249,627c6715c52fd12f31907bd0,,,,,,,,,,,,,,,,,,,,,,,a,0,1.7592,"[""0.026"",""0.134"",""0.497"",""0.341""]","[1,1,1,0]",0,39,39,39,1,1,1,,,0,FALSE,,,,,,,,,,,,,,,,,,,,,,,,,,,,,,,
,61073e6d38111b5924507b77,627c6fad59bfe5359f80482d,2022-05-11_21h46.39.308,classification_task,2021.2.3,Win32,60.87168249,627c6715c52fd12f31907bd0,,,,,,,,,,,,,,,,,,,,,,,l,1,0.8892,"[""0.095"",""0.556"",""0.664"",""0.805""]","[1,0,1,1]",0,40,40,40,1,1,0,,,0,FALSE,,,,,,,,,,,,,,,,,,,,,,,,,,,,,,,
,61073e6d38111b5924507b77,627c6fad59bfe5359f80482d,2022-05-11_21h46.39.308,classification_task,2021.2.3,Win32,60.87168249,627c6715c52fd12f31907bd0,,,,,,,,,,,,,,,,,,,,,,,l,1,1.1514,"[""0.308"",""0.268"",""0.664"",""0.805""]","[0,1,1,1]",0,41,41,41,1,1,0,,,0,FALSE,,,,,,,,,,,,,,,,,,,,,,,,,,,,,,,
,61073e6d38111b5924507b77,627c6fad59bfe5359f80482d,2022-05-11_21h46.39.308,classification_task,2021.2.3,Win32,60.87168249,627c6715c52fd12f31907bd0,,,,,,,,,,,,,,,,,,,,,,,a,1,0.9125,"[""0.569"",""0.379"",""0.610"",""0.960""]","[0,1,1,1]",0,42,42,42,1,0,1,,,0,FALSE,,,,,,,,,,,,,,,,,,,,,,,,,,,,,,,
,61073e6d38111b5924507b77,627c6fad59bfe5359f80482d,2022-05-11_21h46.39.308,classification_task,2021.2.3,Win32,60.87168249,627c6715c52fd12f31907bd0,,,,,,,,,,,,,,,,,,,,,,,l,1,1.1461,"[""0.095"",""0.268"",""0.664"",""0.862""]","[1,1,1,0]",0,43,43,43,1,1,0,,,0,FALSE,,,,,,,,,,,,,,,,,,,,,,,,,,,,,,,
,61073e6d38111b5924507b77,627c6fad59bfe5359f80482d,2022-05-11_21h46.39.308,classification_task,2021.2.3,Win32,60.87168249,627c6715c52fd12f31907bd0,,,,,,,,,,,,,,,,,,,,,,,a,0,0.7737,"[""0.026"",""0.566"",""0.497"",""0.707""]","[1,0,1,1]",0,44,44,44,1,1,1,,,0,FALSE,,,,,,,,,,,,,,,,,,,,,,,,,,,,,,,
,61073e6d38111b5924507b77,627c6fad59bfe5359f80482d,2022-05-11_21h46.39.308,classification_task,2021.2.3,Win32,60.87168249,627c6715c52fd12f31907bd0,,,,,,,,,,,,,,,,,,,,,,,a,1,0.7527,"[""0.225"",""0.423"",""0.850"",""0.900""]","[1,1,0,1]",0,45,45,45,1,0,0,,,0,FALSE,,,,,,,,,,,,,,,,,,,,,,,,,,,,,,,
,61073e6d38111b5924507b77,627c6fad59bfe5359f80482d,2022-05-11_21h46.39.308,classification_task,2021.2.3,Win32,60.87168249,627c6715c52fd12f31907bd0,,,,,,,,,,,,,,,,,,,,,,,l,0,0.7655,"[""0.188"",""0.850"",""0.610"",""0.960""]","[1,0,1,1]",0,46,46,46,1,0,1,,,0,FALSE,,,,,,,,,,,,,,,,,,,,,,,,,,,,,,,
,61073e6d38111b5924507b77,627c6fad59bfe5359f80482d,2022-05-11_21h46.39.308,classification_task,2021.2.3,Win32,60.87168249,627c6715c52fd12f31907bd0,,,,,,,,,,,,,,,,,,,,,,,a,1,1.7786,"[""0.188"",""0.379"",""0.610"",""0.553""]","[1,1,1,0]",0,47,47,47,1,0,1,,,0,FALSE,,,,,,,,,,,,,,,,,,,,,,,,,,,,,,,
,61073e6d38111b5924507b77,627c6fad59bfe5359f80482d,2022-05-11_21h46.39.308,classification_task,2021.2.3,Win32,60.87168249,627c6715c52fd12f31907bd0,,,,,,,,,,,,,,,,,,,,,,,a,1,1.1401,"[""0.535"",""0.423"",""0.770"",""0.900""]","[0,1,1,1]",0,48,48,48,1,0,0,,,0,FALSE,,,,,,,,,,,,,,,,,,,,,,,,,,,,,,,
,61073e6d38111b5924507b77,627c6fad59bfe5359f80482d,2022-05-11_21h46.39.308,classification_task,2021.2.3,Win32,60.87168249,627c6715c52fd12f31907bd0,,,,,,,,,,,,,,,,,,,,,,,l,1,0.5473,"[""0.333"",""0.268"",""0.664"",""0.805""]","[0,1,1,1]",0,49,49,49,1,1,0,,,0,FALSE,,,,,,,,,,,,,,,,,,,,,,,,,,,,,,,
,61073e6d38111b5924507b77,627c6fad59bfe5359f80482d,2022-05-11_21h46.39.308,classification_task,2021.2.3,Win32,60.87168249,627c6715c52fd12f31907bd0,,,,,,,,,,,,,,,,,,,,,,,l,0,1.2997,"[""0.188"",""0.569"",""0.610"",""0.960""]","[1,0,1,1]",0,50,50,50,1,0,1,,,0,FALSE,,,,,,,,,,,,,,,,,,,,,,,,,,,,,,,
,61073e6d38111b5924507b77,627c6fad59bfe5359f80482d,2022-05-11_21h46.39.308,classification_task,2021.2.3,Win32,60.87168249,627c6715c52fd12f31907bd0,,,,,,,,,,,,,,,,,,,,,,,a,1,1.1465,"[""0.225"",""0.423"",""0.556"",""0.900""]","[1,1,0,1]",0,51,51,51,1,0,0,,,0,FALSE,,,,,,,,,,,,,,,,,,,,,,,,,,,,,,,
,61073e6d38111b5924507b77,627c6fad59bfe5359f80482d,2022-05-11_21h46.39.308,classification_task,2021.2.3,Win32,60.87168249,627c6715c52fd12f31907bd0,,,,,,,,,,,,,,,,,,,,,,,l,1,2.0314,"[""0.026"",""0.134"",""0.061"",""0.707""]","[1,1,0,1]",0,52,52,52,1,1,1,,,0,FALSE,,,,,,,,,,,,,,,,,,,,,,,,,,,,,,,
,61073e6d38111b5924507b77,627c6fad59bfe5359f80482d,2022-05-11_21h46.39.308,classification_task,2021.2.3,Win32,60.87168249,627c6715c52fd12f31907bd0,,,,,,,,,,,,,,,,,,,,,,,l,0,1.1651,"[""0.188"",""0.379"",""0.610"",""0.569""]","[1,1,1,0]",0,53,53,53,1,0,1,,,0,FALSE,,,,,,,,,,,,,,,,,,,,,,,,,,,,,,,
,61073e6d38111b5924507b77,627c6fad59bfe5359f80482d,2022-05-11_21h46.39.308,classification_task,2021.2.3,Win32,60.87168249,627c6715c52fd12f31907bd0,,,,,,,,,,,,,,,,,,,,,,,a,1,1.142,"[""0.225"",""0.423"",""0.770"",""0.866""]","[1,1,1,0]",0,54,54,54,1,0,0,,,0,FALSE,,,,,,,,,,,,,,,,,,,,,,,,,,,,,,,
,61073e6d38111b5924507b77,627c6fad59bfe5359f80482d,2022-05-11_21h46.39.308,classification_task,2021.2.3,Win32,60.87168249,627c6715c52fd12f31907bd0,,,,,,,,,,,,,,,,,,,,,,,a,0,0.9291,"[""0.026"",""0.134"",""0.497"",""0.317""]","[1,1,1,0]",0,55,55,55,1,1,1,,,0,FALSE,,,,,,,,,,,,,,,,,,,,,,,,,,,,,,,
,61073e6d38111b5924507b77,627c6fad59bfe5359f80482d,2022-05-11_21h46.39.308,classification_task,2021.2.3,Win32,60.87168249,627c6715c52fd12f31907bd0,,,,,,,,,,,,,,,,,,,,,,,l,1,0.6387,"[""0.095"",""0.317"",""0.664"",""0.805""]","[1,0,1,1]",0,56,56,56,1,1,0,,,0,FALSE,,,,,,,,,,,,,,,,,,,,,,,,,,,,,,,
,61073e6d38111b5924507b77,627c6fad59bfe5359f80482d,2022-05-11_21h46.39.308,classification_task,2021.2.3,Win32,60.87168249,627c6715c52fd12f31907bd0,,,,,,,,,,,,,,,,,,,,,,,a,0,0.762,"[""0.553"",""0.134"",""0.497"",""0.707""]","[0,1,1,1]",0,57,57,57,1,1,1,,,0,FALSE,,,,,,,,,,,,,,,,,,,,,,,,,,,,,,,
,61073e6d38111b5924507b77,627c6fad59bfe5359f80482d,2022-05-11_21h46.39.308,classification_task,2021.2.3,Win32,60.87168249,627c6715c52fd12f31907bd0,,,,,,,,,,,,,,,,,,,,,,,a,1,1.0517,"[""0.225"",""0.553"",""0.770"",""0.900""]","[1,0,1,1]",0,58,58,58,1,0,0,,,0,FALSE,,,,,,,,,,,,,,,,,,,,,,,,,,,,,,,
,61073e6d38111b5924507b77,627c6fad59bfe5359f80482d,2022-05-11_21h46.39.308,classification_task,2021.2.3,Win32,60.87168249,627c6715c52fd12f31907bd0,,,,,,,,,,,,,,,,,,,,,,,l,1,0.773,"[""0.095"",""0.268"",""0.569"",""0.805""]","[1,1,0,1]",0,59,59,59,1,1,0,,,0,FALSE,,,,,,,,,,,,,,,,,,,,,,,,,,,,,,,
,61073e6d38111b5924507b77,627c6fad59bfe5359f80482d,2022-05-11_21h46.39.308,classification_task,2021.2.3,Win32,60.87168249,627c6715c52fd12f31907bd0,,,,,,,,,,,,,,,,,,,,,,,l,1,2.9422,"[""0.095"",""0.268"",""0.664"",""0.308""]","[1,1,1,0]",0,60,60,60,1,1,0,,,0,FALSE,,,,,,,,,,,,,,,,,,,,,,,,,,,,,,,
,61073e6d38111b5924507b77,627c6fad59bfe5359f80482d,2022-05-11_21h46.39.308,classification_task,2021.2.3,Win32,60.87168249,627c6715c52fd12f31907bd0,,,,,,,,,,,,,,,,,,,,,,,a,0,1.0196,"[""0.026"",""0.341"",""0.497"",""0.707""]","[1,0,1,1]",0,61,61,61,1,1,1,,,0,FALSE,,,,,,,,,,,,,,,,,,,,,,,,,,,,,,,
,61073e6d38111b5924507b77,627c6fad59bfe5359f80482d,2022-05-11_21h46.39.308,classification_task,2021.2.3,Win32,60.87168249,627c6715c52fd12f31907bd0,,,,,,,,,,,,,,,,,,,,,,,a,1,0.9138,"[""0.188"",""0.379"",""0.333"",""0.960""]","[1,1,0,1]",0,62,62,62,1,0,1,,,0,FALSE,,,,,,,,,,,,,,,,,,,,,,,,,,,,,,,
,61073e6d38111b5924507b77,627c6fad59bfe5359f80482d,2022-05-11_21h46.39.308,classification_task,2021.2.3,Win32,60.87168249,627c6715c52fd12f31907bd0,,,,,,,,,,,,,,,,,,,,,,,l,0,1.0426,"[""0.569"",""0.379"",""0.610"",""0.960""]","[0,1,1,1]",0,63,63,63,1,0,1,,,0,FALSE,,,,,,,,,,,,,,,,,,,,,,,,,,,,,,,
,61073e6d38111b5924507b77,627c6fad59bfe5359f80482d,2022-05-11_21h46.39.308,classification_task,2021.2.3,Win32,60.87168249,627c6715c52fd12f31907bd0,,,,,,,,,,,,,,,,,,,,,,,,,,,,,,,,,,,,,,,0, ,,0,4.862213404,148.0642,0,1,1,1,1,2,2,,,,,,,,,,,,,,,,,,
,61073e6d38111b5924507b77,627c6fad59bfe5359f80482d,2022-05-11_21h46.39.308,classification_task,2021.2.3,Win32,60.87168249,627c6715c52fd12f31907bd0,,,,,,,,,,,,,,,,,,,,,,,,,,,,,,,,,,,,,,,1,  ,,0,6.343419312,152.0452,0,1,1,1,1,2,2,,,,,,,,,,,,,,,,,,
,61073e6d38111b5924507b77,627c6fad59bfe5359f80482d,2022-05-11_21h46.39.308,classification_task,2021.2.3,Win32,60.87168249,627c6715c52fd12f31907bd0,,,,,,,,,,,,,,,,,,,,,,,,,,,,,,,,,,,,,,,2,  ,,0,4.414406966,157.2856,0,1,1,1,1,2,2,,,,,,,,,,,,,,,,,,
,61073e6d38111b5924507b77,627c6fad59bfe5359f80482d,2022-05-11_21h46.39.308,classification_task,2021.2.3,Win32,60.87168249,627c6715c52fd12f31907bd0,,,,,,,,,,,,,,,,,,,,,,,,,,,,,,,,,,,,,,,,,,,,,0,1,1,1,1,,2,,,,,,,,,,,,,,,,,,
,61073e6d38111b5924507b77,627c6fad59bfe5359f80482d,2022-05-11_21h46.39.308,classification_task,2021.2.3,Win32,60.87168249,627c6715c52fd12f31907bd0,,,,,,,,,,,,,,,,,,,,,space,2.7158,l,0,2.2144,"[""0.554"",""0.379"",""0.610"",""0.960""]","[0,1,1,1]",0,0,0,0,1,0,1,,,0,FALSE,,,,,,,,,,,,,,,,,,,,,,,,,,,,,,,
,61073e6d38111b5924507b77,627c6fad59bfe5359f80482d,2022-05-11_21h46.39.308,classification_task,2021.2.3,Win32,60.87168249,627c6715c52fd12f31907bd0,,,,,,,,,,,,,,,,,,,,,,,a,1,1.0055,"[""0.308"",""0.423"",""0.770"",""0.900""]","[0,1,1,1]",0,1,1,1,1,0,0,,,0,FALSE,,,,,,,,,,,,,,,,,,,,,,,,,,,,,,,
,61073e6d38111b5924507b77,627c6fad59bfe5359f80482d,2022-05-11_21h46.39.308,classification_task,2021.2.3,Win32,60.87168249,627c6715c52fd12f31907bd0,,,,,,,,,,,,,,,,,,,,,,,a,1,1.2574,"[""0.225"",""0.423"",""0.770"",""0.308""]","[1,1,1,0]",0,2,2,2,1,0,0,,,0,FALSE,,,,,,,,,,,,,,,,,,,,,,,,,,,,,,,
,61073e6d38111b5924507b77,627c6fad59bfe5359f80482d,2022-05-11_21h46.39.308,classification_task,2021.2.3,Win32,60.87168249,627c6715c52fd12f31907bd0,,,,,,,,,,,,,,,,,,,,,,,l,0,1.5128,"[""0.188"",""0.553"",""0.610"",""0.960""]","[1,0,1,1]",0,3,3,3,1,0,1,,,0,FALSE,,,,,,,,,,,,,,,,,,,,,,,,,,,,,,,
,61073e6d38111b5924507b77,627c6fad59bfe5359f80482d,2022-05-11_21h46.39.308,classification_task,2021.2.3,Win32,60.87168249,627c6715c52fd12f31907bd0,,,,,,,,,,,,,,,,,,,,,,,a,0,0.7585,"[""0.095"",""0.864"",""0.664"",""0.805""]","[1,0,1,1]",0,4,4,4,1,1,0,,,0,FALSE,,,,,,,,,,,,,,,,,,,,,,,,,,,,,,,
,61073e6d38111b5924507b77,627c6fad59bfe5359f80482d,2022-05-11_21h46.39.308,classification_task,2021.2.3,Win32,60.87168249,627c6715c52fd12f31907bd0,,,,,,,,,,,,,,,,,,,,,,,a,0,1.2697,"[""0.535"",""0.268"",""0.664"",""0.805""]","[0,1,1,1]",0,5,5,5,1,1,0,,,0,FALSE,,,,,,,,,,,,,,,,,,,,,,,,,,,,,,,
,61073e6d38111b5924507b77,627c6fad59bfe5359f80482d,2022-05-11_21h46.39.308,classification_task,2021.2.3,Win32,60.87168249,627c6715c52fd12f31907bd0,,,,,,,,,,,,,,,,,,,,,,,l,0,0.77,"[""0.188"",""0.379"",""0.333"",""0.960""]","[1,1,0,1]",0,6,6,6,1,0,1,,,0,FALSE,,,,,,,,,,,,,,,,,,,,,,,,,,,,,,,
,61073e6d38111b5924507b77,627c6fad59bfe5359f80482d,2022-05-11_21h46.39.308,classification_task,2021.2.3,Win32,60.87168249,627c6715c52fd12f31907bd0,,,,,,,,,,,,,,,,,,,,,,,l,1,0.6351,"[""0.095"",""0.268"",""0.850"",""0.805""]","[1,1,0,1]",0,7,7,7,1,1,0,,,0,FALSE,,,,,,,,,,,,,,,,,,,,,,,,,,,,,,,
,61073e6d38111b5924507b77,627c6fad59bfe5359f80482d,2022-05-11_21h46.39.308,classification_task,2021.2.3,Win32,60.87168249,627c6715c52fd12f31907bd0,,,,,,,,,,,,,,,,,,,,,,,l,1,1.0099,"[""0.095"",""0.268"",""0.664"",""0.317""]","[1,1,1,0]",0,8,8,8,1,1,0,,,0,FALSE,,,,,,,,,,,,,,,,,,,,,,,,,,,,,,,
,61073e6d38111b5924507b77,627c6fad59bfe5359f80482d,2022-05-11_21h46.39.308,classification_task,2021.2.3,Win32,60.87168249,627c6715c52fd12f31907bd0,,,,,,,,,,,,,,,,,,,,,,,a,1,1.1406,"[""0.188"",""0.379"",""0.610"",""0.553""]","[1,1,1,0]",0,9,9,9,1,0,1,,,0,FALSE,,,,,,,,,,,,,,,,,,,,,,,,,,,,,,,
,61073e6d38111b5924507b77,627c6fad59bfe5359f80482d,2022-05-11_21h46.39.308,classification_task,2021.2.3,Win32,60.87168249,627c6715c52fd12f31907bd0,,,,,,,,,,,,,,,,,,,,,,,a,0,0.8953,"[""0.026"",""0.134"",""0.862"",""0.707""]","[1,1,0,1]",0,10,10,10,1,1,1,,,0,FALSE,,,,,,,,,,,,,,,,,,,,,,,,,,,,,,,
,61073e6d38111b5924507b77,627c6fad59bfe5359f80482d,2022-05-11_21h46.39.308,classification_task,2021.2.3,Win32,60.87168249,627c6715c52fd12f31907bd0,,,,,,,,,,,,,,,,,,,,,,,a,1,1.278,"[""0.225"",""0.341"",""0.770"",""0.900""]","[1,0,1,1]",0,11,11,11,1,0,0,,,0,FALSE,,,,,,,,,,,,,,,,,,,,,,,,,,,,,,,
,61073e6d38111b5924507b77,627c6fad59bfe5359f80482d,2022-05-11_21h46.39.308,classification_task,2021.2.3,Win32,60.87168249,627c6715c52fd12f31907bd0,,,,,,,,,,,,,,,,,,,,,,,l,1,1.2588,"[""0.026"",""0.134"",""0.497"",""0.866""]","[1,1,1,0]",0,12,12,12,1,1,1,,,0,FALSE,,,,,,,,,,,,,,,,,,,,,,,,,,,,,,,
,61073e6d38111b5924507b77,627c6fad59bfe5359f80482d,2022-05-11_21h46.39.308,classification_task,2021.2.3,Win32,60.87168249,627c6715c52fd12f31907bd0,,,,,,,,,,,,,,,,,,,,,,,l,0,1.7134,"[""0.225"",""0.423"",""0.333"",""0.900""]","[1,1,0,1]",0,13,13,13,1,0,0,,,0,FALSE,,,,,,,,,,,,,,,,,,,,,,,,,,,,,,,
,61073e6d38111b5924507b77,627c6fad59bfe5359f80482d,2022-05-11_21h46.39.308,classification_task,2021.2.3,Win32,60.87168249,627c6715c52fd12f31907bd0,,,,,,,,,,,,,,,,,,,,,,,a,0,1.1374,"[""0.308"",""0.134"",""0.497"",""0.707""]","[0,1,1,1]",0,14,14,14,1,1,1,,,0,FALSE,,,,,,,,,,,,,,,,,,,,,,,,,,,,,,,
,61073e6d38111b5924507b77,627c6fad59bfe5359f80482d,2022-05-11_21h46.39.308,classification_task,2021.2.3,Win32,60.87168249,627c6715c52fd12f31907bd0,,,,,,,,,,,,,,,,,,,,,,,l,1,2.0224,"[""0.026"",""0.862"",""0.497"",""0.707""]","[1,0,1,1]",0,15,15,15,1,1,1,,,0,FALSE,,,,,,,,,,,,,,,,,,,,,,,,,,,,,,,
,61073e6d38111b5924507b77,627c6fad59bfe5359f80482d,2022-05-11_21h46.39.308,classification_task,2021.2.3,Win32,60.87168249,627c6715c52fd12f31907bd0,,,,,,,,,,,,,,,,,,,,,,,l,1,0.7623,"[""0.026"",""0.134"",""0.554"",""0.707""]","[1,1,0,1]",0,16,16,16,1,1,1,,,0,FALSE,,,,,,,,,,,,,,,,,,,,,,,,,,,,,,,
,61073e6d38111b5924507b77,627c6fad59bfe5359f80482d,2022-05-11_21h46.39.308,classification_task,2021.2.3,Win32,60.87168249,627c6715c52fd12f31907bd0,,,,,,,,,,,,,,,,,,,,,,,a,1,1.6467,"[""0.225"",""0.423"",""0.770"",""0.862""]","[1,1,1,0]",0,17,17,17,1,0,0,,,0,FALSE,,,,,,,,,,,,,,,,,,,,,,,,,,,,,,,
,61073e6d38111b5924507b77,627c6fad59bfe5359f80482d,2022-05-11_21h46.39.308,classification_task,2021.2.3,Win32,60.87168249,627c6715c52fd12f31907bd0,,,,,,,,,,,,,,,,,,,,,,,a,0,2.5737,"[""0.554"",""0.268"",""0.664"",""0.805""]","[0,1,1,1]",0,18,18,18,1,1,0,,,0,FALSE,,,,,,,,,,,,,,,,,,,,,,,,,,,,,,,
,61073e6d38111b5924507b77,627c6fad59bfe5359f80482d,2022-05-11_21h46.39.308,classification_task,2021.2.3,Win32,60.87168249,627c6715c52fd12f31907bd0,,,,,,,,,,,,,,,,,,,,,,,l,0,3.4294,"[""0.556"",""0.379"",""0.610"",""0.960""]","[0,1,1,1]",0,19,19,19,1,0,1,,,0,FALSE,,,,,,,,,,,,,,,,,,,,,,,,,,,,,,,
,61073e6d38111b5924507b77,627c6fad59bfe5359f80482d,2022-05-11_21h46.39.308,classification_task,2021.2.3,Win32,60.87168249,627c6715c52fd12f31907bd0,,,,,,,,,,,,,,,,,,,,,,,l,0,2.7773,"[""0.850"",""0.423"",""0.770"",""0.900""]","[0,1,1,1]",0,20,20,20,1,0,0,,,0,FALSE,,,,,,,,,,,,,,,,,,,,,,,,,,,,,,,
,61073e6d38111b5924507b77,627c6fad59bfe5359f80482d,2022-05-11_21h46.39.308,classification_task,2021.2.3,Win32,60.87168249,627c6715c52fd12f31907bd0,,,,,,,,,,,,,,,,,,,,,,,l,1,1.424,"[""0.026"",""0.134"",""0.497"",""0.554""]","[1,1,1,0]",0,21,21,21,1,1,1,,,0,FALSE,,,,,,,,,,,,,,,,,,,,,,,,,,,,,,,
,61073e6d38111b5924507b77,627c6fad59bfe5359f80482d,2022-05-11_21h46.39.308,classification_task,2021.2.3,Win32,60.87168249,627c6715c52fd12f31907bd0,,,,,,,,,,,,,,,,,,,,,,,a,0,1.9806,"[""0.095"",""0.268"",""0.553"",""0.805""]","[1,1,0,1]",0,22,22,22,1,1,0,,,0,FALSE,,,,,,,,,,,,,,,,,,,,,,,,,,,,,,,
,61073e6d38111b5924507b77,627c6fad59bfe5359f80482d,2022-05-11_21h46.39.308,classification_task,2021.2.3,Win32,60.87168249,627c6715c52fd12f31907bd0,,,,,,,,,,,,,,,,,,,,,,,l,0,1.3989,"[""0.188"",""0.379"",""0.553"",""0.960""]","[1,1,0,1]",0,23,23,23,1,0,1,,,0,FALSE,,,,,,,,,,,,,,,,,,,,,,,,,,,,,,,
,61073e6d38111b5924507b77,627c6fad59bfe5359f80482d,2022-05-11_21h46.39.308,classification_task,2021.2.3,Win32,60.87168249,627c6715c52fd12f31907bd0,,,,,,,,,,,,,,,,,,,,,,,l,1,1.8861,"[""0.095"",""0.061"",""0.664"",""0.805""]","[1,0,1,1]",0,24,24,24,1,1,0,,,0,FALSE,,,,,,,,,,,,,,,,,,,,,,,,,,,,,,,
,61073e6d38111b5924507b77,627c6fad59bfe5359f80482d,2022-05-11_21h46.39.308,classification_task,2021.2.3,Win32,60.87168249,627c6715c52fd12f31907bd0,,,,,,,,,,,,,,,,,,,,,,,a,0,4.2989,"[""0.026"",""0.333"",""0.497"",""0.707""]","[1,0,1,1]",0,25,25,25,1,1,1,,,0,FALSE,,,,,,,,,,,,,,,,,,,,,,,,,,,,,,,
,61073e6d38111b5924507b77,627c6fad59bfe5359f80482d,2022-05-11_21h46.39.308,classification_task,2021.2.3,Win32,60.87168249,627c6715c52fd12f31907bd0,,,,,,,,,,,,,,,,,,,,,,,a,0,4.4252,"[""0.566"",""0.134"",""0.497"",""0.707""]","[0,1,1,1]",0,26,26,26,1,1,1,,,0,FALSE,,,,,,,,,,,,,,,,,,,,,,,,,,,,,,,
,61073e6d38111b5924507b77,627c6fad59bfe5359f80482d,2022-05-11_21h46.39.308,classification_task,2021.2.3,Win32,60.87168249,627c6715c52fd12f31907bd0,,,,,,,,,,,,,,,,,,,,,,,l,0,1.6038,"[""0.225"",""0.554"",""0.770"",""0.900""]","[1,0,1,1]",0,27,27,27,1,0,0,,,0,FALSE,,,,,,,,,,,,,,,,,,,,,,,,,,,,,,,
,61073e6d38111b5924507b77,627c6fad59bfe5359f80482d,2022-05-11_21h46.39.308,classification_task,2021.2.3,Win32,60.87168249,627c6715c52fd12f31907bd0,,,,,,,,,,,,,,,,,,,,,,,a,0,1.5137,"[""0.095"",""0.268"",""0.664"",""0.333""]","[1,1,1,0]",0,28,28,28,1,1,0,,,0,FALSE,,,,,,,,,,,,,,,,,,,,,,,,,,,,,,,
,61073e6d38111b5924507b77,627c6fad59bfe5359f80482d,2022-05-11_21h46.39.308,classification_task,2021.2.3,Win32,60.87168249,627c6715c52fd12f31907bd0,,,,,,,,,,,,,,,,,,,,,,,l,0,0.7662,"[""0.188"",""0.862"",""0.610"",""0.960""]","[1,0,1,1]",0,29,29,29,1,0,1,,,0,FALSE,,,,,,,,,,,,,,,,,,,,,,,,,,,,,,,
,61073e6d38111b5924507b77,627c6fad59bfe5359f80482d,2022-05-11_21h46.39.308,classification_task,2021.2.3,Win32,60.87168249,627c6715c52fd12f31907bd0,,,,,,,,,,,,,,,,,,,,,,,l,0,1.2633,"[""0.225"",""0.423"",""0.061"",""0.900""]","[1,1,0,1]",0,30,30,30,1,0,0,,,0,FALSE,,,,,,,,,,,,,,,,,,,,,,,,,,,,,,,
,61073e6d38111b5924507b77,627c6fad59bfe5359f80482d,2022-05-11_21h46.39.308,classification_task,2021.2.3,Win32,60.87168249,627c6715c52fd12f31907bd0,,,,,,,,,,,,,,,,,,,,,,,a,1,0.7657,"[""0.188"",""0.379"",""0.610"",""0.341""]","[1,1,1,0]",0,31,31,31,1,0,1,,,0,FALSE,,,,,,,,,,,,,,,,,,,,,,,,,,,,,,,
,61073e6d38111b5924507b77,627c6fad59bfe5359f80482d,2022-05-11_21h46.39.308,classification_task,2021.2.3,Win32,60.87168249,627c6715c52fd12f31907bd0,,,,,,,,,,,,,,,,,,,,,,,l,1,1.8945,"[""0.026"",""0.554"",""0.497"",""0.707""]","[1,0,1,1]",0,32,32,32,1,1,1,,,0,FALSE,,,,,,,,,,,,,,,,,,,,,,,,,,,,,,,
,61073e6d38111b5924507b77,627c6fad59bfe5359f80482d,2022-05-11_21h46.39.308,classification_task,2021.2.3,Win32,60.87168249,627c6715c52fd12f31907bd0,,,,,,,,,,,,,,,,,,,,,,,a,1,2.749,"[""0.225"",""0.423"",""0.770"",""0.553""]","[1,1,1,0]",0,33,33,33,1,0,0,,,0,FALSE,,,,,,,,,,,,,,,,,,,,,,,,,,,,,,,
,61073e6d38111b5924507b77,627c6fad59bfe5359f80482d,2022-05-11_21h46.39.308,classification_task,2021.2.3,Win32,60.87168249,627c6715c52fd12f31907bd0,,,,,,,,,,,,,,,,,,,,,,,a,0,2.5281,"[""0.341"",""0.268"",""0.664"",""0.805""]","[0,1,1,1]",0,34,34,34,1,1,0,,,0,FALSE,,,,,,,,,,,,,,,,,,,,,,,,,,,,,,,
,61073e6d38111b5924507b77,627c6fad59bfe5359f80482d,2022-05-11_21h46.39.308,classification_task,2021.2.3,Win32,60.87168249,627c6715c52fd12f31907bd0,,,,,,,,,,,,,,,,,,,,,,,a,0,3.3466,"[""0.095"",""0.268"",""0.866"",""0.805""]","[1,1,0,1]",0,35,35,35,1,1,0,,,0,FALSE,,,,,,,,,,,,,,,,,,,,,,,,,,,,,,,
,61073e6d38111b5924507b77,627c6fad59bfe5359f80482d,2022-05-11_21h46.39.308,classification_task,2021.2.3,Win32,60.87168249,627c6715c52fd12f31907bd0,,,,,,,,,,,,,,,,,,,,,,,l,0,1.7497,"[""0.225"",""0.423"",""0.856"",""0.900""]","[1,1,0,1]",0,36,36,36,1,0,0,,,0,FALSE,,,,,,,,,,,,,,,,,,,,,,,,,,,,,,,
,61073e6d38111b5924507b77,627c6fad59bfe5359f80482d,2022-05-11_21h46.39.308,classification_task,2021.2.3,Win32,60.87168249,627c6715c52fd12f31907bd0,,,,,,,,,,,,,,,,,,,,,,,a,1,2.5677,"[""0.188"",""0.379"",""0.535"",""0.960""]","[1,1,0,1]",0,37,37,37,1,0,1,,,0,FALSE,,,,,,,,,,,,,,,,,,,,,,,,,,,,,,,
,61073e6d38111b5924507b77,627c6fad59bfe5359f80482d,2022-05-11_21h46.39.308,classification_task,2021.2.3,Win32,60.87168249,627c6715c52fd12f31907bd0,,,,,,,,,,,,,,,,,,,,,,,l,1,0.9456,"[""0.026"",""0.134"",""0.866"",""0.707""]","[1,1,0,1]",0,38,38,38,1,1,1,,,0,FALSE,,,,,,,,,,,,,,,,,,,,,,,,,,,,,,,
,61073e6d38111b5924507b77,627c6fad59bfe5359f80482d,2022-05-11_21h46.39.308,classification_task,2021.2.3,Win32,60.87168249,627c6715c52fd12f31907bd0,,,,,,,,,,,,,,,,,,,,,,,a,1,2.2929,"[""0.225"",""0.317"",""0.770"",""0.900""]","[1,0,1,1]",0,39,39,39,1,0,0,,,0,FALSE,,,,,,,,,,,,,,,,,,,,,,,,,,,,,,,
,61073e6d38111b5924507b77,627c6fad59bfe5359f80482d,2022-05-11_21h46.39.308,classification_task,2021.2.3,Win32,60.87168249,627c6715c52fd12f31907bd0,,,,,,,,,,,,,,,,,,,,,,,a,1,0.8853,"[""0.188"",""0.341"",""0.610"",""0.960""]","[1,0,1,1]",0,40,40,40,1,0,1,,,0,FALSE,,,,,,,,,,,,,,,,,,,,,,,,,,,,,,,
,61073e6d38111b5924507b77,627c6fad59bfe5359f80482d,2022-05-11_21h46.39.308,classification_task,2021.2.3,Win32,60.87168249,627c6715c52fd12f31907bd0,,,,,,,,,,,,,,,,,,,,,,,l,0,0.6358,"[""0.535"",""0.423"",""0.770"",""0.900""]","[0,1,1,1]",0,41,41,41,1,0,0,,,0,FALSE,,,,,,,,,,,,,,,,,,,,,,,,,,,,,,,
,61073e6d38111b5924507b77,627c6fad59bfe5359f80482d,2022-05-11_21h46.39.308,classification_task,2021.2.3,Win32,60.87168249,627c6715c52fd12f31907bd0,,,,,,,,,,,,,,,,,,,,,,,l,0,1.0119,"[""0.188"",""0.379"",""0.610"",""0.864""]","[1,1,1,0]",0,42,42,42,1,0,1,,,0,FALSE,,,,,,,,,,,,,,,,,,,,,,,,,,,,,,,
,61073e6d38111b5924507b77,627c6fad59bfe5359f80482d,2022-05-11_21h46.39.308,classification_task,2021.2.3,Win32,60.87168249,627c6715c52fd12f31907bd0,,,,,,,,,,,,,,,,,,,,,,,l,1,1.3956,"[""0.569"",""0.134"",""0.497"",""0.707""]","[0,1,1,1]",0,43,43,43,1,1,1,,,0,FALSE,,,,,,,,,,,,,,,,,,,,,,,,,,,,,,,
,61073e6d38111b5924507b77,627c6fad59bfe5359f80482d,2022-05-11_21h46.39.308,classification_task,2021.2.3,Win32,60.87168249,627c6715c52fd12f31907bd0,,,,,,,,,,,,,,,,,,,,,,,a,0,0.9376,"[""0.026"",""0.134"",""0.497"",""0.864""]","[1,1,1,0]",0,44,44,44,1,1,1,,,0,FALSE,,,,,,,,,,,,,,,,,,,,,,,,,,,,,,,
,61073e6d38111b5924507b77,627c6fad59bfe5359f80482d,2022-05-11_21h46.39.308,classification_task,2021.2.3,Win32,60.87168249,627c6715c52fd12f31907bd0,,,,,,,,,,,,,,,,,,,,,,,l,1,1.278,"[""0.095"",""0.268"",""0.664"",""0.061""]","[1,1,1,0]",0,45,45,45,1,1,0,,,0,FALSE,,,,,,,,,,,,,,,,,,,,,,,,,,,,,,,
,61073e6d38111b5924507b77,627c6fad59bfe5359f80482d,2022-05-11_21h46.39.308,classification_task,2021.2.3,Win32,60.87168249,627c6715c52fd12f31907bd0,,,,,,,,,,,,,,,,,,,,,,,a,0,1.0147,"[""0.095"",""0.308"",""0.664"",""0.805""]","[1,0,1,1]",0,46,46,46,1,1,0,,,0,FALSE,,,,,,,,,,,,,,,,,,,,,,,,,,,,,,,
,61073e6d38111b5924507b77,627c6fad59bfe5359f80482d,2022-05-11_21h46.39.308,classification_task,2021.2.3,Win32,60.87168249,627c6715c52fd12f31907bd0,,,,,,,,,,,,,,,,,,,,,,,a,1,0.3483,"[""0.554"",""0.379"",""0.610"",""0.960""]","[0,1,1,1]",0,47,47,47,1,0,1,,,0,FALSE,,,,,,,,,,,,,,,,,,,,,,,,,,,,,,,
,61073e6d38111b5924507b77,627c6fad59bfe5359f80482d,2022-05-11_21h46.39.308,classification_task,2021.2.3,Win32,60.87168249,627c6715c52fd12f31907bd0,,,,,,,,,,,,,,,,,,,,,,,a,1,1.1965,"[""0.225"",""0.423"",""0.770"",""0.535""]","[1,1,1,0]",0,48,48,48,1,0,0,,,0,FALSE,,,,,,,,,,,,,,,,,,,,,,,,,,,,,,,
,61073e6d38111b5924507b77,627c6fad59bfe5359f80482d,2022-05-11_21h46.39.308,classification_task,2021.2.3,Win32,60.87168249,627c6715c52fd12f31907bd0,,,,,,,,,,,,,,,,,,,,,,,l,0,1.0165,"[""0.225"",""0.423"",""0.333"",""0.900""]","[1,1,0,1]",0,49,49,49,1,0,0,,,0,FALSE,,,,,,,,,,,,,,,,,,,,,,,,,,,,,,,
,61073e6d38111b5924507b77,627c6fad59bfe5359f80482d,2022-05-11_21h46.39.308,classification_task,2021.2.3,Win32,60.87168249,627c6715c52fd12f31907bd0,,,,,,,,,,,,,,,,,,,,,,,l,0,4.3742,"[""0.862"",""0.379"",""0.610"",""0.960""]","[0,1,1,1]",0,50,50,50,1,0,1,,,0,FALSE,,,,,,,,,,,,,,,,,,,,,,,,,,,,,,,
,61073e6d38111b5924507b77,627c6fad59bfe5359f80482d,2022-05-11_21h46.39.308,classification_task,2021.2.3,Win32,60.87168249,627c6715c52fd12f31907bd0,,,,,,,,,,,,,,,,,,,,,,,l,1,3.2792,"[""0.095"",""0.856"",""0.664"",""0.805""]","[1,0,1,1]",0,51,51,51,1,1,0,,,0,FALSE,,,,,,,,,,,,,,,,,,,,,,,,,,,,,,,
,61073e6d38111b5924507b77,627c6fad59bfe5359f80482d,2022-05-11_21h46.39.308,classification_task,2021.2.3,Win32,60.87168249,627c6715c52fd12f31907bd0,,,,,,,,,,,,,,,,,,,,,,,a,1,2.1051,"[""0.188"",""0.535"",""0.610"",""0.960""]","[1,0,1,1]",0,52,52,52,1,0,1,,,0,FALSE,,,,,,,,,,,,,,,,,,,,,,,,,,,,,,,
,61073e6d38111b5924507b77,627c6fad59bfe5359f80482d,2022-05-11_21h46.39.308,classification_task,2021.2.3,Win32,60.87168249,627c6715c52fd12f31907bd0,,,,,,,,,,,,,,,,,,,,,,,l,1,1.3883,"[""0.026"",""0.134"",""0.866"",""0.707""]","[1,1,0,1]",0,53,53,53,1,1,1,,,0,FALSE,,,,,,,,,,,,,,,,,,,,,,,,,,,,,,,
,61073e6d38111b5924507b77,627c6fad59bfe5359f80482d,2022-05-11_21h46.39.308,classification_task,2021.2.3,Win32,60.87168249,627c6715c52fd12f31907bd0,,,,,,,,,,,,,,,,,,,,,,,a,1,1.3846,"[""0.188"",""0.379"",""0.610"",""0.864""]","[1,1,1,0]",0,54,54,54,1,0,1,,,0,FALSE,,,,,,,,,,,,,,,,,,,,,,,,,,,,,,,
,61073e6d38111b5924507b77,627c6fad59bfe5359f80482d,2022-05-11_21h46.39.308,classification_task,2021.2.3,Win32,60.87168249,627c6715c52fd12f31907bd0,,,,,,,,,,,,,,,,,,,,,,,l,1,0.7579,"[""0.095"",""0.268"",""0.664"",""0.333""]","[1,1,1,0]",0,55,55,55,1,1,0,,,0,FALSE,,,,,,,,,,,,,,,,,,,,,,,,,,,,,,,
,61073e6d38111b5924507b77,627c6fad59bfe5359f80482d,2022-05-11_21h46.39.308,classification_task,2021.2.3,Win32,60.87168249,627c6715c52fd12f31907bd0,,,,,,,,,,,,,,,,,,,,,,,a,1,1.2568,"[""0.225"",""0.061"",""0.770"",""0.900""]","[1,0,1,1]",0,56,56,56,1,0,0,,,0,FALSE,,,,,,,,,,,,,,,,,,,,,,,,,,,,,,,
,61073e6d38111b5924507b77,627c6fad59bfe5359f80482d,2022-05-11_21h46.39.308,classification_task,2021.2.3,Win32,60.87168249,627c6715c52fd12f31907bd0,,,,,,,,,,,,,,,,,,,,,,,l,1,1.722,"[""0.569"",""0.268"",""0.664"",""0.805""]","[0,1,1,1]",0,57,57,57,1,1,0,,,0,FALSE,,,,,,,,,,,,,,,,,,,,,,,,,,,,,,,
,61073e6d38111b5924507b77,627c6fad59bfe5359f80482d,2022-05-11_21h46.39.308,classification_task,2021.2.3,Win32,60.87168249,627c6715c52fd12f31907bd0,,,,,,,,,,,,,,,,,,,,,,,a,0,1.3981,"[""0.026"",""0.556"",""0.497"",""0.707""]","[1,0,1,1]",0,58,58,58,1,1,1,,,0,FALSE,,,,,,,,,,,,,,,,,,,,,,,,,,,,,,,
,61073e6d38111b5924507b77,627c6fad59bfe5359f80482d,2022-05-11_21h46.39.308,classification_task,2021.2.3,Win32,60.87168249,627c6715c52fd12f31907bd0,,,,,,,,,,,,,,,,,,,,,,,a,0,1.5227,"[""0.856"",""0.134"",""0.497"",""0.707""]","[0,1,1,1]",0,59,59,59,1,1,1,,,0,FALSE,,,,,,,,,,,,,,,,,,,,,,,,,,,,,,,
,61073e6d38111b5924507b77,627c6fad59bfe5359f80482d,2022-05-11_21h46.39.308,classification_task,2021.2.3,Win32,60.87168249,627c6715c52fd12f31907bd0,,,,,,,,,,,,,,,,,,,,,,,l,1,0.7595,"[""0.026"",""0.134"",""0.497"",""0.856""]","[1,1,1,0]",0,60,60,60,1,1,1,,,0,FALSE,,,,,,,,,,,,,,,,,,,,,,,,,,,,,,,
,61073e6d38111b5924507b77,627c6fad59bfe5359f80482d,2022-05-11_21h46.39.308,classification_task,2021.2.3,Win32,60.87168249,627c6715c52fd12f31907bd0,,,,,,,,,,,,,,,,,,,,,,,a,0,1.3884,"[""0.095"",""0.268"",""0.566"",""0.805""]","[1,1,0,1]",0,61,61,61,1,1,0,,,0,FALSE,,,,,,,,,,,,,,,,,,,,,,,,,,,,,,,
,61073e6d38111b5924507b77,627c6fad59bfe5359f80482d,2022-05-11_21h46.39.308,classification_task,2021.2.3,Win32,60.87168249,627c6715c52fd12f31907bd0,,,,,,,,,,,,,,,,,,,,,,,l,0,0.8078,"[""0.188"",""0.379"",""0.535"",""0.960""]","[1,1,0,1]",0,62,62,62,1,0,1,,,0,FALSE,,,,,,,,,,,,,,,,,,,,,,,,,,,,,,,
,61073e6d38111b5924507b77,627c6fad59bfe5359f80482d,2022-05-11_21h46.39.308,classification_task,2021.2.3,Win32,60.87168249,627c6715c52fd12f31907bd0,,,,,,,,,,,,,,,,,,,,,,,a,1,1.5598,"[""0.535"",""0.423"",""0.770"",""0.900""]","[0,1,1,1]",0,63,63,63,1,0,0,,,0,FALSE,,,,,,,,,,,,,,,,,,,,,,,,,,,,,,,
,61073e6d38111b5924507b77,627c6fad59bfe5359f80482d,2022-05-11_21h46.39.308,classification_task,2021.2.3,Win32,60.87168249,627c6715c52fd12f31907bd0,,,,,,,,,,,,,,,,,,,,,,,,,,,,,,,,,,,,,,,0, ,,0,4.65553351,181.2195,0,2,2,2,1,2,3,,,,,,,,,,,,,,,,,,
,61073e6d38111b5924507b77,627c6fad59bfe5359f80482d,2022-05-11_21h46.39.308,classification_task,2021.2.3,Win32,60.87168249,627c6715c52fd12f31907bd0,,,,,,,,,,,,,,,,,,,,,,,,,,,,,,,,,,,,,,,1,  ,,0,6.102292769,184.1809,0,2,2,2,1,2,3,,,,,,,,,,,,,,,,,,
,61073e6d38111b5924507b77,627c6fad59bfe5359f80482d,2022-05-11_21h46.39.308,classification_task,2021.2.3,Win32,60.87168249,627c6715c52fd12f31907bd0,,,,,,,,,,,,,,,,,,,,,,,,,,,,,,,,,,,,,,,2,  ,,0,2.657627866,187.31,0,2,2,2,1,2,3,,,,,,,,,,,,,,,,,,
,61073e6d38111b5924507b77,627c6fad59bfe5359f80482d,2022-05-11_21h46.39.308,classification_task,2021.2.3,Win32,60.87168249,627c6715c52fd12f31907bd0,,,,,,,,,,,,,,,,,,,,,,,,,,,,,,,,,,,,,,,,,,,,,0,2,2,2,1,,3,,,,,,,,,,,,,,,,,,
,61073e6d38111b5924507b77,627c6fad59bfe5359f80482d,2022-05-11_21h46.39.308,classification_task,2021.2.3,Win32,60.87168249,627c6715c52fd12f31907bd0,,,,,,,,,,,,,,,,,,,,,,,,,,,,,,,,,,,,,,,,,,,,,,,,,,,,,I believe the aid is a competent performer,,0.7,0,5,634.4828,0,0,0,0,1,0,,,,,
,61073e6d38111b5924507b77,627c6fad59bfe5359f80482d,2022-05-11_21h46.39.308,classification_task,2021.2.3,Win32,60.87168249,627c6715c52fd12f31907bd0,,,,,,,,,,,,,,,,,,,,,,,,,,,,,,,,,,,,,,,,,,,,,,,,,,,,,I trust the aid,,0.7,0,5,636.4907,0,0,0,0,1,0,,,,,
,61073e6d38111b5924507b77,627c6fad59bfe5359f80482d,2022-05-11_21h46.39.308,classification_task,2021.2.3,Win32,60.87168249,627c6715c52fd12f31907bd0,,,,,,,,,,,,,,,,,,,,,,,,,,,,,,,,,,,,,,,,,,,,,,,,,,,,,I have confidence in the advice given by the aid,,0.7,0,5,639.4599,0,0,0,0,1,0,,,,,
,61073e6d38111b5924507b77,627c6fad59bfe5359f80482d,2022-05-11_21h46.39.308,classification_task,2021.2.3,Win32,60.87168249,627c6715c52fd12f31907bd0,,,,,,,,,,,,,,,,,,,,,,,,,,,,,,,,,,,,,,,,,,,,,,,,,,,,,I can depend on the aid,,0.7,0,5,641.8248,0,0,0,0,1,0,,,,,
,61073e6d38111b5924507b77,627c6fad59bfe5359f80482d,2022-05-11_21h46.39.308,classification_task,2021.2.3,Win32,60.87168249,627c6715c52fd12f31907bd0,,,,,,,,,,,,,,,,,,,,,,,,,,,,,,,,,,,,,,,,,,,,,,,,,,,,,I can rely on the aid to behave in consistent ways,,0.7,0,5,646.3533,0,0,0,0,1,0,,,,,
,61073e6d38111b5924507b77,627c6fad59bfe5359f80482d,2022-05-11_21h46.39.308,classification_task,2021.2.3,Win32,60.87168249,627c6715c52fd12f31907bd0,,,,,,,,,,,,,,,,,,,,,,,,,,,,,,,,,,,,,,,,,,,,,,,,,,,,,I can rely on the aid to do its best every time I take its advice,,0.7,0,5,649.4818,0,0,0,0,1,0,,,,,
,61073e6d38111b5924507b77,627c6fad59bfe5359f80482d,2022-05-11_21h46.39.308,classification_task,2021.2.3,Win32,60.87168249,627c6715c52fd12f31907bd0,,,,,,,,,,,,,,,,,,,,,,,,,,,,,,,,,,,,,,,,,,,,,,,,,,,,,"On trials you completed with assistance from the aid, how frequently did you think the aid was correct?",,0.7,0,75%,,0,0,0,0,1,0,,,,,
,61073e6d38111b5924507b77,627c6fad59bfe5359f80482d,2022-05-11_21h46.39.308,classification_task,2021.2.3,Win32,60.87168249,627c6715c52fd12f31907bd0,,,,,,,,,,,,,,,,,,,,,,,,,,,,,,,,,,,,,,,,,,,,,,,,,,,,,"On trials you completed without the aid, how frequently did you think you were correct?",,0.7,0,30%,,0,0,0,0,1,0,,,,,
,61073e6d38111b5924507b77,627c6fad59bfe5359f80482d,2022-05-11_21h46.39.308,classification_task,2021.2.3,Win32,60.87168249,627c6715c52fd12f31907bd0,,,,,,,,,,,,,,,,,,,,,,,,,,,,,,,,,,,,,,,,,,,,,,,,,,,,,,,,,,,0,0,0,0,1,,,,,,
,61073e6d38111b5924507b77,627c6fad59bfe5359f80482d,2022-05-11_21h46.39.308,classification_task,2021.2.3,Win32,60.87168249,627c6715c52fd12f31907bd0,,,,,,,,,,,,,,,,,,,,,,,,,,,,,,,,,,,,,,,,,,,,,,,,,,,,,,,,,,,,,,,,,space,6.798,676.2973,,
,61073e6d38111b5924507b77,627c6fad59bfe5359f80482d,2022-05-11_21h46.39.308,classification_task,2021.2.3,Win32,60.87168249,627c6715c52fd12f31907bd0,,,,,,,,,,,,,,,,,,,,,,,,,,,,,,,,,,,,,,,,,,,,,,,,,,,,,,,,,,,,,,,,,,,,"Mozilla/5.0 (Windows NT 6.1; Win64; x64) AppleWebKit/537.36 (KHTML, like Gecko) Chrome/101.0.4951.54 Safari/537.36",
,61073e6d38111b5924507b77,627c6fad59bfe5359f80482d,2022-05-11_21h46.39.308,classification_task,2021.2.3,Win32,60.87168249,627c6715c52fd12f31907bd0,,,,,,,,,,,,,,,,,,,,,,,,,,,,,,,,,,,,,,,,,,,,,,,,,,,,,,,,,,,,,,,,,,,,,HIGHLIGHT
