usingWebGL,participant,session,date,expName,psychopyVersion,OS,frameRate,study_id,signatures_friend,signatures_foe,band_ranges_top,band_ranges_bottom,formitemText,formtype,formundefined,formitemWidth,formindex,formresponse,formrt,key_resp_2.keys,key_resp_2.rt,tute_resp.keys,tute_resp.rt,tutorial.thisRepN,tutorial.thisTrialN,tutorial.thisN,tutorial.thisIndex,tutorial.ran,key_resp_4.keys,key_resp_4.rt,key_resp.keys,key_resp.corr,key_resp.rt,lines_presented,is_signal_presented,trials.thisRepN,trials.thisTrialN,trials.thisN,trials.thisIndex,trials.ran,vessel,active_band,lines,is_signal,supported_pos,catch_trial,debrief_formindex,debrief_formitemText,debrief_formtype,debrief_formitemWidth,debrief_formresponse,debrief_formrt,phases.thisRepN,phases.thisTrialN,phases.thisN,phases.thisIndex,phases.ran,phases.order,phase,key_resp_3.keys,trustitemText,trusttype,trustitemWidth,trustindex,trustresponse,trustrt,support_status.thisRepN,support_status.thisTrialN,support_status.thisN,support_status.thisIndex,support_status.ran,support_status.order,key_resp_5.keys,key_resp_5.rt,globalClockTime,userAgent,manualCondition
TRUE,61079833b85c714f52d7b957,627c75baeeadcaf1f3da047e,2022-05-11_19h50.27.204,classification_task,2021.2.3,Win32,60.19020104,627c6715c52fd12f31907bd0,,,,,,,,,,,,,,,,,,,,,,,,,,,,,,,,,,,,,,,,,,,,,,,,,,,,,,,,,,,,,,,,,,,,,
,61079833b85c714f52d7b957,627c75baeeadcaf1f3da047e,2022-05-11_19h50.27.204,classification_task,2021.2.3,Win32,60.19020104,627c6715c52fd12f31907bd0,"[[""0.245"",""0.467"",""0.694"",""0.887""],[""0.282"",""0.515"",""0.846"",""0.933""]]","[[""0.115"",""0.316"",""0.559"",""0.798""],[""0.041"",""0.149"",""0.638"",""0.742""]]","[1,10]","[100,1000]",Video game experience,,,0.7,0,,,,,,,,,,,,,,,,,,,,,,,,,,,,,,,,,,,,,,,,,,,,,,,,,,,,,,,,,,,,
,61079833b85c714f52d7b957,627c75baeeadcaf1f3da047e,2022-05-11_19h50.27.204,classification_task,2021.2.3,Win32,60.19020104,627c6715c52fd12f31907bd0,,,,,Approximately how many hours did you spend playing video games in the last week?,,,0.7,0,10,,,,,,,,,,,,,,,,,,,,,,,,,,,,,,,,,,,,,,,,,,,,,,,,,,,,,,,,,,,
,61079833b85c714f52d7b957,627c75baeeadcaf1f3da047e,2022-05-11_19h50.27.204,classification_task,2021.2.3,Win32,60.19020104,627c6715c52fd12f31907bd0,,,,,"Which game did you play the most this year? (Enter ""None"" if you didn't play any)",,,0.7,0,Pokemon,,,,,,,,,,,,,,,,,,,,,,,,,,,,,,,,,,,,,,,,,,,,,,,,,,,,,,,,,,,
,61079833b85c714f52d7b957,627c75baeeadcaf1f3da047e,2022-05-11_19h50.27.204,classification_task,2021.2.3,Win32,60.19020104,627c6715c52fd12f31907bd0,,,,,Visual perception,,,0.7,0,,,,,,,,,,,,,,,,,,,,,,,,,,,,,,,,,,,,,,,,,,,,,,,,,,,,,,,,,,,,
,61079833b85c714f52d7b957,627c75baeeadcaf1f3da047e,2022-05-11_19h50.27.204,classification_task,2021.2.3,Win32,60.19020104,627c6715c52fd12f31907bd0,,,,,Do you have any form of color blindness?,,,0.7,0,No,16.0878,,,,,,,,,,,,,,,,,,,,,,,,,,,,,,,,,,,,,,,,,,,,,,,,,,,,,,,,,,
,61079833b85c714f52d7b957,627c75baeeadcaf1f3da047e,2022-05-11_19h50.27.204,classification_task,2021.2.3,Win32,60.19020104,627c6715c52fd12f31907bd0,,,,,Do you use software to change the colour temperature of your screen (e.g. f.lux)?,,,0.7,0,No,28.714,,,,,,,,,,,,,,,,,,,,,,,,,,,,,,,,,,,,,,,,,,,,,,,,,,,,,,,,,,
,61079833b85c714f52d7b957,627c75baeeadcaf1f3da047e,2022-05-11_19h50.27.204,classification_task,2021.2.3,Win32,60.19020104,627c6715c52fd12f31907bd0,,,,,,,,,,,,space,39.9392,space,8.7238,0,0,0,0,1,,,,,,,,,,,,,,,,,,,,,,,,,,,,,,,,,,,,,,,,,,,,,,,,,
,61079833b85c714f52d7b957,627c75baeeadcaf1f3da047e,2022-05-11_19h50.27.204,classification_task,2021.2.3,Win32,60.19020104,627c6715c52fd12f31907bd0,,,,,,,,,,,,,,space,5.8218,1,0,1,0,1,,,,,,,,,,,,,,,,,,,,,,,,,,,,,,,,,,,,,,,,,,,,,,,,,
,61079833b85c714f52d7b957,627c75baeeadcaf1f3da047e,2022-05-11_19h50.27.204,classification_task,2021.2.3,Win32,60.19020104,627c6715c52fd12f31907bd0,,,,,,,,,,,,,,space,18.9665,2,0,2,0,1,,,,,,,,,,,,,,,,,,,,,,,,,,,,,,,,,,,,,,,,,,,,,,,,,
,61079833b85c714f52d7b957,627c75baeeadcaf1f3da047e,2022-05-11_19h50.27.204,classification_task,2021.2.3,Win32,60.19020104,627c6715c52fd12f31907bd0,,,,,,,,,,,,,,space,6.3395,3,0,3,0,1,,,,,,,,,,,,,,,,,,,,,,,,,,,,,,,,,,,,,,,,,,,,,,,,,
,61079833b85c714f52d7b957,627c75baeeadcaf1f3da047e,2022-05-11_19h50.27.204,classification_task,2021.2.3,Win32,60.19020104,627c6715c52fd12f31907bd0,,,,,,,,,,,,,,space,10.641,4,0,4,0,1,,,,,,,,,,,,,,,,,,,,,,,,,,,,,,,,,,,,,,,,,,,,,,,,,
,61079833b85c714f52d7b957,627c75baeeadcaf1f3da047e,2022-05-11_19h50.27.204,classification_task,2021.2.3,Win32,60.19020104,627c6715c52fd12f31907bd0,,,,,,,,,,,,,,,,,,,,,space,17.2914,a,1,4.5695,"[""0.245"",""0.467"",""0.388"",""0.887""]","[1,1,0,1]",0,0,0,0,1,0,0,,,1,FALSE,,,,,,,,,,,,,,,,,,,,,,,,,,,,,,,
,61079833b85c714f52d7b957,627c75baeeadcaf1f3da047e,2022-05-11_19h50.27.204,classification_task,2021.2.3,Win32,60.19020104,627c6715c52fd12f31907bd0,,,,,,,,,,,,,,,,,,,,,,,l,1,3.7349,"[""0.041"",""0.149"",""0.638"",""0.369""]","[1,1,1,0]",0,1,1,1,1,1,1,,,1,FALSE,,,,,,,,,,,,,,,,,,,,,,,,,,,,,,,
,61079833b85c714f52d7b957,627c75baeeadcaf1f3da047e,2022-05-11_19h50.27.204,classification_task,2021.2.3,Win32,60.19020104,627c6715c52fd12f31907bd0,,,,,,,,,,,,,,,,,,,,,,,a,1,4.2353,"[""0.380"",""0.515"",""0.846"",""0.933""]","[0,1,1,1]",0,2,2,2,1,0,1,,,1,FALSE,,,,,,,,,,,,,,,,,,,,,,,,,,,,,,,
,61079833b85c714f52d7b957,627c75baeeadcaf1f3da047e,2022-05-11_19h50.27.204,classification_task,2021.2.3,Win32,60.19020104,627c6715c52fd12f31907bd0,,,,,,,,,,,,,,,,,,,,,,,l,0,4.5207,"[""0.201"",""0.467"",""0.694"",""0.887""]","[0,1,1,1]",0,3,3,3,1,0,0,,,1,FALSE,,,,,,,,,,,,,,,,,,,,,,,,,,,,,,,
,61079833b85c714f52d7b957,627c75baeeadcaf1f3da047e,2022-05-11_19h50.27.204,classification_task,2021.2.3,Win32,60.19020104,627c6715c52fd12f31907bd0,,,,,,,,,,,,,,,,,,,,,,,l,1,4.6511,"[""0.041"",""0.366"",""0.638"",""0.742""]","[1,0,1,1]",0,4,4,4,1,1,1,,,1,FALSE,,,,,,,,,,,,,,,,,,,,,,,,,,,,,,,
,61079833b85c714f52d7b957,627c75baeeadcaf1f3da047e,2022-05-11_19h50.27.204,classification_task,2021.2.3,Win32,60.19020104,627c6715c52fd12f31907bd0,,,,,,,,,,,,,,,,,,,,,,,l,1,5.1191,"[""0.115"",""0.316"",""0.966"",""0.798""]","[1,1,0,1]",0,5,5,5,1,1,0,,,1,FALSE,,,,,,,,,,,,,,,,,,,,,,,,,,,,,,,
,61079833b85c714f52d7b957,627c75baeeadcaf1f3da047e,2022-05-11_19h50.27.204,classification_task,2021.2.3,Win32,60.19020104,627c6715c52fd12f31907bd0,,,,,,,,,,,,,,,,,,,,,,,a,1,6.8383,"[""0.245"",""0.973"",""0.694"",""0.887""]","[1,0,1,1]",0,6,6,6,1,0,0,,,1,FALSE,,,,,,,,,,,,,,,,,,,,,,,,,,,,,,,
,61079833b85c714f52d7b957,627c75baeeadcaf1f3da047e,2022-05-11_19h50.27.204,classification_task,2021.2.3,Win32,60.19020104,627c6715c52fd12f31907bd0,,,,,,,,,,,,,,,,,,,,,,,a,1,6.6028,"[""0.282"",""0.388"",""0.846"",""0.933""]","[1,0,1,1]",0,7,7,7,1,0,1,,,1,FALSE,,,,,,,,,,,,,,,,,,,,,,,,,,,,,,,
,61079833b85c714f52d7b957,627c75baeeadcaf1f3da047e,2022-05-11_19h50.27.204,classification_task,2021.2.3,Win32,60.19020104,627c6715c52fd12f31907bd0,,,,,,,,,,,,,,,,,,,,,,,l,1,6.0526,"[""0.973"",""0.316"",""0.559"",""0.798""]","[0,1,1,1]",0,8,8,8,1,1,0,,,1,FALSE,,,,,,,,,,,,,,,,,,,,,,,,,,,,,,,
,61079833b85c714f52d7b957,627c75baeeadcaf1f3da047e,2022-05-11_19h50.27.204,classification_task,2021.2.3,Win32,60.19020104,627c6715c52fd12f31907bd0,,,,,,,,,,,,,,,,,,,,,,,l,1,6.288,"[""0.397"",""0.149"",""0.638"",""0.742""]","[0,1,1,1]",0,9,9,9,1,1,1,,,1,FALSE,,,,,,,,,,,,,,,,,,,,,,,,,,,,,,,
,61079833b85c714f52d7b957,627c75baeeadcaf1f3da047e,2022-05-11_19h50.27.204,classification_task,2021.2.3,Win32,60.19020104,627c6715c52fd12f31907bd0,,,,,,,,,,,,,,,,,,,,,,,a,1,5.0541,"[""0.282"",""0.515"",""0.846"",""0.966""]","[1,1,1,0]",0,10,10,10,1,0,1,,,1,FALSE,,,,,,,,,,,,,,,,,,,,,,,,,,,,,,,
,61079833b85c714f52d7b957,627c75baeeadcaf1f3da047e,2022-05-11_19h50.27.204,classification_task,2021.2.3,Win32,60.19020104,627c6715c52fd12f31907bd0,,,,,,,,,,,,,,,,,,,,,,,l,1,7.3876,"[""0.115"",""0.967"",""0.559"",""0.798""]","[1,0,1,1]",0,11,11,11,1,1,0,,,1,FALSE,,,,,,,,,,,,,,,,,,,,,,,,,,,,,,,
,61079833b85c714f52d7b957,627c75baeeadcaf1f3da047e,2022-05-11_19h50.27.204,classification_task,2021.2.3,Win32,60.19020104,627c6715c52fd12f31907bd0,,,,,,,,,,,,,,,,,,,,,,,l,1,5.9007,"[""0.115"",""0.316"",""0.559"",""0.973""]","[1,1,1,0]",0,12,12,12,1,1,0,,,1,FALSE,,,,,,,,,,,,,,,,,,,,,,,,,,,,,,,
,61079833b85c714f52d7b957,627c75baeeadcaf1f3da047e,2022-05-11_19h50.27.204,classification_task,2021.2.3,Win32,60.19020104,627c6715c52fd12f31907bd0,,,,,,,,,,,,,,,,,,,,,,,l,1,4.704,"[""0.041"",""0.149"",""0.374"",""0.742""]","[1,1,0,1]",0,13,13,13,1,1,1,,,1,FALSE,,,,,,,,,,,,,,,,,,,,,,,,,,,,,,,
,61079833b85c714f52d7b957,627c75baeeadcaf1f3da047e,2022-05-11_19h50.27.204,classification_task,2021.2.3,Win32,60.19020104,627c6715c52fd12f31907bd0,,,,,,,,,,,,,,,,,,,,,,,l,0,5.7204,"[""0.282"",""0.515"",""0.185"",""0.933""]","[1,1,0,1]",0,14,14,14,1,0,1,,,1,FALSE,,,,,,,,,,,,,,,,,,,,,,,,,,,,,,,
,61079833b85c714f52d7b957,627c75baeeadcaf1f3da047e,2022-05-11_19h50.27.204,classification_task,2021.2.3,Win32,60.19020104,627c6715c52fd12f31907bd0,,,,,,,,,,,,,,,,,,,,,,,l,0,7.605,"[""0.245"",""0.467"",""0.694"",""0.185""]","[1,1,1,0]",0,15,15,15,1,0,0,,,1,FALSE,,,,,,,,,,,,,,,,,,,,,,,,,,,,,,,
,61079833b85c714f52d7b957,627c75baeeadcaf1f3da047e,2022-05-11_19h50.27.204,classification_task,2021.2.3,Win32,60.19020104,627c6715c52fd12f31907bd0,,,,,,,,,,,,,,,,,,,,,,,a,1,6.7452,"[""0.282"",""0.515"",""0.201"",""0.933""]","[1,1,0,1]",0,16,16,16,1,0,1,,,1,FALSE,,,,,,,,,,,,,,,,,,,,,,,,,,,,,,,
,61079833b85c714f52d7b957,627c75baeeadcaf1f3da047e,2022-05-11_19h50.27.204,classification_task,2021.2.3,Win32,60.19020104,627c6715c52fd12f31907bd0,,,,,,,,,,,,,,,,,,,,,,,a,1,7.8007,"[""0.282"",""0.430"",""0.846"",""0.933""]","[1,0,1,1]",0,17,17,17,1,0,1,,,1,FALSE,,,,,,,,,,,,,,,,,,,,,,,,,,,,,,,
,61079833b85c714f52d7b957,627c75baeeadcaf1f3da047e,2022-05-11_19h50.27.204,classification_task,2021.2.3,Win32,60.19020104,627c6715c52fd12f31907bd0,,,,,,,,,,,,,,,,,,,,,,,a,1,5.1658,"[""0.369"",""0.515"",""0.846"",""0.933""]","[0,1,1,1]",0,18,18,18,1,0,1,,,1,FALSE,,,,,,,,,,,,,,,,,,,,,,,,,,,,,,,
,61079833b85c714f52d7b957,627c75baeeadcaf1f3da047e,2022-05-11_19h50.27.204,classification_task,2021.2.3,Win32,60.19020104,627c6715c52fd12f31907bd0,,,,,,,,,,,,,,,,,,,,,,,l,1,6.5552,"[""0.041"",""0.149"",""0.366"",""0.742""]","[1,1,0,1]",0,19,19,19,1,1,1,,,1,FALSE,,,,,,,,,,,,,,,,,,,,,,,,,,,,,,,
,61079833b85c714f52d7b957,627c75baeeadcaf1f3da047e,2022-05-11_19h50.27.204,classification_task,2021.2.3,Win32,60.19020104,627c6715c52fd12f31907bd0,,,,,,,,,,,,,,,,,,,,,,,l,1,5.1202,"[""0.041"",""0.149"",""0.638"",""0.594""]","[1,1,1,0]",0,20,20,20,1,1,1,,,1,FALSE,,,,,,,,,,,,,,,,,,,,,,,,,,,,,,,
,61079833b85c714f52d7b957,627c75baeeadcaf1f3da047e,2022-05-11_19h50.27.204,classification_task,2021.2.3,Win32,60.19020104,627c6715c52fd12f31907bd0,,,,,,,,,,,,,,,,,,,,,,,l,0,7.0563,"[""0.245"",""0.467"",""0.694"",""0.185""]","[1,1,1,0]",0,21,21,21,1,0,0,,,1,FALSE,,,,,,,,,,,,,,,,,,,,,,,,,,,,,,,
,61079833b85c714f52d7b957,627c75baeeadcaf1f3da047e,2022-05-11_19h50.27.204,classification_task,2021.2.3,Win32,60.19020104,627c6715c52fd12f31907bd0,,,,,,,,,,,,,,,,,,,,,,,a,1,6.3717,"[""0.245"",""0.467"",""0.594"",""0.887""]","[1,1,0,1]",0,22,22,22,1,0,0,,,1,FALSE,,,,,,,,,,,,,,,,,,,,,,,,,,,,,,,
,61079833b85c714f52d7b957,627c75baeeadcaf1f3da047e,2022-05-11_19h50.27.204,classification_task,2021.2.3,Win32,60.19020104,627c6715c52fd12f31907bd0,,,,,,,,,,,,,,,,,,,,,,,l,1,4.6028,"[""0.115"",""0.316"",""0.201"",""0.798""]","[1,1,0,1]",0,23,23,23,1,1,0,,,1,FALSE,,,,,,,,,,,,,,,,,,,,,,,,,,,,,,,
,61079833b85c714f52d7b957,627c75baeeadcaf1f3da047e,2022-05-11_19h50.27.204,classification_task,2021.2.3,Win32,60.19020104,627c6715c52fd12f31907bd0,,,,,,,,,,,,,,,,,,,,,,,l,1,9.8237,"[""0.041"",""0.185"",""0.638"",""0.742""]","[1,0,1,1]",0,24,24,24,1,1,1,,,1,FALSE,,,,,,,,,,,,,,,,,,,,,,,,,,,,,,,
,61079833b85c714f52d7b957,627c75baeeadcaf1f3da047e,2022-05-11_19h50.27.204,classification_task,2021.2.3,Win32,60.19020104,627c6715c52fd12f31907bd0,,,,,,,,,,,,,,,,,,,,,,,a,1,4.8033,"[""0.245"",""0.201"",""0.694"",""0.887""]","[1,0,1,1]",0,25,25,25,1,0,0,,,1,FALSE,,,,,,,,,,,,,,,,,,,,,,,,,,,,,,,
,61079833b85c714f52d7b957,627c75baeeadcaf1f3da047e,2022-05-11_19h50.27.204,classification_task,2021.2.3,Win32,60.19020104,627c6715c52fd12f31907bd0,,,,,,,,,,,,,,,,,,,,,,,l,1,5.9381,"[""0.115"",""0.316"",""0.559"",""0.388""]","[1,1,1,0]",0,26,26,26,1,1,0,,,1,FALSE,,,,,,,,,,,,,,,,,,,,,,,,,,,,,,,
,61079833b85c714f52d7b957,627c75baeeadcaf1f3da047e,2022-05-11_19h50.27.204,classification_task,2021.2.3,Win32,60.19020104,627c6715c52fd12f31907bd0,,,,,,,,,,,,,,,,,,,,,,,l,1,9.69,"[""0.430"",""0.149"",""0.638"",""0.742""]","[0,1,1,1]",0,27,27,27,1,1,1,,,1,FALSE,,,,,,,,,,,,,,,,,,,,,,,,,,,,,,,
,61079833b85c714f52d7b957,627c75baeeadcaf1f3da047e,2022-05-11_19h50.27.204,classification_task,2021.2.3,Win32,60.19020104,627c6715c52fd12f31907bd0,,,,,,,,,,,,,,,,,,,,,,,l,1,4.4029,"[""0.115"",""0.201"",""0.559"",""0.798""]","[1,0,1,1]",0,28,28,28,1,1,0,,,1,FALSE,,,,,,,,,,,,,,,,,,,,,,,,,,,,,,,
,61079833b85c714f52d7b957,627c75baeeadcaf1f3da047e,2022-05-11_19h50.27.204,classification_task,2021.2.3,Win32,60.19020104,627c6715c52fd12f31907bd0,,,,,,,,,,,,,,,,,,,,,,,a,1,7.0366,"[""0.282"",""0.515"",""0.846"",""0.397""]","[1,1,1,0]",0,29,29,29,1,0,1,,,1,FALSE,,,,,,,,,,,,,,,,,,,,,,,,,,,,,,,
,61079833b85c714f52d7b957,627c75baeeadcaf1f3da047e,2022-05-11_19h50.27.204,classification_task,2021.2.3,Win32,60.19020104,627c6715c52fd12f31907bd0,,,,,,,,,,,,,,,,,,,,,,,a,1,7.4546,"[""0.411"",""0.467"",""0.694"",""0.887""]","[0,1,1,1]",0,30,30,30,1,0,0,,,1,FALSE,,,,,,,,,,,,,,,,,,,,,,,,,,,,,,,
,61079833b85c714f52d7b957,627c75baeeadcaf1f3da047e,2022-05-11_19h50.27.204,classification_task,2021.2.3,Win32,60.19020104,627c6715c52fd12f31907bd0,,,,,,,,,,,,,,,,,,,,,,,l,1,5.5365,"[""0.594"",""0.316"",""0.559"",""0.798""]","[0,1,1,1]",0,31,31,31,1,1,0,,,1,FALSE,,,,,,,,,,,,,,,,,,,,,,,,,,,,,,,
,61079833b85c714f52d7b957,627c75baeeadcaf1f3da047e,2022-05-11_19h50.27.204,classification_task,2021.2.3,Win32,60.19020104,627c6715c52fd12f31907bd0,,,,,,,,,,,,,,,,,,,,,,,a,0,5.3021,"[""0.041"",""0.149"",""0.374"",""0.742""]","[1,1,0,1]",0,32,32,32,1,1,1,,,1,FALSE,,,,,,,,,,,,,,,,,,,,,,,,,,,,,,,
,61079833b85c714f52d7b957,627c75baeeadcaf1f3da047e,2022-05-11_19h50.27.204,classification_task,2021.2.3,Win32,60.19020104,627c6715c52fd12f31907bd0,,,,,,,,,,,,,,,,,,,,,,,a,0,6.5401,"[""0.967"",""0.316"",""0.559"",""0.798""]","[0,1,1,1]",0,33,33,33,1,1,0,,,1,FALSE,,,,,,,,,,,,,,,,,,,,,,,,,,,,,,,
,61079833b85c714f52d7b957,627c75baeeadcaf1f3da047e,2022-05-11_19h50.27.204,classification_task,2021.2.3,Win32,60.19020104,627c6715c52fd12f31907bd0,,,,,,,,,,,,,,,,,,,,,,,l,1,2.8019,"[""0.115"",""0.316"",""0.559"",""0.397""]","[1,1,1,0]",0,34,34,34,1,1,0,,,1,FALSE,,,,,,,,,,,,,,,,,,,,,,,,,,,,,,,
,61079833b85c714f52d7b957,627c75baeeadcaf1f3da047e,2022-05-11_19h50.27.204,classification_task,2021.2.3,Win32,60.19020104,627c6715c52fd12f31907bd0,,,,,,,,,,,,,,,,,,,,,,,l,1,2.3848,"[""0.115"",""0.430"",""0.559"",""0.798""]","[1,0,1,1]",0,35,35,35,1,1,0,,,1,FALSE,,,,,,,,,,,,,,,,,,,,,,,,,,,,,,,
,61079833b85c714f52d7b957,627c75baeeadcaf1f3da047e,2022-05-11_19h50.27.204,classification_task,2021.2.3,Win32,60.19020104,627c6715c52fd12f31907bd0,,,,,,,,,,,,,,,,,,,,,,,a,1,4.4878,"[""0.245"",""0.467"",""0.694"",""0.366""]","[1,1,1,0]",0,36,36,36,1,0,0,,,1,FALSE,,,,,,,,,,,,,,,,,,,,,,,,,,,,,,,
,61079833b85c714f52d7b957,627c75baeeadcaf1f3da047e,2022-05-11_19h50.27.204,classification_task,2021.2.3,Win32,60.19020104,627c6715c52fd12f31907bd0,,,,,,,,,,,,,,,,,,,,,,,a,1,2.7519,"[""0.374"",""0.467"",""0.694"",""0.887""]","[0,1,1,1]",0,37,37,37,1,0,0,,,1,FALSE,,,,,,,,,,,,,,,,,,,,,,,,,,,,,,,
,61079833b85c714f52d7b957,627c75baeeadcaf1f3da047e,2022-05-11_19h50.27.204,classification_task,2021.2.3,Win32,60.19020104,627c6715c52fd12f31907bd0,,,,,,,,,,,,,,,,,,,,,,,a,1,2.9199,"[""0.245"",""0.467"",""0.973"",""0.887""]","[1,1,0,1]",0,38,38,38,1,0,0,,,1,FALSE,,,,,,,,,,,,,,,,,,,,,,,,,,,,,,,
,61079833b85c714f52d7b957,627c75baeeadcaf1f3da047e,2022-05-11_19h50.27.204,classification_task,2021.2.3,Win32,60.19020104,627c6715c52fd12f31907bd0,,,,,,,,,,,,,,,,,,,,,,,a,1,2.6018,"[""0.966"",""0.515"",""0.846"",""0.933""]","[0,1,1,1]",0,39,39,39,1,0,1,,,1,FALSE,,,,,,,,,,,,,,,,,,,,,,,,,,,,,,,
,61079833b85c714f52d7b957,627c75baeeadcaf1f3da047e,2022-05-11_19h50.27.204,classification_task,2021.2.3,Win32,60.19020104,627c6715c52fd12f31907bd0,,,,,,,,,,,,,,,,,,,,,,,a,1,2.2523,"[""0.282"",""0.515"",""0.846"",""0.967""]","[1,1,1,0]",0,40,40,40,1,0,1,,,1,FALSE,,,,,,,,,,,,,,,,,,,,,,,,,,,,,,,
,61079833b85c714f52d7b957,627c75baeeadcaf1f3da047e,2022-05-11_19h50.27.204,classification_task,2021.2.3,Win32,60.19020104,627c6715c52fd12f31907bd0,,,,,,,,,,,,,,,,,,,,,,,a,1,2.0692,"[""0.282"",""0.201"",""0.846"",""0.933""]","[1,0,1,1]",0,41,41,41,1,0,1,,,1,FALSE,,,,,,,,,,,,,,,,,,,,,,,,,,,,,,,
,61079833b85c714f52d7b957,627c75baeeadcaf1f3da047e,2022-05-11_19h50.27.204,classification_task,2021.2.3,Win32,60.19020104,627c6715c52fd12f31907bd0,,,,,,,,,,,,,,,,,,,,,,,a,0,2.5865,"[""0.041"",""0.149"",""0.638"",""0.973""]","[1,1,1,0]",0,42,42,42,1,1,1,,,1,FALSE,,,,,,,,,,,,,,,,,,,,,,,,,,,,,,,
,61079833b85c714f52d7b957,627c75baeeadcaf1f3da047e,2022-05-11_19h50.27.204,classification_task,2021.2.3,Win32,60.19020104,627c6715c52fd12f31907bd0,,,,,,,,,,,,,,,,,,,,,,,a,1,1.784,"[""0.282"",""0.515"",""0.185"",""0.933""]","[1,1,0,1]",0,43,43,43,1,0,1,,,1,FALSE,,,,,,,,,,,,,,,,,,,,,,,,,,,,,,,
,61079833b85c714f52d7b957,627c75baeeadcaf1f3da047e,2022-05-11_19h50.27.204,classification_task,2021.2.3,Win32,60.19020104,627c6715c52fd12f31907bd0,,,,,,,,,,,,,,,,,,,,,,,a,0,3.9951,"[""0.374"",""0.149"",""0.638"",""0.742""]","[0,1,1,1]",0,44,44,44,1,1,1,,,1,FALSE,,,,,,,,,,,,,,,,,,,,,,,,,,,,,,,
,61079833b85c714f52d7b957,627c75baeeadcaf1f3da047e,2022-05-11_19h50.27.204,classification_task,2021.2.3,Win32,60.19020104,627c6715c52fd12f31907bd0,,,,,,,,,,,,,,,,,,,,,,,l,0,3.3505,"[""0.245"",""0.201"",""0.694"",""0.887""]","[1,0,1,1]",0,45,45,45,1,0,0,,,1,FALSE,,,,,,,,,,,,,,,,,,,,,,,,,,,,,,,
,61079833b85c714f52d7b957,627c75baeeadcaf1f3da047e,2022-05-11_19h50.27.204,classification_task,2021.2.3,Win32,60.19020104,627c6715c52fd12f31907bd0,,,,,,,,,,,,,,,,,,,,,,,l,1,2.8027,"[""0.115"",""0.316"",""0.973"",""0.798""]","[1,1,0,1]",0,46,46,46,1,1,0,,,1,FALSE,,,,,,,,,,,,,,,,,,,,,,,,,,,,,,,
,61079833b85c714f52d7b957,627c75baeeadcaf1f3da047e,2022-05-11_19h50.27.204,classification_task,2021.2.3,Win32,60.19020104,627c6715c52fd12f31907bd0,,,,,,,,,,,,,,,,,,,,,,,l,1,2.5349,"[""0.041"",""0.397"",""0.638"",""0.742""]","[1,0,1,1]",0,47,47,47,1,1,1,,,1,FALSE,,,,,,,,,,,,,,,,,,,,,,,,,,,,,,,
,61079833b85c714f52d7b957,627c75baeeadcaf1f3da047e,2022-05-11_19h50.27.204,classification_task,2021.2.3,Win32,60.19020104,627c6715c52fd12f31907bd0,,,,,,,,,,,,,,,,,,,,,,,a,1,1.7532,"[""0.245"",""0.467"",""0.694"",""0.973""]","[1,1,1,0]",0,48,48,48,1,0,0,,,1,FALSE,,,,,,,,,,,,,,,,,,,,,,,,,,,,,,,
,61079833b85c714f52d7b957,627c75baeeadcaf1f3da047e,2022-05-11_19h50.27.204,classification_task,2021.2.3,Win32,60.19020104,627c6715c52fd12f31907bd0,,,,,,,,,,,,,,,,,,,,,,,a,1,2.839,"[""0.245"",""0.380"",""0.694"",""0.887""]","[1,0,1,1]",0,49,49,49,1,0,0,,,1,FALSE,,,,,,,,,,,,,,,,,,,,,,,,,,,,,,,
,61079833b85c714f52d7b957,627c75baeeadcaf1f3da047e,2022-05-11_19h50.27.204,classification_task,2021.2.3,Win32,60.19020104,627c6715c52fd12f31907bd0,,,,,,,,,,,,,,,,,,,,,,,l,1,1.9192,"[""0.041"",""0.149"",""0.638"",""0.388""]","[1,1,1,0]",0,50,50,50,1,1,1,,,1,FALSE,,,,,,,,,,,,,,,,,,,,,,,,,,,,,,,
,61079833b85c714f52d7b957,627c75baeeadcaf1f3da047e,2022-05-11_19h50.27.204,classification_task,2021.2.3,Win32,60.19020104,627c6715c52fd12f31907bd0,,,,,,,,,,,,,,,,,,,,,,,a,1,2.0519,"[""0.282"",""0.369"",""0.846"",""0.933""]","[1,0,1,1]",0,51,51,51,1,0,1,,,1,FALSE,,,,,,,,,,,,,,,,,,,,,,,,,,,,,,,
,61079833b85c714f52d7b957,627c75baeeadcaf1f3da047e,2022-05-11_19h50.27.204,classification_task,2021.2.3,Win32,60.19020104,627c6715c52fd12f31907bd0,,,,,,,,,,,,,,,,,,,,,,,l,1,1.6343,"[""0.115"",""0.397"",""0.559"",""0.798""]","[1,0,1,1]",0,52,52,52,1,1,0,,,1,FALSE,,,,,,,,,,,,,,,,,,,,,,,,,,,,,,,
,61079833b85c714f52d7b957,627c75baeeadcaf1f3da047e,2022-05-11_19h50.27.204,classification_task,2021.2.3,Win32,60.19020104,627c6715c52fd12f31907bd0,,,,,,,,,,,,,,,,,,,,,,,a,1,1.935,"[""0.282"",""0.515"",""0.846"",""0.185""]","[1,1,1,0]",0,53,53,53,1,0,1,,,1,FALSE,,,,,,,,,,,,,,,,,,,,,,,,,,,,,,,
,61079833b85c714f52d7b957,627c75baeeadcaf1f3da047e,2022-05-11_19h50.27.204,classification_task,2021.2.3,Win32,60.19020104,627c6715c52fd12f31907bd0,,,,,,,,,,,,,,,,,,,,,,,a,1,2.2175,"[""0.245"",""0.467"",""0.411"",""0.887""]","[1,1,0,1]",0,54,54,54,1,0,0,,,1,FALSE,,,,,,,,,,,,,,,,,,,,,,,,,,,,,,,
,61079833b85c714f52d7b957,627c75baeeadcaf1f3da047e,2022-05-11_19h50.27.204,classification_task,2021.2.3,Win32,60.19020104,627c6715c52fd12f31907bd0,,,,,,,,,,,,,,,,,,,,,,,l,1,1.7992,"[""0.041"",""0.411"",""0.638"",""0.742""]","[1,0,1,1]",0,55,55,55,1,1,1,,,1,FALSE,,,,,,,,,,,,,,,,,,,,,,,,,,,,,,,
,61079833b85c714f52d7b957,627c75baeeadcaf1f3da047e,2022-05-11_19h50.27.204,classification_task,2021.2.3,Win32,60.19020104,627c6715c52fd12f31907bd0,,,,,,,,,,,,,,,,,,,,,,,a,1,1.5173,"[""0.282"",""0.515"",""0.430"",""0.933""]","[1,1,0,1]",0,56,56,56,1,0,1,,,1,FALSE,,,,,,,,,,,,,,,,,,,,,,,,,,,,,,,
,61079833b85c714f52d7b957,627c75baeeadcaf1f3da047e,2022-05-11_19h50.27.204,classification_task,2021.2.3,Win32,60.19020104,627c6715c52fd12f31907bd0,,,,,,,,,,,,,,,,,,,,,,,l,1,1.7004,"[""0.115"",""0.316"",""0.430"",""0.798""]","[1,1,0,1]",0,57,57,57,1,1,0,,,1,FALSE,,,,,,,,,,,,,,,,,,,,,,,,,,,,,,,
,61079833b85c714f52d7b957,627c75baeeadcaf1f3da047e,2022-05-11_19h50.27.204,classification_task,2021.2.3,Win32,60.19020104,627c6715c52fd12f31907bd0,,,,,,,,,,,,,,,,,,,,,,,l,1,1.7012,"[""0.115"",""0.316"",""0.559"",""0.187""]","[1,1,1,0]",0,58,58,58,1,1,0,,,1,FALSE,,,,,,,,,,,,,,,,,,,,,,,,,,,,,,,
,61079833b85c714f52d7b957,627c75baeeadcaf1f3da047e,2022-05-11_19h50.27.204,classification_task,2021.2.3,Win32,60.19020104,627c6715c52fd12f31907bd0,,,,,,,,,,,,,,,,,,,,,,,l,1,1.5845,"[""0.041"",""0.149"",""0.397"",""0.742""]","[1,1,0,1]",0,59,59,59,1,1,1,,,1,FALSE,,,,,,,,,,,,,,,,,,,,,,,,,,,,,,,
,61079833b85c714f52d7b957,627c75baeeadcaf1f3da047e,2022-05-11_19h50.27.204,classification_task,2021.2.3,Win32,60.19020104,627c6715c52fd12f31907bd0,,,,,,,,,,,,,,,,,,,,,,,a,0,1.385,"[""0.388"",""0.149"",""0.638"",""0.742""]","[0,1,1,1]",0,60,60,60,1,1,1,,,1,FALSE,,,,,,,,,,,,,,,,,,,,,,,,,,,,,,,
,61079833b85c714f52d7b957,627c75baeeadcaf1f3da047e,2022-05-11_19h50.27.204,classification_task,2021.2.3,Win32,60.19020104,627c6715c52fd12f31907bd0,,,,,,,,,,,,,,,,,,,,,,,l,1,1.5339,"[""0.594"",""0.316"",""0.559"",""0.798""]","[0,1,1,1]",0,61,61,61,1,1,0,,,1,FALSE,,,,,,,,,,,,,,,,,,,,,,,,,,,,,,,
,61079833b85c714f52d7b957,627c75baeeadcaf1f3da047e,2022-05-11_19h50.27.204,classification_task,2021.2.3,Win32,60.19020104,627c6715c52fd12f31907bd0,,,,,,,,,,,,,,,,,,,,,,,l,0,1.4164,"[""0.973"",""0.515"",""0.846"",""0.933""]","[0,1,1,1]",0,62,62,62,1,0,1,,,1,FALSE,,,,,,,,,,,,,,,,,,,,,,,,,,,,,,,
,61079833b85c714f52d7b957,627c75baeeadcaf1f3da047e,2022-05-11_19h50.27.204,classification_task,2021.2.3,Win32,60.19020104,627c6715c52fd12f31907bd0,,,,,,,,,,,,,,,,,,,,,,,a,1,2.0959,"[""0.411"",""0.467"",""0.694"",""0.887""]","[0,1,1,1]",0,63,63,63,1,0,0,,,1,FALSE,,,,,,,,,,,,,,,,,,,,,,,,,,,,,,,
,61079833b85c714f52d7b957,627c75baeeadcaf1f3da047e,2022-05-11_19h50.27.204,classification_task,2021.2.3,Win32,60.19020104,627c6715c52fd12f31907bd0,,,,,,,,,,,,,,,,,,,,,,,,,,,,,,,,,,,,,,,0, ,,0,0,490.7811,0,0,0,0,1,2,1,,,,,,,,,,,,,,,,,,
,61079833b85c714f52d7b957,627c75baeeadcaf1f3da047e,2022-05-11_19h50.27.204,classification_task,2021.2.3,Win32,60.19020104,627c6715c52fd12f31907bd0,,,,,,,,,,,,,,,,,,,,,,,,,,,,,,,,,,,,,,,1,  ,,0,8.350971363,495.5676,0,0,0,0,1,2,1,,,,,,,,,,,,,,,,,,
,61079833b85c714f52d7b957,627c75baeeadcaf1f3da047e,2022-05-11_19h50.27.204,classification_task,2021.2.3,Win32,60.19020104,627c6715c52fd12f31907bd0,,,,,,,,,,,,,,,,,,,,,,,,,,,,,,,,,,,,,,,2,  ,,0,2.178131184,502.31,0,0,0,0,1,2,1,,,,,,,,,,,,,,,,,,
,61079833b85c714f52d7b957,627c75baeeadcaf1f3da047e,2022-05-11_19h50.27.204,classification_task,2021.2.3,Win32,60.19020104,627c6715c52fd12f31907bd0,,,,,,,,,,,,,,,,,,,,,,,,,,,,,,,,,,,,,,,,,,,,,0,0,0,0,1,,1,,,,,,,,,,,,,,,,,,
,61079833b85c714f52d7b957,627c75baeeadcaf1f3da047e,2022-05-11_19h50.27.204,classification_task,2021.2.3,Win32,60.19020104,627c6715c52fd12f31907bd0,,,,,,,,,,,,,,,,,,,,,space,11.4643,l,0,4.4985,"[""0.282"",""0.515"",""0.973"",""0.933""]","[1,1,0,1]",0,0,0,0,1,0,1,,,1,FALSE,,,,,,,,,,,,,,,,,,,,,,,,,,,,,,,
,61079833b85c714f52d7b957,627c75baeeadcaf1f3da047e,2022-05-11_19h50.27.204,classification_task,2021.2.3,Win32,60.19020104,627c6715c52fd12f31907bd0,,,,,,,,,,,,,,,,,,,,,,,a,1,2.117,"[""0.245"",""0.467"",""0.694"",""0.973""]","[1,1,1,0]",0,1,1,1,1,0,0,,,1,FALSE,,,,,,,,,,,,,,,,,,,,,,,,,,,,,,,
,61079833b85c714f52d7b957,627c75baeeadcaf1f3da047e,2022-05-11_19h50.27.204,classification_task,2021.2.3,Win32,60.19020104,627c6715c52fd12f31907bd0,,,,,,,,,,,,,,,,,,,,,,,l,1,2.1865,"[""0.115"",""0.374"",""0.559"",""0.798""]","[1,0,1,1]",0,2,2,2,1,1,0,,,1,FALSE,,,,,,,,,,,,,,,,,,,,,,,,,,,,,,,
,61079833b85c714f52d7b957,627c75baeeadcaf1f3da047e,2022-05-11_19h50.27.204,classification_task,2021.2.3,Win32,60.19020104,627c6715c52fd12f31907bd0,,,,,,,,,,,,,,,,,,,,,,,l,1,3.485,"[""0.041"",""0.149"",""0.966"",""0.742""]","[1,1,0,1]",0,3,3,3,1,1,1,,,1,FALSE,,,,,,,,,,,,,,,,,,,,,,,,,,,,,,,
,61079833b85c714f52d7b957,627c75baeeadcaf1f3da047e,2022-05-11_19h50.27.204,classification_task,2021.2.3,Win32,60.19020104,627c6715c52fd12f31907bd0,,,,,,,,,,,,,,,,,,,,,,,a,0,3.1536,"[""0.041"",""0.185"",""0.638"",""0.742""]","[1,0,1,1]",0,4,4,4,1,1,1,,,1,FALSE,,,,,,,,,,,,,,,,,,,,,,,,,,,,,,,
,61079833b85c714f52d7b957,627c75baeeadcaf1f3da047e,2022-05-11_19h50.27.204,classification_task,2021.2.3,Win32,60.19020104,627c6715c52fd12f31907bd0,,,,,,,,,,,,,,,,,,,,,,,l,1,2.702,"[""0.115"",""0.316"",""0.973"",""0.798""]","[1,1,0,1]",0,5,5,5,1,1,0,,,1,FALSE,,,,,,,,,,,,,,,,,,,,,,,,,,,,,,,
,61079833b85c714f52d7b957,627c75baeeadcaf1f3da047e,2022-05-11_19h50.27.204,classification_task,2021.2.3,Win32,60.19020104,627c6715c52fd12f31907bd0,,,,,,,,,,,,,,,,,,,,,,,l,1,2.3023,"[""0.973"",""0.316"",""0.559"",""0.798""]","[0,1,1,1]",0,6,6,6,1,1,0,,,1,FALSE,,,,,,,,,,,,,,,,,,,,,,,,,,,,,,,
,61079833b85c714f52d7b957,627c75baeeadcaf1f3da047e,2022-05-11_19h50.27.204,classification_task,2021.2.3,Win32,60.19020104,627c6715c52fd12f31907bd0,,,,,,,,,,,,,,,,,,,,,,,l,0,3.354,"[""0.282"",""0.973"",""0.846"",""0.933""]","[1,0,1,1]",0,7,7,7,1,0,1,,,1,FALSE,,,,,,,,,,,,,,,,,,,,,,,,,,,,,,,
,61079833b85c714f52d7b957,627c75baeeadcaf1f3da047e,2022-05-11_19h50.27.204,classification_task,2021.2.3,Win32,60.19020104,627c6715c52fd12f31907bd0,,,,,,,,,,,,,,,,,,,,,,,l,0,1.8526,"[""0.245"",""0.366"",""0.694"",""0.887""]","[1,0,1,1]",0,8,8,8,1,0,0,,,1,FALSE,,,,,,,,,,,,,,,,,,,,,,,,,,,,,,,
,61079833b85c714f52d7b957,627c75baeeadcaf1f3da047e,2022-05-11_19h50.27.204,classification_task,2021.2.3,Win32,60.19020104,627c6715c52fd12f31907bd0,,,,,,,,,,,,,,,,,,,,,,,a,1,1.4337,"[""0.282"",""0.515"",""0.846"",""0.973""]","[1,1,1,0]",0,9,9,9,1,0,1,,,1,FALSE,,,,,,,,,,,,,,,,,,,,,,,,,,,,,,,
,61079833b85c714f52d7b957,627c75baeeadcaf1f3da047e,2022-05-11_19h50.27.204,classification_task,2021.2.3,Win32,60.19020104,627c6715c52fd12f31907bd0,,,,,,,,,,,,,,,,,,,,,,,l,1,2.9111,"[""0.041"",""0.149"",""0.638"",""0.973""]","[1,1,1,0]",0,10,10,10,1,1,1,,,1,FALSE,,,,,,,,,,,,,,,,,,,,,,,,,,,,,,,
,61079833b85c714f52d7b957,627c75baeeadcaf1f3da047e,2022-05-11_19h50.27.204,classification_task,2021.2.3,Win32,60.19020104,627c6715c52fd12f31907bd0,,,,,,,,,,,,,,,,,,,,,,,l,1,3.1194,"[""0.115"",""0.316"",""0.559"",""0.369""]","[1,1,1,0]",0,11,11,11,1,1,0,,,1,FALSE,,,,,,,,,,,,,,,,,,,,,,,,,,,,,,,
,61079833b85c714f52d7b957,627c75baeeadcaf1f3da047e,2022-05-11_19h50.27.204,classification_task,2021.2.3,Win32,60.19020104,627c6715c52fd12f31907bd0,,,,,,,,,,,,,,,,,,,,,,,l,0,2.4492,"[""0.185"",""0.467"",""0.694"",""0.887""]","[0,1,1,1]",0,12,12,12,1,0,0,,,1,FALSE,,,,,,,,,,,,,,,,,,,,,,,,,,,,,,,
,61079833b85c714f52d7b957,627c75baeeadcaf1f3da047e,2022-05-11_19h50.27.204,classification_task,2021.2.3,Win32,60.19020104,627c6715c52fd12f31907bd0,,,,,,,,,,,,,,,,,,,,,,,l,0,2.6457,"[""0.245"",""0.467"",""0.185"",""0.887""]","[1,1,0,1]",0,13,13,13,1,0,0,,,1,FALSE,,,,,,,,,,,,,,,,,,,,,,,,,,,,,,,
,61079833b85c714f52d7b957,627c75baeeadcaf1f3da047e,2022-05-11_19h50.27.204,classification_task,2021.2.3,Win32,60.19020104,627c6715c52fd12f31907bd0,,,,,,,,,,,,,,,,,,,,,,,a,0,4.0527,"[""0.411"",""0.149"",""0.638"",""0.742""]","[0,1,1,1]",0,14,14,14,1,1,1,,,1,FALSE,,,,,,,,,,,,,,,,,,,,,,,,,,,,,,,
,61079833b85c714f52d7b957,627c75baeeadcaf1f3da047e,2022-05-11_19h50.27.204,classification_task,2021.2.3,Win32,60.19020104,627c6715c52fd12f31907bd0,,,,,,,,,,,,,,,,,,,,,,,l,0,3.6368,"[""0.594"",""0.515"",""0.846"",""0.933""]","[0,1,1,1]",0,15,15,15,1,0,1,,,1,FALSE,,,,,,,,,,,,,,,,,,,,,,,,,,,,,,,
,61079833b85c714f52d7b957,627c75baeeadcaf1f3da047e,2022-05-11_19h50.27.204,classification_task,2021.2.3,Win32,60.19020104,627c6715c52fd12f31907bd0,,,,,,,,,,,,,,,,,,,,,,,a,0,2.8523,"[""0.115"",""0.316"",""0.369"",""0.798""]","[1,1,0,1]",0,16,16,16,1,1,0,,,1,FALSE,,,,,,,,,,,,,,,,,,,,,,,,,,,,,,,
,61079833b85c714f52d7b957,627c75baeeadcaf1f3da047e,2022-05-11_19h50.27.204,classification_task,2021.2.3,Win32,60.19020104,627c6715c52fd12f31907bd0,,,,,,,,,,,,,,,,,,,,,,,l,1,2.4023,"[""0.201"",""0.316"",""0.559"",""0.798""]","[0,1,1,1]",0,17,17,17,1,1,0,,,1,FALSE,,,,,,,,,,,,,,,,,,,,,,,,,,,,,,,
,61079833b85c714f52d7b957,627c75baeeadcaf1f3da047e,2022-05-11_19h50.27.204,classification_task,2021.2.3,Win32,60.19020104,627c6715c52fd12f31907bd0,,,,,,,,,,,,,,,,,,,,,,,l,1,2.3475,"[""0.115"",""0.973"",""0.559"",""0.798""]","[1,0,1,1]",0,18,18,18,1,1,0,,,1,FALSE,,,,,,,,,,,,,,,,,,,,,,,,,,,,,,,
,61079833b85c714f52d7b957,627c75baeeadcaf1f3da047e,2022-05-11_19h50.27.204,classification_task,2021.2.3,Win32,60.19020104,627c6715c52fd12f31907bd0,,,,,,,,,,,,,,,,,,,,,,,a,1,1.9104,"[""0.374"",""0.467"",""0.694"",""0.887""]","[0,1,1,1]",0,19,19,19,1,0,0,,,1,FALSE,,,,,,,,,,,,,,,,,,,,,,,,,,,,,,,
,61079833b85c714f52d7b957,627c75baeeadcaf1f3da047e,2022-05-11_19h50.27.204,classification_task,2021.2.3,Win32,60.19020104,627c6715c52fd12f31907bd0,,,,,,,,,,,,,,,,,,,,,,,a,1,4.4542,"[""0.282"",""0.594"",""0.846"",""0.933""]","[1,0,1,1]",0,20,20,20,1,0,1,,,1,FALSE,,,,,,,,,,,,,,,,,,,,,,,,,,,,,,,
,61079833b85c714f52d7b957,627c75baeeadcaf1f3da047e,2022-05-11_19h50.27.204,classification_task,2021.2.3,Win32,60.19020104,627c6715c52fd12f31907bd0,,,,,,,,,,,,,,,,,,,,,,,a,1,1.7017,"[""0.282"",""0.515"",""0.846"",""0.187""]","[1,1,1,0]",0,21,21,21,1,0,1,,,1,FALSE,,,,,,,,,,,,,,,,,,,,,,,,,,,,,,,
,61079833b85c714f52d7b957,627c75baeeadcaf1f3da047e,2022-05-11_19h50.27.204,classification_task,2021.2.3,Win32,60.19020104,627c6715c52fd12f31907bd0,,,,,,,,,,,,,,,,,,,,,,,a,1,1.4817,"[""0.282"",""0.515"",""0.380"",""0.933""]","[1,1,0,1]",0,22,22,22,1,0,1,,,1,FALSE,,,,,,,,,,,,,,,,,,,,,,,,,,,,,,,
,61079833b85c714f52d7b957,627c75baeeadcaf1f3da047e,2022-05-11_19h50.27.204,classification_task,2021.2.3,Win32,60.19020104,627c6715c52fd12f31907bd0,,,,,,,,,,,,,,,,,,,,,,,l,1,3.7945,"[""0.041"",""0.411"",""0.638"",""0.742""]","[1,0,1,1]",0,23,23,23,1,1,1,,,1,FALSE,,,,,,,,,,,,,,,,,,,,,,,,,,,,,,,
,61079833b85c714f52d7b957,627c75baeeadcaf1f3da047e,2022-05-11_19h50.27.204,classification_task,2021.2.3,Win32,60.19020104,627c6715c52fd12f31907bd0,,,,,,,,,,,,,,,,,,,,,,,l,0,2.017,"[""0.245"",""0.467"",""0.973"",""0.887""]","[1,1,0,1]",0,24,24,24,1,0,0,,,1,FALSE,,,,,,,,,,,,,,,,,,,,,,,,,,,,,,,
,61079833b85c714f52d7b957,627c75baeeadcaf1f3da047e,2022-05-11_19h50.27.204,classification_task,2021.2.3,Win32,60.19020104,627c6715c52fd12f31907bd0,,,,,,,,,,,,,,,,,,,,,,,l,1,3.1975,"[""0.041"",""0.149"",""0.187"",""0.742""]","[1,1,0,1]",0,25,25,25,1,1,1,,,1,FALSE,,,,,,,,,,,,,,,,,,,,,,,,,,,,,,,
,61079833b85c714f52d7b957,627c75baeeadcaf1f3da047e,2022-05-11_19h50.27.204,classification_task,2021.2.3,Win32,60.19020104,627c6715c52fd12f31907bd0,,,,,,,,,,,,,,,,,,,,,,,l,0,2.1355,"[""0.245"",""0.967"",""0.694"",""0.887""]","[1,0,1,1]",0,26,26,26,1,0,0,,,1,FALSE,,,,,,,,,,,,,,,,,,,,,,,,,,,,,,,
,61079833b85c714f52d7b957,627c75baeeadcaf1f3da047e,2022-05-11_19h50.27.204,classification_task,2021.2.3,Win32,60.19020104,627c6715c52fd12f31907bd0,,,,,,,,,,,,,,,,,,,,,,,a,0,5.2874,"[""0.966"",""0.149"",""0.638"",""0.742""]","[0,1,1,1]",0,27,27,27,1,1,1,,,1,FALSE,,,,,,,,,,,,,,,,,,,,,,,,,,,,,,,
,61079833b85c714f52d7b957,627c75baeeadcaf1f3da047e,2022-05-11_19h50.27.204,classification_task,2021.2.3,Win32,60.19020104,627c6715c52fd12f31907bd0,,,,,,,,,,,,,,,,,,,,,,,l,1,1.3688,"[""0.041"",""0.149"",""0.638"",""0.973""]","[1,1,1,0]",0,28,28,28,1,1,1,,,1,FALSE,,,,,,,,,,,,,,,,,,,,,,,,,,,,,,,
,61079833b85c714f52d7b957,627c75baeeadcaf1f3da047e,2022-05-11_19h50.27.204,classification_task,2021.2.3,Win32,60.19020104,627c6715c52fd12f31907bd0,,,,,,,,,,,,,,,,,,,,,,,l,1,2.1035,"[""0.115"",""0.316"",""0.559"",""0.430""]","[1,1,1,0]",0,29,29,29,1,1,0,,,1,FALSE,,,,,,,,,,,,,,,,,,,,,,,,,,,,,,,
,61079833b85c714f52d7b957,627c75baeeadcaf1f3da047e,2022-05-11_19h50.27.204,classification_task,2021.2.3,Win32,60.19020104,627c6715c52fd12f31907bd0,,,,,,,,,,,,,,,,,,,,,,,l,0,4.487,"[""0.594"",""0.515"",""0.846"",""0.933""]","[0,1,1,1]",0,30,30,30,1,0,1,,,1,FALSE,,,,,,,,,,,,,,,,,,,,,,,,,,,,,,,
,61079833b85c714f52d7b957,627c75baeeadcaf1f3da047e,2022-05-11_19h50.27.204,classification_task,2021.2.3,Win32,60.19020104,627c6715c52fd12f31907bd0,,,,,,,,,,,,,,,,,,,,,,,a,1,2.8526,"[""0.245"",""0.467"",""0.694"",""0.187""]","[1,1,1,0]",0,31,31,31,1,0,0,,,1,FALSE,,,,,,,,,,,,,,,,,,,,,,,,,,,,,,,
,61079833b85c714f52d7b957,627c75baeeadcaf1f3da047e,2022-05-11_19h50.27.204,classification_task,2021.2.3,Win32,60.19020104,627c6715c52fd12f31907bd0,,,,,,,,,,,,,,,,,,,,,,,a,0,3.7524,"[""0.115"",""0.369"",""0.559"",""0.798""]","[1,0,1,1]",0,32,32,32,1,1,0,,,1,FALSE,,,,,,,,,,,,,,,,,,,,,,,,,,,,,,,
,61079833b85c714f52d7b957,627c75baeeadcaf1f3da047e,2022-05-11_19h50.27.204,classification_task,2021.2.3,Win32,60.19020104,627c6715c52fd12f31907bd0,,,,,,,,,,,,,,,,,,,,,,,a,1,2.1189,"[""0.374"",""0.467"",""0.694"",""0.887""]","[0,1,1,1]",0,33,33,33,1,0,0,,,1,FALSE,,,,,,,,,,,,,,,,,,,,,,,,,,,,,,,
,61079833b85c714f52d7b957,627c75baeeadcaf1f3da047e,2022-05-11_19h50.27.204,classification_task,2021.2.3,Win32,60.19020104,627c6715c52fd12f31907bd0,,,,,,,,,,,,,,,,,,,,,,,l,1,1.0673,"[""0.115"",""0.316"",""0.559"",""0.187""]","[1,1,1,0]",0,34,34,34,1,1,0,,,1,FALSE,,,,,,,,,,,,,,,,,,,,,,,,,,,,,,,
,61079833b85c714f52d7b957,627c75baeeadcaf1f3da047e,2022-05-11_19h50.27.204,classification_task,2021.2.3,Win32,60.19020104,627c6715c52fd12f31907bd0,,,,,,,,,,,,,,,,,,,,,,,a,0,2.3182,"[""0.041"",""0.149"",""0.638"",""0.397""]","[1,1,1,0]",0,35,35,35,1,1,1,,,1,FALSE,,,,,,,,,,,,,,,,,,,,,,,,,,,,,,,
,61079833b85c714f52d7b957,627c75baeeadcaf1f3da047e,2022-05-11_19h50.27.204,classification_task,2021.2.3,Win32,60.19020104,627c6715c52fd12f31907bd0,,,,,,,,,,,,,,,,,,,,,,,l,1,4.2686,"[""0.966"",""0.149"",""0.638"",""0.742""]","[0,1,1,1]",0,36,36,36,1,1,1,,,1,FALSE,,,,,,,,,,,,,,,,,,,,,,,,,,,,,,,
,61079833b85c714f52d7b957,627c75baeeadcaf1f3da047e,2022-05-11_19h50.27.204,classification_task,2021.2.3,Win32,60.19020104,627c6715c52fd12f31907bd0,,,,,,,,,,,,,,,,,,,,,,,l,1,2.9192,"[""0.594"",""0.316"",""0.559"",""0.798""]","[0,1,1,1]",0,37,37,37,1,1,0,,,1,FALSE,,,,,,,,,,,,,,,,,,,,,,,,,,,,,,,
,61079833b85c714f52d7b957,627c75baeeadcaf1f3da047e,2022-05-11_19h50.27.204,classification_task,2021.2.3,Win32,60.19020104,627c6715c52fd12f31907bd0,,,,,,,,,,,,,,,,,,,,,,,a,1,1.0164,"[""0.245"",""0.388"",""0.694"",""0.887""]","[1,0,1,1]",0,38,38,38,1,0,0,,,1,FALSE,,,,,,,,,,,,,,,,,,,,,,,,,,,,,,,
,61079833b85c714f52d7b957,627c75baeeadcaf1f3da047e,2022-05-11_19h50.27.204,classification_task,2021.2.3,Win32,60.19020104,627c6715c52fd12f31907bd0,,,,,,,,,,,,,,,,,,,,,,,a,0,1.4344,"[""0.041"",""0.149"",""0.966"",""0.742""]","[1,1,0,1]",0,39,39,39,1,1,1,,,1,FALSE,,,,,,,,,,,,,,,,,,,,,,,,,,,,,,,
,61079833b85c714f52d7b957,627c75baeeadcaf1f3da047e,2022-05-11_19h50.27.204,classification_task,2021.2.3,Win32,60.19020104,627c6715c52fd12f31907bd0,,,,,,,,,,,,,,,,,,,,,,,l,0,2.9189,"[""0.282"",""0.967"",""0.846"",""0.933""]","[1,0,1,1]",0,40,40,40,1,0,1,,,1,FALSE,,,,,,,,,,,,,,,,,,,,,,,,,,,,,,,
,61079833b85c714f52d7b957,627c75baeeadcaf1f3da047e,2022-05-11_19h50.27.204,classification_task,2021.2.3,Win32,60.19020104,627c6715c52fd12f31907bd0,,,,,,,,,,,,,,,,,,,,,,,a,1,3.1862,"[""0.245"",""0.467"",""0.694"",""0.411""]","[1,1,1,0]",0,41,41,41,1,0,0,,,1,FALSE,,,,,,,,,,,,,,,,,,,,,,,,,,,,,,,
,61079833b85c714f52d7b957,627c75baeeadcaf1f3da047e,2022-05-11_19h50.27.204,classification_task,2021.2.3,Win32,60.19020104,627c6715c52fd12f31907bd0,,,,,,,,,,,,,,,,,,,,,,,a,1,2.0507,"[""0.594"",""0.515"",""0.846"",""0.933""]","[0,1,1,1]",0,42,42,42,1,0,1,,,1,FALSE,,,,,,,,,,,,,,,,,,,,,,,,,,,,,,,
,61079833b85c714f52d7b957,627c75baeeadcaf1f3da047e,2022-05-11_19h50.27.204,classification_task,2021.2.3,Win32,60.19020104,627c6715c52fd12f31907bd0,,,,,,,,,,,,,,,,,,,,,,,a,0,1.9861,"[""0.115"",""0.316"",""0.369"",""0.798""]","[1,1,0,1]",0,43,43,43,1,1,0,,,1,FALSE,,,,,,,,,,,,,,,,,,,,,,,,,,,,,,,
,61079833b85c714f52d7b957,627c75baeeadcaf1f3da047e,2022-05-11_19h50.27.204,classification_task,2021.2.3,Win32,60.19020104,627c6715c52fd12f31907bd0,,,,,,,,,,,,,,,,,,,,,,,a,1,2.9693,"[""0.282"",""0.515"",""0.846"",""0.185""]","[1,1,1,0]",0,44,44,44,1,0,1,,,1,FALSE,,,,,,,,,,,,,,,,,,,,,,,,,,,,,,,
,61079833b85c714f52d7b957,627c75baeeadcaf1f3da047e,2022-05-11_19h50.27.204,classification_task,2021.2.3,Win32,60.19020104,627c6715c52fd12f31907bd0,,,,,,,,,,,,,,,,,,,,,,,a,1,1.6846,"[""0.245"",""0.467"",""0.366"",""0.887""]","[1,1,0,1]",0,45,45,45,1,0,0,,,1,FALSE,,,,,,,,,,,,,,,,,,,,,,,,,,,,,,,
,61079833b85c714f52d7b957,627c75baeeadcaf1f3da047e,2022-05-11_19h50.27.204,classification_task,2021.2.3,Win32,60.19020104,627c6715c52fd12f31907bd0,,,,,,,,,,,,,,,,,,,,,,,l,1,3.2787,"[""0.041"",""0.187"",""0.638"",""0.742""]","[1,0,1,1]",0,46,46,46,1,1,1,,,1,FALSE,,,,,,,,,,,,,,,,,,,,,,,,,,,,,,,
,61079833b85c714f52d7b957,627c75baeeadcaf1f3da047e,2022-05-11_19h50.27.204,classification_task,2021.2.3,Win32,60.19020104,627c6715c52fd12f31907bd0,,,,,,,,,,,,,,,,,,,,,,,l,0,2.4836,"[""0.282"",""0.515"",""0.973"",""0.933""]","[1,1,0,1]",0,47,47,47,1,0,1,,,1,FALSE,,,,,,,,,,,,,,,,,,,,,,,,,,,,,,,
,61079833b85c714f52d7b957,627c75baeeadcaf1f3da047e,2022-05-11_19h50.27.204,classification_task,2021.2.3,Win32,60.19020104,627c6715c52fd12f31907bd0,,,,,,,,,,,,,,,,,,,,,,,l,1,2.8805,"[""0.115"",""0.316"",""0.559"",""0.187""]","[1,1,1,0]",0,48,48,48,1,1,0,,,1,FALSE,,,,,,,,,,,,,,,,,,,,,,,,,,,,,,,
,61079833b85c714f52d7b957,627c75baeeadcaf1f3da047e,2022-05-11_19h50.27.204,classification_task,2021.2.3,Win32,60.19020104,627c6715c52fd12f31907bd0,,,,,,,,,,,,,,,,,,,,,,,a,0,2.5858,"[""0.041"",""0.149"",""0.366"",""0.742""]","[1,1,0,1]",0,49,49,49,1,1,1,,,1,FALSE,,,,,,,,,,,,,,,,,,,,,,,,,,,,,,,
,61079833b85c714f52d7b957,627c75baeeadcaf1f3da047e,2022-05-11_19h50.27.204,classification_task,2021.2.3,Win32,60.19020104,627c6715c52fd12f31907bd0,,,,,,,,,,,,,,,,,,,,,,,a,0,2.7525,"[""0.411"",""0.316"",""0.559"",""0.798""]","[0,1,1,1]",0,50,50,50,1,1,0,,,1,FALSE,,,,,,,,,,,,,,,,,,,,,,,,,,,,,,,
,61079833b85c714f52d7b957,627c75baeeadcaf1f3da047e,2022-05-11_19h50.27.204,classification_task,2021.2.3,Win32,60.19020104,627c6715c52fd12f31907bd0,,,,,,,,,,,,,,,,,,,,,,,l,1,3.9027,"[""0.041"",""0.430"",""0.638"",""0.742""]","[1,0,1,1]",0,51,51,51,1,1,1,,,1,FALSE,,,,,,,,,,,,,,,,,,,,,,,,,,,,,,,
,61079833b85c714f52d7b957,627c75baeeadcaf1f3da047e,2022-05-11_19h50.27.204,classification_task,2021.2.3,Win32,60.19020104,627c6715c52fd12f31907bd0,,,,,,,,,,,,,,,,,,,,,,,a,1,3.3023,"[""0.282"",""0.515"",""0.846"",""0.966""]","[1,1,1,0]",0,52,52,52,1,0,1,,,1,FALSE,,,,,,,,,,,,,,,,,,,,,,,,,,,,,,,
,61079833b85c714f52d7b957,627c75baeeadcaf1f3da047e,2022-05-11_19h50.27.204,classification_task,2021.2.3,Win32,60.19020104,627c6715c52fd12f31907bd0,,,,,,,,,,,,,,,,,,,,,,,l,1,2.0016,"[""0.115"",""0.369"",""0.559"",""0.798""]","[1,0,1,1]",0,53,53,53,1,1,0,,,1,FALSE,,,,,,,,,,,,,,,,,,,,,,,,,,,,,,,
,61079833b85c714f52d7b957,627c75baeeadcaf1f3da047e,2022-05-11_19h50.27.204,classification_task,2021.2.3,Win32,60.19020104,627c6715c52fd12f31907bd0,,,,,,,,,,,,,,,,,,,,,,,a,1,2.1346,"[""0.374"",""0.515"",""0.846"",""0.933""]","[0,1,1,1]",0,54,54,54,1,0,1,,,1,FALSE,,,,,,,,,,,,,,,,,,,,,,,,,,,,,,,
,61079833b85c714f52d7b957,627c75baeeadcaf1f3da047e,2022-05-11_19h50.27.204,classification_task,2021.2.3,Win32,60.19020104,627c6715c52fd12f31907bd0,,,,,,,,,,,,,,,,,,,,,,,a,1,1.1826,"[""0.282"",""0.430"",""0.846"",""0.933""]","[1,0,1,1]",0,55,55,55,1,0,1,,,1,FALSE,,,,,,,,,,,,,,,,,,,,,,,,,,,,,,,
,61079833b85c714f52d7b957,627c75baeeadcaf1f3da047e,2022-05-11_19h50.27.204,classification_task,2021.2.3,Win32,60.19020104,627c6715c52fd12f31907bd0,,,,,,,,,,,,,,,,,,,,,,,a,1,1.2508,"[""0.282"",""0.515"",""0.966"",""0.933""]","[1,1,0,1]",0,56,56,56,1,0,1,,,1,FALSE,,,,,,,,,,,,,,,,,,,,,,,,,,,,,,,
,61079833b85c714f52d7b957,627c75baeeadcaf1f3da047e,2022-05-11_19h50.27.204,classification_task,2021.2.3,Win32,60.19020104,627c6715c52fd12f31907bd0,,,,,,,,,,,,,,,,,,,,,,,l,1,1.5336,"[""0.973"",""0.149"",""0.638"",""0.742""]","[0,1,1,1]",0,57,57,57,1,1,1,,,1,FALSE,,,,,,,,,,,,,,,,,,,,,,,,,,,,,,,
,61079833b85c714f52d7b957,627c75baeeadcaf1f3da047e,2022-05-11_19h50.27.204,classification_task,2021.2.3,Win32,60.19020104,627c6715c52fd12f31907bd0,,,,,,,,,,,,,,,,,,,,,,,a,1,3.5866,"[""0.245"",""0.185"",""0.694"",""0.887""]","[1,0,1,1]",0,58,58,58,1,0,0,,,1,FALSE,,,,,,,,,,,,,,,,,,,,,,,,,,,,,,,
,61079833b85c714f52d7b957,627c75baeeadcaf1f3da047e,2022-05-11_19h50.27.204,classification_task,2021.2.3,Win32,60.19020104,627c6715c52fd12f31907bd0,,,,,,,,,,,,,,,,,,,,,,,l,1,2.1019,"[""0.115"",""0.316"",""0.185"",""0.798""]","[1,1,0,1]",0,59,59,59,1,1,0,,,1,FALSE,,,,,,,,,,,,,,,,,,,,,,,,,,,,,,,
,61079833b85c714f52d7b957,627c75baeeadcaf1f3da047e,2022-05-11_19h50.27.204,classification_task,2021.2.3,Win32,60.19020104,627c6715c52fd12f31907bd0,,,,,,,,,,,,,,,,,,,,,,,l,1,1.5679,"[""0.041"",""0.149"",""0.638"",""0.366""]","[1,1,1,0]",0,60,60,60,1,1,1,,,1,FALSE,,,,,,,,,,,,,,,,,,,,,,,,,,,,,,,
,61079833b85c714f52d7b957,627c75baeeadcaf1f3da047e,2022-05-11_19h50.27.204,classification_task,2021.2.3,Win32,60.19020104,627c6715c52fd12f31907bd0,,,,,,,,,,,,,,,,,,,,,,,a,1,3.1514,"[""0.245"",""0.467"",""0.694"",""0.973""]","[1,1,1,0]",0,61,61,61,1,0,0,,,1,FALSE,,,,,,,,,,,,,,,,,,,,,,,,,,,,,,,
,61079833b85c714f52d7b957,627c75baeeadcaf1f3da047e,2022-05-11_19h50.27.204,classification_task,2021.2.3,Win32,60.19020104,627c6715c52fd12f31907bd0,,,,,,,,,,,,,,,,,,,,,,,a,1,1.9664,"[""0.245"",""0.467"",""0.967"",""0.887""]","[1,1,0,1]",0,62,62,62,1,0,0,,,1,FALSE,,,,,,,,,,,,,,,,,,,,,,,,,,,,,,,
,61079833b85c714f52d7b957,627c75baeeadcaf1f3da047e,2022-05-11_19h50.27.204,classification_task,2021.2.3,Win32,60.19020104,627c6715c52fd12f31907bd0,,,,,,,,,,,,,,,,,,,,,,,a,1,0.8004,"[""0.397"",""0.467"",""0.694"",""0.887""]","[0,1,1,1]",0,63,63,63,1,0,0,,,1,FALSE,,,,,,,,,,,,,,,,,,,,,,,,,,,,,,,
,61079833b85c714f52d7b957,627c75baeeadcaf1f3da047e,2022-05-11_19h50.27.204,classification_task,2021.2.3,Win32,60.19020104,627c6715c52fd12f31907bd0,,,,,,,,,,,,,,,,,,,,,,,,,,,,,,,,,,,,,,,0, ,,0,0,247.3271,0,1,1,1,1,2,2,,,,,,,,,,,,,,,,,,
,61079833b85c714f52d7b957,627c75baeeadcaf1f3da047e,2022-05-11_19h50.27.204,classification_task,2021.2.3,Win32,60.19020104,627c6715c52fd12f31907bd0,,,,,,,,,,,,,,,,,,,,,,,,,,,,,,,,,,,,,,,1,  ,,0,3.941798942,252.7392,0,1,1,1,1,2,2,,,,,,,,,,,,,,,,,,
,61079833b85c714f52d7b957,627c75baeeadcaf1f3da047e,2022-05-11_19h50.27.204,classification_task,2021.2.3,Win32,60.19020104,627c6715c52fd12f31907bd0,,,,,,,,,,,,,,,,,,,,,,,,,,,,,,,,,,,,,,,2,  ,,0,2.619047619,255.4334,0,1,1,1,1,2,2,,,,,,,,,,,,,,,,,,
,61079833b85c714f52d7b957,627c75baeeadcaf1f3da047e,2022-05-11_19h50.27.204,classification_task,2021.2.3,Win32,60.19020104,627c6715c52fd12f31907bd0,,,,,,,,,,,,,,,,,,,,,,,,,,,,,,,,,,,,,,,,,,,,,0,1,1,1,1,,2,,,,,,,,,,,,,,,,,,
,61079833b85c714f52d7b957,627c75baeeadcaf1f3da047e,2022-05-11_19h50.27.204,classification_task,2021.2.3,Win32,60.19020104,627c6715c52fd12f31907bd0,,,,,,,,,,,,,,,,,,,,,space,5.4982,a,1,5.9395,"[""0.282"",""0.594"",""0.846"",""0.933""]","[1,0,1,1]",0,0,0,0,1,0,1,,,1,FALSE,,,,,,,,,,,,,,,,,,,,,,,,,,,,,,,
,61079833b85c714f52d7b957,627c75baeeadcaf1f3da047e,2022-05-11_19h50.27.204,classification_task,2021.2.3,Win32,60.19020104,627c6715c52fd12f31907bd0,,,,,,,,,,,,,,,,,,,,,,,l,1,5.5391,"[""0.115"",""0.594"",""0.559"",""0.798""]","[1,0,1,1]",0,1,1,1,1,1,0,,,1,FALSE,,,,,,,,,,,,,,,,,,,,,,,,,,,,,,,
,61079833b85c714f52d7b957,627c75baeeadcaf1f3da047e,2022-05-11_19h50.27.204,classification_task,2021.2.3,Win32,60.19020104,627c6715c52fd12f31907bd0,,,,,,,,,,,,,,,,,,,,,,,l,1,2.3344,"[""0.041"",""0.149"",""0.638"",""0.374""]","[1,1,1,0]",0,2,2,2,1,1,1,,,1,FALSE,,,,,,,,,,,,,,,,,,,,,,,,,,,,,,,
,61079833b85c714f52d7b957,627c75baeeadcaf1f3da047e,2022-05-11_19h50.27.204,classification_task,2021.2.3,Win32,60.19020104,627c6715c52fd12f31907bd0,,,,,,,,,,,,,,,,,,,,,,,a,1,2.2179,"[""0.245"",""0.467"",""0.187"",""0.887""]","[1,1,0,1]",0,3,3,3,1,0,0,,,1,FALSE,,,,,,,,,,,,,,,,,,,,,,,,,,,,,,,
,61079833b85c714f52d7b957,627c75baeeadcaf1f3da047e,2022-05-11_19h50.27.204,classification_task,2021.2.3,Win32,60.19020104,627c6715c52fd12f31907bd0,,,,,,,,,,,,,,,,,,,,,,,a,1,2.0709,"[""0.966"",""0.515"",""0.846"",""0.933""]","[0,1,1,1]",0,4,4,4,1,0,1,,,1,FALSE,,,,,,,,,,,,,,,,,,,,,,,,,,,,,,,
,61079833b85c714f52d7b957,627c75baeeadcaf1f3da047e,2022-05-11_19h50.27.204,classification_task,2021.2.3,Win32,60.19020104,627c6715c52fd12f31907bd0,,,,,,,,,,,,,,,,,,,,,,,a,1,6.1716,"[""0.245"",""0.467"",""0.694"",""0.388""]","[1,1,1,0]",0,5,5,5,1,0,0,,,1,FALSE,,,,,,,,,,,,,,,,,,,,,,,,,,,,,,,
,61079833b85c714f52d7b957,627c75baeeadcaf1f3da047e,2022-05-11_19h50.27.204,classification_task,2021.2.3,Win32,60.19020104,627c6715c52fd12f31907bd0,,,,,,,,,,,,,,,,,,,,,,,l,1,2.9353,"[""0.041"",""0.149"",""0.397"",""0.742""]","[1,1,0,1]",0,6,6,6,1,1,1,,,1,FALSE,,,,,,,,,,,,,,,,,,,,,,,,,,,,,,,
,61079833b85c714f52d7b957,627c75baeeadcaf1f3da047e,2022-05-11_19h50.27.204,classification_task,2021.2.3,Win32,60.19020104,627c6715c52fd12f31907bd0,,,,,,,,,,,,,,,,,,,,,,,l,1,2.7854,"[""0.366"",""0.316"",""0.559"",""0.798""]","[0,1,1,1]",0,7,7,7,1,1,0,,,1,FALSE,,,,,,,,,,,,,,,,,,,,,,,,,,,,,,,
,61079833b85c714f52d7b957,627c75baeeadcaf1f3da047e,2022-05-11_19h50.27.204,classification_task,2021.2.3,Win32,60.19020104,627c6715c52fd12f31907bd0,,,,,,,,,,,,,,,,,,,,,,,a,0,4.7545,"[""0.380"",""0.149"",""0.638"",""0.742""]","[0,1,1,1]",0,8,8,8,1,1,1,,,1,FALSE,,,,,,,,,,,,,,,,,,,,,,,,,,,,,,,
,61079833b85c714f52d7b957,627c75baeeadcaf1f3da047e,2022-05-11_19h50.27.204,classification_task,2021.2.3,Win32,60.19020104,627c6715c52fd12f31907bd0,,,,,,,,,,,,,,,,,,,,,,,a,1,2.4739,"[""0.282"",""0.515"",""0.846"",""0.594""]","[1,1,1,0]",0,9,9,9,1,0,1,,,1,FALSE,,,,,,,,,,,,,,,,,,,,,,,,,,,,,,,
,61079833b85c714f52d7b957,627c75baeeadcaf1f3da047e,2022-05-11_19h50.27.204,classification_task,2021.2.3,Win32,60.19020104,627c6715c52fd12f31907bd0,,,,,,,,,,,,,,,,,,,,,,,l,1,2.4017,"[""0.115"",""0.316"",""0.559"",""0.430""]","[1,1,1,0]",0,10,10,10,1,1,0,,,1,FALSE,,,,,,,,,,,,,,,,,,,,,,,,,,,,,,,
,61079833b85c714f52d7b957,627c75baeeadcaf1f3da047e,2022-05-11_19h50.27.204,classification_task,2021.2.3,Win32,60.19020104,627c6715c52fd12f31907bd0,,,,,,,,,,,,,,,,,,,,,,,a,1,4.9546,"[""0.245"",""0.388"",""0.694"",""0.887""]","[1,0,1,1]",0,11,11,11,1,0,0,,,1,FALSE,,,,,,,,,,,,,,,,,,,,,,,,,,,,,,,
,61079833b85c714f52d7b957,627c75baeeadcaf1f3da047e,2022-05-11_19h50.27.204,classification_task,2021.2.3,Win32,60.19020104,627c6715c52fd12f31907bd0,,,,,,,,,,,,,,,,,,,,,,,l,1,3.2705,"[""0.041"",""0.594"",""0.638"",""0.742""]","[1,0,1,1]",0,12,12,12,1,1,1,,,1,FALSE,,,,,,,,,,,,,,,,,,,,,,,,,,,,,,,
,61079833b85c714f52d7b957,627c75baeeadcaf1f3da047e,2022-05-11_19h50.27.204,classification_task,2021.2.3,Win32,60.19020104,627c6715c52fd12f31907bd0,,,,,,,,,,,,,,,,,,,,,,,l,0,4.254,"[""0.282"",""0.515"",""0.369"",""0.933""]","[1,1,0,1]",0,13,13,13,1,0,1,,,1,FALSE,,,,,,,,,,,,,,,,,,,,,,,,,,,,,,,
,61079833b85c714f52d7b957,627c75baeeadcaf1f3da047e,2022-05-11_19h50.27.204,classification_task,2021.2.3,Win32,60.19020104,627c6715c52fd12f31907bd0,,,,,,,,,,,,,,,,,,,,,,,a,1,2.6013,"[""0.973"",""0.467"",""0.694"",""0.887""]","[0,1,1,1]",0,14,14,14,1,0,0,,,1,FALSE,,,,,,,,,,,,,,,,,,,,,,,,,,,,,,,
,61079833b85c714f52d7b957,627c75baeeadcaf1f3da047e,2022-05-11_19h50.27.204,classification_task,2021.2.3,Win32,60.19020104,627c6715c52fd12f31907bd0,,,,,,,,,,,,,,,,,,,,,,,l,1,5.1704,"[""0.115"",""0.316"",""0.973"",""0.798""]","[1,1,0,1]",0,15,15,15,1,1,0,,,1,FALSE,,,,,,,,,,,,,,,,,,,,,,,,,,,,,,,
,61079833b85c714f52d7b957,627c75baeeadcaf1f3da047e,2022-05-11_19h50.27.204,classification_task,2021.2.3,Win32,60.19020104,627c6715c52fd12f31907bd0,,,,,,,,,,,,,,,,,,,,,,,l,1,4.437,"[""0.115"",""0.316"",""0.559"",""0.380""]","[1,1,1,0]",0,16,16,16,1,1,0,,,1,FALSE,,,,,,,,,,,,,,,,,,,,,,,,,,,,,,,
,61079833b85c714f52d7b957,627c75baeeadcaf1f3da047e,2022-05-11_19h50.27.204,classification_task,2021.2.3,Win32,60.19020104,627c6715c52fd12f31907bd0,,,,,,,,,,,,,,,,,,,,,,,l,0,4.1377,"[""0.282"",""0.515"",""0.369"",""0.933""]","[1,1,0,1]",0,17,17,17,1,0,1,,,1,FALSE,,,,,,,,,,,,,,,,,,,,,,,,,,,,,,,
,61079833b85c714f52d7b957,627c75baeeadcaf1f3da047e,2022-05-11_19h50.27.204,classification_task,2021.2.3,Win32,60.19020104,627c6715c52fd12f31907bd0,,,,,,,,,,,,,,,,,,,,,,,l,1,5.4374,"[""0.115"",""0.316"",""0.187"",""0.798""]","[1,1,0,1]",0,18,18,18,1,1,0,,,1,FALSE,,,,,,,,,,,,,,,,,,,,,,,,,,,,,,,
,61079833b85c714f52d7b957,627c75baeeadcaf1f3da047e,2022-05-11_19h50.27.204,classification_task,2021.2.3,Win32,60.19020104,627c6715c52fd12f31907bd0,,,,,,,,,,,,,,,,,,,,,,,a,0,2.6862,"[""0.966"",""0.149"",""0.638"",""0.742""]","[0,1,1,1]",0,19,19,19,1,1,1,,,1,FALSE,,,,,,,,,,,,,,,,,,,,,,,,,,,,,,,
,61079833b85c714f52d7b957,627c75baeeadcaf1f3da047e,2022-05-11_19h50.27.204,classification_task,2021.2.3,Win32,60.19020104,627c6715c52fd12f31907bd0,,,,,,,,,,,,,,,,,,,,,,,a,1,2.2019,"[""0.967"",""0.467"",""0.694"",""0.887""]","[0,1,1,1]",0,20,20,20,1,0,0,,,1,FALSE,,,,,,,,,,,,,,,,,,,,,,,,,,,,,,,
,61079833b85c714f52d7b957,627c75baeeadcaf1f3da047e,2022-05-11_19h50.27.204,classification_task,2021.2.3,Win32,60.19020104,627c6715c52fd12f31907bd0,,,,,,,,,,,,,,,,,,,,,,,l,1,3.6863,"[""0.366"",""0.316"",""0.559"",""0.798""]","[0,1,1,1]",0,21,21,21,1,1,0,,,1,FALSE,,,,,,,,,,,,,,,,,,,,,,,,,,,,,,,
,61079833b85c714f52d7b957,627c75baeeadcaf1f3da047e,2022-05-11_19h50.27.204,classification_task,2021.2.3,Win32,60.19020104,627c6715c52fd12f31907bd0,,,,,,,,,,,,,,,,,,,,,,,l,0,5.0705,"[""0.245"",""0.467"",""0.694"",""0.397""]","[1,1,1,0]",0,22,22,22,1,0,0,,,1,FALSE,,,,,,,,,,,,,,,,,,,,,,,,,,,,,,,
,61079833b85c714f52d7b957,627c75baeeadcaf1f3da047e,2022-05-11_19h50.27.204,classification_task,2021.2.3,Win32,60.19020104,627c6715c52fd12f31907bd0,,,,,,,,,,,,,,,,,,,,,,,l,1,5.889,"[""0.115"",""0.201"",""0.559"",""0.798""]","[1,0,1,1]",0,23,23,23,1,1,0,,,1,FALSE,,,,,,,,,,,,,,,,,,,,,,,,,,,,,,,
,61079833b85c714f52d7b957,627c75baeeadcaf1f3da047e,2022-05-11_19h50.27.204,classification_task,2021.2.3,Win32,60.19020104,627c6715c52fd12f31907bd0,,,,,,,,,,,,,,,,,,,,,,,a,0,3.7206,"[""0.041"",""0.973"",""0.638"",""0.742""]","[1,0,1,1]",0,24,24,24,1,1,1,,,1,FALSE,,,,,,,,,,,,,,,,,,,,,,,,,,,,,,,
,61079833b85c714f52d7b957,627c75baeeadcaf1f3da047e,2022-05-11_19h50.27.204,classification_task,2021.2.3,Win32,60.19020104,627c6715c52fd12f31907bd0,,,,,,,,,,,,,,,,,,,,,,,l,1,1.8377,"[""0.041"",""0.149"",""0.638"",""0.973""]","[1,1,1,0]",0,25,25,25,1,1,1,,,1,FALSE,,,,,,,,,,,,,,,,,,,,,,,,,,,,,,,
,61079833b85c714f52d7b957,627c75baeeadcaf1f3da047e,2022-05-11_19h50.27.204,classification_task,2021.2.3,Win32,60.19020104,627c6715c52fd12f31907bd0,,,,,,,,,,,,,,,,,,,,,,,a,1,6.6047,"[""0.282"",""0.397"",""0.846"",""0.933""]","[1,0,1,1]",0,26,26,26,1,0,1,,,1,FALSE,,,,,,,,,,,,,,,,,,,,,,,,,,,,,,,
,61079833b85c714f52d7b957,627c75baeeadcaf1f3da047e,2022-05-11_19h50.27.204,classification_task,2021.2.3,Win32,60.19020104,627c6715c52fd12f31907bd0,,,,,,,,,,,,,,,,,,,,,,,l,1,1.3156,"[""0.041"",""0.149"",""0.973"",""0.742""]","[1,1,0,1]",0,27,27,27,1,1,1,,,1,FALSE,,,,,,,,,,,,,,,,,,,,,,,,,,,,,,,
,61079833b85c714f52d7b957,627c75baeeadcaf1f3da047e,2022-05-11_19h50.27.204,classification_task,2021.2.3,Win32,60.19020104,627c6715c52fd12f31907bd0,,,,,,,,,,,,,,,,,,,,,,,a,1,5.8719,"[""0.245"",""0.467"",""0.201"",""0.887""]","[1,1,0,1]",0,28,28,28,1,0,0,,,1,FALSE,,,,,,,,,,,,,,,,,,,,,,,,,,,,,,,
,61079833b85c714f52d7b957,627c75baeeadcaf1f3da047e,2022-05-11_19h50.27.204,classification_task,2021.2.3,Win32,60.19020104,627c6715c52fd12f31907bd0,,,,,,,,,,,,,,,,,,,,,,,a,1,3.3348,"[""0.245"",""0.369"",""0.694"",""0.887""]","[1,0,1,1]",0,29,29,29,1,0,0,,,1,FALSE,,,,,,,,,,,,,,,,,,,,,,,,,,,,,,,
,61079833b85c714f52d7b957,627c75baeeadcaf1f3da047e,2022-05-11_19h50.27.204,classification_task,2021.2.3,Win32,60.19020104,627c6715c52fd12f31907bd0,,,,,,,,,,,,,,,,,,,,,,,l,0,2.4176,"[""0.282"",""0.515"",""0.846"",""0.966""]","[1,1,1,0]",0,30,30,30,1,0,1,,,1,FALSE,,,,,,,,,,,,,,,,,,,,,,,,,,,,,,,
,61079833b85c714f52d7b957,627c75baeeadcaf1f3da047e,2022-05-11_19h50.27.204,classification_task,2021.2.3,Win32,60.19020104,627c6715c52fd12f31907bd0,,,,,,,,,,,,,,,,,,,,,,,a,1,3.3022,"[""0.369"",""0.515"",""0.846"",""0.933""]","[0,1,1,1]",0,31,31,31,1,0,1,,,1,FALSE,,,,,,,,,,,,,,,,,,,,,,,,,,,,,,,
,61079833b85c714f52d7b957,627c75baeeadcaf1f3da047e,2022-05-11_19h50.27.204,classification_task,2021.2.3,Win32,60.19020104,627c6715c52fd12f31907bd0,,,,,,,,,,,,,,,,,,,,,,,l,1,2.8533,"[""0.041"",""0.594"",""0.638"",""0.742""]","[1,0,1,1]",0,32,32,32,1,1,1,,,1,FALSE,,,,,,,,,,,,,,,,,,,,,,,,,,,,,,,
,61079833b85c714f52d7b957,627c75baeeadcaf1f3da047e,2022-05-11_19h50.27.204,classification_task,2021.2.3,Win32,60.19020104,627c6715c52fd12f31907bd0,,,,,,,,,,,,,,,,,,,,,,,a,1,6.656,"[""0.245"",""0.467"",""0.694"",""0.594""]","[1,1,1,0]",0,33,33,33,1,0,0,,,1,FALSE,,,,,,,,,,,,,,,,,,,,,,,,,,,,,,,
,61079833b85c714f52d7b957,627c75baeeadcaf1f3da047e,2022-05-11_19h50.27.204,classification_task,2021.2.3,Win32,60.19020104,627c6715c52fd12f31907bd0,,,,,,,,,,,,,,,,,,,,,,,a,1,5.3373,"[""0.245"",""0.467"",""0.201"",""0.887""]","[1,1,0,1]",0,34,34,34,1,0,0,,,1,FALSE,,,,,,,,,,,,,,,,,,,,,,,,,,,,,,,
,61079833b85c714f52d7b957,627c75baeeadcaf1f3da047e,2022-05-11_19h50.27.204,classification_task,2021.2.3,Win32,60.19020104,627c6715c52fd12f31907bd0,,,,,,,,,,,,,,,,,,,,,,,l,1,2.5506,"[""0.115"",""0.973"",""0.559"",""0.798""]","[1,0,1,1]",0,35,35,35,1,1,0,,,1,FALSE,,,,,,,,,,,,,,,,,,,,,,,,,,,,,,,
,61079833b85c714f52d7b957,627c75baeeadcaf1f3da047e,2022-05-11_19h50.27.204,classification_task,2021.2.3,Win32,60.19020104,627c6715c52fd12f31907bd0,,,,,,,,,,,,,,,,,,,,,,,l,1,3.2194,"[""0.041"",""0.149"",""0.638"",""0.388""]","[1,1,1,0]",0,36,36,36,1,1,1,,,1,FALSE,,,,,,,,,,,,,,,,,,,,,,,,,,,,,,,
,61079833b85c714f52d7b957,627c75baeeadcaf1f3da047e,2022-05-11_19h50.27.204,classification_task,2021.2.3,Win32,60.19020104,627c6715c52fd12f31907bd0,,,,,,,,,,,,,,,,,,,,,,,a,1,5.3891,"[""0.369"",""0.515"",""0.846"",""0.933""]","[0,1,1,1]",0,37,37,37,1,0,1,,,1,FALSE,,,,,,,,,,,,,,,,,,,,,,,,,,,,,,,
,61079833b85c714f52d7b957,627c75baeeadcaf1f3da047e,2022-05-11_19h50.27.204,classification_task,2021.2.3,Win32,60.19020104,627c6715c52fd12f31907bd0,,,,,,,,,,,,,,,,,,,,,,,l,1,4.4377,"[""0.115"",""0.316"",""0.559"",""0.973""]","[1,1,1,0]",0,38,38,38,1,1,0,,,1,FALSE,,,,,,,,,,,,,,,,,,,,,,,,,,,,,,,
,61079833b85c714f52d7b957,627c75baeeadcaf1f3da047e,2022-05-11_19h50.27.204,classification_task,2021.2.3,Win32,60.19020104,627c6715c52fd12f31907bd0,,,,,,,,,,,,,,,,,,,,,,,l,0,4.9378,"[""0.282"",""0.397"",""0.846"",""0.933""]","[1,0,1,1]",0,39,39,39,1,0,1,,,1,FALSE,,,,,,,,,,,,,,,,,,,,,,,,,,,,,,,
,61079833b85c714f52d7b957,627c75baeeadcaf1f3da047e,2022-05-11_19h50.27.204,classification_task,2021.2.3,Win32,60.19020104,627c6715c52fd12f31907bd0,,,,,,,,,,,,,,,,,,,,,,,a,1,2.802,"[""0.282"",""0.515"",""0.846"",""0.430""]","[1,1,1,0]",0,40,40,40,1,0,1,,,1,FALSE,,,,,,,,,,,,,,,,,,,,,,,,,,,,,,,
,61079833b85c714f52d7b957,627c75baeeadcaf1f3da047e,2022-05-11_19h50.27.204,classification_task,2021.2.3,Win32,60.19020104,627c6715c52fd12f31907bd0,,,,,,,,,,,,,,,,,,,,,,,a,0,1.5998,"[""0.430"",""0.149"",""0.638"",""0.742""]","[0,1,1,1]",0,41,41,41,1,1,1,,,1,FALSE,,,,,,,,,,,,,,,,,,,,,,,,,,,,,,,
,61079833b85c714f52d7b957,627c75baeeadcaf1f3da047e,2022-05-11_19h50.27.204,classification_task,2021.2.3,Win32,60.19020104,627c6715c52fd12f31907bd0,,,,,,,,,,,,,,,,,,,,,,,a,1,5.0877,"[""0.245"",""0.973"",""0.694"",""0.887""]","[1,0,1,1]",0,42,42,42,1,0,0,,,1,FALSE,,,,,,,,,,,,,,,,,,,,,,,,,,,,,,,
,61079833b85c714f52d7b957,627c75baeeadcaf1f3da047e,2022-05-11_19h50.27.204,classification_task,2021.2.3,Win32,60.19020104,627c6715c52fd12f31907bd0,,,,,,,,,,,,,,,,,,,,,,,l,1,4.9548,"[""0.115"",""0.316"",""0.374"",""0.798""]","[1,1,0,1]",0,43,43,43,1,1,0,,,1,FALSE,,,,,,,,,,,,,,,,,,,,,,,,,,,,,,,
,61079833b85c714f52d7b957,627c75baeeadcaf1f3da047e,2022-05-11_19h50.27.204,classification_task,2021.2.3,Win32,60.19020104,627c6715c52fd12f31907bd0,,,,,,,,,,,,,,,,,,,,,,,a,1,4.0539,"[""0.397"",""0.467"",""0.694"",""0.887""]","[0,1,1,1]",0,44,44,44,1,0,0,,,1,FALSE,,,,,,,,,,,,,,,,,,,,,,,,,,,,,,,
,61079833b85c714f52d7b957,627c75baeeadcaf1f3da047e,2022-05-11_19h50.27.204,classification_task,2021.2.3,Win32,60.19020104,627c6715c52fd12f31907bd0,,,,,,,,,,,,,,,,,,,,,,,l,1,2.2845,"[""0.041"",""0.149"",""0.966"",""0.742""]","[1,1,0,1]",0,45,45,45,1,1,1,,,1,FALSE,,,,,,,,,,,,,,,,,,,,,,,,,,,,,,,
,61079833b85c714f52d7b957,627c75baeeadcaf1f3da047e,2022-05-11_19h50.27.204,classification_task,2021.2.3,Win32,60.19020104,627c6715c52fd12f31907bd0,,,,,,,,,,,,,,,,,,,,,,,a,0,2.486,"[""0.430"",""0.316"",""0.559"",""0.798""]","[0,1,1,1]",0,46,46,46,1,1,0,,,1,FALSE,,,,,,,,,,,,,,,,,,,,,,,,,,,,,,,
,61079833b85c714f52d7b957,627c75baeeadcaf1f3da047e,2022-05-11_19h50.27.204,classification_task,2021.2.3,Win32,60.19020104,627c6715c52fd12f31907bd0,,,,,,,,,,,,,,,,,,,,,,,l,0,6.772,"[""0.282"",""0.515"",""0.366"",""0.933""]","[1,1,0,1]",0,47,47,47,1,0,1,,,1,FALSE,,,,,,,,,,,,,,,,,,,,,,,,,,,,,,,
,61079833b85c714f52d7b957,627c75baeeadcaf1f3da047e,2022-05-11_19h50.27.204,classification_task,2021.2.3,Win32,60.19020104,627c6715c52fd12f31907bd0,,,,,,,,,,,,,,,,,,,,,,,a,0,4.3364,"[""0.115"",""0.316"",""0.973"",""0.798""]","[1,1,0,1]",0,48,48,48,1,1,0,,,1,FALSE,,,,,,,,,,,,,,,,,,,,,,,,,,,,,,,
,61079833b85c714f52d7b957,627c75baeeadcaf1f3da047e,2022-05-11_19h50.27.204,classification_task,2021.2.3,Win32,60.19020104,627c6715c52fd12f31907bd0,,,,,,,,,,,,,,,,,,,,,,,a,0,2.386,"[""0.041"",""0.374"",""0.638"",""0.742""]","[1,0,1,1]",0,49,49,49,1,1,1,,,1,FALSE,,,,,,,,,,,,,,,,,,,,,,,,,,,,,,,
,61079833b85c714f52d7b957,627c75baeeadcaf1f3da047e,2022-05-11_19h50.27.204,classification_task,2021.2.3,Win32,60.19020104,627c6715c52fd12f31907bd0,,,,,,,,,,,,,,,,,,,,,,,a,0,5.088,"[""0.041"",""0.149"",""0.411"",""0.742""]","[1,1,0,1]",0,50,50,50,1,1,1,,,1,FALSE,,,,,,,,,,,,,,,,,,,,,,,,,,,,,,,
,61079833b85c714f52d7b957,627c75baeeadcaf1f3da047e,2022-05-11_19h50.27.204,classification_task,2021.2.3,Win32,60.19020104,627c6715c52fd12f31907bd0,,,,,,,,,,,,,,,,,,,,,,,a,1,4.3021,"[""0.397"",""0.467"",""0.694"",""0.887""]","[0,1,1,1]",0,51,51,51,1,0,0,,,1,FALSE,,,,,,,,,,,,,,,,,,,,,,,,,,,,,,,
,61079833b85c714f52d7b957,627c75baeeadcaf1f3da047e,2022-05-11_19h50.27.204,classification_task,2021.2.3,Win32,60.19020104,627c6715c52fd12f31907bd0,,,,,,,,,,,,,,,,,,,,,,,a,1,3.6033,"[""0.282"",""0.366"",""0.846"",""0.933""]","[1,0,1,1]",0,52,52,52,1,0,1,,,1,FALSE,,,,,,,,,,,,,,,,,,,,,,,,,,,,,,,
,61079833b85c714f52d7b957,627c75baeeadcaf1f3da047e,2022-05-11_19h50.27.204,classification_task,2021.2.3,Win32,60.19020104,627c6715c52fd12f31907bd0,,,,,,,,,,,,,,,,,,,,,,,l,1,3.5296,"[""0.115"",""0.397"",""0.559"",""0.798""]","[1,0,1,1]",0,53,53,53,1,1,0,,,1,FALSE,,,,,,,,,,,,,,,,,,,,,,,,,,,,,,,
,61079833b85c714f52d7b957,627c75baeeadcaf1f3da047e,2022-05-11_19h50.27.204,classification_task,2021.2.3,Win32,60.19020104,627c6715c52fd12f31907bd0,,,,,,,,,,,,,,,,,,,,,,,a,1,3.385,"[""0.245"",""0.467"",""0.397"",""0.887""]","[1,1,0,1]",0,54,54,54,1,0,0,,,1,FALSE,,,,,,,,,,,,,,,,,,,,,,,,,,,,,,,
,61079833b85c714f52d7b957,627c75baeeadcaf1f3da047e,2022-05-11_19h50.27.204,classification_task,2021.2.3,Win32,60.19020104,627c6715c52fd12f31907bd0,,,,,,,,,,,,,,,,,,,,,,,a,0,4.4859,"[""0.041"",""0.149"",""0.638"",""0.369""]","[1,1,1,0]",0,55,55,55,1,1,1,,,1,FALSE,,,,,,,,,,,,,,,,,,,,,,,,,,,,,,,
,61079833b85c714f52d7b957,627c75baeeadcaf1f3da047e,2022-05-11_19h50.27.204,classification_task,2021.2.3,Win32,60.19020104,627c6715c52fd12f31907bd0,,,,,,,,,,,,,,,,,,,,,,,l,1,3.8378,"[""0.187"",""0.316"",""0.559"",""0.798""]","[0,1,1,1]",0,56,56,56,1,1,0,,,1,FALSE,,,,,,,,,,,,,,,,,,,,,,,,,,,,,,,
,61079833b85c714f52d7b957,627c75baeeadcaf1f3da047e,2022-05-11_19h50.27.204,classification_task,2021.2.3,Win32,60.19020104,627c6715c52fd12f31907bd0,,,,,,,,,,,,,,,,,,,,,,,a,1,3.6188,"[""0.245"",""0.467"",""0.694"",""0.397""]","[1,1,1,0]",0,57,57,57,1,0,0,,,1,FALSE,,,,,,,,,,,,,,,,,,,,,,,,,,,,,,,
,61079833b85c714f52d7b957,627c75baeeadcaf1f3da047e,2022-05-11_19h50.27.204,classification_task,2021.2.3,Win32,60.19020104,627c6715c52fd12f31907bd0,,,,,,,,,,,,,,,,,,,,,,,a,0,2.9855,"[""0.973"",""0.149"",""0.638"",""0.742""]","[0,1,1,1]",0,58,58,58,1,1,1,,,1,FALSE,,,,,,,,,,,,,,,,,,,,,,,,,,,,,,,
,61079833b85c714f52d7b957,627c75baeeadcaf1f3da047e,2022-05-11_19h50.27.204,classification_task,2021.2.3,Win32,60.19020104,627c6715c52fd12f31907bd0,,,,,,,,,,,,,,,,,,,,,,,l,1,1.7345,"[""0.115"",""0.316"",""0.559"",""0.380""]","[1,1,1,0]",0,59,59,59,1,1,0,,,1,FALSE,,,,,,,,,,,,,,,,,,,,,,,,,,,,,,,
,61079833b85c714f52d7b957,627c75baeeadcaf1f3da047e,2022-05-11_19h50.27.204,classification_task,2021.2.3,Win32,60.19020104,627c6715c52fd12f31907bd0,,,,,,,,,,,,,,,,,,,,,,,l,0,2.851,"[""0.282"",""0.515"",""0.846"",""0.187""]","[1,1,1,0]",0,60,60,60,1,0,1,,,1,FALSE,,,,,,,,,,,,,,,,,,,,,,,,,,,,,,,
,61079833b85c714f52d7b957,627c75baeeadcaf1f3da047e,2022-05-11_19h50.27.204,classification_task,2021.2.3,Win32,60.19020104,627c6715c52fd12f31907bd0,,,,,,,,,,,,,,,,,,,,,,,a,1,2.6013,"[""0.245"",""0.388"",""0.694"",""0.887""]","[1,0,1,1]",0,61,61,61,1,0,0,,,1,FALSE,,,,,,,,,,,,,,,,,,,,,,,,,,,,,,,
,61079833b85c714f52d7b957,627c75baeeadcaf1f3da047e,2022-05-11_19h50.27.204,classification_task,2021.2.3,Win32,60.19020104,627c6715c52fd12f31907bd0,,,,,,,,,,,,,,,,,,,,,,,l,0,2.9533,"[""0.282"",""0.515"",""0.185"",""0.933""]","[1,1,0,1]",0,62,62,62,1,0,1,,,1,FALSE,,,,,,,,,,,,,,,,,,,,,,,,,,,,,,,
,61079833b85c714f52d7b957,627c75baeeadcaf1f3da047e,2022-05-11_19h50.27.204,classification_task,2021.2.3,Win32,60.19020104,627c6715c52fd12f31907bd0,,,,,,,,,,,,,,,,,,,,,,,a,1,3.136,"[""0.430"",""0.515"",""0.846"",""0.933""]","[0,1,1,1]",0,63,63,63,1,0,1,,,1,FALSE,,,,,,,,,,,,,,,,,,,,,,,,,,,,,,,
,61079833b85c714f52d7b957,627c75baeeadcaf1f3da047e,2022-05-11_19h50.27.204,classification_task,2021.2.3,Win32,60.19020104,627c6715c52fd12f31907bd0,,,,,,,,,,,,,,,,,,,,,,,,,,,,,,,,,,,,,,,0, ,,0,1.05379256,315.9133,0,2,2,2,1,2,3,,,,,,,,,,,,,,,,,,
,61079833b85c714f52d7b957,627c75baeeadcaf1f3da047e,2022-05-11_19h50.27.204,classification_task,2021.2.3,Win32,60.19020104,627c6715c52fd12f31907bd0,,,,,,,,,,,,,,,,,,,,,,,,,,,,,,,,,,,,,,,1,  ,,0,4.933862434,318.0635,0,2,2,2,1,2,3,,,,,,,,,,,,,,,,,,
,61079833b85c714f52d7b957,627c75baeeadcaf1f3da047e,2022-05-11_19h50.27.204,classification_task,2021.2.3,Win32,60.19020104,627c6715c52fd12f31907bd0,,,,,,,,,,,,,,,,,,,,,,,,,,,,,,,,,,,,,,,2,  ,,0,6.587301587,321.2337,0,2,2,2,1,2,3,,,,,,,,,,,,,,,,,,
,61079833b85c714f52d7b957,627c75baeeadcaf1f3da047e,2022-05-11_19h50.27.204,classification_task,2021.2.3,Win32,60.19020104,627c6715c52fd12f31907bd0,,,,,,,,,,,,,,,,,,,,,,,,,,,,,,,,,,,,,,,,,,,,,0,2,2,2,1,,3,,,,,,,,,,,,,,,,,,
,61079833b85c714f52d7b957,627c75baeeadcaf1f3da047e,2022-05-11_19h50.27.204,classification_task,2021.2.3,Win32,60.19020104,627c6715c52fd12f31907bd0,,,,,,,,,,,,,,,,,,,,,,,,,,,,,,,,,,,,,,,,,,,,,,,,,,,,,I believe the aid is a competent performer,,0.7,0,4,1165.6686,0,0,0,0,1,0,,,,,
,61079833b85c714f52d7b957,627c75baeeadcaf1f3da047e,2022-05-11_19h50.27.204,classification_task,2021.2.3,Win32,60.19020104,627c6715c52fd12f31907bd0,,,,,,,,,,,,,,,,,,,,,,,,,,,,,,,,,,,,,,,,,,,,,,,,,,,,,I trust the aid,,0.7,0,4,1167.7133,0,0,0,0,1,0,,,,,
,61079833b85c714f52d7b957,627c75baeeadcaf1f3da047e,2022-05-11_19h50.27.204,classification_task,2021.2.3,Win32,60.19020104,627c6715c52fd12f31907bd0,,,,,,,,,,,,,,,,,,,,,,,,,,,,,,,,,,,,,,,,,,,,,,,,,,,,,I have confidence in the advice given by the aid,,0.7,0,5,1169.5119,0,0,0,0,1,0,,,,,
,61079833b85c714f52d7b957,627c75baeeadcaf1f3da047e,2022-05-11_19h50.27.204,classification_task,2021.2.3,Win32,60.19020104,627c6715c52fd12f31907bd0,,,,,,,,,,,,,,,,,,,,,,,,,,,,,,,,,,,,,,,,,,,,,,,,,,,,,I can depend on the aid,,0.7,0,4,1172.0951,0,0,0,0,1,0,,,,,
,61079833b85c714f52d7b957,627c75baeeadcaf1f3da047e,2022-05-11_19h50.27.204,classification_task,2021.2.3,Win32,60.19020104,627c6715c52fd12f31907bd0,,,,,,,,,,,,,,,,,,,,,,,,,,,,,,,,,,,,,,,,,,,,,,,,,,,,,I can rely on the aid to behave in consistent ways,,0.7,0,4,1174.2609,0,0,0,0,1,0,,,,,
,61079833b85c714f52d7b957,627c75baeeadcaf1f3da047e,2022-05-11_19h50.27.204,classification_task,2021.2.3,Win32,60.19020104,627c6715c52fd12f31907bd0,,,,,,,,,,,,,,,,,,,,,,,,,,,,,,,,,,,,,,,,,,,,,,,,,,,,,I can rely on the aid to do its best every time I take its advice,,0.7,0,4,1176.6796,0,0,0,0,1,0,,,,,
,61079833b85c714f52d7b957,627c75baeeadcaf1f3da047e,2022-05-11_19h50.27.204,classification_task,2021.2.3,Win32,60.19020104,627c6715c52fd12f31907bd0,,,,,,,,,,,,,,,,,,,,,,,,,,,,,,,,,,,,,,,,,,,,,,,,,,,,,"On trials you completed with assistance from the aid, how frequently did you think the aid was correct?",,0.7,0,100%,,0,0,0,0,1,0,,,,,
,61079833b85c714f52d7b957,627c75baeeadcaf1f3da047e,2022-05-11_19h50.27.204,classification_task,2021.2.3,Win32,60.19020104,627c6715c52fd12f31907bd0,,,,,,,,,,,,,,,,,,,,,,,,,,,,,,,,,,,,,,,,,,,,,,,,,,,,,"On trials you completed without the aid, how frequently did you think you were correct?",,0.7,0,60%,,0,0,0,0,1,0,,,,,
,61079833b85c714f52d7b957,627c75baeeadcaf1f3da047e,2022-05-11_19h50.27.204,classification_task,2021.2.3,Win32,60.19020104,627c6715c52fd12f31907bd0,,,,,,,,,,,,,,,,,,,,,,,,,,,,,,,,,,,,,,,,,,,,,,,,,,,,,,,,,,,0,0,0,0,1,,,,,,
,61079833b85c714f52d7b957,627c75baeeadcaf1f3da047e,2022-05-11_19h50.27.204,classification_task,2021.2.3,Win32,60.19020104,627c6715c52fd12f31907bd0,,,,,,,,,,,,,,,,,,,,,,,,,,,,,,,,,,,,,,,,,,,,,,,,,,,,,,,,,,,,,,,,,space,9.0594,1203.4056,,
,61079833b85c714f52d7b957,627c75baeeadcaf1f3da047e,2022-05-11_19h50.27.204,classification_task,2021.2.3,Win32,60.19020104,627c6715c52fd12f31907bd0,,,,,,,,,,,,,,,,,,,,,,,,,,,,,,,,,,,,,,,,,,,,,,,,,,,,,,,,,,,,,,,,,,,,"Mozilla/5.0 (Windows NT 10.0; Win64; x64) AppleWebKit/537.36 (KHTML, like Gecko) Chrome/101.0.4951.54 Safari/537.36",
,61079833b85c714f52d7b957,627c75baeeadcaf1f3da047e,2022-05-11_19h50.27.204,classification_task,2021.2.3,Win32,60.19020104,627c6715c52fd12f31907bd0,,,,,,,,,,,,,,,,,,,,,,,,,,,,,,,,,,,,,,,,,,,,,,,,,,,,,,,,,,,,,,,,,,,,,LOWLIGHT
