usingWebGL,participant,session,date,expName,psychopyVersion,OS,frameRate,study_id,signatures_friend,signatures_foe,band_ranges_top,band_ranges_bottom,formitemText,formtype,formundefined,formitemWidth,formindex,formresponse,formrt,key_resp_2.keys,key_resp_2.rt,tute_resp.keys,tute_resp.rt,tutorial.thisRepN,tutorial.thisTrialN,tutorial.thisN,tutorial.thisIndex,tutorial.ran,key_resp_4.keys,key_resp_4.rt,key_resp.keys,key_resp.corr,lines_presented,is_signal_presented,trials.thisRepN,trials.thisTrialN,trials.thisN,trials.thisIndex,trials.ran,vessel,active_band,lines,is_signal,supported_pos,catch_trial,key_resp.rt,debrief_formindex,debrief_formitemText,debrief_formtype,debrief_formitemWidth,debrief_formresponse,debrief_formrt,phases.thisRepN,phases.thisTrialN,phases.thisN,phases.thisIndex,phases.ran,phases.order,phase,key_resp_3.keys,trustitemText,trusttype,trustitemWidth,trustindex,trustresponse,trustrt,support_status.thisRepN,support_status.thisTrialN,support_status.thisN,support_status.thisIndex,support_status.ran,support_status.order,key_resp_5.keys,key_resp_5.rt,globalClockTime,userAgent,manualCondition
TRUE,6108139e89cc5e0bcc998019,627c6ec43fdc241f4fe27455,2022-05-11_21h24.00.835,classification_task,2021.2.3,Win32,59.88382538,627c6715c52fd12f31907bd0,,,,,,,,,,,,,,,,,,,,,,,,,,,,,,,,,,,,,,,,,,,,,,,,,,,,,,,,,,,,,,,,,,,,,
,6108139e89cc5e0bcc998019,627c6ec43fdc241f4fe27455,2022-05-11_21h24.00.835,classification_task,2021.2.3,Win32,59.88382538,627c6715c52fd12f31907bd0,"[[""0.323"",""0.560"",""0.863"",""0.904""],[""0.262"",""0.421"",""0.635"",""0.941""]]","[[""0.121"",""0.377"",""0.504"",""0.826""],[""0.080"",""0.222"",""0.469"",""0.721""]]","[1,10]","[100,1000]",Video game experience,,,0.7,0,,,,,,,,,,,,,,,,,,,,,,,,,,,,,,,,,,,,,,,,,,,,,,,,,,,,,,,,,,,,
,6108139e89cc5e0bcc998019,627c6ec43fdc241f4fe27455,2022-05-11_21h24.00.835,classification_task,2021.2.3,Win32,59.88382538,627c6715c52fd12f31907bd0,,,,,Approximately how many hours did you spend playing video games in the last week?,,,0.7,0,12,,,,,,,,,,,,,,,,,,,,,,,,,,,,,,,,,,,,,,,,,,,,,,,,,,,,,,,,,,,
,6108139e89cc5e0bcc998019,627c6ec43fdc241f4fe27455,2022-05-11_21h24.00.835,classification_task,2021.2.3,Win32,59.88382538,627c6715c52fd12f31907bd0,,,,,"Which game did you play the most this year? (Enter ""None"" if you didn't play any)",,,0.7,0,Super Mario Bros,,,,,,,,,,,,,,,,,,,,,,,,,,,,,,,,,,,,,,,,,,,,,,,,,,,,,,,,,,,
,6108139e89cc5e0bcc998019,627c6ec43fdc241f4fe27455,2022-05-11_21h24.00.835,classification_task,2021.2.3,Win32,59.88382538,627c6715c52fd12f31907bd0,,,,,Visual perception,,,0.7,0,,,,,,,,,,,,,,,,,,,,,,,,,,,,,,,,,,,,,,,,,,,,,,,,,,,,,,,,,,,,
,6108139e89cc5e0bcc998019,627c6ec43fdc241f4fe27455,2022-05-11_21h24.00.835,classification_task,2021.2.3,Win32,59.88382538,627c6715c52fd12f31907bd0,,,,,Do you have any form of color blindness?,,,0.7,0,No,14.1127,,,,,,,,,,,,,,,,,,,,,,,,,,,,,,,,,,,,,,,,,,,,,,,,,,,,,,,,,,
,6108139e89cc5e0bcc998019,627c6ec43fdc241f4fe27455,2022-05-11_21h24.00.835,classification_task,2021.2.3,Win32,59.88382538,627c6715c52fd12f31907bd0,,,,,Do you use software to change the colour temperature of your screen (e.g. f.lux)?,,,0.7,0,No,14.857,,,,,,,,,,,,,,,,,,,,,,,,,,,,,,,,,,,,,,,,,,,,,,,,,,,,,,,,,,
,6108139e89cc5e0bcc998019,627c6ec43fdc241f4fe27455,2022-05-11_21h24.00.835,classification_task,2021.2.3,Win32,59.88382538,627c6715c52fd12f31907bd0,,,,,,,,,,,,space,1.5809,space,6.2051,0,0,0,0,1,,,,,,,,,,,,,,,,,,,,,,,,,,,,,,,,,,,,,,,,,,,,,,,,,
,6108139e89cc5e0bcc998019,627c6ec43fdc241f4fe27455,2022-05-11_21h24.00.835,classification_task,2021.2.3,Win32,59.88382538,627c6715c52fd12f31907bd0,,,,,,,,,,,,,,space,5.854,1,0,1,0,1,,,,,,,,,,,,,,,,,,,,,,,,,,,,,,,,,,,,,,,,,,,,,,,,,
,6108139e89cc5e0bcc998019,627c6ec43fdc241f4fe27455,2022-05-11_21h24.00.835,classification_task,2021.2.3,Win32,59.88382538,627c6715c52fd12f31907bd0,,,,,,,,,,,,,,space,16.1871,2,0,2,0,1,,,,,,,,,,,,,,,,,,,,,,,,,,,,,,,,,,,,,,,,,,,,,,,,,
,6108139e89cc5e0bcc998019,627c6ec43fdc241f4fe27455,2022-05-11_21h24.00.835,classification_task,2021.2.3,Win32,59.88382538,627c6715c52fd12f31907bd0,,,,,,,,,,,,,,space,19.7981,3,0,3,0,1,,,,,,,,,,,,,,,,,,,,,,,,,,,,,,,,,,,,,,,,,,,,,,,,,
,6108139e89cc5e0bcc998019,627c6ec43fdc241f4fe27455,2022-05-11_21h24.00.835,classification_task,2021.2.3,Win32,59.88382538,627c6715c52fd12f31907bd0,,,,,,,,,,,,,,space,11.0456,4,0,4,0,1,,,,,,,,,,,,,,,,,,,,,,,,,,,,,,,,,,,,,,,,,,,,,,,,,
,6108139e89cc5e0bcc998019,627c6ec43fdc241f4fe27455,2022-05-11_21h24.00.835,classification_task,2021.2.3,Win32,59.88382538,627c6715c52fd12f31907bd0,,,,,,,,,,,,,,,,,,,,,space,27.4698,,0,"[""0.262"",""0.169"",""0.635"",""0.941""]","[1,0,1,1]",0,0,0,0,1,0,1,,,0,FALSE,,,,,,,,,,,,,,,,,,,,,,,,,,,,,,,,
,6108139e89cc5e0bcc998019,627c6ec43fdc241f4fe27455,2022-05-11_21h24.00.835,classification_task,2021.2.3,Win32,59.88382538,627c6715c52fd12f31907bd0,,,,,,,,,,,,,,,,,,,,,,,a,0,"[""0.121"",""0.377"",""0.504"",""0.175""]","[1,1,1,0]",0,1,1,1,1,1,0,,,0,FALSE,4.139,,,,,,,,,,,,,,,,,,,,,,,,,,,,,,,
,6108139e89cc5e0bcc998019,627c6ec43fdc241f4fe27455,2022-05-11_21h24.00.835,classification_task,2021.2.3,Win32,59.88382538,627c6715c52fd12f31907bd0,,,,,,,,,,,,,,,,,,,,,,,l,0,"[""0.173"",""0.421"",""0.635"",""0.941""]","[0,1,1,1]",0,2,2,2,1,0,1,,,0,FALSE,4.366,,,,,,,,,,,,,,,,,,,,,,,,,,,,,,,
,6108139e89cc5e0bcc998019,627c6ec43fdc241f4fe27455,2022-05-11_21h24.00.835,classification_task,2021.2.3,Win32,59.88382538,627c6715c52fd12f31907bd0,,,,,,,,,,,,,,,,,,,,,,,l,1,"[""0.155"",""0.377"",""0.504"",""0.826""]","[0,1,1,1]",0,3,3,3,1,1,0,,,0,FALSE,4.0802,,,,,,,,,,,,,,,,,,,,,,,,,,,,,,,
,6108139e89cc5e0bcc998019,627c6ec43fdc241f4fe27455,2022-05-11_21h24.00.835,classification_task,2021.2.3,Win32,59.88382538,627c6715c52fd12f31907bd0,,,,,,,,,,,,,,,,,,,,,,,a,1,"[""0.323"",""0.560"",""0.683"",""0.904""]","[1,1,0,1]",0,4,4,4,1,0,0,,,0,FALSE,2.7716,,,,,,,,,,,,,,,,,,,,,,,,,,,,,,,
,6108139e89cc5e0bcc998019,627c6ec43fdc241f4fe27455,2022-05-11_21h24.00.835,classification_task,2021.2.3,Win32,59.88382538,627c6715c52fd12f31907bd0,,,,,,,,,,,,,,,,,,,,,,,l,1,"[""0.755"",""0.222"",""0.469"",""0.721""]","[0,1,1,1]",0,5,5,5,1,1,1,,,0,FALSE,3.1176,,,,,,,,,,,,,,,,,,,,,,,,,,,,,,,
,6108139e89cc5e0bcc998019,627c6ec43fdc241f4fe27455,2022-05-11_21h24.00.835,classification_task,2021.2.3,Win32,59.88382538,627c6715c52fd12f31907bd0,,,,,,,,,,,,,,,,,,,,,,,l,0,"[""0.685"",""0.560"",""0.863"",""0.904""]","[0,1,1,1]",0,6,6,6,1,0,0,,,0,FALSE,2.2508,,,,,,,,,,,,,,,,,,,,,,,,,,,,,,,
,6108139e89cc5e0bcc998019,627c6ec43fdc241f4fe27455,2022-05-11_21h24.00.835,classification_task,2021.2.3,Win32,59.88382538,627c6715c52fd12f31907bd0,,,,,,,,,,,,,,,,,,,,,,,a,0,"[""0.121"",""0.038"",""0.504"",""0.826""]","[1,0,1,1]",0,7,7,7,1,1,0,,,0,FALSE,2.2686,,,,,,,,,,,,,,,,,,,,,,,,,,,,,,,
,6108139e89cc5e0bcc998019,627c6ec43fdc241f4fe27455,2022-05-11_21h24.00.835,classification_task,2021.2.3,Win32,59.88382538,627c6715c52fd12f31907bd0,,,,,,,,,,,,,,,,,,,,,,,l,0,"[""0.262"",""0.421"",""0.754"",""0.941""]","[1,1,0,1]",0,8,8,8,1,0,1,,,0,FALSE,1.9555,,,,,,,,,,,,,,,,,,,,,,,,,,,,,,,
,6108139e89cc5e0bcc998019,627c6ec43fdc241f4fe27455,2022-05-11_21h24.00.835,classification_task,2021.2.3,Win32,59.88382538,627c6715c52fd12f31907bd0,,,,,,,,,,,,,,,,,,,,,,,a,1,"[""0.262"",""0.421"",""0.635"",""0.671""]","[1,1,1,0]",0,9,9,9,1,0,1,,,0,FALSE,1.6897,,,,,,,,,,,,,,,,,,,,,,,,,,,,,,,
,6108139e89cc5e0bcc998019,627c6ec43fdc241f4fe27455,2022-05-11_21h24.00.835,classification_task,2021.2.3,Win32,59.88382538,627c6715c52fd12f31907bd0,,,,,,,,,,,,,,,,,,,,,,,l,1,"[""0.080"",""0.173"",""0.469"",""0.721""]","[1,0,1,1]",0,10,10,10,1,1,1,,,0,FALSE,2.7174,,,,,,,,,,,,,,,,,,,,,,,,,,,,,,,
,6108139e89cc5e0bcc998019,627c6ec43fdc241f4fe27455,2022-05-11_21h24.00.835,classification_task,2021.2.3,Win32,59.88382538,627c6715c52fd12f31907bd0,,,,,,,,,,,,,,,,,,,,,,,l,1,"[""0.080"",""0.222"",""0.469"",""0.169""]","[1,1,1,0]",0,11,11,11,1,1,1,,,0,FALSE,2.9715,,,,,,,,,,,,,,,,,,,,,,,,,,,,,,,
,6108139e89cc5e0bcc998019,627c6ec43fdc241f4fe27455,2022-05-11_21h24.00.835,classification_task,2021.2.3,Win32,59.88382538,627c6715c52fd12f31907bd0,,,,,,,,,,,,,,,,,,,,,,,a,1,"[""0.323"",""0.156"",""0.863"",""0.904""]","[1,0,1,1]",0,12,12,12,1,0,0,,,0,FALSE,2.3182,,,,,,,,,,,,,,,,,,,,,,,,,,,,,,,
,6108139e89cc5e0bcc998019,627c6ec43fdc241f4fe27455,2022-05-11_21h24.00.835,classification_task,2021.2.3,Win32,59.88382538,627c6715c52fd12f31907bd0,,,,,,,,,,,,,,,,,,,,,,,a,1,"[""0.323"",""0.560"",""0.863"",""0.754""]","[1,1,1,0]",0,13,13,13,1,0,0,,,0,FALSE,1.7481,,,,,,,,,,,,,,,,,,,,,,,,,,,,,,,
,6108139e89cc5e0bcc998019,627c6ec43fdc241f4fe27455,2022-05-11_21h24.00.835,classification_task,2021.2.3,Win32,59.88382538,627c6715c52fd12f31907bd0,,,,,,,,,,,,,,,,,,,,,,,a,0,"[""0.121"",""0.377"",""0.038"",""0.826""]","[1,1,0,1]",0,14,14,14,1,1,0,,,0,FALSE,1.0812,,,,,,,,,,,,,,,,,,,,,,,,,,,,,,,
,6108139e89cc5e0bcc998019,627c6ec43fdc241f4fe27455,2022-05-11_21h24.00.835,classification_task,2021.2.3,Win32,59.88382538,627c6715c52fd12f31907bd0,,,,,,,,,,,,,,,,,,,,,,,l,1,"[""0.080"",""0.222"",""0.168"",""0.721""]","[1,1,0,1]",0,15,15,15,1,1,1,,,0,FALSE,2.5092,,,,,,,,,,,,,,,,,,,,,,,,,,,,,,,
,6108139e89cc5e0bcc998019,627c6ec43fdc241f4fe27455,2022-05-11_21h24.00.835,classification_task,2021.2.3,Win32,59.88382538,627c6715c52fd12f31907bd0,,,,,,,,,,,,,,,,,,,,,,,a,1,"[""0.323"",""0.560"",""0.863"",""0.756""]","[1,1,1,0]",0,16,16,16,1,0,0,,,0,FALSE,2.1537,,,,,,,,,,,,,,,,,,,,,,,,,,,,,,,
,6108139e89cc5e0bcc998019,627c6ec43fdc241f4fe27455,2022-05-11_21h24.00.835,classification_task,2021.2.3,Win32,59.88382538,627c6715c52fd12f31907bd0,,,,,,,,,,,,,,,,,,,,,,,a,1,"[""0.323"",""0.560"",""0.754"",""0.904""]","[1,1,0,1]",0,17,17,17,1,0,0,,,0,FALSE,1.7636,,,,,,,,,,,,,,,,,,,,,,,,,,,,,,,
,6108139e89cc5e0bcc998019,627c6ec43fdc241f4fe27455,2022-05-11_21h24.00.835,classification_task,2021.2.3,Win32,59.88382538,627c6715c52fd12f31907bd0,,,,,,,,,,,,,,,,,,,,,,,l,0,"[""0.038"",""0.560"",""0.863"",""0.904""]","[0,1,1,1]",0,18,18,18,1,0,0,,,0,FALSE,1.7443,,,,,,,,,,,,,,,,,,,,,,,,,,,,,,,
,6108139e89cc5e0bcc998019,627c6ec43fdc241f4fe27455,2022-05-11_21h24.00.835,classification_task,2021.2.3,Win32,59.88382538,627c6715c52fd12f31907bd0,,,,,,,,,,,,,,,,,,,,,,,l,0,"[""0.169"",""0.421"",""0.635"",""0.941""]","[0,1,1,1]",0,19,19,19,1,0,1,,,0,FALSE,2.1464,,,,,,,,,,,,,,,,,,,,,,,,,,,,,,,
,6108139e89cc5e0bcc998019,627c6ec43fdc241f4fe27455,2022-05-11_21h24.00.835,classification_task,2021.2.3,Win32,59.88382538,627c6715c52fd12f31907bd0,,,,,,,,,,,,,,,,,,,,,,,a,1,"[""0.323"",""0.755"",""0.863"",""0.904""]","[1,0,1,1]",0,20,20,20,1,0,0,,,0,FALSE,1.5875,,,,,,,,,,,,,,,,,,,,,,,,,,,,,,,
,6108139e89cc5e0bcc998019,627c6ec43fdc241f4fe27455,2022-05-11_21h24.00.835,classification_task,2021.2.3,Win32,59.88382538,627c6715c52fd12f31907bd0,,,,,,,,,,,,,,,,,,,,,,,l,1,"[""0.175"",""0.377"",""0.504"",""0.826""]","[0,1,1,1]",0,21,21,21,1,1,0,,,0,FALSE,1.6881,,,,,,,,,,,,,,,,,,,,,,,,,,,,,,,
,6108139e89cc5e0bcc998019,627c6ec43fdc241f4fe27455,2022-05-11_21h24.00.835,classification_task,2021.2.3,Win32,59.88382538,627c6715c52fd12f31907bd0,,,,,,,,,,,,,,,,,,,,,,,a,0,"[""0.080"",""0.156"",""0.469"",""0.721""]","[1,0,1,1]",0,22,22,22,1,1,1,,,0,FALSE,2.226,,,,,,,,,,,,,,,,,,,,,,,,,,,,,,,
,6108139e89cc5e0bcc998019,627c6ec43fdc241f4fe27455,2022-05-11_21h24.00.835,classification_task,2021.2.3,Win32,59.88382538,627c6715c52fd12f31907bd0,,,,,,,,,,,,,,,,,,,,,,,l,1,"[""0.121"",""0.755"",""0.504"",""0.826""]","[1,0,1,1]",0,23,23,23,1,1,0,,,0,FALSE,1.8204,,,,,,,,,,,,,,,,,,,,,,,,,,,,,,,
,6108139e89cc5e0bcc998019,627c6ec43fdc241f4fe27455,2022-05-11_21h24.00.835,classification_task,2021.2.3,Win32,59.88382538,627c6715c52fd12f31907bd0,,,,,,,,,,,,,,,,,,,,,,,a,1,"[""0.262"",""0.421"",""0.155"",""0.941""]","[1,1,0,1]",0,24,24,24,1,0,1,,,0,FALSE,1.1971,,,,,,,,,,,,,,,,,,,,,,,,,,,,,,,
,6108139e89cc5e0bcc998019,627c6ec43fdc241f4fe27455,2022-05-11_21h24.00.835,classification_task,2021.2.3,Win32,59.88382538,627c6715c52fd12f31907bd0,,,,,,,,,,,,,,,,,,,,,,,l,1,"[""0.155"",""0.222"",""0.469"",""0.721""]","[0,1,1,1]",0,25,25,25,1,1,1,,,0,FALSE,1.3974,,,,,,,,,,,,,,,,,,,,,,,,,,,,,,,
,6108139e89cc5e0bcc998019,627c6ec43fdc241f4fe27455,2022-05-11_21h24.00.835,classification_task,2021.2.3,Win32,59.88382538,627c6715c52fd12f31907bd0,,,,,,,,,,,,,,,,,,,,,,,l,1,"[""0.080"",""0.222"",""0.671"",""0.721""]","[1,1,0,1]",0,26,26,26,1,1,1,,,0,FALSE,2.1885,,,,,,,,,,,,,,,,,,,,,,,,,,,,,,,
,6108139e89cc5e0bcc998019,627c6ec43fdc241f4fe27455,2022-05-11_21h24.00.835,classification_task,2021.2.3,Win32,59.88382538,627c6715c52fd12f31907bd0,,,,,,,,,,,,,,,,,,,,,,,a,1,"[""0.262"",""0.421"",""0.635"",""0.173""]","[1,1,1,0]",0,27,27,27,1,0,1,,,0,FALSE,1.5472,,,,,,,,,,,,,,,,,,,,,,,,,,,,,,,
,6108139e89cc5e0bcc998019,627c6ec43fdc241f4fe27455,2022-05-11_21h24.00.835,classification_task,2021.2.3,Win32,59.88382538,627c6715c52fd12f31907bd0,,,,,,,,,,,,,,,,,,,,,,,l,1,"[""0.080"",""0.222"",""0.469"",""0.756""]","[1,1,1,0]",0,28,28,28,1,1,1,,,0,FALSE,1.6802,,,,,,,,,,,,,,,,,,,,,,,,,,,,,,,
,6108139e89cc5e0bcc998019,627c6ec43fdc241f4fe27455,2022-05-11_21h24.00.835,classification_task,2021.2.3,Win32,59.88382538,627c6715c52fd12f31907bd0,,,,,,,,,,,,,,,,,,,,,,,a,1,"[""0.262"",""0.685"",""0.635"",""0.941""]","[1,0,1,1]",0,29,29,29,1,0,1,,,0,FALSE,1.9049,,,,,,,,,,,,,,,,,,,,,,,,,,,,,,,
,6108139e89cc5e0bcc998019,627c6ec43fdc241f4fe27455,2022-05-11_21h24.00.835,classification_task,2021.2.3,Win32,59.88382538,627c6715c52fd12f31907bd0,,,,,,,,,,,,,,,,,,,,,,,l,1,"[""0.121"",""0.377"",""0.038"",""0.826""]","[1,1,0,1]",0,30,30,30,1,1,0,,,0,FALSE,2.6748,,,,,,,,,,,,,,,,,,,,,,,,,,,,,,,
,6108139e89cc5e0bcc998019,627c6ec43fdc241f4fe27455,2022-05-11_21h24.00.835,classification_task,2021.2.3,Win32,59.88382538,627c6715c52fd12f31907bd0,,,,,,,,,,,,,,,,,,,,,,,l,1,"[""0.121"",""0.377"",""0.504"",""0.685""]","[1,1,1,0]",0,31,31,31,1,1,0,,,0,FALSE,2.0382,,,,,,,,,,,,,,,,,,,,,,,,,,,,,,,
,6108139e89cc5e0bcc998019,627c6ec43fdc241f4fe27455,2022-05-11_21h24.00.835,classification_task,2021.2.3,Win32,59.88382538,627c6715c52fd12f31907bd0,,,,,,,,,,,,,,,,,,,,,,,a,1,"[""0.168"",""0.560"",""0.863"",""0.904""]","[0,1,1,1]",0,32,32,32,1,0,0,,,0,FALSE,4.2666,,,,,,,,,,,,,,,,,,,,,,,,,,,,,,,
,6108139e89cc5e0bcc998019,627c6ec43fdc241f4fe27455,2022-05-11_21h24.00.835,classification_task,2021.2.3,Win32,59.88382538,627c6715c52fd12f31907bd0,,,,,,,,,,,,,,,,,,,,,,,a,0,"[""0.121"",""0.038"",""0.504"",""0.826""]","[1,0,1,1]",0,33,33,33,1,1,0,,,0,FALSE,2.9039,,,,,,,,,,,,,,,,,,,,,,,,,,,,,,,
,6108139e89cc5e0bcc998019,627c6ec43fdc241f4fe27455,2022-05-11_21h24.00.835,classification_task,2021.2.3,Win32,59.88382538,627c6715c52fd12f31907bd0,,,,,,,,,,,,,,,,,,,,,,,l,0,"[""0.323"",""0.560"",""0.168"",""0.904""]","[1,1,0,1]",0,34,34,34,1,0,0,,,0,FALSE,1.107,,,,,,,,,,,,,,,,,,,,,,,,,,,,,,,
,6108139e89cc5e0bcc998019,627c6ec43fdc241f4fe27455,2022-05-11_21h24.00.835,classification_task,2021.2.3,Win32,59.88382538,627c6715c52fd12f31907bd0,,,,,,,,,,,,,,,,,,,,,,,a,1,"[""0.262"",""0.421"",""0.155"",""0.941""]","[1,1,0,1]",0,35,35,35,1,0,1,,,0,FALSE,0.7838,,,,,,,,,,,,,,,,,,,,,,,,,,,,,,,
,6108139e89cc5e0bcc998019,627c6ec43fdc241f4fe27455,2022-05-11_21h24.00.835,classification_task,2021.2.3,Win32,59.88382538,627c6715c52fd12f31907bd0,,,,,,,,,,,,,,,,,,,,,,,a,1,"[""0.323"",""0.187"",""0.863"",""0.904""]","[1,0,1,1]",0,36,36,36,1,0,0,,,0,FALSE,0.9822,,,,,,,,,,,,,,,,,,,,,,,,,,,,,,,
,6108139e89cc5e0bcc998019,627c6ec43fdc241f4fe27455,2022-05-11_21h24.00.835,classification_task,2021.2.3,Win32,59.88382538,627c6715c52fd12f31907bd0,,,,,,,,,,,,,,,,,,,,,,,a,1,"[""0.262"",""0.421"",""0.635"",""0.671""]","[1,1,1,0]",0,37,37,37,1,0,1,,,0,FALSE,0.7509,,,,,,,,,,,,,,,,,,,,,,,,,,,,,,,
,6108139e89cc5e0bcc998019,627c6ec43fdc241f4fe27455,2022-05-11_21h24.00.835,classification_task,2021.2.3,Win32,59.88382538,627c6715c52fd12f31907bd0,,,,,,,,,,,,,,,,,,,,,,,l,1,"[""0.121"",""0.377"",""0.773"",""0.826""]","[1,1,0,1]",0,38,38,38,1,1,0,,,0,FALSE,1.248,,,,,,,,,,,,,,,,,,,,,,,,,,,,,,,
,6108139e89cc5e0bcc998019,627c6ec43fdc241f4fe27455,2022-05-11_21h24.00.835,classification_task,2021.2.3,Win32,59.88382538,627c6715c52fd12f31907bd0,,,,,,,,,,,,,,,,,,,,,,,l,1,"[""0.080"",""0.756"",""0.469"",""0.721""]","[1,0,1,1]",0,39,39,39,1,1,1,,,0,FALSE,1.1812,,,,,,,,,,,,,,,,,,,,,,,,,,,,,,,
,6108139e89cc5e0bcc998019,627c6ec43fdc241f4fe27455,2022-05-11_21h24.00.835,classification_task,2021.2.3,Win32,59.88382538,627c6715c52fd12f31907bd0,,,,,,,,,,,,,,,,,,,,,,,a,1,"[""0.773"",""0.421"",""0.635"",""0.941""]","[0,1,1,1]",0,40,40,40,1,0,1,,,0,FALSE,1.1653,,,,,,,,,,,,,,,,,,,,,,,,,,,,,,,
,6108139e89cc5e0bcc998019,627c6ec43fdc241f4fe27455,2022-05-11_21h24.00.835,classification_task,2021.2.3,Win32,59.88382538,627c6715c52fd12f31907bd0,,,,,,,,,,,,,,,,,,,,,,,a,1,"[""0.262"",""0.773"",""0.635"",""0.941""]","[1,0,1,1]",0,41,41,41,1,0,1,,,0,FALSE,0.6151,,,,,,,,,,,,,,,,,,,,,,,,,,,,,,,
,6108139e89cc5e0bcc998019,627c6ec43fdc241f4fe27455,2022-05-11_21h24.00.835,classification_task,2021.2.3,Win32,59.88382538,627c6715c52fd12f31907bd0,,,,,,,,,,,,,,,,,,,,,,,a,1,"[""0.323"",""0.560"",""0.863"",""0.773""]","[1,1,1,0]",0,42,42,42,1,0,0,,,0,FALSE,0.9544,,,,,,,,,,,,,,,,,,,,,,,,,,,,,,,
,6108139e89cc5e0bcc998019,627c6ec43fdc241f4fe27455,2022-05-11_21h24.00.835,classification_task,2021.2.3,Win32,59.88382538,627c6715c52fd12f31907bd0,,,,,,,,,,,,,,,,,,,,,,,l,1,"[""0.187"",""0.377"",""0.504"",""0.826""]","[0,1,1,1]",0,43,43,43,1,1,0,,,0,FALSE,1.0373,,,,,,,,,,,,,,,,,,,,,,,,,,,,,,,
,6108139e89cc5e0bcc998019,627c6ec43fdc241f4fe27455,2022-05-11_21h24.00.835,classification_task,2021.2.3,Win32,59.88382538,627c6715c52fd12f31907bd0,,,,,,,,,,,,,,,,,,,,,,,l,1,"[""0.080"",""0.222"",""0.469"",""0.155""]","[1,1,1,0]",0,44,44,44,1,1,1,,,0,FALSE,0.7653,,,,,,,,,,,,,,,,,,,,,,,,,,,,,,,
,6108139e89cc5e0bcc998019,627c6ec43fdc241f4fe27455,2022-05-11_21h24.00.835,classification_task,2021.2.3,Win32,59.88382538,627c6715c52fd12f31907bd0,,,,,,,,,,,,,,,,,,,,,,,a,0,"[""0.773"",""0.222"",""0.469"",""0.721""]","[0,1,1,1]",0,45,45,45,1,1,1,,,0,FALSE,0.8319,,,,,,,,,,,,,,,,,,,,,,,,,,,,,,,
,6108139e89cc5e0bcc998019,627c6ec43fdc241f4fe27455,2022-05-11_21h24.00.835,classification_task,2021.2.3,Win32,59.88382538,627c6715c52fd12f31907bd0,,,,,,,,,,,,,,,,,,,,,,,l,1,"[""0.080"",""0.222"",""0.754"",""0.721""]","[1,1,0,1]",0,46,46,46,1,1,1,,,0,FALSE,0.9151,,,,,,,,,,,,,,,,,,,,,,,,,,,,,,,
,6108139e89cc5e0bcc998019,627c6ec43fdc241f4fe27455,2022-05-11_21h24.00.835,classification_task,2021.2.3,Win32,59.88382538,627c6715c52fd12f31907bd0,,,,,,,,,,,,,,,,,,,,,,,l,1,"[""0.121"",""0.377"",""0.504"",""0.754""]","[1,1,1,0]",0,47,47,47,1,1,0,,,0,FALSE,1.1482,,,,,,,,,,,,,,,,,,,,,,,,,,,,,,,
,6108139e89cc5e0bcc998019,627c6ec43fdc241f4fe27455,2022-05-11_21h24.00.835,classification_task,2021.2.3,Win32,59.88382538,627c6715c52fd12f31907bd0,,,,,,,,,,,,,,,,,,,,,,,a,1,"[""0.262"",""0.169"",""0.635"",""0.941""]","[1,0,1,1]",0,48,48,48,1,0,1,,,0,FALSE,1.2325,,,,,,,,,,,,,,,,,,,,,,,,,,,,,,,
,6108139e89cc5e0bcc998019,627c6ec43fdc241f4fe27455,2022-05-11_21h24.00.835,classification_task,2021.2.3,Win32,59.88382538,627c6715c52fd12f31907bd0,,,,,,,,,,,,,,,,,,,,,,,l,1,"[""0.080"",""0.756"",""0.469"",""0.721""]","[1,0,1,1]",0,49,49,49,1,1,1,,,0,FALSE,1.6373,,,,,,,,,,,,,,,,,,,,,,,,,,,,,,,
,6108139e89cc5e0bcc998019,627c6ec43fdc241f4fe27455,2022-05-11_21h24.00.835,classification_task,2021.2.3,Win32,59.88382538,627c6715c52fd12f31907bd0,,,,,,,,,,,,,,,,,,,,,,,a,1,"[""0.323"",""0.187"",""0.863"",""0.904""]","[1,0,1,1]",0,50,50,50,1,0,0,,,0,FALSE,2.0177,,,,,,,,,,,,,,,,,,,,,,,,,,,,,,,
,6108139e89cc5e0bcc998019,627c6ec43fdc241f4fe27455,2022-05-11_21h24.00.835,classification_task,2021.2.3,Win32,59.88382538,627c6715c52fd12f31907bd0,,,,,,,,,,,,,,,,,,,,,,,a,1,"[""0.262"",""0.421"",""0.155"",""0.941""]","[1,1,0,1]",0,51,51,51,1,0,1,,,0,FALSE,0.8908,,,,,,,,,,,,,,,,,,,,,,,,,,,,,,,
,6108139e89cc5e0bcc998019,627c6ec43fdc241f4fe27455,2022-05-11_21h24.00.835,classification_task,2021.2.3,Win32,59.88382538,627c6715c52fd12f31907bd0,,,,,,,,,,,,,,,,,,,,,,,l,1,"[""0.187"",""0.377"",""0.504"",""0.826""]","[0,1,1,1]",0,52,52,52,1,1,0,,,0,FALSE,1.4478,,,,,,,,,,,,,,,,,,,,,,,,,,,,,,,
,6108139e89cc5e0bcc998019,627c6ec43fdc241f4fe27455,2022-05-11_21h24.00.835,classification_task,2021.2.3,Win32,59.88382538,627c6715c52fd12f31907bd0,,,,,,,,,,,,,,,,,,,,,,,a,1,"[""0.156"",""0.560"",""0.863"",""0.904""]","[0,1,1,1]",0,53,53,53,1,0,0,,,0,FALSE,0.8859,,,,,,,,,,,,,,,,,,,,,,,,,,,,,,,
,6108139e89cc5e0bcc998019,627c6ec43fdc241f4fe27455,2022-05-11_21h24.00.835,classification_task,2021.2.3,Win32,59.88382538,627c6715c52fd12f31907bd0,,,,,,,,,,,,,,,,,,,,,,,a,1,"[""0.262"",""0.421"",""0.635"",""0.038""]","[1,1,1,0]",0,54,54,54,1,0,1,,,0,FALSE,0.9017,,,,,,,,,,,,,,,,,,,,,,,,,,,,,,,
,6108139e89cc5e0bcc998019,627c6ec43fdc241f4fe27455,2022-05-11_21h24.00.835,classification_task,2021.2.3,Win32,59.88382538,627c6715c52fd12f31907bd0,,,,,,,,,,,,,,,,,,,,,,,l,1,"[""0.080"",""0.222"",""0.168"",""0.721""]","[1,1,0,1]",0,55,55,55,1,1,1,,,0,FALSE,0.9839,,,,,,,,,,,,,,,,,,,,,,,,,,,,,,,
,6108139e89cc5e0bcc998019,627c6ec43fdc241f4fe27455,2022-05-11_21h24.00.835,classification_task,2021.2.3,Win32,59.88382538,627c6715c52fd12f31907bd0,,,,,,,,,,,,,,,,,,,,,,,a,1,"[""0.038"",""0.421"",""0.635"",""0.941""]","[0,1,1,1]",0,56,56,56,1,0,1,,,0,FALSE,0.8649,,,,,,,,,,,,,,,,,,,,,,,,,,,,,,,
,6108139e89cc5e0bcc998019,627c6ec43fdc241f4fe27455,2022-05-11_21h24.00.835,classification_task,2021.2.3,Win32,59.88382538,627c6715c52fd12f31907bd0,,,,,,,,,,,,,,,,,,,,,,,a,0,"[""0.121"",""0.773"",""0.504"",""0.826""]","[1,0,1,1]",0,57,57,57,1,1,0,,,0,FALSE,0.716,,,,,,,,,,,,,,,,,,,,,,,,,,,,,,,
,6108139e89cc5e0bcc998019,627c6ec43fdc241f4fe27455,2022-05-11_21h24.00.835,classification_task,2021.2.3,Win32,59.88382538,627c6715c52fd12f31907bd0,,,,,,,,,,,,,,,,,,,,,,,l,1,"[""0.080"",""0.222"",""0.469"",""0.168""]","[1,1,1,0]",0,58,58,58,1,1,1,,,0,FALSE,0.822,,,,,,,,,,,,,,,,,,,,,,,,,,,,,,,
,6108139e89cc5e0bcc998019,627c6ec43fdc241f4fe27455,2022-05-11_21h24.00.835,classification_task,2021.2.3,Win32,59.88382538,627c6715c52fd12f31907bd0,,,,,,,,,,,,,,,,,,,,,,,a,1,"[""0.323"",""0.560"",""0.173"",""0.904""]","[1,1,0,1]",0,59,59,59,1,0,0,,,0,FALSE,0.5824,,,,,,,,,,,,,,,,,,,,,,,,,,,,,,,
,6108139e89cc5e0bcc998019,627c6ec43fdc241f4fe27455,2022-05-11_21h24.00.835,classification_task,2021.2.3,Win32,59.88382538,627c6715c52fd12f31907bd0,,,,,,,,,,,,,,,,,,,,,,,l,1,"[""0.121"",""0.377"",""0.504"",""0.037""]","[1,1,1,0]",0,60,60,60,1,1,0,,,0,FALSE,0.6826,,,,,,,,,,,,,,,,,,,,,,,,,,,,,,,
,6108139e89cc5e0bcc998019,627c6ec43fdc241f4fe27455,2022-05-11_21h24.00.835,classification_task,2021.2.3,Win32,59.88382538,627c6715c52fd12f31907bd0,,,,,,,,,,,,,,,,,,,,,,,a,0,"[""0.121"",""0.377"",""0.156"",""0.826""]","[1,1,0,1]",0,61,61,61,1,1,0,,,0,FALSE,0.3648,,,,,,,,,,,,,,,,,,,,,,,,,,,,,,,
,6108139e89cc5e0bcc998019,627c6ec43fdc241f4fe27455,2022-05-11_21h24.00.835,classification_task,2021.2.3,Win32,59.88382538,627c6715c52fd12f31907bd0,,,,,,,,,,,,,,,,,,,,,,,a,0,"[""0.038"",""0.222"",""0.469"",""0.721""]","[0,1,1,1]",0,62,62,62,1,1,1,,,0,FALSE,0.8172,,,,,,,,,,,,,,,,,,,,,,,,,,,,,,,
,6108139e89cc5e0bcc998019,627c6ec43fdc241f4fe27455,2022-05-11_21h24.00.835,classification_task,2021.2.3,Win32,59.88382538,627c6715c52fd12f31907bd0,,,,,,,,,,,,,,,,,,,,,,,l,0,"[""0.323"",""0.560"",""0.863"",""0.155""]","[1,1,1,0]",0,63,63,63,1,0,0,,,0,FALSE,0.6157,,,,,,,,,,,,,,,,,,,,,,,,,,,,,,,
,6108139e89cc5e0bcc998019,627c6ec43fdc241f4fe27455,2022-05-11_21h24.00.835,classification_task,2021.2.3,Win32,59.88382538,627c6715c52fd12f31907bd0,,,,,,,,,,,,,,,,,,,,,,,,,,,,,,,,,,,,,,,0, ,,0,0.625275573,358.1283,0,0,0,0,1,2,1,,,,,,,,,,,,,,,,,,
,6108139e89cc5e0bcc998019,627c6ec43fdc241f4fe27455,2022-05-11_21h24.00.835,classification_task,2021.2.3,Win32,59.88382538,627c6715c52fd12f31907bd0,,,,,,,,,,,,,,,,,,,,,,,,,,,,,,,,,,,,,,,1,  ,,0,4.207727072,363.9827,0,0,0,0,1,2,1,,,,,,,,,,,,,,,,,,
,6108139e89cc5e0bcc998019,627c6ec43fdc241f4fe27455,2022-05-11_21h24.00.835,classification_task,2021.2.3,Win32,59.88382538,627c6715c52fd12f31907bd0,,,,,,,,,,,,,,,,,,,,,,,,,,,,,,,,,,,,,,,2,  ,,0,0.625275573,367.4243,0,0,0,0,1,2,1,,,,,,,,,,,,,,,,,,
,6108139e89cc5e0bcc998019,627c6ec43fdc241f4fe27455,2022-05-11_21h24.00.835,classification_task,2021.2.3,Win32,59.88382538,627c6715c52fd12f31907bd0,,,,,,,,,,,,,,,,,,,,,,,,,,,,,,,,,,,,,,,,,,,,,0,0,0,0,1,,1,,,,,,,,,,,,,,,,,,
,6108139e89cc5e0bcc998019,627c6ec43fdc241f4fe27455,2022-05-11_21h24.00.835,classification_task,2021.2.3,Win32,59.88382538,627c6715c52fd12f31907bd0,,,,,,,,,,,,,,,,,,,,,space,31.606,l,1,"[""0.080"",""0.685"",""0.469"",""0.721""]","[1,0,1,1]",0,0,0,0,1,1,1,,,0,FALSE,3.5201,,,,,,,,,,,,,,,,,,,,,,,,,,,,,,,
,6108139e89cc5e0bcc998019,627c6ec43fdc241f4fe27455,2022-05-11_21h24.00.835,classification_task,2021.2.3,Win32,59.88382538,627c6715c52fd12f31907bd0,,,,,,,,,,,,,,,,,,,,,,,l,1,"[""0.121"",""0.377"",""0.175"",""0.826""]","[1,1,0,1]",0,1,1,1,1,1,0,,,0,FALSE,2.6773,,,,,,,,,,,,,,,,,,,,,,,,,,,,,,,
,6108139e89cc5e0bcc998019,627c6ec43fdc241f4fe27455,2022-05-11_21h24.00.835,classification_task,2021.2.3,Win32,59.88382538,627c6715c52fd12f31907bd0,,,,,,,,,,,,,,,,,,,,,,,l,1,"[""0.080"",""0.222"",""0.156"",""0.721""]","[1,1,0,1]",0,2,2,2,1,1,1,,,0,FALSE,1.5468,,,,,,,,,,,,,,,,,,,,,,,,,,,,,,,
,6108139e89cc5e0bcc998019,627c6ec43fdc241f4fe27455,2022-05-11_21h24.00.835,classification_task,2021.2.3,Win32,59.88382538,627c6715c52fd12f31907bd0,,,,,,,,,,,,,,,,,,,,,,,a,1,"[""0.323"",""0.755"",""0.863"",""0.904""]","[1,0,1,1]",0,3,3,3,1,0,0,,,0,FALSE,0.9977,,,,,,,,,,,,,,,,,,,,,,,,,,,,,,,
,6108139e89cc5e0bcc998019,627c6ec43fdc241f4fe27455,2022-05-11_21h24.00.835,classification_task,2021.2.3,Win32,59.88382538,627c6715c52fd12f31907bd0,,,,,,,,,,,,,,,,,,,,,,,l,0,"[""0.262"",""0.421"",""0.635"",""0.175""]","[1,1,1,0]",0,4,4,4,1,0,1,,,0,FALSE,1.3802,,,,,,,,,,,,,,,,,,,,,,,,,,,,,,,
,6108139e89cc5e0bcc998019,627c6ec43fdc241f4fe27455,2022-05-11_21h24.00.835,classification_task,2021.2.3,Win32,59.88382538,627c6715c52fd12f31907bd0,,,,,,,,,,,,,,,,,,,,,,,a,1,"[""0.323"",""0.560"",""0.863"",""0.755""]","[1,1,1,0]",0,5,5,5,1,0,0,,,0,FALSE,0.7978,,,,,,,,,,,,,,,,,,,,,,,,,,,,,,,
,6108139e89cc5e0bcc998019,627c6ec43fdc241f4fe27455,2022-05-11_21h24.00.835,classification_task,2021.2.3,Win32,59.88382538,627c6715c52fd12f31907bd0,,,,,,,,,,,,,,,,,,,,,,,a,1,"[""0.755"",""0.421"",""0.635"",""0.941""]","[0,1,1,1]",0,6,6,6,1,0,1,,,0,FALSE,1.0811,,,,,,,,,,,,,,,,,,,,,,,,,,,,,,,
,6108139e89cc5e0bcc998019,627c6ec43fdc241f4fe27455,2022-05-11_21h24.00.835,classification_task,2021.2.3,Win32,59.88382538,627c6715c52fd12f31907bd0,,,,,,,,,,,,,,,,,,,,,,,a,1,"[""0.262"",""0.754"",""0.635"",""0.941""]","[1,0,1,1]",0,7,7,7,1,0,1,,,0,FALSE,0.6995,,,,,,,,,,,,,,,,,,,,,,,,,,,,,,,
,6108139e89cc5e0bcc998019,627c6ec43fdc241f4fe27455,2022-05-11_21h24.00.835,classification_task,2021.2.3,Win32,59.88382538,627c6715c52fd12f31907bd0,,,,,,,,,,,,,,,,,,,,,,,l,1,"[""0.080"",""0.222"",""0.469"",""0.173""]","[1,1,1,0]",0,8,8,8,1,1,1,,,0,FALSE,0.6827,,,,,,,,,,,,,,,,,,,,,,,,,,,,,,,
,6108139e89cc5e0bcc998019,627c6ec43fdc241f4fe27455,2022-05-11_21h24.00.835,classification_task,2021.2.3,Win32,59.88382538,627c6715c52fd12f31907bd0,,,,,,,,,,,,,,,,,,,,,,,a,1,"[""0.262"",""0.421"",""0.173"",""0.941""]","[1,1,0,1]",0,9,9,9,1,0,1,,,0,FALSE,0.9819,,,,,,,,,,,,,,,,,,,,,,,,,,,,,,,
,6108139e89cc5e0bcc998019,627c6ec43fdc241f4fe27455,2022-05-11_21h24.00.835,classification_task,2021.2.3,Win32,59.88382538,627c6715c52fd12f31907bd0,,,,,,,,,,,,,,,,,,,,,,,l,1,"[""0.756"",""0.377"",""0.504"",""0.826""]","[0,1,1,1]",0,10,10,10,1,1,0,,,0,FALSE,1.5464,,,,,,,,,,,,,,,,,,,,,,,,,,,,,,,
,6108139e89cc5e0bcc998019,627c6ec43fdc241f4fe27455,2022-05-11_21h24.00.835,classification_task,2021.2.3,Win32,59.88382538,627c6715c52fd12f31907bd0,,,,,,,,,,,,,,,,,,,,,,,a,1,"[""0.037"",""0.560"",""0.863"",""0.904""]","[0,1,1,1]",0,11,11,11,1,0,0,,,0,FALSE,0.849,,,,,,,,,,,,,,,,,,,,,,,,,,,,,,,
,6108139e89cc5e0bcc998019,627c6ec43fdc241f4fe27455,2022-05-11_21h24.00.835,classification_task,2021.2.3,Win32,59.88382538,627c6715c52fd12f31907bd0,,,,,,,,,,,,,,,,,,,,,,,l,1,"[""0.121"",""0.156"",""0.504"",""0.826""]","[1,0,1,1]",0,12,12,12,1,1,0,,,0,FALSE,0.8491,,,,,,,,,,,,,,,,,,,,,,,,,,,,,,,
,6108139e89cc5e0bcc998019,627c6ec43fdc241f4fe27455,2022-05-11_21h24.00.835,classification_task,2021.2.3,Win32,59.88382538,627c6715c52fd12f31907bd0,,,,,,,,,,,,,,,,,,,,,,,a,0,"[""0.671"",""0.222"",""0.469"",""0.721""]","[0,1,1,1]",0,13,13,13,1,1,1,,,0,FALSE,1.6294,,,,,,,,,,,,,,,,,,,,,,,,,,,,,,,
,6108139e89cc5e0bcc998019,627c6ec43fdc241f4fe27455,2022-05-11_21h24.00.835,classification_task,2021.2.3,Win32,59.88382538,627c6715c52fd12f31907bd0,,,,,,,,,,,,,,,,,,,,,,,l,0,"[""0.323"",""0.560"",""0.187"",""0.904""]","[1,1,0,1]",0,14,14,14,1,0,0,,,0,FALSE,0.7982,,,,,,,,,,,,,,,,,,,,,,,,,,,,,,,
,6108139e89cc5e0bcc998019,627c6ec43fdc241f4fe27455,2022-05-11_21h24.00.835,classification_task,2021.2.3,Win32,59.88382538,627c6715c52fd12f31907bd0,,,,,,,,,,,,,,,,,,,,,,,l,1,"[""0.121"",""0.377"",""0.504"",""0.173""]","[1,1,1,0]",0,15,15,15,1,1,0,,,0,FALSE,0.7815,,,,,,,,,,,,,,,,,,,,,,,,,,,,,,,
,6108139e89cc5e0bcc998019,627c6ec43fdc241f4fe27455,2022-05-11_21h24.00.835,classification_task,2021.2.3,Win32,59.88382538,627c6715c52fd12f31907bd0,,,,,,,,,,,,,,,,,,,,,,,a,1,"[""0.323"",""0.560"",""0.754"",""0.904""]","[1,1,0,1]",0,16,16,16,1,0,0,,,0,FALSE,0.4658,,,,,,,,,,,,,,,,,,,,,,,,,,,,,,,
,6108139e89cc5e0bcc998019,627c6ec43fdc241f4fe27455,2022-05-11_21h24.00.835,classification_task,2021.2.3,Win32,59.88382538,627c6715c52fd12f31907bd0,,,,,,,,,,,,,,,,,,,,,,,a,0,"[""0.080"",""0.173"",""0.469"",""0.721""]","[1,0,1,1]",0,17,17,17,1,1,1,,,0,FALSE,1.6961,,,,,,,,,,,,,,,,,,,,,,,,,,,,,,,
,6108139e89cc5e0bcc998019,627c6ec43fdc241f4fe27455,2022-05-11_21h24.00.835,classification_task,2021.2.3,Win32,59.88382538,627c6715c52fd12f31907bd0,,,,,,,,,,,,,,,,,,,,,,,l,1,"[""0.121"",""0.377"",""0.038"",""0.826""]","[1,1,0,1]",0,18,18,18,1,1,0,,,0,FALSE,1.3641,,,,,,,,,,,,,,,,,,,,,,,,,,,,,,,
,6108139e89cc5e0bcc998019,627c6ec43fdc241f4fe27455,2022-05-11_21h24.00.835,classification_task,2021.2.3,Win32,59.88382538,627c6715c52fd12f31907bd0,,,,,,,,,,,,,,,,,,,,,,,a,0,"[""0.754"",""0.222"",""0.469"",""0.721""]","[0,1,1,1]",0,19,19,19,1,1,1,,,0,FALSE,1.1799,,,,,,,,,,,,,,,,,,,,,,,,,,,,,,,
,6108139e89cc5e0bcc998019,627c6ec43fdc241f4fe27455,2022-05-11_21h24.00.835,classification_task,2021.2.3,Win32,59.88382538,627c6715c52fd12f31907bd0,,,,,,,,,,,,,,,,,,,,,,,l,1,"[""0.080"",""0.222"",""0.038"",""0.721""]","[1,1,0,1]",0,20,20,20,1,1,1,,,0,FALSE,1.0976,,,,,,,,,,,,,,,,,,,,,,,,,,,,,,,
,6108139e89cc5e0bcc998019,627c6ec43fdc241f4fe27455,2022-05-11_21h24.00.835,classification_task,2021.2.3,Win32,59.88382538,627c6715c52fd12f31907bd0,,,,,,,,,,,,,,,,,,,,,,,a,1,"[""0.262"",""0.421"",""0.635"",""0.038""]","[1,1,1,0]",0,21,21,21,1,0,1,,,0,FALSE,1.0815,,,,,,,,,,,,,,,,,,,,,,,,,,,,,,,
,6108139e89cc5e0bcc998019,627c6ec43fdc241f4fe27455,2022-05-11_21h24.00.835,classification_task,2021.2.3,Win32,59.88382538,627c6715c52fd12f31907bd0,,,,,,,,,,,,,,,,,,,,,,,a,1,"[""0.323"",""0.560"",""0.863"",""0.155""]","[1,1,1,0]",0,22,22,22,1,0,0,,,0,FALSE,0.7806,,,,,,,,,,,,,,,,,,,,,,,,,,,,,,,
,6108139e89cc5e0bcc998019,627c6ec43fdc241f4fe27455,2022-05-11_21h24.00.835,classification_task,2021.2.3,Win32,59.88382538,627c6715c52fd12f31907bd0,,,,,,,,,,,,,,,,,,,,,,,l,1,"[""0.080"",""0.222"",""0.469"",""0.155""]","[1,1,1,0]",0,23,23,23,1,1,1,,,0,FALSE,1.0476,,,,,,,,,,,,,,,,,,,,,,,,,,,,,,,
,6108139e89cc5e0bcc998019,627c6ec43fdc241f4fe27455,2022-05-11_21h24.00.835,classification_task,2021.2.3,Win32,59.88382538,627c6715c52fd12f31907bd0,,,,,,,,,,,,,,,,,,,,,,,l,1,"[""0.121"",""0.377"",""0.504"",""0.756""]","[1,1,1,0]",0,24,24,24,1,1,0,,,0,FALSE,0.9139,,,,,,,,,,,,,,,,,,,,,,,,,,,,,,,
,6108139e89cc5e0bcc998019,627c6ec43fdc241f4fe27455,2022-05-11_21h24.00.835,classification_task,2021.2.3,Win32,59.88382538,627c6715c52fd12f31907bd0,,,,,,,,,,,,,,,,,,,,,,,a,1,"[""0.262"",""0.683"",""0.635"",""0.941""]","[1,0,1,1]",0,25,25,25,1,0,1,,,0,FALSE,1.3307,,,,,,,,,,,,,,,,,,,,,,,,,,,,,,,
,6108139e89cc5e0bcc998019,627c6ec43fdc241f4fe27455,2022-05-11_21h24.00.835,classification_task,2021.2.3,Win32,59.88382538,627c6715c52fd12f31907bd0,,,,,,,,,,,,,,,,,,,,,,,a,1,"[""0.755"",""0.560"",""0.863"",""0.904""]","[0,1,1,1]",0,26,26,26,1,0,0,,,0,FALSE,0.6811,,,,,,,,,,,,,,,,,,,,,,,,,,,,,,,
,6108139e89cc5e0bcc998019,627c6ec43fdc241f4fe27455,2022-05-11_21h24.00.835,classification_task,2021.2.3,Win32,59.88382538,627c6715c52fd12f31907bd0,,,,,,,,,,,,,,,,,,,,,,,a,1,"[""0.262"",""0.421"",""0.175"",""0.941""]","[1,1,0,1]",0,27,27,27,1,0,1,,,0,FALSE,1.2471,,,,,,,,,,,,,,,,,,,,,,,,,,,,,,,
,6108139e89cc5e0bcc998019,627c6ec43fdc241f4fe27455,2022-05-11_21h24.00.835,classification_task,2021.2.3,Win32,59.88382538,627c6715c52fd12f31907bd0,,,,,,,,,,,,,,,,,,,,,,,l,1,"[""0.038"",""0.377"",""0.504"",""0.826""]","[0,1,1,1]",0,28,28,28,1,1,0,,,0,FALSE,0.8978,,,,,,,,,,,,,,,,,,,,,,,,,,,,,,,
,6108139e89cc5e0bcc998019,627c6ec43fdc241f4fe27455,2022-05-11_21h24.00.835,classification_task,2021.2.3,Win32,59.88382538,627c6715c52fd12f31907bd0,,,,,,,,,,,,,,,,,,,,,,,l,1,"[""0.121"",""0.037"",""0.504"",""0.826""]","[1,0,1,1]",0,29,29,29,1,1,0,,,0,FALSE,0.5662,,,,,,,,,,,,,,,,,,,,,,,,,,,,,,,
,6108139e89cc5e0bcc998019,627c6ec43fdc241f4fe27455,2022-05-11_21h24.00.835,classification_task,2021.2.3,Win32,59.88382538,627c6715c52fd12f31907bd0,,,,,,,,,,,,,,,,,,,,,,,a,1,"[""0.323"",""0.755"",""0.863"",""0.904""]","[1,0,1,1]",0,30,30,30,1,0,0,,,0,FALSE,0.7326,,,,,,,,,,,,,,,,,,,,,,,,,,,,,,,
,6108139e89cc5e0bcc998019,627c6ec43fdc241f4fe27455,2022-05-11_21h24.00.835,classification_task,2021.2.3,Win32,59.88382538,627c6715c52fd12f31907bd0,,,,,,,,,,,,,,,,,,,,,,,l,0,"[""0.169"",""0.421"",""0.635"",""0.941""]","[0,1,1,1]",0,31,31,31,1,0,1,,,0,FALSE,2.1627,,,,,,,,,,,,,,,,,,,,,,,,,,,,,,,
,6108139e89cc5e0bcc998019,627c6ec43fdc241f4fe27455,2022-05-11_21h24.00.835,classification_task,2021.2.3,Win32,59.88382538,627c6715c52fd12f31907bd0,,,,,,,,,,,,,,,,,,,,,,,l,1,"[""0.121"",""0.155"",""0.504"",""0.826""]","[1,0,1,1]",0,32,32,32,1,1,0,,,0,FALSE,0.9308,,,,,,,,,,,,,,,,,,,,,,,,,,,,,,,
,6108139e89cc5e0bcc998019,627c6ec43fdc241f4fe27455,2022-05-11_21h24.00.835,classification_task,2021.2.3,Win32,59.88382538,627c6715c52fd12f31907bd0,,,,,,,,,,,,,,,,,,,,,,,a,1,"[""0.262"",""0.168"",""0.635"",""0.941""]","[1,0,1,1]",0,33,33,33,1,0,1,,,0,FALSE,0.8313,,,,,,,,,,,,,,,,,,,,,,,,,,,,,,,
,6108139e89cc5e0bcc998019,627c6ec43fdc241f4fe27455,2022-05-11_21h24.00.835,classification_task,2021.2.3,Win32,59.88382538,627c6715c52fd12f31907bd0,,,,,,,,,,,,,,,,,,,,,,,a,1,"[""0.262"",""0.421"",""0.635"",""0.773""]","[1,1,1,0]",0,34,34,34,1,0,1,,,0,FALSE,0.8159,,,,,,,,,,,,,,,,,,,,,,,,,,,,,,,
,6108139e89cc5e0bcc998019,627c6ec43fdc241f4fe27455,2022-05-11_21h24.00.835,classification_task,2021.2.3,Win32,59.88382538,627c6715c52fd12f31907bd0,,,,,,,,,,,,,,,,,,,,,,,a,1,"[""0.323"",""0.560"",""0.169"",""0.904""]","[1,1,0,1]",0,35,35,35,1,0,0,,,0,FALSE,0.5488,,,,,,,,,,,,,,,,,,,,,,,,,,,,,,,
,6108139e89cc5e0bcc998019,627c6ec43fdc241f4fe27455,2022-05-11_21h24.00.835,classification_task,2021.2.3,Win32,59.88382538,627c6715c52fd12f31907bd0,,,,,,,,,,,,,,,,,,,,,,,l,1,"[""0.080"",""0.037"",""0.469"",""0.721""]","[1,0,1,1]",0,36,36,36,1,1,1,,,0,FALSE,1.2471,,,,,,,,,,,,,,,,,,,,,,,,,,,,,,,
,6108139e89cc5e0bcc998019,627c6ec43fdc241f4fe27455,2022-05-11_21h24.00.835,classification_task,2021.2.3,Win32,59.88382538,627c6715c52fd12f31907bd0,,,,,,,,,,,,,,,,,,,,,,,l,1,"[""0.080"",""0.222"",""0.168"",""0.721""]","[1,1,0,1]",0,37,37,37,1,1,1,,,0,FALSE,1.2477,,,,,,,,,,,,,,,,,,,,,,,,,,,,,,,
,6108139e89cc5e0bcc998019,627c6ec43fdc241f4fe27455,2022-05-11_21h24.00.835,classification_task,2021.2.3,Win32,59.88382538,627c6715c52fd12f31907bd0,,,,,,,,,,,,,,,,,,,,,,,a,1,"[""0.671"",""0.560"",""0.863"",""0.904""]","[0,1,1,1]",0,38,38,38,1,0,0,,,0,FALSE,0.548,,,,,,,,,,,,,,,,,,,,,,,,,,,,,,,
,6108139e89cc5e0bcc998019,627c6ec43fdc241f4fe27455,2022-05-11_21h24.00.835,classification_task,2021.2.3,Win32,59.88382538,627c6715c52fd12f31907bd0,,,,,,,,,,,,,,,,,,,,,,,l,1,"[""0.175"",""0.222"",""0.469"",""0.721""]","[0,1,1,1]",0,39,39,39,1,1,1,,,0,FALSE,1.3971,,,,,,,,,,,,,,,,,,,,,,,,,,,,,,,
,6108139e89cc5e0bcc998019,627c6ec43fdc241f4fe27455,2022-05-11_21h24.00.835,classification_task,2021.2.3,Win32,59.88382538,627c6715c52fd12f31907bd0,,,,,,,,,,,,,,,,,,,,,,,l,1,"[""0.756"",""0.377"",""0.504"",""0.826""]","[0,1,1,1]",0,40,40,40,1,1,0,,,0,FALSE,0.9643,,,,,,,,,,,,,,,,,,,,,,,,,,,,,,,
,6108139e89cc5e0bcc998019,627c6ec43fdc241f4fe27455,2022-05-11_21h24.00.835,classification_task,2021.2.3,Win32,59.88382538,627c6715c52fd12f31907bd0,,,,,,,,,,,,,,,,,,,,,,,l,1,"[""0.121"",""0.377"",""0.155"",""0.826""]","[1,1,0,1]",0,41,41,41,1,1,0,,,0,FALSE,0.6998,,,,,,,,,,,,,,,,,,,,,,,,,,,,,,,
,6108139e89cc5e0bcc998019,627c6ec43fdc241f4fe27455,2022-05-11_21h24.00.835,classification_task,2021.2.3,Win32,59.88382538,627c6715c52fd12f31907bd0,,,,,,,,,,,,,,,,,,,,,,,a,1,"[""0.262"",""0.421"",""0.156"",""0.941""]","[1,1,0,1]",0,42,42,42,1,0,1,,,0,FALSE,1.0976,,,,,,,,,,,,,,,,,,,,,,,,,,,,,,,
,6108139e89cc5e0bcc998019,627c6ec43fdc241f4fe27455,2022-05-11_21h24.00.835,classification_task,2021.2.3,Win32,59.88382538,627c6715c52fd12f31907bd0,,,,,,,,,,,,,,,,,,,,,,,a,1,"[""0.323"",""0.683"",""0.863"",""0.904""]","[1,0,1,1]",0,43,43,43,1,0,0,,,0,FALSE,0.6151,,,,,,,,,,,,,,,,,,,,,,,,,,,,,,,
,6108139e89cc5e0bcc998019,627c6ec43fdc241f4fe27455,2022-05-11_21h24.00.835,classification_task,2021.2.3,Win32,59.88382538,627c6715c52fd12f31907bd0,,,,,,,,,,,,,,,,,,,,,,,l,1,"[""0.121"",""0.377"",""0.504"",""0.037""]","[1,1,1,0]",0,44,44,44,1,1,0,,,0,FALSE,0.6325,,,,,,,,,,,,,,,,,,,,,,,,,,,,,,,
,6108139e89cc5e0bcc998019,627c6ec43fdc241f4fe27455,2022-05-11_21h24.00.835,classification_task,2021.2.3,Win32,59.88382538,627c6715c52fd12f31907bd0,,,,,,,,,,,,,,,,,,,,,,,a,1,"[""0.323"",""0.560"",""0.863"",""0.685""]","[1,1,1,0]",0,45,45,45,1,0,0,,,0,FALSE,0.5658,,,,,,,,,,,,,,,,,,,,,,,,,,,,,,,
,6108139e89cc5e0bcc998019,627c6ec43fdc241f4fe27455,2022-05-11_21h24.00.835,classification_task,2021.2.3,Win32,59.88382538,627c6715c52fd12f31907bd0,,,,,,,,,,,,,,,,,,,,,,,l,1,"[""0.080"",""0.222"",""0.469"",""0.175""]","[1,1,1,0]",0,46,46,46,1,1,1,,,0,FALSE,1.0975,,,,,,,,,,,,,,,,,,,,,,,,,,,,,,,
,6108139e89cc5e0bcc998019,627c6ec43fdc241f4fe27455,2022-05-11_21h24.00.835,classification_task,2021.2.3,Win32,59.88382538,627c6715c52fd12f31907bd0,,,,,,,,,,,,,,,,,,,,,,,a,1,"[""0.037"",""0.421"",""0.635"",""0.941""]","[0,1,1,1]",0,47,47,47,1,0,1,,,0,FALSE,1.1984,,,,,,,,,,,,,,,,,,,,,,,,,,,,,,,
,6108139e89cc5e0bcc998019,627c6ec43fdc241f4fe27455,2022-05-11_21h24.00.835,classification_task,2021.2.3,Win32,59.88382538,627c6715c52fd12f31907bd0,,,,,,,,,,,,,,,,,,,,,,,a,1,"[""0.262"",""0.421"",""0.635"",""0.756""]","[1,1,1,0]",0,48,48,48,1,0,1,,,0,FALSE,0.8322,,,,,,,,,,,,,,,,,,,,,,,,,,,,,,,
,6108139e89cc5e0bcc998019,627c6ec43fdc241f4fe27455,2022-05-11_21h24.00.835,classification_task,2021.2.3,Win32,59.88382538,627c6715c52fd12f31907bd0,,,,,,,,,,,,,,,,,,,,,,,a,1,"[""0.323"",""0.560"",""0.863"",""0.754""]","[1,1,1,0]",0,49,49,49,1,0,0,,,0,FALSE,0.7819,,,,,,,,,,,,,,,,,,,,,,,,,,,,,,,
,6108139e89cc5e0bcc998019,627c6ec43fdc241f4fe27455,2022-05-11_21h24.00.835,classification_task,2021.2.3,Win32,59.88382538,627c6715c52fd12f31907bd0,,,,,,,,,,,,,,,,,,,,,,,a,1,"[""0.262"",""0.175"",""0.635"",""0.941""]","[1,0,1,1]",0,50,50,50,1,0,1,,,0,FALSE,0.8643,,,,,,,,,,,,,,,,,,,,,,,,,,,,,,,
,6108139e89cc5e0bcc998019,627c6ec43fdc241f4fe27455,2022-05-11_21h24.00.835,classification_task,2021.2.3,Win32,59.88382538,627c6715c52fd12f31907bd0,,,,,,,,,,,,,,,,,,,,,,,l,1,"[""0.121"",""0.377"",""0.504"",""0.155""]","[1,1,1,0]",0,51,51,51,1,1,0,,,0,FALSE,0.5821,,,,,,,,,,,,,,,,,,,,,,,,,,,,,,,
,6108139e89cc5e0bcc998019,627c6ec43fdc241f4fe27455,2022-05-11_21h24.00.835,classification_task,2021.2.3,Win32,59.88382538,627c6715c52fd12f31907bd0,,,,,,,,,,,,,,,,,,,,,,,l,1,"[""0.121"",""0.377"",""0.756"",""0.826""]","[1,1,0,1]",0,52,52,52,1,1,0,,,0,FALSE,0.4993,,,,,,,,,,,,,,,,,,,,,,,,,,,,,,,
,6108139e89cc5e0bcc998019,627c6ec43fdc241f4fe27455,2022-05-11_21h24.00.835,classification_task,2021.2.3,Win32,59.88382538,627c6715c52fd12f31907bd0,,,,,,,,,,,,,,,,,,,,,,,a,1,"[""0.323"",""0.560"",""0.156"",""0.904""]","[1,1,0,1]",0,53,53,53,1,0,0,,,0,FALSE,0.5831,,,,,,,,,,,,,,,,,,,,,,,,,,,,,,,
,6108139e89cc5e0bcc998019,627c6ec43fdc241f4fe27455,2022-05-11_21h24.00.835,classification_task,2021.2.3,Win32,59.88382538,627c6715c52fd12f31907bd0,,,,,,,,,,,,,,,,,,,,,,,l,0,"[""0.683"",""0.421"",""0.635"",""0.941""]","[0,1,1,1]",0,54,54,54,1,0,1,,,0,FALSE,2.495,,,,,,,,,,,,,,,,,,,,,,,,,,,,,,,
,6108139e89cc5e0bcc998019,627c6ec43fdc241f4fe27455,2022-05-11_21h24.00.835,classification_task,2021.2.3,Win32,59.88382538,627c6715c52fd12f31907bd0,,,,,,,,,,,,,,,,,,,,,,,l,1,"[""0.080"",""0.756"",""0.469"",""0.721""]","[1,0,1,1]",0,55,55,55,1,1,1,,,0,FALSE,1.7636,,,,,,,,,,,,,,,,,,,,,,,,,,,,,,,
,6108139e89cc5e0bcc998019,627c6ec43fdc241f4fe27455,2022-05-11_21h24.00.835,classification_task,2021.2.3,Win32,59.88382538,627c6715c52fd12f31907bd0,,,,,,,,,,,,,,,,,,,,,,,a,1,"[""0.323"",""0.773"",""0.863"",""0.904""]","[1,0,1,1]",0,56,56,56,1,0,0,,,0,FALSE,0.7313,,,,,,,,,,,,,,,,,,,,,,,,,,,,,,,
,6108139e89cc5e0bcc998019,627c6ec43fdc241f4fe27455,2022-05-11_21h24.00.835,classification_task,2021.2.3,Win32,59.88382538,627c6715c52fd12f31907bd0,,,,,,,,,,,,,,,,,,,,,,,a,1,"[""0.683"",""0.560"",""0.863"",""0.904""]","[0,1,1,1]",0,57,57,57,1,0,0,,,0,FALSE,0.4994,,,,,,,,,,,,,,,,,,,,,,,,,,,,,,,
,6108139e89cc5e0bcc998019,627c6ec43fdc241f4fe27455,2022-05-11_21h24.00.835,classification_task,2021.2.3,Win32,59.88382538,627c6715c52fd12f31907bd0,,,,,,,,,,,,,,,,,,,,,,,l,1,"[""0.080"",""0.222"",""0.469"",""0.168""]","[1,1,1,0]",0,58,58,58,1,1,1,,,0,FALSE,1.0471,,,,,,,,,,,,,,,,,,,,,,,,,,,,,,,
,6108139e89cc5e0bcc998019,627c6ec43fdc241f4fe27455,2022-05-11_21h24.00.835,classification_task,2021.2.3,Win32,59.88382538,627c6715c52fd12f31907bd0,,,,,,,,,,,,,,,,,,,,,,,a,0,"[""0.175"",""0.222"",""0.469"",""0.721""]","[0,1,1,1]",0,59,59,59,1,1,1,,,0,FALSE,0.9158,,,,,,,,,,,,,,,,,,,,,,,,,,,,,,,
,6108139e89cc5e0bcc998019,627c6ec43fdc241f4fe27455,2022-05-11_21h24.00.835,classification_task,2021.2.3,Win32,59.88382538,627c6715c52fd12f31907bd0,,,,,,,,,,,,,,,,,,,,,,,l,1,"[""0.121"",""0.756"",""0.504"",""0.826""]","[1,0,1,1]",0,60,60,60,1,1,0,,,0,FALSE,0.7982,,,,,,,,,,,,,,,,,,,,,,,,,,,,,,,
,6108139e89cc5e0bcc998019,627c6ec43fdc241f4fe27455,2022-05-11_21h24.00.835,classification_task,2021.2.3,Win32,59.88382538,627c6715c52fd12f31907bd0,,,,,,,,,,,,,,,,,,,,,,,l,1,"[""0.685"",""0.377"",""0.504"",""0.826""]","[0,1,1,1]",0,61,61,61,1,1,0,,,0,FALSE,0.382,,,,,,,,,,,,,,,,,,,,,,,,,,,,,,,
,6108139e89cc5e0bcc998019,627c6ec43fdc241f4fe27455,2022-05-11_21h24.00.835,classification_task,2021.2.3,Win32,59.88382538,627c6715c52fd12f31907bd0,,,,,,,,,,,,,,,,,,,,,,,a,1,"[""0.262"",""0.421"",""0.168"",""0.941""]","[1,1,0,1]",0,62,62,62,1,0,1,,,0,FALSE,0.8814,,,,,,,,,,,,,,,,,,,,,,,,,,,,,,,
,6108139e89cc5e0bcc998019,627c6ec43fdc241f4fe27455,2022-05-11_21h24.00.835,classification_task,2021.2.3,Win32,59.88382538,627c6715c52fd12f31907bd0,,,,,,,,,,,,,,,,,,,,,,,l,1,"[""0.080"",""0.222"",""0.156"",""0.721""]","[1,1,0,1]",0,63,63,63,1,1,1,,,0,FALSE,1.0987,,,,,,,,,,,,,,,,,,,,,,,,,,,,,,,
,6108139e89cc5e0bcc998019,627c6ec43fdc241f4fe27455,2022-05-11_21h24.00.835,classification_task,2021.2.3,Win32,59.88382538,627c6715c52fd12f31907bd0,,,,,,,,,,,,,,,,,,,,,,,,,,,,,,,,,,,,,,,0, ,,0,2.037588183,182.892,0,1,1,1,1,2,2,,,,,,,,,,,,,,,,,,
,6108139e89cc5e0bcc998019,627c6ec43fdc241f4fe27455,2022-05-11_21h24.00.835,classification_task,2021.2.3,Win32,59.88382538,627c6715c52fd12f31907bd0,,,,,,,,,,,,,,,,,,,,,,,,,,,,,,,,,,,,,,,1,  ,,0,3.105434303,186.5842,0,1,1,1,1,2,2,,,,,,,,,,,,,,,,,,
,6108139e89cc5e0bcc998019,627c6ec43fdc241f4fe27455,2022-05-11_21h24.00.835,classification_task,2021.2.3,Win32,59.88382538,627c6715c52fd12f31907bd0,,,,,,,,,,,,,,,,,,,,,,,,,,,,,,,,,,,,,,,2,  ,,0,1.762014991,188.8982,0,1,1,1,1,2,2,,,,,,,,,,,,,,,,,,
,6108139e89cc5e0bcc998019,627c6ec43fdc241f4fe27455,2022-05-11_21h24.00.835,classification_task,2021.2.3,Win32,59.88382538,627c6715c52fd12f31907bd0,,,,,,,,,,,,,,,,,,,,,,,,,,,,,,,,,,,,,,,,,,,,,0,1,1,1,1,,2,,,,,,,,,,,,,,,,,,
,6108139e89cc5e0bcc998019,627c6ec43fdc241f4fe27455,2022-05-11_21h24.00.835,classification_task,2021.2.3,Win32,59.88382538,627c6715c52fd12f31907bd0,,,,,,,,,,,,,,,,,,,,,space,13.5445,l,1,"[""0.080"",""0.754"",""0.469"",""0.721""]","[1,0,1,1]",0,0,0,0,1,1,1,,,0,FALSE,2.0588,,,,,,,,,,,,,,,,,,,,,,,,,,,,,,,
,6108139e89cc5e0bcc998019,627c6ec43fdc241f4fe27455,2022-05-11_21h24.00.835,classification_task,2021.2.3,Win32,59.88382538,627c6715c52fd12f31907bd0,,,,,,,,,,,,,,,,,,,,,,,a,1,"[""0.754"",""0.421"",""0.635"",""0.941""]","[0,1,1,1]",0,1,1,1,1,0,1,,,0,FALSE,1.4811,,,,,,,,,,,,,,,,,,,,,,,,,,,,,,,
,6108139e89cc5e0bcc998019,627c6ec43fdc241f4fe27455,2022-05-11_21h24.00.835,classification_task,2021.2.3,Win32,59.88382538,627c6715c52fd12f31907bd0,,,,,,,,,,,,,,,,,,,,,,,a,1,"[""0.262"",""0.773"",""0.635"",""0.941""]","[1,0,1,1]",0,2,2,2,1,0,1,,,0,FALSE,1.1818,,,,,,,,,,,,,,,,,,,,,,,,,,,,,,,
,6108139e89cc5e0bcc998019,627c6ec43fdc241f4fe27455,2022-05-11_21h24.00.835,classification_task,2021.2.3,Win32,59.88382538,627c6715c52fd12f31907bd0,,,,,,,,,,,,,,,,,,,,,,,a,1,"[""0.323"",""0.560"",""0.756"",""0.904""]","[1,1,0,1]",0,3,3,3,1,0,0,,,0,FALSE,1.165,,,,,,,,,,,,,,,,,,,,,,,,,,,,,,,
,6108139e89cc5e0bcc998019,627c6ec43fdc241f4fe27455,2022-05-11_21h24.00.835,classification_task,2021.2.3,Win32,59.88382538,627c6715c52fd12f31907bd0,,,,,,,,,,,,,,,,,,,,,,,a,0,"[""0.685"",""0.222"",""0.469"",""0.721""]","[0,1,1,1]",0,4,4,4,1,1,1,,,0,FALSE,1.3152,,,,,,,,,,,,,,,,,,,,,,,,,,,,,,,
,6108139e89cc5e0bcc998019,627c6ec43fdc241f4fe27455,2022-05-11_21h24.00.835,classification_task,2021.2.3,Win32,59.88382538,627c6715c52fd12f31907bd0,,,,,,,,,,,,,,,,,,,,,,,l,0,"[""0.262"",""0.421"",""0.635"",""0.168""]","[1,1,1,0]",0,5,5,5,1,0,1,,,0,FALSE,0.8487,,,,,,,,,,,,,,,,,,,,,,,,,,,,,,,
,6108139e89cc5e0bcc998019,627c6ec43fdc241f4fe27455,2022-05-11_21h24.00.835,classification_task,2021.2.3,Win32,59.88382538,627c6715c52fd12f31907bd0,,,,,,,,,,,,,,,,,,,,,,,l,0,"[""0.683"",""0.560"",""0.863"",""0.904""]","[0,1,1,1]",0,6,6,6,1,0,0,,,0,FALSE,2.1134,,,,,,,,,,,,,,,,,,,,,,,,,,,,,,,
,6108139e89cc5e0bcc998019,627c6ec43fdc241f4fe27455,2022-05-11_21h24.00.835,classification_task,2021.2.3,Win32,59.88382538,627c6715c52fd12f31907bd0,,,,,,,,,,,,,,,,,,,,,,,l,1,"[""0.121"",""0.377"",""0.756"",""0.826""]","[1,1,0,1]",0,7,7,7,1,1,0,,,0,FALSE,1.8973,,,,,,,,,,,,,,,,,,,,,,,,,,,,,,,
,6108139e89cc5e0bcc998019,627c6ec43fdc241f4fe27455,2022-05-11_21h24.00.835,classification_task,2021.2.3,Win32,59.88382538,627c6715c52fd12f31907bd0,,,,,,,,,,,,,,,,,,,,,,,l,1,"[""0.175"",""0.377"",""0.504"",""0.826""]","[0,1,1,1]",0,8,8,8,1,1,0,,,0,FALSE,1.7973,,,,,,,,,,,,,,,,,,,,,,,,,,,,,,,
,6108139e89cc5e0bcc998019,627c6ec43fdc241f4fe27455,2022-05-11_21h24.00.835,classification_task,2021.2.3,Win32,59.88382538,627c6715c52fd12f31907bd0,,,,,,,,,,,,,,,,,,,,,,,a,1,"[""0.262"",""0.421"",""0.168"",""0.941""]","[1,1,0,1]",0,9,9,9,1,0,1,,,0,FALSE,0.8486,,,,,,,,,,,,,,,,,,,,,,,,,,,,,,,
,6108139e89cc5e0bcc998019,627c6ec43fdc241f4fe27455,2022-05-11_21h24.00.835,classification_task,2021.2.3,Win32,59.88382538,627c6715c52fd12f31907bd0,,,,,,,,,,,,,,,,,,,,,,,l,1,"[""0.121"",""0.175"",""0.504"",""0.826""]","[1,0,1,1]",0,10,10,10,1,1,0,,,0,FALSE,0.8826,,,,,,,,,,,,,,,,,,,,,,,,,,,,,,,
,6108139e89cc5e0bcc998019,627c6ec43fdc241f4fe27455,2022-05-11_21h24.00.835,classification_task,2021.2.3,Win32,59.88382538,627c6715c52fd12f31907bd0,,,,,,,,,,,,,,,,,,,,,,,a,0,"[""0.121"",""0.377"",""0.504"",""0.671""]","[1,1,1,0]",0,11,11,11,1,1,0,,,0,FALSE,1.0649,,,,,,,,,,,,,,,,,,,,,,,,,,,,,,,
,6108139e89cc5e0bcc998019,627c6ec43fdc241f4fe27455,2022-05-11_21h24.00.835,classification_task,2021.2.3,Win32,59.88382538,627c6715c52fd12f31907bd0,,,,,,,,,,,,,,,,,,,,,,,a,1,"[""0.323"",""0.560"",""0.863"",""0.173""]","[1,1,1,0]",0,12,12,12,1,0,0,,,0,FALSE,0.7489,,,,,,,,,,,,,,,,,,,,,,,,,,,,,,,
,6108139e89cc5e0bcc998019,627c6ec43fdc241f4fe27455,2022-05-11_21h24.00.835,classification_task,2021.2.3,Win32,59.88382538,627c6715c52fd12f31907bd0,,,,,,,,,,,,,,,,,,,,,,,l,1,"[""0.080"",""0.222"",""0.037"",""0.721""]","[1,1,0,1]",0,13,13,13,1,1,1,,,0,FALSE,0.832,,,,,,,,,,,,,,,,,,,,,,,,,,,,,,,
,6108139e89cc5e0bcc998019,627c6ec43fdc241f4fe27455,2022-05-11_21h24.00.835,classification_task,2021.2.3,Win32,59.88382538,627c6715c52fd12f31907bd0,,,,,,,,,,,,,,,,,,,,,,,l,1,"[""0.080"",""0.222"",""0.469"",""0.156""]","[1,1,1,0]",0,14,14,14,1,1,1,,,0,FALSE,1.1648,,,,,,,,,,,,,,,,,,,,,,,,,,,,,,,
,6108139e89cc5e0bcc998019,627c6ec43fdc241f4fe27455,2022-05-11_21h24.00.835,classification_task,2021.2.3,Win32,59.88382538,627c6715c52fd12f31907bd0,,,,,,,,,,,,,,,,,,,,,,,a,1,"[""0.323"",""0.683"",""0.863"",""0.904""]","[1,0,1,1]",0,15,15,15,1,0,0,,,0,FALSE,0.8826,,,,,,,,,,,,,,,,,,,,,,,,,,,,,,,
,6108139e89cc5e0bcc998019,627c6ec43fdc241f4fe27455,2022-05-11_21h24.00.835,classification_task,2021.2.3,Win32,59.88382538,627c6715c52fd12f31907bd0,,,,,,,,,,,,,,,,,,,,,,,l,1,"[""0.121"",""0.156"",""0.504"",""0.826""]","[1,0,1,1]",0,16,16,16,1,1,0,,,0,FALSE,0.8156,,,,,,,,,,,,,,,,,,,,,,,,,,,,,,,
,6108139e89cc5e0bcc998019,627c6ec43fdc241f4fe27455,2022-05-11_21h24.00.835,classification_task,2021.2.3,Win32,59.88382538,627c6715c52fd12f31907bd0,,,,,,,,,,,,,,,,,,,,,,,a,0,"[""0.121"",""0.377"",""0.685"",""0.826""]","[1,1,0,1]",0,17,17,17,1,1,0,,,0,FALSE,0.7824,,,,,,,,,,,,,,,,,,,,,,,,,,,,,,,
,6108139e89cc5e0bcc998019,627c6ec43fdc241f4fe27455,2022-05-11_21h24.00.835,classification_task,2021.2.3,Win32,59.88382538,627c6715c52fd12f31907bd0,,,,,,,,,,,,,,,,,,,,,,,a,0,"[""0.671"",""0.222"",""0.469"",""0.721""]","[0,1,1,1]",0,18,18,18,1,1,1,,,0,FALSE,0.999,,,,,,,,,,,,,,,,,,,,,,,,,,,,,,,
,6108139e89cc5e0bcc998019,627c6ec43fdc241f4fe27455,2022-05-11_21h24.00.835,classification_task,2021.2.3,Win32,59.88382538,627c6715c52fd12f31907bd0,,,,,,,,,,,,,,,,,,,,,,,l,1,"[""0.080"",""0.222"",""0.755"",""0.721""]","[1,1,0,1]",0,19,19,19,1,1,1,,,0,FALSE,1.8808,,,,,,,,,,,,,,,,,,,,,,,,,,,,,,,
,6108139e89cc5e0bcc998019,627c6ec43fdc241f4fe27455,2022-05-11_21h24.00.835,classification_task,2021.2.3,Win32,59.88382538,627c6715c52fd12f31907bd0,,,,,,,,,,,,,,,,,,,,,,,a,0,"[""0.080"",""0.685"",""0.469"",""0.721""]","[1,0,1,1]",0,20,20,20,1,1,1,,,0,FALSE,1.8306,,,,,,,,,,,,,,,,,,,,,,,,,,,,,,,
,6108139e89cc5e0bcc998019,627c6ec43fdc241f4fe27455,2022-05-11_21h24.00.835,classification_task,2021.2.3,Win32,59.88382538,627c6715c52fd12f31907bd0,,,,,,,,,,,,,,,,,,,,,,,a,1,"[""0.323"",""0.560"",""0.773"",""0.904""]","[1,1,0,1]",0,21,21,21,1,0,0,,,0,FALSE,1.0651,,,,,,,,,,,,,,,,,,,,,,,,,,,,,,,
,6108139e89cc5e0bcc998019,627c6ec43fdc241f4fe27455,2022-05-11_21h24.00.835,classification_task,2021.2.3,Win32,59.88382538,627c6715c52fd12f31907bd0,,,,,,,,,,,,,,,,,,,,,,,a,1,"[""0.323"",""0.038"",""0.863"",""0.904""]","[1,0,1,1]",0,22,22,22,1,0,0,,,0,FALSE,1.049,,,,,,,,,,,,,,,,,,,,,,,,,,,,,,,
,6108139e89cc5e0bcc998019,627c6ec43fdc241f4fe27455,2022-05-11_21h24.00.835,classification_task,2021.2.3,Win32,59.88382538,627c6715c52fd12f31907bd0,,,,,,,,,,,,,,,,,,,,,,,a,1,"[""0.323"",""0.560"",""0.863"",""0.037""]","[1,1,1,0]",0,23,23,23,1,0,0,,,0,FALSE,0.5828,,,,,,,,,,,,,,,,,,,,,,,,,,,,,,,
,6108139e89cc5e0bcc998019,627c6ec43fdc241f4fe27455,2022-05-11_21h24.00.835,classification_task,2021.2.3,Win32,59.88382538,627c6715c52fd12f31907bd0,,,,,,,,,,,,,,,,,,,,,,,l,0,"[""0.756"",""0.560"",""0.863"",""0.904""]","[0,1,1,1]",0,24,24,24,1,0,0,,,0,FALSE,1.9472,,,,,,,,,,,,,,,,,,,,,,,,,,,,,,,
,6108139e89cc5e0bcc998019,627c6ec43fdc241f4fe27455,2022-05-11_21h24.00.835,classification_task,2021.2.3,Win32,59.88382538,627c6715c52fd12f31907bd0,,,,,,,,,,,,,,,,,,,,,,,l,1,"[""0.080"",""0.222"",""0.469"",""0.156""]","[1,1,1,0]",0,25,25,25,1,1,1,,,0,FALSE,2.163,,,,,,,,,,,,,,,,,,,,,,,,,,,,,,,
,6108139e89cc5e0bcc998019,627c6ec43fdc241f4fe27455,2022-05-11_21h24.00.835,classification_task,2021.2.3,Win32,59.88382538,627c6715c52fd12f31907bd0,,,,,,,,,,,,,,,,,,,,,,,l,1,"[""0.121"",""0.377"",""0.504"",""0.685""]","[1,1,1,0]",0,26,26,26,1,1,0,,,0,FALSE,1.4816,,,,,,,,,,,,,,,,,,,,,,,,,,,,,,,
,6108139e89cc5e0bcc998019,627c6ec43fdc241f4fe27455,2022-05-11_21h24.00.835,classification_task,2021.2.3,Win32,59.88382538,627c6715c52fd12f31907bd0,,,,,,,,,,,,,,,,,,,,,,,a,0,"[""0.685"",""0.377"",""0.504"",""0.826""]","[0,1,1,1]",0,27,27,27,1,1,0,,,0,FALSE,0.716,,,,,,,,,,,,,,,,,,,,,,,,,,,,,,,
,6108139e89cc5e0bcc998019,627c6ec43fdc241f4fe27455,2022-05-11_21h24.00.835,classification_task,2021.2.3,Win32,59.88382538,627c6715c52fd12f31907bd0,,,,,,,,,,,,,,,,,,,,,,,a,1,"[""0.262"",""0.421"",""0.773"",""0.941""]","[1,1,0,1]",0,28,28,28,1,0,1,,,0,FALSE,1.9804,,,,,,,,,,,,,,,,,,,,,,,,,,,,,,,
,6108139e89cc5e0bcc998019,627c6ec43fdc241f4fe27455,2022-05-11_21h24.00.835,classification_task,2021.2.3,Win32,59.88382538,627c6715c52fd12f31907bd0,,,,,,,,,,,,,,,,,,,,,,,l,0,"[""0.037"",""0.421"",""0.635"",""0.941""]","[0,1,1,1]",0,29,29,29,1,0,1,,,0,FALSE,1.897,,,,,,,,,,,,,,,,,,,,,,,,,,,,,,,
,6108139e89cc5e0bcc998019,627c6ec43fdc241f4fe27455,2022-05-11_21h24.00.835,classification_task,2021.2.3,Win32,59.88382538,627c6715c52fd12f31907bd0,,,,,,,,,,,,,,,,,,,,,,,a,1,"[""0.262"",""0.421"",""0.635"",""0.683""]","[1,1,1,0]",0,30,30,30,1,0,1,,,0,FALSE,1.4484,,,,,,,,,,,,,,,,,,,,,,,,,,,,,,,
,6108139e89cc5e0bcc998019,627c6ec43fdc241f4fe27455,2022-05-11_21h24.00.835,classification_task,2021.2.3,Win32,59.88382538,627c6715c52fd12f31907bd0,,,,,,,,,,,,,,,,,,,,,,,a,1,"[""0.262"",""0.168"",""0.635"",""0.941""]","[1,0,1,1]",0,31,31,31,1,0,1,,,0,FALSE,2.7958,,,,,,,,,,,,,,,,,,,,,,,,,,,,,,,
,6108139e89cc5e0bcc998019,627c6ec43fdc241f4fe27455,2022-05-11_21h24.00.835,classification_task,2021.2.3,Win32,59.88382538,627c6715c52fd12f31907bd0,,,,,,,,,,,,,,,,,,,,,,,l,0,"[""0.038"",""0.421"",""0.635"",""0.941""]","[0,1,1,1]",0,32,32,32,1,0,1,,,0,FALSE,1.9971,,,,,,,,,,,,,,,,,,,,,,,,,,,,,,,
,6108139e89cc5e0bcc998019,627c6ec43fdc241f4fe27455,2022-05-11_21h24.00.835,classification_task,2021.2.3,Win32,59.88382538,627c6715c52fd12f31907bd0,,,,,,,,,,,,,,,,,,,,,,,l,1,"[""0.080"",""0.155"",""0.469"",""0.721""]","[1,0,1,1]",0,33,33,33,1,1,1,,,0,FALSE,0.9654,,,,,,,,,,,,,,,,,,,,,,,,,,,,,,,
,6108139e89cc5e0bcc998019,627c6ec43fdc241f4fe27455,2022-05-11_21h24.00.835,classification_task,2021.2.3,Win32,59.88382538,627c6715c52fd12f31907bd0,,,,,,,,,,,,,,,,,,,,,,,l,1,"[""0.156"",""0.222"",""0.469"",""0.721""]","[0,1,1,1]",0,34,34,34,1,1,1,,,0,FALSE,0.616,,,,,,,,,,,,,,,,,,,,,,,,,,,,,,,
,6108139e89cc5e0bcc998019,627c6ec43fdc241f4fe27455,2022-05-11_21h24.00.835,classification_task,2021.2.3,Win32,59.88382538,627c6715c52fd12f31907bd0,,,,,,,,,,,,,,,,,,,,,,,a,1,"[""0.323"",""0.671"",""0.863"",""0.904""]","[1,0,1,1]",0,35,35,35,1,0,0,,,0,FALSE,0.8984,,,,,,,,,,,,,,,,,,,,,,,,,,,,,,,
,6108139e89cc5e0bcc998019,627c6ec43fdc241f4fe27455,2022-05-11_21h24.00.835,classification_task,2021.2.3,Win32,59.88382538,627c6715c52fd12f31907bd0,,,,,,,,,,,,,,,,,,,,,,,a,1,"[""0.323"",""0.560"",""0.754"",""0.904""]","[1,1,0,1]",0,36,36,36,1,0,0,,,0,FALSE,0.5494,,,,,,,,,,,,,,,,,,,,,,,,,,,,,,,
,6108139e89cc5e0bcc998019,627c6ec43fdc241f4fe27455,2022-05-11_21h24.00.835,classification_task,2021.2.3,Win32,59.88382538,627c6715c52fd12f31907bd0,,,,,,,,,,,,,,,,,,,,,,,l,1,"[""0.121"",""0.377"",""0.173"",""0.826""]","[1,1,0,1]",0,37,37,37,1,1,0,,,0,FALSE,0.9484,,,,,,,,,,,,,,,,,,,,,,,,,,,,,,,
,6108139e89cc5e0bcc998019,627c6ec43fdc241f4fe27455,2022-05-11_21h24.00.835,classification_task,2021.2.3,Win32,59.88382538,627c6715c52fd12f31907bd0,,,,,,,,,,,,,,,,,,,,,,,l,1,"[""0.080"",""0.222"",""0.756"",""0.721""]","[1,1,0,1]",0,38,38,38,1,1,1,,,0,FALSE,2.0805,,,,,,,,,,,,,,,,,,,,,,,,,,,,,,,
,6108139e89cc5e0bcc998019,627c6ec43fdc241f4fe27455,2022-05-11_21h24.00.835,classification_task,2021.2.3,Win32,59.88382538,627c6715c52fd12f31907bd0,,,,,,,,,,,,,,,,,,,,,,,a,1,"[""0.323"",""0.560"",""0.863"",""0.754""]","[1,1,1,0]",0,39,39,39,1,0,0,,,0,FALSE,0.9319,,,,,,,,,,,,,,,,,,,,,,,,,,,,,,,
,6108139e89cc5e0bcc998019,627c6ec43fdc241f4fe27455,2022-05-11_21h24.00.835,classification_task,2021.2.3,Win32,59.88382538,627c6715c52fd12f31907bd0,,,,,,,,,,,,,,,,,,,,,,,a,1,"[""0.262"",""0.421"",""0.754"",""0.941""]","[1,1,0,1]",0,40,40,40,1,0,1,,,0,FALSE,0.5993,,,,,,,,,,,,,,,,,,,,,,,,,,,,,,,
,6108139e89cc5e0bcc998019,627c6ec43fdc241f4fe27455,2022-05-11_21h24.00.835,classification_task,2021.2.3,Win32,59.88382538,627c6715c52fd12f31907bd0,,,,,,,,,,,,,,,,,,,,,,,l,0,"[""0.155"",""0.560"",""0.863"",""0.904""]","[0,1,1,1]",0,41,41,41,1,0,0,,,0,FALSE,1.5647,,,,,,,,,,,,,,,,,,,,,,,,,,,,,,,
,6108139e89cc5e0bcc998019,627c6ec43fdc241f4fe27455,2022-05-11_21h24.00.835,classification_task,2021.2.3,Win32,59.88382538,627c6715c52fd12f31907bd0,,,,,,,,,,,,,,,,,,,,,,,a,1,"[""0.262"",""0.421"",""0.635"",""0.168""]","[1,1,1,0]",0,42,42,42,1,0,1,,,0,FALSE,0.9991,,,,,,,,,,,,,,,,,,,,,,,,,,,,,,,
,6108139e89cc5e0bcc998019,627c6ec43fdc241f4fe27455,2022-05-11_21h24.00.835,classification_task,2021.2.3,Win32,59.88382538,627c6715c52fd12f31907bd0,,,,,,,,,,,,,,,,,,,,,,,a,0,"[""0.080"",""0.222"",""0.469"",""0.755""]","[1,1,1,0]",0,43,43,43,1,1,1,,,0,FALSE,1.1651,,,,,,,,,,,,,,,,,,,,,,,,,,,,,,,
,6108139e89cc5e0bcc998019,627c6ec43fdc241f4fe27455,2022-05-11_21h24.00.835,classification_task,2021.2.3,Win32,59.88382538,627c6715c52fd12f31907bd0,,,,,,,,,,,,,,,,,,,,,,,l,1,"[""0.121"",""0.754"",""0.504"",""0.826""]","[1,0,1,1]",0,44,44,44,1,1,0,,,0,FALSE,1.3814,,,,,,,,,,,,,,,,,,,,,,,,,,,,,,,
,6108139e89cc5e0bcc998019,627c6ec43fdc241f4fe27455,2022-05-11_21h24.00.835,classification_task,2021.2.3,Win32,59.88382538,627c6715c52fd12f31907bd0,,,,,,,,,,,,,,,,,,,,,,,a,1,"[""0.262"",""0.756"",""0.635"",""0.941""]","[1,0,1,1]",0,45,45,45,1,0,1,,,0,FALSE,1.3152,,,,,,,,,,,,,,,,,,,,,,,,,,,,,,,
,6108139e89cc5e0bcc998019,627c6ec43fdc241f4fe27455,2022-05-11_21h24.00.835,classification_task,2021.2.3,Win32,59.88382538,627c6715c52fd12f31907bd0,,,,,,,,,,,,,,,,,,,,,,,l,1,"[""0.121"",""0.377"",""0.504"",""0.156""]","[1,1,1,0]",0,46,46,46,1,1,0,,,0,FALSE,0.9655,,,,,,,,,,,,,,,,,,,,,,,,,,,,,,,
,6108139e89cc5e0bcc998019,627c6ec43fdc241f4fe27455,2022-05-11_21h24.00.835,classification_task,2021.2.3,Win32,59.88382538,627c6715c52fd12f31907bd0,,,,,,,,,,,,,,,,,,,,,,,a,0,"[""0.755"",""0.377"",""0.504"",""0.826""]","[0,1,1,1]",0,47,47,47,1,1,0,,,0,FALSE,1.3482,,,,,,,,,,,,,,,,,,,,,,,,,,,,,,,
,6108139e89cc5e0bcc998019,627c6ec43fdc241f4fe27455,2022-05-11_21h24.00.835,classification_task,2021.2.3,Win32,59.88382538,627c6715c52fd12f31907bd0,,,,,,,,,,,,,,,,,,,,,,,a,0,"[""0.121"",""0.156"",""0.504"",""0.826""]","[1,0,1,1]",0,48,48,48,1,1,0,,,0,FALSE,1.3308,,,,,,,,,,,,,,,,,,,,,,,,,,,,,,,
,6108139e89cc5e0bcc998019,627c6ec43fdc241f4fe27455,2022-05-11_21h24.00.835,classification_task,2021.2.3,Win32,59.88382538,627c6715c52fd12f31907bd0,,,,,,,,,,,,,,,,,,,,,,,a,1,"[""0.169"",""0.560"",""0.863"",""0.904""]","[0,1,1,1]",0,49,49,49,1,0,0,,,0,FALSE,2.9785,,,,,,,,,,,,,,,,,,,,,,,,,,,,,,,
,6108139e89cc5e0bcc998019,627c6ec43fdc241f4fe27455,2022-05-11_21h24.00.835,classification_task,2021.2.3,Win32,59.88382538,627c6715c52fd12f31907bd0,,,,,,,,,,,,,,,,,,,,,,,l,1,"[""0.175"",""0.222"",""0.469"",""0.721""]","[0,1,1,1]",0,50,50,50,1,1,1,,,0,FALSE,1.4805,,,,,,,,,,,,,,,,,,,,,,,,,,,,,,,
,6108139e89cc5e0bcc998019,627c6ec43fdc241f4fe27455,2022-05-11_21h24.00.835,classification_task,2021.2.3,Win32,59.88382538,627c6715c52fd12f31907bd0,,,,,,,,,,,,,,,,,,,,,,,a,1,"[""0.262"",""0.421"",""0.683"",""0.941""]","[1,1,0,1]",0,51,51,51,1,0,1,,,0,FALSE,0.9987,,,,,,,,,,,,,,,,,,,,,,,,,,,,,,,
,6108139e89cc5e0bcc998019,627c6ec43fdc241f4fe27455,2022-05-11_21h24.00.835,classification_task,2021.2.3,Win32,59.88382538,627c6715c52fd12f31907bd0,,,,,,,,,,,,,,,,,,,,,,,a,1,"[""0.262"",""0.683"",""0.635"",""0.941""]","[1,0,1,1]",0,52,52,52,1,0,1,,,0,FALSE,0.6991,,,,,,,,,,,,,,,,,,,,,,,,,,,,,,,
,6108139e89cc5e0bcc998019,627c6ec43fdc241f4fe27455,2022-05-11_21h24.00.835,classification_task,2021.2.3,Win32,59.88382538,627c6715c52fd12f31907bd0,,,,,,,,,,,,,,,,,,,,,,,a,1,"[""0.262"",""0.421"",""0.635"",""0.037""]","[1,1,1,0]",0,53,53,53,1,0,1,,,0,FALSE,0.7328,,,,,,,,,,,,,,,,,,,,,,,,,,,,,,,
,6108139e89cc5e0bcc998019,627c6ec43fdc241f4fe27455,2022-05-11_21h24.00.835,classification_task,2021.2.3,Win32,59.88382538,627c6715c52fd12f31907bd0,,,,,,,,,,,,,,,,,,,,,,,a,1,"[""0.323"",""0.560"",""0.863"",""0.173""]","[1,1,1,0]",0,54,54,54,1,0,0,,,0,FALSE,2.0299,,,,,,,,,,,,,,,,,,,,,,,,,,,,,,,
,6108139e89cc5e0bcc998019,627c6ec43fdc241f4fe27455,2022-05-11_21h24.00.835,classification_task,2021.2.3,Win32,59.88382538,627c6715c52fd12f31907bd0,,,,,,,,,,,,,,,,,,,,,,,l,1,"[""0.121"",""0.377"",""0.038"",""0.826""]","[1,1,0,1]",0,55,55,55,1,1,0,,,0,FALSE,1.4145,,,,,,,,,,,,,,,,,,,,,,,,,,,,,,,
,6108139e89cc5e0bcc998019,627c6ec43fdc241f4fe27455,2022-05-11_21h24.00.835,classification_task,2021.2.3,Win32,59.88382538,627c6715c52fd12f31907bd0,,,,,,,,,,,,,,,,,,,,,,,l,1,"[""0.080"",""0.037"",""0.469"",""0.721""]","[1,0,1,1]",0,56,56,56,1,1,1,,,0,FALSE,0.6995,,,,,,,,,,,,,,,,,,,,,,,,,,,,,,,
,6108139e89cc5e0bcc998019,627c6ec43fdc241f4fe27455,2022-05-11_21h24.00.835,classification_task,2021.2.3,Win32,59.88382538,627c6715c52fd12f31907bd0,,,,,,,,,,,,,,,,,,,,,,,l,1,"[""0.173"",""0.377"",""0.504"",""0.826""]","[0,1,1,1]",0,57,57,57,1,1,0,,,0,FALSE,1.964,,,,,,,,,,,,,,,,,,,,,,,,,,,,,,,
,6108139e89cc5e0bcc998019,627c6ec43fdc241f4fe27455,2022-05-11_21h24.00.835,classification_task,2021.2.3,Win32,59.88382538,627c6715c52fd12f31907bd0,,,,,,,,,,,,,,,,,,,,,,,a,1,"[""0.323"",""0.168"",""0.863"",""0.904""]","[1,0,1,1]",0,58,58,58,1,0,0,,,0,FALSE,1.1484,,,,,,,,,,,,,,,,,,,,,,,,,,,,,,,
,6108139e89cc5e0bcc998019,627c6ec43fdc241f4fe27455,2022-05-11_21h24.00.835,classification_task,2021.2.3,Win32,59.88382538,627c6715c52fd12f31907bd0,,,,,,,,,,,,,,,,,,,,,,,l,1,"[""0.080"",""0.222"",""0.469"",""0.168""]","[1,1,1,0]",0,59,59,59,1,1,1,,,0,FALSE,0.9156,,,,,,,,,,,,,,,,,,,,,,,,,,,,,,,
,6108139e89cc5e0bcc998019,627c6ec43fdc241f4fe27455,2022-05-11_21h24.00.835,classification_task,2021.2.3,Win32,59.88382538,627c6715c52fd12f31907bd0,,,,,,,,,,,,,,,,,,,,,,,l,1,"[""0.080"",""0.222"",""0.156"",""0.721""]","[1,1,0,1]",0,60,60,60,1,1,1,,,0,FALSE,0.9985,,,,,,,,,,,,,,,,,,,,,,,,,,,,,,,
,6108139e89cc5e0bcc998019,627c6ec43fdc241f4fe27455,2022-05-11_21h24.00.835,classification_task,2021.2.3,Win32,59.88382538,627c6715c52fd12f31907bd0,,,,,,,,,,,,,,,,,,,,,,,l,0,"[""0.685"",""0.421"",""0.635"",""0.941""]","[0,1,1,1]",0,61,61,61,1,0,1,,,0,FALSE,1.5809,,,,,,,,,,,,,,,,,,,,,,,,,,,,,,,
,6108139e89cc5e0bcc998019,627c6ec43fdc241f4fe27455,2022-05-11_21h24.00.835,classification_task,2021.2.3,Win32,59.88382538,627c6715c52fd12f31907bd0,,,,,,,,,,,,,,,,,,,,,,,a,0,"[""0.121"",""0.377"",""0.504"",""0.671""]","[1,1,1,0]",0,62,62,62,1,1,0,,,0,FALSE,1.6477,,,,,,,,,,,,,,,,,,,,,,,,,,,,,,,
,6108139e89cc5e0bcc998019,627c6ec43fdc241f4fe27455,2022-05-11_21h24.00.835,classification_task,2021.2.3,Win32,59.88382538,627c6715c52fd12f31907bd0,,,,,,,,,,,,,,,,,,,,,,,a,1,"[""0.323"",""0.560"",""0.755"",""0.904""]","[1,1,0,1]",0,63,63,63,1,0,0,,,0,FALSE,0.8489,,,,,,,,,,,,,,,,,,,,,,,,,,,,,,,
,6108139e89cc5e0bcc998019,627c6ec43fdc241f4fe27455,2022-05-11_21h24.00.835,classification_task,2021.2.3,Win32,59.88382538,627c6715c52fd12f31907bd0,,,,,,,,,,,,,,,,,,,,,,,,,,,,,,,,,,,,,,,0, ,,0,2.554287919,244.6336,0,2,2,2,1,2,3,,,,,,,,,,,,,,,,,,
,6108139e89cc5e0bcc998019,627c6ec43fdc241f4fe27455,2022-05-11_21h24.00.835,classification_task,2021.2.3,Win32,59.88382538,627c6715c52fd12f31907bd0,,,,,,,,,,,,,,,,,,,,,,,,,,,,,,,,,,,,,,,1,  ,,0,2.623181217,246.2387,0,2,2,2,1,2,3,,,,,,,,,,,,,,,,,,
,6108139e89cc5e0bcc998019,627c6ec43fdc241f4fe27455,2022-05-11_21h24.00.835,classification_task,2021.2.3,Win32,59.88382538,627c6715c52fd12f31907bd0,,,,,,,,,,,,,,,,,,,,,,,,,,,,,,,,,,,,,,,2,  ,,0,1.555335097,248.0521,0,2,2,2,1,2,3,,,,,,,,,,,,,,,,,,
,6108139e89cc5e0bcc998019,627c6ec43fdc241f4fe27455,2022-05-11_21h24.00.835,classification_task,2021.2.3,Win32,59.88382538,627c6715c52fd12f31907bd0,,,,,,,,,,,,,,,,,,,,,,,,,,,,,,,,,,,,,,,,,,,,,0,2,2,2,1,,3,,,,,,,,,,,,,,,,,,
,6108139e89cc5e0bcc998019,627c6ec43fdc241f4fe27455,2022-05-11_21h24.00.835,classification_task,2021.2.3,Win32,59.88382538,627c6715c52fd12f31907bd0,,,,,,,,,,,,,,,,,,,,,,,,,,,,,,,,,,,,,,,,,,,,,,,,,,,,,I believe the aid is a competent performer,,0.7,0,2,926.9166,0,0,0,0,1,0,,,,,
,6108139e89cc5e0bcc998019,627c6ec43fdc241f4fe27455,2022-05-11_21h24.00.835,classification_task,2021.2.3,Win32,59.88382538,627c6715c52fd12f31907bd0,,,,,,,,,,,,,,,,,,,,,,,,,,,,,,,,,,,,,,,,,,,,,,,,,,,,,I trust the aid,,0.7,0,3,928.5031,0,0,0,0,1,0,,,,,
,6108139e89cc5e0bcc998019,627c6ec43fdc241f4fe27455,2022-05-11_21h24.00.835,classification_task,2021.2.3,Win32,59.88382538,627c6715c52fd12f31907bd0,,,,,,,,,,,,,,,,,,,,,,,,,,,,,,,,,,,,,,,,,,,,,,,,,,,,,I have confidence in the advice given by the aid,,0.7,0,3,929.9491,0,0,0,0,1,0,,,,,
,6108139e89cc5e0bcc998019,627c6ec43fdc241f4fe27455,2022-05-11_21h24.00.835,classification_task,2021.2.3,Win32,59.88382538,627c6715c52fd12f31907bd0,,,,,,,,,,,,,,,,,,,,,,,,,,,,,,,,,,,,,,,,,,,,,,,,,,,,,I can depend on the aid,,0.7,0,4,932.31,0,0,0,0,1,0,,,,,
,6108139e89cc5e0bcc998019,627c6ec43fdc241f4fe27455,2022-05-11_21h24.00.835,classification_task,2021.2.3,Win32,59.88382538,627c6715c52fd12f31907bd0,,,,,,,,,,,,,,,,,,,,,,,,,,,,,,,,,,,,,,,,,,,,,,,,,,,,,I can rely on the aid to behave in consistent ways,,0.7,0,3,933.6057,0,0,0,0,1,0,,,,,
,6108139e89cc5e0bcc998019,627c6ec43fdc241f4fe27455,2022-05-11_21h24.00.835,classification_task,2021.2.3,Win32,59.88382538,627c6715c52fd12f31907bd0,,,,,,,,,,,,,,,,,,,,,,,,,,,,,,,,,,,,,,,,,,,,,,,,,,,,,I can rely on the aid to do its best every time I take its advice,,0.7,0,3,935.6482,0,0,0,0,1,0,,,,,
,6108139e89cc5e0bcc998019,627c6ec43fdc241f4fe27455,2022-05-11_21h24.00.835,classification_task,2021.2.3,Win32,59.88382538,627c6715c52fd12f31907bd0,,,,,,,,,,,,,,,,,,,,,,,,,,,,,,,,,,,,,,,,,,,,,,,,,,,,,"On trials you completed with assistance from the aid, how frequently did you think the aid was correct?",,0.7,0,100%,,0,0,0,0,1,0,,,,,
,6108139e89cc5e0bcc998019,627c6ec43fdc241f4fe27455,2022-05-11_21h24.00.835,classification_task,2021.2.3,Win32,59.88382538,627c6715c52fd12f31907bd0,,,,,,,,,,,,,,,,,,,,,,,,,,,,,,,,,,,,,,,,,,,,,,,,,,,,,"On trials you completed without the aid, how frequently did you think you were correct?",,0.7,0,80%,,0,0,0,0,1,0,,,,,
,6108139e89cc5e0bcc998019,627c6ec43fdc241f4fe27455,2022-05-11_21h24.00.835,classification_task,2021.2.3,Win32,59.88382538,627c6715c52fd12f31907bd0,,,,,,,,,,,,,,,,,,,,,,,,,,,,,,,,,,,,,,,,,,,,,,,,,,,,,,,,,,,0,0,0,0,1,,,,,,
,6108139e89cc5e0bcc998019,627c6ec43fdc241f4fe27455,2022-05-11_21h24.00.835,classification_task,2021.2.3,Win32,59.88382538,627c6715c52fd12f31907bd0,,,,,,,,,,,,,,,,,,,,,,,,,,,,,,,,,,,,,,,,,,,,,,,,,,,,,,,,,,,,,,,,,space,2.1088,956.4524,,
,6108139e89cc5e0bcc998019,627c6ec43fdc241f4fe27455,2022-05-11_21h24.00.835,classification_task,2021.2.3,Win32,59.88382538,627c6715c52fd12f31907bd0,,,,,,,,,,,,,,,,,,,,,,,,,,,,,,,,,,,,,,,,,,,,,,,,,,,,,,,,,,,,,,,,,,,,"Mozilla/5.0 (Windows NT 10.0; Win64; x64) AppleWebKit/537.36 (KHTML, like Gecko) Chrome/101.0.4951.54 Safari/537.36",
,6108139e89cc5e0bcc998019,627c6ec43fdc241f4fe27455,2022-05-11_21h24.00.835,classification_task,2021.2.3,Win32,59.88382538,627c6715c52fd12f31907bd0,,,,,,,,,,,,,,,,,,,,,,,,,,,,,,,,,,,,,,,,,,,,,,,,,,,,,,,,,,,,,,,,,,,,,HIGHLIGHT
