usingWebGL,participant,session,date,expName,psychopyVersion,OS,frameRate,study_id,signatures_friend,signatures_foe,band_ranges_top,band_ranges_bottom,formitemText,formtype,formundefined,formitemWidth,formindex,formresponse,formrt,key_resp_2.keys,key_resp_2.rt,tute_resp.keys,tute_resp.rt,tutorial.thisRepN,tutorial.thisTrialN,tutorial.thisN,tutorial.thisIndex,tutorial.ran,key_resp_4.keys,key_resp_4.rt,key_resp.keys,key_resp.corr,key_resp.rt,lines_presented,is_signal_presented,trials.thisRepN,trials.thisTrialN,trials.thisN,trials.thisIndex,trials.ran,vessel,active_band,lines,is_signal,supported_pos,catch_trial,debrief_formindex,debrief_formitemText,debrief_formtype,debrief_formitemWidth,debrief_formresponse,debrief_formrt,phases.thisRepN,phases.thisTrialN,phases.thisN,phases.thisIndex,phases.ran,phases.order,phase,key_resp_3.keys,trustitemText,trusttype,trustitemWidth,trustindex,trustresponse,trustrt,support_status.thisRepN,support_status.thisTrialN,support_status.thisN,support_status.thisIndex,support_status.ran,support_status.order,key_resp_5.keys,key_resp_5.rt,globalClockTime,userAgent,manualCondition
TRUE,6108878a6817adc0fb1bfbf9,627c75e4bfe31e5ff5625fcf,2022-05-12_03h50.25.790,classification_task,2021.2.3,Win32,157.4555188,627c6715c52fd12f31907bd0,,,,,,,,,,,,,,,,,,,,,,,,,,,,,,,,,,,,,,,,,,,,,,,,,,,,,,,,,,,,,,,,,,,,,
,6108878a6817adc0fb1bfbf9,627c75e4bfe31e5ff5625fcf,2022-05-12_03h50.25.790,classification_task,2021.2.3,Win32,157.4555188,627c6715c52fd12f31907bd0,"[[""0.260"",""0.539"",""0.883"",""0.925""],[""0.222"",""0.373"",""0.670"",""0.973""]]","[[""0.110"",""0.174"",""0.478"",""0.745""],[""0.039"",""0.319"",""0.581"",""0.811""]]","[1,10]","[100,1000]",Video game experience,,,0.7,0,,,,,,,,,,,,,,,,,,,,,,,,,,,,,,,,,,,,,,,,,,,,,,,,,,,,,,,,,,,,
,6108878a6817adc0fb1bfbf9,627c75e4bfe31e5ff5625fcf,2022-05-12_03h50.25.790,classification_task,2021.2.3,Win32,157.4555188,627c6715c52fd12f31907bd0,,,,,Approximately how many hours did you spend playing video games in the last week?,,,0.7,0,20,,,,,,,,,,,,,,,,,,,,,,,,,,,,,,,,,,,,,,,,,,,,,,,,,,,,,,,,,,,
,6108878a6817adc0fb1bfbf9,627c75e4bfe31e5ff5625fcf,2022-05-12_03h50.25.790,classification_task,2021.2.3,Win32,157.4555188,627c6715c52fd12f31907bd0,,,,,"Which game did you play the most this year? (Enter ""None"" if you didn't play any)",,,0.7,0,Overwatch,,,,,,,,,,,,,,,,,,,,,,,,,,,,,,,,,,,,,,,,,,,,,,,,,,,,,,,,,,,
,6108878a6817adc0fb1bfbf9,627c75e4bfe31e5ff5625fcf,2022-05-12_03h50.25.790,classification_task,2021.2.3,Win32,157.4555188,627c6715c52fd12f31907bd0,,,,,Visual perception,,,0.7,0,,,,,,,,,,,,,,,,,,,,,,,,,,,,,,,,,,,,,,,,,,,,,,,,,,,,,,,,,,,,
,6108878a6817adc0fb1bfbf9,627c75e4bfe31e5ff5625fcf,2022-05-12_03h50.25.790,classification_task,2021.2.3,Win32,157.4555188,627c6715c52fd12f31907bd0,,,,,Do you have any form of color blindness?,,,0.7,0,No,35.4593,,,,,,,,,,,,,,,,,,,,,,,,,,,,,,,,,,,,,,,,,,,,,,,,,,,,,,,,,,
,6108878a6817adc0fb1bfbf9,627c75e4bfe31e5ff5625fcf,2022-05-12_03h50.25.790,classification_task,2021.2.3,Win32,157.4555188,627c6715c52fd12f31907bd0,,,,,Do you use software to change the colour temperature of your screen (e.g. f.lux)?,,,0.7,0,No,44.4384,,,,,,,,,,,,,,,,,,,,,,,,,,,,,,,,,,,,,,,,,,,,,,,,,,,,,,,,,,
,6108878a6817adc0fb1bfbf9,627c75e4bfe31e5ff5625fcf,2022-05-12_03h50.25.790,classification_task,2021.2.3,Win32,157.4555188,627c6715c52fd12f31907bd0,,,,,,,,,,,,space,47.2143,space,6.9231,0,0,0,0,1,,,,,,,,,,,,,,,,,,,,,,,,,,,,,,,,,,,,,,,,,,,,,,,,,
,6108878a6817adc0fb1bfbf9,627c75e4bfe31e5ff5625fcf,2022-05-12_03h50.25.790,classification_task,2021.2.3,Win32,157.4555188,627c6715c52fd12f31907bd0,,,,,,,,,,,,,,space,7.5554,1,0,1,0,1,,,,,,,,,,,,,,,,,,,,,,,,,,,,,,,,,,,,,,,,,,,,,,,,,
,6108878a6817adc0fb1bfbf9,627c75e4bfe31e5ff5625fcf,2022-05-12_03h50.25.790,classification_task,2021.2.3,Win32,157.4555188,627c6715c52fd12f31907bd0,,,,,,,,,,,,,,space,20.1984,2,0,2,0,1,,,,,,,,,,,,,,,,,,,,,,,,,,,,,,,,,,,,,,,,,,,,,,,,,
,6108878a6817adc0fb1bfbf9,627c75e4bfe31e5ff5625fcf,2022-05-12_03h50.25.790,classification_task,2021.2.3,Win32,157.4555188,627c6715c52fd12f31907bd0,,,,,,,,,,,,,,space,8.0294,3,0,3,0,1,,,,,,,,,,,,,,,,,,,,,,,,,,,,,,,,,,,,,,,,,,,,,,,,,
,6108878a6817adc0fb1bfbf9,627c75e4bfe31e5ff5625fcf,2022-05-12_03h50.25.790,classification_task,2021.2.3,Win32,157.4555188,627c6715c52fd12f31907bd0,,,,,,,,,,,,,,space,44.903,4,0,4,0,1,,,,,,,,,,,,,,,,,,,,,,,,,,,,,,,,,,,,,,,,,,,,,,,,,
,6108878a6817adc0fb1bfbf9,627c75e4bfe31e5ff5625fcf,2022-05-12_03h50.25.790,classification_task,2021.2.3,Win32,157.4555188,627c6715c52fd12f31907bd0,,,,,,,,,,,,,,,,,,,,,space,17.1338,l,1,5.7234,"[""0.039"",""0.319"",""0.616"",""0.811""]","[1,1,0,1]",0,0,0,0,1,1,1,,,1,FALSE,,,,,,,,,,,,,,,,,,,,,,,,,,,,,,,
,6108878a6817adc0fb1bfbf9,627c75e4bfe31e5ff5625fcf,2022-05-12_03h50.25.790,classification_task,2021.2.3,Win32,157.4555188,627c6715c52fd12f31907bd0,,,,,,,,,,,,,,,,,,,,,,,l,1,3.3516,"[""0.039"",""0.626"",""0.581"",""0.811""]","[1,0,1,1]",0,1,1,1,1,1,1,,,1,FALSE,,,,,,,,,,,,,,,,,,,,,,,,,,,,,,,
,6108878a6817adc0fb1bfbf9,627c75e4bfe31e5ff5625fcf,2022-05-12_03h50.25.790,classification_task,2021.2.3,Win32,157.4555188,627c6715c52fd12f31907bd0,,,,,,,,,,,,,,,,,,,,,,,a,1,8.5867,"[""0.260"",""0.539"",""0.883"",""0.626""]","[1,1,1,0]",0,2,2,2,1,0,0,,,1,FALSE,,,,,,,,,,,,,,,,,,,,,,,,,,,,,,,
,6108878a6817adc0fb1bfbf9,627c75e4bfe31e5ff5625fcf,2022-05-12_03h50.25.790,classification_task,2021.2.3,Win32,157.4555188,627c6715c52fd12f31907bd0,,,,,,,,,,,,,,,,,,,,,,,l,0,3.1752,"[""0.845"",""0.373"",""0.670"",""0.973""]","[0,1,1,1]",0,3,3,3,1,0,1,,,1,FALSE,,,,,,,,,,,,,,,,,,,,,,,,,,,,,,,
,6108878a6817adc0fb1bfbf9,627c75e4bfe31e5ff5625fcf,2022-05-12_03h50.25.790,classification_task,2021.2.3,Win32,157.4555188,627c6715c52fd12f31907bd0,,,,,,,,,,,,,,,,,,,,,,,l,1,4.5433,"[""0.110"",""0.074"",""0.478"",""0.745""]","[1,0,1,1]",0,4,4,4,1,1,0,,,1,FALSE,,,,,,,,,,,,,,,,,,,,,,,,,,,,,,,
,6108878a6817adc0fb1bfbf9,627c75e4bfe31e5ff5625fcf,2022-05-12_03h50.25.790,classification_task,2021.2.3,Win32,157.4555188,627c6715c52fd12f31907bd0,,,,,,,,,,,,,,,,,,,,,,,a,1,3.4534,"[""0.222"",""0.705"",""0.670"",""0.973""]","[1,0,1,1]",0,5,5,5,1,0,1,,,1,FALSE,,,,,,,,,,,,,,,,,,,,,,,,,,,,,,,
,6108878a6817adc0fb1bfbf9,627c75e4bfe31e5ff5625fcf,2022-05-12_03h50.25.790,classification_task,2021.2.3,Win32,157.4555188,627c6715c52fd12f31907bd0,,,,,,,,,,,,,,,,,,,,,,,l,0,3.4536,"[""0.846"",""0.539"",""0.883"",""0.925""]","[0,1,1,1]",0,6,6,6,1,0,0,,,1,FALSE,,,,,,,,,,,,,,,,,,,,,,,,,,,,,,,
,6108878a6817adc0fb1bfbf9,627c75e4bfe31e5ff5625fcf,2022-05-12_03h50.25.790,classification_task,2021.2.3,Win32,157.4555188,627c6715c52fd12f31907bd0,,,,,,,,,,,,,,,,,,,,,,,a,1,6.8053,"[""0.222"",""0.373"",""0.670"",""0.420""]","[1,1,1,0]",0,7,7,7,1,0,1,,,1,FALSE,,,,,,,,,,,,,,,,,,,,,,,,,,,,,,,
,6108878a6817adc0fb1bfbf9,627c75e4bfe31e5ff5625fcf,2022-05-12_03h50.25.790,classification_task,2021.2.3,Win32,157.4555188,627c6715c52fd12f31907bd0,,,,,,,,,,,,,,,,,,,,,,,,0,,"[""0.110"",""0.174"",""0.478"",""0.846""]","[1,1,1,0]",0,8,8,8,1,1,0,,,1,FALSE,,,,,,,,,,,,,,,,,,,,,,,,,,,,,,,
,6108878a6817adc0fb1bfbf9,627c75e4bfe31e5ff5625fcf,2022-05-12_03h50.25.790,classification_task,2021.2.3,Win32,157.4555188,627c6715c52fd12f31907bd0,,,,,,,,,,,,,,,,,,,,,,,a,1,2.8168,"[""0.222"",""0.373"",""0.619"",""0.973""]","[1,1,0,1]",0,9,9,9,1,0,1,,,1,FALSE,,,,,,,,,,,,,,,,,,,,,,,,,,,,,,,
,6108878a6817adc0fb1bfbf9,627c75e4bfe31e5ff5625fcf,2022-05-12_03h50.25.790,classification_task,2021.2.3,Win32,157.4555188,627c6715c52fd12f31907bd0,,,,,,,,,,,,,,,,,,,,,,,a,1,4.219,"[""0.260"",""0.539"",""0.848"",""0.925""]","[1,1,0,1]",0,10,10,10,1,0,0,,,1,FALSE,,,,,,,,,,,,,,,,,,,,,,,,,,,,,,,
,6108878a6817adc0fb1bfbf9,627c75e4bfe31e5ff5625fcf,2022-05-12_03h50.25.790,classification_task,2021.2.3,Win32,157.4555188,627c6715c52fd12f31907bd0,,,,,,,,,,,,,,,,,,,,,,,l,1,6.1859,"[""0.616"",""0.319"",""0.581"",""0.811""]","[0,1,1,1]",0,11,11,11,1,1,1,,,1,FALSE,,,,,,,,,,,,,,,,,,,,,,,,,,,,,,,
,6108878a6817adc0fb1bfbf9,627c75e4bfe31e5ff5625fcf,2022-05-12_03h50.25.790,classification_task,2021.2.3,Win32,157.4555188,627c6715c52fd12f31907bd0,,,,,,,,,,,,,,,,,,,,,,,l,1,5.9677,"[""0.039"",""0.319"",""0.581"",""0.412""]","[1,1,1,0]",0,12,12,12,1,1,1,,,1,FALSE,,,,,,,,,,,,,,,,,,,,,,,,,,,,,,,
,6108878a6817adc0fb1bfbf9,627c75e4bfe31e5ff5625fcf,2022-05-12_03h50.25.790,classification_task,2021.2.3,Win32,157.4555188,627c6715c52fd12f31907bd0,,,,,,,,,,,,,,,,,,,,,,,l,1,1.9334,"[""0.110"",""0.174"",""0.074"",""0.745""]","[1,1,0,1]",0,13,13,13,1,1,0,,,1,FALSE,,,,,,,,,,,,,,,,,,,,,,,,,,,,,,,
,6108878a6817adc0fb1bfbf9,627c75e4bfe31e5ff5625fcf,2022-05-12_03h50.25.790,classification_task,2021.2.3,Win32,157.4555188,627c6715c52fd12f31907bd0,,,,,,,,,,,,,,,,,,,,,,,l,0,3.3249,"[""0.260"",""0.845"",""0.883"",""0.925""]","[1,0,1,1]",0,14,14,14,1,0,0,,,1,FALSE,,,,,,,,,,,,,,,,,,,,,,,,,,,,,,,
,6108878a6817adc0fb1bfbf9,627c75e4bfe31e5ff5625fcf,2022-05-12_03h50.25.790,classification_task,2021.2.3,Win32,157.4555188,627c6715c52fd12f31907bd0,,,,,,,,,,,,,,,,,,,,,,,l,1,8.2114,"[""0.073"",""0.174"",""0.478"",""0.745""]","[0,1,1,1]",0,15,15,15,1,1,0,,,1,FALSE,,,,,,,,,,,,,,,,,,,,,,,,,,,,,,,
,6108878a6817adc0fb1bfbf9,627c75e4bfe31e5ff5625fcf,2022-05-12_03h50.25.790,classification_task,2021.2.3,Win32,157.4555188,627c6715c52fd12f31907bd0,,,,,,,,,,,,,,,,,,,,,,,l,1,5.8808,"[""0.039"",""0.319"",""0.581"",""0.626""]","[1,1,1,0]",0,16,16,16,1,1,1,,,1,FALSE,,,,,,,,,,,,,,,,,,,,,,,,,,,,,,,
,6108878a6817adc0fb1bfbf9,627c75e4bfe31e5ff5625fcf,2022-05-12_03h50.25.790,classification_task,2021.2.3,Win32,157.4555188,627c6715c52fd12f31907bd0,,,,,,,,,,,,,,,,,,,,,,,a,1,4.5694,"[""0.260"",""0.539"",""0.883"",""0.846""]","[1,1,1,0]",0,17,17,17,1,0,0,,,1,FALSE,,,,,,,,,,,,,,,,,,,,,,,,,,,,,,,
,6108878a6817adc0fb1bfbf9,627c75e4bfe31e5ff5625fcf,2022-05-12_03h50.25.790,classification_task,2021.2.3,Win32,157.4555188,627c6715c52fd12f31907bd0,,,,,,,,,,,,,,,,,,,,,,,l,1,7.2111,"[""0.110"",""0.073"",""0.478"",""0.745""]","[1,0,1,1]",0,18,18,18,1,1,0,,,1,FALSE,,,,,,,,,,,,,,,,,,,,,,,,,,,,,,,
,6108878a6817adc0fb1bfbf9,627c75e4bfe31e5ff5625fcf,2022-05-12_03h50.25.790,classification_task,2021.2.3,Win32,157.4555188,627c6715c52fd12f31907bd0,,,,,,,,,,,,,,,,,,,,,,,a,1,4.9998,"[""0.260"",""0.539"",""0.709"",""0.925""]","[1,1,0,1]",0,19,19,19,1,0,0,,,1,FALSE,,,,,,,,,,,,,,,,,,,,,,,,,,,,,,,
,6108878a6817adc0fb1bfbf9,627c75e4bfe31e5ff5625fcf,2022-05-12_03h50.25.790,classification_task,2021.2.3,Win32,157.4555188,627c6715c52fd12f31907bd0,,,,,,,,,,,,,,,,,,,,,,,a,1,2.8246,"[""0.222"",""0.619"",""0.670"",""0.973""]","[1,0,1,1]",0,20,20,20,1,0,1,,,1,FALSE,,,,,,,,,,,,,,,,,,,,,,,,,,,,,,,
,6108878a6817adc0fb1bfbf9,627c75e4bfe31e5ff5625fcf,2022-05-12_03h50.25.790,classification_task,2021.2.3,Win32,157.4555188,627c6715c52fd12f31907bd0,,,,,,,,,,,,,,,,,,,,,,,l,1,6.4047,"[""0.709"",""0.319"",""0.581"",""0.811""]","[0,1,1,1]",0,21,21,21,1,1,1,,,1,FALSE,,,,,,,,,,,,,,,,,,,,,,,,,,,,,,,
,6108878a6817adc0fb1bfbf9,627c75e4bfe31e5ff5625fcf,2022-05-12_03h50.25.790,classification_task,2021.2.3,Win32,157.4555188,627c6715c52fd12f31907bd0,,,,,,,,,,,,,,,,,,,,,,,a,1,3.8001,"[""0.849"",""0.539"",""0.883"",""0.925""]","[0,1,1,1]",0,22,22,22,1,0,0,,,1,FALSE,,,,,,,,,,,,,,,,,,,,,,,,,,,,,,,
,6108878a6817adc0fb1bfbf9,627c75e4bfe31e5ff5625fcf,2022-05-12_03h50.25.790,classification_task,2021.2.3,Win32,157.4555188,627c6715c52fd12f31907bd0,,,,,,,,,,,,,,,,,,,,,,,l,1,6.0301,"[""0.039"",""0.630"",""0.581"",""0.811""]","[1,0,1,1]",0,23,23,23,1,1,1,,,1,FALSE,,,,,,,,,,,,,,,,,,,,,,,,,,,,,,,
,6108878a6817adc0fb1bfbf9,627c75e4bfe31e5ff5625fcf,2022-05-12_03h50.25.790,classification_task,2021.2.3,Win32,157.4555188,627c6715c52fd12f31907bd0,,,,,,,,,,,,,,,,,,,,,,,l,1,8.7074,"[""0.619"",""0.174"",""0.478"",""0.745""]","[0,1,1,1]",0,24,24,24,1,1,0,,,1,FALSE,,,,,,,,,,,,,,,,,,,,,,,,,,,,,,,
,6108878a6817adc0fb1bfbf9,627c75e4bfe31e5ff5625fcf,2022-05-12_03h50.25.790,classification_task,2021.2.3,Win32,157.4555188,627c6715c52fd12f31907bd0,,,,,,,,,,,,,,,,,,,,,,,l,0,5.7964,"[""0.616"",""0.373"",""0.670"",""0.973""]","[0,1,1,1]",0,25,25,25,1,0,1,,,1,FALSE,,,,,,,,,,,,,,,,,,,,,,,,,,,,,,,
,6108878a6817adc0fb1bfbf9,627c75e4bfe31e5ff5625fcf,2022-05-12_03h50.25.790,classification_task,2021.2.3,Win32,157.4555188,627c6715c52fd12f31907bd0,,,,,,,,,,,,,,,,,,,,,,,l,1,8.8175,"[""0.110"",""0.174"",""0.846"",""0.745""]","[1,1,0,1]",0,26,26,26,1,1,0,,,1,FALSE,,,,,,,,,,,,,,,,,,,,,,,,,,,,,,,
,6108878a6817adc0fb1bfbf9,627c75e4bfe31e5ff5625fcf,2022-05-12_03h50.25.790,classification_task,2021.2.3,Win32,157.4555188,627c6715c52fd12f31907bd0,,,,,,,,,,,,,,,,,,,,,,,a,1,4.8406,"[""0.222"",""0.373"",""0.670"",""0.630""]","[1,1,1,0]",0,27,27,27,1,0,1,,,1,FALSE,,,,,,,,,,,,,,,,,,,,,,,,,,,,,,,
,6108878a6817adc0fb1bfbf9,627c75e4bfe31e5ff5625fcf,2022-05-12_03h50.25.790,classification_task,2021.2.3,Win32,157.4555188,627c6715c52fd12f31907bd0,,,,,,,,,,,,,,,,,,,,,,,a,1,7.2422,"[""0.260"",""0.848"",""0.883"",""0.925""]","[1,0,1,1]",0,28,28,28,1,0,0,,,1,FALSE,,,,,,,,,,,,,,,,,,,,,,,,,,,,,,,
,6108878a6817adc0fb1bfbf9,627c75e4bfe31e5ff5625fcf,2022-05-12_03h50.25.790,classification_task,2021.2.3,Win32,157.4555188,627c6715c52fd12f31907bd0,,,,,,,,,,,,,,,,,,,,,,,a,1,6.6055,"[""0.222"",""0.373"",""0.846"",""0.973""]","[1,1,0,1]",0,29,29,29,1,0,1,,,1,FALSE,,,,,,,,,,,,,,,,,,,,,,,,,,,,,,,
,6108878a6817adc0fb1bfbf9,627c75e4bfe31e5ff5625fcf,2022-05-12_03h50.25.790,classification_task,2021.2.3,Win32,157.4555188,627c6715c52fd12f31907bd0,,,,,,,,,,,,,,,,,,,,,,,l,1,7.3383,"[""0.039"",""0.319"",""0.619"",""0.811""]","[1,1,0,1]",0,30,30,30,1,1,1,,,1,FALSE,,,,,,,,,,,,,,,,,,,,,,,,,,,,,,,
,6108878a6817adc0fb1bfbf9,627c75e4bfe31e5ff5625fcf,2022-05-12_03h50.25.790,classification_task,2021.2.3,Win32,157.4555188,627c6715c52fd12f31907bd0,,,,,,,,,,,,,,,,,,,,,,,l,1,7.6407,"[""0.110"",""0.174"",""0.478"",""0.073""]","[1,1,1,0]",0,31,31,31,1,1,0,,,1,FALSE,,,,,,,,,,,,,,,,,,,,,,,,,,,,,,,
,6108878a6817adc0fb1bfbf9,627c75e4bfe31e5ff5625fcf,2022-05-12_03h50.25.790,classification_task,2021.2.3,Win32,157.4555188,627c6715c52fd12f31907bd0,,,,,,,,,,,,,,,,,,,,,,,a,0,6.5828,"[""0.110"",""0.436"",""0.478"",""0.745""]","[1,0,1,1]",0,32,32,32,1,1,0,,,1,FALSE,,,,,,,,,,,,,,,,,,,,,,,,,,,,,,,
,6108878a6817adc0fb1bfbf9,627c75e4bfe31e5ff5625fcf,2022-05-12_03h50.25.790,classification_task,2021.2.3,Win32,157.4555188,627c6715c52fd12f31907bd0,,,,,,,,,,,,,,,,,,,,,,,a,0,3.175,"[""0.039"",""0.319"",""0.581"",""0.845""]","[1,1,1,0]",0,33,33,33,1,1,1,,,1,FALSE,,,,,,,,,,,,,,,,,,,,,,,,,,,,,,,
,6108878a6817adc0fb1bfbf9,627c75e4bfe31e5ff5625fcf,2022-05-12_03h50.25.790,classification_task,2021.2.3,Win32,157.4555188,627c6715c52fd12f31907bd0,,,,,,,,,,,,,,,,,,,,,,,l,1,7.6784,"[""0.110"",""0.174"",""0.478"",""0.428""]","[1,1,1,0]",0,34,34,34,1,1,0,,,1,FALSE,,,,,,,,,,,,,,,,,,,,,,,,,,,,,,,
,6108878a6817adc0fb1bfbf9,627c75e4bfe31e5ff5625fcf,2022-05-12_03h50.25.790,classification_task,2021.2.3,Win32,157.4555188,627c6715c52fd12f31907bd0,,,,,,,,,,,,,,,,,,,,,,,l,0,3.9501,"[""0.260"",""0.539"",""0.883"",""0.705""]","[1,1,1,0]",0,35,35,35,1,0,0,,,1,FALSE,,,,,,,,,,,,,,,,,,,,,,,,,,,,,,,
,6108878a6817adc0fb1bfbf9,627c75e4bfe31e5ff5625fcf,2022-05-12_03h50.25.790,classification_task,2021.2.3,Win32,157.4555188,627c6715c52fd12f31907bd0,,,,,,,,,,,,,,,,,,,,,,,l,0,3.3917,"[""0.260"",""0.849"",""0.883"",""0.925""]","[1,0,1,1]",0,36,36,36,1,0,0,,,1,FALSE,,,,,,,,,,,,,,,,,,,,,,,,,,,,,,,
,6108878a6817adc0fb1bfbf9,627c75e4bfe31e5ff5625fcf,2022-05-12_03h50.25.790,classification_task,2021.2.3,Win32,157.4555188,627c6715c52fd12f31907bd0,,,,,,,,,,,,,,,,,,,,,,,l,0,3.3397,"[""0.260"",""0.539"",""0.845"",""0.925""]","[1,1,0,1]",0,37,37,37,1,0,0,,,1,FALSE,,,,,,,,,,,,,,,,,,,,,,,,,,,,,,,
,6108878a6817adc0fb1bfbf9,627c75e4bfe31e5ff5625fcf,2022-05-12_03h50.25.790,classification_task,2021.2.3,Win32,157.4555188,627c6715c52fd12f31907bd0,,,,,,,,,,,,,,,,,,,,,,,a,1,5.659,"[""0.845"",""0.373"",""0.670"",""0.973""]","[0,1,1,1]",0,38,38,38,1,0,1,,,1,FALSE,,,,,,,,,,,,,,,,,,,,,,,,,,,,,,,
,6108878a6817adc0fb1bfbf9,627c75e4bfe31e5ff5625fcf,2022-05-12_03h50.25.790,classification_task,2021.2.3,Win32,157.4555188,627c6715c52fd12f31907bd0,,,,,,,,,,,,,,,,,,,,,,,l,1,2.7374,"[""0.039"",""0.616"",""0.581"",""0.811""]","[1,0,1,1]",0,39,39,39,1,1,1,,,1,FALSE,,,,,,,,,,,,,,,,,,,,,,,,,,,,,,,
,6108878a6817adc0fb1bfbf9,627c75e4bfe31e5ff5625fcf,2022-05-12_03h50.25.790,classification_task,2021.2.3,Win32,157.4555188,627c6715c52fd12f31907bd0,,,,,,,,,,,,,,,,,,,,,,,a,0,3.7018,"[""0.110"",""0.174"",""0.074"",""0.745""]","[1,1,0,1]",0,40,40,40,1,1,0,,,1,FALSE,,,,,,,,,,,,,,,,,,,,,,,,,,,,,,,
,6108878a6817adc0fb1bfbf9,627c75e4bfe31e5ff5625fcf,2022-05-12_03h50.25.790,classification_task,2021.2.3,Win32,157.4555188,627c6715c52fd12f31907bd0,,,,,,,,,,,,,,,,,,,,,,,a,1,2.6034,"[""0.222"",""0.373"",""0.670"",""0.428""]","[1,1,1,0]",0,41,41,41,1,0,1,,,1,FALSE,,,,,,,,,,,,,,,,,,,,,,,,,,,,,,,
,6108878a6817adc0fb1bfbf9,627c75e4bfe31e5ff5625fcf,2022-05-12_03h50.25.790,classification_task,2021.2.3,Win32,157.4555188,627c6715c52fd12f31907bd0,,,,,,,,,,,,,,,,,,,,,,,a,0,5.8045,"[""0.039"",""0.319"",""0.630"",""0.811""]","[1,1,0,1]",0,42,42,42,1,1,1,,,1,FALSE,,,,,,,,,,,,,,,,,,,,,,,,,,,,,,,
,6108878a6817adc0fb1bfbf9,627c75e4bfe31e5ff5625fcf,2022-05-12_03h50.25.790,classification_task,2021.2.3,Win32,157.4555188,627c6715c52fd12f31907bd0,,,,,,,,,,,,,,,,,,,,,,,a,1,1.4894,"[""0.222"",""0.705"",""0.670"",""0.973""]","[1,0,1,1]",0,43,43,43,1,0,1,,,1,FALSE,,,,,,,,,,,,,,,,,,,,,,,,,,,,,,,
,6108878a6817adc0fb1bfbf9,627c75e4bfe31e5ff5625fcf,2022-05-12_03h50.25.790,classification_task,2021.2.3,Win32,157.4555188,627c6715c52fd12f31907bd0,,,,,,,,,,,,,,,,,,,,,,,a,1,2.2541,"[""0.222"",""0.373"",""0.630"",""0.973""]","[1,1,0,1]",0,44,44,44,1,0,1,,,1,FALSE,,,,,,,,,,,,,,,,,,,,,,,,,,,,,,,
,6108878a6817adc0fb1bfbf9,627c75e4bfe31e5ff5625fcf,2022-05-12_03h50.25.790,classification_task,2021.2.3,Win32,157.4555188,627c6715c52fd12f31907bd0,,,,,,,,,,,,,,,,,,,,,,,l,1,4.6591,"[""0.626"",""0.319"",""0.581"",""0.811""]","[0,1,1,1]",0,45,45,45,1,1,1,,,1,FALSE,,,,,,,,,,,,,,,,,,,,,,,,,,,,,,,
,6108878a6817adc0fb1bfbf9,627c75e4bfe31e5ff5625fcf,2022-05-12_03h50.25.790,classification_task,2021.2.3,Win32,157.4555188,627c6715c52fd12f31907bd0,,,,,,,,,,,,,,,,,,,,,,,l,0,2.1558,"[""0.626"",""0.539"",""0.883"",""0.925""]","[0,1,1,1]",0,46,46,46,1,0,0,,,1,FALSE,,,,,,,,,,,,,,,,,,,,,,,,,,,,,,,
,6108878a6817adc0fb1bfbf9,627c75e4bfe31e5ff5625fcf,2022-05-12_03h50.25.790,classification_task,2021.2.3,Win32,157.4555188,627c6715c52fd12f31907bd0,,,,,,,,,,,,,,,,,,,,,,,a,0,3.8843,"[""0.074"",""0.174"",""0.478"",""0.745""]","[0,1,1,1]",0,47,47,47,1,1,0,,,1,FALSE,,,,,,,,,,,,,,,,,,,,,,,,,,,,,,,
,6108878a6817adc0fb1bfbf9,627c75e4bfe31e5ff5625fcf,2022-05-12_03h50.25.790,classification_task,2021.2.3,Win32,157.4555188,627c6715c52fd12f31907bd0,,,,,,,,,,,,,,,,,,,,,,,a,0,2.0366,"[""0.110"",""0.845"",""0.478"",""0.745""]","[1,0,1,1]",0,48,48,48,1,1,0,,,1,FALSE,,,,,,,,,,,,,,,,,,,,,,,,,,,,,,,
,6108878a6817adc0fb1bfbf9,627c75e4bfe31e5ff5625fcf,2022-05-12_03h50.25.790,classification_task,2021.2.3,Win32,157.4555188,627c6715c52fd12f31907bd0,,,,,,,,,,,,,,,,,,,,,,,l,1,1.9634,"[""0.074"",""0.174"",""0.478"",""0.745""]","[0,1,1,1]",0,49,49,49,1,1,0,,,1,FALSE,,,,,,,,,,,,,,,,,,,,,,,,,,,,,,,
,6108878a6817adc0fb1bfbf9,627c75e4bfe31e5ff5625fcf,2022-05-12_03h50.25.790,classification_task,2021.2.3,Win32,157.4555188,627c6715c52fd12f31907bd0,,,,,,,,,,,,,,,,,,,,,,,a,1,1.7883,"[""0.222"",""0.373"",""0.626"",""0.973""]","[1,1,0,1]",0,50,50,50,1,0,1,,,1,FALSE,,,,,,,,,,,,,,,,,,,,,,,,,,,,,,,
,6108878a6817adc0fb1bfbf9,627c75e4bfe31e5ff5625fcf,2022-05-12_03h50.25.790,classification_task,2021.2.3,Win32,157.4555188,627c6715c52fd12f31907bd0,,,,,,,,,,,,,,,,,,,,,,,l,1,1.7997,"[""0.845"",""0.319"",""0.581"",""0.811""]","[0,1,1,1]",0,51,51,51,1,1,1,,,1,FALSE,,,,,,,,,,,,,,,,,,,,,,,,,,,,,,,
,6108878a6817adc0fb1bfbf9,627c75e4bfe31e5ff5625fcf,2022-05-12_03h50.25.790,classification_task,2021.2.3,Win32,157.4555188,627c6715c52fd12f31907bd0,,,,,,,,,,,,,,,,,,,,,,,a,1,1.4768,"[""0.222"",""0.848"",""0.670"",""0.973""]","[1,0,1,1]",0,52,52,52,1,0,1,,,1,FALSE,,,,,,,,,,,,,,,,,,,,,,,,,,,,,,,
,6108878a6817adc0fb1bfbf9,627c75e4bfe31e5ff5625fcf,2022-05-12_03h50.25.790,classification_task,2021.2.3,Win32,157.4555188,627c6715c52fd12f31907bd0,,,,,,,,,,,,,,,,,,,,,,,l,1,1.5085,"[""0.039"",""0.319"",""0.709"",""0.811""]","[1,1,0,1]",0,53,53,53,1,1,1,,,1,FALSE,,,,,,,,,,,,,,,,,,,,,,,,,,,,,,,
,6108878a6817adc0fb1bfbf9,627c75e4bfe31e5ff5625fcf,2022-05-12_03h50.25.790,classification_task,2021.2.3,Win32,157.4555188,627c6715c52fd12f31907bd0,,,,,,,,,,,,,,,,,,,,,,,l,0,3.0303,"[""0.260"",""0.073"",""0.883"",""0.925""]","[1,0,1,1]",0,54,54,54,1,0,0,,,1,FALSE,,,,,,,,,,,,,,,,,,,,,,,,,,,,,,,
,6108878a6817adc0fb1bfbf9,627c75e4bfe31e5ff5625fcf,2022-05-12_03h50.25.790,classification_task,2021.2.3,Win32,157.4555188,627c6715c52fd12f31907bd0,,,,,,,,,,,,,,,,,,,,,,,l,1,3.1919,"[""0.039"",""0.845"",""0.581"",""0.811""]","[1,0,1,1]",0,55,55,55,1,1,1,,,1,FALSE,,,,,,,,,,,,,,,,,,,,,,,,,,,,,,,
,6108878a6817adc0fb1bfbf9,627c75e4bfe31e5ff5625fcf,2022-05-12_03h50.25.790,classification_task,2021.2.3,Win32,157.4555188,627c6715c52fd12f31907bd0,,,,,,,,,,,,,,,,,,,,,,,a,0,1.6842,"[""0.110"",""0.174"",""0.478"",""0.428""]","[1,1,1,0]",0,56,56,56,1,1,0,,,1,FALSE,,,,,,,,,,,,,,,,,,,,,,,,,,,,,,,
,6108878a6817adc0fb1bfbf9,627c75e4bfe31e5ff5625fcf,2022-05-12_03h50.25.790,classification_task,2021.2.3,Win32,157.4555188,627c6715c52fd12f31907bd0,,,,,,,,,,,,,,,,,,,,,,,a,1,2.0646,"[""0.222"",""0.373"",""0.670"",""0.848""]","[1,1,1,0]",0,57,57,57,1,0,1,,,1,FALSE,,,,,,,,,,,,,,,,,,,,,,,,,,,,,,,
,6108878a6817adc0fb1bfbf9,627c75e4bfe31e5ff5625fcf,2022-05-12_03h50.25.790,classification_task,2021.2.3,Win32,157.4555188,627c6715c52fd12f31907bd0,,,,,,,,,,,,,,,,,,,,,,,a,0,3.4658,"[""0.039"",""0.319"",""0.581"",""0.849""]","[1,1,1,0]",0,58,58,58,1,1,1,,,1,FALSE,,,,,,,,,,,,,,,,,,,,,,,,,,,,,,,
,6108878a6817adc0fb1bfbf9,627c75e4bfe31e5ff5625fcf,2022-05-12_03h50.25.790,classification_task,2021.2.3,Win32,157.4555188,627c6715c52fd12f31907bd0,,,,,,,,,,,,,,,,,,,,,,,l,0,1.4965,"[""0.619"",""0.373"",""0.670"",""0.973""]","[0,1,1,1]",0,59,59,59,1,0,1,,,1,FALSE,,,,,,,,,,,,,,,,,,,,,,,,,,,,,,,
,6108878a6817adc0fb1bfbf9,627c75e4bfe31e5ff5625fcf,2022-05-12_03h50.25.790,classification_task,2021.2.3,Win32,157.4555188,627c6715c52fd12f31907bd0,,,,,,,,,,,,,,,,,,,,,,,l,0,2.483,"[""0.848"",""0.539"",""0.883"",""0.925""]","[0,1,1,1]",0,60,60,60,1,0,0,,,1,FALSE,,,,,,,,,,,,,,,,,,,,,,,,,,,,,,,
,6108878a6817adc0fb1bfbf9,627c75e4bfe31e5ff5625fcf,2022-05-12_03h50.25.790,classification_task,2021.2.3,Win32,157.4555188,627c6715c52fd12f31907bd0,,,,,,,,,,,,,,,,,,,,,,,l,0,2.8902,"[""0.260"",""0.539"",""0.883"",""0.436""]","[1,1,1,0]",0,61,61,61,1,0,0,,,1,FALSE,,,,,,,,,,,,,,,,,,,,,,,,,,,,,,,
,6108878a6817adc0fb1bfbf9,627c75e4bfe31e5ff5625fcf,2022-05-12_03h50.25.790,classification_task,2021.2.3,Win32,157.4555188,627c6715c52fd12f31907bd0,,,,,,,,,,,,,,,,,,,,,,,a,0,1.2509,"[""0.110"",""0.174"",""0.846"",""0.745""]","[1,1,0,1]",0,62,62,62,1,1,0,,,1,FALSE,,,,,,,,,,,,,,,,,,,,,,,,,,,,,,,
,6108878a6817adc0fb1bfbf9,627c75e4bfe31e5ff5625fcf,2022-05-12_03h50.25.790,classification_task,2021.2.3,Win32,157.4555188,627c6715c52fd12f31907bd0,,,,,,,,,,,,,,,,,,,,,,,a,1,2.6715,"[""0.260"",""0.539"",""0.428"",""0.925""]","[1,1,0,1]",0,63,63,63,1,0,0,,,1,FALSE,,,,,,,,,,,,,,,,,,,,,,,,,,,,,,,
,6108878a6817adc0fb1bfbf9,627c75e4bfe31e5ff5625fcf,2022-05-12_03h50.25.790,classification_task,2021.2.3,Win32,157.4555188,627c6715c52fd12f31907bd0,,,,,,,,,,,,,,,,,,,,,,,,,,,,,,,,,,,,,,,0, ,,0,5.394651915,612.2031,0,0,0,0,1,2,1,,,,,,,,,,,,,,,,,,
,6108878a6817adc0fb1bfbf9,627c75e4bfe31e5ff5625fcf,2022-05-12_03h50.25.790,classification_task,2021.2.3,Win32,157.4555188,627c6715c52fd12f31907bd0,,,,,,,,,,,,,,,,,,,,,,,,,,,,,,,,,,,,,,,1,  ,,0,7.580440116,605.7107,0,0,0,0,1,2,1,,,,,,,,,,,,,,,,,,
,6108878a6817adc0fb1bfbf9,627c75e4bfe31e5ff5625fcf,2022-05-12_03h50.25.790,classification_task,2021.2.3,Win32,157.4555188,627c6715c52fd12f31907bd0,,,,,,,,,,,,,,,,,,,,,,,,,,,,,,,,,,,,,,,2,  ,,0,8.939670178,599.1104,0,0,0,0,1,2,1,,,,,,,,,,,,,,,,,,
,6108878a6817adc0fb1bfbf9,627c75e4bfe31e5ff5625fcf,2022-05-12_03h50.25.790,classification_task,2021.2.3,Win32,157.4555188,627c6715c52fd12f31907bd0,,,,,,,,,,,,,,,,,,,,,,,,,,,,,,,,,,,,,,,,,,,,,0,0,0,0,1,,1,,,,,,,,,,,,,,,,,,
,6108878a6817adc0fb1bfbf9,627c75e4bfe31e5ff5625fcf,2022-05-12_03h50.25.790,classification_task,2021.2.3,Win32,157.4555188,627c6715c52fd12f31907bd0,,,,,,,,,,,,,,,,,,,,,space,21.3127,a,1,2.9026,"[""0.222"",""0.373"",""0.670"",""0.846""]","[1,1,1,0]",0,0,0,0,1,0,1,,,1,FALSE,,,,,,,,,,,,,,,,,,,,,,,,,,,,,,,
,6108878a6817adc0fb1bfbf9,627c75e4bfe31e5ff5625fcf,2022-05-12_03h50.25.790,classification_task,2021.2.3,Win32,157.4555188,627c6715c52fd12f31907bd0,,,,,,,,,,,,,,,,,,,,,,,l,0,3.2234,"[""0.260"",""0.539"",""0.883"",""0.845""]","[1,1,1,0]",0,1,1,1,1,0,0,,,1,FALSE,,,,,,,,,,,,,,,,,,,,,,,,,,,,,,,
,6108878a6817adc0fb1bfbf9,627c75e4bfe31e5ff5625fcf,2022-05-12_03h50.25.790,classification_task,2021.2.3,Win32,157.4555188,627c6715c52fd12f31907bd0,,,,,,,,,,,,,,,,,,,,,,,l,1,2.9865,"[""0.039"",""0.705"",""0.581"",""0.811""]","[1,0,1,1]",0,2,2,2,1,1,1,,,1,FALSE,,,,,,,,,,,,,,,,,,,,,,,,,,,,,,,
,6108878a6817adc0fb1bfbf9,627c75e4bfe31e5ff5625fcf,2022-05-12_03h50.25.790,classification_task,2021.2.3,Win32,157.4555188,627c6715c52fd12f31907bd0,,,,,,,,,,,,,,,,,,,,,,,l,0,1.3023,"[""0.222"",""0.373"",""0.412"",""0.973""]","[1,1,0,1]",0,3,3,3,1,0,1,,,1,FALSE,,,,,,,,,,,,,,,,,,,,,,,,,,,,,,,
,6108878a6817adc0fb1bfbf9,627c75e4bfe31e5ff5625fcf,2022-05-12_03h50.25.790,classification_task,2021.2.3,Win32,157.4555188,627c6715c52fd12f31907bd0,,,,,,,,,,,,,,,,,,,,,,,l,1,5.8121,"[""0.039"",""0.319"",""0.581"",""0.073""]","[1,1,1,0]",0,4,4,4,1,1,1,,,1,FALSE,,,,,,,,,,,,,,,,,,,,,,,,,,,,,,,
,6108878a6817adc0fb1bfbf9,627c75e4bfe31e5ff5625fcf,2022-05-12_03h50.25.790,classification_task,2021.2.3,Win32,157.4555188,627c6715c52fd12f31907bd0,,,,,,,,,,,,,,,,,,,,,,,a,1,1.7312,"[""0.846"",""0.539"",""0.883"",""0.925""]","[0,1,1,1]",0,5,5,5,1,0,0,,,1,FALSE,,,,,,,,,,,,,,,,,,,,,,,,,,,,,,,
,6108878a6817adc0fb1bfbf9,627c75e4bfe31e5ff5625fcf,2022-05-12_03h50.25.790,classification_task,2021.2.3,Win32,157.4555188,627c6715c52fd12f31907bd0,,,,,,,,,,,,,,,,,,,,,,,l,0,2.3093,"[""0.260"",""0.539"",""0.073"",""0.925""]","[1,1,0,1]",0,6,6,6,1,0,0,,,1,FALSE,,,,,,,,,,,,,,,,,,,,,,,,,,,,,,,
,6108878a6817adc0fb1bfbf9,627c75e4bfe31e5ff5625fcf,2022-05-12_03h50.25.790,classification_task,2021.2.3,Win32,157.4555188,627c6715c52fd12f31907bd0,,,,,,,,,,,,,,,,,,,,,,,a,0,2.1799,"[""0.039"",""0.319"",""0.074"",""0.811""]","[1,1,0,1]",0,7,7,7,1,1,1,,,1,FALSE,,,,,,,,,,,,,,,,,,,,,,,,,,,,,,,
,6108878a6817adc0fb1bfbf9,627c75e4bfe31e5ff5625fcf,2022-05-12_03h50.25.790,classification_task,2021.2.3,Win32,157.4555188,627c6715c52fd12f31907bd0,,,,,,,,,,,,,,,,,,,,,,,l,0,3.0536,"[""0.848"",""0.373"",""0.670"",""0.973""]","[0,1,1,1]",0,8,8,8,1,0,1,,,1,FALSE,,,,,,,,,,,,,,,,,,,,,,,,,,,,,,,
,6108878a6817adc0fb1bfbf9,627c75e4bfe31e5ff5625fcf,2022-05-12_03h50.25.790,classification_task,2021.2.3,Win32,157.4555188,627c6715c52fd12f31907bd0,,,,,,,,,,,,,,,,,,,,,,,a,0,1.6294,"[""0.110"",""0.174"",""0.478"",""0.846""]","[1,1,1,0]",0,9,9,9,1,1,0,,,1,FALSE,,,,,,,,,,,,,,,,,,,,,,,,,,,,,,,
,6108878a6817adc0fb1bfbf9,627c75e4bfe31e5ff5625fcf,2022-05-12_03h50.25.790,classification_task,2021.2.3,Win32,157.4555188,627c6715c52fd12f31907bd0,,,,,,,,,,,,,,,,,,,,,,,l,1,0.6783,"[""0.110"",""0.709"",""0.478"",""0.745""]","[1,0,1,1]",0,10,10,10,1,1,0,,,1,FALSE,,,,,,,,,,,,,,,,,,,,,,,,,,,,,,,
,6108878a6817adc0fb1bfbf9,627c75e4bfe31e5ff5625fcf,2022-05-12_03h50.25.790,classification_task,2021.2.3,Win32,157.4555188,627c6715c52fd12f31907bd0,,,,,,,,,,,,,,,,,,,,,,,a,0,1.4609,"[""0.428"",""0.174"",""0.478"",""0.745""]","[0,1,1,1]",0,11,11,11,1,1,0,,,1,FALSE,,,,,,,,,,,,,,,,,,,,,,,,,,,,,,,
,6108878a6817adc0fb1bfbf9,627c75e4bfe31e5ff5625fcf,2022-05-12_03h50.25.790,classification_task,2021.2.3,Win32,157.4555188,627c6715c52fd12f31907bd0,,,,,,,,,,,,,,,,,,,,,,,l,1,1.2728,"[""0.110"",""0.174"",""0.849"",""0.745""]","[1,1,0,1]",0,12,12,12,1,1,0,,,1,FALSE,,,,,,,,,,,,,,,,,,,,,,,,,,,,,,,
,6108878a6817adc0fb1bfbf9,627c75e4bfe31e5ff5625fcf,2022-05-12_03h50.25.790,classification_task,2021.2.3,Win32,157.4555188,627c6715c52fd12f31907bd0,,,,,,,,,,,,,,,,,,,,,,,a,1,1.5142,"[""0.260"",""0.619"",""0.883"",""0.925""]","[1,0,1,1]",0,13,13,13,1,0,0,,,1,FALSE,,,,,,,,,,,,,,,,,,,,,,,,,,,,,,,
,6108878a6817adc0fb1bfbf9,627c75e4bfe31e5ff5625fcf,2022-05-12_03h50.25.790,classification_task,2021.2.3,Win32,157.4555188,627c6715c52fd12f31907bd0,,,,,,,,,,,,,,,,,,,,,,,l,1,1.9195,"[""0.849"",""0.319"",""0.581"",""0.811""]","[0,1,1,1]",0,14,14,14,1,1,1,,,1,FALSE,,,,,,,,,,,,,,,,,,,,,,,,,,,,,,,
,6108878a6817adc0fb1bfbf9,627c75e4bfe31e5ff5625fcf,2022-05-12_03h50.25.790,classification_task,2021.2.3,Win32,157.4555188,627c6715c52fd12f31907bd0,,,,,,,,,,,,,,,,,,,,,,,a,1,0.9144,"[""0.222"",""0.626"",""0.670"",""0.973""]","[1,0,1,1]",0,15,15,15,1,0,1,,,1,FALSE,,,,,,,,,,,,,,,,,,,,,,,,,,,,,,,
,6108878a6817adc0fb1bfbf9,627c75e4bfe31e5ff5625fcf,2022-05-12_03h50.25.790,classification_task,2021.2.3,Win32,157.4555188,627c6715c52fd12f31907bd0,,,,,,,,,,,,,,,,,,,,,,,l,1,2.3515,"[""0.436"",""0.319"",""0.581"",""0.811""]","[0,1,1,1]",0,16,16,16,1,1,1,,,1,FALSE,,,,,,,,,,,,,,,,,,,,,,,,,,,,,,,
,6108878a6817adc0fb1bfbf9,627c75e4bfe31e5ff5625fcf,2022-05-12_03h50.25.790,classification_task,2021.2.3,Win32,157.4555188,627c6715c52fd12f31907bd0,,,,,,,,,,,,,,,,,,,,,,,l,1,1.8347,"[""0.110"",""0.174"",""0.436"",""0.745""]","[1,1,0,1]",0,17,17,17,1,1,0,,,1,FALSE,,,,,,,,,,,,,,,,,,,,,,,,,,,,,,,
,6108878a6817adc0fb1bfbf9,627c75e4bfe31e5ff5625fcf,2022-05-12_03h50.25.790,classification_task,2021.2.3,Win32,157.4555188,627c6715c52fd12f31907bd0,,,,,,,,,,,,,,,,,,,,,,,l,1,1.243,"[""0.110"",""0.845"",""0.478"",""0.745""]","[1,0,1,1]",0,18,18,18,1,1,0,,,1,FALSE,,,,,,,,,,,,,,,,,,,,,,,,,,,,,,,
,6108878a6817adc0fb1bfbf9,627c75e4bfe31e5ff5625fcf,2022-05-12_03h50.25.790,classification_task,2021.2.3,Win32,157.4555188,627c6715c52fd12f31907bd0,,,,,,,,,,,,,,,,,,,,,,,a,1,1.1815,"[""0.222"",""0.428"",""0.670"",""0.973""]","[1,0,1,1]",0,19,19,19,1,0,1,,,1,FALSE,,,,,,,,,,,,,,,,,,,,,,,,,,,,,,,
,6108878a6817adc0fb1bfbf9,627c75e4bfe31e5ff5625fcf,2022-05-12_03h50.25.790,classification_task,2021.2.3,Win32,157.4555188,627c6715c52fd12f31907bd0,,,,,,,,,,,,,,,,,,,,,,,a,1,3.6904,"[""0.260"",""0.539"",""0.883"",""0.705""]","[1,1,1,0]",0,20,20,20,1,0,0,,,1,FALSE,,,,,,,,,,,,,,,,,,,,,,,,,,,,,,,
,6108878a6817adc0fb1bfbf9,627c75e4bfe31e5ff5625fcf,2022-05-12_03h50.25.790,classification_task,2021.2.3,Win32,157.4555188,627c6715c52fd12f31907bd0,,,,,,,,,,,,,,,,,,,,,,,l,0,3.1061,"[""0.626"",""0.373"",""0.670"",""0.973""]","[0,1,1,1]",0,21,21,21,1,0,1,,,1,FALSE,,,,,,,,,,,,,,,,,,,,,,,,,,,,,,,
,6108878a6817adc0fb1bfbf9,627c75e4bfe31e5ff5625fcf,2022-05-12_03h50.25.790,classification_task,2021.2.3,Win32,157.4555188,627c6715c52fd12f31907bd0,,,,,,,,,,,,,,,,,,,,,,,l,0,1.4772,"[""0.260"",""0.539"",""0.412"",""0.925""]","[1,1,0,1]",0,22,22,22,1,0,0,,,1,FALSE,,,,,,,,,,,,,,,,,,,,,,,,,,,,,,,
,6108878a6817adc0fb1bfbf9,627c75e4bfe31e5ff5625fcf,2022-05-12_03h50.25.790,classification_task,2021.2.3,Win32,157.4555188,627c6715c52fd12f31907bd0,,,,,,,,,,,,,,,,,,,,,,,l,0,9.352,"[""0.260"",""0.619"",""0.883"",""0.925""]","[1,0,1,1]",0,23,23,23,1,0,0,,,1,FALSE,,,,,,,,,,,,,,,,,,,,,,,,,,,,,,,
,6108878a6817adc0fb1bfbf9,627c75e4bfe31e5ff5625fcf,2022-05-12_03h50.25.790,classification_task,2021.2.3,Win32,157.4555188,627c6715c52fd12f31907bd0,,,,,,,,,,,,,,,,,,,,,,,a,0,3.2829,"[""0.039"",""0.319"",""0.619"",""0.811""]","[1,1,0,1]",0,24,24,24,1,1,1,,,1,FALSE,,,,,,,,,,,,,,,,,,,,,,,,,,,,,,,
,6108878a6817adc0fb1bfbf9,627c75e4bfe31e5ff5625fcf,2022-05-12_03h50.25.790,classification_task,2021.2.3,Win32,157.4555188,627c6715c52fd12f31907bd0,,,,,,,,,,,,,,,,,,,,,,,l,1,1.7503,"[""0.039"",""0.319"",""0.581"",""0.845""]","[1,1,1,0]",0,25,25,25,1,1,1,,,1,FALSE,,,,,,,,,,,,,,,,,,,,,,,,,,,,,,,
,6108878a6817adc0fb1bfbf9,627c75e4bfe31e5ff5625fcf,2022-05-12_03h50.25.790,classification_task,2021.2.3,Win32,157.4555188,627c6715c52fd12f31907bd0,,,,,,,,,,,,,,,,,,,,,,,l,0,3.4899,"[""0.630"",""0.539"",""0.883"",""0.925""]","[0,1,1,1]",0,26,26,26,1,0,0,,,1,FALSE,,,,,,,,,,,,,,,,,,,,,,,,,,,,,,,
,6108878a6817adc0fb1bfbf9,627c75e4bfe31e5ff5625fcf,2022-05-12_03h50.25.790,classification_task,2021.2.3,Win32,157.4555188,627c6715c52fd12f31907bd0,,,,,,,,,,,,,,,,,,,,,,,l,1,1.4178,"[""0.110"",""0.174"",""0.478"",""0.709""]","[1,1,1,0]",0,27,27,27,1,1,0,,,1,FALSE,,,,,,,,,,,,,,,,,,,,,,,,,,,,,,,
,6108878a6817adc0fb1bfbf9,627c75e4bfe31e5ff5625fcf,2022-05-12_03h50.25.790,classification_task,2021.2.3,Win32,157.4555188,627c6715c52fd12f31907bd0,,,,,,,,,,,,,,,,,,,,,,,a,1,1.0169,"[""0.222"",""0.373"",""0.670"",""0.630""]","[1,1,1,0]",0,28,28,28,1,0,1,,,1,FALSE,,,,,,,,,,,,,,,,,,,,,,,,,,,,,,,
,6108878a6817adc0fb1bfbf9,627c75e4bfe31e5ff5625fcf,2022-05-12_03h50.25.790,classification_task,2021.2.3,Win32,157.4555188,627c6715c52fd12f31907bd0,,,,,,,,,,,,,,,,,,,,,,,l,1,1.618,"[""0.039"",""0.616"",""0.581"",""0.811""]","[1,0,1,1]",0,29,29,29,1,1,1,,,1,FALSE,,,,,,,,,,,,,,,,,,,,,,,,,,,,,,,
,6108878a6817adc0fb1bfbf9,627c75e4bfe31e5ff5625fcf,2022-05-12_03h50.25.790,classification_task,2021.2.3,Win32,157.4555188,627c6715c52fd12f31907bd0,,,,,,,,,,,,,,,,,,,,,,,a,1,5.4646,"[""0.222"",""0.373"",""0.073"",""0.973""]","[1,1,0,1]",0,30,30,30,1,0,1,,,1,FALSE,,,,,,,,,,,,,,,,,,,,,,,,,,,,,,,
,6108878a6817adc0fb1bfbf9,627c75e4bfe31e5ff5625fcf,2022-05-12_03h50.25.790,classification_task,2021.2.3,Win32,157.4555188,627c6715c52fd12f31907bd0,,,,,,,,,,,,,,,,,,,,,,,a,0,1.9131,"[""0.412"",""0.174"",""0.478"",""0.745""]","[0,1,1,1]",0,31,31,31,1,1,0,,,1,FALSE,,,,,,,,,,,,,,,,,,,,,,,,,,,,,,,
,6108878a6817adc0fb1bfbf9,627c75e4bfe31e5ff5625fcf,2022-05-12_03h50.25.790,classification_task,2021.2.3,Win32,157.4555188,627c6715c52fd12f31907bd0,,,,,,,,,,,,,,,,,,,,,,,l,0,3.5554,"[""0.260"",""0.848"",""0.883"",""0.925""]","[1,0,1,1]",0,32,32,32,1,0,0,,,1,FALSE,,,,,,,,,,,,,,,,,,,,,,,,,,,,,,,
,6108878a6817adc0fb1bfbf9,627c75e4bfe31e5ff5625fcf,2022-05-12_03h50.25.790,classification_task,2021.2.3,Win32,157.4555188,627c6715c52fd12f31907bd0,,,,,,,,,,,,,,,,,,,,,,,a,1,1.3808,"[""0.222"",""0.420"",""0.670"",""0.973""]","[1,0,1,1]",0,33,33,33,1,0,1,,,1,FALSE,,,,,,,,,,,,,,,,,,,,,,,,,,,,,,,
,6108878a6817adc0fb1bfbf9,627c75e4bfe31e5ff5625fcf,2022-05-12_03h50.25.790,classification_task,2021.2.3,Win32,157.4555188,627c6715c52fd12f31907bd0,,,,,,,,,,,,,,,,,,,,,,,a,1,1.9751,"[""0.260"",""0.539"",""0.883"",""0.848""]","[1,1,1,0]",0,34,34,34,1,0,0,,,1,FALSE,,,,,,,,,,,,,,,,,,,,,,,,,,,,,,,
,6108878a6817adc0fb1bfbf9,627c75e4bfe31e5ff5625fcf,2022-05-12_03h50.25.790,classification_task,2021.2.3,Win32,157.4555188,627c6715c52fd12f31907bd0,,,,,,,,,,,,,,,,,,,,,,,l,1,1.1208,"[""0.110"",""0.174"",""0.849"",""0.745""]","[1,1,0,1]",0,35,35,35,1,1,0,,,1,FALSE,,,,,,,,,,,,,,,,,,,,,,,,,,,,,,,
,6108878a6817adc0fb1bfbf9,627c75e4bfe31e5ff5625fcf,2022-05-12_03h50.25.790,classification_task,2021.2.3,Win32,157.4555188,627c6715c52fd12f31907bd0,,,,,,,,,,,,,,,,,,,,,,,l,1,1.0347,"[""0.110"",""0.428"",""0.478"",""0.745""]","[1,0,1,1]",0,36,36,36,1,1,0,,,1,FALSE,,,,,,,,,,,,,,,,,,,,,,,,,,,,,,,
,6108878a6817adc0fb1bfbf9,627c75e4bfe31e5ff5625fcf,2022-05-12_03h50.25.790,classification_task,2021.2.3,Win32,157.4555188,627c6715c52fd12f31907bd0,,,,,,,,,,,,,,,,,,,,,,,l,1,0.8843,"[""0.110"",""0.174"",""0.478"",""0.848""]","[1,1,1,0]",0,37,37,37,1,1,0,,,1,FALSE,,,,,,,,,,,,,,,,,,,,,,,,,,,,,,,
,6108878a6817adc0fb1bfbf9,627c75e4bfe31e5ff5625fcf,2022-05-12_03h50.25.790,classification_task,2021.2.3,Win32,157.4555188,627c6715c52fd12f31907bd0,,,,,,,,,,,,,,,,,,,,,,,a,1,2.8664,"[""0.626"",""0.373"",""0.670"",""0.973""]","[0,1,1,1]",0,38,38,38,1,0,1,,,1,FALSE,,,,,,,,,,,,,,,,,,,,,,,,,,,,,,,
,6108878a6817adc0fb1bfbf9,627c75e4bfe31e5ff5625fcf,2022-05-12_03h50.25.790,classification_task,2021.2.3,Win32,157.4555188,627c6715c52fd12f31907bd0,,,,,,,,,,,,,,,,,,,,,,,l,1,2.3141,"[""0.039"",""0.319"",""0.848"",""0.811""]","[1,1,0,1]",0,39,39,39,1,1,1,,,1,FALSE,,,,,,,,,,,,,,,,,,,,,,,,,,,,,,,
,6108878a6817adc0fb1bfbf9,627c75e4bfe31e5ff5625fcf,2022-05-12_03h50.25.790,classification_task,2021.2.3,Win32,157.4555188,627c6715c52fd12f31907bd0,,,,,,,,,,,,,,,,,,,,,,,a,1,1.6537,"[""0.849"",""0.539"",""0.883"",""0.925""]","[0,1,1,1]",0,40,40,40,1,0,0,,,1,FALSE,,,,,,,,,,,,,,,,,,,,,,,,,,,,,,,
,6108878a6817adc0fb1bfbf9,627c75e4bfe31e5ff5625fcf,2022-05-12_03h50.25.790,classification_task,2021.2.3,Win32,157.4555188,627c6715c52fd12f31907bd0,,,,,,,,,,,,,,,,,,,,,,,a,1,2.0176,"[""0.222"",""0.373"",""0.073"",""0.973""]","[1,1,0,1]",0,41,41,41,1,0,1,,,1,FALSE,,,,,,,,,,,,,,,,,,,,,,,,,,,,,,,
,6108878a6817adc0fb1bfbf9,627c75e4bfe31e5ff5625fcf,2022-05-12_03h50.25.790,classification_task,2021.2.3,Win32,157.4555188,627c6715c52fd12f31907bd0,,,,,,,,,,,,,,,,,,,,,,,a,0,2.041,"[""0.039"",""0.846"",""0.581"",""0.811""]","[1,0,1,1]",0,42,42,42,1,1,1,,,1,FALSE,,,,,,,,,,,,,,,,,,,,,,,,,,,,,,,
,6108878a6817adc0fb1bfbf9,627c75e4bfe31e5ff5625fcf,2022-05-12_03h50.25.790,classification_task,2021.2.3,Win32,157.4555188,627c6715c52fd12f31907bd0,,,,,,,,,,,,,,,,,,,,,,,a,0,1.1393,"[""0.039"",""0.319"",""0.581"",""0.846""]","[1,1,1,0]",0,43,43,43,1,1,1,,,1,FALSE,,,,,,,,,,,,,,,,,,,,,,,,,,,,,,,
,6108878a6817adc0fb1bfbf9,627c75e4bfe31e5ff5625fcf,2022-05-12_03h50.25.790,classification_task,2021.2.3,Win32,157.4555188,627c6715c52fd12f31907bd0,,,,,,,,,,,,,,,,,,,,,,,a,1,1.9307,"[""0.260"",""0.539"",""0.619"",""0.925""]","[1,1,0,1]",0,44,44,44,1,0,0,,,1,FALSE,,,,,,,,,,,,,,,,,,,,,,,,,,,,,,,
,6108878a6817adc0fb1bfbf9,627c75e4bfe31e5ff5625fcf,2022-05-12_03h50.25.790,classification_task,2021.2.3,Win32,157.4555188,627c6715c52fd12f31907bd0,,,,,,,,,,,,,,,,,,,,,,,l,1,2.7262,"[""0.420"",""0.319"",""0.581"",""0.811""]","[0,1,1,1]",0,45,45,45,1,1,1,,,1,FALSE,,,,,,,,,,,,,,,,,,,,,,,,,,,,,,,
,6108878a6817adc0fb1bfbf9,627c75e4bfe31e5ff5625fcf,2022-05-12_03h50.25.790,classification_task,2021.2.3,Win32,157.4555188,627c6715c52fd12f31907bd0,,,,,,,,,,,,,,,,,,,,,,,a,1,0.9364,"[""0.222"",""0.373"",""0.670"",""0.619""]","[1,1,1,0]",0,46,46,46,1,0,1,,,1,FALSE,,,,,,,,,,,,,,,,,,,,,,,,,,,,,,,
,6108878a6817adc0fb1bfbf9,627c75e4bfe31e5ff5625fcf,2022-05-12_03h50.25.790,classification_task,2021.2.3,Win32,157.4555188,627c6715c52fd12f31907bd0,,,,,,,,,,,,,,,,,,,,,,,a,0,4.3382,"[""0.412"",""0.174"",""0.478"",""0.745""]","[0,1,1,1]",0,47,47,47,1,1,0,,,1,FALSE,,,,,,,,,,,,,,,,,,,,,,,,,,,,,,,
,6108878a6817adc0fb1bfbf9,627c75e4bfe31e5ff5625fcf,2022-05-12_03h50.25.790,classification_task,2021.2.3,Win32,157.4555188,627c6715c52fd12f31907bd0,,,,,,,,,,,,,,,,,,,,,,,a,1,1.0044,"[""0.222"",""0.845"",""0.670"",""0.973""]","[1,0,1,1]",0,48,48,48,1,0,1,,,1,FALSE,,,,,,,,,,,,,,,,,,,,,,,,,,,,,,,
,6108878a6817adc0fb1bfbf9,627c75e4bfe31e5ff5625fcf,2022-05-12_03h50.25.790,classification_task,2021.2.3,Win32,157.4555188,627c6715c52fd12f31907bd0,,,,,,,,,,,,,,,,,,,,,,,a,1,1.89,"[""0.260"",""0.539"",""0.709"",""0.925""]","[1,1,0,1]",0,49,49,49,1,0,0,,,1,FALSE,,,,,,,,,,,,,,,,,,,,,,,,,,,,,,,
,6108878a6817adc0fb1bfbf9,627c75e4bfe31e5ff5625fcf,2022-05-12_03h50.25.790,classification_task,2021.2.3,Win32,157.4555188,627c6715c52fd12f31907bd0,,,,,,,,,,,,,,,,,,,,,,,l,1,2.7427,"[""0.616"",""0.319"",""0.581"",""0.811""]","[0,1,1,1]",0,50,50,50,1,1,1,,,1,FALSE,,,,,,,,,,,,,,,,,,,,,,,,,,,,,,,
,6108878a6817adc0fb1bfbf9,627c75e4bfe31e5ff5625fcf,2022-05-12_03h50.25.790,classification_task,2021.2.3,Win32,157.4555188,627c6715c52fd12f31907bd0,,,,,,,,,,,,,,,,,,,,,,,a,0,1.3789,"[""0.039"",""0.619"",""0.581"",""0.811""]","[1,0,1,1]",0,51,51,51,1,1,1,,,1,FALSE,,,,,,,,,,,,,,,,,,,,,,,,,,,,,,,
,6108878a6817adc0fb1bfbf9,627c75e4bfe31e5ff5625fcf,2022-05-12_03h50.25.790,classification_task,2021.2.3,Win32,157.4555188,627c6715c52fd12f31907bd0,,,,,,,,,,,,,,,,,,,,,,,a,1,1.2118,"[""0.222"",""0.373"",""0.073"",""0.973""]","[1,1,0,1]",0,52,52,52,1,0,1,,,1,FALSE,,,,,,,,,,,,,,,,,,,,,,,,,,,,,,,
,6108878a6817adc0fb1bfbf9,627c75e4bfe31e5ff5625fcf,2022-05-12_03h50.25.790,classification_task,2021.2.3,Win32,157.4555188,627c6715c52fd12f31907bd0,,,,,,,,,,,,,,,,,,,,,,,l,1,1.4777,"[""0.110"",""0.174"",""0.626"",""0.745""]","[1,1,0,1]",0,53,53,53,1,1,0,,,1,FALSE,,,,,,,,,,,,,,,,,,,,,,,,,,,,,,,
,6108878a6817adc0fb1bfbf9,627c75e4bfe31e5ff5625fcf,2022-05-12_03h50.25.790,classification_task,2021.2.3,Win32,157.4555188,627c6715c52fd12f31907bd0,,,,,,,,,,,,,,,,,,,,,,,l,1,0.7034,"[""0.110"",""0.174"",""0.478"",""0.705""]","[1,1,1,0]",0,54,54,54,1,1,0,,,1,FALSE,,,,,,,,,,,,,,,,,,,,,,,,,,,,,,,
,6108878a6817adc0fb1bfbf9,627c75e4bfe31e5ff5625fcf,2022-05-12_03h50.25.790,classification_task,2021.2.3,Win32,157.4555188,627c6715c52fd12f31907bd0,,,,,,,,,,,,,,,,,,,,,,,a,0,2.2002,"[""0.626"",""0.174"",""0.478"",""0.745""]","[0,1,1,1]",0,55,55,55,1,1,0,,,1,FALSE,,,,,,,,,,,,,,,,,,,,,,,,,,,,,,,
,6108878a6817adc0fb1bfbf9,627c75e4bfe31e5ff5625fcf,2022-05-12_03h50.25.790,classification_task,2021.2.3,Win32,157.4555188,627c6715c52fd12f31907bd0,,,,,,,,,,,,,,,,,,,,,,,l,0,1.8713,"[""0.260"",""0.420"",""0.883"",""0.925""]","[1,0,1,1]",0,56,56,56,1,0,0,,,1,FALSE,,,,,,,,,,,,,,,,,,,,,,,,,,,,,,,
,6108878a6817adc0fb1bfbf9,627c75e4bfe31e5ff5625fcf,2022-05-12_03h50.25.790,classification_task,2021.2.3,Win32,157.4555188,627c6715c52fd12f31907bd0,,,,,,,,,,,,,,,,,,,,,,,l,1,1.83,"[""0.110"",""0.074"",""0.478"",""0.745""]","[1,0,1,1]",0,57,57,57,1,1,0,,,1,FALSE,,,,,,,,,,,,,,,,,,,,,,,,,,,,,,,
,6108878a6817adc0fb1bfbf9,627c75e4bfe31e5ff5625fcf,2022-05-12_03h50.25.790,classification_task,2021.2.3,Win32,157.4555188,627c6715c52fd12f31907bd0,,,,,,,,,,,,,,,,,,,,,,,a,0,2.016,"[""0.039"",""0.319"",""0.581"",""0.074""]","[1,1,1,0]",0,58,58,58,1,1,1,,,1,FALSE,,,,,,,,,,,,,,,,,,,,,,,,,,,,,,,
,6108878a6817adc0fb1bfbf9,627c75e4bfe31e5ff5625fcf,2022-05-12_03h50.25.790,classification_task,2021.2.3,Win32,157.4555188,627c6715c52fd12f31907bd0,,,,,,,,,,,,,,,,,,,,,,,a,1,1.0242,"[""0.222"",""0.373"",""0.670"",""0.626""]","[1,1,1,0]",0,59,59,59,1,0,1,,,1,FALSE,,,,,,,,,,,,,,,,,,,,,,,,,,,,,,,
,6108878a6817adc0fb1bfbf9,627c75e4bfe31e5ff5625fcf,2022-05-12_03h50.25.790,classification_task,2021.2.3,Win32,157.4555188,627c6715c52fd12f31907bd0,,,,,,,,,,,,,,,,,,,,,,,a,1,2.139,"[""0.630"",""0.539"",""0.883"",""0.925""]","[0,1,1,1]",0,60,60,60,1,0,0,,,1,FALSE,,,,,,,,,,,,,,,,,,,,,,,,,,,,,,,
,6108878a6817adc0fb1bfbf9,627c75e4bfe31e5ff5625fcf,2022-05-12_03h50.25.790,classification_task,2021.2.3,Win32,157.4555188,627c6715c52fd12f31907bd0,,,,,,,,,,,,,,,,,,,,,,,l,1,2.2047,"[""0.039"",""0.319"",""0.436"",""0.811""]","[1,1,0,1]",0,61,61,61,1,1,1,,,1,FALSE,,,,,,,,,,,,,,,,,,,,,,,,,,,,,,,
,6108878a6817adc0fb1bfbf9,627c75e4bfe31e5ff5625fcf,2022-05-12_03h50.25.790,classification_task,2021.2.3,Win32,157.4555188,627c6715c52fd12f31907bd0,,,,,,,,,,,,,,,,,,,,,,,a,1,1.2482,"[""0.630"",""0.373"",""0.670"",""0.973""]","[0,1,1,1]",0,62,62,62,1,0,1,,,1,FALSE,,,,,,,,,,,,,,,,,,,,,,,,,,,,,,,
,6108878a6817adc0fb1bfbf9,627c75e4bfe31e5ff5625fcf,2022-05-12_03h50.25.790,classification_task,2021.2.3,Win32,157.4555188,627c6715c52fd12f31907bd0,,,,,,,,,,,,,,,,,,,,,,,a,1,2.6286,"[""0.260"",""0.539"",""0.883"",""0.709""]","[1,1,1,0]",0,63,63,63,1,0,0,,,1,FALSE,,,,,,,,,,,,,,,,,,,,,,,,,,,,,,,
,6108878a6817adc0fb1bfbf9,627c75e4bfe31e5ff5625fcf,2022-05-12_03h50.25.790,classification_task,2021.2.3,Win32,157.4555188,627c6715c52fd12f31907bd0,,,,,,,,,,,,,,,,,,,,,,,,,,,,,,,,,,,,,,,0, ,,0,5.945690675,230.959,0,1,1,1,1,2,2,,,,,,,,,,,,,,,,,,
,6108878a6817adc0fb1bfbf9,627c75e4bfe31e5ff5625fcf,2022-05-12_03h50.25.790,classification_task,2021.2.3,Win32,157.4555188,627c6715c52fd12f31907bd0,,,,,,,,,,,,,,,,,,,,,,,,,,,,,,,,,,,,,,,1,  ,,0,6.808985853,235.7589,0,1,1,1,1,2,2,,,,,,,,,,,,,,,,,,
,6108878a6817adc0fb1bfbf9,627c75e4bfe31e5ff5625fcf,2022-05-12_03h50.25.790,classification_task,2021.2.3,Win32,157.4555188,627c6715c52fd12f31907bd0,,,,,,,,,,,,,,,,,,,,,,,,,,,,,,,,,,,,,,,2,  ,,0,7.304920736,241.7951,0,1,1,1,1,2,2,,,,,,,,,,,,,,,,,,
,6108878a6817adc0fb1bfbf9,627c75e4bfe31e5ff5625fcf,2022-05-12_03h50.25.790,classification_task,2021.2.3,Win32,157.4555188,627c6715c52fd12f31907bd0,,,,,,,,,,,,,,,,,,,,,,,,,,,,,,,,,,,,,,,,,,,,,0,1,1,1,1,,2,,,,,,,,,,,,,,,,,,
,6108878a6817adc0fb1bfbf9,627c75e4bfe31e5ff5625fcf,2022-05-12_03h50.25.790,classification_task,2021.2.3,Win32,157.4555188,627c6715c52fd12f31907bd0,,,,,,,,,,,,,,,,,,,,,space,4.1707,a,1,1.9546,"[""0.222"",""0.373"",""0.670"",""0.616""]","[1,1,1,0]",0,0,0,0,1,0,1,,,1,FALSE,,,,,,,,,,,,,,,,,,,,,,,,,,,,,,,
,6108878a6817adc0fb1bfbf9,627c75e4bfe31e5ff5625fcf,2022-05-12_03h50.25.790,classification_task,2021.2.3,Win32,157.4555188,627c6715c52fd12f31907bd0,,,,,,,,,,,,,,,,,,,,,,,l,1,4.7507,"[""0.039"",""0.319"",""0.581"",""0.436""]","[1,1,1,0]",0,1,1,1,1,1,1,,,1,FALSE,,,,,,,,,,,,,,,,,,,,,,,,,,,,,,,
,6108878a6817adc0fb1bfbf9,627c75e4bfe31e5ff5625fcf,2022-05-12_03h50.25.790,classification_task,2021.2.3,Win32,157.4555188,627c6715c52fd12f31907bd0,,,,,,,,,,,,,,,,,,,,,,,a,1,1.3804,"[""0.222"",""0.709"",""0.670"",""0.973""]","[1,0,1,1]",0,2,2,2,1,0,1,,,1,FALSE,,,,,,,,,,,,,,,,,,,,,,,,,,,,,,,
,6108878a6817adc0fb1bfbf9,627c75e4bfe31e5ff5625fcf,2022-05-12_03h50.25.790,classification_task,2021.2.3,Win32,157.4555188,627c6715c52fd12f31907bd0,,,,,,,,,,,,,,,,,,,,,,,a,1,2.3818,"[""0.074"",""0.373"",""0.670"",""0.973""]","[0,1,1,1]",0,3,3,3,1,0,1,,,1,FALSE,,,,,,,,,,,,,,,,,,,,,,,,,,,,,,,
,6108878a6817adc0fb1bfbf9,627c75e4bfe31e5ff5625fcf,2022-05-12_03h50.25.790,classification_task,2021.2.3,Win32,157.4555188,627c6715c52fd12f31907bd0,,,,,,,,,,,,,,,,,,,,,,,l,1,1.5936,"[""0.110"",""0.420"",""0.478"",""0.745""]","[1,0,1,1]",0,4,4,4,1,1,0,,,1,FALSE,,,,,,,,,,,,,,,,,,,,,,,,,,,,,,,
,6108878a6817adc0fb1bfbf9,627c75e4bfe31e5ff5625fcf,2022-05-12_03h50.25.790,classification_task,2021.2.3,Win32,157.4555188,627c6715c52fd12f31907bd0,,,,,,,,,,,,,,,,,,,,,,,a,0,1.2967,"[""0.039"",""0.319"",""0.074"",""0.811""]","[1,1,0,1]",0,5,5,5,1,1,1,,,1,FALSE,,,,,,,,,,,,,,,,,,,,,,,,,,,,,,,
,6108878a6817adc0fb1bfbf9,627c75e4bfe31e5ff5625fcf,2022-05-12_03h50.25.790,classification_task,2021.2.3,Win32,157.4555188,627c6715c52fd12f31907bd0,,,,,,,,,,,,,,,,,,,,,,,a,1,1.3508,"[""0.222"",""0.373"",""0.073"",""0.973""]","[1,1,0,1]",0,6,6,6,1,0,1,,,1,FALSE,,,,,,,,,,,,,,,,,,,,,,,,,,,,,,,
,6108878a6817adc0fb1bfbf9,627c75e4bfe31e5ff5625fcf,2022-05-12_03h50.25.790,classification_task,2021.2.3,Win32,157.4555188,627c6715c52fd12f31907bd0,,,,,,,,,,,,,,,,,,,,,,,a,1,1.6486,"[""0.260"",""0.539"",""0.846"",""0.925""]","[1,1,0,1]",0,7,7,7,1,0,0,,,1,FALSE,,,,,,,,,,,,,,,,,,,,,,,,,,,,,,,
,6108878a6817adc0fb1bfbf9,627c75e4bfe31e5ff5625fcf,2022-05-12_03h50.25.790,classification_task,2021.2.3,Win32,157.4555188,627c6715c52fd12f31907bd0,,,,,,,,,,,,,,,,,,,,,,,l,1,1.5021,"[""0.039"",""0.848"",""0.581"",""0.811""]","[1,0,1,1]",0,8,8,8,1,1,1,,,1,FALSE,,,,,,,,,,,,,,,,,,,,,,,,,,,,,,,
,6108878a6817adc0fb1bfbf9,627c75e4bfe31e5ff5625fcf,2022-05-12_03h50.25.790,classification_task,2021.2.3,Win32,157.4555188,627c6715c52fd12f31907bd0,,,,,,,,,,,,,,,,,,,,,,,a,1,2.7028,"[""0.260"",""0.845"",""0.883"",""0.925""]","[1,0,1,1]",0,9,9,9,1,0,0,,,1,FALSE,,,,,,,,,,,,,,,,,,,,,,,,,,,,,,,
,6108878a6817adc0fb1bfbf9,627c75e4bfe31e5ff5625fcf,2022-05-12_03h50.25.790,classification_task,2021.2.3,Win32,157.4555188,627c6715c52fd12f31907bd0,,,,,,,,,,,,,,,,,,,,,,,a,0,3.1618,"[""0.619"",""0.319"",""0.581"",""0.811""]","[0,1,1,1]",0,10,10,10,1,1,1,,,1,FALSE,,,,,,,,,,,,,,,,,,,,,,,,,,,,,,,
,6108878a6817adc0fb1bfbf9,627c75e4bfe31e5ff5625fcf,2022-05-12_03h50.25.790,classification_task,2021.2.3,Win32,157.4555188,627c6715c52fd12f31907bd0,,,,,,,,,,,,,,,,,,,,,,,l,1,1.63,"[""0.110"",""0.174"",""0.478"",""0.074""]","[1,1,1,0]",0,11,11,11,1,1,0,,,1,FALSE,,,,,,,,,,,,,,,,,,,,,,,,,,,,,,,
,6108878a6817adc0fb1bfbf9,627c75e4bfe31e5ff5625fcf,2022-05-12_03h50.25.790,classification_task,2021.2.3,Win32,157.4555188,627c6715c52fd12f31907bd0,,,,,,,,,,,,,,,,,,,,,,,a,1,1.9564,"[""0.848"",""0.539"",""0.883"",""0.925""]","[0,1,1,1]",0,12,12,12,1,0,0,,,1,FALSE,,,,,,,,,,,,,,,,,,,,,,,,,,,,,,,
,6108878a6817adc0fb1bfbf9,627c75e4bfe31e5ff5625fcf,2022-05-12_03h50.25.790,classification_task,2021.2.3,Win32,157.4555188,627c6715c52fd12f31907bd0,,,,,,,,,,,,,,,,,,,,,,,l,1,1.8973,"[""0.619"",""0.174"",""0.478"",""0.745""]","[0,1,1,1]",0,13,13,13,1,1,0,,,1,FALSE,,,,,,,,,,,,,,,,,,,,,,,,,,,,,,,
,6108878a6817adc0fb1bfbf9,627c75e4bfe31e5ff5625fcf,2022-05-12_03h50.25.790,classification_task,2021.2.3,Win32,157.4555188,627c6715c52fd12f31907bd0,,,,,,,,,,,,,,,,,,,,,,,a,1,2.0429,"[""0.260"",""0.539"",""0.883"",""0.619""]","[1,1,1,0]",0,14,14,14,1,0,0,,,1,FALSE,,,,,,,,,,,,,,,,,,,,,,,,,,,,,,,
,6108878a6817adc0fb1bfbf9,627c75e4bfe31e5ff5625fcf,2022-05-12_03h50.25.790,classification_task,2021.2.3,Win32,157.4555188,627c6715c52fd12f31907bd0,,,,,,,,,,,,,,,,,,,,,,,l,1,1.453,"[""0.110"",""0.174"",""0.845"",""0.745""]","[1,1,0,1]",0,15,15,15,1,1,0,,,1,FALSE,,,,,,,,,,,,,,,,,,,,,,,,,,,,,,,
,6108878a6817adc0fb1bfbf9,627c75e4bfe31e5ff5625fcf,2022-05-12_03h50.25.790,classification_task,2021.2.3,Win32,157.4555188,627c6715c52fd12f31907bd0,,,,,,,,,,,,,,,,,,,,,,,l,1,2.3453,"[""0.039"",""0.319"",""0.630"",""0.811""]","[1,1,0,1]",0,16,16,16,1,1,1,,,1,FALSE,,,,,,,,,,,,,,,,,,,,,,,,,,,,,,,
,6108878a6817adc0fb1bfbf9,627c75e4bfe31e5ff5625fcf,2022-05-12_03h50.25.790,classification_task,2021.2.3,Win32,157.4555188,627c6715c52fd12f31907bd0,,,,,,,,,,,,,,,,,,,,,,,l,1,2.2348,"[""0.110"",""0.709"",""0.478"",""0.745""]","[1,0,1,1]",0,17,17,17,1,1,0,,,1,FALSE,,,,,,,,,,,,,,,,,,,,,,,,,,,,,,,
,6108878a6817adc0fb1bfbf9,627c75e4bfe31e5ff5625fcf,2022-05-12_03h50.25.790,classification_task,2021.2.3,Win32,157.4555188,627c6715c52fd12f31907bd0,,,,,,,,,,,,,,,,,,,,,,,a,0,2.5693,"[""0.039"",""0.845"",""0.581"",""0.811""]","[1,0,1,1]",0,18,18,18,1,1,1,,,1,FALSE,,,,,,,,,,,,,,,,,,,,,,,,,,,,,,,
,6108878a6817adc0fb1bfbf9,627c75e4bfe31e5ff5625fcf,2022-05-12_03h50.25.790,classification_task,2021.2.3,Win32,157.4555188,627c6715c52fd12f31907bd0,,,,,,,,,,,,,,,,,,,,,,,a,1,1.3273,"[""0.222"",""0.845"",""0.670"",""0.973""]","[1,0,1,1]",0,19,19,19,1,0,1,,,1,FALSE,,,,,,,,,,,,,,,,,,,,,,,,,,,,,,,
,6108878a6817adc0fb1bfbf9,627c75e4bfe31e5ff5625fcf,2022-05-12_03h50.25.790,classification_task,2021.2.3,Win32,157.4555188,627c6715c52fd12f31907bd0,,,,,,,,,,,,,,,,,,,,,,,l,0,1.9239,"[""0.260"",""0.539"",""0.883"",""0.074""]","[1,1,1,0]",0,20,20,20,1,0,0,,,1,FALSE,,,,,,,,,,,,,,,,,,,,,,,,,,,,,,,
,6108878a6817adc0fb1bfbf9,627c75e4bfe31e5ff5625fcf,2022-05-12_03h50.25.790,classification_task,2021.2.3,Win32,157.4555188,627c6715c52fd12f31907bd0,,,,,,,,,,,,,,,,,,,,,,,a,0,3.435,"[""0.630"",""0.174"",""0.478"",""0.745""]","[0,1,1,1]",0,21,21,21,1,1,0,,,1,FALSE,,,,,,,,,,,,,,,,,,,,,,,,,,,,,,,
,6108878a6817adc0fb1bfbf9,627c75e4bfe31e5ff5625fcf,2022-05-12_03h50.25.790,classification_task,2021.2.3,Win32,157.4555188,627c6715c52fd12f31907bd0,,,,,,,,,,,,,,,,,,,,,,,a,1,1.3875,"[""0.222"",""0.373"",""0.412"",""0.973""]","[1,1,0,1]",0,22,22,22,1,0,1,,,1,FALSE,,,,,,,,,,,,,,,,,,,,,,,,,,,,,,,
,6108878a6817adc0fb1bfbf9,627c75e4bfe31e5ff5625fcf,2022-05-12_03h50.25.790,classification_task,2021.2.3,Win32,157.4555188,627c6715c52fd12f31907bd0,,,,,,,,,,,,,,,,,,,,,,,l,0,2.0478,"[""0.849"",""0.373"",""0.670"",""0.973""]","[0,1,1,1]",0,23,23,23,1,0,1,,,1,FALSE,,,,,,,,,,,,,,,,,,,,,,,,,,,,,,,
,6108878a6817adc0fb1bfbf9,627c75e4bfe31e5ff5625fcf,2022-05-12_03h50.25.790,classification_task,2021.2.3,Win32,157.4555188,627c6715c52fd12f31907bd0,,,,,,,,,,,,,,,,,,,,,,,a,1,2.4466,"[""0.412"",""0.539"",""0.883"",""0.925""]","[0,1,1,1]",0,24,24,24,1,0,0,,,1,FALSE,,,,,,,,,,,,,,,,,,,,,,,,,,,,,,,
,6108878a6817adc0fb1bfbf9,627c75e4bfe31e5ff5625fcf,2022-05-12_03h50.25.790,classification_task,2021.2.3,Win32,157.4555188,627c6715c52fd12f31907bd0,,,,,,,,,,,,,,,,,,,,,,,a,1,2.1024,"[""0.260"",""0.848"",""0.883"",""0.925""]","[1,0,1,1]",0,25,25,25,1,0,0,,,1,FALSE,,,,,,,,,,,,,,,,,,,,,,,,,,,,,,,
,6108878a6817adc0fb1bfbf9,627c75e4bfe31e5ff5625fcf,2022-05-12_03h50.25.790,classification_task,2021.2.3,Win32,157.4555188,627c6715c52fd12f31907bd0,,,,,,,,,,,,,,,,,,,,,,,l,1,1.2974,"[""0.110"",""0.174"",""0.849"",""0.745""]","[1,1,0,1]",0,26,26,26,1,1,0,,,1,FALSE,,,,,,,,,,,,,,,,,,,,,,,,,,,,,,,
,6108878a6817adc0fb1bfbf9,627c75e4bfe31e5ff5625fcf,2022-05-12_03h50.25.790,classification_task,2021.2.3,Win32,157.4555188,627c6715c52fd12f31907bd0,,,,,,,,,,,,,,,,,,,,,,,l,1,2.4117,"[""0.073"",""0.319"",""0.581"",""0.811""]","[0,1,1,1]",0,27,27,27,1,1,1,,,1,FALSE,,,,,,,,,,,,,,,,,,,,,,,,,,,,,,,
,6108878a6817adc0fb1bfbf9,627c75e4bfe31e5ff5625fcf,2022-05-12_03h50.25.790,classification_task,2021.2.3,Win32,157.4555188,627c6715c52fd12f31907bd0,,,,,,,,,,,,,,,,,,,,,,,l,1,1.2703,"[""0.110"",""0.174"",""0.478"",""0.846""]","[1,1,1,0]",0,28,28,28,1,1,0,,,1,FALSE,,,,,,,,,,,,,,,,,,,,,,,,,,,,,,,
,6108878a6817adc0fb1bfbf9,627c75e4bfe31e5ff5625fcf,2022-05-12_03h50.25.790,classification_task,2021.2.3,Win32,157.4555188,627c6715c52fd12f31907bd0,,,,,,,,,,,,,,,,,,,,,,,a,1,2.4609,"[""0.260"",""0.539"",""0.630"",""0.925""]","[1,1,0,1]",0,29,29,29,1,0,0,,,1,FALSE,,,,,,,,,,,,,,,,,,,,,,,,,,,,,,,
,6108878a6817adc0fb1bfbf9,627c75e4bfe31e5ff5625fcf,2022-05-12_03h50.25.790,classification_task,2021.2.3,Win32,157.4555188,627c6715c52fd12f31907bd0,,,,,,,,,,,,,,,,,,,,,,,a,1,2.0838,"[""0.222"",""0.373"",""0.670"",""0.073""]","[1,1,1,0]",0,30,30,30,1,0,1,,,1,FALSE,,,,,,,,,,,,,,,,,,,,,,,,,,,,,,,
,6108878a6817adc0fb1bfbf9,627c75e4bfe31e5ff5625fcf,2022-05-12_03h50.25.790,classification_task,2021.2.3,Win32,157.4555188,627c6715c52fd12f31907bd0,,,,,,,,,,,,,,,,,,,,,,,a,0,1.9515,"[""0.039"",""0.319"",""0.581"",""0.845""]","[1,1,1,0]",0,31,31,31,1,1,1,,,1,FALSE,,,,,,,,,,,,,,,,,,,,,,,,,,,,,,,
,6108878a6817adc0fb1bfbf9,627c75e4bfe31e5ff5625fcf,2022-05-12_03h50.25.790,classification_task,2021.2.3,Win32,157.4555188,627c6715c52fd12f31907bd0,,,,,,,,,,,,,,,,,,,,,,,l,1,1.8834,"[""0.039"",""0.319"",""0.581"",""0.412""]","[1,1,1,0]",0,32,32,32,1,1,1,,,1,FALSE,,,,,,,,,,,,,,,,,,,,,,,,,,,,,,,
,6108878a6817adc0fb1bfbf9,627c75e4bfe31e5ff5625fcf,2022-05-12_03h50.25.790,classification_task,2021.2.3,Win32,157.4555188,627c6715c52fd12f31907bd0,,,,,,,,,,,,,,,,,,,,,,,a,1,2.2117,"[""0.260"",""0.705"",""0.883"",""0.925""]","[1,0,1,1]",0,33,33,33,1,0,0,,,1,FALSE,,,,,,,,,,,,,,,,,,,,,,,,,,,,,,,
,6108878a6817adc0fb1bfbf9,627c75e4bfe31e5ff5625fcf,2022-05-12_03h50.25.790,classification_task,2021.2.3,Win32,157.4555188,627c6715c52fd12f31907bd0,,,,,,,,,,,,,,,,,,,,,,,l,1,2.8661,"[""0.626"",""0.174"",""0.478"",""0.745""]","[0,1,1,1]",0,34,34,34,1,1,0,,,1,FALSE,,,,,,,,,,,,,,,,,,,,,,,,,,,,,,,
,6108878a6817adc0fb1bfbf9,627c75e4bfe31e5ff5625fcf,2022-05-12_03h50.25.790,classification_task,2021.2.3,Win32,157.4555188,627c6715c52fd12f31907bd0,,,,,,,,,,,,,,,,,,,,,,,a,1,1.7744,"[""0.222"",""0.373"",""0.670"",""0.626""]","[1,1,1,0]",0,35,35,35,1,0,1,,,1,FALSE,,,,,,,,,,,,,,,,,,,,,,,,,,,,,,,
,6108878a6817adc0fb1bfbf9,627c75e4bfe31e5ff5625fcf,2022-05-12_03h50.25.790,classification_task,2021.2.3,Win32,157.4555188,627c6715c52fd12f31907bd0,,,,,,,,,,,,,,,,,,,,,,,l,1,1.1273,"[""0.110"",""0.848"",""0.478"",""0.745""]","[1,0,1,1]",0,36,36,36,1,1,0,,,1,FALSE,,,,,,,,,,,,,,,,,,,,,,,,,,,,,,,
,6108878a6817adc0fb1bfbf9,627c75e4bfe31e5ff5625fcf,2022-05-12_03h50.25.790,classification_task,2021.2.3,Win32,157.4555188,627c6715c52fd12f31907bd0,,,,,,,,,,,,,,,,,,,,,,,l,0,1.8541,"[""0.260"",""0.539"",""0.883"",""0.846""]","[1,1,1,0]",0,37,37,37,1,0,0,,,1,FALSE,,,,,,,,,,,,,,,,,,,,,,,,,,,,,,,
,6108878a6817adc0fb1bfbf9,627c75e4bfe31e5ff5625fcf,2022-05-12_03h50.25.790,classification_task,2021.2.3,Win32,157.4555188,627c6715c52fd12f31907bd0,,,,,,,,,,,,,,,,,,,,,,,a,1,1.7184,"[""0.222"",""0.436"",""0.670"",""0.973""]","[1,0,1,1]",0,38,38,38,1,0,1,,,1,FALSE,,,,,,,,,,,,,,,,,,,,,,,,,,,,,,,
,6108878a6817adc0fb1bfbf9,627c75e4bfe31e5ff5625fcf,2022-05-12_03h50.25.790,classification_task,2021.2.3,Win32,157.4555188,627c6715c52fd12f31907bd0,,,,,,,,,,,,,,,,,,,,,,,l,1,1.8964,"[""0.412"",""0.319"",""0.581"",""0.811""]","[0,1,1,1]",0,39,39,39,1,1,1,,,1,FALSE,,,,,,,,,,,,,,,,,,,,,,,,,,,,,,,
,6108878a6817adc0fb1bfbf9,627c75e4bfe31e5ff5625fcf,2022-05-12_03h50.25.790,classification_task,2021.2.3,Win32,157.4555188,627c6715c52fd12f31907bd0,,,,,,,,,,,,,,,,,,,,,,,l,1,1.2904,"[""0.110"",""0.174"",""0.709"",""0.745""]","[1,1,0,1]",0,40,40,40,1,1,0,,,1,FALSE,,,,,,,,,,,,,,,,,,,,,,,,,,,,,,,
,6108878a6817adc0fb1bfbf9,627c75e4bfe31e5ff5625fcf,2022-05-12_03h50.25.790,classification_task,2021.2.3,Win32,157.4555188,627c6715c52fd12f31907bd0,,,,,,,,,,,,,,,,,,,,,,,a,1,1.4415,"[""0.420"",""0.539"",""0.883"",""0.925""]","[0,1,1,1]",0,41,41,41,1,0,0,,,1,FALSE,,,,,,,,,,,,,,,,,,,,,,,,,,,,,,,
,6108878a6817adc0fb1bfbf9,627c75e4bfe31e5ff5625fcf,2022-05-12_03h50.25.790,classification_task,2021.2.3,Win32,157.4555188,627c6715c52fd12f31907bd0,,,,,,,,,,,,,,,,,,,,,,,l,0,1.4367,"[""0.616"",""0.373"",""0.670"",""0.973""]","[0,1,1,1]",0,42,42,42,1,0,1,,,1,FALSE,,,,,,,,,,,,,,,,,,,,,,,,,,,,,,,
,6108878a6817adc0fb1bfbf9,627c75e4bfe31e5ff5625fcf,2022-05-12_03h50.25.790,classification_task,2021.2.3,Win32,157.4555188,627c6715c52fd12f31907bd0,,,,,,,,,,,,,,,,,,,,,,,l,1,2.2117,"[""0.039"",""0.319"",""0.705"",""0.811""]","[1,1,0,1]",0,43,43,43,1,1,1,,,1,FALSE,,,,,,,,,,,,,,,,,,,,,,,,,,,,,,,
,6108878a6817adc0fb1bfbf9,627c75e4bfe31e5ff5625fcf,2022-05-12_03h50.25.790,classification_task,2021.2.3,Win32,157.4555188,627c6715c52fd12f31907bd0,,,,,,,,,,,,,,,,,,,,,,,l,1,1.2776,"[""0.110"",""0.174"",""0.478"",""0.420""]","[1,1,1,0]",0,44,44,44,1,1,0,,,1,FALSE,,,,,,,,,,,,,,,,,,,,,,,,,,,,,,,
,6108878a6817adc0fb1bfbf9,627c75e4bfe31e5ff5625fcf,2022-05-12_03h50.25.790,classification_task,2021.2.3,Win32,157.4555188,627c6715c52fd12f31907bd0,,,,,,,,,,,,,,,,,,,,,,,a,1,1.357,"[""0.260"",""0.539"",""0.616"",""0.925""]","[1,1,0,1]",0,45,45,45,1,0,0,,,1,FALSE,,,,,,,,,,,,,,,,,,,,,,,,,,,,,,,
,6108878a6817adc0fb1bfbf9,627c75e4bfe31e5ff5625fcf,2022-05-12_03h50.25.790,classification_task,2021.2.3,Win32,157.4555188,627c6715c52fd12f31907bd0,,,,,,,,,,,,,,,,,,,,,,,a,0,2.6347,"[""0.039"",""0.709"",""0.581"",""0.811""]","[1,0,1,1]",0,46,46,46,1,1,1,,,1,FALSE,,,,,,,,,,,,,,,,,,,,,,,,,,,,,,,
,6108878a6817adc0fb1bfbf9,627c75e4bfe31e5ff5625fcf,2022-05-12_03h50.25.790,classification_task,2021.2.3,Win32,157.4555188,627c6715c52fd12f31907bd0,,,,,,,,,,,,,,,,,,,,,,,a,1,1.4186,"[""0.222"",""0.373"",""0.436"",""0.973""]","[1,1,0,1]",0,47,47,47,1,0,1,,,1,FALSE,,,,,,,,,,,,,,,,,,,,,,,,,,,,,,,
,6108878a6817adc0fb1bfbf9,627c75e4bfe31e5ff5625fcf,2022-05-12_03h50.25.790,classification_task,2021.2.3,Win32,157.4555188,627c6715c52fd12f31907bd0,,,,,,,,,,,,,,,,,,,,,,,a,1,2.4955,"[""0.260"",""0.539"",""0.883"",""0.848""]","[1,1,1,0]",0,48,48,48,1,0,0,,,1,FALSE,,,,,,,,,,,,,,,,,,,,,,,,,,,,,,,
,6108878a6817adc0fb1bfbf9,627c75e4bfe31e5ff5625fcf,2022-05-12_03h50.25.790,classification_task,2021.2.3,Win32,157.4555188,627c6715c52fd12f31907bd0,,,,,,,,,,,,,,,,,,,,,,,a,1,1.3512,"[""0.260"",""0.849"",""0.883"",""0.925""]","[1,0,1,1]",0,49,49,49,1,0,0,,,1,FALSE,,,,,,,,,,,,,,,,,,,,,,,,,,,,,,,
,6108878a6817adc0fb1bfbf9,627c75e4bfe31e5ff5625fcf,2022-05-12_03h50.25.790,classification_task,2021.2.3,Win32,157.4555188,627c6715c52fd12f31907bd0,,,,,,,,,,,,,,,,,,,,,,,l,1,1.6896,"[""0.039"",""0.709"",""0.581"",""0.811""]","[1,0,1,1]",0,50,50,50,1,1,1,,,1,FALSE,,,,,,,,,,,,,,,,,,,,,,,,,,,,,,,
,6108878a6817adc0fb1bfbf9,627c75e4bfe31e5ff5625fcf,2022-05-12_03h50.25.790,classification_task,2021.2.3,Win32,157.4555188,627c6715c52fd12f31907bd0,,,,,,,,,,,,,,,,,,,,,,,l,0,2.7328,"[""0.619"",""0.539"",""0.883"",""0.925""]","[0,1,1,1]",0,51,51,51,1,0,0,,,1,FALSE,,,,,,,,,,,,,,,,,,,,,,,,,,,,,,,
,6108878a6817adc0fb1bfbf9,627c75e4bfe31e5ff5625fcf,2022-05-12_03h50.25.790,classification_task,2021.2.3,Win32,157.4555188,627c6715c52fd12f31907bd0,,,,,,,,,,,,,,,,,,,,,,,l,1,4.8471,"[""0.039"",""0.319"",""0.581"",""0.074""]","[1,1,1,0]",0,52,52,52,1,1,1,,,1,FALSE,,,,,,,,,,,,,,,,,,,,,,,,,,,,,,,
,6108878a6817adc0fb1bfbf9,627c75e4bfe31e5ff5625fcf,2022-05-12_03h50.25.790,classification_task,2021.2.3,Win32,157.4555188,627c6715c52fd12f31907bd0,,,,,,,,,,,,,,,,,,,,,,,a,1,1.5255,"[""0.222"",""0.373"",""0.420"",""0.973""]","[1,1,0,1]",0,53,53,53,1,0,1,,,1,FALSE,,,,,,,,,,,,,,,,,,,,,,,,,,,,,,,
,6108878a6817adc0fb1bfbf9,627c75e4bfe31e5ff5625fcf,2022-05-12_03h50.25.790,classification_task,2021.2.3,Win32,157.4555188,627c6715c52fd12f31907bd0,,,,,,,,,,,,,,,,,,,,,,,l,1,4.1572,"[""0.420"",""0.319"",""0.581"",""0.811""]","[0,1,1,1]",0,54,54,54,1,1,1,,,1,FALSE,,,,,,,,,,,,,,,,,,,,,,,,,,,,,,,
,6108878a6817adc0fb1bfbf9,627c75e4bfe31e5ff5625fcf,2022-05-12_03h50.25.790,classification_task,2021.2.3,Win32,157.4555188,627c6715c52fd12f31907bd0,,,,,,,,,,,,,,,,,,,,,,,l,1,1.1758,"[""0.110"",""0.174"",""0.846"",""0.745""]","[1,1,0,1]",0,55,55,55,1,1,0,,,1,FALSE,,,,,,,,,,,,,,,,,,,,,,,,,,,,,,,
,6108878a6817adc0fb1bfbf9,627c75e4bfe31e5ff5625fcf,2022-05-12_03h50.25.790,classification_task,2021.2.3,Win32,157.4555188,627c6715c52fd12f31907bd0,,,,,,,,,,,,,,,,,,,,,,,a,1,1.1076,"[""0.222"",""0.616"",""0.670"",""0.973""]","[1,0,1,1]",0,56,56,56,1,0,1,,,1,FALSE,,,,,,,,,,,,,,,,,,,,,,,,,,,,,,,
,6108878a6817adc0fb1bfbf9,627c75e4bfe31e5ff5625fcf,2022-05-12_03h50.25.790,classification_task,2021.2.3,Win32,157.4555188,627c6715c52fd12f31907bd0,,,,,,,,,,,,,,,,,,,,,,,l,1,0.9944,"[""0.110"",""0.174"",""0.478"",""0.420""]","[1,1,1,0]",0,57,57,57,1,1,0,,,1,FALSE,,,,,,,,,,,,,,,,,,,,,,,,,,,,,,,
,6108878a6817adc0fb1bfbf9,627c75e4bfe31e5ff5625fcf,2022-05-12_03h50.25.790,classification_task,2021.2.3,Win32,157.4555188,627c6715c52fd12f31907bd0,,,,,,,,,,,,,,,,,,,,,,,a,1,1.5568,"[""0.260"",""0.539"",""0.705"",""0.925""]","[1,1,0,1]",0,58,58,58,1,0,0,,,1,FALSE,,,,,,,,,,,,,,,,,,,,,,,,,,,,,,,
,6108878a6817adc0fb1bfbf9,627c75e4bfe31e5ff5625fcf,2022-05-12_03h50.25.790,classification_task,2021.2.3,Win32,157.4555188,627c6715c52fd12f31907bd0,,,,,,,,,,,,,,,,,,,,,,,l,1,1.1867,"[""0.110"",""0.616"",""0.478"",""0.745""]","[1,0,1,1]",0,59,59,59,1,1,0,,,1,FALSE,,,,,,,,,,,,,,,,,,,,,,,,,,,,,,,
,6108878a6817adc0fb1bfbf9,627c75e4bfe31e5ff5625fcf,2022-05-12_03h50.25.790,classification_task,2021.2.3,Win32,157.4555188,627c6715c52fd12f31907bd0,,,,,,,,,,,,,,,,,,,,,,,a,0,5.484,"[""0.039"",""0.319"",""0.412"",""0.811""]","[1,1,0,1]",0,60,60,60,1,1,1,,,1,FALSE,,,,,,,,,,,,,,,,,,,,,,,,,,,,,,,
,6108878a6817adc0fb1bfbf9,627c75e4bfe31e5ff5625fcf,2022-05-12_03h50.25.790,classification_task,2021.2.3,Win32,157.4555188,627c6715c52fd12f31907bd0,,,,,,,,,,,,,,,,,,,,,,,a,1,1.8832,"[""0.845"",""0.373"",""0.670"",""0.973""]","[0,1,1,1]",0,61,61,61,1,0,1,,,1,FALSE,,,,,,,,,,,,,,,,,,,,,,,,,,,,,,,
,6108878a6817adc0fb1bfbf9,627c75e4bfe31e5ff5625fcf,2022-05-12_03h50.25.790,classification_task,2021.2.3,Win32,157.4555188,627c6715c52fd12f31907bd0,,,,,,,,,,,,,,,,,,,,,,,a,0,4.3027,"[""0.845"",""0.174"",""0.478"",""0.745""]","[0,1,1,1]",0,62,62,62,1,1,0,,,1,FALSE,,,,,,,,,,,,,,,,,,,,,,,,,,,,,,,
,6108878a6817adc0fb1bfbf9,627c75e4bfe31e5ff5625fcf,2022-05-12_03h50.25.790,classification_task,2021.2.3,Win32,157.4555188,627c6715c52fd12f31907bd0,,,,,,,,,,,,,,,,,,,,,,,a,1,1.2833,"[""0.222"",""0.373"",""0.670"",""0.705""]","[1,1,1,0]",0,63,63,63,1,0,1,,,1,FALSE,,,,,,,,,,,,,,,,,,,,,,,,,,,,,,,
,6108878a6817adc0fb1bfbf9,627c75e4bfe31e5ff5625fcf,2022-05-12_03h50.25.790,classification_task,2021.2.3,Win32,157.4555188,627c6715c52fd12f31907bd0,,,,,,,,,,,,,,,,,,,,,,,,,,,,,,,,,,,,,,,0, ,,0,8.77435855,204.8048,0,2,2,2,1,2,3,,,,,,,,,,,,,,,,,,
,6108878a6817adc0fb1bfbf9,627c75e4bfe31e5ff5625fcf,2022-05-12_03h50.25.790,classification_task,2021.2.3,Win32,157.4555188,627c6715c52fd12f31907bd0,,,,,,,,,,,,,,,,,,,,,,,,,,,,,,,,,,,,,,,1,  ,,0,7.10287207,209.0108,0,2,2,2,1,2,3,,,,,,,,,,,,,,,,,,
,6108878a6817adc0fb1bfbf9,627c75e4bfe31e5ff5625fcf,2022-05-12_03h50.25.790,classification_task,2021.2.3,Win32,157.4555188,627c6715c52fd12f31907bd0,,,,,,,,,,,,,,,,,,,,,,,,,,,,,,,,,,,,,,,2,  ,,0,6.29468245,213.7868,0,2,2,2,1,2,3,,,,,,,,,,,,,,,,,,
,6108878a6817adc0fb1bfbf9,627c75e4bfe31e5ff5625fcf,2022-05-12_03h50.25.790,classification_task,2021.2.3,Win32,157.4555188,627c6715c52fd12f31907bd0,,,,,,,,,,,,,,,,,,,,,,,,,,,,,,,,,,,,,,,,,,,,,0,2,2,2,1,,3,,,,,,,,,,,,,,,,,,
,6108878a6817adc0fb1bfbf9,627c75e4bfe31e5ff5625fcf,2022-05-12_03h50.25.790,classification_task,2021.2.3,Win32,157.4555188,627c6715c52fd12f31907bd0,,,,,,,,,,,,,,,,,,,,,,,,,,,,,,,,,,,,,,,,,,,,,,,,,,,,,I believe the aid is a competent performer,,0.7,0,3,1221.9787,0,0,0,0,1,0,,,,,
,6108878a6817adc0fb1bfbf9,627c75e4bfe31e5ff5625fcf,2022-05-12_03h50.25.790,classification_task,2021.2.3,Win32,157.4555188,627c6715c52fd12f31907bd0,,,,,,,,,,,,,,,,,,,,,,,,,,,,,,,,,,,,,,,,,,,,,,,,,,,,,I trust the aid,,0.7,0,4,1215.3838,0,0,0,0,1,0,,,,,
,6108878a6817adc0fb1bfbf9,627c75e4bfe31e5ff5625fcf,2022-05-12_03h50.25.790,classification_task,2021.2.3,Win32,157.4555188,627c6715c52fd12f31907bd0,,,,,,,,,,,,,,,,,,,,,,,,,,,,,,,,,,,,,,,,,,,,,,,,,,,,,I have confidence in the advice given by the aid,,0.7,0,4,1227.3445,0,0,0,0,1,0,,,,,
,6108878a6817adc0fb1bfbf9,627c75e4bfe31e5ff5625fcf,2022-05-12_03h50.25.790,classification_task,2021.2.3,Win32,157.4555188,627c6715c52fd12f31907bd0,,,,,,,,,,,,,,,,,,,,,,,,,,,,,,,,,,,,,,,,,,,,,,,,,,,,,I can depend on the aid,,0.7,0,3,1224.55,0,0,0,0,1,0,,,,,
,6108878a6817adc0fb1bfbf9,627c75e4bfe31e5ff5625fcf,2022-05-12_03h50.25.790,classification_task,2021.2.3,Win32,157.4555188,627c6715c52fd12f31907bd0,,,,,,,,,,,,,,,,,,,,,,,,,,,,,,,,,,,,,,,,,,,,,,,,,,,,,I can rely on the aid to behave in consistent ways,,0.7,0,3,1231.8997,0,0,0,0,1,0,,,,,
,6108878a6817adc0fb1bfbf9,627c75e4bfe31e5ff5625fcf,2022-05-12_03h50.25.790,classification_task,2021.2.3,Win32,157.4555188,627c6715c52fd12f31907bd0,,,,,,,,,,,,,,,,,,,,,,,,,,,,,,,,,,,,,,,,,,,,,,,,,,,,,I can rely on the aid to do its best every time I take its advice,,0.7,0,5,1239.2372,0,0,0,0,1,0,,,,,
,6108878a6817adc0fb1bfbf9,627c75e4bfe31e5ff5625fcf,2022-05-12_03h50.25.790,classification_task,2021.2.3,Win32,157.4555188,627c6715c52fd12f31907bd0,,,,,,,,,,,,,,,,,,,,,,,,,,,,,,,,,,,,,,,,,,,,,,,,,,,,,"On trials you completed with assistance from the aid, how frequently did you think the aid was correct?",,0.7,0,90%,,0,0,0,0,1,0,,,,,
,6108878a6817adc0fb1bfbf9,627c75e4bfe31e5ff5625fcf,2022-05-12_03h50.25.790,classification_task,2021.2.3,Win32,157.4555188,627c6715c52fd12f31907bd0,,,,,,,,,,,,,,,,,,,,,,,,,,,,,,,,,,,,,,,,,,,,,,,,,,,,,"On trials you completed without the aid, how frequently did you think you were correct?",,0.7,0,55%,,0,0,0,0,1,0,,,,,
,6108878a6817adc0fb1bfbf9,627c75e4bfe31e5ff5625fcf,2022-05-12_03h50.25.790,classification_task,2021.2.3,Win32,157.4555188,627c6715c52fd12f31907bd0,,,,,,,,,,,,,,,,,,,,,,,,,,,,,,,,,,,,,,,,,,,,,,,,,,,,,,,,,,,0,0,0,0,1,,,,,,
,6108878a6817adc0fb1bfbf9,627c75e4bfe31e5ff5625fcf,2022-05-12_03h50.25.790,classification_task,2021.2.3,Win32,157.4555188,627c6715c52fd12f31907bd0,,,,,,,,,,,,,,,,,,,,,,,,,,,,,,,,,,,,,,,,,,,,,,,,,,,,,,,,,,,,,,,,,space,15.1348,1256.7006,,
,6108878a6817adc0fb1bfbf9,627c75e4bfe31e5ff5625fcf,2022-05-12_03h50.25.790,classification_task,2021.2.3,Win32,157.4555188,627c6715c52fd12f31907bd0,,,,,,,,,,,,,,,,,,,,,,,,,,,,,,,,,,,,,,,,,,,,,,,,,,,,,,,,,,,,,,,,,,,,"Mozilla/5.0 (Windows NT 10.0; Win64; x64) AppleWebKit/537.36 (KHTML, like Gecko) Chrome/101.0.4951.54 Safari/537.36",
,6108878a6817adc0fb1bfbf9,627c75e4bfe31e5ff5625fcf,2022-05-12_03h50.25.790,classification_task,2021.2.3,Win32,157.4555188,627c6715c52fd12f31907bd0,,,,,,,,,,,,,,,,,,,,,,,,,,,,,,,,,,,,,,,,,,,,,,,,,,,,,,,,,,,,,,,,,,,,,LOWLIGHT
