usingWebGL,participant,session,date,expName,psychopyVersion,OS,frameRate,study_id,signatures_friend,signatures_foe,band_ranges_top,band_ranges_bottom,formitemText,formtype,formundefined,formitemWidth,formindex,formresponse,formrt,key_resp_2.keys,key_resp_2.rt,tute_resp.keys,tute_resp.rt,tutorial.thisRepN,tutorial.thisTrialN,tutorial.thisN,tutorial.thisIndex,tutorial.ran,key_resp_4.keys,key_resp_4.rt,key_resp.keys,key_resp.corr,key_resp.rt,lines_presented,is_signal_presented,trials.thisRepN,trials.thisTrialN,trials.thisN,trials.thisIndex,trials.ran,vessel,active_band,lines,is_signal,supported_pos,catch_trial,debrief_formindex,debrief_formitemText,debrief_formtype,debrief_formitemWidth,debrief_formresponse,debrief_formrt,phases.thisRepN,phases.thisTrialN,phases.thisN,phases.thisIndex,phases.ran,phases.order,phase,key_resp_3.keys,trustitemText,trusttype,trustitemWidth,trustindex,trustresponse,trustrt,support_status.thisRepN,support_status.thisTrialN,support_status.thisN,support_status.thisIndex,support_status.ran,support_status.order,key_resp_5.keys,key_resp_5.rt,globalClockTime,userAgent,manualCondition
TRUE,6108015fd0cba9f9b02e6314,627c760022fbbce493a5371f,2022-05-12_03h50.51.903,classification_task,2021.2.3,Win32,59.97720866,627c6715c52fd12f31907bd0,,,,,,,,,,,,,,,,,,,,,,,,,,,,,,,,,,,,,,,,,,,,,,,,,,,,,,,,,,,,,,,,,,,,,
,6108015fd0cba9f9b02e6314,627c760022fbbce493a5371f,2022-05-12_03h50.51.903,classification_task,2021.2.3,Win32,59.97720866,627c6715c52fd12f31907bd0,"[[""0.220"",""0.359"",""0.636"",""0.952""],[""0.182"",""0.411"",""0.869"",""0.906""]]","[[""0.081"",""0.142"",""0.587"",""0.830""],[""0.041"",""0.291"",""0.525"",""0.727""]]","[1,10]","[100,1000]",Video game experience,,,0.7,0,,,,,,,,,,,,,,,,,,,,,,,,,,,,,,,,,,,,,,,,,,,,,,,,,,,,,,,,,,,,
,6108015fd0cba9f9b02e6314,627c760022fbbce493a5371f,2022-05-12_03h50.51.903,classification_task,2021.2.3,Win32,59.97720866,627c6715c52fd12f31907bd0,,,,,Approximately how many hours did you spend playing video games in the last week?,,,0.7,0,30,,,,,,,,,,,,,,,,,,,,,,,,,,,,,,,,,,,,,,,,,,,,,,,,,,,,,,,,,,,
,6108015fd0cba9f9b02e6314,627c760022fbbce493a5371f,2022-05-12_03h50.51.903,classification_task,2021.2.3,Win32,59.97720866,627c6715c52fd12f31907bd0,,,,,"Which game did you play the most this year? (Enter ""None"" if you didn't play any)",,,0.7,0,Overwatch,,,,,,,,,,,,,,,,,,,,,,,,,,,,,,,,,,,,,,,,,,,,,,,,,,,,,,,,,,,
,6108015fd0cba9f9b02e6314,627c760022fbbce493a5371f,2022-05-12_03h50.51.903,classification_task,2021.2.3,Win32,59.97720866,627c6715c52fd12f31907bd0,,,,,Visual perception,,,0.7,0,,,,,,,,,,,,,,,,,,,,,,,,,,,,,,,,,,,,,,,,,,,,,,,,,,,,,,,,,,,,
,6108015fd0cba9f9b02e6314,627c760022fbbce493a5371f,2022-05-12_03h50.51.903,classification_task,2021.2.3,Win32,59.97720866,627c6715c52fd12f31907bd0,,,,,Do you have any form of color blindness?,,,0.7,0,No,22.641,,,,,,,,,,,,,,,,,,,,,,,,,,,,,,,,,,,,,,,,,,,,,,,,,,,,,,,,,,
,6108015fd0cba9f9b02e6314,627c760022fbbce493a5371f,2022-05-12_03h50.51.903,classification_task,2021.2.3,Win32,59.97720866,627c6715c52fd12f31907bd0,,,,,Do you use software to change the colour temperature of your screen (e.g. f.lux)?,,,0.7,0,No,25.9943,,,,,,,,,,,,,,,,,,,,,,,,,,,,,,,,,,,,,,,,,,,,,,,,,,,,,,,,,,
,6108015fd0cba9f9b02e6314,627c760022fbbce493a5371f,2022-05-12_03h50.51.903,classification_task,2021.2.3,Win32,59.97720866,627c6715c52fd12f31907bd0,,,,,,,,,,,,space,32.698,space,16.7826,0,0,0,0,1,,,,,,,,,,,,,,,,,,,,,,,,,,,,,,,,,,,,,,,,,,,,,,,,,
,6108015fd0cba9f9b02e6314,627c760022fbbce493a5371f,2022-05-12_03h50.51.903,classification_task,2021.2.3,Win32,59.97720866,627c6715c52fd12f31907bd0,,,,,,,,,,,,,,space,8.3168,1,0,1,0,1,,,,,,,,,,,,,,,,,,,,,,,,,,,,,,,,,,,,,,,,,,,,,,,,,
,6108015fd0cba9f9b02e6314,627c760022fbbce493a5371f,2022-05-12_03h50.51.903,classification_task,2021.2.3,Win32,59.97720866,627c6715c52fd12f31907bd0,,,,,,,,,,,,,,space,47.2958,2,0,2,0,1,,,,,,,,,,,,,,,,,,,,,,,,,,,,,,,,,,,,,,,,,,,,,,,,,
,6108015fd0cba9f9b02e6314,627c760022fbbce493a5371f,2022-05-12_03h50.51.903,classification_task,2021.2.3,Win32,59.97720866,627c6715c52fd12f31907bd0,,,,,,,,,,,,,,space,5.883,3,0,3,0,1,,,,,,,,,,,,,,,,,,,,,,,,,,,,,,,,,,,,,,,,,,,,,,,,,
,6108015fd0cba9f9b02e6314,627c760022fbbce493a5371f,2022-05-12_03h50.51.903,classification_task,2021.2.3,Win32,59.97720866,627c6715c52fd12f31907bd0,,,,,,,,,,,,,,space,10.0455,4,0,4,0,1,,,,,,,,,,,,,,,,,,,,,,,,,,,,,,,,,,,,,,,,,,,,,,,,,
,6108015fd0cba9f9b02e6314,627c760022fbbce493a5371f,2022-05-12_03h50.51.903,classification_task,2021.2.3,Win32,59.97720866,627c6715c52fd12f31907bd0,,,,,,,,,,,,,,,,,,,,,space,16.4067,a,1,5.1283,"[""0.688"",""0.359"",""0.636"",""0.952""]","[0,1,1,1]",0,0,0,0,1,0,0,,,1,FALSE,,,,,,,,,,,,,,,,,,,,,,,,,,,,,,,
,6108015fd0cba9f9b02e6314,627c760022fbbce493a5371f,2022-05-12_03h50.51.903,classification_task,2021.2.3,Win32,59.97720866,627c6715c52fd12f31907bd0,,,,,,,,,,,,,,,,,,,,,,,l,0,5.6225,"[""0.452"",""0.411"",""0.869"",""0.906""]","[0,1,1,1]",0,1,1,1,1,0,1,,,1,FALSE,,,,,,,,,,,,,,,,,,,,,,,,,,,,,,,
,6108015fd0cba9f9b02e6314,627c760022fbbce493a5371f,2022-05-12_03h50.51.903,classification_task,2021.2.3,Win32,59.97720866,627c6715c52fd12f31907bd0,,,,,,,,,,,,,,,,,,,,,,,a,1,8.5117,"[""0.220"",""0.359"",""0.781"",""0.952""]","[1,1,0,1]",0,2,2,2,1,0,0,,,1,FALSE,,,,,,,,,,,,,,,,,,,,,,,,,,,,,,,
,6108015fd0cba9f9b02e6314,627c760022fbbce493a5371f,2022-05-12_03h50.51.903,classification_task,2021.2.3,Win32,59.97720866,627c6715c52fd12f31907bd0,,,,,,,,,,,,,,,,,,,,,,,l,1,7.4437,"[""0.041"",""0.291"",""0.452"",""0.727""]","[1,1,0,1]",0,3,3,3,1,1,1,,,1,FALSE,,,,,,,,,,,,,,,,,,,,,,,,,,,,,,,
,6108015fd0cba9f9b02e6314,627c760022fbbce493a5371f,2022-05-12_03h50.51.903,classification_task,2021.2.3,Win32,59.97720866,627c6715c52fd12f31907bd0,,,,,,,,,,,,,,,,,,,,,,,l,1,6.2649,"[""0.489"",""0.291"",""0.525"",""0.727""]","[0,1,1,1]",0,4,4,4,1,1,1,,,1,FALSE,,,,,,,,,,,,,,,,,,,,,,,,,,,,,,,
,6108015fd0cba9f9b02e6314,627c760022fbbce493a5371f,2022-05-12_03h50.51.903,classification_task,2021.2.3,Win32,59.97720866,627c6715c52fd12f31907bd0,,,,,,,,,,,,,,,,,,,,,,,l,1,4.2628,"[""0.081"",""0.142"",""0.489"",""0.830""]","[1,1,0,1]",0,5,5,5,1,1,0,,,1,FALSE,,,,,,,,,,,,,,,,,,,,,,,,,,,,,,,
,6108015fd0cba9f9b02e6314,627c760022fbbce493a5371f,2022-05-12_03h50.51.903,classification_task,2021.2.3,Win32,59.97720866,627c6715c52fd12f31907bd0,,,,,,,,,,,,,,,,,,,,,,,a,1,3.0662,"[""0.220"",""0.688"",""0.636"",""0.952""]","[1,0,1,1]",0,6,6,6,1,0,0,,,1,FALSE,,,,,,,,,,,,,,,,,,,,,,,,,,,,,,,
,6108015fd0cba9f9b02e6314,627c760022fbbce493a5371f,2022-05-12_03h50.51.903,classification_task,2021.2.3,Win32,59.97720866,627c6715c52fd12f31907bd0,,,,,,,,,,,,,,,,,,,,,,,l,1,2.6292,"[""0.041"",""0.677"",""0.525"",""0.727""]","[1,0,1,1]",0,7,7,7,1,1,1,,,1,FALSE,,,,,,,,,,,,,,,,,,,,,,,,,,,,,,,
,6108015fd0cba9f9b02e6314,627c760022fbbce493a5371f,2022-05-12_03h50.51.903,classification_task,2021.2.3,Win32,59.97720866,627c6715c52fd12f31907bd0,,,,,,,,,,,,,,,,,,,,,,,,0,,"[""0.452"",""0.142"",""0.587"",""0.830""]","[0,1,1,1]",0,8,8,8,1,1,0,,,1,FALSE,,,,,,,,,,,,,,,,,,,,,,,,,,,,,,,
,6108015fd0cba9f9b02e6314,627c760022fbbce493a5371f,2022-05-12_03h50.51.903,classification_task,2021.2.3,Win32,59.97720866,627c6715c52fd12f31907bd0,,,,,,,,,,,,,,,,,,,,,,,a,1,4.1464,"[""0.182"",""0.476"",""0.869"",""0.906""]","[1,0,1,1]",0,9,9,9,1,0,1,,,1,FALSE,,,,,,,,,,,,,,,,,,,,,,,,,,,,,,,
,6108015fd0cba9f9b02e6314,627c760022fbbce493a5371f,2022-05-12_03h50.51.903,classification_task,2021.2.3,Win32,59.97720866,627c6715c52fd12f31907bd0,,,,,,,,,,,,,,,,,,,,,,,l,1,3.3839,"[""0.081"",""0.688"",""0.587"",""0.830""]","[1,0,1,1]",0,10,10,10,1,1,0,,,1,FALSE,,,,,,,,,,,,,,,,,,,,,,,,,,,,,,,
,6108015fd0cba9f9b02e6314,627c760022fbbce493a5371f,2022-05-12_03h50.51.903,classification_task,2021.2.3,Win32,59.97720866,627c6715c52fd12f31907bd0,,,,,,,,,,,,,,,,,,,,,,,a,1,3.1533,"[""0.182"",""0.411"",""0.482"",""0.906""]","[1,1,0,1]",0,11,11,11,1,0,1,,,1,FALSE,,,,,,,,,,,,,,,,,,,,,,,,,,,,,,,
,6108015fd0cba9f9b02e6314,627c760022fbbce493a5371f,2022-05-12_03h50.51.903,classification_task,2021.2.3,Win32,59.97720866,627c6715c52fd12f31907bd0,,,,,,,,,,,,,,,,,,,,,,,a,1,6.6603,"[""0.182"",""0.411"",""0.869"",""0.452""]","[1,1,1,0]",0,12,12,12,1,0,1,,,1,FALSE,,,,,,,,,,,,,,,,,,,,,,,,,,,,,,,
,6108015fd0cba9f9b02e6314,627c760022fbbce493a5371f,2022-05-12_03h50.51.903,classification_task,2021.2.3,Win32,59.97720866,627c6715c52fd12f31907bd0,,,,,,,,,,,,,,,,,,,,,,,l,1,2.7147,"[""0.041"",""0.291"",""0.525"",""0.770""]","[1,1,1,0]",0,13,13,13,1,1,1,,,1,FALSE,,,,,,,,,,,,,,,,,,,,,,,,,,,,,,,
,6108015fd0cba9f9b02e6314,627c760022fbbce493a5371f,2022-05-12_03h50.51.903,classification_task,2021.2.3,Win32,59.97720866,627c6715c52fd12f31907bd0,,,,,,,,,,,,,,,,,,,,,,,a,1,2.8916,"[""0.220"",""0.359"",""0.636"",""0.770""]","[1,1,1,0]",0,14,14,14,1,0,0,,,1,FALSE,,,,,,,,,,,,,,,,,,,,,,,,,,,,,,,
,6108015fd0cba9f9b02e6314,627c760022fbbce493a5371f,2022-05-12_03h50.51.903,classification_task,2021.2.3,Win32,59.97720866,627c6715c52fd12f31907bd0,,,,,,,,,,,,,,,,,,,,,,,l,1,2.8499,"[""0.081"",""0.142"",""0.587"",""0.677""]","[1,1,1,0]",0,15,15,15,1,1,0,,,1,FALSE,,,,,,,,,,,,,,,,,,,,,,,,,,,,,,,
,6108015fd0cba9f9b02e6314,627c760022fbbce493a5371f,2022-05-12_03h50.51.903,classification_task,2021.2.3,Win32,59.97720866,627c6715c52fd12f31907bd0,,,,,,,,,,,,,,,,,,,,,,,l,1,4.1509,"[""0.081"",""0.490"",""0.587"",""0.830""]","[1,0,1,1]",0,16,16,16,1,1,0,,,1,FALSE,,,,,,,,,,,,,,,,,,,,,,,,,,,,,,,
,6108015fd0cba9f9b02e6314,627c760022fbbce493a5371f,2022-05-12_03h50.51.903,classification_task,2021.2.3,Win32,59.97720866,627c6715c52fd12f31907bd0,,,,,,,,,,,,,,,,,,,,,,,a,1,6.0695,"[""0.182"",""0.411"",""0.490"",""0.906""]","[1,1,0,1]",0,17,17,17,1,0,1,,,1,FALSE,,,,,,,,,,,,,,,,,,,,,,,,,,,,,,,
,6108015fd0cba9f9b02e6314,627c760022fbbce493a5371f,2022-05-12_03h50.51.903,classification_task,2021.2.3,Win32,59.97720866,627c6715c52fd12f31907bd0,,,,,,,,,,,,,,,,,,,,,,,a,1,3.178,"[""0.220"",""0.490"",""0.636"",""0.952""]","[1,0,1,1]",0,18,18,18,1,0,0,,,1,FALSE,,,,,,,,,,,,,,,,,,,,,,,,,,,,,,,
,6108015fd0cba9f9b02e6314,627c760022fbbce493a5371f,2022-05-12_03h50.51.903,classification_task,2021.2.3,Win32,59.97720866,627c6715c52fd12f31907bd0,,,,,,,,,,,,,,,,,,,,,,,a,1,3.3816,"[""0.220"",""0.359"",""0.636"",""0.770""]","[1,1,1,0]",0,19,19,19,1,0,0,,,1,FALSE,,,,,,,,,,,,,,,,,,,,,,,,,,,,,,,
,6108015fd0cba9f9b02e6314,627c760022fbbce493a5371f,2022-05-12_03h50.51.903,classification_task,2021.2.3,Win32,59.97720866,627c6715c52fd12f31907bd0,,,,,,,,,,,,,,,,,,,,,,,l,1,4.5986,"[""0.081"",""0.142"",""0.587"",""0.490""]","[1,1,1,0]",0,20,20,20,1,1,0,,,1,FALSE,,,,,,,,,,,,,,,,,,,,,,,,,,,,,,,
,6108015fd0cba9f9b02e6314,627c760022fbbce493a5371f,2022-05-12_03h50.51.903,classification_task,2021.2.3,Win32,59.97720866,627c6715c52fd12f31907bd0,,,,,,,,,,,,,,,,,,,,,,,a,1,6.3982,"[""0.471"",""0.359"",""0.636"",""0.952""]","[0,1,1,1]",0,21,21,21,1,0,0,,,1,FALSE,,,,,,,,,,,,,,,,,,,,,,,,,,,,,,,
,6108015fd0cba9f9b02e6314,627c760022fbbce493a5371f,2022-05-12_03h50.51.903,classification_task,2021.2.3,Win32,59.97720866,627c6715c52fd12f31907bd0,,,,,,,,,,,,,,,,,,,,,,,l,1,3.7466,"[""0.041"",""0.291"",""0.471"",""0.727""]","[1,1,0,1]",0,22,22,22,1,1,1,,,1,FALSE,,,,,,,,,,,,,,,,,,,,,,,,,,,,,,,
,6108015fd0cba9f9b02e6314,627c760022fbbce493a5371f,2022-05-12_03h50.51.903,classification_task,2021.2.3,Win32,59.97720866,627c6715c52fd12f31907bd0,,,,,,,,,,,,,,,,,,,,,,,l,1,3.2446,"[""0.688"",""0.142"",""0.587"",""0.830""]","[0,1,1,1]",0,23,23,23,1,1,0,,,1,FALSE,,,,,,,,,,,,,,,,,,,,,,,,,,,,,,,
,6108015fd0cba9f9b02e6314,627c760022fbbce493a5371f,2022-05-12_03h50.51.903,classification_task,2021.2.3,Win32,59.97720866,627c6715c52fd12f31907bd0,,,,,,,,,,,,,,,,,,,,,,,l,1,4.1526,"[""0.688"",""0.291"",""0.525"",""0.727""]","[0,1,1,1]",0,24,24,24,1,1,1,,,1,FALSE,,,,,,,,,,,,,,,,,,,,,,,,,,,,,,,
,6108015fd0cba9f9b02e6314,627c760022fbbce493a5371f,2022-05-12_03h50.51.903,classification_task,2021.2.3,Win32,59.97720866,627c6715c52fd12f31907bd0,,,,,,,,,,,,,,,,,,,,,,,l,1,3.749,"[""0.041"",""0.291"",""0.525"",""0.490""]","[1,1,1,0]",0,25,25,25,1,1,1,,,1,FALSE,,,,,,,,,,,,,,,,,,,,,,,,,,,,,,,
,6108015fd0cba9f9b02e6314,627c760022fbbce493a5371f,2022-05-12_03h50.51.903,classification_task,2021.2.3,Win32,59.97720866,627c6715c52fd12f31907bd0,,,,,,,,,,,,,,,,,,,,,,,a,1,2.0155,"[""0.182"",""0.490"",""0.869"",""0.906""]","[1,0,1,1]",0,26,26,26,1,0,1,,,1,FALSE,,,,,,,,,,,,,,,,,,,,,,,,,,,,,,,
,6108015fd0cba9f9b02e6314,627c760022fbbce493a5371f,2022-05-12_03h50.51.903,classification_task,2021.2.3,Win32,59.97720866,627c6715c52fd12f31907bd0,,,,,,,,,,,,,,,,,,,,,,,a,1,1.5983,"[""0.182"",""0.411"",""0.869"",""0.688""]","[1,1,1,0]",0,27,27,27,1,0,1,,,1,FALSE,,,,,,,,,,,,,,,,,,,,,,,,,,,,,,,
,6108015fd0cba9f9b02e6314,627c760022fbbce493a5371f,2022-05-12_03h50.51.903,classification_task,2021.2.3,Win32,59.97720866,627c6715c52fd12f31907bd0,,,,,,,,,,,,,,,,,,,,,,,l,1,0.8115,"[""0.041"",""0.793"",""0.525"",""0.727""]","[1,0,1,1]",0,28,28,28,1,1,1,,,1,FALSE,,,,,,,,,,,,,,,,,,,,,,,,,,,,,,,
,6108015fd0cba9f9b02e6314,627c760022fbbce493a5371f,2022-05-12_03h50.51.903,classification_task,2021.2.3,Win32,59.97720866,627c6715c52fd12f31907bd0,,,,,,,,,,,,,,,,,,,,,,,a,1,2.7017,"[""0.220"",""0.359"",""0.486"",""0.952""]","[1,1,0,1]",0,29,29,29,1,0,0,,,1,FALSE,,,,,,,,,,,,,,,,,,,,,,,,,,,,,,,
,6108015fd0cba9f9b02e6314,627c760022fbbce493a5371f,2022-05-12_03h50.51.903,classification_task,2021.2.3,Win32,59.97720866,627c6715c52fd12f31907bd0,,,,,,,,,,,,,,,,,,,,,,,l,1,2.379,"[""0.081"",""0.142"",""0.490"",""0.830""]","[1,1,0,1]",0,30,30,30,1,1,0,,,1,FALSE,,,,,,,,,,,,,,,,,,,,,,,,,,,,,,,
,6108015fd0cba9f9b02e6314,627c760022fbbce493a5371f,2022-05-12_03h50.51.903,classification_task,2021.2.3,Win32,59.97720866,627c6715c52fd12f31907bd0,,,,,,,,,,,,,,,,,,,,,,,a,1,2.7473,"[""0.770"",""0.411"",""0.869"",""0.906""]","[0,1,1,1]",0,31,31,31,1,0,1,,,1,FALSE,,,,,,,,,,,,,,,,,,,,,,,,,,,,,,,
,6108015fd0cba9f9b02e6314,627c760022fbbce493a5371f,2022-05-12_03h50.51.903,classification_task,2021.2.3,Win32,59.97720866,627c6715c52fd12f31907bd0,,,,,,,,,,,,,,,,,,,,,,,a,1,1.2953,"[""0.220"",""0.359"",""0.636"",""0.486""]","[1,1,1,0]",0,32,32,32,1,0,0,,,1,FALSE,,,,,,,,,,,,,,,,,,,,,,,,,,,,,,,
,6108015fd0cba9f9b02e6314,627c760022fbbce493a5371f,2022-05-12_03h50.51.903,classification_task,2021.2.3,Win32,59.97720866,627c6715c52fd12f31907bd0,,,,,,,,,,,,,,,,,,,,,,,l,1,1.2126,"[""0.081"",""0.452"",""0.587"",""0.830""]","[1,0,1,1]",0,33,33,33,1,1,0,,,1,FALSE,,,,,,,,,,,,,,,,,,,,,,,,,,,,,,,
,6108015fd0cba9f9b02e6314,627c760022fbbce493a5371f,2022-05-12_03h50.51.903,classification_task,2021.2.3,Win32,59.97720866,627c6715c52fd12f31907bd0,,,,,,,,,,,,,,,,,,,,,,,l,1,1.6512,"[""0.081"",""0.142"",""0.587"",""0.489""]","[1,1,1,0]",0,34,34,34,1,1,0,,,1,FALSE,,,,,,,,,,,,,,,,,,,,,,,,,,,,,,,
,6108015fd0cba9f9b02e6314,627c760022fbbce493a5371f,2022-05-12_03h50.51.903,classification_task,2021.2.3,Win32,59.97720866,627c6715c52fd12f31907bd0,,,,,,,,,,,,,,,,,,,,,,,l,1,1.2012,"[""0.452"",""0.142"",""0.587"",""0.830""]","[0,1,1,1]",0,35,35,35,1,1,0,,,1,FALSE,,,,,,,,,,,,,,,,,,,,,,,,,,,,,,,
,6108015fd0cba9f9b02e6314,627c760022fbbce493a5371f,2022-05-12_03h50.51.903,classification_task,2021.2.3,Win32,59.97720866,627c6715c52fd12f31907bd0,,,,,,,,,,,,,,,,,,,,,,,a,1,2.3526,"[""0.688"",""0.359"",""0.636"",""0.952""]","[0,1,1,1]",0,36,36,36,1,0,0,,,1,FALSE,,,,,,,,,,,,,,,,,,,,,,,,,,,,,,,
,6108015fd0cba9f9b02e6314,627c760022fbbce493a5371f,2022-05-12_03h50.51.903,classification_task,2021.2.3,Win32,59.97720866,627c6715c52fd12f31907bd0,,,,,,,,,,,,,,,,,,,,,,,l,0,3.3819,"[""0.182"",""0.471"",""0.869"",""0.906""]","[1,0,1,1]",0,37,37,37,1,0,1,,,1,FALSE,,,,,,,,,,,,,,,,,,,,,,,,,,,,,,,
,6108015fd0cba9f9b02e6314,627c760022fbbce493a5371f,2022-05-12_03h50.51.903,classification_task,2021.2.3,Win32,59.97720866,627c6715c52fd12f31907bd0,,,,,,,,,,,,,,,,,,,,,,,a,1,1.1473,"[""0.220"",""0.359"",""0.688"",""0.952""]","[1,1,0,1]",0,38,38,38,1,0,0,,,1,FALSE,,,,,,,,,,,,,,,,,,,,,,,,,,,,,,,
,6108015fd0cba9f9b02e6314,627c760022fbbce493a5371f,2022-05-12_03h50.51.903,classification_task,2021.2.3,Win32,59.97720866,627c6715c52fd12f31907bd0,,,,,,,,,,,,,,,,,,,,,,,l,0,1.8404,"[""0.770"",""0.411"",""0.869"",""0.906""]","[0,1,1,1]",0,39,39,39,1,0,1,,,1,FALSE,,,,,,,,,,,,,,,,,,,,,,,,,,,,,,,
,6108015fd0cba9f9b02e6314,627c760022fbbce493a5371f,2022-05-12_03h50.51.903,classification_task,2021.2.3,Win32,59.97720866,627c6715c52fd12f31907bd0,,,,,,,,,,,,,,,,,,,,,,,l,1,1.253,"[""0.041"",""0.488"",""0.525"",""0.727""]","[1,0,1,1]",0,40,40,40,1,1,1,,,1,FALSE,,,,,,,,,,,,,,,,,,,,,,,,,,,,,,,
,6108015fd0cba9f9b02e6314,627c760022fbbce493a5371f,2022-05-12_03h50.51.903,classification_task,2021.2.3,Win32,59.97720866,627c6715c52fd12f31907bd0,,,,,,,,,,,,,,,,,,,,,,,a,1,1.5374,"[""0.182"",""0.411"",""0.869"",""0.476""]","[1,1,1,0]",0,41,41,41,1,0,1,,,1,FALSE,,,,,,,,,,,,,,,,,,,,,,,,,,,,,,,
,6108015fd0cba9f9b02e6314,627c760022fbbce493a5371f,2022-05-12_03h50.51.903,classification_task,2021.2.3,Win32,59.97720866,627c6715c52fd12f31907bd0,,,,,,,,,,,,,,,,,,,,,,,a,0,2.0215,"[""0.490"",""0.291"",""0.525"",""0.727""]","[0,1,1,1]",0,42,42,42,1,1,1,,,1,FALSE,,,,,,,,,,,,,,,,,,,,,,,,,,,,,,,
,6108015fd0cba9f9b02e6314,627c760022fbbce493a5371f,2022-05-12_03h50.51.903,classification_task,2021.2.3,Win32,59.97720866,627c6715c52fd12f31907bd0,,,,,,,,,,,,,,,,,,,,,,,l,1,1.4025,"[""0.041"",""0.291"",""0.525"",""0.488""]","[1,1,1,0]",0,43,43,43,1,1,1,,,1,FALSE,,,,,,,,,,,,,,,,,,,,,,,,,,,,,,,
,6108015fd0cba9f9b02e6314,627c760022fbbce493a5371f,2022-05-12_03h50.51.903,classification_task,2021.2.3,Win32,59.97720866,627c6715c52fd12f31907bd0,,,,,,,,,,,,,,,,,,,,,,,l,1,1.2959,"[""0.081"",""0.142"",""0.482"",""0.830""]","[1,1,0,1]",0,44,44,44,1,1,0,,,1,FALSE,,,,,,,,,,,,,,,,,,,,,,,,,,,,,,,
,6108015fd0cba9f9b02e6314,627c760022fbbce493a5371f,2022-05-12_03h50.51.903,classification_task,2021.2.3,Win32,59.97720866,627c6715c52fd12f31907bd0,,,,,,,,,,,,,,,,,,,,,,,a,1,1.3717,"[""0.182"",""0.411"",""0.770"",""0.906""]","[1,1,0,1]",0,45,45,45,1,0,1,,,1,FALSE,,,,,,,,,,,,,,,,,,,,,,,,,,,,,,,
,6108015fd0cba9f9b02e6314,627c760022fbbce493a5371f,2022-05-12_03h50.51.903,classification_task,2021.2.3,Win32,59.97720866,627c6715c52fd12f31907bd0,,,,,,,,,,,,,,,,,,,,,,,l,1,1.2739,"[""0.041"",""0.291"",""0.488"",""0.727""]","[1,1,0,1]",0,46,46,46,1,1,1,,,1,FALSE,,,,,,,,,,,,,,,,,,,,,,,,,,,,,,,
,6108015fd0cba9f9b02e6314,627c760022fbbce493a5371f,2022-05-12_03h50.51.903,classification_task,2021.2.3,Win32,59.97720866,627c6715c52fd12f31907bd0,,,,,,,,,,,,,,,,,,,,,,,a,1,1.0807,"[""0.220"",""0.482"",""0.636"",""0.952""]","[1,0,1,1]",0,47,47,47,1,0,0,,,1,FALSE,,,,,,,,,,,,,,,,,,,,,,,,,,,,,,,
,6108015fd0cba9f9b02e6314,627c760022fbbce493a5371f,2022-05-12_03h50.51.903,classification_task,2021.2.3,Win32,59.97720866,627c6715c52fd12f31907bd0,,,,,,,,,,,,,,,,,,,,,,,a,0,1.4368,"[""0.770"",""0.291"",""0.525"",""0.727""]","[0,1,1,1]",0,48,48,48,1,1,1,,,1,FALSE,,,,,,,,,,,,,,,,,,,,,,,,,,,,,,,
,6108015fd0cba9f9b02e6314,627c760022fbbce493a5371f,2022-05-12_03h50.51.903,classification_task,2021.2.3,Win32,59.97720866,627c6715c52fd12f31907bd0,,,,,,,,,,,,,,,,,,,,,,,a,1,0.8708,"[""0.220"",""0.688"",""0.636"",""0.952""]","[1,0,1,1]",0,49,49,49,1,0,0,,,1,FALSE,,,,,,,,,,,,,,,,,,,,,,,,,,,,,,,
,6108015fd0cba9f9b02e6314,627c760022fbbce493a5371f,2022-05-12_03h50.51.903,classification_task,2021.2.3,Win32,59.97720866,627c6715c52fd12f31907bd0,,,,,,,,,,,,,,,,,,,,,,,l,1,1.0529,"[""0.041"",""0.291"",""0.770"",""0.727""]","[1,1,0,1]",0,50,50,50,1,1,1,,,1,FALSE,,,,,,,,,,,,,,,,,,,,,,,,,,,,,,,
,6108015fd0cba9f9b02e6314,627c760022fbbce493a5371f,2022-05-12_03h50.51.903,classification_task,2021.2.3,Win32,59.97720866,627c6715c52fd12f31907bd0,,,,,,,,,,,,,,,,,,,,,,,a,1,1.5388,"[""0.486"",""0.359"",""0.636"",""0.952""]","[0,1,1,1]",0,51,51,51,1,0,0,,,1,FALSE,,,,,,,,,,,,,,,,,,,,,,,,,,,,,,,
,6108015fd0cba9f9b02e6314,627c760022fbbce493a5371f,2022-05-12_03h50.51.903,classification_task,2021.2.3,Win32,59.97720866,627c6715c52fd12f31907bd0,,,,,,,,,,,,,,,,,,,,,,,a,1,1.7449,"[""0.182"",""0.781"",""0.869"",""0.906""]","[1,0,1,1]",0,52,52,52,1,0,1,,,1,FALSE,,,,,,,,,,,,,,,,,,,,,,,,,,,,,,,
,6108015fd0cba9f9b02e6314,627c760022fbbce493a5371f,2022-05-12_03h50.51.903,classification_task,2021.2.3,Win32,59.97720866,627c6715c52fd12f31907bd0,,,,,,,,,,,,,,,,,,,,,,,l,1,0.9217,"[""0.081"",""0.142"",""0.587"",""0.486""]","[1,1,1,0]",0,53,53,53,1,1,0,,,1,FALSE,,,,,,,,,,,,,,,,,,,,,,,,,,,,,,,
,6108015fd0cba9f9b02e6314,627c760022fbbce493a5371f,2022-05-12_03h50.51.903,classification_task,2021.2.3,Win32,59.97720866,627c6715c52fd12f31907bd0,,,,,,,,,,,,,,,,,,,,,,,l,1,0.6921,"[""0.081"",""0.793"",""0.587"",""0.830""]","[1,0,1,1]",0,54,54,54,1,1,0,,,1,FALSE,,,,,,,,,,,,,,,,,,,,,,,,,,,,,,,
,6108015fd0cba9f9b02e6314,627c760022fbbce493a5371f,2022-05-12_03h50.51.903,classification_task,2021.2.3,Win32,59.97720866,627c6715c52fd12f31907bd0,,,,,,,,,,,,,,,,,,,,,,,l,0,2.7894,"[""0.471"",""0.411"",""0.869"",""0.906""]","[0,1,1,1]",0,55,55,55,1,0,1,,,1,FALSE,,,,,,,,,,,,,,,,,,,,,,,,,,,,,,,
,6108015fd0cba9f9b02e6314,627c760022fbbce493a5371f,2022-05-12_03h50.51.903,classification_task,2021.2.3,Win32,59.97720866,627c6715c52fd12f31907bd0,,,,,,,,,,,,,,,,,,,,,,,a,1,1.2836,"[""0.182"",""0.411"",""0.869"",""0.452""]","[1,1,1,0]",0,56,56,56,1,0,1,,,1,FALSE,,,,,,,,,,,,,,,,,,,,,,,,,,,,,,,
,6108015fd0cba9f9b02e6314,627c760022fbbce493a5371f,2022-05-12_03h50.51.903,classification_task,2021.2.3,Win32,59.97720866,627c6715c52fd12f31907bd0,,,,,,,,,,,,,,,,,,,,,,,l,1,0.9726,"[""0.081"",""0.142"",""0.688"",""0.830""]","[1,1,0,1]",0,57,57,57,1,1,0,,,1,FALSE,,,,,,,,,,,,,,,,,,,,,,,,,,,,,,,
,6108015fd0cba9f9b02e6314,627c760022fbbce493a5371f,2022-05-12_03h50.51.903,classification_task,2021.2.3,Win32,59.97720866,627c6715c52fd12f31907bd0,,,,,,,,,,,,,,,,,,,,,,,l,1,1.2325,"[""0.781"",""0.142"",""0.587"",""0.830""]","[0,1,1,1]",0,58,58,58,1,1,0,,,1,FALSE,,,,,,,,,,,,,,,,,,,,,,,,,,,,,,,
,6108015fd0cba9f9b02e6314,627c760022fbbce493a5371f,2022-05-12_03h50.51.903,classification_task,2021.2.3,Win32,59.97720866,627c6715c52fd12f31907bd0,,,,,,,,,,,,,,,,,,,,,,,a,1,0.9079,"[""0.220"",""0.359"",""0.636"",""0.488""]","[1,1,1,0]",0,59,59,59,1,0,0,,,1,FALSE,,,,,,,,,,,,,,,,,,,,,,,,,,,,,,,
,6108015fd0cba9f9b02e6314,627c760022fbbce493a5371f,2022-05-12_03h50.51.903,classification_task,2021.2.3,Win32,59.97720866,627c6715c52fd12f31907bd0,,,,,,,,,,,,,,,,,,,,,,,l,1,1.0957,"[""0.041"",""0.476"",""0.525"",""0.727""]","[1,0,1,1]",0,60,60,60,1,1,1,,,1,FALSE,,,,,,,,,,,,,,,,,,,,,,,,,,,,,,,
,6108015fd0cba9f9b02e6314,627c760022fbbce493a5371f,2022-05-12_03h50.51.903,classification_task,2021.2.3,Win32,59.97720866,627c6715c52fd12f31907bd0,,,,,,,,,,,,,,,,,,,,,,,a,1,1.2884,"[""0.182"",""0.411"",""0.488"",""0.906""]","[1,1,0,1]",0,61,61,61,1,0,1,,,1,FALSE,,,,,,,,,,,,,,,,,,,,,,,,,,,,,,,
,6108015fd0cba9f9b02e6314,627c760022fbbce493a5371f,2022-05-12_03h50.51.903,classification_task,2021.2.3,Win32,59.97720866,627c6715c52fd12f31907bd0,,,,,,,,,,,,,,,,,,,,,,,l,1,1.0047,"[""0.041"",""0.291"",""0.525"",""0.688""]","[1,1,1,0]",0,62,62,62,1,1,1,,,1,FALSE,,,,,,,,,,,,,,,,,,,,,,,,,,,,,,,
,6108015fd0cba9f9b02e6314,627c760022fbbce493a5371f,2022-05-12_03h50.51.903,classification_task,2021.2.3,Win32,59.97720866,627c6715c52fd12f31907bd0,,,,,,,,,,,,,,,,,,,,,,,a,1,0.7801,"[""0.220"",""0.359"",""0.688"",""0.952""]","[1,1,0,1]",0,63,63,63,1,0,0,,,1,FALSE,,,,,,,,,,,,,,,,,,,,,,,,,,,,,,,
,6108015fd0cba9f9b02e6314,627c760022fbbce493a5371f,2022-05-12_03h50.51.903,classification_task,2021.2.3,Win32,59.97720866,627c6715c52fd12f31907bd0,,,,,,,,,,,,,,,,,,,,,,,,,,,,,,,,,,,,,,,0, ,,0,2.036058716,463.4833,0,0,0,0,1,2,1,,,,,,,,,,,,,,,,,,
,6108015fd0cba9f9b02e6314,627c760022fbbce493a5371f,2022-05-12_03h50.51.903,classification_task,2021.2.3,Win32,59.97720866,627c6715c52fd12f31907bd0,,,,,,,,,,,,,,,,,,,,,,,,,,,,,,,,,,,,,,,1,  ,,0,3.21183767,464.7991,0,0,0,0,1,2,1,,,,,,,,,,,,,,,,,,
,6108015fd0cba9f9b02e6314,627c760022fbbce493a5371f,2022-05-12_03h50.51.903,classification_task,2021.2.3,Win32,59.97720866,627c6715c52fd12f31907bd0,,,,,,,,,,,,,,,,,,,,,,,,,,,,,,,,,,,,,,,2,  ,,0,10,469.7651,0,0,0,0,1,2,1,,,,,,,,,,,,,,,,,,
,6108015fd0cba9f9b02e6314,627c760022fbbce493a5371f,2022-05-12_03h50.51.903,classification_task,2021.2.3,Win32,59.97720866,627c6715c52fd12f31907bd0,,,,,,,,,,,,,,,,,,,,,,,,,,,,,,,,,,,,,,,,,,,,,0,0,0,0,1,,1,,,,,,,,,,,,,,,,,,
,6108015fd0cba9f9b02e6314,627c760022fbbce493a5371f,2022-05-12_03h50.51.903,classification_task,2021.2.3,Win32,59.97720866,627c6715c52fd12f31907bd0,,,,,,,,,,,,,,,,,,,,,space,13.1687,a,1,2.6984,"[""0.482"",""0.359"",""0.636"",""0.952""]","[0,1,1,1]",0,0,0,0,1,0,0,,,1,FALSE,,,,,,,,,,,,,,,,,,,,,,,,,,,,,,,
,6108015fd0cba9f9b02e6314,627c760022fbbce493a5371f,2022-05-12_03h50.51.903,classification_task,2021.2.3,Win32,59.97720866,627c6715c52fd12f31907bd0,,,,,,,,,,,,,,,,,,,,,,,a,1,0.7792,"[""0.220"",""0.359"",""0.636"",""0.770""]","[1,1,1,0]",0,1,1,1,1,0,0,,,1,FALSE,,,,,,,,,,,,,,,,,,,,,,,,,,,,,,,
,6108015fd0cba9f9b02e6314,627c760022fbbce493a5371f,2022-05-12_03h50.51.903,classification_task,2021.2.3,Win32,59.97720866,627c6715c52fd12f31907bd0,,,,,,,,,,,,,,,,,,,,,,,l,1,0.9373,"[""0.041"",""0.793"",""0.525"",""0.727""]","[1,0,1,1]",0,2,2,2,1,1,1,,,1,FALSE,,,,,,,,,,,,,,,,,,,,,,,,,,,,,,,
,6108015fd0cba9f9b02e6314,627c760022fbbce493a5371f,2022-05-12_03h50.51.903,classification_task,2021.2.3,Win32,59.97720866,627c6715c52fd12f31907bd0,,,,,,,,,,,,,,,,,,,,,,,l,1,1.2122,"[""0.452"",""0.142"",""0.587"",""0.830""]","[0,1,1,1]",0,3,3,3,1,1,0,,,1,FALSE,,,,,,,,,,,,,,,,,,,,,,,,,,,,,,,
,6108015fd0cba9f9b02e6314,627c760022fbbce493a5371f,2022-05-12_03h50.51.903,classification_task,2021.2.3,Win32,59.97720866,627c6715c52fd12f31907bd0,,,,,,,,,,,,,,,,,,,,,,,a,1,0.7779,"[""0.220"",""0.359"",""0.688"",""0.952""]","[1,1,0,1]",0,4,4,4,1,0,0,,,1,FALSE,,,,,,,,,,,,,,,,,,,,,,,,,,,,,,,
,6108015fd0cba9f9b02e6314,627c760022fbbce493a5371f,2022-05-12_03h50.51.903,classification_task,2021.2.3,Win32,59.97720866,627c6715c52fd12f31907bd0,,,,,,,,,,,,,,,,,,,,,,,l,1,0.5999,"[""0.482"",""0.291"",""0.525"",""0.727""]","[0,1,1,1]",0,5,5,5,1,1,1,,,1,FALSE,,,,,,,,,,,,,,,,,,,,,,,,,,,,,,,
,6108015fd0cba9f9b02e6314,627c760022fbbce493a5371f,2022-05-12_03h50.51.903,classification_task,2021.2.3,Win32,59.97720866,627c6715c52fd12f31907bd0,,,,,,,,,,,,,,,,,,,,,,,l,1,0.6168,"[""0.041"",""0.291"",""0.490"",""0.727""]","[1,1,0,1]",0,6,6,6,1,1,1,,,1,FALSE,,,,,,,,,,,,,,,,,,,,,,,,,,,,,,,
,6108015fd0cba9f9b02e6314,627c760022fbbce493a5371f,2022-05-12_03h50.51.903,classification_task,2021.2.3,Win32,59.97720866,627c6715c52fd12f31907bd0,,,,,,,,,,,,,,,,,,,,,,,a,1,0.6497,"[""0.182"",""0.411"",""0.677"",""0.906""]","[1,1,0,1]",0,7,7,7,1,0,1,,,1,FALSE,,,,,,,,,,,,,,,,,,,,,,,,,,,,,,,
,6108015fd0cba9f9b02e6314,627c760022fbbce493a5371f,2022-05-12_03h50.51.903,classification_task,2021.2.3,Win32,59.97720866,627c6715c52fd12f31907bd0,,,,,,,,,,,,,,,,,,,,,,,a,1,0.5497,"[""0.182"",""0.489"",""0.869"",""0.906""]","[1,0,1,1]",0,8,8,8,1,0,1,,,1,FALSE,,,,,,,,,,,,,,,,,,,,,,,,,,,,,,,
,6108015fd0cba9f9b02e6314,627c760022fbbce493a5371f,2022-05-12_03h50.51.903,classification_task,2021.2.3,Win32,59.97720866,627c6715c52fd12f31907bd0,,,,,,,,,,,,,,,,,,,,,,,a,1,0.6332,"[""0.677"",""0.411"",""0.869"",""0.906""]","[0,1,1,1]",0,9,9,9,1,0,1,,,1,FALSE,,,,,,,,,,,,,,,,,,,,,,,,,,,,,,,
,6108015fd0cba9f9b02e6314,627c760022fbbce493a5371f,2022-05-12_03h50.51.903,classification_task,2021.2.3,Win32,59.97720866,627c6715c52fd12f31907bd0,,,,,,,,,,,,,,,,,,,,,,,a,1,0.6957,"[""0.182"",""0.411"",""0.869"",""0.781""]","[1,1,1,0]",0,10,10,10,1,0,1,,,1,FALSE,,,,,,,,,,,,,,,,,,,,,,,,,,,,,,,
,6108015fd0cba9f9b02e6314,627c760022fbbce493a5371f,2022-05-12_03h50.51.903,classification_task,2021.2.3,Win32,59.97720866,627c6715c52fd12f31907bd0,,,,,,,,,,,,,,,,,,,,,,,l,1,0.6488,"[""0.041"",""0.291"",""0.525"",""0.452""]","[1,1,1,0]",0,11,11,11,1,1,1,,,1,FALSE,,,,,,,,,,,,,,,,,,,,,,,,,,,,,,,
,6108015fd0cba9f9b02e6314,627c760022fbbce493a5371f,2022-05-12_03h50.51.903,classification_task,2021.2.3,Win32,59.97720866,627c6715c52fd12f31907bd0,,,,,,,,,,,,,,,,,,,,,,,l,1,1.2789,"[""0.081"",""0.793"",""0.587"",""0.830""]","[1,0,1,1]",0,12,12,12,1,1,0,,,1,FALSE,,,,,,,,,,,,,,,,,,,,,,,,,,,,,,,
,6108015fd0cba9f9b02e6314,627c760022fbbce493a5371f,2022-05-12_03h50.51.903,classification_task,2021.2.3,Win32,59.97720866,627c6715c52fd12f31907bd0,,,,,,,,,,,,,,,,,,,,,,,a,1,0.7034,"[""0.220"",""0.476"",""0.636"",""0.952""]","[1,0,1,1]",0,13,13,13,1,0,0,,,1,FALSE,,,,,,,,,,,,,,,,,,,,,,,,,,,,,,,
,6108015fd0cba9f9b02e6314,627c760022fbbce493a5371f,2022-05-12_03h50.51.903,classification_task,2021.2.3,Win32,59.97720866,627c6715c52fd12f31907bd0,,,,,,,,,,,,,,,,,,,,,,,l,1,0.8831,"[""0.081"",""0.142"",""0.587"",""0.688""]","[1,1,1,0]",0,14,14,14,1,1,0,,,1,FALSE,,,,,,,,,,,,,,,,,,,,,,,,,,,,,,,
,6108015fd0cba9f9b02e6314,627c760022fbbce493a5371f,2022-05-12_03h50.51.903,classification_task,2021.2.3,Win32,59.97720866,627c6715c52fd12f31907bd0,,,,,,,,,,,,,,,,,,,,,,,l,1,0.6479,"[""0.081"",""0.142"",""0.489"",""0.830""]","[1,1,0,1]",0,15,15,15,1,1,0,,,1,FALSE,,,,,,,,,,,,,,,,,,,,,,,,,,,,,,,
,6108015fd0cba9f9b02e6314,627c760022fbbce493a5371f,2022-05-12_03h50.51.903,classification_task,2021.2.3,Win32,59.97720866,627c6715c52fd12f31907bd0,,,,,,,,,,,,,,,,,,,,,,,l,1,0.8849,"[""0.489"",""0.291"",""0.525"",""0.727""]","[0,1,1,1]",0,16,16,16,1,1,1,,,1,FALSE,,,,,,,,,,,,,,,,,,,,,,,,,,,,,,,
,6108015fd0cba9f9b02e6314,627c760022fbbce493a5371f,2022-05-12_03h50.51.903,classification_task,2021.2.3,Win32,59.97720866,627c6715c52fd12f31907bd0,,,,,,,,,,,,,,,,,,,,,,,l,1,0.9289,"[""0.452"",""0.142"",""0.587"",""0.830""]","[0,1,1,1]",0,17,17,17,1,1,0,,,1,FALSE,,,,,,,,,,,,,,,,,,,,,,,,,,,,,,,
,6108015fd0cba9f9b02e6314,627c760022fbbce493a5371f,2022-05-12_03h50.51.903,classification_task,2021.2.3,Win32,59.97720866,627c6715c52fd12f31907bd0,,,,,,,,,,,,,,,,,,,,,,,l,1,0.8376,"[""0.081"",""0.142"",""0.587"",""0.793""]","[1,1,1,0]",0,18,18,18,1,1,0,,,1,FALSE,,,,,,,,,,,,,,,,,,,,,,,,,,,,,,,
,6108015fd0cba9f9b02e6314,627c760022fbbce493a5371f,2022-05-12_03h50.51.903,classification_task,2021.2.3,Win32,59.97720866,627c6715c52fd12f31907bd0,,,,,,,,,,,,,,,,,,,,,,,l,1,0.746,"[""0.041"",""0.291"",""0.482"",""0.727""]","[1,1,0,1]",0,19,19,19,1,1,1,,,1,FALSE,,,,,,,,,,,,,,,,,,,,,,,,,,,,,,,
,6108015fd0cba9f9b02e6314,627c760022fbbce493a5371f,2022-05-12_03h50.51.903,classification_task,2021.2.3,Win32,59.97720866,627c6715c52fd12f31907bd0,,,,,,,,,,,,,,,,,,,,,,,a,1,0.6208,"[""0.182"",""0.411"",""0.489"",""0.906""]","[1,1,0,1]",0,20,20,20,1,0,1,,,1,FALSE,,,,,,,,,,,,,,,,,,,,,,,,,,,,,,,
,6108015fd0cba9f9b02e6314,627c760022fbbce493a5371f,2022-05-12_03h50.51.903,classification_task,2021.2.3,Win32,59.97720866,627c6715c52fd12f31907bd0,,,,,,,,,,,,,,,,,,,,,,,l,1,0.8623,"[""0.081"",""0.142"",""0.476"",""0.830""]","[1,1,0,1]",0,21,21,21,1,1,0,,,1,FALSE,,,,,,,,,,,,,,,,,,,,,,,,,,,,,,,
,6108015fd0cba9f9b02e6314,627c760022fbbce493a5371f,2022-05-12_03h50.51.903,classification_task,2021.2.3,Win32,59.97720866,627c6715c52fd12f31907bd0,,,,,,,,,,,,,,,,,,,,,,,l,0,1.1997,"[""0.452"",""0.359"",""0.636"",""0.952""]","[0,1,1,1]",0,22,22,22,1,0,0,,,1,FALSE,,,,,,,,,,,,,,,,,,,,,,,,,,,,,,,
,6108015fd0cba9f9b02e6314,627c760022fbbce493a5371f,2022-05-12_03h50.51.903,classification_task,2021.2.3,Win32,59.97720866,627c6715c52fd12f31907bd0,,,,,,,,,,,,,,,,,,,,,,,a,1,1.0499,"[""0.220"",""0.359"",""0.636"",""0.471""]","[1,1,1,0]",0,23,23,23,1,0,0,,,1,FALSE,,,,,,,,,,,,,,,,,,,,,,,,,,,,,,,
,6108015fd0cba9f9b02e6314,627c760022fbbce493a5371f,2022-05-12_03h50.51.903,classification_task,2021.2.3,Win32,59.97720866,627c6715c52fd12f31907bd0,,,,,,,,,,,,,,,,,,,,,,,l,1,0.6317,"[""0.041"",""0.291"",""0.525"",""0.452""]","[1,1,1,0]",0,24,24,24,1,1,1,,,1,FALSE,,,,,,,,,,,,,,,,,,,,,,,,,,,,,,,
,6108015fd0cba9f9b02e6314,627c760022fbbce493a5371f,2022-05-12_03h50.51.903,classification_task,2021.2.3,Win32,59.97720866,627c6715c52fd12f31907bd0,,,,,,,,,,,,,,,,,,,,,,,a,1,0.4664,"[""0.490"",""0.411"",""0.869"",""0.906""]","[0,1,1,1]",0,25,25,25,1,0,1,,,1,FALSE,,,,,,,,,,,,,,,,,,,,,,,,,,,,,,,
,6108015fd0cba9f9b02e6314,627c760022fbbce493a5371f,2022-05-12_03h50.51.903,classification_task,2021.2.3,Win32,59.97720866,627c6715c52fd12f31907bd0,,,,,,,,,,,,,,,,,,,,,,,a,1,0.6953,"[""0.182"",""0.781"",""0.869"",""0.906""]","[1,0,1,1]",0,26,26,26,1,0,1,,,1,FALSE,,,,,,,,,,,,,,,,,,,,,,,,,,,,,,,
,6108015fd0cba9f9b02e6314,627c760022fbbce493a5371f,2022-05-12_03h50.51.903,classification_task,2021.2.3,Win32,59.97720866,627c6715c52fd12f31907bd0,,,,,,,,,,,,,,,,,,,,,,,l,1,0.6374,"[""0.041"",""0.793"",""0.525"",""0.727""]","[1,0,1,1]",0,27,27,27,1,1,1,,,1,FALSE,,,,,,,,,,,,,,,,,,,,,,,,,,,,,,,
,6108015fd0cba9f9b02e6314,627c760022fbbce493a5371f,2022-05-12_03h50.51.903,classification_task,2021.2.3,Win32,59.97720866,627c6715c52fd12f31907bd0,,,,,,,,,,,,,,,,,,,,,,,a,1,0.9622,"[""0.220"",""0.359"",""0.452"",""0.952""]","[1,1,0,1]",0,28,28,28,1,0,0,,,1,FALSE,,,,,,,,,,,,,,,,,,,,,,,,,,,,,,,
,6108015fd0cba9f9b02e6314,627c760022fbbce493a5371f,2022-05-12_03h50.51.903,classification_task,2021.2.3,Win32,59.97720866,627c6715c52fd12f31907bd0,,,,,,,,,,,,,,,,,,,,,,,a,1,0.7541,"[""0.220"",""0.688"",""0.636"",""0.952""]","[1,0,1,1]",0,29,29,29,1,0,0,,,1,FALSE,,,,,,,,,,,,,,,,,,,,,,,,,,,,,,,
,6108015fd0cba9f9b02e6314,627c760022fbbce493a5371f,2022-05-12_03h50.51.903,classification_task,2021.2.3,Win32,59.97720866,627c6715c52fd12f31907bd0,,,,,,,,,,,,,,,,,,,,,,,a,1,1.4127,"[""0.182"",""0.411"",""0.869"",""0.476""]","[1,1,1,0]",0,30,30,30,1,0,1,,,1,FALSE,,,,,,,,,,,,,,,,,,,,,,,,,,,,,,,
,6108015fd0cba9f9b02e6314,627c760022fbbce493a5371f,2022-05-12_03h50.51.903,classification_task,2021.2.3,Win32,59.97720866,627c6715c52fd12f31907bd0,,,,,,,,,,,,,,,,,,,,,,,l,1,1.0792,"[""0.081"",""0.488"",""0.587"",""0.830""]","[1,0,1,1]",0,31,31,31,1,1,0,,,1,FALSE,,,,,,,,,,,,,,,,,,,,,,,,,,,,,,,
,6108015fd0cba9f9b02e6314,627c760022fbbce493a5371f,2022-05-12_03h50.51.903,classification_task,2021.2.3,Win32,59.97720866,627c6715c52fd12f31907bd0,,,,,,,,,,,,,,,,,,,,,,,l,1,0.7539,"[""0.041"",""0.291"",""0.770"",""0.727""]","[1,1,0,1]",0,32,32,32,1,1,1,,,1,FALSE,,,,,,,,,,,,,,,,,,,,,,,,,,,,,,,
,6108015fd0cba9f9b02e6314,627c760022fbbce493a5371f,2022-05-12_03h50.51.903,classification_task,2021.2.3,Win32,59.97720866,627c6715c52fd12f31907bd0,,,,,,,,,,,,,,,,,,,,,,,a,1,0.6295,"[""0.182"",""0.488"",""0.869"",""0.906""]","[1,0,1,1]",0,33,33,33,1,0,1,,,1,FALSE,,,,,,,,,,,,,,,,,,,,,,,,,,,,,,,
,6108015fd0cba9f9b02e6314,627c760022fbbce493a5371f,2022-05-12_03h50.51.903,classification_task,2021.2.3,Win32,59.97720866,627c6715c52fd12f31907bd0,,,,,,,,,,,,,,,,,,,,,,,l,1,0.6699,"[""0.488"",""0.291"",""0.525"",""0.727""]","[0,1,1,1]",0,34,34,34,1,1,1,,,1,FALSE,,,,,,,,,,,,,,,,,,,,,,,,,,,,,,,
,6108015fd0cba9f9b02e6314,627c760022fbbce493a5371f,2022-05-12_03h50.51.903,classification_task,2021.2.3,Win32,59.97720866,627c6715c52fd12f31907bd0,,,,,,,,,,,,,,,,,,,,,,,a,1,0.9623,"[""0.220"",""0.359"",""0.636"",""0.490""]","[1,1,1,0]",0,35,35,35,1,0,0,,,1,FALSE,,,,,,,,,,,,,,,,,,,,,,,,,,,,,,,
,6108015fd0cba9f9b02e6314,627c760022fbbce493a5371f,2022-05-12_03h50.51.903,classification_task,2021.2.3,Win32,59.97720866,627c6715c52fd12f31907bd0,,,,,,,,,,,,,,,,,,,,,,,l,1,0.8498,"[""0.081"",""0.142"",""0.452"",""0.830""]","[1,1,0,1]",0,36,36,36,1,1,0,,,1,FALSE,,,,,,,,,,,,,,,,,,,,,,,,,,,,,,,
,6108015fd0cba9f9b02e6314,627c760022fbbce493a5371f,2022-05-12_03h50.51.903,classification_task,2021.2.3,Win32,59.97720866,627c6715c52fd12f31907bd0,,,,,,,,,,,,,,,,,,,,,,,a,1,1.1878,"[""0.490"",""0.359"",""0.636"",""0.952""]","[0,1,1,1]",0,37,37,37,1,0,0,,,1,FALSE,,,,,,,,,,,,,,,,,,,,,,,,,,,,,,,
,6108015fd0cba9f9b02e6314,627c760022fbbce493a5371f,2022-05-12_03h50.51.903,classification_task,2021.2.3,Win32,59.97720866,627c6715c52fd12f31907bd0,,,,,,,,,,,,,,,,,,,,,,,a,1,0.8163,"[""0.490"",""0.411"",""0.869"",""0.906""]","[0,1,1,1]",0,38,38,38,1,0,1,,,1,FALSE,,,,,,,,,,,,,,,,,,,,,,,,,,,,,,,
,6108015fd0cba9f9b02e6314,627c760022fbbce493a5371f,2022-05-12_03h50.51.903,classification_task,2021.2.3,Win32,59.97720866,627c6715c52fd12f31907bd0,,,,,,,,,,,,,,,,,,,,,,,a,1,0.5833,"[""0.182"",""0.411"",""0.482"",""0.906""]","[1,1,0,1]",0,39,39,39,1,0,1,,,1,FALSE,,,,,,,,,,,,,,,,,,,,,,,,,,,,,,,
,6108015fd0cba9f9b02e6314,627c760022fbbce493a5371f,2022-05-12_03h50.51.903,classification_task,2021.2.3,Win32,59.97720866,627c6715c52fd12f31907bd0,,,,,,,,,,,,,,,,,,,,,,,l,1,1.0713,"[""0.081"",""0.142"",""0.587"",""0.489""]","[1,1,1,0]",0,40,40,40,1,1,0,,,1,FALSE,,,,,,,,,,,,,,,,,,,,,,,,,,,,,,,
,6108015fd0cba9f9b02e6314,627c760022fbbce493a5371f,2022-05-12_03h50.51.903,classification_task,2021.2.3,Win32,59.97720866,627c6715c52fd12f31907bd0,,,,,,,,,,,,,,,,,,,,,,,l,1,1.4121,"[""0.452"",""0.142"",""0.587"",""0.830""]","[0,1,1,1]",0,41,41,41,1,1,0,,,1,FALSE,,,,,,,,,,,,,,,,,,,,,,,,,,,,,,,
,6108015fd0cba9f9b02e6314,627c760022fbbce493a5371f,2022-05-12_03h50.51.903,classification_task,2021.2.3,Win32,59.97720866,627c6715c52fd12f31907bd0,,,,,,,,,,,,,,,,,,,,,,,l,1,1.0122,"[""0.081"",""0.688"",""0.587"",""0.830""]","[1,0,1,1]",0,42,42,42,1,1,0,,,1,FALSE,,,,,,,,,,,,,,,,,,,,,,,,,,,,,,,
,6108015fd0cba9f9b02e6314,627c760022fbbce493a5371f,2022-05-12_03h50.51.903,classification_task,2021.2.3,Win32,59.97720866,627c6715c52fd12f31907bd0,,,,,,,,,,,,,,,,,,,,,,,l,1,0.6374,"[""0.041"",""0.452"",""0.525"",""0.727""]","[1,0,1,1]",0,43,43,43,1,1,1,,,1,FALSE,,,,,,,,,,,,,,,,,,,,,,,,,,,,,,,
,6108015fd0cba9f9b02e6314,627c760022fbbce493a5371f,2022-05-12_03h50.51.903,classification_task,2021.2.3,Win32,59.97720866,627c6715c52fd12f31907bd0,,,,,,,,,,,,,,,,,,,,,,,l,1,0.595,"[""0.041"",""0.291"",""0.525"",""0.490""]","[1,1,1,0]",0,44,44,44,1,1,1,,,1,FALSE,,,,,,,,,,,,,,,,,,,,,,,,,,,,,,,
,6108015fd0cba9f9b02e6314,627c760022fbbce493a5371f,2022-05-12_03h50.51.903,classification_task,2021.2.3,Win32,59.97720866,627c6715c52fd12f31907bd0,,,,,,,,,,,,,,,,,,,,,,,a,1,0.6709,"[""0.182"",""0.411"",""0.869"",""0.486""]","[1,1,1,0]",0,45,45,45,1,0,1,,,1,FALSE,,,,,,,,,,,,,,,,,,,,,,,,,,,,,,,
,6108015fd0cba9f9b02e6314,627c760022fbbce493a5371f,2022-05-12_03h50.51.903,classification_task,2021.2.3,Win32,59.97720866,627c6715c52fd12f31907bd0,,,,,,,,,,,,,,,,,,,,,,,a,1,1.0621,"[""0.220"",""0.359"",""0.471"",""0.952""]","[1,1,0,1]",0,46,46,46,1,0,0,,,1,FALSE,,,,,,,,,,,,,,,,,,,,,,,,,,,,,,,
,6108015fd0cba9f9b02e6314,627c760022fbbce493a5371f,2022-05-12_03h50.51.903,classification_task,2021.2.3,Win32,59.97720866,627c6715c52fd12f31907bd0,,,,,,,,,,,,,,,,,,,,,,,a,1,0.8209,"[""0.220"",""0.476"",""0.636"",""0.952""]","[1,0,1,1]",0,47,47,47,1,0,0,,,1,FALSE,,,,,,,,,,,,,,,,,,,,,,,,,,,,,,,
,6108015fd0cba9f9b02e6314,627c760022fbbce493a5371f,2022-05-12_03h50.51.903,classification_task,2021.2.3,Win32,59.97720866,627c6715c52fd12f31907bd0,,,,,,,,,,,,,,,,,,,,,,,a,1,0.7153,"[""0.182"",""0.411"",""0.869"",""0.452""]","[1,1,1,0]",0,48,48,48,1,0,1,,,1,FALSE,,,,,,,,,,,,,,,,,,,,,,,,,,,,,,,
,6108015fd0cba9f9b02e6314,627c760022fbbce493a5371f,2022-05-12_03h50.51.903,classification_task,2021.2.3,Win32,59.97720866,627c6715c52fd12f31907bd0,,,,,,,,,,,,,,,,,,,,,,,l,1,0.9292,"[""0.081"",""0.488"",""0.587"",""0.830""]","[1,0,1,1]",0,49,49,49,1,1,0,,,1,FALSE,,,,,,,,,,,,,,,,,,,,,,,,,,,,,,,
,6108015fd0cba9f9b02e6314,627c760022fbbce493a5371f,2022-05-12_03h50.51.903,classification_task,2021.2.3,Win32,59.97720866,627c6715c52fd12f31907bd0,,,,,,,,,,,,,,,,,,,,,,,a,1,0.654,"[""0.220"",""0.489"",""0.636"",""0.952""]","[1,0,1,1]",0,50,50,50,1,0,0,,,1,FALSE,,,,,,,,,,,,,,,,,,,,,,,,,,,,,,,
,6108015fd0cba9f9b02e6314,627c760022fbbce493a5371f,2022-05-12_03h50.51.903,classification_task,2021.2.3,Win32,59.97720866,627c6715c52fd12f31907bd0,,,,,,,,,,,,,,,,,,,,,,,l,1,0.7959,"[""0.081"",""0.142"",""0.476"",""0.830""]","[1,1,0,1]",0,51,51,51,1,1,0,,,1,FALSE,,,,,,,,,,,,,,,,,,,,,,,,,,,,,,,
,6108015fd0cba9f9b02e6314,627c760022fbbce493a5371f,2022-05-12_03h50.51.903,classification_task,2021.2.3,Win32,59.97720866,627c6715c52fd12f31907bd0,,,,,,,,,,,,,,,,,,,,,,,l,1,0.6707,"[""0.041"",""0.482"",""0.525"",""0.727""]","[1,0,1,1]",0,52,52,52,1,1,1,,,1,FALSE,,,,,,,,,,,,,,,,,,,,,,,,,,,,,,,
,6108015fd0cba9f9b02e6314,627c760022fbbce493a5371f,2022-05-12_03h50.51.903,classification_task,2021.2.3,Win32,59.97720866,627c6715c52fd12f31907bd0,,,,,,,,,,,,,,,,,,,,,,,a,1,1.0955,"[""0.220"",""0.359"",""0.688"",""0.952""]","[1,1,0,1]",0,53,53,53,1,0,0,,,1,FALSE,,,,,,,,,,,,,,,,,,,,,,,,,,,,,,,
,6108015fd0cba9f9b02e6314,627c760022fbbce493a5371f,2022-05-12_03h50.51.903,classification_task,2021.2.3,Win32,59.97720866,627c6715c52fd12f31907bd0,,,,,,,,,,,,,,,,,,,,,,,l,1,0.6666,"[""0.041"",""0.291"",""0.452"",""0.727""]","[1,1,0,1]",0,54,54,54,1,1,1,,,1,FALSE,,,,,,,,,,,,,,,,,,,,,,,,,,,,,,,
,6108015fd0cba9f9b02e6314,627c760022fbbce493a5371f,2022-05-12_03h50.51.903,classification_task,2021.2.3,Win32,59.97720866,627c6715c52fd12f31907bd0,,,,,,,,,,,,,,,,,,,,,,,a,1,0.8879,"[""0.220"",""0.359"",""0.636"",""0.770""]","[1,1,1,0]",0,55,55,55,1,0,0,,,1,FALSE,,,,,,,,,,,,,,,,,,,,,,,,,,,,,,,
,6108015fd0cba9f9b02e6314,627c760022fbbce493a5371f,2022-05-12_03h50.51.903,classification_task,2021.2.3,Win32,59.97720866,627c6715c52fd12f31907bd0,,,,,,,,,,,,,,,,,,,,,,,a,1,0.7163,"[""0.482"",""0.411"",""0.869"",""0.906""]","[0,1,1,1]",0,56,56,56,1,0,1,,,1,FALSE,,,,,,,,,,,,,,,,,,,,,,,,,,,,,,,
,6108015fd0cba9f9b02e6314,627c760022fbbce493a5371f,2022-05-12_03h50.51.903,classification_task,2021.2.3,Win32,59.97720866,627c6715c52fd12f31907bd0,,,,,,,,,,,,,,,,,,,,,,,l,1,0.8498,"[""0.081"",""0.142"",""0.587"",""0.490""]","[1,1,1,0]",0,57,57,57,1,1,0,,,1,FALSE,,,,,,,,,,,,,,,,,,,,,,,,,,,,,,,
,6108015fd0cba9f9b02e6314,627c760022fbbce493a5371f,2022-05-12_03h50.51.903,classification_task,2021.2.3,Win32,59.97720866,627c6715c52fd12f31907bd0,,,,,,,,,,,,,,,,,,,,,,,a,1,0.7122,"[""0.182"",""0.452"",""0.869"",""0.906""]","[1,0,1,1]",0,58,58,58,1,0,1,,,1,FALSE,,,,,,,,,,,,,,,,,,,,,,,,,,,,,,,
,6108015fd0cba9f9b02e6314,627c760022fbbce493a5371f,2022-05-12_03h50.51.903,classification_task,2021.2.3,Win32,59.97720866,627c6715c52fd12f31907bd0,,,,,,,,,,,,,,,,,,,,,,,l,0,0.699,"[""0.490"",""0.359"",""0.636"",""0.952""]","[0,1,1,1]",0,59,59,59,1,0,0,,,1,FALSE,,,,,,,,,,,,,,,,,,,,,,,,,,,,,,,
,6108015fd0cba9f9b02e6314,627c760022fbbce493a5371f,2022-05-12_03h50.51.903,classification_task,2021.2.3,Win32,59.97720866,627c6715c52fd12f31907bd0,,,,,,,,,,,,,,,,,,,,,,,a,1,0.8956,"[""0.182"",""0.411"",""0.489"",""0.906""]","[1,1,0,1]",0,60,60,60,1,0,1,,,1,FALSE,,,,,,,,,,,,,,,,,,,,,,,,,,,,,,,
,6108015fd0cba9f9b02e6314,627c760022fbbce493a5371f,2022-05-12_03h50.51.903,classification_task,2021.2.3,Win32,59.97720866,627c6715c52fd12f31907bd0,,,,,,,,,,,,,,,,,,,,,,,l,1,0.6332,"[""0.041"",""0.291"",""0.525"",""0.482""]","[1,1,1,0]",0,61,61,61,1,1,1,,,1,FALSE,,,,,,,,,,,,,,,,,,,,,,,,,,,,,,,
,6108015fd0cba9f9b02e6314,627c760022fbbce493a5371f,2022-05-12_03h50.51.903,classification_task,2021.2.3,Win32,59.97720866,627c6715c52fd12f31907bd0,,,,,,,,,,,,,,,,,,,,,,,l,1,0.9626,"[""0.471"",""0.291"",""0.525"",""0.727""]","[0,1,1,1]",0,62,62,62,1,1,1,,,1,FALSE,,,,,,,,,,,,,,,,,,,,,,,,,,,,,,,
,6108015fd0cba9f9b02e6314,627c760022fbbce493a5371f,2022-05-12_03h50.51.903,classification_task,2021.2.3,Win32,59.97720866,627c6715c52fd12f31907bd0,,,,,,,,,,,,,,,,,,,,,,,l,1,0.8872,"[""0.793"",""0.142"",""0.587"",""0.830""]","[0,1,1,1]",0,63,63,63,1,1,0,,,1,FALSE,,,,,,,,,,,,,,,,,,,,,,,,,,,,,,,
,6108015fd0cba9f9b02e6314,627c760022fbbce493a5371f,2022-05-12_03h50.51.903,classification_task,2021.2.3,Win32,59.97720866,627c6715c52fd12f31907bd0,,,,,,,,,,,,,,,,,,,,,,,,,,,,,,,,,,,,,,,0, ,,0,0,138.9804,0,1,1,1,1,2,2,,,,,,,,,,,,,,,,,,
,6108015fd0cba9f9b02e6314,627c760022fbbce493a5371f,2022-05-12_03h50.51.903,classification_task,2021.2.3,Win32,59.97720866,627c6715c52fd12f31907bd0,,,,,,,,,,,,,,,,,,,,,,,,,,,,,,,,,,,,,,,1,  ,,0,0.443856555,149.413,0,1,1,1,1,2,2,,,,,,,,,,,,,,,,,,
,6108015fd0cba9f9b02e6314,627c760022fbbce493a5371f,2022-05-12_03h50.51.903,classification_task,2021.2.3,Win32,59.97720866,627c6715c52fd12f31907bd0,,,,,,,,,,,,,,,,,,,,,,,,,,,,,,,,,,,,,,,2,  ,,0,5.355183973,153.3794,0,1,1,1,1,2,2,,,,,,,,,,,,,,,,,,
,6108015fd0cba9f9b02e6314,627c760022fbbce493a5371f,2022-05-12_03h50.51.903,classification_task,2021.2.3,Win32,59.97720866,627c6715c52fd12f31907bd0,,,,,,,,,,,,,,,,,,,,,,,,,,,,,,,,,,,,,,,,,,,,,0,1,1,1,1,,2,,,,,,,,,,,,,,,,,,
,6108015fd0cba9f9b02e6314,627c760022fbbce493a5371f,2022-05-12_03h50.51.903,classification_task,2021.2.3,Win32,59.97720866,627c6715c52fd12f31907bd0,,,,,,,,,,,,,,,,,,,,,space,7.2331,a,1,1.5457,"[""0.688"",""0.359"",""0.636"",""0.952""]","[0,1,1,1]",0,0,0,0,1,0,0,,,1,FALSE,,,,,,,,,,,,,,,,,,,,,,,,,,,,,,,
,6108015fd0cba9f9b02e6314,627c760022fbbce493a5371f,2022-05-12_03h50.51.903,classification_task,2021.2.3,Win32,59.97720866,627c6715c52fd12f31907bd0,,,,,,,,,,,,,,,,,,,,,,,l,1,0.8333,"[""0.081"",""0.142"",""0.587"",""0.476""]","[1,1,1,0]",0,1,1,1,1,1,0,,,1,FALSE,,,,,,,,,,,,,,,,,,,,,,,,,,,,,,,
,6108015fd0cba9f9b02e6314,627c760022fbbce493a5371f,2022-05-12_03h50.51.903,classification_task,2021.2.3,Win32,59.97720866,627c6715c52fd12f31907bd0,,,,,,,,,,,,,,,,,,,,,,,l,0,2.0668,"[""0.182"",""0.411"",""0.869"",""0.688""]","[1,1,1,0]",0,2,2,2,1,0,1,,,1,FALSE,,,,,,,,,,,,,,,,,,,,,,,,,,,,,,,
,6108015fd0cba9f9b02e6314,627c760022fbbce493a5371f,2022-05-12_03h50.51.903,classification_task,2021.2.3,Win32,59.97720866,627c6715c52fd12f31907bd0,,,,,,,,,,,,,,,,,,,,,,,l,0,1.3501,"[""0.182"",""0.781"",""0.869"",""0.906""]","[1,0,1,1]",0,3,3,3,1,0,1,,,1,FALSE,,,,,,,,,,,,,,,,,,,,,,,,,,,,,,,
,6108015fd0cba9f9b02e6314,627c760022fbbce493a5371f,2022-05-12_03h50.51.903,classification_task,2021.2.3,Win32,59.97720866,627c6715c52fd12f31907bd0,,,,,,,,,,,,,,,,,,,,,,,l,1,0.9498,"[""0.081"",""0.142"",""0.677"",""0.830""]","[1,1,0,1]",0,4,4,4,1,1,0,,,1,FALSE,,,,,,,,,,,,,,,,,,,,,,,,,,,,,,,
,6108015fd0cba9f9b02e6314,627c760022fbbce493a5371f,2022-05-12_03h50.51.903,classification_task,2021.2.3,Win32,59.97720866,627c6715c52fd12f31907bd0,,,,,,,,,,,,,,,,,,,,,,,a,1,0.8544,"[""0.220"",""0.488"",""0.636"",""0.952""]","[1,0,1,1]",0,5,5,5,1,0,0,,,1,FALSE,,,,,,,,,,,,,,,,,,,,,,,,,,,,,,,
,6108015fd0cba9f9b02e6314,627c760022fbbce493a5371f,2022-05-12_03h50.51.903,classification_task,2021.2.3,Win32,59.97720866,627c6715c52fd12f31907bd0,,,,,,,,,,,,,,,,,,,,,,,a,1,1.1789,"[""0.182"",""0.411"",""0.490"",""0.906""]","[1,1,0,1]",0,6,6,6,1,0,1,,,1,FALSE,,,,,,,,,,,,,,,,,,,,,,,,,,,,,,,
,6108015fd0cba9f9b02e6314,627c760022fbbce493a5371f,2022-05-12_03h50.51.903,classification_task,2021.2.3,Win32,59.97720866,627c6715c52fd12f31907bd0,,,,,,,,,,,,,,,,,,,,,,,l,1,1.4333,"[""0.490"",""0.291"",""0.525"",""0.727""]","[0,1,1,1]",0,7,7,7,1,1,1,,,1,FALSE,,,,,,,,,,,,,,,,,,,,,,,,,,,,,,,
,6108015fd0cba9f9b02e6314,627c760022fbbce493a5371f,2022-05-12_03h50.51.903,classification_task,2021.2.3,Win32,59.97720866,627c6715c52fd12f31907bd0,,,,,,,,,,,,,,,,,,,,,,,a,1,0.9822,"[""0.220"",""0.359"",""0.490"",""0.952""]","[1,1,0,1]",0,8,8,8,1,0,0,,,1,FALSE,,,,,,,,,,,,,,,,,,,,,,,,,,,,,,,
,6108015fd0cba9f9b02e6314,627c760022fbbce493a5371f,2022-05-12_03h50.51.903,classification_task,2021.2.3,Win32,59.97720866,627c6715c52fd12f31907bd0,,,,,,,,,,,,,,,,,,,,,,,l,1,0.9378,"[""0.081"",""0.770"",""0.587"",""0.830""]","[1,0,1,1]",0,9,9,9,1,1,0,,,1,FALSE,,,,,,,,,,,,,,,,,,,,,,,,,,,,,,,
,6108015fd0cba9f9b02e6314,627c760022fbbce493a5371f,2022-05-12_03h50.51.903,classification_task,2021.2.3,Win32,59.97720866,627c6715c52fd12f31907bd0,,,,,,,,,,,,,,,,,,,,,,,l,1,1.0456,"[""0.688"",""0.142"",""0.587"",""0.830""]","[0,1,1,1]",0,10,10,10,1,1,0,,,1,FALSE,,,,,,,,,,,,,,,,,,,,,,,,,,,,,,,
,6108015fd0cba9f9b02e6314,627c760022fbbce493a5371f,2022-05-12_03h50.51.903,classification_task,2021.2.3,Win32,59.97720866,627c6715c52fd12f31907bd0,,,,,,,,,,,,,,,,,,,,,,,l,1,1.1332,"[""0.041"",""0.452"",""0.525"",""0.727""]","[1,0,1,1]",0,11,11,11,1,1,1,,,1,FALSE,,,,,,,,,,,,,,,,,,,,,,,,,,,,,,,
,6108015fd0cba9f9b02e6314,627c760022fbbce493a5371f,2022-05-12_03h50.51.903,classification_task,2021.2.3,Win32,59.97720866,627c6715c52fd12f31907bd0,,,,,,,,,,,,,,,,,,,,,,,l,0,1.4675,"[""0.452"",""0.411"",""0.869"",""0.906""]","[0,1,1,1]",0,12,12,12,1,0,1,,,1,FALSE,,,,,,,,,,,,,,,,,,,,,,,,,,,,,,,
,6108015fd0cba9f9b02e6314,627c760022fbbce493a5371f,2022-05-12_03h50.51.903,classification_task,2021.2.3,Win32,59.97720866,627c6715c52fd12f31907bd0,,,,,,,,,,,,,,,,,,,,,,,l,1,1.1041,"[""0.041"",""0.291"",""0.482"",""0.727""]","[1,1,0,1]",0,13,13,13,1,1,1,,,1,FALSE,,,,,,,,,,,,,,,,,,,,,,,,,,,,,,,
,6108015fd0cba9f9b02e6314,627c760022fbbce493a5371f,2022-05-12_03h50.51.903,classification_task,2021.2.3,Win32,59.97720866,627c6715c52fd12f31907bd0,,,,,,,,,,,,,,,,,,,,,,,a,1,1.0624,"[""0.220"",""0.359"",""0.636"",""0.482""]","[1,1,1,0]",0,14,14,14,1,0,0,,,1,FALSE,,,,,,,,,,,,,,,,,,,,,,,,,,,,,,,
,6108015fd0cba9f9b02e6314,627c760022fbbce493a5371f,2022-05-12_03h50.51.903,classification_task,2021.2.3,Win32,59.97720866,627c6715c52fd12f31907bd0,,,,,,,,,,,,,,,,,,,,,,,l,1,1.0498,"[""0.041"",""0.291"",""0.525"",""0.490""]","[1,1,1,0]",0,15,15,15,1,1,1,,,1,FALSE,,,,,,,,,,,,,,,,,,,,,,,,,,,,,,,
,6108015fd0cba9f9b02e6314,627c760022fbbce493a5371f,2022-05-12_03h50.51.903,classification_task,2021.2.3,Win32,59.97720866,627c6715c52fd12f31907bd0,,,,,,,,,,,,,,,,,,,,,,,a,1,0.7376,"[""0.220"",""0.359"",""0.770"",""0.952""]","[1,1,0,1]",0,16,16,16,1,0,0,,,1,FALSE,,,,,,,,,,,,,,,,,,,,,,,,,,,,,,,
,6108015fd0cba9f9b02e6314,627c760022fbbce493a5371f,2022-05-12_03h50.51.903,classification_task,2021.2.3,Win32,59.97720866,627c6715c52fd12f31907bd0,,,,,,,,,,,,,,,,,,,,,,,a,1,1.2625,"[""0.488"",""0.359"",""0.636"",""0.952""]","[0,1,1,1]",0,17,17,17,1,0,0,,,1,FALSE,,,,,,,,,,,,,,,,,,,,,,,,,,,,,,,
,6108015fd0cba9f9b02e6314,627c760022fbbce493a5371f,2022-05-12_03h50.51.903,classification_task,2021.2.3,Win32,59.97720866,627c6715c52fd12f31907bd0,,,,,,,,,,,,,,,,,,,,,,,l,1,1.0001,"[""0.041"",""0.291"",""0.486"",""0.727""]","[1,1,0,1]",0,18,18,18,1,1,1,,,1,FALSE,,,,,,,,,,,,,,,,,,,,,,,,,,,,,,,
,6108015fd0cba9f9b02e6314,627c760022fbbce493a5371f,2022-05-12_03h50.51.903,classification_task,2021.2.3,Win32,59.97720866,627c6715c52fd12f31907bd0,,,,,,,,,,,,,,,,,,,,,,,l,1,1.5332,"[""0.081"",""0.142"",""0.587"",""0.781""]","[1,1,1,0]",0,19,19,19,1,1,0,,,1,FALSE,,,,,,,,,,,,,,,,,,,,,,,,,,,,,,,
,6108015fd0cba9f9b02e6314,627c760022fbbce493a5371f,2022-05-12_03h50.51.903,classification_task,2021.2.3,Win32,59.97720866,627c6715c52fd12f31907bd0,,,,,,,,,,,,,,,,,,,,,,,l,0,2.954,"[""0.490"",""0.411"",""0.869"",""0.906""]","[0,1,1,1]",0,20,20,20,1,0,1,,,1,FALSE,,,,,,,,,,,,,,,,,,,,,,,,,,,,,,,
,6108015fd0cba9f9b02e6314,627c760022fbbce493a5371f,2022-05-12_03h50.51.903,classification_task,2021.2.3,Win32,59.97720866,627c6715c52fd12f31907bd0,,,,,,,,,,,,,,,,,,,,,,,a,0,1.0624,"[""0.770"",""0.291"",""0.525"",""0.727""]","[0,1,1,1]",0,21,21,21,1,1,1,,,1,FALSE,,,,,,,,,,,,,,,,,,,,,,,,,,,,,,,
,6108015fd0cba9f9b02e6314,627c760022fbbce493a5371f,2022-05-12_03h50.51.903,classification_task,2021.2.3,Win32,59.97720866,627c6715c52fd12f31907bd0,,,,,,,,,,,,,,,,,,,,,,,a,1,0.5538,"[""0.220"",""0.471"",""0.636"",""0.952""]","[1,0,1,1]",0,22,22,22,1,0,0,,,1,FALSE,,,,,,,,,,,,,,,,,,,,,,,,,,,,,,,
,6108015fd0cba9f9b02e6314,627c760022fbbce493a5371f,2022-05-12_03h50.51.903,classification_task,2021.2.3,Win32,59.97720866,627c6715c52fd12f31907bd0,,,,,,,,,,,,,,,,,,,,,,,l,1,0.946,"[""0.041"",""0.677"",""0.525"",""0.727""]","[1,0,1,1]",0,23,23,23,1,1,1,,,1,FALSE,,,,,,,,,,,,,,,,,,,,,,,,,,,,,,,
,6108015fd0cba9f9b02e6314,627c760022fbbce493a5371f,2022-05-12_03h50.51.903,classification_task,2021.2.3,Win32,59.97720866,627c6715c52fd12f31907bd0,,,,,,,,,,,,,,,,,,,,,,,a,1,1.3,"[""0.182"",""0.411"",""0.869"",""0.781""]","[1,1,1,0]",0,24,24,24,1,0,1,,,1,FALSE,,,,,,,,,,,,,,,,,,,,,,,,,,,,,,,
,6108015fd0cba9f9b02e6314,627c760022fbbce493a5371f,2022-05-12_03h50.51.903,classification_task,2021.2.3,Win32,59.97720866,627c6715c52fd12f31907bd0,,,,,,,,,,,,,,,,,,,,,,,l,1,0.92,"[""0.041"",""0.291"",""0.525"",""0.490""]","[1,1,1,0]",0,25,25,25,1,1,1,,,1,FALSE,,,,,,,,,,,,,,,,,,,,,,,,,,,,,,,
,6108015fd0cba9f9b02e6314,627c760022fbbce493a5371f,2022-05-12_03h50.51.903,classification_task,2021.2.3,Win32,59.97720866,627c6715c52fd12f31907bd0,,,,,,,,,,,,,,,,,,,,,,,l,1,0.9122,"[""0.081"",""0.142"",""0.489"",""0.830""]","[1,1,0,1]",0,26,26,26,1,1,0,,,1,FALSE,,,,,,,,,,,,,,,,,,,,,,,,,,,,,,,
,6108015fd0cba9f9b02e6314,627c760022fbbce493a5371f,2022-05-12_03h50.51.903,classification_task,2021.2.3,Win32,59.97720866,627c6715c52fd12f31907bd0,,,,,,,,,,,,,,,,,,,,,,,l,0,1.5668,"[""0.182"",""0.770"",""0.869"",""0.906""]","[1,0,1,1]",0,27,27,27,1,0,1,,,1,FALSE,,,,,,,,,,,,,,,,,,,,,,,,,,,,,,,
,6108015fd0cba9f9b02e6314,627c760022fbbce493a5371f,2022-05-12_03h50.51.903,classification_task,2021.2.3,Win32,59.97720866,627c6715c52fd12f31907bd0,,,,,,,,,,,,,,,,,,,,,,,l,1,1.0329,"[""0.489"",""0.142"",""0.587"",""0.830""]","[0,1,1,1]",0,28,28,28,1,1,0,,,1,FALSE,,,,,,,,,,,,,,,,,,,,,,,,,,,,,,,
,6108015fd0cba9f9b02e6314,627c760022fbbce493a5371f,2022-05-12_03h50.51.903,classification_task,2021.2.3,Win32,59.97720866,627c6715c52fd12f31907bd0,,,,,,,,,,,,,,,,,,,,,,,a,1,1.5333,"[""0.182"",""0.411"",""0.688"",""0.906""]","[1,1,0,1]",0,29,29,29,1,0,1,,,1,FALSE,,,,,,,,,,,,,,,,,,,,,,,,,,,,,,,
,6108015fd0cba9f9b02e6314,627c760022fbbce493a5371f,2022-05-12_03h50.51.903,classification_task,2021.2.3,Win32,59.97720866,627c6715c52fd12f31907bd0,,,,,,,,,,,,,,,,,,,,,,,a,1,0.7546,"[""0.220"",""0.359"",""0.636"",""0.452""]","[1,1,1,0]",0,30,30,30,1,0,0,,,1,FALSE,,,,,,,,,,,,,,,,,,,,,,,,,,,,,,,
,6108015fd0cba9f9b02e6314,627c760022fbbce493a5371f,2022-05-12_03h50.51.903,classification_task,2021.2.3,Win32,59.97720866,627c6715c52fd12f31907bd0,,,,,,,,,,,,,,,,,,,,,,,l,1,0.6483,"[""0.081"",""0.488"",""0.587"",""0.830""]","[1,0,1,1]",0,31,31,31,1,1,0,,,1,FALSE,,,,,,,,,,,,,,,,,,,,,,,,,,,,,,,
,6108015fd0cba9f9b02e6314,627c760022fbbce493a5371f,2022-05-12_03h50.51.903,classification_task,2021.2.3,Win32,59.97720866,627c6715c52fd12f31907bd0,,,,,,,,,,,,,,,,,,,,,,,l,1,2.1956,"[""0.081"",""0.142"",""0.452"",""0.830""]","[1,1,0,1]",0,32,32,32,1,1,0,,,1,FALSE,,,,,,,,,,,,,,,,,,,,,,,,,,,,,,,
,6108015fd0cba9f9b02e6314,627c760022fbbce493a5371f,2022-05-12_03h50.51.903,classification_task,2021.2.3,Win32,59.97720866,627c6715c52fd12f31907bd0,,,,,,,,,,,,,,,,,,,,,,,a,0,1.1627,"[""0.471"",""0.291"",""0.525"",""0.727""]","[0,1,1,1]",0,33,33,33,1,1,1,,,1,FALSE,,,,,,,,,,,,,,,,,,,,,,,,,,,,,,,
,6108015fd0cba9f9b02e6314,627c760022fbbce493a5371f,2022-05-12_03h50.51.903,classification_task,2021.2.3,Win32,59.97720866,627c6715c52fd12f31907bd0,,,,,,,,,,,,,,,,,,,,,,,a,1,1.0373,"[""0.182"",""0.411"",""0.490"",""0.906""]","[1,1,0,1]",0,34,34,34,1,0,1,,,1,FALSE,,,,,,,,,,,,,,,,,,,,,,,,,,,,,,,
,6108015fd0cba9f9b02e6314,627c760022fbbce493a5371f,2022-05-12_03h50.51.903,classification_task,2021.2.3,Win32,59.97720866,627c6715c52fd12f31907bd0,,,,,,,,,,,,,,,,,,,,,,,a,1,0.9874,"[""0.220"",""0.489"",""0.636"",""0.952""]","[1,0,1,1]",0,35,35,35,1,0,0,,,1,FALSE,,,,,,,,,,,,,,,,,,,,,,,,,,,,,,,
,6108015fd0cba9f9b02e6314,627c760022fbbce493a5371f,2022-05-12_03h50.51.903,classification_task,2021.2.3,Win32,59.97720866,627c6715c52fd12f31907bd0,,,,,,,,,,,,,,,,,,,,,,,l,0,1.4957,"[""0.182"",""0.490"",""0.869"",""0.906""]","[1,0,1,1]",0,36,36,36,1,0,1,,,1,FALSE,,,,,,,,,,,,,,,,,,,,,,,,,,,,,,,
,6108015fd0cba9f9b02e6314,627c760022fbbce493a5371f,2022-05-12_03h50.51.903,classification_task,2021.2.3,Win32,59.97720866,627c6715c52fd12f31907bd0,,,,,,,,,,,,,,,,,,,,,,,l,1,0.9668,"[""0.041"",""0.471"",""0.525"",""0.727""]","[1,0,1,1]",0,37,37,37,1,1,1,,,1,FALSE,,,,,,,,,,,,,,,,,,,,,,,,,,,,,,,
,6108015fd0cba9f9b02e6314,627c760022fbbce493a5371f,2022-05-12_03h50.51.903,classification_task,2021.2.3,Win32,59.97720866,627c6715c52fd12f31907bd0,,,,,,,,,,,,,,,,,,,,,,,l,1,1.1043,"[""0.793"",""0.142"",""0.587"",""0.830""]","[0,1,1,1]",0,38,38,38,1,1,0,,,1,FALSE,,,,,,,,,,,,,,,,,,,,,,,,,,,,,,,
,6108015fd0cba9f9b02e6314,627c760022fbbce493a5371f,2022-05-12_03h50.51.903,classification_task,2021.2.3,Win32,59.97720866,627c6715c52fd12f31907bd0,,,,,,,,,,,,,,,,,,,,,,,a,1,1.3698,"[""0.182"",""0.411"",""0.869"",""0.486""]","[1,1,1,0]",0,39,39,39,1,0,1,,,1,FALSE,,,,,,,,,,,,,,,,,,,,,,,,,,,,,,,
,6108015fd0cba9f9b02e6314,627c760022fbbce493a5371f,2022-05-12_03h50.51.903,classification_task,2021.2.3,Win32,59.97720866,627c6715c52fd12f31907bd0,,,,,,,,,,,,,,,,,,,,,,,a,1,0.7957,"[""0.220"",""0.359"",""0.490"",""0.952""]","[1,1,0,1]",0,40,40,40,1,0,0,,,1,FALSE,,,,,,,,,,,,,,,,,,,,,,,,,,,,,,,
,6108015fd0cba9f9b02e6314,627c760022fbbce493a5371f,2022-05-12_03h50.51.903,classification_task,2021.2.3,Win32,59.97720866,627c6715c52fd12f31907bd0,,,,,,,,,,,,,,,,,,,,,,,l,1,0.804,"[""0.041"",""0.291"",""0.525"",""0.688""]","[1,1,1,0]",0,41,41,41,1,1,1,,,1,FALSE,,,,,,,,,,,,,,,,,,,,,,,,,,,,,,,
,6108015fd0cba9f9b02e6314,627c760022fbbce493a5371f,2022-05-12_03h50.51.903,classification_task,2021.2.3,Win32,59.97720866,627c6715c52fd12f31907bd0,,,,,,,,,,,,,,,,,,,,,,,l,1,1.8793,"[""0.041"",""0.291"",""0.452"",""0.727""]","[1,1,0,1]",0,42,42,42,1,1,1,,,1,FALSE,,,,,,,,,,,,,,,,,,,,,,,,,,,,,,,
,6108015fd0cba9f9b02e6314,627c760022fbbce493a5371f,2022-05-12_03h50.51.903,classification_task,2021.2.3,Win32,59.97720866,627c6715c52fd12f31907bd0,,,,,,,,,,,,,,,,,,,,,,,l,0,1.2793,"[""0.482"",""0.411"",""0.869"",""0.906""]","[0,1,1,1]",0,43,43,43,1,0,1,,,1,FALSE,,,,,,,,,,,,,,,,,,,,,,,,,,,,,,,
,6108015fd0cba9f9b02e6314,627c760022fbbce493a5371f,2022-05-12_03h50.51.903,classification_task,2021.2.3,Win32,59.97720866,627c6715c52fd12f31907bd0,,,,,,,,,,,,,,,,,,,,,,,a,1,0.8031,"[""0.220"",""0.359"",""0.636"",""0.486""]","[1,1,1,0]",0,44,44,44,1,0,0,,,1,FALSE,,,,,,,,,,,,,,,,,,,,,,,,,,,,,,,
,6108015fd0cba9f9b02e6314,627c760022fbbce493a5371f,2022-05-12_03h50.51.903,classification_task,2021.2.3,Win32,59.97720866,627c6715c52fd12f31907bd0,,,,,,,,,,,,,,,,,,,,,,,l,1,0.8499,"[""0.081"",""0.142"",""0.587"",""0.452""]","[1,1,1,0]",0,45,45,45,1,1,0,,,1,FALSE,,,,,,,,,,,,,,,,,,,,,,,,,,,,,,,
,6108015fd0cba9f9b02e6314,627c760022fbbce493a5371f,2022-05-12_03h50.51.903,classification_task,2021.2.3,Win32,59.97720866,627c6715c52fd12f31907bd0,,,,,,,,,,,,,,,,,,,,,,,a,1,1.4622,"[""0.452"",""0.359"",""0.636"",""0.952""]","[0,1,1,1]",0,46,46,46,1,0,0,,,1,FALSE,,,,,,,,,,,,,,,,,,,,,,,,,,,,,,,
,6108015fd0cba9f9b02e6314,627c760022fbbce493a5371f,2022-05-12_03h50.51.903,classification_task,2021.2.3,Win32,59.97720866,627c6715c52fd12f31907bd0,,,,,,,,,,,,,,,,,,,,,,,l,1,0.8165,"[""0.081"",""0.781"",""0.587"",""0.830""]","[1,0,1,1]",0,47,47,47,1,1,0,,,1,FALSE,,,,,,,,,,,,,,,,,,,,,,,,,,,,,,,
,6108015fd0cba9f9b02e6314,627c760022fbbce493a5371f,2022-05-12_03h50.51.903,classification_task,2021.2.3,Win32,59.97720866,627c6715c52fd12f31907bd0,,,,,,,,,,,,,,,,,,,,,,,l,1,1.3165,"[""0.041"",""0.489"",""0.525"",""0.727""]","[1,0,1,1]",0,48,48,48,1,1,1,,,1,FALSE,,,,,,,,,,,,,,,,,,,,,,,,,,,,,,,
,6108015fd0cba9f9b02e6314,627c760022fbbce493a5371f,2022-05-12_03h50.51.903,classification_task,2021.2.3,Win32,59.97720866,627c6715c52fd12f31907bd0,,,,,,,,,,,,,,,,,,,,,,,l,0,0.9201,"[""0.452"",""0.359"",""0.636"",""0.952""]","[0,1,1,1]",0,49,49,49,1,0,0,,,1,FALSE,,,,,,,,,,,,,,,,,,,,,,,,,,,,,,,
,6108015fd0cba9f9b02e6314,627c760022fbbce493a5371f,2022-05-12_03h50.51.903,classification_task,2021.2.3,Win32,59.97720866,627c6715c52fd12f31907bd0,,,,,,,,,,,,,,,,,,,,,,,a,0,1.2127,"[""0.482"",""0.291"",""0.525"",""0.727""]","[0,1,1,1]",0,50,50,50,1,1,1,,,1,FALSE,,,,,,,,,,,,,,,,,,,,,,,,,,,,,,,
,6108015fd0cba9f9b02e6314,627c760022fbbce493a5371f,2022-05-12_03h50.51.903,classification_task,2021.2.3,Win32,59.97720866,627c6715c52fd12f31907bd0,,,,,,,,,,,,,,,,,,,,,,,a,1,0.7711,"[""0.220"",""0.490"",""0.636"",""0.952""]","[1,0,1,1]",0,51,51,51,1,0,0,,,1,FALSE,,,,,,,,,,,,,,,,,,,,,,,,,,,,,,,
,6108015fd0cba9f9b02e6314,627c760022fbbce493a5371f,2022-05-12_03h50.51.903,classification_task,2021.2.3,Win32,59.97720866,627c6715c52fd12f31907bd0,,,,,,,,,,,,,,,,,,,,,,,a,1,1.4329,"[""0.220"",""0.359"",""0.476"",""0.952""]","[1,1,0,1]",0,52,52,52,1,0,0,,,1,FALSE,,,,,,,,,,,,,,,,,,,,,,,,,,,,,,,
,6108015fd0cba9f9b02e6314,627c760022fbbce493a5371f,2022-05-12_03h50.51.903,classification_task,2021.2.3,Win32,59.97720866,627c6715c52fd12f31907bd0,,,,,,,,,,,,,,,,,,,,,,,l,1,0.6661,"[""0.081"",""0.142"",""0.688"",""0.830""]","[1,1,0,1]",0,53,53,53,1,1,0,,,1,FALSE,,,,,,,,,,,,,,,,,,,,,,,,,,,,,,,
,6108015fd0cba9f9b02e6314,627c760022fbbce493a5371f,2022-05-12_03h50.51.903,classification_task,2021.2.3,Win32,59.97720866,627c6715c52fd12f31907bd0,,,,,,,,,,,,,,,,,,,,,,,a,1,1.112,"[""0.182"",""0.411"",""0.869"",""0.476""]","[1,1,1,0]",0,54,54,54,1,0,1,,,1,FALSE,,,,,,,,,,,,,,,,,,,,,,,,,,,,,,,
,6108015fd0cba9f9b02e6314,627c760022fbbce493a5371f,2022-05-12_03h50.51.903,classification_task,2021.2.3,Win32,59.97720866,627c6715c52fd12f31907bd0,,,,,,,,,,,,,,,,,,,,,,,l,1,0.8534,"[""0.770"",""0.142"",""0.587"",""0.830""]","[0,1,1,1]",0,55,55,55,1,1,0,,,1,FALSE,,,,,,,,,,,,,,,,,,,,,,,,,,,,,,,
,6108015fd0cba9f9b02e6314,627c760022fbbce493a5371f,2022-05-12_03h50.51.903,classification_task,2021.2.3,Win32,59.97720866,627c6715c52fd12f31907bd0,,,,,,,,,,,,,,,,,,,,,,,l,1,0.8956,"[""0.041"",""0.291"",""0.525"",""0.688""]","[1,1,1,0]",0,56,56,56,1,1,1,,,1,FALSE,,,,,,,,,,,,,,,,,,,,,,,,,,,,,,,
,6108015fd0cba9f9b02e6314,627c760022fbbce493a5371f,2022-05-12_03h50.51.903,classification_task,2021.2.3,Win32,59.97720866,627c6715c52fd12f31907bd0,,,,,,,,,,,,,,,,,,,,,,,l,1,0.733,"[""0.041"",""0.291"",""0.476"",""0.727""]","[1,1,0,1]",0,57,57,57,1,1,1,,,1,FALSE,,,,,,,,,,,,,,,,,,,,,,,,,,,,,,,
,6108015fd0cba9f9b02e6314,627c760022fbbce493a5371f,2022-05-12_03h50.51.903,classification_task,2021.2.3,Win32,59.97720866,627c6715c52fd12f31907bd0,,,,,,,,,,,,,,,,,,,,,,,l,1,0.7823,"[""0.081"",""0.482"",""0.587"",""0.830""]","[1,0,1,1]",0,58,58,58,1,1,0,,,1,FALSE,,,,,,,,,,,,,,,,,,,,,,,,,,,,,,,
,6108015fd0cba9f9b02e6314,627c760022fbbce493a5371f,2022-05-12_03h50.51.903,classification_task,2021.2.3,Win32,59.97720866,627c6715c52fd12f31907bd0,,,,,,,,,,,,,,,,,,,,,,,a,1,1.0958,"[""0.182"",""0.476"",""0.869"",""0.906""]","[1,0,1,1]",0,59,59,59,1,0,1,,,1,FALSE,,,,,,,,,,,,,,,,,,,,,,,,,,,,,,,
,6108015fd0cba9f9b02e6314,627c760022fbbce493a5371f,2022-05-12_03h50.51.903,classification_task,2021.2.3,Win32,59.97720866,627c6715c52fd12f31907bd0,,,,,,,,,,,,,,,,,,,,,,,a,1,0.9207,"[""0.182"",""0.411"",""0.688"",""0.906""]","[1,1,0,1]",0,60,60,60,1,0,1,,,1,FALSE,,,,,,,,,,,,,,,,,,,,,,,,,,,,,,,
,6108015fd0cba9f9b02e6314,627c760022fbbce493a5371f,2022-05-12_03h50.51.903,classification_task,2021.2.3,Win32,59.97720866,627c6715c52fd12f31907bd0,,,,,,,,,,,,,,,,,,,,,,,l,1,0.8458,"[""0.081"",""0.142"",""0.587"",""0.482""]","[1,1,1,0]",0,61,61,61,1,1,0,,,1,FALSE,,,,,,,,,,,,,,,,,,,,,,,,,,,,,,,
,6108015fd0cba9f9b02e6314,627c760022fbbce493a5371f,2022-05-12_03h50.51.903,classification_task,2021.2.3,Win32,59.97720866,627c6715c52fd12f31907bd0,,,,,,,,,,,,,,,,,,,,,,,l,0,1.3,"[""0.489"",""0.411"",""0.869"",""0.906""]","[0,1,1,1]",0,62,62,62,1,0,1,,,1,FALSE,,,,,,,,,,,,,,,,,,,,,,,,,,,,,,,
,6108015fd0cba9f9b02e6314,627c760022fbbce493a5371f,2022-05-12_03h50.51.903,classification_task,2021.2.3,Win32,59.97720866,627c6715c52fd12f31907bd0,,,,,,,,,,,,,,,,,,,,,,,a,1,0.8374,"[""0.220"",""0.359"",""0.636"",""0.452""]","[1,1,1,0]",0,63,63,63,1,0,0,,,1,FALSE,,,,,,,,,,,,,,,,,,,,,,,,,,,,,,,
,6108015fd0cba9f9b02e6314,627c760022fbbce493a5371f,2022-05-12_03h50.51.903,classification_task,2021.2.3,Win32,59.97720866,627c6715c52fd12f31907bd0,,,,,,,,,,,,,,,,,,,,,,,,,,,,,,,,,,,,,,,0, ,,0,3.297570804,150.3967,0,2,2,2,1,2,3,,,,,,,,,,,,,,,,,,
,6108015fd0cba9f9b02e6314,627c760022fbbce493a5371f,2022-05-12_03h50.51.903,classification_task,2021.2.3,Win32,59.97720866,627c6715c52fd12f31907bd0,,,,,,,,,,,,,,,,,,,,,,,,,,,,,,,,,,,,,,,1,  ,,0,6.347247465,154.7971,0,2,2,2,1,2,3,,,,,,,,,,,,,,,,,,
,6108015fd0cba9f9b02e6314,627c760022fbbce493a5371f,2022-05-12_03h50.51.903,classification_task,2021.2.3,Win32,59.97720866,627c6715c52fd12f31907bd0,,,,,,,,,,,,,,,,,,,,,,,,,,,,,,,,,,,,,,,2,  ,,0,7.780228065,156.0258,0,2,2,2,1,2,3,,,,,,,,,,,,,,,,,,
,6108015fd0cba9f9b02e6314,627c760022fbbce493a5371f,2022-05-12_03h50.51.903,classification_task,2021.2.3,Win32,59.97720866,627c6715c52fd12f31907bd0,,,,,,,,,,,,,,,,,,,,,,,,,,,,,,,,,,,,,,,,,,,,,0,2,2,2,1,,3,,,,,,,,,,,,,,,,,,
,6108015fd0cba9f9b02e6314,627c760022fbbce493a5371f,2022-05-12_03h50.51.903,classification_task,2021.2.3,Win32,59.97720866,627c6715c52fd12f31907bd0,,,,,,,,,,,,,,,,,,,,,,,,,,,,,,,,,,,,,,,,,,,,,,,,,,,,,I believe the aid is a competent performer,,0.7,0,5,792.4977,0,0,0,0,1,0,,,,,
,6108015fd0cba9f9b02e6314,627c760022fbbce493a5371f,2022-05-12_03h50.51.903,classification_task,2021.2.3,Win32,59.97720866,627c6715c52fd12f31907bd0,,,,,,,,,,,,,,,,,,,,,,,,,,,,,,,,,,,,,,,,,,,,,,,,,,,,,I trust the aid,,0.7,0,5,793.299,0,0,0,0,1,0,,,,,
,6108015fd0cba9f9b02e6314,627c760022fbbce493a5371f,2022-05-12_03h50.51.903,classification_task,2021.2.3,Win32,59.97720866,627c6715c52fd12f31907bd0,,,,,,,,,,,,,,,,,,,,,,,,,,,,,,,,,,,,,,,,,,,,,,,,,,,,,I have confidence in the advice given by the aid,,0.7,0,5,794.894,0,0,0,0,1,0,,,,,
,6108015fd0cba9f9b02e6314,627c760022fbbce493a5371f,2022-05-12_03h50.51.903,classification_task,2021.2.3,Win32,59.97720866,627c6715c52fd12f31907bd0,,,,,,,,,,,,,,,,,,,,,,,,,,,,,,,,,,,,,,,,,,,,,,,,,,,,,I can depend on the aid,,0.7,0,5,796.0278,0,0,0,0,1,0,,,,,
,6108015fd0cba9f9b02e6314,627c760022fbbce493a5371f,2022-05-12_03h50.51.903,classification_task,2021.2.3,Win32,59.97720866,627c6715c52fd12f31907bd0,,,,,,,,,,,,,,,,,,,,,,,,,,,,,,,,,,,,,,,,,,,,,,,,,,,,,I can rely on the aid to behave in consistent ways,,0.7,0,5,798.6057,0,0,0,0,1,0,,,,,
,6108015fd0cba9f9b02e6314,627c760022fbbce493a5371f,2022-05-12_03h50.51.903,classification_task,2021.2.3,Win32,59.97720866,627c6715c52fd12f31907bd0,,,,,,,,,,,,,,,,,,,,,,,,,,,,,,,,,,,,,,,,,,,,,,,,,,,,,I can rely on the aid to do its best every time I take its advice,,0.7,0,5,798.9699,0,0,0,0,1,0,,,,,
,6108015fd0cba9f9b02e6314,627c760022fbbce493a5371f,2022-05-12_03h50.51.903,classification_task,2021.2.3,Win32,59.97720866,627c6715c52fd12f31907bd0,,,,,,,,,,,,,,,,,,,,,,,,,,,,,,,,,,,,,,,,,,,,,,,,,,,,,"On trials you completed with assistance from the aid, how frequently did you think the aid was correct?",,0.7,0,100,,0,0,0,0,1,0,,,,,
,6108015fd0cba9f9b02e6314,627c760022fbbce493a5371f,2022-05-12_03h50.51.903,classification_task,2021.2.3,Win32,59.97720866,627c6715c52fd12f31907bd0,,,,,,,,,,,,,,,,,,,,,,,,,,,,,,,,,,,,,,,,,,,,,,,,,,,,,"On trials you completed without the aid, how frequently did you think you were correct?",,0.7,0,70,,0,0,0,0,1,0,,,,,
,6108015fd0cba9f9b02e6314,627c760022fbbce493a5371f,2022-05-12_03h50.51.903,classification_task,2021.2.3,Win32,59.97720866,627c6715c52fd12f31907bd0,,,,,,,,,,,,,,,,,,,,,,,,,,,,,,,,,,,,,,,,,,,,,,,,,,,,,,,,,,,0,0,0,0,1,,,,,,
,6108015fd0cba9f9b02e6314,627c760022fbbce493a5371f,2022-05-12_03h50.51.903,classification_task,2021.2.3,Win32,59.97720866,627c6715c52fd12f31907bd0,,,,,,,,,,,,,,,,,,,,,,,,,,,,,,,,,,,,,,,,,,,,,,,,,,,,,,,,,,,,,,,,,space,8.3708,822.9244,,
,6108015fd0cba9f9b02e6314,627c760022fbbce493a5371f,2022-05-12_03h50.51.903,classification_task,2021.2.3,Win32,59.97720866,627c6715c52fd12f31907bd0,,,,,,,,,,,,,,,,,,,,,,,,,,,,,,,,,,,,,,,,,,,,,,,,,,,,,,,,,,,,,,,,,,,,"Mozilla/5.0 (Windows NT 10.0; Win64; x64) AppleWebKit/537.36 (KHTML, like Gecko) Chrome/101.0.4951.54 Safari/537.36",
,6108015fd0cba9f9b02e6314,627c760022fbbce493a5371f,2022-05-12_03h50.51.903,classification_task,2021.2.3,Win32,59.97720866,627c6715c52fd12f31907bd0,,,,,,,,,,,,,,,,,,,,,,,,,,,,,,,,,,,,,,,,,,,,,,,,,,,,,,,,,,,,,,,,,,,,,HIGHLIGHT
