usingWebGL,participant,session,date,expName,psychopyVersion,OS,frameRate,study_id,signatures_friend,signatures_foe,band_ranges_top,band_ranges_bottom,formitemText,formtype,formundefined,formitemWidth,formindex,formresponse,formrt,key_resp_2.keys,key_resp_2.rt,tute_resp.keys,tute_resp.rt,tutorial.thisRepN,tutorial.thisTrialN,tutorial.thisN,tutorial.thisIndex,tutorial.ran,key_resp_4.keys,key_resp_4.rt,key_resp.keys,key_resp.corr,key_resp.rt,lines_presented,is_signal_presented,trials.thisRepN,trials.thisTrialN,trials.thisN,trials.thisIndex,trials.ran,vessel,active_band,lines,is_signal,supported_pos,catch_trial,debrief_formindex,debrief_formitemText,debrief_formtype,debrief_formitemWidth,debrief_formresponse,debrief_formrt,phases.thisRepN,phases.thisTrialN,phases.thisN,phases.thisIndex,phases.ran,phases.order,phase,key_resp_3.keys,trustitemText,trusttype,trustitemWidth,trustindex,trustresponse,trustrt,support_status.thisRepN,support_status.thisTrialN,support_status.thisN,support_status.thisIndex,support_status.ran,support_status.order,key_resp_5.keys,key_resp_5.rt,globalClockTime,userAgent,manualCondition
TRUE,6109d2c5525e33fb9443d3a7,627c6f76dba79a738eec4b8d,2022-05-11_22h23.28.238,classification_task,2021.2.3,MacIntel,59.99880002,627c6715c52fd12f31907bd0,,,,,,,,,,,,,,,,,,,,,,,,,,,,,,,,,,,,,,,,,,,,,,,,,,,,,,,,,,,,,,,,,,,,,
,6109d2c5525e33fb9443d3a7,627c6f76dba79a738eec4b8d,2022-05-11_22h23.28.238,classification_task,2021.2.3,MacIntel,59.99880002,627c6715c52fd12f31907bd0,"[[""0.289"",""0.466"",""0.835"",""0.963""],[""0.162"",""0.348"",""0.869"",""0.904""]]","[[""0.116"",""0.232"",""0.505"",""0.752""],[""0.036"",""0.411"",""0.594"",""0.686""]]","[1,10]","[100,1000]",Video game experience,,,0.7,0,,,,,,,,,,,,,,,,,,,,,,,,,,,,,,,,,,,,,,,,,,,,,,,,,,,,,,,,,,,,
,6109d2c5525e33fb9443d3a7,627c6f76dba79a738eec4b8d,2022-05-11_22h23.28.238,classification_task,2021.2.3,MacIntel,59.99880002,627c6715c52fd12f31907bd0,,,,,Approximately how many hours did you spend playing video games in the last week?,,,0.7,0,1,,,,,,,,,,,,,,,,,,,,,,,,,,,,,,,,,,,,,,,,,,,,,,,,,,,,,,,,,,,
,6109d2c5525e33fb9443d3a7,627c6f76dba79a738eec4b8d,2022-05-11_22h23.28.238,classification_task,2021.2.3,MacIntel,59.99880002,627c6715c52fd12f31907bd0,,,,,"Which game did you play the most this year? (Enter ""None"" if you didn't play any)",,,0.7,0,OMORI,,,,,,,,,,,,,,,,,,,,,,,,,,,,,,,,,,,,,,,,,,,,,,,,,,,,,,,,,,,
,6109d2c5525e33fb9443d3a7,627c6f76dba79a738eec4b8d,2022-05-11_22h23.28.238,classification_task,2021.2.3,MacIntel,59.99880002,627c6715c52fd12f31907bd0,,,,,Visual perception,,,0.7,0,,,,,,,,,,,,,,,,,,,,,,,,,,,,,,,,,,,,,,,,,,,,,,,,,,,,,,,,,,,,
,6109d2c5525e33fb9443d3a7,627c6f76dba79a738eec4b8d,2022-05-11_22h23.28.238,classification_task,2021.2.3,MacIntel,59.99880002,627c6715c52fd12f31907bd0,,,,,Do you have any form of color blindness?,,,0.7,0,No,30.9787,,,,,,,,,,,,,,,,,,,,,,,,,,,,,,,,,,,,,,,,,,,,,,,,,,,,,,,,,,
,6109d2c5525e33fb9443d3a7,627c6f76dba79a738eec4b8d,2022-05-11_22h23.28.238,classification_task,2021.2.3,MacIntel,59.99880002,627c6715c52fd12f31907bd0,,,,,Do you use software to change the colour temperature of your screen (e.g. f.lux)?,,,0.7,0,No,34.6371,,,,,,,,,,,,,,,,,,,,,,,,,,,,,,,,,,,,,,,,,,,,,,,,,,,,,,,,,,
,6109d2c5525e33fb9443d3a7,627c6f76dba79a738eec4b8d,2022-05-11_22h23.28.238,classification_task,2021.2.3,MacIntel,59.99880002,627c6715c52fd12f31907bd0,,,,,,,,,,,,space,41.1899,space,9.0392,0,0,0,0,1,,,,,,,,,,,,,,,,,,,,,,,,,,,,,,,,,,,,,,,,,,,,,,,,,
,6109d2c5525e33fb9443d3a7,627c6f76dba79a738eec4b8d,2022-05-11_22h23.28.238,classification_task,2021.2.3,MacIntel,59.99880002,627c6715c52fd12f31907bd0,,,,,,,,,,,,,,space,7.6311,1,0,1,0,1,,,,,,,,,,,,,,,,,,,,,,,,,,,,,,,,,,,,,,,,,,,,,,,,,
,6109d2c5525e33fb9443d3a7,627c6f76dba79a738eec4b8d,2022-05-11_22h23.28.238,classification_task,2021.2.3,MacIntel,59.99880002,627c6715c52fd12f31907bd0,,,,,,,,,,,,,,space,23.7852,2,0,2,0,1,,,,,,,,,,,,,,,,,,,,,,,,,,,,,,,,,,,,,,,,,,,,,,,,,
,6109d2c5525e33fb9443d3a7,627c6f76dba79a738eec4b8d,2022-05-11_22h23.28.238,classification_task,2021.2.3,MacIntel,59.99880002,627c6715c52fd12f31907bd0,,,,,,,,,,,,,,space,8.7674,3,0,3,0,1,,,,,,,,,,,,,,,,,,,,,,,,,,,,,,,,,,,,,,,,,,,,,,,,,
,6109d2c5525e33fb9443d3a7,627c6f76dba79a738eec4b8d,2022-05-11_22h23.28.238,classification_task,2021.2.3,MacIntel,59.99880002,627c6715c52fd12f31907bd0,,,,,,,,,,,,,,space,16.9504,4,0,4,0,1,,,,,,,,,,,,,,,,,,,,,,,,,,,,,,,,,,,,,,,,,,,,,,,,,
,6109d2c5525e33fb9443d3a7,627c6f76dba79a738eec4b8d,2022-05-11_22h23.28.238,classification_task,2021.2.3,MacIntel,59.99880002,627c6715c52fd12f31907bd0,,,,,,,,,,,,,,,,,,,,,space,26.8094,l,1,4.1547,"[""0.116"",""0.549"",""0.505"",""0.752""]","[1,0,1,1]",0,0,0,0,1,1,0,,,1,FALSE,,,,,,,,,,,,,,,,,,,,,,,,,,,,,,,
,6109d2c5525e33fb9443d3a7,627c6f76dba79a738eec4b8d,2022-05-11_22h23.28.238,classification_task,2021.2.3,MacIntel,59.99880002,627c6715c52fd12f31907bd0,,,,,,,,,,,,,,,,,,,,,,,l,1,3.6756,"[""0.642"",""0.411"",""0.594"",""0.686""]","[0,1,1,1]",0,1,1,1,1,1,1,,,1,FALSE,,,,,,,,,,,,,,,,,,,,,,,,,,,,,,,
,6109d2c5525e33fb9443d3a7,627c6f76dba79a738eec4b8d,2022-05-11_22h23.28.238,classification_task,2021.2.3,MacIntel,59.99880002,627c6715c52fd12f31907bd0,,,,,,,,,,,,,,,,,,,,,,,a,1,2.3548,"[""0.162"",""0.795"",""0.869"",""0.904""]","[1,0,1,1]",0,2,2,2,1,0,1,,,1,FALSE,,,,,,,,,,,,,,,,,,,,,,,,,,,,,,,
,6109d2c5525e33fb9443d3a7,627c6f76dba79a738eec4b8d,2022-05-11_22h23.28.238,classification_task,2021.2.3,MacIntel,59.99880002,627c6715c52fd12f31907bd0,,,,,,,,,,,,,,,,,,,,,,,l,1,3.0314,"[""0.116"",""0.232"",""0.505"",""0.642""]","[1,1,1,0]",0,3,3,3,1,1,0,,,1,FALSE,,,,,,,,,,,,,,,,,,,,,,,,,,,,,,,
,6109d2c5525e33fb9443d3a7,627c6f76dba79a738eec4b8d,2022-05-11_22h23.28.238,classification_task,2021.2.3,MacIntel,59.99880002,627c6715c52fd12f31907bd0,,,,,,,,,,,,,,,,,,,,,,,,0,,"[""0.541"",""0.348"",""0.869"",""0.904""]","[0,1,1,1]",0,4,4,4,1,0,1,,,1,FALSE,,,,,,,,,,,,,,,,,,,,,,,,,,,,,,,
,6109d2c5525e33fb9443d3a7,627c6f76dba79a738eec4b8d,2022-05-11_22h23.28.238,classification_task,2021.2.3,MacIntel,59.99880002,627c6715c52fd12f31907bd0,,,,,,,,,,,,,,,,,,,,,,,a,1,2.7034,"[""0.289"",""0.643"",""0.835"",""0.963""]","[1,0,1,1]",0,5,5,5,1,0,0,,,1,FALSE,,,,,,,,,,,,,,,,,,,,,,,,,,,,,,,
,6109d2c5525e33fb9443d3a7,627c6f76dba79a738eec4b8d,2022-05-11_22h23.28.238,classification_task,2021.2.3,MacIntel,59.99880002,627c6715c52fd12f31907bd0,,,,,,,,,,,,,,,,,,,,,,,l,1,4.4391,"[""0.036"",""0.795"",""0.594"",""0.686""]","[1,0,1,1]",0,6,6,6,1,1,1,,,1,FALSE,,,,,,,,,,,,,,,,,,,,,,,,,,,,,,,
,6109d2c5525e33fb9443d3a7,627c6f76dba79a738eec4b8d,2022-05-11_22h23.28.238,classification_task,2021.2.3,MacIntel,59.99880002,627c6715c52fd12f31907bd0,,,,,,,,,,,,,,,,,,,,,,,a,1,3.6883,"[""0.162"",""0.348"",""0.554"",""0.904""]","[1,1,0,1]",0,7,7,7,1,0,1,,,1,FALSE,,,,,,,,,,,,,,,,,,,,,,,,,,,,,,,
,6109d2c5525e33fb9443d3a7,627c6f76dba79a738eec4b8d,2022-05-11_22h23.28.238,classification_task,2021.2.3,MacIntel,59.99880002,627c6715c52fd12f31907bd0,,,,,,,,,,,,,,,,,,,,,,,l,1,2.7388,"[""0.036"",""0.411"",""0.594"",""0.643""]","[1,1,1,0]",0,8,8,8,1,1,1,,,1,FALSE,,,,,,,,,,,,,,,,,,,,,,,,,,,,,,,
,6109d2c5525e33fb9443d3a7,627c6f76dba79a738eec4b8d,2022-05-11_22h23.28.238,classification_task,2021.2.3,MacIntel,59.99880002,627c6715c52fd12f31907bd0,,,,,,,,,,,,,,,,,,,,,,,l,1,3.0061,"[""0.036"",""0.411"",""0.557"",""0.686""]","[1,1,0,1]",0,9,9,9,1,1,1,,,1,FALSE,,,,,,,,,,,,,,,,,,,,,,,,,,,,,,,
,6109d2c5525e33fb9443d3a7,627c6f76dba79a738eec4b8d,2022-05-11_22h23.28.238,classification_task,2021.2.3,MacIntel,59.99880002,627c6715c52fd12f31907bd0,,,,,,,,,,,,,,,,,,,,,,,a,1,4.0387,"[""0.549"",""0.466"",""0.835"",""0.963""]","[0,1,1,1]",0,10,10,10,1,0,0,,,1,FALSE,,,,,,,,,,,,,,,,,,,,,,,,,,,,,,,
,6109d2c5525e33fb9443d3a7,627c6f76dba79a738eec4b8d,2022-05-11_22h23.28.238,classification_task,2021.2.3,MacIntel,59.99880002,627c6715c52fd12f31907bd0,,,,,,,,,,,,,,,,,,,,,,,l,1,3.1864,"[""0.795"",""0.232"",""0.505"",""0.752""]","[0,1,1,1]",0,11,11,11,1,1,0,,,1,FALSE,,,,,,,,,,,,,,,,,,,,,,,,,,,,,,,
,6109d2c5525e33fb9443d3a7,627c6f76dba79a738eec4b8d,2022-05-11_22h23.28.238,classification_task,2021.2.3,MacIntel,59.99880002,627c6715c52fd12f31907bd0,,,,,,,,,,,,,,,,,,,,,,,a,1,3.9549,"[""0.289"",""0.466"",""0.835"",""0.083""]","[1,1,1,0]",0,12,12,12,1,0,0,,,1,FALSE,,,,,,,,,,,,,,,,,,,,,,,,,,,,,,,
,6109d2c5525e33fb9443d3a7,627c6f76dba79a738eec4b8d,2022-05-11_22h23.28.238,classification_task,2021.2.3,MacIntel,59.99880002,627c6715c52fd12f31907bd0,,,,,,,,,,,,,,,,,,,,,,,a,1,2.3573,"[""0.289"",""0.466"",""0.634"",""0.963""]","[1,1,0,1]",0,13,13,13,1,0,0,,,1,FALSE,,,,,,,,,,,,,,,,,,,,,,,,,,,,,,,
,6109d2c5525e33fb9443d3a7,627c6f76dba79a738eec4b8d,2022-05-11_22h23.28.238,classification_task,2021.2.3,MacIntel,59.99880002,627c6715c52fd12f31907bd0,,,,,,,,,,,,,,,,,,,,,,,l,1,3.4073,"[""0.116"",""0.232"",""0.557"",""0.752""]","[1,1,0,1]",0,14,14,14,1,1,0,,,1,FALSE,,,,,,,,,,,,,,,,,,,,,,,,,,,,,,,
,6109d2c5525e33fb9443d3a7,627c6f76dba79a738eec4b8d,2022-05-11_22h23.28.238,classification_task,2021.2.3,MacIntel,59.99880002,627c6715c52fd12f31907bd0,,,,,,,,,,,,,,,,,,,,,,,a,1,2.1009,"[""0.162"",""0.348"",""0.869"",""0.549""]","[1,1,1,0]",0,15,15,15,1,0,1,,,1,FALSE,,,,,,,,,,,,,,,,,,,,,,,,,,,,,,,
,6109d2c5525e33fb9443d3a7,627c6f76dba79a738eec4b8d,2022-05-11_22h23.28.238,classification_task,2021.2.3,MacIntel,59.99880002,627c6715c52fd12f31907bd0,,,,,,,,,,,,,,,,,,,,,,,l,1,3.1848,"[""0.116"",""0.232"",""0.634"",""0.752""]","[1,1,0,1]",0,16,16,16,1,1,0,,,1,FALSE,,,,,,,,,,,,,,,,,,,,,,,,,,,,,,,
,6109d2c5525e33fb9443d3a7,627c6f76dba79a738eec4b8d,2022-05-11_22h23.28.238,classification_task,2021.2.3,MacIntel,59.99880002,627c6715c52fd12f31907bd0,,,,,,,,,,,,,,,,,,,,,,,a,1,3.3191,"[""0.554"",""0.348"",""0.869"",""0.904""]","[0,1,1,1]",0,17,17,17,1,0,1,,,1,FALSE,,,,,,,,,,,,,,,,,,,,,,,,,,,,,,,
,6109d2c5525e33fb9443d3a7,627c6f76dba79a738eec4b8d,2022-05-11_22h23.28.238,classification_task,2021.2.3,MacIntel,59.99880002,627c6715c52fd12f31907bd0,,,,,,,,,,,,,,,,,,,,,,,l,1,2.7208,"[""0.557"",""0.411"",""0.594"",""0.686""]","[0,1,1,1]",0,18,18,18,1,1,1,,,1,FALSE,,,,,,,,,,,,,,,,,,,,,,,,,,,,,,,
,6109d2c5525e33fb9443d3a7,627c6f76dba79a738eec4b8d,2022-05-11_22h23.28.238,classification_task,2021.2.3,MacIntel,59.99880002,627c6715c52fd12f31907bd0,,,,,,,,,,,,,,,,,,,,,,,l,1,4.9081,"[""0.036"",""0.554"",""0.594"",""0.686""]","[1,0,1,1]",0,19,19,19,1,1,1,,,1,FALSE,,,,,,,,,,,,,,,,,,,,,,,,,,,,,,,
,6109d2c5525e33fb9443d3a7,627c6f76dba79a738eec4b8d,2022-05-11_22h23.28.238,classification_task,2021.2.3,MacIntel,59.99880002,627c6715c52fd12f31907bd0,,,,,,,,,,,,,,,,,,,,,,,a,1,2.1405,"[""0.162"",""0.642"",""0.869"",""0.904""]","[1,0,1,1]",0,20,20,20,1,0,1,,,1,FALSE,,,,,,,,,,,,,,,,,,,,,,,,,,,,,,,
,6109d2c5525e33fb9443d3a7,627c6f76dba79a738eec4b8d,2022-05-11_22h23.28.238,classification_task,2021.2.3,MacIntel,59.99880002,627c6715c52fd12f31907bd0,,,,,,,,,,,,,,,,,,,,,,,a,1,2.2173,"[""0.289"",""0.466"",""0.795"",""0.963""]","[1,1,0,1]",0,21,21,21,1,0,0,,,1,FALSE,,,,,,,,,,,,,,,,,,,,,,,,,,,,,,,
,6109d2c5525e33fb9443d3a7,627c6f76dba79a738eec4b8d,2022-05-11_22h23.28.238,classification_task,2021.2.3,MacIntel,59.99880002,627c6715c52fd12f31907bd0,,,,,,,,,,,,,,,,,,,,,,,a,1,4.3646,"[""0.162"",""0.348"",""0.869"",""0.198""]","[1,1,1,0]",0,22,22,22,1,0,1,,,1,FALSE,,,,,,,,,,,,,,,,,,,,,,,,,,,,,,,
,6109d2c5525e33fb9443d3a7,627c6f76dba79a738eec4b8d,2022-05-11_22h23.28.238,classification_task,2021.2.3,MacIntel,59.99880002,627c6715c52fd12f31907bd0,,,,,,,,,,,,,,,,,,,,,,,l,1,3.6552,"[""0.036"",""0.411"",""0.551"",""0.686""]","[1,1,0,1]",0,23,23,23,1,1,1,,,1,FALSE,,,,,,,,,,,,,,,,,,,,,,,,,,,,,,,
,6109d2c5525e33fb9443d3a7,627c6f76dba79a738eec4b8d,2022-05-11_22h23.28.238,classification_task,2021.2.3,MacIntel,59.99880002,627c6715c52fd12f31907bd0,,,,,,,,,,,,,,,,,,,,,,,a,1,4.0541,"[""0.557"",""0.466"",""0.835"",""0.963""]","[0,1,1,1]",0,24,24,24,1,0,0,,,1,FALSE,,,,,,,,,,,,,,,,,,,,,,,,,,,,,,,
,6109d2c5525e33fb9443d3a7,627c6f76dba79a738eec4b8d,2022-05-11_22h23.28.238,classification_task,2021.2.3,MacIntel,59.99880002,627c6715c52fd12f31907bd0,,,,,,,,,,,,,,,,,,,,,,,a,1,3.1043,"[""0.289"",""0.466"",""0.835"",""0.557""]","[1,1,1,0]",0,25,25,25,1,0,0,,,1,FALSE,,,,,,,,,,,,,,,,,,,,,,,,,,,,,,,
,6109d2c5525e33fb9443d3a7,627c6f76dba79a738eec4b8d,2022-05-11_22h23.28.238,classification_task,2021.2.3,MacIntel,59.99880002,627c6715c52fd12f31907bd0,,,,,,,,,,,,,,,,,,,,,,,l,1,2.2397,"[""0.116"",""0.643"",""0.505"",""0.752""]","[1,0,1,1]",0,26,26,26,1,1,0,,,1,FALSE,,,,,,,,,,,,,,,,,,,,,,,,,,,,,,,
,6109d2c5525e33fb9443d3a7,627c6f76dba79a738eec4b8d,2022-05-11_22h23.28.238,classification_task,2021.2.3,MacIntel,59.99880002,627c6715c52fd12f31907bd0,,,,,,,,,,,,,,,,,,,,,,,a,1,2.1352,"[""0.289"",""0.795"",""0.835"",""0.963""]","[1,0,1,1]",0,27,27,27,1,0,0,,,1,FALSE,,,,,,,,,,,,,,,,,,,,,,,,,,,,,,,
,6109d2c5525e33fb9443d3a7,627c6f76dba79a738eec4b8d,2022-05-11_22h23.28.238,classification_task,2021.2.3,MacIntel,59.99880002,627c6715c52fd12f31907bd0,,,,,,,,,,,,,,,,,,,,,,,a,0,5.119,"[""0.036"",""0.411"",""0.594"",""0.795""]","[1,1,1,0]",0,28,28,28,1,1,1,,,1,FALSE,,,,,,,,,,,,,,,,,,,,,,,,,,,,,,,
,6109d2c5525e33fb9443d3a7,627c6f76dba79a738eec4b8d,2022-05-11_22h23.28.238,classification_task,2021.2.3,MacIntel,59.99880002,627c6715c52fd12f31907bd0,,,,,,,,,,,,,,,,,,,,,,,a,1,1.688,"[""0.162"",""0.348"",""0.557"",""0.904""]","[1,1,0,1]",0,29,29,29,1,0,1,,,1,FALSE,,,,,,,,,,,,,,,,,,,,,,,,,,,,,,,
,6109d2c5525e33fb9443d3a7,627c6f76dba79a738eec4b8d,2022-05-11_22h23.28.238,classification_task,2021.2.3,MacIntel,59.99880002,627c6715c52fd12f31907bd0,,,,,,,,,,,,,,,,,,,,,,,l,1,1.907,"[""0.116"",""0.232"",""0.505"",""0.554""]","[1,1,1,0]",0,30,30,30,1,1,0,,,1,FALSE,,,,,,,,,,,,,,,,,,,,,,,,,,,,,,,
,6109d2c5525e33fb9443d3a7,627c6f76dba79a738eec4b8d,2022-05-11_22h23.28.238,classification_task,2021.2.3,MacIntel,59.99880002,627c6715c52fd12f31907bd0,,,,,,,,,,,,,,,,,,,,,,,l,1,2.1001,"[""0.649"",""0.232"",""0.505"",""0.752""]","[0,1,1,1]",0,31,31,31,1,1,0,,,1,FALSE,,,,,,,,,,,,,,,,,,,,,,,,,,,,,,,
,6109d2c5525e33fb9443d3a7,627c6f76dba79a738eec4b8d,2022-05-11_22h23.28.238,classification_task,2021.2.3,MacIntel,59.99880002,627c6715c52fd12f31907bd0,,,,,,,,,,,,,,,,,,,,,,,a,1,1.8679,"[""0.289"",""0.466"",""0.800"",""0.963""]","[1,1,0,1]",0,32,32,32,1,0,0,,,1,FALSE,,,,,,,,,,,,,,,,,,,,,,,,,,,,,,,
,6109d2c5525e33fb9443d3a7,627c6f76dba79a738eec4b8d,2022-05-11_22h23.28.238,classification_task,2021.2.3,MacIntel,59.99880002,627c6715c52fd12f31907bd0,,,,,,,,,,,,,,,,,,,,,,,a,0,1.7312,"[""0.036"",""0.411"",""0.594"",""0.800""]","[1,1,1,0]",0,33,33,33,1,1,1,,,1,FALSE,,,,,,,,,,,,,,,,,,,,,,,,,,,,,,,
,6109d2c5525e33fb9443d3a7,627c6f76dba79a738eec4b8d,2022-05-11_22h23.28.238,classification_task,2021.2.3,MacIntel,59.99880002,627c6715c52fd12f31907bd0,,,,,,,,,,,,,,,,,,,,,,,a,1,2.3506,"[""0.289"",""0.557"",""0.835"",""0.963""]","[1,0,1,1]",0,34,34,34,1,0,0,,,1,FALSE,,,,,,,,,,,,,,,,,,,,,,,,,,,,,,,
,6109d2c5525e33fb9443d3a7,627c6f76dba79a738eec4b8d,2022-05-11_22h23.28.238,classification_task,2021.2.3,MacIntel,59.99880002,627c6715c52fd12f31907bd0,,,,,,,,,,,,,,,,,,,,,,,a,1,1.6719,"[""0.162"",""0.643"",""0.869"",""0.904""]","[1,0,1,1]",0,35,35,35,1,0,1,,,1,FALSE,,,,,,,,,,,,,,,,,,,,,,,,,,,,,,,
,6109d2c5525e33fb9443d3a7,627c6f76dba79a738eec4b8d,2022-05-11_22h23.28.238,classification_task,2021.2.3,MacIntel,59.99880002,627c6715c52fd12f31907bd0,,,,,,,,,,,,,,,,,,,,,,,l,1,3.3812,"[""0.036"",""0.411"",""0.635"",""0.686""]","[1,1,0,1]",0,36,36,36,1,1,1,,,1,FALSE,,,,,,,,,,,,,,,,,,,,,,,,,,,,,,,
,6109d2c5525e33fb9443d3a7,627c6f76dba79a738eec4b8d,2022-05-11_22h23.28.238,classification_task,2021.2.3,MacIntel,59.99880002,627c6715c52fd12f31907bd0,,,,,,,,,,,,,,,,,,,,,,,a,1,1.4536,"[""0.289"",""0.466"",""0.835"",""0.634""]","[1,1,1,0]",0,37,37,37,1,0,0,,,1,FALSE,,,,,,,,,,,,,,,,,,,,,,,,,,,,,,,
,6109d2c5525e33fb9443d3a7,627c6f76dba79a738eec4b8d,2022-05-11_22h23.28.238,classification_task,2021.2.3,MacIntel,59.99880002,627c6715c52fd12f31907bd0,,,,,,,,,,,,,,,,,,,,,,,l,1,1.2674,"[""0.643"",""0.232"",""0.505"",""0.752""]","[0,1,1,1]",0,38,38,38,1,1,0,,,1,FALSE,,,,,,,,,,,,,,,,,,,,,,,,,,,,,,,
,6109d2c5525e33fb9443d3a7,627c6f76dba79a738eec4b8d,2022-05-11_22h23.28.238,classification_task,2021.2.3,MacIntel,59.99880002,627c6715c52fd12f31907bd0,,,,,,,,,,,,,,,,,,,,,,,a,1,1.6165,"[""0.162"",""0.348"",""0.557"",""0.904""]","[1,1,0,1]",0,39,39,39,1,0,1,,,1,FALSE,,,,,,,,,,,,,,,,,,,,,,,,,,,,,,,
,6109d2c5525e33fb9443d3a7,627c6f76dba79a738eec4b8d,2022-05-11_22h23.28.238,classification_task,2021.2.3,MacIntel,59.99880002,627c6715c52fd12f31907bd0,,,,,,,,,,,,,,,,,,,,,,,l,0,2.6871,"[""0.162"",""0.348"",""0.869"",""0.198""]","[1,1,1,0]",0,40,40,40,1,0,1,,,1,FALSE,,,,,,,,,,,,,,,,,,,,,,,,,,,,,,,
,6109d2c5525e33fb9443d3a7,627c6f76dba79a738eec4b8d,2022-05-11_22h23.28.238,classification_task,2021.2.3,MacIntel,59.99880002,627c6715c52fd12f31907bd0,,,,,,,,,,,,,,,,,,,,,,,l,1,2.1038,"[""0.116"",""0.232"",""0.800"",""0.752""]","[1,1,0,1]",0,41,41,41,1,1,0,,,1,FALSE,,,,,,,,,,,,,,,,,,,,,,,,,,,,,,,
,6109d2c5525e33fb9443d3a7,627c6f76dba79a738eec4b8d,2022-05-11_22h23.28.238,classification_task,2021.2.3,MacIntel,59.99880002,627c6715c52fd12f31907bd0,,,,,,,,,,,,,,,,,,,,,,,l,1,1.9029,"[""0.116"",""0.643"",""0.505"",""0.752""]","[1,0,1,1]",0,42,42,42,1,1,0,,,1,FALSE,,,,,,,,,,,,,,,,,,,,,,,,,,,,,,,
,6109d2c5525e33fb9443d3a7,627c6f76dba79a738eec4b8d,2022-05-11_22h23.28.238,classification_task,2021.2.3,MacIntel,59.99880002,627c6715c52fd12f31907bd0,,,,,,,,,,,,,,,,,,,,,,,l,1,3.7135,"[""0.036"",""0.549"",""0.594"",""0.686""]","[1,0,1,1]",0,43,43,43,1,1,1,,,1,FALSE,,,,,,,,,,,,,,,,,,,,,,,,,,,,,,,
,6109d2c5525e33fb9443d3a7,627c6f76dba79a738eec4b8d,2022-05-11_22h23.28.238,classification_task,2021.2.3,MacIntel,59.99880002,627c6715c52fd12f31907bd0,,,,,,,,,,,,,,,,,,,,,,,l,1,2.1047,"[""0.116"",""0.232"",""0.505"",""0.557""]","[1,1,1,0]",0,44,44,44,1,1,0,,,1,FALSE,,,,,,,,,,,,,,,,,,,,,,,,,,,,,,,
,6109d2c5525e33fb9443d3a7,627c6f76dba79a738eec4b8d,2022-05-11_22h23.28.238,classification_task,2021.2.3,MacIntel,59.99880002,627c6715c52fd12f31907bd0,,,,,,,,,,,,,,,,,,,,,,,l,0,2.7007,"[""0.557"",""0.348"",""0.869"",""0.904""]","[0,1,1,1]",0,45,45,45,1,0,1,,,1,FALSE,,,,,,,,,,,,,,,,,,,,,,,,,,,,,,,
,6109d2c5525e33fb9443d3a7,627c6f76dba79a738eec4b8d,2022-05-11_22h23.28.238,classification_task,2021.2.3,MacIntel,59.99880002,627c6715c52fd12f31907bd0,,,,,,,,,,,,,,,,,,,,,,,l,1,1.8168,"[""0.554"",""0.411"",""0.594"",""0.686""]","[0,1,1,1]",0,46,46,46,1,1,1,,,1,FALSE,,,,,,,,,,,,,,,,,,,,,,,,,,,,,,,
,6109d2c5525e33fb9443d3a7,627c6f76dba79a738eec4b8d,2022-05-11_22h23.28.238,classification_task,2021.2.3,MacIntel,59.99880002,627c6715c52fd12f31907bd0,,,,,,,,,,,,,,,,,,,,,,,a,1,2.4313,"[""0.557"",""0.466"",""0.835"",""0.963""]","[0,1,1,1]",0,47,47,47,1,0,0,,,1,FALSE,,,,,,,,,,,,,,,,,,,,,,,,,,,,,,,
,6109d2c5525e33fb9443d3a7,627c6f76dba79a738eec4b8d,2022-05-11_22h23.28.238,classification_task,2021.2.3,MacIntel,59.99880002,627c6715c52fd12f31907bd0,,,,,,,,,,,,,,,,,,,,,,,a,1,1.3218,"[""0.162"",""0.348"",""0.869"",""0.643""]","[1,1,1,0]",0,48,48,48,1,0,1,,,1,FALSE,,,,,,,,,,,,,,,,,,,,,,,,,,,,,,,
,6109d2c5525e33fb9443d3a7,627c6f76dba79a738eec4b8d,2022-05-11_22h23.28.238,classification_task,2021.2.3,MacIntel,59.99880002,627c6715c52fd12f31907bd0,,,,,,,,,,,,,,,,,,,,,,,l,1,1.7144,"[""0.116"",""0.232"",""0.634"",""0.752""]","[1,1,0,1]",0,49,49,49,1,1,0,,,1,FALSE,,,,,,,,,,,,,,,,,,,,,,,,,,,,,,,
,6109d2c5525e33fb9443d3a7,627c6f76dba79a738eec4b8d,2022-05-11_22h23.28.238,classification_task,2021.2.3,MacIntel,59.99880002,627c6715c52fd12f31907bd0,,,,,,,,,,,,,,,,,,,,,,,l,1,3.3234,"[""0.036"",""0.554"",""0.594"",""0.686""]","[1,0,1,1]",0,50,50,50,1,1,1,,,1,FALSE,,,,,,,,,,,,,,,,,,,,,,,,,,,,,,,
,6109d2c5525e33fb9443d3a7,627c6f76dba79a738eec4b8d,2022-05-11_22h23.28.238,classification_task,2021.2.3,MacIntel,59.99880002,627c6715c52fd12f31907bd0,,,,,,,,,,,,,,,,,,,,,,,a,1,2.189,"[""0.289"",""0.466"",""0.551"",""0.963""]","[1,1,0,1]",0,51,51,51,1,0,0,,,1,FALSE,,,,,,,,,,,,,,,,,,,,,,,,,,,,,,,
,6109d2c5525e33fb9443d3a7,627c6f76dba79a738eec4b8d,2022-05-11_22h23.28.238,classification_task,2021.2.3,MacIntel,59.99880002,627c6715c52fd12f31907bd0,,,,,,,,,,,,,,,,,,,,,,,l,0,2.4148,"[""0.557"",""0.348"",""0.869"",""0.904""]","[0,1,1,1]",0,52,52,52,1,0,1,,,1,FALSE,,,,,,,,,,,,,,,,,,,,,,,,,,,,,,,
,6109d2c5525e33fb9443d3a7,627c6f76dba79a738eec4b8d,2022-05-11_22h23.28.238,classification_task,2021.2.3,MacIntel,59.99880002,627c6715c52fd12f31907bd0,,,,,,,,,,,,,,,,,,,,,,,l,1,2.1356,"[""0.036"",""0.411"",""0.643"",""0.686""]","[1,1,0,1]",0,53,53,53,1,1,1,,,1,FALSE,,,,,,,,,,,,,,,,,,,,,,,,,,,,,,,
,6109d2c5525e33fb9443d3a7,627c6f76dba79a738eec4b8d,2022-05-11_22h23.28.238,classification_task,2021.2.3,MacIntel,59.99880002,627c6715c52fd12f31907bd0,,,,,,,,,,,,,,,,,,,,,,,a,0,3.2739,"[""0.642"",""0.411"",""0.594"",""0.686""]","[0,1,1,1]",0,54,54,54,1,1,1,,,1,FALSE,,,,,,,,,,,,,,,,,,,,,,,,,,,,,,,
,6109d2c5525e33fb9443d3a7,627c6f76dba79a738eec4b8d,2022-05-11_22h23.28.238,classification_task,2021.2.3,MacIntel,59.99880002,627c6715c52fd12f31907bd0,,,,,,,,,,,,,,,,,,,,,,,a,0,2.589,"[""0.116"",""0.198"",""0.505"",""0.752""]","[1,0,1,1]",0,55,55,55,1,1,0,,,1,FALSE,,,,,,,,,,,,,,,,,,,,,,,,,,,,,,,
,6109d2c5525e33fb9443d3a7,627c6f76dba79a738eec4b8d,2022-05-11_22h23.28.238,classification_task,2021.2.3,MacIntel,59.99880002,627c6715c52fd12f31907bd0,,,,,,,,,,,,,,,,,,,,,,,l,1,2.8577,"[""0.643"",""0.232"",""0.505"",""0.752""]","[0,1,1,1]",0,56,56,56,1,1,0,,,1,FALSE,,,,,,,,,,,,,,,,,,,,,,,,,,,,,,,
,6109d2c5525e33fb9443d3a7,627c6f76dba79a738eec4b8d,2022-05-11_22h23.28.238,classification_task,2021.2.3,MacIntel,59.99880002,627c6715c52fd12f31907bd0,,,,,,,,,,,,,,,,,,,,,,,l,0,2.4831,"[""0.554"",""0.466"",""0.835"",""0.963""]","[0,1,1,1]",0,57,57,57,1,0,0,,,1,FALSE,,,,,,,,,,,,,,,,,,,,,,,,,,,,,,,
,6109d2c5525e33fb9443d3a7,627c6f76dba79a738eec4b8d,2022-05-11_22h23.28.238,classification_task,2021.2.3,MacIntel,59.99880002,627c6715c52fd12f31907bd0,,,,,,,,,,,,,,,,,,,,,,,a,1,1.9652,"[""0.289"",""0.557"",""0.835"",""0.963""]","[1,0,1,1]",0,58,58,58,1,0,0,,,1,FALSE,,,,,,,,,,,,,,,,,,,,,,,,,,,,,,,
,6109d2c5525e33fb9443d3a7,627c6f76dba79a738eec4b8d,2022-05-11_22h23.28.238,classification_task,2021.2.3,MacIntel,59.99880002,627c6715c52fd12f31907bd0,,,,,,,,,,,,,,,,,,,,,,,a,1,1.2725,"[""0.289"",""0.466"",""0.835"",""0.635""]","[1,1,1,0]",0,59,59,59,1,0,0,,,1,FALSE,,,,,,,,,,,,,,,,,,,,,,,,,,,,,,,
,6109d2c5525e33fb9443d3a7,627c6f76dba79a738eec4b8d,2022-05-11_22h23.28.238,classification_task,2021.2.3,MacIntel,59.99880002,627c6715c52fd12f31907bd0,,,,,,,,,,,,,,,,,,,,,,,l,1,2.3803,"[""0.036"",""0.411"",""0.594"",""0.557""]","[1,1,1,0]",0,60,60,60,1,1,1,,,1,FALSE,,,,,,,,,,,,,,,,,,,,,,,,,,,,,,,
,6109d2c5525e33fb9443d3a7,627c6f76dba79a738eec4b8d,2022-05-11_22h23.28.238,classification_task,2021.2.3,MacIntel,59.99880002,627c6715c52fd12f31907bd0,,,,,,,,,,,,,,,,,,,,,,,l,0,1.8536,"[""0.162"",""0.557"",""0.869"",""0.904""]","[1,0,1,1]",0,61,61,61,1,0,1,,,1,FALSE,,,,,,,,,,,,,,,,,,,,,,,,,,,,,,,
,6109d2c5525e33fb9443d3a7,627c6f76dba79a738eec4b8d,2022-05-11_22h23.28.238,classification_task,2021.2.3,MacIntel,59.99880002,627c6715c52fd12f31907bd0,,,,,,,,,,,,,,,,,,,,,,,l,1,1.7677,"[""0.116"",""0.232"",""0.505"",""0.557""]","[1,1,1,0]",0,62,62,62,1,1,0,,,1,FALSE,,,,,,,,,,,,,,,,,,,,,,,,,,,,,,,
,6109d2c5525e33fb9443d3a7,627c6f76dba79a738eec4b8d,2022-05-11_22h23.28.238,classification_task,2021.2.3,MacIntel,59.99880002,627c6715c52fd12f31907bd0,,,,,,,,,,,,,,,,,,,,,,,l,0,2.5077,"[""0.162"",""0.348"",""0.549"",""0.904""]","[1,1,0,1]",0,63,63,63,1,0,1,,,1,FALSE,,,,,,,,,,,,,,,,,,,,,,,,,,,,,,,
,6109d2c5525e33fb9443d3a7,627c6f76dba79a738eec4b8d,2022-05-11_22h23.28.238,classification_task,2021.2.3,MacIntel,59.99880002,627c6715c52fd12f31907bd0,,,,,,,,,,,,,,,,,,,,,,,,,,,,,,,,,,,,,,,0, ,,0,2.130005672,460.7343,0,0,0,0,1,2,1,,,,,,,,,,,,,,,,,,
,6109d2c5525e33fb9443d3a7,627c6f76dba79a738eec4b8d,2022-05-11_22h23.28.238,classification_task,2021.2.3,MacIntel,59.99880002,627c6715c52fd12f31907bd0,,,,,,,,,,,,,,,,,,,,,,,,,,,,,,,,,,,,,,,1,  ,,0,4.958793196,449.1479,0,0,0,0,1,2,1,,,,,,,,,,,,,,,,,,
,6109d2c5525e33fb9443d3a7,627c6f76dba79a738eec4b8d,2022-05-11_22h23.28.238,classification_task,2021.2.3,MacIntel,59.99880002,627c6715c52fd12f31907bd0,,,,,,,,,,,,,,,,,,,,,,,,,,,,,,,,,,,,,,,2,  ,,0,3.865056472,458.3113,0,0,0,0,1,2,1,,,,,,,,,,,,,,,,,,
,6109d2c5525e33fb9443d3a7,627c6f76dba79a738eec4b8d,2022-05-11_22h23.28.238,classification_task,2021.2.3,MacIntel,59.99880002,627c6715c52fd12f31907bd0,,,,,,,,,,,,,,,,,,,,,,,,,,,,,,,,,,,,,,,,,,,,,0,0,0,0,1,,1,,,,,,,,,,,,,,,,,,
,6109d2c5525e33fb9443d3a7,627c6f76dba79a738eec4b8d,2022-05-11_22h23.28.238,classification_task,2021.2.3,MacIntel,59.99880002,627c6715c52fd12f31907bd0,,,,,,,,,,,,,,,,,,,,,space,27.9723,a,1,1.6239,"[""0.162"",""0.348"",""0.635"",""0.904""]","[1,1,0,1]",0,0,0,0,1,0,1,,,1,FALSE,,,,,,,,,,,,,,,,,,,,,,,,,,,,,,,
,6109d2c5525e33fb9443d3a7,627c6f76dba79a738eec4b8d,2022-05-11_22h23.28.238,classification_task,2021.2.3,MacIntel,59.99880002,627c6715c52fd12f31907bd0,,,,,,,,,,,,,,,,,,,,,,,l,1,0.4955,"[""0.036"",""0.411"",""0.198"",""0.686""]","[1,1,0,1]",0,1,1,1,1,1,1,,,1,FALSE,,,,,,,,,,,,,,,,,,,,,,,,,,,,,,,
,6109d2c5525e33fb9443d3a7,627c6f76dba79a738eec4b8d,2022-05-11_22h23.28.238,classification_task,2021.2.3,MacIntel,59.99880002,627c6715c52fd12f31907bd0,,,,,,,,,,,,,,,,,,,,,,,l,0,1.2432,"[""0.551"",""0.466"",""0.835"",""0.963""]","[0,1,1,1]",0,2,2,2,1,0,0,,,1,FALSE,,,,,,,,,,,,,,,,,,,,,,,,,,,,,,,
,6109d2c5525e33fb9443d3a7,627c6f76dba79a738eec4b8d,2022-05-11_22h23.28.238,classification_task,2021.2.3,MacIntel,59.99880002,627c6715c52fd12f31907bd0,,,,,,,,,,,,,,,,,,,,,,,l,1,1.7315,"[""0.116"",""0.232"",""0.505"",""0.554""]","[1,1,1,0]",0,3,3,3,1,1,0,,,1,FALSE,,,,,,,,,,,,,,,,,,,,,,,,,,,,,,,
,6109d2c5525e33fb9443d3a7,627c6f76dba79a738eec4b8d,2022-05-11_22h23.28.238,classification_task,2021.2.3,MacIntel,59.99880002,627c6715c52fd12f31907bd0,,,,,,,,,,,,,,,,,,,,,,,a,0,1.1791,"[""0.557"",""0.232"",""0.505"",""0.752""]","[0,1,1,1]",0,4,4,4,1,1,0,,,1,FALSE,,,,,,,,,,,,,,,,,,,,,,,,,,,,,,,
,6109d2c5525e33fb9443d3a7,627c6f76dba79a738eec4b8d,2022-05-11_22h23.28.238,classification_task,2021.2.3,MacIntel,59.99880002,627c6715c52fd12f31907bd0,,,,,,,,,,,,,,,,,,,,,,,l,1,1.5126,"[""0.036"",""0.557"",""0.594"",""0.686""]","[1,0,1,1]",0,5,5,5,1,1,1,,,1,FALSE,,,,,,,,,,,,,,,,,,,,,,,,,,,,,,,
,6109d2c5525e33fb9443d3a7,627c6f76dba79a738eec4b8d,2022-05-11_22h23.28.238,classification_task,2021.2.3,MacIntel,59.99880002,627c6715c52fd12f31907bd0,,,,,,,,,,,,,,,,,,,,,,,a,1,0.9353,"[""0.162"",""0.557"",""0.869"",""0.904""]","[1,0,1,1]",0,6,6,6,1,0,1,,,1,FALSE,,,,,,,,,,,,,,,,,,,,,,,,,,,,,,,
,6109d2c5525e33fb9443d3a7,627c6f76dba79a738eec4b8d,2022-05-11_22h23.28.238,classification_task,2021.2.3,MacIntel,59.99880002,627c6715c52fd12f31907bd0,,,,,,,,,,,,,,,,,,,,,,,l,1,2.6752,"[""0.116"",""0.549"",""0.505"",""0.752""]","[1,0,1,1]",0,7,7,7,1,1,0,,,1,FALSE,,,,,,,,,,,,,,,,,,,,,,,,,,,,,,,
,6109d2c5525e33fb9443d3a7,627c6f76dba79a738eec4b8d,2022-05-11_22h23.28.238,classification_task,2021.2.3,MacIntel,59.99880002,627c6715c52fd12f31907bd0,,,,,,,,,,,,,,,,,,,,,,,a,1,1.3043,"[""0.289"",""0.557"",""0.835"",""0.963""]","[1,0,1,1]",0,8,8,8,1,0,0,,,1,FALSE,,,,,,,,,,,,,,,,,,,,,,,,,,,,,,,
,6109d2c5525e33fb9443d3a7,627c6f76dba79a738eec4b8d,2022-05-11_22h23.28.238,classification_task,2021.2.3,MacIntel,59.99880002,627c6715c52fd12f31907bd0,,,,,,,,,,,,,,,,,,,,,,,l,1,1.7907,"[""0.642"",""0.411"",""0.594"",""0.686""]","[0,1,1,1]",0,9,9,9,1,1,1,,,1,FALSE,,,,,,,,,,,,,,,,,,,,,,,,,,,,,,,
,6109d2c5525e33fb9443d3a7,627c6f76dba79a738eec4b8d,2022-05-11_22h23.28.238,classification_task,2021.2.3,MacIntel,59.99880002,627c6715c52fd12f31907bd0,,,,,,,,,,,,,,,,,,,,,,,a,0,1.8677,"[""0.116"",""0.232"",""0.557"",""0.752""]","[1,1,0,1]",0,10,10,10,1,1,0,,,1,FALSE,,,,,,,,,,,,,,,,,,,,,,,,,,,,,,,
,6109d2c5525e33fb9443d3a7,627c6f76dba79a738eec4b8d,2022-05-11_22h23.28.238,classification_task,2021.2.3,MacIntel,59.99880002,627c6715c52fd12f31907bd0,,,,,,,,,,,,,,,,,,,,,,,l,1,0.9777,"[""0.036"",""0.411"",""0.594"",""0.554""]","[1,1,1,0]",0,11,11,11,1,1,1,,,1,FALSE,,,,,,,,,,,,,,,,,,,,,,,,,,,,,,,
,6109d2c5525e33fb9443d3a7,627c6f76dba79a738eec4b8d,2022-05-11_22h23.28.238,classification_task,2021.2.3,MacIntel,59.99880002,627c6715c52fd12f31907bd0,,,,,,,,,,,,,,,,,,,,,,,a,1,0.984,"[""0.162"",""0.348"",""0.869"",""0.554""]","[1,1,1,0]",0,12,12,12,1,0,1,,,1,FALSE,,,,,,,,,,,,,,,,,,,,,,,,,,,,,,,
,6109d2c5525e33fb9443d3a7,627c6f76dba79a738eec4b8d,2022-05-11_22h23.28.238,classification_task,2021.2.3,MacIntel,59.99880002,627c6715c52fd12f31907bd0,,,,,,,,,,,,,,,,,,,,,,,l,0,1.9459,"[""0.289"",""0.466"",""0.835"",""0.557""]","[1,1,1,0]",0,13,13,13,1,0,0,,,1,FALSE,,,,,,,,,,,,,,,,,,,,,,,,,,,,,,,
,6109d2c5525e33fb9443d3a7,627c6f76dba79a738eec4b8d,2022-05-11_22h23.28.238,classification_task,2021.2.3,MacIntel,59.99880002,627c6715c52fd12f31907bd0,,,,,,,,,,,,,,,,,,,,,,,a,1,1.3163,"[""0.554"",""0.348"",""0.869"",""0.904""]","[0,1,1,1]",0,14,14,14,1,0,1,,,1,FALSE,,,,,,,,,,,,,,,,,,,,,,,,,,,,,,,
,6109d2c5525e33fb9443d3a7,627c6f76dba79a738eec4b8d,2022-05-11_22h23.28.238,classification_task,2021.2.3,MacIntel,59.99880002,627c6715c52fd12f31907bd0,,,,,,,,,,,,,,,,,,,,,,,a,1,2.1007,"[""0.289"",""0.466"",""0.557"",""0.963""]","[1,1,0,1]",0,15,15,15,1,0,0,,,1,FALSE,,,,,,,,,,,,,,,,,,,,,,,,,,,,,,,
,6109d2c5525e33fb9443d3a7,627c6f76dba79a738eec4b8d,2022-05-11_22h23.28.238,classification_task,2021.2.3,MacIntel,59.99880002,627c6715c52fd12f31907bd0,,,,,,,,,,,,,,,,,,,,,,,l,1,2.1418,"[""0.036"",""0.411"",""0.541"",""0.686""]","[1,1,0,1]",0,16,16,16,1,1,1,,,1,FALSE,,,,,,,,,,,,,,,,,,,,,,,,,,,,,,,
,6109d2c5525e33fb9443d3a7,627c6f76dba79a738eec4b8d,2022-05-11_22h23.28.238,classification_task,2021.2.3,MacIntel,59.99880002,627c6715c52fd12f31907bd0,,,,,,,,,,,,,,,,,,,,,,,a,0,1.9165,"[""0.116"",""0.557"",""0.505"",""0.752""]","[1,0,1,1]",0,17,17,17,1,1,0,,,1,FALSE,,,,,,,,,,,,,,,,,,,,,,,,,,,,,,,
,6109d2c5525e33fb9443d3a7,627c6f76dba79a738eec4b8d,2022-05-11_22h23.28.238,classification_task,2021.2.3,MacIntel,59.99880002,627c6715c52fd12f31907bd0,,,,,,,,,,,,,,,,,,,,,,,a,1,1.2999,"[""0.162"",""0.348"",""0.634"",""0.904""]","[1,1,0,1]",0,18,18,18,1,0,1,,,1,FALSE,,,,,,,,,,,,,,,,,,,,,,,,,,,,,,,
,6109d2c5525e33fb9443d3a7,627c6f76dba79a738eec4b8d,2022-05-11_22h23.28.238,classification_task,2021.2.3,MacIntel,59.99880002,627c6715c52fd12f31907bd0,,,,,,,,,,,,,,,,,,,,,,,l,0,2.3409,"[""0.289"",""0.466"",""0.795"",""0.963""]","[1,1,0,1]",0,19,19,19,1,0,0,,,1,FALSE,,,,,,,,,,,,,,,,,,,,,,,,,,,,,,,
,6109d2c5525e33fb9443d3a7,627c6f76dba79a738eec4b8d,2022-05-11_22h23.28.238,classification_task,2021.2.3,MacIntel,59.99880002,627c6715c52fd12f31907bd0,,,,,,,,,,,,,,,,,,,,,,,l,1,2.5991,"[""0.541"",""0.232"",""0.505"",""0.752""]","[0,1,1,1]",0,20,20,20,1,1,0,,,1,FALSE,,,,,,,,,,,,,,,,,,,,,,,,,,,,,,,
,6109d2c5525e33fb9443d3a7,627c6f76dba79a738eec4b8d,2022-05-11_22h23.28.238,classification_task,2021.2.3,MacIntel,59.99880002,627c6715c52fd12f31907bd0,,,,,,,,,,,,,,,,,,,,,,,l,1,3.1491,"[""0.036"",""0.635"",""0.594"",""0.686""]","[1,0,1,1]",0,21,21,21,1,1,1,,,1,FALSE,,,,,,,,,,,,,,,,,,,,,,,,,,,,,,,
,6109d2c5525e33fb9443d3a7,627c6f76dba79a738eec4b8d,2022-05-11_22h23.28.238,classification_task,2021.2.3,MacIntel,59.99880002,627c6715c52fd12f31907bd0,,,,,,,,,,,,,,,,,,,,,,,a,1,2.0014,"[""0.541"",""0.466"",""0.835"",""0.963""]","[0,1,1,1]",0,22,22,22,1,0,0,,,1,FALSE,,,,,,,,,,,,,,,,,,,,,,,,,,,,,,,
,6109d2c5525e33fb9443d3a7,627c6f76dba79a738eec4b8d,2022-05-11_22h23.28.238,classification_task,2021.2.3,MacIntel,59.99880002,627c6715c52fd12f31907bd0,,,,,,,,,,,,,,,,,,,,,,,l,1,1.7192,"[""0.036"",""0.411"",""0.594"",""0.541""]","[1,1,1,0]",0,23,23,23,1,1,1,,,1,FALSE,,,,,,,,,,,,,,,,,,,,,,,,,,,,,,,
,6109d2c5525e33fb9443d3a7,627c6f76dba79a738eec4b8d,2022-05-11_22h23.28.238,classification_task,2021.2.3,MacIntel,59.99880002,627c6715c52fd12f31907bd0,,,,,,,,,,,,,,,,,,,,,,,a,1,3.2079,"[""0.289"",""0.795"",""0.835"",""0.963""]","[1,0,1,1]",0,24,24,24,1,0,0,,,1,FALSE,,,,,,,,,,,,,,,,,,,,,,,,,,,,,,,
,6109d2c5525e33fb9443d3a7,627c6f76dba79a738eec4b8d,2022-05-11_22h23.28.238,classification_task,2021.2.3,MacIntel,59.99880002,627c6715c52fd12f31907bd0,,,,,,,,,,,,,,,,,,,,,,,a,1,2.4336,"[""0.162"",""0.348"",""0.869"",""0.642""]","[1,1,1,0]",0,25,25,25,1,0,1,,,1,FALSE,,,,,,,,,,,,,,,,,,,,,,,,,,,,,,,
,6109d2c5525e33fb9443d3a7,627c6f76dba79a738eec4b8d,2022-05-11_22h23.28.238,classification_task,2021.2.3,MacIntel,59.99880002,627c6715c52fd12f31907bd0,,,,,,,,,,,,,,,,,,,,,,,l,1,1.7029,"[""0.198"",""0.411"",""0.594"",""0.686""]","[0,1,1,1]",0,26,26,26,1,1,1,,,1,FALSE,,,,,,,,,,,,,,,,,,,,,,,,,,,,,,,
,6109d2c5525e33fb9443d3a7,627c6f76dba79a738eec4b8d,2022-05-11_22h23.28.238,classification_task,2021.2.3,MacIntel,59.99880002,627c6715c52fd12f31907bd0,,,,,,,,,,,,,,,,,,,,,,,a,1,1.3639,"[""0.554"",""0.348"",""0.869"",""0.904""]","[0,1,1,1]",0,27,27,27,1,0,1,,,1,FALSE,,,,,,,,,,,,,,,,,,,,,,,,,,,,,,,
,6109d2c5525e33fb9443d3a7,627c6f76dba79a738eec4b8d,2022-05-11_22h23.28.238,classification_task,2021.2.3,MacIntel,59.99880002,627c6715c52fd12f31907bd0,,,,,,,,,,,,,,,,,,,,,,,a,1,1.8185,"[""0.162"",""0.083"",""0.869"",""0.904""]","[1,0,1,1]",0,28,28,28,1,0,1,,,1,FALSE,,,,,,,,,,,,,,,,,,,,,,,,,,,,,,,
,6109d2c5525e33fb9443d3a7,627c6f76dba79a738eec4b8d,2022-05-11_22h23.28.238,classification_task,2021.2.3,MacIntel,59.99880002,627c6715c52fd12f31907bd0,,,,,,,,,,,,,,,,,,,,,,,l,1,2.3295,"[""0.116"",""0.232"",""0.505"",""0.557""]","[1,1,1,0]",0,29,29,29,1,1,0,,,1,FALSE,,,,,,,,,,,,,,,,,,,,,,,,,,,,,,,
,6109d2c5525e33fb9443d3a7,627c6f76dba79a738eec4b8d,2022-05-11_22h23.28.238,classification_task,2021.2.3,MacIntel,59.99880002,627c6715c52fd12f31907bd0,,,,,,,,,,,,,,,,,,,,,,,a,1,1.9407,"[""0.289"",""0.466"",""0.835"",""0.795""]","[1,1,1,0]",0,30,30,30,1,0,0,,,1,FALSE,,,,,,,,,,,,,,,,,,,,,,,,,,,,,,,
,6109d2c5525e33fb9443d3a7,627c6f76dba79a738eec4b8d,2022-05-11_22h23.28.238,classification_task,2021.2.3,MacIntel,59.99880002,627c6715c52fd12f31907bd0,,,,,,,,,,,,,,,,,,,,,,,l,1,3.3663,"[""0.116"",""0.232"",""0.554"",""0.752""]","[1,1,0,1]",0,31,31,31,1,1,0,,,1,FALSE,,,,,,,,,,,,,,,,,,,,,,,,,,,,,,,
,6109d2c5525e33fb9443d3a7,627c6f76dba79a738eec4b8d,2022-05-11_22h23.28.238,classification_task,2021.2.3,MacIntel,59.99880002,627c6715c52fd12f31907bd0,,,,,,,,,,,,,,,,,,,,,,,l,0,2.1421,"[""0.557"",""0.466"",""0.835"",""0.963""]","[0,1,1,1]",0,32,32,32,1,0,0,,,1,FALSE,,,,,,,,,,,,,,,,,,,,,,,,,,,,,,,
,6109d2c5525e33fb9443d3a7,627c6f76dba79a738eec4b8d,2022-05-11_22h23.28.238,classification_task,2021.2.3,MacIntel,59.99880002,627c6715c52fd12f31907bd0,,,,,,,,,,,,,,,,,,,,,,,a,1,3.0556,"[""0.289"",""0.466"",""0.557"",""0.963""]","[1,1,0,1]",0,33,33,33,1,0,0,,,1,FALSE,,,,,,,,,,,,,,,,,,,,,,,,,,,,,,,
,6109d2c5525e33fb9443d3a7,627c6f76dba79a738eec4b8d,2022-05-11_22h23.28.238,classification_task,2021.2.3,MacIntel,59.99880002,627c6715c52fd12f31907bd0,,,,,,,,,,,,,,,,,,,,,,,l,1,1.7848,"[""0.036"",""0.411"",""0.594"",""0.557""]","[1,1,1,0]",0,34,34,34,1,1,1,,,1,FALSE,,,,,,,,,,,,,,,,,,,,,,,,,,,,,,,
,6109d2c5525e33fb9443d3a7,627c6f76dba79a738eec4b8d,2022-05-11_22h23.28.238,classification_task,2021.2.3,MacIntel,59.99880002,627c6715c52fd12f31907bd0,,,,,,,,,,,,,,,,,,,,,,,a,1,1.5652,"[""0.162"",""0.348"",""0.869"",""0.635""]","[1,1,1,0]",0,35,35,35,1,0,1,,,1,FALSE,,,,,,,,,,,,,,,,,,,,,,,,,,,,,,,
,6109d2c5525e33fb9443d3a7,627c6f76dba79a738eec4b8d,2022-05-11_22h23.28.238,classification_task,2021.2.3,MacIntel,59.99880002,627c6715c52fd12f31907bd0,,,,,,,,,,,,,,,,,,,,,,,a,1,1.1816,"[""0.289"",""0.795"",""0.835"",""0.963""]","[1,0,1,1]",0,36,36,36,1,0,0,,,1,FALSE,,,,,,,,,,,,,,,,,,,,,,,,,,,,,,,
,6109d2c5525e33fb9443d3a7,627c6f76dba79a738eec4b8d,2022-05-11_22h23.28.238,classification_task,2021.2.3,MacIntel,59.99880002,627c6715c52fd12f31907bd0,,,,,,,,,,,,,,,,,,,,,,,a,1,1.6982,"[""0.289"",""0.466"",""0.835"",""0.198""]","[1,1,1,0]",0,37,37,37,1,0,0,,,1,FALSE,,,,,,,,,,,,,,,,,,,,,,,,,,,,,,,
,6109d2c5525e33fb9443d3a7,627c6f76dba79a738eec4b8d,2022-05-11_22h23.28.238,classification_task,2021.2.3,MacIntel,59.99880002,627c6715c52fd12f31907bd0,,,,,,,,,,,,,,,,,,,,,,,l,1,1.6811,"[""0.036"",""0.411"",""0.198"",""0.686""]","[1,1,0,1]",0,38,38,38,1,1,1,,,1,FALSE,,,,,,,,,,,,,,,,,,,,,,,,,,,,,,,
,6109d2c5525e33fb9443d3a7,627c6f76dba79a738eec4b8d,2022-05-11_22h23.28.238,classification_task,2021.2.3,MacIntel,59.99880002,627c6715c52fd12f31907bd0,,,,,,,,,,,,,,,,,,,,,,,a,1,1.4152,"[""0.083"",""0.348"",""0.869"",""0.904""]","[0,1,1,1]",0,39,39,39,1,0,1,,,1,FALSE,,,,,,,,,,,,,,,,,,,,,,,,,,,,,,,
,6109d2c5525e33fb9443d3a7,627c6f76dba79a738eec4b8d,2022-05-11_22h23.28.238,classification_task,2021.2.3,MacIntel,59.99880002,627c6715c52fd12f31907bd0,,,,,,,,,,,,,,,,,,,,,,,a,1,1.3545,"[""0.162"",""0.348"",""0.557"",""0.904""]","[1,1,0,1]",0,40,40,40,1,0,1,,,1,FALSE,,,,,,,,,,,,,,,,,,,,,,,,,,,,,,,
,6109d2c5525e33fb9443d3a7,627c6f76dba79a738eec4b8d,2022-05-11_22h23.28.238,classification_task,2021.2.3,MacIntel,59.99880002,627c6715c52fd12f31907bd0,,,,,,,,,,,,,,,,,,,,,,,l,1,1.3814,"[""0.036"",""0.557"",""0.594"",""0.686""]","[1,0,1,1]",0,41,41,41,1,1,1,,,1,FALSE,,,,,,,,,,,,,,,,,,,,,,,,,,,,,,,
,6109d2c5525e33fb9443d3a7,627c6f76dba79a738eec4b8d,2022-05-11_22h23.28.238,classification_task,2021.2.3,MacIntel,59.99880002,627c6715c52fd12f31907bd0,,,,,,,,,,,,,,,,,,,,,,,l,1,1.5087,"[""0.557"",""0.232"",""0.505"",""0.752""]","[0,1,1,1]",0,42,42,42,1,1,0,,,1,FALSE,,,,,,,,,,,,,,,,,,,,,,,,,,,,,,,
,6109d2c5525e33fb9443d3a7,627c6f76dba79a738eec4b8d,2022-05-11_22h23.28.238,classification_task,2021.2.3,MacIntel,59.99880002,627c6715c52fd12f31907bd0,,,,,,,,,,,,,,,,,,,,,,,l,1,2.0355,"[""0.116"",""0.232"",""0.505"",""0.554""]","[1,1,1,0]",0,43,43,43,1,1,0,,,1,FALSE,,,,,,,,,,,,,,,,,,,,,,,,,,,,,,,
,6109d2c5525e33fb9443d3a7,627c6f76dba79a738eec4b8d,2022-05-11_22h23.28.238,classification_task,2021.2.3,MacIntel,59.99880002,627c6715c52fd12f31907bd0,,,,,,,,,,,,,,,,,,,,,,,a,0,1.8577,"[""0.116"",""0.232"",""0.083"",""0.752""]","[1,1,0,1]",0,44,44,44,1,1,0,,,1,FALSE,,,,,,,,,,,,,,,,,,,,,,,,,,,,,,,
,6109d2c5525e33fb9443d3a7,627c6f76dba79a738eec4b8d,2022-05-11_22h23.28.238,classification_task,2021.2.3,MacIntel,59.99880002,627c6715c52fd12f31907bd0,,,,,,,,,,,,,,,,,,,,,,,a,1,1.5936,"[""0.162"",""0.642"",""0.869"",""0.904""]","[1,0,1,1]",0,45,45,45,1,0,1,,,1,FALSE,,,,,,,,,,,,,,,,,,,,,,,,,,,,,,,
,6109d2c5525e33fb9443d3a7,627c6f76dba79a738eec4b8d,2022-05-11_22h23.28.238,classification_task,2021.2.3,MacIntel,59.99880002,627c6715c52fd12f31907bd0,,,,,,,,,,,,,,,,,,,,,,,l,1,2.015,"[""0.116"",""0.557"",""0.505"",""0.752""]","[1,0,1,1]",0,46,46,46,1,1,0,,,1,FALSE,,,,,,,,,,,,,,,,,,,,,,,,,,,,,,,
,6109d2c5525e33fb9443d3a7,627c6f76dba79a738eec4b8d,2022-05-11_22h23.28.238,classification_task,2021.2.3,MacIntel,59.99880002,627c6715c52fd12f31907bd0,,,,,,,,,,,,,,,,,,,,,,,l,1,2.1091,"[""0.557"",""0.411"",""0.594"",""0.686""]","[0,1,1,1]",0,47,47,47,1,1,1,,,1,FALSE,,,,,,,,,,,,,,,,,,,,,,,,,,,,,,,
,6109d2c5525e33fb9443d3a7,627c6f76dba79a738eec4b8d,2022-05-11_22h23.28.238,classification_task,2021.2.3,MacIntel,59.99880002,627c6715c52fd12f31907bd0,,,,,,,,,,,,,,,,,,,,,,,a,1,2.1205,"[""0.162"",""0.348"",""0.557"",""0.904""]","[1,1,0,1]",0,48,48,48,1,0,1,,,1,FALSE,,,,,,,,,,,,,,,,,,,,,,,,,,,,,,,
,6109d2c5525e33fb9443d3a7,627c6f76dba79a738eec4b8d,2022-05-11_22h23.28.238,classification_task,2021.2.3,MacIntel,59.99880002,627c6715c52fd12f31907bd0,,,,,,,,,,,,,,,,,,,,,,,l,1,1.2993,"[""0.036"",""0.411"",""0.594"",""0.795""]","[1,1,1,0]",0,49,49,49,1,1,1,,,1,FALSE,,,,,,,,,,,,,,,,,,,,,,,,,,,,,,,
,6109d2c5525e33fb9443d3a7,627c6f76dba79a738eec4b8d,2022-05-11_22h23.28.238,classification_task,2021.2.3,MacIntel,59.99880002,627c6715c52fd12f31907bd0,,,,,,,,,,,,,,,,,,,,,,,a,1,1.0155,"[""0.162"",""0.083"",""0.869"",""0.904""]","[1,0,1,1]",0,50,50,50,1,0,1,,,1,FALSE,,,,,,,,,,,,,,,,,,,,,,,,,,,,,,,
,6109d2c5525e33fb9443d3a7,627c6f76dba79a738eec4b8d,2022-05-11_22h23.28.238,classification_task,2021.2.3,MacIntel,59.99880002,627c6715c52fd12f31907bd0,,,,,,,,,,,,,,,,,,,,,,,l,0,2.3113,"[""0.289"",""0.466"",""0.835"",""0.649""]","[1,1,1,0]",0,51,51,51,1,0,0,,,1,FALSE,,,,,,,,,,,,,,,,,,,,,,,,,,,,,,,
,6109d2c5525e33fb9443d3a7,627c6f76dba79a738eec4b8d,2022-05-11_22h23.28.238,classification_task,2021.2.3,MacIntel,59.99880002,627c6715c52fd12f31907bd0,,,,,,,,,,,,,,,,,,,,,,,a,0,1.7083,"[""0.795"",""0.232"",""0.505"",""0.752""]","[0,1,1,1]",0,52,52,52,1,1,0,,,1,FALSE,,,,,,,,,,,,,,,,,,,,,,,,,,,,,,,
,6109d2c5525e33fb9443d3a7,627c6f76dba79a738eec4b8d,2022-05-11_22h23.28.238,classification_task,2021.2.3,MacIntel,59.99880002,627c6715c52fd12f31907bd0,,,,,,,,,,,,,,,,,,,,,,,a,0,2.1807,"[""0.116"",""0.232"",""0.505"",""0.541""]","[1,1,1,0]",0,53,53,53,1,1,0,,,1,FALSE,,,,,,,,,,,,,,,,,,,,,,,,,,,,,,,
,6109d2c5525e33fb9443d3a7,627c6f76dba79a738eec4b8d,2022-05-11_22h23.28.238,classification_task,2021.2.3,MacIntel,59.99880002,627c6715c52fd12f31907bd0,,,,,,,,,,,,,,,,,,,,,,,l,1,2.1656,"[""0.198"",""0.411"",""0.594"",""0.686""]","[0,1,1,1]",0,54,54,54,1,1,1,,,1,FALSE,,,,,,,,,,,,,,,,,,,,,,,,,,,,,,,
,6109d2c5525e33fb9443d3a7,627c6f76dba79a738eec4b8d,2022-05-11_22h23.28.238,classification_task,2021.2.3,MacIntel,59.99880002,627c6715c52fd12f31907bd0,,,,,,,,,,,,,,,,,,,,,,,l,0,1.8204,"[""0.554"",""0.466"",""0.835"",""0.963""]","[0,1,1,1]",0,55,55,55,1,0,0,,,1,FALSE,,,,,,,,,,,,,,,,,,,,,,,,,,,,,,,
,6109d2c5525e33fb9443d3a7,627c6f76dba79a738eec4b8d,2022-05-11_22h23.28.238,classification_task,2021.2.3,MacIntel,59.99880002,627c6715c52fd12f31907bd0,,,,,,,,,,,,,,,,,,,,,,,l,0,1.9161,"[""0.289"",""0.198"",""0.835"",""0.963""]","[1,0,1,1]",0,56,56,56,1,0,0,,,1,FALSE,,,,,,,,,,,,,,,,,,,,,,,,,,,,,,,
,6109d2c5525e33fb9443d3a7,627c6f76dba79a738eec4b8d,2022-05-11_22h23.28.238,classification_task,2021.2.3,MacIntel,59.99880002,627c6715c52fd12f31907bd0,,,,,,,,,,,,,,,,,,,,,,,l,1,1.8808,"[""0.036"",""0.551"",""0.594"",""0.686""]","[1,0,1,1]",0,57,57,57,1,1,1,,,1,FALSE,,,,,,,,,,,,,,,,,,,,,,,,,,,,,,,
,6109d2c5525e33fb9443d3a7,627c6f76dba79a738eec4b8d,2022-05-11_22h23.28.238,classification_task,2021.2.3,MacIntel,59.99880002,627c6715c52fd12f31907bd0,,,,,,,,,,,,,,,,,,,,,,,a,0,1.7966,"[""0.116"",""0.554"",""0.505"",""0.752""]","[1,0,1,1]",0,58,58,58,1,1,0,,,1,FALSE,,,,,,,,,,,,,,,,,,,,,,,,,,,,,,,
,6109d2c5525e33fb9443d3a7,627c6f76dba79a738eec4b8d,2022-05-11_22h23.28.238,classification_task,2021.2.3,MacIntel,59.99880002,627c6715c52fd12f31907bd0,,,,,,,,,,,,,,,,,,,,,,,l,1,1.7761,"[""0.036"",""0.411"",""0.541"",""0.686""]","[1,1,0,1]",0,59,59,59,1,1,1,,,1,FALSE,,,,,,,,,,,,,,,,,,,,,,,,,,,,,,,
,6109d2c5525e33fb9443d3a7,627c6f76dba79a738eec4b8d,2022-05-11_22h23.28.238,classification_task,2021.2.3,MacIntel,59.99880002,627c6715c52fd12f31907bd0,,,,,,,,,,,,,,,,,,,,,,,l,1,1.6538,"[""0.116"",""0.232"",""0.649"",""0.752""]","[1,1,0,1]",0,60,60,60,1,1,0,,,1,FALSE,,,,,,,,,,,,,,,,,,,,,,,,,,,,,,,
,6109d2c5525e33fb9443d3a7,627c6f76dba79a738eec4b8d,2022-05-11_22h23.28.238,classification_task,2021.2.3,MacIntel,59.99880002,627c6715c52fd12f31907bd0,,,,,,,,,,,,,,,,,,,,,,,a,1,1.1943,"[""0.557"",""0.348"",""0.869"",""0.904""]","[0,1,1,1]",0,61,61,61,1,0,1,,,1,FALSE,,,,,,,,,,,,,,,,,,,,,,,,,,,,,,,
,6109d2c5525e33fb9443d3a7,627c6f76dba79a738eec4b8d,2022-05-11_22h23.28.238,classification_task,2021.2.3,MacIntel,59.99880002,627c6715c52fd12f31907bd0,,,,,,,,,,,,,,,,,,,,,,,l,0,2.3951,"[""0.289"",""0.466"",""0.634"",""0.963""]","[1,1,0,1]",0,62,62,62,1,0,0,,,1,FALSE,,,,,,,,,,,,,,,,,,,,,,,,,,,,,,,
,6109d2c5525e33fb9443d3a7,627c6f76dba79a738eec4b8d,2022-05-11_22h23.28.238,classification_task,2021.2.3,MacIntel,59.99880002,627c6715c52fd12f31907bd0,,,,,,,,,,,,,,,,,,,,,,,a,1,1.2661,"[""0.162"",""0.348"",""0.869"",""0.083""]","[1,1,1,0]",0,63,63,63,1,0,1,,,1,FALSE,,,,,,,,,,,,,,,,,,,,,,,,,,,,,,,
,6109d2c5525e33fb9443d3a7,627c6f76dba79a738eec4b8d,2022-05-11_22h23.28.238,classification_task,2021.2.3,MacIntel,59.99880002,627c6715c52fd12f31907bd0,,,,,,,,,,,,,,,,,,,,,,,,,,,,,,,,,,,,,,,0, ,,0,4.938991755,236.6946,0,1,1,1,1,2,2,,,,,,,,,,,,,,,,,,
,6109d2c5525e33fb9443d3a7,627c6f76dba79a738eec4b8d,2022-05-11_22h23.28.238,classification_task,2021.2.3,MacIntel,59.99880002,627c6715c52fd12f31907bd0,,,,,,,,,,,,,,,,,,,,,,,,,,,,,,,,,,,,,,,1,  ,,0,6.217244107,232.8765,0,1,1,1,1,2,2,,,,,,,,,,,,,,,,,,
,6109d2c5525e33fb9443d3a7,627c6f76dba79a738eec4b8d,2022-05-11_22h23.28.238,classification_task,2021.2.3,MacIntel,59.99880002,627c6715c52fd12f31907bd0,,,,,,,,,,,,,,,,,,,,,,,,,,,,,,,,,,,,,,,2,  ,,0,6.453042185,228.243,0,1,1,1,1,2,2,,,,,,,,,,,,,,,,,,
,6109d2c5525e33fb9443d3a7,627c6f76dba79a738eec4b8d,2022-05-11_22h23.28.238,classification_task,2021.2.3,MacIntel,59.99880002,627c6715c52fd12f31907bd0,,,,,,,,,,,,,,,,,,,,,,,,,,,,,,,,,,,,,,,,,,,,,0,1,1,1,1,,2,,,,,,,,,,,,,,,,,,
,6109d2c5525e33fb9443d3a7,627c6f76dba79a738eec4b8d,2022-05-11_22h23.28.238,classification_task,2021.2.3,MacIntel,59.99880002,627c6715c52fd12f31907bd0,,,,,,,,,,,,,,,,,,,,,space,11.0194,a,0,1.5189,"[""0.549"",""0.232"",""0.505"",""0.752""]","[0,1,1,1]",0,0,0,0,1,1,0,,,1,FALSE,,,,,,,,,,,,,,,,,,,,,,,,,,,,,,,
,6109d2c5525e33fb9443d3a7,627c6f76dba79a738eec4b8d,2022-05-11_22h23.28.238,classification_task,2021.2.3,MacIntel,59.99880002,627c6715c52fd12f31907bd0,,,,,,,,,,,,,,,,,,,,,,,a,1,1.935,"[""0.162"",""0.800"",""0.869"",""0.904""]","[1,0,1,1]",0,1,1,1,1,0,1,,,1,FALSE,,,,,,,,,,,,,,,,,,,,,,,,,,,,,,,
,6109d2c5525e33fb9443d3a7,627c6f76dba79a738eec4b8d,2022-05-11_22h23.28.238,classification_task,2021.2.3,MacIntel,59.99880002,627c6715c52fd12f31907bd0,,,,,,,,,,,,,,,,,,,,,,,l,0,1.9979,"[""0.289"",""0.466"",""0.835"",""0.634""]","[1,1,1,0]",0,2,2,2,1,0,0,,,1,FALSE,,,,,,,,,,,,,,,,,,,,,,,,,,,,,,,
,6109d2c5525e33fb9443d3a7,627c6f76dba79a738eec4b8d,2022-05-11_22h23.28.238,classification_task,2021.2.3,MacIntel,59.99880002,627c6715c52fd12f31907bd0,,,,,,,,,,,,,,,,,,,,,,,l,0,2.235,"[""0.289"",""0.643"",""0.835"",""0.963""]","[1,0,1,1]",0,3,3,3,1,0,0,,,1,FALSE,,,,,,,,,,,,,,,,,,,,,,,,,,,,,,,
,6109d2c5525e33fb9443d3a7,627c6f76dba79a738eec4b8d,2022-05-11_22h23.28.238,classification_task,2021.2.3,MacIntel,59.99880002,627c6715c52fd12f31907bd0,,,,,,,,,,,,,,,,,,,,,,,l,1,2.3491,"[""0.116"",""0.232"",""0.551"",""0.752""]","[1,1,0,1]",0,4,4,4,1,1,0,,,1,FALSE,,,,,,,,,,,,,,,,,,,,,,,,,,,,,,,
,6109d2c5525e33fb9443d3a7,627c6f76dba79a738eec4b8d,2022-05-11_22h23.28.238,classification_task,2021.2.3,MacIntel,59.99880002,627c6715c52fd12f31907bd0,,,,,,,,,,,,,,,,,,,,,,,l,1,2.0027,"[""0.036"",""0.411"",""0.795"",""0.686""]","[1,1,0,1]",0,5,5,5,1,1,1,,,1,FALSE,,,,,,,,,,,,,,,,,,,,,,,,,,,,,,,
,6109d2c5525e33fb9443d3a7,627c6f76dba79a738eec4b8d,2022-05-11_22h23.28.238,classification_task,2021.2.3,MacIntel,59.99880002,627c6715c52fd12f31907bd0,,,,,,,,,,,,,,,,,,,,,,,a,0,2.2199,"[""0.116"",""0.232"",""0.505"",""0.642""]","[1,1,1,0]",0,6,6,6,1,1,0,,,1,FALSE,,,,,,,,,,,,,,,,,,,,,,,,,,,,,,,
,6109d2c5525e33fb9443d3a7,627c6f76dba79a738eec4b8d,2022-05-11_22h23.28.238,classification_task,2021.2.3,MacIntel,59.99880002,627c6715c52fd12f31907bd0,,,,,,,,,,,,,,,,,,,,,,,l,1,1.1666,"[""0.036"",""0.411"",""0.594"",""0.557""]","[1,1,1,0]",0,7,7,7,1,1,1,,,1,FALSE,,,,,,,,,,,,,,,,,,,,,,,,,,,,,,,
,6109d2c5525e33fb9443d3a7,627c6f76dba79a738eec4b8d,2022-05-11_22h23.28.238,classification_task,2021.2.3,MacIntel,59.99880002,627c6715c52fd12f31907bd0,,,,,,,,,,,,,,,,,,,,,,,a,1,3.333,"[""0.162"",""0.348"",""0.083"",""0.904""]","[1,1,0,1]",0,8,8,8,1,0,1,,,1,FALSE,,,,,,,,,,,,,,,,,,,,,,,,,,,,,,,
,6109d2c5525e33fb9443d3a7,627c6f76dba79a738eec4b8d,2022-05-11_22h23.28.238,classification_task,2021.2.3,MacIntel,59.99880002,627c6715c52fd12f31907bd0,,,,,,,,,,,,,,,,,,,,,,,l,1,1.5373,"[""0.036"",""0.083"",""0.594"",""0.686""]","[1,0,1,1]",0,9,9,9,1,1,1,,,1,FALSE,,,,,,,,,,,,,,,,,,,,,,,,,,,,,,,
,6109d2c5525e33fb9443d3a7,627c6f76dba79a738eec4b8d,2022-05-11_22h23.28.238,classification_task,2021.2.3,MacIntel,59.99880002,627c6715c52fd12f31907bd0,,,,,,,,,,,,,,,,,,,,,,,l,0,2.1542,"[""0.649"",""0.466"",""0.835"",""0.963""]","[0,1,1,1]",0,10,10,10,1,0,0,,,1,FALSE,,,,,,,,,,,,,,,,,,,,,,,,,,,,,,,
,6109d2c5525e33fb9443d3a7,627c6f76dba79a738eec4b8d,2022-05-11_22h23.28.238,classification_task,2021.2.3,MacIntel,59.99880002,627c6715c52fd12f31907bd0,,,,,,,,,,,,,,,,,,,,,,,l,1,2.7801,"[""0.116"",""0.635"",""0.505"",""0.752""]","[1,0,1,1]",0,11,11,11,1,1,0,,,1,FALSE,,,,,,,,,,,,,,,,,,,,,,,,,,,,,,,
,6109d2c5525e33fb9443d3a7,627c6f76dba79a738eec4b8d,2022-05-11_22h23.28.238,classification_task,2021.2.3,MacIntel,59.99880002,627c6715c52fd12f31907bd0,,,,,,,,,,,,,,,,,,,,,,,a,1,1.1878,"[""0.635"",""0.348"",""0.869"",""0.904""]","[0,1,1,1]",0,12,12,12,1,0,1,,,1,FALSE,,,,,,,,,,,,,,,,,,,,,,,,,,,,,,,
,6109d2c5525e33fb9443d3a7,627c6f76dba79a738eec4b8d,2022-05-11_22h23.28.238,classification_task,2021.2.3,MacIntel,59.99880002,627c6715c52fd12f31907bd0,,,,,,,,,,,,,,,,,,,,,,,l,0,2.1664,"[""0.289"",""0.466"",""0.541"",""0.963""]","[1,1,0,1]",0,13,13,13,1,0,0,,,1,FALSE,,,,,,,,,,,,,,,,,,,,,,,,,,,,,,,
,6109d2c5525e33fb9443d3a7,627c6f76dba79a738eec4b8d,2022-05-11_22h23.28.238,classification_task,2021.2.3,MacIntel,59.99880002,627c6715c52fd12f31907bd0,,,,,,,,,,,,,,,,,,,,,,,l,0,2.4733,"[""0.162"",""0.348"",""0.869"",""0.800""]","[1,1,1,0]",0,14,14,14,1,0,1,,,1,FALSE,,,,,,,,,,,,,,,,,,,,,,,,,,,,,,,
,6109d2c5525e33fb9443d3a7,627c6f76dba79a738eec4b8d,2022-05-11_22h23.28.238,classification_task,2021.2.3,MacIntel,59.99880002,627c6715c52fd12f31907bd0,,,,,,,,,,,,,,,,,,,,,,,l,1,2.8231,"[""0.554"",""0.411"",""0.594"",""0.686""]","[0,1,1,1]",0,15,15,15,1,1,1,,,1,FALSE,,,,,,,,,,,,,,,,,,,,,,,,,,,,,,,
,6109d2c5525e33fb9443d3a7,627c6f76dba79a738eec4b8d,2022-05-11_22h23.28.238,classification_task,2021.2.3,MacIntel,59.99880002,627c6715c52fd12f31907bd0,,,,,,,,,,,,,,,,,,,,,,,l,1,2.7739,"[""0.635"",""0.232"",""0.505"",""0.752""]","[0,1,1,1]",0,16,16,16,1,1,0,,,1,FALSE,,,,,,,,,,,,,,,,,,,,,,,,,,,,,,,
,6109d2c5525e33fb9443d3a7,627c6f76dba79a738eec4b8d,2022-05-11_22h23.28.238,classification_task,2021.2.3,MacIntel,59.99880002,627c6715c52fd12f31907bd0,,,,,,,,,,,,,,,,,,,,,,,l,1,2.7195,"[""0.116"",""0.232"",""0.083"",""0.752""]","[1,1,0,1]",0,17,17,17,1,1,0,,,1,FALSE,,,,,,,,,,,,,,,,,,,,,,,,,,,,,,,
,6109d2c5525e33fb9443d3a7,627c6f76dba79a738eec4b8d,2022-05-11_22h23.28.238,classification_task,2021.2.3,MacIntel,59.99880002,627c6715c52fd12f31907bd0,,,,,,,,,,,,,,,,,,,,,,,a,0,2.254,"[""0.116"",""0.232"",""0.505"",""0.634""]","[1,1,1,0]",0,18,18,18,1,1,0,,,1,FALSE,,,,,,,,,,,,,,,,,,,,,,,,,,,,,,,
,6109d2c5525e33fb9443d3a7,627c6f76dba79a738eec4b8d,2022-05-11_22h23.28.238,classification_task,2021.2.3,MacIntel,59.99880002,627c6715c52fd12f31907bd0,,,,,,,,,,,,,,,,,,,,,,,a,1,1.0964,"[""0.162"",""0.795"",""0.869"",""0.904""]","[1,0,1,1]",0,19,19,19,1,0,1,,,1,FALSE,,,,,,,,,,,,,,,,,,,,,,,,,,,,,,,
,6109d2c5525e33fb9443d3a7,627c6f76dba79a738eec4b8d,2022-05-11_22h23.28.238,classification_task,2021.2.3,MacIntel,59.99880002,627c6715c52fd12f31907bd0,,,,,,,,,,,,,,,,,,,,,,,a,1,0.8793,"[""0.198"",""0.348"",""0.869"",""0.904""]","[0,1,1,1]",0,20,20,20,1,0,1,,,1,FALSE,,,,,,,,,,,,,,,,,,,,,,,,,,,,,,,
,6109d2c5525e33fb9443d3a7,627c6f76dba79a738eec4b8d,2022-05-11_22h23.28.238,classification_task,2021.2.3,MacIntel,59.99880002,627c6715c52fd12f31907bd0,,,,,,,,,,,,,,,,,,,,,,,l,1,0.9998,"[""0.036"",""0.411"",""0.594"",""0.083""]","[1,1,1,0]",0,21,21,21,1,1,1,,,1,FALSE,,,,,,,,,,,,,,,,,,,,,,,,,,,,,,,
,6109d2c5525e33fb9443d3a7,627c6f76dba79a738eec4b8d,2022-05-11_22h23.28.238,classification_task,2021.2.3,MacIntel,59.99880002,627c6715c52fd12f31907bd0,,,,,,,,,,,,,,,,,,,,,,,l,1,1.5166,"[""0.036"",""0.411"",""0.557"",""0.686""]","[1,1,0,1]",0,22,22,22,1,1,1,,,1,FALSE,,,,,,,,,,,,,,,,,,,,,,,,,,,,,,,
,6109d2c5525e33fb9443d3a7,627c6f76dba79a738eec4b8d,2022-05-11_22h23.28.238,classification_task,2021.2.3,MacIntel,59.99880002,627c6715c52fd12f31907bd0,,,,,,,,,,,,,,,,,,,,,,,l,1,2.0667,"[""0.036"",""0.557"",""0.594"",""0.686""]","[1,0,1,1]",0,23,23,23,1,1,1,,,1,FALSE,,,,,,,,,,,,,,,,,,,,,,,,,,,,,,,
,6109d2c5525e33fb9443d3a7,627c6f76dba79a738eec4b8d,2022-05-11_22h23.28.238,classification_task,2021.2.3,MacIntel,59.99880002,627c6715c52fd12f31907bd0,,,,,,,,,,,,,,,,,,,,,,,l,0,2.62,"[""0.289"",""0.557"",""0.835"",""0.963""]","[1,0,1,1]",0,24,24,24,1,0,0,,,1,FALSE,,,,,,,,,,,,,,,,,,,,,,,,,,,,,,,
,6109d2c5525e33fb9443d3a7,627c6f76dba79a738eec4b8d,2022-05-11_22h23.28.238,classification_task,2021.2.3,MacIntel,59.99880002,627c6715c52fd12f31907bd0,,,,,,,,,,,,,,,,,,,,,,,a,1,2.9074,"[""0.162"",""0.348"",""0.541"",""0.904""]","[1,1,0,1]",0,25,25,25,1,0,1,,,1,FALSE,,,,,,,,,,,,,,,,,,,,,,,,,,,,,,,
,6109d2c5525e33fb9443d3a7,627c6f76dba79a738eec4b8d,2022-05-11_22h23.28.238,classification_task,2021.2.3,MacIntel,59.99880002,627c6715c52fd12f31907bd0,,,,,,,,,,,,,,,,,,,,,,,l,1,2.8203,"[""0.116"",""0.557"",""0.505"",""0.752""]","[1,0,1,1]",0,26,26,26,1,1,0,,,1,FALSE,,,,,,,,,,,,,,,,,,,,,,,,,,,,,,,
,6109d2c5525e33fb9443d3a7,627c6f76dba79a738eec4b8d,2022-05-11_22h23.28.238,classification_task,2021.2.3,MacIntel,59.99880002,627c6715c52fd12f31907bd0,,,,,,,,,,,,,,,,,,,,,,,l,1,3.0236,"[""0.634"",""0.411"",""0.594"",""0.686""]","[0,1,1,1]",0,27,27,27,1,1,1,,,1,FALSE,,,,,,,,,,,,,,,,,,,,,,,,,,,,,,,
,6109d2c5525e33fb9443d3a7,627c6f76dba79a738eec4b8d,2022-05-11_22h23.28.238,classification_task,2021.2.3,MacIntel,59.99880002,627c6715c52fd12f31907bd0,,,,,,,,,,,,,,,,,,,,,,,l,0,1.6543,"[""0.289"",""0.466"",""0.835"",""0.557""]","[1,1,1,0]",0,28,28,28,1,0,0,,,1,FALSE,,,,,,,,,,,,,,,,,,,,,,,,,,,,,,,
,6109d2c5525e33fb9443d3a7,627c6f76dba79a738eec4b8d,2022-05-11_22h23.28.238,classification_task,2021.2.3,MacIntel,59.99880002,627c6715c52fd12f31907bd0,,,,,,,,,,,,,,,,,,,,,,,a,1,3.435,"[""0.289"",""0.466"",""0.649"",""0.963""]","[1,1,0,1]",0,29,29,29,1,0,0,,,1,FALSE,,,,,,,,,,,,,,,,,,,,,,,,,,,,,,,
,6109d2c5525e33fb9443d3a7,627c6f76dba79a738eec4b8d,2022-05-11_22h23.28.238,classification_task,2021.2.3,MacIntel,59.99880002,627c6715c52fd12f31907bd0,,,,,,,,,,,,,,,,,,,,,,,a,1,1.3557,"[""0.162"",""0.348"",""0.869"",""0.549""]","[1,1,1,0]",0,30,30,30,1,0,1,,,1,FALSE,,,,,,,,,,,,,,,,,,,,,,,,,,,,,,,
,6109d2c5525e33fb9443d3a7,627c6f76dba79a738eec4b8d,2022-05-11_22h23.28.238,classification_task,2021.2.3,MacIntel,59.99880002,627c6715c52fd12f31907bd0,,,,,,,,,,,,,,,,,,,,,,,l,0,3.0511,"[""0.635"",""0.466"",""0.835"",""0.963""]","[0,1,1,1]",0,31,31,31,1,0,0,,,1,FALSE,,,,,,,,,,,,,,,,,,,,,,,,,,,,,,,
,6109d2c5525e33fb9443d3a7,627c6f76dba79a738eec4b8d,2022-05-11_22h23.28.238,classification_task,2021.2.3,MacIntel,59.99880002,627c6715c52fd12f31907bd0,,,,,,,,,,,,,,,,,,,,,,,l,0,1.8378,"[""0.289"",""0.466"",""0.835"",""0.649""]","[1,1,1,0]",0,32,32,32,1,0,0,,,1,FALSE,,,,,,,,,,,,,,,,,,,,,,,,,,,,,,,
,6109d2c5525e33fb9443d3a7,627c6f76dba79a738eec4b8d,2022-05-11_22h23.28.238,classification_task,2021.2.3,MacIntel,59.99880002,627c6715c52fd12f31907bd0,,,,,,,,,,,,,,,,,,,,,,,a,1,0.9543,"[""0.198"",""0.348"",""0.869"",""0.904""]","[0,1,1,1]",0,33,33,33,1,0,1,,,1,FALSE,,,,,,,,,,,,,,,,,,,,,,,,,,,,,,,
,6109d2c5525e33fb9443d3a7,627c6f76dba79a738eec4b8d,2022-05-11_22h23.28.238,classification_task,2021.2.3,MacIntel,59.99880002,627c6715c52fd12f31907bd0,,,,,,,,,,,,,,,,,,,,,,,l,1,3.2805,"[""0.554"",""0.232"",""0.505"",""0.752""]","[0,1,1,1]",0,34,34,34,1,1,0,,,1,FALSE,,,,,,,,,,,,,,,,,,,,,,,,,,,,,,,
,6109d2c5525e33fb9443d3a7,627c6f76dba79a738eec4b8d,2022-05-11_22h23.28.238,classification_task,2021.2.3,MacIntel,59.99880002,627c6715c52fd12f31907bd0,,,,,,,,,,,,,,,,,,,,,,,l,1,1.8052,"[""0.116"",""0.232"",""0.551"",""0.752""]","[1,1,0,1]",0,35,35,35,1,1,0,,,1,FALSE,,,,,,,,,,,,,,,,,,,,,,,,,,,,,,,
,6109d2c5525e33fb9443d3a7,627c6f76dba79a738eec4b8d,2022-05-11_22h23.28.238,classification_task,2021.2.3,MacIntel,59.99880002,627c6715c52fd12f31907bd0,,,,,,,,,,,,,,,,,,,,,,,l,1,2.3492,"[""0.036"",""0.643"",""0.594"",""0.686""]","[1,0,1,1]",0,36,36,36,1,1,1,,,1,FALSE,,,,,,,,,,,,,,,,,,,,,,,,,,,,,,,
,6109d2c5525e33fb9443d3a7,627c6f76dba79a738eec4b8d,2022-05-11_22h23.28.238,classification_task,2021.2.3,MacIntel,59.99880002,627c6715c52fd12f31907bd0,,,,,,,,,,,,,,,,,,,,,,,l,1,1.3561,"[""0.036"",""0.411"",""0.551"",""0.686""]","[1,1,0,1]",0,37,37,37,1,1,1,,,1,FALSE,,,,,,,,,,,,,,,,,,,,,,,,,,,,,,,
,6109d2c5525e33fb9443d3a7,627c6f76dba79a738eec4b8d,2022-05-11_22h23.28.238,classification_task,2021.2.3,MacIntel,59.99880002,627c6715c52fd12f31907bd0,,,,,,,,,,,,,,,,,,,,,,,a,0,3.1845,"[""0.642"",""0.411"",""0.594"",""0.686""]","[0,1,1,1]",0,38,38,38,1,1,1,,,1,FALSE,,,,,,,,,,,,,,,,,,,,,,,,,,,,,,,
,6109d2c5525e33fb9443d3a7,627c6f76dba79a738eec4b8d,2022-05-11_22h23.28.238,classification_task,2021.2.3,MacIntel,59.99880002,627c6715c52fd12f31907bd0,,,,,,,,,,,,,,,,,,,,,,,a,1,0.9045,"[""0.162"",""0.348"",""0.557"",""0.904""]","[1,1,0,1]",0,39,39,39,1,0,1,,,1,FALSE,,,,,,,,,,,,,,,,,,,,,,,,,,,,,,,
,6109d2c5525e33fb9443d3a7,627c6f76dba79a738eec4b8d,2022-05-11_22h23.28.238,classification_task,2021.2.3,MacIntel,59.99880002,627c6715c52fd12f31907bd0,,,,,,,,,,,,,,,,,,,,,,,l,1,3.5297,"[""0.116"",""0.232"",""0.505"",""0.541""]","[1,1,1,0]",0,40,40,40,1,1,0,,,1,FALSE,,,,,,,,,,,,,,,,,,,,,,,,,,,,,,,
,6109d2c5525e33fb9443d3a7,627c6f76dba79a738eec4b8d,2022-05-11_22h23.28.238,classification_task,2021.2.3,MacIntel,59.99880002,627c6715c52fd12f31907bd0,,,,,,,,,,,,,,,,,,,,,,,a,0,4.3542,"[""0.116"",""0.083"",""0.505"",""0.752""]","[1,0,1,1]",0,41,41,41,1,1,0,,,1,FALSE,,,,,,,,,,,,,,,,,,,,,,,,,,,,,,,
,6109d2c5525e33fb9443d3a7,627c6f76dba79a738eec4b8d,2022-05-11_22h23.28.238,classification_task,2021.2.3,MacIntel,59.99880002,627c6715c52fd12f31907bd0,,,,,,,,,,,,,,,,,,,,,,,a,1,1.1714,"[""0.162"",""0.642"",""0.869"",""0.904""]","[1,0,1,1]",0,42,42,42,1,0,1,,,1,FALSE,,,,,,,,,,,,,,,,,,,,,,,,,,,,,,,
,6109d2c5525e33fb9443d3a7,627c6f76dba79a738eec4b8d,2022-05-11_22h23.28.238,classification_task,2021.2.3,MacIntel,59.99880002,627c6715c52fd12f31907bd0,,,,,,,,,,,,,,,,,,,,,,,a,1,1.3484,"[""0.162"",""0.348"",""0.869"",""0.634""]","[1,1,1,0]",0,43,43,43,1,0,1,,,1,FALSE,,,,,,,,,,,,,,,,,,,,,,,,,,,,,,,
,6109d2c5525e33fb9443d3a7,627c6f76dba79a738eec4b8d,2022-05-11_22h23.28.238,classification_task,2021.2.3,MacIntel,59.99880002,627c6715c52fd12f31907bd0,,,,,,,,,,,,,,,,,,,,,,,l,0,1.5942,"[""0.551"",""0.466"",""0.835"",""0.963""]","[0,1,1,1]",0,44,44,44,1,0,0,,,1,FALSE,,,,,,,,,,,,,,,,,,,,,,,,,,,,,,,
,6109d2c5525e33fb9443d3a7,627c6f76dba79a738eec4b8d,2022-05-11_22h23.28.238,classification_task,2021.2.3,MacIntel,59.99880002,627c6715c52fd12f31907bd0,,,,,,,,,,,,,,,,,,,,,,,l,0,2.3803,"[""0.289"",""0.466"",""0.795"",""0.963""]","[1,1,0,1]",0,45,45,45,1,0,0,,,1,FALSE,,,,,,,,,,,,,,,,,,,,,,,,,,,,,,,
,6109d2c5525e33fb9443d3a7,627c6f76dba79a738eec4b8d,2022-05-11_22h23.28.238,classification_task,2021.2.3,MacIntel,59.99880002,627c6715c52fd12f31907bd0,,,,,,,,,,,,,,,,,,,,,,,l,1,2.2629,"[""0.036"",""0.411"",""0.594"",""0.198""]","[1,1,1,0]",0,46,46,46,1,1,1,,,1,FALSE,,,,,,,,,,,,,,,,,,,,,,,,,,,,,,,
,6109d2c5525e33fb9443d3a7,627c6f76dba79a738eec4b8d,2022-05-11_22h23.28.238,classification_task,2021.2.3,MacIntel,59.99880002,627c6715c52fd12f31907bd0,,,,,,,,,,,,,,,,,,,,,,,l,0,2.0059,"[""0.289"",""0.541"",""0.835"",""0.963""]","[1,0,1,1]",0,47,47,47,1,0,0,,,1,FALSE,,,,,,,,,,,,,,,,,,,,,,,,,,,,,,,
,6109d2c5525e33fb9443d3a7,627c6f76dba79a738eec4b8d,2022-05-11_22h23.28.238,classification_task,2021.2.3,MacIntel,59.99880002,627c6715c52fd12f31907bd0,,,,,,,,,,,,,,,,,,,,,,,a,1,1.38,"[""0.162"",""0.348"",""0.869"",""0.083""]","[1,1,1,0]",0,48,48,48,1,0,1,,,1,FALSE,,,,,,,,,,,,,,,,,,,,,,,,,,,,,,,
,6109d2c5525e33fb9443d3a7,627c6f76dba79a738eec4b8d,2022-05-11_22h23.28.238,classification_task,2021.2.3,MacIntel,59.99880002,627c6715c52fd12f31907bd0,,,,,,,,,,,,,,,,,,,,,,,l,0,3.1861,"[""0.289"",""0.634"",""0.835"",""0.963""]","[1,0,1,1]",0,49,49,49,1,0,0,,,1,FALSE,,,,,,,,,,,,,,,,,,,,,,,,,,,,,,,
,6109d2c5525e33fb9443d3a7,627c6f76dba79a738eec4b8d,2022-05-11_22h23.28.238,classification_task,2021.2.3,MacIntel,59.99880002,627c6715c52fd12f31907bd0,,,,,,,,,,,,,,,,,,,,,,,l,0,2.5894,"[""0.289"",""0.466"",""0.551"",""0.963""]","[1,1,0,1]",0,50,50,50,1,0,0,,,1,FALSE,,,,,,,,,,,,,,,,,,,,,,,,,,,,,,,
,6109d2c5525e33fb9443d3a7,627c6f76dba79a738eec4b8d,2022-05-11_22h23.28.238,classification_task,2021.2.3,MacIntel,59.99880002,627c6715c52fd12f31907bd0,,,,,,,,,,,,,,,,,,,,,,,l,1,1.9715,"[""0.036"",""0.642"",""0.594"",""0.686""]","[1,0,1,1]",0,51,51,51,1,1,1,,,1,FALSE,,,,,,,,,,,,,,,,,,,,,,,,,,,,,,,
,6109d2c5525e33fb9443d3a7,627c6f76dba79a738eec4b8d,2022-05-11_22h23.28.238,classification_task,2021.2.3,MacIntel,59.99880002,627c6715c52fd12f31907bd0,,,,,,,,,,,,,,,,,,,,,,,l,0,2.9177,"[""0.635"",""0.466"",""0.835"",""0.963""]","[0,1,1,1]",0,52,52,52,1,0,0,,,1,FALSE,,,,,,,,,,,,,,,,,,,,,,,,,,,,,,,
,6109d2c5525e33fb9443d3a7,627c6f76dba79a738eec4b8d,2022-05-11_22h23.28.238,classification_task,2021.2.3,MacIntel,59.99880002,627c6715c52fd12f31907bd0,,,,,,,,,,,,,,,,,,,,,,,l,1,4.0556,"[""0.116"",""0.232"",""0.557"",""0.752""]","[1,1,0,1]",0,53,53,53,1,1,0,,,1,FALSE,,,,,,,,,,,,,,,,,,,,,,,,,,,,,,,
,6109d2c5525e33fb9443d3a7,627c6f76dba79a738eec4b8d,2022-05-11_22h23.28.238,classification_task,2021.2.3,MacIntel,59.99880002,627c6715c52fd12f31907bd0,,,,,,,,,,,,,,,,,,,,,,,l,1,2.9263,"[""0.634"",""0.411"",""0.594"",""0.686""]","[0,1,1,1]",0,54,54,54,1,1,1,,,1,FALSE,,,,,,,,,,,,,,,,,,,,,,,,,,,,,,,
,6109d2c5525e33fb9443d3a7,627c6f76dba79a738eec4b8d,2022-05-11_22h23.28.238,classification_task,2021.2.3,MacIntel,59.99880002,627c6715c52fd12f31907bd0,,,,,,,,,,,,,,,,,,,,,,,a,1,0.9879,"[""0.557"",""0.348"",""0.869"",""0.904""]","[0,1,1,1]",0,55,55,55,1,0,1,,,1,FALSE,,,,,,,,,,,,,,,,,,,,,,,,,,,,,,,
,6109d2c5525e33fb9443d3a7,627c6f76dba79a738eec4b8d,2022-05-11_22h23.28.238,classification_task,2021.2.3,MacIntel,59.99880002,627c6715c52fd12f31907bd0,,,,,,,,,,,,,,,,,,,,,,,l,1,4.2624,"[""0.116"",""0.635"",""0.505"",""0.752""]","[1,0,1,1]",0,56,56,56,1,1,0,,,1,FALSE,,,,,,,,,,,,,,,,,,,,,,,,,,,,,,,
,6109d2c5525e33fb9443d3a7,627c6f76dba79a738eec4b8d,2022-05-11_22h23.28.238,classification_task,2021.2.3,MacIntel,59.99880002,627c6715c52fd12f31907bd0,,,,,,,,,,,,,,,,,,,,,,,l,1,1.8257,"[""0.036"",""0.411"",""0.594"",""0.083""]","[1,1,1,0]",0,57,57,57,1,1,1,,,1,FALSE,,,,,,,,,,,,,,,,,,,,,,,,,,,,,,,
,6109d2c5525e33fb9443d3a7,627c6f76dba79a738eec4b8d,2022-05-11_22h23.28.238,classification_task,2021.2.3,MacIntel,59.99880002,627c6715c52fd12f31907bd0,,,,,,,,,,,,,,,,,,,,,,,a,0,2.6875,"[""0.116"",""0.232"",""0.505"",""0.198""]","[1,1,1,0]",0,58,58,58,1,1,0,,,1,FALSE,,,,,,,,,,,,,,,,,,,,,,,,,,,,,,,
,6109d2c5525e33fb9443d3a7,627c6f76dba79a738eec4b8d,2022-05-11_22h23.28.238,classification_task,2021.2.3,MacIntel,59.99880002,627c6715c52fd12f31907bd0,,,,,,,,,,,,,,,,,,,,,,,l,1,1.2724,"[""0.036"",""0.411"",""0.557"",""0.686""]","[1,1,0,1]",0,59,59,59,1,1,1,,,1,FALSE,,,,,,,,,,,,,,,,,,,,,,,,,,,,,,,
,6109d2c5525e33fb9443d3a7,627c6f76dba79a738eec4b8d,2022-05-11_22h23.28.238,classification_task,2021.2.3,MacIntel,59.99880002,627c6715c52fd12f31907bd0,,,,,,,,,,,,,,,,,,,,,,,a,1,2.0192,"[""0.162"",""0.348"",""0.800"",""0.904""]","[1,1,0,1]",0,60,60,60,1,0,1,,,1,FALSE,,,,,,,,,,,,,,,,,,,,,,,,,,,,,,,
,6109d2c5525e33fb9443d3a7,627c6f76dba79a738eec4b8d,2022-05-11_22h23.28.238,classification_task,2021.2.3,MacIntel,59.99880002,627c6715c52fd12f31907bd0,,,,,,,,,,,,,,,,,,,,,,,a,1,1.0324,"[""0.162"",""0.800"",""0.869"",""0.904""]","[1,0,1,1]",0,61,61,61,1,0,1,,,1,FALSE,,,,,,,,,,,,,,,,,,,,,,,,,,,,,,,
,6109d2c5525e33fb9443d3a7,627c6f76dba79a738eec4b8d,2022-05-11_22h23.28.238,classification_task,2021.2.3,MacIntel,59.99880002,627c6715c52fd12f31907bd0,,,,,,,,,,,,,,,,,,,,,,,l,1,1.9291,"[""0.800"",""0.232"",""0.505"",""0.752""]","[0,1,1,1]",0,62,62,62,1,1,0,,,1,FALSE,,,,,,,,,,,,,,,,,,,,,,,,,,,,,,,
,6109d2c5525e33fb9443d3a7,627c6f76dba79a738eec4b8d,2022-05-11_22h23.28.238,classification_task,2021.2.3,MacIntel,59.99880002,627c6715c52fd12f31907bd0,,,,,,,,,,,,,,,,,,,,,,,l,0,2.3721,"[""0.289"",""0.466"",""0.835"",""0.549""]","[1,1,1,0]",0,63,63,63,1,0,0,,,1,FALSE,,,,,,,,,,,,,,,,,,,,,,,,,,,,,,,
,6109d2c5525e33fb9443d3a7,627c6f76dba79a738eec4b8d,2022-05-11_22h23.28.238,classification_task,2021.2.3,MacIntel,59.99880002,627c6715c52fd12f31907bd0,,,,,,,,,,,,,,,,,,,,,,,,,,,,,,,,,,,,,,,0, ,,0,2.553842983,224.7279,0,2,2,2,1,2,3,,,,,,,,,,,,,,,,,,
,6109d2c5525e33fb9443d3a7,627c6f76dba79a738eec4b8d,2022-05-11_22h23.28.238,classification_task,2021.2.3,MacIntel,59.99880002,627c6715c52fd12f31907bd0,,,,,,,,,,,,,,,,,,,,,,,,,,,,,,,,,,,,,,,1,  ,,0,5.170760292,226.3601,0,2,2,2,1,2,3,,,,,,,,,,,,,,,,,,
,6109d2c5525e33fb9443d3a7,627c6f76dba79a738eec4b8d,2022-05-11_22h23.28.238,classification_task,2021.2.3,MacIntel,59.99880002,627c6715c52fd12f31907bd0,,,,,,,,,,,,,,,,,,,,,,,,,,,,,,,,,,,,,,,2,  ,,0,6.84227676,229.1272,0,2,2,2,1,2,3,,,,,,,,,,,,,,,,,,
,6109d2c5525e33fb9443d3a7,627c6f76dba79a738eec4b8d,2022-05-11_22h23.28.238,classification_task,2021.2.3,MacIntel,59.99880002,627c6715c52fd12f31907bd0,,,,,,,,,,,,,,,,,,,,,,,,,,,,,,,,,,,,,,,,,,,,,0,2,2,2,1,,3,,,,,,,,,,,,,,,,,,
,6109d2c5525e33fb9443d3a7,627c6f76dba79a738eec4b8d,2022-05-11_22h23.28.238,classification_task,2021.2.3,MacIntel,59.99880002,627c6715c52fd12f31907bd0,,,,,,,,,,,,,,,,,,,,,,,,,,,,,,,,,,,,,,,,,,,,,,,,,,,,,I believe the aid is a competent performer,,0.7,0,4,972.7578,0,0,0,0,1,0,,,,,
,6109d2c5525e33fb9443d3a7,627c6f76dba79a738eec4b8d,2022-05-11_22h23.28.238,classification_task,2021.2.3,MacIntel,59.99880002,627c6715c52fd12f31907bd0,,,,,,,,,,,,,,,,,,,,,,,,,,,,,,,,,,,,,,,,,,,,,,,,,,,,,I trust the aid,,0.7,0,4,1007.1147,0,0,0,0,1,0,,,,,
,6109d2c5525e33fb9443d3a7,627c6f76dba79a738eec4b8d,2022-05-11_22h23.28.238,classification_task,2021.2.3,MacIntel,59.99880002,627c6715c52fd12f31907bd0,,,,,,,,,,,,,,,,,,,,,,,,,,,,,,,,,,,,,,,,,,,,,,,,,,,,,I have confidence in the advice given by the aid,,0.7,0,4,969.6511,0,0,0,0,1,0,,,,,
,6109d2c5525e33fb9443d3a7,627c6f76dba79a738eec4b8d,2022-05-11_22h23.28.238,classification_task,2021.2.3,MacIntel,59.99880002,627c6715c52fd12f31907bd0,,,,,,,,,,,,,,,,,,,,,,,,,,,,,,,,,,,,,,,,,,,,,,,,,,,,,I can depend on the aid,,0.7,0,2,974.4414,0,0,0,0,1,0,,,,,
,6109d2c5525e33fb9443d3a7,627c6f76dba79a738eec4b8d,2022-05-11_22h23.28.238,classification_task,2021.2.3,MacIntel,59.99880002,627c6715c52fd12f31907bd0,,,,,,,,,,,,,,,,,,,,,,,,,,,,,,,,,,,,,,,,,,,,,,,,,,,,,I can rely on the aid to behave in consistent ways,,0.7,0,4,984.9681,0,0,0,0,1,0,,,,,
,6109d2c5525e33fb9443d3a7,627c6f76dba79a738eec4b8d,2022-05-11_22h23.28.238,classification_task,2021.2.3,MacIntel,59.99880002,627c6715c52fd12f31907bd0,,,,,,,,,,,,,,,,,,,,,,,,,,,,,,,,,,,,,,,,,,,,,,,,,,,,,I can rely on the aid to do its best every time I take its advice,,0.7,0,4,1004.4605,0,0,0,0,1,0,,,,,
,6109d2c5525e33fb9443d3a7,627c6f76dba79a738eec4b8d,2022-05-11_22h23.28.238,classification_task,2021.2.3,MacIntel,59.99880002,627c6715c52fd12f31907bd0,,,,,,,,,,,,,,,,,,,,,,,,,,,,,,,,,,,,,,,,,,,,,,,,,,,,,"On trials you completed with assistance from the aid, how frequently did you think the aid was correct?",,0.7,0,90%,,0,0,0,0,1,0,,,,,
,6109d2c5525e33fb9443d3a7,627c6f76dba79a738eec4b8d,2022-05-11_22h23.28.238,classification_task,2021.2.3,MacIntel,59.99880002,627c6715c52fd12f31907bd0,,,,,,,,,,,,,,,,,,,,,,,,,,,,,,,,,,,,,,,,,,,,,,,,,,,,,"On trials you completed without the aid, how frequently did you think you were correct?",,0.7,0,60%,,0,0,0,0,1,0,,,,,
,6109d2c5525e33fb9443d3a7,627c6f76dba79a738eec4b8d,2022-05-11_22h23.28.238,classification_task,2021.2.3,MacIntel,59.99880002,627c6715c52fd12f31907bd0,,,,,,,,,,,,,,,,,,,,,,,,,,,,,,,,,,,,,,,,,,,,,,,,,,,,,,,,,,,0,0,0,0,1,,,,,,
,6109d2c5525e33fb9443d3a7,627c6f76dba79a738eec4b8d,2022-05-11_22h23.28.238,classification_task,2021.2.3,MacIntel,59.99880002,627c6715c52fd12f31907bd0,,,,,,,,,,,,,,,,,,,,,,,,,,,,,,,,,,,,,,,,,,,,,,,,,,,,,,,,,,,,,,,,,space,11.3885,1053.104,,
,6109d2c5525e33fb9443d3a7,627c6f76dba79a738eec4b8d,2022-05-11_22h23.28.238,classification_task,2021.2.3,MacIntel,59.99880002,627c6715c52fd12f31907bd0,,,,,,,,,,,,,,,,,,,,,,,,,,,,,,,,,,,,,,,,,,,,,,,,,,,,,,,,,,,,,,,,,,,,"Mozilla/5.0 (Macintosh; Intel Mac OS X 10_15_7) AppleWebKit/537.36 (KHTML, like Gecko) Chrome/100.0.4896.127 Safari/537.36",
,6109d2c5525e33fb9443d3a7,627c6f76dba79a738eec4b8d,2022-05-11_22h23.28.238,classification_task,2021.2.3,MacIntel,59.99880002,627c6715c52fd12f31907bd0,,,,,,,,,,,,,,,,,,,,,,,,,,,,,,,,,,,,,,,,,,,,,,,,,,,,,,,,,,,,,,,,,,,,,FADING
