usingWebGL,participant,session,date,expName,psychopyVersion,OS,frameRate,study_id,signatures_friend,signatures_foe,band_ranges_top,band_ranges_bottom,formitemText,formtype,formundefined,formitemWidth,formindex,formresponse,formrt,key_resp_2.keys,key_resp_2.rt,tute_resp.keys,tute_resp.rt,tutorial.thisRepN,tutorial.thisTrialN,tutorial.thisN,tutorial.thisIndex,tutorial.ran,key_resp_4.keys,key_resp_4.rt,key_resp.keys,key_resp.corr,key_resp.rt,lines_presented,is_signal_presented,trials.thisRepN,trials.thisTrialN,trials.thisN,trials.thisIndex,trials.ran,vessel,active_band,lines,is_signal,supported_pos,catch_trial,debrief_formindex,debrief_formitemText,debrief_formtype,debrief_formitemWidth,debrief_formresponse,debrief_formrt,phases.thisRepN,phases.thisTrialN,phases.thisN,phases.thisIndex,phases.ran,phases.order,phase,key_resp_3.keys,trustitemText,trusttype,trustitemWidth,trustindex,trustresponse,trustrt,support_status.thisRepN,support_status.thisTrialN,support_status.thisN,support_status.thisIndex,support_status.ran,support_status.order,key_resp_5.keys,key_resp_5.rt,globalClockTime,userAgent,manualCondition
TRUE,610ca409afdd73dfb308f1c8,627c6f917929ddf571594b9c,2022-05-12_04h26.43.173,classification_task,2021.2.3,Win32,60.07810153,627c6715c52fd12f31907bcf,,,,,,,,,,,,,,,,,,,,,,,,,,,,,,,,,,,,,,,,,,,,,,,,,,,,,,,,,,,,,,,,,,,,,
,610ca409afdd73dfb308f1c8,627c6f917929ddf571594b9c,2022-05-12_04h26.43.173,classification_task,2021.2.3,Win32,60.07810153,627c6715c52fd12f31907bcf,"[[""0.257"",""0.360"",""0.619"",""0.869""],[""0.182"",""0.513"",""0.804"",""0.921""]]","[[""0.115"",""0.216"",""0.478"",""0.686""],[""0.027"",""0.066"",""0.573"",""0.767""]]","[1,10]","[100,1000]",Video game experience,,,0.7,0,,,,,,,,,,,,,,,,,,,,,,,,,,,,,,,,,,,,,,,,,,,,,,,,,,,,,,,,,,,,
,610ca409afdd73dfb308f1c8,627c6f917929ddf571594b9c,2022-05-12_04h26.43.173,classification_task,2021.2.3,Win32,60.07810153,627c6715c52fd12f31907bcf,,,,,Approximately how many hours did you spend playing video games in the last week?,,,0.7,0,4,,,,,,,,,,,,,,,,,,,,,,,,,,,,,,,,,,,,,,,,,,,,,,,,,,,,,,,,,,,
,610ca409afdd73dfb308f1c8,627c6f917929ddf571594b9c,2022-05-12_04h26.43.173,classification_task,2021.2.3,Win32,60.07810153,627c6715c52fd12f31907bcf,,,,,"Which game did you play the most this year? (Enter ""None"" if you didn't play any)",,,0.7,0,Need for Speed,,,,,,,,,,,,,,,,,,,,,,,,,,,,,,,,,,,,,,,,,,,,,,,,,,,,,,,,,,,
,610ca409afdd73dfb308f1c8,627c6f917929ddf571594b9c,2022-05-12_04h26.43.173,classification_task,2021.2.3,Win32,60.07810153,627c6715c52fd12f31907bcf,,,,,Visual perception,,,0.7,0,,,,,,,,,,,,,,,,,,,,,,,,,,,,,,,,,,,,,,,,,,,,,,,,,,,,,,,,,,,,
,610ca409afdd73dfb308f1c8,627c6f917929ddf571594b9c,2022-05-12_04h26.43.173,classification_task,2021.2.3,Win32,60.07810153,627c6715c52fd12f31907bcf,,,,,Do you have any form of color blindness?,,,0.7,0,No,24.6326,,,,,,,,,,,,,,,,,,,,,,,,,,,,,,,,,,,,,,,,,,,,,,,,,,,,,,,,,,
,610ca409afdd73dfb308f1c8,627c6f917929ddf571594b9c,2022-05-12_04h26.43.173,classification_task,2021.2.3,Win32,60.07810153,627c6715c52fd12f31907bcf,,,,,Do you use software to change the colour temperature of your screen (e.g. f.lux)?,,,0.7,0,No,28.9012,,,,,,,,,,,,,,,,,,,,,,,,,,,,,,,,,,,,,,,,,,,,,,,,,,,,,,,,,,
,610ca409afdd73dfb308f1c8,627c6f917929ddf571594b9c,2022-05-12_04h26.43.173,classification_task,2021.2.3,Win32,60.07810153,627c6715c52fd12f31907bcf,,,,,,,,,,,,space,28.7185,space,7.0984,0,0,0,0,1,,,,,,,,,,,,,,,,,,,,,,,,,,,,,,,,,,,,,,,,,,,,,,,,,
,610ca409afdd73dfb308f1c8,627c6f917929ddf571594b9c,2022-05-12_04h26.43.173,classification_task,2021.2.3,Win32,60.07810153,627c6715c52fd12f31907bcf,,,,,,,,,,,,,,space,5.9932,1,0,1,0,1,,,,,,,,,,,,,,,,,,,,,,,,,,,,,,,,,,,,,,,,,,,,,,,,,
,610ca409afdd73dfb308f1c8,627c6f917929ddf571594b9c,2022-05-12_04h26.43.173,classification_task,2021.2.3,Win32,60.07810153,627c6715c52fd12f31907bcf,,,,,,,,,,,,,,space,13.3623,2,0,2,0,1,,,,,,,,,,,,,,,,,,,,,,,,,,,,,,,,,,,,,,,,,,,,,,,,,
,610ca409afdd73dfb308f1c8,627c6f917929ddf571594b9c,2022-05-12_04h26.43.173,classification_task,2021.2.3,Win32,60.07810153,627c6715c52fd12f31907bcf,,,,,,,,,,,,,,space,9.7295,3,0,3,0,1,,,,,,,,,,,,,,,,,,,,,,,,,,,,,,,,,,,,,,,,,,,,,,,,,
,610ca409afdd73dfb308f1c8,627c6f917929ddf571594b9c,2022-05-12_04h26.43.173,classification_task,2021.2.3,Win32,60.07810153,627c6715c52fd12f31907bcf,,,,,,,,,,,,,,space,16.3672,4,0,4,0,1,,,,,,,,,,,,,,,,,,,,,,,,,,,,,,,,,,,,,,,,,,,,,,,,,
,610ca409afdd73dfb308f1c8,627c6f917929ddf571594b9c,2022-05-12_04h26.43.173,classification_task,2021.2.3,Win32,60.07810153,627c6715c52fd12f31907bcf,,,,,,,,,,,,,,,,,,,,,space,18.6394,a,1,2.9598,"[""0.257"",""0.293"",""0.619"",""0.869""]","[1,0,1,1]",0,0,0,0,1,0,0,,,0,FALSE,,,,,,,,,,,,,,,,,,,,,,,,,,,,,,,
,610ca409afdd73dfb308f1c8,627c6f917929ddf571594b9c,2022-05-12_04h26.43.173,classification_task,2021.2.3,Win32,60.07810153,627c6715c52fd12f31907bcf,,,,,,,,,,,,,,,,,,,,,,,l,1,2.55,"[""0.115"",""0.216"",""0.963"",""0.686""]","[1,1,0,1]",0,1,1,1,1,1,0,,,0,FALSE,,,,,,,,,,,,,,,,,,,,,,,,,,,,,,,
,610ca409afdd73dfb308f1c8,627c6f917929ddf571594b9c,2022-05-12_04h26.43.173,classification_task,2021.2.3,Win32,60.07810153,627c6715c52fd12f31907bcf,,,,,,,,,,,,,,,,,,,,,,,l,1,2.5789,"[""0.027"",""0.066"",""0.573"",""0.417""]","[1,1,1,0]",0,2,2,2,1,1,1,,,0,FALSE,,,,,,,,,,,,,,,,,,,,,,,,,,,,,,,
,610ca409afdd73dfb308f1c8,627c6f917929ddf571594b9c,2022-05-12_04h26.43.173,classification_task,2021.2.3,Win32,60.07810153,627c6715c52fd12f31907bcf,,,,,,,,,,,,,,,,,,,,,,,l,1,2.838,"[""0.027"",""0.066"",""0.322"",""0.767""]","[1,1,0,1]",0,3,3,3,1,1,1,,,0,FALSE,,,,,,,,,,,,,,,,,,,,,,,,,,,,,,,
,610ca409afdd73dfb308f1c8,627c6f917929ddf571594b9c,2022-05-12_04h26.43.173,classification_task,2021.2.3,Win32,60.07810153,627c6715c52fd12f31907bcf,,,,,,,,,,,,,,,,,,,,,,,l,0,2.2765,"[""0.963"",""0.360"",""0.619"",""0.869""]","[0,1,1,1]",0,4,4,4,1,0,0,,,0,FALSE,,,,,,,,,,,,,,,,,,,,,,,,,,,,,,,
,610ca409afdd73dfb308f1c8,627c6f917929ddf571594b9c,2022-05-12_04h26.43.173,classification_task,2021.2.3,Win32,60.07810153,627c6715c52fd12f31907bcf,,,,,,,,,,,,,,,,,,,,,,,l,1,2.5904,"[""0.115"",""0.216"",""0.478"",""0.963""]","[1,1,1,0]",0,5,5,5,1,1,0,,,0,FALSE,,,,,,,,,,,,,,,,,,,,,,,,,,,,,,,
,610ca409afdd73dfb308f1c8,627c6f917929ddf571594b9c,2022-05-12_04h26.43.173,classification_task,2021.2.3,Win32,60.07810153,627c6715c52fd12f31907bcf,,,,,,,,,,,,,,,,,,,,,,,a,1,4.1708,"[""0.971"",""0.513"",""0.804"",""0.921""]","[0,1,1,1]",0,6,6,6,1,0,1,,,0,FALSE,,,,,,,,,,,,,,,,,,,,,,,,,,,,,,,
,610ca409afdd73dfb308f1c8,627c6f917929ddf571594b9c,2022-05-12_04h26.43.173,classification_task,2021.2.3,Win32,60.07810153,627c6715c52fd12f31907bcf,,,,,,,,,,,,,,,,,,,,,,,l,1,2.235,"[""0.115"",""0.417"",""0.478"",""0.686""]","[1,0,1,1]",0,7,7,7,1,1,0,,,0,FALSE,,,,,,,,,,,,,,,,,,,,,,,,,,,,,,,
,610ca409afdd73dfb308f1c8,627c6f917929ddf571594b9c,2022-05-12_04h26.43.173,classification_task,2021.2.3,Win32,60.07810153,627c6715c52fd12f31907bcf,,,,,,,,,,,,,,,,,,,,,,,l,0,2.7547,"[""0.257"",""0.360"",""0.619"",""0.399""]","[1,1,1,0]",0,8,8,8,1,0,0,,,0,FALSE,,,,,,,,,,,,,,,,,,,,,,,,,,,,,,,
,610ca409afdd73dfb308f1c8,627c6f917929ddf571594b9c,2022-05-12_04h26.43.173,classification_task,2021.2.3,Win32,60.07810153,627c6715c52fd12f31907bcf,,,,,,,,,,,,,,,,,,,,,,,a,1,1.8572,"[""0.257"",""0.360"",""0.408"",""0.869""]","[1,1,0,1]",0,9,9,9,1,0,0,,,0,FALSE,,,,,,,,,,,,,,,,,,,,,,,,,,,,,,,
,610ca409afdd73dfb308f1c8,627c6f917929ddf571594b9c,2022-05-12_04h26.43.173,classification_task,2021.2.3,Win32,60.07810153,627c6715c52fd12f31907bcf,,,,,,,,,,,,,,,,,,,,,,,a,1,2.1789,"[""0.182"",""0.963"",""0.804"",""0.921""]","[1,0,1,1]",0,10,10,10,1,0,1,,,0,FALSE,,,,,,,,,,,,,,,,,,,,,,,,,,,,,,,
,610ca409afdd73dfb308f1c8,627c6f917929ddf571594b9c,2022-05-12_04h26.43.173,classification_task,2021.2.3,Win32,60.07810153,627c6715c52fd12f31907bcf,,,,,,,,,,,,,,,,,,,,,,,a,1,1.9395,"[""0.182"",""0.513"",""0.963"",""0.921""]","[1,1,0,1]",0,11,11,11,1,0,1,,,0,FALSE,,,,,,,,,,,,,,,,,,,,,,,,,,,,,,,
,610ca409afdd73dfb308f1c8,627c6f917929ddf571594b9c,2022-05-12_04h26.43.173,classification_task,2021.2.3,Win32,60.07810153,627c6715c52fd12f31907bcf,,,,,,,,,,,,,,,,,,,,,,,l,1,1.7836,"[""0.406"",""0.066"",""0.573"",""0.767""]","[0,1,1,1]",0,12,12,12,1,1,1,,,0,FALSE,,,,,,,,,,,,,,,,,,,,,,,,,,,,,,,
,610ca409afdd73dfb308f1c8,627c6f917929ddf571594b9c,2022-05-12_04h26.43.173,classification_task,2021.2.3,Win32,60.07810153,627c6715c52fd12f31907bcf,,,,,,,,,,,,,,,,,,,,,,,a,1,1.7588,"[""0.182"",""0.513"",""0.804"",""0.408""]","[1,1,1,0]",0,13,13,13,1,0,1,,,0,FALSE,,,,,,,,,,,,,,,,,,,,,,,,,,,,,,,
,610ca409afdd73dfb308f1c8,627c6f917929ddf571594b9c,2022-05-12_04h26.43.173,classification_task,2021.2.3,Win32,60.07810153,627c6715c52fd12f31907bcf,,,,,,,,,,,,,,,,,,,,,,,l,1,2.015,"[""0.027"",""0.293"",""0.573"",""0.767""]","[1,0,1,1]",0,14,14,14,1,1,1,,,0,FALSE,,,,,,,,,,,,,,,,,,,,,,,,,,,,,,,
,610ca409afdd73dfb308f1c8,627c6f917929ddf571594b9c,2022-05-12_04h26.43.173,classification_task,2021.2.3,Win32,60.07810153,627c6715c52fd12f31907bcf,,,,,,,,,,,,,,,,,,,,,,,l,1,2.2606,"[""0.974"",""0.216"",""0.478"",""0.686""]","[0,1,1,1]",0,15,15,15,1,1,0,,,0,FALSE,,,,,,,,,,,,,,,,,,,,,,,,,,,,,,,
,610ca409afdd73dfb308f1c8,627c6f917929ddf571594b9c,2022-05-12_04h26.43.173,classification_task,2021.2.3,Win32,60.07810153,627c6715c52fd12f31907bcf,,,,,,,,,,,,,,,,,,,,,,,l,0,1.7828,"[""0.396"",""0.513"",""0.804"",""0.921""]","[0,1,1,1]",0,16,16,16,1,0,1,,,0,FALSE,,,,,,,,,,,,,,,,,,,,,,,,,,,,,,,
,610ca409afdd73dfb308f1c8,627c6f917929ddf571594b9c,2022-05-12_04h26.43.173,classification_task,2021.2.3,Win32,60.07810153,627c6715c52fd12f31907bcf,,,,,,,,,,,,,,,,,,,,,,,a,1,1.9844,"[""0.182"",""0.513"",""0.963"",""0.921""]","[1,1,0,1]",0,17,17,17,1,0,1,,,0,FALSE,,,,,,,,,,,,,,,,,,,,,,,,,,,,,,,
,610ca409afdd73dfb308f1c8,627c6f917929ddf571594b9c,2022-05-12_04h26.43.173,classification_task,2021.2.3,Win32,60.07810153,627c6715c52fd12f31907bcf,,,,,,,,,,,,,,,,,,,,,,,l,1,3.8923,"[""0.115"",""0.216"",""0.292"",""0.686""]","[1,1,0,1]",0,18,18,18,1,1,0,,,0,FALSE,,,,,,,,,,,,,,,,,,,,,,,,,,,,,,,
,610ca409afdd73dfb308f1c8,627c6f917929ddf571594b9c,2022-05-12_04h26.43.173,classification_task,2021.2.3,Win32,60.07810153,627c6715c52fd12f31907bcf,,,,,,,,,,,,,,,,,,,,,,,a,1,1.8234,"[""0.257"",""0.406"",""0.619"",""0.869""]","[1,0,1,1]",0,19,19,19,1,0,0,,,0,FALSE,,,,,,,,,,,,,,,,,,,,,,,,,,,,,,,
,610ca409afdd73dfb308f1c8,627c6f917929ddf571594b9c,2022-05-12_04h26.43.173,classification_task,2021.2.3,Win32,60.07810153,627c6715c52fd12f31907bcf,,,,,,,,,,,,,,,,,,,,,,,l,1,3.8573,"[""0.115"",""0.216"",""0.478"",""0.972""]","[1,1,1,0]",0,20,20,20,1,1,0,,,0,FALSE,,,,,,,,,,,,,,,,,,,,,,,,,,,,,,,
,610ca409afdd73dfb308f1c8,627c6f917929ddf571594b9c,2022-05-12_04h26.43.173,classification_task,2021.2.3,Win32,60.07810153,627c6715c52fd12f31907bcf,,,,,,,,,,,,,,,,,,,,,,,a,1,1.6916,"[""0.182"",""0.399"",""0.804"",""0.921""]","[1,0,1,1]",0,21,21,21,1,0,1,,,0,FALSE,,,,,,,,,,,,,,,,,,,,,,,,,,,,,,,
,610ca409afdd73dfb308f1c8,627c6f917929ddf571594b9c,2022-05-12_04h26.43.173,classification_task,2021.2.3,Win32,60.07810153,627c6715c52fd12f31907bcf,,,,,,,,,,,,,,,,,,,,,,,l,0,3.0694,"[""0.972"",""0.360"",""0.619"",""0.869""]","[0,1,1,1]",0,22,22,22,1,0,0,,,0,FALSE,,,,,,,,,,,,,,,,,,,,,,,,,,,,,,,
,610ca409afdd73dfb308f1c8,627c6f917929ddf571594b9c,2022-05-12_04h26.43.173,classification_task,2021.2.3,Win32,60.07810153,627c6715c52fd12f31907bcf,,,,,,,,,,,,,,,,,,,,,,,l,1,2.6531,"[""0.027"",""0.066"",""0.963"",""0.767""]","[1,1,0,1]",0,23,23,23,1,1,1,,,0,FALSE,,,,,,,,,,,,,,,,,,,,,,,,,,,,,,,
,610ca409afdd73dfb308f1c8,627c6f917929ddf571594b9c,2022-05-12_04h26.43.173,classification_task,2021.2.3,Win32,60.07810153,627c6715c52fd12f31907bcf,,,,,,,,,,,,,,,,,,,,,,,l,1,1.9767,"[""0.027"",""0.066"",""0.573"",""0.417""]","[1,1,1,0]",0,24,24,24,1,1,1,,,0,FALSE,,,,,,,,,,,,,,,,,,,,,,,,,,,,,,,
,610ca409afdd73dfb308f1c8,627c6f917929ddf571594b9c,2022-05-12_04h26.43.173,classification_task,2021.2.3,Win32,60.07810153,627c6715c52fd12f31907bcf,,,,,,,,,,,,,,,,,,,,,,,l,1,2.9402,"[""0.972"",""0.216"",""0.478"",""0.686""]","[0,1,1,1]",0,25,25,25,1,1,0,,,0,FALSE,,,,,,,,,,,,,,,,,,,,,,,,,,,,,,,
,610ca409afdd73dfb308f1c8,627c6f917929ddf571594b9c,2022-05-12_04h26.43.173,classification_task,2021.2.3,Win32,60.07810153,627c6715c52fd12f31907bcf,,,,,,,,,,,,,,,,,,,,,,,a,1,1.6118,"[""0.182"",""0.513"",""0.804"",""0.304""]","[1,1,1,0]",0,26,26,26,1,0,1,,,0,FALSE,,,,,,,,,,,,,,,,,,,,,,,,,,,,,,,
,610ca409afdd73dfb308f1c8,627c6f917929ddf571594b9c,2022-05-12_04h26.43.173,classification_task,2021.2.3,Win32,60.07810153,627c6715c52fd12f31907bcf,,,,,,,,,,,,,,,,,,,,,,,l,1,2.1814,"[""0.027"",""0.972"",""0.573"",""0.767""]","[1,0,1,1]",0,27,27,27,1,1,1,,,0,FALSE,,,,,,,,,,,,,,,,,,,,,,,,,,,,,,,
,610ca409afdd73dfb308f1c8,627c6f917929ddf571594b9c,2022-05-12_04h26.43.173,classification_task,2021.2.3,Win32,60.07810153,627c6715c52fd12f31907bcf,,,,,,,,,,,,,,,,,,,,,,,l,1,3.3637,"[""0.115"",""0.963"",""0.478"",""0.686""]","[1,0,1,1]",0,28,28,28,1,1,0,,,0,FALSE,,,,,,,,,,,,,,,,,,,,,,,,,,,,,,,
,610ca409afdd73dfb308f1c8,627c6f917929ddf571594b9c,2022-05-12_04h26.43.173,classification_task,2021.2.3,Win32,60.07810153,627c6715c52fd12f31907bcf,,,,,,,,,,,,,,,,,,,,,,,l,1,2.5944,"[""0.292"",""0.066"",""0.573"",""0.767""]","[0,1,1,1]",0,29,29,29,1,1,1,,,0,FALSE,,,,,,,,,,,,,,,,,,,,,,,,,,,,,,,
,610ca409afdd73dfb308f1c8,627c6f917929ddf571594b9c,2022-05-12_04h26.43.173,classification_task,2021.2.3,Win32,60.07810153,627c6715c52fd12f31907bcf,,,,,,,,,,,,,,,,,,,,,,,a,1,1.6358,"[""0.257"",""0.360"",""0.619"",""0.304""]","[1,1,1,0]",0,30,30,30,1,0,0,,,0,FALSE,,,,,,,,,,,,,,,,,,,,,,,,,,,,,,,
,610ca409afdd73dfb308f1c8,627c6f917929ddf571594b9c,2022-05-12_04h26.43.173,classification_task,2021.2.3,Win32,60.07810153,627c6715c52fd12f31907bcf,,,,,,,,,,,,,,,,,,,,,,,a,1,1.334,"[""0.257"",""0.360"",""0.963"",""0.869""]","[1,1,0,1]",0,31,31,31,1,0,0,,,0,FALSE,,,,,,,,,,,,,,,,,,,,,,,,,,,,,,,
,610ca409afdd73dfb308f1c8,627c6f917929ddf571594b9c,2022-05-12_04h26.43.173,classification_task,2021.2.3,Win32,60.07810153,627c6715c52fd12f31907bcf,,,,,,,,,,,,,,,,,,,,,,,a,0,3.7275,"[""0.115"",""0.216"",""0.478"",""0.408""]","[1,1,1,0]",0,32,32,32,1,1,0,,,0,FALSE,,,,,,,,,,,,,,,,,,,,,,,,,,,,,,,
,610ca409afdd73dfb308f1c8,627c6f917929ddf571594b9c,2022-05-12_04h26.43.173,classification_task,2021.2.3,Win32,60.07810153,627c6715c52fd12f31907bcf,,,,,,,,,,,,,,,,,,,,,,,l,1,2.2078,"[""0.027"",""0.394"",""0.573"",""0.767""]","[1,0,1,1]",0,33,33,33,1,1,1,,,0,FALSE,,,,,,,,,,,,,,,,,,,,,,,,,,,,,,,
,610ca409afdd73dfb308f1c8,627c6f917929ddf571594b9c,2022-05-12_04h26.43.173,classification_task,2021.2.3,Win32,60.07810153,627c6715c52fd12f31907bcf,,,,,,,,,,,,,,,,,,,,,,,l,1,1.5923,"[""0.027"",""0.066"",""0.322"",""0.767""]","[1,1,0,1]",0,34,34,34,1,1,1,,,0,FALSE,,,,,,,,,,,,,,,,,,,,,,,,,,,,,,,
,610ca409afdd73dfb308f1c8,627c6f917929ddf571594b9c,2022-05-12_04h26.43.173,classification_task,2021.2.3,Win32,60.07810153,627c6715c52fd12f31907bcf,,,,,,,,,,,,,,,,,,,,,,,a,0,1.3885,"[""0.309"",""0.216"",""0.478"",""0.686""]","[0,1,1,1]",0,35,35,35,1,1,0,,,0,FALSE,,,,,,,,,,,,,,,,,,,,,,,,,,,,,,,
,610ca409afdd73dfb308f1c8,627c6f917929ddf571594b9c,2022-05-12_04h26.43.173,classification_task,2021.2.3,Win32,60.07810153,627c6715c52fd12f31907bcf,,,,,,,,,,,,,,,,,,,,,,,l,1,1.4754,"[""0.974"",""0.066"",""0.573"",""0.767""]","[0,1,1,1]",0,36,36,36,1,1,1,,,0,FALSE,,,,,,,,,,,,,,,,,,,,,,,,,,,,,,,
,610ca409afdd73dfb308f1c8,627c6f917929ddf571594b9c,2022-05-12_04h26.43.173,classification_task,2021.2.3,Win32,60.07810153,627c6715c52fd12f31907bcf,,,,,,,,,,,,,,,,,,,,,,,a,1,1.1212,"[""0.257"",""0.292"",""0.619"",""0.869""]","[1,0,1,1]",0,37,37,37,1,0,0,,,0,FALSE,,,,,,,,,,,,,,,,,,,,,,,,,,,,,,,
,610ca409afdd73dfb308f1c8,627c6f917929ddf571594b9c,2022-05-12_04h26.43.173,classification_task,2021.2.3,Win32,60.07810153,627c6715c52fd12f31907bcf,,,,,,,,,,,,,,,,,,,,,,,l,1,1.5384,"[""0.115"",""0.971"",""0.478"",""0.686""]","[1,0,1,1]",0,38,38,38,1,1,0,,,0,FALSE,,,,,,,,,,,,,,,,,,,,,,,,,,,,,,,
,610ca409afdd73dfb308f1c8,627c6f917929ddf571594b9c,2022-05-12_04h26.43.173,classification_task,2021.2.3,Win32,60.07810153,627c6715c52fd12f31907bcf,,,,,,,,,,,,,,,,,,,,,,,l,1,1.1051,"[""0.115"",""0.216"",""0.417"",""0.686""]","[1,1,0,1]",0,39,39,39,1,1,0,,,0,FALSE,,,,,,,,,,,,,,,,,,,,,,,,,,,,,,,
,610ca409afdd73dfb308f1c8,627c6f917929ddf571594b9c,2022-05-12_04h26.43.173,classification_task,2021.2.3,Win32,60.07810153,627c6715c52fd12f31907bcf,,,,,,,,,,,,,,,,,,,,,,,a,1,1.1522,"[""0.182"",""0.513"",""0.804"",""0.406""]","[1,1,1,0]",0,40,40,40,1,0,1,,,0,FALSE,,,,,,,,,,,,,,,,,,,,,,,,,,,,,,,
,610ca409afdd73dfb308f1c8,627c6f917929ddf571594b9c,2022-05-12_04h26.43.173,classification_task,2021.2.3,Win32,60.07810153,627c6715c52fd12f31907bcf,,,,,,,,,,,,,,,,,,,,,,,a,1,1.256,"[""0.182"",""0.322"",""0.804"",""0.921""]","[1,0,1,1]",0,41,41,41,1,0,1,,,0,FALSE,,,,,,,,,,,,,,,,,,,,,,,,,,,,,,,
,610ca409afdd73dfb308f1c8,627c6f917929ddf571594b9c,2022-05-12_04h26.43.173,classification_task,2021.2.3,Win32,60.07810153,627c6715c52fd12f31907bcf,,,,,,,,,,,,,,,,,,,,,,,l,0,1.3367,"[""0.257"",""0.360"",""0.619"",""0.293""]","[1,1,1,0]",0,42,42,42,1,0,0,,,0,FALSE,,,,,,,,,,,,,,,,,,,,,,,,,,,,,,,
,610ca409afdd73dfb308f1c8,627c6f917929ddf571594b9c,2022-05-12_04h26.43.173,classification_task,2021.2.3,Win32,60.07810153,627c6715c52fd12f31907bcf,,,,,,,,,,,,,,,,,,,,,,,a,1,1.2895,"[""0.293"",""0.513"",""0.804"",""0.921""]","[0,1,1,1]",0,43,43,43,1,0,1,,,0,FALSE,,,,,,,,,,,,,,,,,,,,,,,,,,,,,,,
,610ca409afdd73dfb308f1c8,627c6f917929ddf571594b9c,2022-05-12_04h26.43.173,classification_task,2021.2.3,Win32,60.07810153,627c6715c52fd12f31907bcf,,,,,,,,,,,,,,,,,,,,,,,l,0,1.2668,"[""0.971"",""0.360"",""0.619"",""0.869""]","[0,1,1,1]",0,44,44,44,1,0,0,,,0,FALSE,,,,,,,,,,,,,,,,,,,,,,,,,,,,,,,
,610ca409afdd73dfb308f1c8,627c6f917929ddf571594b9c,2022-05-12_04h26.43.173,classification_task,2021.2.3,Win32,60.07810153,627c6715c52fd12f31907bcf,,,,,,,,,,,,,,,,,,,,,,,l,1,1.3299,"[""0.027"",""0.066"",""0.573"",""0.408""]","[1,1,1,0]",0,45,45,45,1,1,1,,,0,FALSE,,,,,,,,,,,,,,,,,,,,,,,,,,,,,,,
,610ca409afdd73dfb308f1c8,627c6f917929ddf571594b9c,2022-05-12_04h26.43.173,classification_task,2021.2.3,Win32,60.07810153,627c6715c52fd12f31907bcf,,,,,,,,,,,,,,,,,,,,,,,a,1,0.8839,"[""0.257"",""0.360"",""0.972"",""0.869""]","[1,1,0,1]",0,46,46,46,1,0,0,,,0,FALSE,,,,,,,,,,,,,,,,,,,,,,,,,,,,,,,
,610ca409afdd73dfb308f1c8,627c6f917929ddf571594b9c,2022-05-12_04h26.43.173,classification_task,2021.2.3,Win32,60.07810153,627c6715c52fd12f31907bcf,,,,,,,,,,,,,,,,,,,,,,,a,1,1.4613,"[""0.182"",""0.513"",""0.399"",""0.921""]","[1,1,0,1]",0,47,47,47,1,0,1,,,0,FALSE,,,,,,,,,,,,,,,,,,,,,,,,,,,,,,,
,610ca409afdd73dfb308f1c8,627c6f917929ddf571594b9c,2022-05-12_04h26.43.173,classification_task,2021.2.3,Win32,60.07810153,627c6715c52fd12f31907bcf,,,,,,,,,,,,,,,,,,,,,,,l,0,1.1389,"[""0.963"",""0.513"",""0.804"",""0.921""]","[0,1,1,1]",0,48,48,48,1,0,1,,,0,FALSE,,,,,,,,,,,,,,,,,,,,,,,,,,,,,,,
,610ca409afdd73dfb308f1c8,627c6f917929ddf571594b9c,2022-05-12_04h26.43.173,classification_task,2021.2.3,Win32,60.07810153,627c6715c52fd12f31907bcf,,,,,,,,,,,,,,,,,,,,,,,a,1,1.3375,"[""0.182"",""0.513"",""0.804"",""0.292""]","[1,1,1,0]",0,49,49,49,1,0,1,,,0,FALSE,,,,,,,,,,,,,,,,,,,,,,,,,,,,,,,
,610ca409afdd73dfb308f1c8,627c6f917929ddf571594b9c,2022-05-12_04h26.43.173,classification_task,2021.2.3,Win32,60.07810153,627c6715c52fd12f31907bcf,,,,,,,,,,,,,,,,,,,,,,,l,1,1.0927,"[""0.115"",""0.216"",""0.406"",""0.686""]","[1,1,0,1]",0,50,50,50,1,1,0,,,0,FALSE,,,,,,,,,,,,,,,,,,,,,,,,,,,,,,,
,610ca409afdd73dfb308f1c8,627c6f917929ddf571594b9c,2022-05-12_04h26.43.173,classification_task,2021.2.3,Win32,60.07810153,627c6715c52fd12f31907bcf,,,,,,,,,,,,,,,,,,,,,,,l,1,1.233,"[""0.027"",""0.971"",""0.573"",""0.767""]","[1,0,1,1]",0,51,51,51,1,1,1,,,0,FALSE,,,,,,,,,,,,,,,,,,,,,,,,,,,,,,,
,610ca409afdd73dfb308f1c8,627c6f917929ddf571594b9c,2022-05-12_04h26.43.173,classification_task,2021.2.3,Win32,60.07810153,627c6715c52fd12f31907bcf,,,,,,,,,,,,,,,,,,,,,,,l,1,1.1509,"[""0.115"",""0.216"",""0.478"",""0.971""]","[1,1,1,0]",0,52,52,52,1,1,0,,,0,FALSE,,,,,,,,,,,,,,,,,,,,,,,,,,,,,,,
,610ca409afdd73dfb308f1c8,627c6f917929ddf571594b9c,2022-05-12_04h26.43.173,classification_task,2021.2.3,Win32,60.07810153,627c6715c52fd12f31907bcf,,,,,,,,,,,,,,,,,,,,,,,l,1,1.0665,"[""0.115"",""0.443"",""0.478"",""0.686""]","[1,0,1,1]",0,53,53,53,1,1,0,,,0,FALSE,,,,,,,,,,,,,,,,,,,,,,,,,,,,,,,
,610ca409afdd73dfb308f1c8,627c6f917929ddf571594b9c,2022-05-12_04h26.43.173,classification_task,2021.2.3,Win32,60.07810153,627c6715c52fd12f31907bcf,,,,,,,,,,,,,,,,,,,,,,,a,1,0.8775,"[""0.257"",""0.360"",""0.619"",""0.399""]","[1,1,1,0]",0,54,54,54,1,0,0,,,0,FALSE,,,,,,,,,,,,,,,,,,,,,,,,,,,,,,,
,610ca409afdd73dfb308f1c8,627c6f917929ddf571594b9c,2022-05-12_04h26.43.173,classification_task,2021.2.3,Win32,60.07810153,627c6715c52fd12f31907bcf,,,,,,,,,,,,,,,,,,,,,,,a,1,1.2312,"[""0.304"",""0.360"",""0.619"",""0.869""]","[0,1,1,1]",0,55,55,55,1,0,0,,,0,FALSE,,,,,,,,,,,,,,,,,,,,,,,,,,,,,,,
,610ca409afdd73dfb308f1c8,627c6f917929ddf571594b9c,2022-05-12_04h26.43.173,classification_task,2021.2.3,Win32,60.07810153,627c6715c52fd12f31907bcf,,,,,,,,,,,,,,,,,,,,,,,l,1,1.3493,"[""0.417"",""0.066"",""0.573"",""0.767""]","[0,1,1,1]",0,56,56,56,1,1,1,,,0,FALSE,,,,,,,,,,,,,,,,,,,,,,,,,,,,,,,
,610ca409afdd73dfb308f1c8,627c6f917929ddf571594b9c,2022-05-12_04h26.43.173,classification_task,2021.2.3,Win32,60.07810153,627c6715c52fd12f31907bcf,,,,,,,,,,,,,,,,,,,,,,,a,1,1.0528,"[""0.182"",""0.513"",""0.974"",""0.921""]","[1,1,0,1]",0,57,57,57,1,0,1,,,0,FALSE,,,,,,,,,,,,,,,,,,,,,,,,,,,,,,,
,610ca409afdd73dfb308f1c8,627c6f917929ddf571594b9c,2022-05-12_04h26.43.173,classification_task,2021.2.3,Win32,60.07810153,627c6715c52fd12f31907bcf,,,,,,,,,,,,,,,,,,,,,,,a,1,1.4323,"[""0.257"",""0.408"",""0.619"",""0.869""]","[1,0,1,1]",0,58,58,58,1,0,0,,,0,FALSE,,,,,,,,,,,,,,,,,,,,,,,,,,,,,,,
,610ca409afdd73dfb308f1c8,627c6f917929ddf571594b9c,2022-05-12_04h26.43.173,classification_task,2021.2.3,Win32,60.07810153,627c6715c52fd12f31907bcf,,,,,,,,,,,,,,,,,,,,,,,l,1,1.0715,"[""0.027"",""0.066"",""0.293"",""0.767""]","[1,1,0,1]",0,59,59,59,1,1,1,,,0,FALSE,,,,,,,,,,,,,,,,,,,,,,,,,,,,,,,
,610ca409afdd73dfb308f1c8,627c6f917929ddf571594b9c,2022-05-12_04h26.43.173,classification_task,2021.2.3,Win32,60.07810153,627c6715c52fd12f31907bcf,,,,,,,,,,,,,,,,,,,,,,,l,1,1.3474,"[""0.027"",""0.066"",""0.573"",""0.322""]","[1,1,1,0]",0,60,60,60,1,1,1,,,0,FALSE,,,,,,,,,,,,,,,,,,,,,,,,,,,,,,,
,610ca409afdd73dfb308f1c8,627c6f917929ddf571594b9c,2022-05-12_04h26.43.173,classification_task,2021.2.3,Win32,60.07810153,627c6715c52fd12f31907bcf,,,,,,,,,,,,,,,,,,,,,,,a,1,1.083,"[""0.182"",""0.394"",""0.804"",""0.921""]","[1,0,1,1]",0,61,61,61,1,0,1,,,0,FALSE,,,,,,,,,,,,,,,,,,,,,,,,,,,,,,,
,610ca409afdd73dfb308f1c8,627c6f917929ddf571594b9c,2022-05-12_04h26.43.173,classification_task,2021.2.3,Win32,60.07810153,627c6715c52fd12f31907bcf,,,,,,,,,,,,,,,,,,,,,,,a,1,1.1906,"[""0.257"",""0.360"",""0.293"",""0.869""]","[1,1,0,1]",0,62,62,62,1,0,0,,,0,FALSE,,,,,,,,,,,,,,,,,,,,,,,,,,,,,,,
,610ca409afdd73dfb308f1c8,627c6f917929ddf571594b9c,2022-05-12_04h26.43.173,classification_task,2021.2.3,Win32,60.07810153,627c6715c52fd12f31907bcf,,,,,,,,,,,,,,,,,,,,,,,l,1,1.1717,"[""0.971"",""0.216"",""0.478"",""0.686""]","[0,1,1,1]",0,63,63,63,1,1,0,,,0,FALSE,,,,,,,,,,,,,,,,,,,,,,,,,,,,,,,
,610ca409afdd73dfb308f1c8,627c6f917929ddf571594b9c,2022-05-12_04h26.43.173,classification_task,2021.2.3,Win32,60.07810153,627c6715c52fd12f31907bcf,,,,,,,,,,,,,,,,,,,,,,,,,,,,,,,,,,,,,,,0, ,,0,6.102292769,351.9746,0,0,0,0,1,2,1,,,,,,,,,,,,,,,,,,
,610ca409afdd73dfb308f1c8,627c6f917929ddf571594b9c,2022-05-12_04h26.43.173,classification_task,2021.2.3,Win32,60.07810153,627c6715c52fd12f31907bcf,,,,,,,,,,,,,,,,,,,,,,,,,,,,,,,,,,,,,,,1,  ,,0,10,366.3077,0,0,0,0,1,2,1,,,,,,,,,,,,,,,,,,
,610ca409afdd73dfb308f1c8,627c6f917929ddf571594b9c,2022-05-12_04h26.43.173,classification_task,2021.2.3,Win32,60.07810153,627c6715c52fd12f31907bcf,,,,,,,,,,,,,,,,,,,,,,,,,,,,,,,,,,,,,,,2,  ,,0,0,372.8112,0,0,0,0,1,2,1,,,,,,,,,,,,,,,,,,
,610ca409afdd73dfb308f1c8,627c6f917929ddf571594b9c,2022-05-12_04h26.43.173,classification_task,2021.2.3,Win32,60.07810153,627c6715c52fd12f31907bcf,,,,,,,,,,,,,,,,,,,,,,,,,,,,,,,,,,,,,,,,,,,,,0,0,0,0,1,,1,,,,,,,,,,,,,,,,,,
,610ca409afdd73dfb308f1c8,627c6f917929ddf571594b9c,2022-05-12_04h26.43.173,classification_task,2021.2.3,Win32,60.07810153,627c6715c52fd12f31907bcf,,,,,,,,,,,,,,,,,,,,,space,7.5174,a,1,2.293,"[""0.257"",""0.360"",""0.619"",""0.406""]","[1,1,1,0]",0,0,0,0,1,0,0,,,0,FALSE,,,,,,,,,,,,,,,,,,,,,,,,,,,,,,,
,610ca409afdd73dfb308f1c8,627c6f917929ddf571594b9c,2022-05-12_04h26.43.173,classification_task,2021.2.3,Win32,60.07810153,627c6715c52fd12f31907bcf,,,,,,,,,,,,,,,,,,,,,,,l,0,1.6647,"[""0.182"",""0.974"",""0.804"",""0.921""]","[1,0,1,1]",0,1,1,1,1,0,1,,,0,FALSE,,,,,,,,,,,,,,,,,,,,,,,,,,,,,,,
,610ca409afdd73dfb308f1c8,627c6f917929ddf571594b9c,2022-05-12_04h26.43.173,classification_task,2021.2.3,Win32,60.07810153,627c6715c52fd12f31907bcf,,,,,,,,,,,,,,,,,,,,,,,a,1,1.5899,"[""0.182"",""0.513"",""0.971"",""0.921""]","[1,1,0,1]",0,2,2,2,1,0,1,,,0,FALSE,,,,,,,,,,,,,,,,,,,,,,,,,,,,,,,
,610ca409afdd73dfb308f1c8,627c6f917929ddf571594b9c,2022-05-12_04h26.43.173,classification_task,2021.2.3,Win32,60.07810153,627c6715c52fd12f31907bcf,,,,,,,,,,,,,,,,,,,,,,,a,1,1.3342,"[""0.257"",""0.360"",""0.971"",""0.869""]","[1,1,0,1]",0,3,3,3,1,0,0,,,0,FALSE,,,,,,,,,,,,,,,,,,,,,,,,,,,,,,,
,610ca409afdd73dfb308f1c8,627c6f917929ddf571594b9c,2022-05-12_04h26.43.173,classification_task,2021.2.3,Win32,60.07810153,627c6715c52fd12f31907bcf,,,,,,,,,,,,,,,,,,,,,,,l,1,1.116,"[""0.115"",""0.216"",""0.309"",""0.686""]","[1,1,0,1]",0,4,4,4,1,1,0,,,0,FALSE,,,,,,,,,,,,,,,,,,,,,,,,,,,,,,,
,610ca409afdd73dfb308f1c8,627c6f917929ddf571594b9c,2022-05-12_04h26.43.173,classification_task,2021.2.3,Win32,60.07810153,627c6715c52fd12f31907bcf,,,,,,,,,,,,,,,,,,,,,,,l,1,1.0089,"[""0.027"",""0.322"",""0.573"",""0.767""]","[1,0,1,1]",0,5,5,5,1,1,1,,,0,FALSE,,,,,,,,,,,,,,,,,,,,,,,,,,,,,,,
,610ca409afdd73dfb308f1c8,627c6f917929ddf571594b9c,2022-05-12_04h26.43.173,classification_task,2021.2.3,Win32,60.07810153,627c6715c52fd12f31907bcf,,,,,,,,,,,,,,,,,,,,,,,l,0,1.1482,"[""0.971"",""0.513"",""0.804"",""0.921""]","[0,1,1,1]",0,6,6,6,1,0,1,,,0,FALSE,,,,,,,,,,,,,,,,,,,,,,,,,,,,,,,
,610ca409afdd73dfb308f1c8,627c6f917929ddf571594b9c,2022-05-12_04h26.43.173,classification_task,2021.2.3,Win32,60.07810153,627c6715c52fd12f31907bcf,,,,,,,,,,,,,,,,,,,,,,,l,1,0.9048,"[""0.115"",""0.963"",""0.478"",""0.686""]","[1,0,1,1]",0,7,7,7,1,1,0,,,0,FALSE,,,,,,,,,,,,,,,,,,,,,,,,,,,,,,,
,610ca409afdd73dfb308f1c8,627c6f917929ddf571594b9c,2022-05-12_04h26.43.173,classification_task,2021.2.3,Win32,60.07810153,627c6715c52fd12f31907bcf,,,,,,,,,,,,,,,,,,,,,,,l,1,1.2234,"[""0.027"",""0.066"",""0.408"",""0.767""]","[1,1,0,1]",0,8,8,8,1,1,1,,,0,FALSE,,,,,,,,,,,,,,,,,,,,,,,,,,,,,,,
,610ca409afdd73dfb308f1c8,627c6f917929ddf571594b9c,2022-05-12_04h26.43.173,classification_task,2021.2.3,Win32,60.07810153,627c6715c52fd12f31907bcf,,,,,,,,,,,,,,,,,,,,,,,a,1,0.8793,"[""0.182"",""0.513"",""0.804"",""0.408""]","[1,1,1,0]",0,9,9,9,1,0,1,,,0,FALSE,,,,,,,,,,,,,,,,,,,,,,,,,,,,,,,
,610ca409afdd73dfb308f1c8,627c6f917929ddf571594b9c,2022-05-12_04h26.43.173,classification_task,2021.2.3,Win32,60.07810153,627c6715c52fd12f31907bcf,,,,,,,,,,,,,,,,,,,,,,,a,1,0.7809,"[""0.257"",""0.974"",""0.619"",""0.869""]","[1,0,1,1]",0,10,10,10,1,0,0,,,0,FALSE,,,,,,,,,,,,,,,,,,,,,,,,,,,,,,,
,610ca409afdd73dfb308f1c8,627c6f917929ddf571594b9c,2022-05-12_04h26.43.173,classification_task,2021.2.3,Win32,60.07810153,627c6715c52fd12f31907bcf,,,,,,,,,,,,,,,,,,,,,,,l,1,1.4033,"[""0.399"",""0.066"",""0.573"",""0.767""]","[0,1,1,1]",0,11,11,11,1,1,1,,,0,FALSE,,,,,,,,,,,,,,,,,,,,,,,,,,,,,,,
,610ca409afdd73dfb308f1c8,627c6f917929ddf571594b9c,2022-05-12_04h26.43.173,classification_task,2021.2.3,Win32,60.07810153,627c6715c52fd12f31907bcf,,,,,,,,,,,,,,,,,,,,,,,l,1,0.6647,"[""0.115"",""0.216"",""0.478"",""0.408""]","[1,1,1,0]",0,12,12,12,1,1,0,,,0,FALSE,,,,,,,,,,,,,,,,,,,,,,,,,,,,,,,
,610ca409afdd73dfb308f1c8,627c6f917929ddf571594b9c,2022-05-12_04h26.43.173,classification_task,2021.2.3,Win32,60.07810153,627c6715c52fd12f31907bcf,,,,,,,,,,,,,,,,,,,,,,,a,1,0.9184,"[""0.309"",""0.360"",""0.619"",""0.869""]","[0,1,1,1]",0,13,13,13,1,0,0,,,0,FALSE,,,,,,,,,,,,,,,,,,,,,,,,,,,,,,,
,610ca409afdd73dfb308f1c8,627c6f917929ddf571594b9c,2022-05-12_04h26.43.173,classification_task,2021.2.3,Win32,60.07810153,627c6715c52fd12f31907bcf,,,,,,,,,,,,,,,,,,,,,,,l,1,0.9216,"[""0.027"",""0.066"",""0.573"",""0.972""]","[1,1,1,0]",0,14,14,14,1,1,1,,,0,FALSE,,,,,,,,,,,,,,,,,,,,,,,,,,,,,,,
,610ca409afdd73dfb308f1c8,627c6f917929ddf571594b9c,2022-05-12_04h26.43.173,classification_task,2021.2.3,Win32,60.07810153,627c6715c52fd12f31907bcf,,,,,,,,,,,,,,,,,,,,,,,l,1,1.1672,"[""0.443"",""0.216"",""0.478"",""0.686""]","[0,1,1,1]",0,15,15,15,1,1,0,,,0,FALSE,,,,,,,,,,,,,,,,,,,,,,,,,,,,,,,
,610ca409afdd73dfb308f1c8,627c6f917929ddf571594b9c,2022-05-12_04h26.43.173,classification_task,2021.2.3,Win32,60.07810153,627c6715c52fd12f31907bcf,,,,,,,,,,,,,,,,,,,,,,,l,0,1.3486,"[""0.399"",""0.513"",""0.804"",""0.921""]","[0,1,1,1]",0,16,16,16,1,0,1,,,0,FALSE,,,,,,,,,,,,,,,,,,,,,,,,,,,,,,,
,610ca409afdd73dfb308f1c8,627c6f917929ddf571594b9c,2022-05-12_04h26.43.173,classification_task,2021.2.3,Win32,60.07810153,627c6715c52fd12f31907bcf,,,,,,,,,,,,,,,,,,,,,,,l,1,0.8266,"[""0.292"",""0.216"",""0.478"",""0.686""]","[0,1,1,1]",0,17,17,17,1,1,0,,,0,FALSE,,,,,,,,,,,,,,,,,,,,,,,,,,,,,,,
,610ca409afdd73dfb308f1c8,627c6f917929ddf571594b9c,2022-05-12_04h26.43.173,classification_task,2021.2.3,Win32,60.07810153,627c6715c52fd12f31907bcf,,,,,,,,,,,,,,,,,,,,,,,a,1,0.9497,"[""0.304"",""0.360"",""0.619"",""0.869""]","[0,1,1,1]",0,18,18,18,1,0,0,,,0,FALSE,,,,,,,,,,,,,,,,,,,,,,,,,,,,,,,
,610ca409afdd73dfb308f1c8,627c6f917929ddf571594b9c,2022-05-12_04h26.43.173,classification_task,2021.2.3,Win32,60.07810153,627c6715c52fd12f31907bcf,,,,,,,,,,,,,,,,,,,,,,,l,1,0.7839,"[""0.027"",""0.066"",""0.292"",""0.767""]","[1,1,0,1]",0,19,19,19,1,1,1,,,0,FALSE,,,,,,,,,,,,,,,,,,,,,,,,,,,,,,,
,610ca409afdd73dfb308f1c8,627c6f917929ddf571594b9c,2022-05-12_04h26.43.173,classification_task,2021.2.3,Win32,60.07810153,627c6715c52fd12f31907bcf,,,,,,,,,,,,,,,,,,,,,,,l,1,1.0999,"[""0.408"",""0.066"",""0.573"",""0.767""]","[0,1,1,1]",0,20,20,20,1,1,1,,,0,FALSE,,,,,,,,,,,,,,,,,,,,,,,,,,,,,,,
,610ca409afdd73dfb308f1c8,627c6f917929ddf571594b9c,2022-05-12_04h26.43.173,classification_task,2021.2.3,Win32,60.07810153,627c6715c52fd12f31907bcf,,,,,,,,,,,,,,,,,,,,,,,a,1,0.8605,"[""0.257"",""0.360"",""0.304"",""0.869""]","[1,1,0,1]",0,21,21,21,1,0,0,,,0,FALSE,,,,,,,,,,,,,,,,,,,,,,,,,,,,,,,
,610ca409afdd73dfb308f1c8,627c6f917929ddf571594b9c,2022-05-12_04h26.43.173,classification_task,2021.2.3,Win32,60.07810153,627c6715c52fd12f31907bcf,,,,,,,,,,,,,,,,,,,,,,,a,1,0.8807,"[""0.182"",""0.396"",""0.804"",""0.921""]","[1,0,1,1]",0,22,22,22,1,0,1,,,0,FALSE,,,,,,,,,,,,,,,,,,,,,,,,,,,,,,,
,610ca409afdd73dfb308f1c8,627c6f917929ddf571594b9c,2022-05-12_04h26.43.173,classification_task,2021.2.3,Win32,60.07810153,627c6715c52fd12f31907bcf,,,,,,,,,,,,,,,,,,,,,,,l,1,0.6307,"[""0.027"",""0.066"",""0.573"",""0.417""]","[1,1,1,0]",0,23,23,23,1,1,1,,,0,FALSE,,,,,,,,,,,,,,,,,,,,,,,,,,,,,,,
,610ca409afdd73dfb308f1c8,627c6f917929ddf571594b9c,2022-05-12_04h26.43.173,classification_task,2021.2.3,Win32,60.07810153,627c6715c52fd12f31907bcf,,,,,,,,,,,,,,,,,,,,,,,a,1,1.0484,"[""0.182"",""0.513"",""0.804"",""0.293""]","[1,1,1,0]",0,24,24,24,1,0,1,,,0,FALSE,,,,,,,,,,,,,,,,,,,,,,,,,,,,,,,
,610ca409afdd73dfb308f1c8,627c6f917929ddf571594b9c,2022-05-12_04h26.43.173,classification_task,2021.2.3,Win32,60.07810153,627c6715c52fd12f31907bcf,,,,,,,,,,,,,,,,,,,,,,,l,1,0.8803,"[""0.115"",""0.216"",""0.406"",""0.686""]","[1,1,0,1]",0,25,25,25,1,1,0,,,0,FALSE,,,,,,,,,,,,,,,,,,,,,,,,,,,,,,,
,610ca409afdd73dfb308f1c8,627c6f917929ddf571594b9c,2022-05-12_04h26.43.173,classification_task,2021.2.3,Win32,60.07810153,627c6715c52fd12f31907bcf,,,,,,,,,,,,,,,,,,,,,,,a,1,0.5828,"[""0.257"",""0.360"",""0.619"",""0.971""]","[1,1,1,0]",0,26,26,26,1,0,0,,,0,FALSE,,,,,,,,,,,,,,,,,,,,,,,,,,,,,,,
,610ca409afdd73dfb308f1c8,627c6f917929ddf571594b9c,2022-05-12_04h26.43.173,classification_task,2021.2.3,Win32,60.07810153,627c6715c52fd12f31907bcf,,,,,,,,,,,,,,,,,,,,,,,l,1,0.8823,"[""0.027"",""0.309"",""0.573"",""0.767""]","[1,0,1,1]",0,27,27,27,1,1,1,,,0,FALSE,,,,,,,,,,,,,,,,,,,,,,,,,,,,,,,
,610ca409afdd73dfb308f1c8,627c6f917929ddf571594b9c,2022-05-12_04h26.43.173,classification_task,2021.2.3,Win32,60.07810153,627c6715c52fd12f31907bcf,,,,,,,,,,,,,,,,,,,,,,,a,1,0.635,"[""0.182"",""0.513"",""0.322"",""0.921""]","[1,1,0,1]",0,28,28,28,1,0,1,,,0,FALSE,,,,,,,,,,,,,,,,,,,,,,,,,,,,,,,
,610ca409afdd73dfb308f1c8,627c6f917929ddf571594b9c,2022-05-12_04h26.43.173,classification_task,2021.2.3,Win32,60.07810153,627c6715c52fd12f31907bcf,,,,,,,,,,,,,,,,,,,,,,,l,1,0.7906,"[""0.115"",""0.322"",""0.478"",""0.686""]","[1,0,1,1]",0,29,29,29,1,1,0,,,0,FALSE,,,,,,,,,,,,,,,,,,,,,,,,,,,,,,,
,610ca409afdd73dfb308f1c8,627c6f917929ddf571594b9c,2022-05-12_04h26.43.173,classification_task,2021.2.3,Win32,60.07810153,627c6715c52fd12f31907bcf,,,,,,,,,,,,,,,,,,,,,,,a,1,0.7033,"[""0.257"",""0.293"",""0.619"",""0.869""]","[1,0,1,1]",0,30,30,30,1,0,0,,,0,FALSE,,,,,,,,,,,,,,,,,,,,,,,,,,,,,,,
,610ca409afdd73dfb308f1c8,627c6f917929ddf571594b9c,2022-05-12_04h26.43.173,classification_task,2021.2.3,Win32,60.07810153,627c6715c52fd12f31907bcf,,,,,,,,,,,,,,,,,,,,,,,l,1,0.6846,"[""0.115"",""0.216"",""0.478"",""0.394""]","[1,1,1,0]",0,31,31,31,1,1,0,,,0,FALSE,,,,,,,,,,,,,,,,,,,,,,,,,,,,,,,
,610ca409afdd73dfb308f1c8,627c6f917929ddf571594b9c,2022-05-12_04h26.43.173,classification_task,2021.2.3,Win32,60.07810153,627c6715c52fd12f31907bcf,,,,,,,,,,,,,,,,,,,,,,,l,0,1.3147,"[""0.182"",""0.974"",""0.804"",""0.921""]","[1,0,1,1]",0,32,32,32,1,0,1,,,0,FALSE,,,,,,,,,,,,,,,,,,,,,,,,,,,,,,,
,610ca409afdd73dfb308f1c8,627c6f917929ddf571594b9c,2022-05-12_04h26.43.173,classification_task,2021.2.3,Win32,60.07810153,627c6715c52fd12f31907bcf,,,,,,,,,,,,,,,,,,,,,,,a,1,0.8333,"[""0.309"",""0.360"",""0.619"",""0.869""]","[0,1,1,1]",0,33,33,33,1,0,0,,,0,FALSE,,,,,,,,,,,,,,,,,,,,,,,,,,,,,,,
,610ca409afdd73dfb308f1c8,627c6f917929ddf571594b9c,2022-05-12_04h26.43.173,classification_task,2021.2.3,Win32,60.07810153,627c6715c52fd12f31907bcf,,,,,,,,,,,,,,,,,,,,,,,a,1,1.1622,"[""0.974"",""0.513"",""0.804"",""0.921""]","[0,1,1,1]",0,34,34,34,1,0,1,,,0,FALSE,,,,,,,,,,,,,,,,,,,,,,,,,,,,,,,
,610ca409afdd73dfb308f1c8,627c6f917929ddf571594b9c,2022-05-12_04h26.43.173,classification_task,2021.2.3,Win32,60.07810153,627c6715c52fd12f31907bcf,,,,,,,,,,,,,,,,,,,,,,,a,1,0.7826,"[""0.182"",""0.513"",""0.309"",""0.921""]","[1,1,0,1]",0,35,35,35,1,0,1,,,0,FALSE,,,,,,,,,,,,,,,,,,,,,,,,,,,,,,,
,610ca409afdd73dfb308f1c8,627c6f917929ddf571594b9c,2022-05-12_04h26.43.173,classification_task,2021.2.3,Win32,60.07810153,627c6715c52fd12f31907bcf,,,,,,,,,,,,,,,,,,,,,,,l,0,1.0285,"[""0.257"",""0.360"",""0.292"",""0.869""]","[1,1,0,1]",0,36,36,36,1,0,0,,,0,FALSE,,,,,,,,,,,,,,,,,,,,,,,,,,,,,,,
,610ca409afdd73dfb308f1c8,627c6f917929ddf571594b9c,2022-05-12_04h26.43.173,classification_task,2021.2.3,Win32,60.07810153,627c6715c52fd12f31907bcf,,,,,,,,,,,,,,,,,,,,,,,l,1,0.9959,"[""0.293"",""0.066"",""0.573"",""0.767""]","[0,1,1,1]",0,37,37,37,1,1,1,,,0,FALSE,,,,,,,,,,,,,,,,,,,,,,,,,,,,,,,
,610ca409afdd73dfb308f1c8,627c6f917929ddf571594b9c,2022-05-12_04h26.43.173,classification_task,2021.2.3,Win32,60.07810153,627c6715c52fd12f31907bcf,,,,,,,,,,,,,,,,,,,,,,,l,1,1.3373,"[""0.027"",""0.443"",""0.573"",""0.767""]","[1,0,1,1]",0,38,38,38,1,1,1,,,0,FALSE,,,,,,,,,,,,,,,,,,,,,,,,,,,,,,,
,610ca409afdd73dfb308f1c8,627c6f917929ddf571594b9c,2022-05-12_04h26.43.173,classification_task,2021.2.3,Win32,60.07810153,627c6715c52fd12f31907bcf,,,,,,,,,,,,,,,,,,,,,,,a,1,0.6434,"[""0.257"",""0.360"",""0.619"",""0.309""]","[1,1,1,0]",0,39,39,39,1,0,0,,,0,FALSE,,,,,,,,,,,,,,,,,,,,,,,,,,,,,,,
,610ca409afdd73dfb308f1c8,627c6f917929ddf571594b9c,2022-05-12_04h26.43.173,classification_task,2021.2.3,Win32,60.07810153,627c6715c52fd12f31907bcf,,,,,,,,,,,,,,,,,,,,,,,l,1,0.72,"[""0.115"",""0.309"",""0.478"",""0.686""]","[1,0,1,1]",0,40,40,40,1,1,0,,,0,FALSE,,,,,,,,,,,,,,,,,,,,,,,,,,,,,,,
,610ca409afdd73dfb308f1c8,627c6f917929ddf571594b9c,2022-05-12_04h26.43.173,classification_task,2021.2.3,Win32,60.07810153,627c6715c52fd12f31907bcf,,,,,,,,,,,,,,,,,,,,,,,a,1,0.7369,"[""0.257"",""0.394"",""0.619"",""0.869""]","[1,0,1,1]",0,41,41,41,1,0,0,,,0,FALSE,,,,,,,,,,,,,,,,,,,,,,,,,,,,,,,
,610ca409afdd73dfb308f1c8,627c6f917929ddf571594b9c,2022-05-12_04h26.43.173,classification_task,2021.2.3,Win32,60.07810153,627c6715c52fd12f31907bcf,,,,,,,,,,,,,,,,,,,,,,,l,1,0.742,"[""0.115"",""0.216"",""0.322"",""0.686""]","[1,1,0,1]",0,42,42,42,1,1,0,,,0,FALSE,,,,,,,,,,,,,,,,,,,,,,,,,,,,,,,
,610ca409afdd73dfb308f1c8,627c6f917929ddf571594b9c,2022-05-12_04h26.43.173,classification_task,2021.2.3,Win32,60.07810153,627c6715c52fd12f31907bcf,,,,,,,,,,,,,,,,,,,,,,,a,1,0.9144,"[""0.182"",""0.513"",""0.804"",""0.304""]","[1,1,1,0]",0,43,43,43,1,0,1,,,0,FALSE,,,,,,,,,,,,,,,,,,,,,,,,,,,,,,,
,610ca409afdd73dfb308f1c8,627c6f917929ddf571594b9c,2022-05-12_04h26.43.173,classification_task,2021.2.3,Win32,60.07810153,627c6715c52fd12f31907bcf,,,,,,,,,,,,,,,,,,,,,,,l,1,0.7156,"[""0.027"",""0.066"",""0.573"",""0.963""]","[1,1,1,0]",0,44,44,44,1,1,1,,,0,FALSE,,,,,,,,,,,,,,,,,,,,,,,,,,,,,,,
,610ca409afdd73dfb308f1c8,627c6f917929ddf571594b9c,2022-05-12_04h26.43.173,classification_task,2021.2.3,Win32,60.07810153,627c6715c52fd12f31907bcf,,,,,,,,,,,,,,,,,,,,,,,l,1,0.7612,"[""0.115"",""0.216"",""0.478"",""0.971""]","[1,1,1,0]",0,45,45,45,1,1,0,,,0,FALSE,,,,,,,,,,,,,,,,,,,,,,,,,,,,,,,
,610ca409afdd73dfb308f1c8,627c6f917929ddf571594b9c,2022-05-12_04h26.43.173,classification_task,2021.2.3,Win32,60.07810153,627c6715c52fd12f31907bcf,,,,,,,,,,,,,,,,,,,,,,,l,1,0.9563,"[""0.971"",""0.216"",""0.478"",""0.686""]","[0,1,1,1]",0,46,46,46,1,1,0,,,0,FALSE,,,,,,,,,,,,,,,,,,,,,,,,,,,,,,,
,610ca409afdd73dfb308f1c8,627c6f917929ddf571594b9c,2022-05-12_04h26.43.173,classification_task,2021.2.3,Win32,60.07810153,627c6715c52fd12f31907bcf,,,,,,,,,,,,,,,,,,,,,,,l,1,0.9041,"[""0.027"",""0.066"",""0.309"",""0.767""]","[1,1,0,1]",0,47,47,47,1,1,1,,,0,FALSE,,,,,,,,,,,,,,,,,,,,,,,,,,,,,,,
,610ca409afdd73dfb308f1c8,627c6f917929ddf571594b9c,2022-05-12_04h26.43.173,classification_task,2021.2.3,Win32,60.07810153,627c6715c52fd12f31907bcf,,,,,,,,,,,,,,,,,,,,,,,a,0,1.3472,"[""0.293"",""0.216"",""0.478"",""0.686""]","[0,1,1,1]",0,48,48,48,1,1,0,,,0,FALSE,,,,,,,,,,,,,,,,,,,,,,,,,,,,,,,
,610ca409afdd73dfb308f1c8,627c6f917929ddf571594b9c,2022-05-12_04h26.43.173,classification_task,2021.2.3,Win32,60.07810153,627c6715c52fd12f31907bcf,,,,,,,,,,,,,,,,,,,,,,,a,1,1.2299,"[""0.974"",""0.360"",""0.619"",""0.869""]","[0,1,1,1]",0,49,49,49,1,0,0,,,0,FALSE,,,,,,,,,,,,,,,,,,,,,,,,,,,,,,,
,610ca409afdd73dfb308f1c8,627c6f917929ddf571594b9c,2022-05-12_04h26.43.173,classification_task,2021.2.3,Win32,60.07810153,627c6715c52fd12f31907bcf,,,,,,,,,,,,,,,,,,,,,,,a,1,0.943,"[""0.257"",""0.406"",""0.619"",""0.869""]","[1,0,1,1]",0,50,50,50,1,0,0,,,0,FALSE,,,,,,,,,,,,,,,,,,,,,,,,,,,,,,,
,610ca409afdd73dfb308f1c8,627c6f917929ddf571594b9c,2022-05-12_04h26.43.173,classification_task,2021.2.3,Win32,60.07810153,627c6715c52fd12f31907bcf,,,,,,,,,,,,,,,,,,,,,,,a,1,0.8156,"[""0.182"",""0.396"",""0.804"",""0.921""]","[1,0,1,1]",0,51,51,51,1,0,1,,,0,FALSE,,,,,,,,,,,,,,,,,,,,,,,,,,,,,,,
,610ca409afdd73dfb308f1c8,627c6f917929ddf571594b9c,2022-05-12_04h26.43.173,classification_task,2021.2.3,Win32,60.07810153,627c6715c52fd12f31907bcf,,,,,,,,,,,,,,,,,,,,,,,a,1,0.9328,"[""0.182"",""0.513"",""0.804"",""0.309""]","[1,1,1,0]",0,52,52,52,1,0,1,,,0,FALSE,,,,,,,,,,,,,,,,,,,,,,,,,,,,,,,
,610ca409afdd73dfb308f1c8,627c6f917929ddf571594b9c,2022-05-12_04h26.43.173,classification_task,2021.2.3,Win32,60.07810153,627c6715c52fd12f31907bcf,,,,,,,,,,,,,,,,,,,,,,,l,1,0.8384,"[""0.027"",""0.971"",""0.573"",""0.767""]","[1,0,1,1]",0,53,53,53,1,1,1,,,0,FALSE,,,,,,,,,,,,,,,,,,,,,,,,,,,,,,,
,610ca409afdd73dfb308f1c8,627c6f917929ddf571594b9c,2022-05-12_04h26.43.173,classification_task,2021.2.3,Win32,60.07810153,627c6715c52fd12f31907bcf,,,,,,,,,,,,,,,,,,,,,,,l,1,0.7829,"[""0.027"",""0.066"",""0.573"",""0.406""]","[1,1,1,0]",0,54,54,54,1,1,1,,,0,FALSE,,,,,,,,,,,,,,,,,,,,,,,,,,,,,,,
,610ca409afdd73dfb308f1c8,627c6f917929ddf571594b9c,2022-05-12_04h26.43.173,classification_task,2021.2.3,Win32,60.07810153,627c6715c52fd12f31907bcf,,,,,,,,,,,,,,,,,,,,,,,a,1,0.9629,"[""0.257"",""0.360"",""0.408"",""0.869""]","[1,1,0,1]",0,55,55,55,1,0,0,,,0,FALSE,,,,,,,,,,,,,,,,,,,,,,,,,,,,,,,
,610ca409afdd73dfb308f1c8,627c6f917929ddf571594b9c,2022-05-12_04h26.43.173,classification_task,2021.2.3,Win32,60.07810153,627c6715c52fd12f31907bcf,,,,,,,,,,,,,,,,,,,,,,,a,1,1.152,"[""0.182"",""0.513"",""0.963"",""0.921""]","[1,1,0,1]",0,56,56,56,1,0,1,,,0,FALSE,,,,,,,,,,,,,,,,,,,,,,,,,,,,,,,
,610ca409afdd73dfb308f1c8,627c6f917929ddf571594b9c,2022-05-12_04h26.43.173,classification_task,2021.2.3,Win32,60.07810153,627c6715c52fd12f31907bcf,,,,,,,,,,,,,,,,,,,,,,,a,1,0.8457,"[""0.257"",""0.360"",""0.619"",""0.399""]","[1,1,1,0]",0,57,57,57,1,0,0,,,0,FALSE,,,,,,,,,,,,,,,,,,,,,,,,,,,,,,,
,610ca409afdd73dfb308f1c8,627c6f917929ddf571594b9c,2022-05-12_04h26.43.173,classification_task,2021.2.3,Win32,60.07810153,627c6715c52fd12f31907bcf,,,,,,,,,,,,,,,,,,,,,,,a,1,1.2155,"[""0.963"",""0.513"",""0.804"",""0.921""]","[0,1,1,1]",0,58,58,58,1,0,1,,,0,FALSE,,,,,,,,,,,,,,,,,,,,,,,,,,,,,,,
,610ca409afdd73dfb308f1c8,627c6f917929ddf571594b9c,2022-05-12_04h26.43.173,classification_task,2021.2.3,Win32,60.07810153,627c6715c52fd12f31907bcf,,,,,,,,,,,,,,,,,,,,,,,l,1,1.2969,"[""0.115"",""0.216"",""0.478"",""0.974""]","[1,1,1,0]",0,59,59,59,1,1,0,,,0,FALSE,,,,,,,,,,,,,,,,,,,,,,,,,,,,,,,
,610ca409afdd73dfb308f1c8,627c6f917929ddf571594b9c,2022-05-12_04h26.43.173,classification_task,2021.2.3,Win32,60.07810153,627c6715c52fd12f31907bcf,,,,,,,,,,,,,,,,,,,,,,,l,1,0.8781,"[""0.115"",""0.972"",""0.478"",""0.686""]","[1,0,1,1]",0,60,60,60,1,1,0,,,0,FALSE,,,,,,,,,,,,,,,,,,,,,,,,,,,,,,,
,610ca409afdd73dfb308f1c8,627c6f917929ddf571594b9c,2022-05-12_04h26.43.173,classification_task,2021.2.3,Win32,60.07810153,627c6715c52fd12f31907bcf,,,,,,,,,,,,,,,,,,,,,,,l,1,0.8851,"[""0.115"",""0.216"",""0.406"",""0.686""]","[1,1,0,1]",0,61,61,61,1,1,0,,,0,FALSE,,,,,,,,,,,,,,,,,,,,,,,,,,,,,,,
,610ca409afdd73dfb308f1c8,627c6f917929ddf571594b9c,2022-05-12_04h26.43.173,classification_task,2021.2.3,Win32,60.07810153,627c6715c52fd12f31907bcf,,,,,,,,,,,,,,,,,,,,,,,l,1,1.2438,"[""0.027"",""0.066"",""0.399"",""0.767""]","[1,1,0,1]",0,62,62,62,1,1,1,,,0,FALSE,,,,,,,,,,,,,,,,,,,,,,,,,,,,,,,
,610ca409afdd73dfb308f1c8,627c6f917929ddf571594b9c,2022-05-12_04h26.43.173,classification_task,2021.2.3,Win32,60.07810153,627c6715c52fd12f31907bcf,,,,,,,,,,,,,,,,,,,,,,,l,1,1.2089,"[""0.443"",""0.066"",""0.573"",""0.767""]","[0,1,1,1]",0,63,63,63,1,1,1,,,0,FALSE,,,,,,,,,,,,,,,,,,,,,,,,,,,,,,,
,610ca409afdd73dfb308f1c8,627c6f917929ddf571594b9c,2022-05-12_04h26.43.173,classification_task,2021.2.3,Win32,60.07810153,627c6715c52fd12f31907bcf,,,,,,,,,,,,,,,,,,,,,,,,,,,,,,,,,,,,,,,0, ,,0,3.725473986,141.9662,0,1,1,1,1,2,2,,,,,,,,,,,,,,,,,,
,610ca409afdd73dfb308f1c8,627c6f917929ddf571594b9c,2022-05-12_04h26.43.173,classification_task,2021.2.3,Win32,60.07810153,627c6715c52fd12f31907bcf,,,,,,,,,,,,,,,,,,,,,,,,,,,,,,,,,,,,,,,1,  ,,0,10,145.2798,0,1,1,1,1,2,2,,,,,,,,,,,,,,,,,,
,610ca409afdd73dfb308f1c8,627c6f917929ddf571594b9c,2022-05-12_04h26.43.173,classification_task,2021.2.3,Win32,60.07810153,627c6715c52fd12f31907bcf,,,,,,,,,,,,,,,,,,,,,,,,,,,,,,,,,,,,,,,2,  ,,0,0,147.7658,0,1,1,1,1,2,2,,,,,,,,,,,,,,,,,,
,610ca409afdd73dfb308f1c8,627c6f917929ddf571594b9c,2022-05-12_04h26.43.173,classification_task,2021.2.3,Win32,60.07810153,627c6715c52fd12f31907bcf,,,,,,,,,,,,,,,,,,,,,,,,,,,,,,,,,,,,,,,,,,,,,0,1,1,1,1,,2,,,,,,,,,,,,,,,,,,
,610ca409afdd73dfb308f1c8,627c6f917929ddf571594b9c,2022-05-12_04h26.43.173,classification_task,2021.2.3,Win32,60.07810153,627c6715c52fd12f31907bcf,,,,,,,,,,,,,,,,,,,,,space,8.2696,a,1,1.3827,"[""0.408"",""0.513"",""0.804"",""0.921""]","[0,1,1,1]",0,0,0,0,1,0,1,,,0,FALSE,,,,,,,,,,,,,,,,,,,,,,,,,,,,,,,
,610ca409afdd73dfb308f1c8,627c6f917929ddf571594b9c,2022-05-12_04h26.43.173,classification_task,2021.2.3,Win32,60.07810153,627c6715c52fd12f31907bcf,,,,,,,,,,,,,,,,,,,,,,,l,1,2.8593,"[""0.027"",""0.417"",""0.573"",""0.767""]","[1,0,1,1]",0,1,1,1,1,1,1,,,0,FALSE,,,,,,,,,,,,,,,,,,,,,,,,,,,,,,,
,610ca409afdd73dfb308f1c8,627c6f917929ddf571594b9c,2022-05-12_04h26.43.173,classification_task,2021.2.3,Win32,60.07810153,627c6715c52fd12f31907bcf,,,,,,,,,,,,,,,,,,,,,,,a,1,1.1224,"[""0.257"",""0.406"",""0.619"",""0.869""]","[1,0,1,1]",0,2,2,2,1,0,0,,,0,FALSE,,,,,,,,,,,,,,,,,,,,,,,,,,,,,,,
,610ca409afdd73dfb308f1c8,627c6f917929ddf571594b9c,2022-05-12_04h26.43.173,classification_task,2021.2.3,Win32,60.07810153,627c6715c52fd12f31907bcf,,,,,,,,,,,,,,,,,,,,,,,l,1,0.8654,"[""0.027"",""0.066"",""0.573"",""0.971""]","[1,1,1,0]",0,3,3,3,1,1,1,,,0,FALSE,,,,,,,,,,,,,,,,,,,,,,,,,,,,,,,
,610ca409afdd73dfb308f1c8,627c6f917929ddf571594b9c,2022-05-12_04h26.43.173,classification_task,2021.2.3,Win32,60.07810153,627c6715c52fd12f31907bcf,,,,,,,,,,,,,,,,,,,,,,,a,1,1.0241,"[""0.182"",""0.399"",""0.804"",""0.921""]","[1,0,1,1]",0,4,4,4,1,0,1,,,0,FALSE,,,,,,,,,,,,,,,,,,,,,,,,,,,,,,,
,610ca409afdd73dfb308f1c8,627c6f917929ddf571594b9c,2022-05-12_04h26.43.173,classification_task,2021.2.3,Win32,60.07810153,627c6715c52fd12f31907bcf,,,,,,,,,,,,,,,,,,,,,,,l,1,0.8161,"[""0.027"",""0.066"",""0.394"",""0.767""]","[1,1,0,1]",0,5,5,5,1,1,1,,,0,FALSE,,,,,,,,,,,,,,,,,,,,,,,,,,,,,,,
,610ca409afdd73dfb308f1c8,627c6f917929ddf571594b9c,2022-05-12_04h26.43.173,classification_task,2021.2.3,Win32,60.07810153,627c6715c52fd12f31907bcf,,,,,,,,,,,,,,,,,,,,,,,a,1,1.1166,"[""0.182"",""0.513"",""0.804"",""0.322""]","[1,1,1,0]",0,6,6,6,1,0,1,,,0,FALSE,,,,,,,,,,,,,,,,,,,,,,,,,,,,,,,
,610ca409afdd73dfb308f1c8,627c6f917929ddf571594b9c,2022-05-12_04h26.43.173,classification_task,2021.2.3,Win32,60.07810153,627c6715c52fd12f31907bcf,,,,,,,,,,,,,,,,,,,,,,,a,1,1.75,"[""0.257"",""0.360"",""0.619"",""0.974""]","[1,1,1,0]",0,7,7,7,1,0,0,,,0,FALSE,,,,,,,,,,,,,,,,,,,,,,,,,,,,,,,
,610ca409afdd73dfb308f1c8,627c6f917929ddf571594b9c,2022-05-12_04h26.43.173,classification_task,2021.2.3,Win32,60.07810153,627c6715c52fd12f31907bcf,,,,,,,,,,,,,,,,,,,,,,,a,1,1.1858,"[""0.257"",""0.360"",""0.322"",""0.869""]","[1,1,0,1]",0,8,8,8,1,0,0,,,0,FALSE,,,,,,,,,,,,,,,,,,,,,,,,,,,,,,,
,610ca409afdd73dfb308f1c8,627c6f917929ddf571594b9c,2022-05-12_04h26.43.173,classification_task,2021.2.3,Win32,60.07810153,627c6715c52fd12f31907bcf,,,,,,,,,,,,,,,,,,,,,,,l,1,0.9717,"[""0.115"",""0.216"",""0.394"",""0.686""]","[1,1,0,1]",0,9,9,9,1,1,0,,,0,FALSE,,,,,,,,,,,,,,,,,,,,,,,,,,,,,,,
,610ca409afdd73dfb308f1c8,627c6f917929ddf571594b9c,2022-05-12_04h26.43.173,classification_task,2021.2.3,Win32,60.07810153,627c6715c52fd12f31907bcf,,,,,,,,,,,,,,,,,,,,,,,l,1,0.9858,"[""0.406"",""0.216"",""0.478"",""0.686""]","[0,1,1,1]",0,10,10,10,1,1,0,,,0,FALSE,,,,,,,,,,,,,,,,,,,,,,,,,,,,,,,
,610ca409afdd73dfb308f1c8,627c6f917929ddf571594b9c,2022-05-12_04h26.43.173,classification_task,2021.2.3,Win32,60.07810153,627c6715c52fd12f31907bcf,,,,,,,,,,,,,,,,,,,,,,,l,1,1.0047,"[""0.115"",""0.216"",""0.478"",""0.971""]","[1,1,1,0]",0,11,11,11,1,1,0,,,0,FALSE,,,,,,,,,,,,,,,,,,,,,,,,,,,,,,,
,610ca409afdd73dfb308f1c8,627c6f917929ddf571594b9c,2022-05-12_04h26.43.173,classification_task,2021.2.3,Win32,60.07810153,627c6715c52fd12f31907bcf,,,,,,,,,,,,,,,,,,,,,,,a,1,0.9007,"[""0.182"",""0.513"",""0.322"",""0.921""]","[1,1,0,1]",0,12,12,12,1,0,1,,,0,FALSE,,,,,,,,,,,,,,,,,,,,,,,,,,,,,,,
,610ca409afdd73dfb308f1c8,627c6f917929ddf571594b9c,2022-05-12_04h26.43.173,classification_task,2021.2.3,Win32,60.07810153,627c6715c52fd12f31907bcf,,,,,,,,,,,,,,,,,,,,,,,l,1,0.9005,"[""0.115"",""0.394"",""0.478"",""0.686""]","[1,0,1,1]",0,13,13,13,1,1,0,,,0,FALSE,,,,,,,,,,,,,,,,,,,,,,,,,,,,,,,
,610ca409afdd73dfb308f1c8,627c6f917929ddf571594b9c,2022-05-12_04h26.43.173,classification_task,2021.2.3,Win32,60.07810153,627c6715c52fd12f31907bcf,,,,,,,,,,,,,,,,,,,,,,,l,1,1.1021,"[""0.309"",""0.066"",""0.573"",""0.767""]","[0,1,1,1]",0,14,14,14,1,1,1,,,0,FALSE,,,,,,,,,,,,,,,,,,,,,,,,,,,,,,,
,610ca409afdd73dfb308f1c8,627c6f917929ddf571594b9c,2022-05-12_04h26.43.173,classification_task,2021.2.3,Win32,60.07810153,627c6715c52fd12f31907bcf,,,,,,,,,,,,,,,,,,,,,,,l,0,1.173,"[""0.396"",""0.360"",""0.619"",""0.869""]","[0,1,1,1]",0,15,15,15,1,0,0,,,0,FALSE,,,,,,,,,,,,,,,,,,,,,,,,,,,,,,,
,610ca409afdd73dfb308f1c8,627c6f917929ddf571594b9c,2022-05-12_04h26.43.173,classification_task,2021.2.3,Win32,60.07810153,627c6715c52fd12f31907bcf,,,,,,,,,,,,,,,,,,,,,,,a,1,1.4116,"[""0.257"",""0.360"",""0.619"",""0.963""]","[1,1,1,0]",0,16,16,16,1,0,0,,,0,FALSE,,,,,,,,,,,,,,,,,,,,,,,,,,,,,,,
,610ca409afdd73dfb308f1c8,627c6f917929ddf571594b9c,2022-05-12_04h26.43.173,classification_task,2021.2.3,Win32,60.07810153,627c6715c52fd12f31907bcf,,,,,,,,,,,,,,,,,,,,,,,l,1,0.9782,"[""0.115"",""0.216"",""0.478"",""0.293""]","[1,1,1,0]",0,17,17,17,1,1,0,,,0,FALSE,,,,,,,,,,,,,,,,,,,,,,,,,,,,,,,
,610ca409afdd73dfb308f1c8,627c6f917929ddf571594b9c,2022-05-12_04h26.43.173,classification_task,2021.2.3,Win32,60.07810153,627c6715c52fd12f31907bcf,,,,,,,,,,,,,,,,,,,,,,,a,1,1.0667,"[""0.972"",""0.513"",""0.804"",""0.921""]","[0,1,1,1]",0,18,18,18,1,0,1,,,0,FALSE,,,,,,,,,,,,,,,,,,,,,,,,,,,,,,,
,610ca409afdd73dfb308f1c8,627c6f917929ddf571594b9c,2022-05-12_04h26.43.173,classification_task,2021.2.3,Win32,60.07810153,627c6715c52fd12f31907bcf,,,,,,,,,,,,,,,,,,,,,,,a,1,1.2819,"[""0.257"",""0.360"",""0.971"",""0.869""]","[1,1,0,1]",0,19,19,19,1,0,0,,,0,FALSE,,,,,,,,,,,,,,,,,,,,,,,,,,,,,,,
,610ca409afdd73dfb308f1c8,627c6f917929ddf571594b9c,2022-05-12_04h26.43.173,classification_task,2021.2.3,Win32,60.07810153,627c6715c52fd12f31907bcf,,,,,,,,,,,,,,,,,,,,,,,a,1,1.4166,"[""0.257"",""0.309"",""0.619"",""0.869""]","[1,0,1,1]",0,20,20,20,1,0,0,,,0,FALSE,,,,,,,,,,,,,,,,,,,,,,,,,,,,,,,
,610ca409afdd73dfb308f1c8,627c6f917929ddf571594b9c,2022-05-12_04h26.43.173,classification_task,2021.2.3,Win32,60.07810153,627c6715c52fd12f31907bcf,,,,,,,,,,,,,,,,,,,,,,,l,1,0.7932,"[""0.027"",""0.309"",""0.573"",""0.767""]","[1,0,1,1]",0,21,21,21,1,1,1,,,0,FALSE,,,,,,,,,,,,,,,,,,,,,,,,,,,,,,,
,610ca409afdd73dfb308f1c8,627c6f917929ddf571594b9c,2022-05-12_04h26.43.173,classification_task,2021.2.3,Win32,60.07810153,627c6715c52fd12f31907bcf,,,,,,,,,,,,,,,,,,,,,,,l,1,0.9189,"[""0.115"",""0.304"",""0.478"",""0.686""]","[1,0,1,1]",0,22,22,22,1,1,0,,,0,FALSE,,,,,,,,,,,,,,,,,,,,,,,,,,,,,,,
,610ca409afdd73dfb308f1c8,627c6f917929ddf571594b9c,2022-05-12_04h26.43.173,classification_task,2021.2.3,Win32,60.07810153,627c6715c52fd12f31907bcf,,,,,,,,,,,,,,,,,,,,,,,l,1,0.8187,"[""0.115"",""0.216"",""0.304"",""0.686""]","[1,1,0,1]",0,23,23,23,1,1,0,,,0,FALSE,,,,,,,,,,,,,,,,,,,,,,,,,,,,,,,
,610ca409afdd73dfb308f1c8,627c6f917929ddf571594b9c,2022-05-12_04h26.43.173,classification_task,2021.2.3,Win32,60.07810153,627c6715c52fd12f31907bcf,,,,,,,,,,,,,,,,,,,,,,,l,1,0.9537,"[""0.974"",""0.216"",""0.478"",""0.686""]","[0,1,1,1]",0,24,24,24,1,1,0,,,0,FALSE,,,,,,,,,,,,,,,,,,,,,,,,,,,,,,,
,610ca409afdd73dfb308f1c8,627c6f917929ddf571594b9c,2022-05-12_04h26.43.173,classification_task,2021.2.3,Win32,60.07810153,627c6715c52fd12f31907bcf,,,,,,,,,,,,,,,,,,,,,,,l,1,0.8988,"[""0.027"",""0.066"",""0.971"",""0.767""]","[1,1,0,1]",0,25,25,25,1,1,1,,,0,FALSE,,,,,,,,,,,,,,,,,,,,,,,,,,,,,,,
,610ca409afdd73dfb308f1c8,627c6f917929ddf571594b9c,2022-05-12_04h26.43.173,classification_task,2021.2.3,Win32,60.07810153,627c6715c52fd12f31907bcf,,,,,,,,,,,,,,,,,,,,,,,a,1,0.9003,"[""0.182"",""0.513"",""0.804"",""0.396""]","[1,1,1,0]",0,26,26,26,1,0,1,,,0,FALSE,,,,,,,,,,,,,,,,,,,,,,,,,,,,,,,
,610ca409afdd73dfb308f1c8,627c6f917929ddf571594b9c,2022-05-12_04h26.43.173,classification_task,2021.2.3,Win32,60.07810153,627c6715c52fd12f31907bcf,,,,,,,,,,,,,,,,,,,,,,,l,1,0.7995,"[""0.027"",""0.066"",""0.573"",""0.443""]","[1,1,1,0]",0,27,27,27,1,1,1,,,0,FALSE,,,,,,,,,,,,,,,,,,,,,,,,,,,,,,,
,610ca409afdd73dfb308f1c8,627c6f917929ddf571594b9c,2022-05-12_04h26.43.173,classification_task,2021.2.3,Win32,60.07810153,627c6715c52fd12f31907bcf,,,,,,,,,,,,,,,,,,,,,,,l,1,0.9677,"[""0.396"",""0.066"",""0.573"",""0.767""]","[0,1,1,1]",0,28,28,28,1,1,1,,,0,FALSE,,,,,,,,,,,,,,,,,,,,,,,,,,,,,,,
,610ca409afdd73dfb308f1c8,627c6f917929ddf571594b9c,2022-05-12_04h26.43.173,classification_task,2021.2.3,Win32,60.07810153,627c6715c52fd12f31907bcf,,,,,,,,,,,,,,,,,,,,,,,a,1,1.0855,"[""0.182"",""0.513"",""0.406"",""0.921""]","[1,1,0,1]",0,29,29,29,1,0,1,,,0,FALSE,,,,,,,,,,,,,,,,,,,,,,,,,,,,,,,
,610ca409afdd73dfb308f1c8,627c6f917929ddf571594b9c,2022-05-12_04h26.43.173,classification_task,2021.2.3,Win32,60.07810153,627c6715c52fd12f31907bcf,,,,,,,,,,,,,,,,,,,,,,,a,1,1.0567,"[""0.182"",""0.408"",""0.804"",""0.921""]","[1,0,1,1]",0,30,30,30,1,0,1,,,0,FALSE,,,,,,,,,,,,,,,,,,,,,,,,,,,,,,,
,610ca409afdd73dfb308f1c8,627c6f917929ddf571594b9c,2022-05-12_04h26.43.173,classification_task,2021.2.3,Win32,60.07810153,627c6715c52fd12f31907bcf,,,,,,,,,,,,,,,,,,,,,,,l,0,1.1158,"[""0.417"",""0.360"",""0.619"",""0.869""]","[0,1,1,1]",0,31,31,31,1,0,0,,,0,FALSE,,,,,,,,,,,,,,,,,,,,,,,,,,,,,,,
,610ca409afdd73dfb308f1c8,627c6f917929ddf571594b9c,2022-05-12_04h26.43.173,classification_task,2021.2.3,Win32,60.07810153,627c6715c52fd12f31907bcf,,,,,,,,,,,,,,,,,,,,,,,l,1,0.7887,"[""0.115"",""0.216"",""0.304"",""0.686""]","[1,1,0,1]",0,32,32,32,1,1,0,,,0,FALSE,,,,,,,,,,,,,,,,,,,,,,,,,,,,,,,
,610ca409afdd73dfb308f1c8,627c6f917929ddf571594b9c,2022-05-12_04h26.43.173,classification_task,2021.2.3,Win32,60.07810153,627c6715c52fd12f31907bcf,,,,,,,,,,,,,,,,,,,,,,,a,1,0.9696,"[""0.257"",""0.360"",""0.417"",""0.869""]","[1,1,0,1]",0,33,33,33,1,0,0,,,0,FALSE,,,,,,,,,,,,,,,,,,,,,,,,,,,,,,,
,610ca409afdd73dfb308f1c8,627c6f917929ddf571594b9c,2022-05-12_04h26.43.173,classification_task,2021.2.3,Win32,60.07810153,627c6715c52fd12f31907bcf,,,,,,,,,,,,,,,,,,,,,,,a,1,0.8665,"[""0.257"",""0.971"",""0.619"",""0.869""]","[1,0,1,1]",0,34,34,34,1,0,0,,,0,FALSE,,,,,,,,,,,,,,,,,,,,,,,,,,,,,,,
,610ca409afdd73dfb308f1c8,627c6f917929ddf571594b9c,2022-05-12_04h26.43.173,classification_task,2021.2.3,Win32,60.07810153,627c6715c52fd12f31907bcf,,,,,,,,,,,,,,,,,,,,,,,l,1,0.9525,"[""0.027"",""0.066"",""0.396"",""0.767""]","[1,1,0,1]",0,35,35,35,1,1,1,,,0,FALSE,,,,,,,,,,,,,,,,,,,,,,,,,,,,,,,
,610ca409afdd73dfb308f1c8,627c6f917929ddf571594b9c,2022-05-12_04h26.43.173,classification_task,2021.2.3,Win32,60.07810153,627c6715c52fd12f31907bcf,,,,,,,,,,,,,,,,,,,,,,,a,1,0.9789,"[""0.257"",""0.360"",""0.619"",""0.396""]","[1,1,1,0]",0,36,36,36,1,0,0,,,0,FALSE,,,,,,,,,,,,,,,,,,,,,,,,,,,,,,,
,610ca409afdd73dfb308f1c8,627c6f917929ddf571594b9c,2022-05-12_04h26.43.173,classification_task,2021.2.3,Win32,60.07810153,627c6715c52fd12f31907bcf,,,,,,,,,,,,,,,,,,,,,,,l,1,1.0113,"[""0.322"",""0.066"",""0.573"",""0.767""]","[0,1,1,1]",0,37,37,37,1,1,1,,,0,FALSE,,,,,,,,,,,,,,,,,,,,,,,,,,,,,,,
,610ca409afdd73dfb308f1c8,627c6f917929ddf571594b9c,2022-05-12_04h26.43.173,classification_task,2021.2.3,Win32,60.07810153,627c6715c52fd12f31907bcf,,,,,,,,,,,,,,,,,,,,,,,l,1,0.8717,"[""0.027"",""0.066"",""0.573"",""0.417""]","[1,1,1,0]",0,38,38,38,1,1,1,,,0,FALSE,,,,,,,,,,,,,,,,,,,,,,,,,,,,,,,
,610ca409afdd73dfb308f1c8,627c6f917929ddf571594b9c,2022-05-12_04h26.43.173,classification_task,2021.2.3,Win32,60.07810153,627c6715c52fd12f31907bcf,,,,,,,,,,,,,,,,,,,,,,,a,1,1.0632,"[""0.182"",""0.293"",""0.804"",""0.921""]","[1,0,1,1]",0,39,39,39,1,0,1,,,0,FALSE,,,,,,,,,,,,,,,,,,,,,,,,,,,,,,,
,610ca409afdd73dfb308f1c8,627c6f917929ddf571594b9c,2022-05-12_04h26.43.173,classification_task,2021.2.3,Win32,60.07810153,627c6715c52fd12f31907bcf,,,,,,,,,,,,,,,,,,,,,,,l,1,0.8525,"[""0.115"",""0.216"",""0.478"",""0.293""]","[1,1,1,0]",0,40,40,40,1,1,0,,,0,FALSE,,,,,,,,,,,,,,,,,,,,,,,,,,,,,,,
,610ca409afdd73dfb308f1c8,627c6f917929ddf571594b9c,2022-05-12_04h26.43.173,classification_task,2021.2.3,Win32,60.07810153,627c6715c52fd12f31907bcf,,,,,,,,,,,,,,,,,,,,,,,a,1,1.6669,"[""0.443"",""0.513"",""0.804"",""0.921""]","[0,1,1,1]",0,41,41,41,1,0,1,,,0,FALSE,,,,,,,,,,,,,,,,,,,,,,,,,,,,,,,
,610ca409afdd73dfb308f1c8,627c6f917929ddf571594b9c,2022-05-12_04h26.43.173,classification_task,2021.2.3,Win32,60.07810153,627c6715c52fd12f31907bcf,,,,,,,,,,,,,,,,,,,,,,,l,1,1.2197,"[""0.399"",""0.216"",""0.478"",""0.686""]","[0,1,1,1]",0,42,42,42,1,1,0,,,0,FALSE,,,,,,,,,,,,,,,,,,,,,,,,,,,,,,,
,610ca409afdd73dfb308f1c8,627c6f917929ddf571594b9c,2022-05-12_04h26.43.173,classification_task,2021.2.3,Win32,60.07810153,627c6715c52fd12f31907bcf,,,,,,,,,,,,,,,,,,,,,,,a,1,0.9338,"[""0.182"",""0.513"",""0.804"",""0.417""]","[1,1,1,0]",0,43,43,43,1,0,1,,,0,FALSE,,,,,,,,,,,,,,,,,,,,,,,,,,,,,,,
,610ca409afdd73dfb308f1c8,627c6f917929ddf571594b9c,2022-05-12_04h26.43.173,classification_task,2021.2.3,Win32,60.07810153,627c6715c52fd12f31907bcf,,,,,,,,,,,,,,,,,,,,,,,l,1,0.822,"[""0.115"",""0.396"",""0.478"",""0.686""]","[1,0,1,1]",0,44,44,44,1,1,0,,,0,FALSE,,,,,,,,,,,,,,,,,,,,,,,,,,,,,,,
,610ca409afdd73dfb308f1c8,627c6f917929ddf571594b9c,2022-05-12_04h26.43.173,classification_task,2021.2.3,Win32,60.07810153,627c6715c52fd12f31907bcf,,,,,,,,,,,,,,,,,,,,,,,a,1,0.9616,"[""0.182"",""0.513"",""0.399"",""0.921""]","[1,1,0,1]",0,45,45,45,1,0,1,,,0,FALSE,,,,,,,,,,,,,,,,,,,,,,,,,,,,,,,
,610ca409afdd73dfb308f1c8,627c6f917929ddf571594b9c,2022-05-12_04h26.43.173,classification_task,2021.2.3,Win32,60.07810153,627c6715c52fd12f31907bcf,,,,,,,,,,,,,,,,,,,,,,,l,0,1.3782,"[""0.309"",""0.360"",""0.619"",""0.869""]","[0,1,1,1]",0,46,46,46,1,0,0,,,0,FALSE,,,,,,,,,,,,,,,,,,,,,,,,,,,,,,,
,610ca409afdd73dfb308f1c8,627c6f917929ddf571594b9c,2022-05-12_04h26.43.173,classification_task,2021.2.3,Win32,60.07810153,627c6715c52fd12f31907bcf,,,,,,,,,,,,,,,,,,,,,,,l,1,0.784,"[""0.027"",""0.406"",""0.573"",""0.767""]","[1,0,1,1]",0,47,47,47,1,1,1,,,0,FALSE,,,,,,,,,,,,,,,,,,,,,,,,,,,,,,,
,610ca409afdd73dfb308f1c8,627c6f917929ddf571594b9c,2022-05-12_04h26.43.173,classification_task,2021.2.3,Win32,60.07810153,627c6715c52fd12f31907bcf,,,,,,,,,,,,,,,,,,,,,,,l,0,1.405,"[""0.443"",""0.360"",""0.619"",""0.869""]","[0,1,1,1]",0,48,48,48,1,0,0,,,0,FALSE,,,,,,,,,,,,,,,,,,,,,,,,,,,,,,,
,610ca409afdd73dfb308f1c8,627c6f917929ddf571594b9c,2022-05-12_04h26.43.173,classification_task,2021.2.3,Win32,60.07810153,627c6715c52fd12f31907bcf,,,,,,,,,,,,,,,,,,,,,,,a,1,1.4702,"[""0.257"",""0.360"",""0.322"",""0.869""]","[1,1,0,1]",0,49,49,49,1,0,0,,,0,FALSE,,,,,,,,,,,,,,,,,,,,,,,,,,,,,,,
,610ca409afdd73dfb308f1c8,627c6f917929ddf571594b9c,2022-05-12_04h26.43.173,classification_task,2021.2.3,Win32,60.07810153,627c6715c52fd12f31907bcf,,,,,,,,,,,,,,,,,,,,,,,l,1,1.0097,"[""0.027"",""0.293"",""0.573"",""0.767""]","[1,0,1,1]",0,50,50,50,1,1,1,,,0,FALSE,,,,,,,,,,,,,,,,,,,,,,,,,,,,,,,
,610ca409afdd73dfb308f1c8,627c6f917929ddf571594b9c,2022-05-12_04h26.43.173,classification_task,2021.2.3,Win32,60.07810153,627c6715c52fd12f31907bcf,,,,,,,,,,,,,,,,,,,,,,,l,1,0.9372,"[""0.322"",""0.216"",""0.478"",""0.686""]","[0,1,1,1]",0,51,51,51,1,1,0,,,0,FALSE,,,,,,,,,,,,,,,,,,,,,,,,,,,,,,,
,610ca409afdd73dfb308f1c8,627c6f917929ddf571594b9c,2022-05-12_04h26.43.173,classification_task,2021.2.3,Win32,60.07810153,627c6715c52fd12f31907bcf,,,,,,,,,,,,,,,,,,,,,,,a,1,1.0325,"[""0.182"",""0.513"",""0.971"",""0.921""]","[1,1,0,1]",0,52,52,52,1,0,1,,,0,FALSE,,,,,,,,,,,,,,,,,,,,,,,,,,,,,,,
,610ca409afdd73dfb308f1c8,627c6f917929ddf571594b9c,2022-05-12_04h26.43.173,classification_task,2021.2.3,Win32,60.07810153,627c6715c52fd12f31907bcf,,,,,,,,,,,,,,,,,,,,,,,a,1,1.1607,"[""0.257"",""0.360"",""0.619"",""0.972""]","[1,1,1,0]",0,53,53,53,1,0,0,,,0,FALSE,,,,,,,,,,,,,,,,,,,,,,,,,,,,,,,
,610ca409afdd73dfb308f1c8,627c6f917929ddf571594b9c,2022-05-12_04h26.43.173,classification_task,2021.2.3,Win32,60.07810153,627c6715c52fd12f31907bcf,,,,,,,,,,,,,,,,,,,,,,,a,1,0.9662,"[""0.182"",""0.513"",""0.804"",""0.304""]","[1,1,1,0]",0,54,54,54,1,0,1,,,0,FALSE,,,,,,,,,,,,,,,,,,,,,,,,,,,,,,,
,610ca409afdd73dfb308f1c8,627c6f917929ddf571594b9c,2022-05-12_04h26.43.173,classification_task,2021.2.3,Win32,60.07810153,627c6715c52fd12f31907bcf,,,,,,,,,,,,,,,,,,,,,,,l,1,0.8822,"[""0.115"",""0.216"",""0.478"",""0.417""]","[1,1,1,0]",0,55,55,55,1,1,0,,,0,FALSE,,,,,,,,,,,,,,,,,,,,,,,,,,,,,,,
,610ca409afdd73dfb308f1c8,627c6f917929ddf571594b9c,2022-05-12_04h26.43.173,classification_task,2021.2.3,Win32,60.07810153,627c6715c52fd12f31907bcf,,,,,,,,,,,,,,,,,,,,,,,a,1,1.5508,"[""0.396"",""0.513"",""0.804"",""0.921""]","[0,1,1,1]",0,56,56,56,1,0,1,,,0,FALSE,,,,,,,,,,,,,,,,,,,,,,,,,,,,,,,
,610ca409afdd73dfb308f1c8,627c6f917929ddf571594b9c,2022-05-12_04h26.43.173,classification_task,2021.2.3,Win32,60.07810153,627c6715c52fd12f31907bcf,,,,,,,,,,,,,,,,,,,,,,,a,1,1.2425,"[""0.257"",""0.417"",""0.619"",""0.869""]","[1,0,1,1]",0,57,57,57,1,0,0,,,0,FALSE,,,,,,,,,,,,,,,,,,,,,,,,,,,,,,,
,610ca409afdd73dfb308f1c8,627c6f917929ddf571594b9c,2022-05-12_04h26.43.173,classification_task,2021.2.3,Win32,60.07810153,627c6715c52fd12f31907bcf,,,,,,,,,,,,,,,,,,,,,,,l,1,0.7304,"[""0.115"",""0.443"",""0.478"",""0.686""]","[1,0,1,1]",0,58,58,58,1,1,0,,,0,FALSE,,,,,,,,,,,,,,,,,,,,,,,,,,,,,,,
,610ca409afdd73dfb308f1c8,627c6f917929ddf571594b9c,2022-05-12_04h26.43.173,classification_task,2021.2.3,Win32,60.07810153,627c6715c52fd12f31907bcf,,,,,,,,,,,,,,,,,,,,,,,a,1,1.1846,"[""0.182"",""0.974"",""0.804"",""0.921""]","[1,0,1,1]",0,59,59,59,1,0,1,,,0,FALSE,,,,,,,,,,,,,,,,,,,,,,,,,,,,,,,
,610ca409afdd73dfb308f1c8,627c6f917929ddf571594b9c,2022-05-12_04h26.43.173,classification_task,2021.2.3,Win32,60.07810153,627c6715c52fd12f31907bcf,,,,,,,,,,,,,,,,,,,,,,,l,1,0.9653,"[""0.027"",""0.066"",""0.972"",""0.767""]","[1,1,0,1]",0,60,60,60,1,1,1,,,0,FALSE,,,,,,,,,,,,,,,,,,,,,,,,,,,,,,,
,610ca409afdd73dfb308f1c8,627c6f917929ddf571594b9c,2022-05-12_04h26.43.173,classification_task,2021.2.3,Win32,60.07810153,627c6715c52fd12f31907bcf,,,,,,,,,,,,,,,,,,,,,,,l,1,0.9527,"[""0.115"",""0.216"",""0.293"",""0.686""]","[1,1,0,1]",0,61,61,61,1,1,0,,,0,FALSE,,,,,,,,,,,,,,,,,,,,,,,,,,,,,,,
,610ca409afdd73dfb308f1c8,627c6f917929ddf571594b9c,2022-05-12_04h26.43.173,classification_task,2021.2.3,Win32,60.07810153,627c6715c52fd12f31907bcf,,,,,,,,,,,,,,,,,,,,,,,l,1,0.8669,"[""0.027"",""0.066"",""0.573"",""0.292""]","[1,1,1,0]",0,62,62,62,1,1,1,,,0,FALSE,,,,,,,,,,,,,,,,,,,,,,,,,,,,,,,
,610ca409afdd73dfb308f1c8,627c6f917929ddf571594b9c,2022-05-12_04h26.43.173,classification_task,2021.2.3,Win32,60.07810153,627c6715c52fd12f31907bcf,,,,,,,,,,,,,,,,,,,,,,,l,1,1.5537,"[""0.394"",""0.066"",""0.573"",""0.767""]","[0,1,1,1]",0,63,63,63,1,1,1,,,0,FALSE,,,,,,,,,,,,,,,,,,,,,,,,,,,,,,,
,610ca409afdd73dfb308f1c8,627c6f917929ddf571594b9c,2022-05-12_04h26.43.173,classification_task,2021.2.3,Win32,60.07810153,627c6715c52fd12f31907bcf,,,,,,,,,,,,,,,,,,,,,,,,,,,,,,,,,,,,,,,0, ,,0,4.931106702,148.8947,0,2,2,2,1,2,3,,,,,,,,,,,,,,,,,,
,610ca409afdd73dfb308f1c8,627c6f917929ddf571594b9c,2022-05-12_04h26.43.173,classification_task,2021.2.3,Win32,60.07810153,627c6715c52fd12f31907bcf,,,,,,,,,,,,,,,,,,,,,,,,,,,,,,,,,,,,,,,1,  ,,0,10,150.8809,0,2,2,2,1,2,3,,,,,,,,,,,,,,,,,,
,610ca409afdd73dfb308f1c8,627c6f917929ddf571594b9c,2022-05-12_04h26.43.173,classification_task,2021.2.3,Win32,60.07810153,627c6715c52fd12f31907bcf,,,,,,,,,,,,,,,,,,,,,,,,,,,,,,,,,,,,,,,2,  ,,0,0.38414903,153.689,0,2,2,2,1,2,3,,,,,,,,,,,,,,,,,,
,610ca409afdd73dfb308f1c8,627c6f917929ddf571594b9c,2022-05-12_04h26.43.173,classification_task,2021.2.3,Win32,60.07810153,627c6715c52fd12f31907bcf,,,,,,,,,,,,,,,,,,,,,,,,,,,,,,,,,,,,,,,,,,,,,0,2,2,2,1,,3,,,,,,,,,,,,,,,,,,
,610ca409afdd73dfb308f1c8,627c6f917929ddf571594b9c,2022-05-12_04h26.43.173,classification_task,2021.2.3,Win32,60.07810153,627c6715c52fd12f31907bcf,,,,,,,,,,,,,,,,,,,,,,,,,,,,,,,,,,,,,,,,,,,,,,,,,,,,,I believe the aid is a competent performer,,0.7,0,5,823.8399,0,0,0,0,1,0,,,,,
,610ca409afdd73dfb308f1c8,627c6f917929ddf571594b9c,2022-05-12_04h26.43.173,classification_task,2021.2.3,Win32,60.07810153,627c6715c52fd12f31907bcf,,,,,,,,,,,,,,,,,,,,,,,,,,,,,,,,,,,,,,,,,,,,,,,,,,,,,I trust the aid,,0.7,0,5,825.1226,0,0,0,0,1,0,,,,,
,610ca409afdd73dfb308f1c8,627c6f917929ddf571594b9c,2022-05-12_04h26.43.173,classification_task,2021.2.3,Win32,60.07810153,627c6715c52fd12f31907bcf,,,,,,,,,,,,,,,,,,,,,,,,,,,,,,,,,,,,,,,,,,,,,,,,,,,,,I have confidence in the advice given by the aid,,0.7,0,5,827.1953,0,0,0,0,1,0,,,,,
,610ca409afdd73dfb308f1c8,627c6f917929ddf571594b9c,2022-05-12_04h26.43.173,classification_task,2021.2.3,Win32,60.07810153,627c6715c52fd12f31907bcf,,,,,,,,,,,,,,,,,,,,,,,,,,,,,,,,,,,,,,,,,,,,,,,,,,,,,I can depend on the aid,,0.7,0,5,828.6295,0,0,0,0,1,0,,,,,
,610ca409afdd73dfb308f1c8,627c6f917929ddf571594b9c,2022-05-12_04h26.43.173,classification_task,2021.2.3,Win32,60.07810153,627c6715c52fd12f31907bcf,,,,,,,,,,,,,,,,,,,,,,,,,,,,,,,,,,,,,,,,,,,,,,,,,,,,,I can rely on the aid to behave in consistent ways,,0.7,0,5,830.1997,0,0,0,0,1,0,,,,,
,610ca409afdd73dfb308f1c8,627c6f917929ddf571594b9c,2022-05-12_04h26.43.173,classification_task,2021.2.3,Win32,60.07810153,627c6715c52fd12f31907bcf,,,,,,,,,,,,,,,,,,,,,,,,,,,,,,,,,,,,,,,,,,,,,,,,,,,,,I can rely on the aid to do its best every time I take its advice,,0.7,0,5,832.1645,0,0,0,0,1,0,,,,,
,610ca409afdd73dfb308f1c8,627c6f917929ddf571594b9c,2022-05-12_04h26.43.173,classification_task,2021.2.3,Win32,60.07810153,627c6715c52fd12f31907bcf,,,,,,,,,,,,,,,,,,,,,,,,,,,,,,,,,,,,,,,,,,,,,,,,,,,,,"On trials you completed with assistance from the aid, how frequently did you think the aid was correct?",,0.7,0,100%,,0,0,0,0,1,0,,,,,
,610ca409afdd73dfb308f1c8,627c6f917929ddf571594b9c,2022-05-12_04h26.43.173,classification_task,2021.2.3,Win32,60.07810153,627c6715c52fd12f31907bcf,,,,,,,,,,,,,,,,,,,,,,,,,,,,,,,,,,,,,,,,,,,,,,,,,,,,,"On trials you completed without the aid, how frequently did you think you were correct?",,0.7,0,70%,,0,0,0,0,1,0,,,,,
,610ca409afdd73dfb308f1c8,627c6f917929ddf571594b9c,2022-05-12_04h26.43.173,classification_task,2021.2.3,Win32,60.07810153,627c6715c52fd12f31907bcf,,,,,,,,,,,,,,,,,,,,,,,,,,,,,,,,,,,,,,,,,,,,,,,,,,,,,,,,,,,0,0,0,0,1,,,,,,
,610ca409afdd73dfb308f1c8,627c6f917929ddf571594b9c,2022-05-12_04h26.43.173,classification_task,2021.2.3,Win32,60.07810153,627c6715c52fd12f31907bcf,,,,,,,,,,,,,,,,,,,,,,,,,,,,,,,,,,,,,,,,,,,,,,,,,,,,,,,,,,,,,,,,,space,15.2652,871.4685,,
,610ca409afdd73dfb308f1c8,627c6f917929ddf571594b9c,2022-05-12_04h26.43.173,classification_task,2021.2.3,Win32,60.07810153,627c6715c52fd12f31907bcf,,,,,,,,,,,,,,,,,,,,,,,,,,,,,,,,,,,,,,,,,,,,,,,,,,,,,,,,,,,,,,,,,,,,"Mozilla/5.0 (Windows NT 10.0; Win64; x64) AppleWebKit/537.36 (KHTML, like Gecko) Chrome/101.0.4951.54 Safari/537.36",
,610ca409afdd73dfb308f1c8,627c6f917929ddf571594b9c,2022-05-12_04h26.43.173,classification_task,2021.2.3,Win32,60.07810153,627c6715c52fd12f31907bcf,,,,,,,,,,,,,,,,,,,,,,,,,,,,,,,,,,,,,,,,,,,,,,,,,,,,,,,,,,,,,,,,,,,,,FADING
