usingWebGL,participant,session,date,expName,psychopyVersion,OS,frameRate,study_id,signatures_friend,signatures_foe,band_ranges_top,band_ranges_bottom,formitemText,formtype,formundefined,formitemWidth,formindex,formresponse,formrt,key_resp_2.keys,key_resp_2.rt,tute_resp.keys,tute_resp.rt,tutorial.thisRepN,tutorial.thisTrialN,tutorial.thisN,tutorial.thisIndex,tutorial.ran,key_resp_4.keys,key_resp_4.rt,key_resp.keys,key_resp.corr,key_resp.rt,lines_presented,is_signal_presented,trials.thisRepN,trials.thisTrialN,trials.thisN,trials.thisIndex,trials.ran,vessel,active_band,lines,is_signal,supported_pos,catch_trial,debrief_formindex,debrief_formitemText,debrief_formtype,debrief_formitemWidth,debrief_formresponse,debrief_formrt,phases.thisRepN,phases.thisTrialN,phases.thisN,phases.thisIndex,phases.ran,phases.order,phase,key_resp_3.keys,trustitemText,trusttype,trustitemWidth,trustindex,trustresponse,trustrt,support_status.thisRepN,support_status.thisTrialN,support_status.thisN,support_status.thisIndex,support_status.ran,support_status.order,key_resp_5.keys,key_resp_5.rt,globalClockTime,userAgent,manualCondition
TRUE,611023befc2052d878c7f50c,627c6ebf6863809235f422cc,2022-05-11_21h28.02.026,classification_task,2021.2.3,MacIntel,59.82292414,627c6715c52fd12f31907bcf,,,,,,,,,,,,,,,,,,,,,,,,,,,,,,,,,,,,,,,,,,,,,,,,,,,,,,,,,,,,,,,,,,,,,
,611023befc2052d878c7f50c,627c6ebf6863809235f422cc,2022-05-11_21h28.02.026,classification_task,2021.2.3,MacIntel,59.82292414,627c6715c52fd12f31907bcf,"[[""0.251"",""0.356"",""0.872"",""0.958""],[""0.201"",""0.432"",""0.670"",""0.924""]]","[[""0.056"",""0.399"",""0.544"",""0.742""],[""0.126"",""0.305"",""0.472"",""0.829""]]","[1,10]","[100,1000]",Video game experience,,,0.7,0,,,,,,,,,,,,,,,,,,,,,,,,,,,,,,,,,,,,,,,,,,,,,,,,,,,,,,,,,,,,
,611023befc2052d878c7f50c,627c6ebf6863809235f422cc,2022-05-11_21h28.02.026,classification_task,2021.2.3,MacIntel,59.82292414,627c6715c52fd12f31907bcf,,,,,Approximately how many hours did you spend playing video games in the last week?,,,0.7,0,20,,,,,,,,,,,,,,,,,,,,,,,,,,,,,,,,,,,,,,,,,,,,,,,,,,,,,,,,,,,
,611023befc2052d878c7f50c,627c6ebf6863809235f422cc,2022-05-11_21h28.02.026,classification_task,2021.2.3,MacIntel,59.82292414,627c6715c52fd12f31907bcf,,,,,"Which game did you play the most this year? (Enter ""None"" if you didn't play any)",,,0.7,0,Super Mario Odessy,,,,,,,,,,,,,,,,,,,,,,,,,,,,,,,,,,,,,,,,,,,,,,,,,,,,,,,,,,,
,611023befc2052d878c7f50c,627c6ebf6863809235f422cc,2022-05-11_21h28.02.026,classification_task,2021.2.3,MacIntel,59.82292414,627c6715c52fd12f31907bcf,,,,,Visual perception,,,0.7,0,,,,,,,,,,,,,,,,,,,,,,,,,,,,,,,,,,,,,,,,,,,,,,,,,,,,,,,,,,,,
,611023befc2052d878c7f50c,627c6ebf6863809235f422cc,2022-05-11_21h28.02.026,classification_task,2021.2.3,MacIntel,59.82292414,627c6715c52fd12f31907bcf,,,,,Do you have any form of color blindness?,,,0.7,0,No,30.8908,,,,,,,,,,,,,,,,,,,,,,,,,,,,,,,,,,,,,,,,,,,,,,,,,,,,,,,,,,
,611023befc2052d878c7f50c,627c6ebf6863809235f422cc,2022-05-11_21h28.02.026,classification_task,2021.2.3,MacIntel,59.82292414,627c6715c52fd12f31907bcf,,,,,Do you use software to change the colour temperature of your screen (e.g. f.lux)?,,,0.7,0,No,33.2241,,,,,,,,,,,,,,,,,,,,,,,,,,,,,,,,,,,,,,,,,,,,,,,,,,,,,,,,,,
,611023befc2052d878c7f50c,627c6ebf6863809235f422cc,2022-05-11_21h28.02.026,classification_task,2021.2.3,MacIntel,59.82292414,627c6715c52fd12f31907bcf,,,,,,,,,,,,space,28.6299,space,40.6035,0,0,0,0,1,,,,,,,,,,,,,,,,,,,,,,,,,,,,,,,,,,,,,,,,,,,,,,,,,
,611023befc2052d878c7f50c,627c6ebf6863809235f422cc,2022-05-11_21h28.02.026,classification_task,2021.2.3,MacIntel,59.82292414,627c6715c52fd12f31907bcf,,,,,,,,,,,,,,space,5.6144,1,0,1,0,1,,,,,,,,,,,,,,,,,,,,,,,,,,,,,,,,,,,,,,,,,,,,,,,,,
,611023befc2052d878c7f50c,627c6ebf6863809235f422cc,2022-05-11_21h28.02.026,classification_task,2021.2.3,MacIntel,59.82292414,627c6715c52fd12f31907bcf,,,,,,,,,,,,,,space,17.7172,2,0,2,0,1,,,,,,,,,,,,,,,,,,,,,,,,,,,,,,,,,,,,,,,,,,,,,,,,,
,611023befc2052d878c7f50c,627c6ebf6863809235f422cc,2022-05-11_21h28.02.026,classification_task,2021.2.3,MacIntel,59.82292414,627c6715c52fd12f31907bcf,,,,,,,,,,,,,,space,5.8,3,0,3,0,1,,,,,,,,,,,,,,,,,,,,,,,,,,,,,,,,,,,,,,,,,,,,,,,,,
,611023befc2052d878c7f50c,627c6ebf6863809235f422cc,2022-05-11_21h28.02.026,classification_task,2021.2.3,MacIntel,59.82292414,627c6715c52fd12f31907bcf,,,,,,,,,,,,,,space,13.0047,4,0,4,0,1,,,,,,,,,,,,,,,,,,,,,,,,,,,,,,,,,,,,,,,,,,,,,,,,,
,611023befc2052d878c7f50c,627c6ebf6863809235f422cc,2022-05-11_21h28.02.026,classification_task,2021.2.3,MacIntel,59.82292414,627c6715c52fd12f31907bcf,,,,,,,,,,,,,,,,,,,,,space,17.3847,l,1,4.1469,"[""0.056"",""0.399"",""0.544"",""0.163""]","[1,1,1,0]",0,0,0,0,1,1,0,,,0,FALSE,,,,,,,,,,,,,,,,,,,,,,,,,,,,,,,
,611023befc2052d878c7f50c,627c6ebf6863809235f422cc,2022-05-11_21h28.02.026,classification_task,2021.2.3,MacIntel,59.82292414,627c6715c52fd12f31907bcf,,,,,,,,,,,,,,,,,,,,,,,a,1,4.6936,"[""0.201"",""0.511"",""0.670"",""0.924""]","[1,0,1,1]",0,1,1,1,1,0,1,,,0,FALSE,,,,,,,,,,,,,,,,,,,,,,,,,,,,,,,
,611023befc2052d878c7f50c,627c6ebf6863809235f422cc,2022-05-11_21h28.02.026,classification_task,2021.2.3,MacIntel,59.82292414,627c6715c52fd12f31907bcf,,,,,,,,,,,,,,,,,,,,,,,l,1,2.6469,"[""0.056"",""0.582"",""0.544"",""0.742""]","[1,0,1,1]",0,2,2,2,1,1,0,,,0,FALSE,,,,,,,,,,,,,,,,,,,,,,,,,,,,,,,
,611023befc2052d878c7f50c,627c6ebf6863809235f422cc,2022-05-11_21h28.02.026,classification_task,2021.2.3,MacIntel,59.82292414,627c6715c52fd12f31907bcf,,,,,,,,,,,,,,,,,,,,,,,a,1,3.195,"[""0.201"",""0.432"",""0.635"",""0.924""]","[1,1,0,1]",0,3,3,3,1,0,1,,,0,FALSE,,,,,,,,,,,,,,,,,,,,,,,,,,,,,,,
,611023befc2052d878c7f50c,627c6ebf6863809235f422cc,2022-05-11_21h28.02.026,classification_task,2021.2.3,MacIntel,59.82292414,627c6715c52fd12f31907bcf,,,,,,,,,,,,,,,,,,,,,,,a,1,5.1878,"[""0.509"",""0.432"",""0.670"",""0.924""]","[0,1,1,1]",0,4,4,4,1,0,1,,,0,FALSE,,,,,,,,,,,,,,,,,,,,,,,,,,,,,,,
,611023befc2052d878c7f50c,627c6ebf6863809235f422cc,2022-05-11_21h28.02.026,classification_task,2021.2.3,MacIntel,59.82292414,627c6715c52fd12f31907bcf,,,,,,,,,,,,,,,,,,,,,,,a,1,3.1334,"[""0.251"",""0.707"",""0.872"",""0.958""]","[1,0,1,1]",0,5,5,5,1,0,0,,,0,FALSE,,,,,,,,,,,,,,,,,,,,,,,,,,,,,,,
,611023befc2052d878c7f50c,627c6ebf6863809235f422cc,2022-05-11_21h28.02.026,classification_task,2021.2.3,MacIntel,59.82292414,627c6715c52fd12f31907bcf,,,,,,,,,,,,,,,,,,,,,,,l,1,2.1767,"[""0.126"",""0.305"",""0.472"",""0.511""]","[1,1,1,0]",0,6,6,6,1,1,1,,,0,FALSE,,,,,,,,,,,,,,,,,,,,,,,,,,,,,,,
,611023befc2052d878c7f50c,627c6ebf6863809235f422cc,2022-05-11_21h28.02.026,classification_task,2021.2.3,MacIntel,59.82292414,627c6715c52fd12f31907bcf,,,,,,,,,,,,,,,,,,,,,,,l,1,5.4549,"[""0.604"",""0.305"",""0.472"",""0.829""]","[0,1,1,1]",0,7,7,7,1,1,1,,,0,FALSE,,,,,,,,,,,,,,,,,,,,,,,,,,,,,,,
,611023befc2052d878c7f50c,627c6ebf6863809235f422cc,2022-05-11_21h28.02.026,classification_task,2021.2.3,MacIntel,59.82292414,627c6715c52fd12f31907bcf,,,,,,,,,,,,,,,,,,,,,,,a,1,4.3341,"[""0.201"",""0.432"",""0.670"",""0.091""]","[1,1,1,0]",0,8,8,8,1,0,1,,,0,FALSE,,,,,,,,,,,,,,,,,,,,,,,,,,,,,,,
,611023befc2052d878c7f50c,627c6ebf6863809235f422cc,2022-05-11_21h28.02.026,classification_task,2021.2.3,MacIntel,59.82292414,627c6715c52fd12f31907bcf,,,,,,,,,,,,,,,,,,,,,,,a,1,3.0477,"[""0.605"",""0.356"",""0.872"",""0.958""]","[0,1,1,1]",0,9,9,9,1,0,0,,,0,FALSE,,,,,,,,,,,,,,,,,,,,,,,,,,,,,,,
,611023befc2052d878c7f50c,627c6ebf6863809235f422cc,2022-05-11_21h28.02.026,classification_task,2021.2.3,MacIntel,59.82292414,627c6715c52fd12f31907bcf,,,,,,,,,,,,,,,,,,,,,,,a,1,4.9535,"[""0.251"",""0.356"",""0.872"",""0.090""]","[1,1,1,0]",0,10,10,10,1,0,0,,,0,FALSE,,,,,,,,,,,,,,,,,,,,,,,,,,,,,,,
,611023befc2052d878c7f50c,627c6ebf6863809235f422cc,2022-05-11_21h28.02.026,classification_task,2021.2.3,MacIntel,59.82292414,627c6715c52fd12f31907bcf,,,,,,,,,,,,,,,,,,,,,,,l,1,5.2535,"[""0.056"",""0.399"",""0.630"",""0.742""]","[1,1,0,1]",0,11,11,11,1,1,0,,,0,FALSE,,,,,,,,,,,,,,,,,,,,,,,,,,,,,,,
,611023befc2052d878c7f50c,627c6ebf6863809235f422cc,2022-05-11_21h28.02.026,classification_task,2021.2.3,MacIntel,59.82292414,627c6715c52fd12f31907bcf,,,,,,,,,,,,,,,,,,,,,,,l,1,3.5788,"[""0.126"",""0.305"",""0.610"",""0.829""]","[1,1,0,1]",0,12,12,12,1,1,1,,,0,FALSE,,,,,,,,,,,,,,,,,,,,,,,,,,,,,,,
,611023befc2052d878c7f50c,627c6ebf6863809235f422cc,2022-05-11_21h28.02.026,classification_task,2021.2.3,MacIntel,59.82292414,627c6715c52fd12f31907bcf,,,,,,,,,,,,,,,,,,,,,,,l,1,2.9996,"[""0.126"",""0.605"",""0.472"",""0.829""]","[1,0,1,1]",0,13,13,13,1,1,1,,,0,FALSE,,,,,,,,,,,,,,,,,,,,,,,,,,,,,,,
,611023befc2052d878c7f50c,627c6ebf6863809235f422cc,2022-05-11_21h28.02.026,classification_task,2021.2.3,MacIntel,59.82292414,627c6715c52fd12f31907bcf,,,,,,,,,,,,,,,,,,,,,,,a,1,3.7151,"[""0.251"",""0.356"",""0.579"",""0.958""]","[1,1,0,1]",0,14,14,14,1,0,0,,,0,FALSE,,,,,,,,,,,,,,,,,,,,,,,,,,,,,,,
,611023befc2052d878c7f50c,627c6ebf6863809235f422cc,2022-05-11_21h28.02.026,classification_task,2021.2.3,MacIntel,59.82292414,627c6715c52fd12f31907bcf,,,,,,,,,,,,,,,,,,,,,,,l,1,4.301,"[""0.090"",""0.399"",""0.544"",""0.742""]","[0,1,1,1]",0,15,15,15,1,1,0,,,0,FALSE,,,,,,,,,,,,,,,,,,,,,,,,,,,,,,,
,611023befc2052d878c7f50c,627c6ebf6863809235f422cc,2022-05-11_21h28.02.026,classification_task,2021.2.3,MacIntel,59.82292414,627c6715c52fd12f31907bcf,,,,,,,,,,,,,,,,,,,,,,,a,1,1.9764,"[""0.251"",""0.356"",""0.872"",""0.582""]","[1,1,1,0]",0,16,16,16,1,0,0,,,0,FALSE,,,,,,,,,,,,,,,,,,,,,,,,,,,,,,,
,611023befc2052d878c7f50c,627c6ebf6863809235f422cc,2022-05-11_21h28.02.026,classification_task,2021.2.3,MacIntel,59.82292414,627c6715c52fd12f31907bcf,,,,,,,,,,,,,,,,,,,,,,,a,1,1.4602,"[""0.251"",""0.356"",""0.793"",""0.958""]","[1,1,0,1]",0,17,17,17,1,0,0,,,0,FALSE,,,,,,,,,,,,,,,,,,,,,,,,,,,,,,,
,611023befc2052d878c7f50c,627c6ebf6863809235f422cc,2022-05-11_21h28.02.026,classification_task,2021.2.3,MacIntel,59.82292414,627c6715c52fd12f31907bcf,,,,,,,,,,,,,,,,,,,,,,,l,1,3.2575,"[""0.707"",""0.305"",""0.472"",""0.829""]","[0,1,1,1]",0,18,18,18,1,1,1,,,0,FALSE,,,,,,,,,,,,,,,,,,,,,,,,,,,,,,,
,611023befc2052d878c7f50c,627c6ebf6863809235f422cc,2022-05-11_21h28.02.026,classification_task,2021.2.3,MacIntel,59.82292414,627c6715c52fd12f31907bcf,,,,,,,,,,,,,,,,,,,,,,,a,1,3.6815,"[""0.091"",""0.356"",""0.872"",""0.958""]","[0,1,1,1]",0,19,19,19,1,0,0,,,0,FALSE,,,,,,,,,,,,,,,,,,,,,,,,,,,,,,,
,611023befc2052d878c7f50c,627c6ebf6863809235f422cc,2022-05-11_21h28.02.026,classification_task,2021.2.3,MacIntel,59.82292414,627c6715c52fd12f31907bcf,,,,,,,,,,,,,,,,,,,,,,,l,1,2.8175,"[""0.056"",""0.399"",""0.793"",""0.742""]","[1,1,0,1]",0,20,20,20,1,1,0,,,0,FALSE,,,,,,,,,,,,,,,,,,,,,,,,,,,,,,,
,611023befc2052d878c7f50c,627c6ebf6863809235f422cc,2022-05-11_21h28.02.026,classification_task,2021.2.3,MacIntel,59.82292414,627c6715c52fd12f31907bcf,,,,,,,,,,,,,,,,,,,,,,,l,1,3.3285,"[""0.126"",""0.305"",""0.472"",""0.610""]","[1,1,1,0]",0,21,21,21,1,1,1,,,0,FALSE,,,,,,,,,,,,,,,,,,,,,,,,,,,,,,,
,611023befc2052d878c7f50c,627c6ebf6863809235f422cc,2022-05-11_21h28.02.026,classification_task,2021.2.3,MacIntel,59.82292414,627c6715c52fd12f31907bcf,,,,,,,,,,,,,,,,,,,,,,,a,1,2.0784,"[""0.091"",""0.432"",""0.670"",""0.924""]","[0,1,1,1]",0,22,22,22,1,0,1,,,0,FALSE,,,,,,,,,,,,,,,,,,,,,,,,,,,,,,,
,611023befc2052d878c7f50c,627c6ebf6863809235f422cc,2022-05-11_21h28.02.026,classification_task,2021.2.3,MacIntel,59.82292414,627c6715c52fd12f31907bcf,,,,,,,,,,,,,,,,,,,,,,,l,1,3.2342,"[""0.126"",""0.707"",""0.472"",""0.829""]","[1,0,1,1]",0,23,23,23,1,1,1,,,0,FALSE,,,,,,,,,,,,,,,,,,,,,,,,,,,,,,,
,611023befc2052d878c7f50c,627c6ebf6863809235f422cc,2022-05-11_21h28.02.026,classification_task,2021.2.3,MacIntel,59.82292414,627c6715c52fd12f31907bcf,,,,,,,,,,,,,,,,,,,,,,,l,1,2.245,"[""0.126"",""0.305"",""0.511"",""0.829""]","[1,1,0,1]",0,24,24,24,1,1,1,,,0,FALSE,,,,,,,,,,,,,,,,,,,,,,,,,,,,,,,
,611023befc2052d878c7f50c,627c6ebf6863809235f422cc,2022-05-11_21h28.02.026,classification_task,2021.2.3,MacIntel,59.82292414,627c6715c52fd12f31907bcf,,,,,,,,,,,,,,,,,,,,,,,l,1,2.276,"[""0.582"",""0.399"",""0.544"",""0.742""]","[0,1,1,1]",0,25,25,25,1,1,0,,,0,FALSE,,,,,,,,,,,,,,,,,,,,,,,,,,,,,,,
,611023befc2052d878c7f50c,627c6ebf6863809235f422cc,2022-05-11_21h28.02.026,classification_task,2021.2.3,MacIntel,59.82292414,627c6715c52fd12f31907bcf,,,,,,,,,,,,,,,,,,,,,,,a,1,3.1554,"[""0.201"",""0.432"",""0.090"",""0.924""]","[1,1,0,1]",0,26,26,26,1,0,1,,,0,FALSE,,,,,,,,,,,,,,,,,,,,,,,,,,,,,,,
,611023befc2052d878c7f50c,627c6ebf6863809235f422cc,2022-05-11_21h28.02.026,classification_task,2021.2.3,MacIntel,59.82292414,627c6715c52fd12f31907bcf,,,,,,,,,,,,,,,,,,,,,,,l,1,2.7764,"[""0.056"",""0.399"",""0.544"",""0.582""]","[1,1,1,0]",0,27,27,27,1,1,0,,,0,FALSE,,,,,,,,,,,,,,,,,,,,,,,,,,,,,,,
,611023befc2052d878c7f50c,627c6ebf6863809235f422cc,2022-05-11_21h28.02.026,classification_task,2021.2.3,MacIntel,59.82292414,627c6715c52fd12f31907bcf,,,,,,,,,,,,,,,,,,,,,,,l,1,3.9179,"[""0.056"",""0.511"",""0.544"",""0.742""]","[1,0,1,1]",0,28,28,28,1,1,0,,,0,FALSE,,,,,,,,,,,,,,,,,,,,,,,,,,,,,,,
,611023befc2052d878c7f50c,627c6ebf6863809235f422cc,2022-05-11_21h28.02.026,classification_task,2021.2.3,MacIntel,59.82292414,627c6715c52fd12f31907bcf,,,,,,,,,,,,,,,,,,,,,,,a,1,2.3601,"[""0.201"",""0.432"",""0.670"",""0.582""]","[1,1,1,0]",0,29,29,29,1,0,1,,,0,FALSE,,,,,,,,,,,,,,,,,,,,,,,,,,,,,,,
,611023befc2052d878c7f50c,627c6ebf6863809235f422cc,2022-05-11_21h28.02.026,classification_task,2021.2.3,MacIntel,59.82292414,627c6715c52fd12f31907bcf,,,,,,,,,,,,,,,,,,,,,,,a,1,5.6315,"[""0.251"",""0.630"",""0.872"",""0.958""]","[1,0,1,1]",0,30,30,30,1,0,0,,,0,FALSE,,,,,,,,,,,,,,,,,,,,,,,,,,,,,,,
,611023befc2052d878c7f50c,627c6ebf6863809235f422cc,2022-05-11_21h28.02.026,classification_task,2021.2.3,MacIntel,59.82292414,627c6715c52fd12f31907bcf,,,,,,,,,,,,,,,,,,,,,,,a,1,1.9246,"[""0.201"",""0.793"",""0.670"",""0.924""]","[1,0,1,1]",0,31,31,31,1,0,1,,,0,FALSE,,,,,,,,,,,,,,,,,,,,,,,,,,,,,,,
,611023befc2052d878c7f50c,627c6ebf6863809235f422cc,2022-05-11_21h28.02.026,classification_task,2021.2.3,MacIntel,59.82292414,627c6715c52fd12f31907bcf,,,,,,,,,,,,,,,,,,,,,,,a,1,4.3296,"[""0.251"",""0.707"",""0.872"",""0.958""]","[1,0,1,1]",0,32,32,32,1,0,0,,,0,FALSE,,,,,,,,,,,,,,,,,,,,,,,,,,,,,,,
,611023befc2052d878c7f50c,627c6ebf6863809235f422cc,2022-05-11_21h28.02.026,classification_task,2021.2.3,MacIntel,59.82292414,627c6715c52fd12f31907bcf,,,,,,,,,,,,,,,,,,,,,,,l,1,3.5684,"[""0.126"",""0.305"",""0.472"",""0.584""]","[1,1,1,0]",0,33,33,33,1,1,1,,,0,FALSE,,,,,,,,,,,,,,,,,,,,,,,,,,,,,,,
,611023befc2052d878c7f50c,627c6ebf6863809235f422cc,2022-05-11_21h28.02.026,classification_task,2021.2.3,MacIntel,59.82292414,627c6715c52fd12f31907bcf,,,,,,,,,,,,,,,,,,,,,,,l,1,2.8479,"[""0.056"",""0.707"",""0.544"",""0.742""]","[1,0,1,1]",0,34,34,34,1,1,0,,,0,FALSE,,,,,,,,,,,,,,,,,,,,,,,,,,,,,,,
,611023befc2052d878c7f50c,627c6ebf6863809235f422cc,2022-05-11_21h28.02.026,classification_task,2021.2.3,MacIntel,59.82292414,627c6715c52fd12f31907bcf,,,,,,,,,,,,,,,,,,,,,,,a,1,3.5004,"[""0.091"",""0.432"",""0.670"",""0.924""]","[0,1,1,1]",0,35,35,35,1,0,1,,,0,FALSE,,,,,,,,,,,,,,,,,,,,,,,,,,,,,,,
,611023befc2052d878c7f50c,627c6ebf6863809235f422cc,2022-05-11_21h28.02.026,classification_task,2021.2.3,MacIntel,59.82292414,627c6715c52fd12f31907bcf,,,,,,,,,,,,,,,,,,,,,,,a,1,3.7995,"[""0.090"",""0.356"",""0.872"",""0.958""]","[0,1,1,1]",0,36,36,36,1,0,0,,,0,FALSE,,,,,,,,,,,,,,,,,,,,,,,,,,,,,,,
,611023befc2052d878c7f50c,627c6ebf6863809235f422cc,2022-05-11_21h28.02.026,classification_task,2021.2.3,MacIntel,59.82292414,627c6715c52fd12f31907bcf,,,,,,,,,,,,,,,,,,,,,,,l,1,2.4278,"[""0.610"",""0.305"",""0.472"",""0.829""]","[0,1,1,1]",0,37,37,37,1,1,1,,,0,FALSE,,,,,,,,,,,,,,,,,,,,,,,,,,,,,,,
,611023befc2052d878c7f50c,627c6ebf6863809235f422cc,2022-05-11_21h28.02.026,classification_task,2021.2.3,MacIntel,59.82292414,627c6715c52fd12f31907bcf,,,,,,,,,,,,,,,,,,,,,,,l,1,1.7035,"[""0.126"",""0.793"",""0.472"",""0.829""]","[1,0,1,1]",0,38,38,38,1,1,1,,,0,FALSE,,,,,,,,,,,,,,,,,,,,,,,,,,,,,,,
,611023befc2052d878c7f50c,627c6ebf6863809235f422cc,2022-05-11_21h28.02.026,classification_task,2021.2.3,MacIntel,59.82292414,627c6715c52fd12f31907bcf,,,,,,,,,,,,,,,,,,,,,,,a,1,1.2297,"[""0.201"",""0.432"",""0.670"",""0.630""]","[1,1,1,0]",0,39,39,39,1,0,1,,,0,FALSE,,,,,,,,,,,,,,,,,,,,,,,,,,,,,,,
,611023befc2052d878c7f50c,627c6ebf6863809235f422cc,2022-05-11_21h28.02.026,classification_task,2021.2.3,MacIntel,59.82292414,627c6715c52fd12f31907bcf,,,,,,,,,,,,,,,,,,,,,,,a,0,3.3941,"[""0.056"",""0.399"",""0.091"",""0.742""]","[1,1,0,1]",0,40,40,40,1,1,0,,,0,FALSE,,,,,,,,,,,,,,,,,,,,,,,,,,,,,,,
,611023befc2052d878c7f50c,627c6ebf6863809235f422cc,2022-05-11_21h28.02.026,classification_task,2021.2.3,MacIntel,59.82292414,627c6715c52fd12f31907bcf,,,,,,,,,,,,,,,,,,,,,,,a,1,5.7113,"[""0.201"",""0.579"",""0.670"",""0.924""]","[1,0,1,1]",0,41,41,41,1,0,1,,,0,FALSE,,,,,,,,,,,,,,,,,,,,,,,,,,,,,,,
,611023befc2052d878c7f50c,627c6ebf6863809235f422cc,2022-05-11_21h28.02.026,classification_task,2021.2.3,MacIntel,59.82292414,627c6715c52fd12f31907bcf,,,,,,,,,,,,,,,,,,,,,,,a,1,2.8313,"[""0.251"",""0.356"",""0.872"",""0.610""]","[1,1,1,0]",0,42,42,42,1,0,0,,,0,FALSE,,,,,,,,,,,,,,,,,,,,,,,,,,,,,,,
,611023befc2052d878c7f50c,627c6ebf6863809235f422cc,2022-05-11_21h28.02.026,classification_task,2021.2.3,MacIntel,59.82292414,627c6715c52fd12f31907bcf,,,,,,,,,,,,,,,,,,,,,,,l,1,1.1286,"[""0.126"",""0.305"",""0.793"",""0.829""]","[1,1,0,1]",0,43,43,43,1,1,1,,,0,FALSE,,,,,,,,,,,,,,,,,,,,,,,,,,,,,,,
,611023befc2052d878c7f50c,627c6ebf6863809235f422cc,2022-05-11_21h28.02.026,classification_task,2021.2.3,MacIntel,59.82292414,627c6715c52fd12f31907bcf,,,,,,,,,,,,,,,,,,,,,,,a,0,1.9231,"[""0.582"",""0.399"",""0.544"",""0.742""]","[0,1,1,1]",0,44,44,44,1,1,0,,,0,FALSE,,,,,,,,,,,,,,,,,,,,,,,,,,,,,,,
,611023befc2052d878c7f50c,627c6ebf6863809235f422cc,2022-05-11_21h28.02.026,classification_task,2021.2.3,MacIntel,59.82292414,627c6715c52fd12f31907bcf,,,,,,,,,,,,,,,,,,,,,,,a,1,4.0861,"[""0.251"",""0.356"",""0.090"",""0.958""]","[1,1,0,1]",0,45,45,45,1,0,0,,,0,FALSE,,,,,,,,,,,,,,,,,,,,,,,,,,,,,,,
,611023befc2052d878c7f50c,627c6ebf6863809235f422cc,2022-05-11_21h28.02.026,classification_task,2021.2.3,MacIntel,59.82292414,627c6715c52fd12f31907bcf,,,,,,,,,,,,,,,,,,,,,,,l,0,2.5797,"[""0.201"",""0.432"",""0.610"",""0.924""]","[1,1,0,1]",0,46,46,46,1,0,1,,,0,FALSE,,,,,,,,,,,,,,,,,,,,,,,,,,,,,,,
,611023befc2052d878c7f50c,627c6ebf6863809235f422cc,2022-05-11_21h28.02.026,classification_task,2021.2.3,MacIntel,59.82292414,627c6715c52fd12f31907bcf,,,,,,,,,,,,,,,,,,,,,,,a,0,1.5598,"[""0.056"",""0.399"",""0.544"",""0.793""]","[1,1,1,0]",0,47,47,47,1,1,0,,,0,FALSE,,,,,,,,,,,,,,,,,,,,,,,,,,,,,,,
,611023befc2052d878c7f50c,627c6ebf6863809235f422cc,2022-05-11_21h28.02.026,classification_task,2021.2.3,MacIntel,59.82292414,627c6715c52fd12f31907bcf,,,,,,,,,,,,,,,,,,,,,,,a,1,1.6565,"[""0.201"",""0.432"",""0.509"",""0.924""]","[1,1,0,1]",0,48,48,48,1,0,1,,,0,FALSE,,,,,,,,,,,,,,,,,,,,,,,,,,,,,,,
,611023befc2052d878c7f50c,627c6ebf6863809235f422cc,2022-05-11_21h28.02.026,classification_task,2021.2.3,MacIntel,59.82292414,627c6715c52fd12f31907bcf,,,,,,,,,,,,,,,,,,,,,,,a,1,2.5119,"[""0.201"",""0.605"",""0.670"",""0.924""]","[1,0,1,1]",0,49,49,49,1,0,1,,,0,FALSE,,,,,,,,,,,,,,,,,,,,,,,,,,,,,,,
,611023befc2052d878c7f50c,627c6ebf6863809235f422cc,2022-05-11_21h28.02.026,classification_task,2021.2.3,MacIntel,59.82292414,627c6715c52fd12f31907bcf,,,,,,,,,,,,,,,,,,,,,,,l,1,4.6691,"[""0.056"",""0.399"",""0.511"",""0.742""]","[1,1,0,1]",0,50,50,50,1,1,0,,,0,FALSE,,,,,,,,,,,,,,,,,,,,,,,,,,,,,,,
,611023befc2052d878c7f50c,627c6ebf6863809235f422cc,2022-05-11_21h28.02.026,classification_task,2021.2.3,MacIntel,59.82292414,627c6715c52fd12f31907bcf,,,,,,,,,,,,,,,,,,,,,,,l,1,3.2151,"[""0.056"",""0.635"",""0.544"",""0.742""]","[1,0,1,1]",0,51,51,51,1,1,0,,,0,FALSE,,,,,,,,,,,,,,,,,,,,,,,,,,,,,,,
,611023befc2052d878c7f50c,627c6ebf6863809235f422cc,2022-05-11_21h28.02.026,classification_task,2021.2.3,MacIntel,59.82292414,627c6715c52fd12f31907bcf,,,,,,,,,,,,,,,,,,,,,,,a,0,1.4752,"[""0.126"",""0.305"",""0.472"",""0.793""]","[1,1,1,0]",0,52,52,52,1,1,1,,,0,FALSE,,,,,,,,,,,,,,,,,,,,,,,,,,,,,,,
,611023befc2052d878c7f50c,627c6ebf6863809235f422cc,2022-05-11_21h28.02.026,classification_task,2021.2.3,MacIntel,59.82292414,627c6715c52fd12f31907bcf,,,,,,,,,,,,,,,,,,,,,,,a,0,1.3084,"[""0.126"",""0.582"",""0.472"",""0.829""]","[1,0,1,1]",0,53,53,53,1,1,1,,,0,FALSE,,,,,,,,,,,,,,,,,,,,,,,,,,,,,,,
,611023befc2052d878c7f50c,627c6ebf6863809235f422cc,2022-05-11_21h28.02.026,classification_task,2021.2.3,MacIntel,59.82292414,627c6715c52fd12f31907bcf,,,,,,,,,,,,,,,,,,,,,,,a,1,3.0593,"[""0.251"",""0.356"",""0.707"",""0.958""]","[1,1,0,1]",0,54,54,54,1,0,0,,,0,FALSE,,,,,,,,,,,,,,,,,,,,,,,,,,,,,,,
,611023befc2052d878c7f50c,627c6ebf6863809235f422cc,2022-05-11_21h28.02.026,classification_task,2021.2.3,MacIntel,59.82292414,627c6715c52fd12f31907bcf,,,,,,,,,,,,,,,,,,,,,,,l,1,1.9451,"[""0.707"",""0.399"",""0.544"",""0.742""]","[0,1,1,1]",0,55,55,55,1,1,0,,,0,FALSE,,,,,,,,,,,,,,,,,,,,,,,,,,,,,,,
,611023befc2052d878c7f50c,627c6ebf6863809235f422cc,2022-05-11_21h28.02.026,classification_task,2021.2.3,MacIntel,59.82292414,627c6715c52fd12f31907bcf,,,,,,,,,,,,,,,,,,,,,,,l,0,2.4578,"[""0.635"",""0.432"",""0.670"",""0.924""]","[0,1,1,1]",0,56,56,56,1,0,1,,,0,FALSE,,,,,,,,,,,,,,,,,,,,,,,,,,,,,,,
,611023befc2052d878c7f50c,627c6ebf6863809235f422cc,2022-05-11_21h28.02.026,classification_task,2021.2.3,MacIntel,59.82292414,627c6715c52fd12f31907bcf,,,,,,,,,,,,,,,,,,,,,,,l,1,2.763,"[""0.056"",""0.399"",""0.544"",""0.582""]","[1,1,1,0]",0,57,57,57,1,1,0,,,0,FALSE,,,,,,,,,,,,,,,,,,,,,,,,,,,,,,,
,611023befc2052d878c7f50c,627c6ebf6863809235f422cc,2022-05-11_21h28.02.026,classification_task,2021.2.3,MacIntel,59.82292414,627c6715c52fd12f31907bcf,,,,,,,,,,,,,,,,,,,,,,,a,0,1.5333,"[""0.126"",""0.305"",""0.635"",""0.829""]","[1,1,0,1]",0,58,58,58,1,1,1,,,0,FALSE,,,,,,,,,,,,,,,,,,,,,,,,,,,,,,,
,611023befc2052d878c7f50c,627c6ebf6863809235f422cc,2022-05-11_21h28.02.026,classification_task,2021.2.3,MacIntel,59.82292414,627c6715c52fd12f31907bcf,,,,,,,,,,,,,,,,,,,,,,,l,0,2.0235,"[""0.201"",""0.432"",""0.670"",""0.511""]","[1,1,1,0]",0,59,59,59,1,0,1,,,0,FALSE,,,,,,,,,,,,,,,,,,,,,,,,,,,,,,,
,611023befc2052d878c7f50c,627c6ebf6863809235f422cc,2022-05-11_21h28.02.026,classification_task,2021.2.3,MacIntel,59.82292414,627c6715c52fd12f31907bcf,,,,,,,,,,,,,,,,,,,,,,,a,0,2.8794,"[""0.509"",""0.305"",""0.472"",""0.829""]","[0,1,1,1]",0,60,60,60,1,1,1,,,0,FALSE,,,,,,,,,,,,,,,,,,,,,,,,,,,,,,,
,611023befc2052d878c7f50c,627c6ebf6863809235f422cc,2022-05-11_21h28.02.026,classification_task,2021.2.3,MacIntel,59.82292414,627c6715c52fd12f31907bcf,,,,,,,,,,,,,,,,,,,,,,,a,1,2.1778,"[""0.091"",""0.356"",""0.872"",""0.958""]","[0,1,1,1]",0,61,61,61,1,0,0,,,0,FALSE,,,,,,,,,,,,,,,,,,,,,,,,,,,,,,,
,611023befc2052d878c7f50c,627c6ebf6863809235f422cc,2022-05-11_21h28.02.026,classification_task,2021.2.3,MacIntel,59.82292414,627c6715c52fd12f31907bcf,,,,,,,,,,,,,,,,,,,,,,,a,1,2.0408,"[""0.251"",""0.356"",""0.872"",""0.582""]","[1,1,1,0]",0,62,62,62,1,0,0,,,0,FALSE,,,,,,,,,,,,,,,,,,,,,,,,,,,,,,,
,611023befc2052d878c7f50c,627c6ebf6863809235f422cc,2022-05-11_21h28.02.026,classification_task,2021.2.3,MacIntel,59.82292414,627c6715c52fd12f31907bcf,,,,,,,,,,,,,,,,,,,,,,,a,1,3.0979,"[""0.251"",""0.630"",""0.872"",""0.958""]","[1,0,1,1]",0,63,63,63,1,0,0,,,0,FALSE,,,,,,,,,,,,,,,,,,,,,,,,,,,,,,,
,611023befc2052d878c7f50c,627c6ebf6863809235f422cc,2022-05-11_21h28.02.026,classification_task,2021.2.3,MacIntel,59.82292414,627c6715c52fd12f31907bcf,,,,,,,,,,,,,,,,,,,,,,,,,,,,,,,,,,,,,,,0, ,,0,1.801437267,471.9712,0,0,0,0,1,2,1,,,,,,,,,,,,,,,,,,
,611023befc2052d878c7f50c,627c6ebf6863809235f422cc,2022-05-11_21h28.02.026,classification_task,2021.2.3,MacIntel,59.82292414,627c6715c52fd12f31907bcf,,,,,,,,,,,,,,,,,,,,,,,,,,,,,,,,,,,,,,,1,  ,,0,4.763466343,465.7478,0,0,0,0,1,2,1,,,,,,,,,,,,,,,,,,
,611023befc2052d878c7f50c,627c6ebf6863809235f422cc,2022-05-11_21h28.02.026,classification_task,2021.2.3,MacIntel,59.82292414,627c6715c52fd12f31907bcf,,,,,,,,,,,,,,,,,,,,,,,,,,,,,,,,,,,,,,,2,  ,,0,1.855212314,478.9173,0,0,0,0,1,2,1,,,,,,,,,,,,,,,,,,
,611023befc2052d878c7f50c,627c6ebf6863809235f422cc,2022-05-11_21h28.02.026,classification_task,2021.2.3,MacIntel,59.82292414,627c6715c52fd12f31907bcf,,,,,,,,,,,,,,,,,,,,,,,,,,,,,,,,,,,,,,,,,,,,,0,0,0,0,1,,1,,,,,,,,,,,,,,,,,,
,611023befc2052d878c7f50c,627c6ebf6863809235f422cc,2022-05-11_21h28.02.026,classification_task,2021.2.3,MacIntel,59.82292414,627c6715c52fd12f31907bcf,,,,,,,,,,,,,,,,,,,,,space,11.5036,l,1,3.8923,"[""0.635"",""0.399"",""0.544"",""0.742""]","[0,1,1,1]",0,0,0,0,1,1,0,,,0,FALSE,,,,,,,,,,,,,,,,,,,,,,,,,,,,,,,
,611023befc2052d878c7f50c,627c6ebf6863809235f422cc,2022-05-11_21h28.02.026,classification_task,2021.2.3,MacIntel,59.82292414,627c6715c52fd12f31907bcf,,,,,,,,,,,,,,,,,,,,,,,a,0,3.6402,"[""0.707"",""0.305"",""0.472"",""0.829""]","[0,1,1,1]",0,1,1,1,1,1,1,,,0,FALSE,,,,,,,,,,,,,,,,,,,,,,,,,,,,,,,
,611023befc2052d878c7f50c,627c6ebf6863809235f422cc,2022-05-11_21h28.02.026,classification_task,2021.2.3,MacIntel,59.82292414,627c6715c52fd12f31907bcf,,,,,,,,,,,,,,,,,,,,,,,a,1,3.2645,"[""0.201"",""0.432"",""0.610"",""0.924""]","[1,1,0,1]",0,2,2,2,1,0,1,,,0,FALSE,,,,,,,,,,,,,,,,,,,,,,,,,,,,,,,
,611023befc2052d878c7f50c,627c6ebf6863809235f422cc,2022-05-11_21h28.02.026,classification_task,2021.2.3,MacIntel,59.82292414,627c6715c52fd12f31907bcf,,,,,,,,,,,,,,,,,,,,,,,l,0,3.5292,"[""0.251"",""0.356"",""0.872"",""0.630""]","[1,1,1,0]",0,3,3,3,1,0,0,,,0,FALSE,,,,,,,,,,,,,,,,,,,,,,,,,,,,,,,
,611023befc2052d878c7f50c,627c6ebf6863809235f422cc,2022-05-11_21h28.02.026,classification_task,2021.2.3,MacIntel,59.82292414,627c6715c52fd12f31907bcf,,,,,,,,,,,,,,,,,,,,,,,l,0,2.093,"[""0.091"",""0.432"",""0.670"",""0.924""]","[0,1,1,1]",0,4,4,4,1,0,1,,,0,FALSE,,,,,,,,,,,,,,,,,,,,,,,,,,,,,,,
,611023befc2052d878c7f50c,627c6ebf6863809235f422cc,2022-05-11_21h28.02.026,classification_task,2021.2.3,MacIntel,59.82292414,627c6715c52fd12f31907bcf,,,,,,,,,,,,,,,,,,,,,,,a,0,2.0907,"[""0.126"",""0.305"",""0.509"",""0.829""]","[1,1,0,1]",0,5,5,5,1,1,1,,,0,FALSE,,,,,,,,,,,,,,,,,,,,,,,,,,,,,,,
,611023befc2052d878c7f50c,627c6ebf6863809235f422cc,2022-05-11_21h28.02.026,classification_task,2021.2.3,MacIntel,59.82292414,627c6715c52fd12f31907bcf,,,,,,,,,,,,,,,,,,,,,,,l,1,1.7434,"[""0.126"",""0.584"",""0.472"",""0.829""]","[1,0,1,1]",0,6,6,6,1,1,1,,,0,FALSE,,,,,,,,,,,,,,,,,,,,,,,,,,,,,,,
,611023befc2052d878c7f50c,627c6ebf6863809235f422cc,2022-05-11_21h28.02.026,classification_task,2021.2.3,MacIntel,59.82292414,627c6715c52fd12f31907bcf,,,,,,,,,,,,,,,,,,,,,,,l,0,1.6588,"[""0.201"",""0.432"",""0.670"",""0.579""]","[1,1,1,0]",0,7,7,7,1,0,1,,,0,FALSE,,,,,,,,,,,,,,,,,,,,,,,,,,,,,,,
,611023befc2052d878c7f50c,627c6ebf6863809235f422cc,2022-05-11_21h28.02.026,classification_task,2021.2.3,MacIntel,59.82292414,627c6715c52fd12f31907bcf,,,,,,,,,,,,,,,,,,,,,,,a,0,8.1591,"[""0.056"",""0.399"",""0.582"",""0.742""]","[1,1,0,1]",0,8,8,8,1,1,0,,,0,FALSE,,,,,,,,,,,,,,,,,,,,,,,,,,,,,,,
,611023befc2052d878c7f50c,627c6ebf6863809235f422cc,2022-05-11_21h28.02.026,classification_task,2021.2.3,MacIntel,59.82292414,627c6715c52fd12f31907bcf,,,,,,,,,,,,,,,,,,,,,,,l,1,3.9532,"[""0.056"",""0.582"",""0.544"",""0.742""]","[1,0,1,1]",0,9,9,9,1,1,0,,,0,FALSE,,,,,,,,,,,,,,,,,,,,,,,,,,,,,,,
,611023befc2052d878c7f50c,627c6ebf6863809235f422cc,2022-05-11_21h28.02.026,classification_task,2021.2.3,MacIntel,59.82292414,627c6715c52fd12f31907bcf,,,,,,,,,,,,,,,,,,,,,,,a,0,2.1413,"[""0.126"",""0.305"",""0.472"",""0.707""]","[1,1,1,0]",0,10,10,10,1,1,1,,,0,FALSE,,,,,,,,,,,,,,,,,,,,,,,,,,,,,,,
,611023befc2052d878c7f50c,627c6ebf6863809235f422cc,2022-05-11_21h28.02.026,classification_task,2021.2.3,MacIntel,59.82292414,627c6715c52fd12f31907bcf,,,,,,,,,,,,,,,,,,,,,,,l,0,3.3988,"[""0.251"",""0.630"",""0.872"",""0.958""]","[1,0,1,1]",0,11,11,11,1,0,0,,,0,FALSE,,,,,,,,,,,,,,,,,,,,,,,,,,,,,,,
,611023befc2052d878c7f50c,627c6ebf6863809235f422cc,2022-05-11_21h28.02.026,classification_task,2021.2.3,MacIntel,59.82292414,627c6715c52fd12f31907bcf,,,,,,,,,,,,,,,,,,,,,,,a,1,3.031,"[""0.090"",""0.356"",""0.872"",""0.958""]","[0,1,1,1]",0,12,12,12,1,0,0,,,0,FALSE,,,,,,,,,,,,,,,,,,,,,,,,,,,,,,,
,611023befc2052d878c7f50c,627c6ebf6863809235f422cc,2022-05-11_21h28.02.026,classification_task,2021.2.3,MacIntel,59.82292414,627c6715c52fd12f31907bcf,,,,,,,,,,,,,,,,,,,,,,,a,1,1.1894,"[""0.201"",""0.793"",""0.670"",""0.924""]","[1,0,1,1]",0,13,13,13,1,0,1,,,0,FALSE,,,,,,,,,,,,,,,,,,,,,,,,,,,,,,,
,611023befc2052d878c7f50c,627c6ebf6863809235f422cc,2022-05-11_21h28.02.026,classification_task,2021.2.3,MacIntel,59.82292414,627c6715c52fd12f31907bcf,,,,,,,,,,,,,,,,,,,,,,,l,1,4.3111,"[""0.056"",""0.399"",""0.544"",""0.091""]","[1,1,1,0]",0,14,14,14,1,1,0,,,0,FALSE,,,,,,,,,,,,,,,,,,,,,,,,,,,,,,,
,611023befc2052d878c7f50c,627c6ebf6863809235f422cc,2022-05-11_21h28.02.026,classification_task,2021.2.3,MacIntel,59.82292414,627c6715c52fd12f31907bcf,,,,,,,,,,,,,,,,,,,,,,,a,1,1.5101,"[""0.251"",""0.356"",""0.509"",""0.958""]","[1,1,0,1]",0,15,15,15,1,0,0,,,0,FALSE,,,,,,,,,,,,,,,,,,,,,,,,,,,,,,,
,611023befc2052d878c7f50c,627c6ebf6863809235f422cc,2022-05-11_21h28.02.026,classification_task,2021.2.3,MacIntel,59.82292414,627c6715c52fd12f31907bcf,,,,,,,,,,,,,,,,,,,,,,,a,1,1.2686,"[""0.201"",""0.432"",""0.670"",""0.584""]","[1,1,1,0]",0,16,16,16,1,0,1,,,0,FALSE,,,,,,,,,,,,,,,,,,,,,,,,,,,,,,,
,611023befc2052d878c7f50c,627c6ebf6863809235f422cc,2022-05-11_21h28.02.026,classification_task,2021.2.3,MacIntel,59.82292414,627c6715c52fd12f31907bcf,,,,,,,,,,,,,,,,,,,,,,,l,1,1.8362,"[""0.056"",""0.399"",""0.604"",""0.742""]","[1,1,0,1]",0,17,17,17,1,1,0,,,0,FALSE,,,,,,,,,,,,,,,,,,,,,,,,,,,,,,,
,611023befc2052d878c7f50c,627c6ebf6863809235f422cc,2022-05-11_21h28.02.026,classification_task,2021.2.3,MacIntel,59.82292414,627c6715c52fd12f31907bcf,,,,,,,,,,,,,,,,,,,,,,,a,1,1.354,"[""0.251"",""0.356"",""0.872"",""0.707""]","[1,1,1,0]",0,18,18,18,1,0,0,,,0,FALSE,,,,,,,,,,,,,,,,,,,,,,,,,,,,,,,
,611023befc2052d878c7f50c,627c6ebf6863809235f422cc,2022-05-11_21h28.02.026,classification_task,2021.2.3,MacIntel,59.82292414,627c6715c52fd12f31907bcf,,,,,,,,,,,,,,,,,,,,,,,a,1,1.3207,"[""0.201"",""0.604"",""0.670"",""0.924""]","[1,0,1,1]",0,19,19,19,1,0,1,,,0,FALSE,,,,,,,,,,,,,,,,,,,,,,,,,,,,,,,
,611023befc2052d878c7f50c,627c6ebf6863809235f422cc,2022-05-11_21h28.02.026,classification_task,2021.2.3,MacIntel,59.82292414,627c6715c52fd12f31907bcf,,,,,,,,,,,,,,,,,,,,,,,a,0,1.9386,"[""0.126"",""0.091"",""0.472"",""0.829""]","[1,0,1,1]",0,20,20,20,1,1,1,,,0,FALSE,,,,,,,,,,,,,,,,,,,,,,,,,,,,,,,
,611023befc2052d878c7f50c,627c6ebf6863809235f422cc,2022-05-11_21h28.02.026,classification_task,2021.2.3,MacIntel,59.82292414,627c6715c52fd12f31907bcf,,,,,,,,,,,,,,,,,,,,,,,a,1,1.2677,"[""0.251"",""0.356"",""0.793"",""0.958""]","[1,1,0,1]",0,21,21,21,1,0,0,,,0,FALSE,,,,,,,,,,,,,,,,,,,,,,,,,,,,,,,
,611023befc2052d878c7f50c,627c6ebf6863809235f422cc,2022-05-11_21h28.02.026,classification_task,2021.2.3,MacIntel,59.82292414,627c6715c52fd12f31907bcf,,,,,,,,,,,,,,,,,,,,,,,a,1,1.1539,"[""0.509"",""0.356"",""0.872"",""0.958""]","[0,1,1,1]",0,22,22,22,1,0,0,,,0,FALSE,,,,,,,,,,,,,,,,,,,,,,,,,,,,,,,
,611023befc2052d878c7f50c,627c6ebf6863809235f422cc,2022-05-11_21h28.02.026,classification_task,2021.2.3,MacIntel,59.82292414,627c6715c52fd12f31907bcf,,,,,,,,,,,,,,,,,,,,,,,a,0,1.3181,"[""0.126"",""0.305"",""0.793"",""0.829""]","[1,1,0,1]",0,23,23,23,1,1,1,,,0,FALSE,,,,,,,,,,,,,,,,,,,,,,,,,,,,,,,
,611023befc2052d878c7f50c,627c6ebf6863809235f422cc,2022-05-11_21h28.02.026,classification_task,2021.2.3,MacIntel,59.82292414,627c6715c52fd12f31907bcf,,,,,,,,,,,,,,,,,,,,,,,l,1,1.3765,"[""0.126"",""0.305"",""0.472"",""0.579""]","[1,1,1,0]",0,24,24,24,1,1,1,,,0,FALSE,,,,,,,,,,,,,,,,,,,,,,,,,,,,,,,
,611023befc2052d878c7f50c,627c6ebf6863809235f422cc,2022-05-11_21h28.02.026,classification_task,2021.2.3,MacIntel,59.82292414,627c6715c52fd12f31907bcf,,,,,,,,,,,,,,,,,,,,,,,l,1,1.8217,"[""0.584"",""0.305"",""0.472"",""0.829""]","[0,1,1,1]",0,25,25,25,1,1,1,,,0,FALSE,,,,,,,,,,,,,,,,,,,,,,,,,,,,,,,
,611023befc2052d878c7f50c,627c6ebf6863809235f422cc,2022-05-11_21h28.02.026,classification_task,2021.2.3,MacIntel,59.82292414,627c6715c52fd12f31907bcf,,,,,,,,,,,,,,,,,,,,,,,l,0,1.3539,"[""0.635"",""0.432"",""0.670"",""0.924""]","[0,1,1,1]",0,26,26,26,1,0,1,,,0,FALSE,,,,,,,,,,,,,,,,,,,,,,,,,,,,,,,
,611023befc2052d878c7f50c,627c6ebf6863809235f422cc,2022-05-11_21h28.02.026,classification_task,2021.2.3,MacIntel,59.82292414,627c6715c52fd12f31907bcf,,,,,,,,,,,,,,,,,,,,,,,a,1,1.6212,"[""0.201"",""0.432"",""0.707"",""0.924""]","[1,1,0,1]",0,27,27,27,1,0,1,,,0,FALSE,,,,,,,,,,,,,,,,,,,,,,,,,,,,,,,
,611023befc2052d878c7f50c,627c6ebf6863809235f422cc,2022-05-11_21h28.02.026,classification_task,2021.2.3,MacIntel,59.82292414,627c6715c52fd12f31907bcf,,,,,,,,,,,,,,,,,,,,,,,l,1,2.7096,"[""0.630"",""0.399"",""0.544"",""0.742""]","[0,1,1,1]",0,28,28,28,1,1,0,,,0,FALSE,,,,,,,,,,,,,,,,,,,,,,,,,,,,,,,
,611023befc2052d878c7f50c,627c6ebf6863809235f422cc,2022-05-11_21h28.02.026,classification_task,2021.2.3,MacIntel,59.82292414,627c6715c52fd12f31907bcf,,,,,,,,,,,,,,,,,,,,,,,l,1,1.4277,"[""0.056"",""0.630"",""0.544"",""0.742""]","[1,0,1,1]",0,29,29,29,1,1,0,,,0,FALSE,,,,,,,,,,,,,,,,,,,,,,,,,,,,,,,
,611023befc2052d878c7f50c,627c6ebf6863809235f422cc,2022-05-11_21h28.02.026,classification_task,2021.2.3,MacIntel,59.82292414,627c6715c52fd12f31907bcf,,,,,,,,,,,,,,,,,,,,,,,a,1,1.7049,"[""0.251"",""0.582"",""0.872"",""0.958""]","[1,0,1,1]",0,30,30,30,1,0,0,,,0,FALSE,,,,,,,,,,,,,,,,,,,,,,,,,,,,,,,
,611023befc2052d878c7f50c,627c6ebf6863809235f422cc,2022-05-11_21h28.02.026,classification_task,2021.2.3,MacIntel,59.82292414,627c6715c52fd12f31907bcf,,,,,,,,,,,,,,,,,,,,,,,l,1,1.5568,"[""0.056"",""0.399"",""0.544"",""0.793""]","[1,1,1,0]",0,31,31,31,1,1,0,,,0,FALSE,,,,,,,,,,,,,,,,,,,,,,,,,,,,,,,
,611023befc2052d878c7f50c,627c6ebf6863809235f422cc,2022-05-11_21h28.02.026,classification_task,2021.2.3,MacIntel,59.82292414,627c6715c52fd12f31907bcf,,,,,,,,,,,,,,,,,,,,,,,l,1,2.2773,"[""0.090"",""0.399"",""0.544"",""0.742""]","[0,1,1,1]",0,32,32,32,1,1,0,,,0,FALSE,,,,,,,,,,,,,,,,,,,,,,,,,,,,,,,
,611023befc2052d878c7f50c,627c6ebf6863809235f422cc,2022-05-11_21h28.02.026,classification_task,2021.2.3,MacIntel,59.82292414,627c6715c52fd12f31907bcf,,,,,,,,,,,,,,,,,,,,,,,a,1,2.0742,"[""0.251"",""0.356"",""0.872"",""0.604""]","[1,1,1,0]",0,33,33,33,1,0,0,,,0,FALSE,,,,,,,,,,,,,,,,,,,,,,,,,,,,,,,
,611023befc2052d878c7f50c,627c6ebf6863809235f422cc,2022-05-11_21h28.02.026,classification_task,2021.2.3,MacIntel,59.82292414,627c6715c52fd12f31907bcf,,,,,,,,,,,,,,,,,,,,,,,a,1,1.3802,"[""0.251"",""0.356"",""0.707"",""0.958""]","[1,1,0,1]",0,34,34,34,1,0,0,,,0,FALSE,,,,,,,,,,,,,,,,,,,,,,,,,,,,,,,
,611023befc2052d878c7f50c,627c6ebf6863809235f422cc,2022-05-11_21h28.02.026,classification_task,2021.2.3,MacIntel,59.82292414,627c6715c52fd12f31907bcf,,,,,,,,,,,,,,,,,,,,,,,l,1,1.5723,"[""0.056"",""0.399"",""0.544"",""0.605""]","[1,1,1,0]",0,35,35,35,1,1,0,,,0,FALSE,,,,,,,,,,,,,,,,,,,,,,,,,,,,,,,
,611023befc2052d878c7f50c,627c6ebf6863809235f422cc,2022-05-11_21h28.02.026,classification_task,2021.2.3,MacIntel,59.82292414,627c6715c52fd12f31907bcf,,,,,,,,,,,,,,,,,,,,,,,l,1,1.7547,"[""0.126"",""0.630"",""0.472"",""0.829""]","[1,0,1,1]",0,36,36,36,1,1,1,,,0,FALSE,,,,,,,,,,,,,,,,,,,,,,,,,,,,,,,
,611023befc2052d878c7f50c,627c6ebf6863809235f422cc,2022-05-11_21h28.02.026,classification_task,2021.2.3,MacIntel,59.82292414,627c6715c52fd12f31907bcf,,,,,,,,,,,,,,,,,,,,,,,a,0,1.1417,"[""0.126"",""0.305"",""0.635"",""0.829""]","[1,1,0,1]",0,37,37,37,1,1,1,,,0,FALSE,,,,,,,,,,,,,,,,,,,,,,,,,,,,,,,
,611023befc2052d878c7f50c,627c6ebf6863809235f422cc,2022-05-11_21h28.02.026,classification_task,2021.2.3,MacIntel,59.82292414,627c6715c52fd12f31907bcf,,,,,,,,,,,,,,,,,,,,,,,a,1,1.1738,"[""0.201"",""0.432"",""0.670"",""0.707""]","[1,1,1,0]",0,38,38,38,1,0,1,,,0,FALSE,,,,,,,,,,,,,,,,,,,,,,,,,,,,,,,
,611023befc2052d878c7f50c,627c6ebf6863809235f422cc,2022-05-11_21h28.02.026,classification_task,2021.2.3,MacIntel,59.82292414,627c6715c52fd12f31907bcf,,,,,,,,,,,,,,,,,,,,,,,a,1,1.0196,"[""0.201"",""0.432"",""0.091"",""0.924""]","[1,1,0,1]",0,39,39,39,1,0,1,,,0,FALSE,,,,,,,,,,,,,,,,,,,,,,,,,,,,,,,
,611023befc2052d878c7f50c,627c6ebf6863809235f422cc,2022-05-11_21h28.02.026,classification_task,2021.2.3,MacIntel,59.82292414,627c6715c52fd12f31907bcf,,,,,,,,,,,,,,,,,,,,,,,a,1,1.04,"[""0.201"",""0.163"",""0.670"",""0.924""]","[1,0,1,1]",0,40,40,40,1,0,1,,,0,FALSE,,,,,,,,,,,,,,,,,,,,,,,,,,,,,,,
,611023befc2052d878c7f50c,627c6ebf6863809235f422cc,2022-05-11_21h28.02.026,classification_task,2021.2.3,MacIntel,59.82292414,627c6715c52fd12f31907bcf,,,,,,,,,,,,,,,,,,,,,,,a,1,1.2365,"[""0.509"",""0.356"",""0.872"",""0.958""]","[0,1,1,1]",0,41,41,41,1,0,0,,,0,FALSE,,,,,,,,,,,,,,,,,,,,,,,,,,,,,,,
,611023befc2052d878c7f50c,627c6ebf6863809235f422cc,2022-05-11_21h28.02.026,classification_task,2021.2.3,MacIntel,59.82292414,627c6715c52fd12f31907bcf,,,,,,,,,,,,,,,,,,,,,,,l,0,1.0845,"[""0.604"",""0.432"",""0.670"",""0.924""]","[0,1,1,1]",0,42,42,42,1,0,1,,,0,FALSE,,,,,,,,,,,,,,,,,,,,,,,,,,,,,,,
,611023befc2052d878c7f50c,627c6ebf6863809235f422cc,2022-05-11_21h28.02.026,classification_task,2021.2.3,MacIntel,59.82292414,627c6715c52fd12f31907bcf,,,,,,,,,,,,,,,,,,,,,,,l,1,1.2373,"[""0.610"",""0.305"",""0.472"",""0.829""]","[0,1,1,1]",0,43,43,43,1,1,1,,,0,FALSE,,,,,,,,,,,,,,,,,,,,,,,,,,,,,,,
,611023befc2052d878c7f50c,627c6ebf6863809235f422cc,2022-05-11_21h28.02.026,classification_task,2021.2.3,MacIntel,59.82292414,627c6715c52fd12f31907bcf,,,,,,,,,,,,,,,,,,,,,,,l,1,1.3347,"[""0.056"",""0.399"",""0.582"",""0.742""]","[1,1,0,1]",0,44,44,44,1,1,0,,,0,FALSE,,,,,,,,,,,,,,,,,,,,,,,,,,,,,,,
,611023befc2052d878c7f50c,627c6ebf6863809235f422cc,2022-05-11_21h28.02.026,classification_task,2021.2.3,MacIntel,59.82292414,627c6715c52fd12f31907bcf,,,,,,,,,,,,,,,,,,,,,,,l,1,1.4213,"[""0.056"",""0.090"",""0.544"",""0.742""]","[1,0,1,1]",0,45,45,45,1,1,0,,,0,FALSE,,,,,,,,,,,,,,,,,,,,,,,,,,,,,,,
,611023befc2052d878c7f50c,627c6ebf6863809235f422cc,2022-05-11_21h28.02.026,classification_task,2021.2.3,MacIntel,59.82292414,627c6715c52fd12f31907bcf,,,,,,,,,,,,,,,,,,,,,,,a,0,1.659,"[""0.126"",""0.305"",""0.472"",""0.582""]","[1,1,1,0]",0,46,46,46,1,1,1,,,0,FALSE,,,,,,,,,,,,,,,,,,,,,,,,,,,,,,,
,611023befc2052d878c7f50c,627c6ebf6863809235f422cc,2022-05-11_21h28.02.026,classification_task,2021.2.3,MacIntel,59.82292414,627c6715c52fd12f31907bcf,,,,,,,,,,,,,,,,,,,,,,,a,1,1.0506,"[""0.251"",""0.635"",""0.872"",""0.958""]","[1,0,1,1]",0,47,47,47,1,0,0,,,0,FALSE,,,,,,,,,,,,,,,,,,,,,,,,,,,,,,,
,611023befc2052d878c7f50c,627c6ebf6863809235f422cc,2022-05-11_21h28.02.026,classification_task,2021.2.3,MacIntel,59.82292414,627c6715c52fd12f31907bcf,,,,,,,,,,,,,,,,,,,,,,,a,0,0.8694,"[""0.056"",""0.090"",""0.544"",""0.742""]","[1,0,1,1]",0,48,48,48,1,1,0,,,0,FALSE,,,,,,,,,,,,,,,,,,,,,,,,,,,,,,,
,611023befc2052d878c7f50c,627c6ebf6863809235f422cc,2022-05-11_21h28.02.026,classification_task,2021.2.3,MacIntel,59.82292414,627c6715c52fd12f31907bcf,,,,,,,,,,,,,,,,,,,,,,,a,1,0.7517,"[""0.630"",""0.356"",""0.872"",""0.958""]","[0,1,1,1]",0,49,49,49,1,0,0,,,0,FALSE,,,,,,,,,,,,,,,,,,,,,,,,,,,,,,,
,611023befc2052d878c7f50c,627c6ebf6863809235f422cc,2022-05-11_21h28.02.026,classification_task,2021.2.3,MacIntel,59.82292414,627c6715c52fd12f31907bcf,,,,,,,,,,,,,,,,,,,,,,,l,1,1.3715,"[""0.056"",""0.399"",""0.511"",""0.742""]","[1,1,0,1]",0,50,50,50,1,1,0,,,0,FALSE,,,,,,,,,,,,,,,,,,,,,,,,,,,,,,,
,611023befc2052d878c7f50c,627c6ebf6863809235f422cc,2022-05-11_21h28.02.026,classification_task,2021.2.3,MacIntel,59.82292414,627c6715c52fd12f31907bcf,,,,,,,,,,,,,,,,,,,,,,,l,0,1.0062,"[""0.251"",""0.356"",""0.509"",""0.958""]","[1,1,0,1]",0,51,51,51,1,0,0,,,0,FALSE,,,,,,,,,,,,,,,,,,,,,,,,,,,,,,,
,611023befc2052d878c7f50c,627c6ebf6863809235f422cc,2022-05-11_21h28.02.026,classification_task,2021.2.3,MacIntel,59.82292414,627c6715c52fd12f31907bcf,,,,,,,,,,,,,,,,,,,,,,,a,1,1.2845,"[""0.630"",""0.432"",""0.670"",""0.924""]","[0,1,1,1]",0,52,52,52,1,0,1,,,0,FALSE,,,,,,,,,,,,,,,,,,,,,,,,,,,,,,,
,611023befc2052d878c7f50c,627c6ebf6863809235f422cc,2022-05-11_21h28.02.026,classification_task,2021.2.3,MacIntel,59.82292414,627c6715c52fd12f31907bcf,,,,,,,,,,,,,,,,,,,,,,,a,1,0.9175,"[""0.201"",""0.630"",""0.670"",""0.924""]","[1,0,1,1]",0,53,53,53,1,0,1,,,0,FALSE,,,,,,,,,,,,,,,,,,,,,,,,,,,,,,,
,611023befc2052d878c7f50c,627c6ebf6863809235f422cc,2022-05-11_21h28.02.026,classification_task,2021.2.3,MacIntel,59.82292414,627c6715c52fd12f31907bcf,,,,,,,,,,,,,,,,,,,,,,,a,0,1.5879,"[""0.126"",""0.630"",""0.472"",""0.829""]","[1,0,1,1]",0,54,54,54,1,1,1,,,0,FALSE,,,,,,,,,,,,,,,,,,,,,,,,,,,,,,,
,611023befc2052d878c7f50c,627c6ebf6863809235f422cc,2022-05-11_21h28.02.026,classification_task,2021.2.3,MacIntel,59.82292414,627c6715c52fd12f31907bcf,,,,,,,,,,,,,,,,,,,,,,,l,0,2.2899,"[""0.201"",""0.432"",""0.670"",""0.509""]","[1,1,1,0]",0,55,55,55,1,0,1,,,0,FALSE,,,,,,,,,,,,,,,,,,,,,,,,,,,,,,,
,611023befc2052d878c7f50c,627c6ebf6863809235f422cc,2022-05-11_21h28.02.026,classification_task,2021.2.3,MacIntel,59.82292414,627c6715c52fd12f31907bcf,,,,,,,,,,,,,,,,,,,,,,,l,0,1.4065,"[""0.251"",""0.356"",""0.872"",""0.793""]","[1,1,1,0]",0,56,56,56,1,0,0,,,0,FALSE,,,,,,,,,,,,,,,,,,,,,,,,,,,,,,,
,611023befc2052d878c7f50c,627c6ebf6863809235f422cc,2022-05-11_21h28.02.026,classification_task,2021.2.3,MacIntel,59.82292414,627c6715c52fd12f31907bcf,,,,,,,,,,,,,,,,,,,,,,,l,0,2.0703,"[""0.201"",""0.432"",""0.091"",""0.924""]","[1,1,0,1]",0,57,57,57,1,0,1,,,0,FALSE,,,,,,,,,,,,,,,,,,,,,,,,,,,,,,,
,611023befc2052d878c7f50c,627c6ebf6863809235f422cc,2022-05-11_21h28.02.026,classification_task,2021.2.3,MacIntel,59.82292414,627c6715c52fd12f31907bcf,,,,,,,,,,,,,,,,,,,,,,,a,0,1.3091,"[""0.090"",""0.305"",""0.472"",""0.829""]","[0,1,1,1]",0,58,58,58,1,1,1,,,0,FALSE,,,,,,,,,,,,,,,,,,,,,,,,,,,,,,,
,611023befc2052d878c7f50c,627c6ebf6863809235f422cc,2022-05-11_21h28.02.026,classification_task,2021.2.3,MacIntel,59.82292414,627c6715c52fd12f31907bcf,,,,,,,,,,,,,,,,,,,,,,,a,0,0.7696,"[""0.126"",""0.305"",""0.091"",""0.829""]","[1,1,0,1]",0,59,59,59,1,1,1,,,0,FALSE,,,,,,,,,,,,,,,,,,,,,,,,,,,,,,,
,611023befc2052d878c7f50c,627c6ebf6863809235f422cc,2022-05-11_21h28.02.026,classification_task,2021.2.3,MacIntel,59.82292414,627c6715c52fd12f31907bcf,,,,,,,,,,,,,,,,,,,,,,,l,1,0.7023,"[""0.126"",""0.305"",""0.472"",""0.090""]","[1,1,1,0]",0,60,60,60,1,1,1,,,0,FALSE,,,,,,,,,,,,,,,,,,,,,,,,,,,,,,,
,611023befc2052d878c7f50c,627c6ebf6863809235f422cc,2022-05-11_21h28.02.026,classification_task,2021.2.3,MacIntel,59.82292414,627c6715c52fd12f31907bcf,,,,,,,,,,,,,,,,,,,,,,,l,1,1.5864,"[""0.635"",""0.399"",""0.544"",""0.742""]","[0,1,1,1]",0,61,61,61,1,1,0,,,0,FALSE,,,,,,,,,,,,,,,,,,,,,,,,,,,,,,,
,611023befc2052d878c7f50c,627c6ebf6863809235f422cc,2022-05-11_21h28.02.026,classification_task,2021.2.3,MacIntel,59.82292414,627c6715c52fd12f31907bcf,,,,,,,,,,,,,,,,,,,,,,,l,1,0.7379,"[""0.056"",""0.399"",""0.544"",""0.511""]","[1,1,1,0]",0,62,62,62,1,1,0,,,0,FALSE,,,,,,,,,,,,,,,,,,,,,,,,,,,,,,,
,611023befc2052d878c7f50c,627c6ebf6863809235f422cc,2022-05-11_21h28.02.026,classification_task,2021.2.3,MacIntel,59.82292414,627c6715c52fd12f31907bcf,,,,,,,,,,,,,,,,,,,,,,,a,1,1.605,"[""0.251"",""0.793"",""0.872"",""0.958""]","[1,0,1,1]",0,63,63,63,1,0,0,,,0,FALSE,,,,,,,,,,,,,,,,,,,,,,,,,,,,,,,
,611023befc2052d878c7f50c,627c6ebf6863809235f422cc,2022-05-11_21h28.02.026,classification_task,2021.2.3,MacIntel,59.82292414,627c6715c52fd12f31907bcf,,,,,,,,,,,,,,,,,,,,,,,,,,,,,,,,,,,,,,,0, ,,0,0,205.0433,0,1,1,1,1,2,2,,,,,,,,,,,,,,,,,,
,611023befc2052d878c7f50c,627c6ebf6863809235f422cc,2022-05-11_21h28.02.026,classification_task,2021.2.3,MacIntel,59.82292414,627c6715c52fd12f31907bcf,,,,,,,,,,,,,,,,,,,,,,,,,,,,,,,,,,,,,,,1,  ,,0,5.161994936,208.542,0,1,1,1,1,2,2,,,,,,,,,,,,,,,,,,
,611023befc2052d878c7f50c,627c6ebf6863809235f422cc,2022-05-11_21h28.02.026,classification_task,2021.2.3,MacIntel,59.82292414,627c6715c52fd12f31907bcf,,,,,,,,,,,,,,,,,,,,,,,,,,,,,,,,,,,,,,,2,  ,,0,3.671124829,211.6804,0,1,1,1,1,2,2,,,,,,,,,,,,,,,,,,
,611023befc2052d878c7f50c,627c6ebf6863809235f422cc,2022-05-11_21h28.02.026,classification_task,2021.2.3,MacIntel,59.82292414,627c6715c52fd12f31907bcf,,,,,,,,,,,,,,,,,,,,,,,,,,,,,,,,,,,,,,,,,,,,,0,1,1,1,1,,2,,,,,,,,,,,,,,,,,,
,611023befc2052d878c7f50c,627c6ebf6863809235f422cc,2022-05-11_21h28.02.026,classification_task,2021.2.3,MacIntel,59.82292414,627c6715c52fd12f31907bcf,,,,,,,,,,,,,,,,,,,,,space,9.6939,a,0,3.0804,"[""0.610"",""0.399"",""0.544"",""0.742""]","[0,1,1,1]",0,0,0,0,1,1,0,,,0,FALSE,,,,,,,,,,,,,,,,,,,,,,,,,,,,,,,
,611023befc2052d878c7f50c,627c6ebf6863809235f422cc,2022-05-11_21h28.02.026,classification_task,2021.2.3,MacIntel,59.82292414,627c6715c52fd12f31907bcf,,,,,,,,,,,,,,,,,,,,,,,a,1,1.0761,"[""0.091"",""0.356"",""0.872"",""0.958""]","[0,1,1,1]",0,1,1,1,1,0,0,,,0,FALSE,,,,,,,,,,,,,,,,,,,,,,,,,,,,,,,
,611023befc2052d878c7f50c,627c6ebf6863809235f422cc,2022-05-11_21h28.02.026,classification_task,2021.2.3,MacIntel,59.82292414,627c6715c52fd12f31907bcf,,,,,,,,,,,,,,,,,,,,,,,a,1,4.047,"[""0.201"",""0.432"",""0.670"",""0.584""]","[1,1,1,0]",0,2,2,2,1,0,1,,,0,FALSE,,,,,,,,,,,,,,,,,,,,,,,,,,,,,,,
,611023befc2052d878c7f50c,627c6ebf6863809235f422cc,2022-05-11_21h28.02.026,classification_task,2021.2.3,MacIntel,59.82292414,627c6715c52fd12f31907bcf,,,,,,,,,,,,,,,,,,,,,,,l,0,1.0246,"[""0.251"",""0.356"",""0.872"",""0.635""]","[1,1,1,0]",0,3,3,3,1,0,0,,,0,FALSE,,,,,,,,,,,,,,,,,,,,,,,,,,,,,,,
,611023befc2052d878c7f50c,627c6ebf6863809235f422cc,2022-05-11_21h28.02.026,classification_task,2021.2.3,MacIntel,59.82292414,627c6715c52fd12f31907bcf,,,,,,,,,,,,,,,,,,,,,,,l,1,1.1873,"[""0.056"",""0.091"",""0.544"",""0.742""]","[1,0,1,1]",0,4,4,4,1,1,0,,,0,FALSE,,,,,,,,,,,,,,,,,,,,,,,,,,,,,,,
,611023befc2052d878c7f50c,627c6ebf6863809235f422cc,2022-05-11_21h28.02.026,classification_task,2021.2.3,MacIntel,59.82292414,627c6715c52fd12f31907bcf,,,,,,,,,,,,,,,,,,,,,,,a,0,2.8417,"[""0.126"",""0.305"",""0.472"",""0.511""]","[1,1,1,0]",0,5,5,5,1,1,1,,,0,FALSE,,,,,,,,,,,,,,,,,,,,,,,,,,,,,,,
,611023befc2052d878c7f50c,627c6ebf6863809235f422cc,2022-05-11_21h28.02.026,classification_task,2021.2.3,MacIntel,59.82292414,627c6715c52fd12f31907bcf,,,,,,,,,,,,,,,,,,,,,,,l,0,1.497,"[""0.201"",""0.432"",""0.163"",""0.924""]","[1,1,0,1]",0,6,6,6,1,0,1,,,0,FALSE,,,,,,,,,,,,,,,,,,,,,,,,,,,,,,,
,611023befc2052d878c7f50c,627c6ebf6863809235f422cc,2022-05-11_21h28.02.026,classification_task,2021.2.3,MacIntel,59.82292414,627c6715c52fd12f31907bcf,,,,,,,,,,,,,,,,,,,,,,,a,1,1.437,"[""0.251"",""0.356"",""0.584"",""0.958""]","[1,1,0,1]",0,7,7,7,1,0,0,,,0,FALSE,,,,,,,,,,,,,,,,,,,,,,,,,,,,,,,
,611023befc2052d878c7f50c,627c6ebf6863809235f422cc,2022-05-11_21h28.02.026,classification_task,2021.2.3,MacIntel,59.82292414,627c6715c52fd12f31907bcf,,,,,,,,,,,,,,,,,,,,,,,l,1,2.7144,"[""0.126"",""0.305"",""0.582"",""0.829""]","[1,1,0,1]",0,8,8,8,1,1,1,,,0,FALSE,,,,,,,,,,,,,,,,,,,,,,,,,,,,,,,
,611023befc2052d878c7f50c,627c6ebf6863809235f422cc,2022-05-11_21h28.02.026,classification_task,2021.2.3,MacIntel,59.82292414,627c6715c52fd12f31907bcf,,,,,,,,,,,,,,,,,,,,,,,l,1,1.8606,"[""0.126"",""0.579"",""0.472"",""0.829""]","[1,0,1,1]",0,9,9,9,1,1,1,,,0,FALSE,,,,,,,,,,,,,,,,,,,,,,,,,,,,,,,
,611023befc2052d878c7f50c,627c6ebf6863809235f422cc,2022-05-11_21h28.02.026,classification_task,2021.2.3,MacIntel,59.82292414,627c6715c52fd12f31907bcf,,,,,,,,,,,,,,,,,,,,,,,a,1,1.3214,"[""0.201"",""0.509"",""0.670"",""0.924""]","[1,0,1,1]",0,10,10,10,1,0,1,,,0,FALSE,,,,,,,,,,,,,,,,,,,,,,,,,,,,,,,
,611023befc2052d878c7f50c,627c6ebf6863809235f422cc,2022-05-11_21h28.02.026,classification_task,2021.2.3,MacIntel,59.82292414,627c6715c52fd12f31907bcf,,,,,,,,,,,,,,,,,,,,,,,a,0,1.5388,"[""0.090"",""0.305"",""0.472"",""0.829""]","[0,1,1,1]",0,11,11,11,1,1,1,,,0,FALSE,,,,,,,,,,,,,,,,,,,,,,,,,,,,,,,
,611023befc2052d878c7f50c,627c6ebf6863809235f422cc,2022-05-11_21h28.02.026,classification_task,2021.2.3,MacIntel,59.82292414,627c6715c52fd12f31907bcf,,,,,,,,,,,,,,,,,,,,,,,l,0,0.7536,"[""0.511"",""0.432"",""0.670"",""0.924""]","[0,1,1,1]",0,12,12,12,1,0,1,,,0,FALSE,,,,,,,,,,,,,,,,,,,,,,,,,,,,,,,
,611023befc2052d878c7f50c,627c6ebf6863809235f422cc,2022-05-11_21h28.02.026,classification_task,2021.2.3,MacIntel,59.82292414,627c6715c52fd12f31907bcf,,,,,,,,,,,,,,,,,,,,,,,a,1,0.9534,"[""0.251"",""0.635"",""0.872"",""0.958""]","[1,0,1,1]",0,13,13,13,1,0,0,,,0,FALSE,,,,,,,,,,,,,,,,,,,,,,,,,,,,,,,
,611023befc2052d878c7f50c,627c6ebf6863809235f422cc,2022-05-11_21h28.02.026,classification_task,2021.2.3,MacIntel,59.82292414,627c6715c52fd12f31907bcf,,,,,,,,,,,,,,,,,,,,,,,l,1,3.9448,"[""0.056"",""0.399"",""0.630"",""0.742""]","[1,1,0,1]",0,14,14,14,1,1,0,,,0,FALSE,,,,,,,,,,,,,,,,,,,,,,,,,,,,,,,
,611023befc2052d878c7f50c,627c6ebf6863809235f422cc,2022-05-11_21h28.02.026,classification_task,2021.2.3,MacIntel,59.82292414,627c6715c52fd12f31907bcf,,,,,,,,,,,,,,,,,,,,,,,a,0,2.0942,"[""0.056"",""0.399"",""0.544"",""0.605""]","[1,1,1,0]",0,15,15,15,1,1,0,,,0,FALSE,,,,,,,,,,,,,,,,,,,,,,,,,,,,,,,
,611023befc2052d878c7f50c,627c6ebf6863809235f422cc,2022-05-11_21h28.02.026,classification_task,2021.2.3,MacIntel,59.82292414,627c6715c52fd12f31907bcf,,,,,,,,,,,,,,,,,,,,,,,a,0,2.3751,"[""0.163"",""0.305"",""0.472"",""0.829""]","[0,1,1,1]",0,16,16,16,1,1,1,,,0,FALSE,,,,,,,,,,,,,,,,,,,,,,,,,,,,,,,
,611023befc2052d878c7f50c,627c6ebf6863809235f422cc,2022-05-11_21h28.02.026,classification_task,2021.2.3,MacIntel,59.82292414,627c6715c52fd12f31907bcf,,,,,,,,,,,,,,,,,,,,,,,a,0,0.8583,"[""0.793"",""0.399"",""0.544"",""0.742""]","[0,1,1,1]",0,17,17,17,1,1,0,,,0,FALSE,,,,,,,,,,,,,,,,,,,,,,,,,,,,,,,
,611023befc2052d878c7f50c,627c6ebf6863809235f422cc,2022-05-11_21h28.02.026,classification_task,2021.2.3,MacIntel,59.82292414,627c6715c52fd12f31907bcf,,,,,,,,,,,,,,,,,,,,,,,a,1,0.7526,"[""0.251"",""0.091"",""0.872"",""0.958""]","[1,0,1,1]",0,18,18,18,1,0,0,,,0,FALSE,,,,,,,,,,,,,,,,,,,,,,,,,,,,,,,
,611023befc2052d878c7f50c,627c6ebf6863809235f422cc,2022-05-11_21h28.02.026,classification_task,2021.2.3,MacIntel,59.82292414,627c6715c52fd12f31907bcf,,,,,,,,,,,,,,,,,,,,,,,a,1,2.0236,"[""0.251"",""0.356"",""0.511"",""0.958""]","[1,1,0,1]",0,19,19,19,1,0,0,,,0,FALSE,,,,,,,,,,,,,,,,,,,,,,,,,,,,,,,
,611023befc2052d878c7f50c,627c6ebf6863809235f422cc,2022-05-11_21h28.02.026,classification_task,2021.2.3,MacIntel,59.82292414,627c6715c52fd12f31907bcf,,,,,,,,,,,,,,,,,,,,,,,l,0,0.736,"[""0.251"",""0.356"",""0.872"",""0.511""]","[1,1,1,0]",0,20,20,20,1,0,0,,,0,FALSE,,,,,,,,,,,,,,,,,,,,,,,,,,,,,,,
,611023befc2052d878c7f50c,627c6ebf6863809235f422cc,2022-05-11_21h28.02.026,classification_task,2021.2.3,MacIntel,59.82292414,627c6715c52fd12f31907bcf,,,,,,,,,,,,,,,,,,,,,,,a,1,1.7388,"[""0.201"",""0.432"",""0.670"",""0.579""]","[1,1,1,0]",0,21,21,21,1,0,1,,,0,FALSE,,,,,,,,,,,,,,,,,,,,,,,,,,,,,,,
,611023befc2052d878c7f50c,627c6ebf6863809235f422cc,2022-05-11_21h28.02.026,classification_task,2021.2.3,MacIntel,59.82292414,627c6715c52fd12f31907bcf,,,,,,,,,,,,,,,,,,,,,,,l,1,0.8253,"[""0.056"",""0.399"",""0.630"",""0.742""]","[1,1,0,1]",0,22,22,22,1,1,0,,,0,FALSE,,,,,,,,,,,,,,,,,,,,,,,,,,,,,,,
,611023befc2052d878c7f50c,627c6ebf6863809235f422cc,2022-05-11_21h28.02.026,classification_task,2021.2.3,MacIntel,59.82292414,627c6715c52fd12f31907bcf,,,,,,,,,,,,,,,,,,,,,,,l,1,0.7369,"[""0.056"",""0.163"",""0.544"",""0.742""]","[1,0,1,1]",0,23,23,23,1,1,0,,,0,FALSE,,,,,,,,,,,,,,,,,,,,,,,,,,,,,,,
,611023befc2052d878c7f50c,627c6ebf6863809235f422cc,2022-05-11_21h28.02.026,classification_task,2021.2.3,MacIntel,59.82292414,627c6715c52fd12f31907bcf,,,,,,,,,,,,,,,,,,,,,,,l,0,3.1446,"[""0.201"",""0.582"",""0.670"",""0.924""]","[1,0,1,1]",0,24,24,24,1,0,1,,,0,FALSE,,,,,,,,,,,,,,,,,,,,,,,,,,,,,,,
,611023befc2052d878c7f50c,627c6ebf6863809235f422cc,2022-05-11_21h28.02.026,classification_task,2021.2.3,MacIntel,59.82292414,627c6715c52fd12f31907bcf,,,,,,,,,,,,,,,,,,,,,,,l,0,0.9395,"[""0.605"",""0.356"",""0.872"",""0.958""]","[0,1,1,1]",0,25,25,25,1,0,0,,,0,FALSE,,,,,,,,,,,,,,,,,,,,,,,,,,,,,,,
,611023befc2052d878c7f50c,627c6ebf6863809235f422cc,2022-05-11_21h28.02.026,classification_task,2021.2.3,MacIntel,59.82292414,627c6715c52fd12f31907bcf,,,,,,,,,,,,,,,,,,,,,,,l,1,1.7565,"[""0.126"",""0.305"",""0.472"",""0.630""]","[1,1,1,0]",0,26,26,26,1,1,1,,,0,FALSE,,,,,,,,,,,,,,,,,,,,,,,,,,,,,,,
,611023befc2052d878c7f50c,627c6ebf6863809235f422cc,2022-05-11_21h28.02.026,classification_task,2021.2.3,MacIntel,59.82292414,627c6715c52fd12f31907bcf,,,,,,,,,,,,,,,,,,,,,,,l,0,0.9417,"[""0.201"",""0.432"",""0.579"",""0.924""]","[1,1,0,1]",0,27,27,27,1,0,1,,,0,FALSE,,,,,,,,,,,,,,,,,,,,,,,,,,,,,,,
,611023befc2052d878c7f50c,627c6ebf6863809235f422cc,2022-05-11_21h28.02.026,classification_task,2021.2.3,MacIntel,59.82292414,627c6715c52fd12f31907bcf,,,,,,,,,,,,,,,,,,,,,,,l,0,1.003,"[""0.090"",""0.432"",""0.670"",""0.924""]","[0,1,1,1]",0,28,28,28,1,0,1,,,0,FALSE,,,,,,,,,,,,,,,,,,,,,,,,,,,,,,,
,611023befc2052d878c7f50c,627c6ebf6863809235f422cc,2022-05-11_21h28.02.026,classification_task,2021.2.3,MacIntel,59.82292414,627c6715c52fd12f31907bcf,,,,,,,,,,,,,,,,,,,,,,,l,1,0.9869,"[""0.126"",""0.305"",""0.090"",""0.829""]","[1,1,0,1]",0,29,29,29,1,1,1,,,0,FALSE,,,,,,,,,,,,,,,,,,,,,,,,,,,,,,,
,611023befc2052d878c7f50c,627c6ebf6863809235f422cc,2022-05-11_21h28.02.026,classification_task,2021.2.3,MacIntel,59.82292414,627c6715c52fd12f31907bcf,,,,,,,,,,,,,,,,,,,,,,,l,1,0.8695,"[""0.056"",""0.399"",""0.544"",""0.090""]","[1,1,1,0]",0,30,30,30,1,1,0,,,0,FALSE,,,,,,,,,,,,,,,,,,,,,,,,,,,,,,,
,611023befc2052d878c7f50c,627c6ebf6863809235f422cc,2022-05-11_21h28.02.026,classification_task,2021.2.3,MacIntel,59.82292414,627c6715c52fd12f31907bcf,,,,,,,,,,,,,,,,,,,,,,,a,0,1.7054,"[""0.126"",""0.630"",""0.472"",""0.829""]","[1,0,1,1]",0,31,31,31,1,1,1,,,0,FALSE,,,,,,,,,,,,,,,,,,,,,,,,,,,,,,,
,611023befc2052d878c7f50c,627c6ebf6863809235f422cc,2022-05-11_21h28.02.026,classification_task,2021.2.3,MacIntel,59.82292414,627c6715c52fd12f31907bcf,,,,,,,,,,,,,,,,,,,,,,,l,0,1.4211,"[""0.251"",""0.356"",""0.872"",""0.579""]","[1,1,1,0]",0,32,32,32,1,0,0,,,0,FALSE,,,,,,,,,,,,,,,,,,,,,,,,,,,,,,,
,611023befc2052d878c7f50c,627c6ebf6863809235f422cc,2022-05-11_21h28.02.026,classification_task,2021.2.3,MacIntel,59.82292414,627c6715c52fd12f31907bcf,,,,,,,,,,,,,,,,,,,,,,,a,0,3.4935,"[""0.707"",""0.305"",""0.472"",""0.829""]","[0,1,1,1]",0,33,33,33,1,1,1,,,0,FALSE,,,,,,,,,,,,,,,,,,,,,,,,,,,,,,,
,611023befc2052d878c7f50c,627c6ebf6863809235f422cc,2022-05-11_21h28.02.026,classification_task,2021.2.3,MacIntel,59.82292414,627c6715c52fd12f31907bcf,,,,,,,,,,,,,,,,,,,,,,,a,0,1.0413,"[""0.126"",""0.305"",""0.472"",""0.579""]","[1,1,1,0]",0,34,34,34,1,1,1,,,0,FALSE,,,,,,,,,,,,,,,,,,,,,,,,,,,,,,,
,611023befc2052d878c7f50c,627c6ebf6863809235f422cc,2022-05-11_21h28.02.026,classification_task,2021.2.3,MacIntel,59.82292414,627c6715c52fd12f31907bcf,,,,,,,,,,,,,,,,,,,,,,,a,0,0.5858,"[""0.126"",""0.305"",""0.604"",""0.829""]","[1,1,0,1]",0,35,35,35,1,1,1,,,0,FALSE,,,,,,,,,,,,,,,,,,,,,,,,,,,,,,,
,611023befc2052d878c7f50c,627c6ebf6863809235f422cc,2022-05-11_21h28.02.026,classification_task,2021.2.3,MacIntel,59.82292414,627c6715c52fd12f31907bcf,,,,,,,,,,,,,,,,,,,,,,,a,1,1.1689,"[""0.201"",""0.630"",""0.670"",""0.924""]","[1,0,1,1]",0,36,36,36,1,0,1,,,0,FALSE,,,,,,,,,,,,,,,,,,,,,,,,,,,,,,,
,611023befc2052d878c7f50c,627c6ebf6863809235f422cc,2022-05-11_21h28.02.026,classification_task,2021.2.3,MacIntel,59.82292414,627c6715c52fd12f31907bcf,,,,,,,,,,,,,,,,,,,,,,,a,0,0.8416,"[""0.056"",""0.793"",""0.544"",""0.742""]","[1,0,1,1]",0,37,37,37,1,1,0,,,0,FALSE,,,,,,,,,,,,,,,,,,,,,,,,,,,,,,,
,611023befc2052d878c7f50c,627c6ebf6863809235f422cc,2022-05-11_21h28.02.026,classification_task,2021.2.3,MacIntel,59.82292414,627c6715c52fd12f31907bcf,,,,,,,,,,,,,,,,,,,,,,,a,0,1.2586,"[""0.056"",""0.399"",""0.579"",""0.742""]","[1,1,0,1]",0,38,38,38,1,1,0,,,0,FALSE,,,,,,,,,,,,,,,,,,,,,,,,,,,,,,,
,611023befc2052d878c7f50c,627c6ebf6863809235f422cc,2022-05-11_21h28.02.026,classification_task,2021.2.3,MacIntel,59.82292414,627c6715c52fd12f31907bcf,,,,,,,,,,,,,,,,,,,,,,,a,1,0.8754,"[""0.511"",""0.356"",""0.872"",""0.958""]","[0,1,1,1]",0,39,39,39,1,0,0,,,0,FALSE,,,,,,,,,,,,,,,,,,,,,,,,,,,,,,,
,611023befc2052d878c7f50c,627c6ebf6863809235f422cc,2022-05-11_21h28.02.026,classification_task,2021.2.3,MacIntel,59.82292414,627c6715c52fd12f31907bcf,,,,,,,,,,,,,,,,,,,,,,,a,1,2.1753,"[""0.201"",""0.432"",""0.509"",""0.924""]","[1,1,0,1]",0,40,40,40,1,0,1,,,0,FALSE,,,,,,,,,,,,,,,,,,,,,,,,,,,,,,,
,611023befc2052d878c7f50c,627c6ebf6863809235f422cc,2022-05-11_21h28.02.026,classification_task,2021.2.3,MacIntel,59.82292414,627c6715c52fd12f31907bcf,,,,,,,,,,,,,,,,,,,,,,,l,1,1.4571,"[""0.630"",""0.399"",""0.544"",""0.742""]","[0,1,1,1]",0,41,41,41,1,1,0,,,0,FALSE,,,,,,,,,,,,,,,,,,,,,,,,,,,,,,,
,611023befc2052d878c7f50c,627c6ebf6863809235f422cc,2022-05-11_21h28.02.026,classification_task,2021.2.3,MacIntel,59.82292414,627c6715c52fd12f31907bcf,,,,,,,,,,,,,,,,,,,,,,,a,1,0.8359,"[""0.251"",""0.090"",""0.872"",""0.958""]","[1,0,1,1]",0,42,42,42,1,0,0,,,0,FALSE,,,,,,,,,,,,,,,,,,,,,,,,,,,,,,,
,611023befc2052d878c7f50c,627c6ebf6863809235f422cc,2022-05-11_21h28.02.026,classification_task,2021.2.3,MacIntel,59.82292414,627c6715c52fd12f31907bcf,,,,,,,,,,,,,,,,,,,,,,,l,1,0.8523,"[""0.126"",""0.090"",""0.472"",""0.829""]","[1,0,1,1]",0,43,43,43,1,1,1,,,0,FALSE,,,,,,,,,,,,,,,,,,,,,,,,,,,,,,,
,611023befc2052d878c7f50c,627c6ebf6863809235f422cc,2022-05-11_21h28.02.026,classification_task,2021.2.3,MacIntel,59.82292414,627c6715c52fd12f31907bcf,,,,,,,,,,,,,,,,,,,,,,,l,1,0.6564,"[""0.056"",""0.399"",""0.544"",""0.090""]","[1,1,1,0]",0,44,44,44,1,1,0,,,0,FALSE,,,,,,,,,,,,,,,,,,,,,,,,,,,,,,,
,611023befc2052d878c7f50c,627c6ebf6863809235f422cc,2022-05-11_21h28.02.026,classification_task,2021.2.3,MacIntel,59.82292414,627c6715c52fd12f31907bcf,,,,,,,,,,,,,,,,,,,,,,,a,1,1.2905,"[""0.201"",""0.432"",""0.670"",""0.582""]","[1,1,1,0]",0,45,45,45,1,0,1,,,0,FALSE,,,,,,,,,,,,,,,,,,,,,,,,,,,,,,,
,611023befc2052d878c7f50c,627c6ebf6863809235f422cc,2022-05-11_21h28.02.026,classification_task,2021.2.3,MacIntel,59.82292414,627c6715c52fd12f31907bcf,,,,,,,,,,,,,,,,,,,,,,,a,1,1.1874,"[""0.511"",""0.432"",""0.670"",""0.924""]","[0,1,1,1]",0,46,46,46,1,0,1,,,0,FALSE,,,,,,,,,,,,,,,,,,,,,,,,,,,,,,,
,611023befc2052d878c7f50c,627c6ebf6863809235f422cc,2022-05-11_21h28.02.026,classification_task,2021.2.3,MacIntel,59.82292414,627c6715c52fd12f31907bcf,,,,,,,,,,,,,,,,,,,,,,,a,1,0.9187,"[""0.251"",""0.356"",""0.584"",""0.958""]","[1,1,0,1]",0,47,47,47,1,0,0,,,0,FALSE,,,,,,,,,,,,,,,,,,,,,,,,,,,,,,,
,611023befc2052d878c7f50c,627c6ebf6863809235f422cc,2022-05-11_21h28.02.026,classification_task,2021.2.3,MacIntel,59.82292414,627c6715c52fd12f31907bcf,,,,,,,,,,,,,,,,,,,,,,,a,0,1.455,"[""0.126"",""0.305"",""0.472"",""0.582""]","[1,1,1,0]",0,48,48,48,1,1,1,,,0,FALSE,,,,,,,,,,,,,,,,,,,,,,,,,,,,,,,
,611023befc2052d878c7f50c,627c6ebf6863809235f422cc,2022-05-11_21h28.02.026,classification_task,2021.2.3,MacIntel,59.82292414,627c6715c52fd12f31907bcf,,,,,,,,,,,,,,,,,,,,,,,a,0,0.9767,"[""0.707"",""0.399"",""0.544"",""0.742""]","[0,1,1,1]",0,49,49,49,1,1,0,,,0,FALSE,,,,,,,,,,,,,,,,,,,,,,,,,,,,,,,
,611023befc2052d878c7f50c,627c6ebf6863809235f422cc,2022-05-11_21h28.02.026,classification_task,2021.2.3,MacIntel,59.82292414,627c6715c52fd12f31907bcf,,,,,,,,,,,,,,,,,,,,,,,l,1,1.0544,"[""0.056"",""0.605"",""0.544"",""0.742""]","[1,0,1,1]",0,50,50,50,1,1,0,,,0,FALSE,,,,,,,,,,,,,,,,,,,,,,,,,,,,,,,
,611023befc2052d878c7f50c,627c6ebf6863809235f422cc,2022-05-11_21h28.02.026,classification_task,2021.2.3,MacIntel,59.82292414,627c6715c52fd12f31907bcf,,,,,,,,,,,,,,,,,,,,,,,l,0,1.8886,"[""0.201"",""0.432"",""0.670"",""0.584""]","[1,1,1,0]",0,51,51,51,1,0,1,,,0,FALSE,,,,,,,,,,,,,,,,,,,,,,,,,,,,,,,
,611023befc2052d878c7f50c,627c6ebf6863809235f422cc,2022-05-11_21h28.02.026,classification_task,2021.2.3,MacIntel,59.82292414,627c6715c52fd12f31907bcf,,,,,,,,,,,,,,,,,,,,,,,a,1,0.5864,"[""0.251"",""0.707"",""0.872"",""0.958""]","[1,0,1,1]",0,52,52,52,1,0,0,,,0,FALSE,,,,,,,,,,,,,,,,,,,,,,,,,,,,,,,
,611023befc2052d878c7f50c,627c6ebf6863809235f422cc,2022-05-11_21h28.02.026,classification_task,2021.2.3,MacIntel,59.82292414,627c6715c52fd12f31907bcf,,,,,,,,,,,,,,,,,,,,,,,l,1,1.7544,"[""0.126"",""0.630"",""0.472"",""0.829""]","[1,0,1,1]",0,53,53,53,1,1,1,,,0,FALSE,,,,,,,,,,,,,,,,,,,,,,,,,,,,,,,
,611023befc2052d878c7f50c,627c6ebf6863809235f422cc,2022-05-11_21h28.02.026,classification_task,2021.2.3,MacIntel,59.82292414,627c6715c52fd12f31907bcf,,,,,,,,,,,,,,,,,,,,,,,a,0,1.0035,"[""0.056"",""0.399"",""0.544"",""0.605""]","[1,1,1,0]",0,54,54,54,1,1,0,,,0,FALSE,,,,,,,,,,,,,,,,,,,,,,,,,,,,,,,
,611023befc2052d878c7f50c,627c6ebf6863809235f422cc,2022-05-11_21h28.02.026,classification_task,2021.2.3,MacIntel,59.82292414,627c6715c52fd12f31907bcf,,,,,,,,,,,,,,,,,,,,,,,l,1,1.7221,"[""0.584"",""0.305"",""0.472"",""0.829""]","[0,1,1,1]",0,55,55,55,1,1,1,,,0,FALSE,,,,,,,,,,,,,,,,,,,,,,,,,,,,,,,
,611023befc2052d878c7f50c,627c6ebf6863809235f422cc,2022-05-11_21h28.02.026,classification_task,2021.2.3,MacIntel,59.82292414,627c6715c52fd12f31907bcf,,,,,,,,,,,,,,,,,,,,,,,l,1,1.0953,"[""0.126"",""0.305"",""0.582"",""0.829""]","[1,1,0,1]",0,56,56,56,1,1,1,,,0,FALSE,,,,,,,,,,,,,,,,,,,,,,,,,,,,,,,
,611023befc2052d878c7f50c,627c6ebf6863809235f422cc,2022-05-11_21h28.02.026,classification_task,2021.2.3,MacIntel,59.82292414,627c6715c52fd12f31907bcf,,,,,,,,,,,,,,,,,,,,,,,a,1,0.8018,"[""0.509"",""0.356"",""0.872"",""0.958""]","[0,1,1,1]",0,57,57,57,1,0,0,,,0,FALSE,,,,,,,,,,,,,,,,,,,,,,,,,,,,,,,
,611023befc2052d878c7f50c,627c6ebf6863809235f422cc,2022-05-11_21h28.02.026,classification_task,2021.2.3,MacIntel,59.82292414,627c6715c52fd12f31907bcf,,,,,,,,,,,,,,,,,,,,,,,l,0,1.4376,"[""0.201"",""0.432"",""0.509"",""0.924""]","[1,1,0,1]",0,58,58,58,1,0,1,,,0,FALSE,,,,,,,,,,,,,,,,,,,,,,,,,,,,,,,
,611023befc2052d878c7f50c,627c6ebf6863809235f422cc,2022-05-11_21h28.02.026,classification_task,2021.2.3,MacIntel,59.82292414,627c6715c52fd12f31907bcf,,,,,,,,,,,,,,,,,,,,,,,a,1,1.0044,"[""0.251"",""0.356"",""0.604"",""0.958""]","[1,1,0,1]",0,59,59,59,1,0,0,,,0,FALSE,,,,,,,,,,,,,,,,,,,,,,,,,,,,,,,
,611023befc2052d878c7f50c,627c6ebf6863809235f422cc,2022-05-11_21h28.02.026,classification_task,2021.2.3,MacIntel,59.82292414,627c6715c52fd12f31907bcf,,,,,,,,,,,,,,,,,,,,,,,l,0,2.8293,"[""0.201"",""0.630"",""0.670"",""0.924""]","[1,0,1,1]",0,60,60,60,1,0,1,,,0,FALSE,,,,,,,,,,,,,,,,,,,,,,,,,,,,,,,
,611023befc2052d878c7f50c,627c6ebf6863809235f422cc,2022-05-11_21h28.02.026,classification_task,2021.2.3,MacIntel,59.82292414,627c6715c52fd12f31907bcf,,,,,,,,,,,,,,,,,,,,,,,a,0,1.2116,"[""0.056"",""0.399"",""0.509"",""0.742""]","[1,1,0,1]",0,61,61,61,1,1,0,,,0,FALSE,,,,,,,,,,,,,,,,,,,,,,,,,,,,,,,
,611023befc2052d878c7f50c,627c6ebf6863809235f422cc,2022-05-11_21h28.02.026,classification_task,2021.2.3,MacIntel,59.82292414,627c6715c52fd12f31907bcf,,,,,,,,,,,,,,,,,,,,,,,a,1,1.9232,"[""0.251"",""0.356"",""0.872"",""0.511""]","[1,1,1,0]",0,62,62,62,1,0,0,,,0,FALSE,,,,,,,,,,,,,,,,,,,,,,,,,,,,,,,
,611023befc2052d878c7f50c,627c6ebf6863809235f422cc,2022-05-11_21h28.02.026,classification_task,2021.2.3,MacIntel,59.82292414,627c6715c52fd12f31907bcf,,,,,,,,,,,,,,,,,,,,,,,a,1,1.0366,"[""0.604"",""0.432"",""0.670"",""0.924""]","[0,1,1,1]",0,63,63,63,1,0,1,,,0,FALSE,,,,,,,,,,,,,,,,,,,,,,,,,,,,,,,
,611023befc2052d878c7f50c,627c6ebf6863809235f422cc,2022-05-11_21h28.02.026,classification_task,2021.2.3,MacIntel,59.82292414,627c6715c52fd12f31907bcf,,,,,,,,,,,,,,,,,,,,,,,,,,,,,,,,,,,,,,,0, ,,0,1.412668559,175.432,0,2,2,2,1,2,3,,,,,,,,,,,,,,,,,,
,611023befc2052d878c7f50c,627c6ebf6863809235f422cc,2022-05-11_21h28.02.026,classification_task,2021.2.3,MacIntel,59.82292414,627c6715c52fd12f31907bcf,,,,,,,,,,,,,,,,,,,,,,,,,,,,,,,,,,,,,,,1,  ,,0,7.241041575,177.2775,0,2,2,2,1,2,3,,,,,,,,,,,,,,,,,,
,611023befc2052d878c7f50c,627c6ebf6863809235f422cc,2022-05-11_21h28.02.026,classification_task,2021.2.3,MacIntel,59.82292414,627c6715c52fd12f31907bcf,,,,,,,,,,,,,,,,,,,,,,,,,,,,,,,,,,,,,,,2,  ,,0,5.886140046,180.5636,0,2,2,2,1,2,3,,,,,,,,,,,,,,,,,,
,611023befc2052d878c7f50c,627c6ebf6863809235f422cc,2022-05-11_21h28.02.026,classification_task,2021.2.3,MacIntel,59.82292414,627c6715c52fd12f31907bcf,,,,,,,,,,,,,,,,,,,,,,,,,,,,,,,,,,,,,,,,,,,,,0,2,2,2,1,,3,,,,,,,,,,,,,,,,,,
,611023befc2052d878c7f50c,627c6ebf6863809235f422cc,2022-05-11_21h28.02.026,classification_task,2021.2.3,MacIntel,59.82292414,627c6715c52fd12f31907bcf,,,,,,,,,,,,,,,,,,,,,,,,,,,,,,,,,,,,,,,,,,,,,,,,,,,,,I believe the aid is a competent performer,,0.7,0,5,912.8464,0,0,0,0,1,0,,,,,
,611023befc2052d878c7f50c,627c6ebf6863809235f422cc,2022-05-11_21h28.02.026,classification_task,2021.2.3,MacIntel,59.82292414,627c6715c52fd12f31907bcf,,,,,,,,,,,,,,,,,,,,,,,,,,,,,,,,,,,,,,,,,,,,,,,,,,,,,I trust the aid,,0.7,0,5,913.496,0,0,0,0,1,0,,,,,
,611023befc2052d878c7f50c,627c6ebf6863809235f422cc,2022-05-11_21h28.02.026,classification_task,2021.2.3,MacIntel,59.82292414,627c6715c52fd12f31907bcf,,,,,,,,,,,,,,,,,,,,,,,,,,,,,,,,,,,,,,,,,,,,,,,,,,,,,I have confidence in the advice given by the aid,,0.7,0,4,906.4894,0,0,0,0,1,0,,,,,
,611023befc2052d878c7f50c,627c6ebf6863809235f422cc,2022-05-11_21h28.02.026,classification_task,2021.2.3,MacIntel,59.82292414,627c6715c52fd12f31907bcf,,,,,,,,,,,,,,,,,,,,,,,,,,,,,,,,,,,,,,,,,,,,,,,,,,,,,I can depend on the aid,,0.7,0,4,908.2927,0,0,0,0,1,0,,,,,
,611023befc2052d878c7f50c,627c6ebf6863809235f422cc,2022-05-11_21h28.02.026,classification_task,2021.2.3,MacIntel,59.82292414,627c6715c52fd12f31907bcf,,,,,,,,,,,,,,,,,,,,,,,,,,,,,,,,,,,,,,,,,,,,,,,,,,,,,I can rely on the aid to behave in consistent ways,,0.7,0,4,911.0437,0,0,0,0,1,0,,,,,
,611023befc2052d878c7f50c,627c6ebf6863809235f422cc,2022-05-11_21h28.02.026,classification_task,2021.2.3,MacIntel,59.82292414,627c6715c52fd12f31907bcf,,,,,,,,,,,,,,,,,,,,,,,,,,,,,,,,,,,,,,,,,,,,,,,,,,,,,I can rely on the aid to do its best every time I take its advice,,0.7,0,4,917.9311,0,0,0,0,1,0,,,,,
,611023befc2052d878c7f50c,627c6ebf6863809235f422cc,2022-05-11_21h28.02.026,classification_task,2021.2.3,MacIntel,59.82292414,627c6715c52fd12f31907bcf,,,,,,,,,,,,,,,,,,,,,,,,,,,,,,,,,,,,,,,,,,,,,,,,,,,,,"On trials you completed with assistance from the aid, how frequently did you think the aid was correct?",,0.7,0,100%,,0,0,0,0,1,0,,,,,
,611023befc2052d878c7f50c,627c6ebf6863809235f422cc,2022-05-11_21h28.02.026,classification_task,2021.2.3,MacIntel,59.82292414,627c6715c52fd12f31907bcf,,,,,,,,,,,,,,,,,,,,,,,,,,,,,,,,,,,,,,,,,,,,,,,,,,,,,"On trials you completed without the aid, how frequently did you think you were correct?",,0.7,0,50%,,0,0,0,0,1,0,,,,,
,611023befc2052d878c7f50c,627c6ebf6863809235f422cc,2022-05-11_21h28.02.026,classification_task,2021.2.3,MacIntel,59.82292414,627c6715c52fd12f31907bcf,,,,,,,,,,,,,,,,,,,,,,,,,,,,,,,,,,,,,,,,,,,,,,,,,,,,,,,,,,,0,0,0,0,1,,,,,,
,611023befc2052d878c7f50c,627c6ebf6863809235f422cc,2022-05-11_21h28.02.026,classification_task,2021.2.3,MacIntel,59.82292414,627c6715c52fd12f31907bcf,,,,,,,,,,,,,,,,,,,,,,,,,,,,,,,,,,,,,,,,,,,,,,,,,,,,,,,,,,,,,,,,,space,99.4819,1026.5879,,
,611023befc2052d878c7f50c,627c6ebf6863809235f422cc,2022-05-11_21h28.02.026,classification_task,2021.2.3,MacIntel,59.82292414,627c6715c52fd12f31907bcf,,,,,,,,,,,,,,,,,,,,,,,,,,,,,,,,,,,,,,,,,,,,,,,,,,,,,,,,,,,,,,,,,,,,"Mozilla/5.0 (Macintosh; Intel Mac OS X 10_13_6) AppleWebKit/537.36 (KHTML, like Gecko) Chrome/101.0.4951.54 Safari/537.36",
,611023befc2052d878c7f50c,627c6ebf6863809235f422cc,2022-05-11_21h28.02.026,classification_task,2021.2.3,MacIntel,59.82292414,627c6715c52fd12f31907bcf,,,,,,,,,,,,,,,,,,,,,,,,,,,,,,,,,,,,,,,,,,,,,,,,,,,,,,,,,,,,,,,,,,,,,FADING
