usingWebGL,participant,session,date,expName,psychopyVersion,OS,frameRate,study_id,signatures_friend,signatures_foe,band_ranges_top,band_ranges_bottom,formitemText,formtype,formundefined,formitemWidth,formindex,formresponse,formrt,key_resp_2.keys,key_resp_2.rt,tute_resp.keys,tute_resp.rt,tutorial.thisRepN,tutorial.thisTrialN,tutorial.thisN,tutorial.thisIndex,tutorial.ran,key_resp_4.keys,key_resp_4.rt,key_resp.keys,key_resp.corr,key_resp.rt,lines_presented,is_signal_presented,trials.thisRepN,trials.thisTrialN,trials.thisN,trials.thisIndex,trials.ran,vessel,active_band,lines,is_signal,supported_pos,catch_trial,debrief_formindex,debrief_formitemText,debrief_formtype,debrief_formitemWidth,debrief_formresponse,debrief_formrt,phases.thisRepN,phases.thisTrialN,phases.thisN,phases.thisIndex,phases.ran,phases.order,phase,key_resp_3.keys,trustitemText,trusttype,trustitemWidth,trustindex,trustresponse,trustrt,support_status.thisRepN,support_status.thisTrialN,support_status.thisN,support_status.thisIndex,support_status.ran,support_status.order,key_resp_5.keys,key_resp_5.rt,globalClockTime,userAgent,manualCondition
TRUE,611955ed190e232468392a2f,627c74514c8ad494b268f9e1,2022-05-12_04h45.42.655,classification_task,2021.2.3,Win32,59.74072525,627c6715c52fd12f31907bd0,,,,,,,,,,,,,,,,,,,,,,,,,,,,,,,,,,,,,,,,,,,,,,,,,,,,,,,,,,,,,,,,,,,,,
,611955ed190e232468392a2f,627c74514c8ad494b268f9e1,2022-05-12_04h45.42.655,classification_task,2021.2.3,Win32,59.74072525,627c6715c52fd12f31907bd0,"[[""0.171"",""0.493"",""0.669"",""0.893""],[""0.310"",""0.377"",""0.795"",""0.947""]]","[[""0.092"",""0.253"",""0.441"",""0.841""],[""0.039"",""0.205"",""0.559"",""0.727""]]","[1,10]","[100,1000]",Video game experience,,,0.7,0,,,,,,,,,,,,,,,,,,,,,,,,,,,,,,,,,,,,,,,,,,,,,,,,,,,,,,,,,,,,
,611955ed190e232468392a2f,627c74514c8ad494b268f9e1,2022-05-12_04h45.42.655,classification_task,2021.2.3,Win32,59.74072525,627c6715c52fd12f31907bd0,,,,,Approximately how many hours did you spend playing video games in the last week?,,,0.7,0,0,,,,,,,,,,,,,,,,,,,,,,,,,,,,,,,,,,,,,,,,,,,,,,,,,,,,,,,,,,,
,611955ed190e232468392a2f,627c74514c8ad494b268f9e1,2022-05-12_04h45.42.655,classification_task,2021.2.3,Win32,59.74072525,627c6715c52fd12f31907bd0,,,,,"Which game did you play the most this year? (Enter ""None"" if you didn't play any)",,,0.7,0,None,,,,,,,,,,,,,,,,,,,,,,,,,,,,,,,,,,,,,,,,,,,,,,,,,,,,,,,,,,,
,611955ed190e232468392a2f,627c74514c8ad494b268f9e1,2022-05-12_04h45.42.655,classification_task,2021.2.3,Win32,59.74072525,627c6715c52fd12f31907bd0,,,,,Visual perception,,,0.7,0,,,,,,,,,,,,,,,,,,,,,,,,,,,,,,,,,,,,,,,,,,,,,,,,,,,,,,,,,,,,
,611955ed190e232468392a2f,627c74514c8ad494b268f9e1,2022-05-12_04h45.42.655,classification_task,2021.2.3,Win32,59.74072525,627c6715c52fd12f31907bd0,,,,,Do you have any form of color blindness?,,,0.7,0,No,21.9569,,,,,,,,,,,,,,,,,,,,,,,,,,,,,,,,,,,,,,,,,,,,,,,,,,,,,,,,,,
,611955ed190e232468392a2f,627c74514c8ad494b268f9e1,2022-05-12_04h45.42.655,classification_task,2021.2.3,Win32,59.74072525,627c6715c52fd12f31907bd0,,,,,Do you use software to change the colour temperature of your screen (e.g. f.lux)?,,,0.7,0,No,25.1626,,,,,,,,,,,,,,,,,,,,,,,,,,,,,,,,,,,,,,,,,,,,,,,,,,,,,,,,,,
,611955ed190e232468392a2f,627c74514c8ad494b268f9e1,2022-05-12_04h45.42.655,classification_task,2021.2.3,Win32,59.74072525,627c6715c52fd12f31907bd0,,,,,,,,,,,,space,49.9256,space,10.7502,0,0,0,0,1,,,,,,,,,,,,,,,,,,,,,,,,,,,,,,,,,,,,,,,,,,,,,,,,,
,611955ed190e232468392a2f,627c74514c8ad494b268f9e1,2022-05-12_04h45.42.655,classification_task,2021.2.3,Win32,59.74072525,627c6715c52fd12f31907bd0,,,,,,,,,,,,,,space,8.0903,1,0,1,0,1,,,,,,,,,,,,,,,,,,,,,,,,,,,,,,,,,,,,,,,,,,,,,,,,,
,611955ed190e232468392a2f,627c74514c8ad494b268f9e1,2022-05-12_04h45.42.655,classification_task,2021.2.3,Win32,59.74072525,627c6715c52fd12f31907bd0,,,,,,,,,,,,,,space,12.1781,2,0,2,0,1,,,,,,,,,,,,,,,,,,,,,,,,,,,,,,,,,,,,,,,,,,,,,,,,,
,611955ed190e232468392a2f,627c74514c8ad494b268f9e1,2022-05-12_04h45.42.655,classification_task,2021.2.3,Win32,59.74072525,627c6715c52fd12f31907bd0,,,,,,,,,,,,,,space,8.5782,3,0,3,0,1,,,,,,,,,,,,,,,,,,,,,,,,,,,,,,,,,,,,,,,,,,,,,,,,,
,611955ed190e232468392a2f,627c74514c8ad494b268f9e1,2022-05-12_04h45.42.655,classification_task,2021.2.3,Win32,59.74072525,627c6715c52fd12f31907bd0,,,,,,,,,,,,,,space,13.7742,4,0,4,0,1,,,,,,,,,,,,,,,,,,,,,,,,,,,,,,,,,,,,,,,,,,,,,,,,,
,611955ed190e232468392a2f,627c74514c8ad494b268f9e1,2022-05-12_04h45.42.655,classification_task,2021.2.3,Win32,59.74072525,627c6715c52fd12f31907bd0,,,,,,,,,,,,,,,,,,,,,space,18.1971,a,1,7.5677,"[""0.171"",""0.493"",""0.604"",""0.893""]","[1,1,0,1]",0,0,0,0,1,0,0,,,0,FALSE,,,,,,,,,,,,,,,,,,,,,,,,,,,,,,,
,611955ed190e232468392a2f,627c74514c8ad494b268f9e1,2022-05-12_04h45.42.655,classification_task,2021.2.3,Win32,59.74072525,627c6715c52fd12f31907bd0,,,,,,,,,,,,,,,,,,,,,,,,0,,"[""0.623"",""0.253"",""0.441"",""0.841""]","[0,1,1,1]",0,1,1,1,1,1,0,,,0,FALSE,,,,,,,,,,,,,,,,,,,,,,,,,,,,,,,
,611955ed190e232468392a2f,627c74514c8ad494b268f9e1,2022-05-12_04h45.42.655,classification_task,2021.2.3,Win32,59.74072525,627c6715c52fd12f31907bd0,,,,,,,,,,,,,,,,,,,,,,,a,1,4.3297,"[""0.598"",""0.377"",""0.795"",""0.947""]","[0,1,1,1]",0,2,2,2,1,0,1,,,0,FALSE,,,,,,,,,,,,,,,,,,,,,,,,,,,,,,,
,611955ed190e232468392a2f,627c74514c8ad494b268f9e1,2022-05-12_04h45.42.655,classification_task,2021.2.3,Win32,59.74072525,627c6715c52fd12f31907bd0,,,,,,,,,,,,,,,,,,,,,,,l,1,3.5491,"[""0.039"",""0.205"",""0.135"",""0.727""]","[1,1,0,1]",0,3,3,3,1,1,1,,,0,FALSE,,,,,,,,,,,,,,,,,,,,,,,,,,,,,,,
,611955ed190e232468392a2f,627c74514c8ad494b268f9e1,2022-05-12_04h45.42.655,classification_task,2021.2.3,Win32,59.74072525,627c6715c52fd12f31907bd0,,,,,,,,,,,,,,,,,,,,,,,a,1,2.8214,"[""0.171"",""0.134"",""0.669"",""0.893""]","[1,0,1,1]",0,4,4,4,1,0,0,,,0,FALSE,,,,,,,,,,,,,,,,,,,,,,,,,,,,,,,
,611955ed190e232468392a2f,627c74514c8ad494b268f9e1,2022-05-12_04h45.42.655,classification_task,2021.2.3,Win32,59.74072525,627c6715c52fd12f31907bd0,,,,,,,,,,,,,,,,,,,,,,,l,1,2.5986,"[""0.039"",""0.205"",""0.559"",""0.604""]","[1,1,1,0]",0,5,5,5,1,1,1,,,0,FALSE,,,,,,,,,,,,,,,,,,,,,,,,,,,,,,,
,611955ed190e232468392a2f,627c74514c8ad494b268f9e1,2022-05-12_04h45.42.655,classification_task,2021.2.3,Win32,59.74072525,627c6715c52fd12f31907bd0,,,,,,,,,,,,,,,,,,,,,,,a,1,2.5759,"[""0.310"",""0.377"",""0.624"",""0.947""]","[1,1,0,1]",0,6,6,6,1,0,1,,,0,FALSE,,,,,,,,,,,,,,,,,,,,,,,,,,,,,,,
,611955ed190e232468392a2f,627c74514c8ad494b268f9e1,2022-05-12_04h45.42.655,classification_task,2021.2.3,Win32,59.74072525,627c6715c52fd12f31907bd0,,,,,,,,,,,,,,,,,,,,,,,a,0,2.1771,"[""0.092"",""0.601"",""0.441"",""0.841""]","[1,0,1,1]",0,7,7,7,1,1,0,,,0,FALSE,,,,,,,,,,,,,,,,,,,,,,,,,,,,,,,
,611955ed190e232468392a2f,627c74514c8ad494b268f9e1,2022-05-12_04h45.42.655,classification_task,2021.2.3,Win32,59.74072525,627c6715c52fd12f31907bd0,,,,,,,,,,,,,,,,,,,,,,,a,1,2.133,"[""0.310"",""0.624"",""0.795"",""0.947""]","[1,0,1,1]",0,8,8,8,1,0,1,,,0,FALSE,,,,,,,,,,,,,,,,,,,,,,,,,,,,,,,
,611955ed190e232468392a2f,627c74514c8ad494b268f9e1,2022-05-12_04h45.42.655,classification_task,2021.2.3,Win32,59.74072525,627c6715c52fd12f31907bd0,,,,,,,,,,,,,,,,,,,,,,,a,1,2.233,"[""0.171"",""0.493"",""0.669"",""0.625""]","[1,1,1,0]",0,9,9,9,1,0,0,,,0,FALSE,,,,,,,,,,,,,,,,,,,,,,,,,,,,,,,
,611955ed190e232468392a2f,627c74514c8ad494b268f9e1,2022-05-12_04h45.42.655,classification_task,2021.2.3,Win32,59.74072525,627c6715c52fd12f31907bd0,,,,,,,,,,,,,,,,,,,,,,,a,1,2.838,"[""0.135"",""0.493"",""0.669"",""0.893""]","[0,1,1,1]",0,10,10,10,1,0,0,,,0,FALSE,,,,,,,,,,,,,,,,,,,,,,,,,,,,,,,
,611955ed190e232468392a2f,627c74514c8ad494b268f9e1,2022-05-12_04h45.42.655,classification_task,2021.2.3,Win32,59.74072525,627c6715c52fd12f31907bd0,,,,,,,,,,,,,,,,,,,,,,,l,1,2.1674,"[""0.039"",""0.595"",""0.559"",""0.727""]","[1,0,1,1]",0,11,11,11,1,1,1,,,0,FALSE,,,,,,,,,,,,,,,,,,,,,,,,,,,,,,,
,611955ed190e232468392a2f,627c74514c8ad494b268f9e1,2022-05-12_04h45.42.655,classification_task,2021.2.3,Win32,59.74072525,627c6715c52fd12f31907bd0,,,,,,,,,,,,,,,,,,,,,,,l,1,2.1151,"[""0.092"",""0.253"",""0.605"",""0.841""]","[1,1,0,1]",0,12,12,12,1,1,0,,,0,FALSE,,,,,,,,,,,,,,,,,,,,,,,,,,,,,,,
,611955ed190e232468392a2f,627c74514c8ad494b268f9e1,2022-05-12_04h45.42.655,classification_task,2021.2.3,Win32,59.74072525,627c6715c52fd12f31907bd0,,,,,,,,,,,,,,,,,,,,,,,l,1,1.7387,"[""0.092"",""0.253"",""0.441"",""0.604""]","[1,1,1,0]",0,13,13,13,1,1,0,,,0,FALSE,,,,,,,,,,,,,,,,,,,,,,,,,,,,,,,
,611955ed190e232468392a2f,627c74514c8ad494b268f9e1,2022-05-12_04h45.42.655,classification_task,2021.2.3,Win32,59.74072525,627c6715c52fd12f31907bd0,,,,,,,,,,,,,,,,,,,,,,,l,1,2.0775,"[""0.625"",""0.205"",""0.559"",""0.727""]","[0,1,1,1]",0,14,14,14,1,1,1,,,0,FALSE,,,,,,,,,,,,,,,,,,,,,,,,,,,,,,,
,611955ed190e232468392a2f,627c74514c8ad494b268f9e1,2022-05-12_04h45.42.655,classification_task,2021.2.3,Win32,59.74072525,627c6715c52fd12f31907bd0,,,,,,,,,,,,,,,,,,,,,,,a,1,1.997,"[""0.310"",""0.377"",""0.795"",""0.624""]","[1,1,1,0]",0,15,15,15,1,0,1,,,0,FALSE,,,,,,,,,,,,,,,,,,,,,,,,,,,,,,,
,611955ed190e232468392a2f,627c74514c8ad494b268f9e1,2022-05-12_04h45.42.655,classification_task,2021.2.3,Win32,59.74072525,627c6715c52fd12f31907bd0,,,,,,,,,,,,,,,,,,,,,,,l,1,2.0847,"[""0.039"",""0.601"",""0.559"",""0.727""]","[1,0,1,1]",0,16,16,16,1,1,1,,,0,FALSE,,,,,,,,,,,,,,,,,,,,,,,,,,,,,,,
,611955ed190e232468392a2f,627c74514c8ad494b268f9e1,2022-05-12_04h45.42.655,classification_task,2021.2.3,Win32,59.74072525,627c6715c52fd12f31907bd0,,,,,,,,,,,,,,,,,,,,,,,l,1,1.3306,"[""0.039"",""0.205"",""0.135"",""0.727""]","[1,1,0,1]",0,17,17,17,1,1,1,,,0,FALSE,,,,,,,,,,,,,,,,,,,,,,,,,,,,,,,
,611955ed190e232468392a2f,627c74514c8ad494b268f9e1,2022-05-12_04h45.42.655,classification_task,2021.2.3,Win32,59.74072525,627c6715c52fd12f31907bd0,,,,,,,,,,,,,,,,,,,,,,,a,1,2.6913,"[""0.171"",""0.493"",""0.594"",""0.893""]","[1,1,0,1]",0,18,18,18,1,0,0,,,0,FALSE,,,,,,,,,,,,,,,,,,,,,,,,,,,,,,,
,611955ed190e232468392a2f,627c74514c8ad494b268f9e1,2022-05-12_04h45.42.655,classification_task,2021.2.3,Win32,59.74072525,627c6715c52fd12f31907bd0,,,,,,,,,,,,,,,,,,,,,,,a,0,2.3167,"[""0.605"",""0.253"",""0.441"",""0.841""]","[0,1,1,1]",0,19,19,19,1,1,0,,,0,FALSE,,,,,,,,,,,,,,,,,,,,,,,,,,,,,,,
,611955ed190e232468392a2f,627c74514c8ad494b268f9e1,2022-05-12_04h45.42.655,classification_task,2021.2.3,Win32,59.74072525,627c6715c52fd12f31907bd0,,,,,,,,,,,,,,,,,,,,,,,l,1,2.1803,"[""0.092"",""0.598"",""0.441"",""0.841""]","[1,0,1,1]",0,20,20,20,1,1,0,,,0,FALSE,,,,,,,,,,,,,,,,,,,,,,,,,,,,,,,
,611955ed190e232468392a2f,627c74514c8ad494b268f9e1,2022-05-12_04h45.42.655,classification_task,2021.2.3,Win32,59.74072525,627c6715c52fd12f31907bd0,,,,,,,,,,,,,,,,,,,,,,,a,1,1.7443,"[""0.310"",""0.377"",""0.795"",""0.625""]","[1,1,1,0]",0,21,21,21,1,0,1,,,0,FALSE,,,,,,,,,,,,,,,,,,,,,,,,,,,,,,,
,611955ed190e232468392a2f,627c74514c8ad494b268f9e1,2022-05-12_04h45.42.655,classification_task,2021.2.3,Win32,59.74072525,627c6715c52fd12f31907bd0,,,,,,,,,,,,,,,,,,,,,,,a,1,1.8177,"[""0.310"",""0.604"",""0.795"",""0.947""]","[1,0,1,1]",0,22,22,22,1,0,1,,,0,FALSE,,,,,,,,,,,,,,,,,,,,,,,,,,,,,,,
,611955ed190e232468392a2f,627c74514c8ad494b268f9e1,2022-05-12_04h45.42.655,classification_task,2021.2.3,Win32,59.74072525,627c6715c52fd12f31907bd0,,,,,,,,,,,,,,,,,,,,,,,a,0,1.7435,"[""0.623"",""0.205"",""0.559"",""0.727""]","[0,1,1,1]",0,23,23,23,1,1,1,,,0,FALSE,,,,,,,,,,,,,,,,,,,,,,,,,,,,,,,
,611955ed190e232468392a2f,627c74514c8ad494b268f9e1,2022-05-12_04h45.42.655,classification_task,2021.2.3,Win32,59.74072525,627c6715c52fd12f31907bd0,,,,,,,,,,,,,,,,,,,,,,,l,1,3.1645,"[""0.092"",""0.253"",""0.441"",""0.624""]","[1,1,1,0]",0,24,24,24,1,1,0,,,0,FALSE,,,,,,,,,,,,,,,,,,,,,,,,,,,,,,,
,611955ed190e232468392a2f,627c74514c8ad494b268f9e1,2022-05-12_04h45.42.655,classification_task,2021.2.3,Win32,59.74072525,627c6715c52fd12f31907bd0,,,,,,,,,,,,,,,,,,,,,,,a,1,1.7774,"[""0.171"",""0.493"",""0.669"",""0.623""]","[1,1,1,0]",0,25,25,25,1,0,0,,,0,FALSE,,,,,,,,,,,,,,,,,,,,,,,,,,,,,,,
,611955ed190e232468392a2f,627c74514c8ad494b268f9e1,2022-05-12_04h45.42.655,classification_task,2021.2.3,Win32,59.74072525,627c6715c52fd12f31907bd0,,,,,,,,,,,,,,,,,,,,,,,a,1,3.1977,"[""0.595"",""0.493"",""0.669"",""0.893""]","[0,1,1,1]",0,26,26,26,1,0,0,,,0,FALSE,,,,,,,,,,,,,,,,,,,,,,,,,,,,,,,
,611955ed190e232468392a2f,627c74514c8ad494b268f9e1,2022-05-12_04h45.42.655,classification_task,2021.2.3,Win32,59.74072525,627c6715c52fd12f31907bd0,,,,,,,,,,,,,,,,,,,,,,,l,0,2.8906,"[""0.135"",""0.377"",""0.795"",""0.947""]","[0,1,1,1]",0,27,27,27,1,0,1,,,0,FALSE,,,,,,,,,,,,,,,,,,,,,,,,,,,,,,,
,611955ed190e232468392a2f,627c74514c8ad494b268f9e1,2022-05-12_04h45.42.655,classification_task,2021.2.3,Win32,59.74072525,627c6715c52fd12f31907bd0,,,,,,,,,,,,,,,,,,,,,,,l,1,1.0653,"[""0.039"",""0.205"",""0.559"",""0.601""]","[1,1,1,0]",0,28,28,28,1,1,1,,,0,FALSE,,,,,,,,,,,,,,,,,,,,,,,,,,,,,,,
,611955ed190e232468392a2f,627c74514c8ad494b268f9e1,2022-05-12_04h45.42.655,classification_task,2021.2.3,Win32,59.74072525,627c6715c52fd12f31907bd0,,,,,,,,,,,,,,,,,,,,,,,a,1,3.8658,"[""0.171"",""0.135"",""0.669"",""0.893""]","[1,0,1,1]",0,29,29,29,1,0,0,,,0,FALSE,,,,,,,,,,,,,,,,,,,,,,,,,,,,,,,
,611955ed190e232468392a2f,627c74514c8ad494b268f9e1,2022-05-12_04h45.42.655,classification_task,2021.2.3,Win32,59.74072525,627c6715c52fd12f31907bd0,,,,,,,,,,,,,,,,,,,,,,,l,1,4.581,"[""0.092"",""0.253"",""0.605"",""0.841""]","[1,1,0,1]",0,30,30,30,1,1,0,,,0,FALSE,,,,,,,,,,,,,,,,,,,,,,,,,,,,,,,
,611955ed190e232468392a2f,627c74514c8ad494b268f9e1,2022-05-12_04h45.42.655,classification_task,2021.2.3,Win32,59.74072525,627c6715c52fd12f31907bd0,,,,,,,,,,,,,,,,,,,,,,,a,1,1.6676,"[""0.310"",""0.377"",""0.624"",""0.947""]","[1,1,0,1]",0,31,31,31,1,0,1,,,0,FALSE,,,,,,,,,,,,,,,,,,,,,,,,,,,,,,,
,611955ed190e232468392a2f,627c74514c8ad494b268f9e1,2022-05-12_04h45.42.655,classification_task,2021.2.3,Win32,59.74072525,627c6715c52fd12f31907bd0,,,,,,,,,,,,,,,,,,,,,,,a,0,2.6973,"[""0.092"",""0.253"",""0.441"",""0.595""]","[1,1,1,0]",0,32,32,32,1,1,0,,,0,FALSE,,,,,,,,,,,,,,,,,,,,,,,,,,,,,,,
,611955ed190e232468392a2f,627c74514c8ad494b268f9e1,2022-05-12_04h45.42.655,classification_task,2021.2.3,Win32,59.74072525,627c6715c52fd12f31907bd0,,,,,,,,,,,,,,,,,,,,,,,a,1,2.0891,"[""0.171"",""0.493"",""0.604"",""0.893""]","[1,1,0,1]",0,33,33,33,1,0,0,,,0,FALSE,,,,,,,,,,,,,,,,,,,,,,,,,,,,,,,
,611955ed190e232468392a2f,627c74514c8ad494b268f9e1,2022-05-12_04h45.42.655,classification_task,2021.2.3,Win32,59.74072525,627c6715c52fd12f31907bd0,,,,,,,,,,,,,,,,,,,,,,,a,1,1.5674,"[""0.310"",""0.377"",""0.624"",""0.947""]","[1,1,0,1]",0,34,34,34,1,0,1,,,0,FALSE,,,,,,,,,,,,,,,,,,,,,,,,,,,,,,,
,611955ed190e232468392a2f,627c74514c8ad494b268f9e1,2022-05-12_04h45.42.655,classification_task,2021.2.3,Win32,59.74072525,627c6715c52fd12f31907bd0,,,,,,,,,,,,,,,,,,,,,,,a,0,3.3856,"[""0.135"",""0.205"",""0.559"",""0.727""]","[0,1,1,1]",0,35,35,35,1,1,1,,,0,FALSE,,,,,,,,,,,,,,,,,,,,,,,,,,,,,,,
,611955ed190e232468392a2f,627c74514c8ad494b268f9e1,2022-05-12_04h45.42.655,classification_task,2021.2.3,Win32,59.74072525,627c6715c52fd12f31907bd0,,,,,,,,,,,,,,,,,,,,,,,a,1,1.2651,"[""0.595"",""0.377"",""0.795"",""0.947""]","[0,1,1,1]",0,36,36,36,1,0,1,,,0,FALSE,,,,,,,,,,,,,,,,,,,,,,,,,,,,,,,
,611955ed190e232468392a2f,627c74514c8ad494b268f9e1,2022-05-12_04h45.42.655,classification_task,2021.2.3,Win32,59.74072525,627c6715c52fd12f31907bd0,,,,,,,,,,,,,,,,,,,,,,,a,1,1.4481,"[""0.625"",""0.493"",""0.669"",""0.893""]","[0,1,1,1]",0,37,37,37,1,0,0,,,0,FALSE,,,,,,,,,,,,,,,,,,,,,,,,,,,,,,,
,611955ed190e232468392a2f,627c74514c8ad494b268f9e1,2022-05-12_04h45.42.655,classification_task,2021.2.3,Win32,59.74072525,627c6715c52fd12f31907bd0,,,,,,,,,,,,,,,,,,,,,,,l,1,1.1286,"[""0.039"",""0.623"",""0.559"",""0.727""]","[1,0,1,1]",0,38,38,38,1,1,1,,,0,FALSE,,,,,,,,,,,,,,,,,,,,,,,,,,,,,,,
,611955ed190e232468392a2f,627c74514c8ad494b268f9e1,2022-05-12_04h45.42.655,classification_task,2021.2.3,Win32,59.74072525,627c6715c52fd12f31907bd0,,,,,,,,,,,,,,,,,,,,,,,a,0,2.0294,"[""0.134"",""0.253"",""0.441"",""0.841""]","[0,1,1,1]",0,39,39,39,1,1,0,,,0,FALSE,,,,,,,,,,,,,,,,,,,,,,,,,,,,,,,
,611955ed190e232468392a2f,627c74514c8ad494b268f9e1,2022-05-12_04h45.42.655,classification_task,2021.2.3,Win32,59.74072525,627c6715c52fd12f31907bd0,,,,,,,,,,,,,,,,,,,,,,,l,1,1.2806,"[""0.092"",""0.601"",""0.441"",""0.841""]","[1,0,1,1]",0,40,40,40,1,1,0,,,0,FALSE,,,,,,,,,,,,,,,,,,,,,,,,,,,,,,,
,611955ed190e232468392a2f,627c74514c8ad494b268f9e1,2022-05-12_04h45.42.655,classification_task,2021.2.3,Win32,59.74072525,627c6715c52fd12f31907bd0,,,,,,,,,,,,,,,,,,,,,,,l,1,1.1468,"[""0.039"",""0.205"",""0.559"",""0.598""]","[1,1,1,0]",0,41,41,41,1,1,1,,,0,FALSE,,,,,,,,,,,,,,,,,,,,,,,,,,,,,,,
,611955ed190e232468392a2f,627c74514c8ad494b268f9e1,2022-05-12_04h45.42.655,classification_task,2021.2.3,Win32,59.74072525,627c6715c52fd12f31907bd0,,,,,,,,,,,,,,,,,,,,,,,a,1,1.3208,"[""0.171"",""0.604"",""0.669"",""0.893""]","[1,0,1,1]",0,42,42,42,1,0,0,,,0,FALSE,,,,,,,,,,,,,,,,,,,,,,,,,,,,,,,
,611955ed190e232468392a2f,627c74514c8ad494b268f9e1,2022-05-12_04h45.42.655,classification_task,2021.2.3,Win32,59.74072525,627c6715c52fd12f31907bd0,,,,,,,,,,,,,,,,,,,,,,,a,1,0.8214,"[""0.171"",""0.493"",""0.669"",""0.598""]","[1,1,1,0]",0,43,43,43,1,0,0,,,0,FALSE,,,,,,,,,,,,,,,,,,,,,,,,,,,,,,,
,611955ed190e232468392a2f,627c74514c8ad494b268f9e1,2022-05-12_04h45.42.655,classification_task,2021.2.3,Win32,59.74072525,627c6715c52fd12f31907bd0,,,,,,,,,,,,,,,,,,,,,,,l,1,1.2609,"[""0.039"",""0.205"",""0.614"",""0.727""]","[1,1,0,1]",0,44,44,44,1,1,1,,,0,FALSE,,,,,,,,,,,,,,,,,,,,,,,,,,,,,,,
,611955ed190e232468392a2f,627c74514c8ad494b268f9e1,2022-05-12_04h45.42.655,classification_task,2021.2.3,Win32,59.74072525,627c6715c52fd12f31907bd0,,,,,,,,,,,,,,,,,,,,,,,a,1,1.078,"[""0.310"",""0.598"",""0.795"",""0.947""]","[1,0,1,1]",0,45,45,45,1,0,1,,,0,FALSE,,,,,,,,,,,,,,,,,,,,,,,,,,,,,,,
,611955ed190e232468392a2f,627c74514c8ad494b268f9e1,2022-05-12_04h45.42.655,classification_task,2021.2.3,Win32,59.74072525,627c6715c52fd12f31907bd0,,,,,,,,,,,,,,,,,,,,,,,a,1,1.1393,"[""0.310"",""0.377"",""0.795"",""0.598""]","[1,1,1,0]",0,46,46,46,1,0,1,,,0,FALSE,,,,,,,,,,,,,,,,,,,,,,,,,,,,,,,
,611955ed190e232468392a2f,627c74514c8ad494b268f9e1,2022-05-12_04h45.42.655,classification_task,2021.2.3,Win32,59.74072525,627c6715c52fd12f31907bd0,,,,,,,,,,,,,,,,,,,,,,,l,1,1.3151,"[""0.092"",""0.253"",""0.601"",""0.841""]","[1,1,0,1]",0,47,47,47,1,1,0,,,0,FALSE,,,,,,,,,,,,,,,,,,,,,,,,,,,,,,,
,611955ed190e232468392a2f,627c74514c8ad494b268f9e1,2022-05-12_04h45.42.655,classification_task,2021.2.3,Win32,59.74072525,627c6715c52fd12f31907bd0,,,,,,,,,,,,,,,,,,,,,,,l,1,0.9449,"[""0.039"",""0.205"",""0.559"",""0.598""]","[1,1,1,0]",0,48,48,48,1,1,1,,,0,FALSE,,,,,,,,,,,,,,,,,,,,,,,,,,,,,,,
,611955ed190e232468392a2f,627c74514c8ad494b268f9e1,2022-05-12_04h45.42.655,classification_task,2021.2.3,Win32,59.74072525,627c6715c52fd12f31907bd0,,,,,,,,,,,,,,,,,,,,,,,a,1,1.1884,"[""0.310"",""0.604"",""0.795"",""0.947""]","[1,0,1,1]",0,49,49,49,1,0,1,,,0,FALSE,,,,,,,,,,,,,,,,,,,,,,,,,,,,,,,
,611955ed190e232468392a2f,627c74514c8ad494b268f9e1,2022-05-12_04h45.42.655,classification_task,2021.2.3,Win32,59.74072525,627c6715c52fd12f31907bd0,,,,,,,,,,,,,,,,,,,,,,,a,1,0.7883,"[""0.310"",""0.377"",""0.625"",""0.947""]","[1,1,0,1]",0,50,50,50,1,0,1,,,0,FALSE,,,,,,,,,,,,,,,,,,,,,,,,,,,,,,,
,611955ed190e232468392a2f,627c74514c8ad494b268f9e1,2022-05-12_04h45.42.655,classification_task,2021.2.3,Win32,59.74072525,627c6715c52fd12f31907bd0,,,,,,,,,,,,,,,,,,,,,,,l,1,1.833,"[""0.039"",""0.205"",""0.598"",""0.727""]","[1,1,0,1]",0,51,51,51,1,1,1,,,0,FALSE,,,,,,,,,,,,,,,,,,,,,,,,,,,,,,,
,611955ed190e232468392a2f,627c74514c8ad494b268f9e1,2022-05-12_04h45.42.655,classification_task,2021.2.3,Win32,59.74072525,627c6715c52fd12f31907bd0,,,,,,,,,,,,,,,,,,,,,,,l,1,2.3537,"[""0.092"",""0.253"",""0.598"",""0.841""]","[1,1,0,1]",0,52,52,52,1,1,0,,,0,FALSE,,,,,,,,,,,,,,,,,,,,,,,,,,,,,,,
,611955ed190e232468392a2f,627c74514c8ad494b268f9e1,2022-05-12_04h45.42.655,classification_task,2021.2.3,Win32,59.74072525,627c6715c52fd12f31907bd0,,,,,,,,,,,,,,,,,,,,,,,l,0,2.6658,"[""0.171"",""0.493"",""0.669"",""0.134""]","[1,1,1,0]",0,53,53,53,1,0,0,,,0,FALSE,,,,,,,,,,,,,,,,,,,,,,,,,,,,,,,
,611955ed190e232468392a2f,627c74514c8ad494b268f9e1,2022-05-12_04h45.42.655,classification_task,2021.2.3,Win32,59.74072525,627c6715c52fd12f31907bd0,,,,,,,,,,,,,,,,,,,,,,,a,1,1.1562,"[""0.614"",""0.493"",""0.669"",""0.893""]","[0,1,1,1]",0,54,54,54,1,0,0,,,0,FALSE,,,,,,,,,,,,,,,,,,,,,,,,,,,,,,,
,611955ed190e232468392a2f,627c74514c8ad494b268f9e1,2022-05-12_04h45.42.655,classification_task,2021.2.3,Win32,59.74072525,627c6715c52fd12f31907bd0,,,,,,,,,,,,,,,,,,,,,,,l,1,2.2996,"[""0.092"",""0.253"",""0.441"",""0.623""]","[1,1,1,0]",0,55,55,55,1,1,0,,,0,FALSE,,,,,,,,,,,,,,,,,,,,,,,,,,,,,,,
,611955ed190e232468392a2f,627c74514c8ad494b268f9e1,2022-05-12_04h45.42.655,classification_task,2021.2.3,Win32,59.74072525,627c6715c52fd12f31907bd0,,,,,,,,,,,,,,,,,,,,,,,a,0,1.1517,"[""0.598"",""0.253"",""0.441"",""0.841""]","[0,1,1,1]",0,56,56,56,1,1,0,,,0,FALSE,,,,,,,,,,,,,,,,,,,,,,,,,,,,,,,
,611955ed190e232468392a2f,627c74514c8ad494b268f9e1,2022-05-12_04h45.42.655,classification_task,2021.2.3,Win32,59.74072525,627c6715c52fd12f31907bd0,,,,,,,,,,,,,,,,,,,,,,,a,0,2.0639,"[""0.596"",""0.205"",""0.559"",""0.727""]","[0,1,1,1]",0,57,57,57,1,1,1,,,0,FALSE,,,,,,,,,,,,,,,,,,,,,,,,,,,,,,,
,611955ed190e232468392a2f,627c74514c8ad494b268f9e1,2022-05-12_04h45.42.655,classification_task,2021.2.3,Win32,59.74072525,627c6715c52fd12f31907bd0,,,,,,,,,,,,,,,,,,,,,,,l,0,1.7772,"[""0.171"",""0.493"",""0.135"",""0.893""]","[1,1,0,1]",0,58,58,58,1,0,0,,,0,FALSE,,,,,,,,,,,,,,,,,,,,,,,,,,,,,,,
,611955ed190e232468392a2f,627c74514c8ad494b268f9e1,2022-05-12_04h45.42.655,classification_task,2021.2.3,Win32,59.74072525,627c6715c52fd12f31907bd0,,,,,,,,,,,,,,,,,,,,,,,a,1,1.4845,"[""0.594"",""0.377"",""0.795"",""0.947""]","[0,1,1,1]",0,59,59,59,1,0,1,,,0,FALSE,,,,,,,,,,,,,,,,,,,,,,,,,,,,,,,
,611955ed190e232468392a2f,627c74514c8ad494b268f9e1,2022-05-12_04h45.42.655,classification_task,2021.2.3,Win32,59.74072525,627c6715c52fd12f31907bd0,,,,,,,,,,,,,,,,,,,,,,,a,1,1.7153,"[""0.171"",""0.598"",""0.669"",""0.893""]","[1,0,1,1]",0,60,60,60,1,0,0,,,0,FALSE,,,,,,,,,,,,,,,,,,,,,,,,,,,,,,,
,611955ed190e232468392a2f,627c74514c8ad494b268f9e1,2022-05-12_04h45.42.655,classification_task,2021.2.3,Win32,59.74072525,627c6715c52fd12f31907bd0,,,,,,,,,,,,,,,,,,,,,,,a,1,1.1787,"[""0.310"",""0.377"",""0.795"",""0.605""]","[1,1,1,0]",0,61,61,61,1,0,1,,,0,FALSE,,,,,,,,,,,,,,,,,,,,,,,,,,,,,,,
,611955ed190e232468392a2f,627c74514c8ad494b268f9e1,2022-05-12_04h45.42.655,classification_task,2021.2.3,Win32,59.74072525,627c6715c52fd12f31907bd0,,,,,,,,,,,,,,,,,,,,,,,l,1,1.1658,"[""0.092"",""0.135"",""0.441"",""0.841""]","[1,0,1,1]",0,62,62,62,1,1,0,,,0,FALSE,,,,,,,,,,,,,,,,,,,,,,,,,,,,,,,
,611955ed190e232468392a2f,627c74514c8ad494b268f9e1,2022-05-12_04h45.42.655,classification_task,2021.2.3,Win32,59.74072525,627c6715c52fd12f31907bd0,,,,,,,,,,,,,,,,,,,,,,,l,1,0.9644,"[""0.039"",""0.135"",""0.559"",""0.727""]","[1,0,1,1]",0,63,63,63,1,1,1,,,0,FALSE,,,,,,,,,,,,,,,,,,,,,,,,,,,,,,,
,611955ed190e232468392a2f,627c74514c8ad494b268f9e1,2022-05-12_04h45.42.655,classification_task,2021.2.3,Win32,59.74072525,627c6715c52fd12f31907bd0,,,,,,,,,,,,,,,,,,,,,,,,,,,,,,,,,,,,,,,0, ,,0,,,0,0,0,0,1,2,1,,,,,,,,,,,,,,,,,,
,611955ed190e232468392a2f,627c74514c8ad494b268f9e1,2022-05-12_04h45.42.655,classification_task,2021.2.3,Win32,59.74072525,627c6715c52fd12f31907bd0,,,,,,,,,,,,,,,,,,,,,,,,,,,,,,,,,,,,,,,1,  ,,0,,,0,0,0,0,1,2,1,,,,,,,,,,,,,,,,,,
,611955ed190e232468392a2f,627c74514c8ad494b268f9e1,2022-05-12_04h45.42.655,classification_task,2021.2.3,Win32,59.74072525,627c6715c52fd12f31907bd0,,,,,,,,,,,,,,,,,,,,,,,,,,,,,,,,,,,,,,,2,  ,,0,,,0,0,0,0,1,2,1,,,,,,,,,,,,,,,,,,
,611955ed190e232468392a2f,627c74514c8ad494b268f9e1,2022-05-12_04h45.42.655,classification_task,2021.2.3,Win32,59.74072525,627c6715c52fd12f31907bd0,,,,,,,,,,,,,,,,,,,,,,,,,,,,,,,,,,,,,,,,,,,,,0,0,0,0,1,,1,,,,,,,,,,,,,,,,,,
,611955ed190e232468392a2f,627c74514c8ad494b268f9e1,2022-05-12_04h45.42.655,classification_task,2021.2.3,Win32,59.74072525,627c6715c52fd12f31907bd0,,,,,,,,,,,,,,,,,,,,,space,8.0394,a,1,2.6223,"[""0.171"",""0.614"",""0.669"",""0.893""]","[1,0,1,1]",0,0,0,0,1,0,0,,,0,FALSE,,,,,,,,,,,,,,,,,,,,,,,,,,,,,,,
,611955ed190e232468392a2f,627c74514c8ad494b268f9e1,2022-05-12_04h45.42.655,classification_task,2021.2.3,Win32,59.74072525,627c6715c52fd12f31907bd0,,,,,,,,,,,,,,,,,,,,,,,a,1,0.9561,"[""0.605"",""0.377"",""0.795"",""0.947""]","[0,1,1,1]",0,1,1,1,1,0,1,,,0,FALSE,,,,,,,,,,,,,,,,,,,,,,,,,,,,,,,
,611955ed190e232468392a2f,627c74514c8ad494b268f9e1,2022-05-12_04h45.42.655,classification_task,2021.2.3,Win32,59.74072525,627c6715c52fd12f31907bd0,,,,,,,,,,,,,,,,,,,,,,,a,1,0.8538,"[""0.310"",""0.377"",""0.795"",""0.625""]","[1,1,1,0]",0,2,2,2,1,0,1,,,0,FALSE,,,,,,,,,,,,,,,,,,,,,,,,,,,,,,,
,611955ed190e232468392a2f,627c74514c8ad494b268f9e1,2022-05-12_04h45.42.655,classification_task,2021.2.3,Win32,59.74072525,627c6715c52fd12f31907bd0,,,,,,,,,,,,,,,,,,,,,,,a,1,0.7657,"[""0.625"",""0.493"",""0.669"",""0.893""]","[0,1,1,1]",0,3,3,3,1,0,0,,,0,FALSE,,,,,,,,,,,,,,,,,,,,,,,,,,,,,,,
,611955ed190e232468392a2f,627c74514c8ad494b268f9e1,2022-05-12_04h45.42.655,classification_task,2021.2.3,Win32,59.74072525,627c6715c52fd12f31907bd0,,,,,,,,,,,,,,,,,,,,,,,l,1,1.5316,"[""0.092"",""0.253"",""0.441"",""0.605""]","[1,1,1,0]",0,4,4,4,1,1,0,,,0,FALSE,,,,,,,,,,,,,,,,,,,,,,,,,,,,,,,
,611955ed190e232468392a2f,627c74514c8ad494b268f9e1,2022-05-12_04h45.42.655,classification_task,2021.2.3,Win32,59.74072525,627c6715c52fd12f31907bd0,,,,,,,,,,,,,,,,,,,,,,,l,1,0.9971,"[""0.092"",""0.253"",""0.598"",""0.841""]","[1,1,0,1]",0,5,5,5,1,1,0,,,0,FALSE,,,,,,,,,,,,,,,,,,,,,,,,,,,,,,,
,611955ed190e232468392a2f,627c74514c8ad494b268f9e1,2022-05-12_04h45.42.655,classification_task,2021.2.3,Win32,59.74072525,627c6715c52fd12f31907bd0,,,,,,,,,,,,,,,,,,,,,,,a,1,0.9984,"[""0.171"",""0.493"",""0.669"",""0.601""]","[1,1,1,0]",0,6,6,6,1,0,0,,,0,FALSE,,,,,,,,,,,,,,,,,,,,,,,,,,,,,,,
,611955ed190e232468392a2f,627c74514c8ad494b268f9e1,2022-05-12_04h45.42.655,classification_task,2021.2.3,Win32,59.74072525,627c6715c52fd12f31907bd0,,,,,,,,,,,,,,,,,,,,,,,l,1,1.0641,"[""0.039"",""0.614"",""0.559"",""0.727""]","[1,0,1,1]",0,7,7,7,1,1,1,,,0,FALSE,,,,,,,,,,,,,,,,,,,,,,,,,,,,,,,
,611955ed190e232468392a2f,627c74514c8ad494b268f9e1,2022-05-12_04h45.42.655,classification_task,2021.2.3,Win32,59.74072525,627c6715c52fd12f31907bd0,,,,,,,,,,,,,,,,,,,,,,,l,0,0.649,"[""0.310"",""0.377"",""0.623"",""0.947""]","[1,1,0,1]",0,8,8,8,1,0,1,,,0,FALSE,,,,,,,,,,,,,,,,,,,,,,,,,,,,,,,
,611955ed190e232468392a2f,627c74514c8ad494b268f9e1,2022-05-12_04h45.42.655,classification_task,2021.2.3,Win32,59.74072525,627c6715c52fd12f31907bd0,,,,,,,,,,,,,,,,,,,,,,,l,1,0.8824,"[""0.039"",""0.205"",""0.135"",""0.727""]","[1,1,0,1]",0,9,9,9,1,1,1,,,0,FALSE,,,,,,,,,,,,,,,,,,,,,,,,,,,,,,,
,611955ed190e232468392a2f,627c74514c8ad494b268f9e1,2022-05-12_04h45.42.655,classification_task,2021.2.3,Win32,59.74072525,627c6715c52fd12f31907bd0,,,,,,,,,,,,,,,,,,,,,,,a,0,1.2318,"[""0.598"",""0.253"",""0.441"",""0.841""]","[0,1,1,1]",0,10,10,10,1,1,0,,,0,FALSE,,,,,,,,,,,,,,,,,,,,,,,,,,,,,,,
,611955ed190e232468392a2f,627c74514c8ad494b268f9e1,2022-05-12_04h45.42.655,classification_task,2021.2.3,Win32,59.74072525,627c6715c52fd12f31907bd0,,,,,,,,,,,,,,,,,,,,,,,a,1,1.1656,"[""0.310"",""0.604"",""0.795"",""0.947""]","[1,0,1,1]",0,11,11,11,1,0,1,,,0,FALSE,,,,,,,,,,,,,,,,,,,,,,,,,,,,,,,
,611955ed190e232468392a2f,627c74514c8ad494b268f9e1,2022-05-12_04h45.42.655,classification_task,2021.2.3,Win32,59.74072525,627c6715c52fd12f31907bd0,,,,,,,,,,,,,,,,,,,,,,,l,1,1.3644,"[""0.092"",""0.598"",""0.441"",""0.841""]","[1,0,1,1]",0,12,12,12,1,1,0,,,0,FALSE,,,,,,,,,,,,,,,,,,,,,,,,,,,,,,,
,611955ed190e232468392a2f,627c74514c8ad494b268f9e1,2022-05-12_04h45.42.655,classification_task,2021.2.3,Win32,59.74072525,627c6715c52fd12f31907bd0,,,,,,,,,,,,,,,,,,,,,,,l,1,0.8865,"[""0.039"",""0.205"",""0.559"",""0.598""]","[1,1,1,0]",0,13,13,13,1,1,1,,,0,FALSE,,,,,,,,,,,,,,,,,,,,,,,,,,,,,,,
,611955ed190e232468392a2f,627c74514c8ad494b268f9e1,2022-05-12_04h45.42.655,classification_task,2021.2.3,Win32,59.74072525,627c6715c52fd12f31907bd0,,,,,,,,,,,,,,,,,,,,,,,a,1,1.2757,"[""0.171"",""0.493"",""0.594"",""0.893""]","[1,1,0,1]",0,14,14,14,1,0,0,,,0,FALSE,,,,,,,,,,,,,,,,,,,,,,,,,,,,,,,
,611955ed190e232468392a2f,627c74514c8ad494b268f9e1,2022-05-12_04h45.42.655,classification_task,2021.2.3,Win32,59.74072525,627c6715c52fd12f31907bd0,,,,,,,,,,,,,,,,,,,,,,,a,0,0.8789,"[""0.624"",""0.205"",""0.559"",""0.727""]","[0,1,1,1]",0,15,15,15,1,1,1,,,0,FALSE,,,,,,,,,,,,,,,,,,,,,,,,,,,,,,,
,611955ed190e232468392a2f,627c74514c8ad494b268f9e1,2022-05-12_04h45.42.655,classification_task,2021.2.3,Win32,59.74072525,627c6715c52fd12f31907bd0,,,,,,,,,,,,,,,,,,,,,,,l,1,1.7271,"[""0.092"",""0.595"",""0.441"",""0.841""]","[1,0,1,1]",0,16,16,16,1,1,0,,,0,FALSE,,,,,,,,,,,,,,,,,,,,,,,,,,,,,,,
,611955ed190e232468392a2f,627c74514c8ad494b268f9e1,2022-05-12_04h45.42.655,classification_task,2021.2.3,Win32,59.74072525,627c6715c52fd12f31907bd0,,,,,,,,,,,,,,,,,,,,,,,l,0,3.1352,"[""0.171"",""0.493"",""0.134"",""0.893""]","[1,1,0,1]",0,17,17,17,1,0,0,,,0,FALSE,,,,,,,,,,,,,,,,,,,,,,,,,,,,,,,
,611955ed190e232468392a2f,627c74514c8ad494b268f9e1,2022-05-12_04h45.42.655,classification_task,2021.2.3,Win32,59.74072525,627c6715c52fd12f31907bd0,,,,,,,,,,,,,,,,,,,,,,,l,1,1.1544,"[""0.039"",""0.135"",""0.559"",""0.727""]","[1,0,1,1]",0,18,18,18,1,1,1,,,0,FALSE,,,,,,,,,,,,,,,,,,,,,,,,,,,,,,,
,611955ed190e232468392a2f,627c74514c8ad494b268f9e1,2022-05-12_04h45.42.655,classification_task,2021.2.3,Win32,59.74072525,627c6715c52fd12f31907bd0,,,,,,,,,,,,,,,,,,,,,,,a,1,2.8625,"[""0.310"",""0.605"",""0.795"",""0.947""]","[1,0,1,1]",0,19,19,19,1,0,1,,,0,FALSE,,,,,,,,,,,,,,,,,,,,,,,,,,,,,,,
,611955ed190e232468392a2f,627c74514c8ad494b268f9e1,2022-05-12_04h45.42.655,classification_task,2021.2.3,Win32,59.74072525,627c6715c52fd12f31907bd0,,,,,,,,,,,,,,,,,,,,,,,a,0,2.3142,"[""0.614"",""0.205"",""0.559"",""0.727""]","[0,1,1,1]",0,20,20,20,1,1,1,,,0,FALSE,,,,,,,,,,,,,,,,,,,,,,,,,,,,,,,
,611955ed190e232468392a2f,627c74514c8ad494b268f9e1,2022-05-12_04h45.42.655,classification_task,2021.2.3,Win32,59.74072525,627c6715c52fd12f31907bd0,,,,,,,,,,,,,,,,,,,,,,,a,1,1.5492,"[""0.171"",""0.493"",""0.669"",""0.623""]","[1,1,1,0]",0,21,21,21,1,0,0,,,0,FALSE,,,,,,,,,,,,,,,,,,,,,,,,,,,,,,,
,611955ed190e232468392a2f,627c74514c8ad494b268f9e1,2022-05-12_04h45.42.655,classification_task,2021.2.3,Win32,59.74072525,627c6715c52fd12f31907bd0,,,,,,,,,,,,,,,,,,,,,,,a,1,2.3792,"[""0.171"",""0.135"",""0.669"",""0.893""]","[1,0,1,1]",0,22,22,22,1,0,0,,,0,FALSE,,,,,,,,,,,,,,,,,,,,,,,,,,,,,,,
,611955ed190e232468392a2f,627c74514c8ad494b268f9e1,2022-05-12_04h45.42.655,classification_task,2021.2.3,Win32,59.74072525,627c6715c52fd12f31907bd0,,,,,,,,,,,,,,,,,,,,,,,a,0,1.1013,"[""0.604"",""0.253"",""0.441"",""0.841""]","[0,1,1,1]",0,23,23,23,1,1,0,,,0,FALSE,,,,,,,,,,,,,,,,,,,,,,,,,,,,,,,
,611955ed190e232468392a2f,627c74514c8ad494b268f9e1,2022-05-12_04h45.42.655,classification_task,2021.2.3,Win32,59.74072525,627c6715c52fd12f31907bd0,,,,,,,,,,,,,,,,,,,,,,,l,1,1.4152,"[""0.039"",""0.205"",""0.559"",""0.598""]","[1,1,1,0]",0,24,24,24,1,1,1,,,0,FALSE,,,,,,,,,,,,,,,,,,,,,,,,,,,,,,,
,611955ed190e232468392a2f,627c74514c8ad494b268f9e1,2022-05-12_04h45.42.655,classification_task,2021.2.3,Win32,59.74072525,627c6715c52fd12f31907bd0,,,,,,,,,,,,,,,,,,,,,,,l,0,0.9731,"[""0.623"",""0.493"",""0.669"",""0.893""]","[0,1,1,1]",0,25,25,25,1,0,0,,,0,FALSE,,,,,,,,,,,,,,,,,,,,,,,,,,,,,,,
,611955ed190e232468392a2f,627c74514c8ad494b268f9e1,2022-05-12_04h45.42.655,classification_task,2021.2.3,Win32,59.74072525,627c6715c52fd12f31907bd0,,,,,,,,,,,,,,,,,,,,,,,l,1,1.2286,"[""0.092"",""0.253"",""0.441"",""0.614""]","[1,1,1,0]",0,26,26,26,1,1,0,,,0,FALSE,,,,,,,,,,,,,,,,,,,,,,,,,,,,,,,
,611955ed190e232468392a2f,627c74514c8ad494b268f9e1,2022-05-12_04h45.42.655,classification_task,2021.2.3,Win32,59.74072525,627c6715c52fd12f31907bd0,,,,,,,,,,,,,,,,,,,,,,,a,1,1.7371,"[""0.310"",""0.377"",""0.795"",""0.595""]","[1,1,1,0]",0,27,27,27,1,0,1,,,0,FALSE,,,,,,,,,,,,,,,,,,,,,,,,,,,,,,,
,611955ed190e232468392a2f,627c74514c8ad494b268f9e1,2022-05-12_04h45.42.655,classification_task,2021.2.3,Win32,59.74072525,627c6715c52fd12f31907bd0,,,,,,,,,,,,,,,,,,,,,,,l,1,1.141,"[""0.039"",""0.205"",""0.623"",""0.727""]","[1,1,0,1]",0,28,28,28,1,1,1,,,0,FALSE,,,,,,,,,,,,,,,,,,,,,,,,,,,,,,,
,611955ed190e232468392a2f,627c74514c8ad494b268f9e1,2022-05-12_04h45.42.655,classification_task,2021.2.3,Win32,59.74072525,627c6715c52fd12f31907bd0,,,,,,,,,,,,,,,,,,,,,,,a,1,1.1785,"[""0.310"",""0.377"",""0.596"",""0.947""]","[1,1,0,1]",0,29,29,29,1,0,1,,,0,FALSE,,,,,,,,,,,,,,,,,,,,,,,,,,,,,,,
,611955ed190e232468392a2f,627c74514c8ad494b268f9e1,2022-05-12_04h45.42.655,classification_task,2021.2.3,Win32,59.74072525,627c6715c52fd12f31907bd0,,,,,,,,,,,,,,,,,,,,,,,a,1,1.0955,"[""0.623"",""0.377"",""0.795"",""0.947""]","[0,1,1,1]",0,30,30,30,1,0,1,,,0,FALSE,,,,,,,,,,,,,,,,,,,,,,,,,,,,,,,
,611955ed190e232468392a2f,627c74514c8ad494b268f9e1,2022-05-12_04h45.42.655,classification_task,2021.2.3,Win32,59.74072525,627c6715c52fd12f31907bd0,,,,,,,,,,,,,,,,,,,,,,,l,1,2.8608,"[""0.092"",""0.253"",""0.605"",""0.841""]","[1,1,0,1]",0,31,31,31,1,1,0,,,0,FALSE,,,,,,,,,,,,,,,,,,,,,,,,,,,,,,,
,611955ed190e232468392a2f,627c74514c8ad494b268f9e1,2022-05-12_04h45.42.655,classification_task,2021.2.3,Win32,59.74072525,627c6715c52fd12f31907bd0,,,,,,,,,,,,,,,,,,,,,,,a,1,1.1748,"[""0.310"",""0.377"",""0.795"",""0.594""]","[1,1,1,0]",0,32,32,32,1,0,1,,,0,FALSE,,,,,,,,,,,,,,,,,,,,,,,,,,,,,,,
,611955ed190e232468392a2f,627c74514c8ad494b268f9e1,2022-05-12_04h45.42.655,classification_task,2021.2.3,Win32,59.74072525,627c6715c52fd12f31907bd0,,,,,,,,,,,,,,,,,,,,,,,a,0,1.394,"[""0.623"",""0.205"",""0.559"",""0.727""]","[0,1,1,1]",0,33,33,33,1,1,1,,,0,FALSE,,,,,,,,,,,,,,,,,,,,,,,,,,,,,,,
,611955ed190e232468392a2f,627c74514c8ad494b268f9e1,2022-05-12_04h45.42.655,classification_task,2021.2.3,Win32,59.74072525,627c6715c52fd12f31907bd0,,,,,,,,,,,,,,,,,,,,,,,l,1,1.3617,"[""0.039"",""0.205"",""0.559"",""0.623""]","[1,1,1,0]",0,34,34,34,1,1,1,,,0,FALSE,,,,,,,,,,,,,,,,,,,,,,,,,,,,,,,
,611955ed190e232468392a2f,627c74514c8ad494b268f9e1,2022-05-12_04h45.42.655,classification_task,2021.2.3,Win32,59.74072525,627c6715c52fd12f31907bd0,,,,,,,,,,,,,,,,,,,,,,,a,1,1.0571,"[""0.623"",""0.377"",""0.795"",""0.947""]","[0,1,1,1]",0,35,35,35,1,0,1,,,0,FALSE,,,,,,,,,,,,,,,,,,,,,,,,,,,,,,,
,611955ed190e232468392a2f,627c74514c8ad494b268f9e1,2022-05-12_04h45.42.655,classification_task,2021.2.3,Win32,59.74072525,627c6715c52fd12f31907bd0,,,,,,,,,,,,,,,,,,,,,,,a,1,1.1278,"[""0.310"",""0.377"",""0.624"",""0.947""]","[1,1,0,1]",0,36,36,36,1,0,1,,,0,FALSE,,,,,,,,,,,,,,,,,,,,,,,,,,,,,,,
,611955ed190e232468392a2f,627c74514c8ad494b268f9e1,2022-05-12_04h45.42.655,classification_task,2021.2.3,Win32,59.74072525,627c6715c52fd12f31907bd0,,,,,,,,,,,,,,,,,,,,,,,a,1,1.857,"[""0.171"",""0.493"",""0.623"",""0.893""]","[1,1,0,1]",0,37,37,37,1,0,0,,,0,FALSE,,,,,,,,,,,,,,,,,,,,,,,,,,,,,,,
,611955ed190e232468392a2f,627c74514c8ad494b268f9e1,2022-05-12_04h45.42.655,classification_task,2021.2.3,Win32,59.74072525,627c6715c52fd12f31907bd0,,,,,,,,,,,,,,,,,,,,,,,l,1,1.328,"[""0.092"",""0.253"",""0.601"",""0.841""]","[1,1,0,1]",0,38,38,38,1,1,0,,,0,FALSE,,,,,,,,,,,,,,,,,,,,,,,,,,,,,,,
,611955ed190e232468392a2f,627c74514c8ad494b268f9e1,2022-05-12_04h45.42.655,classification_task,2021.2.3,Win32,59.74072525,627c6715c52fd12f31907bd0,,,,,,,,,,,,,,,,,,,,,,,a,1,1.5784,"[""0.310"",""0.624"",""0.795"",""0.947""]","[1,0,1,1]",0,39,39,39,1,0,1,,,0,FALSE,,,,,,,,,,,,,,,,,,,,,,,,,,,,,,,
,611955ed190e232468392a2f,627c74514c8ad494b268f9e1,2022-05-12_04h45.42.655,classification_task,2021.2.3,Win32,59.74072525,627c6715c52fd12f31907bd0,,,,,,,,,,,,,,,,,,,,,,,l,1,1.2284,"[""0.092"",""0.623"",""0.441"",""0.841""]","[1,0,1,1]",0,40,40,40,1,1,0,,,0,FALSE,,,,,,,,,,,,,,,,,,,,,,,,,,,,,,,
,611955ed190e232468392a2f,627c74514c8ad494b268f9e1,2022-05-12_04h45.42.655,classification_task,2021.2.3,Win32,59.74072525,627c6715c52fd12f31907bd0,,,,,,,,,,,,,,,,,,,,,,,l,1,1.0198,"[""0.039"",""0.625"",""0.559"",""0.727""]","[1,0,1,1]",0,41,41,41,1,1,1,,,0,FALSE,,,,,,,,,,,,,,,,,,,,,,,,,,,,,,,
,611955ed190e232468392a2f,627c74514c8ad494b268f9e1,2022-05-12_04h45.42.655,classification_task,2021.2.3,Win32,59.74072525,627c6715c52fd12f31907bd0,,,,,,,,,,,,,,,,,,,,,,,a,1,1.5055,"[""0.171"",""0.493"",""0.669"",""0.601""]","[1,1,1,0]",0,42,42,42,1,0,0,,,0,FALSE,,,,,,,,,,,,,,,,,,,,,,,,,,,,,,,
,611955ed190e232468392a2f,627c74514c8ad494b268f9e1,2022-05-12_04h45.42.655,classification_task,2021.2.3,Win32,59.74072525,627c6715c52fd12f31907bd0,,,,,,,,,,,,,,,,,,,,,,,l,1,1.4798,"[""0.092"",""0.253"",""0.441"",""0.623""]","[1,1,1,0]",0,43,43,43,1,1,0,,,0,FALSE,,,,,,,,,,,,,,,,,,,,,,,,,,,,,,,
,611955ed190e232468392a2f,627c74514c8ad494b268f9e1,2022-05-12_04h45.42.655,classification_task,2021.2.3,Win32,59.74072525,627c6715c52fd12f31907bd0,,,,,,,,,,,,,,,,,,,,,,,l,0,2.6308,"[""0.623"",""0.493"",""0.669"",""0.893""]","[0,1,1,1]",0,44,44,44,1,0,0,,,0,FALSE,,,,,,,,,,,,,,,,,,,,,,,,,,,,,,,
,611955ed190e232468392a2f,627c74514c8ad494b268f9e1,2022-05-12_04h45.42.655,classification_task,2021.2.3,Win32,59.74072525,627c6715c52fd12f31907bd0,,,,,,,,,,,,,,,,,,,,,,,l,1,2.9816,"[""0.039"",""0.205"",""0.601"",""0.727""]","[1,1,0,1]",0,45,45,45,1,1,1,,,0,FALSE,,,,,,,,,,,,,,,,,,,,,,,,,,,,,,,
,611955ed190e232468392a2f,627c74514c8ad494b268f9e1,2022-05-12_04h45.42.655,classification_task,2021.2.3,Win32,59.74072525,627c6715c52fd12f31907bd0,,,,,,,,,,,,,,,,,,,,,,,a,1,2.2288,"[""0.171"",""0.625"",""0.669"",""0.893""]","[1,0,1,1]",0,46,46,46,1,0,0,,,0,FALSE,,,,,,,,,,,,,,,,,,,,,,,,,,,,,,,
,611955ed190e232468392a2f,627c74514c8ad494b268f9e1,2022-05-12_04h45.42.655,classification_task,2021.2.3,Win32,59.74072525,627c6715c52fd12f31907bd0,,,,,,,,,,,,,,,,,,,,,,,a,0,2.1439,"[""0.625"",""0.253"",""0.441"",""0.841""]","[0,1,1,1]",0,47,47,47,1,1,0,,,0,FALSE,,,,,,,,,,,,,,,,,,,,,,,,,,,,,,,
,611955ed190e232468392a2f,627c74514c8ad494b268f9e1,2022-05-12_04h45.42.655,classification_task,2021.2.3,Win32,59.74072525,627c6715c52fd12f31907bd0,,,,,,,,,,,,,,,,,,,,,,,a,1,3.277,"[""0.135"",""0.377"",""0.795"",""0.947""]","[0,1,1,1]",0,48,48,48,1,0,1,,,0,FALSE,,,,,,,,,,,,,,,,,,,,,,,,,,,,,,,
,611955ed190e232468392a2f,627c74514c8ad494b268f9e1,2022-05-12_04h45.42.655,classification_task,2021.2.3,Win32,59.74072525,627c6715c52fd12f31907bd0,,,,,,,,,,,,,,,,,,,,,,,l,1,3.0108,"[""0.092"",""0.253"",""0.135"",""0.841""]","[1,1,0,1]",0,49,49,49,1,1,0,,,0,FALSE,,,,,,,,,,,,,,,,,,,,,,,,,,,,,,,
,611955ed190e232468392a2f,627c74514c8ad494b268f9e1,2022-05-12_04h45.42.655,classification_task,2021.2.3,Win32,59.74072525,627c6715c52fd12f31907bd0,,,,,,,,,,,,,,,,,,,,,,,a,1,1.3136,"[""0.171"",""0.601"",""0.669"",""0.893""]","[1,0,1,1]",0,50,50,50,1,0,0,,,0,FALSE,,,,,,,,,,,,,,,,,,,,,,,,,,,,,,,
,611955ed190e232468392a2f,627c74514c8ad494b268f9e1,2022-05-12_04h45.42.655,classification_task,2021.2.3,Win32,59.74072525,627c6715c52fd12f31907bd0,,,,,,,,,,,,,,,,,,,,,,,a,0,1.181,"[""0.623"",""0.205"",""0.559"",""0.727""]","[0,1,1,1]",0,51,51,51,1,1,1,,,0,FALSE,,,,,,,,,,,,,,,,,,,,,,,,,,,,,,,
,611955ed190e232468392a2f,627c74514c8ad494b268f9e1,2022-05-12_04h45.42.655,classification_task,2021.2.3,Win32,59.74072525,627c6715c52fd12f31907bd0,,,,,,,,,,,,,,,,,,,,,,,l,1,1.1145,"[""0.039"",""0.205"",""0.559"",""0.598""]","[1,1,1,0]",0,52,52,52,1,1,1,,,0,FALSE,,,,,,,,,,,,,,,,,,,,,,,,,,,,,,,
,611955ed190e232468392a2f,627c74514c8ad494b268f9e1,2022-05-12_04h45.42.655,classification_task,2021.2.3,Win32,59.74072525,627c6715c52fd12f31907bd0,,,,,,,,,,,,,,,,,,,,,,,l,1,1.3319,"[""0.092"",""0.135"",""0.441"",""0.841""]","[1,0,1,1]",0,53,53,53,1,1,0,,,0,FALSE,,,,,,,,,,,,,,,,,,,,,,,,,,,,,,,
,611955ed190e232468392a2f,627c74514c8ad494b268f9e1,2022-05-12_04h45.42.655,classification_task,2021.2.3,Win32,59.74072525,627c6715c52fd12f31907bd0,,,,,,,,,,,,,,,,,,,,,,,a,0,1.0778,"[""0.595"",""0.253"",""0.441"",""0.841""]","[0,1,1,1]",0,54,54,54,1,1,0,,,0,FALSE,,,,,,,,,,,,,,,,,,,,,,,,,,,,,,,
,611955ed190e232468392a2f,627c74514c8ad494b268f9e1,2022-05-12_04h45.42.655,classification_task,2021.2.3,Win32,59.74072525,627c6715c52fd12f31907bd0,,,,,,,,,,,,,,,,,,,,,,,a,1,1.0567,"[""0.171"",""0.493"",""0.624"",""0.893""]","[1,1,0,1]",0,55,55,55,1,0,0,,,0,FALSE,,,,,,,,,,,,,,,,,,,,,,,,,,,,,,,
,611955ed190e232468392a2f,627c74514c8ad494b268f9e1,2022-05-12_04h45.42.655,classification_task,2021.2.3,Win32,59.74072525,627c6715c52fd12f31907bd0,,,,,,,,,,,,,,,,,,,,,,,a,1,2.0281,"[""0.623"",""0.493"",""0.669"",""0.893""]","[0,1,1,1]",0,56,56,56,1,0,0,,,0,FALSE,,,,,,,,,,,,,,,,,,,,,,,,,,,,,,,
,611955ed190e232468392a2f,627c74514c8ad494b268f9e1,2022-05-12_04h45.42.655,classification_task,2021.2.3,Win32,59.74072525,627c6715c52fd12f31907bd0,,,,,,,,,,,,,,,,,,,,,,,l,1,1.1161,"[""0.039"",""0.623"",""0.559"",""0.727""]","[1,0,1,1]",0,57,57,57,1,1,1,,,0,FALSE,,,,,,,,,,,,,,,,,,,,,,,,,,,,,,,
,611955ed190e232468392a2f,627c74514c8ad494b268f9e1,2022-05-12_04h45.42.655,classification_task,2021.2.3,Win32,59.74072525,627c6715c52fd12f31907bd0,,,,,,,,,,,,,,,,,,,,,,,a,1,1.0653,"[""0.310"",""0.377"",""0.595"",""0.947""]","[1,1,0,1]",0,58,58,58,1,0,1,,,0,FALSE,,,,,,,,,,,,,,,,,,,,,,,,,,,,,,,
,611955ed190e232468392a2f,627c74514c8ad494b268f9e1,2022-05-12_04h45.42.655,classification_task,2021.2.3,Win32,59.74072525,627c6715c52fd12f31907bd0,,,,,,,,,,,,,,,,,,,,,,,a,1,0.902,"[""0.310"",""0.377"",""0.795"",""0.605""]","[1,1,1,0]",0,59,59,59,1,0,1,,,0,FALSE,,,,,,,,,,,,,,,,,,,,,,,,,,,,,,,
,611955ed190e232468392a2f,627c74514c8ad494b268f9e1,2022-05-12_04h45.42.655,classification_task,2021.2.3,Win32,59.74072525,627c6715c52fd12f31907bd0,,,,,,,,,,,,,,,,,,,,,,,l,1,1.2483,"[""0.092"",""0.253"",""0.441"",""0.624""]","[1,1,1,0]",0,60,60,60,1,1,0,,,0,FALSE,,,,,,,,,,,,,,,,,,,,,,,,,,,,,,,
,611955ed190e232468392a2f,627c74514c8ad494b268f9e1,2022-05-12_04h45.42.655,classification_task,2021.2.3,Win32,59.74072525,627c6715c52fd12f31907bd0,,,,,,,,,,,,,,,,,,,,,,,a,1,1.1478,"[""0.171"",""0.493"",""0.669"",""0.601""]","[1,1,1,0]",0,61,61,61,1,0,0,,,0,FALSE,,,,,,,,,,,,,,,,,,,,,,,,,,,,,,,
,611955ed190e232468392a2f,627c74514c8ad494b268f9e1,2022-05-12_04h45.42.655,classification_task,2021.2.3,Win32,59.74072525,627c6715c52fd12f31907bd0,,,,,,,,,,,,,,,,,,,,,,,l,1,1.0979,"[""0.039"",""0.205"",""0.598"",""0.727""]","[1,1,0,1]",0,62,62,62,1,1,1,,,0,FALSE,,,,,,,,,,,,,,,,,,,,,,,,,,,,,,,
,611955ed190e232468392a2f,627c74514c8ad494b268f9e1,2022-05-12_04h45.42.655,classification_task,2021.2.3,Win32,59.74072525,627c6715c52fd12f31907bd0,,,,,,,,,,,,,,,,,,,,,,,a,1,1.0806,"[""0.310"",""0.605"",""0.795"",""0.947""]","[1,0,1,1]",0,63,63,63,1,0,1,,,0,FALSE,,,,,,,,,,,,,,,,,,,,,,,,,,,,,,,
,611955ed190e232468392a2f,627c74514c8ad494b268f9e1,2022-05-12_04h45.42.655,classification_task,2021.2.3,Win32,59.74072525,627c6715c52fd12f31907bd0,,,,,,,,,,,,,,,,,,,,,,,,,,,,,,,,,,,,,,,0, ,,0,3.067212679,207.9755,0,1,1,1,1,2,2,,,,,,,,,,,,,,,,,,
,611955ed190e232468392a2f,627c74514c8ad494b268f9e1,2022-05-12_04h45.42.655,classification_task,2021.2.3,Win32,59.74072525,627c6715c52fd12f31907bd0,,,,,,,,,,,,,,,,,,,,,,,,,,,,,,,,,,,,,,,1,  ,,0,6.811988113,189.5158,0,1,1,1,1,2,2,,,,,,,,,,,,,,,,,,
,611955ed190e232468392a2f,627c74514c8ad494b268f9e1,2022-05-12_04h45.42.655,classification_task,2021.2.3,Win32,59.74072525,627c6715c52fd12f31907bd0,,,,,,,,,,,,,,,,,,,,,,,,,,,,,,,,,,,,,,,2,  ,,0,1.174691761,206.632,0,1,1,1,1,2,2,,,,,,,,,,,,,,,,,,
,611955ed190e232468392a2f,627c74514c8ad494b268f9e1,2022-05-12_04h45.42.655,classification_task,2021.2.3,Win32,59.74072525,627c6715c52fd12f31907bd0,,,,,,,,,,,,,,,,,,,,,,,,,,,,,,,,,,,,,,,,,,,,,0,1,1,1,1,,2,,,,,,,,,,,,,,,,,,
,611955ed190e232468392a2f,627c74514c8ad494b268f9e1,2022-05-12_04h45.42.655,classification_task,2021.2.3,Win32,59.74072525,627c6715c52fd12f31907bd0,,,,,,,,,,,,,,,,,,,,,space,5.8808,l,1,1.6822,"[""0.092"",""0.614"",""0.441"",""0.841""]","[1,0,1,1]",0,0,0,0,1,1,0,,,0,FALSE,,,,,,,,,,,,,,,,,,,,,,,,,,,,,,,
,611955ed190e232468392a2f,627c74514c8ad494b268f9e1,2022-05-12_04h45.42.655,classification_task,2021.2.3,Win32,59.74072525,627c6715c52fd12f31907bd0,,,,,,,,,,,,,,,,,,,,,,,a,1,2.7072,"[""0.310"",""0.377"",""0.795"",""0.623""]","[1,1,1,0]",0,1,1,1,1,0,1,,,0,FALSE,,,,,,,,,,,,,,,,,,,,,,,,,,,,,,,
,611955ed190e232468392a2f,627c74514c8ad494b268f9e1,2022-05-12_04h45.42.655,classification_task,2021.2.3,Win32,59.74072525,627c6715c52fd12f31907bd0,,,,,,,,,,,,,,,,,,,,,,,a,1,1.7785,"[""0.171"",""0.623"",""0.669"",""0.893""]","[1,0,1,1]",0,2,2,2,1,0,0,,,0,FALSE,,,,,,,,,,,,,,,,,,,,,,,,,,,,,,,
,611955ed190e232468392a2f,627c74514c8ad494b268f9e1,2022-05-12_04h45.42.655,classification_task,2021.2.3,Win32,59.74072525,627c6715c52fd12f31907bd0,,,,,,,,,,,,,,,,,,,,,,,l,1,1.0956,"[""0.039"",""0.614"",""0.559"",""0.727""]","[1,0,1,1]",0,3,3,3,1,1,1,,,0,FALSE,,,,,,,,,,,,,,,,,,,,,,,,,,,,,,,
,611955ed190e232468392a2f,627c74514c8ad494b268f9e1,2022-05-12_04h45.42.655,classification_task,2021.2.3,Win32,59.74072525,627c6715c52fd12f31907bd0,,,,,,,,,,,,,,,,,,,,,,,a,0,3.161,"[""0.625"",""0.253"",""0.441"",""0.841""]","[0,1,1,1]",0,4,4,4,1,1,0,,,0,FALSE,,,,,,,,,,,,,,,,,,,,,,,,,,,,,,,
,611955ed190e232468392a2f,627c74514c8ad494b268f9e1,2022-05-12_04h45.42.655,classification_task,2021.2.3,Win32,59.74072525,627c6715c52fd12f31907bd0,,,,,,,,,,,,,,,,,,,,,,,a,1,1.8271,"[""0.310"",""0.377"",""0.601"",""0.947""]","[1,1,0,1]",0,5,5,5,1,0,1,,,0,FALSE,,,,,,,,,,,,,,,,,,,,,,,,,,,,,,,
,611955ed190e232468392a2f,627c74514c8ad494b268f9e1,2022-05-12_04h45.42.655,classification_task,2021.2.3,Win32,59.74072525,627c6715c52fd12f31907bd0,,,,,,,,,,,,,,,,,,,,,,,a,1,1.1754,"[""0.171"",""0.493"",""0.669"",""0.598""]","[1,1,1,0]",0,6,6,6,1,0,0,,,0,FALSE,,,,,,,,,,,,,,,,,,,,,,,,,,,,,,,
,611955ed190e232468392a2f,627c74514c8ad494b268f9e1,2022-05-12_04h45.42.655,classification_task,2021.2.3,Win32,59.74072525,627c6715c52fd12f31907bd0,,,,,,,,,,,,,,,,,,,,,,,l,1,1.0953,"[""0.092"",""0.253"",""0.624"",""0.841""]","[1,1,0,1]",0,7,7,7,1,1,0,,,0,FALSE,,,,,,,,,,,,,,,,,,,,,,,,,,,,,,,
,611955ed190e232468392a2f,627c74514c8ad494b268f9e1,2022-05-12_04h45.42.655,classification_task,2021.2.3,Win32,59.74072525,627c6715c52fd12f31907bd0,,,,,,,,,,,,,,,,,,,,,,,a,1,1.4666,"[""0.598"",""0.493"",""0.669"",""0.893""]","[0,1,1,1]",0,8,8,8,1,0,0,,,0,FALSE,,,,,,,,,,,,,,,,,,,,,,,,,,,,,,,
,611955ed190e232468392a2f,627c74514c8ad494b268f9e1,2022-05-12_04h45.42.655,classification_task,2021.2.3,Win32,59.74072525,627c6715c52fd12f31907bd0,,,,,,,,,,,,,,,,,,,,,,,a,1,1.7465,"[""0.171"",""0.493"",""0.598"",""0.893""]","[1,1,0,1]",0,9,9,9,1,0,0,,,0,FALSE,,,,,,,,,,,,,,,,,,,,,,,,,,,,,,,
,611955ed190e232468392a2f,627c74514c8ad494b268f9e1,2022-05-12_04h45.42.655,classification_task,2021.2.3,Win32,59.74072525,627c6715c52fd12f31907bd0,,,,,,,,,,,,,,,,,,,,,,,l,1,0.9598,"[""0.092"",""0.253"",""0.441"",""0.624""]","[1,1,1,0]",0,10,10,10,1,1,0,,,0,FALSE,,,,,,,,,,,,,,,,,,,,,,,,,,,,,,,
,611955ed190e232468392a2f,627c74514c8ad494b268f9e1,2022-05-12_04h45.42.655,classification_task,2021.2.3,Win32,59.74072525,627c6715c52fd12f31907bd0,,,,,,,,,,,,,,,,,,,,,,,a,0,1.3778,"[""0.595"",""0.205"",""0.559"",""0.727""]","[0,1,1,1]",0,11,11,11,1,1,1,,,0,FALSE,,,,,,,,,,,,,,,,,,,,,,,,,,,,,,,
,611955ed190e232468392a2f,627c74514c8ad494b268f9e1,2022-05-12_04h45.42.655,classification_task,2021.2.3,Win32,59.74072525,627c6715c52fd12f31907bd0,,,,,,,,,,,,,,,,,,,,,,,l,1,1.2289,"[""0.039"",""0.205"",""0.135"",""0.727""]","[1,1,0,1]",0,12,12,12,1,1,1,,,0,FALSE,,,,,,,,,,,,,,,,,,,,,,,,,,,,,,,
,611955ed190e232468392a2f,627c74514c8ad494b268f9e1,2022-05-12_04h45.42.655,classification_task,2021.2.3,Win32,59.74072525,627c6715c52fd12f31907bd0,,,,,,,,,,,,,,,,,,,,,,,a,1,1.2124,"[""0.310"",""0.625"",""0.795"",""0.947""]","[1,0,1,1]",0,13,13,13,1,0,1,,,0,FALSE,,,,,,,,,,,,,,,,,,,,,,,,,,,,,,,
,611955ed190e232468392a2f,627c74514c8ad494b268f9e1,2022-05-12_04h45.42.655,classification_task,2021.2.3,Win32,59.74072525,627c6715c52fd12f31907bd0,,,,,,,,,,,,,,,,,,,,,,,l,0,4.661,"[""0.134"",""0.377"",""0.795"",""0.947""]","[0,1,1,1]",0,14,14,14,1,0,1,,,0,FALSE,,,,,,,,,,,,,,,,,,,,,,,,,,,,,,,
,611955ed190e232468392a2f,627c74514c8ad494b268f9e1,2022-05-12_04h45.42.655,classification_task,2021.2.3,Win32,59.74072525,627c6715c52fd12f31907bd0,,,,,,,,,,,,,,,,,,,,,,,l,1,1.0785,"[""0.039"",""0.205"",""0.559"",""0.598""]","[1,1,1,0]",0,15,15,15,1,1,1,,,0,FALSE,,,,,,,,,,,,,,,,,,,,,,,,,,,,,,,
,611955ed190e232468392a2f,627c74514c8ad494b268f9e1,2022-05-12_04h45.42.655,classification_task,2021.2.3,Win32,59.74072525,627c6715c52fd12f31907bd0,,,,,,,,,,,,,,,,,,,,,,,a,1,1.0302,"[""0.310"",""0.623"",""0.795"",""0.947""]","[1,0,1,1]",0,16,16,16,1,0,1,,,0,FALSE,,,,,,,,,,,,,,,,,,,,,,,,,,,,,,,
,611955ed190e232468392a2f,627c74514c8ad494b268f9e1,2022-05-12_04h45.42.655,classification_task,2021.2.3,Win32,59.74072525,627c6715c52fd12f31907bd0,,,,,,,,,,,,,,,,,,,,,,,l,1,1.3284,"[""0.092"",""0.253"",""0.441"",""0.624""]","[1,1,1,0]",0,17,17,17,1,1,0,,,0,FALSE,,,,,,,,,,,,,,,,,,,,,,,,,,,,,,,
,611955ed190e232468392a2f,627c74514c8ad494b268f9e1,2022-05-12_04h45.42.655,classification_task,2021.2.3,Win32,59.74072525,627c6715c52fd12f31907bd0,,,,,,,,,,,,,,,,,,,,,,,l,1,1.0997,"[""0.039"",""0.598"",""0.559"",""0.727""]","[1,0,1,1]",0,18,18,18,1,1,1,,,0,FALSE,,,,,,,,,,,,,,,,,,,,,,,,,,,,,,,
,611955ed190e232468392a2f,627c74514c8ad494b268f9e1,2022-05-12_04h45.42.655,classification_task,2021.2.3,Win32,59.74072525,627c6715c52fd12f31907bd0,,,,,,,,,,,,,,,,,,,,,,,a,1,0.9415,"[""0.310"",""0.377"",""0.795"",""0.596""]","[1,1,1,0]",0,19,19,19,1,0,1,,,0,FALSE,,,,,,,,,,,,,,,,,,,,,,,,,,,,,,,
,611955ed190e232468392a2f,627c74514c8ad494b268f9e1,2022-05-12_04h45.42.655,classification_task,2021.2.3,Win32,59.74072525,627c6715c52fd12f31907bd0,,,,,,,,,,,,,,,,,,,,,,,a,1,1.2443,"[""0.171"",""0.493"",""0.605"",""0.893""]","[1,1,0,1]",0,20,20,20,1,0,0,,,0,FALSE,,,,,,,,,,,,,,,,,,,,,,,,,,,,,,,
,611955ed190e232468392a2f,627c74514c8ad494b268f9e1,2022-05-12_04h45.42.655,classification_task,2021.2.3,Win32,59.74072525,627c6715c52fd12f31907bd0,,,,,,,,,,,,,,,,,,,,,,,l,0,3.8949,"[""0.310"",""0.377"",""0.135"",""0.947""]","[1,1,0,1]",0,21,21,21,1,0,1,,,0,FALSE,,,,,,,,,,,,,,,,,,,,,,,,,,,,,,,
,611955ed190e232468392a2f,627c74514c8ad494b268f9e1,2022-05-12_04h45.42.655,classification_task,2021.2.3,Win32,59.74072525,627c6715c52fd12f31907bd0,,,,,,,,,,,,,,,,,,,,,,,a,1,1.2669,"[""0.171"",""0.605"",""0.669"",""0.893""]","[1,0,1,1]",0,22,22,22,1,0,0,,,0,FALSE,,,,,,,,,,,,,,,,,,,,,,,,,,,,,,,
,611955ed190e232468392a2f,627c74514c8ad494b268f9e1,2022-05-12_04h45.42.655,classification_task,2021.2.3,Win32,59.74072525,627c6715c52fd12f31907bd0,,,,,,,,,,,,,,,,,,,,,,,l,1,1.3623,"[""0.092"",""0.253"",""0.625"",""0.841""]","[1,1,0,1]",0,23,23,23,1,1,0,,,0,FALSE,,,,,,,,,,,,,,,,,,,,,,,,,,,,,,,
,611955ed190e232468392a2f,627c74514c8ad494b268f9e1,2022-05-12_04h45.42.655,classification_task,2021.2.3,Win32,59.74072525,627c6715c52fd12f31907bd0,,,,,,,,,,,,,,,,,,,,,,,a,1,1.0075,"[""0.594"",""0.377"",""0.795"",""0.947""]","[0,1,1,1]",0,24,24,24,1,0,1,,,0,FALSE,,,,,,,,,,,,,,,,,,,,,,,,,,,,,,,
,611955ed190e232468392a2f,627c74514c8ad494b268f9e1,2022-05-12_04h45.42.655,classification_task,2021.2.3,Win32,59.74072525,627c6715c52fd12f31907bd0,,,,,,,,,,,,,,,,,,,,,,,a,1,1.178,"[""0.171"",""0.493"",""0.669"",""0.598""]","[1,1,1,0]",0,25,25,25,1,0,0,,,0,FALSE,,,,,,,,,,,,,,,,,,,,,,,,,,,,,,,
,611955ed190e232468392a2f,627c74514c8ad494b268f9e1,2022-05-12_04h45.42.655,classification_task,2021.2.3,Win32,59.74072525,627c6715c52fd12f31907bd0,,,,,,,,,,,,,,,,,,,,,,,l,1,1.2302,"[""0.039"",""0.205"",""0.559"",""0.598""]","[1,1,1,0]",0,26,26,26,1,1,1,,,0,FALSE,,,,,,,,,,,,,,,,,,,,,,,,,,,,,,,
,611955ed190e232468392a2f,627c74514c8ad494b268f9e1,2022-05-12_04h45.42.655,classification_task,2021.2.3,Win32,59.74072525,627c6715c52fd12f31907bd0,,,,,,,,,,,,,,,,,,,,,,,a,0,1.4291,"[""0.614"",""0.253"",""0.441"",""0.841""]","[0,1,1,1]",0,27,27,27,1,1,0,,,0,FALSE,,,,,,,,,,,,,,,,,,,,,,,,,,,,,,,
,611955ed190e232468392a2f,627c74514c8ad494b268f9e1,2022-05-12_04h45.42.655,classification_task,2021.2.3,Win32,59.74072525,627c6715c52fd12f31907bd0,,,,,,,,,,,,,,,,,,,,,,,l,1,1.4736,"[""0.039"",""0.205"",""0.135"",""0.727""]","[1,1,0,1]",0,28,28,28,1,1,1,,,0,FALSE,,,,,,,,,,,,,,,,,,,,,,,,,,,,,,,
,611955ed190e232468392a2f,627c74514c8ad494b268f9e1,2022-05-12_04h45.42.655,classification_task,2021.2.3,Win32,59.74072525,627c6715c52fd12f31907bd0,,,,,,,,,,,,,,,,,,,,,,,l,1,1.8114,"[""0.092"",""0.135"",""0.441"",""0.841""]","[1,0,1,1]",0,29,29,29,1,1,0,,,0,FALSE,,,,,,,,,,,,,,,,,,,,,,,,,,,,,,,
,611955ed190e232468392a2f,627c74514c8ad494b268f9e1,2022-05-12_04h45.42.655,classification_task,2021.2.3,Win32,59.74072525,627c6715c52fd12f31907bd0,,,,,,,,,,,,,,,,,,,,,,,a,0,1.3737,"[""0.601"",""0.205"",""0.559"",""0.727""]","[0,1,1,1]",0,30,30,30,1,1,1,,,0,FALSE,,,,,,,,,,,,,,,,,,,,,,,,,,,,,,,
,611955ed190e232468392a2f,627c74514c8ad494b268f9e1,2022-05-12_04h45.42.655,classification_task,2021.2.3,Win32,59.74072525,627c6715c52fd12f31907bd0,,,,,,,,,,,,,,,,,,,,,,,a,1,1.4946,"[""0.625"",""0.493"",""0.669"",""0.893""]","[0,1,1,1]",0,31,31,31,1,0,0,,,0,FALSE,,,,,,,,,,,,,,,,,,,,,,,,,,,,,,,
,611955ed190e232468392a2f,627c74514c8ad494b268f9e1,2022-05-12_04h45.42.655,classification_task,2021.2.3,Win32,59.74072525,627c6715c52fd12f31907bd0,,,,,,,,,,,,,,,,,,,,,,,a,1,3.3787,"[""0.134"",""0.377"",""0.795"",""0.947""]","[0,1,1,1]",0,32,32,32,1,0,1,,,0,FALSE,,,,,,,,,,,,,,,,,,,,,,,,,,,,,,,
,611955ed190e232468392a2f,627c74514c8ad494b268f9e1,2022-05-12_04h45.42.655,classification_task,2021.2.3,Win32,59.74072525,627c6715c52fd12f31907bd0,,,,,,,,,,,,,,,,,,,,,,,a,0,2.4578,"[""0.135"",""0.253"",""0.441"",""0.841""]","[0,1,1,1]",0,33,33,33,1,1,0,,,0,FALSE,,,,,,,,,,,,,,,,,,,,,,,,,,,,,,,
,611955ed190e232468392a2f,627c74514c8ad494b268f9e1,2022-05-12_04h45.42.655,classification_task,2021.2.3,Win32,59.74072525,627c6715c52fd12f31907bd0,,,,,,,,,,,,,,,,,,,,,,,a,1,1.1947,"[""0.171"",""0.598"",""0.669"",""0.893""]","[1,0,1,1]",0,34,34,34,1,0,0,,,0,FALSE,,,,,,,,,,,,,,,,,,,,,,,,,,,,,,,
,611955ed190e232468392a2f,627c74514c8ad494b268f9e1,2022-05-12_04h45.42.655,classification_task,2021.2.3,Win32,59.74072525,627c6715c52fd12f31907bd0,,,,,,,,,,,,,,,,,,,,,,,a,1,2.7086,"[""0.310"",""0.377"",""0.605"",""0.947""]","[1,1,0,1]",0,35,35,35,1,0,1,,,0,FALSE,,,,,,,,,,,,,,,,,,,,,,,,,,,,,,,
,611955ed190e232468392a2f,627c74514c8ad494b268f9e1,2022-05-12_04h45.42.655,classification_task,2021.2.3,Win32,59.74072525,627c6715c52fd12f31907bd0,,,,,,,,,,,,,,,,,,,,,,,a,1,1.129,"[""0.171"",""0.493"",""0.669"",""0.596""]","[1,1,1,0]",0,36,36,36,1,0,0,,,0,FALSE,,,,,,,,,,,,,,,,,,,,,,,,,,,,,,,
,611955ed190e232468392a2f,627c74514c8ad494b268f9e1,2022-05-12_04h45.42.655,classification_task,2021.2.3,Win32,59.74072525,627c6715c52fd12f31907bd0,,,,,,,,,,,,,,,,,,,,,,,l,1,3.0615,"[""0.092"",""0.601"",""0.441"",""0.841""]","[1,0,1,1]",0,37,37,37,1,1,0,,,0,FALSE,,,,,,,,,,,,,,,,,,,,,,,,,,,,,,,
,611955ed190e232468392a2f,627c74514c8ad494b268f9e1,2022-05-12_04h45.42.655,classification_task,2021.2.3,Win32,59.74072525,627c6715c52fd12f31907bd0,,,,,,,,,,,,,,,,,,,,,,,a,1,1.0069,"[""0.310"",""0.604"",""0.795"",""0.947""]","[1,0,1,1]",0,38,38,38,1,0,1,,,0,FALSE,,,,,,,,,,,,,,,,,,,,,,,,,,,,,,,
,611955ed190e232468392a2f,627c74514c8ad494b268f9e1,2022-05-12_04h45.42.655,classification_task,2021.2.3,Win32,59.74072525,627c6715c52fd12f31907bd0,,,,,,,,,,,,,,,,,,,,,,,l,1,1.0496,"[""0.039"",""0.205"",""0.559"",""0.598""]","[1,1,1,0]",0,39,39,39,1,1,1,,,0,FALSE,,,,,,,,,,,,,,,,,,,,,,,,,,,,,,,
,611955ed190e232468392a2f,627c74514c8ad494b268f9e1,2022-05-12_04h45.42.655,classification_task,2021.2.3,Win32,59.74072525,627c6715c52fd12f31907bd0,,,,,,,,,,,,,,,,,,,,,,,l,1,0.8291,"[""0.039"",""0.205"",""0.594"",""0.727""]","[1,1,0,1]",0,40,40,40,1,1,1,,,0,FALSE,,,,,,,,,,,,,,,,,,,,,,,,,,,,,,,
,611955ed190e232468392a2f,627c74514c8ad494b268f9e1,2022-05-12_04h45.42.655,classification_task,2021.2.3,Win32,59.74072525,627c6715c52fd12f31907bd0,,,,,,,,,,,,,,,,,,,,,,,l,1,1.5783,"[""0.092"",""0.253"",""0.441"",""0.623""]","[1,1,1,0]",0,41,41,41,1,1,0,,,0,FALSE,,,,,,,,,,,,,,,,,,,,,,,,,,,,,,,
,611955ed190e232468392a2f,627c74514c8ad494b268f9e1,2022-05-12_04h45.42.655,classification_task,2021.2.3,Win32,59.74072525,627c6715c52fd12f31907bd0,,,,,,,,,,,,,,,,,,,,,,,a,0,1.3819,"[""0.623"",""0.205"",""0.559"",""0.727""]","[0,1,1,1]",0,42,42,42,1,1,1,,,0,FALSE,,,,,,,,,,,,,,,,,,,,,,,,,,,,,,,
,611955ed190e232468392a2f,627c74514c8ad494b268f9e1,2022-05-12_04h45.42.655,classification_task,2021.2.3,Win32,59.74072525,627c6715c52fd12f31907bd0,,,,,,,,,,,,,,,,,,,,,,,l,1,2.8128,"[""0.092"",""0.253"",""0.605"",""0.841""]","[1,1,0,1]",0,43,43,43,1,1,0,,,0,FALSE,,,,,,,,,,,,,,,,,,,,,,,,,,,,,,,
,611955ed190e232468392a2f,627c74514c8ad494b268f9e1,2022-05-12_04h45.42.655,classification_task,2021.2.3,Win32,59.74072525,627c6715c52fd12f31907bd0,,,,,,,,,,,,,,,,,,,,,,,l,1,1.9938,"[""0.039"",""0.134"",""0.559"",""0.727""]","[1,0,1,1]",0,44,44,44,1,1,1,,,0,FALSE,,,,,,,,,,,,,,,,,,,,,,,,,,,,,,,
,611955ed190e232468392a2f,627c74514c8ad494b268f9e1,2022-05-12_04h45.42.655,classification_task,2021.2.3,Win32,59.74072525,627c6715c52fd12f31907bd0,,,,,,,,,,,,,,,,,,,,,,,a,1,1.2376,"[""0.594"",""0.493"",""0.669"",""0.893""]","[0,1,1,1]",0,45,45,45,1,0,0,,,0,FALSE,,,,,,,,,,,,,,,,,,,,,,,,,,,,,,,
,611955ed190e232468392a2f,627c74514c8ad494b268f9e1,2022-05-12_04h45.42.655,classification_task,2021.2.3,Win32,59.74072525,627c6715c52fd12f31907bd0,,,,,,,,,,,,,,,,,,,,,,,a,1,2.0126,"[""0.171"",""0.493"",""0.134"",""0.893""]","[1,1,0,1]",0,46,46,46,1,0,0,,,0,FALSE,,,,,,,,,,,,,,,,,,,,,,,,,,,,,,,
,611955ed190e232468392a2f,627c74514c8ad494b268f9e1,2022-05-12_04h45.42.655,classification_task,2021.2.3,Win32,59.74072525,627c6715c52fd12f31907bd0,,,,,,,,,,,,,,,,,,,,,,,a,1,1.9438,"[""0.310"",""0.377"",""0.795"",""0.605""]","[1,1,1,0]",0,47,47,47,1,0,1,,,0,FALSE,,,,,,,,,,,,,,,,,,,,,,,,,,,,,,,
,611955ed190e232468392a2f,627c74514c8ad494b268f9e1,2022-05-12_04h45.42.655,classification_task,2021.2.3,Win32,59.74072525,627c6715c52fd12f31907bd0,,,,,,,,,,,,,,,,,,,,,,,l,1,1.3767,"[""0.039"",""0.205"",""0.559"",""0.598""]","[1,1,1,0]",0,48,48,48,1,1,1,,,0,FALSE,,,,,,,,,,,,,,,,,,,,,,,,,,,,,,,
,611955ed190e232468392a2f,627c74514c8ad494b268f9e1,2022-05-12_04h45.42.655,classification_task,2021.2.3,Win32,59.74072525,627c6715c52fd12f31907bd0,,,,,,,,,,,,,,,,,,,,,,,a,1,1.3293,"[""0.310"",""0.598"",""0.795"",""0.947""]","[1,0,1,1]",0,49,49,49,1,0,1,,,0,FALSE,,,,,,,,,,,,,,,,,,,,,,,,,,,,,,,
,611955ed190e232468392a2f,627c74514c8ad494b268f9e1,2022-05-12_04h45.42.655,classification_task,2021.2.3,Win32,59.74072525,627c6715c52fd12f31907bd0,,,,,,,,,,,,,,,,,,,,,,,l,1,1.1773,"[""0.092"",""0.253"",""0.441"",""0.605""]","[1,1,1,0]",0,50,50,50,1,1,0,,,0,FALSE,,,,,,,,,,,,,,,,,,,,,,,,,,,,,,,
,611955ed190e232468392a2f,627c74514c8ad494b268f9e1,2022-05-12_04h45.42.655,classification_task,2021.2.3,Win32,59.74072525,627c6715c52fd12f31907bd0,,,,,,,,,,,,,,,,,,,,,,,a,1,1.3312,"[""0.171"",""0.493"",""0.625"",""0.893""]","[1,1,0,1]",0,51,51,51,1,0,0,,,0,FALSE,,,,,,,,,,,,,,,,,,,,,,,,,,,,,,,
,611955ed190e232468392a2f,627c74514c8ad494b268f9e1,2022-05-12_04h45.42.655,classification_task,2021.2.3,Win32,59.74072525,627c6715c52fd12f31907bd0,,,,,,,,,,,,,,,,,,,,,,,a,1,1.5975,"[""0.171"",""0.493"",""0.669"",""0.134""]","[1,1,1,0]",0,52,52,52,1,0,0,,,0,FALSE,,,,,,,,,,,,,,,,,,,,,,,,,,,,,,,
,611955ed190e232468392a2f,627c74514c8ad494b268f9e1,2022-05-12_04h45.42.655,classification_task,2021.2.3,Win32,59.74072525,627c6715c52fd12f31907bd0,,,,,,,,,,,,,,,,,,,,,,,a,1,1.4172,"[""0.310"",""0.377"",""0.795"",""0.624""]","[1,1,1,0]",0,53,53,53,1,0,1,,,0,FALSE,,,,,,,,,,,,,,,,,,,,,,,,,,,,,,,
,611955ed190e232468392a2f,627c74514c8ad494b268f9e1,2022-05-12_04h45.42.655,classification_task,2021.2.3,Win32,59.74072525,627c6715c52fd12f31907bd0,,,,,,,,,,,,,,,,,,,,,,,l,1,1.002,"[""0.039"",""0.134"",""0.559"",""0.727""]","[1,0,1,1]",0,54,54,54,1,1,1,,,0,FALSE,,,,,,,,,,,,,,,,,,,,,,,,,,,,,,,
,611955ed190e232468392a2f,627c74514c8ad494b268f9e1,2022-05-12_04h45.42.655,classification_task,2021.2.3,Win32,59.74072525,627c6715c52fd12f31907bd0,,,,,,,,,,,,,,,,,,,,,,,a,1,1.1813,"[""0.310"",""0.377"",""0.625"",""0.947""]","[1,1,0,1]",0,55,55,55,1,0,1,,,0,FALSE,,,,,,,,,,,,,,,,,,,,,,,,,,,,,,,
,611955ed190e232468392a2f,627c74514c8ad494b268f9e1,2022-05-12_04h45.42.655,classification_task,2021.2.3,Win32,59.74072525,627c6715c52fd12f31907bd0,,,,,,,,,,,,,,,,,,,,,,,a,0,2.0482,"[""0.624"",""0.205"",""0.559"",""0.727""]","[0,1,1,1]",0,56,56,56,1,1,1,,,0,FALSE,,,,,,,,,,,,,,,,,,,,,,,,,,,,,,,
,611955ed190e232468392a2f,627c74514c8ad494b268f9e1,2022-05-12_04h45.42.655,classification_task,2021.2.3,Win32,59.74072525,627c6715c52fd12f31907bd0,,,,,,,,,,,,,,,,,,,,,,,l,1,1.2815,"[""0.092"",""0.595"",""0.441"",""0.841""]","[1,0,1,1]",0,57,57,57,1,1,0,,,0,FALSE,,,,,,,,,,,,,,,,,,,,,,,,,,,,,,,
,611955ed190e232468392a2f,627c74514c8ad494b268f9e1,2022-05-12_04h45.42.655,classification_task,2021.2.3,Win32,59.74072525,627c6715c52fd12f31907bd0,,,,,,,,,,,,,,,,,,,,,,,a,1,2.1959,"[""0.171"",""0.594"",""0.669"",""0.893""]","[1,0,1,1]",0,58,58,58,1,0,0,,,0,FALSE,,,,,,,,,,,,,,,,,,,,,,,,,,,,,,,
,611955ed190e232468392a2f,627c74514c8ad494b268f9e1,2022-05-12_04h45.42.655,classification_task,2021.2.3,Win32,59.74072525,627c6715c52fd12f31907bd0,,,,,,,,,,,,,,,,,,,,,,,l,1,2.6651,"[""0.092"",""0.253"",""0.134"",""0.841""]","[1,1,0,1]",0,59,59,59,1,1,0,,,0,FALSE,,,,,,,,,,,,,,,,,,,,,,,,,,,,,,,
,611955ed190e232468392a2f,627c74514c8ad494b268f9e1,2022-05-12_04h45.42.655,classification_task,2021.2.3,Win32,59.74072525,627c6715c52fd12f31907bd0,,,,,,,,,,,,,,,,,,,,,,,l,1,0.9643,"[""0.039"",""0.205"",""0.623"",""0.727""]","[1,1,0,1]",0,60,60,60,1,1,1,,,0,FALSE,,,,,,,,,,,,,,,,,,,,,,,,,,,,,,,
,611955ed190e232468392a2f,627c74514c8ad494b268f9e1,2022-05-12_04h45.42.655,classification_task,2021.2.3,Win32,59.74072525,627c6715c52fd12f31907bd0,,,,,,,,,,,,,,,,,,,,,,,a,0,1.0471,"[""0.134"",""0.253"",""0.441"",""0.841""]","[0,1,1,1]",0,61,61,61,1,1,0,,,0,FALSE,,,,,,,,,,,,,,,,,,,,,,,,,,,,,,,
,611955ed190e232468392a2f,627c74514c8ad494b268f9e1,2022-05-12_04h45.42.655,classification_task,2021.2.3,Win32,59.74072525,627c6715c52fd12f31907bd0,,,,,,,,,,,,,,,,,,,,,,,a,1,1.0151,"[""0.623"",""0.377"",""0.795"",""0.947""]","[0,1,1,1]",0,62,62,62,1,0,1,,,0,FALSE,,,,,,,,,,,,,,,,,,,,,,,,,,,,,,,
,611955ed190e232468392a2f,627c74514c8ad494b268f9e1,2022-05-12_04h45.42.655,classification_task,2021.2.3,Win32,59.74072525,627c6715c52fd12f31907bd0,,,,,,,,,,,,,,,,,,,,,,,a,1,0.7331,"[""0.135"",""0.493"",""0.669"",""0.893""]","[0,1,1,1]",0,63,63,63,1,0,0,,,0,FALSE,,,,,,,,,,,,,,,,,,,,,,,,,,,,,,,
,611955ed190e232468392a2f,627c74514c8ad494b268f9e1,2022-05-12_04h45.42.655,classification_task,2021.2.3,Win32,59.74072525,627c6715c52fd12f31907bd0,,,,,,,,,,,,,,,,,,,,,,,,,,,,,,,,,,,,,,,0, ,,0,7.415984151,184.4817,0,2,2,2,1,2,3,,,,,,,,,,,,,,,,,,
,611955ed190e232468392a2f,627c74514c8ad494b268f9e1,2022-05-12_04h45.42.655,classification_task,2021.2.3,Win32,59.74072525,627c6715c52fd12f31907bd0,,,,,,,,,,,,,,,,,,,,,,,,,,,,,,,,,,,,,,,1,  ,,0,3.751741522,187.9362,0,2,2,2,1,2,3,,,,,,,,,,,,,,,,,,
,611955ed190e232468392a2f,627c74514c8ad494b268f9e1,2022-05-12_04h45.42.655,classification_task,2021.2.3,Win32,59.74072525,627c6715c52fd12f31907bd0,,,,,,,,,,,,,,,,,,,,,,,,,,,,,,,,,,,,,,,2,  ,,0,2.906147069,191.0777,0,2,2,2,1,2,3,,,,,,,,,,,,,,,,,,
,611955ed190e232468392a2f,627c74514c8ad494b268f9e1,2022-05-12_04h45.42.655,classification_task,2021.2.3,Win32,59.74072525,627c6715c52fd12f31907bd0,,,,,,,,,,,,,,,,,,,,,,,,,,,,,,,,,,,,,,,,,,,,,0,2,2,2,1,,3,,,,,,,,,,,,,,,,,,
,611955ed190e232468392a2f,627c74514c8ad494b268f9e1,2022-05-12_04h45.42.655,classification_task,2021.2.3,Win32,59.74072525,627c6715c52fd12f31907bd0,,,,,,,,,,,,,,,,,,,,,,,,,,,,,,,,,,,,,,,,,,,,,,,,,,,,,I believe the aid is a competent performer,,0.7,0,3,841.3492,0,0,0,0,1,0,,,,,
,611955ed190e232468392a2f,627c74514c8ad494b268f9e1,2022-05-12_04h45.42.655,classification_task,2021.2.3,Win32,59.74072525,627c6715c52fd12f31907bd0,,,,,,,,,,,,,,,,,,,,,,,,,,,,,,,,,,,,,,,,,,,,,,,,,,,,,I trust the aid,,0.7,0,3,907.3253,0,0,0,0,1,0,,,,,
,611955ed190e232468392a2f,627c74514c8ad494b268f9e1,2022-05-12_04h45.42.655,classification_task,2021.2.3,Win32,59.74072525,627c6715c52fd12f31907bd0,,,,,,,,,,,,,,,,,,,,,,,,,,,,,,,,,,,,,,,,,,,,,,,,,,,,,I have confidence in the advice given by the aid,,0.7,0,3,932.1479,0,0,0,0,1,0,,,,,
,611955ed190e232468392a2f,627c74514c8ad494b268f9e1,2022-05-12_04h45.42.655,classification_task,2021.2.3,Win32,59.74072525,627c6715c52fd12f31907bd0,,,,,,,,,,,,,,,,,,,,,,,,,,,,,,,,,,,,,,,,,,,,,,,,,,,,,I can depend on the aid,,0.7,0,3,913.8189,0,0,0,0,1,0,,,,,
,611955ed190e232468392a2f,627c74514c8ad494b268f9e1,2022-05-12_04h45.42.655,classification_task,2021.2.3,Win32,59.74072525,627c6715c52fd12f31907bd0,,,,,,,,,,,,,,,,,,,,,,,,,,,,,,,,,,,,,,,,,,,,,,,,,,,,,I can rely on the aid to behave in consistent ways,,0.7,0,3,915.4541,0,0,0,0,1,0,,,,,
,611955ed190e232468392a2f,627c74514c8ad494b268f9e1,2022-05-12_04h45.42.655,classification_task,2021.2.3,Win32,59.74072525,627c6715c52fd12f31907bd0,,,,,,,,,,,,,,,,,,,,,,,,,,,,,,,,,,,,,,,,,,,,,,,,,,,,,I can rely on the aid to do its best every time I take its advice,,0.7,0,3,892.1402,0,0,0,0,1,0,,,,,
,611955ed190e232468392a2f,627c74514c8ad494b268f9e1,2022-05-12_04h45.42.655,classification_task,2021.2.3,Win32,59.74072525,627c6715c52fd12f31907bd0,,,,,,,,,,,,,,,,,,,,,,,,,,,,,,,,,,,,,,,,,,,,,,,,,,,,,"On trials you completed with assistance from the aid, how frequently did you think the aid was correct?",,0.7,0,70%,,0,0,0,0,1,0,,,,,
,611955ed190e232468392a2f,627c74514c8ad494b268f9e1,2022-05-12_04h45.42.655,classification_task,2021.2.3,Win32,59.74072525,627c6715c52fd12f31907bd0,,,,,,,,,,,,,,,,,,,,,,,,,,,,,,,,,,,,,,,,,,,,,,,,,,,,,"On trials you completed without the aid, how frequently did you think you were correct?",,0.7,0,60%,,0,0,0,0,1,0,,,,,
,611955ed190e232468392a2f,627c74514c8ad494b268f9e1,2022-05-12_04h45.42.655,classification_task,2021.2.3,Win32,59.74072525,627c6715c52fd12f31907bd0,,,,,,,,,,,,,,,,,,,,,,,,,,,,,,,,,,,,,,,,,,,,,,,,,,,,,,,,,,,0,0,0,0,1,,,,,,
,611955ed190e232468392a2f,627c74514c8ad494b268f9e1,2022-05-12_04h45.42.655,classification_task,2021.2.3,Win32,59.74072525,627c6715c52fd12f31907bd0,,,,,,,,,,,,,,,,,,,,,,,,,,,,,,,,,,,,,,,,,,,,,,,,,,,,,,,,,,,,,,,,,space,7.5504,944.2167,,
,611955ed190e232468392a2f,627c74514c8ad494b268f9e1,2022-05-12_04h45.42.655,classification_task,2021.2.3,Win32,59.74072525,627c6715c52fd12f31907bd0,,,,,,,,,,,,,,,,,,,,,,,,,,,,,,,,,,,,,,,,,,,,,,,,,,,,,,,,,,,,,,,,,,,,"Mozilla/5.0 (Windows NT 10.0; Win64; x64) AppleWebKit/537.36 (KHTML, like Gecko) Chrome/101.0.4951.54 Safari/537.36",
,611955ed190e232468392a2f,627c74514c8ad494b268f9e1,2022-05-12_04h45.42.655,classification_task,2021.2.3,Win32,59.74072525,627c6715c52fd12f31907bd0,,,,,,,,,,,,,,,,,,,,,,,,,,,,,,,,,,,,,,,,,,,,,,,,,,,,,,,,,,,,,,,,,,,,,LOWLIGHT
