usingWebGL,participant,session,date,expName,psychopyVersion,OS,frameRate,study_id,signatures_friend,signatures_foe,band_ranges_top,band_ranges_bottom,formitemText,formtype,formundefined,formitemWidth,formindex,formresponse,formrt,key_resp_2.keys,key_resp_2.rt,tute_resp.keys,tute_resp.rt,tutorial.thisRepN,tutorial.thisTrialN,tutorial.thisN,tutorial.thisIndex,tutorial.ran,key_resp_4.keys,key_resp_4.rt,key_resp.keys,key_resp.corr,key_resp.rt,lines_presented,is_signal_presented,trials.thisRepN,trials.thisTrialN,trials.thisN,trials.thisIndex,trials.ran,vessel,active_band,lines,is_signal,supported_pos,catch_trial,debrief_formindex,debrief_formitemText,debrief_formtype,debrief_formitemWidth,debrief_formresponse,debrief_formrt,phases.thisRepN,phases.thisTrialN,phases.thisN,phases.thisIndex,phases.ran,phases.order,phase,key_resp_3.keys,trustitemText,trusttype,trustitemWidth,trustindex,trustresponse,trustrt,support_status.thisRepN,support_status.thisTrialN,support_status.thisN,support_status.thisIndex,support_status.ran,support_status.order,key_resp_5.keys,key_resp_5.rt,globalClockTime,userAgent,manualCondition
TRUE,611cf0fcb571ffef2625d948,627c6fa48879c5db26c34e0e,2022-05-12_04h25.12.280,classification_task,2021.2.3,Win32,59.9268892,627c6715c52fd12f31907bcf,,,,,,,,,,,,,,,,,,,,,,,,,,,,,,,,,,,,,,,,,,,,,,,,,,,,,,,,,,,,,,,,,,,,,
,611cf0fcb571ffef2625d948,627c6fa48879c5db26c34e0e,2022-05-12_04h25.12.280,classification_task,2021.2.3,Win32,59.9268892,627c6715c52fd12f31907bcf,"[[""0.179"",""0.433"",""0.868"",""0.903""],[""0.212"",""0.371"",""0.823"",""0.965""]]","[[""0.071"",""0.258"",""0.520"",""0.783""],[""0.144"",""0.319"",""0.635"",""0.683""]]","[1,10]","[100,1000]",Video game experience,,,0.7,0,,,,,,,,,,,,,,,,,,,,,,,,,,,,,,,,,,,,,,,,,,,,,,,,,,,,,,,,,,,,
,611cf0fcb571ffef2625d948,627c6fa48879c5db26c34e0e,2022-05-12_04h25.12.280,classification_task,2021.2.3,Win32,59.9268892,627c6715c52fd12f31907bcf,,,,,Approximately how many hours did you spend playing video games in the last week?,,,0.7,0,8,,,,,,,,,,,,,,,,,,,,,,,,,,,,,,,,,,,,,,,,,,,,,,,,,,,,,,,,,,,
,611cf0fcb571ffef2625d948,627c6fa48879c5db26c34e0e,2022-05-12_04h25.12.280,classification_task,2021.2.3,Win32,59.9268892,627c6715c52fd12f31907bcf,,,,,"Which game did you play the most this year? (Enter ""None"" if you didn't play any)",,,0.7,0,candy crush,,,,,,,,,,,,,,,,,,,,,,,,,,,,,,,,,,,,,,,,,,,,,,,,,,,,,,,,,,,
,611cf0fcb571ffef2625d948,627c6fa48879c5db26c34e0e,2022-05-12_04h25.12.280,classification_task,2021.2.3,Win32,59.9268892,627c6715c52fd12f31907bcf,,,,,Visual perception,,,0.7,0,,,,,,,,,,,,,,,,,,,,,,,,,,,,,,,,,,,,,,,,,,,,,,,,,,,,,,,,,,,,
,611cf0fcb571ffef2625d948,627c6fa48879c5db26c34e0e,2022-05-12_04h25.12.280,classification_task,2021.2.3,Win32,59.9268892,627c6715c52fd12f31907bcf,,,,,Do you have any form of color blindness?,,,0.7,0,No,78.9336,,,,,,,,,,,,,,,,,,,,,,,,,,,,,,,,,,,,,,,,,,,,,,,,,,,,,,,,,,
,611cf0fcb571ffef2625d948,627c6fa48879c5db26c34e0e,2022-05-12_04h25.12.280,classification_task,2021.2.3,Win32,59.9268892,627c6715c52fd12f31907bcf,,,,,Do you use software to change the colour temperature of your screen (e.g. f.lux)?,,,0.7,0,No,85.856,,,,,,,,,,,,,,,,,,,,,,,,,,,,,,,,,,,,,,,,,,,,,,,,,,,,,,,,,,
,611cf0fcb571ffef2625d948,627c6fa48879c5db26c34e0e,2022-05-12_04h25.12.280,classification_task,2021.2.3,Win32,59.9268892,627c6715c52fd12f31907bcf,,,,,,,,,,,,space,54.3809,space,20.9284,0,0,0,0,1,,,,,,,,,,,,,,,,,,,,,,,,,,,,,,,,,,,,,,,,,,,,,,,,,
,611cf0fcb571ffef2625d948,627c6fa48879c5db26c34e0e,2022-05-12_04h25.12.280,classification_task,2021.2.3,Win32,59.9268892,627c6715c52fd12f31907bcf,,,,,,,,,,,,,,space,16.0796,1,0,1,0,1,,,,,,,,,,,,,,,,,,,,,,,,,,,,,,,,,,,,,,,,,,,,,,,,,
,611cf0fcb571ffef2625d948,627c6fa48879c5db26c34e0e,2022-05-12_04h25.12.280,classification_task,2021.2.3,Win32,59.9268892,627c6715c52fd12f31907bcf,,,,,,,,,,,,,,space,19.8153,2,0,2,0,1,,,,,,,,,,,,,,,,,,,,,,,,,,,,,,,,,,,,,,,,,,,,,,,,,
,611cf0fcb571ffef2625d948,627c6fa48879c5db26c34e0e,2022-05-12_04h25.12.280,classification_task,2021.2.3,Win32,59.9268892,627c6715c52fd12f31907bcf,,,,,,,,,,,,,,space,33.0325,3,0,3,0,1,,,,,,,,,,,,,,,,,,,,,,,,,,,,,,,,,,,,,,,,,,,,,,,,,
,611cf0fcb571ffef2625d948,627c6fa48879c5db26c34e0e,2022-05-12_04h25.12.280,classification_task,2021.2.3,Win32,59.9268892,627c6715c52fd12f31907bcf,,,,,,,,,,,,,,space,48.5983,4,0,4,0,1,,,,,,,,,,,,,,,,,,,,,,,,,,,,,,,,,,,,,,,,,,,,,,,,,
,611cf0fcb571ffef2625d948,627c6fa48879c5db26c34e0e,2022-05-12_04h25.12.280,classification_task,2021.2.3,Win32,59.9268892,627c6715c52fd12f31907bcf,,,,,,,,,,,,,,,,,,,,,space,31.2969,l,0,4.9243,"[""0.575"",""0.433"",""0.868"",""0.903""]","[0,1,1,1]",0,0,0,0,1,0,0,,,0,FALSE,,,,,,,,,,,,,,,,,,,,,,,,,,,,,,,
,611cf0fcb571ffef2625d948,627c6fa48879c5db26c34e0e,2022-05-12_04h25.12.280,classification_task,2021.2.3,Win32,59.9268892,627c6715c52fd12f31907bcf,,,,,,,,,,,,,,,,,,,,,,,a,0,3.0801,"[""0.584"",""0.319"",""0.635"",""0.683""]","[0,1,1,1]",0,1,1,1,1,1,1,,,0,FALSE,,,,,,,,,,,,,,,,,,,,,,,,,,,,,,,
,611cf0fcb571ffef2625d948,627c6fa48879c5db26c34e0e,2022-05-12_04h25.12.280,classification_task,2021.2.3,Win32,59.9268892,627c6715c52fd12f31907bcf,,,,,,,,,,,,,,,,,,,,,,,a,1,2.4027,"[""0.179"",""0.467"",""0.868"",""0.903""]","[1,0,1,1]",0,2,2,2,1,0,0,,,0,FALSE,,,,,,,,,,,,,,,,,,,,,,,,,,,,,,,
,611cf0fcb571ffef2625d948,627c6fa48879c5db26c34e0e,2022-05-12_04h25.12.280,classification_task,2021.2.3,Win32,59.9268892,627c6715c52fd12f31907bcf,,,,,,,,,,,,,,,,,,,,,,,l,0,3.0139,"[""0.179"",""0.433"",""0.868"",""0.467""]","[1,1,1,0]",0,3,3,3,1,0,0,,,0,FALSE,,,,,,,,,,,,,,,,,,,,,,,,,,,,,,,
,611cf0fcb571ffef2625d948,627c6fa48879c5db26c34e0e,2022-05-12_04h25.12.280,classification_task,2021.2.3,Win32,59.9268892,627c6715c52fd12f31907bcf,,,,,,,,,,,,,,,,,,,,,,,l,0,1.9704,"[""0.212"",""0.371"",""0.732"",""0.965""]","[1,1,0,1]",0,4,4,4,1,0,1,,,0,FALSE,,,,,,,,,,,,,,,,,,,,,,,,,,,,,,,
,611cf0fcb571ffef2625d948,627c6fa48879c5db26c34e0e,2022-05-12_04h25.12.280,classification_task,2021.2.3,Win32,59.9268892,627c6715c52fd12f31907bcf,,,,,,,,,,,,,,,,,,,,,,,a,0,1.1102,"[""0.144"",""0.732"",""0.635"",""0.683""]","[1,0,1,1]",0,5,5,5,1,1,1,,,0,FALSE,,,,,,,,,,,,,,,,,,,,,,,,,,,,,,,
,611cf0fcb571ffef2625d948,627c6fa48879c5db26c34e0e,2022-05-12_04h25.12.280,classification_task,2021.2.3,Win32,59.9268892,627c6715c52fd12f31907bcf,,,,,,,,,,,,,,,,,,,,,,,l,0,4.2477,"[""0.212"",""0.371"",""0.823"",""0.556""]","[1,1,1,0]",0,6,6,6,1,0,1,,,0,FALSE,,,,,,,,,,,,,,,,,,,,,,,,,,,,,,,
,611cf0fcb571ffef2625d948,627c6fa48879c5db26c34e0e,2022-05-12_04h25.12.280,classification_task,2021.2.3,Win32,59.9268892,627c6715c52fd12f31907bcf,,,,,,,,,,,,,,,,,,,,,,,l,0,1.7491,"[""0.179"",""0.433"",""0.469"",""0.903""]","[1,1,0,1]",0,7,7,7,1,0,0,,,0,FALSE,,,,,,,,,,,,,,,,,,,,,,,,,,,,,,,
,611cf0fcb571ffef2625d948,627c6fa48879c5db26c34e0e,2022-05-12_04h25.12.280,classification_task,2021.2.3,Win32,59.9268892,627c6715c52fd12f31907bcf,,,,,,,,,,,,,,,,,,,,,,,a,1,0.955,"[""0.032"",""0.371"",""0.823"",""0.965""]","[0,1,1,1]",0,8,8,8,1,0,1,,,0,FALSE,,,,,,,,,,,,,,,,,,,,,,,,,,,,,,,
,611cf0fcb571ffef2625d948,627c6fa48879c5db26c34e0e,2022-05-12_04h25.12.280,classification_task,2021.2.3,Win32,59.9268892,627c6715c52fd12f31907bcf,,,,,,,,,,,,,,,,,,,,,,,a,0,1.8327,"[""0.071"",""0.473"",""0.520"",""0.783""]","[1,0,1,1]",0,9,9,9,1,1,0,,,0,FALSE,,,,,,,,,,,,,,,,,,,,,,,,,,,,,,,
,611cf0fcb571ffef2625d948,627c6fa48879c5db26c34e0e,2022-05-12_04h25.12.280,classification_task,2021.2.3,Win32,59.9268892,627c6715c52fd12f31907bcf,,,,,,,,,,,,,,,,,,,,,,,a,0,1.0132,"[""0.472"",""0.258"",""0.520"",""0.783""]","[0,1,1,1]",0,10,10,10,1,1,0,,,0,FALSE,,,,,,,,,,,,,,,,,,,,,,,,,,,,,,,
,611cf0fcb571ffef2625d948,627c6fa48879c5db26c34e0e,2022-05-12_04h25.12.280,classification_task,2021.2.3,Win32,59.9268892,627c6715c52fd12f31907bcf,,,,,,,,,,,,,,,,,,,,,,,a,0,1.655,"[""0.144"",""0.319"",""0.635"",""0.467""]","[1,1,1,0]",0,11,11,11,1,1,1,,,0,FALSE,,,,,,,,,,,,,,,,,,,,,,,,,,,,,,,
,611cf0fcb571ffef2625d948,627c6fa48879c5db26c34e0e,2022-05-12_04h25.12.280,classification_task,2021.2.3,Win32,59.9268892,627c6715c52fd12f31907bcf,,,,,,,,,,,,,,,,,,,,,,,l,0,1.7429,"[""0.212"",""0.472"",""0.823"",""0.965""]","[1,0,1,1]",0,12,12,12,1,0,1,,,0,FALSE,,,,,,,,,,,,,,,,,,,,,,,,,,,,,,,
,611cf0fcb571ffef2625d948,627c6fa48879c5db26c34e0e,2022-05-12_04h25.12.280,classification_task,2021.2.3,Win32,59.9268892,627c6715c52fd12f31907bcf,,,,,,,,,,,,,,,,,,,,,,,l,1,0.9999,"[""0.071"",""0.258"",""0.726"",""0.783""]","[1,1,0,1]",0,13,13,13,1,1,0,,,0,FALSE,,,,,,,,,,,,,,,,,,,,,,,,,,,,,,,
,611cf0fcb571ffef2625d948,627c6fa48879c5db26c34e0e,2022-05-12_04h25.12.280,classification_task,2021.2.3,Win32,59.9268892,627c6715c52fd12f31907bcf,,,,,,,,,,,,,,,,,,,,,,,l,1,2.8896,"[""0.144"",""0.319"",""0.584"",""0.683""]","[1,1,0,1]",0,14,14,14,1,1,1,,,0,FALSE,,,,,,,,,,,,,,,,,,,,,,,,,,,,,,,
,611cf0fcb571ffef2625d948,627c6fa48879c5db26c34e0e,2022-05-12_04h25.12.280,classification_task,2021.2.3,Win32,59.9268892,627c6715c52fd12f31907bcf,,,,,,,,,,,,,,,,,,,,,,,l,1,4.0788,"[""0.071"",""0.258"",""0.520"",""0.469""]","[1,1,1,0]",0,15,15,15,1,1,0,,,0,FALSE,,,,,,,,,,,,,,,,,,,,,,,,,,,,,,,
,611cf0fcb571ffef2625d948,627c6fa48879c5db26c34e0e,2022-05-12_04h25.12.280,classification_task,2021.2.3,Win32,59.9268892,627c6715c52fd12f31907bcf,,,,,,,,,,,,,,,,,,,,,,,a,1,2.3043,"[""0.212"",""0.371"",""0.823"",""0.472""]","[1,1,1,0]",0,16,16,16,1,0,1,,,0,FALSE,,,,,,,,,,,,,,,,,,,,,,,,,,,,,,,
,611cf0fcb571ffef2625d948,627c6fa48879c5db26c34e0e,2022-05-12_04h25.12.280,classification_task,2021.2.3,Win32,59.9268892,627c6715c52fd12f31907bcf,,,,,,,,,,,,,,,,,,,,,,,a,1,2.6585,"[""0.561"",""0.433"",""0.868"",""0.903""]","[0,1,1,1]",0,17,17,17,1,0,0,,,0,FALSE,,,,,,,,,,,,,,,,,,,,,,,,,,,,,,,
,611cf0fcb571ffef2625d948,627c6fa48879c5db26c34e0e,2022-05-12_04h25.12.280,classification_task,2021.2.3,Win32,59.9268892,627c6715c52fd12f31907bcf,,,,,,,,,,,,,,,,,,,,,,,l,0,6.1803,"[""0.179"",""0.433"",""0.868"",""0.726""]","[1,1,1,0]",0,18,18,18,1,0,0,,,0,FALSE,,,,,,,,,,,,,,,,,,,,,,,,,,,,,,,
,611cf0fcb571ffef2625d948,627c6fa48879c5db26c34e0e,2022-05-12_04h25.12.280,classification_task,2021.2.3,Win32,59.9268892,627c6715c52fd12f31907bcf,,,,,,,,,,,,,,,,,,,,,,,l,1,1.6616,"[""0.144"",""0.319"",""0.635"",""0.558""]","[1,1,1,0]",0,19,19,19,1,1,1,,,0,FALSE,,,,,,,,,,,,,,,,,,,,,,,,,,,,,,,
,611cf0fcb571ffef2625d948,627c6fa48879c5db26c34e0e,2022-05-12_04h25.12.280,classification_task,2021.2.3,Win32,59.9268892,627c6715c52fd12f31907bcf,,,,,,,,,,,,,,,,,,,,,,,l,1,2.7799,"[""0.071"",""0.258"",""0.556"",""0.783""]","[1,1,0,1]",0,20,20,20,1,1,0,,,0,FALSE,,,,,,,,,,,,,,,,,,,,,,,,,,,,,,,
,611cf0fcb571ffef2625d948,627c6fa48879c5db26c34e0e,2022-05-12_04h25.12.280,classification_task,2021.2.3,Win32,59.9268892,627c6715c52fd12f31907bcf,,,,,,,,,,,,,,,,,,,,,,,a,1,2.0795,"[""0.212"",""0.371"",""0.472"",""0.965""]","[1,1,0,1]",0,21,21,21,1,0,1,,,0,FALSE,,,,,,,,,,,,,,,,,,,,,,,,,,,,,,,
,611cf0fcb571ffef2625d948,627c6fa48879c5db26c34e0e,2022-05-12_04h25.12.280,classification_task,2021.2.3,Win32,59.9268892,627c6715c52fd12f31907bcf,,,,,,,,,,,,,,,,,,,,,,,a,1,3.3266,"[""0.179"",""0.469"",""0.868"",""0.903""]","[1,0,1,1]",0,22,22,22,1,0,0,,,0,FALSE,,,,,,,,,,,,,,,,,,,,,,,,,,,,,,,
,611cf0fcb571ffef2625d948,627c6fa48879c5db26c34e0e,2022-05-12_04h25.12.280,classification_task,2021.2.3,Win32,59.9268892,627c6715c52fd12f31907bcf,,,,,,,,,,,,,,,,,,,,,,,l,0,2.4242,"[""0.212"",""0.732"",""0.823"",""0.965""]","[1,0,1,1]",0,23,23,23,1,0,1,,,0,FALSE,,,,,,,,,,,,,,,,,,,,,,,,,,,,,,,
,611cf0fcb571ffef2625d948,627c6fa48879c5db26c34e0e,2022-05-12_04h25.12.280,classification_task,2021.2.3,Win32,59.9268892,627c6715c52fd12f31907bcf,,,,,,,,,,,,,,,,,,,,,,,l,0,1.7273,"[""0.472"",""0.371"",""0.823"",""0.965""]","[0,1,1,1]",0,24,24,24,1,0,1,,,0,FALSE,,,,,,,,,,,,,,,,,,,,,,,,,,,,,,,
,611cf0fcb571ffef2625d948,627c6fa48879c5db26c34e0e,2022-05-12_04h25.12.280,classification_task,2021.2.3,Win32,59.9268892,627c6715c52fd12f31907bcf,,,,,,,,,,,,,,,,,,,,,,,a,0,0.8997,"[""0.144"",""0.726"",""0.635"",""0.683""]","[1,0,1,1]",0,25,25,25,1,1,1,,,0,FALSE,,,,,,,,,,,,,,,,,,,,,,,,,,,,,,,
,611cf0fcb571ffef2625d948,627c6fa48879c5db26c34e0e,2022-05-12_04h25.12.280,classification_task,2021.2.3,Win32,59.9268892,627c6715c52fd12f31907bcf,,,,,,,,,,,,,,,,,,,,,,,a,0,1.0508,"[""0.144"",""0.319"",""0.032"",""0.683""]","[1,1,0,1]",0,26,26,26,1,1,1,,,0,FALSE,,,,,,,,,,,,,,,,,,,,,,,,,,,,,,,
,611cf0fcb571ffef2625d948,627c6fa48879c5db26c34e0e,2022-05-12_04h25.12.280,classification_task,2021.2.3,Win32,59.9268892,627c6715c52fd12f31907bcf,,,,,,,,,,,,,,,,,,,,,,,l,1,0.6324,"[""0.071"",""0.258"",""0.520"",""0.597""]","[1,1,1,0]",0,27,27,27,1,1,0,,,0,FALSE,,,,,,,,,,,,,,,,,,,,,,,,,,,,,,,
,611cf0fcb571ffef2625d948,627c6fa48879c5db26c34e0e,2022-05-12_04h25.12.280,classification_task,2021.2.3,Win32,59.9268892,627c6715c52fd12f31907bcf,,,,,,,,,,,,,,,,,,,,,,,l,1,1.2854,"[""0.584"",""0.319"",""0.635"",""0.683""]","[0,1,1,1]",0,28,28,28,1,1,1,,,0,FALSE,,,,,,,,,,,,,,,,,,,,,,,,,,,,,,,
,611cf0fcb571ffef2625d948,627c6fa48879c5db26c34e0e,2022-05-12_04h25.12.280,classification_task,2021.2.3,Win32,59.9268892,627c6715c52fd12f31907bcf,,,,,,,,,,,,,,,,,,,,,,,l,0,1.6985,"[""0.179"",""0.433"",""0.726"",""0.903""]","[1,1,0,1]",0,29,29,29,1,0,0,,,0,FALSE,,,,,,,,,,,,,,,,,,,,,,,,,,,,,,,
,611cf0fcb571ffef2625d948,627c6fa48879c5db26c34e0e,2022-05-12_04h25.12.280,classification_task,2021.2.3,Win32,59.9268892,627c6715c52fd12f31907bcf,,,,,,,,,,,,,,,,,,,,,,,l,1,7.7169,"[""0.071"",""0.734"",""0.520"",""0.783""]","[1,0,1,1]",0,30,30,30,1,1,0,,,0,FALSE,,,,,,,,,,,,,,,,,,,,,,,,,,,,,,,
,611cf0fcb571ffef2625d948,627c6fa48879c5db26c34e0e,2022-05-12_04h25.12.280,classification_task,2021.2.3,Win32,59.9268892,627c6715c52fd12f31907bcf,,,,,,,,,,,,,,,,,,,,,,,l,1,2.5347,"[""0.469"",""0.258"",""0.520"",""0.783""]","[0,1,1,1]",0,31,31,31,1,1,0,,,0,FALSE,,,,,,,,,,,,,,,,,,,,,,,,,,,,,,,
,611cf0fcb571ffef2625d948,627c6fa48879c5db26c34e0e,2022-05-12_04h25.12.280,classification_task,2021.2.3,Win32,59.9268892,627c6715c52fd12f31907bcf,,,,,,,,,,,,,,,,,,,,,,,l,0,4.7941,"[""0.212"",""0.371"",""0.823"",""0.734""]","[1,1,1,0]",0,32,32,32,1,0,1,,,0,FALSE,,,,,,,,,,,,,,,,,,,,,,,,,,,,,,,
,611cf0fcb571ffef2625d948,627c6fa48879c5db26c34e0e,2022-05-12_04h25.12.280,classification_task,2021.2.3,Win32,59.9268892,627c6715c52fd12f31907bcf,,,,,,,,,,,,,,,,,,,,,,,a,0,2.131,"[""0.467"",""0.258"",""0.520"",""0.783""]","[0,1,1,1]",0,33,33,33,1,1,0,,,0,FALSE,,,,,,,,,,,,,,,,,,,,,,,,,,,,,,,
,611cf0fcb571ffef2625d948,627c6fa48879c5db26c34e0e,2022-05-12_04h25.12.280,classification_task,2021.2.3,Win32,59.9268892,627c6715c52fd12f31907bcf,,,,,,,,,,,,,,,,,,,,,,,l,1,0.7674,"[""0.556"",""0.319"",""0.635"",""0.683""]","[0,1,1,1]",0,34,34,34,1,1,1,,,0,FALSE,,,,,,,,,,,,,,,,,,,,,,,,,,,,,,,
,611cf0fcb571ffef2625d948,627c6fa48879c5db26c34e0e,2022-05-12_04h25.12.280,classification_task,2021.2.3,Win32,59.9268892,627c6715c52fd12f31907bcf,,,,,,,,,,,,,,,,,,,,,,,l,0,1.6314,"[""0.561"",""0.433"",""0.868"",""0.903""]","[0,1,1,1]",0,35,35,35,1,0,0,,,0,FALSE,,,,,,,,,,,,,,,,,,,,,,,,,,,,,,,
,611cf0fcb571ffef2625d948,627c6fa48879c5db26c34e0e,2022-05-12_04h25.12.280,classification_task,2021.2.3,Win32,59.9268892,627c6715c52fd12f31907bcf,,,,,,,,,,,,,,,,,,,,,,,l,0,1.1169,"[""0.561"",""0.371"",""0.823"",""0.965""]","[0,1,1,1]",0,36,36,36,1,0,1,,,0,FALSE,,,,,,,,,,,,,,,,,,,,,,,,,,,,,,,
,611cf0fcb571ffef2625d948,627c6fa48879c5db26c34e0e,2022-05-12_04h25.12.280,classification_task,2021.2.3,Win32,59.9268892,627c6715c52fd12f31907bcf,,,,,,,,,,,,,,,,,,,,,,,a,0,1.0352,"[""0.144"",""0.575"",""0.635"",""0.683""]","[1,0,1,1]",0,37,37,37,1,1,1,,,0,FALSE,,,,,,,,,,,,,,,,,,,,,,,,,,,,,,,
,611cf0fcb571ffef2625d948,627c6fa48879c5db26c34e0e,2022-05-12_04h25.12.280,classification_task,2021.2.3,Win32,59.9268892,627c6715c52fd12f31907bcf,,,,,,,,,,,,,,,,,,,,,,,a,1,0.8162,"[""0.212"",""0.034"",""0.823"",""0.965""]","[1,0,1,1]",0,38,38,38,1,0,1,,,0,FALSE,,,,,,,,,,,,,,,,,,,,,,,,,,,,,,,
,611cf0fcb571ffef2625d948,627c6fa48879c5db26c34e0e,2022-05-12_04h25.12.280,classification_task,2021.2.3,Win32,59.9268892,627c6715c52fd12f31907bcf,,,,,,,,,,,,,,,,,,,,,,,a,0,2.9415,"[""0.071"",""0.258"",""0.732"",""0.783""]","[1,1,0,1]",0,39,39,39,1,1,0,,,0,FALSE,,,,,,,,,,,,,,,,,,,,,,,,,,,,,,,
,611cf0fcb571ffef2625d948,627c6fa48879c5db26c34e0e,2022-05-12_04h25.12.280,classification_task,2021.2.3,Win32,59.9268892,627c6715c52fd12f31907bcf,,,,,,,,,,,,,,,,,,,,,,,l,0,3.1768,"[""0.179"",""0.433"",""0.726"",""0.903""]","[1,1,0,1]",0,40,40,40,1,0,0,,,0,FALSE,,,,,,,,,,,,,,,,,,,,,,,,,,,,,,,
,611cf0fcb571ffef2625d948,627c6fa48879c5db26c34e0e,2022-05-12_04h25.12.280,classification_task,2021.2.3,Win32,59.9268892,627c6715c52fd12f31907bcf,,,,,,,,,,,,,,,,,,,,,,,a,0,1.9266,"[""0.144"",""0.319"",""0.635"",""0.034""]","[1,1,1,0]",0,41,41,41,1,1,1,,,0,FALSE,,,,,,,,,,,,,,,,,,,,,,,,,,,,,,,
,611cf0fcb571ffef2625d948,627c6fa48879c5db26c34e0e,2022-05-12_04h25.12.280,classification_task,2021.2.3,Win32,59.9268892,627c6715c52fd12f31907bcf,,,,,,,,,,,,,,,,,,,,,,,a,1,1.8417,"[""0.212"",""0.371"",""0.561"",""0.965""]","[1,1,0,1]",0,42,42,42,1,0,1,,,0,FALSE,,,,,,,,,,,,,,,,,,,,,,,,,,,,,,,
,611cf0fcb571ffef2625d948,627c6fa48879c5db26c34e0e,2022-05-12_04h25.12.280,classification_task,2021.2.3,Win32,59.9268892,627c6715c52fd12f31907bcf,,,,,,,,,,,,,,,,,,,,,,,a,0,1.5263,"[""0.144"",""0.319"",""0.032"",""0.683""]","[1,1,0,1]",0,43,43,43,1,1,1,,,0,FALSE,,,,,,,,,,,,,,,,,,,,,,,,,,,,,,,
,611cf0fcb571ffef2625d948,627c6fa48879c5db26c34e0e,2022-05-12_04h25.12.280,classification_task,2021.2.3,Win32,59.9268892,627c6715c52fd12f31907bcf,,,,,,,,,,,,,,,,,,,,,,,a,1,1.3704,"[""0.179"",""0.558"",""0.868"",""0.903""]","[1,0,1,1]",0,44,44,44,1,0,0,,,0,FALSE,,,,,,,,,,,,,,,,,,,,,,,,,,,,,,,
,611cf0fcb571ffef2625d948,627c6fa48879c5db26c34e0e,2022-05-12_04h25.12.280,classification_task,2021.2.3,Win32,59.9268892,627c6715c52fd12f31907bcf,,,,,,,,,,,,,,,,,,,,,,,a,0,1.1635,"[""0.071"",""0.258"",""0.520"",""0.032""]","[1,1,1,0]",0,45,45,45,1,1,0,,,0,FALSE,,,,,,,,,,,,,,,,,,,,,,,,,,,,,,,
,611cf0fcb571ffef2625d948,627c6fa48879c5db26c34e0e,2022-05-12_04h25.12.280,classification_task,2021.2.3,Win32,59.9268892,627c6715c52fd12f31907bcf,,,,,,,,,,,,,,,,,,,,,,,a,1,2.2974,"[""0.179"",""0.433"",""0.868"",""0.472""]","[1,1,1,0]",0,46,46,46,1,0,0,,,0,FALSE,,,,,,,,,,,,,,,,,,,,,,,,,,,,,,,
,611cf0fcb571ffef2625d948,627c6fa48879c5db26c34e0e,2022-05-12_04h25.12.280,classification_task,2021.2.3,Win32,59.9268892,627c6715c52fd12f31907bcf,,,,,,,,,,,,,,,,,,,,,,,l,1,1.463,"[""0.071"",""0.597"",""0.520"",""0.783""]","[1,0,1,1]",0,47,47,47,1,1,0,,,0,FALSE,,,,,,,,,,,,,,,,,,,,,,,,,,,,,,,
,611cf0fcb571ffef2625d948,627c6fa48879c5db26c34e0e,2022-05-12_04h25.12.280,classification_task,2021.2.3,Win32,59.9268892,627c6715c52fd12f31907bcf,,,,,,,,,,,,,,,,,,,,,,,l,0,2.0064,"[""0.584"",""0.371"",""0.823"",""0.965""]","[0,1,1,1]",0,48,48,48,1,0,1,,,0,FALSE,,,,,,,,,,,,,,,,,,,,,,,,,,,,,,,
,611cf0fcb571ffef2625d948,627c6fa48879c5db26c34e0e,2022-05-12_04h25.12.280,classification_task,2021.2.3,Win32,59.9268892,627c6715c52fd12f31907bcf,,,,,,,,,,,,,,,,,,,,,,,l,0,1.3052,"[""0.212"",""0.371"",""0.823"",""0.034""]","[1,1,1,0]",0,49,49,49,1,0,1,,,0,FALSE,,,,,,,,,,,,,,,,,,,,,,,,,,,,,,,
,611cf0fcb571ffef2625d948,627c6fa48879c5db26c34e0e,2022-05-12_04h25.12.280,classification_task,2021.2.3,Win32,59.9268892,627c6715c52fd12f31907bcf,,,,,,,,,,,,,,,,,,,,,,,a,1,0.7982,"[""0.179"",""0.433"",""0.732"",""0.903""]","[1,1,0,1]",0,50,50,50,1,0,0,,,0,FALSE,,,,,,,,,,,,,,,,,,,,,,,,,,,,,,,
,611cf0fcb571ffef2625d948,627c6fa48879c5db26c34e0e,2022-05-12_04h25.12.280,classification_task,2021.2.3,Win32,59.9268892,627c6715c52fd12f31907bcf,,,,,,,,,,,,,,,,,,,,,,,a,0,2.4919,"[""0.144"",""0.319"",""0.635"",""0.580""]","[1,1,1,0]",0,51,51,51,1,1,1,,,0,FALSE,,,,,,,,,,,,,,,,,,,,,,,,,,,,,,,
,611cf0fcb571ffef2625d948,627c6fa48879c5db26c34e0e,2022-05-12_04h25.12.280,classification_task,2021.2.3,Win32,59.9268892,627c6715c52fd12f31907bcf,,,,,,,,,,,,,,,,,,,,,,,l,1,0.7438,"[""0.071"",""0.258"",""0.580"",""0.783""]","[1,1,0,1]",0,52,52,52,1,1,0,,,0,FALSE,,,,,,,,,,,,,,,,,,,,,,,,,,,,,,,
,611cf0fcb571ffef2625d948,627c6fa48879c5db26c34e0e,2022-05-12_04h25.12.280,classification_task,2021.2.3,Win32,59.9268892,627c6715c52fd12f31907bcf,,,,,,,,,,,,,,,,,,,,,,,a,1,1.391,"[""0.212"",""0.371"",""0.034"",""0.965""]","[1,1,0,1]",0,53,53,53,1,0,1,,,0,FALSE,,,,,,,,,,,,,,,,,,,,,,,,,,,,,,,
,611cf0fcb571ffef2625d948,627c6fa48879c5db26c34e0e,2022-05-12_04h25.12.280,classification_task,2021.2.3,Win32,59.9268892,627c6715c52fd12f31907bcf,,,,,,,,,,,,,,,,,,,,,,,a,0,1.3017,"[""0.144"",""0.575"",""0.635"",""0.683""]","[1,0,1,1]",0,54,54,54,1,1,1,,,0,FALSE,,,,,,,,,,,,,,,,,,,,,,,,,,,,,,,
,611cf0fcb571ffef2625d948,627c6fa48879c5db26c34e0e,2022-05-12_04h25.12.280,classification_task,2021.2.3,Win32,59.9268892,627c6715c52fd12f31907bcf,,,,,,,,,,,,,,,,,,,,,,,l,0,2.1652,"[""0.179"",""0.433"",""0.868"",""0.584""]","[1,1,1,0]",0,55,55,55,1,0,0,,,0,FALSE,,,,,,,,,,,,,,,,,,,,,,,,,,,,,,,
,611cf0fcb571ffef2625d948,627c6fa48879c5db26c34e0e,2022-05-12_04h25.12.280,classification_task,2021.2.3,Win32,59.9268892,627c6715c52fd12f31907bcf,,,,,,,,,,,,,,,,,,,,,,,l,1,0.6952,"[""0.580"",""0.319"",""0.635"",""0.683""]","[0,1,1,1]",0,56,56,56,1,1,1,,,0,FALSE,,,,,,,,,,,,,,,,,,,,,,,,,,,,,,,
,611cf0fcb571ffef2625d948,627c6fa48879c5db26c34e0e,2022-05-12_04h25.12.280,classification_task,2021.2.3,Win32,59.9268892,627c6715c52fd12f31907bcf,,,,,,,,,,,,,,,,,,,,,,,l,1,3.8817,"[""0.144"",""0.319"",""0.558"",""0.683""]","[1,1,0,1]",0,57,57,57,1,1,1,,,0,FALSE,,,,,,,,,,,,,,,,,,,,,,,,,,,,,,,
,611cf0fcb571ffef2625d948,627c6fa48879c5db26c34e0e,2022-05-12_04h25.12.280,classification_task,2021.2.3,Win32,59.9268892,627c6715c52fd12f31907bcf,,,,,,,,,,,,,,,,,,,,,,,l,0,1.6837,"[""0.179"",""0.467"",""0.868"",""0.903""]","[1,0,1,1]",0,58,58,58,1,0,0,,,0,FALSE,,,,,,,,,,,,,,,,,,,,,,,,,,,,,,,
,611cf0fcb571ffef2625d948,627c6fa48879c5db26c34e0e,2022-05-12_04h25.12.280,classification_task,2021.2.3,Win32,59.9268892,627c6715c52fd12f31907bcf,,,,,,,,,,,,,,,,,,,,,,,l,1,1.6509,"[""0.575"",""0.258"",""0.520"",""0.783""]","[0,1,1,1]",0,59,59,59,1,1,0,,,0,FALSE,,,,,,,,,,,,,,,,,,,,,,,,,,,,,,,
,611cf0fcb571ffef2625d948,627c6fa48879c5db26c34e0e,2022-05-12_04h25.12.280,classification_task,2021.2.3,Win32,59.9268892,627c6715c52fd12f31907bcf,,,,,,,,,,,,,,,,,,,,,,,l,1,1.2646,"[""0.071"",""0.726"",""0.520"",""0.783""]","[1,0,1,1]",0,60,60,60,1,1,0,,,0,FALSE,,,,,,,,,,,,,,,,,,,,,,,,,,,,,,,
,611cf0fcb571ffef2625d948,627c6fa48879c5db26c34e0e,2022-05-12_04h25.12.280,classification_task,2021.2.3,Win32,59.9268892,627c6715c52fd12f31907bcf,,,,,,,,,,,,,,,,,,,,,,,l,0,2.2104,"[""0.212"",""0.561"",""0.823"",""0.965""]","[1,0,1,1]",0,61,61,61,1,0,1,,,0,FALSE,,,,,,,,,,,,,,,,,,,,,,,,,,,,,,,
,611cf0fcb571ffef2625d948,627c6fa48879c5db26c34e0e,2022-05-12_04h25.12.280,classification_task,2021.2.3,Win32,59.9268892,627c6715c52fd12f31907bcf,,,,,,,,,,,,,,,,,,,,,,,a,0,0.8684,"[""0.071"",""0.258"",""0.520"",""0.472""]","[1,1,1,0]",0,62,62,62,1,1,0,,,0,FALSE,,,,,,,,,,,,,,,,,,,,,,,,,,,,,,,
,611cf0fcb571ffef2625d948,627c6fa48879c5db26c34e0e,2022-05-12_04h25.12.280,classification_task,2021.2.3,Win32,59.9268892,627c6715c52fd12f31907bcf,,,,,,,,,,,,,,,,,,,,,,,a,1,0.9646,"[""0.032"",""0.433"",""0.868"",""0.903""]","[0,1,1,1]",0,63,63,63,1,0,0,,,0,FALSE,,,,,,,,,,,,,,,,,,,,,,,,,,,,,,,
,611cf0fcb571ffef2625d948,627c6fa48879c5db26c34e0e,2022-05-12_04h25.12.280,classification_task,2021.2.3,Win32,59.9268892,627c6715c52fd12f31907bcf,,,,,,,,,,,,,,,,,,,,,,,,,,,,,,,,,,,,,,,0, ,,0,10,559.6561,0,0,0,0,1,2,1,,,,,,,,,,,,,,,,,,
,611cf0fcb571ffef2625d948,627c6fa48879c5db26c34e0e,2022-05-12_04h25.12.280,classification_task,2021.2.3,Win32,59.9268892,627c6715c52fd12f31907bcf,,,,,,,,,,,,,,,,,,,,,,,,,,,,,,,,,,,,,,,1,  ,,0,10,555.6031,0,0,0,0,1,2,1,,,,,,,,,,,,,,,,,,
,611cf0fcb571ffef2625d948,627c6fa48879c5db26c34e0e,2022-05-12_04h25.12.280,classification_task,2021.2.3,Win32,59.9268892,627c6715c52fd12f31907bcf,,,,,,,,,,,,,,,,,,,,,,,,,,,,,,,,,,,,,,,2,  ,,0,7.376818783,568.4055,0,0,0,0,1,2,1,,,,,,,,,,,,,,,,,,
,611cf0fcb571ffef2625d948,627c6fa48879c5db26c34e0e,2022-05-12_04h25.12.280,classification_task,2021.2.3,Win32,59.9268892,627c6715c52fd12f31907bcf,,,,,,,,,,,,,,,,,,,,,,,,,,,,,,,,,,,,,,,,,,,,,0,0,0,0,1,,1,,,,,,,,,,,,,,,,,,
,611cf0fcb571ffef2625d948,627c6fa48879c5db26c34e0e,2022-05-12_04h25.12.280,classification_task,2021.2.3,Win32,59.9268892,627c6715c52fd12f31907bcf,,,,,,,,,,,,,,,,,,,,,space,105.7242,a,1,2.5544,"[""0.732"",""0.433"",""0.868"",""0.903""]","[0,1,1,1]",0,0,0,0,1,0,0,,,0,FALSE,,,,,,,,,,,,,,,,,,,,,,,,,,,,,,,
,611cf0fcb571ffef2625d948,627c6fa48879c5db26c34e0e,2022-05-12_04h25.12.280,classification_task,2021.2.3,Win32,59.9268892,627c6715c52fd12f31907bcf,,,,,,,,,,,,,,,,,,,,,,,a,0,3.2089,"[""0.071"",""0.258"",""0.580"",""0.783""]","[1,1,0,1]",0,1,1,1,1,1,0,,,0,FALSE,,,,,,,,,,,,,,,,,,,,,,,,,,,,,,,
,611cf0fcb571ffef2625d948,627c6fa48879c5db26c34e0e,2022-05-12_04h25.12.280,classification_task,2021.2.3,Win32,59.9268892,627c6715c52fd12f31907bcf,,,,,,,,,,,,,,,,,,,,,,,l,1,2.5397,"[""0.144"",""0.319"",""0.635"",""0.467""]","[1,1,1,0]",0,2,2,2,1,1,1,,,0,FALSE,,,,,,,,,,,,,,,,,,,,,,,,,,,,,,,
,611cf0fcb571ffef2625d948,627c6fa48879c5db26c34e0e,2022-05-12_04h25.12.280,classification_task,2021.2.3,Win32,59.9268892,627c6715c52fd12f31907bcf,,,,,,,,,,,,,,,,,,,,,,,a,0,2.182,"[""0.734"",""0.319"",""0.635"",""0.683""]","[0,1,1,1]",0,3,3,3,1,1,1,,,0,FALSE,,,,,,,,,,,,,,,,,,,,,,,,,,,,,,,
,611cf0fcb571ffef2625d948,627c6fa48879c5db26c34e0e,2022-05-12_04h25.12.280,classification_task,2021.2.3,Win32,59.9268892,627c6715c52fd12f31907bcf,,,,,,,,,,,,,,,,,,,,,,,a,0,1.9862,"[""0.144"",""0.319"",""0.556"",""0.683""]","[1,1,0,1]",0,4,4,4,1,1,1,,,0,FALSE,,,,,,,,,,,,,,,,,,,,,,,,,,,,,,,
,611cf0fcb571ffef2625d948,627c6fa48879c5db26c34e0e,2022-05-12_04h25.12.280,classification_task,2021.2.3,Win32,59.9268892,627c6715c52fd12f31907bcf,,,,,,,,,,,,,,,,,,,,,,,l,0,0.8331,"[""0.179"",""0.433"",""0.558"",""0.903""]","[1,1,0,1]",0,5,5,5,1,0,0,,,0,FALSE,,,,,,,,,,,,,,,,,,,,,,,,,,,,,,,
,611cf0fcb571ffef2625d948,627c6fa48879c5db26c34e0e,2022-05-12_04h25.12.280,classification_task,2021.2.3,Win32,59.9268892,627c6715c52fd12f31907bcf,,,,,,,,,,,,,,,,,,,,,,,a,0,5.9936,"[""0.071"",""0.556"",""0.520"",""0.783""]","[1,0,1,1]",0,6,6,6,1,1,0,,,0,FALSE,,,,,,,,,,,,,,,,,,,,,,,,,,,,,,,
,611cf0fcb571ffef2625d948,627c6fa48879c5db26c34e0e,2022-05-12_04h25.12.280,classification_task,2021.2.3,Win32,59.9268892,627c6715c52fd12f31907bcf,,,,,,,,,,,,,,,,,,,,,,,l,1,2.3782,"[""0.144"",""0.472"",""0.635"",""0.683""]","[1,0,1,1]",0,7,7,7,1,1,1,,,0,FALSE,,,,,,,,,,,,,,,,,,,,,,,,,,,,,,,
,611cf0fcb571ffef2625d948,627c6fa48879c5db26c34e0e,2022-05-12_04h25.12.280,classification_task,2021.2.3,Win32,59.9268892,627c6715c52fd12f31907bcf,,,,,,,,,,,,,,,,,,,,,,,l,0,2.9773,"[""0.179"",""0.433"",""0.868"",""0.734""]","[1,1,1,0]",0,8,8,8,1,0,0,,,0,FALSE,,,,,,,,,,,,,,,,,,,,,,,,,,,,,,,
,611cf0fcb571ffef2625d948,627c6fa48879c5db26c34e0e,2022-05-12_04h25.12.280,classification_task,2021.2.3,Win32,59.9268892,627c6715c52fd12f31907bcf,,,,,,,,,,,,,,,,,,,,,,,a,1,1.0245,"[""0.032"",""0.371"",""0.823"",""0.965""]","[0,1,1,1]",0,9,9,9,1,0,1,,,0,FALSE,,,,,,,,,,,,,,,,,,,,,,,,,,,,,,,
,611cf0fcb571ffef2625d948,627c6fa48879c5db26c34e0e,2022-05-12_04h25.12.280,classification_task,2021.2.3,Win32,59.9268892,627c6715c52fd12f31907bcf,,,,,,,,,,,,,,,,,,,,,,,a,1,1.7114,"[""0.212"",""0.473"",""0.823"",""0.965""]","[1,0,1,1]",0,10,10,10,1,0,1,,,0,FALSE,,,,,,,,,,,,,,,,,,,,,,,,,,,,,,,
,611cf0fcb571ffef2625d948,627c6fa48879c5db26c34e0e,2022-05-12_04h25.12.280,classification_task,2021.2.3,Win32,59.9268892,627c6715c52fd12f31907bcf,,,,,,,,,,,,,,,,,,,,,,,l,0,1.8921,"[""0.212"",""0.371"",""0.558"",""0.965""]","[1,1,0,1]",0,11,11,11,1,0,1,,,0,FALSE,,,,,,,,,,,,,,,,,,,,,,,,,,,,,,,
,611cf0fcb571ffef2625d948,627c6fa48879c5db26c34e0e,2022-05-12_04h25.12.280,classification_task,2021.2.3,Win32,59.9268892,627c6715c52fd12f31907bcf,,,,,,,,,,,,,,,,,,,,,,,a,0,0.9991,"[""0.071"",""0.258"",""0.520"",""0.561""]","[1,1,1,0]",0,12,12,12,1,1,0,,,0,FALSE,,,,,,,,,,,,,,,,,,,,,,,,,,,,,,,
,611cf0fcb571ffef2625d948,627c6fa48879c5db26c34e0e,2022-05-12_04h25.12.280,classification_task,2021.2.3,Win32,59.9268892,627c6715c52fd12f31907bcf,,,,,,,,,,,,,,,,,,,,,,,l,0,1.6467,"[""0.179"",""0.556"",""0.868"",""0.903""]","[1,0,1,1]",0,13,13,13,1,0,0,,,0,FALSE,,,,,,,,,,,,,,,,,,,,,,,,,,,,,,,
,611cf0fcb571ffef2625d948,627c6fa48879c5db26c34e0e,2022-05-12_04h25.12.280,classification_task,2021.2.3,Win32,59.9268892,627c6715c52fd12f31907bcf,,,,,,,,,,,,,,,,,,,,,,,a,0,0.7155,"[""0.469"",""0.258"",""0.520"",""0.783""]","[0,1,1,1]",0,14,14,14,1,1,0,,,0,FALSE,,,,,,,,,,,,,,,,,,,,,,,,,,,,,,,
,611cf0fcb571ffef2625d948,627c6fa48879c5db26c34e0e,2022-05-12_04h25.12.280,classification_task,2021.2.3,Win32,59.9268892,627c6715c52fd12f31907bcf,,,,,,,,,,,,,,,,,,,,,,,a,1,0.6631,"[""0.212"",""0.371"",""0.823"",""0.734""]","[1,1,1,0]",0,15,15,15,1,0,1,,,0,FALSE,,,,,,,,,,,,,,,,,,,,,,,,,,,,,,,
,611cf0fcb571ffef2625d948,627c6fa48879c5db26c34e0e,2022-05-12_04h25.12.280,classification_task,2021.2.3,Win32,59.9268892,627c6715c52fd12f31907bcf,,,,,,,,,,,,,,,,,,,,,,,a,0,1.5097,"[""0.575"",""0.319"",""0.635"",""0.683""]","[0,1,1,1]",0,16,16,16,1,1,1,,,0,FALSE,,,,,,,,,,,,,,,,,,,,,,,,,,,,,,,
,611cf0fcb571ffef2625d948,627c6fa48879c5db26c34e0e,2022-05-12_04h25.12.280,classification_task,2021.2.3,Win32,59.9268892,627c6715c52fd12f31907bcf,,,,,,,,,,,,,,,,,,,,,,,a,0,1.5064,"[""0.071"",""0.556"",""0.520"",""0.783""]","[1,0,1,1]",0,17,17,17,1,1,0,,,0,FALSE,,,,,,,,,,,,,,,,,,,,,,,,,,,,,,,
,611cf0fcb571ffef2625d948,627c6fa48879c5db26c34e0e,2022-05-12_04h25.12.280,classification_task,2021.2.3,Win32,59.9268892,627c6715c52fd12f31907bcf,,,,,,,,,,,,,,,,,,,,,,,a,0,1.6433,"[""0.034"",""0.258"",""0.520"",""0.783""]","[0,1,1,1]",0,18,18,18,1,1,0,,,0,FALSE,,,,,,,,,,,,,,,,,,,,,,,,,,,,,,,
,611cf0fcb571ffef2625d948,627c6fa48879c5db26c34e0e,2022-05-12_04h25.12.280,classification_task,2021.2.3,Win32,59.9268892,627c6715c52fd12f31907bcf,,,,,,,,,,,,,,,,,,,,,,,a,1,1.0433,"[""0.179"",""0.726"",""0.868"",""0.903""]","[1,0,1,1]",0,19,19,19,1,0,0,,,0,FALSE,,,,,,,,,,,,,,,,,,,,,,,,,,,,,,,
,611cf0fcb571ffef2625d948,627c6fa48879c5db26c34e0e,2022-05-12_04h25.12.280,classification_task,2021.2.3,Win32,59.9268892,627c6715c52fd12f31907bcf,,,,,,,,,,,,,,,,,,,,,,,a,0,1.7612,"[""0.144"",""0.319"",""0.635"",""0.556""]","[1,1,1,0]",0,20,20,20,1,1,1,,,0,FALSE,,,,,,,,,,,,,,,,,,,,,,,,,,,,,,,
,611cf0fcb571ffef2625d948,627c6fa48879c5db26c34e0e,2022-05-12_04h25.12.280,classification_task,2021.2.3,Win32,59.9268892,627c6715c52fd12f31907bcf,,,,,,,,,,,,,,,,,,,,,,,l,0,0.8516,"[""0.212"",""0.371"",""0.034"",""0.965""]","[1,1,0,1]",0,21,21,21,1,0,1,,,0,FALSE,,,,,,,,,,,,,,,,,,,,,,,,,,,,,,,
,611cf0fcb571ffef2625d948,627c6fa48879c5db26c34e0e,2022-05-12_04h25.12.280,classification_task,2021.2.3,Win32,59.9268892,627c6715c52fd12f31907bcf,,,,,,,,,,,,,,,,,,,,,,,l,1,0.5645,"[""0.144"",""0.319"",""0.469"",""0.683""]","[1,1,0,1]",0,22,22,22,1,1,1,,,0,FALSE,,,,,,,,,,,,,,,,,,,,,,,,,,,,,,,
,611cf0fcb571ffef2625d948,627c6fa48879c5db26c34e0e,2022-05-12_04h25.12.280,classification_task,2021.2.3,Win32,59.9268892,627c6715c52fd12f31907bcf,,,,,,,,,,,,,,,,,,,,,,,l,0,1.4613,"[""0.212"",""0.371"",""0.823"",""0.558""]","[1,1,1,0]",0,23,23,23,1,0,1,,,0,FALSE,,,,,,,,,,,,,,,,,,,,,,,,,,,,,,,
,611cf0fcb571ffef2625d948,627c6fa48879c5db26c34e0e,2022-05-12_04h25.12.280,classification_task,2021.2.3,Win32,59.9268892,627c6715c52fd12f31907bcf,,,,,,,,,,,,,,,,,,,,,,,l,1,1.5838,"[""0.071"",""0.258"",""0.520"",""0.561""]","[1,1,1,0]",0,24,24,24,1,1,0,,,0,FALSE,,,,,,,,,,,,,,,,,,,,,,,,,,,,,,,
,611cf0fcb571ffef2625d948,627c6fa48879c5db26c34e0e,2022-05-12_04h25.12.280,classification_task,2021.2.3,Win32,59.9268892,627c6715c52fd12f31907bcf,,,,,,,,,,,,,,,,,,,,,,,a,0,2.4136,"[""0.144"",""0.473"",""0.635"",""0.683""]","[1,0,1,1]",0,25,25,25,1,1,1,,,0,FALSE,,,,,,,,,,,,,,,,,,,,,,,,,,,,,,,
,611cf0fcb571ffef2625d948,627c6fa48879c5db26c34e0e,2022-05-12_04h25.12.280,classification_task,2021.2.3,Win32,59.9268892,627c6715c52fd12f31907bcf,,,,,,,,,,,,,,,,,,,,,,,l,0,2.0893,"[""0.032"",""0.371"",""0.823"",""0.965""]","[0,1,1,1]",0,26,26,26,1,0,1,,,0,FALSE,,,,,,,,,,,,,,,,,,,,,,,,,,,,,,,
,611cf0fcb571ffef2625d948,627c6fa48879c5db26c34e0e,2022-05-12_04h25.12.280,classification_task,2021.2.3,Win32,59.9268892,627c6715c52fd12f31907bcf,,,,,,,,,,,,,,,,,,,,,,,l,0,1.3614,"[""0.212"",""0.467"",""0.823"",""0.965""]","[1,0,1,1]",0,27,27,27,1,0,1,,,0,FALSE,,,,,,,,,,,,,,,,,,,,,,,,,,,,,,,
,611cf0fcb571ffef2625d948,627c6fa48879c5db26c34e0e,2022-05-12_04h25.12.280,classification_task,2021.2.3,Win32,59.9268892,627c6715c52fd12f31907bcf,,,,,,,,,,,,,,,,,,,,,,,a,0,0.6623,"[""0.071"",""0.258"",""0.558"",""0.783""]","[1,1,0,1]",0,28,28,28,1,1,0,,,0,FALSE,,,,,,,,,,,,,,,,,,,,,,,,,,,,,,,
,611cf0fcb571ffef2625d948,627c6fa48879c5db26c34e0e,2022-05-12_04h25.12.280,classification_task,2021.2.3,Win32,59.9268892,627c6715c52fd12f31907bcf,,,,,,,,,,,,,,,,,,,,,,,l,0,0.2774,"[""0.179"",""0.433"",""0.597"",""0.903""]","[1,1,0,1]",0,29,29,29,1,0,0,,,0,FALSE,,,,,,,,,,,,,,,,,,,,,,,,,,,,,,,
,611cf0fcb571ffef2625d948,627c6fa48879c5db26c34e0e,2022-05-12_04h25.12.280,classification_task,2021.2.3,Win32,59.9268892,627c6715c52fd12f31907bcf,,,,,,,,,,,,,,,,,,,,,,,l,0,0.3948,"[""0.558"",""0.433"",""0.868"",""0.903""]","[0,1,1,1]",0,30,30,30,1,0,0,,,0,FALSE,,,,,,,,,,,,,,,,,,,,,,,,,,,,,,,
,611cf0fcb571ffef2625d948,627c6fa48879c5db26c34e0e,2022-05-12_04h25.12.280,classification_task,2021.2.3,Win32,59.9268892,627c6715c52fd12f31907bcf,,,,,,,,,,,,,,,,,,,,,,,l,0,0.3136,"[""0.179"",""0.433"",""0.868"",""0.732""]","[1,1,1,0]",0,31,31,31,1,0,0,,,0,FALSE,,,,,,,,,,,,,,,,,,,,,,,,,,,,,,,
,611cf0fcb571ffef2625d948,627c6fa48879c5db26c34e0e,2022-05-12_04h25.12.280,classification_task,2021.2.3,Win32,59.9268892,627c6715c52fd12f31907bcf,,,,,,,,,,,,,,,,,,,,,,,l,0,0.3883,"[""0.597"",""0.433"",""0.868"",""0.903""]","[0,1,1,1]",0,32,32,32,1,0,0,,,0,FALSE,,,,,,,,,,,,,,,,,,,,,,,,,,,,,,,
,611cf0fcb571ffef2625d948,627c6fa48879c5db26c34e0e,2022-05-12_04h25.12.280,classification_task,2021.2.3,Win32,59.9268892,627c6715c52fd12f31907bcf,,,,,,,,,,,,,,,,,,,,,,,l,1,0.4036,"[""0.144"",""0.319"",""0.467"",""0.683""]","[1,1,0,1]",0,33,33,33,1,1,1,,,0,FALSE,,,,,,,,,,,,,,,,,,,,,,,,,,,,,,,
,611cf0fcb571ffef2625d948,627c6fa48879c5db26c34e0e,2022-05-12_04h25.12.280,classification_task,2021.2.3,Win32,59.9268892,627c6715c52fd12f31907bcf,,,,,,,,,,,,,,,,,,,,,,,l,0,2.2739,"[""0.179"",""0.469"",""0.868"",""0.903""]","[1,0,1,1]",0,34,34,34,1,0,0,,,0,FALSE,,,,,,,,,,,,,,,,,,,,,,,,,,,,,,,
,611cf0fcb571ffef2625d948,627c6fa48879c5db26c34e0e,2022-05-12_04h25.12.280,classification_task,2021.2.3,Win32,59.9268892,627c6715c52fd12f31907bcf,,,,,,,,,,,,,,,,,,,,,,,l,1,1.3098,"[""0.071"",""0.258"",""0.520"",""0.034""]","[1,1,1,0]",0,35,35,35,1,1,0,,,0,FALSE,,,,,,,,,,,,,,,,,,,,,,,,,,,,,,,
,611cf0fcb571ffef2625d948,627c6fa48879c5db26c34e0e,2022-05-12_04h25.12.280,classification_task,2021.2.3,Win32,59.9268892,627c6715c52fd12f31907bcf,,,,,,,,,,,,,,,,,,,,,,,l,0,2.1116,"[""0.179"",""0.433"",""0.868"",""0.472""]","[1,1,1,0]",0,36,36,36,1,0,0,,,0,FALSE,,,,,,,,,,,,,,,,,,,,,,,,,,,,,,,
,611cf0fcb571ffef2625d948,627c6fa48879c5db26c34e0e,2022-05-12_04h25.12.280,classification_task,2021.2.3,Win32,59.9268892,627c6715c52fd12f31907bcf,,,,,,,,,,,,,,,,,,,,,,,l,1,0.6561,"[""0.071"",""0.258"",""0.575"",""0.783""]","[1,1,0,1]",0,37,37,37,1,1,0,,,0,FALSE,,,,,,,,,,,,,,,,,,,,,,,,,,,,,,,
,611cf0fcb571ffef2625d948,627c6fa48879c5db26c34e0e,2022-05-12_04h25.12.280,classification_task,2021.2.3,Win32,59.9268892,627c6715c52fd12f31907bcf,,,,,,,,,,,,,,,,,,,,,,,l,0,3.0159,"[""0.212"",""0.034"",""0.823"",""0.965""]","[1,0,1,1]",0,38,38,38,1,0,1,,,0,FALSE,,,,,,,,,,,,,,,,,,,,,,,,,,,,,,,
,611cf0fcb571ffef2625d948,627c6fa48879c5db26c34e0e,2022-05-12_04h25.12.280,classification_task,2021.2.3,Win32,59.9268892,627c6715c52fd12f31907bcf,,,,,,,,,,,,,,,,,,,,,,,l,1,0.7945,"[""0.597"",""0.258"",""0.520"",""0.783""]","[0,1,1,1]",0,39,39,39,1,1,0,,,0,FALSE,,,,,,,,,,,,,,,,,,,,,,,,,,,,,,,
,611cf0fcb571ffef2625d948,627c6fa48879c5db26c34e0e,2022-05-12_04h25.12.280,classification_task,2021.2.3,Win32,59.9268892,627c6715c52fd12f31907bcf,,,,,,,,,,,,,,,,,,,,,,,l,1,2.1769,"[""0.144"",""0.319"",""0.635"",""0.580""]","[1,1,1,0]",0,40,40,40,1,1,1,,,0,FALSE,,,,,,,,,,,,,,,,,,,,,,,,,,,,,,,
,611cf0fcb571ffef2625d948,627c6fa48879c5db26c34e0e,2022-05-12_04h25.12.280,classification_task,2021.2.3,Win32,59.9268892,627c6715c52fd12f31907bcf,,,,,,,,,,,,,,,,,,,,,,,a,0,1.6574,"[""0.144"",""0.726"",""0.635"",""0.683""]","[1,0,1,1]",0,41,41,41,1,1,1,,,0,FALSE,,,,,,,,,,,,,,,,,,,,,,,,,,,,,,,
,611cf0fcb571ffef2625d948,627c6fa48879c5db26c34e0e,2022-05-12_04h25.12.280,classification_task,2021.2.3,Win32,59.9268892,627c6715c52fd12f31907bcf,,,,,,,,,,,,,,,,,,,,,,,l,0,1.6261,"[""0.179"",""0.433"",""0.032"",""0.903""]","[1,1,0,1]",0,42,42,42,1,0,0,,,0,FALSE,,,,,,,,,,,,,,,,,,,,,,,,,,,,,,,
,611cf0fcb571ffef2625d948,627c6fa48879c5db26c34e0e,2022-05-12_04h25.12.280,classification_task,2021.2.3,Win32,59.9268892,627c6715c52fd12f31907bcf,,,,,,,,,,,,,,,,,,,,,,,l,0,0.7104,"[""0.212"",""0.371"",""0.469"",""0.965""]","[1,1,0,1]",0,43,43,43,1,0,1,,,0,FALSE,,,,,,,,,,,,,,,,,,,,,,,,,,,,,,,
,611cf0fcb571ffef2625d948,627c6fa48879c5db26c34e0e,2022-05-12_04h25.12.280,classification_task,2021.2.3,Win32,59.9268892,627c6715c52fd12f31907bcf,,,,,,,,,,,,,,,,,,,,,,,l,0,0.7883,"[""0.212"",""0.371"",""0.823"",""0.734""]","[1,1,1,0]",0,44,44,44,1,0,1,,,0,FALSE,,,,,,,,,,,,,,,,,,,,,,,,,,,,,,,
,611cf0fcb571ffef2625d948,627c6fa48879c5db26c34e0e,2022-05-12_04h25.12.280,classification_task,2021.2.3,Win32,59.9268892,627c6715c52fd12f31907bcf,,,,,,,,,,,,,,,,,,,,,,,l,1,0.5954,"[""0.575"",""0.319"",""0.635"",""0.683""]","[0,1,1,1]",0,45,45,45,1,1,1,,,0,FALSE,,,,,,,,,,,,,,,,,,,,,,,,,,,,,,,
,611cf0fcb571ffef2625d948,627c6fa48879c5db26c34e0e,2022-05-12_04h25.12.280,classification_task,2021.2.3,Win32,59.9268892,627c6715c52fd12f31907bcf,,,,,,,,,,,,,,,,,,,,,,,a,0,0.9664,"[""0.071"",""0.469"",""0.520"",""0.783""]","[1,0,1,1]",0,46,46,46,1,1,0,,,0,FALSE,,,,,,,,,,,,,,,,,,,,,,,,,,,,,,,
,611cf0fcb571ffef2625d948,627c6fa48879c5db26c34e0e,2022-05-12_04h25.12.280,classification_task,2021.2.3,Win32,59.9268892,627c6715c52fd12f31907bcf,,,,,,,,,,,,,,,,,,,,,,,a,1,0.3247,"[""0.469"",""0.371"",""0.823"",""0.965""]","[0,1,1,1]",0,47,47,47,1,0,1,,,0,FALSE,,,,,,,,,,,,,,,,,,,,,,,,,,,,,,,
,611cf0fcb571ffef2625d948,627c6fa48879c5db26c34e0e,2022-05-12_04h25.12.280,classification_task,2021.2.3,Win32,59.9268892,627c6715c52fd12f31907bcf,,,,,,,,,,,,,,,,,,,,,,,a,0,1.0886,"[""0.071"",""0.258"",""0.472"",""0.783""]","[1,1,0,1]",0,48,48,48,1,1,0,,,0,FALSE,,,,,,,,,,,,,,,,,,,,,,,,,,,,,,,
,611cf0fcb571ffef2625d948,627c6fa48879c5db26c34e0e,2022-05-12_04h25.12.280,classification_task,2021.2.3,Win32,59.9268892,627c6715c52fd12f31907bcf,,,,,,,,,,,,,,,,,,,,,,,l,1,0.4538,"[""0.144"",""0.580"",""0.635"",""0.683""]","[1,0,1,1]",0,49,49,49,1,1,1,,,0,FALSE,,,,,,,,,,,,,,,,,,,,,,,,,,,,,,,
,611cf0fcb571ffef2625d948,627c6fa48879c5db26c34e0e,2022-05-12_04h25.12.280,classification_task,2021.2.3,Win32,59.9268892,627c6715c52fd12f31907bcf,,,,,,,,,,,,,,,,,,,,,,,l,0,1.1443,"[""0.472"",""0.371"",""0.823"",""0.965""]","[0,1,1,1]",0,50,50,50,1,0,1,,,0,FALSE,,,,,,,,,,,,,,,,,,,,,,,,,,,,,,,
,611cf0fcb571ffef2625d948,627c6fa48879c5db26c34e0e,2022-05-12_04h25.12.280,classification_task,2021.2.3,Win32,59.9268892,627c6715c52fd12f31907bcf,,,,,,,,,,,,,,,,,,,,,,,a,1,0.6281,"[""0.212"",""0.734"",""0.823"",""0.965""]","[1,0,1,1]",0,51,51,51,1,0,1,,,0,FALSE,,,,,,,,,,,,,,,,,,,,,,,,,,,,,,,
,611cf0fcb571ffef2625d948,627c6fa48879c5db26c34e0e,2022-05-12_04h25.12.280,classification_task,2021.2.3,Win32,59.9268892,627c6715c52fd12f31907bcf,,,,,,,,,,,,,,,,,,,,,,,a,1,0.7628,"[""0.179"",""0.433"",""0.868"",""0.034""]","[1,1,1,0]",0,52,52,52,1,0,0,,,0,FALSE,,,,,,,,,,,,,,,,,,,,,,,,,,,,,,,
,611cf0fcb571ffef2625d948,627c6fa48879c5db26c34e0e,2022-05-12_04h25.12.280,classification_task,2021.2.3,Win32,59.9268892,627c6715c52fd12f31907bcf,,,,,,,,,,,,,,,,,,,,,,,a,0,1.0424,"[""0.071"",""0.258"",""0.520"",""0.469""]","[1,1,1,0]",0,53,53,53,1,1,0,,,0,FALSE,,,,,,,,,,,,,,,,,,,,,,,,,,,,,,,
,611cf0fcb571ffef2625d948,627c6fa48879c5db26c34e0e,2022-05-12_04h25.12.280,classification_task,2021.2.3,Win32,59.9268892,627c6715c52fd12f31907bcf,,,,,,,,,,,,,,,,,,,,,,,l,1,0.6294,"[""0.071"",""0.032"",""0.520"",""0.783""]","[1,0,1,1]",0,54,54,54,1,1,0,,,0,FALSE,,,,,,,,,,,,,,,,,,,,,,,,,,,,,,,
,611cf0fcb571ffef2625d948,627c6fa48879c5db26c34e0e,2022-05-12_04h25.12.280,classification_task,2021.2.3,Win32,59.9268892,627c6715c52fd12f31907bcf,,,,,,,,,,,,,,,,,,,,,,,l,0,1.3456,"[""0.179"",""0.597"",""0.868"",""0.903""]","[1,0,1,1]",0,55,55,55,1,0,0,,,0,FALSE,,,,,,,,,,,,,,,,,,,,,,,,,,,,,,,
,611cf0fcb571ffef2625d948,627c6fa48879c5db26c34e0e,2022-05-12_04h25.12.280,classification_task,2021.2.3,Win32,59.9268892,627c6715c52fd12f31907bcf,,,,,,,,,,,,,,,,,,,,,,,a,1,0.0659,"[""0.212"",""0.371"",""0.580"",""0.965""]","[1,1,0,1]",0,56,56,56,1,0,1,,,0,FALSE,,,,,,,,,,,,,,,,,,,,,,,,,,,,,,,
,611cf0fcb571ffef2625d948,627c6fa48879c5db26c34e0e,2022-05-12_04h25.12.280,classification_task,2021.2.3,Win32,59.9268892,627c6715c52fd12f31907bcf,,,,,,,,,,,,,,,,,,,,,,,l,1,0.4739,"[""0.558"",""0.319"",""0.635"",""0.683""]","[0,1,1,1]",0,57,57,57,1,1,1,,,0,FALSE,,,,,,,,,,,,,,,,,,,,,,,,,,,,,,,
,611cf0fcb571ffef2625d948,627c6fa48879c5db26c34e0e,2022-05-12_04h25.12.280,classification_task,2021.2.3,Win32,59.9268892,627c6715c52fd12f31907bcf,,,,,,,,,,,,,,,,,,,,,,,a,0,0.911,"[""0.144"",""0.319"",""0.597"",""0.683""]","[1,1,0,1]",0,58,58,58,1,1,1,,,0,FALSE,,,,,,,,,,,,,,,,,,,,,,,,,,,,,,,
,611cf0fcb571ffef2625d948,627c6fa48879c5db26c34e0e,2022-05-12_04h25.12.280,classification_task,2021.2.3,Win32,59.9268892,627c6715c52fd12f31907bcf,,,,,,,,,,,,,,,,,,,,,,,l,0,7.1286,"[""0.179"",""0.433"",""0.726"",""0.903""]","[1,1,0,1]",0,59,59,59,1,0,0,,,0,FALSE,,,,,,,,,,,,,,,,,,,,,,,,,,,,,,,
,611cf0fcb571ffef2625d948,627c6fa48879c5db26c34e0e,2022-05-12_04h25.12.280,classification_task,2021.2.3,Win32,59.9268892,627c6715c52fd12f31907bcf,,,,,,,,,,,,,,,,,,,,,,,l,0,0.8323,"[""0.212"",""0.371"",""0.823"",""0.032""]","[1,1,1,0]",0,60,60,60,1,0,1,,,0,FALSE,,,,,,,,,,,,,,,,,,,,,,,,,,,,,,,
,611cf0fcb571ffef2625d948,627c6fa48879c5db26c34e0e,2022-05-12_04h25.12.280,classification_task,2021.2.3,Win32,59.9268892,627c6715c52fd12f31907bcf,,,,,,,,,,,,,,,,,,,,,,,l,0,0.3962,"[""0.575"",""0.433"",""0.868"",""0.903""]","[0,1,1,1]",0,61,61,61,1,0,0,,,0,FALSE,,,,,,,,,,,,,,,,,,,,,,,,,,,,,,,
,611cf0fcb571ffef2625d948,627c6fa48879c5db26c34e0e,2022-05-12_04h25.12.280,classification_task,2021.2.3,Win32,59.9268892,627c6715c52fd12f31907bcf,,,,,,,,,,,,,,,,,,,,,,,a,0,0.5135,"[""0.558"",""0.258"",""0.520"",""0.783""]","[0,1,1,1]",0,62,62,62,1,1,0,,,0,FALSE,,,,,,,,,,,,,,,,,,,,,,,,,,,,,,,
,611cf0fcb571ffef2625d948,627c6fa48879c5db26c34e0e,2022-05-12_04h25.12.280,classification_task,2021.2.3,Win32,59.9268892,627c6715c52fd12f31907bcf,,,,,,,,,,,,,,,,,,,,,,,a,0,0.3296,"[""0.144"",""0.319"",""0.635"",""0.032""]","[1,1,1,0]",0,63,63,63,1,1,1,,,0,FALSE,,,,,,,,,,,,,,,,,,,,,,,,,,,,,,,
,611cf0fcb571ffef2625d948,627c6fa48879c5db26c34e0e,2022-05-12_04h25.12.280,classification_task,2021.2.3,Win32,59.9268892,627c6715c52fd12f31907bcf,,,,,,,,,,,,,,,,,,,,,,,,,,,,,,,,,,,,,,,0, ,,0,9.788084215,270.5051,0,1,1,1,1,2,2,,,,,,,,,,,,,,,,,,
,611cf0fcb571ffef2625d948,627c6fa48879c5db26c34e0e,2022-05-12_04h25.12.280,classification_task,2021.2.3,Win32,59.9268892,627c6715c52fd12f31907bcf,,,,,,,,,,,,,,,,,,,,,,,,,,,,,,,,,,,,,,,1,  ,,0,10,277.1358,0,1,1,1,1,2,2,,,,,,,,,,,,,,,,,,
,611cf0fcb571ffef2625d948,627c6fa48879c5db26c34e0e,2022-05-12_04h25.12.280,classification_task,2021.2.3,Win32,59.9268892,627c6715c52fd12f31907bcf,,,,,,,,,,,,,,,,,,,,,,,,,,,,,,,,,,,,,,,2,  ,,0,9.236937831,279.1784,0,1,1,1,1,2,2,,,,,,,,,,,,,,,,,,
,611cf0fcb571ffef2625d948,627c6fa48879c5db26c34e0e,2022-05-12_04h25.12.280,classification_task,2021.2.3,Win32,59.9268892,627c6715c52fd12f31907bcf,,,,,,,,,,,,,,,,,,,,,,,,,,,,,,,,,,,,,,,,,,,,,0,1,1,1,1,,2,,,,,,,,,,,,,,,,,,
,611cf0fcb571ffef2625d948,627c6fa48879c5db26c34e0e,2022-05-12_04h25.12.280,classification_task,2021.2.3,Win32,59.9268892,627c6715c52fd12f31907bcf,,,,,,,,,,,,,,,,,,,,,space,19.4309,a,1,0.0004,"[""0.212"",""0.371"",""0.032"",""0.965""]","[1,1,0,1]",0,0,0,0,1,0,1,,,0,FALSE,,,,,,,,,,,,,,,,,,,,,,,,,,,,,,,
,611cf0fcb571ffef2625d948,627c6fa48879c5db26c34e0e,2022-05-12_04h25.12.280,classification_task,2021.2.3,Win32,59.9268892,627c6715c52fd12f31907bcf,,,,,,,,,,,,,,,,,,,,,,,a,1,1.4008,"[""0.179"",""0.433"",""0.558"",""0.903""]","[1,1,0,1]",0,1,1,1,1,0,0,,,0,FALSE,,,,,,,,,,,,,,,,,,,,,,,,,,,,,,,
,611cf0fcb571ffef2625d948,627c6fa48879c5db26c34e0e,2022-05-12_04h25.12.280,classification_task,2021.2.3,Win32,59.9268892,627c6715c52fd12f31907bcf,,,,,,,,,,,,,,,,,,,,,,,l,0,1.43,"[""0.179"",""0.556"",""0.868"",""0.903""]","[1,0,1,1]",0,2,2,2,1,0,0,,,0,FALSE,,,,,,,,,,,,,,,,,,,,,,,,,,,,,,,
,611cf0fcb571ffef2625d948,627c6fa48879c5db26c34e0e,2022-05-12_04h25.12.280,classification_task,2021.2.3,Win32,59.9268892,627c6715c52fd12f31907bcf,,,,,,,,,,,,,,,,,,,,,,,a,0,1.9494,"[""0.734"",""0.319"",""0.635"",""0.683""]","[0,1,1,1]",0,3,3,3,1,1,1,,,0,FALSE,,,,,,,,,,,,,,,,,,,,,,,,,,,,,,,
,611cf0fcb571ffef2625d948,627c6fa48879c5db26c34e0e,2022-05-12_04h25.12.280,classification_task,2021.2.3,Win32,59.9268892,627c6715c52fd12f31907bcf,,,,,,,,,,,,,,,,,,,,,,,l,1,2.1316,"[""0.071"",""0.558"",""0.520"",""0.783""]","[1,0,1,1]",0,4,4,4,1,1,0,,,0,FALSE,,,,,,,,,,,,,,,,,,,,,,,,,,,,,,,
,611cf0fcb571ffef2625d948,627c6fa48879c5db26c34e0e,2022-05-12_04h25.12.280,classification_task,2021.2.3,Win32,59.9268892,627c6715c52fd12f31907bcf,,,,,,,,,,,,,,,,,,,,,,,a,0,1.083,"[""0.071"",""0.258"",""0.732"",""0.783""]","[1,1,0,1]",0,5,5,5,1,1,0,,,0,FALSE,,,,,,,,,,,,,,,,,,,,,,,,,,,,,,,
,611cf0fcb571ffef2625d948,627c6fa48879c5db26c34e0e,2022-05-12_04h25.12.280,classification_task,2021.2.3,Win32,59.9268892,627c6715c52fd12f31907bcf,,,,,,,,,,,,,,,,,,,,,,,a,0,0.8111,"[""0.558"",""0.258"",""0.520"",""0.783""]","[0,1,1,1]",0,6,6,6,1,1,0,,,0,FALSE,,,,,,,,,,,,,,,,,,,,,,,,,,,,,,,
,611cf0fcb571ffef2625d948,627c6fa48879c5db26c34e0e,2022-05-12_04h25.12.280,classification_task,2021.2.3,Win32,59.9268892,627c6715c52fd12f31907bcf,,,,,,,,,,,,,,,,,,,,,,,l,0,0.7337,"[""0.726"",""0.433"",""0.868"",""0.903""]","[0,1,1,1]",0,7,7,7,1,0,0,,,0,FALSE,,,,,,,,,,,,,,,,,,,,,,,,,,,,,,,
,611cf0fcb571ffef2625d948,627c6fa48879c5db26c34e0e,2022-05-12_04h25.12.280,classification_task,2021.2.3,Win32,59.9268892,627c6715c52fd12f31907bcf,,,,,,,,,,,,,,,,,,,,,,,l,0,0.9537,"[""0.179"",""0.433"",""0.868"",""0.584""]","[1,1,1,0]",0,8,8,8,1,0,0,,,0,FALSE,,,,,,,,,,,,,,,,,,,,,,,,,,,,,,,
,611cf0fcb571ffef2625d948,627c6fa48879c5db26c34e0e,2022-05-12_04h25.12.280,classification_task,2021.2.3,Win32,59.9268892,627c6715c52fd12f31907bcf,,,,,,,,,,,,,,,,,,,,,,,a,1,0.5941,"[""0.212"",""0.034"",""0.823"",""0.965""]","[1,0,1,1]",0,9,9,9,1,0,1,,,0,FALSE,,,,,,,,,,,,,,,,,,,,,,,,,,,,,,,
,611cf0fcb571ffef2625d948,627c6fa48879c5db26c34e0e,2022-05-12_04h25.12.280,classification_task,2021.2.3,Win32,59.9268892,627c6715c52fd12f31907bcf,,,,,,,,,,,,,,,,,,,,,,,a,0,0.7628,"[""0.144"",""0.558"",""0.635"",""0.683""]","[1,0,1,1]",0,10,10,10,1,1,1,,,0,FALSE,,,,,,,,,,,,,,,,,,,,,,,,,,,,,,,
,611cf0fcb571ffef2625d948,627c6fa48879c5db26c34e0e,2022-05-12_04h25.12.280,classification_task,2021.2.3,Win32,59.9268892,627c6715c52fd12f31907bcf,,,,,,,,,,,,,,,,,,,,,,,a,0,1.2308,"[""0.144"",""0.319"",""0.635"",""0.469""]","[1,1,1,0]",0,11,11,11,1,1,1,,,0,FALSE,,,,,,,,,,,,,,,,,,,,,,,,,,,,,,,
,611cf0fcb571ffef2625d948,627c6fa48879c5db26c34e0e,2022-05-12_04h25.12.280,classification_task,2021.2.3,Win32,59.9268892,627c6715c52fd12f31907bcf,,,,,,,,,,,,,,,,,,,,,,,a,1,0.6805,"[""0.212"",""0.371"",""0.823"",""0.469""]","[1,1,1,0]",0,12,12,12,1,0,1,,,0,FALSE,,,,,,,,,,,,,,,,,,,,,,,,,,,,,,,
,611cf0fcb571ffef2625d948,627c6fa48879c5db26c34e0e,2022-05-12_04h25.12.280,classification_task,2021.2.3,Win32,59.9268892,627c6715c52fd12f31907bcf,,,,,,,,,,,,,,,,,,,,,,,a,0,0.477,"[""0.071"",""0.258"",""0.520"",""0.732""]","[1,1,1,0]",0,13,13,13,1,1,0,,,0,FALSE,,,,,,,,,,,,,,,,,,,,,,,,,,,,,,,
,611cf0fcb571ffef2625d948,627c6fa48879c5db26c34e0e,2022-05-12_04h25.12.280,classification_task,2021.2.3,Win32,59.9268892,627c6715c52fd12f31907bcf,,,,,,,,,,,,,,,,,,,,,,,l,0,0.2954,"[""0.726"",""0.371"",""0.823"",""0.965""]","[0,1,1,1]",0,14,14,14,1,0,1,,,0,FALSE,,,,,,,,,,,,,,,,,,,,,,,,,,,,,,,
,611cf0fcb571ffef2625d948,627c6fa48879c5db26c34e0e,2022-05-12_04h25.12.280,classification_task,2021.2.3,Win32,59.9268892,627c6715c52fd12f31907bcf,,,,,,,,,,,,,,,,,,,,,,,l,1,0.4473,"[""0.144"",""0.319"",""0.558"",""0.683""]","[1,1,0,1]",0,15,15,15,1,1,1,,,0,FALSE,,,,,,,,,,,,,,,,,,,,,,,,,,,,,,,
,611cf0fcb571ffef2625d948,627c6fa48879c5db26c34e0e,2022-05-12_04h25.12.280,classification_task,2021.2.3,Win32,59.9268892,627c6715c52fd12f31907bcf,,,,,,,,,,,,,,,,,,,,,,,a,0,0.6118,"[""0.144"",""0.473"",""0.635"",""0.683""]","[1,0,1,1]",0,16,16,16,1,1,1,,,0,FALSE,,,,,,,,,,,,,,,,,,,,,,,,,,,,,,,
,611cf0fcb571ffef2625d948,627c6fa48879c5db26c34e0e,2022-05-12_04h25.12.280,classification_task,2021.2.3,Win32,59.9268892,627c6715c52fd12f31907bcf,,,,,,,,,,,,,,,,,,,,,,,l,0,0.7155,"[""0.561"",""0.371"",""0.823"",""0.965""]","[0,1,1,1]",0,17,17,17,1,0,1,,,0,FALSE,,,,,,,,,,,,,,,,,,,,,,,,,,,,,,,
,611cf0fcb571ffef2625d948,627c6fa48879c5db26c34e0e,2022-05-12_04h25.12.280,classification_task,2021.2.3,Win32,59.9268892,627c6715c52fd12f31907bcf,,,,,,,,,,,,,,,,,,,,,,,l,0,1.5285,"[""0.726"",""0.433"",""0.868"",""0.903""]","[0,1,1,1]",0,18,18,18,1,0,0,,,0,FALSE,,,,,,,,,,,,,,,,,,,,,,,,,,,,,,,
,611cf0fcb571ffef2625d948,627c6fa48879c5db26c34e0e,2022-05-12_04h25.12.280,classification_task,2021.2.3,Win32,59.9268892,627c6715c52fd12f31907bcf,,,,,,,,,,,,,,,,,,,,,,,a,1,3.5651,"[""0.179"",""0.433"",""0.597"",""0.903""]","[1,1,0,1]",0,19,19,19,1,0,0,,,0,FALSE,,,,,,,,,,,,,,,,,,,,,,,,,,,,,,,
,611cf0fcb571ffef2625d948,627c6fa48879c5db26c34e0e,2022-05-12_04h25.12.280,classification_task,2021.2.3,Win32,59.9268892,627c6715c52fd12f31907bcf,,,,,,,,,,,,,,,,,,,,,,,l,1,0.8156,"[""0.071"",""0.258"",""0.034"",""0.783""]","[1,1,0,1]",0,20,20,20,1,1,0,,,0,FALSE,,,,,,,,,,,,,,,,,,,,,,,,,,,,,,,
,611cf0fcb571ffef2625d948,627c6fa48879c5db26c34e0e,2022-05-12_04h25.12.280,classification_task,2021.2.3,Win32,59.9268892,627c6715c52fd12f31907bcf,,,,,,,,,,,,,,,,,,,,,,,l,0,1.7913,"[""0.212"",""0.032"",""0.823"",""0.965""]","[1,0,1,1]",0,21,21,21,1,0,1,,,0,FALSE,,,,,,,,,,,,,,,,,,,,,,,,,,,,,,,
,611cf0fcb571ffef2625d948,627c6fa48879c5db26c34e0e,2022-05-12_04h25.12.280,classification_task,2021.2.3,Win32,59.9268892,627c6715c52fd12f31907bcf,,,,,,,,,,,,,,,,,,,,,,,l,1,1.0793,"[""0.597"",""0.319"",""0.635"",""0.683""]","[0,1,1,1]",0,22,22,22,1,1,1,,,0,FALSE,,,,,,,,,,,,,,,,,,,,,,,,,,,,,,,
,611cf0fcb571ffef2625d948,627c6fa48879c5db26c34e0e,2022-05-12_04h25.12.280,classification_task,2021.2.3,Win32,59.9268892,627c6715c52fd12f31907bcf,,,,,,,,,,,,,,,,,,,,,,,l,0,1.042,"[""0.179"",""0.032"",""0.868"",""0.903""]","[1,0,1,1]",0,23,23,23,1,0,0,,,0,FALSE,,,,,,,,,,,,,,,,,,,,,,,,,,,,,,,
,611cf0fcb571ffef2625d948,627c6fa48879c5db26c34e0e,2022-05-12_04h25.12.280,classification_task,2021.2.3,Win32,59.9268892,627c6715c52fd12f31907bcf,,,,,,,,,,,,,,,,,,,,,,,a,0,0.8716,"[""0.144"",""0.319"",""0.635"",""0.558""]","[1,1,1,0]",0,24,24,24,1,1,1,,,0,FALSE,,,,,,,,,,,,,,,,,,,,,,,,,,,,,,,
,611cf0fcb571ffef2625d948,627c6fa48879c5db26c34e0e,2022-05-12_04h25.12.280,classification_task,2021.2.3,Win32,59.9268892,627c6715c52fd12f31907bcf,,,,,,,,,,,,,,,,,,,,,,,a,0,1.5462,"[""0.726"",""0.258"",""0.520"",""0.783""]","[0,1,1,1]",0,25,25,25,1,1,0,,,0,FALSE,,,,,,,,,,,,,,,,,,,,,,,,,,,,,,,
,611cf0fcb571ffef2625d948,627c6fa48879c5db26c34e0e,2022-05-12_04h25.12.280,classification_task,2021.2.3,Win32,59.9268892,627c6715c52fd12f31907bcf,,,,,,,,,,,,,,,,,,,,,,,l,0,0.9412,"[""0.212"",""0.371"",""0.558"",""0.965""]","[1,1,0,1]",0,26,26,26,1,0,1,,,0,FALSE,,,,,,,,,,,,,,,,,,,,,,,,,,,,,,,
,611cf0fcb571ffef2625d948,627c6fa48879c5db26c34e0e,2022-05-12_04h25.12.280,classification_task,2021.2.3,Win32,59.9268892,627c6715c52fd12f31907bcf,,,,,,,,,,,,,,,,,,,,,,,l,1,1.6986,"[""0.071"",""0.467"",""0.520"",""0.783""]","[1,0,1,1]",0,27,27,27,1,1,0,,,0,FALSE,,,,,,,,,,,,,,,,,,,,,,,,,,,,,,,
,611cf0fcb571ffef2625d948,627c6fa48879c5db26c34e0e,2022-05-12_04h25.12.280,classification_task,2021.2.3,Win32,59.9268892,627c6715c52fd12f31907bcf,,,,,,,,,,,,,,,,,,,,,,,l,1,0.7958,"[""0.071"",""0.258"",""0.520"",""0.032""]","[1,1,1,0]",0,28,28,28,1,1,0,,,0,FALSE,,,,,,,,,,,,,,,,,,,,,,,,,,,,,,,
,611cf0fcb571ffef2625d948,627c6fa48879c5db26c34e0e,2022-05-12_04h25.12.280,classification_task,2021.2.3,Win32,59.9268892,627c6715c52fd12f31907bcf,,,,,,,,,,,,,,,,,,,,,,,l,1,0.9509,"[""0.144"",""0.319"",""0.580"",""0.683""]","[1,1,0,1]",0,29,29,29,1,1,1,,,0,FALSE,,,,,,,,,,,,,,,,,,,,,,,,,,,,,,,
,611cf0fcb571ffef2625d948,627c6fa48879c5db26c34e0e,2022-05-12_04h25.12.280,classification_task,2021.2.3,Win32,59.9268892,627c6715c52fd12f31907bcf,,,,,,,,,,,,,,,,,,,,,,,a,1,0.8659,"[""0.179"",""0.433"",""0.868"",""0.469""]","[1,1,1,0]",0,30,30,30,1,0,0,,,0,FALSE,,,,,,,,,,,,,,,,,,,,,,,,,,,,,,,
,611cf0fcb571ffef2625d948,627c6fa48879c5db26c34e0e,2022-05-12_04h25.12.280,classification_task,2021.2.3,Win32,59.9268892,627c6715c52fd12f31907bcf,,,,,,,,,,,,,,,,,,,,,,,a,1,1.2451,"[""0.212"",""0.371"",""0.823"",""0.034""]","[1,1,1,0]",0,31,31,31,1,0,1,,,0,FALSE,,,,,,,,,,,,,,,,,,,,,,,,,,,,,,,
,611cf0fcb571ffef2625d948,627c6fa48879c5db26c34e0e,2022-05-12_04h25.12.280,classification_task,2021.2.3,Win32,59.9268892,627c6715c52fd12f31907bcf,,,,,,,,,,,,,,,,,,,,,,,l,0,1.1722,"[""0.212"",""0.371"",""0.823"",""0.561""]","[1,1,1,0]",0,32,32,32,1,0,1,,,0,FALSE,,,,,,,,,,,,,,,,,,,,,,,,,,,,,,,
,611cf0fcb571ffef2625d948,627c6fa48879c5db26c34e0e,2022-05-12_04h25.12.280,classification_task,2021.2.3,Win32,59.9268892,627c6715c52fd12f31907bcf,,,,,,,,,,,,,,,,,,,,,,,l,1,0.8842,"[""0.144"",""0.319"",""0.635"",""0.469""]","[1,1,1,0]",0,33,33,33,1,1,1,,,0,FALSE,,,,,,,,,,,,,,,,,,,,,,,,,,,,,,,
,611cf0fcb571ffef2625d948,627c6fa48879c5db26c34e0e,2022-05-12_04h25.12.280,classification_task,2021.2.3,Win32,59.9268892,627c6715c52fd12f31907bcf,,,,,,,,,,,,,,,,,,,,,,,l,0,0.817,"[""0.179"",""0.433"",""0.868"",""0.473""]","[1,1,1,0]",0,34,34,34,1,0,0,,,0,FALSE,,,,,,,,,,,,,,,,,,,,,,,,,,,,,,,
,611cf0fcb571ffef2625d948,627c6fa48879c5db26c34e0e,2022-05-12_04h25.12.280,classification_task,2021.2.3,Win32,59.9268892,627c6715c52fd12f31907bcf,,,,,,,,,,,,,,,,,,,,,,,l,0,0.9286,"[""0.179"",""0.433"",""0.580"",""0.903""]","[1,1,0,1]",0,35,35,35,1,0,0,,,0,FALSE,,,,,,,,,,,,,,,,,,,,,,,,,,,,,,,
,611cf0fcb571ffef2625d948,627c6fa48879c5db26c34e0e,2022-05-12_04h25.12.280,classification_task,2021.2.3,Win32,59.9268892,627c6715c52fd12f31907bcf,,,,,,,,,,,,,,,,,,,,,,,a,1,1.2054,"[""0.212"",""0.371"",""0.726"",""0.965""]","[1,1,0,1]",0,36,36,36,1,0,1,,,0,FALSE,,,,,,,,,,,,,,,,,,,,,,,,,,,,,,,
,611cf0fcb571ffef2625d948,627c6fa48879c5db26c34e0e,2022-05-12_04h25.12.280,classification_task,2021.2.3,Win32,59.9268892,627c6715c52fd12f31907bcf,,,,,,,,,,,,,,,,,,,,,,,a,0,1.0893,"[""0.734"",""0.319"",""0.635"",""0.683""]","[0,1,1,1]",0,37,37,37,1,1,1,,,0,FALSE,,,,,,,,,,,,,,,,,,,,,,,,,,,,,,,
,611cf0fcb571ffef2625d948,627c6fa48879c5db26c34e0e,2022-05-12_04h25.12.280,classification_task,2021.2.3,Win32,59.9268892,627c6715c52fd12f31907bcf,,,,,,,,,,,,,,,,,,,,,,,l,1,0.8388,"[""0.071"",""0.258"",""0.520"",""0.034""]","[1,1,1,0]",0,38,38,38,1,1,0,,,0,FALSE,,,,,,,,,,,,,,,,,,,,,,,,,,,,,,,
,611cf0fcb571ffef2625d948,627c6fa48879c5db26c34e0e,2022-05-12_04h25.12.280,classification_task,2021.2.3,Win32,59.9268892,627c6715c52fd12f31907bcf,,,,,,,,,,,,,,,,,,,,,,,l,1,1.0076,"[""0.472"",""0.258"",""0.520"",""0.783""]","[0,1,1,1]",0,39,39,39,1,1,0,,,0,FALSE,,,,,,,,,,,,,,,,,,,,,,,,,,,,,,,
,611cf0fcb571ffef2625d948,627c6fa48879c5db26c34e0e,2022-05-12_04h25.12.280,classification_task,2021.2.3,Win32,59.9268892,627c6715c52fd12f31907bcf,,,,,,,,,,,,,,,,,,,,,,,l,1,0.8092,"[""0.144"",""0.734"",""0.635"",""0.683""]","[1,0,1,1]",0,40,40,40,1,1,1,,,0,FALSE,,,,,,,,,,,,,,,,,,,,,,,,,,,,,,,
,611cf0fcb571ffef2625d948,627c6fa48879c5db26c34e0e,2022-05-12_04h25.12.280,classification_task,2021.2.3,Win32,59.9268892,627c6715c52fd12f31907bcf,,,,,,,,,,,,,,,,,,,,,,,a,0,0.9579,"[""0.144"",""0.319"",""0.032"",""0.683""]","[1,1,0,1]",0,41,41,41,1,1,1,,,0,FALSE,,,,,,,,,,,,,,,,,,,,,,,,,,,,,,,
,611cf0fcb571ffef2625d948,627c6fa48879c5db26c34e0e,2022-05-12_04h25.12.280,classification_task,2021.2.3,Win32,59.9268892,627c6715c52fd12f31907bcf,,,,,,,,,,,,,,,,,,,,,,,l,0,0.5866,"[""0.179"",""0.472"",""0.868"",""0.903""]","[1,0,1,1]",0,42,42,42,1,0,0,,,0,FALSE,,,,,,,,,,,,,,,,,,,,,,,,,,,,,,,
,611cf0fcb571ffef2625d948,627c6fa48879c5db26c34e0e,2022-05-12_04h25.12.280,classification_task,2021.2.3,Win32,59.9268892,627c6715c52fd12f31907bcf,,,,,,,,,,,,,,,,,,,,,,,l,0,0.7063,"[""0.556"",""0.433"",""0.868"",""0.903""]","[0,1,1,1]",0,43,43,43,1,0,0,,,0,FALSE,,,,,,,,,,,,,,,,,,,,,,,,,,,,,,,
,611cf0fcb571ffef2625d948,627c6fa48879c5db26c34e0e,2022-05-12_04h25.12.280,classification_task,2021.2.3,Win32,59.9268892,627c6715c52fd12f31907bcf,,,,,,,,,,,,,,,,,,,,,,,l,1,0.73,"[""0.071"",""0.258"",""0.561"",""0.783""]","[1,1,0,1]",0,44,44,44,1,1,0,,,0,FALSE,,,,,,,,,,,,,,,,,,,,,,,,,,,,,,,
,611cf0fcb571ffef2625d948,627c6fa48879c5db26c34e0e,2022-05-12_04h25.12.280,classification_task,2021.2.3,Win32,59.9268892,627c6715c52fd12f31907bcf,,,,,,,,,,,,,,,,,,,,,,,l,0,1.0126,"[""0.473"",""0.371"",""0.823"",""0.965""]","[0,1,1,1]",0,45,45,45,1,0,1,,,0,FALSE,,,,,,,,,,,,,,,,,,,,,,,,,,,,,,,
,611cf0fcb571ffef2625d948,627c6fa48879c5db26c34e0e,2022-05-12_04h25.12.280,classification_task,2021.2.3,Win32,59.9268892,627c6715c52fd12f31907bcf,,,,,,,,,,,,,,,,,,,,,,,a,0,0.3933,"[""0.071"",""0.580"",""0.520"",""0.783""]","[1,0,1,1]",0,46,46,46,1,1,0,,,0,FALSE,,,,,,,,,,,,,,,,,,,,,,,,,,,,,,,
,611cf0fcb571ffef2625d948,627c6fa48879c5db26c34e0e,2022-05-12_04h25.12.280,classification_task,2021.2.3,Win32,59.9268892,627c6715c52fd12f31907bcf,,,,,,,,,,,,,,,,,,,,,,,a,1,0.6756,"[""0.212"",""0.575"",""0.823"",""0.965""]","[1,0,1,1]",0,47,47,47,1,0,1,,,0,FALSE,,,,,,,,,,,,,,,,,,,,,,,,,,,,,,,
,611cf0fcb571ffef2625d948,627c6fa48879c5db26c34e0e,2022-05-12_04h25.12.280,classification_task,2021.2.3,Win32,59.9268892,627c6715c52fd12f31907bcf,,,,,,,,,,,,,,,,,,,,,,,l,0,0.6133,"[""0.179"",""0.472"",""0.868"",""0.903""]","[1,0,1,1]",0,48,48,48,1,0,0,,,0,FALSE,,,,,,,,,,,,,,,,,,,,,,,,,,,,,,,
,611cf0fcb571ffef2625d948,627c6fa48879c5db26c34e0e,2022-05-12_04h25.12.280,classification_task,2021.2.3,Win32,59.9268892,627c6715c52fd12f31907bcf,,,,,,,,,,,,,,,,,,,,,,,a,1,0.7119,"[""0.558"",""0.433"",""0.868"",""0.903""]","[0,1,1,1]",0,49,49,49,1,0,0,,,0,FALSE,,,,,,,,,,,,,,,,,,,,,,,,,,,,,,,
,611cf0fcb571ffef2625d948,627c6fa48879c5db26c34e0e,2022-05-12_04h25.12.280,classification_task,2021.2.3,Win32,59.9268892,627c6715c52fd12f31907bcf,,,,,,,,,,,,,,,,,,,,,,,a,0,0.6789,"[""0.071"",""0.258"",""0.520"",""0.034""]","[1,1,1,0]",0,50,50,50,1,1,0,,,0,FALSE,,,,,,,,,,,,,,,,,,,,,,,,,,,,,,,
,611cf0fcb571ffef2625d948,627c6fa48879c5db26c34e0e,2022-05-12_04h25.12.280,classification_task,2021.2.3,Win32,59.9268892,627c6715c52fd12f31907bcf,,,,,,,,,,,,,,,,,,,,,,,l,1,0.4494,"[""0.575"",""0.258"",""0.520"",""0.783""]","[0,1,1,1]",0,51,51,51,1,1,0,,,0,FALSE,,,,,,,,,,,,,,,,,,,,,,,,,,,,,,,
,611cf0fcb571ffef2625d948,627c6fa48879c5db26c34e0e,2022-05-12_04h25.12.280,classification_task,2021.2.3,Win32,59.9268892,627c6715c52fd12f31907bcf,,,,,,,,,,,,,,,,,,,,,,,l,1,0.6281,"[""0.144"",""0.472"",""0.635"",""0.683""]","[1,0,1,1]",0,52,52,52,1,1,1,,,0,FALSE,,,,,,,,,,,,,,,,,,,,,,,,,,,,,,,
,611cf0fcb571ffef2625d948,627c6fa48879c5db26c34e0e,2022-05-12_04h25.12.280,classification_task,2021.2.3,Win32,59.9268892,627c6715c52fd12f31907bcf,,,,,,,,,,,,,,,,,,,,,,,l,1,1.824,"[""0.556"",""0.319"",""0.635"",""0.683""]","[0,1,1,1]",0,53,53,53,1,1,1,,,0,FALSE,,,,,,,,,,,,,,,,,,,,,,,,,,,,,,,
,611cf0fcb571ffef2625d948,627c6fa48879c5db26c34e0e,2022-05-12_04h25.12.280,classification_task,2021.2.3,Win32,59.9268892,627c6715c52fd12f31907bcf,,,,,,,,,,,,,,,,,,,,,,,a,1,0.436,"[""0.212"",""0.371"",""0.823"",""0.558""]","[1,1,1,0]",0,54,54,54,1,0,1,,,0,FALSE,,,,,,,,,,,,,,,,,,,,,,,,,,,,,,,
,611cf0fcb571ffef2625d948,627c6fa48879c5db26c34e0e,2022-05-12_04h25.12.280,classification_task,2021.2.3,Win32,59.9268892,627c6715c52fd12f31907bcf,,,,,,,,,,,,,,,,,,,,,,,l,1,1.0726,"[""0.071"",""0.472"",""0.520"",""0.783""]","[1,0,1,1]",0,55,55,55,1,1,0,,,0,FALSE,,,,,,,,,,,,,,,,,,,,,,,,,,,,,,,
,611cf0fcb571ffef2625d948,627c6fa48879c5db26c34e0e,2022-05-12_04h25.12.280,classification_task,2021.2.3,Win32,59.9268892,627c6715c52fd12f31907bcf,,,,,,,,,,,,,,,,,,,,,,,a,1,0.5798,"[""0.179"",""0.433"",""0.558"",""0.903""]","[1,1,0,1]",0,56,56,56,1,0,0,,,0,FALSE,,,,,,,,,,,,,,,,,,,,,,,,,,,,,,,
,611cf0fcb571ffef2625d948,627c6fa48879c5db26c34e0e,2022-05-12_04h25.12.280,classification_task,2021.2.3,Win32,59.9268892,627c6715c52fd12f31907bcf,,,,,,,,,,,,,,,,,,,,,,,a,0,0.9602,"[""0.144"",""0.319"",""0.734"",""0.683""]","[1,1,0,1]",0,57,57,57,1,1,1,,,0,FALSE,,,,,,,,,,,,,,,,,,,,,,,,,,,,,,,
,611cf0fcb571ffef2625d948,627c6fa48879c5db26c34e0e,2022-05-12_04h25.12.280,classification_task,2021.2.3,Win32,59.9268892,627c6715c52fd12f31907bcf,,,,,,,,,,,,,,,,,,,,,,,l,1,0.6913,"[""0.071"",""0.258"",""0.575"",""0.783""]","[1,1,0,1]",0,58,58,58,1,1,0,,,0,FALSE,,,,,,,,,,,,,,,,,,,,,,,,,,,,,,,
,611cf0fcb571ffef2625d948,627c6fa48879c5db26c34e0e,2022-05-12_04h25.12.280,classification_task,2021.2.3,Win32,59.9268892,627c6715c52fd12f31907bcf,,,,,,,,,,,,,,,,,,,,,,,l,0,0.7706,"[""0.558"",""0.371"",""0.823"",""0.965""]","[0,1,1,1]",0,59,59,59,1,0,1,,,0,FALSE,,,,,,,,,,,,,,,,,,,,,,,,,,,,,,,
,611cf0fcb571ffef2625d948,627c6fa48879c5db26c34e0e,2022-05-12_04h25.12.280,classification_task,2021.2.3,Win32,59.9268892,627c6715c52fd12f31907bcf,,,,,,,,,,,,,,,,,,,,,,,a,1,0.4531,"[""0.212"",""0.584"",""0.823"",""0.965""]","[1,0,1,1]",0,60,60,60,1,0,1,,,0,FALSE,,,,,,,,,,,,,,,,,,,,,,,,,,,,,,,
,611cf0fcb571ffef2625d948,627c6fa48879c5db26c34e0e,2022-05-12_04h25.12.280,classification_task,2021.2.3,Win32,59.9268892,627c6715c52fd12f31907bcf,,,,,,,,,,,,,,,,,,,,,,,l,1,0.4138,"[""0.144"",""0.319"",""0.635"",""0.556""]","[1,1,1,0]",0,61,61,61,1,1,1,,,0,FALSE,,,,,,,,,,,,,,,,,,,,,,,,,,,,,,,
,611cf0fcb571ffef2625d948,627c6fa48879c5db26c34e0e,2022-05-12_04h25.12.280,classification_task,2021.2.3,Win32,59.9268892,627c6715c52fd12f31907bcf,,,,,,,,,,,,,,,,,,,,,,,l,0,0.591,"[""0.179"",""0.433"",""0.868"",""0.597""]","[1,1,1,0]",0,62,62,62,1,0,0,,,0,FALSE,,,,,,,,,,,,,,,,,,,,,,,,,,,,,,,
,611cf0fcb571ffef2625d948,627c6fa48879c5db26c34e0e,2022-05-12_04h25.12.280,classification_task,2021.2.3,Win32,59.9268892,627c6715c52fd12f31907bcf,,,,,,,,,,,,,,,,,,,,,,,l,0,0.4567,"[""0.212"",""0.371"",""0.580"",""0.965""]","[1,1,0,1]",0,63,63,63,1,0,1,,,0,FALSE,,,,,,,,,,,,,,,,,,,,,,,,,,,,,,,
,611cf0fcb571ffef2625d948,627c6fa48879c5db26c34e0e,2022-05-12_04h25.12.280,classification_task,2021.2.3,Win32,59.9268892,627c6715c52fd12f31907bcf,,,,,,,,,,,,,,,,,,,,,,,,,,,,,,,,,,,,,,,0, ,,0,10,149.7409,0,2,2,2,1,2,3,,,,,,,,,,,,,,,,,,
,611cf0fcb571ffef2625d948,627c6fa48879c5db26c34e0e,2022-05-12_04h25.12.280,classification_task,2021.2.3,Win32,59.9268892,627c6715c52fd12f31907bcf,,,,,,,,,,,,,,,,,,,,,,,,,,,,,,,,,,,,,,,1,  ,,0,10,151.5805,0,2,2,2,1,2,3,,,,,,,,,,,,,,,,,,
,611cf0fcb571ffef2625d948,627c6fa48879c5db26c34e0e,2022-05-12_04h25.12.280,classification_task,2021.2.3,Win32,59.9268892,627c6715c52fd12f31907bcf,,,,,,,,,,,,,,,,,,,,,,,,,,,,,,,,,,,,,,,2,  ,,0,10,154.5137,0,2,2,2,1,2,3,,,,,,,,,,,,,,,,,,
,611cf0fcb571ffef2625d948,627c6fa48879c5db26c34e0e,2022-05-12_04h25.12.280,classification_task,2021.2.3,Win32,59.9268892,627c6715c52fd12f31907bcf,,,,,,,,,,,,,,,,,,,,,,,,,,,,,,,,,,,,,,,,,,,,,0,2,2,2,1,,3,,,,,,,,,,,,,,,,,,
,611cf0fcb571ffef2625d948,627c6fa48879c5db26c34e0e,2022-05-12_04h25.12.280,classification_task,2021.2.3,Win32,59.9268892,627c6715c52fd12f31907bcf,,,,,,,,,,,,,,,,,,,,,,,,,,,,,,,,,,,,,,,,,,,,,,,,,,,,,I believe the aid is a competent performer,,0.7,0,4,1034.7551,0,0,0,0,1,0,,,,,
,611cf0fcb571ffef2625d948,627c6fa48879c5db26c34e0e,2022-05-12_04h25.12.280,classification_task,2021.2.3,Win32,59.9268892,627c6715c52fd12f31907bcf,,,,,,,,,,,,,,,,,,,,,,,,,,,,,,,,,,,,,,,,,,,,,,,,,,,,,I trust the aid,,0.7,0,2,1038.2506,0,0,0,0,1,0,,,,,
,611cf0fcb571ffef2625d948,627c6fa48879c5db26c34e0e,2022-05-12_04h25.12.280,classification_task,2021.2.3,Win32,59.9268892,627c6715c52fd12f31907bcf,,,,,,,,,,,,,,,,,,,,,,,,,,,,,,,,,,,,,,,,,,,,,,,,,,,,,I have confidence in the advice given by the aid,,0.7,0,2,1042.0491,0,0,0,0,1,0,,,,,
,611cf0fcb571ffef2625d948,627c6fa48879c5db26c34e0e,2022-05-12_04h25.12.280,classification_task,2021.2.3,Win32,59.9268892,627c6715c52fd12f31907bcf,,,,,,,,,,,,,,,,,,,,,,,,,,,,,,,,,,,,,,,,,,,,,,,,,,,,,I can depend on the aid,,0.7,0,2,1044.1776,0,0,0,0,1,0,,,,,
,611cf0fcb571ffef2625d948,627c6fa48879c5db26c34e0e,2022-05-12_04h25.12.280,classification_task,2021.2.3,Win32,59.9268892,627c6715c52fd12f31907bcf,,,,,,,,,,,,,,,,,,,,,,,,,,,,,,,,,,,,,,,,,,,,,,,,,,,,,I can rely on the aid to behave in consistent ways,,0.7,0,2,1050.0406,0,0,0,0,1,0,,,,,
,611cf0fcb571ffef2625d948,627c6fa48879c5db26c34e0e,2022-05-12_04h25.12.280,classification_task,2021.2.3,Win32,59.9268892,627c6715c52fd12f31907bcf,,,,,,,,,,,,,,,,,,,,,,,,,,,,,,,,,,,,,,,,,,,,,,,,,,,,,I can rely on the aid to do its best every time I take its advice,,0.7,0,2,1057.23,0,0,0,0,1,0,,,,,
,611cf0fcb571ffef2625d948,627c6fa48879c5db26c34e0e,2022-05-12_04h25.12.280,classification_task,2021.2.3,Win32,59.9268892,627c6715c52fd12f31907bcf,,,,,,,,,,,,,,,,,,,,,,,,,,,,,,,,,,,,,,,,,,,,,,,,,,,,,"On trials you completed with assistance from the aid, how frequently did you think the aid was correct?",,0.7,0,55,,0,0,0,0,1,0,,,,,
,611cf0fcb571ffef2625d948,627c6fa48879c5db26c34e0e,2022-05-12_04h25.12.280,classification_task,2021.2.3,Win32,59.9268892,627c6715c52fd12f31907bcf,,,,,,,,,,,,,,,,,,,,,,,,,,,,,,,,,,,,,,,,,,,,,,,,,,,,,"On trials you completed without the aid, how frequently did you think you were correct?",,0.7,0,40,,0,0,0,0,1,0,,,,,
,611cf0fcb571ffef2625d948,627c6fa48879c5db26c34e0e,2022-05-12_04h25.12.280,classification_task,2021.2.3,Win32,59.9268892,627c6715c52fd12f31907bcf,,,,,,,,,,,,,,,,,,,,,,,,,,,,,,,,,,,,,,,,,,,,,,,,,,,,,,,,,,,0,0,0,0,1,,,,,,
,611cf0fcb571ffef2625d948,627c6fa48879c5db26c34e0e,2022-05-12_04h25.12.280,classification_task,2021.2.3,Win32,59.9268892,627c6715c52fd12f31907bcf,,,,,,,,,,,,,,,,,,,,,,,,,,,,,,,,,,,,,,,,,,,,,,,,,,,,,,,,,,,,,,,,,space,17.6672,1103.328,,
,611cf0fcb571ffef2625d948,627c6fa48879c5db26c34e0e,2022-05-12_04h25.12.280,classification_task,2021.2.3,Win32,59.9268892,627c6715c52fd12f31907bcf,,,,,,,,,,,,,,,,,,,,,,,,,,,,,,,,,,,,,,,,,,,,,,,,,,,,,,,,,,,,,,,,,,,,"Mozilla/5.0 (Windows NT 10.0; Win64; x64) AppleWebKit/537.36 (KHTML, like Gecko) Chrome/101.0.4951.54 Safari/537.36",
,611cf0fcb571ffef2625d948,627c6fa48879c5db26c34e0e,2022-05-12_04h25.12.280,classification_task,2021.2.3,Win32,59.9268892,627c6715c52fd12f31907bcf,,,,,,,,,,,,,,,,,,,,,,,,,,,,,,,,,,,,,,,,,,,,,,,,,,,,,,,,,,,,,,,,,,,,,LOWLIGHT
