usingWebGL,participant,session,date,expName,psychopyVersion,OS,frameRate,study_id,signatures_friend,signatures_foe,band_ranges_top,band_ranges_bottom,formitemText,formtype,formundefined,formitemWidth,formindex,formresponse,formrt,key_resp_2.keys,key_resp_2.rt,tute_resp.keys,tute_resp.rt,tutorial.thisRepN,tutorial.thisTrialN,tutorial.thisN,tutorial.thisIndex,tutorial.ran,key_resp_4.keys,key_resp_4.rt,key_resp.keys,key_resp.corr,lines_presented,is_signal_presented,trials.thisRepN,trials.thisTrialN,trials.thisN,trials.thisIndex,trials.ran,vessel,active_band,lines,is_signal,supported_pos,catch_trial,key_resp.rt,debrief_formindex,debrief_formitemText,debrief_formtype,debrief_formitemWidth,debrief_formresponse,debrief_formrt,phases.thisRepN,phases.thisTrialN,phases.thisN,phases.thisIndex,phases.ran,phases.order,phase,key_resp_3.keys,trustitemText,trusttype,trustitemWidth,trustindex,trustresponse,trustrt,support_status.thisRepN,support_status.thisTrialN,support_status.thisN,support_status.thisIndex,support_status.ran,support_status.order,key_resp_5.keys,key_resp_5.rt,globalClockTime,userAgent,manualCondition
TRUE,611fe7bbddb619488a23330d,627c6fd99a918b62953cb027,2022-05-11_21h25.42.788,classification_task,2021.2.3,Win32,60.10699044,627c6715c52fd12f31907bcf,,,,,,,,,,,,,,,,,,,,,,,,,,,,,,,,,,,,,,,,,,,,,,,,,,,,,,,,,,,,,,,,,,,,,
,611fe7bbddb619488a23330d,627c6fd99a918b62953cb027,2022-05-11_21h25.42.788,classification_task,2021.2.3,Win32,60.10699044,627c6715c52fd12f31907bcf,"[[""0.275"",""0.492"",""0.865"",""0.972""],[""0.175"",""0.382"",""0.589"",""0.906""]]","[[""0.116"",""0.340"",""0.527"",""0.750""],[""0.041"",""0.077"",""0.649"",""0.711""]]","[1,10]","[100,1000]",Video game experience,,,0.7,0,,,,,,,,,,,,,,,,,,,,,,,,,,,,,,,,,,,,,,,,,,,,,,,,,,,,,,,,,,,,
,611fe7bbddb619488a23330d,627c6fd99a918b62953cb027,2022-05-11_21h25.42.788,classification_task,2021.2.3,Win32,60.10699044,627c6715c52fd12f31907bcf,,,,,Approximately how many hours did you spend playing video games in the last week?,,,0.7,0,20,,,,,,,,,,,,,,,,,,,,,,,,,,,,,,,,,,,,,,,,,,,,,,,,,,,,,,,,,,,
,611fe7bbddb619488a23330d,627c6fd99a918b62953cb027,2022-05-11_21h25.42.788,classification_task,2021.2.3,Win32,60.10699044,627c6715c52fd12f31907bcf,,,,,"Which game did you play the most this year? (Enter ""None"" if you didn't play any)",,,0.7,0,halo nfinite,,,,,,,,,,,,,,,,,,,,,,,,,,,,,,,,,,,,,,,,,,,,,,,,,,,,,,,,,,,
,611fe7bbddb619488a23330d,627c6fd99a918b62953cb027,2022-05-11_21h25.42.788,classification_task,2021.2.3,Win32,60.10699044,627c6715c52fd12f31907bcf,,,,,Visual perception,,,0.7,0,,,,,,,,,,,,,,,,,,,,,,,,,,,,,,,,,,,,,,,,,,,,,,,,,,,,,,,,,,,,
,611fe7bbddb619488a23330d,627c6fd99a918b62953cb027,2022-05-11_21h25.42.788,classification_task,2021.2.3,Win32,60.10699044,627c6715c52fd12f31907bcf,,,,,Do you have any form of color blindness?,,,0.7,0,No,25.3748,,,,,,,,,,,,,,,,,,,,,,,,,,,,,,,,,,,,,,,,,,,,,,,,,,,,,,,,,,
,611fe7bbddb619488a23330d,627c6fd99a918b62953cb027,2022-05-11_21h25.42.788,classification_task,2021.2.3,Win32,60.10699044,627c6715c52fd12f31907bcf,,,,,Do you use software to change the colour temperature of your screen (e.g. f.lux)?,,,0.7,0,No,30.5534,,,,,,,,,,,,,,,,,,,,,,,,,,,,,,,,,,,,,,,,,,,,,,,,,,,,,,,,,,
,611fe7bbddb619488a23330d,627c6fd99a918b62953cb027,2022-05-11_21h25.42.788,classification_task,2021.2.3,Win32,60.10699044,627c6715c52fd12f31907bcf,,,,,,,,,,,,space,367.7109,space,13.1549,0,0,0,0,1,,,,,,,,,,,,,,,,,,,,,,,,,,,,,,,,,,,,,,,,,,,,,,,,,
,611fe7bbddb619488a23330d,627c6fd99a918b62953cb027,2022-05-11_21h25.42.788,classification_task,2021.2.3,Win32,60.10699044,627c6715c52fd12f31907bcf,,,,,,,,,,,,,,space,19.8721,1,0,1,0,1,,,,,,,,,,,,,,,,,,,,,,,,,,,,,,,,,,,,,,,,,,,,,,,,,
,611fe7bbddb619488a23330d,627c6fd99a918b62953cb027,2022-05-11_21h25.42.788,classification_task,2021.2.3,Win32,60.10699044,627c6715c52fd12f31907bcf,,,,,,,,,,,,,,space,23.9471,2,0,2,0,1,,,,,,,,,,,,,,,,,,,,,,,,,,,,,,,,,,,,,,,,,,,,,,,,,
,611fe7bbddb619488a23330d,627c6fd99a918b62953cb027,2022-05-11_21h25.42.788,classification_task,2021.2.3,Win32,60.10699044,627c6715c52fd12f31907bcf,,,,,,,,,,,,,,space,53.6018,3,0,3,0,1,,,,,,,,,,,,,,,,,,,,,,,,,,,,,,,,,,,,,,,,,,,,,,,,,
,611fe7bbddb619488a23330d,627c6fd99a918b62953cb027,2022-05-11_21h25.42.788,classification_task,2021.2.3,Win32,60.10699044,627c6715c52fd12f31907bcf,,,,,,,,,,,,,,space,40.964,4,0,4,0,1,,,,,,,,,,,,,,,,,,,,,,,,,,,,,,,,,,,,,,,,,,,,,,,,,
,611fe7bbddb619488a23330d,627c6fd99a918b62953cb027,2022-05-11_21h25.42.788,classification_task,2021.2.3,Win32,60.10699044,627c6715c52fd12f31907bcf,,,,,,,,,,,,,,,,,,,,,space,19.3956,,0,"[""0.116"",""0.821"",""0.527"",""0.750""]","[1,0,1,1]",0,0,0,0,1,1,0,,,0,FALSE,,,,,,,,,,,,,,,,,,,,,,,,,,,,,,,,
,611fe7bbddb619488a23330d,627c6fd99a918b62953cb027,2022-05-11_21h25.42.788,classification_task,2021.2.3,Win32,60.10699044,627c6715c52fd12f31907bcf,,,,,,,,,,,,,,,,,,,,,,,l,1,"[""0.116"",""0.340"",""0.527"",""0.794""]","[1,1,1,0]",0,1,1,1,1,1,0,,,0,FALSE,3.663,,,,,,,,,,,,,,,,,,,,,,,,,,,,,,,
,611fe7bbddb619488a23330d,627c6fd99a918b62953cb027,2022-05-11_21h25.42.788,classification_task,2021.2.3,Win32,60.10699044,627c6715c52fd12f31907bcf,,,,,,,,,,,,,,,,,,,,,,,a,1,"[""0.175"",""0.382"",""0.589"",""0.440""]","[1,1,1,0]",0,2,2,2,1,0,1,,,0,FALSE,2.6947,,,,,,,,,,,,,,,,,,,,,,,,,,,,,,,
,611fe7bbddb619488a23330d,627c6fd99a918b62953cb027,2022-05-11_21h25.42.788,classification_task,2021.2.3,Win32,60.10699044,627c6715c52fd12f31907bcf,,,,,,,,,,,,,,,,,,,,,,,a,1,"[""0.275"",""0.421"",""0.865"",""0.972""]","[1,0,1,1]",0,3,3,3,1,0,0,,,0,FALSE,2.9585,,,,,,,,,,,,,,,,,,,,,,,,,,,,,,,
,611fe7bbddb619488a23330d,627c6fd99a918b62953cb027,2022-05-11_21h25.42.788,classification_task,2021.2.3,Win32,60.10699044,627c6715c52fd12f31907bcf,,,,,,,,,,,,,,,,,,,,,,,l,1,"[""0.041"",""0.231"",""0.649"",""0.711""]","[1,0,1,1]",0,4,4,4,1,1,1,,,0,FALSE,6.1456,,,,,,,,,,,,,,,,,,,,,,,,,,,,,,,
,611fe7bbddb619488a23330d,627c6fd99a918b62953cb027,2022-05-11_21h25.42.788,classification_task,2021.2.3,Win32,60.10699044,627c6715c52fd12f31907bcf,,,,,,,,,,,,,,,,,,,,,,,l,1,"[""0.821"",""0.340"",""0.527"",""0.750""]","[0,1,1,1]",0,5,5,5,1,1,0,,,0,FALSE,5.6371,,,,,,,,,,,,,,,,,,,,,,,,,,,,,,,
,611fe7bbddb619488a23330d,627c6fd99a918b62953cb027,2022-05-11_21h25.42.788,classification_task,2021.2.3,Win32,60.10699044,627c6715c52fd12f31907bcf,,,,,,,,,,,,,,,,,,,,,,,l,1,"[""0.041"",""0.077"",""0.649"",""0.809""]","[1,1,1,0]",0,6,6,6,1,1,1,,,0,FALSE,6.4144,,,,,,,,,,,,,,,,,,,,,,,,,,,,,,,
,611fe7bbddb619488a23330d,627c6fd99a918b62953cb027,2022-05-11_21h25.42.788,classification_task,2021.2.3,Win32,60.10699044,627c6715c52fd12f31907bcf,,,,,,,,,,,,,,,,,,,,,,,a,1,"[""0.175"",""0.382"",""0.809"",""0.906""]","[1,1,0,1]",0,7,7,7,1,0,1,,,0,FALSE,6.568,,,,,,,,,,,,,,,,,,,,,,,,,,,,,,,
,611fe7bbddb619488a23330d,627c6fd99a918b62953cb027,2022-05-11_21h25.42.788,classification_task,2021.2.3,Win32,60.10699044,627c6715c52fd12f31907bcf,,,,,,,,,,,,,,,,,,,,,,,a,1,"[""0.227"",""0.382"",""0.589"",""0.906""]","[0,1,1,1]",0,8,8,8,1,0,1,,,0,FALSE,7.8989,,,,,,,,,,,,,,,,,,,,,,,,,,,,,,,
,611fe7bbddb619488a23330d,627c6fd99a918b62953cb027,2022-05-11_21h25.42.788,classification_task,2021.2.3,Win32,60.10699044,627c6715c52fd12f31907bcf,,,,,,,,,,,,,,,,,,,,,,,a,1,"[""0.275"",""0.492"",""0.421"",""0.972""]","[1,1,0,1]",0,9,9,9,1,0,0,,,0,FALSE,7.0672,,,,,,,,,,,,,,,,,,,,,,,,,,,,,,,
,611fe7bbddb619488a23330d,627c6fd99a918b62953cb027,2022-05-11_21h25.42.788,classification_task,2021.2.3,Win32,60.10699044,627c6715c52fd12f31907bcf,,,,,,,,,,,,,,,,,,,,,,,a,1,"[""0.175"",""0.809"",""0.589"",""0.906""]","[1,0,1,1]",0,10,10,10,1,0,1,,,0,FALSE,7.3526,,,,,,,,,,,,,,,,,,,,,,,,,,,,,,,
,611fe7bbddb619488a23330d,627c6fd99a918b62953cb027,2022-05-11_21h25.42.788,classification_task,2021.2.3,Win32,60.10699044,627c6715c52fd12f31907bcf,,,,,,,,,,,,,,,,,,,,,,,l,1,"[""0.235"",""0.077"",""0.649"",""0.711""]","[0,1,1,1]",0,11,11,11,1,1,1,,,0,FALSE,4.6236,,,,,,,,,,,,,,,,,,,,,,,,,,,,,,,
,611fe7bbddb619488a23330d,627c6fd99a918b62953cb027,2022-05-11_21h25.42.788,classification_task,2021.2.3,Win32,60.10699044,627c6715c52fd12f31907bcf,,,,,,,,,,,,,,,,,,,,,,,a,0,"[""0.041"",""0.077"",""0.241"",""0.711""]","[1,1,0,1]",0,12,12,12,1,1,1,,,0,FALSE,3.4402,,,,,,,,,,,,,,,,,,,,,,,,,,,,,,,
,611fe7bbddb619488a23330d,627c6fd99a918b62953cb027,2022-05-11_21h25.42.788,classification_task,2021.2.3,Win32,60.10699044,627c6715c52fd12f31907bcf,,,,,,,,,,,,,,,,,,,,,,,l,1,"[""0.116"",""0.340"",""0.456"",""0.750""]","[1,1,0,1]",0,13,13,13,1,1,0,,,0,FALSE,2.4316,,,,,,,,,,,,,,,,,,,,,,,,,,,,,,,
,611fe7bbddb619488a23330d,627c6fd99a918b62953cb027,2022-05-11_21h25.42.788,classification_task,2021.2.3,Win32,60.10699044,627c6715c52fd12f31907bcf,,,,,,,,,,,,,,,,,,,,,,,l,0,"[""0.227"",""0.492"",""0.865"",""0.972""]","[0,1,1,1]",0,14,14,14,1,0,0,,,0,FALSE,1.3963,,,,,,,,,,,,,,,,,,,,,,,,,,,,,,,
,611fe7bbddb619488a23330d,627c6fd99a918b62953cb027,2022-05-11_21h25.42.788,classification_task,2021.2.3,Win32,60.10699044,627c6715c52fd12f31907bcf,,,,,,,,,,,,,,,,,,,,,,,a,1,"[""0.275"",""0.492"",""0.865"",""0.428""]","[1,1,1,0]",0,15,15,15,1,0,0,,,0,FALSE,3.8511,,,,,,,,,,,,,,,,,,,,,,,,,,,,,,,
,611fe7bbddb619488a23330d,627c6fd99a918b62953cb027,2022-05-11_21h25.42.788,classification_task,2021.2.3,Win32,60.10699044,627c6715c52fd12f31907bcf,,,,,,,,,,,,,,,,,,,,,,,l,1,"[""0.041"",""0.077"",""0.227"",""0.711""]","[1,1,0,1]",0,16,16,16,1,1,1,,,0,FALSE,5.602,,,,,,,,,,,,,,,,,,,,,,,,,,,,,,,
,611fe7bbddb619488a23330d,627c6fd99a918b62953cb027,2022-05-11_21h25.42.788,classification_task,2021.2.3,Win32,60.10699044,627c6715c52fd12f31907bcf,,,,,,,,,,,,,,,,,,,,,,,l,0,"[""0.417"",""0.492"",""0.865"",""0.972""]","[0,1,1,1]",0,17,17,17,1,0,0,,,0,FALSE,4.8983,,,,,,,,,,,,,,,,,,,,,,,,,,,,,,,
,611fe7bbddb619488a23330d,627c6fd99a918b62953cb027,2022-05-11_21h25.42.788,classification_task,2021.2.3,Win32,60.10699044,627c6715c52fd12f31907bcf,,,,,,,,,,,,,,,,,,,,,,,a,1,"[""0.175"",""0.827"",""0.589"",""0.906""]","[1,0,1,1]",0,18,18,18,1,0,1,,,0,FALSE,3.0636,,,,,,,,,,,,,,,,,,,,,,,,,,,,,,,
,611fe7bbddb619488a23330d,627c6fd99a918b62953cb027,2022-05-11_21h25.42.788,classification_task,2021.2.3,Win32,60.10699044,627c6715c52fd12f31907bcf,,,,,,,,,,,,,,,,,,,,,,,l,1,"[""0.227"",""0.077"",""0.649"",""0.711""]","[0,1,1,1]",0,19,19,19,1,1,1,,,0,FALSE,4.0288,,,,,,,,,,,,,,,,,,,,,,,,,,,,,,,
,611fe7bbddb619488a23330d,627c6fd99a918b62953cb027,2022-05-11_21h25.42.788,classification_task,2021.2.3,Win32,60.10699044,627c6715c52fd12f31907bcf,,,,,,,,,,,,,,,,,,,,,,,l,1,"[""0.041"",""0.077"",""0.649"",""0.236""]","[1,1,1,0]",0,20,20,20,1,1,1,,,0,FALSE,4.2807,,,,,,,,,,,,,,,,,,,,,,,,,,,,,,,
,611fe7bbddb619488a23330d,627c6fd99a918b62953cb027,2022-05-11_21h25.42.788,classification_task,2021.2.3,Win32,60.10699044,627c6715c52fd12f31907bcf,,,,,,,,,,,,,,,,,,,,,,,a,0,"[""0.041"",""0.440"",""0.649"",""0.711""]","[1,0,1,1]",0,21,21,21,1,1,1,,,0,FALSE,3.4174,,,,,,,,,,,,,,,,,,,,,,,,,,,,,,,
,611fe7bbddb619488a23330d,627c6fd99a918b62953cb027,2022-05-11_21h25.42.788,classification_task,2021.2.3,Win32,60.10699044,627c6715c52fd12f31907bcf,,,,,,,,,,,,,,,,,,,,,,,a,1,"[""0.275"",""0.492"",""0.865"",""0.809""]","[1,1,1,0]",0,22,22,22,1,0,0,,,0,FALSE,5.1146,,,,,,,,,,,,,,,,,,,,,,,,,,,,,,,
,611fe7bbddb619488a23330d,627c6fd99a918b62953cb027,2022-05-11_21h25.42.788,classification_task,2021.2.3,Win32,60.10699044,627c6715c52fd12f31907bcf,,,,,,,,,,,,,,,,,,,,,,,a,1,"[""0.175"",""0.382"",""0.456"",""0.906""]","[1,1,0,1]",0,23,23,23,1,0,1,,,0,FALSE,2.9175,,,,,,,,,,,,,,,,,,,,,,,,,,,,,,,
,611fe7bbddb619488a23330d,627c6fd99a918b62953cb027,2022-05-11_21h25.42.788,classification_task,2021.2.3,Win32,60.10699044,627c6715c52fd12f31907bcf,,,,,,,,,,,,,,,,,,,,,,,l,1,"[""0.116"",""0.340"",""0.428"",""0.750""]","[1,1,0,1]",0,24,24,24,1,1,0,,,0,FALSE,2.5999,,,,,,,,,,,,,,,,,,,,,,,,,,,,,,,
,611fe7bbddb619488a23330d,627c6fd99a918b62953cb027,2022-05-11_21h25.42.788,classification_task,2021.2.3,Win32,60.10699044,627c6715c52fd12f31907bcf,,,,,,,,,,,,,,,,,,,,,,,a,1,"[""0.175"",""0.382"",""0.589"",""0.421""]","[1,1,1,0]",0,25,25,25,1,0,1,,,0,FALSE,3.2804,,,,,,,,,,,,,,,,,,,,,,,,,,,,,,,
,611fe7bbddb619488a23330d,627c6fd99a918b62953cb027,2022-05-11_21h25.42.788,classification_task,2021.2.3,Win32,60.10699044,627c6715c52fd12f31907bcf,,,,,,,,,,,,,,,,,,,,,,,l,1,"[""0.427"",""0.340"",""0.527"",""0.750""]","[0,1,1,1]",0,26,26,26,1,1,0,,,0,FALSE,1.5887,,,,,,,,,,,,,,,,,,,,,,,,,,,,,,,
,611fe7bbddb619488a23330d,627c6fd99a918b62953cb027,2022-05-11_21h25.42.788,classification_task,2021.2.3,Win32,60.10699044,627c6715c52fd12f31907bcf,,,,,,,,,,,,,,,,,,,,,,,l,1,"[""0.116"",""0.340"",""0.527"",""0.241""]","[1,1,1,0]",0,27,27,27,1,1,0,,,0,FALSE,1.7989,,,,,,,,,,,,,,,,,,,,,,,,,,,,,,,
,611fe7bbddb619488a23330d,627c6fd99a918b62953cb027,2022-05-11_21h25.42.788,classification_task,2021.2.3,Win32,60.10699044,627c6715c52fd12f31907bcf,,,,,,,,,,,,,,,,,,,,,,,l,1,"[""0.116"",""0.809"",""0.527"",""0.750""]","[1,0,1,1]",0,28,28,28,1,1,0,,,0,FALSE,1.7384,,,,,,,,,,,,,,,,,,,,,,,,,,,,,,,
,611fe7bbddb619488a23330d,627c6fd99a918b62953cb027,2022-05-11_21h25.42.788,classification_task,2021.2.3,Win32,60.10699044,627c6715c52fd12f31907bcf,,,,,,,,,,,,,,,,,,,,,,,a,1,"[""0.275"",""0.794"",""0.865"",""0.972""]","[1,0,1,1]",0,29,29,29,1,0,0,,,0,FALSE,4.9072,,,,,,,,,,,,,,,,,,,,,,,,,,,,,,,
,611fe7bbddb619488a23330d,627c6fd99a918b62953cb027,2022-05-11_21h25.42.788,classification_task,2021.2.3,Win32,60.10699044,627c6715c52fd12f31907bcf,,,,,,,,,,,,,,,,,,,,,,,l,0,"[""0.275"",""0.492"",""0.231"",""0.972""]","[1,1,0,1]",0,30,30,30,1,0,0,,,0,FALSE,2.485,,,,,,,,,,,,,,,,,,,,,,,,,,,,,,,
,611fe7bbddb619488a23330d,627c6fd99a918b62953cb027,2022-05-11_21h25.42.788,classification_task,2021.2.3,Win32,60.10699044,627c6715c52fd12f31907bcf,,,,,,,,,,,,,,,,,,,,,,,a,1,"[""0.827"",""0.382"",""0.589"",""0.906""]","[0,1,1,1]",0,31,31,31,1,0,1,,,0,FALSE,5.3467,,,,,,,,,,,,,,,,,,,,,,,,,,,,,,,
,611fe7bbddb619488a23330d,627c6fd99a918b62953cb027,2022-05-11_21h25.42.788,classification_task,2021.2.3,Win32,60.10699044,627c6715c52fd12f31907bcf,,,,,,,,,,,,,,,,,,,,,,,l,1,"[""0.428"",""0.077"",""0.649"",""0.711""]","[0,1,1,1]",0,32,32,32,1,1,1,,,0,FALSE,6.2463,,,,,,,,,,,,,,,,,,,,,,,,,,,,,,,
,611fe7bbddb619488a23330d,627c6fd99a918b62953cb027,2022-05-11_21h25.42.788,classification_task,2021.2.3,Win32,60.10699044,627c6715c52fd12f31907bcf,,,,,,,,,,,,,,,,,,,,,,,l,1,"[""0.116"",""0.340"",""0.527"",""0.227""]","[1,1,1,0]",0,33,33,33,1,1,0,,,0,FALSE,2.8615,,,,,,,,,,,,,,,,,,,,,,,,,,,,,,,
,611fe7bbddb619488a23330d,627c6fd99a918b62953cb027,2022-05-11_21h25.42.788,classification_task,2021.2.3,Win32,60.10699044,627c6715c52fd12f31907bcf,,,,,,,,,,,,,,,,,,,,,,,l,1,"[""0.041"",""0.077"",""0.227"",""0.711""]","[1,1,0,1]",0,34,34,34,1,1,1,,,0,FALSE,1.7797,,,,,,,,,,,,,,,,,,,,,,,,,,,,,,,
,611fe7bbddb619488a23330d,627c6fd99a918b62953cb027,2022-05-11_21h25.42.788,classification_task,2021.2.3,Win32,60.10699044,627c6715c52fd12f31907bcf,,,,,,,,,,,,,,,,,,,,,,,l,1,"[""0.041"",""0.427"",""0.649"",""0.711""]","[1,0,1,1]",0,35,35,35,1,1,1,,,0,FALSE,2.0351,,,,,,,,,,,,,,,,,,,,,,,,,,,,,,,
,611fe7bbddb619488a23330d,627c6fd99a918b62953cb027,2022-05-11_21h25.42.788,classification_task,2021.2.3,Win32,60.10699044,627c6715c52fd12f31907bcf,,,,,,,,,,,,,,,,,,,,,,,a,1,"[""0.241"",""0.492"",""0.865"",""0.972""]","[0,1,1,1]",0,36,36,36,1,0,0,,,0,FALSE,1.8746,,,,,,,,,,,,,,,,,,,,,,,,,,,,,,,
,611fe7bbddb619488a23330d,627c6fd99a918b62953cb027,2022-05-11_21h25.42.788,classification_task,2021.2.3,Win32,60.10699044,627c6715c52fd12f31907bcf,,,,,,,,,,,,,,,,,,,,,,,l,1,"[""0.116"",""0.417"",""0.527"",""0.750""]","[1,0,1,1]",0,37,37,37,1,1,0,,,0,FALSE,1.2972,,,,,,,,,,,,,,,,,,,,,,,,,,,,,,,
,611fe7bbddb619488a23330d,627c6fd99a918b62953cb027,2022-05-11_21h25.42.788,classification_task,2021.2.3,Win32,60.10699044,627c6715c52fd12f31907bcf,,,,,,,,,,,,,,,,,,,,,,,a,1,"[""0.275"",""0.492"",""0.865"",""0.417""]","[1,1,1,0]",0,38,38,38,1,0,0,,,0,FALSE,2.5487,,,,,,,,,,,,,,,,,,,,,,,,,,,,,,,
,611fe7bbddb619488a23330d,627c6fd99a918b62953cb027,2022-05-11_21h25.42.788,classification_task,2021.2.3,Win32,60.10699044,627c6715c52fd12f31907bcf,,,,,,,,,,,,,,,,,,,,,,,l,1,"[""0.231"",""0.340"",""0.527"",""0.750""]","[0,1,1,1]",0,39,39,39,1,1,0,,,0,FALSE,1.3536,,,,,,,,,,,,,,,,,,,,,,,,,,,,,,,
,611fe7bbddb619488a23330d,627c6fd99a918b62953cb027,2022-05-11_21h25.42.788,classification_task,2021.2.3,Win32,60.10699044,627c6715c52fd12f31907bcf,,,,,,,,,,,,,,,,,,,,,,,a,1,"[""0.175"",""0.456"",""0.589"",""0.906""]","[1,0,1,1]",0,40,40,40,1,0,1,,,0,FALSE,1.7842,,,,,,,,,,,,,,,,,,,,,,,,,,,,,,,
,611fe7bbddb619488a23330d,627c6fd99a918b62953cb027,2022-05-11_21h25.42.788,classification_task,2021.2.3,Win32,60.10699044,627c6715c52fd12f31907bcf,,,,,,,,,,,,,,,,,,,,,,,a,1,"[""0.175"",""0.382"",""0.589"",""0.456""]","[1,1,1,0]",0,41,41,41,1,0,1,,,0,FALSE,1.0424,,,,,,,,,,,,,,,,,,,,,,,,,,,,,,,
,611fe7bbddb619488a23330d,627c6fd99a918b62953cb027,2022-05-11_21h25.42.788,classification_task,2021.2.3,Win32,60.10699044,627c6715c52fd12f31907bcf,,,,,,,,,,,,,,,,,,,,,,,a,1,"[""0.456"",""0.382"",""0.589"",""0.906""]","[0,1,1,1]",0,42,42,42,1,0,1,,,0,FALSE,2.2286,,,,,,,,,,,,,,,,,,,,,,,,,,,,,,,
,611fe7bbddb619488a23330d,627c6fd99a918b62953cb027,2022-05-11_21h25.42.788,classification_task,2021.2.3,Win32,60.10699044,627c6715c52fd12f31907bcf,,,,,,,,,,,,,,,,,,,,,,,l,0,"[""0.275"",""0.417"",""0.865"",""0.972""]","[1,0,1,1]",0,43,43,43,1,0,0,,,0,FALSE,4.4074,,,,,,,,,,,,,,,,,,,,,,,,,,,,,,,
,611fe7bbddb619488a23330d,627c6fd99a918b62953cb027,2022-05-11_21h25.42.788,classification_task,2021.2.3,Win32,60.10699044,627c6715c52fd12f31907bcf,,,,,,,,,,,,,,,,,,,,,,,l,0,"[""0.275"",""0.492"",""0.235"",""0.972""]","[1,1,0,1]",0,44,44,44,1,0,0,,,0,FALSE,1.1445,,,,,,,,,,,,,,,,,,,,,,,,,,,,,,,
,611fe7bbddb619488a23330d,627c6fd99a918b62953cb027,2022-05-11_21h25.42.788,classification_task,2021.2.3,Win32,60.10699044,627c6715c52fd12f31907bcf,,,,,,,,,,,,,,,,,,,,,,,a,1,"[""0.175"",""0.382"",""0.241"",""0.906""]","[1,1,0,1]",0,45,45,45,1,0,1,,,0,FALSE,2.9837,,,,,,,,,,,,,,,,,,,,,,,,,,,,,,,
,611fe7bbddb619488a23330d,627c6fd99a918b62953cb027,2022-05-11_21h25.42.788,classification_task,2021.2.3,Win32,60.10699044,627c6715c52fd12f31907bcf,,,,,,,,,,,,,,,,,,,,,,,l,1,"[""0.041"",""0.077"",""0.649"",""0.227""]","[1,1,1,0]",0,46,46,46,1,1,1,,,0,FALSE,1.6093,,,,,,,,,,,,,,,,,,,,,,,,,,,,,,,
,611fe7bbddb619488a23330d,627c6fd99a918b62953cb027,2022-05-11_21h25.42.788,classification_task,2021.2.3,Win32,60.10699044,627c6715c52fd12f31907bcf,,,,,,,,,,,,,,,,,,,,,,,l,1,"[""0.116"",""0.340"",""0.821"",""0.750""]","[1,1,0,1]",0,47,47,47,1,1,0,,,0,FALSE,1.37,,,,,,,,,,,,,,,,,,,,,,,,,,,,,,,
,611fe7bbddb619488a23330d,627c6fd99a918b62953cb027,2022-05-11_21h25.42.788,classification_task,2021.2.3,Win32,60.10699044,627c6715c52fd12f31907bcf,,,,,,,,,,,,,,,,,,,,,,,a,0,"[""0.456"",""0.077"",""0.649"",""0.711""]","[0,1,1,1]",0,48,48,48,1,1,1,,,0,FALSE,1.3539,,,,,,,,,,,,,,,,,,,,,,,,,,,,,,,
,611fe7bbddb619488a23330d,627c6fd99a918b62953cb027,2022-05-11_21h25.42.788,classification_task,2021.2.3,Win32,60.10699044,627c6715c52fd12f31907bcf,,,,,,,,,,,,,,,,,,,,,,,a,1,"[""0.275"",""0.427"",""0.865"",""0.972""]","[1,0,1,1]",0,49,49,49,1,0,0,,,0,FALSE,3.8379,,,,,,,,,,,,,,,,,,,,,,,,,,,,,,,
,611fe7bbddb619488a23330d,627c6fd99a918b62953cb027,2022-05-11_21h25.42.788,classification_task,2021.2.3,Win32,60.10699044,627c6715c52fd12f31907bcf,,,,,,,,,,,,,,,,,,,,,,,l,0,"[""0.275"",""0.492"",""0.236"",""0.972""]","[1,1,0,1]",0,50,50,50,1,0,0,,,0,FALSE,1.4098,,,,,,,,,,,,,,,,,,,,,,,,,,,,,,,
,611fe7bbddb619488a23330d,627c6fd99a918b62953cb027,2022-05-11_21h25.42.788,classification_task,2021.2.3,Win32,60.10699044,627c6715c52fd12f31907bcf,,,,,,,,,,,,,,,,,,,,,,,l,0,"[""0.227"",""0.382"",""0.589"",""0.906""]","[0,1,1,1]",0,51,51,51,1,0,1,,,0,FALSE,1.5711,,,,,,,,,,,,,,,,,,,,,,,,,,,,,,,
,611fe7bbddb619488a23330d,627c6fd99a918b62953cb027,2022-05-11_21h25.42.788,classification_task,2021.2.3,Win32,60.10699044,627c6715c52fd12f31907bcf,,,,,,,,,,,,,,,,,,,,,,,a,1,"[""0.275"",""0.492"",""0.865"",""0.428""]","[1,1,1,0]",0,52,52,52,1,0,0,,,0,FALSE,3.05,,,,,,,,,,,,,,,,,,,,,,,,,,,,,,,
,611fe7bbddb619488a23330d,627c6fd99a918b62953cb027,2022-05-11_21h25.42.788,classification_task,2021.2.3,Win32,60.10699044,627c6715c52fd12f31907bcf,,,,,,,,,,,,,,,,,,,,,,,l,1,"[""0.116"",""0.340"",""0.227"",""0.750""]","[1,1,0,1]",0,53,53,53,1,1,0,,,0,FALSE,1.3115,,,,,,,,,,,,,,,,,,,,,,,,,,,,,,,
,611fe7bbddb619488a23330d,627c6fd99a918b62953cb027,2022-05-11_21h25.42.788,classification_task,2021.2.3,Win32,60.10699044,627c6715c52fd12f31907bcf,,,,,,,,,,,,,,,,,,,,,,,l,0,"[""0.175"",""0.382"",""0.417"",""0.906""]","[1,1,0,1]",0,54,54,54,1,0,1,,,0,FALSE,1.304,,,,,,,,,,,,,,,,,,,,,,,,,,,,,,,
,611fe7bbddb619488a23330d,627c6fd99a918b62953cb027,2022-05-11_21h25.42.788,classification_task,2021.2.3,Win32,60.10699044,627c6715c52fd12f31907bcf,,,,,,,,,,,,,,,,,,,,,,,l,1,"[""0.116"",""0.428"",""0.527"",""0.750""]","[1,0,1,1]",0,55,55,55,1,1,0,,,0,FALSE,1.1029,,,,,,,,,,,,,,,,,,,,,,,,,,,,,,,
,611fe7bbddb619488a23330d,627c6fd99a918b62953cb027,2022-05-11_21h25.42.788,classification_task,2021.2.3,Win32,60.10699044,627c6715c52fd12f31907bcf,,,,,,,,,,,,,,,,,,,,,,,l,0,"[""0.428"",""0.492"",""0.865"",""0.972""]","[0,1,1,1]",0,56,56,56,1,0,0,,,0,FALSE,4.102,,,,,,,,,,,,,,,,,,,,,,,,,,,,,,,
,611fe7bbddb619488a23330d,627c6fd99a918b62953cb027,2022-05-11_21h25.42.788,classification_task,2021.2.3,Win32,60.10699044,627c6715c52fd12f31907bcf,,,,,,,,,,,,,,,,,,,,,,,l,1,"[""0.116"",""0.340"",""0.527"",""0.231""]","[1,1,1,0]",0,57,57,57,1,1,0,,,0,FALSE,1.0997,,,,,,,,,,,,,,,,,,,,,,,,,,,,,,,
,611fe7bbddb619488a23330d,627c6fd99a918b62953cb027,2022-05-11_21h25.42.788,classification_task,2021.2.3,Win32,60.10699044,627c6715c52fd12f31907bcf,,,,,,,,,,,,,,,,,,,,,,,l,1,"[""0.041"",""0.077"",""0.236"",""0.711""]","[1,1,0,1]",0,58,58,58,1,1,1,,,0,FALSE,1.4278,,,,,,,,,,,,,,,,,,,,,,,,,,,,,,,
,611fe7bbddb619488a23330d,627c6fd99a918b62953cb027,2022-05-11_21h25.42.788,classification_task,2021.2.3,Win32,60.10699044,627c6715c52fd12f31907bcf,,,,,,,,,,,,,,,,,,,,,,,l,1,"[""0.041"",""0.077"",""0.649"",""0.794""]","[1,1,1,0]",0,59,59,59,1,1,1,,,0,FALSE,2.1431,,,,,,,,,,,,,,,,,,,,,,,,,,,,,,,
,611fe7bbddb619488a23330d,627c6fd99a918b62953cb027,2022-05-11_21h25.42.788,classification_task,2021.2.3,Win32,60.10699044,627c6715c52fd12f31907bcf,,,,,,,,,,,,,,,,,,,,,,,a,1,"[""0.175"",""0.809"",""0.589"",""0.906""]","[1,0,1,1]",0,60,60,60,1,0,1,,,0,FALSE,0.9877,,,,,,,,,,,,,,,,,,,,,,,,,,,,,,,
,611fe7bbddb619488a23330d,627c6fd99a918b62953cb027,2022-05-11_21h25.42.788,classification_task,2021.2.3,Win32,60.10699044,627c6715c52fd12f31907bcf,,,,,,,,,,,,,,,,,,,,,,,l,1,"[""0.041"",""0.227"",""0.649"",""0.711""]","[1,0,1,1]",0,61,61,61,1,1,1,,,0,FALSE,2.1361,,,,,,,,,,,,,,,,,,,,,,,,,,,,,,,
,611fe7bbddb619488a23330d,627c6fd99a918b62953cb027,2022-05-11_21h25.42.788,classification_task,2021.2.3,Win32,60.10699044,627c6715c52fd12f31907bcf,,,,,,,,,,,,,,,,,,,,,,,a,0,"[""0.421"",""0.340"",""0.527"",""0.750""]","[0,1,1,1]",0,62,62,62,1,1,0,,,0,FALSE,1.5047,,,,,,,,,,,,,,,,,,,,,,,,,,,,,,,
,611fe7bbddb619488a23330d,627c6fd99a918b62953cb027,2022-05-11_21h25.42.788,classification_task,2021.2.3,Win32,60.10699044,627c6715c52fd12f31907bcf,,,,,,,,,,,,,,,,,,,,,,,a,1,"[""0.175"",""0.382"",""0.589"",""0.241""]","[1,1,1,0]",0,63,63,63,1,0,1,,,0,FALSE,1.1079,,,,,,,,,,,,,,,,,,,,,,,,,,,,,,,
,611fe7bbddb619488a23330d,627c6fd99a918b62953cb027,2022-05-11_21h25.42.788,classification_task,2021.2.3,Win32,60.10699044,627c6715c52fd12f31907bcf,,,,,,,,,,,,,,,,,,,,,,,,,,,,,,,,,,,,,,,0, ,,0,3.113854595,884.8126,0,0,0,0,1,2,1,,,,,,,,,,,,,,,,,,
,611fe7bbddb619488a23330d,627c6fd99a918b62953cb027,2022-05-11_21h25.42.788,classification_task,2021.2.3,Win32,60.10699044,627c6715c52fd12f31907bcf,,,,,,,,,,,,,,,,,,,,,,,,,,,,,,,,,,,,,,,1,  ,,0,4.412110523,894.0457,0,0,0,0,1,2,1,,,,,,,,,,,,,,,,,,
,611fe7bbddb619488a23330d,627c6fd99a918b62953cb027,2022-05-11_21h25.42.788,classification_task,2021.2.3,Win32,60.10699044,627c6715c52fd12f31907bcf,,,,,,,,,,,,,,,,,,,,,,,,,,,,,,,,,,,,,,,2,  ,,0,3.13834999,901.792,0,0,0,0,1,2,1,,,,,,,,,,,,,,,,,,
,611fe7bbddb619488a23330d,627c6fd99a918b62953cb027,2022-05-11_21h25.42.788,classification_task,2021.2.3,Win32,60.10699044,627c6715c52fd12f31907bcf,,,,,,,,,,,,,,,,,,,,,,,,,,,,,,,,,,,,,,,,,,,,,0,0,0,0,1,,1,,,,,,,,,,,,,,,,,,
,611fe7bbddb619488a23330d,627c6fd99a918b62953cb027,2022-05-11_21h25.42.788,classification_task,2021.2.3,Win32,60.10699044,627c6715c52fd12f31907bcf,,,,,,,,,,,,,,,,,,,,,space,64.0847,a,1,"[""0.427"",""0.492"",""0.865"",""0.972""]","[0,1,1,1]",0,0,0,0,1,0,0,,,0,FALSE,3.6255,,,,,,,,,,,,,,,,,,,,,,,,,,,,,,,
,611fe7bbddb619488a23330d,627c6fd99a918b62953cb027,2022-05-11_21h25.42.788,classification_task,2021.2.3,Win32,60.10699044,627c6715c52fd12f31907bcf,,,,,,,,,,,,,,,,,,,,,,,l,1,"[""0.116"",""0.340"",""0.428"",""0.750""]","[1,1,0,1]",0,1,1,1,1,1,0,,,0,FALSE,0.8679,,,,,,,,,,,,,,,,,,,,,,,,,,,,,,,
,611fe7bbddb619488a23330d,627c6fd99a918b62953cb027,2022-05-11_21h25.42.788,classification_task,2021.2.3,Win32,60.10699044,627c6715c52fd12f31907bcf,,,,,,,,,,,,,,,,,,,,,,,l,1,"[""0.427"",""0.340"",""0.527"",""0.750""]","[0,1,1,1]",0,2,2,2,1,1,0,,,0,FALSE,2.0314,,,,,,,,,,,,,,,,,,,,,,,,,,,,,,,
,611fe7bbddb619488a23330d,627c6fd99a918b62953cb027,2022-05-11_21h25.42.788,classification_task,2021.2.3,Win32,60.10699044,627c6715c52fd12f31907bcf,,,,,,,,,,,,,,,,,,,,,,,a,1,"[""0.275"",""0.227"",""0.865"",""0.972""]","[1,0,1,1]",0,3,3,3,1,0,0,,,0,FALSE,0.9134,,,,,,,,,,,,,,,,,,,,,,,,,,,,,,,
,611fe7bbddb619488a23330d,627c6fd99a918b62953cb027,2022-05-11_21h25.42.788,classification_task,2021.2.3,Win32,60.10699044,627c6715c52fd12f31907bcf,,,,,,,,,,,,,,,,,,,,,,,a,1,"[""0.175"",""0.382"",""0.589"",""0.417""]","[1,1,1,0]",0,4,4,4,1,0,1,,,0,FALSE,3.0139,,,,,,,,,,,,,,,,,,,,,,,,,,,,,,,
,611fe7bbddb619488a23330d,627c6fd99a918b62953cb027,2022-05-11_21h25.42.788,classification_task,2021.2.3,Win32,60.10699044,627c6715c52fd12f31907bcf,,,,,,,,,,,,,,,,,,,,,,,l,1,"[""0.116"",""0.417"",""0.527"",""0.750""]","[1,0,1,1]",0,5,5,5,1,1,0,,,0,FALSE,1.0186,,,,,,,,,,,,,,,,,,,,,,,,,,,,,,,
,611fe7bbddb619488a23330d,627c6fd99a918b62953cb027,2022-05-11_21h25.42.788,classification_task,2021.2.3,Win32,60.10699044,627c6715c52fd12f31907bcf,,,,,,,,,,,,,,,,,,,,,,,l,1,"[""0.421"",""0.077"",""0.649"",""0.711""]","[0,1,1,1]",0,6,6,6,1,1,1,,,0,FALSE,2.143,,,,,,,,,,,,,,,,,,,,,,,,,,,,,,,
,611fe7bbddb619488a23330d,627c6fd99a918b62953cb027,2022-05-11_21h25.42.788,classification_task,2021.2.3,Win32,60.10699044,627c6715c52fd12f31907bcf,,,,,,,,,,,,,,,,,,,,,,,a,1,"[""0.275"",""0.492"",""0.456"",""0.972""]","[1,1,0,1]",0,7,7,7,1,0,0,,,0,FALSE,0.9589,,,,,,,,,,,,,,,,,,,,,,,,,,,,,,,
,611fe7bbddb619488a23330d,627c6fd99a918b62953cb027,2022-05-11_21h25.42.788,classification_task,2021.2.3,Win32,60.10699044,627c6715c52fd12f31907bcf,,,,,,,,,,,,,,,,,,,,,,,a,1,"[""0.175"",""0.382"",""0.809"",""0.906""]","[1,1,0,1]",0,8,8,8,1,0,1,,,0,FALSE,1.5546,,,,,,,,,,,,,,,,,,,,,,,,,,,,,,,
,611fe7bbddb619488a23330d,627c6fd99a918b62953cb027,2022-05-11_21h25.42.788,classification_task,2021.2.3,Win32,60.10699044,627c6715c52fd12f31907bcf,,,,,,,,,,,,,,,,,,,,,,,l,1,"[""0.041"",""0.241"",""0.649"",""0.711""]","[1,0,1,1]",0,9,9,9,1,1,1,,,0,FALSE,1.2368,,,,,,,,,,,,,,,,,,,,,,,,,,,,,,,
,611fe7bbddb619488a23330d,627c6fd99a918b62953cb027,2022-05-11_21h25.42.788,classification_task,2021.2.3,Win32,60.10699044,627c6715c52fd12f31907bcf,,,,,,,,,,,,,,,,,,,,,,,l,1,"[""0.041"",""0.077"",""0.649"",""0.241""]","[1,1,1,0]",0,10,10,10,1,1,1,,,0,FALSE,2.2488,,,,,,,,,,,,,,,,,,,,,,,,,,,,,,,
,611fe7bbddb619488a23330d,627c6fd99a918b62953cb027,2022-05-11_21h25.42.788,classification_task,2021.2.3,Win32,60.10699044,627c6715c52fd12f31907bcf,,,,,,,,,,,,,,,,,,,,,,,a,1,"[""0.275"",""0.492"",""0.865"",""0.794""]","[1,1,1,0]",0,11,11,11,1,0,0,,,0,FALSE,0.8642,,,,,,,,,,,,,,,,,,,,,,,,,,,,,,,
,611fe7bbddb619488a23330d,627c6fd99a918b62953cb027,2022-05-11_21h25.42.788,classification_task,2021.2.3,Win32,60.10699044,627c6715c52fd12f31907bcf,,,,,,,,,,,,,,,,,,,,,,,l,1,"[""0.116"",""0.340"",""0.527"",""0.809""]","[1,1,1,0]",0,12,12,12,1,1,0,,,0,FALSE,0.9118,,,,,,,,,,,,,,,,,,,,,,,,,,,,,,,
,611fe7bbddb619488a23330d,627c6fd99a918b62953cb027,2022-05-11_21h25.42.788,classification_task,2021.2.3,Win32,60.10699044,627c6715c52fd12f31907bcf,,,,,,,,,,,,,,,,,,,,,,,l,0,"[""0.236"",""0.382"",""0.589"",""0.906""]","[0,1,1,1]",0,13,13,13,1,0,1,,,0,FALSE,1.1236,,,,,,,,,,,,,,,,,,,,,,,,,,,,,,,
,611fe7bbddb619488a23330d,627c6fd99a918b62953cb027,2022-05-11_21h25.42.788,classification_task,2021.2.3,Win32,60.10699044,627c6715c52fd12f31907bcf,,,,,,,,,,,,,,,,,,,,,,,a,1,"[""0.175"",""0.236"",""0.589"",""0.906""]","[1,0,1,1]",0,14,14,14,1,0,1,,,0,FALSE,1.1183,,,,,,,,,,,,,,,,,,,,,,,,,,,,,,,
,611fe7bbddb619488a23330d,627c6fd99a918b62953cb027,2022-05-11_21h25.42.788,classification_task,2021.2.3,Win32,60.10699044,627c6715c52fd12f31907bcf,,,,,,,,,,,,,,,,,,,,,,,a,0,"[""0.041"",""0.077"",""0.827"",""0.711""]","[1,1,0,1]",0,15,15,15,1,1,1,,,0,FALSE,1.44,,,,,,,,,,,,,,,,,,,,,,,,,,,,,,,
,611fe7bbddb619488a23330d,627c6fd99a918b62953cb027,2022-05-11_21h25.42.788,classification_task,2021.2.3,Win32,60.10699044,627c6715c52fd12f31907bcf,,,,,,,,,,,,,,,,,,,,,,,a,1,"[""0.275"",""0.235"",""0.865"",""0.972""]","[1,0,1,1]",0,16,16,16,1,0,0,,,0,FALSE,0.9028,,,,,,,,,,,,,,,,,,,,,,,,,,,,,,,
,611fe7bbddb619488a23330d,627c6fd99a918b62953cb027,2022-05-11_21h25.42.788,classification_task,2021.2.3,Win32,60.10699044,627c6715c52fd12f31907bcf,,,,,,,,,,,,,,,,,,,,,,,l,1,"[""0.116"",""0.340"",""0.236"",""0.750""]","[1,1,0,1]",0,17,17,17,1,1,0,,,0,FALSE,1.6624,,,,,,,,,,,,,,,,,,,,,,,,,,,,,,,
,611fe7bbddb619488a23330d,627c6fd99a918b62953cb027,2022-05-11_21h25.42.788,classification_task,2021.2.3,Win32,60.10699044,627c6715c52fd12f31907bcf,,,,,,,,,,,,,,,,,,,,,,,l,1,"[""0.041"",""0.236"",""0.649"",""0.711""]","[1,0,1,1]",0,18,18,18,1,1,1,,,0,FALSE,2.1243,,,,,,,,,,,,,,,,,,,,,,,,,,,,,,,
,611fe7bbddb619488a23330d,627c6fd99a918b62953cb027,2022-05-11_21h25.42.788,classification_task,2021.2.3,Win32,60.10699044,627c6715c52fd12f31907bcf,,,,,,,,,,,,,,,,,,,,,,,l,1,"[""0.116"",""0.821"",""0.527"",""0.750""]","[1,0,1,1]",0,19,19,19,1,1,0,,,0,FALSE,1.571,,,,,,,,,,,,,,,,,,,,,,,,,,,,,,,
,611fe7bbddb619488a23330d,627c6fd99a918b62953cb027,2022-05-11_21h25.42.788,classification_task,2021.2.3,Win32,60.10699044,627c6715c52fd12f31907bcf,,,,,,,,,,,,,,,,,,,,,,,l,1,"[""0.041"",""0.077"",""0.827"",""0.711""]","[1,1,0,1]",0,20,20,20,1,1,1,,,0,FALSE,1.5732,,,,,,,,,,,,,,,,,,,,,,,,,,,,,,,
,611fe7bbddb619488a23330d,627c6fd99a918b62953cb027,2022-05-11_21h25.42.788,classification_task,2021.2.3,Win32,60.10699044,627c6715c52fd12f31907bcf,,,,,,,,,,,,,,,,,,,,,,,l,0,"[""0.227"",""0.382"",""0.589"",""0.906""]","[0,1,1,1]",0,21,21,21,1,0,1,,,0,FALSE,2.2265,,,,,,,,,,,,,,,,,,,,,,,,,,,,,,,
,611fe7bbddb619488a23330d,627c6fd99a918b62953cb027,2022-05-11_21h25.42.788,classification_task,2021.2.3,Win32,60.10699044,627c6715c52fd12f31907bcf,,,,,,,,,,,,,,,,,,,,,,,l,1,"[""0.041"",""0.077"",""0.649"",""0.421""]","[1,1,1,0]",0,22,22,22,1,1,1,,,0,FALSE,1.1188,,,,,,,,,,,,,,,,,,,,,,,,,,,,,,,
,611fe7bbddb619488a23330d,627c6fd99a918b62953cb027,2022-05-11_21h25.42.788,classification_task,2021.2.3,Win32,60.10699044,627c6715c52fd12f31907bcf,,,,,,,,,,,,,,,,,,,,,,,a,1,"[""0.275"",""0.492"",""0.865"",""0.794""]","[1,1,1,0]",0,23,23,23,1,0,0,,,0,FALSE,0.6003,,,,,,,,,,,,,,,,,,,,,,,,,,,,,,,
,611fe7bbddb619488a23330d,627c6fd99a918b62953cb027,2022-05-11_21h25.42.788,classification_task,2021.2.3,Win32,60.10699044,627c6715c52fd12f31907bcf,,,,,,,,,,,,,,,,,,,,,,,l,1,"[""0.427"",""0.077"",""0.649"",""0.711""]","[0,1,1,1]",0,24,24,24,1,1,1,,,0,FALSE,3.3538,,,,,,,,,,,,,,,,,,,,,,,,,,,,,,,
,611fe7bbddb619488a23330d,627c6fd99a918b62953cb027,2022-05-11_21h25.42.788,classification_task,2021.2.3,Win32,60.10699044,627c6715c52fd12f31907bcf,,,,,,,,,,,,,,,,,,,,,,,l,1,"[""0.440"",""0.340"",""0.527"",""0.750""]","[0,1,1,1]",0,25,25,25,1,1,0,,,0,FALSE,1.2619,,,,,,,,,,,,,,,,,,,,,,,,,,,,,,,
,611fe7bbddb619488a23330d,627c6fd99a918b62953cb027,2022-05-11_21h25.42.788,classification_task,2021.2.3,Win32,60.10699044,627c6715c52fd12f31907bcf,,,,,,,,,,,,,,,,,,,,,,,a,1,"[""0.175"",""0.382"",""0.241"",""0.906""]","[1,1,0,1]",0,26,26,26,1,0,1,,,0,FALSE,1.0719,,,,,,,,,,,,,,,,,,,,,,,,,,,,,,,
,611fe7bbddb619488a23330d,627c6fd99a918b62953cb027,2022-05-11_21h25.42.788,classification_task,2021.2.3,Win32,60.10699044,627c6715c52fd12f31907bcf,,,,,,,,,,,,,,,,,,,,,,,l,1,"[""0.116"",""0.340"",""0.527"",""0.440""]","[1,1,1,0]",0,27,27,27,1,1,0,,,0,FALSE,0.9778,,,,,,,,,,,,,,,,,,,,,,,,,,,,,,,
,611fe7bbddb619488a23330d,627c6fd99a918b62953cb027,2022-05-11_21h25.42.788,classification_task,2021.2.3,Win32,60.10699044,627c6715c52fd12f31907bcf,,,,,,,,,,,,,,,,,,,,,,,a,1,"[""0.275"",""0.492"",""0.821"",""0.972""]","[1,1,0,1]",0,28,28,28,1,0,0,,,0,FALSE,0.8048,,,,,,,,,,,,,,,,,,,,,,,,,,,,,,,
,611fe7bbddb619488a23330d,627c6fd99a918b62953cb027,2022-05-11_21h25.42.788,classification_task,2021.2.3,Win32,60.10699044,627c6715c52fd12f31907bcf,,,,,,,,,,,,,,,,,,,,,,,a,1,"[""0.794"",""0.492"",""0.865"",""0.972""]","[0,1,1,1]",0,29,29,29,1,0,0,,,0,FALSE,0.8551,,,,,,,,,,,,,,,,,,,,,,,,,,,,,,,
,611fe7bbddb619488a23330d,627c6fd99a918b62953cb027,2022-05-11_21h25.42.788,classification_task,2021.2.3,Win32,60.10699044,627c6715c52fd12f31907bcf,,,,,,,,,,,,,,,,,,,,,,,a,1,"[""0.175"",""0.382"",""0.589"",""0.440""]","[1,1,1,0]",0,30,30,30,1,0,1,,,0,FALSE,1.0171,,,,,,,,,,,,,,,,,,,,,,,,,,,,,,,
,611fe7bbddb619488a23330d,627c6fd99a918b62953cb027,2022-05-11_21h25.42.788,classification_task,2021.2.3,Win32,60.10699044,627c6715c52fd12f31907bcf,,,,,,,,,,,,,,,,,,,,,,,a,1,"[""0.175"",""0.231"",""0.589"",""0.906""]","[1,0,1,1]",0,31,31,31,1,0,1,,,0,FALSE,1.0721,,,,,,,,,,,,,,,,,,,,,,,,,,,,,,,
,611fe7bbddb619488a23330d,627c6fd99a918b62953cb027,2022-05-11_21h25.42.788,classification_task,2021.2.3,Win32,60.10699044,627c6715c52fd12f31907bcf,,,,,,,,,,,,,,,,,,,,,,,a,0,"[""0.041"",""0.077"",""0.649"",""0.456""]","[1,1,1,0]",0,32,32,32,1,1,1,,,0,FALSE,1.0782,,,,,,,,,,,,,,,,,,,,,,,,,,,,,,,
,611fe7bbddb619488a23330d,627c6fd99a918b62953cb027,2022-05-11_21h25.42.788,classification_task,2021.2.3,Win32,60.10699044,627c6715c52fd12f31907bcf,,,,,,,,,,,,,,,,,,,,,,,a,1,"[""0.428"",""0.492"",""0.865"",""0.972""]","[0,1,1,1]",0,33,33,33,1,0,0,,,0,FALSE,1.1129,,,,,,,,,,,,,,,,,,,,,,,,,,,,,,,
,611fe7bbddb619488a23330d,627c6fd99a918b62953cb027,2022-05-11_21h25.42.788,classification_task,2021.2.3,Win32,60.10699044,627c6715c52fd12f31907bcf,,,,,,,,,,,,,,,,,,,,,,,a,1,"[""0.275"",""0.492"",""0.456"",""0.972""]","[1,1,0,1]",0,34,34,34,1,0,0,,,0,FALSE,0.6549,,,,,,,,,,,,,,,,,,,,,,,,,,,,,,,
,611fe7bbddb619488a23330d,627c6fd99a918b62953cb027,2022-05-11_21h25.42.788,classification_task,2021.2.3,Win32,60.10699044,627c6715c52fd12f31907bcf,,,,,,,,,,,,,,,,,,,,,,,l,1,"[""0.116"",""0.241"",""0.527"",""0.750""]","[1,0,1,1]",0,35,35,35,1,1,0,,,0,FALSE,0.6468,,,,,,,,,,,,,,,,,,,,,,,,,,,,,,,
,611fe7bbddb619488a23330d,627c6fd99a918b62953cb027,2022-05-11_21h25.42.788,classification_task,2021.2.3,Win32,60.10699044,627c6715c52fd12f31907bcf,,,,,,,,,,,,,,,,,,,,,,,a,1,"[""0.275"",""0.492"",""0.865"",""0.231""]","[1,1,1,0]",0,36,36,36,1,0,0,,,0,FALSE,1.2328,,,,,,,,,,,,,,,,,,,,,,,,,,,,,,,
,611fe7bbddb619488a23330d,627c6fd99a918b62953cb027,2022-05-11_21h25.42.788,classification_task,2021.2.3,Win32,60.10699044,627c6715c52fd12f31907bcf,,,,,,,,,,,,,,,,,,,,,,,a,1,"[""0.421"",""0.382"",""0.589"",""0.906""]","[0,1,1,1]",0,37,37,37,1,0,1,,,0,FALSE,3.4551,,,,,,,,,,,,,,,,,,,,,,,,,,,,,,,
,611fe7bbddb619488a23330d,627c6fd99a918b62953cb027,2022-05-11_21h25.42.788,classification_task,2021.2.3,Win32,60.10699044,627c6715c52fd12f31907bcf,,,,,,,,,,,,,,,,,,,,,,,a,1,"[""0.175"",""0.382"",""0.589"",""0.427""]","[1,1,1,0]",0,38,38,38,1,0,1,,,0,FALSE,1.0181,,,,,,,,,,,,,,,,,,,,,,,,,,,,,,,
,611fe7bbddb619488a23330d,627c6fd99a918b62953cb027,2022-05-11_21h25.42.788,classification_task,2021.2.3,Win32,60.10699044,627c6715c52fd12f31907bcf,,,,,,,,,,,,,,,,,,,,,,,l,1,"[""0.116"",""0.340"",""0.527"",""0.821""]","[1,1,1,0]",0,39,39,39,1,1,0,,,0,FALSE,0.8039,,,,,,,,,,,,,,,,,,,,,,,,,,,,,,,
,611fe7bbddb619488a23330d,627c6fd99a918b62953cb027,2022-05-11_21h25.42.788,classification_task,2021.2.3,Win32,60.10699044,627c6715c52fd12f31907bcf,,,,,,,,,,,,,,,,,,,,,,,a,0,"[""0.041"",""0.077"",""0.440"",""0.711""]","[1,1,0,1]",0,40,40,40,1,1,1,,,0,FALSE,1.596,,,,,,,,,,,,,,,,,,,,,,,,,,,,,,,
,611fe7bbddb619488a23330d,627c6fd99a918b62953cb027,2022-05-11_21h25.42.788,classification_task,2021.2.3,Win32,60.10699044,627c6715c52fd12f31907bcf,,,,,,,,,,,,,,,,,,,,,,,l,1,"[""0.827"",""0.077"",""0.649"",""0.711""]","[0,1,1,1]",0,41,41,41,1,1,1,,,0,FALSE,1.7224,,,,,,,,,,,,,,,,,,,,,,,,,,,,,,,
,611fe7bbddb619488a23330d,627c6fd99a918b62953cb027,2022-05-11_21h25.42.788,classification_task,2021.2.3,Win32,60.10699044,627c6715c52fd12f31907bcf,,,,,,,,,,,,,,,,,,,,,,,a,1,"[""0.175"",""0.428"",""0.589"",""0.906""]","[1,0,1,1]",0,42,42,42,1,0,1,,,0,FALSE,0.8724,,,,,,,,,,,,,,,,,,,,,,,,,,,,,,,
,611fe7bbddb619488a23330d,627c6fd99a918b62953cb027,2022-05-11_21h25.42.788,classification_task,2021.2.3,Win32,60.10699044,627c6715c52fd12f31907bcf,,,,,,,,,,,,,,,,,,,,,,,l,1,"[""0.456"",""0.340"",""0.527"",""0.750""]","[0,1,1,1]",0,43,43,43,1,1,0,,,0,FALSE,0.9695,,,,,,,,,,,,,,,,,,,,,,,,,,,,,,,
,611fe7bbddb619488a23330d,627c6fd99a918b62953cb027,2022-05-11_21h25.42.788,classification_task,2021.2.3,Win32,60.10699044,627c6715c52fd12f31907bcf,,,,,,,,,,,,,,,,,,,,,,,a,1,"[""0.175"",""0.382"",""0.809"",""0.906""]","[1,1,0,1]",0,44,44,44,1,0,1,,,0,FALSE,1.2346,,,,,,,,,,,,,,,,,,,,,,,,,,,,,,,
,611fe7bbddb619488a23330d,627c6fd99a918b62953cb027,2022-05-11_21h25.42.788,classification_task,2021.2.3,Win32,60.10699044,627c6715c52fd12f31907bcf,,,,,,,,,,,,,,,,,,,,,,,l,1,"[""0.041"",""0.231"",""0.649"",""0.711""]","[1,0,1,1]",0,45,45,45,1,1,1,,,0,FALSE,1.0662,,,,,,,,,,,,,,,,,,,,,,,,,,,,,,,
,611fe7bbddb619488a23330d,627c6fd99a918b62953cb027,2022-05-11_21h25.42.788,classification_task,2021.2.3,Win32,60.10699044,627c6715c52fd12f31907bcf,,,,,,,,,,,,,,,,,,,,,,,l,1,"[""0.116"",""0.340"",""0.428"",""0.750""]","[1,1,0,1]",0,46,46,46,1,1,0,,,0,FALSE,1.3982,,,,,,,,,,,,,,,,,,,,,,,,,,,,,,,
,611fe7bbddb619488a23330d,627c6fd99a918b62953cb027,2022-05-11_21h25.42.788,classification_task,2021.2.3,Win32,60.10699044,627c6715c52fd12f31907bcf,,,,,,,,,,,,,,,,,,,,,,,a,1,"[""0.275"",""0.809"",""0.865"",""0.972""]","[1,0,1,1]",0,47,47,47,1,0,0,,,0,FALSE,0.8081,,,,,,,,,,,,,,,,,,,,,,,,,,,,,,,
,611fe7bbddb619488a23330d,627c6fd99a918b62953cb027,2022-05-11_21h25.42.788,classification_task,2021.2.3,Win32,60.10699044,627c6715c52fd12f31907bcf,,,,,,,,,,,,,,,,,,,,,,,a,1,"[""0.275"",""0.492"",""0.865"",""0.236""]","[1,1,1,0]",0,48,48,48,1,0,0,,,0,FALSE,1.6033,,,,,,,,,,,,,,,,,,,,,,,,,,,,,,,
,611fe7bbddb619488a23330d,627c6fd99a918b62953cb027,2022-05-11_21h25.42.788,classification_task,2021.2.3,Win32,60.10699044,627c6715c52fd12f31907bcf,,,,,,,,,,,,,,,,,,,,,,,l,1,"[""0.421"",""0.077"",""0.649"",""0.711""]","[0,1,1,1]",0,49,49,49,1,1,1,,,0,FALSE,2.6094,,,,,,,,,,,,,,,,,,,,,,,,,,,,,,,
,611fe7bbddb619488a23330d,627c6fd99a918b62953cb027,2022-05-11_21h25.42.788,classification_task,2021.2.3,Win32,60.10699044,627c6715c52fd12f31907bcf,,,,,,,,,,,,,,,,,,,,,,,a,1,"[""0.175"",""0.382"",""0.589"",""0.809""]","[1,1,1,0]",0,50,50,50,1,0,1,,,0,FALSE,1.0265,,,,,,,,,,,,,,,,,,,,,,,,,,,,,,,
,611fe7bbddb619488a23330d,627c6fd99a918b62953cb027,2022-05-11_21h25.42.788,classification_task,2021.2.3,Win32,60.10699044,627c6715c52fd12f31907bcf,,,,,,,,,,,,,,,,,,,,,,,a,1,"[""0.175"",""0.440"",""0.589"",""0.906""]","[1,0,1,1]",0,51,51,51,1,0,1,,,0,FALSE,0.9081,,,,,,,,,,,,,,,,,,,,,,,,,,,,,,,
,611fe7bbddb619488a23330d,627c6fd99a918b62953cb027,2022-05-11_21h25.42.788,classification_task,2021.2.3,Win32,60.10699044,627c6715c52fd12f31907bcf,,,,,,,,,,,,,,,,,,,,,,,l,0,"[""0.227"",""0.382"",""0.589"",""0.906""]","[0,1,1,1]",0,52,52,52,1,0,1,,,0,FALSE,1.0661,,,,,,,,,,,,,,,,,,,,,,,,,,,,,,,
,611fe7bbddb619488a23330d,627c6fd99a918b62953cb027,2022-05-11_21h25.42.788,classification_task,2021.2.3,Win32,60.10699044,627c6715c52fd12f31907bcf,,,,,,,,,,,,,,,,,,,,,,,l,1,"[""0.116"",""0.340"",""0.527"",""0.827""]","[1,1,1,0]",0,53,53,53,1,1,0,,,0,FALSE,1.0619,,,,,,,,,,,,,,,,,,,,,,,,,,,,,,,
,611fe7bbddb619488a23330d,627c6fd99a918b62953cb027,2022-05-11_21h25.42.788,classification_task,2021.2.3,Win32,60.10699044,627c6715c52fd12f31907bcf,,,,,,,,,,,,,,,,,,,,,,,a,1,"[""0.275"",""0.231"",""0.865"",""0.972""]","[1,0,1,1]",0,54,54,54,1,0,0,,,0,FALSE,1.0165,,,,,,,,,,,,,,,,,,,,,,,,,,,,,,,
,611fe7bbddb619488a23330d,627c6fd99a918b62953cb027,2022-05-11_21h25.42.788,classification_task,2021.2.3,Win32,60.10699044,627c6715c52fd12f31907bcf,,,,,,,,,,,,,,,,,,,,,,,l,1,"[""0.041"",""0.077"",""0.649"",""0.440""]","[1,1,1,0]",0,55,55,55,1,1,1,,,0,FALSE,1.7018,,,,,,,,,,,,,,,,,,,,,,,,,,,,,,,
,611fe7bbddb619488a23330d,627c6fd99a918b62953cb027,2022-05-11_21h25.42.788,classification_task,2021.2.3,Win32,60.10699044,627c6715c52fd12f31907bcf,,,,,,,,,,,,,,,,,,,,,,,a,1,"[""0.275"",""0.492"",""0.227"",""0.972""]","[1,1,0,1]",0,56,56,56,1,0,0,,,0,FALSE,1.2289,,,,,,,,,,,,,,,,,,,,,,,,,,,,,,,
,611fe7bbddb619488a23330d,627c6fd99a918b62953cb027,2022-05-11_21h25.42.788,classification_task,2021.2.3,Win32,60.10699044,627c6715c52fd12f31907bcf,,,,,,,,,,,,,,,,,,,,,,,l,0,"[""0.421"",""0.492"",""0.865"",""0.972""]","[0,1,1,1]",0,57,57,57,1,0,0,,,0,FALSE,2.8344,,,,,,,,,,,,,,,,,,,,,,,,,,,,,,,
,611fe7bbddb619488a23330d,627c6fd99a918b62953cb027,2022-05-11_21h25.42.788,classification_task,2021.2.3,Win32,60.10699044,627c6715c52fd12f31907bcf,,,,,,,,,,,,,,,,,,,,,,,a,1,"[""0.175"",""0.382"",""0.417"",""0.906""]","[1,1,0,1]",0,58,58,58,1,0,1,,,0,FALSE,1.2283,,,,,,,,,,,,,,,,,,,,,,,,,,,,,,,
,611fe7bbddb619488a23330d,627c6fd99a918b62953cb027,2022-05-11_21h25.42.788,classification_task,2021.2.3,Win32,60.10699044,627c6715c52fd12f31907bcf,,,,,,,,,,,,,,,,,,,,,,,l,1,"[""0.041"",""0.794"",""0.649"",""0.711""]","[1,0,1,1]",0,59,59,59,1,1,1,,,0,FALSE,1.1649,,,,,,,,,,,,,,,,,,,,,,,,,,,,,,,
,611fe7bbddb619488a23330d,627c6fd99a918b62953cb027,2022-05-11_21h25.42.788,classification_task,2021.2.3,Win32,60.10699044,627c6715c52fd12f31907bcf,,,,,,,,,,,,,,,,,,,,,,,l,1,"[""0.041"",""0.077"",""0.827"",""0.711""]","[1,1,0,1]",0,60,60,60,1,1,1,,,0,FALSE,2.2253,,,,,,,,,,,,,,,,,,,,,,,,,,,,,,,
,611fe7bbddb619488a23330d,627c6fd99a918b62953cb027,2022-05-11_21h25.42.788,classification_task,2021.2.3,Win32,60.10699044,627c6715c52fd12f31907bcf,,,,,,,,,,,,,,,,,,,,,,,l,1,"[""0.116"",""0.427"",""0.527"",""0.750""]","[1,0,1,1]",0,61,61,61,1,1,0,,,0,FALSE,1.0743,,,,,,,,,,,,,,,,,,,,,,,,,,,,,,,
,611fe7bbddb619488a23330d,627c6fd99a918b62953cb027,2022-05-11_21h25.42.788,classification_task,2021.2.3,Win32,60.10699044,627c6715c52fd12f31907bcf,,,,,,,,,,,,,,,,,,,,,,,l,1,"[""0.236"",""0.340"",""0.527"",""0.750""]","[0,1,1,1]",0,62,62,62,1,1,0,,,0,FALSE,0.7002,,,,,,,,,,,,,,,,,,,,,,,,,,,,,,,
,611fe7bbddb619488a23330d,627c6fd99a918b62953cb027,2022-05-11_21h25.42.788,classification_task,2021.2.3,Win32,60.10699044,627c6715c52fd12f31907bcf,,,,,,,,,,,,,,,,,,,,,,,a,0,"[""0.116"",""0.340"",""0.440"",""0.750""]","[1,1,0,1]",0,63,63,63,1,1,0,,,0,FALSE,0.7544,,,,,,,,,,,,,,,,,,,,,,,,,,,,,,,
,611fe7bbddb619488a23330d,627c6fd99a918b62953cb027,2022-05-11_21h25.42.788,classification_task,2021.2.3,Win32,60.10699044,627c6715c52fd12f31907bcf,,,,,,,,,,,,,,,,,,,,,,,,,,,,,,,,,,,,,,,0, ,,0,3.064863806,225.5148,0,1,1,1,1,2,2,,,,,,,,,,,,,,,,,,
,611fe7bbddb619488a23330d,627c6fd99a918b62953cb027,2022-05-11_21h25.42.788,classification_task,2021.2.3,Win32,60.10699044,627c6715c52fd12f31907bcf,,,,,,,,,,,,,,,,,,,,,,,,,,,,,,,,,,,,,,,1,  ,,0,3.603762493,229.2298,0,1,1,1,1,2,2,,,,,,,,,,,,,,,,,,
,611fe7bbddb619488a23330d,627c6fd99a918b62953cb027,2022-05-11_21h25.42.788,classification_task,2021.2.3,Win32,60.10699044,627c6715c52fd12f31907bcf,,,,,,,,,,,,,,,,,,,,,,,,,,,,,,,,,,,,,,,2,  ,,0,1.717617088,232.0553,0,1,1,1,1,2,2,,,,,,,,,,,,,,,,,,
,611fe7bbddb619488a23330d,627c6fd99a918b62953cb027,2022-05-11_21h25.42.788,classification_task,2021.2.3,Win32,60.10699044,627c6715c52fd12f31907bcf,,,,,,,,,,,,,,,,,,,,,,,,,,,,,,,,,,,,,,,,,,,,,0,1,1,1,1,,2,,,,,,,,,,,,,,,,,,
,611fe7bbddb619488a23330d,627c6fd99a918b62953cb027,2022-05-11_21h25.42.788,classification_task,2021.2.3,Win32,60.10699044,627c6715c52fd12f31907bcf,,,,,,,,,,,,,,,,,,,,,space,16.1311,a,0,"[""0.041"",""0.077"",""0.649"",""0.235""]","[1,1,1,0]",0,0,0,0,1,1,1,,,0,FALSE,4.0555,,,,,,,,,,,,,,,,,,,,,,,,,,,,,,,
,611fe7bbddb619488a23330d,627c6fd99a918b62953cb027,2022-05-11_21h25.42.788,classification_task,2021.2.3,Win32,60.10699044,627c6715c52fd12f31907bcf,,,,,,,,,,,,,,,,,,,,,,,a,1,"[""0.175"",""0.241"",""0.589"",""0.906""]","[1,0,1,1]",0,1,1,1,1,0,1,,,0,FALSE,2.4044,,,,,,,,,,,,,,,,,,,,,,,,,,,,,,,
,611fe7bbddb619488a23330d,627c6fd99a918b62953cb027,2022-05-11_21h25.42.788,classification_task,2021.2.3,Win32,60.10699044,627c6715c52fd12f31907bcf,,,,,,,,,,,,,,,,,,,,,,,l,1,"[""0.041"",""0.077"",""0.236"",""0.711""]","[1,1,0,1]",0,2,2,2,1,1,1,,,0,FALSE,1.3561,,,,,,,,,,,,,,,,,,,,,,,,,,,,,,,
,611fe7bbddb619488a23330d,627c6fd99a918b62953cb027,2022-05-11_21h25.42.788,classification_task,2021.2.3,Win32,60.10699044,627c6715c52fd12f31907bcf,,,,,,,,,,,,,,,,,,,,,,,a,1,"[""0.827"",""0.492"",""0.865"",""0.972""]","[0,1,1,1]",0,3,3,3,1,0,0,,,0,FALSE,1.8809,,,,,,,,,,,,,,,,,,,,,,,,,,,,,,,
,611fe7bbddb619488a23330d,627c6fd99a918b62953cb027,2022-05-11_21h25.42.788,classification_task,2021.2.3,Win32,60.10699044,627c6715c52fd12f31907bcf,,,,,,,,,,,,,,,,,,,,,,,l,1,"[""0.116"",""0.340"",""0.417"",""0.750""]","[1,1,0,1]",0,4,4,4,1,1,0,,,0,FALSE,1.4541,,,,,,,,,,,,,,,,,,,,,,,,,,,,,,,
,611fe7bbddb619488a23330d,627c6fd99a918b62953cb027,2022-05-11_21h25.42.788,classification_task,2021.2.3,Win32,60.10699044,627c6715c52fd12f31907bcf,,,,,,,,,,,,,,,,,,,,,,,a,1,"[""0.175"",""0.382"",""0.589"",""0.794""]","[1,1,1,0]",0,5,5,5,1,0,1,,,0,FALSE,1.3099,,,,,,,,,,,,,,,,,,,,,,,,,,,,,,,
,611fe7bbddb619488a23330d,627c6fd99a918b62953cb027,2022-05-11_21h25.42.788,classification_task,2021.2.3,Win32,60.10699044,627c6715c52fd12f31907bcf,,,,,,,,,,,,,,,,,,,,,,,l,0,"[""0.275"",""0.492"",""0.865"",""0.417""]","[1,1,1,0]",0,6,6,6,1,0,0,,,0,FALSE,2.4927,,,,,,,,,,,,,,,,,,,,,,,,,,,,,,,
,611fe7bbddb619488a23330d,627c6fd99a918b62953cb027,2022-05-11_21h25.42.788,classification_task,2021.2.3,Win32,60.10699044,627c6715c52fd12f31907bcf,,,,,,,,,,,,,,,,,,,,,,,l,1,"[""0.236"",""0.340"",""0.527"",""0.750""]","[0,1,1,1]",0,7,7,7,1,1,0,,,0,FALSE,1.8352,,,,,,,,,,,,,,,,,,,,,,,,,,,,,,,
,611fe7bbddb619488a23330d,627c6fd99a918b62953cb027,2022-05-11_21h25.42.788,classification_task,2021.2.3,Win32,60.10699044,627c6715c52fd12f31907bcf,,,,,,,,,,,,,,,,,,,,,,,l,1,"[""0.116"",""0.417"",""0.527"",""0.750""]","[1,0,1,1]",0,8,8,8,1,1,0,,,0,FALSE,2.4111,,,,,,,,,,,,,,,,,,,,,,,,,,,,,,,
,611fe7bbddb619488a23330d,627c6fd99a918b62953cb027,2022-05-11_21h25.42.788,classification_task,2021.2.3,Win32,60.10699044,627c6715c52fd12f31907bcf,,,,,,,,,,,,,,,,,,,,,,,a,1,"[""0.275"",""0.809"",""0.865"",""0.972""]","[1,0,1,1]",0,9,9,9,1,0,0,,,0,FALSE,2.5695,,,,,,,,,,,,,,,,,,,,,,,,,,,,,,,
,611fe7bbddb619488a23330d,627c6fd99a918b62953cb027,2022-05-11_21h25.42.788,classification_task,2021.2.3,Win32,60.10699044,627c6715c52fd12f31907bcf,,,,,,,,,,,,,,,,,,,,,,,a,1,"[""0.275"",""0.492"",""0.440"",""0.972""]","[1,1,0,1]",0,10,10,10,1,0,0,,,0,FALSE,1.095,,,,,,,,,,,,,,,,,,,,,,,,,,,,,,,
,611fe7bbddb619488a23330d,627c6fd99a918b62953cb027,2022-05-11_21h25.42.788,classification_task,2021.2.3,Win32,60.10699044,627c6715c52fd12f31907bcf,,,,,,,,,,,,,,,,,,,,,,,l,1,"[""0.041"",""0.427"",""0.649"",""0.711""]","[1,0,1,1]",0,11,11,11,1,1,1,,,0,FALSE,1.3097,,,,,,,,,,,,,,,,,,,,,,,,,,,,,,,
,611fe7bbddb619488a23330d,627c6fd99a918b62953cb027,2022-05-11_21h25.42.788,classification_task,2021.2.3,Win32,60.10699044,627c6715c52fd12f31907bcf,,,,,,,,,,,,,,,,,,,,,,,l,1,"[""0.116"",""0.340"",""0.527"",""0.440""]","[1,1,1,0]",0,12,12,12,1,1,0,,,0,FALSE,1.102,,,,,,,,,,,,,,,,,,,,,,,,,,,,,,,
,611fe7bbddb619488a23330d,627c6fd99a918b62953cb027,2022-05-11_21h25.42.788,classification_task,2021.2.3,Win32,60.10699044,627c6715c52fd12f31907bcf,,,,,,,,,,,,,,,,,,,,,,,l,1,"[""0.231"",""0.077"",""0.649"",""0.711""]","[0,1,1,1]",0,13,13,13,1,1,1,,,0,FALSE,3.7158,,,,,,,,,,,,,,,,,,,,,,,,,,,,,,,
,611fe7bbddb619488a23330d,627c6fd99a918b62953cb027,2022-05-11_21h25.42.788,classification_task,2021.2.3,Win32,60.10699044,627c6715c52fd12f31907bcf,,,,,,,,,,,,,,,,,,,,,,,a,1,"[""0.175"",""0.382"",""0.427"",""0.906""]","[1,1,0,1]",0,14,14,14,1,0,1,,,0,FALSE,1.0956,,,,,,,,,,,,,,,,,,,,,,,,,,,,,,,
,611fe7bbddb619488a23330d,627c6fd99a918b62953cb027,2022-05-11_21h25.42.788,classification_task,2021.2.3,Win32,60.10699044,627c6715c52fd12f31907bcf,,,,,,,,,,,,,,,,,,,,,,,a,1,"[""0.417"",""0.382"",""0.589"",""0.906""]","[0,1,1,1]",0,15,15,15,1,0,1,,,0,FALSE,1.1522,,,,,,,,,,,,,,,,,,,,,,,,,,,,,,,
,611fe7bbddb619488a23330d,627c6fd99a918b62953cb027,2022-05-11_21h25.42.788,classification_task,2021.2.3,Win32,60.10699044,627c6715c52fd12f31907bcf,,,,,,,,,,,,,,,,,,,,,,,a,1,"[""0.175"",""0.235"",""0.589"",""0.906""]","[1,0,1,1]",0,16,16,16,1,0,1,,,0,FALSE,0.9511,,,,,,,,,,,,,,,,,,,,,,,,,,,,,,,
,611fe7bbddb619488a23330d,627c6fd99a918b62953cb027,2022-05-11_21h25.42.788,classification_task,2021.2.3,Win32,60.10699044,627c6715c52fd12f31907bcf,,,,,,,,,,,,,,,,,,,,,,,l,1,"[""0.227"",""0.077"",""0.649"",""0.711""]","[0,1,1,1]",0,17,17,17,1,1,1,,,0,FALSE,1.1524,,,,,,,,,,,,,,,,,,,,,,,,,,,,,,,
,611fe7bbddb619488a23330d,627c6fd99a918b62953cb027,2022-05-11_21h25.42.788,classification_task,2021.2.3,Win32,60.10699044,627c6715c52fd12f31907bcf,,,,,,,,,,,,,,,,,,,,,,,l,1,"[""0.116"",""0.340"",""0.527"",""0.236""]","[1,1,1,0]",0,18,18,18,1,1,0,,,0,FALSE,1.2535,,,,,,,,,,,,,,,,,,,,,,,,,,,,,,,
,611fe7bbddb619488a23330d,627c6fd99a918b62953cb027,2022-05-11_21h25.42.788,classification_task,2021.2.3,Win32,60.10699044,627c6715c52fd12f31907bcf,,,,,,,,,,,,,,,,,,,,,,,l,1,"[""0.041"",""0.077"",""0.227"",""0.711""]","[1,1,0,1]",0,19,19,19,1,1,1,,,0,FALSE,1.2194,,,,,,,,,,,,,,,,,,,,,,,,,,,,,,,
,611fe7bbddb619488a23330d,627c6fd99a918b62953cb027,2022-05-11_21h25.42.788,classification_task,2021.2.3,Win32,60.10699044,627c6715c52fd12f31907bcf,,,,,,,,,,,,,,,,,,,,,,,l,1,"[""0.041"",""0.077"",""0.649"",""0.231""]","[1,1,1,0]",0,20,20,20,1,1,1,,,0,FALSE,1.2665,,,,,,,,,,,,,,,,,,,,,,,,,,,,,,,
,611fe7bbddb619488a23330d,627c6fd99a918b62953cb027,2022-05-11_21h25.42.788,classification_task,2021.2.3,Win32,60.10699044,627c6715c52fd12f31907bcf,,,,,,,,,,,,,,,,,,,,,,,a,1,"[""0.175"",""0.382"",""0.809"",""0.906""]","[1,1,0,1]",0,21,21,21,1,0,1,,,0,FALSE,0.949,,,,,,,,,,,,,,,,,,,,,,,,,,,,,,,
,611fe7bbddb619488a23330d,627c6fd99a918b62953cb027,2022-05-11_21h25.42.788,classification_task,2021.2.3,Win32,60.10699044,627c6715c52fd12f31907bcf,,,,,,,,,,,,,,,,,,,,,,,a,1,"[""0.175"",""0.382"",""0.589"",""0.417""]","[1,1,1,0]",0,22,22,22,1,0,1,,,0,FALSE,0.8441,,,,,,,,,,,,,,,,,,,,,,,,,,,,,,,
,611fe7bbddb619488a23330d,627c6fd99a918b62953cb027,2022-05-11_21h25.42.788,classification_task,2021.2.3,Win32,60.10699044,627c6715c52fd12f31907bcf,,,,,,,,,,,,,,,,,,,,,,,a,0,"[""0.241"",""0.340"",""0.527"",""0.750""]","[0,1,1,1]",0,23,23,23,1,1,0,,,0,FALSE,4.3055,,,,,,,,,,,,,,,,,,,,,,,,,,,,,,,
,611fe7bbddb619488a23330d,627c6fd99a918b62953cb027,2022-05-11_21h25.42.788,classification_task,2021.2.3,Win32,60.10699044,627c6715c52fd12f31907bcf,,,,,,,,,,,,,,,,,,,,,,,a,1,"[""0.794"",""0.382"",""0.589"",""0.906""]","[0,1,1,1]",0,24,24,24,1,0,1,,,0,FALSE,1.1072,,,,,,,,,,,,,,,,,,,,,,,,,,,,,,,
,611fe7bbddb619488a23330d,627c6fd99a918b62953cb027,2022-05-11_21h25.42.788,classification_task,2021.2.3,Win32,60.10699044,627c6715c52fd12f31907bcf,,,,,,,,,,,,,,,,,,,,,,,l,0,"[""0.275"",""0.427"",""0.865"",""0.972""]","[1,0,1,1]",0,25,25,25,1,0,0,,,0,FALSE,1.2042,,,,,,,,,,,,,,,,,,,,,,,,,,,,,,,
,611fe7bbddb619488a23330d,627c6fd99a918b62953cb027,2022-05-11_21h25.42.788,classification_task,2021.2.3,Win32,60.10699044,627c6715c52fd12f31907bcf,,,,,,,,,,,,,,,,,,,,,,,l,1,"[""0.041"",""0.428"",""0.649"",""0.711""]","[1,0,1,1]",0,26,26,26,1,1,1,,,0,FALSE,0.895,,,,,,,,,,,,,,,,,,,,,,,,,,,,,,,
,611fe7bbddb619488a23330d,627c6fd99a918b62953cb027,2022-05-11_21h25.42.788,classification_task,2021.2.3,Win32,60.10699044,627c6715c52fd12f31907bcf,,,,,,,,,,,,,,,,,,,,,,,l,0,"[""0.275"",""0.492"",""0.417"",""0.972""]","[1,1,0,1]",0,27,27,27,1,0,0,,,0,FALSE,2.1901,,,,,,,,,,,,,,,,,,,,,,,,,,,,,,,
,611fe7bbddb619488a23330d,627c6fd99a918b62953cb027,2022-05-11_21h25.42.788,classification_task,2021.2.3,Win32,60.10699044,627c6715c52fd12f31907bcf,,,,,,,,,,,,,,,,,,,,,,,a,1,"[""0.275"",""0.492"",""0.865"",""0.236""]","[1,1,1,0]",0,28,28,28,1,0,0,,,0,FALSE,1.5557,,,,,,,,,,,,,,,,,,,,,,,,,,,,,,,
,611fe7bbddb619488a23330d,627c6fd99a918b62953cb027,2022-05-11_21h25.42.788,classification_task,2021.2.3,Win32,60.10699044,627c6715c52fd12f31907bcf,,,,,,,,,,,,,,,,,,,,,,,l,0,"[""0.794"",""0.492"",""0.865"",""0.972""]","[0,1,1,1]",0,29,29,29,1,0,0,,,0,FALSE,2.4699,,,,,,,,,,,,,,,,,,,,,,,,,,,,,,,
,611fe7bbddb619488a23330d,627c6fd99a918b62953cb027,2022-05-11_21h25.42.788,classification_task,2021.2.3,Win32,60.10699044,627c6715c52fd12f31907bcf,,,,,,,,,,,,,,,,,,,,,,,l,1,"[""0.116"",""0.427"",""0.527"",""0.750""]","[1,0,1,1]",0,30,30,30,1,1,0,,,0,FALSE,1.3065,,,,,,,,,,,,,,,,,,,,,,,,,,,,,,,
,611fe7bbddb619488a23330d,627c6fd99a918b62953cb027,2022-05-11_21h25.42.788,classification_task,2021.2.3,Win32,60.10699044,627c6715c52fd12f31907bcf,,,,,,,,,,,,,,,,,,,,,,,l,1,"[""0.116"",""0.340"",""0.241"",""0.750""]","[1,1,0,1]",0,31,31,31,1,1,0,,,0,FALSE,1.2604,,,,,,,,,,,,,,,,,,,,,,,,,,,,,,,
,611fe7bbddb619488a23330d,627c6fd99a918b62953cb027,2022-05-11_21h25.42.788,classification_task,2021.2.3,Win32,60.10699044,627c6715c52fd12f31907bcf,,,,,,,,,,,,,,,,,,,,,,,l,1,"[""0.041"",""0.077"",""0.794"",""0.711""]","[1,1,0,1]",0,32,32,32,1,1,1,,,0,FALSE,1.4091,,,,,,,,,,,,,,,,,,,,,,,,,,,,,,,
,611fe7bbddb619488a23330d,627c6fd99a918b62953cb027,2022-05-11_21h25.42.788,classification_task,2021.2.3,Win32,60.10699044,627c6715c52fd12f31907bcf,,,,,,,,,,,,,,,,,,,,,,,a,1,"[""0.175"",""0.382"",""0.589"",""0.236""]","[1,1,1,0]",0,33,33,33,1,0,1,,,0,FALSE,0.7896,,,,,,,,,,,,,,,,,,,,,,,,,,,,,,,
,611fe7bbddb619488a23330d,627c6fd99a918b62953cb027,2022-05-11_21h25.42.788,classification_task,2021.2.3,Win32,60.10699044,627c6715c52fd12f31907bcf,,,,,,,,,,,,,,,,,,,,,,,a,1,"[""0.175"",""0.231"",""0.589"",""0.906""]","[1,0,1,1]",0,34,34,34,1,0,1,,,0,FALSE,0.6331,,,,,,,,,,,,,,,,,,,,,,,,,,,,,,,
,611fe7bbddb619488a23330d,627c6fd99a918b62953cb027,2022-05-11_21h25.42.788,classification_task,2021.2.3,Win32,60.10699044,627c6715c52fd12f31907bcf,,,,,,,,,,,,,,,,,,,,,,,l,0,"[""0.275"",""0.492"",""0.865"",""0.421""]","[1,1,1,0]",0,35,35,35,1,0,0,,,0,FALSE,4.2592,,,,,,,,,,,,,,,,,,,,,,,,,,,,,,,
,611fe7bbddb619488a23330d,627c6fd99a918b62953cb027,2022-05-11_21h25.42.788,classification_task,2021.2.3,Win32,60.10699044,627c6715c52fd12f31907bcf,,,,,,,,,,,,,,,,,,,,,,,l,1,"[""0.116"",""0.340"",""0.527"",""0.227""]","[1,1,1,0]",0,36,36,36,1,1,0,,,0,FALSE,1.1029,,,,,,,,,,,,,,,,,,,,,,,,,,,,,,,
,611fe7bbddb619488a23330d,627c6fd99a918b62953cb027,2022-05-11_21h25.42.788,classification_task,2021.2.3,Win32,60.10699044,627c6715c52fd12f31907bcf,,,,,,,,,,,,,,,,,,,,,,,a,1,"[""0.421"",""0.382"",""0.589"",""0.906""]","[0,1,1,1]",0,37,37,37,1,0,1,,,0,FALSE,1.3099,,,,,,,,,,,,,,,,,,,,,,,,,,,,,,,
,611fe7bbddb619488a23330d,627c6fd99a918b62953cb027,2022-05-11_21h25.42.788,classification_task,2021.2.3,Win32,60.10699044,627c6715c52fd12f31907bcf,,,,,,,,,,,,,,,,,,,,,,,l,1,"[""0.421"",""0.077"",""0.649"",""0.711""]","[0,1,1,1]",0,38,38,38,1,1,1,,,0,FALSE,1.2047,,,,,,,,,,,,,,,,,,,,,,,,,,,,,,,
,611fe7bbddb619488a23330d,627c6fd99a918b62953cb027,2022-05-11_21h25.42.788,classification_task,2021.2.3,Win32,60.10699044,627c6715c52fd12f31907bcf,,,,,,,,,,,,,,,,,,,,,,,l,0,"[""0.275"",""0.492"",""0.827"",""0.972""]","[1,1,0,1]",0,39,39,39,1,0,0,,,0,FALSE,1.2544,,,,,,,,,,,,,,,,,,,,,,,,,,,,,,,
,611fe7bbddb619488a23330d,627c6fd99a918b62953cb027,2022-05-11_21h25.42.788,classification_task,2021.2.3,Win32,60.10699044,627c6715c52fd12f31907bcf,,,,,,,,,,,,,,,,,,,,,,,l,1,"[""0.041"",""0.236"",""0.649"",""0.711""]","[1,0,1,1]",0,40,40,40,1,1,1,,,0,FALSE,0.9506,,,,,,,,,,,,,,,,,,,,,,,,,,,,,,,
,611fe7bbddb619488a23330d,627c6fd99a918b62953cb027,2022-05-11_21h25.42.788,classification_task,2021.2.3,Win32,60.10699044,627c6715c52fd12f31907bcf,,,,,,,,,,,,,,,,,,,,,,,l,1,"[""0.116"",""0.417"",""0.527"",""0.750""]","[1,0,1,1]",0,41,41,41,1,1,0,,,0,FALSE,1.0446,,,,,,,,,,,,,,,,,,,,,,,,,,,,,,,
,611fe7bbddb619488a23330d,627c6fd99a918b62953cb027,2022-05-11_21h25.42.788,classification_task,2021.2.3,Win32,60.10699044,627c6715c52fd12f31907bcf,,,,,,,,,,,,,,,,,,,,,,,l,1,"[""0.116"",""0.340"",""0.236"",""0.750""]","[1,1,0,1]",0,42,42,42,1,1,0,,,0,FALSE,0.8405,,,,,,,,,,,,,,,,,,,,,,,,,,,,,,,
,611fe7bbddb619488a23330d,627c6fd99a918b62953cb027,2022-05-11_21h25.42.788,classification_task,2021.2.3,Win32,60.10699044,627c6715c52fd12f31907bcf,,,,,,,,,,,,,,,,,,,,,,,a,1,"[""0.821"",""0.492"",""0.865"",""0.972""]","[0,1,1,1]",0,43,43,43,1,0,0,,,0,FALSE,1.6101,,,,,,,,,,,,,,,,,,,,,,,,,,,,,,,
,611fe7bbddb619488a23330d,627c6fd99a918b62953cb027,2022-05-11_21h25.42.788,classification_task,2021.2.3,Win32,60.10699044,627c6715c52fd12f31907bcf,,,,,,,,,,,,,,,,,,,,,,,l,1,"[""0.041"",""0.077"",""0.649"",""0.241""]","[1,1,1,0]",0,44,44,44,1,1,1,,,0,FALSE,1.7785,,,,,,,,,,,,,,,,,,,,,,,,,,,,,,,
,611fe7bbddb619488a23330d,627c6fd99a918b62953cb027,2022-05-11_21h25.42.788,classification_task,2021.2.3,Win32,60.10699044,627c6715c52fd12f31907bcf,,,,,,,,,,,,,,,,,,,,,,,l,0,"[""0.275"",""0.827"",""0.865"",""0.972""]","[1,0,1,1]",0,45,45,45,1,0,0,,,0,FALSE,1.4623,,,,,,,,,,,,,,,,,,,,,,,,,,,,,,,
,611fe7bbddb619488a23330d,627c6fd99a918b62953cb027,2022-05-11_21h25.42.788,classification_task,2021.2.3,Win32,60.10699044,627c6715c52fd12f31907bcf,,,,,,,,,,,,,,,,,,,,,,,a,1,"[""0.175"",""0.382"",""0.827"",""0.906""]","[1,1,0,1]",0,46,46,46,1,0,1,,,0,FALSE,1.2017,,,,,,,,,,,,,,,,,,,,,,,,,,,,,,,
,611fe7bbddb619488a23330d,627c6fd99a918b62953cb027,2022-05-11_21h25.42.788,classification_task,2021.2.3,Win32,60.10699044,627c6715c52fd12f31907bcf,,,,,,,,,,,,,,,,,,,,,,,l,1,"[""0.421"",""0.340"",""0.527"",""0.750""]","[0,1,1,1]",0,47,47,47,1,1,0,,,0,FALSE,3.1167,,,,,,,,,,,,,,,,,,,,,,,,,,,,,,,
,611fe7bbddb619488a23330d,627c6fd99a918b62953cb027,2022-05-11_21h25.42.788,classification_task,2021.2.3,Win32,60.10699044,627c6715c52fd12f31907bcf,,,,,,,,,,,,,,,,,,,,,,,a,1,"[""0.275"",""0.492"",""0.236"",""0.972""]","[1,1,0,1]",0,48,48,48,1,0,0,,,0,FALSE,4.1375,,,,,,,,,,,,,,,,,,,,,,,,,,,,,,,
,611fe7bbddb619488a23330d,627c6fd99a918b62953cb027,2022-05-11_21h25.42.788,classification_task,2021.2.3,Win32,60.10699044,627c6715c52fd12f31907bcf,,,,,,,,,,,,,,,,,,,,,,,l,0,"[""0.827"",""0.492"",""0.865"",""0.972""]","[0,1,1,1]",0,49,49,49,1,0,0,,,0,FALSE,1.1045,,,,,,,,,,,,,,,,,,,,,,,,,,,,,,,
,611fe7bbddb619488a23330d,627c6fd99a918b62953cb027,2022-05-11_21h25.42.788,classification_task,2021.2.3,Win32,60.10699044,627c6715c52fd12f31907bcf,,,,,,,,,,,,,,,,,,,,,,,l,0,"[""0.275"",""0.427"",""0.865"",""0.972""]","[1,0,1,1]",0,50,50,50,1,0,0,,,0,FALSE,1.5105,,,,,,,,,,,,,,,,,,,,,,,,,,,,,,,
,611fe7bbddb619488a23330d,627c6fd99a918b62953cb027,2022-05-11_21h25.42.788,classification_task,2021.2.3,Win32,60.10699044,627c6715c52fd12f31907bcf,,,,,,,,,,,,,,,,,,,,,,,l,0,"[""0.275"",""0.492"",""0.865"",""0.827""]","[1,1,1,0]",0,51,51,51,1,0,0,,,0,FALSE,3.2886,,,,,,,,,,,,,,,,,,,,,,,,,,,,,,,
,611fe7bbddb619488a23330d,627c6fd99a918b62953cb027,2022-05-11_21h25.42.788,classification_task,2021.2.3,Win32,60.10699044,627c6715c52fd12f31907bcf,,,,,,,,,,,,,,,,,,,,,,,l,1,"[""0.041"",""0.077"",""0.649"",""0.427""]","[1,1,1,0]",0,52,52,52,1,1,1,,,0,FALSE,1.2146,,,,,,,,,,,,,,,,,,,,,,,,,,,,,,,
,611fe7bbddb619488a23330d,627c6fd99a918b62953cb027,2022-05-11_21h25.42.788,classification_task,2021.2.3,Win32,60.10699044,627c6715c52fd12f31907bcf,,,,,,,,,,,,,,,,,,,,,,,a,1,"[""0.421"",""0.382"",""0.589"",""0.906""]","[0,1,1,1]",0,53,53,53,1,0,1,,,0,FALSE,3.0737,,,,,,,,,,,,,,,,,,,,,,,,,,,,,,,
,611fe7bbddb619488a23330d,627c6fd99a918b62953cb027,2022-05-11_21h25.42.788,classification_task,2021.2.3,Win32,60.10699044,627c6715c52fd12f31907bcf,,,,,,,,,,,,,,,,,,,,,,,l,1,"[""0.116"",""0.340"",""0.527"",""0.241""]","[1,1,1,0]",0,54,54,54,1,1,0,,,0,FALSE,0.9863,,,,,,,,,,,,,,,,,,,,,,,,,,,,,,,
,611fe7bbddb619488a23330d,627c6fd99a918b62953cb027,2022-05-11_21h25.42.788,classification_task,2021.2.3,Win32,60.10699044,627c6715c52fd12f31907bcf,,,,,,,,,,,,,,,,,,,,,,,l,1,"[""0.041"",""0.821"",""0.649"",""0.711""]","[1,0,1,1]",0,55,55,55,1,1,1,,,0,FALSE,2.7714,,,,,,,,,,,,,,,,,,,,,,,,,,,,,,,
,611fe7bbddb619488a23330d,627c6fd99a918b62953cb027,2022-05-11_21h25.42.788,classification_task,2021.2.3,Win32,60.10699044,627c6715c52fd12f31907bcf,,,,,,,,,,,,,,,,,,,,,,,l,1,"[""0.421"",""0.077"",""0.649"",""0.711""]","[0,1,1,1]",0,56,56,56,1,1,1,,,0,FALSE,2.6512,,,,,,,,,,,,,,,,,,,,,,,,,,,,,,,
,611fe7bbddb619488a23330d,627c6fd99a918b62953cb027,2022-05-11_21h25.42.788,classification_task,2021.2.3,Win32,60.10699044,627c6715c52fd12f31907bcf,,,,,,,,,,,,,,,,,,,,,,,l,1,"[""0.041"",""0.077"",""0.827"",""0.711""]","[1,1,0,1]",0,57,57,57,1,1,1,,,0,FALSE,1.4623,,,,,,,,,,,,,,,,,,,,,,,,,,,,,,,
,611fe7bbddb619488a23330d,627c6fd99a918b62953cb027,2022-05-11_21h25.42.788,classification_task,2021.2.3,Win32,60.10699044,627c6715c52fd12f31907bcf,,,,,,,,,,,,,,,,,,,,,,,l,1,"[""0.116"",""0.340"",""0.227"",""0.750""]","[1,1,0,1]",0,58,58,58,1,1,0,,,0,FALSE,1.0975,,,,,,,,,,,,,,,,,,,,,,,,,,,,,,,
,611fe7bbddb619488a23330d,627c6fd99a918b62953cb027,2022-05-11_21h25.42.788,classification_task,2021.2.3,Win32,60.10699044,627c6715c52fd12f31907bcf,,,,,,,,,,,,,,,,,,,,,,,a,1,"[""0.175"",""0.382"",""0.227"",""0.906""]","[1,1,0,1]",0,59,59,59,1,0,1,,,0,FALSE,0.9986,,,,,,,,,,,,,,,,,,,,,,,,,,,,,,,
,611fe7bbddb619488a23330d,627c6fd99a918b62953cb027,2022-05-11_21h25.42.788,classification_task,2021.2.3,Win32,60.10699044,627c6715c52fd12f31907bcf,,,,,,,,,,,,,,,,,,,,,,,a,1,"[""0.175"",""0.382"",""0.589"",""0.241""]","[1,1,1,0]",0,60,60,60,1,0,1,,,0,FALSE,0.7883,,,,,,,,,,,,,,,,,,,,,,,,,,,,,,,
,611fe7bbddb619488a23330d,627c6fd99a918b62953cb027,2022-05-11_21h25.42.788,classification_task,2021.2.3,Win32,60.10699044,627c6715c52fd12f31907bcf,,,,,,,,,,,,,,,,,,,,,,,a,1,"[""0.175"",""0.231"",""0.589"",""0.906""]","[1,0,1,1]",0,61,61,61,1,0,1,,,0,FALSE,0.688,,,,,,,,,,,,,,,,,,,,,,,,,,,,,,,
,611fe7bbddb619488a23330d,627c6fd99a918b62953cb027,2022-05-11_21h25.42.788,classification_task,2021.2.3,Win32,60.10699044,627c6715c52fd12f31907bcf,,,,,,,,,,,,,,,,,,,,,,,l,1,"[""0.116"",""0.456"",""0.527"",""0.750""]","[1,0,1,1]",0,62,62,62,1,1,0,,,0,FALSE,1.2877,,,,,,,,,,,,,,,,,,,,,,,,,,,,,,,
,611fe7bbddb619488a23330d,627c6fd99a918b62953cb027,2022-05-11_21h25.42.788,classification_task,2021.2.3,Win32,60.10699044,627c6715c52fd12f31907bcf,,,,,,,,,,,,,,,,,,,,,,,l,1,"[""0.794"",""0.340"",""0.527"",""0.750""]","[0,1,1,1]",0,63,63,63,1,1,0,,,0,FALSE,4.6417,,,,,,,,,,,,,,,,,,,,,,,,,,,,,,,
,611fe7bbddb619488a23330d,627c6fd99a918b62953cb027,2022-05-11_21h25.42.788,classification_task,2021.2.3,Win32,60.10699044,627c6715c52fd12f31907bcf,,,,,,,,,,,,,,,,,,,,,,,,,,,,,,,,,,,,,,,0, ,,0,2.427983539,199.6724,0,2,2,2,1,2,3,,,,,,,,,,,,,,,,,,
,611fe7bbddb619488a23330d,627c6fd99a918b62953cb027,2022-05-11_21h25.42.788,classification_task,2021.2.3,Win32,60.10699044,627c6715c52fd12f31907bcf,,,,,,,,,,,,,,,,,,,,,,,,,,,,,,,,,,,,,,,1,  ,,0,2.770919067,201.1627,0,2,2,2,1,2,3,,,,,,,,,,,,,,,,,,
,611fe7bbddb619488a23330d,627c6fd99a918b62953cb027,2022-05-11_21h25.42.788,classification_task,2021.2.3,Win32,60.10699044,627c6715c52fd12f31907bcf,,,,,,,,,,,,,,,,,,,,,,,,,,,,,,,,,,,,,,,2,  ,,0,1.693121693,202.9864,0,2,2,2,1,2,3,,,,,,,,,,,,,,,,,,
,611fe7bbddb619488a23330d,627c6fd99a918b62953cb027,2022-05-11_21h25.42.788,classification_task,2021.2.3,Win32,60.10699044,627c6715c52fd12f31907bcf,,,,,,,,,,,,,,,,,,,,,,,,,,,,,,,,,,,,,,,,,,,,,0,2,2,2,1,,3,,,,,,,,,,,,,,,,,,
,611fe7bbddb619488a23330d,627c6fd99a918b62953cb027,2022-05-11_21h25.42.788,classification_task,2021.2.3,Win32,60.10699044,627c6715c52fd12f31907bcf,,,,,,,,,,,,,,,,,,,,,,,,,,,,,,,,,,,,,,,,,,,,,,,,,,,,,I believe the aid is a competent performer,,0.7,0,4,1469.8686,0,0,0,0,1,0,,,,,
,611fe7bbddb619488a23330d,627c6fd99a918b62953cb027,2022-05-11_21h25.42.788,classification_task,2021.2.3,Win32,60.10699044,627c6715c52fd12f31907bcf,,,,,,,,,,,,,,,,,,,,,,,,,,,,,,,,,,,,,,,,,,,,,,,,,,,,,I trust the aid,,0.7,0,4,1471.6116,0,0,0,0,1,0,,,,,
,611fe7bbddb619488a23330d,627c6fd99a918b62953cb027,2022-05-11_21h25.42.788,classification_task,2021.2.3,Win32,60.10699044,627c6715c52fd12f31907bcf,,,,,,,,,,,,,,,,,,,,,,,,,,,,,,,,,,,,,,,,,,,,,,,,,,,,,I have confidence in the advice given by the aid,,0.7,0,4,1473.1307,0,0,0,0,1,0,,,,,
,611fe7bbddb619488a23330d,627c6fd99a918b62953cb027,2022-05-11_21h25.42.788,classification_task,2021.2.3,Win32,60.10699044,627c6715c52fd12f31907bcf,,,,,,,,,,,,,,,,,,,,,,,,,,,,,,,,,,,,,,,,,,,,,,,,,,,,,I can depend on the aid,,0.7,0,4,1475.6437,0,0,0,0,1,0,,,,,
,611fe7bbddb619488a23330d,627c6fd99a918b62953cb027,2022-05-11_21h25.42.788,classification_task,2021.2.3,Win32,60.10699044,627c6715c52fd12f31907bcf,,,,,,,,,,,,,,,,,,,,,,,,,,,,,,,,,,,,,,,,,,,,,,,,,,,,,I can rely on the aid to behave in consistent ways,,0.7,0,4,1487.0117,0,0,0,0,1,0,,,,,
,611fe7bbddb619488a23330d,627c6fd99a918b62953cb027,2022-05-11_21h25.42.788,classification_task,2021.2.3,Win32,60.10699044,627c6715c52fd12f31907bcf,,,,,,,,,,,,,,,,,,,,,,,,,,,,,,,,,,,,,,,,,,,,,,,,,,,,,I can rely on the aid to do its best every time I take its advice,,0.7,0,3,1488.5921,0,0,0,0,1,0,,,,,
,611fe7bbddb619488a23330d,627c6fd99a918b62953cb027,2022-05-11_21h25.42.788,classification_task,2021.2.3,Win32,60.10699044,627c6715c52fd12f31907bcf,,,,,,,,,,,,,,,,,,,,,,,,,,,,,,,,,,,,,,,,,,,,,,,,,,,,,"On trials you completed with assistance from the aid, how frequently did you think the aid was correct?",,0.7,0,90,,0,0,0,0,1,0,,,,,
,611fe7bbddb619488a23330d,627c6fd99a918b62953cb027,2022-05-11_21h25.42.788,classification_task,2021.2.3,Win32,60.10699044,627c6715c52fd12f31907bcf,,,,,,,,,,,,,,,,,,,,,,,,,,,,,,,,,,,,,,,,,,,,,,,,,,,,,"On trials you completed without the aid, how frequently did you think you were correct?",,0.7,0,70,,0,0,0,0,1,0,,,,,
,611fe7bbddb619488a23330d,627c6fd99a918b62953cb027,2022-05-11_21h25.42.788,classification_task,2021.2.3,Win32,60.10699044,627c6715c52fd12f31907bcf,,,,,,,,,,,,,,,,,,,,,,,,,,,,,,,,,,,,,,,,,,,,,,,,,,,,,,,,,,,0,0,0,0,1,,,,,,
,611fe7bbddb619488a23330d,627c6fd99a918b62953cb027,2022-05-11_21h25.42.788,classification_task,2021.2.3,Win32,60.10699044,627c6715c52fd12f31907bcf,,,,,,,,,,,,,,,,,,,,,,,,,,,,,,,,,,,,,,,,,,,,,,,,,,,,,,,,,,,,,,,,,space,22.2571,1530.8179,,
,611fe7bbddb619488a23330d,627c6fd99a918b62953cb027,2022-05-11_21h25.42.788,classification_task,2021.2.3,Win32,60.10699044,627c6715c52fd12f31907bcf,,,,,,,,,,,,,,,,,,,,,,,,,,,,,,,,,,,,,,,,,,,,,,,,,,,,,,,,,,,,,,,,,,,,"Mozilla/5.0 (Windows NT 10.0; Win64; x64) AppleWebKit/537.36 (KHTML, like Gecko) Chrome/101.0.4951.54 Safari/537.36",
,611fe7bbddb619488a23330d,627c6fd99a918b62953cb027,2022-05-11_21h25.42.788,classification_task,2021.2.3,Win32,60.10699044,627c6715c52fd12f31907bcf,,,,,,,,,,,,,,,,,,,,,,,,,,,,,,,,,,,,,,,,,,,,,,,,,,,,,,,,,,,,,,,,,,,,,FADING
