usingWebGL,participant,session,date,expName,psychopyVersion,OS,frameRate,PROLIFIC_PID,STUDY_ID,SESSION_ID,signatures_friend,signatures_foe,band_ranges_top,band_ranges_bottom,formitemText,formtype,formundefined,formitemWidth,formindex,formresponse,formrt,key_resp_2.keys,key_resp_2.rt,tute_resp.keys,tute_resp.rt,tutorial.thisRepN,tutorial.thisTrialN,tutorial.thisN,tutorial.thisIndex,tutorial.ran,key_resp_4.keys,key_resp_4.rt,key_resp.keys,key_resp.corr,key_resp.rt,lines_presented,is_signal_presented,trials.thisRepN,trials.thisTrialN,trials.thisN,trials.thisIndex,trials.ran,vessel,active_band,lines,is_signal,supported_pos,catch_trial,debrief_formindex,debrief_formitemText,debrief_formtype,debrief_formitemWidth,debrief_formresponse,debrief_formrt,phases.thisRepN,phases.thisTrialN,phases.thisN,phases.thisIndex,phases.ran,phases.order,phase,key_resp_3.keys,trustitemText,trusttype,trustitemWidth,trustindex,trustresponse,trustrt,support_status.thisRepN,support_status.thisTrialN,support_status.thisN,support_status.thisIndex,support_status.ran,support_status.order,key_resp_5.keys,key_resp_5.rt,globalClockTime,userAgent
TRUE,612088c6aac9e0d358ce634c,001,2022-04-28_21h06.03.636,classification_task,2021.2.3,Linux x86_64,30.0120048,612088c6aac9e0d358ce634c,626b377229c10585ec392f89,626b39b9674052d874d36961,,,,,,,,,,,,,,,,,,,,,,,,,,,,,,,,,,,,,,,,,,,,,,,,,,,,,,,,,,,,,,,,,,,,
,612088c6aac9e0d358ce634c,001,2022-04-28_21h06.03.636,classification_task,2021.2.3,Linux x86_64,30.0120048,612088c6aac9e0d358ce634c,626b377229c10585ec392f89,626b39b9674052d874d36961,"[[""0.179"",""0.371"",""0.913"",""0.954""],[""0.325"",""0.411"",""0.845"",""0.879""]]","[[""0.120"",""0.285"",""0.510"",""0.787""],[""0.084"",""0.222"",""0.581"",""0.700""]]","[1,10]","[100,1000]",Video game experience,,,0.7,0,,,,,,,,,,,,,,,,,,,,,,,,,,,,,,,,,,,,,,,,,,,,,,,,,,,,,,,,,,,
,612088c6aac9e0d358ce634c,001,2022-04-28_21h06.03.636,classification_task,2021.2.3,Linux x86_64,30.0120048,612088c6aac9e0d358ce634c,626b377229c10585ec392f89,626b39b9674052d874d36961,,,,,Approximately how many hours did you spend playing video games in the last week?,,,0.7,0,0,,,,,,,,,,,,,,,,,,,,,,,,,,,,,,,,,,,,,,,,,,,,,,,,,,,,,,,,,,
,612088c6aac9e0d358ce634c,001,2022-04-28_21h06.03.636,classification_task,2021.2.3,Linux x86_64,30.0120048,612088c6aac9e0d358ce634c,626b377229c10585ec392f89,626b39b9674052d874d36961,,,,,"Which game did you play the most this year? (Enter ""None"" if you didn't play any)",,,0.7,0,Age of Empires 2 DE,,,,,,,,,,,,,,,,,,,,,,,,,,,,,,,,,,,,,,,,,,,,,,,,,,,,,,,,,,
,612088c6aac9e0d358ce634c,001,2022-04-28_21h06.03.636,classification_task,2021.2.3,Linux x86_64,30.0120048,612088c6aac9e0d358ce634c,626b377229c10585ec392f89,626b39b9674052d874d36961,,,,,Visual perception,,,0.7,0,,,,,,,,,,,,,,,,,,,,,,,,,,,,,,,,,,,,,,,,,,,,,,,,,,,,,,,,,,,
,612088c6aac9e0d358ce634c,001,2022-04-28_21h06.03.636,classification_task,2021.2.3,Linux x86_64,30.0120048,612088c6aac9e0d358ce634c,626b377229c10585ec392f89,626b39b9674052d874d36961,,,,,Do you have any form of color blindness?,,,0.7,0,No,35.776,,,,,,,,,,,,,,,,,,,,,,,,,,,,,,,,,,,,,,,,,,,,,,,,,,,,,,,,,
,612088c6aac9e0d358ce634c,001,2022-04-28_21h06.03.636,classification_task,2021.2.3,Linux x86_64,30.0120048,612088c6aac9e0d358ce634c,626b377229c10585ec392f89,626b39b9674052d874d36961,,,,,Do you use software to change the colour temperature of your screen (e.g. f.lux)?,,,0.7,0,No,40.742,,,,,,,,,,,,,,,,,,,,,,,,,,,,,,,,,,,,,,,,,,,,,,,,,,,,,,,,,
,612088c6aac9e0d358ce634c,001,2022-04-28_21h06.03.636,classification_task,2021.2.3,Linux x86_64,30.0120048,612088c6aac9e0d358ce634c,626b377229c10585ec392f89,626b39b9674052d874d36961,,,,,,,,,,,,space,40.083,space,11.031,0,0,0,0,1,,,,,,,,,,,,,,,,,,,,,,,,,,,,,,,,,,,,,,,,,,,,,,,,
,612088c6aac9e0d358ce634c,001,2022-04-28_21h06.03.636,classification_task,2021.2.3,Linux x86_64,30.0120048,612088c6aac9e0d358ce634c,626b377229c10585ec392f89,626b39b9674052d874d36961,,,,,,,,,,,,,,space,6.81,1,0,1,0,1,,,,,,,,,,,,,,,,,,,,,,,,,,,,,,,,,,,,,,,,,,,,,,,,
,612088c6aac9e0d358ce634c,001,2022-04-28_21h06.03.636,classification_task,2021.2.3,Linux x86_64,30.0120048,612088c6aac9e0d358ce634c,626b377229c10585ec392f89,626b39b9674052d874d36961,,,,,,,,,,,,,,space,17.525,2,0,2,0,1,,,,,,,,,,,,,,,,,,,,,,,,,,,,,,,,,,,,,,,,,,,,,,,,
,612088c6aac9e0d358ce634c,001,2022-04-28_21h06.03.636,classification_task,2021.2.3,Linux x86_64,30.0120048,612088c6aac9e0d358ce634c,626b377229c10585ec392f89,626b39b9674052d874d36961,,,,,,,,,,,,,,space,13.011,3,0,3,0,1,,,,,,,,,,,,,,,,,,,,,,,,,,,,,,,,,,,,,,,,,,,,,,,,
,612088c6aac9e0d358ce634c,001,2022-04-28_21h06.03.636,classification_task,2021.2.3,Linux x86_64,30.0120048,612088c6aac9e0d358ce634c,626b377229c10585ec392f89,626b39b9674052d874d36961,,,,,,,,,,,,,,space,16.203,4,0,4,0,1,,,,,,,,,,,,,,,,,,,,,,,,,,,,,,,,,,,,,,,,,,,,,,,,
,612088c6aac9e0d358ce634c,001,2022-04-28_21h06.03.636,classification_task,2021.2.3,Linux x86_64,30.0120048,612088c6aac9e0d358ce634c,626b377229c10585ec392f89,626b39b9674052d874d36961,,,,,,,,,,,,,,,,,,,,,space,23.698,l,1,6.739,"[""0.120"",""0.285"",""0.473"",""0.787""]","[1,1,0,1]",0,0,0,0,1,1,0,,,1,FALSE,,,,,,,,,,,,,,,,,,,,,,,,,,,,,,
,612088c6aac9e0d358ce634c,001,2022-04-28_21h06.03.636,classification_task,2021.2.3,Linux x86_64,30.0120048,612088c6aac9e0d358ce634c,626b377229c10585ec392f89,626b39b9674052d874d36961,,,,,,,,,,,,,,,,,,,,,,,a,1,3.203,"[""0.179"",""0.371"",""0.744"",""0.954""]","[1,1,0,1]",0,1,1,1,1,0,0,,,1,FALSE,,,,,,,,,,,,,,,,,,,,,,,,,,,,,,
,612088c6aac9e0d358ce634c,001,2022-04-28_21h06.03.636,classification_task,2021.2.3,Linux x86_64,30.0120048,612088c6aac9e0d358ce634c,626b377229c10585ec392f89,626b39b9674052d874d36961,,,,,,,,,,,,,,,,,,,,,,,a,1,3.67,"[""0.049"",""0.371"",""0.913"",""0.954""]","[0,1,1,1]",0,2,2,2,1,0,0,,,1,FALSE,,,,,,,,,,,,,,,,,,,,,,,,,,,,,,
,612088c6aac9e0d358ce634c,001,2022-04-28_21h06.03.636,classification_task,2021.2.3,Linux x86_64,30.0120048,612088c6aac9e0d358ce634c,626b377229c10585ec392f89,626b39b9674052d874d36961,,,,,,,,,,,,,,,,,,,,,,,l,0,3.356,"[""0.325"",""0.049"",""0.845"",""0.879""]","[1,0,1,1]",0,3,3,3,1,0,1,,,1,FALSE,,,,,,,,,,,,,,,,,,,,,,,,,,,,,,
,612088c6aac9e0d358ce634c,001,2022-04-28_21h06.03.636,classification_task,2021.2.3,Linux x86_64,30.0120048,612088c6aac9e0d358ce634c,626b377229c10585ec392f89,626b39b9674052d874d36961,,,,,,,,,,,,,,,,,,,,,,,a,1,4.719,"[""0.325"",""0.411"",""0.845"",""0.743""]","[1,1,1,0]",0,4,4,4,1,0,1,,,1,FALSE,,,,,,,,,,,,,,,,,,,,,,,,,,,,,,
,612088c6aac9e0d358ce634c,001,2022-04-28_21h06.03.636,classification_task,2021.2.3,Linux x86_64,30.0120048,612088c6aac9e0d358ce634c,626b377229c10585ec392f89,626b39b9674052d874d36961,,,,,,,,,,,,,,,,,,,,,,,,0,,"[""0.084"",""0.458"",""0.581"",""0.700""]","[1,0,1,1]",0,5,5,5,1,1,1,,,1,FALSE,,,,,,,,,,,,,,,,,,,,,,,,,,,,,,
,612088c6aac9e0d358ce634c,001,2022-04-28_21h06.03.636,classification_task,2021.2.3,Linux x86_64,30.0120048,612088c6aac9e0d358ce634c,626b377229c10585ec392f89,626b39b9674052d874d36961,,,,,,,,,,,,,,,,,,,,,,,l,1,5.482,"[""0.032"",""0.285"",""0.510"",""0.787""]","[0,1,1,1]",0,6,6,6,1,1,0,,,1,FALSE,,,,,,,,,,,,,,,,,,,,,,,,,,,,,,
,612088c6aac9e0d358ce634c,001,2022-04-28_21h06.03.636,classification_task,2021.2.3,Linux x86_64,30.0120048,612088c6aac9e0d358ce634c,626b377229c10585ec392f89,626b39b9674052d874d36961,,,,,,,,,,,,,,,,,,,,,,,l,1,5.209,"[""0.084"",""0.222"",""0.659"",""0.700""]","[1,1,0,1]",0,7,7,7,1,1,1,,,1,FALSE,,,,,,,,,,,,,,,,,,,,,,,,,,,,,,
,612088c6aac9e0d358ce634c,001,2022-04-28_21h06.03.636,classification_task,2021.2.3,Linux x86_64,30.0120048,612088c6aac9e0d358ce634c,626b377229c10585ec392f89,626b39b9674052d874d36961,,,,,,,,,,,,,,,,,,,,,,,l,1,7.481,"[""0.120"",""0.743"",""0.510"",""0.787""]","[1,0,1,1]",0,8,8,8,1,1,0,,,1,FALSE,,,,,,,,,,,,,,,,,,,,,,,,,,,,,,
,612088c6aac9e0d358ce634c,001,2022-04-28_21h06.03.636,classification_task,2021.2.3,Linux x86_64,30.0120048,612088c6aac9e0d358ce634c,626b377229c10585ec392f89,626b39b9674052d874d36961,,,,,,,,,,,,,,,,,,,,,,,a,1,3.373,"[""0.179"",""0.743"",""0.913"",""0.954""]","[1,0,1,1]",0,9,9,9,1,0,0,,,1,FALSE,,,,,,,,,,,,,,,,,,,,,,,,,,,,,,
,612088c6aac9e0d358ce634c,001,2022-04-28_21h06.03.636,classification_task,2021.2.3,Linux x86_64,30.0120048,612088c6aac9e0d358ce634c,626b377229c10585ec392f89,626b39b9674052d874d36961,,,,,,,,,,,,,,,,,,,,,,,a,1,4.652,"[""0.325"",""0.411"",""0.744"",""0.879""]","[1,1,0,1]",0,10,10,10,1,0,1,,,1,FALSE,,,,,,,,,,,,,,,,,,,,,,,,,,,,,,
,612088c6aac9e0d358ce634c,001,2022-04-28_21h06.03.636,classification_task,2021.2.3,Linux x86_64,30.0120048,612088c6aac9e0d358ce634c,626b377229c10585ec392f89,626b39b9674052d874d36961,,,,,,,,,,,,,,,,,,,,,,,a,1,8.241,"[""0.179"",""0.371"",""0.913"",""0.545""]","[1,1,1,0]",0,11,11,11,1,0,0,,,1,FALSE,,,,,,,,,,,,,,,,,,,,,,,,,,,,,,
,612088c6aac9e0d358ce634c,001,2022-04-28_21h06.03.636,classification_task,2021.2.3,Linux x86_64,30.0120048,612088c6aac9e0d358ce634c,626b377229c10585ec392f89,626b39b9674052d874d36961,,,,,,,,,,,,,,,,,,,,,,,l,1,3.483,"[""0.084"",""0.222"",""0.581"",""0.545""]","[1,1,1,0]",0,12,12,12,1,1,1,,,1,FALSE,,,,,,,,,,,,,,,,,,,,,,,,,,,,,,
,612088c6aac9e0d358ce634c,001,2022-04-28_21h06.03.636,classification_task,2021.2.3,Linux x86_64,30.0120048,612088c6aac9e0d358ce634c,626b377229c10585ec392f89,626b39b9674052d874d36961,,,,,,,,,,,,,,,,,,,,,,,a,1,5.445,"[""0.643"",""0.411"",""0.845"",""0.879""]","[0,1,1,1]",0,13,13,13,1,0,1,,,1,FALSE,,,,,,,,,,,,,,,,,,,,,,,,,,,,,,
,612088c6aac9e0d358ce634c,001,2022-04-28_21h06.03.636,classification_task,2021.2.3,Linux x86_64,30.0120048,612088c6aac9e0d358ce634c,626b377229c10585ec392f89,626b39b9674052d874d36961,,,,,,,,,,,,,,,,,,,,,,,l,1,6.066,"[""0.120"",""0.285"",""0.510"",""0.458""]","[1,1,1,0]",0,14,14,14,1,1,0,,,1,FALSE,,,,,,,,,,,,,,,,,,,,,,,,,,,,,,
,612088c6aac9e0d358ce634c,001,2022-04-28_21h06.03.636,classification_task,2021.2.3,Linux x86_64,30.0120048,612088c6aac9e0d358ce634c,626b377229c10585ec392f89,626b39b9674052d874d36961,,,,,,,,,,,,,,,,,,,,,,,l,1,4.573,"[""0.465"",""0.222"",""0.581"",""0.700""]","[0,1,1,1]",0,15,15,15,1,1,1,,,1,FALSE,,,,,,,,,,,,,,,,,,,,,,,,,,,,,,
,612088c6aac9e0d358ce634c,001,2022-04-28_21h06.03.636,classification_task,2021.2.3,Linux x86_64,30.0120048,612088c6aac9e0d358ce634c,626b377229c10585ec392f89,626b39b9674052d874d36961,,,,,,,,,,,,,,,,,,,,,,,a,1,3.586,"[""0.325"",""0.411"",""0.637"",""0.879""]","[1,1,0,1]",0,16,16,16,1,0,1,,,1,FALSE,,,,,,,,,,,,,,,,,,,,,,,,,,,,,,
,612088c6aac9e0d358ce634c,001,2022-04-28_21h06.03.636,classification_task,2021.2.3,Linux x86_64,30.0120048,612088c6aac9e0d358ce634c,626b377229c10585ec392f89,626b39b9674052d874d36961,,,,,,,,,,,,,,,,,,,,,,,l,1,4.062,"[""0.120"",""0.285"",""0.468"",""0.787""]","[1,1,0,1]",0,17,17,17,1,1,0,,,1,FALSE,,,,,,,,,,,,,,,,,,,,,,,,,,,,,,
,612088c6aac9e0d358ce634c,001,2022-04-28_21h06.03.636,classification_task,2021.2.3,Linux x86_64,30.0120048,612088c6aac9e0d358ce634c,626b377229c10585ec392f89,626b39b9674052d874d36961,,,,,,,,,,,,,,,,,,,,,,,a,1,7.422,"[""0.179"",""0.545"",""0.913"",""0.954""]","[1,0,1,1]",0,18,18,18,1,0,0,,,1,FALSE,,,,,,,,,,,,,,,,,,,,,,,,,,,,,,
,612088c6aac9e0d358ce634c,001,2022-04-28_21h06.03.636,classification_task,2021.2.3,Linux x86_64,30.0120048,612088c6aac9e0d358ce634c,626b377229c10585ec392f89,626b39b9674052d874d36961,,,,,,,,,,,,,,,,,,,,,,,a,1,4.295,"[""0.468"",""0.371"",""0.913"",""0.954""]","[0,1,1,1]",0,19,19,19,1,0,0,,,1,FALSE,,,,,,,,,,,,,,,,,,,,,,,,,,,,,,
,612088c6aac9e0d358ce634c,001,2022-04-28_21h06.03.636,classification_task,2021.2.3,Linux x86_64,30.0120048,612088c6aac9e0d358ce634c,626b377229c10585ec392f89,626b39b9674052d874d36961,,,,,,,,,,,,,,,,,,,,,,,l,1,4.965,"[""0.120"",""0.744"",""0.510"",""0.787""]","[1,0,1,1]",0,20,20,20,1,1,0,,,1,FALSE,,,,,,,,,,,,,,,,,,,,,,,,,,,,,,
,612088c6aac9e0d358ce634c,001,2022-04-28_21h06.03.636,classification_task,2021.2.3,Linux x86_64,30.0120048,612088c6aac9e0d358ce634c,626b377229c10585ec392f89,626b39b9674052d874d36961,,,,,,,,,,,,,,,,,,,,,,,l,1,4.628,"[""0.084"",""0.222"",""0.468"",""0.700""]","[1,1,0,1]",0,21,21,21,1,1,1,,,1,FALSE,,,,,,,,,,,,,,,,,,,,,,,,,,,,,,
,612088c6aac9e0d358ce634c,001,2022-04-28_21h06.03.636,classification_task,2021.2.3,Linux x86_64,30.0120048,612088c6aac9e0d358ce634c,626b377229c10585ec392f89,626b39b9674052d874d36961,,,,,,,,,,,,,,,,,,,,,,,a,1,5.321,"[""0.179"",""0.371"",""0.913"",""0.659""]","[1,1,1,0]",0,22,22,22,1,0,0,,,1,FALSE,,,,,,,,,,,,,,,,,,,,,,,,,,,,,,
,612088c6aac9e0d358ce634c,001,2022-04-28_21h06.03.636,classification_task,2021.2.3,Linux x86_64,30.0120048,612088c6aac9e0d358ce634c,626b377229c10585ec392f89,626b39b9674052d874d36961,,,,,,,,,,,,,,,,,,,,,,,l,1,4.653,"[""0.465"",""0.285"",""0.510"",""0.787""]","[0,1,1,1]",0,23,23,23,1,1,0,,,1,FALSE,,,,,,,,,,,,,,,,,,,,,,,,,,,,,,
,612088c6aac9e0d358ce634c,001,2022-04-28_21h06.03.636,classification_task,2021.2.3,Linux x86_64,30.0120048,612088c6aac9e0d358ce634c,626b377229c10585ec392f89,626b39b9674052d874d36961,,,,,,,,,,,,,,,,,,,,,,,a,1,3.491,"[""0.325"",""0.637"",""0.845"",""0.879""]","[1,0,1,1]",0,24,24,24,1,0,1,,,1,FALSE,,,,,,,,,,,,,,,,,,,,,,,,,,,,,,
,612088c6aac9e0d358ce634c,001,2022-04-28_21h06.03.636,classification_task,2021.2.3,Linux x86_64,30.0120048,612088c6aac9e0d358ce634c,626b377229c10585ec392f89,626b39b9674052d874d36961,,,,,,,,,,,,,,,,,,,,,,,l,1,3.943,"[""0.084"",""0.222"",""0.581"",""0.643""]","[1,1,1,0]",0,25,25,25,1,1,1,,,1,FALSE,,,,,,,,,,,,,,,,,,,,,,,,,,,,,,
,612088c6aac9e0d358ce634c,001,2022-04-28_21h06.03.636,classification_task,2021.2.3,Linux x86_64,30.0120048,612088c6aac9e0d358ce634c,626b377229c10585ec392f89,626b39b9674052d874d36961,,,,,,,,,,,,,,,,,,,,,,,l,1,5.85,"[""0.084"",""0.743"",""0.581"",""0.700""]","[1,0,1,1]",0,26,26,26,1,1,1,,,1,FALSE,,,,,,,,,,,,,,,,,,,,,,,,,,,,,,
,612088c6aac9e0d358ce634c,001,2022-04-28_21h06.03.636,classification_task,2021.2.3,Linux x86_64,30.0120048,612088c6aac9e0d358ce634c,626b377229c10585ec392f89,626b39b9674052d874d36961,,,,,,,,,,,,,,,,,,,,,,,a,1,5.866,"[""0.325"",""0.411"",""0.845"",""0.049""]","[1,1,1,0]",0,27,27,27,1,0,1,,,1,FALSE,,,,,,,,,,,,,,,,,,,,,,,,,,,,,,
,612088c6aac9e0d358ce634c,001,2022-04-28_21h06.03.636,classification_task,2021.2.3,Linux x86_64,30.0120048,612088c6aac9e0d358ce634c,626b377229c10585ec392f89,626b39b9674052d874d36961,,,,,,,,,,,,,,,,,,,,,,,l,1,4.515,"[""0.744"",""0.222"",""0.581"",""0.700""]","[0,1,1,1]",0,28,28,28,1,1,1,,,1,FALSE,,,,,,,,,,,,,,,,,,,,,,,,,,,,,,
,612088c6aac9e0d358ce634c,001,2022-04-28_21h06.03.636,classification_task,2021.2.3,Linux x86_64,30.0120048,612088c6aac9e0d358ce634c,626b377229c10585ec392f89,626b39b9674052d874d36961,,,,,,,,,,,,,,,,,,,,,,,l,1,3.974,"[""0.120"",""0.285"",""0.510"",""0.751""]","[1,1,1,0]",0,29,29,29,1,1,0,,,1,FALSE,,,,,,,,,,,,,,,,,,,,,,,,,,,,,,
,612088c6aac9e0d358ce634c,001,2022-04-28_21h06.03.636,classification_task,2021.2.3,Linux x86_64,30.0120048,612088c6aac9e0d358ce634c,626b377229c10585ec392f89,626b39b9674052d874d36961,,,,,,,,,,,,,,,,,,,,,,,a,1,3.128,"[""0.049"",""0.411"",""0.845"",""0.879""]","[0,1,1,1]",0,30,30,30,1,0,1,,,1,FALSE,,,,,,,,,,,,,,,,,,,,,,,,,,,,,,
,612088c6aac9e0d358ce634c,001,2022-04-28_21h06.03.636,classification_task,2021.2.3,Linux x86_64,30.0120048,612088c6aac9e0d358ce634c,626b377229c10585ec392f89,626b39b9674052d874d36961,,,,,,,,,,,,,,,,,,,,,,,a,1,6.244,"[""0.179"",""0.371"",""0.652"",""0.954""]","[1,1,0,1]",0,31,31,31,1,0,0,,,1,FALSE,,,,,,,,,,,,,,,,,,,,,,,,,,,,,,
,612088c6aac9e0d358ce634c,001,2022-04-28_21h06.03.636,classification_task,2021.2.3,Linux x86_64,30.0120048,612088c6aac9e0d358ce634c,626b377229c10585ec392f89,626b39b9674052d874d36961,,,,,,,,,,,,,,,,,,,,,,,a,0,6.529,"[""0.084"",""0.222"",""0.468"",""0.700""]","[1,1,0,1]",0,32,32,32,1,1,1,,,1,FALSE,,,,,,,,,,,,,,,,,,,,,,,,,,,,,,
,612088c6aac9e0d358ce634c,001,2022-04-28_21h06.03.636,classification_task,2021.2.3,Linux x86_64,30.0120048,612088c6aac9e0d358ce634c,626b377229c10585ec392f89,626b39b9674052d874d36961,,,,,,,,,,,,,,,,,,,,,,,a,1,6.05,"[""0.637"",""0.371"",""0.913"",""0.954""]","[0,1,1,1]",0,33,33,33,1,0,0,,,1,FALSE,,,,,,,,,,,,,,,,,,,,,,,,,,,,,,
,612088c6aac9e0d358ce634c,001,2022-04-28_21h06.03.636,classification_task,2021.2.3,Linux x86_64,30.0120048,612088c6aac9e0d358ce634c,626b377229c10585ec392f89,626b39b9674052d874d36961,,,,,,,,,,,,,,,,,,,,,,,l,1,3.628,"[""0.084"",""0.222"",""0.581"",""0.473""]","[1,1,1,0]",0,34,34,34,1,1,1,,,1,FALSE,,,,,,,,,,,,,,,,,,,,,,,,,,,,,,
,612088c6aac9e0d358ce634c,001,2022-04-28_21h06.03.636,classification_task,2021.2.3,Linux x86_64,30.0120048,612088c6aac9e0d358ce634c,626b377229c10585ec392f89,626b39b9674052d874d36961,,,,,,,,,,,,,,,,,,,,,,,l,0,5.267,"[""0.179"",""0.371"",""0.637"",""0.954""]","[1,1,0,1]",0,35,35,35,1,0,0,,,1,FALSE,,,,,,,,,,,,,,,,,,,,,,,,,,,,,,
,612088c6aac9e0d358ce634c,001,2022-04-28_21h06.03.636,classification_task,2021.2.3,Linux x86_64,30.0120048,612088c6aac9e0d358ce634c,626b377229c10585ec392f89,626b39b9674052d874d36961,,,,,,,,,,,,,,,,,,,,,,,l,1,5.446,"[""0.643"",""0.222"",""0.581"",""0.700""]","[0,1,1,1]",0,36,36,36,1,1,1,,,1,FALSE,,,,,,,,,,,,,,,,,,,,,,,,,,,,,,
,612088c6aac9e0d358ce634c,001,2022-04-28_21h06.03.636,classification_task,2021.2.3,Linux x86_64,30.0120048,612088c6aac9e0d358ce634c,626b377229c10585ec392f89,626b39b9674052d874d36961,,,,,,,,,,,,,,,,,,,,,,,a,1,2.116,"[""0.325"",""0.458"",""0.845"",""0.879""]","[1,0,1,1]",0,37,37,37,1,0,1,,,1,FALSE,,,,,,,,,,,,,,,,,,,,,,,,,,,,,,
,612088c6aac9e0d358ce634c,001,2022-04-28_21h06.03.636,classification_task,2021.2.3,Linux x86_64,30.0120048,612088c6aac9e0d358ce634c,626b377229c10585ec392f89,626b39b9674052d874d36961,,,,,,,,,,,,,,,,,,,,,,,a,1,1.653,"[""0.179"",""0.039"",""0.913"",""0.954""]","[1,0,1,1]",0,38,38,38,1,0,0,,,1,FALSE,,,,,,,,,,,,,,,,,,,,,,,,,,,,,,
,612088c6aac9e0d358ce634c,001,2022-04-28_21h06.03.636,classification_task,2021.2.3,Linux x86_64,30.0120048,612088c6aac9e0d358ce634c,626b377229c10585ec392f89,626b39b9674052d874d36961,,,,,,,,,,,,,,,,,,,,,,,l,0,4.501,"[""0.179"",""0.371"",""0.913"",""0.652""]","[1,1,1,0]",0,39,39,39,1,0,0,,,1,FALSE,,,,,,,,,,,,,,,,,,,,,,,,,,,,,,
,612088c6aac9e0d358ce634c,001,2022-04-28_21h06.03.636,classification_task,2021.2.3,Linux x86_64,30.0120048,612088c6aac9e0d358ce634c,626b377229c10585ec392f89,626b39b9674052d874d36961,,,,,,,,,,,,,,,,,,,,,,,l,0,1.163,"[""0.325"",""0.411"",""0.845"",""0.743""]","[1,1,1,0]",0,40,40,40,1,0,1,,,1,FALSE,,,,,,,,,,,,,,,,,,,,,,,,,,,,,,
,612088c6aac9e0d358ce634c,001,2022-04-28_21h06.03.636,classification_task,2021.2.3,Linux x86_64,30.0120048,612088c6aac9e0d358ce634c,626b377229c10585ec392f89,626b39b9674052d874d36961,,,,,,,,,,,,,,,,,,,,,,,l,1,2.859,"[""0.120"",""0.285"",""0.510"",""0.458""]","[1,1,1,0]",0,41,41,41,1,1,0,,,1,FALSE,,,,,,,,,,,,,,,,,,,,,,,,,,,,,,
,612088c6aac9e0d358ce634c,001,2022-04-28_21h06.03.636,classification_task,2021.2.3,Linux x86_64,30.0120048,612088c6aac9e0d358ce634c,626b377229c10585ec392f89,626b39b9674052d874d36961,,,,,,,,,,,,,,,,,,,,,,,a,1,3.438,"[""0.325"",""0.411"",""0.743"",""0.879""]","[1,1,0,1]",0,42,42,42,1,0,1,,,1,FALSE,,,,,,,,,,,,,,,,,,,,,,,,,,,,,,
,612088c6aac9e0d358ce634c,001,2022-04-28_21h06.03.636,classification_task,2021.2.3,Linux x86_64,30.0120048,612088c6aac9e0d358ce634c,626b377229c10585ec392f89,626b39b9674052d874d36961,,,,,,,,,,,,,,,,,,,,,,,l,1,3.547,"[""0.084"",""0.465"",""0.581"",""0.700""]","[1,0,1,1]",0,43,43,43,1,1,1,,,1,FALSE,,,,,,,,,,,,,,,,,,,,,,,,,,,,,,
,612088c6aac9e0d358ce634c,001,2022-04-28_21h06.03.636,classification_task,2021.2.3,Linux x86_64,30.0120048,612088c6aac9e0d358ce634c,626b377229c10585ec392f89,626b39b9674052d874d36961,,,,,,,,,,,,,,,,,,,,,,,a,0,3.777,"[""0.473"",""0.285"",""0.510"",""0.787""]","[0,1,1,1]",0,44,44,44,1,1,0,,,1,FALSE,,,,,,,,,,,,,,,,,,,,,,,,,,,,,,
,612088c6aac9e0d358ce634c,001,2022-04-28_21h06.03.636,classification_task,2021.2.3,Linux x86_64,30.0120048,612088c6aac9e0d358ce634c,626b377229c10585ec392f89,626b39b9674052d874d36961,,,,,,,,,,,,,,,,,,,,,,,a,0,1.541,"[""0.120"",""0.751"",""0.510"",""0.787""]","[1,0,1,1]",0,45,45,45,1,1,0,,,1,FALSE,,,,,,,,,,,,,,,,,,,,,,,,,,,,,,
,612088c6aac9e0d358ce634c,001,2022-04-28_21h06.03.636,classification_task,2021.2.3,Linux x86_64,30.0120048,612088c6aac9e0d358ce634c,626b377229c10585ec392f89,626b39b9674052d874d36961,,,,,,,,,,,,,,,,,,,,,,,a,0,2.037,"[""0.120"",""0.285"",""0.032"",""0.787""]","[1,1,0,1]",0,46,46,46,1,1,0,,,1,FALSE,,,,,,,,,,,,,,,,,,,,,,,,,,,,,,
,612088c6aac9e0d358ce634c,001,2022-04-28_21h06.03.636,classification_task,2021.2.3,Linux x86_64,30.0120048,612088c6aac9e0d358ce634c,626b377229c10585ec392f89,626b39b9674052d874d36961,,,,,,,,,,,,,,,,,,,,,,,a,1,1.34,"[""0.032"",""0.411"",""0.845"",""0.879""]","[0,1,1,1]",0,47,47,47,1,0,1,,,1,FALSE,,,,,,,,,,,,,,,,,,,,,,,,,,,,,,
,612088c6aac9e0d358ce634c,001,2022-04-28_21h06.03.636,classification_task,2021.2.3,Linux x86_64,30.0120048,612088c6aac9e0d358ce634c,626b377229c10585ec392f89,626b39b9674052d874d36961,,,,,,,,,,,,,,,,,,,,,,,a,1,2.987,"[""0.325"",""0.411"",""0.845"",""0.039""]","[1,1,1,0]",0,48,48,48,1,0,1,,,1,FALSE,,,,,,,,,,,,,,,,,,,,,,,,,,,,,,
,612088c6aac9e0d358ce634c,001,2022-04-28_21h06.03.636,classification_task,2021.2.3,Linux x86_64,30.0120048,612088c6aac9e0d358ce634c,626b377229c10585ec392f89,626b39b9674052d874d36961,,,,,,,,,,,,,,,,,,,,,,,l,0,1.695,"[""0.325"",""0.411"",""0.468"",""0.879""]","[1,1,0,1]",0,49,49,49,1,0,1,,,1,FALSE,,,,,,,,,,,,,,,,,,,,,,,,,,,,,,
,612088c6aac9e0d358ce634c,001,2022-04-28_21h06.03.636,classification_task,2021.2.3,Linux x86_64,30.0120048,612088c6aac9e0d358ce634c,626b377229c10585ec392f89,626b39b9674052d874d36961,,,,,,,,,,,,,,,,,,,,,,,l,0,1.629,"[""0.325"",""0.458"",""0.845"",""0.879""]","[1,0,1,1]",0,50,50,50,1,0,1,,,1,FALSE,,,,,,,,,,,,,,,,,,,,,,,,,,,,,,
,612088c6aac9e0d358ce634c,001,2022-04-28_21h06.03.636,classification_task,2021.2.3,Linux x86_64,30.0120048,612088c6aac9e0d358ce634c,626b377229c10585ec392f89,626b39b9674052d874d36961,,,,,,,,,,,,,,,,,,,,,,,l,1,1.474,"[""0.120"",""0.049"",""0.510"",""0.787""]","[1,0,1,1]",0,51,51,51,1,1,0,,,1,FALSE,,,,,,,,,,,,,,,,,,,,,,,,,,,,,,
,612088c6aac9e0d358ce634c,001,2022-04-28_21h06.03.636,classification_task,2021.2.3,Linux x86_64,30.0120048,612088c6aac9e0d358ce634c,626b377229c10585ec392f89,626b39b9674052d874d36961,,,,,,,,,,,,,,,,,,,,,,,a,0,2.168,"[""0.084"",""0.222"",""0.581"",""0.473""]","[1,1,1,0]",0,52,52,52,1,1,1,,,1,FALSE,,,,,,,,,,,,,,,,,,,,,,,,,,,,,,
,612088c6aac9e0d358ce634c,001,2022-04-28_21h06.03.636,classification_task,2021.2.3,Linux x86_64,30.0120048,612088c6aac9e0d358ce634c,626b377229c10585ec392f89,626b39b9674052d874d36961,,,,,,,,,,,,,,,,,,,,,,,a,1,1.691,"[""0.179"",""0.371"",""0.913"",""0.637""]","[1,1,1,0]",0,53,53,53,1,0,0,,,1,FALSE,,,,,,,,,,,,,,,,,,,,,,,,,,,,,,
,612088c6aac9e0d358ce634c,001,2022-04-28_21h06.03.636,classification_task,2021.2.3,Linux x86_64,30.0120048,612088c6aac9e0d358ce634c,626b377229c10585ec392f89,626b39b9674052d874d36961,,,,,,,,,,,,,,,,,,,,,,,a,0,2.243,"[""0.652"",""0.285"",""0.510"",""0.787""]","[0,1,1,1]",0,54,54,54,1,1,0,,,1,FALSE,,,,,,,,,,,,,,,,,,,,,,,,,,,,,,
,612088c6aac9e0d358ce634c,001,2022-04-28_21h06.03.636,classification_task,2021.2.3,Linux x86_64,30.0120048,612088c6aac9e0d358ce634c,626b377229c10585ec392f89,626b39b9674052d874d36961,,,,,,,,,,,,,,,,,,,,,,,a,0,1.778,"[""0.039"",""0.222"",""0.581"",""0.700""]","[0,1,1,1]",0,55,55,55,1,1,1,,,1,FALSE,,,,,,,,,,,,,,,,,,,,,,,,,,,,,,
,612088c6aac9e0d358ce634c,001,2022-04-28_21h06.03.636,classification_task,2021.2.3,Linux x86_64,30.0120048,612088c6aac9e0d358ce634c,626b377229c10585ec392f89,626b39b9674052d874d36961,,,,,,,,,,,,,,,,,,,,,,,a,1,0.578,"[""0.179"",""0.371"",""0.039"",""0.954""]","[1,1,0,1]",0,56,56,56,1,0,0,,,1,FALSE,,,,,,,,,,,,,,,,,,,,,,,,,,,,,,
,612088c6aac9e0d358ce634c,001,2022-04-28_21h06.03.636,classification_task,2021.2.3,Linux x86_64,30.0120048,612088c6aac9e0d358ce634c,626b377229c10585ec392f89,626b39b9674052d874d36961,,,,,,,,,,,,,,,,,,,,,,,l,1,2.922,"[""0.120"",""0.285"",""0.458"",""0.787""]","[1,1,0,1]",0,57,57,57,1,1,0,,,1,FALSE,,,,,,,,,,,,,,,,,,,,,,,,,,,,,,
,612088c6aac9e0d358ce634c,001,2022-04-28_21h06.03.636,classification_task,2021.2.3,Linux x86_64,30.0120048,612088c6aac9e0d358ce634c,626b377229c10585ec392f89,626b39b9674052d874d36961,,,,,,,,,,,,,,,,,,,,,,,a,1,3.002,"[""0.179"",""0.473"",""0.913"",""0.954""]","[1,0,1,1]",0,58,58,58,1,0,0,,,1,FALSE,,,,,,,,,,,,,,,,,,,,,,,,,,,,,,
,612088c6aac9e0d358ce634c,001,2022-04-28_21h06.03.636,classification_task,2021.2.3,Linux x86_64,30.0120048,612088c6aac9e0d358ce634c,626b377229c10585ec392f89,626b39b9674052d874d36961,,,,,,,,,,,,,,,,,,,,,,,l,0,1.863,"[""0.652"",""0.411"",""0.845"",""0.879""]","[0,1,1,1]",0,59,59,59,1,0,1,,,1,FALSE,,,,,,,,,,,,,,,,,,,,,,,,,,,,,,
,612088c6aac9e0d358ce634c,001,2022-04-28_21h06.03.636,classification_task,2021.2.3,Linux x86_64,30.0120048,612088c6aac9e0d358ce634c,626b377229c10585ec392f89,626b39b9674052d874d36961,,,,,,,,,,,,,,,,,,,,,,,l,1,2.057,"[""0.084"",""0.222"",""0.751"",""0.700""]","[1,1,0,1]",0,60,60,60,1,1,1,,,1,FALSE,,,,,,,,,,,,,,,,,,,,,,,,,,,,,,
,612088c6aac9e0d358ce634c,001,2022-04-28_21h06.03.636,classification_task,2021.2.3,Linux x86_64,30.0120048,612088c6aac9e0d358ce634c,626b377229c10585ec392f89,626b39b9674052d874d36961,,,,,,,,,,,,,,,,,,,,,,,a,0,2.849,"[""0.084"",""0.545"",""0.581"",""0.700""]","[1,0,1,1]",0,61,61,61,1,1,1,,,1,FALSE,,,,,,,,,,,,,,,,,,,,,,,,,,,,,,
,612088c6aac9e0d358ce634c,001,2022-04-28_21h06.03.636,classification_task,2021.2.3,Linux x86_64,30.0120048,612088c6aac9e0d358ce634c,626b377229c10585ec392f89,626b39b9674052d874d36961,,,,,,,,,,,,,,,,,,,,,,,a,1,1.504,"[""0.465"",""0.371"",""0.913"",""0.954""]","[0,1,1,1]",0,62,62,62,1,0,0,,,1,FALSE,,,,,,,,,,,,,,,,,,,,,,,,,,,,,,
,612088c6aac9e0d358ce634c,001,2022-04-28_21h06.03.636,classification_task,2021.2.3,Linux x86_64,30.0120048,612088c6aac9e0d358ce634c,626b377229c10585ec392f89,626b39b9674052d874d36961,,,,,,,,,,,,,,,,,,,,,,,l,1,5.258,"[""0.120"",""0.285"",""0.510"",""0.646""]","[1,1,1,0]",0,63,63,63,1,1,0,,,1,FALSE,,,,,,,,,,,,,,,,,,,,,,,,,,,,,,
,612088c6aac9e0d358ce634c,001,2022-04-28_21h06.03.636,classification_task,2021.2.3,Linux x86_64,30.0120048,612088c6aac9e0d358ce634c,626b377229c10585ec392f89,626b39b9674052d874d36961,,,,,,,,,,,,,,,,,,,,,,,,,,,,,,,,,,,,,,,0, ,,0,3.243220899,514.334,0,0,0,0,1,2,1,,,,,,,,,,,,,,,,,
,612088c6aac9e0d358ce634c,001,2022-04-28_21h06.03.636,classification_task,2021.2.3,Linux x86_64,30.0120048,612088c6aac9e0d358ce634c,626b377229c10585ec392f89,626b39b9674052d874d36961,,,,,,,,,,,,,,,,,,,,,,,,,,,,,,,,,,,,,,,1,  ,,0,6.033399471,520.186,0,0,0,0,1,2,1,,,,,,,,,,,,,,,,,
,612088c6aac9e0d358ce634c,001,2022-04-28_21h06.03.636,classification_task,2021.2.3,Linux x86_64,30.0120048,612088c6aac9e0d358ce634c,626b377229c10585ec392f89,626b39b9674052d874d36961,,,,,,,,,,,,,,,,,,,,,,,,,,,,,,,,,,,,,,,2,  ,,0,1.693121693,525.745,0,0,0,0,1,2,1,,,,,,,,,,,,,,,,,
,612088c6aac9e0d358ce634c,001,2022-04-28_21h06.03.636,classification_task,2021.2.3,Linux x86_64,30.0120048,612088c6aac9e0d358ce634c,626b377229c10585ec392f89,626b39b9674052d874d36961,,,,,,,,,,,,,,,,,,,,,,,,,,,,,,,,,,,,,,,,,,,,,0,0,0,0,1,,1,,,,,,,,,,,,,,,,,
,612088c6aac9e0d358ce634c,001,2022-04-28_21h06.03.636,classification_task,2021.2.3,Linux x86_64,30.0120048,612088c6aac9e0d358ce634c,626b377229c10585ec392f89,626b39b9674052d874d36961,,,,,,,,,,,,,,,,,,,,,space,77.045,l,1,3.72,"[""0.084"",""0.222"",""0.581"",""0.473""]","[1,1,1,0]",0,0,0,0,1,1,1,,,1,FALSE,,,,,,,,,,,,,,,,,,,,,,,,,,,,,,
,612088c6aac9e0d358ce634c,001,2022-04-28_21h06.03.636,classification_task,2021.2.3,Linux x86_64,30.0120048,612088c6aac9e0d358ce634c,626b377229c10585ec392f89,626b39b9674052d874d36961,,,,,,,,,,,,,,,,,,,,,,,l,0,3.522,"[""0.179"",""0.371"",""0.913"",""0.545""]","[1,1,1,0]",0,1,1,1,1,0,0,,,1,FALSE,,,,,,,,,,,,,,,,,,,,,,,,,,,,,,
,612088c6aac9e0d358ce634c,001,2022-04-28_21h06.03.636,classification_task,2021.2.3,Linux x86_64,30.0120048,612088c6aac9e0d358ce634c,626b377229c10585ec392f89,626b39b9674052d874d36961,,,,,,,,,,,,,,,,,,,,,,,a,1,2.311,"[""0.325"",""0.411"",""0.845"",""0.744""]","[1,1,1,0]",0,2,2,2,1,0,1,,,1,FALSE,,,,,,,,,,,,,,,,,,,,,,,,,,,,,,
,612088c6aac9e0d358ce634c,001,2022-04-28_21h06.03.636,classification_task,2021.2.3,Linux x86_64,30.0120048,612088c6aac9e0d358ce634c,626b377229c10585ec392f89,626b39b9674052d874d36961,,,,,,,,,,,,,,,,,,,,,,,l,1,0.919,"[""0.039"",""0.222"",""0.581"",""0.700""]","[0,1,1,1]",0,3,3,3,1,1,1,,,1,FALSE,,,,,,,,,,,,,,,,,,,,,,,,,,,,,,
,612088c6aac9e0d358ce634c,001,2022-04-28_21h06.03.636,classification_task,2021.2.3,Linux x86_64,30.0120048,612088c6aac9e0d358ce634c,626b377229c10585ec392f89,626b39b9674052d874d36961,,,,,,,,,,,,,,,,,,,,,,,a,0,3.598,"[""0.120"",""0.285"",""0.510"",""0.646""]","[1,1,1,0]",0,4,4,4,1,1,0,,,1,FALSE,,,,,,,,,,,,,,,,,,,,,,,,,,,,,,
,612088c6aac9e0d358ce634c,001,2022-04-28_21h06.03.636,classification_task,2021.2.3,Linux x86_64,30.0120048,612088c6aac9e0d358ce634c,626b377229c10585ec392f89,626b39b9674052d874d36961,,,,,,,,,,,,,,,,,,,,,,,a,1,1.507,"[""0.743"",""0.411"",""0.845"",""0.879""]","[0,1,1,1]",0,5,5,5,1,0,1,,,1,FALSE,,,,,,,,,,,,,,,,,,,,,,,,,,,,,,
,612088c6aac9e0d358ce634c,001,2022-04-28_21h06.03.636,classification_task,2021.2.3,Linux x86_64,30.0120048,612088c6aac9e0d358ce634c,626b377229c10585ec392f89,626b39b9674052d874d36961,,,,,,,,,,,,,,,,,,,,,,,a,1,2.894,"[""0.743"",""0.371"",""0.913"",""0.954""]","[0,1,1,1]",0,6,6,6,1,0,0,,,1,FALSE,,,,,,,,,,,,,,,,,,,,,,,,,,,,,,
,612088c6aac9e0d358ce634c,001,2022-04-28_21h06.03.636,classification_task,2021.2.3,Linux x86_64,30.0120048,612088c6aac9e0d358ce634c,626b377229c10585ec392f89,626b39b9674052d874d36961,,,,,,,,,,,,,,,,,,,,,,,l,1,4.953,"[""0.120"",""0.659"",""0.510"",""0.787""]","[1,0,1,1]",0,7,7,7,1,1,0,,,1,FALSE,,,,,,,,,,,,,,,,,,,,,,,,,,,,,,
,612088c6aac9e0d358ce634c,001,2022-04-28_21h06.03.636,classification_task,2021.2.3,Linux x86_64,30.0120048,612088c6aac9e0d358ce634c,626b377229c10585ec392f89,626b39b9674052d874d36961,,,,,,,,,,,,,,,,,,,,,,,a,0,1.26,"[""0.120"",""0.285"",""0.643"",""0.787""]","[1,1,0,1]",0,8,8,8,1,1,0,,,1,FALSE,,,,,,,,,,,,,,,,,,,,,,,,,,,,,,
,612088c6aac9e0d358ce634c,001,2022-04-28_21h06.03.636,classification_task,2021.2.3,Linux x86_64,30.0120048,612088c6aac9e0d358ce634c,626b377229c10585ec392f89,626b39b9674052d874d36961,,,,,,,,,,,,,,,,,,,,,,,a,0,1.442,"[""0.659"",""0.285"",""0.510"",""0.787""]","[0,1,1,1]",0,9,9,9,1,1,0,,,1,FALSE,,,,,,,,,,,,,,,,,,,,,,,,,,,,,,
,612088c6aac9e0d358ce634c,001,2022-04-28_21h06.03.636,classification_task,2021.2.3,Linux x86_64,30.0120048,612088c6aac9e0d358ce634c,626b377229c10585ec392f89,626b39b9674052d874d36961,,,,,,,,,,,,,,,,,,,,,,,l,1,1.114,"[""0.084"",""0.468"",""0.581"",""0.700""]","[1,0,1,1]",0,10,10,10,1,1,1,,,1,FALSE,,,,,,,,,,,,,,,,,,,,,,,,,,,,,,
,612088c6aac9e0d358ce634c,001,2022-04-28_21h06.03.636,classification_task,2021.2.3,Linux x86_64,30.0120048,612088c6aac9e0d358ce634c,626b377229c10585ec392f89,626b39b9674052d874d36961,,,,,,,,,,,,,,,,,,,,,,,l,0,1.818,"[""0.179"",""0.545"",""0.913"",""0.954""]","[1,0,1,1]",0,11,11,11,1,0,0,,,1,FALSE,,,,,,,,,,,,,,,,,,,,,,,,,,,,,,
,612088c6aac9e0d358ce634c,001,2022-04-28_21h06.03.636,classification_task,2021.2.3,Linux x86_64,30.0120048,612088c6aac9e0d358ce634c,626b377229c10585ec392f89,626b39b9674052d874d36961,,,,,,,,,,,,,,,,,,,,,,,l,1,1.35,"[""0.084"",""0.222"",""0.751"",""0.700""]","[1,1,0,1]",0,12,12,12,1,1,1,,,1,FALSE,,,,,,,,,,,,,,,,,,,,,,,,,,,,,,
,612088c6aac9e0d358ce634c,001,2022-04-28_21h06.03.636,classification_task,2021.2.3,Linux x86_64,30.0120048,612088c6aac9e0d358ce634c,626b377229c10585ec392f89,626b39b9674052d874d36961,,,,,,,,,,,,,,,,,,,,,,,a,1,2.499,"[""0.179"",""0.371"",""0.465"",""0.954""]","[1,1,0,1]",0,13,13,13,1,0,0,,,1,FALSE,,,,,,,,,,,,,,,,,,,,,,,,,,,,,,
,612088c6aac9e0d358ce634c,001,2022-04-28_21h06.03.636,classification_task,2021.2.3,Linux x86_64,30.0120048,612088c6aac9e0d358ce634c,626b377229c10585ec392f89,626b39b9674052d874d36961,,,,,,,,,,,,,,,,,,,,,,,a,1,1.659,"[""0.325"",""0.411"",""0.744"",""0.879""]","[1,1,0,1]",0,14,14,14,1,0,1,,,1,FALSE,,,,,,,,,,,,,,,,,,,,,,,,,,,,,,
,612088c6aac9e0d358ce634c,001,2022-04-28_21h06.03.636,classification_task,2021.2.3,Linux x86_64,30.0120048,612088c6aac9e0d358ce634c,626b377229c10585ec392f89,626b39b9674052d874d36961,,,,,,,,,,,,,,,,,,,,,,,a,1,1.551,"[""0.325"",""0.659"",""0.845"",""0.879""]","[1,0,1,1]",0,15,15,15,1,0,1,,,1,FALSE,,,,,,,,,,,,,,,,,,,,,,,,,,,,,,
,612088c6aac9e0d358ce634c,001,2022-04-28_21h06.03.636,classification_task,2021.2.3,Linux x86_64,30.0120048,612088c6aac9e0d358ce634c,626b377229c10585ec392f89,626b39b9674052d874d36961,,,,,,,,,,,,,,,,,,,,,,,a,1,1.994,"[""0.325"",""0.411"",""0.845"",""0.473""]","[1,1,1,0]",0,16,16,16,1,0,1,,,1,FALSE,,,,,,,,,,,,,,,,,,,,,,,,,,,,,,
,612088c6aac9e0d358ce634c,001,2022-04-28_21h06.03.636,classification_task,2021.2.3,Linux x86_64,30.0120048,612088c6aac9e0d358ce634c,626b377229c10585ec392f89,626b39b9674052d874d36961,,,,,,,,,,,,,,,,,,,,,,,a,1,1.071,"[""0.325"",""0.643"",""0.845"",""0.879""]","[1,0,1,1]",0,17,17,17,1,0,1,,,1,FALSE,,,,,,,,,,,,,,,,,,,,,,,,,,,,,,
,612088c6aac9e0d358ce634c,001,2022-04-28_21h06.03.636,classification_task,2021.2.3,Linux x86_64,30.0120048,612088c6aac9e0d358ce634c,626b377229c10585ec392f89,626b39b9674052d874d36961,,,,,,,,,,,,,,,,,,,,,,,l,0,2.212,"[""0.744"",""0.371"",""0.913"",""0.954""]","[0,1,1,1]",0,18,18,18,1,0,0,,,1,FALSE,,,,,,,,,,,,,,,,,,,,,,,,,,,,,,
,612088c6aac9e0d358ce634c,001,2022-04-28_21h06.03.636,classification_task,2021.2.3,Linux x86_64,30.0120048,612088c6aac9e0d358ce634c,626b377229c10585ec392f89,626b39b9674052d874d36961,,,,,,,,,,,,,,,,,,,,,,,l,1,0.949,"[""0.084"",""0.222"",""0.744"",""0.700""]","[1,1,0,1]",0,19,19,19,1,1,1,,,1,FALSE,,,,,,,,,,,,,,,,,,,,,,,,,,,,,,
,612088c6aac9e0d358ce634c,001,2022-04-28_21h06.03.636,classification_task,2021.2.3,Linux x86_64,30.0120048,612088c6aac9e0d358ce634c,626b377229c10585ec392f89,626b39b9674052d874d36961,,,,,,,,,,,,,,,,,,,,,,,l,0,1.507,"[""0.179"",""0.371"",""0.458"",""0.954""]","[1,1,0,1]",0,20,20,20,1,0,0,,,1,FALSE,,,,,,,,,,,,,,,,,,,,,,,,,,,,,,
,612088c6aac9e0d358ce634c,001,2022-04-28_21h06.03.636,classification_task,2021.2.3,Linux x86_64,30.0120048,612088c6aac9e0d358ce634c,626b377229c10585ec392f89,626b39b9674052d874d36961,,,,,,,,,,,,,,,,,,,,,,,a,1,0.746,"[""0.325"",""0.411"",""0.473"",""0.879""]","[1,1,0,1]",0,21,21,21,1,0,1,,,1,FALSE,,,,,,,,,,,,,,,,,,,,,,,,,,,,,,
,612088c6aac9e0d358ce634c,001,2022-04-28_21h06.03.636,classification_task,2021.2.3,Linux x86_64,30.0120048,612088c6aac9e0d358ce634c,626b377229c10585ec392f89,626b39b9674052d874d36961,,,,,,,,,,,,,,,,,,,,,,,l,0,1.311,"[""0.179"",""0.371"",""0.913"",""0.643""]","[1,1,1,0]",0,22,22,22,1,0,0,,,1,FALSE,,,,,,,,,,,,,,,,,,,,,,,,,,,,,,
,612088c6aac9e0d358ce634c,001,2022-04-28_21h06.03.636,classification_task,2021.2.3,Linux x86_64,30.0120048,612088c6aac9e0d358ce634c,626b377229c10585ec392f89,626b39b9674052d874d36961,,,,,,,,,,,,,,,,,,,,,,,a,0,1.681,"[""0.120"",""0.473"",""0.510"",""0.787""]","[1,0,1,1]",0,23,23,23,1,1,0,,,1,FALSE,,,,,,,,,,,,,,,,,,,,,,,,,,,,,,
,612088c6aac9e0d358ce634c,001,2022-04-28_21h06.03.636,classification_task,2021.2.3,Linux x86_64,30.0120048,612088c6aac9e0d358ce634c,626b377229c10585ec392f89,626b39b9674052d874d36961,,,,,,,,,,,,,,,,,,,,,,,l,1,1.031,"[""0.643"",""0.222"",""0.581"",""0.700""]","[0,1,1,1]",0,24,24,24,1,1,1,,,1,FALSE,,,,,,,,,,,,,,,,,,,,,,,,,,,,,,
,612088c6aac9e0d358ce634c,001,2022-04-28_21h06.03.636,classification_task,2021.2.3,Linux x86_64,30.0120048,612088c6aac9e0d358ce634c,626b377229c10585ec392f89,626b39b9674052d874d36961,,,,,,,,,,,,,,,,,,,,,,,a,0,0.741,"[""0.743"",""0.285"",""0.510"",""0.787""]","[0,1,1,1]",0,25,25,25,1,1,0,,,1,FALSE,,,,,,,,,,,,,,,,,,,,,,,,,,,,,,
,612088c6aac9e0d358ce634c,001,2022-04-28_21h06.03.636,classification_task,2021.2.3,Linux x86_64,30.0120048,612088c6aac9e0d358ce634c,626b377229c10585ec392f89,626b39b9674052d874d36961,,,,,,,,,,,,,,,,,,,,,,,a,1,0.875,"[""0.643"",""0.411"",""0.845"",""0.879""]","[0,1,1,1]",0,26,26,26,1,0,1,,,1,FALSE,,,,,,,,,,,,,,,,,,,,,,,,,,,,,,
,612088c6aac9e0d358ce634c,001,2022-04-28_21h06.03.636,classification_task,2021.2.3,Linux x86_64,30.0120048,612088c6aac9e0d358ce634c,626b377229c10585ec392f89,626b39b9674052d874d36961,,,,,,,,,,,,,,,,,,,,,,,a,0,0.744,"[""0.120"",""0.285"",""0.049"",""0.787""]","[1,1,0,1]",0,27,27,27,1,1,0,,,1,FALSE,,,,,,,,,,,,,,,,,,,,,,,,,,,,,,
,612088c6aac9e0d358ce634c,001,2022-04-28_21h06.03.636,classification_task,2021.2.3,Linux x86_64,30.0120048,612088c6aac9e0d358ce634c,626b377229c10585ec392f89,626b39b9674052d874d36961,,,,,,,,,,,,,,,,,,,,,,,a,1,1.732,"[""0.179"",""0.465"",""0.913"",""0.954""]","[1,0,1,1]",0,28,28,28,1,0,0,,,1,FALSE,,,,,,,,,,,,,,,,,,,,,,,,,,,,,,
,612088c6aac9e0d358ce634c,001,2022-04-28_21h06.03.636,classification_task,2021.2.3,Linux x86_64,30.0120048,612088c6aac9e0d358ce634c,626b377229c10585ec392f89,626b39b9674052d874d36961,,,,,,,,,,,,,,,,,,,,,,,l,1,0.926,"[""0.084"",""0.222"",""0.581"",""0.049""]","[1,1,1,0]",0,29,29,29,1,1,1,,,1,FALSE,,,,,,,,,,,,,,,,,,,,,,,,,,,,,,
,612088c6aac9e0d358ce634c,001,2022-04-28_21h06.03.636,classification_task,2021.2.3,Linux x86_64,30.0120048,612088c6aac9e0d358ce634c,626b377229c10585ec392f89,626b39b9674052d874d36961,,,,,,,,,,,,,,,,,,,,,,,l,1,1.04,"[""0.084"",""0.659"",""0.581"",""0.700""]","[1,0,1,1]",0,30,30,30,1,1,1,,,1,FALSE,,,,,,,,,,,,,,,,,,,,,,,,,,,,,,
,612088c6aac9e0d358ce634c,001,2022-04-28_21h06.03.636,classification_task,2021.2.3,Linux x86_64,30.0120048,612088c6aac9e0d358ce634c,626b377229c10585ec392f89,626b39b9674052d874d36961,,,,,,,,,,,,,,,,,,,,,,,l,1,1.953,"[""0.120"",""0.285"",""0.510"",""0.473""]","[1,1,1,0]",0,31,31,31,1,1,0,,,1,FALSE,,,,,,,,,,,,,,,,,,,,,,,,,,,,,,
,612088c6aac9e0d358ce634c,001,2022-04-28_21h06.03.636,classification_task,2021.2.3,Linux x86_64,30.0120048,612088c6aac9e0d358ce634c,626b377229c10585ec392f89,626b39b9674052d874d36961,,,,,,,,,,,,,,,,,,,,,,,a,1,1.145,"[""0.325"",""0.411"",""0.637"",""0.879""]","[1,1,0,1]",0,32,32,32,1,0,1,,,1,FALSE,,,,,,,,,,,,,,,,,,,,,,,,,,,,,,
,612088c6aac9e0d358ce634c,001,2022-04-28_21h06.03.636,classification_task,2021.2.3,Linux x86_64,30.0120048,612088c6aac9e0d358ce634c,626b377229c10585ec392f89,626b39b9674052d874d36961,,,,,,,,,,,,,,,,,,,,,,,a,1,1.514,"[""0.179"",""0.371"",""0.744"",""0.954""]","[1,1,0,1]",0,33,33,33,1,0,0,,,1,FALSE,,,,,,,,,,,,,,,,,,,,,,,,,,,,,,
,612088c6aac9e0d358ce634c,001,2022-04-28_21h06.03.636,classification_task,2021.2.3,Linux x86_64,30.0120048,612088c6aac9e0d358ce634c,626b377229c10585ec392f89,626b39b9674052d874d36961,,,,,,,,,,,,,,,,,,,,,,,a,1,0.994,"[""0.751"",""0.411"",""0.845"",""0.879""]","[0,1,1,1]",0,34,34,34,1,0,1,,,1,FALSE,,,,,,,,,,,,,,,,,,,,,,,,,,,,,,
,612088c6aac9e0d358ce634c,001,2022-04-28_21h06.03.636,classification_task,2021.2.3,Linux x86_64,30.0120048,612088c6aac9e0d358ce634c,626b377229c10585ec392f89,626b39b9674052d874d36961,,,,,,,,,,,,,,,,,,,,,,,a,1,1.089,"[""0.325"",""0.411"",""0.845"",""0.637""]","[1,1,1,0]",0,35,35,35,1,0,1,,,1,FALSE,,,,,,,,,,,,,,,,,,,,,,,,,,,,,,
,612088c6aac9e0d358ce634c,001,2022-04-28_21h06.03.636,classification_task,2021.2.3,Linux x86_64,30.0120048,612088c6aac9e0d358ce634c,626b377229c10585ec392f89,626b39b9674052d874d36961,,,,,,,,,,,,,,,,,,,,,,,l,1,1.185,"[""0.084"",""0.222"",""0.646"",""0.700""]","[1,1,0,1]",0,36,36,36,1,1,1,,,1,FALSE,,,,,,,,,,,,,,,,,,,,,,,,,,,,,,
,612088c6aac9e0d358ce634c,001,2022-04-28_21h06.03.636,classification_task,2021.2.3,Linux x86_64,30.0120048,612088c6aac9e0d358ce634c,626b377229c10585ec392f89,626b39b9674052d874d36961,,,,,,,,,,,,,,,,,,,,,,,a,1,1.453,"[""0.179"",""0.643"",""0.913"",""0.954""]","[1,0,1,1]",0,37,37,37,1,0,0,,,1,FALSE,,,,,,,,,,,,,,,,,,,,,,,,,,,,,,
,612088c6aac9e0d358ce634c,001,2022-04-28_21h06.03.636,classification_task,2021.2.3,Linux x86_64,30.0120048,612088c6aac9e0d358ce634c,626b377229c10585ec392f89,626b39b9674052d874d36961,,,,,,,,,,,,,,,,,,,,,,,a,1,1.02,"[""0.039"",""0.371"",""0.913"",""0.954""]","[0,1,1,1]",0,38,38,38,1,0,0,,,1,FALSE,,,,,,,,,,,,,,,,,,,,,,,,,,,,,,
,612088c6aac9e0d358ce634c,001,2022-04-28_21h06.03.636,classification_task,2021.2.3,Linux x86_64,30.0120048,612088c6aac9e0d358ce634c,626b377229c10585ec392f89,626b39b9674052d874d36961,,,,,,,,,,,,,,,,,,,,,,,l,0,1.437,"[""0.179"",""0.371"",""0.913"",""0.032""]","[1,1,1,0]",0,39,39,39,1,0,0,,,1,FALSE,,,,,,,,,,,,,,,,,,,,,,,,,,,,,,
,612088c6aac9e0d358ce634c,001,2022-04-28_21h06.03.636,classification_task,2021.2.3,Linux x86_64,30.0120048,612088c6aac9e0d358ce634c,626b377229c10585ec392f89,626b39b9674052d874d36961,,,,,,,,,,,,,,,,,,,,,,,l,1,0.976,"[""0.120"",""0.285"",""0.643"",""0.787""]","[1,1,0,1]",0,40,40,40,1,1,0,,,1,FALSE,,,,,,,,,,,,,,,,,,,,,,,,,,,,,,
,612088c6aac9e0d358ce634c,001,2022-04-28_21h06.03.636,classification_task,2021.2.3,Linux x86_64,30.0120048,612088c6aac9e0d358ce634c,626b377229c10585ec392f89,626b39b9674052d874d36961,,,,,,,,,,,,,,,,,,,,,,,a,1,1.181,"[""0.325"",""0.743"",""0.845"",""0.879""]","[1,0,1,1]",0,41,41,41,1,0,1,,,1,FALSE,,,,,,,,,,,,,,,,,,,,,,,,,,,,,,
,612088c6aac9e0d358ce634c,001,2022-04-28_21h06.03.636,classification_task,2021.2.3,Linux x86_64,30.0120048,612088c6aac9e0d358ce634c,626b377229c10585ec392f89,626b39b9674052d874d36961,,,,,,,,,,,,,,,,,,,,,,,l,1,1.346,"[""0.473"",""0.285"",""0.510"",""0.787""]","[0,1,1,1]",0,42,42,42,1,1,0,,,1,FALSE,,,,,,,,,,,,,,,,,,,,,,,,,,,,,,
,612088c6aac9e0d358ce634c,001,2022-04-28_21h06.03.636,classification_task,2021.2.3,Linux x86_64,30.0120048,612088c6aac9e0d358ce634c,626b377229c10585ec392f89,626b39b9674052d874d36961,,,,,,,,,,,,,,,,,,,,,,,a,0,1.329,"[""0.120"",""0.285"",""0.510"",""0.637""]","[1,1,1,0]",0,43,43,43,1,1,0,,,1,FALSE,,,,,,,,,,,,,,,,,,,,,,,,,,,,,,
,612088c6aac9e0d358ce634c,001,2022-04-28_21h06.03.636,classification_task,2021.2.3,Linux x86_64,30.0120048,612088c6aac9e0d358ce634c,626b377229c10585ec392f89,626b39b9674052d874d36961,,,,,,,,,,,,,,,,,,,,,,,l,1,0.765,"[""0.743"",""0.222"",""0.581"",""0.700""]","[0,1,1,1]",0,44,44,44,1,1,1,,,1,FALSE,,,,,,,,,,,,,,,,,,,,,,,,,,,,,,
,612088c6aac9e0d358ce634c,001,2022-04-28_21h06.03.636,classification_task,2021.2.3,Linux x86_64,30.0120048,612088c6aac9e0d358ce634c,626b377229c10585ec392f89,626b39b9674052d874d36961,,,,,,,,,,,,,,,,,,,,,,,l,1,0.92,"[""0.084"",""0.222"",""0.581"",""0.468""]","[1,1,1,0]",0,45,45,45,1,1,1,,,1,FALSE,,,,,,,,,,,,,,,,,,,,,,,,,,,,,,
,612088c6aac9e0d358ce634c,001,2022-04-28_21h06.03.636,classification_task,2021.2.3,Linux x86_64,30.0120048,612088c6aac9e0d358ce634c,626b377229c10585ec392f89,626b39b9674052d874d36961,,,,,,,,,,,,,,,,,,,,,,,l,1,0.844,"[""0.084"",""0.637"",""0.581"",""0.700""]","[1,0,1,1]",0,46,46,46,1,1,1,,,1,FALSE,,,,,,,,,,,,,,,,,,,,,,,,,,,,,,
,612088c6aac9e0d358ce634c,001,2022-04-28_21h06.03.636,classification_task,2021.2.3,Linux x86_64,30.0120048,612088c6aac9e0d358ce634c,626b377229c10585ec392f89,626b39b9674052d874d36961,,,,,,,,,,,,,,,,,,,,,,,l,1,0.971,"[""0.120"",""0.643"",""0.510"",""0.787""]","[1,0,1,1]",0,47,47,47,1,1,0,,,1,FALSE,,,,,,,,,,,,,,,,,,,,,,,,,,,,,,
,612088c6aac9e0d358ce634c,001,2022-04-28_21h06.03.636,classification_task,2021.2.3,Linux x86_64,30.0120048,612088c6aac9e0d358ce634c,626b377229c10585ec392f89,626b39b9674052d874d36961,,,,,,,,,,,,,,,,,,,,,,,a,1,1.102,"[""0.179"",""0.473"",""0.913"",""0.954""]","[1,0,1,1]",0,48,48,48,1,0,0,,,1,FALSE,,,,,,,,,,,,,,,,,,,,,,,,,,,,,,
,612088c6aac9e0d358ce634c,001,2022-04-28_21h06.03.636,classification_task,2021.2.3,Linux x86_64,30.0120048,612088c6aac9e0d358ce634c,626b377229c10585ec392f89,626b39b9674052d874d36961,,,,,,,,,,,,,,,,,,,,,,,l,0,1.019,"[""0.179"",""0.371"",""0.913"",""0.643""]","[1,1,1,0]",0,49,49,49,1,0,0,,,1,FALSE,,,,,,,,,,,,,,,,,,,,,,,,,,,,,,
,612088c6aac9e0d358ce634c,001,2022-04-28_21h06.03.636,classification_task,2021.2.3,Linux x86_64,30.0120048,612088c6aac9e0d358ce634c,626b377229c10585ec392f89,626b39b9674052d874d36961,,,,,,,,,,,,,,,,,,,,,,,l,0,1.043,"[""0.179"",""0.371"",""0.751"",""0.954""]","[1,1,0,1]",0,50,50,50,1,0,0,,,1,FALSE,,,,,,,,,,,,,,,,,,,,,,,,,,,,,,
,612088c6aac9e0d358ce634c,001,2022-04-28_21h06.03.636,classification_task,2021.2.3,Linux x86_64,30.0120048,612088c6aac9e0d358ce634c,626b377229c10585ec392f89,626b39b9674052d874d36961,,,,,,,,,,,,,,,,,,,,,,,l,1,3.691,"[""0.084"",""0.222"",""0.581"",""0.465""]","[1,1,1,0]",0,51,51,51,1,1,1,,,1,FALSE,,,,,,,,,,,,,,,,,,,,,,,,,,,,,,
,612088c6aac9e0d358ce634c,001,2022-04-28_21h06.03.636,classification_task,2021.2.3,Linux x86_64,30.0120048,612088c6aac9e0d358ce634c,626b377229c10585ec392f89,626b39b9674052d874d36961,,,,,,,,,,,,,,,,,,,,,,,a,1,0.952,"[""0.325"",""0.411"",""0.659"",""0.879""]","[1,1,0,1]",0,52,52,52,1,0,1,,,1,FALSE,,,,,,,,,,,,,,,,,,,,,,,,,,,,,,
,612088c6aac9e0d358ce634c,001,2022-04-28_21h06.03.636,classification_task,2021.2.3,Linux x86_64,30.0120048,612088c6aac9e0d358ce634c,626b377229c10585ec392f89,626b39b9674052d874d36961,,,,,,,,,,,,,,,,,,,,,,,l,0,0.943,"[""0.325"",""0.411"",""0.845"",""0.032""]","[1,1,1,0]",0,53,53,53,1,0,1,,,1,FALSE,,,,,,,,,,,,,,,,,,,,,,,,,,,,,,
,612088c6aac9e0d358ce634c,001,2022-04-28_21h06.03.636,classification_task,2021.2.3,Linux x86_64,30.0120048,612088c6aac9e0d358ce634c,626b377229c10585ec392f89,626b39b9674052d874d36961,,,,,,,,,,,,,,,,,,,,,,,l,0,0.698,"[""0.325"",""0.643"",""0.845"",""0.879""]","[1,0,1,1]",0,54,54,54,1,0,1,,,1,FALSE,,,,,,,,,,,,,,,,,,,,,,,,,,,,,,
,612088c6aac9e0d358ce634c,001,2022-04-28_21h06.03.636,classification_task,2021.2.3,Linux x86_64,30.0120048,612088c6aac9e0d358ce634c,626b377229c10585ec392f89,626b39b9674052d874d36961,,,,,,,,,,,,,,,,,,,,,,,a,0,0.636,"[""0.084"",""0.222"",""0.545"",""0.700""]","[1,1,0,1]",0,55,55,55,1,1,1,,,1,FALSE,,,,,,,,,,,,,,,,,,,,,,,,,,,,,,
,612088c6aac9e0d358ce634c,001,2022-04-28_21h06.03.636,classification_task,2021.2.3,Linux x86_64,30.0120048,612088c6aac9e0d358ce634c,626b377229c10585ec392f89,626b39b9674052d874d36961,,,,,,,,,,,,,,,,,,,,,,,a,0,0.61,"[""0.084"",""0.643"",""0.581"",""0.700""]","[1,0,1,1]",0,56,56,56,1,1,1,,,1,FALSE,,,,,,,,,,,,,,,,,,,,,,,,,,,,,,
,612088c6aac9e0d358ce634c,001,2022-04-28_21h06.03.636,classification_task,2021.2.3,Linux x86_64,30.0120048,612088c6aac9e0d358ce634c,626b377229c10585ec392f89,626b39b9674052d874d36961,,,,,,,,,,,,,,,,,,,,,,,a,0,0.283,"[""0.120"",""0.473"",""0.510"",""0.787""]","[1,0,1,1]",0,57,57,57,1,1,0,,,1,FALSE,,,,,,,,,,,,,,,,,,,,,,,,,,,,,,
,612088c6aac9e0d358ce634c,001,2022-04-28_21h06.03.636,classification_task,2021.2.3,Linux x86_64,30.0120048,612088c6aac9e0d358ce634c,626b377229c10585ec392f89,626b39b9674052d874d36961,,,,,,,,,,,,,,,,,,,,,,,l,1,0.117,"[""0.646"",""0.222"",""0.581"",""0.700""]","[0,1,1,1]",0,58,58,58,1,1,1,,,1,FALSE,,,,,,,,,,,,,,,,,,,,,,,,,,,,,,
,612088c6aac9e0d358ce634c,001,2022-04-28_21h06.03.636,classification_task,2021.2.3,Linux x86_64,30.0120048,612088c6aac9e0d358ce634c,626b377229c10585ec392f89,626b39b9674052d874d36961,,,,,,,,,,,,,,,,,,,,,,,l,0,0.555,"[""0.545"",""0.371"",""0.913"",""0.954""]","[0,1,1,1]",0,59,59,59,1,0,0,,,1,FALSE,,,,,,,,,,,,,,,,,,,,,,,,,,,,,,
,612088c6aac9e0d358ce634c,001,2022-04-28_21h06.03.636,classification_task,2021.2.3,Linux x86_64,30.0120048,612088c6aac9e0d358ce634c,626b377229c10585ec392f89,626b39b9674052d874d36961,,,,,,,,,,,,,,,,,,,,,,,a,0,0.885,"[""0.120"",""0.285"",""0.510"",""0.646""]","[1,1,1,0]",0,60,60,60,1,1,0,,,1,FALSE,,,,,,,,,,,,,,,,,,,,,,,,,,,,,,
,612088c6aac9e0d358ce634c,001,2022-04-28_21h06.03.636,classification_task,2021.2.3,Linux x86_64,30.0120048,612088c6aac9e0d358ce634c,626b377229c10585ec392f89,626b39b9674052d874d36961,,,,,,,,,,,,,,,,,,,,,,,a,0,0.481,"[""0.120"",""0.285"",""0.743"",""0.787""]","[1,1,0,1]",0,61,61,61,1,1,0,,,1,FALSE,,,,,,,,,,,,,,,,,,,,,,,,,,,,,,
,612088c6aac9e0d358ce634c,001,2022-04-28_21h06.03.636,classification_task,2021.2.3,Linux x86_64,30.0120048,612088c6aac9e0d358ce634c,626b377229c10585ec392f89,626b39b9674052d874d36961,,,,,,,,,,,,,,,,,,,,,,,a,1,0.271,"[""0.458"",""0.411"",""0.845"",""0.879""]","[0,1,1,1]",0,62,62,62,1,0,1,,,1,FALSE,,,,,,,,,,,,,,,,,,,,,,,,,,,,,,
,612088c6aac9e0d358ce634c,001,2022-04-28_21h06.03.636,classification_task,2021.2.3,Linux x86_64,30.0120048,612088c6aac9e0d358ce634c,626b377229c10585ec392f89,626b39b9674052d874d36961,,,,,,,,,,,,,,,,,,,,,,,l,1,0.455,"[""0.458"",""0.285"",""0.510"",""0.787""]","[0,1,1,1]",0,63,63,63,1,1,0,,,1,FALSE,,,,,,,,,,,,,,,,,,,,,,,,,,,,,,
,612088c6aac9e0d358ce634c,001,2022-04-28_21h06.03.636,classification_task,2021.2.3,Linux x86_64,30.0120048,612088c6aac9e0d358ce634c,626b377229c10585ec392f89,626b39b9674052d874d36961,,,,,,,,,,,,,,,,,,,,,,,,,,,,,,,,,,,,,,,0, ,,0,1.555335097,243.658,0,1,1,1,1,2,2,,,,,,,,,,,,,,,,,
,612088c6aac9e0d358ce634c,001,2022-04-28_21h06.03.636,classification_task,2021.2.3,Linux x86_64,30.0120048,612088c6aac9e0d358ce634c,626b377229c10585ec392f89,626b39b9674052d874d36961,,,,,,,,,,,,,,,,,,,,,,,,,,,,,,,,,,,,,,,1,  ,,0,2.51984127,239.14,0,1,1,1,1,2,2,,,,,,,,,,,,,,,,,
,612088c6aac9e0d358ce634c,001,2022-04-28_21h06.03.636,classification_task,2021.2.3,Linux x86_64,30.0120048,612088c6aac9e0d358ce634c,626b377229c10585ec392f89,626b39b9674052d874d36961,,,,,,,,,,,,,,,,,,,,,,,,,,,,,,,,,,,,,,,2,  ,,0,7.927965168,238.048,0,1,1,1,1,2,2,,,,,,,,,,,,,,,,,
,612088c6aac9e0d358ce634c,001,2022-04-28_21h06.03.636,classification_task,2021.2.3,Linux x86_64,30.0120048,612088c6aac9e0d358ce634c,626b377229c10585ec392f89,626b39b9674052d874d36961,,,,,,,,,,,,,,,,,,,,,,,,,,,,,,,,,,,,,,,,,,,,,0,1,1,1,1,,2,,,,,,,,,,,,,,,,,
,612088c6aac9e0d358ce634c,001,2022-04-28_21h06.03.636,classification_task,2021.2.3,Linux x86_64,30.0120048,612088c6aac9e0d358ce634c,626b377229c10585ec392f89,626b39b9674052d874d36961,,,,,,,,,,,,,,,,,,,,,space,8.775,a,1,1.428,"[""0.325"",""0.411"",""0.845"",""0.744""]","[1,1,1,0]",0,0,0,0,1,0,1,,,1,FALSE,,,,,,,,,,,,,,,,,,,,,,,,,,,,,,
,612088c6aac9e0d358ce634c,001,2022-04-28_21h06.03.636,classification_task,2021.2.3,Linux x86_64,30.0120048,612088c6aac9e0d358ce634c,626b377229c10585ec392f89,626b39b9674052d874d36961,,,,,,,,,,,,,,,,,,,,,,,a,1,0.857,"[""0.325"",""0.411"",""0.744"",""0.879""]","[1,1,0,1]",0,1,1,1,1,0,1,,,1,FALSE,,,,,,,,,,,,,,,,,,,,,,,,,,,,,,
,612088c6aac9e0d358ce634c,001,2022-04-28_21h06.03.636,classification_task,2021.2.3,Linux x86_64,30.0120048,612088c6aac9e0d358ce634c,626b377229c10585ec392f89,626b39b9674052d874d36961,,,,,,,,,,,,,,,,,,,,,,,l,1,0.787,"[""0.084"",""0.222"",""0.032"",""0.700""]","[1,1,0,1]",0,2,2,2,1,1,1,,,1,FALSE,,,,,,,,,,,,,,,,,,,,,,,,,,,,,,
,612088c6aac9e0d358ce634c,001,2022-04-28_21h06.03.636,classification_task,2021.2.3,Linux x86_64,30.0120048,612088c6aac9e0d358ce634c,626b377229c10585ec392f89,626b39b9674052d874d36961,,,,,,,,,,,,,,,,,,,,,,,a,1,1.175,"[""0.179"",""0.371"",""0.652"",""0.954""]","[1,1,0,1]",0,3,3,3,1,0,0,,,1,FALSE,,,,,,,,,,,,,,,,,,,,,,,,,,,,,,
,612088c6aac9e0d358ce634c,001,2022-04-28_21h06.03.636,classification_task,2021.2.3,Linux x86_64,30.0120048,612088c6aac9e0d358ce634c,626b377229c10585ec392f89,626b39b9674052d874d36961,,,,,,,,,,,,,,,,,,,,,,,l,1,0.724,"[""0.084"",""0.458"",""0.581"",""0.700""]","[1,0,1,1]",0,4,4,4,1,1,1,,,1,FALSE,,,,,,,,,,,,,,,,,,,,,,,,,,,,,,
,612088c6aac9e0d358ce634c,001,2022-04-28_21h06.03.636,classification_task,2021.2.3,Linux x86_64,30.0120048,612088c6aac9e0d358ce634c,626b377229c10585ec392f89,626b39b9674052d874d36961,,,,,,,,,,,,,,,,,,,,,,,a,1,1.018,"[""0.643"",""0.411"",""0.845"",""0.879""]","[0,1,1,1]",0,5,5,5,1,0,1,,,1,FALSE,,,,,,,,,,,,,,,,,,,,,,,,,,,,,,
,612088c6aac9e0d358ce634c,001,2022-04-28_21h06.03.636,classification_task,2021.2.3,Linux x86_64,30.0120048,612088c6aac9e0d358ce634c,626b377229c10585ec392f89,626b39b9674052d874d36961,,,,,,,,,,,,,,,,,,,,,,,a,1,1.22,"[""0.179"",""0.371"",""0.913"",""0.646""]","[1,1,1,0]",0,6,6,6,1,0,0,,,1,FALSE,,,,,,,,,,,,,,,,,,,,,,,,,,,,,,
,612088c6aac9e0d358ce634c,001,2022-04-28_21h06.03.636,classification_task,2021.2.3,Linux x86_64,30.0120048,612088c6aac9e0d358ce634c,626b377229c10585ec392f89,626b39b9674052d874d36961,,,,,,,,,,,,,,,,,,,,,,,l,1,0.893,"[""0.120"",""0.659"",""0.510"",""0.787""]","[1,0,1,1]",0,7,7,7,1,1,0,,,1,FALSE,,,,,,,,,,,,,,,,,,,,,,,,,,,,,,
,612088c6aac9e0d358ce634c,001,2022-04-28_21h06.03.636,classification_task,2021.2.3,Linux x86_64,30.0120048,612088c6aac9e0d358ce634c,626b377229c10585ec392f89,626b39b9674052d874d36961,,,,,,,,,,,,,,,,,,,,,,,a,1,0.905,"[""0.179"",""0.545"",""0.913"",""0.954""]","[1,0,1,1]",0,8,8,8,1,0,0,,,1,FALSE,,,,,,,,,,,,,,,,,,,,,,,,,,,,,,
,612088c6aac9e0d358ce634c,001,2022-04-28_21h06.03.636,classification_task,2021.2.3,Linux x86_64,30.0120048,612088c6aac9e0d358ce634c,626b377229c10585ec392f89,626b39b9674052d874d36961,,,,,,,,,,,,,,,,,,,,,,,l,1,1.327,"[""0.646"",""0.222"",""0.581"",""0.700""]","[0,1,1,1]",0,9,9,9,1,1,1,,,1,FALSE,,,,,,,,,,,,,,,,,,,,,,,,,,,,,,
,612088c6aac9e0d358ce634c,001,2022-04-28_21h06.03.636,classification_task,2021.2.3,Linux x86_64,30.0120048,612088c6aac9e0d358ce634c,626b377229c10585ec392f89,626b39b9674052d874d36961,,,,,,,,,,,,,,,,,,,,,,,l,1,0.826,"[""0.652"",""0.285"",""0.510"",""0.787""]","[0,1,1,1]",0,10,10,10,1,1,0,,,1,FALSE,,,,,,,,,,,,,,,,,,,,,,,,,,,,,,
,612088c6aac9e0d358ce634c,001,2022-04-28_21h06.03.636,classification_task,2021.2.3,Linux x86_64,30.0120048,612088c6aac9e0d358ce634c,626b377229c10585ec392f89,626b39b9674052d874d36961,,,,,,,,,,,,,,,,,,,,,,,a,1,0.603,"[""0.049"",""0.371"",""0.913"",""0.954""]","[0,1,1,1]",0,11,11,11,1,0,0,,,1,FALSE,,,,,,,,,,,,,,,,,,,,,,,,,,,,,,
,612088c6aac9e0d358ce634c,001,2022-04-28_21h06.03.636,classification_task,2021.2.3,Linux x86_64,30.0120048,612088c6aac9e0d358ce634c,626b377229c10585ec392f89,626b39b9674052d874d36961,,,,,,,,,,,,,,,,,,,,,,,a,1,0.861,"[""0.325"",""0.637"",""0.845"",""0.879""]","[1,0,1,1]",0,12,12,12,1,0,1,,,1,FALSE,,,,,,,,,,,,,,,,,,,,,,,,,,,,,,
,612088c6aac9e0d358ce634c,001,2022-04-28_21h06.03.636,classification_task,2021.2.3,Linux x86_64,30.0120048,612088c6aac9e0d358ce634c,626b377229c10585ec392f89,626b39b9674052d874d36961,,,,,,,,,,,,,,,,,,,,,,,a,0,0.995,"[""0.120"",""0.285"",""0.049"",""0.787""]","[1,1,0,1]",0,13,13,13,1,1,0,,,1,FALSE,,,,,,,,,,,,,,,,,,,,,,,,,,,,,,
,612088c6aac9e0d358ce634c,001,2022-04-28_21h06.03.636,classification_task,2021.2.3,Linux x86_64,30.0120048,612088c6aac9e0d358ce634c,626b377229c10585ec392f89,626b39b9674052d874d36961,,,,,,,,,,,,,,,,,,,,,,,l,1,0.613,"[""0.120"",""0.285"",""0.510"",""0.751""]","[1,1,1,0]",0,14,14,14,1,1,0,,,1,FALSE,,,,,,,,,,,,,,,,,,,,,,,,,,,,,,
,612088c6aac9e0d358ce634c,001,2022-04-28_21h06.03.636,classification_task,2021.2.3,Linux x86_64,30.0120048,612088c6aac9e0d358ce634c,626b377229c10585ec392f89,626b39b9674052d874d36961,,,,,,,,,,,,,,,,,,,,,,,l,1,1.117,"[""0.084"",""0.222"",""0.581"",""0.646""]","[1,1,1,0]",0,15,15,15,1,1,1,,,1,FALSE,,,,,,,,,,,,,,,,,,,,,,,,,,,,,,
,612088c6aac9e0d358ce634c,001,2022-04-28_21h06.03.636,classification_task,2021.2.3,Linux x86_64,30.0120048,612088c6aac9e0d358ce634c,626b377229c10585ec392f89,626b39b9674052d874d36961,,,,,,,,,,,,,,,,,,,,,,,l,1,1.076,"[""0.120"",""0.285"",""0.510"",""0.545""]","[1,1,1,0]",0,16,16,16,1,1,0,,,1,FALSE,,,,,,,,,,,,,,,,,,,,,,,,,,,,,,
,612088c6aac9e0d358ce634c,001,2022-04-28_21h06.03.636,classification_task,2021.2.3,Linux x86_64,30.0120048,612088c6aac9e0d358ce634c,626b377229c10585ec392f89,626b39b9674052d874d36961,,,,,,,,,,,,,,,,,,,,,,,a,1,0.513,"[""0.039"",""0.371"",""0.913"",""0.954""]","[0,1,1,1]",0,17,17,17,1,0,0,,,1,FALSE,,,,,,,,,,,,,,,,,,,,,,,,,,,,,,
,612088c6aac9e0d358ce634c,001,2022-04-28_21h06.03.636,classification_task,2021.2.3,Linux x86_64,30.0120048,612088c6aac9e0d358ce634c,626b377229c10585ec392f89,626b39b9674052d874d36961,,,,,,,,,,,,,,,,,,,,,,,a,1,0.645,"[""0.179"",""0.545"",""0.913"",""0.954""]","[1,0,1,1]",0,18,18,18,1,0,0,,,1,FALSE,,,,,,,,,,,,,,,,,,,,,,,,,,,,,,
,612088c6aac9e0d358ce634c,001,2022-04-28_21h06.03.636,classification_task,2021.2.3,Linux x86_64,30.0120048,612088c6aac9e0d358ce634c,626b377229c10585ec392f89,626b39b9674052d874d36961,,,,,,,,,,,,,,,,,,,,,,,a,1,0.93,"[""0.179"",""0.371"",""0.652"",""0.954""]","[1,1,0,1]",0,19,19,19,1,0,0,,,1,FALSE,,,,,,,,,,,,,,,,,,,,,,,,,,,,,,
,612088c6aac9e0d358ce634c,001,2022-04-28_21h06.03.636,classification_task,2021.2.3,Linux x86_64,30.0120048,612088c6aac9e0d358ce634c,626b377229c10585ec392f89,626b39b9674052d874d36961,,,,,,,,,,,,,,,,,,,,,,,l,1,0.652,"[""0.120"",""0.659"",""0.510"",""0.787""]","[1,0,1,1]",0,20,20,20,1,1,0,,,1,FALSE,,,,,,,,,,,,,,,,,,,,,,,,,,,,,,
,612088c6aac9e0d358ce634c,001,2022-04-28_21h06.03.636,classification_task,2021.2.3,Linux x86_64,30.0120048,612088c6aac9e0d358ce634c,626b377229c10585ec392f89,626b39b9674052d874d36961,,,,,,,,,,,,,,,,,,,,,,,a,1,0.655,"[""0.179"",""0.371"",""0.913"",""0.032""]","[1,1,1,0]",0,21,21,21,1,0,0,,,1,FALSE,,,,,,,,,,,,,,,,,,,,,,,,,,,,,,
,612088c6aac9e0d358ce634c,001,2022-04-28_21h06.03.636,classification_task,2021.2.3,Linux x86_64,30.0120048,612088c6aac9e0d358ce634c,626b377229c10585ec392f89,626b39b9674052d874d36961,,,,,,,,,,,,,,,,,,,,,,,a,1,0.988,"[""0.325"",""0.411"",""0.845"",""0.545""]","[1,1,1,0]",0,22,22,22,1,0,1,,,1,FALSE,,,,,,,,,,,,,,,,,,,,,,,,,,,,,,
,612088c6aac9e0d358ce634c,001,2022-04-28_21h06.03.636,classification_task,2021.2.3,Linux x86_64,30.0120048,612088c6aac9e0d358ce634c,626b377229c10585ec392f89,626b39b9674052d874d36961,,,,,,,,,,,,,,,,,,,,,,,l,1,0.698,"[""0.084"",""0.743"",""0.581"",""0.700""]","[1,0,1,1]",0,23,23,23,1,1,1,,,1,FALSE,,,,,,,,,,,,,,,,,,,,,,,,,,,,,,
,612088c6aac9e0d358ce634c,001,2022-04-28_21h06.03.636,classification_task,2021.2.3,Linux x86_64,30.0120048,612088c6aac9e0d358ce634c,626b377229c10585ec392f89,626b39b9674052d874d36961,,,,,,,,,,,,,,,,,,,,,,,a,1,0.929,"[""0.325"",""0.458"",""0.845"",""0.879""]","[1,0,1,1]",0,24,24,24,1,0,1,,,1,FALSE,,,,,,,,,,,,,,,,,,,,,,,,,,,,,,
,612088c6aac9e0d358ce634c,001,2022-04-28_21h06.03.636,classification_task,2021.2.3,Linux x86_64,30.0120048,612088c6aac9e0d358ce634c,626b377229c10585ec392f89,626b39b9674052d874d36961,,,,,,,,,,,,,,,,,,,,,,,l,1,0.688,"[""0.473"",""0.222"",""0.581"",""0.700""]","[0,1,1,1]",0,25,25,25,1,1,1,,,1,FALSE,,,,,,,,,,,,,,,,,,,,,,,,,,,,,,
,612088c6aac9e0d358ce634c,001,2022-04-28_21h06.03.636,classification_task,2021.2.3,Linux x86_64,30.0120048,612088c6aac9e0d358ce634c,626b377229c10585ec392f89,626b39b9674052d874d36961,,,,,,,,,,,,,,,,,,,,,,,a,0,0.982,"[""0.084"",""0.222"",""0.643"",""0.700""]","[1,1,0,1]",0,26,26,26,1,1,1,,,1,FALSE,,,,,,,,,,,,,,,,,,,,,,,,,,,,,,
,612088c6aac9e0d358ce634c,001,2022-04-28_21h06.03.636,classification_task,2021.2.3,Linux x86_64,30.0120048,612088c6aac9e0d358ce634c,626b377229c10585ec392f89,626b39b9674052d874d36961,,,,,,,,,,,,,,,,,,,,,,,l,1,1.387,"[""0.545"",""0.285"",""0.510"",""0.787""]","[0,1,1,1]",0,27,27,27,1,1,0,,,1,FALSE,,,,,,,,,,,,,,,,,,,,,,,,,,,,,,
,612088c6aac9e0d358ce634c,001,2022-04-28_21h06.03.636,classification_task,2021.2.3,Linux x86_64,30.0120048,612088c6aac9e0d358ce634c,626b377229c10585ec392f89,626b39b9674052d874d36961,,,,,,,,,,,,,,,,,,,,,,,l,0,1.401,"[""0.325"",""0.411"",""0.458"",""0.879""]","[1,1,0,1]",0,28,28,28,1,0,1,,,1,FALSE,,,,,,,,,,,,,,,,,,,,,,,,,,,,,,
,612088c6aac9e0d358ce634c,001,2022-04-28_21h06.03.636,classification_task,2021.2.3,Linux x86_64,30.0120048,612088c6aac9e0d358ce634c,626b377229c10585ec392f89,626b39b9674052d874d36961,,,,,,,,,,,,,,,,,,,,,,,l,1,0.753,"[""0.120"",""0.285"",""0.545"",""0.787""]","[1,1,0,1]",0,29,29,29,1,1,0,,,1,FALSE,,,,,,,,,,,,,,,,,,,,,,,,,,,,,,
,612088c6aac9e0d358ce634c,001,2022-04-28_21h06.03.636,classification_task,2021.2.3,Linux x86_64,30.0120048,612088c6aac9e0d358ce634c,626b377229c10585ec392f89,626b39b9674052d874d36961,,,,,,,,,,,,,,,,,,,,,,,l,1,0.819,"[""0.084"",""0.222"",""0.581"",""0.545""]","[1,1,1,0]",0,30,30,30,1,1,1,,,1,FALSE,,,,,,,,,,,,,,,,,,,,,,,,,,,,,,
,612088c6aac9e0d358ce634c,001,2022-04-28_21h06.03.636,classification_task,2021.2.3,Linux x86_64,30.0120048,612088c6aac9e0d358ce634c,626b377229c10585ec392f89,626b39b9674052d874d36961,,,,,,,,,,,,,,,,,,,,,,,a,1,0.52,"[""0.659"",""0.411"",""0.845"",""0.879""]","[0,1,1,1]",0,31,31,31,1,0,1,,,1,FALSE,,,,,,,,,,,,,,,,,,,,,,,,,,,,,,
,612088c6aac9e0d358ce634c,001,2022-04-28_21h06.03.636,classification_task,2021.2.3,Linux x86_64,30.0120048,612088c6aac9e0d358ce634c,626b377229c10585ec392f89,626b39b9674052d874d36961,,,,,,,,,,,,,,,,,,,,,,,l,1,0.842,"[""0.084"",""0.222"",""0.545"",""0.700""]","[1,1,0,1]",0,32,32,32,1,1,1,,,1,FALSE,,,,,,,,,,,,,,,,,,,,,,,,,,,,,,
,612088c6aac9e0d358ce634c,001,2022-04-28_21h06.03.636,classification_task,2021.2.3,Linux x86_64,30.0120048,612088c6aac9e0d358ce634c,626b377229c10585ec392f89,626b39b9674052d874d36961,,,,,,,,,,,,,,,,,,,,,,,l,1,0.682,"[""0.084"",""0.032"",""0.581"",""0.700""]","[1,0,1,1]",0,33,33,33,1,1,1,,,1,FALSE,,,,,,,,,,,,,,,,,,,,,,,,,,,,,,
,612088c6aac9e0d358ce634c,001,2022-04-28_21h06.03.636,classification_task,2021.2.3,Linux x86_64,30.0120048,612088c6aac9e0d358ce634c,626b377229c10585ec392f89,626b39b9674052d874d36961,,,,,,,,,,,,,,,,,,,,,,,l,1,0.931,"[""0.120"",""0.039"",""0.510"",""0.787""]","[1,0,1,1]",0,34,34,34,1,1,0,,,1,FALSE,,,,,,,,,,,,,,,,,,,,,,,,,,,,,,
,612088c6aac9e0d358ce634c,001,2022-04-28_21h06.03.636,classification_task,2021.2.3,Linux x86_64,30.0120048,612088c6aac9e0d358ce634c,626b377229c10585ec392f89,626b39b9674052d874d36961,,,,,,,,,,,,,,,,,,,,,,,a,1,0.651,"[""0.744"",""0.371"",""0.913"",""0.954""]","[0,1,1,1]",0,35,35,35,1,0,0,,,1,FALSE,,,,,,,,,,,,,,,,,,,,,,,,,,,,,,
,612088c6aac9e0d358ce634c,001,2022-04-28_21h06.03.636,classification_task,2021.2.3,Linux x86_64,30.0120048,612088c6aac9e0d358ce634c,626b377229c10585ec392f89,626b39b9674052d874d36961,,,,,,,,,,,,,,,,,,,,,,,l,1,0.933,"[""0.084"",""0.222"",""0.581"",""0.744""]","[1,1,1,0]",0,36,36,36,1,1,1,,,1,FALSE,,,,,,,,,,,,,,,,,,,,,,,,,,,,,,
,612088c6aac9e0d358ce634c,001,2022-04-28_21h06.03.636,classification_task,2021.2.3,Linux x86_64,30.0120048,612088c6aac9e0d358ce634c,626b377229c10585ec392f89,626b39b9674052d874d36961,,,,,,,,,,,,,,,,,,,,,,,a,1,0.64,"[""0.325"",""0.411"",""0.845"",""0.032""]","[1,1,1,0]",0,37,37,37,1,0,1,,,1,FALSE,,,,,,,,,,,,,,,,,,,,,,,,,,,,,,
,612088c6aac9e0d358ce634c,001,2022-04-28_21h06.03.636,classification_task,2021.2.3,Linux x86_64,30.0120048,612088c6aac9e0d358ce634c,626b377229c10585ec392f89,626b39b9674052d874d36961,,,,,,,,,,,,,,,,,,,,,,,a,1,0.887,"[""0.179"",""0.371"",""0.913"",""0.468""]","[1,1,1,0]",0,38,38,38,1,0,0,,,1,FALSE,,,,,,,,,,,,,,,,,,,,,,,,,,,,,,
,612088c6aac9e0d358ce634c,001,2022-04-28_21h06.03.636,classification_task,2021.2.3,Linux x86_64,30.0120048,612088c6aac9e0d358ce634c,626b377229c10585ec392f89,626b39b9674052d874d36961,,,,,,,,,,,,,,,,,,,,,,,l,1,0.953,"[""0.120"",""0.285"",""0.510"",""0.637""]","[1,1,1,0]",0,39,39,39,1,1,0,,,1,FALSE,,,,,,,,,,,,,,,,,,,,,,,,,,,,,,
,612088c6aac9e0d358ce634c,001,2022-04-28_21h06.03.636,classification_task,2021.2.3,Linux x86_64,30.0120048,612088c6aac9e0d358ce634c,626b377229c10585ec392f89,626b39b9674052d874d36961,,,,,,,,,,,,,,,,,,,,,,,a,1,0.842,"[""0.325"",""0.637"",""0.845"",""0.879""]","[1,0,1,1]",0,40,40,40,1,0,1,,,1,FALSE,,,,,,,,,,,,,,,,,,,,,,,,,,,,,,
,612088c6aac9e0d358ce634c,001,2022-04-28_21h06.03.636,classification_task,2021.2.3,Linux x86_64,30.0120048,612088c6aac9e0d358ce634c,626b377229c10585ec392f89,626b39b9674052d874d36961,,,,,,,,,,,,,,,,,,,,,,,l,1,0.738,"[""0.120"",""0.285"",""0.643"",""0.787""]","[1,1,0,1]",0,41,41,41,1,1,0,,,1,FALSE,,,,,,,,,,,,,,,,,,,,,,,,,,,,,,
,612088c6aac9e0d358ce634c,001,2022-04-28_21h06.03.636,classification_task,2021.2.3,Linux x86_64,30.0120048,612088c6aac9e0d358ce634c,626b377229c10585ec392f89,626b39b9674052d874d36961,,,,,,,,,,,,,,,,,,,,,,,l,1,0.757,"[""0.473"",""0.285"",""0.510"",""0.787""]","[0,1,1,1]",0,42,42,42,1,1,0,,,1,FALSE,,,,,,,,,,,,,,,,,,,,,,,,,,,,,,
,612088c6aac9e0d358ce634c,001,2022-04-28_21h06.03.636,classification_task,2021.2.3,Linux x86_64,30.0120048,612088c6aac9e0d358ce634c,626b377229c10585ec392f89,626b39b9674052d874d36961,,,,,,,,,,,,,,,,,,,,,,,a,1,0.905,"[""0.179"",""0.371"",""0.049"",""0.954""]","[1,1,0,1]",0,43,43,43,1,0,0,,,1,FALSE,,,,,,,,,,,,,,,,,,,,,,,,,,,,,,
,612088c6aac9e0d358ce634c,001,2022-04-28_21h06.03.636,classification_task,2021.2.3,Linux x86_64,30.0120048,612088c6aac9e0d358ce634c,626b377229c10585ec392f89,626b39b9674052d874d36961,,,,,,,,,,,,,,,,,,,,,,,l,1,1.675,"[""0.743"",""0.222"",""0.581"",""0.700""]","[0,1,1,1]",0,44,44,44,1,1,1,,,1,FALSE,,,,,,,,,,,,,,,,,,,,,,,,,,,,,,
,612088c6aac9e0d358ce634c,001,2022-04-28_21h06.03.636,classification_task,2021.2.3,Linux x86_64,30.0120048,612088c6aac9e0d358ce634c,626b377229c10585ec392f89,626b39b9674052d874d36961,,,,,,,,,,,,,,,,,,,,,,,a,1,0.499,"[""0.179"",""0.637"",""0.913"",""0.954""]","[1,0,1,1]",0,45,45,45,1,0,0,,,1,FALSE,,,,,,,,,,,,,,,,,,,,,,,,,,,,,,
,612088c6aac9e0d358ce634c,001,2022-04-28_21h06.03.636,classification_task,2021.2.3,Linux x86_64,30.0120048,612088c6aac9e0d358ce634c,626b377229c10585ec392f89,626b39b9674052d874d36961,,,,,,,,,,,,,,,,,,,,,,,a,1,0.869,"[""0.643"",""0.411"",""0.845"",""0.879""]","[0,1,1,1]",0,46,46,46,1,0,1,,,1,FALSE,,,,,,,,,,,,,,,,,,,,,,,,,,,,,,
,612088c6aac9e0d358ce634c,001,2022-04-28_21h06.03.636,classification_task,2021.2.3,Linux x86_64,30.0120048,612088c6aac9e0d358ce634c,626b377229c10585ec392f89,626b39b9674052d874d36961,,,,,,,,,,,,,,,,,,,,,,,l,0,0.783,"[""0.325"",""0.411"",""0.545"",""0.879""]","[1,1,0,1]",0,47,47,47,1,0,1,,,1,FALSE,,,,,,,,,,,,,,,,,,,,,,,,,,,,,,
,612088c6aac9e0d358ce634c,001,2022-04-28_21h06.03.636,classification_task,2021.2.3,Linux x86_64,30.0120048,612088c6aac9e0d358ce634c,626b377229c10585ec392f89,626b39b9674052d874d36961,,,,,,,,,,,,,,,,,,,,,,,a,0,1.15,"[""0.084"",""0.222"",""0.581"",""0.637""]","[1,1,1,0]",0,48,48,48,1,1,1,,,1,FALSE,,,,,,,,,,,,,,,,,,,,,,,,,,,,,,
,612088c6aac9e0d358ce634c,001,2022-04-28_21h06.03.636,classification_task,2021.2.3,Linux x86_64,30.0120048,612088c6aac9e0d358ce634c,626b377229c10585ec392f89,626b39b9674052d874d36961,,,,,,,,,,,,,,,,,,,,,,,l,1,0.788,"[""0.120"",""0.744"",""0.510"",""0.787""]","[1,0,1,1]",0,49,49,49,1,1,0,,,1,FALSE,,,,,,,,,,,,,,,,,,,,,,,,,,,,,,
,612088c6aac9e0d358ce634c,001,2022-04-28_21h06.03.636,classification_task,2021.2.3,Linux x86_64,30.0120048,612088c6aac9e0d358ce634c,626b377229c10585ec392f89,626b39b9674052d874d36961,,,,,,,,,,,,,,,,,,,,,,,a,1,0.527,"[""0.545"",""0.371"",""0.913"",""0.954""]","[0,1,1,1]",0,50,50,50,1,0,0,,,1,FALSE,,,,,,,,,,,,,,,,,,,,,,,,,,,,,,
,612088c6aac9e0d358ce634c,001,2022-04-28_21h06.03.636,classification_task,2021.2.3,Linux x86_64,30.0120048,612088c6aac9e0d358ce634c,626b377229c10585ec392f89,626b39b9674052d874d36961,,,,,,,,,,,,,,,,,,,,,,,a,1,0.827,"[""0.468"",""0.411"",""0.845"",""0.879""]","[0,1,1,1]",0,51,51,51,1,0,1,,,1,FALSE,,,,,,,,,,,,,,,,,,,,,,,,,,,,,,
,612088c6aac9e0d358ce634c,001,2022-04-28_21h06.03.636,classification_task,2021.2.3,Linux x86_64,30.0120048,612088c6aac9e0d358ce634c,626b377229c10585ec392f89,626b39b9674052d874d36961,,,,,,,,,,,,,,,,,,,,,,,l,1,1.545,"[""0.545"",""0.285"",""0.510"",""0.787""]","[0,1,1,1]",0,52,52,52,1,1,0,,,1,FALSE,,,,,,,,,,,,,,,,,,,,,,,,,,,,,,
,612088c6aac9e0d358ce634c,001,2022-04-28_21h06.03.636,classification_task,2021.2.3,Linux x86_64,30.0120048,612088c6aac9e0d358ce634c,626b377229c10585ec392f89,626b39b9674052d874d36961,,,,,,,,,,,,,,,,,,,,,,,a,0,0.964,"[""0.120"",""0.285"",""0.659"",""0.787""]","[1,1,0,1]",0,53,53,53,1,1,0,,,1,FALSE,,,,,,,,,,,,,,,,,,,,,,,,,,,,,,
,612088c6aac9e0d358ce634c,001,2022-04-28_21h06.03.636,classification_task,2021.2.3,Linux x86_64,30.0120048,612088c6aac9e0d358ce634c,626b377229c10585ec392f89,626b39b9674052d874d36961,,,,,,,,,,,,,,,,,,,,,,,a,1,0.939,"[""0.179"",""0.371"",""0.913"",""0.659""]","[1,1,1,0]",0,54,54,54,1,0,0,,,1,FALSE,,,,,,,,,,,,,,,,,,,,,,,,,,,,,,
,612088c6aac9e0d358ce634c,001,2022-04-28_21h06.03.636,classification_task,2021.2.3,Linux x86_64,30.0120048,612088c6aac9e0d358ce634c,626b377229c10585ec392f89,626b39b9674052d874d36961,,,,,,,,,,,,,,,,,,,,,,,l,1,0.738,"[""0.120"",""0.285"",""0.510"",""0.465""]","[1,1,1,0]",0,55,55,55,1,1,0,,,1,FALSE,,,,,,,,,,,,,,,,,,,,,,,,,,,,,,
,612088c6aac9e0d358ce634c,001,2022-04-28_21h06.03.636,classification_task,2021.2.3,Linux x86_64,30.0120048,612088c6aac9e0d358ce634c,626b377229c10585ec392f89,626b39b9674052d874d36961,,,,,,,,,,,,,,,,,,,,,,,l,1,0.876,"[""0.084"",""0.222"",""0.473"",""0.700""]","[1,1,0,1]",0,56,56,56,1,1,1,,,1,FALSE,,,,,,,,,,,,,,,,,,,,,,,,,,,,,,
,612088c6aac9e0d358ce634c,001,2022-04-28_21h06.03.636,classification_task,2021.2.3,Linux x86_64,30.0120048,612088c6aac9e0d358ce634c,626b377229c10585ec392f89,626b39b9674052d874d36961,,,,,,,,,,,,,,,,,,,,,,,l,0,0.961,"[""0.325"",""0.411"",""0.845"",""0.751""]","[1,1,1,0]",0,57,57,57,1,0,1,,,1,FALSE,,,,,,,,,,,,,,,,,,,,,,,,,,,,,,
,612088c6aac9e0d358ce634c,001,2022-04-28_21h06.03.636,classification_task,2021.2.3,Linux x86_64,30.0120048,612088c6aac9e0d358ce634c,626b377229c10585ec392f89,626b39b9674052d874d36961,,,,,,,,,,,,,,,,,,,,,,,l,1,1.937,"[""0.084"",""0.646"",""0.581"",""0.700""]","[1,0,1,1]",0,58,58,58,1,1,1,,,1,FALSE,,,,,,,,,,,,,,,,,,,,,,,,,,,,,,
,612088c6aac9e0d358ce634c,001,2022-04-28_21h06.03.636,classification_task,2021.2.3,Linux x86_64,30.0120048,612088c6aac9e0d358ce634c,626b377229c10585ec392f89,626b39b9674052d874d36961,,,,,,,,,,,,,,,,,,,,,,,a,1,0.567,"[""0.179"",""0.473"",""0.913"",""0.954""]","[1,0,1,1]",0,59,59,59,1,0,0,,,1,FALSE,,,,,,,,,,,,,,,,,,,,,,,,,,,,,,
,612088c6aac9e0d358ce634c,001,2022-04-28_21h06.03.636,classification_task,2021.2.3,Linux x86_64,30.0120048,612088c6aac9e0d358ce634c,626b377229c10585ec392f89,626b39b9674052d874d36961,,,,,,,,,,,,,,,,,,,,,,,l,0,0.911,"[""0.325"",""0.411"",""0.465"",""0.879""]","[1,1,0,1]",0,60,60,60,1,0,1,,,1,FALSE,,,,,,,,,,,,,,,,,,,,,,,,,,,,,,
,612088c6aac9e0d358ce634c,001,2022-04-28_21h06.03.636,classification_task,2021.2.3,Linux x86_64,30.0120048,612088c6aac9e0d358ce634c,626b377229c10585ec392f89,626b39b9674052d874d36961,,,,,,,,,,,,,,,,,,,,,,,a,1,0.652,"[""0.179"",""0.371"",""0.468"",""0.954""]","[1,1,0,1]",0,61,61,61,1,0,0,,,1,FALSE,,,,,,,,,,,,,,,,,,,,,,,,,,,,,,
,612088c6aac9e0d358ce634c,001,2022-04-28_21h06.03.636,classification_task,2021.2.3,Linux x86_64,30.0120048,612088c6aac9e0d358ce634c,626b377229c10585ec392f89,626b39b9674052d874d36961,,,,,,,,,,,,,,,,,,,,,,,a,1,1.703,"[""0.325"",""0.652"",""0.845"",""0.879""]","[1,0,1,1]",0,62,62,62,1,0,1,,,1,FALSE,,,,,,,,,,,,,,,,,,,,,,,,,,,,,,
,612088c6aac9e0d358ce634c,001,2022-04-28_21h06.03.636,classification_task,2021.2.3,Linux x86_64,30.0120048,612088c6aac9e0d358ce634c,626b377229c10585ec392f89,626b39b9674052d874d36961,,,,,,,,,,,,,,,,,,,,,,,l,1,0.646,"[""0.468"",""0.222"",""0.581"",""0.700""]","[0,1,1,1]",0,63,63,63,1,1,1,,,1,FALSE,,,,,,,,,,,,,,,,,,,,,,,,,,,,,,
,612088c6aac9e0d358ce634c,001,2022-04-28_21h06.03.636,classification_task,2021.2.3,Linux x86_64,30.0120048,612088c6aac9e0d358ce634c,626b377229c10585ec392f89,626b39b9674052d874d36961,,,,,,,,,,,,,,,,,,,,,,,,,,,,,,,,,,,,,,,0, ,,0,2.313161376,140.775,0,2,2,2,1,2,3,,,,,,,,,,,,,,,,,
,612088c6aac9e0d358ce634c,001,2022-04-28_21h06.03.636,classification_task,2021.2.3,Linux x86_64,30.0120048,612088c6aac9e0d358ce634c,626b377229c10585ec392f89,626b39b9674052d874d36961,,,,,,,,,,,,,,,,,,,,,,,,,,,,,,,,,,,,,,,1,  ,,0,6.205632716,143.344,0,2,2,2,1,2,3,,,,,,,,,,,,,,,,,
,612088c6aac9e0d358ce634c,001,2022-04-28_21h06.03.636,classification_task,2021.2.3,Linux x86_64,30.0120048,612088c6aac9e0d358ce634c,626b377229c10585ec392f89,626b39b9674052d874d36961,,,,,,,,,,,,,,,,,,,,,,,,,,,,,,,,,,,,,,,2,  ,,0,6.756779101,148.176,0,2,2,2,1,2,3,,,,,,,,,,,,,,,,,
,612088c6aac9e0d358ce634c,001,2022-04-28_21h06.03.636,classification_task,2021.2.3,Linux x86_64,30.0120048,612088c6aac9e0d358ce634c,626b377229c10585ec392f89,626b39b9674052d874d36961,,,,,,,,,,,,,,,,,,,,,,,,,,,,,,,,,,,,,,,,,,,,,0,2,2,2,1,,3,,,,,,,,,,,,,,,,,
,612088c6aac9e0d358ce634c,001,2022-04-28_21h06.03.636,classification_task,2021.2.3,Linux x86_64,30.0120048,612088c6aac9e0d358ce634c,626b377229c10585ec392f89,626b39b9674052d874d36961,,,,,,,,,,,,,,,,,,,,,,,,,,,,,,,,,,,,,,,,,,,,,,,,,,,,,I believe the aid is a competent performer,,0.7,0,4,933.051,0,0,0,0,1,0,,,,
,612088c6aac9e0d358ce634c,001,2022-04-28_21h06.03.636,classification_task,2021.2.3,Linux x86_64,30.0120048,612088c6aac9e0d358ce634c,626b377229c10585ec392f89,626b39b9674052d874d36961,,,,,,,,,,,,,,,,,,,,,,,,,,,,,,,,,,,,,,,,,,,,,,,,,,,,,I trust the aid,,0.7,0,5,936.918,0,0,0,0,1,0,,,,
,612088c6aac9e0d358ce634c,001,2022-04-28_21h06.03.636,classification_task,2021.2.3,Linux x86_64,30.0120048,612088c6aac9e0d358ce634c,626b377229c10585ec392f89,626b39b9674052d874d36961,,,,,,,,,,,,,,,,,,,,,,,,,,,,,,,,,,,,,,,,,,,,,,,,,,,,,I have confidence in the advice given by the aid,,0.7,0,5,940.971,0,0,0,0,1,0,,,,
,612088c6aac9e0d358ce634c,001,2022-04-28_21h06.03.636,classification_task,2021.2.3,Linux x86_64,30.0120048,612088c6aac9e0d358ce634c,626b377229c10585ec392f89,626b39b9674052d874d36961,,,,,,,,,,,,,,,,,,,,,,,,,,,,,,,,,,,,,,,,,,,,,,,,,,,,,I can depend on the aid,,0.7,0,2,952.338,0,0,0,0,1,0,,,,
,612088c6aac9e0d358ce634c,001,2022-04-28_21h06.03.636,classification_task,2021.2.3,Linux x86_64,30.0120048,612088c6aac9e0d358ce634c,626b377229c10585ec392f89,626b39b9674052d874d36961,,,,,,,,,,,,,,,,,,,,,,,,,,,,,,,,,,,,,,,,,,,,,,,,,,,,,I can rely on the aid to behave in consistent ways,,0.7,0,1,947.35,0,0,0,0,1,0,,,,
,612088c6aac9e0d358ce634c,001,2022-04-28_21h06.03.636,classification_task,2021.2.3,Linux x86_64,30.0120048,612088c6aac9e0d358ce634c,626b377229c10585ec392f89,626b39b9674052d874d36961,,,,,,,,,,,,,,,,,,,,,,,,,,,,,,,,,,,,,,,,,,,,,,,,,,,,,I can rely on the aid to do its best every time I take its advice,,0.7,0,4,970.063,0,0,0,0,1,0,,,,
,612088c6aac9e0d358ce634c,001,2022-04-28_21h06.03.636,classification_task,2021.2.3,Linux x86_64,30.0120048,612088c6aac9e0d358ce634c,626b377229c10585ec392f89,626b39b9674052d874d36961,,,,,,,,,,,,,,,,,,,,,,,,,,,,,,,,,,,,,,,,,,,,,,,,,,,,,"On trials you completed with assistance from the aid, how frequently did you think the aid was correct?",,0.7,0,100,,0,0,0,0,1,0,,,,
,612088c6aac9e0d358ce634c,001,2022-04-28_21h06.03.636,classification_task,2021.2.3,Linux x86_64,30.0120048,612088c6aac9e0d358ce634c,626b377229c10585ec392f89,626b39b9674052d874d36961,,,,,,,,,,,,,,,,,,,,,,,,,,,,,,,,,,,,,,,,,,,,,,,,,,,,,"On trials you completed without the aid, how frequently did you think you were correct?",,0.7,0,25,,0,0,0,0,1,0,,,,
,612088c6aac9e0d358ce634c,001,2022-04-28_21h06.03.636,classification_task,2021.2.3,Linux x86_64,30.0120048,612088c6aac9e0d358ce634c,626b377229c10585ec392f89,626b39b9674052d874d36961,,,,,,,,,,,,,,,,,,,,,,,,,,,,,,,,,,,,,,,,,,,,,,,,,,,,,,,,,,,0,0,0,0,1,,,,,
,612088c6aac9e0d358ce634c,001,2022-04-28_21h06.03.636,classification_task,2021.2.3,Linux x86_64,30.0120048,612088c6aac9e0d358ce634c,626b377229c10585ec392f89,626b39b9674052d874d36961,,,,,,,,,,,,,,,,,,,,,,,,,,,,,,,,,,,,,,,,,,,,,,,,,,,,,,,,,,,,,,,,,space,14.337,1002.985,
,612088c6aac9e0d358ce634c,001,2022-04-28_21h06.03.636,classification_task,2021.2.3,Linux x86_64,30.0120048,612088c6aac9e0d358ce634c,626b377229c10585ec392f89,626b39b9674052d874d36961,,,,,,,,,,,,,,,,,,,,,,,,,,,,,,,,,,,,,,,,,,,,,,,,,,,,,,,,,,,,,,,,,,,,Mozilla/5.0 (X11; Ubuntu; Linux x86_64; rv:99.0) Gecko/20100101 Firefox/99.0
