usingWebGL,participant,session,date,expName,psychopyVersion,OS,frameRate,study_id,signatures_friend,signatures_foe,band_ranges_top,band_ranges_bottom,formitemText,formtype,formundefined,formitemWidth,formindex,formresponse,formrt,key_resp_2.keys,key_resp_2.rt,tute_resp.keys,tute_resp.rt,tutorial.thisRepN,tutorial.thisTrialN,tutorial.thisN,tutorial.thisIndex,tutorial.ran,key_resp_4.keys,key_resp_4.rt,key_resp.keys,key_resp.corr,key_resp.rt,lines_presented,is_signal_presented,trials.thisRepN,trials.thisTrialN,trials.thisN,trials.thisIndex,trials.ran,vessel,active_band,lines,is_signal,supported_pos,catch_trial,debrief_formindex,debrief_formitemText,debrief_formtype,debrief_formitemWidth,debrief_formresponse,debrief_formrt,phases.thisRepN,phases.thisTrialN,phases.thisN,phases.thisIndex,phases.ran,phases.order,phase,key_resp_3.keys,trustitemText,trusttype,trustitemWidth,trustindex,trustresponse,trustrt,support_status.thisRepN,support_status.thisTrialN,support_status.thisN,support_status.thisIndex,support_status.ran,support_status.order,key_resp_5.keys,key_resp_5.rt,globalClockTime,userAgent,manualCondition
TRUE,6122a9e94ab256ca93f1dd37,627c6e4460eb68556fc9d292,2022-05-12_03h35.07.718,classification_task,2021.2.3,Win32,59.97361161,627c6715c52fd12f31907bcf,,,,,,,,,,,,,,,,,,,,,,,,,,,,,,,,,,,,,,,,,,,,,,,,,,,,,,,,,,,,,,,,,,,,,
,6122a9e94ab256ca93f1dd37,627c6e4460eb68556fc9d292,2022-05-12_03h35.07.718,classification_task,2021.2.3,Win32,59.97361161,627c6715c52fd12f31907bcf,"[[""0.289"",""0.339"",""0.889"",""0.943""],[""0.221"",""0.505"",""0.598"",""0.855""]]","[[""0.066"",""0.188"",""0.461"",""0.820""],[""0.134"",""0.402"",""0.539"",""0.757""]]","[1,10]","[100,1000]",Video game experience,,,0.7,0,,,,,,,,,,,,,,,,,,,,,,,,,,,,,,,,,,,,,,,,,,,,,,,,,,,,,,,,,,,,
,6122a9e94ab256ca93f1dd37,627c6e4460eb68556fc9d292,2022-05-12_03h35.07.718,classification_task,2021.2.3,Win32,59.97361161,627c6715c52fd12f31907bcf,,,,,Approximately how many hours did you spend playing video games in the last week?,,,0.7,0,50,,,,,,,,,,,,,,,,,,,,,,,,,,,,,,,,,,,,,,,,,,,,,,,,,,,,,,,,,,,
,6122a9e94ab256ca93f1dd37,627c6e4460eb68556fc9d292,2022-05-12_03h35.07.718,classification_task,2021.2.3,Win32,59.97361161,627c6715c52fd12f31907bcf,,,,,"Which game did you play the most this year? (Enter ""None"" if you didn't play any)",,,0.7,0,Elden Ring,,,,,,,,,,,,,,,,,,,,,,,,,,,,,,,,,,,,,,,,,,,,,,,,,,,,,,,,,,,
,6122a9e94ab256ca93f1dd37,627c6e4460eb68556fc9d292,2022-05-12_03h35.07.718,classification_task,2021.2.3,Win32,59.97361161,627c6715c52fd12f31907bcf,,,,,Visual perception,,,0.7,0,,,,,,,,,,,,,,,,,,,,,,,,,,,,,,,,,,,,,,,,,,,,,,,,,,,,,,,,,,,,
,6122a9e94ab256ca93f1dd37,627c6e4460eb68556fc9d292,2022-05-12_03h35.07.718,classification_task,2021.2.3,Win32,59.97361161,627c6715c52fd12f31907bcf,,,,,Do you have any form of color blindness?,,,0.7,0,No,10.5947,,,,,,,,,,,,,,,,,,,,,,,,,,,,,,,,,,,,,,,,,,,,,,,,,,,,,,,,,,
,6122a9e94ab256ca93f1dd37,627c6e4460eb68556fc9d292,2022-05-12_03h35.07.718,classification_task,2021.2.3,Win32,59.97361161,627c6715c52fd12f31907bcf,,,,,Do you use software to change the colour temperature of your screen (e.g. f.lux)?,,,0.7,0,No,14.7332,,,,,,,,,,,,,,,,,,,,,,,,,,,,,,,,,,,,,,,,,,,,,,,,,,,,,,,,,,
,6122a9e94ab256ca93f1dd37,627c6e4460eb68556fc9d292,2022-05-12_03h35.07.718,classification_task,2021.2.3,Win32,59.97361161,627c6715c52fd12f31907bcf,,,,,,,,,,,,space,93.1085,space,17.987,0,0,0,0,1,,,,,,,,,,,,,,,,,,,,,,,,,,,,,,,,,,,,,,,,,,,,,,,,,
,6122a9e94ab256ca93f1dd37,627c6e4460eb68556fc9d292,2022-05-12_03h35.07.718,classification_task,2021.2.3,Win32,59.97361161,627c6715c52fd12f31907bcf,,,,,,,,,,,,,,space,8.7247,1,0,1,0,1,,,,,,,,,,,,,,,,,,,,,,,,,,,,,,,,,,,,,,,,,,,,,,,,,
,6122a9e94ab256ca93f1dd37,627c6e4460eb68556fc9d292,2022-05-12_03h35.07.718,classification_task,2021.2.3,Win32,59.97361161,627c6715c52fd12f31907bcf,,,,,,,,,,,,,,space,19.0334,2,0,2,0,1,,,,,,,,,,,,,,,,,,,,,,,,,,,,,,,,,,,,,,,,,,,,,,,,,
,6122a9e94ab256ca93f1dd37,627c6e4460eb68556fc9d292,2022-05-12_03h35.07.718,classification_task,2021.2.3,Win32,59.97361161,627c6715c52fd12f31907bcf,,,,,,,,,,,,,,space,7.5215,3,0,3,0,1,,,,,,,,,,,,,,,,,,,,,,,,,,,,,,,,,,,,,,,,,,,,,,,,,
,6122a9e94ab256ca93f1dd37,627c6e4460eb68556fc9d292,2022-05-12_03h35.07.718,classification_task,2021.2.3,Win32,59.97361161,627c6715c52fd12f31907bcf,,,,,,,,,,,,,,space,14.4706,4,0,4,0,1,,,,,,,,,,,,,,,,,,,,,,,,,,,,,,,,,,,,,,,,,,,,,,,,,
,6122a9e94ab256ca93f1dd37,627c6e4460eb68556fc9d292,2022-05-12_03h35.07.718,classification_task,2021.2.3,Win32,59.97361161,627c6715c52fd12f31907bcf,,,,,,,,,,,,,,,,,,,,,space,30.0746,a,1,4.5399,"[""0.289"",""0.715"",""0.889"",""0.943""]","[1,0,1,1]",0,0,0,0,1,0,0,,,1,FALSE,,,,,,,,,,,,,,,,,,,,,,,,,,,,,,,
,6122a9e94ab256ca93f1dd37,627c6e4460eb68556fc9d292,2022-05-12_03h35.07.718,classification_task,2021.2.3,Win32,59.97361161,627c6715c52fd12f31907bcf,,,,,,,,,,,,,,,,,,,,,,,l,1,8.8003,"[""0.648"",""0.188"",""0.461"",""0.820""]","[0,1,1,1]",0,1,1,1,1,1,0,,,1,FALSE,,,,,,,,,,,,,,,,,,,,,,,,,,,,,,,
,6122a9e94ab256ca93f1dd37,627c6e4460eb68556fc9d292,2022-05-12_03h35.07.718,classification_task,2021.2.3,Win32,59.97361161,627c6715c52fd12f31907bcf,,,,,,,,,,,,,,,,,,,,,,,l,1,3.4827,"[""0.134"",""0.402"",""0.640"",""0.757""]","[1,1,0,1]",0,2,2,2,1,1,1,,,1,FALSE,,,,,,,,,,,,,,,,,,,,,,,,,,,,,,,
,6122a9e94ab256ca93f1dd37,627c6e4460eb68556fc9d292,2022-05-12_03h35.07.718,classification_task,2021.2.3,Win32,59.97361161,627c6715c52fd12f31907bcf,,,,,,,,,,,,,,,,,,,,,,,l,1,7.0322,"[""0.029"",""0.402"",""0.539"",""0.757""]","[0,1,1,1]",0,3,3,3,1,1,1,,,1,FALSE,,,,,,,,,,,,,,,,,,,,,,,,,,,,,,,
,6122a9e94ab256ca93f1dd37,627c6e4460eb68556fc9d292,2022-05-12_03h35.07.718,classification_task,2021.2.3,Win32,59.97361161,627c6715c52fd12f31907bcf,,,,,,,,,,,,,,,,,,,,,,,a,1,2.9017,"[""0.289"",""0.339"",""0.680"",""0.943""]","[1,1,0,1]",0,4,4,4,1,0,0,,,1,FALSE,,,,,,,,,,,,,,,,,,,,,,,,,,,,,,,
,6122a9e94ab256ca93f1dd37,627c6e4460eb68556fc9d292,2022-05-12_03h35.07.718,classification_task,2021.2.3,Win32,59.97361161,627c6715c52fd12f31907bcf,,,,,,,,,,,,,,,,,,,,,,,a,1,8.5175,"[""0.029"",""0.505"",""0.598"",""0.855""]","[0,1,1,1]",0,5,5,5,1,0,1,,,1,FALSE,,,,,,,,,,,,,,,,,,,,,,,,,,,,,,,
,6122a9e94ab256ca93f1dd37,627c6e4460eb68556fc9d292,2022-05-12_03h35.07.718,classification_task,2021.2.3,Win32,59.97361161,627c6715c52fd12f31907bcf,,,,,,,,,,,,,,,,,,,,,,,l,1,3.0685,"[""0.066"",""0.188"",""0.664"",""0.820""]","[1,1,0,1]",0,6,6,6,1,1,0,,,1,FALSE,,,,,,,,,,,,,,,,,,,,,,,,,,,,,,,
,6122a9e94ab256ca93f1dd37,627c6e4460eb68556fc9d292,2022-05-12_03h35.07.718,classification_task,2021.2.3,Win32,59.97361161,627c6715c52fd12f31907bcf,,,,,,,,,,,,,,,,,,,,,,,l,1,5.4034,"[""0.134"",""0.682"",""0.539"",""0.757""]","[1,0,1,1]",0,7,7,7,1,1,1,,,1,FALSE,,,,,,,,,,,,,,,,,,,,,,,,,,,,,,,
,6122a9e94ab256ca93f1dd37,627c6e4460eb68556fc9d292,2022-05-12_03h35.07.718,classification_task,2021.2.3,Win32,59.97361161,627c6715c52fd12f31907bcf,,,,,,,,,,,,,,,,,,,,,,,a,1,4.2608,"[""0.221"",""0.505"",""0.598"",""0.640""]","[1,1,1,0]",0,8,8,8,1,0,1,,,1,FALSE,,,,,,,,,,,,,,,,,,,,,,,,,,,,,,,
,6122a9e94ab256ca93f1dd37,627c6e4460eb68556fc9d292,2022-05-12_03h35.07.718,classification_task,2021.2.3,Win32,59.97361161,627c6715c52fd12f31907bcf,,,,,,,,,,,,,,,,,,,,,,,a,1,2.2973,"[""0.289"",""0.339"",""0.889"",""0.651""]","[1,1,1,0]",0,9,9,9,1,0,0,,,1,FALSE,,,,,,,,,,,,,,,,,,,,,,,,,,,,,,,
,6122a9e94ab256ca93f1dd37,627c6e4460eb68556fc9d292,2022-05-12_03h35.07.718,classification_task,2021.2.3,Win32,59.97361161,627c6715c52fd12f31907bcf,,,,,,,,,,,,,,,,,,,,,,,l,1,5.4363,"[""0.134"",""0.402"",""0.539"",""0.100""]","[1,1,1,0]",0,10,10,10,1,1,1,,,1,FALSE,,,,,,,,,,,,,,,,,,,,,,,,,,,,,,,
,6122a9e94ab256ca93f1dd37,627c6e4460eb68556fc9d292,2022-05-12_03h35.07.718,classification_task,2021.2.3,Win32,59.97361161,627c6715c52fd12f31907bcf,,,,,,,,,,,,,,,,,,,,,,,l,1,3.5146,"[""0.066"",""0.029"",""0.461"",""0.820""]","[1,0,1,1]",0,11,11,11,1,1,0,,,1,FALSE,,,,,,,,,,,,,,,,,,,,,,,,,,,,,,,
,6122a9e94ab256ca93f1dd37,627c6e4460eb68556fc9d292,2022-05-12_03h35.07.718,classification_task,2021.2.3,Win32,59.97361161,627c6715c52fd12f31907bcf,,,,,,,,,,,,,,,,,,,,,,,a,1,4.5708,"[""0.100"",""0.339"",""0.889"",""0.943""]","[0,1,1,1]",0,12,12,12,1,0,0,,,1,FALSE,,,,,,,,,,,,,,,,,,,,,,,,,,,,,,,
,6122a9e94ab256ca93f1dd37,627c6e4460eb68556fc9d292,2022-05-12_03h35.07.718,classification_task,2021.2.3,Win32,59.97361161,627c6715c52fd12f31907bcf,,,,,,,,,,,,,,,,,,,,,,,a,1,9.4836,"[""0.221"",""0.505"",""0.664"",""0.855""]","[1,1,0,1]",0,13,13,13,1,0,1,,,1,FALSE,,,,,,,,,,,,,,,,,,,,,,,,,,,,,,,
,6122a9e94ab256ca93f1dd37,627c6e4460eb68556fc9d292,2022-05-12_03h35.07.718,classification_task,2021.2.3,Win32,59.97361161,627c6715c52fd12f31907bcf,,,,,,,,,,,,,,,,,,,,,,,l,1,4.7499,"[""0.066"",""0.188"",""0.461"",""0.643""]","[1,1,1,0]",0,14,14,14,1,1,0,,,1,FALSE,,,,,,,,,,,,,,,,,,,,,,,,,,,,,,,
,6122a9e94ab256ca93f1dd37,627c6e4460eb68556fc9d292,2022-05-12_03h35.07.718,classification_task,2021.2.3,Win32,59.97361161,627c6715c52fd12f31907bcf,,,,,,,,,,,,,,,,,,,,,,,a,1,5.3502,"[""0.221"",""0.640"",""0.598"",""0.855""]","[1,0,1,1]",0,15,15,15,1,0,1,,,1,FALSE,,,,,,,,,,,,,,,,,,,,,,,,,,,,,,,
,6122a9e94ab256ca93f1dd37,627c6e4460eb68556fc9d292,2022-05-12_03h35.07.718,classification_task,2021.2.3,Win32,59.97361161,627c6715c52fd12f31907bcf,,,,,,,,,,,,,,,,,,,,,,,a,1,5.9166,"[""0.029"",""0.505"",""0.598"",""0.855""]","[0,1,1,1]",0,16,16,16,1,0,1,,,1,FALSE,,,,,,,,,,,,,,,,,,,,,,,,,,,,,,,
,6122a9e94ab256ca93f1dd37,627c6e4460eb68556fc9d292,2022-05-12_03h35.07.718,classification_task,2021.2.3,Win32,59.97361161,627c6715c52fd12f31907bcf,,,,,,,,,,,,,,,,,,,,,,,l,1,8.6937,"[""0.665"",""0.402"",""0.539"",""0.757""]","[0,1,1,1]",0,17,17,17,1,1,1,,,1,FALSE,,,,,,,,,,,,,,,,,,,,,,,,,,,,,,,
,6122a9e94ab256ca93f1dd37,627c6e4460eb68556fc9d292,2022-05-12_03h35.07.718,classification_task,2021.2.3,Win32,59.97361161,627c6715c52fd12f31907bcf,,,,,,,,,,,,,,,,,,,,,,,a,1,4.5011,"[""0.680"",""0.339"",""0.889"",""0.943""]","[0,1,1,1]",0,18,18,18,1,0,0,,,1,FALSE,,,,,,,,,,,,,,,,,,,,,,,,,,,,,,,
,6122a9e94ab256ca93f1dd37,627c6e4460eb68556fc9d292,2022-05-12_03h35.07.718,classification_task,2021.2.3,Win32,59.97361161,627c6715c52fd12f31907bcf,,,,,,,,,,,,,,,,,,,,,,,a,1,3.1346,"[""0.289"",""0.685"",""0.889"",""0.943""]","[1,0,1,1]",0,19,19,19,1,0,0,,,1,FALSE,,,,,,,,,,,,,,,,,,,,,,,,,,,,,,,
,6122a9e94ab256ca93f1dd37,627c6e4460eb68556fc9d292,2022-05-12_03h35.07.718,classification_task,2021.2.3,Win32,59.97361161,627c6715c52fd12f31907bcf,,,,,,,,,,,,,,,,,,,,,,,l,1,1.5506,"[""0.066"",""0.188"",""0.461"",""0.669""]","[1,1,1,0]",0,20,20,20,1,1,0,,,1,FALSE,,,,,,,,,,,,,,,,,,,,,,,,,,,,,,,
,6122a9e94ab256ca93f1dd37,627c6e4460eb68556fc9d292,2022-05-12_03h35.07.718,classification_task,2021.2.3,Win32,59.97361161,627c6715c52fd12f31907bcf,,,,,,,,,,,,,,,,,,,,,,,l,1,4.7796,"[""0.066"",""0.188"",""0.685"",""0.820""]","[1,1,0,1]",0,21,21,21,1,1,0,,,1,FALSE,,,,,,,,,,,,,,,,,,,,,,,,,,,,,,,
,6122a9e94ab256ca93f1dd37,627c6e4460eb68556fc9d292,2022-05-12_03h35.07.718,classification_task,2021.2.3,Win32,59.97361161,627c6715c52fd12f31907bcf,,,,,,,,,,,,,,,,,,,,,,,a,1,6.4637,"[""0.289"",""0.339"",""0.889"",""0.665""]","[1,1,1,0]",0,22,22,22,1,0,0,,,1,FALSE,,,,,,,,,,,,,,,,,,,,,,,,,,,,,,,
,6122a9e94ab256ca93f1dd37,627c6e4460eb68556fc9d292,2022-05-12_03h35.07.718,classification_task,2021.2.3,Win32,59.97361161,627c6715c52fd12f31907bcf,,,,,,,,,,,,,,,,,,,,,,,a,1,3.2942,"[""0.221"",""0.505"",""0.598"",""0.685""]","[1,1,1,0]",0,23,23,23,1,0,1,,,1,FALSE,,,,,,,,,,,,,,,,,,,,,,,,,,,,,,,
,6122a9e94ab256ca93f1dd37,627c6e4460eb68556fc9d292,2022-05-12_03h35.07.718,classification_task,2021.2.3,Win32,59.97361161,627c6715c52fd12f31907bcf,,,,,,,,,,,,,,,,,,,,,,,l,1,4.6371,"[""0.134"",""0.402"",""0.539"",""0.651""]","[1,1,1,0]",0,24,24,24,1,1,1,,,1,FALSE,,,,,,,,,,,,,,,,,,,,,,,,,,,,,,,
,6122a9e94ab256ca93f1dd37,627c6e4460eb68556fc9d292,2022-05-12_03h35.07.718,classification_task,2021.2.3,Win32,59.97361161,627c6715c52fd12f31907bcf,,,,,,,,,,,,,,,,,,,,,,,l,1,6.1757,"[""0.680"",""0.188"",""0.461"",""0.820""]","[0,1,1,1]",0,25,25,25,1,1,0,,,1,FALSE,,,,,,,,,,,,,,,,,,,,,,,,,,,,,,,
,6122a9e94ab256ca93f1dd37,627c6e4460eb68556fc9d292,2022-05-12_03h35.07.718,classification_task,2021.2.3,Win32,59.97361161,627c6715c52fd12f31907bcf,,,,,,,,,,,,,,,,,,,,,,,l,1,5.0299,"[""0.066"",""0.665"",""0.461"",""0.820""]","[1,0,1,1]",0,26,26,26,1,1,0,,,1,FALSE,,,,,,,,,,,,,,,,,,,,,,,,,,,,,,,
,6122a9e94ab256ca93f1dd37,627c6e4460eb68556fc9d292,2022-05-12_03h35.07.718,classification_task,2021.2.3,Win32,59.97361161,627c6715c52fd12f31907bcf,,,,,,,,,,,,,,,,,,,,,,,l,1,6.7676,"[""0.134"",""0.402"",""0.648"",""0.757""]","[1,1,0,1]",0,27,27,27,1,1,1,,,1,FALSE,,,,,,,,,,,,,,,,,,,,,,,,,,,,,,,
,6122a9e94ab256ca93f1dd37,627c6e4460eb68556fc9d292,2022-05-12_03h35.07.718,classification_task,2021.2.3,Win32,59.97361161,627c6715c52fd12f31907bcf,,,,,,,,,,,,,,,,,,,,,,,l,1,5.1555,"[""0.134"",""0.715"",""0.539"",""0.757""]","[1,0,1,1]",0,28,28,28,1,1,1,,,1,FALSE,,,,,,,,,,,,,,,,,,,,,,,,,,,,,,,
,6122a9e94ab256ca93f1dd37,627c6e4460eb68556fc9d292,2022-05-12_03h35.07.718,classification_task,2021.2.3,Win32,59.97361161,627c6715c52fd12f31907bcf,,,,,,,,,,,,,,,,,,,,,,,a,1,3.797,"[""0.221"",""0.643"",""0.598"",""0.855""]","[1,0,1,1]",0,29,29,29,1,0,1,,,1,FALSE,,,,,,,,,,,,,,,,,,,,,,,,,,,,,,,
,6122a9e94ab256ca93f1dd37,627c6e4460eb68556fc9d292,2022-05-12_03h35.07.718,classification_task,2021.2.3,Win32,59.97361161,627c6715c52fd12f31907bcf,,,,,,,,,,,,,,,,,,,,,,,a,1,3.4414,"[""0.221"",""0.505"",""0.665"",""0.855""]","[1,1,0,1]",0,30,30,30,1,0,1,,,1,FALSE,,,,,,,,,,,,,,,,,,,,,,,,,,,,,,,
,6122a9e94ab256ca93f1dd37,627c6e4460eb68556fc9d292,2022-05-12_03h35.07.718,classification_task,2021.2.3,Win32,59.97361161,627c6715c52fd12f31907bcf,,,,,,,,,,,,,,,,,,,,,,,a,1,3.0175,"[""0.289"",""0.339"",""0.101"",""0.943""]","[1,1,0,1]",0,31,31,31,1,0,0,,,1,FALSE,,,,,,,,,,,,,,,,,,,,,,,,,,,,,,,
,6122a9e94ab256ca93f1dd37,627c6e4460eb68556fc9d292,2022-05-12_03h35.07.718,classification_task,2021.2.3,Win32,59.97361161,627c6715c52fd12f31907bcf,,,,,,,,,,,,,,,,,,,,,,,l,1,5.1495,"[""0.134"",""0.643"",""0.539"",""0.757""]","[1,0,1,1]",0,32,32,32,1,1,1,,,1,FALSE,,,,,,,,,,,,,,,,,,,,,,,,,,,,,,,
,6122a9e94ab256ca93f1dd37,627c6e4460eb68556fc9d292,2022-05-12_03h35.07.718,classification_task,2021.2.3,Win32,59.97361161,627c6715c52fd12f31907bcf,,,,,,,,,,,,,,,,,,,,,,,a,1,4.6705,"[""0.289"",""0.339"",""0.664"",""0.943""]","[1,1,0,1]",0,33,33,33,1,0,0,,,1,FALSE,,,,,,,,,,,,,,,,,,,,,,,,,,,,,,,
,6122a9e94ab256ca93f1dd37,627c6e4460eb68556fc9d292,2022-05-12_03h35.07.718,classification_task,2021.2.3,Win32,59.97361161,627c6715c52fd12f31907bcf,,,,,,,,,,,,,,,,,,,,,,,l,0,5.0871,"[""0.221"",""0.505"",""0.598"",""0.029""]","[1,1,1,0]",0,34,34,34,1,0,1,,,1,FALSE,,,,,,,,,,,,,,,,,,,,,,,,,,,,,,,
,6122a9e94ab256ca93f1dd37,627c6e4460eb68556fc9d292,2022-05-12_03h35.07.718,classification_task,2021.2.3,Win32,59.97361161,627c6715c52fd12f31907bcf,,,,,,,,,,,,,,,,,,,,,,,a,1,1.6809,"[""0.657"",""0.339"",""0.889"",""0.943""]","[0,1,1,1]",0,35,35,35,1,0,0,,,1,FALSE,,,,,,,,,,,,,,,,,,,,,,,,,,,,,,,
,6122a9e94ab256ca93f1dd37,627c6e4460eb68556fc9d292,2022-05-12_03h35.07.718,classification_task,2021.2.3,Win32,59.97361161,627c6715c52fd12f31907bcf,,,,,,,,,,,,,,,,,,,,,,,l,1,1.8908,"[""0.066"",""0.101"",""0.461"",""0.820""]","[1,0,1,1]",0,36,36,36,1,1,0,,,1,FALSE,,,,,,,,,,,,,,,,,,,,,,,,,,,,,,,
,6122a9e94ab256ca93f1dd37,627c6e4460eb68556fc9d292,2022-05-12_03h35.07.718,classification_task,2021.2.3,Win32,59.97361161,627c6715c52fd12f31907bcf,,,,,,,,,,,,,,,,,,,,,,,a,1,2.1905,"[""0.221"",""0.505"",""0.029"",""0.855""]","[1,1,0,1]",0,37,37,37,1,0,1,,,1,FALSE,,,,,,,,,,,,,,,,,,,,,,,,,,,,,,,
,6122a9e94ab256ca93f1dd37,627c6e4460eb68556fc9d292,2022-05-12_03h35.07.718,classification_task,2021.2.3,Win32,59.97361161,627c6715c52fd12f31907bcf,,,,,,,,,,,,,,,,,,,,,,,l,1,3.4133,"[""0.134"",""0.402"",""0.539"",""0.657""]","[1,1,1,0]",0,38,38,38,1,1,1,,,1,FALSE,,,,,,,,,,,,,,,,,,,,,,,,,,,,,,,
,6122a9e94ab256ca93f1dd37,627c6e4460eb68556fc9d292,2022-05-12_03h35.07.718,classification_task,2021.2.3,Win32,59.97361161,627c6715c52fd12f31907bcf,,,,,,,,,,,,,,,,,,,,,,,a,1,1.4941,"[""0.289"",""0.339"",""0.889"",""0.648""]","[1,1,1,0]",0,39,39,39,1,0,0,,,1,FALSE,,,,,,,,,,,,,,,,,,,,,,,,,,,,,,,
,6122a9e94ab256ca93f1dd37,627c6e4460eb68556fc9d292,2022-05-12_03h35.07.718,classification_task,2021.2.3,Win32,59.97361161,627c6715c52fd12f31907bcf,,,,,,,,,,,,,,,,,,,,,,,a,1,0.5252,"[""0.289"",""0.665"",""0.889"",""0.943""]","[1,0,1,1]",0,40,40,40,1,0,0,,,1,FALSE,,,,,,,,,,,,,,,,,,,,,,,,,,,,,,,
,6122a9e94ab256ca93f1dd37,627c6e4460eb68556fc9d292,2022-05-12_03h35.07.718,classification_task,2021.2.3,Win32,59.97361161,627c6715c52fd12f31907bcf,,,,,,,,,,,,,,,,,,,,,,,l,1,1.1881,"[""0.648"",""0.188"",""0.461"",""0.820""]","[0,1,1,1]",0,41,41,41,1,1,0,,,1,FALSE,,,,,,,,,,,,,,,,,,,,,,,,,,,,,,,
,6122a9e94ab256ca93f1dd37,627c6e4460eb68556fc9d292,2022-05-12_03h35.07.718,classification_task,2021.2.3,Win32,59.97361161,627c6715c52fd12f31907bcf,,,,,,,,,,,,,,,,,,,,,,,l,1,3.8792,"[""0.066"",""0.188"",""0.461"",""0.640""]","[1,1,1,0]",0,42,42,42,1,1,0,,,1,FALSE,,,,,,,,,,,,,,,,,,,,,,,,,,,,,,,
,6122a9e94ab256ca93f1dd37,627c6e4460eb68556fc9d292,2022-05-12_03h35.07.718,classification_task,2021.2.3,Win32,59.97361161,627c6715c52fd12f31907bcf,,,,,,,,,,,,,,,,,,,,,,,l,0,2.2172,"[""0.665"",""0.505"",""0.598"",""0.855""]","[0,1,1,1]",0,43,43,43,1,0,1,,,1,FALSE,,,,,,,,,,,,,,,,,,,,,,,,,,,,,,,
,6122a9e94ab256ca93f1dd37,627c6e4460eb68556fc9d292,2022-05-12_03h35.07.718,classification_task,2021.2.3,Win32,59.97361161,627c6715c52fd12f31907bcf,,,,,,,,,,,,,,,,,,,,,,,a,1,1.3906,"[""0.221"",""0.670"",""0.598"",""0.855""]","[1,0,1,1]",0,44,44,44,1,0,1,,,1,FALSE,,,,,,,,,,,,,,,,,,,,,,,,,,,,,,,
,6122a9e94ab256ca93f1dd37,627c6e4460eb68556fc9d292,2022-05-12_03h35.07.718,classification_task,2021.2.3,Win32,59.97361161,627c6715c52fd12f31907bcf,,,,,,,,,,,,,,,,,,,,,,,l,1,1.3167,"[""0.134"",""0.402"",""0.101"",""0.757""]","[1,1,0,1]",0,45,45,45,1,1,1,,,1,FALSE,,,,,,,,,,,,,,,,,,,,,,,,,,,,,,,
,6122a9e94ab256ca93f1dd37,627c6e4460eb68556fc9d292,2022-05-12_03h35.07.718,classification_task,2021.2.3,Win32,59.97361161,627c6715c52fd12f31907bcf,,,,,,,,,,,,,,,,,,,,,,,l,1,1.5503,"[""0.682"",""0.402"",""0.539"",""0.757""]","[0,1,1,1]",0,46,46,46,1,1,1,,,1,FALSE,,,,,,,,,,,,,,,,,,,,,,,,,,,,,,,
,6122a9e94ab256ca93f1dd37,627c6e4460eb68556fc9d292,2022-05-12_03h35.07.718,classification_task,2021.2.3,Win32,59.97361161,627c6715c52fd12f31907bcf,,,,,,,,,,,,,,,,,,,,,,,a,0,5.508,"[""0.066"",""0.188"",""0.715"",""0.820""]","[1,1,0,1]",0,47,47,47,1,1,0,,,1,FALSE,,,,,,,,,,,,,,,,,,,,,,,,,,,,,,,
,6122a9e94ab256ca93f1dd37,627c6e4460eb68556fc9d292,2022-05-12_03h35.07.718,classification_task,2021.2.3,Win32,59.97361161,627c6715c52fd12f31907bcf,,,,,,,,,,,,,,,,,,,,,,,a,0,1.0725,"[""0.066"",""0.188"",""0.461"",""0.664""]","[1,1,1,0]",0,48,48,48,1,1,0,,,1,FALSE,,,,,,,,,,,,,,,,,,,,,,,,,,,,,,,
,6122a9e94ab256ca93f1dd37,627c6e4460eb68556fc9d292,2022-05-12_03h35.07.718,classification_task,2021.2.3,Win32,59.97361161,627c6715c52fd12f31907bcf,,,,,,,,,,,,,,,,,,,,,,,a,1,1.9029,"[""0.289"",""0.339"",""0.715"",""0.943""]","[1,1,0,1]",0,49,49,49,1,0,0,,,1,FALSE,,,,,,,,,,,,,,,,,,,,,,,,,,,,,,,
,6122a9e94ab256ca93f1dd37,627c6e4460eb68556fc9d292,2022-05-12_03h35.07.718,classification_task,2021.2.3,Win32,59.97361161,627c6715c52fd12f31907bcf,,,,,,,,,,,,,,,,,,,,,,,a,0,1.174,"[""0.134"",""0.402"",""0.539"",""0.029""]","[1,1,1,0]",0,50,50,50,1,1,1,,,1,FALSE,,,,,,,,,,,,,,,,,,,,,,,,,,,,,,,
,6122a9e94ab256ca93f1dd37,627c6e4460eb68556fc9d292,2022-05-12_03h35.07.718,classification_task,2021.2.3,Win32,59.97361161,627c6715c52fd12f31907bcf,,,,,,,,,,,,,,,,,,,,,,,a,0,1.7283,"[""0.134"",""0.680"",""0.539"",""0.757""]","[1,0,1,1]",0,51,51,51,1,1,1,,,1,FALSE,,,,,,,,,,,,,,,,,,,,,,,,,,,,,,,
,6122a9e94ab256ca93f1dd37,627c6e4460eb68556fc9d292,2022-05-12_03h35.07.718,classification_task,2021.2.3,Win32,59.97361161,627c6715c52fd12f31907bcf,,,,,,,,,,,,,,,,,,,,,,,l,0,0.9671,"[""0.221"",""0.505"",""0.598"",""0.685""]","[1,1,1,0]",0,52,52,52,1,0,1,,,1,FALSE,,,,,,,,,,,,,,,,,,,,,,,,,,,,,,,
,6122a9e94ab256ca93f1dd37,627c6e4460eb68556fc9d292,2022-05-12_03h35.07.718,classification_task,2021.2.3,Win32,59.97361161,627c6715c52fd12f31907bcf,,,,,,,,,,,,,,,,,,,,,,,l,0,5.8595,"[""0.221"",""0.505"",""0.670"",""0.855""]","[1,1,0,1]",0,53,53,53,1,0,1,,,1,FALSE,,,,,,,,,,,,,,,,,,,,,,,,,,,,,,,
,6122a9e94ab256ca93f1dd37,627c6e4460eb68556fc9d292,2022-05-12_03h35.07.718,classification_task,2021.2.3,Win32,59.97361161,627c6715c52fd12f31907bcf,,,,,,,,,,,,,,,,,,,,,,,a,0,1.9667,"[""0.715"",""0.188"",""0.461"",""0.820""]","[0,1,1,1]",0,54,54,54,1,1,0,,,1,FALSE,,,,,,,,,,,,,,,,,,,,,,,,,,,,,,,
,6122a9e94ab256ca93f1dd37,627c6e4460eb68556fc9d292,2022-05-12_03h35.07.718,classification_task,2021.2.3,Win32,59.97361161,627c6715c52fd12f31907bcf,,,,,,,,,,,,,,,,,,,,,,,a,1,0.4522,"[""0.289"",""0.680"",""0.889"",""0.943""]","[1,0,1,1]",0,55,55,55,1,0,0,,,1,FALSE,,,,,,,,,,,,,,,,,,,,,,,,,,,,,,,
,6122a9e94ab256ca93f1dd37,627c6e4460eb68556fc9d292,2022-05-12_03h35.07.718,classification_task,2021.2.3,Win32,59.97361161,627c6715c52fd12f31907bcf,,,,,,,,,,,,,,,,,,,,,,,l,1,2.569,"[""0.066"",""0.188"",""0.651"",""0.820""]","[1,1,0,1]",0,56,56,56,1,1,0,,,1,FALSE,,,,,,,,,,,,,,,,,,,,,,,,,,,,,,,
,6122a9e94ab256ca93f1dd37,627c6e4460eb68556fc9d292,2022-05-12_03h35.07.718,classification_task,2021.2.3,Win32,59.97361161,627c6715c52fd12f31907bcf,,,,,,,,,,,,,,,,,,,,,,,a,1,2.2875,"[""0.289"",""0.339"",""0.889"",""0.648""]","[1,1,1,0]",0,57,57,57,1,0,0,,,1,FALSE,,,,,,,,,,,,,,,,,,,,,,,,,,,,,,,
,6122a9e94ab256ca93f1dd37,627c6e4460eb68556fc9d292,2022-05-12_03h35.07.718,classification_task,2021.2.3,Win32,59.97361161,627c6715c52fd12f31907bcf,,,,,,,,,,,,,,,,,,,,,,,l,1,2.4466,"[""0.066"",""0.643"",""0.461"",""0.820""]","[1,0,1,1]",0,58,58,58,1,1,0,,,1,FALSE,,,,,,,,,,,,,,,,,,,,,,,,,,,,,,,
,6122a9e94ab256ca93f1dd37,627c6e4460eb68556fc9d292,2022-05-12_03h35.07.718,classification_task,2021.2.3,Win32,59.97361161,627c6715c52fd12f31907bcf,,,,,,,,,,,,,,,,,,,,,,,l,0,1.5075,"[""0.669"",""0.505"",""0.598"",""0.855""]","[0,1,1,1]",0,59,59,59,1,0,1,,,1,FALSE,,,,,,,,,,,,,,,,,,,,,,,,,,,,,,,
,6122a9e94ab256ca93f1dd37,627c6e4460eb68556fc9d292,2022-05-12_03h35.07.718,classification_task,2021.2.3,Win32,59.97361161,627c6715c52fd12f31907bcf,,,,,,,,,,,,,,,,,,,,,,,a,1,0.7179,"[""0.670"",""0.339"",""0.889"",""0.943""]","[0,1,1,1]",0,60,60,60,1,0,0,,,1,FALSE,,,,,,,,,,,,,,,,,,,,,,,,,,,,,,,
,6122a9e94ab256ca93f1dd37,627c6e4460eb68556fc9d292,2022-05-12_03h35.07.718,classification_task,2021.2.3,Win32,59.97361161,627c6715c52fd12f31907bcf,,,,,,,,,,,,,,,,,,,,,,,a,0,3.0121,"[""0.100"",""0.402"",""0.539"",""0.757""]","[0,1,1,1]",0,61,61,61,1,1,1,,,1,FALSE,,,,,,,,,,,,,,,,,,,,,,,,,,,,,,,
,6122a9e94ab256ca93f1dd37,627c6e4460eb68556fc9d292,2022-05-12_03h35.07.718,classification_task,2021.2.3,Win32,59.97361161,627c6715c52fd12f31907bcf,,,,,,,,,,,,,,,,,,,,,,,l,0,1.1656,"[""0.221"",""0.643"",""0.598"",""0.855""]","[1,0,1,1]",0,62,62,62,1,0,1,,,1,FALSE,,,,,,,,,,,,,,,,,,,,,,,,,,,,,,,
,6122a9e94ab256ca93f1dd37,627c6e4460eb68556fc9d292,2022-05-12_03h35.07.718,classification_task,2021.2.3,Win32,59.97361161,627c6715c52fd12f31907bcf,,,,,,,,,,,,,,,,,,,,,,,a,0,2.8655,"[""0.134"",""0.402"",""0.669"",""0.757""]","[1,1,0,1]",0,63,63,63,1,1,1,,,1,FALSE,,,,,,,,,,,,,,,,,,,,,,,,,,,,,,,
,6122a9e94ab256ca93f1dd37,627c6e4460eb68556fc9d292,2022-05-12_03h35.07.718,classification_task,2021.2.3,Win32,59.97361161,627c6715c52fd12f31907bcf,,,,,,,,,,,,,,,,,,,,,,,,,,,,,,,,,,,,,,,0, ,,0,2.204858464,528.361,0,0,0,0,1,2,1,,,,,,,,,,,,,,,,,,
,6122a9e94ab256ca93f1dd37,627c6e4460eb68556fc9d292,2022-05-12_03h35.07.718,classification_task,2021.2.3,Win32,59.97361161,627c6715c52fd12f31907bcf,,,,,,,,,,,,,,,,,,,,,,,,,,,,,,,,,,,,,,,1,  ,,0,6.355220139,534.5642,0,0,0,0,1,2,1,,,,,,,,,,,,,,,,,,
,6122a9e94ab256ca93f1dd37,627c6e4460eb68556fc9d292,2022-05-12_03h35.07.718,classification_task,2021.2.3,Win32,59.97361161,627c6715c52fd12f31907bcf,,,,,,,,,,,,,,,,,,,,,,,,,,,,,,,,,,,,,,,2,  ,,0,3.390676085,541.3587,0,0,0,0,1,2,1,,,,,,,,,,,,,,,,,,
,6122a9e94ab256ca93f1dd37,627c6e4460eb68556fc9d292,2022-05-12_03h35.07.718,classification_task,2021.2.3,Win32,59.97361161,627c6715c52fd12f31907bcf,,,,,,,,,,,,,,,,,,,,,,,,,,,,,,,,,,,,,,,,,,,,,0,0,0,0,1,,1,,,,,,,,,,,,,,,,,,
,6122a9e94ab256ca93f1dd37,627c6e4460eb68556fc9d292,2022-05-12_03h35.07.718,classification_task,2021.2.3,Win32,59.97361161,627c6715c52fd12f31907bcf,,,,,,,,,,,,,,,,,,,,,space,19.1797,a,1,3.6998,"[""0.657"",""0.505"",""0.598"",""0.855""]","[0,1,1,1]",0,0,0,0,1,0,1,,,1,FALSE,,,,,,,,,,,,,,,,,,,,,,,,,,,,,,,
,6122a9e94ab256ca93f1dd37,627c6e4460eb68556fc9d292,2022-05-12_03h35.07.718,classification_task,2021.2.3,Win32,59.97361161,627c6715c52fd12f31907bcf,,,,,,,,,,,,,,,,,,,,,,,a,1,0.5197,"[""0.221"",""0.505"",""0.598"",""0.715""]","[1,1,1,0]",0,1,1,1,1,0,1,,,1,FALSE,,,,,,,,,,,,,,,,,,,,,,,,,,,,,,,
,6122a9e94ab256ca93f1dd37,627c6e4460eb68556fc9d292,2022-05-12_03h35.07.718,classification_task,2021.2.3,Win32,59.97361161,627c6715c52fd12f31907bcf,,,,,,,,,,,,,,,,,,,,,,,l,1,4.0433,"[""0.066"",""0.188"",""0.461"",""0.643""]","[1,1,1,0]",0,2,2,2,1,1,0,,,1,FALSE,,,,,,,,,,,,,,,,,,,,,,,,,,,,,,,
,6122a9e94ab256ca93f1dd37,627c6e4460eb68556fc9d292,2022-05-12_03h35.07.718,classification_task,2021.2.3,Win32,59.97361161,627c6715c52fd12f31907bcf,,,,,,,,,,,,,,,,,,,,,,,l,1,0.751,"[""0.134"",""0.669"",""0.539"",""0.757""]","[1,0,1,1]",0,3,3,3,1,1,1,,,1,FALSE,,,,,,,,,,,,,,,,,,,,,,,,,,,,,,,
,6122a9e94ab256ca93f1dd37,627c6e4460eb68556fc9d292,2022-05-12_03h35.07.718,classification_task,2021.2.3,Win32,59.97361161,627c6715c52fd12f31907bcf,,,,,,,,,,,,,,,,,,,,,,,l,0,0.9152,"[""0.289"",""0.339"",""0.889"",""0.685""]","[1,1,1,0]",0,4,4,4,1,0,0,,,1,FALSE,,,,,,,,,,,,,,,,,,,,,,,,,,,,,,,
,6122a9e94ab256ca93f1dd37,627c6e4460eb68556fc9d292,2022-05-12_03h35.07.718,classification_task,2021.2.3,Win32,59.97361161,627c6715c52fd12f31907bcf,,,,,,,,,,,,,,,,,,,,,,,a,1,3.1197,"[""0.221"",""0.505"",""0.685"",""0.855""]","[1,1,0,1]",0,5,5,5,1,0,1,,,1,FALSE,,,,,,,,,,,,,,,,,,,,,,,,,,,,,,,
,6122a9e94ab256ca93f1dd37,627c6e4460eb68556fc9d292,2022-05-12_03h35.07.718,classification_task,2021.2.3,Win32,59.97361161,627c6715c52fd12f31907bcf,,,,,,,,,,,,,,,,,,,,,,,a,0,0.9957,"[""0.682"",""0.188"",""0.461"",""0.820""]","[0,1,1,1]",0,6,6,6,1,1,0,,,1,FALSE,,,,,,,,,,,,,,,,,,,,,,,,,,,,,,,
,6122a9e94ab256ca93f1dd37,627c6e4460eb68556fc9d292,2022-05-12_03h35.07.718,classification_task,2021.2.3,Win32,59.97361161,627c6715c52fd12f31907bcf,,,,,,,,,,,,,,,,,,,,,,,a,1,1.4843,"[""0.289"",""0.339"",""0.669"",""0.943""]","[1,1,0,1]",0,7,7,7,1,0,0,,,1,FALSE,,,,,,,,,,,,,,,,,,,,,,,,,,,,,,,
,6122a9e94ab256ca93f1dd37,627c6e4460eb68556fc9d292,2022-05-12_03h35.07.718,classification_task,2021.2.3,Win32,59.97361161,627c6715c52fd12f31907bcf,,,,,,,,,,,,,,,,,,,,,,,l,0,1.1335,"[""0.685"",""0.339"",""0.889"",""0.943""]","[0,1,1,1]",0,8,8,8,1,0,0,,,1,FALSE,,,,,,,,,,,,,,,,,,,,,,,,,,,,,,,
,6122a9e94ab256ca93f1dd37,627c6e4460eb68556fc9d292,2022-05-12_03h35.07.718,classification_task,2021.2.3,Win32,59.97361161,627c6715c52fd12f31907bcf,,,,,,,,,,,,,,,,,,,,,,,l,1,3.1561,"[""0.134"",""0.402"",""0.670"",""0.757""]","[1,1,0,1]",0,9,9,9,1,1,1,,,1,FALSE,,,,,,,,,,,,,,,,,,,,,,,,,,,,,,,
,6122a9e94ab256ca93f1dd37,627c6e4460eb68556fc9d292,2022-05-12_03h35.07.718,classification_task,2021.2.3,Win32,59.97361161,627c6715c52fd12f31907bcf,,,,,,,,,,,,,,,,,,,,,,,a,0,1.7136,"[""0.066"",""0.680"",""0.461"",""0.820""]","[1,0,1,1]",0,10,10,10,1,1,0,,,1,FALSE,,,,,,,,,,,,,,,,,,,,,,,,,,,,,,,
,6122a9e94ab256ca93f1dd37,627c6e4460eb68556fc9d292,2022-05-12_03h35.07.718,classification_task,2021.2.3,Win32,59.97361161,627c6715c52fd12f31907bcf,,,,,,,,,,,,,,,,,,,,,,,a,1,1.3076,"[""0.289"",""0.680"",""0.889"",""0.943""]","[1,0,1,1]",0,11,11,11,1,0,0,,,1,FALSE,,,,,,,,,,,,,,,,,,,,,,,,,,,,,,,
,6122a9e94ab256ca93f1dd37,627c6e4460eb68556fc9d292,2022-05-12_03h35.07.718,classification_task,2021.2.3,Win32,59.97361161,627c6715c52fd12f31907bcf,,,,,,,,,,,,,,,,,,,,,,,l,1,0.7805,"[""0.134"",""0.402"",""0.539"",""0.657""]","[1,1,1,0]",0,12,12,12,1,1,1,,,1,FALSE,,,,,,,,,,,,,,,,,,,,,,,,,,,,,,,
,6122a9e94ab256ca93f1dd37,627c6e4460eb68556fc9d292,2022-05-12_03h35.07.718,classification_task,2021.2.3,Win32,59.97361161,627c6715c52fd12f31907bcf,,,,,,,,,,,,,,,,,,,,,,,l,1,0.6656,"[""0.066"",""0.188"",""0.664"",""0.820""]","[1,1,0,1]",0,13,13,13,1,1,0,,,1,FALSE,,,,,,,,,,,,,,,,,,,,,,,,,,,,,,,
,6122a9e94ab256ca93f1dd37,627c6e4460eb68556fc9d292,2022-05-12_03h35.07.718,classification_task,2021.2.3,Win32,59.97361161,627c6715c52fd12f31907bcf,,,,,,,,,,,,,,,,,,,,,,,l,1,0.6303,"[""0.669"",""0.402"",""0.539"",""0.757""]","[0,1,1,1]",0,14,14,14,1,1,1,,,1,FALSE,,,,,,,,,,,,,,,,,,,,,,,,,,,,,,,
,6122a9e94ab256ca93f1dd37,627c6e4460eb68556fc9d292,2022-05-12_03h35.07.718,classification_task,2021.2.3,Win32,59.97361161,627c6715c52fd12f31907bcf,,,,,,,,,,,,,,,,,,,,,,,a,1,3.0667,"[""0.221"",""0.029"",""0.598"",""0.855""]","[1,0,1,1]",0,15,15,15,1,0,1,,,1,FALSE,,,,,,,,,,,,,,,,,,,,,,,,,,,,,,,
,6122a9e94ab256ca93f1dd37,627c6e4460eb68556fc9d292,2022-05-12_03h35.07.718,classification_task,2021.2.3,Win32,59.97361161,627c6715c52fd12f31907bcf,,,,,,,,,,,,,,,,,,,,,,,a,1,2.4137,"[""0.221"",""0.101"",""0.598"",""0.855""]","[1,0,1,1]",0,16,16,16,1,0,1,,,1,FALSE,,,,,,,,,,,,,,,,,,,,,,,,,,,,,,,
,6122a9e94ab256ca93f1dd37,627c6e4460eb68556fc9d292,2022-05-12_03h35.07.718,classification_task,2021.2.3,Win32,59.97361161,627c6715c52fd12f31907bcf,,,,,,,,,,,,,,,,,,,,,,,l,0,1.8145,"[""0.289"",""0.339"",""0.715"",""0.943""]","[1,1,0,1]",0,17,17,17,1,0,0,,,1,FALSE,,,,,,,,,,,,,,,,,,,,,,,,,,,,,,,
,6122a9e94ab256ca93f1dd37,627c6e4460eb68556fc9d292,2022-05-12_03h35.07.718,classification_task,2021.2.3,Win32,59.97361161,627c6715c52fd12f31907bcf,,,,,,,,,,,,,,,,,,,,,,,l,1,3.0614,"[""0.685"",""0.402"",""0.539"",""0.757""]","[0,1,1,1]",0,18,18,18,1,1,1,,,1,FALSE,,,,,,,,,,,,,,,,,,,,,,,,,,,,,,,
,6122a9e94ab256ca93f1dd37,627c6e4460eb68556fc9d292,2022-05-12_03h35.07.718,classification_task,2021.2.3,Win32,59.97361161,627c6715c52fd12f31907bcf,,,,,,,,,,,,,,,,,,,,,,,l,1,3.89,"[""0.066"",""0.188"",""0.657"",""0.820""]","[1,1,0,1]",0,19,19,19,1,1,0,,,1,FALSE,,,,,,,,,,,,,,,,,,,,,,,,,,,,,,,
,6122a9e94ab256ca93f1dd37,627c6e4460eb68556fc9d292,2022-05-12_03h35.07.718,classification_task,2021.2.3,Win32,59.97361161,627c6715c52fd12f31907bcf,,,,,,,,,,,,,,,,,,,,,,,a,0,1.7565,"[""0.066"",""0.188"",""0.461"",""0.100""]","[1,1,1,0]",0,20,20,20,1,1,0,,,1,FALSE,,,,,,,,,,,,,,,,,,,,,,,,,,,,,,,
,6122a9e94ab256ca93f1dd37,627c6e4460eb68556fc9d292,2022-05-12_03h35.07.718,classification_task,2021.2.3,Win32,59.97361161,627c6715c52fd12f31907bcf,,,,,,,,,,,,,,,,,,,,,,,a,1,3.0981,"[""0.221"",""0.505"",""0.598"",""0.643""]","[1,1,1,0]",0,21,21,21,1,0,1,,,1,FALSE,,,,,,,,,,,,,,,,,,,,,,,,,,,,,,,
,6122a9e94ab256ca93f1dd37,627c6e4460eb68556fc9d292,2022-05-12_03h35.07.718,classification_task,2021.2.3,Win32,59.97361161,627c6715c52fd12f31907bcf,,,,,,,,,,,,,,,,,,,,,,,l,1,1.0176,"[""0.665"",""0.188"",""0.461"",""0.820""]","[0,1,1,1]",0,22,22,22,1,1,0,,,1,FALSE,,,,,,,,,,,,,,,,,,,,,,,,,,,,,,,
,6122a9e94ab256ca93f1dd37,627c6e4460eb68556fc9d292,2022-05-12_03h35.07.718,classification_task,2021.2.3,Win32,59.97361161,627c6715c52fd12f31907bcf,,,,,,,,,,,,,,,,,,,,,,,a,1,1.9802,"[""0.221"",""0.505"",""0.643"",""0.855""]","[1,1,0,1]",0,23,23,23,1,0,1,,,1,FALSE,,,,,,,,,,,,,,,,,,,,,,,,,,,,,,,
,6122a9e94ab256ca93f1dd37,627c6e4460eb68556fc9d292,2022-05-12_03h35.07.718,classification_task,2021.2.3,Win32,59.97361161,627c6715c52fd12f31907bcf,,,,,,,,,,,,,,,,,,,,,,,l,1,1.8188,"[""0.134"",""0.402"",""0.029"",""0.757""]","[1,1,0,1]",0,24,24,24,1,1,1,,,1,FALSE,,,,,,,,,,,,,,,,,,,,,,,,,,,,,,,
,6122a9e94ab256ca93f1dd37,627c6e4460eb68556fc9d292,2022-05-12_03h35.07.718,classification_task,2021.2.3,Win32,59.97361161,627c6715c52fd12f31907bcf,,,,,,,,,,,,,,,,,,,,,,,l,1,2.7382,"[""0.066"",""0.680"",""0.461"",""0.820""]","[1,0,1,1]",0,25,25,25,1,1,0,,,1,FALSE,,,,,,,,,,,,,,,,,,,,,,,,,,,,,,,
,6122a9e94ab256ca93f1dd37,627c6e4460eb68556fc9d292,2022-05-12_03h35.07.718,classification_task,2021.2.3,Win32,59.97361161,627c6715c52fd12f31907bcf,,,,,,,,,,,,,,,,,,,,,,,l,1,3.2679,"[""0.134"",""0.402"",""0.539"",""0.680""]","[1,1,1,0]",0,26,26,26,1,1,1,,,1,FALSE,,,,,,,,,,,,,,,,,,,,,,,,,,,,,,,
,6122a9e94ab256ca93f1dd37,627c6e4460eb68556fc9d292,2022-05-12_03h35.07.718,classification_task,2021.2.3,Win32,59.97361161,627c6715c52fd12f31907bcf,,,,,,,,,,,,,,,,,,,,,,,l,0,1.4019,"[""0.289"",""0.339"",""0.889"",""0.685""]","[1,1,1,0]",0,27,27,27,1,0,0,,,1,FALSE,,,,,,,,,,,,,,,,,,,,,,,,,,,,,,,
,6122a9e94ab256ca93f1dd37,627c6e4460eb68556fc9d292,2022-05-12_03h35.07.718,classification_task,2021.2.3,Win32,59.97361161,627c6715c52fd12f31907bcf,,,,,,,,,,,,,,,,,,,,,,,l,1,1.6137,"[""0.134"",""0.640"",""0.539"",""0.757""]","[1,0,1,1]",0,28,28,28,1,1,1,,,1,FALSE,,,,,,,,,,,,,,,,,,,,,,,,,,,,,,,
,6122a9e94ab256ca93f1dd37,627c6e4460eb68556fc9d292,2022-05-12_03h35.07.718,classification_task,2021.2.3,Win32,59.97361161,627c6715c52fd12f31907bcf,,,,,,,,,,,,,,,,,,,,,,,a,1,1.7684,"[""0.289"",""0.101"",""0.889"",""0.943""]","[1,0,1,1]",0,29,29,29,1,0,0,,,1,FALSE,,,,,,,,,,,,,,,,,,,,,,,,,,,,,,,
,6122a9e94ab256ca93f1dd37,627c6e4460eb68556fc9d292,2022-05-12_03h35.07.718,classification_task,2021.2.3,Win32,59.97361161,627c6715c52fd12f31907bcf,,,,,,,,,,,,,,,,,,,,,,,l,0,3.0953,"[""0.100"",""0.339"",""0.889"",""0.943""]","[0,1,1,1]",0,30,30,30,1,0,0,,,1,FALSE,,,,,,,,,,,,,,,,,,,,,,,,,,,,,,,
,6122a9e94ab256ca93f1dd37,627c6e4460eb68556fc9d292,2022-05-12_03h35.07.718,classification_task,2021.2.3,Win32,59.97361161,627c6715c52fd12f31907bcf,,,,,,,,,,,,,,,,,,,,,,,a,1,1.6519,"[""0.640"",""0.505"",""0.598"",""0.855""]","[0,1,1,1]",0,31,31,31,1,0,1,,,1,FALSE,,,,,,,,,,,,,,,,,,,,,,,,,,,,,,,
,6122a9e94ab256ca93f1dd37,627c6e4460eb68556fc9d292,2022-05-12_03h35.07.718,classification_task,2021.2.3,Win32,59.97361161,627c6715c52fd12f31907bcf,,,,,,,,,,,,,,,,,,,,,,,l,1,1.6552,"[""0.134"",""0.402"",""0.539"",""0.101""]","[1,1,1,0]",0,32,32,32,1,1,1,,,1,FALSE,,,,,,,,,,,,,,,,,,,,,,,,,,,,,,,
,6122a9e94ab256ca93f1dd37,627c6e4460eb68556fc9d292,2022-05-12_03h35.07.718,classification_task,2021.2.3,Win32,59.97361161,627c6715c52fd12f31907bcf,,,,,,,,,,,,,,,,,,,,,,,l,1,1.5034,"[""0.640"",""0.188"",""0.461"",""0.820""]","[0,1,1,1]",0,33,33,33,1,1,0,,,1,FALSE,,,,,,,,,,,,,,,,,,,,,,,,,,,,,,,
,6122a9e94ab256ca93f1dd37,627c6e4460eb68556fc9d292,2022-05-12_03h35.07.718,classification_task,2021.2.3,Win32,59.97361161,627c6715c52fd12f31907bcf,,,,,,,,,,,,,,,,,,,,,,,a,1,1.5322,"[""0.221"",""0.505"",""0.598"",""0.715""]","[1,1,1,0]",0,34,34,34,1,0,1,,,1,FALSE,,,,,,,,,,,,,,,,,,,,,,,,,,,,,,,
,6122a9e94ab256ca93f1dd37,627c6e4460eb68556fc9d292,2022-05-12_03h35.07.718,classification_task,2021.2.3,Win32,59.97361161,627c6715c52fd12f31907bcf,,,,,,,,,,,,,,,,,,,,,,,l,1,1.391,"[""0.134"",""0.402"",""0.685"",""0.757""]","[1,1,0,1]",0,35,35,35,1,1,1,,,1,FALSE,,,,,,,,,,,,,,,,,,,,,,,,,,,,,,,
,6122a9e94ab256ca93f1dd37,627c6e4460eb68556fc9d292,2022-05-12_03h35.07.718,classification_task,2021.2.3,Win32,59.97361161,627c6715c52fd12f31907bcf,,,,,,,,,,,,,,,,,,,,,,,a,1,1.4854,"[""0.289"",""0.715"",""0.889"",""0.943""]","[1,0,1,1]",0,36,36,36,1,0,0,,,1,FALSE,,,,,,,,,,,,,,,,,,,,,,,,,,,,,,,
,6122a9e94ab256ca93f1dd37,627c6e4460eb68556fc9d292,2022-05-12_03h35.07.718,classification_task,2021.2.3,Win32,59.97361161,627c6715c52fd12f31907bcf,,,,,,,,,,,,,,,,,,,,,,,a,1,1.1649,"[""0.289"",""0.339"",""0.889"",""0.029""]","[1,1,1,0]",0,37,37,37,1,0,0,,,1,FALSE,,,,,,,,,,,,,,,,,,,,,,,,,,,,,,,
,6122a9e94ab256ca93f1dd37,627c6e4460eb68556fc9d292,2022-05-12_03h35.07.718,classification_task,2021.2.3,Win32,59.97361161,627c6715c52fd12f31907bcf,,,,,,,,,,,,,,,,,,,,,,,l,1,0.9157,"[""0.066"",""0.188"",""0.461"",""0.100""]","[1,1,1,0]",0,38,38,38,1,1,0,,,1,FALSE,,,,,,,,,,,,,,,,,,,,,,,,,,,,,,,
,6122a9e94ab256ca93f1dd37,627c6e4460eb68556fc9d292,2022-05-12_03h35.07.718,classification_task,2021.2.3,Win32,59.97361161,627c6715c52fd12f31907bcf,,,,,,,,,,,,,,,,,,,,,,,a,1,1.6497,"[""0.665"",""0.339"",""0.889"",""0.943""]","[0,1,1,1]",0,39,39,39,1,0,0,,,1,FALSE,,,,,,,,,,,,,,,,,,,,,,,,,,,,,,,
,6122a9e94ab256ca93f1dd37,627c6e4460eb68556fc9d292,2022-05-12_03h35.07.718,classification_task,2021.2.3,Win32,59.97361161,627c6715c52fd12f31907bcf,,,,,,,,,,,,,,,,,,,,,,,l,1,1.1588,"[""0.682"",""0.402"",""0.539"",""0.757""]","[0,1,1,1]",0,40,40,40,1,1,1,,,1,FALSE,,,,,,,,,,,,,,,,,,,,,,,,,,,,,,,
,6122a9e94ab256ca93f1dd37,627c6e4460eb68556fc9d292,2022-05-12_03h35.07.718,classification_task,2021.2.3,Win32,59.97361161,627c6715c52fd12f31907bcf,,,,,,,,,,,,,,,,,,,,,,,a,1,1.8753,"[""0.221"",""0.505"",""0.651"",""0.855""]","[1,1,0,1]",0,41,41,41,1,0,1,,,1,FALSE,,,,,,,,,,,,,,,,,,,,,,,,,,,,,,,
,6122a9e94ab256ca93f1dd37,627c6e4460eb68556fc9d292,2022-05-12_03h35.07.718,classification_task,2021.2.3,Win32,59.97361161,627c6715c52fd12f31907bcf,,,,,,,,,,,,,,,,,,,,,,,a,1,1.2087,"[""0.289"",""0.339"",""0.682"",""0.943""]","[1,1,0,1]",0,42,42,42,1,0,0,,,1,FALSE,,,,,,,,,,,,,,,,,,,,,,,,,,,,,,,
,6122a9e94ab256ca93f1dd37,627c6e4460eb68556fc9d292,2022-05-12_03h35.07.718,classification_task,2021.2.3,Win32,59.97361161,627c6715c52fd12f31907bcf,,,,,,,,,,,,,,,,,,,,,,,a,1,1.015,"[""0.680"",""0.505"",""0.598"",""0.855""]","[0,1,1,1]",0,43,43,43,1,0,1,,,1,FALSE,,,,,,,,,,,,,,,,,,,,,,,,,,,,,,,
,6122a9e94ab256ca93f1dd37,627c6e4460eb68556fc9d292,2022-05-12_03h35.07.718,classification_task,2021.2.3,Win32,59.97361161,627c6715c52fd12f31907bcf,,,,,,,,,,,,,,,,,,,,,,,l,1,0.9904,"[""0.066"",""0.029"",""0.461"",""0.820""]","[1,0,1,1]",0,44,44,44,1,1,0,,,1,FALSE,,,,,,,,,,,,,,,,,,,,,,,,,,,,,,,
,6122a9e94ab256ca93f1dd37,627c6e4460eb68556fc9d292,2022-05-12_03h35.07.718,classification_task,2021.2.3,Win32,59.97361161,627c6715c52fd12f31907bcf,,,,,,,,,,,,,,,,,,,,,,,l,1,1.3322,"[""0.134"",""0.643"",""0.539"",""0.757""]","[1,0,1,1]",0,45,45,45,1,1,1,,,1,FALSE,,,,,,,,,,,,,,,,,,,,,,,,,,,,,,,
,6122a9e94ab256ca93f1dd37,627c6e4460eb68556fc9d292,2022-05-12_03h35.07.718,classification_task,2021.2.3,Win32,59.97361161,627c6715c52fd12f31907bcf,,,,,,,,,,,,,,,,,,,,,,,l,1,1.7495,"[""0.066"",""0.188"",""0.100"",""0.820""]","[1,1,0,1]",0,46,46,46,1,1,0,,,1,FALSE,,,,,,,,,,,,,,,,,,,,,,,,,,,,,,,
,6122a9e94ab256ca93f1dd37,627c6e4460eb68556fc9d292,2022-05-12_03h35.07.718,classification_task,2021.2.3,Win32,59.97361161,627c6715c52fd12f31907bcf,,,,,,,,,,,,,,,,,,,,,,,a,1,1.6597,"[""0.221"",""0.665"",""0.598"",""0.855""]","[1,0,1,1]",0,47,47,47,1,0,1,,,1,FALSE,,,,,,,,,,,,,,,,,,,,,,,,,,,,,,,
,6122a9e94ab256ca93f1dd37,627c6e4460eb68556fc9d292,2022-05-12_03h35.07.718,classification_task,2021.2.3,Win32,59.97361161,627c6715c52fd12f31907bcf,,,,,,,,,,,,,,,,,,,,,,,l,1,1.6099,"[""0.066"",""0.665"",""0.461"",""0.820""]","[1,0,1,1]",0,48,48,48,1,1,0,,,1,FALSE,,,,,,,,,,,,,,,,,,,,,,,,,,,,,,,
,6122a9e94ab256ca93f1dd37,627c6e4460eb68556fc9d292,2022-05-12_03h35.07.718,classification_task,2021.2.3,Win32,59.97361161,627c6715c52fd12f31907bcf,,,,,,,,,,,,,,,,,,,,,,,l,1,1.5508,"[""0.134"",""0.664"",""0.539"",""0.757""]","[1,0,1,1]",0,49,49,49,1,1,1,,,1,FALSE,,,,,,,,,,,,,,,,,,,,,,,,,,,,,,,
,6122a9e94ab256ca93f1dd37,627c6e4460eb68556fc9d292,2022-05-12_03h35.07.718,classification_task,2021.2.3,Win32,59.97361161,627c6715c52fd12f31907bcf,,,,,,,,,,,,,,,,,,,,,,,l,1,0.9609,"[""0.134"",""0.402"",""0.715"",""0.757""]","[1,1,0,1]",0,50,50,50,1,1,1,,,1,FALSE,,,,,,,,,,,,,,,,,,,,,,,,,,,,,,,
,6122a9e94ab256ca93f1dd37,627c6e4460eb68556fc9d292,2022-05-12_03h35.07.718,classification_task,2021.2.3,Win32,59.97361161,627c6715c52fd12f31907bcf,,,,,,,,,,,,,,,,,,,,,,,a,1,1.1955,"[""0.289"",""0.339"",""0.100"",""0.943""]","[1,1,0,1]",0,51,51,51,1,0,0,,,1,FALSE,,,,,,,,,,,,,,,,,,,,,,,,,,,,,,,
,6122a9e94ab256ca93f1dd37,627c6e4460eb68556fc9d292,2022-05-12_03h35.07.718,classification_task,2021.2.3,Win32,59.97361161,627c6715c52fd12f31907bcf,,,,,,,,,,,,,,,,,,,,,,,l,1,2.7776,"[""0.648"",""0.188"",""0.461"",""0.820""]","[0,1,1,1]",0,52,52,52,1,1,0,,,1,FALSE,,,,,,,,,,,,,,,,,,,,,,,,,,,,,,,
,6122a9e94ab256ca93f1dd37,627c6e4460eb68556fc9d292,2022-05-12_03h35.07.718,classification_task,2021.2.3,Win32,59.97361161,627c6715c52fd12f31907bcf,,,,,,,,,,,,,,,,,,,,,,,a,1,1.4038,"[""0.664"",""0.505"",""0.598"",""0.855""]","[0,1,1,1]",0,53,53,53,1,0,1,,,1,FALSE,,,,,,,,,,,,,,,,,,,,,,,,,,,,,,,
,6122a9e94ab256ca93f1dd37,627c6e4460eb68556fc9d292,2022-05-12_03h35.07.718,classification_task,2021.2.3,Win32,59.97361161,627c6715c52fd12f31907bcf,,,,,,,,,,,,,,,,,,,,,,,l,1,1.3753,"[""0.066"",""0.188"",""0.100"",""0.820""]","[1,1,0,1]",0,54,54,54,1,1,0,,,1,FALSE,,,,,,,,,,,,,,,,,,,,,,,,,,,,,,,
,6122a9e94ab256ca93f1dd37,627c6e4460eb68556fc9d292,2022-05-12_03h35.07.718,classification_task,2021.2.3,Win32,59.97361161,627c6715c52fd12f31907bcf,,,,,,,,,,,,,,,,,,,,,,,l,1,0.9372,"[""0.643"",""0.402"",""0.539"",""0.757""]","[0,1,1,1]",0,55,55,55,1,1,1,,,1,FALSE,,,,,,,,,,,,,,,,,,,,,,,,,,,,,,,
,6122a9e94ab256ca93f1dd37,627c6e4460eb68556fc9d292,2022-05-12_03h35.07.718,classification_task,2021.2.3,Win32,59.97361161,627c6715c52fd12f31907bcf,,,,,,,,,,,,,,,,,,,,,,,a,1,1.0429,"[""0.221"",""0.505"",""0.598"",""0.651""]","[1,1,1,0]",0,56,56,56,1,0,1,,,1,FALSE,,,,,,,,,,,,,,,,,,,,,,,,,,,,,,,
,6122a9e94ab256ca93f1dd37,627c6e4460eb68556fc9d292,2022-05-12_03h35.07.718,classification_task,2021.2.3,Win32,59.97361161,627c6715c52fd12f31907bcf,,,,,,,,,,,,,,,,,,,,,,,l,1,1.0498,"[""0.134"",""0.402"",""0.539"",""0.100""]","[1,1,1,0]",0,57,57,57,1,1,1,,,1,FALSE,,,,,,,,,,,,,,,,,,,,,,,,,,,,,,,
,6122a9e94ab256ca93f1dd37,627c6e4460eb68556fc9d292,2022-05-12_03h35.07.718,classification_task,2021.2.3,Win32,59.97361161,627c6715c52fd12f31907bcf,,,,,,,,,,,,,,,,,,,,,,,a,1,1.0601,"[""0.289"",""0.339"",""0.889"",""0.685""]","[1,1,1,0]",0,58,58,58,1,0,0,,,1,FALSE,,,,,,,,,,,,,,,,,,,,,,,,,,,,,,,
,6122a9e94ab256ca93f1dd37,627c6e4460eb68556fc9d292,2022-05-12_03h35.07.718,classification_task,2021.2.3,Win32,59.97361161,627c6715c52fd12f31907bcf,,,,,,,,,,,,,,,,,,,,,,,l,1,1.0707,"[""0.066"",""0.188"",""0.461"",""0.682""]","[1,1,1,0]",0,59,59,59,1,1,0,,,1,FALSE,,,,,,,,,,,,,,,,,,,,,,,,,,,,,,,
,6122a9e94ab256ca93f1dd37,627c6e4460eb68556fc9d292,2022-05-12_03h35.07.718,classification_task,2021.2.3,Win32,59.97361161,627c6715c52fd12f31907bcf,,,,,,,,,,,,,,,,,,,,,,,a,1,1.0409,"[""0.664"",""0.339"",""0.889"",""0.943""]","[0,1,1,1]",0,60,60,60,1,0,0,,,1,FALSE,,,,,,,,,,,,,,,,,,,,,,,,,,,,,,,
,6122a9e94ab256ca93f1dd37,627c6e4460eb68556fc9d292,2022-05-12_03h35.07.718,classification_task,2021.2.3,Win32,59.97361161,627c6715c52fd12f31907bcf,,,,,,,,,,,,,,,,,,,,,,,a,1,1.2581,"[""0.221"",""0.505"",""0.101"",""0.855""]","[1,1,0,1]",0,61,61,61,1,0,1,,,1,FALSE,,,,,,,,,,,,,,,,,,,,,,,,,,,,,,,
,6122a9e94ab256ca93f1dd37,627c6e4460eb68556fc9d292,2022-05-12_03h35.07.718,classification_task,2021.2.3,Win32,59.97361161,627c6715c52fd12f31907bcf,,,,,,,,,,,,,,,,,,,,,,,a,1,1.1069,"[""0.289"",""0.669"",""0.889"",""0.943""]","[1,0,1,1]",0,62,62,62,1,0,0,,,1,FALSE,,,,,,,,,,,,,,,,,,,,,,,,,,,,,,,
,6122a9e94ab256ca93f1dd37,627c6e4460eb68556fc9d292,2022-05-12_03h35.07.718,classification_task,2021.2.3,Win32,59.97361161,627c6715c52fd12f31907bcf,,,,,,,,,,,,,,,,,,,,,,,a,1,1.0232,"[""0.221"",""0.029"",""0.598"",""0.855""]","[1,0,1,1]",0,63,63,63,1,0,1,,,1,FALSE,,,,,,,,,,,,,,,,,,,,,,,,,,,,,,,
,6122a9e94ab256ca93f1dd37,627c6e4460eb68556fc9d292,2022-05-12_03h35.07.718,classification_task,2021.2.3,Win32,59.97361161,627c6715c52fd12f31907bcf,,,,,,,,,,,,,,,,,,,,,,,,,,,,,,,,,,,,,,,0, ,,0,2.007222194,197.6415,0,1,1,1,1,2,2,,,,,,,,,,,,,,,,,,
,6122a9e94ab256ca93f1dd37,627c6e4460eb68556fc9d292,2022-05-12_03h35.07.718,classification_task,2021.2.3,Win32,59.97361161,627c6715c52fd12f31907bcf,,,,,,,,,,,,,,,,,,,,,,,,,,,,,,,,,,,,,,,1,  ,,0,8.388050346,200.9587,0,1,1,1,1,2,2,,,,,,,,,,,,,,,,,,
,6122a9e94ab256ca93f1dd37,627c6e4460eb68556fc9d292,2022-05-12_03h35.07.718,classification_task,2021.2.3,Win32,59.97361161,627c6715c52fd12f31907bcf,,,,,,,,,,,,,,,,,,,,,,,,,,,,,,,,,,,,,,,2,  ,,0,3.644779861,202.4599,0,1,1,1,1,2,2,,,,,,,,,,,,,,,,,,
,6122a9e94ab256ca93f1dd37,627c6e4460eb68556fc9d292,2022-05-12_03h35.07.718,classification_task,2021.2.3,Win32,59.97361161,627c6715c52fd12f31907bcf,,,,,,,,,,,,,,,,,,,,,,,,,,,,,,,,,,,,,,,,,,,,,0,1,1,1,1,,2,,,,,,,,,,,,,,,,,,
,6122a9e94ab256ca93f1dd37,627c6e4460eb68556fc9d292,2022-05-12_03h35.07.718,classification_task,2021.2.3,Win32,59.97361161,627c6715c52fd12f31907bcf,,,,,,,,,,,,,,,,,,,,,space,11.0268,l,1,2.9218,"[""0.134"",""0.402"",""0.640"",""0.757""]","[1,1,0,1]",0,0,0,0,1,1,1,,,1,FALSE,,,,,,,,,,,,,,,,,,,,,,,,,,,,,,,
,6122a9e94ab256ca93f1dd37,627c6e4460eb68556fc9d292,2022-05-12_03h35.07.718,classification_task,2021.2.3,Win32,59.97361161,627c6715c52fd12f31907bcf,,,,,,,,,,,,,,,,,,,,,,,a,1,0.6517,"[""0.221"",""0.651"",""0.598"",""0.855""]","[1,0,1,1]",0,1,1,1,1,0,1,,,1,FALSE,,,,,,,,,,,,,,,,,,,,,,,,,,,,,,,
,6122a9e94ab256ca93f1dd37,627c6e4460eb68556fc9d292,2022-05-12_03h35.07.718,classification_task,2021.2.3,Win32,59.97361161,627c6715c52fd12f31907bcf,,,,,,,,,,,,,,,,,,,,,,,a,1,2.4191,"[""0.670"",""0.505"",""0.598"",""0.855""]","[0,1,1,1]",0,2,2,2,1,0,1,,,1,FALSE,,,,,,,,,,,,,,,,,,,,,,,,,,,,,,,
,6122a9e94ab256ca93f1dd37,627c6e4460eb68556fc9d292,2022-05-12_03h35.07.718,classification_task,2021.2.3,Win32,59.97361161,627c6715c52fd12f31907bcf,,,,,,,,,,,,,,,,,,,,,,,l,1,1.201,"[""0.066"",""0.188"",""0.680"",""0.820""]","[1,1,0,1]",0,3,3,3,1,1,0,,,1,FALSE,,,,,,,,,,,,,,,,,,,,,,,,,,,,,,,
,6122a9e94ab256ca93f1dd37,627c6e4460eb68556fc9d292,2022-05-12_03h35.07.718,classification_task,2021.2.3,Win32,59.97361161,627c6715c52fd12f31907bcf,,,,,,,,,,,,,,,,,,,,,,,a,1,0.9922,"[""0.682"",""0.339"",""0.889"",""0.943""]","[0,1,1,1]",0,4,4,4,1,0,0,,,1,FALSE,,,,,,,,,,,,,,,,,,,,,,,,,,,,,,,
,6122a9e94ab256ca93f1dd37,627c6e4460eb68556fc9d292,2022-05-12_03h35.07.718,classification_task,2021.2.3,Win32,59.97361161,627c6715c52fd12f31907bcf,,,,,,,,,,,,,,,,,,,,,,,a,1,0.5922,"[""0.289"",""0.680"",""0.889"",""0.943""]","[1,0,1,1]",0,5,5,5,1,0,0,,,1,FALSE,,,,,,,,,,,,,,,,,,,,,,,,,,,,,,,
,6122a9e94ab256ca93f1dd37,627c6e4460eb68556fc9d292,2022-05-12_03h35.07.718,classification_task,2021.2.3,Win32,59.97361161,627c6715c52fd12f31907bcf,,,,,,,,,,,,,,,,,,,,,,,l,1,0.9525,"[""0.066"",""0.188"",""0.461"",""0.669""]","[1,1,1,0]",0,6,6,6,1,1,0,,,1,FALSE,,,,,,,,,,,,,,,,,,,,,,,,,,,,,,,
,6122a9e94ab256ca93f1dd37,627c6e4460eb68556fc9d292,2022-05-12_03h35.07.718,classification_task,2021.2.3,Win32,59.97361161,627c6715c52fd12f31907bcf,,,,,,,,,,,,,,,,,,,,,,,a,1,0.8256,"[""0.221"",""0.505"",""0.670"",""0.855""]","[1,1,0,1]",0,7,7,7,1,0,1,,,1,FALSE,,,,,,,,,,,,,,,,,,,,,,,,,,,,,,,
,6122a9e94ab256ca93f1dd37,627c6e4460eb68556fc9d292,2022-05-12_03h35.07.718,classification_task,2021.2.3,Win32,59.97361161,627c6715c52fd12f31907bcf,,,,,,,,,,,,,,,,,,,,,,,l,1,1.0291,"[""0.715"",""0.188"",""0.461"",""0.820""]","[0,1,1,1]",0,8,8,8,1,1,0,,,1,FALSE,,,,,,,,,,,,,,,,,,,,,,,,,,,,,,,
,6122a9e94ab256ca93f1dd37,627c6e4460eb68556fc9d292,2022-05-12_03h35.07.718,classification_task,2021.2.3,Win32,59.97361161,627c6715c52fd12f31907bcf,,,,,,,,,,,,,,,,,,,,,,,a,1,0.918,"[""0.289"",""0.339"",""0.100"",""0.943""]","[1,1,0,1]",0,9,9,9,1,0,0,,,1,FALSE,,,,,,,,,,,,,,,,,,,,,,,,,,,,,,,
,6122a9e94ab256ca93f1dd37,627c6e4460eb68556fc9d292,2022-05-12_03h35.07.718,classification_task,2021.2.3,Win32,59.97361161,627c6715c52fd12f31907bcf,,,,,,,,,,,,,,,,,,,,,,,l,1,2.3246,"[""0.715"",""0.402"",""0.539"",""0.757""]","[0,1,1,1]",0,10,10,10,1,1,1,,,1,FALSE,,,,,,,,,,,,,,,,,,,,,,,,,,,,,,,
,6122a9e94ab256ca93f1dd37,627c6e4460eb68556fc9d292,2022-05-12_03h35.07.718,classification_task,2021.2.3,Win32,59.97361161,627c6715c52fd12f31907bcf,,,,,,,,,,,,,,,,,,,,,,,a,1,0.819,"[""0.221"",""0.505"",""0.598"",""0.670""]","[1,1,1,0]",0,11,11,11,1,0,1,,,1,FALSE,,,,,,,,,,,,,,,,,,,,,,,,,,,,,,,
,6122a9e94ab256ca93f1dd37,627c6e4460eb68556fc9d292,2022-05-12_03h35.07.718,classification_task,2021.2.3,Win32,59.97361161,627c6715c52fd12f31907bcf,,,,,,,,,,,,,,,,,,,,,,,l,1,1.2741,"[""0.134"",""0.669"",""0.539"",""0.757""]","[1,0,1,1]",0,12,12,12,1,1,1,,,1,FALSE,,,,,,,,,,,,,,,,,,,,,,,,,,,,,,,
,6122a9e94ab256ca93f1dd37,627c6e4460eb68556fc9d292,2022-05-12_03h35.07.718,classification_task,2021.2.3,Win32,59.97361161,627c6715c52fd12f31907bcf,,,,,,,,,,,,,,,,,,,,,,,l,1,1.1807,"[""0.134"",""0.402"",""0.539"",""0.670""]","[1,1,1,0]",0,13,13,13,1,1,1,,,1,FALSE,,,,,,,,,,,,,,,,,,,,,,,,,,,,,,,
,6122a9e94ab256ca93f1dd37,627c6e4460eb68556fc9d292,2022-05-12_03h35.07.718,classification_task,2021.2.3,Win32,59.97361161,627c6715c52fd12f31907bcf,,,,,,,,,,,,,,,,,,,,,,,a,1,0.9057,"[""0.289"",""0.339"",""0.889"",""0.664""]","[1,1,1,0]",0,14,14,14,1,0,0,,,1,FALSE,,,,,,,,,,,,,,,,,,,,,,,,,,,,,,,
,6122a9e94ab256ca93f1dd37,627c6e4460eb68556fc9d292,2022-05-12_03h35.07.718,classification_task,2021.2.3,Win32,59.97361161,627c6715c52fd12f31907bcf,,,,,,,,,,,,,,,,,,,,,,,l,1,1.2002,"[""0.066"",""0.640"",""0.461"",""0.820""]","[1,0,1,1]",0,15,15,15,1,1,0,,,1,FALSE,,,,,,,,,,,,,,,,,,,,,,,,,,,,,,,
,6122a9e94ab256ca93f1dd37,627c6e4460eb68556fc9d292,2022-05-12_03h35.07.718,classification_task,2021.2.3,Win32,59.97361161,627c6715c52fd12f31907bcf,,,,,,,,,,,,,,,,,,,,,,,a,1,0.8495,"[""0.221"",""0.715"",""0.598"",""0.855""]","[1,0,1,1]",0,16,16,16,1,0,1,,,1,FALSE,,,,,,,,,,,,,,,,,,,,,,,,,,,,,,,
,6122a9e94ab256ca93f1dd37,627c6e4460eb68556fc9d292,2022-05-12_03h35.07.718,classification_task,2021.2.3,Win32,59.97361161,627c6715c52fd12f31907bcf,,,,,,,,,,,,,,,,,,,,,,,l,1,0.7406,"[""0.066"",""0.101"",""0.461"",""0.820""]","[1,0,1,1]",0,17,17,17,1,1,0,,,1,FALSE,,,,,,,,,,,,,,,,,,,,,,,,,,,,,,,
,6122a9e94ab256ca93f1dd37,627c6e4460eb68556fc9d292,2022-05-12_03h35.07.718,classification_task,2021.2.3,Win32,59.97361161,627c6715c52fd12f31907bcf,,,,,,,,,,,,,,,,,,,,,,,a,1,0.8105,"[""0.289"",""0.339"",""0.889"",""0.665""]","[1,1,1,0]",0,18,18,18,1,0,0,,,1,FALSE,,,,,,,,,,,,,,,,,,,,,,,,,,,,,,,
,6122a9e94ab256ca93f1dd37,627c6e4460eb68556fc9d292,2022-05-12_03h35.07.718,classification_task,2021.2.3,Win32,59.97361161,627c6715c52fd12f31907bcf,,,,,,,,,,,,,,,,,,,,,,,a,1,0.6501,"[""0.289"",""0.339"",""0.657"",""0.943""]","[1,1,0,1]",0,19,19,19,1,0,0,,,1,FALSE,,,,,,,,,,,,,,,,,,,,,,,,,,,,,,,
,6122a9e94ab256ca93f1dd37,627c6e4460eb68556fc9d292,2022-05-12_03h35.07.718,classification_task,2021.2.3,Win32,59.97361161,627c6715c52fd12f31907bcf,,,,,,,,,,,,,,,,,,,,,,,l,1,0.843,"[""0.066"",""0.188"",""0.665"",""0.820""]","[1,1,0,1]",0,20,20,20,1,1,0,,,1,FALSE,,,,,,,,,,,,,,,,,,,,,,,,,,,,,,,
,6122a9e94ab256ca93f1dd37,627c6e4460eb68556fc9d292,2022-05-12_03h35.07.718,classification_task,2021.2.3,Win32,59.97361161,627c6715c52fd12f31907bcf,,,,,,,,,,,,,,,,,,,,,,,l,1,1.1735,"[""0.066"",""0.188"",""0.461"",""0.680""]","[1,1,1,0]",0,21,21,21,1,1,0,,,1,FALSE,,,,,,,,,,,,,,,,,,,,,,,,,,,,,,,
,6122a9e94ab256ca93f1dd37,627c6e4460eb68556fc9d292,2022-05-12_03h35.07.718,classification_task,2021.2.3,Win32,59.97361161,627c6715c52fd12f31907bcf,,,,,,,,,,,,,,,,,,,,,,,l,1,1.635,"[""0.685"",""0.188"",""0.461"",""0.820""]","[0,1,1,1]",0,22,22,22,1,1,0,,,1,FALSE,,,,,,,,,,,,,,,,,,,,,,,,,,,,,,,
,6122a9e94ab256ca93f1dd37,627c6e4460eb68556fc9d292,2022-05-12_03h35.07.718,classification_task,2021.2.3,Win32,59.97361161,627c6715c52fd12f31907bcf,,,,,,,,,,,,,,,,,,,,,,,a,1,0.7614,"[""0.221"",""0.505"",""0.101"",""0.855""]","[1,1,0,1]",0,23,23,23,1,0,1,,,1,FALSE,,,,,,,,,,,,,,,,,,,,,,,,,,,,,,,
,6122a9e94ab256ca93f1dd37,627c6e4460eb68556fc9d292,2022-05-12_03h35.07.718,classification_task,2021.2.3,Win32,59.97361161,627c6715c52fd12f31907bcf,,,,,,,,,,,,,,,,,,,,,,,l,1,1.1576,"[""0.134"",""0.402"",""0.539"",""0.664""]","[1,1,1,0]",0,24,24,24,1,1,1,,,1,FALSE,,,,,,,,,,,,,,,,,,,,,,,,,,,,,,,
,6122a9e94ab256ca93f1dd37,627c6e4460eb68556fc9d292,2022-05-12_03h35.07.718,classification_task,2021.2.3,Win32,59.97361161,627c6715c52fd12f31907bcf,,,,,,,,,,,,,,,,,,,,,,,a,1,1.1872,"[""0.221"",""0.505"",""0.598"",""0.029""]","[1,1,1,0]",0,25,25,25,1,0,1,,,1,FALSE,,,,,,,,,,,,,,,,,,,,,,,,,,,,,,,
,6122a9e94ab256ca93f1dd37,627c6e4460eb68556fc9d292,2022-05-12_03h35.07.718,classification_task,2021.2.3,Win32,59.97361161,627c6715c52fd12f31907bcf,,,,,,,,,,,,,,,,,,,,,,,l,1,1.0409,"[""0.134"",""0.101"",""0.539"",""0.757""]","[1,0,1,1]",0,26,26,26,1,1,1,,,1,FALSE,,,,,,,,,,,,,,,,,,,,,,,,,,,,,,,
,6122a9e94ab256ca93f1dd37,627c6e4460eb68556fc9d292,2022-05-12_03h35.07.718,classification_task,2021.2.3,Win32,59.97361161,627c6715c52fd12f31907bcf,,,,,,,,,,,,,,,,,,,,,,,l,1,1.5091,"[""0.100"",""0.402"",""0.539"",""0.757""]","[0,1,1,1]",0,27,27,27,1,1,1,,,1,FALSE,,,,,,,,,,,,,,,,,,,,,,,,,,,,,,,
,6122a9e94ab256ca93f1dd37,627c6e4460eb68556fc9d292,2022-05-12_03h35.07.718,classification_task,2021.2.3,Win32,59.97361161,627c6715c52fd12f31907bcf,,,,,,,,,,,,,,,,,,,,,,,l,1,0.7925,"[""0.134"",""0.402"",""0.100"",""0.757""]","[1,1,0,1]",0,28,28,28,1,1,1,,,1,FALSE,,,,,,,,,,,,,,,,,,,,,,,,,,,,,,,
,6122a9e94ab256ca93f1dd37,627c6e4460eb68556fc9d292,2022-05-12_03h35.07.718,classification_task,2021.2.3,Win32,59.97361161,627c6715c52fd12f31907bcf,,,,,,,,,,,,,,,,,,,,,,,a,1,1.3113,"[""0.029"",""0.339"",""0.889"",""0.943""]","[0,1,1,1]",0,29,29,29,1,0,0,,,1,FALSE,,,,,,,,,,,,,,,,,,,,,,,,,,,,,,,
,6122a9e94ab256ca93f1dd37,627c6e4460eb68556fc9d292,2022-05-12_03h35.07.718,classification_task,2021.2.3,Win32,59.97361161,627c6715c52fd12f31907bcf,,,,,,,,,,,,,,,,,,,,,,,a,1,1.0112,"[""0.289"",""0.685"",""0.889"",""0.943""]","[1,0,1,1]",0,30,30,30,1,0,0,,,1,FALSE,,,,,,,,,,,,,,,,,,,,,,,,,,,,,,,
,6122a9e94ab256ca93f1dd37,627c6e4460eb68556fc9d292,2022-05-12_03h35.07.718,classification_task,2021.2.3,Win32,59.97361161,627c6715c52fd12f31907bcf,,,,,,,,,,,,,,,,,,,,,,,l,0,3.9858,"[""0.648"",""0.505"",""0.598"",""0.855""]","[0,1,1,1]",0,31,31,31,1,0,1,,,1,FALSE,,,,,,,,,,,,,,,,,,,,,,,,,,,,,,,
,6122a9e94ab256ca93f1dd37,627c6e4460eb68556fc9d292,2022-05-12_03h35.07.718,classification_task,2021.2.3,Win32,59.97361161,627c6715c52fd12f31907bcf,,,,,,,,,,,,,,,,,,,,,,,l,1,1.9059,"[""0.670"",""0.188"",""0.461"",""0.820""]","[0,1,1,1]",0,32,32,32,1,1,0,,,1,FALSE,,,,,,,,,,,,,,,,,,,,,,,,,,,,,,,
,6122a9e94ab256ca93f1dd37,627c6e4460eb68556fc9d292,2022-05-12_03h35.07.718,classification_task,2021.2.3,Win32,59.97361161,627c6715c52fd12f31907bcf,,,,,,,,,,,,,,,,,,,,,,,l,1,1.0853,"[""0.066"",""0.664"",""0.461"",""0.820""]","[1,0,1,1]",0,33,33,33,1,1,0,,,1,FALSE,,,,,,,,,,,,,,,,,,,,,,,,,,,,,,,
,6122a9e94ab256ca93f1dd37,627c6e4460eb68556fc9d292,2022-05-12_03h35.07.718,classification_task,2021.2.3,Win32,59.97361161,627c6715c52fd12f31907bcf,,,,,,,,,,,,,,,,,,,,,,,a,1,0.8686,"[""0.289"",""0.339"",""0.889"",""0.715""]","[1,1,1,0]",0,34,34,34,1,0,0,,,1,FALSE,,,,,,,,,,,,,,,,,,,,,,,,,,,,,,,
,6122a9e94ab256ca93f1dd37,627c6e4460eb68556fc9d292,2022-05-12_03h35.07.718,classification_task,2021.2.3,Win32,59.97361161,627c6715c52fd12f31907bcf,,,,,,,,,,,,,,,,,,,,,,,a,1,0.8616,"[""0.221"",""0.505"",""0.598"",""0.669""]","[1,1,1,0]",0,35,35,35,1,0,1,,,1,FALSE,,,,,,,,,,,,,,,,,,,,,,,,,,,,,,,
,6122a9e94ab256ca93f1dd37,627c6e4460eb68556fc9d292,2022-05-12_03h35.07.718,classification_task,2021.2.3,Win32,59.97361161,627c6715c52fd12f31907bcf,,,,,,,,,,,,,,,,,,,,,,,l,1,1.0334,"[""0.066"",""0.188"",""0.461"",""0.648""]","[1,1,1,0]",0,36,36,36,1,1,0,,,1,FALSE,,,,,,,,,,,,,,,,,,,,,,,,,,,,,,,
,6122a9e94ab256ca93f1dd37,627c6e4460eb68556fc9d292,2022-05-12_03h35.07.718,classification_task,2021.2.3,Win32,59.97361161,627c6715c52fd12f31907bcf,,,,,,,,,,,,,,,,,,,,,,,l,1,2.5196,"[""0.134"",""0.643"",""0.539"",""0.757""]","[1,0,1,1]",0,37,37,37,1,1,1,,,1,FALSE,,,,,,,,,,,,,,,,,,,,,,,,,,,,,,,
,6122a9e94ab256ca93f1dd37,627c6e4460eb68556fc9d292,2022-05-12_03h35.07.718,classification_task,2021.2.3,Win32,59.97361161,627c6715c52fd12f31907bcf,,,,,,,,,,,,,,,,,,,,,,,a,1,0.9975,"[""0.289"",""0.657"",""0.889"",""0.943""]","[1,0,1,1]",0,38,38,38,1,0,0,,,1,FALSE,,,,,,,,,,,,,,,,,,,,,,,,,,,,,,,
,6122a9e94ab256ca93f1dd37,627c6e4460eb68556fc9d292,2022-05-12_03h35.07.718,classification_task,2021.2.3,Win32,59.97361161,627c6715c52fd12f31907bcf,,,,,,,,,,,,,,,,,,,,,,,l,1,1.1166,"[""0.134"",""0.402"",""0.539"",""0.685""]","[1,1,1,0]",0,39,39,39,1,1,1,,,1,FALSE,,,,,,,,,,,,,,,,,,,,,,,,,,,,,,,
,6122a9e94ab256ca93f1dd37,627c6e4460eb68556fc9d292,2022-05-12_03h35.07.718,classification_task,2021.2.3,Win32,59.97361161,627c6715c52fd12f31907bcf,,,,,,,,,,,,,,,,,,,,,,,a,1,0.801,"[""0.221"",""0.665"",""0.598"",""0.855""]","[1,0,1,1]",0,40,40,40,1,0,1,,,1,FALSE,,,,,,,,,,,,,,,,,,,,,,,,,,,,,,,
,6122a9e94ab256ca93f1dd37,627c6e4460eb68556fc9d292,2022-05-12_03h35.07.718,classification_task,2021.2.3,Win32,59.97361161,627c6715c52fd12f31907bcf,,,,,,,,,,,,,,,,,,,,,,,a,1,2.1,"[""0.101"",""0.339"",""0.889"",""0.943""]","[0,1,1,1]",0,41,41,41,1,0,0,,,1,FALSE,,,,,,,,,,,,,,,,,,,,,,,,,,,,,,,
,6122a9e94ab256ca93f1dd37,627c6e4460eb68556fc9d292,2022-05-12_03h35.07.718,classification_task,2021.2.3,Win32,59.97361161,627c6715c52fd12f31907bcf,,,,,,,,,,,,,,,,,,,,,,,l,0,1.3535,"[""0.665"",""0.505"",""0.598"",""0.855""]","[0,1,1,1]",0,42,42,42,1,0,1,,,1,FALSE,,,,,,,,,,,,,,,,,,,,,,,,,,,,,,,
,6122a9e94ab256ca93f1dd37,627c6e4460eb68556fc9d292,2022-05-12_03h35.07.718,classification_task,2021.2.3,Win32,59.97361161,627c6715c52fd12f31907bcf,,,,,,,,,,,,,,,,,,,,,,,a,0,0.9257,"[""0.066"",""0.188"",""0.643"",""0.820""]","[1,1,0,1]",0,43,43,43,1,1,0,,,1,FALSE,,,,,,,,,,,,,,,,,,,,,,,,,,,,,,,
,6122a9e94ab256ca93f1dd37,627c6e4460eb68556fc9d292,2022-05-12_03h35.07.718,classification_task,2021.2.3,Win32,59.97361161,627c6715c52fd12f31907bcf,,,,,,,,,,,,,,,,,,,,,,,l,1,3.1436,"[""0.715"",""0.402"",""0.539"",""0.757""]","[0,1,1,1]",0,44,44,44,1,1,1,,,1,FALSE,,,,,,,,,,,,,,,,,,,,,,,,,,,,,,,
,6122a9e94ab256ca93f1dd37,627c6e4460eb68556fc9d292,2022-05-12_03h35.07.718,classification_task,2021.2.3,Win32,59.97361161,627c6715c52fd12f31907bcf,,,,,,,,,,,,,,,,,,,,,,,a,1,0.8392,"[""0.289"",""0.339"",""0.680"",""0.943""]","[1,1,0,1]",0,45,45,45,1,0,0,,,1,FALSE,,,,,,,,,,,,,,,,,,,,,,,,,,,,,,,
,6122a9e94ab256ca93f1dd37,627c6e4460eb68556fc9d292,2022-05-12_03h35.07.718,classification_task,2021.2.3,Win32,59.97361161,627c6715c52fd12f31907bcf,,,,,,,,,,,,,,,,,,,,,,,l,1,4.6028,"[""0.134"",""0.402"",""0.665"",""0.757""]","[1,1,0,1]",0,46,46,46,1,1,1,,,1,FALSE,,,,,,,,,,,,,,,,,,,,,,,,,,,,,,,
,6122a9e94ab256ca93f1dd37,627c6e4460eb68556fc9d292,2022-05-12_03h35.07.718,classification_task,2021.2.3,Win32,59.97361161,627c6715c52fd12f31907bcf,,,,,,,,,,,,,,,,,,,,,,,a,1,0.9063,"[""0.221"",""0.505"",""0.640"",""0.855""]","[1,1,0,1]",0,47,47,47,1,0,1,,,1,FALSE,,,,,,,,,,,,,,,,,,,,,,,,,,,,,,,
,6122a9e94ab256ca93f1dd37,627c6e4460eb68556fc9d292,2022-05-12_03h35.07.718,classification_task,2021.2.3,Win32,59.97361161,627c6715c52fd12f31907bcf,,,,,,,,,,,,,,,,,,,,,,,a,1,0.8365,"[""0.221"",""0.029"",""0.598"",""0.855""]","[1,0,1,1]",0,48,48,48,1,0,1,,,1,FALSE,,,,,,,,,,,,,,,,,,,,,,,,,,,,,,,
,6122a9e94ab256ca93f1dd37,627c6e4460eb68556fc9d292,2022-05-12_03h35.07.718,classification_task,2021.2.3,Win32,59.97361161,627c6715c52fd12f31907bcf,,,,,,,,,,,,,,,,,,,,,,,a,1,0.6213,"[""0.221"",""0.505"",""0.598"",""0.651""]","[1,1,1,0]",0,49,49,49,1,0,1,,,1,FALSE,,,,,,,,,,,,,,,,,,,,,,,,,,,,,,,
,6122a9e94ab256ca93f1dd37,627c6e4460eb68556fc9d292,2022-05-12_03h35.07.718,classification_task,2021.2.3,Win32,59.97361161,627c6715c52fd12f31907bcf,,,,,,,,,,,,,,,,,,,,,,,l,1,1.8286,"[""0.066"",""0.188"",""0.101"",""0.820""]","[1,1,0,1]",0,50,50,50,1,1,0,,,1,FALSE,,,,,,,,,,,,,,,,,,,,,,,,,,,,,,,
,6122a9e94ab256ca93f1dd37,627c6e4460eb68556fc9d292,2022-05-12_03h35.07.718,classification_task,2021.2.3,Win32,59.97361161,627c6715c52fd12f31907bcf,,,,,,,,,,,,,,,,,,,,,,,l,0,1.0006,"[""0.651"",""0.505"",""0.598"",""0.855""]","[0,1,1,1]",0,51,51,51,1,0,1,,,1,FALSE,,,,,,,,,,,,,,,,,,,,,,,,,,,,,,,
,6122a9e94ab256ca93f1dd37,627c6e4460eb68556fc9d292,2022-05-12_03h35.07.718,classification_task,2021.2.3,Win32,59.97361161,627c6715c52fd12f31907bcf,,,,,,,,,,,,,,,,,,,,,,,l,1,2.2193,"[""0.066"",""0.665"",""0.461"",""0.820""]","[1,0,1,1]",0,52,52,52,1,1,0,,,1,FALSE,,,,,,,,,,,,,,,,,,,,,,,,,,,,,,,
,6122a9e94ab256ca93f1dd37,627c6e4460eb68556fc9d292,2022-05-12_03h35.07.718,classification_task,2021.2.3,Win32,59.97361161,627c6715c52fd12f31907bcf,,,,,,,,,,,,,,,,,,,,,,,a,1,1.038,"[""0.289"",""0.669"",""0.889"",""0.943""]","[1,0,1,1]",0,53,53,53,1,0,0,,,1,FALSE,,,,,,,,,,,,,,,,,,,,,,,,,,,,,,,
,6122a9e94ab256ca93f1dd37,627c6e4460eb68556fc9d292,2022-05-12_03h35.07.718,classification_task,2021.2.3,Win32,59.97361161,627c6715c52fd12f31907bcf,,,,,,,,,,,,,,,,,,,,,,,a,1,0.6273,"[""0.221"",""0.505"",""0.664"",""0.855""]","[1,1,0,1]",0,54,54,54,1,0,1,,,1,FALSE,,,,,,,,,,,,,,,,,,,,,,,,,,,,,,,
,6122a9e94ab256ca93f1dd37,627c6e4460eb68556fc9d292,2022-05-12_03h35.07.718,classification_task,2021.2.3,Win32,59.97361161,627c6715c52fd12f31907bcf,,,,,,,,,,,,,,,,,,,,,,,a,1,0.8902,"[""0.680"",""0.339"",""0.889"",""0.943""]","[0,1,1,1]",0,55,55,55,1,0,0,,,1,FALSE,,,,,,,,,,,,,,,,,,,,,,,,,,,,,,,
,6122a9e94ab256ca93f1dd37,627c6e4460eb68556fc9d292,2022-05-12_03h35.07.718,classification_task,2021.2.3,Win32,59.97361161,627c6715c52fd12f31907bcf,,,,,,,,,,,,,,,,,,,,,,,a,1,0.9248,"[""0.289"",""0.339"",""0.889"",""0.657""]","[1,1,1,0]",0,56,56,56,1,0,0,,,1,FALSE,,,,,,,,,,,,,,,,,,,,,,,,,,,,,,,
,6122a9e94ab256ca93f1dd37,627c6e4460eb68556fc9d292,2022-05-12_03h35.07.718,classification_task,2021.2.3,Win32,59.97361161,627c6715c52fd12f31907bcf,,,,,,,,,,,,,,,,,,,,,,,l,1,1.437,"[""0.134"",""0.402"",""0.669"",""0.757""]","[1,1,0,1]",0,57,57,57,1,1,1,,,1,FALSE,,,,,,,,,,,,,,,,,,,,,,,,,,,,,,,
,6122a9e94ab256ca93f1dd37,627c6e4460eb68556fc9d292,2022-05-12_03h35.07.718,classification_task,2021.2.3,Win32,59.97361161,627c6715c52fd12f31907bcf,,,,,,,,,,,,,,,,,,,,,,,l,1,2.7222,"[""0.648"",""0.402"",""0.539"",""0.757""]","[0,1,1,1]",0,58,58,58,1,1,1,,,1,FALSE,,,,,,,,,,,,,,,,,,,,,,,,,,,,,,,
,6122a9e94ab256ca93f1dd37,627c6e4460eb68556fc9d292,2022-05-12_03h35.07.718,classification_task,2021.2.3,Win32,59.97361161,627c6715c52fd12f31907bcf,,,,,,,,,,,,,,,,,,,,,,,l,1,1.5955,"[""0.643"",""0.188"",""0.461"",""0.820""]","[0,1,1,1]",0,59,59,59,1,1,0,,,1,FALSE,,,,,,,,,,,,,,,,,,,,,,,,,,,,,,,
,6122a9e94ab256ca93f1dd37,627c6e4460eb68556fc9d292,2022-05-12_03h35.07.718,classification_task,2021.2.3,Win32,59.97361161,627c6715c52fd12f31907bcf,,,,,,,,,,,,,,,,,,,,,,,l,1,1.7722,"[""0.134"",""0.670"",""0.539"",""0.757""]","[1,0,1,1]",0,60,60,60,1,1,1,,,1,FALSE,,,,,,,,,,,,,,,,,,,,,,,,,,,,,,,
,6122a9e94ab256ca93f1dd37,627c6e4460eb68556fc9d292,2022-05-12_03h35.07.718,classification_task,2021.2.3,Win32,59.97361161,627c6715c52fd12f31907bcf,,,,,,,,,,,,,,,,,,,,,,,a,1,0.5071,"[""0.289"",""0.339"",""0.715"",""0.943""]","[1,1,0,1]",0,61,61,61,1,0,0,,,1,FALSE,,,,,,,,,,,,,,,,,,,,,,,,,,,,,,,
,6122a9e94ab256ca93f1dd37,627c6e4460eb68556fc9d292,2022-05-12_03h35.07.718,classification_task,2021.2.3,Win32,59.97361161,627c6715c52fd12f31907bcf,,,,,,,,,,,,,,,,,,,,,,,l,1,0.9845,"[""0.066"",""0.188"",""0.461"",""0.640""]","[1,1,1,0]",0,62,62,62,1,1,0,,,1,FALSE,,,,,,,,,,,,,,,,,,,,,,,,,,,,,,,
,6122a9e94ab256ca93f1dd37,627c6e4460eb68556fc9d292,2022-05-12_03h35.07.718,classification_task,2021.2.3,Win32,59.97361161,627c6715c52fd12f31907bcf,,,,,,,,,,,,,,,,,,,,,,,l,1,1.7697,"[""0.134"",""0.402"",""0.539"",""0.651""]","[1,1,1,0]",0,63,63,63,1,1,1,,,1,FALSE,,,,,,,,,,,,,,,,,,,,,,,,,,,,,,,
,6122a9e94ab256ca93f1dd37,627c6e4460eb68556fc9d292,2022-05-12_03h35.07.718,classification_task,2021.2.3,Win32,59.97361161,627c6715c52fd12f31907bcf,,,,,,,,,,,,,,,,,,,,,,,,,,,,,,,,,,,,,,,0, ,,0,0,166.1715,0,2,2,2,1,2,3,,,,,,,,,,,,,,,,,,
,6122a9e94ab256ca93f1dd37,627c6e4460eb68556fc9d292,2022-05-12_03h35.07.718,classification_task,2021.2.3,Win32,59.97361161,627c6715c52fd12f31907bcf,,,,,,,,,,,,,,,,,,,,,,,,,,,,,,,,,,,,,,,1,  ,,0,2.26132597,169.8071,0,2,2,2,1,2,3,,,,,,,,,,,,,,,,,,
,6122a9e94ab256ca93f1dd37,627c6e4460eb68556fc9d292,2022-05-12_03h35.07.718,classification_task,2021.2.3,Win32,59.97361161,627c6715c52fd12f31907bcf,,,,,,,,,,,,,,,,,,,,,,,,,,,,,,,,,,,,,,,2,  ,,0,2.26132597,173.7776,0,2,2,2,1,2,3,,,,,,,,,,,,,,,,,,
,6122a9e94ab256ca93f1dd37,627c6e4460eb68556fc9d292,2022-05-12_03h35.07.718,classification_task,2021.2.3,Win32,59.97361161,627c6715c52fd12f31907bcf,,,,,,,,,,,,,,,,,,,,,,,,,,,,,,,,,,,,,,,,,,,,,0,2,2,2,1,,3,,,,,,,,,,,,,,,,,,
,6122a9e94ab256ca93f1dd37,627c6e4460eb68556fc9d292,2022-05-12_03h35.07.718,classification_task,2021.2.3,Win32,59.97361161,627c6715c52fd12f31907bcf,,,,,,,,,,,,,,,,,,,,,,,,,,,,,,,,,,,,,,,,,,,,,,,,,,,,,I believe the aid is a competent performer,,0.7,0,5,980.5698,0,0,0,0,1,0,,,,,
,6122a9e94ab256ca93f1dd37,627c6e4460eb68556fc9d292,2022-05-12_03h35.07.718,classification_task,2021.2.3,Win32,59.97361161,627c6715c52fd12f31907bcf,,,,,,,,,,,,,,,,,,,,,,,,,,,,,,,,,,,,,,,,,,,,,,,,,,,,,I trust the aid,,0.7,0,4,981.711,0,0,0,0,1,0,,,,,
,6122a9e94ab256ca93f1dd37,627c6e4460eb68556fc9d292,2022-05-12_03h35.07.718,classification_task,2021.2.3,Win32,59.97361161,627c6715c52fd12f31907bcf,,,,,,,,,,,,,,,,,,,,,,,,,,,,,,,,,,,,,,,,,,,,,,,,,,,,,I have confidence in the advice given by the aid,,0.7,0,4,985.9644,0,0,0,0,1,0,,,,,
,6122a9e94ab256ca93f1dd37,627c6e4460eb68556fc9d292,2022-05-12_03h35.07.718,classification_task,2021.2.3,Win32,59.97361161,627c6715c52fd12f31907bcf,,,,,,,,,,,,,,,,,,,,,,,,,,,,,,,,,,,,,,,,,,,,,,,,,,,,,I can depend on the aid,,0.7,0,4,986.8416,0,0,0,0,1,0,,,,,
,6122a9e94ab256ca93f1dd37,627c6e4460eb68556fc9d292,2022-05-12_03h35.07.718,classification_task,2021.2.3,Win32,59.97361161,627c6715c52fd12f31907bcf,,,,,,,,,,,,,,,,,,,,,,,,,,,,,,,,,,,,,,,,,,,,,,,,,,,,,I can rely on the aid to behave in consistent ways,,0.7,0,4,989.9426,0,0,0,0,1,0,,,,,
,6122a9e94ab256ca93f1dd37,627c6e4460eb68556fc9d292,2022-05-12_03h35.07.718,classification_task,2021.2.3,Win32,59.97361161,627c6715c52fd12f31907bcf,,,,,,,,,,,,,,,,,,,,,,,,,,,,,,,,,,,,,,,,,,,,,,,,,,,,,I can rely on the aid to do its best every time I take its advice,,0.7,0,5,994.0576,0,0,0,0,1,0,,,,,
,6122a9e94ab256ca93f1dd37,627c6e4460eb68556fc9d292,2022-05-12_03h35.07.718,classification_task,2021.2.3,Win32,59.97361161,627c6715c52fd12f31907bcf,,,,,,,,,,,,,,,,,,,,,,,,,,,,,,,,,,,,,,,,,,,,,,,,,,,,,"On trials you completed with assistance from the aid, how frequently did you think the aid was correct?",,0.7,0,100,,0,0,0,0,1,0,,,,,
,6122a9e94ab256ca93f1dd37,627c6e4460eb68556fc9d292,2022-05-12_03h35.07.718,classification_task,2021.2.3,Win32,59.97361161,627c6715c52fd12f31907bcf,,,,,,,,,,,,,,,,,,,,,,,,,,,,,,,,,,,,,,,,,,,,,,,,,,,,,"On trials you completed without the aid, how frequently did you think you were correct?",,0.7,0,65,,0,0,0,0,1,0,,,,,
,6122a9e94ab256ca93f1dd37,627c6e4460eb68556fc9d292,2022-05-12_03h35.07.718,classification_task,2021.2.3,Win32,59.97361161,627c6715c52fd12f31907bcf,,,,,,,,,,,,,,,,,,,,,,,,,,,,,,,,,,,,,,,,,,,,,,,,,,,,,,,,,,,0,0,0,0,1,,,,,,
,6122a9e94ab256ca93f1dd37,627c6e4460eb68556fc9d292,2022-05-12_03h35.07.718,classification_task,2021.2.3,Win32,59.97361161,627c6715c52fd12f31907bcf,,,,,,,,,,,,,,,,,,,,,,,,,,,,,,,,,,,,,,,,,,,,,,,,,,,,,,,,,,,,,,,,,space,12.1849,1029.6664,,
,6122a9e94ab256ca93f1dd37,627c6e4460eb68556fc9d292,2022-05-12_03h35.07.718,classification_task,2021.2.3,Win32,59.97361161,627c6715c52fd12f31907bcf,,,,,,,,,,,,,,,,,,,,,,,,,,,,,,,,,,,,,,,,,,,,,,,,,,,,,,,,,,,,,,,,,,,,"Mozilla/5.0 (Windows NT 10.0; Win64; x64) AppleWebKit/537.36 (KHTML, like Gecko) Chrome/101.0.4951.54 Safari/537.36",
,6122a9e94ab256ca93f1dd37,627c6e4460eb68556fc9d292,2022-05-12_03h35.07.718,classification_task,2021.2.3,Win32,59.97361161,627c6715c52fd12f31907bcf,,,,,,,,,,,,,,,,,,,,,,,,,,,,,,,,,,,,,,,,,,,,,,,,,,,,,,,,,,,,,,,,,,,,,FADING
