usingWebGL,participant,session,date,expName,psychopyVersion,OS,frameRate,PROLIFIC_PID,STUDY_ID,SESSION_ID,signatures_friend,signatures_foe,band_ranges_top,band_ranges_bottom,formitemText,formtype,formundefined,formitemWidth,formindex,formresponse,formrt,key_resp_2.keys,key_resp_2.rt,tute_resp.keys,tute_resp.rt,tutorial.thisRepN,tutorial.thisTrialN,tutorial.thisN,tutorial.thisIndex,tutorial.ran,key_resp_4.keys,key_resp_4.rt,key_resp.keys,key_resp.corr,lines_presented,is_signal_presented,trials.thisRepN,trials.thisTrialN,trials.thisN,trials.thisIndex,trials.ran,vessel,active_band,lines,is_signal,supported_pos,catch_trial,key_resp.rt,debrief_formindex,debrief_formitemText,debrief_formtype,debrief_formitemWidth,debrief_formresponse,debrief_formrt,phases.thisRepN,phases.thisTrialN,phases.thisN,phases.thisIndex,phases.ran,phases.order,phase,key_resp_3.keys,trustitemText,trusttype,trustitemWidth,trustindex,trustresponse,trustrt,support_status.thisRepN,support_status.thisTrialN,support_status.thisN,support_status.thisIndex,support_status.ran,support_status.order,key_resp_5.keys,key_resp_5.rt,globalClockTime,userAgent
TRUE,612305f2c3a79ccc85ffdf54,001,2022-04-28_21h09.50.047,classification_task,2021.2.3,Win32,59.81576744,612305f2c3a79ccc85ffdf54,626b377229c10585ec392f89,626b3abbd3839e0793b5811c,,,,,,,,,,,,,,,,,,,,,,,,,,,,,,,,,,,,,,,,,,,,,,,,,,,,,,,,,,,,,,,,,,,,
,612305f2c3a79ccc85ffdf54,001,2022-04-28_21h09.50.047,classification_task,2021.2.3,Win32,59.81576744,612305f2c3a79ccc85ffdf54,626b377229c10585ec392f89,626b3abbd3839e0793b5811c,"[[""0.304"",""0.347"",""0.631"",""0.887""],[""0.202"",""0.446"",""0.793"",""0.924""]]","[[""0.078"",""0.237"",""0.576"",""0.735""],[""0.044"",""0.116"",""0.514"",""0.837""]]","[1,10]","[100,1000]",Video game experience,,,0.7,0,,,,,,,,,,,,,,,,,,,,,,,,,,,,,,,,,,,,,,,,,,,,,,,,,,,,,,,,,,,
,612305f2c3a79ccc85ffdf54,001,2022-04-28_21h09.50.047,classification_task,2021.2.3,Win32,59.81576744,612305f2c3a79ccc85ffdf54,626b377229c10585ec392f89,626b3abbd3839e0793b5811c,,,,,Approximately how many hours did you spend playing video games in the last week?,,,0.7,0,15,,,,,,,,,,,,,,,,,,,,,,,,,,,,,,,,,,,,,,,,,,,,,,,,,,,,,,,,,,
,612305f2c3a79ccc85ffdf54,001,2022-04-28_21h09.50.047,classification_task,2021.2.3,Win32,59.81576744,612305f2c3a79ccc85ffdf54,626b377229c10585ec392f89,626b3abbd3839e0793b5811c,,,,,"Which game did you play the most this year? (Enter ""None"" if you didn't play any)",,,0.7,0,League of Legends,,,,,,,,,,,,,,,,,,,,,,,,,,,,,,,,,,,,,,,,,,,,,,,,,,,,,,,,,,
,612305f2c3a79ccc85ffdf54,001,2022-04-28_21h09.50.047,classification_task,2021.2.3,Win32,59.81576744,612305f2c3a79ccc85ffdf54,626b377229c10585ec392f89,626b3abbd3839e0793b5811c,,,,,Visual perception,,,0.7,0,,,,,,,,,,,,,,,,,,,,,,,,,,,,,,,,,,,,,,,,,,,,,,,,,,,,,,,,,,,
,612305f2c3a79ccc85ffdf54,001,2022-04-28_21h09.50.047,classification_task,2021.2.3,Win32,59.81576744,612305f2c3a79ccc85ffdf54,626b377229c10585ec392f89,626b3abbd3839e0793b5811c,,,,,Do you have any form of color blindness?,,,0.7,0,No,15.4731,,,,,,,,,,,,,,,,,,,,,,,,,,,,,,,,,,,,,,,,,,,,,,,,,,,,,,,,,
,612305f2c3a79ccc85ffdf54,001,2022-04-28_21h09.50.047,classification_task,2021.2.3,Win32,59.81576744,612305f2c3a79ccc85ffdf54,626b377229c10585ec392f89,626b3abbd3839e0793b5811c,,,,,Do you use software to change the colour temperature of your screen (e.g. f.lux)?,,,0.7,0,No,17.4585,,,,,,,,,,,,,,,,,,,,,,,,,,,,,,,,,,,,,,,,,,,,,,,,,,,,,,,,,
,612305f2c3a79ccc85ffdf54,001,2022-04-28_21h09.50.047,classification_task,2021.2.3,Win32,59.81576744,612305f2c3a79ccc85ffdf54,626b377229c10585ec392f89,626b3abbd3839e0793b5811c,,,,,,,,,,,,space,6.9476,space,4.9818,0,0,0,0,1,,,,,,,,,,,,,,,,,,,,,,,,,,,,,,,,,,,,,,,,,,,,,,,,
,612305f2c3a79ccc85ffdf54,001,2022-04-28_21h09.50.047,classification_task,2021.2.3,Win32,59.81576744,612305f2c3a79ccc85ffdf54,626b377229c10585ec392f89,626b3abbd3839e0793b5811c,,,,,,,,,,,,,,space,4.527,1,0,1,0,1,,,,,,,,,,,,,,,,,,,,,,,,,,,,,,,,,,,,,,,,,,,,,,,,
,612305f2c3a79ccc85ffdf54,001,2022-04-28_21h09.50.047,classification_task,2021.2.3,Win32,59.81576744,612305f2c3a79ccc85ffdf54,626b377229c10585ec392f89,626b3abbd3839e0793b5811c,,,,,,,,,,,,,,space,5.2966,2,0,2,0,1,,,,,,,,,,,,,,,,,,,,,,,,,,,,,,,,,,,,,,,,,,,,,,,,
,612305f2c3a79ccc85ffdf54,001,2022-04-28_21h09.50.047,classification_task,2021.2.3,Win32,59.81576744,612305f2c3a79ccc85ffdf54,626b377229c10585ec392f89,626b3abbd3839e0793b5811c,,,,,,,,,,,,,,space,8.1754,3,0,3,0,1,,,,,,,,,,,,,,,,,,,,,,,,,,,,,,,,,,,,,,,,,,,,,,,,
,612305f2c3a79ccc85ffdf54,001,2022-04-28_21h09.50.047,classification_task,2021.2.3,Win32,59.81576744,612305f2c3a79ccc85ffdf54,626b377229c10585ec392f89,626b3abbd3839e0793b5811c,,,,,,,,,,,,,,space,10.1598,4,0,4,0,1,,,,,,,,,,,,,,,,,,,,,,,,,,,,,,,,,,,,,,,,,,,,,,,,
,612305f2c3a79ccc85ffdf54,001,2022-04-28_21h09.50.047,classification_task,2021.2.3,Win32,59.81576744,612305f2c3a79ccc85ffdf54,626b377229c10585ec392f89,626b3abbd3839e0793b5811c,,,,,,,,,,,,,,,,,,,,,space,9.7404,,0,"[""0.078"",""0.237"",""0.576"",""0.690""]","[1,1,1,0]",0,0,0,0,1,1,0,,,1,FALSE,,,,,,,,,,,,,,,,,,,,,,,,,,,,,,,
,612305f2c3a79ccc85ffdf54,001,2022-04-28_21h09.50.047,classification_task,2021.2.3,Win32,59.81576744,612305f2c3a79ccc85ffdf54,626b377229c10585ec392f89,626b3abbd3839e0793b5811c,,,,,,,,,,,,,,,,,,,,,,,l,1,"[""0.044"",""0.116"",""0.690"",""0.837""]","[1,1,0,1]",0,1,1,1,1,1,1,,,1,FALSE,5.6444,,,,,,,,,,,,,,,,,,,,,,,,,,,,,,
,612305f2c3a79ccc85ffdf54,001,2022-04-28_21h09.50.047,classification_task,2021.2.3,Win32,59.81576744,612305f2c3a79ccc85ffdf54,626b377229c10585ec392f89,626b3abbd3839e0793b5811c,,,,,,,,,,,,,,,,,,,,,,,a,0,"[""0.161"",""0.116"",""0.514"",""0.837""]","[0,1,1,1]",0,2,2,2,1,1,1,,,1,FALSE,1.7845,,,,,,,,,,,,,,,,,,,,,,,,,,,,,,
,612305f2c3a79ccc85ffdf54,001,2022-04-28_21h09.50.047,classification_task,2021.2.3,Win32,59.81576744,612305f2c3a79ccc85ffdf54,626b377229c10585ec392f89,626b3abbd3839e0793b5811c,,,,,,,,,,,,,,,,,,,,,,,a,1,"[""0.304"",""0.347"",""0.631"",""0.404""]","[1,1,1,0]",0,3,3,3,1,0,0,,,1,FALSE,1.2783,,,,,,,,,,,,,,,,,,,,,,,,,,,,,,
,612305f2c3a79ccc85ffdf54,001,2022-04-28_21h09.50.047,classification_task,2021.2.3,Win32,59.81576744,612305f2c3a79ccc85ffdf54,626b377229c10585ec392f89,626b3abbd3839e0793b5811c,,,,,,,,,,,,,,,,,,,,,,,l,0,"[""0.672"",""0.446"",""0.793"",""0.924""]","[0,1,1,1]",0,4,4,4,1,0,1,,,1,FALSE,0.5662,,,,,,,,,,,,,,,,,,,,,,,,,,,,,,
,612305f2c3a79ccc85ffdf54,001,2022-04-28_21h09.50.047,classification_task,2021.2.3,Win32,59.81576744,612305f2c3a79ccc85ffdf54,626b377229c10585ec392f89,626b3abbd3839e0793b5811c,,,,,,,,,,,,,,,,,,,,,,,l,0,"[""0.202"",""0.446"",""0.793"",""0.150""]","[1,1,1,0]",0,5,5,5,1,0,1,,,1,FALSE,3.1122,,,,,,,,,,,,,,,,,,,,,,,,,,,,,,
,612305f2c3a79ccc85ffdf54,001,2022-04-28_21h09.50.047,classification_task,2021.2.3,Win32,59.81576744,612305f2c3a79ccc85ffdf54,626b377229c10585ec392f89,626b3abbd3839e0793b5811c,,,,,,,,,,,,,,,,,,,,,,,l,0,"[""0.386"",""0.347"",""0.631"",""0.887""]","[0,1,1,1]",0,6,6,6,1,0,0,,,1,FALSE,0.803,,,,,,,,,,,,,,,,,,,,,,,,,,,,,,
,612305f2c3a79ccc85ffdf54,001,2022-04-28_21h09.50.047,classification_task,2021.2.3,Win32,59.81576744,612305f2c3a79ccc85ffdf54,626b377229c10585ec392f89,626b3abbd3839e0793b5811c,,,,,,,,,,,,,,,,,,,,,,,a,0,"[""0.044"",""0.161"",""0.514"",""0.837""]","[1,0,1,1]",0,7,7,7,1,1,1,,,1,FALSE,0.537,,,,,,,,,,,,,,,,,,,,,,,,,,,,,,
,612305f2c3a79ccc85ffdf54,001,2022-04-28_21h09.50.047,classification_task,2021.2.3,Win32,59.81576744,612305f2c3a79ccc85ffdf54,626b377229c10585ec392f89,626b3abbd3839e0793b5811c,,,,,,,,,,,,,,,,,,,,,,,a,1,"[""0.202"",""0.446"",""0.404"",""0.924""]","[1,1,0,1]",0,8,8,8,1,0,1,,,1,FALSE,0.4824,,,,,,,,,,,,,,,,,,,,,,,,,,,,,,
,612305f2c3a79ccc85ffdf54,001,2022-04-28_21h09.50.047,classification_task,2021.2.3,Win32,59.81576744,612305f2c3a79ccc85ffdf54,626b377229c10585ec392f89,626b3abbd3839e0793b5811c,,,,,,,,,,,,,,,,,,,,,,,a,0,"[""0.044"",""0.116"",""0.514"",""0.162""]","[1,1,1,0]",0,9,9,9,1,1,1,,,1,FALSE,0.6573,,,,,,,,,,,,,,,,,,,,,,,,,,,,,,
,612305f2c3a79ccc85ffdf54,001,2022-04-28_21h09.50.047,classification_task,2021.2.3,Win32,59.81576744,612305f2c3a79ccc85ffdf54,626b377229c10585ec392f89,626b3abbd3839e0793b5811c,,,,,,,,,,,,,,,,,,,,,,,a,1,"[""0.304"",""0.347"",""0.404"",""0.887""]","[1,1,0,1]",0,10,10,10,1,0,0,,,1,FALSE,0.8806,,,,,,,,,,,,,,,,,,,,,,,,,,,,,,
,612305f2c3a79ccc85ffdf54,001,2022-04-28_21h09.50.047,classification_task,2021.2.3,Win32,59.81576744,612305f2c3a79ccc85ffdf54,626b377229c10585ec392f89,626b3abbd3839e0793b5811c,,,,,,,,,,,,,,,,,,,,,,,l,0,"[""0.202"",""0.386"",""0.793"",""0.924""]","[1,0,1,1]",0,11,11,11,1,0,1,,,1,FALSE,0.7659,,,,,,,,,,,,,,,,,,,,,,,,,,,,,,
,612305f2c3a79ccc85ffdf54,001,2022-04-28_21h09.50.047,classification_task,2021.2.3,Win32,59.81576744,612305f2c3a79ccc85ffdf54,626b377229c10585ec392f89,626b3abbd3839e0793b5811c,,,,,,,,,,,,,,,,,,,,,,,a,0,"[""0.405"",""0.237"",""0.576"",""0.735""]","[0,1,1,1]",0,12,12,12,1,1,0,,,1,FALSE,0.9336,,,,,,,,,,,,,,,,,,,,,,,,,,,,,,
,612305f2c3a79ccc85ffdf54,001,2022-04-28_21h09.50.047,classification_task,2021.2.3,Win32,59.81576744,612305f2c3a79ccc85ffdf54,626b377229c10585ec392f89,626b3abbd3839e0793b5811c,,,,,,,,,,,,,,,,,,,,,,,a,0,"[""0.078"",""0.161"",""0.576"",""0.735""]","[1,0,1,1]",0,13,13,13,1,1,0,,,1,FALSE,0.6559,,,,,,,,,,,,,,,,,,,,,,,,,,,,,,
,612305f2c3a79ccc85ffdf54,001,2022-04-28_21h09.50.047,classification_task,2021.2.3,Win32,59.81576744,612305f2c3a79ccc85ffdf54,626b377229c10585ec392f89,626b3abbd3839e0793b5811c,,,,,,,,,,,,,,,,,,,,,,,l,1,"[""0.078"",""0.237"",""0.386"",""0.735""]","[1,1,0,1]",0,14,14,14,1,1,0,,,1,FALSE,4.8076,,,,,,,,,,,,,,,,,,,,,,,,,,,,,,
,612305f2c3a79ccc85ffdf54,001,2022-04-28_21h09.50.047,classification_task,2021.2.3,Win32,59.81576744,612305f2c3a79ccc85ffdf54,626b377229c10585ec392f89,626b3abbd3839e0793b5811c,,,,,,,,,,,,,,,,,,,,,,,a,1,"[""0.304"",""0.386"",""0.631"",""0.887""]","[1,0,1,1]",0,15,15,15,1,0,0,,,1,FALSE,1.8817,,,,,,,,,,,,,,,,,,,,,,,,,,,,,,
,612305f2c3a79ccc85ffdf54,001,2022-04-28_21h09.50.047,classification_task,2021.2.3,Win32,59.81576744,612305f2c3a79ccc85ffdf54,626b377229c10585ec392f89,626b3abbd3839e0793b5811c,,,,,,,,,,,,,,,,,,,,,,,a,1,"[""0.304"",""0.347"",""0.161"",""0.887""]","[1,1,0,1]",0,16,16,16,1,0,0,,,1,FALSE,4.9465,,,,,,,,,,,,,,,,,,,,,,,,,,,,,,
,612305f2c3a79ccc85ffdf54,001,2022-04-28_21h09.50.047,classification_task,2021.2.3,Win32,59.81576744,612305f2c3a79ccc85ffdf54,626b377229c10585ec392f89,626b3abbd3839e0793b5811c,,,,,,,,,,,,,,,,,,,,,,,l,0,"[""0.304"",""0.347"",""0.631"",""0.168""]","[1,1,1,0]",0,17,17,17,1,0,0,,,1,FALSE,4.1155,,,,,,,,,,,,,,,,,,,,,,,,,,,,,,
,612305f2c3a79ccc85ffdf54,001,2022-04-28_21h09.50.047,classification_task,2021.2.3,Win32,59.81576744,612305f2c3a79ccc85ffdf54,626b377229c10585ec392f89,626b3abbd3839e0793b5811c,,,,,,,,,,,,,,,,,,,,,,,a,1,"[""0.168"",""0.347"",""0.631"",""0.887""]","[0,1,1,1]",0,18,18,18,1,0,0,,,1,FALSE,2.8703,,,,,,,,,,,,,,,,,,,,,,,,,,,,,,
,612305f2c3a79ccc85ffdf54,001,2022-04-28_21h09.50.047,classification_task,2021.2.3,Win32,59.81576744,612305f2c3a79ccc85ffdf54,626b377229c10585ec392f89,626b3abbd3839e0793b5811c,,,,,,,,,,,,,,,,,,,,,,,l,1,"[""0.044"",""0.116"",""0.386"",""0.837""]","[1,1,0,1]",0,19,19,19,1,1,1,,,1,FALSE,4.2853,,,,,,,,,,,,,,,,,,,,,,,,,,,,,,
,612305f2c3a79ccc85ffdf54,001,2022-04-28_21h09.50.047,classification_task,2021.2.3,Win32,59.81576744,612305f2c3a79ccc85ffdf54,626b377229c10585ec392f89,626b3abbd3839e0793b5811c,,,,,,,,,,,,,,,,,,,,,,,a,1,"[""0.304"",""0.971"",""0.631"",""0.887""]","[1,0,1,1]",0,20,20,20,1,0,0,,,1,FALSE,3.2966,,,,,,,,,,,,,,,,,,,,,,,,,,,,,,
,612305f2c3a79ccc85ffdf54,001,2022-04-28_21h09.50.047,classification_task,2021.2.3,Win32,59.81576744,612305f2c3a79ccc85ffdf54,626b377229c10585ec392f89,626b3abbd3839e0793b5811c,,,,,,,,,,,,,,,,,,,,,,,l,1,"[""0.078"",""0.237"",""0.965"",""0.735""]","[1,1,0,1]",0,21,21,21,1,1,0,,,1,FALSE,1.3031,,,,,,,,,,,,,,,,,,,,,,,,,,,,,,
,612305f2c3a79ccc85ffdf54,001,2022-04-28_21h09.50.047,classification_task,2021.2.3,Win32,59.81576744,612305f2c3a79ccc85ffdf54,626b377229c10585ec392f89,626b3abbd3839e0793b5811c,,,,,,,,,,,,,,,,,,,,,,,l,1,"[""0.168"",""0.116"",""0.514"",""0.837""]","[0,1,1,1]",0,22,22,22,1,1,1,,,1,FALSE,4.1228,,,,,,,,,,,,,,,,,,,,,,,,,,,,,,
,612305f2c3a79ccc85ffdf54,001,2022-04-28_21h09.50.047,classification_task,2021.2.3,Win32,59.81576744,612305f2c3a79ccc85ffdf54,626b377229c10585ec392f89,626b3abbd3839e0793b5811c,,,,,,,,,,,,,,,,,,,,,,,l,1,"[""0.044"",""0.386"",""0.514"",""0.837""]","[1,0,1,1]",0,23,23,23,1,1,1,,,1,FALSE,1.199,,,,,,,,,,,,,,,,,,,,,,,,,,,,,,
,612305f2c3a79ccc85ffdf54,001,2022-04-28_21h09.50.047,classification_task,2021.2.3,Win32,59.81576744,612305f2c3a79ccc85ffdf54,626b377229c10585ec392f89,626b3abbd3839e0793b5811c,,,,,,,,,,,,,,,,,,,,,,,l,1,"[""0.078"",""0.237"",""0.576"",""0.692""]","[1,1,1,0]",0,24,24,24,1,1,0,,,1,FALSE,1.1236,,,,,,,,,,,,,,,,,,,,,,,,,,,,,,
,612305f2c3a79ccc85ffdf54,001,2022-04-28_21h09.50.047,classification_task,2021.2.3,Win32,59.81576744,612305f2c3a79ccc85ffdf54,626b377229c10585ec392f89,626b3abbd3839e0793b5811c,,,,,,,,,,,,,,,,,,,,,,,a,1,"[""0.202"",""0.446"",""0.690"",""0.924""]","[1,1,0,1]",0,25,25,25,1,0,1,,,1,FALSE,1.074,,,,,,,,,,,,,,,,,,,,,,,,,,,,,,
,612305f2c3a79ccc85ffdf54,001,2022-04-28_21h09.50.047,classification_task,2021.2.3,Win32,59.81576744,612305f2c3a79ccc85ffdf54,626b377229c10585ec392f89,626b3abbd3839e0793b5811c,,,,,,,,,,,,,,,,,,,,,,,l,1,"[""0.078"",""0.380"",""0.576"",""0.735""]","[1,0,1,1]",0,26,26,26,1,1,0,,,1,FALSE,1.0858,,,,,,,,,,,,,,,,,,,,,,,,,,,,,,
,612305f2c3a79ccc85ffdf54,001,2022-04-28_21h09.50.047,classification_task,2021.2.3,Win32,59.81576744,612305f2c3a79ccc85ffdf54,626b377229c10585ec392f89,626b3abbd3839e0793b5811c,,,,,,,,,,,,,,,,,,,,,,,a,1,"[""0.971"",""0.446"",""0.793"",""0.924""]","[0,1,1,1]",0,27,27,27,1,0,1,,,1,FALSE,3.0143,,,,,,,,,,,,,,,,,,,,,,,,,,,,,,
,612305f2c3a79ccc85ffdf54,001,2022-04-28_21h09.50.047,classification_task,2021.2.3,Win32,59.81576744,612305f2c3a79ccc85ffdf54,626b377229c10585ec392f89,626b3abbd3839e0793b5811c,,,,,,,,,,,,,,,,,,,,,,,l,1,"[""0.168"",""0.237"",""0.576"",""0.735""]","[0,1,1,1]",0,28,28,28,1,1,0,,,1,FALSE,4.3535,,,,,,,,,,,,,,,,,,,,,,,,,,,,,,
,612305f2c3a79ccc85ffdf54,001,2022-04-28_21h09.50.047,classification_task,2021.2.3,Win32,59.81576744,612305f2c3a79ccc85ffdf54,626b377229c10585ec392f89,626b3abbd3839e0793b5811c,,,,,,,,,,,,,,,,,,,,,,,a,1,"[""0.202"",""0.446"",""0.793"",""0.380""]","[1,1,1,0]",0,29,29,29,1,0,1,,,1,FALSE,3.7521,,,,,,,,,,,,,,,,,,,,,,,,,,,,,,
,612305f2c3a79ccc85ffdf54,001,2022-04-28_21h09.50.047,classification_task,2021.2.3,Win32,59.81576744,612305f2c3a79ccc85ffdf54,626b377229c10585ec392f89,626b3abbd3839e0793b5811c,,,,,,,,,,,,,,,,,,,,,,,a,1,"[""0.202"",""0.691"",""0.793"",""0.924""]","[1,0,1,1]",0,30,30,30,1,0,1,,,1,FALSE,1.1201,,,,,,,,,,,,,,,,,,,,,,,,,,,,,,
,612305f2c3a79ccc85ffdf54,001,2022-04-28_21h09.50.047,classification_task,2021.2.3,Win32,59.81576744,612305f2c3a79ccc85ffdf54,626b377229c10585ec392f89,626b3abbd3839e0793b5811c,,,,,,,,,,,,,,,,,,,,,,,l,1,"[""0.044"",""0.116"",""0.514"",""0.965""]","[1,1,1,0]",0,31,31,31,1,1,1,,,1,FALSE,1.4413,,,,,,,,,,,,,,,,,,,,,,,,,,,,,,
,612305f2c3a79ccc85ffdf54,001,2022-04-28_21h09.50.047,classification_task,2021.2.3,Win32,59.81576744,612305f2c3a79ccc85ffdf54,626b377229c10585ec392f89,626b3abbd3839e0793b5811c,,,,,,,,,,,,,,,,,,,,,,,a,1,"[""0.202"",""0.672"",""0.793"",""0.924""]","[1,0,1,1]",0,32,32,32,1,0,1,,,1,FALSE,1.2962,,,,,,,,,,,,,,,,,,,,,,,,,,,,,,
,612305f2c3a79ccc85ffdf54,001,2022-04-28_21h09.50.047,classification_task,2021.2.3,Win32,59.81576744,612305f2c3a79ccc85ffdf54,626b377229c10585ec392f89,626b3abbd3839e0793b5811c,,,,,,,,,,,,,,,,,,,,,,,a,0,"[""0.405"",""0.237"",""0.576"",""0.735""]","[0,1,1,1]",0,33,33,33,1,1,0,,,1,FALSE,2.314,,,,,,,,,,,,,,,,,,,,,,,,,,,,,,
,612305f2c3a79ccc85ffdf54,001,2022-04-28_21h09.50.047,classification_task,2021.2.3,Win32,59.81576744,612305f2c3a79ccc85ffdf54,626b377229c10585ec392f89,626b3abbd3839e0793b5811c,,,,,,,,,,,,,,,,,,,,,,,l,1,"[""0.078"",""0.237"",""0.690"",""0.735""]","[1,1,0,1]",0,34,34,34,1,1,0,,,1,FALSE,1.5637,,,,,,,,,,,,,,,,,,,,,,,,,,,,,,
,612305f2c3a79ccc85ffdf54,001,2022-04-28_21h09.50.047,classification_task,2021.2.3,Win32,59.81576744,612305f2c3a79ccc85ffdf54,626b377229c10585ec392f89,626b3abbd3839e0793b5811c,,,,,,,,,,,,,,,,,,,,,,,l,0,"[""0.304"",""0.405"",""0.631"",""0.887""]","[1,0,1,1]",0,35,35,35,1,0,0,,,1,FALSE,7.1088,,,,,,,,,,,,,,,,,,,,,,,,,,,,,,
,612305f2c3a79ccc85ffdf54,001,2022-04-28_21h09.50.047,classification_task,2021.2.3,Win32,59.81576744,612305f2c3a79ccc85ffdf54,626b377229c10585ec392f89,626b3abbd3839e0793b5811c,,,,,,,,,,,,,,,,,,,,,,,l,1,"[""0.044"",""0.965"",""0.514"",""0.837""]","[1,0,1,1]",0,36,36,36,1,1,1,,,1,FALSE,1.037,,,,,,,,,,,,,,,,,,,,,,,,,,,,,,
,612305f2c3a79ccc85ffdf54,001,2022-04-28_21h09.50.047,classification_task,2021.2.3,Win32,59.81576744,612305f2c3a79ccc85ffdf54,626b377229c10585ec392f89,626b3abbd3839e0793b5811c,,,,,,,,,,,,,,,,,,,,,,,a,0,"[""0.078"",""0.672"",""0.576"",""0.735""]","[1,0,1,1]",0,37,37,37,1,1,0,,,1,FALSE,1.7247,,,,,,,,,,,,,,,,,,,,,,,,,,,,,,
,612305f2c3a79ccc85ffdf54,001,2022-04-28_21h09.50.047,classification_task,2021.2.3,Win32,59.81576744,612305f2c3a79ccc85ffdf54,626b377229c10585ec392f89,626b3abbd3839e0793b5811c,,,,,,,,,,,,,,,,,,,,,,,a,1,"[""0.202"",""0.446"",""0.971"",""0.924""]","[1,1,0,1]",0,38,38,38,1,0,1,,,1,FALSE,0.972,,,,,,,,,,,,,,,,,,,,,,,,,,,,,,
,612305f2c3a79ccc85ffdf54,001,2022-04-28_21h09.50.047,classification_task,2021.2.3,Win32,59.81576744,612305f2c3a79ccc85ffdf54,626b377229c10585ec392f89,626b3abbd3839e0793b5811c,,,,,,,,,,,,,,,,,,,,,,,l,1,"[""0.044"",""0.116"",""0.380"",""0.837""]","[1,1,0,1]",0,39,39,39,1,1,1,,,1,FALSE,1.0863,,,,,,,,,,,,,,,,,,,,,,,,,,,,,,
,612305f2c3a79ccc85ffdf54,001,2022-04-28_21h09.50.047,classification_task,2021.2.3,Win32,59.81576744,612305f2c3a79ccc85ffdf54,626b377229c10585ec392f89,626b3abbd3839e0793b5811c,,,,,,,,,,,,,,,,,,,,,,,a,1,"[""0.202"",""0.446"",""0.793"",""0.967""]","[1,1,1,0]",0,40,40,40,1,0,1,,,1,FALSE,0.9054,,,,,,,,,,,,,,,,,,,,,,,,,,,,,,
,612305f2c3a79ccc85ffdf54,001,2022-04-28_21h09.50.047,classification_task,2021.2.3,Win32,59.81576744,612305f2c3a79ccc85ffdf54,626b377229c10585ec392f89,626b3abbd3839e0793b5811c,,,,,,,,,,,,,,,,,,,,,,,l,0,"[""0.304"",""0.347"",""0.631"",""0.380""]","[1,1,1,0]",0,41,41,41,1,0,0,,,1,FALSE,2.0432,,,,,,,,,,,,,,,,,,,,,,,,,,,,,,
,612305f2c3a79ccc85ffdf54,001,2022-04-28_21h09.50.047,classification_task,2021.2.3,Win32,59.81576744,612305f2c3a79ccc85ffdf54,626b377229c10585ec392f89,626b3abbd3839e0793b5811c,,,,,,,,,,,,,,,,,,,,,,,l,1,"[""0.150"",""0.116"",""0.514"",""0.837""]","[0,1,1,1]",0,42,42,42,1,1,1,,,1,FALSE,1.6576,,,,,,,,,,,,,,,,,,,,,,,,,,,,,,
,612305f2c3a79ccc85ffdf54,001,2022-04-28_21h09.50.047,classification_task,2021.2.3,Win32,59.81576744,612305f2c3a79ccc85ffdf54,626b377229c10585ec392f89,626b3abbd3839e0793b5811c,,,,,,,,,,,,,,,,,,,,,,,l,1,"[""0.044"",""0.116"",""0.514"",""0.690""]","[1,1,1,0]",0,43,43,43,1,1,1,,,1,FALSE,0.7888,,,,,,,,,,,,,,,,,,,,,,,,,,,,,,
,612305f2c3a79ccc85ffdf54,001,2022-04-28_21h09.50.047,classification_task,2021.2.3,Win32,59.81576744,612305f2c3a79ccc85ffdf54,626b377229c10585ec392f89,626b3abbd3839e0793b5811c,,,,,,,,,,,,,,,,,,,,,,,l,0,"[""0.966"",""0.446"",""0.793"",""0.924""]","[0,1,1,1]",0,44,44,44,1,0,1,,,1,FALSE,1.3888,,,,,,,,,,,,,,,,,,,,,,,,,,,,,,
,612305f2c3a79ccc85ffdf54,001,2022-04-28_21h09.50.047,classification_task,2021.2.3,Win32,59.81576744,612305f2c3a79ccc85ffdf54,626b377229c10585ec392f89,626b3abbd3839e0793b5811c,,,,,,,,,,,,,,,,,,,,,,,l,1,"[""0.078"",""0.237"",""0.576"",""0.971""]","[1,1,1,0]",0,45,45,45,1,1,0,,,1,FALSE,1.4242,,,,,,,,,,,,,,,,,,,,,,,,,,,,,,
,612305f2c3a79ccc85ffdf54,001,2022-04-28_21h09.50.047,classification_task,2021.2.3,Win32,59.81576744,612305f2c3a79ccc85ffdf54,626b377229c10585ec392f89,626b3abbd3839e0793b5811c,,,,,,,,,,,,,,,,,,,,,,,a,1,"[""0.304"",""0.347"",""0.672"",""0.887""]","[1,1,0,1]",0,46,46,46,1,0,0,,,1,FALSE,0.9871,,,,,,,,,,,,,,,,,,,,,,,,,,,,,,
,612305f2c3a79ccc85ffdf54,001,2022-04-28_21h09.50.047,classification_task,2021.2.3,Win32,59.81576744,612305f2c3a79ccc85ffdf54,626b377229c10585ec392f89,626b3abbd3839e0793b5811c,,,,,,,,,,,,,,,,,,,,,,,a,1,"[""0.404"",""0.347"",""0.631"",""0.887""]","[0,1,1,1]",0,47,47,47,1,0,0,,,1,FALSE,0.7024,,,,,,,,,,,,,,,,,,,,,,,,,,,,,,
,612305f2c3a79ccc85ffdf54,001,2022-04-28_21h09.50.047,classification_task,2021.2.3,Win32,59.81576744,612305f2c3a79ccc85ffdf54,626b377229c10585ec392f89,626b3abbd3839e0793b5811c,,,,,,,,,,,,,,,,,,,,,,,a,0,"[""0.078"",""0.237"",""0.967"",""0.735""]","[1,1,0,1]",0,48,48,48,1,1,0,,,1,FALSE,2.2119,,,,,,,,,,,,,,,,,,,,,,,,,,,,,,
,612305f2c3a79ccc85ffdf54,001,2022-04-28_21h09.50.047,classification_task,2021.2.3,Win32,59.81576744,612305f2c3a79ccc85ffdf54,626b377229c10585ec392f89,626b3abbd3839e0793b5811c,,,,,,,,,,,,,,,,,,,,,,,l,1,"[""0.044"",""0.691"",""0.514"",""0.837""]","[1,0,1,1]",0,49,49,49,1,1,1,,,1,FALSE,0.9567,,,,,,,,,,,,,,,,,,,,,,,,,,,,,,
,612305f2c3a79ccc85ffdf54,001,2022-04-28_21h09.50.047,classification_task,2021.2.3,Win32,59.81576744,612305f2c3a79ccc85ffdf54,626b377229c10585ec392f89,626b3abbd3839e0793b5811c,,,,,,,,,,,,,,,,,,,,,,,l,1,"[""0.078"",""0.380"",""0.576"",""0.735""]","[1,0,1,1]",0,50,50,50,1,1,0,,,1,FALSE,2.682,,,,,,,,,,,,,,,,,,,,,,,,,,,,,,
,612305f2c3a79ccc85ffdf54,001,2022-04-28_21h09.50.047,classification_task,2021.2.3,Win32,59.81576744,612305f2c3a79ccc85ffdf54,626b377229c10585ec392f89,626b3abbd3839e0793b5811c,,,,,,,,,,,,,,,,,,,,,,,l,1,"[""0.044"",""0.116"",""0.514"",""0.168""]","[1,1,1,0]",0,51,51,51,1,1,1,,,1,FALSE,0.9668,,,,,,,,,,,,,,,,,,,,,,,,,,,,,,
,612305f2c3a79ccc85ffdf54,001,2022-04-28_21h09.50.047,classification_task,2021.2.3,Win32,59.81576744,612305f2c3a79ccc85ffdf54,626b377229c10585ec392f89,626b3abbd3839e0793b5811c,,,,,,,,,,,,,,,,,,,,,,,a,1,"[""0.404"",""0.446"",""0.793"",""0.924""]","[0,1,1,1]",0,52,52,52,1,0,1,,,1,FALSE,2.1075,,,,,,,,,,,,,,,,,,,,,,,,,,,,,,
,612305f2c3a79ccc85ffdf54,001,2022-04-28_21h09.50.047,classification_task,2021.2.3,Win32,59.81576744,612305f2c3a79ccc85ffdf54,626b377229c10585ec392f89,626b3abbd3839e0793b5811c,,,,,,,,,,,,,,,,,,,,,,,a,1,"[""0.202"",""0.405"",""0.793"",""0.924""]","[1,0,1,1]",0,53,53,53,1,0,1,,,1,FALSE,0.7151,,,,,,,,,,,,,,,,,,,,,,,,,,,,,,
,612305f2c3a79ccc85ffdf54,001,2022-04-28_21h09.50.047,classification_task,2021.2.3,Win32,59.81576744,612305f2c3a79ccc85ffdf54,626b377229c10585ec392f89,626b3abbd3839e0793b5811c,,,,,,,,,,,,,,,,,,,,,,,a,1,"[""0.304"",""0.347"",""0.631"",""0.967""]","[1,1,1,0]",0,54,54,54,1,0,0,,,1,FALSE,1.1164,,,,,,,,,,,,,,,,,,,,,,,,,,,,,,
,612305f2c3a79ccc85ffdf54,001,2022-04-28_21h09.50.047,classification_task,2021.2.3,Win32,59.81576744,612305f2c3a79ccc85ffdf54,626b377229c10585ec392f89,626b3abbd3839e0793b5811c,,,,,,,,,,,,,,,,,,,,,,,l,1,"[""0.162"",""0.116"",""0.514"",""0.837""]","[0,1,1,1]",0,55,55,55,1,1,1,,,1,FALSE,0.9939,,,,,,,,,,,,,,,,,,,,,,,,,,,,,,
,612305f2c3a79ccc85ffdf54,001,2022-04-28_21h09.50.047,classification_task,2021.2.3,Win32,59.81576744,612305f2c3a79ccc85ffdf54,626b377229c10585ec392f89,626b3abbd3839e0793b5811c,,,,,,,,,,,,,,,,,,,,,,,a,1,"[""0.691"",""0.347"",""0.631"",""0.887""]","[0,1,1,1]",0,56,56,56,1,0,0,,,1,FALSE,3.5037,,,,,,,,,,,,,,,,,,,,,,,,,,,,,,
,612305f2c3a79ccc85ffdf54,001,2022-04-28_21h09.50.047,classification_task,2021.2.3,Win32,59.81576744,612305f2c3a79ccc85ffdf54,626b377229c10585ec392f89,626b3abbd3839e0793b5811c,,,,,,,,,,,,,,,,,,,,,,,a,0,"[""0.044"",""0.116"",""0.966"",""0.837""]","[1,1,0,1]",0,57,57,57,1,1,1,,,1,FALSE,1.0901,,,,,,,,,,,,,,,,,,,,,,,,,,,,,,
,612305f2c3a79ccc85ffdf54,001,2022-04-28_21h09.50.047,classification_task,2021.2.3,Win32,59.81576744,612305f2c3a79ccc85ffdf54,626b377229c10585ec392f89,626b3abbd3839e0793b5811c,,,,,,,,,,,,,,,,,,,,,,,l,1,"[""0.404"",""0.237"",""0.576"",""0.735""]","[0,1,1,1]",0,58,58,58,1,1,0,,,1,FALSE,1.657,,,,,,,,,,,,,,,,,,,,,,,,,,,,,,
,612305f2c3a79ccc85ffdf54,001,2022-04-28_21h09.50.047,classification_task,2021.2.3,Win32,59.81576744,612305f2c3a79ccc85ffdf54,626b377229c10585ec392f89,626b3abbd3839e0793b5811c,,,,,,,,,,,,,,,,,,,,,,,a,1,"[""0.304"",""0.162"",""0.631"",""0.887""]","[1,0,1,1]",0,59,59,59,1,0,0,,,1,FALSE,1.1879,,,,,,,,,,,,,,,,,,,,,,,,,,,,,,
,612305f2c3a79ccc85ffdf54,001,2022-04-28_21h09.50.047,classification_task,2021.2.3,Win32,59.81576744,612305f2c3a79ccc85ffdf54,626b377229c10585ec392f89,626b3abbd3839e0793b5811c,,,,,,,,,,,,,,,,,,,,,,,a,1,"[""0.202"",""0.446"",""0.793"",""0.967""]","[1,1,1,0]",0,60,60,60,1,0,1,,,1,FALSE,1.1885,,,,,,,,,,,,,,,,,,,,,,,,,,,,,,
,612305f2c3a79ccc85ffdf54,001,2022-04-28_21h09.50.047,classification_task,2021.2.3,Win32,59.81576744,612305f2c3a79ccc85ffdf54,626b377229c10585ec392f89,626b3abbd3839e0793b5811c,,,,,,,,,,,,,,,,,,,,,,,a,1,"[""0.304"",""0.347"",""0.967"",""0.887""]","[1,1,0,1]",0,61,61,61,1,0,0,,,1,FALSE,1.4895,,,,,,,,,,,,,,,,,,,,,,,,,,,,,,
,612305f2c3a79ccc85ffdf54,001,2022-04-28_21h09.50.047,classification_task,2021.2.3,Win32,59.81576744,612305f2c3a79ccc85ffdf54,626b377229c10585ec392f89,626b3abbd3839e0793b5811c,,,,,,,,,,,,,,,,,,,,,,,a,1,"[""0.202"",""0.446"",""0.967"",""0.924""]","[1,1,0,1]",0,62,62,62,1,0,1,,,1,FALSE,1.5089,,,,,,,,,,,,,,,,,,,,,,,,,,,,,,
,612305f2c3a79ccc85ffdf54,001,2022-04-28_21h09.50.047,classification_task,2021.2.3,Win32,59.81576744,612305f2c3a79ccc85ffdf54,626b377229c10585ec392f89,626b3abbd3839e0793b5811c,,,,,,,,,,,,,,,,,,,,,,,l,1,"[""0.078"",""0.237"",""0.576"",""0.404""]","[1,1,1,0]",0,63,63,63,1,1,0,,,1,FALSE,0.9522,,,,,,,,,,,,,,,,,,,,,,,,,,,,,,
,612305f2c3a79ccc85ffdf54,001,2022-04-28_21h09.50.047,classification_task,2021.2.3,Win32,59.81576744,612305f2c3a79ccc85ffdf54,626b377229c10585ec392f89,626b3abbd3839e0793b5811c,,,,,,,,,,,,,,,,,,,,,,,,,,,,,,,,,,,,,,,0, ,,0,4.565206367,283.7543,0,0,0,0,1,2,1,,,,,,,,,,,,,,,,,
,612305f2c3a79ccc85ffdf54,001,2022-04-28_21h09.50.047,classification_task,2021.2.3,Win32,59.81576744,612305f2c3a79ccc85ffdf54,626b377229c10585ec392f89,626b3abbd3839e0793b5811c,,,,,,,,,,,,,,,,,,,,,,,,,,,,,,,,,,,,,,,1,  ,,0,5.398050167,285.9103,0,0,0,0,1,2,1,,,,,,,,,,,,,,,,,
,612305f2c3a79ccc85ffdf54,001,2022-04-28_21h09.50.047,classification_task,2021.2.3,Win32,59.81576744,612305f2c3a79ccc85ffdf54,626b377229c10585ec392f89,626b3abbd3839e0793b5811c,,,,,,,,,,,,,,,,,,,,,,,,,,,,,,,,,,,,,,,2,  ,,0,9.072359396,288.261,0,0,0,0,1,2,1,,,,,,,,,,,,,,,,,
,612305f2c3a79ccc85ffdf54,001,2022-04-28_21h09.50.047,classification_task,2021.2.3,Win32,59.81576744,612305f2c3a79ccc85ffdf54,626b377229c10585ec392f89,626b3abbd3839e0793b5811c,,,,,,,,,,,,,,,,,,,,,,,,,,,,,,,,,,,,,,,,,,,,,0,0,0,0,1,,1,,,,,,,,,,,,,,,,,
,612305f2c3a79ccc85ffdf54,001,2022-04-28_21h09.50.047,classification_task,2021.2.3,Win32,59.81576744,612305f2c3a79ccc85ffdf54,626b377229c10585ec392f89,626b3abbd3839e0793b5811c,,,,,,,,,,,,,,,,,,,,,space,9.1583,l,1,"[""0.386"",""0.237"",""0.576"",""0.735""]","[0,1,1,1]",0,0,0,0,1,1,0,,,1,FALSE,3.0151,,,,,,,,,,,,,,,,,,,,,,,,,,,,,,
,612305f2c3a79ccc85ffdf54,001,2022-04-28_21h09.50.047,classification_task,2021.2.3,Win32,59.81576744,612305f2c3a79ccc85ffdf54,626b377229c10585ec392f89,626b3abbd3839e0793b5811c,,,,,,,,,,,,,,,,,,,,,,,l,1,"[""0.044"",""0.405"",""0.514"",""0.837""]","[1,0,1,1]",0,1,1,1,1,1,1,,,1,FALSE,2.5319,,,,,,,,,,,,,,,,,,,,,,,,,,,,,,
,612305f2c3a79ccc85ffdf54,001,2022-04-28_21h09.50.047,classification_task,2021.2.3,Win32,59.81576744,612305f2c3a79ccc85ffdf54,626b377229c10585ec392f89,626b3abbd3839e0793b5811c,,,,,,,,,,,,,,,,,,,,,,,a,1,"[""0.202"",""0.446"",""0.965"",""0.924""]","[1,1,0,1]",0,2,2,2,1,0,1,,,1,FALSE,1.2626,,,,,,,,,,,,,,,,,,,,,,,,,,,,,,
,612305f2c3a79ccc85ffdf54,001,2022-04-28_21h09.50.047,classification_task,2021.2.3,Win32,59.81576744,612305f2c3a79ccc85ffdf54,626b377229c10585ec392f89,626b3abbd3839e0793b5811c,,,,,,,,,,,,,,,,,,,,,,,l,0,"[""0.304"",""0.692"",""0.631"",""0.887""]","[1,0,1,1]",0,3,3,3,1,0,0,,,1,FALSE,2.6071,,,,,,,,,,,,,,,,,,,,,,,,,,,,,,
,612305f2c3a79ccc85ffdf54,001,2022-04-28_21h09.50.047,classification_task,2021.2.3,Win32,59.81576744,612305f2c3a79ccc85ffdf54,626b377229c10585ec392f89,626b3abbd3839e0793b5811c,,,,,,,,,,,,,,,,,,,,,,,a,1,"[""0.304"",""0.347"",""0.631"",""0.965""]","[1,1,1,0]",0,4,4,4,1,0,0,,,1,FALSE,1.1661,,,,,,,,,,,,,,,,,,,,,,,,,,,,,,
,612305f2c3a79ccc85ffdf54,001,2022-04-28_21h09.50.047,classification_task,2021.2.3,Win32,59.81576744,612305f2c3a79ccc85ffdf54,626b377229c10585ec392f89,626b3abbd3839e0793b5811c,,,,,,,,,,,,,,,,,,,,,,,l,0,"[""0.404"",""0.347"",""0.631"",""0.887""]","[0,1,1,1]",0,5,5,5,1,0,0,,,1,FALSE,1.1557,,,,,,,,,,,,,,,,,,,,,,,,,,,,,,
,612305f2c3a79ccc85ffdf54,001,2022-04-28_21h09.50.047,classification_task,2021.2.3,Win32,59.81576744,612305f2c3a79ccc85ffdf54,626b377229c10585ec392f89,626b3abbd3839e0793b5811c,,,,,,,,,,,,,,,,,,,,,,,a,1,"[""0.386"",""0.446"",""0.793"",""0.924""]","[0,1,1,1]",0,6,6,6,1,0,1,,,1,FALSE,3.0159,,,,,,,,,,,,,,,,,,,,,,,,,,,,,,
,612305f2c3a79ccc85ffdf54,001,2022-04-28_21h09.50.047,classification_task,2021.2.3,Win32,59.81576744,612305f2c3a79ccc85ffdf54,626b377229c10585ec392f89,626b3abbd3839e0793b5811c,,,,,,,,,,,,,,,,,,,,,,,l,1,"[""0.672"",""0.116"",""0.514"",""0.837""]","[0,1,1,1]",0,7,7,7,1,1,1,,,1,FALSE,1.4911,,,,,,,,,,,,,,,,,,,,,,,,,,,,,,
,612305f2c3a79ccc85ffdf54,001,2022-04-28_21h09.50.047,classification_task,2021.2.3,Win32,59.81576744,612305f2c3a79ccc85ffdf54,626b377229c10585ec392f89,626b3abbd3839e0793b5811c,,,,,,,,,,,,,,,,,,,,,,,l,1,"[""0.078"",""0.161"",""0.576"",""0.735""]","[1,0,1,1]",0,8,8,8,1,1,0,,,1,FALSE,1.1703,,,,,,,,,,,,,,,,,,,,,,,,,,,,,,
,612305f2c3a79ccc85ffdf54,001,2022-04-28_21h09.50.047,classification_task,2021.2.3,Win32,59.81576744,612305f2c3a79ccc85ffdf54,626b377229c10585ec392f89,626b3abbd3839e0793b5811c,,,,,,,,,,,,,,,,,,,,,,,a,1,"[""0.202"",""0.446"",""0.793"",""0.386""]","[1,1,1,0]",0,9,9,9,1,0,1,,,1,FALSE,1.2556,,,,,,,,,,,,,,,,,,,,,,,,,,,,,,
,612305f2c3a79ccc85ffdf54,001,2022-04-28_21h09.50.047,classification_task,2021.2.3,Win32,59.81576744,612305f2c3a79ccc85ffdf54,626b377229c10585ec392f89,626b3abbd3839e0793b5811c,,,,,,,,,,,,,,,,,,,,,,,l,1,"[""0.078"",""0.237"",""0.161"",""0.735""]","[1,1,0,1]",0,10,10,10,1,1,0,,,1,FALSE,1.5207,,,,,,,,,,,,,,,,,,,,,,,,,,,,,,
,612305f2c3a79ccc85ffdf54,001,2022-04-28_21h09.50.047,classification_task,2021.2.3,Win32,59.81576744,612305f2c3a79ccc85ffdf54,626b377229c10585ec392f89,626b3abbd3839e0793b5811c,,,,,,,,,,,,,,,,,,,,,,,l,1,"[""0.044"",""0.116"",""0.672"",""0.837""]","[1,1,0,1]",0,11,11,11,1,1,1,,,1,FALSE,0.9343,,,,,,,,,,,,,,,,,,,,,,,,,,,,,,
,612305f2c3a79ccc85ffdf54,001,2022-04-28_21h09.50.047,classification_task,2021.2.3,Win32,59.81576744,612305f2c3a79ccc85ffdf54,626b377229c10585ec392f89,626b3abbd3839e0793b5811c,,,,,,,,,,,,,,,,,,,,,,,l,1,"[""0.044"",""0.116"",""0.514"",""0.965""]","[1,1,1,0]",0,12,12,12,1,1,1,,,1,FALSE,0.6876,,,,,,,,,,,,,,,,,,,,,,,,,,,,,,
,612305f2c3a79ccc85ffdf54,001,2022-04-28_21h09.50.047,classification_task,2021.2.3,Win32,59.81576744,612305f2c3a79ccc85ffdf54,626b377229c10585ec392f89,626b3abbd3839e0793b5811c,,,,,,,,,,,,,,,,,,,,,,,a,1,"[""0.304"",""0.347"",""0.692"",""0.887""]","[1,1,0,1]",0,13,13,13,1,0,0,,,1,FALSE,2.0936,,,,,,,,,,,,,,,,,,,,,,,,,,,,,,
,612305f2c3a79ccc85ffdf54,001,2022-04-28_21h09.50.047,classification_task,2021.2.3,Win32,59.81576744,612305f2c3a79ccc85ffdf54,626b377229c10585ec392f89,626b3abbd3839e0793b5811c,,,,,,,,,,,,,,,,,,,,,,,l,1,"[""0.078"",""0.237"",""0.576"",""0.692""]","[1,1,1,0]",0,14,14,14,1,1,0,,,1,FALSE,4.3091,,,,,,,,,,,,,,,,,,,,,,,,,,,,,,
,612305f2c3a79ccc85ffdf54,001,2022-04-28_21h09.50.047,classification_task,2021.2.3,Win32,59.81576744,612305f2c3a79ccc85ffdf54,626b377229c10585ec392f89,626b3abbd3839e0793b5811c,,,,,,,,,,,,,,,,,,,,,,,a,1,"[""0.202"",""0.405"",""0.793"",""0.924""]","[1,0,1,1]",0,15,15,15,1,0,1,,,1,FALSE,1.8917,,,,,,,,,,,,,,,,,,,,,,,,,,,,,,
,612305f2c3a79ccc85ffdf54,001,2022-04-28_21h09.50.047,classification_task,2021.2.3,Win32,59.81576744,612305f2c3a79ccc85ffdf54,626b377229c10585ec392f89,626b3abbd3839e0793b5811c,,,,,,,,,,,,,,,,,,,,,,,l,1,"[""0.044"",""0.116"",""0.514"",""0.380""]","[1,1,1,0]",0,16,16,16,1,1,1,,,1,FALSE,0.8531,,,,,,,,,,,,,,,,,,,,,,,,,,,,,,
,612305f2c3a79ccc85ffdf54,001,2022-04-28_21h09.50.047,classification_task,2021.2.3,Win32,59.81576744,612305f2c3a79ccc85ffdf54,626b377229c10585ec392f89,626b3abbd3839e0793b5811c,,,,,,,,,,,,,,,,,,,,,,,l,1,"[""0.078"",""0.237"",""0.386"",""0.735""]","[1,1,0,1]",0,17,17,17,1,1,0,,,1,FALSE,2.0562,,,,,,,,,,,,,,,,,,,,,,,,,,,,,,
,612305f2c3a79ccc85ffdf54,001,2022-04-28_21h09.50.047,classification_task,2021.2.3,Win32,59.81576744,612305f2c3a79ccc85ffdf54,626b377229c10585ec392f89,626b3abbd3839e0793b5811c,,,,,,,,,,,,,,,,,,,,,,,a,1,"[""0.304"",""0.347"",""0.631"",""0.150""]","[1,1,1,0]",0,18,18,18,1,0,0,,,1,FALSE,0.904,,,,,,,,,,,,,,,,,,,,,,,,,,,,,,
,612305f2c3a79ccc85ffdf54,001,2022-04-28_21h09.50.047,classification_task,2021.2.3,Win32,59.81576744,612305f2c3a79ccc85ffdf54,626b377229c10585ec392f89,626b3abbd3839e0793b5811c,,,,,,,,,,,,,,,,,,,,,,,l,1,"[""0.044"",""0.116"",""0.691"",""0.837""]","[1,1,0,1]",0,19,19,19,1,1,1,,,1,FALSE,0.8708,,,,,,,,,,,,,,,,,,,,,,,,,,,,,,
,612305f2c3a79ccc85ffdf54,001,2022-04-28_21h09.50.047,classification_task,2021.2.3,Win32,59.81576744,612305f2c3a79ccc85ffdf54,626b377229c10585ec392f89,626b3abbd3839e0793b5811c,,,,,,,,,,,,,,,,,,,,,,,a,1,"[""0.202"",""0.446"",""0.793"",""0.386""]","[1,1,1,0]",0,20,20,20,1,0,1,,,1,FALSE,1.1096,,,,,,,,,,,,,,,,,,,,,,,,,,,,,,
,612305f2c3a79ccc85ffdf54,001,2022-04-28_21h09.50.047,classification_task,2021.2.3,Win32,59.81576744,612305f2c3a79ccc85ffdf54,626b377229c10585ec392f89,626b3abbd3839e0793b5811c,,,,,,,,,,,,,,,,,,,,,,,l,1,"[""0.044"",""0.162"",""0.514"",""0.837""]","[1,0,1,1]",0,21,21,21,1,1,1,,,1,FALSE,0.8372,,,,,,,,,,,,,,,,,,,,,,,,,,,,,,
,612305f2c3a79ccc85ffdf54,001,2022-04-28_21h09.50.047,classification_task,2021.2.3,Win32,59.81576744,612305f2c3a79ccc85ffdf54,626b377229c10585ec392f89,626b3abbd3839e0793b5811c,,,,,,,,,,,,,,,,,,,,,,,l,1,"[""0.380"",""0.116"",""0.514"",""0.837""]","[0,1,1,1]",0,22,22,22,1,1,1,,,1,FALSE,1.874,,,,,,,,,,,,,,,,,,,,,,,,,,,,,,
,612305f2c3a79ccc85ffdf54,001,2022-04-28_21h09.50.047,classification_task,2021.2.3,Win32,59.81576744,612305f2c3a79ccc85ffdf54,626b377229c10585ec392f89,626b3abbd3839e0793b5811c,,,,,,,,,,,,,,,,,,,,,,,,0,"[""0.202"",""0.446"",""0.971"",""0.924""]","[1,1,0,1]",0,23,23,23,1,0,1,,,1,FALSE,,,,,,,,,,,,,,,,,,,,,,,,,,,,,,,
,612305f2c3a79ccc85ffdf54,001,2022-04-28_21h09.50.047,classification_task,2021.2.3,Win32,59.81576744,612305f2c3a79ccc85ffdf54,626b377229c10585ec392f89,626b3abbd3839e0793b5811c,,,,,,,,,,,,,,,,,,,,,,,l,1,"[""0.150"",""0.237"",""0.576"",""0.735""]","[0,1,1,1]",0,24,24,24,1,1,0,,,1,FALSE,2.8657,,,,,,,,,,,,,,,,,,,,,,,,,,,,,,
,612305f2c3a79ccc85ffdf54,001,2022-04-28_21h09.50.047,classification_task,2021.2.3,Win32,59.81576744,612305f2c3a79ccc85ffdf54,626b377229c10585ec392f89,626b3abbd3839e0793b5811c,,,,,,,,,,,,,,,,,,,,,,,l,1,"[""0.078"",""0.237"",""0.576"",""0.965""]","[1,1,1,0]",0,25,25,25,1,1,0,,,1,FALSE,1.3429,,,,,,,,,,,,,,,,,,,,,,,,,,,,,,
,612305f2c3a79ccc85ffdf54,001,2022-04-28_21h09.50.047,classification_task,2021.2.3,Win32,59.81576744,612305f2c3a79ccc85ffdf54,626b377229c10585ec392f89,626b3abbd3839e0793b5811c,,,,,,,,,,,,,,,,,,,,,,,a,1,"[""0.202"",""0.161"",""0.793"",""0.924""]","[1,0,1,1]",0,26,26,26,1,0,1,,,1,FALSE,1.1841,,,,,,,,,,,,,,,,,,,,,,,,,,,,,,
,612305f2c3a79ccc85ffdf54,001,2022-04-28_21h09.50.047,classification_task,2021.2.3,Win32,59.81576744,612305f2c3a79ccc85ffdf54,626b377229c10585ec392f89,626b3abbd3839e0793b5811c,,,,,,,,,,,,,,,,,,,,,,,l,1,"[""0.078"",""0.966"",""0.576"",""0.735""]","[1,0,1,1]",0,27,27,27,1,1,0,,,1,FALSE,1.2885,,,,,,,,,,,,,,,,,,,,,,,,,,,,,,
,612305f2c3a79ccc85ffdf54,001,2022-04-28_21h09.50.047,classification_task,2021.2.3,Win32,59.81576744,612305f2c3a79ccc85ffdf54,626b377229c10585ec392f89,626b3abbd3839e0793b5811c,,,,,,,,,,,,,,,,,,,,,,,a,1,"[""0.304"",""0.347"",""0.965"",""0.887""]","[1,1,0,1]",0,28,28,28,1,0,0,,,1,FALSE,1.6423,,,,,,,,,,,,,,,,,,,,,,,,,,,,,,
,612305f2c3a79ccc85ffdf54,001,2022-04-28_21h09.50.047,classification_task,2021.2.3,Win32,59.81576744,612305f2c3a79ccc85ffdf54,626b377229c10585ec392f89,626b3abbd3839e0793b5811c,,,,,,,,,,,,,,,,,,,,,,,a,1,"[""0.692"",""0.446"",""0.793"",""0.924""]","[0,1,1,1]",0,29,29,29,1,0,1,,,1,FALSE,1.8499,,,,,,,,,,,,,,,,,,,,,,,,,,,,,,
,612305f2c3a79ccc85ffdf54,001,2022-04-28_21h09.50.047,classification_task,2021.2.3,Win32,59.81576744,612305f2c3a79ccc85ffdf54,626b377229c10585ec392f89,626b3abbd3839e0793b5811c,,,,,,,,,,,,,,,,,,,,,,,l,0,"[""0.304"",""0.691"",""0.631"",""0.887""]","[1,0,1,1]",0,30,30,30,1,0,0,,,1,FALSE,1.6511,,,,,,,,,,,,,,,,,,,,,,,,,,,,,,
,612305f2c3a79ccc85ffdf54,001,2022-04-28_21h09.50.047,classification_task,2021.2.3,Win32,59.81576744,612305f2c3a79ccc85ffdf54,626b377229c10585ec392f89,626b3abbd3839e0793b5811c,,,,,,,,,,,,,,,,,,,,,,,a,1,"[""0.404"",""0.347"",""0.631"",""0.887""]","[0,1,1,1]",0,31,31,31,1,0,0,,,1,FALSE,1.6782,,,,,,,,,,,,,,,,,,,,,,,,,,,,,,
,612305f2c3a79ccc85ffdf54,001,2022-04-28_21h09.50.047,classification_task,2021.2.3,Win32,59.81576744,612305f2c3a79ccc85ffdf54,626b377229c10585ec392f89,626b3abbd3839e0793b5811c,,,,,,,,,,,,,,,,,,,,,,,a,1,"[""0.304"",""0.672"",""0.631"",""0.887""]","[1,0,1,1]",0,32,32,32,1,0,0,,,1,FALSE,0.7066,,,,,,,,,,,,,,,,,,,,,,,,,,,,,,
,612305f2c3a79ccc85ffdf54,001,2022-04-28_21h09.50.047,classification_task,2021.2.3,Win32,59.81576744,612305f2c3a79ccc85ffdf54,626b377229c10585ec392f89,626b3abbd3839e0793b5811c,,,,,,,,,,,,,,,,,,,,,,,l,1,"[""0.044"",""0.116"",""0.514"",""0.966""]","[1,1,1,0]",0,33,33,33,1,1,1,,,1,FALSE,1.2537,,,,,,,,,,,,,,,,,,,,,,,,,,,,,,
,612305f2c3a79ccc85ffdf54,001,2022-04-28_21h09.50.047,classification_task,2021.2.3,Win32,59.81576744,612305f2c3a79ccc85ffdf54,626b377229c10585ec392f89,626b3abbd3839e0793b5811c,,,,,,,,,,,,,,,,,,,,,,,l,1,"[""0.078"",""0.690"",""0.576"",""0.735""]","[1,0,1,1]",0,34,34,34,1,1,0,,,1,FALSE,2.5104,,,,,,,,,,,,,,,,,,,,,,,,,,,,,,
,612305f2c3a79ccc85ffdf54,001,2022-04-28_21h09.50.047,classification_task,2021.2.3,Win32,59.81576744,612305f2c3a79ccc85ffdf54,626b377229c10585ec392f89,626b3abbd3839e0793b5811c,,,,,,,,,,,,,,,,,,,,,,,l,1,"[""0.078"",""0.237"",""0.576"",""0.966""]","[1,1,1,0]",0,35,35,35,1,1,0,,,1,FALSE,1.3348,,,,,,,,,,,,,,,,,,,,,,,,,,,,,,
,612305f2c3a79ccc85ffdf54,001,2022-04-28_21h09.50.047,classification_task,2021.2.3,Win32,59.81576744,612305f2c3a79ccc85ffdf54,626b377229c10585ec392f89,626b3abbd3839e0793b5811c,,,,,,,,,,,,,,,,,,,,,,,a,1,"[""0.202"",""0.966"",""0.793"",""0.924""]","[1,0,1,1]",0,36,36,36,1,0,1,,,1,FALSE,1.1365,,,,,,,,,,,,,,,,,,,,,,,,,,,,,,
,612305f2c3a79ccc85ffdf54,001,2022-04-28_21h09.50.047,classification_task,2021.2.3,Win32,59.81576744,612305f2c3a79ccc85ffdf54,626b377229c10585ec392f89,626b3abbd3839e0793b5811c,,,,,,,,,,,,,,,,,,,,,,,a,0,"[""0.161"",""0.237"",""0.576"",""0.735""]","[0,1,1,1]",0,37,37,37,1,1,0,,,1,FALSE,2.6775,,,,,,,,,,,,,,,,,,,,,,,,,,,,,,
,612305f2c3a79ccc85ffdf54,001,2022-04-28_21h09.50.047,classification_task,2021.2.3,Win32,59.81576744,612305f2c3a79ccc85ffdf54,626b377229c10585ec392f89,626b3abbd3839e0793b5811c,,,,,,,,,,,,,,,,,,,,,,,l,1,"[""0.965"",""0.116"",""0.514"",""0.837""]","[0,1,1,1]",0,38,38,38,1,1,1,,,1,FALSE,1.2086,,,,,,,,,,,,,,,,,,,,,,,,,,,,,,
,612305f2c3a79ccc85ffdf54,001,2022-04-28_21h09.50.047,classification_task,2021.2.3,Win32,59.81576744,612305f2c3a79ccc85ffdf54,626b377229c10585ec392f89,626b3abbd3839e0793b5811c,,,,,,,,,,,,,,,,,,,,,,,a,1,"[""0.304"",""0.347"",""0.405"",""0.887""]","[1,1,0,1]",0,39,39,39,1,0,0,,,1,FALSE,1.3878,,,,,,,,,,,,,,,,,,,,,,,,,,,,,,
,612305f2c3a79ccc85ffdf54,001,2022-04-28_21h09.50.047,classification_task,2021.2.3,Win32,59.81576744,612305f2c3a79ccc85ffdf54,626b377229c10585ec392f89,626b3abbd3839e0793b5811c,,,,,,,,,,,,,,,,,,,,,,,a,1,"[""0.202"",""0.446"",""0.690"",""0.924""]","[1,1,0,1]",0,40,40,40,1,0,1,,,1,FALSE,1.084,,,,,,,,,,,,,,,,,,,,,,,,,,,,,,
,612305f2c3a79ccc85ffdf54,001,2022-04-28_21h09.50.047,classification_task,2021.2.3,Win32,59.81576744,612305f2c3a79ccc85ffdf54,626b377229c10585ec392f89,626b3abbd3839e0793b5811c,,,,,,,,,,,,,,,,,,,,,,,a,0,"[""0.044"",""0.116"",""0.971"",""0.837""]","[1,1,0,1]",0,41,41,41,1,1,1,,,1,FALSE,0.9207,,,,,,,,,,,,,,,,,,,,,,,,,,,,,,
,612305f2c3a79ccc85ffdf54,001,2022-04-28_21h09.50.047,classification_task,2021.2.3,Win32,59.81576744,612305f2c3a79ccc85ffdf54,626b377229c10585ec392f89,626b3abbd3839e0793b5811c,,,,,,,,,,,,,,,,,,,,,,,a,1,"[""0.967"",""0.446"",""0.793"",""0.924""]","[0,1,1,1]",0,42,42,42,1,0,1,,,1,FALSE,2.8647,,,,,,,,,,,,,,,,,,,,,,,,,,,,,,
,612305f2c3a79ccc85ffdf54,001,2022-04-28_21h09.50.047,classification_task,2021.2.3,Win32,59.81576744,612305f2c3a79ccc85ffdf54,626b377229c10585ec392f89,626b3abbd3839e0793b5811c,,,,,,,,,,,,,,,,,,,,,,,l,1,"[""0.044"",""0.691"",""0.514"",""0.837""]","[1,0,1,1]",0,43,43,43,1,1,1,,,1,FALSE,0.9482,,,,,,,,,,,,,,,,,,,,,,,,,,,,,,
,612305f2c3a79ccc85ffdf54,001,2022-04-28_21h09.50.047,classification_task,2021.2.3,Win32,59.81576744,612305f2c3a79ccc85ffdf54,626b377229c10585ec392f89,626b3abbd3839e0793b5811c,,,,,,,,,,,,,,,,,,,,,,,l,1,"[""0.078"",""0.237"",""0.380"",""0.735""]","[1,1,0,1]",0,44,44,44,1,1,0,,,1,FALSE,0.9361,,,,,,,,,,,,,,,,,,,,,,,,,,,,,,
,612305f2c3a79ccc85ffdf54,001,2022-04-28_21h09.50.047,classification_task,2021.2.3,Win32,59.81576744,612305f2c3a79ccc85ffdf54,626b377229c10585ec392f89,626b3abbd3839e0793b5811c,,,,,,,,,,,,,,,,,,,,,,,a,1,"[""0.202"",""0.446"",""0.793"",""0.405""]","[1,1,1,0]",0,45,45,45,1,0,1,,,1,FALSE,1.3714,,,,,,,,,,,,,,,,,,,,,,,,,,,,,,
,612305f2c3a79ccc85ffdf54,001,2022-04-28_21h09.50.047,classification_task,2021.2.3,Win32,59.81576744,612305f2c3a79ccc85ffdf54,626b377229c10585ec392f89,626b3abbd3839e0793b5811c,,,,,,,,,,,,,,,,,,,,,,,,0,"[""0.304"",""0.347"",""0.631"",""0.150""]","[1,1,1,0]",0,46,46,46,1,0,0,,,1,FALSE,,,,,,,,,,,,,,,,,,,,,,,,,,,,,,,
,612305f2c3a79ccc85ffdf54,001,2022-04-28_21h09.50.047,classification_task,2021.2.3,Win32,59.81576744,612305f2c3a79ccc85ffdf54,626b377229c10585ec392f89,626b3abbd3839e0793b5811c,,,,,,,,,,,,,,,,,,,,,,,,0,"[""0.405"",""0.347"",""0.631"",""0.887""]","[0,1,1,1]",0,47,47,47,1,0,0,,,1,FALSE,,,,,,,,,,,,,,,,,,,,,,,,,,,,,,,
,612305f2c3a79ccc85ffdf54,001,2022-04-28_21h09.50.047,classification_task,2021.2.3,Win32,59.81576744,612305f2c3a79ccc85ffdf54,626b377229c10585ec392f89,626b3abbd3839e0793b5811c,,,,,,,,,,,,,,,,,,,,,,,a,1,"[""0.971"",""0.347"",""0.631"",""0.887""]","[0,1,1,1]",0,48,48,48,1,0,0,,,1,FALSE,1.626,,,,,,,,,,,,,,,,,,,,,,,,,,,,,,
,612305f2c3a79ccc85ffdf54,001,2022-04-28_21h09.50.047,classification_task,2021.2.3,Win32,59.81576744,612305f2c3a79ccc85ffdf54,626b377229c10585ec392f89,626b3abbd3839e0793b5811c,,,,,,,,,,,,,,,,,,,,,,,l,1,"[""0.078"",""0.237"",""0.692"",""0.735""]","[1,1,0,1]",0,49,49,49,1,1,0,,,1,FALSE,1.7111,,,,,,,,,,,,,,,,,,,,,,,,,,,,,,
,612305f2c3a79ccc85ffdf54,001,2022-04-28_21h09.50.047,classification_task,2021.2.3,Win32,59.81576744,612305f2c3a79ccc85ffdf54,626b377229c10585ec392f89,626b3abbd3839e0793b5811c,,,,,,,,,,,,,,,,,,,,,,,l,1,"[""0.044"",""0.116"",""0.971"",""0.837""]","[1,1,0,1]",0,50,50,50,1,1,1,,,1,FALSE,0.8185,,,,,,,,,,,,,,,,,,,,,,,,,,,,,,
,612305f2c3a79ccc85ffdf54,001,2022-04-28_21h09.50.047,classification_task,2021.2.3,Win32,59.81576744,612305f2c3a79ccc85ffdf54,626b377229c10585ec392f89,626b3abbd3839e0793b5811c,,,,,,,,,,,,,,,,,,,,,,,a,1,"[""0.304"",""0.347"",""0.631"",""0.965""]","[1,1,1,0]",0,51,51,51,1,0,0,,,1,FALSE,1.0389,,,,,,,,,,,,,,,,,,,,,,,,,,,,,,
,612305f2c3a79ccc85ffdf54,001,2022-04-28_21h09.50.047,classification_task,2021.2.3,Win32,59.81576744,612305f2c3a79ccc85ffdf54,626b377229c10585ec392f89,626b3abbd3839e0793b5811c,,,,,,,,,,,,,,,,,,,,,,,a,1,"[""0.304"",""0.965"",""0.631"",""0.887""]","[1,0,1,1]",0,52,52,52,1,0,0,,,1,FALSE,0.6186,,,,,,,,,,,,,,,,,,,,,,,,,,,,,,
,612305f2c3a79ccc85ffdf54,001,2022-04-28_21h09.50.047,classification_task,2021.2.3,Win32,59.81576744,612305f2c3a79ccc85ffdf54,626b377229c10585ec392f89,626b3abbd3839e0793b5811c,,,,,,,,,,,,,,,,,,,,,,,a,1,"[""0.304"",""0.347"",""0.966"",""0.887""]","[1,1,0,1]",0,53,53,53,1,0,0,,,1,FALSE,0.6712,,,,,,,,,,,,,,,,,,,,,,,,,,,,,,
,612305f2c3a79ccc85ffdf54,001,2022-04-28_21h09.50.047,classification_task,2021.2.3,Win32,59.81576744,612305f2c3a79ccc85ffdf54,626b377229c10585ec392f89,626b3abbd3839e0793b5811c,,,,,,,,,,,,,,,,,,,,,,,l,1,"[""0.044"",""0.168"",""0.514"",""0.837""]","[1,0,1,1]",0,54,54,54,1,1,1,,,1,FALSE,1.419,,,,,,,,,,,,,,,,,,,,,,,,,,,,,,
,612305f2c3a79ccc85ffdf54,001,2022-04-28_21h09.50.047,classification_task,2021.2.3,Win32,59.81576744,612305f2c3a79ccc85ffdf54,626b377229c10585ec392f89,626b3abbd3839e0793b5811c,,,,,,,,,,,,,,,,,,,,,,,l,1,"[""0.692"",""0.237"",""0.576"",""0.735""]","[0,1,1,1]",0,55,55,55,1,1,0,,,1,FALSE,1.5076,,,,,,,,,,,,,,,,,,,,,,,,,,,,,,
,612305f2c3a79ccc85ffdf54,001,2022-04-28_21h09.50.047,classification_task,2021.2.3,Win32,59.81576744,612305f2c3a79ccc85ffdf54,626b377229c10585ec392f89,626b3abbd3839e0793b5811c,,,,,,,,,,,,,,,,,,,,,,,a,1,"[""0.202"",""0.446"",""0.150"",""0.924""]","[1,1,0,1]",0,56,56,56,1,0,1,,,1,FALSE,0.972,,,,,,,,,,,,,,,,,,,,,,,,,,,,,,
,612305f2c3a79ccc85ffdf54,001,2022-04-28_21h09.50.047,classification_task,2021.2.3,Win32,59.81576744,612305f2c3a79ccc85ffdf54,626b377229c10585ec392f89,626b3abbd3839e0793b5811c,,,,,,,,,,,,,,,,,,,,,,,l,1,"[""0.078"",""0.404"",""0.576"",""0.735""]","[1,0,1,1]",0,57,57,57,1,1,0,,,1,FALSE,0.9712,,,,,,,,,,,,,,,,,,,,,,,,,,,,,,
,612305f2c3a79ccc85ffdf54,001,2022-04-28_21h09.50.047,classification_task,2021.2.3,Win32,59.81576744,612305f2c3a79ccc85ffdf54,626b377229c10585ec392f89,626b3abbd3839e0793b5811c,,,,,,,,,,,,,,,,,,,,,,,a,1,"[""0.202"",""0.966"",""0.793"",""0.924""]","[1,0,1,1]",0,58,58,58,1,0,1,,,1,FALSE,0.9739,,,,,,,,,,,,,,,,,,,,,,,,,,,,,,
,612305f2c3a79ccc85ffdf54,001,2022-04-28_21h09.50.047,classification_task,2021.2.3,Win32,59.81576744,612305f2c3a79ccc85ffdf54,626b377229c10585ec392f89,626b3abbd3839e0793b5811c,,,,,,,,,,,,,,,,,,,,,,,l,1,"[""0.044"",""0.116"",""0.514"",""0.691""]","[1,1,1,0]",0,59,59,59,1,1,1,,,1,FALSE,0.943,,,,,,,,,,,,,,,,,,,,,,,,,,,,,,
,612305f2c3a79ccc85ffdf54,001,2022-04-28_21h09.50.047,classification_task,2021.2.3,Win32,59.81576744,612305f2c3a79ccc85ffdf54,626b377229c10585ec392f89,626b3abbd3839e0793b5811c,,,,,,,,,,,,,,,,,,,,,,,a,0,"[""0.690"",""0.116"",""0.514"",""0.837""]","[0,1,1,1]",0,60,60,60,1,1,1,,,1,FALSE,2.163,,,,,,,,,,,,,,,,,,,,,,,,,,,,,,
,612305f2c3a79ccc85ffdf54,001,2022-04-28_21h09.50.047,classification_task,2021.2.3,Win32,59.81576744,612305f2c3a79ccc85ffdf54,626b377229c10585ec392f89,626b3abbd3839e0793b5811c,,,,,,,,,,,,,,,,,,,,,,,l,1,"[""0.078"",""0.237"",""0.576"",""0.168""]","[1,1,1,0]",0,61,61,61,1,1,0,,,1,FALSE,0.8826,,,,,,,,,,,,,,,,,,,,,,,,,,,,,,
,612305f2c3a79ccc85ffdf54,001,2022-04-28_21h09.50.047,classification_task,2021.2.3,Win32,59.81576744,612305f2c3a79ccc85ffdf54,626b377229c10585ec392f89,626b3abbd3839e0793b5811c,,,,,,,,,,,,,,,,,,,,,,,a,1,"[""0.202"",""0.446"",""0.793"",""0.380""]","[1,1,1,0]",0,62,62,62,1,0,1,,,1,FALSE,1.152,,,,,,,,,,,,,,,,,,,,,,,,,,,,,,
,612305f2c3a79ccc85ffdf54,001,2022-04-28_21h09.50.047,classification_task,2021.2.3,Win32,59.81576744,612305f2c3a79ccc85ffdf54,626b377229c10585ec392f89,626b3abbd3839e0793b5811c,,,,,,,,,,,,,,,,,,,,,,,a,1,"[""0.161"",""0.446"",""0.793"",""0.924""]","[0,1,1,1]",0,63,63,63,1,0,1,,,1,FALSE,0.7712,,,,,,,,,,,,,,,,,,,,,,,,,,,,,,
,612305f2c3a79ccc85ffdf54,001,2022-04-28_21h09.50.047,classification_task,2021.2.3,Win32,59.81576744,612305f2c3a79ccc85ffdf54,626b377229c10585ec392f89,626b3abbd3839e0793b5811c,,,,,,,,,,,,,,,,,,,,,,,,,,,,,,,,,,,,,,,0, ,,0,4.883647248,196.9291,0,1,1,1,1,2,2,,,,,,,,,,,,,,,,,
,612305f2c3a79ccc85ffdf54,001,2022-04-28_21h09.50.047,classification_task,2021.2.3,Win32,59.81576744,612305f2c3a79ccc85ffdf54,626b377229c10585ec392f89,626b3abbd3839e0793b5811c,,,,,,,,,,,,,,,,,,,,,,,,,,,,,,,,,,,,,,,1,  ,,0,3.781354479,198.3363,0,1,1,1,1,2,2,,,,,,,,,,,,,,,,,
,612305f2c3a79ccc85ffdf54,001,2022-04-28_21h09.50.047,classification_task,2021.2.3,Win32,59.81576744,612305f2c3a79ccc85ffdf54,626b377229c10585ec392f89,626b3abbd3839e0793b5811c,,,,,,,,,,,,,,,,,,,,,,,,,,,,,,,,,,,,,,,2,  ,,0,6.08392197,199.1669,0,1,1,1,1,2,2,,,,,,,,,,,,,,,,,
,612305f2c3a79ccc85ffdf54,001,2022-04-28_21h09.50.047,classification_task,2021.2.3,Win32,59.81576744,612305f2c3a79ccc85ffdf54,626b377229c10585ec392f89,626b3abbd3839e0793b5811c,,,,,,,,,,,,,,,,,,,,,,,,,,,,,,,,,,,,,,,,,,,,,0,1,1,1,1,,2,,,,,,,,,,,,,,,,,
,612305f2c3a79ccc85ffdf54,001,2022-04-28_21h09.50.047,classification_task,2021.2.3,Win32,59.81576744,612305f2c3a79ccc85ffdf54,626b377229c10585ec392f89,626b3abbd3839e0793b5811c,,,,,,,,,,,,,,,,,,,,,space,5.1127,a,1,"[""0.202"",""0.446"",""0.793"",""0.162""]","[1,1,1,0]",0,0,0,0,1,0,1,,,1,FALSE,1.3525,,,,,,,,,,,,,,,,,,,,,,,,,,,,,,
,612305f2c3a79ccc85ffdf54,001,2022-04-28_21h09.50.047,classification_task,2021.2.3,Win32,59.81576744,612305f2c3a79ccc85ffdf54,626b377229c10585ec392f89,626b3abbd3839e0793b5811c,,,,,,,,,,,,,,,,,,,,,,,l,1,"[""0.078"",""0.965"",""0.576"",""0.735""]","[1,0,1,1]",0,1,1,1,1,1,0,,,1,FALSE,1.1591,,,,,,,,,,,,,,,,,,,,,,,,,,,,,,
,612305f2c3a79ccc85ffdf54,001,2022-04-28_21h09.50.047,classification_task,2021.2.3,Win32,59.81576744,612305f2c3a79ccc85ffdf54,626b377229c10585ec392f89,626b3abbd3839e0793b5811c,,,,,,,,,,,,,,,,,,,,,,,l,1,"[""0.044"",""0.116"",""0.514"",""0.965""]","[1,1,1,0]",0,2,2,2,1,1,1,,,1,FALSE,0.9556,,,,,,,,,,,,,,,,,,,,,,,,,,,,,,
,612305f2c3a79ccc85ffdf54,001,2022-04-28_21h09.50.047,classification_task,2021.2.3,Win32,59.81576744,612305f2c3a79ccc85ffdf54,626b377229c10585ec392f89,626b3abbd3839e0793b5811c,,,,,,,,,,,,,,,,,,,,,,,l,1,"[""0.044"",""0.691"",""0.514"",""0.837""]","[1,0,1,1]",0,3,3,3,1,1,1,,,1,FALSE,0.953,,,,,,,,,,,,,,,,,,,,,,,,,,,,,,
,612305f2c3a79ccc85ffdf54,001,2022-04-28_21h09.50.047,classification_task,2021.2.3,Win32,59.81576744,612305f2c3a79ccc85ffdf54,626b377229c10585ec392f89,626b3abbd3839e0793b5811c,,,,,,,,,,,,,,,,,,,,,,,a,1,"[""0.304"",""0.692"",""0.631"",""0.887""]","[1,0,1,1]",0,4,4,4,1,0,0,,,1,FALSE,1.2919,,,,,,,,,,,,,,,,,,,,,,,,,,,,,,
,612305f2c3a79ccc85ffdf54,001,2022-04-28_21h09.50.047,classification_task,2021.2.3,Win32,59.81576744,612305f2c3a79ccc85ffdf54,626b377229c10585ec392f89,626b3abbd3839e0793b5811c,,,,,,,,,,,,,,,,,,,,,,,l,0,"[""0.304"",""0.347"",""0.386"",""0.887""]","[1,1,0,1]",0,5,5,5,1,0,0,,,1,FALSE,2.528,,,,,,,,,,,,,,,,,,,,,,,,,,,,,,
,612305f2c3a79ccc85ffdf54,001,2022-04-28_21h09.50.047,classification_task,2021.2.3,Win32,59.81576744,612305f2c3a79ccc85ffdf54,626b377229c10585ec392f89,626b3abbd3839e0793b5811c,,,,,,,,,,,,,,,,,,,,,,,l,0,"[""0.304"",""0.347"",""0.631"",""0.404""]","[1,1,1,0]",0,6,6,6,1,0,0,,,1,FALSE,2.5938,,,,,,,,,,,,,,,,,,,,,,,,,,,,,,
,612305f2c3a79ccc85ffdf54,001,2022-04-28_21h09.50.047,classification_task,2021.2.3,Win32,59.81576744,612305f2c3a79ccc85ffdf54,626b377229c10585ec392f89,626b3abbd3839e0793b5811c,,,,,,,,,,,,,,,,,,,,,,,a,1,"[""0.202"",""0.161"",""0.793"",""0.924""]","[1,0,1,1]",0,7,7,7,1,0,1,,,1,FALSE,1.6224,,,,,,,,,,,,,,,,,,,,,,,,,,,,,,
,612305f2c3a79ccc85ffdf54,001,2022-04-28_21h09.50.047,classification_task,2021.2.3,Win32,59.81576744,612305f2c3a79ccc85ffdf54,626b377229c10585ec392f89,626b3abbd3839e0793b5811c,,,,,,,,,,,,,,,,,,,,,,,a,1,"[""0.386"",""0.446"",""0.793"",""0.924""]","[0,1,1,1]",0,8,8,8,1,0,1,,,1,FALSE,1.3271,,,,,,,,,,,,,,,,,,,,,,,,,,,,,,
,612305f2c3a79ccc85ffdf54,001,2022-04-28_21h09.50.047,classification_task,2021.2.3,Win32,59.81576744,612305f2c3a79ccc85ffdf54,626b377229c10585ec392f89,626b3abbd3839e0793b5811c,,,,,,,,,,,,,,,,,,,,,,,l,1,"[""0.161"",""0.237"",""0.576"",""0.735""]","[0,1,1,1]",0,9,9,9,1,1,0,,,1,FALSE,2.0458,,,,,,,,,,,,,,,,,,,,,,,,,,,,,,
,612305f2c3a79ccc85ffdf54,001,2022-04-28_21h09.50.047,classification_task,2021.2.3,Win32,59.81576744,612305f2c3a79ccc85ffdf54,626b377229c10585ec392f89,626b3abbd3839e0793b5811c,,,,,,,,,,,,,,,,,,,,,,,a,1,"[""0.202"",""0.446"",""0.150"",""0.924""]","[1,1,0,1]",0,10,10,10,1,0,1,,,1,FALSE,1.5352,,,,,,,,,,,,,,,,,,,,,,,,,,,,,,
,612305f2c3a79ccc85ffdf54,001,2022-04-28_21h09.50.047,classification_task,2021.2.3,Win32,59.81576744,612305f2c3a79ccc85ffdf54,626b377229c10585ec392f89,626b3abbd3839e0793b5811c,,,,,,,,,,,,,,,,,,,,,,,l,1,"[""0.078"",""0.237"",""0.971"",""0.735""]","[1,1,0,1]",0,11,11,11,1,1,0,,,1,FALSE,2.5382,,,,,,,,,,,,,,,,,,,,,,,,,,,,,,
,612305f2c3a79ccc85ffdf54,001,2022-04-28_21h09.50.047,classification_task,2021.2.3,Win32,59.81576744,612305f2c3a79ccc85ffdf54,626b377229c10585ec392f89,626b3abbd3839e0793b5811c,,,,,,,,,,,,,,,,,,,,,,,l,1,"[""0.044"",""0.116"",""0.162"",""0.837""]","[1,1,0,1]",0,12,12,12,1,1,1,,,1,FALSE,1.6026,,,,,,,,,,,,,,,,,,,,,,,,,,,,,,
,612305f2c3a79ccc85ffdf54,001,2022-04-28_21h09.50.047,classification_task,2021.2.3,Win32,59.81576744,612305f2c3a79ccc85ffdf54,626b377229c10585ec392f89,626b3abbd3839e0793b5811c,,,,,,,,,,,,,,,,,,,,,,,l,1,"[""0.161"",""0.116"",""0.514"",""0.837""]","[0,1,1,1]",0,13,13,13,1,1,1,,,1,FALSE,5.3962,,,,,,,,,,,,,,,,,,,,,,,,,,,,,,
,612305f2c3a79ccc85ffdf54,001,2022-04-28_21h09.50.047,classification_task,2021.2.3,Win32,59.81576744,612305f2c3a79ccc85ffdf54,626b377229c10585ec392f89,626b3abbd3839e0793b5811c,,,,,,,,,,,,,,,,,,,,,,,a,1,"[""0.386"",""0.347"",""0.631"",""0.887""]","[0,1,1,1]",0,14,14,14,1,0,0,,,1,FALSE,7.9894,,,,,,,,,,,,,,,,,,,,,,,,,,,,,,
,612305f2c3a79ccc85ffdf54,001,2022-04-28_21h09.50.047,classification_task,2021.2.3,Win32,59.81576744,612305f2c3a79ccc85ffdf54,626b377229c10585ec392f89,626b3abbd3839e0793b5811c,,,,,,,,,,,,,,,,,,,,,,,l,1,"[""0.078"",""0.237"",""0.576"",""0.672""]","[1,1,1,0]",0,15,15,15,1,1,0,,,1,FALSE,1.1727,,,,,,,,,,,,,,,,,,,,,,,,,,,,,,
,612305f2c3a79ccc85ffdf54,001,2022-04-28_21h09.50.047,classification_task,2021.2.3,Win32,59.81576744,612305f2c3a79ccc85ffdf54,626b377229c10585ec392f89,626b3abbd3839e0793b5811c,,,,,,,,,,,,,,,,,,,,,,,a,1,"[""0.202"",""0.446"",""0.690"",""0.924""]","[1,1,0,1]",0,16,16,16,1,0,1,,,1,FALSE,1.055,,,,,,,,,,,,,,,,,,,,,,,,,,,,,,
,612305f2c3a79ccc85ffdf54,001,2022-04-28_21h09.50.047,classification_task,2021.2.3,Win32,59.81576744,612305f2c3a79ccc85ffdf54,626b377229c10585ec392f89,626b3abbd3839e0793b5811c,,,,,,,,,,,,,,,,,,,,,,,a,0,"[""0.691"",""0.237"",""0.576"",""0.735""]","[0,1,1,1]",0,17,17,17,1,1,0,,,1,FALSE,1.2394,,,,,,,,,,,,,,,,,,,,,,,,,,,,,,
,612305f2c3a79ccc85ffdf54,001,2022-04-28_21h09.50.047,classification_task,2021.2.3,Win32,59.81576744,612305f2c3a79ccc85ffdf54,626b377229c10585ec392f89,626b3abbd3839e0793b5811c,,,,,,,,,,,,,,,,,,,,,,,a,1,"[""0.304"",""0.168"",""0.631"",""0.887""]","[1,0,1,1]",0,18,18,18,1,0,0,,,1,FALSE,1.7928,,,,,,,,,,,,,,,,,,,,,,,,,,,,,,
,612305f2c3a79ccc85ffdf54,001,2022-04-28_21h09.50.047,classification_task,2021.2.3,Win32,59.81576744,612305f2c3a79ccc85ffdf54,626b377229c10585ec392f89,626b3abbd3839e0793b5811c,,,,,,,,,,,,,,,,,,,,,,,l,1,"[""0.044"",""0.116"",""0.514"",""0.966""]","[1,1,1,0]",0,19,19,19,1,1,1,,,1,FALSE,0.8555,,,,,,,,,,,,,,,,,,,,,,,,,,,,,,
,612305f2c3a79ccc85ffdf54,001,2022-04-28_21h09.50.047,classification_task,2021.2.3,Win32,59.81576744,612305f2c3a79ccc85ffdf54,626b377229c10585ec392f89,626b3abbd3839e0793b5811c,,,,,,,,,,,,,,,,,,,,,,,a,0,"[""0.965"",""0.116"",""0.514"",""0.837""]","[0,1,1,1]",0,20,20,20,1,1,1,,,1,FALSE,0.9854,,,,,,,,,,,,,,,,,,,,,,,,,,,,,,
,612305f2c3a79ccc85ffdf54,001,2022-04-28_21h09.50.047,classification_task,2021.2.3,Win32,59.81576744,612305f2c3a79ccc85ffdf54,626b377229c10585ec392f89,626b3abbd3839e0793b5811c,,,,,,,,,,,,,,,,,,,,,,,a,1,"[""0.304"",""0.347"",""0.631"",""0.966""]","[1,1,1,0]",0,21,21,21,1,0,0,,,1,FALSE,1.4928,,,,,,,,,,,,,,,,,,,,,,,,,,,,,,
,612305f2c3a79ccc85ffdf54,001,2022-04-28_21h09.50.047,classification_task,2021.2.3,Win32,59.81576744,612305f2c3a79ccc85ffdf54,626b377229c10585ec392f89,626b3abbd3839e0793b5811c,,,,,,,,,,,,,,,,,,,,,,,a,1,"[""0.161"",""0.446"",""0.793"",""0.924""]","[0,1,1,1]",0,22,22,22,1,0,1,,,1,FALSE,1.4958,,,,,,,,,,,,,,,,,,,,,,,,,,,,,,
,612305f2c3a79ccc85ffdf54,001,2022-04-28_21h09.50.047,classification_task,2021.2.3,Win32,59.81576744,612305f2c3a79ccc85ffdf54,626b377229c10585ec392f89,626b3abbd3839e0793b5811c,,,,,,,,,,,,,,,,,,,,,,,l,1,"[""0.078"",""0.168"",""0.576"",""0.735""]","[1,0,1,1]",0,23,23,23,1,1,0,,,1,FALSE,1.2099,,,,,,,,,,,,,,,,,,,,,,,,,,,,,,
,612305f2c3a79ccc85ffdf54,001,2022-04-28_21h09.50.047,classification_task,2021.2.3,Win32,59.81576744,612305f2c3a79ccc85ffdf54,626b377229c10585ec392f89,626b3abbd3839e0793b5811c,,,,,,,,,,,,,,,,,,,,,,,l,1,"[""0.078"",""0.237"",""0.576"",""0.690""]","[1,1,1,0]",0,24,24,24,1,1,0,,,1,FALSE,3.8174,,,,,,,,,,,,,,,,,,,,,,,,,,,,,,
,612305f2c3a79ccc85ffdf54,001,2022-04-28_21h09.50.047,classification_task,2021.2.3,Win32,59.81576744,612305f2c3a79ccc85ffdf54,626b377229c10585ec392f89,626b3abbd3839e0793b5811c,,,,,,,,,,,,,,,,,,,,,,,l,0,"[""0.202"",""0.446"",""0.793"",""0.150""]","[1,1,1,0]",0,25,25,25,1,0,1,,,1,FALSE,2.0292,,,,,,,,,,,,,,,,,,,,,,,,,,,,,,
,612305f2c3a79ccc85ffdf54,001,2022-04-28_21h09.50.047,classification_task,2021.2.3,Win32,59.81576744,612305f2c3a79ccc85ffdf54,626b377229c10585ec392f89,626b3abbd3839e0793b5811c,,,,,,,,,,,,,,,,,,,,,,,l,1,"[""0.044"",""0.405"",""0.514"",""0.837""]","[1,0,1,1]",0,26,26,26,1,1,1,,,1,FALSE,0.8387,,,,,,,,,,,,,,,,,,,,,,,,,,,,,,
,612305f2c3a79ccc85ffdf54,001,2022-04-28_21h09.50.047,classification_task,2021.2.3,Win32,59.81576744,612305f2c3a79ccc85ffdf54,626b377229c10585ec392f89,626b3abbd3839e0793b5811c,,,,,,,,,,,,,,,,,,,,,,,a,1,"[""0.202"",""0.691"",""0.793"",""0.924""]","[1,0,1,1]",0,27,27,27,1,0,1,,,1,FALSE,0.7869,,,,,,,,,,,,,,,,,,,,,,,,,,,,,,
,612305f2c3a79ccc85ffdf54,001,2022-04-28_21h09.50.047,classification_task,2021.2.3,Win32,59.81576744,612305f2c3a79ccc85ffdf54,626b377229c10585ec392f89,626b3abbd3839e0793b5811c,,,,,,,,,,,,,,,,,,,,,,,l,1,"[""0.078"",""0.237"",""0.162"",""0.735""]","[1,1,0,1]",0,28,28,28,1,1,0,,,1,FALSE,3.3903,,,,,,,,,,,,,,,,,,,,,,,,,,,,,,
,612305f2c3a79ccc85ffdf54,001,2022-04-28_21h09.50.047,classification_task,2021.2.3,Win32,59.81576744,612305f2c3a79ccc85ffdf54,626b377229c10585ec392f89,626b3abbd3839e0793b5811c,,,,,,,,,,,,,,,,,,,,,,,l,1,"[""0.044"",""0.116"",""0.168"",""0.837""]","[1,1,0,1]",0,29,29,29,1,1,1,,,1,FALSE,0.7254,,,,,,,,,,,,,,,,,,,,,,,,,,,,,,
,612305f2c3a79ccc85ffdf54,001,2022-04-28_21h09.50.047,classification_task,2021.2.3,Win32,59.81576744,612305f2c3a79ccc85ffdf54,626b377229c10585ec392f89,626b3abbd3839e0793b5811c,,,,,,,,,,,,,,,,,,,,,,,a,1,"[""0.304"",""0.347"",""0.691"",""0.887""]","[1,1,0,1]",0,30,30,30,1,0,0,,,1,FALSE,2.4531,,,,,,,,,,,,,,,,,,,,,,,,,,,,,,
,612305f2c3a79ccc85ffdf54,001,2022-04-28_21h09.50.047,classification_task,2021.2.3,Win32,59.81576744,612305f2c3a79ccc85ffdf54,626b377229c10585ec392f89,626b3abbd3839e0793b5811c,,,,,,,,,,,,,,,,,,,,,,,a,1,"[""0.386"",""0.347"",""0.631"",""0.887""]","[0,1,1,1]",0,31,31,31,1,0,0,,,1,FALSE,3.5036,,,,,,,,,,,,,,,,,,,,,,,,,,,,,,
,612305f2c3a79ccc85ffdf54,001,2022-04-28_21h09.50.047,classification_task,2021.2.3,Win32,59.81576744,612305f2c3a79ccc85ffdf54,626b377229c10585ec392f89,626b3abbd3839e0793b5811c,,,,,,,,,,,,,,,,,,,,,,,l,1,"[""0.044"",""0.116"",""0.514"",""0.162""]","[1,1,1,0]",0,32,32,32,1,1,1,,,1,FALSE,0.8383,,,,,,,,,,,,,,,,,,,,,,,,,,,,,,
,612305f2c3a79ccc85ffdf54,001,2022-04-28_21h09.50.047,classification_task,2021.2.3,Win32,59.81576744,612305f2c3a79ccc85ffdf54,626b377229c10585ec392f89,626b3abbd3839e0793b5811c,,,,,,,,,,,,,,,,,,,,,,,l,1,"[""0.044"",""0.116"",""0.380"",""0.837""]","[1,1,0,1]",0,33,33,33,1,1,1,,,1,FALSE,3.4961,,,,,,,,,,,,,,,,,,,,,,,,,,,,,,
,612305f2c3a79ccc85ffdf54,001,2022-04-28_21h09.50.047,classification_task,2021.2.3,Win32,59.81576744,612305f2c3a79ccc85ffdf54,626b377229c10585ec392f89,626b3abbd3839e0793b5811c,,,,,,,,,,,,,,,,,,,,,,,a,0,"[""0.672"",""0.116"",""0.514"",""0.837""]","[0,1,1,1]",0,34,34,34,1,1,1,,,1,FALSE,3.0754,,,,,,,,,,,,,,,,,,,,,,,,,,,,,,
,612305f2c3a79ccc85ffdf54,001,2022-04-28_21h09.50.047,classification_task,2021.2.3,Win32,59.81576744,612305f2c3a79ccc85ffdf54,626b377229c10585ec392f89,626b3abbd3839e0793b5811c,,,,,,,,,,,,,,,,,,,,,,,l,1,"[""0.078"",""0.237"",""0.690"",""0.735""]","[1,1,0,1]",0,35,35,35,1,1,0,,,1,FALSE,1.2166,,,,,,,,,,,,,,,,,,,,,,,,,,,,,,
,612305f2c3a79ccc85ffdf54,001,2022-04-28_21h09.50.047,classification_task,2021.2.3,Win32,59.81576744,612305f2c3a79ccc85ffdf54,626b377229c10585ec392f89,626b3abbd3839e0793b5811c,,,,,,,,,,,,,,,,,,,,,,,l,1,"[""0.044"",""0.672"",""0.514"",""0.837""]","[1,0,1,1]",0,36,36,36,1,1,1,,,1,FALSE,0.7257,,,,,,,,,,,,,,,,,,,,,,,,,,,,,,
,612305f2c3a79ccc85ffdf54,001,2022-04-28_21h09.50.047,classification_task,2021.2.3,Win32,59.81576744,612305f2c3a79ccc85ffdf54,626b377229c10585ec392f89,626b3abbd3839e0793b5811c,,,,,,,,,,,,,,,,,,,,,,,l,1,"[""0.078"",""0.237"",""0.576"",""0.966""]","[1,1,1,0]",0,37,37,37,1,1,0,,,1,FALSE,0.6252,,,,,,,,,,,,,,,,,,,,,,,,,,,,,,
,612305f2c3a79ccc85ffdf54,001,2022-04-28_21h09.50.047,classification_task,2021.2.3,Win32,59.81576744,612305f2c3a79ccc85ffdf54,626b377229c10585ec392f89,626b3abbd3839e0793b5811c,,,,,,,,,,,,,,,,,,,,,,,a,1,"[""0.202"",""0.446"",""0.967"",""0.924""]","[1,1,0,1]",0,38,38,38,1,0,1,,,1,FALSE,0.873,,,,,,,,,,,,,,,,,,,,,,,,,,,,,,
,612305f2c3a79ccc85ffdf54,001,2022-04-28_21h09.50.047,classification_task,2021.2.3,Win32,59.81576744,612305f2c3a79ccc85ffdf54,626b377229c10585ec392f89,626b3abbd3839e0793b5811c,,,,,,,,,,,,,,,,,,,,,,,a,0,"[""0.168"",""0.237"",""0.576"",""0.735""]","[0,1,1,1]",0,39,39,39,1,1,0,,,1,FALSE,0.7563,,,,,,,,,,,,,,,,,,,,,,,,,,,,,,
,612305f2c3a79ccc85ffdf54,001,2022-04-28_21h09.50.047,classification_task,2021.2.3,Win32,59.81576744,612305f2c3a79ccc85ffdf54,626b377229c10585ec392f89,626b3abbd3839e0793b5811c,,,,,,,,,,,,,,,,,,,,,,,l,1,"[""0.078"",""0.162"",""0.576"",""0.735""]","[1,0,1,1]",0,40,40,40,1,1,0,,,1,FALSE,0.9599,,,,,,,,,,,,,,,,,,,,,,,,,,,,,,
,612305f2c3a79ccc85ffdf54,001,2022-04-28_21h09.50.047,classification_task,2021.2.3,Win32,59.81576744,612305f2c3a79ccc85ffdf54,626b377229c10585ec392f89,626b3abbd3839e0793b5811c,,,,,,,,,,,,,,,,,,,,,,,a,1,"[""0.202"",""0.446"",""0.793"",""0.967""]","[1,1,1,0]",0,41,41,41,1,0,1,,,1,FALSE,0.7875,,,,,,,,,,,,,,,,,,,,,,,,,,,,,,
,612305f2c3a79ccc85ffdf54,001,2022-04-28_21h09.50.047,classification_task,2021.2.3,Win32,59.81576744,612305f2c3a79ccc85ffdf54,626b377229c10585ec392f89,626b3abbd3839e0793b5811c,,,,,,,,,,,,,,,,,,,,,,,a,1,"[""0.202"",""0.692"",""0.793"",""0.924""]","[1,0,1,1]",0,42,42,42,1,0,1,,,1,FALSE,0.6914,,,,,,,,,,,,,,,,,,,,,,,,,,,,,,
,612305f2c3a79ccc85ffdf54,001,2022-04-28_21h09.50.047,classification_task,2021.2.3,Win32,59.81576744,612305f2c3a79ccc85ffdf54,626b377229c10585ec392f89,626b3abbd3839e0793b5811c,,,,,,,,,,,,,,,,,,,,,,,a,1,"[""0.304"",""0.347"",""0.966"",""0.887""]","[1,1,0,1]",0,43,43,43,1,0,0,,,1,FALSE,2.3371,,,,,,,,,,,,,,,,,,,,,,,,,,,,,,
,612305f2c3a79ccc85ffdf54,001,2022-04-28_21h09.50.047,classification_task,2021.2.3,Win32,59.81576744,612305f2c3a79ccc85ffdf54,626b377229c10585ec392f89,626b3abbd3839e0793b5811c,,,,,,,,,,,,,,,,,,,,,,,a,1,"[""0.965"",""0.347"",""0.631"",""0.887""]","[0,1,1,1]",0,44,44,44,1,0,0,,,1,FALSE,1.6849,,,,,,,,,,,,,,,,,,,,,,,,,,,,,,
,612305f2c3a79ccc85ffdf54,001,2022-04-28_21h09.50.047,classification_task,2021.2.3,Win32,59.81576744,612305f2c3a79ccc85ffdf54,626b377229c10585ec392f89,626b3abbd3839e0793b5811c,,,,,,,,,,,,,,,,,,,,,,,l,0,"[""0.304"",""0.691"",""0.631"",""0.887""]","[1,0,1,1]",0,45,45,45,1,0,0,,,1,FALSE,2.4975,,,,,,,,,,,,,,,,,,,,,,,,,,,,,,
,612305f2c3a79ccc85ffdf54,001,2022-04-28_21h09.50.047,classification_task,2021.2.3,Win32,59.81576744,612305f2c3a79ccc85ffdf54,626b377229c10585ec392f89,626b3abbd3839e0793b5811c,,,,,,,,,,,,,,,,,,,,,,,a,1,"[""0.971"",""0.446"",""0.793"",""0.924""]","[0,1,1,1]",0,46,46,46,1,0,1,,,1,FALSE,1.1668,,,,,,,,,,,,,,,,,,,,,,,,,,,,,,
,612305f2c3a79ccc85ffdf54,001,2022-04-28_21h09.50.047,classification_task,2021.2.3,Win32,59.81576744,612305f2c3a79ccc85ffdf54,626b377229c10585ec392f89,626b3abbd3839e0793b5811c,,,,,,,,,,,,,,,,,,,,,,,a,1,"[""0.304"",""0.347"",""0.631"",""0.965""]","[1,1,1,0]",0,47,47,47,1,0,0,,,1,FALSE,1.4088,,,,,,,,,,,,,,,,,,,,,,,,,,,,,,
,612305f2c3a79ccc85ffdf54,001,2022-04-28_21h09.50.047,classification_task,2021.2.3,Win32,59.81576744,612305f2c3a79ccc85ffdf54,626b377229c10585ec392f89,626b3abbd3839e0793b5811c,,,,,,,,,,,,,,,,,,,,,,,l,0,"[""0.380"",""0.446"",""0.793"",""0.924""]","[0,1,1,1]",0,48,48,48,1,0,1,,,1,FALSE,0.7219,,,,,,,,,,,,,,,,,,,,,,,,,,,,,,
,612305f2c3a79ccc85ffdf54,001,2022-04-28_21h09.50.047,classification_task,2021.2.3,Win32,59.81576744,612305f2c3a79ccc85ffdf54,626b377229c10585ec392f89,626b3abbd3839e0793b5811c,,,,,,,,,,,,,,,,,,,,,,,l,1,"[""0.044"",""0.116"",""0.514"",""0.150""]","[1,1,1,0]",0,49,49,49,1,1,1,,,1,FALSE,1.9968,,,,,,,,,,,,,,,,,,,,,,,,,,,,,,
,612305f2c3a79ccc85ffdf54,001,2022-04-28_21h09.50.047,classification_task,2021.2.3,Win32,59.81576744,612305f2c3a79ccc85ffdf54,626b377229c10585ec392f89,626b3abbd3839e0793b5811c,,,,,,,,,,,,,,,,,,,,,,,a,1,"[""0.202"",""0.446"",""0.691"",""0.924""]","[1,1,0,1]",0,50,50,50,1,0,1,,,1,FALSE,1.0648,,,,,,,,,,,,,,,,,,,,,,,,,,,,,,
,612305f2c3a79ccc85ffdf54,001,2022-04-28_21h09.50.047,classification_task,2021.2.3,Win32,59.81576744,612305f2c3a79ccc85ffdf54,626b377229c10585ec392f89,626b3abbd3839e0793b5811c,,,,,,,,,,,,,,,,,,,,,,,a,1,"[""0.202"",""0.405"",""0.793"",""0.924""]","[1,0,1,1]",0,51,51,51,1,0,1,,,1,FALSE,0.6047,,,,,,,,,,,,,,,,,,,,,,,,,,,,,,
,612305f2c3a79ccc85ffdf54,001,2022-04-28_21h09.50.047,classification_task,2021.2.3,Win32,59.81576744,612305f2c3a79ccc85ffdf54,626b377229c10585ec392f89,626b3abbd3839e0793b5811c,,,,,,,,,,,,,,,,,,,,,,,l,1,"[""0.386"",""0.237"",""0.576"",""0.735""]","[0,1,1,1]",0,52,52,52,1,1,0,,,1,FALSE,3.1175,,,,,,,,,,,,,,,,,,,,,,,,,,,,,,
,612305f2c3a79ccc85ffdf54,001,2022-04-28_21h09.50.047,classification_task,2021.2.3,Win32,59.81576744,612305f2c3a79ccc85ffdf54,626b377229c10585ec392f89,626b3abbd3839e0793b5811c,,,,,,,,,,,,,,,,,,,,,,,l,1,"[""0.078"",""0.161"",""0.576"",""0.735""]","[1,0,1,1]",0,53,53,53,1,1,0,,,1,FALSE,0.9734,,,,,,,,,,,,,,,,,,,,,,,,,,,,,,
,612305f2c3a79ccc85ffdf54,001,2022-04-28_21h09.50.047,classification_task,2021.2.3,Win32,59.81576744,612305f2c3a79ccc85ffdf54,626b377229c10585ec392f89,626b3abbd3839e0793b5811c,,,,,,,,,,,,,,,,,,,,,,,a,1,"[""0.202"",""0.446"",""0.793"",""0.971""]","[1,1,1,0]",0,54,54,54,1,0,1,,,1,FALSE,0.8543,,,,,,,,,,,,,,,,,,,,,,,,,,,,,,
,612305f2c3a79ccc85ffdf54,001,2022-04-28_21h09.50.047,classification_task,2021.2.3,Win32,59.81576744,612305f2c3a79ccc85ffdf54,626b377229c10585ec392f89,626b3abbd3839e0793b5811c,,,,,,,,,,,,,,,,,,,,,,,l,1,"[""0.078"",""0.237"",""0.576"",""0.405""]","[1,1,1,0]",0,55,55,55,1,1,0,,,1,FALSE,3.4192,,,,,,,,,,,,,,,,,,,,,,,,,,,,,,
,612305f2c3a79ccc85ffdf54,001,2022-04-28_21h09.50.047,classification_task,2021.2.3,Win32,59.81576744,612305f2c3a79ccc85ffdf54,626b377229c10585ec392f89,626b3abbd3839e0793b5811c,,,,,,,,,,,,,,,,,,,,,,,a,1,"[""0.304"",""0.965"",""0.631"",""0.887""]","[1,0,1,1]",0,56,56,56,1,0,0,,,1,FALSE,0.9342,,,,,,,,,,,,,,,,,,,,,,,,,,,,,,
,612305f2c3a79ccc85ffdf54,001,2022-04-28_21h09.50.047,classification_task,2021.2.3,Win32,59.81576744,612305f2c3a79ccc85ffdf54,626b377229c10585ec392f89,626b3abbd3839e0793b5811c,,,,,,,,,,,,,,,,,,,,,,,a,1,"[""0.966"",""0.347"",""0.631"",""0.887""]","[0,1,1,1]",0,57,57,57,1,0,0,,,1,FALSE,0.9952,,,,,,,,,,,,,,,,,,,,,,,,,,,,,,
,612305f2c3a79ccc85ffdf54,001,2022-04-28_21h09.50.047,classification_task,2021.2.3,Win32,59.81576744,612305f2c3a79ccc85ffdf54,626b377229c10585ec392f89,626b3abbd3839e0793b5811c,,,,,,,,,,,,,,,,,,,,,,,l,0,"[""0.304"",""0.347"",""0.971"",""0.887""]","[1,1,0,1]",0,58,58,58,1,0,0,,,1,FALSE,1.0912,,,,,,,,,,,,,,,,,,,,,,,,,,,,,,
,612305f2c3a79ccc85ffdf54,001,2022-04-28_21h09.50.047,classification_task,2021.2.3,Win32,59.81576744,612305f2c3a79ccc85ffdf54,626b377229c10585ec392f89,626b3abbd3839e0793b5811c,,,,,,,,,,,,,,,,,,,,,,,l,0,"[""0.304"",""0.347"",""0.631"",""0.971""]","[1,1,1,0]",0,59,59,59,1,0,0,,,1,FALSE,0.7774,,,,,,,,,,,,,,,,,,,,,,,,,,,,,,
,612305f2c3a79ccc85ffdf54,001,2022-04-28_21h09.50.047,classification_task,2021.2.3,Win32,59.81576744,612305f2c3a79ccc85ffdf54,626b377229c10585ec392f89,626b3abbd3839e0793b5811c,,,,,,,,,,,,,,,,,,,,,,,l,1,"[""0.168"",""0.116"",""0.514"",""0.837""]","[0,1,1,1]",0,60,60,60,1,1,1,,,1,FALSE,2.1135,,,,,,,,,,,,,,,,,,,,,,,,,,,,,,
,612305f2c3a79ccc85ffdf54,001,2022-04-28_21h09.50.047,classification_task,2021.2.3,Win32,59.81576744,612305f2c3a79ccc85ffdf54,626b377229c10585ec392f89,626b3abbd3839e0793b5811c,,,,,,,,,,,,,,,,,,,,,,,l,1,"[""0.044"",""0.116"",""0.690"",""0.837""]","[1,1,0,1]",0,61,61,61,1,1,1,,,1,FALSE,0.7355,,,,,,,,,,,,,,,,,,,,,,,,,,,,,,
,612305f2c3a79ccc85ffdf54,001,2022-04-28_21h09.50.047,classification_task,2021.2.3,Win32,59.81576744,612305f2c3a79ccc85ffdf54,626b377229c10585ec392f89,626b3abbd3839e0793b5811c,,,,,,,,,,,,,,,,,,,,,,,l,1,"[""0.044"",""0.971"",""0.514"",""0.837""]","[1,0,1,1]",0,62,62,62,1,1,1,,,1,FALSE,0.7402,,,,,,,,,,,,,,,,,,,,,,,,,,,,,,
,612305f2c3a79ccc85ffdf54,001,2022-04-28_21h09.50.047,classification_task,2021.2.3,Win32,59.81576744,612305f2c3a79ccc85ffdf54,626b377229c10585ec392f89,626b3abbd3839e0793b5811c,,,,,,,,,,,,,,,,,,,,,,,l,1,"[""0.078"",""0.237"",""0.692"",""0.735""]","[1,1,0,1]",0,63,63,63,1,1,0,,,1,FALSE,1.1396,,,,,,,,,,,,,,,,,,,,,,,,,,,,,,
,612305f2c3a79ccc85ffdf54,001,2022-04-28_21h09.50.047,classification_task,2021.2.3,Win32,59.81576744,612305f2c3a79ccc85ffdf54,626b377229c10585ec392f89,626b3abbd3839e0793b5811c,,,,,,,,,,,,,,,,,,,,,,,,,,,,,,,,,,,,,,,0, ,,0,4.026308428,180.9253,0,2,2,2,1,2,3,,,,,,,,,,,,,,,,,
,612305f2c3a79ccc85ffdf54,001,2022-04-28_21h09.50.047,classification_task,2021.2.3,Win32,59.81576744,612305f2c3a79ccc85ffdf54,626b377229c10585ec392f89,626b3abbd3839e0793b5811c,,,,,,,,,,,,,,,,,,,,,,,,,,,,,,,,,,,,,,,1,  ,,0,4.001813407,182.3405,0,2,2,2,1,2,3,,,,,,,,,,,,,,,,,
,612305f2c3a79ccc85ffdf54,001,2022-04-28_21h09.50.047,classification_task,2021.2.3,Win32,59.81576744,612305f2c3a79ccc85ffdf54,626b377229c10585ec392f89,626b3abbd3839e0793b5811c,,,,,,,,,,,,,,,,,,,,,,,,,,,,,,,,,,,,,,,2,  ,,0,6.402360982,183.4549,0,2,2,2,1,2,3,,,,,,,,,,,,,,,,,
,612305f2c3a79ccc85ffdf54,001,2022-04-28_21h09.50.047,classification_task,2021.2.3,Win32,59.81576744,612305f2c3a79ccc85ffdf54,626b377229c10585ec392f89,626b3abbd3839e0793b5811c,,,,,,,,,,,,,,,,,,,,,,,,,,,,,,,,,,,,,,,,,,,,,0,2,2,2,1,,3,,,,,,,,,,,,,,,,,
,612305f2c3a79ccc85ffdf54,001,2022-04-28_21h09.50.047,classification_task,2021.2.3,Win32,59.81576744,612305f2c3a79ccc85ffdf54,626b377229c10585ec392f89,626b3abbd3839e0793b5811c,,,,,,,,,,,,,,,,,,,,,,,,,,,,,,,,,,,,,,,,,,,,,,,,,,,,,I believe the aid is a competent performer,,0.7,0,3,679.8913,0,0,0,0,1,0,,,,
,612305f2c3a79ccc85ffdf54,001,2022-04-28_21h09.50.047,classification_task,2021.2.3,Win32,59.81576744,612305f2c3a79ccc85ffdf54,626b377229c10585ec392f89,626b3abbd3839e0793b5811c,,,,,,,,,,,,,,,,,,,,,,,,,,,,,,,,,,,,,,,,,,,,,,,,,,,,,I trust the aid,,0.7,0,3,681.6727,0,0,0,0,1,0,,,,
,612305f2c3a79ccc85ffdf54,001,2022-04-28_21h09.50.047,classification_task,2021.2.3,Win32,59.81576744,612305f2c3a79ccc85ffdf54,626b377229c10585ec392f89,626b3abbd3839e0793b5811c,,,,,,,,,,,,,,,,,,,,,,,,,,,,,,,,,,,,,,,,,,,,,,,,,,,,,I have confidence in the advice given by the aid,,0.7,0,2,682.2293,0,0,0,0,1,0,,,,
,612305f2c3a79ccc85ffdf54,001,2022-04-28_21h09.50.047,classification_task,2021.2.3,Win32,59.81576744,612305f2c3a79ccc85ffdf54,626b377229c10585ec392f89,626b3abbd3839e0793b5811c,,,,,,,,,,,,,,,,,,,,,,,,,,,,,,,,,,,,,,,,,,,,,,,,,,,,,I can depend on the aid,,0.7,0,4,685.6108,0,0,0,0,1,0,,,,
,612305f2c3a79ccc85ffdf54,001,2022-04-28_21h09.50.047,classification_task,2021.2.3,Win32,59.81576744,612305f2c3a79ccc85ffdf54,626b377229c10585ec392f89,626b3abbd3839e0793b5811c,,,,,,,,,,,,,,,,,,,,,,,,,,,,,,,,,,,,,,,,,,,,,,,,,,,,,I can rely on the aid to behave in consistent ways,,0.7,0,4,686.4088,0,0,0,0,1,0,,,,
,612305f2c3a79ccc85ffdf54,001,2022-04-28_21h09.50.047,classification_task,2021.2.3,Win32,59.81576744,612305f2c3a79ccc85ffdf54,626b377229c10585ec392f89,626b3abbd3839e0793b5811c,,,,,,,,,,,,,,,,,,,,,,,,,,,,,,,,,,,,,,,,,,,,,,,,,,,,,I can rely on the aid to do its best every time I take its advice,,0.7,0,3,687.2492,0,0,0,0,1,0,,,,
,612305f2c3a79ccc85ffdf54,001,2022-04-28_21h09.50.047,classification_task,2021.2.3,Win32,59.81576744,612305f2c3a79ccc85ffdf54,626b377229c10585ec392f89,626b3abbd3839e0793b5811c,,,,,,,,,,,,,,,,,,,,,,,,,,,,,,,,,,,,,,,,,,,,,,,,,,,,,"On trials you completed with assistance from the aid, how frequently did you think the aid was correct?",,0.7,0,80,,0,0,0,0,1,0,,,,
,612305f2c3a79ccc85ffdf54,001,2022-04-28_21h09.50.047,classification_task,2021.2.3,Win32,59.81576744,612305f2c3a79ccc85ffdf54,626b377229c10585ec392f89,626b3abbd3839e0793b5811c,,,,,,,,,,,,,,,,,,,,,,,,,,,,,,,,,,,,,,,,,,,,,,,,,,,,,"On trials you completed without the aid, how frequently did you think you were correct?",,0.7,0,65,,0,0,0,0,1,0,,,,
,612305f2c3a79ccc85ffdf54,001,2022-04-28_21h09.50.047,classification_task,2021.2.3,Win32,59.81576744,612305f2c3a79ccc85ffdf54,626b377229c10585ec392f89,626b3abbd3839e0793b5811c,,,,,,,,,,,,,,,,,,,,,,,,,,,,,,,,,,,,,,,,,,,,,,,,,,,,,,,,,,,0,0,0,0,1,,,,,
,612305f2c3a79ccc85ffdf54,001,2022-04-28_21h09.50.047,classification_task,2021.2.3,Win32,59.81576744,612305f2c3a79ccc85ffdf54,626b377229c10585ec392f89,626b3abbd3839e0793b5811c,,,,,,,,,,,,,,,,,,,,,,,,,,,,,,,,,,,,,,,,,,,,,,,,,,,,,,,,,,,,,,,,,space,4.376,706.207,
,612305f2c3a79ccc85ffdf54,001,2022-04-28_21h09.50.047,classification_task,2021.2.3,Win32,59.81576744,612305f2c3a79ccc85ffdf54,626b377229c10585ec392f89,626b3abbd3839e0793b5811c,,,,,,,,,,,,,,,,,,,,,,,,,,,,,,,,,,,,,,,,,,,,,,,,,,,,,,,,,,,,,,,,,,,,"Mozilla/5.0 (Windows NT 10.0; Win64; x64) AppleWebKit/537.36 (KHTML, like Gecko) Chrome/100.0.4896.127 Safari/537.36 Edg/100.0.1185.50"
