usingWebGL,participant,session,date,expName,psychopyVersion,OS,frameRate,study_id,signatures_friend,signatures_foe,band_ranges_top,band_ranges_bottom,formitemText,formtype,formundefined,formitemWidth,formindex,formresponse,formrt,key_resp_2.keys,key_resp_2.rt,tute_resp.keys,tute_resp.rt,tutorial.thisRepN,tutorial.thisTrialN,tutorial.thisN,tutorial.thisIndex,tutorial.ran,key_resp_4.keys,key_resp_4.rt,key_resp.keys,key_resp.corr,lines_presented,is_signal_presented,trials.thisRepN,trials.thisTrialN,trials.thisN,trials.thisIndex,trials.ran,vessel,active_band,lines,is_signal,supported_pos,catch_trial,key_resp.rt,debrief_formindex,debrief_formitemText,debrief_formtype,debrief_formitemWidth,debrief_formresponse,debrief_formrt,phases.thisRepN,phases.thisTrialN,phases.thisN,phases.thisIndex,phases.ran,phases.order,phase,key_resp_3.keys,trustitemText,trusttype,trustitemWidth,trustindex,trustresponse,trustrt,support_status.thisRepN,support_status.thisTrialN,support_status.thisN,support_status.thisIndex,support_status.ran,support_status.order,key_resp_5.keys,key_resp_5.rt,globalClockTime,userAgent,manualCondition
TRUE,6123ac0a8aeae4eadc828781,627c76cd65bc5538045da41c,2022-05-12_04h54.32.861,classification_task,2021.2.3,Win32,59.54862145,627c6715c52fd12f31907bd0,,,,,,,,,,,,,,,,,,,,,,,,,,,,,,,,,,,,,,,,,,,,,,,,,,,,,,,,,,,,,,,,,,,,,
,6123ac0a8aeae4eadc828781,627c76cd65bc5538045da41c,2022-05-12_04h54.32.861,classification_task,2021.2.3,Win32,59.54862145,627c6715c52fd12f31907bd0,"[[""0.320"",""0.467"",""0.631"",""0.914""],[""0.196"",""0.363"",""0.777"",""0.955""]]","[[""0.091"",""0.268"",""0.503"",""0.835""],[""0.154"",""0.432"",""0.554"",""0.706""]]","[1,10]","[100,1000]",Video game experience,,,0.7,0,,,,,,,,,,,,,,,,,,,,,,,,,,,,,,,,,,,,,,,,,,,,,,,,,,,,,,,,,,,,
,6123ac0a8aeae4eadc828781,627c76cd65bc5538045da41c,2022-05-12_04h54.32.861,classification_task,2021.2.3,Win32,59.54862145,627c6715c52fd12f31907bd0,,,,,Approximately how many hours did you spend playing video games in the last week?,,,0.7,0,0,,,,,,,,,,,,,,,,,,,,,,,,,,,,,,,,,,,,,,,,,,,,,,,,,,,,,,,,,,,
,6123ac0a8aeae4eadc828781,627c76cd65bc5538045da41c,2022-05-12_04h54.32.861,classification_task,2021.2.3,Win32,59.54862145,627c6715c52fd12f31907bd0,,,,,"Which game did you play the most this year? (Enter ""None"" if you didn't play any)",,,0.7,0,none,,,,,,,,,,,,,,,,,,,,,,,,,,,,,,,,,,,,,,,,,,,,,,,,,,,,,,,,,,,
,6123ac0a8aeae4eadc828781,627c76cd65bc5538045da41c,2022-05-12_04h54.32.861,classification_task,2021.2.3,Win32,59.54862145,627c6715c52fd12f31907bd0,,,,,Visual perception,,,0.7,0,,,,,,,,,,,,,,,,,,,,,,,,,,,,,,,,,,,,,,,,,,,,,,,,,,,,,,,,,,,,
,6123ac0a8aeae4eadc828781,627c76cd65bc5538045da41c,2022-05-12_04h54.32.861,classification_task,2021.2.3,Win32,59.54862145,627c6715c52fd12f31907bd0,,,,,Do you have any form of color blindness?,,,0.7,0,No,62.9046,,,,,,,,,,,,,,,,,,,,,,,,,,,,,,,,,,,,,,,,,,,,,,,,,,,,,,,,,,
,6123ac0a8aeae4eadc828781,627c76cd65bc5538045da41c,2022-05-12_04h54.32.861,classification_task,2021.2.3,Win32,59.54862145,627c6715c52fd12f31907bd0,,,,,Do you use software to change the colour temperature of your screen (e.g. f.lux)?,,,0.7,0,No,60.4456,,,,,,,,,,,,,,,,,,,,,,,,,,,,,,,,,,,,,,,,,,,,,,,,,,,,,,,,,,
,6123ac0a8aeae4eadc828781,627c76cd65bc5538045da41c,2022-05-12_04h54.32.861,classification_task,2021.2.3,Win32,59.54862145,627c6715c52fd12f31907bd0,,,,,,,,,,,,space,70.0186,space,18.9261,0,0,0,0,1,,,,,,,,,,,,,,,,,,,,,,,,,,,,,,,,,,,,,,,,,,,,,,,,,
,6123ac0a8aeae4eadc828781,627c76cd65bc5538045da41c,2022-05-12_04h54.32.861,classification_task,2021.2.3,Win32,59.54862145,627c6715c52fd12f31907bd0,,,,,,,,,,,,,,space,16.7315,1,0,1,0,1,,,,,,,,,,,,,,,,,,,,,,,,,,,,,,,,,,,,,,,,,,,,,,,,,
,6123ac0a8aeae4eadc828781,627c76cd65bc5538045da41c,2022-05-12_04h54.32.861,classification_task,2021.2.3,Win32,59.54862145,627c6715c52fd12f31907bd0,,,,,,,,,,,,,,space,25.0981,2,0,2,0,1,,,,,,,,,,,,,,,,,,,,,,,,,,,,,,,,,,,,,,,,,,,,,,,,,
,6123ac0a8aeae4eadc828781,627c76cd65bc5538045da41c,2022-05-12_04h54.32.861,classification_task,2021.2.3,Win32,59.54862145,627c6715c52fd12f31907bd0,,,,,,,,,,,,,,space,57.1644,3,0,3,0,1,,,,,,,,,,,,,,,,,,,,,,,,,,,,,,,,,,,,,,,,,,,,,,,,,
,6123ac0a8aeae4eadc828781,627c76cd65bc5538045da41c,2022-05-12_04h54.32.861,classification_task,2021.2.3,Win32,59.54862145,627c6715c52fd12f31907bd0,,,,,,,,,,,,,,space,25.5992,4,0,4,0,1,,,,,,,,,,,,,,,,,,,,,,,,,,,,,,,,,,,,,,,,,,,,,,,,,
,6123ac0a8aeae4eadc828781,627c76cd65bc5538045da41c,2022-05-12_04h54.32.861,classification_task,2021.2.3,Win32,59.54862145,627c6715c52fd12f31907bd0,,,,,,,,,,,,,,,,,,,,,space,29.1837,,0,"[""0.230"",""0.432"",""0.554"",""0.706""]","[0,1,1,1]",0,0,0,0,1,1,1,,,0,FALSE,,,,,,,,,,,,,,,,,,,,,,,,,,,,,,,,
,6123ac0a8aeae4eadc828781,627c76cd65bc5538045da41c,2022-05-12_04h54.32.861,classification_task,2021.2.3,Win32,59.54862145,627c6715c52fd12f31907bd0,,,,,,,,,,,,,,,,,,,,,,,l,0,"[""0.320"",""0.467"",""0.034"",""0.914""]","[1,1,0,1]",0,1,1,1,1,0,0,,,0,FALSE,5.8273,,,,,,,,,,,,,,,,,,,,,,,,,,,,,,,
,6123ac0a8aeae4eadc828781,627c76cd65bc5538045da41c,2022-05-12_04h54.32.861,classification_task,2021.2.3,Win32,59.54862145,627c6715c52fd12f31907bd0,,,,,,,,,,,,,,,,,,,,,,,l,1,"[""0.091"",""0.268"",""0.503"",""0.876""]","[1,1,1,0]",0,2,2,2,1,1,0,,,0,FALSE,3.174,,,,,,,,,,,,,,,,,,,,,,,,,,,,,,,
,6123ac0a8aeae4eadc828781,627c76cd65bc5538045da41c,2022-05-12_04h54.32.861,classification_task,2021.2.3,Win32,59.54862145,627c6715c52fd12f31907bd0,,,,,,,,,,,,,,,,,,,,,,,a,1,"[""0.598"",""0.467"",""0.631"",""0.914""]","[0,1,1,1]",0,3,3,3,1,0,0,,,0,FALSE,4.7876,,,,,,,,,,,,,,,,,,,,,,,,,,,,,,,
,6123ac0a8aeae4eadc828781,627c76cd65bc5538045da41c,2022-05-12_04h54.32.861,classification_task,2021.2.3,Win32,59.54862145,627c6715c52fd12f31907bd0,,,,,,,,,,,,,,,,,,,,,,,l,1,"[""0.154"",""0.432"",""0.032"",""0.706""]","[1,1,0,1]",0,4,4,4,1,1,1,,,0,FALSE,8.0162,,,,,,,,,,,,,,,,,,,,,,,,,,,,,,,
,6123ac0a8aeae4eadc828781,627c76cd65bc5538045da41c,2022-05-12_04h54.32.861,classification_task,2021.2.3,Win32,59.54862145,627c6715c52fd12f31907bd0,,,,,,,,,,,,,,,,,,,,,,,l,0,"[""0.196"",""0.045"",""0.777"",""0.955""]","[1,0,1,1]",0,5,5,5,1,0,1,,,0,FALSE,4.953,,,,,,,,,,,,,,,,,,,,,,,,,,,,,,,
,6123ac0a8aeae4eadc828781,627c76cd65bc5538045da41c,2022-05-12_04h54.32.861,classification_task,2021.2.3,Win32,59.54862145,627c6715c52fd12f31907bd0,,,,,,,,,,,,,,,,,,,,,,,l,1,"[""0.154"",""0.672"",""0.554"",""0.706""]","[1,0,1,1]",0,6,6,6,1,1,1,,,0,FALSE,3.2192,,,,,,,,,,,,,,,,,,,,,,,,,,,,,,,
,6123ac0a8aeae4eadc828781,627c76cd65bc5538045da41c,2022-05-12_04h54.32.861,classification_task,2021.2.3,Win32,59.54862145,627c6715c52fd12f31907bd0,,,,,,,,,,,,,,,,,,,,,,,l,1,"[""0.091"",""0.055"",""0.503"",""0.835""]","[1,0,1,1]",0,7,7,7,1,1,0,,,0,FALSE,4.723,,,,,,,,,,,,,,,,,,,,,,,,,,,,,,,
,6123ac0a8aeae4eadc828781,627c76cd65bc5538045da41c,2022-05-12_04h54.32.861,classification_task,2021.2.3,Win32,59.54862145,627c6715c52fd12f31907bd0,,,,,,,,,,,,,,,,,,,,,,,l,1,"[""0.154"",""0.432"",""0.554"",""0.235""]","[1,1,1,0]",0,8,8,8,1,1,1,,,0,FALSE,3.5136,,,,,,,,,,,,,,,,,,,,,,,,,,,,,,,
,6123ac0a8aeae4eadc828781,627c76cd65bc5538045da41c,2022-05-12_04h54.32.861,classification_task,2021.2.3,Win32,59.54862145,627c6715c52fd12f31907bd0,,,,,,,,,,,,,,,,,,,,,,,l,0,"[""0.230"",""0.363"",""0.777"",""0.955""]","[0,1,1,1]",0,9,9,9,1,0,1,,,0,FALSE,3.6684,,,,,,,,,,,,,,,,,,,,,,,,,,,,,,,
,6123ac0a8aeae4eadc828781,627c76cd65bc5538045da41c,2022-05-12_04h54.32.861,classification_task,2021.2.3,Win32,59.54862145,627c6715c52fd12f31907bd0,,,,,,,,,,,,,,,,,,,,,,,l,1,"[""0.091"",""0.268"",""0.032"",""0.835""]","[1,1,0,1]",0,10,10,10,1,1,0,,,0,FALSE,3.4296,,,,,,,,,,,,,,,,,,,,,,,,,,,,,,,
,6123ac0a8aeae4eadc828781,627c76cd65bc5538045da41c,2022-05-12_04h54.32.861,classification_task,2021.2.3,Win32,59.54862145,627c6715c52fd12f31907bd0,,,,,,,,,,,,,,,,,,,,,,,a,1,"[""0.320"",""0.467"",""0.631"",""0.876""]","[1,1,1,0]",0,11,11,11,1,0,0,,,0,FALSE,2.459,,,,,,,,,,,,,,,,,,,,,,,,,,,,,,,
,6123ac0a8aeae4eadc828781,627c76cd65bc5538045da41c,2022-05-12_04h54.32.861,classification_task,2021.2.3,Win32,59.54862145,627c6715c52fd12f31907bd0,,,,,,,,,,,,,,,,,,,,,,,l,1,"[""0.598"",""0.268"",""0.503"",""0.835""]","[0,1,1,1]",0,12,12,12,1,1,0,,,0,FALSE,2.2718,,,,,,,,,,,,,,,,,,,,,,,,,,,,,,,
,6123ac0a8aeae4eadc828781,627c76cd65bc5538045da41c,2022-05-12_04h54.32.861,classification_task,2021.2.3,Win32,59.54862145,627c6715c52fd12f31907bd0,,,,,,,,,,,,,,,,,,,,,,,l,0,"[""0.196"",""0.363"",""0.777"",""0.054""]","[1,1,1,0]",0,13,13,13,1,0,1,,,0,FALSE,1.7506,,,,,,,,,,,,,,,,,,,,,,,,,,,,,,,
,6123ac0a8aeae4eadc828781,627c76cd65bc5538045da41c,2022-05-12_04h54.32.861,classification_task,2021.2.3,Win32,59.54862145,627c6715c52fd12f31907bd0,,,,,,,,,,,,,,,,,,,,,,,a,1,"[""0.196"",""0.363"",""0.672"",""0.955""]","[1,1,0,1]",0,14,14,14,1,0,1,,,0,FALSE,2.0035,,,,,,,,,,,,,,,,,,,,,,,,,,,,,,,
,6123ac0a8aeae4eadc828781,627c76cd65bc5538045da41c,2022-05-12_04h54.32.861,classification_task,2021.2.3,Win32,59.54862145,627c6715c52fd12f31907bd0,,,,,,,,,,,,,,,,,,,,,,,a,1,"[""0.320"",""0.055"",""0.631"",""0.914""]","[1,0,1,1]",0,15,15,15,1,0,0,,,0,FALSE,2.8067,,,,,,,,,,,,,,,,,,,,,,,,,,,,,,,
,6123ac0a8aeae4eadc828781,627c76cd65bc5538045da41c,2022-05-12_04h54.32.861,classification_task,2021.2.3,Win32,59.54862145,627c6715c52fd12f31907bd0,,,,,,,,,,,,,,,,,,,,,,,a,1,"[""0.320"",""0.467"",""0.631"",""0.054""]","[1,1,1,0]",0,16,16,16,1,0,0,,,0,FALSE,2.5012,,,,,,,,,,,,,,,,,,,,,,,,,,,,,,,
,6123ac0a8aeae4eadc828781,627c76cd65bc5538045da41c,2022-05-12_04h54.32.861,classification_task,2021.2.3,Win32,59.54862145,627c6715c52fd12f31907bd0,,,,,,,,,,,,,,,,,,,,,,,a,1,"[""0.320"",""0.054"",""0.631"",""0.914""]","[1,0,1,1]",0,17,17,17,1,0,0,,,0,FALSE,2.0991,,,,,,,,,,,,,,,,,,,,,,,,,,,,,,,
,6123ac0a8aeae4eadc828781,627c76cd65bc5538045da41c,2022-05-12_04h54.32.861,classification_task,2021.2.3,Win32,59.54862145,627c6715c52fd12f31907bd0,,,,,,,,,,,,,,,,,,,,,,,l,0,"[""0.876"",""0.467"",""0.631"",""0.914""]","[0,1,1,1]",0,18,18,18,1,0,0,,,0,FALSE,2.5213,,,,,,,,,,,,,,,,,,,,,,,,,,,,,,,
,6123ac0a8aeae4eadc828781,627c76cd65bc5538045da41c,2022-05-12_04h54.32.861,classification_task,2021.2.3,Win32,59.54862145,627c6715c52fd12f31907bd0,,,,,,,,,,,,,,,,,,,,,,,a,0,"[""0.872"",""0.268"",""0.503"",""0.835""]","[0,1,1,1]",0,19,19,19,1,1,0,,,0,FALSE,2.8584,,,,,,,,,,,,,,,,,,,,,,,,,,,,,,,
,6123ac0a8aeae4eadc828781,627c76cd65bc5538045da41c,2022-05-12_04h54.32.861,classification_task,2021.2.3,Win32,59.54862145,627c6715c52fd12f31907bd0,,,,,,,,,,,,,,,,,,,,,,,a,1,"[""0.196"",""0.230"",""0.777"",""0.955""]","[1,0,1,1]",0,20,20,20,1,0,1,,,0,FALSE,3.1955,,,,,,,,,,,,,,,,,,,,,,,,,,,,,,,
,6123ac0a8aeae4eadc828781,627c76cd65bc5538045da41c,2022-05-12_04h54.32.861,classification_task,2021.2.3,Win32,59.54862145,627c6715c52fd12f31907bd0,,,,,,,,,,,,,,,,,,,,,,,l,1,"[""0.154"",""0.672"",""0.554"",""0.706""]","[1,0,1,1]",0,21,21,21,1,1,1,,,0,FALSE,1.818,,,,,,,,,,,,,,,,,,,,,,,,,,,,,,,
,6123ac0a8aeae4eadc828781,627c76cd65bc5538045da41c,2022-05-12_04h54.32.861,classification_task,2021.2.3,Win32,59.54862145,627c6715c52fd12f31907bd0,,,,,,,,,,,,,,,,,,,,,,,l,1,"[""0.091"",""0.268"",""0.876"",""0.835""]","[1,1,0,1]",0,22,22,22,1,1,0,,,0,FALSE,3.6168,,,,,,,,,,,,,,,,,,,,,,,,,,,,,,,
,6123ac0a8aeae4eadc828781,627c76cd65bc5538045da41c,2022-05-12_04h54.32.861,classification_task,2021.2.3,Win32,59.54862145,627c6715c52fd12f31907bd0,,,,,,,,,,,,,,,,,,,,,,,l,1,"[""0.154"",""0.432"",""0.554"",""0.398""]","[1,1,1,0]",0,23,23,23,1,1,1,,,0,FALSE,2.18,,,,,,,,,,,,,,,,,,,,,,,,,,,,,,,
,6123ac0a8aeae4eadc828781,627c76cd65bc5538045da41c,2022-05-12_04h54.32.861,classification_task,2021.2.3,Win32,59.54862145,627c6715c52fd12f31907bd0,,,,,,,,,,,,,,,,,,,,,,,l,1,"[""0.091"",""0.398"",""0.503"",""0.835""]","[1,0,1,1]",0,24,24,24,1,1,0,,,0,FALSE,2.4,,,,,,,,,,,,,,,,,,,,,,,,,,,,,,,
,6123ac0a8aeae4eadc828781,627c76cd65bc5538045da41c,2022-05-12_04h54.32.861,classification_task,2021.2.3,Win32,59.54862145,627c6715c52fd12f31907bd0,,,,,,,,,,,,,,,,,,,,,,,a,1,"[""0.320"",""0.467"",""0.876"",""0.914""]","[1,1,0,1]",0,25,25,25,1,0,0,,,0,FALSE,1.5928,,,,,,,,,,,,,,,,,,,,,,,,,,,,,,,
,6123ac0a8aeae4eadc828781,627c76cd65bc5538045da41c,2022-05-12_04h54.32.861,classification_task,2021.2.3,Win32,59.54862145,627c6715c52fd12f31907bd0,,,,,,,,,,,,,,,,,,,,,,,a,1,"[""0.196"",""0.363"",""0.589"",""0.955""]","[1,1,0,1]",0,26,26,26,1,0,1,,,0,FALSE,2.2285,,,,,,,,,,,,,,,,,,,,,,,,,,,,,,,
,6123ac0a8aeae4eadc828781,627c76cd65bc5538045da41c,2022-05-12_04h54.32.861,classification_task,2021.2.3,Win32,59.54862145,627c6715c52fd12f31907bd0,,,,,,,,,,,,,,,,,,,,,,,l,1,"[""0.154"",""0.432"",""0.880"",""0.706""]","[1,1,0,1]",0,27,27,27,1,1,1,,,0,FALSE,0.7379,,,,,,,,,,,,,,,,,,,,,,,,,,,,,,,
,6123ac0a8aeae4eadc828781,627c76cd65bc5538045da41c,2022-05-12_04h54.32.861,classification_task,2021.2.3,Win32,59.54862145,627c6715c52fd12f31907bd0,,,,,,,,,,,,,,,,,,,,,,,a,1,"[""0.589"",""0.363"",""0.777"",""0.955""]","[0,1,1,1]",0,28,28,28,1,0,1,,,0,FALSE,3.9439,,,,,,,,,,,,,,,,,,,,,,,,,,,,,,,
,6123ac0a8aeae4eadc828781,627c76cd65bc5538045da41c,2022-05-12_04h54.32.861,classification_task,2021.2.3,Win32,59.54862145,627c6715c52fd12f31907bd0,,,,,,,,,,,,,,,,,,,,,,,l,1,"[""0.091"",""0.268"",""0.503"",""0.872""]","[1,1,1,0]",0,29,29,29,1,1,0,,,0,FALSE,2.3393,,,,,,,,,,,,,,,,,,,,,,,,,,,,,,,
,6123ac0a8aeae4eadc828781,627c76cd65bc5538045da41c,2022-05-12_04h54.32.861,classification_task,2021.2.3,Win32,59.54862145,627c6715c52fd12f31907bd0,,,,,,,,,,,,,,,,,,,,,,,l,1,"[""0.230"",""0.432"",""0.554"",""0.706""]","[0,1,1,1]",0,30,30,30,1,1,1,,,0,FALSE,2.8108,,,,,,,,,,,,,,,,,,,,,,,,,,,,,,,
,6123ac0a8aeae4eadc828781,627c76cd65bc5538045da41c,2022-05-12_04h54.32.861,classification_task,2021.2.3,Win32,59.54862145,627c6715c52fd12f31907bd0,,,,,,,,,,,,,,,,,,,,,,,a,1,"[""0.196"",""0.363"",""0.777"",""0.880""]","[1,1,1,0]",0,31,31,31,1,0,1,,,0,FALSE,1.5903,,,,,,,,,,,,,,,,,,,,,,,,,,,,,,,
,6123ac0a8aeae4eadc828781,627c76cd65bc5538045da41c,2022-05-12_04h54.32.861,classification_task,2021.2.3,Win32,59.54862145,627c6715c52fd12f31907bd0,,,,,,,,,,,,,,,,,,,,,,,a,1,"[""0.196"",""0.363"",""0.672"",""0.955""]","[1,1,0,1]",0,32,32,32,1,0,1,,,0,FALSE,1.0794,,,,,,,,,,,,,,,,,,,,,,,,,,,,,,,
,6123ac0a8aeae4eadc828781,627c76cd65bc5538045da41c,2022-05-12_04h54.32.861,classification_task,2021.2.3,Win32,59.54862145,627c6715c52fd12f31907bd0,,,,,,,,,,,,,,,,,,,,,,,a,0,"[""0.154"",""0.235"",""0.554"",""0.706""]","[1,0,1,1]",0,33,33,33,1,1,1,,,0,FALSE,0.953,,,,,,,,,,,,,,,,,,,,,,,,,,,,,,,
,6123ac0a8aeae4eadc828781,627c76cd65bc5538045da41c,2022-05-12_04h54.32.861,classification_task,2021.2.3,Win32,59.54862145,627c6715c52fd12f31907bd0,,,,,,,,,,,,,,,,,,,,,,,a,0,"[""0.876"",""0.268"",""0.503"",""0.835""]","[0,1,1,1]",0,34,34,34,1,1,0,,,0,FALSE,5.4005,,,,,,,,,,,,,,,,,,,,,,,,,,,,,,,
,6123ac0a8aeae4eadc828781,627c76cd65bc5538045da41c,2022-05-12_04h54.32.861,classification_task,2021.2.3,Win32,59.54862145,627c6715c52fd12f31907bd0,,,,,,,,,,,,,,,,,,,,,,,l,0,"[""0.320"",""0.467"",""0.398"",""0.914""]","[1,1,0,1]",0,35,35,35,1,0,0,,,0,FALSE,2.4911,,,,,,,,,,,,,,,,,,,,,,,,,,,,,,,
,6123ac0a8aeae4eadc828781,627c76cd65bc5538045da41c,2022-05-12_04h54.32.861,classification_task,2021.2.3,Win32,59.54862145,627c6715c52fd12f31907bd0,,,,,,,,,,,,,,,,,,,,,,,l,1,"[""0.154"",""0.432"",""0.398"",""0.706""]","[1,1,0,1]",0,36,36,36,1,1,1,,,0,FALSE,0.2908,,,,,,,,,,,,,,,,,,,,,,,,,,,,,,,
,6123ac0a8aeae4eadc828781,627c76cd65bc5538045da41c,2022-05-12_04h54.32.861,classification_task,2021.2.3,Win32,59.54862145,627c6715c52fd12f31907bd0,,,,,,,,,,,,,,,,,,,,,,,l,1,"[""0.154"",""0.432"",""0.554"",""0.397""]","[1,1,1,0]",0,37,37,37,1,1,1,,,0,FALSE,1.8212,,,,,,,,,,,,,,,,,,,,,,,,,,,,,,,
,6123ac0a8aeae4eadc828781,627c76cd65bc5538045da41c,2022-05-12_04h54.32.861,classification_task,2021.2.3,Win32,59.54862145,627c6715c52fd12f31907bd0,,,,,,,,,,,,,,,,,,,,,,,a,1,"[""0.054"",""0.363"",""0.777"",""0.955""]","[0,1,1,1]",0,38,38,38,1,0,1,,,0,FALSE,0.8181,,,,,,,,,,,,,,,,,,,,,,,,,,,,,,,
,6123ac0a8aeae4eadc828781,627c76cd65bc5538045da41c,2022-05-12_04h54.32.861,classification_task,2021.2.3,Win32,59.54862145,627c6715c52fd12f31907bd0,,,,,,,,,,,,,,,,,,,,,,,l,1,"[""0.091"",""0.268"",""0.876"",""0.835""]","[1,1,0,1]",0,39,39,39,1,1,0,,,0,FALSE,0.8702,,,,,,,,,,,,,,,,,,,,,,,,,,,,,,,
,6123ac0a8aeae4eadc828781,627c76cd65bc5538045da41c,2022-05-12_04h54.32.861,classification_task,2021.2.3,Win32,59.54862145,627c6715c52fd12f31907bd0,,,,,,,,,,,,,,,,,,,,,,,l,0,"[""0.320"",""0.054"",""0.631"",""0.914""]","[1,0,1,1]",0,40,40,40,1,0,0,,,0,FALSE,0.5526,,,,,,,,,,,,,,,,,,,,,,,,,,,,,,,
,6123ac0a8aeae4eadc828781,627c76cd65bc5538045da41c,2022-05-12_04h54.32.861,classification_task,2021.2.3,Win32,59.54862145,627c6715c52fd12f31907bd0,,,,,,,,,,,,,,,,,,,,,,,a,1,"[""0.320"",""0.467"",""0.631"",""0.872""]","[1,1,1,0]",0,41,41,41,1,0,0,,,0,FALSE,0.6878,,,,,,,,,,,,,,,,,,,,,,,,,,,,,,,
,6123ac0a8aeae4eadc828781,627c76cd65bc5538045da41c,2022-05-12_04h54.32.861,classification_task,2021.2.3,Win32,59.54862145,627c6715c52fd12f31907bd0,,,,,,,,,,,,,,,,,,,,,,,l,1,"[""0.230"",""0.432"",""0.554"",""0.706""]","[0,1,1,1]",0,42,42,42,1,1,1,,,0,FALSE,0.5104,,,,,,,,,,,,,,,,,,,,,,,,,,,,,,,
,6123ac0a8aeae4eadc828781,627c76cd65bc5538045da41c,2022-05-12_04h54.32.861,classification_task,2021.2.3,Win32,59.54862145,627c6715c52fd12f31907bd0,,,,,,,,,,,,,,,,,,,,,,,a,1,"[""0.196"",""0.876"",""0.777"",""0.955""]","[1,0,1,1]",0,43,43,43,1,0,1,,,0,FALSE,0.3215,,,,,,,,,,,,,,,,,,,,,,,,,,,,,,,
,6123ac0a8aeae4eadc828781,627c76cd65bc5538045da41c,2022-05-12_04h54.32.861,classification_task,2021.2.3,Win32,59.54862145,627c6715c52fd12f31907bd0,,,,,,,,,,,,,,,,,,,,,,,l,0,"[""0.235"",""0.467"",""0.631"",""0.914""]","[0,1,1,1]",0,44,44,44,1,0,0,,,0,FALSE,2.649,,,,,,,,,,,,,,,,,,,,,,,,,,,,,,,
,6123ac0a8aeae4eadc828781,627c76cd65bc5538045da41c,2022-05-12_04h54.32.861,classification_task,2021.2.3,Win32,59.54862145,627c6715c52fd12f31907bd0,,,,,,,,,,,,,,,,,,,,,,,l,0,"[""0.196"",""0.363"",""0.777"",""0.054""]","[1,1,1,0]",0,45,45,45,1,0,1,,,0,FALSE,1.5557,,,,,,,,,,,,,,,,,,,,,,,,,,,,,,,
,6123ac0a8aeae4eadc828781,627c76cd65bc5538045da41c,2022-05-12_04h54.32.861,classification_task,2021.2.3,Win32,59.54862145,627c6715c52fd12f31907bd0,,,,,,,,,,,,,,,,,,,,,,,l,1,"[""0.091"",""0.268"",""0.503"",""0.872""]","[1,1,1,0]",0,46,46,46,1,1,0,,,0,FALSE,0.2838,,,,,,,,,,,,,,,,,,,,,,,,,,,,,,,
,6123ac0a8aeae4eadc828781,627c76cd65bc5538045da41c,2022-05-12_04h54.32.861,classification_task,2021.2.3,Win32,59.54862145,627c6715c52fd12f31907bd0,,,,,,,,,,,,,,,,,,,,,,,l,1,"[""0.091"",""0.672"",""0.503"",""0.835""]","[1,0,1,1]",0,47,47,47,1,1,0,,,0,FALSE,1.2038,,,,,,,,,,,,,,,,,,,,,,,,,,,,,,,
,6123ac0a8aeae4eadc828781,627c76cd65bc5538045da41c,2022-05-12_04h54.32.861,classification_task,2021.2.3,Win32,59.54862145,627c6715c52fd12f31907bd0,,,,,,,,,,,,,,,,,,,,,,,a,1,"[""0.054"",""0.467"",""0.631"",""0.914""]","[0,1,1,1]",0,48,48,48,1,0,0,,,0,FALSE,0.7492,,,,,,,,,,,,,,,,,,,,,,,,,,,,,,,
,6123ac0a8aeae4eadc828781,627c76cd65bc5538045da41c,2022-05-12_04h54.32.861,classification_task,2021.2.3,Win32,59.54862145,627c6715c52fd12f31907bd0,,,,,,,,,,,,,,,,,,,,,,,l,1,"[""0.872"",""0.432"",""0.554"",""0.706""]","[0,1,1,1]",0,49,49,49,1,1,1,,,0,FALSE,1.8035,,,,,,,,,,,,,,,,,,,,,,,,,,,,,,,
,6123ac0a8aeae4eadc828781,627c76cd65bc5538045da41c,2022-05-12_04h54.32.861,classification_task,2021.2.3,Win32,59.54862145,627c6715c52fd12f31907bd0,,,,,,,,,,,,,,,,,,,,,,,a,1,"[""0.196"",""0.363"",""0.777"",""0.034""]","[1,1,1,0]",0,50,50,50,1,0,1,,,0,FALSE,0.9032,,,,,,,,,,,,,,,,,,,,,,,,,,,,,,,
,6123ac0a8aeae4eadc828781,627c76cd65bc5538045da41c,2022-05-12_04h54.32.861,classification_task,2021.2.3,Win32,59.54862145,627c6715c52fd12f31907bd0,,,,,,,,,,,,,,,,,,,,,,,a,0,"[""0.154"",""0.432"",""0.554"",""0.598""]","[1,1,1,0]",0,51,51,51,1,1,1,,,0,FALSE,1.3776,,,,,,,,,,,,,,,,,,,,,,,,,,,,,,,
,6123ac0a8aeae4eadc828781,627c76cd65bc5538045da41c,2022-05-12_04h54.32.861,classification_task,2021.2.3,Win32,59.54862145,627c6715c52fd12f31907bd0,,,,,,,,,,,,,,,,,,,,,,,l,1,"[""0.154"",""0.432"",""0.876"",""0.706""]","[1,1,0,1]",0,52,52,52,1,1,1,,,0,FALSE,0.6513,,,,,,,,,,,,,,,,,,,,,,,,,,,,,,,
,6123ac0a8aeae4eadc828781,627c76cd65bc5538045da41c,2022-05-12_04h54.32.861,classification_task,2021.2.3,Win32,59.54862145,627c6715c52fd12f31907bd0,,,,,,,,,,,,,,,,,,,,,,,l,0,"[""0.876"",""0.363"",""0.777"",""0.955""]","[0,1,1,1]",0,53,53,53,1,0,1,,,0,FALSE,0.985,,,,,,,,,,,,,,,,,,,,,,,,,,,,,,,
,6123ac0a8aeae4eadc828781,627c76cd65bc5538045da41c,2022-05-12_04h54.32.861,classification_task,2021.2.3,Win32,59.54862145,627c6715c52fd12f31907bd0,,,,,,,,,,,,,,,,,,,,,,,l,1,"[""0.091"",""0.268"",""0.055"",""0.835""]","[1,1,0,1]",0,54,54,54,1,1,0,,,0,FALSE,0.2355,,,,,,,,,,,,,,,,,,,,,,,,,,,,,,,
,6123ac0a8aeae4eadc828781,627c76cd65bc5538045da41c,2022-05-12_04h54.32.861,classification_task,2021.2.3,Win32,59.54862145,627c6715c52fd12f31907bd0,,,,,,,,,,,,,,,,,,,,,,,l,0,"[""0.320"",""0.872"",""0.631"",""0.914""]","[1,0,1,1]",0,55,55,55,1,0,0,,,0,FALSE,0.0709,,,,,,,,,,,,,,,,,,,,,,,,,,,,,,,
,6123ac0a8aeae4eadc828781,627c76cd65bc5538045da41c,2022-05-12_04h54.32.861,classification_task,2021.2.3,Win32,59.54862145,627c6715c52fd12f31907bd0,,,,,,,,,,,,,,,,,,,,,,,a,1,"[""0.196"",""0.363"",""0.598"",""0.955""]","[1,1,0,1]",0,56,56,56,1,0,1,,,0,FALSE,1.2131,,,,,,,,,,,,,,,,,,,,,,,,,,,,,,,
,6123ac0a8aeae4eadc828781,627c76cd65bc5538045da41c,2022-05-12_04h54.32.861,classification_task,2021.2.3,Win32,59.54862145,627c6715c52fd12f31907bd0,,,,,,,,,,,,,,,,,,,,,,,l,1,"[""0.876"",""0.268"",""0.503"",""0.835""]","[0,1,1,1]",0,57,57,57,1,1,0,,,0,FALSE,1.8838,,,,,,,,,,,,,,,,,,,,,,,,,,,,,,,
,6123ac0a8aeae4eadc828781,627c76cd65bc5538045da41c,2022-05-12_04h54.32.861,classification_task,2021.2.3,Win32,59.54862145,627c6715c52fd12f31907bd0,,,,,,,,,,,,,,,,,,,,,,,a,0,"[""0.091"",""0.876"",""0.503"",""0.835""]","[1,0,1,1]",0,58,58,58,1,1,0,,,0,FALSE,0.7422,,,,,,,,,,,,,,,,,,,,,,,,,,,,,,,
,6123ac0a8aeae4eadc828781,627c76cd65bc5538045da41c,2022-05-12_04h54.32.861,classification_task,2021.2.3,Win32,59.54862145,627c6715c52fd12f31907bd0,,,,,,,,,,,,,,,,,,,,,,,l,0,"[""0.320"",""0.467"",""0.235"",""0.914""]","[1,1,0,1]",0,59,59,59,1,0,0,,,0,FALSE,0.932,,,,,,,,,,,,,,,,,,,,,,,,,,,,,,,
,6123ac0a8aeae4eadc828781,627c76cd65bc5538045da41c,2022-05-12_04h54.32.861,classification_task,2021.2.3,Win32,59.54862145,627c6715c52fd12f31907bd0,,,,,,,,,,,,,,,,,,,,,,,l,1,"[""0.091"",""0.268"",""0.503"",""0.872""]","[1,1,1,0]",0,60,60,60,1,1,0,,,0,FALSE,0.0011,,,,,,,,,,,,,,,,,,,,,,,,,,,,,,,
,6123ac0a8aeae4eadc828781,627c76cd65bc5538045da41c,2022-05-12_04h54.32.861,classification_task,2021.2.3,Win32,59.54862145,627c6715c52fd12f31907bd0,,,,,,,,,,,,,,,,,,,,,,,l,1,"[""0.154"",""0.876"",""0.554"",""0.706""]","[1,0,1,1]",0,61,61,61,1,1,1,,,0,FALSE,1.8139,,,,,,,,,,,,,,,,,,,,,,,,,,,,,,,
,6123ac0a8aeae4eadc828781,627c76cd65bc5538045da41c,2022-05-12_04h54.32.861,classification_task,2021.2.3,Win32,59.54862145,627c6715c52fd12f31907bd0,,,,,,,,,,,,,,,,,,,,,,,a,1,"[""0.320"",""0.467"",""0.631"",""0.876""]","[1,1,1,0]",0,62,62,62,1,0,0,,,0,FALSE,1.2516,,,,,,,,,,,,,,,,,,,,,,,,,,,,,,,
,6123ac0a8aeae4eadc828781,627c76cd65bc5538045da41c,2022-05-12_04h54.32.861,classification_task,2021.2.3,Win32,59.54862145,627c6715c52fd12f31907bd0,,,,,,,,,,,,,,,,,,,,,,,a,1,"[""0.196"",""0.672"",""0.777"",""0.955""]","[1,0,1,1]",0,63,63,63,1,0,1,,,0,FALSE,1.4841,,,,,,,,,,,,,,,,,,,,,,,,,,,,,,,
,6123ac0a8aeae4eadc828781,627c76cd65bc5538045da41c,2022-05-12_04h54.32.861,classification_task,2021.2.3,Win32,59.54862145,627c6715c52fd12f31907bd0,,,,,,,,,,,,,,,,,,,,,,,,,,,,,,,,,,,,,,,0, ,,0,0.005235891,557.991,0,0,0,0,1,2,1,,,,,,,,,,,,,,,,,,
,6123ac0a8aeae4eadc828781,627c76cd65bc5538045da41c,2022-05-12_04h54.32.861,classification_task,2021.2.3,Win32,59.54862145,627c6715c52fd12f31907bd0,,,,,,,,,,,,,,,,,,,,,,,,,,,,,,,,,,,,,,,1,  ,,0,10,567.5264,0,0,0,0,1,2,1,,,,,,,,,,,,,,,,,,
,6123ac0a8aeae4eadc828781,627c76cd65bc5538045da41c,2022-05-12_04h54.32.861,classification_task,2021.2.3,Win32,59.54862145,627c6715c52fd12f31907bd0,,,,,,,,,,,,,,,,,,,,,,,,,,,,,,,,,,,,,,,2,  ,,0,0,581.9674,0,0,0,0,1,2,1,,,,,,,,,,,,,,,,,,
,6123ac0a8aeae4eadc828781,627c76cd65bc5538045da41c,2022-05-12_04h54.32.861,classification_task,2021.2.3,Win32,59.54862145,627c6715c52fd12f31907bd0,,,,,,,,,,,,,,,,,,,,,,,,,,,,,,,,,,,,,,,,,,,,,0,0,0,0,1,,1,,,,,,,,,,,,,,,,,,
,6123ac0a8aeae4eadc828781,627c76cd65bc5538045da41c,2022-05-12_04h54.32.861,classification_task,2021.2.3,Win32,59.54862145,627c6715c52fd12f31907bd0,,,,,,,,,,,,,,,,,,,,,space,23.4058,,0,"[""0.320"",""0.235"",""0.631"",""0.914""]","[1,0,1,1]",0,0,0,0,1,0,0,,,0,FALSE,,,,,,,,,,,,,,,,,,,,,,,,,,,,,,,,
,6123ac0a8aeae4eadc828781,627c76cd65bc5538045da41c,2022-05-12_04h54.32.861,classification_task,2021.2.3,Win32,59.54862145,627c6715c52fd12f31907bd0,,,,,,,,,,,,,,,,,,,,,,,a,1,"[""0.320"",""0.467"",""0.055"",""0.914""]","[1,1,0,1]",0,1,1,1,1,0,0,,,0,FALSE,6.735,,,,,,,,,,,,,,,,,,,,,,,,,,,,,,,
,6123ac0a8aeae4eadc828781,627c76cd65bc5538045da41c,2022-05-12_04h54.32.861,classification_task,2021.2.3,Win32,59.54862145,627c6715c52fd12f31907bd0,,,,,,,,,,,,,,,,,,,,,,,l,1,"[""0.091"",""0.268"",""0.503"",""0.397""]","[1,1,1,0]",0,2,2,2,1,1,0,,,0,FALSE,2.6161,,,,,,,,,,,,,,,,,,,,,,,,,,,,,,,
,6123ac0a8aeae4eadc828781,627c76cd65bc5538045da41c,2022-05-12_04h54.32.861,classification_task,2021.2.3,Win32,59.54862145,627c6715c52fd12f31907bd0,,,,,,,,,,,,,,,,,,,,,,,a,1,"[""0.320"",""0.467"",""0.631"",""0.876""]","[1,1,1,0]",0,3,3,3,1,0,0,,,0,FALSE,1.1347,,,,,,,,,,,,,,,,,,,,,,,,,,,,,,,
,6123ac0a8aeae4eadc828781,627c76cd65bc5538045da41c,2022-05-12_04h54.32.861,classification_task,2021.2.3,Win32,59.54862145,627c6715c52fd12f31907bd0,,,,,,,,,,,,,,,,,,,,,,,a,1,"[""0.196"",""0.876"",""0.777"",""0.955""]","[1,0,1,1]",0,4,4,4,1,0,1,,,0,FALSE,4.6606,,,,,,,,,,,,,,,,,,,,,,,,,,,,,,,
,6123ac0a8aeae4eadc828781,627c76cd65bc5538045da41c,2022-05-12_04h54.32.861,classification_task,2021.2.3,Win32,59.54862145,627c6715c52fd12f31907bd0,,,,,,,,,,,,,,,,,,,,,,,a,1,"[""0.196"",""0.363"",""0.230"",""0.955""]","[1,1,0,1]",0,5,5,5,1,0,1,,,0,FALSE,0.9378,,,,,,,,,,,,,,,,,,,,,,,,,,,,,,,
,6123ac0a8aeae4eadc828781,627c76cd65bc5538045da41c,2022-05-12_04h54.32.861,classification_task,2021.2.3,Win32,59.54862145,627c6715c52fd12f31907bd0,,,,,,,,,,,,,,,,,,,,,,,l,1,"[""0.872"",""0.432"",""0.554"",""0.706""]","[0,1,1,1]",0,6,6,6,1,1,1,,,0,FALSE,0.8233,,,,,,,,,,,,,,,,,,,,,,,,,,,,,,,
,6123ac0a8aeae4eadc828781,627c76cd65bc5538045da41c,2022-05-12_04h54.32.861,classification_task,2021.2.3,Win32,59.54862145,627c6715c52fd12f31907bd0,,,,,,,,,,,,,,,,,,,,,,,l,1,"[""0.091"",""0.872"",""0.503"",""0.835""]","[1,0,1,1]",0,7,7,7,1,1,0,,,0,FALSE,1.7272,,,,,,,,,,,,,,,,,,,,,,,,,,,,,,,
,6123ac0a8aeae4eadc828781,627c76cd65bc5538045da41c,2022-05-12_04h54.32.861,classification_task,2021.2.3,Win32,59.54862145,627c6715c52fd12f31907bd0,,,,,,,,,,,,,,,,,,,,,,,l,1,"[""0.154"",""0.235"",""0.554"",""0.706""]","[1,0,1,1]",0,8,8,8,1,1,1,,,0,FALSE,2.1407,,,,,,,,,,,,,,,,,,,,,,,,,,,,,,,
,6123ac0a8aeae4eadc828781,627c76cd65bc5538045da41c,2022-05-12_04h54.32.861,classification_task,2021.2.3,Win32,59.54862145,627c6715c52fd12f31907bd0,,,,,,,,,,,,,,,,,,,,,,,a,0,"[""0.154"",""0.432"",""0.554"",""0.589""]","[1,1,1,0]",0,9,9,9,1,1,1,,,0,FALSE,0.8682,,,,,,,,,,,,,,,,,,,,,,,,,,,,,,,
,6123ac0a8aeae4eadc828781,627c76cd65bc5538045da41c,2022-05-12_04h54.32.861,classification_task,2021.2.3,Win32,59.54862145,627c6715c52fd12f31907bd0,,,,,,,,,,,,,,,,,,,,,,,a,1,"[""0.872"",""0.363"",""0.777"",""0.955""]","[0,1,1,1]",0,10,10,10,1,0,1,,,0,FALSE,1.2428,,,,,,,,,,,,,,,,,,,,,,,,,,,,,,,
,6123ac0a8aeae4eadc828781,627c76cd65bc5538045da41c,2022-05-12_04h54.32.861,classification_task,2021.2.3,Win32,59.54862145,627c6715c52fd12f31907bd0,,,,,,,,,,,,,,,,,,,,,,,l,1,"[""0.091"",""0.268"",""0.589"",""0.835""]","[1,1,0,1]",0,11,11,11,1,1,0,,,0,FALSE,0.9476,,,,,,,,,,,,,,,,,,,,,,,,,,,,,,,
,6123ac0a8aeae4eadc828781,627c76cd65bc5538045da41c,2022-05-12_04h54.32.861,classification_task,2021.2.3,Win32,59.54862145,627c6715c52fd12f31907bd0,,,,,,,,,,,,,,,,,,,,,,,l,1,"[""0.154"",""0.432"",""0.397"",""0.706""]","[1,1,0,1]",0,12,12,12,1,1,1,,,0,FALSE,1.624,,,,,,,,,,,,,,,,,,,,,,,,,,,,,,,
,6123ac0a8aeae4eadc828781,627c76cd65bc5538045da41c,2022-05-12_04h54.32.861,classification_task,2021.2.3,Win32,59.54862145,627c6715c52fd12f31907bd0,,,,,,,,,,,,,,,,,,,,,,,a,1,"[""0.054"",""0.467"",""0.631"",""0.914""]","[0,1,1,1]",0,13,13,13,1,0,0,,,0,FALSE,1.9057,,,,,,,,,,,,,,,,,,,,,,,,,,,,,,,
,6123ac0a8aeae4eadc828781,627c76cd65bc5538045da41c,2022-05-12_04h54.32.861,classification_task,2021.2.3,Win32,59.54862145,627c6715c52fd12f31907bd0,,,,,,,,,,,,,,,,,,,,,,,a,1,"[""0.196"",""0.363"",""0.777"",""0.598""]","[1,1,1,0]",0,14,14,14,1,0,1,,,0,FALSE,1.8745,,,,,,,,,,,,,,,,,,,,,,,,,,,,,,,
,6123ac0a8aeae4eadc828781,627c76cd65bc5538045da41c,2022-05-12_04h54.32.861,classification_task,2021.2.3,Win32,59.54862145,627c6715c52fd12f31907bd0,,,,,,,,,,,,,,,,,,,,,,,l,1,"[""0.055"",""0.268"",""0.503"",""0.835""]","[0,1,1,1]",0,15,15,15,1,1,0,,,0,FALSE,1.4243,,,,,,,,,,,,,,,,,,,,,,,,,,,,,,,
,6123ac0a8aeae4eadc828781,627c76cd65bc5538045da41c,2022-05-12_04h54.32.861,classification_task,2021.2.3,Win32,59.54862145,627c6715c52fd12f31907bd0,,,,,,,,,,,,,,,,,,,,,,,l,1,"[""0.154"",""0.432"",""0.554"",""0.876""]","[1,1,1,0]",0,16,16,16,1,1,1,,,0,FALSE,1.5816,,,,,,,,,,,,,,,,,,,,,,,,,,,,,,,
,6123ac0a8aeae4eadc828781,627c76cd65bc5538045da41c,2022-05-12_04h54.32.861,classification_task,2021.2.3,Win32,59.54862145,627c6715c52fd12f31907bd0,,,,,,,,,,,,,,,,,,,,,,,a,1,"[""0.320"",""0.467"",""0.631"",""0.876""]","[1,1,1,0]",0,17,17,17,1,0,0,,,0,FALSE,2.5,,,,,,,,,,,,,,,,,,,,,,,,,,,,,,,
,6123ac0a8aeae4eadc828781,627c76cd65bc5538045da41c,2022-05-12_04h54.32.861,classification_task,2021.2.3,Win32,59.54862145,627c6715c52fd12f31907bd0,,,,,,,,,,,,,,,,,,,,,,,l,1,"[""0.398"",""0.268"",""0.503"",""0.835""]","[0,1,1,1]",0,18,18,18,1,1,0,,,0,FALSE,0.8523,,,,,,,,,,,,,,,,,,,,,,,,,,,,,,,
,6123ac0a8aeae4eadc828781,627c76cd65bc5538045da41c,2022-05-12_04h54.32.861,classification_task,2021.2.3,Win32,59.54862145,627c6715c52fd12f31907bd0,,,,,,,,,,,,,,,,,,,,,,,l,1,"[""0.091"",""0.398"",""0.503"",""0.835""]","[1,0,1,1]",0,19,19,19,1,1,0,,,0,FALSE,0.5144,,,,,,,,,,,,,,,,,,,,,,,,,,,,,,,
,6123ac0a8aeae4eadc828781,627c76cd65bc5538045da41c,2022-05-12_04h54.32.861,classification_task,2021.2.3,Win32,59.54862145,627c6715c52fd12f31907bd0,,,,,,,,,,,,,,,,,,,,,,,l,1,"[""0.091"",""0.268"",""0.672"",""0.835""]","[1,1,0,1]",0,20,20,20,1,1,0,,,0,FALSE,0.5188,,,,,,,,,,,,,,,,,,,,,,,,,,,,,,,
,6123ac0a8aeae4eadc828781,627c76cd65bc5538045da41c,2022-05-12_04h54.32.861,classification_task,2021.2.3,Win32,59.54862145,627c6715c52fd12f31907bd0,,,,,,,,,,,,,,,,,,,,,,,l,0,"[""0.054"",""0.363"",""0.777"",""0.955""]","[0,1,1,1]",0,21,21,21,1,0,1,,,0,FALSE,1.8408,,,,,,,,,,,,,,,,,,,,,,,,,,,,,,,
,6123ac0a8aeae4eadc828781,627c76cd65bc5538045da41c,2022-05-12_04h54.32.861,classification_task,2021.2.3,Win32,59.54862145,627c6715c52fd12f31907bd0,,,,,,,,,,,,,,,,,,,,,,,a,1,"[""0.196"",""0.363"",""0.589"",""0.955""]","[1,1,0,1]",0,22,22,22,1,0,1,,,0,FALSE,1.9484,,,,,,,,,,,,,,,,,,,,,,,,,,,,,,,
,6123ac0a8aeae4eadc828781,627c76cd65bc5538045da41c,2022-05-12_04h54.32.861,classification_task,2021.2.3,Win32,59.54862145,627c6715c52fd12f31907bd0,,,,,,,,,,,,,,,,,,,,,,,a,1,"[""0.320"",""0.880"",""0.631"",""0.914""]","[1,0,1,1]",0,23,23,23,1,0,0,,,0,FALSE,2.034,,,,,,,,,,,,,,,,,,,,,,,,,,,,,,,
,6123ac0a8aeae4eadc828781,627c76cd65bc5538045da41c,2022-05-12_04h54.32.861,classification_task,2021.2.3,Win32,59.54862145,627c6715c52fd12f31907bd0,,,,,,,,,,,,,,,,,,,,,,,a,1,"[""0.196"",""0.363"",""0.777"",""0.876""]","[1,1,1,0]",0,24,24,24,1,0,1,,,0,FALSE,2.9067,,,,,,,,,,,,,,,,,,,,,,,,,,,,,,,
,6123ac0a8aeae4eadc828781,627c76cd65bc5538045da41c,2022-05-12_04h54.32.861,classification_task,2021.2.3,Win32,59.54862145,627c6715c52fd12f31907bd0,,,,,,,,,,,,,,,,,,,,,,,l,1,"[""0.054"",""0.432"",""0.554"",""0.706""]","[0,1,1,1]",0,25,25,25,1,1,1,,,0,FALSE,1.2189,,,,,,,,,,,,,,,,,,,,,,,,,,,,,,,
,6123ac0a8aeae4eadc828781,627c76cd65bc5538045da41c,2022-05-12_04h54.32.861,classification_task,2021.2.3,Win32,59.54862145,627c6715c52fd12f31907bd0,,,,,,,,,,,,,,,,,,,,,,,a,1,"[""0.196"",""0.598"",""0.777"",""0.955""]","[1,0,1,1]",0,26,26,26,1,0,1,,,0,FALSE,1.0947,,,,,,,,,,,,,,,,,,,,,,,,,,,,,,,
,6123ac0a8aeae4eadc828781,627c76cd65bc5538045da41c,2022-05-12_04h54.32.861,classification_task,2021.2.3,Win32,59.54862145,627c6715c52fd12f31907bd0,,,,,,,,,,,,,,,,,,,,,,,a,1,"[""0.320"",""0.467"",""0.872"",""0.914""]","[1,1,0,1]",0,27,27,27,1,0,0,,,0,FALSE,1.6294,,,,,,,,,,,,,,,,,,,,,,,,,,,,,,,
,6123ac0a8aeae4eadc828781,627c76cd65bc5538045da41c,2022-05-12_04h54.32.861,classification_task,2021.2.3,Win32,59.54862145,627c6715c52fd12f31907bd0,,,,,,,,,,,,,,,,,,,,,,,l,1,"[""0.091"",""0.268"",""0.503"",""0.398""]","[1,1,1,0]",0,28,28,28,1,1,0,,,0,FALSE,0.5696,,,,,,,,,,,,,,,,,,,,,,,,,,,,,,,
,6123ac0a8aeae4eadc828781,627c76cd65bc5538045da41c,2022-05-12_04h54.32.861,classification_task,2021.2.3,Win32,59.54862145,627c6715c52fd12f31907bd0,,,,,,,,,,,,,,,,,,,,,,,l,1,"[""0.154"",""0.589"",""0.554"",""0.706""]","[1,0,1,1]",0,29,29,29,1,1,1,,,0,FALSE,1.5899,,,,,,,,,,,,,,,,,,,,,,,,,,,,,,,
,6123ac0a8aeae4eadc828781,627c76cd65bc5538045da41c,2022-05-12_04h54.32.861,classification_task,2021.2.3,Win32,59.54862145,627c6715c52fd12f31907bd0,,,,,,,,,,,,,,,,,,,,,,,l,1,"[""0.154"",""0.432"",""0.055"",""0.706""]","[1,1,0,1]",0,30,30,30,1,1,1,,,0,FALSE,1.3443,,,,,,,,,,,,,,,,,,,,,,,,,,,,,,,
,6123ac0a8aeae4eadc828781,627c76cd65bc5538045da41c,2022-05-12_04h54.32.861,classification_task,2021.2.3,Win32,59.54862145,627c6715c52fd12f31907bd0,,,,,,,,,,,,,,,,,,,,,,,a,1,"[""0.045"",""0.467"",""0.631"",""0.914""]","[0,1,1,1]",0,31,31,31,1,0,0,,,0,FALSE,1.7422,,,,,,,,,,,,,,,,,,,,,,,,,,,,,,,
,6123ac0a8aeae4eadc828781,627c76cd65bc5538045da41c,2022-05-12_04h54.32.861,classification_task,2021.2.3,Win32,59.54862145,627c6715c52fd12f31907bd0,,,,,,,,,,,,,,,,,,,,,,,a,1,"[""0.876"",""0.467"",""0.631"",""0.914""]","[0,1,1,1]",0,32,32,32,1,0,0,,,0,FALSE,0.6531,,,,,,,,,,,,,,,,,,,,,,,,,,,,,,,
,6123ac0a8aeae4eadc828781,627c76cd65bc5538045da41c,2022-05-12_04h54.32.861,classification_task,2021.2.3,Win32,59.54862145,627c6715c52fd12f31907bd0,,,,,,,,,,,,,,,,,,,,,,,l,1,"[""0.154"",""0.432"",""0.880"",""0.706""]","[1,1,0,1]",0,33,33,33,1,1,1,,,0,FALSE,1.7705,,,,,,,,,,,,,,,,,,,,,,,,,,,,,,,
,6123ac0a8aeae4eadc828781,627c76cd65bc5538045da41c,2022-05-12_04h54.32.861,classification_task,2021.2.3,Win32,59.54862145,627c6715c52fd12f31907bd0,,,,,,,,,,,,,,,,,,,,,,,l,1,"[""0.091"",""0.268"",""0.397"",""0.835""]","[1,1,0,1]",0,34,34,34,1,1,0,,,0,FALSE,1.6843,,,,,,,,,,,,,,,,,,,,,,,,,,,,,,,
,6123ac0a8aeae4eadc828781,627c76cd65bc5538045da41c,2022-05-12_04h54.32.861,classification_task,2021.2.3,Win32,59.54862145,627c6715c52fd12f31907bd0,,,,,,,,,,,,,,,,,,,,,,,l,0,"[""0.196"",""0.363"",""0.777"",""0.055""]","[1,1,1,0]",0,35,35,35,1,0,1,,,0,FALSE,1.5071,,,,,,,,,,,,,,,,,,,,,,,,,,,,,,,
,6123ac0a8aeae4eadc828781,627c76cd65bc5538045da41c,2022-05-12_04h54.32.861,classification_task,2021.2.3,Win32,59.54862145,627c6715c52fd12f31907bd0,,,,,,,,,,,,,,,,,,,,,,,l,1,"[""0.054"",""0.268"",""0.503"",""0.835""]","[0,1,1,1]",0,36,36,36,1,1,0,,,0,FALSE,1.9905,,,,,,,,,,,,,,,,,,,,,,,,,,,,,,,
,6123ac0a8aeae4eadc828781,627c76cd65bc5538045da41c,2022-05-12_04h54.32.861,classification_task,2021.2.3,Win32,59.54862145,627c6715c52fd12f31907bd0,,,,,,,,,,,,,,,,,,,,,,,l,1,"[""0.091"",""0.268"",""0.503"",""0.045""]","[1,1,1,0]",0,37,37,37,1,1,0,,,0,FALSE,0.6853,,,,,,,,,,,,,,,,,,,,,,,,,,,,,,,
,6123ac0a8aeae4eadc828781,627c76cd65bc5538045da41c,2022-05-12_04h54.32.861,classification_task,2021.2.3,Win32,59.54862145,627c6715c52fd12f31907bd0,,,,,,,,,,,,,,,,,,,,,,,l,1,"[""0.398"",""0.432"",""0.554"",""0.706""]","[0,1,1,1]",0,38,38,38,1,1,1,,,0,FALSE,1.3744,,,,,,,,,,,,,,,,,,,,,,,,,,,,,,,
,6123ac0a8aeae4eadc828781,627c76cd65bc5538045da41c,2022-05-12_04h54.32.861,classification_task,2021.2.3,Win32,59.54862145,627c6715c52fd12f31907bd0,,,,,,,,,,,,,,,,,,,,,,,l,1,"[""0.091"",""0.672"",""0.503"",""0.835""]","[1,0,1,1]",0,39,39,39,1,1,0,,,0,FALSE,1.2551,,,,,,,,,,,,,,,,,,,,,,,,,,,,,,,
,6123ac0a8aeae4eadc828781,627c76cd65bc5538045da41c,2022-05-12_04h54.32.861,classification_task,2021.2.3,Win32,59.54862145,627c6715c52fd12f31907bd0,,,,,,,,,,,,,,,,,,,,,,,a,1,"[""0.320"",""0.467"",""0.598"",""0.914""]","[1,1,0,1]",0,40,40,40,1,0,0,,,0,FALSE,0.6211,,,,,,,,,,,,,,,,,,,,,,,,,,,,,,,
,6123ac0a8aeae4eadc828781,627c76cd65bc5538045da41c,2022-05-12_04h54.32.861,classification_task,2021.2.3,Win32,59.54862145,627c6715c52fd12f31907bd0,,,,,,,,,,,,,,,,,,,,,,,l,0,"[""0.589"",""0.363"",""0.777"",""0.955""]","[0,1,1,1]",0,41,41,41,1,0,1,,,0,FALSE,1.3727,,,,,,,,,,,,,,,,,,,,,,,,,,,,,,,
,6123ac0a8aeae4eadc828781,627c76cd65bc5538045da41c,2022-05-12_04h54.32.861,classification_task,2021.2.3,Win32,59.54862145,627c6715c52fd12f31907bd0,,,,,,,,,,,,,,,,,,,,,,,a,1,"[""0.320"",""0.467"",""0.631"",""0.032""]","[1,1,1,0]",0,42,42,42,1,0,0,,,0,FALSE,1.7392,,,,,,,,,,,,,,,,,,,,,,,,,,,,,,,
,6123ac0a8aeae4eadc828781,627c76cd65bc5538045da41c,2022-05-12_04h54.32.861,classification_task,2021.2.3,Win32,59.54862145,627c6715c52fd12f31907bd0,,,,,,,,,,,,,,,,,,,,,,,l,1,"[""0.154"",""0.589"",""0.554"",""0.706""]","[1,0,1,1]",0,43,43,43,1,1,1,,,0,FALSE,1.8062,,,,,,,,,,,,,,,,,,,,,,,,,,,,,,,
,6123ac0a8aeae4eadc828781,627c76cd65bc5538045da41c,2022-05-12_04h54.32.861,classification_task,2021.2.3,Win32,59.54862145,627c6715c52fd12f31907bd0,,,,,,,,,,,,,,,,,,,,,,,a,1,"[""0.196"",""0.363"",""0.876"",""0.955""]","[1,1,0,1]",0,44,44,44,1,0,1,,,0,FALSE,0.9587,,,,,,,,,,,,,,,,,,,,,,,,,,,,,,,
,6123ac0a8aeae4eadc828781,627c76cd65bc5538045da41c,2022-05-12_04h54.32.861,classification_task,2021.2.3,Win32,59.54862145,627c6715c52fd12f31907bd0,,,,,,,,,,,,,,,,,,,,,,,l,0,"[""0.196"",""0.235"",""0.777"",""0.955""]","[1,0,1,1]",0,45,45,45,1,0,1,,,0,FALSE,1.3791,,,,,,,,,,,,,,,,,,,,,,,,,,,,,,,
,6123ac0a8aeae4eadc828781,627c76cd65bc5538045da41c,2022-05-12_04h54.32.861,classification_task,2021.2.3,Win32,59.54862145,627c6715c52fd12f31907bd0,,,,,,,,,,,,,,,,,,,,,,,l,1,"[""0.154"",""0.432"",""0.554"",""0.598""]","[1,1,1,0]",0,46,46,46,1,1,1,,,0,FALSE,1.5648,,,,,,,,,,,,,,,,,,,,,,,,,,,,,,,
,6123ac0a8aeae4eadc828781,627c76cd65bc5538045da41c,2022-05-12_04h54.32.861,classification_task,2021.2.3,Win32,59.54862145,627c6715c52fd12f31907bd0,,,,,,,,,,,,,,,,,,,,,,,a,1,"[""0.320"",""0.230"",""0.631"",""0.914""]","[1,0,1,1]",0,47,47,47,1,0,0,,,0,FALSE,1.4026,,,,,,,,,,,,,,,,,,,,,,,,,,,,,,,
,6123ac0a8aeae4eadc828781,627c76cd65bc5538045da41c,2022-05-12_04h54.32.861,classification_task,2021.2.3,Win32,59.54862145,627c6715c52fd12f31907bd0,,,,,,,,,,,,,,,,,,,,,,,a,0,"[""0.235"",""0.432"",""0.554"",""0.706""]","[0,1,1,1]",0,48,48,48,1,1,1,,,0,FALSE,1.8498,,,,,,,,,,,,,,,,,,,,,,,,,,,,,,,
,6123ac0a8aeae4eadc828781,627c76cd65bc5538045da41c,2022-05-12_04h54.32.861,classification_task,2021.2.3,Win32,59.54862145,627c6715c52fd12f31907bd0,,,,,,,,,,,,,,,,,,,,,,,a,1,"[""0.320"",""0.467"",""0.672"",""0.914""]","[1,1,0,1]",0,49,49,49,1,0,0,,,0,FALSE,1.3253,,,,,,,,,,,,,,,,,,,,,,,,,,,,,,,
,6123ac0a8aeae4eadc828781,627c76cd65bc5538045da41c,2022-05-12_04h54.32.861,classification_task,2021.2.3,Win32,59.54862145,627c6715c52fd12f31907bd0,,,,,,,,,,,,,,,,,,,,,,,a,1,"[""0.872"",""0.467"",""0.631"",""0.914""]","[0,1,1,1]",0,50,50,50,1,0,0,,,0,FALSE,0.5857,,,,,,,,,,,,,,,,,,,,,,,,,,,,,,,
,6123ac0a8aeae4eadc828781,627c76cd65bc5538045da41c,2022-05-12_04h54.32.861,classification_task,2021.2.3,Win32,59.54862145,627c6715c52fd12f31907bd0,,,,,,,,,,,,,,,,,,,,,,,a,1,"[""0.196"",""0.398"",""0.777"",""0.955""]","[1,0,1,1]",0,51,51,51,1,0,1,,,0,FALSE,1.8634,,,,,,,,,,,,,,,,,,,,,,,,,,,,,,,
,6123ac0a8aeae4eadc828781,627c76cd65bc5538045da41c,2022-05-12_04h54.32.861,classification_task,2021.2.3,Win32,59.54862145,627c6715c52fd12f31907bd0,,,,,,,,,,,,,,,,,,,,,,,l,1,"[""0.091"",""0.268"",""0.503"",""0.598""]","[1,1,1,0]",0,52,52,52,1,1,0,,,0,FALSE,1.2104,,,,,,,,,,,,,,,,,,,,,,,,,,,,,,,
,6123ac0a8aeae4eadc828781,627c76cd65bc5538045da41c,2022-05-12_04h54.32.861,classification_task,2021.2.3,Win32,59.54862145,627c6715c52fd12f31907bd0,,,,,,,,,,,,,,,,,,,,,,,l,1,"[""0.091"",""0.045"",""0.503"",""0.835""]","[1,0,1,1]",0,53,53,53,1,1,0,,,0,FALSE,0.5681,,,,,,,,,,,,,,,,,,,,,,,,,,,,,,,
,6123ac0a8aeae4eadc828781,627c76cd65bc5538045da41c,2022-05-12_04h54.32.861,classification_task,2021.2.3,Win32,59.54862145,627c6715c52fd12f31907bd0,,,,,,,,,,,,,,,,,,,,,,,a,1,"[""0.598"",""0.363"",""0.777"",""0.955""]","[0,1,1,1]",0,54,54,54,1,0,1,,,0,FALSE,1.5632,,,,,,,,,,,,,,,,,,,,,,,,,,,,,,,
,6123ac0a8aeae4eadc828781,627c76cd65bc5538045da41c,2022-05-12_04h54.32.861,classification_task,2021.2.3,Win32,59.54862145,627c6715c52fd12f31907bd0,,,,,,,,,,,,,,,,,,,,,,,a,1,"[""0.320"",""0.598"",""0.631"",""0.914""]","[1,0,1,1]",0,55,55,55,1,0,0,,,0,FALSE,1.755,,,,,,,,,,,,,,,,,,,,,,,,,,,,,,,
,6123ac0a8aeae4eadc828781,627c76cd65bc5538045da41c,2022-05-12_04h54.32.861,classification_task,2021.2.3,Win32,59.54862145,627c6715c52fd12f31907bd0,,,,,,,,,,,,,,,,,,,,,,,l,1,"[""0.154"",""0.397"",""0.554"",""0.706""]","[1,0,1,1]",0,56,56,56,1,1,1,,,0,FALSE,2.5117,,,,,,,,,,,,,,,,,,,,,,,,,,,,,,,
,6123ac0a8aeae4eadc828781,627c76cd65bc5538045da41c,2022-05-12_04h54.32.861,classification_task,2021.2.3,Win32,59.54862145,627c6715c52fd12f31907bd0,,,,,,,,,,,,,,,,,,,,,,,a,1,"[""0.196"",""0.363"",""0.397"",""0.955""]","[1,1,0,1]",0,57,57,57,1,0,1,,,0,FALSE,0.9329,,,,,,,,,,,,,,,,,,,,,,,,,,,,,,,
,6123ac0a8aeae4eadc828781,627c76cd65bc5538045da41c,2022-05-12_04h54.32.861,classification_task,2021.2.3,Win32,59.54862145,627c6715c52fd12f31907bd0,,,,,,,,,,,,,,,,,,,,,,,a,1,"[""0.196"",""0.363"",""0.777"",""0.880""]","[1,1,1,0]",0,58,58,58,1,0,1,,,0,FALSE,0.8632,,,,,,,,,,,,,,,,,,,,,,,,,,,,,,,
,6123ac0a8aeae4eadc828781,627c76cd65bc5538045da41c,2022-05-12_04h54.32.861,classification_task,2021.2.3,Win32,59.54862145,627c6715c52fd12f31907bd0,,,,,,,,,,,,,,,,,,,,,,,a,1,"[""0.320"",""0.467"",""0.631"",""0.032""]","[1,1,1,0]",0,59,59,59,1,0,0,,,0,FALSE,1.5757,,,,,,,,,,,,,,,,,,,,,,,,,,,,,,,
,6123ac0a8aeae4eadc828781,627c76cd65bc5538045da41c,2022-05-12_04h54.32.861,classification_task,2021.2.3,Win32,59.54862145,627c6715c52fd12f31907bd0,,,,,,,,,,,,,,,,,,,,,,,l,1,"[""0.091"",""0.268"",""0.876"",""0.835""]","[1,1,0,1]",0,60,60,60,1,1,0,,,0,FALSE,0.6275,,,,,,,,,,,,,,,,,,,,,,,,,,,,,,,
,6123ac0a8aeae4eadc828781,627c76cd65bc5538045da41c,2022-05-12_04h54.32.861,classification_task,2021.2.3,Win32,59.54862145,627c6715c52fd12f31907bd0,,,,,,,,,,,,,,,,,,,,,,,a,0,"[""0.154"",""0.432"",""0.554"",""0.032""]","[1,1,1,0]",0,61,61,61,1,1,1,,,0,FALSE,1.9545,,,,,,,,,,,,,,,,,,,,,,,,,,,,,,,
,6123ac0a8aeae4eadc828781,627c76cd65bc5538045da41c,2022-05-12_04h54.32.861,classification_task,2021.2.3,Win32,59.54862145,627c6715c52fd12f31907bd0,,,,,,,,,,,,,,,,,,,,,,,l,1,"[""0.154"",""0.432"",""0.045"",""0.706""]","[1,1,0,1]",0,62,62,62,1,1,1,,,0,FALSE,0.8774,,,,,,,,,,,,,,,,,,,,,,,,,,,,,,,
,6123ac0a8aeae4eadc828781,627c76cd65bc5538045da41c,2022-05-12_04h54.32.861,classification_task,2021.2.3,Win32,59.54862145,627c6715c52fd12f31907bd0,,,,,,,,,,,,,,,,,,,,,,,l,1,"[""0.230"",""0.268"",""0.503"",""0.835""]","[0,1,1,1]",0,63,63,63,1,1,0,,,0,FALSE,1.2699,,,,,,,,,,,,,,,,,,,,,,,,,,,,,,,
,6123ac0a8aeae4eadc828781,627c76cd65bc5538045da41c,2022-05-12_04h54.32.861,classification_task,2021.2.3,Win32,59.54862145,627c6715c52fd12f31907bd0,,,,,,,,,,,,,,,,,,,,,,,,,,,,,,,,,,,,,,,0, ,,0,5,227.3933,0,1,1,1,1,2,2,,,,,,,,,,,,,,,,,,
,6123ac0a8aeae4eadc828781,627c76cd65bc5538045da41c,2022-05-12_04h54.32.861,classification_task,2021.2.3,Win32,59.54862145,627c6715c52fd12f31907bd0,,,,,,,,,,,,,,,,,,,,,,,,,,,,,,,,,,,,,,,1,  ,,0,10,232.369,0,1,1,1,1,2,2,,,,,,,,,,,,,,,,,,
,6123ac0a8aeae4eadc828781,627c76cd65bc5538045da41c,2022-05-12_04h54.32.861,classification_task,2021.2.3,Win32,59.54862145,627c6715c52fd12f31907bd0,,,,,,,,,,,,,,,,,,,,,,,,,,,,,,,,,,,,,,,2,  ,,0,9.546957672,234.0408,0,1,1,1,1,2,2,,,,,,,,,,,,,,,,,,
,6123ac0a8aeae4eadc828781,627c76cd65bc5538045da41c,2022-05-12_04h54.32.861,classification_task,2021.2.3,Win32,59.54862145,627c6715c52fd12f31907bd0,,,,,,,,,,,,,,,,,,,,,,,,,,,,,,,,,,,,,,,,,,,,,0,1,1,1,1,,2,,,,,,,,,,,,,,,,,,
,6123ac0a8aeae4eadc828781,627c76cd65bc5538045da41c,2022-05-12_04h54.32.861,classification_task,2021.2.3,Win32,59.54862145,627c6715c52fd12f31907bd0,,,,,,,,,,,,,,,,,,,,,space,23.8079,l,1,"[""0.589"",""0.268"",""0.503"",""0.835""]","[0,1,1,1]",0,0,0,0,1,1,0,,,0,FALSE,2.4636,,,,,,,,,,,,,,,,,,,,,,,,,,,,,,,
,6123ac0a8aeae4eadc828781,627c76cd65bc5538045da41c,2022-05-12_04h54.32.861,classification_task,2021.2.3,Win32,59.54862145,627c6715c52fd12f31907bd0,,,,,,,,,,,,,,,,,,,,,,,a,1,"[""0.320"",""0.467"",""0.876"",""0.914""]","[1,1,0,1]",0,1,1,1,1,0,0,,,0,FALSE,1.5732,,,,,,,,,,,,,,,,,,,,,,,,,,,,,,,
,6123ac0a8aeae4eadc828781,627c76cd65bc5538045da41c,2022-05-12_04h54.32.861,classification_task,2021.2.3,Win32,59.54862145,627c6715c52fd12f31907bd0,,,,,,,,,,,,,,,,,,,,,,,l,0,"[""0.196"",""0.363"",""0.777"",""0.034""]","[1,1,1,0]",0,2,2,2,1,0,1,,,0,FALSE,1.2104,,,,,,,,,,,,,,,,,,,,,,,,,,,,,,,
,6123ac0a8aeae4eadc828781,627c76cd65bc5538045da41c,2022-05-12_04h54.32.861,classification_task,2021.2.3,Win32,59.54862145,627c6715c52fd12f31907bd0,,,,,,,,,,,,,,,,,,,,,,,l,1,"[""0.091"",""0.268"",""0.235"",""0.835""]","[1,1,0,1]",0,3,3,3,1,1,0,,,0,FALSE,1.3196,,,,,,,,,,,,,,,,,,,,,,,,,,,,,,,
,6123ac0a8aeae4eadc828781,627c76cd65bc5538045da41c,2022-05-12_04h54.32.861,classification_task,2021.2.3,Win32,59.54862145,627c6715c52fd12f31907bd0,,,,,,,,,,,,,,,,,,,,,,,a,1,"[""0.196"",""0.363"",""0.880"",""0.955""]","[1,1,0,1]",0,4,4,4,1,0,1,,,0,FALSE,1.9948,,,,,,,,,,,,,,,,,,,,,,,,,,,,,,,
,6123ac0a8aeae4eadc828781,627c76cd65bc5538045da41c,2022-05-12_04h54.32.861,classification_task,2021.2.3,Win32,59.54862145,627c6715c52fd12f31907bd0,,,,,,,,,,,,,,,,,,,,,,,l,0,"[""0.320"",""0.467"",""0.631"",""0.589""]","[1,1,1,0]",0,5,5,5,1,0,0,,,0,FALSE,1.4955,,,,,,,,,,,,,,,,,,,,,,,,,,,,,,,
,6123ac0a8aeae4eadc828781,627c76cd65bc5538045da41c,2022-05-12_04h54.32.861,classification_task,2021.2.3,Win32,59.54862145,627c6715c52fd12f31907bd0,,,,,,,,,,,,,,,,,,,,,,,l,1,"[""0.154"",""0.589"",""0.554"",""0.706""]","[1,0,1,1]",0,6,6,6,1,1,1,,,0,FALSE,1.3158,,,,,,,,,,,,,,,,,,,,,,,,,,,,,,,
,6123ac0a8aeae4eadc828781,627c76cd65bc5538045da41c,2022-05-12_04h54.32.861,classification_task,2021.2.3,Win32,59.54862145,627c6715c52fd12f31907bd0,,,,,,,,,,,,,,,,,,,,,,,a,0,"[""0.091"",""0.268"",""0.503"",""0.397""]","[1,1,1,0]",0,7,7,7,1,1,0,,,0,FALSE,1.1471,,,,,,,,,,,,,,,,,,,,,,,,,,,,,,,
,6123ac0a8aeae4eadc828781,627c76cd65bc5538045da41c,2022-05-12_04h54.32.861,classification_task,2021.2.3,Win32,59.54862145,627c6715c52fd12f31907bd0,,,,,,,,,,,,,,,,,,,,,,,a,1,"[""0.320"",""0.055"",""0.631"",""0.914""]","[1,0,1,1]",0,8,8,8,1,0,0,,,0,FALSE,0.7514,,,,,,,,,,,,,,,,,,,,,,,,,,,,,,,
,6123ac0a8aeae4eadc828781,627c76cd65bc5538045da41c,2022-05-12_04h54.32.861,classification_task,2021.2.3,Win32,59.54862145,627c6715c52fd12f31907bd0,,,,,,,,,,,,,,,,,,,,,,,l,0,"[""0.034"",""0.363"",""0.777"",""0.955""]","[0,1,1,1]",0,9,9,9,1,0,1,,,0,FALSE,1.1687,,,,,,,,,,,,,,,,,,,,,,,,,,,,,,,
,6123ac0a8aeae4eadc828781,627c76cd65bc5538045da41c,2022-05-12_04h54.32.861,classification_task,2021.2.3,Win32,59.54862145,627c6715c52fd12f31907bd0,,,,,,,,,,,,,,,,,,,,,,,a,1,"[""0.196"",""0.398"",""0.777"",""0.955""]","[1,0,1,1]",0,10,10,10,1,0,1,,,0,FALSE,1.154,,,,,,,,,,,,,,,,,,,,,,,,,,,,,,,
,6123ac0a8aeae4eadc828781,627c76cd65bc5538045da41c,2022-05-12_04h54.32.861,classification_task,2021.2.3,Win32,59.54862145,627c6715c52fd12f31907bd0,,,,,,,,,,,,,,,,,,,,,,,l,0,"[""0.034"",""0.467"",""0.631"",""0.914""]","[0,1,1,1]",0,11,11,11,1,0,0,,,0,FALSE,0.9967,,,,,,,,,,,,,,,,,,,,,,,,,,,,,,,
,6123ac0a8aeae4eadc828781,627c76cd65bc5538045da41c,2022-05-12_04h54.32.861,classification_task,2021.2.3,Win32,59.54862145,627c6715c52fd12f31907bd0,,,,,,,,,,,,,,,,,,,,,,,a,0,"[""0.091"",""0.397"",""0.503"",""0.835""]","[1,0,1,1]",0,12,12,12,1,1,0,,,0,FALSE,0.6168,,,,,,,,,,,,,,,,,,,,,,,,,,,,,,,
,6123ac0a8aeae4eadc828781,627c76cd65bc5538045da41c,2022-05-12_04h54.32.861,classification_task,2021.2.3,Win32,59.54862145,627c6715c52fd12f31907bd0,,,,,,,,,,,,,,,,,,,,,,,l,1,"[""0.598"",""0.432"",""0.554"",""0.706""]","[0,1,1,1]",0,13,13,13,1,1,1,,,0,FALSE,1.3561,,,,,,,,,,,,,,,,,,,,,,,,,,,,,,,
,6123ac0a8aeae4eadc828781,627c76cd65bc5538045da41c,2022-05-12_04h54.32.861,classification_task,2021.2.3,Win32,59.54862145,627c6715c52fd12f31907bd0,,,,,,,,,,,,,,,,,,,,,,,l,1,"[""0.154"",""0.432"",""0.554"",""0.598""]","[1,1,1,0]",0,14,14,14,1,1,1,,,0,FALSE,1.3764,,,,,,,,,,,,,,,,,,,,,,,,,,,,,,,
,6123ac0a8aeae4eadc828781,627c76cd65bc5538045da41c,2022-05-12_04h54.32.861,classification_task,2021.2.3,Win32,59.54862145,627c6715c52fd12f31907bd0,,,,,,,,,,,,,,,,,,,,,,,l,1,"[""0.154"",""0.432"",""0.054"",""0.706""]","[1,1,0,1]",0,15,15,15,1,1,1,,,0,FALSE,0.9256,,,,,,,,,,,,,,,,,,,,,,,,,,,,,,,
,6123ac0a8aeae4eadc828781,627c76cd65bc5538045da41c,2022-05-12_04h54.32.861,classification_task,2021.2.3,Win32,59.54862145,627c6715c52fd12f31907bd0,,,,,,,,,,,,,,,,,,,,,,,l,0,"[""0.589"",""0.467"",""0.631"",""0.914""]","[0,1,1,1]",0,16,16,16,1,0,0,,,0,FALSE,1.0779,,,,,,,,,,,,,,,,,,,,,,,,,,,,,,,
,6123ac0a8aeae4eadc828781,627c76cd65bc5538045da41c,2022-05-12_04h54.32.861,classification_task,2021.2.3,Win32,59.54862145,627c6715c52fd12f31907bd0,,,,,,,,,,,,,,,,,,,,,,,a,1,"[""0.230"",""0.363"",""0.777"",""0.955""]","[0,1,1,1]",0,17,17,17,1,0,1,,,0,FALSE,0.7454,,,,,,,,,,,,,,,,,,,,,,,,,,,,,,,
,6123ac0a8aeae4eadc828781,627c76cd65bc5538045da41c,2022-05-12_04h54.32.861,classification_task,2021.2.3,Win32,59.54862145,627c6715c52fd12f31907bd0,,,,,,,,,,,,,,,,,,,,,,,l,1,"[""0.230"",""0.268"",""0.503"",""0.835""]","[0,1,1,1]",0,18,18,18,1,1,0,,,0,FALSE,0.7194,,,,,,,,,,,,,,,,,,,,,,,,,,,,,,,
,6123ac0a8aeae4eadc828781,627c76cd65bc5538045da41c,2022-05-12_04h54.32.861,classification_task,2021.2.3,Win32,59.54862145,627c6715c52fd12f31907bd0,,,,,,,,,,,,,,,,,,,,,,,a,1,"[""0.320"",""0.672"",""0.631"",""0.914""]","[1,0,1,1]",0,19,19,19,1,0,0,,,0,FALSE,0.7634,,,,,,,,,,,,,,,,,,,,,,,,,,,,,,,
,6123ac0a8aeae4eadc828781,627c76cd65bc5538045da41c,2022-05-12_04h54.32.861,classification_task,2021.2.3,Win32,59.54862145,627c6715c52fd12f31907bd0,,,,,,,,,,,,,,,,,,,,,,,a,1,"[""0.196"",""0.363"",""0.876"",""0.955""]","[1,1,0,1]",0,20,20,20,1,0,1,,,0,FALSE,1.3469,,,,,,,,,,,,,,,,,,,,,,,,,,,,,,,
,6123ac0a8aeae4eadc828781,627c76cd65bc5538045da41c,2022-05-12_04h54.32.861,classification_task,2021.2.3,Win32,59.54862145,627c6715c52fd12f31907bd0,,,,,,,,,,,,,,,,,,,,,,,l,1,"[""0.091"",""0.268"",""0.034"",""0.835""]","[1,1,0,1]",0,21,21,21,1,1,0,,,0,FALSE,0.8808,,,,,,,,,,,,,,,,,,,,,,,,,,,,,,,
,6123ac0a8aeae4eadc828781,627c76cd65bc5538045da41c,2022-05-12_04h54.32.861,classification_task,2021.2.3,Win32,59.54862145,627c6715c52fd12f31907bd0,,,,,,,,,,,,,,,,,,,,,,,l,0,"[""0.320"",""0.467"",""0.631"",""0.054""]","[1,1,1,0]",0,22,22,22,1,0,0,,,0,FALSE,0.8515,,,,,,,,,,,,,,,,,,,,,,,,,,,,,,,
,6123ac0a8aeae4eadc828781,627c76cd65bc5538045da41c,2022-05-12_04h54.32.861,classification_task,2021.2.3,Win32,59.54862145,627c6715c52fd12f31907bd0,,,,,,,,,,,,,,,,,,,,,,,a,0,"[""0.154"",""0.598"",""0.554"",""0.706""]","[1,0,1,1]",0,23,23,23,1,1,1,,,0,FALSE,0.9277,,,,,,,,,,,,,,,,,,,,,,,,,,,,,,,
,6123ac0a8aeae4eadc828781,627c76cd65bc5538045da41c,2022-05-12_04h54.32.861,classification_task,2021.2.3,Win32,59.54862145,627c6715c52fd12f31907bd0,,,,,,,,,,,,,,,,,,,,,,,l,1,"[""0.154"",""0.432"",""0.876"",""0.706""]","[1,1,0,1]",0,24,24,24,1,1,1,,,0,FALSE,0.8176,,,,,,,,,,,,,,,,,,,,,,,,,,,,,,,
,6123ac0a8aeae4eadc828781,627c76cd65bc5538045da41c,2022-05-12_04h54.32.861,classification_task,2021.2.3,Win32,59.54862145,627c6715c52fd12f31907bd0,,,,,,,,,,,,,,,,,,,,,,,l,0,"[""0.320"",""0.467"",""0.045"",""0.914""]","[1,1,0,1]",0,25,25,25,1,0,0,,,0,FALSE,0.9698,,,,,,,,,,,,,,,,,,,,,,,,,,,,,,,
,6123ac0a8aeae4eadc828781,627c76cd65bc5538045da41c,2022-05-12_04h54.32.861,classification_task,2021.2.3,Win32,59.54862145,627c6715c52fd12f31907bd0,,,,,,,,,,,,,,,,,,,,,,,l,1,"[""0.034"",""0.432"",""0.554"",""0.706""]","[0,1,1,1]",0,26,26,26,1,1,1,,,0,FALSE,1.2683,,,,,,,,,,,,,,,,,,,,,,,,,,,,,,,
,6123ac0a8aeae4eadc828781,627c76cd65bc5538045da41c,2022-05-12_04h54.32.861,classification_task,2021.2.3,Win32,59.54862145,627c6715c52fd12f31907bd0,,,,,,,,,,,,,,,,,,,,,,,l,1,"[""0.154"",""0.432"",""0.554"",""0.032""]","[1,1,1,0]",0,27,27,27,1,1,1,,,0,FALSE,0.6462,,,,,,,,,,,,,,,,,,,,,,,,,,,,,,,
,6123ac0a8aeae4eadc828781,627c76cd65bc5538045da41c,2022-05-12_04h54.32.861,classification_task,2021.2.3,Win32,59.54862145,627c6715c52fd12f31907bd0,,,,,,,,,,,,,,,,,,,,,,,a,0,"[""0.091"",""0.268"",""0.503"",""0.880""]","[1,1,1,0]",0,28,28,28,1,1,0,,,0,FALSE,1.2342,,,,,,,,,,,,,,,,,,,,,,,,,,,,,,,
,6123ac0a8aeae4eadc828781,627c76cd65bc5538045da41c,2022-05-12_04h54.32.861,classification_task,2021.2.3,Win32,59.54862145,627c6715c52fd12f31907bd0,,,,,,,,,,,,,,,,,,,,,,,l,1,"[""0.091"",""0.876"",""0.503"",""0.835""]","[1,0,1,1]",0,29,29,29,1,1,0,,,0,FALSE,0.4937,,,,,,,,,,,,,,,,,,,,,,,,,,,,,,,
,6123ac0a8aeae4eadc828781,627c76cd65bc5538045da41c,2022-05-12_04h54.32.861,classification_task,2021.2.3,Win32,59.54862145,627c6715c52fd12f31907bd0,,,,,,,,,,,,,,,,,,,,,,,l,0,"[""0.196"",""0.032"",""0.777"",""0.955""]","[1,0,1,1]",0,30,30,30,1,0,1,,,0,FALSE,1.1132,,,,,,,,,,,,,,,,,,,,,,,,,,,,,,,
,6123ac0a8aeae4eadc828781,627c76cd65bc5538045da41c,2022-05-12_04h54.32.861,classification_task,2021.2.3,Win32,59.54862145,627c6715c52fd12f31907bd0,,,,,,,,,,,,,,,,,,,,,,,a,1,"[""0.196"",""0.363"",""0.777"",""0.880""]","[1,1,1,0]",0,31,31,31,1,0,1,,,0,FALSE,0.7689,,,,,,,,,,,,,,,,,,,,,,,,,,,,,,,
,6123ac0a8aeae4eadc828781,627c76cd65bc5538045da41c,2022-05-12_04h54.32.861,classification_task,2021.2.3,Win32,59.54862145,627c6715c52fd12f31907bd0,,,,,,,,,,,,,,,,,,,,,,,l,0,"[""0.320"",""0.467"",""0.631"",""0.235""]","[1,1,1,0]",0,32,32,32,1,0,0,,,0,FALSE,0.8465,,,,,,,,,,,,,,,,,,,,,,,,,,,,,,,
,6123ac0a8aeae4eadc828781,627c76cd65bc5538045da41c,2022-05-12_04h54.32.861,classification_task,2021.2.3,Win32,59.54862145,627c6715c52fd12f31907bd0,,,,,,,,,,,,,,,,,,,,,,,a,0,"[""0.091"",""0.672"",""0.503"",""0.835""]","[1,0,1,1]",0,33,33,33,1,1,0,,,0,FALSE,0.6486,,,,,,,,,,,,,,,,,,,,,,,,,,,,,,,
,6123ac0a8aeae4eadc828781,627c76cd65bc5538045da41c,2022-05-12_04h54.32.861,classification_task,2021.2.3,Win32,59.54862145,627c6715c52fd12f31907bd0,,,,,,,,,,,,,,,,,,,,,,,l,1,"[""0.154"",""0.432"",""0.045"",""0.706""]","[1,1,0,1]",0,34,34,34,1,1,1,,,0,FALSE,0.9027,,,,,,,,,,,,,,,,,,,,,,,,,,,,,,,
,6123ac0a8aeae4eadc828781,627c76cd65bc5538045da41c,2022-05-12_04h54.32.861,classification_task,2021.2.3,Win32,59.54862145,627c6715c52fd12f31907bd0,,,,,,,,,,,,,,,,,,,,,,,l,0,"[""0.054"",""0.363"",""0.777"",""0.955""]","[0,1,1,1]",0,35,35,35,1,0,1,,,0,FALSE,0.9903,,,,,,,,,,,,,,,,,,,,,,,,,,,,,,,
,6123ac0a8aeae4eadc828781,627c76cd65bc5538045da41c,2022-05-12_04h54.32.861,classification_task,2021.2.3,Win32,59.54862145,627c6715c52fd12f31907bd0,,,,,,,,,,,,,,,,,,,,,,,a,1,"[""0.196"",""0.876"",""0.777"",""0.955""]","[1,0,1,1]",0,36,36,36,1,0,1,,,0,FALSE,0.4017,,,,,,,,,,,,,,,,,,,,,,,,,,,,,,,
,6123ac0a8aeae4eadc828781,627c76cd65bc5538045da41c,2022-05-12_04h54.32.861,classification_task,2021.2.3,Win32,59.54862145,627c6715c52fd12f31907bd0,,,,,,,,,,,,,,,,,,,,,,,a,0,"[""0.154"",""0.432"",""0.554"",""0.230""]","[1,1,1,0]",0,37,37,37,1,1,1,,,0,FALSE,0.4505,,,,,,,,,,,,,,,,,,,,,,,,,,,,,,,
,6123ac0a8aeae4eadc828781,627c76cd65bc5538045da41c,2022-05-12_04h54.32.861,classification_task,2021.2.3,Win32,59.54862145,627c6715c52fd12f31907bd0,,,,,,,,,,,,,,,,,,,,,,,l,0,"[""0.320"",""0.467"",""0.398"",""0.914""]","[1,1,0,1]",0,38,38,38,1,0,0,,,0,FALSE,0.8067,,,,,,,,,,,,,,,,,,,,,,,,,,,,,,,
,6123ac0a8aeae4eadc828781,627c76cd65bc5538045da41c,2022-05-12_04h54.32.861,classification_task,2021.2.3,Win32,59.54862145,627c6715c52fd12f31907bd0,,,,,,,,,,,,,,,,,,,,,,,a,1,"[""0.196"",""0.363"",""0.777"",""0.672""]","[1,1,1,0]",0,39,39,39,1,0,1,,,0,FALSE,0.1793,,,,,,,,,,,,,,,,,,,,,,,,,,,,,,,
,6123ac0a8aeae4eadc828781,627c76cd65bc5538045da41c,2022-05-12_04h54.32.861,classification_task,2021.2.3,Win32,59.54862145,627c6715c52fd12f31907bd0,,,,,,,,,,,,,,,,,,,,,,,a,1,"[""0.196"",""0.363"",""0.598"",""0.955""]","[1,1,0,1]",0,40,40,40,1,0,1,,,0,FALSE,0.6854,,,,,,,,,,,,,,,,,,,,,,,,,,,,,,,
,6123ac0a8aeae4eadc828781,627c76cd65bc5538045da41c,2022-05-12_04h54.32.861,classification_task,2021.2.3,Win32,59.54862145,627c6715c52fd12f31907bd0,,,,,,,,,,,,,,,,,,,,,,,l,0,"[""0.055"",""0.467"",""0.631"",""0.914""]","[0,1,1,1]",0,41,41,41,1,0,0,,,0,FALSE,0.6868,,,,,,,,,,,,,,,,,,,,,,,,,,,,,,,
,6123ac0a8aeae4eadc828781,627c76cd65bc5538045da41c,2022-05-12_04h54.32.861,classification_task,2021.2.3,Win32,59.54862145,627c6715c52fd12f31907bd0,,,,,,,,,,,,,,,,,,,,,,,l,1,"[""0.091"",""0.268"",""0.054"",""0.835""]","[1,1,0,1]",0,42,42,42,1,1,0,,,0,FALSE,0.5163,,,,,,,,,,,,,,,,,,,,,,,,,,,,,,,
,6123ac0a8aeae4eadc828781,627c76cd65bc5538045da41c,2022-05-12_04h54.32.861,classification_task,2021.2.3,Win32,59.54862145,627c6715c52fd12f31907bd0,,,,,,,,,,,,,,,,,,,,,,,l,1,"[""0.032"",""0.432"",""0.554"",""0.706""]","[0,1,1,1]",0,43,43,43,1,1,1,,,0,FALSE,1.0121,,,,,,,,,,,,,,,,,,,,,,,,,,,,,,,
,6123ac0a8aeae4eadc828781,627c76cd65bc5538045da41c,2022-05-12_04h54.32.861,classification_task,2021.2.3,Win32,59.54862145,627c6715c52fd12f31907bd0,,,,,,,,,,,,,,,,,,,,,,,a,0,"[""0.091"",""0.268"",""0.503"",""0.034""]","[1,1,1,0]",0,44,44,44,1,1,0,,,0,FALSE,0.2572,,,,,,,,,,,,,,,,,,,,,,,,,,,,,,,
,6123ac0a8aeae4eadc828781,627c76cd65bc5538045da41c,2022-05-12_04h54.32.861,classification_task,2021.2.3,Win32,59.54862145,627c6715c52fd12f31907bd0,,,,,,,,,,,,,,,,,,,,,,,a,0,"[""0.589"",""0.268"",""0.503"",""0.835""]","[0,1,1,1]",0,45,45,45,1,1,0,,,0,FALSE,0.2369,,,,,,,,,,,,,,,,,,,,,,,,,,,,,,,
,6123ac0a8aeae4eadc828781,627c76cd65bc5538045da41c,2022-05-12_04h54.32.861,classification_task,2021.2.3,Win32,59.54862145,627c6715c52fd12f31907bd0,,,,,,,,,,,,,,,,,,,,,,,a,0,"[""0.154"",""0.598"",""0.554"",""0.706""]","[1,0,1,1]",0,46,46,46,1,1,1,,,0,FALSE,0.501,,,,,,,,,,,,,,,,,,,,,,,,,,,,,,,
,6123ac0a8aeae4eadc828781,627c76cd65bc5538045da41c,2022-05-12_04h54.32.861,classification_task,2021.2.3,Win32,59.54862145,627c6715c52fd12f31907bd0,,,,,,,,,,,,,,,,,,,,,,,l,0,"[""0.320"",""0.055"",""0.631"",""0.914""]","[1,0,1,1]",0,47,47,47,1,0,0,,,0,FALSE,0.7872,,,,,,,,,,,,,,,,,,,,,,,,,,,,,,,
,6123ac0a8aeae4eadc828781,627c76cd65bc5538045da41c,2022-05-12_04h54.32.861,classification_task,2021.2.3,Win32,59.54862145,627c6715c52fd12f31907bd0,,,,,,,,,,,,,,,,,,,,,,,l,1,"[""0.154"",""0.432"",""0.055"",""0.706""]","[1,1,0,1]",0,48,48,48,1,1,1,,,0,FALSE,0.8444,,,,,,,,,,,,,,,,,,,,,,,,,,,,,,,
,6123ac0a8aeae4eadc828781,627c76cd65bc5538045da41c,2022-05-12_04h54.32.861,classification_task,2021.2.3,Win32,59.54862145,627c6715c52fd12f31907bd0,,,,,,,,,,,,,,,,,,,,,,,l,0,"[""0.196"",""0.876"",""0.777"",""0.955""]","[1,0,1,1]",0,49,49,49,1,0,1,,,0,FALSE,0.4794,,,,,,,,,,,,,,,,,,,,,,,,,,,,,,,
,6123ac0a8aeae4eadc828781,627c76cd65bc5538045da41c,2022-05-12_04h54.32.861,classification_task,2021.2.3,Win32,59.54862145,627c6715c52fd12f31907bd0,,,,,,,,,,,,,,,,,,,,,,,a,0,"[""0.034"",""0.432"",""0.554"",""0.706""]","[0,1,1,1]",0,50,50,50,1,1,1,,,0,FALSE,0.377,,,,,,,,,,,,,,,,,,,,,,,,,,,,,,,
,6123ac0a8aeae4eadc828781,627c76cd65bc5538045da41c,2022-05-12_04h54.32.861,classification_task,2021.2.3,Win32,59.54862145,627c6715c52fd12f31907bd0,,,,,,,,,,,,,,,,,,,,,,,l,1,"[""0.154"",""0.432"",""0.554"",""0.045""]","[1,1,1,0]",0,51,51,51,1,1,1,,,0,FALSE,0.2872,,,,,,,,,,,,,,,,,,,,,,,,,,,,,,,
,6123ac0a8aeae4eadc828781,627c76cd65bc5538045da41c,2022-05-12_04h54.32.861,classification_task,2021.2.3,Win32,59.54862145,627c6715c52fd12f31907bd0,,,,,,,,,,,,,,,,,,,,,,,a,0,"[""0.091"",""0.268"",""0.503"",""0.398""]","[1,1,1,0]",0,52,52,52,1,1,0,,,0,FALSE,0.2524,,,,,,,,,,,,,,,,,,,,,,,,,,,,,,,
,6123ac0a8aeae4eadc828781,627c76cd65bc5538045da41c,2022-05-12_04h54.32.861,classification_task,2021.2.3,Win32,59.54862145,627c6715c52fd12f31907bd0,,,,,,,,,,,,,,,,,,,,,,,a,1,"[""0.320"",""0.467"",""0.631"",""0.876""]","[1,1,1,0]",0,53,53,53,1,0,0,,,0,FALSE,1.0678,,,,,,,,,,,,,,,,,,,,,,,,,,,,,,,
,6123ac0a8aeae4eadc828781,627c76cd65bc5538045da41c,2022-05-12_04h54.32.861,classification_task,2021.2.3,Win32,59.54862145,627c6715c52fd12f31907bd0,,,,,,,,,,,,,,,,,,,,,,,l,1,"[""0.091"",""0.034"",""0.503"",""0.835""]","[1,0,1,1]",0,54,54,54,1,1,0,,,0,FALSE,0.253,,,,,,,,,,,,,,,,,,,,,,,,,,,,,,,
,6123ac0a8aeae4eadc828781,627c76cd65bc5538045da41c,2022-05-12_04h54.32.861,classification_task,2021.2.3,Win32,59.54862145,627c6715c52fd12f31907bd0,,,,,,,,,,,,,,,,,,,,,,,l,0,"[""0.196"",""0.363"",""0.777"",""0.032""]","[1,1,1,0]",0,55,55,55,1,0,1,,,0,FALSE,0.8494,,,,,,,,,,,,,,,,,,,,,,,,,,,,,,,
,6123ac0a8aeae4eadc828781,627c76cd65bc5538045da41c,2022-05-12_04h54.32.861,classification_task,2021.2.3,Win32,59.54862145,627c6715c52fd12f31907bd0,,,,,,,,,,,,,,,,,,,,,,,l,0,"[""0.034"",""0.363"",""0.777"",""0.955""]","[0,1,1,1]",0,56,56,56,1,0,1,,,0,FALSE,0.7161,,,,,,,,,,,,,,,,,,,,,,,,,,,,,,,
,6123ac0a8aeae4eadc828781,627c76cd65bc5538045da41c,2022-05-12_04h54.32.861,classification_task,2021.2.3,Win32,59.54862145,627c6715c52fd12f31907bd0,,,,,,,,,,,,,,,,,,,,,,,l,1,"[""0.091"",""0.268"",""0.235"",""0.835""]","[1,1,0,1]",0,57,57,57,1,1,0,,,0,FALSE,0.9157,,,,,,,,,,,,,,,,,,,,,,,,,,,,,,,
,6123ac0a8aeae4eadc828781,627c76cd65bc5538045da41c,2022-05-12_04h54.32.861,classification_task,2021.2.3,Win32,59.54862145,627c6715c52fd12f31907bd0,,,,,,,,,,,,,,,,,,,,,,,a,1,"[""0.196"",""0.363"",""0.589"",""0.955""]","[1,1,0,1]",0,58,58,58,1,0,1,,,0,FALSE,0.8588,,,,,,,,,,,,,,,,,,,,,,,,,,,,,,,
,6123ac0a8aeae4eadc828781,627c76cd65bc5538045da41c,2022-05-12_04h54.32.861,classification_task,2021.2.3,Win32,59.54862145,627c6715c52fd12f31907bd0,,,,,,,,,,,,,,,,,,,,,,,a,0,"[""0.154"",""0.032"",""0.554"",""0.706""]","[1,0,1,1]",0,59,59,59,1,1,1,,,0,FALSE,0.3956,,,,,,,,,,,,,,,,,,,,,,,,,,,,,,,
,6123ac0a8aeae4eadc828781,627c76cd65bc5538045da41c,2022-05-12_04h54.32.861,classification_task,2021.2.3,Win32,59.54862145,627c6715c52fd12f31907bd0,,,,,,,,,,,,,,,,,,,,,,,l,0,"[""0.055"",""0.467"",""0.631"",""0.914""]","[0,1,1,1]",0,60,60,60,1,0,0,,,0,FALSE,0.6777,,,,,,,,,,,,,,,,,,,,,,,,,,,,,,,
,6123ac0a8aeae4eadc828781,627c76cd65bc5538045da41c,2022-05-12_04h54.32.861,classification_task,2021.2.3,Win32,59.54862145,627c6715c52fd12f31907bd0,,,,,,,,,,,,,,,,,,,,,,,a,0,"[""0.872"",""0.268"",""0.503"",""0.835""]","[0,1,1,1]",0,61,61,61,1,1,0,,,0,FALSE,0.6737,,,,,,,,,,,,,,,,,,,,,,,,,,,,,,,
,6123ac0a8aeae4eadc828781,627c76cd65bc5538045da41c,2022-05-12_04h54.32.861,classification_task,2021.2.3,Win32,59.54862145,627c6715c52fd12f31907bd0,,,,,,,,,,,,,,,,,,,,,,,a,1,"[""0.320"",""0.398"",""0.631"",""0.914""]","[1,0,1,1]",0,62,62,62,1,0,0,,,0,FALSE,0.4488,,,,,,,,,,,,,,,,,,,,,,,,,,,,,,,
,6123ac0a8aeae4eadc828781,627c76cd65bc5538045da41c,2022-05-12_04h54.32.861,classification_task,2021.2.3,Win32,59.54862145,627c6715c52fd12f31907bd0,,,,,,,,,,,,,,,,,,,,,,,a,1,"[""0.320"",""0.467"",""0.589"",""0.914""]","[1,1,0,1]",0,63,63,63,1,0,0,,,0,FALSE,0.5368,,,,,,,,,,,,,,,,,,,,,,,,,,,,,,,
,6123ac0a8aeae4eadc828781,627c76cd65bc5538045da41c,2022-05-12_04h54.32.861,classification_task,2021.2.3,Win32,59.54862145,627c6715c52fd12f31907bd0,,,,,,,,,,,,,,,,,,,,,,,,,,,,,,,,,,,,,,,0, ,,0,9.788084215,159.6637,0,2,2,2,1,2,3,,,,,,,,,,,,,,,,,,
,6123ac0a8aeae4eadc828781,627c76cd65bc5538045da41c,2022-05-12_04h54.32.861,classification_task,2021.2.3,Win32,59.54862145,627c6715c52fd12f31907bd0,,,,,,,,,,,,,,,,,,,,,,,,,,,,,,,,,,,,,,,1,  ,,0,9.374724427,164.3797,0,2,2,2,1,2,3,,,,,,,,,,,,,,,,,,
,6123ac0a8aeae4eadc828781,627c76cd65bc5538045da41c,2022-05-12_04h54.32.861,classification_task,2021.2.3,Win32,59.54862145,627c6715c52fd12f31907bd0,,,,,,,,,,,,,,,,,,,,,,,,,,,,,,,,,,,,,,,2,  ,,0,0.03968254,166.7988,0,2,2,2,1,2,3,,,,,,,,,,,,,,,,,,
,6123ac0a8aeae4eadc828781,627c76cd65bc5538045da41c,2022-05-12_04h54.32.861,classification_task,2021.2.3,Win32,59.54862145,627c6715c52fd12f31907bd0,,,,,,,,,,,,,,,,,,,,,,,,,,,,,,,,,,,,,,,,,,,,,0,2,2,2,1,,3,,,,,,,,,,,,,,,,,,
,6123ac0a8aeae4eadc828781,627c76cd65bc5538045da41c,2022-05-12_04h54.32.861,classification_task,2021.2.3,Win32,59.54862145,627c6715c52fd12f31907bd0,,,,,,,,,,,,,,,,,,,,,,,,,,,,,,,,,,,,,,,,,,,,,,,,,,,,,I believe the aid is a competent performer,,0.7,0,3,1014.636,0,0,0,0,1,0,,,,,
,6123ac0a8aeae4eadc828781,627c76cd65bc5538045da41c,2022-05-12_04h54.32.861,classification_task,2021.2.3,Win32,59.54862145,627c6715c52fd12f31907bd0,,,,,,,,,,,,,,,,,,,,,,,,,,,,,,,,,,,,,,,,,,,,,,,,,,,,,I trust the aid,,0.7,0,3,1016.6336,0,0,0,0,1,0,,,,,
,6123ac0a8aeae4eadc828781,627c76cd65bc5538045da41c,2022-05-12_04h54.32.861,classification_task,2021.2.3,Win32,59.54862145,627c6715c52fd12f31907bd0,,,,,,,,,,,,,,,,,,,,,,,,,,,,,,,,,,,,,,,,,,,,,,,,,,,,,I have confidence in the advice given by the aid,,0.7,0,4,1020.3786,0,0,0,0,1,0,,,,,
,6123ac0a8aeae4eadc828781,627c76cd65bc5538045da41c,2022-05-12_04h54.32.861,classification_task,2021.2.3,Win32,59.54862145,627c6715c52fd12f31907bd0,,,,,,,,,,,,,,,,,,,,,,,,,,,,,,,,,,,,,,,,,,,,,,,,,,,,,I can depend on the aid,,0.7,0,3,1023.5267,0,0,0,0,1,0,,,,,
,6123ac0a8aeae4eadc828781,627c76cd65bc5538045da41c,2022-05-12_04h54.32.861,classification_task,2021.2.3,Win32,59.54862145,627c6715c52fd12f31907bd0,,,,,,,,,,,,,,,,,,,,,,,,,,,,,,,,,,,,,,,,,,,,,,,,,,,,,I can rely on the aid to behave in consistent ways,,0.7,0,5,1027.6987,0,0,0,0,1,0,,,,,
,6123ac0a8aeae4eadc828781,627c76cd65bc5538045da41c,2022-05-12_04h54.32.861,classification_task,2021.2.3,Win32,59.54862145,627c6715c52fd12f31907bd0,,,,,,,,,,,,,,,,,,,,,,,,,,,,,,,,,,,,,,,,,,,,,,,,,,,,,I can rely on the aid to do its best every time I take its advice,,0.7,0,3,1036.2997,0,0,0,0,1,0,,,,,
,6123ac0a8aeae4eadc828781,627c76cd65bc5538045da41c,2022-05-12_04h54.32.861,classification_task,2021.2.3,Win32,59.54862145,627c6715c52fd12f31907bd0,,,,,,,,,,,,,,,,,,,,,,,,,,,,,,,,,,,,,,,,,,,,,,,,,,,,,"On trials you completed with assistance from the aid, how frequently did you think the aid was correct?",,0.7,0,56,,0,0,0,0,1,0,,,,,
,6123ac0a8aeae4eadc828781,627c76cd65bc5538045da41c,2022-05-12_04h54.32.861,classification_task,2021.2.3,Win32,59.54862145,627c6715c52fd12f31907bd0,,,,,,,,,,,,,,,,,,,,,,,,,,,,,,,,,,,,,,,,,,,,,,,,,,,,,"On trials you completed without the aid, how frequently did you think you were correct?",,0.7,0,29,,0,0,0,0,1,0,,,,,
,6123ac0a8aeae4eadc828781,627c76cd65bc5538045da41c,2022-05-12_04h54.32.861,classification_task,2021.2.3,Win32,59.54862145,627c6715c52fd12f31907bd0,,,,,,,,,,,,,,,,,,,,,,,,,,,,,,,,,,,,,,,,,,,,,,,,,,,,,,,,,,,0,0,0,0,1,,,,,,
,6123ac0a8aeae4eadc828781,627c76cd65bc5538045da41c,2022-05-12_04h54.32.861,classification_task,2021.2.3,Win32,59.54862145,627c6715c52fd12f31907bd0,,,,,,,,,,,,,,,,,,,,,,,,,,,,,,,,,,,,,,,,,,,,,,,,,,,,,,,,,,,,,,,,,space,19.5218,1085.4594,,
,6123ac0a8aeae4eadc828781,627c76cd65bc5538045da41c,2022-05-12_04h54.32.861,classification_task,2021.2.3,Win32,59.54862145,627c6715c52fd12f31907bd0,,,,,,,,,,,,,,,,,,,,,,,,,,,,,,,,,,,,,,,,,,,,,,,,,,,,,,,,,,,,,,,,,,,,"Mozilla/5.0 (Windows NT 10.0; Win64; x64) AppleWebKit/537.36 (KHTML, like Gecko) Chrome/101.0.4951.54 Safari/537.36",
,6123ac0a8aeae4eadc828781,627c76cd65bc5538045da41c,2022-05-12_04h54.32.861,classification_task,2021.2.3,Win32,59.54862145,627c6715c52fd12f31907bd0,,,,,,,,,,,,,,,,,,,,,,,,,,,,,,,,,,,,,,,,,,,,,,,,,,,,,,,,,,,,,,,,,,,,,HIGHLIGHT
