usingWebGL,participant,session,date,expName,psychopyVersion,OS,frameRate,PROLIFIC_PID,STUDY_ID,SESSION_ID,signatures_friend,signatures_foe,band_ranges_top,band_ranges_bottom,formitemText,formtype,formundefined,formitemWidth,formindex,formresponse,formrt,key_resp_2.keys,key_resp_2.rt,tute_resp.keys,tute_resp.rt,tutorial.thisRepN,tutorial.thisTrialN,tutorial.thisN,tutorial.thisIndex,tutorial.ran,key_resp_4.keys,key_resp_4.rt,key_resp.keys,key_resp.corr,key_resp.rt,lines_presented,is_signal_presented,trials.thisRepN,trials.thisTrialN,trials.thisN,trials.thisIndex,trials.ran,vessel,active_band,lines,is_signal,supported_pos,catch_trial,debrief_formindex,debrief_formitemText,debrief_formtype,debrief_formitemWidth,debrief_formresponse,debrief_formrt,phases.thisRepN,phases.thisTrialN,phases.thisN,phases.thisIndex,phases.ran,phases.order,phase,key_resp_3.keys,trustitemText,trusttype,trustitemWidth,trustindex,trustresponse,trustrt,support_status.thisRepN,support_status.thisTrialN,support_status.thisN,support_status.thisIndex,support_status.ran,support_status.order,key_resp_5.keys,key_resp_5.rt,globalClockTime,userAgent
TRUE,6127ac6a1e736c1c5c65cd86,001,2022-04-29_03h10.33.198,classification_task,2021.2.3,Win32,59.13310863,6127ac6a1e736c1c5c65cd86,626b377229c10585ec392f8a,626b3ae8275347288cedf7de,,,,,,,,,,,,,,,,,,,,,,,,,,,,,,,,,,,,,,,,,,,,,,,,,,,,,,,,,,,,,,,,,,,,
,6127ac6a1e736c1c5c65cd86,001,2022-04-29_03h10.33.198,classification_task,2021.2.3,Win32,59.13310863,6127ac6a1e736c1c5c65cd86,626b377229c10585ec392f8a,626b3ae8275347288cedf7de,"[[""0.324"",""0.533"",""0.608"",""0.952""],[""0.290"",""0.373"",""0.770"",""0.907""]]","[[""0.124"",""0.233"",""0.482"",""0.688""],[""0.048"",""0.170"",""0.447"",""0.726""]]","[1,10]","[100,1000]",Video game experience,,,0.7,0,,,,,,,,,,,,,,,,,,,,,,,,,,,,,,,,,,,,,,,,,,,,,,,,,,,,,,,,,,,
,6127ac6a1e736c1c5c65cd86,001,2022-04-29_03h10.33.198,classification_task,2021.2.3,Win32,59.13310863,6127ac6a1e736c1c5c65cd86,626b377229c10585ec392f8a,626b3ae8275347288cedf7de,,,,,Approximately how many hours did you spend playing video games in the last week?,,,0.7,0,1,,,,,,,,,,,,,,,,,,,,,,,,,,,,,,,,,,,,,,,,,,,,,,,,,,,,,,,,,,
,6127ac6a1e736c1c5c65cd86,001,2022-04-29_03h10.33.198,classification_task,2021.2.3,Win32,59.13310863,6127ac6a1e736c1c5c65cd86,626b377229c10585ec392f8a,626b3ae8275347288cedf7de,,,,,"Which game did you play the most this year? (Enter ""None"" if you didn't play any)",,,0.7,0,STREET FIGHTER,,,,,,,,,,,,,,,,,,,,,,,,,,,,,,,,,,,,,,,,,,,,,,,,,,,,,,,,,,
,6127ac6a1e736c1c5c65cd86,001,2022-04-29_03h10.33.198,classification_task,2021.2.3,Win32,59.13310863,6127ac6a1e736c1c5c65cd86,626b377229c10585ec392f8a,626b3ae8275347288cedf7de,,,,,Visual perception,,,0.7,0,,,,,,,,,,,,,,,,,,,,,,,,,,,,,,,,,,,,,,,,,,,,,,,,,,,,,,,,,,,
,6127ac6a1e736c1c5c65cd86,001,2022-04-29_03h10.33.198,classification_task,2021.2.3,Win32,59.13310863,6127ac6a1e736c1c5c65cd86,626b377229c10585ec392f8a,626b3ae8275347288cedf7de,,,,,Do you have any form of color blindness?,,,0.7,0,No,27.15,,,,,,,,,,,,,,,,,,,,,,,,,,,,,,,,,,,,,,,,,,,,,,,,,,,,,,,,,
,6127ac6a1e736c1c5c65cd86,001,2022-04-29_03h10.33.198,classification_task,2021.2.3,Win32,59.13310863,6127ac6a1e736c1c5c65cd86,626b377229c10585ec392f8a,626b3ae8275347288cedf7de,,,,,Do you use software to change the colour temperature of your screen (e.g. f.lux)?,,,0.7,0,No,30.4974,,,,,,,,,,,,,,,,,,,,,,,,,,,,,,,,,,,,,,,,,,,,,,,,,,,,,,,,,
,6127ac6a1e736c1c5c65cd86,001,2022-04-29_03h10.33.198,classification_task,2021.2.3,Win32,59.13310863,6127ac6a1e736c1c5c65cd86,626b377229c10585ec392f8a,626b3ae8275347288cedf7de,,,,,,,,,,,,space,32.488,space,6.2112,0,0,0,0,1,,,,,,,,,,,,,,,,,,,,,,,,,,,,,,,,,,,,,,,,,,,,,,,,
,6127ac6a1e736c1c5c65cd86,001,2022-04-29_03h10.33.198,classification_task,2021.2.3,Win32,59.13310863,6127ac6a1e736c1c5c65cd86,626b377229c10585ec392f8a,626b3ae8275347288cedf7de,,,,,,,,,,,,,,space,8.3733,1,0,1,0,1,,,,,,,,,,,,,,,,,,,,,,,,,,,,,,,,,,,,,,,,,,,,,,,,
,6127ac6a1e736c1c5c65cd86,001,2022-04-29_03h10.33.198,classification_task,2021.2.3,Win32,59.13310863,6127ac6a1e736c1c5c65cd86,626b377229c10585ec392f8a,626b3ae8275347288cedf7de,,,,,,,,,,,,,,space,13.8145,2,0,2,0,1,,,,,,,,,,,,,,,,,,,,,,,,,,,,,,,,,,,,,,,,,,,,,,,,
,6127ac6a1e736c1c5c65cd86,001,2022-04-29_03h10.33.198,classification_task,2021.2.3,Win32,59.13310863,6127ac6a1e736c1c5c65cd86,626b377229c10585ec392f8a,626b3ae8275347288cedf7de,,,,,,,,,,,,,,space,14.9387,3,0,3,0,1,,,,,,,,,,,,,,,,,,,,,,,,,,,,,,,,,,,,,,,,,,,,,,,,
,6127ac6a1e736c1c5c65cd86,001,2022-04-29_03h10.33.198,classification_task,2021.2.3,Win32,59.13310863,6127ac6a1e736c1c5c65cd86,626b377229c10585ec392f8a,626b3ae8275347288cedf7de,,,,,,,,,,,,,,space,10.8131,4,0,4,0,1,,,,,,,,,,,,,,,,,,,,,,,,,,,,,,,,,,,,,,,,,,,,,,,,
,6127ac6a1e736c1c5c65cd86,001,2022-04-29_03h10.33.198,classification_task,2021.2.3,Win32,59.13310863,6127ac6a1e736c1c5c65cd86,626b377229c10585ec392f8a,626b3ae8275347288cedf7de,,,,,,,,,,,,,,,,,,,,,space,13.3284,a,0,3.7338,"[""0.048"",""0.170"",""0.447"",""0.825""]","[1,1,1,0]",0,0,0,0,1,1,1,,,0,FALSE,,,,,,,,,,,,,,,,,,,,,,,,,,,,,,
,6127ac6a1e736c1c5c65cd86,001,2022-04-29_03h10.33.198,classification_task,2021.2.3,Win32,59.13310863,6127ac6a1e736c1c5c65cd86,626b377229c10585ec392f8a,626b3ae8275347288cedf7de,,,,,,,,,,,,,,,,,,,,,,,a,1,1.2799,"[""0.324"",""0.570"",""0.608"",""0.952""]","[1,0,1,1]",0,1,1,1,1,0,0,,,0,FALSE,,,,,,,,,,,,,,,,,,,,,,,,,,,,,,
,6127ac6a1e736c1c5c65cd86,001,2022-04-29_03h10.33.198,classification_task,2021.2.3,Win32,59.13310863,6127ac6a1e736c1c5c65cd86,626b377229c10585ec392f8a,626b3ae8275347288cedf7de,,,,,,,,,,,,,,,,,,,,,,,a,0,1.9246,"[""0.124"",""0.824"",""0.482"",""0.688""]","[1,0,1,1]",0,2,2,2,1,1,0,,,0,FALSE,,,,,,,,,,,,,,,,,,,,,,,,,,,,,,
,6127ac6a1e736c1c5c65cd86,001,2022-04-29_03h10.33.198,classification_task,2021.2.3,Win32,59.13310863,6127ac6a1e736c1c5c65cd86,626b377229c10585ec392f8a,626b3ae8275347288cedf7de,,,,,,,,,,,,,,,,,,,,,,,l,1,1.1091,"[""0.124"",""0.233"",""0.482"",""0.825""]","[1,1,1,0]",0,3,3,3,1,1,0,,,0,FALSE,,,,,,,,,,,,,,,,,,,,,,,,,,,,,,
,6127ac6a1e736c1c5c65cd86,001,2022-04-29_03h10.33.198,classification_task,2021.2.3,Win32,59.13310863,6127ac6a1e736c1c5c65cd86,626b377229c10585ec392f8a,626b3ae8275347288cedf7de,,,,,,,,,,,,,,,,,,,,,,,l,1,2.0574,"[""0.124"",""0.233"",""0.570"",""0.688""]","[1,1,0,1]",0,4,4,4,1,1,0,,,0,FALSE,,,,,,,,,,,,,,,,,,,,,,,,,,,,,,
,6127ac6a1e736c1c5c65cd86,001,2022-04-29_03h10.33.198,classification_task,2021.2.3,Win32,59.13310863,6127ac6a1e736c1c5c65cd86,626b377229c10585ec392f8a,626b3ae8275347288cedf7de,,,,,,,,,,,,,,,,,,,,,,,a,0,2.2905,"[""0.084"",""0.233"",""0.482"",""0.688""]","[0,1,1,1]",0,5,5,5,1,1,0,,,0,FALSE,,,,,,,,,,,,,,,,,,,,,,,,,,,,,,
,6127ac6a1e736c1c5c65cd86,001,2022-04-29_03h10.33.198,classification_task,2021.2.3,Win32,59.13310863,6127ac6a1e736c1c5c65cd86,626b377229c10585ec392f8a,626b3ae8275347288cedf7de,,,,,,,,,,,,,,,,,,,,,,,l,0,0.6374,"[""0.817"",""0.373"",""0.770"",""0.907""]","[0,1,1,1]",0,6,6,6,1,0,1,,,0,FALSE,,,,,,,,,,,,,,,,,,,,,,,,,,,,,,
,6127ac6a1e736c1c5c65cd86,001,2022-04-29_03h10.33.198,classification_task,2021.2.3,Win32,59.13310863,6127ac6a1e736c1c5c65cd86,626b377229c10585ec392f8a,626b3ae8275347288cedf7de,,,,,,,,,,,,,,,,,,,,,,,a,1,1.0284,"[""0.290"",""0.373"",""0.770"",""0.570""]","[1,1,1,0]",0,7,7,7,1,0,1,,,0,FALSE,,,,,,,,,,,,,,,,,,,,,,,,,,,,,,
,6127ac6a1e736c1c5c65cd86,001,2022-04-29_03h10.33.198,classification_task,2021.2.3,Win32,59.13310863,6127ac6a1e736c1c5c65cd86,626b377229c10585ec392f8a,626b3ae8275347288cedf7de,,,,,,,,,,,,,,,,,,,,,,,a,0,0.6871,"[""0.570"",""0.170"",""0.447"",""0.726""]","[0,1,1,1]",0,8,8,8,1,1,1,,,0,FALSE,,,,,,,,,,,,,,,,,,,,,,,,,,,,,,
,6127ac6a1e736c1c5c65cd86,001,2022-04-29_03h10.33.198,classification_task,2021.2.3,Win32,59.13310863,6127ac6a1e736c1c5c65cd86,626b377229c10585ec392f8a,626b3ae8275347288cedf7de,,,,,,,,,,,,,,,,,,,,,,,l,0,1.9462,"[""0.324"",""0.533"",""0.608"",""0.867""]","[1,1,1,0]",0,9,9,9,1,0,0,,,0,FALSE,,,,,,,,,,,,,,,,,,,,,,,,,,,,,,
,6127ac6a1e736c1c5c65cd86,001,2022-04-29_03h10.33.198,classification_task,2021.2.3,Win32,59.13310863,6127ac6a1e736c1c5c65cd86,626b377229c10585ec392f8a,626b3ae8275347288cedf7de,,,,,,,,,,,,,,,,,,,,,,,a,1,1.052,"[""0.324"",""0.533"",""0.649"",""0.952""]","[1,1,0,1]",0,10,10,10,1,0,0,,,0,FALSE,,,,,,,,,,,,,,,,,,,,,,,,,,,,,,
,6127ac6a1e736c1c5c65cd86,001,2022-04-29_03h10.33.198,classification_task,2021.2.3,Win32,59.13310863,6127ac6a1e736c1c5c65cd86,626b377229c10585ec392f8a,626b3ae8275347288cedf7de,,,,,,,,,,,,,,,,,,,,,,,l,1,5.9276,"[""0.048"",""0.170"",""0.654"",""0.726""]","[1,1,0,1]",0,11,11,11,1,1,1,,,0,FALSE,,,,,,,,,,,,,,,,,,,,,,,,,,,,,,
,6127ac6a1e736c1c5c65cd86,001,2022-04-29_03h10.33.198,classification_task,2021.2.3,Win32,59.13310863,6127ac6a1e736c1c5c65cd86,626b377229c10585ec392f8a,626b3ae8275347288cedf7de,,,,,,,,,,,,,,,,,,,,,,,a,1,5.2053,"[""0.290"",""0.814"",""0.770"",""0.907""]","[1,0,1,1]",0,12,12,12,1,0,1,,,0,FALSE,,,,,,,,,,,,,,,,,,,,,,,,,,,,,,
,6127ac6a1e736c1c5c65cd86,001,2022-04-29_03h10.33.198,classification_task,2021.2.3,Win32,59.13310863,6127ac6a1e736c1c5c65cd86,626b377229c10585ec392f8a,626b3ae8275347288cedf7de,,,,,,,,,,,,,,,,,,,,,,,a,1,4.94,"[""0.290"",""0.373"",""0.847"",""0.907""]","[1,1,0,1]",0,13,13,13,1,0,1,,,0,FALSE,,,,,,,,,,,,,,,,,,,,,,,,,,,,,,
,6127ac6a1e736c1c5c65cd86,001,2022-04-29_03h10.33.198,classification_task,2021.2.3,Win32,59.13310863,6127ac6a1e736c1c5c65cd86,626b377229c10585ec392f8a,626b3ae8275347288cedf7de,,,,,,,,,,,,,,,,,,,,,,,l,1,4.584,"[""0.048"",""0.817"",""0.447"",""0.726""]","[1,0,1,1]",0,14,14,14,1,1,1,,,0,FALSE,,,,,,,,,,,,,,,,,,,,,,,,,,,,,,
,6127ac6a1e736c1c5c65cd86,001,2022-04-29_03h10.33.198,classification_task,2021.2.3,Win32,59.13310863,6127ac6a1e736c1c5c65cd86,626b377229c10585ec392f8a,626b3ae8275347288cedf7de,,,,,,,,,,,,,,,,,,,,,,,a,1,6.8827,"[""0.864"",""0.533"",""0.608"",""0.952""]","[0,1,1,1]",0,15,15,15,1,0,0,,,0,FALSE,,,,,,,,,,,,,,,,,,,,,,,,,,,,,,
,6127ac6a1e736c1c5c65cd86,001,2022-04-29_03h10.33.198,classification_task,2021.2.3,Win32,59.13310863,6127ac6a1e736c1c5c65cd86,626b377229c10585ec392f8a,626b3ae8275347288cedf7de,,,,,,,,,,,,,,,,,,,,,,,l,1,6.4036,"[""0.814"",""0.170"",""0.447"",""0.726""]","[0,1,1,1]",0,16,16,16,1,1,1,,,0,FALSE,,,,,,,,,,,,,,,,,,,,,,,,,,,,,,
,6127ac6a1e736c1c5c65cd86,001,2022-04-29_03h10.33.198,classification_task,2021.2.3,Win32,59.13310863,6127ac6a1e736c1c5c65cd86,626b377229c10585ec392f8a,626b3ae8275347288cedf7de,,,,,,,,,,,,,,,,,,,,,,,,0,,"[""0.413"",""0.233"",""0.482"",""0.688""]","[0,1,1,1]",0,17,17,17,1,1,0,,,0,FALSE,,,,,,,,,,,,,,,,,,,,,,,,,,,,,,
,6127ac6a1e736c1c5c65cd86,001,2022-04-29_03h10.33.198,classification_task,2021.2.3,Win32,59.13310863,6127ac6a1e736c1c5c65cd86,626b377229c10585ec392f8a,626b3ae8275347288cedf7de,,,,,,,,,,,,,,,,,,,,,,,a,1,2.2992,"[""0.324"",""0.654"",""0.608"",""0.952""]","[1,0,1,1]",0,18,18,18,1,0,0,,,0,FALSE,,,,,,,,,,,,,,,,,,,,,,,,,,,,,,
,6127ac6a1e736c1c5c65cd86,001,2022-04-29_03h10.33.198,classification_task,2021.2.3,Win32,59.13310863,6127ac6a1e736c1c5c65cd86,626b377229c10585ec392f8a,626b3ae8275347288cedf7de,,,,,,,,,,,,,,,,,,,,,,,l,1,2.362,"[""0.048"",""0.170"",""0.447"",""0.817""]","[1,1,1,0]",0,19,19,19,1,1,1,,,0,FALSE,,,,,,,,,,,,,,,,,,,,,,,,,,,,,,
,6127ac6a1e736c1c5c65cd86,001,2022-04-29_03h10.33.198,classification_task,2021.2.3,Win32,59.13310863,6127ac6a1e736c1c5c65cd86,626b377229c10585ec392f8a,626b3ae8275347288cedf7de,,,,,,,,,,,,,,,,,,,,,,,l,0,2.8633,"[""0.324"",""0.533"",""0.084"",""0.952""]","[1,1,0,1]",0,20,20,20,1,0,0,,,0,FALSE,,,,,,,,,,,,,,,,,,,,,,,,,,,,,,
,6127ac6a1e736c1c5c65cd86,001,2022-04-29_03h10.33.198,classification_task,2021.2.3,Win32,59.13310863,6127ac6a1e736c1c5c65cd86,626b377229c10585ec392f8a,626b3ae8275347288cedf7de,,,,,,,,,,,,,,,,,,,,,,,l,1,3.689,"[""0.124"",""0.233"",""0.482"",""0.864""]","[1,1,1,0]",0,21,21,21,1,1,0,,,0,FALSE,,,,,,,,,,,,,,,,,,,,,,,,,,,,,,
,6127ac6a1e736c1c5c65cd86,001,2022-04-29_03h10.33.198,classification_task,2021.2.3,Win32,59.13310863,6127ac6a1e736c1c5c65cd86,626b377229c10585ec392f8a,626b3ae8275347288cedf7de,,,,,,,,,,,,,,,,,,,,,,,l,1,3.3209,"[""0.124"",""0.233"",""0.089"",""0.688""]","[1,1,0,1]",0,22,22,22,1,1,0,,,0,FALSE,,,,,,,,,,,,,,,,,,,,,,,,,,,,,,
,6127ac6a1e736c1c5c65cd86,001,2022-04-29_03h10.33.198,classification_task,2021.2.3,Win32,59.13310863,6127ac6a1e736c1c5c65cd86,626b377229c10585ec392f8a,626b3ae8275347288cedf7de,,,,,,,,,,,,,,,,,,,,,,,a,1,1.441,"[""0.324"",""0.533"",""0.608"",""0.867""]","[1,1,1,0]",0,23,23,23,1,0,0,,,0,FALSE,,,,,,,,,,,,,,,,,,,,,,,,,,,,,,
,6127ac6a1e736c1c5c65cd86,001,2022-04-29_03h10.33.198,classification_task,2021.2.3,Win32,59.13310863,6127ac6a1e736c1c5c65cd86,626b377229c10585ec392f8a,626b3ae8275347288cedf7de,,,,,,,,,,,,,,,,,,,,,,,a,1,5.7063,"[""0.814"",""0.373"",""0.770"",""0.907""]","[0,1,1,1]",0,24,24,24,1,0,1,,,0,FALSE,,,,,,,,,,,,,,,,,,,,,,,,,,,,,,
,6127ac6a1e736c1c5c65cd86,001,2022-04-29_03h10.33.198,classification_task,2021.2.3,Win32,59.13310863,6127ac6a1e736c1c5c65cd86,626b377229c10585ec392f8a,626b3ae8275347288cedf7de,,,,,,,,,,,,,,,,,,,,,,,a,1,2.268,"[""0.290"",""0.373"",""0.649"",""0.907""]","[1,1,0,1]",0,25,25,25,1,0,1,,,0,FALSE,,,,,,,,,,,,,,,,,,,,,,,,,,,,,,
,6127ac6a1e736c1c5c65cd86,001,2022-04-29_03h10.33.198,classification_task,2021.2.3,Win32,59.13310863,6127ac6a1e736c1c5c65cd86,626b377229c10585ec392f8a,626b3ae8275347288cedf7de,,,,,,,,,,,,,,,,,,,,,,,a,1,4.9334,"[""0.864"",""0.533"",""0.608"",""0.952""]","[0,1,1,1]",0,26,26,26,1,0,0,,,0,FALSE,,,,,,,,,,,,,,,,,,,,,,,,,,,,,,
,6127ac6a1e736c1c5c65cd86,001,2022-04-29_03h10.33.198,classification_task,2021.2.3,Win32,59.13310863,6127ac6a1e736c1c5c65cd86,626b377229c10585ec392f8a,626b3ae8275347288cedf7de,,,,,,,,,,,,,,,,,,,,,,,l,1,3.6658,"[""0.048"",""0.170"",""0.824"",""0.726""]","[1,1,0,1]",0,27,27,27,1,1,1,,,0,FALSE,,,,,,,,,,,,,,,,,,,,,,,,,,,,,,
,6127ac6a1e736c1c5c65cd86,001,2022-04-29_03h10.33.198,classification_task,2021.2.3,Win32,59.13310863,6127ac6a1e736c1c5c65cd86,626b377229c10585ec392f8a,626b3ae8275347288cedf7de,,,,,,,,,,,,,,,,,,,,,,,l,1,4.1334,"[""0.124"",""0.649"",""0.482"",""0.688""]","[1,0,1,1]",0,28,28,28,1,1,0,,,0,FALSE,,,,,,,,,,,,,,,,,,,,,,,,,,,,,,
,6127ac6a1e736c1c5c65cd86,001,2022-04-29_03h10.33.198,classification_task,2021.2.3,Win32,59.13310863,6127ac6a1e736c1c5c65cd86,626b377229c10585ec392f8a,626b3ae8275347288cedf7de,,,,,,,,,,,,,,,,,,,,,,,a,1,3.5109,"[""0.290"",""0.373"",""0.770"",""0.570""]","[1,1,1,0]",0,29,29,29,1,0,1,,,0,FALSE,,,,,,,,,,,,,,,,,,,,,,,,,,,,,,
,6127ac6a1e736c1c5c65cd86,001,2022-04-29_03h10.33.198,classification_task,2021.2.3,Win32,59.13310863,6127ac6a1e736c1c5c65cd86,626b377229c10585ec392f8a,626b3ae8275347288cedf7de,,,,,,,,,,,,,,,,,,,,,,,a,1,5.8126,"[""0.290"",""0.413"",""0.770"",""0.907""]","[1,0,1,1]",0,30,30,30,1,0,1,,,0,FALSE,,,,,,,,,,,,,,,,,,,,,,,,,,,,,,
,6127ac6a1e736c1c5c65cd86,001,2022-04-29_03h10.33.198,classification_task,2021.2.3,Win32,59.13310863,6127ac6a1e736c1c5c65cd86,626b377229c10585ec392f8a,626b3ae8275347288cedf7de,,,,,,,,,,,,,,,,,,,,,,,l,1,1.8821,"[""0.048"",""0.814"",""0.447"",""0.726""]","[1,0,1,1]",0,31,31,31,1,1,1,,,0,FALSE,,,,,,,,,,,,,,,,,,,,,,,,,,,,,,
,6127ac6a1e736c1c5c65cd86,001,2022-04-29_03h10.33.198,classification_task,2021.2.3,Win32,59.13310863,6127ac6a1e736c1c5c65cd86,626b377229c10585ec392f8a,626b3ae8275347288cedf7de,,,,,,,,,,,,,,,,,,,,,,,a,1,3.7251,"[""0.824"",""0.533"",""0.608"",""0.952""]","[0,1,1,1]",0,32,32,32,1,0,0,,,0,FALSE,,,,,,,,,,,,,,,,,,,,,,,,,,,,,,
,6127ac6a1e736c1c5c65cd86,001,2022-04-29_03h10.33.198,classification_task,2021.2.3,Win32,59.13310863,6127ac6a1e736c1c5c65cd86,626b377229c10585ec392f8a,626b3ae8275347288cedf7de,,,,,,,,,,,,,,,,,,,,,,,l,0,2.5128,"[""0.324"",""0.533"",""0.825"",""0.952""]","[1,1,0,1]",0,33,33,33,1,0,0,,,0,FALSE,,,,,,,,,,,,,,,,,,,,,,,,,,,,,,
,6127ac6a1e736c1c5c65cd86,001,2022-04-29_03h10.33.198,classification_task,2021.2.3,Win32,59.13310863,6127ac6a1e736c1c5c65cd86,626b377229c10585ec392f8a,626b3ae8275347288cedf7de,,,,,,,,,,,,,,,,,,,,,,,l,1,1.907,"[""0.048"",""0.847"",""0.447"",""0.726""]","[1,0,1,1]",0,34,34,34,1,1,1,,,0,FALSE,,,,,,,,,,,,,,,,,,,,,,,,,,,,,,
,6127ac6a1e736c1c5c65cd86,001,2022-04-29_03h10.33.198,classification_task,2021.2.3,Win32,59.13310863,6127ac6a1e736c1c5c65cd86,626b377229c10585ec392f8a,626b3ae8275347288cedf7de,,,,,,,,,,,,,,,,,,,,,,,a,1,2.2294,"[""0.814"",""0.373"",""0.770"",""0.907""]","[0,1,1,1]",0,35,35,35,1,0,1,,,0,FALSE,,,,,,,,,,,,,,,,,,,,,,,,,,,,,,
,6127ac6a1e736c1c5c65cd86,001,2022-04-29_03h10.33.198,classification_task,2021.2.3,Win32,59.13310863,6127ac6a1e736c1c5c65cd86,626b377229c10585ec392f8a,626b3ae8275347288cedf7de,,,,,,,,,,,,,,,,,,,,,,,a,0,2.1045,"[""0.867"",""0.170"",""0.447"",""0.726""]","[0,1,1,1]",0,36,36,36,1,1,1,,,0,FALSE,,,,,,,,,,,,,,,,,,,,,,,,,,,,,,
,6127ac6a1e736c1c5c65cd86,001,2022-04-29_03h10.33.198,classification_task,2021.2.3,Win32,59.13310863,6127ac6a1e736c1c5c65cd86,626b377229c10585ec392f8a,626b3ae8275347288cedf7de,,,,,,,,,,,,,,,,,,,,,,,l,1,1.0461,"[""0.124"",""0.233"",""0.482"",""0.413""]","[1,1,1,0]",0,37,37,37,1,1,0,,,0,FALSE,,,,,,,,,,,,,,,,,,,,,,,,,,,,,,
,6127ac6a1e736c1c5c65cd86,001,2022-04-29_03h10.33.198,classification_task,2021.2.3,Win32,59.13310863,6127ac6a1e736c1c5c65cd86,626b377229c10585ec392f8a,626b3ae8275347288cedf7de,,,,,,,,,,,,,,,,,,,,,,,a,0,2.5351,"[""0.124"",""0.084"",""0.482"",""0.688""]","[1,0,1,1]",0,38,38,38,1,1,0,,,0,FALSE,,,,,,,,,,,,,,,,,,,,,,,,,,,,,,
,6127ac6a1e736c1c5c65cd86,001,2022-04-29_03h10.33.198,classification_task,2021.2.3,Win32,59.13310863,6127ac6a1e736c1c5c65cd86,626b377229c10585ec392f8a,626b3ae8275347288cedf7de,,,,,,,,,,,,,,,,,,,,,,,a,1,1.9523,"[""0.324"",""0.833"",""0.608"",""0.952""]","[1,0,1,1]",0,39,39,39,1,0,0,,,0,FALSE,,,,,,,,,,,,,,,,,,,,,,,,,,,,,,
,6127ac6a1e736c1c5c65cd86,001,2022-04-29_03h10.33.198,classification_task,2021.2.3,Win32,59.13310863,6127ac6a1e736c1c5c65cd86,626b377229c10585ec392f8a,626b3ae8275347288cedf7de,,,,,,,,,,,,,,,,,,,,,,,a,1,1.5645,"[""0.324"",""0.533"",""0.608"",""0.824""]","[1,1,1,0]",0,40,40,40,1,0,0,,,0,FALSE,,,,,,,,,,,,,,,,,,,,,,,,,,,,,,
,6127ac6a1e736c1c5c65cd86,001,2022-04-29_03h10.33.198,classification_task,2021.2.3,Win32,59.13310863,6127ac6a1e736c1c5c65cd86,626b377229c10585ec392f8a,626b3ae8275347288cedf7de,,,,,,,,,,,,,,,,,,,,,,,a,1,2.0667,"[""0.290"",""0.373"",""0.770"",""0.864""]","[1,1,1,0]",0,41,41,41,1,0,1,,,0,FALSE,,,,,,,,,,,,,,,,,,,,,,,,,,,,,,
,6127ac6a1e736c1c5c65cd86,001,2022-04-29_03h10.33.198,classification_task,2021.2.3,Win32,59.13310863,6127ac6a1e736c1c5c65cd86,626b377229c10585ec392f8a,626b3ae8275347288cedf7de,,,,,,,,,,,,,,,,,,,,,,,l,1,1.7433,"[""0.124"",""0.233"",""0.089"",""0.688""]","[1,1,0,1]",0,42,42,42,1,1,0,,,0,FALSE,,,,,,,,,,,,,,,,,,,,,,,,,,,,,,
,6127ac6a1e736c1c5c65cd86,001,2022-04-29_03h10.33.198,classification_task,2021.2.3,Win32,59.13310863,6127ac6a1e736c1c5c65cd86,626b377229c10585ec392f8a,626b3ae8275347288cedf7de,,,,,,,,,,,,,,,,,,,,,,,a,1,3.6777,"[""0.290"",""0.570"",""0.770"",""0.907""]","[1,0,1,1]",0,43,43,43,1,0,1,,,0,FALSE,,,,,,,,,,,,,,,,,,,,,,,,,,,,,,
,6127ac6a1e736c1c5c65cd86,001,2022-04-29_03h10.33.198,classification_task,2021.2.3,Win32,59.13310863,6127ac6a1e736c1c5c65cd86,626b377229c10585ec392f8a,626b3ae8275347288cedf7de,,,,,,,,,,,,,,,,,,,,,,,a,1,2.1729,"[""0.290"",""0.373"",""0.814"",""0.907""]","[1,1,0,1]",0,44,44,44,1,0,1,,,0,FALSE,,,,,,,,,,,,,,,,,,,,,,,,,,,,,,
,6127ac6a1e736c1c5c65cd86,001,2022-04-29_03h10.33.198,classification_task,2021.2.3,Win32,59.13310863,6127ac6a1e736c1c5c65cd86,626b377229c10585ec392f8a,626b3ae8275347288cedf7de,,,,,,,,,,,,,,,,,,,,,,,a,0,2.8069,"[""0.847"",""0.233"",""0.482"",""0.688""]","[0,1,1,1]",0,45,45,45,1,1,0,,,0,FALSE,,,,,,,,,,,,,,,,,,,,,,,,,,,,,,
,6127ac6a1e736c1c5c65cd86,001,2022-04-29_03h10.33.198,classification_task,2021.2.3,Win32,59.13310863,6127ac6a1e736c1c5c65cd86,626b377229c10585ec392f8a,626b3ae8275347288cedf7de,,,,,,,,,,,,,,,,,,,,,,,l,1,1.6623,"[""0.048"",""0.170"",""0.447"",""0.847""]","[1,1,1,0]",0,46,46,46,1,1,1,,,0,FALSE,,,,,,,,,,,,,,,,,,,,,,,,,,,,,,
,6127ac6a1e736c1c5c65cd86,001,2022-04-29_03h10.33.198,classification_task,2021.2.3,Win32,59.13310863,6127ac6a1e736c1c5c65cd86,626b377229c10585ec392f8a,626b3ae8275347288cedf7de,,,,,,,,,,,,,,,,,,,,,,,l,1,1.2613,"[""0.048"",""0.170"",""0.084"",""0.726""]","[1,1,0,1]",0,47,47,47,1,1,1,,,0,FALSE,,,,,,,,,,,,,,,,,,,,,,,,,,,,,,
,6127ac6a1e736c1c5c65cd86,001,2022-04-29_03h10.33.198,classification_task,2021.2.3,Win32,59.13310863,6127ac6a1e736c1c5c65cd86,626b377229c10585ec392f8a,626b3ae8275347288cedf7de,,,,,,,,,,,,,,,,,,,,,,,l,1,2.2459,"[""0.048"",""0.828"",""0.447"",""0.726""]","[1,0,1,1]",0,48,48,48,1,1,1,,,0,FALSE,,,,,,,,,,,,,,,,,,,,,,,,,,,,,,
,6127ac6a1e736c1c5c65cd86,001,2022-04-29_03h10.33.198,classification_task,2021.2.3,Win32,59.13310863,6127ac6a1e736c1c5c65cd86,626b377229c10585ec392f8a,626b3ae8275347288cedf7de,,,,,,,,,,,,,,,,,,,,,,,a,1,1.6119,"[""0.290"",""0.373"",""0.770"",""0.817""]","[1,1,1,0]",0,49,49,49,1,0,1,,,0,FALSE,,,,,,,,,,,,,,,,,,,,,,,,,,,,,,
,6127ac6a1e736c1c5c65cd86,001,2022-04-29_03h10.33.198,classification_task,2021.2.3,Win32,59.13310863,6127ac6a1e736c1c5c65cd86,626b377229c10585ec392f8a,626b3ae8275347288cedf7de,,,,,,,,,,,,,,,,,,,,,,,a,1,1.4903,"[""0.324"",""0.533"",""0.817"",""0.952""]","[1,1,0,1]",0,50,50,50,1,0,0,,,0,FALSE,,,,,,,,,,,,,,,,,,,,,,,,,,,,,,
,6127ac6a1e736c1c5c65cd86,001,2022-04-29_03h10.33.198,classification_task,2021.2.3,Win32,59.13310863,6127ac6a1e736c1c5c65cd86,626b377229c10585ec392f8a,626b3ae8275347288cedf7de,,,,,,,,,,,,,,,,,,,,,,,l,0,1.2488,"[""0.847"",""0.533"",""0.608"",""0.952""]","[0,1,1,1]",0,51,51,51,1,0,0,,,0,FALSE,,,,,,,,,,,,,,,,,,,,,,,,,,,,,,
,6127ac6a1e736c1c5c65cd86,001,2022-04-29_03h10.33.198,classification_task,2021.2.3,Win32,59.13310863,6127ac6a1e736c1c5c65cd86,626b377229c10585ec392f8a,626b3ae8275347288cedf7de,,,,,,,,,,,,,,,,,,,,,,,l,1,1.5104,"[""0.048"",""0.170"",""0.847"",""0.726""]","[1,1,0,1]",0,52,52,52,1,1,1,,,0,FALSE,,,,,,,,,,,,,,,,,,,,,,,,,,,,,,
,6127ac6a1e736c1c5c65cd86,001,2022-04-29_03h10.33.198,classification_task,2021.2.3,Win32,59.13310863,6127ac6a1e736c1c5c65cd86,626b377229c10585ec392f8a,626b3ae8275347288cedf7de,,,,,,,,,,,,,,,,,,,,,,,a,1,1.6018,"[""0.290"",""0.373"",""0.570"",""0.907""]","[1,1,0,1]",0,53,53,53,1,0,1,,,0,FALSE,,,,,,,,,,,,,,,,,,,,,,,,,,,,,,
,6127ac6a1e736c1c5c65cd86,001,2022-04-29_03h10.33.198,classification_task,2021.2.3,Win32,59.13310863,6127ac6a1e736c1c5c65cd86,626b377229c10585ec392f8a,626b3ae8275347288cedf7de,,,,,,,,,,,,,,,,,,,,,,,l,1,0.9061,"[""0.124"",""0.233"",""0.482"",""0.084""]","[1,1,1,0]",0,54,54,54,1,1,0,,,0,FALSE,,,,,,,,,,,,,,,,,,,,,,,,,,,,,,
,6127ac6a1e736c1c5c65cd86,001,2022-04-29_03h10.33.198,classification_task,2021.2.3,Win32,59.13310863,6127ac6a1e736c1c5c65cd86,626b377229c10585ec392f8a,626b3ae8275347288cedf7de,,,,,,,,,,,,,,,,,,,,,,,a,1,1.3323,"[""0.324"",""0.649"",""0.608"",""0.952""]","[1,0,1,1]",0,55,55,55,1,0,0,,,0,FALSE,,,,,,,,,,,,,,,,,,,,,,,,,,,,,,
,6127ac6a1e736c1c5c65cd86,001,2022-04-29_03h10.33.198,classification_task,2021.2.3,Win32,59.13310863,6127ac6a1e736c1c5c65cd86,626b377229c10585ec392f8a,626b3ae8275347288cedf7de,,,,,,,,,,,,,,,,,,,,,,,a,0,1.6564,"[""0.649"",""0.233"",""0.482"",""0.688""]","[0,1,1,1]",0,56,56,56,1,1,0,,,0,FALSE,,,,,,,,,,,,,,,,,,,,,,,,,,,,,,
,6127ac6a1e736c1c5c65cd86,001,2022-04-29_03h10.33.198,classification_task,2021.2.3,Win32,59.13310863,6127ac6a1e736c1c5c65cd86,626b377229c10585ec392f8a,626b3ae8275347288cedf7de,,,,,,,,,,,,,,,,,,,,,,,l,0,1.8166,"[""0.324"",""0.533"",""0.608"",""0.808""]","[1,1,1,0]",0,57,57,57,1,0,0,,,0,FALSE,,,,,,,,,,,,,,,,,,,,,,,,,,,,,,
,6127ac6a1e736c1c5c65cd86,001,2022-04-29_03h10.33.198,classification_task,2021.2.3,Win32,59.13310863,6127ac6a1e736c1c5c65cd86,626b377229c10585ec392f8a,626b3ae8275347288cedf7de,,,,,,,,,,,,,,,,,,,,,,,l,1,1.8362,"[""0.825"",""0.170"",""0.447"",""0.726""]","[0,1,1,1]",0,58,58,58,1,1,1,,,0,FALSE,,,,,,,,,,,,,,,,,,,,,,,,,,,,,,
,6127ac6a1e736c1c5c65cd86,001,2022-04-29_03h10.33.198,classification_task,2021.2.3,Win32,59.13310863,6127ac6a1e736c1c5c65cd86,626b377229c10585ec392f8a,626b3ae8275347288cedf7de,,,,,,,,,,,,,,,,,,,,,,,a,1,3.1627,"[""0.290"",""0.828"",""0.770"",""0.907""]","[1,0,1,1]",0,59,59,59,1,0,1,,,0,FALSE,,,,,,,,,,,,,,,,,,,,,,,,,,,,,,
,6127ac6a1e736c1c5c65cd86,001,2022-04-29_03h10.33.198,classification_task,2021.2.3,Win32,59.13310863,6127ac6a1e736c1c5c65cd86,626b377229c10585ec392f8a,626b3ae8275347288cedf7de,,,,,,,,,,,,,,,,,,,,,,,l,1,1.364,"[""0.048"",""0.170"",""0.447"",""0.864""]","[1,1,1,0]",0,60,60,60,1,1,1,,,0,FALSE,,,,,,,,,,,,,,,,,,,,,,,,,,,,,,
,6127ac6a1e736c1c5c65cd86,001,2022-04-29_03h10.33.198,classification_task,2021.2.3,Win32,59.13310863,6127ac6a1e736c1c5c65cd86,626b377229c10585ec392f8a,626b3ae8275347288cedf7de,,,,,,,,,,,,,,,,,,,,,,,l,0,3.9861,"[""0.570"",""0.373"",""0.770"",""0.907""]","[0,1,1,1]",0,61,61,61,1,0,1,,,0,FALSE,,,,,,,,,,,,,,,,,,,,,,,,,,,,,,
,6127ac6a1e736c1c5c65cd86,001,2022-04-29_03h10.33.198,classification_task,2021.2.3,Win32,59.13310863,6127ac6a1e736c1c5c65cd86,626b377229c10585ec392f8a,626b3ae8275347288cedf7de,,,,,,,,,,,,,,,,,,,,,,,l,1,1.2397,"[""0.124"",""0.233"",""0.084"",""0.688""]","[1,1,0,1]",0,62,62,62,1,1,0,,,0,FALSE,,,,,,,,,,,,,,,,,,,,,,,,,,,,,,
,6127ac6a1e736c1c5c65cd86,001,2022-04-29_03h10.33.198,classification_task,2021.2.3,Win32,59.13310863,6127ac6a1e736c1c5c65cd86,626b377229c10585ec392f8a,626b3ae8275347288cedf7de,,,,,,,,,,,,,,,,,,,,,,,l,1,1.7053,"[""0.124"",""0.847"",""0.482"",""0.688""]","[1,0,1,1]",0,63,63,63,1,1,0,,,0,FALSE,,,,,,,,,,,,,,,,,,,,,,,,,,,,,,
,6127ac6a1e736c1c5c65cd86,001,2022-04-29_03h10.33.198,classification_task,2021.2.3,Win32,59.13310863,6127ac6a1e736c1c5c65cd86,626b377229c10585ec392f8a,626b3ae8275347288cedf7de,,,,,,,,,,,,,,,,,,,,,,,,,,,,,,,,,,,,,,,0, ,,0,,,0,0,0,0,1,2,1,,,,,,,,,,,,,,,,,
,6127ac6a1e736c1c5c65cd86,001,2022-04-29_03h10.33.198,classification_task,2021.2.3,Win32,59.13310863,6127ac6a1e736c1c5c65cd86,626b377229c10585ec392f8a,626b3ae8275347288cedf7de,,,,,,,,,,,,,,,,,,,,,,,,,,,,,,,,,,,,,,,1,  ,,0,,,0,0,0,0,1,2,1,,,,,,,,,,,,,,,,,
,6127ac6a1e736c1c5c65cd86,001,2022-04-29_03h10.33.198,classification_task,2021.2.3,Win32,59.13310863,6127ac6a1e736c1c5c65cd86,626b377229c10585ec392f8a,626b3ae8275347288cedf7de,,,,,,,,,,,,,,,,,,,,,,,,,,,,,,,,,,,,,,,2,  ,,0,,,0,0,0,0,1,2,1,,,,,,,,,,,,,,,,,
,6127ac6a1e736c1c5c65cd86,001,2022-04-29_03h10.33.198,classification_task,2021.2.3,Win32,59.13310863,6127ac6a1e736c1c5c65cd86,626b377229c10585ec392f8a,626b3ae8275347288cedf7de,,,,,,,,,,,,,,,,,,,,,,,,,,,,,,,,,,,,,,,,,,,,,0,0,0,0,1,,1,,,,,,,,,,,,,,,,,
,6127ac6a1e736c1c5c65cd86,001,2022-04-29_03h10.33.198,classification_task,2021.2.3,Win32,59.13310863,6127ac6a1e736c1c5c65cd86,626b377229c10585ec392f8a,626b3ae8275347288cedf7de,,,,,,,,,,,,,,,,,,,,,space,6.7289,a,0,2.3851,"[""0.847"",""0.233"",""0.482"",""0.688""]","[0,1,1,1]",0,0,0,0,1,1,0,,,0,FALSE,,,,,,,,,,,,,,,,,,,,,,,,,,,,,,
,6127ac6a1e736c1c5c65cd86,001,2022-04-29_03h10.33.198,classification_task,2021.2.3,Win32,59.13310863,6127ac6a1e736c1c5c65cd86,626b377229c10585ec392f8a,626b3ae8275347288cedf7de,,,,,,,,,,,,,,,,,,,,,,,l,0,0.5925,"[""0.290"",""0.084"",""0.770"",""0.907""]","[1,0,1,1]",0,1,1,1,1,0,1,,,0,FALSE,,,,,,,,,,,,,,,,,,,,,,,,,,,,,,
,6127ac6a1e736c1c5c65cd86,001,2022-04-29_03h10.33.198,classification_task,2021.2.3,Win32,59.13310863,6127ac6a1e736c1c5c65cd86,626b377229c10585ec392f8a,626b3ae8275347288cedf7de,,,,,,,,,,,,,,,,,,,,,,,a,1,2.4906,"[""0.324"",""0.833"",""0.608"",""0.952""]","[1,0,1,1]",0,2,2,2,1,0,0,,,0,FALSE,,,,,,,,,,,,,,,,,,,,,,,,,,,,,,
,6127ac6a1e736c1c5c65cd86,001,2022-04-29_03h10.33.198,classification_task,2021.2.3,Win32,59.13310863,6127ac6a1e736c1c5c65cd86,626b377229c10585ec392f8a,626b3ae8275347288cedf7de,,,,,,,,,,,,,,,,,,,,,,,l,0,1.1632,"[""0.833"",""0.533"",""0.608"",""0.952""]","[0,1,1,1]",0,3,3,3,1,0,0,,,0,FALSE,,,,,,,,,,,,,,,,,,,,,,,,,,,,,,
,6127ac6a1e736c1c5c65cd86,001,2022-04-29_03h10.33.198,classification_task,2021.2.3,Win32,59.13310863,6127ac6a1e736c1c5c65cd86,626b377229c10585ec392f8a,626b3ae8275347288cedf7de,,,,,,,,,,,,,,,,,,,,,,,a,1,0.6205,"[""0.324"",""0.533"",""0.654"",""0.952""]","[1,1,0,1]",0,4,4,4,1,0,0,,,0,FALSE,,,,,,,,,,,,,,,,,,,,,,,,,,,,,,
,6127ac6a1e736c1c5c65cd86,001,2022-04-29_03h10.33.198,classification_task,2021.2.3,Win32,59.13310863,6127ac6a1e736c1c5c65cd86,626b377229c10585ec392f8a,626b3ae8275347288cedf7de,,,,,,,,,,,,,,,,,,,,,,,l,0,0.6352,"[""0.864"",""0.373"",""0.770"",""0.907""]","[0,1,1,1]",0,5,5,5,1,0,1,,,0,FALSE,,,,,,,,,,,,,,,,,,,,,,,,,,,,,,
,6127ac6a1e736c1c5c65cd86,001,2022-04-29_03h10.33.198,classification_task,2021.2.3,Win32,59.13310863,6127ac6a1e736c1c5c65cd86,626b377229c10585ec392f8a,626b3ae8275347288cedf7de,,,,,,,,,,,,,,,,,,,,,,,a,0,0.6102,"[""0.649"",""0.170"",""0.447"",""0.726""]","[0,1,1,1]",0,6,6,6,1,1,1,,,0,FALSE,,,,,,,,,,,,,,,,,,,,,,,,,,,,,,
,6127ac6a1e736c1c5c65cd86,001,2022-04-29_03h10.33.198,classification_task,2021.2.3,Win32,59.13310863,6127ac6a1e736c1c5c65cd86,626b377229c10585ec392f8a,626b3ae8275347288cedf7de,,,,,,,,,,,,,,,,,,,,,,,l,0,1.4557,"[""0.290"",""0.373"",""0.770"",""0.649""]","[1,1,1,0]",0,7,7,7,1,0,1,,,0,FALSE,,,,,,,,,,,,,,,,,,,,,,,,,,,,,,
,6127ac6a1e736c1c5c65cd86,001,2022-04-29_03h10.33.198,classification_task,2021.2.3,Win32,59.13310863,6127ac6a1e736c1c5c65cd86,626b377229c10585ec392f8a,626b3ae8275347288cedf7de,,,,,,,,,,,,,,,,,,,,,,,a,0,0.7937,"[""0.124"",""0.654"",""0.482"",""0.688""]","[1,0,1,1]",0,8,8,8,1,1,0,,,0,FALSE,,,,,,,,,,,,,,,,,,,,,,,,,,,,,,
,6127ac6a1e736c1c5c65cd86,001,2022-04-29_03h10.33.198,classification_task,2021.2.3,Win32,59.13310863,6127ac6a1e736c1c5c65cd86,626b377229c10585ec392f8a,626b3ae8275347288cedf7de,,,,,,,,,,,,,,,,,,,,,,,l,1,1.0896,"[""0.048"",""0.170"",""0.089"",""0.726""]","[1,1,0,1]",0,9,9,9,1,1,1,,,0,FALSE,,,,,,,,,,,,,,,,,,,,,,,,,,,,,,
,6127ac6a1e736c1c5c65cd86,001,2022-04-29_03h10.33.198,classification_task,2021.2.3,Win32,59.13310863,6127ac6a1e736c1c5c65cd86,626b377229c10585ec392f8a,626b3ae8275347288cedf7de,,,,,,,,,,,,,,,,,,,,,,,l,0,0.743,"[""0.324"",""0.533"",""0.608"",""0.825""]","[1,1,1,0]",0,10,10,10,1,0,0,,,0,FALSE,,,,,,,,,,,,,,,,,,,,,,,,,,,,,,
,6127ac6a1e736c1c5c65cd86,001,2022-04-29_03h10.33.198,classification_task,2021.2.3,Win32,59.13310863,6127ac6a1e736c1c5c65cd86,626b377229c10585ec392f8a,626b3ae8275347288cedf7de,,,,,,,,,,,,,,,,,,,,,,,a,1,0.5979,"[""0.290"",""0.373"",""0.817"",""0.907""]","[1,1,0,1]",0,11,11,11,1,0,1,,,0,FALSE,,,,,,,,,,,,,,,,,,,,,,,,,,,,,,
,6127ac6a1e736c1c5c65cd86,001,2022-04-29_03h10.33.198,classification_task,2021.2.3,Win32,59.13310863,6127ac6a1e736c1c5c65cd86,626b377229c10585ec392f8a,626b3ae8275347288cedf7de,,,,,,,,,,,,,,,,,,,,,,,l,1,1.4627,"[""0.124"",""0.233"",""0.482"",""0.814""]","[1,1,1,0]",0,12,12,12,1,1,0,,,0,FALSE,,,,,,,,,,,,,,,,,,,,,,,,,,,,,,
,6127ac6a1e736c1c5c65cd86,001,2022-04-29_03h10.33.198,classification_task,2021.2.3,Win32,59.13310863,6127ac6a1e736c1c5c65cd86,626b377229c10585ec392f8a,626b3ae8275347288cedf7de,,,,,,,,,,,,,,,,,,,,,,,a,0,2.1313,"[""0.048"",""0.170"",""0.447"",""0.413""]","[1,1,1,0]",0,13,13,13,1,1,1,,,0,FALSE,,,,,,,,,,,,,,,,,,,,,,,,,,,,,,
,6127ac6a1e736c1c5c65cd86,001,2022-04-29_03h10.33.198,classification_task,2021.2.3,Win32,59.13310863,6127ac6a1e736c1c5c65cd86,626b377229c10585ec392f8a,626b3ae8275347288cedf7de,,,,,,,,,,,,,,,,,,,,,,,a,0,1.0817,"[""0.048"",""0.864"",""0.447"",""0.726""]","[1,0,1,1]",0,14,14,14,1,1,1,,,0,FALSE,,,,,,,,,,,,,,,,,,,,,,,,,,,,,,
,6127ac6a1e736c1c5c65cd86,001,2022-04-29_03h10.33.198,classification_task,2021.2.3,Win32,59.13310863,6127ac6a1e736c1c5c65cd86,626b377229c10585ec392f8a,626b3ae8275347288cedf7de,,,,,,,,,,,,,,,,,,,,,,,l,1,0.606,"[""0.124"",""0.233"",""0.413"",""0.688""]","[1,1,0,1]",0,15,15,15,1,1,0,,,0,FALSE,,,,,,,,,,,,,,,,,,,,,,,,,,,,,,
,6127ac6a1e736c1c5c65cd86,001,2022-04-29_03h10.33.198,classification_task,2021.2.3,Win32,59.13310863,6127ac6a1e736c1c5c65cd86,626b377229c10585ec392f8a,626b3ae8275347288cedf7de,,,,,,,,,,,,,,,,,,,,,,,l,0,0.9441,"[""0.324"",""0.824"",""0.608"",""0.952""]","[1,0,1,1]",0,16,16,16,1,0,0,,,0,FALSE,,,,,,,,,,,,,,,,,,,,,,,,,,,,,,
,6127ac6a1e736c1c5c65cd86,001,2022-04-29_03h10.33.198,classification_task,2021.2.3,Win32,59.13310863,6127ac6a1e736c1c5c65cd86,626b377229c10585ec392f8a,626b3ae8275347288cedf7de,,,,,,,,,,,,,,,,,,,,,,,a,0,1.0554,"[""0.847"",""0.170"",""0.447"",""0.726""]","[0,1,1,1]",0,17,17,17,1,1,1,,,0,FALSE,,,,,,,,,,,,,,,,,,,,,,,,,,,,,,
,6127ac6a1e736c1c5c65cd86,001,2022-04-29_03h10.33.198,classification_task,2021.2.3,Win32,59.13310863,6127ac6a1e736c1c5c65cd86,626b377229c10585ec392f8a,626b3ae8275347288cedf7de,,,,,,,,,,,,,,,,,,,,,,,l,0,0.7295,"[""0.324"",""0.533"",""0.608"",""0.084""]","[1,1,1,0]",0,18,18,18,1,0,0,,,0,FALSE,,,,,,,,,,,,,,,,,,,,,,,,,,,,,,
,6127ac6a1e736c1c5c65cd86,001,2022-04-29_03h10.33.198,classification_task,2021.2.3,Win32,59.13310863,6127ac6a1e736c1c5c65cd86,626b377229c10585ec392f8a,626b3ae8275347288cedf7de,,,,,,,,,,,,,,,,,,,,,,,l,0,0.6891,"[""0.828"",""0.533"",""0.608"",""0.952""]","[0,1,1,1]",0,19,19,19,1,0,0,,,0,FALSE,,,,,,,,,,,,,,,,,,,,,,,,,,,,,,
,6127ac6a1e736c1c5c65cd86,001,2022-04-29_03h10.33.198,classification_task,2021.2.3,Win32,59.13310863,6127ac6a1e736c1c5c65cd86,626b377229c10585ec392f8a,626b3ae8275347288cedf7de,,,,,,,,,,,,,,,,,,,,,,,a,1,0.2672,"[""0.290"",""0.373"",""0.847"",""0.907""]","[1,1,0,1]",0,20,20,20,1,0,1,,,0,FALSE,,,,,,,,,,,,,,,,,,,,,,,,,,,,,,
,6127ac6a1e736c1c5c65cd86,001,2022-04-29_03h10.33.198,classification_task,2021.2.3,Win32,59.13310863,6127ac6a1e736c1c5c65cd86,626b377229c10585ec392f8a,626b3ae8275347288cedf7de,,,,,,,,,,,,,,,,,,,,,,,a,1,1.5064,"[""0.089"",""0.373"",""0.770"",""0.907""]","[0,1,1,1]",0,21,21,21,1,0,1,,,0,FALSE,,,,,,,,,,,,,,,,,,,,,,,,,,,,,,
,6127ac6a1e736c1c5c65cd86,001,2022-04-29_03h10.33.198,classification_task,2021.2.3,Win32,59.13310863,6127ac6a1e736c1c5c65cd86,626b377229c10585ec392f8a,626b3ae8275347288cedf7de,,,,,,,,,,,,,,,,,,,,,,,a,0,1.4907,"[""0.817"",""0.233"",""0.482"",""0.688""]","[0,1,1,1]",0,22,22,22,1,1,0,,,0,FALSE,,,,,,,,,,,,,,,,,,,,,,,,,,,,,,
,6127ac6a1e736c1c5c65cd86,001,2022-04-29_03h10.33.198,classification_task,2021.2.3,Win32,59.13310863,6127ac6a1e736c1c5c65cd86,626b377229c10585ec392f8a,626b3ae8275347288cedf7de,,,,,,,,,,,,,,,,,,,,,,,l,1,0.5502,"[""0.124"",""0.233"",""0.413"",""0.688""]","[1,1,0,1]",0,23,23,23,1,1,0,,,0,FALSE,,,,,,,,,,,,,,,,,,,,,,,,,,,,,,
,6127ac6a1e736c1c5c65cd86,001,2022-04-29_03h10.33.198,classification_task,2021.2.3,Win32,59.13310863,6127ac6a1e736c1c5c65cd86,626b377229c10585ec392f8a,626b3ae8275347288cedf7de,,,,,,,,,,,,,,,,,,,,,,,a,0,1.0836,"[""0.124"",""0.864"",""0.482"",""0.688""]","[1,0,1,1]",0,24,24,24,1,1,0,,,0,FALSE,,,,,,,,,,,,,,,,,,,,,,,,,,,,,,
,6127ac6a1e736c1c5c65cd86,001,2022-04-29_03h10.33.198,classification_task,2021.2.3,Win32,59.13310863,6127ac6a1e736c1c5c65cd86,626b377229c10585ec392f8a,626b3ae8275347288cedf7de,,,,,,,,,,,,,,,,,,,,,,,l,1,0.7959,"[""0.124"",""0.233"",""0.482"",""0.824""]","[1,1,1,0]",0,25,25,25,1,1,0,,,0,FALSE,,,,,,,,,,,,,,,,,,,,,,,,,,,,,,
,6127ac6a1e736c1c5c65cd86,001,2022-04-29_03h10.33.198,classification_task,2021.2.3,Win32,59.13310863,6127ac6a1e736c1c5c65cd86,626b377229c10585ec392f8a,626b3ae8275347288cedf7de,,,,,,,,,,,,,,,,,,,,,,,l,1,0.7911,"[""0.048"",""0.170"",""0.447"",""0.817""]","[1,1,1,0]",0,26,26,26,1,1,1,,,0,FALSE,,,,,,,,,,,,,,,,,,,,,,,,,,,,,,
,6127ac6a1e736c1c5c65cd86,001,2022-04-29_03h10.33.198,classification_task,2021.2.3,Win32,59.13310863,6127ac6a1e736c1c5c65cd86,626b377229c10585ec392f8a,626b3ae8275347288cedf7de,,,,,,,,,,,,,,,,,,,,,,,l,1,0.7808,"[""0.048"",""0.170"",""0.413"",""0.726""]","[1,1,0,1]",0,27,27,27,1,1,1,,,0,FALSE,,,,,,,,,,,,,,,,,,,,,,,,,,,,,,
,6127ac6a1e736c1c5c65cd86,001,2022-04-29_03h10.33.198,classification_task,2021.2.3,Win32,59.13310863,6127ac6a1e736c1c5c65cd86,626b377229c10585ec392f8a,626b3ae8275347288cedf7de,,,,,,,,,,,,,,,,,,,,,,,l,0,0.5795,"[""0.290"",""0.814"",""0.770"",""0.907""]","[1,0,1,1]",0,28,28,28,1,0,1,,,0,FALSE,,,,,,,,,,,,,,,,,,,,,,,,,,,,,,
,6127ac6a1e736c1c5c65cd86,001,2022-04-29_03h10.33.198,classification_task,2021.2.3,Win32,59.13310863,6127ac6a1e736c1c5c65cd86,626b377229c10585ec392f8a,626b3ae8275347288cedf7de,,,,,,,,,,,,,,,,,,,,,,,a,1,0.4602,"[""0.324"",""0.533"",""0.824"",""0.952""]","[1,1,0,1]",0,29,29,29,1,0,0,,,0,FALSE,,,,,,,,,,,,,,,,,,,,,,,,,,,,,,
,6127ac6a1e736c1c5c65cd86,001,2022-04-29_03h10.33.198,classification_task,2021.2.3,Win32,59.13310863,6127ac6a1e736c1c5c65cd86,626b377229c10585ec392f8a,626b3ae8275347288cedf7de,,,,,,,,,,,,,,,,,,,,,,,l,1,0.7008,"[""0.048"",""0.808"",""0.447"",""0.726""]","[1,0,1,1]",0,30,30,30,1,1,1,,,0,FALSE,,,,,,,,,,,,,,,,,,,,,,,,,,,,,,
,6127ac6a1e736c1c5c65cd86,001,2022-04-29_03h10.33.198,classification_task,2021.2.3,Win32,59.13310863,6127ac6a1e736c1c5c65cd86,626b377229c10585ec392f8a,626b3ae8275347288cedf7de,,,,,,,,,,,,,,,,,,,,,,,a,1,0.6495,"[""0.290"",""0.373"",""0.770"",""0.413""]","[1,1,1,0]",0,31,31,31,1,0,1,,,0,FALSE,,,,,,,,,,,,,,,,,,,,,,,,,,,,,,
,6127ac6a1e736c1c5c65cd86,001,2022-04-29_03h10.33.198,classification_task,2021.2.3,Win32,59.13310863,6127ac6a1e736c1c5c65cd86,626b377229c10585ec392f8a,626b3ae8275347288cedf7de,,,,,,,,,,,,,,,,,,,,,,,l,1,1.437,"[""0.570"",""0.233"",""0.482"",""0.688""]","[0,1,1,1]",0,32,32,32,1,1,0,,,0,FALSE,,,,,,,,,,,,,,,,,,,,,,,,,,,,,,
,6127ac6a1e736c1c5c65cd86,001,2022-04-29_03h10.33.198,classification_task,2021.2.3,Win32,59.13310863,6127ac6a1e736c1c5c65cd86,626b377229c10585ec392f8a,626b3ae8275347288cedf7de,,,,,,,,,,,,,,,,,,,,,,,a,0,0.9794,"[""0.124"",""0.233"",""0.482"",""0.847""]","[1,1,1,0]",0,33,33,33,1,1,0,,,0,FALSE,,,,,,,,,,,,,,,,,,,,,,,,,,,,,,
,6127ac6a1e736c1c5c65cd86,001,2022-04-29_03h10.33.198,classification_task,2021.2.3,Win32,59.13310863,6127ac6a1e736c1c5c65cd86,626b377229c10585ec392f8a,626b3ae8275347288cedf7de,,,,,,,,,,,,,,,,,,,,,,,a,1,1.4167,"[""0.290"",""0.373"",""0.770"",""0.089""]","[1,1,1,0]",0,34,34,34,1,0,1,,,0,FALSE,,,,,,,,,,,,,,,,,,,,,,,,,,,,,,
,6127ac6a1e736c1c5c65cd86,001,2022-04-29_03h10.33.198,classification_task,2021.2.3,Win32,59.13310863,6127ac6a1e736c1c5c65cd86,626b377229c10585ec392f8a,626b3ae8275347288cedf7de,,,,,,,,,,,,,,,,,,,,,,,a,1,1.9773,"[""0.847"",""0.373"",""0.770"",""0.907""]","[0,1,1,1]",0,35,35,35,1,0,1,,,0,FALSE,,,,,,,,,,,,,,,,,,,,,,,,,,,,,,
,6127ac6a1e736c1c5c65cd86,001,2022-04-29_03h10.33.198,classification_task,2021.2.3,Win32,59.13310863,6127ac6a1e736c1c5c65cd86,626b377229c10585ec392f8a,626b3ae8275347288cedf7de,,,,,,,,,,,,,,,,,,,,,,,l,0,0.9797,"[""0.324"",""0.533"",""0.608"",""0.828""]","[1,1,1,0]",0,36,36,36,1,0,0,,,0,FALSE,,,,,,,,,,,,,,,,,,,,,,,,,,,,,,
,6127ac6a1e736c1c5c65cd86,001,2022-04-29_03h10.33.198,classification_task,2021.2.3,Win32,59.13310863,6127ac6a1e736c1c5c65cd86,626b377229c10585ec392f8a,626b3ae8275347288cedf7de,,,,,,,,,,,,,,,,,,,,,,,l,1,1.4109,"[""0.048"",""0.170"",""0.089"",""0.726""]","[1,1,0,1]",0,37,37,37,1,1,1,,,0,FALSE,,,,,,,,,,,,,,,,,,,,,,,,,,,,,,
,6127ac6a1e736c1c5c65cd86,001,2022-04-29_03h10.33.198,classification_task,2021.2.3,Win32,59.13310863,6127ac6a1e736c1c5c65cd86,626b377229c10585ec392f8a,626b3ae8275347288cedf7de,,,,,,,,,,,,,,,,,,,,,,,l,0,1.6272,"[""0.324"",""0.533"",""0.570"",""0.952""]","[1,1,0,1]",0,38,38,38,1,0,0,,,0,FALSE,,,,,,,,,,,,,,,,,,,,,,,,,,,,,,
,6127ac6a1e736c1c5c65cd86,001,2022-04-29_03h10.33.198,classification_task,2021.2.3,Win32,59.13310863,6127ac6a1e736c1c5c65cd86,626b377229c10585ec392f8a,626b3ae8275347288cedf7de,,,,,,,,,,,,,,,,,,,,,,,a,1,1.4853,"[""0.833"",""0.533"",""0.608"",""0.952""]","[0,1,1,1]",0,39,39,39,1,0,0,,,0,FALSE,,,,,,,,,,,,,,,,,,,,,,,,,,,,,,
,6127ac6a1e736c1c5c65cd86,001,2022-04-29_03h10.33.198,classification_task,2021.2.3,Win32,59.13310863,6127ac6a1e736c1c5c65cd86,626b377229c10585ec392f8a,626b3ae8275347288cedf7de,,,,,,,,,,,,,,,,,,,,,,,a,0,1.4355,"[""0.124"",""0.817"",""0.482"",""0.688""]","[1,0,1,1]",0,40,40,40,1,1,0,,,0,FALSE,,,,,,,,,,,,,,,,,,,,,,,,,,,,,,
,6127ac6a1e736c1c5c65cd86,001,2022-04-29_03h10.33.198,classification_task,2021.2.3,Win32,59.13310863,6127ac6a1e736c1c5c65cd86,626b377229c10585ec392f8a,626b3ae8275347288cedf7de,,,,,,,,,,,,,,,,,,,,,,,a,0,1.3851,"[""0.124"",""0.233"",""0.089"",""0.688""]","[1,1,0,1]",0,41,41,41,1,1,0,,,0,FALSE,,,,,,,,,,,,,,,,,,,,,,,,,,,,,,
,6127ac6a1e736c1c5c65cd86,001,2022-04-29_03h10.33.198,classification_task,2021.2.3,Win32,59.13310863,6127ac6a1e736c1c5c65cd86,626b377229c10585ec392f8a,626b3ae8275347288cedf7de,,,,,,,,,,,,,,,,,,,,,,,l,0,0.6707,"[""0.324"",""0.413"",""0.608"",""0.952""]","[1,0,1,1]",0,42,42,42,1,0,0,,,0,FALSE,,,,,,,,,,,,,,,,,,,,,,,,,,,,,,
,6127ac6a1e736c1c5c65cd86,001,2022-04-29_03h10.33.198,classification_task,2021.2.3,Win32,59.13310863,6127ac6a1e736c1c5c65cd86,626b377229c10585ec392f8a,626b3ae8275347288cedf7de,,,,,,,,,,,,,,,,,,,,,,,a,0,0.7698,"[""0.048"",""0.170"",""0.447"",""0.649""]","[1,1,1,0]",0,43,43,43,1,1,1,,,0,FALSE,,,,,,,,,,,,,,,,,,,,,,,,,,,,,,
,6127ac6a1e736c1c5c65cd86,001,2022-04-29_03h10.33.198,classification_task,2021.2.3,Win32,59.13310863,6127ac6a1e736c1c5c65cd86,626b377229c10585ec392f8a,626b3ae8275347288cedf7de,,,,,,,,,,,,,,,,,,,,,,,l,0,0.9181,"[""0.290"",""0.413"",""0.770"",""0.907""]","[1,0,1,1]",0,44,44,44,1,0,1,,,0,FALSE,,,,,,,,,,,,,,,,,,,,,,,,,,,,,,
,6127ac6a1e736c1c5c65cd86,001,2022-04-29_03h10.33.198,classification_task,2021.2.3,Win32,59.13310863,6127ac6a1e736c1c5c65cd86,626b377229c10585ec392f8a,626b3ae8275347288cedf7de,,,,,,,,,,,,,,,,,,,,,,,a,0,0.2989,"[""0.048"",""0.570"",""0.447"",""0.726""]","[1,0,1,1]",0,45,45,45,1,1,1,,,0,FALSE,,,,,,,,,,,,,,,,,,,,,,,,,,,,,,
,6127ac6a1e736c1c5c65cd86,001,2022-04-29_03h10.33.198,classification_task,2021.2.3,Win32,59.13310863,6127ac6a1e736c1c5c65cd86,626b377229c10585ec392f8a,626b3ae8275347288cedf7de,,,,,,,,,,,,,,,,,,,,,,,l,1,0.9122,"[""0.825"",""0.170"",""0.447"",""0.726""]","[0,1,1,1]",0,46,46,46,1,1,1,,,0,FALSE,,,,,,,,,,,,,,,,,,,,,,,,,,,,,,
,6127ac6a1e736c1c5c65cd86,001,2022-04-29_03h10.33.198,classification_task,2021.2.3,Win32,59.13310863,6127ac6a1e736c1c5c65cd86,626b377229c10585ec392f8a,626b3ae8275347288cedf7de,,,,,,,,,,,,,,,,,,,,,,,l,0,0.8358,"[""0.290"",""0.373"",""0.867"",""0.907""]","[1,1,0,1]",0,47,47,47,1,0,1,,,0,FALSE,,,,,,,,,,,,,,,,,,,,,,,,,,,,,,
,6127ac6a1e736c1c5c65cd86,001,2022-04-29_03h10.33.198,classification_task,2021.2.3,Win32,59.13310863,6127ac6a1e736c1c5c65cd86,626b377229c10585ec392f8a,626b3ae8275347288cedf7de,,,,,,,,,,,,,,,,,,,,,,,a,1,0.4228,"[""0.290"",""0.373"",""0.770"",""0.847""]","[1,1,1,0]",0,48,48,48,1,0,1,,,0,FALSE,,,,,,,,,,,,,,,,,,,,,,,,,,,,,,
,6127ac6a1e736c1c5c65cd86,001,2022-04-29_03h10.33.198,classification_task,2021.2.3,Win32,59.13310863,6127ac6a1e736c1c5c65cd86,626b377229c10585ec392f8a,626b3ae8275347288cedf7de,,,,,,,,,,,,,,,,,,,,,,,a,1,1.9626,"[""0.324"",""0.084"",""0.608"",""0.952""]","[1,0,1,1]",0,49,49,49,1,0,0,,,0,FALSE,,,,,,,,,,,,,,,,,,,,,,,,,,,,,,
,6127ac6a1e736c1c5c65cd86,001,2022-04-29_03h10.33.198,classification_task,2021.2.3,Win32,59.13310863,6127ac6a1e736c1c5c65cd86,626b377229c10585ec392f8a,626b3ae8275347288cedf7de,,,,,,,,,,,,,,,,,,,,,,,a,0,0.7768,"[""0.833"",""0.233"",""0.482"",""0.688""]","[0,1,1,1]",0,50,50,50,1,1,0,,,0,FALSE,,,,,,,,,,,,,,,,,,,,,,,,,,,,,,
,6127ac6a1e736c1c5c65cd86,001,2022-04-29_03h10.33.198,classification_task,2021.2.3,Win32,59.13310863,6127ac6a1e736c1c5c65cd86,626b377229c10585ec392f8a,626b3ae8275347288cedf7de,,,,,,,,,,,,,,,,,,,,,,,l,1,1.0722,"[""0.048"",""0.170"",""0.447"",""0.413""]","[1,1,1,0]",0,51,51,51,1,1,1,,,0,FALSE,,,,,,,,,,,,,,,,,,,,,,,,,,,,,,
,6127ac6a1e736c1c5c65cd86,001,2022-04-29_03h10.33.198,classification_task,2021.2.3,Win32,59.13310863,6127ac6a1e736c1c5c65cd86,626b377229c10585ec392f8a,626b3ae8275347288cedf7de,,,,,,,,,,,,,,,,,,,,,,,l,1,2.2509,"[""0.048"",""0.170"",""0.864"",""0.726""]","[1,1,0,1]",0,52,52,52,1,1,1,,,0,FALSE,,,,,,,,,,,,,,,,,,,,,,,,,,,,,,
,6127ac6a1e736c1c5c65cd86,001,2022-04-29_03h10.33.198,classification_task,2021.2.3,Win32,59.13310863,6127ac6a1e736c1c5c65cd86,626b377229c10585ec392f8a,626b3ae8275347288cedf7de,,,,,,,,,,,,,,,,,,,,,,,l,0,0.8207,"[""0.290"",""0.373"",""0.817"",""0.907""]","[1,1,0,1]",0,53,53,53,1,0,1,,,0,FALSE,,,,,,,,,,,,,,,,,,,,,,,,,,,,,,
,6127ac6a1e736c1c5c65cd86,001,2022-04-29_03h10.33.198,classification_task,2021.2.3,Win32,59.13310863,6127ac6a1e736c1c5c65cd86,626b377229c10585ec392f8a,626b3ae8275347288cedf7de,,,,,,,,,,,,,,,,,,,,,,,a,1,0.4142,"[""0.290"",""0.649"",""0.770"",""0.907""]","[1,0,1,1]",0,54,54,54,1,0,1,,,0,FALSE,,,,,,,,,,,,,,,,,,,,,,,,,,,,,,
,6127ac6a1e736c1c5c65cd86,001,2022-04-29_03h10.33.198,classification_task,2021.2.3,Win32,59.13310863,6127ac6a1e736c1c5c65cd86,626b377229c10585ec392f8a,626b3ae8275347288cedf7de,,,,,,,,,,,,,,,,,,,,,,,a,0,0.7188,"[""0.048"",""0.864"",""0.447"",""0.726""]","[1,0,1,1]",0,55,55,55,1,1,1,,,0,FALSE,,,,,,,,,,,,,,,,,,,,,,,,,,,,,,
,6127ac6a1e736c1c5c65cd86,001,2022-04-29_03h10.33.198,classification_task,2021.2.3,Win32,59.13310863,6127ac6a1e736c1c5c65cd86,626b377229c10585ec392f8a,626b3ae8275347288cedf7de,,,,,,,,,,,,,,,,,,,,,,,l,0,0.7107,"[""0.324"",""0.533"",""0.847"",""0.952""]","[1,1,0,1]",0,56,56,56,1,0,0,,,0,FALSE,,,,,,,,,,,,,,,,,,,,,,,,,,,,,,
,6127ac6a1e736c1c5c65cd86,001,2022-04-29_03h10.33.198,classification_task,2021.2.3,Win32,59.13310863,6127ac6a1e736c1c5c65cd86,626b377229c10585ec392f8a,626b3ae8275347288cedf7de,,,,,,,,,,,,,,,,,,,,,,,a,1,0.8114,"[""0.649"",""0.373"",""0.770"",""0.907""]","[0,1,1,1]",0,57,57,57,1,0,1,,,0,FALSE,,,,,,,,,,,,,,,,,,,,,,,,,,,,,,
,6127ac6a1e736c1c5c65cd86,001,2022-04-29_03h10.33.198,classification_task,2021.2.3,Win32,59.13310863,6127ac6a1e736c1c5c65cd86,626b377229c10585ec392f8a,626b3ae8275347288cedf7de,,,,,,,,,,,,,,,,,,,,,,,a,0,2.6037,"[""0.124"",""0.864"",""0.482"",""0.688""]","[1,0,1,1]",0,58,58,58,1,1,0,,,0,FALSE,,,,,,,,,,,,,,,,,,,,,,,,,,,,,,
,6127ac6a1e736c1c5c65cd86,001,2022-04-29_03h10.33.198,classification_task,2021.2.3,Win32,59.13310863,6127ac6a1e736c1c5c65cd86,626b377229c10585ec392f8a,626b3ae8275347288cedf7de,,,,,,,,,,,,,,,,,,,,,,,l,1,0.3653,"[""0.124"",""0.233"",""0.089"",""0.688""]","[1,1,0,1]",0,59,59,59,1,1,0,,,0,FALSE,,,,,,,,,,,,,,,,,,,,,,,,,,,,,,
,6127ac6a1e736c1c5c65cd86,001,2022-04-29_03h10.33.198,classification_task,2021.2.3,Win32,59.13310863,6127ac6a1e736c1c5c65cd86,626b377229c10585ec392f8a,626b3ae8275347288cedf7de,,,,,,,,,,,,,,,,,,,,,,,l,0,0.7701,"[""0.324"",""0.533"",""0.608"",""0.864""]","[1,1,1,0]",0,60,60,60,1,0,0,,,0,FALSE,,,,,,,,,,,,,,,,,,,,,,,,,,,,,,
,6127ac6a1e736c1c5c65cd86,001,2022-04-29_03h10.33.198,classification_task,2021.2.3,Win32,59.13310863,6127ac6a1e736c1c5c65cd86,626b377229c10585ec392f8a,626b3ae8275347288cedf7de,,,,,,,,,,,,,,,,,,,,,,,a,0,1.0307,"[""0.084"",""0.170"",""0.447"",""0.726""]","[0,1,1,1]",0,61,61,61,1,1,1,,,0,FALSE,,,,,,,,,,,,,,,,,,,,,,,,,,,,,,
,6127ac6a1e736c1c5c65cd86,001,2022-04-29_03h10.33.198,classification_task,2021.2.3,Win32,59.13310863,6127ac6a1e736c1c5c65cd86,626b377229c10585ec392f8a,626b3ae8275347288cedf7de,,,,,,,,,,,,,,,,,,,,,,,l,0,1.324,"[""0.824"",""0.533"",""0.608"",""0.952""]","[0,1,1,1]",0,62,62,62,1,0,0,,,0,FALSE,,,,,,,,,,,,,,,,,,,,,,,,,,,,,,
,6127ac6a1e736c1c5c65cd86,001,2022-04-29_03h10.33.198,classification_task,2021.2.3,Win32,59.13310863,6127ac6a1e736c1c5c65cd86,626b377229c10585ec392f8a,626b3ae8275347288cedf7de,,,,,,,,,,,,,,,,,,,,,,,a,0,1.1733,"[""0.124"",""0.233"",""0.482"",""0.828""]","[1,1,1,0]",0,63,63,63,1,1,0,,,0,FALSE,,,,,,,,,,,,,,,,,,,,,,,,,,,,,,
,6127ac6a1e736c1c5c65cd86,001,2022-04-29_03h10.33.198,classification_task,2021.2.3,Win32,59.13310863,6127ac6a1e736c1c5c65cd86,626b377229c10585ec392f8a,626b3ae8275347288cedf7de,,,,,,,,,,,,,,,,,,,,,,,,,,,,,,,,,,,,,,,0, ,,0,,,0,1,1,1,1,2,2,,,,,,,,,,,,,,,,,
,6127ac6a1e736c1c5c65cd86,001,2022-04-29_03h10.33.198,classification_task,2021.2.3,Win32,59.13310863,6127ac6a1e736c1c5c65cd86,626b377229c10585ec392f8a,626b3ae8275347288cedf7de,,,,,,,,,,,,,,,,,,,,,,,,,,,,,,,,,,,,,,,1,  ,,0,,,0,1,1,1,1,2,2,,,,,,,,,,,,,,,,,
,6127ac6a1e736c1c5c65cd86,001,2022-04-29_03h10.33.198,classification_task,2021.2.3,Win32,59.13310863,6127ac6a1e736c1c5c65cd86,626b377229c10585ec392f8a,626b3ae8275347288cedf7de,,,,,,,,,,,,,,,,,,,,,,,,,,,,,,,,,,,,,,,2,  ,,0,,,0,1,1,1,1,2,2,,,,,,,,,,,,,,,,,
,6127ac6a1e736c1c5c65cd86,001,2022-04-29_03h10.33.198,classification_task,2021.2.3,Win32,59.13310863,6127ac6a1e736c1c5c65cd86,626b377229c10585ec392f8a,626b3ae8275347288cedf7de,,,,,,,,,,,,,,,,,,,,,,,,,,,,,,,,,,,,,,,,,,,,,0,1,1,1,1,,2,,,,,,,,,,,,,,,,,
,6127ac6a1e736c1c5c65cd86,001,2022-04-29_03h10.33.198,classification_task,2021.2.3,Win32,59.13310863,6127ac6a1e736c1c5c65cd86,626b377229c10585ec392f8a,626b3ae8275347288cedf7de,,,,,,,,,,,,,,,,,,,,,space,8.0738,a,0,1.2994,"[""0.413"",""0.233"",""0.482"",""0.688""]","[0,1,1,1]",0,0,0,0,1,1,0,,,0,FALSE,,,,,,,,,,,,,,,,,,,,,,,,,,,,,,
,6127ac6a1e736c1c5c65cd86,001,2022-04-29_03h10.33.198,classification_task,2021.2.3,Win32,59.13310863,6127ac6a1e736c1c5c65cd86,626b377229c10585ec392f8a,626b3ae8275347288cedf7de,,,,,,,,,,,,,,,,,,,,,,,a,1,1.9763,"[""0.324"",""0.533"",""0.608"",""0.825""]","[1,1,1,0]",0,1,1,1,1,0,0,,,0,FALSE,,,,,,,,,,,,,,,,,,,,,,,,,,,,,,
,6127ac6a1e736c1c5c65cd86,001,2022-04-29_03h10.33.198,classification_task,2021.2.3,Win32,59.13310863,6127ac6a1e736c1c5c65cd86,626b377229c10585ec392f8a,626b3ae8275347288cedf7de,,,,,,,,,,,,,,,,,,,,,,,l,0,0.4287,"[""0.324"",""0.533"",""0.867"",""0.952""]","[1,1,0,1]",0,2,2,2,1,0,0,,,0,FALSE,,,,,,,,,,,,,,,,,,,,,,,,,,,,,,
,6127ac6a1e736c1c5c65cd86,001,2022-04-29_03h10.33.198,classification_task,2021.2.3,Win32,59.13310863,6127ac6a1e736c1c5c65cd86,626b377229c10585ec392f8a,626b3ae8275347288cedf7de,,,,,,,,,,,,,,,,,,,,,,,l,0,1.4875,"[""0.825"",""0.373"",""0.770"",""0.907""]","[0,1,1,1]",0,3,3,3,1,0,1,,,0,FALSE,,,,,,,,,,,,,,,,,,,,,,,,,,,,,,
,6127ac6a1e736c1c5c65cd86,001,2022-04-29_03h10.33.198,classification_task,2021.2.3,Win32,59.13310863,6127ac6a1e736c1c5c65cd86,626b377229c10585ec392f8a,626b3ae8275347288cedf7de,,,,,,,,,,,,,,,,,,,,,,,a,0,0.9168,"[""0.048"",""0.170"",""0.867"",""0.726""]","[1,1,0,1]",0,4,4,4,1,1,1,,,0,FALSE,,,,,,,,,,,,,,,,,,,,,,,,,,,,,,
,6127ac6a1e736c1c5c65cd86,001,2022-04-29_03h10.33.198,classification_task,2021.2.3,Win32,59.13310863,6127ac6a1e736c1c5c65cd86,626b377229c10585ec392f8a,626b3ae8275347288cedf7de,,,,,,,,,,,,,,,,,,,,,,,l,0,1.5793,"[""0.324"",""0.649"",""0.608"",""0.952""]","[1,0,1,1]",0,5,5,5,1,0,0,,,0,FALSE,,,,,,,,,,,,,,,,,,,,,,,,,,,,,,
,6127ac6a1e736c1c5c65cd86,001,2022-04-29_03h10.33.198,classification_task,2021.2.3,Win32,59.13310863,6127ac6a1e736c1c5c65cd86,626b377229c10585ec392f8a,626b3ae8275347288cedf7de,,,,,,,,,,,,,,,,,,,,,,,a,0,1.3649,"[""0.048"",""0.654"",""0.447"",""0.726""]","[1,0,1,1]",0,6,6,6,1,1,1,,,0,FALSE,,,,,,,,,,,,,,,,,,,,,,,,,,,,,,
,6127ac6a1e736c1c5c65cd86,001,2022-04-29_03h10.33.198,classification_task,2021.2.3,Win32,59.13310863,6127ac6a1e736c1c5c65cd86,626b377229c10585ec392f8a,626b3ae8275347288cedf7de,,,,,,,,,,,,,,,,,,,,,,,l,0,0.8271,"[""0.290"",""0.828"",""0.770"",""0.907""]","[1,0,1,1]",0,7,7,7,1,0,1,,,0,FALSE,,,,,,,,,,,,,,,,,,,,,,,,,,,,,,
,6127ac6a1e736c1c5c65cd86,001,2022-04-29_03h10.33.198,classification_task,2021.2.3,Win32,59.13310863,6127ac6a1e736c1c5c65cd86,626b377229c10585ec392f8a,626b3ae8275347288cedf7de,,,,,,,,,,,,,,,,,,,,,,,a,0,1.6903,"[""0.847"",""0.170"",""0.447"",""0.726""]","[0,1,1,1]",0,8,8,8,1,1,1,,,0,FALSE,,,,,,,,,,,,,,,,,,,,,,,,,,,,,,
,6127ac6a1e736c1c5c65cd86,001,2022-04-29_03h10.33.198,classification_task,2021.2.3,Win32,59.13310863,6127ac6a1e736c1c5c65cd86,626b377229c10585ec392f8a,626b3ae8275347288cedf7de,,,,,,,,,,,,,,,,,,,,,,,l,0,2.4229,"[""0.649"",""0.533"",""0.608"",""0.952""]","[0,1,1,1]",0,9,9,9,1,0,0,,,0,FALSE,,,,,,,,,,,,,,,,,,,,,,,,,,,,,,
,6127ac6a1e736c1c5c65cd86,001,2022-04-29_03h10.33.198,classification_task,2021.2.3,Win32,59.13310863,6127ac6a1e736c1c5c65cd86,626b377229c10585ec392f8a,626b3ae8275347288cedf7de,,,,,,,,,,,,,,,,,,,,,,,l,1,2.3708,"[""0.124"",""0.847"",""0.482"",""0.688""]","[1,0,1,1]",0,10,10,10,1,1,0,,,0,FALSE,,,,,,,,,,,,,,,,,,,,,,,,,,,,,,
,6127ac6a1e736c1c5c65cd86,001,2022-04-29_03h10.33.198,classification_task,2021.2.3,Win32,59.13310863,6127ac6a1e736c1c5c65cd86,626b377229c10585ec392f8a,626b3ae8275347288cedf7de,,,,,,,,,,,,,,,,,,,,,,,l,0,2.1413,"[""0.290"",""0.373"",""0.089"",""0.907""]","[1,1,0,1]",0,11,11,11,1,0,1,,,0,FALSE,,,,,,,,,,,,,,,,,,,,,,,,,,,,,,
,6127ac6a1e736c1c5c65cd86,001,2022-04-29_03h10.33.198,classification_task,2021.2.3,Win32,59.13310863,6127ac6a1e736c1c5c65cd86,626b377229c10585ec392f8a,626b3ae8275347288cedf7de,,,,,,,,,,,,,,,,,,,,,,,a,0,1.2876,"[""0.124"",""0.233"",""0.833"",""0.688""]","[1,1,0,1]",0,12,12,12,1,1,0,,,0,FALSE,,,,,,,,,,,,,,,,,,,,,,,,,,,,,,
,6127ac6a1e736c1c5c65cd86,001,2022-04-29_03h10.33.198,classification_task,2021.2.3,Win32,59.13310863,6127ac6a1e736c1c5c65cd86,626b377229c10585ec392f8a,626b3ae8275347288cedf7de,,,,,,,,,,,,,,,,,,,,,,,l,1,0.8317,"[""0.048"",""0.170"",""0.447"",""0.867""]","[1,1,1,0]",0,13,13,13,1,1,1,,,0,FALSE,,,,,,,,,,,,,,,,,,,,,,,,,,,,,,
,6127ac6a1e736c1c5c65cd86,001,2022-04-29_03h10.33.198,classification_task,2021.2.3,Win32,59.13310863,6127ac6a1e736c1c5c65cd86,626b377229c10585ec392f8a,626b3ae8275347288cedf7de,,,,,,,,,,,,,,,,,,,,,,,l,1,1.5832,"[""0.124"",""0.233"",""0.482"",""0.817""]","[1,1,1,0]",0,14,14,14,1,1,0,,,0,FALSE,,,,,,,,,,,,,,,,,,,,,,,,,,,,,,
,6127ac6a1e736c1c5c65cd86,001,2022-04-29_03h10.33.198,classification_task,2021.2.3,Win32,59.13310863,6127ac6a1e736c1c5c65cd86,626b377229c10585ec392f8a,626b3ae8275347288cedf7de,,,,,,,,,,,,,,,,,,,,,,,l,0,2.1276,"[""0.290"",""0.373"",""0.770"",""0.089""]","[1,1,1,0]",0,15,15,15,1,0,1,,,0,FALSE,,,,,,,,,,,,,,,,,,,,,,,,,,,,,,
,6127ac6a1e736c1c5c65cd86,001,2022-04-29_03h10.33.198,classification_task,2021.2.3,Win32,59.13310863,6127ac6a1e736c1c5c65cd86,626b377229c10585ec392f8a,626b3ae8275347288cedf7de,,,,,,,,,,,,,,,,,,,,,,,l,1,3.4105,"[""0.048"",""0.847"",""0.447"",""0.726""]","[1,0,1,1]",0,16,16,16,1,1,1,,,0,FALSE,,,,,,,,,,,,,,,,,,,,,,,,,,,,,,
,6127ac6a1e736c1c5c65cd86,001,2022-04-29_03h10.33.198,classification_task,2021.2.3,Win32,59.13310863,6127ac6a1e736c1c5c65cd86,626b377229c10585ec392f8a,626b3ae8275347288cedf7de,,,,,,,,,,,,,,,,,,,,,,,l,0,4.9025,"[""0.864"",""0.373"",""0.770"",""0.907""]","[0,1,1,1]",0,17,17,17,1,0,1,,,0,FALSE,,,,,,,,,,,,,,,,,,,,,,,,,,,,,,
,6127ac6a1e736c1c5c65cd86,001,2022-04-29_03h10.33.198,classification_task,2021.2.3,Win32,59.13310863,6127ac6a1e736c1c5c65cd86,626b377229c10585ec392f8a,626b3ae8275347288cedf7de,,,,,,,,,,,,,,,,,,,,,,,l,1,0.8752,"[""0.048"",""0.170"",""0.447"",""0.808""]","[1,1,1,0]",0,18,18,18,1,1,1,,,0,FALSE,,,,,,,,,,,,,,,,,,,,,,,,,,,,,,
,6127ac6a1e736c1c5c65cd86,001,2022-04-29_03h10.33.198,classification_task,2021.2.3,Win32,59.13310863,6127ac6a1e736c1c5c65cd86,626b377229c10585ec392f8a,626b3ae8275347288cedf7de,,,,,,,,,,,,,,,,,,,,,,,a,1,0.2598,"[""0.290"",""0.373"",""0.770"",""0.089""]","[1,1,1,0]",0,19,19,19,1,0,1,,,0,FALSE,,,,,,,,,,,,,,,,,,,,,,,,,,,,,,
,6127ac6a1e736c1c5c65cd86,001,2022-04-29_03h10.33.198,classification_task,2021.2.3,Win32,59.13310863,6127ac6a1e736c1c5c65cd86,626b377229c10585ec392f8a,626b3ae8275347288cedf7de,,,,,,,,,,,,,,,,,,,,,,,l,0,1.6248,"[""0.290"",""0.373"",""0.649"",""0.907""]","[1,1,0,1]",0,20,20,20,1,0,1,,,0,FALSE,,,,,,,,,,,,,,,,,,,,,,,,,,,,,,
,6127ac6a1e736c1c5c65cd86,001,2022-04-29_03h10.33.198,classification_task,2021.2.3,Win32,59.13310863,6127ac6a1e736c1c5c65cd86,626b377229c10585ec392f8a,626b3ae8275347288cedf7de,,,,,,,,,,,,,,,,,,,,,,,l,1,2.1674,"[""0.124"",""0.089"",""0.482"",""0.688""]","[1,0,1,1]",0,21,21,21,1,1,0,,,0,FALSE,,,,,,,,,,,,,,,,,,,,,,,,,,,,,,
,6127ac6a1e736c1c5c65cd86,001,2022-04-29_03h10.33.198,classification_task,2021.2.3,Win32,59.13310863,6127ac6a1e736c1c5c65cd86,626b377229c10585ec392f8a,626b3ae8275347288cedf7de,,,,,,,,,,,,,,,,,,,,,,,a,1,0.9554,"[""0.324"",""0.533"",""0.847"",""0.952""]","[1,1,0,1]",0,22,22,22,1,0,0,,,0,FALSE,,,,,,,,,,,,,,,,,,,,,,,,,,,,,,
,6127ac6a1e736c1c5c65cd86,001,2022-04-29_03h10.33.198,classification_task,2021.2.3,Win32,59.13310863,6127ac6a1e736c1c5c65cd86,626b377229c10585ec392f8a,626b3ae8275347288cedf7de,,,,,,,,,,,,,,,,,,,,,,,l,1,3.4217,"[""0.867"",""0.233"",""0.482"",""0.688""]","[0,1,1,1]",0,23,23,23,1,1,0,,,0,FALSE,,,,,,,,,,,,,,,,,,,,,,,,,,,,,,
,6127ac6a1e736c1c5c65cd86,001,2022-04-29_03h10.33.198,classification_task,2021.2.3,Win32,59.13310863,6127ac6a1e736c1c5c65cd86,626b377229c10585ec392f8a,626b3ae8275347288cedf7de,,,,,,,,,,,,,,,,,,,,,,,a,0,0.941,"[""0.864"",""0.170"",""0.447"",""0.726""]","[0,1,1,1]",0,24,24,24,1,1,1,,,0,FALSE,,,,,,,,,,,,,,,,,,,,,,,,,,,,,,
,6127ac6a1e736c1c5c65cd86,001,2022-04-29_03h10.33.198,classification_task,2021.2.3,Win32,59.13310863,6127ac6a1e736c1c5c65cd86,626b377229c10585ec392f8a,626b3ae8275347288cedf7de,,,,,,,,,,,,,,,,,,,,,,,a,0,0.9733,"[""0.124"",""0.233"",""0.814"",""0.688""]","[1,1,0,1]",0,25,25,25,1,1,0,,,0,FALSE,,,,,,,,,,,,,,,,,,,,,,,,,,,,,,
,6127ac6a1e736c1c5c65cd86,001,2022-04-29_03h10.33.198,classification_task,2021.2.3,Win32,59.13310863,6127ac6a1e736c1c5c65cd86,626b377229c10585ec392f8a,626b3ae8275347288cedf7de,,,,,,,,,,,,,,,,,,,,,,,l,1,0.3682,"[""0.124"",""0.233"",""0.482"",""0.808""]","[1,1,1,0]",0,26,26,26,1,1,0,,,0,FALSE,,,,,,,,,,,,,,,,,,,,,,,,,,,,,,
,6127ac6a1e736c1c5c65cd86,001,2022-04-29_03h10.33.198,classification_task,2021.2.3,Win32,59.13310863,6127ac6a1e736c1c5c65cd86,626b377229c10585ec392f8a,626b3ae8275347288cedf7de,,,,,,,,,,,,,,,,,,,,,,,l,0,0.6762,"[""0.290"",""0.413"",""0.770"",""0.907""]","[1,0,1,1]",0,27,27,27,1,0,1,,,0,FALSE,,,,,,,,,,,,,,,,,,,,,,,,,,,,,,
,6127ac6a1e736c1c5c65cd86,001,2022-04-29_03h10.33.198,classification_task,2021.2.3,Win32,59.13310863,6127ac6a1e736c1c5c65cd86,626b377229c10585ec392f8a,626b3ae8275347288cedf7de,,,,,,,,,,,,,,,,,,,,,,,l,0,0.5069,"[""0.324"",""0.533"",""0.608"",""0.828""]","[1,1,1,0]",0,28,28,28,1,0,0,,,0,FALSE,,,,,,,,,,,,,,,,,,,,,,,,,,,,,,
,6127ac6a1e736c1c5c65cd86,001,2022-04-29_03h10.33.198,classification_task,2021.2.3,Win32,59.13310863,6127ac6a1e736c1c5c65cd86,626b377229c10585ec392f8a,626b3ae8275347288cedf7de,,,,,,,,,,,,,,,,,,,,,,,l,0,0.6958,"[""0.864"",""0.533"",""0.608"",""0.952""]","[0,1,1,1]",0,29,29,29,1,0,0,,,0,FALSE,,,,,,,,,,,,,,,,,,,,,,,,,,,,,,
,6127ac6a1e736c1c5c65cd86,001,2022-04-29_03h10.33.198,classification_task,2021.2.3,Win32,59.13310863,6127ac6a1e736c1c5c65cd86,626b377229c10585ec392f8a,626b3ae8275347288cedf7de,,,,,,,,,,,,,,,,,,,,,,,l,0,1.6482,"[""0.324"",""0.817"",""0.608"",""0.952""]","[1,0,1,1]",0,30,30,30,1,0,0,,,0,FALSE,,,,,,,,,,,,,,,,,,,,,,,,,,,,,,
,6127ac6a1e736c1c5c65cd86,001,2022-04-29_03h10.33.198,classification_task,2021.2.3,Win32,59.13310863,6127ac6a1e736c1c5c65cd86,626b377229c10585ec392f8a,626b3ae8275347288cedf7de,,,,,,,,,,,,,,,,,,,,,,,a,0,0.9313,"[""0.048"",""0.170"",""0.413"",""0.726""]","[1,1,0,1]",0,31,31,31,1,1,1,,,0,FALSE,,,,,,,,,,,,,,,,,,,,,,,,,,,,,,
,6127ac6a1e736c1c5c65cd86,001,2022-04-29_03h10.33.198,classification_task,2021.2.3,Win32,59.13310863,6127ac6a1e736c1c5c65cd86,626b377229c10585ec392f8a,626b3ae8275347288cedf7de,,,,,,,,,,,,,,,,,,,,,,,a,1,1.2011,"[""0.864"",""0.533"",""0.608"",""0.952""]","[0,1,1,1]",0,32,32,32,1,0,0,,,0,FALSE,,,,,,,,,,,,,,,,,,,,,,,,,,,,,,
,6127ac6a1e736c1c5c65cd86,001,2022-04-29_03h10.33.198,classification_task,2021.2.3,Win32,59.13310863,6127ac6a1e736c1c5c65cd86,626b377229c10585ec392f8a,626b3ae8275347288cedf7de,,,,,,,,,,,,,,,,,,,,,,,l,1,1.5252,"[""0.124"",""0.233"",""0.084"",""0.688""]","[1,1,0,1]",0,33,33,33,1,1,0,,,0,FALSE,,,,,,,,,,,,,,,,,,,,,,,,,,,,,,
,6127ac6a1e736c1c5c65cd86,001,2022-04-29_03h10.33.198,classification_task,2021.2.3,Win32,59.13310863,6127ac6a1e736c1c5c65cd86,626b377229c10585ec392f8a,626b3ae8275347288cedf7de,,,,,,,,,,,,,,,,,,,,,,,a,1,1.0629,"[""0.324"",""0.828"",""0.608"",""0.952""]","[1,0,1,1]",0,34,34,34,1,0,0,,,0,FALSE,,,,,,,,,,,,,,,,,,,,,,,,,,,,,,
,6127ac6a1e736c1c5c65cd86,001,2022-04-29_03h10.33.198,classification_task,2021.2.3,Win32,59.13310863,6127ac6a1e736c1c5c65cd86,626b377229c10585ec392f8a,626b3ae8275347288cedf7de,,,,,,,,,,,,,,,,,,,,,,,l,1,1.0901,"[""0.864"",""0.170"",""0.447"",""0.726""]","[0,1,1,1]",0,35,35,35,1,1,1,,,0,FALSE,,,,,,,,,,,,,,,,,,,,,,,,,,,,,,
,6127ac6a1e736c1c5c65cd86,001,2022-04-29_03h10.33.198,classification_task,2021.2.3,Win32,59.13310863,6127ac6a1e736c1c5c65cd86,626b377229c10585ec392f8a,626b3ae8275347288cedf7de,,,,,,,,,,,,,,,,,,,,,,,a,0,0.7493,"[""0.124"",""0.233"",""0.482"",""0.570""]","[1,1,1,0]",0,36,36,36,1,1,0,,,0,FALSE,,,,,,,,,,,,,,,,,,,,,,,,,,,,,,
,6127ac6a1e736c1c5c65cd86,001,2022-04-29_03h10.33.198,classification_task,2021.2.3,Win32,59.13310863,6127ac6a1e736c1c5c65cd86,626b377229c10585ec392f8a,626b3ae8275347288cedf7de,,,,,,,,,,,,,,,,,,,,,,,l,1,2.0185,"[""0.048"",""0.170"",""0.447"",""0.814""]","[1,1,1,0]",0,37,37,37,1,1,1,,,0,FALSE,,,,,,,,,,,,,,,,,,,,,,,,,,,,,,
,6127ac6a1e736c1c5c65cd86,001,2022-04-29_03h10.33.198,classification_task,2021.2.3,Win32,59.13310863,6127ac6a1e736c1c5c65cd86,626b377229c10585ec392f8a,626b3ae8275347288cedf7de,,,,,,,,,,,,,,,,,,,,,,,a,1,1.4651,"[""0.290"",""0.373"",""0.864"",""0.907""]","[1,1,0,1]",0,38,38,38,1,0,1,,,0,FALSE,,,,,,,,,,,,,,,,,,,,,,,,,,,,,,
,6127ac6a1e736c1c5c65cd86,001,2022-04-29_03h10.33.198,classification_task,2021.2.3,Win32,59.13310863,6127ac6a1e736c1c5c65cd86,626b377229c10585ec392f8a,626b3ae8275347288cedf7de,,,,,,,,,,,,,,,,,,,,,,,l,1,1.3184,"[""0.048"",""0.089"",""0.447"",""0.726""]","[1,0,1,1]",0,39,39,39,1,1,1,,,0,FALSE,,,,,,,,,,,,,,,,,,,,,,,,,,,,,,
,6127ac6a1e736c1c5c65cd86,001,2022-04-29_03h10.33.198,classification_task,2021.2.3,Win32,59.13310863,6127ac6a1e736c1c5c65cd86,626b377229c10585ec392f8a,626b3ae8275347288cedf7de,,,,,,,,,,,,,,,,,,,,,,,a,1,2.0787,"[""0.324"",""0.533"",""0.608"",""0.817""]","[1,1,1,0]",0,40,40,40,1,0,0,,,0,FALSE,,,,,,,,,,,,,,,,,,,,,,,,,,,,,,
,6127ac6a1e736c1c5c65cd86,001,2022-04-29_03h10.33.198,classification_task,2021.2.3,Win32,59.13310863,6127ac6a1e736c1c5c65cd86,626b377229c10585ec392f8a,626b3ae8275347288cedf7de,,,,,,,,,,,,,,,,,,,,,,,l,1,2.6973,"[""0.124"",""0.808"",""0.482"",""0.688""]","[1,0,1,1]",0,41,41,41,1,1,0,,,0,FALSE,,,,,,,,,,,,,,,,,,,,,,,,,,,,,,
,6127ac6a1e736c1c5c65cd86,001,2022-04-29_03h10.33.198,classification_task,2021.2.3,Win32,59.13310863,6127ac6a1e736c1c5c65cd86,626b377229c10585ec392f8a,626b3ae8275347288cedf7de,,,,,,,,,,,,,,,,,,,,,,,l,0,2.7894,"[""0.290"",""0.373"",""0.770"",""0.084""]","[1,1,1,0]",0,42,42,42,1,0,1,,,0,FALSE,,,,,,,,,,,,,,,,,,,,,,,,,,,,,,
,6127ac6a1e736c1c5c65cd86,001,2022-04-29_03h10.33.198,classification_task,2021.2.3,Win32,59.13310863,6127ac6a1e736c1c5c65cd86,626b377229c10585ec392f8a,626b3ae8275347288cedf7de,,,,,,,,,,,,,,,,,,,,,,,a,1,2.4958,"[""0.290"",""0.808"",""0.770"",""0.907""]","[1,0,1,1]",0,43,43,43,1,0,1,,,0,FALSE,,,,,,,,,,,,,,,,,,,,,,,,,,,,,,
,6127ac6a1e736c1c5c65cd86,001,2022-04-29_03h10.33.198,classification_task,2021.2.3,Win32,59.13310863,6127ac6a1e736c1c5c65cd86,626b377229c10585ec392f8a,626b3ae8275347288cedf7de,,,,,,,,,,,,,,,,,,,,,,,a,1,2.8587,"[""0.324"",""0.533"",""0.864"",""0.952""]","[1,1,0,1]",0,44,44,44,1,0,0,,,0,FALSE,,,,,,,,,,,,,,,,,,,,,,,,,,,,,,
,6127ac6a1e736c1c5c65cd86,001,2022-04-29_03h10.33.198,classification_task,2021.2.3,Win32,59.13310863,6127ac6a1e736c1c5c65cd86,626b377229c10585ec392f8a,626b3ae8275347288cedf7de,,,,,,,,,,,,,,,,,,,,,,,a,1,1.5311,"[""0.864"",""0.373"",""0.770"",""0.907""]","[0,1,1,1]",0,45,45,45,1,0,1,,,0,FALSE,,,,,,,,,,,,,,,,,,,,,,,,,,,,,,
,6127ac6a1e736c1c5c65cd86,001,2022-04-29_03h10.33.198,classification_task,2021.2.3,Win32,59.13310863,6127ac6a1e736c1c5c65cd86,626b377229c10585ec392f8a,626b3ae8275347288cedf7de,,,,,,,,,,,,,,,,,,,,,,,l,1,1.4649,"[""0.048"",""0.170"",""0.654"",""0.726""]","[1,1,0,1]",0,46,46,46,1,1,1,,,0,FALSE,,,,,,,,,,,,,,,,,,,,,,,,,,,,,,
,6127ac6a1e736c1c5c65cd86,001,2022-04-29_03h10.33.198,classification_task,2021.2.3,Win32,59.13310863,6127ac6a1e736c1c5c65cd86,626b377229c10585ec392f8a,626b3ae8275347288cedf7de,,,,,,,,,,,,,,,,,,,,,,,a,0,1.7198,"[""0.867"",""0.233"",""0.482"",""0.688""]","[0,1,1,1]",0,47,47,47,1,1,0,,,0,FALSE,,,,,,,,,,,,,,,,,,,,,,,,,,,,,,
,6127ac6a1e736c1c5c65cd86,001,2022-04-29_03h10.33.198,classification_task,2021.2.3,Win32,59.13310863,6127ac6a1e736c1c5c65cd86,626b377229c10585ec392f8a,626b3ae8275347288cedf7de,,,,,,,,,,,,,,,,,,,,,,,a,1,3.9943,"[""0.290"",""0.824"",""0.770"",""0.907""]","[1,0,1,1]",0,48,48,48,1,0,1,,,0,FALSE,,,,,,,,,,,,,,,,,,,,,,,,,,,,,,
,6127ac6a1e736c1c5c65cd86,001,2022-04-29_03h10.33.198,classification_task,2021.2.3,Win32,59.13310863,6127ac6a1e736c1c5c65cd86,626b377229c10585ec392f8a,626b3ae8275347288cedf7de,,,,,,,,,,,,,,,,,,,,,,,l,1,1.5174,"[""0.124"",""0.867"",""0.482"",""0.688""]","[1,0,1,1]",0,49,49,49,1,1,0,,,0,FALSE,,,,,,,,,,,,,,,,,,,,,,,,,,,,,,
,6127ac6a1e736c1c5c65cd86,001,2022-04-29_03h10.33.198,classification_task,2021.2.3,Win32,59.13310863,6127ac6a1e736c1c5c65cd86,626b377229c10585ec392f8a,626b3ae8275347288cedf7de,,,,,,,,,,,,,,,,,,,,,,,a,1,1.7093,"[""0.324"",""0.533"",""0.608"",""0.825""]","[1,1,1,0]",0,50,50,50,1,0,0,,,0,FALSE,,,,,,,,,,,,,,,,,,,,,,,,,,,,,,
,6127ac6a1e736c1c5c65cd86,001,2022-04-29_03h10.33.198,classification_task,2021.2.3,Win32,59.13310863,6127ac6a1e736c1c5c65cd86,626b377229c10585ec392f8a,626b3ae8275347288cedf7de,,,,,,,,,,,,,,,,,,,,,,,a,1,1.9853,"[""0.290"",""0.373"",""0.770"",""0.847""]","[1,1,1,0]",0,51,51,51,1,0,1,,,0,FALSE,,,,,,,,,,,,,,,,,,,,,,,,,,,,,,
,6127ac6a1e736c1c5c65cd86,001,2022-04-29_03h10.33.198,classification_task,2021.2.3,Win32,59.13310863,6127ac6a1e736c1c5c65cd86,626b377229c10585ec392f8a,626b3ae8275347288cedf7de,,,,,,,,,,,,,,,,,,,,,,,a,1,1.7339,"[""0.290"",""0.373"",""0.864"",""0.907""]","[1,1,0,1]",0,52,52,52,1,0,1,,,0,FALSE,,,,,,,,,,,,,,,,,,,,,,,,,,,,,,
,6127ac6a1e736c1c5c65cd86,001,2022-04-29_03h10.33.198,classification_task,2021.2.3,Win32,59.13310863,6127ac6a1e736c1c5c65cd86,626b377229c10585ec392f8a,626b3ae8275347288cedf7de,,,,,,,,,,,,,,,,,,,,,,,l,1,1.0903,"[""0.048"",""0.825"",""0.447"",""0.726""]","[1,0,1,1]",0,53,53,53,1,1,1,,,0,FALSE,,,,,,,,,,,,,,,,,,,,,,,,,,,,,,
,6127ac6a1e736c1c5c65cd86,001,2022-04-29_03h10.33.198,classification_task,2021.2.3,Win32,59.13310863,6127ac6a1e736c1c5c65cd86,626b377229c10585ec392f8a,626b3ae8275347288cedf7de,,,,,,,,,,,,,,,,,,,,,,,a,0,1.3864,"[""0.048"",""0.170"",""0.447"",""0.570""]","[1,1,1,0]",0,54,54,54,1,1,1,,,0,FALSE,,,,,,,,,,,,,,,,,,,,,,,,,,,,,,
,6127ac6a1e736c1c5c65cd86,001,2022-04-29_03h10.33.198,classification_task,2021.2.3,Win32,59.13310863,6127ac6a1e736c1c5c65cd86,626b377229c10585ec392f8a,626b3ae8275347288cedf7de,,,,,,,,,,,,,,,,,,,,,,,l,1,0.673,"[""0.824"",""0.170"",""0.447"",""0.726""]","[0,1,1,1]",0,55,55,55,1,1,1,,,0,FALSE,,,,,,,,,,,,,,,,,,,,,,,,,,,,,,
,6127ac6a1e736c1c5c65cd86,001,2022-04-29_03h10.33.198,classification_task,2021.2.3,Win32,59.13310863,6127ac6a1e736c1c5c65cd86,626b377229c10585ec392f8a,626b3ae8275347288cedf7de,,,,,,,,,,,,,,,,,,,,,,,l,1,0.8574,"[""0.867"",""0.233"",""0.482"",""0.688""]","[0,1,1,1]",0,56,56,56,1,1,0,,,0,FALSE,,,,,,,,,,,,,,,,,,,,,,,,,,,,,,
,6127ac6a1e736c1c5c65cd86,001,2022-04-29_03h10.33.198,classification_task,2021.2.3,Win32,59.13310863,6127ac6a1e736c1c5c65cd86,626b377229c10585ec392f8a,626b3ae8275347288cedf7de,,,,,,,,,,,,,,,,,,,,,,,a,0,0.9468,"[""0.048"",""0.170"",""0.867"",""0.726""]","[1,1,0,1]",0,57,57,57,1,1,1,,,0,FALSE,,,,,,,,,,,,,,,,,,,,,,,,,,,,,,
,6127ac6a1e736c1c5c65cd86,001,2022-04-29_03h10.33.198,classification_task,2021.2.3,Win32,59.13310863,6127ac6a1e736c1c5c65cd86,626b377229c10585ec392f8a,626b3ae8275347288cedf7de,,,,,,,,,,,,,,,,,,,,,,,l,0,0.7192,"[""0.324"",""0.654"",""0.608"",""0.952""]","[1,0,1,1]",0,58,58,58,1,0,0,,,0,FALSE,,,,,,,,,,,,,,,,,,,,,,,,,,,,,,
,6127ac6a1e736c1c5c65cd86,001,2022-04-29_03h10.33.198,classification_task,2021.2.3,Win32,59.13310863,6127ac6a1e736c1c5c65cd86,626b377229c10585ec392f8a,626b3ae8275347288cedf7de,,,,,,,,,,,,,,,,,,,,,,,l,1,0.9924,"[""0.124"",""0.233"",""0.825"",""0.688""]","[1,1,0,1]",0,59,59,59,1,1,0,,,0,FALSE,,,,,,,,,,,,,,,,,,,,,,,,,,,,,,
,6127ac6a1e736c1c5c65cd86,001,2022-04-29_03h10.33.198,classification_task,2021.2.3,Win32,59.13310863,6127ac6a1e736c1c5c65cd86,626b377229c10585ec392f8a,626b3ae8275347288cedf7de,,,,,,,,,,,,,,,,,,,,,,,l,0,1.2552,"[""0.324"",""0.533"",""0.828"",""0.952""]","[1,1,0,1]",0,60,60,60,1,0,0,,,0,FALSE,,,,,,,,,,,,,,,,,,,,,,,,,,,,,,
,6127ac6a1e736c1c5c65cd86,001,2022-04-29_03h10.33.198,classification_task,2021.2.3,Win32,59.13310863,6127ac6a1e736c1c5c65cd86,626b377229c10585ec392f8a,626b3ae8275347288cedf7de,,,,,,,,,,,,,,,,,,,,,,,l,0,1.1557,"[""0.654"",""0.533"",""0.608"",""0.952""]","[0,1,1,1]",0,61,61,61,1,0,0,,,0,FALSE,,,,,,,,,,,,,,,,,,,,,,,,,,,,,,
,6127ac6a1e736c1c5c65cd86,001,2022-04-29_03h10.33.198,classification_task,2021.2.3,Win32,59.13310863,6127ac6a1e736c1c5c65cd86,626b377229c10585ec392f8a,626b3ae8275347288cedf7de,,,,,,,,,,,,,,,,,,,,,,,a,0,1.5619,"[""0.124"",""0.233"",""0.482"",""0.847""]","[1,1,1,0]",0,62,62,62,1,1,0,,,0,FALSE,,,,,,,,,,,,,,,,,,,,,,,,,,,,,,
,6127ac6a1e736c1c5c65cd86,001,2022-04-29_03h10.33.198,classification_task,2021.2.3,Win32,59.13310863,6127ac6a1e736c1c5c65cd86,626b377229c10585ec392f8a,626b3ae8275347288cedf7de,,,,,,,,,,,,,,,,,,,,,,,l,0,0.6437,"[""0.864"",""0.373"",""0.770"",""0.907""]","[0,1,1,1]",0,63,63,63,1,0,1,,,0,FALSE,,,,,,,,,,,,,,,,,,,,,,,,,,,,,,
,6127ac6a1e736c1c5c65cd86,001,2022-04-29_03h10.33.198,classification_task,2021.2.3,Win32,59.13310863,6127ac6a1e736c1c5c65cd86,626b377229c10585ec392f8a,626b3ae8275347288cedf7de,,,,,,,,,,,,,,,,,,,,,,,,,,,,,,,,,,,,,,,0, ,,0,,,0,2,2,2,1,2,3,,,,,,,,,,,,,,,,,
,6127ac6a1e736c1c5c65cd86,001,2022-04-29_03h10.33.198,classification_task,2021.2.3,Win32,59.13310863,6127ac6a1e736c1c5c65cd86,626b377229c10585ec392f8a,626b3ae8275347288cedf7de,,,,,,,,,,,,,,,,,,,,,,,,,,,,,,,,,,,,,,,1,  ,,0,,,0,2,2,2,1,2,3,,,,,,,,,,,,,,,,,
,6127ac6a1e736c1c5c65cd86,001,2022-04-29_03h10.33.198,classification_task,2021.2.3,Win32,59.13310863,6127ac6a1e736c1c5c65cd86,626b377229c10585ec392f8a,626b3ae8275347288cedf7de,,,,,,,,,,,,,,,,,,,,,,,,,,,,,,,,,,,,,,,2,  ,,0,,,0,2,2,2,1,2,3,,,,,,,,,,,,,,,,,
,6127ac6a1e736c1c5c65cd86,001,2022-04-29_03h10.33.198,classification_task,2021.2.3,Win32,59.13310863,6127ac6a1e736c1c5c65cd86,626b377229c10585ec392f8a,626b3ae8275347288cedf7de,,,,,,,,,,,,,,,,,,,,,,,,,,,,,,,,,,,,,,,,,,,,,0,2,2,2,1,,3,,,,,,,,,,,,,,,,,
,6127ac6a1e736c1c5c65cd86,001,2022-04-29_03h10.33.198,classification_task,2021.2.3,Win32,59.13310863,6127ac6a1e736c1c5c65cd86,626b377229c10585ec392f8a,626b3ae8275347288cedf7de,,,,,,,,,,,,,,,,,,,,,,,,,,,,,,,,,,,,,,,,,,,,,,,,,,,,,I believe the aid is a competent performer,,0.7,0,3,737.7132,0,0,0,0,1,0,,,,
,6127ac6a1e736c1c5c65cd86,001,2022-04-29_03h10.33.198,classification_task,2021.2.3,Win32,59.13310863,6127ac6a1e736c1c5c65cd86,626b377229c10585ec392f8a,626b3ae8275347288cedf7de,,,,,,,,,,,,,,,,,,,,,,,,,,,,,,,,,,,,,,,,,,,,,,,,,,,,,I trust the aid,,0.7,0,1,741.2576,0,0,0,0,1,0,,,,
,6127ac6a1e736c1c5c65cd86,001,2022-04-29_03h10.33.198,classification_task,2021.2.3,Win32,59.13310863,6127ac6a1e736c1c5c65cd86,626b377229c10585ec392f8a,626b3ae8275347288cedf7de,,,,,,,,,,,,,,,,,,,,,,,,,,,,,,,,,,,,,,,,,,,,,,,,,,,,,I have confidence in the advice given by the aid,,0.7,0,3,743.8208,0,0,0,0,1,0,,,,
,6127ac6a1e736c1c5c65cd86,001,2022-04-29_03h10.33.198,classification_task,2021.2.3,Win32,59.13310863,6127ac6a1e736c1c5c65cd86,626b377229c10585ec392f8a,626b3ae8275347288cedf7de,,,,,,,,,,,,,,,,,,,,,,,,,,,,,,,,,,,,,,,,,,,,,,,,,,,,,I can depend on the aid,,0.7,0,2,748.5862,0,0,0,0,1,0,,,,
,6127ac6a1e736c1c5c65cd86,001,2022-04-29_03h10.33.198,classification_task,2021.2.3,Win32,59.13310863,6127ac6a1e736c1c5c65cd86,626b377229c10585ec392f8a,626b3ae8275347288cedf7de,,,,,,,,,,,,,,,,,,,,,,,,,,,,,,,,,,,,,,,,,,,,,,,,,,,,,I can rely on the aid to behave in consistent ways,,0.7,0,3,752.7119,0,0,0,0,1,0,,,,
,6127ac6a1e736c1c5c65cd86,001,2022-04-29_03h10.33.198,classification_task,2021.2.3,Win32,59.13310863,6127ac6a1e736c1c5c65cd86,626b377229c10585ec392f8a,626b3ae8275347288cedf7de,,,,,,,,,,,,,,,,,,,,,,,,,,,,,,,,,,,,,,,,,,,,,,,,,,,,,I can rely on the aid to do its best every time I take its advice,,0.7,0,3,763.3484,0,0,0,0,1,0,,,,
,6127ac6a1e736c1c5c65cd86,001,2022-04-29_03h10.33.198,classification_task,2021.2.3,Win32,59.13310863,6127ac6a1e736c1c5c65cd86,626b377229c10585ec392f8a,626b3ae8275347288cedf7de,,,,,,,,,,,,,,,,,,,,,,,,,,,,,,,,,,,,,,,,,,,,,,,,,,,,,"On trials you completed with assistance from the aid, how frequently did you think the aid was correct?",,0.7,0,FEW TIMES,,0,0,0,0,1,0,,,,
,6127ac6a1e736c1c5c65cd86,001,2022-04-29_03h10.33.198,classification_task,2021.2.3,Win32,59.13310863,6127ac6a1e736c1c5c65cd86,626b377229c10585ec392f8a,626b3ae8275347288cedf7de,,,,,,,,,,,,,,,,,,,,,,,,,,,,,,,,,,,,,,,,,,,,,,,,,,,,,"On trials you completed without the aid, how frequently did you think you were correct?",,0.7,0,FEW TIMES,,0,0,0,0,1,0,,,,
,6127ac6a1e736c1c5c65cd86,001,2022-04-29_03h10.33.198,classification_task,2021.2.3,Win32,59.13310863,6127ac6a1e736c1c5c65cd86,626b377229c10585ec392f8a,626b3ae8275347288cedf7de,,,,,,,,,,,,,,,,,,,,,,,,,,,,,,,,,,,,,,,,,,,,,,,,,,,,,,,,,,,0,0,0,0,1,,,,,
,6127ac6a1e736c1c5c65cd86,001,2022-04-29_03h10.33.198,classification_task,2021.2.3,Win32,59.13310863,6127ac6a1e736c1c5c65cd86,626b377229c10585ec392f8a,626b3ae8275347288cedf7de,,,,,,,,,,,,,,,,,,,,,,,,,,,,,,,,,,,,,,,,,,,,,,,,,,,,,,,,,,,,,,,,,space,6.4822,805.1967,
,6127ac6a1e736c1c5c65cd86,001,2022-04-29_03h10.33.198,classification_task,2021.2.3,Win32,59.13310863,6127ac6a1e736c1c5c65cd86,626b377229c10585ec392f8a,626b3ae8275347288cedf7de,,,,,,,,,,,,,,,,,,,,,,,,,,,,,,,,,,,,,,,,,,,,,,,,,,,,,,,,,,,,,,,,,,,,"Mozilla/5.0 (Windows NT 10.0; Win64; x64) AppleWebKit/537.36 (KHTML, like Gecko) Chrome/100.0.4896.127 Safari/537.36"
