usingWebGL,participant,session,date,expName,psychopyVersion,OS,frameRate,PROLIFIC_PID,STUDY_ID,SESSION_ID,signatures_friend,signatures_foe,band_ranges_top,band_ranges_bottom,formitemText,formtype,formundefined,formitemWidth,formindex,formresponse,formrt,key_resp_2.keys,key_resp_2.rt,tute_resp.keys,tute_resp.rt,tutorial.thisRepN,tutorial.thisTrialN,tutorial.thisN,tutorial.thisIndex,tutorial.ran,key_resp_4.keys,key_resp_4.rt,key_resp.keys,key_resp.corr,key_resp.rt,lines_presented,is_signal_presented,trials.thisRepN,trials.thisTrialN,trials.thisN,trials.thisIndex,trials.ran,vessel,active_band,lines,is_signal,supported_pos,catch_trial,debrief_formindex,debrief_formitemText,debrief_formtype,debrief_formitemWidth,debrief_formresponse,debrief_formrt,phases.thisRepN,phases.thisTrialN,phases.thisN,phases.thisIndex,phases.ran,phases.order,phase,key_resp_3.keys,trustitemText,trusttype,trustitemWidth,trustindex,trustresponse,trustrt,support_status.thisRepN,support_status.thisTrialN,support_status.thisN,support_status.thisIndex,support_status.ran,support_status.order,key_resp_5.keys,key_resp_5.rt,globalClockTime,userAgent
TRUE,6129dc084c55f609fd62f0bc,001,2022-04-29_03h08.15.898,classification_task,2021.2.3,Win32,60.12506013,6129dc084c55f609fd62f0bc,626b377229c10585ec392f8a,626b3a611b86b109f7115cbb,,,,,,,,,,,,,,,,,,,,,,,,,,,,,,,,,,,,,,,,,,,,,,,,,,,,,,,,,,,,,,,,,,,,
,6129dc084c55f609fd62f0bc,001,2022-04-29_03h08.15.898,classification_task,2021.2.3,Win32,60.12506013,6129dc084c55f609fd62f0bc,626b377229c10585ec392f8a,626b3a611b86b109f7115cbb,"[[""0.274"",""0.445"",""0.912"",""0.967""],[""0.321"",""0.407"",""0.657"",""0.871""]]","[[""0.051"",""0.188"",""0.497"",""0.731""],[""0.150"",""0.228"",""0.560"",""0.837""]]","[1,10]","[100,1000]",Video game experience,,,0.7,0,,,,,,,,,,,,,,,,,,,,,,,,,,,,,,,,,,,,,,,,,,,,,,,,,,,,,,,,,,,
,6129dc084c55f609fd62f0bc,001,2022-04-29_03h08.15.898,classification_task,2021.2.3,Win32,60.12506013,6129dc084c55f609fd62f0bc,626b377229c10585ec392f8a,626b3a611b86b109f7115cbb,,,,,Approximately how many hours did you spend playing video games in the last week?,,,0.7,0,30,,,,,,,,,,,,,,,,,,,,,,,,,,,,,,,,,,,,,,,,,,,,,,,,,,,,,,,,,,
,6129dc084c55f609fd62f0bc,001,2022-04-29_03h08.15.898,classification_task,2021.2.3,Win32,60.12506013,6129dc084c55f609fd62f0bc,626b377229c10585ec392f8a,626b3a611b86b109f7115cbb,,,,,"Which game did you play the most this year? (Enter ""None"" if you didn't play any)",,,0.7,0,candy crush,,,,,,,,,,,,,,,,,,,,,,,,,,,,,,,,,,,,,,,,,,,,,,,,,,,,,,,,,,
,6129dc084c55f609fd62f0bc,001,2022-04-29_03h08.15.898,classification_task,2021.2.3,Win32,60.12506013,6129dc084c55f609fd62f0bc,626b377229c10585ec392f8a,626b3a611b86b109f7115cbb,,,,,Visual perception,,,0.7,0,,,,,,,,,,,,,,,,,,,,,,,,,,,,,,,,,,,,,,,,,,,,,,,,,,,,,,,,,,,
,6129dc084c55f609fd62f0bc,001,2022-04-29_03h08.15.898,classification_task,2021.2.3,Win32,60.12506013,6129dc084c55f609fd62f0bc,626b377229c10585ec392f8a,626b3a611b86b109f7115cbb,,,,,Do you have any form of color blindness?,,,0.7,0,No,31.7022,,,,,,,,,,,,,,,,,,,,,,,,,,,,,,,,,,,,,,,,,,,,,,,,,,,,,,,,,
,6129dc084c55f609fd62f0bc,001,2022-04-29_03h08.15.898,classification_task,2021.2.3,Win32,60.12506013,6129dc084c55f609fd62f0bc,626b377229c10585ec392f8a,626b3a611b86b109f7115cbb,,,,,Do you use software to change the colour temperature of your screen (e.g. f.lux)?,,,0.7,0,No,36.9484,,,,,,,,,,,,,,,,,,,,,,,,,,,,,,,,,,,,,,,,,,,,,,,,,,,,,,,,,
,6129dc084c55f609fd62f0bc,001,2022-04-29_03h08.15.898,classification_task,2021.2.3,Win32,60.12506013,6129dc084c55f609fd62f0bc,626b377229c10585ec392f8a,626b3a611b86b109f7115cbb,,,,,,,,,,,,space,12.0311,space,8.6457,0,0,0,0,1,,,,,,,,,,,,,,,,,,,,,,,,,,,,,,,,,,,,,,,,,,,,,,,,
,6129dc084c55f609fd62f0bc,001,2022-04-29_03h08.15.898,classification_task,2021.2.3,Win32,60.12506013,6129dc084c55f609fd62f0bc,626b377229c10585ec392f8a,626b3a611b86b109f7115cbb,,,,,,,,,,,,,,space,25.1807,1,0,1,0,1,,,,,,,,,,,,,,,,,,,,,,,,,,,,,,,,,,,,,,,,,,,,,,,,
,6129dc084c55f609fd62f0bc,001,2022-04-29_03h08.15.898,classification_task,2021.2.3,Win32,60.12506013,6129dc084c55f609fd62f0bc,626b377229c10585ec392f8a,626b3a611b86b109f7115cbb,,,,,,,,,,,,,,space,11.0453,2,0,2,0,1,,,,,,,,,,,,,,,,,,,,,,,,,,,,,,,,,,,,,,,,,,,,,,,,
,6129dc084c55f609fd62f0bc,001,2022-04-29_03h08.15.898,classification_task,2021.2.3,Win32,60.12506013,6129dc084c55f609fd62f0bc,626b377229c10585ec392f8a,626b3a611b86b109f7115cbb,,,,,,,,,,,,,,space,51.3793,3,0,3,0,1,,,,,,,,,,,,,,,,,,,,,,,,,,,,,,,,,,,,,,,,,,,,,,,,
,6129dc084c55f609fd62f0bc,001,2022-04-29_03h08.15.898,classification_task,2021.2.3,Win32,60.12506013,6129dc084c55f609fd62f0bc,626b377229c10585ec392f8a,626b3a611b86b109f7115cbb,,,,,,,,,,,,,,space,30.9477,4,0,4,0,1,,,,,,,,,,,,,,,,,,,,,,,,,,,,,,,,,,,,,,,,,,,,,,,,
,6129dc084c55f609fd62f0bc,001,2022-04-29_03h08.15.898,classification_task,2021.2.3,Win32,60.12506013,6129dc084c55f609fd62f0bc,626b377229c10585ec392f8a,626b3a611b86b109f7115cbb,,,,,,,,,,,,,,,,,,,,,space,11.4595,a,0,2.4023,"[""0.051"",""0.091"",""0.497"",""0.731""]","[1,0,1,1]",0,0,0,0,1,1,0,,,0,FALSE,,,,,,,,,,,,,,,,,,,,,,,,,,,,,,
,6129dc084c55f609fd62f0bc,001,2022-04-29_03h08.15.898,classification_task,2021.2.3,Win32,60.12506013,6129dc084c55f609fd62f0bc,626b377229c10585ec392f8a,626b3a611b86b109f7115cbb,,,,,,,,,,,,,,,,,,,,,,,a,1,2.7805,"[""0.321"",""0.093"",""0.657"",""0.871""]","[1,0,1,1]",0,1,1,1,1,0,1,,,0,FALSE,,,,,,,,,,,,,,,,,,,,,,,,,,,,,,
,6129dc084c55f609fd62f0bc,001,2022-04-29_03h08.15.898,classification_task,2021.2.3,Win32,60.12506013,6129dc084c55f609fd62f0bc,626b377229c10585ec392f8a,626b3a611b86b109f7115cbb,,,,,,,,,,,,,,,,,,,,,,,l,1,1.1531,"[""0.595"",""0.188"",""0.497"",""0.731""]","[0,1,1,1]",0,2,2,2,1,1,0,,,0,FALSE,,,,,,,,,,,,,,,,,,,,,,,,,,,,,,
,6129dc084c55f609fd62f0bc,001,2022-04-29_03h08.15.898,classification_task,2021.2.3,Win32,60.12506013,6129dc084c55f609fd62f0bc,626b377229c10585ec392f8a,626b3a611b86b109f7115cbb,,,,,,,,,,,,,,,,,,,,,,,a,0,0.8046,"[""0.150"",""0.595"",""0.560"",""0.837""]","[1,0,1,1]",0,3,3,3,1,1,1,,,0,FALSE,,,,,,,,,,,,,,,,,,,,,,,,,,,,,,
,6129dc084c55f609fd62f0bc,001,2022-04-29_03h08.15.898,classification_task,2021.2.3,Win32,60.12506013,6129dc084c55f609fd62f0bc,626b377229c10585ec392f8a,626b3a611b86b109f7115cbb,,,,,,,,,,,,,,,,,,,,,,,a,1,1.0779,"[""0.612"",""0.407"",""0.657"",""0.871""]","[0,1,1,1]",0,4,4,4,1,0,1,,,0,FALSE,,,,,,,,,,,,,,,,,,,,,,,,,,,,,,
,6129dc084c55f609fd62f0bc,001,2022-04-29_03h08.15.898,classification_task,2021.2.3,Win32,60.12506013,6129dc084c55f609fd62f0bc,626b377229c10585ec392f8a,626b3a611b86b109f7115cbb,,,,,,,,,,,,,,,,,,,,,,,a,1,0.5968,"[""0.321"",""0.407"",""0.657"",""0.800""]","[1,1,1,0]",0,5,5,5,1,0,1,,,0,FALSE,,,,,,,,,,,,,,,,,,,,,,,,,,,,,,
,6129dc084c55f609fd62f0bc,001,2022-04-29_03h08.15.898,classification_task,2021.2.3,Win32,60.12506013,6129dc084c55f609fd62f0bc,626b377229c10585ec392f8a,626b3a611b86b109f7115cbb,,,,,,,,,,,,,,,,,,,,,,,a,0,0.5305,"[""0.150"",""0.228"",""0.110"",""0.837""]","[1,1,0,1]",0,6,6,6,1,1,1,,,0,FALSE,,,,,,,,,,,,,,,,,,,,,,,,,,,,,,
,6129dc084c55f609fd62f0bc,001,2022-04-29_03h08.15.898,classification_task,2021.2.3,Win32,60.12506013,6129dc084c55f609fd62f0bc,626b377229c10585ec392f8a,626b3a611b86b109f7115cbb,,,,,,,,,,,,,,,,,,,,,,,a,1,0.5464,"[""0.321"",""0.407"",""0.595"",""0.871""]","[1,1,0,1]",0,7,7,7,1,0,1,,,0,FALSE,,,,,,,,,,,,,,,,,,,,,,,,,,,,,,
,6129dc084c55f609fd62f0bc,001,2022-04-29_03h08.15.898,classification_task,2021.2.3,Win32,60.12506013,6129dc084c55f609fd62f0bc,626b377229c10585ec392f8a,626b3a611b86b109f7115cbb,,,,,,,,,,,,,,,,,,,,,,,l,1,0.605,"[""0.051"",""0.188"",""0.497"",""0.110""]","[1,1,1,0]",0,8,8,8,1,1,0,,,0,FALSE,,,,,,,,,,,,,,,,,,,,,,,,,,,,,,
,6129dc084c55f609fd62f0bc,001,2022-04-29_03h08.15.898,classification_task,2021.2.3,Win32,60.12506013,6129dc084c55f609fd62f0bc,626b377229c10585ec392f8a,626b3a611b86b109f7115cbb,,,,,,,,,,,,,,,,,,,,,,,a,0,0.7641,"[""0.150"",""0.228"",""0.560"",""0.619""]","[1,1,1,0]",0,9,9,9,1,1,1,,,0,FALSE,,,,,,,,,,,,,,,,,,,,,,,,,,,,,,
,6129dc084c55f609fd62f0bc,001,2022-04-29_03h08.15.898,classification_task,2021.2.3,Win32,60.12506013,6129dc084c55f609fd62f0bc,626b377229c10585ec392f8a,626b3a611b86b109f7115cbb,,,,,,,,,,,,,,,,,,,,,,,l,0,3.8357,"[""0.274"",""0.800"",""0.912"",""0.967""]","[1,0,1,1]",0,10,10,10,1,0,0,,,0,FALSE,,,,,,,,,,,,,,,,,,,,,,,,,,,,,,
,6129dc084c55f609fd62f0bc,001,2022-04-29_03h08.15.898,classification_task,2021.2.3,Win32,60.12506013,6129dc084c55f609fd62f0bc,626b377229c10585ec392f8a,626b3a611b86b109f7115cbb,,,,,,,,,,,,,,,,,,,,,,,l,1,1.2403,"[""0.051"",""0.188"",""0.777"",""0.731""]","[1,1,0,1]",0,11,11,11,1,1,0,,,0,FALSE,,,,,,,,,,,,,,,,,,,,,,,,,,,,,,
,6129dc084c55f609fd62f0bc,001,2022-04-29_03h08.15.898,classification_task,2021.2.3,Win32,60.12506013,6129dc084c55f609fd62f0bc,626b377229c10585ec392f8a,626b3a611b86b109f7115cbb,,,,,,,,,,,,,,,,,,,,,,,l,0,2.8849,"[""0.619"",""0.445"",""0.912"",""0.967""]","[0,1,1,1]",0,12,12,12,1,0,0,,,0,FALSE,,,,,,,,,,,,,,,,,,,,,,,,,,,,,,
,6129dc084c55f609fd62f0bc,001,2022-04-29_03h08.15.898,classification_task,2021.2.3,Win32,60.12506013,6129dc084c55f609fd62f0bc,626b377229c10585ec392f8a,626b3a611b86b109f7115cbb,,,,,,,,,,,,,,,,,,,,,,,l,0,1.4835,"[""0.274"",""0.445"",""0.804"",""0.967""]","[1,1,0,1]",0,13,13,13,1,0,0,,,0,FALSE,,,,,,,,,,,,,,,,,,,,,,,,,,,,,,
,6129dc084c55f609fd62f0bc,001,2022-04-29_03h08.15.898,classification_task,2021.2.3,Win32,60.12506013,6129dc084c55f609fd62f0bc,626b377229c10585ec392f8a,626b3a611b86b109f7115cbb,,,,,,,,,,,,,,,,,,,,,,,a,1,1.4645,"[""0.274"",""0.445"",""0.912"",""0.800""]","[1,1,1,0]",0,14,14,14,1,0,0,,,0,FALSE,,,,,,,,,,,,,,,,,,,,,,,,,,,,,,
,6129dc084c55f609fd62f0bc,001,2022-04-29_03h08.15.898,classification_task,2021.2.3,Win32,60.12506013,6129dc084c55f609fd62f0bc,626b377229c10585ec392f8a,626b3a611b86b109f7115cbb,,,,,,,,,,,,,,,,,,,,,,,l,1,1.2349,"[""0.777"",""0.228"",""0.560"",""0.837""]","[0,1,1,1]",0,15,15,15,1,1,1,,,0,FALSE,,,,,,,,,,,,,,,,,,,,,,,,,,,,,,
,6129dc084c55f609fd62f0bc,001,2022-04-29_03h08.15.898,classification_task,2021.2.3,Win32,60.12506013,6129dc084c55f609fd62f0bc,626b377229c10585ec392f8a,626b3a611b86b109f7115cbb,,,,,,,,,,,,,,,,,,,,,,,l,0,1.7838,"[""0.274"",""0.093"",""0.912"",""0.967""]","[1,0,1,1]",0,16,16,16,1,0,0,,,0,FALSE,,,,,,,,,,,,,,,,,,,,,,,,,,,,,,
,6129dc084c55f609fd62f0bc,001,2022-04-29_03h08.15.898,classification_task,2021.2.3,Win32,60.12506013,6129dc084c55f609fd62f0bc,626b377229c10585ec392f8a,626b3a611b86b109f7115cbb,,,,,,,,,,,,,,,,,,,,,,,a,0,1.3259,"[""0.150"",""0.228"",""0.110"",""0.837""]","[1,1,0,1]",0,17,17,17,1,1,1,,,0,FALSE,,,,,,,,,,,,,,,,,,,,,,,,,,,,,,
,6129dc084c55f609fd62f0bc,001,2022-04-29_03h08.15.898,classification_task,2021.2.3,Win32,60.12506013,6129dc084c55f609fd62f0bc,626b377229c10585ec392f8a,626b3a611b86b109f7115cbb,,,,,,,,,,,,,,,,,,,,,,,l,0,1.1306,"[""0.595"",""0.407"",""0.657"",""0.871""]","[0,1,1,1]",0,18,18,18,1,0,1,,,0,FALSE,,,,,,,,,,,,,,,,,,,,,,,,,,,,,,
,6129dc084c55f609fd62f0bc,001,2022-04-29_03h08.15.898,classification_task,2021.2.3,Win32,60.12506013,6129dc084c55f609fd62f0bc,626b377229c10585ec392f8a,626b3a611b86b109f7115cbb,,,,,,,,,,,,,,,,,,,,,,,a,1,0.5716,"[""0.274"",""0.445"",""0.765"",""0.967""]","[1,1,0,1]",0,19,19,19,1,0,0,,,0,FALSE,,,,,,,,,,,,,,,,,,,,,,,,,,,,,,
,6129dc084c55f609fd62f0bc,001,2022-04-29_03h08.15.898,classification_task,2021.2.3,Win32,60.12506013,6129dc084c55f609fd62f0bc,626b377229c10585ec392f8a,626b3a611b86b109f7115cbb,,,,,,,,,,,,,,,,,,,,,,,a,0,1.015,"[""0.051"",""0.188"",""0.619"",""0.731""]","[1,1,0,1]",0,20,20,20,1,1,0,,,0,FALSE,,,,,,,,,,,,,,,,,,,,,,,,,,,,,,
,6129dc084c55f609fd62f0bc,001,2022-04-29_03h08.15.898,classification_task,2021.2.3,Win32,60.12506013,6129dc084c55f609fd62f0bc,626b377229c10585ec392f8a,626b3a611b86b109f7115cbb,,,,,,,,,,,,,,,,,,,,,,,l,1,2.7648,"[""0.800"",""0.228"",""0.560"",""0.837""]","[0,1,1,1]",0,21,21,21,1,1,1,,,0,FALSE,,,,,,,,,,,,,,,,,,,,,,,,,,,,,,
,6129dc084c55f609fd62f0bc,001,2022-04-29_03h08.15.898,classification_task,2021.2.3,Win32,60.12506013,6129dc084c55f609fd62f0bc,626b377229c10585ec392f8a,626b3a611b86b109f7115cbb,,,,,,,,,,,,,,,,,,,,,,,a,1,2.3111,"[""0.274"",""0.445"",""0.912"",""0.619""]","[1,1,1,0]",0,22,22,22,1,0,0,,,0,FALSE,,,,,,,,,,,,,,,,,,,,,,,,,,,,,,
,6129dc084c55f609fd62f0bc,001,2022-04-29_03h08.15.898,classification_task,2021.2.3,Win32,60.12506013,6129dc084c55f609fd62f0bc,626b377229c10585ec392f8a,626b3a611b86b109f7115cbb,,,,,,,,,,,,,,,,,,,,,,,l,0,2.1362,"[""0.321"",""0.110"",""0.657"",""0.871""]","[1,0,1,1]",0,23,23,23,1,0,1,,,0,FALSE,,,,,,,,,,,,,,,,,,,,,,,,,,,,,,
,6129dc084c55f609fd62f0bc,001,2022-04-29_03h08.15.898,classification_task,2021.2.3,Win32,60.12506013,6129dc084c55f609fd62f0bc,626b377229c10585ec392f8a,626b3a611b86b109f7115cbb,,,,,,,,,,,,,,,,,,,,,,,l,0,2.1277,"[""0.321"",""0.407"",""0.101"",""0.871""]","[1,1,0,1]",0,24,24,24,1,0,1,,,0,FALSE,,,,,,,,,,,,,,,,,,,,,,,,,,,,,,
,6129dc084c55f609fd62f0bc,001,2022-04-29_03h08.15.898,classification_task,2021.2.3,Win32,60.12506013,6129dc084c55f609fd62f0bc,626b377229c10585ec392f8a,626b3a611b86b109f7115cbb,,,,,,,,,,,,,,,,,,,,,,,a,0,1.6452,"[""0.362"",""0.188"",""0.497"",""0.731""]","[0,1,1,1]",0,25,25,25,1,1,0,,,0,FALSE,,,,,,,,,,,,,,,,,,,,,,,,,,,,,,
,6129dc084c55f609fd62f0bc,001,2022-04-29_03h08.15.898,classification_task,2021.2.3,Win32,60.12506013,6129dc084c55f609fd62f0bc,626b377229c10585ec392f8a,626b3a611b86b109f7115cbb,,,,,,,,,,,,,,,,,,,,,,,l,1,1.8143,"[""0.051"",""0.188"",""0.497"",""0.101""]","[1,1,1,0]",0,26,26,26,1,1,0,,,0,FALSE,,,,,,,,,,,,,,,,,,,,,,,,,,,,,,
,6129dc084c55f609fd62f0bc,001,2022-04-29_03h08.15.898,classification_task,2021.2.3,Win32,60.12506013,6129dc084c55f609fd62f0bc,626b377229c10585ec392f8a,626b3a611b86b109f7115cbb,,,,,,,,,,,,,,,,,,,,,,,a,0,1.2086,"[""0.150"",""0.228"",""0.560"",""0.777""]","[1,1,1,0]",0,27,27,27,1,1,1,,,0,FALSE,,,,,,,,,,,,,,,,,,,,,,,,,,,,,,
,6129dc084c55f609fd62f0bc,001,2022-04-29_03h08.15.898,classification_task,2021.2.3,Win32,60.12506013,6129dc084c55f609fd62f0bc,626b377229c10585ec392f8a,626b3a611b86b109f7115cbb,,,,,,,,,,,,,,,,,,,,,,,a,1,2.9974,"[""0.321"",""0.407"",""0.657"",""0.619""]","[1,1,1,0]",0,28,28,28,1,0,1,,,0,FALSE,,,,,,,,,,,,,,,,,,,,,,,,,,,,,,
,6129dc084c55f609fd62f0bc,001,2022-04-29_03h08.15.898,classification_task,2021.2.3,Win32,60.12506013,6129dc084c55f609fd62f0bc,626b377229c10585ec392f8a,626b3a611b86b109f7115cbb,,,,,,,,,,,,,,,,,,,,,,,a,0,2.2121,"[""0.051"",""0.612"",""0.497"",""0.731""]","[1,0,1,1]",0,29,29,29,1,1,0,,,0,FALSE,,,,,,,,,,,,,,,,,,,,,,,,,,,,,,
,6129dc084c55f609fd62f0bc,001,2022-04-29_03h08.15.898,classification_task,2021.2.3,Win32,60.12506013,6129dc084c55f609fd62f0bc,626b377229c10585ec392f8a,626b3a611b86b109f7115cbb,,,,,,,,,,,,,,,,,,,,,,,a,1,2.747,"[""0.107"",""0.445"",""0.912"",""0.967""]","[0,1,1,1]",0,30,30,30,1,0,0,,,0,FALSE,,,,,,,,,,,,,,,,,,,,,,,,,,,,,,
,6129dc084c55f609fd62f0bc,001,2022-04-29_03h08.15.898,classification_task,2021.2.3,Win32,60.12506013,6129dc084c55f609fd62f0bc,626b377229c10585ec392f8a,626b3a611b86b109f7115cbb,,,,,,,,,,,,,,,,,,,,,,,a,0,2.2065,"[""0.150"",""0.106"",""0.560"",""0.837""]","[1,0,1,1]",0,31,31,31,1,1,1,,,0,FALSE,,,,,,,,,,,,,,,,,,,,,,,,,,,,,,
,6129dc084c55f609fd62f0bc,001,2022-04-29_03h08.15.898,classification_task,2021.2.3,Win32,60.12506013,6129dc084c55f609fd62f0bc,626b377229c10585ec392f8a,626b3a611b86b109f7115cbb,,,,,,,,,,,,,,,,,,,,,,,l,0,2.4074,"[""0.274"",""0.445"",""0.619"",""0.967""]","[1,1,0,1]",0,32,32,32,1,0,0,,,0,FALSE,,,,,,,,,,,,,,,,,,,,,,,,,,,,,,
,6129dc084c55f609fd62f0bc,001,2022-04-29_03h08.15.898,classification_task,2021.2.3,Win32,60.12506013,6129dc084c55f609fd62f0bc,626b377229c10585ec392f8a,626b3a611b86b109f7115cbb,,,,,,,,,,,,,,,,,,,,,,,a,0,0.7279,"[""0.051"",""0.188"",""0.595"",""0.731""]","[1,1,0,1]",0,33,33,33,1,1,0,,,0,FALSE,,,,,,,,,,,,,,,,,,,,,,,,,,,,,,
,6129dc084c55f609fd62f0bc,001,2022-04-29_03h08.15.898,classification_task,2021.2.3,Win32,60.12506013,6129dc084c55f609fd62f0bc,626b377229c10585ec392f8a,626b3a611b86b109f7115cbb,,,,,,,,,,,,,,,,,,,,,,,l,1,4.0678,"[""0.051"",""0.188"",""0.497"",""0.106""]","[1,1,1,0]",0,34,34,34,1,1,0,,,0,FALSE,,,,,,,,,,,,,,,,,,,,,,,,,,,,,,
,6129dc084c55f609fd62f0bc,001,2022-04-29_03h08.15.898,classification_task,2021.2.3,Win32,60.12506013,6129dc084c55f609fd62f0bc,626b377229c10585ec392f8a,626b3a611b86b109f7115cbb,,,,,,,,,,,,,,,,,,,,,,,l,1,3.2205,"[""0.595"",""0.188"",""0.497"",""0.731""]","[0,1,1,1]",0,35,35,35,1,1,0,,,0,FALSE,,,,,,,,,,,,,,,,,,,,,,,,,,,,,,
,6129dc084c55f609fd62f0bc,001,2022-04-29_03h08.15.898,classification_task,2021.2.3,Win32,60.12506013,6129dc084c55f609fd62f0bc,626b377229c10585ec392f8a,626b3a611b86b109f7115cbb,,,,,,,,,,,,,,,,,,,,,,,a,0,1.7463,"[""0.619"",""0.228"",""0.560"",""0.837""]","[0,1,1,1]",0,36,36,36,1,1,1,,,0,FALSE,,,,,,,,,,,,,,,,,,,,,,,,,,,,,,
,6129dc084c55f609fd62f0bc,001,2022-04-29_03h08.15.898,classification_task,2021.2.3,Win32,60.12506013,6129dc084c55f609fd62f0bc,626b377229c10585ec392f8a,626b3a611b86b109f7115cbb,,,,,,,,,,,,,,,,,,,,,,,l,0,1.9481,"[""0.619"",""0.445"",""0.912"",""0.967""]","[0,1,1,1]",0,37,37,37,1,0,0,,,0,FALSE,,,,,,,,,,,,,,,,,,,,,,,,,,,,,,
,6129dc084c55f609fd62f0bc,001,2022-04-29_03h08.15.898,classification_task,2021.2.3,Win32,60.12506013,6129dc084c55f609fd62f0bc,626b377229c10585ec392f8a,626b3a611b86b109f7115cbb,,,,,,,,,,,,,,,,,,,,,,,a,0,1.6208,"[""0.150"",""0.092"",""0.560"",""0.837""]","[1,0,1,1]",0,38,38,38,1,1,1,,,0,FALSE,,,,,,,,,,,,,,,,,,,,,,,,,,,,,,
,6129dc084c55f609fd62f0bc,001,2022-04-29_03h08.15.898,classification_task,2021.2.3,Win32,60.12506013,6129dc084c55f609fd62f0bc,626b377229c10585ec392f8a,626b3a611b86b109f7115cbb,,,,,,,,,,,,,,,,,,,,,,,l,1,0.6182,"[""0.150"",""0.228"",""0.619"",""0.837""]","[1,1,0,1]",0,39,39,39,1,1,1,,,0,FALSE,,,,,,,,,,,,,,,,,,,,,,,,,,,,,,
,6129dc084c55f609fd62f0bc,001,2022-04-29_03h08.15.898,classification_task,2021.2.3,Win32,60.12506013,6129dc084c55f609fd62f0bc,626b377229c10585ec392f8a,626b3a611b86b109f7115cbb,,,,,,,,,,,,,,,,,,,,,,,l,1,1.3636,"[""0.051"",""0.093"",""0.497"",""0.731""]","[1,0,1,1]",0,40,40,40,1,1,0,,,0,FALSE,,,,,,,,,,,,,,,,,,,,,,,,,,,,,,
,6129dc084c55f609fd62f0bc,001,2022-04-29_03h08.15.898,classification_task,2021.2.3,Win32,60.12506013,6129dc084c55f609fd62f0bc,626b377229c10585ec392f8a,626b3a611b86b109f7115cbb,,,,,,,,,,,,,,,,,,,,,,,l,0,1.3593,"[""0.321"",""0.777"",""0.657"",""0.871""]","[1,0,1,1]",0,41,41,41,1,0,1,,,0,FALSE,,,,,,,,,,,,,,,,,,,,,,,,,,,,,,
,6129dc084c55f609fd62f0bc,001,2022-04-29_03h08.15.898,classification_task,2021.2.3,Win32,60.12506013,6129dc084c55f609fd62f0bc,626b377229c10585ec392f8a,626b3a611b86b109f7115cbb,,,,,,,,,,,,,,,,,,,,,,,a,1,0.3848,"[""0.321"",""0.407"",""0.657"",""0.110""]","[1,1,1,0]",0,42,42,42,1,0,1,,,0,FALSE,,,,,,,,,,,,,,,,,,,,,,,,,,,,,,
,6129dc084c55f609fd62f0bc,001,2022-04-29_03h08.15.898,classification_task,2021.2.3,Win32,60.12506013,6129dc084c55f609fd62f0bc,626b377229c10585ec392f8a,626b3a611b86b109f7115cbb,,,,,,,,,,,,,,,,,,,,,,,a,1,0.8462,"[""0.274"",""0.101"",""0.912"",""0.967""]","[1,0,1,1]",0,43,43,43,1,0,0,,,0,FALSE,,,,,,,,,,,,,,,,,,,,,,,,,,,,,,
,6129dc084c55f609fd62f0bc,001,2022-04-29_03h08.15.898,classification_task,2021.2.3,Win32,60.12506013,6129dc084c55f609fd62f0bc,626b377229c10585ec392f8a,626b3a611b86b109f7115cbb,,,,,,,,,,,,,,,,,,,,,,,l,0,1.0131,"[""0.321"",""0.407"",""0.619"",""0.871""]","[1,1,0,1]",0,44,44,44,1,0,1,,,0,FALSE,,,,,,,,,,,,,,,,,,,,,,,,,,,,,,
,6129dc084c55f609fd62f0bc,001,2022-04-29_03h08.15.898,classification_task,2021.2.3,Win32,60.12506013,6129dc084c55f609fd62f0bc,626b377229c10585ec392f8a,626b3a611b86b109f7115cbb,,,,,,,,,,,,,,,,,,,,,,,a,1,0.8809,"[""0.274"",""0.445"",""0.912"",""0.107""]","[1,1,1,0]",0,45,45,45,1,0,0,,,0,FALSE,,,,,,,,,,,,,,,,,,,,,,,,,,,,,,
,6129dc084c55f609fd62f0bc,001,2022-04-29_03h08.15.898,classification_task,2021.2.3,Win32,60.12506013,6129dc084c55f609fd62f0bc,626b377229c10585ec392f8a,626b3a611b86b109f7115cbb,,,,,,,,,,,,,,,,,,,,,,,a,0,1.1297,"[""0.150"",""0.228"",""0.560"",""0.362""]","[1,1,1,0]",0,46,46,46,1,1,1,,,0,FALSE,,,,,,,,,,,,,,,,,,,,,,,,,,,,,,
,6129dc084c55f609fd62f0bc,001,2022-04-29_03h08.15.898,classification_task,2021.2.3,Win32,60.12506013,6129dc084c55f609fd62f0bc,626b377229c10585ec392f8a,626b3a611b86b109f7115cbb,,,,,,,,,,,,,,,,,,,,,,,l,0,0.3641,"[""0.091"",""0.407"",""0.657"",""0.871""]","[0,1,1,1]",0,47,47,47,1,0,1,,,0,FALSE,,,,,,,,,,,,,,,,,,,,,,,,,,,,,,
,6129dc084c55f609fd62f0bc,001,2022-04-29_03h08.15.898,classification_task,2021.2.3,Win32,60.12506013,6129dc084c55f609fd62f0bc,626b377229c10585ec392f8a,626b3a611b86b109f7115cbb,,,,,,,,,,,,,,,,,,,,,,,l,0,0.597,"[""0.321"",""0.407"",""0.657"",""0.107""]","[1,1,1,0]",0,48,48,48,1,0,1,,,0,FALSE,,,,,,,,,,,,,,,,,,,,,,,,,,,,,,
,6129dc084c55f609fd62f0bc,001,2022-04-29_03h08.15.898,classification_task,2021.2.3,Win32,60.12506013,6129dc084c55f609fd62f0bc,626b377229c10585ec392f8a,626b3a611b86b109f7115cbb,,,,,,,,,,,,,,,,,,,,,,,l,1,0.5635,"[""0.051"",""0.188"",""0.497"",""0.101""]","[1,1,1,0]",0,49,49,49,1,1,0,,,0,FALSE,,,,,,,,,,,,,,,,,,,,,,,,,,,,,,
,6129dc084c55f609fd62f0bc,001,2022-04-29_03h08.15.898,classification_task,2021.2.3,Win32,60.12506013,6129dc084c55f609fd62f0bc,626b377229c10585ec392f8a,626b3a611b86b109f7115cbb,,,,,,,,,,,,,,,,,,,,,,,l,1,0.8994,"[""0.800"",""0.188"",""0.497"",""0.731""]","[0,1,1,1]",0,50,50,50,1,1,0,,,0,FALSE,,,,,,,,,,,,,,,,,,,,,,,,,,,,,,
,6129dc084c55f609fd62f0bc,001,2022-04-29_03h08.15.898,classification_task,2021.2.3,Win32,60.12506013,6129dc084c55f609fd62f0bc,626b377229c10585ec392f8a,626b3a611b86b109f7115cbb,,,,,,,,,,,,,,,,,,,,,,,l,0,0.7478,"[""0.595"",""0.445"",""0.912"",""0.967""]","[0,1,1,1]",0,51,51,51,1,0,0,,,0,FALSE,,,,,,,,,,,,,,,,,,,,,,,,,,,,,,
,6129dc084c55f609fd62f0bc,001,2022-04-29_03h08.15.898,classification_task,2021.2.3,Win32,60.12506013,6129dc084c55f609fd62f0bc,626b377229c10585ec392f8a,626b3a611b86b109f7115cbb,,,,,,,,,,,,,,,,,,,,,,,a,1,0.798,"[""0.274"",""0.445"",""0.804"",""0.967""]","[1,1,0,1]",0,52,52,52,1,0,0,,,0,FALSE,,,,,,,,,,,,,,,,,,,,,,,,,,,,,,
,6129dc084c55f609fd62f0bc,001,2022-04-29_03h08.15.898,classification_task,2021.2.3,Win32,60.12506013,6129dc084c55f609fd62f0bc,626b377229c10585ec392f8a,626b3a611b86b109f7115cbb,,,,,,,,,,,,,,,,,,,,,,,a,1,0.7471,"[""0.321"",""0.407"",""0.619"",""0.871""]","[1,1,0,1]",0,53,53,53,1,0,1,,,0,FALSE,,,,,,,,,,,,,,,,,,,,,,,,,,,,,,
,6129dc084c55f609fd62f0bc,001,2022-04-29_03h08.15.898,classification_task,2021.2.3,Win32,60.12506013,6129dc084c55f609fd62f0bc,626b377229c10585ec392f8a,626b3a611b86b109f7115cbb,,,,,,,,,,,,,,,,,,,,,,,a,1,0.9799,"[""0.321"",""0.107"",""0.657"",""0.871""]","[1,0,1,1]",0,54,54,54,1,0,1,,,0,FALSE,,,,,,,,,,,,,,,,,,,,,,,,,,,,,,
,6129dc084c55f609fd62f0bc,001,2022-04-29_03h08.15.898,classification_task,2021.2.3,Win32,60.12506013,6129dc084c55f609fd62f0bc,626b377229c10585ec392f8a,626b3a611b86b109f7115cbb,,,,,,,,,,,,,,,,,,,,,,,l,1,0.9972,"[""0.051"",""0.091"",""0.497"",""0.731""]","[1,0,1,1]",0,55,55,55,1,1,0,,,0,FALSE,,,,,,,,,,,,,,,,,,,,,,,,,,,,,,
,6129dc084c55f609fd62f0bc,001,2022-04-29_03h08.15.898,classification_task,2021.2.3,Win32,60.12506013,6129dc084c55f609fd62f0bc,626b377229c10585ec392f8a,626b3a611b86b109f7115cbb,,,,,,,,,,,,,,,,,,,,,,,a,0,1.1834,"[""0.051"",""0.188"",""0.093"",""0.731""]","[1,1,0,1]",0,56,56,56,1,1,0,,,0,FALSE,,,,,,,,,,,,,,,,,,,,,,,,,,,,,,
,6129dc084c55f609fd62f0bc,001,2022-04-29_03h08.15.898,classification_task,2021.2.3,Win32,60.12506013,6129dc084c55f609fd62f0bc,626b377229c10585ec392f8a,626b3a611b86b109f7115cbb,,,,,,,,,,,,,,,,,,,,,,,l,1,1.7805,"[""0.765"",""0.228"",""0.560"",""0.837""]","[0,1,1,1]",0,57,57,57,1,1,1,,,0,FALSE,,,,,,,,,,,,,,,,,,,,,,,,,,,,,,
,6129dc084c55f609fd62f0bc,001,2022-04-29_03h08.15.898,classification_task,2021.2.3,Win32,60.12506013,6129dc084c55f609fd62f0bc,626b377229c10585ec392f8a,626b3a611b86b109f7115cbb,,,,,,,,,,,,,,,,,,,,,,,l,1,1.3195,"[""0.150"",""0.107"",""0.560"",""0.837""]","[1,0,1,1]",0,58,58,58,1,1,1,,,0,FALSE,,,,,,,,,,,,,,,,,,,,,,,,,,,,,,
,6129dc084c55f609fd62f0bc,001,2022-04-29_03h08.15.898,classification_task,2021.2.3,Win32,60.12506013,6129dc084c55f609fd62f0bc,626b377229c10585ec392f8a,626b3a611b86b109f7115cbb,,,,,,,,,,,,,,,,,,,,,,,a,1,0.8631,"[""0.274"",""0.777"",""0.912"",""0.967""]","[1,0,1,1]",0,59,59,59,1,0,0,,,0,FALSE,,,,,,,,,,,,,,,,,,,,,,,,,,,,,,
,6129dc084c55f609fd62f0bc,001,2022-04-29_03h08.15.898,classification_task,2021.2.3,Win32,60.12506013,6129dc084c55f609fd62f0bc,626b377229c10585ec392f8a,626b3a611b86b109f7115cbb,,,,,,,,,,,,,,,,,,,,,,,a,1,1.53,"[""0.362"",""0.407"",""0.657"",""0.871""]","[0,1,1,1]",0,60,60,60,1,0,1,,,0,FALSE,,,,,,,,,,,,,,,,,,,,,,,,,,,,,,
,6129dc084c55f609fd62f0bc,001,2022-04-29_03h08.15.898,classification_task,2021.2.3,Win32,60.12506013,6129dc084c55f609fd62f0bc,626b377229c10585ec392f8a,626b3a611b86b109f7115cbb,,,,,,,,,,,,,,,,,,,,,,,a,0,1.1133,"[""0.150"",""0.228"",""0.619"",""0.837""]","[1,1,0,1]",0,61,61,61,1,1,1,,,0,FALSE,,,,,,,,,,,,,,,,,,,,,,,,,,,,,,
,6129dc084c55f609fd62f0bc,001,2022-04-29_03h08.15.898,classification_task,2021.2.3,Win32,60.12506013,6129dc084c55f609fd62f0bc,626b377229c10585ec392f8a,626b3a611b86b109f7115cbb,,,,,,,,,,,,,,,,,,,,,,,a,1,1.1492,"[""0.274"",""0.445"",""0.912"",""0.800""]","[1,1,1,0]",0,62,62,62,1,0,0,,,0,FALSE,,,,,,,,,,,,,,,,,,,,,,,,,,,,,,
,6129dc084c55f609fd62f0bc,001,2022-04-29_03h08.15.898,classification_task,2021.2.3,Win32,60.12506013,6129dc084c55f609fd62f0bc,626b377229c10585ec392f8a,626b3a611b86b109f7115cbb,,,,,,,,,,,,,,,,,,,,,,,a,0,1.9802,"[""0.150"",""0.228"",""0.560"",""0.091""]","[1,1,1,0]",0,63,63,63,1,1,1,,,0,FALSE,,,,,,,,,,,,,,,,,,,,,,,,,,,,,,
,6129dc084c55f609fd62f0bc,001,2022-04-29_03h08.15.898,classification_task,2021.2.3,Win32,60.12506013,6129dc084c55f609fd62f0bc,626b377229c10585ec392f8a,626b3a611b86b109f7115cbb,,,,,,,,,,,,,,,,,,,,,,,,,,,,,,,,,,,,,,,0, ,,0,8.159905938,415.1181,0,0,0,0,1,2,1,,,,,,,,,,,,,,,,,
,6129dc084c55f609fd62f0bc,001,2022-04-29_03h08.15.898,classification_task,2021.2.3,Win32,60.12506013,6129dc084c55f609fd62f0bc,626b377229c10585ec392f8a,626b3a611b86b109f7115cbb,,,,,,,,,,,,,,,,,,,,,,,,,,,,,,,,,,,,,,,1,  ,,0,0.149911817,409.3379,0,0,0,0,1,2,1,,,,,,,,,,,,,,,,,
,6129dc084c55f609fd62f0bc,001,2022-04-29_03h08.15.898,classification_task,2021.2.3,Win32,60.12506013,6129dc084c55f609fd62f0bc,626b377229c10585ec392f8a,626b3a611b86b109f7115cbb,,,,,,,,,,,,,,,,,,,,,,,,,,,,,,,,,,,,,,,2,  ,,0,1.44816924,419.7156,0,0,0,0,1,2,1,,,,,,,,,,,,,,,,,
,6129dc084c55f609fd62f0bc,001,2022-04-29_03h08.15.898,classification_task,2021.2.3,Win32,60.12506013,6129dc084c55f609fd62f0bc,626b377229c10585ec392f8a,626b3a611b86b109f7115cbb,,,,,,,,,,,,,,,,,,,,,,,,,,,,,,,,,,,,,,,,,,,,,0,0,0,0,1,,1,,,,,,,,,,,,,,,,,
,6129dc084c55f609fd62f0bc,001,2022-04-29_03h08.15.898,classification_task,2021.2.3,Win32,60.12506013,6129dc084c55f609fd62f0bc,626b377229c10585ec392f8a,626b3a611b86b109f7115cbb,,,,,,,,,,,,,,,,,,,,,space,9.9048,a,0,5.523,"[""0.051"",""0.188"",""0.497"",""0.091""]","[1,1,1,0]",0,0,0,0,1,1,0,,,0,FALSE,,,,,,,,,,,,,,,,,,,,,,,,,,,,,,
,6129dc084c55f609fd62f0bc,001,2022-04-29_03h08.15.898,classification_task,2021.2.3,Win32,60.12506013,6129dc084c55f609fd62f0bc,626b377229c10585ec392f8a,626b3a611b86b109f7115cbb,,,,,,,,,,,,,,,,,,,,,,,a,1,2.3986,"[""0.321"",""0.101"",""0.657"",""0.871""]","[1,0,1,1]",0,1,1,1,1,0,1,,,0,FALSE,,,,,,,,,,,,,,,,,,,,,,,,,,,,,,
,6129dc084c55f609fd62f0bc,001,2022-04-29_03h08.15.898,classification_task,2021.2.3,Win32,60.12506013,6129dc084c55f609fd62f0bc,626b377229c10585ec392f8a,626b3a611b86b109f7115cbb,,,,,,,,,,,,,,,,,,,,,,,a,1,0.8509,"[""0.101"",""0.407"",""0.657"",""0.871""]","[0,1,1,1]",0,2,2,2,1,0,1,,,0,FALSE,,,,,,,,,,,,,,,,,,,,,,,,,,,,,,
,6129dc084c55f609fd62f0bc,001,2022-04-29_03h08.15.898,classification_task,2021.2.3,Win32,60.12506013,6129dc084c55f609fd62f0bc,626b377229c10585ec392f8a,626b3a611b86b109f7115cbb,,,,,,,,,,,,,,,,,,,,,,,l,1,1.0895,"[""0.051"",""0.188"",""0.619"",""0.731""]","[1,1,0,1]",0,3,3,3,1,1,0,,,0,FALSE,,,,,,,,,,,,,,,,,,,,,,,,,,,,,,
,6129dc084c55f609fd62f0bc,001,2022-04-29_03h08.15.898,classification_task,2021.2.3,Win32,60.12506013,6129dc084c55f609fd62f0bc,626b377229c10585ec392f8a,626b3a611b86b109f7115cbb,,,,,,,,,,,,,,,,,,,,,,,a,1,0.7978,"[""0.274"",""0.445"",""0.912"",""0.106""]","[1,1,1,0]",0,4,4,4,1,0,0,,,0,FALSE,,,,,,,,,,,,,,,,,,,,,,,,,,,,,,
,6129dc084c55f609fd62f0bc,001,2022-04-29_03h08.15.898,classification_task,2021.2.3,Win32,60.12506013,6129dc084c55f609fd62f0bc,626b377229c10585ec392f8a,626b3a611b86b109f7115cbb,,,,,,,,,,,,,,,,,,,,,,,l,1,2.2315,"[""0.107"",""0.228"",""0.560"",""0.837""]","[0,1,1,1]",0,5,5,5,1,1,1,,,0,FALSE,,,,,,,,,,,,,,,,,,,,,,,,,,,,,,
,6129dc084c55f609fd62f0bc,001,2022-04-29_03h08.15.898,classification_task,2021.2.3,Win32,60.12506013,6129dc084c55f609fd62f0bc,626b377229c10585ec392f8a,626b3a611b86b109f7115cbb,,,,,,,,,,,,,,,,,,,,,,,l,1,1.1938,"[""0.150"",""0.228"",""0.560"",""0.101""]","[1,1,1,0]",0,6,6,6,1,1,1,,,0,FALSE,,,,,,,,,,,,,,,,,,,,,,,,,,,,,,
,6129dc084c55f609fd62f0bc,001,2022-04-29_03h08.15.898,classification_task,2021.2.3,Win32,60.12506013,6129dc084c55f609fd62f0bc,626b377229c10585ec392f8a,626b3a611b86b109f7115cbb,,,,,,,,,,,,,,,,,,,,,,,l,1,1.3989,"[""0.150"",""0.106"",""0.560"",""0.837""]","[1,0,1,1]",0,7,7,7,1,1,1,,,0,FALSE,,,,,,,,,,,,,,,,,,,,,,,,,,,,,,
,6129dc084c55f609fd62f0bc,001,2022-04-29_03h08.15.898,classification_task,2021.2.3,Win32,60.12506013,6129dc084c55f609fd62f0bc,626b377229c10585ec392f8a,626b3a611b86b109f7115cbb,,,,,,,,,,,,,,,,,,,,,,,a,1,0.7356,"[""0.274"",""0.445"",""0.106"",""0.967""]","[1,1,0,1]",0,8,8,8,1,0,0,,,0,FALSE,,,,,,,,,,,,,,,,,,,,,,,,,,,,,,
,6129dc084c55f609fd62f0bc,001,2022-04-29_03h08.15.898,classification_task,2021.2.3,Win32,60.12506013,6129dc084c55f609fd62f0bc,626b377229c10585ec392f8a,626b3a611b86b109f7115cbb,,,,,,,,,,,,,,,,,,,,,,,l,1,1.4643,"[""0.051"",""0.595"",""0.497"",""0.731""]","[1,0,1,1]",0,9,9,9,1,1,0,,,0,FALSE,,,,,,,,,,,,,,,,,,,,,,,,,,,,,,
,6129dc084c55f609fd62f0bc,001,2022-04-29_03h08.15.898,classification_task,2021.2.3,Win32,60.12506013,6129dc084c55f609fd62f0bc,626b377229c10585ec392f8a,626b3a611b86b109f7115cbb,,,,,,,,,,,,,,,,,,,,,,,l,0,1.872,"[""0.321"",""0.407"",""0.657"",""0.777""]","[1,1,1,0]",0,10,10,10,1,0,1,,,0,FALSE,,,,,,,,,,,,,,,,,,,,,,,,,,,,,,
,6129dc084c55f609fd62f0bc,001,2022-04-29_03h08.15.898,classification_task,2021.2.3,Win32,60.12506013,6129dc084c55f609fd62f0bc,626b377229c10585ec392f8a,626b3a611b86b109f7115cbb,,,,,,,,,,,,,,,,,,,,,,,l,1,1.4513,"[""0.777"",""0.188"",""0.497"",""0.731""]","[0,1,1,1]",0,11,11,11,1,1,0,,,0,FALSE,,,,,,,,,,,,,,,,,,,,,,,,,,,,,,
,6129dc084c55f609fd62f0bc,001,2022-04-29_03h08.15.898,classification_task,2021.2.3,Win32,60.12506013,6129dc084c55f609fd62f0bc,626b377229c10585ec392f8a,626b3a611b86b109f7115cbb,,,,,,,,,,,,,,,,,,,,,,,l,1,1.1219,"[""0.150"",""0.228"",""0.093"",""0.837""]","[1,1,0,1]",0,12,12,12,1,1,1,,,0,FALSE,,,,,,,,,,,,,,,,,,,,,,,,,,,,,,
,6129dc084c55f609fd62f0bc,001,2022-04-29_03h08.15.898,classification_task,2021.2.3,Win32,60.12506013,6129dc084c55f609fd62f0bc,626b377229c10585ec392f8a,626b3a611b86b109f7115cbb,,,,,,,,,,,,,,,,,,,,,,,a,1,0.8457,"[""0.321"",""0.407"",""0.595"",""0.871""]","[1,1,0,1]",0,13,13,13,1,0,1,,,0,FALSE,,,,,,,,,,,,,,,,,,,,,,,,,,,,,,
,6129dc084c55f609fd62f0bc,001,2022-04-29_03h08.15.898,classification_task,2021.2.3,Win32,60.12506013,6129dc084c55f609fd62f0bc,626b377229c10585ec392f8a,626b3a611b86b109f7115cbb,,,,,,,,,,,,,,,,,,,,,,,a,1,1.354,"[""0.274"",""0.092"",""0.912"",""0.967""]","[1,0,1,1]",0,14,14,14,1,0,0,,,0,FALSE,,,,,,,,,,,,,,,,,,,,,,,,,,,,,,
,6129dc084c55f609fd62f0bc,001,2022-04-29_03h08.15.898,classification_task,2021.2.3,Win32,60.12506013,6129dc084c55f609fd62f0bc,626b377229c10585ec392f8a,626b3a611b86b109f7115cbb,,,,,,,,,,,,,,,,,,,,,,,a,1,0.8108,"[""0.804"",""0.445"",""0.912"",""0.967""]","[0,1,1,1]",0,15,15,15,1,0,0,,,0,FALSE,,,,,,,,,,,,,,,,,,,,,,,,,,,,,,
,6129dc084c55f609fd62f0bc,001,2022-04-29_03h08.15.898,classification_task,2021.2.3,Win32,60.12506013,6129dc084c55f609fd62f0bc,626b377229c10585ec392f8a,626b3a611b86b109f7115cbb,,,,,,,,,,,,,,,,,,,,,,,a,1,1.2143,"[""0.321"",""0.407"",""0.804"",""0.871""]","[1,1,0,1]",0,16,16,16,1,0,1,,,0,FALSE,,,,,,,,,,,,,,,,,,,,,,,,,,,,,,
,6129dc084c55f609fd62f0bc,001,2022-04-29_03h08.15.898,classification_task,2021.2.3,Win32,60.12506013,6129dc084c55f609fd62f0bc,626b377229c10585ec392f8a,626b3a611b86b109f7115cbb,,,,,,,,,,,,,,,,,,,,,,,l,1,1.4686,"[""0.051"",""0.804"",""0.497"",""0.731""]","[1,0,1,1]",0,17,17,17,1,1,0,,,0,FALSE,,,,,,,,,,,,,,,,,,,,,,,,,,,,,,
,6129dc084c55f609fd62f0bc,001,2022-04-29_03h08.15.898,classification_task,2021.2.3,Win32,60.12506013,6129dc084c55f609fd62f0bc,626b377229c10585ec392f8a,626b3a611b86b109f7115cbb,,,,,,,,,,,,,,,,,,,,,,,l,1,0.8179,"[""0.051"",""0.188"",""0.497"",""0.800""]","[1,1,1,0]",0,18,18,18,1,1,0,,,0,FALSE,,,,,,,,,,,,,,,,,,,,,,,,,,,,,,
,6129dc084c55f609fd62f0bc,001,2022-04-29_03h08.15.898,classification_task,2021.2.3,Win32,60.12506013,6129dc084c55f609fd62f0bc,626b377229c10585ec392f8a,626b3a611b86b109f7115cbb,,,,,,,,,,,,,,,,,,,,,,,l,1,1.1871,"[""0.362"",""0.228"",""0.560"",""0.837""]","[0,1,1,1]",0,19,19,19,1,1,1,,,0,FALSE,,,,,,,,,,,,,,,,,,,,,,,,,,,,,,
,6129dc084c55f609fd62f0bc,001,2022-04-29_03h08.15.898,classification_task,2021.2.3,Win32,60.12506013,6129dc084c55f609fd62f0bc,626b377229c10585ec392f8a,626b3a611b86b109f7115cbb,,,,,,,,,,,,,,,,,,,,,,,l,1,1.1739,"[""0.051"",""0.188"",""0.106"",""0.731""]","[1,1,0,1]",0,20,20,20,1,1,0,,,0,FALSE,,,,,,,,,,,,,,,,,,,,,,,,,,,,,,
,6129dc084c55f609fd62f0bc,001,2022-04-29_03h08.15.898,classification_task,2021.2.3,Win32,60.12506013,6129dc084c55f609fd62f0bc,626b377229c10585ec392f8a,626b3a611b86b109f7115cbb,,,,,,,,,,,,,,,,,,,,,,,a,1,1.2404,"[""0.092"",""0.407"",""0.657"",""0.871""]","[0,1,1,1]",0,21,21,21,1,0,1,,,0,FALSE,,,,,,,,,,,,,,,,,,,,,,,,,,,,,,
,6129dc084c55f609fd62f0bc,001,2022-04-29_03h08.15.898,classification_task,2021.2.3,Win32,60.12506013,6129dc084c55f609fd62f0bc,626b377229c10585ec392f8a,626b3a611b86b109f7115cbb,,,,,,,,,,,,,,,,,,,,,,,a,0,1.2432,"[""0.150"",""0.800"",""0.560"",""0.837""]","[1,0,1,1]",0,22,22,22,1,1,1,,,0,FALSE,,,,,,,,,,,,,,,,,,,,,,,,,,,,,,
,6129dc084c55f609fd62f0bc,001,2022-04-29_03h08.15.898,classification_task,2021.2.3,Win32,60.12506013,6129dc084c55f609fd62f0bc,626b377229c10585ec392f8a,626b3a611b86b109f7115cbb,,,,,,,,,,,,,,,,,,,,,,,a,1,1.2231,"[""0.274"",""0.445"",""0.800"",""0.967""]","[1,1,0,1]",0,23,23,23,1,0,0,,,0,FALSE,,,,,,,,,,,,,,,,,,,,,,,,,,,,,,
,6129dc084c55f609fd62f0bc,001,2022-04-29_03h08.15.898,classification_task,2021.2.3,Win32,60.12506013,6129dc084c55f609fd62f0bc,626b377229c10585ec392f8a,626b3a611b86b109f7115cbb,,,,,,,,,,,,,,,,,,,,,,,l,0,1.2071,"[""0.321"",""0.407"",""0.657"",""0.107""]","[1,1,1,0]",0,24,24,24,1,0,1,,,0,FALSE,,,,,,,,,,,,,,,,,,,,,,,,,,,,,,
,6129dc084c55f609fd62f0bc,001,2022-04-29_03h08.15.898,classification_task,2021.2.3,Win32,60.12506013,6129dc084c55f609fd62f0bc,626b377229c10585ec392f8a,626b3a611b86b109f7115cbb,,,,,,,,,,,,,,,,,,,,,,,a,0,1.3296,"[""0.150"",""0.228"",""0.101"",""0.837""]","[1,1,0,1]",0,25,25,25,1,1,1,,,0,FALSE,,,,,,,,,,,,,,,,,,,,,,,,,,,,,,
,6129dc084c55f609fd62f0bc,001,2022-04-29_03h08.15.898,classification_task,2021.2.3,Win32,60.12506013,6129dc084c55f609fd62f0bc,626b377229c10585ec392f8a,626b3a611b86b109f7115cbb,,,,,,,,,,,,,,,,,,,,,,,l,1,1.2815,"[""0.150"",""0.228"",""0.560"",""0.619""]","[1,1,1,0]",0,26,26,26,1,1,1,,,0,FALSE,,,,,,,,,,,,,,,,,,,,,,,,,,,,,,
,6129dc084c55f609fd62f0bc,001,2022-04-29_03h08.15.898,classification_task,2021.2.3,Win32,60.12506013,6129dc084c55f609fd62f0bc,626b377229c10585ec392f8a,626b3a611b86b109f7115cbb,,,,,,,,,,,,,,,,,,,,,,,a,1,1.0021,"[""0.274"",""0.445"",""0.912"",""0.110""]","[1,1,1,0]",0,27,27,27,1,0,0,,,0,FALSE,,,,,,,,,,,,,,,,,,,,,,,,,,,,,,
,6129dc084c55f609fd62f0bc,001,2022-04-29_03h08.15.898,classification_task,2021.2.3,Win32,60.12506013,6129dc084c55f609fd62f0bc,626b377229c10585ec392f8a,626b3a611b86b109f7115cbb,,,,,,,,,,,,,,,,,,,,,,,a,1,1.2238,"[""0.321"",""0.110"",""0.657"",""0.871""]","[1,0,1,1]",0,28,28,28,1,0,1,,,0,FALSE,,,,,,,,,,,,,,,,,,,,,,,,,,,,,,
,6129dc084c55f609fd62f0bc,001,2022-04-29_03h08.15.898,classification_task,2021.2.3,Win32,60.12506013,6129dc084c55f609fd62f0bc,626b377229c10585ec392f8a,626b3a611b86b109f7115cbb,,,,,,,,,,,,,,,,,,,,,,,a,1,0.7408,"[""0.619"",""0.445"",""0.912"",""0.967""]","[0,1,1,1]",0,29,29,29,1,0,0,,,0,FALSE,,,,,,,,,,,,,,,,,,,,,,,,,,,,,,
,6129dc084c55f609fd62f0bc,001,2022-04-29_03h08.15.898,classification_task,2021.2.3,Win32,60.12506013,6129dc084c55f609fd62f0bc,626b377229c10585ec392f8a,626b3a611b86b109f7115cbb,,,,,,,,,,,,,,,,,,,,,,,a,1,0.696,"[""0.274"",""0.092"",""0.912"",""0.967""]","[1,0,1,1]",0,30,30,30,1,0,0,,,0,FALSE,,,,,,,,,,,,,,,,,,,,,,,,,,,,,,
,6129dc084c55f609fd62f0bc,001,2022-04-29_03h08.15.898,classification_task,2021.2.3,Win32,60.12506013,6129dc084c55f609fd62f0bc,626b377229c10585ec392f8a,626b3a611b86b109f7115cbb,,,,,,,,,,,,,,,,,,,,,,,l,1,0.798,"[""0.091"",""0.188"",""0.497"",""0.731""]","[0,1,1,1]",0,31,31,31,1,1,0,,,0,FALSE,,,,,,,,,,,,,,,,,,,,,,,,,,,,,,
,6129dc084c55f609fd62f0bc,001,2022-04-29_03h08.15.898,classification_task,2021.2.3,Win32,60.12506013,6129dc084c55f609fd62f0bc,626b377229c10585ec392f8a,626b3a611b86b109f7115cbb,,,,,,,,,,,,,,,,,,,,,,,a,1,0.9328,"[""0.274"",""0.445"",""0.912"",""0.092""]","[1,1,1,0]",0,32,32,32,1,0,0,,,0,FALSE,,,,,,,,,,,,,,,,,,,,,,,,,,,,,,
,6129dc084c55f609fd62f0bc,001,2022-04-29_03h08.15.898,classification_task,2021.2.3,Win32,60.12506013,6129dc084c55f609fd62f0bc,626b377229c10585ec392f8a,626b3a611b86b109f7115cbb,,,,,,,,,,,,,,,,,,,,,,,l,1,1.1188,"[""0.051"",""0.092"",""0.497"",""0.731""]","[1,0,1,1]",0,33,33,33,1,1,0,,,0,FALSE,,,,,,,,,,,,,,,,,,,,,,,,,,,,,,
,6129dc084c55f609fd62f0bc,001,2022-04-29_03h08.15.898,classification_task,2021.2.3,Win32,60.12506013,6129dc084c55f609fd62f0bc,626b377229c10585ec392f8a,626b3a611b86b109f7115cbb,,,,,,,,,,,,,,,,,,,,,,,a,1,1.3233,"[""0.321"",""0.407"",""0.800"",""0.871""]","[1,1,0,1]",0,34,34,34,1,0,1,,,0,FALSE,,,,,,,,,,,,,,,,,,,,,,,,,,,,,,
,6129dc084c55f609fd62f0bc,001,2022-04-29_03h08.15.898,classification_task,2021.2.3,Win32,60.12506013,6129dc084c55f609fd62f0bc,626b377229c10585ec392f8a,626b3a611b86b109f7115cbb,,,,,,,,,,,,,,,,,,,,,,,a,1,0.8398,"[""0.274"",""0.445"",""0.106"",""0.967""]","[1,1,0,1]",0,35,35,35,1,0,0,,,0,FALSE,,,,,,,,,,,,,,,,,,,,,,,,,,,,,,
,6129dc084c55f609fd62f0bc,001,2022-04-29_03h08.15.898,classification_task,2021.2.3,Win32,60.12506013,6129dc084c55f609fd62f0bc,626b377229c10585ec392f8a,626b3a611b86b109f7115cbb,,,,,,,,,,,,,,,,,,,,,,,l,1,0.8788,"[""0.093"",""0.188"",""0.497"",""0.731""]","[0,1,1,1]",0,36,36,36,1,1,0,,,0,FALSE,,,,,,,,,,,,,,,,,,,,,,,,,,,,,,
,6129dc084c55f609fd62f0bc,001,2022-04-29_03h08.15.898,classification_task,2021.2.3,Win32,60.12506013,6129dc084c55f609fd62f0bc,626b377229c10585ec392f8a,626b3a611b86b109f7115cbb,,,,,,,,,,,,,,,,,,,,,,,a,1,2.0068,"[""0.804"",""0.407"",""0.657"",""0.871""]","[0,1,1,1]",0,37,37,37,1,0,1,,,0,FALSE,,,,,,,,,,,,,,,,,,,,,,,,,,,,,,
,6129dc084c55f609fd62f0bc,001,2022-04-29_03h08.15.898,classification_task,2021.2.3,Win32,60.12506013,6129dc084c55f609fd62f0bc,626b377229c10585ec392f8a,626b3a611b86b109f7115cbb,,,,,,,,,,,,,,,,,,,,,,,a,1,0.7942,"[""0.107"",""0.445"",""0.912"",""0.967""]","[0,1,1,1]",0,38,38,38,1,0,0,,,0,FALSE,,,,,,,,,,,,,,,,,,,,,,,,,,,,,,
,6129dc084c55f609fd62f0bc,001,2022-04-29_03h08.15.898,classification_task,2021.2.3,Win32,60.12506013,6129dc084c55f609fd62f0bc,626b377229c10585ec392f8a,626b3a611b86b109f7115cbb,,,,,,,,,,,,,,,,,,,,,,,a,1,0.6991,"[""0.274"",""0.777"",""0.912"",""0.967""]","[1,0,1,1]",0,39,39,39,1,0,0,,,0,FALSE,,,,,,,,,,,,,,,,,,,,,,,,,,,,,,
,6129dc084c55f609fd62f0bc,001,2022-04-29_03h08.15.898,classification_task,2021.2.3,Win32,60.12506013,6129dc084c55f609fd62f0bc,626b377229c10585ec392f8a,626b3a611b86b109f7115cbb,,,,,,,,,,,,,,,,,,,,,,,a,1,1.1032,"[""0.321"",""0.804"",""0.657"",""0.871""]","[1,0,1,1]",0,40,40,40,1,0,1,,,0,FALSE,,,,,,,,,,,,,,,,,,,,,,,,,,,,,,
,6129dc084c55f609fd62f0bc,001,2022-04-29_03h08.15.898,classification_task,2021.2.3,Win32,60.12506013,6129dc084c55f609fd62f0bc,626b377229c10585ec392f8a,626b3a611b86b109f7115cbb,,,,,,,,,,,,,,,,,,,,,,,l,1,0.8915,"[""0.051"",""0.188"",""0.497"",""0.800""]","[1,1,1,0]",0,41,41,41,1,1,0,,,0,FALSE,,,,,,,,,,,,,,,,,,,,,,,,,,,,,,
,6129dc084c55f609fd62f0bc,001,2022-04-29_03h08.15.898,classification_task,2021.2.3,Win32,60.12506013,6129dc084c55f609fd62f0bc,626b377229c10585ec392f8a,626b3a611b86b109f7115cbb,,,,,,,,,,,,,,,,,,,,,,,l,1,0.9563,"[""0.092"",""0.228"",""0.560"",""0.837""]","[0,1,1,1]",0,42,42,42,1,1,1,,,0,FALSE,,,,,,,,,,,,,,,,,,,,,,,,,,,,,,
,6129dc084c55f609fd62f0bc,001,2022-04-29_03h08.15.898,classification_task,2021.2.3,Win32,60.12506013,6129dc084c55f609fd62f0bc,626b377229c10585ec392f8a,626b3a611b86b109f7115cbb,,,,,,,,,,,,,,,,,,,,,,,l,1,0.7638,"[""0.150"",""0.228"",""0.560"",""0.362""]","[1,1,1,0]",0,43,43,43,1,1,1,,,0,FALSE,,,,,,,,,,,,,,,,,,,,,,,,,,,,,,
,6129dc084c55f609fd62f0bc,001,2022-04-29_03h08.15.898,classification_task,2021.2.3,Win32,60.12506013,6129dc084c55f609fd62f0bc,626b377229c10585ec392f8a,626b3a611b86b109f7115cbb,,,,,,,,,,,,,,,,,,,,,,,l,1,1.0809,"[""0.150"",""0.362"",""0.560"",""0.837""]","[1,0,1,1]",0,44,44,44,1,1,1,,,0,FALSE,,,,,,,,,,,,,,,,,,,,,,,,,,,,,,
,6129dc084c55f609fd62f0bc,001,2022-04-29_03h08.15.898,classification_task,2021.2.3,Win32,60.12506013,6129dc084c55f609fd62f0bc,626b377229c10585ec392f8a,626b3a611b86b109f7115cbb,,,,,,,,,,,,,,,,,,,,,,,l,0,0.8982,"[""0.321"",""0.407"",""0.657"",""0.101""]","[1,1,1,0]",0,45,45,45,1,0,1,,,0,FALSE,,,,,,,,,,,,,,,,,,,,,,,,,,,,,,
,6129dc084c55f609fd62f0bc,001,2022-04-29_03h08.15.898,classification_task,2021.2.3,Win32,60.12506013,6129dc084c55f609fd62f0bc,626b377229c10585ec392f8a,626b3a611b86b109f7115cbb,,,,,,,,,,,,,,,,,,,,,,,l,1,1.4465,"[""0.150"",""0.228"",""0.106"",""0.837""]","[1,1,0,1]",0,46,46,46,1,1,1,,,0,FALSE,,,,,,,,,,,,,,,,,,,,,,,,,,,,,,
,6129dc084c55f609fd62f0bc,001,2022-04-29_03h08.15.898,classification_task,2021.2.3,Win32,60.12506013,6129dc084c55f609fd62f0bc,626b377229c10585ec392f8a,626b3a611b86b109f7115cbb,,,,,,,,,,,,,,,,,,,,,,,l,1,0.9056,"[""0.051"",""0.188"",""0.093"",""0.731""]","[1,1,0,1]",0,47,47,47,1,1,0,,,0,FALSE,,,,,,,,,,,,,,,,,,,,,,,,,,,,,,
,6129dc084c55f609fd62f0bc,001,2022-04-29_03h08.15.898,classification_task,2021.2.3,Win32,60.12506013,6129dc084c55f609fd62f0bc,626b377229c10585ec392f8a,626b3a611b86b109f7115cbb,,,,,,,,,,,,,,,,,,,,,,,l,1,1.0579,"[""0.150"",""0.228"",""0.800"",""0.837""]","[1,1,0,1]",0,48,48,48,1,1,1,,,0,FALSE,,,,,,,,,,,,,,,,,,,,,,,,,,,,,,
,6129dc084c55f609fd62f0bc,001,2022-04-29_03h08.15.898,classification_task,2021.2.3,Win32,60.12506013,6129dc084c55f609fd62f0bc,626b377229c10585ec392f8a,626b3a611b86b109f7115cbb,,,,,,,,,,,,,,,,,,,,,,,l,1,0.8624,"[""0.150"",""0.777"",""0.560"",""0.837""]","[1,0,1,1]",0,49,49,49,1,1,1,,,0,FALSE,,,,,,,,,,,,,,,,,,,,,,,,,,,,,,
,6129dc084c55f609fd62f0bc,001,2022-04-29_03h08.15.898,classification_task,2021.2.3,Win32,60.12506013,6129dc084c55f609fd62f0bc,626b377229c10585ec392f8a,626b3a611b86b109f7115cbb,,,,,,,,,,,,,,,,,,,,,,,a,0,0.8081,"[""0.051"",""0.188"",""0.497"",""0.619""]","[1,1,1,0]",0,50,50,50,1,1,0,,,0,FALSE,,,,,,,,,,,,,,,,,,,,,,,,,,,,,,
,6129dc084c55f609fd62f0bc,001,2022-04-29_03h08.15.898,classification_task,2021.2.3,Win32,60.12506013,6129dc084c55f609fd62f0bc,626b377229c10585ec392f8a,626b3a611b86b109f7115cbb,,,,,,,,,,,,,,,,,,,,,,,a,1,1.8877,"[""0.321"",""0.407"",""0.092"",""0.871""]","[1,1,0,1]",0,51,51,51,1,0,1,,,0,FALSE,,,,,,,,,,,,,,,,,,,,,,,,,,,,,,
,6129dc084c55f609fd62f0bc,001,2022-04-29_03h08.15.898,classification_task,2021.2.3,Win32,60.12506013,6129dc084c55f609fd62f0bc,626b377229c10585ec392f8a,626b3a611b86b109f7115cbb,,,,,,,,,,,,,,,,,,,,,,,a,1,0.7518,"[""0.274"",""0.445"",""0.619"",""0.967""]","[1,1,0,1]",0,52,52,52,1,0,0,,,0,FALSE,,,,,,,,,,,,,,,,,,,,,,,,,,,,,,
,6129dc084c55f609fd62f0bc,001,2022-04-29_03h08.15.898,classification_task,2021.2.3,Win32,60.12506013,6129dc084c55f609fd62f0bc,626b377229c10585ec392f8a,626b3a611b86b109f7115cbb,,,,,,,,,,,,,,,,,,,,,,,a,1,0.746,"[""0.274"",""0.092"",""0.912"",""0.967""]","[1,0,1,1]",0,53,53,53,1,0,0,,,0,FALSE,,,,,,,,,,,,,,,,,,,,,,,,,,,,,,
,6129dc084c55f609fd62f0bc,001,2022-04-29_03h08.15.898,classification_task,2021.2.3,Win32,60.12506013,6129dc084c55f609fd62f0bc,626b377229c10585ec392f8a,626b3a611b86b109f7115cbb,,,,,,,,,,,,,,,,,,,,,,,a,1,0.8465,"[""0.274"",""0.445"",""0.912"",""0.107""]","[1,1,1,0]",0,54,54,54,1,0,0,,,0,FALSE,,,,,,,,,,,,,,,,,,,,,,,,,,,,,,
,6129dc084c55f609fd62f0bc,001,2022-04-29_03h08.15.898,classification_task,2021.2.3,Win32,60.12506013,6129dc084c55f609fd62f0bc,626b377229c10585ec392f8a,626b3a611b86b109f7115cbb,,,,,,,,,,,,,,,,,,,,,,,a,1,1.1567,"[""0.321"",""0.106"",""0.657"",""0.871""]","[1,0,1,1]",0,55,55,55,1,0,1,,,0,FALSE,,,,,,,,,,,,,,,,,,,,,,,,,,,,,,
,6129dc084c55f609fd62f0bc,001,2022-04-29_03h08.15.898,classification_task,2021.2.3,Win32,60.12506013,6129dc084c55f609fd62f0bc,626b377229c10585ec392f8a,626b3a611b86b109f7115cbb,,,,,,,,,,,,,,,,,,,,,,,a,1,0.8323,"[""0.800"",""0.407"",""0.657"",""0.871""]","[0,1,1,1]",0,56,56,56,1,0,1,,,0,FALSE,,,,,,,,,,,,,,,,,,,,,,,,,,,,,,
,6129dc084c55f609fd62f0bc,001,2022-04-29_03h08.15.898,classification_task,2021.2.3,Win32,60.12506013,6129dc084c55f609fd62f0bc,626b377229c10585ec392f8a,626b3a611b86b109f7115cbb,,,,,,,,,,,,,,,,,,,,,,,l,1,2.8523,"[""0.051"",""0.188"",""0.800"",""0.731""]","[1,1,0,1]",0,57,57,57,1,1,0,,,0,FALSE,,,,,,,,,,,,,,,,,,,,,,,,,,,,,,
,6129dc084c55f609fd62f0bc,001,2022-04-29_03h08.15.898,classification_task,2021.2.3,Win32,60.12506013,6129dc084c55f609fd62f0bc,626b377229c10585ec392f8a,626b3a611b86b109f7115cbb,,,,,,,,,,,,,,,,,,,,,,,l,0,0.7263,"[""0.321"",""0.407"",""0.657"",""0.093""]","[1,1,1,0]",0,58,58,58,1,0,1,,,0,FALSE,,,,,,,,,,,,,,,,,,,,,,,,,,,,,,
,6129dc084c55f609fd62f0bc,001,2022-04-29_03h08.15.898,classification_task,2021.2.3,Win32,60.12506013,6129dc084c55f609fd62f0bc,626b377229c10585ec392f8a,626b3a611b86b109f7115cbb,,,,,,,,,,,,,,,,,,,,,,,l,1,1.9394,"[""0.091"",""0.188"",""0.497"",""0.731""]","[0,1,1,1]",0,59,59,59,1,1,0,,,0,FALSE,,,,,,,,,,,,,,,,,,,,,,,,,,,,,,
,6129dc084c55f609fd62f0bc,001,2022-04-29_03h08.15.898,classification_task,2021.2.3,Win32,60.12506013,6129dc084c55f609fd62f0bc,626b377229c10585ec392f8a,626b3a611b86b109f7115cbb,,,,,,,,,,,,,,,,,,,,,,,l,1,1.0589,"[""0.150"",""0.228"",""0.560"",""0.619""]","[1,1,1,0]",0,60,60,60,1,1,1,,,0,FALSE,,,,,,,,,,,,,,,,,,,,,,,,,,,,,,
,6129dc084c55f609fd62f0bc,001,2022-04-29_03h08.15.898,classification_task,2021.2.3,Win32,60.12506013,6129dc084c55f609fd62f0bc,626b377229c10585ec392f8a,626b3a611b86b109f7115cbb,,,,,,,,,,,,,,,,,,,,,,,l,1,0.8319,"[""0.093"",""0.228"",""0.560"",""0.837""]","[0,1,1,1]",0,61,61,61,1,1,1,,,0,FALSE,,,,,,,,,,,,,,,,,,,,,,,,,,,,,,
,6129dc084c55f609fd62f0bc,001,2022-04-29_03h08.15.898,classification_task,2021.2.3,Win32,60.12506013,6129dc084c55f609fd62f0bc,626b377229c10585ec392f8a,626b3a611b86b109f7115cbb,,,,,,,,,,,,,,,,,,,,,,,a,1,0.8817,"[""0.110"",""0.445"",""0.912"",""0.967""]","[0,1,1,1]",0,62,62,62,1,0,0,,,0,FALSE,,,,,,,,,,,,,,,,,,,,,,,,,,,,,,
,6129dc084c55f609fd62f0bc,001,2022-04-29_03h08.15.898,classification_task,2021.2.3,Win32,60.12506013,6129dc084c55f609fd62f0bc,626b377229c10585ec392f8a,626b3a611b86b109f7115cbb,,,,,,,,,,,,,,,,,,,,,,,l,1,1.2311,"[""0.051"",""0.106"",""0.497"",""0.731""]","[1,0,1,1]",0,63,63,63,1,1,0,,,0,FALSE,,,,,,,,,,,,,,,,,,,,,,,,,,,,,,
,6129dc084c55f609fd62f0bc,001,2022-04-29_03h08.15.898,classification_task,2021.2.3,Win32,60.12506013,6129dc084c55f609fd62f0bc,626b377229c10585ec392f8a,626b3a611b86b109f7115cbb,,,,,,,,,,,,,,,,,,,,,,,,,,,,,,,,,,,,,,,0, ,,0,3.481286266,159.9753,0,1,1,1,1,2,2,,,,,,,,,,,,,,,,,
,6129dc084c55f609fd62f0bc,001,2022-04-29_03h08.15.898,classification_task,2021.2.3,Win32,60.12506013,6129dc084c55f609fd62f0bc,626b377229c10585ec392f8a,626b3a611b86b109f7115cbb,,,,,,,,,,,,,,,,,,,,,,,,,,,,,,,,,,,,,,,1,  ,,0,5.073486185,165.5172,0,1,1,1,1,2,2,,,,,,,,,,,,,,,,,
,6129dc084c55f609fd62f0bc,001,2022-04-29_03h08.15.898,classification_task,2021.2.3,Win32,60.12506013,6129dc084c55f609fd62f0bc,626b377229c10585ec392f8a,626b3a611b86b109f7115cbb,,,,,,,,,,,,,,,,,,,,,,,,,,,,,,,,,,,,,,,2,  ,,0,1.889086347,167.967,0,1,1,1,1,2,2,,,,,,,,,,,,,,,,,
,6129dc084c55f609fd62f0bc,001,2022-04-29_03h08.15.898,classification_task,2021.2.3,Win32,60.12506013,6129dc084c55f609fd62f0bc,626b377229c10585ec392f8a,626b3a611b86b109f7115cbb,,,,,,,,,,,,,,,,,,,,,,,,,,,,,,,,,,,,,,,,,,,,,0,1,1,1,1,,2,,,,,,,,,,,,,,,,,
,6129dc084c55f609fd62f0bc,001,2022-04-29_03h08.15.898,classification_task,2021.2.3,Win32,60.12506013,6129dc084c55f609fd62f0bc,626b377229c10585ec392f8a,626b3a611b86b109f7115cbb,,,,,,,,,,,,,,,,,,,,,space,8.472,l,1,3.2865,"[""0.362"",""0.228"",""0.560"",""0.837""]","[0,1,1,1]",0,0,0,0,1,1,1,,,0,FALSE,,,,,,,,,,,,,,,,,,,,,,,,,,,,,,
,6129dc084c55f609fd62f0bc,001,2022-04-29_03h08.15.898,classification_task,2021.2.3,Win32,60.12506013,6129dc084c55f609fd62f0bc,626b377229c10585ec392f8a,626b3a611b86b109f7115cbb,,,,,,,,,,,,,,,,,,,,,,,a,1,1.714,"[""0.321"",""0.407"",""0.362"",""0.871""]","[1,1,0,1]",0,1,1,1,1,0,1,,,0,FALSE,,,,,,,,,,,,,,,,,,,,,,,,,,,,,,
,6129dc084c55f609fd62f0bc,001,2022-04-29_03h08.15.898,classification_task,2021.2.3,Win32,60.12506013,6129dc084c55f609fd62f0bc,626b377229c10585ec392f8a,626b3a611b86b109f7115cbb,,,,,,,,,,,,,,,,,,,,,,,l,0,1.5488,"[""0.321"",""0.407"",""0.657"",""0.107""]","[1,1,1,0]",0,2,2,2,1,0,1,,,0,FALSE,,,,,,,,,,,,,,,,,,,,,,,,,,,,,,
,6129dc084c55f609fd62f0bc,001,2022-04-29_03h08.15.898,classification_task,2021.2.3,Win32,60.12506013,6129dc084c55f609fd62f0bc,626b377229c10585ec392f8a,626b3a611b86b109f7115cbb,,,,,,,,,,,,,,,,,,,,,,,a,1,1.468,"[""0.274"",""0.445"",""0.912"",""0.800""]","[1,1,1,0]",0,3,3,3,1,0,0,,,0,FALSE,,,,,,,,,,,,,,,,,,,,,,,,,,,,,,
,6129dc084c55f609fd62f0bc,001,2022-04-29_03h08.15.898,classification_task,2021.2.3,Win32,60.12506013,6129dc084c55f609fd62f0bc,626b377229c10585ec392f8a,626b3a611b86b109f7115cbb,,,,,,,,,,,,,,,,,,,,,,,l,1,1.9475,"[""0.150"",""0.800"",""0.560"",""0.837""]","[1,0,1,1]",0,4,4,4,1,1,1,,,0,FALSE,,,,,,,,,,,,,,,,,,,,,,,,,,,,,,
,6129dc084c55f609fd62f0bc,001,2022-04-29_03h08.15.898,classification_task,2021.2.3,Win32,60.12506013,6129dc084c55f609fd62f0bc,626b377229c10585ec392f8a,626b3a611b86b109f7115cbb,,,,,,,,,,,,,,,,,,,,,,,a,1,1.2476,"[""0.321"",""0.093"",""0.657"",""0.871""]","[1,0,1,1]",0,5,5,5,1,0,1,,,0,FALSE,,,,,,,,,,,,,,,,,,,,,,,,,,,,,,
,6129dc084c55f609fd62f0bc,001,2022-04-29_03h08.15.898,classification_task,2021.2.3,Win32,60.12506013,6129dc084c55f609fd62f0bc,626b377229c10585ec392f8a,626b3a611b86b109f7115cbb,,,,,,,,,,,,,,,,,,,,,,,l,1,1.5002,"[""0.150"",""0.228"",""0.595"",""0.837""]","[1,1,0,1]",0,6,6,6,1,1,1,,,0,FALSE,,,,,,,,,,,,,,,,,,,,,,,,,,,,,,
,6129dc084c55f609fd62f0bc,001,2022-04-29_03h08.15.898,classification_task,2021.2.3,Win32,60.12506013,6129dc084c55f609fd62f0bc,626b377229c10585ec392f8a,626b3a611b86b109f7115cbb,,,,,,,,,,,,,,,,,,,,,,,l,1,1.1788,"[""0.051"",""0.188"",""0.497"",""0.619""]","[1,1,1,0]",0,7,7,7,1,1,0,,,0,FALSE,,,,,,,,,,,,,,,,,,,,,,,,,,,,,,
,6129dc084c55f609fd62f0bc,001,2022-04-29_03h08.15.898,classification_task,2021.2.3,Win32,60.12506013,6129dc084c55f609fd62f0bc,626b377229c10585ec392f8a,626b3a611b86b109f7115cbb,,,,,,,,,,,,,,,,,,,,,,,l,1,0.8502,"[""0.051"",""0.188"",""0.612"",""0.731""]","[1,1,0,1]",0,8,8,8,1,1,0,,,0,FALSE,,,,,,,,,,,,,,,,,,,,,,,,,,,,,,
,6129dc084c55f609fd62f0bc,001,2022-04-29_03h08.15.898,classification_task,2021.2.3,Win32,60.12506013,6129dc084c55f609fd62f0bc,626b377229c10585ec392f8a,626b3a611b86b109f7115cbb,,,,,,,,,,,,,,,,,,,,,,,l,1,1.3823,"[""0.150"",""0.228"",""0.560"",""0.800""]","[1,1,1,0]",0,9,9,9,1,1,1,,,0,FALSE,,,,,,,,,,,,,,,,,,,,,,,,,,,,,,
,6129dc084c55f609fd62f0bc,001,2022-04-29_03h08.15.898,classification_task,2021.2.3,Win32,60.12506013,6129dc084c55f609fd62f0bc,626b377229c10585ec392f8a,626b3a611b86b109f7115cbb,,,,,,,,,,,,,,,,,,,,,,,a,1,0.8016,"[""0.765"",""0.445"",""0.912"",""0.967""]","[0,1,1,1]",0,10,10,10,1,0,0,,,0,FALSE,,,,,,,,,,,,,,,,,,,,,,,,,,,,,,
,6129dc084c55f609fd62f0bc,001,2022-04-29_03h08.15.898,classification_task,2021.2.3,Win32,60.12506013,6129dc084c55f609fd62f0bc,626b377229c10585ec392f8a,626b3a611b86b109f7115cbb,,,,,,,,,,,,,,,,,,,,,,,a,1,1.0784,"[""0.619"",""0.407"",""0.657"",""0.871""]","[0,1,1,1]",0,11,11,11,1,0,1,,,0,FALSE,,,,,,,,,,,,,,,,,,,,,,,,,,,,,,
,6129dc084c55f609fd62f0bc,001,2022-04-29_03h08.15.898,classification_task,2021.2.3,Win32,60.12506013,6129dc084c55f609fd62f0bc,626b377229c10585ec392f8a,626b3a611b86b109f7115cbb,,,,,,,,,,,,,,,,,,,,,,,a,1,0.8849,"[""0.274"",""0.445"",""0.091"",""0.967""]","[1,1,0,1]",0,12,12,12,1,0,0,,,0,FALSE,,,,,,,,,,,,,,,,,,,,,,,,,,,,,,
,6129dc084c55f609fd62f0bc,001,2022-04-29_03h08.15.898,classification_task,2021.2.3,Win32,60.12506013,6129dc084c55f609fd62f0bc,626b377229c10585ec392f8a,626b3a611b86b109f7115cbb,,,,,,,,,,,,,,,,,,,,,,,l,1,0.9312,"[""0.051"",""0.091"",""0.497"",""0.731""]","[1,0,1,1]",0,13,13,13,1,1,0,,,0,FALSE,,,,,,,,,,,,,,,,,,,,,,,,,,,,,,
,6129dc084c55f609fd62f0bc,001,2022-04-29_03h08.15.898,classification_task,2021.2.3,Win32,60.12506013,6129dc084c55f609fd62f0bc,626b377229c10585ec392f8a,626b3a611b86b109f7115cbb,,,,,,,,,,,,,,,,,,,,,,,a,1,0.7982,"[""0.274"",""0.800"",""0.912"",""0.967""]","[1,0,1,1]",0,14,14,14,1,0,0,,,0,FALSE,,,,,,,,,,,,,,,,,,,,,,,,,,,,,,
,6129dc084c55f609fd62f0bc,001,2022-04-29_03h08.15.898,classification_task,2021.2.3,Win32,60.12506013,6129dc084c55f609fd62f0bc,626b377229c10585ec392f8a,626b3a611b86b109f7115cbb,,,,,,,,,,,,,,,,,,,,,,,l,1,1.3636,"[""0.092"",""0.188"",""0.497"",""0.731""]","[0,1,1,1]",0,15,15,15,1,1,0,,,0,FALSE,,,,,,,,,,,,,,,,,,,,,,,,,,,,,,
,6129dc084c55f609fd62f0bc,001,2022-04-29_03h08.15.898,classification_task,2021.2.3,Win32,60.12506013,6129dc084c55f609fd62f0bc,626b377229c10585ec392f8a,626b3a611b86b109f7115cbb,,,,,,,,,,,,,,,,,,,,,,,l,1,1.6159,"[""0.051"",""0.188"",""0.497"",""0.800""]","[1,1,1,0]",0,16,16,16,1,1,0,,,0,FALSE,,,,,,,,,,,,,,,,,,,,,,,,,,,,,,
,6129dc084c55f609fd62f0bc,001,2022-04-29_03h08.15.898,classification_task,2021.2.3,Win32,60.12506013,6129dc084c55f609fd62f0bc,626b377229c10585ec392f8a,626b3a611b86b109f7115cbb,,,,,,,,,,,,,,,,,,,,,,,a,1,0.7136,"[""0.274"",""0.445"",""0.101"",""0.967""]","[1,1,0,1]",0,17,17,17,1,0,0,,,0,FALSE,,,,,,,,,,,,,,,,,,,,,,,,,,,,,,
,6129dc084c55f609fd62f0bc,001,2022-04-29_03h08.15.898,classification_task,2021.2.3,Win32,60.12506013,6129dc084c55f609fd62f0bc,626b377229c10585ec392f8a,626b3a611b86b109f7115cbb,,,,,,,,,,,,,,,,,,,,,,,a,1,0.5819,"[""0.274"",""0.445"",""0.912"",""0.362""]","[1,1,1,0]",0,18,18,18,1,0,0,,,0,FALSE,,,,,,,,,,,,,,,,,,,,,,,,,,,,,,
,6129dc084c55f609fd62f0bc,001,2022-04-29_03h08.15.898,classification_task,2021.2.3,Win32,60.12506013,6129dc084c55f609fd62f0bc,626b377229c10585ec392f8a,626b3a611b86b109f7115cbb,,,,,,,,,,,,,,,,,,,,,,,l,1,1.114,"[""0.051"",""0.800"",""0.497"",""0.731""]","[1,0,1,1]",0,19,19,19,1,1,0,,,0,FALSE,,,,,,,,,,,,,,,,,,,,,,,,,,,,,,
,6129dc084c55f609fd62f0bc,001,2022-04-29_03h08.15.898,classification_task,2021.2.3,Win32,60.12506013,6129dc084c55f609fd62f0bc,626b377229c10585ec392f8a,626b3a611b86b109f7115cbb,,,,,,,,,,,,,,,,,,,,,,,a,1,1.3821,"[""0.110"",""0.445"",""0.912"",""0.967""]","[0,1,1,1]",0,20,20,20,1,0,0,,,0,FALSE,,,,,,,,,,,,,,,,,,,,,,,,,,,,,,
,6129dc084c55f609fd62f0bc,001,2022-04-29_03h08.15.898,classification_task,2021.2.3,Win32,60.12506013,6129dc084c55f609fd62f0bc,626b377229c10585ec392f8a,626b3a611b86b109f7115cbb,,,,,,,,,,,,,,,,,,,,,,,a,1,1.2819,"[""0.092"",""0.407"",""0.657"",""0.871""]","[0,1,1,1]",0,21,21,21,1,0,1,,,0,FALSE,,,,,,,,,,,,,,,,,,,,,,,,,,,,,,
,6129dc084c55f609fd62f0bc,001,2022-04-29_03h08.15.898,classification_task,2021.2.3,Win32,60.12506013,6129dc084c55f609fd62f0bc,626b377229c10585ec392f8a,626b3a611b86b109f7115cbb,,,,,,,,,,,,,,,,,,,,,,,l,1,0.9301,"[""0.150"",""0.228"",""0.560"",""0.093""]","[1,1,1,0]",0,22,22,22,1,1,1,,,0,FALSE,,,,,,,,,,,,,,,,,,,,,,,,,,,,,,
,6129dc084c55f609fd62f0bc,001,2022-04-29_03h08.15.898,classification_task,2021.2.3,Win32,60.12506013,6129dc084c55f609fd62f0bc,626b377229c10585ec392f8a,626b3a611b86b109f7115cbb,,,,,,,,,,,,,,,,,,,,,,,a,0,1.5818,"[""0.092"",""0.228"",""0.560"",""0.837""]","[0,1,1,1]",0,23,23,23,1,1,1,,,0,FALSE,,,,,,,,,,,,,,,,,,,,,,,,,,,,,,
,6129dc084c55f609fd62f0bc,001,2022-04-29_03h08.15.898,classification_task,2021.2.3,Win32,60.12506013,6129dc084c55f609fd62f0bc,626b377229c10585ec392f8a,626b3a611b86b109f7115cbb,,,,,,,,,,,,,,,,,,,,,,,a,1,0.8324,"[""0.321"",""0.407"",""0.777"",""0.871""]","[1,1,0,1]",0,24,24,24,1,0,1,,,0,FALSE,,,,,,,,,,,,,,,,,,,,,,,,,,,,,,
,6129dc084c55f609fd62f0bc,001,2022-04-29_03h08.15.898,classification_task,2021.2.3,Win32,60.12506013,6129dc084c55f609fd62f0bc,626b377229c10585ec392f8a,626b3a611b86b109f7115cbb,,,,,,,,,,,,,,,,,,,,,,,a,1,0.6646,"[""0.321"",""0.106"",""0.657"",""0.871""]","[1,0,1,1]",0,25,25,25,1,0,1,,,0,FALSE,,,,,,,,,,,,,,,,,,,,,,,,,,,,,,
,6129dc084c55f609fd62f0bc,001,2022-04-29_03h08.15.898,classification_task,2021.2.3,Win32,60.12506013,6129dc084c55f609fd62f0bc,626b377229c10585ec392f8a,626b3a611b86b109f7115cbb,,,,,,,,,,,,,,,,,,,,,,,a,0,0.6307,"[""0.150"",""0.228"",""0.619"",""0.837""]","[1,1,0,1]",0,26,26,26,1,1,1,,,0,FALSE,,,,,,,,,,,,,,,,,,,,,,,,,,,,,,
,6129dc084c55f609fd62f0bc,001,2022-04-29_03h08.15.898,classification_task,2021.2.3,Win32,60.12506013,6129dc084c55f609fd62f0bc,626b377229c10585ec392f8a,626b3a611b86b109f7115cbb,,,,,,,,,,,,,,,,,,,,,,,l,1,0.8114,"[""0.051"",""0.188"",""0.612"",""0.731""]","[1,1,0,1]",0,27,27,27,1,1,0,,,0,FALSE,,,,,,,,,,,,,,,,,,,,,,,,,,,,,,
,6129dc084c55f609fd62f0bc,001,2022-04-29_03h08.15.898,classification_task,2021.2.3,Win32,60.12506013,6129dc084c55f609fd62f0bc,626b377229c10585ec392f8a,626b3a611b86b109f7115cbb,,,,,,,,,,,,,,,,,,,,,,,a,0,1.098,"[""0.150"",""0.595"",""0.560"",""0.837""]","[1,0,1,1]",0,28,28,28,1,1,1,,,0,FALSE,,,,,,,,,,,,,,,,,,,,,,,,,,,,,,
,6129dc084c55f609fd62f0bc,001,2022-04-29_03h08.15.898,classification_task,2021.2.3,Win32,60.12506013,6129dc084c55f609fd62f0bc,626b377229c10585ec392f8a,626b3a611b86b109f7115cbb,,,,,,,,,,,,,,,,,,,,,,,l,0,0.8456,"[""0.274"",""0.800"",""0.912"",""0.967""]","[1,0,1,1]",0,29,29,29,1,0,0,,,0,FALSE,,,,,,,,,,,,,,,,,,,,,,,,,,,,,,
,6129dc084c55f609fd62f0bc,001,2022-04-29_03h08.15.898,classification_task,2021.2.3,Win32,60.12506013,6129dc084c55f609fd62f0bc,626b377229c10585ec392f8a,626b3a611b86b109f7115cbb,,,,,,,,,,,,,,,,,,,,,,,l,0,1.0298,"[""0.321"",""0.407"",""0.657"",""0.619""]","[1,1,1,0]",0,30,30,30,1,0,1,,,0,FALSE,,,,,,,,,,,,,,,,,,,,,,,,,,,,,,
,6129dc084c55f609fd62f0bc,001,2022-04-29_03h08.15.898,classification_task,2021.2.3,Win32,60.12506013,6129dc084c55f609fd62f0bc,626b377229c10585ec392f8a,626b3a611b86b109f7115cbb,,,,,,,,,,,,,,,,,,,,,,,l,1,1.0287,"[""0.091"",""0.188"",""0.497"",""0.731""]","[0,1,1,1]",0,31,31,31,1,1,0,,,0,FALSE,,,,,,,,,,,,,,,,,,,,,,,,,,,,,,
,6129dc084c55f609fd62f0bc,001,2022-04-29_03h08.15.898,classification_task,2021.2.3,Win32,60.12506013,6129dc084c55f609fd62f0bc,626b377229c10585ec392f8a,626b3a611b86b109f7115cbb,,,,,,,,,,,,,,,,,,,,,,,l,0,1.0624,"[""0.321"",""0.407"",""0.657"",""0.101""]","[1,1,1,0]",0,32,32,32,1,0,1,,,0,FALSE,,,,,,,,,,,,,,,,,,,,,,,,,,,,,,
,6129dc084c55f609fd62f0bc,001,2022-04-29_03h08.15.898,classification_task,2021.2.3,Win32,60.12506013,6129dc084c55f609fd62f0bc,626b377229c10585ec392f8a,626b3a611b86b109f7115cbb,,,,,,,,,,,,,,,,,,,,,,,a,1,0.5293,"[""0.110"",""0.445"",""0.912"",""0.967""]","[0,1,1,1]",0,33,33,33,1,0,0,,,0,FALSE,,,,,,,,,,,,,,,,,,,,,,,,,,,,,,
,6129dc084c55f609fd62f0bc,001,2022-04-29_03h08.15.898,classification_task,2021.2.3,Win32,60.12506013,6129dc084c55f609fd62f0bc,626b377229c10585ec392f8a,626b3a611b86b109f7115cbb,,,,,,,,,,,,,,,,,,,,,,,a,1,0.4987,"[""0.274"",""0.445"",""0.912"",""0.804""]","[1,1,1,0]",0,34,34,34,1,0,0,,,0,FALSE,,,,,,,,,,,,,,,,,,,,,,,,,,,,,,
,6129dc084c55f609fd62f0bc,001,2022-04-29_03h08.15.898,classification_task,2021.2.3,Win32,60.12506013,6129dc084c55f609fd62f0bc,626b377229c10585ec392f8a,626b3a611b86b109f7115cbb,,,,,,,,,,,,,,,,,,,,,,,l,1,1.5801,"[""0.150"",""0.800"",""0.560"",""0.837""]","[1,0,1,1]",0,35,35,35,1,1,1,,,0,FALSE,,,,,,,,,,,,,,,,,,,,,,,,,,,,,,
,6129dc084c55f609fd62f0bc,001,2022-04-29_03h08.15.898,classification_task,2021.2.3,Win32,60.12506013,6129dc084c55f609fd62f0bc,626b377229c10585ec392f8a,626b3a611b86b109f7115cbb,,,,,,,,,,,,,,,,,,,,,,,l,1,0.8463,"[""0.051"",""0.777"",""0.497"",""0.731""]","[1,0,1,1]",0,36,36,36,1,1,0,,,0,FALSE,,,,,,,,,,,,,,,,,,,,,,,,,,,,,,
,6129dc084c55f609fd62f0bc,001,2022-04-29_03h08.15.898,classification_task,2021.2.3,Win32,60.12506013,6129dc084c55f609fd62f0bc,626b377229c10585ec392f8a,626b3a611b86b109f7115cbb,,,,,,,,,,,,,,,,,,,,,,,a,1,0.9485,"[""0.321"",""0.407"",""0.765"",""0.871""]","[1,1,0,1]",0,37,37,37,1,0,1,,,0,FALSE,,,,,,,,,,,,,,,,,,,,,,,,,,,,,,
,6129dc084c55f609fd62f0bc,001,2022-04-29_03h08.15.898,classification_task,2021.2.3,Win32,60.12506013,6129dc084c55f609fd62f0bc,626b377229c10585ec392f8a,626b3a611b86b109f7115cbb,,,,,,,,,,,,,,,,,,,,,,,a,1,0.6472,"[""0.110"",""0.407"",""0.657"",""0.871""]","[0,1,1,1]",0,38,38,38,1,0,1,,,0,FALSE,,,,,,,,,,,,,,,,,,,,,,,,,,,,,,
,6129dc084c55f609fd62f0bc,001,2022-04-29_03h08.15.898,classification_task,2021.2.3,Win32,60.12506013,6129dc084c55f609fd62f0bc,626b377229c10585ec392f8a,626b3a611b86b109f7115cbb,,,,,,,,,,,,,,,,,,,,,,,a,1,0.6669,"[""0.274"",""0.445"",""0.619"",""0.967""]","[1,1,0,1]",0,39,39,39,1,0,0,,,0,FALSE,,,,,,,,,,,,,,,,,,,,,,,,,,,,,,
,6129dc084c55f609fd62f0bc,001,2022-04-29_03h08.15.898,classification_task,2021.2.3,Win32,60.12506013,6129dc084c55f609fd62f0bc,626b377229c10585ec392f8a,626b3a611b86b109f7115cbb,,,,,,,,,,,,,,,,,,,,,,,l,1,0.8499,"[""0.362"",""0.188"",""0.497"",""0.731""]","[0,1,1,1]",0,40,40,40,1,1,0,,,0,FALSE,,,,,,,,,,,,,,,,,,,,,,,,,,,,,,
,6129dc084c55f609fd62f0bc,001,2022-04-29_03h08.15.898,classification_task,2021.2.3,Win32,60.12506013,6129dc084c55f609fd62f0bc,626b377229c10585ec392f8a,626b3a611b86b109f7115cbb,,,,,,,,,,,,,,,,,,,,,,,a,1,0.8319,"[""0.274"",""0.106"",""0.912"",""0.967""]","[1,0,1,1]",0,41,41,41,1,0,0,,,0,FALSE,,,,,,,,,,,,,,,,,,,,,,,,,,,,,,
,6129dc084c55f609fd62f0bc,001,2022-04-29_03h08.15.898,classification_task,2021.2.3,Win32,60.12506013,6129dc084c55f609fd62f0bc,626b377229c10585ec392f8a,626b3a611b86b109f7115cbb,,,,,,,,,,,,,,,,,,,,,,,l,1,0.7293,"[""0.051"",""0.188"",""0.497"",""0.092""]","[1,1,1,0]",0,42,42,42,1,1,0,,,0,FALSE,,,,,,,,,,,,,,,,,,,,,,,,,,,,,,
,6129dc084c55f609fd62f0bc,001,2022-04-29_03h08.15.898,classification_task,2021.2.3,Win32,60.12506013,6129dc084c55f609fd62f0bc,626b377229c10585ec392f8a,626b3a611b86b109f7115cbb,,,,,,,,,,,,,,,,,,,,,,,l,1,1.8139,"[""0.150"",""0.228"",""0.595"",""0.837""]","[1,1,0,1]",0,43,43,43,1,1,1,,,0,FALSE,,,,,,,,,,,,,,,,,,,,,,,,,,,,,,
,6129dc084c55f609fd62f0bc,001,2022-04-29_03h08.15.898,classification_task,2021.2.3,Win32,60.12506013,6129dc084c55f609fd62f0bc,626b377229c10585ec392f8a,626b3a611b86b109f7115cbb,,,,,,,,,,,,,,,,,,,,,,,l,1,0.9604,"[""0.051"",""0.188"",""0.106"",""0.731""]","[1,1,0,1]",0,44,44,44,1,1,0,,,0,FALSE,,,,,,,,,,,,,,,,,,,,,,,,,,,,,,
,6129dc084c55f609fd62f0bc,001,2022-04-29_03h08.15.898,classification_task,2021.2.3,Win32,60.12506013,6129dc084c55f609fd62f0bc,626b377229c10585ec392f8a,626b3a611b86b109f7115cbb,,,,,,,,,,,,,,,,,,,,,,,a,1,0.8971,"[""0.321"",""0.101"",""0.657"",""0.871""]","[1,0,1,1]",0,45,45,45,1,0,1,,,0,FALSE,,,,,,,,,,,,,,,,,,,,,,,,,,,,,,
,6129dc084c55f609fd62f0bc,001,2022-04-29_03h08.15.898,classification_task,2021.2.3,Win32,60.12506013,6129dc084c55f609fd62f0bc,626b377229c10585ec392f8a,626b3a611b86b109f7115cbb,,,,,,,,,,,,,,,,,,,,,,,l,1,1.349,"[""0.765"",""0.228"",""0.560"",""0.837""]","[0,1,1,1]",0,46,46,46,1,1,1,,,0,FALSE,,,,,,,,,,,,,,,,,,,,,,,,,,,,,,
,6129dc084c55f609fd62f0bc,001,2022-04-29_03h08.15.898,classification_task,2021.2.3,Win32,60.12506013,6129dc084c55f609fd62f0bc,626b377229c10585ec392f8a,626b3a611b86b109f7115cbb,,,,,,,,,,,,,,,,,,,,,,,l,1,0.7676,"[""0.150"",""0.228"",""0.560"",""0.612""]","[1,1,1,0]",0,47,47,47,1,1,1,,,0,FALSE,,,,,,,,,,,,,,,,,,,,,,,,,,,,,,
,6129dc084c55f609fd62f0bc,001,2022-04-29_03h08.15.898,classification_task,2021.2.3,Win32,60.12506013,6129dc084c55f609fd62f0bc,626b377229c10585ec392f8a,626b3a611b86b109f7115cbb,,,,,,,,,,,,,,,,,,,,,,,l,1,0.9463,"[""0.150"",""0.619"",""0.560"",""0.837""]","[1,0,1,1]",0,48,48,48,1,1,1,,,0,FALSE,,,,,,,,,,,,,,,,,,,,,,,,,,,,,,
,6129dc084c55f609fd62f0bc,001,2022-04-29_03h08.15.898,classification_task,2021.2.3,Win32,60.12506013,6129dc084c55f609fd62f0bc,626b377229c10585ec392f8a,626b3a611b86b109f7115cbb,,,,,,,,,,,,,,,,,,,,,,,a,1,0.749,"[""0.274"",""0.612"",""0.912"",""0.967""]","[1,0,1,1]",0,49,49,49,1,0,0,,,0,FALSE,,,,,,,,,,,,,,,,,,,,,,,,,,,,,,
,6129dc084c55f609fd62f0bc,001,2022-04-29_03h08.15.898,classification_task,2021.2.3,Win32,60.12506013,6129dc084c55f609fd62f0bc,626b377229c10585ec392f8a,626b3a611b86b109f7115cbb,,,,,,,,,,,,,,,,,,,,,,,a,1,0.5007,"[""0.619"",""0.445"",""0.912"",""0.967""]","[0,1,1,1]",0,50,50,50,1,0,0,,,0,FALSE,,,,,,,,,,,,,,,,,,,,,,,,,,,,,,
,6129dc084c55f609fd62f0bc,001,2022-04-29_03h08.15.898,classification_task,2021.2.3,Win32,60.12506013,6129dc084c55f609fd62f0bc,626b377229c10585ec392f8a,626b3a611b86b109f7115cbb,,,,,,,,,,,,,,,,,,,,,,,a,1,0.9305,"[""0.321"",""0.407"",""0.110"",""0.871""]","[1,1,0,1]",0,51,51,51,1,0,1,,,0,FALSE,,,,,,,,,,,,,,,,,,,,,,,,,,,,,,
,6129dc084c55f609fd62f0bc,001,2022-04-29_03h08.15.898,classification_task,2021.2.3,Win32,60.12506013,6129dc084c55f609fd62f0bc,626b377229c10585ec392f8a,626b3a611b86b109f7115cbb,,,,,,,,,,,,,,,,,,,,,,,a,1,0.5323,"[""0.274"",""0.445"",""0.912"",""0.101""]","[1,1,1,0]",0,52,52,52,1,0,0,,,0,FALSE,,,,,,,,,,,,,,,,,,,,,,,,,,,,,,
,6129dc084c55f609fd62f0bc,001,2022-04-29_03h08.15.898,classification_task,2021.2.3,Win32,60.12506013,6129dc084c55f609fd62f0bc,626b377229c10585ec392f8a,626b3a611b86b109f7115cbb,,,,,,,,,,,,,,,,,,,,,,,a,1,0.7801,"[""0.110"",""0.407"",""0.657"",""0.871""]","[0,1,1,1]",0,53,53,53,1,0,1,,,0,FALSE,,,,,,,,,,,,,,,,,,,,,,,,,,,,,,
,6129dc084c55f609fd62f0bc,001,2022-04-29_03h08.15.898,classification_task,2021.2.3,Win32,60.12506013,6129dc084c55f609fd62f0bc,626b377229c10585ec392f8a,626b3a611b86b109f7115cbb,,,,,,,,,,,,,,,,,,,,,,,l,1,1.0991,"[""0.150"",""0.228"",""0.560"",""0.765""]","[1,1,1,0]",0,54,54,54,1,1,1,,,0,FALSE,,,,,,,,,,,,,,,,,,,,,,,,,,,,,,
,6129dc084c55f609fd62f0bc,001,2022-04-29_03h08.15.898,classification_task,2021.2.3,Win32,60.12506013,6129dc084c55f609fd62f0bc,626b377229c10585ec392f8a,626b3a611b86b109f7115cbb,,,,,,,,,,,,,,,,,,,,,,,l,0,0.7316,"[""0.321"",""0.407"",""0.657"",""0.612""]","[1,1,1,0]",0,55,55,55,1,0,1,,,0,FALSE,,,,,,,,,,,,,,,,,,,,,,,,,,,,,,
,6129dc084c55f609fd62f0bc,001,2022-04-29_03h08.15.898,classification_task,2021.2.3,Win32,60.12506013,6129dc084c55f609fd62f0bc,626b377229c10585ec392f8a,626b3a611b86b109f7115cbb,,,,,,,,,,,,,,,,,,,,,,,l,1,0.7628,"[""0.101"",""0.188"",""0.497"",""0.731""]","[0,1,1,1]",0,56,56,56,1,1,0,,,0,FALSE,,,,,,,,,,,,,,,,,,,,,,,,,,,,,,
,6129dc084c55f609fd62f0bc,001,2022-04-29_03h08.15.898,classification_task,2021.2.3,Win32,60.12506013,6129dc084c55f609fd62f0bc,626b377229c10585ec392f8a,626b3a611b86b109f7115cbb,,,,,,,,,,,,,,,,,,,,,,,l,1,0.5308,"[""0.051"",""0.107"",""0.497"",""0.731""]","[1,0,1,1]",0,57,57,57,1,1,0,,,0,FALSE,,,,,,,,,,,,,,,,,,,,,,,,,,,,,,
,6129dc084c55f609fd62f0bc,001,2022-04-29_03h08.15.898,classification_task,2021.2.3,Win32,60.12506013,6129dc084c55f609fd62f0bc,626b377229c10585ec392f8a,626b3a611b86b109f7115cbb,,,,,,,,,,,,,,,,,,,,,,,a,0,0.5972,"[""0.150"",""0.228"",""0.106"",""0.837""]","[1,1,0,1]",0,58,58,58,1,1,1,,,0,FALSE,,,,,,,,,,,,,,,,,,,,,,,,,,,,,,
,6129dc084c55f609fd62f0bc,001,2022-04-29_03h08.15.898,classification_task,2021.2.3,Win32,60.12506013,6129dc084c55f609fd62f0bc,626b377229c10585ec392f8a,626b3a611b86b109f7115cbb,,,,,,,,,,,,,,,,,,,,,,,a,1,0.8306,"[""0.321"",""0.092"",""0.657"",""0.871""]","[1,0,1,1]",0,59,59,59,1,0,1,,,0,FALSE,,,,,,,,,,,,,,,,,,,,,,,,,,,,,,
,6129dc084c55f609fd62f0bc,001,2022-04-29_03h08.15.898,classification_task,2021.2.3,Win32,60.12506013,6129dc084c55f609fd62f0bc,626b377229c10585ec392f8a,626b3a611b86b109f7115cbb,,,,,,,,,,,,,,,,,,,,,,,l,1,0.9951,"[""0.051"",""0.188"",""0.804"",""0.731""]","[1,1,0,1]",0,60,60,60,1,1,0,,,0,FALSE,,,,,,,,,,,,,,,,,,,,,,,,,,,,,,
,6129dc084c55f609fd62f0bc,001,2022-04-29_03h08.15.898,classification_task,2021.2.3,Win32,60.12506013,6129dc084c55f609fd62f0bc,626b377229c10585ec392f8a,626b3a611b86b109f7115cbb,,,,,,,,,,,,,,,,,,,,,,,a,1,0.8347,"[""0.274"",""0.445"",""0.091"",""0.967""]","[1,1,0,1]",0,61,61,61,1,0,0,,,0,FALSE,,,,,,,,,,,,,,,,,,,,,,,,,,,,,,
,6129dc084c55f609fd62f0bc,001,2022-04-29_03h08.15.898,classification_task,2021.2.3,Win32,60.12506013,6129dc084c55f609fd62f0bc,626b377229c10585ec392f8a,626b3a611b86b109f7115cbb,,,,,,,,,,,,,,,,,,,,,,,l,1,1.3807,"[""0.051"",""0.188"",""0.497"",""0.101""]","[1,1,1,0]",0,62,62,62,1,1,0,,,0,FALSE,,,,,,,,,,,,,,,,,,,,,,,,,,,,,,
,6129dc084c55f609fd62f0bc,001,2022-04-29_03h08.15.898,classification_task,2021.2.3,Win32,60.12506013,6129dc084c55f609fd62f0bc,626b377229c10585ec392f8a,626b3a611b86b109f7115cbb,,,,,,,,,,,,,,,,,,,,,,,l,1,1.0288,"[""0.765"",""0.228"",""0.560"",""0.837""]","[0,1,1,1]",0,63,63,63,1,1,1,,,0,FALSE,,,,,,,,,,,,,,,,,,,,,,,,,,,,,,
,6129dc084c55f609fd62f0bc,001,2022-04-29_03h08.15.898,classification_task,2021.2.3,Win32,60.12506013,6129dc084c55f609fd62f0bc,626b377229c10585ec392f8a,626b3a611b86b109f7115cbb,,,,,,,,,,,,,,,,,,,,,,,,,,,,,,,,,,,,,,,0, ,,0,3.309817754,145.8101,0,2,2,2,1,2,3,,,,,,,,,,,,,,,,,
,6129dc084c55f609fd62f0bc,001,2022-04-29_03h08.15.898,classification_task,2021.2.3,Win32,60.12506013,6129dc084c55f609fd62f0bc,626b377229c10585ec392f8a,626b3a611b86b109f7115cbb,,,,,,,,,,,,,,,,,,,,,,,,,,,,,,,,,,,,,,,1,  ,,0,5.46541325,149.823,0,2,2,2,1,2,3,,,,,,,,,,,,,,,,,
,6129dc084c55f609fd62f0bc,001,2022-04-29_03h08.15.898,classification_task,2021.2.3,Win32,60.12506013,6129dc084c55f609fd62f0bc,626b377229c10585ec392f8a,626b3a611b86b109f7115cbb,,,,,,,,,,,,,,,,,,,,,,,,,,,,,,,,,,,,,,,2,  ,,0,4.755047546,152.5733,0,2,2,2,1,2,3,,,,,,,,,,,,,,,,,
,6129dc084c55f609fd62f0bc,001,2022-04-29_03h08.15.898,classification_task,2021.2.3,Win32,60.12506013,6129dc084c55f609fd62f0bc,626b377229c10585ec392f8a,626b3a611b86b109f7115cbb,,,,,,,,,,,,,,,,,,,,,,,,,,,,,,,,,,,,,,,,,,,,,0,2,2,2,1,,3,,,,,,,,,,,,,,,,,
,6129dc084c55f609fd62f0bc,001,2022-04-29_03h08.15.898,classification_task,2021.2.3,Win32,60.12506013,6129dc084c55f609fd62f0bc,626b377229c10585ec392f8a,626b3a611b86b109f7115cbb,,,,,,,,,,,,,,,,,,,,,,,,,,,,,,,,,,,,,,,,,,,,,,,,,,,,,I believe the aid is a competent performer,,0.7,0,4,758.4909,0,0,0,0,1,0,,,,
,6129dc084c55f609fd62f0bc,001,2022-04-29_03h08.15.898,classification_task,2021.2.3,Win32,60.12506013,6129dc084c55f609fd62f0bc,626b377229c10585ec392f8a,626b3a611b86b109f7115cbb,,,,,,,,,,,,,,,,,,,,,,,,,,,,,,,,,,,,,,,,,,,,,,,,,,,,,I trust the aid,,0.7,0,4,759.8557,0,0,0,0,1,0,,,,
,6129dc084c55f609fd62f0bc,001,2022-04-29_03h08.15.898,classification_task,2021.2.3,Win32,60.12506013,6129dc084c55f609fd62f0bc,626b377229c10585ec392f8a,626b3a611b86b109f7115cbb,,,,,,,,,,,,,,,,,,,,,,,,,,,,,,,,,,,,,,,,,,,,,,,,,,,,,I have confidence in the advice given by the aid,,0.7,0,4,761.42,0,0,0,0,1,0,,,,
,6129dc084c55f609fd62f0bc,001,2022-04-29_03h08.15.898,classification_task,2021.2.3,Win32,60.12506013,6129dc084c55f609fd62f0bc,626b377229c10585ec392f8a,626b3a611b86b109f7115cbb,,,,,,,,,,,,,,,,,,,,,,,,,,,,,,,,,,,,,,,,,,,,,,,,,,,,,I can depend on the aid,,0.7,0,4,762.5518,0,0,0,0,1,0,,,,
,6129dc084c55f609fd62f0bc,001,2022-04-29_03h08.15.898,classification_task,2021.2.3,Win32,60.12506013,6129dc084c55f609fd62f0bc,626b377229c10585ec392f8a,626b3a611b86b109f7115cbb,,,,,,,,,,,,,,,,,,,,,,,,,,,,,,,,,,,,,,,,,,,,,,,,,,,,,I can rely on the aid to behave in consistent ways,,0.7,0,4,764.4347,0,0,0,0,1,0,,,,
,6129dc084c55f609fd62f0bc,001,2022-04-29_03h08.15.898,classification_task,2021.2.3,Win32,60.12506013,6129dc084c55f609fd62f0bc,626b377229c10585ec392f8a,626b3a611b86b109f7115cbb,,,,,,,,,,,,,,,,,,,,,,,,,,,,,,,,,,,,,,,,,,,,,,,,,,,,,I can rely on the aid to do its best every time I take its advice,,0.7,0,4,766.2003,0,0,0,0,1,0,,,,
,6129dc084c55f609fd62f0bc,001,2022-04-29_03h08.15.898,classification_task,2021.2.3,Win32,60.12506013,6129dc084c55f609fd62f0bc,626b377229c10585ec392f8a,626b3a611b86b109f7115cbb,,,,,,,,,,,,,,,,,,,,,,,,,,,,,,,,,,,,,,,,,,,,,,,,,,,,,"On trials you completed with assistance from the aid, how frequently did you think the aid was correct?",,0.7,0,60%,,0,0,0,0,1,0,,,,
,6129dc084c55f609fd62f0bc,001,2022-04-29_03h08.15.898,classification_task,2021.2.3,Win32,60.12506013,6129dc084c55f609fd62f0bc,626b377229c10585ec392f8a,626b3a611b86b109f7115cbb,,,,,,,,,,,,,,,,,,,,,,,,,,,,,,,,,,,,,,,,,,,,,,,,,,,,,"On trials you completed without the aid, how frequently did you think you were correct?",,0.7,0,50%,,0,0,0,0,1,0,,,,
,6129dc084c55f609fd62f0bc,001,2022-04-29_03h08.15.898,classification_task,2021.2.3,Win32,60.12506013,6129dc084c55f609fd62f0bc,626b377229c10585ec392f8a,626b3a611b86b109f7115cbb,,,,,,,,,,,,,,,,,,,,,,,,,,,,,,,,,,,,,,,,,,,,,,,,,,,,,,,,,,,0,0,0,0,1,,,,,
,6129dc084c55f609fd62f0bc,001,2022-04-29_03h08.15.898,classification_task,2021.2.3,Win32,60.12506013,6129dc084c55f609fd62f0bc,626b377229c10585ec392f8a,626b3a611b86b109f7115cbb,,,,,,,,,,,,,,,,,,,,,,,,,,,,,,,,,,,,,,,,,,,,,,,,,,,,,,,,,,,,,,,,,space,6.3518,798.1681,
,6129dc084c55f609fd62f0bc,001,2022-04-29_03h08.15.898,classification_task,2021.2.3,Win32,60.12506013,6129dc084c55f609fd62f0bc,626b377229c10585ec392f8a,626b3a611b86b109f7115cbb,,,,,,,,,,,,,,,,,,,,,,,,,,,,,,,,,,,,,,,,,,,,,,,,,,,,,,,,,,,,,,,,,,,,"Mozilla/5.0 (Windows NT 10.0; Win64; x64) AppleWebKit/537.36 (KHTML, like Gecko) Chrome/100.0.4896.127 Safari/537.36"
