usingWebGL,participant,session,date,expName,psychopyVersion,OS,frameRate,PROLIFIC_PID,STUDY_ID,SESSION_ID,signatures_friend,signatures_foe,band_ranges_top,band_ranges_bottom,formitemText,formtype,formundefined,formitemWidth,formindex,formresponse,formrt,key_resp_2.keys,key_resp_2.rt,tute_resp.keys,tute_resp.rt,tutorial.thisRepN,tutorial.thisTrialN,tutorial.thisN,tutorial.thisIndex,tutorial.ran,key_resp_4.keys,key_resp_4.rt,key_resp.keys,key_resp.corr,key_resp.rt,lines_presented,is_signal_presented,trials.thisRepN,trials.thisTrialN,trials.thisN,trials.thisIndex,trials.ran,vessel,active_band,lines,is_signal,supported_pos,catch_trial,debrief_formindex,debrief_formitemText,debrief_formtype,debrief_formitemWidth,debrief_formresponse,debrief_formrt,phases.thisRepN,phases.thisTrialN,phases.thisN,phases.thisIndex,phases.ran,phases.order,phase,key_resp_3.keys,key_resp_3.rt,trustitemText,trusttype,trustitemWidth,trustindex,trustresponse,trustrt,support_status.thisRepN,support_status.thisTrialN,support_status.thisN,support_status.thisIndex,support_status.ran,support_status.order,key_resp_5.keys,key_resp_5.rt,globalClockTime,userAgent
TRUE,612af78e263861f5d6c7567b,001,2022-04-29_04h01.49.996,classification_task,2021.2.3,MacIntel,60.14675809,612af78e263861f5d6c7567b,626b377229c10585ec392f89,626b4651d0e80528a6d55f91,,,,,,,,,,,,,,,,,,,,,,,,,,,,,,,,,,,,,,,,,,,,,,,,,,,,,,,,,,,,,,,,,,,,,
,612af78e263861f5d6c7567b,001,2022-04-29_04h01.49.996,classification_task,2021.2.3,MacIntel,60.14675809,612af78e263861f5d6c7567b,626b377229c10585ec392f89,626b4651d0e80528a6d55f91,"[[""0.237"",""0.404"",""0.569"",""0.962""],[""0.282"",""0.510"",""0.751"",""0.857""]]","[[""0.076"",""0.354"",""0.617"",""0.800""],[""0.032"",""0.155"",""0.454"",""0.701""]]","[1,10]","[100,1000]",Video game experience,,,0.7,0,,,,,,,,,,,,,,,,,,,,,,,,,,,,,,,,,,,,,,,,,,,,,,,,,,,,,,,,,,,,
,612af78e263861f5d6c7567b,001,2022-04-29_04h01.49.996,classification_task,2021.2.3,MacIntel,60.14675809,612af78e263861f5d6c7567b,626b377229c10585ec392f89,626b4651d0e80528a6d55f91,,,,,Approximately how many hours did you spend playing video games in the last week?,,,0.7,0,4,,,,,,,,,,,,,,,,,,,,,,,,,,,,,,,,,,,,,,,,,,,,,,,,,,,,,,,,,,,
,612af78e263861f5d6c7567b,001,2022-04-29_04h01.49.996,classification_task,2021.2.3,MacIntel,60.14675809,612af78e263861f5d6c7567b,626b377229c10585ec392f89,626b4651d0e80528a6d55f91,,,,,"Which game did you play the most this year? (Enter ""None"" if you didn't play any)",,,0.7,0,need for speed,,,,,,,,,,,,,,,,,,,,,,,,,,,,,,,,,,,,,,,,,,,,,,,,,,,,,,,,,,,
,612af78e263861f5d6c7567b,001,2022-04-29_04h01.49.996,classification_task,2021.2.3,MacIntel,60.14675809,612af78e263861f5d6c7567b,626b377229c10585ec392f89,626b4651d0e80528a6d55f91,,,,,Visual perception,,,0.7,0,,,,,,,,,,,,,,,,,,,,,,,,,,,,,,,,,,,,,,,,,,,,,,,,,,,,,,,,,,,,
,612af78e263861f5d6c7567b,001,2022-04-29_04h01.49.996,classification_task,2021.2.3,MacIntel,60.14675809,612af78e263861f5d6c7567b,626b377229c10585ec392f89,626b4651d0e80528a6d55f91,,,,,Do you have any form of color blindness?,,,0.7,0,No,32.4511,,,,,,,,,,,,,,,,,,,,,,,,,,,,,,,,,,,,,,,,,,,,,,,,,,,,,,,,,,
,612af78e263861f5d6c7567b,001,2022-04-29_04h01.49.996,classification_task,2021.2.3,MacIntel,60.14675809,612af78e263861f5d6c7567b,626b377229c10585ec392f89,626b4651d0e80528a6d55f91,,,,,Do you use software to change the colour temperature of your screen (e.g. f.lux)?,,,0.7,0,No,37.4337,,,,,,,,,,,,,,,,,,,,,,,,,,,,,,,,,,,,,,,,,,,,,,,,,,,,,,,,,,
,612af78e263861f5d6c7567b,001,2022-04-29_04h01.49.996,classification_task,2021.2.3,MacIntel,60.14675809,612af78e263861f5d6c7567b,626b377229c10585ec392f89,626b4651d0e80528a6d55f91,,,,,,,,,,,,space,58.6627,space,13.6333,0,0,0,0,1,,,,,,,,,,,,,,,,,,,,,,,,,,,,,,,,,,,,,,,,,,,,,,,,,
,612af78e263861f5d6c7567b,001,2022-04-29_04h01.49.996,classification_task,2021.2.3,MacIntel,60.14675809,612af78e263861f5d6c7567b,626b377229c10585ec392f89,626b4651d0e80528a6d55f91,,,,,,,,,,,,,,space,8.6277,1,0,1,0,1,,,,,,,,,,,,,,,,,,,,,,,,,,,,,,,,,,,,,,,,,,,,,,,,,
,612af78e263861f5d6c7567b,001,2022-04-29_04h01.49.996,classification_task,2021.2.3,MacIntel,60.14675809,612af78e263861f5d6c7567b,626b377229c10585ec392f89,626b4651d0e80528a6d55f91,,,,,,,,,,,,,,space,36.0159,2,0,2,0,1,,,,,,,,,,,,,,,,,,,,,,,,,,,,,,,,,,,,,,,,,,,,,,,,,
,612af78e263861f5d6c7567b,001,2022-04-29_04h01.49.996,classification_task,2021.2.3,MacIntel,60.14675809,612af78e263861f5d6c7567b,626b377229c10585ec392f89,626b4651d0e80528a6d55f91,,,,,,,,,,,,,,space,46.5085,3,0,3,0,1,,,,,,,,,,,,,,,,,,,,,,,,,,,,,,,,,,,,,,,,,,,,,,,,,
,612af78e263861f5d6c7567b,001,2022-04-29_04h01.49.996,classification_task,2021.2.3,MacIntel,60.14675809,612af78e263861f5d6c7567b,626b377229c10585ec392f89,626b4651d0e80528a6d55f91,,,,,,,,,,,,,,space,18.4064,4,0,4,0,1,,,,,,,,,,,,,,,,,,,,,,,,,,,,,,,,,,,,,,,,,,,,,,,,,
,612af78e263861f5d6c7567b,001,2022-04-29_04h01.49.996,classification_task,2021.2.3,MacIntel,60.14675809,612af78e263861f5d6c7567b,626b377229c10585ec392f89,626b4651d0e80528a6d55f91,,,,,,,,,,,,,,,,,,,,,space,23.9188,a,1,5.0835,"[""0.237"",""0.404"",""0.569"",""0.655""]","[1,1,1,0]",0,0,0,0,1,0,0,,,0,FALSE,,,,,,,,,,,,,,,,,,,,,,,,,,,,,,,
,612af78e263861f5d6c7567b,001,2022-04-29_04h01.49.996,classification_task,2021.2.3,MacIntel,60.14675809,612af78e263861f5d6c7567b,626b377229c10585ec392f89,626b4651d0e80528a6d55f91,,,,,,,,,,,,,,,,,,,,,,,a,0,6.0525,"[""0.032"",""0.155"",""0.193"",""0.701""]","[1,1,0,1]",0,1,1,1,1,1,1,,,0,FALSE,,,,,,,,,,,,,,,,,,,,,,,,,,,,,,,
,612af78e263861f5d6c7567b,001,2022-04-29_04h01.49.996,classification_task,2021.2.3,MacIntel,60.14675809,612af78e263861f5d6c7567b,626b377229c10585ec392f89,626b4651d0e80528a6d55f91,,,,,,,,,,,,,,,,,,,,,,,,0,,"[""0.659"",""0.155"",""0.454"",""0.701""]","[0,1,1,1]",0,2,2,2,1,1,1,,,0,FALSE,,,,,,,,,,,,,,,,,,,,,,,,,,,,,,,
,612af78e263861f5d6c7567b,001,2022-04-29_04h01.49.996,classification_task,2021.2.3,MacIntel,60.14675809,612af78e263861f5d6c7567b,626b377229c10585ec392f89,626b4651d0e80528a6d55f91,,,,,,,,,,,,,,,,,,,,,,,a,1,4.1061,"[""0.237"",""0.198"",""0.569"",""0.962""]","[1,0,1,1]",0,3,3,3,1,0,0,,,0,FALSE,,,,,,,,,,,,,,,,,,,,,,,,,,,,,,,
,612af78e263861f5d6c7567b,001,2022-04-29_04h01.49.996,classification_task,2021.2.3,MacIntel,60.14675809,612af78e263861f5d6c7567b,626b377229c10585ec392f89,626b4651d0e80528a6d55f91,,,,,,,,,,,,,,,,,,,,,,,a,1,7.0976,"[""0.655"",""0.510"",""0.751"",""0.857""]","[0,1,1,1]",0,4,4,4,1,0,1,,,0,FALSE,,,,,,,,,,,,,,,,,,,,,,,,,,,,,,,
,612af78e263861f5d6c7567b,001,2022-04-29_04h01.49.996,classification_task,2021.2.3,MacIntel,60.14675809,612af78e263861f5d6c7567b,626b377229c10585ec392f89,626b4651d0e80528a6d55f91,,,,,,,,,,,,,,,,,,,,,,,l,1,7.799,"[""0.076"",""0.354"",""0.922"",""0.800""]","[1,1,0,1]",0,5,5,5,1,1,0,,,0,FALSE,,,,,,,,,,,,,,,,,,,,,,,,,,,,,,,
,612af78e263861f5d6c7567b,001,2022-04-29_04h01.49.996,classification_task,2021.2.3,MacIntel,60.14675809,612af78e263861f5d6c7567b,626b377229c10585ec392f89,626b4651d0e80528a6d55f91,,,,,,,,,,,,,,,,,,,,,,,,0,,"[""0.237"",""0.404"",""0.667"",""0.962""]","[1,1,0,1]",0,6,6,6,1,0,0,,,0,FALSE,,,,,,,,,,,,,,,,,,,,,,,,,,,,,,,
,612af78e263861f5d6c7567b,001,2022-04-29_04h01.49.996,classification_task,2021.2.3,MacIntel,60.14675809,612af78e263861f5d6c7567b,626b377229c10585ec392f89,626b4651d0e80528a6d55f91,,,,,,,,,,,,,,,,,,,,,,,a,0,4.8533,"[""0.032"",""0.317"",""0.454"",""0.701""]","[1,0,1,1]",0,7,7,7,1,1,1,,,0,FALSE,,,,,,,,,,,,,,,,,,,,,,,,,,,,,,,
,612af78e263861f5d6c7567b,001,2022-04-29_04h01.49.996,classification_task,2021.2.3,MacIntel,60.14675809,612af78e263861f5d6c7567b,626b377229c10585ec392f89,626b4651d0e80528a6d55f91,,,,,,,,,,,,,,,,,,,,,,,l,0,1.9524,"[""0.282"",""0.510"",""0.751"",""0.655""]","[1,1,1,0]",0,8,8,8,1,0,1,,,0,FALSE,,,,,,,,,,,,,,,,,,,,,,,,,,,,,,,
,612af78e263861f5d6c7567b,001,2022-04-29_04h01.49.996,classification_task,2021.2.3,MacIntel,60.14675809,612af78e263861f5d6c7567b,626b377229c10585ec392f89,626b4651d0e80528a6d55f91,,,,,,,,,,,,,,,,,,,,,,,l,0,4.6569,"[""0.660"",""0.404"",""0.569"",""0.962""]","[0,1,1,1]",0,9,9,9,1,0,0,,,0,FALSE,,,,,,,,,,,,,,,,,,,,,,,,,,,,,,,
,612af78e263861f5d6c7567b,001,2022-04-29_04h01.49.996,classification_task,2021.2.3,MacIntel,60.14675809,612af78e263861f5d6c7567b,626b377229c10585ec392f89,626b4651d0e80528a6d55f91,,,,,,,,,,,,,,,,,,,,,,,a,1,4.0953,"[""0.282"",""0.510"",""0.924"",""0.857""]","[1,1,0,1]",0,10,10,10,1,0,1,,,0,FALSE,,,,,,,,,,,,,,,,,,,,,,,,,,,,,,,
,612af78e263861f5d6c7567b,001,2022-04-29_04h01.49.996,classification_task,2021.2.3,MacIntel,60.14675809,612af78e263861f5d6c7567b,626b377229c10585ec392f89,626b4651d0e80528a6d55f91,,,,,,,,,,,,,,,,,,,,,,,a,0,3.1084,"[""0.193"",""0.354"",""0.617"",""0.800""]","[0,1,1,1]",0,11,11,11,1,1,0,,,0,FALSE,,,,,,,,,,,,,,,,,,,,,,,,,,,,,,,
,612af78e263861f5d6c7567b,001,2022-04-29_04h01.49.996,classification_task,2021.2.3,MacIntel,60.14675809,612af78e263861f5d6c7567b,626b377229c10585ec392f89,626b4651d0e80528a6d55f91,,,,,,,,,,,,,,,,,,,,,,,l,1,5.4789,"[""0.076"",""0.354"",""0.617"",""0.655""]","[1,1,1,0]",0,12,12,12,1,1,0,,,0,FALSE,,,,,,,,,,,,,,,,,,,,,,,,,,,,,,,
,612af78e263861f5d6c7567b,001,2022-04-29_04h01.49.996,classification_task,2021.2.3,MacIntel,60.14675809,612af78e263861f5d6c7567b,626b377229c10585ec392f89,626b4651d0e80528a6d55f91,,,,,,,,,,,,,,,,,,,,,,,a,1,3.0608,"[""0.282"",""0.193"",""0.751"",""0.857""]","[1,0,1,1]",0,13,13,13,1,0,1,,,0,FALSE,,,,,,,,,,,,,,,,,,,,,,,,,,,,,,,
,612af78e263861f5d6c7567b,001,2022-04-29_04h01.49.996,classification_task,2021.2.3,MacIntel,60.14675809,612af78e263861f5d6c7567b,626b377229c10585ec392f89,626b4651d0e80528a6d55f91,,,,,,,,,,,,,,,,,,,,,,,a,0,1.786,"[""0.032"",""0.155"",""0.454"",""0.924""]","[1,1,1,0]",0,14,14,14,1,1,1,,,0,FALSE,,,,,,,,,,,,,,,,,,,,,,,,,,,,,,,
,612af78e263861f5d6c7567b,001,2022-04-29_04h01.49.996,classification_task,2021.2.3,MacIntel,60.14675809,612af78e263861f5d6c7567b,626b377229c10585ec392f89,626b4651d0e80528a6d55f91,,,,,,,,,,,,,,,,,,,,,,,l,1,1.7607,"[""0.076"",""0.924"",""0.617"",""0.800""]","[1,0,1,1]",0,15,15,15,1,1,0,,,0,FALSE,,,,,,,,,,,,,,,,,,,,,,,,,,,,,,,
,612af78e263861f5d6c7567b,001,2022-04-29_04h01.49.996,classification_task,2021.2.3,MacIntel,60.14675809,612af78e263861f5d6c7567b,626b377229c10585ec392f89,626b4651d0e80528a6d55f91,,,,,,,,,,,,,,,,,,,,,,,a,0,1.9928,"[""0.655"",""0.155"",""0.454"",""0.701""]","[0,1,1,1]",0,16,16,16,1,1,1,,,0,FALSE,,,,,,,,,,,,,,,,,,,,,,,,,,,,,,,
,612af78e263861f5d6c7567b,001,2022-04-29_04h01.49.996,classification_task,2021.2.3,MacIntel,60.14675809,612af78e263861f5d6c7567b,626b377229c10585ec392f89,626b4651d0e80528a6d55f91,,,,,,,,,,,,,,,,,,,,,,,a,0,1.0258,"[""0.032"",""0.193"",""0.454"",""0.701""]","[1,0,1,1]",0,17,17,17,1,1,1,,,0,FALSE,,,,,,,,,,,,,,,,,,,,,,,,,,,,,,,
,612af78e263861f5d6c7567b,001,2022-04-29_04h01.49.996,classification_task,2021.2.3,MacIntel,60.14675809,612af78e263861f5d6c7567b,626b377229c10585ec392f89,626b4651d0e80528a6d55f91,,,,,,,,,,,,,,,,,,,,,,,l,0,1.2642,"[""0.237"",""0.907"",""0.569"",""0.962""]","[1,0,1,1]",0,18,18,18,1,0,0,,,0,FALSE,,,,,,,,,,,,,,,,,,,,,,,,,,,,,,,
,612af78e263861f5d6c7567b,001,2022-04-29_04h01.49.996,classification_task,2021.2.3,MacIntel,60.14675809,612af78e263861f5d6c7567b,626b377229c10585ec392f89,626b4651d0e80528a6d55f91,,,,,,,,,,,,,,,,,,,,,,,l,0,1.0784,"[""0.660"",""0.510"",""0.751"",""0.857""]","[0,1,1,1]",0,19,19,19,1,0,1,,,0,FALSE,,,,,,,,,,,,,,,,,,,,,,,,,,,,,,,
,612af78e263861f5d6c7567b,001,2022-04-29_04h01.49.996,classification_task,2021.2.3,MacIntel,60.14675809,612af78e263861f5d6c7567b,626b377229c10585ec392f89,626b4651d0e80528a6d55f91,,,,,,,,,,,,,,,,,,,,,,,l,0,2.9761,"[""0.237"",""0.404"",""0.569"",""0.666""]","[1,1,1,0]",0,20,20,20,1,0,0,,,0,FALSE,,,,,,,,,,,,,,,,,,,,,,,,,,,,,,,
,612af78e263861f5d6c7567b,001,2022-04-29_04h01.49.996,classification_task,2021.2.3,MacIntel,60.14675809,612af78e263861f5d6c7567b,626b377229c10585ec392f89,626b4651d0e80528a6d55f91,,,,,,,,,,,,,,,,,,,,,,,a,0,0.9474,"[""0.032"",""0.155"",""0.318"",""0.701""]","[1,1,0,1]",0,21,21,21,1,1,1,,,0,FALSE,,,,,,,,,,,,,,,,,,,,,,,,,,,,,,,
,612af78e263861f5d6c7567b,001,2022-04-29_04h01.49.996,classification_task,2021.2.3,MacIntel,60.14675809,612af78e263861f5d6c7567b,626b377229c10585ec392f89,626b4651d0e80528a6d55f91,,,,,,,,,,,,,,,,,,,,,,,a,0,0.7287,"[""0.076"",""0.354"",""0.617"",""0.655""]","[1,1,1,0]",0,22,22,22,1,1,0,,,0,FALSE,,,,,,,,,,,,,,,,,,,,,,,,,,,,,,,
,612af78e263861f5d6c7567b,001,2022-04-29_04h01.49.996,classification_task,2021.2.3,MacIntel,60.14675809,612af78e263861f5d6c7567b,626b377229c10585ec392f89,626b4651d0e80528a6d55f91,,,,,,,,,,,,,,,,,,,,,,,a,0,2.1643,"[""0.076"",""0.193"",""0.617"",""0.800""]","[1,0,1,1]",0,23,23,23,1,1,0,,,0,FALSE,,,,,,,,,,,,,,,,,,,,,,,,,,,,,,,
,612af78e263861f5d6c7567b,001,2022-04-29_04h01.49.996,classification_task,2021.2.3,MacIntel,60.14675809,612af78e263861f5d6c7567b,626b377229c10585ec392f89,626b4651d0e80528a6d55f91,,,,,,,,,,,,,,,,,,,,,,,l,0,1.1985,"[""0.282"",""0.510"",""0.907"",""0.857""]","[1,1,0,1]",0,24,24,24,1,0,1,,,0,FALSE,,,,,,,,,,,,,,,,,,,,,,,,,,,,,,,
,612af78e263861f5d6c7567b,001,2022-04-29_04h01.49.996,classification_task,2021.2.3,MacIntel,60.14675809,612af78e263861f5d6c7567b,626b377229c10585ec392f89,626b4651d0e80528a6d55f91,,,,,,,,,,,,,,,,,,,,,,,a,1,0.5223,"[""0.282"",""0.510"",""0.751"",""0.655""]","[1,1,1,0]",0,25,25,25,1,0,1,,,0,FALSE,,,,,,,,,,,,,,,,,,,,,,,,,,,,,,,
,612af78e263861f5d6c7567b,001,2022-04-29_04h01.49.996,classification_task,2021.2.3,MacIntel,60.14675809,612af78e263861f5d6c7567b,626b377229c10585ec392f89,626b4651d0e80528a6d55f91,,,,,,,,,,,,,,,,,,,,,,,a,1,7.9687,"[""0.237"",""0.404"",""0.907"",""0.962""]","[1,1,0,1]",0,26,26,26,1,0,0,,,0,FALSE,,,,,,,,,,,,,,,,,,,,,,,,,,,,,,,
,612af78e263861f5d6c7567b,001,2022-04-29_04h01.49.996,classification_task,2021.2.3,MacIntel,60.14675809,612af78e263861f5d6c7567b,626b377229c10585ec392f89,626b4651d0e80528a6d55f91,,,,,,,,,,,,,,,,,,,,,,,,0,,"[""0.032"",""0.155"",""0.454"",""0.667""]","[1,1,1,0]",0,27,27,27,1,1,1,,,0,FALSE,,,,,,,,,,,,,,,,,,,,,,,,,,,,,,,
,612af78e263861f5d6c7567b,001,2022-04-29_04h01.49.996,classification_task,2021.2.3,MacIntel,60.14675809,612af78e263861f5d6c7567b,626b377229c10585ec392f89,626b4651d0e80528a6d55f91,,,,,,,,,,,,,,,,,,,,,,,a,1,4.9399,"[""0.282"",""0.122"",""0.751"",""0.857""]","[1,0,1,1]",0,28,28,28,1,0,1,,,0,FALSE,,,,,,,,,,,,,,,,,,,,,,,,,,,,,,,
,612af78e263861f5d6c7567b,001,2022-04-29_04h01.49.996,classification_task,2021.2.3,MacIntel,60.14675809,612af78e263861f5d6c7567b,626b377229c10585ec392f89,626b4651d0e80528a6d55f91,,,,,,,,,,,,,,,,,,,,,,,a,0,4.5095,"[""0.076"",""0.354"",""0.317"",""0.800""]","[1,1,0,1]",0,29,29,29,1,1,0,,,0,FALSE,,,,,,,,,,,,,,,,,,,,,,,,,,,,,,,
,612af78e263861f5d6c7567b,001,2022-04-29_04h01.49.996,classification_task,2021.2.3,MacIntel,60.14675809,612af78e263861f5d6c7567b,626b377229c10585ec392f89,626b4651d0e80528a6d55f91,,,,,,,,,,,,,,,,,,,,,,,a,0,3.5817,"[""0.318"",""0.354"",""0.617"",""0.800""]","[0,1,1,1]",0,30,30,30,1,1,0,,,0,FALSE,,,,,,,,,,,,,,,,,,,,,,,,,,,,,,,
,612af78e263861f5d6c7567b,001,2022-04-29_04h01.49.996,classification_task,2021.2.3,MacIntel,60.14675809,612af78e263861f5d6c7567b,626b377229c10585ec392f89,626b4651d0e80528a6d55f91,,,,,,,,,,,,,,,,,,,,,,,l,0,1.1079,"[""0.907"",""0.404"",""0.569"",""0.962""]","[0,1,1,1]",0,31,31,31,1,0,0,,,0,FALSE,,,,,,,,,,,,,,,,,,,,,,,,,,,,,,,
,612af78e263861f5d6c7567b,001,2022-04-29_04h01.49.996,classification_task,2021.2.3,MacIntel,60.14675809,612af78e263861f5d6c7567b,626b377229c10585ec392f89,626b4651d0e80528a6d55f91,,,,,,,,,,,,,,,,,,,,,,,a,0,0.299,"[""0.318"",""0.155"",""0.454"",""0.701""]","[0,1,1,1]",0,32,32,32,1,1,1,,,0,FALSE,,,,,,,,,,,,,,,,,,,,,,,,,,,,,,,
,612af78e263861f5d6c7567b,001,2022-04-29_04h01.49.996,classification_task,2021.2.3,MacIntel,60.14675809,612af78e263861f5d6c7567b,626b377229c10585ec392f89,626b4651d0e80528a6d55f91,,,,,,,,,,,,,,,,,,,,,,,l,1,0.5,"[""0.198"",""0.354"",""0.617"",""0.800""]","[0,1,1,1]",0,33,33,33,1,1,0,,,0,FALSE,,,,,,,,,,,,,,,,,,,,,,,,,,,,,,,
,612af78e263861f5d6c7567b,001,2022-04-29_04h01.49.996,classification_task,2021.2.3,MacIntel,60.14675809,612af78e263861f5d6c7567b,626b377229c10585ec392f89,626b4651d0e80528a6d55f91,,,,,,,,,,,,,,,,,,,,,,,l,0,0.615,"[""0.237"",""0.660"",""0.569"",""0.962""]","[1,0,1,1]",0,34,34,34,1,0,0,,,0,FALSE,,,,,,,,,,,,,,,,,,,,,,,,,,,,,,,
,612af78e263861f5d6c7567b,001,2022-04-29_04h01.49.996,classification_task,2021.2.3,MacIntel,60.14675809,612af78e263861f5d6c7567b,626b377229c10585ec392f89,626b4651d0e80528a6d55f91,,,,,,,,,,,,,,,,,,,,,,,l,0,0.913,"[""0.237"",""0.404"",""0.655"",""0.962""]","[1,1,0,1]",0,35,35,35,1,0,0,,,0,FALSE,,,,,,,,,,,,,,,,,,,,,,,,,,,,,,,
,612af78e263861f5d6c7567b,001,2022-04-29_04h01.49.996,classification_task,2021.2.3,MacIntel,60.14675809,612af78e263861f5d6c7567b,626b377229c10585ec392f89,626b4651d0e80528a6d55f91,,,,,,,,,,,,,,,,,,,,,,,l,0,0.7357,"[""0.110"",""0.510"",""0.751"",""0.857""]","[0,1,1,1]",0,36,36,36,1,0,1,,,0,FALSE,,,,,,,,,,,,,,,,,,,,,,,,,,,,,,,
,612af78e263861f5d6c7567b,001,2022-04-29_04h01.49.996,classification_task,2021.2.3,MacIntel,60.14675809,612af78e263861f5d6c7567b,626b377229c10585ec392f89,626b4651d0e80528a6d55f91,,,,,,,,,,,,,,,,,,,,,,,a,1,0.803,"[""0.659"",""0.404"",""0.569"",""0.962""]","[0,1,1,1]",0,37,37,37,1,0,0,,,0,FALSE,,,,,,,,,,,,,,,,,,,,,,,,,,,,,,,
,612af78e263861f5d6c7567b,001,2022-04-29_04h01.49.996,classification_task,2021.2.3,MacIntel,60.14675809,612af78e263861f5d6c7567b,626b377229c10585ec392f89,626b4651d0e80528a6d55f91,,,,,,,,,,,,,,,,,,,,,,,l,0,1.1979,"[""0.282"",""0.510"",""0.122"",""0.857""]","[1,1,0,1]",0,38,38,38,1,0,1,,,0,FALSE,,,,,,,,,,,,,,,,,,,,,,,,,,,,,,,
,612af78e263861f5d6c7567b,001,2022-04-29_04h01.49.996,classification_task,2021.2.3,MacIntel,60.14675809,612af78e263861f5d6c7567b,626b377229c10585ec392f89,626b4651d0e80528a6d55f91,,,,,,,,,,,,,,,,,,,,,,,a,0,1.1152,"[""0.032"",""0.155"",""0.454"",""0.660""]","[1,1,1,0]",0,39,39,39,1,1,1,,,0,FALSE,,,,,,,,,,,,,,,,,,,,,,,,,,,,,,,
,612af78e263861f5d6c7567b,001,2022-04-29_04h01.49.996,classification_task,2021.2.3,MacIntel,60.14675809,612af78e263861f5d6c7567b,626b377229c10585ec392f89,626b4651d0e80528a6d55f91,,,,,,,,,,,,,,,,,,,,,,,a,0,1.702,"[""0.032"",""0.155"",""0.193"",""0.701""]","[1,1,0,1]",0,40,40,40,1,1,1,,,0,FALSE,,,,,,,,,,,,,,,,,,,,,,,,,,,,,,,
,612af78e263861f5d6c7567b,001,2022-04-29_04h01.49.996,classification_task,2021.2.3,MacIntel,60.14675809,612af78e263861f5d6c7567b,626b377229c10585ec392f89,626b4651d0e80528a6d55f91,,,,,,,,,,,,,,,,,,,,,,,a,0,0.798,"[""0.076"",""0.354"",""0.617"",""0.317""]","[1,1,1,0]",0,41,41,41,1,1,0,,,0,FALSE,,,,,,,,,,,,,,,,,,,,,,,,,,,,,,,
,612af78e263861f5d6c7567b,001,2022-04-29_04h01.49.996,classification_task,2021.2.3,MacIntel,60.14675809,612af78e263861f5d6c7567b,626b377229c10585ec392f89,626b4651d0e80528a6d55f91,,,,,,,,,,,,,,,,,,,,,,,l,1,0.3322,"[""0.076"",""0.354"",""0.198"",""0.800""]","[1,1,0,1]",0,42,42,42,1,1,0,,,0,FALSE,,,,,,,,,,,,,,,,,,,,,,,,,,,,,,,
,612af78e263861f5d6c7567b,001,2022-04-29_04h01.49.996,classification_task,2021.2.3,MacIntel,60.14675809,612af78e263861f5d6c7567b,626b377229c10585ec392f89,626b4651d0e80528a6d55f91,,,,,,,,,,,,,,,,,,,,,,,l,0,1.4641,"[""0.237"",""0.404"",""0.569"",""0.110""]","[1,1,1,0]",0,43,43,43,1,0,0,,,0,FALSE,,,,,,,,,,,,,,,,,,,,,,,,,,,,,,,
,612af78e263861f5d6c7567b,001,2022-04-29_04h01.49.996,classification_task,2021.2.3,MacIntel,60.14675809,612af78e263861f5d6c7567b,626b377229c10585ec392f89,626b4651d0e80528a6d55f91,,,,,,,,,,,,,,,,,,,,,,,a,1,0.4656,"[""0.282"",""0.510"",""0.751"",""0.667""]","[1,1,1,0]",0,44,44,44,1,0,1,,,0,FALSE,,,,,,,,,,,,,,,,,,,,,,,,,,,,,,,
,612af78e263861f5d6c7567b,001,2022-04-29_04h01.49.996,classification_task,2021.2.3,MacIntel,60.14675809,612af78e263861f5d6c7567b,626b377229c10585ec392f89,626b4651d0e80528a6d55f91,,,,,,,,,,,,,,,,,,,,,,,a,0,1.898,"[""0.032"",""0.318"",""0.454"",""0.701""]","[1,0,1,1]",0,45,45,45,1,1,1,,,0,FALSE,,,,,,,,,,,,,,,,,,,,,,,,,,,,,,,
,612af78e263861f5d6c7567b,001,2022-04-29_04h01.49.996,classification_task,2021.2.3,MacIntel,60.14675809,612af78e263861f5d6c7567b,626b377229c10585ec392f89,626b4651d0e80528a6d55f91,,,,,,,,,,,,,,,,,,,,,,,a,0,0.8984,"[""0.076"",""0.667"",""0.617"",""0.800""]","[1,0,1,1]",0,46,46,46,1,1,0,,,0,FALSE,,,,,,,,,,,,,,,,,,,,,,,,,,,,,,,
,612af78e263861f5d6c7567b,001,2022-04-29_04h01.49.996,classification_task,2021.2.3,MacIntel,60.14675809,612af78e263861f5d6c7567b,626b377229c10585ec392f89,626b4651d0e80528a6d55f91,,,,,,,,,,,,,,,,,,,,,,,a,1,0.8142,"[""0.282"",""0.660"",""0.751"",""0.857""]","[1,0,1,1]",0,47,47,47,1,0,1,,,0,FALSE,,,,,,,,,,,,,,,,,,,,,,,,,,,,,,,
,612af78e263861f5d6c7567b,001,2022-04-29_04h01.49.996,classification_task,2021.2.3,MacIntel,60.14675809,612af78e263861f5d6c7567b,626b377229c10585ec392f89,626b4651d0e80528a6d55f91,,,,,,,,,,,,,,,,,,,,,,,a,1,6.8667,"[""0.237"",""0.404"",""0.569"",""0.317""]","[1,1,1,0]",0,48,48,48,1,0,0,,,0,FALSE,,,,,,,,,,,,,,,,,,,,,,,,,,,,,,,
,612af78e263861f5d6c7567b,001,2022-04-29_04h01.49.996,classification_task,2021.2.3,MacIntel,60.14675809,612af78e263861f5d6c7567b,626b377229c10585ec392f89,626b4651d0e80528a6d55f91,,,,,,,,,,,,,,,,,,,,,,,l,1,4.3971,"[""0.032"",""0.193"",""0.454"",""0.701""]","[1,0,1,1]",0,49,49,49,1,1,1,,,0,FALSE,,,,,,,,,,,,,,,,,,,,,,,,,,,,,,,
,612af78e263861f5d6c7567b,001,2022-04-29_04h01.49.996,classification_task,2021.2.3,MacIntel,60.14675809,612af78e263861f5d6c7567b,626b377229c10585ec392f89,626b4651d0e80528a6d55f91,,,,,,,,,,,,,,,,,,,,,,,l,1,5.1631,"[""0.659"",""0.155"",""0.454"",""0.701""]","[0,1,1,1]",0,50,50,50,1,1,1,,,0,FALSE,,,,,,,,,,,,,,,,,,,,,,,,,,,,,,,
,612af78e263861f5d6c7567b,001,2022-04-29_04h01.49.996,classification_task,2021.2.3,MacIntel,60.14675809,612af78e263861f5d6c7567b,626b377229c10585ec392f89,626b4651d0e80528a6d55f91,,,,,,,,,,,,,,,,,,,,,,,a,0,3.764,"[""0.076"",""0.354"",""0.662"",""0.800""]","[1,1,0,1]",0,51,51,51,1,1,0,,,0,FALSE,,,,,,,,,,,,,,,,,,,,,,,,,,,,,,,
,612af78e263861f5d6c7567b,001,2022-04-29_04h01.49.996,classification_task,2021.2.3,MacIntel,60.14675809,612af78e263861f5d6c7567b,626b377229c10585ec392f89,626b4651d0e80528a6d55f91,,,,,,,,,,,,,,,,,,,,,,,l,1,2.4682,"[""0.892"",""0.354"",""0.617"",""0.800""]","[0,1,1,1]",0,52,52,52,1,1,0,,,0,FALSE,,,,,,,,,,,,,,,,,,,,,,,,,,,,,,,
,612af78e263861f5d6c7567b,001,2022-04-29_04h01.49.996,classification_task,2021.2.3,MacIntel,60.14675809,612af78e263861f5d6c7567b,626b377229c10585ec392f89,626b4651d0e80528a6d55f91,,,,,,,,,,,,,,,,,,,,,,,a,0,1.6346,"[""0.076"",""0.655"",""0.617"",""0.800""]","[1,0,1,1]",0,53,53,53,1,1,0,,,0,FALSE,,,,,,,,,,,,,,,,,,,,,,,,,,,,,,,
,612af78e263861f5d6c7567b,001,2022-04-29_04h01.49.996,classification_task,2021.2.3,MacIntel,60.14675809,612af78e263861f5d6c7567b,626b377229c10585ec392f89,626b4651d0e80528a6d55f91,,,,,,,,,,,,,,,,,,,,,,,l,0,2.8727,"[""0.198"",""0.510"",""0.751"",""0.857""]","[0,1,1,1]",0,54,54,54,1,0,1,,,0,FALSE,,,,,,,,,,,,,,,,,,,,,,,,,,,,,,,
,612af78e263861f5d6c7567b,001,2022-04-29_04h01.49.996,classification_task,2021.2.3,MacIntel,60.14675809,612af78e263861f5d6c7567b,626b377229c10585ec392f89,626b4651d0e80528a6d55f91,,,,,,,,,,,,,,,,,,,,,,,a,1,0.7044,"[""0.237"",""0.655"",""0.569"",""0.962""]","[1,0,1,1]",0,55,55,55,1,0,0,,,0,FALSE,,,,,,,,,,,,,,,,,,,,,,,,,,,,,,,
,612af78e263861f5d6c7567b,001,2022-04-29_04h01.49.996,classification_task,2021.2.3,MacIntel,60.14675809,612af78e263861f5d6c7567b,626b377229c10585ec392f89,626b4651d0e80528a6d55f91,,,,,,,,,,,,,,,,,,,,,,,a,1,2.5448,"[""0.282"",""0.510"",""0.892"",""0.857""]","[1,1,0,1]",0,56,56,56,1,0,1,,,0,FALSE,,,,,,,,,,,,,,,,,,,,,,,,,,,,,,,
,612af78e263861f5d6c7567b,001,2022-04-29_04h01.49.996,classification_task,2021.2.3,MacIntel,60.14675809,612af78e263861f5d6c7567b,626b377229c10585ec392f89,626b4651d0e80528a6d55f91,,,,,,,,,,,,,,,,,,,,,,,a,0,1.6793,"[""0.076"",""0.354"",""0.617"",""0.667""]","[1,1,1,0]",0,57,57,57,1,1,0,,,0,FALSE,,,,,,,,,,,,,,,,,,,,,,,,,,,,,,,
,612af78e263861f5d6c7567b,001,2022-04-29_04h01.49.996,classification_task,2021.2.3,MacIntel,60.14675809,612af78e263861f5d6c7567b,626b377229c10585ec392f89,626b4651d0e80528a6d55f91,,,,,,,,,,,,,,,,,,,,,,,a,0,0.9566,"[""0.032"",""0.155"",""0.660"",""0.701""]","[1,1,0,1]",0,58,58,58,1,1,1,,,0,FALSE,,,,,,,,,,,,,,,,,,,,,,,,,,,,,,,
,612af78e263861f5d6c7567b,001,2022-04-29_04h01.49.996,classification_task,2021.2.3,MacIntel,60.14675809,612af78e263861f5d6c7567b,626b377229c10585ec392f89,626b4651d0e80528a6d55f91,,,,,,,,,,,,,,,,,,,,,,,l,0,1.6955,"[""0.282"",""0.198"",""0.751"",""0.857""]","[1,0,1,1]",0,59,59,59,1,0,1,,,0,FALSE,,,,,,,,,,,,,,,,,,,,,,,,,,,,,,,
,612af78e263861f5d6c7567b,001,2022-04-29_04h01.49.996,classification_task,2021.2.3,MacIntel,60.14675809,612af78e263861f5d6c7567b,626b377229c10585ec392f89,626b4651d0e80528a6d55f91,,,,,,,,,,,,,,,,,,,,,,,a,1,1.0467,"[""0.282"",""0.510"",""0.751"",""0.193""]","[1,1,1,0]",0,60,60,60,1,0,1,,,0,FALSE,,,,,,,,,,,,,,,,,,,,,,,,,,,,,,,
,612af78e263861f5d6c7567b,001,2022-04-29_04h01.49.996,classification_task,2021.2.3,MacIntel,60.14675809,612af78e263861f5d6c7567b,626b377229c10585ec392f89,626b4651d0e80528a6d55f91,,,,,,,,,,,,,,,,,,,,,,,a,1,1.5119,"[""0.660"",""0.404"",""0.569"",""0.962""]","[0,1,1,1]",0,61,61,61,1,0,0,,,0,FALSE,,,,,,,,,,,,,,,,,,,,,,,,,,,,,,,
,612af78e263861f5d6c7567b,001,2022-04-29_04h01.49.996,classification_task,2021.2.3,MacIntel,60.14675809,612af78e263861f5d6c7567b,626b377229c10585ec392f89,626b4651d0e80528a6d55f91,,,,,,,,,,,,,,,,,,,,,,,a,1,1.147,"[""0.237"",""0.404"",""0.907"",""0.962""]","[1,1,0,1]",0,62,62,62,1,0,0,,,0,FALSE,,,,,,,,,,,,,,,,,,,,,,,,,,,,,,,
,612af78e263861f5d6c7567b,001,2022-04-29_04h01.49.996,classification_task,2021.2.3,MacIntel,60.14675809,612af78e263861f5d6c7567b,626b377229c10585ec392f89,626b4651d0e80528a6d55f91,,,,,,,,,,,,,,,,,,,,,,,l,1,1.714,"[""0.032"",""0.155"",""0.454"",""0.924""]","[1,1,1,0]",0,63,63,63,1,1,1,,,0,FALSE,,,,,,,,,,,,,,,,,,,,,,,,,,,,,,,
,612af78e263861f5d6c7567b,001,2022-04-29_04h01.49.996,classification_task,2021.2.3,MacIntel,60.14675809,612af78e263861f5d6c7567b,626b377229c10585ec392f89,626b4651d0e80528a6d55f91,,,,,,,,,,,,,,,,,,,,,,,,,,,,,,,,,,,,,,,0, ,,0,8.244745164,531.7859,0,0,0,0,1,2,1,,,,,,,,,,,,,,,,,,
,612af78e263861f5d6c7567b,001,2022-04-29_04h01.49.996,classification_task,2021.2.3,MacIntel,60.14675809,612af78e263861f5d6c7567b,626b377229c10585ec392f89,626b4651d0e80528a6d55f91,,,,,,,,,,,,,,,,,,,,,,,,,,,,,,,,,,,,,,,1,  ,,0,9.149098876,527.5807,0,0,0,0,1,2,1,,,,,,,,,,,,,,,,,,
,612af78e263861f5d6c7567b,001,2022-04-29_04h01.49.996,classification_task,2021.2.3,MacIntel,60.14675809,612af78e263861f5d6c7567b,626b377229c10585ec392f89,626b4651d0e80528a6d55f91,,,,,,,,,,,,,,,,,,,,,,,,,,,,,,,,,,,,,,,2,  ,,0,10,525.949,0,0,0,0,1,2,1,,,,,,,,,,,,,,,,,,
,612af78e263861f5d6c7567b,001,2022-04-29_04h01.49.996,classification_task,2021.2.3,MacIntel,60.14675809,612af78e263861f5d6c7567b,626b377229c10585ec392f89,626b4651d0e80528a6d55f91,,,,,,,,,,,,,,,,,,,,,,,,,,,,,,,,,,,,,,,,,,,,,0,0,0,0,1,,1,,,,,,,,,,,,,,,,,,
,612af78e263861f5d6c7567b,001,2022-04-29_04h01.49.996,classification_task,2021.2.3,MacIntel,60.14675809,612af78e263861f5d6c7567b,626b377229c10585ec392f89,626b4651d0e80528a6d55f91,,,,,,,,,,,,,,,,,,,,,space,16.1946,a,0,4.8555,"[""0.076"",""0.922"",""0.617"",""0.800""]","[1,0,1,1]",0,0,0,0,1,1,0,,,0,FALSE,,,,,,,,,,,,,,,,,,,,,,,,,,,,,,,
,612af78e263861f5d6c7567b,001,2022-04-29_04h01.49.996,classification_task,2021.2.3,MacIntel,60.14675809,612af78e263861f5d6c7567b,626b377229c10585ec392f89,626b4651d0e80528a6d55f91,,,,,,,,,,,,,,,,,,,,,,,a,1,1.6238,"[""0.892"",""0.404"",""0.569"",""0.962""]","[0,1,1,1]",0,1,1,1,1,0,0,,,0,FALSE,,,,,,,,,,,,,,,,,,,,,,,,,,,,,,,
,612af78e263861f5d6c7567b,001,2022-04-29_04h01.49.996,classification_task,2021.2.3,MacIntel,60.14675809,612af78e263861f5d6c7567b,626b377229c10585ec392f89,626b4651d0e80528a6d55f91,,,,,,,,,,,,,,,,,,,,,,,l,1,1.1371,"[""0.076"",""0.354"",""0.666"",""0.800""]","[1,1,0,1]",0,2,2,2,1,1,0,,,0,FALSE,,,,,,,,,,,,,,,,,,,,,,,,,,,,,,,
,612af78e263861f5d6c7567b,001,2022-04-29_04h01.49.996,classification_task,2021.2.3,MacIntel,60.14675809,612af78e263861f5d6c7567b,626b377229c10585ec392f89,626b4651d0e80528a6d55f91,,,,,,,,,,,,,,,,,,,,,,,a,0,2.1123,"[""0.076"",""0.354"",""0.617"",""0.892""]","[1,1,1,0]",0,3,3,3,1,1,0,,,0,FALSE,,,,,,,,,,,,,,,,,,,,,,,,,,,,,,,
,612af78e263861f5d6c7567b,001,2022-04-29_04h01.49.996,classification_task,2021.2.3,MacIntel,60.14675809,612af78e263861f5d6c7567b,626b377229c10585ec392f89,626b4651d0e80528a6d55f91,,,,,,,,,,,,,,,,,,,,,,,l,0,6.2348,"[""0.282"",""0.510"",""0.751"",""0.667""]","[1,1,1,0]",0,4,4,4,1,0,1,,,0,FALSE,,,,,,,,,,,,,,,,,,,,,,,,,,,,,,,
,612af78e263861f5d6c7567b,001,2022-04-29_04h01.49.996,classification_task,2021.2.3,MacIntel,60.14675809,612af78e263861f5d6c7567b,626b377229c10585ec392f89,626b4651d0e80528a6d55f91,,,,,,,,,,,,,,,,,,,,,,,a,0,0.905,"[""0.032"",""0.662"",""0.454"",""0.701""]","[1,0,1,1]",0,5,5,5,1,1,1,,,0,FALSE,,,,,,,,,,,,,,,,,,,,,,,,,,,,,,,
,612af78e263861f5d6c7567b,001,2022-04-29_04h01.49.996,classification_task,2021.2.3,MacIntel,60.14675809,612af78e263861f5d6c7567b,626b377229c10585ec392f89,626b4651d0e80528a6d55f91,,,,,,,,,,,,,,,,,,,,,,,l,0,1.6276,"[""0.237"",""0.404"",""0.924"",""0.962""]","[1,1,0,1]",0,6,6,6,1,0,0,,,0,FALSE,,,,,,,,,,,,,,,,,,,,,,,,,,,,,,,
,612af78e263861f5d6c7567b,001,2022-04-29_04h01.49.996,classification_task,2021.2.3,MacIntel,60.14675809,612af78e263861f5d6c7567b,626b377229c10585ec392f89,626b4651d0e80528a6d55f91,,,,,,,,,,,,,,,,,,,,,,,a,0,0.9931,"[""0.032"",""0.155"",""0.198"",""0.701""]","[1,1,0,1]",0,7,7,7,1,1,1,,,0,FALSE,,,,,,,,,,,,,,,,,,,,,,,,,,,,,,,
,612af78e263861f5d6c7567b,001,2022-04-29_04h01.49.996,classification_task,2021.2.3,MacIntel,60.14675809,612af78e263861f5d6c7567b,626b377229c10585ec392f89,626b4651d0e80528a6d55f91,,,,,,,,,,,,,,,,,,,,,,,l,0,0.6527,"[""0.282"",""0.510"",""0.110"",""0.857""]","[1,1,0,1]",0,8,8,8,1,0,1,,,0,FALSE,,,,,,,,,,,,,,,,,,,,,,,,,,,,,,,
,612af78e263861f5d6c7567b,001,2022-04-29_04h01.49.996,classification_task,2021.2.3,MacIntel,60.14675809,612af78e263861f5d6c7567b,626b377229c10585ec392f89,626b4651d0e80528a6d55f91,,,,,,,,,,,,,,,,,,,,,,,l,0,0.5648,"[""0.666"",""0.510"",""0.751"",""0.857""]","[0,1,1,1]",0,9,9,9,1,0,1,,,0,FALSE,,,,,,,,,,,,,,,,,,,,,,,,,,,,,,,
,612af78e263861f5d6c7567b,001,2022-04-29_04h01.49.996,classification_task,2021.2.3,MacIntel,60.14675809,612af78e263861f5d6c7567b,626b377229c10585ec392f89,626b4651d0e80528a6d55f91,,,,,,,,,,,,,,,,,,,,,,,a,0,0.6149,"[""0.659"",""0.155"",""0.454"",""0.701""]","[0,1,1,1]",0,10,10,10,1,1,1,,,0,FALSE,,,,,,,,,,,,,,,,,,,,,,,,,,,,,,,
,612af78e263861f5d6c7567b,001,2022-04-29_04h01.49.996,classification_task,2021.2.3,MacIntel,60.14675809,612af78e263861f5d6c7567b,626b377229c10585ec392f89,626b4651d0e80528a6d55f91,,,,,,,,,,,,,,,,,,,,,,,a,0,0.4872,"[""0.032"",""0.155"",""0.454"",""0.892""]","[1,1,1,0]",0,11,11,11,1,1,1,,,0,FALSE,,,,,,,,,,,,,,,,,,,,,,,,,,,,,,,
,612af78e263861f5d6c7567b,001,2022-04-29_04h01.49.996,classification_task,2021.2.3,MacIntel,60.14675809,612af78e263861f5d6c7567b,626b377229c10585ec392f89,626b4651d0e80528a6d55f91,,,,,,,,,,,,,,,,,,,,,,,a,0,1.546,"[""0.667"",""0.354"",""0.617"",""0.800""]","[0,1,1,1]",0,12,12,12,1,1,0,,,0,FALSE,,,,,,,,,,,,,,,,,,,,,,,,,,,,,,,
,612af78e263861f5d6c7567b,001,2022-04-29_04h01.49.996,classification_task,2021.2.3,MacIntel,60.14675809,612af78e263861f5d6c7567b,626b377229c10585ec392f89,626b4651d0e80528a6d55f91,,,,,,,,,,,,,,,,,,,,,,,l,0,0.7492,"[""0.282"",""0.662"",""0.751"",""0.857""]","[1,0,1,1]",0,13,13,13,1,0,1,,,0,FALSE,,,,,,,,,,,,,,,,,,,,,,,,,,,,,,,
,612af78e263861f5d6c7567b,001,2022-04-29_04h01.49.996,classification_task,2021.2.3,MacIntel,60.14675809,612af78e263861f5d6c7567b,626b377229c10585ec392f89,626b4651d0e80528a6d55f91,,,,,,,,,,,,,,,,,,,,,,,l,0,1.4129,"[""0.237"",""0.404"",""0.569"",""0.193""]","[1,1,1,0]",0,14,14,14,1,0,0,,,0,FALSE,,,,,,,,,,,,,,,,,,,,,,,,,,,,,,,
,612af78e263861f5d6c7567b,001,2022-04-29_04h01.49.996,classification_task,2021.2.3,MacIntel,60.14675809,612af78e263861f5d6c7567b,626b377229c10585ec392f89,626b4651d0e80528a6d55f91,,,,,,,,,,,,,,,,,,,,,,,a,1,1.0302,"[""0.237"",""0.666"",""0.569"",""0.962""]","[1,0,1,1]",0,15,15,15,1,0,0,,,0,FALSE,,,,,,,,,,,,,,,,,,,,,,,,,,,,,,,
,612af78e263861f5d6c7567b,001,2022-04-29_04h01.49.996,classification_task,2021.2.3,MacIntel,60.14675809,612af78e263861f5d6c7567b,626b377229c10585ec392f89,626b4651d0e80528a6d55f91,,,,,,,,,,,,,,,,,,,,,,,a,1,0.884,"[""0.198"",""0.404"",""0.569"",""0.962""]","[0,1,1,1]",0,16,16,16,1,0,0,,,0,FALSE,,,,,,,,,,,,,,,,,,,,,,,,,,,,,,,
,612af78e263861f5d6c7567b,001,2022-04-29_04h01.49.996,classification_task,2021.2.3,MacIntel,60.14675809,612af78e263861f5d6c7567b,626b377229c10585ec392f89,626b4651d0e80528a6d55f91,,,,,,,,,,,,,,,,,,,,,,,l,0,0.8985,"[""0.282"",""0.510"",""0.751"",""0.660""]","[1,1,1,0]",0,17,17,17,1,0,1,,,0,FALSE,,,,,,,,,,,,,,,,,,,,,,,,,,,,,,,
,612af78e263861f5d6c7567b,001,2022-04-29_04h01.49.996,classification_task,2021.2.3,MacIntel,60.14675809,612af78e263861f5d6c7567b,626b377229c10585ec392f89,626b4651d0e80528a6d55f91,,,,,,,,,,,,,,,,,,,,,,,l,1,0.6838,"[""0.032"",""0.662"",""0.454"",""0.701""]","[1,0,1,1]",0,18,18,18,1,1,1,,,0,FALSE,,,,,,,,,,,,,,,,,,,,,,,,,,,,,,,
,612af78e263861f5d6c7567b,001,2022-04-29_04h01.49.996,classification_task,2021.2.3,MacIntel,60.14675809,612af78e263861f5d6c7567b,626b377229c10585ec392f89,626b4651d0e80528a6d55f91,,,,,,,,,,,,,,,,,,,,,,,l,0,1.496,"[""0.237"",""0.907"",""0.569"",""0.962""]","[1,0,1,1]",0,19,19,19,1,0,0,,,0,FALSE,,,,,,,,,,,,,,,,,,,,,,,,,,,,,,,
,612af78e263861f5d6c7567b,001,2022-04-29_04h01.49.996,classification_task,2021.2.3,MacIntel,60.14675809,612af78e263861f5d6c7567b,626b377229c10585ec392f89,626b4651d0e80528a6d55f91,,,,,,,,,,,,,,,,,,,,,,,a,1,1.5463,"[""0.282"",""0.510"",""0.662"",""0.857""]","[1,1,0,1]",0,20,20,20,1,0,1,,,0,FALSE,,,,,,,,,,,,,,,,,,,,,,,,,,,,,,,
,612af78e263861f5d6c7567b,001,2022-04-29_04h01.49.996,classification_task,2021.2.3,MacIntel,60.14675809,612af78e263861f5d6c7567b,626b377229c10585ec392f89,626b4651d0e80528a6d55f91,,,,,,,,,,,,,,,,,,,,,,,a,0,0.7558,"[""0.662"",""0.155"",""0.454"",""0.701""]","[0,1,1,1]",0,21,21,21,1,1,1,,,0,FALSE,,,,,,,,,,,,,,,,,,,,,,,,,,,,,,,
,612af78e263861f5d6c7567b,001,2022-04-29_04h01.49.996,classification_task,2021.2.3,MacIntel,60.14675809,612af78e263861f5d6c7567b,626b377229c10585ec392f89,626b4651d0e80528a6d55f91,,,,,,,,,,,,,,,,,,,,,,,l,1,1.9948,"[""0.076"",""0.666"",""0.617"",""0.800""]","[1,0,1,1]",0,22,22,22,1,1,0,,,0,FALSE,,,,,,,,,,,,,,,,,,,,,,,,,,,,,,,
,612af78e263861f5d6c7567b,001,2022-04-29_04h01.49.996,classification_task,2021.2.3,MacIntel,60.14675809,612af78e263861f5d6c7567b,626b377229c10585ec392f89,626b4651d0e80528a6d55f91,,,,,,,,,,,,,,,,,,,,,,,a,1,1.9422,"[""0.237"",""0.404"",""0.198"",""0.962""]","[1,1,0,1]",0,23,23,23,1,0,0,,,0,FALSE,,,,,,,,,,,,,,,,,,,,,,,,,,,,,,,
,612af78e263861f5d6c7567b,001,2022-04-29_04h01.49.996,classification_task,2021.2.3,MacIntel,60.14675809,612af78e263861f5d6c7567b,626b377229c10585ec392f89,626b4651d0e80528a6d55f91,,,,,,,,,,,,,,,,,,,,,,,l,1,1.149,"[""0.076"",""0.354"",""0.318"",""0.800""]","[1,1,0,1]",0,24,24,24,1,1,0,,,0,FALSE,,,,,,,,,,,,,,,,,,,,,,,,,,,,,,,
,612af78e263861f5d6c7567b,001,2022-04-29_04h01.49.996,classification_task,2021.2.3,MacIntel,60.14675809,612af78e263861f5d6c7567b,626b377229c10585ec392f89,626b4651d0e80528a6d55f91,,,,,,,,,,,,,,,,,,,,,,,l,1,1.6083,"[""0.076"",""0.354"",""0.617"",""0.122""]","[1,1,1,0]",0,25,25,25,1,1,0,,,0,FALSE,,,,,,,,,,,,,,,,,,,,,,,,,,,,,,,
,612af78e263861f5d6c7567b,001,2022-04-29_04h01.49.996,classification_task,2021.2.3,MacIntel,60.14675809,612af78e263861f5d6c7567b,626b377229c10585ec392f89,626b4651d0e80528a6d55f91,,,,,,,,,,,,,,,,,,,,,,,a,0,1.5461,"[""0.032"",""0.155"",""0.454"",""0.318""]","[1,1,1,0]",0,26,26,26,1,1,1,,,0,FALSE,,,,,,,,,,,,,,,,,,,,,,,,,,,,,,,
,612af78e263861f5d6c7567b,001,2022-04-29_04h01.49.996,classification_task,2021.2.3,MacIntel,60.14675809,612af78e263861f5d6c7567b,626b377229c10585ec392f89,626b4651d0e80528a6d55f91,,,,,,,,,,,,,,,,,,,,,,,a,1,1.3629,"[""0.237"",""0.404"",""0.569"",""0.317""]","[1,1,1,0]",0,27,27,27,1,0,0,,,0,FALSE,,,,,,,,,,,,,,,,,,,,,,,,,,,,,,,
,612af78e263861f5d6c7567b,001,2022-04-29_04h01.49.996,classification_task,2021.2.3,MacIntel,60.14675809,612af78e263861f5d6c7567b,626b377229c10585ec392f89,626b4651d0e80528a6d55f91,,,,,,,,,,,,,,,,,,,,,,,l,1,0.7982,"[""0.032"",""0.155"",""0.662"",""0.701""]","[1,1,0,1]",0,28,28,28,1,1,1,,,0,FALSE,,,,,,,,,,,,,,,,,,,,,,,,,,,,,,,
,612af78e263861f5d6c7567b,001,2022-04-29_04h01.49.996,classification_task,2021.2.3,MacIntel,60.14675809,612af78e263861f5d6c7567b,626b377229c10585ec392f89,626b4651d0e80528a6d55f91,,,,,,,,,,,,,,,,,,,,,,,l,0,0.7488,"[""0.110"",""0.510"",""0.751"",""0.857""]","[0,1,1,1]",0,29,29,29,1,0,1,,,0,FALSE,,,,,,,,,,,,,,,,,,,,,,,,,,,,,,,
,612af78e263861f5d6c7567b,001,2022-04-29_04h01.49.996,classification_task,2021.2.3,MacIntel,60.14675809,612af78e263861f5d6c7567b,626b377229c10585ec392f89,626b4651d0e80528a6d55f91,,,,,,,,,,,,,,,,,,,,,,,a,1,0.5354,"[""0.282"",""0.662"",""0.751"",""0.857""]","[1,0,1,1]",0,30,30,30,1,0,1,,,0,FALSE,,,,,,,,,,,,,,,,,,,,,,,,,,,,,,,
,612af78e263861f5d6c7567b,001,2022-04-29_04h01.49.996,classification_task,2021.2.3,MacIntel,60.14675809,612af78e263861f5d6c7567b,626b377229c10585ec392f89,626b4651d0e80528a6d55f91,,,,,,,,,,,,,,,,,,,,,,,a,0,1.3787,"[""0.922"",""0.354"",""0.617"",""0.800""]","[0,1,1,1]",0,31,31,31,1,1,0,,,0,FALSE,,,,,,,,,,,,,,,,,,,,,,,,,,,,,,,
,612af78e263861f5d6c7567b,001,2022-04-29_04h01.49.996,classification_task,2021.2.3,MacIntel,60.14675809,612af78e263861f5d6c7567b,626b377229c10585ec392f89,626b4651d0e80528a6d55f91,,,,,,,,,,,,,,,,,,,,,,,l,0,0.6977,"[""0.282"",""0.924"",""0.751"",""0.857""]","[1,0,1,1]",0,32,32,32,1,0,1,,,0,FALSE,,,,,,,,,,,,,,,,,,,,,,,,,,,,,,,
,612af78e263861f5d6c7567b,001,2022-04-29_04h01.49.996,classification_task,2021.2.3,MacIntel,60.14675809,612af78e263861f5d6c7567b,626b377229c10585ec392f89,626b4651d0e80528a6d55f91,,,,,,,,,,,,,,,,,,,,,,,a,0,0.648,"[""0.032"",""0.155"",""0.660"",""0.701""]","[1,1,0,1]",0,33,33,33,1,1,1,,,0,FALSE,,,,,,,,,,,,,,,,,,,,,,,,,,,,,,,
,612af78e263861f5d6c7567b,001,2022-04-29_04h01.49.996,classification_task,2021.2.3,MacIntel,60.14675809,612af78e263861f5d6c7567b,626b377229c10585ec392f89,626b4651d0e80528a6d55f91,,,,,,,,,,,,,,,,,,,,,,,l,0,1.7958,"[""0.660"",""0.404"",""0.569"",""0.962""]","[0,1,1,1]",0,34,34,34,1,0,0,,,0,FALSE,,,,,,,,,,,,,,,,,,,,,,,,,,,,,,,
,612af78e263861f5d6c7567b,001,2022-04-29_04h01.49.996,classification_task,2021.2.3,MacIntel,60.14675809,612af78e263861f5d6c7567b,626b377229c10585ec392f89,626b4651d0e80528a6d55f91,,,,,,,,,,,,,,,,,,,,,,,a,0,0.9805,"[""0.076"",""0.354"",""0.892"",""0.800""]","[1,1,0,1]",0,35,35,35,1,1,0,,,0,FALSE,,,,,,,,,,,,,,,,,,,,,,,,,,,,,,,
,612af78e263861f5d6c7567b,001,2022-04-29_04h01.49.996,classification_task,2021.2.3,MacIntel,60.14675809,612af78e263861f5d6c7567b,626b377229c10585ec392f89,626b4651d0e80528a6d55f91,,,,,,,,,,,,,,,,,,,,,,,a,1,1.3966,"[""0.237"",""0.404"",""0.122"",""0.962""]","[1,1,0,1]",0,36,36,36,1,0,0,,,0,FALSE,,,,,,,,,,,,,,,,,,,,,,,,,,,,,,,
,612af78e263861f5d6c7567b,001,2022-04-29_04h01.49.996,classification_task,2021.2.3,MacIntel,60.14675809,612af78e263861f5d6c7567b,626b377229c10585ec392f89,626b4651d0e80528a6d55f91,,,,,,,,,,,,,,,,,,,,,,,a,0,1.1298,"[""0.076"",""0.666"",""0.617"",""0.800""]","[1,0,1,1]",0,37,37,37,1,1,0,,,0,FALSE,,,,,,,,,,,,,,,,,,,,,,,,,,,,,,,
,612af78e263861f5d6c7567b,001,2022-04-29_04h01.49.996,classification_task,2021.2.3,MacIntel,60.14675809,612af78e263861f5d6c7567b,626b377229c10585ec392f89,626b4651d0e80528a6d55f91,,,,,,,,,,,,,,,,,,,,,,,l,0,1.1149,"[""0.282"",""0.510"",""0.751"",""0.110""]","[1,1,1,0]",0,38,38,38,1,0,1,,,0,FALSE,,,,,,,,,,,,,,,,,,,,,,,,,,,,,,,
,612af78e263861f5d6c7567b,001,2022-04-29_04h01.49.996,classification_task,2021.2.3,MacIntel,60.14675809,612af78e263861f5d6c7567b,626b377229c10585ec392f89,626b4651d0e80528a6d55f91,,,,,,,,,,,,,,,,,,,,,,,a,0,0.5478,"[""0.032"",""0.155"",""0.454"",""0.659""]","[1,1,1,0]",0,39,39,39,1,1,1,,,0,FALSE,,,,,,,,,,,,,,,,,,,,,,,,,,,,,,,
,612af78e263861f5d6c7567b,001,2022-04-29_04h01.49.996,classification_task,2021.2.3,MacIntel,60.14675809,612af78e263861f5d6c7567b,626b377229c10585ec392f89,626b4651d0e80528a6d55f91,,,,,,,,,,,,,,,,,,,,,,,l,1,0.9341,"[""0.660"",""0.354"",""0.617"",""0.800""]","[0,1,1,1]",0,40,40,40,1,1,0,,,0,FALSE,,,,,,,,,,,,,,,,,,,,,,,,,,,,,,,
,612af78e263861f5d6c7567b,001,2022-04-29_04h01.49.996,classification_task,2021.2.3,MacIntel,60.14675809,612af78e263861f5d6c7567b,626b377229c10585ec392f89,626b4651d0e80528a6d55f91,,,,,,,,,,,,,,,,,,,,,,,a,0,0.9497,"[""0.076"",""0.354"",""0.617"",""0.317""]","[1,1,1,0]",0,41,41,41,1,1,0,,,0,FALSE,,,,,,,,,,,,,,,,,,,,,,,,,,,,,,,
,612af78e263861f5d6c7567b,001,2022-04-29_04h01.49.996,classification_task,2021.2.3,MacIntel,60.14675809,612af78e263861f5d6c7567b,626b377229c10585ec392f89,626b4651d0e80528a6d55f91,,,,,,,,,,,,,,,,,,,,,,,a,1,1.08,"[""0.237"",""0.318"",""0.569"",""0.962""]","[1,0,1,1]",0,42,42,42,1,0,0,,,0,FALSE,,,,,,,,,,,,,,,,,,,,,,,,,,,,,,,
,612af78e263861f5d6c7567b,001,2022-04-29_04h01.49.996,classification_task,2021.2.3,MacIntel,60.14675809,612af78e263861f5d6c7567b,626b377229c10585ec392f89,626b4651d0e80528a6d55f91,,,,,,,,,,,,,,,,,,,,,,,l,0,1.0683,"[""0.237"",""0.404"",""0.569"",""0.907""]","[1,1,1,0]",0,43,43,43,1,0,0,,,0,FALSE,,,,,,,,,,,,,,,,,,,,,,,,,,,,,,,
,612af78e263861f5d6c7567b,001,2022-04-29_04h01.49.996,classification_task,2021.2.3,MacIntel,60.14675809,612af78e263861f5d6c7567b,626b377229c10585ec392f89,626b4651d0e80528a6d55f91,,,,,,,,,,,,,,,,,,,,,,,a,0,0.7303,"[""0.032"",""0.922"",""0.454"",""0.701""]","[1,0,1,1]",0,44,44,44,1,1,1,,,0,FALSE,,,,,,,,,,,,,,,,,,,,,,,,,,,,,,,
,612af78e263861f5d6c7567b,001,2022-04-29_04h01.49.996,classification_task,2021.2.3,MacIntel,60.14675809,612af78e263861f5d6c7567b,626b377229c10585ec392f89,626b4651d0e80528a6d55f91,,,,,,,,,,,,,,,,,,,,,,,a,1,0.6699,"[""0.282"",""0.510"",""0.122"",""0.857""]","[1,1,0,1]",0,45,45,45,1,0,1,,,0,FALSE,,,,,,,,,,,,,,,,,,,,,,,,,,,,,,,
,612af78e263861f5d6c7567b,001,2022-04-29_04h01.49.996,classification_task,2021.2.3,MacIntel,60.14675809,612af78e263861f5d6c7567b,626b377229c10585ec392f89,626b4651d0e80528a6d55f91,,,,,,,,,,,,,,,,,,,,,,,l,1,0.6984,"[""0.655"",""0.155"",""0.454"",""0.701""]","[0,1,1,1]",0,46,46,46,1,1,1,,,0,FALSE,,,,,,,,,,,,,,,,,,,,,,,,,,,,,,,
,612af78e263861f5d6c7567b,001,2022-04-29_04h01.49.996,classification_task,2021.2.3,MacIntel,60.14675809,612af78e263861f5d6c7567b,626b377229c10585ec392f89,626b4651d0e80528a6d55f91,,,,,,,,,,,,,,,,,,,,,,,a,1,0.5651,"[""0.655"",""0.510"",""0.751"",""0.857""]","[0,1,1,1]",0,47,47,47,1,0,1,,,0,FALSE,,,,,,,,,,,,,,,,,,,,,,,,,,,,,,,
,612af78e263861f5d6c7567b,001,2022-04-29_04h01.49.996,classification_task,2021.2.3,MacIntel,60.14675809,612af78e263861f5d6c7567b,626b377229c10585ec392f89,626b4651d0e80528a6d55f91,,,,,,,,,,,,,,,,,,,,,,,a,0,1.7625,"[""0.076"",""0.198"",""0.617"",""0.800""]","[1,0,1,1]",0,48,48,48,1,1,0,,,0,FALSE,,,,,,,,,,,,,,,,,,,,,,,,,,,,,,,
,612af78e263861f5d6c7567b,001,2022-04-29_04h01.49.996,classification_task,2021.2.3,MacIntel,60.14675809,612af78e263861f5d6c7567b,626b377229c10585ec392f89,626b4651d0e80528a6d55f91,,,,,,,,,,,,,,,,,,,,,,,l,0,0.7313,"[""0.110"",""0.510"",""0.751"",""0.857""]","[0,1,1,1]",0,49,49,49,1,0,1,,,0,FALSE,,,,,,,,,,,,,,,,,,,,,,,,,,,,,,,
,612af78e263861f5d6c7567b,001,2022-04-29_04h01.49.996,classification_task,2021.2.3,MacIntel,60.14675809,612af78e263861f5d6c7567b,626b377229c10585ec392f89,626b4651d0e80528a6d55f91,,,,,,,,,,,,,,,,,,,,,,,a,1,1.3984,"[""0.237"",""0.907"",""0.569"",""0.962""]","[1,0,1,1]",0,50,50,50,1,0,0,,,0,FALSE,,,,,,,,,,,,,,,,,,,,,,,,,,,,,,,
,612af78e263861f5d6c7567b,001,2022-04-29_04h01.49.996,classification_task,2021.2.3,MacIntel,60.14675809,612af78e263861f5d6c7567b,626b377229c10585ec392f89,626b4651d0e80528a6d55f91,,,,,,,,,,,,,,,,,,,,,,,a,1,1.5957,"[""0.122"",""0.404"",""0.569"",""0.962""]","[0,1,1,1]",0,51,51,51,1,0,0,,,0,FALSE,,,,,,,,,,,,,,,,,,,,,,,,,,,,,,,
,612af78e263861f5d6c7567b,001,2022-04-29_04h01.49.996,classification_task,2021.2.3,MacIntel,60.14675809,612af78e263861f5d6c7567b,626b377229c10585ec392f89,626b4651d0e80528a6d55f91,,,,,,,,,,,,,,,,,,,,,,,a,0,0.7146,"[""0.032"",""0.662"",""0.454"",""0.701""]","[1,0,1,1]",0,52,52,52,1,1,1,,,0,FALSE,,,,,,,,,,,,,,,,,,,,,,,,,,,,,,,
,612af78e263861f5d6c7567b,001,2022-04-29_04h01.49.996,classification_task,2021.2.3,MacIntel,60.14675809,612af78e263861f5d6c7567b,626b377229c10585ec392f89,626b4651d0e80528a6d55f91,,,,,,,,,,,,,,,,,,,,,,,a,0,1.2966,"[""0.110"",""0.354"",""0.617"",""0.800""]","[0,1,1,1]",0,53,53,53,1,1,0,,,0,FALSE,,,,,,,,,,,,,,,,,,,,,,,,,,,,,,,
,612af78e263861f5d6c7567b,001,2022-04-29_04h01.49.996,classification_task,2021.2.3,MacIntel,60.14675809,612af78e263861f5d6c7567b,626b377229c10585ec392f89,626b4651d0e80528a6d55f91,,,,,,,,,,,,,,,,,,,,,,,l,0,0.6318,"[""0.282"",""0.510"",""0.751"",""0.907""]","[1,1,1,0]",0,54,54,54,1,0,1,,,0,FALSE,,,,,,,,,,,,,,,,,,,,,,,,,,,,,,,
,612af78e263861f5d6c7567b,001,2022-04-29_04h01.49.996,classification_task,2021.2.3,MacIntel,60.14675809,612af78e263861f5d6c7567b,626b377229c10585ec392f89,626b4651d0e80528a6d55f91,,,,,,,,,,,,,,,,,,,,,,,l,1,0.5646,"[""0.032"",""0.155"",""0.454"",""0.924""]","[1,1,1,0]",0,55,55,55,1,1,1,,,0,FALSE,,,,,,,,,,,,,,,,,,,,,,,,,,,,,,,
,612af78e263861f5d6c7567b,001,2022-04-29_04h01.49.996,classification_task,2021.2.3,MacIntel,60.14675809,612af78e263861f5d6c7567b,626b377229c10585ec392f89,626b4651d0e80528a6d55f91,,,,,,,,,,,,,,,,,,,,,,,a,0,0.6148,"[""0.317"",""0.155"",""0.454"",""0.701""]","[0,1,1,1]",0,56,56,56,1,1,1,,,0,FALSE,,,,,,,,,,,,,,,,,,,,,,,,,,,,,,,
,612af78e263861f5d6c7567b,001,2022-04-29_04h01.49.996,classification_task,2021.2.3,MacIntel,60.14675809,612af78e263861f5d6c7567b,626b377229c10585ec392f89,626b4651d0e80528a6d55f91,,,,,,,,,,,,,,,,,,,,,,,l,0,1.4125,"[""0.237"",""0.404"",""0.569"",""0.892""]","[1,1,1,0]",0,57,57,57,1,0,0,,,0,FALSE,,,,,,,,,,,,,,,,,,,,,,,,,,,,,,,
,612af78e263861f5d6c7567b,001,2022-04-29_04h01.49.996,classification_task,2021.2.3,MacIntel,60.14675809,612af78e263861f5d6c7567b,626b377229c10585ec392f89,626b4651d0e80528a6d55f91,,,,,,,,,,,,,,,,,,,,,,,a,0,1.1801,"[""0.076"",""0.354"",""0.617"",""0.907""]","[1,1,1,0]",0,58,58,58,1,1,0,,,0,FALSE,,,,,,,,,,,,,,,,,,,,,,,,,,,,,,,
,612af78e263861f5d6c7567b,001,2022-04-29_04h01.49.996,classification_task,2021.2.3,MacIntel,60.14675809,612af78e263861f5d6c7567b,626b377229c10585ec392f89,626b4651d0e80528a6d55f91,,,,,,,,,,,,,,,,,,,,,,,l,1,1.2825,"[""0.076"",""0.354"",""0.655"",""0.800""]","[1,1,0,1]",0,59,59,59,1,1,0,,,0,FALSE,,,,,,,,,,,,,,,,,,,,,,,,,,,,,,,
,612af78e263861f5d6c7567b,001,2022-04-29_04h01.49.996,classification_task,2021.2.3,MacIntel,60.14675809,612af78e263861f5d6c7567b,626b377229c10585ec392f89,626b4651d0e80528a6d55f91,,,,,,,,,,,,,,,,,,,,,,,l,0,0.9142,"[""0.237"",""0.404"",""0.892"",""0.962""]","[1,1,0,1]",0,60,60,60,1,0,0,,,0,FALSE,,,,,,,,,,,,,,,,,,,,,,,,,,,,,,,
,612af78e263861f5d6c7567b,001,2022-04-29_04h01.49.996,classification_task,2021.2.3,MacIntel,60.14675809,612af78e263861f5d6c7567b,626b377229c10585ec392f89,626b4651d0e80528a6d55f91,,,,,,,,,,,,,,,,,,,,,,,l,0,0.7317,"[""0.282"",""0.655"",""0.751"",""0.857""]","[1,0,1,1]",0,61,61,61,1,0,1,,,0,FALSE,,,,,,,,,,,,,,,,,,,,,,,,,,,,,,,
,612af78e263861f5d6c7567b,001,2022-04-29_04h01.49.996,classification_task,2021.2.3,MacIntel,60.14675809,612af78e263861f5d6c7567b,626b377229c10585ec392f89,626b4651d0e80528a6d55f91,,,,,,,,,,,,,,,,,,,,,,,a,1,0.6657,"[""0.282"",""0.510"",""0.193"",""0.857""]","[1,1,0,1]",0,62,62,62,1,0,1,,,0,FALSE,,,,,,,,,,,,,,,,,,,,,,,,,,,,,,,
,612af78e263861f5d6c7567b,001,2022-04-29_04h01.49.996,classification_task,2021.2.3,MacIntel,60.14675809,612af78e263861f5d6c7567b,626b377229c10585ec392f89,626b4651d0e80528a6d55f91,,,,,,,,,,,,,,,,,,,,,,,a,0,0.6313,"[""0.032"",""0.155"",""0.122"",""0.701""]","[1,1,0,1]",0,63,63,63,1,1,1,,,0,FALSE,,,,,,,,,,,,,,,,,,,,,,,,,,,,,,,
,612af78e263861f5d6c7567b,001,2022-04-29_04h01.49.996,classification_task,2021.2.3,MacIntel,60.14675809,612af78e263861f5d6c7567b,626b377229c10585ec392f89,626b4651d0e80528a6d55f91,,,,,,,,,,,,,,,,,,,,,,,,,,,,,,,,,,,,,,,0, ,,0,4.342112062,161.5111,0,1,1,1,1,2,2,,,,,,,,,,,,,,,,,,
,612af78e263861f5d6c7567b,001,2022-04-29_04h01.49.996,classification_task,2021.2.3,MacIntel,60.14675809,612af78e263861f5d6c7567b,626b377229c10585ec392f89,626b4651d0e80528a6d55f91,,,,,,,,,,,,,,,,,,,,,,,,,,,,,,,,,,,,,,,1,  ,,0,9.428375083,164.5867,0,1,1,1,1,2,2,,,,,,,,,,,,,,,,,,
,612af78e263861f5d6c7567b,001,2022-04-29_04h01.49.996,classification_task,2021.2.3,MacIntel,60.14675809,612af78e263861f5d6c7567b,626b377229c10585ec392f89,626b4651d0e80528a6d55f91,,,,,,,,,,,,,,,,,,,,,,,,,,,,,,,,,,,,,,,2,  ,,0,9.744466146,167.3804,0,1,1,1,1,2,2,,,,,,,,,,,,,,,,,,
,612af78e263861f5d6c7567b,001,2022-04-29_04h01.49.996,classification_task,2021.2.3,MacIntel,60.14675809,612af78e263861f5d6c7567b,626b377229c10585ec392f89,626b4651d0e80528a6d55f91,,,,,,,,,,,,,,,,,,,,,,,,,,,,,,,,,,,,,,,,,,,,,0,1,1,1,1,,2,,,,,,,,,,,,,,,,,,
,612af78e263861f5d6c7567b,001,2022-04-29_04h01.49.996,classification_task,2021.2.3,MacIntel,60.14675809,612af78e263861f5d6c7567b,626b377229c10585ec392f89,626b4651d0e80528a6d55f91,,,,,,,,,,,,,,,,,,,,,space,8.1172,a,1,3.2743,"[""0.282"",""0.659"",""0.751"",""0.857""]","[1,0,1,1]",0,0,0,0,1,0,1,,,0,FALSE,,,,,,,,,,,,,,,,,,,,,,,,,,,,,,,
,612af78e263861f5d6c7567b,001,2022-04-29_04h01.49.996,classification_task,2021.2.3,MacIntel,60.14675809,612af78e263861f5d6c7567b,626b377229c10585ec392f89,626b4651d0e80528a6d55f91,,,,,,,,,,,,,,,,,,,,,,,l,1,0.9213,"[""0.032"",""0.155"",""0.667"",""0.701""]","[1,1,0,1]",0,1,1,1,1,1,1,,,0,FALSE,,,,,,,,,,,,,,,,,,,,,,,,,,,,,,,
,612af78e263861f5d6c7567b,001,2022-04-29_04h01.49.996,classification_task,2021.2.3,MacIntel,60.14675809,612af78e263861f5d6c7567b,626b377229c10585ec392f89,626b4651d0e80528a6d55f91,,,,,,,,,,,,,,,,,,,,,,,l,1,1.8307,"[""0.032"",""0.155"",""0.454"",""0.660""]","[1,1,1,0]",0,2,2,2,1,1,1,,,0,FALSE,,,,,,,,,,,,,,,,,,,,,,,,,,,,,,,
,612af78e263861f5d6c7567b,001,2022-04-29_04h01.49.996,classification_task,2021.2.3,MacIntel,60.14675809,612af78e263861f5d6c7567b,626b377229c10585ec392f89,626b4651d0e80528a6d55f91,,,,,,,,,,,,,,,,,,,,,,,a,1,0.6821,"[""0.282"",""0.510"",""0.751"",""0.666""]","[1,1,1,0]",0,3,3,3,1,0,1,,,0,FALSE,,,,,,,,,,,,,,,,,,,,,,,,,,,,,,,
,612af78e263861f5d6c7567b,001,2022-04-29_04h01.49.996,classification_task,2021.2.3,MacIntel,60.14675809,612af78e263861f5d6c7567b,626b377229c10585ec392f89,626b4651d0e80528a6d55f91,,,,,,,,,,,,,,,,,,,,,,,l,1,3.0944,"[""0.076"",""0.354"",""0.617"",""0.193""]","[1,1,1,0]",0,4,4,4,1,1,0,,,0,FALSE,,,,,,,,,,,,,,,,,,,,,,,,,,,,,,,
,612af78e263861f5d6c7567b,001,2022-04-29_04h01.49.996,classification_task,2021.2.3,MacIntel,60.14675809,612af78e263861f5d6c7567b,626b377229c10585ec392f89,626b4651d0e80528a6d55f91,,,,,,,,,,,,,,,,,,,,,,,a,1,1.9688,"[""0.666"",""0.404"",""0.569"",""0.962""]","[0,1,1,1]",0,5,5,5,1,0,0,,,0,FALSE,,,,,,,,,,,,,,,,,,,,,,,,,,,,,,,
,612af78e263861f5d6c7567b,001,2022-04-29_04h01.49.996,classification_task,2021.2.3,MacIntel,60.14675809,612af78e263861f5d6c7567b,626b377229c10585ec392f89,626b4651d0e80528a6d55f91,,,,,,,,,,,,,,,,,,,,,,,l,1,1.3612,"[""0.655"",""0.354"",""0.617"",""0.800""]","[0,1,1,1]",0,6,6,6,1,1,0,,,0,FALSE,,,,,,,,,,,,,,,,,,,,,,,,,,,,,,,
,612af78e263861f5d6c7567b,001,2022-04-29_04h01.49.996,classification_task,2021.2.3,MacIntel,60.14675809,612af78e263861f5d6c7567b,626b377229c10585ec392f89,626b4651d0e80528a6d55f91,,,,,,,,,,,,,,,,,,,,,,,a,1,4.4984,"[""0.237"",""0.404"",""0.660"",""0.962""]","[1,1,0,1]",0,7,7,7,1,0,0,,,0,FALSE,,,,,,,,,,,,,,,,,,,,,,,,,,,,,,,
,612af78e263861f5d6c7567b,001,2022-04-29_04h01.49.996,classification_task,2021.2.3,MacIntel,60.14675809,612af78e263861f5d6c7567b,626b377229c10585ec392f89,626b4651d0e80528a6d55f91,,,,,,,,,,,,,,,,,,,,,,,l,1,2.1706,"[""0.907"",""0.155"",""0.454"",""0.701""]","[0,1,1,1]",0,8,8,8,1,1,1,,,0,FALSE,,,,,,,,,,,,,,,,,,,,,,,,,,,,,,,
,612af78e263861f5d6c7567b,001,2022-04-29_04h01.49.996,classification_task,2021.2.3,MacIntel,60.14675809,612af78e263861f5d6c7567b,626b377229c10585ec392f89,626b4651d0e80528a6d55f91,,,,,,,,,,,,,,,,,,,,,,,a,0,1.8922,"[""0.076"",""0.354"",""0.318"",""0.800""]","[1,1,0,1]",0,9,9,9,1,1,0,,,0,FALSE,,,,,,,,,,,,,,,,,,,,,,,,,,,,,,,
,612af78e263861f5d6c7567b,001,2022-04-29_04h01.49.996,classification_task,2021.2.3,MacIntel,60.14675809,612af78e263861f5d6c7567b,626b377229c10585ec392f89,626b4651d0e80528a6d55f91,,,,,,,,,,,,,,,,,,,,,,,l,1,1.5658,"[""0.076"",""0.193"",""0.617"",""0.800""]","[1,0,1,1]",0,10,10,10,1,1,0,,,0,FALSE,,,,,,,,,,,,,,,,,,,,,,,,,,,,,,,
,612af78e263861f5d6c7567b,001,2022-04-29_04h01.49.996,classification_task,2021.2.3,MacIntel,60.14675809,612af78e263861f5d6c7567b,626b377229c10585ec392f89,626b4651d0e80528a6d55f91,,,,,,,,,,,,,,,,,,,,,,,l,1,1.2255,"[""0.032"",""0.655"",""0.454"",""0.701""]","[1,0,1,1]",0,11,11,11,1,1,1,,,0,FALSE,,,,,,,,,,,,,,,,,,,,,,,,,,,,,,,
,612af78e263861f5d6c7567b,001,2022-04-29_04h01.49.996,classification_task,2021.2.3,MacIntel,60.14675809,612af78e263861f5d6c7567b,626b377229c10585ec392f89,626b4651d0e80528a6d55f91,,,,,,,,,,,,,,,,,,,,,,,a,1,1.1133,"[""0.282"",""0.510"",""0.198"",""0.857""]","[1,1,0,1]",0,12,12,12,1,0,1,,,0,FALSE,,,,,,,,,,,,,,,,,,,,,,,,,,,,,,,
,612af78e263861f5d6c7567b,001,2022-04-29_04h01.49.996,classification_task,2021.2.3,MacIntel,60.14675809,612af78e263861f5d6c7567b,626b377229c10585ec392f89,626b4651d0e80528a6d55f91,,,,,,,,,,,,,,,,,,,,,,,l,0,0.4815,"[""0.662"",""0.510"",""0.751"",""0.857""]","[0,1,1,1]",0,13,13,13,1,0,1,,,0,FALSE,,,,,,,,,,,,,,,,,,,,,,,,,,,,,,,
,612af78e263861f5d6c7567b,001,2022-04-29_04h01.49.996,classification_task,2021.2.3,MacIntel,60.14675809,612af78e263861f5d6c7567b,626b377229c10585ec392f89,626b4651d0e80528a6d55f91,,,,,,,,,,,,,,,,,,,,,,,a,1,0.5192,"[""0.237"",""0.404"",""0.569"",""0.659""]","[1,1,1,0]",0,14,14,14,1,0,0,,,0,FALSE,,,,,,,,,,,,,,,,,,,,,,,,,,,,,,,
,612af78e263861f5d6c7567b,001,2022-04-29_04h01.49.996,classification_task,2021.2.3,MacIntel,60.14675809,612af78e263861f5d6c7567b,626b377229c10585ec392f89,626b4651d0e80528a6d55f91,,,,,,,,,,,,,,,,,,,,,,,l,0,0.6318,"[""0.237"",""0.659"",""0.569"",""0.962""]","[1,0,1,1]",0,15,15,15,1,0,0,,,0,FALSE,,,,,,,,,,,,,,,,,,,,,,,,,,,,,,,
,612af78e263861f5d6c7567b,001,2022-04-29_04h01.49.996,classification_task,2021.2.3,MacIntel,60.14675809,612af78e263861f5d6c7567b,626b377229c10585ec392f89,626b4651d0e80528a6d55f91,,,,,,,,,,,,,,,,,,,,,,,a,1,0.5994,"[""0.282"",""0.317"",""0.751"",""0.857""]","[1,0,1,1]",0,16,16,16,1,0,1,,,0,FALSE,,,,,,,,,,,,,,,,,,,,,,,,,,,,,,,
,612af78e263861f5d6c7567b,001,2022-04-29_04h01.49.996,classification_task,2021.2.3,MacIntel,60.14675809,612af78e263861f5d6c7567b,626b377229c10585ec392f89,626b4651d0e80528a6d55f91,,,,,,,,,,,,,,,,,,,,,,,a,0,0.4855,"[""0.076"",""0.666"",""0.617"",""0.800""]","[1,0,1,1]",0,17,17,17,1,1,0,,,0,FALSE,,,,,,,,,,,,,,,,,,,,,,,,,,,,,,,
,612af78e263861f5d6c7567b,001,2022-04-29_04h01.49.996,classification_task,2021.2.3,MacIntel,60.14675809,612af78e263861f5d6c7567b,626b377229c10585ec392f89,626b4651d0e80528a6d55f91,,,,,,,,,,,,,,,,,,,,,,,a,1,1.3137,"[""0.666"",""0.510"",""0.751"",""0.857""]","[0,1,1,1]",0,18,18,18,1,0,1,,,0,FALSE,,,,,,,,,,,,,,,,,,,,,,,,,,,,,,,
,612af78e263861f5d6c7567b,001,2022-04-29_04h01.49.996,classification_task,2021.2.3,MacIntel,60.14675809,612af78e263861f5d6c7567b,626b377229c10585ec392f89,626b4651d0e80528a6d55f91,,,,,,,,,,,,,,,,,,,,,,,l,0,1.4176,"[""0.282"",""0.510"",""0.751"",""0.662""]","[1,1,1,0]",0,19,19,19,1,0,1,,,0,FALSE,,,,,,,,,,,,,,,,,,,,,,,,,,,,,,,
,612af78e263861f5d6c7567b,001,2022-04-29_04h01.49.996,classification_task,2021.2.3,MacIntel,60.14675809,612af78e263861f5d6c7567b,626b377229c10585ec392f89,626b4651d0e80528a6d55f91,,,,,,,,,,,,,,,,,,,,,,,l,1,1.1295,"[""0.198"",""0.155"",""0.454"",""0.701""]","[0,1,1,1]",0,20,20,20,1,1,1,,,0,FALSE,,,,,,,,,,,,,,,,,,,,,,,,,,,,,,,
,612af78e263861f5d6c7567b,001,2022-04-29_04h01.49.996,classification_task,2021.2.3,MacIntel,60.14675809,612af78e263861f5d6c7567b,626b377229c10585ec392f89,626b4651d0e80528a6d55f91,,,,,,,,,,,,,,,,,,,,,,,a,0,1.1488,"[""0.032"",""0.155"",""0.454"",""0.659""]","[1,1,1,0]",0,21,21,21,1,1,1,,,0,FALSE,,,,,,,,,,,,,,,,,,,,,,,,,,,,,,,
,612af78e263861f5d6c7567b,001,2022-04-29_04h01.49.996,classification_task,2021.2.3,MacIntel,60.14675809,612af78e263861f5d6c7567b,626b377229c10585ec392f89,626b4651d0e80528a6d55f91,,,,,,,,,,,,,,,,,,,,,,,l,0,0.798,"[""0.907"",""0.404"",""0.569"",""0.962""]","[0,1,1,1]",0,22,22,22,1,0,0,,,0,FALSE,,,,,,,,,,,,,,,,,,,,,,,,,,,,,,,
,612af78e263861f5d6c7567b,001,2022-04-29_04h01.49.996,classification_task,2021.2.3,MacIntel,60.14675809,612af78e263861f5d6c7567b,626b377229c10585ec392f89,626b4651d0e80528a6d55f91,,,,,,,,,,,,,,,,,,,,,,,l,1,0.4317,"[""0.318"",""0.354"",""0.617"",""0.800""]","[0,1,1,1]",0,23,23,23,1,1,0,,,0,FALSE,,,,,,,,,,,,,,,,,,,,,,,,,,,,,,,
,612af78e263861f5d6c7567b,001,2022-04-29_04h01.49.996,classification_task,2021.2.3,MacIntel,60.14675809,612af78e263861f5d6c7567b,626b377229c10585ec392f89,626b4651d0e80528a6d55f91,,,,,,,,,,,,,,,,,,,,,,,a,0,0.3654,"[""0.076"",""0.354"",""0.617"",""0.198""]","[1,1,1,0]",0,24,24,24,1,1,0,,,0,FALSE,,,,,,,,,,,,,,,,,,,,,,,,,,,,,,,
,612af78e263861f5d6c7567b,001,2022-04-29_04h01.49.996,classification_task,2021.2.3,MacIntel,60.14675809,612af78e263861f5d6c7567b,626b377229c10585ec392f89,626b4651d0e80528a6d55f91,,,,,,,,,,,,,,,,,,,,,,,l,1,2.765,"[""0.076"",""0.354"",""0.922"",""0.800""]","[1,1,0,1]",0,25,25,25,1,1,0,,,0,FALSE,,,,,,,,,,,,,,,,,,,,,,,,,,,,,,,
,612af78e263861f5d6c7567b,001,2022-04-29_04h01.49.996,classification_task,2021.2.3,MacIntel,60.14675809,612af78e263861f5d6c7567b,626b377229c10585ec392f89,626b4651d0e80528a6d55f91,,,,,,,,,,,,,,,,,,,,,,,a,0,2.3667,"[""0.032"",""0.155"",""0.907"",""0.701""]","[1,1,0,1]",0,26,26,26,1,1,1,,,0,FALSE,,,,,,,,,,,,,,,,,,,,,,,,,,,,,,,
,612af78e263861f5d6c7567b,001,2022-04-29_04h01.49.996,classification_task,2021.2.3,MacIntel,60.14675809,612af78e263861f5d6c7567b,626b377229c10585ec392f89,626b4651d0e80528a6d55f91,,,,,,,,,,,,,,,,,,,,,,,a,1,2.0206,"[""0.237"",""0.404"",""0.569"",""0.892""]","[1,1,1,0]",0,27,27,27,1,0,0,,,0,FALSE,,,,,,,,,,,,,,,,,,,,,,,,,,,,,,,
,612af78e263861f5d6c7567b,001,2022-04-29_04h01.49.996,classification_task,2021.2.3,MacIntel,60.14675809,612af78e263861f5d6c7567b,626b377229c10585ec392f89,626b4651d0e80528a6d55f91,,,,,,,,,,,,,,,,,,,,,,,l,0,1.1233,"[""0.237"",""0.110"",""0.569"",""0.962""]","[1,0,1,1]",0,28,28,28,1,0,0,,,0,FALSE,,,,,,,,,,,,,,,,,,,,,,,,,,,,,,,
,612af78e263861f5d6c7567b,001,2022-04-29_04h01.49.996,classification_task,2021.2.3,MacIntel,60.14675809,612af78e263861f5d6c7567b,626b377229c10585ec392f89,626b4651d0e80528a6d55f91,,,,,,,,,,,,,,,,,,,,,,,l,1,1.0137,"[""0.032"",""0.892"",""0.454"",""0.701""]","[1,0,1,1]",0,29,29,29,1,1,1,,,0,FALSE,,,,,,,,,,,,,,,,,,,,,,,,,,,,,,,
,612af78e263861f5d6c7567b,001,2022-04-29_04h01.49.996,classification_task,2021.2.3,MacIntel,60.14675809,612af78e263861f5d6c7567b,626b377229c10585ec392f89,626b4651d0e80528a6d55f91,,,,,,,,,,,,,,,,,,,,,,,l,0,2.1612,"[""0.237"",""0.404"",""0.924"",""0.962""]","[1,1,0,1]",0,30,30,30,1,0,0,,,0,FALSE,,,,,,,,,,,,,,,,,,,,,,,,,,,,,,,
,612af78e263861f5d6c7567b,001,2022-04-29_04h01.49.996,classification_task,2021.2.3,MacIntel,60.14675809,612af78e263861f5d6c7567b,626b377229c10585ec392f89,626b4651d0e80528a6d55f91,,,,,,,,,,,,,,,,,,,,,,,a,1,0.9639,"[""0.282"",""0.510"",""0.660"",""0.857""]","[1,1,0,1]",0,31,31,31,1,0,1,,,0,FALSE,,,,,,,,,,,,,,,,,,,,,,,,,,,,,,,
,612af78e263861f5d6c7567b,001,2022-04-29_04h01.49.996,classification_task,2021.2.3,MacIntel,60.14675809,612af78e263861f5d6c7567b,626b377229c10585ec392f89,626b4651d0e80528a6d55f91,,,,,,,,,,,,,,,,,,,,,,,l,1,1.5323,"[""0.032"",""0.155"",""0.318"",""0.701""]","[1,1,0,1]",0,32,32,32,1,1,1,,,0,FALSE,,,,,,,,,,,,,,,,,,,,,,,,,,,,,,,
,612af78e263861f5d6c7567b,001,2022-04-29_04h01.49.996,classification_task,2021.2.3,MacIntel,60.14675809,612af78e263861f5d6c7567b,626b377229c10585ec392f89,626b4651d0e80528a6d55f91,,,,,,,,,,,,,,,,,,,,,,,a,1,0.6064,"[""0.892"",""0.404"",""0.569"",""0.962""]","[0,1,1,1]",0,33,33,33,1,0,0,,,0,FALSE,,,,,,,,,,,,,,,,,,,,,,,,,,,,,,,
,612af78e263861f5d6c7567b,001,2022-04-29_04h01.49.996,classification_task,2021.2.3,MacIntel,60.14675809,612af78e263861f5d6c7567b,626b377229c10585ec392f89,626b4651d0e80528a6d55f91,,,,,,,,,,,,,,,,,,,,,,,l,0,2.0797,"[""0.282"",""0.510"",""0.907"",""0.857""]","[1,1,0,1]",0,34,34,34,1,0,1,,,0,FALSE,,,,,,,,,,,,,,,,,,,,,,,,,,,,,,,
,612af78e263861f5d6c7567b,001,2022-04-29_04h01.49.996,classification_task,2021.2.3,MacIntel,60.14675809,612af78e263861f5d6c7567b,626b377229c10585ec392f89,626b4651d0e80528a6d55f91,,,,,,,,,,,,,,,,,,,,,,,a,0,1.3067,"[""0.666"",""0.155"",""0.454"",""0.701""]","[0,1,1,1]",0,35,35,35,1,1,1,,,0,FALSE,,,,,,,,,,,,,,,,,,,,,,,,,,,,,,,
,612af78e263861f5d6c7567b,001,2022-04-29_04h01.49.996,classification_task,2021.2.3,MacIntel,60.14675809,612af78e263861f5d6c7567b,626b377229c10585ec392f89,626b4651d0e80528a6d55f91,,,,,,,,,,,,,,,,,,,,,,,l,0,1.2178,"[""0.237"",""0.404"",""0.569"",""0.667""]","[1,1,1,0]",0,36,36,36,1,0,0,,,0,FALSE,,,,,,,,,,,,,,,,,,,,,,,,,,,,,,,
,612af78e263861f5d6c7567b,001,2022-04-29_04h01.49.996,classification_task,2021.2.3,MacIntel,60.14675809,612af78e263861f5d6c7567b,626b377229c10585ec392f89,626b4651d0e80528a6d55f91,,,,,,,,,,,,,,,,,,,,,,,a,0,0.8655,"[""0.032"",""0.155"",""0.454"",""0.318""]","[1,1,1,0]",0,37,37,37,1,1,1,,,0,FALSE,,,,,,,,,,,,,,,,,,,,,,,,,,,,,,,
,612af78e263861f5d6c7567b,001,2022-04-29_04h01.49.996,classification_task,2021.2.3,MacIntel,60.14675809,612af78e263861f5d6c7567b,626b377229c10585ec392f89,626b4651d0e80528a6d55f91,,,,,,,,,,,,,,,,,,,,,,,a,1,0.6982,"[""0.282"",""0.318"",""0.751"",""0.857""]","[1,0,1,1]",0,38,38,38,1,0,1,,,0,FALSE,,,,,,,,,,,,,,,,,,,,,,,,,,,,,,,
,612af78e263861f5d6c7567b,001,2022-04-29_04h01.49.996,classification_task,2021.2.3,MacIntel,60.14675809,612af78e263861f5d6c7567b,626b377229c10585ec392f89,626b4651d0e80528a6d55f91,,,,,,,,,,,,,,,,,,,,,,,l,1,0.416,"[""0.318"",""0.354"",""0.617"",""0.800""]","[0,1,1,1]",0,39,39,39,1,1,0,,,0,FALSE,,,,,,,,,,,,,,,,,,,,,,,,,,,,,,,
,612af78e263861f5d6c7567b,001,2022-04-29_04h01.49.996,classification_task,2021.2.3,MacIntel,60.14675809,612af78e263861f5d6c7567b,626b377229c10585ec392f89,626b4651d0e80528a6d55f91,,,,,,,,,,,,,,,,,,,,,,,a,1,0.1197,"[""0.198"",""0.510"",""0.751"",""0.857""]","[0,1,1,1]",0,40,40,40,1,0,1,,,0,FALSE,,,,,,,,,,,,,,,,,,,,,,,,,,,,,,,
,612af78e263861f5d6c7567b,001,2022-04-29_04h01.49.996,classification_task,2021.2.3,MacIntel,60.14675809,612af78e263861f5d6c7567b,626b377229c10585ec392f89,626b4651d0e80528a6d55f91,,,,,,,,,,,,,,,,,,,,,,,l,0,1.0481,"[""0.282"",""0.510"",""0.751"",""0.922""]","[1,1,1,0]",0,41,41,41,1,0,1,,,0,FALSE,,,,,,,,,,,,,,,,,,,,,,,,,,,,,,,
,612af78e263861f5d6c7567b,001,2022-04-29_04h01.49.996,classification_task,2021.2.3,MacIntel,60.14675809,612af78e263861f5d6c7567b,626b377229c10585ec392f89,626b4651d0e80528a6d55f91,,,,,,,,,,,,,,,,,,,,,,,l,1,2.0277,"[""0.032"",""0.122"",""0.454"",""0.701""]","[1,0,1,1]",0,42,42,42,1,1,1,,,0,FALSE,,,,,,,,,,,,,,,,,,,,,,,,,,,,,,,
,612af78e263861f5d6c7567b,001,2022-04-29_04h01.49.996,classification_task,2021.2.3,MacIntel,60.14675809,612af78e263861f5d6c7567b,626b377229c10585ec392f89,626b4651d0e80528a6d55f91,,,,,,,,,,,,,,,,,,,,,,,a,0,2.1851,"[""0.076"",""0.317"",""0.617"",""0.800""]","[1,0,1,1]",0,43,43,43,1,1,0,,,0,FALSE,,,,,,,,,,,,,,,,,,,,,,,,,,,,,,,
,612af78e263861f5d6c7567b,001,2022-04-29_04h01.49.996,classification_task,2021.2.3,MacIntel,60.14675809,612af78e263861f5d6c7567b,626b377229c10585ec392f89,626b4651d0e80528a6d55f91,,,,,,,,,,,,,,,,,,,,,,,l,1,2.2122,"[""0.076"",""0.354"",""0.662"",""0.800""]","[1,1,0,1]",0,44,44,44,1,1,0,,,0,FALSE,,,,,,,,,,,,,,,,,,,,,,,,,,,,,,,
,612af78e263861f5d6c7567b,001,2022-04-29_04h01.49.996,classification_task,2021.2.3,MacIntel,60.14675809,612af78e263861f5d6c7567b,626b377229c10585ec392f89,626b4651d0e80528a6d55f91,,,,,,,,,,,,,,,,,,,,,,,l,0,3.5,"[""0.237"",""0.404"",""0.198"",""0.962""]","[1,1,0,1]",0,45,45,45,1,0,0,,,0,FALSE,,,,,,,,,,,,,,,,,,,,,,,,,,,,,,,
,612af78e263861f5d6c7567b,001,2022-04-29_04h01.49.996,classification_task,2021.2.3,MacIntel,60.14675809,612af78e263861f5d6c7567b,626b377229c10585ec392f89,626b4651d0e80528a6d55f91,,,,,,,,,,,,,,,,,,,,,,,a,0,1.4552,"[""0.076"",""0.354"",""0.617"",""0.662""]","[1,1,1,0]",0,46,46,46,1,1,0,,,0,FALSE,,,,,,,,,,,,,,,,,,,,,,,,,,,,,,,
,612af78e263861f5d6c7567b,001,2022-04-29_04h01.49.996,classification_task,2021.2.3,MacIntel,60.14675809,612af78e263861f5d6c7567b,626b377229c10585ec392f89,626b4651d0e80528a6d55f91,,,,,,,,,,,,,,,,,,,,,,,l,0,2.1063,"[""0.237"",""0.892"",""0.569"",""0.962""]","[1,0,1,1]",0,47,47,47,1,0,0,,,0,FALSE,,,,,,,,,,,,,,,,,,,,,,,,,,,,,,,
,612af78e263861f5d6c7567b,001,2022-04-29_04h01.49.996,classification_task,2021.2.3,MacIntel,60.14675809,612af78e263861f5d6c7567b,626b377229c10585ec392f89,626b4651d0e80528a6d55f91,,,,,,,,,,,,,,,,,,,,,,,l,0,1.4791,"[""0.282"",""0.662"",""0.751"",""0.857""]","[1,0,1,1]",0,48,48,48,1,0,1,,,0,FALSE,,,,,,,,,,,,,,,,,,,,,,,,,,,,,,,
,612af78e263861f5d6c7567b,001,2022-04-29_04h01.49.996,classification_task,2021.2.3,MacIntel,60.14675809,612af78e263861f5d6c7567b,626b377229c10585ec392f89,626b4651d0e80528a6d55f91,,,,,,,,,,,,,,,,,,,,,,,a,0,2.711,"[""0.318"",""0.354"",""0.617"",""0.800""]","[0,1,1,1]",0,49,49,49,1,1,0,,,0,FALSE,,,,,,,,,,,,,,,,,,,,,,,,,,,,,,,
,612af78e263861f5d6c7567b,001,2022-04-29_04h01.49.996,classification_task,2021.2.3,MacIntel,60.14675809,612af78e263861f5d6c7567b,626b377229c10585ec392f89,626b4651d0e80528a6d55f91,,,,,,,,,,,,,,,,,,,,,,,l,1,0.8207,"[""0.032"",""0.193"",""0.454"",""0.701""]","[1,0,1,1]",0,50,50,50,1,1,1,,,0,FALSE,,,,,,,,,,,,,,,,,,,,,,,,,,,,,,,
,612af78e263861f5d6c7567b,001,2022-04-29_04h01.49.996,classification_task,2021.2.3,MacIntel,60.14675809,612af78e263861f5d6c7567b,626b377229c10585ec392f89,626b4651d0e80528a6d55f91,,,,,,,,,,,,,,,,,,,,,,,a,1,1.6456,"[""0.922"",""0.510"",""0.751"",""0.857""]","[0,1,1,1]",0,51,51,51,1,0,1,,,0,FALSE,,,,,,,,,,,,,,,,,,,,,,,,,,,,,,,
,612af78e263861f5d6c7567b,001,2022-04-29_04h01.49.996,classification_task,2021.2.3,MacIntel,60.14675809,612af78e263861f5d6c7567b,626b377229c10585ec392f89,626b4651d0e80528a6d55f91,,,,,,,,,,,,,,,,,,,,,,,l,1,1.33,"[""0.076"",""0.354"",""0.617"",""0.110""]","[1,1,1,0]",0,52,52,52,1,1,0,,,0,FALSE,,,,,,,,,,,,,,,,,,,,,,,,,,,,,,,
,612af78e263861f5d6c7567b,001,2022-04-29_04h01.49.996,classification_task,2021.2.3,MacIntel,60.14675809,612af78e263861f5d6c7567b,626b377229c10585ec392f89,626b4651d0e80528a6d55f91,,,,,,,,,,,,,,,,,,,,,,,a,1,0.8719,"[""0.659"",""0.404"",""0.569"",""0.962""]","[0,1,1,1]",0,53,53,53,1,0,0,,,0,FALSE,,,,,,,,,,,,,,,,,,,,,,,,,,,,,,,
,612af78e263861f5d6c7567b,001,2022-04-29_04h01.49.996,classification_task,2021.2.3,MacIntel,60.14675809,612af78e263861f5d6c7567b,626b377229c10585ec392f89,626b4651d0e80528a6d55f91,,,,,,,,,,,,,,,,,,,,,,,l,1,0.68,"[""0.076"",""0.354"",""0.122"",""0.800""]","[1,1,0,1]",0,54,54,54,1,1,0,,,0,FALSE,,,,,,,,,,,,,,,,,,,,,,,,,,,,,,,
,612af78e263861f5d6c7567b,001,2022-04-29_04h01.49.996,classification_task,2021.2.3,MacIntel,60.14675809,612af78e263861f5d6c7567b,626b377229c10585ec392f89,626b4651d0e80528a6d55f91,,,,,,,,,,,,,,,,,,,,,,,l,0,2.9756,"[""0.282"",""0.510"",""0.922"",""0.857""]","[1,1,0,1]",0,55,55,55,1,0,1,,,0,FALSE,,,,,,,,,,,,,,,,,,,,,,,,,,,,,,,
,612af78e263861f5d6c7567b,001,2022-04-29_04h01.49.996,classification_task,2021.2.3,MacIntel,60.14675809,612af78e263861f5d6c7567b,626b377229c10585ec392f89,626b4651d0e80528a6d55f91,,,,,,,,,,,,,,,,,,,,,,,l,1,1.4723,"[""0.667"",""0.155"",""0.454"",""0.701""]","[0,1,1,1]",0,56,56,56,1,1,1,,,0,FALSE,,,,,,,,,,,,,,,,,,,,,,,,,,,,,,,
,612af78e263861f5d6c7567b,001,2022-04-29_04h01.49.996,classification_task,2021.2.3,MacIntel,60.14675809,612af78e263861f5d6c7567b,626b377229c10585ec392f89,626b4651d0e80528a6d55f91,,,,,,,,,,,,,,,,,,,,,,,a,0,1.0879,"[""0.032"",""0.155"",""0.662"",""0.701""]","[1,1,0,1]",0,57,57,57,1,1,1,,,0,FALSE,,,,,,,,,,,,,,,,,,,,,,,,,,,,,,,
,612af78e263861f5d6c7567b,001,2022-04-29_04h01.49.996,classification_task,2021.2.3,MacIntel,60.14675809,612af78e263861f5d6c7567b,626b377229c10585ec392f89,626b4651d0e80528a6d55f91,,,,,,,,,,,,,,,,,,,,,,,a,1,3.7404,"[""0.237"",""0.404"",""0.569"",""0.667""]","[1,1,1,0]",0,58,58,58,1,0,0,,,0,FALSE,,,,,,,,,,,,,,,,,,,,,,,,,,,,,,,
,612af78e263861f5d6c7567b,001,2022-04-29_04h01.49.996,classification_task,2021.2.3,MacIntel,60.14675809,612af78e263861f5d6c7567b,626b377229c10585ec392f89,626b4651d0e80528a6d55f91,,,,,,,,,,,,,,,,,,,,,,,a,1,1.1891,"[""0.237"",""0.404"",""0.922"",""0.962""]","[1,1,0,1]",0,59,59,59,1,0,0,,,0,FALSE,,,,,,,,,,,,,,,,,,,,,,,,,,,,,,,
,612af78e263861f5d6c7567b,001,2022-04-29_04h01.49.996,classification_task,2021.2.3,MacIntel,60.14675809,612af78e263861f5d6c7567b,626b377229c10585ec392f89,626b4651d0e80528a6d55f91,,,,,,,,,,,,,,,,,,,,,,,l,0,2.8425,"[""0.282"",""0.510"",""0.751"",""0.660""]","[1,1,1,0]",0,60,60,60,1,0,1,,,0,FALSE,,,,,,,,,,,,,,,,,,,,,,,,,,,,,,,
,612af78e263861f5d6c7567b,001,2022-04-29_04h01.49.996,classification_task,2021.2.3,MacIntel,60.14675809,612af78e263861f5d6c7567b,626b377229c10585ec392f89,626b4651d0e80528a6d55f91,,,,,,,,,,,,,,,,,,,,,,,a,1,3.9327,"[""0.237"",""0.198"",""0.569"",""0.962""]","[1,0,1,1]",0,61,61,61,1,0,0,,,0,FALSE,,,,,,,,,,,,,,,,,,,,,,,,,,,,,,,
,612af78e263861f5d6c7567b,001,2022-04-29_04h01.49.996,classification_task,2021.2.3,MacIntel,60.14675809,612af78e263861f5d6c7567b,626b377229c10585ec392f89,626b4651d0e80528a6d55f91,,,,,,,,,,,,,,,,,,,,,,,l,1,1.3043,"[""0.032"",""0.155"",""0.454"",""0.662""]","[1,1,1,0]",0,62,62,62,1,1,1,,,0,FALSE,,,,,,,,,,,,,,,,,,,,,,,,,,,,,,,
,612af78e263861f5d6c7567b,001,2022-04-29_04h01.49.996,classification_task,2021.2.3,MacIntel,60.14675809,612af78e263861f5d6c7567b,626b377229c10585ec392f89,626b4651d0e80528a6d55f91,,,,,,,,,,,,,,,,,,,,,,,a,0,1.1473,"[""0.076"",""0.666"",""0.617"",""0.800""]","[1,0,1,1]",0,63,63,63,1,1,0,,,0,FALSE,,,,,,,,,,,,,,,,,,,,,,,,,,,,,,,
,612af78e263861f5d6c7567b,001,2022-04-29_04h01.49.996,classification_task,2021.2.3,MacIntel,60.14675809,612af78e263861f5d6c7567b,626b377229c10585ec392f89,626b4651d0e80528a6d55f91,,,,,,,,,,,,,,,,,,,,,,,,,,,,,,,,,,,,,,,0, ,,0,2.850141576,177.0468,0,2,2,2,1,2,3,,,,,,,,,,,,,,,,,,
,612af78e263861f5d6c7567b,001,2022-04-29_04h01.49.996,classification_task,2021.2.3,MacIntel,60.14675809,612af78e263861f5d6c7567b,626b377229c10585ec392f89,626b4651d0e80528a6d55f91,,,,,,,,,,,,,,,,,,,,,,,,,,,,,,,,,,,,,,,1,  ,,0,10,182.7411,0,2,2,2,1,2,3,,,,,,,,,,,,,,,,,,
,612af78e263861f5d6c7567b,001,2022-04-29_04h01.49.996,classification_task,2021.2.3,MacIntel,60.14675809,612af78e263861f5d6c7567b,626b377229c10585ec392f89,626b4651d0e80528a6d55f91,,,,,,,,,,,,,,,,,,,,,,,,,,,,,,,,,,,,,,,2,  ,,0,4.628880415,192.1583,0,2,2,2,1,2,3,,,,,,,,,,,,,,,,,,
,612af78e263861f5d6c7567b,001,2022-04-29_04h01.49.996,classification_task,2021.2.3,MacIntel,60.14675809,612af78e263861f5d6c7567b,626b377229c10585ec392f89,626b4651d0e80528a6d55f91,,,,,,,,,,,,,,,,,,,,,,,,,,,,,,,,,,,,,,,,,,,,,0,2,2,2,1,,3,,,,,,,,,,,,,,,,,,
,612af78e263861f5d6c7567b,001,2022-04-29_04h01.49.996,classification_task,2021.2.3,MacIntel,60.14675809,612af78e263861f5d6c7567b,626b377229c10585ec392f89,626b4651d0e80528a6d55f91,,,,,,,,,,,,,,,,,,,,,,,,,,,,,,,,,,,,,,,,,,,,,,,,,,,,space,13.1678,I believe the aid is a competent performer,,0.7,0,4,917.7533,0,0,0,0,1,0,,,,
,612af78e263861f5d6c7567b,001,2022-04-29_04h01.49.996,classification_task,2021.2.3,MacIntel,60.14675809,612af78e263861f5d6c7567b,626b377229c10585ec392f89,626b4651d0e80528a6d55f91,,,,,,,,,,,,,,,,,,,,,,,,,,,,,,,,,,,,,,,,,,,,,,,,,,,,,,I trust the aid,,0.7,0,3,977.2149,0,0,0,0,1,0,,,,
,612af78e263861f5d6c7567b,001,2022-04-29_04h01.49.996,classification_task,2021.2.3,MacIntel,60.14675809,612af78e263861f5d6c7567b,626b377229c10585ec392f89,626b4651d0e80528a6d55f91,,,,,,,,,,,,,,,,,,,,,,,,,,,,,,,,,,,,,,,,,,,,,,,,,,,,,,I have confidence in the advice given by the aid,,0.7,0,3,971.7036,0,0,0,0,1,0,,,,
,612af78e263861f5d6c7567b,001,2022-04-29_04h01.49.996,classification_task,2021.2.3,MacIntel,60.14675809,612af78e263861f5d6c7567b,626b377229c10585ec392f89,626b4651d0e80528a6d55f91,,,,,,,,,,,,,,,,,,,,,,,,,,,,,,,,,,,,,,,,,,,,,,,,,,,,,,I can depend on the aid,,0.7,0,3,972.4725,0,0,0,0,1,0,,,,
,612af78e263861f5d6c7567b,001,2022-04-29_04h01.49.996,classification_task,2021.2.3,MacIntel,60.14675809,612af78e263861f5d6c7567b,626b377229c10585ec392f89,626b4651d0e80528a6d55f91,,,,,,,,,,,,,,,,,,,,,,,,,,,,,,,,,,,,,,,,,,,,,,,,,,,,,,I can rely on the aid to behave in consistent ways,,0.7,0,3,973.5025,0,0,0,0,1,0,,,,
,612af78e263861f5d6c7567b,001,2022-04-29_04h01.49.996,classification_task,2021.2.3,MacIntel,60.14675809,612af78e263861f5d6c7567b,626b377229c10585ec392f89,626b4651d0e80528a6d55f91,,,,,,,,,,,,,,,,,,,,,,,,,,,,,,,,,,,,,,,,,,,,,,,,,,,,,,I can rely on the aid to do its best every time I take its advice,,0.7,0,3,974.4589,0,0,0,0,1,0,,,,
,612af78e263861f5d6c7567b,001,2022-04-29_04h01.49.996,classification_task,2021.2.3,MacIntel,60.14675809,612af78e263861f5d6c7567b,626b377229c10585ec392f89,626b4651d0e80528a6d55f91,,,,,,,,,,,,,,,,,,,,,,,,,,,,,,,,,,,,,,,,,,,,,,,,,,,,,,"On trials you completed with assistance from the aid, how frequently did you think the aid was correct?",,0.7,0,50,,0,0,0,0,1,0,,,,
,612af78e263861f5d6c7567b,001,2022-04-29_04h01.49.996,classification_task,2021.2.3,MacIntel,60.14675809,612af78e263861f5d6c7567b,626b377229c10585ec392f89,626b4651d0e80528a6d55f91,,,,,,,,,,,,,,,,,,,,,,,,,,,,,,,,,,,,,,,,,,,,,,,,,,,,,,"On trials you completed without the aid, how frequently did you think you were correct?",,0.7,0,20,,0,0,0,0,1,0,,,,
,612af78e263861f5d6c7567b,001,2022-04-29_04h01.49.996,classification_task,2021.2.3,MacIntel,60.14675809,612af78e263861f5d6c7567b,626b377229c10585ec392f89,626b4651d0e80528a6d55f91,,,,,,,,,,,,,,,,,,,,,,,,,,,,,,,,,,,,,,,,,,,,,,,,,,,,,,,,,,,,0,0,0,0,1,,,,,
,612af78e263861f5d6c7567b,001,2022-04-29_04h01.49.996,classification_task,2021.2.3,MacIntel,60.14675809,612af78e263861f5d6c7567b,626b377229c10585ec392f89,626b4651d0e80528a6d55f91,,,,,,,,,,,,,,,,,,,,,,,,,,,,,,,,,,,,,,,,,,,,,,,,,,,,,,,,,,,,,,,,,,space,21.8156,1000.3828,
,612af78e263861f5d6c7567b,001,2022-04-29_04h01.49.996,classification_task,2021.2.3,MacIntel,60.14675809,612af78e263861f5d6c7567b,626b377229c10585ec392f89,626b4651d0e80528a6d55f91,,,,,,,,,,,,,,,,,,,,,,,,,,,,,,,,,,,,,,,,,,,,,,,,,,,,,,,,,,,,,,,,,,,,,"Mozilla/5.0 (Macintosh; Intel Mac OS X 10_15_7) AppleWebKit/537.36 (KHTML, like Gecko) Chrome/97.0.4692.99 Safari/537.36"
