usingWebGL,participant,session,date,expName,psychopyVersion,OS,frameRate,study_id,signatures_friend,signatures_foe,band_ranges_top,band_ranges_bottom,formitemText,formtype,formundefined,formitemWidth,formindex,formresponse,formrt,key_resp_2.keys,key_resp_2.rt,tute_resp.keys,tute_resp.rt,tutorial.thisRepN,tutorial.thisTrialN,tutorial.thisN,tutorial.thisIndex,tutorial.ran,key_resp_4.keys,key_resp_4.rt,key_resp.keys,key_resp.corr,key_resp.rt,lines_presented,is_signal_presented,trials.thisRepN,trials.thisTrialN,trials.thisN,trials.thisIndex,trials.ran,vessel,active_band,lines,is_signal,supported_pos,catch_trial,debrief_formindex,debrief_formitemText,debrief_formtype,debrief_formitemWidth,debrief_formresponse,debrief_formrt,phases.thisRepN,phases.thisTrialN,phases.thisN,phases.thisIndex,phases.ran,phases.order,phase,key_resp_3.keys,trustitemText,trusttype,trustitemWidth,trustindex,trustresponse,trustrt,support_status.thisRepN,support_status.thisTrialN,support_status.thisN,support_status.thisIndex,support_status.ran,support_status.order,key_resp_5.keys,key_resp_5.rt,globalClockTime,userAgent,manualCondition
TRUE,612ba4de7e2b127155f4bb03,627c6f49ad787dc47253654d,2022-05-11_21h44.29.375,classification_task,2021.2.3,Win32,60.00960154,627c6715c52fd12f31907bd0,,,,,,,,,,,,,,,,,,,,,,,,,,,,,,,,,,,,,,,,,,,,,,,,,,,,,,,,,,,,,,,,,,,,,
,612ba4de7e2b127155f4bb03,627c6f49ad787dc47253654d,2022-05-11_21h44.29.375,classification_task,2021.2.3,Win32,60.00960154,627c6715c52fd12f31907bd0,"[[""0.234"",""0.421"",""0.797"",""0.957""],[""0.288"",""0.456"",""0.672"",""0.879""]]","[[""0.126"",""0.190"",""0.632"",""0.717""],[""0.048"",""0.373"",""0.517"",""0.838""]]","[1,10]","[100,1000]",Video game experience,,,0.7,0,,,,,,,,,,,,,,,,,,,,,,,,,,,,,,,,,,,,,,,,,,,,,,,,,,,,,,,,,,,,
,612ba4de7e2b127155f4bb03,627c6f49ad787dc47253654d,2022-05-11_21h44.29.375,classification_task,2021.2.3,Win32,60.00960154,627c6715c52fd12f31907bd0,,,,,Approximately how many hours did you spend playing video games in the last week?,,,0.7,0,0,,,,,,,,,,,,,,,,,,,,,,,,,,,,,,,,,,,,,,,,,,,,,,,,,,,,,,,,,,,
,612ba4de7e2b127155f4bb03,627c6f49ad787dc47253654d,2022-05-11_21h44.29.375,classification_task,2021.2.3,Win32,60.00960154,627c6715c52fd12f31907bd0,,,,,"Which game did you play the most this year? (Enter ""None"" if you didn't play any)",,,0.7,0,None,,,,,,,,,,,,,,,,,,,,,,,,,,,,,,,,,,,,,,,,,,,,,,,,,,,,,,,,,,,
,612ba4de7e2b127155f4bb03,627c6f49ad787dc47253654d,2022-05-11_21h44.29.375,classification_task,2021.2.3,Win32,60.00960154,627c6715c52fd12f31907bd0,,,,,Visual perception,,,0.7,0,,,,,,,,,,,,,,,,,,,,,,,,,,,,,,,,,,,,,,,,,,,,,,,,,,,,,,,,,,,,
,612ba4de7e2b127155f4bb03,627c6f49ad787dc47253654d,2022-05-11_21h44.29.375,classification_task,2021.2.3,Win32,60.00960154,627c6715c52fd12f31907bd0,,,,,Do you have any form of color blindness?,,,0.7,0,No,82.4424,,,,,,,,,,,,,,,,,,,,,,,,,,,,,,,,,,,,,,,,,,,,,,,,,,,,,,,,,,
,612ba4de7e2b127155f4bb03,627c6f49ad787dc47253654d,2022-05-11_21h44.29.375,classification_task,2021.2.3,Win32,60.00960154,627c6715c52fd12f31907bd0,,,,,Do you use software to change the colour temperature of your screen (e.g. f.lux)?,,,0.7,0,No,89.3808,,,,,,,,,,,,,,,,,,,,,,,,,,,,,,,,,,,,,,,,,,,,,,,,,,,,,,,,,,
,612ba4de7e2b127155f4bb03,627c6f49ad787dc47253654d,2022-05-11_21h44.29.375,classification_task,2021.2.3,Win32,60.00960154,627c6715c52fd12f31907bd0,,,,,,,,,,,,space,39.0314,space,81.4381,0,0,0,0,1,,,,,,,,,,,,,,,,,,,,,,,,,,,,,,,,,,,,,,,,,,,,,,,,,
,612ba4de7e2b127155f4bb03,627c6f49ad787dc47253654d,2022-05-11_21h44.29.375,classification_task,2021.2.3,Win32,60.00960154,627c6715c52fd12f31907bd0,,,,,,,,,,,,,,space,8.6946,1,0,1,0,1,,,,,,,,,,,,,,,,,,,,,,,,,,,,,,,,,,,,,,,,,,,,,,,,,
,612ba4de7e2b127155f4bb03,627c6f49ad787dc47253654d,2022-05-11_21h44.29.375,classification_task,2021.2.3,Win32,60.00960154,627c6715c52fd12f31907bd0,,,,,,,,,,,,,,space,35.9061,2,0,2,0,1,,,,,,,,,,,,,,,,,,,,,,,,,,,,,,,,,,,,,,,,,,,,,,,,,
,612ba4de7e2b127155f4bb03,627c6f49ad787dc47253654d,2022-05-11_21h44.29.375,classification_task,2021.2.3,Win32,60.00960154,627c6715c52fd12f31907bd0,,,,,,,,,,,,,,space,10.7596,3,0,3,0,1,,,,,,,,,,,,,,,,,,,,,,,,,,,,,,,,,,,,,,,,,,,,,,,,,
,612ba4de7e2b127155f4bb03,627c6f49ad787dc47253654d,2022-05-11_21h44.29.375,classification_task,2021.2.3,Win32,60.00960154,627c6715c52fd12f31907bd0,,,,,,,,,,,,,,space,9.1125,4,0,4,0,1,,,,,,,,,,,,,,,,,,,,,,,,,,,,,,,,,,,,,,,,,,,,,,,,,
,612ba4de7e2b127155f4bb03,627c6f49ad787dc47253654d,2022-05-11_21h44.29.375,classification_task,2021.2.3,Win32,60.00960154,627c6715c52fd12f31907bd0,,,,,,,,,,,,,,,,,,,,,space,36.2246,l,1,4.6392,"[""0.048"",""0.560"",""0.517"",""0.838""]","[1,0,1,1]",0,0,0,0,1,1,1,,,1,FALSE,,,,,,,,,,,,,,,,,,,,,,,,,,,,,,,
,612ba4de7e2b127155f4bb03,627c6f49ad787dc47253654d,2022-05-11_21h44.29.375,classification_task,2021.2.3,Win32,60.00960154,627c6715c52fd12f31907bd0,,,,,,,,,,,,,,,,,,,,,,,l,1,4.2688,"[""0.587"",""0.373"",""0.517"",""0.838""]","[0,1,1,1]",0,1,1,1,1,1,1,,,1,FALSE,,,,,,,,,,,,,,,,,,,,,,,,,,,,,,,
,612ba4de7e2b127155f4bb03,627c6f49ad787dc47253654d,2022-05-11_21h44.29.375,classification_task,2021.2.3,Win32,60.00960154,627c6715c52fd12f31907bd0,,,,,,,,,,,,,,,,,,,,,,,l,1,4.2954,"[""0.126"",""0.190"",""0.591"",""0.717""]","[1,1,0,1]",0,2,2,2,1,1,0,,,1,FALSE,,,,,,,,,,,,,,,,,,,,,,,,,,,,,,,
,612ba4de7e2b127155f4bb03,627c6f49ad787dc47253654d,2022-05-11_21h44.29.375,classification_task,2021.2.3,Win32,60.00960154,627c6715c52fd12f31907bd0,,,,,,,,,,,,,,,,,,,,,,,,0,,"[""0.552"",""0.190"",""0.632"",""0.717""]","[0,1,1,1]",0,3,3,3,1,1,0,,,1,FALSE,,,,,,,,,,,,,,,,,,,,,,,,,,,,,,,
,612ba4de7e2b127155f4bb03,627c6f49ad787dc47253654d,2022-05-11_21h44.29.375,classification_task,2021.2.3,Win32,60.00960154,627c6715c52fd12f31907bd0,,,,,,,,,,,,,,,,,,,,,,,a,1,4.4089,"[""0.234"",""0.597"",""0.797"",""0.957""]","[1,0,1,1]",0,4,4,4,1,0,0,,,1,FALSE,,,,,,,,,,,,,,,,,,,,,,,,,,,,,,,
,612ba4de7e2b127155f4bb03,627c6f49ad787dc47253654d,2022-05-11_21h44.29.375,classification_task,2021.2.3,Win32,60.00960154,627c6715c52fd12f31907bd0,,,,,,,,,,,,,,,,,,,,,,,a,1,3.5988,"[""0.288"",""0.597"",""0.672"",""0.879""]","[1,0,1,1]",0,5,5,5,1,0,1,,,1,FALSE,,,,,,,,,,,,,,,,,,,,,,,,,,,,,,,
,612ba4de7e2b127155f4bb03,627c6f49ad787dc47253654d,2022-05-11_21h44.29.375,classification_task,2021.2.3,Win32,60.00960154,627c6715c52fd12f31907bd0,,,,,,,,,,,,,,,,,,,,,,,a,1,5.0072,"[""0.591"",""0.456"",""0.672"",""0.879""]","[0,1,1,1]",0,6,6,6,1,0,1,,,1,FALSE,,,,,,,,,,,,,,,,,,,,,,,,,,,,,,,
,612ba4de7e2b127155f4bb03,627c6f49ad787dc47253654d,2022-05-11_21h44.29.375,classification_task,2021.2.3,Win32,60.00960154,627c6715c52fd12f31907bd0,,,,,,,,,,,,,,,,,,,,,,,a,1,6.6096,"[""0.288"",""0.456"",""0.672"",""0.339""]","[1,1,1,0]",0,7,7,7,1,0,1,,,1,FALSE,,,,,,,,,,,,,,,,,,,,,,,,,,,,,,,
,612ba4de7e2b127155f4bb03,627c6f49ad787dc47253654d,2022-05-11_21h44.29.375,classification_task,2021.2.3,Win32,60.00960154,627c6715c52fd12f31907bd0,,,,,,,,,,,,,,,,,,,,,,,a,1,2.9329,"[""0.234"",""0.421"",""0.552"",""0.957""]","[1,1,0,1]",0,8,8,8,1,0,0,,,1,FALSE,,,,,,,,,,,,,,,,,,,,,,,,,,,,,,,
,612ba4de7e2b127155f4bb03,627c6f49ad787dc47253654d,2022-05-11_21h44.29.375,classification_task,2021.2.3,Win32,60.00960154,627c6715c52fd12f31907bd0,,,,,,,,,,,,,,,,,,,,,,,a,1,3.0817,"[""0.288"",""0.456"",""0.591"",""0.879""]","[1,1,0,1]",0,9,9,9,1,0,1,,,1,FALSE,,,,,,,,,,,,,,,,,,,,,,,,,,,,,,,
,612ba4de7e2b127155f4bb03,627c6f49ad787dc47253654d,2022-05-11_21h44.29.375,classification_task,2021.2.3,Win32,60.00960154,627c6715c52fd12f31907bd0,,,,,,,,,,,,,,,,,,,,,,,l,1,3.3012,"[""0.048"",""0.373"",""0.597"",""0.838""]","[1,1,0,1]",0,10,10,10,1,1,1,,,1,FALSE,,,,,,,,,,,,,,,,,,,,,,,,,,,,,,,
,612ba4de7e2b127155f4bb03,627c6f49ad787dc47253654d,2022-05-11_21h44.29.375,classification_task,2021.2.3,Win32,60.00960154,627c6715c52fd12f31907bd0,,,,,,,,,,,,,,,,,,,,,,,a,1,3.5638,"[""0.234"",""0.421"",""0.797"",""0.753""]","[1,1,1,0]",0,11,11,11,1,0,0,,,1,FALSE,,,,,,,,,,,,,,,,,,,,,,,,,,,,,,,
,612ba4de7e2b127155f4bb03,627c6f49ad787dc47253654d,2022-05-11_21h44.29.375,classification_task,2021.2.3,Win32,60.00960154,627c6715c52fd12f31907bd0,,,,,,,,,,,,,,,,,,,,,,,l,1,3.1174,"[""0.126"",""0.190"",""0.632"",""0.760""]","[1,1,1,0]",0,12,12,12,1,1,0,,,1,FALSE,,,,,,,,,,,,,,,,,,,,,,,,,,,,,,,
,612ba4de7e2b127155f4bb03,627c6f49ad787dc47253654d,2022-05-11_21h44.29.375,classification_task,2021.2.3,Win32,60.00960154,627c6715c52fd12f31907bd0,,,,,,,,,,,,,,,,,,,,,,,a,1,3.8336,"[""0.552"",""0.421"",""0.797"",""0.957""]","[0,1,1,1]",0,13,13,13,1,0,0,,,1,FALSE,,,,,,,,,,,,,,,,,,,,,,,,,,,,,,,
,612ba4de7e2b127155f4bb03,627c6f49ad787dc47253654d,2022-05-11_21h44.29.375,classification_task,2021.2.3,Win32,60.00960154,627c6715c52fd12f31907bd0,,,,,,,,,,,,,,,,,,,,,,,l,1,3.3674,"[""0.126"",""0.339"",""0.632"",""0.717""]","[1,0,1,1]",0,14,14,14,1,1,0,,,1,FALSE,,,,,,,,,,,,,,,,,,,,,,,,,,,,,,,
,612ba4de7e2b127155f4bb03,627c6f49ad787dc47253654d,2022-05-11_21h44.29.375,classification_task,2021.2.3,Win32,60.00960154,627c6715c52fd12f31907bd0,,,,,,,,,,,,,,,,,,,,,,,l,1,2.4028,"[""0.048"",""0.373"",""0.517"",""0.569""]","[1,1,1,0]",0,15,15,15,1,1,1,,,1,FALSE,,,,,,,,,,,,,,,,,,,,,,,,,,,,,,,
,612ba4de7e2b127155f4bb03,627c6f49ad787dc47253654d,2022-05-11_21h44.29.375,classification_task,2021.2.3,Win32,60.00960154,627c6715c52fd12f31907bd0,,,,,,,,,,,,,,,,,,,,,,,l,1,2.4061,"[""0.048"",""0.373"",""0.322"",""0.838""]","[1,1,0,1]",0,16,16,16,1,1,1,,,1,FALSE,,,,,,,,,,,,,,,,,,,,,,,,,,,,,,,
,612ba4de7e2b127155f4bb03,627c6f49ad787dc47253654d,2022-05-11_21h44.29.375,classification_task,2021.2.3,Win32,60.00960154,627c6715c52fd12f31907bd0,,,,,,,,,,,,,,,,,,,,,,,l,1,2.4588,"[""0.048"",""0.373"",""0.517"",""0.916""]","[1,1,1,0]",0,17,17,17,1,1,1,,,1,FALSE,,,,,,,,,,,,,,,,,,,,,,,,,,,,,,,
,612ba4de7e2b127155f4bb03,627c6f49ad787dc47253654d,2022-05-11_21h44.29.375,classification_task,2021.2.3,Win32,60.00960154,627c6715c52fd12f31907bd0,,,,,,,,,,,,,,,,,,,,,,,a,1,3.1165,"[""0.569"",""0.421"",""0.797"",""0.957""]","[0,1,1,1]",0,18,18,18,1,0,0,,,1,FALSE,,,,,,,,,,,,,,,,,,,,,,,,,,,,,,,
,612ba4de7e2b127155f4bb03,627c6f49ad787dc47253654d,2022-05-11_21h44.29.375,classification_task,2021.2.3,Win32,60.00960154,627c6715c52fd12f31907bd0,,,,,,,,,,,,,,,,,,,,,,,l,1,2.5033,"[""0.339"",""0.190"",""0.632"",""0.717""]","[0,1,1,1]",0,19,19,19,1,1,0,,,1,FALSE,,,,,,,,,,,,,,,,,,,,,,,,,,,,,,,
,612ba4de7e2b127155f4bb03,627c6f49ad787dc47253654d,2022-05-11_21h44.29.375,classification_task,2021.2.3,Win32,60.00960154,627c6715c52fd12f31907bd0,,,,,,,,,,,,,,,,,,,,,,,a,1,2.1629,"[""0.234"",""0.421"",""0.797"",""0.916""]","[1,1,1,0]",0,20,20,20,1,0,0,,,1,FALSE,,,,,,,,,,,,,,,,,,,,,,,,,,,,,,,
,612ba4de7e2b127155f4bb03,627c6f49ad787dc47253654d,2022-05-11_21h44.29.375,classification_task,2021.2.3,Win32,60.00960154,627c6715c52fd12f31907bd0,,,,,,,,,,,,,,,,,,,,,,,l,1,2.1192,"[""0.126"",""0.190"",""0.632"",""0.552""]","[1,1,1,0]",0,21,21,21,1,1,0,,,1,FALSE,,,,,,,,,,,,,,,,,,,,,,,,,,,,,,,
,612ba4de7e2b127155f4bb03,627c6f49ad787dc47253654d,2022-05-11_21h44.29.375,classification_task,2021.2.3,Win32,60.00960154,627c6715c52fd12f31907bd0,,,,,,,,,,,,,,,,,,,,,,,a,1,2.3666,"[""0.234"",""0.421"",""0.569"",""0.957""]","[1,1,0,1]",0,22,22,22,1,0,0,,,1,FALSE,,,,,,,,,,,,,,,,,,,,,,,,,,,,,,,
,612ba4de7e2b127155f4bb03,627c6f49ad787dc47253654d,2022-05-11_21h44.29.375,classification_task,2021.2.3,Win32,60.00960154,627c6715c52fd12f31907bd0,,,,,,,,,,,,,,,,,,,,,,,l,1,3.2786,"[""0.569"",""0.373"",""0.517"",""0.838""]","[0,1,1,1]",0,23,23,23,1,1,1,,,1,FALSE,,,,,,,,,,,,,,,,,,,,,,,,,,,,,,,
,612ba4de7e2b127155f4bb03,627c6f49ad787dc47253654d,2022-05-11_21h44.29.375,classification_task,2021.2.3,Win32,60.00960154,627c6715c52fd12f31907bd0,,,,,,,,,,,,,,,,,,,,,,,a,1,3.0237,"[""0.288"",""0.456"",""0.672"",""0.562""]","[1,1,1,0]",0,24,24,24,1,0,1,,,1,FALSE,,,,,,,,,,,,,,,,,,,,,,,,,,,,,,,
,612ba4de7e2b127155f4bb03,627c6f49ad787dc47253654d,2022-05-11_21h44.29.375,classification_task,2021.2.3,Win32,60.00960154,627c6715c52fd12f31907bd0,,,,,,,,,,,,,,,,,,,,,,,a,1,2.6957,"[""0.569"",""0.456"",""0.672"",""0.879""]","[0,1,1,1]",0,25,25,25,1,0,1,,,1,FALSE,,,,,,,,,,,,,,,,,,,,,,,,,,,,,,,
,612ba4de7e2b127155f4bb03,627c6f49ad787dc47253654d,2022-05-11_21h44.29.375,classification_task,2021.2.3,Win32,60.00960154,627c6715c52fd12f31907bd0,,,,,,,,,,,,,,,,,,,,,,,a,1,2.7483,"[""0.234"",""0.322"",""0.797"",""0.957""]","[1,0,1,1]",0,26,26,26,1,0,0,,,1,FALSE,,,,,,,,,,,,,,,,,,,,,,,,,,,,,,,
,612ba4de7e2b127155f4bb03,627c6f49ad787dc47253654d,2022-05-11_21h44.29.375,classification_task,2021.2.3,Win32,60.00960154,627c6715c52fd12f31907bd0,,,,,,,,,,,,,,,,,,,,,,,l,1,2.6942,"[""0.126"",""0.569"",""0.632"",""0.717""]","[1,0,1,1]",0,27,27,27,1,1,0,,,1,FALSE,,,,,,,,,,,,,,,,,,,,,,,,,,,,,,,
,612ba4de7e2b127155f4bb03,627c6f49ad787dc47253654d,2022-05-11_21h44.29.375,classification_task,2021.2.3,Win32,60.00960154,627c6715c52fd12f31907bd0,,,,,,,,,,,,,,,,,,,,,,,l,1,3.1694,"[""0.126"",""0.190"",""0.916"",""0.717""]","[1,1,0,1]",0,28,28,28,1,1,0,,,1,FALSE,,,,,,,,,,,,,,,,,,,,,,,,,,,,,,,
,612ba4de7e2b127155f4bb03,627c6f49ad787dc47253654d,2022-05-11_21h44.29.375,classification_task,2021.2.3,Win32,60.00960154,627c6715c52fd12f31907bd0,,,,,,,,,,,,,,,,,,,,,,,l,1,2.2985,"[""0.048"",""0.753"",""0.517"",""0.838""]","[1,0,1,1]",0,29,29,29,1,1,1,,,1,FALSE,,,,,,,,,,,,,,,,,,,,,,,,,,,,,,,
,612ba4de7e2b127155f4bb03,627c6f49ad787dc47253654d,2022-05-11_21h44.29.375,classification_task,2021.2.3,Win32,60.00960154,627c6715c52fd12f31907bd0,,,,,,,,,,,,,,,,,,,,,,,l,0,2.2205,"[""0.288"",""0.085"",""0.672"",""0.879""]","[1,0,1,1]",0,30,30,30,1,0,1,,,1,FALSE,,,,,,,,,,,,,,,,,,,,,,,,,,,,,,,
,612ba4de7e2b127155f4bb03,627c6f49ad787dc47253654d,2022-05-11_21h44.29.375,classification_task,2021.2.3,Win32,60.00960154,627c6715c52fd12f31907bd0,,,,,,,,,,,,,,,,,,,,,,,a,1,2.6834,"[""0.288"",""0.456"",""0.753"",""0.879""]","[1,1,0,1]",0,31,31,31,1,0,1,,,1,FALSE,,,,,,,,,,,,,,,,,,,,,,,,,,,,,,,
,612ba4de7e2b127155f4bb03,627c6f49ad787dc47253654d,2022-05-11_21h44.29.375,classification_task,2021.2.3,Win32,60.00960154,627c6715c52fd12f31907bd0,,,,,,,,,,,,,,,,,,,,,,,a,1,4.4334,"[""0.234"",""0.421"",""0.597"",""0.957""]","[1,1,0,1]",0,32,32,32,1,0,0,,,1,FALSE,,,,,,,,,,,,,,,,,,,,,,,,,,,,,,,
,612ba4de7e2b127155f4bb03,627c6f49ad787dc47253654d,2022-05-11_21h44.29.375,classification_task,2021.2.3,Win32,60.00960154,627c6715c52fd12f31907bd0,,,,,,,,,,,,,,,,,,,,,,,a,0,2.9661,"[""0.048"",""0.373"",""0.517"",""0.753""]","[1,1,1,0]",0,33,33,33,1,1,1,,,1,FALSE,,,,,,,,,,,,,,,,,,,,,,,,,,,,,,,
,612ba4de7e2b127155f4bb03,627c6f49ad787dc47253654d,2022-05-11_21h44.29.375,classification_task,2021.2.3,Win32,60.00960154,627c6715c52fd12f31907bd0,,,,,,,,,,,,,,,,,,,,,,,a,0,2.0667,"[""0.591"",""0.373"",""0.517"",""0.838""]","[0,1,1,1]",0,34,34,34,1,1,1,,,1,FALSE,,,,,,,,,,,,,,,,,,,,,,,,,,,,,,,
,612ba4de7e2b127155f4bb03,627c6f49ad787dc47253654d,2022-05-11_21h44.29.375,classification_task,2021.2.3,Win32,60.00960154,627c6715c52fd12f31907bd0,,,,,,,,,,,,,,,,,,,,,,,l,0,1.0948,"[""0.234"",""0.339"",""0.797"",""0.957""]","[1,0,1,1]",0,35,35,35,1,0,0,,,1,FALSE,,,,,,,,,,,,,,,,,,,,,,,,,,,,,,,
,612ba4de7e2b127155f4bb03,627c6f49ad787dc47253654d,2022-05-11_21h44.29.375,classification_task,2021.2.3,Win32,60.00960154,627c6715c52fd12f31907bd0,,,,,,,,,,,,,,,,,,,,,,,a,0,3.2653,"[""0.916"",""0.190"",""0.632"",""0.717""]","[0,1,1,1]",0,36,36,36,1,1,0,,,1,FALSE,,,,,,,,,,,,,,,,,,,,,,,,,,,,,,,
,612ba4de7e2b127155f4bb03,627c6f49ad787dc47253654d,2022-05-11_21h44.29.375,classification_task,2021.2.3,Win32,60.00960154,627c6715c52fd12f31907bd0,,,,,,,,,,,,,,,,,,,,,,,l,1,1.9085,"[""0.048"",""0.373"",""0.591"",""0.838""]","[1,1,0,1]",0,37,37,37,1,1,1,,,1,FALSE,,,,,,,,,,,,,,,,,,,,,,,,,,,,,,,
,612ba4de7e2b127155f4bb03,627c6f49ad787dc47253654d,2022-05-11_21h44.29.375,classification_task,2021.2.3,Win32,60.00960154,627c6715c52fd12f31907bd0,,,,,,,,,,,,,,,,,,,,,,,l,1,4.5916,"[""0.048"",""0.762"",""0.517"",""0.838""]","[1,0,1,1]",0,38,38,38,1,1,1,,,1,FALSE,,,,,,,,,,,,,,,,,,,,,,,,,,,,,,,
,612ba4de7e2b127155f4bb03,627c6f49ad787dc47253654d,2022-05-11_21h44.29.375,classification_task,2021.2.3,Win32,60.00960154,627c6715c52fd12f31907bd0,,,,,,,,,,,,,,,,,,,,,,,a,1,1.485,"[""0.288"",""0.760"",""0.672"",""0.879""]","[1,0,1,1]",0,39,39,39,1,0,1,,,1,FALSE,,,,,,,,,,,,,,,,,,,,,,,,,,,,,,,
,612ba4de7e2b127155f4bb03,627c6f49ad787dc47253654d,2022-05-11_21h44.29.375,classification_task,2021.2.3,Win32,60.00960154,627c6715c52fd12f31907bd0,,,,,,,,,,,,,,,,,,,,,,,a,1,1.9693,"[""0.288"",""0.456"",""0.916"",""0.879""]","[1,1,0,1]",0,40,40,40,1,0,1,,,1,FALSE,,,,,,,,,,,,,,,,,,,,,,,,,,,,,,,
,612ba4de7e2b127155f4bb03,627c6f49ad787dc47253654d,2022-05-11_21h44.29.375,classification_task,2021.2.3,Win32,60.00960154,627c6715c52fd12f31907bd0,,,,,,,,,,,,,,,,,,,,,,,l,0,1.2564,"[""0.288"",""0.456"",""0.672"",""0.562""]","[1,1,1,0]",0,41,41,41,1,0,1,,,1,FALSE,,,,,,,,,,,,,,,,,,,,,,,,,,,,,,,
,612ba4de7e2b127155f4bb03,627c6f49ad787dc47253654d,2022-05-11_21h44.29.375,classification_task,2021.2.3,Win32,60.00960154,627c6715c52fd12f31907bd0,,,,,,,,,,,,,,,,,,,,,,,a,0,1.099,"[""0.126"",""0.562"",""0.632"",""0.717""]","[1,0,1,1]",0,42,42,42,1,1,0,,,1,FALSE,,,,,,,,,,,,,,,,,,,,,,,,,,,,,,,
,612ba4de7e2b127155f4bb03,627c6f49ad787dc47253654d,2022-05-11_21h44.29.375,classification_task,2021.2.3,Win32,60.00960154,627c6715c52fd12f31907bd0,,,,,,,,,,,,,,,,,,,,,,,l,1,1.0459,"[""0.126"",""0.190"",""0.632"",""0.560""]","[1,1,1,0]",0,43,43,43,1,1,0,,,1,FALSE,,,,,,,,,,,,,,,,,,,,,,,,,,,,,,,
,612ba4de7e2b127155f4bb03,627c6f49ad787dc47253654d,2022-05-11_21h44.29.375,classification_task,2021.2.3,Win32,60.00960154,627c6715c52fd12f31907bd0,,,,,,,,,,,,,,,,,,,,,,,a,1,1.7925,"[""0.566"",""0.456"",""0.672"",""0.879""]","[0,1,1,1]",0,44,44,44,1,0,1,,,1,FALSE,,,,,,,,,,,,,,,,,,,,,,,,,,,,,,,
,612ba4de7e2b127155f4bb03,627c6f49ad787dc47253654d,2022-05-11_21h44.29.375,classification_task,2021.2.3,Win32,60.00960154,627c6715c52fd12f31907bd0,,,,,,,,,,,,,,,,,,,,,,,l,1,0.9341,"[""0.126"",""0.190"",""0.587"",""0.717""]","[1,1,0,1]",0,45,45,45,1,1,0,,,1,FALSE,,,,,,,,,,,,,,,,,,,,,,,,,,,,,,,
,612ba4de7e2b127155f4bb03,627c6f49ad787dc47253654d,2022-05-11_21h44.29.375,classification_task,2021.2.3,Win32,60.00960154,627c6715c52fd12f31907bd0,,,,,,,,,,,,,,,,,,,,,,,a,1,1.9122,"[""0.569"",""0.421"",""0.797"",""0.957""]","[0,1,1,1]",0,46,46,46,1,0,0,,,1,FALSE,,,,,,,,,,,,,,,,,,,,,,,,,,,,,,,
,612ba4de7e2b127155f4bb03,627c6f49ad787dc47253654d,2022-05-11_21h44.29.375,classification_task,2021.2.3,Win32,60.00960154,627c6715c52fd12f31907bd0,,,,,,,,,,,,,,,,,,,,,,,l,0,1.5852,"[""0.234"",""0.421"",""0.797"",""0.591""]","[1,1,1,0]",0,47,47,47,1,0,0,,,1,FALSE,,,,,,,,,,,,,,,,,,,,,,,,,,,,,,,
,612ba4de7e2b127155f4bb03,627c6f49ad787dc47253654d,2022-05-11_21h44.29.375,classification_task,2021.2.3,Win32,60.00960154,627c6715c52fd12f31907bd0,,,,,,,,,,,,,,,,,,,,,,,a,1,1.2848,"[""0.234"",""0.421"",""0.760"",""0.957""]","[1,1,0,1]",0,48,48,48,1,0,0,,,1,FALSE,,,,,,,,,,,,,,,,,,,,,,,,,,,,,,,
,612ba4de7e2b127155f4bb03,627c6f49ad787dc47253654d,2022-05-11_21h44.29.375,classification_task,2021.2.3,Win32,60.00960154,627c6715c52fd12f31907bd0,,,,,,,,,,,,,,,,,,,,,,,l,0,1.5006,"[""0.288"",""0.760"",""0.672"",""0.879""]","[1,0,1,1]",0,49,49,49,1,0,1,,,1,FALSE,,,,,,,,,,,,,,,,,,,,,,,,,,,,,,,
,612ba4de7e2b127155f4bb03,627c6f49ad787dc47253654d,2022-05-11_21h44.29.375,classification_task,2021.2.3,Win32,60.00960154,627c6715c52fd12f31907bd0,,,,,,,,,,,,,,,,,,,,,,,a,1,2.0512,"[""0.288"",""0.456"",""0.672"",""0.339""]","[1,1,1,0]",0,50,50,50,1,0,1,,,1,FALSE,,,,,,,,,,,,,,,,,,,,,,,,,,,,,,,
,612ba4de7e2b127155f4bb03,627c6f49ad787dc47253654d,2022-05-11_21h44.29.375,classification_task,2021.2.3,Win32,60.00960154,627c6715c52fd12f31907bd0,,,,,,,,,,,,,,,,,,,,,,,l,1,1.909,"[""0.126"",""0.760"",""0.632"",""0.717""]","[1,0,1,1]",0,51,51,51,1,1,0,,,1,FALSE,,,,,,,,,,,,,,,,,,,,,,,,,,,,,,,
,612ba4de7e2b127155f4bb03,627c6f49ad787dc47253654d,2022-05-11_21h44.29.375,classification_task,2021.2.3,Win32,60.00960154,627c6715c52fd12f31907bd0,,,,,,,,,,,,,,,,,,,,,,,a,0,2.6814,"[""0.333"",""0.190"",""0.632"",""0.717""]","[0,1,1,1]",0,52,52,52,1,1,0,,,1,FALSE,,,,,,,,,,,,,,,,,,,,,,,,,,,,,,,
,612ba4de7e2b127155f4bb03,627c6f49ad787dc47253654d,2022-05-11_21h44.29.375,classification_task,2021.2.3,Win32,60.00960154,627c6715c52fd12f31907bd0,,,,,,,,,,,,,,,,,,,,,,,a,1,1.3429,"[""0.587"",""0.421"",""0.797"",""0.957""]","[0,1,1,1]",0,53,53,53,1,0,0,,,1,FALSE,,,,,,,,,,,,,,,,,,,,,,,,,,,,,,,
,612ba4de7e2b127155f4bb03,627c6f49ad787dc47253654d,2022-05-11_21h44.29.375,classification_task,2021.2.3,Win32,60.00960154,627c6715c52fd12f31907bd0,,,,,,,,,,,,,,,,,,,,,,,l,1,2.1653,"[""0.048"",""0.373"",""0.517"",""0.916""]","[1,1,1,0]",0,54,54,54,1,1,1,,,1,FALSE,,,,,,,,,,,,,,,,,,,,,,,,,,,,,,,
,612ba4de7e2b127155f4bb03,627c6f49ad787dc47253654d,2022-05-11_21h44.29.375,classification_task,2021.2.3,Win32,60.00960154,627c6715c52fd12f31907bd0,,,,,,,,,,,,,,,,,,,,,,,a,0,2.0793,"[""0.126"",""0.190"",""0.632"",""0.560""]","[1,1,1,0]",0,55,55,55,1,1,0,,,1,FALSE,,,,,,,,,,,,,,,,,,,,,,,,,,,,,,,
,612ba4de7e2b127155f4bb03,627c6f49ad787dc47253654d,2022-05-11_21h44.29.375,classification_task,2021.2.3,Win32,60.00960154,627c6715c52fd12f31907bd0,,,,,,,,,,,,,,,,,,,,,,,l,1,1.9347,"[""0.569"",""0.373"",""0.517"",""0.838""]","[0,1,1,1]",0,56,56,56,1,1,1,,,1,FALSE,,,,,,,,,,,,,,,,,,,,,,,,,,,,,,,
,612ba4de7e2b127155f4bb03,627c6f49ad787dc47253654d,2022-05-11_21h44.29.375,classification_task,2021.2.3,Win32,60.00960154,627c6715c52fd12f31907bd0,,,,,,,,,,,,,,,,,,,,,,,l,1,1.6172,"[""0.048"",""0.916"",""0.517"",""0.838""]","[1,0,1,1]",0,57,57,57,1,1,1,,,1,FALSE,,,,,,,,,,,,,,,,,,,,,,,,,,,,,,,
,612ba4de7e2b127155f4bb03,627c6f49ad787dc47253654d,2022-05-11_21h44.29.375,classification_task,2021.2.3,Win32,60.00960154,627c6715c52fd12f31907bd0,,,,,,,,,,,,,,,,,,,,,,,a,1,1.2008,"[""0.234"",""0.597"",""0.797"",""0.957""]","[1,0,1,1]",0,58,58,58,1,0,0,,,1,FALSE,,,,,,,,,,,,,,,,,,,,,,,,,,,,,,,
,612ba4de7e2b127155f4bb03,627c6f49ad787dc47253654d,2022-05-11_21h44.29.375,classification_task,2021.2.3,Win32,60.00960154,627c6715c52fd12f31907bd0,,,,,,,,,,,,,,,,,,,,,,,a,1,1.651,"[""0.591"",""0.456"",""0.672"",""0.879""]","[0,1,1,1]",0,59,59,59,1,0,1,,,1,FALSE,,,,,,,,,,,,,,,,,,,,,,,,,,,,,,,
,612ba4de7e2b127155f4bb03,627c6f49ad787dc47253654d,2022-05-11_21h44.29.375,classification_task,2021.2.3,Win32,60.00960154,627c6715c52fd12f31907bd0,,,,,,,,,,,,,,,,,,,,,,,l,1,1.151,"[""0.126"",""0.190"",""0.322"",""0.717""]","[1,1,0,1]",0,60,60,60,1,1,0,,,1,FALSE,,,,,,,,,,,,,,,,,,,,,,,,,,,,,,,
,612ba4de7e2b127155f4bb03,627c6f49ad787dc47253654d,2022-05-11_21h44.29.375,classification_task,2021.2.3,Win32,60.00960154,627c6715c52fd12f31907bd0,,,,,,,,,,,,,,,,,,,,,,,a,0,1.6528,"[""0.048"",""0.373"",""0.560"",""0.838""]","[1,1,0,1]",0,61,61,61,1,1,1,,,1,FALSE,,,,,,,,,,,,,,,,,,,,,,,,,,,,,,,
,612ba4de7e2b127155f4bb03,627c6f49ad787dc47253654d,2022-05-11_21h44.29.375,classification_task,2021.2.3,Win32,60.00960154,627c6715c52fd12f31907bd0,,,,,,,,,,,,,,,,,,,,,,,a,1,2.0823,"[""0.288"",""0.456"",""0.562"",""0.879""]","[1,1,0,1]",0,62,62,62,1,0,1,,,1,FALSE,,,,,,,,,,,,,,,,,,,,,,,,,,,,,,,
,612ba4de7e2b127155f4bb03,627c6f49ad787dc47253654d,2022-05-11_21h44.29.375,classification_task,2021.2.3,Win32,60.00960154,627c6715c52fd12f31907bd0,,,,,,,,,,,,,,,,,,,,,,,a,1,2.275,"[""0.234"",""0.421"",""0.797"",""0.916""]","[1,1,1,0]",0,63,63,63,1,0,0,,,1,FALSE,,,,,,,,,,,,,,,,,,,,,,,,,,,,,,,
,612ba4de7e2b127155f4bb03,627c6f49ad787dc47253654d,2022-05-11_21h44.29.375,classification_task,2021.2.3,Win32,60.00960154,627c6715c52fd12f31907bd0,,,,,,,,,,,,,,,,,,,,,,,,,,,,,,,,,,,,,,,0, ,,0,4.216148112,652.5424,0,0,0,0,1,2,1,,,,,,,,,,,,,,,,,,
,612ba4de7e2b127155f4bb03,627c6f49ad787dc47253654d,2022-05-11_21h44.29.375,classification_task,2021.2.3,Win32,60.00960154,627c6715c52fd12f31907bd0,,,,,,,,,,,,,,,,,,,,,,,,,,,,,,,,,,,,,,,1,  ,,0,5.612385619,664.619,0,0,0,0,1,2,1,,,,,,,,,,,,,,,,,,
,612ba4de7e2b127155f4bb03,627c6f49ad787dc47253654d,2022-05-11_21h44.29.375,classification_task,2021.2.3,Win32,60.00960154,627c6715c52fd12f31907bd0,,,,,,,,,,,,,,,,,,,,,,,,,,,,,,,,,,,,,,,2,  ,,0,5.612385619,674.8776,0,0,0,0,1,2,1,,,,,,,,,,,,,,,,,,
,612ba4de7e2b127155f4bb03,627c6f49ad787dc47253654d,2022-05-11_21h44.29.375,classification_task,2021.2.3,Win32,60.00960154,627c6715c52fd12f31907bd0,,,,,,,,,,,,,,,,,,,,,,,,,,,,,,,,,,,,,,,,,,,,,0,0,0,0,1,,1,,,,,,,,,,,,,,,,,,
,612ba4de7e2b127155f4bb03,627c6f49ad787dc47253654d,2022-05-11_21h44.29.375,classification_task,2021.2.3,Win32,60.00960154,627c6715c52fd12f31907bd0,,,,,,,,,,,,,,,,,,,,,space,36.212,a,1,4.6347,"[""0.234"",""0.569"",""0.797"",""0.957""]","[1,0,1,1]",0,0,0,0,1,0,0,,,1,FALSE,,,,,,,,,,,,,,,,,,,,,,,,,,,,,,,
,612ba4de7e2b127155f4bb03,627c6f49ad787dc47253654d,2022-05-11_21h44.29.375,classification_task,2021.2.3,Win32,60.00960154,627c6715c52fd12f31907bd0,,,,,,,,,,,,,,,,,,,,,,,l,1,1.0415,"[""0.126"",""0.190"",""0.753"",""0.717""]","[1,1,0,1]",0,1,1,1,1,1,0,,,1,FALSE,,,,,,,,,,,,,,,,,,,,,,,,,,,,,,,
,612ba4de7e2b127155f4bb03,627c6f49ad787dc47253654d,2022-05-11_21h44.29.375,classification_task,2021.2.3,Win32,60.00960154,627c6715c52fd12f31907bd0,,,,,,,,,,,,,,,,,,,,,,,a,1,1.5999,"[""0.333"",""0.421"",""0.797"",""0.957""]","[0,1,1,1]",0,2,2,2,1,0,0,,,1,FALSE,,,,,,,,,,,,,,,,,,,,,,,,,,,,,,,
,612ba4de7e2b127155f4bb03,627c6f49ad787dc47253654d,2022-05-11_21h44.29.375,classification_task,2021.2.3,Win32,60.00960154,627c6715c52fd12f31907bd0,,,,,,,,,,,,,,,,,,,,,,,a,1,3.2896,"[""0.288"",""0.456"",""0.916"",""0.879""]","[1,1,0,1]",0,3,3,3,1,0,1,,,1,FALSE,,,,,,,,,,,,,,,,,,,,,,,,,,,,,,,
,612ba4de7e2b127155f4bb03,627c6f49ad787dc47253654d,2022-05-11_21h44.29.375,classification_task,2021.2.3,Win32,60.00960154,627c6715c52fd12f31907bd0,,,,,,,,,,,,,,,,,,,,,,,l,0,1.9228,"[""0.288"",""0.456"",""0.672"",""0.916""]","[1,1,1,0]",0,4,4,4,1,0,1,,,1,FALSE,,,,,,,,,,,,,,,,,,,,,,,,,,,,,,,
,612ba4de7e2b127155f4bb03,627c6f49ad787dc47253654d,2022-05-11_21h44.29.375,classification_task,2021.2.3,Win32,60.00960154,627c6715c52fd12f31907bd0,,,,,,,,,,,,,,,,,,,,,,,a,1,1.4994,"[""0.288"",""0.562"",""0.672"",""0.879""]","[1,0,1,1]",0,5,5,5,1,0,1,,,1,FALSE,,,,,,,,,,,,,,,,,,,,,,,,,,,,,,,
,612ba4de7e2b127155f4bb03,627c6f49ad787dc47253654d,2022-05-11_21h44.29.375,classification_task,2021.2.3,Win32,60.00960154,627c6715c52fd12f31907bd0,,,,,,,,,,,,,,,,,,,,,,,a,1,1.5071,"[""0.587"",""0.456"",""0.672"",""0.879""]","[0,1,1,1]",0,6,6,6,1,0,1,,,1,FALSE,,,,,,,,,,,,,,,,,,,,,,,,,,,,,,,
,612ba4de7e2b127155f4bb03,627c6f49ad787dc47253654d,2022-05-11_21h44.29.375,classification_task,2021.2.3,Win32,60.00960154,627c6715c52fd12f31907bd0,,,,,,,,,,,,,,,,,,,,,,,l,1,0.7997,"[""0.048"",""0.373"",""0.762"",""0.838""]","[1,1,0,1]",0,7,7,7,1,1,1,,,1,FALSE,,,,,,,,,,,,,,,,,,,,,,,,,,,,,,,
,612ba4de7e2b127155f4bb03,627c6f49ad787dc47253654d,2022-05-11_21h44.29.375,classification_task,2021.2.3,Win32,60.00960154,627c6715c52fd12f31907bd0,,,,,,,,,,,,,,,,,,,,,,,l,1,2.4651,"[""0.126"",""0.190"",""0.632"",""0.339""]","[1,1,1,0]",0,8,8,8,1,1,0,,,1,FALSE,,,,,,,,,,,,,,,,,,,,,,,,,,,,,,,
,612ba4de7e2b127155f4bb03,627c6f49ad787dc47253654d,2022-05-11_21h44.29.375,classification_task,2021.2.3,Win32,60.00960154,627c6715c52fd12f31907bd0,,,,,,,,,,,,,,,,,,,,,,,a,0,0.8408,"[""0.916"",""0.373"",""0.517"",""0.838""]","[0,1,1,1]",0,9,9,9,1,1,1,,,1,FALSE,,,,,,,,,,,,,,,,,,,,,,,,,,,,,,,
,612ba4de7e2b127155f4bb03,627c6f49ad787dc47253654d,2022-05-11_21h44.29.375,classification_task,2021.2.3,Win32,60.00960154,627c6715c52fd12f31907bd0,,,,,,,,,,,,,,,,,,,,,,,l,1,0.9848,"[""0.753"",""0.190"",""0.632"",""0.717""]","[0,1,1,1]",0,10,10,10,1,1,0,,,1,FALSE,,,,,,,,,,,,,,,,,,,,,,,,,,,,,,,
,612ba4de7e2b127155f4bb03,627c6f49ad787dc47253654d,2022-05-11_21h44.29.375,classification_task,2021.2.3,Win32,60.00960154,627c6715c52fd12f31907bd0,,,,,,,,,,,,,,,,,,,,,,,l,1,2.1171,"[""0.048"",""0.562"",""0.517"",""0.838""]","[1,0,1,1]",0,11,11,11,1,1,1,,,1,FALSE,,,,,,,,,,,,,,,,,,,,,,,,,,,,,,,
,612ba4de7e2b127155f4bb03,627c6f49ad787dc47253654d,2022-05-11_21h44.29.375,classification_task,2021.2.3,Win32,60.00960154,627c6715c52fd12f31907bd0,,,,,,,,,,,,,,,,,,,,,,,a,1,0.675,"[""0.234"",""0.421"",""0.760"",""0.957""]","[1,1,0,1]",0,12,12,12,1,0,0,,,1,FALSE,,,,,,,,,,,,,,,,,,,,,,,,,,,,,,,
,612ba4de7e2b127155f4bb03,627c6f49ad787dc47253654d,2022-05-11_21h44.29.375,classification_task,2021.2.3,Win32,60.00960154,627c6715c52fd12f31907bd0,,,,,,,,,,,,,,,,,,,,,,,l,1,1.499,"[""0.126"",""0.322"",""0.632"",""0.717""]","[1,0,1,1]",0,13,13,13,1,1,0,,,1,FALSE,,,,,,,,,,,,,,,,,,,,,,,,,,,,,,,
,612ba4de7e2b127155f4bb03,627c6f49ad787dc47253654d,2022-05-11_21h44.29.375,classification_task,2021.2.3,Win32,60.00960154,627c6715c52fd12f31907bd0,,,,,,,,,,,,,,,,,,,,,,,a,1,0.8814,"[""0.234"",""0.421"",""0.797"",""0.760""]","[1,1,1,0]",0,14,14,14,1,0,0,,,1,FALSE,,,,,,,,,,,,,,,,,,,,,,,,,,,,,,,
,612ba4de7e2b127155f4bb03,627c6f49ad787dc47253654d,2022-05-11_21h44.29.375,classification_task,2021.2.3,Win32,60.00960154,627c6715c52fd12f31907bd0,,,,,,,,,,,,,,,,,,,,,,,l,1,0.7832,"[""0.048"",""0.373"",""0.517"",""0.562""]","[1,1,1,0]",0,15,15,15,1,1,1,,,1,FALSE,,,,,,,,,,,,,,,,,,,,,,,,,,,,,,,
,612ba4de7e2b127155f4bb03,627c6f49ad787dc47253654d,2022-05-11_21h44.29.375,classification_task,2021.2.3,Win32,60.00960154,627c6715c52fd12f31907bd0,,,,,,,,,,,,,,,,,,,,,,,l,1,1.1765,"[""0.048"",""0.373"",""0.753"",""0.838""]","[1,1,0,1]",0,16,16,16,1,1,1,,,1,FALSE,,,,,,,,,,,,,,,,,,,,,,,,,,,,,,,
,612ba4de7e2b127155f4bb03,627c6f49ad787dc47253654d,2022-05-11_21h44.29.375,classification_task,2021.2.3,Win32,60.00960154,627c6715c52fd12f31907bd0,,,,,,,,,,,,,,,,,,,,,,,a,1,0.6343,"[""0.560"",""0.421"",""0.797"",""0.957""]","[0,1,1,1]",0,17,17,17,1,0,0,,,1,FALSE,,,,,,,,,,,,,,,,,,,,,,,,,,,,,,,
,612ba4de7e2b127155f4bb03,627c6f49ad787dc47253654d,2022-05-11_21h44.29.375,classification_task,2021.2.3,Win32,60.00960154,627c6715c52fd12f31907bd0,,,,,,,,,,,,,,,,,,,,,,,a,1,1.4334,"[""0.234"",""0.762"",""0.797"",""0.957""]","[1,0,1,1]",0,18,18,18,1,0,0,,,1,FALSE,,,,,,,,,,,,,,,,,,,,,,,,,,,,,,,
,612ba4de7e2b127155f4bb03,627c6f49ad787dc47253654d,2022-05-11_21h44.29.375,classification_task,2021.2.3,Win32,60.00960154,627c6715c52fd12f31907bd0,,,,,,,,,,,,,,,,,,,,,,,a,1,0.8182,"[""0.234"",""0.421"",""0.333"",""0.957""]","[1,1,0,1]",0,19,19,19,1,0,0,,,1,FALSE,,,,,,,,,,,,,,,,,,,,,,,,,,,,,,,
,612ba4de7e2b127155f4bb03,627c6f49ad787dc47253654d,2022-05-11_21h44.29.375,classification_task,2021.2.3,Win32,60.00960154,627c6715c52fd12f31907bd0,,,,,,,,,,,,,,,,,,,,,,,a,0,1.4346,"[""0.560"",""0.373"",""0.517"",""0.838""]","[0,1,1,1]",0,20,20,20,1,1,1,,,1,FALSE,,,,,,,,,,,,,,,,,,,,,,,,,,,,,,,
,612ba4de7e2b127155f4bb03,627c6f49ad787dc47253654d,2022-05-11_21h44.29.375,classification_task,2021.2.3,Win32,60.00960154,627c6715c52fd12f31907bd0,,,,,,,,,,,,,,,,,,,,,,,l,1,1.0678,"[""0.048"",""0.373"",""0.517"",""0.587""]","[1,1,1,0]",0,21,21,21,1,1,1,,,1,FALSE,,,,,,,,,,,,,,,,,,,,,,,,,,,,,,,
,612ba4de7e2b127155f4bb03,627c6f49ad787dc47253654d,2022-05-11_21h44.29.375,classification_task,2021.2.3,Win32,60.00960154,627c6715c52fd12f31907bd0,,,,,,,,,,,,,,,,,,,,,,,l,1,1.3014,"[""0.126"",""0.333"",""0.632"",""0.717""]","[1,0,1,1]",0,22,22,22,1,1,0,,,1,FALSE,,,,,,,,,,,,,,,,,,,,,,,,,,,,,,,
,612ba4de7e2b127155f4bb03,627c6f49ad787dc47253654d,2022-05-11_21h44.29.375,classification_task,2021.2.3,Win32,60.00960154,627c6715c52fd12f31907bd0,,,,,,,,,,,,,,,,,,,,,,,a,1,1.8343,"[""0.288"",""0.456"",""0.085"",""0.879""]","[1,1,0,1]",0,23,23,23,1,0,1,,,1,FALSE,,,,,,,,,,,,,,,,,,,,,,,,,,,,,,,
,612ba4de7e2b127155f4bb03,627c6f49ad787dc47253654d,2022-05-11_21h44.29.375,classification_task,2021.2.3,Win32,60.00960154,627c6715c52fd12f31907bd0,,,,,,,,,,,,,,,,,,,,,,,a,1,3.2671,"[""0.234"",""0.421"",""0.797"",""0.762""]","[1,1,1,0]",0,24,24,24,1,0,0,,,1,FALSE,,,,,,,,,,,,,,,,,,,,,,,,,,,,,,,
,612ba4de7e2b127155f4bb03,627c6f49ad787dc47253654d,2022-05-11_21h44.29.375,classification_task,2021.2.3,Win32,60.00960154,627c6715c52fd12f31907bd0,,,,,,,,,,,,,,,,,,,,,,,a,1,1.4841,"[""0.288"",""0.560"",""0.672"",""0.879""]","[1,0,1,1]",0,25,25,25,1,0,1,,,1,FALSE,,,,,,,,,,,,,,,,,,,,,,,,,,,,,,,
,612ba4de7e2b127155f4bb03,627c6f49ad787dc47253654d,2022-05-11_21h44.29.375,classification_task,2021.2.3,Win32,60.00960154,627c6715c52fd12f31907bd0,,,,,,,,,,,,,,,,,,,,,,,l,0,3.2667,"[""0.288"",""0.456"",""0.672"",""0.339""]","[1,1,1,0]",0,26,26,26,1,0,1,,,1,FALSE,,,,,,,,,,,,,,,,,,,,,,,,,,,,,,,
,612ba4de7e2b127155f4bb03,627c6f49ad787dc47253654d,2022-05-11_21h44.29.375,classification_task,2021.2.3,Win32,60.00960154,627c6715c52fd12f31907bd0,,,,,,,,,,,,,,,,,,,,,,,a,0,1.5415,"[""0.591"",""0.190"",""0.632"",""0.717""]","[0,1,1,1]",0,27,27,27,1,1,0,,,1,FALSE,,,,,,,,,,,,,,,,,,,,,,,,,,,,,,,
,612ba4de7e2b127155f4bb03,627c6f49ad787dc47253654d,2022-05-11_21h44.29.375,classification_task,2021.2.3,Win32,60.00960154,627c6715c52fd12f31907bd0,,,,,,,,,,,,,,,,,,,,,,,a,0,2.0071,"[""0.048"",""0.562"",""0.517"",""0.838""]","[1,0,1,1]",0,28,28,28,1,1,1,,,1,FALSE,,,,,,,,,,,,,,,,,,,,,,,,,,,,,,,
,612ba4de7e2b127155f4bb03,627c6f49ad787dc47253654d,2022-05-11_21h44.29.375,classification_task,2021.2.3,Win32,60.00960154,627c6715c52fd12f31907bd0,,,,,,,,,,,,,,,,,,,,,,,a,1,0.9992,"[""0.560"",""0.456"",""0.672"",""0.879""]","[0,1,1,1]",0,29,29,29,1,0,1,,,1,FALSE,,,,,,,,,,,,,,,,,,,,,,,,,,,,,,,
,612ba4de7e2b127155f4bb03,627c6f49ad787dc47253654d,2022-05-11_21h44.29.375,classification_task,2021.2.3,Win32,60.00960154,627c6715c52fd12f31907bd0,,,,,,,,,,,,,,,,,,,,,,,a,0,1.1499,"[""0.126"",""0.190"",""0.632"",""0.322""]","[1,1,1,0]",0,30,30,30,1,1,0,,,1,FALSE,,,,,,,,,,,,,,,,,,,,,,,,,,,,,,,
,612ba4de7e2b127155f4bb03,627c6f49ad787dc47253654d,2022-05-11_21h44.29.375,classification_task,2021.2.3,Win32,60.00960154,627c6715c52fd12f31907bd0,,,,,,,,,,,,,,,,,,,,,,,l,1,2.8159,"[""0.126"",""0.190"",""0.762"",""0.717""]","[1,1,0,1]",0,31,31,31,1,1,0,,,1,FALSE,,,,,,,,,,,,,,,,,,,,,,,,,,,,,,,
,612ba4de7e2b127155f4bb03,627c6f49ad787dc47253654d,2022-05-11_21h44.29.375,classification_task,2021.2.3,Win32,60.00960154,627c6715c52fd12f31907bd0,,,,,,,,,,,,,,,,,,,,,,,a,1,0.8406,"[""0.234"",""0.587"",""0.797"",""0.957""]","[1,0,1,1]",0,32,32,32,1,0,0,,,1,FALSE,,,,,,,,,,,,,,,,,,,,,,,,,,,,,,,
,612ba4de7e2b127155f4bb03,627c6f49ad787dc47253654d,2022-05-11_21h44.29.375,classification_task,2021.2.3,Win32,60.00960154,627c6715c52fd12f31907bd0,,,,,,,,,,,,,,,,,,,,,,,a,0,2.0995,"[""0.048"",""0.373"",""0.517"",""0.339""]","[1,1,1,0]",0,33,33,33,1,1,1,,,1,FALSE,,,,,,,,,,,,,,,,,,,,,,,,,,,,,,,
,612ba4de7e2b127155f4bb03,627c6f49ad787dc47253654d,2022-05-11_21h44.29.375,classification_task,2021.2.3,Win32,60.00960154,627c6715c52fd12f31907bd0,,,,,,,,,,,,,,,,,,,,,,,a,1,2.0898,"[""0.288"",""0.456"",""0.560"",""0.879""]","[1,1,0,1]",0,34,34,34,1,0,1,,,1,FALSE,,,,,,,,,,,,,,,,,,,,,,,,,,,,,,,
,612ba4de7e2b127155f4bb03,627c6f49ad787dc47253654d,2022-05-11_21h44.29.375,classification_task,2021.2.3,Win32,60.00960154,627c6715c52fd12f31907bd0,,,,,,,,,,,,,,,,,,,,,,,a,1,0.7171,"[""0.569"",""0.421"",""0.797"",""0.957""]","[0,1,1,1]",0,35,35,35,1,0,0,,,1,FALSE,,,,,,,,,,,,,,,,,,,,,,,,,,,,,,,
,612ba4de7e2b127155f4bb03,627c6f49ad787dc47253654d,2022-05-11_21h44.29.375,classification_task,2021.2.3,Win32,60.00960154,627c6715c52fd12f31907bd0,,,,,,,,,,,,,,,,,,,,,,,l,0,2.8767,"[""0.288"",""0.456"",""0.672"",""0.591""]","[1,1,1,0]",0,36,36,36,1,0,1,,,1,FALSE,,,,,,,,,,,,,,,,,,,,,,,,,,,,,,,
,612ba4de7e2b127155f4bb03,627c6f49ad787dc47253654d,2022-05-11_21h44.29.375,classification_task,2021.2.3,Win32,60.00960154,627c6715c52fd12f31907bd0,,,,,,,,,,,,,,,,,,,,,,,l,1,1.4744,"[""0.048"",""0.753"",""0.517"",""0.838""]","[1,0,1,1]",0,37,37,37,1,1,1,,,1,FALSE,,,,,,,,,,,,,,,,,,,,,,,,,,,,,,,
,612ba4de7e2b127155f4bb03,627c6f49ad787dc47253654d,2022-05-11_21h44.29.375,classification_task,2021.2.3,Win32,60.00960154,627c6715c52fd12f31907bd0,,,,,,,,,,,,,,,,,,,,,,,a,1,0.6491,"[""0.234"",""0.421"",""0.552"",""0.957""]","[1,1,0,1]",0,38,38,38,1,0,0,,,1,FALSE,,,,,,,,,,,,,,,,,,,,,,,,,,,,,,,
,612ba4de7e2b127155f4bb03,627c6f49ad787dc47253654d,2022-05-11_21h44.29.375,classification_task,2021.2.3,Win32,60.00960154,627c6715c52fd12f31907bd0,,,,,,,,,,,,,,,,,,,,,,,l,0,1.5322,"[""0.234"",""0.421"",""0.797"",""0.762""]","[1,1,1,0]",0,39,39,39,1,0,0,,,1,FALSE,,,,,,,,,,,,,,,,,,,,,,,,,,,,,,,
,612ba4de7e2b127155f4bb03,627c6f49ad787dc47253654d,2022-05-11_21h44.29.375,classification_task,2021.2.3,Win32,60.00960154,627c6715c52fd12f31907bd0,,,,,,,,,,,,,,,,,,,,,,,l,1,0.7835,"[""0.126"",""0.190"",""0.760"",""0.717""]","[1,1,0,1]",0,40,40,40,1,1,0,,,1,FALSE,,,,,,,,,,,,,,,,,,,,,,,,,,,,,,,
,612ba4de7e2b127155f4bb03,627c6f49ad787dc47253654d,2022-05-11_21h44.29.375,classification_task,2021.2.3,Win32,60.00960154,627c6715c52fd12f31907bd0,,,,,,,,,,,,,,,,,,,,,,,a,1,1.2678,"[""0.085"",""0.456"",""0.672"",""0.879""]","[0,1,1,1]",0,41,41,41,1,0,1,,,1,FALSE,,,,,,,,,,,,,,,,,,,,,,,,,,,,,,,
,612ba4de7e2b127155f4bb03,627c6f49ad787dc47253654d,2022-05-11_21h44.29.375,classification_task,2021.2.3,Win32,60.00960154,627c6715c52fd12f31907bd0,,,,,,,,,,,,,,,,,,,,,,,a,0,2.2328,"[""0.762"",""0.373"",""0.517"",""0.838""]","[0,1,1,1]",0,42,42,42,1,1,1,,,1,FALSE,,,,,,,,,,,,,,,,,,,,,,,,,,,,,,,
,612ba4de7e2b127155f4bb03,627c6f49ad787dc47253654d,2022-05-11_21h44.29.375,classification_task,2021.2.3,Win32,60.00960154,627c6715c52fd12f31907bd0,,,,,,,,,,,,,,,,,,,,,,,l,1,2.0191,"[""0.587"",""0.190"",""0.632"",""0.717""]","[0,1,1,1]",0,43,43,43,1,1,0,,,1,FALSE,,,,,,,,,,,,,,,,,,,,,,,,,,,,,,,
,612ba4de7e2b127155f4bb03,627c6f49ad787dc47253654d,2022-05-11_21h44.29.375,classification_task,2021.2.3,Win32,60.00960154,627c6715c52fd12f31907bd0,,,,,,,,,,,,,,,,,,,,,,,l,1,1.7671,"[""0.048"",""0.373"",""0.591"",""0.838""]","[1,1,0,1]",0,44,44,44,1,1,1,,,1,FALSE,,,,,,,,,,,,,,,,,,,,,,,,,,,,,,,
,612ba4de7e2b127155f4bb03,627c6f49ad787dc47253654d,2022-05-11_21h44.29.375,classification_task,2021.2.3,Win32,60.00960154,627c6715c52fd12f31907bd0,,,,,,,,,,,,,,,,,,,,,,,l,1,0.8403,"[""0.126"",""0.762"",""0.632"",""0.717""]","[1,0,1,1]",0,45,45,45,1,1,0,,,1,FALSE,,,,,,,,,,,,,,,,,,,,,,,,,,,,,,,
,612ba4de7e2b127155f4bb03,627c6f49ad787dc47253654d,2022-05-11_21h44.29.375,classification_task,2021.2.3,Win32,60.00960154,627c6715c52fd12f31907bd0,,,,,,,,,,,,,,,,,,,,,,,a,1,0.7928,"[""0.288"",""0.569"",""0.672"",""0.879""]","[1,0,1,1]",0,46,46,46,1,0,1,,,1,FALSE,,,,,,,,,,,,,,,,,,,,,,,,,,,,,,,
,612ba4de7e2b127155f4bb03,627c6f49ad787dc47253654d,2022-05-11_21h44.29.375,classification_task,2021.2.3,Win32,60.00960154,627c6715c52fd12f31907bd0,,,,,,,,,,,,,,,,,,,,,,,l,1,0.7016,"[""0.126"",""0.190"",""0.632"",""0.560""]","[1,1,1,0]",0,47,47,47,1,1,0,,,1,FALSE,,,,,,,,,,,,,,,,,,,,,,,,,,,,,,,
,612ba4de7e2b127155f4bb03,627c6f49ad787dc47253654d,2022-05-11_21h44.29.375,classification_task,2021.2.3,Win32,60.00960154,627c6715c52fd12f31907bd0,,,,,,,,,,,,,,,,,,,,,,,a,1,0.6345,"[""0.234"",""0.591"",""0.797"",""0.957""]","[1,0,1,1]",0,48,48,48,1,0,0,,,1,FALSE,,,,,,,,,,,,,,,,,,,,,,,,,,,,,,,
,612ba4de7e2b127155f4bb03,627c6f49ad787dc47253654d,2022-05-11_21h44.29.375,classification_task,2021.2.3,Win32,60.00960154,627c6715c52fd12f31907bd0,,,,,,,,,,,,,,,,,,,,,,,a,0,1.1034,"[""0.597"",""0.373"",""0.517"",""0.838""]","[0,1,1,1]",0,49,49,49,1,1,1,,,1,FALSE,,,,,,,,,,,,,,,,,,,,,,,,,,,,,,,
,612ba4de7e2b127155f4bb03,627c6f49ad787dc47253654d,2022-05-11_21h44.29.375,classification_task,2021.2.3,Win32,60.00960154,627c6715c52fd12f31907bd0,,,,,,,,,,,,,,,,,,,,,,,l,1,0.8443,"[""0.048"",""0.373"",""0.517"",""0.085""]","[1,1,1,0]",0,50,50,50,1,1,1,,,1,FALSE,,,,,,,,,,,,,,,,,,,,,,,,,,,,,,,
,612ba4de7e2b127155f4bb03,627c6f49ad787dc47253654d,2022-05-11_21h44.29.375,classification_task,2021.2.3,Win32,60.00960154,627c6715c52fd12f31907bd0,,,,,,,,,,,,,,,,,,,,,,,a,1,2.0173,"[""0.234"",""0.421"",""0.797"",""0.339""]","[1,1,1,0]",0,51,51,51,1,0,0,,,1,FALSE,,,,,,,,,,,,,,,,,,,,,,,,,,,,,,,
,612ba4de7e2b127155f4bb03,627c6f49ad787dc47253654d,2022-05-11_21h44.29.375,classification_task,2021.2.3,Win32,60.00960154,627c6715c52fd12f31907bd0,,,,,,,,,,,,,,,,,,,,,,,a,1,0.6563,"[""0.288"",""0.456"",""0.916"",""0.879""]","[1,1,0,1]",0,52,52,52,1,0,1,,,1,FALSE,,,,,,,,,,,,,,,,,,,,,,,,,,,,,,,
,612ba4de7e2b127155f4bb03,627c6f49ad787dc47253654d,2022-05-11_21h44.29.375,classification_task,2021.2.3,Win32,60.00960154,627c6715c52fd12f31907bd0,,,,,,,,,,,,,,,,,,,,,,,l,1,0.5989,"[""0.322"",""0.190"",""0.632"",""0.717""]","[0,1,1,1]",0,53,53,53,1,1,0,,,1,FALSE,,,,,,,,,,,,,,,,,,,,,,,,,,,,,,,
,612ba4de7e2b127155f4bb03,627c6f49ad787dc47253654d,2022-05-11_21h44.29.375,classification_task,2021.2.3,Win32,60.00960154,627c6715c52fd12f31907bd0,,,,,,,,,,,,,,,,,,,,,,,a,1,0.5949,"[""0.333"",""0.421"",""0.797"",""0.957""]","[0,1,1,1]",0,54,54,54,1,0,0,,,1,FALSE,,,,,,,,,,,,,,,,,,,,,,,,,,,,,,,
,612ba4de7e2b127155f4bb03,627c6f49ad787dc47253654d,2022-05-11_21h44.29.375,classification_task,2021.2.3,Win32,60.00960154,627c6715c52fd12f31907bd0,,,,,,,,,,,,,,,,,,,,,,,a,1,0.7333,"[""0.288"",""0.566"",""0.672"",""0.879""]","[1,0,1,1]",0,55,55,55,1,0,1,,,1,FALSE,,,,,,,,,,,,,,,,,,,,,,,,,,,,,,,
,612ba4de7e2b127155f4bb03,627c6f49ad787dc47253654d,2022-05-11_21h44.29.375,classification_task,2021.2.3,Win32,60.00960154,627c6715c52fd12f31907bd0,,,,,,,,,,,,,,,,,,,,,,,l,1,2.2475,"[""0.126"",""0.190"",""0.632"",""0.762""]","[1,1,1,0]",0,56,56,56,1,1,0,,,1,FALSE,,,,,,,,,,,,,,,,,,,,,,,,,,,,,,,
,612ba4de7e2b127155f4bb03,627c6f49ad787dc47253654d,2022-05-11_21h44.29.375,classification_task,2021.2.3,Win32,60.00960154,627c6715c52fd12f31907bd0,,,,,,,,,,,,,,,,,,,,,,,a,1,0.6122,"[""0.587"",""0.456"",""0.672"",""0.879""]","[0,1,1,1]",0,57,57,57,1,0,1,,,1,FALSE,,,,,,,,,,,,,,,,,,,,,,,,,,,,,,,
,612ba4de7e2b127155f4bb03,627c6f49ad787dc47253654d,2022-05-11_21h44.29.375,classification_task,2021.2.3,Win32,60.00960154,627c6715c52fd12f31907bd0,,,,,,,,,,,,,,,,,,,,,,,l,1,1.9451,"[""0.048"",""0.373"",""0.591"",""0.838""]","[1,1,0,1]",0,58,58,58,1,1,1,,,1,FALSE,,,,,,,,,,,,,,,,,,,,,,,,,,,,,,,
,612ba4de7e2b127155f4bb03,627c6f49ad787dc47253654d,2022-05-11_21h44.29.375,classification_task,2021.2.3,Win32,60.00960154,627c6715c52fd12f31907bd0,,,,,,,,,,,,,,,,,,,,,,,l,0,0.9489,"[""0.288"",""0.456"",""0.672"",""0.569""]","[1,1,1,0]",0,59,59,59,1,0,1,,,1,FALSE,,,,,,,,,,,,,,,,,,,,,,,,,,,,,,,
,612ba4de7e2b127155f4bb03,627c6f49ad787dc47253654d,2022-05-11_21h44.29.375,classification_task,2021.2.3,Win32,60.00960154,627c6715c52fd12f31907bd0,,,,,,,,,,,,,,,,,,,,,,,l,1,1.5172,"[""0.126"",""0.190"",""0.552"",""0.717""]","[1,1,0,1]",0,60,60,60,1,1,0,,,1,FALSE,,,,,,,,,,,,,,,,,,,,,,,,,,,,,,,
,612ba4de7e2b127155f4bb03,627c6f49ad787dc47253654d,2022-05-11_21h44.29.375,classification_task,2021.2.3,Win32,60.00960154,627c6715c52fd12f31907bd0,,,,,,,,,,,,,,,,,,,,,,,a,1,0.7496,"[""0.234"",""0.421"",""0.591"",""0.957""]","[1,1,0,1]",0,61,61,61,1,0,0,,,1,FALSE,,,,,,,,,,,,,,,,,,,,,,,,,,,,,,,
,612ba4de7e2b127155f4bb03,627c6f49ad787dc47253654d,2022-05-11_21h44.29.375,classification_task,2021.2.3,Win32,60.00960154,627c6715c52fd12f31907bd0,,,,,,,,,,,,,,,,,,,,,,,l,1,0.5964,"[""0.126"",""0.085"",""0.632"",""0.717""]","[1,0,1,1]",0,62,62,62,1,1,0,,,1,FALSE,,,,,,,,,,,,,,,,,,,,,,,,,,,,,,,
,612ba4de7e2b127155f4bb03,627c6f49ad787dc47253654d,2022-05-11_21h44.29.375,classification_task,2021.2.3,Win32,60.00960154,627c6715c52fd12f31907bd0,,,,,,,,,,,,,,,,,,,,,,,l,1,1.8336,"[""0.048"",""0.916"",""0.517"",""0.838""]","[1,0,1,1]",0,63,63,63,1,1,1,,,1,FALSE,,,,,,,,,,,,,,,,,,,,,,,,,,,,,,,
,612ba4de7e2b127155f4bb03,627c6f49ad787dc47253654d,2022-05-11_21h44.29.375,classification_task,2021.2.3,Win32,60.00960154,627c6715c52fd12f31907bd0,,,,,,,,,,,,,,,,,,,,,,,,,,,,,,,,,,,,,,,0, ,,0,5.122478469,207.4141,0,1,1,1,1,2,2,,,,,,,,,,,,,,,,,,
,612ba4de7e2b127155f4bb03,627c6f49ad787dc47253654d,2022-05-11_21h44.29.375,classification_task,2021.2.3,Win32,60.00960154,627c6715c52fd12f31907bd0,,,,,,,,,,,,,,,,,,,,,,,,,,,,,,,,,,,,,,,1,  ,,0,5.024496142,213.421,0,1,1,1,1,2,2,,,,,,,,,,,,,,,,,,
,612ba4de7e2b127155f4bb03,627c6f49ad787dc47253654d,2022-05-11_21h44.29.375,classification_task,2021.2.3,Win32,60.00960154,627c6715c52fd12f31907bd0,,,,,,,,,,,,,,,,,,,,,,,,,,,,,,,,,,,,,,,2,  ,,0,4.926513815,215.271,0,1,1,1,1,2,2,,,,,,,,,,,,,,,,,,
,612ba4de7e2b127155f4bb03,627c6f49ad787dc47253654d,2022-05-11_21h44.29.375,classification_task,2021.2.3,Win32,60.00960154,627c6715c52fd12f31907bd0,,,,,,,,,,,,,,,,,,,,,,,,,,,,,,,,,,,,,,,,,,,,,0,1,1,1,1,,2,,,,,,,,,,,,,,,,,,
,612ba4de7e2b127155f4bb03,627c6f49ad787dc47253654d,2022-05-11_21h44.29.375,classification_task,2021.2.3,Win32,60.00960154,627c6715c52fd12f31907bd0,,,,,,,,,,,,,,,,,,,,,space,31.7386,a,0,3.636,"[""0.126"",""0.190"",""0.916"",""0.717""]","[1,1,0,1]",0,0,0,0,1,1,0,,,1,FALSE,,,,,,,,,,,,,,,,,,,,,,,,,,,,,,,
,612ba4de7e2b127155f4bb03,627c6f49ad787dc47253654d,2022-05-11_21h44.29.375,classification_task,2021.2.3,Win32,60.00960154,627c6715c52fd12f31907bd0,,,,,,,,,,,,,,,,,,,,,,,a,1,1.6926,"[""0.288"",""0.333"",""0.672"",""0.879""]","[1,0,1,1]",0,1,1,1,1,0,1,,,1,FALSE,,,,,,,,,,,,,,,,,,,,,,,,,,,,,,,
,612ba4de7e2b127155f4bb03,627c6f49ad787dc47253654d,2022-05-11_21h44.29.375,classification_task,2021.2.3,Win32,60.00960154,627c6715c52fd12f31907bd0,,,,,,,,,,,,,,,,,,,,,,,l,1,1.786,"[""0.048"",""0.373"",""0.762"",""0.838""]","[1,1,0,1]",0,2,2,2,1,1,1,,,1,FALSE,,,,,,,,,,,,,,,,,,,,,,,,,,,,,,,
,612ba4de7e2b127155f4bb03,627c6f49ad787dc47253654d,2022-05-11_21h44.29.375,classification_task,2021.2.3,Win32,60.00960154,627c6715c52fd12f31907bd0,,,,,,,,,,,,,,,,,,,,,,,a,1,1.7655,"[""0.288"",""0.456"",""0.672"",""0.916""]","[1,1,1,0]",0,3,3,3,1,0,1,,,1,FALSE,,,,,,,,,,,,,,,,,,,,,,,,,,,,,,,
,612ba4de7e2b127155f4bb03,627c6f49ad787dc47253654d,2022-05-11_21h44.29.375,classification_task,2021.2.3,Win32,60.00960154,627c6715c52fd12f31907bd0,,,,,,,,,,,,,,,,,,,,,,,l,1,1.4181,"[""0.048"",""0.552"",""0.517"",""0.838""]","[1,0,1,1]",0,4,4,4,1,1,1,,,1,FALSE,,,,,,,,,,,,,,,,,,,,,,,,,,,,,,,
,612ba4de7e2b127155f4bb03,627c6f49ad787dc47253654d,2022-05-11_21h44.29.375,classification_task,2021.2.3,Win32,60.00960154,627c6715c52fd12f31907bd0,,,,,,,,,,,,,,,,,,,,,,,a,1,1.351,"[""0.288"",""0.456"",""0.566"",""0.879""]","[1,1,0,1]",0,5,5,5,1,0,1,,,1,FALSE,,,,,,,,,,,,,,,,,,,,,,,,,,,,,,,
,612ba4de7e2b127155f4bb03,627c6f49ad787dc47253654d,2022-05-11_21h44.29.375,classification_task,2021.2.3,Win32,60.00960154,627c6715c52fd12f31907bd0,,,,,,,,,,,,,,,,,,,,,,,a,1,1.7435,"[""0.762"",""0.421"",""0.797"",""0.957""]","[0,1,1,1]",0,6,6,6,1,0,0,,,1,FALSE,,,,,,,,,,,,,,,,,,,,,,,,,,,,,,,
,612ba4de7e2b127155f4bb03,627c6f49ad787dc47253654d,2022-05-11_21h44.29.375,classification_task,2021.2.3,Win32,60.00960154,627c6715c52fd12f31907bd0,,,,,,,,,,,,,,,,,,,,,,,a,1,4.4014,"[""0.234"",""0.421"",""0.797"",""0.333""]","[1,1,1,0]",0,7,7,7,1,0,0,,,1,FALSE,,,,,,,,,,,,,,,,,,,,,,,,,,,,,,,
,612ba4de7e2b127155f4bb03,627c6f49ad787dc47253654d,2022-05-11_21h44.29.375,classification_task,2021.2.3,Win32,60.00960154,627c6715c52fd12f31907bd0,,,,,,,,,,,,,,,,,,,,,,,a,1,1.3012,"[""0.591"",""0.456"",""0.672"",""0.879""]","[0,1,1,1]",0,8,8,8,1,0,1,,,1,FALSE,,,,,,,,,,,,,,,,,,,,,,,,,,,,,,,
,612ba4de7e2b127155f4bb03,627c6f49ad787dc47253654d,2022-05-11_21h44.29.375,classification_task,2021.2.3,Win32,60.00960154,627c6715c52fd12f31907bd0,,,,,,,,,,,,,,,,,,,,,,,l,1,1.6813,"[""0.048"",""0.373"",""0.517"",""0.762""]","[1,1,1,0]",0,9,9,9,1,1,1,,,1,FALSE,,,,,,,,,,,,,,,,,,,,,,,,,,,,,,,
,612ba4de7e2b127155f4bb03,627c6f49ad787dc47253654d,2022-05-11_21h44.29.375,classification_task,2021.2.3,Win32,60.00960154,627c6715c52fd12f31907bd0,,,,,,,,,,,,,,,,,,,,,,,l,1,1.1677,"[""0.126"",""0.190"",""0.632"",""0.762""]","[1,1,1,0]",0,10,10,10,1,1,0,,,1,FALSE,,,,,,,,,,,,,,,,,,,,,,,,,,,,,,,
,612ba4de7e2b127155f4bb03,627c6f49ad787dc47253654d,2022-05-11_21h44.29.375,classification_task,2021.2.3,Win32,60.00960154,627c6715c52fd12f31907bd0,,,,,,,,,,,,,,,,,,,,,,,l,1,3.3177,"[""0.762"",""0.190"",""0.632"",""0.717""]","[0,1,1,1]",0,11,11,11,1,1,0,,,1,FALSE,,,,,,,,,,,,,,,,,,,,,,,,,,,,,,,
,612ba4de7e2b127155f4bb03,627c6f49ad787dc47253654d,2022-05-11_21h44.29.375,classification_task,2021.2.3,Win32,60.00960154,627c6715c52fd12f31907bd0,,,,,,,,,,,,,,,,,,,,,,,a,0,7.2099,"[""0.587"",""0.373"",""0.517"",""0.838""]","[0,1,1,1]",0,12,12,12,1,1,1,,,1,FALSE,,,,,,,,,,,,,,,,,,,,,,,,,,,,,,,
,612ba4de7e2b127155f4bb03,627c6f49ad787dc47253654d,2022-05-11_21h44.29.375,classification_task,2021.2.3,Win32,60.00960154,627c6715c52fd12f31907bd0,,,,,,,,,,,,,,,,,,,,,,,a,0,2.2758,"[""0.126"",""0.916"",""0.632"",""0.717""]","[1,0,1,1]",0,13,13,13,1,1,0,,,1,FALSE,,,,,,,,,,,,,,,,,,,,,,,,,,,,,,,
,612ba4de7e2b127155f4bb03,627c6f49ad787dc47253654d,2022-05-11_21h44.29.375,classification_task,2021.2.3,Win32,60.00960154,627c6715c52fd12f31907bd0,,,,,,,,,,,,,,,,,,,,,,,a,1,1.0925,"[""0.234"",""0.421"",""0.597"",""0.957""]","[1,1,0,1]",0,14,14,14,1,0,0,,,1,FALSE,,,,,,,,,,,,,,,,,,,,,,,,,,,,,,,
,612ba4de7e2b127155f4bb03,627c6f49ad787dc47253654d,2022-05-11_21h44.29.375,classification_task,2021.2.3,Win32,60.00960154,627c6715c52fd12f31907bd0,,,,,,,,,,,,,,,,,,,,,,,a,1,1.1323,"[""0.234"",""0.569"",""0.797"",""0.957""]","[1,0,1,1]",0,15,15,15,1,0,0,,,1,FALSE,,,,,,,,,,,,,,,,,,,,,,,,,,,,,,,
,612ba4de7e2b127155f4bb03,627c6f49ad787dc47253654d,2022-05-11_21h44.29.375,classification_task,2021.2.3,Win32,60.00960154,627c6715c52fd12f31907bd0,,,,,,,,,,,,,,,,,,,,,,,l,1,0.911,"[""0.048"",""0.373"",""0.517"",""0.597""]","[1,1,1,0]",0,16,16,16,1,1,1,,,1,FALSE,,,,,,,,,,,,,,,,,,,,,,,,,,,,,,,
,612ba4de7e2b127155f4bb03,627c6f49ad787dc47253654d,2022-05-11_21h44.29.375,classification_task,2021.2.3,Win32,60.00960154,627c6715c52fd12f31907bd0,,,,,,,,,,,,,,,,,,,,,,,a,1,0.7342,"[""0.234"",""0.333"",""0.797"",""0.957""]","[1,0,1,1]",0,17,17,17,1,0,0,,,1,FALSE,,,,,,,,,,,,,,,,,,,,,,,,,,,,,,,
,612ba4de7e2b127155f4bb03,627c6f49ad787dc47253654d,2022-05-11_21h44.29.375,classification_task,2021.2.3,Win32,60.00960154,627c6715c52fd12f31907bd0,,,,,,,,,,,,,,,,,,,,,,,a,0,2.3592,"[""0.916"",""0.190"",""0.632"",""0.717""]","[0,1,1,1]",0,18,18,18,1,1,0,,,1,FALSE,,,,,,,,,,,,,,,,,,,,,,,,,,,,,,,
,612ba4de7e2b127155f4bb03,627c6f49ad787dc47253654d,2022-05-11_21h44.29.375,classification_task,2021.2.3,Win32,60.00960154,627c6715c52fd12f31907bd0,,,,,,,,,,,,,,,,,,,,,,,a,1,1.5891,"[""0.234"",""0.421"",""0.552"",""0.957""]","[1,1,0,1]",0,19,19,19,1,0,0,,,1,FALSE,,,,,,,,,,,,,,,,,,,,,,,,,,,,,,,
,612ba4de7e2b127155f4bb03,627c6f49ad787dc47253654d,2022-05-11_21h44.29.375,classification_task,2021.2.3,Win32,60.00960154,627c6715c52fd12f31907bd0,,,,,,,,,,,,,,,,,,,,,,,a,1,1.5959,"[""0.916"",""0.456"",""0.672"",""0.879""]","[0,1,1,1]",0,20,20,20,1,0,1,,,1,FALSE,,,,,,,,,,,,,,,,,,,,,,,,,,,,,,,
,612ba4de7e2b127155f4bb03,627c6f49ad787dc47253654d,2022-05-11_21h44.29.375,classification_task,2021.2.3,Win32,60.00960154,627c6715c52fd12f31907bd0,,,,,,,,,,,,,,,,,,,,,,,l,1,1.3013,"[""0.126"",""0.190"",""0.085"",""0.717""]","[1,1,0,1]",0,21,21,21,1,1,0,,,1,FALSE,,,,,,,,,,,,,,,,,,,,,,,,,,,,,,,
,612ba4de7e2b127155f4bb03,627c6f49ad787dc47253654d,2022-05-11_21h44.29.375,classification_task,2021.2.3,Win32,60.00960154,627c6715c52fd12f31907bd0,,,,,,,,,,,,,,,,,,,,,,,a,1,3.202,"[""0.234"",""0.421"",""0.797"",""0.569""]","[1,1,1,0]",0,22,22,22,1,0,0,,,1,FALSE,,,,,,,,,,,,,,,,,,,,,,,,,,,,,,,
,612ba4de7e2b127155f4bb03,627c6f49ad787dc47253654d,2022-05-11_21h44.29.375,classification_task,2021.2.3,Win32,60.00960154,627c6715c52fd12f31907bd0,,,,,,,,,,,,,,,,,,,,,,,l,1,2.2616,"[""0.048"",""0.339"",""0.517"",""0.838""]","[1,0,1,1]",0,23,23,23,1,1,1,,,1,FALSE,,,,,,,,,,,,,,,,,,,,,,,,,,,,,,,
,612ba4de7e2b127155f4bb03,627c6f49ad787dc47253654d,2022-05-11_21h44.29.375,classification_task,2021.2.3,Win32,60.00960154,627c6715c52fd12f31907bd0,,,,,,,,,,,,,,,,,,,,,,,l,1,1.575,"[""0.126"",""0.322"",""0.632"",""0.717""]","[1,0,1,1]",0,24,24,24,1,1,0,,,1,FALSE,,,,,,,,,,,,,,,,,,,,,,,,,,,,,,,
,612ba4de7e2b127155f4bb03,627c6f49ad787dc47253654d,2022-05-11_21h44.29.375,classification_task,2021.2.3,Win32,60.00960154,627c6715c52fd12f31907bd0,,,,,,,,,,,,,,,,,,,,,,,a,0,1.2487,"[""0.339"",""0.373"",""0.517"",""0.838""]","[0,1,1,1]",0,25,25,25,1,1,1,,,1,FALSE,,,,,,,,,,,,,,,,,,,,,,,,,,,,,,,
,612ba4de7e2b127155f4bb03,627c6f49ad787dc47253654d,2022-05-11_21h44.29.375,classification_task,2021.2.3,Win32,60.00960154,627c6715c52fd12f31907bd0,,,,,,,,,,,,,,,,,,,,,,,l,0,3.0713,"[""0.288"",""0.456"",""0.672"",""0.339""]","[1,1,1,0]",0,26,26,26,1,0,1,,,1,FALSE,,,,,,,,,,,,,,,,,,,,,,,,,,,,,,,
,612ba4de7e2b127155f4bb03,627c6f49ad787dc47253654d,2022-05-11_21h44.29.375,classification_task,2021.2.3,Win32,60.00960154,627c6715c52fd12f31907bd0,,,,,,,,,,,,,,,,,,,,,,,a,1,1.0784,"[""0.333"",""0.421"",""0.797"",""0.957""]","[0,1,1,1]",0,27,27,27,1,0,0,,,1,FALSE,,,,,,,,,,,,,,,,,,,,,,,,,,,,,,,
,612ba4de7e2b127155f4bb03,627c6f49ad787dc47253654d,2022-05-11_21h44.29.375,classification_task,2021.2.3,Win32,60.00960154,627c6715c52fd12f31907bd0,,,,,,,,,,,,,,,,,,,,,,,a,1,1.1924,"[""0.288"",""0.762"",""0.672"",""0.879""]","[1,0,1,1]",0,28,28,28,1,0,1,,,1,FALSE,,,,,,,,,,,,,,,,,,,,,,,,,,,,,,,
,612ba4de7e2b127155f4bb03,627c6f49ad787dc47253654d,2022-05-11_21h44.29.375,classification_task,2021.2.3,Win32,60.00960154,627c6715c52fd12f31907bd0,,,,,,,,,,,,,,,,,,,,,,,l,1,1.1335,"[""0.126"",""0.190"",""0.632"",""0.322""]","[1,1,1,0]",0,29,29,29,1,1,0,,,1,FALSE,,,,,,,,,,,,,,,,,,,,,,,,,,,,,,,
,612ba4de7e2b127155f4bb03,627c6f49ad787dc47253654d,2022-05-11_21h44.29.375,classification_task,2021.2.3,Win32,60.00960154,627c6715c52fd12f31907bd0,,,,,,,,,,,,,,,,,,,,,,,l,1,0.8191,"[""0.048"",""0.373"",""0.339"",""0.838""]","[1,1,0,1]",0,30,30,30,1,1,1,,,1,FALSE,,,,,,,,,,,,,,,,,,,,,,,,,,,,,,,
,612ba4de7e2b127155f4bb03,627c6f49ad787dc47253654d,2022-05-11_21h44.29.375,classification_task,2021.2.3,Win32,60.00960154,627c6715c52fd12f31907bd0,,,,,,,,,,,,,,,,,,,,,,,a,1,1.4196,"[""0.288"",""0.456"",""0.562"",""0.879""]","[1,1,0,1]",0,31,31,31,1,0,1,,,1,FALSE,,,,,,,,,,,,,,,,,,,,,,,,,,,,,,,
,612ba4de7e2b127155f4bb03,627c6f49ad787dc47253654d,2022-05-11_21h44.29.375,classification_task,2021.2.3,Win32,60.00960154,627c6715c52fd12f31907bd0,,,,,,,,,,,,,,,,,,,,,,,l,1,1.2459,"[""0.048"",""0.753"",""0.517"",""0.838""]","[1,0,1,1]",0,32,32,32,1,1,1,,,1,FALSE,,,,,,,,,,,,,,,,,,,,,,,,,,,,,,,
,612ba4de7e2b127155f4bb03,627c6f49ad787dc47253654d,2022-05-11_21h44.29.375,classification_task,2021.2.3,Win32,60.00960154,627c6715c52fd12f31907bd0,,,,,,,,,,,,,,,,,,,,,,,l,1,0.74,"[""0.126"",""0.190"",""0.632"",""0.597""]","[1,1,1,0]",0,33,33,33,1,1,0,,,1,FALSE,,,,,,,,,,,,,,,,,,,,,,,,,,,,,,,
,612ba4de7e2b127155f4bb03,627c6f49ad787dc47253654d,2022-05-11_21h44.29.375,classification_task,2021.2.3,Win32,60.00960154,627c6715c52fd12f31907bd0,,,,,,,,,,,,,,,,,,,,,,,a,1,0.7811,"[""0.234"",""0.560"",""0.797"",""0.957""]","[1,0,1,1]",0,34,34,34,1,0,0,,,1,FALSE,,,,,,,,,,,,,,,,,,,,,,,,,,,,,,,
,612ba4de7e2b127155f4bb03,627c6f49ad787dc47253654d,2022-05-11_21h44.29.375,classification_task,2021.2.3,Win32,60.00960154,627c6715c52fd12f31907bd0,,,,,,,,,,,,,,,,,,,,,,,a,1,1.9649,"[""0.916"",""0.456"",""0.672"",""0.879""]","[0,1,1,1]",0,35,35,35,1,0,1,,,1,FALSE,,,,,,,,,,,,,,,,,,,,,,,,,,,,,,,
,612ba4de7e2b127155f4bb03,627c6f49ad787dc47253654d,2022-05-11_21h44.29.375,classification_task,2021.2.3,Win32,60.00960154,627c6715c52fd12f31907bd0,,,,,,,,,,,,,,,,,,,,,,,l,1,1.9798,"[""0.126"",""0.762"",""0.632"",""0.717""]","[1,0,1,1]",0,36,36,36,1,1,0,,,1,FALSE,,,,,,,,,,,,,,,,,,,,,,,,,,,,,,,
,612ba4de7e2b127155f4bb03,627c6f49ad787dc47253654d,2022-05-11_21h44.29.375,classification_task,2021.2.3,Win32,60.00960154,627c6715c52fd12f31907bd0,,,,,,,,,,,,,,,,,,,,,,,l,1,1.4735,"[""0.048"",""0.373"",""0.569"",""0.838""]","[1,1,0,1]",0,37,37,37,1,1,1,,,1,FALSE,,,,,,,,,,,,,,,,,,,,,,,,,,,,,,,
,612ba4de7e2b127155f4bb03,627c6f49ad787dc47253654d,2022-05-11_21h44.29.375,classification_task,2021.2.3,Win32,60.00960154,627c6715c52fd12f31907bd0,,,,,,,,,,,,,,,,,,,,,,,l,0,2.464,"[""0.288"",""0.456"",""0.672"",""0.552""]","[1,1,1,0]",0,38,38,38,1,0,1,,,1,FALSE,,,,,,,,,,,,,,,,,,,,,,,,,,,,,,,
,612ba4de7e2b127155f4bb03,627c6f49ad787dc47253654d,2022-05-11_21h44.29.375,classification_task,2021.2.3,Win32,60.00960154,627c6715c52fd12f31907bd0,,,,,,,,,,,,,,,,,,,,,,,a,1,0.7434,"[""0.234"",""0.421"",""0.560"",""0.957""]","[1,1,0,1]",0,39,39,39,1,0,0,,,1,FALSE,,,,,,,,,,,,,,,,,,,,,,,,,,,,,,,
,612ba4de7e2b127155f4bb03,627c6f49ad787dc47253654d,2022-05-11_21h44.29.375,classification_task,2021.2.3,Win32,60.00960154,627c6715c52fd12f31907bd0,,,,,,,,,,,,,,,,,,,,,,,a,1,1.6157,"[""0.288"",""0.560"",""0.672"",""0.879""]","[1,0,1,1]",0,40,40,40,1,0,1,,,1,FALSE,,,,,,,,,,,,,,,,,,,,,,,,,,,,,,,
,612ba4de7e2b127155f4bb03,627c6f49ad787dc47253654d,2022-05-11_21h44.29.375,classification_task,2021.2.3,Win32,60.00960154,627c6715c52fd12f31907bd0,,,,,,,,,,,,,,,,,,,,,,,l,1,1.2814,"[""0.048"",""0.373"",""0.517"",""0.322""]","[1,1,1,0]",0,41,41,41,1,1,1,,,1,FALSE,,,,,,,,,,,,,,,,,,,,,,,,,,,,,,,
,612ba4de7e2b127155f4bb03,627c6f49ad787dc47253654d,2022-05-11_21h44.29.375,classification_task,2021.2.3,Win32,60.00960154,627c6715c52fd12f31907bd0,,,,,,,,,,,,,,,,,,,,,,,l,1,2.263,"[""0.126"",""0.190"",""0.597"",""0.717""]","[1,1,0,1]",0,42,42,42,1,1,0,,,1,FALSE,,,,,,,,,,,,,,,,,,,,,,,,,,,,,,,
,612ba4de7e2b127155f4bb03,627c6f49ad787dc47253654d,2022-05-11_21h44.29.375,classification_task,2021.2.3,Win32,60.00960154,627c6715c52fd12f31907bd0,,,,,,,,,,,,,,,,,,,,,,,a,1,1.3241,"[""0.288"",""0.456"",""0.339"",""0.879""]","[1,1,0,1]",0,43,43,43,1,0,1,,,1,FALSE,,,,,,,,,,,,,,,,,,,,,,,,,,,,,,,
,612ba4de7e2b127155f4bb03,627c6f49ad787dc47253654d,2022-05-11_21h44.29.375,classification_task,2021.2.3,Win32,60.00960154,627c6715c52fd12f31907bd0,,,,,,,,,,,,,,,,,,,,,,,l,1,2.4615,"[""0.591"",""0.190"",""0.632"",""0.717""]","[0,1,1,1]",0,44,44,44,1,1,0,,,1,FALSE,,,,,,,,,,,,,,,,,,,,,,,,,,,,,,,
,612ba4de7e2b127155f4bb03,627c6f49ad787dc47253654d,2022-05-11_21h44.29.375,classification_task,2021.2.3,Win32,60.00960154,627c6715c52fd12f31907bd0,,,,,,,,,,,,,,,,,,,,,,,a,1,1.5633,"[""0.916"",""0.421"",""0.797"",""0.957""]","[0,1,1,1]",0,45,45,45,1,0,0,,,1,FALSE,,,,,,,,,,,,,,,,,,,,,,,,,,,,,,,
,612ba4de7e2b127155f4bb03,627c6f49ad787dc47253654d,2022-05-11_21h44.29.375,classification_task,2021.2.3,Win32,60.00960154,627c6715c52fd12f31907bd0,,,,,,,,,,,,,,,,,,,,,,,l,0,1.1832,"[""0.234"",""0.421"",""0.797"",""0.085""]","[1,1,1,0]",0,46,46,46,1,0,0,,,1,FALSE,,,,,,,,,,,,,,,,,,,,,,,,,,,,,,,
,612ba4de7e2b127155f4bb03,627c6f49ad787dc47253654d,2022-05-11_21h44.29.375,classification_task,2021.2.3,Win32,60.00960154,627c6715c52fd12f31907bd0,,,,,,,,,,,,,,,,,,,,,,,a,0,1.2757,"[""0.760"",""0.373"",""0.517"",""0.838""]","[0,1,1,1]",0,47,47,47,1,1,1,,,1,FALSE,,,,,,,,,,,,,,,,,,,,,,,,,,,,,,,
,612ba4de7e2b127155f4bb03,627c6f49ad787dc47253654d,2022-05-11_21h44.29.375,classification_task,2021.2.3,Win32,60.00960154,627c6715c52fd12f31907bd0,,,,,,,,,,,,,,,,,,,,,,,a,1,1.6846,"[""0.288"",""0.456"",""0.762"",""0.879""]","[1,1,0,1]",0,48,48,48,1,0,1,,,1,FALSE,,,,,,,,,,,,,,,,,,,,,,,,,,,,,,,
,612ba4de7e2b127155f4bb03,627c6f49ad787dc47253654d,2022-05-11_21h44.29.375,classification_task,2021.2.3,Win32,60.00960154,627c6715c52fd12f31907bd0,,,,,,,,,,,,,,,,,,,,,,,a,1,2.5582,"[""0.234"",""0.421"",""0.797"",""0.560""]","[1,1,1,0]",0,49,49,49,1,0,0,,,1,FALSE,,,,,,,,,,,,,,,,,,,,,,,,,,,,,,,
,612ba4de7e2b127155f4bb03,627c6f49ad787dc47253654d,2022-05-11_21h44.29.375,classification_task,2021.2.3,Win32,60.00960154,627c6715c52fd12f31907bd0,,,,,,,,,,,,,,,,,,,,,,,l,1,0.7,"[""0.048"",""0.373"",""0.517"",""0.753""]","[1,1,1,0]",0,50,50,50,1,1,1,,,1,FALSE,,,,,,,,,,,,,,,,,,,,,,,,,,,,,,,
,612ba4de7e2b127155f4bb03,627c6f49ad787dc47253654d,2022-05-11_21h44.29.375,classification_task,2021.2.3,Win32,60.00960154,627c6715c52fd12f31907bd0,,,,,,,,,,,,,,,,,,,,,,,l,0,2.2825,"[""0.288"",""0.085"",""0.672"",""0.879""]","[1,0,1,1]",0,51,51,51,1,0,1,,,1,FALSE,,,,,,,,,,,,,,,,,,,,,,,,,,,,,,,
,612ba4de7e2b127155f4bb03,627c6f49ad787dc47253654d,2022-05-11_21h44.29.375,classification_task,2021.2.3,Win32,60.00960154,627c6715c52fd12f31907bd0,,,,,,,,,,,,,,,,,,,,,,,a,1,0.5927,"[""0.762"",""0.421"",""0.797"",""0.957""]","[0,1,1,1]",0,52,52,52,1,0,0,,,1,FALSE,,,,,,,,,,,,,,,,,,,,,,,,,,,,,,,
,612ba4de7e2b127155f4bb03,627c6f49ad787dc47253654d,2022-05-11_21h44.29.375,classification_task,2021.2.3,Win32,60.00960154,627c6715c52fd12f31907bd0,,,,,,,,,,,,,,,,,,,,,,,a,1,5.5001,"[""0.288"",""0.456"",""0.672"",""0.587""]","[1,1,1,0]",0,53,53,53,1,0,1,,,1,FALSE,,,,,,,,,,,,,,,,,,,,,,,,,,,,,,,
,612ba4de7e2b127155f4bb03,627c6f49ad787dc47253654d,2022-05-11_21h44.29.375,classification_task,2021.2.3,Win32,60.00960154,627c6715c52fd12f31907bd0,,,,,,,,,,,,,,,,,,,,,,,a,1,1.5907,"[""0.234"",""0.085"",""0.797"",""0.957""]","[1,0,1,1]",0,54,54,54,1,0,0,,,1,FALSE,,,,,,,,,,,,,,,,,,,,,,,,,,,,,,,
,612ba4de7e2b127155f4bb03,627c6f49ad787dc47253654d,2022-05-11_21h44.29.375,classification_task,2021.2.3,Win32,60.00960154,627c6715c52fd12f31907bd0,,,,,,,,,,,,,,,,,,,,,,,a,1,0.8796,"[""0.587"",""0.456"",""0.672"",""0.879""]","[0,1,1,1]",0,55,55,55,1,0,1,,,1,FALSE,,,,,,,,,,,,,,,,,,,,,,,,,,,,,,,
,612ba4de7e2b127155f4bb03,627c6f49ad787dc47253654d,2022-05-11_21h44.29.375,classification_task,2021.2.3,Win32,60.00960154,627c6715c52fd12f31907bd0,,,,,,,,,,,,,,,,,,,,,,,l,1,1.3822,"[""0.126"",""0.190"",""0.085"",""0.717""]","[1,1,0,1]",0,56,56,56,1,1,0,,,1,FALSE,,,,,,,,,,,,,,,,,,,,,,,,,,,,,,,
,612ba4de7e2b127155f4bb03,627c6f49ad787dc47253654d,2022-05-11_21h44.29.375,classification_task,2021.2.3,Win32,60.00960154,627c6715c52fd12f31907bd0,,,,,,,,,,,,,,,,,,,,,,,l,1,1.118,"[""0.048"",""0.373"",""0.587"",""0.838""]","[1,1,0,1]",0,57,57,57,1,1,1,,,1,FALSE,,,,,,,,,,,,,,,,,,,,,,,,,,,,,,,
,612ba4de7e2b127155f4bb03,627c6f49ad787dc47253654d,2022-05-11_21h44.29.375,classification_task,2021.2.3,Win32,60.00960154,627c6715c52fd12f31907bd0,,,,,,,,,,,,,,,,,,,,,,,l,1,0.8286,"[""0.126"",""0.085"",""0.632"",""0.717""]","[1,0,1,1]",0,58,58,58,1,1,0,,,1,FALSE,,,,,,,,,,,,,,,,,,,,,,,,,,,,,,,
,612ba4de7e2b127155f4bb03,627c6f49ad787dc47253654d,2022-05-11_21h44.29.375,classification_task,2021.2.3,Win32,60.00960154,627c6715c52fd12f31907bd0,,,,,,,,,,,,,,,,,,,,,,,l,1,1.4017,"[""0.560"",""0.190"",""0.632"",""0.717""]","[0,1,1,1]",0,59,59,59,1,1,0,,,1,FALSE,,,,,,,,,,,,,,,,,,,,,,,,,,,,,,,
,612ba4de7e2b127155f4bb03,627c6f49ad787dc47253654d,2022-05-11_21h44.29.375,classification_task,2021.2.3,Win32,60.00960154,627c6715c52fd12f31907bd0,,,,,,,,,,,,,,,,,,,,,,,l,1,1.8053,"[""0.048"",""0.566"",""0.517"",""0.838""]","[1,0,1,1]",0,60,60,60,1,1,1,,,1,FALSE,,,,,,,,,,,,,,,,,,,,,,,,,,,,,,,
,612ba4de7e2b127155f4bb03,627c6f49ad787dc47253654d,2022-05-11_21h44.29.375,classification_task,2021.2.3,Win32,60.00960154,627c6715c52fd12f31907bd0,,,,,,,,,,,,,,,,,,,,,,,a,0,0.9657,"[""0.591"",""0.373"",""0.517"",""0.838""]","[0,1,1,1]",0,61,61,61,1,1,1,,,1,FALSE,,,,,,,,,,,,,,,,,,,,,,,,,,,,,,,
,612ba4de7e2b127155f4bb03,627c6f49ad787dc47253654d,2022-05-11_21h44.29.375,classification_task,2021.2.3,Win32,60.00960154,627c6715c52fd12f31907bd0,,,,,,,,,,,,,,,,,,,,,,,l,1,0.8158,"[""0.126"",""0.190"",""0.632"",""0.587""]","[1,1,1,0]",0,62,62,62,1,1,0,,,1,FALSE,,,,,,,,,,,,,,,,,,,,,,,,,,,,,,,
,612ba4de7e2b127155f4bb03,627c6f49ad787dc47253654d,2022-05-11_21h44.29.375,classification_task,2021.2.3,Win32,60.00960154,627c6715c52fd12f31907bd0,,,,,,,,,,,,,,,,,,,,,,,a,1,0.9652,"[""0.234"",""0.421"",""0.753"",""0.957""]","[1,1,0,1]",0,63,63,63,1,0,0,,,1,FALSE,,,,,,,,,,,,,,,,,,,,,,,,,,,,,,,
,612ba4de7e2b127155f4bb03,627c6f49ad787dc47253654d,2022-05-11_21h44.29.375,classification_task,2021.2.3,Win32,60.00960154,627c6715c52fd12f31907bd0,,,,,,,,,,,,,,,,,,,,,,,,,,,,,,,,,,,,,,,0, ,,0,,,0,2,2,2,1,2,3,,,,,,,,,,,,,,,,,,
,612ba4de7e2b127155f4bb03,627c6f49ad787dc47253654d,2022-05-11_21h44.29.375,classification_task,2021.2.3,Win32,60.00960154,627c6715c52fd12f31907bd0,,,,,,,,,,,,,,,,,,,,,,,,,,,,,,,,,,,,,,,1,  ,,0,,,0,2,2,2,1,2,3,,,,,,,,,,,,,,,,,,
,612ba4de7e2b127155f4bb03,627c6f49ad787dc47253654d,2022-05-11_21h44.29.375,classification_task,2021.2.3,Win32,60.00960154,627c6715c52fd12f31907bd0,,,,,,,,,,,,,,,,,,,,,,,,,,,,,,,,,,,,,,,2,  ,,0,,,0,2,2,2,1,2,3,,,,,,,,,,,,,,,,,,
,612ba4de7e2b127155f4bb03,627c6f49ad787dc47253654d,2022-05-11_21h44.29.375,classification_task,2021.2.3,Win32,60.00960154,627c6715c52fd12f31907bd0,,,,,,,,,,,,,,,,,,,,,,,,,,,,,,,,,,,,,,,,,,,,,0,2,2,2,1,,3,,,,,,,,,,,,,,,,,,
,612ba4de7e2b127155f4bb03,627c6f49ad787dc47253654d,2022-05-11_21h44.29.375,classification_task,2021.2.3,Win32,60.00960154,627c6715c52fd12f31907bd0,,,,,,,,,,,,,,,,,,,,,,,,,,,,,,,,,,,,,,,,,,,,,,,,,,,,,I believe the aid is a competent performer,,0.7,0,3,1349.9641,0,0,0,0,1,0,,,,,
,612ba4de7e2b127155f4bb03,627c6f49ad787dc47253654d,2022-05-11_21h44.29.375,classification_task,2021.2.3,Win32,60.00960154,627c6715c52fd12f31907bd0,,,,,,,,,,,,,,,,,,,,,,,,,,,,,,,,,,,,,,,,,,,,,,,,,,,,,I trust the aid,,0.7,0,3,1351.6113,0,0,0,0,1,0,,,,,
,612ba4de7e2b127155f4bb03,627c6f49ad787dc47253654d,2022-05-11_21h44.29.375,classification_task,2021.2.3,Win32,60.00960154,627c6715c52fd12f31907bd0,,,,,,,,,,,,,,,,,,,,,,,,,,,,,,,,,,,,,,,,,,,,,,,,,,,,,I have confidence in the advice given by the aid,,0.7,0,3,1356.7934,0,0,0,0,1,0,,,,,
,612ba4de7e2b127155f4bb03,627c6f49ad787dc47253654d,2022-05-11_21h44.29.375,classification_task,2021.2.3,Win32,60.00960154,627c6715c52fd12f31907bd0,,,,,,,,,,,,,,,,,,,,,,,,,,,,,,,,,,,,,,,,,,,,,,,,,,,,,I can depend on the aid,,0.7,0,3,1358.5104,0,0,0,0,1,0,,,,,
,612ba4de7e2b127155f4bb03,627c6f49ad787dc47253654d,2022-05-11_21h44.29.375,classification_task,2021.2.3,Win32,60.00960154,627c6715c52fd12f31907bd0,,,,,,,,,,,,,,,,,,,,,,,,,,,,,,,,,,,,,,,,,,,,,,,,,,,,,I can rely on the aid to behave in consistent ways,,0.7,0,3,1362.6154,0,0,0,0,1,0,,,,,
,612ba4de7e2b127155f4bb03,627c6f49ad787dc47253654d,2022-05-11_21h44.29.375,classification_task,2021.2.3,Win32,60.00960154,627c6715c52fd12f31907bd0,,,,,,,,,,,,,,,,,,,,,,,,,,,,,,,,,,,,,,,,,,,,,,,,,,,,,I can rely on the aid to do its best every time I take its advice,,0.7,0,3,1365.2004,0,0,0,0,1,0,,,,,
,612ba4de7e2b127155f4bb03,627c6f49ad787dc47253654d,2022-05-11_21h44.29.375,classification_task,2021.2.3,Win32,60.00960154,627c6715c52fd12f31907bd0,,,,,,,,,,,,,,,,,,,,,,,,,,,,,,,,,,,,,,,,,,,,,,,,,,,,,"On trials you completed with assistance from the aid, how frequently did you think the aid was correct?",,0.7,0,80%,,0,0,0,0,1,0,,,,,
,612ba4de7e2b127155f4bb03,627c6f49ad787dc47253654d,2022-05-11_21h44.29.375,classification_task,2021.2.3,Win32,60.00960154,627c6715c52fd12f31907bd0,,,,,,,,,,,,,,,,,,,,,,,,,,,,,,,,,,,,,,,,,,,,,,,,,,,,,"On trials you completed without the aid, how frequently did you think you were correct?",,0.7,0,75%,,0,0,0,0,1,0,,,,,
,612ba4de7e2b127155f4bb03,627c6f49ad787dc47253654d,2022-05-11_21h44.29.375,classification_task,2021.2.3,Win32,60.00960154,627c6715c52fd12f31907bd0,,,,,,,,,,,,,,,,,,,,,,,,,,,,,,,,,,,,,,,,,,,,,,,,,,,,,,,,,,,0,0,0,0,1,,,,,,
,612ba4de7e2b127155f4bb03,627c6f49ad787dc47253654d,2022-05-11_21h44.29.375,classification_task,2021.2.3,Win32,60.00960154,627c6715c52fd12f31907bd0,,,,,,,,,,,,,,,,,,,,,,,,,,,,,,,,,,,,,,,,,,,,,,,,,,,,,,,,,,,,,,,,,space,9.423,1420.952,,
,612ba4de7e2b127155f4bb03,627c6f49ad787dc47253654d,2022-05-11_21h44.29.375,classification_task,2021.2.3,Win32,60.00960154,627c6715c52fd12f31907bd0,,,,,,,,,,,,,,,,,,,,,,,,,,,,,,,,,,,,,,,,,,,,,,,,,,,,,,,,,,,,,,,,,,,,"Mozilla/5.0 (Windows NT 10.0; Win64; x64) AppleWebKit/537.36 (KHTML, like Gecko) Chrome/101.0.4951.54 Safari/537.36",
,612ba4de7e2b127155f4bb03,627c6f49ad787dc47253654d,2022-05-11_21h44.29.375,classification_task,2021.2.3,Win32,60.00960154,627c6715c52fd12f31907bd0,,,,,,,,,,,,,,,,,,,,,,,,,,,,,,,,,,,,,,,,,,,,,,,,,,,,,,,,,,,,,,,,,,,,,LOWLIGHT
