usingWebGL,participant,session,date,expName,psychopyVersion,OS,frameRate,study_id,signatures_friend,signatures_foe,band_ranges_top,band_ranges_bottom,formitemText,formtype,formundefined,formitemWidth,formindex,formresponse,formrt,key_resp_2.keys,key_resp_2.rt,tute_resp.keys,tute_resp.rt,tutorial.thisRepN,tutorial.thisTrialN,tutorial.thisN,tutorial.thisIndex,tutorial.ran,key_resp_4.keys,key_resp_4.rt,key_resp.keys,key_resp.corr,key_resp.rt,lines_presented,is_signal_presented,trials.thisRepN,trials.thisTrialN,trials.thisN,trials.thisIndex,trials.ran,vessel,active_band,lines,is_signal,supported_pos,catch_trial,debrief_formindex,debrief_formitemText,debrief_formtype,debrief_formitemWidth,debrief_formresponse,debrief_formrt,phases.thisRepN,phases.thisTrialN,phases.thisN,phases.thisIndex,phases.ran,phases.order,phase,key_resp_3.keys,trustitemText,trusttype,trustitemWidth,trustindex,trustresponse,trustrt,support_status.thisRepN,support_status.thisTrialN,support_status.thisN,support_status.thisIndex,support_status.ran,support_status.order,key_resp_5.keys,key_resp_5.rt,globalClockTime,userAgent,manualCondition
TRUE,612ece428a05456e8c139f24,627c7479cb81e9d0f83ab706,2022-05-11_22h44.21.019,classification_task,2021.2.3,Win32,59.97720866,627c6715c52fd12f31907bcf,,,,,,,,,,,,,,,,,,,,,,,,,,,,,,,,,,,,,,,,,,,,,,,,,,,,,,,,,,,,,,,,,,,,,
,612ece428a05456e8c139f24,627c7479cb81e9d0f83ab706,2022-05-11_22h44.21.019,classification_task,2021.2.3,Win32,59.97720866,627c6715c52fd12f31907bcf,"[[""0.177"",""0.422"",""0.754"",""0.935""],[""0.213"",""0.369"",""0.713"",""0.877""]]","[[""0.117"",""0.251"",""0.626"",""0.791""],[""0.080"",""0.301"",""0.538"",""0.833""]]","[1,10]","[100,1000]",Video game experience,,,0.7,0,,,,,,,,,,,,,,,,,,,,,,,,,,,,,,,,,,,,,,,,,,,,,,,,,,,,,,,,,,,,
,612ece428a05456e8c139f24,627c7479cb81e9d0f83ab706,2022-05-11_22h44.21.019,classification_task,2021.2.3,Win32,59.97720866,627c6715c52fd12f31907bcf,,,,,Approximately how many hours did you spend playing video games in the last week?,,,0.7,0,10,,,,,,,,,,,,,,,,,,,,,,,,,,,,,,,,,,,,,,,,,,,,,,,,,,,,,,,,,,,
,612ece428a05456e8c139f24,627c7479cb81e9d0f83ab706,2022-05-11_22h44.21.019,classification_task,2021.2.3,Win32,59.97720866,627c6715c52fd12f31907bcf,,,,,"Which game did you play the most this year? (Enter ""None"" if you didn't play any)",,,0.7,0,Monster Hunter,,,,,,,,,,,,,,,,,,,,,,,,,,,,,,,,,,,,,,,,,,,,,,,,,,,,,,,,,,,
,612ece428a05456e8c139f24,627c7479cb81e9d0f83ab706,2022-05-11_22h44.21.019,classification_task,2021.2.3,Win32,59.97720866,627c6715c52fd12f31907bcf,,,,,Visual perception,,,0.7,0,,,,,,,,,,,,,,,,,,,,,,,,,,,,,,,,,,,,,,,,,,,,,,,,,,,,,,,,,,,,
,612ece428a05456e8c139f24,627c7479cb81e9d0f83ab706,2022-05-11_22h44.21.019,classification_task,2021.2.3,Win32,59.97720866,627c6715c52fd12f31907bcf,,,,,Do you have any form of color blindness?,,,0.7,0,No,18.632,,,,,,,,,,,,,,,,,,,,,,,,,,,,,,,,,,,,,,,,,,,,,,,,,,,,,,,,,,
,612ece428a05456e8c139f24,627c7479cb81e9d0f83ab706,2022-05-11_22h44.21.019,classification_task,2021.2.3,Win32,59.97720866,627c6715c52fd12f31907bcf,,,,,Do you use software to change the colour temperature of your screen (e.g. f.lux)?,,,0.7,0,No,24.0491,,,,,,,,,,,,,,,,,,,,,,,,,,,,,,,,,,,,,,,,,,,,,,,,,,,,,,,,,,
,612ece428a05456e8c139f24,627c7479cb81e9d0f83ab706,2022-05-11_22h44.21.019,classification_task,2021.2.3,Win32,59.97720866,627c6715c52fd12f31907bcf,,,,,,,,,,,,space,112.6539,space,10.8313,0,0,0,0,1,,,,,,,,,,,,,,,,,,,,,,,,,,,,,,,,,,,,,,,,,,,,,,,,,
,612ece428a05456e8c139f24,627c7479cb81e9d0f83ab706,2022-05-11_22h44.21.019,classification_task,2021.2.3,Win32,59.97720866,627c6715c52fd12f31907bcf,,,,,,,,,,,,,,space,7.9937,1,0,1,0,1,,,,,,,,,,,,,,,,,,,,,,,,,,,,,,,,,,,,,,,,,,,,,,,,,
,612ece428a05456e8c139f24,627c7479cb81e9d0f83ab706,2022-05-11_22h44.21.019,classification_task,2021.2.3,Win32,59.97720866,627c6715c52fd12f31907bcf,,,,,,,,,,,,,,space,59.1866,2,0,2,0,1,,,,,,,,,,,,,,,,,,,,,,,,,,,,,,,,,,,,,,,,,,,,,,,,,
,612ece428a05456e8c139f24,627c7479cb81e9d0f83ab706,2022-05-11_22h44.21.019,classification_task,2021.2.3,Win32,59.97720866,627c6715c52fd12f31907bcf,,,,,,,,,,,,,,space,227.6767,3,0,3,0,1,,,,,,,,,,,,,,,,,,,,,,,,,,,,,,,,,,,,,,,,,,,,,,,,,
,612ece428a05456e8c139f24,627c7479cb81e9d0f83ab706,2022-05-11_22h44.21.019,classification_task,2021.2.3,Win32,59.97720866,627c6715c52fd12f31907bcf,,,,,,,,,,,,,,space,14.6963,4,0,4,0,1,,,,,,,,,,,,,,,,,,,,,,,,,,,,,,,,,,,,,,,,,,,,,,,,,
,612ece428a05456e8c139f24,627c7479cb81e9d0f83ab706,2022-05-11_22h44.21.019,classification_task,2021.2.3,Win32,59.97720866,627c6715c52fd12f31907bcf,,,,,,,,,,,,,,,,,,,,,space,4.0944,l,1,3.5088,"[""0.117"",""0.251"",""0.626"",""0.464""]","[1,1,1,0]",0,0,0,0,1,1,0,,,1,FALSE,,,,,,,,,,,,,,,,,,,,,,,,,,,,,,,
,612ece428a05456e8c139f24,627c7479cb81e9d0f83ab706,2022-05-11_22h44.21.019,classification_task,2021.2.3,Win32,59.97720866,627c6715c52fd12f31907bcf,,,,,,,,,,,,,,,,,,,,,,,a,1,3.7109,"[""0.213"",""0.369"",""0.713"",""0.590""]","[1,1,1,0]",0,1,1,1,1,0,1,,,1,FALSE,,,,,,,,,,,,,,,,,,,,,,,,,,,,,,,
,612ece428a05456e8c139f24,627c7479cb81e9d0f83ab706,2022-05-11_22h44.21.019,classification_task,2021.2.3,Win32,59.97720866,627c6715c52fd12f31907bcf,,,,,,,,,,,,,,,,,,,,,,,a,1,3.8934,"[""0.177"",""0.422"",""0.754"",""0.590""]","[1,1,1,0]",0,2,2,2,1,0,0,,,1,FALSE,,,,,,,,,,,,,,,,,,,,,,,,,,,,,,,
,612ece428a05456e8c139f24,627c7479cb81e9d0f83ab706,2022-05-11_22h44.21.019,classification_task,2021.2.3,Win32,59.97720866,627c6715c52fd12f31907bcf,,,,,,,,,,,,,,,,,,,,,,,a,1,7.944,"[""0.177"",""0.046"",""0.754"",""0.935""]","[1,0,1,1]",0,3,3,3,1,0,0,,,1,FALSE,,,,,,,,,,,,,,,,,,,,,,,,,,,,,,,
,612ece428a05456e8c139f24,627c7479cb81e9d0f83ab706,2022-05-11_22h44.21.019,classification_task,2021.2.3,Win32,59.97720866,627c6715c52fd12f31907bcf,,,,,,,,,,,,,,,,,,,,,,,a,1,3.1995,"[""0.213"",""0.369"",""0.678"",""0.877""]","[1,1,0,1]",0,4,4,4,1,0,1,,,1,FALSE,,,,,,,,,,,,,,,,,,,,,,,,,,,,,,,
,612ece428a05456e8c139f24,627c7479cb81e9d0f83ab706,2022-05-11_22h44.21.019,classification_task,2021.2.3,Win32,59.97720866,627c6715c52fd12f31907bcf,,,,,,,,,,,,,,,,,,,,,,,l,1,8.4086,"[""0.117"",""0.251"",""0.041"",""0.791""]","[1,1,0,1]",0,5,5,5,1,1,0,,,1,FALSE,,,,,,,,,,,,,,,,,,,,,,,,,,,,,,,
,612ece428a05456e8c139f24,627c7479cb81e9d0f83ab706,2022-05-11_22h44.21.019,classification_task,2021.2.3,Win32,59.97720866,627c6715c52fd12f31907bcf,,,,,,,,,,,,,,,,,,,,,,,a,1,2.9061,"[""0.213"",""0.590"",""0.713"",""0.877""]","[1,0,1,1]",0,6,6,6,1,0,1,,,1,FALSE,,,,,,,,,,,,,,,,,,,,,,,,,,,,,,,
,612ece428a05456e8c139f24,627c7479cb81e9d0f83ab706,2022-05-11_22h44.21.019,classification_task,2021.2.3,Win32,59.97720866,627c6715c52fd12f31907bcf,,,,,,,,,,,,,,,,,,,,,,,l,1,2.2955,"[""0.080"",""0.581"",""0.538"",""0.833""]","[1,0,1,1]",0,7,7,7,1,1,1,,,1,FALSE,,,,,,,,,,,,,,,,,,,,,,,,,,,,,,,
,612ece428a05456e8c139f24,627c7479cb81e9d0f83ab706,2022-05-11_22h44.21.019,classification_task,2021.2.3,Win32,59.97720866,627c6715c52fd12f31907bcf,,,,,,,,,,,,,,,,,,,,,,,l,1,3.1834,"[""0.584"",""0.251"",""0.626"",""0.791""]","[0,1,1,1]",0,8,8,8,1,1,0,,,1,FALSE,,,,,,,,,,,,,,,,,,,,,,,,,,,,,,,
,612ece428a05456e8c139f24,627c7479cb81e9d0f83ab706,2022-05-11_22h44.21.019,classification_task,2021.2.3,Win32,59.97720866,627c6715c52fd12f31907bcf,,,,,,,,,,,,,,,,,,,,,,,a,1,2.5057,"[""0.660"",""0.422"",""0.754"",""0.935""]","[0,1,1,1]",0,9,9,9,1,0,0,,,1,FALSE,,,,,,,,,,,,,,,,,,,,,,,,,,,,,,,
,612ece428a05456e8c139f24,627c7479cb81e9d0f83ab706,2022-05-11_22h44.21.019,classification_task,2021.2.3,Win32,59.97720866,627c6715c52fd12f31907bcf,,,,,,,,,,,,,,,,,,,,,,,l,1,2.48,"[""0.080"",""0.301"",""0.538"",""0.581""]","[1,1,1,0]",0,10,10,10,1,1,1,,,1,FALSE,,,,,,,,,,,,,,,,,,,,,,,,,,,,,,,
,612ece428a05456e8c139f24,627c7479cb81e9d0f83ab706,2022-05-11_22h44.21.019,classification_task,2021.2.3,Win32,59.97720866,627c6715c52fd12f31907bcf,,,,,,,,,,,,,,,,,,,,,,,a,1,4.5378,"[""0.177"",""0.422"",""0.041"",""0.935""]","[1,1,0,1]",0,11,11,11,1,0,0,,,1,FALSE,,,,,,,,,,,,,,,,,,,,,,,,,,,,,,,
,612ece428a05456e8c139f24,627c7479cb81e9d0f83ab706,2022-05-11_22h44.21.019,classification_task,2021.2.3,Win32,59.97720866,627c6715c52fd12f31907bcf,,,,,,,,,,,,,,,,,,,,,,,a,1,1.9867,"[""0.975"",""0.369"",""0.713"",""0.877""]","[0,1,1,1]",0,12,12,12,1,0,1,,,1,FALSE,,,,,,,,,,,,,,,,,,,,,,,,,,,,,,,
,612ece428a05456e8c139f24,627c7479cb81e9d0f83ab706,2022-05-11_22h44.21.019,classification_task,2021.2.3,Win32,59.97720866,627c6715c52fd12f31907bcf,,,,,,,,,,,,,,,,,,,,,,,l,1,1.8671,"[""0.117"",""0.460"",""0.626"",""0.791""]","[1,0,1,1]",0,13,13,13,1,1,0,,,1,FALSE,,,,,,,,,,,,,,,,,,,,,,,,,,,,,,,
,612ece428a05456e8c139f24,627c7479cb81e9d0f83ab706,2022-05-11_22h44.21.019,classification_task,2021.2.3,Win32,59.97720866,627c6715c52fd12f31907bcf,,,,,,,,,,,,,,,,,,,,,,,l,1,2.7918,"[""0.080"",""0.301"",""0.660"",""0.833""]","[1,1,0,1]",0,14,14,14,1,1,1,,,1,FALSE,,,,,,,,,,,,,,,,,,,,,,,,,,,,,,,
,612ece428a05456e8c139f24,627c7479cb81e9d0f83ab706,2022-05-11_22h44.21.019,classification_task,2021.2.3,Win32,59.97720866,627c6715c52fd12f31907bcf,,,,,,,,,,,,,,,,,,,,,,,l,1,2.1599,"[""0.660"",""0.301"",""0.538"",""0.833""]","[0,1,1,1]",0,15,15,15,1,1,1,,,1,FALSE,,,,,,,,,,,,,,,,,,,,,,,,,,,,,,,
,612ece428a05456e8c139f24,627c7479cb81e9d0f83ab706,2022-05-11_22h44.21.019,classification_task,2021.2.3,Win32,59.97720866,627c6715c52fd12f31907bcf,,,,,,,,,,,,,,,,,,,,,,,a,1,2.0603,"[""0.177"",""0.422"",""0.754"",""0.975""]","[1,1,1,0]",0,16,16,16,1,0,0,,,1,FALSE,,,,,,,,,,,,,,,,,,,,,,,,,,,,,,,
,612ece428a05456e8c139f24,627c7479cb81e9d0f83ab706,2022-05-11_22h44.21.019,classification_task,2021.2.3,Win32,59.97720866,627c6715c52fd12f31907bcf,,,,,,,,,,,,,,,,,,,,,,,l,1,2.0576,"[""0.080"",""0.301"",""0.538"",""0.459""]","[1,1,1,0]",0,17,17,17,1,1,1,,,1,FALSE,,,,,,,,,,,,,,,,,,,,,,,,,,,,,,,
,612ece428a05456e8c139f24,627c7479cb81e9d0f83ab706,2022-05-11_22h44.21.019,classification_task,2021.2.3,Win32,59.97720866,627c6715c52fd12f31907bcf,,,,,,,,,,,,,,,,,,,,,,,a,1,2.5497,"[""0.213"",""0.369"",""0.471"",""0.877""]","[1,1,0,1]",0,18,18,18,1,0,1,,,1,FALSE,,,,,,,,,,,,,,,,,,,,,,,,,,,,,,,
,612ece428a05456e8c139f24,627c7479cb81e9d0f83ab706,2022-05-11_22h44.21.019,classification_task,2021.2.3,Win32,59.97720866,627c6715c52fd12f31907bcf,,,,,,,,,,,,,,,,,,,,,,,a,1,3.3123,"[""0.479"",""0.369"",""0.713"",""0.877""]","[0,1,1,1]",0,19,19,19,1,0,1,,,1,FALSE,,,,,,,,,,,,,,,,,,,,,,,,,,,,,,,
,612ece428a05456e8c139f24,627c7479cb81e9d0f83ab706,2022-05-11_22h44.21.019,classification_task,2021.2.3,Win32,59.97720866,627c6715c52fd12f31907bcf,,,,,,,,,,,,,,,,,,,,,,,l,1,2.0008,"[""0.080"",""0.301"",""0.464"",""0.833""]","[1,1,0,1]",0,20,20,20,1,1,1,,,1,FALSE,,,,,,,,,,,,,,,,,,,,,,,,,,,,,,,
,612ece428a05456e8c139f24,627c7479cb81e9d0f83ab706,2022-05-11_22h44.21.019,classification_task,2021.2.3,Win32,59.97720866,627c6715c52fd12f31907bcf,,,,,,,,,,,,,,,,,,,,,,,a,1,6.2056,"[""0.046"",""0.422"",""0.754"",""0.935""]","[0,1,1,1]",0,21,21,21,1,0,0,,,1,FALSE,,,,,,,,,,,,,,,,,,,,,,,,,,,,,,,
,612ece428a05456e8c139f24,627c7479cb81e9d0f83ab706,2022-05-11_22h44.21.019,classification_task,2021.2.3,Win32,59.97720866,627c6715c52fd12f31907bcf,,,,,,,,,,,,,,,,,,,,,,,l,0,1.7566,"[""0.213"",""0.677"",""0.713"",""0.877""]","[1,0,1,1]",0,22,22,22,1,0,1,,,1,FALSE,,,,,,,,,,,,,,,,,,,,,,,,,,,,,,,
,612ece428a05456e8c139f24,627c7479cb81e9d0f83ab706,2022-05-11_22h44.21.019,classification_task,2021.2.3,Win32,59.97720866,627c6715c52fd12f31907bcf,,,,,,,,,,,,,,,,,,,,,,,l,1,2.7868,"[""0.117"",""0.251"",""0.626"",""0.581""]","[1,1,1,0]",0,23,23,23,1,1,0,,,1,FALSE,,,,,,,,,,,,,,,,,,,,,,,,,,,,,,,
,612ece428a05456e8c139f24,627c7479cb81e9d0f83ab706,2022-05-11_22h44.21.019,classification_task,2021.2.3,Win32,59.97720866,627c6715c52fd12f31907bcf,,,,,,,,,,,,,,,,,,,,,,,l,1,1.8578,"[""0.676"",""0.301"",""0.538"",""0.833""]","[0,1,1,1]",0,24,24,24,1,1,1,,,1,FALSE,,,,,,,,,,,,,,,,,,,,,,,,,,,,,,,
,612ece428a05456e8c139f24,627c7479cb81e9d0f83ab706,2022-05-11_22h44.21.019,classification_task,2021.2.3,Win32,59.97720866,627c6715c52fd12f31907bcf,,,,,,,,,,,,,,,,,,,,,,,a,1,2.1972,"[""0.213"",""0.369"",""0.713"",""0.464""]","[1,1,1,0]",0,25,25,25,1,0,1,,,1,FALSE,,,,,,,,,,,,,,,,,,,,,,,,,,,,,,,
,612ece428a05456e8c139f24,627c7479cb81e9d0f83ab706,2022-05-11_22h44.21.019,classification_task,2021.2.3,Win32,59.97720866,627c6715c52fd12f31907bcf,,,,,,,,,,,,,,,,,,,,,,,a,1,3.3588,"[""0.177"",""0.460"",""0.754"",""0.935""]","[1,0,1,1]",0,26,26,26,1,0,0,,,1,FALSE,,,,,,,,,,,,,,,,,,,,,,,,,,,,,,,
,612ece428a05456e8c139f24,627c7479cb81e9d0f83ab706,2022-05-11_22h44.21.019,classification_task,2021.2.3,Win32,59.97720866,627c6715c52fd12f31907bcf,,,,,,,,,,,,,,,,,,,,,,,l,1,2.2343,"[""0.117"",""0.251"",""0.660"",""0.791""]","[1,1,0,1]",0,27,27,27,1,1,0,,,1,FALSE,,,,,,,,,,,,,,,,,,,,,,,,,,,,,,,
,612ece428a05456e8c139f24,627c7479cb81e9d0f83ab706,2022-05-11_22h44.21.019,classification_task,2021.2.3,Win32,59.97720866,627c6715c52fd12f31907bcf,,,,,,,,,,,,,,,,,,,,,,,l,1,4.9674,"[""0.479"",""0.251"",""0.626"",""0.791""]","[0,1,1,1]",0,28,28,28,1,1,0,,,1,FALSE,,,,,,,,,,,,,,,,,,,,,,,,,,,,,,,
,612ece428a05456e8c139f24,627c7479cb81e9d0f83ab706,2022-05-11_22h44.21.019,classification_task,2021.2.3,Win32,59.97720866,627c6715c52fd12f31907bcf,,,,,,,,,,,,,,,,,,,,,,,a,1,3.1365,"[""0.177"",""0.422"",""0.460"",""0.935""]","[1,1,0,1]",0,29,29,29,1,0,0,,,1,FALSE,,,,,,,,,,,,,,,,,,,,,,,,,,,,,,,
,612ece428a05456e8c139f24,627c7479cb81e9d0f83ab706,2022-05-11_22h44.21.019,classification_task,2021.2.3,Win32,59.97720866,627c6715c52fd12f31907bcf,,,,,,,,,,,,,,,,,,,,,,,l,1,2.3825,"[""0.080"",""0.471"",""0.538"",""0.833""]","[1,0,1,1]",0,30,30,30,1,1,1,,,1,FALSE,,,,,,,,,,,,,,,,,,,,,,,,,,,,,,,
,612ece428a05456e8c139f24,627c7479cb81e9d0f83ab706,2022-05-11_22h44.21.019,classification_task,2021.2.3,Win32,59.97720866,627c6715c52fd12f31907bcf,,,,,,,,,,,,,,,,,,,,,,,l,1,2.2242,"[""0.117"",""0.590"",""0.626"",""0.791""]","[1,0,1,1]",0,31,31,31,1,1,0,,,1,FALSE,,,,,,,,,,,,,,,,,,,,,,,,,,,,,,,
,612ece428a05456e8c139f24,627c7479cb81e9d0f83ab706,2022-05-11_22h44.21.019,classification_task,2021.2.3,Win32,59.97720866,627c6715c52fd12f31907bcf,,,,,,,,,,,,,,,,,,,,,,,l,0,5.7812,"[""0.975"",""0.369"",""0.713"",""0.877""]","[0,1,1,1]",0,32,32,32,1,0,1,,,1,FALSE,,,,,,,,,,,,,,,,,,,,,,,,,,,,,,,
,612ece428a05456e8c139f24,627c7479cb81e9d0f83ab706,2022-05-11_22h44.21.019,classification_task,2021.2.3,Win32,59.97720866,627c6715c52fd12f31907bcf,,,,,,,,,,,,,,,,,,,,,,,a,1,3.1735,"[""0.177"",""0.422"",""0.754"",""0.584""]","[1,1,1,0]",0,33,33,33,1,0,0,,,1,FALSE,,,,,,,,,,,,,,,,,,,,,,,,,,,,,,,
,612ece428a05456e8c139f24,627c7479cb81e9d0f83ab706,2022-05-11_22h44.21.019,classification_task,2021.2.3,Win32,59.97720866,627c6715c52fd12f31907bcf,,,,,,,,,,,,,,,,,,,,,,,l,0,2.6952,"[""0.975"",""0.422"",""0.754"",""0.935""]","[0,1,1,1]",0,34,34,34,1,0,0,,,1,FALSE,,,,,,,,,,,,,,,,,,,,,,,,,,,,,,,
,612ece428a05456e8c139f24,627c7479cb81e9d0f83ab706,2022-05-11_22h44.21.019,classification_task,2021.2.3,Win32,59.97720866,627c6715c52fd12f31907bcf,,,,,,,,,,,,,,,,,,,,,,,l,0,1.8462,"[""0.213"",""0.369"",""0.679"",""0.877""]","[1,1,0,1]",0,35,35,35,1,0,1,,,1,FALSE,,,,,,,,,,,,,,,,,,,,,,,,,,,,,,,
,612ece428a05456e8c139f24,627c7479cb81e9d0f83ab706,2022-05-11_22h44.21.019,classification_task,2021.2.3,Win32,59.97720866,627c6715c52fd12f31907bcf,,,,,,,,,,,,,,,,,,,,,,,,0,,"[""0.177"",""0.422"",""0.678"",""0.935""]","[1,1,0,1]",0,36,36,36,1,0,0,,,1,FALSE,,,,,,,,,,,,,,,,,,,,,,,,,,,,,,,
,612ece428a05456e8c139f24,627c7479cb81e9d0f83ab706,2022-05-11_22h44.21.019,classification_task,2021.2.3,Win32,59.97720866,627c6715c52fd12f31907bcf,,,,,,,,,,,,,,,,,,,,,,,a,0,2.663,"[""0.080"",""0.301"",""0.538"",""0.584""]","[1,1,1,0]",0,37,37,37,1,1,1,,,1,FALSE,,,,,,,,,,,,,,,,,,,,,,,,,,,,,,,
,612ece428a05456e8c139f24,627c7479cb81e9d0f83ab706,2022-05-11_22h44.21.019,classification_task,2021.2.3,Win32,59.97720866,627c6715c52fd12f31907bcf,,,,,,,,,,,,,,,,,,,,,,,a,1,1.1011,"[""0.213"",""0.479"",""0.713"",""0.877""]","[1,0,1,1]",0,38,38,38,1,0,1,,,1,FALSE,,,,,,,,,,,,,,,,,,,,,,,,,,,,,,,
,612ece428a05456e8c139f24,627c7479cb81e9d0f83ab706,2022-05-11_22h44.21.019,classification_task,2021.2.3,Win32,59.97720866,627c6715c52fd12f31907bcf,,,,,,,,,,,,,,,,,,,,,,,l,0,1.0619,"[""0.177"",""0.460"",""0.754"",""0.935""]","[1,0,1,1]",0,39,39,39,1,0,0,,,1,FALSE,,,,,,,,,,,,,,,,,,,,,,,,,,,,,,,
,612ece428a05456e8c139f24,627c7479cb81e9d0f83ab706,2022-05-11_22h44.21.019,classification_task,2021.2.3,Win32,59.97720866,627c6715c52fd12f31907bcf,,,,,,,,,,,,,,,,,,,,,,,l,1,0.8218,"[""0.479"",""0.251"",""0.626"",""0.791""]","[0,1,1,1]",0,40,40,40,1,1,0,,,1,FALSE,,,,,,,,,,,,,,,,,,,,,,,,,,,,,,,
,612ece428a05456e8c139f24,627c7479cb81e9d0f83ab706,2022-05-11_22h44.21.019,classification_task,2021.2.3,Win32,59.97720866,627c6715c52fd12f31907bcf,,,,,,,,,,,,,,,,,,,,,,,a,0,0.8976,"[""0.117"",""0.584"",""0.626"",""0.791""]","[1,0,1,1]",0,41,41,41,1,1,0,,,1,FALSE,,,,,,,,,,,,,,,,,,,,,,,,,,,,,,,
,612ece428a05456e8c139f24,627c7479cb81e9d0f83ab706,2022-05-11_22h44.21.019,classification_task,2021.2.3,Win32,59.97720866,627c6715c52fd12f31907bcf,,,,,,,,,,,,,,,,,,,,,,,l,1,1.258,"[""0.080"",""0.975"",""0.538"",""0.833""]","[1,0,1,1]",0,42,42,42,1,1,1,,,1,FALSE,,,,,,,,,,,,,,,,,,,,,,,,,,,,,,,
,612ece428a05456e8c139f24,627c7479cb81e9d0f83ab706,2022-05-11_22h44.21.019,classification_task,2021.2.3,Win32,59.97720866,627c6715c52fd12f31907bcf,,,,,,,,,,,,,,,,,,,,,,,a,0,1.3193,"[""0.676"",""0.301"",""0.538"",""0.833""]","[0,1,1,1]",0,43,43,43,1,1,1,,,1,FALSE,,,,,,,,,,,,,,,,,,,,,,,,,,,,,,,
,612ece428a05456e8c139f24,627c7479cb81e9d0f83ab706,2022-05-11_22h44.21.019,classification_task,2021.2.3,Win32,59.97720866,627c6715c52fd12f31907bcf,,,,,,,,,,,,,,,,,,,,,,,l,0,1.3066,"[""0.213"",""0.369"",""0.713"",""0.677""]","[1,1,1,0]",0,44,44,44,1,0,1,,,1,FALSE,,,,,,,,,,,,,,,,,,,,,,,,,,,,,,,
,612ece428a05456e8c139f24,627c7479cb81e9d0f83ab706,2022-05-11_22h44.21.019,classification_task,2021.2.3,Win32,59.97720866,627c6715c52fd12f31907bcf,,,,,,,,,,,,,,,,,,,,,,,a,0,2.5674,"[""0.080"",""0.301"",""0.678"",""0.833""]","[1,1,0,1]",0,45,45,45,1,1,1,,,1,FALSE,,,,,,,,,,,,,,,,,,,,,,,,,,,,,,,
,612ece428a05456e8c139f24,627c7479cb81e9d0f83ab706,2022-05-11_22h44.21.019,classification_task,2021.2.3,Win32,59.97720866,627c6715c52fd12f31907bcf,,,,,,,,,,,,,,,,,,,,,,,l,1,0.9907,"[""0.117"",""0.251"",""0.626"",""0.975""]","[1,1,1,0]",0,46,46,46,1,1,0,,,1,FALSE,,,,,,,,,,,,,,,,,,,,,,,,,,,,,,,
,612ece428a05456e8c139f24,627c7479cb81e9d0f83ab706,2022-05-11_22h44.21.019,classification_task,2021.2.3,Win32,59.97720866,627c6715c52fd12f31907bcf,,,,,,,,,,,,,,,,,,,,,,,l,1,0.7444,"[""0.117"",""0.251"",""0.459"",""0.791""]","[1,1,0,1]",0,47,47,47,1,1,0,,,1,FALSE,,,,,,,,,,,,,,,,,,,,,,,,,,,,,,,
,612ece428a05456e8c139f24,627c7479cb81e9d0f83ab706,2022-05-11_22h44.21.019,classification_task,2021.2.3,Win32,59.97720866,627c6715c52fd12f31907bcf,,,,,,,,,,,,,,,,,,,,,,,,0,,"[""0.177"",""0.422"",""0.754"",""0.660""]","[1,1,1,0]",0,48,48,48,1,0,0,,,1,FALSE,,,,,,,,,,,,,,,,,,,,,,,,,,,,,,,
,612ece428a05456e8c139f24,627c7479cb81e9d0f83ab706,2022-05-11_22h44.21.019,classification_task,2021.2.3,Win32,59.97720866,627c6715c52fd12f31907bcf,,,,,,,,,,,,,,,,,,,,,,,,0,,"[""0.080"",""0.301"",""0.460"",""0.833""]","[1,1,0,1]",0,49,49,49,1,1,1,,,1,FALSE,,,,,,,,,,,,,,,,,,,,,,,,,,,,,,,
,612ece428a05456e8c139f24,627c7479cb81e9d0f83ab706,2022-05-11_22h44.21.019,classification_task,2021.2.3,Win32,59.97720866,627c6715c52fd12f31907bcf,,,,,,,,,,,,,,,,,,,,,,,l,1,1.4832,"[""0.117"",""0.679"",""0.626"",""0.791""]","[1,0,1,1]",0,50,50,50,1,1,0,,,1,FALSE,,,,,,,,,,,,,,,,,,,,,,,,,,,,,,,
,612ece428a05456e8c139f24,627c7479cb81e9d0f83ab706,2022-05-11_22h44.21.019,classification_task,2021.2.3,Win32,59.97720866,627c6715c52fd12f31907bcf,,,,,,,,,,,,,,,,,,,,,,,a,1,0.9486,"[""0.213"",""0.584"",""0.713"",""0.877""]","[1,0,1,1]",0,51,51,51,1,0,1,,,1,FALSE,,,,,,,,,,,,,,,,,,,,,,,,,,,,,,,
,612ece428a05456e8c139f24,627c7479cb81e9d0f83ab706,2022-05-11_22h44.21.019,classification_task,2021.2.3,Win32,59.97720866,627c6715c52fd12f31907bcf,,,,,,,,,,,,,,,,,,,,,,,l,0,0.5339,"[""0.177"",""0.677"",""0.754"",""0.935""]","[1,0,1,1]",0,52,52,52,1,0,0,,,1,FALSE,,,,,,,,,,,,,,,,,,,,,,,,,,,,,,,
,612ece428a05456e8c139f24,627c7479cb81e9d0f83ab706,2022-05-11_22h44.21.019,classification_task,2021.2.3,Win32,59.97720866,627c6715c52fd12f31907bcf,,,,,,,,,,,,,,,,,,,,,,,a,1,1.2378,"[""0.213"",""0.369"",""0.678"",""0.877""]","[1,1,0,1]",0,53,53,53,1,0,1,,,1,FALSE,,,,,,,,,,,,,,,,,,,,,,,,,,,,,,,
,612ece428a05456e8c139f24,627c7479cb81e9d0f83ab706,2022-05-11_22h44.21.019,classification_task,2021.2.3,Win32,59.97720866,627c6715c52fd12f31907bcf,,,,,,,,,,,,,,,,,,,,,,,a,0,1.2643,"[""0.117"",""0.251"",""0.626"",""0.460""]","[1,1,1,0]",0,54,54,54,1,1,0,,,1,FALSE,,,,,,,,,,,,,,,,,,,,,,,,,,,,,,,
,612ece428a05456e8c139f24,627c7479cb81e9d0f83ab706,2022-05-11_22h44.21.019,classification_task,2021.2.3,Win32,59.97720866,627c6715c52fd12f31907bcf,,,,,,,,,,,,,,,,,,,,,,,l,1,1.6486,"[""0.080"",""0.464"",""0.538"",""0.833""]","[1,0,1,1]",0,55,55,55,1,1,1,,,1,FALSE,,,,,,,,,,,,,,,,,,,,,,,,,,,,,,,
,612ece428a05456e8c139f24,627c7479cb81e9d0f83ab706,2022-05-11_22h44.21.019,classification_task,2021.2.3,Win32,59.97720866,627c6715c52fd12f31907bcf,,,,,,,,,,,,,,,,,,,,,,,l,1,0.8256,"[""0.581"",""0.301"",""0.538"",""0.833""]","[0,1,1,1]",0,56,56,56,1,1,1,,,1,FALSE,,,,,,,,,,,,,,,,,,,,,,,,,,,,,,,
,612ece428a05456e8c139f24,627c7479cb81e9d0f83ab706,2022-05-11_22h44.21.019,classification_task,2021.2.3,Win32,59.97720866,627c6715c52fd12f31907bcf,,,,,,,,,,,,,,,,,,,,,,,l,1,1.0935,"[""0.080"",""0.301"",""0.538"",""0.479""]","[1,1,1,0]",0,57,57,57,1,1,1,,,1,FALSE,,,,,,,,,,,,,,,,,,,,,,,,,,,,,,,
,612ece428a05456e8c139f24,627c7479cb81e9d0f83ab706,2022-05-11_22h44.21.019,classification_task,2021.2.3,Win32,59.97720866,627c6715c52fd12f31907bcf,,,,,,,,,,,,,,,,,,,,,,,l,0,1.3984,"[""0.660"",""0.369"",""0.713"",""0.877""]","[0,1,1,1]",0,58,58,58,1,0,1,,,1,FALSE,,,,,,,,,,,,,,,,,,,,,,,,,,,,,,,
,612ece428a05456e8c139f24,627c7479cb81e9d0f83ab706,2022-05-11_22h44.21.019,classification_task,2021.2.3,Win32,59.97720866,627c6715c52fd12f31907bcf,,,,,,,,,,,,,,,,,,,,,,,a,1,0.8336,"[""0.213"",""0.369"",""0.713"",""0.678""]","[1,1,1,0]",0,59,59,59,1,0,1,,,1,FALSE,,,,,,,,,,,,,,,,,,,,,,,,,,,,,,,
,612ece428a05456e8c139f24,627c7479cb81e9d0f83ab706,2022-05-11_22h44.21.019,classification_task,2021.2.3,Win32,59.97720866,627c6715c52fd12f31907bcf,,,,,,,,,,,,,,,,,,,,,,,l,1,0.9911,"[""0.041"",""0.251"",""0.626"",""0.791""]","[0,1,1,1]",0,60,60,60,1,1,0,,,1,FALSE,,,,,,,,,,,,,,,,,,,,,,,,,,,,,,,
,612ece428a05456e8c139f24,627c7479cb81e9d0f83ab706,2022-05-11_22h44.21.019,classification_task,2021.2.3,Win32,59.97720866,627c6715c52fd12f31907bcf,,,,,,,,,,,,,,,,,,,,,,,l,0,0.8351,"[""0.479"",""0.422"",""0.754"",""0.935""]","[0,1,1,1]",0,61,61,61,1,0,0,,,1,FALSE,,,,,,,,,,,,,,,,,,,,,,,,,,,,,,,
,612ece428a05456e8c139f24,627c7479cb81e9d0f83ab706,2022-05-11_22h44.21.019,classification_task,2021.2.3,Win32,59.97720866,627c6715c52fd12f31907bcf,,,,,,,,,,,,,,,,,,,,,,,a,0,0.546,"[""0.117"",""0.251"",""0.678"",""0.791""]","[1,1,0,1]",0,62,62,62,1,1,0,,,1,FALSE,,,,,,,,,,,,,,,,,,,,,,,,,,,,,,,
,612ece428a05456e8c139f24,627c7479cb81e9d0f83ab706,2022-05-11_22h44.21.019,classification_task,2021.2.3,Win32,59.97720866,627c6715c52fd12f31907bcf,,,,,,,,,,,,,,,,,,,,,,,,0,,"[""0.177"",""0.422"",""0.679"",""0.935""]","[1,1,0,1]",0,63,63,63,1,0,0,,,1,FALSE,,,,,,,,,,,,,,,,,,,,,,,,,,,,,,,
,612ece428a05456e8c139f24,627c7479cb81e9d0f83ab706,2022-05-11_22h44.21.019,classification_task,2021.2.3,Win32,59.97720866,627c6715c52fd12f31907bcf,,,,,,,,,,,,,,,,,,,,,,,,,,,,,,,,,,,,,,,0, ,,0,4.436605918,763.6592,0,0,0,0,1,2,1,,,,,,,,,,,,,,,,,,
,612ece428a05456e8c139f24,627c7479cb81e9d0f83ab706,2022-05-11_22h44.21.019,classification_task,2021.2.3,Win32,59.97720866,627c6715c52fd12f31907bcf,,,,,,,,,,,,,,,,,,,,,,,,,,,,,,,,,,,,,,,1,  ,,0,8.306878307,769.2413,0,0,0,0,1,2,1,,,,,,,,,,,,,,,,,,
,612ece428a05456e8c139f24,627c7479cb81e9d0f83ab706,2022-05-11_22h44.21.019,classification_task,2021.2.3,Win32,59.97720866,627c6715c52fd12f31907bcf,,,,,,,,,,,,,,,,,,,,,,,,,,,,,,,,,,,,,,,2,  ,,0,4.069174995,783.5574,0,0,0,0,1,2,1,,,,,,,,,,,,,,,,,,
,612ece428a05456e8c139f24,627c7479cb81e9d0f83ab706,2022-05-11_22h44.21.019,classification_task,2021.2.3,Win32,59.97720866,627c6715c52fd12f31907bcf,,,,,,,,,,,,,,,,,,,,,,,,,,,,,,,,,,,,,,,,,,,,,0,0,0,0,1,,1,,,,,,,,,,,,,,,,,,
,612ece428a05456e8c139f24,627c7479cb81e9d0f83ab706,2022-05-11_22h44.21.019,classification_task,2021.2.3,Win32,59.97720866,627c6715c52fd12f31907bcf,,,,,,,,,,,,,,,,,,,,,space,13.0669,l,1,5.5052,"[""0.117"",""0.251"",""0.676"",""0.791""]","[1,1,0,1]",0,0,0,0,1,1,0,,,1,FALSE,,,,,,,,,,,,,,,,,,,,,,,,,,,,,,,
,612ece428a05456e8c139f24,627c7479cb81e9d0f83ab706,2022-05-11_22h44.21.019,classification_task,2021.2.3,Win32,59.97720866,627c6715c52fd12f31907bcf,,,,,,,,,,,,,,,,,,,,,,,l,0,3.0216,"[""0.213"",""0.369"",""0.460"",""0.877""]","[1,1,0,1]",0,1,1,1,1,0,1,,,1,FALSE,,,,,,,,,,,,,,,,,,,,,,,,,,,,,,,
,612ece428a05456e8c139f24,627c7479cb81e9d0f83ab706,2022-05-11_22h44.21.019,classification_task,2021.2.3,Win32,59.97720866,627c6715c52fd12f31907bcf,,,,,,,,,,,,,,,,,,,,,,,a,0,1.7348,"[""0.080"",""0.301"",""0.471"",""0.833""]","[1,1,0,1]",0,2,2,2,1,1,1,,,1,FALSE,,,,,,,,,,,,,,,,,,,,,,,,,,,,,,,
,612ece428a05456e8c139f24,627c7479cb81e9d0f83ab706,2022-05-11_22h44.21.019,classification_task,2021.2.3,Win32,59.97720866,627c6715c52fd12f31907bcf,,,,,,,,,,,,,,,,,,,,,,,l,0,2.3022,"[""0.177"",""0.422"",""0.754"",""0.479""]","[1,1,1,0]",0,3,3,3,1,0,0,,,1,FALSE,,,,,,,,,,,,,,,,,,,,,,,,,,,,,,,
,612ece428a05456e8c139f24,627c7479cb81e9d0f83ab706,2022-05-11_22h44.21.019,classification_task,2021.2.3,Win32,59.97720866,627c6715c52fd12f31907bcf,,,,,,,,,,,,,,,,,,,,,,,l,1,5.2161,"[""0.080"",""0.660"",""0.538"",""0.833""]","[1,0,1,1]",0,4,4,4,1,1,1,,,1,FALSE,,,,,,,,,,,,,,,,,,,,,,,,,,,,,,,
,612ece428a05456e8c139f24,627c7479cb81e9d0f83ab706,2022-05-11_22h44.21.019,classification_task,2021.2.3,Win32,59.97720866,627c6715c52fd12f31907bcf,,,,,,,,,,,,,,,,,,,,,,,l,0,1.273,"[""0.679"",""0.422"",""0.754"",""0.935""]","[0,1,1,1]",0,5,5,5,1,0,0,,,1,FALSE,,,,,,,,,,,,,,,,,,,,,,,,,,,,,,,
,612ece428a05456e8c139f24,627c7479cb81e9d0f83ab706,2022-05-11_22h44.21.019,classification_task,2021.2.3,Win32,59.97720866,627c6715c52fd12f31907bcf,,,,,,,,,,,,,,,,,,,,,,,a,1,1.6029,"[""0.213"",""0.369"",""0.713"",""0.679""]","[1,1,1,0]",0,6,6,6,1,0,1,,,1,FALSE,,,,,,,,,,,,,,,,,,,,,,,,,,,,,,,
,612ece428a05456e8c139f24,627c7479cb81e9d0f83ab706,2022-05-11_22h44.21.019,classification_task,2021.2.3,Win32,59.97720866,627c6715c52fd12f31907bcf,,,,,,,,,,,,,,,,,,,,,,,l,1,1.4463,"[""0.080"",""0.301"",""0.538"",""0.660""]","[1,1,1,0]",0,7,7,7,1,1,1,,,1,FALSE,,,,,,,,,,,,,,,,,,,,,,,,,,,,,,,
,612ece428a05456e8c139f24,627c7479cb81e9d0f83ab706,2022-05-11_22h44.21.019,classification_task,2021.2.3,Win32,59.97720866,627c6715c52fd12f31907bcf,,,,,,,,,,,,,,,,,,,,,,,l,1,1.2692,"[""0.464"",""0.301"",""0.538"",""0.833""]","[0,1,1,1]",0,8,8,8,1,1,1,,,1,FALSE,,,,,,,,,,,,,,,,,,,,,,,,,,,,,,,
,612ece428a05456e8c139f24,627c7479cb81e9d0f83ab706,2022-05-11_22h44.21.019,classification_task,2021.2.3,Win32,59.97720866,627c6715c52fd12f31907bcf,,,,,,,,,,,,,,,,,,,,,,,a,1,0.9597,"[""0.213"",""0.590"",""0.713"",""0.877""]","[1,0,1,1]",0,9,9,9,1,0,1,,,1,FALSE,,,,,,,,,,,,,,,,,,,,,,,,,,,,,,,
,612ece428a05456e8c139f24,627c7479cb81e9d0f83ab706,2022-05-11_22h44.21.019,classification_task,2021.2.3,Win32,59.97720866,627c6715c52fd12f31907bcf,,,,,,,,,,,,,,,,,,,,,,,l,1,1.5055,"[""0.117"",""0.251"",""0.626"",""0.460""]","[1,1,1,0]",0,10,10,10,1,1,0,,,1,FALSE,,,,,,,,,,,,,,,,,,,,,,,,,,,,,,,
,612ece428a05456e8c139f24,627c7479cb81e9d0f83ab706,2022-05-11_22h44.21.019,classification_task,2021.2.3,Win32,59.97720866,627c6715c52fd12f31907bcf,,,,,,,,,,,,,,,,,,,,,,,l,0,1.9,"[""0.177"",""0.422"",""0.460"",""0.935""]","[1,1,0,1]",0,11,11,11,1,0,0,,,1,FALSE,,,,,,,,,,,,,,,,,,,,,,,,,,,,,,,
,612ece428a05456e8c139f24,627c7479cb81e9d0f83ab706,2022-05-11_22h44.21.019,classification_task,2021.2.3,Win32,59.97720866,627c6715c52fd12f31907bcf,,,,,,,,,,,,,,,,,,,,,,,l,1,0.8858,"[""0.679"",""0.251"",""0.626"",""0.791""]","[0,1,1,1]",0,12,12,12,1,1,0,,,1,FALSE,,,,,,,,,,,,,,,,,,,,,,,,,,,,,,,
,612ece428a05456e8c139f24,627c7479cb81e9d0f83ab706,2022-05-11_22h44.21.019,classification_task,2021.2.3,Win32,59.97720866,627c6715c52fd12f31907bcf,,,,,,,,,,,,,,,,,,,,,,,a,0,0.6839,"[""0.117"",""0.679"",""0.626"",""0.791""]","[1,0,1,1]",0,13,13,13,1,1,0,,,1,FALSE,,,,,,,,,,,,,,,,,,,,,,,,,,,,,,,
,612ece428a05456e8c139f24,627c7479cb81e9d0f83ab706,2022-05-11_22h44.21.019,classification_task,2021.2.3,Win32,59.97720866,627c6715c52fd12f31907bcf,,,,,,,,,,,,,,,,,,,,,,,a,1,1.5154,"[""0.975"",""0.369"",""0.713"",""0.877""]","[0,1,1,1]",0,14,14,14,1,0,1,,,1,FALSE,,,,,,,,,,,,,,,,,,,,,,,,,,,,,,,
,612ece428a05456e8c139f24,627c7479cb81e9d0f83ab706,2022-05-11_22h44.21.019,classification_task,2021.2.3,Win32,59.97720866,627c6715c52fd12f31907bcf,,,,,,,,,,,,,,,,,,,,,,,l,0,0.726,"[""0.177"",""0.678"",""0.754"",""0.935""]","[1,0,1,1]",0,15,15,15,1,0,0,,,1,FALSE,,,,,,,,,,,,,,,,,,,,,,,,,,,,,,,
,612ece428a05456e8c139f24,627c7479cb81e9d0f83ab706,2022-05-11_22h44.21.019,classification_task,2021.2.3,Win32,59.97720866,627c6715c52fd12f31907bcf,,,,,,,,,,,,,,,,,,,,,,,a,0,0.7657,"[""0.117"",""0.251"",""0.660"",""0.791""]","[1,1,0,1]",0,16,16,16,1,1,0,,,1,FALSE,,,,,,,,,,,,,,,,,,,,,,,,,,,,,,,
,612ece428a05456e8c139f24,627c7479cb81e9d0f83ab706,2022-05-11_22h44.21.019,classification_task,2021.2.3,Win32,59.97720866,627c6715c52fd12f31907bcf,,,,,,,,,,,,,,,,,,,,,,,l,0,0.4288,"[""0.584"",""0.422"",""0.754"",""0.935""]","[0,1,1,1]",0,17,17,17,1,0,0,,,1,FALSE,,,,,,,,,,,,,,,,,,,,,,,,,,,,,,,
,612ece428a05456e8c139f24,627c7479cb81e9d0f83ab706,2022-05-11_22h44.21.019,classification_task,2021.2.3,Win32,59.97720866,627c6715c52fd12f31907bcf,,,,,,,,,,,,,,,,,,,,,,,a,1,1.8579,"[""0.177"",""0.422"",""0.581"",""0.935""]","[1,1,0,1]",0,18,18,18,1,0,0,,,1,FALSE,,,,,,,,,,,,,,,,,,,,,,,,,,,,,,,
,612ece428a05456e8c139f24,627c7479cb81e9d0f83ab706,2022-05-11_22h44.21.019,classification_task,2021.2.3,Win32,59.97720866,627c6715c52fd12f31907bcf,,,,,,,,,,,,,,,,,,,,,,,a,0,0.6729,"[""0.117"",""0.251"",""0.626"",""0.677""]","[1,1,1,0]",0,19,19,19,1,1,0,,,1,FALSE,,,,,,,,,,,,,,,,,,,,,,,,,,,,,,,
,612ece428a05456e8c139f24,627c7479cb81e9d0f83ab706,2022-05-11_22h44.21.019,classification_task,2021.2.3,Win32,59.97720866,627c6715c52fd12f31907bcf,,,,,,,,,,,,,,,,,,,,,,,a,1,0.5068,"[""0.177"",""0.422"",""0.754"",""0.679""]","[1,1,1,0]",0,20,20,20,1,0,0,,,1,FALSE,,,,,,,,,,,,,,,,,,,,,,,,,,,,,,,
,612ece428a05456e8c139f24,627c7479cb81e9d0f83ab706,2022-05-11_22h44.21.019,classification_task,2021.2.3,Win32,59.97720866,627c6715c52fd12f31907bcf,,,,,,,,,,,,,,,,,,,,,,,l,1,1.2228,"[""0.479"",""0.301"",""0.538"",""0.833""]","[0,1,1,1]",0,21,21,21,1,1,1,,,1,FALSE,,,,,,,,,,,,,,,,,,,,,,,,,,,,,,,
,612ece428a05456e8c139f24,627c7479cb81e9d0f83ab706,2022-05-11_22h44.21.019,classification_task,2021.2.3,Win32,59.97720866,627c6715c52fd12f31907bcf,,,,,,,,,,,,,,,,,,,,,,,l,1,0.7137,"[""0.479"",""0.251"",""0.626"",""0.791""]","[0,1,1,1]",0,22,22,22,1,1,0,,,1,FALSE,,,,,,,,,,,,,,,,,,,,,,,,,,,,,,,
,612ece428a05456e8c139f24,627c7479cb81e9d0f83ab706,2022-05-11_22h44.21.019,classification_task,2021.2.3,Win32,59.97720866,627c6715c52fd12f31907bcf,,,,,,,,,,,,,,,,,,,,,,,l,1,0.8908,"[""0.117"",""0.677"",""0.626"",""0.791""]","[1,0,1,1]",0,23,23,23,1,1,0,,,1,FALSE,,,,,,,,,,,,,,,,,,,,,,,,,,,,,,,
,612ece428a05456e8c139f24,627c7479cb81e9d0f83ab706,2022-05-11_22h44.21.019,classification_task,2021.2.3,Win32,59.97720866,627c6715c52fd12f31907bcf,,,,,,,,,,,,,,,,,,,,,,,a,1,1.0474,"[""0.213"",""0.369"",""0.464"",""0.877""]","[1,1,0,1]",0,24,24,24,1,0,1,,,1,FALSE,,,,,,,,,,,,,,,,,,,,,,,,,,,,,,,
,612ece428a05456e8c139f24,627c7479cb81e9d0f83ab706,2022-05-11_22h44.21.019,classification_task,2021.2.3,Win32,59.97720866,627c6715c52fd12f31907bcf,,,,,,,,,,,,,,,,,,,,,,,l,1,1.2154,"[""0.080"",""0.301"",""0.538"",""0.479""]","[1,1,1,0]",0,25,25,25,1,1,1,,,1,FALSE,,,,,,,,,,,,,,,,,,,,,,,,,,,,,,,
,612ece428a05456e8c139f24,627c7479cb81e9d0f83ab706,2022-05-11_22h44.21.019,classification_task,2021.2.3,Win32,59.97720866,627c6715c52fd12f31907bcf,,,,,,,,,,,,,,,,,,,,,,,a,1,1.0982,"[""0.479"",""0.369"",""0.713"",""0.877""]","[0,1,1,1]",0,26,26,26,1,0,1,,,1,FALSE,,,,,,,,,,,,,,,,,,,,,,,,,,,,,,,
,612ece428a05456e8c139f24,627c7479cb81e9d0f83ab706,2022-05-11_22h44.21.019,classification_task,2021.2.3,Win32,59.97720866,627c6715c52fd12f31907bcf,,,,,,,,,,,,,,,,,,,,,,,l,0,2.7355,"[""0.177"",""0.460"",""0.754"",""0.935""]","[1,0,1,1]",0,27,27,27,1,0,0,,,1,FALSE,,,,,,,,,,,,,,,,,,,,,,,,,,,,,,,
,612ece428a05456e8c139f24,627c7479cb81e9d0f83ab706,2022-05-11_22h44.21.019,classification_task,2021.2.3,Win32,59.97720866,627c6715c52fd12f31907bcf,,,,,,,,,,,,,,,,,,,,,,,l,1,1.7599,"[""0.080"",""0.301"",""0.679"",""0.833""]","[1,1,0,1]",0,28,28,28,1,1,1,,,1,FALSE,,,,,,,,,,,,,,,,,,,,,,,,,,,,,,,
,612ece428a05456e8c139f24,627c7479cb81e9d0f83ab706,2022-05-11_22h44.21.019,classification_task,2021.2.3,Win32,59.97720866,627c6715c52fd12f31907bcf,,,,,,,,,,,,,,,,,,,,,,,a,1,0.924,"[""0.213"",""0.369"",""0.713"",""0.479""]","[1,1,1,0]",0,29,29,29,1,0,1,,,1,FALSE,,,,,,,,,,,,,,,,,,,,,,,,,,,,,,,
,612ece428a05456e8c139f24,627c7479cb81e9d0f83ab706,2022-05-11_22h44.21.019,classification_task,2021.2.3,Win32,59.97720866,627c6715c52fd12f31907bcf,,,,,,,,,,,,,,,,,,,,,,,a,1,0.8066,"[""0.213"",""0.584"",""0.713"",""0.877""]","[1,0,1,1]",0,30,30,30,1,0,1,,,1,FALSE,,,,,,,,,,,,,,,,,,,,,,,,,,,,,,,
,612ece428a05456e8c139f24,627c7479cb81e9d0f83ab706,2022-05-11_22h44.21.019,classification_task,2021.2.3,Win32,59.97720866,627c6715c52fd12f31907bcf,,,,,,,,,,,,,,,,,,,,,,,l,1,0.6378,"[""0.080"",""0.660"",""0.538"",""0.833""]","[1,0,1,1]",0,31,31,31,1,1,1,,,1,FALSE,,,,,,,,,,,,,,,,,,,,,,,,,,,,,,,
,612ece428a05456e8c139f24,627c7479cb81e9d0f83ab706,2022-05-11_22h44.21.019,classification_task,2021.2.3,Win32,59.97720866,627c6715c52fd12f31907bcf,,,,,,,,,,,,,,,,,,,,,,,l,1,4.0984,"[""0.046"",""0.301"",""0.538"",""0.833""]","[0,1,1,1]",0,32,32,32,1,1,1,,,1,FALSE,,,,,,,,,,,,,,,,,,,,,,,,,,,,,,,
,612ece428a05456e8c139f24,627c7479cb81e9d0f83ab706,2022-05-11_22h44.21.019,classification_task,2021.2.3,Win32,59.97720866,627c6715c52fd12f31907bcf,,,,,,,,,,,,,,,,,,,,,,,a,1,1.826,"[""0.177"",""0.422"",""0.975"",""0.935""]","[1,1,0,1]",0,33,33,33,1,0,0,,,1,FALSE,,,,,,,,,,,,,,,,,,,,,,,,,,,,,,,
,612ece428a05456e8c139f24,627c7479cb81e9d0f83ab706,2022-05-11_22h44.21.019,classification_task,2021.2.3,Win32,59.97720866,627c6715c52fd12f31907bcf,,,,,,,,,,,,,,,,,,,,,,,l,1,2.6221,"[""0.080"",""0.301"",""0.538"",""0.464""]","[1,1,1,0]",0,34,34,34,1,1,1,,,1,FALSE,,,,,,,,,,,,,,,,,,,,,,,,,,,,,,,
,612ece428a05456e8c139f24,627c7479cb81e9d0f83ab706,2022-05-11_22h44.21.019,classification_task,2021.2.3,Win32,59.97720866,627c6715c52fd12f31907bcf,,,,,,,,,,,,,,,,,,,,,,,a,1,1.3915,"[""0.213"",""0.369"",""0.046"",""0.877""]","[1,1,0,1]",0,35,35,35,1,0,1,,,1,FALSE,,,,,,,,,,,,,,,,,,,,,,,,,,,,,,,
,612ece428a05456e8c139f24,627c7479cb81e9d0f83ab706,2022-05-11_22h44.21.019,classification_task,2021.2.3,Win32,59.97720866,627c6715c52fd12f31907bcf,,,,,,,,,,,,,,,,,,,,,,,a,1,0.7577,"[""0.213"",""0.464"",""0.713"",""0.877""]","[1,0,1,1]",0,36,36,36,1,0,1,,,1,FALSE,,,,,,,,,,,,,,,,,,,,,,,,,,,,,,,
,612ece428a05456e8c139f24,627c7479cb81e9d0f83ab706,2022-05-11_22h44.21.019,classification_task,2021.2.3,Win32,59.97720866,627c6715c52fd12f31907bcf,,,,,,,,,,,,,,,,,,,,,,,l,1,0.7638,"[""0.080"",""0.460"",""0.538"",""0.833""]","[1,0,1,1]",0,37,37,37,1,1,1,,,1,FALSE,,,,,,,,,,,,,,,,,,,,,,,,,,,,,,,
,612ece428a05456e8c139f24,627c7479cb81e9d0f83ab706,2022-05-11_22h44.21.019,classification_task,2021.2.3,Win32,59.97720866,627c6715c52fd12f31907bcf,,,,,,,,,,,,,,,,,,,,,,,a,0,0.9615,"[""0.117"",""0.251"",""0.626"",""0.581""]","[1,1,1,0]",0,38,38,38,1,1,0,,,1,FALSE,,,,,,,,,,,,,,,,,,,,,,,,,,,,,,,
,612ece428a05456e8c139f24,627c7479cb81e9d0f83ab706,2022-05-11_22h44.21.019,classification_task,2021.2.3,Win32,59.97720866,627c6715c52fd12f31907bcf,,,,,,,,,,,,,,,,,,,,,,,l,1,0.6413,"[""0.117"",""0.584"",""0.626"",""0.791""]","[1,0,1,1]",0,39,39,39,1,1,0,,,1,FALSE,,,,,,,,,,,,,,,,,,,,,,,,,,,,,,,
,612ece428a05456e8c139f24,627c7479cb81e9d0f83ab706,2022-05-11_22h44.21.019,classification_task,2021.2.3,Win32,59.97720866,627c6715c52fd12f31907bcf,,,,,,,,,,,,,,,,,,,,,,,l,0,0.9663,"[""0.676"",""0.422"",""0.754"",""0.935""]","[0,1,1,1]",0,40,40,40,1,0,0,,,1,FALSE,,,,,,,,,,,,,,,,,,,,,,,,,,,,,,,
,612ece428a05456e8c139f24,627c7479cb81e9d0f83ab706,2022-05-11_22h44.21.019,classification_task,2021.2.3,Win32,59.97720866,627c6715c52fd12f31907bcf,,,,,,,,,,,,,,,,,,,,,,,a,1,2.393,"[""0.679"",""0.369"",""0.713"",""0.877""]","[0,1,1,1]",0,41,41,41,1,0,1,,,1,FALSE,,,,,,,,,,,,,,,,,,,,,,,,,,,,,,,
,612ece428a05456e8c139f24,627c7479cb81e9d0f83ab706,2022-05-11_22h44.21.019,classification_task,2021.2.3,Win32,59.97720866,627c6715c52fd12f31907bcf,,,,,,,,,,,,,,,,,,,,,,,l,1,1.3816,"[""0.080"",""0.301"",""0.046"",""0.833""]","[1,1,0,1]",0,42,42,42,1,1,1,,,1,FALSE,,,,,,,,,,,,,,,,,,,,,,,,,,,,,,,
,612ece428a05456e8c139f24,627c7479cb81e9d0f83ab706,2022-05-11_22h44.21.019,classification_task,2021.2.3,Win32,59.97720866,627c6715c52fd12f31907bcf,,,,,,,,,,,,,,,,,,,,,,,a,0,0.8838,"[""0.584"",""0.251"",""0.626"",""0.791""]","[0,1,1,1]",0,43,43,43,1,1,0,,,1,FALSE,,,,,,,,,,,,,,,,,,,,,,,,,,,,,,,
,612ece428a05456e8c139f24,627c7479cb81e9d0f83ab706,2022-05-11_22h44.21.019,classification_task,2021.2.3,Win32,59.97720866,627c6715c52fd12f31907bcf,,,,,,,,,,,,,,,,,,,,,,,l,0,0.6784,"[""0.177"",""0.464"",""0.754"",""0.935""]","[1,0,1,1]",0,44,44,44,1,0,0,,,1,FALSE,,,,,,,,,,,,,,,,,,,,,,,,,,,,,,,
,612ece428a05456e8c139f24,627c7479cb81e9d0f83ab706,2022-05-11_22h44.21.019,classification_task,2021.2.3,Win32,59.97720866,627c6715c52fd12f31907bcf,,,,,,,,,,,,,,,,,,,,,,,a,1,0.3785,"[""0.213"",""0.369"",""0.713"",""0.581""]","[1,1,1,0]",0,45,45,45,1,0,1,,,1,FALSE,,,,,,,,,,,,,,,,,,,,,,,,,,,,,,,
,612ece428a05456e8c139f24,627c7479cb81e9d0f83ab706,2022-05-11_22h44.21.019,classification_task,2021.2.3,Win32,59.97720866,627c6715c52fd12f31907bcf,,,,,,,,,,,,,,,,,,,,,,,a,0,2.2524,"[""0.117"",""0.251"",""0.479"",""0.791""]","[1,1,0,1]",0,46,46,46,1,1,0,,,1,FALSE,,,,,,,,,,,,,,,,,,,,,,,,,,,,,,,
,612ece428a05456e8c139f24,627c7479cb81e9d0f83ab706,2022-05-11_22h44.21.019,classification_task,2021.2.3,Win32,59.97720866,627c6715c52fd12f31907bcf,,,,,,,,,,,,,,,,,,,,,,,l,0,1.4832,"[""0.177"",""0.422"",""0.754"",""0.041""]","[1,1,1,0]",0,47,47,47,1,0,0,,,1,FALSE,,,,,,,,,,,,,,,,,,,,,,,,,,,,,,,
,612ece428a05456e8c139f24,627c7479cb81e9d0f83ab706,2022-05-11_22h44.21.019,classification_task,2021.2.3,Win32,59.97720866,627c6715c52fd12f31907bcf,,,,,,,,,,,,,,,,,,,,,,,a,0,0.6311,"[""0.117"",""0.251"",""0.626"",""0.460""]","[1,1,1,0]",0,48,48,48,1,1,0,,,1,FALSE,,,,,,,,,,,,,,,,,,,,,,,,,,,,,,,
,612ece428a05456e8c139f24,627c7479cb81e9d0f83ab706,2022-05-11_22h44.21.019,classification_task,2021.2.3,Win32,59.97720866,627c6715c52fd12f31907bcf,,,,,,,,,,,,,,,,,,,,,,,l,0,0.2949,"[""0.177"",""0.422"",""0.754"",""0.581""]","[1,1,1,0]",0,49,49,49,1,0,0,,,1,FALSE,,,,,,,,,,,,,,,,,,,,,,,,,,,,,,,
,612ece428a05456e8c139f24,627c7479cb81e9d0f83ab706,2022-05-11_22h44.21.019,classification_task,2021.2.3,Win32,59.97720866,627c6715c52fd12f31907bcf,,,,,,,,,,,,,,,,,,,,,,,a,1,0.8488,"[""0.177"",""0.479"",""0.754"",""0.935""]","[1,0,1,1]",0,50,50,50,1,0,0,,,1,FALSE,,,,,,,,,,,,,,,,,,,,,,,,,,,,,,,
,612ece428a05456e8c139f24,627c7479cb81e9d0f83ab706,2022-05-11_22h44.21.019,classification_task,2021.2.3,Win32,59.97720866,627c6715c52fd12f31907bcf,,,,,,,,,,,,,,,,,,,,,,,a,0,0.593,"[""0.117"",""0.251"",""0.471"",""0.791""]","[1,1,0,1]",0,51,51,51,1,1,0,,,1,FALSE,,,,,,,,,,,,,,,,,,,,,,,,,,,,,,,
,612ece428a05456e8c139f24,627c7479cb81e9d0f83ab706,2022-05-11_22h44.21.019,classification_task,2021.2.3,Win32,59.97720866,627c6715c52fd12f31907bcf,,,,,,,,,,,,,,,,,,,,,,,l,0,1.2161,"[""0.046"",""0.422"",""0.754"",""0.935""]","[0,1,1,1]",0,52,52,52,1,0,0,,,1,FALSE,,,,,,,,,,,,,,,,,,,,,,,,,,,,,,,
,612ece428a05456e8c139f24,627c7479cb81e9d0f83ab706,2022-05-11_22h44.21.019,classification_task,2021.2.3,Win32,59.97720866,627c6715c52fd12f31907bcf,,,,,,,,,,,,,,,,,,,,,,,a,0,1.0597,"[""0.679"",""0.251"",""0.626"",""0.791""]","[0,1,1,1]",0,53,53,53,1,1,0,,,1,FALSE,,,,,,,,,,,,,,,,,,,,,,,,,,,,,,,
,612ece428a05456e8c139f24,627c7479cb81e9d0f83ab706,2022-05-11_22h44.21.019,classification_task,2021.2.3,Win32,59.97720866,627c6715c52fd12f31907bcf,,,,,,,,,,,,,,,,,,,,,,,l,1,0.6783,"[""0.117"",""0.678"",""0.626"",""0.791""]","[1,0,1,1]",0,54,54,54,1,1,0,,,1,FALSE,,,,,,,,,,,,,,,,,,,,,,,,,,,,,,,
,612ece428a05456e8c139f24,627c7479cb81e9d0f83ab706,2022-05-11_22h44.21.019,classification_task,2021.2.3,Win32,59.97720866,627c6715c52fd12f31907bcf,,,,,,,,,,,,,,,,,,,,,,,l,0,1.2332,"[""0.679"",""0.369"",""0.713"",""0.877""]","[0,1,1,1]",0,55,55,55,1,0,1,,,1,FALSE,,,,,,,,,,,,,,,,,,,,,,,,,,,,,,,
,612ece428a05456e8c139f24,627c7479cb81e9d0f83ab706,2022-05-11_22h44.21.019,classification_task,2021.2.3,Win32,59.97720866,627c6715c52fd12f31907bcf,,,,,,,,,,,,,,,,,,,,,,,a,1,0.7953,"[""0.213"",""0.369"",""0.464"",""0.877""]","[1,1,0,1]",0,56,56,56,1,0,1,,,1,FALSE,,,,,,,,,,,,,,,,,,,,,,,,,,,,,,,
,612ece428a05456e8c139f24,627c7479cb81e9d0f83ab706,2022-05-11_22h44.21.019,classification_task,2021.2.3,Win32,59.97720866,627c6715c52fd12f31907bcf,,,,,,,,,,,,,,,,,,,,,,,l,1,2.0963,"[""0.080"",""0.301"",""0.590"",""0.833""]","[1,1,0,1]",0,57,57,57,1,1,1,,,1,FALSE,,,,,,,,,,,,,,,,,,,,,,,,,,,,,,,
,612ece428a05456e8c139f24,627c7479cb81e9d0f83ab706,2022-05-11_22h44.21.019,classification_task,2021.2.3,Win32,59.97720866,627c6715c52fd12f31907bcf,,,,,,,,,,,,,,,,,,,,,,,l,1,1.1001,"[""0.080"",""0.459"",""0.538"",""0.833""]","[1,0,1,1]",0,58,58,58,1,1,1,,,1,FALSE,,,,,,,,,,,,,,,,,,,,,,,,,,,,,,,
,612ece428a05456e8c139f24,627c7479cb81e9d0f83ab706,2022-05-11_22h44.21.019,classification_task,2021.2.3,Win32,59.97720866,627c6715c52fd12f31907bcf,,,,,,,,,,,,,,,,,,,,,,,a,1,0.8816,"[""0.177"",""0.422"",""0.678"",""0.935""]","[1,1,0,1]",0,59,59,59,1,0,0,,,1,FALSE,,,,,,,,,,,,,,,,,,,,,,,,,,,,,,,
,612ece428a05456e8c139f24,627c7479cb81e9d0f83ab706,2022-05-11_22h44.21.019,classification_task,2021.2.3,Win32,59.97720866,627c6715c52fd12f31907bcf,,,,,,,,,,,,,,,,,,,,,,,l,1,1.4685,"[""0.471"",""0.301"",""0.538"",""0.833""]","[0,1,1,1]",0,60,60,60,1,1,1,,,1,FALSE,,,,,,,,,,,,,,,,,,,,,,,,,,,,,,,
,612ece428a05456e8c139f24,627c7479cb81e9d0f83ab706,2022-05-11_22h44.21.019,classification_task,2021.2.3,Win32,59.97720866,627c6715c52fd12f31907bcf,,,,,,,,,,,,,,,,,,,,,,,a,1,0.9214,"[""0.213"",""0.369"",""0.713"",""0.464""]","[1,1,1,0]",0,61,61,61,1,0,1,,,1,FALSE,,,,,,,,,,,,,,,,,,,,,,,,,,,,,,,
,612ece428a05456e8c139f24,627c7479cb81e9d0f83ab706,2022-05-11_22h44.21.019,classification_task,2021.2.3,Win32,59.97720866,627c6715c52fd12f31907bcf,,,,,,,,,,,,,,,,,,,,,,,a,1,2.2637,"[""0.213"",""0.679"",""0.713"",""0.877""]","[1,0,1,1]",0,62,62,62,1,0,1,,,1,FALSE,,,,,,,,,,,,,,,,,,,,,,,,,,,,,,,
,612ece428a05456e8c139f24,627c7479cb81e9d0f83ab706,2022-05-11_22h44.21.019,classification_task,2021.2.3,Win32,59.97720866,627c6715c52fd12f31907bcf,,,,,,,,,,,,,,,,,,,,,,,l,1,1.1461,"[""0.080"",""0.301"",""0.538"",""0.046""]","[1,1,1,0]",0,63,63,63,1,1,1,,,1,FALSE,,,,,,,,,,,,,,,,,,,,,,,,,,,,,,,
,612ece428a05456e8c139f24,627c7479cb81e9d0f83ab706,2022-05-11_22h44.21.019,classification_task,2021.2.3,Win32,59.97720866,627c6715c52fd12f31907bcf,,,,,,,,,,,,,,,,,,,,,,,,,,,,,,,,,,,,,,,0, ,,0,4.216147364,181.8778,0,1,1,1,1,2,2,,,,,,,,,,,,,,,,,,
,612ece428a05456e8c139f24,627c7479cb81e9d0f83ab706,2022-05-11_22h44.21.019,classification_task,2021.2.3,Win32,59.97720866,627c6715c52fd12f31907bcf,,,,,,,,,,,,,,,,,,,,,,,,,,,,,,,,,,,,,,,1,  ,,0,8.57632765,185.5309,0,1,1,1,1,2,2,,,,,,,,,,,,,,,,,,
,612ece428a05456e8c139f24,627c7479cb81e9d0f83ab706,2022-05-11_22h44.21.019,classification_task,2021.2.3,Win32,59.97720866,627c6715c52fd12f31907bcf,,,,,,,,,,,,,,,,,,,,,,,,,,,,,,,,,,,,,,,2,  ,,0,3.211836175,186.7414,0,1,1,1,1,2,2,,,,,,,,,,,,,,,,,,
,612ece428a05456e8c139f24,627c7479cb81e9d0f83ab706,2022-05-11_22h44.21.019,classification_task,2021.2.3,Win32,59.97720866,627c6715c52fd12f31907bcf,,,,,,,,,,,,,,,,,,,,,,,,,,,,,,,,,,,,,,,,,,,,,0,1,1,1,1,,2,,,,,,,,,,,,,,,,,,
,612ece428a05456e8c139f24,627c7479cb81e9d0f83ab706,2022-05-11_22h44.21.019,classification_task,2021.2.3,Win32,59.97720866,627c6715c52fd12f31907bcf,,,,,,,,,,,,,,,,,,,,,space,3.4806,a,0,4.3586,"[""0.080"",""0.301"",""0.041"",""0.833""]","[1,1,0,1]",0,0,0,0,1,1,1,,,1,FALSE,,,,,,,,,,,,,,,,,,,,,,,,,,,,,,,
,612ece428a05456e8c139f24,627c7479cb81e9d0f83ab706,2022-05-11_22h44.21.019,classification_task,2021.2.3,Win32,59.97720866,627c6715c52fd12f31907bcf,,,,,,,,,,,,,,,,,,,,,,,a,1,3.0702,"[""0.177"",""0.422"",""0.754"",""0.676""]","[1,1,1,0]",0,1,1,1,1,0,0,,,1,FALSE,,,,,,,,,,,,,,,,,,,,,,,,,,,,,,,
,612ece428a05456e8c139f24,627c7479cb81e9d0f83ab706,2022-05-11_22h44.21.019,classification_task,2021.2.3,Win32,59.97720866,627c6715c52fd12f31907bcf,,,,,,,,,,,,,,,,,,,,,,,l,1,0.8126,"[""0.117"",""0.251"",""0.626"",""0.041""]","[1,1,1,0]",0,2,2,2,1,1,0,,,1,FALSE,,,,,,,,,,,,,,,,,,,,,,,,,,,,,,,
,612ece428a05456e8c139f24,627c7479cb81e9d0f83ab706,2022-05-11_22h44.21.019,classification_task,2021.2.3,Win32,59.97720866,627c6715c52fd12f31907bcf,,,,,,,,,,,,,,,,,,,,,,,a,1,0.579,"[""0.213"",""0.369"",""0.713"",""0.584""]","[1,1,1,0]",0,3,3,3,1,0,1,,,1,FALSE,,,,,,,,,,,,,,,,,,,,,,,,,,,,,,,
,612ece428a05456e8c139f24,627c7479cb81e9d0f83ab706,2022-05-11_22h44.21.019,classification_task,2021.2.3,Win32,59.97720866,627c6715c52fd12f31907bcf,,,,,,,,,,,,,,,,,,,,,,,a,0,0.8722,"[""0.117"",""0.251"",""0.676"",""0.791""]","[1,1,0,1]",0,4,4,4,1,1,0,,,1,FALSE,,,,,,,,,,,,,,,,,,,,,,,,,,,,,,,
,612ece428a05456e8c139f24,627c7479cb81e9d0f83ab706,2022-05-11_22h44.21.019,classification_task,2021.2.3,Win32,59.97720866,627c6715c52fd12f31907bcf,,,,,,,,,,,,,,,,,,,,,,,l,0,0.4586,"[""0.459"",""0.422"",""0.754"",""0.935""]","[0,1,1,1]",0,5,5,5,1,0,0,,,1,FALSE,,,,,,,,,,,,,,,,,,,,,,,,,,,,,,,
,612ece428a05456e8c139f24,627c7479cb81e9d0f83ab706,2022-05-11_22h44.21.019,classification_task,2021.2.3,Win32,59.97720866,627c6715c52fd12f31907bcf,,,,,,,,,,,,,,,,,,,,,,,a,1,0.8054,"[""0.213"",""0.369"",""0.581"",""0.877""]","[1,1,0,1]",0,6,6,6,1,0,1,,,1,FALSE,,,,,,,,,,,,,,,,,,,,,,,,,,,,,,,
,612ece428a05456e8c139f24,627c7479cb81e9d0f83ab706,2022-05-11_22h44.21.019,classification_task,2021.2.3,Win32,59.97720866,627c6715c52fd12f31907bcf,,,,,,,,,,,,,,,,,,,,,,,a,1,0.6296,"[""0.678"",""0.369"",""0.713"",""0.877""]","[0,1,1,1]",0,7,7,7,1,0,1,,,1,FALSE,,,,,,,,,,,,,,,,,,,,,,,,,,,,,,,
,612ece428a05456e8c139f24,627c7479cb81e9d0f83ab706,2022-05-11_22h44.21.019,classification_task,2021.2.3,Win32,59.97720866,627c6715c52fd12f31907bcf,,,,,,,,,,,,,,,,,,,,,,,l,0,8.2412,"[""0.213"",""0.581"",""0.713"",""0.877""]","[1,0,1,1]",0,8,8,8,1,0,1,,,1,FALSE,,,,,,,,,,,,,,,,,,,,,,,,,,,,,,,
,612ece428a05456e8c139f24,627c7479cb81e9d0f83ab706,2022-05-11_22h44.21.019,classification_task,2021.2.3,Win32,59.97720866,627c6715c52fd12f31907bcf,,,,,,,,,,,,,,,,,,,,,,,a,1,0.5785,"[""0.177"",""0.464"",""0.754"",""0.935""]","[1,0,1,1]",0,9,9,9,1,0,0,,,1,FALSE,,,,,,,,,,,,,,,,,,,,,,,,,,,,,,,
,612ece428a05456e8c139f24,627c7479cb81e9d0f83ab706,2022-05-11_22h44.21.019,classification_task,2021.2.3,Win32,59.97720866,627c6715c52fd12f31907bcf,,,,,,,,,,,,,,,,,,,,,,,l,1,0.535,"[""0.471"",""0.301"",""0.538"",""0.833""]","[0,1,1,1]",0,10,10,10,1,1,1,,,1,FALSE,,,,,,,,,,,,,,,,,,,,,,,,,,,,,,,
,612ece428a05456e8c139f24,627c7479cb81e9d0f83ab706,2022-05-11_22h44.21.019,classification_task,2021.2.3,Win32,59.97720866,627c6715c52fd12f31907bcf,,,,,,,,,,,,,,,,,,,,,,,l,1,0.5375,"[""0.080"",""0.301"",""0.538"",""0.660""]","[1,1,1,0]",0,11,11,11,1,1,1,,,1,FALSE,,,,,,,,,,,,,,,,,,,,,,,,,,,,,,,
,612ece428a05456e8c139f24,627c7479cb81e9d0f83ab706,2022-05-11_22h44.21.019,classification_task,2021.2.3,Win32,59.97720866,627c6715c52fd12f31907bcf,,,,,,,,,,,,,,,,,,,,,,,a,0,0.5375,"[""0.117"",""0.677"",""0.626"",""0.791""]","[1,0,1,1]",0,12,12,12,1,1,0,,,1,FALSE,,,,,,,,,,,,,,,,,,,,,,,,,,,,,,,
,612ece428a05456e8c139f24,627c7479cb81e9d0f83ab706,2022-05-11_22h44.21.019,classification_task,2021.2.3,Win32,59.97720866,627c6715c52fd12f31907bcf,,,,,,,,,,,,,,,,,,,,,,,a,0,0.7321,"[""0.080"",""0.479"",""0.538"",""0.833""]","[1,0,1,1]",0,13,13,13,1,1,1,,,1,FALSE,,,,,,,,,,,,,,,,,,,,,,,,,,,,,,,
,612ece428a05456e8c139f24,627c7479cb81e9d0f83ab706,2022-05-11_22h44.21.019,classification_task,2021.2.3,Win32,59.97720866,627c6715c52fd12f31907bcf,,,,,,,,,,,,,,,,,,,,,,,l,0,0.5327,"[""0.177"",""0.422"",""0.459"",""0.935""]","[1,1,0,1]",0,14,14,14,1,0,0,,,1,FALSE,,,,,,,,,,,,,,,,,,,,,,,,,,,,,,,
,612ece428a05456e8c139f24,627c7479cb81e9d0f83ab706,2022-05-11_22h44.21.019,classification_task,2021.2.3,Win32,59.97720866,627c6715c52fd12f31907bcf,,,,,,,,,,,,,,,,,,,,,,,a,0,0.5777,"[""0.459"",""0.251"",""0.626"",""0.791""]","[0,1,1,1]",0,15,15,15,1,1,0,,,1,FALSE,,,,,,,,,,,,,,,,,,,,,,,,,,,,,,,
,612ece428a05456e8c139f24,627c7479cb81e9d0f83ab706,2022-05-11_22h44.21.019,classification_task,2021.2.3,Win32,59.97720866,627c6715c52fd12f31907bcf,,,,,,,,,,,,,,,,,,,,,,,a,1,1.1502,"[""0.177"",""0.422"",""0.584"",""0.935""]","[1,1,0,1]",0,16,16,16,1,0,0,,,1,FALSE,,,,,,,,,,,,,,,,,,,,,,,,,,,,,,,
,612ece428a05456e8c139f24,627c7479cb81e9d0f83ab706,2022-05-11_22h44.21.019,classification_task,2021.2.3,Win32,59.97720866,627c6715c52fd12f31907bcf,,,,,,,,,,,,,,,,,,,,,,,a,0,0.8145,"[""0.080"",""0.676"",""0.538"",""0.833""]","[1,0,1,1]",0,17,17,17,1,1,1,,,1,FALSE,,,,,,,,,,,,,,,,,,,,,,,,,,,,,,,
,612ece428a05456e8c139f24,627c7479cb81e9d0f83ab706,2022-05-11_22h44.21.019,classification_task,2021.2.3,Win32,59.97720866,627c6715c52fd12f31907bcf,,,,,,,,,,,,,,,,,,,,,,,a,0,1.5534,"[""0.479"",""0.301"",""0.538"",""0.833""]","[0,1,1,1]",0,18,18,18,1,1,1,,,1,FALSE,,,,,,,,,,,,,,,,,,,,,,,,,,,,,,,
,612ece428a05456e8c139f24,627c7479cb81e9d0f83ab706,2022-05-11_22h44.21.019,classification_task,2021.2.3,Win32,59.97720866,627c6715c52fd12f31907bcf,,,,,,,,,,,,,,,,,,,,,,,a,1,8.7803,"[""0.213"",""0.369"",""0.713"",""0.041""]","[1,1,1,0]",0,19,19,19,1,0,1,,,1,FALSE,,,,,,,,,,,,,,,,,,,,,,,,,,,,,,,
,612ece428a05456e8c139f24,627c7479cb81e9d0f83ab706,2022-05-11_22h44.21.019,classification_task,2021.2.3,Win32,59.97720866,627c6715c52fd12f31907bcf,,,,,,,,,,,,,,,,,,,,,,,a,0,2.3033,"[""0.080"",""0.301"",""0.538"",""0.479""]","[1,1,1,0]",0,20,20,20,1,1,1,,,1,FALSE,,,,,,,,,,,,,,,,,,,,,,,,,,,,,,,
,612ece428a05456e8c139f24,627c7479cb81e9d0f83ab706,2022-05-11_22h44.21.019,classification_task,2021.2.3,Win32,59.97720866,627c6715c52fd12f31907bcf,,,,,,,,,,,,,,,,,,,,,,,a,1,1.2509,"[""0.213"",""0.471"",""0.713"",""0.877""]","[1,0,1,1]",0,21,21,21,1,0,1,,,1,FALSE,,,,,,,,,,,,,,,,,,,,,,,,,,,,,,,
,612ece428a05456e8c139f24,627c7479cb81e9d0f83ab706,2022-05-11_22h44.21.019,classification_task,2021.2.3,Win32,59.97720866,627c6715c52fd12f31907bcf,,,,,,,,,,,,,,,,,,,,,,,l,1,1.1949,"[""0.117"",""0.251"",""0.626"",""0.584""]","[1,1,1,0]",0,22,22,22,1,1,0,,,1,FALSE,,,,,,,,,,,,,,,,,,,,,,,,,,,,,,,
,612ece428a05456e8c139f24,627c7479cb81e9d0f83ab706,2022-05-11_22h44.21.019,classification_task,2021.2.3,Win32,59.97720866,627c6715c52fd12f31907bcf,,,,,,,,,,,,,,,,,,,,,,,a,1,2.9368,"[""0.213"",""0.369"",""0.581"",""0.877""]","[1,1,0,1]",0,23,23,23,1,0,1,,,1,FALSE,,,,,,,,,,,,,,,,,,,,,,,,,,,,,,,
,612ece428a05456e8c139f24,627c7479cb81e9d0f83ab706,2022-05-11_22h44.21.019,classification_task,2021.2.3,Win32,59.97720866,627c6715c52fd12f31907bcf,,,,,,,,,,,,,,,,,,,,,,,l,1,1.6176,"[""0.117"",""0.251"",""0.590"",""0.791""]","[1,1,0,1]",0,24,24,24,1,1,0,,,1,FALSE,,,,,,,,,,,,,,,,,,,,,,,,,,,,,,,
,612ece428a05456e8c139f24,627c7479cb81e9d0f83ab706,2022-05-11_22h44.21.019,classification_task,2021.2.3,Win32,59.97720866,627c6715c52fd12f31907bcf,,,,,,,,,,,,,,,,,,,,,,,l,1,1.1439,"[""0.117"",""0.975"",""0.626"",""0.791""]","[1,0,1,1]",0,25,25,25,1,1,0,,,1,FALSE,,,,,,,,,,,,,,,,,,,,,,,,,,,,,,,
,612ece428a05456e8c139f24,627c7479cb81e9d0f83ab706,2022-05-11_22h44.21.019,classification_task,2021.2.3,Win32,59.97720866,627c6715c52fd12f31907bcf,,,,,,,,,,,,,,,,,,,,,,,a,1,0.9491,"[""0.177"",""0.471"",""0.754"",""0.935""]","[1,0,1,1]",0,26,26,26,1,0,0,,,1,FALSE,,,,,,,,,,,,,,,,,,,,,,,,,,,,,,,
,612ece428a05456e8c139f24,627c7479cb81e9d0f83ab706,2022-05-11_22h44.21.019,classification_task,2021.2.3,Win32,59.97720866,627c6715c52fd12f31907bcf,,,,,,,,,,,,,,,,,,,,,,,a,1,1.357,"[""0.584"",""0.422"",""0.754"",""0.935""]","[0,1,1,1]",0,27,27,27,1,0,0,,,1,FALSE,,,,,,,,,,,,,,,,,,,,,,,,,,,,,,,
,612ece428a05456e8c139f24,627c7479cb81e9d0f83ab706,2022-05-11_22h44.21.019,classification_task,2021.2.3,Win32,59.97720866,627c6715c52fd12f31907bcf,,,,,,,,,,,,,,,,,,,,,,,a,1,0.6551,"[""0.177"",""0.422"",""0.754"",""0.660""]","[1,1,1,0]",0,28,28,28,1,0,0,,,1,FALSE,,,,,,,,,,,,,,,,,,,,,,,,,,,,,,,
,612ece428a05456e8c139f24,627c7479cb81e9d0f83ab706,2022-05-11_22h44.21.019,classification_task,2021.2.3,Win32,59.97720866,627c6715c52fd12f31907bcf,,,,,,,,,,,,,,,,,,,,,,,l,1,1.6446,"[""0.080"",""0.301"",""0.660"",""0.833""]","[1,1,0,1]",0,29,29,29,1,1,1,,,1,FALSE,,,,,,,,,,,,,,,,,,,,,,,,,,,,,,,
,612ece428a05456e8c139f24,627c7479cb81e9d0f83ab706,2022-05-11_22h44.21.019,classification_task,2021.2.3,Win32,59.97720866,627c6715c52fd12f31907bcf,,,,,,,,,,,,,,,,,,,,,,,l,0,1.1868,"[""0.041"",""0.369"",""0.713"",""0.877""]","[0,1,1,1]",0,30,30,30,1,0,1,,,1,FALSE,,,,,,,,,,,,,,,,,,,,,,,,,,,,,,,
,612ece428a05456e8c139f24,627c7479cb81e9d0f83ab706,2022-05-11_22h44.21.019,classification_task,2021.2.3,Win32,59.97720866,627c6715c52fd12f31907bcf,,,,,,,,,,,,,,,,,,,,,,,l,1,1.191,"[""0.046"",""0.251"",""0.626"",""0.791""]","[0,1,1,1]",0,31,31,31,1,1,0,,,1,FALSE,,,,,,,,,,,,,,,,,,,,,,,,,,,,,,,
,612ece428a05456e8c139f24,627c7479cb81e9d0f83ab706,2022-05-11_22h44.21.019,classification_task,2021.2.3,Win32,59.97720866,627c6715c52fd12f31907bcf,,,,,,,,,,,,,,,,,,,,,,,a,1,1.6355,"[""0.177"",""0.422"",""0.754"",""0.041""]","[1,1,1,0]",0,32,32,32,1,0,0,,,1,FALSE,,,,,,,,,,,,,,,,,,,,,,,,,,,,,,,
,612ece428a05456e8c139f24,627c7479cb81e9d0f83ab706,2022-05-11_22h44.21.019,classification_task,2021.2.3,Win32,59.97720866,627c6715c52fd12f31907bcf,,,,,,,,,,,,,,,,,,,,,,,l,0,0.6268,"[""0.460"",""0.422"",""0.754"",""0.935""]","[0,1,1,1]",0,33,33,33,1,0,0,,,1,FALSE,,,,,,,,,,,,,,,,,,,,,,,,,,,,,,,
,612ece428a05456e8c139f24,627c7479cb81e9d0f83ab706,2022-05-11_22h44.21.019,classification_task,2021.2.3,Win32,59.97720866,627c6715c52fd12f31907bcf,,,,,,,,,,,,,,,,,,,,,,,l,0,0.9321,"[""0.460"",""0.369"",""0.713"",""0.877""]","[0,1,1,1]",0,34,34,34,1,0,1,,,1,FALSE,,,,,,,,,,,,,,,,,,,,,,,,,,,,,,,
,612ece428a05456e8c139f24,627c7479cb81e9d0f83ab706,2022-05-11_22h44.21.019,classification_task,2021.2.3,Win32,59.97720866,627c6715c52fd12f31907bcf,,,,,,,,,,,,,,,,,,,,,,,a,0,0.7823,"[""0.080"",""0.459"",""0.538"",""0.833""]","[1,0,1,1]",0,35,35,35,1,1,1,,,1,FALSE,,,,,,,,,,,,,,,,,,,,,,,,,,,,,,,
,612ece428a05456e8c139f24,627c7479cb81e9d0f83ab706,2022-05-11_22h44.21.019,classification_task,2021.2.3,Win32,59.97720866,627c6715c52fd12f31907bcf,,,,,,,,,,,,,,,,,,,,,,,l,1,1.396,"[""0.117"",""0.460"",""0.626"",""0.791""]","[1,0,1,1]",0,36,36,36,1,1,0,,,1,FALSE,,,,,,,,,,,,,,,,,,,,,,,,,,,,,,,
,612ece428a05456e8c139f24,627c7479cb81e9d0f83ab706,2022-05-11_22h44.21.019,classification_task,2021.2.3,Win32,59.97720866,627c6715c52fd12f31907bcf,,,,,,,,,,,,,,,,,,,,,,,a,1,0.7789,"[""0.177"",""0.422"",""0.479"",""0.935""]","[1,1,0,1]",0,37,37,37,1,0,0,,,1,FALSE,,,,,,,,,,,,,,,,,,,,,,,,,,,,,,,
,612ece428a05456e8c139f24,627c7479cb81e9d0f83ab706,2022-05-11_22h44.21.019,classification_task,2021.2.3,Win32,59.97720866,627c6715c52fd12f31907bcf,,,,,,,,,,,,,,,,,,,,,,,l,0,0.6163,"[""0.213"",""0.369"",""0.677"",""0.877""]","[1,1,0,1]",0,38,38,38,1,0,1,,,1,FALSE,,,,,,,,,,,,,,,,,,,,,,,,,,,,,,,
,612ece428a05456e8c139f24,627c7479cb81e9d0f83ab706,2022-05-11_22h44.21.019,classification_task,2021.2.3,Win32,59.97720866,627c6715c52fd12f31907bcf,,,,,,,,,,,,,,,,,,,,,,,a,1,0.8366,"[""0.177"",""0.679"",""0.754"",""0.935""]","[1,0,1,1]",0,39,39,39,1,0,0,,,1,FALSE,,,,,,,,,,,,,,,,,,,,,,,,,,,,,,,
,612ece428a05456e8c139f24,627c7479cb81e9d0f83ab706,2022-05-11_22h44.21.019,classification_task,2021.2.3,Win32,59.97720866,627c6715c52fd12f31907bcf,,,,,,,,,,,,,,,,,,,,,,,l,0,1.1898,"[""0.213"",""0.584"",""0.713"",""0.877""]","[1,0,1,1]",0,40,40,40,1,0,1,,,1,FALSE,,,,,,,,,,,,,,,,,,,,,,,,,,,,,,,
,612ece428a05456e8c139f24,627c7479cb81e9d0f83ab706,2022-05-11_22h44.21.019,classification_task,2021.2.3,Win32,59.97720866,627c6715c52fd12f31907bcf,,,,,,,,,,,,,,,,,,,,,,,l,1,1.3577,"[""0.117"",""0.251"",""0.626"",""0.460""]","[1,1,1,0]",0,41,41,41,1,1,0,,,1,FALSE,,,,,,,,,,,,,,,,,,,,,,,,,,,,,,,
,612ece428a05456e8c139f24,627c7479cb81e9d0f83ab706,2022-05-11_22h44.21.019,classification_task,2021.2.3,Win32,59.97720866,627c6715c52fd12f31907bcf,,,,,,,,,,,,,,,,,,,,,,,a,0,1.3428,"[""0.080"",""0.301"",""0.538"",""0.590""]","[1,1,1,0]",0,42,42,42,1,1,1,,,1,FALSE,,,,,,,,,,,,,,,,,,,,,,,,,,,,,,,
,612ece428a05456e8c139f24,627c7479cb81e9d0f83ab706,2022-05-11_22h44.21.019,classification_task,2021.2.3,Win32,59.97720866,627c6715c52fd12f31907bcf,,,,,,,,,,,,,,,,,,,,,,,l,1,0.9794,"[""0.080"",""0.301"",""0.041"",""0.833""]","[1,1,0,1]",0,43,43,43,1,1,1,,,1,FALSE,,,,,,,,,,,,,,,,,,,,,,,,,,,,,,,
,612ece428a05456e8c139f24,627c7479cb81e9d0f83ab706,2022-05-11_22h44.21.019,classification_task,2021.2.3,Win32,59.97720866,627c6715c52fd12f31907bcf,,,,,,,,,,,,,,,,,,,,,,,a,0,0.9378,"[""0.460"",""0.301"",""0.538"",""0.833""]","[0,1,1,1]",0,44,44,44,1,1,1,,,1,FALSE,,,,,,,,,,,,,,,,,,,,,,,,,,,,,,,
,612ece428a05456e8c139f24,627c7479cb81e9d0f83ab706,2022-05-11_22h44.21.019,classification_task,2021.2.3,Win32,59.97720866,627c6715c52fd12f31907bcf,,,,,,,,,,,,,,,,,,,,,,,l,1,2.2042,"[""0.679"",""0.251"",""0.626"",""0.791""]","[0,1,1,1]",0,45,45,45,1,1,0,,,1,FALSE,,,,,,,,,,,,,,,,,,,,,,,,,,,,,,,
,612ece428a05456e8c139f24,627c7479cb81e9d0f83ab706,2022-05-11_22h44.21.019,classification_task,2021.2.3,Win32,59.97720866,627c6715c52fd12f31907bcf,,,,,,,,,,,,,,,,,,,,,,,l,0,1.8517,"[""0.213"",""0.369"",""0.713"",""0.581""]","[1,1,1,0]",0,46,46,46,1,0,1,,,1,FALSE,,,,,,,,,,,,,,,,,,,,,,,,,,,,,,,
,612ece428a05456e8c139f24,627c7479cb81e9d0f83ab706,2022-05-11_22h44.21.019,classification_task,2021.2.3,Win32,59.97720866,627c6715c52fd12f31907bcf,,,,,,,,,,,,,,,,,,,,,,,l,1,1.2831,"[""0.117"",""0.251"",""0.676"",""0.791""]","[1,1,0,1]",0,47,47,47,1,1,0,,,1,FALSE,,,,,,,,,,,,,,,,,,,,,,,,,,,,,,,
,612ece428a05456e8c139f24,627c7479cb81e9d0f83ab706,2022-05-11_22h44.21.019,classification_task,2021.2.3,Win32,59.97720866,627c6715c52fd12f31907bcf,,,,,,,,,,,,,,,,,,,,,,,l,0,0.923,"[""0.213"",""0.369"",""0.581"",""0.877""]","[1,1,0,1]",0,48,48,48,1,0,1,,,1,FALSE,,,,,,,,,,,,,,,,,,,,,,,,,,,,,,,
,612ece428a05456e8c139f24,627c7479cb81e9d0f83ab706,2022-05-11_22h44.21.019,classification_task,2021.2.3,Win32,59.97720866,627c6715c52fd12f31907bcf,,,,,,,,,,,,,,,,,,,,,,,l,1,0.585,"[""0.080"",""0.301"",""0.538"",""0.975""]","[1,1,1,0]",0,49,49,49,1,1,1,,,1,FALSE,,,,,,,,,,,,,,,,,,,,,,,,,,,,,,,
,612ece428a05456e8c139f24,627c7479cb81e9d0f83ab706,2022-05-11_22h44.21.019,classification_task,2021.2.3,Win32,59.97720866,627c6715c52fd12f31907bcf,,,,,,,,,,,,,,,,,,,,,,,l,0,0.804,"[""0.213"",""0.369"",""0.713"",""0.679""]","[1,1,1,0]",0,50,50,50,1,0,1,,,1,FALSE,,,,,,,,,,,,,,,,,,,,,,,,,,,,,,,
,612ece428a05456e8c139f24,627c7479cb81e9d0f83ab706,2022-05-11_22h44.21.019,classification_task,2021.2.3,Win32,59.97720866,627c6715c52fd12f31907bcf,,,,,,,,,,,,,,,,,,,,,,,l,0,0.8717,"[""0.213"",""0.676"",""0.713"",""0.877""]","[1,0,1,1]",0,51,51,51,1,0,1,,,1,FALSE,,,,,,,,,,,,,,,,,,,,,,,,,,,,,,,
,612ece428a05456e8c139f24,627c7479cb81e9d0f83ab706,2022-05-11_22h44.21.019,classification_task,2021.2.3,Win32,59.97720866,627c6715c52fd12f31907bcf,,,,,,,,,,,,,,,,,,,,,,,a,1,0.9033,"[""0.177"",""0.676"",""0.754"",""0.935""]","[1,0,1,1]",0,52,52,52,1,0,0,,,1,FALSE,,,,,,,,,,,,,,,,,,,,,,,,,,,,,,,
,612ece428a05456e8c139f24,627c7479cb81e9d0f83ab706,2022-05-11_22h44.21.019,classification_task,2021.2.3,Win32,59.97720866,627c6715c52fd12f31907bcf,,,,,,,,,,,,,,,,,,,,,,,l,0,1.7342,"[""0.590"",""0.422"",""0.754"",""0.935""]","[0,1,1,1]",0,53,53,53,1,0,0,,,1,FALSE,,,,,,,,,,,,,,,,,,,,,,,,,,,,,,,
,612ece428a05456e8c139f24,627c7479cb81e9d0f83ab706,2022-05-11_22h44.21.019,classification_task,2021.2.3,Win32,59.97720866,627c6715c52fd12f31907bcf,,,,,,,,,,,,,,,,,,,,,,,a,0,0.818,"[""0.080"",""0.471"",""0.538"",""0.833""]","[1,0,1,1]",0,54,54,54,1,1,1,,,1,FALSE,,,,,,,,,,,,,,,,,,,,,,,,,,,,,,,
,612ece428a05456e8c139f24,627c7479cb81e9d0f83ab706,2022-05-11_22h44.21.019,classification_task,2021.2.3,Win32,59.97720866,627c6715c52fd12f31907bcf,,,,,,,,,,,,,,,,,,,,,,,l,0,0.6236,"[""0.590"",""0.369"",""0.713"",""0.877""]","[0,1,1,1]",0,55,55,55,1,0,1,,,1,FALSE,,,,,,,,,,,,,,,,,,,,,,,,,,,,,,,
,612ece428a05456e8c139f24,627c7479cb81e9d0f83ab706,2022-05-11_22h44.21.019,classification_task,2021.2.3,Win32,59.97720866,627c6715c52fd12f31907bcf,,,,,,,,,,,,,,,,,,,,,,,l,1,1.1484,"[""0.117"",""0.046"",""0.626"",""0.791""]","[1,0,1,1]",0,56,56,56,1,1,0,,,1,FALSE,,,,,,,,,,,,,,,,,,,,,,,,,,,,,,,
,612ece428a05456e8c139f24,627c7479cb81e9d0f83ab706,2022-05-11_22h44.21.019,classification_task,2021.2.3,Win32,59.97720866,627c6715c52fd12f31907bcf,,,,,,,,,,,,,,,,,,,,,,,a,0,1.3565,"[""0.117"",""0.251"",""0.626"",""0.046""]","[1,1,1,0]",0,57,57,57,1,1,0,,,1,FALSE,,,,,,,,,,,,,,,,,,,,,,,,,,,,,,,
,612ece428a05456e8c139f24,627c7479cb81e9d0f83ab706,2022-05-11_22h44.21.019,classification_task,2021.2.3,Win32,59.97720866,627c6715c52fd12f31907bcf,,,,,,,,,,,,,,,,,,,,,,,a,1,0.6656,"[""0.177"",""0.422"",""0.678"",""0.935""]","[1,1,0,1]",0,58,58,58,1,0,0,,,1,FALSE,,,,,,,,,,,,,,,,,,,,,,,,,,,,,,,
,612ece428a05456e8c139f24,627c7479cb81e9d0f83ab706,2022-05-11_22h44.21.019,classification_task,2021.2.3,Win32,59.97720866,627c6715c52fd12f31907bcf,,,,,,,,,,,,,,,,,,,,,,,a,1,0.5769,"[""0.177"",""0.422"",""0.754"",""0.590""]","[1,1,1,0]",0,59,59,59,1,0,0,,,1,FALSE,,,,,,,,,,,,,,,,,,,,,,,,,,,,,,,
,612ece428a05456e8c139f24,627c7479cb81e9d0f83ab706,2022-05-11_22h44.21.019,classification_task,2021.2.3,Win32,59.97720866,627c6715c52fd12f31907bcf,,,,,,,,,,,,,,,,,,,,,,,l,1,1.6371,"[""0.080"",""0.301"",""0.660"",""0.833""]","[1,1,0,1]",0,60,60,60,1,1,1,,,1,FALSE,,,,,,,,,,,,,,,,,,,,,,,,,,,,,,,
,612ece428a05456e8c139f24,627c7479cb81e9d0f83ab706,2022-05-11_22h44.21.019,classification_task,2021.2.3,Win32,59.97720866,627c6715c52fd12f31907bcf,,,,,,,,,,,,,,,,,,,,,,,l,1,1.0283,"[""0.464"",""0.251"",""0.626"",""0.791""]","[0,1,1,1]",0,61,61,61,1,1,0,,,1,FALSE,,,,,,,,,,,,,,,,,,,,,,,,,,,,,,,
,612ece428a05456e8c139f24,627c7479cb81e9d0f83ab706,2022-05-11_22h44.21.019,classification_task,2021.2.3,Win32,59.97720866,627c6715c52fd12f31907bcf,,,,,,,,,,,,,,,,,,,,,,,a,0,0.6508,"[""0.581"",""0.301"",""0.538"",""0.833""]","[0,1,1,1]",0,62,62,62,1,1,1,,,1,FALSE,,,,,,,,,,,,,,,,,,,,,,,,,,,,,,,
,612ece428a05456e8c139f24,627c7479cb81e9d0f83ab706,2022-05-11_22h44.21.019,classification_task,2021.2.3,Win32,59.97720866,627c6715c52fd12f31907bcf,,,,,,,,,,,,,,,,,,,,,,,l,1,0.4916,"[""0.117"",""0.251"",""0.677"",""0.791""]","[1,1,0,1]",0,63,63,63,1,1,0,,,1,FALSE,,,,,,,,,,,,,,,,,,,,,,,,,,,,,,,
,612ece428a05456e8c139f24,627c7479cb81e9d0f83ab706,2022-05-11_22h44.21.019,classification_task,2021.2.3,Win32,59.97720866,627c6715c52fd12f31907bcf,,,,,,,,,,,,,,,,,,,,,,,,,,,,,,,,,,,,,,,0, ,,0,1.546149324,161.5148,0,2,2,2,1,2,3,,,,,,,,,,,,,,,,,,
,612ece428a05456e8c139f24,627c7479cb81e9d0f83ab706,2022-05-11_22h44.21.019,classification_task,2021.2.3,Win32,59.97720866,627c6715c52fd12f31907bcf,,,,,,,,,,,,,,,,,,,,,,,,,,,,,,,,,,,,,,,1,  ,,0,10,163.7397,0,2,2,2,1,2,3,,,,,,,,,,,,,,,,,,
,612ece428a05456e8c139f24,627c7479cb81e9d0f83ab706,2022-05-11_22h44.21.019,classification_task,2021.2.3,Win32,59.97720866,627c6715c52fd12f31907bcf,,,,,,,,,,,,,,,,,,,,,,,,,,,,,,,,,,,,,,,2,  ,,0,0.933764452,165.445,0,2,2,2,1,2,3,,,,,,,,,,,,,,,,,,
,612ece428a05456e8c139f24,627c7479cb81e9d0f83ab706,2022-05-11_22h44.21.019,classification_task,2021.2.3,Win32,59.97720866,627c6715c52fd12f31907bcf,,,,,,,,,,,,,,,,,,,,,,,,,,,,,,,,,,,,,,,,,,,,,0,2,2,2,1,,3,,,,,,,,,,,,,,,,,,
,612ece428a05456e8c139f24,627c7479cb81e9d0f83ab706,2022-05-11_22h44.21.019,classification_task,2021.2.3,Win32,59.97720866,627c6715c52fd12f31907bcf,,,,,,,,,,,,,,,,,,,,,,,,,,,,,,,,,,,,,,,,,,,,,,,,,,,,,I believe the aid is a competent performer,,0.7,0,5,1151.4396,0,0,0,0,1,0,,,,,
,612ece428a05456e8c139f24,627c7479cb81e9d0f83ab706,2022-05-11_22h44.21.019,classification_task,2021.2.3,Win32,59.97720866,627c6715c52fd12f31907bcf,,,,,,,,,,,,,,,,,,,,,,,,,,,,,,,,,,,,,,,,,,,,,,,,,,,,,I trust the aid,,0.7,0,5,1153.0756,0,0,0,0,1,0,,,,,
,612ece428a05456e8c139f24,627c7479cb81e9d0f83ab706,2022-05-11_22h44.21.019,classification_task,2021.2.3,Win32,59.97720866,627c6715c52fd12f31907bcf,,,,,,,,,,,,,,,,,,,,,,,,,,,,,,,,,,,,,,,,,,,,,,,,,,,,,I have confidence in the advice given by the aid,,0.7,0,5,1156.0389,0,0,0,0,1,0,,,,,
,612ece428a05456e8c139f24,627c7479cb81e9d0f83ab706,2022-05-11_22h44.21.019,classification_task,2021.2.3,Win32,59.97720866,627c6715c52fd12f31907bcf,,,,,,,,,,,,,,,,,,,,,,,,,,,,,,,,,,,,,,,,,,,,,,,,,,,,,I can depend on the aid,,0.7,0,5,1159.49,0,0,0,0,1,0,,,,,
,612ece428a05456e8c139f24,627c7479cb81e9d0f83ab706,2022-05-11_22h44.21.019,classification_task,2021.2.3,Win32,59.97720866,627c6715c52fd12f31907bcf,,,,,,,,,,,,,,,,,,,,,,,,,,,,,,,,,,,,,,,,,,,,,,,,,,,,,I can rely on the aid to behave in consistent ways,,0.7,0,5,1165.0035,0,0,0,0,1,0,,,,,
,612ece428a05456e8c139f24,627c7479cb81e9d0f83ab706,2022-05-11_22h44.21.019,classification_task,2021.2.3,Win32,59.97720866,627c6715c52fd12f31907bcf,,,,,,,,,,,,,,,,,,,,,,,,,,,,,,,,,,,,,,,,,,,,,,,,,,,,,I can rely on the aid to do its best every time I take its advice,,0.7,0,5,1167.9955,0,0,0,0,1,0,,,,,
,612ece428a05456e8c139f24,627c7479cb81e9d0f83ab706,2022-05-11_22h44.21.019,classification_task,2021.2.3,Win32,59.97720866,627c6715c52fd12f31907bcf,,,,,,,,,,,,,,,,,,,,,,,,,,,,,,,,,,,,,,,,,,,,,,,,,,,,,"On trials you completed with assistance from the aid, how frequently did you think the aid was correct?",,0.7,0,95%,,0,0,0,0,1,0,,,,,
,612ece428a05456e8c139f24,627c7479cb81e9d0f83ab706,2022-05-11_22h44.21.019,classification_task,2021.2.3,Win32,59.97720866,627c6715c52fd12f31907bcf,,,,,,,,,,,,,,,,,,,,,,,,,,,,,,,,,,,,,,,,,,,,,,,,,,,,,"On trials you completed without the aid, how frequently did you think you were correct?",,0.7,0,40%,,0,0,0,0,1,0,,,,,
,612ece428a05456e8c139f24,627c7479cb81e9d0f83ab706,2022-05-11_22h44.21.019,classification_task,2021.2.3,Win32,59.97720866,627c6715c52fd12f31907bcf,,,,,,,,,,,,,,,,,,,,,,,,,,,,,,,,,,,,,,,,,,,,,,,,,,,,,,,,,,,0,0,0,0,1,,,,,,
,612ece428a05456e8c139f24,627c7479cb81e9d0f83ab706,2022-05-11_22h44.21.019,classification_task,2021.2.3,Win32,59.97720866,627c6715c52fd12f31907bcf,,,,,,,,,,,,,,,,,,,,,,,,,,,,,,,,,,,,,,,,,,,,,,,,,,,,,,,,,,,,,,,,,space,4.2271,1194.9361,,
,612ece428a05456e8c139f24,627c7479cb81e9d0f83ab706,2022-05-11_22h44.21.019,classification_task,2021.2.3,Win32,59.97720866,627c6715c52fd12f31907bcf,,,,,,,,,,,,,,,,,,,,,,,,,,,,,,,,,,,,,,,,,,,,,,,,,,,,,,,,,,,,,,,,,,,,"Mozilla/5.0 (Windows NT 10.0; Win64; x64) AppleWebKit/537.36 (KHTML, like Gecko) Chrome/101.0.4951.54 Safari/537.36",
,612ece428a05456e8c139f24,627c7479cb81e9d0f83ab706,2022-05-11_22h44.21.019,classification_task,2021.2.3,Win32,59.97720866,627c6715c52fd12f31907bcf,,,,,,,,,,,,,,,,,,,,,,,,,,,,,,,,,,,,,,,,,,,,,,,,,,,,,,,,,,,,,,,,,,,,,FADING
