usingWebGL,participant,session,date,expName,psychopyVersion,OS,frameRate,study_id,signatures_friend,signatures_foe,band_ranges_top,band_ranges_bottom,formitemText,formtype,formundefined,formitemWidth,formindex,formresponse,formrt,key_resp_2.keys,key_resp_2.rt,tute_resp.keys,tute_resp.rt,tutorial.thisRepN,tutorial.thisTrialN,tutorial.thisN,tutorial.thisIndex,tutorial.ran,key_resp_4.keys,key_resp_4.rt,key_resp.keys,key_resp.corr,lines_presented,is_signal_presented,trials.thisRepN,trials.thisTrialN,trials.thisN,trials.thisIndex,trials.ran,vessel,active_band,lines,is_signal,supported_pos,catch_trial,key_resp.rt,debrief_formindex,debrief_formitemText,debrief_formtype,debrief_formitemWidth,debrief_formresponse,debrief_formrt,phases.thisRepN,phases.thisTrialN,phases.thisN,phases.thisIndex,phases.ran,phases.order,phase,key_resp_3.keys,trustitemText,trusttype,trustitemWidth,trustindex,trustresponse,trustrt,support_status.thisRepN,support_status.thisTrialN,support_status.thisN,support_status.thisIndex,support_status.ran,support_status.order,key_resp_5.keys,key_resp_5.rt,globalClockTime,userAgent,manualCondition
TRUE,612f987cfb1894ecd6c33759,627c69483187fb2e2b04aaf7,2022-05-12_03h57.01.577,classification_task,2021.2.3,Win32,59.94125757,627c6715c52fd12f31907bcf,,,,,,,,,,,,,,,,,,,,,,,,,,,,,,,,,,,,,,,,,,,,,,,,,,,,,,,,,,,,,,,,,,,,,
,612f987cfb1894ecd6c33759,627c69483187fb2e2b04aaf7,2022-05-12_03h57.01.577,classification_task,2021.2.3,Win32,59.94125757,627c6715c52fd12f31907bcf,"[[""0.242"",""0.514"",""0.879"",""0.944""],[""0.203"",""0.369"",""0.647"",""0.845""]]","[[""0.105"",""0.312"",""0.454"",""0.767""],[""0.064"",""0.166"",""0.561"",""0.721""]]","[1,10]","[100,1000]",Video game experience,,,0.7,0,,,,,,,,,,,,,,,,,,,,,,,,,,,,,,,,,,,,,,,,,,,,,,,,,,,,,,,,,,,,
,612f987cfb1894ecd6c33759,627c69483187fb2e2b04aaf7,2022-05-12_03h57.01.577,classification_task,2021.2.3,Win32,59.94125757,627c6715c52fd12f31907bcf,,,,,Approximately how many hours did you spend playing video games in the last week?,,,0.7,0,10,,,,,,,,,,,,,,,,,,,,,,,,,,,,,,,,,,,,,,,,,,,,,,,,,,,,,,,,,,,
,612f987cfb1894ecd6c33759,627c69483187fb2e2b04aaf7,2022-05-12_03h57.01.577,classification_task,2021.2.3,Win32,59.94125757,627c6715c52fd12f31907bcf,,,,,"Which game did you play the most this year? (Enter ""None"" if you didn't play any)",,,0.7,0,fifa 16,,,,,,,,,,,,,,,,,,,,,,,,,,,,,,,,,,,,,,,,,,,,,,,,,,,,,,,,,,,
,612f987cfb1894ecd6c33759,627c69483187fb2e2b04aaf7,2022-05-12_03h57.01.577,classification_task,2021.2.3,Win32,59.94125757,627c6715c52fd12f31907bcf,,,,,Visual perception,,,0.7,0,,,,,,,,,,,,,,,,,,,,,,,,,,,,,,,,,,,,,,,,,,,,,,,,,,,,,,,,,,,,
,612f987cfb1894ecd6c33759,627c69483187fb2e2b04aaf7,2022-05-12_03h57.01.577,classification_task,2021.2.3,Win32,59.94125757,627c6715c52fd12f31907bcf,,,,,Do you have any form of color blindness?,,,0.7,0,No,123.1561,,,,,,,,,,,,,,,,,,,,,,,,,,,,,,,,,,,,,,,,,,,,,,,,,,,,,,,,,,
,612f987cfb1894ecd6c33759,627c69483187fb2e2b04aaf7,2022-05-12_03h57.01.577,classification_task,2021.2.3,Win32,59.94125757,627c6715c52fd12f31907bcf,,,,,Do you use software to change the colour temperature of your screen (e.g. f.lux)?,,,0.7,0,No,127.7387,,,,,,,,,,,,,,,,,,,,,,,,,,,,,,,,,,,,,,,,,,,,,,,,,,,,,,,,,,
,612f987cfb1894ecd6c33759,627c69483187fb2e2b04aaf7,2022-05-12_03h57.01.577,classification_task,2021.2.3,Win32,59.94125757,627c6715c52fd12f31907bcf,,,,,,,,,,,,space,92.4561,space,20.3603,0,0,0,0,1,,,,,,,,,,,,,,,,,,,,,,,,,,,,,,,,,,,,,,,,,,,,,,,,,
,612f987cfb1894ecd6c33759,627c69483187fb2e2b04aaf7,2022-05-12_03h57.01.577,classification_task,2021.2.3,Win32,59.94125757,627c6715c52fd12f31907bcf,,,,,,,,,,,,,,space,25.4162,1,0,1,0,1,,,,,,,,,,,,,,,,,,,,,,,,,,,,,,,,,,,,,,,,,,,,,,,,,
,612f987cfb1894ecd6c33759,627c69483187fb2e2b04aaf7,2022-05-12_03h57.01.577,classification_task,2021.2.3,Win32,59.94125757,627c6715c52fd12f31907bcf,,,,,,,,,,,,,,space,56.7153,2,0,2,0,1,,,,,,,,,,,,,,,,,,,,,,,,,,,,,,,,,,,,,,,,,,,,,,,,,
,612f987cfb1894ecd6c33759,627c69483187fb2e2b04aaf7,2022-05-12_03h57.01.577,classification_task,2021.2.3,Win32,59.94125757,627c6715c52fd12f31907bcf,,,,,,,,,,,,,,space,21.9617,3,0,3,0,1,,,,,,,,,,,,,,,,,,,,,,,,,,,,,,,,,,,,,,,,,,,,,,,,,
,612f987cfb1894ecd6c33759,627c69483187fb2e2b04aaf7,2022-05-12_03h57.01.577,classification_task,2021.2.3,Win32,59.94125757,627c6715c52fd12f31907bcf,,,,,,,,,,,,,,space,31.1848,4,0,4,0,1,,,,,,,,,,,,,,,,,,,,,,,,,,,,,,,,,,,,,,,,,,,,,,,,,
,612f987cfb1894ecd6c33759,627c69483187fb2e2b04aaf7,2022-05-12_03h57.01.577,classification_task,2021.2.3,Win32,59.94125757,627c6715c52fd12f31907bcf,,,,,,,,,,,,,,,,,,,,,space,67.3731,,0,"[""0.242"",""0.514"",""0.805"",""0.944""]","[1,1,0,1]",0,0,0,0,1,0,0,,,1,FALSE,,,,,,,,,,,,,,,,,,,,,,,,,,,,,,,,
,612f987cfb1894ecd6c33759,627c69483187fb2e2b04aaf7,2022-05-12_03h57.01.577,classification_task,2021.2.3,Win32,59.94125757,627c6715c52fd12f31907bcf,,,,,,,,,,,,,,,,,,,,,,,l,0,"[""0.417"",""0.369"",""0.647"",""0.845""]","[0,1,1,1]",0,1,1,1,1,0,1,,,1,FALSE,7.4183,,,,,,,,,,,,,,,,,,,,,,,,,,,,,,,
,612f987cfb1894ecd6c33759,627c69483187fb2e2b04aaf7,2022-05-12_03h57.01.577,classification_task,2021.2.3,Win32,59.94125757,627c6715c52fd12f31907bcf,,,,,,,,,,,,,,,,,,,,,,,l,1,"[""0.064"",""0.166"",""0.561"",""0.682""]","[1,1,1,0]",0,2,2,2,1,1,1,,,1,FALSE,4.1771,,,,,,,,,,,,,,,,,,,,,,,,,,,,,,,
,612f987cfb1894ecd6c33759,627c69483187fb2e2b04aaf7,2022-05-12_03h57.01.577,classification_task,2021.2.3,Win32,59.94125757,627c6715c52fd12f31907bcf,,,,,,,,,,,,,,,,,,,,,,,l,0,"[""0.242"",""0.514"",""0.879"",""0.406""]","[1,1,1,0]",0,3,3,3,1,0,0,,,1,FALSE,5.6391,,,,,,,,,,,,,,,,,,,,,,,,,,,,,,,
,612f987cfb1894ecd6c33759,627c69483187fb2e2b04aaf7,2022-05-12_03h57.01.577,classification_task,2021.2.3,Win32,59.94125757,627c6715c52fd12f31907bcf,,,,,,,,,,,,,,,,,,,,,,,a,0,"[""0.682"",""0.312"",""0.454"",""0.767""]","[0,1,1,1]",0,4,4,4,1,1,0,,,1,FALSE,6.0606,,,,,,,,,,,,,,,,,,,,,,,,,,,,,,,
,612f987cfb1894ecd6c33759,627c69483187fb2e2b04aaf7,2022-05-12_03h57.01.577,classification_task,2021.2.3,Win32,59.94125757,627c6715c52fd12f31907bcf,,,,,,,,,,,,,,,,,,,,,,,l,1,"[""0.105"",""0.406"",""0.454"",""0.767""]","[1,0,1,1]",0,5,5,5,1,1,0,,,1,FALSE,2.5614,,,,,,,,,,,,,,,,,,,,,,,,,,,,,,,
,612f987cfb1894ecd6c33759,627c69483187fb2e2b04aaf7,2022-05-12_03h57.01.577,classification_task,2021.2.3,Win32,59.94125757,627c6715c52fd12f31907bcf,,,,,,,,,,,,,,,,,,,,,,,l,1,"[""0.064"",""0.805"",""0.561"",""0.721""]","[1,0,1,1]",0,6,6,6,1,1,1,,,1,FALSE,4.0169,,,,,,,,,,,,,,,,,,,,,,,,,,,,,,,
,612f987cfb1894ecd6c33759,627c69483187fb2e2b04aaf7,2022-05-12_03h57.01.577,classification_task,2021.2.3,Win32,59.94125757,627c6715c52fd12f31907bcf,,,,,,,,,,,,,,,,,,,,,,,l,0,"[""0.242"",""0.682"",""0.879"",""0.944""]","[1,0,1,1]",0,7,7,7,1,0,0,,,1,FALSE,5.9373,,,,,,,,,,,,,,,,,,,,,,,,,,,,,,,
,612f987cfb1894ecd6c33759,627c69483187fb2e2b04aaf7,2022-05-12_03h57.01.577,classification_task,2021.2.3,Win32,59.94125757,627c6715c52fd12f31907bcf,,,,,,,,,,,,,,,,,,,,,,,a,1,"[""0.203"",""0.369"",""0.647"",""0.599""]","[1,1,1,0]",0,8,8,8,1,0,1,,,1,FALSE,5.7494,,,,,,,,,,,,,,,,,,,,,,,,,,,,,,,
,612f987cfb1894ecd6c33759,627c69483187fb2e2b04aaf7,2022-05-12_03h57.01.577,classification_task,2021.2.3,Win32,59.94125757,627c6715c52fd12f31907bcf,,,,,,,,,,,,,,,,,,,,,,,l,1,"[""0.105"",""0.312"",""0.682"",""0.767""]","[1,1,0,1]",0,9,9,9,1,1,0,,,1,FALSE,2.4027,,,,,,,,,,,,,,,,,,,,,,,,,,,,,,,
,612f987cfb1894ecd6c33759,627c69483187fb2e2b04aaf7,2022-05-12_03h57.01.577,classification_task,2021.2.3,Win32,59.94125757,627c6715c52fd12f31907bcf,,,,,,,,,,,,,,,,,,,,,,,l,1,"[""0.030"",""0.166"",""0.561"",""0.721""]","[0,1,1,1]",0,10,10,10,1,1,1,,,1,FALSE,3.2254,,,,,,,,,,,,,,,,,,,,,,,,,,,,,,,
,612f987cfb1894ecd6c33759,627c69483187fb2e2b04aaf7,2022-05-12_03h57.01.577,classification_task,2021.2.3,Win32,59.94125757,627c6715c52fd12f31907bcf,,,,,,,,,,,,,,,,,,,,,,,a,1,"[""0.203"",""0.369"",""0.683"",""0.845""]","[1,1,0,1]",0,11,11,11,1,0,1,,,1,FALSE,6.1785,,,,,,,,,,,,,,,,,,,,,,,,,,,,,,,
,612f987cfb1894ecd6c33759,627c69483187fb2e2b04aaf7,2022-05-12_03h57.01.577,classification_task,2021.2.3,Win32,59.94125757,627c6715c52fd12f31907bcf,,,,,,,,,,,,,,,,,,,,,,,l,1,"[""0.064"",""0.166"",""0.811"",""0.721""]","[1,1,0,1]",0,12,12,12,1,1,1,,,1,FALSE,3.7815,,,,,,,,,,,,,,,,,,,,,,,,,,,,,,,
,612f987cfb1894ecd6c33759,627c69483187fb2e2b04aaf7,2022-05-12_03h57.01.577,classification_task,2021.2.3,Win32,59.94125757,627c6715c52fd12f31907bcf,,,,,,,,,,,,,,,,,,,,,,,l,1,"[""0.105"",""0.312"",""0.454"",""0.811""]","[1,1,1,0]",0,13,13,13,1,1,0,,,1,FALSE,2.5054,,,,,,,,,,,,,,,,,,,,,,,,,,,,,,,
,612f987cfb1894ecd6c33759,627c69483187fb2e2b04aaf7,2022-05-12_03h57.01.577,classification_task,2021.2.3,Win32,59.94125757,627c6715c52fd12f31907bcf,,,,,,,,,,,,,,,,,,,,,,,l,0,"[""0.203"",""0.417"",""0.647"",""0.845""]","[1,0,1,1]",0,14,14,14,1,0,1,,,1,FALSE,6.2534,,,,,,,,,,,,,,,,,,,,,,,,,,,,,,,
,612f987cfb1894ecd6c33759,627c69483187fb2e2b04aaf7,2022-05-12_03h57.01.577,classification_task,2021.2.3,Win32,59.94125757,627c6715c52fd12f31907bcf,,,,,,,,,,,,,,,,,,,,,,,l,0,"[""0.682"",""0.514"",""0.879"",""0.944""]","[0,1,1,1]",0,15,15,15,1,0,0,,,1,FALSE,2.9297,,,,,,,,,,,,,,,,,,,,,,,,,,,,,,,
,612f987cfb1894ecd6c33759,627c69483187fb2e2b04aaf7,2022-05-12_03h57.01.577,classification_task,2021.2.3,Win32,59.94125757,627c6715c52fd12f31907bcf,,,,,,,,,,,,,,,,,,,,,,,l,1,"[""0.105"",""0.682"",""0.454"",""0.767""]","[1,0,1,1]",0,16,16,16,1,1,0,,,1,FALSE,7.1947,,,,,,,,,,,,,,,,,,,,,,,,,,,,,,,
,612f987cfb1894ecd6c33759,627c69483187fb2e2b04aaf7,2022-05-12_03h57.01.577,classification_task,2021.2.3,Win32,59.94125757,627c6715c52fd12f31907bcf,,,,,,,,,,,,,,,,,,,,,,,l,1,"[""0.030"",""0.166"",""0.561"",""0.721""]","[0,1,1,1]",0,17,17,17,1,1,1,,,1,FALSE,2.7765,,,,,,,,,,,,,,,,,,,,,,,,,,,,,,,
,612f987cfb1894ecd6c33759,627c69483187fb2e2b04aaf7,2022-05-12_03h57.01.577,classification_task,2021.2.3,Win32,59.94125757,627c6715c52fd12f31907bcf,,,,,,,,,,,,,,,,,,,,,,,l,0,"[""0.242"",""0.682"",""0.879"",""0.944""]","[1,0,1,1]",0,18,18,18,1,0,0,,,1,FALSE,4.0801,,,,,,,,,,,,,,,,,,,,,,,,,,,,,,,
,612f987cfb1894ecd6c33759,627c69483187fb2e2b04aaf7,2022-05-12_03h57.01.577,classification_task,2021.2.3,Win32,59.94125757,627c6715c52fd12f31907bcf,,,,,,,,,,,,,,,,,,,,,,,a,1,"[""0.242"",""0.514"",""0.682"",""0.944""]","[1,1,0,1]",0,19,19,19,1,0,0,,,1,FALSE,3.4129,,,,,,,,,,,,,,,,,,,,,,,,,,,,,,,
,612f987cfb1894ecd6c33759,627c69483187fb2e2b04aaf7,2022-05-12_03h57.01.577,classification_task,2021.2.3,Win32,59.94125757,627c6715c52fd12f31907bcf,,,,,,,,,,,,,,,,,,,,,,,l,1,"[""0.064"",""0.805"",""0.561"",""0.721""]","[1,0,1,1]",0,20,20,20,1,1,1,,,1,FALSE,3.6974,,,,,,,,,,,,,,,,,,,,,,,,,,,,,,,
,612f987cfb1894ecd6c33759,627c69483187fb2e2b04aaf7,2022-05-12_03h57.01.577,classification_task,2021.2.3,Win32,59.94125757,627c6715c52fd12f31907bcf,,,,,,,,,,,,,,,,,,,,,,,a,1,"[""0.203"",""0.369"",""0.647"",""0.608""]","[1,1,1,0]",0,21,21,21,1,0,1,,,1,FALSE,4.0152,,,,,,,,,,,,,,,,,,,,,,,,,,,,,,,
,612f987cfb1894ecd6c33759,627c69483187fb2e2b04aaf7,2022-05-12_03h57.01.577,classification_task,2021.2.3,Win32,59.94125757,627c6715c52fd12f31907bcf,,,,,,,,,,,,,,,,,,,,,,,l,1,"[""0.105"",""0.312"",""0.805"",""0.767""]","[1,1,0,1]",0,22,22,22,1,1,0,,,1,FALSE,5.9276,,,,,,,,,,,,,,,,,,,,,,,,,,,,,,,
,612f987cfb1894ecd6c33759,627c69483187fb2e2b04aaf7,2022-05-12_03h57.01.577,classification_task,2021.2.3,Win32,59.94125757,627c6715c52fd12f31907bcf,,,,,,,,,,,,,,,,,,,,,,,l,0,"[""0.683"",""0.369"",""0.647"",""0.845""]","[0,1,1,1]",0,23,23,23,1,0,1,,,1,FALSE,4.1454,,,,,,,,,,,,,,,,,,,,,,,,,,,,,,,
,612f987cfb1894ecd6c33759,627c69483187fb2e2b04aaf7,2022-05-12_03h57.01.577,classification_task,2021.2.3,Win32,59.94125757,627c6715c52fd12f31907bcf,,,,,,,,,,,,,,,,,,,,,,,l,1,"[""0.105"",""0.312"",""0.454"",""0.810""]","[1,1,1,0]",0,24,24,24,1,1,0,,,1,FALSE,5.8868,,,,,,,,,,,,,,,,,,,,,,,,,,,,,,,
,612f987cfb1894ecd6c33759,627c69483187fb2e2b04aaf7,2022-05-12_03h57.01.577,classification_task,2021.2.3,Win32,59.94125757,627c6715c52fd12f31907bcf,,,,,,,,,,,,,,,,,,,,,,,l,0,"[""0.203"",""0.369"",""0.406"",""0.845""]","[1,1,0,1]",0,25,25,25,1,0,1,,,1,FALSE,5.7904,,,,,,,,,,,,,,,,,,,,,,,,,,,,,,,
,612f987cfb1894ecd6c33759,627c69483187fb2e2b04aaf7,2022-05-12_03h57.01.577,classification_task,2021.2.3,Win32,59.94125757,627c6715c52fd12f31907bcf,,,,,,,,,,,,,,,,,,,,,,,a,1,"[""0.810"",""0.514"",""0.879"",""0.944""]","[0,1,1,1]",0,26,26,26,1,0,0,,,1,FALSE,5.8726,,,,,,,,,,,,,,,,,,,,,,,,,,,,,,,
,612f987cfb1894ecd6c33759,627c69483187fb2e2b04aaf7,2022-05-12_03h57.01.577,classification_task,2021.2.3,Win32,59.94125757,627c6715c52fd12f31907bcf,,,,,,,,,,,,,,,,,,,,,,,a,1,"[""0.242"",""0.514"",""0.879"",""0.682""]","[1,1,1,0]",0,27,27,27,1,0,0,,,1,FALSE,7.0715,,,,,,,,,,,,,,,,,,,,,,,,,,,,,,,
,612f987cfb1894ecd6c33759,627c69483187fb2e2b04aaf7,2022-05-12_03h57.01.577,classification_task,2021.2.3,Win32,59.94125757,627c6715c52fd12f31907bcf,,,,,,,,,,,,,,,,,,,,,,,l,1,"[""0.064"",""0.166"",""0.682"",""0.721""]","[1,1,0,1]",0,28,28,28,1,1,1,,,1,FALSE,4.5105,,,,,,,,,,,,,,,,,,,,,,,,,,,,,,,
,612f987cfb1894ecd6c33759,627c69483187fb2e2b04aaf7,2022-05-12_03h57.01.577,classification_task,2021.2.3,Win32,59.94125757,627c6715c52fd12f31907bcf,,,,,,,,,,,,,,,,,,,,,,,a,0,"[""0.608"",""0.312"",""0.454"",""0.767""]","[0,1,1,1]",0,29,29,29,1,1,0,,,1,FALSE,5.3306,,,,,,,,,,,,,,,,,,,,,,,,,,,,,,,
,612f987cfb1894ecd6c33759,627c69483187fb2e2b04aaf7,2022-05-12_03h57.01.577,classification_task,2021.2.3,Win32,59.94125757,627c6715c52fd12f31907bcf,,,,,,,,,,,,,,,,,,,,,,,l,0,"[""0.203"",""0.682"",""0.647"",""0.845""]","[1,0,1,1]",0,30,30,30,1,0,1,,,1,FALSE,3.8344,,,,,,,,,,,,,,,,,,,,,,,,,,,,,,,
,612f987cfb1894ecd6c33759,627c69483187fb2e2b04aaf7,2022-05-12_03h57.01.577,classification_task,2021.2.3,Win32,59.94125757,627c6715c52fd12f31907bcf,,,,,,,,,,,,,,,,,,,,,,,l,1,"[""0.064"",""0.166"",""0.561"",""0.810""]","[1,1,1,0]",0,31,31,31,1,1,1,,,1,FALSE,3.4815,,,,,,,,,,,,,,,,,,,,,,,,,,,,,,,
,612f987cfb1894ecd6c33759,627c69483187fb2e2b04aaf7,2022-05-12_03h57.01.577,classification_task,2021.2.3,Win32,59.94125757,627c6715c52fd12f31907bcf,,,,,,,,,,,,,,,,,,,,,,,a,1,"[""0.242"",""0.514"",""0.811"",""0.944""]","[1,1,0,1]",0,32,32,32,1,0,0,,,1,FALSE,7.2056,,,,,,,,,,,,,,,,,,,,,,,,,,,,,,,
,612f987cfb1894ecd6c33759,627c69483187fb2e2b04aaf7,2022-05-12_03h57.01.577,classification_task,2021.2.3,Win32,59.94125757,627c6715c52fd12f31907bcf,,,,,,,,,,,,,,,,,,,,,,,l,1,"[""0.599"",""0.166"",""0.561"",""0.721""]","[0,1,1,1]",0,33,33,33,1,1,1,,,1,FALSE,3.6639,,,,,,,,,,,,,,,,,,,,,,,,,,,,,,,
,612f987cfb1894ecd6c33759,627c69483187fb2e2b04aaf7,2022-05-12_03h57.01.577,classification_task,2021.2.3,Win32,59.94125757,627c6715c52fd12f31907bcf,,,,,,,,,,,,,,,,,,,,,,,l,0,"[""0.203"",""0.030"",""0.647"",""0.845""]","[1,0,1,1]",0,34,34,34,1,0,1,,,1,FALSE,2.2251,,,,,,,,,,,,,,,,,,,,,,,,,,,,,,,
,612f987cfb1894ecd6c33759,627c69483187fb2e2b04aaf7,2022-05-12_03h57.01.577,classification_task,2021.2.3,Win32,59.94125757,627c6715c52fd12f31907bcf,,,,,,,,,,,,,,,,,,,,,,,a,0,"[""0.105"",""0.312"",""0.454"",""0.406""]","[1,1,1,0]",0,35,35,35,1,1,0,,,1,FALSE,1.9697,,,,,,,,,,,,,,,,,,,,,,,,,,,,,,,
,612f987cfb1894ecd6c33759,627c69483187fb2e2b04aaf7,2022-05-12_03h57.01.577,classification_task,2021.2.3,Win32,59.94125757,627c6715c52fd12f31907bcf,,,,,,,,,,,,,,,,,,,,,,,a,1,"[""0.203"",""0.369"",""0.647"",""0.811""]","[1,1,1,0]",0,36,36,36,1,0,1,,,1,FALSE,2.1424,,,,,,,,,,,,,,,,,,,,,,,,,,,,,,,
,612f987cfb1894ecd6c33759,627c69483187fb2e2b04aaf7,2022-05-12_03h57.01.577,classification_task,2021.2.3,Win32,59.94125757,627c6715c52fd12f31907bcf,,,,,,,,,,,,,,,,,,,,,,,a,0,"[""0.277"",""0.312"",""0.454"",""0.767""]","[0,1,1,1]",0,37,37,37,1,1,0,,,1,FALSE,3.4811,,,,,,,,,,,,,,,,,,,,,,,,,,,,,,,
,612f987cfb1894ecd6c33759,627c69483187fb2e2b04aaf7,2022-05-12_03h57.01.577,classification_task,2021.2.3,Win32,59.94125757,627c6715c52fd12f31907bcf,,,,,,,,,,,,,,,,,,,,,,,l,0,"[""0.416"",""0.514"",""0.879"",""0.944""]","[0,1,1,1]",0,38,38,38,1,0,0,,,1,FALSE,0.9246,,,,,,,,,,,,,,,,,,,,,,,,,,,,,,,
,612f987cfb1894ecd6c33759,627c69483187fb2e2b04aaf7,2022-05-12_03h57.01.577,classification_task,2021.2.3,Win32,59.94125757,627c6715c52fd12f31907bcf,,,,,,,,,,,,,,,,,,,,,,,l,0,"[""0.416"",""0.369"",""0.647"",""0.845""]","[0,1,1,1]",0,39,39,39,1,0,1,,,1,FALSE,1.4776,,,,,,,,,,,,,,,,,,,,,,,,,,,,,,,
,612f987cfb1894ecd6c33759,627c69483187fb2e2b04aaf7,2022-05-12_03h57.01.577,classification_task,2021.2.3,Win32,59.94125757,627c6715c52fd12f31907bcf,,,,,,,,,,,,,,,,,,,,,,,a,0,"[""0.064"",""0.166"",""0.685"",""0.721""]","[1,1,0,1]",0,40,40,40,1,1,1,,,1,FALSE,1.5299,,,,,,,,,,,,,,,,,,,,,,,,,,,,,,,
,612f987cfb1894ecd6c33759,627c69483187fb2e2b04aaf7,2022-05-12_03h57.01.577,classification_task,2021.2.3,Win32,59.94125757,627c6715c52fd12f31907bcf,,,,,,,,,,,,,,,,,,,,,,,a,0,"[""0.105"",""0.406"",""0.454"",""0.767""]","[1,0,1,1]",0,41,41,41,1,1,0,,,1,FALSE,1.6104,,,,,,,,,,,,,,,,,,,,,,,,,,,,,,,
,612f987cfb1894ecd6c33759,627c69483187fb2e2b04aaf7,2022-05-12_03h57.01.577,classification_task,2021.2.3,Win32,59.94125757,627c6715c52fd12f31907bcf,,,,,,,,,,,,,,,,,,,,,,,a,1,"[""0.203"",""0.369"",""0.811"",""0.845""]","[1,1,0,1]",0,42,42,42,1,0,1,,,1,FALSE,1.1217,,,,,,,,,,,,,,,,,,,,,,,,,,,,,,,
,612f987cfb1894ecd6c33759,627c69483187fb2e2b04aaf7,2022-05-12_03h57.01.577,classification_task,2021.2.3,Win32,59.94125757,627c6715c52fd12f31907bcf,,,,,,,,,,,,,,,,,,,,,,,l,1,"[""0.064"",""0.166"",""0.561"",""0.030""]","[1,1,1,0]",0,43,43,43,1,1,1,,,1,FALSE,1.1171,,,,,,,,,,,,,,,,,,,,,,,,,,,,,,,
,612f987cfb1894ecd6c33759,627c69483187fb2e2b04aaf7,2022-05-12_03h57.01.577,classification_task,2021.2.3,Win32,59.94125757,627c6715c52fd12f31907bcf,,,,,,,,,,,,,,,,,,,,,,,a,1,"[""0.242"",""0.514"",""0.879"",""0.682""]","[1,1,1,0]",0,44,44,44,1,0,0,,,1,FALSE,0.8947,,,,,,,,,,,,,,,,,,,,,,,,,,,,,,,
,612f987cfb1894ecd6c33759,627c69483187fb2e2b04aaf7,2022-05-12_03h57.01.577,classification_task,2021.2.3,Win32,59.94125757,627c6715c52fd12f31907bcf,,,,,,,,,,,,,,,,,,,,,,,a,1,"[""0.242"",""0.685"",""0.879"",""0.944""]","[1,0,1,1]",0,45,45,45,1,0,0,,,1,FALSE,1.7961,,,,,,,,,,,,,,,,,,,,,,,,,,,,,,,
,612f987cfb1894ecd6c33759,627c69483187fb2e2b04aaf7,2022-05-12_03h57.01.577,classification_task,2021.2.3,Win32,59.94125757,627c6715c52fd12f31907bcf,,,,,,,,,,,,,,,,,,,,,,,l,1,"[""0.105"",""0.312"",""0.685"",""0.767""]","[1,1,0,1]",0,46,46,46,1,1,0,,,1,FALSE,2.0634,,,,,,,,,,,,,,,,,,,,,,,,,,,,,,,
,612f987cfb1894ecd6c33759,627c69483187fb2e2b04aaf7,2022-05-12_03h57.01.577,classification_task,2021.2.3,Win32,59.94125757,627c6715c52fd12f31907bcf,,,,,,,,,,,,,,,,,,,,,,,l,1,"[""0.064"",""0.417"",""0.561"",""0.721""]","[1,0,1,1]",0,47,47,47,1,1,1,,,1,FALSE,2.9239,,,,,,,,,,,,,,,,,,,,,,,,,,,,,,,
,612f987cfb1894ecd6c33759,627c69483187fb2e2b04aaf7,2022-05-12_03h57.01.577,classification_task,2021.2.3,Win32,59.94125757,627c6715c52fd12f31907bcf,,,,,,,,,,,,,,,,,,,,,,,l,0,"[""0.203"",""0.805"",""0.647"",""0.845""]","[1,0,1,1]",0,48,48,48,1,0,1,,,1,FALSE,1.6948,,,,,,,,,,,,,,,,,,,,,,,,,,,,,,,
,612f987cfb1894ecd6c33759,627c69483187fb2e2b04aaf7,2022-05-12_03h57.01.577,classification_task,2021.2.3,Win32,59.94125757,627c6715c52fd12f31907bcf,,,,,,,,,,,,,,,,,,,,,,,l,1,"[""0.064"",""0.166"",""0.561"",""0.685""]","[1,1,1,0]",0,49,49,49,1,1,1,,,1,FALSE,1.6833,,,,,,,,,,,,,,,,,,,,,,,,,,,,,,,
,612f987cfb1894ecd6c33759,627c69483187fb2e2b04aaf7,2022-05-12_03h57.01.577,classification_task,2021.2.3,Win32,59.94125757,627c6715c52fd12f31907bcf,,,,,,,,,,,,,,,,,,,,,,,l,1,"[""0.105"",""0.312"",""0.685"",""0.767""]","[1,1,0,1]",0,50,50,50,1,1,0,,,1,FALSE,1.497,,,,,,,,,,,,,,,,,,,,,,,,,,,,,,,
,612f987cfb1894ecd6c33759,627c69483187fb2e2b04aaf7,2022-05-12_03h57.01.577,classification_task,2021.2.3,Win32,59.94125757,627c6715c52fd12f31907bcf,,,,,,,,,,,,,,,,,,,,,,,a,0,"[""0.105"",""0.312"",""0.454"",""0.805""]","[1,1,1,0]",0,51,51,51,1,1,0,,,1,FALSE,1.1997,,,,,,,,,,,,,,,,,,,,,,,,,,,,,,,
,612f987cfb1894ecd6c33759,627c69483187fb2e2b04aaf7,2022-05-12_03h57.01.577,classification_task,2021.2.3,Win32,59.94125757,627c6715c52fd12f31907bcf,,,,,,,,,,,,,,,,,,,,,,,a,0,"[""0.682"",""0.166"",""0.561"",""0.721""]","[0,1,1,1]",0,52,52,52,1,1,1,,,1,FALSE,0.9655,,,,,,,,,,,,,,,,,,,,,,,,,,,,,,,
,612f987cfb1894ecd6c33759,627c69483187fb2e2b04aaf7,2022-05-12_03h57.01.577,classification_task,2021.2.3,Win32,59.94125757,627c6715c52fd12f31907bcf,,,,,,,,,,,,,,,,,,,,,,,a,0,"[""0.608"",""0.312"",""0.454"",""0.767""]","[0,1,1,1]",0,53,53,53,1,1,0,,,1,FALSE,0.7983,,,,,,,,,,,,,,,,,,,,,,,,,,,,,,,
,612f987cfb1894ecd6c33759,627c69483187fb2e2b04aaf7,2022-05-12_03h57.01.577,classification_task,2021.2.3,Win32,59.94125757,627c6715c52fd12f31907bcf,,,,,,,,,,,,,,,,,,,,,,,a,1,"[""0.203"",""0.369"",""0.647"",""0.406""]","[1,1,1,0]",0,54,54,54,1,0,1,,,1,FALSE,1.0519,,,,,,,,,,,,,,,,,,,,,,,,,,,,,,,
,612f987cfb1894ecd6c33759,627c69483187fb2e2b04aaf7,2022-05-12_03h57.01.577,classification_task,2021.2.3,Win32,59.94125757,627c6715c52fd12f31907bcf,,,,,,,,,,,,,,,,,,,,,,,l,1,"[""0.064"",""0.810"",""0.561"",""0.721""]","[1,0,1,1]",0,55,55,55,1,1,1,,,1,FALSE,1.7294,,,,,,,,,,,,,,,,,,,,,,,,,,,,,,,
,612f987cfb1894ecd6c33759,627c69483187fb2e2b04aaf7,2022-05-12_03h57.01.577,classification_task,2021.2.3,Win32,59.94125757,627c6715c52fd12f31907bcf,,,,,,,,,,,,,,,,,,,,,,,l,1,"[""0.064"",""0.166"",""0.685"",""0.721""]","[1,1,0,1]",0,56,56,56,1,1,1,,,1,FALSE,1.1613,,,,,,,,,,,,,,,,,,,,,,,,,,,,,,,
,612f987cfb1894ecd6c33759,627c69483187fb2e2b04aaf7,2022-05-12_03h57.01.577,classification_task,2021.2.3,Win32,59.94125757,627c6715c52fd12f31907bcf,,,,,,,,,,,,,,,,,,,,,,,a,1,"[""0.682"",""0.369"",""0.647"",""0.845""]","[0,1,1,1]",0,57,57,57,1,0,1,,,1,FALSE,0.8995,,,,,,,,,,,,,,,,,,,,,,,,,,,,,,,
,612f987cfb1894ecd6c33759,627c69483187fb2e2b04aaf7,2022-05-12_03h57.01.577,classification_task,2021.2.3,Win32,59.94125757,627c6715c52fd12f31907bcf,,,,,,,,,,,,,,,,,,,,,,,l,0,"[""0.242"",""0.811"",""0.879"",""0.944""]","[1,0,1,1]",0,58,58,58,1,0,0,,,1,FALSE,1.5671,,,,,,,,,,,,,,,,,,,,,,,,,,,,,,,
,612f987cfb1894ecd6c33759,627c69483187fb2e2b04aaf7,2022-05-12_03h57.01.577,classification_task,2021.2.3,Win32,59.94125757,627c6715c52fd12f31907bcf,,,,,,,,,,,,,,,,,,,,,,,a,1,"[""0.203"",""0.369"",""0.683"",""0.845""]","[1,1,0,1]",0,59,59,59,1,0,1,,,1,FALSE,1.1929,,,,,,,,,,,,,,,,,,,,,,,,,,,,,,,
,612f987cfb1894ecd6c33759,627c69483187fb2e2b04aaf7,2022-05-12_03h57.01.577,classification_task,2021.2.3,Win32,59.94125757,627c6715c52fd12f31907bcf,,,,,,,,,,,,,,,,,,,,,,,a,0,"[""0.105"",""0.406"",""0.454"",""0.767""]","[1,0,1,1]",0,60,60,60,1,1,0,,,1,FALSE,1.3332,,,,,,,,,,,,,,,,,,,,,,,,,,,,,,,
,612f987cfb1894ecd6c33759,627c69483187fb2e2b04aaf7,2022-05-12_03h57.01.577,classification_task,2021.2.3,Win32,59.94125757,627c6715c52fd12f31907bcf,,,,,,,,,,,,,,,,,,,,,,,a,1,"[""0.805"",""0.514"",""0.879"",""0.944""]","[0,1,1,1]",0,61,61,61,1,0,0,,,1,FALSE,1.044,,,,,,,,,,,,,,,,,,,,,,,,,,,,,,,
,612f987cfb1894ecd6c33759,627c69483187fb2e2b04aaf7,2022-05-12_03h57.01.577,classification_task,2021.2.3,Win32,59.94125757,627c6715c52fd12f31907bcf,,,,,,,,,,,,,,,,,,,,,,,l,0,"[""0.242"",""0.514"",""0.406"",""0.944""]","[1,1,0,1]",0,62,62,62,1,0,0,,,1,FALSE,0.9691,,,,,,,,,,,,,,,,,,,,,,,,,,,,,,,
,612f987cfb1894ecd6c33759,627c69483187fb2e2b04aaf7,2022-05-12_03h57.01.577,classification_task,2021.2.3,Win32,59.94125757,627c6715c52fd12f31907bcf,,,,,,,,,,,,,,,,,,,,,,,l,0,"[""0.242"",""0.514"",""0.879"",""0.805""]","[1,1,1,0]",0,63,63,63,1,0,0,,,1,FALSE,0.9091,,,,,,,,,,,,,,,,,,,,,,,,,,,,,,,
,612f987cfb1894ecd6c33759,627c69483187fb2e2b04aaf7,2022-05-12_03h57.01.577,classification_task,2021.2.3,Win32,59.94125757,627c6715c52fd12f31907bcf,,,,,,,,,,,,,,,,,,,,,,,,,,,,,,,,,,,,,,,0, ,,0,8.065751764,763.4067,0,0,0,0,1,2,1,,,,,,,,,,,,,,,,,,
,612f987cfb1894ecd6c33759,627c69483187fb2e2b04aaf7,2022-05-12_03h57.01.577,classification_task,2021.2.3,Win32,59.94125757,627c6715c52fd12f31907bcf,,,,,,,,,,,,,,,,,,,,,,,,,,,,,,,,,,,,,,,1,  ,,0,9.96031746,773.3532,0,0,0,0,1,2,1,,,,,,,,,,,,,,,,,,
,612f987cfb1894ecd6c33759,627c69483187fb2e2b04aaf7,2022-05-12_03h57.01.577,classification_task,2021.2.3,Win32,59.94125757,627c6715c52fd12f31907bcf,,,,,,,,,,,,,,,,,,,,,,,,,,,,,,,,,,,,,,,2,  ,,0,5.72337963,778.6412,0,0,0,0,1,2,1,,,,,,,,,,,,,,,,,,
,612f987cfb1894ecd6c33759,627c69483187fb2e2b04aaf7,2022-05-12_03h57.01.577,classification_task,2021.2.3,Win32,59.94125757,627c6715c52fd12f31907bcf,,,,,,,,,,,,,,,,,,,,,,,,,,,,,,,,,,,,,,,,,,,,,0,0,0,0,1,,1,,,,,,,,,,,,,,,,,,
,612f987cfb1894ecd6c33759,627c69483187fb2e2b04aaf7,2022-05-12_03h57.01.577,classification_task,2021.2.3,Win32,59.94125757,627c6715c52fd12f31907bcf,,,,,,,,,,,,,,,,,,,,,space,5.7771,a,1,"[""0.242"",""0.514"",""0.811"",""0.944""]","[1,1,0,1]",0,0,0,0,1,0,0,,,1,FALSE,1.8439,,,,,,,,,,,,,,,,,,,,,,,,,,,,,,,
,612f987cfb1894ecd6c33759,627c69483187fb2e2b04aaf7,2022-05-12_03h57.01.577,classification_task,2021.2.3,Win32,59.94125757,627c6715c52fd12f31907bcf,,,,,,,,,,,,,,,,,,,,,,,a,0,"[""0.805"",""0.312"",""0.454"",""0.767""]","[0,1,1,1]",0,1,1,1,1,1,0,,,1,FALSE,1.2491,,,,,,,,,,,,,,,,,,,,,,,,,,,,,,,
,612f987cfb1894ecd6c33759,627c69483187fb2e2b04aaf7,2022-05-12_03h57.01.577,classification_task,2021.2.3,Win32,59.94125757,627c6715c52fd12f31907bcf,,,,,,,,,,,,,,,,,,,,,,,a,1,"[""0.242"",""0.514"",""0.879"",""0.685""]","[1,1,1,0]",0,2,2,2,1,0,0,,,1,FALSE,0.6416,,,,,,,,,,,,,,,,,,,,,,,,,,,,,,,
,612f987cfb1894ecd6c33759,627c69483187fb2e2b04aaf7,2022-05-12_03h57.01.577,classification_task,2021.2.3,Win32,59.94125757,627c6715c52fd12f31907bcf,,,,,,,,,,,,,,,,,,,,,,,l,0,"[""0.242"",""0.810"",""0.879"",""0.944""]","[1,0,1,1]",0,3,3,3,1,0,0,,,1,FALSE,0.6588,,,,,,,,,,,,,,,,,,,,,,,,,,,,,,,
,612f987cfb1894ecd6c33759,627c69483187fb2e2b04aaf7,2022-05-12_03h57.01.577,classification_task,2021.2.3,Win32,59.94125757,627c6715c52fd12f31907bcf,,,,,,,,,,,,,,,,,,,,,,,a,0,"[""0.064"",""0.166"",""0.277"",""0.721""]","[1,1,0,1]",0,4,4,4,1,1,1,,,1,FALSE,5.6667,,,,,,,,,,,,,,,,,,,,,,,,,,,,,,,
,612f987cfb1894ecd6c33759,627c69483187fb2e2b04aaf7,2022-05-12_03h57.01.577,classification_task,2021.2.3,Win32,59.94125757,627c6715c52fd12f31907bcf,,,,,,,,,,,,,,,,,,,,,,,a,0,"[""0.105"",""0.312"",""0.416"",""0.767""]","[1,1,0,1]",0,5,5,5,1,1,0,,,1,FALSE,2.2014,,,,,,,,,,,,,,,,,,,,,,,,,,,,,,,
,612f987cfb1894ecd6c33759,627c69483187fb2e2b04aaf7,2022-05-12_03h57.01.577,classification_task,2021.2.3,Win32,59.94125757,627c6715c52fd12f31907bcf,,,,,,,,,,,,,,,,,,,,,,,a,0,"[""0.105"",""0.805"",""0.454"",""0.767""]","[1,0,1,1]",0,6,6,6,1,1,0,,,1,FALSE,1.5636,,,,,,,,,,,,,,,,,,,,,,,,,,,,,,,
,612f987cfb1894ecd6c33759,627c69483187fb2e2b04aaf7,2022-05-12_03h57.01.577,classification_task,2021.2.3,Win32,59.94125757,627c6715c52fd12f31907bcf,,,,,,,,,,,,,,,,,,,,,,,l,1,"[""0.064"",""0.805"",""0.561"",""0.721""]","[1,0,1,1]",0,7,7,7,1,1,1,,,1,FALSE,3.0489,,,,,,,,,,,,,,,,,,,,,,,,,,,,,,,
,612f987cfb1894ecd6c33759,627c69483187fb2e2b04aaf7,2022-05-12_03h57.01.577,classification_task,2021.2.3,Win32,59.94125757,627c6715c52fd12f31907bcf,,,,,,,,,,,,,,,,,,,,,,,a,1,"[""0.599"",""0.514"",""0.879"",""0.944""]","[0,1,1,1]",0,8,8,8,1,0,0,,,1,FALSE,1.2183,,,,,,,,,,,,,,,,,,,,,,,,,,,,,,,
,612f987cfb1894ecd6c33759,627c69483187fb2e2b04aaf7,2022-05-12_03h57.01.577,classification_task,2021.2.3,Win32,59.94125757,627c6715c52fd12f31907bcf,,,,,,,,,,,,,,,,,,,,,,,a,1,"[""0.203"",""0.369"",""0.647"",""0.685""]","[1,1,1,0]",0,9,9,9,1,0,1,,,1,FALSE,1.797,,,,,,,,,,,,,,,,,,,,,,,,,,,,,,,
,612f987cfb1894ecd6c33759,627c69483187fb2e2b04aaf7,2022-05-12_03h57.01.577,classification_task,2021.2.3,Win32,59.94125757,627c6715c52fd12f31907bcf,,,,,,,,,,,,,,,,,,,,,,,a,1,"[""0.682"",""0.369"",""0.647"",""0.845""]","[0,1,1,1]",0,10,10,10,1,0,1,,,1,FALSE,1.5326,,,,,,,,,,,,,,,,,,,,,,,,,,,,,,,
,612f987cfb1894ecd6c33759,627c69483187fb2e2b04aaf7,2022-05-12_03h57.01.577,classification_task,2021.2.3,Win32,59.94125757,627c6715c52fd12f31907bcf,,,,,,,,,,,,,,,,,,,,,,,a,1,"[""0.203"",""0.805"",""0.647"",""0.845""]","[1,0,1,1]",0,11,11,11,1,0,1,,,1,FALSE,1.6329,,,,,,,,,,,,,,,,,,,,,,,,,,,,,,,
,612f987cfb1894ecd6c33759,627c69483187fb2e2b04aaf7,2022-05-12_03h57.01.577,classification_task,2021.2.3,Win32,59.94125757,627c6715c52fd12f31907bcf,,,,,,,,,,,,,,,,,,,,,,,l,1,"[""0.030"",""0.166"",""0.561"",""0.721""]","[0,1,1,1]",0,12,12,12,1,1,1,,,1,FALSE,1.0844,,,,,,,,,,,,,,,,,,,,,,,,,,,,,,,
,612f987cfb1894ecd6c33759,627c69483187fb2e2b04aaf7,2022-05-12_03h57.01.577,classification_task,2021.2.3,Win32,59.94125757,627c6715c52fd12f31907bcf,,,,,,,,,,,,,,,,,,,,,,,a,0,"[""0.105"",""0.312"",""0.454"",""0.682""]","[1,1,1,0]",0,13,13,13,1,1,0,,,1,FALSE,1.2628,,,,,,,,,,,,,,,,,,,,,,,,,,,,,,,
,612f987cfb1894ecd6c33759,627c69483187fb2e2b04aaf7,2022-05-12_03h57.01.577,classification_task,2021.2.3,Win32,59.94125757,627c6715c52fd12f31907bcf,,,,,,,,,,,,,,,,,,,,,,,a,0,"[""0.064"",""0.166"",""0.561"",""0.805""]","[1,1,1,0]",0,14,14,14,1,1,1,,,1,FALSE,1.1622,,,,,,,,,,,,,,,,,,,,,,,,,,,,,,,
,612f987cfb1894ecd6c33759,627c69483187fb2e2b04aaf7,2022-05-12_03h57.01.577,classification_task,2021.2.3,Win32,59.94125757,627c6715c52fd12f31907bcf,,,,,,,,,,,,,,,,,,,,,,,a,1,"[""0.203"",""0.369"",""0.810"",""0.845""]","[1,1,0,1]",0,15,15,15,1,0,1,,,1,FALSE,1.4999,,,,,,,,,,,,,,,,,,,,,,,,,,,,,,,
,612f987cfb1894ecd6c33759,627c69483187fb2e2b04aaf7,2022-05-12_03h57.01.577,classification_task,2021.2.3,Win32,59.94125757,627c6715c52fd12f31907bcf,,,,,,,,,,,,,,,,,,,,,,,a,1,"[""0.406"",""0.369"",""0.647"",""0.845""]","[0,1,1,1]",0,16,16,16,1,0,1,,,1,FALSE,1.3513,,,,,,,,,,,,,,,,,,,,,,,,,,,,,,,
,612f987cfb1894ecd6c33759,627c69483187fb2e2b04aaf7,2022-05-12_03h57.01.577,classification_task,2021.2.3,Win32,59.94125757,627c6715c52fd12f31907bcf,,,,,,,,,,,,,,,,,,,,,,,l,0,"[""0.417"",""0.514"",""0.879"",""0.944""]","[0,1,1,1]",0,17,17,17,1,0,0,,,1,FALSE,0.7764,,,,,,,,,,,,,,,,,,,,,,,,,,,,,,,
,612f987cfb1894ecd6c33759,627c69483187fb2e2b04aaf7,2022-05-12_03h57.01.577,classification_task,2021.2.3,Win32,59.94125757,627c6715c52fd12f31907bcf,,,,,,,,,,,,,,,,,,,,,,,l,1,"[""0.064"",""0.166"",""0.561"",""0.277""]","[1,1,1,0]",0,18,18,18,1,1,1,,,1,FALSE,0.9452,,,,,,,,,,,,,,,,,,,,,,,,,,,,,,,
,612f987cfb1894ecd6c33759,627c69483187fb2e2b04aaf7,2022-05-12_03h57.01.577,classification_task,2021.2.3,Win32,59.94125757,627c6715c52fd12f31907bcf,,,,,,,,,,,,,,,,,,,,,,,a,0,"[""0.105"",""0.312"",""0.417"",""0.767""]","[1,1,0,1]",0,19,19,19,1,1,0,,,1,FALSE,0.8644,,,,,,,,,,,,,,,,,,,,,,,,,,,,,,,
,612f987cfb1894ecd6c33759,627c69483187fb2e2b04aaf7,2022-05-12_03h57.01.577,classification_task,2021.2.3,Win32,59.94125757,627c6715c52fd12f31907bcf,,,,,,,,,,,,,,,,,,,,,,,l,1,"[""0.277"",""0.166"",""0.561"",""0.721""]","[0,1,1,1]",0,20,20,20,1,1,1,,,1,FALSE,1.2976,,,,,,,,,,,,,,,,,,,,,,,,,,,,,,,
,612f987cfb1894ecd6c33759,627c69483187fb2e2b04aaf7,2022-05-12_03h57.01.577,classification_task,2021.2.3,Win32,59.94125757,627c6715c52fd12f31907bcf,,,,,,,,,,,,,,,,,,,,,,,l,1,"[""0.105"",""0.312"",""0.454"",""0.406""]","[1,1,1,0]",0,21,21,21,1,1,0,,,1,FALSE,1.0286,,,,,,,,,,,,,,,,,,,,,,,,,,,,,,,
,612f987cfb1894ecd6c33759,627c69483187fb2e2b04aaf7,2022-05-12_03h57.01.577,classification_task,2021.2.3,Win32,59.94125757,627c6715c52fd12f31907bcf,,,,,,,,,,,,,,,,,,,,,,,a,1,"[""0.242"",""0.682"",""0.879"",""0.944""]","[1,0,1,1]",0,22,22,22,1,0,0,,,1,FALSE,1.1321,,,,,,,,,,,,,,,,,,,,,,,,,,,,,,,
,612f987cfb1894ecd6c33759,627c69483187fb2e2b04aaf7,2022-05-12_03h57.01.577,classification_task,2021.2.3,Win32,59.94125757,627c6715c52fd12f31907bcf,,,,,,,,,,,,,,,,,,,,,,,a,1,"[""0.242"",""0.514"",""0.879"",""0.417""]","[1,1,1,0]",0,23,23,23,1,0,0,,,1,FALSE,0.8902,,,,,,,,,,,,,,,,,,,,,,,,,,,,,,,
,612f987cfb1894ecd6c33759,627c69483187fb2e2b04aaf7,2022-05-12_03h57.01.577,classification_task,2021.2.3,Win32,59.94125757,627c6715c52fd12f31907bcf,,,,,,,,,,,,,,,,,,,,,,,a,1,"[""0.203"",""0.369"",""0.277"",""0.845""]","[1,1,0,1]",0,24,24,24,1,0,1,,,1,FALSE,1.0641,,,,,,,,,,,,,,,,,,,,,,,,,,,,,,,
,612f987cfb1894ecd6c33759,627c69483187fb2e2b04aaf7,2022-05-12_03h57.01.577,classification_task,2021.2.3,Win32,59.94125757,627c6715c52fd12f31907bcf,,,,,,,,,,,,,,,,,,,,,,,a,1,"[""0.203"",""0.805"",""0.647"",""0.845""]","[1,0,1,1]",0,25,25,25,1,0,1,,,1,FALSE,0.981,,,,,,,,,,,,,,,,,,,,,,,,,,,,,,,
,612f987cfb1894ecd6c33759,627c69483187fb2e2b04aaf7,2022-05-12_03h57.01.577,classification_task,2021.2.3,Win32,59.94125757,627c6715c52fd12f31907bcf,,,,,,,,,,,,,,,,,,,,,,,a,1,"[""0.203"",""0.369"",""0.647"",""0.599""]","[1,1,1,0]",0,26,26,26,1,0,1,,,1,FALSE,0.5631,,,,,,,,,,,,,,,,,,,,,,,,,,,,,,,
,612f987cfb1894ecd6c33759,627c69483187fb2e2b04aaf7,2022-05-12_03h57.01.577,classification_task,2021.2.3,Win32,59.94125757,627c6715c52fd12f31907bcf,,,,,,,,,,,,,,,,,,,,,,,l,1,"[""0.105"",""0.810"",""0.454"",""0.767""]","[1,0,1,1]",0,27,27,27,1,1,0,,,1,FALSE,0.9645,,,,,,,,,,,,,,,,,,,,,,,,,,,,,,,
,612f987cfb1894ecd6c33759,627c69483187fb2e2b04aaf7,2022-05-12_03h57.01.577,classification_task,2021.2.3,Win32,59.94125757,627c6715c52fd12f31907bcf,,,,,,,,,,,,,,,,,,,,,,,a,1,"[""0.242"",""0.514"",""0.682"",""0.944""]","[1,1,0,1]",0,28,28,28,1,0,0,,,1,FALSE,0.9513,,,,,,,,,,,,,,,,,,,,,,,,,,,,,,,
,612f987cfb1894ecd6c33759,627c69483187fb2e2b04aaf7,2022-05-12_03h57.01.577,classification_task,2021.2.3,Win32,59.94125757,627c6715c52fd12f31907bcf,,,,,,,,,,,,,,,,,,,,,,,l,1,"[""0.064"",""0.166"",""0.683"",""0.721""]","[1,1,0,1]",0,29,29,29,1,1,1,,,1,FALSE,0.7012,,,,,,,,,,,,,,,,,,,,,,,,,,,,,,,
,612f987cfb1894ecd6c33759,627c69483187fb2e2b04aaf7,2022-05-12_03h57.01.577,classification_task,2021.2.3,Win32,59.94125757,627c6715c52fd12f31907bcf,,,,,,,,,,,,,,,,,,,,,,,l,1,"[""0.030"",""0.312"",""0.454"",""0.767""]","[0,1,1,1]",0,30,30,30,1,1,0,,,1,FALSE,1.0997,,,,,,,,,,,,,,,,,,,,,,,,,,,,,,,
,612f987cfb1894ecd6c33759,627c69483187fb2e2b04aaf7,2022-05-12_03h57.01.577,classification_task,2021.2.3,Win32,59.94125757,627c6715c52fd12f31907bcf,,,,,,,,,,,,,,,,,,,,,,,l,1,"[""0.064"",""0.810"",""0.561"",""0.721""]","[1,0,1,1]",0,31,31,31,1,1,1,,,1,FALSE,1.0298,,,,,,,,,,,,,,,,,,,,,,,,,,,,,,,
,612f987cfb1894ecd6c33759,627c69483187fb2e2b04aaf7,2022-05-12_03h57.01.577,classification_task,2021.2.3,Win32,59.94125757,627c6715c52fd12f31907bcf,,,,,,,,,,,,,,,,,,,,,,,a,1,"[""0.203"",""0.369"",""0.647"",""0.810""]","[1,1,1,0]",0,32,32,32,1,0,1,,,1,FALSE,0.7494,,,,,,,,,,,,,,,,,,,,,,,,,,,,,,,
,612f987cfb1894ecd6c33759,627c69483187fb2e2b04aaf7,2022-05-12_03h57.01.577,classification_task,2021.2.3,Win32,59.94125757,627c6715c52fd12f31907bcf,,,,,,,,,,,,,,,,,,,,,,,l,0,"[""0.805"",""0.514"",""0.879"",""0.944""]","[0,1,1,1]",0,33,33,33,1,0,0,,,1,FALSE,1.0654,,,,,,,,,,,,,,,,,,,,,,,,,,,,,,,
,612f987cfb1894ecd6c33759,627c69483187fb2e2b04aaf7,2022-05-12_03h57.01.577,classification_task,2021.2.3,Win32,59.94125757,627c6715c52fd12f31907bcf,,,,,,,,,,,,,,,,,,,,,,,a,1,"[""0.203"",""0.030"",""0.647"",""0.845""]","[1,0,1,1]",0,34,34,34,1,0,1,,,1,FALSE,0.9592,,,,,,,,,,,,,,,,,,,,,,,,,,,,,,,
,612f987cfb1894ecd6c33759,627c69483187fb2e2b04aaf7,2022-05-12_03h57.01.577,classification_task,2021.2.3,Win32,59.94125757,627c6715c52fd12f31907bcf,,,,,,,,,,,,,,,,,,,,,,,l,1,"[""0.064"",""0.417"",""0.561"",""0.721""]","[1,0,1,1]",0,35,35,35,1,1,1,,,1,FALSE,1.0394,,,,,,,,,,,,,,,,,,,,,,,,,,,,,,,
,612f987cfb1894ecd6c33759,627c69483187fb2e2b04aaf7,2022-05-12_03h57.01.577,classification_task,2021.2.3,Win32,59.94125757,627c6715c52fd12f31907bcf,,,,,,,,,,,,,,,,,,,,,,,a,0,"[""0.105"",""0.312"",""0.805"",""0.767""]","[1,1,0,1]",0,36,36,36,1,1,0,,,1,FALSE,0.8445,,,,,,,,,,,,,,,,,,,,,,,,,,,,,,,
,612f987cfb1894ecd6c33759,627c69483187fb2e2b04aaf7,2022-05-12_03h57.01.577,classification_task,2021.2.3,Win32,59.94125757,627c6715c52fd12f31907bcf,,,,,,,,,,,,,,,,,,,,,,,a,1,"[""0.242"",""0.416"",""0.879"",""0.944""]","[1,0,1,1]",0,37,37,37,1,0,0,,,1,FALSE,0.7664,,,,,,,,,,,,,,,,,,,,,,,,,,,,,,,
,612f987cfb1894ecd6c33759,627c69483187fb2e2b04aaf7,2022-05-12_03h57.01.577,classification_task,2021.2.3,Win32,59.94125757,627c6715c52fd12f31907bcf,,,,,,,,,,,,,,,,,,,,,,,a,1,"[""0.242"",""0.514"",""0.685"",""0.944""]","[1,1,0,1]",0,38,38,38,1,0,0,,,1,FALSE,0.7495,,,,,,,,,,,,,,,,,,,,,,,,,,,,,,,
,612f987cfb1894ecd6c33759,627c69483187fb2e2b04aaf7,2022-05-12_03h57.01.577,classification_task,2021.2.3,Win32,59.94125757,627c6715c52fd12f31907bcf,,,,,,,,,,,,,,,,,,,,,,,a,0,"[""0.064"",""0.166"",""0.561"",""0.417""]","[1,1,1,0]",0,39,39,39,1,1,1,,,1,FALSE,0.7787,,,,,,,,,,,,,,,,,,,,,,,,,,,,,,,
,612f987cfb1894ecd6c33759,627c69483187fb2e2b04aaf7,2022-05-12_03h57.01.577,classification_task,2021.2.3,Win32,59.94125757,627c6715c52fd12f31907bcf,,,,,,,,,,,,,,,,,,,,,,,l,1,"[""0.105"",""0.312"",""0.454"",""0.416""]","[1,1,1,0]",0,40,40,40,1,1,0,,,1,FALSE,1.0679,,,,,,,,,,,,,,,,,,,,,,,,,,,,,,,
,612f987cfb1894ecd6c33759,627c69483187fb2e2b04aaf7,2022-05-12_03h57.01.577,classification_task,2021.2.3,Win32,59.94125757,627c6715c52fd12f31907bcf,,,,,,,,,,,,,,,,,,,,,,,a,1,"[""0.683"",""0.369"",""0.647"",""0.845""]","[0,1,1,1]",0,41,41,41,1,0,1,,,1,FALSE,0.6656,,,,,,,,,,,,,,,,,,,,,,,,,,,,,,,
,612f987cfb1894ecd6c33759,627c69483187fb2e2b04aaf7,2022-05-12_03h57.01.577,classification_task,2021.2.3,Win32,59.94125757,627c6715c52fd12f31907bcf,,,,,,,,,,,,,,,,,,,,,,,l,1,"[""0.105"",""0.805"",""0.454"",""0.767""]","[1,0,1,1]",0,42,42,42,1,1,0,,,1,FALSE,0.898,,,,,,,,,,,,,,,,,,,,,,,,,,,,,,,
,612f987cfb1894ecd6c33759,627c69483187fb2e2b04aaf7,2022-05-12_03h57.01.577,classification_task,2021.2.3,Win32,59.94125757,627c6715c52fd12f31907bcf,,,,,,,,,,,,,,,,,,,,,,,l,1,"[""0.683"",""0.312"",""0.454"",""0.767""]","[0,1,1,1]",0,43,43,43,1,1,0,,,1,FALSE,0.9334,,,,,,,,,,,,,,,,,,,,,,,,,,,,,,,
,612f987cfb1894ecd6c33759,627c69483187fb2e2b04aaf7,2022-05-12_03h57.01.577,classification_task,2021.2.3,Win32,59.94125757,627c6715c52fd12f31907bcf,,,,,,,,,,,,,,,,,,,,,,,l,1,"[""0.064"",""0.166"",""0.406"",""0.721""]","[1,1,0,1]",0,44,44,44,1,1,1,,,1,FALSE,0.9644,,,,,,,,,,,,,,,,,,,,,,,,,,,,,,,
,612f987cfb1894ecd6c33759,627c69483187fb2e2b04aaf7,2022-05-12_03h57.01.577,classification_task,2021.2.3,Win32,59.94125757,627c6715c52fd12f31907bcf,,,,,,,,,,,,,,,,,,,,,,,l,1,"[""0.599"",""0.166"",""0.561"",""0.721""]","[0,1,1,1]",0,45,45,45,1,1,1,,,1,FALSE,0.9664,,,,,,,,,,,,,,,,,,,,,,,,,,,,,,,
,612f987cfb1894ecd6c33759,627c69483187fb2e2b04aaf7,2022-05-12_03h57.01.577,classification_task,2021.2.3,Win32,59.94125757,627c6715c52fd12f31907bcf,,,,,,,,,,,,,,,,,,,,,,,a,1,"[""0.242"",""0.514"",""0.879"",""0.683""]","[1,1,1,0]",0,46,46,46,1,0,0,,,1,FALSE,0.8298,,,,,,,,,,,,,,,,,,,,,,,,,,,,,,,
,612f987cfb1894ecd6c33759,627c69483187fb2e2b04aaf7,2022-05-12_03h57.01.577,classification_task,2021.2.3,Win32,59.94125757,627c6715c52fd12f31907bcf,,,,,,,,,,,,,,,,,,,,,,,a,1,"[""0.203"",""0.369"",""0.805"",""0.845""]","[1,1,0,1]",0,47,47,47,1,0,1,,,1,FALSE,0.7796,,,,,,,,,,,,,,,,,,,,,,,,,,,,,,,
,612f987cfb1894ecd6c33759,627c69483187fb2e2b04aaf7,2022-05-12_03h57.01.577,classification_task,2021.2.3,Win32,59.94125757,627c6715c52fd12f31907bcf,,,,,,,,,,,,,,,,,,,,,,,a,0,"[""0.030"",""0.166"",""0.561"",""0.721""]","[0,1,1,1]",0,48,48,48,1,1,1,,,1,FALSE,0.813,,,,,,,,,,,,,,,,,,,,,,,,,,,,,,,
,612f987cfb1894ecd6c33759,627c69483187fb2e2b04aaf7,2022-05-12_03h57.01.577,classification_task,2021.2.3,Win32,59.94125757,627c6715c52fd12f31907bcf,,,,,,,,,,,,,,,,,,,,,,,a,1,"[""0.203"",""0.608"",""0.647"",""0.845""]","[1,0,1,1]",0,49,49,49,1,0,1,,,1,FALSE,0.7333,,,,,,,,,,,,,,,,,,,,,,,,,,,,,,,
,612f987cfb1894ecd6c33759,627c69483187fb2e2b04aaf7,2022-05-12_03h57.01.577,classification_task,2021.2.3,Win32,59.94125757,627c6715c52fd12f31907bcf,,,,,,,,,,,,,,,,,,,,,,,a,1,"[""0.242"",""0.416"",""0.879"",""0.944""]","[1,0,1,1]",0,50,50,50,1,0,0,,,1,FALSE,0.8983,,,,,,,,,,,,,,,,,,,,,,,,,,,,,,,
,612f987cfb1894ecd6c33759,627c69483187fb2e2b04aaf7,2022-05-12_03h57.01.577,classification_task,2021.2.3,Win32,59.94125757,627c6715c52fd12f31907bcf,,,,,,,,,,,,,,,,,,,,,,,a,1,"[""0.203"",""0.369"",""0.647"",""0.685""]","[1,1,1,0]",0,51,51,51,1,0,1,,,1,FALSE,0.797,,,,,,,,,,,,,,,,,,,,,,,,,,,,,,,
,612f987cfb1894ecd6c33759,627c69483187fb2e2b04aaf7,2022-05-12_03h57.01.577,classification_task,2021.2.3,Win32,59.94125757,627c6715c52fd12f31907bcf,,,,,,,,,,,,,,,,,,,,,,,l,1,"[""0.105"",""0.312"",""0.406"",""0.767""]","[1,1,0,1]",0,52,52,52,1,1,0,,,1,FALSE,0.882,,,,,,,,,,,,,,,,,,,,,,,,,,,,,,,
,612f987cfb1894ecd6c33759,627c69483187fb2e2b04aaf7,2022-05-12_03h57.01.577,classification_task,2021.2.3,Win32,59.94125757,627c6715c52fd12f31907bcf,,,,,,,,,,,,,,,,,,,,,,,l,1,"[""0.064"",""0.166"",""0.561"",""0.805""]","[1,1,1,0]",0,53,53,53,1,1,1,,,1,FALSE,1.0819,,,,,,,,,,,,,,,,,,,,,,,,,,,,,,,
,612f987cfb1894ecd6c33759,627c69483187fb2e2b04aaf7,2022-05-12_03h57.01.577,classification_task,2021.2.3,Win32,59.94125757,627c6715c52fd12f31907bcf,,,,,,,,,,,,,,,,,,,,,,,a,0,"[""0.805"",""0.312"",""0.454"",""0.767""]","[0,1,1,1]",0,54,54,54,1,1,0,,,1,FALSE,1.0123,,,,,,,,,,,,,,,,,,,,,,,,,,,,,,,
,612f987cfb1894ecd6c33759,627c69483187fb2e2b04aaf7,2022-05-12_03h57.01.577,classification_task,2021.2.3,Win32,59.94125757,627c6715c52fd12f31907bcf,,,,,,,,,,,,,,,,,,,,,,,a,1,"[""0.203"",""0.369"",""0.599"",""0.845""]","[1,1,0,1]",0,55,55,55,1,0,1,,,1,FALSE,0.6143,,,,,,,,,,,,,,,,,,,,,,,,,,,,,,,
,612f987cfb1894ecd6c33759,627c69483187fb2e2b04aaf7,2022-05-12_03h57.01.577,classification_task,2021.2.3,Win32,59.94125757,627c6715c52fd12f31907bcf,,,,,,,,,,,,,,,,,,,,,,,a,1,"[""0.417"",""0.369"",""0.647"",""0.845""]","[0,1,1,1]",0,56,56,56,1,0,1,,,1,FALSE,0.7334,,,,,,,,,,,,,,,,,,,,,,,,,,,,,,,
,612f987cfb1894ecd6c33759,627c69483187fb2e2b04aaf7,2022-05-12_03h57.01.577,classification_task,2021.2.3,Win32,59.94125757,627c6715c52fd12f31907bcf,,,,,,,,,,,,,,,,,,,,,,,l,1,"[""0.064"",""0.810"",""0.561"",""0.721""]","[1,0,1,1]",0,57,57,57,1,1,1,,,1,FALSE,0.5786,,,,,,,,,,,,,,,,,,,,,,,,,,,,,,,
,612f987cfb1894ecd6c33759,627c69483187fb2e2b04aaf7,2022-05-12_03h57.01.577,classification_task,2021.2.3,Win32,59.94125757,627c6715c52fd12f31907bcf,,,,,,,,,,,,,,,,,,,,,,,l,0,"[""0.242"",""0.514"",""0.879"",""0.416""]","[1,1,1,0]",0,58,58,58,1,0,0,,,1,FALSE,0.5303,,,,,,,,,,,,,,,,,,,,,,,,,,,,,,,
,612f987cfb1894ecd6c33759,627c69483187fb2e2b04aaf7,2022-05-12_03h57.01.577,classification_task,2021.2.3,Win32,59.94125757,627c6715c52fd12f31907bcf,,,,,,,,,,,,,,,,,,,,,,,l,1,"[""0.105"",""0.805"",""0.454"",""0.767""]","[1,0,1,1]",0,59,59,59,1,1,0,,,1,FALSE,0.6891,,,,,,,,,,,,,,,,,,,,,,,,,,,,,,,
,612f987cfb1894ecd6c33759,627c69483187fb2e2b04aaf7,2022-05-12_03h57.01.577,classification_task,2021.2.3,Win32,59.94125757,627c6715c52fd12f31907bcf,,,,,,,,,,,,,,,,,,,,,,,a,0,"[""0.064"",""0.166"",""0.805"",""0.721""]","[1,1,0,1]",0,60,60,60,1,1,1,,,1,FALSE,0.6964,,,,,,,,,,,,,,,,,,,,,,,,,,,,,,,
,612f987cfb1894ecd6c33759,627c69483187fb2e2b04aaf7,2022-05-12_03h57.01.577,classification_task,2021.2.3,Win32,59.94125757,627c6715c52fd12f31907bcf,,,,,,,,,,,,,,,,,,,,,,,l,0,"[""0.242"",""0.514"",""0.685"",""0.944""]","[1,1,0,1]",0,61,61,61,1,0,0,,,1,FALSE,0.776,,,,,,,,,,,,,,,,,,,,,,,,,,,,,,,
,612f987cfb1894ecd6c33759,627c69483187fb2e2b04aaf7,2022-05-12_03h57.01.577,classification_task,2021.2.3,Win32,59.94125757,627c6715c52fd12f31907bcf,,,,,,,,,,,,,,,,,,,,,,,l,0,"[""0.417"",""0.514"",""0.879"",""0.944""]","[0,1,1,1]",0,62,62,62,1,0,0,,,1,FALSE,0.8449,,,,,,,,,,,,,,,,,,,,,,,,,,,,,,,
,612f987cfb1894ecd6c33759,627c69483187fb2e2b04aaf7,2022-05-12_03h57.01.577,classification_task,2021.2.3,Win32,59.94125757,627c6715c52fd12f31907bcf,,,,,,,,,,,,,,,,,,,,,,,l,1,"[""0.105"",""0.312"",""0.454"",""0.682""]","[1,1,1,0]",0,63,63,63,1,1,0,,,1,FALSE,0.9884,,,,,,,,,,,,,,,,,,,,,,,,,,,,,,,
,612f987cfb1894ecd6c33759,627c69483187fb2e2b04aaf7,2022-05-12_03h57.01.577,classification_task,2021.2.3,Win32,59.94125757,627c6715c52fd12f31907bcf,,,,,,,,,,,,,,,,,,,,,,,,,,,,,,,,,,,,,,,0, ,,0,3.070987654,148.4767,0,1,1,1,1,2,2,,,,,,,,,,,,,,,,,,
,612f987cfb1894ecd6c33759,627c69483187fb2e2b04aaf7,2022-05-12_03h57.01.577,classification_task,2021.2.3,Win32,59.94125757,627c6715c52fd12f31907bcf,,,,,,,,,,,,,,,,,,,,,,,,,,,,,,,,,,,,,,,1,  ,,0,8.513558201,156.842,0,1,1,1,1,2,2,,,,,,,,,,,,,,,,,,
,612f987cfb1894ecd6c33759,627c69483187fb2e2b04aaf7,2022-05-12_03h57.01.577,classification_task,2021.2.3,Win32,59.94125757,627c6715c52fd12f31907bcf,,,,,,,,,,,,,,,,,,,,,,,,,,,,,,,,,,,,,,,2,  ,,0,5.103339947,160.3591,0,1,1,1,1,2,2,,,,,,,,,,,,,,,,,,
,612f987cfb1894ecd6c33759,627c69483187fb2e2b04aaf7,2022-05-12_03h57.01.577,classification_task,2021.2.3,Win32,59.94125757,627c6715c52fd12f31907bcf,,,,,,,,,,,,,,,,,,,,,,,,,,,,,,,,,,,,,,,,,,,,,0,1,1,1,1,,2,,,,,,,,,,,,,,,,,,
,612f987cfb1894ecd6c33759,627c69483187fb2e2b04aaf7,2022-05-12_03h57.01.577,classification_task,2021.2.3,Win32,59.94125757,627c6715c52fd12f31907bcf,,,,,,,,,,,,,,,,,,,,,space,11.5091,a,0,"[""0.105"",""0.406"",""0.454"",""0.767""]","[1,0,1,1]",0,0,0,0,1,1,0,,,1,FALSE,1.4412,,,,,,,,,,,,,,,,,,,,,,,,,,,,,,,
,612f987cfb1894ecd6c33759,627c69483187fb2e2b04aaf7,2022-05-12_03h57.01.577,classification_task,2021.2.3,Win32,59.94125757,627c6715c52fd12f31907bcf,,,,,,,,,,,,,,,,,,,,,,,a,1,"[""0.203"",""0.369"",""0.685"",""0.845""]","[1,1,0,1]",0,1,1,1,1,0,1,,,1,FALSE,1.8264,,,,,,,,,,,,,,,,,,,,,,,,,,,,,,,
,612f987cfb1894ecd6c33759,627c69483187fb2e2b04aaf7,2022-05-12_03h57.01.577,classification_task,2021.2.3,Win32,59.94125757,627c6715c52fd12f31907bcf,,,,,,,,,,,,,,,,,,,,,,,a,0,"[""0.406"",""0.166"",""0.561"",""0.721""]","[0,1,1,1]",0,2,2,2,1,1,1,,,1,FALSE,1.6796,,,,,,,,,,,,,,,,,,,,,,,,,,,,,,,
,612f987cfb1894ecd6c33759,627c69483187fb2e2b04aaf7,2022-05-12_03h57.01.577,classification_task,2021.2.3,Win32,59.94125757,627c6715c52fd12f31907bcf,,,,,,,,,,,,,,,,,,,,,,,l,0,"[""0.242"",""0.514"",""0.683"",""0.944""]","[1,1,0,1]",0,3,3,3,1,0,0,,,1,FALSE,0.8224,,,,,,,,,,,,,,,,,,,,,,,,,,,,,,,
,612f987cfb1894ecd6c33759,627c69483187fb2e2b04aaf7,2022-05-12_03h57.01.577,classification_task,2021.2.3,Win32,59.94125757,627c6715c52fd12f31907bcf,,,,,,,,,,,,,,,,,,,,,,,l,1,"[""0.599"",""0.312"",""0.454"",""0.767""]","[0,1,1,1]",0,4,4,4,1,1,0,,,1,FALSE,0.9598,,,,,,,,,,,,,,,,,,,,,,,,,,,,,,,
,612f987cfb1894ecd6c33759,627c69483187fb2e2b04aaf7,2022-05-12_03h57.01.577,classification_task,2021.2.3,Win32,59.94125757,627c6715c52fd12f31907bcf,,,,,,,,,,,,,,,,,,,,,,,a,1,"[""0.242"",""0.805"",""0.879"",""0.944""]","[1,0,1,1]",0,5,5,5,1,0,0,,,1,FALSE,0.5946,,,,,,,,,,,,,,,,,,,,,,,,,,,,,,,
,612f987cfb1894ecd6c33759,627c69483187fb2e2b04aaf7,2022-05-12_03h57.01.577,classification_task,2021.2.3,Win32,59.94125757,627c6715c52fd12f31907bcf,,,,,,,,,,,,,,,,,,,,,,,l,1,"[""0.064"",""0.277"",""0.561"",""0.721""]","[1,0,1,1]",0,6,6,6,1,1,1,,,1,FALSE,1.5104,,,,,,,,,,,,,,,,,,,,,,,,,,,,,,,
,612f987cfb1894ecd6c33759,627c69483187fb2e2b04aaf7,2022-05-12_03h57.01.577,classification_task,2021.2.3,Win32,59.94125757,627c6715c52fd12f31907bcf,,,,,,,,,,,,,,,,,,,,,,,a,0,"[""0.105"",""0.312"",""0.416"",""0.767""]","[1,1,0,1]",0,7,7,7,1,1,0,,,1,FALSE,0.8783,,,,,,,,,,,,,,,,,,,,,,,,,,,,,,,
,612f987cfb1894ecd6c33759,627c69483187fb2e2b04aaf7,2022-05-12_03h57.01.577,classification_task,2021.2.3,Win32,59.94125757,627c6715c52fd12f31907bcf,,,,,,,,,,,,,,,,,,,,,,,l,0,"[""0.406"",""0.369"",""0.647"",""0.845""]","[0,1,1,1]",0,8,8,8,1,0,1,,,1,FALSE,1.4697,,,,,,,,,,,,,,,,,,,,,,,,,,,,,,,
,612f987cfb1894ecd6c33759,627c69483187fb2e2b04aaf7,2022-05-12_03h57.01.577,classification_task,2021.2.3,Win32,59.94125757,627c6715c52fd12f31907bcf,,,,,,,,,,,,,,,,,,,,,,,a,1,"[""0.203"",""0.369"",""0.647"",""0.406""]","[1,1,1,0]",0,9,9,9,1,0,1,,,1,FALSE,0.7276,,,,,,,,,,,,,,,,,,,,,,,,,,,,,,,
,612f987cfb1894ecd6c33759,627c69483187fb2e2b04aaf7,2022-05-12_03h57.01.577,classification_task,2021.2.3,Win32,59.94125757,627c6715c52fd12f31907bcf,,,,,,,,,,,,,,,,,,,,,,,a,0,"[""0.105"",""0.312"",""0.454"",""0.277""]","[1,1,1,0]",0,10,10,10,1,1,0,,,1,FALSE,0.6323,,,,,,,,,,,,,,,,,,,,,,,,,,,,,,,
,612f987cfb1894ecd6c33759,627c69483187fb2e2b04aaf7,2022-05-12_03h57.01.577,classification_task,2021.2.3,Win32,59.94125757,627c6715c52fd12f31907bcf,,,,,,,,,,,,,,,,,,,,,,,l,1,"[""0.064"",""0.166"",""0.416"",""0.721""]","[1,1,0,1]",0,11,11,11,1,1,1,,,1,FALSE,0.4784,,,,,,,,,,,,,,,,,,,,,,,,,,,,,,,
,612f987cfb1894ecd6c33759,627c69483187fb2e2b04aaf7,2022-05-12_03h57.01.577,classification_task,2021.2.3,Win32,59.94125757,627c6715c52fd12f31907bcf,,,,,,,,,,,,,,,,,,,,,,,a,1,"[""0.242"",""0.514"",""0.879"",""0.406""]","[1,1,1,0]",0,12,12,12,1,0,0,,,1,FALSE,0.5665,,,,,,,,,,,,,,,,,,,,,,,,,,,,,,,
,612f987cfb1894ecd6c33759,627c69483187fb2e2b04aaf7,2022-05-12_03h57.01.577,classification_task,2021.2.3,Win32,59.94125757,627c6715c52fd12f31907bcf,,,,,,,,,,,,,,,,,,,,,,,a,0,"[""0.064"",""0.166"",""0.561"",""0.608""]","[1,1,1,0]",0,13,13,13,1,1,1,,,1,FALSE,0.8498,,,,,,,,,,,,,,,,,,,,,,,,,,,,,,,
,612f987cfb1894ecd6c33759,627c69483187fb2e2b04aaf7,2022-05-12_03h57.01.577,classification_task,2021.2.3,Win32,59.94125757,627c6715c52fd12f31907bcf,,,,,,,,,,,,,,,,,,,,,,,a,1,"[""0.203"",""0.682"",""0.647"",""0.845""]","[1,0,1,1]",0,14,14,14,1,0,1,,,1,FALSE,1.0332,,,,,,,,,,,,,,,,,,,,,,,,,,,,,,,
,612f987cfb1894ecd6c33759,627c69483187fb2e2b04aaf7,2022-05-12_03h57.01.577,classification_task,2021.2.3,Win32,59.94125757,627c6715c52fd12f31907bcf,,,,,,,,,,,,,,,,,,,,,,,l,0,"[""0.030"",""0.514"",""0.879"",""0.944""]","[0,1,1,1]",0,15,15,15,1,0,0,,,1,FALSE,0.566,,,,,,,,,,,,,,,,,,,,,,,,,,,,,,,
,612f987cfb1894ecd6c33759,627c69483187fb2e2b04aaf7,2022-05-12_03h57.01.577,classification_task,2021.2.3,Win32,59.94125757,627c6715c52fd12f31907bcf,,,,,,,,,,,,,,,,,,,,,,,a,0,"[""0.105"",""0.312"",""0.454"",""0.805""]","[1,1,1,0]",0,16,16,16,1,1,0,,,1,FALSE,0.7344,,,,,,,,,,,,,,,,,,,,,,,,,,,,,,,
,612f987cfb1894ecd6c33759,627c69483187fb2e2b04aaf7,2022-05-12_03h57.01.577,classification_task,2021.2.3,Win32,59.94125757,627c6715c52fd12f31907bcf,,,,,,,,,,,,,,,,,,,,,,,a,1,"[""0.242"",""0.514"",""0.879"",""0.406""]","[1,1,1,0]",0,17,17,17,1,0,0,,,1,FALSE,0.8161,,,,,,,,,,,,,,,,,,,,,,,,,,,,,,,
,612f987cfb1894ecd6c33759,627c69483187fb2e2b04aaf7,2022-05-12_03h57.01.577,classification_task,2021.2.3,Win32,59.94125757,627c6715c52fd12f31907bcf,,,,,,,,,,,,,,,,,,,,,,,a,1,"[""0.277"",""0.369"",""0.647"",""0.845""]","[0,1,1,1]",0,18,18,18,1,0,1,,,1,FALSE,1.1821,,,,,,,,,,,,,,,,,,,,,,,,,,,,,,,
,612f987cfb1894ecd6c33759,627c69483187fb2e2b04aaf7,2022-05-12_03h57.01.577,classification_task,2021.2.3,Win32,59.94125757,627c6715c52fd12f31907bcf,,,,,,,,,,,,,,,,,,,,,,,a,1,"[""0.203"",""0.369"",""0.647"",""0.811""]","[1,1,1,0]",0,19,19,19,1,0,1,,,1,FALSE,0.781,,,,,,,,,,,,,,,,,,,,,,,,,,,,,,,
,612f987cfb1894ecd6c33759,627c69483187fb2e2b04aaf7,2022-05-12_03h57.01.577,classification_task,2021.2.3,Win32,59.94125757,627c6715c52fd12f31907bcf,,,,,,,,,,,,,,,,,,,,,,,l,0,"[""0.682"",""0.514"",""0.879"",""0.944""]","[0,1,1,1]",0,20,20,20,1,0,0,,,1,FALSE,0.6664,,,,,,,,,,,,,,,,,,,,,,,,,,,,,,,
,612f987cfb1894ecd6c33759,627c69483187fb2e2b04aaf7,2022-05-12_03h57.01.577,classification_task,2021.2.3,Win32,59.94125757,627c6715c52fd12f31907bcf,,,,,,,,,,,,,,,,,,,,,,,l,1,"[""0.064"",""0.810"",""0.561"",""0.721""]","[1,0,1,1]",0,21,21,21,1,1,1,,,1,FALSE,0.7489,,,,,,,,,,,,,,,,,,,,,,,,,,,,,,,
,612f987cfb1894ecd6c33759,627c69483187fb2e2b04aaf7,2022-05-12_03h57.01.577,classification_task,2021.2.3,Win32,59.94125757,627c6715c52fd12f31907bcf,,,,,,,,,,,,,,,,,,,,,,,l,1,"[""0.608"",""0.166"",""0.561"",""0.721""]","[0,1,1,1]",0,22,22,22,1,1,1,,,1,FALSE,0.8001,,,,,,,,,,,,,,,,,,,,,,,,,,,,,,,
,612f987cfb1894ecd6c33759,627c69483187fb2e2b04aaf7,2022-05-12_03h57.01.577,classification_task,2021.2.3,Win32,59.94125757,627c6715c52fd12f31907bcf,,,,,,,,,,,,,,,,,,,,,,,a,0,"[""0.064"",""0.166"",""0.561"",""0.685""]","[1,1,1,0]",0,23,23,23,1,1,1,,,1,FALSE,0.8643,,,,,,,,,,,,,,,,,,,,,,,,,,,,,,,
,612f987cfb1894ecd6c33759,627c69483187fb2e2b04aaf7,2022-05-12_03h57.01.577,classification_task,2021.2.3,Win32,59.94125757,627c6715c52fd12f31907bcf,,,,,,,,,,,,,,,,,,,,,,,a,0,"[""0.064"",""0.166"",""0.805"",""0.721""]","[1,1,0,1]",0,24,24,24,1,1,1,,,1,FALSE,0.7779,,,,,,,,,,,,,,,,,,,,,,,,,,,,,,,
,612f987cfb1894ecd6c33759,627c69483187fb2e2b04aaf7,2022-05-12_03h57.01.577,classification_task,2021.2.3,Win32,59.94125757,627c6715c52fd12f31907bcf,,,,,,,,,,,,,,,,,,,,,,,l,0,"[""0.242"",""0.810"",""0.879"",""0.944""]","[1,0,1,1]",0,25,25,25,1,0,0,,,1,FALSE,0.8834,,,,,,,,,,,,,,,,,,,,,,,,,,,,,,,
,612f987cfb1894ecd6c33759,627c69483187fb2e2b04aaf7,2022-05-12_03h57.01.577,classification_task,2021.2.3,Win32,59.94125757,627c6715c52fd12f31907bcf,,,,,,,,,,,,,,,,,,,,,,,a,0,"[""0.416"",""0.312"",""0.454"",""0.767""]","[0,1,1,1]",0,26,26,26,1,1,0,,,1,FALSE,0.9139,,,,,,,,,,,,,,,,,,,,,,,,,,,,,,,
,612f987cfb1894ecd6c33759,627c69483187fb2e2b04aaf7,2022-05-12_03h57.01.577,classification_task,2021.2.3,Win32,59.94125757,627c6715c52fd12f31907bcf,,,,,,,,,,,,,,,,,,,,,,,a,1,"[""0.242"",""0.514"",""0.805"",""0.944""]","[1,1,0,1]",0,27,27,27,1,0,0,,,1,FALSE,1.0267,,,,,,,,,,,,,,,,,,,,,,,,,,,,,,,
,612f987cfb1894ecd6c33759,627c69483187fb2e2b04aaf7,2022-05-12_03h57.01.577,classification_task,2021.2.3,Win32,59.94125757,627c6715c52fd12f31907bcf,,,,,,,,,,,,,,,,,,,,,,,l,0,"[""0.203"",""0.608"",""0.647"",""0.845""]","[1,0,1,1]",0,28,28,28,1,0,1,,,1,FALSE,0.933,,,,,,,,,,,,,,,,,,,,,,,,,,,,,,,
,612f987cfb1894ecd6c33759,627c69483187fb2e2b04aaf7,2022-05-12_03h57.01.577,classification_task,2021.2.3,Win32,59.94125757,627c6715c52fd12f31907bcf,,,,,,,,,,,,,,,,,,,,,,,a,0,"[""0.105"",""0.312"",""0.417"",""0.767""]","[1,1,0,1]",0,29,29,29,1,1,0,,,1,FALSE,1.0785,,,,,,,,,,,,,,,,,,,,,,,,,,,,,,,
,612f987cfb1894ecd6c33759,627c69483187fb2e2b04aaf7,2022-05-12_03h57.01.577,classification_task,2021.2.3,Win32,59.94125757,627c6715c52fd12f31907bcf,,,,,,,,,,,,,,,,,,,,,,,l,1,"[""0.105"",""0.805"",""0.454"",""0.767""]","[1,0,1,1]",0,30,30,30,1,1,0,,,1,FALSE,0.9584,,,,,,,,,,,,,,,,,,,,,,,,,,,,,,,
,612f987cfb1894ecd6c33759,627c69483187fb2e2b04aaf7,2022-05-12_03h57.01.577,classification_task,2021.2.3,Win32,59.94125757,627c6715c52fd12f31907bcf,,,,,,,,,,,,,,,,,,,,,,,a,1,"[""0.203"",""0.369"",""0.406"",""0.845""]","[1,1,0,1]",0,31,31,31,1,0,1,,,1,FALSE,0.6204,,,,,,,,,,,,,,,,,,,,,,,,,,,,,,,
,612f987cfb1894ecd6c33759,627c69483187fb2e2b04aaf7,2022-05-12_03h57.01.577,classification_task,2021.2.3,Win32,59.94125757,627c6715c52fd12f31907bcf,,,,,,,,,,,,,,,,,,,,,,,l,0,"[""0.242"",""0.514"",""0.879"",""0.805""]","[1,1,1,0]",0,32,32,32,1,0,0,,,1,FALSE,0.4792,,,,,,,,,,,,,,,,,,,,,,,,,,,,,,,
,612f987cfb1894ecd6c33759,627c69483187fb2e2b04aaf7,2022-05-12_03h57.01.577,classification_task,2021.2.3,Win32,59.94125757,627c6715c52fd12f31907bcf,,,,,,,,,,,,,,,,,,,,,,,a,0,"[""0.105"",""0.805"",""0.454"",""0.767""]","[1,0,1,1]",0,33,33,33,1,1,0,,,1,FALSE,0.5168,,,,,,,,,,,,,,,,,,,,,,,,,,,,,,,
,612f987cfb1894ecd6c33759,627c69483187fb2e2b04aaf7,2022-05-12_03h57.01.577,classification_task,2021.2.3,Win32,59.94125757,627c6715c52fd12f31907bcf,,,,,,,,,,,,,,,,,,,,,,,a,0,"[""0.683"",""0.312"",""0.454"",""0.767""]","[0,1,1,1]",0,34,34,34,1,1,0,,,1,FALSE,0.8948,,,,,,,,,,,,,,,,,,,,,,,,,,,,,,,
,612f987cfb1894ecd6c33759,627c69483187fb2e2b04aaf7,2022-05-12_03h57.01.577,classification_task,2021.2.3,Win32,59.94125757,627c6715c52fd12f31907bcf,,,,,,,,,,,,,,,,,,,,,,,l,1,"[""0.105"",""0.312"",""0.406"",""0.767""]","[1,1,0,1]",0,35,35,35,1,1,0,,,1,FALSE,0.7912,,,,,,,,,,,,,,,,,,,,,,,,,,,,,,,
,612f987cfb1894ecd6c33759,627c69483187fb2e2b04aaf7,2022-05-12_03h57.01.577,classification_task,2021.2.3,Win32,59.94125757,627c6715c52fd12f31907bcf,,,,,,,,,,,,,,,,,,,,,,,a,0,"[""0.416"",""0.166"",""0.561"",""0.721""]","[0,1,1,1]",0,36,36,36,1,1,1,,,1,FALSE,0.6476,,,,,,,,,,,,,,,,,,,,,,,,,,,,,,,
,612f987cfb1894ecd6c33759,627c69483187fb2e2b04aaf7,2022-05-12_03h57.01.577,classification_task,2021.2.3,Win32,59.94125757,627c6715c52fd12f31907bcf,,,,,,,,,,,,,,,,,,,,,,,a,1,"[""0.203"",""0.369"",""0.805"",""0.845""]","[1,1,0,1]",0,37,37,37,1,0,1,,,1,FALSE,0.6502,,,,,,,,,,,,,,,,,,,,,,,,,,,,,,,
,612f987cfb1894ecd6c33759,627c69483187fb2e2b04aaf7,2022-05-12_03h57.01.577,classification_task,2021.2.3,Win32,59.94125757,627c6715c52fd12f31907bcf,,,,,,,,,,,,,,,,,,,,,,,l,1,"[""0.064"",""0.166"",""0.561"",""0.805""]","[1,1,1,0]",0,38,38,38,1,1,1,,,1,FALSE,0.6293,,,,,,,,,,,,,,,,,,,,,,,,,,,,,,,
,612f987cfb1894ecd6c33759,627c69483187fb2e2b04aaf7,2022-05-12_03h57.01.577,classification_task,2021.2.3,Win32,59.94125757,627c6715c52fd12f31907bcf,,,,,,,,,,,,,,,,,,,,,,,l,0,"[""0.242"",""0.514"",""0.277"",""0.944""]","[1,1,0,1]",0,39,39,39,1,0,0,,,1,FALSE,1.0597,,,,,,,,,,,,,,,,,,,,,,,,,,,,,,,
,612f987cfb1894ecd6c33759,627c69483187fb2e2b04aaf7,2022-05-12_03h57.01.577,classification_task,2021.2.3,Win32,59.94125757,627c6715c52fd12f31907bcf,,,,,,,,,,,,,,,,,,,,,,,l,0,"[""0.682"",""0.369"",""0.647"",""0.845""]","[0,1,1,1]",0,40,40,40,1,0,1,,,1,FALSE,1.0804,,,,,,,,,,,,,,,,,,,,,,,,,,,,,,,
,612f987cfb1894ecd6c33759,627c69483187fb2e2b04aaf7,2022-05-12_03h57.01.577,classification_task,2021.2.3,Win32,59.94125757,627c6715c52fd12f31907bcf,,,,,,,,,,,,,,,,,,,,,,,a,1,"[""0.203"",""0.369"",""0.647"",""0.805""]","[1,1,1,0]",0,41,41,41,1,0,1,,,1,FALSE,0.7073,,,,,,,,,,,,,,,,,,,,,,,,,,,,,,,
,612f987cfb1894ecd6c33759,627c69483187fb2e2b04aaf7,2022-05-12_03h57.01.577,classification_task,2021.2.3,Win32,59.94125757,627c6715c52fd12f31907bcf,,,,,,,,,,,,,,,,,,,,,,,a,1,"[""0.203"",""0.406"",""0.647"",""0.845""]","[1,0,1,1]",0,42,42,42,1,0,1,,,1,FALSE,0.5998,,,,,,,,,,,,,,,,,,,,,,,,,,,,,,,
,612f987cfb1894ecd6c33759,627c69483187fb2e2b04aaf7,2022-05-12_03h57.01.577,classification_task,2021.2.3,Win32,59.94125757,627c6715c52fd12f31907bcf,,,,,,,,,,,,,,,,,,,,,,,l,1,"[""0.105"",""0.312"",""0.454"",""0.805""]","[1,1,1,0]",0,43,43,43,1,1,0,,,1,FALSE,0.6157,,,,,,,,,,,,,,,,,,,,,,,,,,,,,,,
,612f987cfb1894ecd6c33759,627c69483187fb2e2b04aaf7,2022-05-12_03h57.01.577,classification_task,2021.2.3,Win32,59.94125757,627c6715c52fd12f31907bcf,,,,,,,,,,,,,,,,,,,,,,,l,1,"[""0.064"",""0.805"",""0.561"",""0.721""]","[1,0,1,1]",0,44,44,44,1,1,1,,,1,FALSE,0.8267,,,,,,,,,,,,,,,,,,,,,,,,,,,,,,,
,612f987cfb1894ecd6c33759,627c69483187fb2e2b04aaf7,2022-05-12_03h57.01.577,classification_task,2021.2.3,Win32,59.94125757,627c6715c52fd12f31907bcf,,,,,,,,,,,,,,,,,,,,,,,l,1,"[""0.064"",""0.166"",""0.416"",""0.721""]","[1,1,0,1]",0,45,45,45,1,1,1,,,1,FALSE,1.045,,,,,,,,,,,,,,,,,,,,,,,,,,,,,,,
,612f987cfb1894ecd6c33759,627c69483187fb2e2b04aaf7,2022-05-12_03h57.01.577,classification_task,2021.2.3,Win32,59.94125757,627c6715c52fd12f31907bcf,,,,,,,,,,,,,,,,,,,,,,,l,0,"[""0.683"",""0.514"",""0.879"",""0.944""]","[0,1,1,1]",0,46,46,46,1,0,0,,,1,FALSE,0.8111,,,,,,,,,,,,,,,,,,,,,,,,,,,,,,,
,612f987cfb1894ecd6c33759,627c69483187fb2e2b04aaf7,2022-05-12_03h57.01.577,classification_task,2021.2.3,Win32,59.94125757,627c6715c52fd12f31907bcf,,,,,,,,,,,,,,,,,,,,,,,l,0,"[""0.242"",""0.277"",""0.879"",""0.944""]","[1,0,1,1]",0,47,47,47,1,0,0,,,1,FALSE,0.8836,,,,,,,,,,,,,,,,,,,,,,,,,,,,,,,
,612f987cfb1894ecd6c33759,627c69483187fb2e2b04aaf7,2022-05-12_03h57.01.577,classification_task,2021.2.3,Win32,59.94125757,627c6715c52fd12f31907bcf,,,,,,,,,,,,,,,,,,,,,,,a,1,"[""0.810"",""0.369"",""0.647"",""0.845""]","[0,1,1,1]",0,48,48,48,1,0,1,,,1,FALSE,0.9732,,,,,,,,,,,,,,,,,,,,,,,,,,,,,,,
,612f987cfb1894ecd6c33759,627c69483187fb2e2b04aaf7,2022-05-12_03h57.01.577,classification_task,2021.2.3,Win32,59.94125757,627c6715c52fd12f31907bcf,,,,,,,,,,,,,,,,,,,,,,,a,1,"[""0.406"",""0.514"",""0.879"",""0.944""]","[0,1,1,1]",0,49,49,49,1,0,0,,,1,FALSE,0.5514,,,,,,,,,,,,,,,,,,,,,,,,,,,,,,,
,612f987cfb1894ecd6c33759,627c69483187fb2e2b04aaf7,2022-05-12_03h57.01.577,classification_task,2021.2.3,Win32,59.94125757,627c6715c52fd12f31907bcf,,,,,,,,,,,,,,,,,,,,,,,l,1,"[""0.406"",""0.312"",""0.454"",""0.767""]","[0,1,1,1]",0,50,50,50,1,1,0,,,1,FALSE,0.4453,,,,,,,,,,,,,,,,,,,,,,,,,,,,,,,
,612f987cfb1894ecd6c33759,627c69483187fb2e2b04aaf7,2022-05-12_03h57.01.577,classification_task,2021.2.3,Win32,59.94125757,627c6715c52fd12f31907bcf,,,,,,,,,,,,,,,,,,,,,,,a,1,"[""0.203"",""0.030"",""0.647"",""0.845""]","[1,0,1,1]",0,51,51,51,1,0,1,,,1,FALSE,0.4841,,,,,,,,,,,,,,,,,,,,,,,,,,,,,,,
,612f987cfb1894ecd6c33759,627c69483187fb2e2b04aaf7,2022-05-12_03h57.01.577,classification_task,2021.2.3,Win32,59.94125757,627c6715c52fd12f31907bcf,,,,,,,,,,,,,,,,,,,,,,,a,1,"[""0.242"",""0.514"",""0.879"",""0.406""]","[1,1,1,0]",0,52,52,52,1,0,0,,,1,FALSE,0.4632,,,,,,,,,,,,,,,,,,,,,,,,,,,,,,,
,612f987cfb1894ecd6c33759,627c69483187fb2e2b04aaf7,2022-05-12_03h57.01.577,classification_task,2021.2.3,Win32,59.94125757,627c6715c52fd12f31907bcf,,,,,,,,,,,,,,,,,,,,,,,a,1,"[""0.203"",""0.369"",""0.647"",""0.805""]","[1,1,1,0]",0,53,53,53,1,0,1,,,1,FALSE,0.8792,,,,,,,,,,,,,,,,,,,,,,,,,,,,,,,
,612f987cfb1894ecd6c33759,627c69483187fb2e2b04aaf7,2022-05-12_03h57.01.577,classification_task,2021.2.3,Win32,59.94125757,627c6715c52fd12f31907bcf,,,,,,,,,,,,,,,,,,,,,,,a,0,"[""0.811"",""0.166"",""0.561"",""0.721""]","[0,1,1,1]",0,54,54,54,1,1,1,,,1,FALSE,0.4976,,,,,,,,,,,,,,,,,,,,,,,,,,,,,,,
,612f987cfb1894ecd6c33759,627c69483187fb2e2b04aaf7,2022-05-12_03h57.01.577,classification_task,2021.2.3,Win32,59.94125757,627c6715c52fd12f31907bcf,,,,,,,,,,,,,,,,,,,,,,,l,0,"[""0.203"",""0.369"",""0.811"",""0.845""]","[1,1,0,1]",0,55,55,55,1,0,1,,,1,FALSE,0.6421,,,,,,,,,,,,,,,,,,,,,,,,,,,,,,,
,612f987cfb1894ecd6c33759,627c69483187fb2e2b04aaf7,2022-05-12_03h57.01.577,classification_task,2021.2.3,Win32,59.94125757,627c6715c52fd12f31907bcf,,,,,,,,,,,,,,,,,,,,,,,a,1,"[""0.242"",""0.030"",""0.879"",""0.944""]","[1,0,1,1]",0,56,56,56,1,0,0,,,1,FALSE,0.876,,,,,,,,,,,,,,,,,,,,,,,,,,,,,,,
,612f987cfb1894ecd6c33759,627c69483187fb2e2b04aaf7,2022-05-12_03h57.01.577,classification_task,2021.2.3,Win32,59.94125757,627c6715c52fd12f31907bcf,,,,,,,,,,,,,,,,,,,,,,,l,1,"[""0.064"",""0.406"",""0.561"",""0.721""]","[1,0,1,1]",0,57,57,57,1,1,1,,,1,FALSE,0.3893,,,,,,,,,,,,,,,,,,,,,,,,,,,,,,,
,612f987cfb1894ecd6c33759,627c69483187fb2e2b04aaf7,2022-05-12_03h57.01.577,classification_task,2021.2.3,Win32,59.94125757,627c6715c52fd12f31907bcf,,,,,,,,,,,,,,,,,,,,,,,l,1,"[""0.064"",""0.166"",""0.683"",""0.721""]","[1,1,0,1]",0,58,58,58,1,1,1,,,1,FALSE,0.5671,,,,,,,,,,,,,,,,,,,,,,,,,,,,,,,
,612f987cfb1894ecd6c33759,627c69483187fb2e2b04aaf7,2022-05-12_03h57.01.577,classification_task,2021.2.3,Win32,59.94125757,627c6715c52fd12f31907bcf,,,,,,,,,,,,,,,,,,,,,,,a,0,"[""0.105"",""0.312"",""0.454"",""0.416""]","[1,1,1,0]",0,59,59,59,1,1,0,,,1,FALSE,0.4984,,,,,,,,,,,,,,,,,,,,,,,,,,,,,,,
,612f987cfb1894ecd6c33759,627c69483187fb2e2b04aaf7,2022-05-12_03h57.01.577,classification_task,2021.2.3,Win32,59.94125757,627c6715c52fd12f31907bcf,,,,,,,,,,,,,,,,,,,,,,,a,1,"[""0.242"",""0.514"",""0.683"",""0.944""]","[1,1,0,1]",0,60,60,60,1,0,0,,,1,FALSE,0.7935,,,,,,,,,,,,,,,,,,,,,,,,,,,,,,,
,612f987cfb1894ecd6c33759,627c69483187fb2e2b04aaf7,2022-05-12_03h57.01.577,classification_task,2021.2.3,Win32,59.94125757,627c6715c52fd12f31907bcf,,,,,,,,,,,,,,,,,,,,,,,l,1,"[""0.105"",""0.312"",""0.608"",""0.767""]","[1,1,0,1]",0,61,61,61,1,1,0,,,1,FALSE,0.3099,,,,,,,,,,,,,,,,,,,,,,,,,,,,,,,
,612f987cfb1894ecd6c33759,627c69483187fb2e2b04aaf7,2022-05-12_03h57.01.577,classification_task,2021.2.3,Win32,59.94125757,627c6715c52fd12f31907bcf,,,,,,,,,,,,,,,,,,,,,,,a,0,"[""0.064"",""0.166"",""0.561"",""0.406""]","[1,1,1,0]",0,62,62,62,1,1,1,,,1,FALSE,0.3433,,,,,,,,,,,,,,,,,,,,,,,,,,,,,,,
,612f987cfb1894ecd6c33759,627c69483187fb2e2b04aaf7,2022-05-12_03h57.01.577,classification_task,2021.2.3,Win32,59.94125757,627c6715c52fd12f31907bcf,,,,,,,,,,,,,,,,,,,,,,,l,1,"[""0.105"",""0.805"",""0.454"",""0.767""]","[1,0,1,1]",0,63,63,63,1,1,0,,,1,FALSE,0.6261,,,,,,,,,,,,,,,,,,,,,,,,,,,,,,,
,612f987cfb1894ecd6c33759,627c69483187fb2e2b04aaf7,2022-05-12_03h57.01.577,classification_task,2021.2.3,Win32,59.94125757,627c6715c52fd12f31907bcf,,,,,,,,,,,,,,,,,,,,,,,,,,,,,,,,,,,,,,,0, ,,0,1.279761905,135.3194,0,2,2,2,1,2,3,,,,,,,,,,,,,,,,,,
,612f987cfb1894ecd6c33759,627c69483187fb2e2b04aaf7,2022-05-12_03h57.01.577,classification_task,2021.2.3,Win32,59.94125757,627c6715c52fd12f31907bcf,,,,,,,,,,,,,,,,,,,,,,,,,,,,,,,,,,,,,,,1,  ,,0,10,141.6806,0,2,2,2,1,2,3,,,,,,,,,,,,,,,,,,
,612f987cfb1894ecd6c33759,627c69483187fb2e2b04aaf7,2022-05-12_03h57.01.577,classification_task,2021.2.3,Win32,59.94125757,627c6715c52fd12f31907bcf,,,,,,,,,,,,,,,,,,,,,,,,,,,,,,,,,,,,,,,2,  ,,0,10,143.9626,0,2,2,2,1,2,3,,,,,,,,,,,,,,,,,,
,612f987cfb1894ecd6c33759,627c69483187fb2e2b04aaf7,2022-05-12_03h57.01.577,classification_task,2021.2.3,Win32,59.94125757,627c6715c52fd12f31907bcf,,,,,,,,,,,,,,,,,,,,,,,,,,,,,,,,,,,,,,,,,,,,,0,2,2,2,1,,3,,,,,,,,,,,,,,,,,,
,612f987cfb1894ecd6c33759,627c69483187fb2e2b04aaf7,2022-05-12_03h57.01.577,classification_task,2021.2.3,Win32,59.94125757,627c6715c52fd12f31907bcf,,,,,,,,,,,,,,,,,,,,,,,,,,,,,,,,,,,,,,,,,,,,,,,,,,,,,I believe the aid is a competent performer,,0.7,0,3,1142.2776,0,0,0,0,1,0,,,,,
,612f987cfb1894ecd6c33759,627c69483187fb2e2b04aaf7,2022-05-12_03h57.01.577,classification_task,2021.2.3,Win32,59.94125757,627c6715c52fd12f31907bcf,,,,,,,,,,,,,,,,,,,,,,,,,,,,,,,,,,,,,,,,,,,,,,,,,,,,,I trust the aid,,0.7,0,3,1124.7163,0,0,0,0,1,0,,,,,
,612f987cfb1894ecd6c33759,627c69483187fb2e2b04aaf7,2022-05-12_03h57.01.577,classification_task,2021.2.3,Win32,59.94125757,627c6715c52fd12f31907bcf,,,,,,,,,,,,,,,,,,,,,,,,,,,,,,,,,,,,,,,,,,,,,,,,,,,,,I have confidence in the advice given by the aid,,0.7,0,3,1131.1665,0,0,0,0,1,0,,,,,
,612f987cfb1894ecd6c33759,627c69483187fb2e2b04aaf7,2022-05-12_03h57.01.577,classification_task,2021.2.3,Win32,59.94125757,627c6715c52fd12f31907bcf,,,,,,,,,,,,,,,,,,,,,,,,,,,,,,,,,,,,,,,,,,,,,,,,,,,,,I can depend on the aid,,0.7,0,3,1133.8671,0,0,0,0,1,0,,,,,
,612f987cfb1894ecd6c33759,627c69483187fb2e2b04aaf7,2022-05-12_03h57.01.577,classification_task,2021.2.3,Win32,59.94125757,627c6715c52fd12f31907bcf,,,,,,,,,,,,,,,,,,,,,,,,,,,,,,,,,,,,,,,,,,,,,,,,,,,,,I can rely on the aid to behave in consistent ways,,0.7,0,3,1137.0361,0,0,0,0,1,0,,,,,
,612f987cfb1894ecd6c33759,627c69483187fb2e2b04aaf7,2022-05-12_03h57.01.577,classification_task,2021.2.3,Win32,59.94125757,627c6715c52fd12f31907bcf,,,,,,,,,,,,,,,,,,,,,,,,,,,,,,,,,,,,,,,,,,,,,,,,,,,,,I can rely on the aid to do its best every time I take its advice,,0.7,0,3,1141.0012,0,0,0,0,1,0,,,,,
,612f987cfb1894ecd6c33759,627c69483187fb2e2b04aaf7,2022-05-12_03h57.01.577,classification_task,2021.2.3,Win32,59.94125757,627c6715c52fd12f31907bcf,,,,,,,,,,,,,,,,,,,,,,,,,,,,,,,,,,,,,,,,,,,,,,,,,,,,,"On trials you completed with assistance from the aid, how frequently did you think the aid was correct?",,0.7,0,90%,,0,0,0,0,1,0,,,,,
,612f987cfb1894ecd6c33759,627c69483187fb2e2b04aaf7,2022-05-12_03h57.01.577,classification_task,2021.2.3,Win32,59.94125757,627c6715c52fd12f31907bcf,,,,,,,,,,,,,,,,,,,,,,,,,,,,,,,,,,,,,,,,,,,,,,,,,,,,,"On trials you completed without the aid, how frequently did you think you were correct?",,0.7,0,30%,,0,0,0,0,1,0,,,,,
,612f987cfb1894ecd6c33759,627c69483187fb2e2b04aaf7,2022-05-12_03h57.01.577,classification_task,2021.2.3,Win32,59.94125757,627c6715c52fd12f31907bcf,,,,,,,,,,,,,,,,,,,,,,,,,,,,,,,,,,,,,,,,,,,,,,,,,,,,,,,,,,,0,0,0,0,1,,,,,,
,612f987cfb1894ecd6c33759,627c69483187fb2e2b04aaf7,2022-05-12_03h57.01.577,classification_task,2021.2.3,Win32,59.94125757,627c6715c52fd12f31907bcf,,,,,,,,,,,,,,,,,,,,,,,,,,,,,,,,,,,,,,,,,,,,,,,,,,,,,,,,,,,,,,,,,space,4.1363,1205.7977,,
,612f987cfb1894ecd6c33759,627c69483187fb2e2b04aaf7,2022-05-12_03h57.01.577,classification_task,2021.2.3,Win32,59.94125757,627c6715c52fd12f31907bcf,,,,,,,,,,,,,,,,,,,,,,,,,,,,,,,,,,,,,,,,,,,,,,,,,,,,,,,,,,,,,,,,,,,,"Mozilla/5.0 (Windows NT 10.0; Win64; x64) AppleWebKit/537.36 (KHTML, like Gecko) Chrome/101.0.4951.54 Safari/537.36",
,612f987cfb1894ecd6c33759,627c69483187fb2e2b04aaf7,2022-05-12_03h57.01.577,classification_task,2021.2.3,Win32,59.94125757,627c6715c52fd12f31907bcf,,,,,,,,,,,,,,,,,,,,,,,,,,,,,,,,,,,,,,,,,,,,,,,,,,,,,,,,,,,,,,,,,,,,,HIGHLIGHT
