usingWebGL,participant,session,date,expName,psychopyVersion,OS,frameRate,study_id,signatures_friend,signatures_foe,band_ranges_top,band_ranges_bottom,formitemText,formtype,formundefined,formitemWidth,formindex,formresponse,formrt,key_resp_2.keys,key_resp_2.rt,tute_resp.keys,tute_resp.rt,tutorial.thisRepN,tutorial.thisTrialN,tutorial.thisN,tutorial.thisIndex,tutorial.ran,key_resp_4.keys,key_resp_4.rt,key_resp.keys,key_resp.corr,key_resp.rt,lines_presented,is_signal_presented,trials.thisRepN,trials.thisTrialN,trials.thisN,trials.thisIndex,trials.ran,vessel,active_band,lines,is_signal,supported_pos,catch_trial,debrief_formindex,debrief_formitemText,debrief_formtype,debrief_formitemWidth,debrief_formresponse,debrief_formrt,phases.thisRepN,phases.thisTrialN,phases.thisN,phases.thisIndex,phases.ran,phases.order,phase,key_resp_3.keys,trustitemText,trusttype,trustitemWidth,trustindex,trustresponse,trustrt,support_status.thisRepN,support_status.thisTrialN,support_status.thisN,support_status.thisIndex,support_status.ran,support_status.order,key_resp_5.keys,key_resp_5.rt,globalClockTime,userAgent,manualCondition
TRUE,61316af31240db5bbfa85ce9,627c7679650aa9c67843bd12,2022-05-12_05h04.53.725,classification_task,2021.2.3,Win32,59.58410296,627c6715c52fd12f31907bd0,,,,,,,,,,,,,,,,,,,,,,,,,,,,,,,,,,,,,,,,,,,,,,,,,,,,,,,,,,,,,,,,,,,,,
,61316af31240db5bbfa85ce9,627c7679650aa9c67843bd12,2022-05-12_05h04.53.725,classification_task,2021.2.3,Win32,59.58410296,627c6715c52fd12f31907bd0,"[[""0.171"",""0.437"",""0.854"",""0.890""],[""0.268"",""0.388"",""0.938"",""0.975""]]","[[""0.025"",""0.316"",""0.584"",""0.722""],[""0.131"",""0.227"",""0.626"",""0.764""]]","[1,10]","[100,1000]",Video game experience,,,0.7,0,,,,,,,,,,,,,,,,,,,,,,,,,,,,,,,,,,,,,,,,,,,,,,,,,,,,,,,,,,,,
,61316af31240db5bbfa85ce9,627c7679650aa9c67843bd12,2022-05-12_05h04.53.725,classification_task,2021.2.3,Win32,59.58410296,627c6715c52fd12f31907bd0,,,,,Approximately how many hours did you spend playing video games in the last week?,,,0.7,0,1,,,,,,,,,,,,,,,,,,,,,,,,,,,,,,,,,,,,,,,,,,,,,,,,,,,,,,,,,,,
,61316af31240db5bbfa85ce9,627c7679650aa9c67843bd12,2022-05-12_05h04.53.725,classification_task,2021.2.3,Win32,59.58410296,627c6715c52fd12f31907bd0,,,,,"Which game did you play the most this year? (Enter ""None"" if you didn't play any)",,,0.7,0,candy crush,,,,,,,,,,,,,,,,,,,,,,,,,,,,,,,,,,,,,,,,,,,,,,,,,,,,,,,,,,,
,61316af31240db5bbfa85ce9,627c7679650aa9c67843bd12,2022-05-12_05h04.53.725,classification_task,2021.2.3,Win32,59.58410296,627c6715c52fd12f31907bd0,,,,,Visual perception,,,0.7,0,,,,,,,,,,,,,,,,,,,,,,,,,,,,,,,,,,,,,,,,,,,,,,,,,,,,,,,,,,,,
,61316af31240db5bbfa85ce9,627c7679650aa9c67843bd12,2022-05-12_05h04.53.725,classification_task,2021.2.3,Win32,59.58410296,627c6715c52fd12f31907bd0,,,,,Do you have any form of color blindness?,,,0.7,0,No,38.8179,,,,,,,,,,,,,,,,,,,,,,,,,,,,,,,,,,,,,,,,,,,,,,,,,,,,,,,,,,
,61316af31240db5bbfa85ce9,627c7679650aa9c67843bd12,2022-05-12_05h04.53.725,classification_task,2021.2.3,Win32,59.58410296,627c6715c52fd12f31907bd0,,,,,Do you use software to change the colour temperature of your screen (e.g. f.lux)?,,,0.7,0,No,49.8899,,,,,,,,,,,,,,,,,,,,,,,,,,,,,,,,,,,,,,,,,,,,,,,,,,,,,,,,,,
,61316af31240db5bbfa85ce9,627c7679650aa9c67843bd12,2022-05-12_05h04.53.725,classification_task,2021.2.3,Win32,59.58410296,627c6715c52fd12f31907bd0,,,,,,,,,,,,space,67.2449,space,72.8374,0,0,0,0,1,,,,,,,,,,,,,,,,,,,,,,,,,,,,,,,,,,,,,,,,,,,,,,,,,
,61316af31240db5bbfa85ce9,627c7679650aa9c67843bd12,2022-05-12_05h04.53.725,classification_task,2021.2.3,Win32,59.58410296,627c6715c52fd12f31907bd0,,,,,,,,,,,,,,space,14.4609,1,0,1,0,1,,,,,,,,,,,,,,,,,,,,,,,,,,,,,,,,,,,,,,,,,,,,,,,,,
,61316af31240db5bbfa85ce9,627c7679650aa9c67843bd12,2022-05-12_05h04.53.725,classification_task,2021.2.3,Win32,59.58410296,627c6715c52fd12f31907bd0,,,,,,,,,,,,,,space,51.4368,2,0,2,0,1,,,,,,,,,,,,,,,,,,,,,,,,,,,,,,,,,,,,,,,,,,,,,,,,,
,61316af31240db5bbfa85ce9,627c7679650aa9c67843bd12,2022-05-12_05h04.53.725,classification_task,2021.2.3,Win32,59.58410296,627c6715c52fd12f31907bd0,,,,,,,,,,,,,,space,20.4478,3,0,3,0,1,,,,,,,,,,,,,,,,,,,,,,,,,,,,,,,,,,,,,,,,,,,,,,,,,
,61316af31240db5bbfa85ce9,627c7679650aa9c67843bd12,2022-05-12_05h04.53.725,classification_task,2021.2.3,Win32,59.58410296,627c6715c52fd12f31907bd0,,,,,,,,,,,,,,space,23.3611,4,0,4,0,1,,,,,,,,,,,,,,,,,,,,,,,,,,,,,,,,,,,,,,,,,,,,,,,,,
,61316af31240db5bbfa85ce9,627c7679650aa9c67843bd12,2022-05-12_05h04.53.725,classification_task,2021.2.3,Win32,59.58410296,627c6715c52fd12f31907bd0,,,,,,,,,,,,,,,,,,,,,space,140.5551,a,0,9.4705,"[""0.131"",""0.227"",""0.074"",""0.764""]","[1,1,0,1]",0,0,0,0,1,1,1,,,0,FALSE,,,,,,,,,,,,,,,,,,,,,,,,,,,,,,,
,61316af31240db5bbfa85ce9,627c7679650aa9c67843bd12,2022-05-12_05h04.53.725,classification_task,2021.2.3,Win32,59.58410296,627c6715c52fd12f31907bd0,,,,,,,,,,,,,,,,,,,,,,,,0,,"[""0.171"",""0.495"",""0.854"",""0.890""]","[1,0,1,1]",0,1,1,1,1,0,0,,,0,FALSE,,,,,,,,,,,,,,,,,,,,,,,,,,,,,,,
,61316af31240db5bbfa85ce9,627c7679650aa9c67843bd12,2022-05-12_05h04.53.725,classification_task,2021.2.3,Win32,59.58410296,627c6715c52fd12f31907bd0,,,,,,,,,,,,,,,,,,,,,,,l,0,3.4079,"[""0.171"",""0.437"",""0.854"",""0.079""]","[1,1,1,0]",0,2,2,2,1,0,0,,,0,FALSE,,,,,,,,,,,,,,,,,,,,,,,,,,,,,,,
,61316af31240db5bbfa85ce9,627c7679650aa9c67843bd12,2022-05-12_05h04.53.725,classification_task,2021.2.3,Win32,59.58410296,627c6715c52fd12f31907bd0,,,,,,,,,,,,,,,,,,,,,,,a,0,0.9151,"[""0.131"",""0.081"",""0.626"",""0.764""]","[1,0,1,1]",0,3,3,3,1,1,1,,,0,FALSE,,,,,,,,,,,,,,,,,,,,,,,,,,,,,,,
,61316af31240db5bbfa85ce9,627c7679650aa9c67843bd12,2022-05-12_05h04.53.725,classification_task,2021.2.3,Win32,59.58410296,627c6715c52fd12f31907bd0,,,,,,,,,,,,,,,,,,,,,,,,0,,"[""0.528"",""0.316"",""0.584"",""0.722""]","[0,1,1,1]",0,4,4,4,1,1,0,,,0,FALSE,,,,,,,,,,,,,,,,,,,,,,,,,,,,,,,
,61316af31240db5bbfa85ce9,627c7679650aa9c67843bd12,2022-05-12_05h04.53.725,classification_task,2021.2.3,Win32,59.58410296,627c6715c52fd12f31907bd0,,,,,,,,,,,,,,,,,,,,,,,a,1,2.6147,"[""0.268"",""0.388"",""0.077"",""0.975""]","[1,1,0,1]",0,5,5,5,1,0,1,,,0,FALSE,,,,,,,,,,,,,,,,,,,,,,,,,,,,,,,
,61316af31240db5bbfa85ce9,627c7679650aa9c67843bd12,2022-05-12_05h04.53.725,classification_task,2021.2.3,Win32,59.58410296,627c6715c52fd12f31907bd0,,,,,,,,,,,,,,,,,,,,,,,l,0,3.0693,"[""0.077"",""0.437"",""0.854"",""0.890""]","[0,1,1,1]",0,6,6,6,1,0,0,,,0,FALSE,,,,,,,,,,,,,,,,,,,,,,,,,,,,,,,
,61316af31240db5bbfa85ce9,627c7679650aa9c67843bd12,2022-05-12_05h04.53.725,classification_task,2021.2.3,Win32,59.58410296,627c6715c52fd12f31907bd0,,,,,,,,,,,,,,,,,,,,,,,a,1,4.9814,"[""0.171"",""0.437"",""0.528"",""0.890""]","[1,1,0,1]",0,7,7,7,1,0,0,,,0,FALSE,,,,,,,,,,,,,,,,,,,,,,,,,,,,,,,
,61316af31240db5bbfa85ce9,627c7679650aa9c67843bd12,2022-05-12_05h04.53.725,classification_task,2021.2.3,Win32,59.58410296,627c6715c52fd12f31907bd0,,,,,,,,,,,,,,,,,,,,,,,a,1,3.3063,"[""0.268"",""0.388"",""0.938"",""0.077""]","[1,1,1,0]",0,8,8,8,1,0,1,,,0,FALSE,,,,,,,,,,,,,,,,,,,,,,,,,,,,,,,
,61316af31240db5bbfa85ce9,627c7679650aa9c67843bd12,2022-05-12_05h04.53.725,classification_task,2021.2.3,Win32,59.58410296,627c6715c52fd12f31907bd0,,,,,,,,,,,,,,,,,,,,,,,a,1,7.0515,"[""0.079"",""0.388"",""0.938"",""0.975""]","[0,1,1,1]",0,9,9,9,1,0,1,,,0,FALSE,,,,,,,,,,,,,,,,,,,,,,,,,,,,,,,
,61316af31240db5bbfa85ce9,627c7679650aa9c67843bd12,2022-05-12_05h04.53.725,classification_task,2021.2.3,Win32,59.58410296,627c6715c52fd12f31907bd0,,,,,,,,,,,,,,,,,,,,,,,a,0,5.0215,"[""0.131"",""0.227"",""0.626"",""0.077""]","[1,1,1,0]",0,10,10,10,1,1,1,,,0,FALSE,,,,,,,,,,,,,,,,,,,,,,,,,,,,,,,
,61316af31240db5bbfa85ce9,627c7679650aa9c67843bd12,2022-05-12_05h04.53.725,classification_task,2021.2.3,Win32,59.58410296,627c6715c52fd12f31907bd0,,,,,,,,,,,,,,,,,,,,,,,l,1,3.5735,"[""0.025"",""0.316"",""0.077"",""0.722""]","[1,1,0,1]",0,11,11,11,1,1,0,,,0,FALSE,,,,,,,,,,,,,,,,,,,,,,,,,,,,,,,
,61316af31240db5bbfa85ce9,627c7679650aa9c67843bd12,2022-05-12_05h04.53.725,classification_task,2021.2.3,Win32,59.58410296,627c6715c52fd12f31907bd0,,,,,,,,,,,,,,,,,,,,,,,a,1,7.5583,"[""0.268"",""0.677"",""0.938"",""0.975""]","[1,0,1,1]",0,12,12,12,1,0,1,,,0,FALSE,,,,,,,,,,,,,,,,,,,,,,,,,,,,,,,
,61316af31240db5bbfa85ce9,627c7679650aa9c67843bd12,2022-05-12_05h04.53.725,classification_task,2021.2.3,Win32,59.58410296,627c6715c52fd12f31907bd0,,,,,,,,,,,,,,,,,,,,,,,l,1,4.4807,"[""0.025"",""0.316"",""0.584"",""0.077""]","[1,1,1,0]",0,13,13,13,1,1,0,,,0,FALSE,,,,,,,,,,,,,,,,,,,,,,,,,,,,,,,
,61316af31240db5bbfa85ce9,627c7679650aa9c67843bd12,2022-05-12_05h04.53.725,classification_task,2021.2.3,Win32,59.58410296,627c6715c52fd12f31907bd0,,,,,,,,,,,,,,,,,,,,,,,a,0,9.812,"[""0.025"",""0.521"",""0.584"",""0.722""]","[1,0,1,1]",0,14,14,14,1,1,0,,,0,FALSE,,,,,,,,,,,,,,,,,,,,,,,,,,,,,,,
,61316af31240db5bbfa85ce9,627c7679650aa9c67843bd12,2022-05-12_05h04.53.725,classification_task,2021.2.3,Win32,59.58410296,627c6715c52fd12f31907bd0,,,,,,,,,,,,,,,,,,,,,,,a,0,6.5051,"[""0.514"",""0.227"",""0.626"",""0.764""]","[0,1,1,1]",0,15,15,15,1,1,1,,,0,FALSE,,,,,,,,,,,,,,,,,,,,,,,,,,,,,,,
,61316af31240db5bbfa85ce9,627c7679650aa9c67843bd12,2022-05-12_05h04.53.725,classification_task,2021.2.3,Win32,59.58410296,627c6715c52fd12f31907bd0,,,,,,,,,,,,,,,,,,,,,,,l,0,7.9426,"[""0.677"",""0.388"",""0.938"",""0.975""]","[0,1,1,1]",0,16,16,16,1,0,1,,,0,FALSE,,,,,,,,,,,,,,,,,,,,,,,,,,,,,,,
,61316af31240db5bbfa85ce9,627c7679650aa9c67843bd12,2022-05-12_05h04.53.725,classification_task,2021.2.3,Win32,59.58410296,627c6715c52fd12f31907bd0,,,,,,,,,,,,,,,,,,,,,,,,0,,"[""0.171"",""0.514"",""0.854"",""0.890""]","[1,0,1,1]",0,17,17,17,1,0,0,,,0,FALSE,,,,,,,,,,,,,,,,,,,,,,,,,,,,,,,
,61316af31240db5bbfa85ce9,627c7679650aa9c67843bd12,2022-05-12_05h04.53.725,classification_task,2021.2.3,Win32,59.58410296,627c6715c52fd12f31907bd0,,,,,,,,,,,,,,,,,,,,,,,a,1,7.792,"[""0.268"",""0.388"",""0.938"",""0.528""]","[1,1,1,0]",0,18,18,18,1,0,1,,,0,FALSE,,,,,,,,,,,,,,,,,,,,,,,,,,,,,,,
,61316af31240db5bbfa85ce9,627c7679650aa9c67843bd12,2022-05-12_05h04.53.725,classification_task,2021.2.3,Win32,59.58410296,627c6715c52fd12f31907bd0,,,,,,,,,,,,,,,,,,,,,,,a,1,4.299,"[""0.268"",""0.388"",""0.514"",""0.975""]","[1,1,0,1]",0,19,19,19,1,0,1,,,0,FALSE,,,,,,,,,,,,,,,,,,,,,,,,,,,,,,,
,61316af31240db5bbfa85ce9,627c7679650aa9c67843bd12,2022-05-12_05h04.53.725,classification_task,2021.2.3,Win32,59.58410296,627c6715c52fd12f31907bd0,,,,,,,,,,,,,,,,,,,,,,,a,1,5.7098,"[""0.171"",""0.437"",""0.079"",""0.890""]","[1,1,0,1]",0,20,20,20,1,0,0,,,0,FALSE,,,,,,,,,,,,,,,,,,,,,,,,,,,,,,,
,61316af31240db5bbfa85ce9,627c7679650aa9c67843bd12,2022-05-12_05h04.53.725,classification_task,2021.2.3,Win32,59.58410296,627c6715c52fd12f31907bd0,,,,,,,,,,,,,,,,,,,,,,,a,1,4.2694,"[""0.268"",""0.350"",""0.938"",""0.975""]","[1,0,1,1]",0,21,21,21,1,0,1,,,0,FALSE,,,,,,,,,,,,,,,,,,,,,,,,,,,,,,,
,61316af31240db5bbfa85ce9,627c7679650aa9c67843bd12,2022-05-12_05h04.53.725,classification_task,2021.2.3,Win32,59.58410296,627c6715c52fd12f31907bd0,,,,,,,,,,,,,,,,,,,,,,,l,1,2.9391,"[""0.025"",""0.807"",""0.584"",""0.722""]","[1,0,1,1]",0,22,22,22,1,1,0,,,0,FALSE,,,,,,,,,,,,,,,,,,,,,,,,,,,,,,,
,61316af31240db5bbfa85ce9,627c7679650aa9c67843bd12,2022-05-12_05h04.53.725,classification_task,2021.2.3,Win32,59.58410296,627c6715c52fd12f31907bd0,,,,,,,,,,,,,,,,,,,,,,,l,1,5.7784,"[""0.131"",""0.227"",""0.626"",""0.074""]","[1,1,1,0]",0,23,23,23,1,1,1,,,0,FALSE,,,,,,,,,,,,,,,,,,,,,,,,,,,,,,,
,61316af31240db5bbfa85ce9,627c7679650aa9c67843bd12,2022-05-12_05h04.53.725,classification_task,2021.2.3,Win32,59.58410296,627c6715c52fd12f31907bd0,,,,,,,,,,,,,,,,,,,,,,,l,1,4.1583,"[""0.131"",""0.227"",""0.079"",""0.764""]","[1,1,0,1]",0,24,24,24,1,1,1,,,0,FALSE,,,,,,,,,,,,,,,,,,,,,,,,,,,,,,,
,61316af31240db5bbfa85ce9,627c7679650aa9c67843bd12,2022-05-12_05h04.53.725,classification_task,2021.2.3,Win32,59.58410296,627c6715c52fd12f31907bd0,,,,,,,,,,,,,,,,,,,,,,,l,1,7.296,"[""0.807"",""0.227"",""0.626"",""0.764""]","[0,1,1,1]",0,25,25,25,1,1,1,,,0,FALSE,,,,,,,,,,,,,,,,,,,,,,,,,,,,,,,
,61316af31240db5bbfa85ce9,627c7679650aa9c67843bd12,2022-05-12_05h04.53.725,classification_task,2021.2.3,Win32,59.58410296,627c6715c52fd12f31907bd0,,,,,,,,,,,,,,,,,,,,,,,l,1,6.3758,"[""0.025"",""0.316"",""0.514"",""0.722""]","[1,1,0,1]",0,26,26,26,1,1,0,,,0,FALSE,,,,,,,,,,,,,,,,,,,,,,,,,,,,,,,
,61316af31240db5bbfa85ce9,627c7679650aa9c67843bd12,2022-05-12_05h04.53.725,classification_task,2021.2.3,Win32,59.58410296,627c6715c52fd12f31907bd0,,,,,,,,,,,,,,,,,,,,,,,l,1,5.833,"[""0.131"",""0.521"",""0.626"",""0.764""]","[1,0,1,1]",0,27,27,27,1,1,1,,,0,FALSE,,,,,,,,,,,,,,,,,,,,,,,,,,,,,,,
,61316af31240db5bbfa85ce9,627c7679650aa9c67843bd12,2022-05-12_05h04.53.725,classification_task,2021.2.3,Win32,59.58410296,627c6715c52fd12f31907bd0,,,,,,,,,,,,,,,,,,,,,,,l,1,4.6382,"[""0.025"",""0.316"",""0.584"",""0.677""]","[1,1,1,0]",0,28,28,28,1,1,0,,,0,FALSE,,,,,,,,,,,,,,,,,,,,,,,,,,,,,,,
,61316af31240db5bbfa85ce9,627c7679650aa9c67843bd12,2022-05-12_05h04.53.725,classification_task,2021.2.3,Win32,59.58410296,627c6715c52fd12f31907bd0,,,,,,,,,,,,,,,,,,,,,,,l,1,8.3814,"[""0.079"",""0.316"",""0.584"",""0.722""]","[0,1,1,1]",0,29,29,29,1,1,0,,,0,FALSE,,,,,,,,,,,,,,,,,,,,,,,,,,,,,,,
,61316af31240db5bbfa85ce9,627c7679650aa9c67843bd12,2022-05-12_05h04.53.725,classification_task,2021.2.3,Win32,59.58410296,627c6715c52fd12f31907bd0,,,,,,,,,,,,,,,,,,,,,,,l,0,4.7798,"[""0.171"",""0.437"",""0.854"",""0.074""]","[1,1,1,0]",0,30,30,30,1,0,0,,,0,FALSE,,,,,,,,,,,,,,,,,,,,,,,,,,,,,,,
,61316af31240db5bbfa85ce9,627c7679650aa9c67843bd12,2022-05-12_05h04.53.725,classification_task,2021.2.3,Win32,59.58410296,627c6715c52fd12f31907bd0,,,,,,,,,,,,,,,,,,,,,,,a,1,2.9545,"[""0.677"",""0.437"",""0.854"",""0.890""]","[0,1,1,1]",0,31,31,31,1,0,0,,,0,FALSE,,,,,,,,,,,,,,,,,,,,,,,,,,,,,,,
,61316af31240db5bbfa85ce9,627c7679650aa9c67843bd12,2022-05-12_05h04.53.725,classification_task,2021.2.3,Win32,59.58410296,627c6715c52fd12f31907bd0,,,,,,,,,,,,,,,,,,,,,,,l,1,6.1358,"[""0.025"",""0.316"",""0.081"",""0.722""]","[1,1,0,1]",0,32,32,32,1,1,0,,,0,FALSE,,,,,,,,,,,,,,,,,,,,,,,,,,,,,,,
,61316af31240db5bbfa85ce9,627c7679650aa9c67843bd12,2022-05-12_05h04.53.725,classification_task,2021.2.3,Win32,59.58410296,627c6715c52fd12f31907bd0,,,,,,,,,,,,,,,,,,,,,,,a,1,3.8048,"[""0.268"",""0.074"",""0.938"",""0.975""]","[1,0,1,1]",0,33,33,33,1,0,1,,,0,FALSE,,,,,,,,,,,,,,,,,,,,,,,,,,,,,,,
,61316af31240db5bbfa85ce9,627c7679650aa9c67843bd12,2022-05-12_05h04.53.725,classification_task,2021.2.3,Win32,59.58410296,627c6715c52fd12f31907bd0,,,,,,,,,,,,,,,,,,,,,,,l,1,4.3253,"[""0.025"",""0.316"",""0.584"",""0.350""]","[1,1,1,0]",0,34,34,34,1,1,0,,,0,FALSE,,,,,,,,,,,,,,,,,,,,,,,,,,,,,,,
,61316af31240db5bbfa85ce9,627c7679650aa9c67843bd12,2022-05-12_05h04.53.725,classification_task,2021.2.3,Win32,59.58410296,627c6715c52fd12f31907bd0,,,,,,,,,,,,,,,,,,,,,,,a,0,3.444,"[""0.495"",""0.227"",""0.626"",""0.764""]","[0,1,1,1]",0,35,35,35,1,1,1,,,0,FALSE,,,,,,,,,,,,,,,,,,,,,,,,,,,,,,,
,61316af31240db5bbfa85ce9,627c7679650aa9c67843bd12,2022-05-12_05h04.53.725,classification_task,2021.2.3,Win32,59.58410296,627c6715c52fd12f31907bd0,,,,,,,,,,,,,,,,,,,,,,,a,1,4.4198,"[""0.268"",""0.388"",""0.079"",""0.975""]","[1,1,0,1]",0,36,36,36,1,0,1,,,0,FALSE,,,,,,,,,,,,,,,,,,,,,,,,,,,,,,,
,61316af31240db5bbfa85ce9,627c7679650aa9c67843bd12,2022-05-12_05h04.53.725,classification_task,2021.2.3,Win32,59.58410296,627c6715c52fd12f31907bd0,,,,,,,,,,,,,,,,,,,,,,,a,1,5.1431,"[""0.092"",""0.437"",""0.854"",""0.890""]","[0,1,1,1]",0,37,37,37,1,0,0,,,0,FALSE,,,,,,,,,,,,,,,,,,,,,,,,,,,,,,,
,61316af31240db5bbfa85ce9,627c7679650aa9c67843bd12,2022-05-12_05h04.53.725,classification_task,2021.2.3,Win32,59.58410296,627c6715c52fd12f31907bd0,,,,,,,,,,,,,,,,,,,,,,,l,0,3.8505,"[""0.171"",""0.092"",""0.854"",""0.890""]","[1,0,1,1]",0,38,38,38,1,0,0,,,0,FALSE,,,,,,,,,,,,,,,,,,,,,,,,,,,,,,,
,61316af31240db5bbfa85ce9,627c7679650aa9c67843bd12,2022-05-12_05h04.53.725,classification_task,2021.2.3,Win32,59.58410296,627c6715c52fd12f31907bd0,,,,,,,,,,,,,,,,,,,,,,,l,1,2.7358,"[""0.131"",""0.079"",""0.626"",""0.764""]","[1,0,1,1]",0,39,39,39,1,1,1,,,0,FALSE,,,,,,,,,,,,,,,,,,,,,,,,,,,,,,,
,61316af31240db5bbfa85ce9,627c7679650aa9c67843bd12,2022-05-12_05h04.53.725,classification_task,2021.2.3,Win32,59.58410296,627c6715c52fd12f31907bd0,,,,,,,,,,,,,,,,,,,,,,,a,1,4.408,"[""0.171"",""0.437"",""0.079"",""0.890""]","[1,1,0,1]",0,40,40,40,1,0,0,,,0,FALSE,,,,,,,,,,,,,,,,,,,,,,,,,,,,,,,
,61316af31240db5bbfa85ce9,627c7679650aa9c67843bd12,2022-05-12_05h04.53.725,classification_task,2021.2.3,Win32,59.58410296,627c6715c52fd12f31907bd0,,,,,,,,,,,,,,,,,,,,,,,a,0,3.4789,"[""0.131"",""0.227"",""0.350"",""0.764""]","[1,1,0,1]",0,41,41,41,1,1,1,,,0,FALSE,,,,,,,,,,,,,,,,,,,,,,,,,,,,,,,
,61316af31240db5bbfa85ce9,627c7679650aa9c67843bd12,2022-05-12_05h04.53.725,classification_task,2021.2.3,Win32,59.58410296,627c6715c52fd12f31907bd0,,,,,,,,,,,,,,,,,,,,,,,a,1,2.129,"[""0.171"",""0.437"",""0.854"",""0.514""]","[1,1,1,0]",0,42,42,42,1,0,0,,,0,FALSE,,,,,,,,,,,,,,,,,,,,,,,,,,,,,,,
,61316af31240db5bbfa85ce9,627c7679650aa9c67843bd12,2022-05-12_05h04.53.725,classification_task,2021.2.3,Win32,59.58410296,627c6715c52fd12f31907bd0,,,,,,,,,,,,,,,,,,,,,,,l,1,1.9013,"[""0.025"",""0.521"",""0.584"",""0.722""]","[1,0,1,1]",0,43,43,43,1,1,0,,,0,FALSE,,,,,,,,,,,,,,,,,,,,,,,,,,,,,,,
,61316af31240db5bbfa85ce9,627c7679650aa9c67843bd12,2022-05-12_05h04.53.725,classification_task,2021.2.3,Win32,59.58410296,627c6715c52fd12f31907bd0,,,,,,,,,,,,,,,,,,,,,,,a,0,3.4048,"[""0.514"",""0.316"",""0.584"",""0.722""]","[0,1,1,1]",0,44,44,44,1,1,0,,,0,FALSE,,,,,,,,,,,,,,,,,,,,,,,,,,,,,,,
,61316af31240db5bbfa85ce9,627c7679650aa9c67843bd12,2022-05-12_05h04.53.725,classification_task,2021.2.3,Win32,59.58410296,627c6715c52fd12f31907bd0,,,,,,,,,,,,,,,,,,,,,,,a,1,3.9515,"[""0.350"",""0.388"",""0.938"",""0.975""]","[0,1,1,1]",0,45,45,45,1,0,1,,,0,FALSE,,,,,,,,,,,,,,,,,,,,,,,,,,,,,,,
,61316af31240db5bbfa85ce9,627c7679650aa9c67843bd12,2022-05-12_05h04.53.725,classification_task,2021.2.3,Win32,59.58410296,627c6715c52fd12f31907bd0,,,,,,,,,,,,,,,,,,,,,,,a,0,3.4228,"[""0.131"",""0.227"",""0.626"",""0.521""]","[1,1,1,0]",0,46,46,46,1,1,1,,,0,FALSE,,,,,,,,,,,,,,,,,,,,,,,,,,,,,,,
,61316af31240db5bbfa85ce9,627c7679650aa9c67843bd12,2022-05-12_05h04.53.725,classification_task,2021.2.3,Win32,59.58410296,627c6715c52fd12f31907bd0,,,,,,,,,,,,,,,,,,,,,,,l,0,1.5542,"[""0.268"",""0.388"",""0.938"",""0.077""]","[1,1,1,0]",0,47,47,47,1,0,1,,,0,FALSE,,,,,,,,,,,,,,,,,,,,,,,,,,,,,,,
,61316af31240db5bbfa85ce9,627c7679650aa9c67843bd12,2022-05-12_05h04.53.725,classification_task,2021.2.3,Win32,59.58410296,627c6715c52fd12f31907bd0,,,,,,,,,,,,,,,,,,,,,,,a,0,2.0811,"[""0.025"",""0.090"",""0.584"",""0.722""]","[1,0,1,1]",0,48,48,48,1,1,0,,,0,FALSE,,,,,,,,,,,,,,,,,,,,,,,,,,,,,,,
,61316af31240db5bbfa85ce9,627c7679650aa9c67843bd12,2022-05-12_05h04.53.725,classification_task,2021.2.3,Win32,59.58410296,627c6715c52fd12f31907bd0,,,,,,,,,,,,,,,,,,,,,,,l,1,1.5212,"[""0.079"",""0.227"",""0.626"",""0.764""]","[0,1,1,1]",0,49,49,49,1,1,1,,,0,FALSE,,,,,,,,,,,,,,,,,,,,,,,,,,,,,,,
,61316af31240db5bbfa85ce9,627c7679650aa9c67843bd12,2022-05-12_05h04.53.725,classification_task,2021.2.3,Win32,59.58410296,627c6715c52fd12f31907bd0,,,,,,,,,,,,,,,,,,,,,,,l,0,2.7963,"[""0.350"",""0.388"",""0.938"",""0.975""]","[0,1,1,1]",0,50,50,50,1,0,1,,,0,FALSE,,,,,,,,,,,,,,,,,,,,,,,,,,,,,,,
,61316af31240db5bbfa85ce9,627c7679650aa9c67843bd12,2022-05-12_05h04.53.725,classification_task,2021.2.3,Win32,59.58410296,627c6715c52fd12f31907bd0,,,,,,,,,,,,,,,,,,,,,,,a,0,1.2132,"[""0.131"",""0.227"",""0.626"",""0.514""]","[1,1,1,0]",0,51,51,51,1,1,1,,,0,FALSE,,,,,,,,,,,,,,,,,,,,,,,,,,,,,,,
,61316af31240db5bbfa85ce9,627c7679650aa9c67843bd12,2022-05-12_05h04.53.725,classification_task,2021.2.3,Win32,59.58410296,627c6715c52fd12f31907bd0,,,,,,,,,,,,,,,,,,,,,,,l,1,1.0338,"[""0.025"",""0.316"",""0.090"",""0.722""]","[1,1,0,1]",0,52,52,52,1,1,0,,,0,FALSE,,,,,,,,,,,,,,,,,,,,,,,,,,,,,,,
,61316af31240db5bbfa85ce9,627c7679650aa9c67843bd12,2022-05-12_05h04.53.725,classification_task,2021.2.3,Win32,59.58410296,627c6715c52fd12f31907bd0,,,,,,,,,,,,,,,,,,,,,,,l,0,0.9735,"[""0.171"",""0.437"",""0.079"",""0.890""]","[1,1,0,1]",0,53,53,53,1,0,0,,,0,FALSE,,,,,,,,,,,,,,,,,,,,,,,,,,,,,,,
,61316af31240db5bbfa85ce9,627c7679650aa9c67843bd12,2022-05-12_05h04.53.725,classification_task,2021.2.3,Win32,59.58410296,627c6715c52fd12f31907bd0,,,,,,,,,,,,,,,,,,,,,,,a,1,0.5464,"[""0.171"",""0.437"",""0.854"",""0.077""]","[1,1,1,0]",0,54,54,54,1,0,0,,,0,FALSE,,,,,,,,,,,,,,,,,,,,,,,,,,,,,,,
,61316af31240db5bbfa85ce9,627c7679650aa9c67843bd12,2022-05-12_05h04.53.725,classification_task,2021.2.3,Win32,59.58410296,627c6715c52fd12f31907bd0,,,,,,,,,,,,,,,,,,,,,,,a,0,3.024,"[""0.025"",""0.316"",""0.584"",""0.074""]","[1,1,1,0]",0,55,55,55,1,1,0,,,0,FALSE,,,,,,,,,,,,,,,,,,,,,,,,,,,,,,,
,61316af31240db5bbfa85ce9,627c7679650aa9c67843bd12,2022-05-12_05h04.53.725,classification_task,2021.2.3,Win32,59.58410296,627c6715c52fd12f31907bd0,,,,,,,,,,,,,,,,,,,,,,,a,1,2.1682,"[""0.268"",""0.514"",""0.938"",""0.975""]","[1,0,1,1]",0,56,56,56,1,0,1,,,0,FALSE,,,,,,,,,,,,,,,,,,,,,,,,,,,,,,,
,61316af31240db5bbfa85ce9,627c7679650aa9c67843bd12,2022-05-12_05h04.53.725,classification_task,2021.2.3,Win32,59.58410296,627c6715c52fd12f31907bd0,,,,,,,,,,,,,,,,,,,,,,,a,1,1.7785,"[""0.268"",""0.388"",""0.528"",""0.975""]","[1,1,0,1]",0,57,57,57,1,0,1,,,0,FALSE,,,,,,,,,,,,,,,,,,,,,,,,,,,,,,,
,61316af31240db5bbfa85ce9,627c7679650aa9c67843bd12,2022-05-12_05h04.53.725,classification_task,2021.2.3,Win32,59.58410296,627c6715c52fd12f31907bd0,,,,,,,,,,,,,,,,,,,,,,,l,1,1.5167,"[""0.131"",""0.227"",""0.350"",""0.764""]","[1,1,0,1]",0,58,58,58,1,1,1,,,0,FALSE,,,,,,,,,,,,,,,,,,,,,,,,,,,,,,,
,61316af31240db5bbfa85ce9,627c7679650aa9c67843bd12,2022-05-12_05h04.53.725,classification_task,2021.2.3,Win32,59.58410296,627c6715c52fd12f31907bd0,,,,,,,,,,,,,,,,,,,,,,,a,0,2.435,"[""0.131"",""0.677"",""0.626"",""0.764""]","[1,0,1,1]",0,59,59,59,1,1,1,,,0,FALSE,,,,,,,,,,,,,,,,,,,,,,,,,,,,,,,
,61316af31240db5bbfa85ce9,627c7679650aa9c67843bd12,2022-05-12_05h04.53.725,classification_task,2021.2.3,Win32,59.58410296,627c6715c52fd12f31907bd0,,,,,,,,,,,,,,,,,,,,,,,l,0,2.0234,"[""0.090"",""0.437"",""0.854"",""0.890""]","[0,1,1,1]",0,60,60,60,1,0,0,,,0,FALSE,,,,,,,,,,,,,,,,,,,,,,,,,,,,,,,
,61316af31240db5bbfa85ce9,627c7679650aa9c67843bd12,2022-05-12_05h04.53.725,classification_task,2021.2.3,Win32,59.58410296,627c6715c52fd12f31907bd0,,,,,,,,,,,,,,,,,,,,,,,a,1,1.6058,"[""0.268"",""0.388"",""0.938"",""0.521""]","[1,1,1,0]",0,61,61,61,1,0,1,,,0,FALSE,,,,,,,,,,,,,,,,,,,,,,,,,,,,,,,
,61316af31240db5bbfa85ce9,627c7679650aa9c67843bd12,2022-05-12_05h04.53.725,classification_task,2021.2.3,Win32,59.58410296,627c6715c52fd12f31907bd0,,,,,,,,,,,,,,,,,,,,,,,l,1,1.5291,"[""0.074"",""0.316"",""0.584"",""0.722""]","[0,1,1,1]",0,62,62,62,1,1,0,,,0,FALSE,,,,,,,,,,,,,,,,,,,,,,,,,,,,,,,
,61316af31240db5bbfa85ce9,627c7679650aa9c67843bd12,2022-05-12_05h04.53.725,classification_task,2021.2.3,Win32,59.58410296,627c6715c52fd12f31907bd0,,,,,,,,,,,,,,,,,,,,,,,l,0,2.6476,"[""0.171"",""0.074"",""0.854"",""0.890""]","[1,0,1,1]",0,63,63,63,1,0,0,,,0,FALSE,,,,,,,,,,,,,,,,,,,,,,,,,,,,,,,
,61316af31240db5bbfa85ce9,627c7679650aa9c67843bd12,2022-05-12_05h04.53.725,classification_task,2021.2.3,Win32,59.58410296,627c6715c52fd12f31907bd0,,,,,,,,,,,,,,,,,,,,,,,,,,,,,,,,,,,,,,,0, ,,0,7.99823463,795.3135,0,0,0,0,1,2,1,,,,,,,,,,,,,,,,,,
,61316af31240db5bbfa85ce9,627c7679650aa9c67843bd12,2022-05-12_05h04.53.725,classification_task,2021.2.3,Win32,59.58410296,627c6715c52fd12f31907bd0,,,,,,,,,,,,,,,,,,,,,,,,,,,,,,,,,,,,,,,1,  ,,0,9.3949182,800.7387,0,0,0,0,1,2,1,,,,,,,,,,,,,,,,,,
,61316af31240db5bbfa85ce9,627c7679650aa9c67843bd12,2022-05-12_05h04.53.725,classification_task,2021.2.3,Win32,59.58410296,627c6715c52fd12f31907bd0,,,,,,,,,,,,,,,,,,,,,,,,,,,,,,,,,,,,,,,2,  ,,0,1.627405051,807.7974,0,0,0,0,1,2,1,,,,,,,,,,,,,,,,,,
,61316af31240db5bbfa85ce9,627c7679650aa9c67843bd12,2022-05-12_05h04.53.725,classification_task,2021.2.3,Win32,59.58410296,627c6715c52fd12f31907bd0,,,,,,,,,,,,,,,,,,,,,,,,,,,,,,,,,,,,,,,,,,,,,0,0,0,0,1,,1,,,,,,,,,,,,,,,,,,
,61316af31240db5bbfa85ce9,627c7679650aa9c67843bd12,2022-05-12_05h04.53.725,classification_task,2021.2.3,Win32,59.58410296,627c6715c52fd12f31907bd0,,,,,,,,,,,,,,,,,,,,,space,48.4508,a,0,8.6716,"[""0.131"",""0.227"",""0.350"",""0.764""]","[1,1,0,1]",0,0,0,0,1,1,1,,,0,FALSE,,,,,,,,,,,,,,,,,,,,,,,,,,,,,,,
,61316af31240db5bbfa85ce9,627c7679650aa9c67843bd12,2022-05-12_05h04.53.725,classification_task,2021.2.3,Win32,59.58410296,627c6715c52fd12f31907bd0,,,,,,,,,,,,,,,,,,,,,,,a,1,1.2367,"[""0.171"",""0.437"",""0.854"",""0.081""]","[1,1,1,0]",0,1,1,1,1,0,0,,,0,FALSE,,,,,,,,,,,,,,,,,,,,,,,,,,,,,,,
,61316af31240db5bbfa85ce9,627c7679650aa9c67843bd12,2022-05-12_05h04.53.725,classification_task,2021.2.3,Win32,59.58410296,627c6715c52fd12f31907bd0,,,,,,,,,,,,,,,,,,,,,,,l,1,0.6627,"[""0.025"",""0.316"",""0.079"",""0.722""]","[1,1,0,1]",0,2,2,2,1,1,0,,,0,FALSE,,,,,,,,,,,,,,,,,,,,,,,,,,,,,,,
,61316af31240db5bbfa85ce9,627c7679650aa9c67843bd12,2022-05-12_05h04.53.725,classification_task,2021.2.3,Win32,59.58410296,627c6715c52fd12f31907bd0,,,,,,,,,,,,,,,,,,,,,,,a,1,0.6848,"[""0.171"",""0.437"",""0.528"",""0.890""]","[1,1,0,1]",0,3,3,3,1,0,0,,,0,FALSE,,,,,,,,,,,,,,,,,,,,,,,,,,,,,,,
,61316af31240db5bbfa85ce9,627c7679650aa9c67843bd12,2022-05-12_05h04.53.725,classification_task,2021.2.3,Win32,59.58410296,627c6715c52fd12f31907bd0,,,,,,,,,,,,,,,,,,,,,,,l,0,5.9681,"[""0.268"",""0.388"",""0.807"",""0.975""]","[1,1,0,1]",0,4,4,4,1,0,1,,,0,FALSE,,,,,,,,,,,,,,,,,,,,,,,,,,,,,,,
,61316af31240db5bbfa85ce9,627c7679650aa9c67843bd12,2022-05-12_05h04.53.725,classification_task,2021.2.3,Win32,59.58410296,627c6715c52fd12f31907bd0,,,,,,,,,,,,,,,,,,,,,,,a,0,0.9893,"[""0.025"",""0.092"",""0.584"",""0.722""]","[1,0,1,1]",0,5,5,5,1,1,0,,,0,FALSE,,,,,,,,,,,,,,,,,,,,,,,,,,,,,,,
,61316af31240db5bbfa85ce9,627c7679650aa9c67843bd12,2022-05-12_05h04.53.725,classification_task,2021.2.3,Win32,59.58410296,627c6715c52fd12f31907bd0,,,,,,,,,,,,,,,,,,,,,,,a,1,9.3809,"[""0.268"",""0.077"",""0.938"",""0.975""]","[1,0,1,1]",0,6,6,6,1,0,1,,,0,FALSE,,,,,,,,,,,,,,,,,,,,,,,,,,,,,,,
,61316af31240db5bbfa85ce9,627c7679650aa9c67843bd12,2022-05-12_05h04.53.725,classification_task,2021.2.3,Win32,59.58410296,627c6715c52fd12f31907bd0,,,,,,,,,,,,,,,,,,,,,,,a,0,3.2277,"[""0.131"",""0.227"",""0.626"",""0.807""]","[1,1,1,0]",0,7,7,7,1,1,1,,,0,FALSE,,,,,,,,,,,,,,,,,,,,,,,,,,,,,,,
,61316af31240db5bbfa85ce9,627c7679650aa9c67843bd12,2022-05-12_05h04.53.725,classification_task,2021.2.3,Win32,59.58410296,627c6715c52fd12f31907bd0,,,,,,,,,,,,,,,,,,,,,,,l,1,3.5565,"[""0.131"",""0.677"",""0.626"",""0.764""]","[1,0,1,1]",0,8,8,8,1,1,1,,,0,FALSE,,,,,,,,,,,,,,,,,,,,,,,,,,,,,,,
,61316af31240db5bbfa85ce9,627c7679650aa9c67843bd12,2022-05-12_05h04.53.725,classification_task,2021.2.3,Win32,59.58410296,627c6715c52fd12f31907bd0,,,,,,,,,,,,,,,,,,,,,,,a,1,1.1559,"[""0.171"",""0.079"",""0.854"",""0.890""]","[1,0,1,1]",0,9,9,9,1,0,0,,,0,FALSE,,,,,,,,,,,,,,,,,,,,,,,,,,,,,,,
,61316af31240db5bbfa85ce9,627c7679650aa9c67843bd12,2022-05-12_05h04.53.725,classification_task,2021.2.3,Win32,59.58410296,627c6715c52fd12f31907bd0,,,,,,,,,,,,,,,,,,,,,,,l,0,2.8756,"[""0.514"",""0.388"",""0.938"",""0.975""]","[0,1,1,1]",0,10,10,10,1,0,1,,,0,FALSE,,,,,,,,,,,,,,,,,,,,,,,,,,,,,,,
,61316af31240db5bbfa85ce9,627c7679650aa9c67843bd12,2022-05-12_05h04.53.725,classification_task,2021.2.3,Win32,59.58410296,627c6715c52fd12f31907bd0,,,,,,,,,,,,,,,,,,,,,,,l,1,1.5103,"[""0.025"",""0.316"",""0.584"",""0.807""]","[1,1,1,0]",0,11,11,11,1,1,0,,,0,FALSE,,,,,,,,,,,,,,,,,,,,,,,,,,,,,,,
,61316af31240db5bbfa85ce9,627c7679650aa9c67843bd12,2022-05-12_05h04.53.725,classification_task,2021.2.3,Win32,59.58410296,627c6715c52fd12f31907bd0,,,,,,,,,,,,,,,,,,,,,,,a,0,4.1985,"[""0.074"",""0.227"",""0.626"",""0.764""]","[0,1,1,1]",0,12,12,12,1,1,1,,,0,FALSE,,,,,,,,,,,,,,,,,,,,,,,,,,,,,,,
,61316af31240db5bbfa85ce9,627c7679650aa9c67843bd12,2022-05-12_05h04.53.725,classification_task,2021.2.3,Win32,59.58410296,627c6715c52fd12f31907bd0,,,,,,,,,,,,,,,,,,,,,,,,0,,"[""0.268"",""0.388"",""0.938"",""0.077""]","[1,1,1,0]",0,13,13,13,1,0,1,,,0,FALSE,,,,,,,,,,,,,,,,,,,,,,,,,,,,,,,
,61316af31240db5bbfa85ce9,627c7679650aa9c67843bd12,2022-05-12_05h04.53.725,classification_task,2021.2.3,Win32,59.58410296,627c6715c52fd12f31907bd0,,,,,,,,,,,,,,,,,,,,,,,a,1,1.8069,"[""0.677"",""0.437"",""0.854"",""0.890""]","[0,1,1,1]",0,14,14,14,1,0,0,,,0,FALSE,,,,,,,,,,,,,,,,,,,,,,,,,,,,,,,
,61316af31240db5bbfa85ce9,627c7679650aa9c67843bd12,2022-05-12_05h04.53.725,classification_task,2021.2.3,Win32,59.58410296,627c6715c52fd12f31907bd0,,,,,,,,,,,,,,,,,,,,,,,l,1,1.2197,"[""0.081"",""0.316"",""0.584"",""0.722""]","[0,1,1,1]",0,15,15,15,1,1,0,,,0,FALSE,,,,,,,,,,,,,,,,,,,,,,,,,,,,,,,
,61316af31240db5bbfa85ce9,627c7679650aa9c67843bd12,2022-05-12_05h04.53.725,classification_task,2021.2.3,Win32,59.58410296,627c6715c52fd12f31907bd0,,,,,,,,,,,,,,,,,,,,,,,l,0,3.1919,"[""0.268"",""0.388"",""0.081"",""0.975""]","[1,1,0,1]",0,16,16,16,1,0,1,,,0,FALSE,,,,,,,,,,,,,,,,,,,,,,,,,,,,,,,
,61316af31240db5bbfa85ce9,627c7679650aa9c67843bd12,2022-05-12_05h04.53.725,classification_task,2021.2.3,Win32,59.58410296,627c6715c52fd12f31907bd0,,,,,,,,,,,,,,,,,,,,,,,a,0,1.9132,"[""0.131"",""0.677"",""0.626"",""0.764""]","[1,0,1,1]",0,17,17,17,1,1,1,,,0,FALSE,,,,,,,,,,,,,,,,,,,,,,,,,,,,,,,
,61316af31240db5bbfa85ce9,627c7679650aa9c67843bd12,2022-05-12_05h04.53.725,classification_task,2021.2.3,Win32,59.58410296,627c6715c52fd12f31907bd0,,,,,,,,,,,,,,,,,,,,,,,a,1,1.0683,"[""0.171"",""0.437"",""0.495"",""0.890""]","[1,1,0,1]",0,18,18,18,1,0,0,,,0,FALSE,,,,,,,,,,,,,,,,,,,,,,,,,,,,,,,
,61316af31240db5bbfa85ce9,627c7679650aa9c67843bd12,2022-05-12_05h04.53.725,classification_task,2021.2.3,Win32,59.58410296,627c6715c52fd12f31907bd0,,,,,,,,,,,,,,,,,,,,,,,a,1,2.9725,"[""0.171"",""0.677"",""0.854"",""0.890""]","[1,0,1,1]",0,19,19,19,1,0,0,,,0,FALSE,,,,,,,,,,,,,,,,,,,,,,,,,,,,,,,
,61316af31240db5bbfa85ce9,627c7679650aa9c67843bd12,2022-05-12_05h04.53.725,classification_task,2021.2.3,Win32,59.58410296,627c6715c52fd12f31907bd0,,,,,,,,,,,,,,,,,,,,,,,l,1,0.7944,"[""0.090"",""0.316"",""0.584"",""0.722""]","[0,1,1,1]",0,20,20,20,1,1,0,,,0,FALSE,,,,,,,,,,,,,,,,,,,,,,,,,,,,,,,
,61316af31240db5bbfa85ce9,627c7679650aa9c67843bd12,2022-05-12_05h04.53.725,classification_task,2021.2.3,Win32,59.58410296,627c6715c52fd12f31907bd0,,,,,,,,,,,,,,,,,,,,,,,a,1,3.5359,"[""0.528"",""0.388"",""0.938"",""0.975""]","[0,1,1,1]",0,21,21,21,1,0,1,,,0,FALSE,,,,,,,,,,,,,,,,,,,,,,,,,,,,,,,
,61316af31240db5bbfa85ce9,627c7679650aa9c67843bd12,2022-05-12_05h04.53.725,classification_task,2021.2.3,Win32,59.58410296,627c6715c52fd12f31907bd0,,,,,,,,,,,,,,,,,,,,,,,a,0,2.4677,"[""0.131"",""0.227"",""0.626"",""0.092""]","[1,1,1,0]",0,22,22,22,1,1,1,,,0,FALSE,,,,,,,,,,,,,,,,,,,,,,,,,,,,,,,
,61316af31240db5bbfa85ce9,627c7679650aa9c67843bd12,2022-05-12_05h04.53.725,classification_task,2021.2.3,Win32,59.58410296,627c6715c52fd12f31907bd0,,,,,,,,,,,,,,,,,,,,,,,l,1,1.8942,"[""0.025"",""0.316"",""0.584"",""0.677""]","[1,1,1,0]",0,23,23,23,1,1,0,,,0,FALSE,,,,,,,,,,,,,,,,,,,,,,,,,,,,,,,
,61316af31240db5bbfa85ce9,627c7679650aa9c67843bd12,2022-05-12_05h04.53.725,classification_task,2021.2.3,Win32,59.58410296,627c6715c52fd12f31907bd0,,,,,,,,,,,,,,,,,,,,,,,a,1,1.2668,"[""0.171"",""0.437"",""0.854"",""0.521""]","[1,1,1,0]",0,24,24,24,1,0,0,,,0,FALSE,,,,,,,,,,,,,,,,,,,,,,,,,,,,,,,
,61316af31240db5bbfa85ce9,627c7679650aa9c67843bd12,2022-05-12_05h04.53.725,classification_task,2021.2.3,Win32,59.58410296,627c6715c52fd12f31907bd0,,,,,,,,,,,,,,,,,,,,,,,a,1,1.5317,"[""0.495"",""0.437"",""0.854"",""0.890""]","[0,1,1,1]",0,25,25,25,1,0,0,,,0,FALSE,,,,,,,,,,,,,,,,,,,,,,,,,,,,,,,
,61316af31240db5bbfa85ce9,627c7679650aa9c67843bd12,2022-05-12_05h04.53.725,classification_task,2021.2.3,Win32,59.58410296,627c6715c52fd12f31907bd0,,,,,,,,,,,,,,,,,,,,,,,a,0,2.5214,"[""0.131"",""0.227"",""0.514"",""0.764""]","[1,1,0,1]",0,26,26,26,1,1,1,,,0,FALSE,,,,,,,,,,,,,,,,,,,,,,,,,,,,,,,
,61316af31240db5bbfa85ce9,627c7679650aa9c67843bd12,2022-05-12_05h04.53.725,classification_task,2021.2.3,Win32,59.58410296,627c6715c52fd12f31907bd0,,,,,,,,,,,,,,,,,,,,,,,l,1,1.0261,"[""0.025"",""0.807"",""0.584"",""0.722""]","[1,0,1,1]",0,27,27,27,1,1,0,,,0,FALSE,,,,,,,,,,,,,,,,,,,,,,,,,,,,,,,
,61316af31240db5bbfa85ce9,627c7679650aa9c67843bd12,2022-05-12_05h04.53.725,classification_task,2021.2.3,Win32,59.58410296,627c6715c52fd12f31907bd0,,,,,,,,,,,,,,,,,,,,,,,l,1,2.5682,"[""0.025"",""0.316"",""0.528"",""0.722""]","[1,1,0,1]",0,28,28,28,1,1,0,,,0,FALSE,,,,,,,,,,,,,,,,,,,,,,,,,,,,,,,
,61316af31240db5bbfa85ce9,627c7679650aa9c67843bd12,2022-05-12_05h04.53.725,classification_task,2021.2.3,Win32,59.58410296,627c6715c52fd12f31907bd0,,,,,,,,,,,,,,,,,,,,,,,a,1,1.8058,"[""0.268"",""0.388"",""0.938"",""0.350""]","[1,1,1,0]",0,29,29,29,1,0,1,,,0,FALSE,,,,,,,,,,,,,,,,,,,,,,,,,,,,,,,
,61316af31240db5bbfa85ce9,627c7679650aa9c67843bd12,2022-05-12_05h04.53.725,classification_task,2021.2.3,Win32,59.58410296,627c6715c52fd12f31907bd0,,,,,,,,,,,,,,,,,,,,,,,l,0,2.3201,"[""0.268"",""0.079"",""0.938"",""0.975""]","[1,0,1,1]",0,30,30,30,1,0,1,,,0,FALSE,,,,,,,,,,,,,,,,,,,,,,,,,,,,,,,
,61316af31240db5bbfa85ce9,627c7679650aa9c67843bd12,2022-05-12_05h04.53.725,classification_task,2021.2.3,Win32,59.58410296,627c6715c52fd12f31907bd0,,,,,,,,,,,,,,,,,,,,,,,a,0,1.3453,"[""0.807"",""0.227"",""0.626"",""0.764""]","[0,1,1,1]",0,31,31,31,1,1,1,,,0,FALSE,,,,,,,,,,,,,,,,,,,,,,,,,,,,,,,
,61316af31240db5bbfa85ce9,627c7679650aa9c67843bd12,2022-05-12_05h04.53.725,classification_task,2021.2.3,Win32,59.58410296,627c6715c52fd12f31907bd0,,,,,,,,,,,,,,,,,,,,,,,l,1,2.3188,"[""0.025"",""0.316"",""0.584"",""0.677""]","[1,1,1,0]",0,32,32,32,1,1,0,,,0,FALSE,,,,,,,,,,,,,,,,,,,,,,,,,,,,,,,
,61316af31240db5bbfa85ce9,627c7679650aa9c67843bd12,2022-05-12_05h04.53.725,classification_task,2021.2.3,Win32,59.58410296,627c6715c52fd12f31907bd0,,,,,,,,,,,,,,,,,,,,,,,a,1,3.2033,"[""0.350"",""0.388"",""0.938"",""0.975""]","[0,1,1,1]",0,33,33,33,1,0,1,,,0,FALSE,,,,,,,,,,,,,,,,,,,,,,,,,,,,,,,
,61316af31240db5bbfa85ce9,627c7679650aa9c67843bd12,2022-05-12_05h04.53.725,classification_task,2021.2.3,Win32,59.58410296,627c6715c52fd12f31907bd0,,,,,,,,,,,,,,,,,,,,,,,a,0,1.6208,"[""0.131"",""0.227"",""0.626"",""0.079""]","[1,1,1,0]",0,34,34,34,1,1,1,,,0,FALSE,,,,,,,,,,,,,,,,,,,,,,,,,,,,,,,
,61316af31240db5bbfa85ce9,627c7679650aa9c67843bd12,2022-05-12_05h04.53.725,classification_task,2021.2.3,Win32,59.58410296,627c6715c52fd12f31907bd0,,,,,,,,,,,,,,,,,,,,,,,a,1,1.6919,"[""0.171"",""0.437"",""0.854"",""0.079""]","[1,1,1,0]",0,35,35,35,1,0,0,,,0,FALSE,,,,,,,,,,,,,,,,,,,,,,,,,,,,,,,
,61316af31240db5bbfa85ce9,627c7679650aa9c67843bd12,2022-05-12_05h04.53.725,classification_task,2021.2.3,Win32,59.58410296,627c6715c52fd12f31907bd0,,,,,,,,,,,,,,,,,,,,,,,a,1,3.9809,"[""0.268"",""0.677"",""0.938"",""0.975""]","[1,0,1,1]",0,36,36,36,1,0,1,,,0,FALSE,,,,,,,,,,,,,,,,,,,,,,,,,,,,,,,
,61316af31240db5bbfa85ce9,627c7679650aa9c67843bd12,2022-05-12_05h04.53.725,classification_task,2021.2.3,Win32,59.58410296,627c6715c52fd12f31907bd0,,,,,,,,,,,,,,,,,,,,,,,l,1,0.9476,"[""0.025"",""0.528"",""0.584"",""0.722""]","[1,0,1,1]",0,37,37,37,1,1,0,,,0,FALSE,,,,,,,,,,,,,,,,,,,,,,,,,,,,,,,
,61316af31240db5bbfa85ce9,627c7679650aa9c67843bd12,2022-05-12_05h04.53.725,classification_task,2021.2.3,Win32,59.58410296,627c6715c52fd12f31907bd0,,,,,,,,,,,,,,,,,,,,,,,l,1,2.2366,"[""0.092"",""0.316"",""0.584"",""0.722""]","[0,1,1,1]",0,38,38,38,1,1,0,,,0,FALSE,,,,,,,,,,,,,,,,,,,,,,,,,,,,,,,
,61316af31240db5bbfa85ce9,627c7679650aa9c67843bd12,2022-05-12_05h04.53.725,classification_task,2021.2.3,Win32,59.58410296,627c6715c52fd12f31907bd0,,,,,,,,,,,,,,,,,,,,,,,a,1,0.876,"[""0.807"",""0.437"",""0.854"",""0.890""]","[0,1,1,1]",0,39,39,39,1,0,0,,,0,FALSE,,,,,,,,,,,,,,,,,,,,,,,,,,,,,,,
,61316af31240db5bbfa85ce9,627c7679650aa9c67843bd12,2022-05-12_05h04.53.725,classification_task,2021.2.3,Win32,59.58410296,627c6715c52fd12f31907bd0,,,,,,,,,,,,,,,,,,,,,,,a,1,2.8997,"[""0.268"",""0.388"",""0.938"",""0.514""]","[1,1,1,0]",0,40,40,40,1,0,1,,,0,FALSE,,,,,,,,,,,,,,,,,,,,,,,,,,,,,,,
,61316af31240db5bbfa85ce9,627c7679650aa9c67843bd12,2022-05-12_05h04.53.725,classification_task,2021.2.3,Win32,59.58410296,627c6715c52fd12f31907bd0,,,,,,,,,,,,,,,,,,,,,,,l,1,1.7626,"[""0.025"",""0.316"",""0.079"",""0.722""]","[1,1,0,1]",0,41,41,41,1,1,0,,,0,FALSE,,,,,,,,,,,,,,,,,,,,,,,,,,,,,,,
,61316af31240db5bbfa85ce9,627c7679650aa9c67843bd12,2022-05-12_05h04.53.725,classification_task,2021.2.3,Win32,59.58410296,627c6715c52fd12f31907bd0,,,,,,,,,,,,,,,,,,,,,,,a,1,2.2528,"[""0.171"",""0.081"",""0.854"",""0.890""]","[1,0,1,1]",0,42,42,42,1,0,0,,,0,FALSE,,,,,,,,,,,,,,,,,,,,,,,,,,,,,,,
,61316af31240db5bbfa85ce9,627c7679650aa9c67843bd12,2022-05-12_05h04.53.725,classification_task,2021.2.3,Win32,59.58410296,627c6715c52fd12f31907bd0,,,,,,,,,,,,,,,,,,,,,,,l,1,2.4443,"[""0.074"",""0.227"",""0.626"",""0.764""]","[0,1,1,1]",0,43,43,43,1,1,1,,,0,FALSE,,,,,,,,,,,,,,,,,,,,,,,,,,,,,,,
,61316af31240db5bbfa85ce9,627c7679650aa9c67843bd12,2022-05-12_05h04.53.725,classification_task,2021.2.3,Win32,59.58410296,627c6715c52fd12f31907bd0,,,,,,,,,,,,,,,,,,,,,,,a,1,2.1056,"[""0.171"",""0.437"",""0.081"",""0.890""]","[1,1,0,1]",0,44,44,44,1,0,0,,,0,FALSE,,,,,,,,,,,,,,,,,,,,,,,,,,,,,,,
,61316af31240db5bbfa85ce9,627c7679650aa9c67843bd12,2022-05-12_05h04.53.725,classification_task,2021.2.3,Win32,59.58410296,627c6715c52fd12f31907bd0,,,,,,,,,,,,,,,,,,,,,,,l,0,1.8385,"[""0.268"",""0.388"",""0.074"",""0.975""]","[1,1,0,1]",0,45,45,45,1,0,1,,,0,FALSE,,,,,,,,,,,,,,,,,,,,,,,,,,,,,,,
,61316af31240db5bbfa85ce9,627c7679650aa9c67843bd12,2022-05-12_05h04.53.725,classification_task,2021.2.3,Win32,59.58410296,627c6715c52fd12f31907bd0,,,,,,,,,,,,,,,,,,,,,,,l,1,2.1526,"[""0.131"",""0.077"",""0.626"",""0.764""]","[1,0,1,1]",0,46,46,46,1,1,1,,,0,FALSE,,,,,,,,,,,,,,,,,,,,,,,,,,,,,,,
,61316af31240db5bbfa85ce9,627c7679650aa9c67843bd12,2022-05-12_05h04.53.725,classification_task,2021.2.3,Win32,59.58410296,627c6715c52fd12f31907bd0,,,,,,,,,,,,,,,,,,,,,,,l,1,1.9767,"[""0.131"",""0.227"",""0.677"",""0.764""]","[1,1,0,1]",0,47,47,47,1,1,1,,,0,FALSE,,,,,,,,,,,,,,,,,,,,,,,,,,,,,,,
,61316af31240db5bbfa85ce9,627c7679650aa9c67843bd12,2022-05-12_05h04.53.725,classification_task,2021.2.3,Win32,59.58410296,627c6715c52fd12f31907bd0,,,,,,,,,,,,,,,,,,,,,,,a,1,2.1693,"[""0.171"",""0.437"",""0.854"",""0.521""]","[1,1,1,0]",0,48,48,48,1,0,0,,,0,FALSE,,,,,,,,,,,,,,,,,,,,,,,,,,,,,,,
,61316af31240db5bbfa85ce9,627c7679650aa9c67843bd12,2022-05-12_05h04.53.725,classification_task,2021.2.3,Win32,59.58410296,627c6715c52fd12f31907bd0,,,,,,,,,,,,,,,,,,,,,,,l,1,3.04,"[""0.025"",""0.316"",""0.584"",""0.077""]","[1,1,1,0]",0,49,49,49,1,1,0,,,0,FALSE,,,,,,,,,,,,,,,,,,,,,,,,,,,,,,,
,61316af31240db5bbfa85ce9,627c7679650aa9c67843bd12,2022-05-12_05h04.53.725,classification_task,2021.2.3,Win32,59.58410296,627c6715c52fd12f31907bd0,,,,,,,,,,,,,,,,,,,,,,,a,0,2.4628,"[""0.495"",""0.227"",""0.626"",""0.764""]","[0,1,1,1]",0,50,50,50,1,1,1,,,0,FALSE,,,,,,,,,,,,,,,,,,,,,,,,,,,,,,,
,61316af31240db5bbfa85ce9,627c7679650aa9c67843bd12,2022-05-12_05h04.53.725,classification_task,2021.2.3,Win32,59.58410296,627c6715c52fd12f31907bd0,,,,,,,,,,,,,,,,,,,,,,,a,1,2.0416,"[""0.268"",""0.388"",""0.074"",""0.975""]","[1,1,0,1]",0,51,51,51,1,0,1,,,0,FALSE,,,,,,,,,,,,,,,,,,,,,,,,,,,,,,,
,61316af31240db5bbfa85ce9,627c7679650aa9c67843bd12,2022-05-12_05h04.53.725,classification_task,2021.2.3,Win32,59.58410296,627c6715c52fd12f31907bd0,,,,,,,,,,,,,,,,,,,,,,,l,0,2.9965,"[""0.677"",""0.437"",""0.854"",""0.890""]","[0,1,1,1]",0,52,52,52,1,0,0,,,0,FALSE,,,,,,,,,,,,,,,,,,,,,,,,,,,,,,,
,61316af31240db5bbfa85ce9,627c7679650aa9c67843bd12,2022-05-12_05h04.53.725,classification_task,2021.2.3,Win32,59.58410296,627c6715c52fd12f31907bd0,,,,,,,,,,,,,,,,,,,,,,,a,1,3.4269,"[""0.677"",""0.388"",""0.938"",""0.975""]","[0,1,1,1]",0,53,53,53,1,0,1,,,0,FALSE,,,,,,,,,,,,,,,,,,,,,,,,,,,,,,,
,61316af31240db5bbfa85ce9,627c7679650aa9c67843bd12,2022-05-12_05h04.53.725,classification_task,2021.2.3,Win32,59.58410296,627c6715c52fd12f31907bd0,,,,,,,,,,,,,,,,,,,,,,,l,1,2.6427,"[""0.025"",""0.677"",""0.584"",""0.722""]","[1,0,1,1]",0,54,54,54,1,1,0,,,0,FALSE,,,,,,,,,,,,,,,,,,,,,,,,,,,,,,,
,61316af31240db5bbfa85ce9,627c7679650aa9c67843bd12,2022-05-12_05h04.53.725,classification_task,2021.2.3,Win32,59.58410296,627c6715c52fd12f31907bd0,,,,,,,,,,,,,,,,,,,,,,,a,1,1.6493,"[""0.171"",""0.437"",""0.079"",""0.890""]","[1,1,0,1]",0,55,55,55,1,0,0,,,0,FALSE,,,,,,,,,,,,,,,,,,,,,,,,,,,,,,,
,61316af31240db5bbfa85ce9,627c7679650aa9c67843bd12,2022-05-12_05h04.53.725,classification_task,2021.2.3,Win32,59.58410296,627c6715c52fd12f31907bd0,,,,,,,,,,,,,,,,,,,,,,,l,0,2.4617,"[""0.268"",""0.388"",""0.938"",""0.528""]","[1,1,1,0]",0,56,56,56,1,0,1,,,0,FALSE,,,,,,,,,,,,,,,,,,,,,,,,,,,,,,,
,61316af31240db5bbfa85ce9,627c7679650aa9c67843bd12,2022-05-12_05h04.53.725,classification_task,2021.2.3,Win32,59.58410296,627c6715c52fd12f31907bd0,,,,,,,,,,,,,,,,,,,,,,,l,1,1.8563,"[""0.025"",""0.316"",""0.807"",""0.722""]","[1,1,0,1]",0,57,57,57,1,1,0,,,0,FALSE,,,,,,,,,,,,,,,,,,,,,,,,,,,,,,,
,61316af31240db5bbfa85ce9,627c7679650aa9c67843bd12,2022-05-12_05h04.53.725,classification_task,2021.2.3,Win32,59.58410296,627c6715c52fd12f31907bd0,,,,,,,,,,,,,,,,,,,,,,,a,1,2.93,"[""0.268"",""0.077"",""0.938"",""0.975""]","[1,0,1,1]",0,58,58,58,1,0,1,,,0,FALSE,,,,,,,,,,,,,,,,,,,,,,,,,,,,,,,
,61316af31240db5bbfa85ce9,627c7679650aa9c67843bd12,2022-05-12_05h04.53.725,classification_task,2021.2.3,Win32,59.58410296,627c6715c52fd12f31907bd0,,,,,,,,,,,,,,,,,,,,,,,a,1,1.8175,"[""0.171"",""0.077"",""0.854"",""0.890""]","[1,0,1,1]",0,59,59,59,1,0,0,,,0,FALSE,,,,,,,,,,,,,,,,,,,,,,,,,,,,,,,
,61316af31240db5bbfa85ce9,627c7679650aa9c67843bd12,2022-05-12_05h04.53.725,classification_task,2021.2.3,Win32,59.58410296,627c6715c52fd12f31907bd0,,,,,,,,,,,,,,,,,,,,,,,l,1,2.1732,"[""0.131"",""0.079"",""0.626"",""0.764""]","[1,0,1,1]",0,60,60,60,1,1,1,,,0,FALSE,,,,,,,,,,,,,,,,,,,,,,,,,,,,,,,
,61316af31240db5bbfa85ce9,627c7679650aa9c67843bd12,2022-05-12_05h04.53.725,classification_task,2021.2.3,Win32,59.58410296,627c6715c52fd12f31907bd0,,,,,,,,,,,,,,,,,,,,,,,a,0,2.3334,"[""0.131"",""0.227"",""0.626"",""0.514""]","[1,1,1,0]",0,61,61,61,1,1,1,,,0,FALSE,,,,,,,,,,,,,,,,,,,,,,,,,,,,,,,
,61316af31240db5bbfa85ce9,627c7679650aa9c67843bd12,2022-05-12_05h04.53.725,classification_task,2021.2.3,Win32,59.58410296,627c6715c52fd12f31907bd0,,,,,,,,,,,,,,,,,,,,,,,l,1,1.8877,"[""0.092"",""0.316"",""0.584"",""0.722""]","[0,1,1,1]",0,62,62,62,1,1,0,,,0,FALSE,,,,,,,,,,,,,,,,,,,,,,,,,,,,,,,
,61316af31240db5bbfa85ce9,627c7679650aa9c67843bd12,2022-05-12_05h04.53.725,classification_task,2021.2.3,Win32,59.58410296,627c6715c52fd12f31907bd0,,,,,,,,,,,,,,,,,,,,,,,a,0,1.9858,"[""0.131"",""0.227"",""0.677"",""0.764""]","[1,1,0,1]",0,63,63,63,1,1,1,,,0,FALSE,,,,,,,,,,,,,,,,,,,,,,,,,,,,,,,
,61316af31240db5bbfa85ce9,627c7679650aa9c67843bd12,2022-05-12_05h04.53.725,classification_task,2021.2.3,Win32,59.58410296,627c6715c52fd12f31907bd0,,,,,,,,,,,,,,,,,,,,,,,,,,,,,,,,,,,,,,,0, ,,0,8.904853753,290.2116,0,1,1,1,1,2,2,,,,,,,,,,,,,,,,,,
,61316af31240db5bbfa85ce9,627c7679650aa9c67843bd12,2022-05-12_05h04.53.725,classification_task,2021.2.3,Win32,59.58410296,627c6715c52fd12f31907bd0,,,,,,,,,,,,,,,,,,,,,,,,,,,,,,,,,,,,,,,1,  ,,0,8.292273709,304.6296,0,1,1,1,1,2,2,,,,,,,,,,,,,,,,,,
,61316af31240db5bbfa85ce9,627c7679650aa9c67843bd12,2022-05-12_05h04.53.725,classification_task,2021.2.3,Win32,59.58410296,627c6715c52fd12f31907bd0,,,,,,,,,,,,,,,,,,,,,,,,,,,,,,,,,,,,,,,2,  ,,0,5.033348121,306.706,0,1,1,1,1,2,2,,,,,,,,,,,,,,,,,,
,61316af31240db5bbfa85ce9,627c7679650aa9c67843bd12,2022-05-12_05h04.53.725,classification_task,2021.2.3,Win32,59.58410296,627c6715c52fd12f31907bd0,,,,,,,,,,,,,,,,,,,,,,,,,,,,,,,,,,,,,,,,,,,,,0,1,1,1,1,,2,,,,,,,,,,,,,,,,,,
,61316af31240db5bbfa85ce9,627c7679650aa9c67843bd12,2022-05-12_05h04.53.725,classification_task,2021.2.3,Win32,59.58410296,627c6715c52fd12f31907bd0,,,,,,,,,,,,,,,,,,,,,space,8.8475,a,0,3.1269,"[""0.350"",""0.227"",""0.626"",""0.764""]","[0,1,1,1]",0,0,0,0,1,1,1,,,0,FALSE,,,,,,,,,,,,,,,,,,,,,,,,,,,,,,,
,61316af31240db5bbfa85ce9,627c7679650aa9c67843bd12,2022-05-12_05h04.53.725,classification_task,2021.2.3,Win32,59.58410296,627c6715c52fd12f31907bd0,,,,,,,,,,,,,,,,,,,,,,,l,0,3.7791,"[""0.268"",""0.388"",""0.938"",""0.495""]","[1,1,1,0]",0,1,1,1,1,0,1,,,0,FALSE,,,,,,,,,,,,,,,,,,,,,,,,,,,,,,,
,61316af31240db5bbfa85ce9,627c7679650aa9c67843bd12,2022-05-12_05h04.53.725,classification_task,2021.2.3,Win32,59.58410296,627c6715c52fd12f31907bd0,,,,,,,,,,,,,,,,,,,,,,,a,1,2.2103,"[""0.171"",""0.437"",""0.528"",""0.890""]","[1,1,0,1]",0,2,2,2,1,0,0,,,0,FALSE,,,,,,,,,,,,,,,,,,,,,,,,,,,,,,,
,61316af31240db5bbfa85ce9,627c7679650aa9c67843bd12,2022-05-12_05h04.53.725,classification_task,2021.2.3,Win32,59.58410296,627c6715c52fd12f31907bd0,,,,,,,,,,,,,,,,,,,,,,,a,0,2.1191,"[""0.074"",""0.316"",""0.584"",""0.722""]","[0,1,1,1]",0,3,3,3,1,1,0,,,0,FALSE,,,,,,,,,,,,,,,,,,,,,,,,,,,,,,,
,61316af31240db5bbfa85ce9,627c7679650aa9c67843bd12,2022-05-12_05h04.53.725,classification_task,2021.2.3,Win32,59.58410296,627c6715c52fd12f31907bd0,,,,,,,,,,,,,,,,,,,,,,,a,0,1.8016,"[""0.025"",""0.316"",""0.350"",""0.722""]","[1,1,0,1]",0,4,4,4,1,1,0,,,0,FALSE,,,,,,,,,,,,,,,,,,,,,,,,,,,,,,,
,61316af31240db5bbfa85ce9,627c7679650aa9c67843bd12,2022-05-12_05h04.53.725,classification_task,2021.2.3,Win32,59.58410296,627c6715c52fd12f31907bd0,,,,,,,,,,,,,,,,,,,,,,,a,1,1.4474,"[""0.077"",""0.388"",""0.938"",""0.975""]","[0,1,1,1]",0,5,5,5,1,0,1,,,0,FALSE,,,,,,,,,,,,,,,,,,,,,,,,,,,,,,,
,61316af31240db5bbfa85ce9,627c7679650aa9c67843bd12,2022-05-12_05h04.53.725,classification_task,2021.2.3,Win32,59.58410296,627c6715c52fd12f31907bd0,,,,,,,,,,,,,,,,,,,,,,,l,0,1.4316,"[""0.171"",""0.437"",""0.854"",""0.528""]","[1,1,1,0]",0,6,6,6,1,0,0,,,0,FALSE,,,,,,,,,,,,,,,,,,,,,,,,,,,,,,,
,61316af31240db5bbfa85ce9,627c7679650aa9c67843bd12,2022-05-12_05h04.53.725,classification_task,2021.2.3,Win32,59.58410296,627c6715c52fd12f31907bd0,,,,,,,,,,,,,,,,,,,,,,,l,1,1.853,"[""0.025"",""0.092"",""0.584"",""0.722""]","[1,0,1,1]",0,7,7,7,1,1,0,,,0,FALSE,,,,,,,,,,,,,,,,,,,,,,,,,,,,,,,
,61316af31240db5bbfa85ce9,627c7679650aa9c67843bd12,2022-05-12_05h04.53.725,classification_task,2021.2.3,Win32,59.58410296,627c6715c52fd12f31907bd0,,,,,,,,,,,,,,,,,,,,,,,a,1,1.8619,"[""0.171"",""0.528"",""0.854"",""0.890""]","[1,0,1,1]",0,8,8,8,1,0,0,,,0,FALSE,,,,,,,,,,,,,,,,,,,,,,,,,,,,,,,
,61316af31240db5bbfa85ce9,627c7679650aa9c67843bd12,2022-05-12_05h04.53.725,classification_task,2021.2.3,Win32,59.58410296,627c6715c52fd12f31907bd0,,,,,,,,,,,,,,,,,,,,,,,l,1,1.2636,"[""0.131"",""0.074"",""0.626"",""0.764""]","[1,0,1,1]",0,9,9,9,1,1,1,,,0,FALSE,,,,,,,,,,,,,,,,,,,,,,,,,,,,,,,
,61316af31240db5bbfa85ce9,627c7679650aa9c67843bd12,2022-05-12_05h04.53.725,classification_task,2021.2.3,Win32,59.58410296,627c6715c52fd12f31907bd0,,,,,,,,,,,,,,,,,,,,,,,l,0,1.4616,"[""0.268"",""0.388"",""0.092"",""0.975""]","[1,1,0,1]",0,10,10,10,1,0,1,,,0,FALSE,,,,,,,,,,,,,,,,,,,,,,,,,,,,,,,
,61316af31240db5bbfa85ce9,627c7679650aa9c67843bd12,2022-05-12_05h04.53.725,classification_task,2021.2.3,Win32,59.58410296,627c6715c52fd12f31907bd0,,,,,,,,,,,,,,,,,,,,,,,l,1,2.3314,"[""0.025"",""0.316"",""0.584"",""0.677""]","[1,1,1,0]",0,11,11,11,1,1,0,,,0,FALSE,,,,,,,,,,,,,,,,,,,,,,,,,,,,,,,
,61316af31240db5bbfa85ce9,627c7679650aa9c67843bd12,2022-05-12_05h04.53.725,classification_task,2021.2.3,Win32,59.58410296,627c6715c52fd12f31907bd0,,,,,,,,,,,,,,,,,,,,,,,l,1,2.5462,"[""0.131"",""0.227"",""0.626"",""0.521""]","[1,1,1,0]",0,12,12,12,1,1,1,,,0,FALSE,,,,,,,,,,,,,,,,,,,,,,,,,,,,,,,
,61316af31240db5bbfa85ce9,627c7679650aa9c67843bd12,2022-05-12_05h04.53.725,classification_task,2021.2.3,Win32,59.58410296,627c6715c52fd12f31907bd0,,,,,,,,,,,,,,,,,,,,,,,a,0,2.2927,"[""0.131"",""0.227"",""0.677"",""0.764""]","[1,1,0,1]",0,13,13,13,1,1,1,,,0,FALSE,,,,,,,,,,,,,,,,,,,,,,,,,,,,,,,
,61316af31240db5bbfa85ce9,627c7679650aa9c67843bd12,2022-05-12_05h04.53.725,classification_task,2021.2.3,Win32,59.58410296,627c6715c52fd12f31907bd0,,,,,,,,,,,,,,,,,,,,,,,a,1,1.8738,"[""0.268"",""0.677"",""0.938"",""0.975""]","[1,0,1,1]",0,14,14,14,1,0,1,,,0,FALSE,,,,,,,,,,,,,,,,,,,,,,,,,,,,,,,
,61316af31240db5bbfa85ce9,627c7679650aa9c67843bd12,2022-05-12_05h04.53.725,classification_task,2021.2.3,Win32,59.58410296,627c6715c52fd12f31907bd0,,,,,,,,,,,,,,,,,,,,,,,l,0,4.5479,"[""0.807"",""0.437"",""0.854"",""0.890""]","[0,1,1,1]",0,15,15,15,1,0,0,,,0,FALSE,,,,,,,,,,,,,,,,,,,,,,,,,,,,,,,
,61316af31240db5bbfa85ce9,627c7679650aa9c67843bd12,2022-05-12_05h04.53.725,classification_task,2021.2.3,Win32,59.58410296,627c6715c52fd12f31907bd0,,,,,,,,,,,,,,,,,,,,,,,l,1,1.9345,"[""0.025"",""0.316"",""0.092"",""0.722""]","[1,1,0,1]",0,16,16,16,1,1,0,,,0,FALSE,,,,,,,,,,,,,,,,,,,,,,,,,,,,,,,
,61316af31240db5bbfa85ce9,627c7679650aa9c67843bd12,2022-05-12_05h04.53.725,classification_task,2021.2.3,Win32,59.58410296,627c6715c52fd12f31907bd0,,,,,,,,,,,,,,,,,,,,,,,l,1,2.2453,"[""0.025"",""0.514"",""0.584"",""0.722""]","[1,0,1,1]",0,17,17,17,1,1,0,,,0,FALSE,,,,,,,,,,,,,,,,,,,,,,,,,,,,,,,
,61316af31240db5bbfa85ce9,627c7679650aa9c67843bd12,2022-05-12_05h04.53.725,classification_task,2021.2.3,Win32,59.58410296,627c6715c52fd12f31907bd0,,,,,,,,,,,,,,,,,,,,,,,a,0,1.5814,"[""0.025"",""0.316"",""0.584"",""0.079""]","[1,1,1,0]",0,18,18,18,1,1,0,,,0,FALSE,,,,,,,,,,,,,,,,,,,,,,,,,,,,,,,
,61316af31240db5bbfa85ce9,627c7679650aa9c67843bd12,2022-05-12_05h04.53.725,classification_task,2021.2.3,Win32,59.58410296,627c6715c52fd12f31907bd0,,,,,,,,,,,,,,,,,,,,,,,a,1,2.2578,"[""0.268"",""0.079"",""0.938"",""0.975""]","[1,0,1,1]",0,19,19,19,1,0,1,,,0,FALSE,,,,,,,,,,,,,,,,,,,,,,,,,,,,,,,
,61316af31240db5bbfa85ce9,627c7679650aa9c67843bd12,2022-05-12_05h04.53.725,classification_task,2021.2.3,Win32,59.58410296,627c6715c52fd12f31907bd0,,,,,,,,,,,,,,,,,,,,,,,l,1,1.441,"[""0.131"",""0.227"",""0.081"",""0.764""]","[1,1,0,1]",0,20,20,20,1,1,1,,,0,FALSE,,,,,,,,,,,,,,,,,,,,,,,,,,,,,,,
,61316af31240db5bbfa85ce9,627c7679650aa9c67843bd12,2022-05-12_05h04.53.725,classification_task,2021.2.3,Win32,59.58410296,627c6715c52fd12f31907bd0,,,,,,,,,,,,,,,,,,,,,,,a,1,2.506,"[""0.268"",""0.388"",""0.495"",""0.975""]","[1,1,0,1]",0,21,21,21,1,0,1,,,0,FALSE,,,,,,,,,,,,,,,,,,,,,,,,,,,,,,,
,61316af31240db5bbfa85ce9,627c7679650aa9c67843bd12,2022-05-12_05h04.53.725,classification_task,2021.2.3,Win32,59.58410296,627c6715c52fd12f31907bd0,,,,,,,,,,,,,,,,,,,,,,,l,1,3.0711,"[""0.807"",""0.227"",""0.626"",""0.764""]","[0,1,1,1]",0,22,22,22,1,1,1,,,0,FALSE,,,,,,,,,,,,,,,,,,,,,,,,,,,,,,,
,61316af31240db5bbfa85ce9,627c7679650aa9c67843bd12,2022-05-12_05h04.53.725,classification_task,2021.2.3,Win32,59.58410296,627c6715c52fd12f31907bd0,,,,,,,,,,,,,,,,,,,,,,,a,1,1.8225,"[""0.074"",""0.437"",""0.854"",""0.890""]","[0,1,1,1]",0,23,23,23,1,0,0,,,0,FALSE,,,,,,,,,,,,,,,,,,,,,,,,,,,,,,,
,61316af31240db5bbfa85ce9,627c7679650aa9c67843bd12,2022-05-12_05h04.53.725,classification_task,2021.2.3,Win32,59.58410296,627c6715c52fd12f31907bd0,,,,,,,,,,,,,,,,,,,,,,,a,1,1.2298,"[""0.171"",""0.677"",""0.854"",""0.890""]","[1,0,1,1]",0,24,24,24,1,0,0,,,0,FALSE,,,,,,,,,,,,,,,,,,,,,,,,,,,,,,,
,61316af31240db5bbfa85ce9,627c7679650aa9c67843bd12,2022-05-12_05h04.53.725,classification_task,2021.2.3,Win32,59.58410296,627c6715c52fd12f31907bd0,,,,,,,,,,,,,,,,,,,,,,,a,1,1.2115,"[""0.079"",""0.388"",""0.938"",""0.975""]","[0,1,1,1]",0,25,25,25,1,0,1,,,0,FALSE,,,,,,,,,,,,,,,,,,,,,,,,,,,,,,,
,61316af31240db5bbfa85ce9,627c7679650aa9c67843bd12,2022-05-12_05h04.53.725,classification_task,2021.2.3,Win32,59.58410296,627c6715c52fd12f31907bd0,,,,,,,,,,,,,,,,,,,,,,,l,1,2.7879,"[""0.092"",""0.316"",""0.584"",""0.722""]","[0,1,1,1]",0,26,26,26,1,1,0,,,0,FALSE,,,,,,,,,,,,,,,,,,,,,,,,,,,,,,,
,61316af31240db5bbfa85ce9,627c7679650aa9c67843bd12,2022-05-12_05h04.53.725,classification_task,2021.2.3,Win32,59.58410296,627c6715c52fd12f31907bd0,,,,,,,,,,,,,,,,,,,,,,,l,0,3.1907,"[""0.171"",""0.437"",""0.854"",""0.077""]","[1,1,1,0]",0,27,27,27,1,0,0,,,0,FALSE,,,,,,,,,,,,,,,,,,,,,,,,,,,,,,,
,61316af31240db5bbfa85ce9,627c7679650aa9c67843bd12,2022-05-12_05h04.53.725,classification_task,2021.2.3,Win32,59.58410296,627c6715c52fd12f31907bd0,,,,,,,,,,,,,,,,,,,,,,,l,1,0.8616,"[""0.131"",""0.528"",""0.626"",""0.764""]","[1,0,1,1]",0,28,28,28,1,1,1,,,0,FALSE,,,,,,,,,,,,,,,,,,,,,,,,,,,,,,,
,61316af31240db5bbfa85ce9,627c7679650aa9c67843bd12,2022-05-12_05h04.53.725,classification_task,2021.2.3,Win32,59.58410296,627c6715c52fd12f31907bd0,,,,,,,,,,,,,,,,,,,,,,,a,0,2.4727,"[""0.131"",""0.227"",""0.626"",""0.677""]","[1,1,1,0]",0,29,29,29,1,1,1,,,0,FALSE,,,,,,,,,,,,,,,,,,,,,,,,,,,,,,,
,61316af31240db5bbfa85ce9,627c7679650aa9c67843bd12,2022-05-12_05h04.53.725,classification_task,2021.2.3,Win32,59.58410296,627c6715c52fd12f31907bd0,,,,,,,,,,,,,,,,,,,,,,,a,1,2.3815,"[""0.268"",""0.388"",""0.938"",""0.074""]","[1,1,1,0]",0,30,30,30,1,0,1,,,0,FALSE,,,,,,,,,,,,,,,,,,,,,,,,,,,,,,,
,61316af31240db5bbfa85ce9,627c7679650aa9c67843bd12,2022-05-12_05h04.53.725,classification_task,2021.2.3,Win32,59.58410296,627c6715c52fd12f31907bd0,,,,,,,,,,,,,,,,,,,,,,,a,1,1.3566,"[""0.171"",""0.437"",""0.521"",""0.890""]","[1,1,0,1]",0,31,31,31,1,0,0,,,0,FALSE,,,,,,,,,,,,,,,,,,,,,,,,,,,,,,,
,61316af31240db5bbfa85ce9,627c7679650aa9c67843bd12,2022-05-12_05h04.53.725,classification_task,2021.2.3,Win32,59.58410296,627c6715c52fd12f31907bd0,,,,,,,,,,,,,,,,,,,,,,,l,1,1.8257,"[""0.025"",""0.316"",""0.584"",""0.350""]","[1,1,1,0]",0,32,32,32,1,1,0,,,0,FALSE,,,,,,,,,,,,,,,,,,,,,,,,,,,,,,,
,61316af31240db5bbfa85ce9,627c7679650aa9c67843bd12,2022-05-12_05h04.53.725,classification_task,2021.2.3,Win32,59.58410296,627c6715c52fd12f31907bd0,,,,,,,,,,,,,,,,,,,,,,,l,0,1.9336,"[""0.171"",""0.437"",""0.854"",""0.514""]","[1,1,1,0]",0,33,33,33,1,0,0,,,0,FALSE,,,,,,,,,,,,,,,,,,,,,,,,,,,,,,,
,61316af31240db5bbfa85ce9,627c7679650aa9c67843bd12,2022-05-12_05h04.53.725,classification_task,2021.2.3,Win32,59.58410296,627c6715c52fd12f31907bd0,,,,,,,,,,,,,,,,,,,,,,,l,1,1.3264,"[""0.514"",""0.227"",""0.626"",""0.764""]","[0,1,1,1]",0,34,34,34,1,1,1,,,0,FALSE,,,,,,,,,,,,,,,,,,,,,,,,,,,,,,,
,61316af31240db5bbfa85ce9,627c7679650aa9c67843bd12,2022-05-12_05h04.53.725,classification_task,2021.2.3,Win32,59.58410296,627c6715c52fd12f31907bd0,,,,,,,,,,,,,,,,,,,,,,,l,1,1.8439,"[""0.131"",""0.350"",""0.626"",""0.764""]","[1,0,1,1]",0,35,35,35,1,1,1,,,0,FALSE,,,,,,,,,,,,,,,,,,,,,,,,,,,,,,,
,61316af31240db5bbfa85ce9,627c7679650aa9c67843bd12,2022-05-12_05h04.53.725,classification_task,2021.2.3,Win32,59.58410296,627c6715c52fd12f31907bd0,,,,,,,,,,,,,,,,,,,,,,,a,0,1.3801,"[""0.025"",""0.677"",""0.584"",""0.722""]","[1,0,1,1]",0,36,36,36,1,1,0,,,0,FALSE,,,,,,,,,,,,,,,,,,,,,,,,,,,,,,,
,61316af31240db5bbfa85ce9,627c7679650aa9c67843bd12,2022-05-12_05h04.53.725,classification_task,2021.2.3,Win32,59.58410296,627c6715c52fd12f31907bd0,,,,,,,,,,,,,,,,,,,,,,,a,1,1.023,"[""0.514"",""0.388"",""0.938"",""0.975""]","[0,1,1,1]",0,37,37,37,1,0,1,,,0,FALSE,,,,,,,,,,,,,,,,,,,,,,,,,,,,,,,
,61316af31240db5bbfa85ce9,627c7679650aa9c67843bd12,2022-05-12_05h04.53.725,classification_task,2021.2.3,Win32,59.58410296,627c6715c52fd12f31907bd0,,,,,,,,,,,,,,,,,,,,,,,a,1,1.2952,"[""0.092"",""0.437"",""0.854"",""0.890""]","[0,1,1,1]",0,38,38,38,1,0,0,,,0,FALSE,,,,,,,,,,,,,,,,,,,,,,,,,,,,,,,
,61316af31240db5bbfa85ce9,627c7679650aa9c67843bd12,2022-05-12_05h04.53.725,classification_task,2021.2.3,Win32,59.58410296,627c6715c52fd12f31907bd0,,,,,,,,,,,,,,,,,,,,,,,l,0,3.4653,"[""0.268"",""0.388"",""0.938"",""0.092""]","[1,1,1,0]",0,39,39,39,1,0,1,,,0,FALSE,,,,,,,,,,,,,,,,,,,,,,,,,,,,,,,
,61316af31240db5bbfa85ce9,627c7679650aa9c67843bd12,2022-05-12_05h04.53.725,classification_task,2021.2.3,Win32,59.58410296,627c6715c52fd12f31907bd0,,,,,,,,,,,,,,,,,,,,,,,a,1,2.3073,"[""0.268"",""0.077"",""0.938"",""0.975""]","[1,0,1,1]",0,40,40,40,1,0,1,,,0,FALSE,,,,,,,,,,,,,,,,,,,,,,,,,,,,,,,
,61316af31240db5bbfa85ce9,627c7679650aa9c67843bd12,2022-05-12_05h04.53.725,classification_task,2021.2.3,Win32,59.58410296,627c6715c52fd12f31907bd0,,,,,,,,,,,,,,,,,,,,,,,a,0,2.9362,"[""0.677"",""0.316"",""0.584"",""0.722""]","[0,1,1,1]",0,41,41,41,1,1,0,,,0,FALSE,,,,,,,,,,,,,,,,,,,,,,,,,,,,,,,
,61316af31240db5bbfa85ce9,627c7679650aa9c67843bd12,2022-05-12_05h04.53.725,classification_task,2021.2.3,Win32,59.58410296,627c6715c52fd12f31907bd0,,,,,,,,,,,,,,,,,,,,,,,l,1,1.3315,"[""0.131"",""0.227"",""0.626"",""0.074""]","[1,1,1,0]",0,42,42,42,1,1,1,,,0,FALSE,,,,,,,,,,,,,,,,,,,,,,,,,,,,,,,
,61316af31240db5bbfa85ce9,627c7679650aa9c67843bd12,2022-05-12_05h04.53.725,classification_task,2021.2.3,Win32,59.58410296,627c6715c52fd12f31907bd0,,,,,,,,,,,,,,,,,,,,,,,l,0,1.1691,"[""0.268"",""0.388"",""0.521"",""0.975""]","[1,1,0,1]",0,43,43,43,1,0,1,,,0,FALSE,,,,,,,,,,,,,,,,,,,,,,,,,,,,,,,
,61316af31240db5bbfa85ce9,627c7679650aa9c67843bd12,2022-05-12_05h04.53.725,classification_task,2021.2.3,Win32,59.58410296,627c6715c52fd12f31907bd0,,,,,,,,,,,,,,,,,,,,,,,l,1,2.6856,"[""0.131"",""0.227"",""0.495"",""0.764""]","[1,1,0,1]",0,44,44,44,1,1,1,,,0,FALSE,,,,,,,,,,,,,,,,,,,,,,,,,,,,,,,
,61316af31240db5bbfa85ce9,627c7679650aa9c67843bd12,2022-05-12_05h04.53.725,classification_task,2021.2.3,Win32,59.58410296,627c6715c52fd12f31907bd0,,,,,,,,,,,,,,,,,,,,,,,a,1,2.0663,"[""0.171"",""0.437"",""0.521"",""0.890""]","[1,1,0,1]",0,45,45,45,1,0,0,,,0,FALSE,,,,,,,,,,,,,,,,,,,,,,,,,,,,,,,
,61316af31240db5bbfa85ce9,627c7679650aa9c67843bd12,2022-05-12_05h04.53.725,classification_task,2021.2.3,Win32,59.58410296,627c6715c52fd12f31907bd0,,,,,,,,,,,,,,,,,,,,,,,a,1,2.356,"[""0.171"",""0.514"",""0.854"",""0.890""]","[1,0,1,1]",0,46,46,46,1,0,0,,,0,FALSE,,,,,,,,,,,,,,,,,,,,,,,,,,,,,,,
,61316af31240db5bbfa85ce9,627c7679650aa9c67843bd12,2022-05-12_05h04.53.725,classification_task,2021.2.3,Win32,59.58410296,627c6715c52fd12f31907bd0,,,,,,,,,,,,,,,,,,,,,,,l,1,1.8917,"[""0.025"",""0.316"",""0.514"",""0.722""]","[1,1,0,1]",0,47,47,47,1,1,0,,,0,FALSE,,,,,,,,,,,,,,,,,,,,,,,,,,,,,,,
,61316af31240db5bbfa85ce9,627c7679650aa9c67843bd12,2022-05-12_05h04.53.725,classification_task,2021.2.3,Win32,59.58410296,627c6715c52fd12f31907bd0,,,,,,,,,,,,,,,,,,,,,,,l,1,1.5478,"[""0.131"",""0.227"",""0.626"",""0.077""]","[1,1,1,0]",0,48,48,48,1,1,1,,,0,FALSE,,,,,,,,,,,,,,,,,,,,,,,,,,,,,,,
,61316af31240db5bbfa85ce9,627c7679650aa9c67843bd12,2022-05-12_05h04.53.725,classification_task,2021.2.3,Win32,59.58410296,627c6715c52fd12f31907bd0,,,,,,,,,,,,,,,,,,,,,,,l,1,1.4768,"[""0.025"",""0.316"",""0.514"",""0.722""]","[1,1,0,1]",0,49,49,49,1,1,0,,,0,FALSE,,,,,,,,,,,,,,,,,,,,,,,,,,,,,,,
,61316af31240db5bbfa85ce9,627c7679650aa9c67843bd12,2022-05-12_05h04.53.725,classification_task,2021.2.3,Win32,59.58410296,627c6715c52fd12f31907bd0,,,,,,,,,,,,,,,,,,,,,,,l,1,4.929,"[""0.092"",""0.316"",""0.584"",""0.722""]","[0,1,1,1]",0,50,50,50,1,1,0,,,0,FALSE,,,,,,,,,,,,,,,,,,,,,,,,,,,,,,,
,61316af31240db5bbfa85ce9,627c7679650aa9c67843bd12,2022-05-12_05h04.53.725,classification_task,2021.2.3,Win32,59.58410296,627c6715c52fd12f31907bd0,,,,,,,,,,,,,,,,,,,,,,,l,0,3.0634,"[""0.268"",""0.388"",""0.090"",""0.975""]","[1,1,0,1]",0,51,51,51,1,0,1,,,0,FALSE,,,,,,,,,,,,,,,,,,,,,,,,,,,,,,,
,61316af31240db5bbfa85ce9,627c7679650aa9c67843bd12,2022-05-12_05h04.53.725,classification_task,2021.2.3,Win32,59.58410296,627c6715c52fd12f31907bd0,,,,,,,,,,,,,,,,,,,,,,,a,0,4.8707,"[""0.025"",""0.677"",""0.584"",""0.722""]","[1,0,1,1]",0,52,52,52,1,1,0,,,0,FALSE,,,,,,,,,,,,,,,,,,,,,,,,,,,,,,,
,61316af31240db5bbfa85ce9,627c7679650aa9c67843bd12,2022-05-12_05h04.53.725,classification_task,2021.2.3,Win32,59.58410296,627c6715c52fd12f31907bd0,,,,,,,,,,,,,,,,,,,,,,,,0,,"[""0.092"",""0.388"",""0.938"",""0.975""]","[0,1,1,1]",0,53,53,53,1,0,1,,,0,FALSE,,,,,,,,,,,,,,,,,,,,,,,,,,,,,,,
,61316af31240db5bbfa85ce9,627c7679650aa9c67843bd12,2022-05-12_05h04.53.725,classification_task,2021.2.3,Win32,59.58410296,627c6715c52fd12f31907bd0,,,,,,,,,,,,,,,,,,,,,,,a,0,1.0183,"[""0.025"",""0.316"",""0.584"",""0.079""]","[1,1,1,0]",0,54,54,54,1,1,0,,,0,FALSE,,,,,,,,,,,,,,,,,,,,,,,,,,,,,,,
,61316af31240db5bbfa85ce9,627c7679650aa9c67843bd12,2022-05-12_05h04.53.725,classification_task,2021.2.3,Win32,59.58410296,627c6715c52fd12f31907bd0,,,,,,,,,,,,,,,,,,,,,,,a,1,1.7538,"[""0.350"",""0.437"",""0.854"",""0.890""]","[0,1,1,1]",0,55,55,55,1,0,0,,,0,FALSE,,,,,,,,,,,,,,,,,,,,,,,,,,,,,,,
,61316af31240db5bbfa85ce9,627c7679650aa9c67843bd12,2022-05-12_05h04.53.725,classification_task,2021.2.3,Win32,59.58410296,627c6715c52fd12f31907bd0,,,,,,,,,,,,,,,,,,,,,,,l,1,1.7375,"[""0.092"",""0.227"",""0.626"",""0.764""]","[0,1,1,1]",0,56,56,56,1,1,1,,,0,FALSE,,,,,,,,,,,,,,,,,,,,,,,,,,,,,,,
,61316af31240db5bbfa85ce9,627c7679650aa9c67843bd12,2022-05-12_05h04.53.725,classification_task,2021.2.3,Win32,59.58410296,627c6715c52fd12f31907bd0,,,,,,,,,,,,,,,,,,,,,,,l,1,1.6363,"[""0.131"",""0.521"",""0.626"",""0.764""]","[1,0,1,1]",0,57,57,57,1,1,1,,,0,FALSE,,,,,,,,,,,,,,,,,,,,,,,,,,,,,,,
,61316af31240db5bbfa85ce9,627c7679650aa9c67843bd12,2022-05-12_05h04.53.725,classification_task,2021.2.3,Win32,59.58410296,627c6715c52fd12f31907bd0,,,,,,,,,,,,,,,,,,,,,,,a,1,1.1064,"[""0.171"",""0.807"",""0.854"",""0.890""]","[1,0,1,1]",0,58,58,58,1,0,0,,,0,FALSE,,,,,,,,,,,,,,,,,,,,,,,,,,,,,,,
,61316af31240db5bbfa85ce9,627c7679650aa9c67843bd12,2022-05-12_05h04.53.725,classification_task,2021.2.3,Win32,59.58410296,627c6715c52fd12f31907bd0,,,,,,,,,,,,,,,,,,,,,,,l,1,1.0538,"[""0.131"",""0.227"",""0.077"",""0.764""]","[1,1,0,1]",0,59,59,59,1,1,1,,,0,FALSE,,,,,,,,,,,,,,,,,,,,,,,,,,,,,,,
,61316af31240db5bbfa85ce9,627c7679650aa9c67843bd12,2022-05-12_05h04.53.725,classification_task,2021.2.3,Win32,59.58410296,627c6715c52fd12f31907bd0,,,,,,,,,,,,,,,,,,,,,,,a,1,1.4275,"[""0.268"",""0.807"",""0.938"",""0.975""]","[1,0,1,1]",0,60,60,60,1,0,1,,,0,FALSE,,,,,,,,,,,,,,,,,,,,,,,,,,,,,,,
,61316af31240db5bbfa85ce9,627c7679650aa9c67843bd12,2022-05-12_05h04.53.725,classification_task,2021.2.3,Win32,59.58410296,627c6715c52fd12f31907bd0,,,,,,,,,,,,,,,,,,,,,,,l,0,1.4229,"[""0.171"",""0.437"",""0.077"",""0.890""]","[1,1,0,1]",0,61,61,61,1,0,0,,,0,FALSE,,,,,,,,,,,,,,,,,,,,,,,,,,,,,,,
,61316af31240db5bbfa85ce9,627c7679650aa9c67843bd12,2022-05-12_05h04.53.725,classification_task,2021.2.3,Win32,59.58410296,627c6715c52fd12f31907bd0,,,,,,,,,,,,,,,,,,,,,,,a,1,5.3591,"[""0.268"",""0.388"",""0.938"",""0.807""]","[1,1,1,0]",0,62,62,62,1,0,1,,,0,FALSE,,,,,,,,,,,,,,,,,,,,,,,,,,,,,,,
,61316af31240db5bbfa85ce9,627c7679650aa9c67843bd12,2022-05-12_05h04.53.725,classification_task,2021.2.3,Win32,59.58410296,627c6715c52fd12f31907bd0,,,,,,,,,,,,,,,,,,,,,,,l,0,1.3684,"[""0.171"",""0.437"",""0.854"",""0.081""]","[1,1,1,0]",0,63,63,63,1,0,0,,,0,FALSE,,,,,,,,,,,,,,,,,,,,,,,,,,,,,,,
,61316af31240db5bbfa85ce9,627c7679650aa9c67843bd12,2022-05-12_05h04.53.725,classification_task,2021.2.3,Win32,59.58410296,627c6715c52fd12f31907bd0,,,,,,,,,,,,,,,,,,,,,,,,,,,,,,,,,,,,,,,0, ,,0,3.881697803,243.6135,0,2,2,2,1,2,3,,,,,,,,,,,,,,,,,,
,61316af31240db5bbfa85ce9,627c7679650aa9c67843bd12,2022-05-12_05h04.53.725,classification_task,2021.2.3,Win32,59.58410296,627c6715c52fd12f31907bd0,,,,,,,,,,,,,,,,,,,,,,,,,,,,,,,,,,,,,,,1,  ,,0,9.958490359,237.5995,0,2,2,2,1,2,3,,,,,,,,,,,,,,,,,,
,61316af31240db5bbfa85ce9,627c7679650aa9c67843bd12,2022-05-12_05h04.53.725,classification_task,2021.2.3,Win32,59.58410296,627c6715c52fd12f31907bd0,,,,,,,,,,,,,,,,,,,,,,,,,,,,,,,,,,,,,,,2,  ,,0,8.733330271,233.0448,0,2,2,2,1,2,3,,,,,,,,,,,,,,,,,,
,61316af31240db5bbfa85ce9,627c7679650aa9c67843bd12,2022-05-12_05h04.53.725,classification_task,2021.2.3,Win32,59.58410296,627c6715c52fd12f31907bd0,,,,,,,,,,,,,,,,,,,,,,,,,,,,,,,,,,,,,,,,,,,,,0,2,2,2,1,,3,,,,,,,,,,,,,,,,,,
,61316af31240db5bbfa85ce9,627c7679650aa9c67843bd12,2022-05-12_05h04.53.725,classification_task,2021.2.3,Win32,59.58410296,627c6715c52fd12f31907bd0,,,,,,,,,,,,,,,,,,,,,,,,,,,,,,,,,,,,,,,,,,,,,,,,,,,,,I believe the aid is a competent performer,,0.7,0,5,1468.0743,0,0,0,0,1,0,,,,,
,61316af31240db5bbfa85ce9,627c7679650aa9c67843bd12,2022-05-12_05h04.53.725,classification_task,2021.2.3,Win32,59.58410296,627c6715c52fd12f31907bd0,,,,,,,,,,,,,,,,,,,,,,,,,,,,,,,,,,,,,,,,,,,,,,,,,,,,,I trust the aid,,0.7,0,5,1469.8168,0,0,0,0,1,0,,,,,
,61316af31240db5bbfa85ce9,627c7679650aa9c67843bd12,2022-05-12_05h04.53.725,classification_task,2021.2.3,Win32,59.58410296,627c6715c52fd12f31907bd0,,,,,,,,,,,,,,,,,,,,,,,,,,,,,,,,,,,,,,,,,,,,,,,,,,,,,I have confidence in the advice given by the aid,,0.7,0,5,1472.438,0,0,0,0,1,0,,,,,
,61316af31240db5bbfa85ce9,627c7679650aa9c67843bd12,2022-05-12_05h04.53.725,classification_task,2021.2.3,Win32,59.58410296,627c6715c52fd12f31907bd0,,,,,,,,,,,,,,,,,,,,,,,,,,,,,,,,,,,,,,,,,,,,,,,,,,,,,I can depend on the aid,,0.7,0,5,1474.2446,0,0,0,0,1,0,,,,,
,61316af31240db5bbfa85ce9,627c7679650aa9c67843bd12,2022-05-12_05h04.53.725,classification_task,2021.2.3,Win32,59.58410296,627c6715c52fd12f31907bd0,,,,,,,,,,,,,,,,,,,,,,,,,,,,,,,,,,,,,,,,,,,,,,,,,,,,,I can rely on the aid to behave in consistent ways,,0.7,0,4,1481.1458,0,0,0,0,1,0,,,,,
,61316af31240db5bbfa85ce9,627c7679650aa9c67843bd12,2022-05-12_05h04.53.725,classification_task,2021.2.3,Win32,59.58410296,627c6715c52fd12f31907bd0,,,,,,,,,,,,,,,,,,,,,,,,,,,,,,,,,,,,,,,,,,,,,,,,,,,,,I can rely on the aid to do its best every time I take its advice,,0.7,0,5,1485.6369,0,0,0,0,1,0,,,,,
,61316af31240db5bbfa85ce9,627c7679650aa9c67843bd12,2022-05-12_05h04.53.725,classification_task,2021.2.3,Win32,59.58410296,627c6715c52fd12f31907bd0,,,,,,,,,,,,,,,,,,,,,,,,,,,,,,,,,,,,,,,,,,,,,,,,,,,,,"On trials you completed with assistance from the aid, how frequently did you think the aid was correct?",,0.7,0,100%,,0,0,0,0,1,0,,,,,
,61316af31240db5bbfa85ce9,627c7679650aa9c67843bd12,2022-05-12_05h04.53.725,classification_task,2021.2.3,Win32,59.58410296,627c6715c52fd12f31907bd0,,,,,,,,,,,,,,,,,,,,,,,,,,,,,,,,,,,,,,,,,,,,,,,,,,,,,"On trials you completed without the aid, how frequently did you think you were correct?",,0.7,0,50%,,0,0,0,0,1,0,,,,,
,61316af31240db5bbfa85ce9,627c7679650aa9c67843bd12,2022-05-12_05h04.53.725,classification_task,2021.2.3,Win32,59.58410296,627c6715c52fd12f31907bd0,,,,,,,,,,,,,,,,,,,,,,,,,,,,,,,,,,,,,,,,,,,,,,,,,,,,,,,,,,,0,0,0,0,1,,,,,,
,61316af31240db5bbfa85ce9,627c7679650aa9c67843bd12,2022-05-12_05h04.53.725,classification_task,2021.2.3,Win32,59.58410296,627c6715c52fd12f31907bd0,,,,,,,,,,,,,,,,,,,,,,,,,,,,,,,,,,,,,,,,,,,,,,,,,,,,,,,,,,,,,,,,,space,30.0296,1590.1733,,
,61316af31240db5bbfa85ce9,627c7679650aa9c67843bd12,2022-05-12_05h04.53.725,classification_task,2021.2.3,Win32,59.58410296,627c6715c52fd12f31907bd0,,,,,,,,,,,,,,,,,,,,,,,,,,,,,,,,,,,,,,,,,,,,,,,,,,,,,,,,,,,,,,,,,,,,"Mozilla/5.0 (Windows NT 10.0; Win64; x64) AppleWebKit/537.36 (KHTML, like Gecko) Chrome/100.0.4896.127 Safari/537.36",
,61316af31240db5bbfa85ce9,627c7679650aa9c67843bd12,2022-05-12_05h04.53.725,classification_task,2021.2.3,Win32,59.58410296,627c6715c52fd12f31907bd0,,,,,,,,,,,,,,,,,,,,,,,,,,,,,,,,,,,,,,,,,,,,,,,,,,,,,,,,,,,,,,,,,,,,,FADING
