usingWebGL,participant,session,date,expName,psychopyVersion,OS,frameRate,PROLIFIC_PID,STUDY_ID,SESSION_ID,signatures_friend,signatures_foe,band_ranges_top,band_ranges_bottom,formitemText,formtype,formundefined,formitemWidth,formindex,formresponse,formrt,key_resp_2.keys,key_resp_2.rt,tute_resp.keys,tute_resp.rt,tutorial.thisRepN,tutorial.thisTrialN,tutorial.thisN,tutorial.thisIndex,tutorial.ran,key_resp_4.keys,key_resp_4.rt,key_resp.keys,key_resp.corr,key_resp.rt,lines_presented,is_signal_presented,trials.thisRepN,trials.thisTrialN,trials.thisN,trials.thisIndex,trials.ran,vessel,active_band,lines,is_signal,supported_pos,catch_trial,debrief_formindex,debrief_formitemText,debrief_formtype,debrief_formitemWidth,debrief_formresponse,debrief_formrt,phases.thisRepN,phases.thisTrialN,phases.thisN,phases.thisIndex,phases.ran,phases.order,phase,key_resp_3.keys,trustitemText,trusttype,trustitemWidth,trustindex,trustresponse,trustrt,support_status.thisRepN,support_status.thisTrialN,support_status.thisN,support_status.thisIndex,support_status.ran,support_status.order,key_resp_5.keys,key_resp_5.rt,globalClockTime,userAgent
TRUE,6133cb1f2abde9d84b0f8ebc,001,2022-04-29_03h16.05.786,classification_task,2021.2.3,Win32,60.04924038,6133cb1f2abde9d84b0f8ebc,626b377229c10585ec392f8a,626b3bef4f48837dbde9ab4a,,,,,,,,,,,,,,,,,,,,,,,,,,,,,,,,,,,,,,,,,,,,,,,,,,,,,,,,,,,,,,,,,,,,
,6133cb1f2abde9d84b0f8ebc,001,2022-04-29_03h16.05.786,classification_task,2021.2.3,Win32,60.04924038,6133cb1f2abde9d84b0f8ebc,626b377229c10585ec392f8a,626b3bef4f48837dbde9ab4a,"[[""0.269"",""0.552"",""0.717"",""0.876""],[""0.309"",""0.348"",""0.919"",""0.957""]]","[[""0.139"",""0.186"",""0.485"",""0.795""],[""0.089"",""0.401"",""0.665"",""0.834""]]","[1,10]","[100,1000]",Video game experience,,,0.7,0,,,,,,,,,,,,,,,,,,,,,,,,,,,,,,,,,,,,,,,,,,,,,,,,,,,,,,,,,,,
,6133cb1f2abde9d84b0f8ebc,001,2022-04-29_03h16.05.786,classification_task,2021.2.3,Win32,60.04924038,6133cb1f2abde9d84b0f8ebc,626b377229c10585ec392f8a,626b3bef4f48837dbde9ab4a,,,,,Approximately how many hours did you spend playing video games in the last week?,,,0.7,0,0,,,,,,,,,,,,,,,,,,,,,,,,,,,,,,,,,,,,,,,,,,,,,,,,,,,,,,,,,,
,6133cb1f2abde9d84b0f8ebc,001,2022-04-29_03h16.05.786,classification_task,2021.2.3,Win32,60.04924038,6133cb1f2abde9d84b0f8ebc,626b377229c10585ec392f8a,626b3bef4f48837dbde9ab4a,,,,,"Which game did you play the most this year? (Enter ""None"" if you didn't play any)",,,0.7,0,None,,,,,,,,,,,,,,,,,,,,,,,,,,,,,,,,,,,,,,,,,,,,,,,,,,,,,,,,,,
,6133cb1f2abde9d84b0f8ebc,001,2022-04-29_03h16.05.786,classification_task,2021.2.3,Win32,60.04924038,6133cb1f2abde9d84b0f8ebc,626b377229c10585ec392f8a,626b3bef4f48837dbde9ab4a,,,,,Visual perception,,,0.7,0,,,,,,,,,,,,,,,,,,,,,,,,,,,,,,,,,,,,,,,,,,,,,,,,,,,,,,,,,,,
,6133cb1f2abde9d84b0f8ebc,001,2022-04-29_03h16.05.786,classification_task,2021.2.3,Win32,60.04924038,6133cb1f2abde9d84b0f8ebc,626b377229c10585ec392f8a,626b3bef4f48837dbde9ab4a,,,,,Do you have any form of color blindness?,,,0.7,0,Yes,43.5122,,,,,,,,,,,,,,,,,,,,,,,,,,,,,,,,,,,,,,,,,,,,,,,,,,,,,,,,,
,6133cb1f2abde9d84b0f8ebc,001,2022-04-29_03h16.05.786,classification_task,2021.2.3,Win32,60.04924038,6133cb1f2abde9d84b0f8ebc,626b377229c10585ec392f8a,626b3bef4f48837dbde9ab4a,,,,,Do you use software to change the colour temperature of your screen (e.g. f.lux)?,,,0.7,0,No,47.2917,,,,,,,,,,,,,,,,,,,,,,,,,,,,,,,,,,,,,,,,,,,,,,,,,,,,,,,,,
,6133cb1f2abde9d84b0f8ebc,001,2022-04-29_03h16.05.786,classification_task,2021.2.3,Win32,60.04924038,6133cb1f2abde9d84b0f8ebc,626b377229c10585ec392f8a,626b3bef4f48837dbde9ab4a,,,,,,,,,,,,space,59.956,space,10.7141,0,0,0,0,1,,,,,,,,,,,,,,,,,,,,,,,,,,,,,,,,,,,,,,,,,,,,,,,,
,6133cb1f2abde9d84b0f8ebc,001,2022-04-29_03h16.05.786,classification_task,2021.2.3,Win32,60.04924038,6133cb1f2abde9d84b0f8ebc,626b377229c10585ec392f8a,626b3bef4f48837dbde9ab4a,,,,,,,,,,,,,,space,16.6717,1,0,1,0,1,,,,,,,,,,,,,,,,,,,,,,,,,,,,,,,,,,,,,,,,,,,,,,,,
,6133cb1f2abde9d84b0f8ebc,001,2022-04-29_03h16.05.786,classification_task,2021.2.3,Win32,60.04924038,6133cb1f2abde9d84b0f8ebc,626b377229c10585ec392f8a,626b3bef4f48837dbde9ab4a,,,,,,,,,,,,,,space,29.5851,2,0,2,0,1,,,,,,,,,,,,,,,,,,,,,,,,,,,,,,,,,,,,,,,,,,,,,,,,
,6133cb1f2abde9d84b0f8ebc,001,2022-04-29_03h16.05.786,classification_task,2021.2.3,Win32,60.04924038,6133cb1f2abde9d84b0f8ebc,626b377229c10585ec392f8a,626b3bef4f48837dbde9ab4a,,,,,,,,,,,,,,space,18.9234,3,0,3,0,1,,,,,,,,,,,,,,,,,,,,,,,,,,,,,,,,,,,,,,,,,,,,,,,,
,6133cb1f2abde9d84b0f8ebc,001,2022-04-29_03h16.05.786,classification_task,2021.2.3,Win32,60.04924038,6133cb1f2abde9d84b0f8ebc,626b377229c10585ec392f8a,626b3bef4f48837dbde9ab4a,,,,,,,,,,,,,,space,145.9818,4,0,4,0,1,,,,,,,,,,,,,,,,,,,,,,,,,,,,,,,,,,,,,,,,,,,,,,,,
,6133cb1f2abde9d84b0f8ebc,001,2022-04-29_03h16.05.786,classification_task,2021.2.3,Win32,60.04924038,6133cb1f2abde9d84b0f8ebc,626b377229c10585ec392f8a,626b3bef4f48837dbde9ab4a,,,,,,,,,,,,,,,,,,,,,space,30.9178,a,1,9.2604,"[""0.235"",""0.348"",""0.919"",""0.957""]","[0,1,1,1]",0,0,0,0,1,0,1,,,1,FALSE,,,,,,,,,,,,,,,,,,,,,,,,,,,,,,
,6133cb1f2abde9d84b0f8ebc,001,2022-04-29_03h16.05.786,classification_task,2021.2.3,Win32,60.04924038,6133cb1f2abde9d84b0f8ebc,626b377229c10585ec392f8a,626b3bef4f48837dbde9ab4a,,,,,,,,,,,,,,,,,,,,,,,,0,,"[""0.612"",""0.186"",""0.485"",""0.795""]","[0,1,1,1]",0,1,1,1,1,1,0,,,1,FALSE,,,,,,,,,,,,,,,,,,,,,,,,,,,,,,
,6133cb1f2abde9d84b0f8ebc,001,2022-04-29_03h16.05.786,classification_task,2021.2.3,Win32,60.04924038,6133cb1f2abde9d84b0f8ebc,626b377229c10585ec392f8a,626b3bef4f48837dbde9ab4a,,,,,,,,,,,,,,,,,,,,,,,l,0,9.0992,"[""0.269"",""0.552"",""0.220"",""0.876""]","[1,1,0,1]",0,2,2,2,1,0,0,,,1,FALSE,,,,,,,,,,,,,,,,,,,,,,,,,,,,,,
,6133cb1f2abde9d84b0f8ebc,001,2022-04-29_03h16.05.786,classification_task,2021.2.3,Win32,60.04924038,6133cb1f2abde9d84b0f8ebc,626b377229c10585ec392f8a,626b3bef4f48837dbde9ab4a,,,,,,,,,,,,,,,,,,,,,,,l,1,4.202,"[""0.139"",""0.186"",""0.612"",""0.795""]","[1,1,0,1]",0,3,3,3,1,1,0,,,1,FALSE,,,,,,,,,,,,,,,,,,,,,,,,,,,,,,
,6133cb1f2abde9d84b0f8ebc,001,2022-04-29_03h16.05.786,classification_task,2021.2.3,Win32,60.04924038,6133cb1f2abde9d84b0f8ebc,626b377229c10585ec392f8a,626b3bef4f48837dbde9ab4a,,,,,,,,,,,,,,,,,,,,,,,l,1,4.551,"[""0.089"",""0.401"",""0.665"",""0.051""]","[1,1,1,0]",0,4,4,4,1,1,1,,,1,FALSE,,,,,,,,,,,,,,,,,,,,,,,,,,,,,,
,6133cb1f2abde9d84b0f8ebc,001,2022-04-29_03h16.05.786,classification_task,2021.2.3,Win32,60.04924038,6133cb1f2abde9d84b0f8ebc,626b377229c10585ec392f8a,626b3bef4f48837dbde9ab4a,,,,,,,,,,,,,,,,,,,,,,,l,1,3.8782,"[""0.139"",""0.186"",""0.485"",""0.612""]","[1,1,1,0]",0,5,5,5,1,1,0,,,1,FALSE,,,,,,,,,,,,,,,,,,,,,,,,,,,,,,
,6133cb1f2abde9d84b0f8ebc,001,2022-04-29_03h16.05.786,classification_task,2021.2.3,Win32,60.04924038,6133cb1f2abde9d84b0f8ebc,626b377229c10585ec392f8a,626b3bef4f48837dbde9ab4a,,,,,,,,,,,,,,,,,,,,,,,l,1,4.1168,"[""0.139"",""0.231"",""0.485"",""0.795""]","[1,0,1,1]",0,6,6,6,1,1,0,,,1,FALSE,,,,,,,,,,,,,,,,,,,,,,,,,,,,,,
,6133cb1f2abde9d84b0f8ebc,001,2022-04-29_03h16.05.786,classification_task,2021.2.3,Win32,60.04924038,6133cb1f2abde9d84b0f8ebc,626b377229c10585ec392f8a,626b3bef4f48837dbde9ab4a,,,,,,,,,,,,,,,,,,,,,,,a,1,3.458,"[""0.269"",""0.552"",""0.717"",""0.439""]","[1,1,1,0]",0,7,7,7,1,0,0,,,1,FALSE,,,,,,,,,,,,,,,,,,,,,,,,,,,,,,
,6133cb1f2abde9d84b0f8ebc,001,2022-04-29_03h16.05.786,classification_task,2021.2.3,Win32,60.04924038,6133cb1f2abde9d84b0f8ebc,626b377229c10585ec392f8a,626b3bef4f48837dbde9ab4a,,,,,,,,,,,,,,,,,,,,,,,a,1,5.5486,"[""0.309"",""0.612"",""0.919"",""0.957""]","[1,0,1,1]",0,8,8,8,1,0,1,,,1,FALSE,,,,,,,,,,,,,,,,,,,,,,,,,,,,,,
,6133cb1f2abde9d84b0f8ebc,001,2022-04-29_03h16.05.786,classification_task,2021.2.3,Win32,60.04924038,6133cb1f2abde9d84b0f8ebc,626b377229c10585ec392f8a,626b3bef4f48837dbde9ab4a,,,,,,,,,,,,,,,,,,,,,,,l,0,4.5443,"[""0.269"",""0.231"",""0.717"",""0.876""]","[1,0,1,1]",0,9,9,9,1,0,0,,,1,FALSE,,,,,,,,,,,,,,,,,,,,,,,,,,,,,,
,6133cb1f2abde9d84b0f8ebc,001,2022-04-29_03h16.05.786,classification_task,2021.2.3,Win32,60.04924038,6133cb1f2abde9d84b0f8ebc,626b377229c10585ec392f8a,626b3bef4f48837dbde9ab4a,,,,,,,,,,,,,,,,,,,,,,,l,1,6.393,"[""0.089"",""0.401"",""0.617"",""0.834""]","[1,1,0,1]",0,10,10,10,1,1,1,,,1,FALSE,,,,,,,,,,,,,,,,,,,,,,,,,,,,,,
,6133cb1f2abde9d84b0f8ebc,001,2022-04-29_03h16.05.786,classification_task,2021.2.3,Win32,60.04924038,6133cb1f2abde9d84b0f8ebc,626b377229c10585ec392f8a,626b3bef4f48837dbde9ab4a,,,,,,,,,,,,,,,,,,,,,,,l,1,6.3371,"[""0.089"",""0.051"",""0.665"",""0.834""]","[1,0,1,1]",0,11,11,11,1,1,1,,,1,FALSE,,,,,,,,,,,,,,,,,,,,,,,,,,,,,,
,6133cb1f2abde9d84b0f8ebc,001,2022-04-29_03h16.05.786,classification_task,2021.2.3,Win32,60.04924038,6133cb1f2abde9d84b0f8ebc,626b377229c10585ec392f8a,626b3bef4f48837dbde9ab4a,,,,,,,,,,,,,,,,,,,,,,,l,0,5.5512,"[""0.309"",""0.348"",""0.032"",""0.957""]","[1,1,0,1]",0,12,12,12,1,0,1,,,1,FALSE,,,,,,,,,,,,,,,,,,,,,,,,,,,,,,
,6133cb1f2abde9d84b0f8ebc,001,2022-04-29_03h16.05.786,classification_task,2021.2.3,Win32,60.04924038,6133cb1f2abde9d84b0f8ebc,626b377229c10585ec392f8a,626b3bef4f48837dbde9ab4a,,,,,,,,,,,,,,,,,,,,,,,l,1,6.5657,"[""0.220"",""0.401"",""0.665"",""0.834""]","[0,1,1,1]",0,13,13,13,1,1,1,,,1,FALSE,,,,,,,,,,,,,,,,,,,,,,,,,,,,,,
,6133cb1f2abde9d84b0f8ebc,001,2022-04-29_03h16.05.786,classification_task,2021.2.3,Win32,60.04924038,6133cb1f2abde9d84b0f8ebc,626b377229c10585ec392f8a,626b3bef4f48837dbde9ab4a,,,,,,,,,,,,,,,,,,,,,,,a,1,7.8434,"[""0.617"",""0.552"",""0.717"",""0.876""]","[0,1,1,1]",0,14,14,14,1,0,0,,,1,FALSE,,,,,,,,,,,,,,,,,,,,,,,,,,,,,,
,6133cb1f2abde9d84b0f8ebc,001,2022-04-29_03h16.05.786,classification_task,2021.2.3,Win32,60.04924038,6133cb1f2abde9d84b0f8ebc,626b377229c10585ec392f8a,626b3bef4f48837dbde9ab4a,,,,,,,,,,,,,,,,,,,,,,,a,1,6.8862,"[""0.309"",""0.348"",""0.919"",""0.220""]","[1,1,1,0]",0,15,15,15,1,0,1,,,1,FALSE,,,,,,,,,,,,,,,,,,,,,,,,,,,,,,
,6133cb1f2abde9d84b0f8ebc,001,2022-04-29_03h16.05.786,classification_task,2021.2.3,Win32,60.04924038,6133cb1f2abde9d84b0f8ebc,626b377229c10585ec392f8a,626b3bef4f48837dbde9ab4a,,,,,,,,,,,,,,,,,,,,,,,a,1,8.366,"[""0.309"",""0.348"",""0.220"",""0.957""]","[1,1,0,1]",0,16,16,16,1,0,1,,,1,FALSE,,,,,,,,,,,,,,,,,,,,,,,,,,,,,,
,6133cb1f2abde9d84b0f8ebc,001,2022-04-29_03h16.05.786,classification_task,2021.2.3,Win32,60.04924038,6133cb1f2abde9d84b0f8ebc,626b377229c10585ec392f8a,626b3bef4f48837dbde9ab4a,,,,,,,,,,,,,,,,,,,,,,,a,1,5.9897,"[""0.269"",""0.435"",""0.717"",""0.876""]","[1,0,1,1]",0,17,17,17,1,0,0,,,1,FALSE,,,,,,,,,,,,,,,,,,,,,,,,,,,,,,
,6133cb1f2abde9d84b0f8ebc,001,2022-04-29_03h16.05.786,classification_task,2021.2.3,Win32,60.04924038,6133cb1f2abde9d84b0f8ebc,626b377229c10585ec392f8a,626b3bef4f48837dbde9ab4a,,,,,,,,,,,,,,,,,,,,,,,l,0,6.201,"[""0.309"",""0.348"",""0.919"",""0.050""]","[1,1,1,0]",0,18,18,18,1,0,1,,,1,FALSE,,,,,,,,,,,,,,,,,,,,,,,,,,,,,,
,6133cb1f2abde9d84b0f8ebc,001,2022-04-29_03h16.05.786,classification_task,2021.2.3,Win32,60.04924038,6133cb1f2abde9d84b0f8ebc,626b377229c10585ec392f8a,626b3bef4f48837dbde9ab4a,,,,,,,,,,,,,,,,,,,,,,,l,1,5.2449,"[""0.440"",""0.186"",""0.485"",""0.795""]","[0,1,1,1]",0,19,19,19,1,1,0,,,1,FALSE,,,,,,,,,,,,,,,,,,,,,,,,,,,,,,
,6133cb1f2abde9d84b0f8ebc,001,2022-04-29_03h16.05.786,classification_task,2021.2.3,Win32,60.04924038,6133cb1f2abde9d84b0f8ebc,626b377229c10585ec392f8a,626b3bef4f48837dbde9ab4a,,,,,,,,,,,,,,,,,,,,,,,a,1,4.8713,"[""0.269"",""0.552"",""0.439"",""0.876""]","[1,1,0,1]",0,20,20,20,1,0,0,,,1,FALSE,,,,,,,,,,,,,,,,,,,,,,,,,,,,,,
,6133cb1f2abde9d84b0f8ebc,001,2022-04-29_03h16.05.786,classification_task,2021.2.3,Win32,60.04924038,6133cb1f2abde9d84b0f8ebc,626b377229c10585ec392f8a,626b3bef4f48837dbde9ab4a,,,,,,,,,,,,,,,,,,,,,,,a,1,9.1972,"[""0.269"",""0.552"",""0.717"",""0.231""]","[1,1,1,0]",0,21,21,21,1,0,0,,,1,FALSE,,,,,,,,,,,,,,,,,,,,,,,,,,,,,,
,6133cb1f2abde9d84b0f8ebc,001,2022-04-29_03h16.05.786,classification_task,2021.2.3,Win32,60.04924038,6133cb1f2abde9d84b0f8ebc,626b377229c10585ec392f8a,626b3bef4f48837dbde9ab4a,,,,,,,,,,,,,,,,,,,,,,,l,1,7.4748,"[""0.139"",""0.186"",""0.485"",""0.041""]","[1,1,1,0]",0,22,22,22,1,1,0,,,1,FALSE,,,,,,,,,,,,,,,,,,,,,,,,,,,,,,
,6133cb1f2abde9d84b0f8ebc,001,2022-04-29_03h16.05.786,classification_task,2021.2.3,Win32,60.04924038,6133cb1f2abde9d84b0f8ebc,626b377229c10585ec392f8a,626b3bef4f48837dbde9ab4a,,,,,,,,,,,,,,,,,,,,,,,l,1,5.7177,"[""0.139"",""0.041"",""0.485"",""0.795""]","[1,0,1,1]",0,23,23,23,1,1,0,,,1,FALSE,,,,,,,,,,,,,,,,,,,,,,,,,,,,,,
,6133cb1f2abde9d84b0f8ebc,001,2022-04-29_03h16.05.786,classification_task,2021.2.3,Win32,60.04924038,6133cb1f2abde9d84b0f8ebc,626b377229c10585ec392f8a,626b3bef4f48837dbde9ab4a,,,,,,,,,,,,,,,,,,,,,,,l,1,6.5688,"[""0.435"",""0.401"",""0.665"",""0.834""]","[0,1,1,1]",0,24,24,24,1,1,1,,,1,FALSE,,,,,,,,,,,,,,,,,,,,,,,,,,,,,,
,6133cb1f2abde9d84b0f8ebc,001,2022-04-29_03h16.05.786,classification_task,2021.2.3,Win32,60.04924038,6133cb1f2abde9d84b0f8ebc,626b377229c10585ec392f8a,626b3bef4f48837dbde9ab4a,,,,,,,,,,,,,,,,,,,,,,,l,1,4.5951,"[""0.089"",""0.050"",""0.665"",""0.834""]","[1,0,1,1]",0,25,25,25,1,1,1,,,1,FALSE,,,,,,,,,,,,,,,,,,,,,,,,,,,,,,
,6133cb1f2abde9d84b0f8ebc,001,2022-04-29_03h16.05.786,classification_task,2021.2.3,Win32,60.04924038,6133cb1f2abde9d84b0f8ebc,626b377229c10585ec392f8a,626b3bef4f48837dbde9ab4a,,,,,,,,,,,,,,,,,,,,,,,l,1,5.2421,"[""0.139"",""0.186"",""0.612"",""0.795""]","[1,1,0,1]",0,26,26,26,1,1,0,,,1,FALSE,,,,,,,,,,,,,,,,,,,,,,,,,,,,,,
,6133cb1f2abde9d84b0f8ebc,001,2022-04-29_03h16.05.786,classification_task,2021.2.3,Win32,60.04924038,6133cb1f2abde9d84b0f8ebc,626b377229c10585ec392f8a,626b3bef4f48837dbde9ab4a,,,,,,,,,,,,,,,,,,,,,,,l,0,7.2671,"[""0.443"",""0.348"",""0.919"",""0.957""]","[0,1,1,1]",0,27,27,27,1,0,1,,,1,FALSE,,,,,,,,,,,,,,,,,,,,,,,,,,,,,,
,6133cb1f2abde9d84b0f8ebc,001,2022-04-29_03h16.05.786,classification_task,2021.2.3,Win32,60.04924038,6133cb1f2abde9d84b0f8ebc,626b377229c10585ec392f8a,626b3bef4f48837dbde9ab4a,,,,,,,,,,,,,,,,,,,,,,,a,1,5.2892,"[""0.309"",""0.435"",""0.919"",""0.957""]","[1,0,1,1]",0,28,28,28,1,0,1,,,1,FALSE,,,,,,,,,,,,,,,,,,,,,,,,,,,,,,
,6133cb1f2abde9d84b0f8ebc,001,2022-04-29_03h16.05.786,classification_task,2021.2.3,Win32,60.04924038,6133cb1f2abde9d84b0f8ebc,626b377229c10585ec392f8a,626b3bef4f48837dbde9ab4a,,,,,,,,,,,,,,,,,,,,,,,l,1,7.2211,"[""0.089"",""0.401"",""0.665"",""0.628""]","[1,1,1,0]",0,29,29,29,1,1,1,,,1,FALSE,,,,,,,,,,,,,,,,,,,,,,,,,,,,,,
,6133cb1f2abde9d84b0f8ebc,001,2022-04-29_03h16.05.786,classification_task,2021.2.3,Win32,60.04924038,6133cb1f2abde9d84b0f8ebc,626b377229c10585ec392f8a,626b3bef4f48837dbde9ab4a,,,,,,,,,,,,,,,,,,,,,,,l,0,8.8871,"[""0.435"",""0.552"",""0.717"",""0.876""]","[0,1,1,1]",0,30,30,30,1,0,0,,,1,FALSE,,,,,,,,,,,,,,,,,,,,,,,,,,,,,,
,6133cb1f2abde9d84b0f8ebc,001,2022-04-29_03h16.05.786,classification_task,2021.2.3,Win32,60.04924038,6133cb1f2abde9d84b0f8ebc,626b377229c10585ec392f8a,626b3bef4f48837dbde9ab4a,,,,,,,,,,,,,,,,,,,,,,,l,1,8.2488,"[""0.089"",""0.401"",""0.628"",""0.834""]","[1,1,0,1]",0,31,31,31,1,1,1,,,1,FALSE,,,,,,,,,,,,,,,,,,,,,,,,,,,,,,
,6133cb1f2abde9d84b0f8ebc,001,2022-04-29_03h16.05.786,classification_task,2021.2.3,Win32,60.04924038,6133cb1f2abde9d84b0f8ebc,626b377229c10585ec392f8a,626b3bef4f48837dbde9ab4a,,,,,,,,,,,,,,,,,,,,,,,l,0,7.5401,"[""0.309"",""0.055"",""0.919"",""0.957""]","[1,0,1,1]",0,32,32,32,1,0,1,,,1,FALSE,,,,,,,,,,,,,,,,,,,,,,,,,,,,,,
,6133cb1f2abde9d84b0f8ebc,001,2022-04-29_03h16.05.786,classification_task,2021.2.3,Win32,60.04924038,6133cb1f2abde9d84b0f8ebc,626b377229c10585ec392f8a,626b3bef4f48837dbde9ab4a,,,,,,,,,,,,,,,,,,,,,,,l,1,2.7012,"[""0.089"",""0.401"",""0.665"",""0.055""]","[1,1,1,0]",0,33,33,33,1,1,1,,,1,FALSE,,,,,,,,,,,,,,,,,,,,,,,,,,,,,,
,6133cb1f2abde9d84b0f8ebc,001,2022-04-29_03h16.05.786,classification_task,2021.2.3,Win32,60.04924038,6133cb1f2abde9d84b0f8ebc,626b377229c10585ec392f8a,626b3bef4f48837dbde9ab4a,,,,,,,,,,,,,,,,,,,,,,,l,0,4.9424,"[""0.269"",""0.552"",""0.051"",""0.876""]","[1,1,0,1]",0,34,34,34,1,0,0,,,1,FALSE,,,,,,,,,,,,,,,,,,,,,,,,,,,,,,
,6133cb1f2abde9d84b0f8ebc,001,2022-04-29_03h16.05.786,classification_task,2021.2.3,Win32,60.04924038,6133cb1f2abde9d84b0f8ebc,626b377229c10585ec392f8a,626b3bef4f48837dbde9ab4a,,,,,,,,,,,,,,,,,,,,,,,l,0,1.6949,"[""0.269"",""0.443"",""0.717"",""0.876""]","[1,0,1,1]",0,35,35,35,1,0,0,,,1,FALSE,,,,,,,,,,,,,,,,,,,,,,,,,,,,,,
,6133cb1f2abde9d84b0f8ebc,001,2022-04-29_03h16.05.786,classification_task,2021.2.3,Win32,60.04924038,6133cb1f2abde9d84b0f8ebc,626b377229c10585ec392f8a,626b3bef4f48837dbde9ab4a,,,,,,,,,,,,,,,,,,,,,,,a,1,4.1756,"[""0.309"",""0.348"",""0.919"",""0.439""]","[1,1,1,0]",0,36,36,36,1,0,1,,,1,FALSE,,,,,,,,,,,,,,,,,,,,,,,,,,,,,,
,6133cb1f2abde9d84b0f8ebc,001,2022-04-29_03h16.05.786,classification_task,2021.2.3,Win32,60.04924038,6133cb1f2abde9d84b0f8ebc,626b377229c10585ec392f8a,626b3bef4f48837dbde9ab4a,,,,,,,,,,,,,,,,,,,,,,,l,1,2.1242,"[""0.139"",""0.186"",""0.485"",""0.220""]","[1,1,1,0]",0,37,37,37,1,1,0,,,1,FALSE,,,,,,,,,,,,,,,,,,,,,,,,,,,,,,
,6133cb1f2abde9d84b0f8ebc,001,2022-04-29_03h16.05.786,classification_task,2021.2.3,Win32,60.04924038,6133cb1f2abde9d84b0f8ebc,626b377229c10585ec392f8a,626b3bef4f48837dbde9ab4a,,,,,,,,,,,,,,,,,,,,,,,l,1,3.3085,"[""0.089"",""0.440"",""0.665"",""0.834""]","[1,0,1,1]",0,38,38,38,1,1,1,,,1,FALSE,,,,,,,,,,,,,,,,,,,,,,,,,,,,,,
,6133cb1f2abde9d84b0f8ebc,001,2022-04-29_03h16.05.786,classification_task,2021.2.3,Win32,60.04924038,6133cb1f2abde9d84b0f8ebc,626b377229c10585ec392f8a,626b3bef4f48837dbde9ab4a,,,,,,,,,,,,,,,,,,,,,,,a,1,2.2431,"[""0.439"",""0.348"",""0.919"",""0.957""]","[0,1,1,1]",0,39,39,39,1,0,1,,,1,FALSE,,,,,,,,,,,,,,,,,,,,,,,,,,,,,,
,6133cb1f2abde9d84b0f8ebc,001,2022-04-29_03h16.05.786,classification_task,2021.2.3,Win32,60.04924038,6133cb1f2abde9d84b0f8ebc,626b377229c10585ec392f8a,626b3bef4f48837dbde9ab4a,,,,,,,,,,,,,,,,,,,,,,,a,0,5.055,"[""0.139"",""0.186"",""0.435"",""0.795""]","[1,1,0,1]",0,40,40,40,1,1,0,,,1,FALSE,,,,,,,,,,,,,,,,,,,,,,,,,,,,,,
,6133cb1f2abde9d84b0f8ebc,001,2022-04-29_03h16.05.786,classification_task,2021.2.3,Win32,60.04924038,6133cb1f2abde9d84b0f8ebc,626b377229c10585ec392f8a,626b3bef4f48837dbde9ab4a,,,,,,,,,,,,,,,,,,,,,,,l,1,2.8714,"[""0.139"",""0.443"",""0.485"",""0.795""]","[1,0,1,1]",0,41,41,41,1,1,0,,,1,FALSE,,,,,,,,,,,,,,,,,,,,,,,,,,,,,,
,6133cb1f2abde9d84b0f8ebc,001,2022-04-29_03h16.05.786,classification_task,2021.2.3,Win32,60.04924038,6133cb1f2abde9d84b0f8ebc,626b377229c10585ec392f8a,626b3bef4f48837dbde9ab4a,,,,,,,,,,,,,,,,,,,,,,,l,1,3.7609,"[""0.051"",""0.401"",""0.665"",""0.834""]","[0,1,1,1]",0,42,42,42,1,1,1,,,1,FALSE,,,,,,,,,,,,,,,,,,,,,,,,,,,,,,
,6133cb1f2abde9d84b0f8ebc,001,2022-04-29_03h16.05.786,classification_task,2021.2.3,Win32,60.04924038,6133cb1f2abde9d84b0f8ebc,626b377229c10585ec392f8a,626b3bef4f48837dbde9ab4a,,,,,,,,,,,,,,,,,,,,,,,a,1,2.2643,"[""0.309"",""0.348"",""0.443"",""0.957""]","[1,1,0,1]",0,43,43,43,1,0,1,,,1,FALSE,,,,,,,,,,,,,,,,,,,,,,,,,,,,,,
,6133cb1f2abde9d84b0f8ebc,001,2022-04-29_03h16.05.786,classification_task,2021.2.3,Win32,60.04924038,6133cb1f2abde9d84b0f8ebc,626b377229c10585ec392f8a,626b3bef4f48837dbde9ab4a,,,,,,,,,,,,,,,,,,,,,,,l,0,3.0255,"[""0.231"",""0.552"",""0.717"",""0.876""]","[0,1,1,1]",0,44,44,44,1,0,0,,,1,FALSE,,,,,,,,,,,,,,,,,,,,,,,,,,,,,,
,6133cb1f2abde9d84b0f8ebc,001,2022-04-29_03h16.05.786,classification_task,2021.2.3,Win32,60.04924038,6133cb1f2abde9d84b0f8ebc,626b377229c10585ec392f8a,626b3bef4f48837dbde9ab4a,,,,,,,,,,,,,,,,,,,,,,,a,0,3.4592,"[""0.089"",""0.401"",""0.050"",""0.834""]","[1,1,0,1]",0,45,45,45,1,1,1,,,1,FALSE,,,,,,,,,,,,,,,,,,,,,,,,,,,,,,
,6133cb1f2abde9d84b0f8ebc,001,2022-04-29_03h16.05.786,classification_task,2021.2.3,Win32,60.04924038,6133cb1f2abde9d84b0f8ebc,626b377229c10585ec392f8a,626b3bef4f48837dbde9ab4a,,,,,,,,,,,,,,,,,,,,,,,a,1,3.8207,"[""0.269"",""0.552"",""0.717"",""0.628""]","[1,1,1,0]",0,46,46,46,1,0,0,,,1,FALSE,,,,,,,,,,,,,,,,,,,,,,,,,,,,,,
,6133cb1f2abde9d84b0f8ebc,001,2022-04-29_03h16.05.786,classification_task,2021.2.3,Win32,60.04924038,6133cb1f2abde9d84b0f8ebc,626b377229c10585ec392f8a,626b3bef4f48837dbde9ab4a,,,,,,,,,,,,,,,,,,,,,,,a,0,4.0418,"[""0.051"",""0.186"",""0.485"",""0.795""]","[0,1,1,1]",0,47,47,47,1,1,0,,,1,FALSE,,,,,,,,,,,,,,,,,,,,,,,,,,,,,,
,6133cb1f2abde9d84b0f8ebc,001,2022-04-29_03h16.05.786,classification_task,2021.2.3,Win32,60.04924038,6133cb1f2abde9d84b0f8ebc,626b377229c10585ec392f8a,626b3bef4f48837dbde9ab4a,,,,,,,,,,,,,,,,,,,,,,,l,0,1.4686,"[""0.269"",""0.552"",""0.717"",""0.050""]","[1,1,1,0]",0,48,48,48,1,0,0,,,1,FALSE,,,,,,,,,,,,,,,,,,,,,,,,,,,,,,
,6133cb1f2abde9d84b0f8ebc,001,2022-04-29_03h16.05.786,classification_task,2021.2.3,Win32,60.04924038,6133cb1f2abde9d84b0f8ebc,626b377229c10585ec392f8a,626b3bef4f48837dbde9ab4a,,,,,,,,,,,,,,,,,,,,,,,l,1,3.0446,"[""0.089"",""0.401"",""0.041"",""0.834""]","[1,1,0,1]",0,49,49,49,1,1,1,,,1,FALSE,,,,,,,,,,,,,,,,,,,,,,,,,,,,,,
,6133cb1f2abde9d84b0f8ebc,001,2022-04-29_03h16.05.786,classification_task,2021.2.3,Win32,60.04924038,6133cb1f2abde9d84b0f8ebc,626b377229c10585ec392f8a,626b3bef4f48837dbde9ab4a,,,,,,,,,,,,,,,,,,,,,,,a,0,5.1202,"[""0.220"",""0.186"",""0.485"",""0.795""]","[0,1,1,1]",0,50,50,50,1,1,0,,,1,FALSE,,,,,,,,,,,,,,,,,,,,,,,,,,,,,,
,6133cb1f2abde9d84b0f8ebc,001,2022-04-29_03h16.05.786,classification_task,2021.2.3,Win32,60.04924038,6133cb1f2abde9d84b0f8ebc,626b377229c10585ec392f8a,626b3bef4f48837dbde9ab4a,,,,,,,,,,,,,,,,,,,,,,,l,1,2.1128,"[""0.139"",""0.220"",""0.485"",""0.795""]","[1,0,1,1]",0,51,51,51,1,1,0,,,1,FALSE,,,,,,,,,,,,,,,,,,,,,,,,,,,,,,
,6133cb1f2abde9d84b0f8ebc,001,2022-04-29_03h16.05.786,classification_task,2021.2.3,Win32,60.04924038,6133cb1f2abde9d84b0f8ebc,626b377229c10585ec392f8a,626b3bef4f48837dbde9ab4a,,,,,,,,,,,,,,,,,,,,,,,a,1,3.3664,"[""0.235"",""0.552"",""0.717"",""0.876""]","[0,1,1,1]",0,52,52,52,1,0,0,,,1,FALSE,,,,,,,,,,,,,,,,,,,,,,,,,,,,,,
,6133cb1f2abde9d84b0f8ebc,001,2022-04-29_03h16.05.786,classification_task,2021.2.3,Win32,60.04924038,6133cb1f2abde9d84b0f8ebc,626b377229c10585ec392f8a,626b3bef4f48837dbde9ab4a,,,,,,,,,,,,,,,,,,,,,,,l,0,3.3895,"[""0.617"",""0.348"",""0.919"",""0.957""]","[0,1,1,1]",0,53,53,53,1,0,1,,,1,FALSE,,,,,,,,,,,,,,,,,,,,,,,,,,,,,,
,6133cb1f2abde9d84b0f8ebc,001,2022-04-29_03h16.05.786,classification_task,2021.2.3,Win32,60.04924038,6133cb1f2abde9d84b0f8ebc,626b377229c10585ec392f8a,626b3bef4f48837dbde9ab4a,,,,,,,,,,,,,,,,,,,,,,,l,0,2.638,"[""0.269"",""0.552"",""0.617"",""0.876""]","[1,1,0,1]",0,54,54,54,1,0,0,,,1,FALSE,,,,,,,,,,,,,,,,,,,,,,,,,,,,,,
,6133cb1f2abde9d84b0f8ebc,001,2022-04-29_03h16.05.786,classification_task,2021.2.3,Win32,60.04924038,6133cb1f2abde9d84b0f8ebc,626b377229c10585ec392f8a,626b3bef4f48837dbde9ab4a,,,,,,,,,,,,,,,,,,,,,,,l,0,2.865,"[""0.309"",""0.612"",""0.919"",""0.957""]","[1,0,1,1]",0,55,55,55,1,0,1,,,1,FALSE,,,,,,,,,,,,,,,,,,,,,,,,,,,,,,
,6133cb1f2abde9d84b0f8ebc,001,2022-04-29_03h16.05.786,classification_task,2021.2.3,Win32,60.04924038,6133cb1f2abde9d84b0f8ebc,626b377229c10585ec392f8a,626b3bef4f48837dbde9ab4a,,,,,,,,,,,,,,,,,,,,,,,l,1,2.4504,"[""0.139"",""0.186"",""0.435"",""0.795""]","[1,1,0,1]",0,56,56,56,1,1,0,,,1,FALSE,,,,,,,,,,,,,,,,,,,,,,,,,,,,,,
,6133cb1f2abde9d84b0f8ebc,001,2022-04-29_03h16.05.786,classification_task,2021.2.3,Win32,60.04924038,6133cb1f2abde9d84b0f8ebc,626b377229c10585ec392f8a,626b3bef4f48837dbde9ab4a,,,,,,,,,,,,,,,,,,,,,,,l,1,5.5463,"[""0.051"",""0.401"",""0.665"",""0.834""]","[0,1,1,1]",0,57,57,57,1,1,1,,,1,FALSE,,,,,,,,,,,,,,,,,,,,,,,,,,,,,,
,6133cb1f2abde9d84b0f8ebc,001,2022-04-29_03h16.05.786,classification_task,2021.2.3,Win32,60.04924038,6133cb1f2abde9d84b0f8ebc,626b377229c10585ec392f8a,626b3bef4f48837dbde9ab4a,,,,,,,,,,,,,,,,,,,,,,,l,0,2.5834,"[""0.269"",""0.051"",""0.717"",""0.876""]","[1,0,1,1]",0,58,58,58,1,0,0,,,1,FALSE,,,,,,,,,,,,,,,,,,,,,,,,,,,,,,
,6133cb1f2abde9d84b0f8ebc,001,2022-04-29_03h16.05.786,classification_task,2021.2.3,Win32,60.04924038,6133cb1f2abde9d84b0f8ebc,626b377229c10585ec392f8a,626b3bef4f48837dbde9ab4a,,,,,,,,,,,,,,,,,,,,,,,a,0,3.1307,"[""0.089"",""0.401"",""0.665"",""0.220""]","[1,1,1,0]",0,59,59,59,1,1,1,,,1,FALSE,,,,,,,,,,,,,,,,,,,,,,,,,,,,,,
,6133cb1f2abde9d84b0f8ebc,001,2022-04-29_03h16.05.786,classification_task,2021.2.3,Win32,60.04924038,6133cb1f2abde9d84b0f8ebc,626b377229c10585ec392f8a,626b3bef4f48837dbde9ab4a,,,,,,,,,,,,,,,,,,,,,,,l,0,3.6657,"[""0.309"",""0.348"",""0.617"",""0.957""]","[1,1,0,1]",0,60,60,60,1,0,1,,,1,FALSE,,,,,,,,,,,,,,,,,,,,,,,,,,,,,,
,6133cb1f2abde9d84b0f8ebc,001,2022-04-29_03h16.05.786,classification_task,2021.2.3,Win32,60.04924038,6133cb1f2abde9d84b0f8ebc,626b377229c10585ec392f8a,626b3bef4f48837dbde9ab4a,,,,,,,,,,,,,,,,,,,,,,,a,1,4.4699,"[""0.309"",""0.348"",""0.919"",""0.041""]","[1,1,1,0]",0,61,61,61,1,0,1,,,1,FALSE,,,,,,,,,,,,,,,,,,,,,,,,,,,,,,
,6133cb1f2abde9d84b0f8ebc,001,2022-04-29_03h16.05.786,classification_task,2021.2.3,Win32,60.04924038,6133cb1f2abde9d84b0f8ebc,626b377229c10585ec392f8a,626b3bef4f48837dbde9ab4a,,,,,,,,,,,,,,,,,,,,,,,l,1,4.5257,"[""0.089"",""0.032"",""0.665"",""0.834""]","[1,0,1,1]",0,62,62,62,1,1,1,,,1,FALSE,,,,,,,,,,,,,,,,,,,,,,,,,,,,,,
,6133cb1f2abde9d84b0f8ebc,001,2022-04-29_03h16.05.786,classification_task,2021.2.3,Win32,60.04924038,6133cb1f2abde9d84b0f8ebc,626b377229c10585ec392f8a,626b3bef4f48837dbde9ab4a,,,,,,,,,,,,,,,,,,,,,,,a,0,2.1337,"[""0.139"",""0.186"",""0.485"",""0.032""]","[1,1,1,0]",0,63,63,63,1,1,0,,,1,FALSE,,,,,,,,,,,,,,,,,,,,,,,,,,,,,,
,6133cb1f2abde9d84b0f8ebc,001,2022-04-29_03h16.05.786,classification_task,2021.2.3,Win32,60.04924038,6133cb1f2abde9d84b0f8ebc,626b377229c10585ec392f8a,626b3bef4f48837dbde9ab4a,,,,,,,,,,,,,,,,,,,,,,,,,,,,,,,,,,,,,,,0, ,,0,,,0,0,0,0,1,2,1,,,,,,,,,,,,,,,,,
,6133cb1f2abde9d84b0f8ebc,001,2022-04-29_03h16.05.786,classification_task,2021.2.3,Win32,60.04924038,6133cb1f2abde9d84b0f8ebc,626b377229c10585ec392f8a,626b3bef4f48837dbde9ab4a,,,,,,,,,,,,,,,,,,,,,,,,,,,,,,,,,,,,,,,1,  ,,0,,,0,0,0,0,1,2,1,,,,,,,,,,,,,,,,,
,6133cb1f2abde9d84b0f8ebc,001,2022-04-29_03h16.05.786,classification_task,2021.2.3,Win32,60.04924038,6133cb1f2abde9d84b0f8ebc,626b377229c10585ec392f8a,626b3bef4f48837dbde9ab4a,,,,,,,,,,,,,,,,,,,,,,,,,,,,,,,,,,,,,,,2,  ,,0,,,0,0,0,0,1,2,1,,,,,,,,,,,,,,,,,
,6133cb1f2abde9d84b0f8ebc,001,2022-04-29_03h16.05.786,classification_task,2021.2.3,Win32,60.04924038,6133cb1f2abde9d84b0f8ebc,626b377229c10585ec392f8a,626b3bef4f48837dbde9ab4a,,,,,,,,,,,,,,,,,,,,,,,,,,,,,,,,,,,,,,,,,,,,,0,0,0,0,1,,1,,,,,,,,,,,,,,,,,
,6133cb1f2abde9d84b0f8ebc,001,2022-04-29_03h16.05.786,classification_task,2021.2.3,Win32,60.04924038,6133cb1f2abde9d84b0f8ebc,626b377229c10585ec392f8a,626b3bef4f48837dbde9ab4a,,,,,,,,,,,,,,,,,,,,,space,37.5335,l,0,4.1362,"[""0.051"",""0.348"",""0.919"",""0.957""]","[0,1,1,1]",0,0,0,0,1,0,1,,,1,FALSE,,,,,,,,,,,,,,,,,,,,,,,,,,,,,,
,6133cb1f2abde9d84b0f8ebc,001,2022-04-29_03h16.05.786,classification_task,2021.2.3,Win32,60.04924038,6133cb1f2abde9d84b0f8ebc,626b377229c10585ec392f8a,626b3bef4f48837dbde9ab4a,,,,,,,,,,,,,,,,,,,,,,,l,0,1.7013,"[""0.269"",""0.440"",""0.717"",""0.876""]","[1,0,1,1]",0,1,1,1,1,0,0,,,1,FALSE,,,,,,,,,,,,,,,,,,,,,,,,,,,,,,
,6133cb1f2abde9d84b0f8ebc,001,2022-04-29_03h16.05.786,classification_task,2021.2.3,Win32,60.04924038,6133cb1f2abde9d84b0f8ebc,626b377229c10585ec392f8a,626b3bef4f48837dbde9ab4a,,,,,,,,,,,,,,,,,,,,,,,l,0,1.9381,"[""0.269"",""0.552"",""0.612"",""0.876""]","[1,1,0,1]",0,2,2,2,1,0,0,,,1,FALSE,,,,,,,,,,,,,,,,,,,,,,,,,,,,,,
,6133cb1f2abde9d84b0f8ebc,001,2022-04-29_03h16.05.786,classification_task,2021.2.3,Win32,60.04924038,6133cb1f2abde9d84b0f8ebc,626b377229c10585ec392f8a,626b3bef4f48837dbde9ab4a,,,,,,,,,,,,,,,,,,,,,,,a,0,3.1352,"[""0.089"",""0.032"",""0.665"",""0.834""]","[1,0,1,1]",0,3,3,3,1,1,1,,,1,FALSE,,,,,,,,,,,,,,,,,,,,,,,,,,,,,,
,6133cb1f2abde9d84b0f8ebc,001,2022-04-29_03h16.05.786,classification_task,2021.2.3,Win32,60.04924038,6133cb1f2abde9d84b0f8ebc,626b377229c10585ec392f8a,626b3bef4f48837dbde9ab4a,,,,,,,,,,,,,,,,,,,,,,,a,0,3.5622,"[""0.231"",""0.401"",""0.665"",""0.834""]","[0,1,1,1]",0,4,4,4,1,1,1,,,1,FALSE,,,,,,,,,,,,,,,,,,,,,,,,,,,,,,
,6133cb1f2abde9d84b0f8ebc,001,2022-04-29_03h16.05.786,classification_task,2021.2.3,Win32,60.04924038,6133cb1f2abde9d84b0f8ebc,626b377229c10585ec392f8a,626b3bef4f48837dbde9ab4a,,,,,,,,,,,,,,,,,,,,,,,a,0,1.5781,"[""0.089"",""0.401"",""0.665"",""0.231""]","[1,1,1,0]",0,5,5,5,1,1,1,,,1,FALSE,,,,,,,,,,,,,,,,,,,,,,,,,,,,,,
,6133cb1f2abde9d84b0f8ebc,001,2022-04-29_03h16.05.786,classification_task,2021.2.3,Win32,60.04924038,6133cb1f2abde9d84b0f8ebc,626b377229c10585ec392f8a,626b3bef4f48837dbde9ab4a,,,,,,,,,,,,,,,,,,,,,,,l,0,1.635,"[""0.309"",""0.348"",""0.235"",""0.957""]","[1,1,0,1]",0,6,6,6,1,0,1,,,1,FALSE,,,,,,,,,,,,,,,,,,,,,,,,,,,,,,
,6133cb1f2abde9d84b0f8ebc,001,2022-04-29_03h16.05.786,classification_task,2021.2.3,Win32,60.04924038,6133cb1f2abde9d84b0f8ebc,626b377229c10585ec392f8a,626b3bef4f48837dbde9ab4a,,,,,,,,,,,,,,,,,,,,,,,a,1,1.4743,"[""0.041"",""0.552"",""0.717"",""0.876""]","[0,1,1,1]",0,7,7,7,1,0,0,,,1,FALSE,,,,,,,,,,,,,,,,,,,,,,,,,,,,,,
,6133cb1f2abde9d84b0f8ebc,001,2022-04-29_03h16.05.786,classification_task,2021.2.3,Win32,60.04924038,6133cb1f2abde9d84b0f8ebc,626b377229c10585ec392f8a,626b3bef4f48837dbde9ab4a,,,,,,,,,,,,,,,,,,,,,,,l,1,3.6845,"[""0.139"",""0.186"",""0.485"",""0.612""]","[1,1,1,0]",0,8,8,8,1,1,0,,,1,FALSE,,,,,,,,,,,,,,,,,,,,,,,,,,,,,,
,6133cb1f2abde9d84b0f8ebc,001,2022-04-29_03h16.05.786,classification_task,2021.2.3,Win32,60.04924038,6133cb1f2abde9d84b0f8ebc,626b377229c10585ec392f8a,626b3bef4f48837dbde9ab4a,,,,,,,,,,,,,,,,,,,,,,,l,1,7.7574,"[""0.089"",""0.401"",""0.617"",""0.834""]","[1,1,0,1]",0,9,9,9,1,1,1,,,1,FALSE,,,,,,,,,,,,,,,,,,,,,,,,,,,,,,
,6133cb1f2abde9d84b0f8ebc,001,2022-04-29_03h16.05.786,classification_task,2021.2.3,Win32,60.04924038,6133cb1f2abde9d84b0f8ebc,626b377229c10585ec392f8a,626b3bef4f48837dbde9ab4a,,,,,,,,,,,,,,,,,,,,,,,a,1,4.4988,"[""0.309"",""0.055"",""0.919"",""0.957""]","[1,0,1,1]",0,10,10,10,1,0,1,,,1,FALSE,,,,,,,,,,,,,,,,,,,,,,,,,,,,,,
,6133cb1f2abde9d84b0f8ebc,001,2022-04-29_03h16.05.786,classification_task,2021.2.3,Win32,60.04924038,6133cb1f2abde9d84b0f8ebc,626b377229c10585ec392f8a,626b3bef4f48837dbde9ab4a,,,,,,,,,,,,,,,,,,,,,,,a,1,4.0934,"[""0.269"",""0.552"",""0.717"",""0.041""]","[1,1,1,0]",0,11,11,11,1,0,0,,,1,FALSE,,,,,,,,,,,,,,,,,,,,,,,,,,,,,,
,6133cb1f2abde9d84b0f8ebc,001,2022-04-29_03h16.05.786,classification_task,2021.2.3,Win32,60.04924038,6133cb1f2abde9d84b0f8ebc,626b377229c10585ec392f8a,626b3bef4f48837dbde9ab4a,,,,,,,,,,,,,,,,,,,,,,,a,0,2.858,"[""0.139"",""0.041"",""0.485"",""0.795""]","[1,0,1,1]",0,12,12,12,1,1,0,,,1,FALSE,,,,,,,,,,,,,,,,,,,,,,,,,,,,,,
,6133cb1f2abde9d84b0f8ebc,001,2022-04-29_03h16.05.786,classification_task,2021.2.3,Win32,60.04924038,6133cb1f2abde9d84b0f8ebc,626b377229c10585ec392f8a,626b3bef4f48837dbde9ab4a,,,,,,,,,,,,,,,,,,,,,,,l,1,3.0091,"[""0.440"",""0.186"",""0.485"",""0.795""]","[0,1,1,1]",0,13,13,13,1,1,0,,,1,FALSE,,,,,,,,,,,,,,,,,,,,,,,,,,,,,,
,6133cb1f2abde9d84b0f8ebc,001,2022-04-29_03h16.05.786,classification_task,2021.2.3,Win32,60.04924038,6133cb1f2abde9d84b0f8ebc,626b377229c10585ec392f8a,626b3bef4f48837dbde9ab4a,,,,,,,,,,,,,,,,,,,,,,,a,1,3.509,"[""0.309"",""0.348"",""0.919"",""0.050""]","[1,1,1,0]",0,14,14,14,1,0,1,,,1,FALSE,,,,,,,,,,,,,,,,,,,,,,,,,,,,,,
,6133cb1f2abde9d84b0f8ebc,001,2022-04-29_03h16.05.786,classification_task,2021.2.3,Win32,60.04924038,6133cb1f2abde9d84b0f8ebc,626b377229c10585ec392f8a,626b3bef4f48837dbde9ab4a,,,,,,,,,,,,,,,,,,,,,,,a,0,2.8831,"[""0.139"",""0.186"",""0.440"",""0.795""]","[1,1,0,1]",0,15,15,15,1,1,0,,,1,FALSE,,,,,,,,,,,,,,,,,,,,,,,,,,,,,,
,6133cb1f2abde9d84b0f8ebc,001,2022-04-29_03h16.05.786,classification_task,2021.2.3,Win32,60.04924038,6133cb1f2abde9d84b0f8ebc,626b377229c10585ec392f8a,626b3bef4f48837dbde9ab4a,,,,,,,,,,,,,,,,,,,,,,,l,0,1.5152,"[""0.269"",""0.032"",""0.717"",""0.876""]","[1,0,1,1]",0,16,16,16,1,0,0,,,1,FALSE,,,,,,,,,,,,,,,,,,,,,,,,,,,,,,
,6133cb1f2abde9d84b0f8ebc,001,2022-04-29_03h16.05.786,classification_task,2021.2.3,Win32,60.04924038,6133cb1f2abde9d84b0f8ebc,626b377229c10585ec392f8a,626b3bef4f48837dbde9ab4a,,,,,,,,,,,,,,,,,,,,,,,a,1,2.5821,"[""0.309"",""0.348"",""0.919"",""0.439""]","[1,1,1,0]",0,17,17,17,1,0,1,,,1,FALSE,,,,,,,,,,,,,,,,,,,,,,,,,,,,,,
,6133cb1f2abde9d84b0f8ebc,001,2022-04-29_03h16.05.786,classification_task,2021.2.3,Win32,60.04924038,6133cb1f2abde9d84b0f8ebc,626b377229c10585ec392f8a,626b3bef4f48837dbde9ab4a,,,,,,,,,,,,,,,,,,,,,,,a,1,2.1007,"[""0.309"",""0.231"",""0.919"",""0.957""]","[1,0,1,1]",0,18,18,18,1,0,1,,,1,FALSE,,,,,,,,,,,,,,,,,,,,,,,,,,,,,,
,6133cb1f2abde9d84b0f8ebc,001,2022-04-29_03h16.05.786,classification_task,2021.2.3,Win32,60.04924038,6133cb1f2abde9d84b0f8ebc,626b377229c10585ec392f8a,626b3bef4f48837dbde9ab4a,,,,,,,,,,,,,,,,,,,,,,,l,1,1.0887,"[""0.089"",""0.401"",""0.231"",""0.834""]","[1,1,0,1]",0,19,19,19,1,1,1,,,1,FALSE,,,,,,,,,,,,,,,,,,,,,,,,,,,,,,
,6133cb1f2abde9d84b0f8ebc,001,2022-04-29_03h16.05.786,classification_task,2021.2.3,Win32,60.04924038,6133cb1f2abde9d84b0f8ebc,626b377229c10585ec392f8a,626b3bef4f48837dbde9ab4a,,,,,,,,,,,,,,,,,,,,,,,a,1,2.7796,"[""0.269"",""0.552"",""0.717"",""0.617""]","[1,1,1,0]",0,20,20,20,1,0,0,,,1,FALSE,,,,,,,,,,,,,,,,,,,,,,,,,,,,,,
,6133cb1f2abde9d84b0f8ebc,001,2022-04-29_03h16.05.786,classification_task,2021.2.3,Win32,60.04924038,6133cb1f2abde9d84b0f8ebc,626b377229c10585ec392f8a,626b3bef4f48837dbde9ab4a,,,,,,,,,,,,,,,,,,,,,,,l,1,1.4755,"[""0.139"",""0.186"",""0.485"",""0.051""]","[1,1,1,0]",0,21,21,21,1,1,0,,,1,FALSE,,,,,,,,,,,,,,,,,,,,,,,,,,,,,,
,6133cb1f2abde9d84b0f8ebc,001,2022-04-29_03h16.05.786,classification_task,2021.2.3,Win32,60.04924038,6133cb1f2abde9d84b0f8ebc,626b377229c10585ec392f8a,626b3bef4f48837dbde9ab4a,,,,,,,,,,,,,,,,,,,,,,,a,1,2.4217,"[""0.309"",""0.348"",""0.220"",""0.957""]","[1,1,0,1]",0,22,22,22,1,0,1,,,1,FALSE,,,,,,,,,,,,,,,,,,,,,,,,,,,,,,
,6133cb1f2abde9d84b0f8ebc,001,2022-04-29_03h16.05.786,classification_task,2021.2.3,Win32,60.04924038,6133cb1f2abde9d84b0f8ebc,626b377229c10585ec392f8a,626b3bef4f48837dbde9ab4a,,,,,,,,,,,,,,,,,,,,,,,l,1,0.7785,"[""0.628"",""0.401"",""0.665"",""0.834""]","[0,1,1,1]",0,23,23,23,1,1,1,,,1,FALSE,,,,,,,,,,,,,,,,,,,,,,,,,,,,,,
,6133cb1f2abde9d84b0f8ebc,001,2022-04-29_03h16.05.786,classification_task,2021.2.3,Win32,60.04924038,6133cb1f2abde9d84b0f8ebc,626b377229c10585ec392f8a,626b3bef4f48837dbde9ab4a,,,,,,,,,,,,,,,,,,,,,,,a,1,1.6654,"[""0.439"",""0.552"",""0.717"",""0.876""]","[0,1,1,1]",0,24,24,24,1,0,0,,,1,FALSE,,,,,,,,,,,,,,,,,,,,,,,,,,,,,,
,6133cb1f2abde9d84b0f8ebc,001,2022-04-29_03h16.05.786,classification_task,2021.2.3,Win32,60.04924038,6133cb1f2abde9d84b0f8ebc,626b377229c10585ec392f8a,626b3bef4f48837dbde9ab4a,,,,,,,,,,,,,,,,,,,,,,,l,1,0.8734,"[""0.139"",""0.231"",""0.485"",""0.795""]","[1,0,1,1]",0,25,25,25,1,1,0,,,1,FALSE,,,,,,,,,,,,,,,,,,,,,,,,,,,,,,
,6133cb1f2abde9d84b0f8ebc,001,2022-04-29_03h16.05.786,classification_task,2021.2.3,Win32,60.04924038,6133cb1f2abde9d84b0f8ebc,626b377229c10585ec392f8a,626b3bef4f48837dbde9ab4a,,,,,,,,,,,,,,,,,,,,,,,a,0,1.1477,"[""0.055"",""0.186"",""0.485"",""0.795""]","[0,1,1,1]",0,26,26,26,1,1,0,,,1,FALSE,,,,,,,,,,,,,,,,,,,,,,,,,,,,,,
,6133cb1f2abde9d84b0f8ebc,001,2022-04-29_03h16.05.786,classification_task,2021.2.3,Win32,60.04924038,6133cb1f2abde9d84b0f8ebc,626b377229c10585ec392f8a,626b3bef4f48837dbde9ab4a,,,,,,,,,,,,,,,,,,,,,,,l,0,1.6959,"[""0.269"",""0.552"",""0.050"",""0.876""]","[1,1,0,1]",0,27,27,27,1,0,0,,,1,FALSE,,,,,,,,,,,,,,,,,,,,,,,,,,,,,,
,6133cb1f2abde9d84b0f8ebc,001,2022-04-29_03h16.05.786,classification_task,2021.2.3,Win32,60.04924038,6133cb1f2abde9d84b0f8ebc,626b377229c10585ec392f8a,626b3bef4f48837dbde9ab4a,,,,,,,,,,,,,,,,,,,,,,,a,1,1.1156,"[""0.032"",""0.348"",""0.919"",""0.957""]","[0,1,1,1]",0,28,28,28,1,0,1,,,1,FALSE,,,,,,,,,,,,,,,,,,,,,,,,,,,,,,
,6133cb1f2abde9d84b0f8ebc,001,2022-04-29_03h16.05.786,classification_task,2021.2.3,Win32,60.04924038,6133cb1f2abde9d84b0f8ebc,626b377229c10585ec392f8a,626b3bef4f48837dbde9ab4a,,,,,,,,,,,,,,,,,,,,,,,l,1,1.3804,"[""0.089"",""0.628"",""0.665"",""0.834""]","[1,0,1,1]",0,29,29,29,1,1,1,,,1,FALSE,,,,,,,,,,,,,,,,,,,,,,,,,,,,,,
,6133cb1f2abde9d84b0f8ebc,001,2022-04-29_03h16.05.786,classification_task,2021.2.3,Win32,60.04924038,6133cb1f2abde9d84b0f8ebc,626b377229c10585ec392f8a,626b3bef4f48837dbde9ab4a,,,,,,,,,,,,,,,,,,,,,,,a,0,1.7085,"[""0.139"",""0.186"",""0.041"",""0.795""]","[1,1,0,1]",0,30,30,30,1,1,0,,,1,FALSE,,,,,,,,,,,,,,,,,,,,,,,,,,,,,,
,6133cb1f2abde9d84b0f8ebc,001,2022-04-29_03h16.05.786,classification_task,2021.2.3,Win32,60.04924038,6133cb1f2abde9d84b0f8ebc,626b377229c10585ec392f8a,626b3bef4f48837dbde9ab4a,,,,,,,,,,,,,,,,,,,,,,,l,1,2.1858,"[""0.089"",""0.401"",""0.665"",""0.612""]","[1,1,1,0]",0,31,31,31,1,1,1,,,1,FALSE,,,,,,,,,,,,,,,,,,,,,,,,,,,,,,
,6133cb1f2abde9d84b0f8ebc,001,2022-04-29_03h16.05.786,classification_task,2021.2.3,Win32,60.04924038,6133cb1f2abde9d84b0f8ebc,626b377229c10585ec392f8a,626b3bef4f48837dbde9ab4a,,,,,,,,,,,,,,,,,,,,,,,a,1,3.0035,"[""0.309"",""0.348"",""0.919"",""0.220""]","[1,1,1,0]",0,32,32,32,1,0,1,,,1,FALSE,,,,,,,,,,,,,,,,,,,,,,,,,,,,,,
,6133cb1f2abde9d84b0f8ebc,001,2022-04-29_03h16.05.786,classification_task,2021.2.3,Win32,60.04924038,6133cb1f2abde9d84b0f8ebc,626b377229c10585ec392f8a,626b3bef4f48837dbde9ab4a,,,,,,,,,,,,,,,,,,,,,,,a,0,1.9871,"[""0.139"",""0.186"",""0.485"",""0.032""]","[1,1,1,0]",0,33,33,33,1,1,0,,,1,FALSE,,,,,,,,,,,,,,,,,,,,,,,,,,,,,,
,6133cb1f2abde9d84b0f8ebc,001,2022-04-29_03h16.05.786,classification_task,2021.2.3,Win32,60.04924038,6133cb1f2abde9d84b0f8ebc,626b377229c10585ec392f8a,626b3bef4f48837dbde9ab4a,,,,,,,,,,,,,,,,,,,,,,,l,1,2.854,"[""0.089"",""0.401"",""0.665"",""0.055""]","[1,1,1,0]",0,34,34,34,1,1,1,,,1,FALSE,,,,,,,,,,,,,,,,,,,,,,,,,,,,,,
,6133cb1f2abde9d84b0f8ebc,001,2022-04-29_03h16.05.786,classification_task,2021.2.3,Win32,60.04924038,6133cb1f2abde9d84b0f8ebc,626b377229c10585ec392f8a,626b3bef4f48837dbde9ab4a,,,,,,,,,,,,,,,,,,,,,,,a,1,1.2996,"[""0.309"",""0.612"",""0.919"",""0.957""]","[1,0,1,1]",0,35,35,35,1,0,1,,,1,FALSE,,,,,,,,,,,,,,,,,,,,,,,,,,,,,,
,6133cb1f2abde9d84b0f8ebc,001,2022-04-29_03h16.05.786,classification_task,2021.2.3,Win32,60.04924038,6133cb1f2abde9d84b0f8ebc,626b377229c10585ec392f8a,626b3bef4f48837dbde9ab4a,,,,,,,,,,,,,,,,,,,,,,,a,1,3.0056,"[""0.269"",""0.552"",""0.717"",""0.220""]","[1,1,1,0]",0,36,36,36,1,0,0,,,1,FALSE,,,,,,,,,,,,,,,,,,,,,,,,,,,,,,
,6133cb1f2abde9d84b0f8ebc,001,2022-04-29_03h16.05.786,classification_task,2021.2.3,Win32,60.04924038,6133cb1f2abde9d84b0f8ebc,626b377229c10585ec392f8a,626b3bef4f48837dbde9ab4a,,,,,,,,,,,,,,,,,,,,,,,l,1,1.1553,"[""0.050"",""0.401"",""0.665"",""0.834""]","[0,1,1,1]",0,37,37,37,1,1,1,,,1,FALSE,,,,,,,,,,,,,,,,,,,,,,,,,,,,,,
,6133cb1f2abde9d84b0f8ebc,001,2022-04-29_03h16.05.786,classification_task,2021.2.3,Win32,60.04924038,6133cb1f2abde9d84b0f8ebc,626b377229c10585ec392f8a,626b3bef4f48837dbde9ab4a,,,,,,,,,,,,,,,,,,,,,,,l,1,0.9921,"[""0.089"",""0.401"",""0.628"",""0.834""]","[1,1,0,1]",0,38,38,38,1,1,1,,,1,FALSE,,,,,,,,,,,,,,,,,,,,,,,,,,,,,,
,6133cb1f2abde9d84b0f8ebc,001,2022-04-29_03h16.05.786,classification_task,2021.2.3,Win32,60.04924038,6133cb1f2abde9d84b0f8ebc,626b377229c10585ec392f8a,626b3bef4f48837dbde9ab4a,,,,,,,,,,,,,,,,,,,,,,,l,1,2.6154,"[""0.139"",""0.186"",""0.235"",""0.795""]","[1,1,0,1]",0,39,39,39,1,1,0,,,1,FALSE,,,,,,,,,,,,,,,,,,,,,,,,,,,,,,
,6133cb1f2abde9d84b0f8ebc,001,2022-04-29_03h16.05.786,classification_task,2021.2.3,Win32,60.04924038,6133cb1f2abde9d84b0f8ebc,626b377229c10585ec392f8a,626b3bef4f48837dbde9ab4a,,,,,,,,,,,,,,,,,,,,,,,l,0,1.4178,"[""0.051"",""0.552"",""0.717"",""0.876""]","[0,1,1,1]",0,40,40,40,1,0,0,,,1,FALSE,,,,,,,,,,,,,,,,,,,,,,,,,,,,,,
,6133cb1f2abde9d84b0f8ebc,001,2022-04-29_03h16.05.786,classification_task,2021.2.3,Win32,60.04924038,6133cb1f2abde9d84b0f8ebc,626b377229c10585ec392f8a,626b3bef4f48837dbde9ab4a,,,,,,,,,,,,,,,,,,,,,,,a,1,1.2337,"[""0.309"",""0.348"",""0.032"",""0.957""]","[1,1,0,1]",0,41,41,41,1,0,1,,,1,FALSE,,,,,,,,,,,,,,,,,,,,,,,,,,,,,,
,6133cb1f2abde9d84b0f8ebc,001,2022-04-29_03h16.05.786,classification_task,2021.2.3,Win32,60.04924038,6133cb1f2abde9d84b0f8ebc,626b377229c10585ec392f8a,626b3bef4f48837dbde9ab4a,,,,,,,,,,,,,,,,,,,,,,,a,0,2.7573,"[""0.139"",""0.443"",""0.485"",""0.795""]","[1,0,1,1]",0,42,42,42,1,1,0,,,1,FALSE,,,,,,,,,,,,,,,,,,,,,,,,,,,,,,
,6133cb1f2abde9d84b0f8ebc,001,2022-04-29_03h16.05.786,classification_task,2021.2.3,Win32,60.04924038,6133cb1f2abde9d84b0f8ebc,626b377229c10585ec392f8a,626b3bef4f48837dbde9ab4a,,,,,,,,,,,,,,,,,,,,,,,a,1,1.1275,"[""0.439"",""0.348"",""0.919"",""0.957""]","[0,1,1,1]",0,43,43,43,1,0,1,,,1,FALSE,,,,,,,,,,,,,,,,,,,,,,,,,,,,,,
,6133cb1f2abde9d84b0f8ebc,001,2022-04-29_03h16.05.786,classification_task,2021.2.3,Win32,60.04924038,6133cb1f2abde9d84b0f8ebc,626b377229c10585ec392f8a,626b3bef4f48837dbde9ab4a,,,,,,,,,,,,,,,,,,,,,,,a,0,2.2112,"[""0.041"",""0.186"",""0.485"",""0.795""]","[0,1,1,1]",0,44,44,44,1,1,0,,,1,FALSE,,,,,,,,,,,,,,,,,,,,,,,,,,,,,,
,6133cb1f2abde9d84b0f8ebc,001,2022-04-29_03h16.05.786,classification_task,2021.2.3,Win32,60.04924038,6133cb1f2abde9d84b0f8ebc,626b377229c10585ec392f8a,626b3bef4f48837dbde9ab4a,,,,,,,,,,,,,,,,,,,,,,,a,1,1.4245,"[""0.269"",""0.050"",""0.717"",""0.876""]","[1,0,1,1]",0,45,45,45,1,0,0,,,1,FALSE,,,,,,,,,,,,,,,,,,,,,,,,,,,,,,
,6133cb1f2abde9d84b0f8ebc,001,2022-04-29_03h16.05.786,classification_task,2021.2.3,Win32,60.04924038,6133cb1f2abde9d84b0f8ebc,626b377229c10585ec392f8a,626b3bef4f48837dbde9ab4a,,,,,,,,,,,,,,,,,,,,,,,l,1,1.4222,"[""0.089"",""0.220"",""0.665"",""0.834""]","[1,0,1,1]",0,46,46,46,1,1,1,,,1,FALSE,,,,,,,,,,,,,,,,,,,,,,,,,,,,,,
,6133cb1f2abde9d84b0f8ebc,001,2022-04-29_03h16.05.786,classification_task,2021.2.3,Win32,60.04924038,6133cb1f2abde9d84b0f8ebc,626b377229c10585ec392f8a,626b3bef4f48837dbde9ab4a,,,,,,,,,,,,,,,,,,,,,,,l,0,1.1749,"[""0.269"",""0.552"",""0.440"",""0.876""]","[1,1,0,1]",0,47,47,47,1,0,0,,,1,FALSE,,,,,,,,,,,,,,,,,,,,,,,,,,,,,,
,6133cb1f2abde9d84b0f8ebc,001,2022-04-29_03h16.05.786,classification_task,2021.2.3,Win32,60.04924038,6133cb1f2abde9d84b0f8ebc,626b377229c10585ec392f8a,626b3bef4f48837dbde9ab4a,,,,,,,,,,,,,,,,,,,,,,,l,0,1.7355,"[""0.309"",""0.348"",""0.235"",""0.957""]","[1,1,0,1]",0,48,48,48,1,0,1,,,1,FALSE,,,,,,,,,,,,,,,,,,,,,,,,,,,,,,
,6133cb1f2abde9d84b0f8ebc,001,2022-04-29_03h16.05.786,classification_task,2021.2.3,Win32,60.04924038,6133cb1f2abde9d84b0f8ebc,626b377229c10585ec392f8a,626b3bef4f48837dbde9ab4a,,,,,,,,,,,,,,,,,,,,,,,l,0,2.9482,"[""0.235"",""0.552"",""0.717"",""0.876""]","[0,1,1,1]",0,49,49,49,1,0,0,,,1,FALSE,,,,,,,,,,,,,,,,,,,,,,,,,,,,,,
,6133cb1f2abde9d84b0f8ebc,001,2022-04-29_03h16.05.786,classification_task,2021.2.3,Win32,60.04924038,6133cb1f2abde9d84b0f8ebc,626b377229c10585ec392f8a,626b3bef4f48837dbde9ab4a,,,,,,,,,,,,,,,,,,,,,,,l,1,1.6661,"[""0.089"",""0.231"",""0.665"",""0.834""]","[1,0,1,1]",0,50,50,50,1,1,1,,,1,FALSE,,,,,,,,,,,,,,,,,,,,,,,,,,,,,,
,6133cb1f2abde9d84b0f8ebc,001,2022-04-29_03h16.05.786,classification_task,2021.2.3,Win32,60.04924038,6133cb1f2abde9d84b0f8ebc,626b377229c10585ec392f8a,626b3bef4f48837dbde9ab4a,,,,,,,,,,,,,,,,,,,,,,,l,1,3.0325,"[""0.139"",""0.186"",""0.617"",""0.795""]","[1,1,0,1]",0,51,51,51,1,1,0,,,1,FALSE,,,,,,,,,,,,,,,,,,,,,,,,,,,,,,
,6133cb1f2abde9d84b0f8ebc,001,2022-04-29_03h16.05.786,classification_task,2021.2.3,Win32,60.04924038,6133cb1f2abde9d84b0f8ebc,626b377229c10585ec392f8a,626b3bef4f48837dbde9ab4a,,,,,,,,,,,,,,,,,,,,,,,a,0,1.2798,"[""0.139"",""0.186"",""0.485"",""0.051""]","[1,1,1,0]",0,52,52,52,1,1,0,,,1,FALSE,,,,,,,,,,,,,,,,,,,,,,,,,,,,,,
,6133cb1f2abde9d84b0f8ebc,001,2022-04-29_03h16.05.786,classification_task,2021.2.3,Win32,60.04924038,6133cb1f2abde9d84b0f8ebc,626b377229c10585ec392f8a,626b3bef4f48837dbde9ab4a,,,,,,,,,,,,,,,,,,,,,,,a,1,2.0655,"[""0.051"",""0.348"",""0.919"",""0.957""]","[0,1,1,1]",0,53,53,53,1,0,1,,,1,FALSE,,,,,,,,,,,,,,,,,,,,,,,,,,,,,,
,6133cb1f2abde9d84b0f8ebc,001,2022-04-29_03h16.05.786,classification_task,2021.2.3,Win32,60.04924038,6133cb1f2abde9d84b0f8ebc,626b377229c10585ec392f8a,626b3bef4f48837dbde9ab4a,,,,,,,,,,,,,,,,,,,,,,,l,0,3.1076,"[""0.269"",""0.552"",""0.717"",""0.220""]","[1,1,1,0]",0,54,54,54,1,0,0,,,1,FALSE,,,,,,,,,,,,,,,,,,,,,,,,,,,,,,
,6133cb1f2abde9d84b0f8ebc,001,2022-04-29_03h16.05.786,classification_task,2021.2.3,Win32,60.04924038,6133cb1f2abde9d84b0f8ebc,626b377229c10585ec392f8a,626b3bef4f48837dbde9ab4a,,,,,,,,,,,,,,,,,,,,,,,a,0,1.5039,"[""0.032"",""0.186"",""0.485"",""0.795""]","[0,1,1,1]",0,55,55,55,1,1,0,,,1,FALSE,,,,,,,,,,,,,,,,,,,,,,,,,,,,,,
,6133cb1f2abde9d84b0f8ebc,001,2022-04-29_03h16.05.786,classification_task,2021.2.3,Win32,60.04924038,6133cb1f2abde9d84b0f8ebc,626b377229c10585ec392f8a,626b3bef4f48837dbde9ab4a,,,,,,,,,,,,,,,,,,,,,,,l,0,1.2271,"[""0.309"",""0.628"",""0.919"",""0.957""]","[1,0,1,1]",0,56,56,56,1,0,1,,,1,FALSE,,,,,,,,,,,,,,,,,,,,,,,,,,,,,,
,6133cb1f2abde9d84b0f8ebc,001,2022-04-29_03h16.05.786,classification_task,2021.2.3,Win32,60.04924038,6133cb1f2abde9d84b0f8ebc,626b377229c10585ec392f8a,626b3bef4f48837dbde9ab4a,,,,,,,,,,,,,,,,,,,,,,,l,1,2.4655,"[""0.089"",""0.401"",""0.665"",""0.220""]","[1,1,1,0]",0,57,57,57,1,1,1,,,1,FALSE,,,,,,,,,,,,,,,,,,,,,,,,,,,,,,
,6133cb1f2abde9d84b0f8ebc,001,2022-04-29_03h16.05.786,classification_task,2021.2.3,Win32,60.04924038,6133cb1f2abde9d84b0f8ebc,626b377229c10585ec392f8a,626b3bef4f48837dbde9ab4a,,,,,,,,,,,,,,,,,,,,,,,a,1,3.1351,"[""0.269"",""0.552"",""0.041"",""0.876""]","[1,1,0,1]",0,58,58,58,1,0,0,,,1,FALSE,,,,,,,,,,,,,,,,,,,,,,,,,,,,,,
,6133cb1f2abde9d84b0f8ebc,001,2022-04-29_03h16.05.786,classification_task,2021.2.3,Win32,60.04924038,6133cb1f2abde9d84b0f8ebc,626b377229c10585ec392f8a,626b3bef4f48837dbde9ab4a,,,,,,,,,,,,,,,,,,,,,,,a,0,3.0539,"[""0.439"",""0.401"",""0.665"",""0.834""]","[0,1,1,1]",0,59,59,59,1,1,1,,,1,FALSE,,,,,,,,,,,,,,,,,,,,,,,,,,,,,,
,6133cb1f2abde9d84b0f8ebc,001,2022-04-29_03h16.05.786,classification_task,2021.2.3,Win32,60.04924038,6133cb1f2abde9d84b0f8ebc,626b377229c10585ec392f8a,626b3bef4f48837dbde9ab4a,,,,,,,,,,,,,,,,,,,,,,,l,1,3.2208,"[""0.139"",""0.231"",""0.485"",""0.795""]","[1,0,1,1]",0,60,60,60,1,1,0,,,1,FALSE,,,,,,,,,,,,,,,,,,,,,,,,,,,,,,
,6133cb1f2abde9d84b0f8ebc,001,2022-04-29_03h16.05.786,classification_task,2021.2.3,Win32,60.04924038,6133cb1f2abde9d84b0f8ebc,626b377229c10585ec392f8a,626b3bef4f48837dbde9ab4a,,,,,,,,,,,,,,,,,,,,,,,l,0,1.717,"[""0.309"",""0.348"",""0.919"",""0.235""]","[1,1,1,0]",0,61,61,61,1,0,1,,,1,FALSE,,,,,,,,,,,,,,,,,,,,,,,,,,,,,,
,6133cb1f2abde9d84b0f8ebc,001,2022-04-29_03h16.05.786,classification_task,2021.2.3,Win32,60.04924038,6133cb1f2abde9d84b0f8ebc,626b377229c10585ec392f8a,626b3bef4f48837dbde9ab4a,,,,,,,,,,,,,,,,,,,,,,,l,0,2.5411,"[""0.269"",""0.055"",""0.717"",""0.876""]","[1,0,1,1]",0,62,62,62,1,0,0,,,1,FALSE,,,,,,,,,,,,,,,,,,,,,,,,,,,,,,
,6133cb1f2abde9d84b0f8ebc,001,2022-04-29_03h16.05.786,classification_task,2021.2.3,Win32,60.04924038,6133cb1f2abde9d84b0f8ebc,626b377229c10585ec392f8a,626b3bef4f48837dbde9ab4a,,,,,,,,,,,,,,,,,,,,,,,l,1,2.8489,"[""0.089"",""0.401"",""0.235"",""0.834""]","[1,1,0,1]",0,63,63,63,1,1,1,,,1,FALSE,,,,,,,,,,,,,,,,,,,,,,,,,,,,,,
,6133cb1f2abde9d84b0f8ebc,001,2022-04-29_03h16.05.786,classification_task,2021.2.3,Win32,60.04924038,6133cb1f2abde9d84b0f8ebc,626b377229c10585ec392f8a,626b3bef4f48837dbde9ab4a,,,,,,,,,,,,,,,,,,,,,,,,,,,,,,,,,,,,,,,0, ,,0,5.808348031,258.7302,0,1,1,1,1,2,2,,,,,,,,,,,,,,,,,
,6133cb1f2abde9d84b0f8ebc,001,2022-04-29_03h16.05.786,classification_task,2021.2.3,Win32,60.04924038,6133cb1f2abde9d84b0f8ebc,626b377229c10585ec392f8a,626b3bef4f48837dbde9ab4a,,,,,,,,,,,,,,,,,,,,,,,,,,,,,,,,,,,,,,,1,  ,,0,9.62962963,262.8306,0,1,1,1,1,2,2,,,,,,,,,,,,,,,,,
,6133cb1f2abde9d84b0f8ebc,001,2022-04-29_03h16.05.786,classification_task,2021.2.3,Win32,60.04924038,6133cb1f2abde9d84b0f8ebc,626b377229c10585ec392f8a,626b3bef4f48837dbde9ab4a,,,,,,,,,,,,,,,,,,,,,,,,,,,,,,,,,,,,,,,2,  ,,0,9.13972248,272.7685,0,1,1,1,1,2,2,,,,,,,,,,,,,,,,,
,6133cb1f2abde9d84b0f8ebc,001,2022-04-29_03h16.05.786,classification_task,2021.2.3,Win32,60.04924038,6133cb1f2abde9d84b0f8ebc,626b377229c10585ec392f8a,626b3bef4f48837dbde9ab4a,,,,,,,,,,,,,,,,,,,,,,,,,,,,,,,,,,,,,,,,,,,,,0,1,1,1,1,,2,,,,,,,,,,,,,,,,,
,6133cb1f2abde9d84b0f8ebc,001,2022-04-29_03h16.05.786,classification_task,2021.2.3,Win32,60.04924038,6133cb1f2abde9d84b0f8ebc,626b377229c10585ec392f8a,626b3bef4f48837dbde9ab4a,,,,,,,,,,,,,,,,,,,,,space,19.3879,a,1,3.504,"[""0.235"",""0.348"",""0.919"",""0.957""]","[0,1,1,1]",0,0,0,0,1,0,1,,,1,FALSE,,,,,,,,,,,,,,,,,,,,,,,,,,,,,,
,6133cb1f2abde9d84b0f8ebc,001,2022-04-29_03h16.05.786,classification_task,2021.2.3,Win32,60.04924038,6133cb1f2abde9d84b0f8ebc,626b377229c10585ec392f8a,626b3bef4f48837dbde9ab4a,,,,,,,,,,,,,,,,,,,,,,,l,0,2.3515,"[""0.269"",""0.552"",""0.440"",""0.876""]","[1,1,0,1]",0,1,1,1,1,0,0,,,1,FALSE,,,,,,,,,,,,,,,,,,,,,,,,,,,,,,
,6133cb1f2abde9d84b0f8ebc,001,2022-04-29_03h16.05.786,classification_task,2021.2.3,Win32,60.04924038,6133cb1f2abde9d84b0f8ebc,626b377229c10585ec392f8a,626b3bef4f48837dbde9ab4a,,,,,,,,,,,,,,,,,,,,,,,l,1,1.2678,"[""0.139"",""0.186"",""0.628"",""0.795""]","[1,1,0,1]",0,2,2,2,1,1,0,,,1,FALSE,,,,,,,,,,,,,,,,,,,,,,,,,,,,,,
,6133cb1f2abde9d84b0f8ebc,001,2022-04-29_03h16.05.786,classification_task,2021.2.3,Win32,60.04924038,6133cb1f2abde9d84b0f8ebc,626b377229c10585ec392f8a,626b3bef4f48837dbde9ab4a,,,,,,,,,,,,,,,,,,,,,,,a,0,2.5126,"[""0.139"",""0.617"",""0.485"",""0.795""]","[1,0,1,1]",0,3,3,3,1,1,0,,,1,FALSE,,,,,,,,,,,,,,,,,,,,,,,,,,,,,,
,6133cb1f2abde9d84b0f8ebc,001,2022-04-29_03h16.05.786,classification_task,2021.2.3,Win32,60.04924038,6133cb1f2abde9d84b0f8ebc,626b377229c10585ec392f8a,626b3bef4f48837dbde9ab4a,,,,,,,,,,,,,,,,,,,,,,,a,1,3.0183,"[""0.309"",""0.050"",""0.919"",""0.957""]","[1,0,1,1]",0,4,4,4,1,0,1,,,1,FALSE,,,,,,,,,,,,,,,,,,,,,,,,,,,,,,
,6133cb1f2abde9d84b0f8ebc,001,2022-04-29_03h16.05.786,classification_task,2021.2.3,Win32,60.04924038,6133cb1f2abde9d84b0f8ebc,626b377229c10585ec392f8a,626b3bef4f48837dbde9ab4a,,,,,,,,,,,,,,,,,,,,,,,l,0,3.2272,"[""0.309"",""0.348"",""0.439"",""0.957""]","[1,1,0,1]",0,5,5,5,1,0,1,,,1,FALSE,,,,,,,,,,,,,,,,,,,,,,,,,,,,,,
,6133cb1f2abde9d84b0f8ebc,001,2022-04-29_03h16.05.786,classification_task,2021.2.3,Win32,60.04924038,6133cb1f2abde9d84b0f8ebc,626b377229c10585ec392f8a,626b3bef4f48837dbde9ab4a,,,,,,,,,,,,,,,,,,,,,,,a,1,1.3884,"[""0.269"",""0.552"",""0.717"",""0.051""]","[1,1,1,0]",0,6,6,6,1,0,0,,,1,FALSE,,,,,,,,,,,,,,,,,,,,,,,,,,,,,,
,6133cb1f2abde9d84b0f8ebc,001,2022-04-29_03h16.05.786,classification_task,2021.2.3,Win32,60.04924038,6133cb1f2abde9d84b0f8ebc,626b377229c10585ec392f8a,626b3bef4f48837dbde9ab4a,,,,,,,,,,,,,,,,,,,,,,,l,1,2.2161,"[""0.089"",""0.435"",""0.665"",""0.834""]","[1,0,1,1]",0,7,7,7,1,1,1,,,1,FALSE,,,,,,,,,,,,,,,,,,,,,,,,,,,,,,
,6133cb1f2abde9d84b0f8ebc,001,2022-04-29_03h16.05.786,classification_task,2021.2.3,Win32,60.04924038,6133cb1f2abde9d84b0f8ebc,626b377229c10585ec392f8a,626b3bef4f48837dbde9ab4a,,,,,,,,,,,,,,,,,,,,,,,a,0,2.2572,"[""0.439"",""0.186"",""0.485"",""0.795""]","[0,1,1,1]",0,8,8,8,1,1,0,,,1,FALSE,,,,,,,,,,,,,,,,,,,,,,,,,,,,,,
,6133cb1f2abde9d84b0f8ebc,001,2022-04-29_03h16.05.786,classification_task,2021.2.3,Win32,60.04924038,6133cb1f2abde9d84b0f8ebc,626b377229c10585ec392f8a,626b3bef4f48837dbde9ab4a,,,,,,,,,,,,,,,,,,,,,,,l,1,3.2033,"[""0.231"",""0.401"",""0.665"",""0.834""]","[0,1,1,1]",0,9,9,9,1,1,1,,,1,FALSE,,,,,,,,,,,,,,,,,,,,,,,,,,,,,,
,6133cb1f2abde9d84b0f8ebc,001,2022-04-29_03h16.05.786,classification_task,2021.2.3,Win32,60.04924038,6133cb1f2abde9d84b0f8ebc,626b377229c10585ec392f8a,626b3bef4f48837dbde9ab4a,,,,,,,,,,,,,,,,,,,,,,,l,1,3.8527,"[""0.089"",""0.401"",""0.665"",""0.055""]","[1,1,1,0]",0,10,10,10,1,1,1,,,1,FALSE,,,,,,,,,,,,,,,,,,,,,,,,,,,,,,
,6133cb1f2abde9d84b0f8ebc,001,2022-04-29_03h16.05.786,classification_task,2021.2.3,Win32,60.04924038,6133cb1f2abde9d84b0f8ebc,626b377229c10585ec392f8a,626b3bef4f48837dbde9ab4a,,,,,,,,,,,,,,,,,,,,,,,l,1,1.969,"[""0.139"",""0.186"",""0.485"",""0.628""]","[1,1,1,0]",0,11,11,11,1,1,0,,,1,FALSE,,,,,,,,,,,,,,,,,,,,,,,,,,,,,,
,6133cb1f2abde9d84b0f8ebc,001,2022-04-29_03h16.05.786,classification_task,2021.2.3,Win32,60.04924038,6133cb1f2abde9d84b0f8ebc,626b377229c10585ec392f8a,626b3bef4f48837dbde9ab4a,,,,,,,,,,,,,,,,,,,,,,,a,0,3.1588,"[""0.089"",""0.401"",""0.051"",""0.834""]","[1,1,0,1]",0,12,12,12,1,1,1,,,1,FALSE,,,,,,,,,,,,,,,,,,,,,,,,,,,,,,
,6133cb1f2abde9d84b0f8ebc,001,2022-04-29_03h16.05.786,classification_task,2021.2.3,Win32,60.04924038,6133cb1f2abde9d84b0f8ebc,626b377229c10585ec392f8a,626b3bef4f48837dbde9ab4a,,,,,,,,,,,,,,,,,,,,,,,l,0,4.0861,"[""0.269"",""0.051"",""0.717"",""0.876""]","[1,0,1,1]",0,13,13,13,1,0,0,,,1,FALSE,,,,,,,,,,,,,,,,,,,,,,,,,,,,,,
,6133cb1f2abde9d84b0f8ebc,001,2022-04-29_03h16.05.786,classification_task,2021.2.3,Win32,60.04924038,6133cb1f2abde9d84b0f8ebc,626b377229c10585ec392f8a,626b3bef4f48837dbde9ab4a,,,,,,,,,,,,,,,,,,,,,,,l,0,2.5799,"[""0.435"",""0.552"",""0.717"",""0.876""]","[0,1,1,1]",0,14,14,14,1,0,0,,,1,FALSE,,,,,,,,,,,,,,,,,,,,,,,,,,,,,,
,6133cb1f2abde9d84b0f8ebc,001,2022-04-29_03h16.05.786,classification_task,2021.2.3,Win32,60.04924038,6133cb1f2abde9d84b0f8ebc,626b377229c10585ec392f8a,626b3bef4f48837dbde9ab4a,,,,,,,,,,,,,,,,,,,,,,,a,1,1.5562,"[""0.309"",""0.348"",""0.919"",""0.235""]","[1,1,1,0]",0,15,15,15,1,0,1,,,1,FALSE,,,,,,,,,,,,,,,,,,,,,,,,,,,,,,
,6133cb1f2abde9d84b0f8ebc,001,2022-04-29_03h16.05.786,classification_task,2021.2.3,Win32,60.04924038,6133cb1f2abde9d84b0f8ebc,626b377229c10585ec392f8a,626b3bef4f48837dbde9ab4a,,,,,,,,,,,,,,,,,,,,,,,l,0,2.6828,"[""0.440"",""0.552"",""0.717"",""0.876""]","[0,1,1,1]",0,16,16,16,1,0,0,,,1,FALSE,,,,,,,,,,,,,,,,,,,,,,,,,,,,,,
,6133cb1f2abde9d84b0f8ebc,001,2022-04-29_03h16.05.786,classification_task,2021.2.3,Win32,60.04924038,6133cb1f2abde9d84b0f8ebc,626b377229c10585ec392f8a,626b3bef4f48837dbde9ab4a,,,,,,,,,,,,,,,,,,,,,,,a,1,2.8663,"[""0.309"",""0.348"",""0.919"",""0.051""]","[1,1,1,0]",0,17,17,17,1,0,1,,,1,FALSE,,,,,,,,,,,,,,,,,,,,,,,,,,,,,,
,6133cb1f2abde9d84b0f8ebc,001,2022-04-29_03h16.05.786,classification_task,2021.2.3,Win32,60.04924038,6133cb1f2abde9d84b0f8ebc,626b377229c10585ec392f8a,626b3bef4f48837dbde9ab4a,,,,,,,,,,,,,,,,,,,,,,,l,1,4.256,"[""0.089"",""0.401"",""0.665"",""0.443""]","[1,1,1,0]",0,18,18,18,1,1,1,,,1,FALSE,,,,,,,,,,,,,,,,,,,,,,,,,,,,,,
,6133cb1f2abde9d84b0f8ebc,001,2022-04-29_03h16.05.786,classification_task,2021.2.3,Win32,60.04924038,6133cb1f2abde9d84b0f8ebc,626b377229c10585ec392f8a,626b3bef4f48837dbde9ab4a,,,,,,,,,,,,,,,,,,,,,,,a,0,1.535,"[""0.139"",""0.186"",""0.485"",""0.231""]","[1,1,1,0]",0,19,19,19,1,1,0,,,1,FALSE,,,,,,,,,,,,,,,,,,,,,,,,,,,,,,
,6133cb1f2abde9d84b0f8ebc,001,2022-04-29_03h16.05.786,classification_task,2021.2.3,Win32,60.04924038,6133cb1f2abde9d84b0f8ebc,626b377229c10585ec392f8a,626b3bef4f48837dbde9ab4a,,,,,,,,,,,,,,,,,,,,,,,l,0,4.6196,"[""0.269"",""0.552"",""0.439"",""0.876""]","[1,1,0,1]",0,20,20,20,1,0,0,,,1,FALSE,,,,,,,,,,,,,,,,,,,,,,,,,,,,,,
,6133cb1f2abde9d84b0f8ebc,001,2022-04-29_03h16.05.786,classification_task,2021.2.3,Win32,60.04924038,6133cb1f2abde9d84b0f8ebc,626b377229c10585ec392f8a,626b3bef4f48837dbde9ab4a,,,,,,,,,,,,,,,,,,,,,,,l,1,1.4614,"[""0.139"",""0.186"",""0.220"",""0.795""]","[1,1,0,1]",0,21,21,21,1,1,0,,,1,FALSE,,,,,,,,,,,,,,,,,,,,,,,,,,,,,,
,6133cb1f2abde9d84b0f8ebc,001,2022-04-29_03h16.05.786,classification_task,2021.2.3,Win32,60.04924038,6133cb1f2abde9d84b0f8ebc,626b377229c10585ec392f8a,626b3bef4f48837dbde9ab4a,,,,,,,,,,,,,,,,,,,,,,,a,0,2.0583,"[""0.139"",""0.235"",""0.485"",""0.795""]","[1,0,1,1]",0,22,22,22,1,1,0,,,1,FALSE,,,,,,,,,,,,,,,,,,,,,,,,,,,,,,
,6133cb1f2abde9d84b0f8ebc,001,2022-04-29_03h16.05.786,classification_task,2021.2.3,Win32,60.04924038,6133cb1f2abde9d84b0f8ebc,626b377229c10585ec392f8a,626b3bef4f48837dbde9ab4a,,,,,,,,,,,,,,,,,,,,,,,a,1,3.3495,"[""0.309"",""0.348"",""0.050"",""0.957""]","[1,1,0,1]",0,23,23,23,1,0,1,,,1,FALSE,,,,,,,,,,,,,,,,,,,,,,,,,,,,,,
,6133cb1f2abde9d84b0f8ebc,001,2022-04-29_03h16.05.786,classification_task,2021.2.3,Win32,60.04924038,6133cb1f2abde9d84b0f8ebc,626b377229c10585ec392f8a,626b3bef4f48837dbde9ab4a,,,,,,,,,,,,,,,,,,,,,,,l,0,1.7401,"[""0.309"",""0.051"",""0.919"",""0.957""]","[1,0,1,1]",0,24,24,24,1,0,1,,,1,FALSE,,,,,,,,,,,,,,,,,,,,,,,,,,,,,,
,6133cb1f2abde9d84b0f8ebc,001,2022-04-29_03h16.05.786,classification_task,2021.2.3,Win32,60.04924038,6133cb1f2abde9d84b0f8ebc,626b377229c10585ec392f8a,626b3bef4f48837dbde9ab4a,,,,,,,,,,,,,,,,,,,,,,,a,0,3.3331,"[""0.089"",""0.220"",""0.665"",""0.834""]","[1,0,1,1]",0,25,25,25,1,1,1,,,1,FALSE,,,,,,,,,,,,,,,,,,,,,,,,,,,,,,
,6133cb1f2abde9d84b0f8ebc,001,2022-04-29_03h16.05.786,classification_task,2021.2.3,Win32,60.04924038,6133cb1f2abde9d84b0f8ebc,626b377229c10585ec392f8a,626b3bef4f48837dbde9ab4a,,,,,,,,,,,,,,,,,,,,,,,l,1,2.769,"[""0.231"",""0.186"",""0.485"",""0.795""]","[0,1,1,1]",0,26,26,26,1,1,0,,,1,FALSE,,,,,,,,,,,,,,,,,,,,,,,,,,,,,,
,6133cb1f2abde9d84b0f8ebc,001,2022-04-29_03h16.05.786,classification_task,2021.2.3,Win32,60.04924038,6133cb1f2abde9d84b0f8ebc,626b377229c10585ec392f8a,626b3bef4f48837dbde9ab4a,,,,,,,,,,,,,,,,,,,,,,,a,1,3.6896,"[""0.269"",""0.552"",""0.717"",""0.443""]","[1,1,1,0]",0,27,27,27,1,0,0,,,1,FALSE,,,,,,,,,,,,,,,,,,,,,,,,,,,,,,
,6133cb1f2abde9d84b0f8ebc,001,2022-04-29_03h16.05.786,classification_task,2021.2.3,Win32,60.04924038,6133cb1f2abde9d84b0f8ebc,626b377229c10585ec392f8a,626b3bef4f48837dbde9ab4a,,,,,,,,,,,,,,,,,,,,,,,l,1,2.0975,"[""0.617"",""0.401"",""0.665"",""0.834""]","[0,1,1,1]",0,28,28,28,1,1,1,,,1,FALSE,,,,,,,,,,,,,,,,,,,,,,,,,,,,,,
,6133cb1f2abde9d84b0f8ebc,001,2022-04-29_03h16.05.786,classification_task,2021.2.3,Win32,60.04924038,6133cb1f2abde9d84b0f8ebc,626b377229c10585ec392f8a,626b3bef4f48837dbde9ab4a,,,,,,,,,,,,,,,,,,,,,,,l,1,3.0262,"[""0.089"",""0.401"",""0.439"",""0.834""]","[1,1,0,1]",0,29,29,29,1,1,1,,,1,FALSE,,,,,,,,,,,,,,,,,,,,,,,,,,,,,,
,6133cb1f2abde9d84b0f8ebc,001,2022-04-29_03h16.05.786,classification_task,2021.2.3,Win32,60.04924038,6133cb1f2abde9d84b0f8ebc,626b377229c10585ec392f8a,626b3bef4f48837dbde9ab4a,,,,,,,,,,,,,,,,,,,,,,,a,1,5.1852,"[""0.269"",""0.235"",""0.717"",""0.876""]","[1,0,1,1]",0,30,30,30,1,0,0,,,1,FALSE,,,,,,,,,,,,,,,,,,,,,,,,,,,,,,
,6133cb1f2abde9d84b0f8ebc,001,2022-04-29_03h16.05.786,classification_task,2021.2.3,Win32,60.04924038,6133cb1f2abde9d84b0f8ebc,626b377229c10585ec392f8a,626b3bef4f48837dbde9ab4a,,,,,,,,,,,,,,,,,,,,,,,l,0,2.2092,"[""0.617"",""0.348"",""0.919"",""0.957""]","[0,1,1,1]",0,31,31,31,1,0,1,,,1,FALSE,,,,,,,,,,,,,,,,,,,,,,,,,,,,,,
,6133cb1f2abde9d84b0f8ebc,001,2022-04-29_03h16.05.786,classification_task,2021.2.3,Win32,60.04924038,6133cb1f2abde9d84b0f8ebc,626b377229c10585ec392f8a,626b3bef4f48837dbde9ab4a,,,,,,,,,,,,,,,,,,,,,,,l,1,1.2893,"[""0.089"",""0.041"",""0.665"",""0.834""]","[1,0,1,1]",0,32,32,32,1,1,1,,,1,FALSE,,,,,,,,,,,,,,,,,,,,,,,,,,,,,,
,6133cb1f2abde9d84b0f8ebc,001,2022-04-29_03h16.05.786,classification_task,2021.2.3,Win32,60.04924038,6133cb1f2abde9d84b0f8ebc,626b377229c10585ec392f8a,626b3bef4f48837dbde9ab4a,,,,,,,,,,,,,,,,,,,,,,,a,1,1.7387,"[""0.269"",""0.235"",""0.717"",""0.876""]","[1,0,1,1]",0,33,33,33,1,0,0,,,1,FALSE,,,,,,,,,,,,,,,,,,,,,,,,,,,,,,
,6133cb1f2abde9d84b0f8ebc,001,2022-04-29_03h16.05.786,classification_task,2021.2.3,Win32,60.04924038,6133cb1f2abde9d84b0f8ebc,626b377229c10585ec392f8a,626b3bef4f48837dbde9ab4a,,,,,,,,,,,,,,,,,,,,,,,a,0,3.0903,"[""0.235"",""0.186"",""0.485"",""0.795""]","[0,1,1,1]",0,34,34,34,1,1,0,,,1,FALSE,,,,,,,,,,,,,,,,,,,,,,,,,,,,,,
,6133cb1f2abde9d84b0f8ebc,001,2022-04-29_03h16.05.786,classification_task,2021.2.3,Win32,60.04924038,6133cb1f2abde9d84b0f8ebc,626b377229c10585ec392f8a,626b3bef4f48837dbde9ab4a,,,,,,,,,,,,,,,,,,,,,,,l,0,2.2662,"[""0.269"",""0.552"",""0.617"",""0.876""]","[1,1,0,1]",0,35,35,35,1,0,0,,,1,FALSE,,,,,,,,,,,,,,,,,,,,,,,,,,,,,,
,6133cb1f2abde9d84b0f8ebc,001,2022-04-29_03h16.05.786,classification_task,2021.2.3,Win32,60.04924038,6133cb1f2abde9d84b0f8ebc,626b377229c10585ec392f8a,626b3bef4f48837dbde9ab4a,,,,,,,,,,,,,,,,,,,,,,,l,0,2.2906,"[""0.050"",""0.552"",""0.717"",""0.876""]","[0,1,1,1]",0,36,36,36,1,0,0,,,1,FALSE,,,,,,,,,,,,,,,,,,,,,,,,,,,,,,
,6133cb1f2abde9d84b0f8ebc,001,2022-04-29_03h16.05.786,classification_task,2021.2.3,Win32,60.04924038,6133cb1f2abde9d84b0f8ebc,626b377229c10585ec392f8a,626b3bef4f48837dbde9ab4a,,,,,,,,,,,,,,,,,,,,,,,l,1,4.7232,"[""0.055"",""0.401"",""0.665"",""0.834""]","[0,1,1,1]",0,37,37,37,1,1,1,,,1,FALSE,,,,,,,,,,,,,,,,,,,,,,,,,,,,,,
,6133cb1f2abde9d84b0f8ebc,001,2022-04-29_03h16.05.786,classification_task,2021.2.3,Win32,60.04924038,6133cb1f2abde9d84b0f8ebc,626b377229c10585ec392f8a,626b3bef4f48837dbde9ab4a,,,,,,,,,,,,,,,,,,,,,,,l,1,4.4855,"[""0.089"",""0.401"",""0.665"",""0.231""]","[1,1,1,0]",0,38,38,38,1,1,1,,,1,FALSE,,,,,,,,,,,,,,,,,,,,,,,,,,,,,,
,6133cb1f2abde9d84b0f8ebc,001,2022-04-29_03h16.05.786,classification_task,2021.2.3,Win32,60.04924038,6133cb1f2abde9d84b0f8ebc,626b377229c10585ec392f8a,626b3bef4f48837dbde9ab4a,,,,,,,,,,,,,,,,,,,,,,,a,0,2.7739,"[""0.089"",""0.401"",""0.051"",""0.834""]","[1,1,0,1]",0,39,39,39,1,1,1,,,1,FALSE,,,,,,,,,,,,,,,,,,,,,,,,,,,,,,
,6133cb1f2abde9d84b0f8ebc,001,2022-04-29_03h16.05.786,classification_task,2021.2.3,Win32,60.04924038,6133cb1f2abde9d84b0f8ebc,626b377229c10585ec392f8a,626b3bef4f48837dbde9ab4a,,,,,,,,,,,,,,,,,,,,,,,l,0,3.2233,"[""0.309"",""0.231"",""0.919"",""0.957""]","[1,0,1,1]",0,40,40,40,1,0,1,,,1,FALSE,,,,,,,,,,,,,,,,,,,,,,,,,,,,,,
,6133cb1f2abde9d84b0f8ebc,001,2022-04-29_03h16.05.786,classification_task,2021.2.3,Win32,60.04924038,6133cb1f2abde9d84b0f8ebc,626b377229c10585ec392f8a,626b3bef4f48837dbde9ab4a,,,,,,,,,,,,,,,,,,,,,,,a,0,3.8692,"[""0.139"",""0.186"",""0.612"",""0.795""]","[1,1,0,1]",0,41,41,41,1,1,0,,,1,FALSE,,,,,,,,,,,,,,,,,,,,,,,,,,,,,,
,6133cb1f2abde9d84b0f8ebc,001,2022-04-29_03h16.05.786,classification_task,2021.2.3,Win32,60.04924038,6133cb1f2abde9d84b0f8ebc,626b377229c10585ec392f8a,626b3bef4f48837dbde9ab4a,,,,,,,,,,,,,,,,,,,,,,,a,0,3.2278,"[""0.139"",""0.439"",""0.485"",""0.795""]","[1,0,1,1]",0,42,42,42,1,1,0,,,1,FALSE,,,,,,,,,,,,,,,,,,,,,,,,,,,,,,
,6133cb1f2abde9d84b0f8ebc,001,2022-04-29_03h16.05.786,classification_task,2021.2.3,Win32,60.04924038,6133cb1f2abde9d84b0f8ebc,626b377229c10585ec392f8a,626b3bef4f48837dbde9ab4a,,,,,,,,,,,,,,,,,,,,,,,l,0,4.871,"[""0.309"",""0.348"",""0.055"",""0.957""]","[1,1,0,1]",0,43,43,43,1,0,1,,,1,FALSE,,,,,,,,,,,,,,,,,,,,,,,,,,,,,,
,6133cb1f2abde9d84b0f8ebc,001,2022-04-29_03h16.05.786,classification_task,2021.2.3,Win32,60.04924038,6133cb1f2abde9d84b0f8ebc,626b377229c10585ec392f8a,626b3bef4f48837dbde9ab4a,,,,,,,,,,,,,,,,,,,,,,,a,1,1.9625,"[""0.309"",""0.348"",""0.919"",""0.435""]","[1,1,1,0]",0,44,44,44,1,0,1,,,1,FALSE,,,,,,,,,,,,,,,,,,,,,,,,,,,,,,
,6133cb1f2abde9d84b0f8ebc,001,2022-04-29_03h16.05.786,classification_task,2021.2.3,Win32,60.04924038,6133cb1f2abde9d84b0f8ebc,626b377229c10585ec392f8a,626b3bef4f48837dbde9ab4a,,,,,,,,,,,,,,,,,,,,,,,l,1,1.7031,"[""0.139"",""0.186"",""0.485"",""0.235""]","[1,1,1,0]",0,45,45,45,1,1,0,,,1,FALSE,,,,,,,,,,,,,,,,,,,,,,,,,,,,,,
,6133cb1f2abde9d84b0f8ebc,001,2022-04-29_03h16.05.786,classification_task,2021.2.3,Win32,60.04924038,6133cb1f2abde9d84b0f8ebc,626b377229c10585ec392f8a,626b3bef4f48837dbde9ab4a,,,,,,,,,,,,,,,,,,,,,,,l,0,1.7899,"[""0.269"",""0.552"",""0.717"",""0.032""]","[1,1,1,0]",0,46,46,46,1,0,0,,,1,FALSE,,,,,,,,,,,,,,,,,,,,,,,,,,,,,,
,6133cb1f2abde9d84b0f8ebc,001,2022-04-29_03h16.05.786,classification_task,2021.2.3,Win32,60.04924038,6133cb1f2abde9d84b0f8ebc,626b377229c10585ec392f8a,626b3bef4f48837dbde9ab4a,,,,,,,,,,,,,,,,,,,,,,,l,0,2.2086,"[""0.612"",""0.348"",""0.919"",""0.957""]","[0,1,1,1]",0,47,47,47,1,0,1,,,1,FALSE,,,,,,,,,,,,,,,,,,,,,,,,,,,,,,
,6133cb1f2abde9d84b0f8ebc,001,2022-04-29_03h16.05.786,classification_task,2021.2.3,Win32,60.04924038,6133cb1f2abde9d84b0f8ebc,626b377229c10585ec392f8a,626b3bef4f48837dbde9ab4a,,,,,,,,,,,,,,,,,,,,,,,a,0,2.7042,"[""0.089"",""0.443"",""0.665"",""0.834""]","[1,0,1,1]",0,48,48,48,1,1,1,,,1,FALSE,,,,,,,,,,,,,,,,,,,,,,,,,,,,,,
,6133cb1f2abde9d84b0f8ebc,001,2022-04-29_03h16.05.786,classification_task,2021.2.3,Win32,60.04924038,6133cb1f2abde9d84b0f8ebc,626b377229c10585ec392f8a,626b3bef4f48837dbde9ab4a,,,,,,,,,,,,,,,,,,,,,,,a,0,2.3652,"[""0.235"",""0.401"",""0.665"",""0.834""]","[0,1,1,1]",0,49,49,49,1,1,1,,,1,FALSE,,,,,,,,,,,,,,,,,,,,,,,,,,,,,,
,6133cb1f2abde9d84b0f8ebc,001,2022-04-29_03h16.05.786,classification_task,2021.2.3,Win32,60.04924038,6133cb1f2abde9d84b0f8ebc,626b377229c10585ec392f8a,626b3bef4f48837dbde9ab4a,,,,,,,,,,,,,,,,,,,,,,,l,1,1.7124,"[""0.139"",""0.186"",""0.051"",""0.795""]","[1,1,0,1]",0,50,50,50,1,1,0,,,1,FALSE,,,,,,,,,,,,,,,,,,,,,,,,,,,,,,
,6133cb1f2abde9d84b0f8ebc,001,2022-04-29_03h16.05.786,classification_task,2021.2.3,Win32,60.04924038,6133cb1f2abde9d84b0f8ebc,626b377229c10585ec392f8a,626b3bef4f48837dbde9ab4a,,,,,,,,,,,,,,,,,,,,,,,l,0,3.4647,"[""0.309"",""0.348"",""0.919"",""0.050""]","[1,1,1,0]",0,51,51,51,1,0,1,,,1,FALSE,,,,,,,,,,,,,,,,,,,,,,,,,,,,,,
,6133cb1f2abde9d84b0f8ebc,001,2022-04-29_03h16.05.786,classification_task,2021.2.3,Win32,60.04924038,6133cb1f2abde9d84b0f8ebc,626b377229c10585ec392f8a,626b3bef4f48837dbde9ab4a,,,,,,,,,,,,,,,,,,,,,,,a,0,1.9468,"[""0.089"",""0.401"",""0.051"",""0.834""]","[1,1,0,1]",0,52,52,52,1,1,1,,,1,FALSE,,,,,,,,,,,,,,,,,,,,,,,,,,,,,,
,6133cb1f2abde9d84b0f8ebc,001,2022-04-29_03h16.05.786,classification_task,2021.2.3,Win32,60.04924038,6133cb1f2abde9d84b0f8ebc,626b377229c10585ec392f8a,626b3bef4f48837dbde9ab4a,,,,,,,,,,,,,,,,,,,,,,,a,1,3.0422,"[""0.309"",""0.348"",""0.032"",""0.957""]","[1,1,0,1]",0,53,53,53,1,0,1,,,1,FALSE,,,,,,,,,,,,,,,,,,,,,,,,,,,,,,
,6133cb1f2abde9d84b0f8ebc,001,2022-04-29_03h16.05.786,classification_task,2021.2.3,Win32,60.04924038,6133cb1f2abde9d84b0f8ebc,626b377229c10585ec392f8a,626b3bef4f48837dbde9ab4a,,,,,,,,,,,,,,,,,,,,,,,l,0,1.6747,"[""0.309"",""0.443"",""0.919"",""0.957""]","[1,0,1,1]",0,54,54,54,1,0,1,,,1,FALSE,,,,,,,,,,,,,,,,,,,,,,,,,,,,,,
,6133cb1f2abde9d84b0f8ebc,001,2022-04-29_03h16.05.786,classification_task,2021.2.3,Win32,60.04924038,6133cb1f2abde9d84b0f8ebc,626b377229c10585ec392f8a,626b3bef4f48837dbde9ab4a,,,,,,,,,,,,,,,,,,,,,,,l,1,1.4765,"[""0.139"",""0.186"",""0.485"",""0.055""]","[1,1,1,0]",0,55,55,55,1,1,0,,,1,FALSE,,,,,,,,,,,,,,,,,,,,,,,,,,,,,,
,6133cb1f2abde9d84b0f8ebc,001,2022-04-29_03h16.05.786,classification_task,2021.2.3,Win32,60.04924038,6133cb1f2abde9d84b0f8ebc,626b377229c10585ec392f8a,626b3bef4f48837dbde9ab4a,,,,,,,,,,,,,,,,,,,,,,,l,0,5.2264,"[""0.269"",""0.552"",""0.443"",""0.876""]","[1,1,0,1]",0,56,56,56,1,0,0,,,1,FALSE,,,,,,,,,,,,,,,,,,,,,,,,,,,,,,
,6133cb1f2abde9d84b0f8ebc,001,2022-04-29_03h16.05.786,classification_task,2021.2.3,Win32,60.04924038,6133cb1f2abde9d84b0f8ebc,626b377229c10585ec392f8a,626b3bef4f48837dbde9ab4a,,,,,,,,,,,,,,,,,,,,,,,a,1,3.2335,"[""0.032"",""0.348"",""0.919"",""0.957""]","[0,1,1,1]",0,57,57,57,1,0,1,,,1,FALSE,,,,,,,,,,,,,,,,,,,,,,,,,,,,,,
,6133cb1f2abde9d84b0f8ebc,001,2022-04-29_03h16.05.786,classification_task,2021.2.3,Win32,60.04924038,6133cb1f2abde9d84b0f8ebc,626b377229c10585ec392f8a,626b3bef4f48837dbde9ab4a,,,,,,,,,,,,,,,,,,,,,,,a,0,4.9945,"[""0.139"",""0.235"",""0.485"",""0.795""]","[1,0,1,1]",0,58,58,58,1,1,0,,,1,FALSE,,,,,,,,,,,,,,,,,,,,,,,,,,,,,,
,6133cb1f2abde9d84b0f8ebc,001,2022-04-29_03h16.05.786,classification_task,2021.2.3,Win32,60.04924038,6133cb1f2abde9d84b0f8ebc,626b377229c10585ec392f8a,626b3bef4f48837dbde9ab4a,,,,,,,,,,,,,,,,,,,,,,,a,1,3.9681,"[""0.269"",""0.435"",""0.717"",""0.876""]","[1,0,1,1]",0,59,59,59,1,0,0,,,1,FALSE,,,,,,,,,,,,,,,,,,,,,,,,,,,,,,
,6133cb1f2abde9d84b0f8ebc,001,2022-04-29_03h16.05.786,classification_task,2021.2.3,Win32,60.04924038,6133cb1f2abde9d84b0f8ebc,626b377229c10585ec392f8a,626b3bef4f48837dbde9ab4a,,,,,,,,,,,,,,,,,,,,,,,a,0,3.2609,"[""0.051"",""0.186"",""0.485"",""0.795""]","[0,1,1,1]",0,60,60,60,1,1,0,,,1,FALSE,,,,,,,,,,,,,,,,,,,,,,,,,,,,,,
,6133cb1f2abde9d84b0f8ebc,001,2022-04-29_03h16.05.786,classification_task,2021.2.3,Win32,60.04924038,6133cb1f2abde9d84b0f8ebc,626b377229c10585ec392f8a,626b3bef4f48837dbde9ab4a,,,,,,,,,,,,,,,,,,,,,,,l,1,2.1604,"[""0.089"",""0.401"",""0.665"",""0.612""]","[1,1,1,0]",0,61,61,61,1,1,1,,,1,FALSE,,,,,,,,,,,,,,,,,,,,,,,,,,,,,,
,6133cb1f2abde9d84b0f8ebc,001,2022-04-29_03h16.05.786,classification_task,2021.2.3,Win32,60.04924038,6133cb1f2abde9d84b0f8ebc,626b377229c10585ec392f8a,626b3bef4f48837dbde9ab4a,,,,,,,,,,,,,,,,,,,,,,,l,0,2.457,"[""0.269"",""0.552"",""0.717"",""0.443""]","[1,1,1,0]",0,62,62,62,1,0,0,,,1,FALSE,,,,,,,,,,,,,,,,,,,,,,,,,,,,,,
,6133cb1f2abde9d84b0f8ebc,001,2022-04-29_03h16.05.786,classification_task,2021.2.3,Win32,60.04924038,6133cb1f2abde9d84b0f8ebc,626b377229c10585ec392f8a,626b3bef4f48837dbde9ab4a,,,,,,,,,,,,,,,,,,,,,,,l,0,2.1776,"[""0.231"",""0.552"",""0.717"",""0.876""]","[0,1,1,1]",0,63,63,63,1,0,0,,,1,FALSE,,,,,,,,,,,,,,,,,,,,,,,,,,,,,,
,6133cb1f2abde9d84b0f8ebc,001,2022-04-29_03h16.05.786,classification_task,2021.2.3,Win32,60.04924038,6133cb1f2abde9d84b0f8ebc,626b377229c10585ec392f8a,626b3bef4f48837dbde9ab4a,,,,,,,,,,,,,,,,,,,,,,,,,,,,,,,,,,,,,,,0, ,,0,9.60513573,279.9165,0,2,2,2,1,2,3,,,,,,,,,,,,,,,,,
,6133cb1f2abde9d84b0f8ebc,001,2022-04-29_03h16.05.786,classification_task,2021.2.3,Win32,60.04924038,6133cb1f2abde9d84b0f8ebc,626b377229c10585ec392f8a,626b3bef4f48837dbde9ab4a,,,,,,,,,,,,,,,,,,,,,,,,,,,,,,,,,,,,,,,1,  ,,0,10,282.6047,0,2,2,2,1,2,3,,,,,,,,,,,,,,,,,
,6133cb1f2abde9d84b0f8ebc,001,2022-04-29_03h16.05.786,classification_task,2021.2.3,Win32,60.04924038,6133cb1f2abde9d84b0f8ebc,626b377229c10585ec392f8a,626b3bef4f48837dbde9ab4a,,,,,,,,,,,,,,,,,,,,,,,,,,,,,,,,,,,,,,,2,  ,,0,9.213208664,285.4684,0,2,2,2,1,2,3,,,,,,,,,,,,,,,,,
,6133cb1f2abde9d84b0f8ebc,001,2022-04-29_03h16.05.786,classification_task,2021.2.3,Win32,60.04924038,6133cb1f2abde9d84b0f8ebc,626b377229c10585ec392f8a,626b3bef4f48837dbde9ab4a,,,,,,,,,,,,,,,,,,,,,,,,,,,,,,,,,,,,,,,,,,,,,0,2,2,2,1,,3,,,,,,,,,,,,,,,,,
,6133cb1f2abde9d84b0f8ebc,001,2022-04-29_03h16.05.786,classification_task,2021.2.3,Win32,60.04924038,6133cb1f2abde9d84b0f8ebc,626b377229c10585ec392f8a,626b3bef4f48837dbde9ab4a,,,,,,,,,,,,,,,,,,,,,,,,,,,,,,,,,,,,,,,,,,,,,,,,,,,,,I believe the aid is a competent performer,,0.7,0,3,1467.5002,0,0,0,0,1,0,,,,
,6133cb1f2abde9d84b0f8ebc,001,2022-04-29_03h16.05.786,classification_task,2021.2.3,Win32,60.04924038,6133cb1f2abde9d84b0f8ebc,626b377229c10585ec392f8a,626b3bef4f48837dbde9ab4a,,,,,,,,,,,,,,,,,,,,,,,,,,,,,,,,,,,,,,,,,,,,,,,,,,,,,I trust the aid,,0.7,0,4,1470.9617,0,0,0,0,1,0,,,,
,6133cb1f2abde9d84b0f8ebc,001,2022-04-29_03h16.05.786,classification_task,2021.2.3,Win32,60.04924038,6133cb1f2abde9d84b0f8ebc,626b377229c10585ec392f8a,626b3bef4f48837dbde9ab4a,,,,,,,,,,,,,,,,,,,,,,,,,,,,,,,,,,,,,,,,,,,,,,,,,,,,,I have confidence in the advice given by the aid,,0.7,0,4,1476.639,0,0,0,0,1,0,,,,
,6133cb1f2abde9d84b0f8ebc,001,2022-04-29_03h16.05.786,classification_task,2021.2.3,Win32,60.04924038,6133cb1f2abde9d84b0f8ebc,626b377229c10585ec392f8a,626b3bef4f48837dbde9ab4a,,,,,,,,,,,,,,,,,,,,,,,,,,,,,,,,,,,,,,,,,,,,,,,,,,,,,I can depend on the aid,,0.7,0,4,1480.6353,0,0,0,0,1,0,,,,
,6133cb1f2abde9d84b0f8ebc,001,2022-04-29_03h16.05.786,classification_task,2021.2.3,Win32,60.04924038,6133cb1f2abde9d84b0f8ebc,626b377229c10585ec392f8a,626b3bef4f48837dbde9ab4a,,,,,,,,,,,,,,,,,,,,,,,,,,,,,,,,,,,,,,,,,,,,,,,,,,,,,I can rely on the aid to behave in consistent ways,,0.7,0,3,1485.8304,0,0,0,0,1,0,,,,
,6133cb1f2abde9d84b0f8ebc,001,2022-04-29_03h16.05.786,classification_task,2021.2.3,Win32,60.04924038,6133cb1f2abde9d84b0f8ebc,626b377229c10585ec392f8a,626b3bef4f48837dbde9ab4a,,,,,,,,,,,,,,,,,,,,,,,,,,,,,,,,,,,,,,,,,,,,,,,,,,,,,I can rely on the aid to do its best every time I take its advice,,0.7,0,3,1495.235,0,0,0,0,1,0,,,,
,6133cb1f2abde9d84b0f8ebc,001,2022-04-29_03h16.05.786,classification_task,2021.2.3,Win32,60.04924038,6133cb1f2abde9d84b0f8ebc,626b377229c10585ec392f8a,626b3bef4f48837dbde9ab4a,,,,,,,,,,,,,,,,,,,,,,,,,,,,,,,,,,,,,,,,,,,,,,,,,,,,,"On trials you completed with assistance from the aid, how frequently did you think the aid was correct?",,0.7,0,85%,,0,0,0,0,1,0,,,,
,6133cb1f2abde9d84b0f8ebc,001,2022-04-29_03h16.05.786,classification_task,2021.2.3,Win32,60.04924038,6133cb1f2abde9d84b0f8ebc,626b377229c10585ec392f8a,626b3bef4f48837dbde9ab4a,,,,,,,,,,,,,,,,,,,,,,,,,,,,,,,,,,,,,,,,,,,,,,,,,,,,,"On trials you completed without the aid, how frequently did you think you were correct?",,0.7,0,80%,,0,0,0,0,1,0,,,,
,6133cb1f2abde9d84b0f8ebc,001,2022-04-29_03h16.05.786,classification_task,2021.2.3,Win32,60.04924038,6133cb1f2abde9d84b0f8ebc,626b377229c10585ec392f8a,626b3bef4f48837dbde9ab4a,,,,,,,,,,,,,,,,,,,,,,,,,,,,,,,,,,,,,,,,,,,,,,,,,,,,,,,,,,,0,0,0,0,1,,,,,
,6133cb1f2abde9d84b0f8ebc,001,2022-04-29_03h16.05.786,classification_task,2021.2.3,Win32,60.04924038,6133cb1f2abde9d84b0f8ebc,626b377229c10585ec392f8a,626b3bef4f48837dbde9ab4a,,,,,,,,,,,,,,,,,,,,,,,,,,,,,,,,,,,,,,,,,,,,,,,,,,,,,,,,,,,,,,,,,space,19.3036,1565.0286,
,6133cb1f2abde9d84b0f8ebc,001,2022-04-29_03h16.05.786,classification_task,2021.2.3,Win32,60.04924038,6133cb1f2abde9d84b0f8ebc,626b377229c10585ec392f8a,626b3bef4f48837dbde9ab4a,,,,,,,,,,,,,,,,,,,,,,,,,,,,,,,,,,,,,,,,,,,,,,,,,,,,,,,,,,,,,,,,,,,,"Mozilla/5.0 (Windows NT 10.0; Win64; x64) AppleWebKit/537.36 (KHTML, like Gecko) Chrome/100.0.4896.127 Safari/537.36"
