usingWebGL,participant,session,date,expName,psychopyVersion,OS,frameRate,study_id,signatures_friend,signatures_foe,band_ranges_top,band_ranges_bottom,formitemText,formtype,formundefined,formitemWidth,formindex,formresponse,formrt,key_resp_2.keys,key_resp_2.rt,tute_resp.keys,tute_resp.rt,tutorial.thisRepN,tutorial.thisTrialN,tutorial.thisN,tutorial.thisIndex,tutorial.ran,key_resp_4.keys,key_resp_4.rt,key_resp.keys,key_resp.corr,key_resp.rt,lines_presented,is_signal_presented,trials.thisRepN,trials.thisTrialN,trials.thisN,trials.thisIndex,trials.ran,vessel,active_band,lines,is_signal,supported_pos,catch_trial,debrief_formindex,debrief_formitemText,debrief_formtype,debrief_formitemWidth,debrief_formresponse,debrief_formrt,phases.thisRepN,phases.thisTrialN,phases.thisN,phases.thisIndex,phases.ran,phases.order,phase,key_resp_3.keys,trustitemText,trusttype,trustitemWidth,trustindex,trustresponse,trustrt,support_status.thisRepN,support_status.thisTrialN,support_status.thisN,support_status.thisIndex,support_status.ran,support_status.order,key_resp_5.keys,key_resp_5.rt,globalClockTime,userAgent,manualCondition
TRUE,6135336b7ffeb440e6a0f042,627c75c1f5d7899c66786319,2022-05-11_20h55.32.184,classification_task,2021.2.3,Win32,59.99160118,627c6715c52fd12f31907bd0,,,,,,,,,,,,,,,,,,,,,,,,,,,,,,,,,,,,,,,,,,,,,,,,,,,,,,,,,,,,,,,,,,,,,
,6135336b7ffeb440e6a0f042,627c75c1f5d7899c66786319,2022-05-11_20h55.32.184,classification_task,2021.2.3,Win32,59.99160118,627c6715c52fd12f31907bd0,"[[""0.317"",""0.408"",""0.605"",""0.856""],[""0.191"",""0.533"",""0.822"",""0.930""]]","[[""0.045"",""0.260"",""0.670"",""0.716""],[""0.113"",""0.155"",""0.480"",""0.786""]]","[1,10]","[100,1000]",Video game experience,,,0.7,0,,,,,,,,,,,,,,,,,,,,,,,,,,,,,,,,,,,,,,,,,,,,,,,,,,,,,,,,,,,,
,6135336b7ffeb440e6a0f042,627c75c1f5d7899c66786319,2022-05-11_20h55.32.184,classification_task,2021.2.3,Win32,59.99160118,627c6715c52fd12f31907bd0,,,,,Approximately how many hours did you spend playing video games in the last week?,,,0.7,0,3,,,,,,,,,,,,,,,,,,,,,,,,,,,,,,,,,,,,,,,,,,,,,,,,,,,,,,,,,,,
,6135336b7ffeb440e6a0f042,627c75c1f5d7899c66786319,2022-05-11_20h55.32.184,classification_task,2021.2.3,Win32,59.99160118,627c6715c52fd12f31907bd0,,,,,"Which game did you play the most this year? (Enter ""None"" if you didn't play any)",,,0.7,0,sims,,,,,,,,,,,,,,,,,,,,,,,,,,,,,,,,,,,,,,,,,,,,,,,,,,,,,,,,,,,
,6135336b7ffeb440e6a0f042,627c75c1f5d7899c66786319,2022-05-11_20h55.32.184,classification_task,2021.2.3,Win32,59.99160118,627c6715c52fd12f31907bd0,,,,,Visual perception,,,0.7,0,,,,,,,,,,,,,,,,,,,,,,,,,,,,,,,,,,,,,,,,,,,,,,,,,,,,,,,,,,,,
,6135336b7ffeb440e6a0f042,627c75c1f5d7899c66786319,2022-05-11_20h55.32.184,classification_task,2021.2.3,Win32,59.99160118,627c6715c52fd12f31907bd0,,,,,Do you have any form of color blindness?,,,0.7,0,No,17.6718,,,,,,,,,,,,,,,,,,,,,,,,,,,,,,,,,,,,,,,,,,,,,,,,,,,,,,,,,,
,6135336b7ffeb440e6a0f042,627c75c1f5d7899c66786319,2022-05-11_20h55.32.184,classification_task,2021.2.3,Win32,59.99160118,627c6715c52fd12f31907bd0,,,,,Do you use software to change the colour temperature of your screen (e.g. f.lux)?,,,0.7,0,No,19.8816,,,,,,,,,,,,,,,,,,,,,,,,,,,,,,,,,,,,,,,,,,,,,,,,,,,,,,,,,,
,6135336b7ffeb440e6a0f042,627c75c1f5d7899c66786319,2022-05-11_20h55.32.184,classification_task,2021.2.3,Win32,59.99160118,627c6715c52fd12f31907bd0,,,,,,,,,,,,space,22.3071,space,5.8202,0,0,0,0,1,,,,,,,,,,,,,,,,,,,,,,,,,,,,,,,,,,,,,,,,,,,,,,,,,
,6135336b7ffeb440e6a0f042,627c75c1f5d7899c66786319,2022-05-11_20h55.32.184,classification_task,2021.2.3,Win32,59.99160118,627c6715c52fd12f31907bd0,,,,,,,,,,,,,,space,5.4369,1,0,1,0,1,,,,,,,,,,,,,,,,,,,,,,,,,,,,,,,,,,,,,,,,,,,,,,,,,
,6135336b7ffeb440e6a0f042,627c75c1f5d7899c66786319,2022-05-11_20h55.32.184,classification_task,2021.2.3,Win32,59.99160118,627c6715c52fd12f31907bd0,,,,,,,,,,,,,,space,11.458,2,0,2,0,1,,,,,,,,,,,,,,,,,,,,,,,,,,,,,,,,,,,,,,,,,,,,,,,,,
,6135336b7ffeb440e6a0f042,627c75c1f5d7899c66786319,2022-05-11_20h55.32.184,classification_task,2021.2.3,Win32,59.99160118,627c6715c52fd12f31907bd0,,,,,,,,,,,,,,space,18.9317,3,0,3,0,1,,,,,,,,,,,,,,,,,,,,,,,,,,,,,,,,,,,,,,,,,,,,,,,,,
,6135336b7ffeb440e6a0f042,627c75c1f5d7899c66786319,2022-05-11_20h55.32.184,classification_task,2021.2.3,Win32,59.99160118,627c6715c52fd12f31907bd0,,,,,,,,,,,,,,space,9.7093,4,0,4,0,1,,,,,,,,,,,,,,,,,,,,,,,,,,,,,,,,,,,,,,,,,,,,,,,,,
,6135336b7ffeb440e6a0f042,627c75c1f5d7899c66786319,2022-05-11_20h55.32.184,classification_task,2021.2.3,Win32,59.99160118,627c6715c52fd12f31907bd0,,,,,,,,,,,,,,,,,,,,,space,13.4738,l,1,4.2356,"[""0.113"",""0.155"",""0.480"",""0.751""]","[1,1,1,0]",0,0,0,0,1,1,1,,,1,FALSE,,,,,,,,,,,,,,,,,,,,,,,,,,,,,,,
,6135336b7ffeb440e6a0f042,627c75c1f5d7899c66786319,2022-05-11_20h55.32.184,classification_task,2021.2.3,Win32,59.99160118,627c6715c52fd12f31907bd0,,,,,,,,,,,,,,,,,,,,,,,a,1,1.8222,"[""0.191"",""0.533"",""0.572"",""0.930""]","[1,1,0,1]",0,1,1,1,1,0,1,,,1,FALSE,,,,,,,,,,,,,,,,,,,,,,,,,,,,,,,
,6135336b7ffeb440e6a0f042,627c75c1f5d7899c66786319,2022-05-11_20h55.32.184,classification_task,2021.2.3,Win32,59.99160118,627c6715c52fd12f31907bd0,,,,,,,,,,,,,,,,,,,,,,,a,1,2.8751,"[""0.317"",""0.408"",""0.892"",""0.856""]","[1,1,0,1]",0,2,2,2,1,0,0,,,1,FALSE,,,,,,,,,,,,,,,,,,,,,,,,,,,,,,,
,6135336b7ffeb440e6a0f042,627c75c1f5d7899c66786319,2022-05-11_20h55.32.184,classification_task,2021.2.3,Win32,59.99160118,627c6715c52fd12f31907bd0,,,,,,,,,,,,,,,,,,,,,,,a,1,1.8009,"[""0.317"",""0.408"",""0.605"",""0.363""]","[1,1,1,0]",0,3,3,3,1,0,0,,,1,FALSE,,,,,,,,,,,,,,,,,,,,,,,,,,,,,,,
,6135336b7ffeb440e6a0f042,627c75c1f5d7899c66786319,2022-05-11_20h55.32.184,classification_task,2021.2.3,Win32,59.99160118,627c6715c52fd12f31907bd0,,,,,,,,,,,,,,,,,,,,,,,l,1,2.5117,"[""0.113"",""0.155"",""0.568"",""0.786""]","[1,1,0,1]",0,4,4,4,1,1,1,,,1,FALSE,,,,,,,,,,,,,,,,,,,,,,,,,,,,,,,
,6135336b7ffeb440e6a0f042,627c75c1f5d7899c66786319,2022-05-11_20h55.32.184,classification_task,2021.2.3,Win32,59.99160118,627c6715c52fd12f31907bd0,,,,,,,,,,,,,,,,,,,,,,,a,1,1.9006,"[""0.191"",""0.969"",""0.822"",""0.930""]","[1,0,1,1]",0,5,5,5,1,0,1,,,1,FALSE,,,,,,,,,,,,,,,,,,,,,,,,,,,,,,,
,6135336b7ffeb440e6a0f042,627c75c1f5d7899c66786319,2022-05-11_20h55.32.184,classification_task,2021.2.3,Win32,59.99160118,627c6715c52fd12f31907bd0,,,,,,,,,,,,,,,,,,,,,,,a,0,2.3696,"[""0.572"",""0.260"",""0.670"",""0.716""]","[0,1,1,1]",0,6,6,6,1,1,0,,,1,FALSE,,,,,,,,,,,,,,,,,,,,,,,,,,,,,,,
,6135336b7ffeb440e6a0f042,627c75c1f5d7899c66786319,2022-05-11_20h55.32.184,classification_task,2021.2.3,Win32,59.99160118,627c6715c52fd12f31907bd0,,,,,,,,,,,,,,,,,,,,,,,a,1,3.0802,"[""0.363"",""0.408"",""0.605"",""0.856""]","[0,1,1,1]",0,7,7,7,1,0,0,,,1,FALSE,,,,,,,,,,,,,,,,,,,,,,,,,,,,,,,
,6135336b7ffeb440e6a0f042,627c75c1f5d7899c66786319,2022-05-11_20h55.32.184,classification_task,2021.2.3,Win32,59.99160118,627c6715c52fd12f31907bd0,,,,,,,,,,,,,,,,,,,,,,,l,1,2.906,"[""0.113"",""0.363"",""0.480"",""0.786""]","[1,0,1,1]",0,8,8,8,1,1,1,,,1,FALSE,,,,,,,,,,,,,,,,,,,,,,,,,,,,,,,
,6135336b7ffeb440e6a0f042,627c75c1f5d7899c66786319,2022-05-11_20h55.32.184,classification_task,2021.2.3,Win32,59.99160118,627c6715c52fd12f31907bd0,,,,,,,,,,,,,,,,,,,,,,,,0,,"[""0.374"",""0.155"",""0.480"",""0.786""]","[0,1,1,1]",0,9,9,9,1,1,1,,,1,FALSE,,,,,,,,,,,,,,,,,,,,,,,,,,,,,,,
,6135336b7ffeb440e6a0f042,627c75c1f5d7899c66786319,2022-05-11_20h55.32.184,classification_task,2021.2.3,Win32,59.99160118,627c6715c52fd12f31907bd0,,,,,,,,,,,,,,,,,,,,,,,l,1,2.0019,"[""0.045"",""0.568"",""0.670"",""0.716""]","[1,0,1,1]",0,10,10,10,1,1,0,,,1,FALSE,,,,,,,,,,,,,,,,,,,,,,,,,,,,,,,
,6135336b7ffeb440e6a0f042,627c75c1f5d7899c66786319,2022-05-11_20h55.32.184,classification_task,2021.2.3,Win32,59.99160118,627c6715c52fd12f31907bd0,,,,,,,,,,,,,,,,,,,,,,,l,1,1.9492,"[""0.045"",""0.260"",""0.670"",""0.568""]","[1,1,1,0]",0,11,11,11,1,1,0,,,1,FALSE,,,,,,,,,,,,,,,,,,,,,,,,,,,,,,,
,6135336b7ffeb440e6a0f042,627c75c1f5d7899c66786319,2022-05-11_20h55.32.184,classification_task,2021.2.3,Win32,59.99160118,627c6715c52fd12f31907bd0,,,,,,,,,,,,,,,,,,,,,,,a,1,2.4882,"[""0.191"",""0.533"",""0.822"",""0.751""]","[1,1,1,0]",0,12,12,12,1,0,1,,,1,FALSE,,,,,,,,,,,,,,,,,,,,,,,,,,,,,,,
,6135336b7ffeb440e6a0f042,627c75c1f5d7899c66786319,2022-05-11_20h55.32.184,classification_task,2021.2.3,Win32,59.99160118,627c6715c52fd12f31907bd0,,,,,,,,,,,,,,,,,,,,,,,l,0,4.5278,"[""0.751"",""0.533"",""0.822"",""0.930""]","[0,1,1,1]",0,13,13,13,1,0,1,,,1,FALSE,,,,,,,,,,,,,,,,,,,,,,,,,,,,,,,
,6135336b7ffeb440e6a0f042,627c75c1f5d7899c66786319,2022-05-11_20h55.32.184,classification_task,2021.2.3,Win32,59.99160118,627c6715c52fd12f31907bd0,,,,,,,,,,,,,,,,,,,,,,,a,1,3.4477,"[""0.317"",""0.572"",""0.605"",""0.856""]","[1,0,1,1]",0,14,14,14,1,0,0,,,1,FALSE,,,,,,,,,,,,,,,,,,,,,,,,,,,,,,,
,6135336b7ffeb440e6a0f042,627c75c1f5d7899c66786319,2022-05-11_20h55.32.184,classification_task,2021.2.3,Win32,59.99160118,627c6715c52fd12f31907bd0,,,,,,,,,,,,,,,,,,,,,,,l,1,1.8813,"[""0.045"",""0.260"",""0.366"",""0.716""]","[1,1,0,1]",0,15,15,15,1,1,0,,,1,FALSE,,,,,,,,,,,,,,,,,,,,,,,,,,,,,,,
,6135336b7ffeb440e6a0f042,627c75c1f5d7899c66786319,2022-05-11_20h55.32.184,classification_task,2021.2.3,Win32,59.99160118,627c6715c52fd12f31907bd0,,,,,,,,,,,,,,,,,,,,,,,l,1,1.7864,"[""0.045"",""0.363"",""0.670"",""0.716""]","[1,0,1,1]",0,16,16,16,1,1,0,,,1,FALSE,,,,,,,,,,,,,,,,,,,,,,,,,,,,,,,
,6135336b7ffeb440e6a0f042,627c75c1f5d7899c66786319,2022-05-11_20h55.32.184,classification_task,2021.2.3,Win32,59.99160118,627c6715c52fd12f31907bd0,,,,,,,,,,,,,,,,,,,,,,,a,1,1.655,"[""0.317"",""0.408"",""0.572"",""0.856""]","[1,1,0,1]",0,17,17,17,1,0,0,,,1,FALSE,,,,,,,,,,,,,,,,,,,,,,,,,,,,,,,
,6135336b7ffeb440e6a0f042,627c75c1f5d7899c66786319,2022-05-11_20h55.32.184,classification_task,2021.2.3,Win32,59.99160118,627c6715c52fd12f31907bd0,,,,,,,,,,,,,,,,,,,,,,,a,1,1.8425,"[""0.191"",""0.366"",""0.822"",""0.930""]","[1,0,1,1]",0,18,18,18,1,0,1,,,1,FALSE,,,,,,,,,,,,,,,,,,,,,,,,,,,,,,,
,6135336b7ffeb440e6a0f042,627c75c1f5d7899c66786319,2022-05-11_20h55.32.184,classification_task,2021.2.3,Win32,59.99160118,627c6715c52fd12f31907bd0,,,,,,,,,,,,,,,,,,,,,,,a,1,1.5475,"[""0.191"",""0.533"",""0.374"",""0.930""]","[1,1,0,1]",0,19,19,19,1,0,1,,,1,FALSE,,,,,,,,,,,,,,,,,,,,,,,,,,,,,,,
,6135336b7ffeb440e6a0f042,627c75c1f5d7899c66786319,2022-05-11_20h55.32.184,classification_task,2021.2.3,Win32,59.99160118,627c6715c52fd12f31907bd0,,,,,,,,,,,,,,,,,,,,,,,a,1,1.3566,"[""0.191"",""0.533"",""0.822"",""0.751""]","[1,1,1,0]",0,20,20,20,1,0,1,,,1,FALSE,,,,,,,,,,,,,,,,,,,,,,,,,,,,,,,
,6135336b7ffeb440e6a0f042,627c75c1f5d7899c66786319,2022-05-11_20h55.32.184,classification_task,2021.2.3,Win32,59.99160118,627c6715c52fd12f31907bd0,,,,,,,,,,,,,,,,,,,,,,,l,1,1.4709,"[""0.045"",""0.260"",""0.670"",""0.969""]","[1,1,1,0]",0,21,21,21,1,1,0,,,1,FALSE,,,,,,,,,,,,,,,,,,,,,,,,,,,,,,,
,6135336b7ffeb440e6a0f042,627c75c1f5d7899c66786319,2022-05-11_20h55.32.184,classification_task,2021.2.3,Win32,59.99160118,627c6715c52fd12f31907bd0,,,,,,,,,,,,,,,,,,,,,,,l,1,2.8938,"[""0.113"",""0.155"",""0.480"",""0.568""]","[1,1,1,0]",0,22,22,22,1,1,1,,,1,FALSE,,,,,,,,,,,,,,,,,,,,,,,,,,,,,,,
,6135336b7ffeb440e6a0f042,627c75c1f5d7899c66786319,2022-05-11_20h55.32.184,classification_task,2021.2.3,Win32,59.99160118,627c6715c52fd12f31907bd0,,,,,,,,,,,,,,,,,,,,,,,a,1,2.0817,"[""0.317"",""0.408"",""0.605"",""0.366""]","[1,1,1,0]",0,23,23,23,1,0,0,,,1,FALSE,,,,,,,,,,,,,,,,,,,,,,,,,,,,,,,
,6135336b7ffeb440e6a0f042,627c75c1f5d7899c66786319,2022-05-11_20h55.32.184,classification_task,2021.2.3,Win32,59.99160118,627c6715c52fd12f31907bd0,,,,,,,,,,,,,,,,,,,,,,,l,0,3.1175,"[""0.969"",""0.533"",""0.822"",""0.930""]","[0,1,1,1]",0,24,24,24,1,0,1,,,1,FALSE,,,,,,,,,,,,,,,,,,,,,,,,,,,,,,,
,6135336b7ffeb440e6a0f042,627c75c1f5d7899c66786319,2022-05-11_20h55.32.184,classification_task,2021.2.3,Win32,59.99160118,627c6715c52fd12f31907bd0,,,,,,,,,,,,,,,,,,,,,,,a,1,2.8311,"[""0.317"",""0.374"",""0.605"",""0.856""]","[1,0,1,1]",0,25,25,25,1,0,0,,,1,FALSE,,,,,,,,,,,,,,,,,,,,,,,,,,,,,,,
,6135336b7ffeb440e6a0f042,627c75c1f5d7899c66786319,2022-05-11_20h55.32.184,classification_task,2021.2.3,Win32,59.99160118,627c6715c52fd12f31907bd0,,,,,,,,,,,,,,,,,,,,,,,l,1,2.6142,"[""0.113"",""0.155"",""0.374"",""0.786""]","[1,1,0,1]",0,26,26,26,1,1,1,,,1,FALSE,,,,,,,,,,,,,,,,,,,,,,,,,,,,,,,
,6135336b7ffeb440e6a0f042,627c75c1f5d7899c66786319,2022-05-11_20h55.32.184,classification_task,2021.2.3,Win32,59.99160118,627c6715c52fd12f31907bd0,,,,,,,,,,,,,,,,,,,,,,,a,1,2.885,"[""0.355"",""0.408"",""0.605"",""0.856""]","[0,1,1,1]",0,27,27,27,1,0,0,,,1,FALSE,,,,,,,,,,,,,,,,,,,,,,,,,,,,,,,
,6135336b7ffeb440e6a0f042,627c75c1f5d7899c66786319,2022-05-11_20h55.32.184,classification_task,2021.2.3,Win32,59.99160118,627c6715c52fd12f31907bd0,,,,,,,,,,,,,,,,,,,,,,,l,1,3.5088,"[""0.363"",""0.260"",""0.670"",""0.716""]","[0,1,1,1]",0,28,28,28,1,1,0,,,1,FALSE,,,,,,,,,,,,,,,,,,,,,,,,,,,,,,,
,6135336b7ffeb440e6a0f042,627c75c1f5d7899c66786319,2022-05-11_20h55.32.184,classification_task,2021.2.3,Win32,59.99160118,627c6715c52fd12f31907bd0,,,,,,,,,,,,,,,,,,,,,,,l,1,2.3997,"[""0.113"",""0.374"",""0.480"",""0.786""]","[1,0,1,1]",0,29,29,29,1,1,1,,,1,FALSE,,,,,,,,,,,,,,,,,,,,,,,,,,,,,,,
,6135336b7ffeb440e6a0f042,627c75c1f5d7899c66786319,2022-05-11_20h55.32.184,classification_task,2021.2.3,Win32,59.99160118,627c6715c52fd12f31907bd0,,,,,,,,,,,,,,,,,,,,,,,a,0,2.9073,"[""0.444"",""0.155"",""0.480"",""0.786""]","[0,1,1,1]",0,30,30,30,1,1,1,,,1,FALSE,,,,,,,,,,,,,,,,,,,,,,,,,,,,,,,
,6135336b7ffeb440e6a0f042,627c75c1f5d7899c66786319,2022-05-11_20h55.32.184,classification_task,2021.2.3,Win32,59.99160118,627c6715c52fd12f31907bd0,,,,,,,,,,,,,,,,,,,,,,,l,1,1.5391,"[""0.045"",""0.260"",""0.568"",""0.716""]","[1,1,0,1]",0,31,31,31,1,1,0,,,1,FALSE,,,,,,,,,,,,,,,,,,,,,,,,,,,,,,,
,6135336b7ffeb440e6a0f042,627c75c1f5d7899c66786319,2022-05-11_20h55.32.184,classification_task,2021.2.3,Win32,59.99160118,627c6715c52fd12f31907bd0,,,,,,,,,,,,,,,,,,,,,,,l,1,3.5574,"[""0.113"",""0.155"",""0.480"",""0.890""]","[1,1,1,0]",0,32,32,32,1,1,1,,,1,FALSE,,,,,,,,,,,,,,,,,,,,,,,,,,,,,,,
,6135336b7ffeb440e6a0f042,627c75c1f5d7899c66786319,2022-05-11_20h55.32.184,classification_task,2021.2.3,Win32,59.99160118,627c6715c52fd12f31907bd0,,,,,,,,,,,,,,,,,,,,,,,l,0,4.4927,"[""0.890"",""0.408"",""0.605"",""0.856""]","[0,1,1,1]",0,33,33,33,1,0,0,,,1,FALSE,,,,,,,,,,,,,,,,,,,,,,,,,,,,,,,
,6135336b7ffeb440e6a0f042,627c75c1f5d7899c66786319,2022-05-11_20h55.32.184,classification_task,2021.2.3,Win32,59.99160118,627c6715c52fd12f31907bd0,,,,,,,,,,,,,,,,,,,,,,,l,1,2.3301,"[""0.113"",""0.155"",""0.369"",""0.786""]","[1,1,0,1]",0,34,34,34,1,1,1,,,1,FALSE,,,,,,,,,,,,,,,,,,,,,,,,,,,,,,,
,6135336b7ffeb440e6a0f042,627c75c1f5d7899c66786319,2022-05-11_20h55.32.184,classification_task,2021.2.3,Win32,59.99160118,627c6715c52fd12f31907bd0,,,,,,,,,,,,,,,,,,,,,,,l,1,2.2508,"[""0.892"",""0.155"",""0.480"",""0.786""]","[0,1,1,1]",0,35,35,35,1,1,1,,,1,FALSE,,,,,,,,,,,,,,,,,,,,,,,,,,,,,,,
,6135336b7ffeb440e6a0f042,627c75c1f5d7899c66786319,2022-05-11_20h55.32.184,classification_task,2021.2.3,Win32,59.99160118,627c6715c52fd12f31907bd0,,,,,,,,,,,,,,,,,,,,,,,a,1,0.9812,"[""0.317"",""0.408"",""0.892"",""0.856""]","[1,1,0,1]",0,36,36,36,1,0,0,,,1,FALSE,,,,,,,,,,,,,,,,,,,,,,,,,,,,,,,
,6135336b7ffeb440e6a0f042,627c75c1f5d7899c66786319,2022-05-11_20h55.32.184,classification_task,2021.2.3,Win32,59.99160118,627c6715c52fd12f31907bd0,,,,,,,,,,,,,,,,,,,,,,,a,1,1.8649,"[""0.572"",""0.533"",""0.822"",""0.930""]","[0,1,1,1]",0,37,37,37,1,0,1,,,1,FALSE,,,,,,,,,,,,,,,,,,,,,,,,,,,,,,,
,6135336b7ffeb440e6a0f042,627c75c1f5d7899c66786319,2022-05-11_20h55.32.184,classification_task,2021.2.3,Win32,59.99160118,627c6715c52fd12f31907bd0,,,,,,,,,,,,,,,,,,,,,,,a,1,1.5554,"[""0.317"",""0.408"",""0.605"",""0.892""]","[1,1,1,0]",0,38,38,38,1,0,0,,,1,FALSE,,,,,,,,,,,,,,,,,,,,,,,,,,,,,,,
,6135336b7ffeb440e6a0f042,627c75c1f5d7899c66786319,2022-05-11_20h55.32.184,classification_task,2021.2.3,Win32,59.99160118,627c6715c52fd12f31907bd0,,,,,,,,,,,,,,,,,,,,,,,l,1,1.366,"[""0.045"",""0.444"",""0.670"",""0.716""]","[1,0,1,1]",0,39,39,39,1,1,0,,,1,FALSE,,,,,,,,,,,,,,,,,,,,,,,,,,,,,,,
,6135336b7ffeb440e6a0f042,627c75c1f5d7899c66786319,2022-05-11_20h55.32.184,classification_task,2021.2.3,Win32,59.99160118,627c6715c52fd12f31907bd0,,,,,,,,,,,,,,,,,,,,,,,l,1,0.9765,"[""0.045"",""0.260"",""0.670"",""0.892""]","[1,1,1,0]",0,40,40,40,1,1,0,,,1,FALSE,,,,,,,,,,,,,,,,,,,,,,,,,,,,,,,
,6135336b7ffeb440e6a0f042,627c75c1f5d7899c66786319,2022-05-11_20h55.32.184,classification_task,2021.2.3,Win32,59.99160118,627c6715c52fd12f31907bd0,,,,,,,,,,,,,,,,,,,,,,,l,1,1.2381,"[""0.113"",""0.444"",""0.480"",""0.786""]","[1,0,1,1]",0,41,41,41,1,1,1,,,1,FALSE,,,,,,,,,,,,,,,,,,,,,,,,,,,,,,,
,6135336b7ffeb440e6a0f042,627c75c1f5d7899c66786319,2022-05-11_20h55.32.184,classification_task,2021.2.3,Win32,59.99160118,627c6715c52fd12f31907bd0,,,,,,,,,,,,,,,,,,,,,,,a,0,0.4808,"[""0.359"",""0.260"",""0.670"",""0.716""]","[0,1,1,1]",0,42,42,42,1,1,0,,,1,FALSE,,,,,,,,,,,,,,,,,,,,,,,,,,,,,,,
,6135336b7ffeb440e6a0f042,627c75c1f5d7899c66786319,2022-05-11_20h55.32.184,classification_task,2021.2.3,Win32,59.99160118,627c6715c52fd12f31907bd0,,,,,,,,,,,,,,,,,,,,,,,l,1,1.1164,"[""0.045"",""0.260"",""0.369"",""0.716""]","[1,1,0,1]",0,43,43,43,1,1,0,,,1,FALSE,,,,,,,,,,,,,,,,,,,,,,,,,,,,,,,
,6135336b7ffeb440e6a0f042,627c75c1f5d7899c66786319,2022-05-11_20h55.32.184,classification_task,2021.2.3,Win32,59.99160118,627c6715c52fd12f31907bd0,,,,,,,,,,,,,,,,,,,,,,,l,0,1.2356,"[""0.191"",""0.355"",""0.822"",""0.930""]","[1,0,1,1]",0,44,44,44,1,0,1,,,1,FALSE,,,,,,,,,,,,,,,,,,,,,,,,,,,,,,,
,6135336b7ffeb440e6a0f042,627c75c1f5d7899c66786319,2022-05-11_20h55.32.184,classification_task,2021.2.3,Win32,59.99160118,627c6715c52fd12f31907bd0,,,,,,,,,,,,,,,,,,,,,,,a,1,1.2161,"[""0.191"",""0.533"",""0.369"",""0.930""]","[1,1,0,1]",0,45,45,45,1,0,1,,,1,FALSE,,,,,,,,,,,,,,,,,,,,,,,,,,,,,,,
,6135336b7ffeb440e6a0f042,627c75c1f5d7899c66786319,2022-05-11_20h55.32.184,classification_task,2021.2.3,Win32,59.99160118,627c6715c52fd12f31907bd0,,,,,,,,,,,,,,,,,,,,,,,a,1,0.8183,"[""0.191"",""0.533"",""0.822"",""0.572""]","[1,1,1,0]",0,46,46,46,1,0,1,,,1,FALSE,,,,,,,,,,,,,,,,,,,,,,,,,,,,,,,
,6135336b7ffeb440e6a0f042,627c75c1f5d7899c66786319,2022-05-11_20h55.32.184,classification_task,2021.2.3,Win32,59.99160118,627c6715c52fd12f31907bd0,,,,,,,,,,,,,,,,,,,,,,,a,1,0.8832,"[""0.317"",""0.892"",""0.605"",""0.856""]","[1,0,1,1]",0,47,47,47,1,0,0,,,1,FALSE,,,,,,,,,,,,,,,,,,,,,,,,,,,,,,,
,6135336b7ffeb440e6a0f042,627c75c1f5d7899c66786319,2022-05-11_20h55.32.184,classification_task,2021.2.3,Win32,59.99160118,627c6715c52fd12f31907bd0,,,,,,,,,,,,,,,,,,,,,,,a,1,0.7837,"[""0.317"",""0.408"",""0.568"",""0.856""]","[1,1,0,1]",0,48,48,48,1,0,0,,,1,FALSE,,,,,,,,,,,,,,,,,,,,,,,,,,,,,,,
,6135336b7ffeb440e6a0f042,627c75c1f5d7899c66786319,2022-05-11_20h55.32.184,classification_task,2021.2.3,Win32,59.99160118,627c6715c52fd12f31907bd0,,,,,,,,,,,,,,,,,,,,,,,l,1,0.7444,"[""0.045"",""0.260"",""0.363"",""0.716""]","[1,1,0,1]",0,49,49,49,1,1,0,,,1,FALSE,,,,,,,,,,,,,,,,,,,,,,,,,,,,,,,
,6135336b7ffeb440e6a0f042,627c75c1f5d7899c66786319,2022-05-11_20h55.32.184,classification_task,2021.2.3,Win32,59.99160118,627c6715c52fd12f31907bd0,,,,,,,,,,,,,,,,,,,,,,,a,0,1.0177,"[""0.969"",""0.260"",""0.670"",""0.716""]","[0,1,1,1]",0,50,50,50,1,1,0,,,1,FALSE,,,,,,,,,,,,,,,,,,,,,,,,,,,,,,,
,6135336b7ffeb440e6a0f042,627c75c1f5d7899c66786319,2022-05-11_20h55.32.184,classification_task,2021.2.3,Win32,59.99160118,627c6715c52fd12f31907bd0,,,,,,,,,,,,,,,,,,,,,,,a,1,1.3198,"[""0.191"",""0.892"",""0.822"",""0.930""]","[1,0,1,1]",0,51,51,51,1,0,1,,,1,FALSE,,,,,,,,,,,,,,,,,,,,,,,,,,,,,,,
,6135336b7ffeb440e6a0f042,627c75c1f5d7899c66786319,2022-05-11_20h55.32.184,classification_task,2021.2.3,Win32,59.99160118,627c6715c52fd12f31907bd0,,,,,,,,,,,,,,,,,,,,,,,a,1,0.8843,"[""0.363"",""0.408"",""0.605"",""0.856""]","[0,1,1,1]",0,52,52,52,1,0,0,,,1,FALSE,,,,,,,,,,,,,,,,,,,,,,,,,,,,,,,
,6135336b7ffeb440e6a0f042,627c75c1f5d7899c66786319,2022-05-11_20h55.32.184,classification_task,2021.2.3,Win32,59.99160118,627c6715c52fd12f31907bd0,,,,,,,,,,,,,,,,,,,,,,,a,1,0.6271,"[""0.317"",""0.568"",""0.605"",""0.856""]","[1,0,1,1]",0,53,53,53,1,0,0,,,1,FALSE,,,,,,,,,,,,,,,,,,,,,,,,,,,,,,,
,6135336b7ffeb440e6a0f042,627c75c1f5d7899c66786319,2022-05-11_20h55.32.184,classification_task,2021.2.3,Win32,59.99160118,627c6715c52fd12f31907bd0,,,,,,,,,,,,,,,,,,,,,,,a,1,0.9189,"[""0.363"",""0.533"",""0.822"",""0.930""]","[0,1,1,1]",0,54,54,54,1,0,1,,,1,FALSE,,,,,,,,,,,,,,,,,,,,,,,,,,,,,,,
,6135336b7ffeb440e6a0f042,627c75c1f5d7899c66786319,2022-05-11_20h55.32.184,classification_task,2021.2.3,Win32,59.99160118,627c6715c52fd12f31907bd0,,,,,,,,,,,,,,,,,,,,,,,l,0,1.5602,"[""0.191"",""0.533"",""0.969"",""0.930""]","[1,1,0,1]",0,55,55,55,1,0,1,,,1,FALSE,,,,,,,,,,,,,,,,,,,,,,,,,,,,,,,
,6135336b7ffeb440e6a0f042,627c75c1f5d7899c66786319,2022-05-11_20h55.32.184,classification_task,2021.2.3,Win32,59.99160118,627c6715c52fd12f31907bd0,,,,,,,,,,,,,,,,,,,,,,,l,1,0.9158,"[""0.045"",""0.890"",""0.670"",""0.716""]","[1,0,1,1]",0,56,56,56,1,1,0,,,1,FALSE,,,,,,,,,,,,,,,,,,,,,,,,,,,,,,,
,6135336b7ffeb440e6a0f042,627c75c1f5d7899c66786319,2022-05-11_20h55.32.184,classification_task,2021.2.3,Win32,59.99160118,627c6715c52fd12f31907bd0,,,,,,,,,,,,,,,,,,,,,,,a,1,1.1238,"[""0.317"",""0.408"",""0.605"",""0.892""]","[1,1,1,0]",0,57,57,57,1,0,0,,,1,FALSE,,,,,,,,,,,,,,,,,,,,,,,,,,,,,,,
,6135336b7ffeb440e6a0f042,627c75c1f5d7899c66786319,2022-05-11_20h55.32.184,classification_task,2021.2.3,Win32,59.99160118,627c6715c52fd12f31907bd0,,,,,,,,,,,,,,,,,,,,,,,l,1,1.1934,"[""0.113"",""0.155"",""0.480"",""0.751""]","[1,1,1,0]",0,58,58,58,1,1,1,,,1,FALSE,,,,,,,,,,,,,,,,,,,,,,,,,,,,,,,
,6135336b7ffeb440e6a0f042,627c75c1f5d7899c66786319,2022-05-11_20h55.32.184,classification_task,2021.2.3,Win32,59.99160118,627c6715c52fd12f31907bd0,,,,,,,,,,,,,,,,,,,,,,,l,1,0.9177,"[""0.113"",""0.892"",""0.480"",""0.786""]","[1,0,1,1]",0,59,59,59,1,1,1,,,1,FALSE,,,,,,,,,,,,,,,,,,,,,,,,,,,,,,,
,6135336b7ffeb440e6a0f042,627c75c1f5d7899c66786319,2022-05-11_20h55.32.184,classification_task,2021.2.3,Win32,59.99160118,627c6715c52fd12f31907bd0,,,,,,,,,,,,,,,,,,,,,,,a,0,0.75,"[""0.568"",""0.155"",""0.480"",""0.786""]","[0,1,1,1]",0,60,60,60,1,1,1,,,1,FALSE,,,,,,,,,,,,,,,,,,,,,,,,,,,,,,,
,6135336b7ffeb440e6a0f042,627c75c1f5d7899c66786319,2022-05-11_20h55.32.184,classification_task,2021.2.3,Win32,59.99160118,627c6715c52fd12f31907bd0,,,,,,,,,,,,,,,,,,,,,,,l,1,0.8569,"[""0.045"",""0.260"",""0.670"",""0.363""]","[1,1,1,0]",0,61,61,61,1,1,0,,,1,FALSE,,,,,,,,,,,,,,,,,,,,,,,,,,,,,,,
,6135336b7ffeb440e6a0f042,627c75c1f5d7899c66786319,2022-05-11_20h55.32.184,classification_task,2021.2.3,Win32,59.99160118,627c6715c52fd12f31907bd0,,,,,,,,,,,,,,,,,,,,,,,l,0,0.8846,"[""0.191"",""0.533"",""0.822"",""0.359""]","[1,1,1,0]",0,62,62,62,1,0,1,,,1,FALSE,,,,,,,,,,,,,,,,,,,,,,,,,,,,,,,
,6135336b7ffeb440e6a0f042,627c75c1f5d7899c66786319,2022-05-11_20h55.32.184,classification_task,2021.2.3,Win32,59.99160118,627c6715c52fd12f31907bd0,,,,,,,,,,,,,,,,,,,,,,,l,1,0.8473,"[""0.113"",""0.155"",""0.969"",""0.786""]","[1,1,0,1]",0,63,63,63,1,1,1,,,1,FALSE,,,,,,,,,,,,,,,,,,,,,,,,,,,,,,,
,6135336b7ffeb440e6a0f042,627c75c1f5d7899c66786319,2022-05-11_20h55.32.184,classification_task,2021.2.3,Win32,59.99160118,627c6715c52fd12f31907bd0,,,,,,,,,,,,,,,,,,,,,,,,,,,,,,,,,,,,,,,0, ,,0,4.27662037,334.5761,0,0,0,0,1,2,1,,,,,,,,,,,,,,,,,,
,6135336b7ffeb440e6a0f042,627c75c1f5d7899c66786319,2022-05-11_20h55.32.184,classification_task,2021.2.3,Win32,59.99160118,627c6715c52fd12f31907bd0,,,,,,,,,,,,,,,,,,,,,,,,,,,,,,,,,,,,,,,1,  ,,0,1.727568342,340.5233,0,0,0,0,1,2,1,,,,,,,,,,,,,,,,,,
,6135336b7ffeb440e6a0f042,627c75c1f5d7899c66786319,2022-05-11_20h55.32.184,classification_task,2021.2.3,Win32,59.99160118,627c6715c52fd12f31907bd0,,,,,,,,,,,,,,,,,,,,,,,,,,,,,,,,,,,,,,,2,  ,,0,2.140928131,344.8895,0,0,0,0,1,2,1,,,,,,,,,,,,,,,,,,
,6135336b7ffeb440e6a0f042,627c75c1f5d7899c66786319,2022-05-11_20h55.32.184,classification_task,2021.2.3,Win32,59.99160118,627c6715c52fd12f31907bd0,,,,,,,,,,,,,,,,,,,,,,,,,,,,,,,,,,,,,,,,,,,,,0,0,0,0,1,,1,,,,,,,,,,,,,,,,,,
,6135336b7ffeb440e6a0f042,627c75c1f5d7899c66786319,2022-05-11_20h55.32.184,classification_task,2021.2.3,Win32,59.99160118,627c6715c52fd12f31907bd0,,,,,,,,,,,,,,,,,,,,,space,13.378,l,1,2.2461,"[""0.045"",""0.969"",""0.670"",""0.716""]","[1,0,1,1]",0,0,0,0,1,1,0,,,1,FALSE,,,,,,,,,,,,,,,,,,,,,,,,,,,,,,,
,6135336b7ffeb440e6a0f042,627c75c1f5d7899c66786319,2022-05-11_20h55.32.184,classification_task,2021.2.3,Win32,59.99160118,627c6715c52fd12f31907bd0,,,,,,,,,,,,,,,,,,,,,,,l,1,7.0981,"[""0.113"",""0.155"",""0.568"",""0.786""]","[1,1,0,1]",0,1,1,1,1,1,1,,,1,FALSE,,,,,,,,,,,,,,,,,,,,,,,,,,,,,,,
,6135336b7ffeb440e6a0f042,627c75c1f5d7899c66786319,2022-05-11_20h55.32.184,classification_task,2021.2.3,Win32,59.99160118,627c6715c52fd12f31907bd0,,,,,,,,,,,,,,,,,,,,,,,a,1,1.1651,"[""0.317"",""0.408"",""0.605"",""0.369""]","[1,1,1,0]",0,2,2,2,1,0,0,,,1,FALSE,,,,,,,,,,,,,,,,,,,,,,,,,,,,,,,
,6135336b7ffeb440e6a0f042,627c75c1f5d7899c66786319,2022-05-11_20h55.32.184,classification_task,2021.2.3,Win32,59.99160118,627c6715c52fd12f31907bd0,,,,,,,,,,,,,,,,,,,,,,,a,1,0.9186,"[""0.892"",""0.533"",""0.822"",""0.930""]","[0,1,1,1]",0,3,3,3,1,0,1,,,1,FALSE,,,,,,,,,,,,,,,,,,,,,,,,,,,,,,,
,6135336b7ffeb440e6a0f042,627c75c1f5d7899c66786319,2022-05-11_20h55.32.184,classification_task,2021.2.3,Win32,59.99160118,627c6715c52fd12f31907bd0,,,,,,,,,,,,,,,,,,,,,,,l,1,1.1041,"[""0.113"",""0.155"",""0.480"",""0.890""]","[1,1,1,0]",0,4,4,4,1,1,1,,,1,FALSE,,,,,,,,,,,,,,,,,,,,,,,,,,,,,,,
,6135336b7ffeb440e6a0f042,627c75c1f5d7899c66786319,2022-05-11_20h55.32.184,classification_task,2021.2.3,Win32,59.99160118,627c6715c52fd12f31907bd0,,,,,,,,,,,,,,,,,,,,,,,a,1,1.3918,"[""0.191"",""0.969"",""0.822"",""0.930""]","[1,0,1,1]",0,5,5,5,1,0,1,,,1,FALSE,,,,,,,,,,,,,,,,,,,,,,,,,,,,,,,
,6135336b7ffeb440e6a0f042,627c75c1f5d7899c66786319,2022-05-11_20h55.32.184,classification_task,2021.2.3,Win32,59.99160118,627c6715c52fd12f31907bd0,,,,,,,,,,,,,,,,,,,,,,,a,1,1.0308,"[""0.317"",""0.408"",""0.355"",""0.856""]","[1,1,0,1]",0,6,6,6,1,0,0,,,1,FALSE,,,,,,,,,,,,,,,,,,,,,,,,,,,,,,,
,6135336b7ffeb440e6a0f042,627c75c1f5d7899c66786319,2022-05-11_20h55.32.184,classification_task,2021.2.3,Win32,59.99160118,627c6715c52fd12f31907bd0,,,,,,,,,,,,,,,,,,,,,,,l,1,0.666,"[""0.113"",""0.751"",""0.480"",""0.786""]","[1,0,1,1]",0,7,7,7,1,1,1,,,1,FALSE,,,,,,,,,,,,,,,,,,,,,,,,,,,,,,,
,6135336b7ffeb440e6a0f042,627c75c1f5d7899c66786319,2022-05-11_20h55.32.184,classification_task,2021.2.3,Win32,59.99160118,627c6715c52fd12f31907bd0,,,,,,,,,,,,,,,,,,,,,,,a,1,1.3234,"[""0.191"",""0.533"",""0.822"",""0.572""]","[1,1,1,0]",0,8,8,8,1,0,1,,,1,FALSE,,,,,,,,,,,,,,,,,,,,,,,,,,,,,,,
,6135336b7ffeb440e6a0f042,627c75c1f5d7899c66786319,2022-05-11_20h55.32.184,classification_task,2021.2.3,Win32,59.99160118,627c6715c52fd12f31907bd0,,,,,,,,,,,,,,,,,,,,,,,l,1,0.8964,"[""0.045"",""0.260"",""0.670"",""0.374""]","[1,1,1,0]",0,9,9,9,1,1,0,,,1,FALSE,,,,,,,,,,,,,,,,,,,,,,,,,,,,,,,
,6135336b7ffeb440e6a0f042,627c75c1f5d7899c66786319,2022-05-11_20h55.32.184,classification_task,2021.2.3,Win32,59.99160118,627c6715c52fd12f31907bd0,,,,,,,,,,,,,,,,,,,,,,,a,0,1.125,"[""0.444"",""0.260"",""0.670"",""0.716""]","[0,1,1,1]",0,10,10,10,1,1,0,,,1,FALSE,,,,,,,,,,,,,,,,,,,,,,,,,,,,,,,
,6135336b7ffeb440e6a0f042,627c75c1f5d7899c66786319,2022-05-11_20h55.32.184,classification_task,2021.2.3,Win32,59.99160118,627c6715c52fd12f31907bd0,,,,,,,,,,,,,,,,,,,,,,,a,1,1.4961,"[""0.191"",""0.533"",""0.363"",""0.930""]","[1,1,0,1]",0,11,11,11,1,0,1,,,1,FALSE,,,,,,,,,,,,,,,,,,,,,,,,,,,,,,,
,6135336b7ffeb440e6a0f042,627c75c1f5d7899c66786319,2022-05-11_20h55.32.184,classification_task,2021.2.3,Win32,59.99160118,627c6715c52fd12f31907bd0,,,,,,,,,,,,,,,,,,,,,,,a,1,1.0177,"[""0.317"",""0.355"",""0.605"",""0.856""]","[1,0,1,1]",0,12,12,12,1,0,0,,,1,FALSE,,,,,,,,,,,,,,,,,,,,,,,,,,,,,,,
,6135336b7ffeb440e6a0f042,627c75c1f5d7899c66786319,2022-05-11_20h55.32.184,classification_task,2021.2.3,Win32,59.99160118,627c6715c52fd12f31907bd0,,,,,,,,,,,,,,,,,,,,,,,l,1,0.7497,"[""0.045"",""0.260"",""0.969"",""0.716""]","[1,1,0,1]",0,13,13,13,1,1,0,,,1,FALSE,,,,,,,,,,,,,,,,,,,,,,,,,,,,,,,
,6135336b7ffeb440e6a0f042,627c75c1f5d7899c66786319,2022-05-11_20h55.32.184,classification_task,2021.2.3,Win32,59.99160118,627c6715c52fd12f31907bd0,,,,,,,,,,,,,,,,,,,,,,,l,1,1.1955,"[""0.895"",""0.155"",""0.480"",""0.786""]","[0,1,1,1]",0,14,14,14,1,1,1,,,1,FALSE,,,,,,,,,,,,,,,,,,,,,,,,,,,,,,,
,6135336b7ffeb440e6a0f042,627c75c1f5d7899c66786319,2022-05-11_20h55.32.184,classification_task,2021.2.3,Win32,59.99160118,627c6715c52fd12f31907bd0,,,,,,,,,,,,,,,,,,,,,,,a,1,0.9285,"[""0.363"",""0.408"",""0.605"",""0.856""]","[0,1,1,1]",0,15,15,15,1,0,0,,,1,FALSE,,,,,,,,,,,,,,,,,,,,,,,,,,,,,,,
,6135336b7ffeb440e6a0f042,627c75c1f5d7899c66786319,2022-05-11_20h55.32.184,classification_task,2021.2.3,Win32,59.99160118,627c6715c52fd12f31907bd0,,,,,,,,,,,,,,,,,,,,,,,a,0,0.7673,"[""0.444"",""0.260"",""0.670"",""0.716""]","[0,1,1,1]",0,16,16,16,1,1,0,,,1,FALSE,,,,,,,,,,,,,,,,,,,,,,,,,,,,,,,
,6135336b7ffeb440e6a0f042,627c75c1f5d7899c66786319,2022-05-11_20h55.32.184,classification_task,2021.2.3,Win32,59.99160118,627c6715c52fd12f31907bd0,,,,,,,,,,,,,,,,,,,,,,,a,1,1.0028,"[""0.892"",""0.408"",""0.605"",""0.856""]","[0,1,1,1]",0,17,17,17,1,0,0,,,1,FALSE,,,,,,,,,,,,,,,,,,,,,,,,,,,,,,,
,6135336b7ffeb440e6a0f042,627c75c1f5d7899c66786319,2022-05-11_20h55.32.184,classification_task,2021.2.3,Win32,59.99160118,627c6715c52fd12f31907bd0,,,,,,,,,,,,,,,,,,,,,,,l,1,0.9676,"[""0.045"",""0.260"",""0.374"",""0.716""]","[1,1,0,1]",0,18,18,18,1,1,0,,,1,FALSE,,,,,,,,,,,,,,,,,,,,,,,,,,,,,,,
,6135336b7ffeb440e6a0f042,627c75c1f5d7899c66786319,2022-05-11_20h55.32.184,classification_task,2021.2.3,Win32,59.99160118,627c6715c52fd12f31907bd0,,,,,,,,,,,,,,,,,,,,,,,a,1,0.8542,"[""0.317"",""0.408"",""0.605"",""0.895""]","[1,1,1,0]",0,19,19,19,1,0,0,,,1,FALSE,,,,,,,,,,,,,,,,,,,,,,,,,,,,,,,
,6135336b7ffeb440e6a0f042,627c75c1f5d7899c66786319,2022-05-11_20h55.32.184,classification_task,2021.2.3,Win32,59.99160118,627c6715c52fd12f31907bd0,,,,,,,,,,,,,,,,,,,,,,,a,1,1.2507,"[""0.317"",""0.408"",""0.568"",""0.856""]","[1,1,0,1]",0,20,20,20,1,0,0,,,1,FALSE,,,,,,,,,,,,,,,,,,,,,,,,,,,,,,,
,6135336b7ffeb440e6a0f042,627c75c1f5d7899c66786319,2022-05-11_20h55.32.184,classification_task,2021.2.3,Win32,59.99160118,627c6715c52fd12f31907bd0,,,,,,,,,,,,,,,,,,,,,,,l,1,1.0624,"[""0.113"",""0.155"",""0.890"",""0.786""]","[1,1,0,1]",0,21,21,21,1,1,1,,,1,FALSE,,,,,,,,,,,,,,,,,,,,,,,,,,,,,,,
,6135336b7ffeb440e6a0f042,627c75c1f5d7899c66786319,2022-05-11_20h55.32.184,classification_task,2021.2.3,Win32,59.99160118,627c6715c52fd12f31907bd0,,,,,,,,,,,,,,,,,,,,,,,l,1,0.4829,"[""0.113"",""0.155"",""0.480"",""0.568""]","[1,1,1,0]",0,22,22,22,1,1,1,,,1,FALSE,,,,,,,,,,,,,,,,,,,,,,,,,,,,,,,
,6135336b7ffeb440e6a0f042,627c75c1f5d7899c66786319,2022-05-11_20h55.32.184,classification_task,2021.2.3,Win32,59.99160118,627c6715c52fd12f31907bd0,,,,,,,,,,,,,,,,,,,,,,,l,0,2.2846,"[""0.317"",""0.572"",""0.605"",""0.856""]","[1,0,1,1]",0,23,23,23,1,0,0,,,1,FALSE,,,,,,,,,,,,,,,,,,,,,,,,,,,,,,,
,6135336b7ffeb440e6a0f042,627c75c1f5d7899c66786319,2022-05-11_20h55.32.184,classification_task,2021.2.3,Win32,59.99160118,627c6715c52fd12f31907bd0,,,,,,,,,,,,,,,,,,,,,,,a,1,1.215,"[""0.191"",""0.895"",""0.822"",""0.930""]","[1,0,1,1]",0,24,24,24,1,0,1,,,1,FALSE,,,,,,,,,,,,,,,,,,,,,,,,,,,,,,,
,6135336b7ffeb440e6a0f042,627c75c1f5d7899c66786319,2022-05-11_20h55.32.184,classification_task,2021.2.3,Win32,59.99160118,627c6715c52fd12f31907bd0,,,,,,,,,,,,,,,,,,,,,,,a,1,0.8877,"[""0.191"",""0.533"",""0.363"",""0.930""]","[1,1,0,1]",0,25,25,25,1,0,1,,,1,FALSE,,,,,,,,,,,,,,,,,,,,,,,,,,,,,,,
,6135336b7ffeb440e6a0f042,627c75c1f5d7899c66786319,2022-05-11_20h55.32.184,classification_task,2021.2.3,Win32,59.99160118,627c6715c52fd12f31907bd0,,,,,,,,,,,,,,,,,,,,,,,l,1,0.7488,"[""0.045"",""0.359"",""0.670"",""0.716""]","[1,0,1,1]",0,26,26,26,1,1,0,,,1,FALSE,,,,,,,,,,,,,,,,,,,,,,,,,,,,,,,
,6135336b7ffeb440e6a0f042,627c75c1f5d7899c66786319,2022-05-11_20h55.32.184,classification_task,2021.2.3,Win32,59.99160118,627c6715c52fd12f31907bd0,,,,,,,,,,,,,,,,,,,,,,,l,1,0.8317,"[""0.113"",""0.366"",""0.480"",""0.786""]","[1,0,1,1]",0,27,27,27,1,1,1,,,1,FALSE,,,,,,,,,,,,,,,,,,,,,,,,,,,,,,,
,6135336b7ffeb440e6a0f042,627c75c1f5d7899c66786319,2022-05-11_20h55.32.184,classification_task,2021.2.3,Win32,59.99160118,627c6715c52fd12f31907bd0,,,,,,,,,,,,,,,,,,,,,,,l,0,1.6673,"[""0.892"",""0.533"",""0.822"",""0.930""]","[0,1,1,1]",0,28,28,28,1,0,1,,,1,FALSE,,,,,,,,,,,,,,,,,,,,,,,,,,,,,,,
,6135336b7ffeb440e6a0f042,627c75c1f5d7899c66786319,2022-05-11_20h55.32.184,classification_task,2021.2.3,Win32,59.99160118,627c6715c52fd12f31907bd0,,,,,,,,,,,,,,,,,,,,,,,l,1,0.9013,"[""0.045"",""0.260"",""0.670"",""0.890""]","[1,1,1,0]",0,29,29,29,1,1,0,,,1,FALSE,,,,,,,,,,,,,,,,,,,,,,,,,,,,,,,
,6135336b7ffeb440e6a0f042,627c75c1f5d7899c66786319,2022-05-11_20h55.32.184,classification_task,2021.2.3,Win32,59.99160118,627c6715c52fd12f31907bd0,,,,,,,,,,,,,,,,,,,,,,,a,1,1.1129,"[""0.191"",""0.533"",""0.822"",""0.359""]","[1,1,1,0]",0,30,30,30,1,0,1,,,1,FALSE,,,,,,,,,,,,,,,,,,,,,,,,,,,,,,,
,6135336b7ffeb440e6a0f042,627c75c1f5d7899c66786319,2022-05-11_20h55.32.184,classification_task,2021.2.3,Win32,59.99160118,627c6715c52fd12f31907bd0,,,,,,,,,,,,,,,,,,,,,,,l,1,0.9341,"[""0.359"",""0.155"",""0.480"",""0.786""]","[0,1,1,1]",0,31,31,31,1,1,1,,,1,FALSE,,,,,,,,,,,,,,,,,,,,,,,,,,,,,,,
,6135336b7ffeb440e6a0f042,627c75c1f5d7899c66786319,2022-05-11_20h55.32.184,classification_task,2021.2.3,Win32,59.99160118,627c6715c52fd12f31907bd0,,,,,,,,,,,,,,,,,,,,,,,l,1,0.6623,"[""0.113"",""0.155"",""0.480"",""0.892""]","[1,1,1,0]",0,32,32,32,1,1,1,,,1,FALSE,,,,,,,,,,,,,,,,,,,,,,,,,,,,,,,
,6135336b7ffeb440e6a0f042,627c75c1f5d7899c66786319,2022-05-11_20h55.32.184,classification_task,2021.2.3,Win32,59.99160118,627c6715c52fd12f31907bd0,,,,,,,,,,,,,,,,,,,,,,,a,0,1.0308,"[""0.890"",""0.260"",""0.670"",""0.716""]","[0,1,1,1]",0,33,33,33,1,1,0,,,1,FALSE,,,,,,,,,,,,,,,,,,,,,,,,,,,,,,,
,6135336b7ffeb440e6a0f042,627c75c1f5d7899c66786319,2022-05-11_20h55.32.184,classification_task,2021.2.3,Win32,59.99160118,627c6715c52fd12f31907bd0,,,,,,,,,,,,,,,,,,,,,,,a,1,1.651,"[""0.317"",""0.408"",""0.374"",""0.856""]","[1,1,0,1]",0,34,34,34,1,0,0,,,1,FALSE,,,,,,,,,,,,,,,,,,,,,,,,,,,,,,,
,6135336b7ffeb440e6a0f042,627c75c1f5d7899c66786319,2022-05-11_20h55.32.184,classification_task,2021.2.3,Win32,59.99160118,627c6715c52fd12f31907bd0,,,,,,,,,,,,,,,,,,,,,,,a,1,1.3438,"[""0.191"",""0.363"",""0.822"",""0.930""]","[1,0,1,1]",0,35,35,35,1,0,1,,,1,FALSE,,,,,,,,,,,,,,,,,,,,,,,,,,,,,,,
,6135336b7ffeb440e6a0f042,627c75c1f5d7899c66786319,2022-05-11_20h55.32.184,classification_task,2021.2.3,Win32,59.99160118,627c6715c52fd12f31907bd0,,,,,,,,,,,,,,,,,,,,,,,l,1,0.7895,"[""0.045"",""0.260"",""0.890"",""0.716""]","[1,1,0,1]",0,36,36,36,1,1,0,,,1,FALSE,,,,,,,,,,,,,,,,,,,,,,,,,,,,,,,
,6135336b7ffeb440e6a0f042,627c75c1f5d7899c66786319,2022-05-11_20h55.32.184,classification_task,2021.2.3,Win32,59.99160118,627c6715c52fd12f31907bd0,,,,,,,,,,,,,,,,,,,,,,,a,1,0.9057,"[""0.317"",""0.408"",""0.605"",""0.568""]","[1,1,1,0]",0,37,37,37,1,0,0,,,1,FALSE,,,,,,,,,,,,,,,,,,,,,,,,,,,,,,,
,6135336b7ffeb440e6a0f042,627c75c1f5d7899c66786319,2022-05-11_20h55.32.184,classification_task,2021.2.3,Win32,59.99160118,627c6715c52fd12f31907bd0,,,,,,,,,,,,,,,,,,,,,,,l,1,0.75,"[""0.355"",""0.155"",""0.480"",""0.786""]","[0,1,1,1]",0,38,38,38,1,1,1,,,1,FALSE,,,,,,,,,,,,,,,,,,,,,,,,,,,,,,,
,6135336b7ffeb440e6a0f042,627c75c1f5d7899c66786319,2022-05-11_20h55.32.184,classification_task,2021.2.3,Win32,59.99160118,627c6715c52fd12f31907bd0,,,,,,,,,,,,,,,,,,,,,,,a,1,1.0505,"[""0.191"",""0.533"",""0.822"",""0.572""]","[1,1,1,0]",0,39,39,39,1,0,1,,,1,FALSE,,,,,,,,,,,,,,,,,,,,,,,,,,,,,,,
,6135336b7ffeb440e6a0f042,627c75c1f5d7899c66786319,2022-05-11_20h55.32.184,classification_task,2021.2.3,Win32,59.99160118,627c6715c52fd12f31907bd0,,,,,,,,,,,,,,,,,,,,,,,l,1,0.7138,"[""0.045"",""0.969"",""0.670"",""0.716""]","[1,0,1,1]",0,40,40,40,1,1,0,,,1,FALSE,,,,,,,,,,,,,,,,,,,,,,,,,,,,,,,
,6135336b7ffeb440e6a0f042,627c75c1f5d7899c66786319,2022-05-11_20h55.32.184,classification_task,2021.2.3,Win32,59.99160118,627c6715c52fd12f31907bd0,,,,,,,,,,,,,,,,,,,,,,,a,1,2.0292,"[""0.191"",""0.533"",""0.355"",""0.930""]","[1,1,0,1]",0,41,41,41,1,0,1,,,1,FALSE,,,,,,,,,,,,,,,,,,,,,,,,,,,,,,,
,6135336b7ffeb440e6a0f042,627c75c1f5d7899c66786319,2022-05-11_20h55.32.184,classification_task,2021.2.3,Win32,59.99160118,627c6715c52fd12f31907bd0,,,,,,,,,,,,,,,,,,,,,,,l,1,0.6001,"[""0.113"",""0.155"",""0.363"",""0.786""]","[1,1,0,1]",0,42,42,42,1,1,1,,,1,FALSE,,,,,,,,,,,,,,,,,,,,,,,,,,,,,,,
,6135336b7ffeb440e6a0f042,627c75c1f5d7899c66786319,2022-05-11_20h55.32.184,classification_task,2021.2.3,Win32,59.99160118,627c6715c52fd12f31907bd0,,,,,,,,,,,,,,,,,,,,,,,a,1,1.4443,"[""0.969"",""0.408"",""0.605"",""0.856""]","[0,1,1,1]",0,43,43,43,1,0,0,,,1,FALSE,,,,,,,,,,,,,,,,,,,,,,,,,,,,,,,
,6135336b7ffeb440e6a0f042,627c75c1f5d7899c66786319,2022-05-11_20h55.32.184,classification_task,2021.2.3,Win32,59.99160118,627c6715c52fd12f31907bd0,,,,,,,,,,,,,,,,,,,,,,,l,1,0.6342,"[""0.045"",""0.260"",""0.670"",""0.969""]","[1,1,1,0]",0,44,44,44,1,1,0,,,1,FALSE,,,,,,,,,,,,,,,,,,,,,,,,,,,,,,,
,6135336b7ffeb440e6a0f042,627c75c1f5d7899c66786319,2022-05-11_20h55.32.184,classification_task,2021.2.3,Win32,59.99160118,627c6715c52fd12f31907bd0,,,,,,,,,,,,,,,,,,,,,,,l,1,1.8486,"[""0.113"",""0.374"",""0.480"",""0.786""]","[1,0,1,1]",0,45,45,45,1,1,1,,,1,FALSE,,,,,,,,,,,,,,,,,,,,,,,,,,,,,,,
,6135336b7ffeb440e6a0f042,627c75c1f5d7899c66786319,2022-05-11_20h55.32.184,classification_task,2021.2.3,Win32,59.99160118,627c6715c52fd12f31907bd0,,,,,,,,,,,,,,,,,,,,,,,a,1,1.3788,"[""0.317"",""0.369"",""0.605"",""0.856""]","[1,0,1,1]",0,46,46,46,1,0,0,,,1,FALSE,,,,,,,,,,,,,,,,,,,,,,,,,,,,,,,
,6135336b7ffeb440e6a0f042,627c75c1f5d7899c66786319,2022-05-11_20h55.32.184,classification_task,2021.2.3,Win32,59.99160118,627c6715c52fd12f31907bd0,,,,,,,,,,,,,,,,,,,,,,,a,1,0.8484,"[""0.895"",""0.533"",""0.822"",""0.930""]","[0,1,1,1]",0,47,47,47,1,0,1,,,1,FALSE,,,,,,,,,,,,,,,,,,,,,,,,,,,,,,,
,6135336b7ffeb440e6a0f042,627c75c1f5d7899c66786319,2022-05-11_20h55.32.184,classification_task,2021.2.3,Win32,59.99160118,627c6715c52fd12f31907bd0,,,,,,,,,,,,,,,,,,,,,,,l,1,0.6005,"[""0.113"",""0.568"",""0.480"",""0.786""]","[1,0,1,1]",0,48,48,48,1,1,1,,,1,FALSE,,,,,,,,,,,,,,,,,,,,,,,,,,,,,,,
,6135336b7ffeb440e6a0f042,627c75c1f5d7899c66786319,2022-05-11_20h55.32.184,classification_task,2021.2.3,Win32,59.99160118,627c6715c52fd12f31907bd0,,,,,,,,,,,,,,,,,,,,,,,a,1,0.8204,"[""0.191"",""0.533"",""0.822"",""0.363""]","[1,1,1,0]",0,49,49,49,1,0,1,,,1,FALSE,,,,,,,,,,,,,,,,,,,,,,,,,,,,,,,
,6135336b7ffeb440e6a0f042,627c75c1f5d7899c66786319,2022-05-11_20h55.32.184,classification_task,2021.2.3,Win32,59.99160118,627c6715c52fd12f31907bd0,,,,,,,,,,,,,,,,,,,,,,,a,1,1.4498,"[""0.363"",""0.533"",""0.822"",""0.930""]","[0,1,1,1]",0,50,50,50,1,0,1,,,1,FALSE,,,,,,,,,,,,,,,,,,,,,,,,,,,,,,,
,6135336b7ffeb440e6a0f042,627c75c1f5d7899c66786319,2022-05-11_20h55.32.184,classification_task,2021.2.3,Win32,59.99160118,627c6715c52fd12f31907bd0,,,,,,,,,,,,,,,,,,,,,,,l,1,0.6677,"[""0.045"",""0.260"",""0.670"",""0.969""]","[1,1,1,0]",0,51,51,51,1,1,0,,,1,FALSE,,,,,,,,,,,,,,,,,,,,,,,,,,,,,,,
,6135336b7ffeb440e6a0f042,627c75c1f5d7899c66786319,2022-05-11_20h55.32.184,classification_task,2021.2.3,Win32,59.99160118,627c6715c52fd12f31907bd0,,,,,,,,,,,,,,,,,,,,,,,l,1,0.5674,"[""0.045"",""0.260"",""0.359"",""0.716""]","[1,1,0,1]",0,52,52,52,1,1,0,,,1,FALSE,,,,,,,,,,,,,,,,,,,,,,,,,,,,,,,
,6135336b7ffeb440e6a0f042,627c75c1f5d7899c66786319,2022-05-11_20h55.32.184,classification_task,2021.2.3,Win32,59.99160118,627c6715c52fd12f31907bd0,,,,,,,,,,,,,,,,,,,,,,,l,1,0.5817,"[""0.045"",""0.355"",""0.670"",""0.716""]","[1,0,1,1]",0,53,53,53,1,1,0,,,1,FALSE,,,,,,,,,,,,,,,,,,,,,,,,,,,,,,,
,6135336b7ffeb440e6a0f042,627c75c1f5d7899c66786319,2022-05-11_20h55.32.184,classification_task,2021.2.3,Win32,59.99160118,627c6715c52fd12f31907bd0,,,,,,,,,,,,,,,,,,,,,,,a,1,0.719,"[""0.317"",""0.363"",""0.605"",""0.856""]","[1,0,1,1]",0,54,54,54,1,0,0,,,1,FALSE,,,,,,,,,,,,,,,,,,,,,,,,,,,,,,,
,6135336b7ffeb440e6a0f042,627c75c1f5d7899c66786319,2022-05-11_20h55.32.184,classification_task,2021.2.3,Win32,59.99160118,627c6715c52fd12f31907bd0,,,,,,,,,,,,,,,,,,,,,,,a,0,0.8694,"[""0.751"",""0.260"",""0.670"",""0.716""]","[0,1,1,1]",0,55,55,55,1,1,0,,,1,FALSE,,,,,,,,,,,,,,,,,,,,,,,,,,,,,,,
,6135336b7ffeb440e6a0f042,627c75c1f5d7899c66786319,2022-05-11_20h55.32.184,classification_task,2021.2.3,Win32,59.99160118,627c6715c52fd12f31907bd0,,,,,,,,,,,,,,,,,,,,,,,a,1,0.8001,"[""0.317"",""0.408"",""0.605"",""0.359""]","[1,1,1,0]",0,56,56,56,1,0,0,,,1,FALSE,,,,,,,,,,,,,,,,,,,,,,,,,,,,,,,
,6135336b7ffeb440e6a0f042,627c75c1f5d7899c66786319,2022-05-11_20h55.32.184,classification_task,2021.2.3,Win32,59.99160118,627c6715c52fd12f31907bd0,,,,,,,,,,,,,,,,,,,,,,,l,1,0.8153,"[""0.892"",""0.155"",""0.480"",""0.786""]","[0,1,1,1]",0,57,57,57,1,1,1,,,1,FALSE,,,,,,,,,,,,,,,,,,,,,,,,,,,,,,,
,6135336b7ffeb440e6a0f042,627c75c1f5d7899c66786319,2022-05-11_20h55.32.184,classification_task,2021.2.3,Win32,59.99160118,627c6715c52fd12f31907bd0,,,,,,,,,,,,,,,,,,,,,,,l,1,0.4676,"[""0.113"",""0.155"",""0.892"",""0.786""]","[1,1,0,1]",0,58,58,58,1,1,1,,,1,FALSE,,,,,,,,,,,,,,,,,,,,,,,,,,,,,,,
,6135336b7ffeb440e6a0f042,627c75c1f5d7899c66786319,2022-05-11_20h55.32.184,classification_task,2021.2.3,Win32,59.99160118,627c6715c52fd12f31907bd0,,,,,,,,,,,,,,,,,,,,,,,a,1,0.6396,"[""0.366"",""0.408"",""0.605"",""0.856""]","[0,1,1,1]",0,59,59,59,1,0,0,,,1,FALSE,,,,,,,,,,,,,,,,,,,,,,,,,,,,,,,
,6135336b7ffeb440e6a0f042,627c75c1f5d7899c66786319,2022-05-11_20h55.32.184,classification_task,2021.2.3,Win32,59.99160118,627c6715c52fd12f31907bd0,,,,,,,,,,,,,,,,,,,,,,,a,1,0.866,"[""0.191"",""0.969"",""0.822"",""0.930""]","[1,0,1,1]",0,60,60,60,1,0,1,,,1,FALSE,,,,,,,,,,,,,,,,,,,,,,,,,,,,,,,
,6135336b7ffeb440e6a0f042,627c75c1f5d7899c66786319,2022-05-11_20h55.32.184,classification_task,2021.2.3,Win32,59.99160118,627c6715c52fd12f31907bd0,,,,,,,,,,,,,,,,,,,,,,,l,1,0.4675,"[""0.113"",""0.155"",""0.480"",""0.892""]","[1,1,1,0]",0,61,61,61,1,1,1,,,1,FALSE,,,,,,,,,,,,,,,,,,,,,,,,,,,,,,,
,6135336b7ffeb440e6a0f042,627c75c1f5d7899c66786319,2022-05-11_20h55.32.184,classification_task,2021.2.3,Win32,59.99160118,627c6715c52fd12f31907bd0,,,,,,,,,,,,,,,,,,,,,,,a,1,0.7838,"[""0.191"",""0.533"",""0.892"",""0.930""]","[1,1,0,1]",0,62,62,62,1,0,1,,,1,FALSE,,,,,,,,,,,,,,,,,,,,,,,,,,,,,,,
,6135336b7ffeb440e6a0f042,627c75c1f5d7899c66786319,2022-05-11_20h55.32.184,classification_task,2021.2.3,Win32,59.99160118,627c6715c52fd12f31907bd0,,,,,,,,,,,,,,,,,,,,,,,a,1,1.0801,"[""0.317"",""0.408"",""0.969"",""0.856""]","[1,1,0,1]",0,63,63,63,1,0,0,,,1,FALSE,,,,,,,,,,,,,,,,,,,,,,,,,,,,,,,
,6135336b7ffeb440e6a0f042,627c75c1f5d7899c66786319,2022-05-11_20h55.32.184,classification_task,2021.2.3,Win32,59.99160118,627c6715c52fd12f31907bd0,,,,,,,,,,,,,,,,,,,,,,,,,,,,,,,,,,,,,,,0, ,,0,3.277667549,161.6665,0,1,1,1,1,2,2,,,,,,,,,,,,,,,,,,
,6135336b7ffeb440e6a0f042,627c75c1f5d7899c66786319,2022-05-11_20h55.32.184,classification_task,2021.2.3,Win32,59.99160118,627c6715c52fd12f31907bd0,,,,,,,,,,,,,,,,,,,,,,,,,,,,,,,,,,,,,,,1,  ,,0,1.314208554,163.1212,0,1,1,1,1,2,2,,,,,,,,,,,,,,,,,,
,6135336b7ffeb440e6a0f042,627c75c1f5d7899c66786319,2022-05-11_20h55.32.184,classification_task,2021.2.3,Win32,59.99160118,627c6715c52fd12f31907bd0,,,,,,,,,,,,,,,,,,,,,,,,,,,,,,,,,,,,,,,2,  ,,0,0.418595679,165.152,0,1,1,1,1,2,2,,,,,,,,,,,,,,,,,,
,6135336b7ffeb440e6a0f042,627c75c1f5d7899c66786319,2022-05-11_20h55.32.184,classification_task,2021.2.3,Win32,59.99160118,627c6715c52fd12f31907bd0,,,,,,,,,,,,,,,,,,,,,,,,,,,,,,,,,,,,,,,,,,,,,0,1,1,1,1,,2,,,,,,,,,,,,,,,,,,
,6135336b7ffeb440e6a0f042,627c75c1f5d7899c66786319,2022-05-11_20h55.32.184,classification_task,2021.2.3,Win32,59.99160118,627c6715c52fd12f31907bd0,,,,,,,,,,,,,,,,,,,,,space,6.4696,l,1,0.9443,"[""0.045"",""0.260"",""0.670"",""0.572""]","[1,1,1,0]",0,0,0,0,1,1,0,,,1,FALSE,,,,,,,,,,,,,,,,,,,,,,,,,,,,,,,
,6135336b7ffeb440e6a0f042,627c75c1f5d7899c66786319,2022-05-11_20h55.32.184,classification_task,2021.2.3,Win32,59.99160118,627c6715c52fd12f31907bd0,,,,,,,,,,,,,,,,,,,,,,,l,1,0.7552,"[""0.113"",""0.155"",""0.480"",""0.363""]","[1,1,1,0]",0,1,1,1,1,1,1,,,1,FALSE,,,,,,,,,,,,,,,,,,,,,,,,,,,,,,,
,6135336b7ffeb440e6a0f042,627c75c1f5d7899c66786319,2022-05-11_20h55.32.184,classification_task,2021.2.3,Win32,59.99160118,627c6715c52fd12f31907bd0,,,,,,,,,,,,,,,,,,,,,,,l,1,0.7175,"[""0.045"",""0.260"",""0.895"",""0.716""]","[1,1,0,1]",0,2,2,2,1,1,0,,,1,FALSE,,,,,,,,,,,,,,,,,,,,,,,,,,,,,,,
,6135336b7ffeb440e6a0f042,627c75c1f5d7899c66786319,2022-05-11_20h55.32.184,classification_task,2021.2.3,Win32,59.99160118,627c6715c52fd12f31907bd0,,,,,,,,,,,,,,,,,,,,,,,a,1,0.7276,"[""0.317"",""0.408"",""0.605"",""0.366""]","[1,1,1,0]",0,3,3,3,1,0,0,,,1,FALSE,,,,,,,,,,,,,,,,,,,,,,,,,,,,,,,
,6135336b7ffeb440e6a0f042,627c75c1f5d7899c66786319,2022-05-11_20h55.32.184,classification_task,2021.2.3,Win32,59.99160118,627c6715c52fd12f31907bd0,,,,,,,,,,,,,,,,,,,,,,,l,1,0.8034,"[""0.045"",""0.444"",""0.670"",""0.716""]","[1,0,1,1]",0,4,4,4,1,1,0,,,1,FALSE,,,,,,,,,,,,,,,,,,,,,,,,,,,,,,,
,6135336b7ffeb440e6a0f042,627c75c1f5d7899c66786319,2022-05-11_20h55.32.184,classification_task,2021.2.3,Win32,59.99160118,627c6715c52fd12f31907bd0,,,,,,,,,,,,,,,,,,,,,,,a,1,0.9533,"[""0.374"",""0.533"",""0.822"",""0.930""]","[0,1,1,1]",0,5,5,5,1,0,1,,,1,FALSE,,,,,,,,,,,,,,,,,,,,,,,,,,,,,,,
,6135336b7ffeb440e6a0f042,627c75c1f5d7899c66786319,2022-05-11_20h55.32.184,classification_task,2021.2.3,Win32,59.99160118,627c6715c52fd12f31907bd0,,,,,,,,,,,,,,,,,,,,,,,a,1,1.0317,"[""0.317"",""0.408"",""0.369"",""0.856""]","[1,1,0,1]",0,6,6,6,1,0,0,,,1,FALSE,,,,,,,,,,,,,,,,,,,,,,,,,,,,,,,
,6135336b7ffeb440e6a0f042,627c75c1f5d7899c66786319,2022-05-11_20h55.32.184,classification_task,2021.2.3,Win32,59.99160118,627c6715c52fd12f31907bd0,,,,,,,,,,,,,,,,,,,,,,,a,1,0.6766,"[""0.890"",""0.408"",""0.605"",""0.856""]","[0,1,1,1]",0,7,7,7,1,0,0,,,1,FALSE,,,,,,,,,,,,,,,,,,,,,,,,,,,,,,,
,6135336b7ffeb440e6a0f042,627c75c1f5d7899c66786319,2022-05-11_20h55.32.184,classification_task,2021.2.3,Win32,59.99160118,627c6715c52fd12f31907bd0,,,,,,,,,,,,,,,,,,,,,,,a,1,1.3003,"[""0.191"",""0.533"",""0.892"",""0.930""]","[1,1,0,1]",0,8,8,8,1,0,1,,,1,FALSE,,,,,,,,,,,,,,,,,,,,,,,,,,,,,,,
,6135336b7ffeb440e6a0f042,627c75c1f5d7899c66786319,2022-05-11_20h55.32.184,classification_task,2021.2.3,Win32,59.99160118,627c6715c52fd12f31907bd0,,,,,,,,,,,,,,,,,,,,,,,l,1,0.5645,"[""0.969"",""0.155"",""0.480"",""0.786""]","[0,1,1,1]",0,9,9,9,1,1,1,,,1,FALSE,,,,,,,,,,,,,,,,,,,,,,,,,,,,,,,
,6135336b7ffeb440e6a0f042,627c75c1f5d7899c66786319,2022-05-11_20h55.32.184,classification_task,2021.2.3,Win32,59.99160118,627c6715c52fd12f31907bd0,,,,,,,,,,,,,,,,,,,,,,,a,1,1.1688,"[""0.191"",""0.533"",""0.822"",""0.892""]","[1,1,1,0]",0,10,10,10,1,0,1,,,1,FALSE,,,,,,,,,,,,,,,,,,,,,,,,,,,,,,,
,6135336b7ffeb440e6a0f042,627c75c1f5d7899c66786319,2022-05-11_20h55.32.184,classification_task,2021.2.3,Win32,59.99160118,627c6715c52fd12f31907bd0,,,,,,,,,,,,,,,,,,,,,,,a,0,1.0342,"[""0.895"",""0.260"",""0.670"",""0.716""]","[0,1,1,1]",0,11,11,11,1,1,0,,,1,FALSE,,,,,,,,,,,,,,,,,,,,,,,,,,,,,,,
,6135336b7ffeb440e6a0f042,627c75c1f5d7899c66786319,2022-05-11_20h55.32.184,classification_task,2021.2.3,Win32,59.99160118,627c6715c52fd12f31907bd0,,,,,,,,,,,,,,,,,,,,,,,a,1,0.6659,"[""0.191"",""0.572"",""0.822"",""0.930""]","[1,0,1,1]",0,12,12,12,1,0,1,,,1,FALSE,,,,,,,,,,,,,,,,,,,,,,,,,,,,,,,
,6135336b7ffeb440e6a0f042,627c75c1f5d7899c66786319,2022-05-11_20h55.32.184,classification_task,2021.2.3,Win32,59.99160118,627c6715c52fd12f31907bd0,,,,,,,,,,,,,,,,,,,,,,,l,1,0.6014,"[""0.113"",""0.155"",""0.572"",""0.786""]","[1,1,0,1]",0,13,13,13,1,1,1,,,1,FALSE,,,,,,,,,,,,,,,,,,,,,,,,,,,,,,,
,6135336b7ffeb440e6a0f042,627c75c1f5d7899c66786319,2022-05-11_20h55.32.184,classification_task,2021.2.3,Win32,59.99160118,627c6715c52fd12f31907bd0,,,,,,,,,,,,,,,,,,,,,,,a,1,1.0001,"[""0.317"",""0.890"",""0.605"",""0.856""]","[1,0,1,1]",0,14,14,14,1,0,0,,,1,FALSE,,,,,,,,,,,,,,,,,,,,,,,,,,,,,,,
,6135336b7ffeb440e6a0f042,627c75c1f5d7899c66786319,2022-05-11_20h55.32.184,classification_task,2021.2.3,Win32,59.99160118,627c6715c52fd12f31907bd0,,,,,,,,,,,,,,,,,,,,,,,l,1,0.8336,"[""0.113"",""0.969"",""0.480"",""0.786""]","[1,0,1,1]",0,15,15,15,1,1,1,,,1,FALSE,,,,,,,,,,,,,,,,,,,,,,,,,,,,,,,
,6135336b7ffeb440e6a0f042,627c75c1f5d7899c66786319,2022-05-11_20h55.32.184,classification_task,2021.2.3,Win32,59.99160118,627c6715c52fd12f31907bd0,,,,,,,,,,,,,,,,,,,,,,,a,1,0.9844,"[""0.317"",""0.408"",""0.605"",""0.890""]","[1,1,1,0]",0,16,16,16,1,0,0,,,1,FALSE,,,,,,,,,,,,,,,,,,,,,,,,,,,,,,,
,6135336b7ffeb440e6a0f042,627c75c1f5d7899c66786319,2022-05-11_20h55.32.184,classification_task,2021.2.3,Win32,59.99160118,627c6715c52fd12f31907bd0,,,,,,,,,,,,,,,,,,,,,,,l,1,0.6182,"[""0.113"",""0.155"",""0.369"",""0.786""]","[1,1,0,1]",0,17,17,17,1,1,1,,,1,FALSE,,,,,,,,,,,,,,,,,,,,,,,,,,,,,,,
,6135336b7ffeb440e6a0f042,627c75c1f5d7899c66786319,2022-05-11_20h55.32.184,classification_task,2021.2.3,Win32,59.99160118,627c6715c52fd12f31907bd0,,,,,,,,,,,,,,,,,,,,,,,a,0,0.8537,"[""0.751"",""0.260"",""0.670"",""0.716""]","[0,1,1,1]",0,18,18,18,1,1,0,,,1,FALSE,,,,,,,,,,,,,,,,,,,,,,,,,,,,,,,
,6135336b7ffeb440e6a0f042,627c75c1f5d7899c66786319,2022-05-11_20h55.32.184,classification_task,2021.2.3,Win32,59.99160118,627c6715c52fd12f31907bd0,,,,,,,,,,,,,,,,,,,,,,,a,1,0.7341,"[""0.191"",""0.359"",""0.822"",""0.930""]","[1,0,1,1]",0,19,19,19,1,0,1,,,1,FALSE,,,,,,,,,,,,,,,,,,,,,,,,,,,,,,,
,6135336b7ffeb440e6a0f042,627c75c1f5d7899c66786319,2022-05-11_20h55.32.184,classification_task,2021.2.3,Win32,59.99160118,627c6715c52fd12f31907bd0,,,,,,,,,,,,,,,,,,,,,,,l,1,0.7037,"[""0.045"",""0.444"",""0.670"",""0.716""]","[1,0,1,1]",0,20,20,20,1,1,0,,,1,FALSE,,,,,,,,,,,,,,,,,,,,,,,,,,,,,,,
,6135336b7ffeb440e6a0f042,627c75c1f5d7899c66786319,2022-05-11_20h55.32.184,classification_task,2021.2.3,Win32,59.99160118,627c6715c52fd12f31907bd0,,,,,,,,,,,,,,,,,,,,,,,l,1,1.0038,"[""0.045"",""0.260"",""0.670"",""0.366""]","[1,1,1,0]",0,21,21,21,1,1,0,,,1,FALSE,,,,,,,,,,,,,,,,,,,,,,,,,,,,,,,
,6135336b7ffeb440e6a0f042,627c75c1f5d7899c66786319,2022-05-11_20h55.32.184,classification_task,2021.2.3,Win32,59.99160118,627c6715c52fd12f31907bd0,,,,,,,,,,,,,,,,,,,,,,,a,1,2.0322,"[""0.317"",""0.892"",""0.605"",""0.856""]","[1,0,1,1]",0,22,22,22,1,0,0,,,1,FALSE,,,,,,,,,,,,,,,,,,,,,,,,,,,,,,,
,6135336b7ffeb440e6a0f042,627c75c1f5d7899c66786319,2022-05-11_20h55.32.184,classification_task,2021.2.3,Win32,59.99160118,627c6715c52fd12f31907bd0,,,,,,,,,,,,,,,,,,,,,,,l,1,0.8146,"[""0.113"",""0.363"",""0.480"",""0.786""]","[1,0,1,1]",0,23,23,23,1,1,1,,,1,FALSE,,,,,,,,,,,,,,,,,,,,,,,,,,,,,,,
,6135336b7ffeb440e6a0f042,627c75c1f5d7899c66786319,2022-05-11_20h55.32.184,classification_task,2021.2.3,Win32,59.99160118,627c6715c52fd12f31907bd0,,,,,,,,,,,,,,,,,,,,,,,a,1,0.8452,"[""0.317"",""0.408"",""0.892"",""0.856""]","[1,1,0,1]",0,24,24,24,1,0,0,,,1,FALSE,,,,,,,,,,,,,,,,,,,,,,,,,,,,,,,
,6135336b7ffeb440e6a0f042,627c75c1f5d7899c66786319,2022-05-11_20h55.32.184,classification_task,2021.2.3,Win32,59.99160118,627c6715c52fd12f31907bd0,,,,,,,,,,,,,,,,,,,,,,,a,1,0.8363,"[""0.191"",""0.533"",""0.751"",""0.930""]","[1,1,0,1]",0,25,25,25,1,0,1,,,1,FALSE,,,,,,,,,,,,,,,,,,,,,,,,,,,,,,,
,6135336b7ffeb440e6a0f042,627c75c1f5d7899c66786319,2022-05-11_20h55.32.184,classification_task,2021.2.3,Win32,59.99160118,627c6715c52fd12f31907bd0,,,,,,,,,,,,,,,,,,,,,,,a,1,0.8003,"[""0.191"",""0.533"",""0.822"",""0.751""]","[1,1,1,0]",0,26,26,26,1,0,1,,,1,FALSE,,,,,,,,,,,,,,,,,,,,,,,,,,,,,,,
,6135336b7ffeb440e6a0f042,627c75c1f5d7899c66786319,2022-05-11_20h55.32.184,classification_task,2021.2.3,Win32,59.99160118,627c6715c52fd12f31907bd0,,,,,,,,,,,,,,,,,,,,,,,a,1,0.6648,"[""0.355"",""0.533"",""0.822"",""0.930""]","[0,1,1,1]",0,27,27,27,1,0,1,,,1,FALSE,,,,,,,,,,,,,,,,,,,,,,,,,,,,,,,
,6135336b7ffeb440e6a0f042,627c75c1f5d7899c66786319,2022-05-11_20h55.32.184,classification_task,2021.2.3,Win32,59.99160118,627c6715c52fd12f31907bd0,,,,,,,,,,,,,,,,,,,,,,,l,1,0.5381,"[""0.045"",""0.260"",""0.890"",""0.716""]","[1,1,0,1]",0,28,28,28,1,1,0,,,1,FALSE,,,,,,,,,,,,,,,,,,,,,,,,,,,,,,,
,6135336b7ffeb440e6a0f042,627c75c1f5d7899c66786319,2022-05-11_20h55.32.184,classification_task,2021.2.3,Win32,59.99160118,627c6715c52fd12f31907bd0,,,,,,,,,,,,,,,,,,,,,,,l,1,0.7617,"[""0.355"",""0.155"",""0.480"",""0.786""]","[0,1,1,1]",0,29,29,29,1,1,1,,,1,FALSE,,,,,,,,,,,,,,,,,,,,,,,,,,,,,,,
,6135336b7ffeb440e6a0f042,627c75c1f5d7899c66786319,2022-05-11_20h55.32.184,classification_task,2021.2.3,Win32,59.99160118,627c6715c52fd12f31907bd0,,,,,,,,,,,,,,,,,,,,,,,a,1,0.5991,"[""0.751"",""0.408"",""0.605"",""0.856""]","[0,1,1,1]",0,30,30,30,1,0,0,,,1,FALSE,,,,,,,,,,,,,,,,,,,,,,,,,,,,,,,
,6135336b7ffeb440e6a0f042,627c75c1f5d7899c66786319,2022-05-11_20h55.32.184,classification_task,2021.2.3,Win32,59.99160118,627c6715c52fd12f31907bd0,,,,,,,,,,,,,,,,,,,,,,,l,1,0.5304,"[""0.113"",""0.155"",""0.480"",""0.363""]","[1,1,1,0]",0,31,31,31,1,1,1,,,1,FALSE,,,,,,,,,,,,,,,,,,,,,,,,,,,,,,,
,6135336b7ffeb440e6a0f042,627c75c1f5d7899c66786319,2022-05-11_20h55.32.184,classification_task,2021.2.3,Win32,59.99160118,627c6715c52fd12f31907bd0,,,,,,,,,,,,,,,,,,,,,,,a,1,0.6031,"[""0.317"",""0.568"",""0.605"",""0.856""]","[1,0,1,1]",0,32,32,32,1,0,0,,,1,FALSE,,,,,,,,,,,,,,,,,,,,,,,,,,,,,,,
,6135336b7ffeb440e6a0f042,627c75c1f5d7899c66786319,2022-05-11_20h55.32.184,classification_task,2021.2.3,Win32,59.99160118,627c6715c52fd12f31907bd0,,,,,,,,,,,,,,,,,,,,,,,a,1,0.7658,"[""0.191"",""0.892"",""0.822"",""0.930""]","[1,0,1,1]",0,33,33,33,1,0,1,,,1,FALSE,,,,,,,,,,,,,,,,,,,,,,,,,,,,,,,
,6135336b7ffeb440e6a0f042,627c75c1f5d7899c66786319,2022-05-11_20h55.32.184,classification_task,2021.2.3,Win32,59.99160118,627c6715c52fd12f31907bd0,,,,,,,,,,,,,,,,,,,,,,,a,1,0.549,"[""0.363"",""0.533"",""0.822"",""0.930""]","[0,1,1,1]",0,34,34,34,1,0,1,,,1,FALSE,,,,,,,,,,,,,,,,,,,,,,,,,,,,,,,
,6135336b7ffeb440e6a0f042,627c75c1f5d7899c66786319,2022-05-11_20h55.32.184,classification_task,2021.2.3,Win32,59.99160118,627c6715c52fd12f31907bd0,,,,,,,,,,,,,,,,,,,,,,,a,1,0.5731,"[""0.191"",""0.533"",""0.895"",""0.930""]","[1,1,0,1]",0,35,35,35,1,0,1,,,1,FALSE,,,,,,,,,,,,,,,,,,,,,,,,,,,,,,,
,6135336b7ffeb440e6a0f042,627c75c1f5d7899c66786319,2022-05-11_20h55.32.184,classification_task,2021.2.3,Win32,59.99160118,627c6715c52fd12f31907bd0,,,,,,,,,,,,,,,,,,,,,,,l,1,0.5845,"[""0.113"",""0.155"",""0.480"",""0.366""]","[1,1,1,0]",0,36,36,36,1,1,1,,,1,FALSE,,,,,,,,,,,,,,,,,,,,,,,,,,,,,,,
,6135336b7ffeb440e6a0f042,627c75c1f5d7899c66786319,2022-05-11_20h55.32.184,classification_task,2021.2.3,Win32,59.99160118,627c6715c52fd12f31907bd0,,,,,,,,,,,,,,,,,,,,,,,l,1,0.6468,"[""0.045"",""0.260"",""0.374"",""0.716""]","[1,1,0,1]",0,37,37,37,1,1,0,,,1,FALSE,,,,,,,,,,,,,,,,,,,,,,,,,,,,,,,
,6135336b7ffeb440e6a0f042,627c75c1f5d7899c66786319,2022-05-11_20h55.32.184,classification_task,2021.2.3,Win32,59.99160118,627c6715c52fd12f31907bd0,,,,,,,,,,,,,,,,,,,,,,,a,1,0.8517,"[""0.317"",""0.408"",""0.605"",""0.895""]","[1,1,1,0]",0,38,38,38,1,0,0,,,1,FALSE,,,,,,,,,,,,,,,,,,,,,,,,,,,,,,,
,6135336b7ffeb440e6a0f042,627c75c1f5d7899c66786319,2022-05-11_20h55.32.184,classification_task,2021.2.3,Win32,59.99160118,627c6715c52fd12f31907bd0,,,,,,,,,,,,,,,,,,,,,,,a,1,0.8518,"[""0.191"",""0.533"",""0.822"",""0.363""]","[1,1,1,0]",0,39,39,39,1,0,1,,,1,FALSE,,,,,,,,,,,,,,,,,,,,,,,,,,,,,,,
,6135336b7ffeb440e6a0f042,627c75c1f5d7899c66786319,2022-05-11_20h55.32.184,classification_task,2021.2.3,Win32,59.99160118,627c6715c52fd12f31907bd0,,,,,,,,,,,,,,,,,,,,,,,a,0,0.6978,"[""0.890"",""0.260"",""0.670"",""0.716""]","[0,1,1,1]",0,40,40,40,1,1,0,,,1,FALSE,,,,,,,,,,,,,,,,,,,,,,,,,,,,,,,
,6135336b7ffeb440e6a0f042,627c75c1f5d7899c66786319,2022-05-11_20h55.32.184,classification_task,2021.2.3,Win32,59.99160118,627c6715c52fd12f31907bd0,,,,,,,,,,,,,,,,,,,,,,,l,1,0.6628,"[""0.892"",""0.155"",""0.480"",""0.786""]","[0,1,1,1]",0,41,41,41,1,1,1,,,1,FALSE,,,,,,,,,,,,,,,,,,,,,,,,,,,,,,,
,6135336b7ffeb440e6a0f042,627c75c1f5d7899c66786319,2022-05-11_20h55.32.184,classification_task,2021.2.3,Win32,59.99160118,627c6715c52fd12f31907bd0,,,,,,,,,,,,,,,,,,,,,,,l,1,0.4691,"[""0.113"",""0.155"",""0.366"",""0.786""]","[1,1,0,1]",0,42,42,42,1,1,1,,,1,FALSE,,,,,,,,,,,,,,,,,,,,,,,,,,,,,,,
,6135336b7ffeb440e6a0f042,627c75c1f5d7899c66786319,2022-05-11_20h55.32.184,classification_task,2021.2.3,Win32,59.99160118,627c6715c52fd12f31907bd0,,,,,,,,,,,,,,,,,,,,,,,a,1,0.701,"[""0.363"",""0.408"",""0.605"",""0.856""]","[0,1,1,1]",0,43,43,43,1,0,0,,,1,FALSE,,,,,,,,,,,,,,,,,,,,,,,,,,,,,,,
,6135336b7ffeb440e6a0f042,627c75c1f5d7899c66786319,2022-05-11_20h55.32.184,classification_task,2021.2.3,Win32,59.99160118,627c6715c52fd12f31907bd0,,,,,,,,,,,,,,,,,,,,,,,l,1,0.472,"[""0.113"",""0.751"",""0.480"",""0.786""]","[1,0,1,1]",0,44,44,44,1,1,1,,,1,FALSE,,,,,,,,,,,,,,,,,,,,,,,,,,,,,,,
,6135336b7ffeb440e6a0f042,627c75c1f5d7899c66786319,2022-05-11_20h55.32.184,classification_task,2021.2.3,Win32,59.99160118,627c6715c52fd12f31907bd0,,,,,,,,,,,,,,,,,,,,,,,l,1,0.7261,"[""0.045"",""0.892"",""0.670"",""0.716""]","[1,0,1,1]",0,45,45,45,1,1,0,,,1,FALSE,,,,,,,,,,,,,,,,,,,,,,,,,,,,,,,
,6135336b7ffeb440e6a0f042,627c75c1f5d7899c66786319,2022-05-11_20h55.32.184,classification_task,2021.2.3,Win32,59.99160118,627c6715c52fd12f31907bd0,,,,,,,,,,,,,,,,,,,,,,,l,1,0.4655,"[""0.045"",""0.260"",""0.670"",""0.751""]","[1,1,1,0]",0,46,46,46,1,1,0,,,1,FALSE,,,,,,,,,,,,,,,,,,,,,,,,,,,,,,,
,6135336b7ffeb440e6a0f042,627c75c1f5d7899c66786319,2022-05-11_20h55.32.184,classification_task,2021.2.3,Win32,59.99160118,627c6715c52fd12f31907bd0,,,,,,,,,,,,,,,,,,,,,,,a,1,0.6287,"[""0.317"",""0.408"",""0.363"",""0.856""]","[1,1,0,1]",0,47,47,47,1,0,0,,,1,FALSE,,,,,,,,,,,,,,,,,,,,,,,,,,,,,,,
,6135336b7ffeb440e6a0f042,627c75c1f5d7899c66786319,2022-05-11_20h55.32.184,classification_task,2021.2.3,Win32,59.99160118,627c6715c52fd12f31907bd0,,,,,,,,,,,,,,,,,,,,,,,a,1,1.0658,"[""0.366"",""0.408"",""0.605"",""0.856""]","[0,1,1,1]",0,48,48,48,1,0,0,,,1,FALSE,,,,,,,,,,,,,,,,,,,,,,,,,,,,,,,
,6135336b7ffeb440e6a0f042,627c75c1f5d7899c66786319,2022-05-11_20h55.32.184,classification_task,2021.2.3,Win32,59.99160118,627c6715c52fd12f31907bd0,,,,,,,,,,,,,,,,,,,,,,,a,1,0.7322,"[""0.317"",""0.408"",""0.605"",""0.568""]","[1,1,1,0]",0,49,49,49,1,0,0,,,1,FALSE,,,,,,,,,,,,,,,,,,,,,,,,,,,,,,,
,6135336b7ffeb440e6a0f042,627c75c1f5d7899c66786319,2022-05-11_20h55.32.184,classification_task,2021.2.3,Win32,59.99160118,627c6715c52fd12f31907bd0,,,,,,,,,,,,,,,,,,,,,,,a,1,1.1148,"[""0.191"",""0.533"",""0.822"",""0.374""]","[1,1,1,0]",0,50,50,50,1,0,1,,,1,FALSE,,,,,,,,,,,,,,,,,,,,,,,,,,,,,,,
,6135336b7ffeb440e6a0f042,627c75c1f5d7899c66786319,2022-05-11_20h55.32.184,classification_task,2021.2.3,Win32,59.99160118,627c6715c52fd12f31907bd0,,,,,,,,,,,,,,,,,,,,,,,l,1,0.5041,"[""0.045"",""0.260"",""0.670"",""0.366""]","[1,1,1,0]",0,51,51,51,1,1,0,,,1,FALSE,,,,,,,,,,,,,,,,,,,,,,,,,,,,,,,
,6135336b7ffeb440e6a0f042,627c75c1f5d7899c66786319,2022-05-11_20h55.32.184,classification_task,2021.2.3,Win32,59.99160118,627c6715c52fd12f31907bd0,,,,,,,,,,,,,,,,,,,,,,,l,1,0.5805,"[""0.113"",""0.155"",""0.892"",""0.786""]","[1,1,0,1]",0,52,52,52,1,1,1,,,1,FALSE,,,,,,,,,,,,,,,,,,,,,,,,,,,,,,,
,6135336b7ffeb440e6a0f042,627c75c1f5d7899c66786319,2022-05-11_20h55.32.184,classification_task,2021.2.3,Win32,59.99160118,627c6715c52fd12f31907bd0,,,,,,,,,,,,,,,,,,,,,,,a,0,0.5779,"[""0.895"",""0.260"",""0.670"",""0.716""]","[0,1,1,1]",0,53,53,53,1,1,0,,,1,FALSE,,,,,,,,,,,,,,,,,,,,,,,,,,,,,,,
,6135336b7ffeb440e6a0f042,627c75c1f5d7899c66786319,2022-05-11_20h55.32.184,classification_task,2021.2.3,Win32,59.99160118,627c6715c52fd12f31907bd0,,,,,,,,,,,,,,,,,,,,,,,l,1,0.4678,"[""0.113"",""0.155"",""0.480"",""0.444""]","[1,1,1,0]",0,54,54,54,1,1,1,,,1,FALSE,,,,,,,,,,,,,,,,,,,,,,,,,,,,,,,
,6135336b7ffeb440e6a0f042,627c75c1f5d7899c66786319,2022-05-11_20h55.32.184,classification_task,2021.2.3,Win32,59.99160118,627c6715c52fd12f31907bd0,,,,,,,,,,,,,,,,,,,,,,,l,1,0.7203,"[""0.369"",""0.155"",""0.480"",""0.786""]","[0,1,1,1]",0,55,55,55,1,1,1,,,1,FALSE,,,,,,,,,,,,,,,,,,,,,,,,,,,,,,,
,6135336b7ffeb440e6a0f042,627c75c1f5d7899c66786319,2022-05-11_20h55.32.184,classification_task,2021.2.3,Win32,59.99160118,627c6715c52fd12f31907bd0,,,,,,,,,,,,,,,,,,,,,,,l,1,0.5352,"[""0.045"",""0.751"",""0.670"",""0.716""]","[1,0,1,1]",0,56,56,56,1,1,0,,,1,FALSE,,,,,,,,,,,,,,,,,,,,,,,,,,,,,,,
,6135336b7ffeb440e6a0f042,627c75c1f5d7899c66786319,2022-05-11_20h55.32.184,classification_task,2021.2.3,Win32,59.99160118,627c6715c52fd12f31907bd0,,,,,,,,,,,,,,,,,,,,,,,a,1,0.6598,"[""0.191"",""0.533"",""0.374"",""0.930""]","[1,1,0,1]",0,57,57,57,1,0,1,,,1,FALSE,,,,,,,,,,,,,,,,,,,,,,,,,,,,,,,
,6135336b7ffeb440e6a0f042,627c75c1f5d7899c66786319,2022-05-11_20h55.32.184,classification_task,2021.2.3,Win32,59.99160118,627c6715c52fd12f31907bd0,,,,,,,,,,,,,,,,,,,,,,,l,1,0.5031,"[""0.045"",""0.260"",""0.366"",""0.716""]","[1,1,0,1]",0,58,58,58,1,1,0,,,1,FALSE,,,,,,,,,,,,,,,,,,,,,,,,,,,,,,,
,6135336b7ffeb440e6a0f042,627c75c1f5d7899c66786319,2022-05-11_20h55.32.184,classification_task,2021.2.3,Win32,59.99160118,627c6715c52fd12f31907bd0,,,,,,,,,,,,,,,,,,,,,,,l,1,0.5478,"[""0.113"",""0.895"",""0.480"",""0.786""]","[1,0,1,1]",0,59,59,59,1,1,1,,,1,FALSE,,,,,,,,,,,,,,,,,,,,,,,,,,,,,,,
,6135336b7ffeb440e6a0f042,627c75c1f5d7899c66786319,2022-05-11_20h55.32.184,classification_task,2021.2.3,Win32,59.99160118,627c6715c52fd12f31907bd0,,,,,,,,,,,,,,,,,,,,,,,a,1,0.6609,"[""0.191"",""0.444"",""0.822"",""0.930""]","[1,0,1,1]",0,60,60,60,1,0,1,,,1,FALSE,,,,,,,,,,,,,,,,,,,,,,,,,,,,,,,
,6135336b7ffeb440e6a0f042,627c75c1f5d7899c66786319,2022-05-11_20h55.32.184,classification_task,2021.2.3,Win32,59.99160118,627c6715c52fd12f31907bd0,,,,,,,,,,,,,,,,,,,,,,,a,1,0.6835,"[""0.317"",""0.751"",""0.605"",""0.856""]","[1,0,1,1]",0,61,61,61,1,0,0,,,1,FALSE,,,,,,,,,,,,,,,,,,,,,,,,,,,,,,,
,6135336b7ffeb440e6a0f042,627c75c1f5d7899c66786319,2022-05-11_20h55.32.184,classification_task,2021.2.3,Win32,59.99160118,627c6715c52fd12f31907bd0,,,,,,,,,,,,,,,,,,,,,,,a,1,0.5053,"[""0.317"",""0.408"",""0.363"",""0.856""]","[1,1,0,1]",0,62,62,62,1,0,0,,,1,FALSE,,,,,,,,,,,,,,,,,,,,,,,,,,,,,,,
,6135336b7ffeb440e6a0f042,627c75c1f5d7899c66786319,2022-05-11_20h55.32.184,classification_task,2021.2.3,Win32,59.99160118,627c6715c52fd12f31907bd0,,,,,,,,,,,,,,,,,,,,,,,a,1,0.6207,"[""0.890"",""0.533"",""0.822"",""0.930""]","[0,1,1,1]",0,63,63,63,1,0,1,,,1,FALSE,,,,,,,,,,,,,,,,,,,,,,,,,,,,,,,
,6135336b7ffeb440e6a0f042,627c75c1f5d7899c66786319,2022-05-11_20h55.32.184,classification_task,2021.2.3,Win32,59.99160118,627c6715c52fd12f31907bd0,,,,,,,,,,,,,,,,,,,,,,,,,,,,,,,,,,,,,,,0, ,,0,2.795414462,127.1229,0,2,2,2,1,2,3,,,,,,,,,,,,,,,,,,
,6135336b7ffeb440e6a0f042,627c75c1f5d7899c66786319,2022-05-11_20h55.32.184,classification_task,2021.2.3,Win32,59.99160118,627c6715c52fd12f31907bd0,,,,,,,,,,,,,,,,,,,,,,,,,,,,,,,,,,,,,,,1,  ,,0,0.935295414,130.6749,0,2,2,2,1,2,3,,,,,,,,,,,,,,,,,,
,6135336b7ffeb440e6a0f042,627c75c1f5d7899c66786319,2022-05-11_20h55.32.184,classification_task,2021.2.3,Win32,59.99160118,627c6715c52fd12f31907bd0,,,,,,,,,,,,,,,,,,,,,,,,,,,,,,,,,,,,,,,2,  ,,0,4.069940476,134.428,0,2,2,2,1,2,3,,,,,,,,,,,,,,,,,,
,6135336b7ffeb440e6a0f042,627c75c1f5d7899c66786319,2022-05-11_20h55.32.184,classification_task,2021.2.3,Win32,59.99160118,627c6715c52fd12f31907bd0,,,,,,,,,,,,,,,,,,,,,,,,,,,,,,,,,,,,,,,,,,,,,0,2,2,2,1,,3,,,,,,,,,,,,,,,,,,
,6135336b7ffeb440e6a0f042,627c75c1f5d7899c66786319,2022-05-11_20h55.32.184,classification_task,2021.2.3,Win32,59.99160118,627c6715c52fd12f31907bd0,,,,,,,,,,,,,,,,,,,,,,,,,,,,,,,,,,,,,,,,,,,,,,,,,,,,,I believe the aid is a competent performer,,0.7,0,3,665.9649,0,0,0,0,1,0,,,,,
,6135336b7ffeb440e6a0f042,627c75c1f5d7899c66786319,2022-05-11_20h55.32.184,classification_task,2021.2.3,Win32,59.99160118,627c6715c52fd12f31907bd0,,,,,,,,,,,,,,,,,,,,,,,,,,,,,,,,,,,,,,,,,,,,,,,,,,,,,I trust the aid,,0.7,0,3,673.2765,0,0,0,0,1,0,,,,,
,6135336b7ffeb440e6a0f042,627c75c1f5d7899c66786319,2022-05-11_20h55.32.184,classification_task,2021.2.3,Win32,59.99160118,627c6715c52fd12f31907bd0,,,,,,,,,,,,,,,,,,,,,,,,,,,,,,,,,,,,,,,,,,,,,,,,,,,,,I have confidence in the advice given by the aid,,0.7,0,3,674.7393,0,0,0,0,1,0,,,,,
,6135336b7ffeb440e6a0f042,627c75c1f5d7899c66786319,2022-05-11_20h55.32.184,classification_task,2021.2.3,Win32,59.99160118,627c6715c52fd12f31907bd0,,,,,,,,,,,,,,,,,,,,,,,,,,,,,,,,,,,,,,,,,,,,,,,,,,,,,I can depend on the aid,,0.7,0,3,677.0526,0,0,0,0,1,0,,,,,
,6135336b7ffeb440e6a0f042,627c75c1f5d7899c66786319,2022-05-11_20h55.32.184,classification_task,2021.2.3,Win32,59.99160118,627c6715c52fd12f31907bd0,,,,,,,,,,,,,,,,,,,,,,,,,,,,,,,,,,,,,,,,,,,,,,,,,,,,,I can rely on the aid to behave in consistent ways,,0.7,0,3,678.6658,0,0,0,0,1,0,,,,,
,6135336b7ffeb440e6a0f042,627c75c1f5d7899c66786319,2022-05-11_20h55.32.184,classification_task,2021.2.3,Win32,59.99160118,627c6715c52fd12f31907bd0,,,,,,,,,,,,,,,,,,,,,,,,,,,,,,,,,,,,,,,,,,,,,,,,,,,,,I can rely on the aid to do its best every time I take its advice,,0.7,0,3,680.9328,0,0,0,0,1,0,,,,,
,6135336b7ffeb440e6a0f042,627c75c1f5d7899c66786319,2022-05-11_20h55.32.184,classification_task,2021.2.3,Win32,59.99160118,627c6715c52fd12f31907bd0,,,,,,,,,,,,,,,,,,,,,,,,,,,,,,,,,,,,,,,,,,,,,,,,,,,,,"On trials you completed with assistance from the aid, how frequently did you think the aid was correct?",,0.7,0,70,,0,0,0,0,1,0,,,,,
,6135336b7ffeb440e6a0f042,627c75c1f5d7899c66786319,2022-05-11_20h55.32.184,classification_task,2021.2.3,Win32,59.99160118,627c6715c52fd12f31907bd0,,,,,,,,,,,,,,,,,,,,,,,,,,,,,,,,,,,,,,,,,,,,,,,,,,,,,"On trials you completed without the aid, how frequently did you think you were correct?",,0.7,0,50,,0,0,0,0,1,0,,,,,
,6135336b7ffeb440e6a0f042,627c75c1f5d7899c66786319,2022-05-11_20h55.32.184,classification_task,2021.2.3,Win32,59.99160118,627c6715c52fd12f31907bd0,,,,,,,,,,,,,,,,,,,,,,,,,,,,,,,,,,,,,,,,,,,,,,,,,,,,,,,,,,,0,0,0,0,1,,,,,,
,6135336b7ffeb440e6a0f042,627c75c1f5d7899c66786319,2022-05-11_20h55.32.184,classification_task,2021.2.3,Win32,59.99160118,627c6715c52fd12f31907bd0,,,,,,,,,,,,,,,,,,,,,,,,,,,,,,,,,,,,,,,,,,,,,,,,,,,,,,,,,,,,,,,,,space,8.3404,712.7283,,
,6135336b7ffeb440e6a0f042,627c75c1f5d7899c66786319,2022-05-11_20h55.32.184,classification_task,2021.2.3,Win32,59.99160118,627c6715c52fd12f31907bd0,,,,,,,,,,,,,,,,,,,,,,,,,,,,,,,,,,,,,,,,,,,,,,,,,,,,,,,,,,,,,,,,,,,,"Mozilla/5.0 (Windows NT 10.0; Win64; x64) AppleWebKit/537.36 (KHTML, like Gecko) Chrome/100.0.4896.127 Safari/537.36",
,6135336b7ffeb440e6a0f042,627c75c1f5d7899c66786319,2022-05-11_20h55.32.184,classification_task,2021.2.3,Win32,59.99160118,627c6715c52fd12f31907bd0,,,,,,,,,,,,,,,,,,,,,,,,,,,,,,,,,,,,,,,,,,,,,,,,,,,,,,,,,,,,,,,,,,,,,HIGHLIGHT
