usingWebGL,participant,session,date,expName,psychopyVersion,OS,frameRate,PROLIFIC_PID,STUDY_ID,SESSION_ID,signatures_friend,signatures_foe,band_ranges_top,band_ranges_bottom,formitemText,formtype,formundefined,formitemWidth,formindex,formresponse,formrt,key_resp_2.keys,key_resp_2.rt,tute_resp.keys,tute_resp.rt,tutorial.thisRepN,tutorial.thisTrialN,tutorial.thisN,tutorial.thisIndex,tutorial.ran,key_resp_4.keys,key_resp_4.rt,key_resp.keys,key_resp.corr,key_resp.rt,lines_presented,is_signal_presented,trials.thisRepN,trials.thisTrialN,trials.thisN,trials.thisIndex,trials.ran,vessel,active_band,lines,is_signal,supported_pos,catch_trial,debrief_formindex,debrief_formitemText,debrief_formtype,debrief_formitemWidth,debrief_formresponse,debrief_formrt,phases.thisRepN,phases.thisTrialN,phases.thisN,phases.thisIndex,phases.ran,phases.order,phase,key_resp_3.keys,trustitemText,trusttype,trustitemWidth,trustindex,trustresponse,trustrt,support_status.thisRepN,support_status.thisTrialN,support_status.thisN,support_status.thisIndex,support_status.ran,support_status.order,key_resp_5.keys,key_resp_5.rt,globalClockTime,userAgent
TRUE,61393de3bfd993ba237393a3,001,2022-04-29_02h09.44.728,classification_task,2021.2.3,Win32,59.99160118,61393de3bfd993ba237393a3,626b377229c10585ec392f89,626b3acd4579ffd5d816e2f3,,,,,,,,,,,,,,,,,,,,,,,,,,,,,,,,,,,,,,,,,,,,,,,,,,,,,,,,,,,,,,,,,,,,
,61393de3bfd993ba237393a3,001,2022-04-29_02h09.44.728,classification_task,2021.2.3,Win32,59.99160118,61393de3bfd993ba237393a3,626b377229c10585ec392f89,626b3acd4579ffd5d816e2f3,"[[""0.248"",""0.412"",""0.913"",""0.957""],[""0.289"",""0.368"",""0.581"",""0.849""]]","[[""0.071"",""0.326"",""0.507"",""0.778""],[""0.156"",""0.205"",""0.655"",""0.699""]]","[1,10]","[100,1000]",Video game experience,,,0.7,0,,,,,,,,,,,,,,,,,,,,,,,,,,,,,,,,,,,,,,,,,,,,,,,,,,,,,,,,,,,
,61393de3bfd993ba237393a3,001,2022-04-29_02h09.44.728,classification_task,2021.2.3,Win32,59.99160118,61393de3bfd993ba237393a3,626b377229c10585ec392f89,626b3acd4579ffd5d816e2f3,,,,,Approximately how many hours did you spend playing video games in the last week?,,,0.7,0,60,,,,,,,,,,,,,,,,,,,,,,,,,,,,,,,,,,,,,,,,,,,,,,,,,,,,,,,,,,
,61393de3bfd993ba237393a3,001,2022-04-29_02h09.44.728,classification_task,2021.2.3,Win32,59.99160118,61393de3bfd993ba237393a3,626b377229c10585ec392f89,626b3acd4579ffd5d816e2f3,,,,,"Which game did you play the most this year? (Enter ""None"" if you didn't play any)",,,0.7,0,Genshin Impact,,,,,,,,,,,,,,,,,,,,,,,,,,,,,,,,,,,,,,,,,,,,,,,,,,,,,,,,,,
,61393de3bfd993ba237393a3,001,2022-04-29_02h09.44.728,classification_task,2021.2.3,Win32,59.99160118,61393de3bfd993ba237393a3,626b377229c10585ec392f89,626b3acd4579ffd5d816e2f3,,,,,Visual perception,,,0.7,0,,,,,,,,,,,,,,,,,,,,,,,,,,,,,,,,,,,,,,,,,,,,,,,,,,,,,,,,,,,
,61393de3bfd993ba237393a3,001,2022-04-29_02h09.44.728,classification_task,2021.2.3,Win32,59.99160118,61393de3bfd993ba237393a3,626b377229c10585ec392f89,626b3acd4579ffd5d816e2f3,,,,,Do you have any form of color blindness?,,,0.7,0,No,30.9773,,,,,,,,,,,,,,,,,,,,,,,,,,,,,,,,,,,,,,,,,,,,,,,,,,,,,,,,,
,61393de3bfd993ba237393a3,001,2022-04-29_02h09.44.728,classification_task,2021.2.3,Win32,59.99160118,61393de3bfd993ba237393a3,626b377229c10585ec392f89,626b3acd4579ffd5d816e2f3,,,,,Do you use software to change the colour temperature of your screen (e.g. f.lux)?,,,0.7,0,No,34.3757,,,,,,,,,,,,,,,,,,,,,,,,,,,,,,,,,,,,,,,,,,,,,,,,,,,,,,,,,
,61393de3bfd993ba237393a3,001,2022-04-29_02h09.44.728,classification_task,2021.2.3,Win32,59.99160118,61393de3bfd993ba237393a3,626b377229c10585ec392f89,626b3acd4579ffd5d816e2f3,,,,,,,,,,,,space,3.3311,space,6.4265,0,0,0,0,1,,,,,,,,,,,,,,,,,,,,,,,,,,,,,,,,,,,,,,,,,,,,,,,,
,61393de3bfd993ba237393a3,001,2022-04-29_02h09.44.728,classification_task,2021.2.3,Win32,59.99160118,61393de3bfd993ba237393a3,626b377229c10585ec392f89,626b3acd4579ffd5d816e2f3,,,,,,,,,,,,,,space,7.5211,1,0,1,0,1,,,,,,,,,,,,,,,,,,,,,,,,,,,,,,,,,,,,,,,,,,,,,,,,
,61393de3bfd993ba237393a3,001,2022-04-29_02h09.44.728,classification_task,2021.2.3,Win32,59.99160118,61393de3bfd993ba237393a3,626b377229c10585ec392f89,626b3acd4579ffd5d816e2f3,,,,,,,,,,,,,,space,21.6585,2,0,2,0,1,,,,,,,,,,,,,,,,,,,,,,,,,,,,,,,,,,,,,,,,,,,,,,,,
,61393de3bfd993ba237393a3,001,2022-04-29_02h09.44.728,classification_task,2021.2.3,Win32,59.99160118,61393de3bfd993ba237393a3,626b377229c10585ec392f89,626b3acd4579ffd5d816e2f3,,,,,,,,,,,,,,space,5.2671,3,0,3,0,1,,,,,,,,,,,,,,,,,,,,,,,,,,,,,,,,,,,,,,,,,,,,,,,,
,61393de3bfd993ba237393a3,001,2022-04-29_02h09.44.728,classification_task,2021.2.3,Win32,59.99160118,61393de3bfd993ba237393a3,626b377229c10585ec392f89,626b3acd4579ffd5d816e2f3,,,,,,,,,,,,,,space,5.6026,4,0,4,0,1,,,,,,,,,,,,,,,,,,,,,,,,,,,,,,,,,,,,,,,,,,,,,,,,
,61393de3bfd993ba237393a3,001,2022-04-29_02h09.44.728,classification_task,2021.2.3,Win32,59.99160118,61393de3bfd993ba237393a3,626b377229c10585ec392f89,626b3acd4579ffd5d816e2f3,,,,,,,,,,,,,,,,,,,,,space,3.3112,l,0,1.5262,"[""0.465"",""0.412"",""0.913"",""0.957""]","[0,1,1,1]",0,0,0,0,1,0,0,,,0,FALSE,,,,,,,,,,,,,,,,,,,,,,,,,,,,,,
,61393de3bfd993ba237393a3,001,2022-04-29_02h09.44.728,classification_task,2021.2.3,Win32,59.99160118,61393de3bfd993ba237393a3,626b377229c10585ec392f89,626b3acd4579ffd5d816e2f3,,,,,,,,,,,,,,,,,,,,,,,l,1,4.7944,"[""0.156"",""0.471"",""0.655"",""0.699""]","[1,0,1,1]",0,1,1,1,1,1,1,,,0,FALSE,,,,,,,,,,,,,,,,,,,,,,,,,,,,,,
,61393de3bfd993ba237393a3,001,2022-04-29_02h09.44.728,classification_task,2021.2.3,Win32,59.99160118,61393de3bfd993ba237393a3,626b377229c10585ec392f89,626b3acd4579ffd5d816e2f3,,,,,,,,,,,,,,,,,,,,,,,l,1,4.6672,"[""0.071"",""0.471"",""0.507"",""0.778""]","[1,0,1,1]",0,2,2,2,1,1,0,,,0,FALSE,,,,,,,,,,,,,,,,,,,,,,,,,,,,,,
,61393de3bfd993ba237393a3,001,2022-04-29_02h09.44.728,classification_task,2021.2.3,Win32,59.99160118,61393de3bfd993ba237393a3,626b377229c10585ec392f89,626b3acd4579ffd5d816e2f3,,,,,,,,,,,,,,,,,,,,,,,l,0,1.9546,"[""0.248"",""0.412"",""0.913"",""0.029""]","[1,1,1,0]",0,3,3,3,1,0,0,,,0,FALSE,,,,,,,,,,,,,,,,,,,,,,,,,,,,,,
,61393de3bfd993ba237393a3,001,2022-04-29_02h09.44.728,classification_task,2021.2.3,Win32,59.99160118,61393de3bfd993ba237393a3,626b377229c10585ec392f89,626b3acd4579ffd5d816e2f3,,,,,,,,,,,,,,,,,,,,,,,,0,,"[""0.289"",""0.368"",""0.581"",""0.106""]","[1,1,1,0]",0,4,4,4,1,0,1,,,0,FALSE,,,,,,,,,,,,,,,,,,,,,,,,,,,,,,
,61393de3bfd993ba237393a3,001,2022-04-29_02h09.44.728,classification_task,2021.2.3,Win32,59.99160118,61393de3bfd993ba237393a3,626b377229c10585ec392f89,626b3acd4579ffd5d816e2f3,,,,,,,,,,,,,,,,,,,,,,,a,1,2.4215,"[""0.289"",""0.106"",""0.581"",""0.849""]","[1,0,1,1]",0,5,5,5,1,0,1,,,0,FALSE,,,,,,,,,,,,,,,,,,,,,,,,,,,,,,
,61393de3bfd993ba237393a3,001,2022-04-29_02h09.44.728,classification_task,2021.2.3,Win32,59.99160118,61393de3bfd993ba237393a3,626b377229c10585ec392f89,626b3acd4579ffd5d816e2f3,,,,,,,,,,,,,,,,,,,,,,,a,1,1.7501,"[""0.289"",""0.368"",""0.473"",""0.849""]","[1,1,0,1]",0,6,6,6,1,0,1,,,0,FALSE,,,,,,,,,,,,,,,,,,,,,,,,,,,,,,
,61393de3bfd993ba237393a3,001,2022-04-29_02h09.44.728,classification_task,2021.2.3,Win32,59.99160118,61393de3bfd993ba237393a3,626b377229c10585ec392f89,626b3acd4579ffd5d816e2f3,,,,,,,,,,,,,,,,,,,,,,,l,1,3.9203,"[""0.156"",""0.205"",""0.814"",""0.699""]","[1,1,0,1]",0,7,7,7,1,1,1,,,0,FALSE,,,,,,,,,,,,,,,,,,,,,,,,,,,,,,
,61393de3bfd993ba237393a3,001,2022-04-29_02h09.44.728,classification_task,2021.2.3,Win32,59.99160118,61393de3bfd993ba237393a3,626b377229c10585ec392f89,626b3acd4579ffd5d816e2f3,,,,,,,,,,,,,,,,,,,,,,,l,1,1.7467,"[""0.156"",""0.205"",""0.655"",""0.106""]","[1,1,1,0]",0,8,8,8,1,1,1,,,0,FALSE,,,,,,,,,,,,,,,,,,,,,,,,,,,,,,
,61393de3bfd993ba237393a3,001,2022-04-29_02h09.44.728,classification_task,2021.2.3,Win32,59.99160118,61393de3bfd993ba237393a3,626b377229c10585ec392f89,626b3acd4579ffd5d816e2f3,,,,,,,,,,,,,,,,,,,,,,,l,1,3.9626,"[""0.449"",""0.326"",""0.507"",""0.778""]","[0,1,1,1]",0,9,9,9,1,1,0,,,0,FALSE,,,,,,,,,,,,,,,,,,,,,,,,,,,,,,
,61393de3bfd993ba237393a3,001,2022-04-29_02h09.44.728,classification_task,2021.2.3,Win32,59.99160118,61393de3bfd993ba237393a3,626b377229c10585ec392f89,626b3acd4579ffd5d816e2f3,,,,,,,,,,,,,,,,,,,,,,,a,0,3.5671,"[""0.071"",""0.326"",""0.029"",""0.778""]","[1,1,0,1]",0,10,10,10,1,1,0,,,0,FALSE,,,,,,,,,,,,,,,,,,,,,,,,,,,,,,
,61393de3bfd993ba237393a3,001,2022-04-29_02h09.44.728,classification_task,2021.2.3,Win32,59.99160118,61393de3bfd993ba237393a3,626b377229c10585ec392f89,626b3acd4579ffd5d816e2f3,,,,,,,,,,,,,,,,,,,,,,,a,1,3.6834,"[""0.473"",""0.368"",""0.581"",""0.849""]","[0,1,1,1]",0,11,11,11,1,0,1,,,0,FALSE,,,,,,,,,,,,,,,,,,,,,,,,,,,,,,
,61393de3bfd993ba237393a3,001,2022-04-29_02h09.44.728,classification_task,2021.2.3,Win32,59.99160118,61393de3bfd993ba237393a3,626b377229c10585ec392f89,626b3acd4579ffd5d816e2f3,,,,,,,,,,,,,,,,,,,,,,,l,1,2.9837,"[""0.473"",""0.205"",""0.655"",""0.699""]","[0,1,1,1]",0,12,12,12,1,1,1,,,0,FALSE,,,,,,,,,,,,,,,,,,,,,,,,,,,,,,
,61393de3bfd993ba237393a3,001,2022-04-29_02h09.44.728,classification_task,2021.2.3,Win32,59.99160118,61393de3bfd993ba237393a3,626b377229c10585ec392f89,626b3acd4579ffd5d816e2f3,,,,,,,,,,,,,,,,,,,,,,,l,1,3.0504,"[""0.071"",""0.326"",""0.507"",""0.740""]","[1,1,1,0]",0,13,13,13,1,1,0,,,0,FALSE,,,,,,,,,,,,,,,,,,,,,,,,,,,,,,
,61393de3bfd993ba237393a3,001,2022-04-29_02h09.44.728,classification_task,2021.2.3,Win32,59.99160118,61393de3bfd993ba237393a3,626b377229c10585ec392f89,626b3acd4579ffd5d816e2f3,,,,,,,,,,,,,,,,,,,,,,,a,1,2.3003,"[""0.248"",""0.412"",""0.449"",""0.957""]","[1,1,0,1]",0,14,14,14,1,0,0,,,0,FALSE,,,,,,,,,,,,,,,,,,,,,,,,,,,,,,
,61393de3bfd993ba237393a3,001,2022-04-29_02h09.44.728,classification_task,2021.2.3,Win32,59.99160118,61393de3bfd993ba237393a3,626b377229c10585ec392f89,626b3acd4579ffd5d816e2f3,,,,,,,,,,,,,,,,,,,,,,,l,0,2.567,"[""0.248"",""0.740"",""0.913"",""0.957""]","[1,0,1,1]",0,15,15,15,1,0,0,,,0,FALSE,,,,,,,,,,,,,,,,,,,,,,,,,,,,,,
,61393de3bfd993ba237393a3,001,2022-04-29_02h09.44.728,classification_task,2021.2.3,Win32,59.99160118,61393de3bfd993ba237393a3,626b377229c10585ec392f89,626b3acd4579ffd5d816e2f3,,,,,,,,,,,,,,,,,,,,,,,a,1,3.7169,"[""0.289"",""0.733"",""0.581"",""0.849""]","[1,0,1,1]",0,16,16,16,1,0,1,,,0,FALSE,,,,,,,,,,,,,,,,,,,,,,,,,,,,,,
,61393de3bfd993ba237393a3,001,2022-04-29_02h09.44.728,classification_task,2021.2.3,Win32,59.99160118,61393de3bfd993ba237393a3,626b377229c10585ec392f89,626b3acd4579ffd5d816e2f3,,,,,,,,,,,,,,,,,,,,,,,l,1,2.383,"[""0.156"",""0.205"",""0.655"",""0.473""]","[1,1,1,0]",0,17,17,17,1,1,1,,,0,FALSE,,,,,,,,,,,,,,,,,,,,,,,,,,,,,,
,61393de3bfd993ba237393a3,001,2022-04-29_02h09.44.728,classification_task,2021.2.3,Win32,59.99160118,61393de3bfd993ba237393a3,626b377229c10585ec392f89,626b3acd4579ffd5d816e2f3,,,,,,,,,,,,,,,,,,,,,,,a,1,2.5169,"[""0.248"",""0.813"",""0.913"",""0.957""]","[1,0,1,1]",0,18,18,18,1,0,0,,,0,FALSE,,,,,,,,,,,,,,,,,,,,,,,,,,,,,,
,61393de3bfd993ba237393a3,001,2022-04-29_02h09.44.728,classification_task,2021.2.3,Win32,59.99160118,61393de3bfd993ba237393a3,626b377229c10585ec392f89,626b3acd4579ffd5d816e2f3,,,,,,,,,,,,,,,,,,,,,,,l,1,3.1172,"[""0.156"",""0.473"",""0.655"",""0.699""]","[1,0,1,1]",0,19,19,19,1,1,1,,,0,FALSE,,,,,,,,,,,,,,,,,,,,,,,,,,,,,,
,61393de3bfd993ba237393a3,001,2022-04-29_02h09.44.728,classification_task,2021.2.3,Win32,59.99160118,61393de3bfd993ba237393a3,626b377229c10585ec392f89,626b3acd4579ffd5d816e2f3,,,,,,,,,,,,,,,,,,,,,,,a,1,2.9171,"[""0.449"",""0.368"",""0.581"",""0.849""]","[0,1,1,1]",0,20,20,20,1,0,1,,,0,FALSE,,,,,,,,,,,,,,,,,,,,,,,,,,,,,,
,61393de3bfd993ba237393a3,001,2022-04-29_02h09.44.728,classification_task,2021.2.3,Win32,59.99160118,61393de3bfd993ba237393a3,626b377229c10585ec392f89,626b3acd4579ffd5d816e2f3,,,,,,,,,,,,,,,,,,,,,,,l,1,3.7504,"[""0.071"",""0.326"",""0.507"",""0.745""]","[1,1,1,0]",0,21,21,21,1,1,0,,,0,FALSE,,,,,,,,,,,,,,,,,,,,,,,,,,,,,,
,61393de3bfd993ba237393a3,001,2022-04-29_02h09.44.728,classification_task,2021.2.3,Win32,59.99160118,61393de3bfd993ba237393a3,626b377229c10585ec392f89,626b3acd4579ffd5d816e2f3,,,,,,,,,,,,,,,,,,,,,,,a,1,2.8337,"[""0.289"",""0.368"",""0.581"",""0.473""]","[1,1,1,0]",0,22,22,22,1,0,1,,,0,FALSE,,,,,,,,,,,,,,,,,,,,,,,,,,,,,,
,61393de3bfd993ba237393a3,001,2022-04-29_02h09.44.728,classification_task,2021.2.3,Win32,59.99160118,61393de3bfd993ba237393a3,626b377229c10585ec392f89,626b3acd4579ffd5d816e2f3,,,,,,,,,,,,,,,,,,,,,,,l,1,2.4668,"[""0.106"",""0.326"",""0.507"",""0.778""]","[0,1,1,1]",0,23,23,23,1,1,0,,,0,FALSE,,,,,,,,,,,,,,,,,,,,,,,,,,,,,,
,61393de3bfd993ba237393a3,001,2022-04-29_02h09.44.728,classification_task,2021.2.3,Win32,59.99160118,61393de3bfd993ba237393a3,626b377229c10585ec392f89,626b3acd4579ffd5d816e2f3,,,,,,,,,,,,,,,,,,,,,,,l,1,2.2171,"[""0.106"",""0.205"",""0.655"",""0.699""]","[0,1,1,1]",0,24,24,24,1,1,1,,,0,FALSE,,,,,,,,,,,,,,,,,,,,,,,,,,,,,,
,61393de3bfd993ba237393a3,001,2022-04-29_02h09.44.728,classification_task,2021.2.3,Win32,59.99160118,61393de3bfd993ba237393a3,626b377229c10585ec392f89,626b3acd4579ffd5d816e2f3,,,,,,,,,,,,,,,,,,,,,,,l,0,2.8169,"[""0.248"",""0.412"",""0.029"",""0.957""]","[1,1,0,1]",0,25,25,25,1,0,0,,,0,FALSE,,,,,,,,,,,,,,,,,,,,,,,,,,,,,,
,61393de3bfd993ba237393a3,001,2022-04-29_02h09.44.728,classification_task,2021.2.3,Win32,59.99160118,61393de3bfd993ba237393a3,626b377229c10585ec392f89,626b3acd4579ffd5d816e2f3,,,,,,,,,,,,,,,,,,,,,,,a,0,0.9672,"[""0.071"",""0.464"",""0.507"",""0.778""]","[1,0,1,1]",0,26,26,26,1,1,0,,,0,FALSE,,,,,,,,,,,,,,,,,,,,,,,,,,,,,,
,61393de3bfd993ba237393a3,001,2022-04-29_02h09.44.728,classification_task,2021.2.3,Win32,59.99160118,61393de3bfd993ba237393a3,626b377229c10585ec392f89,626b3acd4579ffd5d816e2f3,,,,,,,,,,,,,,,,,,,,,,,l,1,2.317,"[""0.156"",""0.205"",""0.106"",""0.699""]","[1,1,0,1]",0,27,27,27,1,1,1,,,0,FALSE,,,,,,,,,,,,,,,,,,,,,,,,,,,,,,
,61393de3bfd993ba237393a3,001,2022-04-29_02h09.44.728,classification_task,2021.2.3,Win32,59.99160118,61393de3bfd993ba237393a3,626b377229c10585ec392f89,626b3acd4579ffd5d816e2f3,,,,,,,,,,,,,,,,,,,,,,,a,1,3.9505,"[""0.248"",""0.412"",""0.913"",""0.106""]","[1,1,1,0]",0,28,28,28,1,0,0,,,0,FALSE,,,,,,,,,,,,,,,,,,,,,,,,,,,,,,
,61393de3bfd993ba237393a3,001,2022-04-29_02h09.44.728,classification_task,2021.2.3,Win32,59.99160118,61393de3bfd993ba237393a3,626b377229c10585ec392f89,626b3acd4579ffd5d816e2f3,,,,,,,,,,,,,,,,,,,,,,,a,1,2.367,"[""0.289"",""0.368"",""0.464"",""0.849""]","[1,1,0,1]",0,29,29,29,1,0,1,,,0,FALSE,,,,,,,,,,,,,,,,,,,,,,,,,,,,,,
,61393de3bfd993ba237393a3,001,2022-04-29_02h09.44.728,classification_task,2021.2.3,Win32,59.99160118,61393de3bfd993ba237393a3,626b377229c10585ec392f89,626b3acd4579ffd5d816e2f3,,,,,,,,,,,,,,,,,,,,,,,l,1,3.017,"[""0.071"",""0.326"",""0.449"",""0.778""]","[1,1,0,1]",0,30,30,30,1,1,0,,,0,FALSE,,,,,,,,,,,,,,,,,,,,,,,,,,,,,,
,61393de3bfd993ba237393a3,001,2022-04-29_02h09.44.728,classification_task,2021.2.3,Win32,59.99160118,61393de3bfd993ba237393a3,626b377229c10585ec392f89,626b3acd4579ffd5d816e2f3,,,,,,,,,,,,,,,,,,,,,,,l,0,1.3671,"[""0.471"",""0.412"",""0.913"",""0.957""]","[0,1,1,1]",0,31,31,31,1,0,0,,,0,FALSE,,,,,,,,,,,,,,,,,,,,,,,,,,,,,,
,61393de3bfd993ba237393a3,001,2022-04-29_02h09.44.728,classification_task,2021.2.3,Win32,59.99160118,61393de3bfd993ba237393a3,626b377229c10585ec392f89,626b3acd4579ffd5d816e2f3,,,,,,,,,,,,,,,,,,,,,,,a,0,3.3503,"[""0.156"",""0.733"",""0.655"",""0.699""]","[1,0,1,1]",0,32,32,32,1,1,1,,,0,FALSE,,,,,,,,,,,,,,,,,,,,,,,,,,,,,,
,61393de3bfd993ba237393a3,001,2022-04-29_02h09.44.728,classification_task,2021.2.3,Win32,59.99160118,61393de3bfd993ba237393a3,626b377229c10585ec392f89,626b3acd4579ffd5d816e2f3,,,,,,,,,,,,,,,,,,,,,,,l,0,2.1836,"[""0.029"",""0.368"",""0.581"",""0.849""]","[0,1,1,1]",0,33,33,33,1,0,1,,,0,FALSE,,,,,,,,,,,,,,,,,,,,,,,,,,,,,,
,61393de3bfd993ba237393a3,001,2022-04-29_02h09.44.728,classification_task,2021.2.3,Win32,59.99160118,61393de3bfd993ba237393a3,626b377229c10585ec392f89,626b3acd4579ffd5d816e2f3,,,,,,,,,,,,,,,,,,,,,,,l,1,2.0669,"[""0.156"",""0.205"",""0.655"",""0.814""]","[1,1,1,0]",0,34,34,34,1,1,1,,,0,FALSE,,,,,,,,,,,,,,,,,,,,,,,,,,,,,,
,61393de3bfd993ba237393a3,001,2022-04-29_02h09.44.728,classification_task,2021.2.3,Win32,59.99160118,61393de3bfd993ba237393a3,626b377229c10585ec392f89,626b3acd4579ffd5d816e2f3,,,,,,,,,,,,,,,,,,,,,,,a,0,1.4337,"[""0.071"",""0.326"",""0.507"",""0.473""]","[1,1,1,0]",0,35,35,35,1,1,0,,,0,FALSE,,,,,,,,,,,,,,,,,,,,,,,,,,,,,,
,61393de3bfd993ba237393a3,001,2022-04-29_02h09.44.728,classification_task,2021.2.3,Win32,59.99160118,61393de3bfd993ba237393a3,626b377229c10585ec392f89,626b3acd4579ffd5d816e2f3,,,,,,,,,,,,,,,,,,,,,,,l,0,1.3502,"[""0.471"",""0.412"",""0.913"",""0.957""]","[0,1,1,1]",0,36,36,36,1,0,0,,,0,FALSE,,,,,,,,,,,,,,,,,,,,,,,,,,,,,,
,61393de3bfd993ba237393a3,001,2022-04-29_02h09.44.728,classification_task,2021.2.3,Win32,59.99160118,61393de3bfd993ba237393a3,626b377229c10585ec392f89,626b3acd4579ffd5d816e2f3,,,,,,,,,,,,,,,,,,,,,,,l,0,2.317,"[""0.289"",""0.368"",""0.581"",""0.111""]","[1,1,1,0]",0,37,37,37,1,0,1,,,0,FALSE,,,,,,,,,,,,,,,,,,,,,,,,,,,,,,
,61393de3bfd993ba237393a3,001,2022-04-29_02h09.44.728,classification_task,2021.2.3,Win32,59.99160118,61393de3bfd993ba237393a3,626b377229c10585ec392f89,626b3acd4579ffd5d816e2f3,,,,,,,,,,,,,,,,,,,,,,,a,1,1.1336,"[""0.289"",""0.473"",""0.581"",""0.849""]","[1,0,1,1]",0,38,38,38,1,0,1,,,0,FALSE,,,,,,,,,,,,,,,,,,,,,,,,,,,,,,
,61393de3bfd993ba237393a3,001,2022-04-29_02h09.44.728,classification_task,2021.2.3,Win32,59.99160118,61393de3bfd993ba237393a3,626b377229c10585ec392f89,626b3acd4579ffd5d816e2f3,,,,,,,,,,,,,,,,,,,,,,,l,1,2.4169,"[""0.071"",""0.473"",""0.507"",""0.778""]","[1,0,1,1]",0,39,39,39,1,1,0,,,0,FALSE,,,,,,,,,,,,,,,,,,,,,,,,,,,,,,
,61393de3bfd993ba237393a3,001,2022-04-29_02h09.44.728,classification_task,2021.2.3,Win32,59.99160118,61393de3bfd993ba237393a3,626b377229c10585ec392f89,626b3acd4579ffd5d816e2f3,,,,,,,,,,,,,,,,,,,,,,,l,1,2.1002,"[""0.449"",""0.326"",""0.507"",""0.778""]","[0,1,1,1]",0,40,40,40,1,1,0,,,0,FALSE,,,,,,,,,,,,,,,,,,,,,,,,,,,,,,
,61393de3bfd993ba237393a3,001,2022-04-29_02h09.44.728,classification_task,2021.2.3,Win32,59.99160118,61393de3bfd993ba237393a3,626b377229c10585ec392f89,626b3acd4579ffd5d816e2f3,,,,,,,,,,,,,,,,,,,,,,,a,1,1.3336,"[""0.289"",""0.368"",""0.465"",""0.849""]","[1,1,0,1]",0,41,41,41,1,0,1,,,0,FALSE,,,,,,,,,,,,,,,,,,,,,,,,,,,,,,
,61393de3bfd993ba237393a3,001,2022-04-29_02h09.44.728,classification_task,2021.2.3,Win32,59.99160118,61393de3bfd993ba237393a3,626b377229c10585ec392f89,626b3acd4579ffd5d816e2f3,,,,,,,,,,,,,,,,,,,,,,,l,0,1.7669,"[""0.248"",""0.412"",""0.465"",""0.957""]","[1,1,0,1]",0,42,42,42,1,0,0,,,0,FALSE,,,,,,,,,,,,,,,,,,,,,,,,,,,,,,
,61393de3bfd993ba237393a3,001,2022-04-29_02h09.44.728,classification_task,2021.2.3,Win32,59.99160118,61393de3bfd993ba237393a3,626b377229c10585ec392f89,626b3acd4579ffd5d816e2f3,,,,,,,,,,,,,,,,,,,,,,,l,1,2.1669,"[""0.814"",""0.205"",""0.655"",""0.699""]","[0,1,1,1]",0,43,43,43,1,1,1,,,0,FALSE,,,,,,,,,,,,,,,,,,,,,,,,,,,,,,
,61393de3bfd993ba237393a3,001,2022-04-29_02h09.44.728,classification_task,2021.2.3,Win32,59.99160118,61393de3bfd993ba237393a3,626b377229c10585ec392f89,626b3acd4579ffd5d816e2f3,,,,,,,,,,,,,,,,,,,,,,,l,1,1.6835,"[""0.156"",""0.205"",""0.733"",""0.699""]","[1,1,0,1]",0,44,44,44,1,1,1,,,0,FALSE,,,,,,,,,,,,,,,,,,,,,,,,,,,,,,
,61393de3bfd993ba237393a3,001,2022-04-29_02h09.44.728,classification_task,2021.2.3,Win32,59.99160118,61393de3bfd993ba237393a3,626b377229c10585ec392f89,626b3acd4579ffd5d816e2f3,,,,,,,,,,,,,,,,,,,,,,,l,0,2.2669,"[""0.248"",""0.412"",""0.913"",""0.029""]","[1,1,1,0]",0,45,45,45,1,0,0,,,0,FALSE,,,,,,,,,,,,,,,,,,,,,,,,,,,,,,
,61393de3bfd993ba237393a3,001,2022-04-29_02h09.44.728,classification_task,2021.2.3,Win32,59.99160118,61393de3bfd993ba237393a3,626b377229c10585ec392f89,626b3acd4579ffd5d816e2f3,,,,,,,,,,,,,,,,,,,,,,,a,0,1.7171,"[""0.071"",""0.326"",""0.471"",""0.778""]","[1,1,0,1]",0,46,46,46,1,1,0,,,0,FALSE,,,,,,,,,,,,,,,,,,,,,,,,,,,,,,
,61393de3bfd993ba237393a3,001,2022-04-29_02h09.44.728,classification_task,2021.2.3,Win32,59.99160118,61393de3bfd993ba237393a3,626b377229c10585ec392f89,626b3acd4579ffd5d816e2f3,,,,,,,,,,,,,,,,,,,,,,,a,1,1.5336,"[""0.248"",""0.740"",""0.913"",""0.957""]","[1,0,1,1]",0,47,47,47,1,0,0,,,0,FALSE,,,,,,,,,,,,,,,,,,,,,,,,,,,,,,
,61393de3bfd993ba237393a3,001,2022-04-29_02h09.44.728,classification_task,2021.2.3,Win32,59.99160118,61393de3bfd993ba237393a3,626b377229c10585ec392f89,626b3acd4579ffd5d816e2f3,,,,,,,,,,,,,,,,,,,,,,,l,0,2.7003,"[""0.465"",""0.368"",""0.581"",""0.849""]","[0,1,1,1]",0,48,48,48,1,0,1,,,0,FALSE,,,,,,,,,,,,,,,,,,,,,,,,,,,,,,
,61393de3bfd993ba237393a3,001,2022-04-29_02h09.44.728,classification_task,2021.2.3,Win32,59.99160118,61393de3bfd993ba237393a3,626b377229c10585ec392f89,626b3acd4579ffd5d816e2f3,,,,,,,,,,,,,,,,,,,,,,,a,1,1.8169,"[""0.248"",""0.412"",""0.111"",""0.957""]","[1,1,0,1]",0,49,49,49,1,0,0,,,0,FALSE,,,,,,,,,,,,,,,,,,,,,,,,,,,,,,
,61393de3bfd993ba237393a3,001,2022-04-29_02h09.44.728,classification_task,2021.2.3,Win32,59.99160118,61393de3bfd993ba237393a3,626b377229c10585ec392f89,626b3acd4579ffd5d816e2f3,,,,,,,,,,,,,,,,,,,,,,,a,1,1.5669,"[""0.289"",""0.368"",""0.581"",""0.814""]","[1,1,1,0]",0,50,50,50,1,0,1,,,0,FALSE,,,,,,,,,,,,,,,,,,,,,,,,,,,,,,
,61393de3bfd993ba237393a3,001,2022-04-29_02h09.44.728,classification_task,2021.2.3,Win32,59.99160118,61393de3bfd993ba237393a3,626b377229c10585ec392f89,626b3acd4579ffd5d816e2f3,,,,,,,,,,,,,,,,,,,,,,,l,1,2.0502,"[""0.071"",""0.326"",""0.449"",""0.778""]","[1,1,0,1]",0,51,51,51,1,1,0,,,0,FALSE,,,,,,,,,,,,,,,,,,,,,,,,,,,,,,
,61393de3bfd993ba237393a3,001,2022-04-29_02h09.44.728,classification_task,2021.2.3,Win32,59.99160118,61393de3bfd993ba237393a3,626b377229c10585ec392f89,626b3acd4579ffd5d816e2f3,,,,,,,,,,,,,,,,,,,,,,,a,1,1.4503,"[""0.248"",""0.471"",""0.913"",""0.957""]","[1,0,1,1]",0,52,52,52,1,0,0,,,0,FALSE,,,,,,,,,,,,,,,,,,,,,,,,,,,,,,
,61393de3bfd993ba237393a3,001,2022-04-29_02h09.44.728,classification_task,2021.2.3,Win32,59.99160118,61393de3bfd993ba237393a3,626b377229c10585ec392f89,626b3acd4579ffd5d816e2f3,,,,,,,,,,,,,,,,,,,,,,,a,1,1.1171,"[""0.289"",""0.733"",""0.581"",""0.849""]","[1,0,1,1]",0,53,53,53,1,0,1,,,0,FALSE,,,,,,,,,,,,,,,,,,,,,,,,,,,,,,
,61393de3bfd993ba237393a3,001,2022-04-29_02h09.44.728,classification_task,2021.2.3,Win32,59.99160118,61393de3bfd993ba237393a3,626b377229c10585ec392f89,626b3acd4579ffd5d816e2f3,,,,,,,,,,,,,,,,,,,,,,,l,1,3.0336,"[""0.473"",""0.326"",""0.507"",""0.778""]","[0,1,1,1]",0,54,54,54,1,1,0,,,0,FALSE,,,,,,,,,,,,,,,,,,,,,,,,,,,,,,
,61393de3bfd993ba237393a3,001,2022-04-29_02h09.44.728,classification_task,2021.2.3,Win32,59.99160118,61393de3bfd993ba237393a3,626b377229c10585ec392f89,626b3acd4579ffd5d816e2f3,,,,,,,,,,,,,,,,,,,,,,,a,1,1.017,"[""0.289"",""0.368"",""0.733"",""0.849""]","[1,1,0,1]",0,55,55,55,1,0,1,,,0,FALSE,,,,,,,,,,,,,,,,,,,,,,,,,,,,,,
,61393de3bfd993ba237393a3,001,2022-04-29_02h09.44.728,classification_task,2021.2.3,Win32,59.99160118,61393de3bfd993ba237393a3,626b377229c10585ec392f89,626b3acd4579ffd5d816e2f3,,,,,,,,,,,,,,,,,,,,,,,l,1,0.9836,"[""0.156"",""0.029"",""0.655"",""0.699""]","[1,0,1,1]",0,56,56,56,1,1,1,,,0,FALSE,,,,,,,,,,,,,,,,,,,,,,,,,,,,,,
,61393de3bfd993ba237393a3,001,2022-04-29_02h09.44.728,classification_task,2021.2.3,Win32,59.99160118,61393de3bfd993ba237393a3,626b377229c10585ec392f89,626b3acd4579ffd5d816e2f3,,,,,,,,,,,,,,,,,,,,,,,a,1,2.1669,"[""0.248"",""0.412"",""0.913"",""0.733""]","[1,1,1,0]",0,57,57,57,1,0,0,,,0,FALSE,,,,,,,,,,,,,,,,,,,,,,,,,,,,,,
,61393de3bfd993ba237393a3,001,2022-04-29_02h09.44.728,classification_task,2021.2.3,Win32,59.99160118,61393de3bfd993ba237393a3,626b377229c10585ec392f89,626b3acd4579ffd5d816e2f3,,,,,,,,,,,,,,,,,,,,,,,l,1,1.7003,"[""0.156"",""0.205"",""0.814"",""0.699""]","[1,1,0,1]",0,58,58,58,1,1,1,,,0,FALSE,,,,,,,,,,,,,,,,,,,,,,,,,,,,,,
,61393de3bfd993ba237393a3,001,2022-04-29_02h09.44.728,classification_task,2021.2.3,Win32,59.99160118,61393de3bfd993ba237393a3,626b377229c10585ec392f89,626b3acd4579ffd5d816e2f3,,,,,,,,,,,,,,,,,,,,,,,a,1,1.4169,"[""0.814"",""0.412"",""0.913"",""0.957""]","[0,1,1,1]",0,59,59,59,1,0,0,,,0,FALSE,,,,,,,,,,,,,,,,,,,,,,,,,,,,,,
,61393de3bfd993ba237393a3,001,2022-04-29_02h09.44.728,classification_task,2021.2.3,Win32,59.99160118,61393de3bfd993ba237393a3,626b377229c10585ec392f89,626b3acd4579ffd5d816e2f3,,,,,,,,,,,,,,,,,,,,,,,a,0,2.4837,"[""0.071"",""0.326"",""0.507"",""0.814""]","[1,1,1,0]",0,60,60,60,1,1,0,,,0,FALSE,,,,,,,,,,,,,,,,,,,,,,,,,,,,,,
,61393de3bfd993ba237393a3,001,2022-04-29_02h09.44.728,classification_task,2021.2.3,Win32,59.99160118,61393de3bfd993ba237393a3,626b377229c10585ec392f89,626b3acd4579ffd5d816e2f3,,,,,,,,,,,,,,,,,,,,,,,l,1,1.0837,"[""0.071"",""0.449"",""0.507"",""0.778""]","[1,0,1,1]",0,61,61,61,1,1,0,,,0,FALSE,,,,,,,,,,,,,,,,,,,,,,,,,,,,,,
,61393de3bfd993ba237393a3,001,2022-04-29_02h09.44.728,classification_task,2021.2.3,Win32,59.99160118,61393de3bfd993ba237393a3,626b377229c10585ec392f89,626b3acd4579ffd5d816e2f3,,,,,,,,,,,,,,,,,,,,,,,a,0,0.7504,"[""0.106"",""0.205"",""0.655"",""0.699""]","[0,1,1,1]",0,62,62,62,1,1,1,,,0,FALSE,,,,,,,,,,,,,,,,,,,,,,,,,,,,,,
,61393de3bfd993ba237393a3,001,2022-04-29_02h09.44.728,classification_task,2021.2.3,Win32,59.99160118,61393de3bfd993ba237393a3,626b377229c10585ec392f89,626b3acd4579ffd5d816e2f3,,,,,,,,,,,,,,,,,,,,,,,l,1,0.7836,"[""0.156"",""0.205"",""0.655"",""0.813""]","[1,1,1,0]",0,63,63,63,1,1,1,,,0,FALSE,,,,,,,,,,,,,,,,,,,,,,,,,,,,,,
,61393de3bfd993ba237393a3,001,2022-04-29_02h09.44.728,classification_task,2021.2.3,Win32,59.99160118,61393de3bfd993ba237393a3,626b377229c10585ec392f89,626b3acd4579ffd5d816e2f3,,,,,,,,,,,,,,,,,,,,,,,,,,,,,,,,,,,,,,,0, ,,0,5.9553204,330.7446,0,0,0,0,1,2,1,,,,,,,,,,,,,,,,,
,61393de3bfd993ba237393a3,001,2022-04-29_02h09.44.728,classification_task,2021.2.3,Win32,59.99160118,61393de3bfd993ba237393a3,626b377229c10585ec392f89,626b3acd4579ffd5d816e2f3,,,,,,,,,,,,,,,,,,,,,,,,,,,,,,,,,,,,,,,1,  ,,0,8.037428963,335.6892,0,0,0,0,1,2,1,,,,,,,,,,,,,,,,,
,61393de3bfd993ba237393a3,001,2022-04-29_02h09.44.728,classification_task,2021.2.3,Win32,59.99160118,61393de3bfd993ba237393a3,626b377229c10585ec392f89,626b3acd4579ffd5d816e2f3,,,,,,,,,,,,,,,,,,,,,,,,,,,,,,,,,,,,,,,2,  ,,0,7.474034881,341.3306,0,0,0,0,1,2,1,,,,,,,,,,,,,,,,,
,61393de3bfd993ba237393a3,001,2022-04-29_02h09.44.728,classification_task,2021.2.3,Win32,59.99160118,61393de3bfd993ba237393a3,626b377229c10585ec392f89,626b3acd4579ffd5d816e2f3,,,,,,,,,,,,,,,,,,,,,,,,,,,,,,,,,,,,,,,,,,,,,0,0,0,0,1,,1,,,,,,,,,,,,,,,,,
,61393de3bfd993ba237393a3,001,2022-04-29_02h09.44.728,classification_task,2021.2.3,Win32,59.99160118,61393de3bfd993ba237393a3,626b377229c10585ec392f89,626b3acd4579ffd5d816e2f3,,,,,,,,,,,,,,,,,,,,,space,23.4988,l,1,5.5791,"[""0.071"",""0.326"",""0.507"",""0.813""]","[1,1,1,0]",0,0,0,0,1,1,0,,,0,FALSE,,,,,,,,,,,,,,,,,,,,,,,,,,,,,,
,61393de3bfd993ba237393a3,001,2022-04-29_02h09.44.728,classification_task,2021.2.3,Win32,59.99160118,61393de3bfd993ba237393a3,626b377229c10585ec392f89,626b3acd4579ffd5d816e2f3,,,,,,,,,,,,,,,,,,,,,,,a,0,3.1253,"[""0.156"",""0.740"",""0.655"",""0.699""]","[1,0,1,1]",0,1,1,1,1,1,1,,,0,FALSE,,,,,,,,,,,,,,,,,,,,,,,,,,,,,,
,61393de3bfd993ba237393a3,001,2022-04-29_02h09.44.728,classification_task,2021.2.3,Win32,59.99160118,61393de3bfd993ba237393a3,626b377229c10585ec392f89,626b3acd4579ffd5d816e2f3,,,,,,,,,,,,,,,,,,,,,,,l,1,2.6501,"[""0.071"",""0.326"",""0.464"",""0.778""]","[1,1,0,1]",0,2,2,2,1,1,0,,,0,FALSE,,,,,,,,,,,,,,,,,,,,,,,,,,,,,,
,61393de3bfd993ba237393a3,001,2022-04-29_02h09.44.728,classification_task,2021.2.3,Win32,59.99160118,61393de3bfd993ba237393a3,626b377229c10585ec392f89,626b3acd4579ffd5d816e2f3,,,,,,,,,,,,,,,,,,,,,,,a,0,1.1672,"[""0.449"",""0.205"",""0.655"",""0.699""]","[0,1,1,1]",0,3,3,3,1,1,1,,,0,FALSE,,,,,,,,,,,,,,,,,,,,,,,,,,,,,,
,61393de3bfd993ba237393a3,001,2022-04-29_02h09.44.728,classification_task,2021.2.3,Win32,59.99160118,61393de3bfd993ba237393a3,626b377229c10585ec392f89,626b3acd4579ffd5d816e2f3,,,,,,,,,,,,,,,,,,,,,,,l,0,0.8837,"[""0.289"",""0.368"",""0.813"",""0.849""]","[1,1,0,1]",0,4,4,4,1,0,1,,,0,FALSE,,,,,,,,,,,,,,,,,,,,,,,,,,,,,,
,61393de3bfd993ba237393a3,001,2022-04-29_02h09.44.728,classification_task,2021.2.3,Win32,59.99160118,61393de3bfd993ba237393a3,626b377229c10585ec392f89,626b3acd4579ffd5d816e2f3,,,,,,,,,,,,,,,,,,,,,,,a,0,1.4836,"[""0.156"",""0.205"",""0.655"",""0.029""]","[1,1,1,0]",0,5,5,5,1,1,1,,,0,FALSE,,,,,,,,,,,,,,,,,,,,,,,,,,,,,,
,61393de3bfd993ba237393a3,001,2022-04-29_02h09.44.728,classification_task,2021.2.3,Win32,59.99160118,61393de3bfd993ba237393a3,626b377229c10585ec392f89,626b3acd4579ffd5d816e2f3,,,,,,,,,,,,,,,,,,,,,,,l,1,1.0169,"[""0.156"",""0.205"",""0.465"",""0.699""]","[1,1,0,1]",0,6,6,6,1,1,1,,,0,FALSE,,,,,,,,,,,,,,,,,,,,,,,,,,,,,,
,61393de3bfd993ba237393a3,001,2022-04-29_02h09.44.728,classification_task,2021.2.3,Win32,59.99160118,61393de3bfd993ba237393a3,626b377229c10585ec392f89,626b3acd4579ffd5d816e2f3,,,,,,,,,,,,,,,,,,,,,,,l,0,0.8338,"[""0.289"",""0.814"",""0.581"",""0.849""]","[1,0,1,1]",0,7,7,7,1,0,1,,,0,FALSE,,,,,,,,,,,,,,,,,,,,,,,,,,,,,,
,61393de3bfd993ba237393a3,001,2022-04-29_02h09.44.728,classification_task,2021.2.3,Win32,59.99160118,61393de3bfd993ba237393a3,626b377229c10585ec392f89,626b3acd4579ffd5d816e2f3,,,,,,,,,,,,,,,,,,,,,,,a,1,0.8835,"[""0.248"",""0.412"",""0.029"",""0.957""]","[1,1,0,1]",0,8,8,8,1,0,0,,,0,FALSE,,,,,,,,,,,,,,,,,,,,,,,,,,,,,,
,61393de3bfd993ba237393a3,001,2022-04-29_02h09.44.728,classification_task,2021.2.3,Win32,59.99160118,61393de3bfd993ba237393a3,626b377229c10585ec392f89,626b3acd4579ffd5d816e2f3,,,,,,,,,,,,,,,,,,,,,,,a,1,0.7836,"[""0.117"",""0.412"",""0.913"",""0.957""]","[0,1,1,1]",0,9,9,9,1,0,0,,,0,FALSE,,,,,,,,,,,,,,,,,,,,,,,,,,,,,,
,61393de3bfd993ba237393a3,001,2022-04-29_02h09.44.728,classification_task,2021.2.3,Win32,59.99160118,61393de3bfd993ba237393a3,626b377229c10585ec392f89,626b3acd4579ffd5d816e2f3,,,,,,,,,,,,,,,,,,,,,,,l,0,2.3669,"[""0.111"",""0.368"",""0.581"",""0.849""]","[0,1,1,1]",0,10,10,10,1,0,1,,,0,FALSE,,,,,,,,,,,,,,,,,,,,,,,,,,,,,,
,61393de3bfd993ba237393a3,001,2022-04-29_02h09.44.728,classification_task,2021.2.3,Win32,59.99160118,61393de3bfd993ba237393a3,626b377229c10585ec392f89,626b3acd4579ffd5d816e2f3,,,,,,,,,,,,,,,,,,,,,,,l,1,1.1169,"[""0.106"",""0.326"",""0.507"",""0.778""]","[0,1,1,1]",0,11,11,11,1,1,0,,,0,FALSE,,,,,,,,,,,,,,,,,,,,,,,,,,,,,,
,61393de3bfd993ba237393a3,001,2022-04-29_02h09.44.728,classification_task,2021.2.3,Win32,59.99160118,61393de3bfd993ba237393a3,626b377229c10585ec392f89,626b3acd4579ffd5d816e2f3,,,,,,,,,,,,,,,,,,,,,,,a,1,1.2502,"[""0.289"",""0.368"",""0.581"",""0.106""]","[1,1,1,0]",0,12,12,12,1,0,1,,,0,FALSE,,,,,,,,,,,,,,,,,,,,,,,,,,,,,,
,61393de3bfd993ba237393a3,001,2022-04-29_02h09.44.728,classification_task,2021.2.3,Win32,59.99160118,61393de3bfd993ba237393a3,626b377229c10585ec392f89,626b3acd4579ffd5d816e2f3,,,,,,,,,,,,,,,,,,,,,,,l,0,0.8169,"[""0.248"",""0.412"",""0.913"",""0.471""]","[1,1,1,0]",0,13,13,13,1,0,0,,,0,FALSE,,,,,,,,,,,,,,,,,,,,,,,,,,,,,,
,61393de3bfd993ba237393a3,001,2022-04-29_02h09.44.728,classification_task,2021.2.3,Win32,59.99160118,61393de3bfd993ba237393a3,626b377229c10585ec392f89,626b3acd4579ffd5d816e2f3,,,,,,,,,,,,,,,,,,,,,,,l,1,0.8336,"[""0.071"",""0.473"",""0.507"",""0.778""]","[1,0,1,1]",0,14,14,14,1,1,0,,,0,FALSE,,,,,,,,,,,,,,,,,,,,,,,,,,,,,,
,61393de3bfd993ba237393a3,001,2022-04-29_02h09.44.728,classification_task,2021.2.3,Win32,59.99160118,61393de3bfd993ba237393a3,626b377229c10585ec392f89,626b3acd4579ffd5d816e2f3,,,,,,,,,,,,,,,,,,,,,,,a,1,0.6502,"[""0.248"",""0.471"",""0.913"",""0.957""]","[1,0,1,1]",0,15,15,15,1,0,0,,,0,FALSE,,,,,,,,,,,,,,,,,,,,,,,,,,,,,,
,61393de3bfd993ba237393a3,001,2022-04-29_02h09.44.728,classification_task,2021.2.3,Win32,59.99160118,61393de3bfd993ba237393a3,626b377229c10585ec392f89,626b3acd4579ffd5d816e2f3,,,,,,,,,,,,,,,,,,,,,,,a,1,0.5266,"[""0.248"",""0.412"",""0.745"",""0.957""]","[1,1,0,1]",0,16,16,16,1,0,0,,,0,FALSE,,,,,,,,,,,,,,,,,,,,,,,,,,,,,,
,61393de3bfd993ba237393a3,001,2022-04-29_02h09.44.728,classification_task,2021.2.3,Win32,59.99160118,61393de3bfd993ba237393a3,626b377229c10585ec392f89,626b3acd4579ffd5d816e2f3,,,,,,,,,,,,,,,,,,,,,,,a,1,0.4669,"[""0.248"",""0.412"",""0.913"",""0.473""]","[1,1,1,0]",0,17,17,17,1,0,0,,,0,FALSE,,,,,,,,,,,,,,,,,,,,,,,,,,,,,,
,61393de3bfd993ba237393a3,001,2022-04-29_02h09.44.728,classification_task,2021.2.3,Win32,59.99160118,61393de3bfd993ba237393a3,626b377229c10585ec392f89,626b3acd4579ffd5d816e2f3,,,,,,,,,,,,,,,,,,,,,,,a,1,0.5502,"[""0.248"",""0.111"",""0.913"",""0.957""]","[1,0,1,1]",0,18,18,18,1,0,0,,,0,FALSE,,,,,,,,,,,,,,,,,,,,,,,,,,,,,,
,61393de3bfd993ba237393a3,001,2022-04-29_02h09.44.728,classification_task,2021.2.3,Win32,59.99160118,61393de3bfd993ba237393a3,626b377229c10585ec392f89,626b3acd4579ffd5d816e2f3,,,,,,,,,,,,,,,,,,,,,,,l,1,2.9004,"[""0.156"",""0.205"",""0.029"",""0.699""]","[1,1,0,1]",0,19,19,19,1,1,1,,,0,FALSE,,,,,,,,,,,,,,,,,,,,,,,,,,,,,,
,61393de3bfd993ba237393a3,001,2022-04-29_02h09.44.728,classification_task,2021.2.3,Win32,59.99160118,61393de3bfd993ba237393a3,626b377229c10585ec392f89,626b3acd4579ffd5d816e2f3,,,,,,,,,,,,,,,,,,,,,,,l,1,1.7337,"[""0.156"",""0.814"",""0.655"",""0.699""]","[1,0,1,1]",0,20,20,20,1,1,1,,,0,FALSE,,,,,,,,,,,,,,,,,,,,,,,,,,,,,,
,61393de3bfd993ba237393a3,001,2022-04-29_02h09.44.728,classification_task,2021.2.3,Win32,59.99160118,61393de3bfd993ba237393a3,626b377229c10585ec392f89,626b3acd4579ffd5d816e2f3,,,,,,,,,,,,,,,,,,,,,,,l,1,0.7504,"[""0.071"",""0.326"",""0.507"",""0.106""]","[1,1,1,0]",0,21,21,21,1,1,0,,,0,FALSE,,,,,,,,,,,,,,,,,,,,,,,,,,,,,,
,61393de3bfd993ba237393a3,001,2022-04-29_02h09.44.728,classification_task,2021.2.3,Win32,59.99160118,61393de3bfd993ba237393a3,626b377229c10585ec392f89,626b3acd4579ffd5d816e2f3,,,,,,,,,,,,,,,,,,,,,,,l,1,1.417,"[""0.156"",""0.205"",""0.655"",""0.106""]","[1,1,1,0]",0,22,22,22,1,1,1,,,0,FALSE,,,,,,,,,,,,,,,,,,,,,,,,,,,,,,
,61393de3bfd993ba237393a3,001,2022-04-29_02h09.44.728,classification_task,2021.2.3,Win32,59.99160118,61393de3bfd993ba237393a3,626b377229c10585ec392f89,626b3acd4579ffd5d816e2f3,,,,,,,,,,,,,,,,,,,,,,,l,1,0.6168,"[""0.473"",""0.326"",""0.507"",""0.778""]","[0,1,1,1]",0,23,23,23,1,1,0,,,0,FALSE,,,,,,,,,,,,,,,,,,,,,,,,,,,,,,
,61393de3bfd993ba237393a3,001,2022-04-29_02h09.44.728,classification_task,2021.2.3,Win32,59.99160118,61393de3bfd993ba237393a3,626b377229c10585ec392f89,626b3acd4579ffd5d816e2f3,,,,,,,,,,,,,,,,,,,,,,,l,1,0.4336,"[""0.071"",""0.473"",""0.507"",""0.778""]","[1,0,1,1]",0,24,24,24,1,1,0,,,0,FALSE,,,,,,,,,,,,,,,,,,,,,,,,,,,,,,
,61393de3bfd993ba237393a3,001,2022-04-29_02h09.44.728,classification_task,2021.2.3,Win32,59.99160118,61393de3bfd993ba237393a3,626b377229c10585ec392f89,626b3acd4579ffd5d816e2f3,,,,,,,,,,,,,,,,,,,,,,,a,1,0.4004,"[""0.111"",""0.412"",""0.913"",""0.957""]","[0,1,1,1]",0,25,25,25,1,0,0,,,0,FALSE,,,,,,,,,,,,,,,,,,,,,,,,,,,,,,
,61393de3bfd993ba237393a3,001,2022-04-29_02h09.44.728,classification_task,2021.2.3,Win32,59.99160118,61393de3bfd993ba237393a3,626b377229c10585ec392f89,626b3acd4579ffd5d816e2f3,,,,,,,,,,,,,,,,,,,,,,,a,1,1.4004,"[""0.289"",""0.473"",""0.581"",""0.849""]","[1,0,1,1]",0,26,26,26,1,0,1,,,0,FALSE,,,,,,,,,,,,,,,,,,,,,,,,,,,,,,
,61393de3bfd993ba237393a3,001,2022-04-29_02h09.44.728,classification_task,2021.2.3,Win32,59.99160118,61393de3bfd993ba237393a3,626b377229c10585ec392f89,626b3acd4579ffd5d816e2f3,,,,,,,,,,,,,,,,,,,,,,,a,1,0.9336,"[""0.289"",""0.368"",""0.581"",""0.740""]","[1,1,1,0]",0,27,27,27,1,0,1,,,0,FALSE,,,,,,,,,,,,,,,,,,,,,,,,,,,,,,
,61393de3bfd993ba237393a3,001,2022-04-29_02h09.44.728,classification_task,2021.2.3,Win32,59.99160118,61393de3bfd993ba237393a3,626b377229c10585ec392f89,626b3acd4579ffd5d816e2f3,,,,,,,,,,,,,,,,,,,,,,,l,1,1.167,"[""0.473"",""0.205"",""0.655"",""0.699""]","[0,1,1,1]",0,28,28,28,1,1,1,,,0,FALSE,,,,,,,,,,,,,,,,,,,,,,,,,,,,,,
,61393de3bfd993ba237393a3,001,2022-04-29_02h09.44.728,classification_task,2021.2.3,Win32,59.99160118,61393de3bfd993ba237393a3,626b377229c10585ec392f89,626b3acd4579ffd5d816e2f3,,,,,,,,,,,,,,,,,,,,,,,a,1,0.9004,"[""0.289"",""0.368"",""0.464"",""0.849""]","[1,1,0,1]",0,29,29,29,1,0,1,,,0,FALSE,,,,,,,,,,,,,,,,,,,,,,,,,,,,,,
,61393de3bfd993ba237393a3,001,2022-04-29_02h09.44.728,classification_task,2021.2.3,Win32,59.99160118,61393de3bfd993ba237393a3,626b377229c10585ec392f89,626b3acd4579ffd5d816e2f3,,,,,,,,,,,,,,,,,,,,,,,l,1,0.9004,"[""0.071"",""0.326"",""0.740"",""0.778""]","[1,1,0,1]",0,30,30,30,1,1,0,,,0,FALSE,,,,,,,,,,,,,,,,,,,,,,,,,,,,,,
,61393de3bfd993ba237393a3,001,2022-04-29_02h09.44.728,classification_task,2021.2.3,Win32,59.99160118,61393de3bfd993ba237393a3,626b377229c10585ec392f89,626b3acd4579ffd5d816e2f3,,,,,,,,,,,,,,,,,,,,,,,a,1,1.3838,"[""0.449"",""0.368"",""0.581"",""0.849""]","[0,1,1,1]",0,31,31,31,1,0,1,,,0,FALSE,,,,,,,,,,,,,,,,,,,,,,,,,,,,,,
,61393de3bfd993ba237393a3,001,2022-04-29_02h09.44.728,classification_task,2021.2.3,Win32,59.99160118,61393de3bfd993ba237393a3,626b377229c10585ec392f89,626b3acd4579ffd5d816e2f3,,,,,,,,,,,,,,,,,,,,,,,a,1,1.1002,"[""0.289"",""0.368"",""0.581"",""0.106""]","[1,1,1,0]",0,32,32,32,1,0,1,,,0,FALSE,,,,,,,,,,,,,,,,,,,,,,,,,,,,,,
,61393de3bfd993ba237393a3,001,2022-04-29_02h09.44.728,classification_task,2021.2.3,Win32,59.99160118,61393de3bfd993ba237393a3,626b377229c10585ec392f89,626b3acd4579ffd5d816e2f3,,,,,,,,,,,,,,,,,,,,,,,l,1,0.6669,"[""0.071"",""0.326"",""0.507"",""0.814""]","[1,1,1,0]",0,33,33,33,1,1,0,,,0,FALSE,,,,,,,,,,,,,,,,,,,,,,,,,,,,,,
,61393de3bfd993ba237393a3,001,2022-04-29_02h09.44.728,classification_task,2021.2.3,Win32,59.99160118,61393de3bfd993ba237393a3,626b377229c10585ec392f89,626b3acd4579ffd5d816e2f3,,,,,,,,,,,,,,,,,,,,,,,a,1,0.5835,"[""0.248"",""0.111"",""0.913"",""0.957""]","[1,0,1,1]",0,34,34,34,1,0,0,,,0,FALSE,,,,,,,,,,,,,,,,,,,,,,,,,,,,,,
,61393de3bfd993ba237393a3,001,2022-04-29_02h09.44.728,classification_task,2021.2.3,Win32,59.99160118,61393de3bfd993ba237393a3,626b377229c10585ec392f89,626b3acd4579ffd5d816e2f3,,,,,,,,,,,,,,,,,,,,,,,a,1,1.5005,"[""0.289"",""0.368"",""0.473"",""0.849""]","[1,1,0,1]",0,35,35,35,1,0,1,,,0,FALSE,,,,,,,,,,,,,,,,,,,,,,,,,,,,,,
,61393de3bfd993ba237393a3,001,2022-04-29_02h09.44.728,classification_task,2021.2.3,Win32,59.99160118,61393de3bfd993ba237393a3,626b377229c10585ec392f89,626b3acd4579ffd5d816e2f3,,,,,,,,,,,,,,,,,,,,,,,a,1,0.8835,"[""0.745"",""0.368"",""0.581"",""0.849""]","[0,1,1,1]",0,36,36,36,1,0,1,,,0,FALSE,,,,,,,,,,,,,,,,,,,,,,,,,,,,,,
,61393de3bfd993ba237393a3,001,2022-04-29_02h09.44.728,classification_task,2021.2.3,Win32,59.99160118,61393de3bfd993ba237393a3,626b377229c10585ec392f89,626b3acd4579ffd5d816e2f3,,,,,,,,,,,,,,,,,,,,,,,l,1,1.5169,"[""0.156"",""0.205"",""0.813"",""0.699""]","[1,1,0,1]",0,37,37,37,1,1,1,,,0,FALSE,,,,,,,,,,,,,,,,,,,,,,,,,,,,,,
,61393de3bfd993ba237393a3,001,2022-04-29_02h09.44.728,classification_task,2021.2.3,Win32,59.99160118,61393de3bfd993ba237393a3,626b377229c10585ec392f89,626b3acd4579ffd5d816e2f3,,,,,,,,,,,,,,,,,,,,,,,l,1,0.717,"[""0.071"",""0.326"",""0.029"",""0.778""]","[1,1,0,1]",0,38,38,38,1,1,0,,,0,FALSE,,,,,,,,,,,,,,,,,,,,,,,,,,,,,,
,61393de3bfd993ba237393a3,001,2022-04-29_02h09.44.728,classification_task,2021.2.3,Win32,59.99160118,61393de3bfd993ba237393a3,626b377229c10585ec392f89,626b3acd4579ffd5d816e2f3,,,,,,,,,,,,,,,,,,,,,,,l,1,1.8337,"[""0.740"",""0.205"",""0.655"",""0.699""]","[0,1,1,1]",0,39,39,39,1,1,1,,,0,FALSE,,,,,,,,,,,,,,,,,,,,,,,,,,,,,,
,61393de3bfd993ba237393a3,001,2022-04-29_02h09.44.728,classification_task,2021.2.3,Win32,59.99160118,61393de3bfd993ba237393a3,626b377229c10585ec392f89,626b3acd4579ffd5d816e2f3,,,,,,,,,,,,,,,,,,,,,,,l,1,0.7336,"[""0.071"",""0.471"",""0.507"",""0.778""]","[1,0,1,1]",0,40,40,40,1,1,0,,,0,FALSE,,,,,,,,,,,,,,,,,,,,,,,,,,,,,,
,61393de3bfd993ba237393a3,001,2022-04-29_02h09.44.728,classification_task,2021.2.3,Win32,59.99160118,61393de3bfd993ba237393a3,626b377229c10585ec392f89,626b3acd4579ffd5d816e2f3,,,,,,,,,,,,,,,,,,,,,,,a,1,0.5336,"[""0.471"",""0.412"",""0.913"",""0.957""]","[0,1,1,1]",0,41,41,41,1,0,0,,,0,FALSE,,,,,,,,,,,,,,,,,,,,,,,,,,,,,,
,61393de3bfd993ba237393a3,001,2022-04-29_02h09.44.728,classification_task,2021.2.3,Win32,59.99160118,61393de3bfd993ba237393a3,626b377229c10585ec392f89,626b3acd4579ffd5d816e2f3,,,,,,,,,,,,,,,,,,,,,,,l,1,1.3599,"[""0.156"",""0.205"",""0.655"",""0.117""]","[1,1,1,0]",0,42,42,42,1,1,1,,,0,FALSE,,,,,,,,,,,,,,,,,,,,,,,,,,,,,,
,61393de3bfd993ba237393a3,001,2022-04-29_02h09.44.728,classification_task,2021.2.3,Win32,59.99160118,61393de3bfd993ba237393a3,626b377229c10585ec392f89,626b3acd4579ffd5d816e2f3,,,,,,,,,,,,,,,,,,,,,,,a,1,0.6667,"[""0.248"",""0.412"",""0.913"",""0.745""]","[1,1,1,0]",0,43,43,43,1,0,0,,,0,FALSE,,,,,,,,,,,,,,,,,,,,,,,,,,,,,,
,61393de3bfd993ba237393a3,001,2022-04-29_02h09.44.728,classification_task,2021.2.3,Win32,59.99160118,61393de3bfd993ba237393a3,626b377229c10585ec392f89,626b3acd4579ffd5d816e2f3,,,,,,,,,,,,,,,,,,,,,,,l,1,1.2169,"[""0.156"",""0.029"",""0.655"",""0.699""]","[1,0,1,1]",0,44,44,44,1,1,1,,,0,FALSE,,,,,,,,,,,,,,,,,,,,,,,,,,,,,,
,61393de3bfd993ba237393a3,001,2022-04-29_02h09.44.728,classification_task,2021.2.3,Win32,59.99160118,61393de3bfd993ba237393a3,626b377229c10585ec392f89,626b3acd4579ffd5d816e2f3,,,,,,,,,,,,,,,,,,,,,,,a,1,0.6669,"[""0.248"",""0.412"",""0.111"",""0.957""]","[1,1,0,1]",0,45,45,45,1,0,0,,,0,FALSE,,,,,,,,,,,,,,,,,,,,,,,,,,,,,,
,61393de3bfd993ba237393a3,001,2022-04-29_02h09.44.728,classification_task,2021.2.3,Win32,59.99160118,61393de3bfd993ba237393a3,626b377229c10585ec392f89,626b3acd4579ffd5d816e2f3,,,,,,,,,,,,,,,,,,,,,,,l,1,0.6669,"[""0.111"",""0.326"",""0.507"",""0.778""]","[0,1,1,1]",0,46,46,46,1,1,0,,,0,FALSE,,,,,,,,,,,,,,,,,,,,,,,,,,,,,,
,61393de3bfd993ba237393a3,001,2022-04-29_02h09.44.728,classification_task,2021.2.3,Win32,59.99160118,61393de3bfd993ba237393a3,626b377229c10585ec392f89,626b3acd4579ffd5d816e2f3,,,,,,,,,,,,,,,,,,,,,,,a,1,1.6503,"[""0.289"",""0.111"",""0.581"",""0.849""]","[1,0,1,1]",0,47,47,47,1,0,1,,,0,FALSE,,,,,,,,,,,,,,,,,,,,,,,,,,,,,,
,61393de3bfd993ba237393a3,001,2022-04-29_02h09.44.728,classification_task,2021.2.3,Win32,59.99160118,61393de3bfd993ba237393a3,626b377229c10585ec392f89,626b3acd4579ffd5d816e2f3,,,,,,,,,,,,,,,,,,,,,,,a,1,0.6836,"[""0.289"",""0.368"",""0.733"",""0.849""]","[1,1,0,1]",0,48,48,48,1,0,1,,,0,FALSE,,,,,,,,,,,,,,,,,,,,,,,,,,,,,,
,61393de3bfd993ba237393a3,001,2022-04-29_02h09.44.728,classification_task,2021.2.3,Win32,59.99160118,61393de3bfd993ba237393a3,626b377229c10585ec392f89,626b3acd4579ffd5d816e2f3,,,,,,,,,,,,,,,,,,,,,,,a,1,0.6502,"[""0.248"",""0.117"",""0.913"",""0.957""]","[1,0,1,1]",0,49,49,49,1,0,0,,,0,FALSE,,,,,,,,,,,,,,,,,,,,,,,,,,,,,,
,61393de3bfd993ba237393a3,001,2022-04-29_02h09.44.728,classification_task,2021.2.3,Win32,59.99160118,61393de3bfd993ba237393a3,626b377229c10585ec392f89,626b3acd4579ffd5d816e2f3,,,,,,,,,,,,,,,,,,,,,,,a,1,1.0669,"[""0.289"",""0.368"",""0.581"",""0.449""]","[1,1,1,0]",0,50,50,50,1,0,1,,,0,FALSE,,,,,,,,,,,,,,,,,,,,,,,,,,,,,,
,61393de3bfd993ba237393a3,001,2022-04-29_02h09.44.728,classification_task,2021.2.3,Win32,59.99160118,61393de3bfd993ba237393a3,626b377229c10585ec392f89,626b3acd4579ffd5d816e2f3,,,,,,,,,,,,,,,,,,,,,,,l,1,1.6668,"[""0.156"",""0.205"",""0.814"",""0.699""]","[1,1,0,1]",0,51,51,51,1,1,1,,,0,FALSE,,,,,,,,,,,,,,,,,,,,,,,,,,,,,,
,61393de3bfd993ba237393a3,001,2022-04-29_02h09.44.728,classification_task,2021.2.3,Win32,59.99160118,61393de3bfd993ba237393a3,626b377229c10585ec392f89,626b3acd4579ffd5d816e2f3,,,,,,,,,,,,,,,,,,,,,,,l,1,1.4336,"[""0.029"",""0.326"",""0.507"",""0.778""]","[0,1,1,1]",0,52,52,52,1,1,0,,,0,FALSE,,,,,,,,,,,,,,,,,,,,,,,,,,,,,,
,61393de3bfd993ba237393a3,001,2022-04-29_02h09.44.728,classification_task,2021.2.3,Win32,59.99160118,61393de3bfd993ba237393a3,626b377229c10585ec392f89,626b3acd4579ffd5d816e2f3,,,,,,,,,,,,,,,,,,,,,,,l,1,0.7836,"[""0.071"",""0.326"",""0.464"",""0.778""]","[1,1,0,1]",0,53,53,53,1,1,0,,,0,FALSE,,,,,,,,,,,,,,,,,,,,,,,,,,,,,,
,61393de3bfd993ba237393a3,001,2022-04-29_02h09.44.728,classification_task,2021.2.3,Win32,59.99160118,61393de3bfd993ba237393a3,626b377229c10585ec392f89,626b3acd4579ffd5d816e2f3,,,,,,,,,,,,,,,,,,,,,,,l,1,1.2505,"[""0.156"",""0.117"",""0.655"",""0.699""]","[1,0,1,1]",0,54,54,54,1,1,1,,,0,FALSE,,,,,,,,,,,,,,,,,,,,,,,,,,,,,,
,61393de3bfd993ba237393a3,001,2022-04-29_02h09.44.728,classification_task,2021.2.3,Win32,59.99160118,61393de3bfd993ba237393a3,626b377229c10585ec392f89,626b3acd4579ffd5d816e2f3,,,,,,,,,,,,,,,,,,,,,,,a,1,0.7003,"[""0.248"",""0.412"",""0.111"",""0.957""]","[1,1,0,1]",0,55,55,55,1,0,0,,,0,FALSE,,,,,,,,,,,,,,,,,,,,,,,,,,,,,,
,61393de3bfd993ba237393a3,001,2022-04-29_02h09.44.728,classification_task,2021.2.3,Win32,59.99160118,61393de3bfd993ba237393a3,626b377229c10585ec392f89,626b3acd4579ffd5d816e2f3,,,,,,,,,,,,,,,,,,,,,,,l,1,1.3168,"[""0.156"",""0.205"",""0.655"",""0.473""]","[1,1,1,0]",0,56,56,56,1,1,1,,,0,FALSE,,,,,,,,,,,,,,,,,,,,,,,,,,,,,,
,61393de3bfd993ba237393a3,001,2022-04-29_02h09.44.728,classification_task,2021.2.3,Win32,59.99160118,61393de3bfd993ba237393a3,626b377229c10585ec392f89,626b3acd4579ffd5d816e2f3,,,,,,,,,,,,,,,,,,,,,,,l,1,0.817,"[""0.071"",""0.465"",""0.507"",""0.778""]","[1,0,1,1]",0,57,57,57,1,1,0,,,0,FALSE,,,,,,,,,,,,,,,,,,,,,,,,,,,,,,
,61393de3bfd993ba237393a3,001,2022-04-29_02h09.44.728,classification_task,2021.2.3,Win32,59.99160118,61393de3bfd993ba237393a3,626b377229c10585ec392f89,626b3acd4579ffd5d816e2f3,,,,,,,,,,,,,,,,,,,,,,,a,1,0.4835,"[""0.465"",""0.412"",""0.913"",""0.957""]","[0,1,1,1]",0,58,58,58,1,0,0,,,0,FALSE,,,,,,,,,,,,,,,,,,,,,,,,,,,,,,
,61393de3bfd993ba237393a3,001,2022-04-29_02h09.44.728,classification_task,2021.2.3,Win32,59.99160118,61393de3bfd993ba237393a3,626b377229c10585ec392f89,626b3acd4579ffd5d816e2f3,,,,,,,,,,,,,,,,,,,,,,,l,1,0.65,"[""0.071"",""0.326"",""0.507"",""0.465""]","[1,1,1,0]",0,59,59,59,1,1,0,,,0,FALSE,,,,,,,,,,,,,,,,,,,,,,,,,,,,,,
,61393de3bfd993ba237393a3,001,2022-04-29_02h09.44.728,classification_task,2021.2.3,Win32,59.99160118,61393de3bfd993ba237393a3,626b377229c10585ec392f89,626b3acd4579ffd5d816e2f3,,,,,,,,,,,,,,,,,,,,,,,l,0,1.2338,"[""0.473"",""0.368"",""0.581"",""0.849""]","[0,1,1,1]",0,60,60,60,1,0,1,,,0,FALSE,,,,,,,,,,,,,,,,,,,,,,,,,,,,,,
,61393de3bfd993ba237393a3,001,2022-04-29_02h09.44.728,classification_task,2021.2.3,Win32,59.99160118,61393de3bfd993ba237393a3,626b377229c10585ec392f89,626b3acd4579ffd5d816e2f3,,,,,,,,,,,,,,,,,,,,,,,a,1,1.1503,"[""0.289"",""0.471"",""0.581"",""0.849""]","[1,0,1,1]",0,61,61,61,1,0,1,,,0,FALSE,,,,,,,,,,,,,,,,,,,,,,,,,,,,,,
,61393de3bfd993ba237393a3,001,2022-04-29_02h09.44.728,classification_task,2021.2.3,Win32,59.99160118,61393de3bfd993ba237393a3,626b377229c10585ec392f89,626b3acd4579ffd5d816e2f3,,,,,,,,,,,,,,,,,,,,,,,l,1,1.0002,"[""0.029"",""0.205"",""0.655"",""0.699""]","[0,1,1,1]",0,62,62,62,1,1,1,,,0,FALSE,,,,,,,,,,,,,,,,,,,,,,,,,,,,,,
,61393de3bfd993ba237393a3,001,2022-04-29_02h09.44.728,classification_task,2021.2.3,Win32,59.99160118,61393de3bfd993ba237393a3,626b377229c10585ec392f89,626b3acd4579ffd5d816e2f3,,,,,,,,,,,,,,,,,,,,,,,a,1,0.8503,"[""0.248"",""0.412"",""0.913"",""0.029""]","[1,1,1,0]",0,63,63,63,1,0,0,,,0,FALSE,,,,,,,,,,,,,,,,,,,,,,,,,,,,,,
,61393de3bfd993ba237393a3,001,2022-04-29_02h09.44.728,classification_task,2021.2.3,Win32,59.99160118,61393de3bfd993ba237393a3,626b377229c10585ec392f89,626b3acd4579ffd5d816e2f3,,,,,,,,,,,,,,,,,,,,,,,,,,,,,,,,,,,,,,,0, ,,0,0,167.02,0,1,1,1,1,2,2,,,,,,,,,,,,,,,,,
,61393de3bfd993ba237393a3,001,2022-04-29_02h09.44.728,classification_task,2021.2.3,Win32,59.99160118,61393de3bfd993ba237393a3,626b377229c10585ec392f89,626b3acd4579ffd5d816e2f3,,,,,,,,,,,,,,,,,,,,,,,,,,,,,,,,,,,,,,,1,  ,,0,3.015873016,170.6979,0,1,1,1,1,2,2,,,,,,,,,,,,,,,,,
,61393de3bfd993ba237393a3,001,2022-04-29_02h09.44.728,classification_task,2021.2.3,Win32,59.99160118,61393de3bfd993ba237393a3,626b377229c10585ec392f89,626b3acd4579ffd5d816e2f3,,,,,,,,,,,,,,,,,,,,,,,,,,,,,,,,,,,,,,,2,  ,,0,2.746423672,172.8481,0,1,1,1,1,2,2,,,,,,,,,,,,,,,,,
,61393de3bfd993ba237393a3,001,2022-04-29_02h09.44.728,classification_task,2021.2.3,Win32,59.99160118,61393de3bfd993ba237393a3,626b377229c10585ec392f89,626b3acd4579ffd5d816e2f3,,,,,,,,,,,,,,,,,,,,,,,,,,,,,,,,,,,,,,,,,,,,,0,1,1,1,1,,2,,,,,,,,,,,,,,,,,
,61393de3bfd993ba237393a3,001,2022-04-29_02h09.44.728,classification_task,2021.2.3,Win32,59.99160118,61393de3bfd993ba237393a3,626b377229c10585ec392f89,626b3acd4579ffd5d816e2f3,,,,,,,,,,,,,,,,,,,,,space,21.786,l,1,1.8003,"[""0.464"",""0.205"",""0.655"",""0.699""]","[0,1,1,1]",0,0,0,0,1,1,1,,,0,FALSE,,,,,,,,,,,,,,,,,,,,,,,,,,,,,,
,61393de3bfd993ba237393a3,001,2022-04-29_02h09.44.728,classification_task,2021.2.3,Win32,59.99160118,61393de3bfd993ba237393a3,626b377229c10585ec392f89,626b3acd4579ffd5d816e2f3,,,,,,,,,,,,,,,,,,,,,,,a,0,2.2669,"[""0.071"",""0.326"",""0.465"",""0.778""]","[1,1,0,1]",0,1,1,1,1,1,0,,,0,FALSE,,,,,,,,,,,,,,,,,,,,,,,,,,,,,,
,61393de3bfd993ba237393a3,001,2022-04-29_02h09.44.728,classification_task,2021.2.3,Win32,59.99160118,61393de3bfd993ba237393a3,626b377229c10585ec392f89,626b3acd4579ffd5d816e2f3,,,,,,,,,,,,,,,,,,,,,,,a,1,2.3169,"[""0.106"",""0.368"",""0.581"",""0.849""]","[0,1,1,1]",0,2,2,2,1,0,1,,,0,FALSE,,,,,,,,,,,,,,,,,,,,,,,,,,,,,,
,61393de3bfd993ba237393a3,001,2022-04-29_02h09.44.728,classification_task,2021.2.3,Win32,59.99160118,61393de3bfd993ba237393a3,626b377229c10585ec392f89,626b3acd4579ffd5d816e2f3,,,,,,,,,,,,,,,,,,,,,,,l,1,1.4337,"[""0.071"",""0.465"",""0.507"",""0.778""]","[1,0,1,1]",0,3,3,3,1,1,0,,,0,FALSE,,,,,,,,,,,,,,,,,,,,,,,,,,,,,,
,61393de3bfd993ba237393a3,001,2022-04-29_02h09.44.728,classification_task,2021.2.3,Win32,59.99160118,61393de3bfd993ba237393a3,626b377229c10585ec392f89,626b3acd4579ffd5d816e2f3,,,,,,,,,,,,,,,,,,,,,,,a,0,1.567,"[""0.071"",""0.326"",""0.507"",""0.106""]","[1,1,1,0]",0,4,4,4,1,1,0,,,0,FALSE,,,,,,,,,,,,,,,,,,,,,,,,,,,,,,
,61393de3bfd993ba237393a3,001,2022-04-29_02h09.44.728,classification_task,2021.2.3,Win32,59.99160118,61393de3bfd993ba237393a3,626b377229c10585ec392f89,626b3acd4579ffd5d816e2f3,,,,,,,,,,,,,,,,,,,,,,,a,1,1.1336,"[""0.289"",""0.368"",""0.473"",""0.849""]","[1,1,0,1]",0,5,5,5,1,0,1,,,0,FALSE,,,,,,,,,,,,,,,,,,,,,,,,,,,,,,
,61393de3bfd993ba237393a3,001,2022-04-29_02h09.44.728,classification_task,2021.2.3,Win32,59.99160118,61393de3bfd993ba237393a3,626b377229c10585ec392f89,626b3acd4579ffd5d816e2f3,,,,,,,,,,,,,,,,,,,,,,,a,1,1.4335,"[""0.248"",""0.813"",""0.913"",""0.957""]","[1,0,1,1]",0,6,6,6,1,0,0,,,0,FALSE,,,,,,,,,,,,,,,,,,,,,,,,,,,,,,
,61393de3bfd993ba237393a3,001,2022-04-29_02h09.44.728,classification_task,2021.2.3,Win32,59.99160118,61393de3bfd993ba237393a3,626b377229c10585ec392f89,626b3acd4579ffd5d816e2f3,,,,,,,,,,,,,,,,,,,,,,,l,1,1.3836,"[""0.156"",""0.745"",""0.655"",""0.699""]","[1,0,1,1]",0,7,7,7,1,1,1,,,0,FALSE,,,,,,,,,,,,,,,,,,,,,,,,,,,,,,
,61393de3bfd993ba237393a3,001,2022-04-29_02h09.44.728,classification_task,2021.2.3,Win32,59.99160118,61393de3bfd993ba237393a3,626b377229c10585ec392f89,626b3acd4579ffd5d816e2f3,,,,,,,,,,,,,,,,,,,,,,,l,1,0.9837,"[""0.156"",""0.205"",""0.655"",""0.813""]","[1,1,1,0]",0,8,8,8,1,1,1,,,0,FALSE,,,,,,,,,,,,,,,,,,,,,,,,,,,,,,
,61393de3bfd993ba237393a3,001,2022-04-29_02h09.44.728,classification_task,2021.2.3,Win32,59.99160118,61393de3bfd993ba237393a3,626b377229c10585ec392f89,626b3acd4579ffd5d816e2f3,,,,,,,,,,,,,,,,,,,,,,,a,1,1.7337,"[""0.289"",""0.368"",""0.581"",""0.106""]","[1,1,1,0]",0,9,9,9,1,0,1,,,0,FALSE,,,,,,,,,,,,,,,,,,,,,,,,,,,,,,
,61393de3bfd993ba237393a3,001,2022-04-29_02h09.44.728,classification_task,2021.2.3,Win32,59.99160118,61393de3bfd993ba237393a3,626b377229c10585ec392f89,626b3acd4579ffd5d816e2f3,,,,,,,,,,,,,,,,,,,,,,,a,1,0.7003,"[""0.289"",""0.740"",""0.581"",""0.849""]","[1,0,1,1]",0,10,10,10,1,0,1,,,0,FALSE,,,,,,,,,,,,,,,,,,,,,,,,,,,,,,
,61393de3bfd993ba237393a3,001,2022-04-29_02h09.44.728,classification_task,2021.2.3,Win32,59.99160118,61393de3bfd993ba237393a3,626b377229c10585ec392f89,626b3acd4579ffd5d816e2f3,,,,,,,,,,,,,,,,,,,,,,,l,1,0.9503,"[""0.156"",""0.205"",""0.106"",""0.699""]","[1,1,0,1]",0,11,11,11,1,1,1,,,0,FALSE,,,,,,,,,,,,,,,,,,,,,,,,,,,,,,
,61393de3bfd993ba237393a3,001,2022-04-29_02h09.44.728,classification_task,2021.2.3,Win32,59.99160118,61393de3bfd993ba237393a3,626b377229c10585ec392f89,626b3acd4579ffd5d816e2f3,,,,,,,,,,,,,,,,,,,,,,,a,1,1.3502,"[""0.248"",""0.412"",""0.117"",""0.957""]","[1,1,0,1]",0,12,12,12,1,0,0,,,0,FALSE,,,,,,,,,,,,,,,,,,,,,,,,,,,,,,
,61393de3bfd993ba237393a3,001,2022-04-29_02h09.44.728,classification_task,2021.2.3,Win32,59.99160118,61393de3bfd993ba237393a3,626b377229c10585ec392f89,626b3acd4579ffd5d816e2f3,,,,,,,,,,,,,,,,,,,,,,,a,1,0.7336,"[""0.248"",""0.412"",""0.913"",""0.029""]","[1,1,1,0]",0,13,13,13,1,0,0,,,0,FALSE,,,,,,,,,,,,,,,,,,,,,,,,,,,,,,
,61393de3bfd993ba237393a3,001,2022-04-29_02h09.44.728,classification_task,2021.2.3,Win32,59.99160118,61393de3bfd993ba237393a3,626b377229c10585ec392f89,626b3acd4579ffd5d816e2f3,,,,,,,,,,,,,,,,,,,,,,,a,0,0.8502,"[""0.111"",""0.326"",""0.507"",""0.778""]","[0,1,1,1]",0,14,14,14,1,1,0,,,0,FALSE,,,,,,,,,,,,,,,,,,,,,,,,,,,,,,
,61393de3bfd993ba237393a3,001,2022-04-29_02h09.44.728,classification_task,2021.2.3,Win32,59.99160118,61393de3bfd993ba237393a3,626b377229c10585ec392f89,626b3acd4579ffd5d816e2f3,,,,,,,,,,,,,,,,,,,,,,,l,0,0.9668,"[""0.740"",""0.412"",""0.913"",""0.957""]","[0,1,1,1]",0,15,15,15,1,0,0,,,0,FALSE,,,,,,,,,,,,,,,,,,,,,,,,,,,,,,
,61393de3bfd993ba237393a3,001,2022-04-29_02h09.44.728,classification_task,2021.2.3,Win32,59.99160118,61393de3bfd993ba237393a3,626b377229c10585ec392f89,626b3acd4579ffd5d816e2f3,,,,,,,,,,,,,,,,,,,,,,,a,0,1.0336,"[""0.029"",""0.326"",""0.507"",""0.778""]","[0,1,1,1]",0,16,16,16,1,1,0,,,0,FALSE,,,,,,,,,,,,,,,,,,,,,,,,,,,,,,
,61393de3bfd993ba237393a3,001,2022-04-29_02h09.44.728,classification_task,2021.2.3,Win32,59.99160118,61393de3bfd993ba237393a3,626b377229c10585ec392f89,626b3acd4579ffd5d816e2f3,,,,,,,,,,,,,,,,,,,,,,,a,1,0.7671,"[""0.248"",""0.412"",""0.117"",""0.957""]","[1,1,0,1]",0,17,17,17,1,0,0,,,0,FALSE,,,,,,,,,,,,,,,,,,,,,,,,,,,,,,
,61393de3bfd993ba237393a3,001,2022-04-29_02h09.44.728,classification_task,2021.2.3,Win32,59.99160118,61393de3bfd993ba237393a3,626b377229c10585ec392f89,626b3acd4579ffd5d816e2f3,,,,,,,,,,,,,,,,,,,,,,,a,1,0.7837,"[""0.248"",""0.733"",""0.913"",""0.957""]","[1,0,1,1]",0,18,18,18,1,0,0,,,0,FALSE,,,,,,,,,,,,,,,,,,,,,,,,,,,,,,
,61393de3bfd993ba237393a3,001,2022-04-29_02h09.44.728,classification_task,2021.2.3,Win32,59.99160118,61393de3bfd993ba237393a3,626b377229c10585ec392f89,626b3acd4579ffd5d816e2f3,,,,,,,,,,,,,,,,,,,,,,,l,1,2.0835,"[""0.449"",""0.205"",""0.655"",""0.699""]","[0,1,1,1]",0,19,19,19,1,1,1,,,0,FALSE,,,,,,,,,,,,,,,,,,,,,,,,,,,,,,
,61393de3bfd993ba237393a3,001,2022-04-29_02h09.44.728,classification_task,2021.2.3,Win32,59.99160118,61393de3bfd993ba237393a3,626b377229c10585ec392f89,626b3acd4579ffd5d816e2f3,,,,,,,,,,,,,,,,,,,,,,,l,1,1.3002,"[""0.156"",""0.813"",""0.655"",""0.699""]","[1,0,1,1]",0,20,20,20,1,1,1,,,0,FALSE,,,,,,,,,,,,,,,,,,,,,,,,,,,,,,
,61393de3bfd993ba237393a3,001,2022-04-29_02h09.44.728,classification_task,2021.2.3,Win32,59.99160118,61393de3bfd993ba237393a3,626b377229c10585ec392f89,626b3acd4579ffd5d816e2f3,,,,,,,,,,,,,,,,,,,,,,,a,1,0.867,"[""0.289"",""0.368"",""0.465"",""0.849""]","[1,1,0,1]",0,21,21,21,1,0,1,,,0,FALSE,,,,,,,,,,,,,,,,,,,,,,,,,,,,,,
,61393de3bfd993ba237393a3,001,2022-04-29_02h09.44.728,classification_task,2021.2.3,Win32,59.99160118,61393de3bfd993ba237393a3,626b377229c10585ec392f89,626b3acd4579ffd5d816e2f3,,,,,,,,,,,,,,,,,,,,,,,a,1,0.7669,"[""0.289"",""0.368"",""0.581"",""0.464""]","[1,1,1,0]",0,22,22,22,1,0,1,,,0,FALSE,,,,,,,,,,,,,,,,,,,,,,,,,,,,,,
,61393de3bfd993ba237393a3,001,2022-04-29_02h09.44.728,classification_task,2021.2.3,Win32,59.99160118,61393de3bfd993ba237393a3,626b377229c10585ec392f89,626b3acd4579ffd5d816e2f3,,,,,,,,,,,,,,,,,,,,,,,a,1,0.7836,"[""0.464"",""0.368"",""0.581"",""0.849""]","[0,1,1,1]",0,23,23,23,1,0,1,,,0,FALSE,,,,,,,,,,,,,,,,,,,,,,,,,,,,,,
,61393de3bfd993ba237393a3,001,2022-04-29_02h09.44.728,classification_task,2021.2.3,Win32,59.99160118,61393de3bfd993ba237393a3,626b377229c10585ec392f89,626b3acd4579ffd5d816e2f3,,,,,,,,,,,,,,,,,,,,,,,l,0,1.1503,"[""0.248"",""0.412"",""0.913"",""0.745""]","[1,1,1,0]",0,24,24,24,1,0,0,,,0,FALSE,,,,,,,,,,,,,,,,,,,,,,,,,,,,,,
,61393de3bfd993ba237393a3,001,2022-04-29_02h09.44.728,classification_task,2021.2.3,Win32,59.99160118,61393de3bfd993ba237393a3,626b377229c10585ec392f89,626b3acd4579ffd5d816e2f3,,,,,,,,,,,,,,,,,,,,,,,a,0,0.6169,"[""0.071"",""0.111"",""0.507"",""0.778""]","[1,0,1,1]",0,25,25,25,1,1,0,,,0,FALSE,,,,,,,,,,,,,,,,,,,,,,,,,,,,,,
,61393de3bfd993ba237393a3,001,2022-04-29_02h09.44.728,classification_task,2021.2.3,Win32,59.99160118,61393de3bfd993ba237393a3,626b377229c10585ec392f89,626b3acd4579ffd5d816e2f3,,,,,,,,,,,,,,,,,,,,,,,l,1,1.0669,"[""0.071"",""0.326"",""0.814"",""0.778""]","[1,1,0,1]",0,26,26,26,1,1,0,,,0,FALSE,,,,,,,,,,,,,,,,,,,,,,,,,,,,,,
,61393de3bfd993ba237393a3,001,2022-04-29_02h09.44.728,classification_task,2021.2.3,Win32,59.99160118,61393de3bfd993ba237393a3,626b377229c10585ec392f89,626b3acd4579ffd5d816e2f3,,,,,,,,,,,,,,,,,,,,,,,l,1,1.0669,"[""0.071"",""0.326"",""0.507"",""0.745""]","[1,1,1,0]",0,27,27,27,1,1,0,,,0,FALSE,,,,,,,,,,,,,,,,,,,,,,,,,,,,,,
,61393de3bfd993ba237393a3,001,2022-04-29_02h09.44.728,classification_task,2021.2.3,Win32,59.99160118,61393de3bfd993ba237393a3,626b377229c10585ec392f89,626b3acd4579ffd5d816e2f3,,,,,,,,,,,,,,,,,,,,,,,l,1,1.167,"[""0.156"",""0.205"",""0.029"",""0.699""]","[1,1,0,1]",0,28,28,28,1,1,1,,,0,FALSE,,,,,,,,,,,,,,,,,,,,,,,,,,,,,,
,61393de3bfd993ba237393a3,001,2022-04-29_02h09.44.728,classification_task,2021.2.3,Win32,59.99160118,61393de3bfd993ba237393a3,626b377229c10585ec392f89,626b3acd4579ffd5d816e2f3,,,,,,,,,,,,,,,,,,,,,,,l,1,0.7502,"[""0.156"",""0.205"",""0.655"",""0.106""]","[1,1,1,0]",0,29,29,29,1,1,1,,,0,FALSE,,,,,,,,,,,,,,,,,,,,,,,,,,,,,,
,61393de3bfd993ba237393a3,001,2022-04-29_02h09.44.728,classification_task,2021.2.3,Win32,59.99160118,61393de3bfd993ba237393a3,626b377229c10585ec392f89,626b3acd4579ffd5d816e2f3,,,,,,,,,,,,,,,,,,,,,,,a,1,0.9004,"[""0.289"",""0.029"",""0.581"",""0.849""]","[1,0,1,1]",0,30,30,30,1,0,1,,,0,FALSE,,,,,,,,,,,,,,,,,,,,,,,,,,,,,,
,61393de3bfd993ba237393a3,001,2022-04-29_02h09.44.728,classification_task,2021.2.3,Win32,59.99160118,61393de3bfd993ba237393a3,626b377229c10585ec392f89,626b3acd4579ffd5d816e2f3,,,,,,,,,,,,,,,,,,,,,,,a,1,1.3336,"[""0.473"",""0.412"",""0.913"",""0.957""]","[0,1,1,1]",0,31,31,31,1,0,0,,,0,FALSE,,,,,,,,,,,,,,,,,,,,,,,,,,,,,,
,61393de3bfd993ba237393a3,001,2022-04-29_02h09.44.728,classification_task,2021.2.3,Win32,59.99160118,61393de3bfd993ba237393a3,626b377229c10585ec392f89,626b3acd4579ffd5d816e2f3,,,,,,,,,,,,,,,,,,,,,,,l,1,2.1836,"[""0.465"",""0.205"",""0.655"",""0.699""]","[0,1,1,1]",0,32,32,32,1,1,1,,,0,FALSE,,,,,,,,,,,,,,,,,,,,,,,,,,,,,,
,61393de3bfd993ba237393a3,001,2022-04-29_02h09.44.728,classification_task,2021.2.3,Win32,59.99160118,61393de3bfd993ba237393a3,626b377229c10585ec392f89,626b3acd4579ffd5d816e2f3,,,,,,,,,,,,,,,,,,,,,,,a,1,0.8003,"[""0.248"",""0.412"",""0.913"",""0.449""]","[1,1,1,0]",0,33,33,33,1,0,0,,,0,FALSE,,,,,,,,,,,,,,,,,,,,,,,,,,,,,,
,61393de3bfd993ba237393a3,001,2022-04-29_02h09.44.728,classification_task,2021.2.3,Win32,59.99160118,61393de3bfd993ba237393a3,626b377229c10585ec392f89,626b3acd4579ffd5d816e2f3,,,,,,,,,,,,,,,,,,,,,,,l,1,0.8504,"[""0.071"",""0.106"",""0.507"",""0.778""]","[1,0,1,1]",0,34,34,34,1,1,0,,,0,FALSE,,,,,,,,,,,,,,,,,,,,,,,,,,,,,,
,61393de3bfd993ba237393a3,001,2022-04-29_02h09.44.728,classification_task,2021.2.3,Win32,59.99160118,61393de3bfd993ba237393a3,626b377229c10585ec392f89,626b3acd4579ffd5d816e2f3,,,,,,,,,,,,,,,,,,,,,,,a,1,1.0837,"[""0.248"",""0.740"",""0.913"",""0.957""]","[1,0,1,1]",0,35,35,35,1,0,0,,,0,FALSE,,,,,,,,,,,,,,,,,,,,,,,,,,,,,,
,61393de3bfd993ba237393a3,001,2022-04-29_02h09.44.728,classification_task,2021.2.3,Win32,59.99160118,61393de3bfd993ba237393a3,626b377229c10585ec392f89,626b3acd4579ffd5d816e2f3,,,,,,,,,,,,,,,,,,,,,,,a,0,1.1504,"[""0.071"",""0.326"",""0.507"",""0.117""]","[1,1,1,0]",0,36,36,36,1,1,0,,,0,FALSE,,,,,,,,,,,,,,,,,,,,,,,,,,,,,,
,61393de3bfd993ba237393a3,001,2022-04-29_02h09.44.728,classification_task,2021.2.3,Win32,59.99160118,61393de3bfd993ba237393a3,626b377229c10585ec392f89,626b3acd4579ffd5d816e2f3,,,,,,,,,,,,,,,,,,,,,,,a,1,1.317,"[""0.289"",""0.368"",""0.473"",""0.849""]","[1,1,0,1]",0,37,37,37,1,0,1,,,0,FALSE,,,,,,,,,,,,,,,,,,,,,,,,,,,,,,
,61393de3bfd993ba237393a3,001,2022-04-29_02h09.44.728,classification_task,2021.2.3,Win32,59.99160118,61393de3bfd993ba237393a3,626b377229c10585ec392f89,626b3acd4579ffd5d816e2f3,,,,,,,,,,,,,,,,,,,,,,,l,1,1.017,"[""0.156"",""0.205"",""0.655"",""0.813""]","[1,1,1,0]",0,38,38,38,1,1,1,,,0,FALSE,,,,,,,,,,,,,,,,,,,,,,,,,,,,,,
,61393de3bfd993ba237393a3,001,2022-04-29_02h09.44.728,classification_task,2021.2.3,Win32,59.99160118,61393de3bfd993ba237393a3,626b377229c10585ec392f89,626b3acd4579ffd5d816e2f3,,,,,,,,,,,,,,,,,,,,,,,a,1,1.267,"[""0.289"",""0.111"",""0.581"",""0.849""]","[1,0,1,1]",0,39,39,39,1,0,1,,,0,FALSE,,,,,,,,,,,,,,,,,,,,,,,,,,,,,,
,61393de3bfd993ba237393a3,001,2022-04-29_02h09.44.728,classification_task,2021.2.3,Win32,59.99160118,61393de3bfd993ba237393a3,626b377229c10585ec392f89,626b3acd4579ffd5d816e2f3,,,,,,,,,,,,,,,,,,,,,,,a,0,1.1336,"[""0.106"",""0.326"",""0.507"",""0.778""]","[0,1,1,1]",0,40,40,40,1,1,0,,,0,FALSE,,,,,,,,,,,,,,,,,,,,,,,,,,,,,,
,61393de3bfd993ba237393a3,001,2022-04-29_02h09.44.728,classification_task,2021.2.3,Win32,59.99160118,61393de3bfd993ba237393a3,626b377229c10585ec392f89,626b3acd4579ffd5d816e2f3,,,,,,,,,,,,,,,,,,,,,,,l,1,1.0671,"[""0.156"",""0.733"",""0.655"",""0.699""]","[1,0,1,1]",0,41,41,41,1,1,1,,,0,FALSE,,,,,,,,,,,,,,,,,,,,,,,,,,,,,,
,61393de3bfd993ba237393a3,001,2022-04-29_02h09.44.728,classification_task,2021.2.3,Win32,59.99160118,61393de3bfd993ba237393a3,626b377229c10585ec392f89,626b3acd4579ffd5d816e2f3,,,,,,,,,,,,,,,,,,,,,,,a,1,1.0337,"[""0.740"",""0.412"",""0.913"",""0.957""]","[0,1,1,1]",0,42,42,42,1,0,0,,,0,FALSE,,,,,,,,,,,,,,,,,,,,,,,,,,,,,,
,61393de3bfd993ba237393a3,001,2022-04-29_02h09.44.728,classification_task,2021.2.3,Win32,59.99160118,61393de3bfd993ba237393a3,626b377229c10585ec392f89,626b3acd4579ffd5d816e2f3,,,,,,,,,,,,,,,,,,,,,,,a,1,1.867,"[""0.289"",""0.368"",""0.581"",""0.117""]","[1,1,1,0]",0,43,43,43,1,0,1,,,0,FALSE,,,,,,,,,,,,,,,,,,,,,,,,,,,,,,
,61393de3bfd993ba237393a3,001,2022-04-29_02h09.44.728,classification_task,2021.2.3,Win32,59.99160118,61393de3bfd993ba237393a3,626b377229c10585ec392f89,626b3acd4579ffd5d816e2f3,,,,,,,,,,,,,,,,,,,,,,,l,1,1.4503,"[""0.071"",""0.326"",""0.740"",""0.778""]","[1,1,0,1]",0,44,44,44,1,1,0,,,0,FALSE,,,,,,,,,,,,,,,,,,,,,,,,,,,,,,
,61393de3bfd993ba237393a3,001,2022-04-29_02h09.44.728,classification_task,2021.2.3,Win32,59.99160118,61393de3bfd993ba237393a3,626b377229c10585ec392f89,626b3acd4579ffd5d816e2f3,,,,,,,,,,,,,,,,,,,,,,,l,1,1.2336,"[""0.156"",""0.205"",""0.473"",""0.699""]","[1,1,0,1]",0,45,45,45,1,1,1,,,0,FALSE,,,,,,,,,,,,,,,,,,,,,,,,,,,,,,
,61393de3bfd993ba237393a3,001,2022-04-29_02h09.44.728,classification_task,2021.2.3,Win32,59.99160118,61393de3bfd993ba237393a3,626b377229c10585ec392f89,626b3acd4579ffd5d816e2f3,,,,,,,,,,,,,,,,,,,,,,,a,1,1.6003,"[""0.733"",""0.368"",""0.581"",""0.849""]","[0,1,1,1]",0,46,46,46,1,0,1,,,0,FALSE,,,,,,,,,,,,,,,,,,,,,,,,,,,,,,
,61393de3bfd993ba237393a3,001,2022-04-29_02h09.44.728,classification_task,2021.2.3,Win32,59.99160118,61393de3bfd993ba237393a3,626b377229c10585ec392f89,626b3acd4579ffd5d816e2f3,,,,,,,,,,,,,,,,,,,,,,,l,0,0.9838,"[""0.248"",""0.412"",""0.117"",""0.957""]","[1,1,0,1]",0,47,47,47,1,0,0,,,0,FALSE,,,,,,,,,,,,,,,,,,,,,,,,,,,,,,
,61393de3bfd993ba237393a3,001,2022-04-29_02h09.44.728,classification_task,2021.2.3,Win32,59.99160118,61393de3bfd993ba237393a3,626b377229c10585ec392f89,626b3acd4579ffd5d816e2f3,,,,,,,,,,,,,,,,,,,,,,,a,1,0.9169,"[""0.289"",""0.368"",""0.581"",""0.117""]","[1,1,1,0]",0,48,48,48,1,0,1,,,0,FALSE,,,,,,,,,,,,,,,,,,,,,,,,,,,,,,
,61393de3bfd993ba237393a3,001,2022-04-29_02h09.44.728,classification_task,2021.2.3,Win32,59.99160118,61393de3bfd993ba237393a3,626b377229c10585ec392f89,626b3acd4579ffd5d816e2f3,,,,,,,,,,,,,,,,,,,,,,,a,1,0.9002,"[""0.289"",""0.465"",""0.581"",""0.849""]","[1,0,1,1]",0,49,49,49,1,0,1,,,0,FALSE,,,,,,,,,,,,,,,,,,,,,,,,,,,,,,
,61393de3bfd993ba237393a3,001,2022-04-29_02h09.44.728,classification_task,2021.2.3,Win32,59.99160118,61393de3bfd993ba237393a3,626b377229c10585ec392f89,626b3acd4579ffd5d816e2f3,,,,,,,,,,,,,,,,,,,,,,,l,0,0.7503,"[""0.248"",""0.412"",""0.913"",""0.473""]","[1,1,1,0]",0,50,50,50,1,0,0,,,0,FALSE,,,,,,,,,,,,,,,,,,,,,,,,,,,,,,
,61393de3bfd993ba237393a3,001,2022-04-29_02h09.44.728,classification_task,2021.2.3,Win32,59.99160118,61393de3bfd993ba237393a3,626b377229c10585ec392f89,626b3acd4579ffd5d816e2f3,,,,,,,,,,,,,,,,,,,,,,,a,1,0.6838,"[""0.289"",""0.368"",""0.745"",""0.849""]","[1,1,0,1]",0,51,51,51,1,0,1,,,0,FALSE,,,,,,,,,,,,,,,,,,,,,,,,,,,,,,
,61393de3bfd993ba237393a3,001,2022-04-29_02h09.44.728,classification_task,2021.2.3,Win32,59.99160118,61393de3bfd993ba237393a3,626b377229c10585ec392f89,626b3acd4579ffd5d816e2f3,,,,,,,,,,,,,,,,,,,,,,,l,1,0.7337,"[""0.156"",""0.205"",""0.655"",""0.473""]","[1,1,1,0]",0,52,52,52,1,1,1,,,0,FALSE,,,,,,,,,,,,,,,,,,,,,,,,,,,,,,
,61393de3bfd993ba237393a3,001,2022-04-29_02h09.44.728,classification_task,2021.2.3,Win32,59.99160118,61393de3bfd993ba237393a3,626b377229c10585ec392f89,626b3acd4579ffd5d816e2f3,,,,,,,,,,,,,,,,,,,,,,,l,1,0.767,"[""0.156"",""0.205"",""0.106"",""0.699""]","[1,1,0,1]",0,53,53,53,1,1,1,,,0,FALSE,,,,,,,,,,,,,,,,,,,,,,,,,,,,,,
,61393de3bfd993ba237393a3,001,2022-04-29_02h09.44.728,classification_task,2021.2.3,Win32,59.99160118,61393de3bfd993ba237393a3,626b377229c10585ec392f89,626b3acd4579ffd5d816e2f3,,,,,,,,,,,,,,,,,,,,,,,l,1,0.9836,"[""0.071"",""0.326"",""0.029"",""0.778""]","[1,1,0,1]",0,54,54,54,1,1,0,,,0,FALSE,,,,,,,,,,,,,,,,,,,,,,,,,,,,,,
,61393de3bfd993ba237393a3,001,2022-04-29_02h09.44.728,classification_task,2021.2.3,Win32,59.99160118,61393de3bfd993ba237393a3,626b377229c10585ec392f89,626b3acd4579ffd5d816e2f3,,,,,,,,,,,,,,,,,,,,,,,l,0,1.1338,"[""0.248"",""0.412"",""0.740"",""0.957""]","[1,1,0,1]",0,55,55,55,1,0,0,,,0,FALSE,,,,,,,,,,,,,,,,,,,,,,,,,,,,,,
,61393de3bfd993ba237393a3,001,2022-04-29_02h09.44.728,classification_task,2021.2.3,Win32,59.99160118,61393de3bfd993ba237393a3,626b377229c10585ec392f89,626b3acd4579ffd5d816e2f3,,,,,,,,,,,,,,,,,,,,,,,l,0,0.6837,"[""0.449"",""0.412"",""0.913"",""0.957""]","[0,1,1,1]",0,56,56,56,1,0,0,,,0,FALSE,,,,,,,,,,,,,,,,,,,,,,,,,,,,,,
,61393de3bfd993ba237393a3,001,2022-04-29_02h09.44.728,classification_task,2021.2.3,Win32,59.99160118,61393de3bfd993ba237393a3,626b377229c10585ec392f89,626b3acd4579ffd5d816e2f3,,,,,,,,,,,,,,,,,,,,,,,l,1,0.6836,"[""0.071"",""0.326"",""0.507"",""0.471""]","[1,1,1,0]",0,57,57,57,1,1,0,,,0,FALSE,,,,,,,,,,,,,,,,,,,,,,,,,,,,,,
,61393de3bfd993ba237393a3,001,2022-04-29_02h09.44.728,classification_task,2021.2.3,Win32,59.99160118,61393de3bfd993ba237393a3,626b377229c10585ec392f89,626b3acd4579ffd5d816e2f3,,,,,,,,,,,,,,,,,,,,,,,l,0,0.867,"[""0.248"",""0.449"",""0.913"",""0.957""]","[1,0,1,1]",0,58,58,58,1,0,0,,,0,FALSE,,,,,,,,,,,,,,,,,,,,,,,,,,,,,,
,61393de3bfd993ba237393a3,001,2022-04-29_02h09.44.728,classification_task,2021.2.3,Win32,59.99160118,61393de3bfd993ba237393a3,626b377229c10585ec392f89,626b3acd4579ffd5d816e2f3,,,,,,,,,,,,,,,,,,,,,,,l,1,1.3503,"[""0.156"",""0.449"",""0.655"",""0.699""]","[1,0,1,1]",0,59,59,59,1,1,1,,,0,FALSE,,,,,,,,,,,,,,,,,,,,,,,,,,,,,,
,61393de3bfd993ba237393a3,001,2022-04-29_02h09.44.728,classification_task,2021.2.3,Win32,59.99160118,61393de3bfd993ba237393a3,626b377229c10585ec392f89,626b3acd4579ffd5d816e2f3,,,,,,,,,,,,,,,,,,,,,,,l,1,1.4336,"[""0.464"",""0.205"",""0.655"",""0.699""]","[0,1,1,1]",0,60,60,60,1,1,1,,,0,FALSE,,,,,,,,,,,,,,,,,,,,,,,,,,,,,,
,61393de3bfd993ba237393a3,001,2022-04-29_02h09.44.728,classification_task,2021.2.3,Win32,59.99160118,61393de3bfd993ba237393a3,626b377229c10585ec392f89,626b3acd4579ffd5d816e2f3,,,,,,,,,,,,,,,,,,,,,,,l,1,1.1336,"[""0.071"",""0.464"",""0.507"",""0.778""]","[1,0,1,1]",0,61,61,61,1,1,0,,,0,FALSE,,,,,,,,,,,,,,,,,,,,,,,,,,,,,,
,61393de3bfd993ba237393a3,001,2022-04-29_02h09.44.728,classification_task,2021.2.3,Win32,59.99160118,61393de3bfd993ba237393a3,626b377229c10585ec392f89,626b3acd4579ffd5d816e2f3,,,,,,,,,,,,,,,,,,,,,,,a,1,2.4668,"[""0.465"",""0.368"",""0.581"",""0.849""]","[0,1,1,1]",0,62,62,62,1,0,1,,,0,FALSE,,,,,,,,,,,,,,,,,,,,,,,,,,,,,,
,61393de3bfd993ba237393a3,001,2022-04-29_02h09.44.728,classification_task,2021.2.3,Win32,59.99160118,61393de3bfd993ba237393a3,626b377229c10585ec392f89,626b3acd4579ffd5d816e2f3,,,,,,,,,,,,,,,,,,,,,,,l,1,1.135,"[""0.464"",""0.326"",""0.507"",""0.778""]","[0,1,1,1]",0,63,63,63,1,1,0,,,0,FALSE,,,,,,,,,,,,,,,,,,,,,,,,,,,,,,
,61393de3bfd993ba237393a3,001,2022-04-29_02h09.44.728,classification_task,2021.2.3,Win32,59.99160118,61393de3bfd993ba237393a3,626b377229c10585ec392f89,626b3acd4579ffd5d816e2f3,,,,,,,,,,,,,,,,,,,,,,,,,,,,,,,,,,,,,,,0, ,,0,1.791103273,168.6032,0,2,2,2,1,2,3,,,,,,,,,,,,,,,,,
,61393de3bfd993ba237393a3,001,2022-04-29_02h09.44.728,classification_task,2021.2.3,Win32,59.99160118,61393de3bfd993ba237393a3,626b377229c10585ec392f89,626b3acd4579ffd5d816e2f3,,,,,,,,,,,,,,,,,,,,,,,,,,,,,,,,,,,,,,,1,  ,,0,5.391926318,171.1689,0,2,2,2,1,2,3,,,,,,,,,,,,,,,,,
,61393de3bfd993ba237393a3,001,2022-04-29_02h09.44.728,classification_task,2021.2.3,Win32,59.99160118,61393de3bfd993ba237393a3,626b377229c10585ec392f89,626b3acd4579ffd5d816e2f3,,,,,,,,,,,,,,,,,,,,,,,,,,,,,,,,,,,,,,,2,  ,,0,3.162845385,172.754,0,2,2,2,1,2,3,,,,,,,,,,,,,,,,,
,61393de3bfd993ba237393a3,001,2022-04-29_02h09.44.728,classification_task,2021.2.3,Win32,59.99160118,61393de3bfd993ba237393a3,626b377229c10585ec392f89,626b3acd4579ffd5d816e2f3,,,,,,,,,,,,,,,,,,,,,,,,,,,,,,,,,,,,,,,,,,,,,0,2,2,2,1,,3,,,,,,,,,,,,,,,,,
,61393de3bfd993ba237393a3,001,2022-04-29_02h09.44.728,classification_task,2021.2.3,Win32,59.99160118,61393de3bfd993ba237393a3,626b377229c10585ec392f89,626b3acd4579ffd5d816e2f3,,,,,,,,,,,,,,,,,,,,,,,,,,,,,,,,,,,,,,,,,,,,,,,,,,,,,I believe the aid is a competent performer,,0.7,0,5,703.8478,0,0,0,0,1,0,,,,
,61393de3bfd993ba237393a3,001,2022-04-29_02h09.44.728,classification_task,2021.2.3,Win32,59.99160118,61393de3bfd993ba237393a3,626b377229c10585ec392f89,626b3acd4579ffd5d816e2f3,,,,,,,,,,,,,,,,,,,,,,,,,,,,,,,,,,,,,,,,,,,,,,,,,,,,,I trust the aid,,0.7,0,5,706.8657,0,0,0,0,1,0,,,,
,61393de3bfd993ba237393a3,001,2022-04-29_02h09.44.728,classification_task,2021.2.3,Win32,59.99160118,61393de3bfd993ba237393a3,626b377229c10585ec392f89,626b3acd4579ffd5d816e2f3,,,,,,,,,,,,,,,,,,,,,,,,,,,,,,,,,,,,,,,,,,,,,,,,,,,,,I have confidence in the advice given by the aid,,0.7,0,5,709.2962,0,0,0,0,1,0,,,,
,61393de3bfd993ba237393a3,001,2022-04-29_02h09.44.728,classification_task,2021.2.3,Win32,59.99160118,61393de3bfd993ba237393a3,626b377229c10585ec392f89,626b3acd4579ffd5d816e2f3,,,,,,,,,,,,,,,,,,,,,,,,,,,,,,,,,,,,,,,,,,,,,,,,,,,,,I can depend on the aid,,0.7,0,5,710.5375,0,0,0,0,1,0,,,,
,61393de3bfd993ba237393a3,001,2022-04-29_02h09.44.728,classification_task,2021.2.3,Win32,59.99160118,61393de3bfd993ba237393a3,626b377229c10585ec392f89,626b3acd4579ffd5d816e2f3,,,,,,,,,,,,,,,,,,,,,,,,,,,,,,,,,,,,,,,,,,,,,,,,,,,,,I can rely on the aid to behave in consistent ways,,0.7,0,5,712.3905,0,0,0,0,1,0,,,,
,61393de3bfd993ba237393a3,001,2022-04-29_02h09.44.728,classification_task,2021.2.3,Win32,59.99160118,61393de3bfd993ba237393a3,626b377229c10585ec392f89,626b3acd4579ffd5d816e2f3,,,,,,,,,,,,,,,,,,,,,,,,,,,,,,,,,,,,,,,,,,,,,,,,,,,,,I can rely on the aid to do its best every time I take its advice,,0.7,0,5,714.3717,0,0,0,0,1,0,,,,
,61393de3bfd993ba237393a3,001,2022-04-29_02h09.44.728,classification_task,2021.2.3,Win32,59.99160118,61393de3bfd993ba237393a3,626b377229c10585ec392f89,626b3acd4579ffd5d816e2f3,,,,,,,,,,,,,,,,,,,,,,,,,,,,,,,,,,,,,,,,,,,,,,,,,,,,,"On trials you completed with assistance from the aid, how frequently did you think the aid was correct?",,0.7,0,almost all,,0,0,0,0,1,0,,,,
,61393de3bfd993ba237393a3,001,2022-04-29_02h09.44.728,classification_task,2021.2.3,Win32,59.99160118,61393de3bfd993ba237393a3,626b377229c10585ec392f89,626b3acd4579ffd5d816e2f3,,,,,,,,,,,,,,,,,,,,,,,,,,,,,,,,,,,,,,,,,,,,,,,,,,,,,"On trials you completed without the aid, how frequently did you think you were correct?",,0.7,0,around half,,0,0,0,0,1,0,,,,
,61393de3bfd993ba237393a3,001,2022-04-29_02h09.44.728,classification_task,2021.2.3,Win32,59.99160118,61393de3bfd993ba237393a3,626b377229c10585ec392f89,626b3acd4579ffd5d816e2f3,,,,,,,,,,,,,,,,,,,,,,,,,,,,,,,,,,,,,,,,,,,,,,,,,,,,,,,,,,,0,0,0,0,1,,,,,
,61393de3bfd993ba237393a3,001,2022-04-29_02h09.44.728,classification_task,2021.2.3,Win32,59.99160118,61393de3bfd993ba237393a3,626b377229c10585ec392f89,626b3acd4579ffd5d816e2f3,,,,,,,,,,,,,,,,,,,,,,,,,,,,,,,,,,,,,,,,,,,,,,,,,,,,,,,,,,,,,,,,,space,11.14,743.124,
,61393de3bfd993ba237393a3,001,2022-04-29_02h09.44.728,classification_task,2021.2.3,Win32,59.99160118,61393de3bfd993ba237393a3,626b377229c10585ec392f89,626b3acd4579ffd5d816e2f3,,,,,,,,,,,,,,,,,,,,,,,,,,,,,,,,,,,,,,,,,,,,,,,,,,,,,,,,,,,,,,,,,,,,"Mozilla/5.0 (Windows NT 10.0; Win64; x64) AppleWebKit/537.36 (KHTML, like Gecko) Chrome/100.0.4896.127 Safari/537.36 Edg/100.0.1185.50"
