usingWebGL,participant,session,date,expName,psychopyVersion,OS,frameRate,study_id,signatures_friend,signatures_foe,band_ranges_top,band_ranges_bottom,formitemText,formtype,formundefined,formitemWidth,formindex,formresponse,formrt,key_resp_2.keys,key_resp_2.rt,tute_resp.keys,tute_resp.rt,tutorial.thisRepN,tutorial.thisTrialN,tutorial.thisN,tutorial.thisIndex,tutorial.ran,key_resp_4.keys,key_resp_4.rt,key_resp.keys,key_resp.corr,key_resp.rt,lines_presented,is_signal_presented,trials.thisRepN,trials.thisTrialN,trials.thisN,trials.thisIndex,trials.ran,vessel,active_band,lines,is_signal,supported_pos,catch_trial,debrief_formindex,debrief_formitemText,debrief_formtype,debrief_formitemWidth,debrief_formresponse,debrief_formrt,phases.thisRepN,phases.thisTrialN,phases.thisN,phases.thisIndex,phases.ran,phases.order,phase,key_resp_3.keys,trustitemText,trusttype,trustitemWidth,trustindex,trustresponse,trustrt,support_status.thisRepN,support_status.thisTrialN,support_status.thisN,support_status.thisIndex,support_status.ran,support_status.order,key_resp_5.keys,key_resp_5.rt,globalClockTime,userAgent,manualCondition
TRUE,613a9a0390a4c691677c1440,627c6fea7c7998991554a6bc,2022-05-11_20h25.02.313,classification_task,2021.2.3,Win32,60.72382803,627c6715c52fd12f31907bd0,,,,,,,,,,,,,,,,,,,,,,,,,,,,,,,,,,,,,,,,,,,,,,,,,,,,,,,,,,,,,,,,,,,,,
,613a9a0390a4c691677c1440,627c6fea7c7998991554a6bc,2022-05-11_20h25.02.313,classification_task,2021.2.3,Win32,60.72382803,627c6715c52fd12f31907bd0,"[[""0.319"",""0.458"",""0.684"",""0.951""],[""0.269"",""0.366"",""0.764"",""0.908""]]","[[""0.049"",""0.095"",""0.494"",""0.843""],[""0.155"",""0.415"",""0.639"",""0.798""]]","[1,10]","[100,1000]",Video game experience,,,0.7,0,,,,,,,,,,,,,,,,,,,,,,,,,,,,,,,,,,,,,,,,,,,,,,,,,,,,,,,,,,,,
,613a9a0390a4c691677c1440,627c6fea7c7998991554a6bc,2022-05-11_20h25.02.313,classification_task,2021.2.3,Win32,60.72382803,627c6715c52fd12f31907bd0,,,,,Approximately how many hours did you spend playing video games in the last week?,,,0.7,0,0,,,,,,,,,,,,,,,,,,,,,,,,,,,,,,,,,,,,,,,,,,,,,,,,,,,,,,,,,,,
,613a9a0390a4c691677c1440,627c6fea7c7998991554a6bc,2022-05-11_20h25.02.313,classification_task,2021.2.3,Win32,60.72382803,627c6715c52fd12f31907bd0,,,,,"Which game did you play the most this year? (Enter ""None"" if you didn't play any)",,,0.7,0,none,,,,,,,,,,,,,,,,,,,,,,,,,,,,,,,,,,,,,,,,,,,,,,,,,,,,,,,,,,,
,613a9a0390a4c691677c1440,627c6fea7c7998991554a6bc,2022-05-11_20h25.02.313,classification_task,2021.2.3,Win32,60.72382803,627c6715c52fd12f31907bd0,,,,,Visual perception,,,0.7,0,,,,,,,,,,,,,,,,,,,,,,,,,,,,,,,,,,,,,,,,,,,,,,,,,,,,,,,,,,,,
,613a9a0390a4c691677c1440,627c6fea7c7998991554a6bc,2022-05-11_20h25.02.313,classification_task,2021.2.3,Win32,60.72382803,627c6715c52fd12f31907bd0,,,,,Do you have any form of color blindness?,,,0.7,0,No,15.8856,,,,,,,,,,,,,,,,,,,,,,,,,,,,,,,,,,,,,,,,,,,,,,,,,,,,,,,,,,
,613a9a0390a4c691677c1440,627c6fea7c7998991554a6bc,2022-05-11_20h25.02.313,classification_task,2021.2.3,Win32,60.72382803,627c6715c52fd12f31907bd0,,,,,Do you use software to change the colour temperature of your screen (e.g. f.lux)?,,,0.7,0,No,18.2786,,,,,,,,,,,,,,,,,,,,,,,,,,,,,,,,,,,,,,,,,,,,,,,,,,,,,,,,,,
,613a9a0390a4c691677c1440,627c6fea7c7998991554a6bc,2022-05-11_20h25.02.313,classification_task,2021.2.3,Win32,60.72382803,627c6715c52fd12f31907bd0,,,,,,,,,,,,space,28.3542,space,9.5507,0,0,0,0,1,,,,,,,,,,,,,,,,,,,,,,,,,,,,,,,,,,,,,,,,,,,,,,,,,
,613a9a0390a4c691677c1440,627c6fea7c7998991554a6bc,2022-05-11_20h25.02.313,classification_task,2021.2.3,Win32,60.72382803,627c6715c52fd12f31907bd0,,,,,,,,,,,,,,space,14.8697,1,0,1,0,1,,,,,,,,,,,,,,,,,,,,,,,,,,,,,,,,,,,,,,,,,,,,,,,,,
,613a9a0390a4c691677c1440,627c6fea7c7998991554a6bc,2022-05-11_20h25.02.313,classification_task,2021.2.3,Win32,60.72382803,627c6715c52fd12f31907bd0,,,,,,,,,,,,,,space,14.8751,2,0,2,0,1,,,,,,,,,,,,,,,,,,,,,,,,,,,,,,,,,,,,,,,,,,,,,,,,,
,613a9a0390a4c691677c1440,627c6fea7c7998991554a6bc,2022-05-11_20h25.02.313,classification_task,2021.2.3,Win32,60.72382803,627c6715c52fd12f31907bd0,,,,,,,,,,,,,,space,17.1425,3,0,3,0,1,,,,,,,,,,,,,,,,,,,,,,,,,,,,,,,,,,,,,,,,,,,,,,,,,
,613a9a0390a4c691677c1440,627c6fea7c7998991554a6bc,2022-05-11_20h25.02.313,classification_task,2021.2.3,Win32,60.72382803,627c6715c52fd12f31907bd0,,,,,,,,,,,,,,space,72.31,4,0,4,0,1,,,,,,,,,,,,,,,,,,,,,,,,,,,,,,,,,,,,,,,,,,,,,,,,,
,613a9a0390a4c691677c1440,627c6fea7c7998991554a6bc,2022-05-11_20h25.02.313,classification_task,2021.2.3,Win32,60.72382803,627c6715c52fd12f31907bd0,,,,,,,,,,,,,,,,,,,,,space,12.2665,l,1,2.9901,"[""0.572"",""0.415"",""0.639"",""0.798""]","[0,1,1,1]",0,0,0,0,1,1,1,,,0,FALSE,,,,,,,,,,,,,,,,,,,,,,,,,,,,,,,
,613a9a0390a4c691677c1440,627c6fea7c7998991554a6bc,2022-05-11_20h25.02.313,classification_task,2021.2.3,Win32,60.72382803,627c6715c52fd12f31907bd0,,,,,,,,,,,,,,,,,,,,,,,a,1,2.2687,"[""0.319"",""0.591"",""0.684"",""0.951""]","[1,0,1,1]",0,1,1,1,1,0,0,,,0,FALSE,,,,,,,,,,,,,,,,,,,,,,,,,,,,,,,
,613a9a0390a4c691677c1440,627c6fea7c7998991554a6bc,2022-05-11_20h25.02.313,classification_task,2021.2.3,Win32,60.72382803,627c6715c52fd12f31907bd0,,,,,,,,,,,,,,,,,,,,,,,a,1,1.4756,"[""0.319"",""0.458"",""0.212"",""0.951""]","[1,1,0,1]",0,2,2,2,1,0,0,,,0,FALSE,,,,,,,,,,,,,,,,,,,,,,,,,,,,,,,
,613a9a0390a4c691677c1440,627c6fea7c7998991554a6bc,2022-05-11_20h25.02.313,classification_task,2021.2.3,Win32,60.72382803,627c6715c52fd12f31907bd0,,,,,,,,,,,,,,,,,,,,,,,l,1,1.7802,"[""0.049"",""0.234"",""0.494"",""0.843""]","[1,0,1,1]",0,3,3,3,1,1,0,,,0,FALSE,,,,,,,,,,,,,,,,,,,,,,,,,,,,,,,
,613a9a0390a4c691677c1440,627c6fea7c7998991554a6bc,2022-05-11_20h25.02.313,classification_task,2021.2.3,Win32,60.72382803,627c6715c52fd12f31907bd0,,,,,,,,,,,,,,,,,,,,,,,l,1,1.7537,"[""0.155"",""0.605"",""0.639"",""0.798""]","[1,0,1,1]",0,4,4,4,1,1,1,,,0,FALSE,,,,,,,,,,,,,,,,,,,,,,,,,,,,,,,
,613a9a0390a4c691677c1440,627c6fea7c7998991554a6bc,2022-05-11_20h25.02.313,classification_task,2021.2.3,Win32,60.72382803,627c6715c52fd12f31907bd0,,,,,,,,,,,,,,,,,,,,,,,l,1,1.2567,"[""0.155"",""0.415"",""0.730"",""0.798""]","[1,1,0,1]",0,5,5,5,1,1,1,,,0,FALSE,,,,,,,,,,,,,,,,,,,,,,,,,,,,,,,
,613a9a0390a4c691677c1440,627c6fea7c7998991554a6bc,2022-05-11_20h25.02.313,classification_task,2021.2.3,Win32,60.72382803,627c6715c52fd12f31907bd0,,,,,,,,,,,,,,,,,,,,,,,a,1,1.4429,"[""0.269"",""0.366"",""0.564"",""0.908""]","[1,1,0,1]",0,6,6,6,1,0,1,,,0,FALSE,,,,,,,,,,,,,,,,,,,,,,,,,,,,,,,
,613a9a0390a4c691677c1440,627c6fea7c7998991554a6bc,2022-05-11_20h25.02.313,classification_task,2021.2.3,Win32,60.72382803,627c6715c52fd12f31907bd0,,,,,,,,,,,,,,,,,,,,,,,a,0,1.4587,"[""0.201"",""0.095"",""0.494"",""0.843""]","[0,1,1,1]",0,7,7,7,1,1,0,,,0,FALSE,,,,,,,,,,,,,,,,,,,,,,,,,,,,,,,
,613a9a0390a4c691677c1440,627c6fea7c7998991554a6bc,2022-05-11_20h25.02.313,classification_task,2021.2.3,Win32,60.72382803,627c6715c52fd12f31907bd0,,,,,,,,,,,,,,,,,,,,,,,l,0,2.3503,"[""0.572"",""0.458"",""0.684"",""0.951""]","[0,1,1,1]",0,8,8,8,1,0,0,,,0,FALSE,,,,,,,,,,,,,,,,,,,,,,,,,,,,,,,
,613a9a0390a4c691677c1440,627c6fea7c7998991554a6bc,2022-05-11_20h25.02.313,classification_task,2021.2.3,Win32,60.72382803,627c6715c52fd12f31907bd0,,,,,,,,,,,,,,,,,,,,,,,a,0,1.1068,"[""0.155"",""0.415"",""0.639"",""0.224""]","[1,1,1,0]",0,9,9,9,1,1,1,,,0,FALSE,,,,,,,,,,,,,,,,,,,,,,,,,,,,,,,
,613a9a0390a4c691677c1440,627c6fea7c7998991554a6bc,2022-05-11_20h25.02.313,classification_task,2021.2.3,Win32,60.72382803,627c6715c52fd12f31907bd0,,,,,,,,,,,,,,,,,,,,,,,a,0,1.2125,"[""0.049"",""0.095"",""0.565"",""0.843""]","[1,1,0,1]",0,10,10,10,1,1,0,,,0,FALSE,,,,,,,,,,,,,,,,,,,,,,,,,,,,,,,
,613a9a0390a4c691677c1440,627c6fea7c7998991554a6bc,2022-05-11_20h25.02.313,classification_task,2021.2.3,Win32,60.72382803,627c6715c52fd12f31907bd0,,,,,,,,,,,,,,,,,,,,,,,l,1,1.2655,"[""0.049"",""0.095"",""0.494"",""0.234""]","[1,1,1,0]",0,11,11,11,1,1,0,,,0,FALSE,,,,,,,,,,,,,,,,,,,,,,,,,,,,,,,
,613a9a0390a4c691677c1440,627c6fea7c7998991554a6bc,2022-05-11_20h25.02.313,classification_task,2021.2.3,Win32,60.72382803,627c6715c52fd12f31907bd0,,,,,,,,,,,,,,,,,,,,,,,l,0,1.9303,"[""0.210"",""0.366"",""0.764"",""0.908""]","[0,1,1,1]",0,12,12,12,1,0,1,,,0,FALSE,,,,,,,,,,,,,,,,,,,,,,,,,,,,,,,
,613a9a0390a4c691677c1440,627c6fea7c7998991554a6bc,2022-05-11_20h25.02.313,classification_task,2021.2.3,Win32,60.72382803,627c6715c52fd12f31907bd0,,,,,,,,,,,,,,,,,,,,,,,a,1,2.1956,"[""0.269"",""0.226"",""0.764"",""0.908""]","[1,0,1,1]",0,13,13,13,1,0,1,,,0,FALSE,,,,,,,,,,,,,,,,,,,,,,,,,,,,,,,
,613a9a0390a4c691677c1440,627c6fea7c7998991554a6bc,2022-05-11_20h25.02.313,classification_task,2021.2.3,Win32,60.72382803,627c6715c52fd12f31907bd0,,,,,,,,,,,,,,,,,,,,,,,a,1,1.2433,"[""0.269"",""0.366"",""0.764"",""0.201""]","[1,1,1,0]",0,14,14,14,1,0,1,,,0,FALSE,,,,,,,,,,,,,,,,,,,,,,,,,,,,,,,
,613a9a0390a4c691677c1440,627c6fea7c7998991554a6bc,2022-05-11_20h25.02.313,classification_task,2021.2.3,Win32,60.72382803,627c6715c52fd12f31907bd0,,,,,,,,,,,,,,,,,,,,,,,a,1,8.7745,"[""0.319"",""0.458"",""0.684"",""0.564""]","[1,1,1,0]",0,15,15,15,1,0,0,,,0,FALSE,,,,,,,,,,,,,,,,,,,,,,,,,,,,,,,
,613a9a0390a4c691677c1440,627c6fea7c7998991554a6bc,2022-05-11_20h25.02.313,classification_task,2021.2.3,Win32,60.72382803,627c6715c52fd12f31907bd0,,,,,,,,,,,,,,,,,,,,,,,a,0,3.9427,"[""0.049"",""0.095"",""0.494"",""0.224""]","[1,1,1,0]",0,16,16,16,1,1,0,,,0,FALSE,,,,,,,,,,,,,,,,,,,,,,,,,,,,,,,
,613a9a0390a4c691677c1440,627c6fea7c7998991554a6bc,2022-05-11_20h25.02.313,classification_task,2021.2.3,Win32,60.72382803,627c6715c52fd12f31907bd0,,,,,,,,,,,,,,,,,,,,,,,l,0,3.5759,"[""0.269"",""0.366"",""0.764"",""0.730""]","[1,1,1,0]",0,17,17,17,1,0,1,,,0,FALSE,,,,,,,,,,,,,,,,,,,,,,,,,,,,,,,
,613a9a0390a4c691677c1440,627c6fea7c7998991554a6bc,2022-05-11_20h25.02.313,classification_task,2021.2.3,Win32,60.72382803,627c6715c52fd12f31907bd0,,,,,,,,,,,,,,,,,,,,,,,a,1,5.9743,"[""0.319"",""0.458"",""0.684"",""0.572""]","[1,1,1,0]",0,18,18,18,1,0,0,,,0,FALSE,,,,,,,,,,,,,,,,,,,,,,,,,,,,,,,
,613a9a0390a4c691677c1440,627c6fea7c7998991554a6bc,2022-05-11_20h25.02.313,classification_task,2021.2.3,Win32,60.72382803,627c6715c52fd12f31907bd0,,,,,,,,,,,,,,,,,,,,,,,a,1,5.156,"[""0.532"",""0.458"",""0.684"",""0.951""]","[0,1,1,1]",0,19,19,19,1,0,0,,,0,FALSE,,,,,,,,,,,,,,,,,,,,,,,,,,,,,,,
,613a9a0390a4c691677c1440,627c6fea7c7998991554a6bc,2022-05-11_20h25.02.313,classification_task,2021.2.3,Win32,60.72382803,627c6715c52fd12f31907bd0,,,,,,,,,,,,,,,,,,,,,,,l,1,3.2387,"[""0.155"",""0.226"",""0.639"",""0.798""]","[1,0,1,1]",0,20,20,20,1,1,1,,,0,FALSE,,,,,,,,,,,,,,,,,,,,,,,,,,,,,,,
,613a9a0390a4c691677c1440,627c6fea7c7998991554a6bc,2022-05-11_20h25.02.313,classification_task,2021.2.3,Win32,60.72382803,627c6715c52fd12f31907bd0,,,,,,,,,,,,,,,,,,,,,,,l,0,5.8242,"[""0.269"",""0.366"",""0.564"",""0.908""]","[1,1,0,1]",0,21,21,21,1,0,1,,,0,FALSE,,,,,,,,,,,,,,,,,,,,,,,,,,,,,,,
,613a9a0390a4c691677c1440,627c6fea7c7998991554a6bc,2022-05-11_20h25.02.313,classification_task,2021.2.3,Win32,60.72382803,627c6715c52fd12f31907bd0,,,,,,,,,,,,,,,,,,,,,,,a,1,4.2555,"[""0.319"",""0.226"",""0.684"",""0.951""]","[1,0,1,1]",0,22,22,22,1,0,0,,,0,FALSE,,,,,,,,,,,,,,,,,,,,,,,,,,,,,,,
,613a9a0390a4c691677c1440,627c6fea7c7998991554a6bc,2022-05-11_20h25.02.313,classification_task,2021.2.3,Win32,60.72382803,627c6715c52fd12f31907bd0,,,,,,,,,,,,,,,,,,,,,,,l,0,4.9676,"[""0.269"",""0.201"",""0.764"",""0.908""]","[1,0,1,1]",0,23,23,23,1,0,1,,,0,FALSE,,,,,,,,,,,,,,,,,,,,,,,,,,,,,,,
,613a9a0390a4c691677c1440,627c6fea7c7998991554a6bc,2022-05-11_20h25.02.313,classification_task,2021.2.3,Win32,60.72382803,627c6715c52fd12f31907bd0,,,,,,,,,,,,,,,,,,,,,,,a,1,2.4902,"[""0.319"",""0.458"",""0.532"",""0.951""]","[1,1,0,1]",0,24,24,24,1,0,0,,,0,FALSE,,,,,,,,,,,,,,,,,,,,,,,,,,,,,,,
,613a9a0390a4c691677c1440,627c6fea7c7998991554a6bc,2022-05-11_20h25.02.313,classification_task,2021.2.3,Win32,60.72382803,627c6715c52fd12f31907bd0,,,,,,,,,,,,,,,,,,,,,,,l,1,1.6393,"[""0.155"",""0.415"",""0.639"",""0.591""]","[1,1,1,0]",0,25,25,25,1,1,1,,,0,FALSE,,,,,,,,,,,,,,,,,,,,,,,,,,,,,,,
,613a9a0390a4c691677c1440,627c6fea7c7998991554a6bc,2022-05-11_20h25.02.313,classification_task,2021.2.3,Win32,60.72382803,627c6715c52fd12f31907bd0,,,,,,,,,,,,,,,,,,,,,,,a,0,1.5279,"[""0.049"",""0.095"",""0.565"",""0.843""]","[1,1,0,1]",0,26,26,26,1,1,0,,,0,FALSE,,,,,,,,,,,,,,,,,,,,,,,,,,,,,,,
,613a9a0390a4c691677c1440,627c6fea7c7998991554a6bc,2022-05-11_20h25.02.313,classification_task,2021.2.3,Win32,60.72382803,627c6715c52fd12f31907bd0,,,,,,,,,,,,,,,,,,,,,,,l,1,2.3119,"[""0.591"",""0.095"",""0.494"",""0.843""]","[0,1,1,1]",0,27,27,27,1,1,0,,,0,FALSE,,,,,,,,,,,,,,,,,,,,,,,,,,,,,,,
,613a9a0390a4c691677c1440,627c6fea7c7998991554a6bc,2022-05-11_20h25.02.313,classification_task,2021.2.3,Win32,60.72382803,627c6715c52fd12f31907bd0,,,,,,,,,,,,,,,,,,,,,,,l,1,3.5656,"[""0.155"",""0.415"",""0.201"",""0.798""]","[1,1,0,1]",0,28,28,28,1,1,1,,,0,FALSE,,,,,,,,,,,,,,,,,,,,,,,,,,,,,,,
,613a9a0390a4c691677c1440,627c6fea7c7998991554a6bc,2022-05-11_20h25.02.313,classification_task,2021.2.3,Win32,60.72382803,627c6715c52fd12f31907bd0,,,,,,,,,,,,,,,,,,,,,,,l,1,5.907,"[""0.049"",""0.605"",""0.494"",""0.843""]","[1,0,1,1]",0,29,29,29,1,1,0,,,0,FALSE,,,,,,,,,,,,,,,,,,,,,,,,,,,,,,,
,613a9a0390a4c691677c1440,627c6fea7c7998991554a6bc,2022-05-11_20h25.02.313,classification_task,2021.2.3,Win32,60.72382803,627c6715c52fd12f31907bd0,,,,,,,,,,,,,,,,,,,,,,,a,1,4.9281,"[""0.226"",""0.366"",""0.764"",""0.908""]","[0,1,1,1]",0,30,30,30,1,0,1,,,0,FALSE,,,,,,,,,,,,,,,,,,,,,,,,,,,,,,,
,613a9a0390a4c691677c1440,627c6fea7c7998991554a6bc,2022-05-11_20h25.02.313,classification_task,2021.2.3,Win32,60.72382803,627c6715c52fd12f31907bd0,,,,,,,,,,,,,,,,,,,,,,,a,0,5.491,"[""0.212"",""0.415"",""0.639"",""0.798""]","[0,1,1,1]",0,31,31,31,1,1,1,,,0,FALSE,,,,,,,,,,,,,,,,,,,,,,,,,,,,,,,
,613a9a0390a4c691677c1440,627c6fea7c7998991554a6bc,2022-05-11_20h25.02.313,classification_task,2021.2.3,Win32,60.72382803,627c6715c52fd12f31907bd0,,,,,,,,,,,,,,,,,,,,,,,l,0,3.3075,"[""0.319"",""0.458"",""0.209"",""0.951""]","[1,1,0,1]",0,32,32,32,1,0,0,,,0,FALSE,,,,,,,,,,,,,,,,,,,,,,,,,,,,,,,
,613a9a0390a4c691677c1440,627c6fea7c7998991554a6bc,2022-05-11_20h25.02.313,classification_task,2021.2.3,Win32,60.72382803,627c6715c52fd12f31907bd0,,,,,,,,,,,,,,,,,,,,,,,a,1,3.3093,"[""0.212"",""0.366"",""0.764"",""0.908""]","[0,1,1,1]",0,33,33,33,1,0,1,,,0,FALSE,,,,,,,,,,,,,,,,,,,,,,,,,,,,,,,
,613a9a0390a4c691677c1440,627c6fea7c7998991554a6bc,2022-05-11_20h25.02.313,classification_task,2021.2.3,Win32,60.72382803,627c6715c52fd12f31907bd0,,,,,,,,,,,,,,,,,,,,,,,a,0,2.8264,"[""0.049"",""0.095"",""0.565"",""0.843""]","[1,1,0,1]",0,34,34,34,1,1,0,,,0,FALSE,,,,,,,,,,,,,,,,,,,,,,,,,,,,,,,
,613a9a0390a4c691677c1440,627c6fea7c7998991554a6bc,2022-05-11_20h25.02.313,classification_task,2021.2.3,Win32,60.72382803,627c6715c52fd12f31907bd0,,,,,,,,,,,,,,,,,,,,,,,l,0,1.9276,"[""0.319"",""0.564"",""0.684"",""0.951""]","[1,0,1,1]",0,35,35,35,1,0,0,,,0,FALSE,,,,,,,,,,,,,,,,,,,,,,,,,,,,,,,
,613a9a0390a4c691677c1440,627c6fea7c7998991554a6bc,2022-05-11_20h25.02.313,classification_task,2021.2.3,Win32,60.72382803,627c6715c52fd12f31907bd0,,,,,,,,,,,,,,,,,,,,,,,a,1,0.724,"[""0.319"",""0.458"",""0.684"",""0.565""]","[1,1,1,0]",0,36,36,36,1,0,0,,,0,FALSE,,,,,,,,,,,,,,,,,,,,,,,,,,,,,,,
,613a9a0390a4c691677c1440,627c6fea7c7998991554a6bc,2022-05-11_20h25.02.313,classification_task,2021.2.3,Win32,60.72382803,627c6715c52fd12f31907bd0,,,,,,,,,,,,,,,,,,,,,,,a,0,0.9456,"[""0.209"",""0.095"",""0.494"",""0.843""]","[0,1,1,1]",0,37,37,37,1,1,0,,,0,FALSE,,,,,,,,,,,,,,,,,,,,,,,,,,,,,,,
,613a9a0390a4c691677c1440,627c6fea7c7998991554a6bc,2022-05-11_20h25.02.313,classification_task,2021.2.3,Win32,60.72382803,627c6715c52fd12f31907bd0,,,,,,,,,,,,,,,,,,,,,,,l,1,2.7257,"[""0.155"",""0.224"",""0.639"",""0.798""]","[1,0,1,1]",0,38,38,38,1,1,1,,,0,FALSE,,,,,,,,,,,,,,,,,,,,,,,,,,,,,,,
,613a9a0390a4c691677c1440,627c6fea7c7998991554a6bc,2022-05-11_20h25.02.313,classification_task,2021.2.3,Win32,60.72382803,627c6715c52fd12f31907bd0,,,,,,,,,,,,,,,,,,,,,,,l,0,0.9435,"[""0.269"",""0.366"",""0.764"",""0.226""]","[1,1,1,0]",0,39,39,39,1,0,1,,,0,FALSE,,,,,,,,,,,,,,,,,,,,,,,,,,,,,,,
,613a9a0390a4c691677c1440,627c6fea7c7998991554a6bc,2022-05-11_20h25.02.313,classification_task,2021.2.3,Win32,60.72382803,627c6715c52fd12f31907bd0,,,,,,,,,,,,,,,,,,,,,,,a,0,1.1791,"[""0.155"",""0.415"",""0.201"",""0.798""]","[1,1,0,1]",0,40,40,40,1,1,1,,,0,FALSE,,,,,,,,,,,,,,,,,,,,,,,,,,,,,,,
,613a9a0390a4c691677c1440,627c6fea7c7998991554a6bc,2022-05-11_20h25.02.313,classification_task,2021.2.3,Win32,60.72382803,627c6715c52fd12f31907bd0,,,,,,,,,,,,,,,,,,,,,,,l,0,1.4062,"[""0.269"",""0.366"",""0.730"",""0.908""]","[1,1,0,1]",0,41,41,41,1,0,1,,,0,FALSE,,,,,,,,,,,,,,,,,,,,,,,,,,,,,,,
,613a9a0390a4c691677c1440,627c6fea7c7998991554a6bc,2022-05-11_20h25.02.313,classification_task,2021.2.3,Win32,60.72382803,627c6715c52fd12f31907bd0,,,,,,,,,,,,,,,,,,,,,,,a,0,2.2636,"[""0.155"",""0.415"",""0.639"",""0.226""]","[1,1,1,0]",0,42,42,42,1,1,1,,,0,FALSE,,,,,,,,,,,,,,,,,,,,,,,,,,,,,,,
,613a9a0390a4c691677c1440,627c6fea7c7998991554a6bc,2022-05-11_20h25.02.313,classification_task,2021.2.3,Win32,60.72382803,627c6715c52fd12f31907bd0,,,,,,,,,,,,,,,,,,,,,,,l,0,1.544,"[""0.269"",""0.224"",""0.764"",""0.908""]","[1,0,1,1]",0,43,43,43,1,0,1,,,0,FALSE,,,,,,,,,,,,,,,,,,,,,,,,,,,,,,,
,613a9a0390a4c691677c1440,627c6fea7c7998991554a6bc,2022-05-11_20h25.02.313,classification_task,2021.2.3,Win32,60.72382803,627c6715c52fd12f31907bd0,,,,,,,,,,,,,,,,,,,,,,,a,0,0.8619,"[""0.049"",""0.095"",""0.494"",""0.212""]","[1,1,1,0]",0,44,44,44,1,1,0,,,0,FALSE,,,,,,,,,,,,,,,,,,,,,,,,,,,,,,,
,613a9a0390a4c691677c1440,627c6fea7c7998991554a6bc,2022-05-11_20h25.02.313,classification_task,2021.2.3,Win32,60.72382803,627c6715c52fd12f31907bd0,,,,,,,,,,,,,,,,,,,,,,,l,0,0.3441,"[""0.730"",""0.458"",""0.684"",""0.951""]","[0,1,1,1]",0,45,45,45,1,0,0,,,0,FALSE,,,,,,,,,,,,,,,,,,,,,,,,,,,,,,,
,613a9a0390a4c691677c1440,627c6fea7c7998991554a6bc,2022-05-11_20h25.02.313,classification_task,2021.2.3,Win32,60.72382803,627c6715c52fd12f31907bd0,,,,,,,,,,,,,,,,,,,,,,,a,0,0.49,"[""0.572"",""0.415"",""0.639"",""0.798""]","[0,1,1,1]",0,46,46,46,1,1,1,,,0,FALSE,,,,,,,,,,,,,,,,,,,,,,,,,,,,,,,
,613a9a0390a4c691677c1440,627c6fea7c7998991554a6bc,2022-05-11_20h25.02.313,classification_task,2021.2.3,Win32,60.72382803,627c6715c52fd12f31907bd0,,,,,,,,,,,,,,,,,,,,,,,l,1,2.9265,"[""0.049"",""0.532"",""0.494"",""0.843""]","[1,0,1,1]",0,47,47,47,1,1,0,,,0,FALSE,,,,,,,,,,,,,,,,,,,,,,,,,,,,,,,
,613a9a0390a4c691677c1440,627c6fea7c7998991554a6bc,2022-05-11_20h25.02.313,classification_task,2021.2.3,Win32,60.72382803,627c6715c52fd12f31907bd0,,,,,,,,,,,,,,,,,,,,,,,l,1,0.8441,"[""0.210"",""0.415"",""0.639"",""0.798""]","[0,1,1,1]",0,48,48,48,1,1,1,,,0,FALSE,,,,,,,,,,,,,,,,,,,,,,,,,,,,,,,
,613a9a0390a4c691677c1440,627c6fea7c7998991554a6bc,2022-05-11_20h25.02.313,classification_task,2021.2.3,Win32,60.72382803,627c6715c52fd12f31907bd0,,,,,,,,,,,,,,,,,,,,,,,l,0,1.5329,"[""0.269"",""0.366"",""0.224"",""0.908""]","[1,1,0,1]",0,49,49,49,1,0,1,,,0,FALSE,,,,,,,,,,,,,,,,,,,,,,,,,,,,,,,
,613a9a0390a4c691677c1440,627c6fea7c7998991554a6bc,2022-05-11_20h25.02.313,classification_task,2021.2.3,Win32,60.72382803,627c6715c52fd12f31907bd0,,,,,,,,,,,,,,,,,,,,,,,a,1,2.2279,"[""0.319"",""0.458"",""0.684"",""0.234""]","[1,1,1,0]",0,50,50,50,1,0,0,,,0,FALSE,,,,,,,,,,,,,,,,,,,,,,,,,,,,,,,
,613a9a0390a4c691677c1440,627c6fea7c7998991554a6bc,2022-05-11_20h25.02.313,classification_task,2021.2.3,Win32,60.72382803,627c6715c52fd12f31907bd0,,,,,,,,,,,,,,,,,,,,,,,a,0,1.6245,"[""0.155"",""0.415"",""0.639"",""0.564""]","[1,1,1,0]",0,51,51,51,1,1,1,,,0,FALSE,,,,,,,,,,,,,,,,,,,,,,,,,,,,,,,
,613a9a0390a4c691677c1440,627c6fea7c7998991554a6bc,2022-05-11_20h25.02.313,classification_task,2021.2.3,Win32,60.72382803,627c6715c52fd12f31907bd0,,,,,,,,,,,,,,,,,,,,,,,l,0,3.0659,"[""0.269"",""0.366"",""0.764"",""0.202""]","[1,1,1,0]",0,52,52,52,1,0,1,,,0,FALSE,,,,,,,,,,,,,,,,,,,,,,,,,,,,,,,
,613a9a0390a4c691677c1440,627c6fea7c7998991554a6bc,2022-05-11_20h25.02.313,classification_task,2021.2.3,Win32,60.72382803,627c6715c52fd12f31907bd0,,,,,,,,,,,,,,,,,,,,,,,a,1,0.9085,"[""0.730"",""0.458"",""0.684"",""0.951""]","[0,1,1,1]",0,53,53,53,1,0,0,,,0,FALSE,,,,,,,,,,,,,,,,,,,,,,,,,,,,,,,
,613a9a0390a4c691677c1440,627c6fea7c7998991554a6bc,2022-05-11_20h25.02.313,classification_task,2021.2.3,Win32,60.72382803,627c6715c52fd12f31907bd0,,,,,,,,,,,,,,,,,,,,,,,a,0,0.9789,"[""0.049"",""0.234"",""0.494"",""0.843""]","[1,0,1,1]",0,54,54,54,1,1,0,,,0,FALSE,,,,,,,,,,,,,,,,,,,,,,,,,,,,,,,
,613a9a0390a4c691677c1440,627c6fea7c7998991554a6bc,2022-05-11_20h25.02.313,classification_task,2021.2.3,Win32,60.72382803,627c6715c52fd12f31907bd0,,,,,,,,,,,,,,,,,,,,,,,l,1,0.9093,"[""0.226"",""0.095"",""0.494"",""0.843""]","[0,1,1,1]",0,55,55,55,1,1,0,,,0,FALSE,,,,,,,,,,,,,,,,,,,,,,,,,,,,,,,
,613a9a0390a4c691677c1440,627c6fea7c7998991554a6bc,2022-05-11_20h25.02.313,classification_task,2021.2.3,Win32,60.72382803,627c6715c52fd12f31907bd0,,,,,,,,,,,,,,,,,,,,,,,l,0,0.751,"[""0.269"",""0.201"",""0.764"",""0.908""]","[1,0,1,1]",0,56,56,56,1,0,1,,,0,FALSE,,,,,,,,,,,,,,,,,,,,,,,,,,,,,,,
,613a9a0390a4c691677c1440,627c6fea7c7998991554a6bc,2022-05-11_20h25.02.313,classification_task,2021.2.3,Win32,60.72382803,627c6715c52fd12f31907bd0,,,,,,,,,,,,,,,,,,,,,,,a,1,0.6666,"[""0.572"",""0.366"",""0.764"",""0.908""]","[0,1,1,1]",0,57,57,57,1,0,1,,,0,FALSE,,,,,,,,,,,,,,,,,,,,,,,,,,,,,,,
,613a9a0390a4c691677c1440,627c6fea7c7998991554a6bc,2022-05-11_20h25.02.313,classification_task,2021.2.3,Win32,60.72382803,627c6715c52fd12f31907bd0,,,,,,,,,,,,,,,,,,,,,,,a,0,0.7448,"[""0.049"",""0.095"",""0.494"",""0.210""]","[1,1,1,0]",0,58,58,58,1,1,0,,,0,FALSE,,,,,,,,,,,,,,,,,,,,,,,,,,,,,,,
,613a9a0390a4c691677c1440,627c6fea7c7998991554a6bc,2022-05-11_20h25.02.313,classification_task,2021.2.3,Win32,60.72382803,627c6715c52fd12f31907bd0,,,,,,,,,,,,,,,,,,,,,,,l,1,0.5751,"[""0.155"",""0.415"",""0.210"",""0.798""]","[1,1,0,1]",0,59,59,59,1,1,1,,,0,FALSE,,,,,,,,,,,,,,,,,,,,,,,,,,,,,,,
,613a9a0390a4c691677c1440,627c6fea7c7998991554a6bc,2022-05-11_20h25.02.313,classification_task,2021.2.3,Win32,60.72382803,627c6715c52fd12f31907bd0,,,,,,,,,,,,,,,,,,,,,,,l,0,0.8096,"[""0.319"",""0.226"",""0.684"",""0.951""]","[1,0,1,1]",0,60,60,60,1,0,0,,,0,FALSE,,,,,,,,,,,,,,,,,,,,,,,,,,,,,,,
,613a9a0390a4c691677c1440,627c6fea7c7998991554a6bc,2022-05-11_20h25.02.313,classification_task,2021.2.3,Win32,60.72382803,627c6715c52fd12f31907bd0,,,,,,,,,,,,,,,,,,,,,,,a,1,0.6977,"[""0.319"",""0.458"",""0.224"",""0.951""]","[1,1,0,1]",0,61,61,61,1,0,0,,,0,FALSE,,,,,,,,,,,,,,,,,,,,,,,,,,,,,,,
,613a9a0390a4c691677c1440,627c6fea7c7998991554a6bc,2022-05-11_20h25.02.313,classification_task,2021.2.3,Win32,60.72382803,627c6715c52fd12f31907bd0,,,,,,,,,,,,,,,,,,,,,,,a,0,1.0259,"[""0.155"",""0.201"",""0.639"",""0.798""]","[1,0,1,1]",0,62,62,62,1,1,1,,,0,FALSE,,,,,,,,,,,,,,,,,,,,,,,,,,,,,,,
,613a9a0390a4c691677c1440,627c6fea7c7998991554a6bc,2022-05-11_20h25.02.313,classification_task,2021.2.3,Win32,60.72382803,627c6715c52fd12f31907bd0,,,,,,,,,,,,,,,,,,,,,,,l,1,0.6089,"[""0.049"",""0.095"",""0.209"",""0.843""]","[1,1,0,1]",0,63,63,63,1,1,0,,,0,FALSE,,,,,,,,,,,,,,,,,,,,,,,,,,,,,,,
,613a9a0390a4c691677c1440,627c6fea7c7998991554a6bc,2022-05-11_20h25.02.313,classification_task,2021.2.3,Win32,60.72382803,627c6715c52fd12f31907bd0,,,,,,,,,,,,,,,,,,,,,,,,,,,,,,,,,,,,,,,0, ,,0,0,440.3993,0,0,0,0,1,2,1,,,,,,,,,,,,,,,,,,
,613a9a0390a4c691677c1440,627c6fea7c7998991554a6bc,2022-05-11_20h25.02.313,classification_task,2021.2.3,Win32,60.72382803,627c6715c52fd12f31907bd0,,,,,,,,,,,,,,,,,,,,,,,,,,,,,,,,,,,,,,,1,  ,,0,10,424.5769,0,0,0,0,1,2,1,,,,,,,,,,,,,,,,,,
,613a9a0390a4c691677c1440,627c6fea7c7998991554a6bc,2022-05-11_20h25.02.313,classification_task,2021.2.3,Win32,60.72382803,627c6715c52fd12f31907bd0,,,,,,,,,,,,,,,,,,,,,,,,,,,,,,,,,,,,,,,2,  ,,0,7.572016461,435.6845,0,0,0,0,1,2,1,,,,,,,,,,,,,,,,,,
,613a9a0390a4c691677c1440,627c6fea7c7998991554a6bc,2022-05-11_20h25.02.313,classification_task,2021.2.3,Win32,60.72382803,627c6715c52fd12f31907bd0,,,,,,,,,,,,,,,,,,,,,,,,,,,,,,,,,,,,,,,,,,,,,0,0,0,0,1,,1,,,,,,,,,,,,,,,,,,
,613a9a0390a4c691677c1440,627c6fea7c7998991554a6bc,2022-05-11_20h25.02.313,classification_task,2021.2.3,Win32,60.72382803,627c6715c52fd12f31907bd0,,,,,,,,,,,,,,,,,,,,,space,18.6874,l,0,2.4712,"[""0.269"",""0.366"",""0.764"",""0.226""]","[1,1,1,0]",0,0,0,0,1,0,1,,,0,FALSE,,,,,,,,,,,,,,,,,,,,,,,,,,,,,,,
,613a9a0390a4c691677c1440,627c6fea7c7998991554a6bc,2022-05-11_20h25.02.313,classification_task,2021.2.3,Win32,60.72382803,627c6715c52fd12f31907bd0,,,,,,,,,,,,,,,,,,,,,,,a,1,2.5072,"[""0.202"",""0.458"",""0.684"",""0.951""]","[0,1,1,1]",0,1,1,1,1,0,0,,,0,FALSE,,,,,,,,,,,,,,,,,,,,,,,,,,,,,,,
,613a9a0390a4c691677c1440,627c6fea7c7998991554a6bc,2022-05-11_20h25.02.313,classification_task,2021.2.3,Win32,60.72382803,627c6715c52fd12f31907bd0,,,,,,,,,,,,,,,,,,,,,,,a,1,3.7064,"[""0.319"",""0.226"",""0.684"",""0.951""]","[1,0,1,1]",0,2,2,2,1,0,0,,,0,FALSE,,,,,,,,,,,,,,,,,,,,,,,,,,,,,,,
,613a9a0390a4c691677c1440,627c6fea7c7998991554a6bc,2022-05-11_20h25.02.313,classification_task,2021.2.3,Win32,60.72382803,627c6715c52fd12f31907bd0,,,,,,,,,,,,,,,,,,,,,,,l,0,3.5915,"[""0.605"",""0.366"",""0.764"",""0.908""]","[0,1,1,1]",0,3,3,3,1,0,1,,,0,FALSE,,,,,,,,,,,,,,,,,,,,,,,,,,,,,,,
,613a9a0390a4c691677c1440,627c6fea7c7998991554a6bc,2022-05-11_20h25.02.313,classification_task,2021.2.3,Win32,60.72382803,627c6715c52fd12f31907bd0,,,,,,,,,,,,,,,,,,,,,,,a,0,1.624,"[""0.209"",""0.415"",""0.639"",""0.798""]","[0,1,1,1]",0,4,4,4,1,1,1,,,0,FALSE,,,,,,,,,,,,,,,,,,,,,,,,,,,,,,,
,613a9a0390a4c691677c1440,627c6fea7c7998991554a6bc,2022-05-11_20h25.02.313,classification_task,2021.2.3,Win32,60.72382803,627c6715c52fd12f31907bd0,,,,,,,,,,,,,,,,,,,,,,,l,1,0.3496,"[""0.155"",""0.415"",""0.730"",""0.798""]","[1,1,0,1]",0,5,5,5,1,1,1,,,0,FALSE,,,,,,,,,,,,,,,,,,,,,,,,,,,,,,,
,613a9a0390a4c691677c1440,627c6fea7c7998991554a6bc,2022-05-11_20h25.02.313,classification_task,2021.2.3,Win32,60.72382803,627c6715c52fd12f31907bd0,,,,,,,,,,,,,,,,,,,,,,,a,0,1.5852,"[""0.234"",""0.095"",""0.494"",""0.843""]","[0,1,1,1]",0,6,6,6,1,1,0,,,0,FALSE,,,,,,,,,,,,,,,,,,,,,,,,,,,,,,,
,613a9a0390a4c691677c1440,627c6fea7c7998991554a6bc,2022-05-11_20h25.02.313,classification_task,2021.2.3,Win32,60.72382803,627c6715c52fd12f31907bd0,,,,,,,,,,,,,,,,,,,,,,,a,1,1.3611,"[""0.269"",""0.366"",""0.234"",""0.908""]","[1,1,0,1]",0,7,7,7,1,0,1,,,0,FALSE,,,,,,,,,,,,,,,,,,,,,,,,,,,,,,,
,613a9a0390a4c691677c1440,627c6fea7c7998991554a6bc,2022-05-11_20h25.02.313,classification_task,2021.2.3,Win32,60.72382803,627c6715c52fd12f31907bd0,,,,,,,,,,,,,,,,,,,,,,,l,0,1.8913,"[""0.319"",""0.458"",""0.210"",""0.951""]","[1,1,0,1]",0,8,8,8,1,0,0,,,0,FALSE,,,,,,,,,,,,,,,,,,,,,,,,,,,,,,,
,613a9a0390a4c691677c1440,627c6fea7c7998991554a6bc,2022-05-11_20h25.02.313,classification_task,2021.2.3,Win32,60.72382803,627c6715c52fd12f31907bd0,,,,,,,,,,,,,,,,,,,,,,,l,0,1.0948,"[""0.269"",""0.591"",""0.764"",""0.908""]","[1,0,1,1]",0,9,9,9,1,0,1,,,0,FALSE,,,,,,,,,,,,,,,,,,,,,,,,,,,,,,,
,613a9a0390a4c691677c1440,627c6fea7c7998991554a6bc,2022-05-11_20h25.02.313,classification_task,2021.2.3,Win32,60.72382803,627c6715c52fd12f31907bd0,,,,,,,,,,,,,,,,,,,,,,,a,1,4.442,"[""0.319"",""0.458"",""0.684"",""0.212""]","[1,1,1,0]",0,10,10,10,1,0,0,,,0,FALSE,,,,,,,,,,,,,,,,,,,,,,,,,,,,,,,
,613a9a0390a4c691677c1440,627c6fea7c7998991554a6bc,2022-05-11_20h25.02.313,classification_task,2021.2.3,Win32,60.72382803,627c6715c52fd12f31907bd0,,,,,,,,,,,,,,,,,,,,,,,l,1,1.6698,"[""0.155"",""0.415"",""0.639"",""0.564""]","[1,1,1,0]",0,11,11,11,1,1,1,,,0,FALSE,,,,,,,,,,,,,,,,,,,,,,,,,,,,,,,
,613a9a0390a4c691677c1440,627c6fea7c7998991554a6bc,2022-05-11_20h25.02.313,classification_task,2021.2.3,Win32,60.72382803,627c6715c52fd12f31907bd0,,,,,,,,,,,,,,,,,,,,,,,l,1,1.0082,"[""0.155"",""0.564"",""0.639"",""0.798""]","[1,0,1,1]",0,12,12,12,1,1,1,,,0,FALSE,,,,,,,,,,,,,,,,,,,,,,,,,,,,,,,
,613a9a0390a4c691677c1440,627c6fea7c7998991554a6bc,2022-05-11_20h25.02.313,classification_task,2021.2.3,Win32,60.72382803,627c6715c52fd12f31907bd0,,,,,,,,,,,,,,,,,,,,,,,l,1,2.0451,"[""0.049"",""0.564"",""0.494"",""0.843""]","[1,0,1,1]",0,13,13,13,1,1,0,,,0,FALSE,,,,,,,,,,,,,,,,,,,,,,,,,,,,,,,
,613a9a0390a4c691677c1440,627c6fea7c7998991554a6bc,2022-05-11_20h25.02.313,classification_task,2021.2.3,Win32,60.72382803,627c6715c52fd12f31907bd0,,,,,,,,,,,,,,,,,,,,,,,a,0,1.0933,"[""0.049"",""0.095"",""0.494"",""0.234""]","[1,1,1,0]",0,14,14,14,1,1,0,,,0,FALSE,,,,,,,,,,,,,,,,,,,,,,,,,,,,,,,
,613a9a0390a4c691677c1440,627c6fea7c7998991554a6bc,2022-05-11_20h25.02.313,classification_task,2021.2.3,Win32,60.72382803,627c6715c52fd12f31907bd0,,,,,,,,,,,,,,,,,,,,,,,l,1,1.6287,"[""0.049"",""0.095"",""0.591"",""0.843""]","[1,1,0,1]",0,15,15,15,1,1,0,,,0,FALSE,,,,,,,,,,,,,,,,,,,,,,,,,,,,,,,
,613a9a0390a4c691677c1440,627c6fea7c7998991554a6bc,2022-05-11_20h25.02.313,classification_task,2021.2.3,Win32,60.72382803,627c6715c52fd12f31907bd0,,,,,,,,,,,,,,,,,,,,,,,a,0,1.0225,"[""0.155"",""0.415"",""0.202"",""0.798""]","[1,1,0,1]",0,16,16,16,1,1,1,,,0,FALSE,,,,,,,,,,,,,,,,,,,,,,,,,,,,,,,
,613a9a0390a4c691677c1440,627c6fea7c7998991554a6bc,2022-05-11_20h25.02.313,classification_task,2021.2.3,Win32,60.72382803,627c6715c52fd12f31907bd0,,,,,,,,,,,,,,,,,,,,,,,l,0,1.3084,"[""0.319"",""0.458"",""0.684"",""0.605""]","[1,1,1,0]",0,17,17,17,1,0,0,,,0,FALSE,,,,,,,,,,,,,,,,,,,,,,,,,,,,,,,
,613a9a0390a4c691677c1440,627c6fea7c7998991554a6bc,2022-05-11_20h25.02.313,classification_task,2021.2.3,Win32,60.72382803,627c6715c52fd12f31907bd0,,,,,,,,,,,,,,,,,,,,,,,a,1,2.9586,"[""0.319"",""0.458"",""0.564"",""0.951""]","[1,1,0,1]",0,18,18,18,1,0,0,,,0,FALSE,,,,,,,,,,,,,,,,,,,,,,,,,,,,,,,
,613a9a0390a4c691677c1440,627c6fea7c7998991554a6bc,2022-05-11_20h25.02.313,classification_task,2021.2.3,Win32,60.72382803,627c6715c52fd12f31907bd0,,,,,,,,,,,,,,,,,,,,,,,l,0,0.66,"[""0.269"",""0.209"",""0.764"",""0.908""]","[1,0,1,1]",0,19,19,19,1,0,1,,,0,FALSE,,,,,,,,,,,,,,,,,,,,,,,,,,,,,,,
,613a9a0390a4c691677c1440,627c6fea7c7998991554a6bc,2022-05-11_20h25.02.313,classification_task,2021.2.3,Win32,60.72382803,627c6715c52fd12f31907bd0,,,,,,,,,,,,,,,,,,,,,,,a,0,0.7822,"[""0.049"",""0.572"",""0.494"",""0.843""]","[1,0,1,1]",0,20,20,20,1,1,0,,,0,FALSE,,,,,,,,,,,,,,,,,,,,,,,,,,,,,,,
,613a9a0390a4c691677c1440,627c6fea7c7998991554a6bc,2022-05-11_20h25.02.313,classification_task,2021.2.3,Win32,60.72382803,627c6715c52fd12f31907bd0,,,,,,,,,,,,,,,,,,,,,,,l,0,0.5999,"[""0.269"",""0.366"",""0.764"",""0.212""]","[1,1,1,0]",0,21,21,21,1,0,1,,,0,FALSE,,,,,,,,,,,,,,,,,,,,,,,,,,,,,,,
,613a9a0390a4c691677c1440,627c6fea7c7998991554a6bc,2022-05-11_20h25.02.313,classification_task,2021.2.3,Win32,60.72382803,627c6715c52fd12f31907bd0,,,,,,,,,,,,,,,,,,,,,,,a,1,0.477,"[""0.269"",""0.366"",""0.210"",""0.908""]","[1,1,0,1]",0,22,22,22,1,0,1,,,0,FALSE,,,,,,,,,,,,,,,,,,,,,,,,,,,,,,,
,613a9a0390a4c691677c1440,627c6fea7c7998991554a6bc,2022-05-11_20h25.02.313,classification_task,2021.2.3,Win32,60.72382803,627c6715c52fd12f31907bd0,,,,,,,,,,,,,,,,,,,,,,,a,0,1.3934,"[""0.605"",""0.095"",""0.494"",""0.843""]","[0,1,1,1]",0,23,23,23,1,1,0,,,0,FALSE,,,,,,,,,,,,,,,,,,,,,,,,,,,,,,,
,613a9a0390a4c691677c1440,627c6fea7c7998991554a6bc,2022-05-11_20h25.02.313,classification_task,2021.2.3,Win32,60.72382803,627c6715c52fd12f31907bd0,,,,,,,,,,,,,,,,,,,,,,,l,1,0.6245,"[""0.155"",""0.415"",""0.639"",""0.605""]","[1,1,1,0]",0,24,24,24,1,1,1,,,0,FALSE,,,,,,,,,,,,,,,,,,,,,,,,,,,,,,,
,613a9a0390a4c691677c1440,627c6fea7c7998991554a6bc,2022-05-11_20h25.02.313,classification_task,2021.2.3,Win32,60.72382803,627c6715c52fd12f31907bd0,,,,,,,,,,,,,,,,,,,,,,,l,1,0.5758,"[""0.155"",""0.210"",""0.639"",""0.798""]","[1,0,1,1]",0,25,25,25,1,1,1,,,0,FALSE,,,,,,,,,,,,,,,,,,,,,,,,,,,,,,,
,613a9a0390a4c691677c1440,627c6fea7c7998991554a6bc,2022-05-11_20h25.02.313,classification_task,2021.2.3,Win32,60.72382803,627c6715c52fd12f31907bd0,,,,,,,,,,,,,,,,,,,,,,,l,0,1.0508,"[""0.605"",""0.366"",""0.764"",""0.908""]","[0,1,1,1]",0,26,26,26,1,0,1,,,0,FALSE,,,,,,,,,,,,,,,,,,,,,,,,,,,,,,,
,613a9a0390a4c691677c1440,627c6fea7c7998991554a6bc,2022-05-11_20h25.02.313,classification_task,2021.2.3,Win32,60.72382803,627c6715c52fd12f31907bd0,,,,,,,,,,,,,,,,,,,,,,,a,0,0.6006,"[""0.049"",""0.095"",""0.209"",""0.843""]","[1,1,0,1]",0,27,27,27,1,1,0,,,0,FALSE,,,,,,,,,,,,,,,,,,,,,,,,,,,,,,,
,613a9a0390a4c691677c1440,627c6fea7c7998991554a6bc,2022-05-11_20h25.02.313,classification_task,2021.2.3,Win32,60.72382803,627c6715c52fd12f31907bd0,,,,,,,,,,,,,,,,,,,,,,,l,0,0.4438,"[""0.319"",""0.210"",""0.684"",""0.951""]","[1,0,1,1]",0,28,28,28,1,0,0,,,0,FALSE,,,,,,,,,,,,,,,,,,,,,,,,,,,,,,,
,613a9a0390a4c691677c1440,627c6fea7c7998991554a6bc,2022-05-11_20h25.02.313,classification_task,2021.2.3,Win32,60.72382803,627c6715c52fd12f31907bd0,,,,,,,,,,,,,,,,,,,,,,,a,0,0.4956,"[""0.565"",""0.415"",""0.639"",""0.798""]","[0,1,1,1]",0,29,29,29,1,1,1,,,0,FALSE,,,,,,,,,,,,,,,,,,,,,,,,,,,,,,,
,613a9a0390a4c691677c1440,627c6fea7c7998991554a6bc,2022-05-11_20h25.02.313,classification_task,2021.2.3,Win32,60.72382803,627c6715c52fd12f31907bd0,,,,,,,,,,,,,,,,,,,,,,,l,1,1.343,"[""0.049"",""0.095"",""0.494"",""0.564""]","[1,1,1,0]",0,30,30,30,1,1,0,,,0,FALSE,,,,,,,,,,,,,,,,,,,,,,,,,,,,,,,
,613a9a0390a4c691677c1440,627c6fea7c7998991554a6bc,2022-05-11_20h25.02.313,classification_task,2021.2.3,Win32,60.72382803,627c6715c52fd12f31907bd0,,,,,,,,,,,,,,,,,,,,,,,l,0,0.6877,"[""0.565"",""0.458"",""0.684"",""0.951""]","[0,1,1,1]",0,31,31,31,1,0,0,,,0,FALSE,,,,,,,,,,,,,,,,,,,,,,,,,,,,,,,
,613a9a0390a4c691677c1440,627c6fea7c7998991554a6bc,2022-05-11_20h25.02.313,classification_task,2021.2.3,Win32,60.72382803,627c6715c52fd12f31907bd0,,,,,,,,,,,,,,,,,,,,,,,a,1,0.6406,"[""0.269"",""0.366"",""0.764"",""0.226""]","[1,1,1,0]",0,32,32,32,1,0,1,,,0,FALSE,,,,,,,,,,,,,,,,,,,,,,,,,,,,,,,
,613a9a0390a4c691677c1440,627c6fea7c7998991554a6bc,2022-05-11_20h25.02.313,classification_task,2021.2.3,Win32,60.72382803,627c6715c52fd12f31907bd0,,,,,,,,,,,,,,,,,,,,,,,a,0,1.3581,"[""0.049"",""0.565"",""0.494"",""0.843""]","[1,0,1,1]",0,33,33,33,1,1,0,,,0,FALSE,,,,,,,,,,,,,,,,,,,,,,,,,,,,,,,
,613a9a0390a4c691677c1440,627c6fea7c7998991554a6bc,2022-05-11_20h25.02.313,classification_task,2021.2.3,Win32,60.72382803,627c6715c52fd12f31907bd0,,,,,,,,,,,,,,,,,,,,,,,l,0,2.0591,"[""0.269"",""0.212"",""0.764"",""0.908""]","[1,0,1,1]",0,34,34,34,1,0,1,,,0,FALSE,,,,,,,,,,,,,,,,,,,,,,,,,,,,,,,
,613a9a0390a4c691677c1440,627c6fea7c7998991554a6bc,2022-05-11_20h25.02.313,classification_task,2021.2.3,Win32,60.72382803,627c6715c52fd12f31907bd0,,,,,,,,,,,,,,,,,,,,,,,a,0,0.4924,"[""0.565"",""0.095"",""0.494"",""0.843""]","[0,1,1,1]",0,35,35,35,1,1,0,,,0,FALSE,,,,,,,,,,,,,,,,,,,,,,,,,,,,,,,
,613a9a0390a4c691677c1440,627c6fea7c7998991554a6bc,2022-05-11_20h25.02.313,classification_task,2021.2.3,Win32,60.72382803,627c6715c52fd12f31907bd0,,,,,,,,,,,,,,,,,,,,,,,l,1,0.5427,"[""0.155"",""0.226"",""0.639"",""0.798""]","[1,0,1,1]",0,36,36,36,1,1,1,,,0,FALSE,,,,,,,,,,,,,,,,,,,,,,,,,,,,,,,
,613a9a0390a4c691677c1440,627c6fea7c7998991554a6bc,2022-05-11_20h25.02.313,classification_task,2021.2.3,Win32,60.72382803,627c6715c52fd12f31907bd0,,,,,,,,,,,,,,,,,,,,,,,l,1,1.9112,"[""0.226"",""0.415"",""0.639"",""0.798""]","[0,1,1,1]",0,37,37,37,1,1,1,,,0,FALSE,,,,,,,,,,,,,,,,,,,,,,,,,,,,,,,
,613a9a0390a4c691677c1440,627c6fea7c7998991554a6bc,2022-05-11_20h25.02.313,classification_task,2021.2.3,Win32,60.72382803,627c6715c52fd12f31907bd0,,,,,,,,,,,,,,,,,,,,,,,l,0,0.8582,"[""0.319"",""0.458"",""0.684"",""0.209""]","[1,1,1,0]",0,38,38,38,1,0,0,,,0,FALSE,,,,,,,,,,,,,,,,,,,,,,,,,,,,,,,
,613a9a0390a4c691677c1440,627c6fea7c7998991554a6bc,2022-05-11_20h25.02.313,classification_task,2021.2.3,Win32,60.72382803,627c6715c52fd12f31907bd0,,,,,,,,,,,,,,,,,,,,,,,a,1,0.444,"[""0.319"",""0.458"",""0.605"",""0.951""]","[1,1,0,1]",0,39,39,39,1,0,0,,,0,FALSE,,,,,,,,,,,,,,,,,,,,,,,,,,,,,,,
,613a9a0390a4c691677c1440,627c6fea7c7998991554a6bc,2022-05-11_20h25.02.313,classification_task,2021.2.3,Win32,60.72382803,627c6715c52fd12f31907bd0,,,,,,,,,,,,,,,,,,,,,,,a,1,0.5444,"[""0.319"",""0.565"",""0.684"",""0.951""]","[1,0,1,1]",0,40,40,40,1,0,0,,,0,FALSE,,,,,,,,,,,,,,,,,,,,,,,,,,,,,,,
,613a9a0390a4c691677c1440,627c6fea7c7998991554a6bc,2022-05-11_20h25.02.313,classification_task,2021.2.3,Win32,60.72382803,627c6715c52fd12f31907bd0,,,,,,,,,,,,,,,,,,,,,,,a,0,2.0889,"[""0.155"",""0.415"",""0.591"",""0.798""]","[1,1,0,1]",0,41,41,41,1,1,1,,,0,FALSE,,,,,,,,,,,,,,,,,,,,,,,,,,,,,,,
,613a9a0390a4c691677c1440,627c6fea7c7998991554a6bc,2022-05-11_20h25.02.313,classification_task,2021.2.3,Win32,60.72382803,627c6715c52fd12f31907bd0,,,,,,,,,,,,,,,,,,,,,,,l,0,0.6413,"[""0.210"",""0.458"",""0.684"",""0.951""]","[0,1,1,1]",0,42,42,42,1,0,0,,,0,FALSE,,,,,,,,,,,,,,,,,,,,,,,,,,,,,,,
,613a9a0390a4c691677c1440,627c6fea7c7998991554a6bc,2022-05-11_20h25.02.313,classification_task,2021.2.3,Win32,60.72382803,627c6715c52fd12f31907bd0,,,,,,,,,,,,,,,,,,,,,,,a,0,0.5591,"[""0.155"",""0.415"",""0.639"",""0.532""]","[1,1,1,0]",0,43,43,43,1,1,1,,,0,FALSE,,,,,,,,,,,,,,,,,,,,,,,,,,,,,,,
,613a9a0390a4c691677c1440,627c6fea7c7998991554a6bc,2022-05-11_20h25.02.313,classification_task,2021.2.3,Win32,60.72382803,627c6715c52fd12f31907bd0,,,,,,,,,,,,,,,,,,,,,,,l,0,0.5083,"[""0.201"",""0.366"",""0.764"",""0.908""]","[0,1,1,1]",0,44,44,44,1,0,1,,,0,FALSE,,,,,,,,,,,,,,,,,,,,,,,,,,,,,,,
,613a9a0390a4c691677c1440,627c6fea7c7998991554a6bc,2022-05-11_20h25.02.313,classification_task,2021.2.3,Win32,60.72382803,627c6715c52fd12f31907bd0,,,,,,,,,,,,,,,,,,,,,,,a,0,1.7575,"[""0.049"",""0.095"",""0.494"",""0.730""]","[1,1,1,0]",0,45,45,45,1,1,0,,,0,FALSE,,,,,,,,,,,,,,,,,,,,,,,,,,,,,,,
,613a9a0390a4c691677c1440,627c6fea7c7998991554a6bc,2022-05-11_20h25.02.313,classification_task,2021.2.3,Win32,60.72382803,627c6715c52fd12f31907bd0,,,,,,,,,,,,,,,,,,,,,,,l,1,2.3927,"[""0.049"",""0.095"",""0.212"",""0.843""]","[1,1,0,1]",0,46,46,46,1,1,0,,,0,FALSE,,,,,,,,,,,,,,,,,,,,,,,,,,,,,,,
,613a9a0390a4c691677c1440,627c6fea7c7998991554a6bc,2022-05-11_20h25.02.313,classification_task,2021.2.3,Win32,60.72382803,627c6715c52fd12f31907bd0,,,,,,,,,,,,,,,,,,,,,,,a,1,2.54,"[""0.269"",""0.366"",""0.209"",""0.908""]","[1,1,0,1]",0,47,47,47,1,0,1,,,0,FALSE,,,,,,,,,,,,,,,,,,,,,,,,,,,,,,,
,613a9a0390a4c691677c1440,627c6fea7c7998991554a6bc,2022-05-11_20h25.02.313,classification_task,2021.2.3,Win32,60.72382803,627c6715c52fd12f31907bd0,,,,,,,,,,,,,,,,,,,,,,,a,1,1.9495,"[""0.319"",""0.572"",""0.684"",""0.951""]","[1,0,1,1]",0,48,48,48,1,0,0,,,0,FALSE,,,,,,,,,,,,,,,,,,,,,,,,,,,,,,,
,613a9a0390a4c691677c1440,627c6fea7c7998991554a6bc,2022-05-11_20h25.02.313,classification_task,2021.2.3,Win32,60.72382803,627c6715c52fd12f31907bd0,,,,,,,,,,,,,,,,,,,,,,,a,0,0.8761,"[""0.155"",""0.415"",""0.212"",""0.798""]","[1,1,0,1]",0,49,49,49,1,1,1,,,0,FALSE,,,,,,,,,,,,,,,,,,,,,,,,,,,,,,,
,613a9a0390a4c691677c1440,627c6fea7c7998991554a6bc,2022-05-11_20h25.02.313,classification_task,2021.2.3,Win32,60.72382803,627c6715c52fd12f31907bd0,,,,,,,,,,,,,,,,,,,,,,,l,1,1.5418,"[""0.155"",""0.415"",""0.639"",""0.202""]","[1,1,1,0]",0,50,50,50,1,1,1,,,0,FALSE,,,,,,,,,,,,,,,,,,,,,,,,,,,,,,,
,613a9a0390a4c691677c1440,627c6fea7c7998991554a6bc,2022-05-11_20h25.02.313,classification_task,2021.2.3,Win32,60.72382803,627c6715c52fd12f31907bd0,,,,,,,,,,,,,,,,,,,,,,,a,1,1.6819,"[""0.226"",""0.458"",""0.684"",""0.951""]","[0,1,1,1]",0,51,51,51,1,0,0,,,0,FALSE,,,,,,,,,,,,,,,,,,,,,,,,,,,,,,,
,613a9a0390a4c691677c1440,627c6fea7c7998991554a6bc,2022-05-11_20h25.02.313,classification_task,2021.2.3,Win32,60.72382803,627c6715c52fd12f31907bd0,,,,,,,,,,,,,,,,,,,,,,,a,1,2.9875,"[""0.319"",""0.458"",""0.532"",""0.951""]","[1,1,0,1]",0,52,52,52,1,0,0,,,0,FALSE,,,,,,,,,,,,,,,,,,,,,,,,,,,,,,,
,613a9a0390a4c691677c1440,627c6fea7c7998991554a6bc,2022-05-11_20h25.02.313,classification_task,2021.2.3,Win32,60.72382803,627c6715c52fd12f31907bd0,,,,,,,,,,,,,,,,,,,,,,,l,0,0.9935,"[""0.226"",""0.366"",""0.764"",""0.908""]","[0,1,1,1]",0,53,53,53,1,0,1,,,0,FALSE,,,,,,,,,,,,,,,,,,,,,,,,,,,,,,,
,613a9a0390a4c691677c1440,627c6fea7c7998991554a6bc,2022-05-11_20h25.02.313,classification_task,2021.2.3,Win32,60.72382803,627c6715c52fd12f31907bd0,,,,,,,,,,,,,,,,,,,,,,,l,0,1.2266,"[""0.269"",""0.212"",""0.764"",""0.908""]","[1,0,1,1]",0,54,54,54,1,0,1,,,0,FALSE,,,,,,,,,,,,,,,,,,,,,,,,,,,,,,,
,613a9a0390a4c691677c1440,627c6fea7c7998991554a6bc,2022-05-11_20h25.02.313,classification_task,2021.2.3,Win32,60.72382803,627c6715c52fd12f31907bd0,,,,,,,,,,,,,,,,,,,,,,,a,0,0.8099,"[""0.049"",""0.095"",""0.494"",""0.591""]","[1,1,1,0]",0,55,55,55,1,1,0,,,0,FALSE,,,,,,,,,,,,,,,,,,,,,,,,,,,,,,,
,613a9a0390a4c691677c1440,627c6fea7c7998991554a6bc,2022-05-11_20h25.02.313,classification_task,2021.2.3,Win32,60.72382803,627c6715c52fd12f31907bd0,,,,,,,,,,,,,,,,,,,,,,,l,0,1.5175,"[""0.319"",""0.458"",""0.684"",""0.532""]","[1,1,1,0]",0,56,56,56,1,0,0,,,0,FALSE,,,,,,,,,,,,,,,,,,,,,,,,,,,,,,,
,613a9a0390a4c691677c1440,627c6fea7c7998991554a6bc,2022-05-11_20h25.02.313,classification_task,2021.2.3,Win32,60.72382803,627c6715c52fd12f31907bd0,,,,,,,,,,,,,,,,,,,,,,,a,0,3.2771,"[""0.155"",""0.572"",""0.639"",""0.798""]","[1,0,1,1]",0,57,57,57,1,1,1,,,0,FALSE,,,,,,,,,,,,,,,,,,,,,,,,,,,,,,,
,613a9a0390a4c691677c1440,627c6fea7c7998991554a6bc,2022-05-11_20h25.02.313,classification_task,2021.2.3,Win32,60.72382803,627c6715c52fd12f31907bd0,,,,,,,,,,,,,,,,,,,,,,,l,1,1.6773,"[""0.201"",""0.415"",""0.639"",""0.798""]","[0,1,1,1]",0,58,58,58,1,1,1,,,0,FALSE,,,,,,,,,,,,,,,,,,,,,,,,,,,,,,,
,613a9a0390a4c691677c1440,627c6fea7c7998991554a6bc,2022-05-11_20h25.02.313,classification_task,2021.2.3,Win32,60.72382803,627c6715c52fd12f31907bd0,,,,,,,,,,,,,,,,,,,,,,,l,1,1.708,"[""0.049"",""0.565"",""0.494"",""0.843""]","[1,0,1,1]",0,59,59,59,1,1,0,,,0,FALSE,,,,,,,,,,,,,,,,,,,,,,,,,,,,,,,
,613a9a0390a4c691677c1440,627c6fea7c7998991554a6bc,2022-05-11_20h25.02.313,classification_task,2021.2.3,Win32,60.72382803,627c6715c52fd12f31907bd0,,,,,,,,,,,,,,,,,,,,,,,a,1,0.7967,"[""0.269"",""0.366"",""0.764"",""0.234""]","[1,1,1,0]",0,60,60,60,1,0,1,,,0,FALSE,,,,,,,,,,,,,,,,,,,,,,,,,,,,,,,
,613a9a0390a4c691677c1440,627c6fea7c7998991554a6bc,2022-05-11_20h25.02.313,classification_task,2021.2.3,Win32,60.72382803,627c6715c52fd12f31907bd0,,,,,,,,,,,,,,,,,,,,,,,a,1,0.8759,"[""0.269"",""0.366"",""0.209"",""0.908""]","[1,1,0,1]",0,61,61,61,1,0,1,,,0,FALSE,,,,,,,,,,,,,,,,,,,,,,,,,,,,,,,
,613a9a0390a4c691677c1440,627c6fea7c7998991554a6bc,2022-05-11_20h25.02.313,classification_task,2021.2.3,Win32,60.72382803,627c6715c52fd12f31907bd0,,,,,,,,,,,,,,,,,,,,,,,l,1,1.0731,"[""0.049"",""0.095"",""0.226"",""0.843""]","[1,1,0,1]",0,62,62,62,1,1,0,,,0,FALSE,,,,,,,,,,,,,,,,,,,,,,,,,,,,,,,
,613a9a0390a4c691677c1440,627c6fea7c7998991554a6bc,2022-05-11_20h25.02.313,classification_task,2021.2.3,Win32,60.72382803,627c6715c52fd12f31907bd0,,,,,,,,,,,,,,,,,,,,,,,l,1,1.7413,"[""0.224"",""0.095"",""0.494"",""0.843""]","[0,1,1,1]",0,63,63,63,1,1,0,,,0,FALSE,,,,,,,,,,,,,,,,,,,,,,,,,,,,,,,
,613a9a0390a4c691677c1440,627c6fea7c7998991554a6bc,2022-05-11_20h25.02.313,classification_task,2021.2.3,Win32,60.72382803,627c6715c52fd12f31907bd0,,,,,,,,,,,,,,,,,,,,,,,,,,,,,,,,,,,,,,,0, ,,0,0,186.2122,0,1,1,1,1,2,2,,,,,,,,,,,,,,,,,,
,613a9a0390a4c691677c1440,627c6fea7c7998991554a6bc,2022-05-11_20h25.02.313,classification_task,2021.2.3,Win32,60.72382803,627c6715c52fd12f31907bd0,,,,,,,,,,,,,,,,,,,,,,,,,,,,,,,,,,,,,,,1,  ,,0,10,191.7802,0,1,1,1,1,2,2,,,,,,,,,,,,,,,,,,
,613a9a0390a4c691677c1440,627c6fea7c7998991554a6bc,2022-05-11_20h25.02.313,classification_task,2021.2.3,Win32,60.72382803,627c6715c52fd12f31907bd0,,,,,,,,,,,,,,,,,,,,,,,,,,,,,,,,,,,,,,,2,  ,,0,9.507153403,194.4125,0,1,1,1,1,2,2,,,,,,,,,,,,,,,,,,
,613a9a0390a4c691677c1440,627c6fea7c7998991554a6bc,2022-05-11_20h25.02.313,classification_task,2021.2.3,Win32,60.72382803,627c6715c52fd12f31907bd0,,,,,,,,,,,,,,,,,,,,,,,,,,,,,,,,,,,,,,,,,,,,,0,1,1,1,1,,2,,,,,,,,,,,,,,,,,,
,613a9a0390a4c691677c1440,627c6fea7c7998991554a6bc,2022-05-11_20h25.02.313,classification_task,2021.2.3,Win32,60.72382803,627c6715c52fd12f31907bd0,,,,,,,,,,,,,,,,,,,,,space,11.5392,a,1,2.1572,"[""0.269"",""0.366"",""0.764"",""0.212""]","[1,1,1,0]",0,0,0,0,1,0,1,,,0,FALSE,,,,,,,,,,,,,,,,,,,,,,,,,,,,,,,
,613a9a0390a4c691677c1440,627c6fea7c7998991554a6bc,2022-05-11_20h25.02.313,classification_task,2021.2.3,Win32,60.72382803,627c6715c52fd12f31907bd0,,,,,,,,,,,,,,,,,,,,,,,l,1,2.0935,"[""0.049"",""0.095"",""0.564"",""0.843""]","[1,1,0,1]",0,1,1,1,1,1,0,,,0,FALSE,,,,,,,,,,,,,,,,,,,,,,,,,,,,,,,
,613a9a0390a4c691677c1440,627c6fea7c7998991554a6bc,2022-05-11_20h25.02.313,classification_task,2021.2.3,Win32,60.72382803,627c6715c52fd12f31907bd0,,,,,,,,,,,,,,,,,,,,,,,l,0,1.9934,"[""0.269"",""0.565"",""0.764"",""0.908""]","[1,0,1,1]",0,2,2,2,1,0,1,,,0,FALSE,,,,,,,,,,,,,,,,,,,,,,,,,,,,,,,
,613a9a0390a4c691677c1440,627c6fea7c7998991554a6bc,2022-05-11_20h25.02.313,classification_task,2021.2.3,Win32,60.72382803,627c6715c52fd12f31907bd0,,,,,,,,,,,,,,,,,,,,,,,a,1,3.494,"[""0.319"",""0.209"",""0.684"",""0.951""]","[1,0,1,1]",0,3,3,3,1,0,0,,,0,FALSE,,,,,,,,,,,,,,,,,,,,,,,,,,,,,,,
,613a9a0390a4c691677c1440,627c6fea7c7998991554a6bc,2022-05-11_20h25.02.313,classification_task,2021.2.3,Win32,60.72382803,627c6715c52fd12f31907bd0,,,,,,,,,,,,,,,,,,,,,,,l,0,1.8746,"[""0.226"",""0.366"",""0.764"",""0.908""]","[0,1,1,1]",0,4,4,4,1,0,1,,,0,FALSE,,,,,,,,,,,,,,,,,,,,,,,,,,,,,,,
,613a9a0390a4c691677c1440,627c6fea7c7998991554a6bc,2022-05-11_20h25.02.313,classification_task,2021.2.3,Win32,60.72382803,627c6715c52fd12f31907bd0,,,,,,,,,,,,,,,,,,,,,,,l,1,3.806,"[""0.591"",""0.415"",""0.639"",""0.798""]","[0,1,1,1]",0,5,5,5,1,1,1,,,0,FALSE,,,,,,,,,,,,,,,,,,,,,,,,,,,,,,,
,613a9a0390a4c691677c1440,627c6fea7c7998991554a6bc,2022-05-11_20h25.02.313,classification_task,2021.2.3,Win32,60.72382803,627c6715c52fd12f31907bd0,,,,,,,,,,,,,,,,,,,,,,,a,0,2.1561,"[""0.155"",""0.415"",""0.209"",""0.798""]","[1,1,0,1]",0,6,6,6,1,1,1,,,0,FALSE,,,,,,,,,,,,,,,,,,,,,,,,,,,,,,,
,613a9a0390a4c691677c1440,627c6fea7c7998991554a6bc,2022-05-11_20h25.02.313,classification_task,2021.2.3,Win32,60.72382803,627c6715c52fd12f31907bd0,,,,,,,,,,,,,,,,,,,,,,,a,1,1.6908,"[""0.269"",""0.366"",""0.234"",""0.908""]","[1,1,0,1]",0,7,7,7,1,0,1,,,0,FALSE,,,,,,,,,,,,,,,,,,,,,,,,,,,,,,,
,613a9a0390a4c691677c1440,627c6fea7c7998991554a6bc,2022-05-11_20h25.02.313,classification_task,2021.2.3,Win32,60.72382803,627c6715c52fd12f31907bd0,,,,,,,,,,,,,,,,,,,,,,,l,0,2.1259,"[""0.226"",""0.458"",""0.684"",""0.951""]","[0,1,1,1]",0,8,8,8,1,0,0,,,0,FALSE,,,,,,,,,,,,,,,,,,,,,,,,,,,,,,,
,613a9a0390a4c691677c1440,627c6fea7c7998991554a6bc,2022-05-11_20h25.02.313,classification_task,2021.2.3,Win32,60.72382803,627c6715c52fd12f31907bd0,,,,,,,,,,,,,,,,,,,,,,,l,1,2.4608,"[""0.591"",""0.095"",""0.494"",""0.843""]","[0,1,1,1]",0,9,9,9,1,1,0,,,0,FALSE,,,,,,,,,,,,,,,,,,,,,,,,,,,,,,,
,613a9a0390a4c691677c1440,627c6fea7c7998991554a6bc,2022-05-11_20h25.02.313,classification_task,2021.2.3,Win32,60.72382803,627c6715c52fd12f31907bd0,,,,,,,,,,,,,,,,,,,,,,,a,0,2.0927,"[""0.049"",""0.564"",""0.494"",""0.843""]","[1,0,1,1]",0,10,10,10,1,1,0,,,0,FALSE,,,,,,,,,,,,,,,,,,,,,,,,,,,,,,,
,613a9a0390a4c691677c1440,627c6fea7c7998991554a6bc,2022-05-11_20h25.02.313,classification_task,2021.2.3,Win32,60.72382803,627c6715c52fd12f31907bd0,,,,,,,,,,,,,,,,,,,,,,,l,0,1.7949,"[""0.319"",""0.458"",""0.684"",""0.226""]","[1,1,1,0]",0,11,11,11,1,0,0,,,0,FALSE,,,,,,,,,,,,,,,,,,,,,,,,,,,,,,,
,613a9a0390a4c691677c1440,627c6fea7c7998991554a6bc,2022-05-11_20h25.02.313,classification_task,2021.2.3,Win32,60.72382803,627c6715c52fd12f31907bd0,,,,,,,,,,,,,,,,,,,,,,,l,1,1.3712,"[""0.155"",""0.224"",""0.639"",""0.798""]","[1,0,1,1]",0,12,12,12,1,1,1,,,0,FALSE,,,,,,,,,,,,,,,,,,,,,,,,,,,,,,,
,613a9a0390a4c691677c1440,627c6fea7c7998991554a6bc,2022-05-11_20h25.02.313,classification_task,2021.2.3,Win32,60.72382803,627c6715c52fd12f31907bd0,,,,,,,,,,,,,,,,,,,,,,,a,1,1.4747,"[""0.319"",""0.458"",""0.226"",""0.951""]","[1,1,0,1]",0,13,13,13,1,0,0,,,0,FALSE,,,,,,,,,,,,,,,,,,,,,,,,,,,,,,,
,613a9a0390a4c691677c1440,627c6fea7c7998991554a6bc,2022-05-11_20h25.02.313,classification_task,2021.2.3,Win32,60.72382803,627c6715c52fd12f31907bd0,,,,,,,,,,,,,,,,,,,,,,,l,1,1.8608,"[""0.155"",""0.415"",""0.639"",""0.234""]","[1,1,1,0]",0,14,14,14,1,1,1,,,0,FALSE,,,,,,,,,,,,,,,,,,,,,,,,,,,,,,,
,613a9a0390a4c691677c1440,627c6fea7c7998991554a6bc,2022-05-11_20h25.02.313,classification_task,2021.2.3,Win32,60.72382803,627c6715c52fd12f31907bd0,,,,,,,,,,,,,,,,,,,,,,,l,1,1.2258,"[""0.049"",""0.095"",""0.494"",""0.564""]","[1,1,1,0]",0,15,15,15,1,1,0,,,0,FALSE,,,,,,,,,,,,,,,,,,,,,,,,,,,,,,,
,613a9a0390a4c691677c1440,627c6fea7c7998991554a6bc,2022-05-11_20h25.02.313,classification_task,2021.2.3,Win32,60.72382803,627c6715c52fd12f31907bd0,,,,,,,,,,,,,,,,,,,,,,,a,1,0.9185,"[""0.226"",""0.366"",""0.764"",""0.908""]","[0,1,1,1]",0,16,16,16,1,0,1,,,0,FALSE,,,,,,,,,,,,,,,,,,,,,,,,,,,,,,,
,613a9a0390a4c691677c1440,627c6fea7c7998991554a6bc,2022-05-11_20h25.02.313,classification_task,2021.2.3,Win32,60.72382803,627c6715c52fd12f31907bd0,,,,,,,,,,,,,,,,,,,,,,,a,0,1.6498,"[""0.049"",""0.095"",""0.494"",""0.234""]","[1,1,1,0]",0,17,17,17,1,1,0,,,0,FALSE,,,,,,,,,,,,,,,,,,,,,,,,,,,,,,,
,613a9a0390a4c691677c1440,627c6fea7c7998991554a6bc,2022-05-11_20h25.02.313,classification_task,2021.2.3,Win32,60.72382803,627c6715c52fd12f31907bd0,,,,,,,,,,,,,,,,,,,,,,,l,0,1.1308,"[""0.319"",""0.458"",""0.684"",""0.591""]","[1,1,1,0]",0,18,18,18,1,0,0,,,0,FALSE,,,,,,,,,,,,,,,,,,,,,,,,,,,,,,,
,613a9a0390a4c691677c1440,627c6fea7c7998991554a6bc,2022-05-11_20h25.02.313,classification_task,2021.2.3,Win32,60.72382803,627c6715c52fd12f31907bd0,,,,,,,,,,,,,,,,,,,,,,,a,0,2.187,"[""0.155"",""0.415"",""0.210"",""0.798""]","[1,1,0,1]",0,19,19,19,1,1,1,,,0,FALSE,,,,,,,,,,,,,,,,,,,,,,,,,,,,,,,
,613a9a0390a4c691677c1440,627c6fea7c7998991554a6bc,2022-05-11_20h25.02.313,classification_task,2021.2.3,Win32,60.72382803,627c6715c52fd12f31907bd0,,,,,,,,,,,,,,,,,,,,,,,a,1,2.229,"[""0.269"",""0.366"",""0.764"",""0.212""]","[1,1,1,0]",0,20,20,20,1,0,1,,,0,FALSE,,,,,,,,,,,,,,,,,,,,,,,,,,,,,,,
,613a9a0390a4c691677c1440,627c6fea7c7998991554a6bc,2022-05-11_20h25.02.313,classification_task,2021.2.3,Win32,60.72382803,627c6715c52fd12f31907bd0,,,,,,,,,,,,,,,,,,,,,,,l,1,1.189,"[""0.226"",""0.095"",""0.494"",""0.843""]","[0,1,1,1]",0,21,21,21,1,1,0,,,0,FALSE,,,,,,,,,,,,,,,,,,,,,,,,,,,,,,,
,613a9a0390a4c691677c1440,627c6fea7c7998991554a6bc,2022-05-11_20h25.02.313,classification_task,2021.2.3,Win32,60.72382803,627c6715c52fd12f31907bd0,,,,,,,,,,,,,,,,,,,,,,,l,1,3.6063,"[""0.049"",""0.224"",""0.494"",""0.843""]","[1,0,1,1]",0,22,22,22,1,1,0,,,0,FALSE,,,,,,,,,,,,,,,,,,,,,,,,,,,,,,,
,613a9a0390a4c691677c1440,627c6fea7c7998991554a6bc,2022-05-11_20h25.02.313,classification_task,2021.2.3,Win32,60.72382803,627c6715c52fd12f31907bd0,,,,,,,,,,,,,,,,,,,,,,,l,1,1.3576,"[""0.155"",""0.730"",""0.639"",""0.798""]","[1,0,1,1]",0,23,23,23,1,1,1,,,0,FALSE,,,,,,,,,,,,,,,,,,,,,,,,,,,,,,,
,613a9a0390a4c691677c1440,627c6fea7c7998991554a6bc,2022-05-11_20h25.02.313,classification_task,2021.2.3,Win32,60.72382803,627c6715c52fd12f31907bd0,,,,,,,,,,,,,,,,,,,,,,,l,1,1.0592,"[""0.155"",""0.415"",""0.639"",""0.226""]","[1,1,1,0]",0,24,24,24,1,1,1,,,0,FALSE,,,,,,,,,,,,,,,,,,,,,,,,,,,,,,,
,613a9a0390a4c691677c1440,627c6fea7c7998991554a6bc,2022-05-11_20h25.02.313,classification_task,2021.2.3,Win32,60.72382803,627c6715c52fd12f31907bd0,,,,,,,,,,,,,,,,,,,,,,,l,1,0.9825,"[""0.212"",""0.415"",""0.639"",""0.798""]","[0,1,1,1]",0,25,25,25,1,1,1,,,0,FALSE,,,,,,,,,,,,,,,,,,,,,,,,,,,,,,,
,613a9a0390a4c691677c1440,627c6fea7c7998991554a6bc,2022-05-11_20h25.02.313,classification_task,2021.2.3,Win32,60.72382803,627c6715c52fd12f31907bd0,,,,,,,,,,,,,,,,,,,,,,,a,1,2.1077,"[""0.591"",""0.458"",""0.684"",""0.951""]","[0,1,1,1]",0,26,26,26,1,0,0,,,0,FALSE,,,,,,,,,,,,,,,,,,,,,,,,,,,,,,,
,613a9a0390a4c691677c1440,627c6fea7c7998991554a6bc,2022-05-11_20h25.02.313,classification_task,2021.2.3,Win32,60.72382803,627c6715c52fd12f31907bd0,,,,,,,,,,,,,,,,,,,,,,,a,1,1.7234,"[""0.269"",""0.209"",""0.764"",""0.908""]","[1,0,1,1]",0,27,27,27,1,0,1,,,0,FALSE,,,,,,,,,,,,,,,,,,,,,,,,,,,,,,,
,613a9a0390a4c691677c1440,627c6fea7c7998991554a6bc,2022-05-11_20h25.02.313,classification_task,2021.2.3,Win32,60.72382803,627c6715c52fd12f31907bd0,,,,,,,,,,,,,,,,,,,,,,,a,0,1.9639,"[""0.049"",""0.095"",""0.202"",""0.843""]","[1,1,0,1]",0,28,28,28,1,1,0,,,0,FALSE,,,,,,,,,,,,,,,,,,,,,,,,,,,,,,,
,613a9a0390a4c691677c1440,627c6fea7c7998991554a6bc,2022-05-11_20h25.02.313,classification_task,2021.2.3,Win32,60.72382803,627c6715c52fd12f31907bd0,,,,,,,,,,,,,,,,,,,,,,,l,0,1.8845,"[""0.319"",""0.458"",""0.226"",""0.951""]","[1,1,0,1]",0,29,29,29,1,0,0,,,0,FALSE,,,,,,,,,,,,,,,,,,,,,,,,,,,,,,,
,613a9a0390a4c691677c1440,627c6fea7c7998991554a6bc,2022-05-11_20h25.02.313,classification_task,2021.2.3,Win32,60.72382803,627c6715c52fd12f31907bd0,,,,,,,,,,,,,,,,,,,,,,,l,0,1.8759,"[""0.269"",""0.366"",""0.226"",""0.908""]","[1,1,0,1]",0,30,30,30,1,0,1,,,0,FALSE,,,,,,,,,,,,,,,,,,,,,,,,,,,,,,,
,613a9a0390a4c691677c1440,627c6fea7c7998991554a6bc,2022-05-11_20h25.02.313,classification_task,2021.2.3,Win32,60.72382803,627c6715c52fd12f31907bd0,,,,,,,,,,,,,,,,,,,,,,,l,0,1.2427,"[""0.319"",""0.591"",""0.684"",""0.951""]","[1,0,1,1]",0,31,31,31,1,0,0,,,0,FALSE,,,,,,,,,,,,,,,,,,,,,,,,,,,,,,,
,613a9a0390a4c691677c1440,627c6fea7c7998991554a6bc,2022-05-11_20h25.02.313,classification_task,2021.2.3,Win32,60.72382803,627c6715c52fd12f31907bd0,,,,,,,,,,,,,,,,,,,,,,,a,0,1.359,"[""0.049"",""0.095"",""0.494"",""0.730""]","[1,1,1,0]",0,32,32,32,1,1,0,,,0,FALSE,,,,,,,,,,,,,,,,,,,,,,,,,,,,,,,
,613a9a0390a4c691677c1440,627c6fea7c7998991554a6bc,2022-05-11_20h25.02.313,classification_task,2021.2.3,Win32,60.72382803,627c6715c52fd12f31907bd0,,,,,,,,,,,,,,,,,,,,,,,a,0,3.0733,"[""0.234"",""0.415"",""0.639"",""0.798""]","[0,1,1,1]",0,33,33,33,1,1,1,,,0,FALSE,,,,,,,,,,,,,,,,,,,,,,,,,,,,,,,
,613a9a0390a4c691677c1440,627c6fea7c7998991554a6bc,2022-05-11_20h25.02.313,classification_task,2021.2.3,Win32,60.72382803,627c6715c52fd12f31907bd0,,,,,,,,,,,,,,,,,,,,,,,a,1,2.305,"[""0.319"",""0.458"",""0.210"",""0.951""]","[1,1,0,1]",0,34,34,34,1,0,0,,,0,FALSE,,,,,,,,,,,,,,,,,,,,,,,,,,,,,,,
,613a9a0390a4c691677c1440,627c6fea7c7998991554a6bc,2022-05-11_20h25.02.313,classification_task,2021.2.3,Win32,60.72382803,627c6715c52fd12f31907bd0,,,,,,,,,,,,,,,,,,,,,,,a,0,3.5254,"[""0.049"",""0.226"",""0.494"",""0.843""]","[1,0,1,1]",0,35,35,35,1,1,0,,,0,FALSE,,,,,,,,,,,,,,,,,,,,,,,,,,,,,,,
,613a9a0390a4c691677c1440,627c6fea7c7998991554a6bc,2022-05-11_20h25.02.313,classification_task,2021.2.3,Win32,60.72382803,627c6715c52fd12f31907bd0,,,,,,,,,,,,,,,,,,,,,,,a,1,2.9905,"[""0.269"",""0.366"",""0.730"",""0.908""]","[1,1,0,1]",0,36,36,36,1,0,1,,,0,FALSE,,,,,,,,,,,,,,,,,,,,,,,,,,,,,,,
,613a9a0390a4c691677c1440,627c6fea7c7998991554a6bc,2022-05-11_20h25.02.313,classification_task,2021.2.3,Win32,60.72382803,627c6715c52fd12f31907bd0,,,,,,,,,,,,,,,,,,,,,,,a,1,1.7917,"[""0.319"",""0.210"",""0.684"",""0.951""]","[1,0,1,1]",0,37,37,37,1,0,0,,,0,FALSE,,,,,,,,,,,,,,,,,,,,,,,,,,,,,,,
,613a9a0390a4c691677c1440,627c6fea7c7998991554a6bc,2022-05-11_20h25.02.313,classification_task,2021.2.3,Win32,60.72382803,627c6715c52fd12f31907bd0,,,,,,,,,,,,,,,,,,,,,,,a,1,1.4245,"[""0.269"",""0.366"",""0.764"",""0.212""]","[1,1,1,0]",0,38,38,38,1,0,1,,,0,FALSE,,,,,,,,,,,,,,,,,,,,,,,,,,,,,,,
,613a9a0390a4c691677c1440,627c6fea7c7998991554a6bc,2022-05-11_20h25.02.313,classification_task,2021.2.3,Win32,60.72382803,627c6715c52fd12f31907bd0,,,,,,,,,,,,,,,,,,,,,,,l,1,1.2605,"[""0.049"",""0.095"",""0.226"",""0.843""]","[1,1,0,1]",0,39,39,39,1,1,0,,,0,FALSE,,,,,,,,,,,,,,,,,,,,,,,,,,,,,,,
,613a9a0390a4c691677c1440,627c6fea7c7998991554a6bc,2022-05-11_20h25.02.313,classification_task,2021.2.3,Win32,60.72382803,627c6715c52fd12f31907bd0,,,,,,,,,,,,,,,,,,,,,,,l,1,1.56,"[""0.155"",""0.415"",""0.201"",""0.798""]","[1,1,0,1]",0,40,40,40,1,1,1,,,0,FALSE,,,,,,,,,,,,,,,,,,,,,,,,,,,,,,,
,613a9a0390a4c691677c1440,627c6fea7c7998991554a6bc,2022-05-11_20h25.02.313,classification_task,2021.2.3,Win32,60.72382803,627c6715c52fd12f31907bd0,,,,,,,,,,,,,,,,,,,,,,,l,1,2.4759,"[""0.572"",""0.095"",""0.494"",""0.843""]","[0,1,1,1]",0,41,41,41,1,1,0,,,0,FALSE,,,,,,,,,,,,,,,,,,,,,,,,,,,,,,,
,613a9a0390a4c691677c1440,627c6fea7c7998991554a6bc,2022-05-11_20h25.02.313,classification_task,2021.2.3,Win32,60.72382803,627c6715c52fd12f31907bd0,,,,,,,,,,,,,,,,,,,,,,,l,0,1.5125,"[""0.201"",""0.458"",""0.684"",""0.951""]","[0,1,1,1]",0,42,42,42,1,0,0,,,0,FALSE,,,,,,,,,,,,,,,,,,,,,,,,,,,,,,,
,613a9a0390a4c691677c1440,627c6fea7c7998991554a6bc,2022-05-11_20h25.02.313,classification_task,2021.2.3,Win32,60.72382803,627c6715c52fd12f31907bd0,,,,,,,,,,,,,,,,,,,,,,,a,1,3.3964,"[""0.605"",""0.366"",""0.764"",""0.908""]","[0,1,1,1]",0,43,43,43,1,0,1,,,0,FALSE,,,,,,,,,,,,,,,,,,,,,,,,,,,,,,,
,613a9a0390a4c691677c1440,627c6fea7c7998991554a6bc,2022-05-11_20h25.02.313,classification_task,2021.2.3,Win32,60.72382803,627c6715c52fd12f31907bd0,,,,,,,,,,,,,,,,,,,,,,,a,1,3.3302,"[""0.319"",""0.458"",""0.684"",""0.226""]","[1,1,1,0]",0,44,44,44,1,0,0,,,0,FALSE,,,,,,,,,,,,,,,,,,,,,,,,,,,,,,,
,613a9a0390a4c691677c1440,627c6fea7c7998991554a6bc,2022-05-11_20h25.02.313,classification_task,2021.2.3,Win32,60.72382803,627c6715c52fd12f31907bd0,,,,,,,,,,,,,,,,,,,,,,,l,0,1.6498,"[""0.269"",""0.224"",""0.764"",""0.908""]","[1,0,1,1]",0,45,45,45,1,0,1,,,0,FALSE,,,,,,,,,,,,,,,,,,,,,,,,,,,,,,,
,613a9a0390a4c691677c1440,627c6fea7c7998991554a6bc,2022-05-11_20h25.02.313,classification_task,2021.2.3,Win32,60.72382803,627c6715c52fd12f31907bd0,,,,,,,,,,,,,,,,,,,,,,,l,1,1.5269,"[""0.155"",""0.226"",""0.639"",""0.798""]","[1,0,1,1]",0,46,46,46,1,1,1,,,0,FALSE,,,,,,,,,,,,,,,,,,,,,,,,,,,,,,,
,613a9a0390a4c691677c1440,627c6fea7c7998991554a6bc,2022-05-11_20h25.02.313,classification_task,2021.2.3,Win32,60.72382803,627c6715c52fd12f31907bd0,,,,,,,,,,,,,,,,,,,,,,,l,1,1.4902,"[""0.155"",""0.415"",""0.639"",""0.209""]","[1,1,1,0]",0,47,47,47,1,1,1,,,0,FALSE,,,,,,,,,,,,,,,,,,,,,,,,,,,,,,,
,613a9a0390a4c691677c1440,627c6fea7c7998991554a6bc,2022-05-11_20h25.02.313,classification_task,2021.2.3,Win32,60.72382803,627c6715c52fd12f31907bd0,,,,,,,,,,,,,,,,,,,,,,,l,1,1.6822,"[""0.049"",""0.095"",""0.730"",""0.843""]","[1,1,0,1]",0,48,48,48,1,1,0,,,0,FALSE,,,,,,,,,,,,,,,,,,,,,,,,,,,,,,,
,613a9a0390a4c691677c1440,627c6fea7c7998991554a6bc,2022-05-11_20h25.02.313,classification_task,2021.2.3,Win32,60.72382803,627c6715c52fd12f31907bd0,,,,,,,,,,,,,,,,,,,,,,,l,0,3.1261,"[""0.591"",""0.366"",""0.764"",""0.908""]","[0,1,1,1]",0,49,49,49,1,0,1,,,0,FALSE,,,,,,,,,,,,,,,,,,,,,,,,,,,,,,,
,613a9a0390a4c691677c1440,627c6fea7c7998991554a6bc,2022-05-11_20h25.02.313,classification_task,2021.2.3,Win32,60.72382803,627c6715c52fd12f31907bd0,,,,,,,,,,,,,,,,,,,,,,,a,0,1.9844,"[""0.049"",""0.730"",""0.494"",""0.843""]","[1,0,1,1]",0,50,50,50,1,1,0,,,0,FALSE,,,,,,,,,,,,,,,,,,,,,,,,,,,,,,,
,613a9a0390a4c691677c1440,627c6fea7c7998991554a6bc,2022-05-11_20h25.02.313,classification_task,2021.2.3,Win32,60.72382803,627c6715c52fd12f31907bd0,,,,,,,,,,,,,,,,,,,,,,,a,0,3.0949,"[""0.049"",""0.095"",""0.494"",""0.212""]","[1,1,1,0]",0,51,51,51,1,1,0,,,0,FALSE,,,,,,,,,,,,,,,,,,,,,,,,,,,,,,,
,613a9a0390a4c691677c1440,627c6fea7c7998991554a6bc,2022-05-11_20h25.02.313,classification_task,2021.2.3,Win32,60.72382803,627c6715c52fd12f31907bd0,,,,,,,,,,,,,,,,,,,,,,,l,1,1.2538,"[""0.155"",""0.415"",""0.605"",""0.798""]","[1,1,0,1]",0,52,52,52,1,1,1,,,0,FALSE,,,,,,,,,,,,,,,,,,,,,,,,,,,,,,,
,613a9a0390a4c691677c1440,627c6fea7c7998991554a6bc,2022-05-11_20h25.02.313,classification_task,2021.2.3,Win32,60.72382803,627c6715c52fd12f31907bd0,,,,,,,,,,,,,,,,,,,,,,,l,0,2.5584,"[""0.319"",""0.458"",""0.565"",""0.951""]","[1,1,0,1]",0,53,53,53,1,0,0,,,0,FALSE,,,,,,,,,,,,,,,,,,,,,,,,,,,,,,,
,613a9a0390a4c691677c1440,627c6fea7c7998991554a6bc,2022-05-11_20h25.02.313,classification_task,2021.2.3,Win32,60.72382803,627c6715c52fd12f31907bd0,,,,,,,,,,,,,,,,,,,,,,,a,1,1.4114,"[""0.269"",""0.202"",""0.764"",""0.908""]","[1,0,1,1]",0,54,54,54,1,0,1,,,0,FALSE,,,,,,,,,,,,,,,,,,,,,,,,,,,,,,,
,613a9a0390a4c691677c1440,627c6fea7c7998991554a6bc,2022-05-11_20h25.02.313,classification_task,2021.2.3,Win32,60.72382803,627c6715c52fd12f31907bd0,,,,,,,,,,,,,,,,,,,,,,,a,0,1.1263,"[""0.155"",""0.224"",""0.639"",""0.798""]","[1,0,1,1]",0,55,55,55,1,1,1,,,0,FALSE,,,,,,,,,,,,,,,,,,,,,,,,,,,,,,,
,613a9a0390a4c691677c1440,627c6fea7c7998991554a6bc,2022-05-11_20h25.02.313,classification_task,2021.2.3,Win32,60.72382803,627c6715c52fd12f31907bd0,,,,,,,,,,,,,,,,,,,,,,,l,1,0.691,"[""0.565"",""0.095"",""0.494"",""0.843""]","[0,1,1,1]",0,56,56,56,1,1,0,,,0,FALSE,,,,,,,,,,,,,,,,,,,,,,,,,,,,,,,
,613a9a0390a4c691677c1440,627c6fea7c7998991554a6bc,2022-05-11_20h25.02.313,classification_task,2021.2.3,Win32,60.72382803,627c6715c52fd12f31907bd0,,,,,,,,,,,,,,,,,,,,,,,a,1,1.8088,"[""0.269"",""0.366"",""0.202"",""0.908""]","[1,1,0,1]",0,57,57,57,1,0,1,,,0,FALSE,,,,,,,,,,,,,,,,,,,,,,,,,,,,,,,
,613a9a0390a4c691677c1440,627c6fea7c7998991554a6bc,2022-05-11_20h25.02.313,classification_task,2021.2.3,Win32,60.72382803,627c6715c52fd12f31907bd0,,,,,,,,,,,,,,,,,,,,,,,l,0,2.5474,"[""0.319"",""0.591"",""0.684"",""0.951""]","[1,0,1,1]",0,58,58,58,1,0,0,,,0,FALSE,,,,,,,,,,,,,,,,,,,,,,,,,,,,,,,
,613a9a0390a4c691677c1440,627c6fea7c7998991554a6bc,2022-05-11_20h25.02.313,classification_task,2021.2.3,Win32,60.72382803,627c6715c52fd12f31907bd0,,,,,,,,,,,,,,,,,,,,,,,l,1,2.4774,"[""0.532"",""0.415"",""0.639"",""0.798""]","[0,1,1,1]",0,59,59,59,1,1,1,,,0,FALSE,,,,,,,,,,,,,,,,,,,,,,,,,,,,,,,
,613a9a0390a4c691677c1440,627c6fea7c7998991554a6bc,2022-05-11_20h25.02.313,classification_task,2021.2.3,Win32,60.72382803,627c6715c52fd12f31907bd0,,,,,,,,,,,,,,,,,,,,,,,l,0,4.113,"[""0.532"",""0.458"",""0.684"",""0.951""]","[0,1,1,1]",0,60,60,60,1,0,0,,,0,FALSE,,,,,,,,,,,,,,,,,,,,,,,,,,,,,,,
,613a9a0390a4c691677c1440,627c6fea7c7998991554a6bc,2022-05-11_20h25.02.313,classification_task,2021.2.3,Win32,60.72382803,627c6715c52fd12f31907bd0,,,,,,,,,,,,,,,,,,,,,,,a,1,1.2944,"[""0.269"",""0.366"",""0.764"",""0.210""]","[1,1,1,0]",0,61,61,61,1,0,1,,,0,FALSE,,,,,,,,,,,,,,,,,,,,,,,,,,,,,,,
,613a9a0390a4c691677c1440,627c6fea7c7998991554a6bc,2022-05-11_20h25.02.313,classification_task,2021.2.3,Win32,60.72382803,627c6715c52fd12f31907bd0,,,,,,,,,,,,,,,,,,,,,,,l,0,1.158,"[""0.319"",""0.458"",""0.684"",""0.730""]","[1,1,1,0]",0,62,62,62,1,0,0,,,0,FALSE,,,,,,,,,,,,,,,,,,,,,,,,,,,,,,,
,613a9a0390a4c691677c1440,627c6fea7c7998991554a6bc,2022-05-11_20h25.02.313,classification_task,2021.2.3,Win32,60.72382803,627c6715c52fd12f31907bd0,,,,,,,,,,,,,,,,,,,,,,,a,0,1.6249,"[""0.155"",""0.415"",""0.639"",""0.234""]","[1,1,1,0]",0,63,63,63,1,1,1,,,0,FALSE,,,,,,,,,,,,,,,,,,,,,,,,,,,,,,,
,613a9a0390a4c691677c1440,627c6fea7c7998991554a6bc,2022-05-11_20h25.02.313,classification_task,2021.2.3,Win32,60.72382803,627c6715c52fd12f31907bd0,,,,,,,,,,,,,,,,,,,,,,,,,,,,,,,,,,,,,,,0, ,,0,0,212.5504,0,2,2,2,1,2,3,,,,,,,,,,,,,,,,,,
,613a9a0390a4c691677c1440,627c6fea7c7998991554a6bc,2022-05-11_20h25.02.313,classification_task,2021.2.3,Win32,60.72382803,627c6715c52fd12f31907bd0,,,,,,,,,,,,,,,,,,,,,,,,,,,,,,,,,,,,,,,1,  ,,0,10,220.595,0,2,2,2,1,2,3,,,,,,,,,,,,,,,,,,
,613a9a0390a4c691677c1440,627c6fea7c7998991554a6bc,2022-05-11_20h25.02.313,classification_task,2021.2.3,Win32,60.72382803,627c6715c52fd12f31907bd0,,,,,,,,,,,,,,,,,,,,,,,,,,,,,,,,,,,,,,,2,  ,,0,10,222.8139,0,2,2,2,1,2,3,,,,,,,,,,,,,,,,,,
,613a9a0390a4c691677c1440,627c6fea7c7998991554a6bc,2022-05-11_20h25.02.313,classification_task,2021.2.3,Win32,60.72382803,627c6715c52fd12f31907bd0,,,,,,,,,,,,,,,,,,,,,,,,,,,,,,,,,,,,,,,,,,,,,0,2,2,2,1,,3,,,,,,,,,,,,,,,,,,
,613a9a0390a4c691677c1440,627c6fea7c7998991554a6bc,2022-05-11_20h25.02.313,classification_task,2021.2.3,Win32,60.72382803,627c6715c52fd12f31907bd0,,,,,,,,,,,,,,,,,,,,,,,,,,,,,,,,,,,,,,,,,,,,,,,,,,,,,I believe the aid is a competent performer,,0.7,0,5,1006.5069,0,0,0,0,1,0,,,,,
,613a9a0390a4c691677c1440,627c6fea7c7998991554a6bc,2022-05-11_20h25.02.313,classification_task,2021.2.3,Win32,60.72382803,627c6715c52fd12f31907bd0,,,,,,,,,,,,,,,,,,,,,,,,,,,,,,,,,,,,,,,,,,,,,,,,,,,,,I trust the aid,,0.7,0,5,1007.3641,0,0,0,0,1,0,,,,,
,613a9a0390a4c691677c1440,627c6fea7c7998991554a6bc,2022-05-11_20h25.02.313,classification_task,2021.2.3,Win32,60.72382803,627c6715c52fd12f31907bd0,,,,,,,,,,,,,,,,,,,,,,,,,,,,,,,,,,,,,,,,,,,,,,,,,,,,,I have confidence in the advice given by the aid,,0.7,0,5,1008.5732,0,0,0,0,1,0,,,,,
,613a9a0390a4c691677c1440,627c6fea7c7998991554a6bc,2022-05-11_20h25.02.313,classification_task,2021.2.3,Win32,60.72382803,627c6715c52fd12f31907bd0,,,,,,,,,,,,,,,,,,,,,,,,,,,,,,,,,,,,,,,,,,,,,,,,,,,,,I can depend on the aid,,0.7,0,5,1010.3571,0,0,0,0,1,0,,,,,
,613a9a0390a4c691677c1440,627c6fea7c7998991554a6bc,2022-05-11_20h25.02.313,classification_task,2021.2.3,Win32,60.72382803,627c6715c52fd12f31907bd0,,,,,,,,,,,,,,,,,,,,,,,,,,,,,,,,,,,,,,,,,,,,,,,,,,,,,I can rely on the aid to behave in consistent ways,,0.7,0,5,1010.9883,0,0,0,0,1,0,,,,,
,613a9a0390a4c691677c1440,627c6fea7c7998991554a6bc,2022-05-11_20h25.02.313,classification_task,2021.2.3,Win32,60.72382803,627c6715c52fd12f31907bd0,,,,,,,,,,,,,,,,,,,,,,,,,,,,,,,,,,,,,,,,,,,,,,,,,,,,,I can rely on the aid to do its best every time I take its advice,,0.7,0,5,1013.2231,0,0,0,0,1,0,,,,,
,613a9a0390a4c691677c1440,627c6fea7c7998991554a6bc,2022-05-11_20h25.02.313,classification_task,2021.2.3,Win32,60.72382803,627c6715c52fd12f31907bd0,,,,,,,,,,,,,,,,,,,,,,,,,,,,,,,,,,,,,,,,,,,,,,,,,,,,,"On trials you completed with assistance from the aid, how frequently did you think the aid was correct?",,0.7,0,90%,,0,0,0,0,1,0,,,,,
,613a9a0390a4c691677c1440,627c6fea7c7998991554a6bc,2022-05-11_20h25.02.313,classification_task,2021.2.3,Win32,60.72382803,627c6715c52fd12f31907bd0,,,,,,,,,,,,,,,,,,,,,,,,,,,,,,,,,,,,,,,,,,,,,,,,,,,,,"On trials you completed without the aid, how frequently did you think you were correct?",,0.7,0,50%,,0,0,0,0,1,0,,,,,
,613a9a0390a4c691677c1440,627c6fea7c7998991554a6bc,2022-05-11_20h25.02.313,classification_task,2021.2.3,Win32,60.72382803,627c6715c52fd12f31907bd0,,,,,,,,,,,,,,,,,,,,,,,,,,,,,,,,,,,,,,,,,,,,,,,,,,,,,,,,,,,0,0,0,0,1,,,,,,
,613a9a0390a4c691677c1440,627c6fea7c7998991554a6bc,2022-05-11_20h25.02.313,classification_task,2021.2.3,Win32,60.72382803,627c6715c52fd12f31907bd0,,,,,,,,,,,,,,,,,,,,,,,,,,,,,,,,,,,,,,,,,,,,,,,,,,,,,,,,,,,,,,,,,space,7.1724,1035.702,,
,613a9a0390a4c691677c1440,627c6fea7c7998991554a6bc,2022-05-11_20h25.02.313,classification_task,2021.2.3,Win32,60.72382803,627c6715c52fd12f31907bd0,,,,,,,,,,,,,,,,,,,,,,,,,,,,,,,,,,,,,,,,,,,,,,,,,,,,,,,,,,,,,,,,,,,,"Mozilla/5.0 (Windows NT 10.0; Win64; x64) AppleWebKit/537.36 (KHTML, like Gecko) Chrome/101.0.4951.54 Safari/537.36",
,613a9a0390a4c691677c1440,627c6fea7c7998991554a6bc,2022-05-11_20h25.02.313,classification_task,2021.2.3,Win32,60.72382803,627c6715c52fd12f31907bd0,,,,,,,,,,,,,,,,,,,,,,,,,,,,,,,,,,,,,,,,,,,,,,,,,,,,,,,,,,,,,,,,,,,,,LOWLIGHT
