usingWebGL,participant,session,date,expName,psychopyVersion,OS,frameRate,study_id,signatures_friend,signatures_foe,band_ranges_top,band_ranges_bottom,formitemText,formtype,formundefined,formitemWidth,formindex,formresponse,formrt,key_resp_2.keys,key_resp_2.rt,tute_resp.keys,tute_resp.rt,tutorial.thisRepN,tutorial.thisTrialN,tutorial.thisN,tutorial.thisIndex,tutorial.ran,key_resp_4.keys,key_resp_4.rt,key_resp.keys,key_resp.corr,key_resp.rt,lines_presented,is_signal_presented,trials.thisRepN,trials.thisTrialN,trials.thisN,trials.thisIndex,trials.ran,vessel,active_band,lines,is_signal,supported_pos,catch_trial,debrief_formindex,debrief_formitemText,debrief_formtype,debrief_formitemWidth,debrief_formresponse,debrief_formrt,phases.thisRepN,phases.thisTrialN,phases.thisN,phases.thisIndex,phases.ran,phases.order,phase,key_resp_3.keys,trustitemText,trusttype,trustitemWidth,trustindex,trustresponse,trustrt,support_status.thisRepN,support_status.thisTrialN,support_status.thisN,support_status.thisIndex,support_status.ran,support_status.order,key_resp_5.keys,key_resp_5.rt,globalClockTime,userAgent,manualCondition
TRUE,613a563bf2e38ea679f50546,627c705cdc54bcc7f388c5db,2022-05-11_21h27.12.769,classification_task,2021.2.3,Win32,60.12867537,627c6715c52fd12f31907bd0,,,,,,,,,,,,,,,,,,,,,,,,,,,,,,,,,,,,,,,,,,,,,,,,,,,,,,,,,,,,,,,,,,,,,
,613a563bf2e38ea679f50546,627c705cdc54bcc7f388c5db,2022-05-11_21h27.12.769,classification_task,2021.2.3,Win32,60.12867537,627c6715c52fd12f31907bd0,"[[""0.182"",""0.441"",""0.919"",""0.967""],[""0.323"",""0.554"",""0.835"",""0.881""]]","[[""0.066"",""0.218"",""0.639"",""0.746""],[""0.118"",""0.267"",""0.511"",""0.674""]]","[1,10]","[100,1000]",Video game experience,,,0.7,0,,,,,,,,,,,,,,,,,,,,,,,,,,,,,,,,,,,,,,,,,,,,,,,,,,,,,,,,,,,,
,613a563bf2e38ea679f50546,627c705cdc54bcc7f388c5db,2022-05-11_21h27.12.769,classification_task,2021.2.3,Win32,60.12867537,627c6715c52fd12f31907bd0,,,,,Approximately how many hours did you spend playing video games in the last week?,,,0.7,0,1,,,,,,,,,,,,,,,,,,,,,,,,,,,,,,,,,,,,,,,,,,,,,,,,,,,,,,,,,,,
,613a563bf2e38ea679f50546,627c705cdc54bcc7f388c5db,2022-05-11_21h27.12.769,classification_task,2021.2.3,Win32,60.12867537,627c6715c52fd12f31907bd0,,,,,"Which game did you play the most this year? (Enter ""None"" if you didn't play any)",,,0.7,0,Forza Horizon,,,,,,,,,,,,,,,,,,,,,,,,,,,,,,,,,,,,,,,,,,,,,,,,,,,,,,,,,,,
,613a563bf2e38ea679f50546,627c705cdc54bcc7f388c5db,2022-05-11_21h27.12.769,classification_task,2021.2.3,Win32,60.12867537,627c6715c52fd12f31907bd0,,,,,Visual perception,,,0.7,0,,,,,,,,,,,,,,,,,,,,,,,,,,,,,,,,,,,,,,,,,,,,,,,,,,,,,,,,,,,,
,613a563bf2e38ea679f50546,627c705cdc54bcc7f388c5db,2022-05-11_21h27.12.769,classification_task,2021.2.3,Win32,60.12867537,627c6715c52fd12f31907bd0,,,,,Do you have any form of color blindness?,,,0.7,0,No,15.3904,,,,,,,,,,,,,,,,,,,,,,,,,,,,,,,,,,,,,,,,,,,,,,,,,,,,,,,,,,
,613a563bf2e38ea679f50546,627c705cdc54bcc7f388c5db,2022-05-11_21h27.12.769,classification_task,2021.2.3,Win32,60.12867537,627c6715c52fd12f31907bd0,,,,,Do you use software to change the colour temperature of your screen (e.g. f.lux)?,,,0.7,0,No,53.9752,,,,,,,,,,,,,,,,,,,,,,,,,,,,,,,,,,,,,,,,,,,,,,,,,,,,,,,,,,
,613a563bf2e38ea679f50546,627c705cdc54bcc7f388c5db,2022-05-11_21h27.12.769,classification_task,2021.2.3,Win32,60.12867537,627c6715c52fd12f31907bd0,,,,,,,,,,,,space,69.7122,space,14.6771,0,0,0,0,1,,,,,,,,,,,,,,,,,,,,,,,,,,,,,,,,,,,,,,,,,,,,,,,,,
,613a563bf2e38ea679f50546,627c705cdc54bcc7f388c5db,2022-05-11_21h27.12.769,classification_task,2021.2.3,Win32,60.12867537,627c6715c52fd12f31907bd0,,,,,,,,,,,,,,space,8.2106,1,0,1,0,1,,,,,,,,,,,,,,,,,,,,,,,,,,,,,,,,,,,,,,,,,,,,,,,,,
,613a563bf2e38ea679f50546,627c705cdc54bcc7f388c5db,2022-05-11_21h27.12.769,classification_task,2021.2.3,Win32,60.12867537,627c6715c52fd12f31907bd0,,,,,,,,,,,,,,space,29.9145,2,0,2,0,1,,,,,,,,,,,,,,,,,,,,,,,,,,,,,,,,,,,,,,,,,,,,,,,,,
,613a563bf2e38ea679f50546,627c705cdc54bcc7f388c5db,2022-05-11_21h27.12.769,classification_task,2021.2.3,Win32,60.12867537,627c6715c52fd12f31907bd0,,,,,,,,,,,,,,space,35.1031,3,0,3,0,1,,,,,,,,,,,,,,,,,,,,,,,,,,,,,,,,,,,,,,,,,,,,,,,,,
,613a563bf2e38ea679f50546,627c705cdc54bcc7f388c5db,2022-05-11_21h27.12.769,classification_task,2021.2.3,Win32,60.12867537,627c6715c52fd12f31907bd0,,,,,,,,,,,,,,space,15.1281,4,0,4,0,1,,,,,,,,,,,,,,,,,,,,,,,,,,,,,,,,,,,,,,,,,,,,,,,,,
,613a563bf2e38ea679f50546,627c705cdc54bcc7f388c5db,2022-05-11_21h27.12.769,classification_task,2021.2.3,Win32,60.12867537,627c6715c52fd12f31907bd0,,,,,,,,,,,,,,,,,,,,,space,21.3938,l,1,6.5251,"[""0.589"",""0.267"",""0.511"",""0.674""]","[0,1,1,1]",0,0,0,0,1,1,1,,,0,FALSE,,,,,,,,,,,,,,,,,,,,,,,,,,,,,,,
,613a563bf2e38ea679f50546,627c705cdc54bcc7f388c5db,2022-05-11_21h27.12.769,classification_task,2021.2.3,Win32,60.12867537,627c6715c52fd12f31907bd0,,,,,,,,,,,,,,,,,,,,,,,l,1,5.0053,"[""0.066"",""0.403"",""0.639"",""0.746""]","[1,0,1,1]",0,1,1,1,1,1,0,,,0,FALSE,,,,,,,,,,,,,,,,,,,,,,,,,,,,,,,
,613a563bf2e38ea679f50546,627c705cdc54bcc7f388c5db,2022-05-11_21h27.12.769,classification_task,2021.2.3,Win32,60.12867537,627c6715c52fd12f31907bd0,,,,,,,,,,,,,,,,,,,,,,,a,1,4.0074,"[""0.182"",""0.361"",""0.919"",""0.967""]","[1,0,1,1]",0,2,2,2,1,0,0,,,0,FALSE,,,,,,,,,,,,,,,,,,,,,,,,,,,,,,,
,613a563bf2e38ea679f50546,627c705cdc54bcc7f388c5db,2022-05-11_21h27.12.769,classification_task,2021.2.3,Win32,60.12867537,627c6715c52fd12f31907bd0,,,,,,,,,,,,,,,,,,,,,,,l,1,6.2933,"[""0.118"",""0.267"",""0.511"",""0.361""]","[1,1,1,0]",0,3,3,3,1,1,1,,,0,FALSE,,,,,,,,,,,,,,,,,,,,,,,,,,,,,,,
,613a563bf2e38ea679f50546,627c705cdc54bcc7f388c5db,2022-05-11_21h27.12.769,classification_task,2021.2.3,Win32,60.12867537,627c6715c52fd12f31907bd0,,,,,,,,,,,,,,,,,,,,,,,,0,,"[""0.323"",""0.026"",""0.835"",""0.881""]","[1,0,1,1]",0,4,4,4,1,0,1,,,0,FALSE,,,,,,,,,,,,,,,,,,,,,,,,,,,,,,,
,613a563bf2e38ea679f50546,627c705cdc54bcc7f388c5db,2022-05-11_21h27.12.769,classification_task,2021.2.3,Win32,60.12867537,627c6715c52fd12f31907bd0,,,,,,,,,,,,,,,,,,,,,,,a,1,9.958,"[""0.592"",""0.441"",""0.919"",""0.967""]","[0,1,1,1]",0,5,5,5,1,0,0,,,0,FALSE,,,,,,,,,,,,,,,,,,,,,,,,,,,,,,,
,613a563bf2e38ea679f50546,627c705cdc54bcc7f388c5db,2022-05-11_21h27.12.769,classification_task,2021.2.3,Win32,60.12867537,627c6715c52fd12f31907bd0,,,,,,,,,,,,,,,,,,,,,,,l,1,8.5588,"[""0.066"",""0.218"",""0.639"",""0.788""]","[1,1,1,0]",0,6,6,6,1,1,0,,,0,FALSE,,,,,,,,,,,,,,,,,,,,,,,,,,,,,,,
,613a563bf2e38ea679f50546,627c705cdc54bcc7f388c5db,2022-05-11_21h27.12.769,classification_task,2021.2.3,Win32,60.12867537,627c6715c52fd12f31907bd0,,,,,,,,,,,,,,,,,,,,,,,l,1,7.024,"[""0.118"",""0.361"",""0.511"",""0.674""]","[1,0,1,1]",0,7,7,7,1,1,1,,,0,FALSE,,,,,,,,,,,,,,,,,,,,,,,,,,,,,,,
,613a563bf2e38ea679f50546,627c705cdc54bcc7f388c5db,2022-05-11_21h27.12.769,classification_task,2021.2.3,Win32,60.12867537,627c6715c52fd12f31907bd0,,,,,,,,,,,,,,,,,,,,,,,l,1,5.5395,"[""0.026"",""0.218"",""0.639"",""0.746""]","[0,1,1,1]",0,8,8,8,1,1,0,,,0,FALSE,,,,,,,,,,,,,,,,,,,,,,,,,,,,,,,
,613a563bf2e38ea679f50546,627c705cdc54bcc7f388c5db,2022-05-11_21h27.12.769,classification_task,2021.2.3,Win32,60.12867537,627c6715c52fd12f31907bd0,,,,,,,,,,,,,,,,,,,,,,,l,1,5.8279,"[""0.066"",""0.218"",""0.380"",""0.746""]","[1,1,0,1]",0,9,9,9,1,1,0,,,0,FALSE,,,,,,,,,,,,,,,,,,,,,,,,,,,,,,,
,613a563bf2e38ea679f50546,627c705cdc54bcc7f388c5db,2022-05-11_21h27.12.769,classification_task,2021.2.3,Win32,60.12867537,627c6715c52fd12f31907bd0,,,,,,,,,,,,,,,,,,,,,,,l,0,5.1644,"[""0.323"",""0.554"",""0.393"",""0.881""]","[1,1,0,1]",0,10,10,10,1,0,1,,,0,FALSE,,,,,,,,,,,,,,,,,,,,,,,,,,,,,,,
,613a563bf2e38ea679f50546,627c705cdc54bcc7f388c5db,2022-05-11_21h27.12.769,classification_task,2021.2.3,Win32,60.12867537,627c6715c52fd12f31907bd0,,,,,,,,,,,,,,,,,,,,,,,,0,,"[""0.182"",""0.441"",""0.919"",""0.026""]","[1,1,1,0]",0,11,11,11,1,0,0,,,0,FALSE,,,,,,,,,,,,,,,,,,,,,,,,,,,,,,,
,613a563bf2e38ea679f50546,627c705cdc54bcc7f388c5db,2022-05-11_21h27.12.769,classification_task,2021.2.3,Win32,60.12867537,627c6715c52fd12f31907bd0,,,,,,,,,,,,,,,,,,,,,,,a,1,8.1577,"[""0.182"",""0.441"",""0.597"",""0.967""]","[1,1,0,1]",0,12,12,12,1,0,0,,,0,FALSE,,,,,,,,,,,,,,,,,,,,,,,,,,,,,,,
,613a563bf2e38ea679f50546,627c705cdc54bcc7f388c5db,2022-05-11_21h27.12.769,classification_task,2021.2.3,Win32,60.12867537,627c6715c52fd12f31907bd0,,,,,,,,,,,,,,,,,,,,,,,l,1,8.0869,"[""0.118"",""0.267"",""0.592"",""0.674""]","[1,1,0,1]",0,13,13,13,1,1,1,,,0,FALSE,,,,,,,,,,,,,,,,,,,,,,,,,,,,,,,
,613a563bf2e38ea679f50546,627c705cdc54bcc7f388c5db,2022-05-11_21h27.12.769,classification_task,2021.2.3,Win32,60.12867537,627c6715c52fd12f31907bd0,,,,,,,,,,,,,,,,,,,,,,,,0,,"[""0.380"",""0.554"",""0.835"",""0.881""]","[0,1,1,1]",0,14,14,14,1,0,1,,,0,FALSE,,,,,,,,,,,,,,,,,,,,,,,,,,,,,,,
,613a563bf2e38ea679f50546,627c705cdc54bcc7f388c5db,2022-05-11_21h27.12.769,classification_task,2021.2.3,Win32,60.12867537,627c6715c52fd12f31907bd0,,,,,,,,,,,,,,,,,,,,,,,a,1,4.7628,"[""0.323"",""0.554"",""0.835"",""0.592""]","[1,1,1,0]",0,15,15,15,1,0,1,,,0,FALSE,,,,,,,,,,,,,,,,,,,,,,,,,,,,,,,
,613a563bf2e38ea679f50546,627c705cdc54bcc7f388c5db,2022-05-11_21h27.12.769,classification_task,2021.2.3,Win32,60.12867537,627c6715c52fd12f31907bd0,,,,,,,,,,,,,,,,,,,,,,,a,1,7.4079,"[""0.182"",""0.589"",""0.919"",""0.967""]","[1,0,1,1]",0,16,16,16,1,0,0,,,0,FALSE,,,,,,,,,,,,,,,,,,,,,,,,,,,,,,,
,613a563bf2e38ea679f50546,627c705cdc54bcc7f388c5db,2022-05-11_21h27.12.769,classification_task,2021.2.3,Win32,60.12867537,627c6715c52fd12f31907bd0,,,,,,,,,,,,,,,,,,,,,,,a,1,5.6895,"[""0.323"",""0.554"",""0.835"",""0.597""]","[1,1,1,0]",0,17,17,17,1,0,1,,,0,FALSE,,,,,,,,,,,,,,,,,,,,,,,,,,,,,,,
,613a563bf2e38ea679f50546,627c705cdc54bcc7f388c5db,2022-05-11_21h27.12.769,classification_task,2021.2.3,Win32,60.12867537,627c6715c52fd12f31907bd0,,,,,,,,,,,,,,,,,,,,,,,l,1,3.7127,"[""0.066"",""0.218"",""0.403"",""0.746""]","[1,1,0,1]",0,18,18,18,1,1,0,,,0,FALSE,,,,,,,,,,,,,,,,,,,,,,,,,,,,,,,
,613a563bf2e38ea679f50546,627c705cdc54bcc7f388c5db,2022-05-11_21h27.12.769,classification_task,2021.2.3,Win32,60.12867537,627c6715c52fd12f31907bd0,,,,,,,,,,,,,,,,,,,,,,,a,1,4.4331,"[""0.323"",""0.554"",""0.405"",""0.881""]","[1,1,0,1]",0,19,19,19,1,0,1,,,0,FALSE,,,,,,,,,,,,,,,,,,,,,,,,,,,,,,,
,613a563bf2e38ea679f50546,627c705cdc54bcc7f388c5db,2022-05-11_21h27.12.769,classification_task,2021.2.3,Win32,60.12867537,627c6715c52fd12f31907bd0,,,,,,,,,,,,,,,,,,,,,,,l,1,4.3581,"[""0.066"",""0.218"",""0.639"",""0.589""]","[1,1,1,0]",0,20,20,20,1,1,0,,,0,FALSE,,,,,,,,,,,,,,,,,,,,,,,,,,,,,,,
,613a563bf2e38ea679f50546,627c705cdc54bcc7f388c5db,2022-05-11_21h27.12.769,classification_task,2021.2.3,Win32,60.12867537,627c6715c52fd12f31907bd0,,,,,,,,,,,,,,,,,,,,,,,l,1,7.2693,"[""0.118"",""0.267"",""0.026"",""0.674""]","[1,1,0,1]",0,21,21,21,1,1,1,,,0,FALSE,,,,,,,,,,,,,,,,,,,,,,,,,,,,,,,
,613a563bf2e38ea679f50546,627c705cdc54bcc7f388c5db,2022-05-11_21h27.12.769,classification_task,2021.2.3,Win32,60.12867537,627c6715c52fd12f31907bd0,,,,,,,,,,,,,,,,,,,,,,,l,1,6.9623,"[""0.118"",""0.592"",""0.511"",""0.674""]","[1,0,1,1]",0,22,22,22,1,1,1,,,0,FALSE,,,,,,,,,,,,,,,,,,,,,,,,,,,,,,,
,613a563bf2e38ea679f50546,627c705cdc54bcc7f388c5db,2022-05-11_21h27.12.769,classification_task,2021.2.3,Win32,60.12867537,627c6715c52fd12f31907bd0,,,,,,,,,,,,,,,,,,,,,,,a,1,5.6808,"[""0.182"",""0.441"",""0.385"",""0.967""]","[1,1,0,1]",0,23,23,23,1,0,0,,,0,FALSE,,,,,,,,,,,,,,,,,,,,,,,,,,,,,,,
,613a563bf2e38ea679f50546,627c705cdc54bcc7f388c5db,2022-05-11_21h27.12.769,classification_task,2021.2.3,Win32,60.12867537,627c6715c52fd12f31907bd0,,,,,,,,,,,,,,,,,,,,,,,l,1,5.8652,"[""0.393"",""0.218"",""0.639"",""0.746""]","[0,1,1,1]",0,24,24,24,1,1,0,,,0,FALSE,,,,,,,,,,,,,,,,,,,,,,,,,,,,,,,
,613a563bf2e38ea679f50546,627c705cdc54bcc7f388c5db,2022-05-11_21h27.12.769,classification_task,2021.2.3,Win32,60.12867537,627c6715c52fd12f31907bd0,,,,,,,,,,,,,,,,,,,,,,,a,1,4.7179,"[""0.026"",""0.441"",""0.919"",""0.967""]","[0,1,1,1]",0,25,25,25,1,0,0,,,0,FALSE,,,,,,,,,,,,,,,,,,,,,,,,,,,,,,,
,613a563bf2e38ea679f50546,627c705cdc54bcc7f388c5db,2022-05-11_21h27.12.769,classification_task,2021.2.3,Win32,60.12867537,627c6715c52fd12f31907bd0,,,,,,,,,,,,,,,,,,,,,,,l,1,6.2653,"[""0.026"",""0.267"",""0.511"",""0.674""]","[0,1,1,1]",0,26,26,26,1,1,1,,,0,FALSE,,,,,,,,,,,,,,,,,,,,,,,,,,,,,,,
,613a563bf2e38ea679f50546,627c705cdc54bcc7f388c5db,2022-05-11_21h27.12.769,classification_task,2021.2.3,Win32,60.12867537,627c6715c52fd12f31907bd0,,,,,,,,,,,,,,,,,,,,,,,a,0,3.1721,"[""0.118"",""0.267"",""0.511"",""0.380""]","[1,1,1,0]",0,27,27,27,1,1,1,,,0,FALSE,,,,,,,,,,,,,,,,,,,,,,,,,,,,,,,
,613a563bf2e38ea679f50546,627c705cdc54bcc7f388c5db,2022-05-11_21h27.12.769,classification_task,2021.2.3,Win32,60.12867537,627c6715c52fd12f31907bd0,,,,,,,,,,,,,,,,,,,,,,,a,1,8.828,"[""0.380"",""0.554"",""0.835"",""0.881""]","[0,1,1,1]",0,28,28,28,1,0,1,,,0,FALSE,,,,,,,,,,,,,,,,,,,,,,,,,,,,,,,
,613a563bf2e38ea679f50546,627c705cdc54bcc7f388c5db,2022-05-11_21h27.12.769,classification_task,2021.2.3,Win32,60.12867537,627c6715c52fd12f31907bd0,,,,,,,,,,,,,,,,,,,,,,,a,1,5.8301,"[""0.182"",""0.441"",""0.919"",""0.026""]","[1,1,1,0]",0,29,29,29,1,0,0,,,0,FALSE,,,,,,,,,,,,,,,,,,,,,,,,,,,,,,,
,613a563bf2e38ea679f50546,627c705cdc54bcc7f388c5db,2022-05-11_21h27.12.769,classification_task,2021.2.3,Win32,60.12867537,627c6715c52fd12f31907bd0,,,,,,,,,,,,,,,,,,,,,,,l,1,7.7901,"[""0.066"",""0.361"",""0.639"",""0.746""]","[1,0,1,1]",0,30,30,30,1,1,0,,,0,FALSE,,,,,,,,,,,,,,,,,,,,,,,,,,,,,,,
,613a563bf2e38ea679f50546,627c705cdc54bcc7f388c5db,2022-05-11_21h27.12.769,classification_task,2021.2.3,Win32,60.12867537,627c6715c52fd12f31907bd0,,,,,,,,,,,,,,,,,,,,,,,,0,,"[""0.323"",""0.597"",""0.835"",""0.881""]","[1,0,1,1]",0,31,31,31,1,0,1,,,0,FALSE,,,,,,,,,,,,,,,,,,,,,,,,,,,,,,,
,613a563bf2e38ea679f50546,627c705cdc54bcc7f388c5db,2022-05-11_21h27.12.769,classification_task,2021.2.3,Win32,60.12867537,627c6715c52fd12f31907bd0,,,,,,,,,,,,,,,,,,,,,,,,0,,"[""0.066"",""0.218"",""0.597"",""0.746""]","[1,1,0,1]",0,32,32,32,1,1,0,,,0,FALSE,,,,,,,,,,,,,,,,,,,,,,,,,,,,,,,
,613a563bf2e38ea679f50546,627c705cdc54bcc7f388c5db,2022-05-11_21h27.12.769,classification_task,2021.2.3,Win32,60.12867537,627c6715c52fd12f31907bd0,,,,,,,,,,,,,,,,,,,,,,,l,1,5.5068,"[""0.066"",""0.218"",""0.639"",""0.589""]","[1,1,1,0]",0,33,33,33,1,1,0,,,0,FALSE,,,,,,,,,,,,,,,,,,,,,,,,,,,,,,,
,613a563bf2e38ea679f50546,627c705cdc54bcc7f388c5db,2022-05-11_21h27.12.769,classification_task,2021.2.3,Win32,60.12867537,627c6715c52fd12f31907bd0,,,,,,,,,,,,,,,,,,,,,,,a,0,0.995,"[""0.118"",""0.361"",""0.511"",""0.674""]","[1,0,1,1]",0,34,34,34,1,1,1,,,0,FALSE,,,,,,,,,,,,,,,,,,,,,,,,,,,,,,,
,613a563bf2e38ea679f50546,627c705cdc54bcc7f388c5db,2022-05-11_21h27.12.769,classification_task,2021.2.3,Win32,60.12867537,627c6715c52fd12f31907bd0,,,,,,,,,,,,,,,,,,,,,,,l,1,4.418,"[""0.066"",""0.026"",""0.639"",""0.746""]","[1,0,1,1]",0,35,35,35,1,1,0,,,0,FALSE,,,,,,,,,,,,,,,,,,,,,,,,,,,,,,,
,613a563bf2e38ea679f50546,627c705cdc54bcc7f388c5db,2022-05-11_21h27.12.769,classification_task,2021.2.3,Win32,60.12867537,627c6715c52fd12f31907bd0,,,,,,,,,,,,,,,,,,,,,,,a,0,1.2948,"[""0.385"",""0.267"",""0.511"",""0.674""]","[0,1,1,1]",0,36,36,36,1,1,1,,,0,FALSE,,,,,,,,,,,,,,,,,,,,,,,,,,,,,,,
,613a563bf2e38ea679f50546,627c705cdc54bcc7f388c5db,2022-05-11_21h27.12.769,classification_task,2021.2.3,Win32,60.12867537,627c6715c52fd12f31907bd0,,,,,,,,,,,,,,,,,,,,,,,l,0,3.1528,"[""0.786"",""0.554"",""0.835"",""0.881""]","[0,1,1,1]",0,37,37,37,1,0,1,,,0,FALSE,,,,,,,,,,,,,,,,,,,,,,,,,,,,,,,
,613a563bf2e38ea679f50546,627c705cdc54bcc7f388c5db,2022-05-11_21h27.12.769,classification_task,2021.2.3,Win32,60.12867537,627c6715c52fd12f31907bd0,,,,,,,,,,,,,,,,,,,,,,,a,1,3.633,"[""0.323"",""0.554"",""0.788"",""0.881""]","[1,1,0,1]",0,38,38,38,1,0,1,,,0,FALSE,,,,,,,,,,,,,,,,,,,,,,,,,,,,,,,
,613a563bf2e38ea679f50546,627c705cdc54bcc7f388c5db,2022-05-11_21h27.12.769,classification_task,2021.2.3,Win32,60.12867537,627c6715c52fd12f31907bd0,,,,,,,,,,,,,,,,,,,,,,,l,1,4.9217,"[""0.597"",""0.218"",""0.639"",""0.746""]","[0,1,1,1]",0,39,39,39,1,1,0,,,0,FALSE,,,,,,,,,,,,,,,,,,,,,,,,,,,,,,,
,613a563bf2e38ea679f50546,627c705cdc54bcc7f388c5db,2022-05-11_21h27.12.769,classification_task,2021.2.3,Win32,60.12867537,627c6715c52fd12f31907bd0,,,,,,,,,,,,,,,,,,,,,,,a,1,1.0196,"[""0.182"",""0.441"",""0.788"",""0.967""]","[1,1,0,1]",0,40,40,40,1,0,0,,,0,FALSE,,,,,,,,,,,,,,,,,,,,,,,,,,,,,,,
,613a563bf2e38ea679f50546,627c705cdc54bcc7f388c5db,2022-05-11_21h27.12.769,classification_task,2021.2.3,Win32,60.12867537,627c6715c52fd12f31907bd0,,,,,,,,,,,,,,,,,,,,,,,a,0,1.3237,"[""0.118"",""0.267"",""0.511"",""0.388""]","[1,1,1,0]",0,41,41,41,1,1,1,,,0,FALSE,,,,,,,,,,,,,,,,,,,,,,,,,,,,,,,
,613a563bf2e38ea679f50546,627c705cdc54bcc7f388c5db,2022-05-11_21h27.12.769,classification_task,2021.2.3,Win32,60.12867537,627c6715c52fd12f31907bd0,,,,,,,,,,,,,,,,,,,,,,,a,1,0.0814,"[""0.405"",""0.441"",""0.919"",""0.967""]","[0,1,1,1]",0,42,42,42,1,0,0,,,0,FALSE,,,,,,,,,,,,,,,,,,,,,,,,,,,,,,,
,613a563bf2e38ea679f50546,627c705cdc54bcc7f388c5db,2022-05-11_21h27.12.769,classification_task,2021.2.3,Win32,60.12867537,627c6715c52fd12f31907bd0,,,,,,,,,,,,,,,,,,,,,,,a,1,2.2386,"[""0.323"",""0.554"",""0.835"",""0.786""]","[1,1,1,0]",0,43,43,43,1,0,1,,,0,FALSE,,,,,,,,,,,,,,,,,,,,,,,,,,,,,,,
,613a563bf2e38ea679f50546,627c705cdc54bcc7f388c5db,2022-05-11_21h27.12.769,classification_task,2021.2.3,Win32,60.12867537,627c6715c52fd12f31907bd0,,,,,,,,,,,,,,,,,,,,,,,l,1,1.7726,"[""0.118"",""0.267"",""0.589"",""0.674""]","[1,1,0,1]",0,44,44,44,1,1,1,,,0,FALSE,,,,,,,,,,,,,,,,,,,,,,,,,,,,,,,
,613a563bf2e38ea679f50546,627c705cdc54bcc7f388c5db,2022-05-11_21h27.12.769,classification_task,2021.2.3,Win32,60.12867537,627c6715c52fd12f31907bd0,,,,,,,,,,,,,,,,,,,,,,,l,0,4.5759,"[""0.182"",""0.592"",""0.919"",""0.967""]","[1,0,1,1]",0,45,45,45,1,0,0,,,0,FALSE,,,,,,,,,,,,,,,,,,,,,,,,,,,,,,,
,613a563bf2e38ea679f50546,627c705cdc54bcc7f388c5db,2022-05-11_21h27.12.769,classification_task,2021.2.3,Win32,60.12867537,627c6715c52fd12f31907bd0,,,,,,,,,,,,,,,,,,,,,,,l,0,2.0394,"[""0.323"",""0.026"",""0.835"",""0.881""]","[1,0,1,1]",0,46,46,46,1,0,1,,,0,FALSE,,,,,,,,,,,,,,,,,,,,,,,,,,,,,,,
,613a563bf2e38ea679f50546,627c705cdc54bcc7f388c5db,2022-05-11_21h27.12.769,classification_task,2021.2.3,Win32,60.12867537,627c6715c52fd12f31907bd0,,,,,,,,,,,,,,,,,,,,,,,l,0,1.6251,"[""0.182"",""0.441"",""0.919"",""0.388""]","[1,1,1,0]",0,47,47,47,1,0,0,,,0,FALSE,,,,,,,,,,,,,,,,,,,,,,,,,,,,,,,
,613a563bf2e38ea679f50546,627c705cdc54bcc7f388c5db,2022-05-11_21h27.12.769,classification_task,2021.2.3,Win32,60.12867537,627c6715c52fd12f31907bd0,,,,,,,,,,,,,,,,,,,,,,,a,1,0.9572,"[""0.026"",""0.554"",""0.835"",""0.881""]","[0,1,1,1]",0,48,48,48,1,0,1,,,0,FALSE,,,,,,,,,,,,,,,,,,,,,,,,,,,,,,,
,613a563bf2e38ea679f50546,627c705cdc54bcc7f388c5db,2022-05-11_21h27.12.769,classification_task,2021.2.3,Win32,60.12867537,627c6715c52fd12f31907bd0,,,,,,,,,,,,,,,,,,,,,,,a,1,1.2091,"[""0.182"",""0.441"",""0.393"",""0.967""]","[1,1,0,1]",0,49,49,49,1,0,0,,,0,FALSE,,,,,,,,,,,,,,,,,,,,,,,,,,,,,,,
,613a563bf2e38ea679f50546,627c705cdc54bcc7f388c5db,2022-05-11_21h27.12.769,classification_task,2021.2.3,Win32,60.12867537,627c6715c52fd12f31907bd0,,,,,,,,,,,,,,,,,,,,,,,a,1,1.2413,"[""0.182"",""0.441"",""0.919"",""0.388""]","[1,1,1,0]",0,50,50,50,1,0,0,,,0,FALSE,,,,,,,,,,,,,,,,,,,,,,,,,,,,,,,
,613a563bf2e38ea679f50546,627c705cdc54bcc7f388c5db,2022-05-11_21h27.12.769,classification_task,2021.2.3,Win32,60.12867537,627c6715c52fd12f31907bd0,,,,,,,,,,,,,,,,,,,,,,,a,0,1.212,"[""0.066"",""0.218"",""0.639"",""0.385""]","[1,1,1,0]",0,51,51,51,1,1,0,,,0,FALSE,,,,,,,,,,,,,,,,,,,,,,,,,,,,,,,
,613a563bf2e38ea679f50546,627c705cdc54bcc7f388c5db,2022-05-11_21h27.12.769,classification_task,2021.2.3,Win32,60.12867537,627c6715c52fd12f31907bd0,,,,,,,,,,,,,,,,,,,,,,,a,0,6.0306,"[""0.385"",""0.267"",""0.511"",""0.674""]","[0,1,1,1]",0,52,52,52,1,1,1,,,0,FALSE,,,,,,,,,,,,,,,,,,,,,,,,,,,,,,,
,613a563bf2e38ea679f50546,627c705cdc54bcc7f388c5db,2022-05-11_21h27.12.769,classification_task,2021.2.3,Win32,60.12867537,627c6715c52fd12f31907bd0,,,,,,,,,,,,,,,,,,,,,,,a,1,1.0603,"[""0.323"",""0.554"",""0.361"",""0.881""]","[1,1,0,1]",0,53,53,53,1,0,1,,,0,FALSE,,,,,,,,,,,,,,,,,,,,,,,,,,,,,,,
,613a563bf2e38ea679f50546,627c705cdc54bcc7f388c5db,2022-05-11_21h27.12.769,classification_task,2021.2.3,Win32,60.12867537,627c6715c52fd12f31907bd0,,,,,,,,,,,,,,,,,,,,,,,l,1,2.1419,"[""0.026"",""0.218"",""0.639"",""0.746""]","[0,1,1,1]",0,54,54,54,1,1,0,,,0,FALSE,,,,,,,,,,,,,,,,,,,,,,,,,,,,,,,
,613a563bf2e38ea679f50546,627c705cdc54bcc7f388c5db,2022-05-11_21h27.12.769,classification_task,2021.2.3,Win32,60.12867537,627c6715c52fd12f31907bd0,,,,,,,,,,,,,,,,,,,,,,,a,1,2.7706,"[""0.182"",""0.788"",""0.919"",""0.967""]","[1,0,1,1]",0,55,55,55,1,0,0,,,0,FALSE,,,,,,,,,,,,,,,,,,,,,,,,,,,,,,,
,613a563bf2e38ea679f50546,627c705cdc54bcc7f388c5db,2022-05-11_21h27.12.769,classification_task,2021.2.3,Win32,60.12867537,627c6715c52fd12f31907bd0,,,,,,,,,,,,,,,,,,,,,,,a,0,1.941,"[""0.066"",""0.218"",""0.393"",""0.746""]","[1,1,0,1]",0,56,56,56,1,1,0,,,0,FALSE,,,,,,,,,,,,,,,,,,,,,,,,,,,,,,,
,613a563bf2e38ea679f50546,627c705cdc54bcc7f388c5db,2022-05-11_21h27.12.769,classification_task,2021.2.3,Win32,60.12867537,627c6715c52fd12f31907bd0,,,,,,,,,,,,,,,,,,,,,,,l,1,3.1383,"[""0.118"",""0.597"",""0.511"",""0.674""]","[1,0,1,1]",0,57,57,57,1,1,1,,,0,FALSE,,,,,,,,,,,,,,,,,,,,,,,,,,,,,,,
,613a563bf2e38ea679f50546,627c705cdc54bcc7f388c5db,2022-05-11_21h27.12.769,classification_task,2021.2.3,Win32,60.12867537,627c6715c52fd12f31907bd0,,,,,,,,,,,,,,,,,,,,,,,l,0,6.8809,"[""0.323"",""0.388"",""0.835"",""0.881""]","[1,0,1,1]",0,58,58,58,1,0,1,,,0,FALSE,,,,,,,,,,,,,,,,,,,,,,,,,,,,,,,
,613a563bf2e38ea679f50546,627c705cdc54bcc7f388c5db,2022-05-11_21h27.12.769,classification_task,2021.2.3,Win32,60.12867537,627c6715c52fd12f31907bd0,,,,,,,,,,,,,,,,,,,,,,,a,1,5.1109,"[""0.026"",""0.441"",""0.919"",""0.967""]","[0,1,1,1]",0,59,59,59,1,0,0,,,0,FALSE,,,,,,,,,,,,,,,,,,,,,,,,,,,,,,,
,613a563bf2e38ea679f50546,627c705cdc54bcc7f388c5db,2022-05-11_21h27.12.769,classification_task,2021.2.3,Win32,60.12867537,627c6715c52fd12f31907bd0,,,,,,,,,,,,,,,,,,,,,,,a,0,2.3072,"[""0.066"",""0.026"",""0.639"",""0.746""]","[1,0,1,1]",0,60,60,60,1,1,0,,,0,FALSE,,,,,,,,,,,,,,,,,,,,,,,,,,,,,,,
,613a563bf2e38ea679f50546,627c705cdc54bcc7f388c5db,2022-05-11_21h27.12.769,classification_task,2021.2.3,Win32,60.12867537,627c6715c52fd12f31907bd0,,,,,,,,,,,,,,,,,,,,,,,a,1,5.2399,"[""0.323"",""0.554"",""0.835"",""0.388""]","[1,1,1,0]",0,61,61,61,1,0,1,,,0,FALSE,,,,,,,,,,,,,,,,,,,,,,,,,,,,,,,
,613a563bf2e38ea679f50546,627c705cdc54bcc7f388c5db,2022-05-11_21h27.12.769,classification_task,2021.2.3,Win32,60.12867537,627c6715c52fd12f31907bd0,,,,,,,,,,,,,,,,,,,,,,,l,1,0.8474,"[""0.118"",""0.267"",""0.511"",""0.388""]","[1,1,1,0]",0,62,62,62,1,1,1,,,0,FALSE,,,,,,,,,,,,,,,,,,,,,,,,,,,,,,,
,613a563bf2e38ea679f50546,627c705cdc54bcc7f388c5db,2022-05-11_21h27.12.769,classification_task,2021.2.3,Win32,60.12867537,627c6715c52fd12f31907bd0,,,,,,,,,,,,,,,,,,,,,,,a,0,0.4171,"[""0.118"",""0.267"",""0.592"",""0.674""]","[1,1,0,1]",0,63,63,63,1,1,1,,,0,FALSE,,,,,,,,,,,,,,,,,,,,,,,,,,,,,,,
,613a563bf2e38ea679f50546,627c705cdc54bcc7f388c5db,2022-05-11_21h27.12.769,classification_task,2021.2.3,Win32,60.12867537,627c6715c52fd12f31907bd0,,,,,,,,,,,,,,,,,,,,,,,,,,,,,,,,,,,,,,,0, ,,0,5.422545188,636.3967,0,0,0,0,1,2,1,,,,,,,,,,,,,,,,,,
,613a563bf2e38ea679f50546,627c705cdc54bcc7f388c5db,2022-05-11_21h27.12.769,classification_task,2021.2.3,Win32,60.12867537,627c6715c52fd12f31907bd0,,,,,,,,,,,,,,,,,,,,,,,,,,,,,,,,,,,,,,,1,  ,,0,1.797227869,638.337,0,0,0,0,1,2,1,,,,,,,,,,,,,,,,,,
,613a563bf2e38ea679f50546,627c705cdc54bcc7f388c5db,2022-05-11_21h27.12.769,classification_task,2021.2.3,Win32,60.12867537,627c6715c52fd12f31907bd0,,,,,,,,,,,,,,,,,,,,,,,,,,,,,,,,,,,,,,,2,  ,,0,7.578140683,639.7648,0,0,0,0,1,2,1,,,,,,,,,,,,,,,,,,
,613a563bf2e38ea679f50546,627c705cdc54bcc7f388c5db,2022-05-11_21h27.12.769,classification_task,2021.2.3,Win32,60.12867537,627c6715c52fd12f31907bd0,,,,,,,,,,,,,,,,,,,,,,,,,,,,,,,,,,,,,,,,,,,,,0,0,0,0,1,,1,,,,,,,,,,,,,,,,,,
,613a563bf2e38ea679f50546,627c705cdc54bcc7f388c5db,2022-05-11_21h27.12.769,classification_task,2021.2.3,Win32,60.12867537,627c6715c52fd12f31907bd0,,,,,,,,,,,,,,,,,,,,,space,9.6143,a,1,2.6826,"[""0.182"",""0.441"",""0.026"",""0.967""]","[1,1,0,1]",0,0,0,0,1,0,0,,,0,FALSE,,,,,,,,,,,,,,,,,,,,,,,,,,,,,,,
,613a563bf2e38ea679f50546,627c705cdc54bcc7f388c5db,2022-05-11_21h27.12.769,classification_task,2021.2.3,Win32,60.12867537,627c6715c52fd12f31907bd0,,,,,,,,,,,,,,,,,,,,,,,l,1,1.9472,"[""0.380"",""0.267"",""0.511"",""0.674""]","[0,1,1,1]",0,1,1,1,1,1,1,,,0,FALSE,,,,,,,,,,,,,,,,,,,,,,,,,,,,,,,
,613a563bf2e38ea679f50546,627c705cdc54bcc7f388c5db,2022-05-11_21h27.12.769,classification_task,2021.2.3,Win32,60.12867537,627c6715c52fd12f31907bd0,,,,,,,,,,,,,,,,,,,,,,,a,0,0.9113,"[""0.118"",""0.026"",""0.511"",""0.674""]","[1,0,1,1]",0,2,2,2,1,1,1,,,0,FALSE,,,,,,,,,,,,,,,,,,,,,,,,,,,,,,,
,613a563bf2e38ea679f50546,627c705cdc54bcc7f388c5db,2022-05-11_21h27.12.769,classification_task,2021.2.3,Win32,60.12867537,627c6715c52fd12f31907bd0,,,,,,,,,,,,,,,,,,,,,,,a,0,0.577,"[""0.066"",""0.218"",""0.026"",""0.746""]","[1,1,0,1]",0,3,3,3,1,1,0,,,0,FALSE,,,,,,,,,,,,,,,,,,,,,,,,,,,,,,,
,613a563bf2e38ea679f50546,627c705cdc54bcc7f388c5db,2022-05-11_21h27.12.769,classification_task,2021.2.3,Win32,60.12867537,627c6715c52fd12f31907bd0,,,,,,,,,,,,,,,,,,,,,,,l,0,0.6485,"[""0.323"",""0.554"",""0.835"",""0.361""]","[1,1,1,0]",0,4,4,4,1,0,1,,,0,FALSE,,,,,,,,,,,,,,,,,,,,,,,,,,,,,,,
,613a563bf2e38ea679f50546,627c705cdc54bcc7f388c5db,2022-05-11_21h27.12.769,classification_task,2021.2.3,Win32,60.12867537,627c6715c52fd12f31907bd0,,,,,,,,,,,,,,,,,,,,,,,l,0,1.7251,"[""0.323"",""0.554"",""0.393"",""0.881""]","[1,1,0,1]",0,5,5,5,1,0,1,,,0,FALSE,,,,,,,,,,,,,,,,,,,,,,,,,,,,,,,
,613a563bf2e38ea679f50546,627c705cdc54bcc7f388c5db,2022-05-11_21h27.12.769,classification_task,2021.2.3,Win32,60.12867537,627c6715c52fd12f31907bd0,,,,,,,,,,,,,,,,,,,,,,,l,0,1.7877,"[""0.182"",""0.403"",""0.919"",""0.967""]","[1,0,1,1]",0,6,6,6,1,0,0,,,0,FALSE,,,,,,,,,,,,,,,,,,,,,,,,,,,,,,,
,613a563bf2e38ea679f50546,627c705cdc54bcc7f388c5db,2022-05-11_21h27.12.769,classification_task,2021.2.3,Win32,60.12867537,627c6715c52fd12f31907bd0,,,,,,,,,,,,,,,,,,,,,,,a,0,2.0137,"[""0.118"",""0.267"",""0.511"",""0.403""]","[1,1,1,0]",0,7,7,7,1,1,1,,,0,FALSE,,,,,,,,,,,,,,,,,,,,,,,,,,,,,,,
,613a563bf2e38ea679f50546,627c705cdc54bcc7f388c5db,2022-05-11_21h27.12.769,classification_task,2021.2.3,Win32,60.12867537,627c6715c52fd12f31907bd0,,,,,,,,,,,,,,,,,,,,,,,l,1,0.3133,"[""0.066"",""0.218"",""0.639"",""0.361""]","[1,1,1,0]",0,8,8,8,1,1,0,,,0,FALSE,,,,,,,,,,,,,,,,,,,,,,,,,,,,,,,
,613a563bf2e38ea679f50546,627c705cdc54bcc7f388c5db,2022-05-11_21h27.12.769,classification_task,2021.2.3,Win32,60.12867537,627c6715c52fd12f31907bd0,,,,,,,,,,,,,,,,,,,,,,,l,0,2.811,"[""0.026"",""0.554"",""0.835"",""0.881""]","[0,1,1,1]",0,9,9,9,1,0,1,,,0,FALSE,,,,,,,,,,,,,,,,,,,,,,,,,,,,,,,
,613a563bf2e38ea679f50546,627c705cdc54bcc7f388c5db,2022-05-11_21h27.12.769,classification_task,2021.2.3,Win32,60.12867537,627c6715c52fd12f31907bd0,,,,,,,,,,,,,,,,,,,,,,,a,1,1.6228,"[""0.323"",""0.388"",""0.835"",""0.881""]","[1,0,1,1]",0,10,10,10,1,0,1,,,0,FALSE,,,,,,,,,,,,,,,,,,,,,,,,,,,,,,,
,613a563bf2e38ea679f50546,627c705cdc54bcc7f388c5db,2022-05-11_21h27.12.769,classification_task,2021.2.3,Win32,60.12867537,627c6715c52fd12f31907bd0,,,,,,,,,,,,,,,,,,,,,,,l,1,2.4111,"[""0.405"",""0.218"",""0.639"",""0.746""]","[0,1,1,1]",0,11,11,11,1,1,0,,,0,FALSE,,,,,,,,,,,,,,,,,,,,,,,,,,,,,,,
,613a563bf2e38ea679f50546,627c705cdc54bcc7f388c5db,2022-05-11_21h27.12.769,classification_task,2021.2.3,Win32,60.12867537,627c6715c52fd12f31907bd0,,,,,,,,,,,,,,,,,,,,,,,a,1,1.454,"[""0.182"",""0.441"",""0.919"",""0.788""]","[1,1,1,0]",0,12,12,12,1,0,0,,,0,FALSE,,,,,,,,,,,,,,,,,,,,,,,,,,,,,,,
,613a563bf2e38ea679f50546,627c705cdc54bcc7f388c5db,2022-05-11_21h27.12.769,classification_task,2021.2.3,Win32,60.12867537,627c6715c52fd12f31907bd0,,,,,,,,,,,,,,,,,,,,,,,l,1,3.0996,"[""0.118"",""0.267"",""0.026"",""0.674""]","[1,1,0,1]",0,13,13,13,1,1,1,,,0,FALSE,,,,,,,,,,,,,,,,,,,,,,,,,,,,,,,
,613a563bf2e38ea679f50546,627c705cdc54bcc7f388c5db,2022-05-11_21h27.12.769,classification_task,2021.2.3,Win32,60.12867537,627c6715c52fd12f31907bd0,,,,,,,,,,,,,,,,,,,,,,,l,0,2.1356,"[""0.026"",""0.441"",""0.919"",""0.967""]","[0,1,1,1]",0,14,14,14,1,0,0,,,0,FALSE,,,,,,,,,,,,,,,,,,,,,,,,,,,,,,,
,613a563bf2e38ea679f50546,627c705cdc54bcc7f388c5db,2022-05-11_21h27.12.769,classification_task,2021.2.3,Win32,60.12867537,627c6715c52fd12f31907bd0,,,,,,,,,,,,,,,,,,,,,,,a,0,3.8655,"[""0.066"",""0.385"",""0.639"",""0.746""]","[1,0,1,1]",0,15,15,15,1,1,0,,,0,FALSE,,,,,,,,,,,,,,,,,,,,,,,,,,,,,,,
,613a563bf2e38ea679f50546,627c705cdc54bcc7f388c5db,2022-05-11_21h27.12.769,classification_task,2021.2.3,Win32,60.12867537,627c6715c52fd12f31907bd0,,,,,,,,,,,,,,,,,,,,,,,l,0,6.0567,"[""0.592"",""0.554"",""0.835"",""0.881""]","[0,1,1,1]",0,16,16,16,1,0,1,,,0,FALSE,,,,,,,,,,,,,,,,,,,,,,,,,,,,,,,
,613a563bf2e38ea679f50546,627c705cdc54bcc7f388c5db,2022-05-11_21h27.12.769,classification_task,2021.2.3,Win32,60.12867537,627c6715c52fd12f31907bd0,,,,,,,,,,,,,,,,,,,,,,,l,1,6.429,"[""0.361"",""0.267"",""0.511"",""0.674""]","[0,1,1,1]",0,17,17,17,1,1,1,,,0,FALSE,,,,,,,,,,,,,,,,,,,,,,,,,,,,,,,
,613a563bf2e38ea679f50546,627c705cdc54bcc7f388c5db,2022-05-11_21h27.12.769,classification_task,2021.2.3,Win32,60.12867537,627c6715c52fd12f31907bd0,,,,,,,,,,,,,,,,,,,,,,,l,1,1.7501,"[""0.066"",""0.218"",""0.026"",""0.746""]","[1,1,0,1]",0,18,18,18,1,1,0,,,0,FALSE,,,,,,,,,,,,,,,,,,,,,,,,,,,,,,,
,613a563bf2e38ea679f50546,627c705cdc54bcc7f388c5db,2022-05-11_21h27.12.769,classification_task,2021.2.3,Win32,60.12867537,627c6715c52fd12f31907bd0,,,,,,,,,,,,,,,,,,,,,,,l,1,1.6239,"[""0.066"",""0.393"",""0.639"",""0.746""]","[1,0,1,1]",0,19,19,19,1,1,0,,,0,FALSE,,,,,,,,,,,,,,,,,,,,,,,,,,,,,,,
,613a563bf2e38ea679f50546,627c705cdc54bcc7f388c5db,2022-05-11_21h27.12.769,classification_task,2021.2.3,Win32,60.12867537,627c6715c52fd12f31907bd0,,,,,,,,,,,,,,,,,,,,,,,l,1,2.127,"[""0.026"",""0.218"",""0.639"",""0.746""]","[0,1,1,1]",0,20,20,20,1,1,0,,,0,FALSE,,,,,,,,,,,,,,,,,,,,,,,,,,,,,,,
,613a563bf2e38ea679f50546,627c705cdc54bcc7f388c5db,2022-05-11_21h27.12.769,classification_task,2021.2.3,Win32,60.12867537,627c6715c52fd12f31907bd0,,,,,,,,,,,,,,,,,,,,,,,a,0,5.9965,"[""0.118"",""0.597"",""0.511"",""0.674""]","[1,0,1,1]",0,21,21,21,1,1,1,,,0,FALSE,,,,,,,,,,,,,,,,,,,,,,,,,,,,,,,
,613a563bf2e38ea679f50546,627c705cdc54bcc7f388c5db,2022-05-11_21h27.12.769,classification_task,2021.2.3,Win32,60.12867537,627c6715c52fd12f31907bd0,,,,,,,,,,,,,,,,,,,,,,,a,1,0.9447,"[""0.323"",""0.554"",""0.835"",""0.026""]","[1,1,1,0]",0,22,22,22,1,0,1,,,0,FALSE,,,,,,,,,,,,,,,,,,,,,,,,,,,,,,,
,613a563bf2e38ea679f50546,627c705cdc54bcc7f388c5db,2022-05-11_21h27.12.769,classification_task,2021.2.3,Win32,60.12867537,627c6715c52fd12f31907bd0,,,,,,,,,,,,,,,,,,,,,,,l,1,2.7544,"[""0.118"",""0.267"",""0.511"",""0.403""]","[1,1,1,0]",0,23,23,23,1,1,1,,,0,FALSE,,,,,,,,,,,,,,,,,,,,,,,,,,,,,,,
,613a563bf2e38ea679f50546,627c705cdc54bcc7f388c5db,2022-05-11_21h27.12.769,classification_task,2021.2.3,Win32,60.12867537,627c6715c52fd12f31907bd0,,,,,,,,,,,,,,,,,,,,,,,a,1,0.975,"[""0.182"",""0.441"",""0.597"",""0.967""]","[1,1,0,1]",0,24,24,24,1,0,0,,,0,FALSE,,,,,,,,,,,,,,,,,,,,,,,,,,,,,,,
,613a563bf2e38ea679f50546,627c705cdc54bcc7f388c5db,2022-05-11_21h27.12.769,classification_task,2021.2.3,Win32,60.12867537,627c6715c52fd12f31907bd0,,,,,,,,,,,,,,,,,,,,,,,l,0,4.0273,"[""0.323"",""0.385"",""0.835"",""0.881""]","[1,0,1,1]",0,25,25,25,1,0,1,,,0,FALSE,,,,,,,,,,,,,,,,,,,,,,,,,,,,,,,
,613a563bf2e38ea679f50546,627c705cdc54bcc7f388c5db,2022-05-11_21h27.12.769,classification_task,2021.2.3,Win32,60.12867537,627c6715c52fd12f31907bd0,,,,,,,,,,,,,,,,,,,,,,,a,1,0.5902,"[""0.182"",""0.441"",""0.919"",""0.026""]","[1,1,1,0]",0,26,26,26,1,0,0,,,0,FALSE,,,,,,,,,,,,,,,,,,,,,,,,,,,,,,,
,613a563bf2e38ea679f50546,627c705cdc54bcc7f388c5db,2022-05-11_21h27.12.769,classification_task,2021.2.3,Win32,60.12867537,627c6715c52fd12f31907bd0,,,,,,,,,,,,,,,,,,,,,,,a,1,1.1014,"[""0.323"",""0.554"",""0.361"",""0.881""]","[1,1,0,1]",0,27,27,27,1,0,1,,,0,FALSE,,,,,,,,,,,,,,,,,,,,,,,,,,,,,,,
,613a563bf2e38ea679f50546,627c705cdc54bcc7f388c5db,2022-05-11_21h27.12.769,classification_task,2021.2.3,Win32,60.12867537,627c6715c52fd12f31907bd0,,,,,,,,,,,,,,,,,,,,,,,a,1,1.2143,"[""0.182"",""0.597"",""0.919"",""0.967""]","[1,0,1,1]",0,28,28,28,1,0,0,,,0,FALSE,,,,,,,,,,,,,,,,,,,,,,,,,,,,,,,
,613a563bf2e38ea679f50546,627c705cdc54bcc7f388c5db,2022-05-11_21h27.12.769,classification_task,2021.2.3,Win32,60.12867537,627c6715c52fd12f31907bd0,,,,,,,,,,,,,,,,,,,,,,,l,1,0.5069,"[""0.066"",""0.218"",""0.639"",""0.026""]","[1,1,1,0]",0,29,29,29,1,1,0,,,0,FALSE,,,,,,,,,,,,,,,,,,,,,,,,,,,,,,,
,613a563bf2e38ea679f50546,627c705cdc54bcc7f388c5db,2022-05-11_21h27.12.769,classification_task,2021.2.3,Win32,60.12867537,627c6715c52fd12f31907bd0,,,,,,,,,,,,,,,,,,,,,,,l,0,0.6061,"[""0.385"",""0.441"",""0.919"",""0.967""]","[0,1,1,1]",0,30,30,30,1,0,0,,,0,FALSE,,,,,,,,,,,,,,,,,,,,,,,,,,,,,,,
,613a563bf2e38ea679f50546,627c705cdc54bcc7f388c5db,2022-05-11_21h27.12.769,classification_task,2021.2.3,Win32,60.12867537,627c6715c52fd12f31907bd0,,,,,,,,,,,,,,,,,,,,,,,a,0,1.2315,"[""0.118"",""0.267"",""0.026"",""0.674""]","[1,1,0,1]",0,31,31,31,1,1,1,,,0,FALSE,,,,,,,,,,,,,,,,,,,,,,,,,,,,,,,
,613a563bf2e38ea679f50546,627c705cdc54bcc7f388c5db,2022-05-11_21h27.12.769,classification_task,2021.2.3,Win32,60.12867537,627c6715c52fd12f31907bd0,,,,,,,,,,,,,,,,,,,,,,,l,1,1.4973,"[""0.388"",""0.218"",""0.639"",""0.746""]","[0,1,1,1]",0,32,32,32,1,1,0,,,0,FALSE,,,,,,,,,,,,,,,,,,,,,,,,,,,,,,,
,613a563bf2e38ea679f50546,627c705cdc54bcc7f388c5db,2022-05-11_21h27.12.769,classification_task,2021.2.3,Win32,60.12867537,627c6715c52fd12f31907bd0,,,,,,,,,,,,,,,,,,,,,,,a,0,0.6837,"[""0.118"",""0.026"",""0.511"",""0.674""]","[1,0,1,1]",0,33,33,33,1,1,1,,,0,FALSE,,,,,,,,,,,,,,,,,,,,,,,,,,,,,,,
,613a563bf2e38ea679f50546,627c705cdc54bcc7f388c5db,2022-05-11_21h27.12.769,classification_task,2021.2.3,Win32,60.12867537,627c6715c52fd12f31907bd0,,,,,,,,,,,,,,,,,,,,,,,a,1,0.8331,"[""0.597"",""0.441"",""0.919"",""0.967""]","[0,1,1,1]",0,34,34,34,1,0,0,,,0,FALSE,,,,,,,,,,,,,,,,,,,,,,,,,,,,,,,
,613a563bf2e38ea679f50546,627c705cdc54bcc7f388c5db,2022-05-11_21h27.12.769,classification_task,2021.2.3,Win32,60.12867537,627c6715c52fd12f31907bd0,,,,,,,,,,,,,,,,,,,,,,,l,1,0.691,"[""0.066"",""0.218"",""0.405"",""0.746""]","[1,1,0,1]",0,35,35,35,1,1,0,,,0,FALSE,,,,,,,,,,,,,,,,,,,,,,,,,,,,,,,
,613a563bf2e38ea679f50546,627c705cdc54bcc7f388c5db,2022-05-11_21h27.12.769,classification_task,2021.2.3,Win32,60.12867537,627c6715c52fd12f31907bd0,,,,,,,,,,,,,,,,,,,,,,,a,1,0.6828,"[""0.597"",""0.554"",""0.835"",""0.881""]","[0,1,1,1]",0,36,36,36,1,0,1,,,0,FALSE,,,,,,,,,,,,,,,,,,,,,,,,,,,,,,,
,613a563bf2e38ea679f50546,627c705cdc54bcc7f388c5db,2022-05-11_21h27.12.769,classification_task,2021.2.3,Win32,60.12867537,627c6715c52fd12f31907bd0,,,,,,,,,,,,,,,,,,,,,,,a,1,0.8334,"[""0.182"",""0.589"",""0.919"",""0.967""]","[1,0,1,1]",0,37,37,37,1,0,0,,,0,FALSE,,,,,,,,,,,,,,,,,,,,,,,,,,,,,,,
,613a563bf2e38ea679f50546,627c705cdc54bcc7f388c5db,2022-05-11_21h27.12.769,classification_task,2021.2.3,Win32,60.12867537,627c6715c52fd12f31907bd0,,,,,,,,,,,,,,,,,,,,,,,l,1,0.6578,"[""0.066"",""0.786"",""0.639"",""0.746""]","[1,0,1,1]",0,38,38,38,1,1,0,,,0,FALSE,,,,,,,,,,,,,,,,,,,,,,,,,,,,,,,
,613a563bf2e38ea679f50546,627c705cdc54bcc7f388c5db,2022-05-11_21h27.12.769,classification_task,2021.2.3,Win32,60.12867537,627c6715c52fd12f31907bd0,,,,,,,,,,,,,,,,,,,,,,,l,0,0.7334,"[""0.323"",""0.554"",""0.835"",""0.592""]","[1,1,1,0]",0,39,39,39,1,0,1,,,0,FALSE,,,,,,,,,,,,,,,,,,,,,,,,,,,,,,,
,613a563bf2e38ea679f50546,627c705cdc54bcc7f388c5db,2022-05-11_21h27.12.769,classification_task,2021.2.3,Win32,60.12867537,627c6715c52fd12f31907bd0,,,,,,,,,,,,,,,,,,,,,,,l,0,0.6228,"[""0.323"",""0.554"",""0.361"",""0.881""]","[1,1,0,1]",0,40,40,40,1,0,1,,,0,FALSE,,,,,,,,,,,,,,,,,,,,,,,,,,,,,,,
,613a563bf2e38ea679f50546,627c705cdc54bcc7f388c5db,2022-05-11_21h27.12.769,classification_task,2021.2.3,Win32,60.12867537,627c6715c52fd12f31907bd0,,,,,,,,,,,,,,,,,,,,,,,a,0,0.4096,"[""0.118"",""0.267"",""0.403"",""0.674""]","[1,1,0,1]",0,41,41,41,1,1,1,,,0,FALSE,,,,,,,,,,,,,,,,,,,,,,,,,,,,,,,
,613a563bf2e38ea679f50546,627c705cdc54bcc7f388c5db,2022-05-11_21h27.12.769,classification_task,2021.2.3,Win32,60.12867537,627c6715c52fd12f31907bd0,,,,,,,,,,,,,,,,,,,,,,,a,1,0.837,"[""0.182"",""0.441"",""0.026"",""0.967""]","[1,1,0,1]",0,42,42,42,1,0,0,,,0,FALSE,,,,,,,,,,,,,,,,,,,,,,,,,,,,,,,
,613a563bf2e38ea679f50546,627c705cdc54bcc7f388c5db,2022-05-11_21h27.12.769,classification_task,2021.2.3,Win32,60.12867537,627c6715c52fd12f31907bd0,,,,,,,,,,,,,,,,,,,,,,,a,1,0.5105,"[""0.182"",""0.441"",""0.919"",""0.597""]","[1,1,1,0]",0,43,43,43,1,0,0,,,0,FALSE,,,,,,,,,,,,,,,,,,,,,,,,,,,,,,,
,613a563bf2e38ea679f50546,627c705cdc54bcc7f388c5db,2022-05-11_21h27.12.769,classification_task,2021.2.3,Win32,60.12867537,627c6715c52fd12f31907bd0,,,,,,,,,,,,,,,,,,,,,,,l,1,0.5231,"[""0.066"",""0.218"",""0.639"",""0.597""]","[1,1,1,0]",0,44,44,44,1,1,0,,,0,FALSE,,,,,,,,,,,,,,,,,,,,,,,,,,,,,,,
,613a563bf2e38ea679f50546,627c705cdc54bcc7f388c5db,2022-05-11_21h27.12.769,classification_task,2021.2.3,Win32,60.12867537,627c6715c52fd12f31907bd0,,,,,,,,,,,,,,,,,,,,,,,a,0,0.4545,"[""0.118"",""0.267"",""0.511"",""0.788""]","[1,1,1,0]",0,45,45,45,1,1,1,,,0,FALSE,,,,,,,,,,,,,,,,,,,,,,,,,,,,,,,
,613a563bf2e38ea679f50546,627c705cdc54bcc7f388c5db,2022-05-11_21h27.12.769,classification_task,2021.2.3,Win32,60.12867537,627c6715c52fd12f31907bd0,,,,,,,,,,,,,,,,,,,,,,,l,0,0.7572,"[""0.323"",""0.589"",""0.835"",""0.881""]","[1,0,1,1]",0,46,46,46,1,0,1,,,0,FALSE,,,,,,,,,,,,,,,,,,,,,,,,,,,,,,,
,613a563bf2e38ea679f50546,627c705cdc54bcc7f388c5db,2022-05-11_21h27.12.769,classification_task,2021.2.3,Win32,60.12867537,627c6715c52fd12f31907bd0,,,,,,,,,,,,,,,,,,,,,,,l,1,0.3606,"[""0.788"",""0.267"",""0.511"",""0.674""]","[0,1,1,1]",0,47,47,47,1,1,1,,,0,FALSE,,,,,,,,,,,,,,,,,,,,,,,,,,,,,,,
,613a563bf2e38ea679f50546,627c705cdc54bcc7f388c5db,2022-05-11_21h27.12.769,classification_task,2021.2.3,Win32,60.12867537,627c6715c52fd12f31907bd0,,,,,,,,,,,,,,,,,,,,,,,a,0,0.8,"[""0.066"",""0.218"",""0.639"",""0.403""]","[1,1,1,0]",0,48,48,48,1,1,0,,,0,FALSE,,,,,,,,,,,,,,,,,,,,,,,,,,,,,,,
,613a563bf2e38ea679f50546,627c705cdc54bcc7f388c5db,2022-05-11_21h27.12.769,classification_task,2021.2.3,Win32,60.12867537,627c6715c52fd12f31907bd0,,,,,,,,,,,,,,,,,,,,,,,l,1,0.3369,"[""0.118"",""0.267"",""0.026"",""0.674""]","[1,1,0,1]",0,49,49,49,1,1,1,,,0,FALSE,,,,,,,,,,,,,,,,,,,,,,,,,,,,,,,
,613a563bf2e38ea679f50546,627c705cdc54bcc7f388c5db,2022-05-11_21h27.12.769,classification_task,2021.2.3,Win32,60.12867537,627c6715c52fd12f31907bd0,,,,,,,,,,,,,,,,,,,,,,,a,1,0.36,"[""0.323"",""0.554"",""0.026"",""0.881""]","[1,1,0,1]",0,50,50,50,1,0,1,,,0,FALSE,,,,,,,,,,,,,,,,,,,,,,,,,,,,,,,
,613a563bf2e38ea679f50546,627c705cdc54bcc7f388c5db,2022-05-11_21h27.12.769,classification_task,2021.2.3,Win32,60.12867537,627c6715c52fd12f31907bd0,,,,,,,,,,,,,,,,,,,,,,,a,0,0.4595,"[""0.118"",""0.388"",""0.511"",""0.674""]","[1,0,1,1]",0,51,51,51,1,1,1,,,0,FALSE,,,,,,,,,,,,,,,,,,,,,,,,,,,,,,,
,613a563bf2e38ea679f50546,627c705cdc54bcc7f388c5db,2022-05-11_21h27.12.769,classification_task,2021.2.3,Win32,60.12867537,627c6715c52fd12f31907bd0,,,,,,,,,,,,,,,,,,,,,,,l,0,0.2571,"[""0.323"",""0.592"",""0.835"",""0.881""]","[1,0,1,1]",0,52,52,52,1,0,1,,,0,FALSE,,,,,,,,,,,,,,,,,,,,,,,,,,,,,,,
,613a563bf2e38ea679f50546,627c705cdc54bcc7f388c5db,2022-05-11_21h27.12.769,classification_task,2021.2.3,Win32,60.12867537,627c6715c52fd12f31907bd0,,,,,,,,,,,,,,,,,,,,,,,a,1,0.253,"[""0.182"",""0.026"",""0.919"",""0.967""]","[1,0,1,1]",0,53,53,53,1,0,0,,,0,FALSE,,,,,,,,,,,,,,,,,,,,,,,,,,,,,,,
,613a563bf2e38ea679f50546,627c705cdc54bcc7f388c5db,2022-05-11_21h27.12.769,classification_task,2021.2.3,Win32,60.12867537,627c6715c52fd12f31907bd0,,,,,,,,,,,,,,,,,,,,,,,a,1,0.3914,"[""0.026"",""0.441"",""0.919"",""0.967""]","[0,1,1,1]",0,54,54,54,1,0,0,,,0,FALSE,,,,,,,,,,,,,,,,,,,,,,,,,,,,,,,
,613a563bf2e38ea679f50546,627c705cdc54bcc7f388c5db,2022-05-11_21h27.12.769,classification_task,2021.2.3,Win32,60.12867537,627c6715c52fd12f31907bd0,,,,,,,,,,,,,,,,,,,,,,,l,1,0.4359,"[""0.361"",""0.267"",""0.511"",""0.674""]","[0,1,1,1]",0,55,55,55,1,1,1,,,0,FALSE,,,,,,,,,,,,,,,,,,,,,,,,,,,,,,,
,613a563bf2e38ea679f50546,627c705cdc54bcc7f388c5db,2022-05-11_21h27.12.769,classification_task,2021.2.3,Win32,60.12867537,627c6715c52fd12f31907bd0,,,,,,,,,,,,,,,,,,,,,,,a,0,0.2688,"[""0.385"",""0.218"",""0.639"",""0.746""]","[0,1,1,1]",0,56,56,56,1,1,0,,,0,FALSE,,,,,,,,,,,,,,,,,,,,,,,,,,,,,,,
,613a563bf2e38ea679f50546,627c705cdc54bcc7f388c5db,2022-05-11_21h27.12.769,classification_task,2021.2.3,Win32,60.12867537,627c6715c52fd12f31907bd0,,,,,,,,,,,,,,,,,,,,,,,l,0,0.2414,"[""0.182"",""0.441"",""0.919"",""0.026""]","[1,1,1,0]",0,57,57,57,1,0,0,,,0,FALSE,,,,,,,,,,,,,,,,,,,,,,,,,,,,,,,
,613a563bf2e38ea679f50546,627c705cdc54bcc7f388c5db,2022-05-11_21h27.12.769,classification_task,2021.2.3,Win32,60.12867537,627c6715c52fd12f31907bd0,,,,,,,,,,,,,,,,,,,,,,,a,0,0.2072,"[""0.066"",""0.592"",""0.639"",""0.746""]","[1,0,1,1]",0,58,58,58,1,1,0,,,0,FALSE,,,,,,,,,,,,,,,,,,,,,,,,,,,,,,,
,613a563bf2e38ea679f50546,627c705cdc54bcc7f388c5db,2022-05-11_21h27.12.769,classification_task,2021.2.3,Win32,60.12867537,627c6715c52fd12f31907bd0,,,,,,,,,,,,,,,,,,,,,,,l,0,0.2359,"[""0.323"",""0.554"",""0.835"",""0.385""]","[1,1,1,0]",0,59,59,59,1,0,1,,,0,FALSE,,,,,,,,,,,,,,,,,,,,,,,,,,,,,,,
,613a563bf2e38ea679f50546,627c705cdc54bcc7f388c5db,2022-05-11_21h27.12.769,classification_task,2021.2.3,Win32,60.12867537,627c6715c52fd12f31907bd0,,,,,,,,,,,,,,,,,,,,,,,a,1,0.5913,"[""0.786"",""0.554"",""0.835"",""0.881""]","[0,1,1,1]",0,60,60,60,1,0,1,,,0,FALSE,,,,,,,,,,,,,,,,,,,,,,,,,,,,,,,
,613a563bf2e38ea679f50546,627c705cdc54bcc7f388c5db,2022-05-11_21h27.12.769,classification_task,2021.2.3,Win32,60.12867537,627c6715c52fd12f31907bd0,,,,,,,,,,,,,,,,,,,,,,,a,1,0.5499,"[""0.182"",""0.441"",""0.026"",""0.967""]","[1,1,0,1]",0,61,61,61,1,0,0,,,0,FALSE,,,,,,,,,,,,,,,,,,,,,,,,,,,,,,,
,613a563bf2e38ea679f50546,627c705cdc54bcc7f388c5db,2022-05-11_21h27.12.769,classification_task,2021.2.3,Win32,60.12867537,627c6715c52fd12f31907bd0,,,,,,,,,,,,,,,,,,,,,,,a,0,0.4941,"[""0.066"",""0.218"",""0.597"",""0.746""]","[1,1,0,1]",0,62,62,62,1,1,0,,,0,FALSE,,,,,,,,,,,,,,,,,,,,,,,,,,,,,,,
,613a563bf2e38ea679f50546,627c705cdc54bcc7f388c5db,2022-05-11_21h27.12.769,classification_task,2021.2.3,Win32,60.12867537,627c6715c52fd12f31907bd0,,,,,,,,,,,,,,,,,,,,,,,a,0,0.4532,"[""0.118"",""0.267"",""0.511"",""0.597""]","[1,1,1,0]",0,63,63,63,1,1,1,,,0,FALSE,,,,,,,,,,,,,,,,,,,,,,,,,,,,,,,
,613a563bf2e38ea679f50546,627c705cdc54bcc7f388c5db,2022-05-11_21h27.12.769,classification_task,2021.2.3,Win32,60.12867537,627c6715c52fd12f31907bd0,,,,,,,,,,,,,,,,,,,,,,,,,,,,,,,,,,,,,,,0, ,,0,6.818783816,164.6455,0,1,1,1,1,2,2,,,,,,,,,,,,,,,,,,
,613a563bf2e38ea679f50546,627c705cdc54bcc7f388c5db,2022-05-11_21h27.12.769,classification_task,2021.2.3,Win32,60.12867537,627c6715c52fd12f31907bd0,,,,,,,,,,,,,,,,,,,,,,,,,,,,,,,,,,,,,,,1,  ,,0,7.676122637,166.2024,0,1,1,1,1,2,2,,,,,,,,,,,,,,,,,,
,613a563bf2e38ea679f50546,627c705cdc54bcc7f388c5db,2022-05-11_21h27.12.769,classification_task,2021.2.3,Win32,60.12867537,627c6715c52fd12f31907bd0,,,,,,,,,,,,,,,,,,,,,,,,,,,,,,,,,,,,,,,2,  ,,0,7.676122637,168.0305,0,1,1,1,1,2,2,,,,,,,,,,,,,,,,,,
,613a563bf2e38ea679f50546,627c705cdc54bcc7f388c5db,2022-05-11_21h27.12.769,classification_task,2021.2.3,Win32,60.12867537,627c6715c52fd12f31907bd0,,,,,,,,,,,,,,,,,,,,,,,,,,,,,,,,,,,,,,,,,,,,,0,1,1,1,1,,2,,,,,,,,,,,,,,,,,,
,613a563bf2e38ea679f50546,627c705cdc54bcc7f388c5db,2022-05-11_21h27.12.769,classification_task,2021.2.3,Win32,60.12867537,627c6715c52fd12f31907bd0,,,,,,,,,,,,,,,,,,,,,space,4.8511,a,0,2.5538,"[""0.361"",""0.267"",""0.511"",""0.674""]","[0,1,1,1]",0,0,0,0,1,1,1,,,0,FALSE,,,,,,,,,,,,,,,,,,,,,,,,,,,,,,,
,613a563bf2e38ea679f50546,627c705cdc54bcc7f388c5db,2022-05-11_21h27.12.769,classification_task,2021.2.3,Win32,60.12867537,627c6715c52fd12f31907bd0,,,,,,,,,,,,,,,,,,,,,,,a,0,1.6606,"[""0.066"",""0.218"",""0.639"",""0.380""]","[1,1,1,0]",0,1,1,1,1,1,0,,,0,FALSE,,,,,,,,,,,,,,,,,,,,,,,,,,,,,,,
,613a563bf2e38ea679f50546,627c705cdc54bcc7f388c5db,2022-05-11_21h27.12.769,classification_task,2021.2.3,Win32,60.12867537,627c6715c52fd12f31907bd0,,,,,,,,,,,,,,,,,,,,,,,l,0,1.3094,"[""0.788"",""0.441"",""0.919"",""0.967""]","[0,1,1,1]",0,2,2,2,1,0,0,,,0,FALSE,,,,,,,,,,,,,,,,,,,,,,,,,,,,,,,
,613a563bf2e38ea679f50546,627c705cdc54bcc7f388c5db,2022-05-11_21h27.12.769,classification_task,2021.2.3,Win32,60.12867537,627c6715c52fd12f31907bd0,,,,,,,,,,,,,,,,,,,,,,,a,0,0.8082,"[""0.066"",""0.218"",""0.788"",""0.746""]","[1,1,0,1]",0,3,3,3,1,1,0,,,0,FALSE,,,,,,,,,,,,,,,,,,,,,,,,,,,,,,,
,613a563bf2e38ea679f50546,627c705cdc54bcc7f388c5db,2022-05-11_21h27.12.769,classification_task,2021.2.3,Win32,60.12867537,627c6715c52fd12f31907bd0,,,,,,,,,,,,,,,,,,,,,,,l,0,0.7099,"[""0.182"",""0.441"",""0.403"",""0.967""]","[1,1,0,1]",0,4,4,4,1,0,0,,,0,FALSE,,,,,,,,,,,,,,,,,,,,,,,,,,,,,,,
,613a563bf2e38ea679f50546,627c705cdc54bcc7f388c5db,2022-05-11_21h27.12.769,classification_task,2021.2.3,Win32,60.12867537,627c6715c52fd12f31907bd0,,,,,,,,,,,,,,,,,,,,,,,l,0,1.0247,"[""0.323"",""0.554"",""0.380"",""0.881""]","[1,1,0,1]",0,5,5,5,1,0,1,,,0,FALSE,,,,,,,,,,,,,,,,,,,,,,,,,,,,,,,
,613a563bf2e38ea679f50546,627c705cdc54bcc7f388c5db,2022-05-11_21h27.12.769,classification_task,2021.2.3,Win32,60.12867537,627c6715c52fd12f31907bd0,,,,,,,,,,,,,,,,,,,,,,,a,1,0.3784,"[""0.182"",""0.026"",""0.919"",""0.967""]","[1,0,1,1]",0,6,6,6,1,0,0,,,0,FALSE,,,,,,,,,,,,,,,,,,,,,,,,,,,,,,,
,613a563bf2e38ea679f50546,627c705cdc54bcc7f388c5db,2022-05-11_21h27.12.769,classification_task,2021.2.3,Win32,60.12867537,627c6715c52fd12f31907bd0,,,,,,,,,,,,,,,,,,,,,,,l,0,0.5731,"[""0.323"",""0.554"",""0.835"",""0.026""]","[1,1,1,0]",0,7,7,7,1,0,1,,,0,FALSE,,,,,,,,,,,,,,,,,,,,,,,,,,,,,,,
,613a563bf2e38ea679f50546,627c705cdc54bcc7f388c5db,2022-05-11_21h27.12.769,classification_task,2021.2.3,Win32,60.12867537,627c6715c52fd12f31907bd0,,,,,,,,,,,,,,,,,,,,,,,l,0,0.6281,"[""0.182"",""0.441"",""0.919"",""0.405""]","[1,1,1,0]",0,8,8,8,1,0,0,,,0,FALSE,,,,,,,,,,,,,,,,,,,,,,,,,,,,,,,
,613a563bf2e38ea679f50546,627c705cdc54bcc7f388c5db,2022-05-11_21h27.12.769,classification_task,2021.2.3,Win32,60.12867537,627c6715c52fd12f31907bd0,,,,,,,,,,,,,,,,,,,,,,,a,0,0.7623,"[""0.118"",""0.393"",""0.511"",""0.674""]","[1,0,1,1]",0,9,9,9,1,1,1,,,0,FALSE,,,,,,,,,,,,,,,,,,,,,,,,,,,,,,,
,613a563bf2e38ea679f50546,627c705cdc54bcc7f388c5db,2022-05-11_21h27.12.769,classification_task,2021.2.3,Win32,60.12867537,627c6715c52fd12f31907bd0,,,,,,,,,,,,,,,,,,,,,,,l,1,0.7621,"[""0.118"",""0.267"",""0.026"",""0.674""]","[1,1,0,1]",0,10,10,10,1,1,1,,,0,FALSE,,,,,,,,,,,,,,,,,,,,,,,,,,,,,,,
,613a563bf2e38ea679f50546,627c705cdc54bcc7f388c5db,2022-05-11_21h27.12.769,classification_task,2021.2.3,Win32,60.12867537,627c6715c52fd12f31907bd0,,,,,,,,,,,,,,,,,,,,,,,a,0,0.9157,"[""0.118"",""0.267"",""0.511"",""0.385""]","[1,1,1,0]",0,11,11,11,1,1,1,,,0,FALSE,,,,,,,,,,,,,,,,,,,,,,,,,,,,,,,
,613a563bf2e38ea679f50546,627c705cdc54bcc7f388c5db,2022-05-11_21h27.12.769,classification_task,2021.2.3,Win32,60.12867537,627c6715c52fd12f31907bd0,,,,,,,,,,,,,,,,,,,,,,,l,1,0.7474,"[""0.066"",""0.361"",""0.639"",""0.746""]","[1,0,1,1]",0,12,12,12,1,1,0,,,0,FALSE,,,,,,,,,,,,,,,,,,,,,,,,,,,,,,,
,613a563bf2e38ea679f50546,627c705cdc54bcc7f388c5db,2022-05-11_21h27.12.769,classification_task,2021.2.3,Win32,60.12867537,627c6715c52fd12f31907bd0,,,,,,,,,,,,,,,,,,,,,,,a,1,0.4,"[""0.361"",""0.554"",""0.835"",""0.881""]","[0,1,1,1]",0,13,13,13,1,0,1,,,0,FALSE,,,,,,,,,,,,,,,,,,,,,,,,,,,,,,,
,613a563bf2e38ea679f50546,627c705cdc54bcc7f388c5db,2022-05-11_21h27.12.769,classification_task,2021.2.3,Win32,60.12867537,627c6715c52fd12f31907bd0,,,,,,,,,,,,,,,,,,,,,,,a,0,0.6989,"[""0.403"",""0.218"",""0.639"",""0.746""]","[0,1,1,1]",0,14,14,14,1,1,0,,,0,FALSE,,,,,,,,,,,,,,,,,,,,,,,,,,,,,,,
,613a563bf2e38ea679f50546,627c705cdc54bcc7f388c5db,2022-05-11_21h27.12.769,classification_task,2021.2.3,Win32,60.12867537,627c6715c52fd12f31907bd0,,,,,,,,,,,,,,,,,,,,,,,l,0,0.8837,"[""0.323"",""0.788"",""0.835"",""0.881""]","[1,0,1,1]",0,15,15,15,1,0,1,,,0,FALSE,,,,,,,,,,,,,,,,,,,,,,,,,,,,,,,
,613a563bf2e38ea679f50546,627c705cdc54bcc7f388c5db,2022-05-11_21h27.12.769,classification_task,2021.2.3,Win32,60.12867537,627c6715c52fd12f31907bd0,,,,,,,,,,,,,,,,,,,,,,,l,0,1.2913,"[""0.323"",""0.554"",""0.835"",""0.388""]","[1,1,1,0]",0,16,16,16,1,0,1,,,0,FALSE,,,,,,,,,,,,,,,,,,,,,,,,,,,,,,,
,613a563bf2e38ea679f50546,627c705cdc54bcc7f388c5db,2022-05-11_21h27.12.769,classification_task,2021.2.3,Win32,60.12867537,627c6715c52fd12f31907bd0,,,,,,,,,,,,,,,,,,,,,,,l,0,0.7921,"[""0.182"",""0.592"",""0.919"",""0.967""]","[1,0,1,1]",0,17,17,17,1,0,0,,,0,FALSE,,,,,,,,,,,,,,,,,,,,,,,,,,,,,,,
,613a563bf2e38ea679f50546,627c705cdc54bcc7f388c5db,2022-05-11_21h27.12.769,classification_task,2021.2.3,Win32,60.12867537,627c6715c52fd12f31907bd0,,,,,,,,,,,,,,,,,,,,,,,l,1,0.9457,"[""0.066"",""0.218"",""0.639"",""0.026""]","[1,1,1,0]",0,18,18,18,1,1,0,,,0,FALSE,,,,,,,,,,,,,,,,,,,,,,,,,,,,,,,
,613a563bf2e38ea679f50546,627c705cdc54bcc7f388c5db,2022-05-11_21h27.12.769,classification_task,2021.2.3,Win32,60.12867537,627c6715c52fd12f31907bd0,,,,,,,,,,,,,,,,,,,,,,,a,1,0.3832,"[""0.182"",""0.441"",""0.597"",""0.967""]","[1,1,0,1]",0,19,19,19,1,0,0,,,0,FALSE,,,,,,,,,,,,,,,,,,,,,,,,,,,,,,,
,613a563bf2e38ea679f50546,627c705cdc54bcc7f388c5db,2022-05-11_21h27.12.769,classification_task,2021.2.3,Win32,60.12867537,627c6715c52fd12f31907bd0,,,,,,,,,,,,,,,,,,,,,,,a,0,0.9581,"[""0.066"",""0.597"",""0.639"",""0.746""]","[1,0,1,1]",0,20,20,20,1,1,0,,,0,FALSE,,,,,,,,,,,,,,,,,,,,,,,,,,,,,,,
,613a563bf2e38ea679f50546,627c705cdc54bcc7f388c5db,2022-05-11_21h27.12.769,classification_task,2021.2.3,Win32,60.12867537,627c6715c52fd12f31907bd0,,,,,,,,,,,,,,,,,,,,,,,l,0,0.5842,"[""0.323"",""0.554"",""0.388"",""0.881""]","[1,1,0,1]",0,21,21,21,1,0,1,,,0,FALSE,,,,,,,,,,,,,,,,,,,,,,,,,,,,,,,
,613a563bf2e38ea679f50546,627c705cdc54bcc7f388c5db,2022-05-11_21h27.12.769,classification_task,2021.2.3,Win32,60.12867537,627c6715c52fd12f31907bd0,,,,,,,,,,,,,,,,,,,,,,,l,0,0.5315,"[""0.182"",""0.441"",""0.919"",""0.026""]","[1,1,1,0]",0,22,22,22,1,0,0,,,0,FALSE,,,,,,,,,,,,,,,,,,,,,,,,,,,,,,,
,613a563bf2e38ea679f50546,627c705cdc54bcc7f388c5db,2022-05-11_21h27.12.769,classification_task,2021.2.3,Win32,60.12867537,627c6715c52fd12f31907bd0,,,,,,,,,,,,,,,,,,,,,,,a,0,0.3665,"[""0.118"",""0.267"",""0.026"",""0.674""]","[1,1,0,1]",0,23,23,23,1,1,1,,,0,FALSE,,,,,,,,,,,,,,,,,,,,,,,,,,,,,,,
,613a563bf2e38ea679f50546,627c705cdc54bcc7f388c5db,2022-05-11_21h27.12.769,classification_task,2021.2.3,Win32,60.12867537,627c6715c52fd12f31907bd0,,,,,,,,,,,,,,,,,,,,,,,l,0,0.31,"[""0.026"",""0.554"",""0.835"",""0.881""]","[0,1,1,1]",0,24,24,24,1,0,1,,,0,FALSE,,,,,,,,,,,,,,,,,,,,,,,,,,,,,,,
,613a563bf2e38ea679f50546,627c705cdc54bcc7f388c5db,2022-05-11_21h27.12.769,classification_task,2021.2.3,Win32,60.12867537,627c6715c52fd12f31907bd0,,,,,,,,,,,,,,,,,,,,,,,a,0,0.5957,"[""0.066"",""0.218"",""0.788"",""0.746""]","[1,1,0,1]",0,25,25,25,1,1,0,,,0,FALSE,,,,,,,,,,,,,,,,,,,,,,,,,,,,,,,
,613a563bf2e38ea679f50546,627c705cdc54bcc7f388c5db,2022-05-11_21h27.12.769,classification_task,2021.2.3,Win32,60.12867537,627c6715c52fd12f31907bd0,,,,,,,,,,,,,,,,,,,,,,,l,1,0.5774,"[""0.380"",""0.267"",""0.511"",""0.674""]","[0,1,1,1]",0,26,26,26,1,1,1,,,0,FALSE,,,,,,,,,,,,,,,,,,,,,,,,,,,,,,,
,613a563bf2e38ea679f50546,627c705cdc54bcc7f388c5db,2022-05-11_21h27.12.769,classification_task,2021.2.3,Win32,60.12867537,627c6715c52fd12f31907bd0,,,,,,,,,,,,,,,,,,,,,,,a,1,0.7634,"[""0.323"",""0.380"",""0.835"",""0.881""]","[1,0,1,1]",0,27,27,27,1,0,1,,,0,FALSE,,,,,,,,,,,,,,,,,,,,,,,,,,,,,,,
,613a563bf2e38ea679f50546,627c705cdc54bcc7f388c5db,2022-05-11_21h27.12.769,classification_task,2021.2.3,Win32,60.12867537,627c6715c52fd12f31907bd0,,,,,,,,,,,,,,,,,,,,,,,a,1,0.8496,"[""0.788"",""0.441"",""0.919"",""0.967""]","[0,1,1,1]",0,28,28,28,1,0,0,,,0,FALSE,,,,,,,,,,,,,,,,,,,,,,,,,,,,,,,
,613a563bf2e38ea679f50546,627c705cdc54bcc7f388c5db,2022-05-11_21h27.12.769,classification_task,2021.2.3,Win32,60.12867537,627c6715c52fd12f31907bd0,,,,,,,,,,,,,,,,,,,,,,,l,1,1.4754,"[""0.118"",""0.592"",""0.511"",""0.674""]","[1,0,1,1]",0,29,29,29,1,1,1,,,0,FALSE,,,,,,,,,,,,,,,,,,,,,,,,,,,,,,,
,613a563bf2e38ea679f50546,627c705cdc54bcc7f388c5db,2022-05-11_21h27.12.769,classification_task,2021.2.3,Win32,60.12867537,627c6715c52fd12f31907bd0,,,,,,,,,,,,,,,,,,,,,,,a,0,0.8435,"[""0.118"",""0.267"",""0.511"",""0.388""]","[1,1,1,0]",0,30,30,30,1,1,1,,,0,FALSE,,,,,,,,,,,,,,,,,,,,,,,,,,,,,,,
,613a563bf2e38ea679f50546,627c705cdc54bcc7f388c5db,2022-05-11_21h27.12.769,classification_task,2021.2.3,Win32,60.12867537,627c6715c52fd12f31907bd0,,,,,,,,,,,,,,,,,,,,,,,a,0,0.8449,"[""0.403"",""0.218"",""0.639"",""0.746""]","[0,1,1,1]",0,31,31,31,1,1,0,,,0,FALSE,,,,,,,,,,,,,,,,,,,,,,,,,,,,,,,
,613a563bf2e38ea679f50546,627c705cdc54bcc7f388c5db,2022-05-11_21h27.12.769,classification_task,2021.2.3,Win32,60.12867537,627c6715c52fd12f31907bd0,,,,,,,,,,,,,,,,,,,,,,,l,1,3.3022,"[""0.118"",""0.592"",""0.511"",""0.674""]","[1,0,1,1]",0,32,32,32,1,1,1,,,0,FALSE,,,,,,,,,,,,,,,,,,,,,,,,,,,,,,,
,613a563bf2e38ea679f50546,627c705cdc54bcc7f388c5db,2022-05-11_21h27.12.769,classification_task,2021.2.3,Win32,60.12867537,627c6715c52fd12f31907bd0,,,,,,,,,,,,,,,,,,,,,,,a,1,1.6547,"[""0.361"",""0.441"",""0.919"",""0.967""]","[0,1,1,1]",0,33,33,33,1,0,0,,,0,FALSE,,,,,,,,,,,,,,,,,,,,,,,,,,,,,,,
,613a563bf2e38ea679f50546,627c705cdc54bcc7f388c5db,2022-05-11_21h27.12.769,classification_task,2021.2.3,Win32,60.12867537,627c6715c52fd12f31907bd0,,,,,,,,,,,,,,,,,,,,,,,a,0,1.1104,"[""0.066"",""0.218"",""0.639"",""0.361""]","[1,1,1,0]",0,34,34,34,1,1,0,,,0,FALSE,,,,,,,,,,,,,,,,,,,,,,,,,,,,,,,
,613a563bf2e38ea679f50546,627c705cdc54bcc7f388c5db,2022-05-11_21h27.12.769,classification_task,2021.2.3,Win32,60.12867537,627c6715c52fd12f31907bd0,,,,,,,,,,,,,,,,,,,,,,,a,1,2.3744,"[""0.323"",""0.403"",""0.835"",""0.881""]","[1,0,1,1]",0,35,35,35,1,0,1,,,0,FALSE,,,,,,,,,,,,,,,,,,,,,,,,,,,,,,,
,613a563bf2e38ea679f50546,627c705cdc54bcc7f388c5db,2022-05-11_21h27.12.769,classification_task,2021.2.3,Win32,60.12867537,627c6715c52fd12f31907bd0,,,,,,,,,,,,,,,,,,,,,,,a,1,0.845,"[""0.182"",""0.441"",""0.919"",""0.393""]","[1,1,1,0]",0,36,36,36,1,0,0,,,0,FALSE,,,,,,,,,,,,,,,,,,,,,,,,,,,,,,,
,613a563bf2e38ea679f50546,627c705cdc54bcc7f388c5db,2022-05-11_21h27.12.769,classification_task,2021.2.3,Win32,60.12867537,627c6715c52fd12f31907bd0,,,,,,,,,,,,,,,,,,,,,,,l,1,0.4288,"[""0.786"",""0.218"",""0.639"",""0.746""]","[0,1,1,1]",0,37,37,37,1,1,0,,,0,FALSE,,,,,,,,,,,,,,,,,,,,,,,,,,,,,,,
,613a563bf2e38ea679f50546,627c705cdc54bcc7f388c5db,2022-05-11_21h27.12.769,classification_task,2021.2.3,Win32,60.12867537,627c6715c52fd12f31907bd0,,,,,,,,,,,,,,,,,,,,,,,a,1,2.4077,"[""0.182"",""0.589"",""0.919"",""0.967""]","[1,0,1,1]",0,38,38,38,1,0,0,,,0,FALSE,,,,,,,,,,,,,,,,,,,,,,,,,,,,,,,
,613a563bf2e38ea679f50546,627c705cdc54bcc7f388c5db,2022-05-11_21h27.12.769,classification_task,2021.2.3,Win32,60.12867537,627c6715c52fd12f31907bd0,,,,,,,,,,,,,,,,,,,,,,,a,0,0.7439,"[""0.118"",""0.267"",""0.511"",""0.597""]","[1,1,1,0]",0,39,39,39,1,1,1,,,0,FALSE,,,,,,,,,,,,,,,,,,,,,,,,,,,,,,,
,613a563bf2e38ea679f50546,627c705cdc54bcc7f388c5db,2022-05-11_21h27.12.769,classification_task,2021.2.3,Win32,60.12867537,627c6715c52fd12f31907bd0,,,,,,,,,,,,,,,,,,,,,,,l,0,1.0106,"[""0.405"",""0.554"",""0.835"",""0.881""]","[0,1,1,1]",0,40,40,40,1,0,1,,,0,FALSE,,,,,,,,,,,,,,,,,,,,,,,,,,,,,,,
,613a563bf2e38ea679f50546,627c705cdc54bcc7f388c5db,2022-05-11_21h27.12.769,classification_task,2021.2.3,Win32,60.12867537,627c6715c52fd12f31907bd0,,,,,,,,,,,,,,,,,,,,,,,a,0,0.7622,"[""0.118"",""0.267"",""0.380"",""0.674""]","[1,1,0,1]",0,41,41,41,1,1,1,,,0,FALSE,,,,,,,,,,,,,,,,,,,,,,,,,,,,,,,
,613a563bf2e38ea679f50546,627c705cdc54bcc7f388c5db,2022-05-11_21h27.12.769,classification_task,2021.2.3,Win32,60.12867537,627c6715c52fd12f31907bd0,,,,,,,,,,,,,,,,,,,,,,,a,1,0.9948,"[""0.323"",""0.554"",""0.597"",""0.881""]","[1,1,0,1]",0,42,42,42,1,0,1,,,0,FALSE,,,,,,,,,,,,,,,,,,,,,,,,,,,,,,,
,613a563bf2e38ea679f50546,627c705cdc54bcc7f388c5db,2022-05-11_21h27.12.769,classification_task,2021.2.3,Win32,60.12867537,627c6715c52fd12f31907bd0,,,,,,,,,,,,,,,,,,,,,,,a,0,1.2938,"[""0.589"",""0.267"",""0.511"",""0.674""]","[0,1,1,1]",0,43,43,43,1,1,1,,,0,FALSE,,,,,,,,,,,,,,,,,,,,,,,,,,,,,,,
,613a563bf2e38ea679f50546,627c705cdc54bcc7f388c5db,2022-05-11_21h27.12.769,classification_task,2021.2.3,Win32,60.12867537,627c6715c52fd12f31907bd0,,,,,,,,,,,,,,,,,,,,,,,a,0,1.012,"[""0.066"",""0.218"",""0.026"",""0.746""]","[1,1,0,1]",0,44,44,44,1,1,0,,,0,FALSE,,,,,,,,,,,,,,,,,,,,,,,,,,,,,,,
,613a563bf2e38ea679f50546,627c705cdc54bcc7f388c5db,2022-05-11_21h27.12.769,classification_task,2021.2.3,Win32,60.12867537,627c6715c52fd12f31907bd0,,,,,,,,,,,,,,,,,,,,,,,l,1,0.6946,"[""0.066"",""0.788"",""0.639"",""0.746""]","[1,0,1,1]",0,45,45,45,1,1,0,,,0,FALSE,,,,,,,,,,,,,,,,,,,,,,,,,,,,,,,
,613a563bf2e38ea679f50546,627c705cdc54bcc7f388c5db,2022-05-11_21h27.12.769,classification_task,2021.2.3,Win32,60.12867537,627c6715c52fd12f31907bd0,,,,,,,,,,,,,,,,,,,,,,,l,0,1.6228,"[""0.323"",""0.554"",""0.835"",""0.361""]","[1,1,1,0]",0,46,46,46,1,0,1,,,0,FALSE,,,,,,,,,,,,,,,,,,,,,,,,,,,,,,,
,613a563bf2e38ea679f50546,627c705cdc54bcc7f388c5db,2022-05-11_21h27.12.769,classification_task,2021.2.3,Win32,60.12867537,627c6715c52fd12f31907bd0,,,,,,,,,,,,,,,,,,,,,,,a,1,0.2751,"[""0.182"",""0.441"",""0.589"",""0.967""]","[1,1,0,1]",0,47,47,47,1,0,0,,,0,FALSE,,,,,,,,,,,,,,,,,,,,,,,,,,,,,,,
,613a563bf2e38ea679f50546,627c705cdc54bcc7f388c5db,2022-05-11_21h27.12.769,classification_task,2021.2.3,Win32,60.12867537,627c6715c52fd12f31907bd0,,,,,,,,,,,,,,,,,,,,,,,a,1,0.8776,"[""0.592"",""0.554"",""0.835"",""0.881""]","[0,1,1,1]",0,48,48,48,1,0,1,,,0,FALSE,,,,,,,,,,,,,,,,,,,,,,,,,,,,,,,
,613a563bf2e38ea679f50546,627c705cdc54bcc7f388c5db,2022-05-11_21h27.12.769,classification_task,2021.2.3,Win32,60.12867537,627c6715c52fd12f31907bd0,,,,,,,,,,,,,,,,,,,,,,,l,0,0.3116,"[""0.182"",""0.361"",""0.919"",""0.967""]","[1,0,1,1]",0,49,49,49,1,0,0,,,0,FALSE,,,,,,,,,,,,,,,,,,,,,,,,,,,,,,,
,613a563bf2e38ea679f50546,627c705cdc54bcc7f388c5db,2022-05-11_21h27.12.769,classification_task,2021.2.3,Win32,60.12867537,627c6715c52fd12f31907bd0,,,,,,,,,,,,,,,,,,,,,,,a,0,1.1593,"[""0.118"",""0.267"",""0.403"",""0.674""]","[1,1,0,1]",0,50,50,50,1,1,1,,,0,FALSE,,,,,,,,,,,,,,,,,,,,,,,,,,,,,,,
,613a563bf2e38ea679f50546,627c705cdc54bcc7f388c5db,2022-05-11_21h27.12.769,classification_task,2021.2.3,Win32,60.12867537,627c6715c52fd12f31907bd0,,,,,,,,,,,,,,,,,,,,,,,a,0,0.4957,"[""0.066"",""0.788"",""0.639"",""0.746""]","[1,0,1,1]",0,51,51,51,1,1,0,,,0,FALSE,,,,,,,,,,,,,,,,,,,,,,,,,,,,,,,
,613a563bf2e38ea679f50546,627c705cdc54bcc7f388c5db,2022-05-11_21h27.12.769,classification_task,2021.2.3,Win32,60.12867537,627c6715c52fd12f31907bd0,,,,,,,,,,,,,,,,,,,,,,,l,0,0.5946,"[""0.323"",""0.554"",""0.788"",""0.881""]","[1,1,0,1]",0,52,52,52,1,0,1,,,0,FALSE,,,,,,,,,,,,,,,,,,,,,,,,,,,,,,,
,613a563bf2e38ea679f50546,627c705cdc54bcc7f388c5db,2022-05-11_21h27.12.769,classification_task,2021.2.3,Win32,60.12867537,627c6715c52fd12f31907bd0,,,,,,,,,,,,,,,,,,,,,,,a,0,0.3787,"[""0.118"",""0.267"",""0.511"",""0.388""]","[1,1,1,0]",0,53,53,53,1,1,1,,,0,FALSE,,,,,,,,,,,,,,,,,,,,,,,,,,,,,,,
,613a563bf2e38ea679f50546,627c705cdc54bcc7f388c5db,2022-05-11_21h27.12.769,classification_task,2021.2.3,Win32,60.12867537,627c6715c52fd12f31907bd0,,,,,,,,,,,,,,,,,,,,,,,a,1,0.5094,"[""0.182"",""0.441"",""0.597"",""0.967""]","[1,1,0,1]",0,54,54,54,1,0,0,,,0,FALSE,,,,,,,,,,,,,,,,,,,,,,,,,,,,,,,
,613a563bf2e38ea679f50546,627c705cdc54bcc7f388c5db,2022-05-11_21h27.12.769,classification_task,2021.2.3,Win32,60.12867537,627c6715c52fd12f31907bd0,,,,,,,,,,,,,,,,,,,,,,,a,0,0.9574,"[""0.118"",""0.403"",""0.511"",""0.674""]","[1,0,1,1]",0,55,55,55,1,1,1,,,0,FALSE,,,,,,,,,,,,,,,,,,,,,,,,,,,,,,,
,613a563bf2e38ea679f50546,627c705cdc54bcc7f388c5db,2022-05-11_21h27.12.769,classification_task,2021.2.3,Win32,60.12867537,627c6715c52fd12f31907bd0,,,,,,,,,,,,,,,,,,,,,,,l,0,0.9737,"[""0.323"",""0.026"",""0.835"",""0.881""]","[1,0,1,1]",0,56,56,56,1,0,1,,,0,FALSE,,,,,,,,,,,,,,,,,,,,,,,,,,,,,,,
,613a563bf2e38ea679f50546,627c705cdc54bcc7f388c5db,2022-05-11_21h27.12.769,classification_task,2021.2.3,Win32,60.12867537,627c6715c52fd12f31907bd0,,,,,,,,,,,,,,,,,,,,,,,a,1,0.444,"[""0.597"",""0.441"",""0.919"",""0.967""]","[0,1,1,1]",0,57,57,57,1,0,0,,,0,FALSE,,,,,,,,,,,,,,,,,,,,,,,,,,,,,,,
,613a563bf2e38ea679f50546,627c705cdc54bcc7f388c5db,2022-05-11_21h27.12.769,classification_task,2021.2.3,Win32,60.12867537,627c6715c52fd12f31907bd0,,,,,,,,,,,,,,,,,,,,,,,a,1,0.4604,"[""0.323"",""0.554"",""0.835"",""0.788""]","[1,1,1,0]",0,58,58,58,1,0,1,,,0,FALSE,,,,,,,,,,,,,,,,,,,,,,,,,,,,,,,
,613a563bf2e38ea679f50546,627c705cdc54bcc7f388c5db,2022-05-11_21h27.12.769,classification_task,2021.2.3,Win32,60.12867537,627c6715c52fd12f31907bd0,,,,,,,,,,,,,,,,,,,,,,,a,0,0.8103,"[""0.066"",""0.218"",""0.361"",""0.746""]","[1,1,0,1]",0,59,59,59,1,1,0,,,0,FALSE,,,,,,,,,,,,,,,,,,,,,,,,,,,,,,,
,613a563bf2e38ea679f50546,627c705cdc54bcc7f388c5db,2022-05-11_21h27.12.769,classification_task,2021.2.3,Win32,60.12867537,627c6715c52fd12f31907bd0,,,,,,,,,,,,,,,,,,,,,,,l,1,0.5287,"[""0.385"",""0.218"",""0.639"",""0.746""]","[0,1,1,1]",0,60,60,60,1,1,0,,,0,FALSE,,,,,,,,,,,,,,,,,,,,,,,,,,,,,,,
,613a563bf2e38ea679f50546,627c705cdc54bcc7f388c5db,2022-05-11_21h27.12.769,classification_task,2021.2.3,Win32,60.12867537,627c6715c52fd12f31907bd0,,,,,,,,,,,,,,,,,,,,,,,a,1,1.874,"[""0.182"",""0.441"",""0.919"",""0.026""]","[1,1,1,0]",0,61,61,61,1,0,0,,,0,FALSE,,,,,,,,,,,,,,,,,,,,,,,,,,,,,,,
,613a563bf2e38ea679f50546,627c705cdc54bcc7f388c5db,2022-05-11_21h27.12.769,classification_task,2021.2.3,Win32,60.12867537,627c6715c52fd12f31907bd0,,,,,,,,,,,,,,,,,,,,,,,l,1,0.2958,"[""0.066"",""0.218"",""0.639"",""0.597""]","[1,1,1,0]",0,62,62,62,1,1,0,,,0,FALSE,,,,,,,,,,,,,,,,,,,,,,,,,,,,,,,
,613a563bf2e38ea679f50546,627c705cdc54bcc7f388c5db,2022-05-11_21h27.12.769,classification_task,2021.2.3,Win32,60.12867537,627c6715c52fd12f31907bd0,,,,,,,,,,,,,,,,,,,,,,,a,0,0.9428,"[""0.403"",""0.267"",""0.511"",""0.674""]","[0,1,1,1]",0,63,63,63,1,1,1,,,0,FALSE,,,,,,,,,,,,,,,,,,,,,,,,,,,,,,,
,613a563bf2e38ea679f50546,627c705cdc54bcc7f388c5db,2022-05-11_21h27.12.769,classification_task,2021.2.3,Win32,60.12867537,627c6715c52fd12f31907bd0,,,,,,,,,,,,,,,,,,,,,,,,,,,,,,,,,,,,,,,0, ,,0,4.93263729,132.3153,0,2,2,2,1,2,3,,,,,,,,,,,,,,,,,,
,613a563bf2e38ea679f50546,627c705cdc54bcc7f388c5db,2022-05-11_21h27.12.769,classification_task,2021.2.3,Win32,60.12867537,627c6715c52fd12f31907bd0,,,,,,,,,,,,,,,,,,,,,,,,,,,,,,,,,,,,,,,1,  ,,0,6.769791905,133.6745,0,2,2,2,1,2,3,,,,,,,,,,,,,,,,,,
,613a563bf2e38ea679f50546,627c705cdc54bcc7f388c5db,2022-05-11_21h27.12.769,classification_task,2021.2.3,Win32,60.12867537,627c6715c52fd12f31907bd0,,,,,,,,,,,,,,,,,,,,,,,,,,,,,,,,,,,,,,,2,  ,,0,6.230893966,134.9378,0,2,2,2,1,2,3,,,,,,,,,,,,,,,,,,
,613a563bf2e38ea679f50546,627c705cdc54bcc7f388c5db,2022-05-11_21h27.12.769,classification_task,2021.2.3,Win32,60.12867537,627c6715c52fd12f31907bd0,,,,,,,,,,,,,,,,,,,,,,,,,,,,,,,,,,,,,,,,,,,,,0,2,2,2,1,,3,,,,,,,,,,,,,,,,,,
,613a563bf2e38ea679f50546,627c705cdc54bcc7f388c5db,2022-05-11_21h27.12.769,classification_task,2021.2.3,Win32,60.12867537,627c6715c52fd12f31907bd0,,,,,,,,,,,,,,,,,,,,,,,,,,,,,,,,,,,,,,,,,,,,,,,,,,,,,I believe the aid is a competent performer,,0.7,0,4,955.9299,0,0,0,0,1,0,,,,,
,613a563bf2e38ea679f50546,627c705cdc54bcc7f388c5db,2022-05-11_21h27.12.769,classification_task,2021.2.3,Win32,60.12867537,627c6715c52fd12f31907bd0,,,,,,,,,,,,,,,,,,,,,,,,,,,,,,,,,,,,,,,,,,,,,,,,,,,,,I trust the aid,,0.7,0,3,959.549,0,0,0,0,1,0,,,,,
,613a563bf2e38ea679f50546,627c705cdc54bcc7f388c5db,2022-05-11_21h27.12.769,classification_task,2021.2.3,Win32,60.12867537,627c6715c52fd12f31907bd0,,,,,,,,,,,,,,,,,,,,,,,,,,,,,,,,,,,,,,,,,,,,,,,,,,,,,I have confidence in the advice given by the aid,,0.7,0,5,960.9754,0,0,0,0,1,0,,,,,
,613a563bf2e38ea679f50546,627c705cdc54bcc7f388c5db,2022-05-11_21h27.12.769,classification_task,2021.2.3,Win32,60.12867537,627c6715c52fd12f31907bd0,,,,,,,,,,,,,,,,,,,,,,,,,,,,,,,,,,,,,,,,,,,,,,,,,,,,,I can depend on the aid,,0.7,0,4,963.7205,0,0,0,0,1,0,,,,,
,613a563bf2e38ea679f50546,627c705cdc54bcc7f388c5db,2022-05-11_21h27.12.769,classification_task,2021.2.3,Win32,60.12867537,627c6715c52fd12f31907bd0,,,,,,,,,,,,,,,,,,,,,,,,,,,,,,,,,,,,,,,,,,,,,,,,,,,,,I can rely on the aid to behave in consistent ways,,0.7,0,5,970.6527,0,0,0,0,1,0,,,,,
,613a563bf2e38ea679f50546,627c705cdc54bcc7f388c5db,2022-05-11_21h27.12.769,classification_task,2021.2.3,Win32,60.12867537,627c6715c52fd12f31907bd0,,,,,,,,,,,,,,,,,,,,,,,,,,,,,,,,,,,,,,,,,,,,,,,,,,,,,I can rely on the aid to do its best every time I take its advice,,0.7,0,4,971.8448,0,0,0,0,1,0,,,,,
,613a563bf2e38ea679f50546,627c705cdc54bcc7f388c5db,2022-05-11_21h27.12.769,classification_task,2021.2.3,Win32,60.12867537,627c6715c52fd12f31907bd0,,,,,,,,,,,,,,,,,,,,,,,,,,,,,,,,,,,,,,,,,,,,,,,,,,,,,"On trials you completed with assistance from the aid, how frequently did you think the aid was correct?",,0.7,0,100,,0,0,0,0,1,0,,,,,
,613a563bf2e38ea679f50546,627c705cdc54bcc7f388c5db,2022-05-11_21h27.12.769,classification_task,2021.2.3,Win32,60.12867537,627c6715c52fd12f31907bd0,,,,,,,,,,,,,,,,,,,,,,,,,,,,,,,,,,,,,,,,,,,,,,,,,,,,,"On trials you completed without the aid, how frequently did you think you were correct?",,0.7,0,50,,0,0,0,0,1,0,,,,,
,613a563bf2e38ea679f50546,627c705cdc54bcc7f388c5db,2022-05-11_21h27.12.769,classification_task,2021.2.3,Win32,60.12867537,627c6715c52fd12f31907bd0,,,,,,,,,,,,,,,,,,,,,,,,,,,,,,,,,,,,,,,,,,,,,,,,,,,,,,,,,,,0,0,0,0,1,,,,,,
,613a563bf2e38ea679f50546,627c705cdc54bcc7f388c5db,2022-05-11_21h27.12.769,classification_task,2021.2.3,Win32,60.12867537,627c6715c52fd12f31907bd0,,,,,,,,,,,,,,,,,,,,,,,,,,,,,,,,,,,,,,,,,,,,,,,,,,,,,,,,,,,,,,,,,space,8.6821,991.5569,,
,613a563bf2e38ea679f50546,627c705cdc54bcc7f388c5db,2022-05-11_21h27.12.769,classification_task,2021.2.3,Win32,60.12867537,627c6715c52fd12f31907bd0,,,,,,,,,,,,,,,,,,,,,,,,,,,,,,,,,,,,,,,,,,,,,,,,,,,,,,,,,,,,,,,,,,,,"Mozilla/5.0 (Windows NT 10.0; Win64; x64) AppleWebKit/537.36 (KHTML, like Gecko) Chrome/101.0.4951.54 Safari/537.36",
,613a563bf2e38ea679f50546,627c705cdc54bcc7f388c5db,2022-05-11_21h27.12.769,classification_task,2021.2.3,Win32,60.12867537,627c6715c52fd12f31907bd0,,,,,,,,,,,,,,,,,,,,,,,,,,,,,,,,,,,,,,,,,,,,,,,,,,,,,,,,,,,,,,,,,,,,,FADING
