usingWebGL,participant,session,date,expName,psychopyVersion,OS,frameRate,PROLIFIC_PID,STUDY_ID,SESSION_ID,signatures_friend,signatures_foe,band_ranges_top,band_ranges_bottom,formitemText,formtype,formundefined,formitemWidth,formindex,formresponse,formrt,key_resp_2.keys,key_resp_2.rt,tute_resp.keys,tute_resp.rt,tutorial.thisRepN,tutorial.thisTrialN,tutorial.thisN,tutorial.thisIndex,tutorial.ran,key_resp_4.keys,key_resp_4.rt,key_resp.keys,key_resp.corr,key_resp.rt,lines_presented,is_signal_presented,trials.thisRepN,trials.thisTrialN,trials.thisN,trials.thisIndex,trials.ran,vessel,active_band,lines,is_signal,supported_pos,catch_trial,debrief_formindex,debrief_formitemText,debrief_formtype,debrief_formitemWidth,debrief_formresponse,debrief_formrt,phases.thisRepN,phases.thisTrialN,phases.thisN,phases.thisIndex,phases.ran,phases.order,phase,key_resp_3.keys,trustitemText,trusttype,trustitemWidth,trustindex,trustresponse,trustrt,support_status.thisRepN,support_status.thisTrialN,support_status.thisN,support_status.thisIndex,support_status.ran,support_status.order,key_resp_5.keys,key_resp_5.rt,globalClockTime,userAgent
TRUE,613a97eb7b538ffbbc132c24,001,2022-04-28_20h13.22.340,classification_task,2021.2.3,Win32,60.0024001,613a97eb7b538ffbbc132c24,626b377229c10585ec392f89,626b3ac0a550e3a616c6f8df,,,,,,,,,,,,,,,,,,,,,,,,,,,,,,,,,,,,,,,,,,,,,,,,,,,,,,,,,,,,,,,,,,,,
,613a97eb7b538ffbbc132c24,001,2022-04-28_20h13.22.340,classification_task,2021.2.3,Win32,60.0024001,613a97eb7b538ffbbc132c24,626b377229c10585ec392f89,626b3ac0a550e3a616c6f8df,"[[""0.189"",""0.508"",""0.818"",""0.856""],[""0.224"",""0.367"",""0.894"",""0.929""]]","[[""0.111"",""0.304"",""0.549"",""0.698""],[""0.050"",""0.259"",""0.451"",""0.769""]]","[1,10]","[100,1000]",Video game experience,,,0.7,0,,,,,,,,,,,,,,,,,,,,,,,,,,,,,,,,,,,,,,,,,,,,,,,,,,,,,,,,,,,
,613a97eb7b538ffbbc132c24,001,2022-04-28_20h13.22.340,classification_task,2021.2.3,Win32,60.0024001,613a97eb7b538ffbbc132c24,626b377229c10585ec392f89,626b3ac0a550e3a616c6f8df,,,,,Approximately how many hours did you spend playing video games in the last week?,,,0.7,0,3,,,,,,,,,,,,,,,,,,,,,,,,,,,,,,,,,,,,,,,,,,,,,,,,,,,,,,,,,,
,613a97eb7b538ffbbc132c24,001,2022-04-28_20h13.22.340,classification_task,2021.2.3,Win32,60.0024001,613a97eb7b538ffbbc132c24,626b377229c10585ec392f89,626b3ac0a550e3a616c6f8df,,,,,"Which game did you play the most this year? (Enter ""None"" if you didn't play any)",,,0.7,0,Call of Duty ,,,,,,,,,,,,,,,,,,,,,,,,,,,,,,,,,,,,,,,,,,,,,,,,,,,,,,,,,,
,613a97eb7b538ffbbc132c24,001,2022-04-28_20h13.22.340,classification_task,2021.2.3,Win32,60.0024001,613a97eb7b538ffbbc132c24,626b377229c10585ec392f89,626b3ac0a550e3a616c6f8df,,,,,Visual perception,,,0.7,0,,,,,,,,,,,,,,,,,,,,,,,,,,,,,,,,,,,,,,,,,,,,,,,,,,,,,,,,,,,
,613a97eb7b538ffbbc132c24,001,2022-04-28_20h13.22.340,classification_task,2021.2.3,Win32,60.0024001,613a97eb7b538ffbbc132c24,626b377229c10585ec392f89,626b3ac0a550e3a616c6f8df,,,,,Do you have any form of color blindness?,,,0.7,0,No,90.1315,,,,,,,,,,,,,,,,,,,,,,,,,,,,,,,,,,,,,,,,,,,,,,,,,,,,,,,,,
,613a97eb7b538ffbbc132c24,001,2022-04-28_20h13.22.340,classification_task,2021.2.3,Win32,60.0024001,613a97eb7b538ffbbc132c24,626b377229c10585ec392f89,626b3ac0a550e3a616c6f8df,,,,,Do you use software to change the colour temperature of your screen (e.g. f.lux)?,,,0.7,0,No,91.5194,,,,,,,,,,,,,,,,,,,,,,,,,,,,,,,,,,,,,,,,,,,,,,,,,,,,,,,,,
,613a97eb7b538ffbbc132c24,001,2022-04-28_20h13.22.340,classification_task,2021.2.3,Win32,60.0024001,613a97eb7b538ffbbc132c24,626b377229c10585ec392f89,626b3ac0a550e3a616c6f8df,,,,,,,,,,,,space,73.0261,space,14.2847,0,0,0,0,1,,,,,,,,,,,,,,,,,,,,,,,,,,,,,,,,,,,,,,,,,,,,,,,,
,613a97eb7b538ffbbc132c24,001,2022-04-28_20h13.22.340,classification_task,2021.2.3,Win32,60.0024001,613a97eb7b538ffbbc132c24,626b377229c10585ec392f89,626b3ac0a550e3a616c6f8df,,,,,,,,,,,,,,space,13.269,1,0,1,0,1,,,,,,,,,,,,,,,,,,,,,,,,,,,,,,,,,,,,,,,,,,,,,,,,
,613a97eb7b538ffbbc132c24,001,2022-04-28_20h13.22.340,classification_task,2021.2.3,Win32,60.0024001,613a97eb7b538ffbbc132c24,626b377229c10585ec392f89,626b3ac0a550e3a616c6f8df,,,,,,,,,,,,,,space,48.8299,2,0,2,0,1,,,,,,,,,,,,,,,,,,,,,,,,,,,,,,,,,,,,,,,,,,,,,,,,
,613a97eb7b538ffbbc132c24,001,2022-04-28_20h13.22.340,classification_task,2021.2.3,Win32,60.0024001,613a97eb7b538ffbbc132c24,626b377229c10585ec392f89,626b3ac0a550e3a616c6f8df,,,,,,,,,,,,,,space,28.206,3,0,3,0,1,,,,,,,,,,,,,,,,,,,,,,,,,,,,,,,,,,,,,,,,,,,,,,,,
,613a97eb7b538ffbbc132c24,001,2022-04-28_20h13.22.340,classification_task,2021.2.3,Win32,60.0024001,613a97eb7b538ffbbc132c24,626b377229c10585ec392f89,626b3ac0a550e3a616c6f8df,,,,,,,,,,,,,,space,26.3636,4,0,4,0,1,,,,,,,,,,,,,,,,,,,,,,,,,,,,,,,,,,,,,,,,,,,,,,,,
,613a97eb7b538ffbbc132c24,001,2022-04-28_20h13.22.340,classification_task,2021.2.3,Win32,60.0024001,613a97eb7b538ffbbc132c24,626b377229c10585ec392f89,626b3ac0a550e3a616c6f8df,,,,,,,,,,,,,,,,,,,,,space,33.8529,l,0,6.5888,"[""0.146"",""0.367"",""0.894"",""0.929""]","[0,1,1,1]",0,0,0,0,1,0,1,,,1,FALSE,,,,,,,,,,,,,,,,,,,,,,,,,,,,,,
,613a97eb7b538ffbbc132c24,001,2022-04-28_20h13.22.340,classification_task,2021.2.3,Win32,60.0024001,613a97eb7b538ffbbc132c24,626b377229c10585ec392f89,626b3ac0a550e3a616c6f8df,,,,,,,,,,,,,,,,,,,,,,,l,1,9.8201,"[""0.050"",""0.259"",""0.414"",""0.769""]","[1,1,0,1]",0,1,1,1,1,1,1,,,1,FALSE,,,,,,,,,,,,,,,,,,,,,,,,,,,,,,
,613a97eb7b538ffbbc132c24,001,2022-04-28_20h13.22.340,classification_task,2021.2.3,Win32,60.0024001,613a97eb7b538ffbbc132c24,626b377229c10585ec392f89,626b3ac0a550e3a616c6f8df,,,,,,,,,,,,,,,,,,,,,,,a,1,8.5199,"[""0.189"",""0.508"",""0.733"",""0.856""]","[1,1,0,1]",0,2,2,2,1,0,0,,,1,FALSE,,,,,,,,,,,,,,,,,,,,,,,,,,,,,,
,613a97eb7b538ffbbc132c24,001,2022-04-28_20h13.22.340,classification_task,2021.2.3,Win32,60.0024001,613a97eb7b538ffbbc132c24,626b377229c10585ec392f89,626b3ac0a550e3a616c6f8df,,,,,,,,,,,,,,,,,,,,,,,l,1,4.3167,"[""0.050"",""0.259"",""0.451"",""0.642""]","[1,1,1,0]",0,3,3,3,1,1,1,,,1,FALSE,,,,,,,,,,,,,,,,,,,,,,,,,,,,,,
,613a97eb7b538ffbbc132c24,001,2022-04-28_20h13.22.340,classification_task,2021.2.3,Win32,60.0024001,613a97eb7b538ffbbc132c24,626b377229c10585ec392f89,626b3ac0a550e3a616c6f8df,,,,,,,,,,,,,,,,,,,,,,,l,1,4.6537,"[""0.050"",""0.611"",""0.451"",""0.769""]","[1,0,1,1]",0,4,4,4,1,1,1,,,1,FALSE,,,,,,,,,,,,,,,,,,,,,,,,,,,,,,
,613a97eb7b538ffbbc132c24,001,2022-04-28_20h13.22.340,classification_task,2021.2.3,Win32,60.0024001,613a97eb7b538ffbbc132c24,626b377229c10585ec392f89,626b3ac0a550e3a616c6f8df,,,,,,,,,,,,,,,,,,,,,,,,0,,"[""0.189"",""0.414"",""0.818"",""0.856""]","[1,0,1,1]",0,5,5,5,1,0,0,,,1,FALSE,,,,,,,,,,,,,,,,,,,,,,,,,,,,,,
,613a97eb7b538ffbbc132c24,001,2022-04-28_20h13.22.340,classification_task,2021.2.3,Win32,60.0024001,613a97eb7b538ffbbc132c24,626b377229c10585ec392f89,626b3ac0a550e3a616c6f8df,,,,,,,,,,,,,,,,,,,,,,,a,1,7.4906,"[""0.224"",""0.367"",""0.894"",""0.642""]","[1,1,1,0]",0,6,6,6,1,0,1,,,1,FALSE,,,,,,,,,,,,,,,,,,,,,,,,,,,,,,
,613a97eb7b538ffbbc132c24,001,2022-04-28_20h13.22.340,classification_task,2021.2.3,Win32,60.0024001,613a97eb7b538ffbbc132c24,626b377229c10585ec392f89,626b3ac0a550e3a616c6f8df,,,,,,,,,,,,,,,,,,,,,,,l,1,3.6023,"[""0.111"",""0.633"",""0.549"",""0.698""]","[1,0,1,1]",0,7,7,7,1,1,0,,,1,FALSE,,,,,,,,,,,,,,,,,,,,,,,,,,,,,,
,613a97eb7b538ffbbc132c24,001,2022-04-28_20h13.22.340,classification_task,2021.2.3,Win32,60.0024001,613a97eb7b538ffbbc132c24,626b377229c10585ec392f89,626b3ac0a550e3a616c6f8df,,,,,,,,,,,,,,,,,,,,,,,a,1,7.2997,"[""0.224"",""0.367"",""0.403"",""0.929""]","[1,1,0,1]",0,8,8,8,1,0,1,,,1,FALSE,,,,,,,,,,,,,,,,,,,,,,,,,,,,,,
,613a97eb7b538ffbbc132c24,001,2022-04-28_20h13.22.340,classification_task,2021.2.3,Win32,60.0024001,613a97eb7b538ffbbc132c24,626b377229c10585ec392f89,626b3ac0a550e3a616c6f8df,,,,,,,,,,,,,,,,,,,,,,,l,1,4.6046,"[""0.111"",""0.304"",""0.549"",""0.415""]","[1,1,1,0]",0,9,9,9,1,1,0,,,1,FALSE,,,,,,,,,,,,,,,,,,,,,,,,,,,,,,
,613a97eb7b538ffbbc132c24,001,2022-04-28_20h13.22.340,classification_task,2021.2.3,Win32,60.0024001,613a97eb7b538ffbbc132c24,626b377229c10585ec392f89,626b3ac0a550e3a616c6f8df,,,,,,,,,,,,,,,,,,,,,,,a,1,3.0326,"[""0.224"",""0.405"",""0.894"",""0.929""]","[1,0,1,1]",0,10,10,10,1,0,1,,,1,FALSE,,,,,,,,,,,,,,,,,,,,,,,,,,,,,,
,613a97eb7b538ffbbc132c24,001,2022-04-28_20h13.22.340,classification_task,2021.2.3,Win32,60.0024001,613a97eb7b538ffbbc132c24,626b377229c10585ec392f89,626b3ac0a550e3a616c6f8df,,,,,,,,,,,,,,,,,,,,,,,a,0,4.7108,"[""0.733"",""0.304"",""0.549"",""0.698""]","[0,1,1,1]",0,11,11,11,1,1,0,,,1,FALSE,,,,,,,,,,,,,,,,,,,,,,,,,,,,,,
,613a97eb7b538ffbbc132c24,001,2022-04-28_20h13.22.340,classification_task,2021.2.3,Win32,60.0024001,613a97eb7b538ffbbc132c24,626b377229c10585ec392f89,626b3ac0a550e3a616c6f8df,,,,,,,,,,,,,,,,,,,,,,,a,1,5.5289,"[""0.189"",""0.508"",""0.818"",""0.403""]","[1,1,1,0]",0,12,12,12,1,0,0,,,1,FALSE,,,,,,,,,,,,,,,,,,,,,,,,,,,,,,
,613a97eb7b538ffbbc132c24,001,2022-04-28_20h13.22.340,classification_task,2021.2.3,Win32,60.0024001,613a97eb7b538ffbbc132c24,626b377229c10585ec392f89,626b3ac0a550e3a616c6f8df,,,,,,,,,,,,,,,,,,,,,,,l,1,3.8929,"[""0.111"",""0.304"",""0.414"",""0.698""]","[1,1,0,1]",0,13,13,13,1,1,0,,,1,FALSE,,,,,,,,,,,,,,,,,,,,,,,,,,,,,,
,613a97eb7b538ffbbc132c24,001,2022-04-28_20h13.22.340,classification_task,2021.2.3,Win32,60.0024001,613a97eb7b538ffbbc132c24,626b377229c10585ec392f89,626b3ac0a550e3a616c6f8df,,,,,,,,,,,,,,,,,,,,,,,a,1,5.7254,"[""0.970"",""0.508"",""0.818"",""0.856""]","[0,1,1,1]",0,14,14,14,1,0,0,,,1,FALSE,,,,,,,,,,,,,,,,,,,,,,,,,,,,,,
,613a97eb7b538ffbbc132c24,001,2022-04-28_20h13.22.340,classification_task,2021.2.3,Win32,60.0024001,613a97eb7b538ffbbc132c24,626b377229c10585ec392f89,626b3ac0a550e3a616c6f8df,,,,,,,,,,,,,,,,,,,,,,,a,0,3.3462,"[""0.611"",""0.259"",""0.451"",""0.769""]","[0,1,1,1]",0,15,15,15,1,1,1,,,1,FALSE,,,,,,,,,,,,,,,,,,,,,,,,,,,,,,
,613a97eb7b538ffbbc132c24,001,2022-04-28_20h13.22.340,classification_task,2021.2.3,Win32,60.0024001,613a97eb7b538ffbbc132c24,626b377229c10585ec392f89,626b3ac0a550e3a616c6f8df,,,,,,,,,,,,,,,,,,,,,,,l,1,5.4332,"[""0.050"",""0.259"",""0.451"",""0.146""]","[1,1,1,0]",0,16,16,16,1,1,1,,,1,FALSE,,,,,,,,,,,,,,,,,,,,,,,,,,,,,,
,613a97eb7b538ffbbc132c24,001,2022-04-28_20h13.22.340,classification_task,2021.2.3,Win32,60.0024001,613a97eb7b538ffbbc132c24,626b377229c10585ec392f89,626b3ac0a550e3a616c6f8df,,,,,,,,,,,,,,,,,,,,,,,l,0,5.5189,"[""0.189"",""0.508"",""0.818"",""0.662""]","[1,1,1,0]",0,17,17,17,1,0,0,,,1,FALSE,,,,,,,,,,,,,,,,,,,,,,,,,,,,,,
,613a97eb7b538ffbbc132c24,001,2022-04-28_20h13.22.340,classification_task,2021.2.3,Win32,60.0024001,613a97eb7b538ffbbc132c24,626b377229c10585ec392f89,626b3ac0a550e3a616c6f8df,,,,,,,,,,,,,,,,,,,,,,,l,1,5.817,"[""0.733"",""0.304"",""0.549"",""0.698""]","[0,1,1,1]",0,18,18,18,1,1,0,,,1,FALSE,,,,,,,,,,,,,,,,,,,,,,,,,,,,,,
,613a97eb7b538ffbbc132c24,001,2022-04-28_20h13.22.340,classification_task,2021.2.3,Win32,60.0024001,613a97eb7b538ffbbc132c24,626b377229c10585ec392f89,626b3ac0a550e3a616c6f8df,,,,,,,,,,,,,,,,,,,,,,,a,1,5.3892,"[""0.189"",""0.508"",""0.414"",""0.856""]","[1,1,0,1]",0,19,19,19,1,0,0,,,1,FALSE,,,,,,,,,,,,,,,,,,,,,,,,,,,,,,
,613a97eb7b538ffbbc132c24,001,2022-04-28_20h13.22.340,classification_task,2021.2.3,Win32,60.0024001,613a97eb7b538ffbbc132c24,626b377229c10585ec392f89,626b3ac0a550e3a616c6f8df,,,,,,,,,,,,,,,,,,,,,,,a,1,4.4439,"[""0.224"",""0.662"",""0.894"",""0.929""]","[1,0,1,1]",0,20,20,20,1,0,1,,,1,FALSE,,,,,,,,,,,,,,,,,,,,,,,,,,,,,,
,613a97eb7b538ffbbc132c24,001,2022-04-28_20h13.22.340,classification_task,2021.2.3,Win32,60.0024001,613a97eb7b538ffbbc132c24,626b377229c10585ec392f89,626b3ac0a550e3a616c6f8df,,,,,,,,,,,,,,,,,,,,,,,l,1,3.684,"[""0.111"",""0.304"",""0.549"",""0.414""]","[1,1,1,0]",0,21,21,21,1,1,0,,,1,FALSE,,,,,,,,,,,,,,,,,,,,,,,,,,,,,,
,613a97eb7b538ffbbc132c24,001,2022-04-28_20h13.22.340,classification_task,2021.2.3,Win32,60.0024001,613a97eb7b538ffbbc132c24,626b377229c10585ec392f89,626b3ac0a550e3a616c6f8df,,,,,,,,,,,,,,,,,,,,,,,a,1,3.6604,"[""0.224"",""0.367"",""0.894"",""0.415""]","[1,1,1,0]",0,22,22,22,1,0,1,,,1,FALSE,,,,,,,,,,,,,,,,,,,,,,,,,,,,,,
,613a97eb7b538ffbbc132c24,001,2022-04-28_20h13.22.340,classification_task,2021.2.3,Win32,60.0024001,613a97eb7b538ffbbc132c24,626b377229c10585ec392f89,626b3ac0a550e3a616c6f8df,,,,,,,,,,,,,,,,,,,,,,,l,1,4.4402,"[""0.111"",""0.304"",""0.405"",""0.698""]","[1,1,0,1]",0,23,23,23,1,1,0,,,1,FALSE,,,,,,,,,,,,,,,,,,,,,,,,,,,,,,
,613a97eb7b538ffbbc132c24,001,2022-04-28_20h13.22.340,classification_task,2021.2.3,Win32,60.0024001,613a97eb7b538ffbbc132c24,626b377229c10585ec392f89,626b3ac0a550e3a616c6f8df,,,,,,,,,,,,,,,,,,,,,,,l,1,4.6079,"[""0.405"",""0.259"",""0.451"",""0.769""]","[0,1,1,1]",0,24,24,24,1,1,1,,,1,FALSE,,,,,,,,,,,,,,,,,,,,,,,,,,,,,,
,613a97eb7b538ffbbc132c24,001,2022-04-28_20h13.22.340,classification_task,2021.2.3,Win32,60.0024001,613a97eb7b538ffbbc132c24,626b377229c10585ec392f89,626b3ac0a550e3a616c6f8df,,,,,,,,,,,,,,,,,,,,,,,a,1,6.1629,"[""0.145"",""0.367"",""0.894"",""0.929""]","[0,1,1,1]",0,25,25,25,1,0,1,,,1,FALSE,,,,,,,,,,,,,,,,,,,,,,,,,,,,,,
,613a97eb7b538ffbbc132c24,001,2022-04-28_20h13.22.340,classification_task,2021.2.3,Win32,60.0024001,613a97eb7b538ffbbc132c24,626b377229c10585ec392f89,626b3ac0a550e3a616c6f8df,,,,,,,,,,,,,,,,,,,,,,,a,1,3.1904,"[""0.224"",""0.367"",""0.642"",""0.929""]","[1,1,0,1]",0,26,26,26,1,0,1,,,1,FALSE,,,,,,,,,,,,,,,,,,,,,,,,,,,,,,
,613a97eb7b538ffbbc132c24,001,2022-04-28_20h13.22.340,classification_task,2021.2.3,Win32,60.0024001,613a97eb7b538ffbbc132c24,626b377229c10585ec392f89,626b3ac0a550e3a616c6f8df,,,,,,,,,,,,,,,,,,,,,,,l,1,3.2772,"[""0.111"",""0.403"",""0.549"",""0.698""]","[1,0,1,1]",0,27,27,27,1,1,0,,,1,FALSE,,,,,,,,,,,,,,,,,,,,,,,,,,,,,,
,613a97eb7b538ffbbc132c24,001,2022-04-28_20h13.22.340,classification_task,2021.2.3,Win32,60.0024001,613a97eb7b538ffbbc132c24,626b377229c10585ec392f89,626b3ac0a550e3a616c6f8df,,,,,,,,,,,,,,,,,,,,,,,a,1,3.9788,"[""0.642"",""0.508"",""0.818"",""0.856""]","[0,1,1,1]",0,28,28,28,1,0,0,,,1,FALSE,,,,,,,,,,,,,,,,,,,,,,,,,,,,,,
,613a97eb7b538ffbbc132c24,001,2022-04-28_20h13.22.340,classification_task,2021.2.3,Win32,60.0024001,613a97eb7b538ffbbc132c24,626b377229c10585ec392f89,626b3ac0a550e3a616c6f8df,,,,,,,,,,,,,,,,,,,,,,,l,0,5.2729,"[""0.189"",""0.146"",""0.818"",""0.856""]","[1,0,1,1]",0,29,29,29,1,0,0,,,1,FALSE,,,,,,,,,,,,,,,,,,,,,,,,,,,,,,
,613a97eb7b538ffbbc132c24,001,2022-04-28_20h13.22.340,classification_task,2021.2.3,Win32,60.0024001,613a97eb7b538ffbbc132c24,626b377229c10585ec392f89,626b3ac0a550e3a616c6f8df,,,,,,,,,,,,,,,,,,,,,,,l,1,5.2219,"[""0.050"",""0.401"",""0.451"",""0.769""]","[1,0,1,1]",0,30,30,30,1,1,1,,,1,FALSE,,,,,,,,,,,,,,,,,,,,,,,,,,,,,,
,613a97eb7b538ffbbc132c24,001,2022-04-28_20h13.22.340,classification_task,2021.2.3,Win32,60.0024001,613a97eb7b538ffbbc132c24,626b377229c10585ec392f89,626b3ac0a550e3a616c6f8df,,,,,,,,,,,,,,,,,,,,,,,l,1,7.6206,"[""0.050"",""0.259"",""0.403"",""0.769""]","[1,1,0,1]",0,31,31,31,1,1,1,,,1,FALSE,,,,,,,,,,,,,,,,,,,,,,,,,,,,,,
,613a97eb7b538ffbbc132c24,001,2022-04-28_20h13.22.340,classification_task,2021.2.3,Win32,60.0024001,613a97eb7b538ffbbc132c24,626b377229c10585ec392f89,626b3ac0a550e3a616c6f8df,,,,,,,,,,,,,,,,,,,,,,,l,1,4.8026,"[""0.414"",""0.259"",""0.451"",""0.769""]","[0,1,1,1]",0,32,32,32,1,1,1,,,1,FALSE,,,,,,,,,,,,,,,,,,,,,,,,,,,,,,
,613a97eb7b538ffbbc132c24,001,2022-04-28_20h13.22.340,classification_task,2021.2.3,Win32,60.0024001,613a97eb7b538ffbbc132c24,626b377229c10585ec392f89,626b3ac0a550e3a616c6f8df,,,,,,,,,,,,,,,,,,,,,,,a,0,4.1368,"[""0.145"",""0.304"",""0.549"",""0.698""]","[0,1,1,1]",0,33,33,33,1,1,0,,,1,FALSE,,,,,,,,,,,,,,,,,,,,,,,,,,,,,,
,613a97eb7b538ffbbc132c24,001,2022-04-28_20h13.22.340,classification_task,2021.2.3,Win32,60.0024001,613a97eb7b538ffbbc132c24,626b377229c10585ec392f89,626b3ac0a550e3a616c6f8df,,,,,,,,,,,,,,,,,,,,,,,l,1,3.5285,"[""0.050"",""0.970"",""0.451"",""0.769""]","[1,0,1,1]",0,34,34,34,1,1,1,,,1,FALSE,,,,,,,,,,,,,,,,,,,,,,,,,,,,,,
,613a97eb7b538ffbbc132c24,001,2022-04-28_20h13.22.340,classification_task,2021.2.3,Win32,60.0024001,613a97eb7b538ffbbc132c24,626b377229c10585ec392f89,626b3ac0a550e3a616c6f8df,,,,,,,,,,,,,,,,,,,,,,,a,1,2.4588,"[""0.224"",""0.367"",""0.894"",""0.415""]","[1,1,1,0]",0,35,35,35,1,0,1,,,1,FALSE,,,,,,,,,,,,,,,,,,,,,,,,,,,,,,
,613a97eb7b538ffbbc132c24,001,2022-04-28_20h13.22.340,classification_task,2021.2.3,Win32,60.0024001,613a97eb7b538ffbbc132c24,626b377229c10585ec392f89,626b3ac0a550e3a616c6f8df,,,,,,,,,,,,,,,,,,,,,,,a,1,2.8795,"[""0.189"",""0.508"",""0.818"",""0.145""]","[1,1,1,0]",0,36,36,36,1,0,0,,,1,FALSE,,,,,,,,,,,,,,,,,,,,,,,,,,,,,,
,613a97eb7b538ffbbc132c24,001,2022-04-28_20h13.22.340,classification_task,2021.2.3,Win32,60.0024001,613a97eb7b538ffbbc132c24,626b377229c10585ec392f89,626b3ac0a550e3a616c6f8df,,,,,,,,,,,,,,,,,,,,,,,l,0,1.6416,"[""0.224"",""0.662"",""0.894"",""0.929""]","[1,0,1,1]",0,37,37,37,1,0,1,,,1,FALSE,,,,,,,,,,,,,,,,,,,,,,,,,,,,,,
,613a97eb7b538ffbbc132c24,001,2022-04-28_20h13.22.340,classification_task,2021.2.3,Win32,60.0024001,613a97eb7b538ffbbc132c24,626b377229c10585ec392f89,626b3ac0a550e3a616c6f8df,,,,,,,,,,,,,,,,,,,,,,,a,1,1.6851,"[""0.189"",""0.733"",""0.818"",""0.856""]","[1,0,1,1]",0,38,38,38,1,0,0,,,1,FALSE,,,,,,,,,,,,,,,,,,,,,,,,,,,,,,
,613a97eb7b538ffbbc132c24,001,2022-04-28_20h13.22.340,classification_task,2021.2.3,Win32,60.0024001,613a97eb7b538ffbbc132c24,626b377229c10585ec392f89,626b3ac0a550e3a616c6f8df,,,,,,,,,,,,,,,,,,,,,,,l,0,2.1783,"[""0.189"",""0.508"",""0.662"",""0.856""]","[1,1,0,1]",0,39,39,39,1,0,0,,,1,FALSE,,,,,,,,,,,,,,,,,,,,,,,,,,,,,,
,613a97eb7b538ffbbc132c24,001,2022-04-28_20h13.22.340,classification_task,2021.2.3,Win32,60.0024001,613a97eb7b538ffbbc132c24,626b377229c10585ec392f89,626b3ac0a550e3a616c6f8df,,,,,,,,,,,,,,,,,,,,,,,l,1,2.4734,"[""0.111"",""0.304"",""0.152"",""0.698""]","[1,1,0,1]",0,40,40,40,1,1,0,,,1,FALSE,,,,,,,,,,,,,,,,,,,,,,,,,,,,,,
,613a97eb7b538ffbbc132c24,001,2022-04-28_20h13.22.340,classification_task,2021.2.3,Win32,60.0024001,613a97eb7b538ffbbc132c24,626b377229c10585ec392f89,626b3ac0a550e3a616c6f8df,,,,,,,,,,,,,,,,,,,,,,,l,0,1.6173,"[""0.966"",""0.508"",""0.818"",""0.856""]","[0,1,1,1]",0,41,41,41,1,0,0,,,1,FALSE,,,,,,,,,,,,,,,,,,,,,,,,,,,,,,
,613a97eb7b538ffbbc132c24,001,2022-04-28_20h13.22.340,classification_task,2021.2.3,Win32,60.0024001,613a97eb7b538ffbbc132c24,626b377229c10585ec392f89,626b3ac0a550e3a616c6f8df,,,,,,,,,,,,,,,,,,,,,,,a,1,1.7113,"[""0.224"",""0.367"",""0.642"",""0.929""]","[1,1,0,1]",0,42,42,42,1,0,1,,,1,FALSE,,,,,,,,,,,,,,,,,,,,,,,,,,,,,,
,613a97eb7b538ffbbc132c24,001,2022-04-28_20h13.22.340,classification_task,2021.2.3,Win32,60.0024001,613a97eb7b538ffbbc132c24,626b377229c10585ec392f89,626b3ac0a550e3a616c6f8df,,,,,,,,,,,,,,,,,,,,,,,a,0,1.6444,"[""0.111"",""0.304"",""0.549"",""0.970""]","[1,1,1,0]",0,43,43,43,1,1,0,,,1,FALSE,,,,,,,,,,,,,,,,,,,,,,,,,,,,,,
,613a97eb7b538ffbbc132c24,001,2022-04-28_20h13.22.340,classification_task,2021.2.3,Win32,60.0024001,613a97eb7b538ffbbc132c24,626b377229c10585ec392f89,626b3ac0a550e3a616c6f8df,,,,,,,,,,,,,,,,,,,,,,,a,0,1.1666,"[""0.050"",""0.259"",""0.451"",""0.629""]","[1,1,1,0]",0,44,44,44,1,1,1,,,1,FALSE,,,,,,,,,,,,,,,,,,,,,,,,,,,,,,
,613a97eb7b538ffbbc132c24,001,2022-04-28_20h13.22.340,classification_task,2021.2.3,Win32,60.0024001,613a97eb7b538ffbbc132c24,626b377229c10585ec392f89,626b3ac0a550e3a616c6f8df,,,,,,,,,,,,,,,,,,,,,,,a,0,2.0637,"[""0.050"",""0.259"",""0.966"",""0.769""]","[1,1,0,1]",0,45,45,45,1,1,1,,,1,FALSE,,,,,,,,,,,,,,,,,,,,,,,,,,,,,,
,613a97eb7b538ffbbc132c24,001,2022-04-28_20h13.22.340,classification_task,2021.2.3,Win32,60.0024001,613a97eb7b538ffbbc132c24,626b377229c10585ec392f89,626b3ac0a550e3a616c6f8df,,,,,,,,,,,,,,,,,,,,,,,a,1,1.885,"[""0.629"",""0.367"",""0.894"",""0.929""]","[0,1,1,1]",0,46,46,46,1,0,1,,,1,FALSE,,,,,,,,,,,,,,,,,,,,,,,,,,,,,,
,613a97eb7b538ffbbc132c24,001,2022-04-28_20h13.22.340,classification_task,2021.2.3,Win32,60.0024001,613a97eb7b538ffbbc132c24,626b377229c10585ec392f89,626b3ac0a550e3a616c6f8df,,,,,,,,,,,,,,,,,,,,,,,a,0,1.4942,"[""0.111"",""0.611"",""0.549"",""0.698""]","[1,0,1,1]",0,47,47,47,1,1,0,,,1,FALSE,,,,,,,,,,,,,,,,,,,,,,,,,,,,,,
,613a97eb7b538ffbbc132c24,001,2022-04-28_20h13.22.340,classification_task,2021.2.3,Win32,60.0024001,613a97eb7b538ffbbc132c24,626b377229c10585ec392f89,626b3ac0a550e3a616c6f8df,,,,,,,,,,,,,,,,,,,,,,,l,0,1.0695,"[""0.611"",""0.508"",""0.818"",""0.856""]","[0,1,1,1]",0,48,48,48,1,0,0,,,1,FALSE,,,,,,,,,,,,,,,,,,,,,,,,,,,,,,
,613a97eb7b538ffbbc132c24,001,2022-04-28_20h13.22.340,classification_task,2021.2.3,Win32,60.0024001,613a97eb7b538ffbbc132c24,626b377229c10585ec392f89,626b3ac0a550e3a616c6f8df,,,,,,,,,,,,,,,,,,,,,,,l,0,1.9845,"[""0.611"",""0.367"",""0.894"",""0.929""]","[0,1,1,1]",0,49,49,49,1,0,1,,,1,FALSE,,,,,,,,,,,,,,,,,,,,,,,,,,,,,,
,613a97eb7b538ffbbc132c24,001,2022-04-28_20h13.22.340,classification_task,2021.2.3,Win32,60.0024001,613a97eb7b538ffbbc132c24,626b377229c10585ec392f89,626b3ac0a550e3a616c6f8df,,,,,,,,,,,,,,,,,,,,,,,a,0,4.0869,"[""0.111"",""0.304"",""0.415"",""0.698""]","[1,1,0,1]",0,50,50,50,1,1,0,,,1,FALSE,,,,,,,,,,,,,,,,,,,,,,,,,,,,,,
,613a97eb7b538ffbbc132c24,001,2022-04-28_20h13.22.340,classification_task,2021.2.3,Win32,60.0024001,613a97eb7b538ffbbc132c24,626b377229c10585ec392f89,626b3ac0a550e3a616c6f8df,,,,,,,,,,,,,,,,,,,,,,,l,0,3.8622,"[""0.189"",""0.508"",""0.818"",""0.152""]","[1,1,1,0]",0,51,51,51,1,0,0,,,1,FALSE,,,,,,,,,,,,,,,,,,,,,,,,,,,,,,
,613a97eb7b538ffbbc132c24,001,2022-04-28_20h13.22.340,classification_task,2021.2.3,Win32,60.0024001,613a97eb7b538ffbbc132c24,626b377229c10585ec392f89,626b3ac0a550e3a616c6f8df,,,,,,,,,,,,,,,,,,,,,,,a,0,1.3766,"[""0.050"",""0.259"",""0.970"",""0.769""]","[1,1,0,1]",0,52,52,52,1,1,1,,,1,FALSE,,,,,,,,,,,,,,,,,,,,,,,,,,,,,,
,613a97eb7b538ffbbc132c24,001,2022-04-28_20h13.22.340,classification_task,2021.2.3,Win32,60.0024001,613a97eb7b538ffbbc132c24,626b377229c10585ec392f89,626b3ac0a550e3a616c6f8df,,,,,,,,,,,,,,,,,,,,,,,a,0,4.116,"[""0.111"",""0.304"",""0.549"",""0.733""]","[1,1,1,0]",0,53,53,53,1,1,0,,,1,FALSE,,,,,,,,,,,,,,,,,,,,,,,,,,,,,,
,613a97eb7b538ffbbc132c24,001,2022-04-28_20h13.22.340,classification_task,2021.2.3,Win32,60.0024001,613a97eb7b538ffbbc132c24,626b377229c10585ec392f89,626b3ac0a550e3a616c6f8df,,,,,,,,,,,,,,,,,,,,,,,a,1,1.5765,"[""0.189"",""0.508"",""0.629"",""0.856""]","[1,1,0,1]",0,54,54,54,1,0,0,,,1,FALSE,,,,,,,,,,,,,,,,,,,,,,,,,,,,,,
,613a97eb7b538ffbbc132c24,001,2022-04-28_20h13.22.340,classification_task,2021.2.3,Win32,60.0024001,613a97eb7b538ffbbc132c24,626b377229c10585ec392f89,626b3ac0a550e3a616c6f8df,,,,,,,,,,,,,,,,,,,,,,,l,1,1.7576,"[""0.050"",""0.662"",""0.451"",""0.769""]","[1,0,1,1]",0,55,55,55,1,1,1,,,1,FALSE,,,,,,,,,,,,,,,,,,,,,,,,,,,,,,
,613a97eb7b538ffbbc132c24,001,2022-04-28_20h13.22.340,classification_task,2021.2.3,Win32,60.0024001,613a97eb7b538ffbbc132c24,626b377229c10585ec392f89,626b3ac0a550e3a616c6f8df,,,,,,,,,,,,,,,,,,,,,,,a,0,1.0798,"[""0.050"",""0.259"",""0.451"",""0.145""]","[1,1,1,0]",0,56,56,56,1,1,1,,,1,FALSE,,,,,,,,,,,,,,,,,,,,,,,,,,,,,,
,613a97eb7b538ffbbc132c24,001,2022-04-28_20h13.22.340,classification_task,2021.2.3,Win32,60.0024001,613a97eb7b538ffbbc132c24,626b377229c10585ec392f89,626b3ac0a550e3a616c6f8df,,,,,,,,,,,,,,,,,,,,,,,a,1,1.0395,"[""0.224"",""0.629"",""0.894"",""0.929""]","[1,0,1,1]",0,57,57,57,1,0,1,,,1,FALSE,,,,,,,,,,,,,,,,,,,,,,,,,,,,,,
,613a97eb7b538ffbbc132c24,001,2022-04-28_20h13.22.340,classification_task,2021.2.3,Win32,60.0024001,613a97eb7b538ffbbc132c24,626b377229c10585ec392f89,626b3ac0a550e3a616c6f8df,,,,,,,,,,,,,,,,,,,,,,,l,0,1.104,"[""0.224"",""0.367"",""0.403"",""0.929""]","[1,1,0,1]",0,58,58,58,1,0,1,,,1,FALSE,,,,,,,,,,,,,,,,,,,,,,,,,,,,,,
,613a97eb7b538ffbbc132c24,001,2022-04-28_20h13.22.340,classification_task,2021.2.3,Win32,60.0024001,613a97eb7b538ffbbc132c24,626b377229c10585ec392f89,626b3ac0a550e3a616c6f8df,,,,,,,,,,,,,,,,,,,,,,,a,0,0.937,"[""0.629"",""0.304"",""0.549"",""0.698""]","[0,1,1,1]",0,59,59,59,1,1,0,,,1,FALSE,,,,,,,,,,,,,,,,,,,,,,,,,,,,,,
,613a97eb7b538ffbbc132c24,001,2022-04-28_20h13.22.340,classification_task,2021.2.3,Win32,60.0024001,613a97eb7b538ffbbc132c24,626b377229c10585ec392f89,626b3ac0a550e3a616c6f8df,,,,,,,,,,,,,,,,,,,,,,,l,0,1.1167,"[""0.224"",""0.367"",""0.894"",""0.415""]","[1,1,1,0]",0,60,60,60,1,0,1,,,1,FALSE,,,,,,,,,,,,,,,,,,,,,,,,,,,,,,
,613a97eb7b538ffbbc132c24,001,2022-04-28_20h13.22.340,classification_task,2021.2.3,Win32,60.0024001,613a97eb7b538ffbbc132c24,626b377229c10585ec392f89,626b3ac0a550e3a616c6f8df,,,,,,,,,,,,,,,,,,,,,,,a,0,1.0803,"[""0.970"",""0.259"",""0.451"",""0.769""]","[0,1,1,1]",0,61,61,61,1,1,1,,,1,FALSE,,,,,,,,,,,,,,,,,,,,,,,,,,,,,,
,613a97eb7b538ffbbc132c24,001,2022-04-28_20h13.22.340,classification_task,2021.2.3,Win32,60.0024001,613a97eb7b538ffbbc132c24,626b377229c10585ec392f89,626b3ac0a550e3a616c6f8df,,,,,,,,,,,,,,,,,,,,,,,l,0,1.2026,"[""0.189"",""0.970"",""0.818"",""0.856""]","[1,0,1,1]",0,62,62,62,1,0,0,,,1,FALSE,,,,,,,,,,,,,,,,,,,,,,,,,,,,,,
,613a97eb7b538ffbbc132c24,001,2022-04-28_20h13.22.340,classification_task,2021.2.3,Win32,60.0024001,613a97eb7b538ffbbc132c24,626b377229c10585ec392f89,626b3ac0a550e3a616c6f8df,,,,,,,,,,,,,,,,,,,,,,,a,0,2.1666,"[""0.111"",""0.403"",""0.549"",""0.698""]","[1,0,1,1]",0,63,63,63,1,1,0,,,1,FALSE,,,,,,,,,,,,,,,,,,,,,,,,,,,,,,
,613a97eb7b538ffbbc132c24,001,2022-04-28_20h13.22.340,classification_task,2021.2.3,Win32,60.0024001,613a97eb7b538ffbbc132c24,626b377229c10585ec392f89,626b3ac0a550e3a616c6f8df,,,,,,,,,,,,,,,,,,,,,,,,,,,,,,,,,,,,,,,0, ,,0,4.008069362,695.6957,0,0,0,0,1,2,1,,,,,,,,,,,,,,,,,
,613a97eb7b538ffbbc132c24,001,2022-04-28_20h13.22.340,classification_task,2021.2.3,Win32,60.0024001,613a97eb7b538ffbbc132c24,626b377229c10585ec392f89,626b3ac0a550e3a616c6f8df,,,,,,,,,,,,,,,,,,,,,,,,,,,,,,,,,,,,,,,1,  ,,0,6.349389168,693.6186,0,0,0,0,1,2,1,,,,,,,,,,,,,,,,,
,613a97eb7b538ffbbc132c24,001,2022-04-28_20h13.22.340,classification_task,2021.2.3,Win32,60.0024001,613a97eb7b538ffbbc132c24,626b377229c10585ec392f89,626b3ac0a550e3a616c6f8df,,,,,,,,,,,,,,,,,,,,,,,,,,,,,,,,,,,,,,,2,  ,,0,3.31944797,698.4289,0,0,0,0,1,2,1,,,,,,,,,,,,,,,,,
,613a97eb7b538ffbbc132c24,001,2022-04-28_20h13.22.340,classification_task,2021.2.3,Win32,60.0024001,613a97eb7b538ffbbc132c24,626b377229c10585ec392f89,626b3ac0a550e3a616c6f8df,,,,,,,,,,,,,,,,,,,,,,,,,,,,,,,,,,,,,,,,,,,,,0,0,0,0,1,,1,,,,,,,,,,,,,,,,,
,613a97eb7b538ffbbc132c24,001,2022-04-28_20h13.22.340,classification_task,2021.2.3,Win32,60.0024001,613a97eb7b538ffbbc132c24,626b377229c10585ec392f89,626b3ac0a550e3a616c6f8df,,,,,,,,,,,,,,,,,,,,,space,19.1832,a,0,4.9786,"[""0.050"",""0.152"",""0.451"",""0.769""]","[1,0,1,1]",0,0,0,0,1,1,1,,,1,FALSE,,,,,,,,,,,,,,,,,,,,,,,,,,,,,,
,613a97eb7b538ffbbc132c24,001,2022-04-28_20h13.22.340,classification_task,2021.2.3,Win32,60.0024001,613a97eb7b538ffbbc132c24,626b377229c10585ec392f89,626b3ac0a550e3a616c6f8df,,,,,,,,,,,,,,,,,,,,,,,a,0,1.1173,"[""0.111"",""0.304"",""0.415"",""0.698""]","[1,1,0,1]",0,1,1,1,1,1,0,,,1,FALSE,,,,,,,,,,,,,,,,,,,,,,,,,,,,,,
,613a97eb7b538ffbbc132c24,001,2022-04-28_20h13.22.340,classification_task,2021.2.3,Win32,60.0024001,613a97eb7b538ffbbc132c24,626b377229c10585ec392f89,626b3ac0a550e3a616c6f8df,,,,,,,,,,,,,,,,,,,,,,,l,0,6.3844,"[""0.189"",""0.508"",""0.818"",""0.733""]","[1,1,1,0]",0,2,2,2,1,0,0,,,1,FALSE,,,,,,,,,,,,,,,,,,,,,,,,,,,,,,
,613a97eb7b538ffbbc132c24,001,2022-04-28_20h13.22.340,classification_task,2021.2.3,Win32,60.0024001,613a97eb7b538ffbbc132c24,626b377229c10585ec392f89,626b3ac0a550e3a616c6f8df,,,,,,,,,,,,,,,,,,,,,,,l,0,1.3812,"[""0.189"",""0.629"",""0.818"",""0.856""]","[1,0,1,1]",0,3,3,3,1,0,0,,,1,FALSE,,,,,,,,,,,,,,,,,,,,,,,,,,,,,,
,613a97eb7b538ffbbc132c24,001,2022-04-28_20h13.22.340,classification_task,2021.2.3,Win32,60.0024001,613a97eb7b538ffbbc132c24,626b377229c10585ec392f89,626b3ac0a550e3a616c6f8df,,,,,,,,,,,,,,,,,,,,,,,l,1,1.6319,"[""0.629"",""0.259"",""0.451"",""0.769""]","[0,1,1,1]",0,4,4,4,1,1,1,,,1,FALSE,,,,,,,,,,,,,,,,,,,,,,,,,,,,,,
,613a97eb7b538ffbbc132c24,001,2022-04-28_20h13.22.340,classification_task,2021.2.3,Win32,60.0024001,613a97eb7b538ffbbc132c24,626b377229c10585ec392f89,626b3ac0a550e3a616c6f8df,,,,,,,,,,,,,,,,,,,,,,,a,0,2.0096,"[""0.611"",""0.304"",""0.549"",""0.698""]","[0,1,1,1]",0,5,5,5,1,1,0,,,1,FALSE,,,,,,,,,,,,,,,,,,,,,,,,,,,,,,
,613a97eb7b538ffbbc132c24,001,2022-04-28_20h13.22.340,classification_task,2021.2.3,Win32,60.0024001,613a97eb7b538ffbbc132c24,626b377229c10585ec392f89,626b3ac0a550e3a616c6f8df,,,,,,,,,,,,,,,,,,,,,,,a,1,1.5745,"[""0.189"",""0.508"",""0.611"",""0.856""]","[1,1,0,1]",0,6,6,6,1,0,0,,,1,FALSE,,,,,,,,,,,,,,,,,,,,,,,,,,,,,,
,613a97eb7b538ffbbc132c24,001,2022-04-28_20h13.22.340,classification_task,2021.2.3,Win32,60.0024001,613a97eb7b538ffbbc132c24,626b377229c10585ec392f89,626b3ac0a550e3a616c6f8df,,,,,,,,,,,,,,,,,,,,,,,l,0,1.2939,"[""0.224"",""0.367"",""0.894"",""0.629""]","[1,1,1,0]",0,7,7,7,1,0,1,,,1,FALSE,,,,,,,,,,,,,,,,,,,,,,,,,,,,,,
,613a97eb7b538ffbbc132c24,001,2022-04-28_20h13.22.340,classification_task,2021.2.3,Win32,60.0024001,613a97eb7b538ffbbc132c24,626b377229c10585ec392f89,626b3ac0a550e3a616c6f8df,,,,,,,,,,,,,,,,,,,,,,,l,0,1.4526,"[""0.224"",""0.152"",""0.894"",""0.929""]","[1,0,1,1]",0,8,8,8,1,0,1,,,1,FALSE,,,,,,,,,,,,,,,,,,,,,,,,,,,,,,
,613a97eb7b538ffbbc132c24,001,2022-04-28_20h13.22.340,classification_task,2021.2.3,Win32,60.0024001,613a97eb7b538ffbbc132c24,626b377229c10585ec392f89,626b3ac0a550e3a616c6f8df,,,,,,,,,,,,,,,,,,,,,,,a,0,0.7496,"[""0.050"",""0.259"",""0.662"",""0.769""]","[1,1,0,1]",0,9,9,9,1,1,1,,,1,FALSE,,,,,,,,,,,,,,,,,,,,,,,,,,,,,,
,613a97eb7b538ffbbc132c24,001,2022-04-28_20h13.22.340,classification_task,2021.2.3,Win32,60.0024001,613a97eb7b538ffbbc132c24,626b377229c10585ec392f89,626b3ac0a550e3a616c6f8df,,,,,,,,,,,,,,,,,,,,,,,l,1,7.9487,"[""0.111"",""0.304"",""0.549"",""0.633""]","[1,1,1,0]",0,10,10,10,1,1,0,,,1,FALSE,,,,,,,,,,,,,,,,,,,,,,,,,,,,,,
,613a97eb7b538ffbbc132c24,001,2022-04-28_20h13.22.340,classification_task,2021.2.3,Win32,60.0024001,613a97eb7b538ffbbc132c24,626b377229c10585ec392f89,626b3ac0a550e3a616c6f8df,,,,,,,,,,,,,,,,,,,,,,,l,1,2.2676,"[""0.050"",""0.259"",""0.451"",""0.415""]","[1,1,1,0]",0,11,11,11,1,1,1,,,1,FALSE,,,,,,,,,,,,,,,,,,,,,,,,,,,,,,
,613a97eb7b538ffbbc132c24,001,2022-04-28_20h13.22.340,classification_task,2021.2.3,Win32,60.0024001,613a97eb7b538ffbbc132c24,626b377229c10585ec392f89,626b3ac0a550e3a616c6f8df,,,,,,,,,,,,,,,,,,,,,,,a,1,1.06,"[""0.224"",""0.367"",""0.629"",""0.929""]","[1,1,0,1]",0,12,12,12,1,0,1,,,1,FALSE,,,,,,,,,,,,,,,,,,,,,,,,,,,,,,
,613a97eb7b538ffbbc132c24,001,2022-04-28_20h13.22.340,classification_task,2021.2.3,Win32,60.0024001,613a97eb7b538ffbbc132c24,626b377229c10585ec392f89,626b3ac0a550e3a616c6f8df,,,,,,,,,,,,,,,,,,,,,,,a,0,1.5735,"[""0.111"",""0.629"",""0.549"",""0.698""]","[1,0,1,1]",0,13,13,13,1,1,0,,,1,FALSE,,,,,,,,,,,,,,,,,,,,,,,,,,,,,,
,613a97eb7b538ffbbc132c24,001,2022-04-28_20h13.22.340,classification_task,2021.2.3,Win32,60.0024001,613a97eb7b538ffbbc132c24,626b377229c10585ec392f89,626b3ac0a550e3a616c6f8df,,,,,,,,,,,,,,,,,,,,,,,l,0,4.8687,"[""0.401"",""0.508"",""0.818"",""0.856""]","[0,1,1,1]",0,14,14,14,1,0,0,,,1,FALSE,,,,,,,,,,,,,,,,,,,,,,,,,,,,,,
,613a97eb7b538ffbbc132c24,001,2022-04-28_20h13.22.340,classification_task,2021.2.3,Win32,60.0024001,613a97eb7b538ffbbc132c24,626b377229c10585ec392f89,626b3ac0a550e3a616c6f8df,,,,,,,,,,,,,,,,,,,,,,,l,0,1.7464,"[""0.970"",""0.367"",""0.894"",""0.929""]","[0,1,1,1]",0,15,15,15,1,0,1,,,1,FALSE,,,,,,,,,,,,,,,,,,,,,,,,,,,,,,
,613a97eb7b538ffbbc132c24,001,2022-04-28_20h13.22.340,classification_task,2021.2.3,Win32,60.0024001,613a97eb7b538ffbbc132c24,626b377229c10585ec392f89,626b3ac0a550e3a616c6f8df,,,,,,,,,,,,,,,,,,,,,,,a,0,0.8929,"[""0.050"",""0.259"",""0.633"",""0.769""]","[1,1,0,1]",0,16,16,16,1,1,1,,,1,FALSE,,,,,,,,,,,,,,,,,,,,,,,,,,,,,,
,613a97eb7b538ffbbc132c24,001,2022-04-28_20h13.22.340,classification_task,2021.2.3,Win32,60.0024001,613a97eb7b538ffbbc132c24,626b377229c10585ec392f89,626b3ac0a550e3a616c6f8df,,,,,,,,,,,,,,,,,,,,,,,l,0,2.2461,"[""0.189"",""0.733"",""0.818"",""0.856""]","[1,0,1,1]",0,17,17,17,1,0,0,,,1,FALSE,,,,,,,,,,,,,,,,,,,,,,,,,,,,,,
,613a97eb7b538ffbbc132c24,001,2022-04-28_20h13.22.340,classification_task,2021.2.3,Win32,60.0024001,613a97eb7b538ffbbc132c24,626b377229c10585ec392f89,626b3ac0a550e3a616c6f8df,,,,,,,,,,,,,,,,,,,,,,,a,0,4.5178,"[""0.050"",""0.415"",""0.451"",""0.769""]","[1,0,1,1]",0,18,18,18,1,1,1,,,1,FALSE,,,,,,,,,,,,,,,,,,,,,,,,,,,,,,
,613a97eb7b538ffbbc132c24,001,2022-04-28_20h13.22.340,classification_task,2021.2.3,Win32,60.0024001,613a97eb7b538ffbbc132c24,626b377229c10585ec392f89,626b3ac0a550e3a616c6f8df,,,,,,,,,,,,,,,,,,,,,,,a,0,2.4658,"[""0.111"",""0.629"",""0.549"",""0.698""]","[1,0,1,1]",0,19,19,19,1,1,0,,,1,FALSE,,,,,,,,,,,,,,,,,,,,,,,,,,,,,,
,613a97eb7b538ffbbc132c24,001,2022-04-28_20h13.22.340,classification_task,2021.2.3,Win32,60.0024001,613a97eb7b538ffbbc132c24,626b377229c10585ec392f89,626b3ac0a550e3a616c6f8df,,,,,,,,,,,,,,,,,,,,,,,a,1,4.1903,"[""0.966"",""0.508"",""0.818"",""0.856""]","[0,1,1,1]",0,20,20,20,1,0,0,,,1,FALSE,,,,,,,,,,,,,,,,,,,,,,,,,,,,,,
,613a97eb7b538ffbbc132c24,001,2022-04-28_20h13.22.340,classification_task,2021.2.3,Win32,60.0024001,613a97eb7b538ffbbc132c24,626b377229c10585ec392f89,626b3ac0a550e3a616c6f8df,,,,,,,,,,,,,,,,,,,,,,,a,0,1.7922,"[""0.970"",""0.259"",""0.451"",""0.769""]","[0,1,1,1]",0,21,21,21,1,1,1,,,1,FALSE,,,,,,,,,,,,,,,,,,,,,,,,,,,,,,
,613a97eb7b538ffbbc132c24,001,2022-04-28_20h13.22.340,classification_task,2021.2.3,Win32,60.0024001,613a97eb7b538ffbbc132c24,626b377229c10585ec392f89,626b3ac0a550e3a616c6f8df,,,,,,,,,,,,,,,,,,,,,,,l,0,3.9973,"[""0.189"",""0.508"",""0.403"",""0.856""]","[1,1,0,1]",0,22,22,22,1,0,0,,,1,FALSE,,,,,,,,,,,,,,,,,,,,,,,,,,,,,,
,613a97eb7b538ffbbc132c24,001,2022-04-28_20h13.22.340,classification_task,2021.2.3,Win32,60.0024001,613a97eb7b538ffbbc132c24,626b377229c10585ec392f89,626b3ac0a550e3a616c6f8df,,,,,,,,,,,,,,,,,,,,,,,a,1,2.1648,"[""0.224"",""0.367"",""0.414"",""0.929""]","[1,1,0,1]",0,23,23,23,1,0,1,,,1,FALSE,,,,,,,,,,,,,,,,,,,,,,,,,,,,,,
,613a97eb7b538ffbbc132c24,001,2022-04-28_20h13.22.340,classification_task,2021.2.3,Win32,60.0024001,613a97eb7b538ffbbc132c24,626b377229c10585ec392f89,626b3ac0a550e3a616c6f8df,,,,,,,,,,,,,,,,,,,,,,,l,1,1.1716,"[""0.415"",""0.304"",""0.549"",""0.698""]","[0,1,1,1]",0,24,24,24,1,1,0,,,1,FALSE,,,,,,,,,,,,,,,,,,,,,,,,,,,,,,
,613a97eb7b538ffbbc132c24,001,2022-04-28_20h13.22.340,classification_task,2021.2.3,Win32,60.0024001,613a97eb7b538ffbbc132c24,626b377229c10585ec392f89,626b3ac0a550e3a616c6f8df,,,,,,,,,,,,,,,,,,,,,,,l,0,0.8672,"[""0.224"",""0.662"",""0.894"",""0.929""]","[1,0,1,1]",0,25,25,25,1,0,1,,,1,FALSE,,,,,,,,,,,,,,,,,,,,,,,,,,,,,,
,613a97eb7b538ffbbc132c24,001,2022-04-28_20h13.22.340,classification_task,2021.2.3,Win32,60.0024001,613a97eb7b538ffbbc132c24,626b377229c10585ec392f89,626b3ac0a550e3a616c6f8df,,,,,,,,,,,,,,,,,,,,,,,l,0,0.5737,"[""0.224"",""0.367"",""0.894"",""0.403""]","[1,1,1,0]",0,26,26,26,1,0,1,,,1,FALSE,,,,,,,,,,,,,,,,,,,,,,,,,,,,,,
,613a97eb7b538ffbbc132c24,001,2022-04-28_20h13.22.340,classification_task,2021.2.3,Win32,60.0024001,613a97eb7b538ffbbc132c24,626b377229c10585ec392f89,626b3ac0a550e3a616c6f8df,,,,,,,,,,,,,,,,,,,,,,,l,1,0.8546,"[""0.111"",""0.304"",""0.966"",""0.698""]","[1,1,0,1]",0,27,27,27,1,1,0,,,1,FALSE,,,,,,,,,,,,,,,,,,,,,,,,,,,,,,
,613a97eb7b538ffbbc132c24,001,2022-04-28_20h13.22.340,classification_task,2021.2.3,Win32,60.0024001,613a97eb7b538ffbbc132c24,626b377229c10585ec392f89,626b3ac0a550e3a616c6f8df,,,,,,,,,,,,,,,,,,,,,,,a,1,0.9238,"[""0.403"",""0.367"",""0.894"",""0.929""]","[0,1,1,1]",0,28,28,28,1,0,1,,,1,FALSE,,,,,,,,,,,,,,,,,,,,,,,,,,,,,,
,613a97eb7b538ffbbc132c24,001,2022-04-28_20h13.22.340,classification_task,2021.2.3,Win32,60.0024001,613a97eb7b538ffbbc132c24,626b377229c10585ec392f89,626b3ac0a550e3a616c6f8df,,,,,,,,,,,,,,,,,,,,,,,a,1,0.8219,"[""0.189"",""0.508"",""0.818"",""0.405""]","[1,1,1,0]",0,29,29,29,1,0,0,,,1,FALSE,,,,,,,,,,,,,,,,,,,,,,,,,,,,,,
,613a97eb7b538ffbbc132c24,001,2022-04-28_20h13.22.340,classification_task,2021.2.3,Win32,60.0024001,613a97eb7b538ffbbc132c24,626b377229c10585ec392f89,626b3ac0a550e3a616c6f8df,,,,,,,,,,,,,,,,,,,,,,,l,1,0.996,"[""0.050"",""0.259"",""0.451"",""0.415""]","[1,1,1,0]",0,30,30,30,1,1,1,,,1,FALSE,,,,,,,,,,,,,,,,,,,,,,,,,,,,,,
,613a97eb7b538ffbbc132c24,001,2022-04-28_20h13.22.340,classification_task,2021.2.3,Win32,60.0024001,613a97eb7b538ffbbc132c24,626b377229c10585ec392f89,626b3ac0a550e3a616c6f8df,,,,,,,,,,,,,,,,,,,,,,,l,1,0.867,"[""0.111"",""0.304"",""0.549"",""0.414""]","[1,1,1,0]",0,31,31,31,1,1,0,,,1,FALSE,,,,,,,,,,,,,,,,,,,,,,,,,,,,,,
,613a97eb7b538ffbbc132c24,001,2022-04-28_20h13.22.340,classification_task,2021.2.3,Win32,60.0024001,613a97eb7b538ffbbc132c24,626b377229c10585ec392f89,626b3ac0a550e3a616c6f8df,,,,,,,,,,,,,,,,,,,,,,,a,0,0.8633,"[""0.111"",""0.304"",""0.405"",""0.698""]","[1,1,0,1]",0,32,32,32,1,1,0,,,1,FALSE,,,,,,,,,,,,,,,,,,,,,,,,,,,,,,
,613a97eb7b538ffbbc132c24,001,2022-04-28_20h13.22.340,classification_task,2021.2.3,Win32,60.0024001,613a97eb7b538ffbbc132c24,626b377229c10585ec392f89,626b3ac0a550e3a616c6f8df,,,,,,,,,,,,,,,,,,,,,,,a,0,0.7174,"[""0.145"",""0.259"",""0.451"",""0.769""]","[0,1,1,1]",0,33,33,33,1,1,1,,,1,FALSE,,,,,,,,,,,,,,,,,,,,,,,,,,,,,,
,613a97eb7b538ffbbc132c24,001,2022-04-28_20h13.22.340,classification_task,2021.2.3,Win32,60.0024001,613a97eb7b538ffbbc132c24,626b377229c10585ec392f89,626b3ac0a550e3a616c6f8df,,,,,,,,,,,,,,,,,,,,,,,l,0,0.7327,"[""0.224"",""0.367"",""0.894"",""0.642""]","[1,1,1,0]",0,34,34,34,1,0,1,,,1,FALSE,,,,,,,,,,,,,,,,,,,,,,,,,,,,,,
,613a97eb7b538ffbbc132c24,001,2022-04-28_20h13.22.340,classification_task,2021.2.3,Win32,60.0024001,613a97eb7b538ffbbc132c24,626b377229c10585ec392f89,626b3ac0a550e3a616c6f8df,,,,,,,,,,,,,,,,,,,,,,,a,1,0.5379,"[""0.189"",""0.508"",""0.818"",""0.414""]","[1,1,1,0]",0,35,35,35,1,0,0,,,1,FALSE,,,,,,,,,,,,,,,,,,,,,,,,,,,,,,
,613a97eb7b538ffbbc132c24,001,2022-04-28_20h13.22.340,classification_task,2021.2.3,Win32,60.0024001,613a97eb7b538ffbbc132c24,626b377229c10585ec392f89,626b3ac0a550e3a616c6f8df,,,,,,,,,,,,,,,,,,,,,,,a,0,3.3886,"[""0.111"",""0.304"",""0.549"",""0.145""]","[1,1,1,0]",0,36,36,36,1,1,0,,,1,FALSE,,,,,,,,,,,,,,,,,,,,,,,,,,,,,,
,613a97eb7b538ffbbc132c24,001,2022-04-28_20h13.22.340,classification_task,2021.2.3,Win32,60.0024001,613a97eb7b538ffbbc132c24,626b377229c10585ec392f89,626b3ac0a550e3a616c6f8df,,,,,,,,,,,,,,,,,,,,,,,l,1,2.8298,"[""0.662"",""0.304"",""0.549"",""0.698""]","[0,1,1,1]",0,37,37,37,1,1,0,,,1,FALSE,,,,,,,,,,,,,,,,,,,,,,,,,,,,,,
,613a97eb7b538ffbbc132c24,001,2022-04-28_20h13.22.340,classification_task,2021.2.3,Win32,60.0024001,613a97eb7b538ffbbc132c24,626b377229c10585ec392f89,626b3ac0a550e3a616c6f8df,,,,,,,,,,,,,,,,,,,,,,,l,0,1.4018,"[""0.224"",""0.367"",""0.662"",""0.929""]","[1,1,0,1]",0,38,38,38,1,0,1,,,1,FALSE,,,,,,,,,,,,,,,,,,,,,,,,,,,,,,
,613a97eb7b538ffbbc132c24,001,2022-04-28_20h13.22.340,classification_task,2021.2.3,Win32,60.0024001,613a97eb7b538ffbbc132c24,626b377229c10585ec392f89,626b3ac0a550e3a616c6f8df,,,,,,,,,,,,,,,,,,,,,,,a,1,1.4053,"[""0.189"",""0.508"",""0.405"",""0.856""]","[1,1,0,1]",0,39,39,39,1,0,0,,,1,FALSE,,,,,,,,,,,,,,,,,,,,,,,,,,,,,,
,613a97eb7b538ffbbc132c24,001,2022-04-28_20h13.22.340,classification_task,2021.2.3,Win32,60.0024001,613a97eb7b538ffbbc132c24,626b377229c10585ec392f89,626b3ac0a550e3a616c6f8df,,,,,,,,,,,,,,,,,,,,,,,l,1,2.2995,"[""0.050"",""0.259"",""0.662"",""0.769""]","[1,1,0,1]",0,40,40,40,1,1,1,,,1,FALSE,,,,,,,,,,,,,,,,,,,,,,,,,,,,,,
,613a97eb7b538ffbbc132c24,001,2022-04-28_20h13.22.340,classification_task,2021.2.3,Win32,60.0024001,613a97eb7b538ffbbc132c24,626b377229c10585ec392f89,626b3ac0a550e3a616c6f8df,,,,,,,,,,,,,,,,,,,,,,,l,1,1.2767,"[""0.111"",""0.733"",""0.549"",""0.698""]","[1,0,1,1]",0,41,41,41,1,1,0,,,1,FALSE,,,,,,,,,,,,,,,,,,,,,,,,,,,,,,
,613a97eb7b538ffbbc132c24,001,2022-04-28_20h13.22.340,classification_task,2021.2.3,Win32,60.0024001,613a97eb7b538ffbbc132c24,626b377229c10585ec392f89,626b3ac0a550e3a616c6f8df,,,,,,,,,,,,,,,,,,,,,,,l,0,0.8918,"[""0.189"",""0.642"",""0.818"",""0.856""]","[1,0,1,1]",0,42,42,42,1,0,0,,,1,FALSE,,,,,,,,,,,,,,,,,,,,,,,,,,,,,,
,613a97eb7b538ffbbc132c24,001,2022-04-28_20h13.22.340,classification_task,2021.2.3,Win32,60.0024001,613a97eb7b538ffbbc132c24,626b377229c10585ec392f89,626b3ac0a550e3a616c6f8df,,,,,,,,,,,,,,,,,,,,,,,l,0,1.1469,"[""0.224"",""0.642"",""0.894"",""0.929""]","[1,0,1,1]",0,43,43,43,1,0,1,,,1,FALSE,,,,,,,,,,,,,,,,,,,,,,,,,,,,,,
,613a97eb7b538ffbbc132c24,001,2022-04-28_20h13.22.340,classification_task,2021.2.3,Win32,60.0024001,613a97eb7b538ffbbc132c24,626b377229c10585ec392f89,626b3ac0a550e3a616c6f8df,,,,,,,,,,,,,,,,,,,,,,,l,0,1.4174,"[""0.611"",""0.508"",""0.818"",""0.856""]","[0,1,1,1]",0,44,44,44,1,0,0,,,1,FALSE,,,,,,,,,,,,,,,,,,,,,,,,,,,,,,
,613a97eb7b538ffbbc132c24,001,2022-04-28_20h13.22.340,classification_task,2021.2.3,Win32,60.0024001,613a97eb7b538ffbbc132c24,626b377229c10585ec392f89,626b3ac0a550e3a616c6f8df,,,,,,,,,,,,,,,,,,,,,,,l,0,1.1265,"[""0.970"",""0.367"",""0.894"",""0.929""]","[0,1,1,1]",0,45,45,45,1,0,1,,,1,FALSE,,,,,,,,,,,,,,,,,,,,,,,,,,,,,,
,613a97eb7b538ffbbc132c24,001,2022-04-28_20h13.22.340,classification_task,2021.2.3,Win32,60.0024001,613a97eb7b538ffbbc132c24,626b377229c10585ec392f89,626b3ac0a550e3a616c6f8df,,,,,,,,,,,,,,,,,,,,,,,a,0,1.9428,"[""0.050"",""0.259"",""0.451"",""0.970""]","[1,1,1,0]",0,46,46,46,1,1,1,,,1,FALSE,,,,,,,,,,,,,,,,,,,,,,,,,,,,,,
,613a97eb7b538ffbbc132c24,001,2022-04-28_20h13.22.340,classification_task,2021.2.3,Win32,60.0024001,613a97eb7b538ffbbc132c24,626b377229c10585ec392f89,626b3ac0a550e3a616c6f8df,,,,,,,,,,,,,,,,,,,,,,,l,1,0.7636,"[""0.050"",""0.405"",""0.451"",""0.769""]","[1,0,1,1]",0,47,47,47,1,1,1,,,1,FALSE,,,,,,,,,,,,,,,,,,,,,,,,,,,,,,
,613a97eb7b538ffbbc132c24,001,2022-04-28_20h13.22.340,classification_task,2021.2.3,Win32,60.0024001,613a97eb7b538ffbbc132c24,626b377229c10585ec392f89,626b3ac0a550e3a616c6f8df,,,,,,,,,,,,,,,,,,,,,,,l,0,3.738,"[""0.189"",""0.508"",""0.403"",""0.856""]","[1,1,0,1]",0,48,48,48,1,0,0,,,1,FALSE,,,,,,,,,,,,,,,,,,,,,,,,,,,,,,
,613a97eb7b538ffbbc132c24,001,2022-04-28_20h13.22.340,classification_task,2021.2.3,Win32,60.0024001,613a97eb7b538ffbbc132c24,626b377229c10585ec392f89,626b3ac0a550e3a616c6f8df,,,,,,,,,,,,,,,,,,,,,,,l,0,1.0929,"[""0.189"",""0.508"",""0.818"",""0.152""]","[1,1,1,0]",0,49,49,49,1,0,0,,,1,FALSE,,,,,,,,,,,,,,,,,,,,,,,,,,,,,,
,613a97eb7b538ffbbc132c24,001,2022-04-28_20h13.22.340,classification_task,2021.2.3,Win32,60.0024001,613a97eb7b538ffbbc132c24,626b377229c10585ec392f89,626b3ac0a550e3a616c6f8df,,,,,,,,,,,,,,,,,,,,,,,a,0,3.6281,"[""0.111"",""0.414"",""0.549"",""0.698""]","[1,0,1,1]",0,50,50,50,1,1,0,,,1,FALSE,,,,,,,,,,,,,,,,,,,,,,,,,,,,,,
,613a97eb7b538ffbbc132c24,001,2022-04-28_20h13.22.340,classification_task,2021.2.3,Win32,60.0024001,613a97eb7b538ffbbc132c24,626b377229c10585ec392f89,626b3ac0a550e3a616c6f8df,,,,,,,,,,,,,,,,,,,,,,,a,1,3.916,"[""0.145"",""0.367"",""0.894"",""0.929""]","[0,1,1,1]",0,51,51,51,1,0,1,,,1,FALSE,,,,,,,,,,,,,,,,,,,,,,,,,,,,,,
,613a97eb7b538ffbbc132c24,001,2022-04-28_20h13.22.340,classification_task,2021.2.3,Win32,60.0024001,613a97eb7b538ffbbc132c24,626b377229c10585ec392f89,626b3ac0a550e3a616c6f8df,,,,,,,,,,,,,,,,,,,,,,,l,1,1.5617,"[""0.970"",""0.259"",""0.451"",""0.769""]","[0,1,1,1]",0,52,52,52,1,1,1,,,1,FALSE,,,,,,,,,,,,,,,,,,,,,,,,,,,,,,
,613a97eb7b538ffbbc132c24,001,2022-04-28_20h13.22.340,classification_task,2021.2.3,Win32,60.0024001,613a97eb7b538ffbbc132c24,626b377229c10585ec392f89,626b3ac0a550e3a616c6f8df,,,,,,,,,,,,,,,,,,,,,,,a,0,4.5957,"[""0.111"",""0.304"",""0.549"",""0.415""]","[1,1,1,0]",0,53,53,53,1,1,0,,,1,FALSE,,,,,,,,,,,,,,,,,,,,,,,,,,,,,,
,613a97eb7b538ffbbc132c24,001,2022-04-28_20h13.22.340,classification_task,2021.2.3,Win32,60.0024001,613a97eb7b538ffbbc132c24,626b377229c10585ec392f89,626b3ac0a550e3a616c6f8df,,,,,,,,,,,,,,,,,,,,,,,l,1,0.8687,"[""0.050"",""0.259"",""0.451"",""0.733""]","[1,1,1,0]",0,54,54,54,1,1,1,,,1,FALSE,,,,,,,,,,,,,,,,,,,,,,,,,,,,,,
,613a97eb7b538ffbbc132c24,001,2022-04-28_20h13.22.340,classification_task,2021.2.3,Win32,60.0024001,613a97eb7b538ffbbc132c24,626b377229c10585ec392f89,626b3ac0a550e3a616c6f8df,,,,,,,,,,,,,,,,,,,,,,,a,1,1.0832,"[""0.152"",""0.508"",""0.818"",""0.856""]","[0,1,1,1]",0,55,55,55,1,0,0,,,1,FALSE,,,,,,,,,,,,,,,,,,,,,,,,,,,,,,
,613a97eb7b538ffbbc132c24,001,2022-04-28_20h13.22.340,classification_task,2021.2.3,Win32,60.0024001,613a97eb7b538ffbbc132c24,626b377229c10585ec392f89,626b3ac0a550e3a616c6f8df,,,,,,,,,,,,,,,,,,,,,,,l,1,0.9566,"[""0.050"",""0.259"",""0.966"",""0.769""]","[1,1,0,1]",0,56,56,56,1,1,1,,,1,FALSE,,,,,,,,,,,,,,,,,,,,,,,,,,,,,,
,613a97eb7b538ffbbc132c24,001,2022-04-28_20h13.22.340,classification_task,2021.2.3,Win32,60.0024001,613a97eb7b538ffbbc132c24,626b377229c10585ec392f89,626b3ac0a550e3a616c6f8df,,,,,,,,,,,,,,,,,,,,,,,l,0,0.858,"[""0.224"",""0.367"",""0.894"",""0.662""]","[1,1,1,0]",0,57,57,57,1,0,1,,,1,FALSE,,,,,,,,,,,,,,,,,,,,,,,,,,,,,,
,613a97eb7b538ffbbc132c24,001,2022-04-28_20h13.22.340,classification_task,2021.2.3,Win32,60.0024001,613a97eb7b538ffbbc132c24,626b377229c10585ec392f89,626b3ac0a550e3a616c6f8df,,,,,,,,,,,,,,,,,,,,,,,a,0,1.8223,"[""0.050"",""0.415"",""0.451"",""0.769""]","[1,0,1,1]",0,58,58,58,1,1,1,,,1,FALSE,,,,,,,,,,,,,,,,,,,,,,,,,,,,,,
,613a97eb7b538ffbbc132c24,001,2022-04-28_20h13.22.340,classification_task,2021.2.3,Win32,60.0024001,613a97eb7b538ffbbc132c24,626b377229c10585ec392f89,626b3ac0a550e3a616c6f8df,,,,,,,,,,,,,,,,,,,,,,,l,1,7.153,"[""0.966"",""0.304"",""0.549"",""0.698""]","[0,1,1,1]",0,59,59,59,1,1,0,,,1,FALSE,,,,,,,,,,,,,,,,,,,,,,,,,,,,,,
,613a97eb7b538ffbbc132c24,001,2022-04-28_20h13.22.340,classification_task,2021.2.3,Win32,60.0024001,613a97eb7b538ffbbc132c24,626b377229c10585ec392f89,626b3ac0a550e3a616c6f8df,,,,,,,,,,,,,,,,,,,,,,,l,0,4.4038,"[""0.189"",""0.415"",""0.818"",""0.856""]","[1,0,1,1]",0,60,60,60,1,0,0,,,1,FALSE,,,,,,,,,,,,,,,,,,,,,,,,,,,,,,
,613a97eb7b538ffbbc132c24,001,2022-04-28_20h13.22.340,classification_task,2021.2.3,Win32,60.0024001,613a97eb7b538ffbbc132c24,626b377229c10585ec392f89,626b3ac0a550e3a616c6f8df,,,,,,,,,,,,,,,,,,,,,,,l,0,1.2431,"[""0.224"",""0.367"",""0.642"",""0.929""]","[1,1,0,1]",0,61,61,61,1,0,1,,,1,FALSE,,,,,,,,,,,,,,,,,,,,,,,,,,,,,,
,613a97eb7b538ffbbc132c24,001,2022-04-28_20h13.22.340,classification_task,2021.2.3,Win32,60.0024001,613a97eb7b538ffbbc132c24,626b377229c10585ec392f89,626b3ac0a550e3a616c6f8df,,,,,,,,,,,,,,,,,,,,,,,l,1,1.5475,"[""0.111"",""0.304"",""0.642"",""0.698""]","[1,1,0,1]",0,62,62,62,1,1,0,,,1,FALSE,,,,,,,,,,,,,,,,,,,,,,,,,,,,,,
,613a97eb7b538ffbbc132c24,001,2022-04-28_20h13.22.340,classification_task,2021.2.3,Win32,60.0024001,613a97eb7b538ffbbc132c24,626b377229c10585ec392f89,626b3ac0a550e3a616c6f8df,,,,,,,,,,,,,,,,,,,,,,,a,1,1.1867,"[""0.224"",""0.146"",""0.894"",""0.929""]","[1,0,1,1]",0,63,63,63,1,0,1,,,1,FALSE,,,,,,,,,,,,,,,,,,,,,,,,,,,,,,
,613a97eb7b538ffbbc132c24,001,2022-04-28_20h13.22.340,classification_task,2021.2.3,Win32,60.0024001,613a97eb7b538ffbbc132c24,626b377229c10585ec392f89,626b3ac0a550e3a616c6f8df,,,,,,,,,,,,,,,,,,,,,,,,,,,,,,,,,,,,,,,0, ,,0,5.247591612,249.5397,0,1,1,1,1,2,2,,,,,,,,,,,,,,,,,
,613a97eb7b538ffbbc132c24,001,2022-04-28_20h13.22.340,classification_task,2021.2.3,Win32,60.0024001,613a97eb7b538ffbbc132c24,626b377229c10585ec392f89,626b3ac0a550e3a616c6f8df,,,,,,,,,,,,,,,,,,,,,,,,,,,,,,,,,,,,,,,1,  ,,0,10,259.2531,0,1,1,1,1,2,2,,,,,,,,,,,,,,,,,
,613a97eb7b538ffbbc132c24,001,2022-04-28_20h13.22.340,classification_task,2021.2.3,Win32,60.0024001,613a97eb7b538ffbbc132c24,626b377229c10585ec392f89,626b3ac0a550e3a616c6f8df,,,,,,,,,,,,,,,,,,,,,,,,,,,,,,,,,,,,,,,2,  ,,0,7.761066246,243.6762,0,1,1,1,1,2,2,,,,,,,,,,,,,,,,,
,613a97eb7b538ffbbc132c24,001,2022-04-28_20h13.22.340,classification_task,2021.2.3,Win32,60.0024001,613a97eb7b538ffbbc132c24,626b377229c10585ec392f89,626b3ac0a550e3a616c6f8df,,,,,,,,,,,,,,,,,,,,,,,,,,,,,,,,,,,,,,,,,,,,,0,1,1,1,1,,2,,,,,,,,,,,,,,,,,
,613a97eb7b538ffbbc132c24,001,2022-04-28_20h13.22.340,classification_task,2021.2.3,Win32,60.0024001,613a97eb7b538ffbbc132c24,626b377229c10585ec392f89,626b3ac0a550e3a616c6f8df,,,,,,,,,,,,,,,,,,,,,space,20.7238,,0,,"[""0.050"",""0.259"",""0.152"",""0.769""]","[1,1,0,1]",0,0,0,0,1,1,1,,,1,FALSE,,,,,,,,,,,,,,,,,,,,,,,,,,,,,,
,613a97eb7b538ffbbc132c24,001,2022-04-28_20h13.22.340,classification_task,2021.2.3,Win32,60.0024001,613a97eb7b538ffbbc132c24,626b377229c10585ec392f89,626b3ac0a550e3a616c6f8df,,,,,,,,,,,,,,,,,,,,,,,l,0,3.8885,"[""0.611"",""0.508"",""0.818"",""0.856""]","[0,1,1,1]",0,1,1,1,1,0,0,,,1,FALSE,,,,,,,,,,,,,,,,,,,,,,,,,,,,,,
,613a97eb7b538ffbbc132c24,001,2022-04-28_20h13.22.340,classification_task,2021.2.3,Win32,60.0024001,613a97eb7b538ffbbc132c24,626b377229c10585ec392f89,626b3ac0a550e3a616c6f8df,,,,,,,,,,,,,,,,,,,,,,,a,0,5.5828,"[""0.111"",""0.611"",""0.549"",""0.698""]","[1,0,1,1]",0,2,2,2,1,1,0,,,1,FALSE,,,,,,,,,,,,,,,,,,,,,,,,,,,,,,
,613a97eb7b538ffbbc132c24,001,2022-04-28_20h13.22.340,classification_task,2021.2.3,Win32,60.0024001,613a97eb7b538ffbbc132c24,626b377229c10585ec392f89,626b3ac0a550e3a616c6f8df,,,,,,,,,,,,,,,,,,,,,,,l,1,5.559,"[""0.050"",""0.259"",""0.451"",""0.145""]","[1,1,1,0]",0,3,3,3,1,1,1,,,1,FALSE,,,,,,,,,,,,,,,,,,,,,,,,,,,,,,
,613a97eb7b538ffbbc132c24,001,2022-04-28_20h13.22.340,classification_task,2021.2.3,Win32,60.0024001,613a97eb7b538ffbbc132c24,626b377229c10585ec392f89,626b3ac0a550e3a616c6f8df,,,,,,,,,,,,,,,,,,,,,,,l,0,3.4485,"[""0.189"",""0.733"",""0.818"",""0.856""]","[1,0,1,1]",0,4,4,4,1,0,0,,,1,FALSE,,,,,,,,,,,,,,,,,,,,,,,,,,,,,,
,613a97eb7b538ffbbc132c24,001,2022-04-28_20h13.22.340,classification_task,2021.2.3,Win32,60.0024001,613a97eb7b538ffbbc132c24,626b377229c10585ec392f89,626b3ac0a550e3a616c6f8df,,,,,,,,,,,,,,,,,,,,,,,a,1,1.1558,"[""0.189"",""0.508"",""0.414"",""0.856""]","[1,1,0,1]",0,5,5,5,1,0,0,,,1,FALSE,,,,,,,,,,,,,,,,,,,,,,,,,,,,,,
,613a97eb7b538ffbbc132c24,001,2022-04-28_20h13.22.340,classification_task,2021.2.3,Win32,60.0024001,613a97eb7b538ffbbc132c24,626b377229c10585ec392f89,626b3ac0a550e3a616c6f8df,,,,,,,,,,,,,,,,,,,,,,,l,1,0.8812,"[""0.733"",""0.304"",""0.549"",""0.698""]","[0,1,1,1]",0,6,6,6,1,1,0,,,1,FALSE,,,,,,,,,,,,,,,,,,,,,,,,,,,,,,
,613a97eb7b538ffbbc132c24,001,2022-04-28_20h13.22.340,classification_task,2021.2.3,Win32,60.0024001,613a97eb7b538ffbbc132c24,626b377229c10585ec392f89,626b3ac0a550e3a616c6f8df,,,,,,,,,,,,,,,,,,,,,,,a,1,1.409,"[""0.224"",""0.367"",""0.894"",""0.970""]","[1,1,1,0]",0,7,7,7,1,0,1,,,1,FALSE,,,,,,,,,,,,,,,,,,,,,,,,,,,,,,
,613a97eb7b538ffbbc132c24,001,2022-04-28_20h13.22.340,classification_task,2021.2.3,Win32,60.0024001,613a97eb7b538ffbbc132c24,626b377229c10585ec392f89,626b3ac0a550e3a616c6f8df,,,,,,,,,,,,,,,,,,,,,,,l,0,2.8756,"[""0.224"",""0.367"",""0.401"",""0.929""]","[1,1,0,1]",0,8,8,8,1,0,1,,,1,FALSE,,,,,,,,,,,,,,,,,,,,,,,,,,,,,,
,613a97eb7b538ffbbc132c24,001,2022-04-28_20h13.22.340,classification_task,2021.2.3,Win32,60.0024001,613a97eb7b538ffbbc132c24,626b377229c10585ec392f89,626b3ac0a550e3a616c6f8df,,,,,,,,,,,,,,,,,,,,,,,l,0,1.5516,"[""0.224"",""0.633"",""0.894"",""0.929""]","[1,0,1,1]",0,9,9,9,1,0,1,,,1,FALSE,,,,,,,,,,,,,,,,,,,,,,,,,,,,,,
,613a97eb7b538ffbbc132c24,001,2022-04-28_20h13.22.340,classification_task,2021.2.3,Win32,60.0024001,613a97eb7b538ffbbc132c24,626b377229c10585ec392f89,626b3ac0a550e3a616c6f8df,,,,,,,,,,,,,,,,,,,,,,,l,1,4.0696,"[""0.111"",""0.304"",""0.549"",""0.145""]","[1,1,1,0]",0,10,10,10,1,1,0,,,1,FALSE,,,,,,,,,,,,,,,,,,,,,,,,,,,,,,
,613a97eb7b538ffbbc132c24,001,2022-04-28_20h13.22.340,classification_task,2021.2.3,Win32,60.0024001,613a97eb7b538ffbbc132c24,626b377229c10585ec392f89,626b3ac0a550e3a616c6f8df,,,,,,,,,,,,,,,,,,,,,,,a,1,2.5361,"[""0.189"",""0.508"",""0.818"",""0.733""]","[1,1,1,0]",0,11,11,11,1,0,0,,,1,FALSE,,,,,,,,,,,,,,,,,,,,,,,,,,,,,,
,613a97eb7b538ffbbc132c24,001,2022-04-28_20h13.22.340,classification_task,2021.2.3,Win32,60.0024001,613a97eb7b538ffbbc132c24,626b377229c10585ec392f89,626b3ac0a550e3a616c6f8df,,,,,,,,,,,,,,,,,,,,,,,a,0,1.5332,"[""0.050"",""0.611"",""0.451"",""0.769""]","[1,0,1,1]",0,12,12,12,1,1,1,,,1,FALSE,,,,,,,,,,,,,,,,,,,,,,,,,,,,,,
,613a97eb7b538ffbbc132c24,001,2022-04-28_20h13.22.340,classification_task,2021.2.3,Win32,60.0024001,613a97eb7b538ffbbc132c24,626b377229c10585ec392f89,626b3ac0a550e3a616c6f8df,,,,,,,,,,,,,,,,,,,,,,,l,1,1.4488,"[""0.111"",""0.304"",""0.145"",""0.698""]","[1,1,0,1]",0,13,13,13,1,1,0,,,1,FALSE,,,,,,,,,,,,,,,,,,,,,,,,,,,,,,
,613a97eb7b538ffbbc132c24,001,2022-04-28_20h13.22.340,classification_task,2021.2.3,Win32,60.0024001,613a97eb7b538ffbbc132c24,626b377229c10585ec392f89,626b3ac0a550e3a616c6f8df,,,,,,,,,,,,,,,,,,,,,,,a,0,2.3485,"[""0.145"",""0.259"",""0.451"",""0.769""]","[0,1,1,1]",0,14,14,14,1,1,1,,,1,FALSE,,,,,,,,,,,,,,,,,,,,,,,,,,,,,,
,613a97eb7b538ffbbc132c24,001,2022-04-28_20h13.22.340,classification_task,2021.2.3,Win32,60.0024001,613a97eb7b538ffbbc132c24,626b377229c10585ec392f89,626b3ac0a550e3a616c6f8df,,,,,,,,,,,,,,,,,,,,,,,l,0,1.6422,"[""0.642"",""0.367"",""0.894"",""0.929""]","[0,1,1,1]",0,15,15,15,1,0,1,,,1,FALSE,,,,,,,,,,,,,,,,,,,,,,,,,,,,,,
,613a97eb7b538ffbbc132c24,001,2022-04-28_20h13.22.340,classification_task,2021.2.3,Win32,60.0024001,613a97eb7b538ffbbc132c24,626b377229c10585ec392f89,626b3ac0a550e3a616c6f8df,,,,,,,,,,,,,,,,,,,,,,,a,1,0.7141,"[""0.189"",""0.508"",""0.611"",""0.856""]","[1,1,0,1]",0,16,16,16,1,0,0,,,1,FALSE,,,,,,,,,,,,,,,,,,,,,,,,,,,,,,
,613a97eb7b538ffbbc132c24,001,2022-04-28_20h13.22.340,classification_task,2021.2.3,Win32,60.0024001,613a97eb7b538ffbbc132c24,626b377229c10585ec392f89,626b3ac0a550e3a616c6f8df,,,,,,,,,,,,,,,,,,,,,,,l,0,1.9649,"[""0.146"",""0.367"",""0.894"",""0.929""]","[0,1,1,1]",0,17,17,17,1,0,1,,,1,FALSE,,,,,,,,,,,,,,,,,,,,,,,,,,,,,,
,613a97eb7b538ffbbc132c24,001,2022-04-28_20h13.22.340,classification_task,2021.2.3,Win32,60.0024001,613a97eb7b538ffbbc132c24,626b377229c10585ec392f89,626b3ac0a550e3a616c6f8df,,,,,,,,,,,,,,,,,,,,,,,l,0,1.3803,"[""0.224"",""0.146"",""0.894"",""0.929""]","[1,0,1,1]",0,18,18,18,1,0,1,,,1,FALSE,,,,,,,,,,,,,,,,,,,,,,,,,,,,,,
,613a97eb7b538ffbbc132c24,001,2022-04-28_20h13.22.340,classification_task,2021.2.3,Win32,60.0024001,613a97eb7b538ffbbc132c24,626b377229c10585ec392f89,626b3ac0a550e3a616c6f8df,,,,,,,,,,,,,,,,,,,,,,,a,0,0.8387,"[""0.050"",""0.966"",""0.451"",""0.769""]","[1,0,1,1]",0,19,19,19,1,1,1,,,1,FALSE,,,,,,,,,,,,,,,,,,,,,,,,,,,,,,
,613a97eb7b538ffbbc132c24,001,2022-04-28_20h13.22.340,classification_task,2021.2.3,Win32,60.0024001,613a97eb7b538ffbbc132c24,626b377229c10585ec392f89,626b3ac0a550e3a616c6f8df,,,,,,,,,,,,,,,,,,,,,,,a,1,0.654,"[""0.189"",""0.508"",""0.818"",""0.629""]","[1,1,1,0]",0,20,20,20,1,0,0,,,1,FALSE,,,,,,,,,,,,,,,,,,,,,,,,,,,,,,
,613a97eb7b538ffbbc132c24,001,2022-04-28_20h13.22.340,classification_task,2021.2.3,Win32,60.0024001,613a97eb7b538ffbbc132c24,626b377229c10585ec392f89,626b3ac0a550e3a616c6f8df,,,,,,,,,,,,,,,,,,,,,,,a,0,1.3009,"[""0.111"",""0.304"",""0.549"",""0.633""]","[1,1,1,0]",0,21,21,21,1,1,0,,,1,FALSE,,,,,,,,,,,,,,,,,,,,,,,,,,,,,,
,613a97eb7b538ffbbc132c24,001,2022-04-28_20h13.22.340,classification_task,2021.2.3,Win32,60.0024001,613a97eb7b538ffbbc132c24,626b377229c10585ec392f89,626b3ac0a550e3a616c6f8df,,,,,,,,,,,,,,,,,,,,,,,l,1,1.1448,"[""0.050"",""0.259"",""0.733"",""0.769""]","[1,1,0,1]",0,22,22,22,1,1,1,,,1,FALSE,,,,,,,,,,,,,,,,,,,,,,,,,,,,,,
,613a97eb7b538ffbbc132c24,001,2022-04-28_20h13.22.340,classification_task,2021.2.3,Win32,60.0024001,613a97eb7b538ffbbc132c24,626b377229c10585ec392f89,626b3ac0a550e3a616c6f8df,,,,,,,,,,,,,,,,,,,,,,,a,0,1.1588,"[""0.152"",""0.259"",""0.451"",""0.769""]","[0,1,1,1]",0,23,23,23,1,1,1,,,1,FALSE,,,,,,,,,,,,,,,,,,,,,,,,,,,,,,
,613a97eb7b538ffbbc132c24,001,2022-04-28_20h13.22.340,classification_task,2021.2.3,Win32,60.0024001,613a97eb7b538ffbbc132c24,626b377229c10585ec392f89,626b3ac0a550e3a616c6f8df,,,,,,,,,,,,,,,,,,,,,,,a,1,1.313,"[""0.224"",""0.367"",""0.894"",""0.966""]","[1,1,1,0]",0,24,24,24,1,0,1,,,1,FALSE,,,,,,,,,,,,,,,,,,,,,,,,,,,,,,
,613a97eb7b538ffbbc132c24,001,2022-04-28_20h13.22.340,classification_task,2021.2.3,Win32,60.0024001,613a97eb7b538ffbbc132c24,626b377229c10585ec392f89,626b3ac0a550e3a616c6f8df,,,,,,,,,,,,,,,,,,,,,,,l,0,1.4737,"[""0.642"",""0.508"",""0.818"",""0.856""]","[0,1,1,1]",0,25,25,25,1,0,0,,,1,FALSE,,,,,,,,,,,,,,,,,,,,,,,,,,,,,,
,613a97eb7b538ffbbc132c24,001,2022-04-28_20h13.22.340,classification_task,2021.2.3,Win32,60.0024001,613a97eb7b538ffbbc132c24,626b377229c10585ec392f89,626b3ac0a550e3a616c6f8df,,,,,,,,,,,,,,,,,,,,,,,a,0,1.3647,"[""0.050"",""0.259"",""0.451"",""0.966""]","[1,1,1,0]",0,26,26,26,1,1,1,,,1,FALSE,,,,,,,,,,,,,,,,,,,,,,,,,,,,,,
,613a97eb7b538ffbbc132c24,001,2022-04-28_20h13.22.340,classification_task,2021.2.3,Win32,60.0024001,613a97eb7b538ffbbc132c24,626b377229c10585ec392f89,626b3ac0a550e3a616c6f8df,,,,,,,,,,,,,,,,,,,,,,,a,0,3.2896,"[""0.111"",""0.304"",""0.403"",""0.698""]","[1,1,0,1]",0,27,27,27,1,1,0,,,1,FALSE,,,,,,,,,,,,,,,,,,,,,,,,,,,,,,
,613a97eb7b538ffbbc132c24,001,2022-04-28_20h13.22.340,classification_task,2021.2.3,Win32,60.0024001,613a97eb7b538ffbbc132c24,626b377229c10585ec392f89,626b3ac0a550e3a616c6f8df,,,,,,,,,,,,,,,,,,,,,,,l,0,5.0804,"[""0.189"",""0.629"",""0.818"",""0.856""]","[1,0,1,1]",0,28,28,28,1,0,0,,,1,FALSE,,,,,,,,,,,,,,,,,,,,,,,,,,,,,,
,613a97eb7b538ffbbc132c24,001,2022-04-28_20h13.22.340,classification_task,2021.2.3,Win32,60.0024001,613a97eb7b538ffbbc132c24,626b377229c10585ec392f89,626b3ac0a550e3a616c6f8df,,,,,,,,,,,,,,,,,,,,,,,a,0,2.1626,"[""0.146"",""0.304"",""0.549"",""0.698""]","[0,1,1,1]",0,29,29,29,1,1,0,,,1,FALSE,,,,,,,,,,,,,,,,,,,,,,,,,,,,,,
,613a97eb7b538ffbbc132c24,001,2022-04-28_20h13.22.340,classification_task,2021.2.3,Win32,60.0024001,613a97eb7b538ffbbc132c24,626b377229c10585ec392f89,626b3ac0a550e3a616c6f8df,,,,,,,,,,,,,,,,,,,,,,,a,0,1.39,"[""0.111"",""0.966"",""0.549"",""0.698""]","[1,0,1,1]",0,30,30,30,1,1,0,,,1,FALSE,,,,,,,,,,,,,,,,,,,,,,,,,,,,,,
,613a97eb7b538ffbbc132c24,001,2022-04-28_20h13.22.340,classification_task,2021.2.3,Win32,60.0024001,613a97eb7b538ffbbc132c24,626b377229c10585ec392f89,626b3ac0a550e3a616c6f8df,,,,,,,,,,,,,,,,,,,,,,,a,1,0.718,"[""0.224"",""0.367"",""0.642"",""0.929""]","[1,1,0,1]",0,31,31,31,1,0,1,,,1,FALSE,,,,,,,,,,,,,,,,,,,,,,,,,,,,,,
,613a97eb7b538ffbbc132c24,001,2022-04-28_20h13.22.340,classification_task,2021.2.3,Win32,60.0024001,613a97eb7b538ffbbc132c24,626b377229c10585ec392f89,626b3ac0a550e3a616c6f8df,,,,,,,,,,,,,,,,,,,,,,,a,0,1.223,"[""0.050"",""0.146"",""0.451"",""0.769""]","[1,0,1,1]",0,32,32,32,1,1,1,,,1,FALSE,,,,,,,,,,,,,,,,,,,,,,,,,,,,,,
,613a97eb7b538ffbbc132c24,001,2022-04-28_20h13.22.340,classification_task,2021.2.3,Win32,60.0024001,613a97eb7b538ffbbc132c24,626b377229c10585ec392f89,626b3ac0a550e3a616c6f8df,,,,,,,,,,,,,,,,,,,,,,,l,0,1.6234,"[""0.189"",""0.633"",""0.818"",""0.856""]","[1,0,1,1]",0,33,33,33,1,0,0,,,1,FALSE,,,,,,,,,,,,,,,,,,,,,,,,,,,,,,
,613a97eb7b538ffbbc132c24,001,2022-04-28_20h13.22.340,classification_task,2021.2.3,Win32,60.0024001,613a97eb7b538ffbbc132c24,626b377229c10585ec392f89,626b3ac0a550e3a616c6f8df,,,,,,,,,,,,,,,,,,,,,,,a,0,1.448,"[""0.111"",""0.304"",""0.549"",""0.414""]","[1,1,1,0]",0,34,34,34,1,1,0,,,1,FALSE,,,,,,,,,,,,,,,,,,,,,,,,,,,,,,
,613a97eb7b538ffbbc132c24,001,2022-04-28_20h13.22.340,classification_task,2021.2.3,Win32,60.0024001,613a97eb7b538ffbbc132c24,626b377229c10585ec392f89,626b3ac0a550e3a616c6f8df,,,,,,,,,,,,,,,,,,,,,,,l,0,1.2961,"[""0.224"",""0.367"",""0.405"",""0.929""]","[1,1,0,1]",0,35,35,35,1,0,1,,,1,FALSE,,,,,,,,,,,,,,,,,,,,,,,,,,,,,,
,613a97eb7b538ffbbc132c24,001,2022-04-28_20h13.22.340,classification_task,2021.2.3,Win32,60.0024001,613a97eb7b538ffbbc132c24,626b377229c10585ec392f89,626b3ac0a550e3a616c6f8df,,,,,,,,,,,,,,,,,,,,,,,a,1,0.7984,"[""0.224"",""0.367"",""0.894"",""0.733""]","[1,1,1,0]",0,36,36,36,1,0,1,,,1,FALSE,,,,,,,,,,,,,,,,,,,,,,,,,,,,,,
,613a97eb7b538ffbbc132c24,001,2022-04-28_20h13.22.340,classification_task,2021.2.3,Win32,60.0024001,613a97eb7b538ffbbc132c24,626b377229c10585ec392f89,626b3ac0a550e3a616c6f8df,,,,,,,,,,,,,,,,,,,,,,,a,0,1.2993,"[""0.966"",""0.304"",""0.549"",""0.698""]","[0,1,1,1]",0,37,37,37,1,1,0,,,1,FALSE,,,,,,,,,,,,,,,,,,,,,,,,,,,,,,
,613a97eb7b538ffbbc132c24,001,2022-04-28_20h13.22.340,classification_task,2021.2.3,Win32,60.0024001,613a97eb7b538ffbbc132c24,626b377229c10585ec392f89,626b3ac0a550e3a616c6f8df,,,,,,,,,,,,,,,,,,,,,,,a,0,1.2965,"[""0.050"",""0.259"",""0.611"",""0.769""]","[1,1,0,1]",0,38,38,38,1,1,1,,,1,FALSE,,,,,,,,,,,,,,,,,,,,,,,,,,,,,,
,613a97eb7b538ffbbc132c24,001,2022-04-28_20h13.22.340,classification_task,2021.2.3,Win32,60.0024001,613a97eb7b538ffbbc132c24,626b377229c10585ec392f89,626b3ac0a550e3a616c6f8df,,,,,,,,,,,,,,,,,,,,,,,l,1,0.9042,"[""0.405"",""0.259"",""0.451"",""0.769""]","[0,1,1,1]",0,39,39,39,1,1,1,,,1,FALSE,,,,,,,,,,,,,,,,,,,,,,,,,,,,,,
,613a97eb7b538ffbbc132c24,001,2022-04-28_20h13.22.340,classification_task,2021.2.3,Win32,60.0024001,613a97eb7b538ffbbc132c24,626b377229c10585ec392f89,626b3ac0a550e3a616c6f8df,,,,,,,,,,,,,,,,,,,,,,,l,0,0.6932,"[""0.642"",""0.508"",""0.818"",""0.856""]","[0,1,1,1]",0,40,40,40,1,0,0,,,1,FALSE,,,,,,,,,,,,,,,,,,,,,,,,,,,,,,
,613a97eb7b538ffbbc132c24,001,2022-04-28_20h13.22.340,classification_task,2021.2.3,Win32,60.0024001,613a97eb7b538ffbbc132c24,626b377229c10585ec392f89,626b3ac0a550e3a616c6f8df,,,,,,,,,,,,,,,,,,,,,,,a,0,0.7436,"[""0.111"",""0.970"",""0.549"",""0.698""]","[1,0,1,1]",0,41,41,41,1,1,0,,,1,FALSE,,,,,,,,,,,,,,,,,,,,,,,,,,,,,,
,613a97eb7b538ffbbc132c24,001,2022-04-28_20h13.22.340,classification_task,2021.2.3,Win32,60.0024001,613a97eb7b538ffbbc132c24,626b377229c10585ec392f89,626b3ac0a550e3a616c6f8df,,,,,,,,,,,,,,,,,,,,,,,l,1,1.094,"[""0.111"",""0.304"",""0.733"",""0.698""]","[1,1,0,1]",0,42,42,42,1,1,0,,,1,FALSE,,,,,,,,,,,,,,,,,,,,,,,,,,,,,,
,613a97eb7b538ffbbc132c24,001,2022-04-28_20h13.22.340,classification_task,2021.2.3,Win32,60.0024001,613a97eb7b538ffbbc132c24,626b377229c10585ec392f89,626b3ac0a550e3a616c6f8df,,,,,,,,,,,,,,,,,,,,,,,l,0,1.3034,"[""0.662"",""0.367"",""0.894"",""0.929""]","[0,1,1,1]",0,43,43,43,1,0,1,,,1,FALSE,,,,,,,,,,,,,,,,,,,,,,,,,,,,,,
,613a97eb7b538ffbbc132c24,001,2022-04-28_20h13.22.340,classification_task,2021.2.3,Win32,60.0024001,613a97eb7b538ffbbc132c24,626b377229c10585ec392f89,626b3ac0a550e3a616c6f8df,,,,,,,,,,,,,,,,,,,,,,,a,0,0.7975,"[""0.050"",""0.259"",""0.451"",""0.152""]","[1,1,1,0]",0,44,44,44,1,1,1,,,1,FALSE,,,,,,,,,,,,,,,,,,,,,,,,,,,,,,
,613a97eb7b538ffbbc132c24,001,2022-04-28_20h13.22.340,classification_task,2021.2.3,Win32,60.0024001,613a97eb7b538ffbbc132c24,626b377229c10585ec392f89,626b3ac0a550e3a616c6f8df,,,,,,,,,,,,,,,,,,,,,,,a,1,0.7488,"[""0.189"",""0.508"",""0.818"",""0.629""]","[1,1,1,0]",0,45,45,45,1,0,0,,,1,FALSE,,,,,,,,,,,,,,,,,,,,,,,,,,,,,,
,613a97eb7b538ffbbc132c24,001,2022-04-28_20h13.22.340,classification_task,2021.2.3,Win32,60.0024001,613a97eb7b538ffbbc132c24,626b377229c10585ec392f89,626b3ac0a550e3a616c6f8df,,,,,,,,,,,,,,,,,,,,,,,l,0,0.7977,"[""0.224"",""0.152"",""0.894"",""0.929""]","[1,0,1,1]",0,46,46,46,1,0,1,,,1,FALSE,,,,,,,,,,,,,,,,,,,,,,,,,,,,,,
,613a97eb7b538ffbbc132c24,001,2022-04-28_20h13.22.340,classification_task,2021.2.3,Win32,60.0024001,613a97eb7b538ffbbc132c24,626b377229c10585ec392f89,626b3ac0a550e3a616c6f8df,,,,,,,,,,,,,,,,,,,,,,,a,1,0.7426,"[""0.189"",""0.508"",""0.611"",""0.856""]","[1,1,0,1]",0,47,47,47,1,0,0,,,1,FALSE,,,,,,,,,,,,,,,,,,,,,,,,,,,,,,
,613a97eb7b538ffbbc132c24,001,2022-04-28_20h13.22.340,classification_task,2021.2.3,Win32,60.0024001,613a97eb7b538ffbbc132c24,626b377229c10585ec392f89,626b3ac0a550e3a616c6f8df,,,,,,,,,,,,,,,,,,,,,,,a,1,0.6556,"[""0.189"",""0.508"",""0.818"",""0.966""]","[1,1,1,0]",0,48,48,48,1,0,0,,,1,FALSE,,,,,,,,,,,,,,,,,,,,,,,,,,,,,,
,613a97eb7b538ffbbc132c24,001,2022-04-28_20h13.22.340,classification_task,2021.2.3,Win32,60.0024001,613a97eb7b538ffbbc132c24,626b377229c10585ec392f89,626b3ac0a550e3a616c6f8df,,,,,,,,,,,,,,,,,,,,,,,l,0,1.0063,"[""0.224"",""0.152"",""0.894"",""0.929""]","[1,0,1,1]",0,49,49,49,1,0,1,,,1,FALSE,,,,,,,,,,,,,,,,,,,,,,,,,,,,,,
,613a97eb7b538ffbbc132c24,001,2022-04-28_20h13.22.340,classification_task,2021.2.3,Win32,60.0024001,613a97eb7b538ffbbc132c24,626b377229c10585ec392f89,626b3ac0a550e3a616c6f8df,,,,,,,,,,,,,,,,,,,,,,,a,0,0.702,"[""0.111"",""0.403"",""0.549"",""0.698""]","[1,0,1,1]",0,50,50,50,1,1,0,,,1,FALSE,,,,,,,,,,,,,,,,,,,,,,,,,,,,,,
,613a97eb7b538ffbbc132c24,001,2022-04-28_20h13.22.340,classification_task,2021.2.3,Win32,60.0024001,613a97eb7b538ffbbc132c24,626b377229c10585ec392f89,626b3ac0a550e3a616c6f8df,,,,,,,,,,,,,,,,,,,,,,,a,1,3.2255,"[""0.189"",""0.508"",""0.415"",""0.856""]","[1,1,0,1]",0,51,51,51,1,0,0,,,1,FALSE,,,,,,,,,,,,,,,,,,,,,,,,,,,,,,
,613a97eb7b538ffbbc132c24,001,2022-04-28_20h13.22.340,classification_task,2021.2.3,Win32,60.0024001,613a97eb7b538ffbbc132c24,626b377229c10585ec392f89,626b3ac0a550e3a616c6f8df,,,,,,,,,,,,,,,,,,,,,,,a,0,1.4186,"[""0.111"",""0.304"",""0.549"",""0.405""]","[1,1,1,0]",0,52,52,52,1,1,0,,,1,FALSE,,,,,,,,,,,,,,,,,,,,,,,,,,,,,,
,613a97eb7b538ffbbc132c24,001,2022-04-28_20h13.22.340,classification_task,2021.2.3,Win32,60.0024001,613a97eb7b538ffbbc132c24,626b377229c10585ec392f89,626b3ac0a550e3a616c6f8df,,,,,,,,,,,,,,,,,,,,,,,l,0,4.1644,"[""0.642"",""0.367"",""0.894"",""0.929""]","[0,1,1,1]",0,53,53,53,1,0,1,,,1,FALSE,,,,,,,,,,,,,,,,,,,,,,,,,,,,,,
,613a97eb7b538ffbbc132c24,001,2022-04-28_20h13.22.340,classification_task,2021.2.3,Win32,60.0024001,613a97eb7b538ffbbc132c24,626b377229c10585ec392f89,626b3ac0a550e3a616c6f8df,,,,,,,,,,,,,,,,,,,,,,,l,1,2.6622,"[""0.050"",""0.259"",""0.451"",""0.415""]","[1,1,1,0]",0,54,54,54,1,1,1,,,1,FALSE,,,,,,,,,,,,,,,,,,,,,,,,,,,,,,
,613a97eb7b538ffbbc132c24,001,2022-04-28_20h13.22.340,classification_task,2021.2.3,Win32,60.0024001,613a97eb7b538ffbbc132c24,626b377229c10585ec392f89,626b3ac0a550e3a616c6f8df,,,,,,,,,,,,,,,,,,,,,,,l,0,2.7598,"[""0.224"",""0.367"",""0.894"",""0.405""]","[1,1,1,0]",0,55,55,55,1,0,1,,,1,FALSE,,,,,,,,,,,,,,,,,,,,,,,,,,,,,,
,613a97eb7b538ffbbc132c24,001,2022-04-28_20h13.22.340,classification_task,2021.2.3,Win32,60.0024001,613a97eb7b538ffbbc132c24,626b377229c10585ec392f89,626b3ac0a550e3a616c6f8df,,,,,,,,,,,,,,,,,,,,,,,l,1,0.6148,"[""0.733"",""0.259"",""0.451"",""0.769""]","[0,1,1,1]",0,56,56,56,1,1,1,,,1,FALSE,,,,,,,,,,,,,,,,,,,,,,,,,,,,,,
,613a97eb7b538ffbbc132c24,001,2022-04-28_20h13.22.340,classification_task,2021.2.3,Win32,60.0024001,613a97eb7b538ffbbc132c24,626b377229c10585ec392f89,626b3ac0a550e3a616c6f8df,,,,,,,,,,,,,,,,,,,,,,,l,0,2.4686,"[""0.152"",""0.508"",""0.818"",""0.856""]","[0,1,1,1]",0,57,57,57,1,0,0,,,1,FALSE,,,,,,,,,,,,,,,,,,,,,,,,,,,,,,
,613a97eb7b538ffbbc132c24,001,2022-04-28_20h13.22.340,classification_task,2021.2.3,Win32,60.0024001,613a97eb7b538ffbbc132c24,626b377229c10585ec392f89,626b3ac0a550e3a616c6f8df,,,,,,,,,,,,,,,,,,,,,,,a,0,1.4535,"[""0.050"",""0.259"",""0.401"",""0.769""]","[1,1,0,1]",0,58,58,58,1,1,1,,,1,FALSE,,,,,,,,,,,,,,,,,,,,,,,,,,,,,,
,613a97eb7b538ffbbc132c24,001,2022-04-28_20h13.22.340,classification_task,2021.2.3,Win32,60.0024001,613a97eb7b538ffbbc132c24,626b377229c10585ec392f89,626b3ac0a550e3a616c6f8df,,,,,,,,,,,,,,,,,,,,,,,a,0,1.0624,"[""0.633"",""0.304"",""0.549"",""0.698""]","[0,1,1,1]",0,59,59,59,1,1,0,,,1,FALSE,,,,,,,,,,,,,,,,,,,,,,,,,,,,,,
,613a97eb7b538ffbbc132c24,001,2022-04-28_20h13.22.340,classification_task,2021.2.3,Win32,60.0024001,613a97eb7b538ffbbc132c24,626b377229c10585ec392f89,626b3ac0a550e3a616c6f8df,,,,,,,,,,,,,,,,,,,,,,,l,0,2.339,"[""0.224"",""0.367"",""0.970"",""0.929""]","[1,1,0,1]",0,60,60,60,1,0,1,,,1,FALSE,,,,,,,,,,,,,,,,,,,,,,,,,,,,,,
,613a97eb7b538ffbbc132c24,001,2022-04-28_20h13.22.340,classification_task,2021.2.3,Win32,60.0024001,613a97eb7b538ffbbc132c24,626b377229c10585ec392f89,626b3ac0a550e3a616c6f8df,,,,,,,,,,,,,,,,,,,,,,,l,1,1.6203,"[""0.050"",""0.403"",""0.451"",""0.769""]","[1,0,1,1]",0,61,61,61,1,1,1,,,1,FALSE,,,,,,,,,,,,,,,,,,,,,,,,,,,,,,
,613a97eb7b538ffbbc132c24,001,2022-04-28_20h13.22.340,classification_task,2021.2.3,Win32,60.0024001,613a97eb7b538ffbbc132c24,626b377229c10585ec392f89,626b3ac0a550e3a616c6f8df,,,,,,,,,,,,,,,,,,,,,,,a,0,0.8943,"[""0.111"",""0.304"",""0.414"",""0.698""]","[1,1,0,1]",0,62,62,62,1,1,0,,,1,FALSE,,,,,,,,,,,,,,,,,,,,,,,,,,,,,,
,613a97eb7b538ffbbc132c24,001,2022-04-28_20h13.22.340,classification_task,2021.2.3,Win32,60.0024001,613a97eb7b538ffbbc132c24,626b377229c10585ec392f89,626b3ac0a550e3a616c6f8df,,,,,,,,,,,,,,,,,,,,,,,l,0,3.3643,"[""0.189"",""0.733"",""0.818"",""0.856""]","[1,0,1,1]",0,63,63,63,1,0,0,,,1,FALSE,,,,,,,,,,,,,,,,,,,,,,,,,,,,,,
,613a97eb7b538ffbbc132c24,001,2022-04-28_20h13.22.340,classification_task,2021.2.3,Win32,60.0024001,613a97eb7b538ffbbc132c24,626b377229c10585ec392f89,626b3ac0a550e3a616c6f8df,,,,,,,,,,,,,,,,,,,,,,,,,,,,,,,,,,,,,,,0, ,,0,4.386813312,259.0187,0,2,2,2,1,2,3,,,,,,,,,,,,,,,,,
,613a97eb7b538ffbbc132c24,001,2022-04-28_20h13.22.340,classification_task,2021.2.3,Win32,60.0024001,613a97eb7b538ffbbc132c24,626b377229c10585ec392f89,626b3ac0a550e3a616c6f8df,,,,,,,,,,,,,,,,,,,,,,,,,,,,,,,,,,,,,,,1,  ,,0,10,254.9915,0,2,2,2,1,2,3,,,,,,,,,,,,,,,,,
,613a97eb7b538ffbbc132c24,001,2022-04-28_20h13.22.340,classification_task,2021.2.3,Win32,60.0024001,613a97eb7b538ffbbc132c24,626b377229c10585ec392f89,626b3ac0a550e3a616c6f8df,,,,,,,,,,,,,,,,,,,,,,,,,,,,,,,,,,,,,,,2,  ,,0,9.930227064,256.0275,0,2,2,2,1,2,3,,,,,,,,,,,,,,,,,
,613a97eb7b538ffbbc132c24,001,2022-04-28_20h13.22.340,classification_task,2021.2.3,Win32,60.0024001,613a97eb7b538ffbbc132c24,626b377229c10585ec392f89,626b3ac0a550e3a616c6f8df,,,,,,,,,,,,,,,,,,,,,,,,,,,,,,,,,,,,,,,,,,,,,0,2,2,2,1,,3,,,,,,,,,,,,,,,,,
,613a97eb7b538ffbbc132c24,001,2022-04-28_20h13.22.340,classification_task,2021.2.3,Win32,60.0024001,613a97eb7b538ffbbc132c24,626b377229c10585ec392f89,626b3ac0a550e3a616c6f8df,,,,,,,,,,,,,,,,,,,,,,,,,,,,,,,,,,,,,,,,,,,,,,,,,,,,,I believe the aid is a competent performer,,0.7,0,4,1267.9269,0,0,0,0,1,0,,,,
,613a97eb7b538ffbbc132c24,001,2022-04-28_20h13.22.340,classification_task,2021.2.3,Win32,60.0024001,613a97eb7b538ffbbc132c24,626b377229c10585ec392f89,626b3ac0a550e3a616c6f8df,,,,,,,,,,,,,,,,,,,,,,,,,,,,,,,,,,,,,,,,,,,,,,,,,,,,,I trust the aid,,0.7,0,3,1269.9918,0,0,0,0,1,0,,,,
,613a97eb7b538ffbbc132c24,001,2022-04-28_20h13.22.340,classification_task,2021.2.3,Win32,60.0024001,613a97eb7b538ffbbc132c24,626b377229c10585ec392f89,626b3ac0a550e3a616c6f8df,,,,,,,,,,,,,,,,,,,,,,,,,,,,,,,,,,,,,,,,,,,,,,,,,,,,,I have confidence in the advice given by the aid,,0.7,0,3,1274.5759,0,0,0,0,1,0,,,,
,613a97eb7b538ffbbc132c24,001,2022-04-28_20h13.22.340,classification_task,2021.2.3,Win32,60.0024001,613a97eb7b538ffbbc132c24,626b377229c10585ec392f89,626b3ac0a550e3a616c6f8df,,,,,,,,,,,,,,,,,,,,,,,,,,,,,,,,,,,,,,,,,,,,,,,,,,,,,I can depend on the aid,,0.7,0,4,1279.2082,0,0,0,0,1,0,,,,
,613a97eb7b538ffbbc132c24,001,2022-04-28_20h13.22.340,classification_task,2021.2.3,Win32,60.0024001,613a97eb7b538ffbbc132c24,626b377229c10585ec392f89,626b3ac0a550e3a616c6f8df,,,,,,,,,,,,,,,,,,,,,,,,,,,,,,,,,,,,,,,,,,,,,,,,,,,,,I can rely on the aid to behave in consistent ways,,0.7,0,2,1285.3773,0,0,0,0,1,0,,,,
,613a97eb7b538ffbbc132c24,001,2022-04-28_20h13.22.340,classification_task,2021.2.3,Win32,60.0024001,613a97eb7b538ffbbc132c24,626b377229c10585ec392f89,626b3ac0a550e3a616c6f8df,,,,,,,,,,,,,,,,,,,,,,,,,,,,,,,,,,,,,,,,,,,,,,,,,,,,,I can rely on the aid to do its best every time I take its advice,,0.7,0,3,1297.6606,0,0,0,0,1,0,,,,
,613a97eb7b538ffbbc132c24,001,2022-04-28_20h13.22.340,classification_task,2021.2.3,Win32,60.0024001,613a97eb7b538ffbbc132c24,626b377229c10585ec392f89,626b3ac0a550e3a616c6f8df,,,,,,,,,,,,,,,,,,,,,,,,,,,,,,,,,,,,,,,,,,,,,,,,,,,,,"On trials you completed with assistance from the aid, how frequently did you think the aid was correct?",,0.7,0,60%,,0,0,0,0,1,0,,,,
,613a97eb7b538ffbbc132c24,001,2022-04-28_20h13.22.340,classification_task,2021.2.3,Win32,60.0024001,613a97eb7b538ffbbc132c24,626b377229c10585ec392f89,626b3ac0a550e3a616c6f8df,,,,,,,,,,,,,,,,,,,,,,,,,,,,,,,,,,,,,,,,,,,,,,,,,,,,,"On trials you completed without the aid, how frequently did you think you were correct?",,0.7,0,30 %,,0,0,0,0,1,0,,,,
,613a97eb7b538ffbbc132c24,001,2022-04-28_20h13.22.340,classification_task,2021.2.3,Win32,60.0024001,613a97eb7b538ffbbc132c24,626b377229c10585ec392f89,626b3ac0a550e3a616c6f8df,,,,,,,,,,,,,,,,,,,,,,,,,,,,,,,,,,,,,,,,,,,,,,,,,,,,,,,,,,,0,0,0,0,1,,,,,
,613a97eb7b538ffbbc132c24,001,2022-04-28_20h13.22.340,classification_task,2021.2.3,Win32,60.0024001,613a97eb7b538ffbbc132c24,626b377229c10585ec392f89,626b3ac0a550e3a616c6f8df,,,,,,,,,,,,,,,,,,,,,,,,,,,,,,,,,,,,,,,,,,,,,,,,,,,,,,,,,,,,,,,,,space,23.0697,1409.6192,
,613a97eb7b538ffbbc132c24,001,2022-04-28_20h13.22.340,classification_task,2021.2.3,Win32,60.0024001,613a97eb7b538ffbbc132c24,626b377229c10585ec392f89,626b3ac0a550e3a616c6f8df,,,,,,,,,,,,,,,,,,,,,,,,,,,,,,,,,,,,,,,,,,,,,,,,,,,,,,,,,,,,,,,,,,,,"Mozilla/5.0 (Windows NT 10.0; Win64; x64) AppleWebKit/537.36 (KHTML, like Gecko) Chrome/101.0.4951.41 Safari/537.36"
