usingWebGL,participant,session,date,expName,psychopyVersion,OS,frameRate,PROLIFIC_PID,STUDY_ID,SESSION_ID,signatures_friend,signatures_foe,band_ranges_top,band_ranges_bottom,formitemText,formtype,formundefined,formitemWidth,formindex,formresponse,formrt,key_resp_2.keys,key_resp_2.rt,tute_resp.keys,tute_resp.rt,tutorial.thisRepN,tutorial.thisTrialN,tutorial.thisN,tutorial.thisIndex,tutorial.ran,key_resp_4.keys,key_resp_4.rt,key_resp.keys,key_resp.corr,key_resp.rt,lines_presented,is_signal_presented,trials.thisRepN,trials.thisTrialN,trials.thisN,trials.thisIndex,trials.ran,vessel,active_band,lines,is_signal,supported_pos,catch_trial,debrief_formindex,debrief_formitemText,debrief_formtype,debrief_formitemWidth,debrief_formresponse,debrief_formrt,phases.thisRepN,phases.thisTrialN,phases.thisN,phases.thisIndex,phases.ran,phases.order,phase,key_resp_3.keys,trustitemText,trusttype,trustitemWidth,trustindex,trustresponse,trustrt,support_status.thisRepN,support_status.thisTrialN,support_status.thisN,support_status.thisIndex,support_status.ran,support_status.order,key_resp_5.keys,key_resp_5.rt,globalClockTime,userAgent
TRUE,613aa0162f4662712a517461,001,2022-04-28_20h11.24.092,classification_task,2021.2.3,Win32,60.09615385,613aa0162f4662712a517461,626b377229c10585ec392f89,626b3b0d0cf54eb8b1304e57,,,,,,,,,,,,,,,,,,,,,,,,,,,,,,,,,,,,,,,,,,,,,,,,,,,,,,,,,,,,,,,,,,,,
,613aa0162f4662712a517461,001,2022-04-28_20h11.24.092,classification_task,2021.2.3,Win32,60.09615385,613aa0162f4662712a517461,626b377229c10585ec392f89,626b3b0d0cf54eb8b1304e57,"[[""0.182"",""0.405"",""0.873"",""0.953""],[""0.294"",""0.452"",""0.733"",""0.910""]]","[[""0.092"",""0.217"",""0.496"",""0.830""],[""0.058"",""0.127"",""0.565"",""0.693""]]","[1,10]","[100,1000]",Video game experience,,,0.7,0,,,,,,,,,,,,,,,,,,,,,,,,,,,,,,,,,,,,,,,,,,,,,,,,,,,,,,,,,,,
,613aa0162f4662712a517461,001,2022-04-28_20h11.24.092,classification_task,2021.2.3,Win32,60.09615385,613aa0162f4662712a517461,626b377229c10585ec392f89,626b3b0d0cf54eb8b1304e57,,,,,Approximately how many hours did you spend playing video games in the last week?,,,0.7,0,8,,,,,,,,,,,,,,,,,,,,,,,,,,,,,,,,,,,,,,,,,,,,,,,,,,,,,,,,,,
,613aa0162f4662712a517461,001,2022-04-28_20h11.24.092,classification_task,2021.2.3,Win32,60.09615385,613aa0162f4662712a517461,626b377229c10585ec392f89,626b3b0d0cf54eb8b1304e57,,,,,"Which game did you play the most this year? (Enter ""None"" if you didn't play any)",,,0.7,0,Valorant,,,,,,,,,,,,,,,,,,,,,,,,,,,,,,,,,,,,,,,,,,,,,,,,,,,,,,,,,,
,613aa0162f4662712a517461,001,2022-04-28_20h11.24.092,classification_task,2021.2.3,Win32,60.09615385,613aa0162f4662712a517461,626b377229c10585ec392f89,626b3b0d0cf54eb8b1304e57,,,,,Visual perception,,,0.7,0,,,,,,,,,,,,,,,,,,,,,,,,,,,,,,,,,,,,,,,,,,,,,,,,,,,,,,,,,,,
,613aa0162f4662712a517461,001,2022-04-28_20h11.24.092,classification_task,2021.2.3,Win32,60.09615385,613aa0162f4662712a517461,626b377229c10585ec392f89,626b3b0d0cf54eb8b1304e57,,,,,Do you have any form of color blindness?,,,0.7,0,No,24.5652,,,,,,,,,,,,,,,,,,,,,,,,,,,,,,,,,,,,,,,,,,,,,,,,,,,,,,,,,
,613aa0162f4662712a517461,001,2022-04-28_20h11.24.092,classification_task,2021.2.3,Win32,60.09615385,613aa0162f4662712a517461,626b377229c10585ec392f89,626b3b0d0cf54eb8b1304e57,,,,,Do you use software to change the colour temperature of your screen (e.g. f.lux)?,,,0.7,0,No,27.866,,,,,,,,,,,,,,,,,,,,,,,,,,,,,,,,,,,,,,,,,,,,,,,,,,,,,,,,,
,613aa0162f4662712a517461,001,2022-04-28_20h11.24.092,classification_task,2021.2.3,Win32,60.09615385,613aa0162f4662712a517461,626b377229c10585ec392f89,626b3b0d0cf54eb8b1304e57,,,,,,,,,,,,space,89.7112,space,7.9508,0,0,0,0,1,,,,,,,,,,,,,,,,,,,,,,,,,,,,,,,,,,,,,,,,,,,,,,,,
,613aa0162f4662712a517461,001,2022-04-28_20h11.24.092,classification_task,2021.2.3,Win32,60.09615385,613aa0162f4662712a517461,626b377229c10585ec392f89,626b3b0d0cf54eb8b1304e57,,,,,,,,,,,,,,space,25.2842,1,0,1,0,1,,,,,,,,,,,,,,,,,,,,,,,,,,,,,,,,,,,,,,,,,,,,,,,,
,613aa0162f4662712a517461,001,2022-04-28_20h11.24.092,classification_task,2021.2.3,Win32,60.09615385,613aa0162f4662712a517461,626b377229c10585ec392f89,626b3b0d0cf54eb8b1304e57,,,,,,,,,,,,,,space,20.1676,2,0,2,0,1,,,,,,,,,,,,,,,,,,,,,,,,,,,,,,,,,,,,,,,,,,,,,,,,
,613aa0162f4662712a517461,001,2022-04-28_20h11.24.092,classification_task,2021.2.3,Win32,60.09615385,613aa0162f4662712a517461,626b377229c10585ec392f89,626b3b0d0cf54eb8b1304e57,,,,,,,,,,,,,,space,12.0666,3,0,3,0,1,,,,,,,,,,,,,,,,,,,,,,,,,,,,,,,,,,,,,,,,,,,,,,,,
,613aa0162f4662712a517461,001,2022-04-28_20h11.24.092,classification_task,2021.2.3,Win32,60.09615385,613aa0162f4662712a517461,626b377229c10585ec392f89,626b3b0d0cf54eb8b1304e57,,,,,,,,,,,,,,space,15.4168,4,0,4,0,1,,,,,,,,,,,,,,,,,,,,,,,,,,,,,,,,,,,,,,,,,,,,,,,,
,613aa0162f4662712a517461,001,2022-04-28_20h11.24.092,classification_task,2021.2.3,Win32,60.09615385,613aa0162f4662712a517461,626b377229c10585ec392f89,626b3b0d0cf54eb8b1304e57,,,,,,,,,,,,,,,,,,,,,space,8.3993,a,0,3.5333,"[""0.092"",""0.344"",""0.496"",""0.830""]","[1,0,1,1]",0,0,0,0,1,1,0,,,1,FALSE,,,,,,,,,,,,,,,,,,,,,,,,,,,,,,
,613aa0162f4662712a517461,001,2022-04-28_20h11.24.092,classification_task,2021.2.3,Win32,60.09615385,613aa0162f4662712a517461,626b377229c10585ec392f89,626b3b0d0cf54eb8b1304e57,,,,,,,,,,,,,,,,,,,,,,,a,1,2.6498,"[""0.780"",""0.405"",""0.873"",""0.953""]","[0,1,1,1]",0,1,1,1,1,0,0,,,1,FALSE,,,,,,,,,,,,,,,,,,,,,,,,,,,,,,
,613aa0162f4662712a517461,001,2022-04-28_20h11.24.092,classification_task,2021.2.3,Win32,60.09615385,613aa0162f4662712a517461,626b377229c10585ec392f89,626b3b0d0cf54eb8b1304e57,,,,,,,,,,,,,,,,,,,,,,,a,0,1.633,"[""0.058"",""0.127"",""0.565"",""0.606""]","[1,1,1,0]",0,2,2,2,1,1,1,,,1,FALSE,,,,,,,,,,,,,,,,,,,,,,,,,,,,,,
,613aa0162f4662712a517461,001,2022-04-28_20h11.24.092,classification_task,2021.2.3,Win32,60.09615385,613aa0162f4662712a517461,626b377229c10585ec392f89,626b3b0d0cf54eb8b1304e57,,,,,,,,,,,,,,,,,,,,,,,l,1,1.7325,"[""0.092"",""0.217"",""0.796"",""0.830""]","[1,1,0,1]",0,3,3,3,1,1,0,,,1,FALSE,,,,,,,,,,,,,,,,,,,,,,,,,,,,,,
,613aa0162f4662712a517461,001,2022-04-28_20h11.24.092,classification_task,2021.2.3,Win32,60.09615385,613aa0162f4662712a517461,626b377229c10585ec392f89,626b3b0d0cf54eb8b1304e57,,,,,,,,,,,,,,,,,,,,,,,a,1,3.2158,"[""0.294"",""0.452"",""0.606"",""0.910""]","[1,1,0,1]",0,4,4,4,1,0,1,,,1,FALSE,,,,,,,,,,,,,,,,,,,,,,,,,,,,,,
,613aa0162f4662712a517461,001,2022-04-28_20h11.24.092,classification_task,2021.2.3,Win32,60.09615385,613aa0162f4662712a517461,626b377229c10585ec392f89,626b3b0d0cf54eb8b1304e57,,,,,,,,,,,,,,,,,,,,,,,a,1,1.6668,"[""0.182"",""0.405"",""0.366"",""0.953""]","[1,1,0,1]",0,5,5,5,1,0,0,,,1,FALSE,,,,,,,,,,,,,,,,,,,,,,,,,,,,,,
,613aa0162f4662712a517461,001,2022-04-28_20h11.24.092,classification_task,2021.2.3,Win32,60.09615385,613aa0162f4662712a517461,626b377229c10585ec392f89,626b3b0d0cf54eb8b1304e57,,,,,,,,,,,,,,,,,,,,,,,a,0,3.0326,"[""0.092"",""0.217"",""0.496"",""0.346""]","[1,1,1,0]",0,6,6,6,1,1,0,,,1,FALSE,,,,,,,,,,,,,,,,,,,,,,,,,,,,,,
,613aa0162f4662712a517461,001,2022-04-28_20h11.24.092,classification_task,2021.2.3,Win32,60.09615385,613aa0162f4662712a517461,626b377229c10585ec392f89,626b3b0d0cf54eb8b1304e57,,,,,,,,,,,,,,,,,,,,,,,l,1,2.2997,"[""0.058"",""0.630"",""0.565"",""0.693""]","[1,0,1,1]",0,7,7,7,1,1,1,,,1,FALSE,,,,,,,,,,,,,,,,,,,,,,,,,,,,,,
,613aa0162f4662712a517461,001,2022-04-28_20h11.24.092,classification_task,2021.2.3,Win32,60.09615385,613aa0162f4662712a517461,626b377229c10585ec392f89,626b3b0d0cf54eb8b1304e57,,,,,,,,,,,,,,,,,,,,,,,l,0,1.467,"[""0.294"",""0.788"",""0.733"",""0.910""]","[1,0,1,1]",0,8,8,8,1,0,1,,,1,FALSE,,,,,,,,,,,,,,,,,,,,,,,,,,,,,,
,613aa0162f4662712a517461,001,2022-04-28_20h11.24.092,classification_task,2021.2.3,Win32,60.09615385,613aa0162f4662712a517461,626b377229c10585ec392f89,626b3b0d0cf54eb8b1304e57,,,,,,,,,,,,,,,,,,,,,,,l,0,3.7661,"[""0.182"",""0.344"",""0.873"",""0.953""]","[1,0,1,1]",0,9,9,9,1,0,0,,,1,FALSE,,,,,,,,,,,,,,,,,,,,,,,,,,,,,,
,613aa0162f4662712a517461,001,2022-04-28_20h11.24.092,classification_task,2021.2.3,Win32,60.09615385,613aa0162f4662712a517461,626b377229c10585ec392f89,626b3b0d0cf54eb8b1304e57,,,,,,,,,,,,,,,,,,,,,,,a,1,1.9337,"[""0.294"",""0.452"",""0.733"",""0.346""]","[1,1,1,0]",0,10,10,10,1,0,1,,,1,FALSE,,,,,,,,,,,,,,,,,,,,,,,,,,,,,,
,613aa0162f4662712a517461,001,2022-04-28_20h11.24.092,classification_task,2021.2.3,Win32,60.09615385,613aa0162f4662712a517461,626b377229c10585ec392f89,626b3b0d0cf54eb8b1304e57,,,,,,,,,,,,,,,,,,,,,,,l,1,1.7833,"[""0.606"",""0.217"",""0.496"",""0.830""]","[0,1,1,1]",0,11,11,11,1,1,0,,,1,FALSE,,,,,,,,,,,,,,,,,,,,,,,,,,,,,,
,613aa0162f4662712a517461,001,2022-04-28_20h11.24.092,classification_task,2021.2.3,Win32,60.09615385,613aa0162f4662712a517461,626b377229c10585ec392f89,626b3b0d0cf54eb8b1304e57,,,,,,,,,,,,,,,,,,,,,,,a,1,3.2828,"[""0.339"",""0.452"",""0.733"",""0.910""]","[0,1,1,1]",0,12,12,12,1,0,1,,,1,FALSE,,,,,,,,,,,,,,,,,,,,,,,,,,,,,,
,613aa0162f4662712a517461,001,2022-04-28_20h11.24.092,classification_task,2021.2.3,Win32,60.09615385,613aa0162f4662712a517461,626b377229c10585ec392f89,626b3b0d0cf54eb8b1304e57,,,,,,,,,,,,,,,,,,,,,,,l,0,0.9162,"[""0.182"",""0.405"",""0.873"",""0.777""]","[1,1,1,0]",0,13,13,13,1,0,0,,,1,FALSE,,,,,,,,,,,,,,,,,,,,,,,,,,,,,,
,613aa0162f4662712a517461,001,2022-04-28_20h11.24.092,classification_task,2021.2.3,Win32,60.09615385,613aa0162f4662712a517461,626b377229c10585ec392f89,626b3b0d0cf54eb8b1304e57,,,,,,,,,,,,,,,,,,,,,,,l,1,1.6159,"[""0.366"",""0.127"",""0.565"",""0.693""]","[0,1,1,1]",0,14,14,14,1,1,1,,,1,FALSE,,,,,,,,,,,,,,,,,,,,,,,,,,,,,,
,613aa0162f4662712a517461,001,2022-04-28_20h11.24.092,classification_task,2021.2.3,Win32,60.09615385,613aa0162f4662712a517461,626b377229c10585ec392f89,626b3b0d0cf54eb8b1304e57,,,,,,,,,,,,,,,,,,,,,,,l,1,1.1999,"[""0.058"",""0.127"",""0.646"",""0.693""]","[1,1,0,1]",0,15,15,15,1,1,1,,,1,FALSE,,,,,,,,,,,,,,,,,,,,,,,,,,,,,,
,613aa0162f4662712a517461,001,2022-04-28_20h11.24.092,classification_task,2021.2.3,Win32,60.09615385,613aa0162f4662712a517461,626b377229c10585ec392f89,626b3b0d0cf54eb8b1304e57,,,,,,,,,,,,,,,,,,,,,,,a,0,1.1666,"[""0.092"",""0.217"",""0.496"",""0.638""]","[1,1,1,0]",0,16,16,16,1,1,0,,,1,FALSE,,,,,,,,,,,,,,,,,,,,,,,,,,,,,,
,613aa0162f4662712a517461,001,2022-04-28_20h11.24.092,classification_task,2021.2.3,Win32,60.09615385,613aa0162f4662712a517461,626b377229c10585ec392f89,626b3b0d0cf54eb8b1304e57,,,,,,,,,,,,,,,,,,,,,,,l,1,1.6831,"[""0.058"",""0.630"",""0.565"",""0.693""]","[1,0,1,1]",0,17,17,17,1,1,1,,,1,FALSE,,,,,,,,,,,,,,,,,,,,,,,,,,,,,,
,613aa0162f4662712a517461,001,2022-04-28_20h11.24.092,classification_task,2021.2.3,Win32,60.09615385,613aa0162f4662712a517461,626b377229c10585ec392f89,626b3b0d0cf54eb8b1304e57,,,,,,,,,,,,,,,,,,,,,,,a,1,1.0166,"[""0.339"",""0.405"",""0.873"",""0.953""]","[0,1,1,1]",0,18,18,18,1,0,0,,,1,FALSE,,,,,,,,,,,,,,,,,,,,,,,,,,,,,,
,613aa0162f4662712a517461,001,2022-04-28_20h11.24.092,classification_task,2021.2.3,Win32,60.09615385,613aa0162f4662712a517461,626b377229c10585ec392f89,626b3b0d0cf54eb8b1304e57,,,,,,,,,,,,,,,,,,,,,,,a,0,1.9994,"[""0.058"",""0.127"",""0.610"",""0.693""]","[1,1,0,1]",0,19,19,19,1,1,1,,,1,FALSE,,,,,,,,,,,,,,,,,,,,,,,,,,,,,,
,613aa0162f4662712a517461,001,2022-04-28_20h11.24.092,classification_task,2021.2.3,Win32,60.09615385,613aa0162f4662712a517461,626b377229c10585ec392f89,626b3b0d0cf54eb8b1304e57,,,,,,,,,,,,,,,,,,,,,,,a,0,5.3994,"[""0.092"",""0.217"",""0.656"",""0.830""]","[1,1,0,1]",0,20,20,20,1,1,0,,,1,FALSE,,,,,,,,,,,,,,,,,,,,,,,,,,,,,,
,613aa0162f4662712a517461,001,2022-04-28_20h11.24.092,classification_task,2021.2.3,Win32,60.09615385,613aa0162f4662712a517461,626b377229c10585ec392f89,626b3b0d0cf54eb8b1304e57,,,,,,,,,,,,,,,,,,,,,,,l,0,4.2671,"[""0.294"",""0.452"",""0.789"",""0.910""]","[1,1,0,1]",0,21,21,21,1,0,1,,,1,FALSE,,,,,,,,,,,,,,,,,,,,,,,,,,,,,,
,613aa0162f4662712a517461,001,2022-04-28_20h11.24.092,classification_task,2021.2.3,Win32,60.09615385,613aa0162f4662712a517461,626b377229c10585ec392f89,626b3b0d0cf54eb8b1304e57,,,,,,,,,,,,,,,,,,,,,,,a,1,1.4504,"[""0.182"",""0.405"",""0.646"",""0.953""]","[1,1,0,1]",0,22,22,22,1,0,0,,,1,FALSE,,,,,,,,,,,,,,,,,,,,,,,,,,,,,,
,613aa0162f4662712a517461,001,2022-04-28_20h11.24.092,classification_task,2021.2.3,Win32,60.09615385,613aa0162f4662712a517461,626b377229c10585ec392f89,626b3b0d0cf54eb8b1304e57,,,,,,,,,,,,,,,,,,,,,,,a,0,3.5663,"[""0.092"",""0.646"",""0.496"",""0.830""]","[1,0,1,1]",0,23,23,23,1,1,0,,,1,FALSE,,,,,,,,,,,,,,,,,,,,,,,,,,,,,,
,613aa0162f4662712a517461,001,2022-04-28_20h11.24.092,classification_task,2021.2.3,Win32,60.09615385,613aa0162f4662712a517461,626b377229c10585ec392f89,626b3b0d0cf54eb8b1304e57,,,,,,,,,,,,,,,,,,,,,,,a,1,2.3332,"[""0.182"",""0.405"",""0.873"",""0.630""]","[1,1,1,0]",0,24,24,24,1,0,0,,,1,FALSE,,,,,,,,,,,,,,,,,,,,,,,,,,,,,,
,613aa0162f4662712a517461,001,2022-04-28_20h11.24.092,classification_task,2021.2.3,Win32,60.09615385,613aa0162f4662712a517461,626b377229c10585ec392f89,626b3b0d0cf54eb8b1304e57,,,,,,,,,,,,,,,,,,,,,,,a,0,1.5496,"[""0.058"",""0.127"",""0.565"",""0.363""]","[1,1,1,0]",0,25,25,25,1,1,1,,,1,FALSE,,,,,,,,,,,,,,,,,,,,,,,,,,,,,,
,613aa0162f4662712a517461,001,2022-04-28_20h11.24.092,classification_task,2021.2.3,Win32,60.09615385,613aa0162f4662712a517461,626b377229c10585ec392f89,626b3b0d0cf54eb8b1304e57,,,,,,,,,,,,,,,,,,,,,,,a,0,2.6659,"[""0.366"",""0.217"",""0.496"",""0.830""]","[0,1,1,1]",0,26,26,26,1,1,0,,,1,FALSE,,,,,,,,,,,,,,,,,,,,,,,,,,,,,,
,613aa0162f4662712a517461,001,2022-04-28_20h11.24.092,classification_task,2021.2.3,Win32,60.09615385,613aa0162f4662712a517461,626b377229c10585ec392f89,626b3b0d0cf54eb8b1304e57,,,,,,,,,,,,,,,,,,,,,,,l,0,5.7165,"[""0.182"",""0.777"",""0.873"",""0.953""]","[1,0,1,1]",0,27,27,27,1,0,0,,,1,FALSE,,,,,,,,,,,,,,,,,,,,,,,,,,,,,,
,613aa0162f4662712a517461,001,2022-04-28_20h11.24.092,classification_task,2021.2.3,Win32,60.09615385,613aa0162f4662712a517461,626b377229c10585ec392f89,626b3b0d0cf54eb8b1304e57,,,,,,,,,,,,,,,,,,,,,,,a,1,2.1004,"[""0.339"",""0.452"",""0.733"",""0.910""]","[0,1,1,1]",0,28,28,28,1,0,1,,,1,FALSE,,,,,,,,,,,,,,,,,,,,,,,,,,,,,,
,613aa0162f4662712a517461,001,2022-04-28_20h11.24.092,classification_task,2021.2.3,Win32,60.09615385,613aa0162f4662712a517461,626b377229c10585ec392f89,626b3b0d0cf54eb8b1304e57,,,,,,,,,,,,,,,,,,,,,,,l,1,3.8986,"[""0.646"",""0.127"",""0.565"",""0.693""]","[0,1,1,1]",0,29,29,29,1,1,1,,,1,FALSE,,,,,,,,,,,,,,,,,,,,,,,,,,,,,,
,613aa0162f4662712a517461,001,2022-04-28_20h11.24.092,classification_task,2021.2.3,Win32,60.09615385,613aa0162f4662712a517461,626b377229c10585ec392f89,626b3b0d0cf54eb8b1304e57,,,,,,,,,,,,,,,,,,,,,,,a,1,2.4663,"[""0.294"",""0.452"",""0.733"",""0.610""]","[1,1,1,0]",0,30,30,30,1,0,1,,,1,FALSE,,,,,,,,,,,,,,,,,,,,,,,,,,,,,,
,613aa0162f4662712a517461,001,2022-04-28_20h11.24.092,classification_task,2021.2.3,Win32,60.09615385,613aa0162f4662712a517461,626b377229c10585ec392f89,626b3b0d0cf54eb8b1304e57,,,,,,,,,,,,,,,,,,,,,,,l,0,4.0003,"[""0.294"",""0.630"",""0.733"",""0.910""]","[1,0,1,1]",0,31,31,31,1,0,1,,,1,FALSE,,,,,,,,,,,,,,,,,,,,,,,,,,,,,,
,613aa0162f4662712a517461,001,2022-04-28_20h11.24.092,classification_task,2021.2.3,Win32,60.09615385,613aa0162f4662712a517461,626b377229c10585ec392f89,626b3b0d0cf54eb8b1304e57,,,,,,,,,,,,,,,,,,,,,,,a,1,0.9672,"[""0.294"",""0.638"",""0.733"",""0.910""]","[1,0,1,1]",0,32,32,32,1,0,1,,,1,FALSE,,,,,,,,,,,,,,,,,,,,,,,,,,,,,,
,613aa0162f4662712a517461,001,2022-04-28_20h11.24.092,classification_task,2021.2.3,Win32,60.09615385,613aa0162f4662712a517461,626b377229c10585ec392f89,626b3b0d0cf54eb8b1304e57,,,,,,,,,,,,,,,,,,,,,,,l,0,2.2998,"[""0.610"",""0.452"",""0.733"",""0.910""]","[0,1,1,1]",0,33,33,33,1,0,1,,,1,FALSE,,,,,,,,,,,,,,,,,,,,,,,,,,,,,,
,613aa0162f4662712a517461,001,2022-04-28_20h11.24.092,classification_task,2021.2.3,Win32,60.09615385,613aa0162f4662712a517461,626b377229c10585ec392f89,626b3b0d0cf54eb8b1304e57,,,,,,,,,,,,,,,,,,,,,,,a,0,1.0661,"[""0.058"",""0.127"",""0.565"",""0.777""]","[1,1,1,0]",0,34,34,34,1,1,1,,,1,FALSE,,,,,,,,,,,,,,,,,,,,,,,,,,,,,,
,613aa0162f4662712a517461,001,2022-04-28_20h11.24.092,classification_task,2021.2.3,Win32,60.09615385,613aa0162f4662712a517461,626b377229c10585ec392f89,626b3b0d0cf54eb8b1304e57,,,,,,,,,,,,,,,,,,,,,,,l,1,5.3497,"[""0.777"",""0.217"",""0.496"",""0.830""]","[0,1,1,1]",0,35,35,35,1,1,0,,,1,FALSE,,,,,,,,,,,,,,,,,,,,,,,,,,,,,,
,613aa0162f4662712a517461,001,2022-04-28_20h11.24.092,classification_task,2021.2.3,Win32,60.09615385,613aa0162f4662712a517461,626b377229c10585ec392f89,626b3b0d0cf54eb8b1304e57,,,,,,,,,,,,,,,,,,,,,,,a,1,1.0165,"[""0.294"",""0.452"",""0.363"",""0.910""]","[1,1,0,1]",0,36,36,36,1,0,1,,,1,FALSE,,,,,,,,,,,,,,,,,,,,,,,,,,,,,,
,613aa0162f4662712a517461,001,2022-04-28_20h11.24.092,classification_task,2021.2.3,Win32,60.09615385,613aa0162f4662712a517461,626b377229c10585ec392f89,626b3b0d0cf54eb8b1304e57,,,,,,,,,,,,,,,,,,,,,,,a,0,2.4329,"[""0.092"",""0.217"",""0.496"",""0.789""]","[1,1,1,0]",0,37,37,37,1,1,0,,,1,FALSE,,,,,,,,,,,,,,,,,,,,,,,,,,,,,,
,613aa0162f4662712a517461,001,2022-04-28_20h11.24.092,classification_task,2021.2.3,Win32,60.09615385,613aa0162f4662712a517461,626b377229c10585ec392f89,626b3b0d0cf54eb8b1304e57,,,,,,,,,,,,,,,,,,,,,,,l,0,1.9165,"[""0.294"",""0.452"",""0.733"",""0.656""]","[1,1,1,0]",0,38,38,38,1,0,1,,,1,FALSE,,,,,,,,,,,,,,,,,,,,,,,,,,,,,,
,613aa0162f4662712a517461,001,2022-04-28_20h11.24.092,classification_task,2021.2.3,Win32,60.09615385,613aa0162f4662712a517461,626b377229c10585ec392f89,626b3b0d0cf54eb8b1304e57,,,,,,,,,,,,,,,,,,,,,,,a,1,2.0321,"[""0.182"",""0.630"",""0.873"",""0.953""]","[1,0,1,1]",0,39,39,39,1,0,0,,,1,FALSE,,,,,,,,,,,,,,,,,,,,,,,,,,,,,,
,613aa0162f4662712a517461,001,2022-04-28_20h11.24.092,classification_task,2021.2.3,Win32,60.09615385,613aa0162f4662712a517461,626b377229c10585ec392f89,626b3b0d0cf54eb8b1304e57,,,,,,,,,,,,,,,,,,,,,,,l,1,1.3995,"[""0.058"",""0.344"",""0.565"",""0.693""]","[1,0,1,1]",0,40,40,40,1,1,1,,,1,FALSE,,,,,,,,,,,,,,,,,,,,,,,,,,,,,,
,613aa0162f4662712a517461,001,2022-04-28_20h11.24.092,classification_task,2021.2.3,Win32,60.09615385,613aa0162f4662712a517461,626b377229c10585ec392f89,626b3b0d0cf54eb8b1304e57,,,,,,,,,,,,,,,,,,,,,,,a,1,2.2498,"[""0.182"",""0.405"",""0.606"",""0.953""]","[1,1,0,1]",0,41,41,41,1,0,0,,,1,FALSE,,,,,,,,,,,,,,,,,,,,,,,,,,,,,,
,613aa0162f4662712a517461,001,2022-04-28_20h11.24.092,classification_task,2021.2.3,Win32,60.09615385,613aa0162f4662712a517461,626b377229c10585ec392f89,626b3b0d0cf54eb8b1304e57,,,,,,,,,,,,,,,,,,,,,,,a,0,0.7827,"[""0.092"",""0.217"",""0.344"",""0.830""]","[1,1,0,1]",0,42,42,42,1,1,0,,,1,FALSE,,,,,,,,,,,,,,,,,,,,,,,,,,,,,,
,613aa0162f4662712a517461,001,2022-04-28_20h11.24.092,classification_task,2021.2.3,Win32,60.09615385,613aa0162f4662712a517461,626b377229c10585ec392f89,626b3b0d0cf54eb8b1304e57,,,,,,,,,,,,,,,,,,,,,,,l,0,1.0826,"[""0.182"",""0.405"",""0.873"",""0.610""]","[1,1,1,0]",0,43,43,43,1,0,0,,,1,FALSE,,,,,,,,,,,,,,,,,,,,,,,,,,,,,,
,613aa0162f4662712a517461,001,2022-04-28_20h11.24.092,classification_task,2021.2.3,Win32,60.09615385,613aa0162f4662712a517461,626b377229c10585ec392f89,626b3b0d0cf54eb8b1304e57,,,,,,,,,,,,,,,,,,,,,,,l,1,2.0661,"[""0.092"",""0.630"",""0.496"",""0.830""]","[1,0,1,1]",0,44,44,44,1,1,0,,,1,FALSE,,,,,,,,,,,,,,,,,,,,,,,,,,,,,,
,613aa0162f4662712a517461,001,2022-04-28_20h11.24.092,classification_task,2021.2.3,Win32,60.09615385,613aa0162f4662712a517461,626b377229c10585ec392f89,626b3b0d0cf54eb8b1304e57,,,,,,,,,,,,,,,,,,,,,,,l,1,1.9662,"[""0.610"",""0.127"",""0.565"",""0.693""]","[0,1,1,1]",0,45,45,45,1,1,1,,,1,FALSE,,,,,,,,,,,,,,,,,,,,,,,,,,,,,,
,613aa0162f4662712a517461,001,2022-04-28_20h11.24.092,classification_task,2021.2.3,Win32,60.09615385,613aa0162f4662712a517461,626b377229c10585ec392f89,626b3b0d0cf54eb8b1304e57,,,,,,,,,,,,,,,,,,,,,,,a,0,0.9171,"[""0.058"",""0.127"",""0.339"",""0.693""]","[1,1,0,1]",0,46,46,46,1,1,1,,,1,FALSE,,,,,,,,,,,,,,,,,,,,,,,,,,,,,,
,613aa0162f4662712a517461,001,2022-04-28_20h11.24.092,classification_task,2021.2.3,Win32,60.09615385,613aa0162f4662712a517461,626b377229c10585ec392f89,626b3b0d0cf54eb8b1304e57,,,,,,,,,,,,,,,,,,,,,,,l,0,3.5994,"[""0.606"",""0.405"",""0.873"",""0.953""]","[0,1,1,1]",0,47,47,47,1,0,0,,,1,FALSE,,,,,,,,,,,,,,,,,,,,,,,,,,,,,,
,613aa0162f4662712a517461,001,2022-04-28_20h11.24.092,classification_task,2021.2.3,Win32,60.09615385,613aa0162f4662712a517461,626b377229c10585ec392f89,626b3b0d0cf54eb8b1304e57,,,,,,,,,,,,,,,,,,,,,,,a,1,1.5661,"[""0.182"",""0.405"",""0.873"",""0.366""]","[1,1,1,0]",0,48,48,48,1,0,0,,,1,FALSE,,,,,,,,,,,,,,,,,,,,,,,,,,,,,,
,613aa0162f4662712a517461,001,2022-04-28_20h11.24.092,classification_task,2021.2.3,Win32,60.09615385,613aa0162f4662712a517461,626b377229c10585ec392f89,626b3b0d0cf54eb8b1304e57,,,,,,,,,,,,,,,,,,,,,,,l,0,3.2499,"[""0.777"",""0.452"",""0.733"",""0.910""]","[0,1,1,1]",0,49,49,49,1,0,1,,,1,FALSE,,,,,,,,,,,,,,,,,,,,,,,,,,,,,,
,613aa0162f4662712a517461,001,2022-04-28_20h11.24.092,classification_task,2021.2.3,Win32,60.09615385,613aa0162f4662712a517461,626b377229c10585ec392f89,626b3b0d0cf54eb8b1304e57,,,,,,,,,,,,,,,,,,,,,,,a,1,0.8835,"[""0.294"",""0.452"",""0.733"",""0.606""]","[1,1,1,0]",0,50,50,50,1,0,1,,,1,FALSE,,,,,,,,,,,,,,,,,,,,,,,,,,,,,,
,613aa0162f4662712a517461,001,2022-04-28_20h11.24.092,classification_task,2021.2.3,Win32,60.09615385,613aa0162f4662712a517461,626b377229c10585ec392f89,626b3b0d0cf54eb8b1304e57,,,,,,,,,,,,,,,,,,,,,,,a,0,1.6829,"[""0.058"",""0.127"",""0.777"",""0.693""]","[1,1,0,1]",0,51,51,51,1,1,1,,,1,FALSE,,,,,,,,,,,,,,,,,,,,,,,,,,,,,,
,613aa0162f4662712a517461,001,2022-04-28_20h11.24.092,classification_task,2021.2.3,Win32,60.09615385,613aa0162f4662712a517461,626b377229c10585ec392f89,626b3b0d0cf54eb8b1304e57,,,,,,,,,,,,,,,,,,,,,,,a,0,1.6657,"[""0.058"",""0.127"",""0.565"",""0.777""]","[1,1,1,0]",0,52,52,52,1,1,1,,,1,FALSE,,,,,,,,,,,,,,,,,,,,,,,,,,,,,,
,613aa0162f4662712a517461,001,2022-04-28_20h11.24.092,classification_task,2021.2.3,Win32,60.09615385,613aa0162f4662712a517461,626b377229c10585ec392f89,626b3b0d0cf54eb8b1304e57,,,,,,,,,,,,,,,,,,,,,,,a,1,3.0161,"[""0.656"",""0.405"",""0.873"",""0.953""]","[0,1,1,1]",0,53,53,53,1,0,0,,,1,FALSE,,,,,,,,,,,,,,,,,,,,,,,,,,,,,,
,613aa0162f4662712a517461,001,2022-04-28_20h11.24.092,classification_task,2021.2.3,Win32,60.09615385,613aa0162f4662712a517461,626b377229c10585ec392f89,626b3b0d0cf54eb8b1304e57,,,,,,,,,,,,,,,,,,,,,,,a,0,3.0495,"[""0.092"",""0.346"",""0.496"",""0.830""]","[1,0,1,1]",0,54,54,54,1,1,0,,,1,FALSE,,,,,,,,,,,,,,,,,,,,,,,,,,,,,,
,613aa0162f4662712a517461,001,2022-04-28_20h11.24.092,classification_task,2021.2.3,Win32,60.09615385,613aa0162f4662712a517461,626b377229c10585ec392f89,626b3b0d0cf54eb8b1304e57,,,,,,,,,,,,,,,,,,,,,,,l,1,1.6337,"[""0.058"",""0.610"",""0.565"",""0.693""]","[1,0,1,1]",0,55,55,55,1,1,1,,,1,FALSE,,,,,,,,,,,,,,,,,,,,,,,,,,,,,,
,613aa0162f4662712a517461,001,2022-04-28_20h11.24.092,classification_task,2021.2.3,Win32,60.09615385,613aa0162f4662712a517461,626b377229c10585ec392f89,626b3b0d0cf54eb8b1304e57,,,,,,,,,,,,,,,,,,,,,,,a,1,1.7495,"[""0.294"",""0.452"",""0.638"",""0.910""]","[1,1,0,1]",0,56,56,56,1,0,1,,,1,FALSE,,,,,,,,,,,,,,,,,,,,,,,,,,,,,,
,613aa0162f4662712a517461,001,2022-04-28_20h11.24.092,classification_task,2021.2.3,Win32,60.09615385,613aa0162f4662712a517461,626b377229c10585ec392f89,626b3b0d0cf54eb8b1304e57,,,,,,,,,,,,,,,,,,,,,,,a,1,3.433,"[""0.294"",""0.606"",""0.733"",""0.910""]","[1,0,1,1]",0,57,57,57,1,0,1,,,1,FALSE,,,,,,,,,,,,,,,,,,,,,,,,,,,,,,
,613aa0162f4662712a517461,001,2022-04-28_20h11.24.092,classification_task,2021.2.3,Win32,60.09615385,613aa0162f4662712a517461,626b377229c10585ec392f89,626b3b0d0cf54eb8b1304e57,,,,,,,,,,,,,,,,,,,,,,,a,1,1.8167,"[""0.182"",""0.405"",""0.363"",""0.953""]","[1,1,0,1]",0,58,58,58,1,0,0,,,1,FALSE,,,,,,,,,,,,,,,,,,,,,,,,,,,,,,
,613aa0162f4662712a517461,001,2022-04-28_20h11.24.092,classification_task,2021.2.3,Win32,60.09615385,613aa0162f4662712a517461,626b377229c10585ec392f89,626b3b0d0cf54eb8b1304e57,,,,,,,,,,,,,,,,,,,,,,,a,1,1.8002,"[""0.182"",""0.346"",""0.873"",""0.953""]","[1,0,1,1]",0,59,59,59,1,0,0,,,1,FALSE,,,,,,,,,,,,,,,,,,,,,,,,,,,,,,
,613aa0162f4662712a517461,001,2022-04-28_20h11.24.092,classification_task,2021.2.3,Win32,60.09615385,613aa0162f4662712a517461,626b377229c10585ec392f89,626b3b0d0cf54eb8b1304e57,,,,,,,,,,,,,,,,,,,,,,,l,1,2.4321,"[""0.092"",""0.217"",""0.496"",""0.788""]","[1,1,1,0]",0,60,60,60,1,1,0,,,1,FALSE,,,,,,,,,,,,,,,,,,,,,,,,,,,,,,
,613aa0162f4662712a517461,001,2022-04-28_20h11.24.092,classification_task,2021.2.3,Win32,60.09615385,613aa0162f4662712a517461,626b377229c10585ec392f89,626b3b0d0cf54eb8b1304e57,,,,,,,,,,,,,,,,,,,,,,,a,0,1.6825,"[""0.788"",""0.217"",""0.496"",""0.830""]","[0,1,1,1]",0,61,61,61,1,1,0,,,1,FALSE,,,,,,,,,,,,,,,,,,,,,,,,,,,,,,
,613aa0162f4662712a517461,001,2022-04-28_20h11.24.092,classification_task,2021.2.3,Win32,60.09615385,613aa0162f4662712a517461,626b377229c10585ec392f89,626b3b0d0cf54eb8b1304e57,,,,,,,,,,,,,,,,,,,,,,,l,1,2.9165,"[""0.366"",""0.127"",""0.565"",""0.693""]","[0,1,1,1]",0,62,62,62,1,1,1,,,1,FALSE,,,,,,,,,,,,,,,,,,,,,,,,,,,,,,
,613aa0162f4662712a517461,001,2022-04-28_20h11.24.092,classification_task,2021.2.3,Win32,60.09615385,613aa0162f4662712a517461,626b377229c10585ec392f89,626b3b0d0cf54eb8b1304e57,,,,,,,,,,,,,,,,,,,,,,,a,0,1.3167,"[""0.092"",""0.217"",""0.346"",""0.830""]","[1,1,0,1]",0,63,63,63,1,1,0,,,1,FALSE,,,,,,,,,,,,,,,,,,,,,,,,,,,,,,
,613aa0162f4662712a517461,001,2022-04-28_20h11.24.092,classification_task,2021.2.3,Win32,60.09615385,613aa0162f4662712a517461,626b377229c10585ec392f89,626b3b0d0cf54eb8b1304e57,,,,,,,,,,,,,,,,,,,,,,,,,,,,,,,,,,,,,,,0, ,,0,2.501469724,497.8614,0,0,0,0,1,2,1,,,,,,,,,,,,,,,,,
,613aa0162f4662712a517461,001,2022-04-28_20h11.24.092,classification_task,2021.2.3,Win32,60.09615385,613aa0162f4662712a517461,626b377229c10585ec392f89,626b3b0d0cf54eb8b1304e57,,,,,,,,,,,,,,,,,,,,,,,,,,,,,,,,,,,,,,,1,  ,,0,4.0446796,485.8207,0,0,0,0,1,2,1,,,,,,,,,,,,,,,,,
,613aa0162f4662712a517461,001,2022-04-28_20h11.24.092,classification_task,2021.2.3,Win32,60.09615385,613aa0162f4662712a517461,626b377229c10585ec392f89,626b3b0d0cf54eb8b1304e57,,,,,,,,,,,,,,,,,,,,,,,,,,,,,,,,,,,,,,,2,  ,,0,3.946698021,494.052,0,0,0,0,1,2,1,,,,,,,,,,,,,,,,,
,613aa0162f4662712a517461,001,2022-04-28_20h11.24.092,classification_task,2021.2.3,Win32,60.09615385,613aa0162f4662712a517461,626b377229c10585ec392f89,626b3b0d0cf54eb8b1304e57,,,,,,,,,,,,,,,,,,,,,,,,,,,,,,,,,,,,,,,,,,,,,0,0,0,0,1,,1,,,,,,,,,,,,,,,,,
,613aa0162f4662712a517461,001,2022-04-28_20h11.24.092,classification_task,2021.2.3,Win32,60.09615385,613aa0162f4662712a517461,626b377229c10585ec392f89,626b3b0d0cf54eb8b1304e57,,,,,,,,,,,,,,,,,,,,,space,6.2363,a,1,2.2925,"[""0.182"",""0.405"",""0.610"",""0.953""]","[1,1,0,1]",0,0,0,0,1,0,0,,,1,FALSE,,,,,,,,,,,,,,,,,,,,,,,,,,,,,,
,613aa0162f4662712a517461,001,2022-04-28_20h11.24.092,classification_task,2021.2.3,Win32,60.09615385,613aa0162f4662712a517461,626b377229c10585ec392f89,626b3b0d0cf54eb8b1304e57,,,,,,,,,,,,,,,,,,,,,,,l,1,1.1994,"[""0.092"",""0.656"",""0.496"",""0.830""]","[1,0,1,1]",0,1,1,1,1,1,0,,,1,FALSE,,,,,,,,,,,,,,,,,,,,,,,,,,,,,,
,613aa0162f4662712a517461,001,2022-04-28_20h11.24.092,classification_task,2021.2.3,Win32,60.09615385,613aa0162f4662712a517461,626b377229c10585ec392f89,626b3b0d0cf54eb8b1304e57,,,,,,,,,,,,,,,,,,,,,,,l,1,2.9334,"[""0.058"",""0.780"",""0.565"",""0.693""]","[1,0,1,1]",0,2,2,2,1,1,1,,,1,FALSE,,,,,,,,,,,,,,,,,,,,,,,,,,,,,,
,613aa0162f4662712a517461,001,2022-04-28_20h11.24.092,classification_task,2021.2.3,Win32,60.09615385,613aa0162f4662712a517461,626b377229c10585ec392f89,626b3b0d0cf54eb8b1304e57,,,,,,,,,,,,,,,,,,,,,,,l,0,6.2502,"[""0.294"",""0.780"",""0.733"",""0.910""]","[1,0,1,1]",0,3,3,3,1,0,1,,,1,FALSE,,,,,,,,,,,,,,,,,,,,,,,,,,,,,,
,613aa0162f4662712a517461,001,2022-04-28_20h11.24.092,classification_task,2021.2.3,Win32,60.09615385,613aa0162f4662712a517461,626b377229c10585ec392f89,626b3b0d0cf54eb8b1304e57,,,,,,,,,,,,,,,,,,,,,,,l,1,2.5502,"[""0.630"",""0.127"",""0.565"",""0.693""]","[0,1,1,1]",0,4,4,4,1,1,1,,,1,FALSE,,,,,,,,,,,,,,,,,,,,,,,,,,,,,,
,613aa0162f4662712a517461,001,2022-04-28_20h11.24.092,classification_task,2021.2.3,Win32,60.09615385,613aa0162f4662712a517461,626b377229c10585ec392f89,626b3b0d0cf54eb8b1304e57,,,,,,,,,,,,,,,,,,,,,,,a,1,1.2835,"[""0.788"",""0.452"",""0.733"",""0.910""]","[0,1,1,1]",0,5,5,5,1,0,1,,,1,FALSE,,,,,,,,,,,,,,,,,,,,,,,,,,,,,,
,613aa0162f4662712a517461,001,2022-04-28_20h11.24.092,classification_task,2021.2.3,Win32,60.09615385,613aa0162f4662712a517461,626b377229c10585ec392f89,626b3b0d0cf54eb8b1304e57,,,,,,,,,,,,,,,,,,,,,,,l,0,0.9828,"[""0.294"",""0.452"",""0.733"",""0.363""]","[1,1,1,0]",0,6,6,6,1,0,1,,,1,FALSE,,,,,,,,,,,,,,,,,,,,,,,,,,,,,,
,613aa0162f4662712a517461,001,2022-04-28_20h11.24.092,classification_task,2021.2.3,Win32,60.09615385,613aa0162f4662712a517461,626b377229c10585ec392f89,626b3b0d0cf54eb8b1304e57,,,,,,,,,,,,,,,,,,,,,,,l,1,1.4328,"[""0.092"",""0.217"",""0.638"",""0.830""]","[1,1,0,1]",0,7,7,7,1,1,0,,,1,FALSE,,,,,,,,,,,,,,,,,,,,,,,,,,,,,,
,613aa0162f4662712a517461,001,2022-04-28_20h11.24.092,classification_task,2021.2.3,Win32,60.09615385,613aa0162f4662712a517461,626b377229c10585ec392f89,626b3b0d0cf54eb8b1304e57,,,,,,,,,,,,,,,,,,,,,,,a,1,1.2665,"[""0.638"",""0.405"",""0.873"",""0.953""]","[0,1,1,1]",0,8,8,8,1,0,0,,,1,FALSE,,,,,,,,,,,,,,,,,,,,,,,,,,,,,,
,613aa0162f4662712a517461,001,2022-04-28_20h11.24.092,classification_task,2021.2.3,Win32,60.09615385,613aa0162f4662712a517461,626b377229c10585ec392f89,626b3b0d0cf54eb8b1304e57,,,,,,,,,,,,,,,,,,,,,,,a,0,1.4161,"[""0.339"",""0.217"",""0.496"",""0.830""]","[0,1,1,1]",0,9,9,9,1,1,0,,,1,FALSE,,,,,,,,,,,,,,,,,,,,,,,,,,,,,,
,613aa0162f4662712a517461,001,2022-04-28_20h11.24.092,classification_task,2021.2.3,Win32,60.09615385,613aa0162f4662712a517461,626b377229c10585ec392f89,626b3b0d0cf54eb8b1304e57,,,,,,,,,,,,,,,,,,,,,,,l,1,3.1489,"[""0.058"",""0.127"",""0.565"",""0.630""]","[1,1,1,0]",0,10,10,10,1,1,1,,,1,FALSE,,,,,,,,,,,,,,,,,,,,,,,,,,,,,,
,613aa0162f4662712a517461,001,2022-04-28_20h11.24.092,classification_task,2021.2.3,Win32,60.09615385,613aa0162f4662712a517461,626b377229c10585ec392f89,626b3b0d0cf54eb8b1304e57,,,,,,,,,,,,,,,,,,,,,,,l,1,1.9667,"[""0.092"",""0.217"",""0.496"",""0.796""]","[1,1,1,0]",0,11,11,11,1,1,0,,,1,FALSE,,,,,,,,,,,,,,,,,,,,,,,,,,,,,,
,613aa0162f4662712a517461,001,2022-04-28_20h11.24.092,classification_task,2021.2.3,Win32,60.09615385,613aa0162f4662712a517461,626b377229c10585ec392f89,626b3b0d0cf54eb8b1304e57,,,,,,,,,,,,,,,,,,,,,,,a,1,5.9837,"[""0.294"",""0.452"",""0.363"",""0.910""]","[1,1,0,1]",0,12,12,12,1,0,1,,,1,FALSE,,,,,,,,,,,,,,,,,,,,,,,,,,,,,,
,613aa0162f4662712a517461,001,2022-04-28_20h11.24.092,classification_task,2021.2.3,Win32,60.09615385,613aa0162f4662712a517461,626b377229c10585ec392f89,626b3b0d0cf54eb8b1304e57,,,,,,,,,,,,,,,,,,,,,,,l,0,5.2172,"[""0.182"",""0.405"",""0.873"",""0.656""]","[1,1,1,0]",0,13,13,13,1,0,0,,,1,FALSE,,,,,,,,,,,,,,,,,,,,,,,,,,,,,,
,613aa0162f4662712a517461,001,2022-04-28_20h11.24.092,classification_task,2021.2.3,Win32,60.09615385,613aa0162f4662712a517461,626b377229c10585ec392f89,626b3b0d0cf54eb8b1304e57,,,,,,,,,,,,,,,,,,,,,,,a,1,1.7331,"[""0.182"",""0.646"",""0.873"",""0.953""]","[1,0,1,1]",0,14,14,14,1,0,0,,,1,FALSE,,,,,,,,,,,,,,,,,,,,,,,,,,,,,,
,613aa0162f4662712a517461,001,2022-04-28_20h11.24.092,classification_task,2021.2.3,Win32,60.09615385,613aa0162f4662712a517461,626b377229c10585ec392f89,626b3b0d0cf54eb8b1304e57,,,,,,,,,,,,,,,,,,,,,,,l,1,1.2832,"[""0.058"",""0.127"",""0.610"",""0.693""]","[1,1,0,1]",0,15,15,15,1,1,1,,,1,FALSE,,,,,,,,,,,,,,,,,,,,,,,,,,,,,,
,613aa0162f4662712a517461,001,2022-04-28_20h11.24.092,classification_task,2021.2.3,Win32,60.09615385,613aa0162f4662712a517461,626b377229c10585ec392f89,626b3b0d0cf54eb8b1304e57,,,,,,,,,,,,,,,,,,,,,,,a,1,1.3666,"[""0.294"",""0.339"",""0.733"",""0.910""]","[1,0,1,1]",0,16,16,16,1,0,1,,,1,FALSE,,,,,,,,,,,,,,,,,,,,,,,,,,,,,,
,613aa0162f4662712a517461,001,2022-04-28_20h11.24.092,classification_task,2021.2.3,Win32,60.09615385,613aa0162f4662712a517461,626b377229c10585ec392f89,626b3b0d0cf54eb8b1304e57,,,,,,,,,,,,,,,,,,,,,,,a,1,1.1501,"[""0.294"",""0.452"",""0.366"",""0.910""]","[1,1,0,1]",0,17,17,17,1,0,1,,,1,FALSE,,,,,,,,,,,,,,,,,,,,,,,,,,,,,,
,613aa0162f4662712a517461,001,2022-04-28_20h11.24.092,classification_task,2021.2.3,Win32,60.09615385,613aa0162f4662712a517461,626b377229c10585ec392f89,626b3b0d0cf54eb8b1304e57,,,,,,,,,,,,,,,,,,,,,,,l,1,2.3159,"[""0.092"",""0.630"",""0.496"",""0.830""]","[1,0,1,1]",0,18,18,18,1,1,0,,,1,FALSE,,,,,,,,,,,,,,,,,,,,,,,,,,,,,,
,613aa0162f4662712a517461,001,2022-04-28_20h11.24.092,classification_task,2021.2.3,Win32,60.09615385,613aa0162f4662712a517461,626b377229c10585ec392f89,626b3b0d0cf54eb8b1304e57,,,,,,,,,,,,,,,,,,,,,,,a,1,1.2499,"[""0.182"",""0.339"",""0.873"",""0.953""]","[1,0,1,1]",0,19,19,19,1,0,0,,,1,FALSE,,,,,,,,,,,,,,,,,,,,,,,,,,,,,,
,613aa0162f4662712a517461,001,2022-04-28_20h11.24.092,classification_task,2021.2.3,Win32,60.09615385,613aa0162f4662712a517461,626b377229c10585ec392f89,626b3b0d0cf54eb8b1304e57,,,,,,,,,,,,,,,,,,,,,,,a,1,2.0996,"[""0.346"",""0.452"",""0.733"",""0.910""]","[0,1,1,1]",0,20,20,20,1,0,1,,,1,FALSE,,,,,,,,,,,,,,,,,,,,,,,,,,,,,,
,613aa0162f4662712a517461,001,2022-04-28_20h11.24.092,classification_task,2021.2.3,Win32,60.09615385,613aa0162f4662712a517461,626b377229c10585ec392f89,626b3b0d0cf54eb8b1304e57,,,,,,,,,,,,,,,,,,,,,,,l,1,0.8503,"[""0.610"",""0.127"",""0.565"",""0.693""]","[0,1,1,1]",0,21,21,21,1,1,1,,,1,FALSE,,,,,,,,,,,,,,,,,,,,,,,,,,,,,,
,613aa0162f4662712a517461,001,2022-04-28_20h11.24.092,classification_task,2021.2.3,Win32,60.09615385,613aa0162f4662712a517461,626b377229c10585ec392f89,626b3b0d0cf54eb8b1304e57,,,,,,,,,,,,,,,,,,,,,,,l,1,2.2824,"[""0.092"",""0.217"",""0.496"",""0.796""]","[1,1,1,0]",0,22,22,22,1,1,0,,,1,FALSE,,,,,,,,,,,,,,,,,,,,,,,,,,,,,,
,613aa0162f4662712a517461,001,2022-04-28_20h11.24.092,classification_task,2021.2.3,Win32,60.09615385,613aa0162f4662712a517461,626b377229c10585ec392f89,626b3b0d0cf54eb8b1304e57,,,,,,,,,,,,,,,,,,,,,,,a,1,1.3163,"[""0.182"",""0.405"",""0.780"",""0.953""]","[1,1,0,1]",0,23,23,23,1,0,0,,,1,FALSE,,,,,,,,,,,,,,,,,,,,,,,,,,,,,,
,613aa0162f4662712a517461,001,2022-04-28_20h11.24.092,classification_task,2021.2.3,Win32,60.09615385,613aa0162f4662712a517461,626b377229c10585ec392f89,626b3b0d0cf54eb8b1304e57,,,,,,,,,,,,,,,,,,,,,,,a,1,1.0649,"[""0.606"",""0.405"",""0.873"",""0.953""]","[0,1,1,1]",0,24,24,24,1,0,0,,,1,FALSE,,,,,,,,,,,,,,,,,,,,,,,,,,,,,,
,613aa0162f4662712a517461,001,2022-04-28_20h11.24.092,classification_task,2021.2.3,Win32,60.09615385,613aa0162f4662712a517461,626b377229c10585ec392f89,626b3b0d0cf54eb8b1304e57,,,,,,,,,,,,,,,,,,,,,,,l,1,5.2161,"[""0.092"",""0.217"",""0.366"",""0.830""]","[1,1,0,1]",0,25,25,25,1,1,0,,,1,FALSE,,,,,,,,,,,,,,,,,,,,,,,,,,,,,,
,613aa0162f4662712a517461,001,2022-04-28_20h11.24.092,classification_task,2021.2.3,Win32,60.09615385,613aa0162f4662712a517461,626b377229c10585ec392f89,626b3b0d0cf54eb8b1304e57,,,,,,,,,,,,,,,,,,,,,,,l,1,1.3168,"[""0.058"",""0.127"",""0.565"",""0.646""]","[1,1,1,0]",0,26,26,26,1,1,1,,,1,FALSE,,,,,,,,,,,,,,,,,,,,,,,,,,,,,,
,613aa0162f4662712a517461,001,2022-04-28_20h11.24.092,classification_task,2021.2.3,Win32,60.09615385,613aa0162f4662712a517461,626b377229c10585ec392f89,626b3b0d0cf54eb8b1304e57,,,,,,,,,,,,,,,,,,,,,,,a,0,1.1336,"[""0.780"",""0.217"",""0.496"",""0.830""]","[0,1,1,1]",0,27,27,27,1,1,0,,,1,FALSE,,,,,,,,,,,,,,,,,,,,,,,,,,,,,,
,613aa0162f4662712a517461,001,2022-04-28_20h11.24.092,classification_task,2021.2.3,Win32,60.09615385,613aa0162f4662712a517461,626b377229c10585ec392f89,626b3b0d0cf54eb8b1304e57,,,,,,,,,,,,,,,,,,,,,,,l,1,2.6331,"[""0.058"",""0.127"",""0.630"",""0.693""]","[1,1,0,1]",0,28,28,28,1,1,1,,,1,FALSE,,,,,,,,,,,,,,,,,,,,,,,,,,,,,,
,613aa0162f4662712a517461,001,2022-04-28_20h11.24.092,classification_task,2021.2.3,Win32,60.09615385,613aa0162f4662712a517461,626b377229c10585ec392f89,626b3b0d0cf54eb8b1304e57,,,,,,,,,,,,,,,,,,,,,,,a,1,3.8828,"[""0.182"",""0.405"",""0.873"",""0.638""]","[1,1,1,0]",0,29,29,29,1,0,0,,,1,FALSE,,,,,,,,,,,,,,,,,,,,,,,,,,,,,,
,613aa0162f4662712a517461,001,2022-04-28_20h11.24.092,classification_task,2021.2.3,Win32,60.09615385,613aa0162f4662712a517461,626b377229c10585ec392f89,626b3b0d0cf54eb8b1304e57,,,,,,,,,,,,,,,,,,,,,,,l,0,5.1505,"[""0.294"",""0.452"",""0.733"",""0.630""]","[1,1,1,0]",0,30,30,30,1,0,1,,,1,FALSE,,,,,,,,,,,,,,,,,,,,,,,,,,,,,,
,613aa0162f4662712a517461,001,2022-04-28_20h11.24.092,classification_task,2021.2.3,Win32,60.09615385,613aa0162f4662712a517461,626b377229c10585ec392f89,626b3b0d0cf54eb8b1304e57,,,,,,,,,,,,,,,,,,,,,,,l,1,1.3001,"[""0.058"",""0.780"",""0.565"",""0.693""]","[1,0,1,1]",0,31,31,31,1,1,1,,,1,FALSE,,,,,,,,,,,,,,,,,,,,,,,,,,,,,,
,613aa0162f4662712a517461,001,2022-04-28_20h11.24.092,classification_task,2021.2.3,Win32,60.09615385,613aa0162f4662712a517461,626b377229c10585ec392f89,626b3b0d0cf54eb8b1304e57,,,,,,,,,,,,,,,,,,,,,,,a,1,1.1159,"[""0.182"",""0.363"",""0.873"",""0.953""]","[1,0,1,1]",0,32,32,32,1,0,0,,,1,FALSE,,,,,,,,,,,,,,,,,,,,,,,,,,,,,,
,613aa0162f4662712a517461,001,2022-04-28_20h11.24.092,classification_task,2021.2.3,Win32,60.09615385,613aa0162f4662712a517461,626b377229c10585ec392f89,626b3b0d0cf54eb8b1304e57,,,,,,,,,,,,,,,,,,,,,,,a,1,1.7656,"[""0.182"",""0.405"",""0.873"",""0.606""]","[1,1,1,0]",0,33,33,33,1,0,0,,,1,FALSE,,,,,,,,,,,,,,,,,,,,,,,,,,,,,,
,613aa0162f4662712a517461,001,2022-04-28_20h11.24.092,classification_task,2021.2.3,Win32,60.09615385,613aa0162f4662712a517461,626b377229c10585ec392f89,626b3b0d0cf54eb8b1304e57,,,,,,,,,,,,,,,,,,,,,,,l,0,2.7171,"[""0.294"",""0.452"",""0.733"",""0.646""]","[1,1,1,0]",0,34,34,34,1,0,1,,,1,FALSE,,,,,,,,,,,,,,,,,,,,,,,,,,,,,,
,613aa0162f4662712a517461,001,2022-04-28_20h11.24.092,classification_task,2021.2.3,Win32,60.09615385,613aa0162f4662712a517461,626b377229c10585ec392f89,626b3b0d0cf54eb8b1304e57,,,,,,,,,,,,,,,,,,,,,,,l,1,2.5994,"[""0.058"",""0.127"",""0.789"",""0.693""]","[1,1,0,1]",0,35,35,35,1,1,1,,,1,FALSE,,,,,,,,,,,,,,,,,,,,,,,,,,,,,,
,613aa0162f4662712a517461,001,2022-04-28_20h11.24.092,classification_task,2021.2.3,Win32,60.09615385,613aa0162f4662712a517461,626b377229c10585ec392f89,626b3b0d0cf54eb8b1304e57,,,,,,,,,,,,,,,,,,,,,,,l,1,1.6666,"[""0.796"",""0.127"",""0.565"",""0.693""]","[0,1,1,1]",0,36,36,36,1,1,1,,,1,FALSE,,,,,,,,,,,,,,,,,,,,,,,,,,,,,,
,613aa0162f4662712a517461,001,2022-04-28_20h11.24.092,classification_task,2021.2.3,Win32,60.09615385,613aa0162f4662712a517461,626b377229c10585ec392f89,626b3b0d0cf54eb8b1304e57,,,,,,,,,,,,,,,,,,,,,,,l,1,1.4829,"[""0.058"",""0.127"",""0.565"",""0.606""]","[1,1,1,0]",0,37,37,37,1,1,1,,,1,FALSE,,,,,,,,,,,,,,,,,,,,,,,,,,,,,,
,613aa0162f4662712a517461,001,2022-04-28_20h11.24.092,classification_task,2021.2.3,Win32,60.09615385,613aa0162f4662712a517461,626b377229c10585ec392f89,626b3b0d0cf54eb8b1304e57,,,,,,,,,,,,,,,,,,,,,,,l,1,1.4003,"[""0.092"",""0.606"",""0.496"",""0.830""]","[1,0,1,1]",0,38,38,38,1,1,0,,,1,FALSE,,,,,,,,,,,,,,,,,,,,,,,,,,,,,,
,613aa0162f4662712a517461,001,2022-04-28_20h11.24.092,classification_task,2021.2.3,Win32,60.09615385,613aa0162f4662712a517461,626b377229c10585ec392f89,626b3b0d0cf54eb8b1304e57,,,,,,,,,,,,,,,,,,,,,,,a,1,1.6159,"[""0.788"",""0.452"",""0.733"",""0.910""]","[0,1,1,1]",0,39,39,39,1,0,1,,,1,FALSE,,,,,,,,,,,,,,,,,,,,,,,,,,,,,,
,613aa0162f4662712a517461,001,2022-04-28_20h11.24.092,classification_task,2021.2.3,Win32,60.09615385,613aa0162f4662712a517461,626b377229c10585ec392f89,626b3b0d0cf54eb8b1304e57,,,,,,,,,,,,,,,,,,,,,,,a,1,3.283,"[""0.610"",""0.405"",""0.873"",""0.953""]","[0,1,1,1]",0,40,40,40,1,0,0,,,1,FALSE,,,,,,,,,,,,,,,,,,,,,,,,,,,,,,
,613aa0162f4662712a517461,001,2022-04-28_20h11.24.092,classification_task,2021.2.3,Win32,60.09615385,613aa0162f4662712a517461,626b377229c10585ec392f89,626b3b0d0cf54eb8b1304e57,,,,,,,,,,,,,,,,,,,,,,,l,1,0.9831,"[""0.092"",""0.217"",""0.789"",""0.830""]","[1,1,0,1]",0,41,41,41,1,1,0,,,1,FALSE,,,,,,,,,,,,,,,,,,,,,,,,,,,,,,
,613aa0162f4662712a517461,001,2022-04-28_20h11.24.092,classification_task,2021.2.3,Win32,60.09615385,613aa0162f4662712a517461,626b377229c10585ec392f89,626b3b0d0cf54eb8b1304e57,,,,,,,,,,,,,,,,,,,,,,,l,1,1.5498,"[""0.092"",""0.217"",""0.496"",""0.610""]","[1,1,1,0]",0,42,42,42,1,1,0,,,1,FALSE,,,,,,,,,,,,,,,,,,,,,,,,,,,,,,
,613aa0162f4662712a517461,001,2022-04-28_20h11.24.092,classification_task,2021.2.3,Win32,60.09615385,613aa0162f4662712a517461,626b377229c10585ec392f89,626b3b0d0cf54eb8b1304e57,,,,,,,,,,,,,,,,,,,,,,,a,1,0.9494,"[""0.182"",""0.405"",""0.780"",""0.953""]","[1,1,0,1]",0,43,43,43,1,0,0,,,1,FALSE,,,,,,,,,,,,,,,,,,,,,,,,,,,,,,
,613aa0162f4662712a517461,001,2022-04-28_20h11.24.092,classification_task,2021.2.3,Win32,60.09615385,613aa0162f4662712a517461,626b377229c10585ec392f89,626b3b0d0cf54eb8b1304e57,,,,,,,,,,,,,,,,,,,,,,,a,1,0.7658,"[""0.294"",""0.366"",""0.733"",""0.910""]","[1,0,1,1]",0,44,44,44,1,0,1,,,1,FALSE,,,,,,,,,,,,,,,,,,,,,,,,,,,,,,
,613aa0162f4662712a517461,001,2022-04-28_20h11.24.092,classification_task,2021.2.3,Win32,60.09615385,613aa0162f4662712a517461,626b377229c10585ec392f89,626b3b0d0cf54eb8b1304e57,,,,,,,,,,,,,,,,,,,,,,,l,1,1.266,"[""0.058"",""0.363"",""0.565"",""0.693""]","[1,0,1,1]",0,45,45,45,1,1,1,,,1,FALSE,,,,,,,,,,,,,,,,,,,,,,,,,,,,,,
,613aa0162f4662712a517461,001,2022-04-28_20h11.24.092,classification_task,2021.2.3,Win32,60.09615385,613aa0162f4662712a517461,626b377229c10585ec392f89,626b3b0d0cf54eb8b1304e57,,,,,,,,,,,,,,,,,,,,,,,l,1,1.0996,"[""0.638"",""0.217"",""0.496"",""0.830""]","[0,1,1,1]",0,46,46,46,1,1,0,,,1,FALSE,,,,,,,,,,,,,,,,,,,,,,,,,,,,,,
,613aa0162f4662712a517461,001,2022-04-28_20h11.24.092,classification_task,2021.2.3,Win32,60.09615385,613aa0162f4662712a517461,626b377229c10585ec392f89,626b3b0d0cf54eb8b1304e57,,,,,,,,,,,,,,,,,,,,,,,l,0,1.5827,"[""0.294"",""0.452"",""0.339"",""0.910""]","[1,1,0,1]",0,47,47,47,1,0,1,,,1,FALSE,,,,,,,,,,,,,,,,,,,,,,,,,,,,,,
,613aa0162f4662712a517461,001,2022-04-28_20h11.24.092,classification_task,2021.2.3,Win32,60.09615385,613aa0162f4662712a517461,626b377229c10585ec392f89,626b3b0d0cf54eb8b1304e57,,,,,,,,,,,,,,,,,,,,,,,a,0,5.5662,"[""0.092"",""0.789"",""0.496"",""0.830""]","[1,0,1,1]",0,48,48,48,1,1,0,,,1,FALSE,,,,,,,,,,,,,,,,,,,,,,,,,,,,,,
,613aa0162f4662712a517461,001,2022-04-28_20h11.24.092,classification_task,2021.2.3,Win32,60.09615385,613aa0162f4662712a517461,626b377229c10585ec392f89,626b3b0d0cf54eb8b1304e57,,,,,,,,,,,,,,,,,,,,,,,a,1,1.0001,"[""0.182"",""0.366"",""0.873"",""0.953""]","[1,0,1,1]",0,49,49,49,1,0,0,,,1,FALSE,,,,,,,,,,,,,,,,,,,,,,,,,,,,,,
,613aa0162f4662712a517461,001,2022-04-28_20h11.24.092,classification_task,2021.2.3,Win32,60.09615385,613aa0162f4662712a517461,626b377229c10585ec392f89,626b3b0d0cf54eb8b1304e57,,,,,,,,,,,,,,,,,,,,,,,a,1,0.7657,"[""0.294"",""0.452"",""0.606"",""0.910""]","[1,1,0,1]",0,50,50,50,1,0,1,,,1,FALSE,,,,,,,,,,,,,,,,,,,,,,,,,,,,,,
,613aa0162f4662712a517461,001,2022-04-28_20h11.24.092,classification_task,2021.2.3,Win32,60.09615385,613aa0162f4662712a517461,626b377229c10585ec392f89,626b3b0d0cf54eb8b1304e57,,,,,,,,,,,,,,,,,,,,,,,l,1,0.7991,"[""0.058"",""0.606"",""0.565"",""0.693""]","[1,0,1,1]",0,51,51,51,1,1,1,,,1,FALSE,,,,,,,,,,,,,,,,,,,,,,,,,,,,,,
,613aa0162f4662712a517461,001,2022-04-28_20h11.24.092,classification_task,2021.2.3,Win32,60.09615385,613aa0162f4662712a517461,626b377229c10585ec392f89,626b3b0d0cf54eb8b1304e57,,,,,,,,,,,,,,,,,,,,,,,l,1,1.533,"[""0.058"",""0.127"",""0.780"",""0.693""]","[1,1,0,1]",0,52,52,52,1,1,1,,,1,FALSE,,,,,,,,,,,,,,,,,,,,,,,,,,,,,,
,613aa0162f4662712a517461,001,2022-04-28_20h11.24.092,classification_task,2021.2.3,Win32,60.09615385,613aa0162f4662712a517461,626b377229c10585ec392f89,626b3b0d0cf54eb8b1304e57,,,,,,,,,,,,,,,,,,,,,,,a,0,1.2663,"[""0.092"",""0.217"",""0.496"",""0.366""]","[1,1,1,0]",0,53,53,53,1,1,0,,,1,FALSE,,,,,,,,,,,,,,,,,,,,,,,,,,,,,,
,613aa0162f4662712a517461,001,2022-04-28_20h11.24.092,classification_task,2021.2.3,Win32,60.09615385,613aa0162f4662712a517461,626b377229c10585ec392f89,626b3b0d0cf54eb8b1304e57,,,,,,,,,,,,,,,,,,,,,,,a,0,2.2824,"[""0.092"",""0.217"",""0.780"",""0.830""]","[1,1,0,1]",0,54,54,54,1,1,0,,,1,FALSE,,,,,,,,,,,,,,,,,,,,,,,,,,,,,,
,613aa0162f4662712a517461,001,2022-04-28_20h11.24.092,classification_task,2021.2.3,Win32,60.09615385,613aa0162f4662712a517461,626b377229c10585ec392f89,626b3b0d0cf54eb8b1304e57,,,,,,,,,,,,,,,,,,,,,,,a,1,1.5166,"[""0.182"",""0.405"",""0.777"",""0.953""]","[1,1,0,1]",0,55,55,55,1,0,0,,,1,FALSE,,,,,,,,,,,,,,,,,,,,,,,,,,,,,,
,613aa0162f4662712a517461,001,2022-04-28_20h11.24.092,classification_task,2021.2.3,Win32,60.09615385,613aa0162f4662712a517461,626b377229c10585ec392f89,626b3b0d0cf54eb8b1304e57,,,,,,,,,,,,,,,,,,,,,,,a,1,1.8483,"[""0.182"",""0.405"",""0.873"",""0.346""]","[1,1,1,0]",0,56,56,56,1,0,0,,,1,FALSE,,,,,,,,,,,,,,,,,,,,,,,,,,,,,,
,613aa0162f4662712a517461,001,2022-04-28_20h11.24.092,classification_task,2021.2.3,Win32,60.09615385,613aa0162f4662712a517461,626b377229c10585ec392f89,626b3b0d0cf54eb8b1304e57,,,,,,,,,,,,,,,,,,,,,,,a,1,0.817,"[""0.294"",""0.777"",""0.733"",""0.910""]","[1,0,1,1]",0,57,57,57,1,0,1,,,1,FALSE,,,,,,,,,,,,,,,,,,,,,,,,,,,,,,
,613aa0162f4662712a517461,001,2022-04-28_20h11.24.092,classification_task,2021.2.3,Win32,60.09615385,613aa0162f4662712a517461,626b377229c10585ec392f89,626b3b0d0cf54eb8b1304e57,,,,,,,,,,,,,,,,,,,,,,,a,0,0.9827,"[""0.789"",""0.217"",""0.496"",""0.830""]","[0,1,1,1]",0,58,58,58,1,1,0,,,1,FALSE,,,,,,,,,,,,,,,,,,,,,,,,,,,,,,
,613aa0162f4662712a517461,001,2022-04-28_20h11.24.092,classification_task,2021.2.3,Win32,60.09615385,613aa0162f4662712a517461,626b377229c10585ec392f89,626b3b0d0cf54eb8b1304e57,,,,,,,,,,,,,,,,,,,,,,,l,1,0.8162,"[""0.339"",""0.127"",""0.565"",""0.693""]","[0,1,1,1]",0,59,59,59,1,1,1,,,1,FALSE,,,,,,,,,,,,,,,,,,,,,,,,,,,,,,
,613aa0162f4662712a517461,001,2022-04-28_20h11.24.092,classification_task,2021.2.3,Win32,60.09615385,613aa0162f4662712a517461,626b377229c10585ec392f89,626b3b0d0cf54eb8b1304e57,,,,,,,,,,,,,,,,,,,,,,,l,1,0.6493,"[""0.058"",""0.127"",""0.565"",""0.630""]","[1,1,1,0]",0,60,60,60,1,1,1,,,1,FALSE,,,,,,,,,,,,,,,,,,,,,,,,,,,,,,
,613aa0162f4662712a517461,001,2022-04-28_20h11.24.092,classification_task,2021.2.3,Win32,60.09615385,613aa0162f4662712a517461,626b377229c10585ec392f89,626b3b0d0cf54eb8b1304e57,,,,,,,,,,,,,,,,,,,,,,,a,1,1.0998,"[""0.294"",""0.452"",""0.733"",""0.788""]","[1,1,1,0]",0,61,61,61,1,0,1,,,1,FALSE,,,,,,,,,,,,,,,,,,,,,,,,,,,,,,
,613aa0162f4662712a517461,001,2022-04-28_20h11.24.092,classification_task,2021.2.3,Win32,60.09615385,613aa0162f4662712a517461,626b377229c10585ec392f89,626b3b0d0cf54eb8b1304e57,,,,,,,,,,,,,,,,,,,,,,,a,1,3.3002,"[""0.789"",""0.405"",""0.873"",""0.953""]","[0,1,1,1]",0,62,62,62,1,0,0,,,1,FALSE,,,,,,,,,,,,,,,,,,,,,,,,,,,,,,
,613aa0162f4662712a517461,001,2022-04-28_20h11.24.092,classification_task,2021.2.3,Win32,60.09615385,613aa0162f4662712a517461,626b377229c10585ec392f89,626b3b0d0cf54eb8b1304e57,,,,,,,,,,,,,,,,,,,,,,,l,0,3.3997,"[""0.646"",""0.452"",""0.733"",""0.910""]","[0,1,1,1]",0,63,63,63,1,0,1,,,1,FALSE,,,,,,,,,,,,,,,,,,,,,,,,,,,,,,
,613aa0162f4662712a517461,001,2022-04-28_20h11.24.092,classification_task,2021.2.3,Win32,60.09615385,613aa0162f4662712a517461,626b377229c10585ec392f89,626b3b0d0cf54eb8b1304e57,,,,,,,,,,,,,,,,,,,,,,,,,,,,,,,,,,,,,,,0, ,,0,1.448167744,231.461,0,1,1,1,1,2,2,,,,,,,,,,,,,,,,,
,613aa0162f4662712a517461,001,2022-04-28_20h11.24.092,classification_task,2021.2.3,Win32,60.09615385,613aa0162f4662712a517461,626b377229c10585ec392f89,626b3b0d0cf54eb8b1304e57,,,,,,,,,,,,,,,,,,,,,,,,,,,,,,,,,,,,,,,1,  ,,0,5,218.3859,0,1,1,1,1,2,2,,,,,,,,,,,,,,,,,
,613aa0162f4662712a517461,001,2022-04-28_20h11.24.092,classification_task,2021.2.3,Win32,60.09615385,613aa0162f4662712a517461,626b377229c10585ec392f89,626b3b0d0cf54eb8b1304e57,,,,,,,,,,,,,,,,,,,,,,,,,,,,,,,,,,,,,,,2,  ,,0,1.938075642,213.4022,0,1,1,1,1,2,2,,,,,,,,,,,,,,,,,
,613aa0162f4662712a517461,001,2022-04-28_20h11.24.092,classification_task,2021.2.3,Win32,60.09615385,613aa0162f4662712a517461,626b377229c10585ec392f89,626b3b0d0cf54eb8b1304e57,,,,,,,,,,,,,,,,,,,,,,,,,,,,,,,,,,,,,,,,,,,,,0,1,1,1,1,,2,,,,,,,,,,,,,,,,,
,613aa0162f4662712a517461,001,2022-04-28_20h11.24.092,classification_task,2021.2.3,Win32,60.09615385,613aa0162f4662712a517461,626b377229c10585ec392f89,626b3b0d0cf54eb8b1304e57,,,,,,,,,,,,,,,,,,,,,space,6.036,l,1,1.6003,"[""0.646"",""0.127"",""0.565"",""0.693""]","[0,1,1,1]",0,0,0,0,1,1,1,,,1,FALSE,,,,,,,,,,,,,,,,,,,,,,,,,,,,,,
,613aa0162f4662712a517461,001,2022-04-28_20h11.24.092,classification_task,2021.2.3,Win32,60.09615385,613aa0162f4662712a517461,626b377229c10585ec392f89,626b3b0d0cf54eb8b1304e57,,,,,,,,,,,,,,,,,,,,,,,a,1,1.7159,"[""0.294"",""0.452"",""0.788"",""0.910""]","[1,1,0,1]",0,1,1,1,1,0,1,,,1,FALSE,,,,,,,,,,,,,,,,,,,,,,,,,,,,,,
,613aa0162f4662712a517461,001,2022-04-28_20h11.24.092,classification_task,2021.2.3,Win32,60.09615385,613aa0162f4662712a517461,626b377229c10585ec392f89,626b3b0d0cf54eb8b1304e57,,,,,,,,,,,,,,,,,,,,,,,l,0,1.4496,"[""0.294"",""0.452"",""0.733"",""0.346""]","[1,1,1,0]",0,2,2,2,1,0,1,,,1,FALSE,,,,,,,,,,,,,,,,,,,,,,,,,,,,,,
,613aa0162f4662712a517461,001,2022-04-28_20h11.24.092,classification_task,2021.2.3,Win32,60.09615385,613aa0162f4662712a517461,626b377229c10585ec392f89,626b3b0d0cf54eb8b1304e57,,,,,,,,,,,,,,,,,,,,,,,l,1,0.6502,"[""0.058"",""0.127"",""0.565"",""0.344""]","[1,1,1,0]",0,3,3,3,1,1,1,,,1,FALSE,,,,,,,,,,,,,,,,,,,,,,,,,,,,,,
,613aa0162f4662712a517461,001,2022-04-28_20h11.24.092,classification_task,2021.2.3,Win32,60.09615385,613aa0162f4662712a517461,626b377229c10585ec392f89,626b3b0d0cf54eb8b1304e57,,,,,,,,,,,,,,,,,,,,,,,l,1,1.3829,"[""0.092"",""0.217"",""0.656"",""0.830""]","[1,1,0,1]",0,4,4,4,1,1,0,,,1,FALSE,,,,,,,,,,,,,,,,,,,,,,,,,,,,,,
,613aa0162f4662712a517461,001,2022-04-28_20h11.24.092,classification_task,2021.2.3,Win32,60.09615385,613aa0162f4662712a517461,626b377229c10585ec392f89,626b3b0d0cf54eb8b1304e57,,,,,,,,,,,,,,,,,,,,,,,l,1,0.8504,"[""0.058"",""0.780"",""0.565"",""0.693""]","[1,0,1,1]",0,5,5,5,1,1,1,,,1,FALSE,,,,,,,,,,,,,,,,,,,,,,,,,,,,,,
,613aa0162f4662712a517461,001,2022-04-28_20h11.24.092,classification_task,2021.2.3,Win32,60.09615385,613aa0162f4662712a517461,626b377229c10585ec392f89,626b3b0d0cf54eb8b1304e57,,,,,,,,,,,,,,,,,,,,,,,a,1,0.8997,"[""0.606"",""0.405"",""0.873"",""0.953""]","[0,1,1,1]",0,6,6,6,1,0,0,,,1,FALSE,,,,,,,,,,,,,,,,,,,,,,,,,,,,,,
,613aa0162f4662712a517461,001,2022-04-28_20h11.24.092,classification_task,2021.2.3,Win32,60.09615385,613aa0162f4662712a517461,626b377229c10585ec392f89,626b3b0d0cf54eb8b1304e57,,,,,,,,,,,,,,,,,,,,,,,l,0,0.8664,"[""0.294"",""0.630"",""0.733"",""0.910""]","[1,0,1,1]",0,7,7,7,1,0,1,,,1,FALSE,,,,,,,,,,,,,,,,,,,,,,,,,,,,,,
,613aa0162f4662712a517461,001,2022-04-28_20h11.24.092,classification_task,2021.2.3,Win32,60.09615385,613aa0162f4662712a517461,626b377229c10585ec392f89,626b3b0d0cf54eb8b1304e57,,,,,,,,,,,,,,,,,,,,,,,a,1,2.5659,"[""0.182"",""0.405"",""0.873"",""0.789""]","[1,1,1,0]",0,8,8,8,1,0,0,,,1,FALSE,,,,,,,,,,,,,,,,,,,,,,,,,,,,,,
,613aa0162f4662712a517461,001,2022-04-28_20h11.24.092,classification_task,2021.2.3,Win32,60.09615385,613aa0162f4662712a517461,626b377229c10585ec392f89,626b3b0d0cf54eb8b1304e57,,,,,,,,,,,,,,,,,,,,,,,l,0,0.8165,"[""0.646"",""0.452"",""0.733"",""0.910""]","[0,1,1,1]",0,9,9,9,1,0,1,,,1,FALSE,,,,,,,,,,,,,,,,,,,,,,,,,,,,,,
,613aa0162f4662712a517461,001,2022-04-28_20h11.24.092,classification_task,2021.2.3,Win32,60.09615385,613aa0162f4662712a517461,626b377229c10585ec392f89,626b3b0d0cf54eb8b1304e57,,,,,,,,,,,,,,,,,,,,,,,l,1,0.8663,"[""0.092"",""0.217"",""0.496"",""0.610""]","[1,1,1,0]",0,10,10,10,1,1,0,,,1,FALSE,,,,,,,,,,,,,,,,,,,,,,,,,,,,,,
,613aa0162f4662712a517461,001,2022-04-28_20h11.24.092,classification_task,2021.2.3,Win32,60.09615385,613aa0162f4662712a517461,626b377229c10585ec392f89,626b3b0d0cf54eb8b1304e57,,,,,,,,,,,,,,,,,,,,,,,a,1,2.133,"[""0.182"",""0.405"",""0.610"",""0.953""]","[1,1,0,1]",0,11,11,11,1,0,0,,,1,FALSE,,,,,,,,,,,,,,,,,,,,,,,,,,,,,,
,613aa0162f4662712a517461,001,2022-04-28_20h11.24.092,classification_task,2021.2.3,Win32,60.09615385,613aa0162f4662712a517461,626b377229c10585ec392f89,626b3b0d0cf54eb8b1304e57,,,,,,,,,,,,,,,,,,,,,,,l,1,0.6831,"[""0.092"",""0.780"",""0.496"",""0.830""]","[1,0,1,1]",0,12,12,12,1,1,0,,,1,FALSE,,,,,,,,,,,,,,,,,,,,,,,,,,,,,,
,613aa0162f4662712a517461,001,2022-04-28_20h11.24.092,classification_task,2021.2.3,Win32,60.09615385,613aa0162f4662712a517461,626b377229c10585ec392f89,626b3b0d0cf54eb8b1304e57,,,,,,,,,,,,,,,,,,,,,,,a,1,1.8498,"[""0.182"",""0.346"",""0.873"",""0.953""]","[1,0,1,1]",0,13,13,13,1,0,0,,,1,FALSE,,,,,,,,,,,,,,,,,,,,,,,,,,,,,,
,613aa0162f4662712a517461,001,2022-04-28_20h11.24.092,classification_task,2021.2.3,Win32,60.09615385,613aa0162f4662712a517461,626b377229c10585ec392f89,626b3b0d0cf54eb8b1304e57,,,,,,,,,,,,,,,,,,,,,,,a,0,1.2998,"[""0.366"",""0.217"",""0.496"",""0.830""]","[0,1,1,1]",0,14,14,14,1,1,0,,,1,FALSE,,,,,,,,,,,,,,,,,,,,,,,,,,,,,,
,613aa0162f4662712a517461,001,2022-04-28_20h11.24.092,classification_task,2021.2.3,Win32,60.09615385,613aa0162f4662712a517461,626b377229c10585ec392f89,626b3b0d0cf54eb8b1304e57,,,,,,,,,,,,,,,,,,,,,,,l,1,1.7325,"[""0.058"",""0.127"",""0.610"",""0.693""]","[1,1,0,1]",0,15,15,15,1,1,1,,,1,FALSE,,,,,,,,,,,,,,,,,,,,,,,,,,,,,,
,613aa0162f4662712a517461,001,2022-04-28_20h11.24.092,classification_task,2021.2.3,Win32,60.09615385,613aa0162f4662712a517461,626b377229c10585ec392f89,626b3b0d0cf54eb8b1304e57,,,,,,,,,,,,,,,,,,,,,,,a,1,1.4331,"[""0.182"",""0.405"",""0.789"",""0.953""]","[1,1,0,1]",0,16,16,16,1,0,0,,,1,FALSE,,,,,,,,,,,,,,,,,,,,,,,,,,,,,,
,613aa0162f4662712a517461,001,2022-04-28_20h11.24.092,classification_task,2021.2.3,Win32,60.09615385,613aa0162f4662712a517461,626b377229c10585ec392f89,626b3b0d0cf54eb8b1304e57,,,,,,,,,,,,,,,,,,,,,,,l,1,0.8493,"[""0.058"",""0.789"",""0.565"",""0.693""]","[1,0,1,1]",0,17,17,17,1,1,1,,,1,FALSE,,,,,,,,,,,,,,,,,,,,,,,,,,,,,,
,613aa0162f4662712a517461,001,2022-04-28_20h11.24.092,classification_task,2021.2.3,Win32,60.09615385,613aa0162f4662712a517461,626b377229c10585ec392f89,626b3b0d0cf54eb8b1304e57,,,,,,,,,,,,,,,,,,,,,,,l,0,1.2665,"[""0.294"",""0.452"",""0.788"",""0.910""]","[1,1,0,1]",0,18,18,18,1,0,1,,,1,FALSE,,,,,,,,,,,,,,,,,,,,,,,,,,,,,,
,613aa0162f4662712a517461,001,2022-04-28_20h11.24.092,classification_task,2021.2.3,Win32,60.09615385,613aa0162f4662712a517461,626b377229c10585ec392f89,626b3b0d0cf54eb8b1304e57,,,,,,,,,,,,,,,,,,,,,,,l,1,1.6328,"[""0.058"",""0.127"",""0.363"",""0.693""]","[1,1,0,1]",0,19,19,19,1,1,1,,,1,FALSE,,,,,,,,,,,,,,,,,,,,,,,,,,,,,,
,613aa0162f4662712a517461,001,2022-04-28_20h11.24.092,classification_task,2021.2.3,Win32,60.09615385,613aa0162f4662712a517461,626b377229c10585ec392f89,626b3b0d0cf54eb8b1304e57,,,,,,,,,,,,,,,,,,,,,,,l,1,1.7329,"[""0.092"",""0.656"",""0.496"",""0.830""]","[1,0,1,1]",0,20,20,20,1,1,0,,,1,FALSE,,,,,,,,,,,,,,,,,,,,,,,,,,,,,,
,613aa0162f4662712a517461,001,2022-04-28_20h11.24.092,classification_task,2021.2.3,Win32,60.09615385,613aa0162f4662712a517461,626b377229c10585ec392f89,626b3b0d0cf54eb8b1304e57,,,,,,,,,,,,,,,,,,,,,,,a,0,2.2654,"[""0.366"",""0.217"",""0.496"",""0.830""]","[0,1,1,1]",0,21,21,21,1,1,0,,,1,FALSE,,,,,,,,,,,,,,,,,,,,,,,,,,,,,,
,613aa0162f4662712a517461,001,2022-04-28_20h11.24.092,classification_task,2021.2.3,Win32,60.09615385,613aa0162f4662712a517461,626b377229c10585ec392f89,626b3b0d0cf54eb8b1304e57,,,,,,,,,,,,,,,,,,,,,,,a,1,4.6999,"[""0.606"",""0.405"",""0.873"",""0.953""]","[0,1,1,1]",0,22,22,22,1,0,0,,,1,FALSE,,,,,,,,,,,,,,,,,,,,,,,,,,,,,,
,613aa0162f4662712a517461,001,2022-04-28_20h11.24.092,classification_task,2021.2.3,Win32,60.09615385,613aa0162f4662712a517461,626b377229c10585ec392f89,626b3b0d0cf54eb8b1304e57,,,,,,,,,,,,,,,,,,,,,,,l,1,1.6325,"[""0.092"",""0.217"",""0.606"",""0.830""]","[1,1,0,1]",0,23,23,23,1,1,0,,,1,FALSE,,,,,,,,,,,,,,,,,,,,,,,,,,,,,,
,613aa0162f4662712a517461,001,2022-04-28_20h11.24.092,classification_task,2021.2.3,Win32,60.09615385,613aa0162f4662712a517461,626b377229c10585ec392f89,626b3b0d0cf54eb8b1304e57,,,,,,,,,,,,,,,,,,,,,,,l,0,6.0829,"[""0.182"",""0.405"",""0.873"",""0.630""]","[1,1,1,0]",0,24,24,24,1,0,0,,,1,FALSE,,,,,,,,,,,,,,,,,,,,,,,,,,,,,,
,613aa0162f4662712a517461,001,2022-04-28_20h11.24.092,classification_task,2021.2.3,Win32,60.09615385,613aa0162f4662712a517461,626b377229c10585ec392f89,626b3b0d0cf54eb8b1304e57,,,,,,,,,,,,,,,,,,,,,,,l,1,1.2166,"[""0.092"",""0.217"",""0.496"",""0.646""]","[1,1,1,0]",0,25,25,25,1,1,0,,,1,FALSE,,,,,,,,,,,,,,,,,,,,,,,,,,,,,,
,613aa0162f4662712a517461,001,2022-04-28_20h11.24.092,classification_task,2021.2.3,Win32,60.09615385,613aa0162f4662712a517461,626b377229c10585ec392f89,626b3b0d0cf54eb8b1304e57,,,,,,,,,,,,,,,,,,,,,,,a,1,0.9994,"[""0.294"",""0.452"",""0.733"",""0.363""]","[1,1,1,0]",0,26,26,26,1,0,1,,,1,FALSE,,,,,,,,,,,,,,,,,,,,,,,,,,,,,,
,613aa0162f4662712a517461,001,2022-04-28_20h11.24.092,classification_task,2021.2.3,Win32,60.09615385,613aa0162f4662712a517461,626b377229c10585ec392f89,626b3b0d0cf54eb8b1304e57,,,,,,,,,,,,,,,,,,,,,,,l,1,1.1489,"[""0.058"",""0.127"",""0.565"",""0.610""]","[1,1,1,0]",0,27,27,27,1,1,1,,,1,FALSE,,,,,,,,,,,,,,,,,,,,,,,,,,,,,,
,613aa0162f4662712a517461,001,2022-04-28_20h11.24.092,classification_task,2021.2.3,Win32,60.09615385,613aa0162f4662712a517461,626b377229c10585ec392f89,626b3b0d0cf54eb8b1304e57,,,,,,,,,,,,,,,,,,,,,,,a,1,1.2489,"[""0.182"",""0.363"",""0.873"",""0.953""]","[1,0,1,1]",0,28,28,28,1,0,0,,,1,FALSE,,,,,,,,,,,,,,,,,,,,,,,,,,,,,,
,613aa0162f4662712a517461,001,2022-04-28_20h11.24.092,classification_task,2021.2.3,Win32,60.09615385,613aa0162f4662712a517461,626b377229c10585ec392f89,626b3b0d0cf54eb8b1304e57,,,,,,,,,,,,,,,,,,,,,,,a,1,0.8332,"[""0.346"",""0.452"",""0.733"",""0.910""]","[0,1,1,1]",0,29,29,29,1,0,1,,,1,FALSE,,,,,,,,,,,,,,,,,,,,,,,,,,,,,,
,613aa0162f4662712a517461,001,2022-04-28_20h11.24.092,classification_task,2021.2.3,Win32,60.09615385,613aa0162f4662712a517461,626b377229c10585ec392f89,626b3b0d0cf54eb8b1304e57,,,,,,,,,,,,,,,,,,,,,,,l,1,1.6491,"[""0.606"",""0.127"",""0.565"",""0.693""]","[0,1,1,1]",0,30,30,30,1,1,1,,,1,FALSE,,,,,,,,,,,,,,,,,,,,,,,,,,,,,,
,613aa0162f4662712a517461,001,2022-04-28_20h11.24.092,classification_task,2021.2.3,Win32,60.09615385,613aa0162f4662712a517461,626b377229c10585ec392f89,626b3b0d0cf54eb8b1304e57,,,,,,,,,,,,,,,,,,,,,,,a,1,3.1163,"[""0.294"",""0.606"",""0.733"",""0.910""]","[1,0,1,1]",0,31,31,31,1,0,1,,,1,FALSE,,,,,,,,,,,,,,,,,,,,,,,,,,,,,,
,613aa0162f4662712a517461,001,2022-04-28_20h11.24.092,classification_task,2021.2.3,Win32,60.09615385,613aa0162f4662712a517461,626b377229c10585ec392f89,626b3b0d0cf54eb8b1304e57,,,,,,,,,,,,,,,,,,,,,,,a,1,1.0994,"[""0.788"",""0.405"",""0.873"",""0.953""]","[0,1,1,1]",0,32,32,32,1,0,0,,,1,FALSE,,,,,,,,,,,,,,,,,,,,,,,,,,,,,,
,613aa0162f4662712a517461,001,2022-04-28_20h11.24.092,classification_task,2021.2.3,Win32,60.09615385,613aa0162f4662712a517461,626b377229c10585ec392f89,626b3b0d0cf54eb8b1304e57,,,,,,,,,,,,,,,,,,,,,,,a,1,3.2163,"[""0.182"",""0.405"",""0.638"",""0.953""]","[1,1,0,1]",0,33,33,33,1,0,0,,,1,FALSE,,,,,,,,,,,,,,,,,,,,,,,,,,,,,,
,613aa0162f4662712a517461,001,2022-04-28_20h11.24.092,classification_task,2021.2.3,Win32,60.09615385,613aa0162f4662712a517461,626b377229c10585ec392f89,626b3b0d0cf54eb8b1304e57,,,,,,,,,,,,,,,,,,,,,,,l,1,1.2999,"[""0.058"",""0.127"",""0.565"",""0.610""]","[1,1,1,0]",0,34,34,34,1,1,1,,,1,FALSE,,,,,,,,,,,,,,,,,,,,,,,,,,,,,,
,613aa0162f4662712a517461,001,2022-04-28_20h11.24.092,classification_task,2021.2.3,Win32,60.09615385,613aa0162f4662712a517461,626b377229c10585ec392f89,626b3b0d0cf54eb8b1304e57,,,,,,,,,,,,,,,,,,,,,,,a,0,2.5995,"[""0.092"",""0.788"",""0.496"",""0.830""]","[1,0,1,1]",0,35,35,35,1,1,0,,,1,FALSE,,,,,,,,,,,,,,,,,,,,,,,,,,,,,,
,613aa0162f4662712a517461,001,2022-04-28_20h11.24.092,classification_task,2021.2.3,Win32,60.09615385,613aa0162f4662712a517461,626b377229c10585ec392f89,626b3b0d0cf54eb8b1304e57,,,,,,,,,,,,,,,,,,,,,,,a,1,1.2004,"[""0.294"",""0.452"",""0.777"",""0.910""]","[1,1,0,1]",0,36,36,36,1,0,1,,,1,FALSE,,,,,,,,,,,,,,,,,,,,,,,,,,,,,,
,613aa0162f4662712a517461,001,2022-04-28_20h11.24.092,classification_task,2021.2.3,Win32,60.09615385,613aa0162f4662712a517461,626b377229c10585ec392f89,626b3b0d0cf54eb8b1304e57,,,,,,,,,,,,,,,,,,,,,,,l,0,0.7664,"[""0.646"",""0.452"",""0.733"",""0.910""]","[0,1,1,1]",0,37,37,37,1,0,1,,,1,FALSE,,,,,,,,,,,,,,,,,,,,,,,,,,,,,,
,613aa0162f4662712a517461,001,2022-04-28_20h11.24.092,classification_task,2021.2.3,Win32,60.09615385,613aa0162f4662712a517461,626b377229c10585ec392f89,626b3b0d0cf54eb8b1304e57,,,,,,,,,,,,,,,,,,,,,,,a,1,0.8488,"[""0.182"",""0.405"",""0.873"",""0.780""]","[1,1,1,0]",0,38,38,38,1,0,0,,,1,FALSE,,,,,,,,,,,,,,,,,,,,,,,,,,,,,,
,613aa0162f4662712a517461,001,2022-04-28_20h11.24.092,classification_task,2021.2.3,Win32,60.09615385,613aa0162f4662712a517461,626b377229c10585ec392f89,626b3b0d0cf54eb8b1304e57,,,,,,,,,,,,,,,,,,,,,,,a,0,0.8661,"[""0.777"",""0.217"",""0.496"",""0.830""]","[0,1,1,1]",0,39,39,39,1,1,0,,,1,FALSE,,,,,,,,,,,,,,,,,,,,,,,,,,,,,,
,613aa0162f4662712a517461,001,2022-04-28_20h11.24.092,classification_task,2021.2.3,Win32,60.09615385,613aa0162f4662712a517461,626b377229c10585ec392f89,626b3b0d0cf54eb8b1304e57,,,,,,,,,,,,,,,,,,,,,,,l,1,1.1494,"[""0.346"",""0.127"",""0.565"",""0.693""]","[0,1,1,1]",0,40,40,40,1,1,1,,,1,FALSE,,,,,,,,,,,,,,,,,,,,,,,,,,,,,,
,613aa0162f4662712a517461,001,2022-04-28_20h11.24.092,classification_task,2021.2.3,Win32,60.09615385,613aa0162f4662712a517461,626b377229c10585ec392f89,626b3b0d0cf54eb8b1304e57,,,,,,,,,,,,,,,,,,,,,,,l,1,1.5998,"[""0.058"",""0.127"",""0.363"",""0.693""]","[1,1,0,1]",0,41,41,41,1,1,1,,,1,FALSE,,,,,,,,,,,,,,,,,,,,,,,,,,,,,,
,613aa0162f4662712a517461,001,2022-04-28_20h11.24.092,classification_task,2021.2.3,Win32,60.09615385,613aa0162f4662712a517461,626b377229c10585ec392f89,626b3b0d0cf54eb8b1304e57,,,,,,,,,,,,,,,,,,,,,,,l,1,4.7667,"[""0.058"",""0.339"",""0.565"",""0.693""]","[1,0,1,1]",0,42,42,42,1,1,1,,,1,FALSE,,,,,,,,,,,,,,,,,,,,,,,,,,,,,,
,613aa0162f4662712a517461,001,2022-04-28_20h11.24.092,classification_task,2021.2.3,Win32,60.09615385,613aa0162f4662712a517461,626b377229c10585ec392f89,626b3b0d0cf54eb8b1304e57,,,,,,,,,,,,,,,,,,,,,,,l,1,1.2835,"[""0.092"",""0.217"",""0.496"",""0.646""]","[1,1,1,0]",0,43,43,43,1,1,0,,,1,FALSE,,,,,,,,,,,,,,,,,,,,,,,,,,,,,,
,613aa0162f4662712a517461,001,2022-04-28_20h11.24.092,classification_task,2021.2.3,Win32,60.09615385,613aa0162f4662712a517461,626b377229c10585ec392f89,626b3b0d0cf54eb8b1304e57,,,,,,,,,,,,,,,,,,,,,,,a,1,1.2836,"[""0.294"",""0.796"",""0.733"",""0.910""]","[1,0,1,1]",0,44,44,44,1,0,1,,,1,FALSE,,,,,,,,,,,,,,,,,,,,,,,,,,,,,,
,613aa0162f4662712a517461,001,2022-04-28_20h11.24.092,classification_task,2021.2.3,Win32,60.09615385,613aa0162f4662712a517461,626b377229c10585ec392f89,626b3b0d0cf54eb8b1304e57,,,,,,,,,,,,,,,,,,,,,,,a,1,1.4497,"[""0.294"",""0.452"",""0.733"",""0.363""]","[1,1,1,0]",0,45,45,45,1,0,1,,,1,FALSE,,,,,,,,,,,,,,,,,,,,,,,,,,,,,,
,613aa0162f4662712a517461,001,2022-04-28_20h11.24.092,classification_task,2021.2.3,Win32,60.09615385,613aa0162f4662712a517461,626b377229c10585ec392f89,626b3b0d0cf54eb8b1304e57,,,,,,,,,,,,,,,,,,,,,,,l,1,2.0325,"[""0.092"",""0.217"",""0.630"",""0.830""]","[1,1,0,1]",0,46,46,46,1,1,0,,,1,FALSE,,,,,,,,,,,,,,,,,,,,,,,,,,,,,,
,613aa0162f4662712a517461,001,2022-04-28_20h11.24.092,classification_task,2021.2.3,Win32,60.09615385,613aa0162f4662712a517461,626b377229c10585ec392f89,626b3b0d0cf54eb8b1304e57,,,,,,,,,,,,,,,,,,,,,,,a,1,1.9988,"[""0.182"",""0.346"",""0.873"",""0.953""]","[1,0,1,1]",0,47,47,47,1,0,0,,,1,FALSE,,,,,,,,,,,,,,,,,,,,,,,,,,,,,,
,613aa0162f4662712a517461,001,2022-04-28_20h11.24.092,classification_task,2021.2.3,Win32,60.09615385,613aa0162f4662712a517461,626b377229c10585ec392f89,626b3b0d0cf54eb8b1304e57,,,,,,,,,,,,,,,,,,,,,,,l,1,2.2165,"[""0.058"",""0.630"",""0.565"",""0.693""]","[1,0,1,1]",0,48,48,48,1,1,1,,,1,FALSE,,,,,,,,,,,,,,,,,,,,,,,,,,,,,,
,613aa0162f4662712a517461,001,2022-04-28_20h11.24.092,classification_task,2021.2.3,Win32,60.09615385,613aa0162f4662712a517461,626b377229c10585ec392f89,626b3b0d0cf54eb8b1304e57,,,,,,,,,,,,,,,,,,,,,,,a,1,2.9998,"[""0.294"",""0.788"",""0.733"",""0.910""]","[1,0,1,1]",0,49,49,49,1,0,1,,,1,FALSE,,,,,,,,,,,,,,,,,,,,,,,,,,,,,,
,613aa0162f4662712a517461,001,2022-04-28_20h11.24.092,classification_task,2021.2.3,Win32,60.09615385,613aa0162f4662712a517461,626b377229c10585ec392f89,626b3b0d0cf54eb8b1304e57,,,,,,,,,,,,,,,,,,,,,,,l,0,3.0001,"[""0.182"",""0.405"",""0.366"",""0.953""]","[1,1,0,1]",0,50,50,50,1,0,0,,,1,FALSE,,,,,,,,,,,,,,,,,,,,,,,,,,,,,,
,613aa0162f4662712a517461,001,2022-04-28_20h11.24.092,classification_task,2021.2.3,Win32,60.09615385,613aa0162f4662712a517461,626b377229c10585ec392f89,626b3b0d0cf54eb8b1304e57,,,,,,,,,,,,,,,,,,,,,,,l,1,1.4832,"[""0.777"",""0.127"",""0.565"",""0.693""]","[0,1,1,1]",0,51,51,51,1,1,1,,,1,FALSE,,,,,,,,,,,,,,,,,,,,,,,,,,,,,,
,613aa0162f4662712a517461,001,2022-04-28_20h11.24.092,classification_task,2021.2.3,Win32,60.09615385,613aa0162f4662712a517461,626b377229c10585ec392f89,626b3b0d0cf54eb8b1304e57,,,,,,,,,,,,,,,,,,,,,,,a,1,2.2831,"[""0.294"",""0.452"",""0.346"",""0.910""]","[1,1,0,1]",0,52,52,52,1,0,1,,,1,FALSE,,,,,,,,,,,,,,,,,,,,,,,,,,,,,,
,613aa0162f4662712a517461,001,2022-04-28_20h11.24.092,classification_task,2021.2.3,Win32,60.09615385,613aa0162f4662712a517461,626b377229c10585ec392f89,626b3b0d0cf54eb8b1304e57,,,,,,,,,,,,,,,,,,,,,,,l,1,1.5662,"[""0.058"",""0.127"",""0.565"",""0.777""]","[1,1,1,0]",0,53,53,53,1,1,1,,,1,FALSE,,,,,,,,,,,,,,,,,,,,,,,,,,,,,,
,613aa0162f4662712a517461,001,2022-04-28_20h11.24.092,classification_task,2021.2.3,Win32,60.09615385,613aa0162f4662712a517461,626b377229c10585ec392f89,626b3b0d0cf54eb8b1304e57,,,,,,,,,,,,,,,,,,,,,,,l,0,2.2162,"[""0.796"",""0.452"",""0.733"",""0.910""]","[0,1,1,1]",0,54,54,54,1,0,1,,,1,FALSE,,,,,,,,,,,,,,,,,,,,,,,,,,,,,,
,613aa0162f4662712a517461,001,2022-04-28_20h11.24.092,classification_task,2021.2.3,Win32,60.09615385,613aa0162f4662712a517461,626b377229c10585ec392f89,626b3b0d0cf54eb8b1304e57,,,,,,,,,,,,,,,,,,,,,,,l,0,1.5825,"[""0.182"",""0.405"",""0.873"",""0.656""]","[1,1,1,0]",0,55,55,55,1,0,0,,,1,FALSE,,,,,,,,,,,,,,,,,,,,,,,,,,,,,,
,613aa0162f4662712a517461,001,2022-04-28_20h11.24.092,classification_task,2021.2.3,Win32,60.09615385,613aa0162f4662712a517461,626b377229c10585ec392f89,626b3b0d0cf54eb8b1304e57,,,,,,,,,,,,,,,,,,,,,,,l,1,1.7834,"[""0.092"",""0.217"",""0.606"",""0.830""]","[1,1,0,1]",0,56,56,56,1,1,0,,,1,FALSE,,,,,,,,,,,,,,,,,,,,,,,,,,,,,,
,613aa0162f4662712a517461,001,2022-04-28_20h11.24.092,classification_task,2021.2.3,Win32,60.09615385,613aa0162f4662712a517461,626b377229c10585ec392f89,626b3b0d0cf54eb8b1304e57,,,,,,,,,,,,,,,,,,,,,,,l,1,0.9332,"[""0.058"",""0.127"",""0.656"",""0.693""]","[1,1,0,1]",0,57,57,57,1,1,1,,,1,FALSE,,,,,,,,,,,,,,,,,,,,,,,,,,,,,,
,613aa0162f4662712a517461,001,2022-04-28_20h11.24.092,classification_task,2021.2.3,Win32,60.09615385,613aa0162f4662712a517461,626b377229c10585ec392f89,626b3b0d0cf54eb8b1304e57,,,,,,,,,,,,,,,,,,,,,,,l,0,0.7329,"[""0.182"",""0.646"",""0.873"",""0.953""]","[1,0,1,1]",0,58,58,58,1,0,0,,,1,FALSE,,,,,,,,,,,,,,,,,,,,,,,,,,,,,,
,613aa0162f4662712a517461,001,2022-04-28_20h11.24.092,classification_task,2021.2.3,Win32,60.09615385,613aa0162f4662712a517461,626b377229c10585ec392f89,626b3b0d0cf54eb8b1304e57,,,,,,,,,,,,,,,,,,,,,,,a,0,1.0158,"[""0.363"",""0.217"",""0.496"",""0.830""]","[0,1,1,1]",0,59,59,59,1,1,0,,,1,FALSE,,,,,,,,,,,,,,,,,,,,,,,,,,,,,,
,613aa0162f4662712a517461,001,2022-04-28_20h11.24.092,classification_task,2021.2.3,Win32,60.09615385,613aa0162f4662712a517461,626b377229c10585ec392f89,626b3b0d0cf54eb8b1304e57,,,,,,,,,,,,,,,,,,,,,,,l,1,4.6993,"[""0.092"",""0.217"",""0.496"",""0.789""]","[1,1,1,0]",0,60,60,60,1,1,0,,,1,FALSE,,,,,,,,,,,,,,,,,,,,,,,,,,,,,,
,613aa0162f4662712a517461,001,2022-04-28_20h11.24.092,classification_task,2021.2.3,Win32,60.09615385,613aa0162f4662712a517461,626b377229c10585ec392f89,626b3b0d0cf54eb8b1304e57,,,,,,,,,,,,,,,,,,,,,,,a,1,0.984,"[""0.656"",""0.405"",""0.873"",""0.953""]","[0,1,1,1]",0,61,61,61,1,0,0,,,1,FALSE,,,,,,,,,,,,,,,,,,,,,,,,,,,,,,
,613aa0162f4662712a517461,001,2022-04-28_20h11.24.092,classification_task,2021.2.3,Win32,60.09615385,613aa0162f4662712a517461,626b377229c10585ec392f89,626b3b0d0cf54eb8b1304e57,,,,,,,,,,,,,,,,,,,,,,,l,0,1.5337,"[""0.294"",""0.452"",""0.733"",""0.646""]","[1,1,1,0]",0,62,62,62,1,0,1,,,1,FALSE,,,,,,,,,,,,,,,,,,,,,,,,,,,,,,
,613aa0162f4662712a517461,001,2022-04-28_20h11.24.092,classification_task,2021.2.3,Win32,60.09615385,613aa0162f4662712a517461,626b377229c10585ec392f89,626b3b0d0cf54eb8b1304e57,,,,,,,,,,,,,,,,,,,,,,,l,1,1.2829,"[""0.092"",""0.606"",""0.496"",""0.830""]","[1,0,1,1]",0,63,63,63,1,1,0,,,1,FALSE,,,,,,,,,,,,,,,,,,,,,,,,,,,,,,
,613aa0162f4662712a517461,001,2022-04-28_20h11.24.092,classification_task,2021.2.3,Win32,60.09615385,613aa0162f4662712a517461,626b377229c10585ec392f89,626b3b0d0cf54eb8b1304e57,,,,,,,,,,,,,,,,,,,,,,,,,,,,,,,,,,,,,,,0, ,,0,1.252204586,185.9451,0,2,2,2,1,2,3,,,,,,,,,,,,,,,,,
,613aa0162f4662712a517461,001,2022-04-28_20h11.24.092,classification_task,2021.2.3,Win32,60.09615385,613aa0162f4662712a517461,626b377229c10585ec392f89,626b3b0d0cf54eb8b1304e57,,,,,,,,,,,,,,,,,,,,,,,,,,,,,,,,,,,,,,,1,  ,,0,0.811287478,189.0223,0,2,2,2,1,2,3,,,,,,,,,,,,,,,,,
,613aa0162f4662712a517461,001,2022-04-28_20h11.24.092,classification_task,2021.2.3,Win32,60.09615385,613aa0162f4662712a517461,626b377229c10585ec392f89,626b3b0d0cf54eb8b1304e57,,,,,,,,,,,,,,,,,,,,,,,,,,,,,,,,,,,,,,,2,  ,,0,4.363119733,197.0053,0,2,2,2,1,2,3,,,,,,,,,,,,,,,,,
,613aa0162f4662712a517461,001,2022-04-28_20h11.24.092,classification_task,2021.2.3,Win32,60.09615385,613aa0162f4662712a517461,626b377229c10585ec392f89,626b3b0d0cf54eb8b1304e57,,,,,,,,,,,,,,,,,,,,,,,,,,,,,,,,,,,,,,,,,,,,,0,2,2,2,1,,3,,,,,,,,,,,,,,,,,
,613aa0162f4662712a517461,001,2022-04-28_20h11.24.092,classification_task,2021.2.3,Win32,60.09615385,613aa0162f4662712a517461,626b377229c10585ec392f89,626b3b0d0cf54eb8b1304e57,,,,,,,,,,,,,,,,,,,,,,,,,,,,,,,,,,,,,,,,,,,,,,,,,,,,,I believe the aid is a competent performer,,0.7,0,4,990.6835,0,0,0,0,1,0,,,,
,613aa0162f4662712a517461,001,2022-04-28_20h11.24.092,classification_task,2021.2.3,Win32,60.09615385,613aa0162f4662712a517461,626b377229c10585ec392f89,626b3b0d0cf54eb8b1304e57,,,,,,,,,,,,,,,,,,,,,,,,,,,,,,,,,,,,,,,,,,,,,,,,,,,,,I trust the aid,,0.7,0,5,992.6315,0,0,0,0,1,0,,,,
,613aa0162f4662712a517461,001,2022-04-28_20h11.24.092,classification_task,2021.2.3,Win32,60.09615385,613aa0162f4662712a517461,626b377229c10585ec392f89,626b3b0d0cf54eb8b1304e57,,,,,,,,,,,,,,,,,,,,,,,,,,,,,,,,,,,,,,,,,,,,,,,,,,,,,I have confidence in the advice given by the aid,,0.7,0,4,995.677,0,0,0,0,1,0,,,,
,613aa0162f4662712a517461,001,2022-04-28_20h11.24.092,classification_task,2021.2.3,Win32,60.09615385,613aa0162f4662712a517461,626b377229c10585ec392f89,626b3b0d0cf54eb8b1304e57,,,,,,,,,,,,,,,,,,,,,,,,,,,,,,,,,,,,,,,,,,,,,,,,,,,,,I can depend on the aid,,0.7,0,3,997.145,0,0,0,0,1,0,,,,
,613aa0162f4662712a517461,001,2022-04-28_20h11.24.092,classification_task,2021.2.3,Win32,60.09615385,613aa0162f4662712a517461,626b377229c10585ec392f89,626b3b0d0cf54eb8b1304e57,,,,,,,,,,,,,,,,,,,,,,,,,,,,,,,,,,,,,,,,,,,,,,,,,,,,,I can rely on the aid to behave in consistent ways,,0.7,0,3,1001.2055,0,0,0,0,1,0,,,,
,613aa0162f4662712a517461,001,2022-04-28_20h11.24.092,classification_task,2021.2.3,Win32,60.09615385,613aa0162f4662712a517461,626b377229c10585ec392f89,626b3b0d0cf54eb8b1304e57,,,,,,,,,,,,,,,,,,,,,,,,,,,,,,,,,,,,,,,,,,,,,,,,,,,,,I can rely on the aid to do its best every time I take its advice,,0.7,0,4,1003.7206,0,0,0,0,1,0,,,,
,613aa0162f4662712a517461,001,2022-04-28_20h11.24.092,classification_task,2021.2.3,Win32,60.09615385,613aa0162f4662712a517461,626b377229c10585ec392f89,626b3b0d0cf54eb8b1304e57,,,,,,,,,,,,,,,,,,,,,,,,,,,,,,,,,,,,,,,,,,,,,,,,,,,,,"On trials you completed with assistance from the aid, how frequently did you think the aid was correct?",,0.7,0,80%,,0,0,0,0,1,0,,,,
,613aa0162f4662712a517461,001,2022-04-28_20h11.24.092,classification_task,2021.2.3,Win32,60.09615385,613aa0162f4662712a517461,626b377229c10585ec392f89,626b3b0d0cf54eb8b1304e57,,,,,,,,,,,,,,,,,,,,,,,,,,,,,,,,,,,,,,,,,,,,,,,,,,,,,"On trials you completed without the aid, how frequently did you think you were correct?",,0.7,0,70%,,0,0,0,0,1,0,,,,
,613aa0162f4662712a517461,001,2022-04-28_20h11.24.092,classification_task,2021.2.3,Win32,60.09615385,613aa0162f4662712a517461,626b377229c10585ec392f89,626b3b0d0cf54eb8b1304e57,,,,,,,,,,,,,,,,,,,,,,,,,,,,,,,,,,,,,,,,,,,,,,,,,,,,,,,,,,,0,0,0,0,1,,,,,
,613aa0162f4662712a517461,001,2022-04-28_20h11.24.092,classification_task,2021.2.3,Win32,60.09615385,613aa0162f4662712a517461,626b377229c10585ec392f89,626b3b0d0cf54eb8b1304e57,,,,,,,,,,,,,,,,,,,,,,,,,,,,,,,,,,,,,,,,,,,,,,,,,,,,,,,,,,,,,,,,,space,8.0002,1054.9568,
,613aa0162f4662712a517461,001,2022-04-28_20h11.24.092,classification_task,2021.2.3,Win32,60.09615385,613aa0162f4662712a517461,626b377229c10585ec392f89,626b3b0d0cf54eb8b1304e57,,,,,,,,,,,,,,,,,,,,,,,,,,,,,,,,,,,,,,,,,,,,,,,,,,,,,,,,,,,,,,,,,,,,"Mozilla/5.0 (Windows NT 10.0; Win64; x64) AppleWebKit/537.36 (KHTML, like Gecko) Chrome/100.0.4896.127 Safari/537.36"
