usingWebGL,participant,session,date,expName,psychopyVersion,OS,frameRate,study_id,signatures_friend,signatures_foe,band_ranges_top,band_ranges_bottom,formitemText,formtype,formundefined,formitemWidth,formindex,formresponse,formrt,key_resp_2.keys,key_resp_2.rt,tute_resp.keys,tute_resp.rt,tutorial.thisRepN,tutorial.thisTrialN,tutorial.thisN,tutorial.thisIndex,tutorial.ran,key_resp_4.keys,key_resp_4.rt,key_resp.keys,key_resp.corr,key_resp.rt,lines_presented,is_signal_presented,trials.thisRepN,trials.thisTrialN,trials.thisN,trials.thisIndex,trials.ran,vessel,active_band,lines,is_signal,supported_pos,catch_trial,debrief_formindex,debrief_formitemText,debrief_formtype,debrief_formitemWidth,debrief_formresponse,debrief_formrt,phases.thisRepN,phases.thisTrialN,phases.thisN,phases.thisIndex,phases.ran,phases.order,phase,key_resp_3.keys,trustitemText,trusttype,trustitemWidth,trustindex,trustresponse,trustrt,support_status.thisRepN,support_status.thisTrialN,support_status.thisN,support_status.thisIndex,support_status.ran,support_status.order,key_resp_5.keys,key_resp_5.rt,globalClockTime,userAgent,manualCondition
TRUE,613a83cf8dd59de91973823e,627c6f2eeef365987406b55b,2022-05-11_21h24.55.258,classification_task,2021.2.3,MacIntel,60.0024001,627c6715c52fd12f31907bd0,,,,,,,,,,,,,,,,,,,,,,,,,,,,,,,,,,,,,,,,,,,,,,,,,,,,,,,,,,,,,,,,,,,,,
,613a83cf8dd59de91973823e,627c6f2eeef365987406b55b,2022-05-11_21h24.55.258,classification_task,2021.2.3,MacIntel,60.0024001,627c6715c52fd12f31907bd0,"[[""0.188"",""0.428"",""0.696"",""0.865""],[""0.288"",""0.339"",""0.619"",""0.912""]]","[[""0.064"",""0.376"",""0.550"",""0.829""],[""0.143"",""0.254"",""0.501"",""0.780""]]","[1,10]","[100,1000]",Video game experience,,,0.7,0,,,,,,,,,,,,,,,,,,,,,,,,,,,,,,,,,,,,,,,,,,,,,,,,,,,,,,,,,,,,
,613a83cf8dd59de91973823e,627c6f2eeef365987406b55b,2022-05-11_21h24.55.258,classification_task,2021.2.3,MacIntel,60.0024001,627c6715c52fd12f31907bd0,,,,,Approximately how many hours did you spend playing video games in the last week?,,,0.7,0,2,,,,,,,,,,,,,,,,,,,,,,,,,,,,,,,,,,,,,,,,,,,,,,,,,,,,,,,,,,,
,613a83cf8dd59de91973823e,627c6f2eeef365987406b55b,2022-05-11_21h24.55.258,classification_task,2021.2.3,MacIntel,60.0024001,627c6715c52fd12f31907bd0,,,,,"Which game did you play the most this year? (Enter ""None"" if you didn't play any)",,,0.7,0,League of legends,,,,,,,,,,,,,,,,,,,,,,,,,,,,,,,,,,,,,,,,,,,,,,,,,,,,,,,,,,,
,613a83cf8dd59de91973823e,627c6f2eeef365987406b55b,2022-05-11_21h24.55.258,classification_task,2021.2.3,MacIntel,60.0024001,627c6715c52fd12f31907bd0,,,,,Visual perception,,,0.7,0,,,,,,,,,,,,,,,,,,,,,,,,,,,,,,,,,,,,,,,,,,,,,,,,,,,,,,,,,,,,
,613a83cf8dd59de91973823e,627c6f2eeef365987406b55b,2022-05-11_21h24.55.258,classification_task,2021.2.3,MacIntel,60.0024001,627c6715c52fd12f31907bd0,,,,,Do you have any form of color blindness?,,,0.7,0,No,24.3979,,,,,,,,,,,,,,,,,,,,,,,,,,,,,,,,,,,,,,,,,,,,,,,,,,,,,,,,,,
,613a83cf8dd59de91973823e,627c6f2eeef365987406b55b,2022-05-11_21h24.55.258,classification_task,2021.2.3,MacIntel,60.0024001,627c6715c52fd12f31907bd0,,,,,Do you use software to change the colour temperature of your screen (e.g. f.lux)?,,,0.7,0,No,28.4718,,,,,,,,,,,,,,,,,,,,,,,,,,,,,,,,,,,,,,,,,,,,,,,,,,,,,,,,,,
,613a83cf8dd59de91973823e,627c6f2eeef365987406b55b,2022-05-11_21h24.55.258,classification_task,2021.2.3,MacIntel,60.0024001,627c6715c52fd12f31907bd0,,,,,,,,,,,,space,31.3582,space,5.2988,0,0,0,0,1,,,,,,,,,,,,,,,,,,,,,,,,,,,,,,,,,,,,,,,,,,,,,,,,,
,613a83cf8dd59de91973823e,627c6f2eeef365987406b55b,2022-05-11_21h24.55.258,classification_task,2021.2.3,MacIntel,60.0024001,627c6715c52fd12f31907bd0,,,,,,,,,,,,,,space,6.6683,1,0,1,0,1,,,,,,,,,,,,,,,,,,,,,,,,,,,,,,,,,,,,,,,,,,,,,,,,,
,613a83cf8dd59de91973823e,627c6f2eeef365987406b55b,2022-05-11_21h24.55.258,classification_task,2021.2.3,MacIntel,60.0024001,627c6715c52fd12f31907bd0,,,,,,,,,,,,,,space,11.6478,2,0,2,0,1,,,,,,,,,,,,,,,,,,,,,,,,,,,,,,,,,,,,,,,,,,,,,,,,,
,613a83cf8dd59de91973823e,627c6f2eeef365987406b55b,2022-05-11_21h24.55.258,classification_task,2021.2.3,MacIntel,60.0024001,627c6715c52fd12f31907bd0,,,,,,,,,,,,,,space,30.8831,3,0,3,0,1,,,,,,,,,,,,,,,,,,,,,,,,,,,,,,,,,,,,,,,,,,,,,,,,,
,613a83cf8dd59de91973823e,627c6f2eeef365987406b55b,2022-05-11_21h24.55.258,classification_task,2021.2.3,MacIntel,60.0024001,627c6715c52fd12f31907bd0,,,,,,,,,,,,,,space,12.067,4,0,4,0,1,,,,,,,,,,,,,,,,,,,,,,,,,,,,,,,,,,,,,,,,,,,,,,,,,
,613a83cf8dd59de91973823e,627c6f2eeef365987406b55b,2022-05-11_21h24.55.258,classification_task,2021.2.3,MacIntel,60.0024001,627c6715c52fd12f31907bd0,,,,,,,,,,,,,,,,,,,,,space,2.8029,l,1,9.0764,"[""0.467"",""0.376"",""0.550"",""0.829""]","[0,1,1,1]",0,0,0,0,1,1,0,,,1,FALSE,,,,,,,,,,,,,,,,,,,,,,,,,,,,,,,
,613a83cf8dd59de91973823e,627c6f2eeef365987406b55b,2022-05-11_21h24.55.258,classification_task,2021.2.3,MacIntel,60.0024001,627c6715c52fd12f31907bd0,,,,,,,,,,,,,,,,,,,,,,,l,1,5.1888,"[""0.143"",""0.742"",""0.501"",""0.780""]","[1,0,1,1]",0,1,1,1,1,1,1,,,1,FALSE,,,,,,,,,,,,,,,,,,,,,,,,,,,,,,,
,613a83cf8dd59de91973823e,627c6f2eeef365987406b55b,2022-05-11_21h24.55.258,classification_task,2021.2.3,MacIntel,60.0024001,627c6715c52fd12f31907bd0,,,,,,,,,,,,,,,,,,,,,,,,0,,"[""0.969"",""0.339"",""0.619"",""0.912""]","[0,1,1,1]",0,2,2,2,1,0,1,,,1,FALSE,,,,,,,,,,,,,,,,,,,,,,,,,,,,,,,
,613a83cf8dd59de91973823e,627c6f2eeef365987406b55b,2022-05-11_21h24.55.258,classification_task,2021.2.3,MacIntel,60.0024001,627c6715c52fd12f31907bd0,,,,,,,,,,,,,,,,,,,,,,,l,0,3.5696,"[""0.288"",""0.339"",""0.099"",""0.912""]","[1,1,0,1]",0,3,3,3,1,0,1,,,1,FALSE,,,,,,,,,,,,,,,,,,,,,,,,,,,,,,,
,613a83cf8dd59de91973823e,627c6f2eeef365987406b55b,2022-05-11_21h24.55.258,classification_task,2021.2.3,MacIntel,60.0024001,627c6715c52fd12f31907bd0,,,,,,,,,,,,,,,,,,,,,,,l,1,4.7199,"[""0.143"",""0.254"",""0.742"",""0.780""]","[1,1,0,1]",0,4,4,4,1,1,1,,,1,FALSE,,,,,,,,,,,,,,,,,,,,,,,,,,,,,,,
,613a83cf8dd59de91973823e,627c6f2eeef365987406b55b,2022-05-11_21h24.55.258,classification_task,2021.2.3,MacIntel,60.0024001,627c6715c52fd12f31907bd0,,,,,,,,,,,,,,,,,,,,,,,a,1,3.8821,"[""0.188"",""0.428"",""0.974"",""0.865""]","[1,1,0,1]",0,5,5,5,1,0,0,,,1,FALSE,,,,,,,,,,,,,,,,,,,,,,,,,,,,,,,
,613a83cf8dd59de91973823e,627c6f2eeef365987406b55b,2022-05-11_21h24.55.258,classification_task,2021.2.3,MacIntel,60.0024001,627c6715c52fd12f31907bd0,,,,,,,,,,,,,,,,,,,,,,,l,0,5.1809,"[""0.288"",""0.108"",""0.619"",""0.912""]","[1,0,1,1]",0,6,6,6,1,0,1,,,1,FALSE,,,,,,,,,,,,,,,,,,,,,,,,,,,,,,,
,613a83cf8dd59de91973823e,627c6f2eeef365987406b55b,2022-05-11_21h24.55.258,classification_task,2021.2.3,MacIntel,60.0024001,627c6715c52fd12f31907bd0,,,,,,,,,,,,,,,,,,,,,,,a,1,6.2489,"[""0.188"",""0.428"",""0.696"",""0.947""]","[1,1,1,0]",0,7,7,7,1,0,0,,,1,FALSE,,,,,,,,,,,,,,,,,,,,,,,,,,,,,,,
,613a83cf8dd59de91973823e,627c6f2eeef365987406b55b,2022-05-11_21h24.55.258,classification_task,2021.2.3,MacIntel,60.0024001,627c6715c52fd12f31907bd0,,,,,,,,,,,,,,,,,,,,,,,l,1,3.7993,"[""0.064"",""0.376"",""0.550"",""0.467""]","[1,1,1,0]",0,8,8,8,1,1,0,,,1,FALSE,,,,,,,,,,,,,,,,,,,,,,,,,,,,,,,
,613a83cf8dd59de91973823e,627c6f2eeef365987406b55b,2022-05-11_21h24.55.258,classification_task,2021.2.3,MacIntel,60.0024001,627c6715c52fd12f31907bd0,,,,,,,,,,,,,,,,,,,,,,,l,1,2.7367,"[""0.064"",""0.969"",""0.550"",""0.829""]","[1,0,1,1]",0,9,9,9,1,1,0,,,1,FALSE,,,,,,,,,,,,,,,,,,,,,,,,,,,,,,,
,613a83cf8dd59de91973823e,627c6f2eeef365987406b55b,2022-05-11_21h24.55.258,classification_task,2021.2.3,MacIntel,60.0024001,627c6715c52fd12f31907bd0,,,,,,,,,,,,,,,,,,,,,,,l,1,8.2145,"[""0.730"",""0.254"",""0.501"",""0.780""]","[0,1,1,1]",0,10,10,10,1,1,1,,,1,FALSE,,,,,,,,,,,,,,,,,,,,,,,,,,,,,,,
,613a83cf8dd59de91973823e,627c6f2eeef365987406b55b,2022-05-11_21h24.55.258,classification_task,2021.2.3,MacIntel,60.0024001,627c6715c52fd12f31907bd0,,,,,,,,,,,,,,,,,,,,,,,a,1,3.2534,"[""0.288"",""0.339"",""0.619"",""0.974""]","[1,1,1,0]",0,11,11,11,1,0,1,,,1,FALSE,,,,,,,,,,,,,,,,,,,,,,,,,,,,,,,
,613a83cf8dd59de91973823e,627c6f2eeef365987406b55b,2022-05-11_21h24.55.258,classification_task,2021.2.3,MacIntel,60.0024001,627c6715c52fd12f31907bd0,,,,,,,,,,,,,,,,,,,,,,,l,1,2.1719,"[""0.143"",""0.254"",""0.501"",""0.585""]","[1,1,1,0]",0,12,12,12,1,1,1,,,1,FALSE,,,,,,,,,,,,,,,,,,,,,,,,,,,,,,,
,613a83cf8dd59de91973823e,627c6f2eeef365987406b55b,2022-05-11_21h24.55.258,classification_task,2021.2.3,MacIntel,60.0024001,627c6715c52fd12f31907bd0,,,,,,,,,,,,,,,,,,,,,,,a,1,2.6939,"[""0.188"",""0.741"",""0.696"",""0.865""]","[1,0,1,1]",0,13,13,13,1,0,0,,,1,FALSE,,,,,,,,,,,,,,,,,,,,,,,,,,,,,,,
,613a83cf8dd59de91973823e,627c6f2eeef365987406b55b,2022-05-11_21h24.55.258,classification_task,2021.2.3,MacIntel,60.0024001,627c6715c52fd12f31907bd0,,,,,,,,,,,,,,,,,,,,,,,a,1,6.2135,"[""0.658"",""0.428"",""0.696"",""0.865""]","[0,1,1,1]",0,14,14,14,1,0,0,,,1,FALSE,,,,,,,,,,,,,,,,,,,,,,,,,,,,,,,
,613a83cf8dd59de91973823e,627c6f2eeef365987406b55b,2022-05-11_21h24.55.258,classification_task,2021.2.3,MacIntel,60.0024001,627c6715c52fd12f31907bd0,,,,,,,,,,,,,,,,,,,,,,,l,1,3.3862,"[""0.064"",""0.376"",""0.658"",""0.829""]","[1,1,0,1]",0,15,15,15,1,1,0,,,1,FALSE,,,,,,,,,,,,,,,,,,,,,,,,,,,,,,,
,613a83cf8dd59de91973823e,627c6f2eeef365987406b55b,2022-05-11_21h24.55.258,classification_task,2021.2.3,MacIntel,60.0024001,627c6715c52fd12f31907bd0,,,,,,,,,,,,,,,,,,,,,,,l,1,2.5663,"[""0.064"",""0.376"",""0.947"",""0.829""]","[1,1,0,1]",0,16,16,16,1,1,0,,,1,FALSE,,,,,,,,,,,,,,,,,,,,,,,,,,,,,,,
,613a83cf8dd59de91973823e,627c6f2eeef365987406b55b,2022-05-11_21h24.55.258,classification_task,2021.2.3,MacIntel,60.0024001,627c6715c52fd12f31907bd0,,,,,,,,,,,,,,,,,,,,,,,l,1,7.935,"[""0.653"",""0.376"",""0.550"",""0.829""]","[0,1,1,1]",0,17,17,17,1,1,0,,,1,FALSE,,,,,,,,,,,,,,,,,,,,,,,,,,,,,,,
,613a83cf8dd59de91973823e,627c6f2eeef365987406b55b,2022-05-11_21h24.55.258,classification_task,2021.2.3,MacIntel,60.0024001,627c6715c52fd12f31907bd0,,,,,,,,,,,,,,,,,,,,,,,a,1,3.585,"[""0.188"",""0.739"",""0.696"",""0.865""]","[1,0,1,1]",0,18,18,18,1,0,0,,,1,FALSE,,,,,,,,,,,,,,,,,,,,,,,,,,,,,,,
,613a83cf8dd59de91973823e,627c6f2eeef365987406b55b,2022-05-11_21h24.55.258,classification_task,2021.2.3,MacIntel,60.0024001,627c6715c52fd12f31907bd0,,,,,,,,,,,,,,,,,,,,,,,a,1,3.5546,"[""0.188"",""0.428"",""0.742"",""0.865""]","[1,1,0,1]",0,19,19,19,1,0,0,,,1,FALSE,,,,,,,,,,,,,,,,,,,,,,,,,,,,,,,
,613a83cf8dd59de91973823e,627c6f2eeef365987406b55b,2022-05-11_21h24.55.258,classification_task,2021.2.3,MacIntel,60.0024001,627c6715c52fd12f31907bd0,,,,,,,,,,,,,,,,,,,,,,,a,0,8.3526,"[""0.969"",""0.254"",""0.501"",""0.780""]","[0,1,1,1]",0,20,20,20,1,1,1,,,1,FALSE,,,,,,,,,,,,,,,,,,,,,,,,,,,,,,,
,613a83cf8dd59de91973823e,627c6f2eeef365987406b55b,2022-05-11_21h24.55.258,classification_task,2021.2.3,MacIntel,60.0024001,627c6715c52fd12f31907bd0,,,,,,,,,,,,,,,,,,,,,,,l,1,5.2653,"[""0.064"",""0.376"",""0.550"",""0.099""]","[1,1,1,0]",0,21,21,21,1,1,0,,,1,FALSE,,,,,,,,,,,,,,,,,,,,,,,,,,,,,,,
,613a83cf8dd59de91973823e,627c6f2eeef365987406b55b,2022-05-11_21h24.55.258,classification_task,2021.2.3,MacIntel,60.0024001,627c6715c52fd12f31907bd0,,,,,,,,,,,,,,,,,,,,,,,a,1,5.8354,"[""0.742"",""0.428"",""0.696"",""0.865""]","[0,1,1,1]",0,22,22,22,1,0,0,,,1,FALSE,,,,,,,,,,,,,,,,,,,,,,,,,,,,,,,
,613a83cf8dd59de91973823e,627c6f2eeef365987406b55b,2022-05-11_21h24.55.258,classification_task,2021.2.3,MacIntel,60.0024001,627c6715c52fd12f31907bd0,,,,,,,,,,,,,,,,,,,,,,,l,0,2.8853,"[""0.288"",""0.108"",""0.619"",""0.912""]","[1,0,1,1]",0,23,23,23,1,0,1,,,1,FALSE,,,,,,,,,,,,,,,,,,,,,,,,,,,,,,,
,613a83cf8dd59de91973823e,627c6f2eeef365987406b55b,2022-05-11_21h24.55.258,classification_task,2021.2.3,MacIntel,60.0024001,627c6715c52fd12f31907bd0,,,,,,,,,,,,,,,,,,,,,,,a,1,1.6199,"[""0.288"",""0.339"",""0.585"",""0.912""]","[1,1,0,1]",0,24,24,24,1,0,1,,,1,FALSE,,,,,,,,,,,,,,,,,,,,,,,,,,,,,,,
,613a83cf8dd59de91973823e,627c6f2eeef365987406b55b,2022-05-11_21h24.55.258,classification_task,2021.2.3,MacIntel,60.0024001,627c6715c52fd12f31907bd0,,,,,,,,,,,,,,,,,,,,,,,l,1,2.2328,"[""0.143"",""0.108"",""0.501"",""0.780""]","[1,0,1,1]",0,25,25,25,1,1,1,,,1,FALSE,,,,,,,,,,,,,,,,,,,,,,,,,,,,,,,
,613a83cf8dd59de91973823e,627c6f2eeef365987406b55b,2022-05-11_21h24.55.258,classification_task,2021.2.3,MacIntel,60.0024001,627c6715c52fd12f31907bd0,,,,,,,,,,,,,,,,,,,,,,,l,1,1.4532,"[""0.143"",""0.254"",""0.735"",""0.780""]","[1,1,0,1]",0,26,26,26,1,1,1,,,1,FALSE,,,,,,,,,,,,,,,,,,,,,,,,,,,,,,,
,613a83cf8dd59de91973823e,627c6f2eeef365987406b55b,2022-05-11_21h24.55.258,classification_task,2021.2.3,MacIntel,60.0024001,627c6715c52fd12f31907bd0,,,,,,,,,,,,,,,,,,,,,,,l,1,6.4108,"[""0.064"",""0.730"",""0.550"",""0.829""]","[1,0,1,1]",0,27,27,27,1,1,0,,,1,FALSE,,,,,,,,,,,,,,,,,,,,,,,,,,,,,,,
,613a83cf8dd59de91973823e,627c6f2eeef365987406b55b,2022-05-11_21h24.55.258,classification_task,2021.2.3,MacIntel,60.0024001,627c6715c52fd12f31907bd0,,,,,,,,,,,,,,,,,,,,,,,a,1,6.5003,"[""0.947"",""0.339"",""0.619"",""0.912""]","[0,1,1,1]",0,28,28,28,1,0,1,,,1,FALSE,,,,,,,,,,,,,,,,,,,,,,,,,,,,,,,
,613a83cf8dd59de91973823e,627c6f2eeef365987406b55b,2022-05-11_21h24.55.258,classification_task,2021.2.3,MacIntel,60.0024001,627c6715c52fd12f31907bd0,,,,,,,,,,,,,,,,,,,,,,,l,1,3.9525,"[""0.143"",""0.254"",""0.501"",""0.969""]","[1,1,1,0]",0,29,29,29,1,1,1,,,1,FALSE,,,,,,,,,,,,,,,,,,,,,,,,,,,,,,,
,613a83cf8dd59de91973823e,627c6f2eeef365987406b55b,2022-05-11_21h24.55.258,classification_task,2021.2.3,MacIntel,60.0024001,627c6715c52fd12f31907bd0,,,,,,,,,,,,,,,,,,,,,,,a,1,6.0176,"[""0.288"",""0.339"",""0.619"",""0.108""]","[1,1,1,0]",0,30,30,30,1,0,1,,,1,FALSE,,,,,,,,,,,,,,,,,,,,,,,,,,,,,,,
,613a83cf8dd59de91973823e,627c6f2eeef365987406b55b,2022-05-11_21h24.55.258,classification_task,2021.2.3,MacIntel,60.0024001,627c6715c52fd12f31907bd0,,,,,,,,,,,,,,,,,,,,,,,a,1,5.6479,"[""0.188"",""0.428"",""0.696"",""0.653""]","[1,1,1,0]",0,31,31,31,1,0,0,,,1,FALSE,,,,,,,,,,,,,,,,,,,,,,,,,,,,,,,
,613a83cf8dd59de91973823e,627c6f2eeef365987406b55b,2022-05-11_21h24.55.258,classification_task,2021.2.3,MacIntel,60.0024001,627c6715c52fd12f31907bd0,,,,,,,,,,,,,,,,,,,,,,,l,1,5.549,"[""0.064"",""0.376"",""0.947"",""0.829""]","[1,1,0,1]",0,32,32,32,1,1,0,,,1,FALSE,,,,,,,,,,,,,,,,,,,,,,,,,,,,,,,
,613a83cf8dd59de91973823e,627c6f2eeef365987406b55b,2022-05-11_21h24.55.258,classification_task,2021.2.3,MacIntel,60.0024001,627c6715c52fd12f31907bd0,,,,,,,,,,,,,,,,,,,,,,,l,0,1.5863,"[""0.188"",""0.969"",""0.696"",""0.865""]","[1,0,1,1]",0,33,33,33,1,0,0,,,1,FALSE,,,,,,,,,,,,,,,,,,,,,,,,,,,,,,,
,613a83cf8dd59de91973823e,627c6f2eeef365987406b55b,2022-05-11_21h24.55.258,classification_task,2021.2.3,MacIntel,60.0024001,627c6715c52fd12f31907bd0,,,,,,,,,,,,,,,,,,,,,,,l,0,1.1472,"[""0.188"",""0.428"",""0.947"",""0.865""]","[1,1,0,1]",0,34,34,34,1,0,0,,,1,FALSE,,,,,,,,,,,,,,,,,,,,,,,,,,,,,,,
,613a83cf8dd59de91973823e,627c6f2eeef365987406b55b,2022-05-11_21h24.55.258,classification_task,2021.2.3,MacIntel,60.0024001,627c6715c52fd12f31907bd0,,,,,,,,,,,,,,,,,,,,,,,a,1,0.6642,"[""0.288"",""0.339"",""0.108"",""0.912""]","[1,1,0,1]",0,35,35,35,1,0,1,,,1,FALSE,,,,,,,,,,,,,,,,,,,,,,,,,,,,,,,
,613a83cf8dd59de91973823e,627c6f2eeef365987406b55b,2022-05-11_21h24.55.258,classification_task,2021.2.3,MacIntel,60.0024001,627c6715c52fd12f31907bd0,,,,,,,,,,,,,,,,,,,,,,,a,0,2.1313,"[""0.143"",""0.974"",""0.501"",""0.780""]","[1,0,1,1]",0,36,36,36,1,1,1,,,1,FALSE,,,,,,,,,,,,,,,,,,,,,,,,,,,,,,,
,613a83cf8dd59de91973823e,627c6f2eeef365987406b55b,2022-05-11_21h24.55.258,classification_task,2021.2.3,MacIntel,60.0024001,627c6715c52fd12f31907bd0,,,,,,,,,,,,,,,,,,,,,,,l,1,1.5685,"[""0.969"",""0.376"",""0.550"",""0.829""]","[0,1,1,1]",0,37,37,37,1,1,0,,,1,FALSE,,,,,,,,,,,,,,,,,,,,,,,,,,,,,,,
,613a83cf8dd59de91973823e,627c6f2eeef365987406b55b,2022-05-11_21h24.55.258,classification_task,2021.2.3,MacIntel,60.0024001,627c6715c52fd12f31907bd0,,,,,,,,,,,,,,,,,,,,,,,l,0,0.8494,"[""0.969"",""0.428"",""0.696"",""0.865""]","[0,1,1,1]",0,38,38,38,1,0,0,,,1,FALSE,,,,,,,,,,,,,,,,,,,,,,,,,,,,,,,
,613a83cf8dd59de91973823e,627c6f2eeef365987406b55b,2022-05-11_21h24.55.258,classification_task,2021.2.3,MacIntel,60.0024001,627c6715c52fd12f31907bd0,,,,,,,,,,,,,,,,,,,,,,,a,0,1.2127,"[""0.658"",""0.254"",""0.501"",""0.780""]","[0,1,1,1]",0,39,39,39,1,1,1,,,1,FALSE,,,,,,,,,,,,,,,,,,,,,,,,,,,,,,,
,613a83cf8dd59de91973823e,627c6f2eeef365987406b55b,2022-05-11_21h24.55.258,classification_task,2021.2.3,MacIntel,60.0024001,627c6715c52fd12f31907bd0,,,,,,,,,,,,,,,,,,,,,,,a,0,0.6482,"[""0.143"",""0.254"",""0.735"",""0.780""]","[1,1,0,1]",0,40,40,40,1,1,1,,,1,FALSE,,,,,,,,,,,,,,,,,,,,,,,,,,,,,,,
,613a83cf8dd59de91973823e,627c6f2eeef365987406b55b,2022-05-11_21h24.55.258,classification_task,2021.2.3,MacIntel,60.0024001,627c6715c52fd12f31907bd0,,,,,,,,,,,,,,,,,,,,,,,l,0,0.5487,"[""0.288"",""0.739"",""0.619"",""0.912""]","[1,0,1,1]",0,41,41,41,1,0,1,,,1,FALSE,,,,,,,,,,,,,,,,,,,,,,,,,,,,,,,
,613a83cf8dd59de91973823e,627c6f2eeef365987406b55b,2022-05-11_21h24.55.258,classification_task,2021.2.3,MacIntel,60.0024001,627c6715c52fd12f31907bd0,,,,,,,,,,,,,,,,,,,,,,,a,0,0.682,"[""0.064"",""0.376"",""0.550"",""0.730""]","[1,1,1,0]",0,42,42,42,1,1,0,,,1,FALSE,,,,,,,,,,,,,,,,,,,,,,,,,,,,,,,
,613a83cf8dd59de91973823e,627c6f2eeef365987406b55b,2022-05-11_21h24.55.258,classification_task,2021.2.3,MacIntel,60.0024001,627c6715c52fd12f31907bd0,,,,,,,,,,,,,,,,,,,,,,,a,0,1.1979,"[""0.064"",""0.947"",""0.550"",""0.829""]","[1,0,1,1]",0,43,43,43,1,1,0,,,1,FALSE,,,,,,,,,,,,,,,,,,,,,,,,,,,,,,,
,613a83cf8dd59de91973823e,627c6f2eeef365987406b55b,2022-05-11_21h24.55.258,classification_task,2021.2.3,MacIntel,60.0024001,627c6715c52fd12f31907bd0,,,,,,,,,,,,,,,,,,,,,,,a,1,2.7514,"[""0.467"",""0.339"",""0.619"",""0.912""]","[0,1,1,1]",0,44,44,44,1,0,1,,,1,FALSE,,,,,,,,,,,,,,,,,,,,,,,,,,,,,,,
,613a83cf8dd59de91973823e,627c6f2eeef365987406b55b,2022-05-11_21h24.55.258,classification_task,2021.2.3,MacIntel,60.0024001,627c6715c52fd12f31907bd0,,,,,,,,,,,,,,,,,,,,,,,l,0,1.098,"[""0.288"",""0.339"",""0.619"",""0.969""]","[1,1,1,0]",0,45,45,45,1,0,1,,,1,FALSE,,,,,,,,,,,,,,,,,,,,,,,,,,,,,,,
,613a83cf8dd59de91973823e,627c6f2eeef365987406b55b,2022-05-11_21h24.55.258,classification_task,2021.2.3,MacIntel,60.0024001,627c6715c52fd12f31907bd0,,,,,,,,,,,,,,,,,,,,,,,a,0,0.9302,"[""0.143"",""0.254"",""0.501"",""0.732""]","[1,1,1,0]",0,46,46,46,1,1,1,,,1,FALSE,,,,,,,,,,,,,,,,,,,,,,,,,,,,,,,
,613a83cf8dd59de91973823e,627c6f2eeef365987406b55b,2022-05-11_21h24.55.258,classification_task,2021.2.3,MacIntel,60.0024001,627c6715c52fd12f31907bd0,,,,,,,,,,,,,,,,,,,,,,,a,1,2.0981,"[""0.188"",""0.428"",""0.696"",""0.969""]","[1,1,1,0]",0,47,47,47,1,0,0,,,1,FALSE,,,,,,,,,,,,,,,,,,,,,,,,,,,,,,,
,613a83cf8dd59de91973823e,627c6f2eeef365987406b55b,2022-05-11_21h24.55.258,classification_task,2021.2.3,MacIntel,60.0024001,627c6715c52fd12f31907bd0,,,,,,,,,,,,,,,,,,,,,,,a,1,1.386,"[""0.188"",""0.428"",""0.739"",""0.865""]","[1,1,0,1]",0,48,48,48,1,0,0,,,1,FALSE,,,,,,,,,,,,,,,,,,,,,,,,,,,,,,,
,613a83cf8dd59de91973823e,627c6f2eeef365987406b55b,2022-05-11_21h24.55.258,classification_task,2021.2.3,MacIntel,60.0024001,627c6715c52fd12f31907bd0,,,,,,,,,,,,,,,,,,,,,,,l,1,1.0988,"[""0.064"",""0.376"",""0.550"",""0.108""]","[1,1,1,0]",0,49,49,49,1,1,0,,,1,FALSE,,,,,,,,,,,,,,,,,,,,,,,,,,,,,,,
,613a83cf8dd59de91973823e,627c6f2eeef365987406b55b,2022-05-11_21h24.55.258,classification_task,2021.2.3,MacIntel,60.0024001,627c6715c52fd12f31907bd0,,,,,,,,,,,,,,,,,,,,,,,l,1,2.6487,"[""0.969"",""0.376"",""0.550"",""0.829""]","[0,1,1,1]",0,50,50,50,1,1,0,,,1,FALSE,,,,,,,,,,,,,,,,,,,,,,,,,,,,,,,
,613a83cf8dd59de91973823e,627c6f2eeef365987406b55b,2022-05-11_21h24.55.258,classification_task,2021.2.3,MacIntel,60.0024001,627c6715c52fd12f31907bd0,,,,,,,,,,,,,,,,,,,,,,,l,0,0.9859,"[""0.974"",""0.428"",""0.696"",""0.865""]","[0,1,1,1]",0,51,51,51,1,0,0,,,1,FALSE,,,,,,,,,,,,,,,,,,,,,,,,,,,,,,,
,613a83cf8dd59de91973823e,627c6f2eeef365987406b55b,2022-05-11_21h24.55.258,classification_task,2021.2.3,MacIntel,60.0024001,627c6715c52fd12f31907bd0,,,,,,,,,,,,,,,,,,,,,,,a,1,0.9346,"[""0.288"",""0.339"",""0.735"",""0.912""]","[1,1,0,1]",0,52,52,52,1,0,1,,,1,FALSE,,,,,,,,,,,,,,,,,,,,,,,,,,,,,,,
,613a83cf8dd59de91973823e,627c6f2eeef365987406b55b,2022-05-11_21h24.55.258,classification_task,2021.2.3,MacIntel,60.0024001,627c6715c52fd12f31907bd0,,,,,,,,,,,,,,,,,,,,,,,l,0,0.9796,"[""0.288"",""0.466"",""0.619"",""0.912""]","[1,0,1,1]",0,53,53,53,1,0,1,,,1,FALSE,,,,,,,,,,,,,,,,,,,,,,,,,,,,,,,
,613a83cf8dd59de91973823e,627c6f2eeef365987406b55b,2022-05-11_21h24.55.258,classification_task,2021.2.3,MacIntel,60.0024001,627c6715c52fd12f31907bd0,,,,,,,,,,,,,,,,,,,,,,,a,0,0.7952,"[""0.143"",""0.254"",""0.658"",""0.780""]","[1,1,0,1]",0,54,54,54,1,1,1,,,1,FALSE,,,,,,,,,,,,,,,,,,,,,,,,,,,,,,,
,613a83cf8dd59de91973823e,627c6f2eeef365987406b55b,2022-05-11_21h24.55.258,classification_task,2021.2.3,MacIntel,60.0024001,627c6715c52fd12f31907bd0,,,,,,,,,,,,,,,,,,,,,,,a,0,0.999,"[""0.143"",""0.254"",""0.501"",""0.947""]","[1,1,1,0]",0,55,55,55,1,1,1,,,1,FALSE,,,,,,,,,,,,,,,,,,,,,,,,,,,,,,,
,613a83cf8dd59de91973823e,627c6f2eeef365987406b55b,2022-05-11_21h24.55.258,classification_task,2021.2.3,MacIntel,60.0024001,627c6715c52fd12f31907bd0,,,,,,,,,,,,,,,,,,,,,,,l,1,1.3824,"[""0.064"",""0.376"",""0.947"",""0.829""]","[1,1,0,1]",0,56,56,56,1,1,0,,,1,FALSE,,,,,,,,,,,,,,,,,,,,,,,,,,,,,,,
,613a83cf8dd59de91973823e,627c6f2eeef365987406b55b,2022-05-11_21h24.55.258,classification_task,2021.2.3,MacIntel,60.0024001,627c6715c52fd12f31907bd0,,,,,,,,,,,,,,,,,,,,,,,l,1,0.7659,"[""0.064"",""0.467"",""0.550"",""0.829""]","[1,0,1,1]",0,57,57,57,1,1,0,,,1,FALSE,,,,,,,,,,,,,,,,,,,,,,,,,,,,,,,
,613a83cf8dd59de91973823e,627c6f2eeef365987406b55b,2022-05-11_21h24.55.258,classification_task,2021.2.3,MacIntel,60.0024001,627c6715c52fd12f31907bd0,,,,,,,,,,,,,,,,,,,,,,,a,1,1.0652,"[""0.188"",""0.428"",""0.696"",""0.653""]","[1,1,1,0]",0,58,58,58,1,0,0,,,1,FALSE,,,,,,,,,,,,,,,,,,,,,,,,,,,,,,,
,613a83cf8dd59de91973823e,627c6f2eeef365987406b55b,2022-05-11_21h24.55.258,classification_task,2021.2.3,MacIntel,60.0024001,627c6715c52fd12f31907bd0,,,,,,,,,,,,,,,,,,,,,,,l,1,1.9302,"[""0.143"",""0.742"",""0.501"",""0.780""]","[1,0,1,1]",0,59,59,59,1,1,1,,,1,FALSE,,,,,,,,,,,,,,,,,,,,,,,,,,,,,,,
,613a83cf8dd59de91973823e,627c6f2eeef365987406b55b,2022-05-11_21h24.55.258,classification_task,2021.2.3,MacIntel,60.0024001,627c6715c52fd12f31907bd0,,,,,,,,,,,,,,,,,,,,,,,a,0,1.1196,"[""0.739"",""0.254"",""0.501"",""0.780""]","[0,1,1,1]",0,60,60,60,1,1,1,,,1,FALSE,,,,,,,,,,,,,,,,,,,,,,,,,,,,,,,
,613a83cf8dd59de91973823e,627c6f2eeef365987406b55b,2022-05-11_21h24.55.258,classification_task,2021.2.3,MacIntel,60.0024001,627c6715c52fd12f31907bd0,,,,,,,,,,,,,,,,,,,,,,,l,0,1.1485,"[""0.658"",""0.339"",""0.619"",""0.912""]","[0,1,1,1]",0,61,61,61,1,0,1,,,1,FALSE,,,,,,,,,,,,,,,,,,,,,,,,,,,,,,,
,613a83cf8dd59de91973823e,627c6f2eeef365987406b55b,2022-05-11_21h24.55.258,classification_task,2021.2.3,MacIntel,60.0024001,627c6715c52fd12f31907bd0,,,,,,,,,,,,,,,,,,,,,,,a,1,0.7488,"[""0.188"",""0.466"",""0.696"",""0.865""]","[1,0,1,1]",0,62,62,62,1,0,0,,,1,FALSE,,,,,,,,,,,,,,,,,,,,,,,,,,,,,,,
,613a83cf8dd59de91973823e,627c6f2eeef365987406b55b,2022-05-11_21h24.55.258,classification_task,2021.2.3,MacIntel,60.0024001,627c6715c52fd12f31907bd0,,,,,,,,,,,,,,,,,,,,,,,l,0,1.083,"[""0.288"",""0.339"",""0.619"",""0.947""]","[1,1,1,0]",0,63,63,63,1,0,1,,,1,FALSE,,,,,,,,,,,,,,,,,,,,,,,,,,,,,,,
,613a83cf8dd59de91973823e,627c6f2eeef365987406b55b,2022-05-11_21h24.55.258,classification_task,2021.2.3,MacIntel,60.0024001,627c6715c52fd12f31907bd0,,,,,,,,,,,,,,,,,,,,,,,,,,,,,,,,,,,,,,,0, ,,0,0,426.9479,0,0,0,0,1,2,1,,,,,,,,,,,,,,,,,,
,613a83cf8dd59de91973823e,627c6f2eeef365987406b55b,2022-05-11_21h24.55.258,classification_task,2021.2.3,MacIntel,60.0024001,627c6715c52fd12f31907bd0,,,,,,,,,,,,,,,,,,,,,,,,,,,,,,,,,,,,,,,1,  ,,0,10,431.6125,0,0,0,0,1,2,1,,,,,,,,,,,,,,,,,,
,613a83cf8dd59de91973823e,627c6f2eeef365987406b55b,2022-05-11_21h24.55.258,classification_task,2021.2.3,MacIntel,60.0024001,627c6715c52fd12f31907bd0,,,,,,,,,,,,,,,,,,,,,,,,,,,,,,,,,,,,,,,2,  ,,0,0.577968842,440.161,0,0,0,0,1,2,1,,,,,,,,,,,,,,,,,,
,613a83cf8dd59de91973823e,627c6f2eeef365987406b55b,2022-05-11_21h24.55.258,classification_task,2021.2.3,MacIntel,60.0024001,627c6715c52fd12f31907bd0,,,,,,,,,,,,,,,,,,,,,,,,,,,,,,,,,,,,,,,,,,,,,0,0,0,0,1,,1,,,,,,,,,,,,,,,,,,
,613a83cf8dd59de91973823e,627c6f2eeef365987406b55b,2022-05-11_21h24.55.258,classification_task,2021.2.3,MacIntel,60.0024001,627c6715c52fd12f31907bd0,,,,,,,,,,,,,,,,,,,,,space,10.9472,l,1,4.6944,"[""0.143"",""0.732"",""0.501"",""0.780""]","[1,0,1,1]",0,0,0,0,1,1,1,,,1,FALSE,,,,,,,,,,,,,,,,,,,,,,,,,,,,,,,
,613a83cf8dd59de91973823e,627c6f2eeef365987406b55b,2022-05-11_21h24.55.258,classification_task,2021.2.3,MacIntel,60.0024001,627c6715c52fd12f31907bd0,,,,,,,,,,,,,,,,,,,,,,,a,0,1.9076,"[""0.064"",""0.376"",""0.550"",""0.974""]","[1,1,1,0]",0,1,1,1,1,1,0,,,1,FALSE,,,,,,,,,,,,,,,,,,,,,,,,,,,,,,,
,613a83cf8dd59de91973823e,627c6f2eeef365987406b55b,2022-05-11_21h24.55.258,classification_task,2021.2.3,MacIntel,60.0024001,627c6715c52fd12f31907bd0,,,,,,,,,,,,,,,,,,,,,,,l,0,0.9004,"[""0.653"",""0.428"",""0.696"",""0.865""]","[0,1,1,1]",0,2,2,2,1,0,0,,,1,FALSE,,,,,,,,,,,,,,,,,,,,,,,,,,,,,,,
,613a83cf8dd59de91973823e,627c6f2eeef365987406b55b,2022-05-11_21h24.55.258,classification_task,2021.2.3,MacIntel,60.0024001,627c6715c52fd12f31907bd0,,,,,,,,,,,,,,,,,,,,,,,a,1,2.4246,"[""0.288"",""0.466"",""0.619"",""0.912""]","[1,0,1,1]",0,3,3,3,1,0,1,,,1,FALSE,,,,,,,,,,,,,,,,,,,,,,,,,,,,,,,
,613a83cf8dd59de91973823e,627c6f2eeef365987406b55b,2022-05-11_21h24.55.258,classification_task,2021.2.3,MacIntel,60.0024001,627c6715c52fd12f31907bd0,,,,,,,,,,,,,,,,,,,,,,,a,1,0.9831,"[""0.288"",""0.339"",""0.730"",""0.912""]","[1,1,0,1]",0,4,4,4,1,0,1,,,1,FALSE,,,,,,,,,,,,,,,,,,,,,,,,,,,,,,,
,613a83cf8dd59de91973823e,627c6f2eeef365987406b55b,2022-05-11_21h24.55.258,classification_task,2021.2.3,MacIntel,60.0024001,627c6715c52fd12f31907bd0,,,,,,,,,,,,,,,,,,,,,,,a,1,1.1235,"[""0.188"",""0.428"",""0.696"",""0.742""]","[1,1,1,0]",0,5,5,5,1,0,0,,,1,FALSE,,,,,,,,,,,,,,,,,,,,,,,,,,,,,,,
,613a83cf8dd59de91973823e,627c6f2eeef365987406b55b,2022-05-11_21h24.55.258,classification_task,2021.2.3,MacIntel,60.0024001,627c6715c52fd12f31907bd0,,,,,,,,,,,,,,,,,,,,,,,l,1,1.134,"[""0.064"",""0.735"",""0.550"",""0.829""]","[1,0,1,1]",0,6,6,6,1,1,0,,,1,FALSE,,,,,,,,,,,,,,,,,,,,,,,,,,,,,,,
,613a83cf8dd59de91973823e,627c6f2eeef365987406b55b,2022-05-11_21h24.55.258,classification_task,2021.2.3,MacIntel,60.0024001,627c6715c52fd12f31907bd0,,,,,,,,,,,,,,,,,,,,,,,l,0,0.8985,"[""0.188"",""0.428"",""0.466"",""0.865""]","[1,1,0,1]",0,7,7,7,1,0,0,,,1,FALSE,,,,,,,,,,,,,,,,,,,,,,,,,,,,,,,
,613a83cf8dd59de91973823e,627c6f2eeef365987406b55b,2022-05-11_21h24.55.258,classification_task,2021.2.3,MacIntel,60.0024001,627c6715c52fd12f31907bd0,,,,,,,,,,,,,,,,,,,,,,,l,1,1.0751,"[""0.143"",""0.254"",""0.969"",""0.780""]","[1,1,0,1]",0,8,8,8,1,1,1,,,1,FALSE,,,,,,,,,,,,,,,,,,,,,,,,,,,,,,,
,613a83cf8dd59de91973823e,627c6f2eeef365987406b55b,2022-05-11_21h24.55.258,classification_task,2021.2.3,MacIntel,60.0024001,627c6715c52fd12f31907bd0,,,,,,,,,,,,,,,,,,,,,,,l,1,1.1083,"[""0.947"",""0.376"",""0.550"",""0.829""]","[0,1,1,1]",0,9,9,9,1,1,0,,,1,FALSE,,,,,,,,,,,,,,,,,,,,,,,,,,,,,,,
,613a83cf8dd59de91973823e,627c6f2eeef365987406b55b,2022-05-11_21h24.55.258,classification_task,2021.2.3,MacIntel,60.0024001,627c6715c52fd12f31907bd0,,,,,,,,,,,,,,,,,,,,,,,l,1,1.141,"[""0.143"",""0.254"",""0.501"",""0.739""]","[1,1,1,0]",0,10,10,10,1,1,1,,,1,FALSE,,,,,,,,,,,,,,,,,,,,,,,,,,,,,,,
,613a83cf8dd59de91973823e,627c6f2eeef365987406b55b,2022-05-11_21h24.55.258,classification_task,2021.2.3,MacIntel,60.0024001,627c6715c52fd12f31907bd0,,,,,,,,,,,,,,,,,,,,,,,a,1,0.6242,"[""0.188"",""0.099"",""0.696"",""0.865""]","[1,0,1,1]",0,11,11,11,1,0,0,,,1,FALSE,,,,,,,,,,,,,,,,,,,,,,,,,,,,,,,
,613a83cf8dd59de91973823e,627c6f2eeef365987406b55b,2022-05-11_21h24.55.258,classification_task,2021.2.3,MacIntel,60.0024001,627c6715c52fd12f31907bd0,,,,,,,,,,,,,,,,,,,,,,,l,1,0.6746,"[""0.741"",""0.254"",""0.501"",""0.780""]","[0,1,1,1]",0,12,12,12,1,1,1,,,1,FALSE,,,,,,,,,,,,,,,,,,,,,,,,,,,,,,,
,613a83cf8dd59de91973823e,627c6f2eeef365987406b55b,2022-05-11_21h24.55.258,classification_task,2021.2.3,MacIntel,60.0024001,627c6715c52fd12f31907bd0,,,,,,,,,,,,,,,,,,,,,,,a,1,0.8294,"[""0.288"",""0.339"",""0.619"",""0.467""]","[1,1,1,0]",0,13,13,13,1,0,1,,,1,FALSE,,,,,,,,,,,,,,,,,,,,,,,,,,,,,,,
,613a83cf8dd59de91973823e,627c6f2eeef365987406b55b,2022-05-11_21h24.55.258,classification_task,2021.2.3,MacIntel,60.0024001,627c6715c52fd12f31907bd0,,,,,,,,,,,,,,,,,,,,,,,a,0,1.0754,"[""0.064"",""0.376"",""0.739"",""0.829""]","[1,1,0,1]",0,14,14,14,1,1,0,,,1,FALSE,,,,,,,,,,,,,,,,,,,,,,,,,,,,,,,
,613a83cf8dd59de91973823e,627c6f2eeef365987406b55b,2022-05-11_21h24.55.258,classification_task,2021.2.3,MacIntel,60.0024001,627c6715c52fd12f31907bd0,,,,,,,,,,,,,,,,,,,,,,,a,1,0.7929,"[""0.108"",""0.339"",""0.619"",""0.912""]","[0,1,1,1]",0,15,15,15,1,0,1,,,1,FALSE,,,,,,,,,,,,,,,,,,,,,,,,,,,,,,,
,613a83cf8dd59de91973823e,627c6f2eeef365987406b55b,2022-05-11_21h24.55.258,classification_task,2021.2.3,MacIntel,60.0024001,627c6715c52fd12f31907bd0,,,,,,,,,,,,,,,,,,,,,,,l,0,1.3265,"[""0.742"",""0.428"",""0.696"",""0.865""]","[0,1,1,1]",0,16,16,16,1,0,0,,,1,FALSE,,,,,,,,,,,,,,,,,,,,,,,,,,,,,,,
,613a83cf8dd59de91973823e,627c6f2eeef365987406b55b,2022-05-11_21h24.55.258,classification_task,2021.2.3,MacIntel,60.0024001,627c6715c52fd12f31907bd0,,,,,,,,,,,,,,,,,,,,,,,l,1,0.8638,"[""0.143"",""0.254"",""0.501"",""0.585""]","[1,1,1,0]",0,17,17,17,1,1,1,,,1,FALSE,,,,,,,,,,,,,,,,,,,,,,,,,,,,,,,
,613a83cf8dd59de91973823e,627c6f2eeef365987406b55b,2022-05-11_21h24.55.258,classification_task,2021.2.3,MacIntel,60.0024001,627c6715c52fd12f31907bd0,,,,,,,,,,,,,,,,,,,,,,,l,1,0.6414,"[""0.064"",""0.376"",""0.585"",""0.829""]","[1,1,0,1]",0,18,18,18,1,1,0,,,1,FALSE,,,,,,,,,,,,,,,,,,,,,,,,,,,,,,,
,613a83cf8dd59de91973823e,627c6f2eeef365987406b55b,2022-05-11_21h24.55.258,classification_task,2021.2.3,MacIntel,60.0024001,627c6715c52fd12f31907bd0,,,,,,,,,,,,,,,,,,,,,,,l,0,1.0635,"[""0.188"",""0.108"",""0.696"",""0.865""]","[1,0,1,1]",0,19,19,19,1,0,0,,,1,FALSE,,,,,,,,,,,,,,,,,,,,,,,,,,,,,,,
,613a83cf8dd59de91973823e,627c6f2eeef365987406b55b,2022-05-11_21h24.55.258,classification_task,2021.2.3,MacIntel,60.0024001,627c6715c52fd12f31907bd0,,,,,,,,,,,,,,,,,,,,,,,l,1,0.9605,"[""0.653"",""0.254"",""0.501"",""0.780""]","[0,1,1,1]",0,20,20,20,1,1,1,,,1,FALSE,,,,,,,,,,,,,,,,,,,,,,,,,,,,,,,
,613a83cf8dd59de91973823e,627c6f2eeef365987406b55b,2022-05-11_21h24.55.258,classification_task,2021.2.3,MacIntel,60.0024001,627c6715c52fd12f31907bd0,,,,,,,,,,,,,,,,,,,,,,,a,1,1.4809,"[""0.288"",""0.108"",""0.619"",""0.912""]","[1,0,1,1]",0,21,21,21,1,0,1,,,1,FALSE,,,,,,,,,,,,,,,,,,,,,,,,,,,,,,,
,613a83cf8dd59de91973823e,627c6f2eeef365987406b55b,2022-05-11_21h24.55.258,classification_task,2021.2.3,MacIntel,60.0024001,627c6715c52fd12f31907bd0,,,,,,,,,,,,,,,,,,,,,,,a,1,0.9988,"[""0.188"",""0.428"",""0.696"",""0.730""]","[1,1,1,0]",0,22,22,22,1,0,0,,,1,FALSE,,,,,,,,,,,,,,,,,,,,,,,,,,,,,,,
,613a83cf8dd59de91973823e,627c6f2eeef365987406b55b,2022-05-11_21h24.55.258,classification_task,2021.2.3,MacIntel,60.0024001,627c6715c52fd12f31907bd0,,,,,,,,,,,,,,,,,,,,,,,a,1,0.7587,"[""0.288"",""0.339"",""0.653"",""0.912""]","[1,1,0,1]",0,23,23,23,1,0,1,,,1,FALSE,,,,,,,,,,,,,,,,,,,,,,,,,,,,,,,
,613a83cf8dd59de91973823e,627c6f2eeef365987406b55b,2022-05-11_21h24.55.258,classification_task,2021.2.3,MacIntel,60.0024001,627c6715c52fd12f31907bd0,,,,,,,,,,,,,,,,,,,,,,,l,1,0.7962,"[""0.143"",""0.658"",""0.501"",""0.780""]","[1,0,1,1]",0,24,24,24,1,1,1,,,1,FALSE,,,,,,,,,,,,,,,,,,,,,,,,,,,,,,,
,613a83cf8dd59de91973823e,627c6f2eeef365987406b55b,2022-05-11_21h24.55.258,classification_task,2021.2.3,MacIntel,60.0024001,627c6715c52fd12f31907bd0,,,,,,,,,,,,,,,,,,,,,,,l,1,0.9603,"[""0.064"",""0.739"",""0.550"",""0.829""]","[1,0,1,1]",0,25,25,25,1,1,0,,,1,FALSE,,,,,,,,,,,,,,,,,,,,,,,,,,,,,,,
,613a83cf8dd59de91973823e,627c6f2eeef365987406b55b,2022-05-11_21h24.55.258,classification_task,2021.2.3,MacIntel,60.0024001,627c6715c52fd12f31907bd0,,,,,,,,,,,,,,,,,,,,,,,l,1,1.1158,"[""0.064"",""0.376"",""0.550"",""0.974""]","[1,1,1,0]",0,26,26,26,1,1,0,,,1,FALSE,,,,,,,,,,,,,,,,,,,,,,,,,,,,,,,
,613a83cf8dd59de91973823e,627c6f2eeef365987406b55b,2022-05-11_21h24.55.258,classification_task,2021.2.3,MacIntel,60.0024001,627c6715c52fd12f31907bd0,,,,,,,,,,,,,,,,,,,,,,,l,1,0.8071,"[""0.143"",""0.254"",""0.969"",""0.780""]","[1,1,0,1]",0,27,27,27,1,1,1,,,1,FALSE,,,,,,,,,,,,,,,,,,,,,,,,,,,,,,,
,613a83cf8dd59de91973823e,627c6f2eeef365987406b55b,2022-05-11_21h24.55.258,classification_task,2021.2.3,MacIntel,60.0024001,627c6715c52fd12f31907bd0,,,,,,,,,,,,,,,,,,,,,,,a,0,0.9598,"[""0.467"",""0.376"",""0.550"",""0.829""]","[0,1,1,1]",0,28,28,28,1,1,0,,,1,FALSE,,,,,,,,,,,,,,,,,,,,,,,,,,,,,,,
,613a83cf8dd59de91973823e,627c6f2eeef365987406b55b,2022-05-11_21h24.55.258,classification_task,2021.2.3,MacIntel,60.0024001,627c6715c52fd12f31907bd0,,,,,,,,,,,,,,,,,,,,,,,a,1,0.827,"[""0.288"",""0.339"",""0.619"",""0.735""]","[1,1,1,0]",0,29,29,29,1,0,1,,,1,FALSE,,,,,,,,,,,,,,,,,,,,,,,,,,,,,,,
,613a83cf8dd59de91973823e,627c6f2eeef365987406b55b,2022-05-11_21h24.55.258,classification_task,2021.2.3,MacIntel,60.0024001,627c6715c52fd12f31907bd0,,,,,,,,,,,,,,,,,,,,,,,a,1,1.3943,"[""0.188"",""0.428"",""0.969"",""0.865""]","[1,1,0,1]",0,30,30,30,1,0,0,,,1,FALSE,,,,,,,,,,,,,,,,,,,,,,,,,,,,,,,
,613a83cf8dd59de91973823e,627c6f2eeef365987406b55b,2022-05-11_21h24.55.258,classification_task,2021.2.3,MacIntel,60.0024001,627c6715c52fd12f31907bd0,,,,,,,,,,,,,,,,,,,,,,,a,1,0.9135,"[""0.585"",""0.339"",""0.619"",""0.912""]","[0,1,1,1]",0,31,31,31,1,0,1,,,1,FALSE,,,,,,,,,,,,,,,,,,,,,,,,,,,,,,,
,613a83cf8dd59de91973823e,627c6f2eeef365987406b55b,2022-05-11_21h24.55.258,classification_task,2021.2.3,MacIntel,60.0024001,627c6715c52fd12f31907bd0,,,,,,,,,,,,,,,,,,,,,,,a,1,3.3611,"[""0.288"",""0.339"",""0.466"",""0.912""]","[1,1,0,1]",0,32,32,32,1,0,1,,,1,FALSE,,,,,,,,,,,,,,,,,,,,,,,,,,,,,,,
,613a83cf8dd59de91973823e,627c6f2eeef365987406b55b,2022-05-11_21h24.55.258,classification_task,2021.2.3,MacIntel,60.0024001,627c6715c52fd12f31907bd0,,,,,,,,,,,,,,,,,,,,,,,l,0,0.8632,"[""0.188"",""0.585"",""0.696"",""0.865""]","[1,0,1,1]",0,33,33,33,1,0,0,,,1,FALSE,,,,,,,,,,,,,,,,,,,,,,,,,,,,,,,
,613a83cf8dd59de91973823e,627c6f2eeef365987406b55b,2022-05-11_21h24.55.258,classification_task,2021.2.3,MacIntel,60.0024001,627c6715c52fd12f31907bd0,,,,,,,,,,,,,,,,,,,,,,,a,1,0.8245,"[""0.108"",""0.339"",""0.619"",""0.912""]","[0,1,1,1]",0,34,34,34,1,0,1,,,1,FALSE,,,,,,,,,,,,,,,,,,,,,,,,,,,,,,,
,613a83cf8dd59de91973823e,627c6f2eeef365987406b55b,2022-05-11_21h24.55.258,classification_task,2021.2.3,MacIntel,60.0024001,627c6715c52fd12f31907bd0,,,,,,,,,,,,,,,,,,,,,,,l,1,0.8124,"[""0.143"",""0.739"",""0.501"",""0.780""]","[1,0,1,1]",0,35,35,35,1,1,1,,,1,FALSE,,,,,,,,,,,,,,,,,,,,,,,,,,,,,,,
,613a83cf8dd59de91973823e,627c6f2eeef365987406b55b,2022-05-11_21h24.55.258,classification_task,2021.2.3,MacIntel,60.0024001,627c6715c52fd12f31907bd0,,,,,,,,,,,,,,,,,,,,,,,l,1,0.7137,"[""0.143"",""0.254"",""0.732"",""0.780""]","[1,1,0,1]",0,36,36,36,1,1,1,,,1,FALSE,,,,,,,,,,,,,,,,,,,,,,,,,,,,,,,
,613a83cf8dd59de91973823e,627c6f2eeef365987406b55b,2022-05-11_21h24.55.258,classification_task,2021.2.3,MacIntel,60.0024001,627c6715c52fd12f31907bd0,,,,,,,,,,,,,,,,,,,,,,,l,1,0.7131,"[""0.143"",""0.254"",""0.501"",""0.108""]","[1,1,1,0]",0,37,37,37,1,1,1,,,1,FALSE,,,,,,,,,,,,,,,,,,,,,,,,,,,,,,,
,613a83cf8dd59de91973823e,627c6f2eeef365987406b55b,2022-05-11_21h24.55.258,classification_task,2021.2.3,MacIntel,60.0024001,627c6715c52fd12f31907bd0,,,,,,,,,,,,,,,,,,,,,,,l,1,0.5488,"[""0.739"",""0.254"",""0.501"",""0.780""]","[0,1,1,1]",0,38,38,38,1,1,1,,,1,FALSE,,,,,,,,,,,,,,,,,,,,,,,,,,,,,,,
,613a83cf8dd59de91973823e,627c6f2eeef365987406b55b,2022-05-11_21h24.55.258,classification_task,2021.2.3,MacIntel,60.0024001,627c6715c52fd12f31907bd0,,,,,,,,,,,,,,,,,,,,,,,a,0,0.9935,"[""0.064"",""0.730"",""0.550"",""0.829""]","[1,0,1,1]",0,39,39,39,1,1,0,,,1,FALSE,,,,,,,,,,,,,,,,,,,,,,,,,,,,,,,
,613a83cf8dd59de91973823e,627c6f2eeef365987406b55b,2022-05-11_21h24.55.258,classification_task,2021.2.3,MacIntel,60.0024001,627c6715c52fd12f31907bd0,,,,,,,,,,,,,,,,,,,,,,,a,1,1.3926,"[""0.288"",""0.339"",""0.619"",""0.653""]","[1,1,1,0]",0,40,40,40,1,0,1,,,1,FALSE,,,,,,,,,,,,,,,,,,,,,,,,,,,,,,,
,613a83cf8dd59de91973823e,627c6f2eeef365987406b55b,2022-05-11_21h24.55.258,classification_task,2021.2.3,MacIntel,60.0024001,627c6715c52fd12f31907bd0,,,,,,,,,,,,,,,,,,,,,,,a,0,1.1229,"[""0.467"",""0.376"",""0.550"",""0.829""]","[0,1,1,1]",0,41,41,41,1,1,0,,,1,FALSE,,,,,,,,,,,,,,,,,,,,,,,,,,,,,,,
,613a83cf8dd59de91973823e,627c6f2eeef365987406b55b,2022-05-11_21h24.55.258,classification_task,2021.2.3,MacIntel,60.0024001,627c6715c52fd12f31907bd0,,,,,,,,,,,,,,,,,,,,,,,l,0,0.8975,"[""0.732"",""0.428"",""0.696"",""0.865""]","[0,1,1,1]",0,42,42,42,1,0,0,,,1,FALSE,,,,,,,,,,,,,,,,,,,,,,,,,,,,,,,
,613a83cf8dd59de91973823e,627c6f2eeef365987406b55b,2022-05-11_21h24.55.258,classification_task,2021.2.3,MacIntel,60.0024001,627c6715c52fd12f31907bd0,,,,,,,,,,,,,,,,,,,,,,,a,0,0.8314,"[""0.064"",""0.376"",""0.099"",""0.829""]","[1,1,0,1]",0,43,43,43,1,1,0,,,1,FALSE,,,,,,,,,,,,,,,,,,,,,,,,,,,,,,,
,613a83cf8dd59de91973823e,627c6f2eeef365987406b55b,2022-05-11_21h24.55.258,classification_task,2021.2.3,MacIntel,60.0024001,627c6715c52fd12f31907bd0,,,,,,,,,,,,,,,,,,,,,,,a,1,0.9954,"[""0.188"",""0.428"",""0.585"",""0.865""]","[1,1,0,1]",0,44,44,44,1,0,0,,,1,FALSE,,,,,,,,,,,,,,,,,,,,,,,,,,,,,,,
,613a83cf8dd59de91973823e,627c6f2eeef365987406b55b,2022-05-11_21h24.55.258,classification_task,2021.2.3,MacIntel,60.0024001,627c6715c52fd12f31907bd0,,,,,,,,,,,,,,,,,,,,,,,a,1,0.91,"[""0.288"",""0.730"",""0.619"",""0.912""]","[1,0,1,1]",0,45,45,45,1,0,1,,,1,FALSE,,,,,,,,,,,,,,,,,,,,,,,,,,,,,,,
,613a83cf8dd59de91973823e,627c6f2eeef365987406b55b,2022-05-11_21h24.55.258,classification_task,2021.2.3,MacIntel,60.0024001,627c6715c52fd12f31907bd0,,,,,,,,,,,,,,,,,,,,,,,l,0,0.8432,"[""0.188"",""0.428"",""0.696"",""0.658""]","[1,1,1,0]",0,46,46,46,1,0,0,,,1,FALSE,,,,,,,,,,,,,,,,,,,,,,,,,,,,,,,
,613a83cf8dd59de91973823e,627c6f2eeef365987406b55b,2022-05-11_21h24.55.258,classification_task,2021.2.3,MacIntel,60.0024001,627c6715c52fd12f31907bd0,,,,,,,,,,,,,,,,,,,,,,,l,1,1.6812,"[""0.064"",""0.376"",""0.550"",""0.099""]","[1,1,1,0]",0,47,47,47,1,1,0,,,1,FALSE,,,,,,,,,,,,,,,,,,,,,,,,,,,,,,,
,613a83cf8dd59de91973823e,627c6f2eeef365987406b55b,2022-05-11_21h24.55.258,classification_task,2021.2.3,MacIntel,60.0024001,627c6715c52fd12f31907bd0,,,,,,,,,,,,,,,,,,,,,,,a,0,1.04,"[""0.143"",""0.742"",""0.501"",""0.780""]","[1,0,1,1]",0,48,48,48,1,1,1,,,1,FALSE,,,,,,,,,,,,,,,,,,,,,,,,,,,,,,,
,613a83cf8dd59de91973823e,627c6f2eeef365987406b55b,2022-05-11_21h24.55.258,classification_task,2021.2.3,MacIntel,60.0024001,627c6715c52fd12f31907bd0,,,,,,,,,,,,,,,,,,,,,,,l,0,0.743,"[""0.099"",""0.428"",""0.696"",""0.865""]","[0,1,1,1]",0,49,49,49,1,0,0,,,1,FALSE,,,,,,,,,,,,,,,,,,,,,,,,,,,,,,,
,613a83cf8dd59de91973823e,627c6f2eeef365987406b55b,2022-05-11_21h24.55.258,classification_task,2021.2.3,MacIntel,60.0024001,627c6715c52fd12f31907bd0,,,,,,,,,,,,,,,,,,,,,,,a,1,0.7752,"[""0.288"",""0.339"",""0.099"",""0.912""]","[1,1,0,1]",0,50,50,50,1,0,1,,,1,FALSE,,,,,,,,,,,,,,,,,,,,,,,,,,,,,,,
,613a83cf8dd59de91973823e,627c6f2eeef365987406b55b,2022-05-11_21h24.55.258,classification_task,2021.2.3,MacIntel,60.0024001,627c6715c52fd12f31907bd0,,,,,,,,,,,,,,,,,,,,,,,l,1,0.6596,"[""0.969"",""0.376"",""0.550"",""0.829""]","[0,1,1,1]",0,51,51,51,1,1,0,,,1,FALSE,,,,,,,,,,,,,,,,,,,,,,,,,,,,,,,
,613a83cf8dd59de91973823e,627c6f2eeef365987406b55b,2022-05-11_21h24.55.258,classification_task,2021.2.3,MacIntel,60.0024001,627c6715c52fd12f31907bd0,,,,,,,,,,,,,,,,,,,,,,,a,0,0.797,"[""0.064"",""0.376"",""0.732"",""0.829""]","[1,1,0,1]",0,52,52,52,1,1,0,,,1,FALSE,,,,,,,,,,,,,,,,,,,,,,,,,,,,,,,
,613a83cf8dd59de91973823e,627c6f2eeef365987406b55b,2022-05-11_21h24.55.258,classification_task,2021.2.3,MacIntel,60.0024001,627c6715c52fd12f31907bd0,,,,,,,,,,,,,,,,,,,,,,,a,0,0.5473,"[""0.064"",""0.741"",""0.550"",""0.829""]","[1,0,1,1]",0,53,53,53,1,1,0,,,1,FALSE,,,,,,,,,,,,,,,,,,,,,,,,,,,,,,,
,613a83cf8dd59de91973823e,627c6f2eeef365987406b55b,2022-05-11_21h24.55.258,classification_task,2021.2.3,MacIntel,60.0024001,627c6715c52fd12f31907bd0,,,,,,,,,,,,,,,,,,,,,,,l,0,0.4463,"[""0.188"",""0.428"",""0.108"",""0.865""]","[1,1,0,1]",0,54,54,54,1,0,0,,,1,FALSE,,,,,,,,,,,,,,,,,,,,,,,,,,,,,,,
,613a83cf8dd59de91973823e,627c6f2eeef365987406b55b,2022-05-11_21h24.55.258,classification_task,2021.2.3,MacIntel,60.0024001,627c6715c52fd12f31907bd0,,,,,,,,,,,,,,,,,,,,,,,l,1,0.863,"[""0.064"",""0.376"",""0.550"",""0.732""]","[1,1,1,0]",0,55,55,55,1,1,0,,,1,FALSE,,,,,,,,,,,,,,,,,,,,,,,,,,,,,,,
,613a83cf8dd59de91973823e,627c6f2eeef365987406b55b,2022-05-11_21h24.55.258,classification_task,2021.2.3,MacIntel,60.0024001,627c6715c52fd12f31907bd0,,,,,,,,,,,,,,,,,,,,,,,a,1,0.7139,"[""0.188"",""0.428"",""0.696"",""0.739""]","[1,1,1,0]",0,56,56,56,1,0,0,,,1,FALSE,,,,,,,,,,,,,,,,,,,,,,,,,,,,,,,
,613a83cf8dd59de91973823e,627c6f2eeef365987406b55b,2022-05-11_21h24.55.258,classification_task,2021.2.3,MacIntel,60.0024001,627c6715c52fd12f31907bd0,,,,,,,,,,,,,,,,,,,,,,,a,1,0.9283,"[""0.288"",""0.466"",""0.619"",""0.912""]","[1,0,1,1]",0,57,57,57,1,0,1,,,1,FALSE,,,,,,,,,,,,,,,,,,,,,,,,,,,,,,,
,613a83cf8dd59de91973823e,627c6f2eeef365987406b55b,2022-05-11_21h24.55.258,classification_task,2021.2.3,MacIntel,60.0024001,627c6715c52fd12f31907bd0,,,,,,,,,,,,,,,,,,,,,,,a,0,0.6968,"[""0.741"",""0.254"",""0.501"",""0.780""]","[0,1,1,1]",0,58,58,58,1,1,1,,,1,FALSE,,,,,,,,,,,,,,,,,,,,,,,,,,,,,,,
,613a83cf8dd59de91973823e,627c6f2eeef365987406b55b,2022-05-11_21h24.55.258,classification_task,2021.2.3,MacIntel,60.0024001,627c6715c52fd12f31907bd0,,,,,,,,,,,,,,,,,,,,,,,l,0,1.1922,"[""0.188"",""0.739"",""0.696"",""0.865""]","[1,0,1,1]",0,59,59,59,1,0,0,,,1,FALSE,,,,,,,,,,,,,,,,,,,,,,,,,,,,,,,
,613a83cf8dd59de91973823e,627c6f2eeef365987406b55b,2022-05-11_21h24.55.258,classification_task,2021.2.3,MacIntel,60.0024001,627c6715c52fd12f31907bd0,,,,,,,,,,,,,,,,,,,,,,,l,1,1.1241,"[""0.143"",""0.254"",""0.735"",""0.780""]","[1,1,0,1]",0,60,60,60,1,1,1,,,1,FALSE,,,,,,,,,,,,,,,,,,,,,,,,,,,,,,,
,613a83cf8dd59de91973823e,627c6f2eeef365987406b55b,2022-05-11_21h24.55.258,classification_task,2021.2.3,MacIntel,60.0024001,627c6715c52fd12f31907bd0,,,,,,,,,,,,,,,,,,,,,,,a,1,1.3483,"[""0.288"",""0.339"",""0.619"",""0.653""]","[1,1,1,0]",0,61,61,61,1,0,1,,,1,FALSE,,,,,,,,,,,,,,,,,,,,,,,,,,,,,,,
,613a83cf8dd59de91973823e,627c6f2eeef365987406b55b,2022-05-11_21h24.55.258,classification_task,2021.2.3,MacIntel,60.0024001,627c6715c52fd12f31907bd0,,,,,,,,,,,,,,,,,,,,,,,l,0,0.963,"[""0.653"",""0.339"",""0.619"",""0.912""]","[0,1,1,1]",0,62,62,62,1,0,1,,,1,FALSE,,,,,,,,,,,,,,,,,,,,,,,,,,,,,,,
,613a83cf8dd59de91973823e,627c6f2eeef365987406b55b,2022-05-11_21h24.55.258,classification_task,2021.2.3,MacIntel,60.0024001,627c6715c52fd12f31907bd0,,,,,,,,,,,,,,,,,,,,,,,a,0,1.5631,"[""0.143"",""0.254"",""0.501"",""0.730""]","[1,1,1,0]",0,63,63,63,1,1,1,,,1,FALSE,,,,,,,,,,,,,,,,,,,,,,,,,,,,,,,
,613a83cf8dd59de91973823e,627c6f2eeef365987406b55b,2022-05-11_21h24.55.258,classification_task,2021.2.3,MacIntel,60.0024001,627c6715c52fd12f31907bd0,,,,,,,,,,,,,,,,,,,,,,,,,,,,,,,,,,,,,,,0, ,,0,0,155.1109,0,1,1,1,1,2,2,,,,,,,,,,,,,,,,,,
,613a83cf8dd59de91973823e,627c6f2eeef365987406b55b,2022-05-11_21h24.55.258,classification_task,2021.2.3,MacIntel,60.0024001,627c6715c52fd12f31907bd0,,,,,,,,,,,,,,,,,,,,,,,,,,,,,,,,,,,,,,,1,  ,,0,10,159.1923,0,1,1,1,1,2,2,,,,,,,,,,,,,,,,,,
,613a83cf8dd59de91973823e,627c6f2eeef365987406b55b,2022-05-11_21h24.55.258,classification_task,2021.2.3,MacIntel,60.0024001,627c6715c52fd12f31907bd0,,,,,,,,,,,,,,,,,,,,,,,,,,,,,,,,,,,,,,,2,  ,,0,1.782223692,166.4433,0,1,1,1,1,2,2,,,,,,,,,,,,,,,,,,
,613a83cf8dd59de91973823e,627c6f2eeef365987406b55b,2022-05-11_21h24.55.258,classification_task,2021.2.3,MacIntel,60.0024001,627c6715c52fd12f31907bd0,,,,,,,,,,,,,,,,,,,,,,,,,,,,,,,,,,,,,,,,,,,,,0,1,1,1,1,,2,,,,,,,,,,,,,,,,,,
,613a83cf8dd59de91973823e,627c6f2eeef365987406b55b,2022-05-11_21h24.55.258,classification_task,2021.2.3,MacIntel,60.0024001,627c6715c52fd12f31907bd0,,,,,,,,,,,,,,,,,,,,,space,10.2848,a,0,1.4805,"[""0.143"",""0.254"",""0.658"",""0.780""]","[1,1,0,1]",0,0,0,0,1,1,1,,,1,FALSE,,,,,,,,,,,,,,,,,,,,,,,,,,,,,,,
,613a83cf8dd59de91973823e,627c6f2eeef365987406b55b,2022-05-11_21h24.55.258,classification_task,2021.2.3,MacIntel,60.0024001,627c6715c52fd12f31907bd0,,,,,,,,,,,,,,,,,,,,,,,a,1,1.8669,"[""0.188"",""0.428"",""0.696"",""0.974""]","[1,1,1,0]",0,1,1,1,1,0,0,,,1,FALSE,,,,,,,,,,,,,,,,,,,,,,,,,,,,,,,
,613a83cf8dd59de91973823e,627c6f2eeef365987406b55b,2022-05-11_21h24.55.258,classification_task,2021.2.3,MacIntel,60.0024001,627c6715c52fd12f31907bd0,,,,,,,,,,,,,,,,,,,,,,,l,1,0.8141,"[""0.064"",""0.732"",""0.550"",""0.829""]","[1,0,1,1]",0,2,2,2,1,1,0,,,1,FALSE,,,,,,,,,,,,,,,,,,,,,,,,,,,,,,,
,613a83cf8dd59de91973823e,627c6f2eeef365987406b55b,2022-05-11_21h24.55.258,classification_task,2021.2.3,MacIntel,60.0024001,627c6715c52fd12f31907bd0,,,,,,,,,,,,,,,,,,,,,,,l,0,1.2814,"[""0.288"",""0.339"",""0.658"",""0.912""]","[1,1,0,1]",0,3,3,3,1,0,1,,,1,FALSE,,,,,,,,,,,,,,,,,,,,,,,,,,,,,,,
,613a83cf8dd59de91973823e,627c6f2eeef365987406b55b,2022-05-11_21h24.55.258,classification_task,2021.2.3,MacIntel,60.0024001,627c6715c52fd12f31907bd0,,,,,,,,,,,,,,,,,,,,,,,a,0,0.7974,"[""0.064"",""0.376"",""0.947"",""0.829""]","[1,1,0,1]",0,4,4,4,1,1,0,,,1,FALSE,,,,,,,,,,,,,,,,,,,,,,,,,,,,,,,
,613a83cf8dd59de91973823e,627c6f2eeef365987406b55b,2022-05-11_21h24.55.258,classification_task,2021.2.3,MacIntel,60.0024001,627c6715c52fd12f31907bd0,,,,,,,,,,,,,,,,,,,,,,,l,1,1.2462,"[""0.467"",""0.376"",""0.550"",""0.829""]","[0,1,1,1]",0,5,5,5,1,1,0,,,1,FALSE,,,,,,,,,,,,,,,,,,,,,,,,,,,,,,,
,613a83cf8dd59de91973823e,627c6f2eeef365987406b55b,2022-05-11_21h24.55.258,classification_task,2021.2.3,MacIntel,60.0024001,627c6715c52fd12f31907bd0,,,,,,,,,,,,,,,,,,,,,,,l,0,0.9961,"[""0.188"",""0.428"",""0.735"",""0.865""]","[1,1,0,1]",0,6,6,6,1,0,0,,,1,FALSE,,,,,,,,,,,,,,,,,,,,,,,,,,,,,,,
,613a83cf8dd59de91973823e,627c6f2eeef365987406b55b,2022-05-11_21h24.55.258,classification_task,2021.2.3,MacIntel,60.0024001,627c6715c52fd12f31907bd0,,,,,,,,,,,,,,,,,,,,,,,a,0,0.9495,"[""0.064"",""0.376"",""0.550"",""0.741""]","[1,1,1,0]",0,7,7,7,1,1,0,,,1,FALSE,,,,,,,,,,,,,,,,,,,,,,,,,,,,,,,
,613a83cf8dd59de91973823e,627c6f2eeef365987406b55b,2022-05-11_21h24.55.258,classification_task,2021.2.3,MacIntel,60.0024001,627c6715c52fd12f31907bd0,,,,,,,,,,,,,,,,,,,,,,,a,1,1.629,"[""0.288"",""0.730"",""0.619"",""0.912""]","[1,0,1,1]",0,8,8,8,1,0,1,,,1,FALSE,,,,,,,,,,,,,,,,,,,,,,,,,,,,,,,
,613a83cf8dd59de91973823e,627c6f2eeef365987406b55b,2022-05-11_21h24.55.258,classification_task,2021.2.3,MacIntel,60.0024001,627c6715c52fd12f31907bd0,,,,,,,,,,,,,,,,,,,,,,,l,1,0.767,"[""0.143"",""0.585"",""0.501"",""0.780""]","[1,0,1,1]",0,9,9,9,1,1,1,,,1,FALSE,,,,,,,,,,,,,,,,,,,,,,,,,,,,,,,
,613a83cf8dd59de91973823e,627c6f2eeef365987406b55b,2022-05-11_21h24.55.258,classification_task,2021.2.3,MacIntel,60.0024001,627c6715c52fd12f31907bd0,,,,,,,,,,,,,,,,,,,,,,,l,0,1.4988,"[""0.947"",""0.339"",""0.619"",""0.912""]","[0,1,1,1]",0,10,10,10,1,0,1,,,1,FALSE,,,,,,,,,,,,,,,,,,,,,,,,,,,,,,,
,613a83cf8dd59de91973823e,627c6f2eeef365987406b55b,2022-05-11_21h24.55.258,classification_task,2021.2.3,MacIntel,60.0024001,627c6715c52fd12f31907bd0,,,,,,,,,,,,,,,,,,,,,,,a,1,0.9825,"[""0.188"",""0.947"",""0.696"",""0.865""]","[1,0,1,1]",0,11,11,11,1,0,0,,,1,FALSE,,,,,,,,,,,,,,,,,,,,,,,,,,,,,,,
,613a83cf8dd59de91973823e,627c6f2eeef365987406b55b,2022-05-11_21h24.55.258,classification_task,2021.2.3,MacIntel,60.0024001,627c6715c52fd12f31907bd0,,,,,,,,,,,,,,,,,,,,,,,l,1,0.9144,"[""0.947"",""0.254"",""0.501"",""0.780""]","[0,1,1,1]",0,12,12,12,1,1,1,,,1,FALSE,,,,,,,,,,,,,,,,,,,,,,,,,,,,,,,
,613a83cf8dd59de91973823e,627c6f2eeef365987406b55b,2022-05-11_21h24.55.258,classification_task,2021.2.3,MacIntel,60.0024001,627c6715c52fd12f31907bd0,,,,,,,,,,,,,,,,,,,,,,,l,0,1.3994,"[""0.658"",""0.428"",""0.696"",""0.865""]","[0,1,1,1]",0,13,13,13,1,0,0,,,1,FALSE,,,,,,,,,,,,,,,,,,,,,,,,,,,,,,,
,613a83cf8dd59de91973823e,627c6f2eeef365987406b55b,2022-05-11_21h24.55.258,classification_task,2021.2.3,MacIntel,60.0024001,627c6715c52fd12f31907bd0,,,,,,,,,,,,,,,,,,,,,,,a,0,0.6835,"[""0.143"",""0.254"",""0.501"",""0.739""]","[1,1,1,0]",0,14,14,14,1,1,1,,,1,FALSE,,,,,,,,,,,,,,,,,,,,,,,,,,,,,,,
,613a83cf8dd59de91973823e,627c6f2eeef365987406b55b,2022-05-11_21h24.55.258,classification_task,2021.2.3,MacIntel,60.0024001,627c6715c52fd12f31907bd0,,,,,,,,,,,,,,,,,,,,,,,a,1,0.5981,"[""0.288"",""0.339"",""0.619"",""0.730""]","[1,1,1,0]",0,15,15,15,1,0,1,,,1,FALSE,,,,,,,,,,,,,,,,,,,,,,,,,,,,,,,
,613a83cf8dd59de91973823e,627c6f2eeef365987406b55b,2022-05-11_21h24.55.258,classification_task,2021.2.3,MacIntel,60.0024001,627c6715c52fd12f31907bd0,,,,,,,,,,,,,,,,,,,,,,,l,1,0.5975,"[""0.742"",""0.376"",""0.550"",""0.829""]","[0,1,1,1]",0,16,16,16,1,1,0,,,1,FALSE,,,,,,,,,,,,,,,,,,,,,,,,,,,,,,,
,613a83cf8dd59de91973823e,627c6f2eeef365987406b55b,2022-05-11_21h24.55.258,classification_task,2021.2.3,MacIntel,60.0024001,627c6715c52fd12f31907bd0,,,,,,,,,,,,,,,,,,,,,,,l,1,0.6636,"[""0.143"",""0.254"",""0.501"",""0.974""]","[1,1,1,0]",0,17,17,17,1,1,1,,,1,FALSE,,,,,,,,,,,,,,,,,,,,,,,,,,,,,,,
,613a83cf8dd59de91973823e,627c6f2eeef365987406b55b,2022-05-11_21h24.55.258,classification_task,2021.2.3,MacIntel,60.0024001,627c6715c52fd12f31907bd0,,,,,,,,,,,,,,,,,,,,,,,l,0,0.8986,"[""0.467"",""0.339"",""0.619"",""0.912""]","[0,1,1,1]",0,18,18,18,1,0,1,,,1,FALSE,,,,,,,,,,,,,,,,,,,,,,,,,,,,,,,
,613a83cf8dd59de91973823e,627c6f2eeef365987406b55b,2022-05-11_21h24.55.258,classification_task,2021.2.3,MacIntel,60.0024001,627c6715c52fd12f31907bd0,,,,,,,,,,,,,,,,,,,,,,,a,1,0.7151,"[""0.188"",""0.428"",""0.742"",""0.865""]","[1,1,0,1]",0,19,19,19,1,0,0,,,1,FALSE,,,,,,,,,,,,,,,,,,,,,,,,,,,,,,,
,613a83cf8dd59de91973823e,627c6f2eeef365987406b55b,2022-05-11_21h24.55.258,classification_task,2021.2.3,MacIntel,60.0024001,627c6715c52fd12f31907bd0,,,,,,,,,,,,,,,,,,,,,,,a,1,0.895,"[""0.188"",""0.428"",""0.696"",""0.741""]","[1,1,1,0]",0,20,20,20,1,0,0,,,1,FALSE,,,,,,,,,,,,,,,,,,,,,,,,,,,,,,,
,613a83cf8dd59de91973823e,627c6f2eeef365987406b55b,2022-05-11_21h24.55.258,classification_task,2021.2.3,MacIntel,60.0024001,627c6715c52fd12f31907bd0,,,,,,,,,,,,,,,,,,,,,,,l,1,0.6632,"[""0.064"",""0.376"",""0.658"",""0.829""]","[1,1,0,1]",0,21,21,21,1,1,0,,,1,FALSE,,,,,,,,,,,,,,,,,,,,,,,,,,,,,,,
,613a83cf8dd59de91973823e,627c6f2eeef365987406b55b,2022-05-11_21h24.55.258,classification_task,2021.2.3,MacIntel,60.0024001,627c6715c52fd12f31907bd0,,,,,,,,,,,,,,,,,,,,,,,a,1,0.7641,"[""0.108"",""0.428"",""0.696"",""0.865""]","[0,1,1,1]",0,22,22,22,1,0,0,,,1,FALSE,,,,,,,,,,,,,,,,,,,,,,,,,,,,,,,
,613a83cf8dd59de91973823e,627c6f2eeef365987406b55b,2022-05-11_21h24.55.258,classification_task,2021.2.3,MacIntel,60.0024001,627c6715c52fd12f31907bd0,,,,,,,,,,,,,,,,,,,,,,,l,0,1.8318,"[""0.188"",""0.585"",""0.696"",""0.865""]","[1,0,1,1]",0,23,23,23,1,0,0,,,1,FALSE,,,,,,,,,,,,,,,,,,,,,,,,,,,,,,,
,613a83cf8dd59de91973823e,627c6f2eeef365987406b55b,2022-05-11_21h24.55.258,classification_task,2021.2.3,MacIntel,60.0024001,627c6715c52fd12f31907bd0,,,,,,,,,,,,,,,,,,,,,,,l,0,0.8331,"[""0.288"",""0.339"",""0.739"",""0.912""]","[1,1,0,1]",0,24,24,24,1,0,1,,,1,FALSE,,,,,,,,,,,,,,,,,,,,,,,,,,,,,,,
,613a83cf8dd59de91973823e,627c6f2eeef365987406b55b,2022-05-11_21h24.55.258,classification_task,2021.2.3,MacIntel,60.0024001,627c6715c52fd12f31907bd0,,,,,,,,,,,,,,,,,,,,,,,a,0,1.1795,"[""0.064"",""0.099"",""0.550"",""0.829""]","[1,0,1,1]",0,25,25,25,1,1,0,,,1,FALSE,,,,,,,,,,,,,,,,,,,,,,,,,,,,,,,
,613a83cf8dd59de91973823e,627c6f2eeef365987406b55b,2022-05-11_21h24.55.258,classification_task,2021.2.3,MacIntel,60.0024001,627c6715c52fd12f31907bd0,,,,,,,,,,,,,,,,,,,,,,,l,0,1.0663,"[""0.288"",""0.741"",""0.619"",""0.912""]","[1,0,1,1]",0,26,26,26,1,0,1,,,1,FALSE,,,,,,,,,,,,,,,,,,,,,,,,,,,,,,,
,613a83cf8dd59de91973823e,627c6f2eeef365987406b55b,2022-05-11_21h24.55.258,classification_task,2021.2.3,MacIntel,60.0024001,627c6715c52fd12f31907bd0,,,,,,,,,,,,,,,,,,,,,,,l,1,0.4314,"[""0.064"",""0.376"",""0.550"",""0.947""]","[1,1,1,0]",0,27,27,27,1,1,0,,,1,FALSE,,,,,,,,,,,,,,,,,,,,,,,,,,,,,,,
,613a83cf8dd59de91973823e,627c6f2eeef365987406b55b,2022-05-11_21h24.55.258,classification_task,2021.2.3,MacIntel,60.0024001,627c6715c52fd12f31907bd0,,,,,,,,,,,,,,,,,,,,,,,a,0,0.565,"[""0.143"",""0.254"",""0.974"",""0.780""]","[1,1,0,1]",0,28,28,28,1,1,1,,,1,FALSE,,,,,,,,,,,,,,,,,,,,,,,,,,,,,,,
,613a83cf8dd59de91973823e,627c6f2eeef365987406b55b,2022-05-11_21h24.55.258,classification_task,2021.2.3,MacIntel,60.0024001,627c6715c52fd12f31907bd0,,,,,,,,,,,,,,,,,,,,,,,l,0,0.5662,"[""0.288"",""0.339"",""0.619"",""0.108""]","[1,1,1,0]",0,29,29,29,1,0,1,,,1,FALSE,,,,,,,,,,,,,,,,,,,,,,,,,,,,,,,
,613a83cf8dd59de91973823e,627c6f2eeef365987406b55b,2022-05-11_21h24.55.258,classification_task,2021.2.3,MacIntel,60.0024001,627c6715c52fd12f31907bd0,,,,,,,,,,,,,,,,,,,,,,,a,0,1.2179,"[""0.143"",""0.467"",""0.501"",""0.780""]","[1,0,1,1]",0,30,30,30,1,1,1,,,1,FALSE,,,,,,,,,,,,,,,,,,,,,,,,,,,,,,,
,613a83cf8dd59de91973823e,627c6f2eeef365987406b55b,2022-05-11_21h24.55.258,classification_task,2021.2.3,MacIntel,60.0024001,627c6715c52fd12f31907bd0,,,,,,,,,,,,,,,,,,,,,,,l,1,0.8335,"[""0.653"",""0.254"",""0.501"",""0.780""]","[0,1,1,1]",0,31,31,31,1,1,1,,,1,FALSE,,,,,,,,,,,,,,,,,,,,,,,,,,,,,,,
,613a83cf8dd59de91973823e,627c6f2eeef365987406b55b,2022-05-11_21h24.55.258,classification_task,2021.2.3,MacIntel,60.0024001,627c6715c52fd12f31907bd0,,,,,,,,,,,,,,,,,,,,,,,a,0,0.98,"[""0.064"",""0.376"",""0.466"",""0.829""]","[1,1,0,1]",0,32,32,32,1,1,0,,,1,FALSE,,,,,,,,,,,,,,,,,,,,,,,,,,,,,,,
,613a83cf8dd59de91973823e,627c6f2eeef365987406b55b,2022-05-11_21h24.55.258,classification_task,2021.2.3,MacIntel,60.0024001,627c6715c52fd12f31907bd0,,,,,,,,,,,,,,,,,,,,,,,l,0,0.8322,"[""0.188"",""0.585"",""0.696"",""0.865""]","[1,0,1,1]",0,33,33,33,1,0,0,,,1,FALSE,,,,,,,,,,,,,,,,,,,,,,,,,,,,,,,
,613a83cf8dd59de91973823e,627c6f2eeef365987406b55b,2022-05-11_21h24.55.258,classification_task,2021.2.3,MacIntel,60.0024001,627c6715c52fd12f31907bd0,,,,,,,,,,,,,,,,,,,,,,,a,1,0.8125,"[""0.732"",""0.339"",""0.619"",""0.912""]","[0,1,1,1]",0,34,34,34,1,0,1,,,1,FALSE,,,,,,,,,,,,,,,,,,,,,,,,,,,,,,,
,613a83cf8dd59de91973823e,627c6f2eeef365987406b55b,2022-05-11_21h24.55.258,classification_task,2021.2.3,MacIntel,60.0024001,627c6715c52fd12f31907bd0,,,,,,,,,,,,,,,,,,,,,,,a,1,0.5461,"[""0.288"",""0.653"",""0.619"",""0.912""]","[1,0,1,1]",0,35,35,35,1,0,1,,,1,FALSE,,,,,,,,,,,,,,,,,,,,,,,,,,,,,,,
,613a83cf8dd59de91973823e,627c6f2eeef365987406b55b,2022-05-11_21h24.55.258,classification_task,2021.2.3,MacIntel,60.0024001,627c6715c52fd12f31907bd0,,,,,,,,,,,,,,,,,,,,,,,l,0,0.4162,"[""0.188"",""0.428"",""0.741"",""0.865""]","[1,1,0,1]",0,36,36,36,1,0,0,,,1,FALSE,,,,,,,,,,,,,,,,,,,,,,,,,,,,,,,
,613a83cf8dd59de91973823e,627c6f2eeef365987406b55b,2022-05-11_21h24.55.258,classification_task,2021.2.3,MacIntel,60.0024001,627c6715c52fd12f31907bd0,,,,,,,,,,,,,,,,,,,,,,,l,0,1.9646,"[""0.735"",""0.428"",""0.696"",""0.865""]","[0,1,1,1]",0,37,37,37,1,0,0,,,1,FALSE,,,,,,,,,,,,,,,,,,,,,,,,,,,,,,,
,613a83cf8dd59de91973823e,627c6f2eeef365987406b55b,2022-05-11_21h24.55.258,classification_task,2021.2.3,MacIntel,60.0024001,627c6715c52fd12f31907bd0,,,,,,,,,,,,,,,,,,,,,,,a,1,0.5301,"[""0.288"",""0.339"",""0.730"",""0.912""]","[1,1,0,1]",0,38,38,38,1,0,1,,,1,FALSE,,,,,,,,,,,,,,,,,,,,,,,,,,,,,,,
,613a83cf8dd59de91973823e,627c6f2eeef365987406b55b,2022-05-11_21h24.55.258,classification_task,2021.2.3,MacIntel,60.0024001,627c6715c52fd12f31907bd0,,,,,,,,,,,,,,,,,,,,,,,a,0,0.831,"[""0.143"",""0.254"",""0.501"",""0.741""]","[1,1,1,0]",0,39,39,39,1,1,1,,,1,FALSE,,,,,,,,,,,,,,,,,,,,,,,,,,,,,,,
,613a83cf8dd59de91973823e,627c6f2eeef365987406b55b,2022-05-11_21h24.55.258,classification_task,2021.2.3,MacIntel,60.0024001,627c6715c52fd12f31907bd0,,,,,,,,,,,,,,,,,,,,,,,l,0,0.6624,"[""0.188"",""0.428"",""0.696"",""0.730""]","[1,1,1,0]",0,40,40,40,1,0,0,,,1,FALSE,,,,,,,,,,,,,,,,,,,,,,,,,,,,,,,
,613a83cf8dd59de91973823e,627c6f2eeef365987406b55b,2022-05-11_21h24.55.258,classification_task,2021.2.3,MacIntel,60.0024001,627c6715c52fd12f31907bd0,,,,,,,,,,,,,,,,,,,,,,,a,0,0.9667,"[""0.143"",""0.254"",""0.732"",""0.780""]","[1,1,0,1]",0,41,41,41,1,1,1,,,1,FALSE,,,,,,,,,,,,,,,,,,,,,,,,,,,,,,,
,613a83cf8dd59de91973823e,627c6f2eeef365987406b55b,2022-05-11_21h24.55.258,classification_task,2021.2.3,MacIntel,60.0024001,627c6715c52fd12f31907bd0,,,,,,,,,,,,,,,,,,,,,,,a,1,0.616,"[""0.288"",""0.339"",""0.619"",""0.741""]","[1,1,1,0]",0,42,42,42,1,0,1,,,1,FALSE,,,,,,,,,,,,,,,,,,,,,,,,,,,,,,,
,613a83cf8dd59de91973823e,627c6f2eeef365987406b55b,2022-05-11_21h24.55.258,classification_task,2021.2.3,MacIntel,60.0024001,627c6715c52fd12f31907bd0,,,,,,,,,,,,,,,,,,,,,,,a,0,1.4627,"[""0.064"",""0.376"",""0.550"",""0.730""]","[1,1,1,0]",0,43,43,43,1,1,0,,,1,FALSE,,,,,,,,,,,,,,,,,,,,,,,,,,,,,,,
,613a83cf8dd59de91973823e,627c6f2eeef365987406b55b,2022-05-11_21h24.55.258,classification_task,2021.2.3,MacIntel,60.0024001,627c6715c52fd12f31907bd0,,,,,,,,,,,,,,,,,,,,,,,l,1,0.5312,"[""0.143"",""0.658"",""0.501"",""0.780""]","[1,0,1,1]",0,44,44,44,1,1,1,,,1,FALSE,,,,,,,,,,,,,,,,,,,,,,,,,,,,,,,
,613a83cf8dd59de91973823e,627c6f2eeef365987406b55b,2022-05-11_21h24.55.258,classification_task,2021.2.3,MacIntel,60.0024001,627c6715c52fd12f31907bd0,,,,,,,,,,,,,,,,,,,,,,,l,1,1.4324,"[""0.108"",""0.254"",""0.501"",""0.780""]","[0,1,1,1]",0,45,45,45,1,1,1,,,1,FALSE,,,,,,,,,,,,,,,,,,,,,,,,,,,,,,,
,613a83cf8dd59de91973823e,627c6f2eeef365987406b55b,2022-05-11_21h24.55.258,classification_task,2021.2.3,MacIntel,60.0024001,627c6715c52fd12f31907bd0,,,,,,,,,,,,,,,,,,,,,,,a,0,1.196,"[""0.969"",""0.376"",""0.550"",""0.829""]","[0,1,1,1]",0,46,46,46,1,1,0,,,1,FALSE,,,,,,,,,,,,,,,,,,,,,,,,,,,,,,,
,613a83cf8dd59de91973823e,627c6f2eeef365987406b55b,2022-05-11_21h24.55.258,classification_task,2021.2.3,MacIntel,60.0024001,627c6715c52fd12f31907bd0,,,,,,,,,,,,,,,,,,,,,,,a,0,0.9803,"[""0.064"",""0.741"",""0.550"",""0.829""]","[1,0,1,1]",0,47,47,47,1,1,0,,,1,FALSE,,,,,,,,,,,,,,,,,,,,,,,,,,,,,,,
,613a83cf8dd59de91973823e,627c6f2eeef365987406b55b,2022-05-11_21h24.55.258,classification_task,2021.2.3,MacIntel,60.0024001,627c6715c52fd12f31907bd0,,,,,,,,,,,,,,,,,,,,,,,l,1,0.7138,"[""0.143"",""0.254"",""0.501"",""0.466""]","[1,1,1,0]",0,48,48,48,1,1,1,,,1,FALSE,,,,,,,,,,,,,,,,,,,,,,,,,,,,,,,
,613a83cf8dd59de91973823e,627c6f2eeef365987406b55b,2022-05-11_21h24.55.258,classification_task,2021.2.3,MacIntel,60.0024001,627c6715c52fd12f31907bd0,,,,,,,,,,,,,,,,,,,,,,,a,0,0.6145,"[""0.064"",""0.376"",""0.739"",""0.829""]","[1,1,0,1]",0,49,49,49,1,1,0,,,1,FALSE,,,,,,,,,,,,,,,,,,,,,,,,,,,,,,,
,613a83cf8dd59de91973823e,627c6f2eeef365987406b55b,2022-05-11_21h24.55.258,classification_task,2021.2.3,MacIntel,60.0024001,627c6715c52fd12f31907bd0,,,,,,,,,,,,,,,,,,,,,,,l,1,0.9138,"[""0.143"",""0.974"",""0.501"",""0.780""]","[1,0,1,1]",0,50,50,50,1,1,1,,,1,FALSE,,,,,,,,,,,,,,,,,,,,,,,,,,,,,,,
,613a83cf8dd59de91973823e,627c6f2eeef365987406b55b,2022-05-11_21h24.55.258,classification_task,2021.2.3,MacIntel,60.0024001,627c6715c52fd12f31907bd0,,,,,,,,,,,,,,,,,,,,,,,a,1,0.916,"[""0.288"",""0.339"",""0.735"",""0.912""]","[1,1,0,1]",0,51,51,51,1,0,1,,,1,FALSE,,,,,,,,,,,,,,,,,,,,,,,,,,,,,,,
,613a83cf8dd59de91973823e,627c6f2eeef365987406b55b,2022-05-11_21h24.55.258,classification_task,2021.2.3,MacIntel,60.0024001,627c6715c52fd12f31907bd0,,,,,,,,,,,,,,,,,,,,,,,a,0,0.883,"[""0.466"",""0.254"",""0.501"",""0.780""]","[0,1,1,1]",0,52,52,52,1,1,1,,,1,FALSE,,,,,,,,,,,,,,,,,,,,,,,,,,,,,,,
,613a83cf8dd59de91973823e,627c6f2eeef365987406b55b,2022-05-11_21h24.55.258,classification_task,2021.2.3,MacIntel,60.0024001,627c6715c52fd12f31907bd0,,,,,,,,,,,,,,,,,,,,,,,l,1,0.8246,"[""0.064"",""0.947"",""0.550"",""0.829""]","[1,0,1,1]",0,53,53,53,1,1,0,,,1,FALSE,,,,,,,,,,,,,,,,,,,,,,,,,,,,,,,
,613a83cf8dd59de91973823e,627c6f2eeef365987406b55b,2022-05-11_21h24.55.258,classification_task,2021.2.3,MacIntel,60.0024001,627c6715c52fd12f31907bd0,,,,,,,,,,,,,,,,,,,,,,,l,0,1.2851,"[""0.188"",""0.428"",""0.099"",""0.865""]","[1,1,0,1]",0,54,54,54,1,0,0,,,1,FALSE,,,,,,,,,,,,,,,,,,,,,,,,,,,,,,,
,613a83cf8dd59de91973823e,627c6f2eeef365987406b55b,2022-05-11_21h24.55.258,classification_task,2021.2.3,MacIntel,60.0024001,627c6715c52fd12f31907bd0,,,,,,,,,,,,,,,,,,,,,,,l,0,0.9328,"[""0.288"",""0.339"",""0.619"",""0.658""]","[1,1,1,0]",0,55,55,55,1,0,1,,,1,FALSE,,,,,,,,,,,,,,,,,,,,,,,,,,,,,,,
,613a83cf8dd59de91973823e,627c6f2eeef365987406b55b,2022-05-11_21h24.55.258,classification_task,2021.2.3,MacIntel,60.0024001,627c6715c52fd12f31907bd0,,,,,,,,,,,,,,,,,,,,,,,a,0,0.5812,"[""0.143"",""0.254"",""0.108"",""0.780""]","[1,1,0,1]",0,56,56,56,1,1,1,,,1,FALSE,,,,,,,,,,,,,,,,,,,,,,,,,,,,,,,
,613a83cf8dd59de91973823e,627c6f2eeef365987406b55b,2022-05-11_21h24.55.258,classification_task,2021.2.3,MacIntel,60.0024001,627c6715c52fd12f31907bd0,,,,,,,,,,,,,,,,,,,,,,,l,0,0.9634,"[""0.288"",""0.735"",""0.619"",""0.912""]","[1,0,1,1]",0,57,57,57,1,0,1,,,1,FALSE,,,,,,,,,,,,,,,,,,,,,,,,,,,,,,,
,613a83cf8dd59de91973823e,627c6f2eeef365987406b55b,2022-05-11_21h24.55.258,classification_task,2021.2.3,MacIntel,60.0024001,627c6715c52fd12f31907bd0,,,,,,,,,,,,,,,,,,,,,,,a,1,0.5493,"[""0.741"",""0.428"",""0.696"",""0.865""]","[0,1,1,1]",0,58,58,58,1,0,0,,,1,FALSE,,,,,,,,,,,,,,,,,,,,,,,,,,,,,,,
,613a83cf8dd59de91973823e,627c6f2eeef365987406b55b,2022-05-11_21h24.55.258,classification_task,2021.2.3,MacIntel,60.0024001,627c6715c52fd12f31907bd0,,,,,,,,,,,,,,,,,,,,,,,l,0,1.0311,"[""0.969"",""0.339"",""0.619"",""0.912""]","[0,1,1,1]",0,59,59,59,1,0,1,,,1,FALSE,,,,,,,,,,,,,,,,,,,,,,,,,,,,,,,
,613a83cf8dd59de91973823e,627c6f2eeef365987406b55b,2022-05-11_21h24.55.258,classification_task,2021.2.3,MacIntel,60.0024001,627c6715c52fd12f31907bd0,,,,,,,,,,,,,,,,,,,,,,,a,1,0.6485,"[""0.188"",""0.730"",""0.696"",""0.865""]","[1,0,1,1]",0,60,60,60,1,0,0,,,1,FALSE,,,,,,,,,,,,,,,,,,,,,,,,,,,,,,,
,613a83cf8dd59de91973823e,627c6f2eeef365987406b55b,2022-05-11_21h24.55.258,classification_task,2021.2.3,MacIntel,60.0024001,627c6715c52fd12f31907bd0,,,,,,,,,,,,,,,,,,,,,,,a,0,0.732,"[""0.064"",""0.376"",""0.550"",""0.466""]","[1,1,1,0]",0,61,61,61,1,1,0,,,1,FALSE,,,,,,,,,,,,,,,,,,,,,,,,,,,,,,,
,613a83cf8dd59de91973823e,627c6f2eeef365987406b55b,2022-05-11_21h24.55.258,classification_task,2021.2.3,MacIntel,60.0024001,627c6715c52fd12f31907bd0,,,,,,,,,,,,,,,,,,,,,,,l,0,1.0989,"[""0.188"",""0.428"",""0.696"",""0.653""]","[1,1,1,0]",0,62,62,62,1,0,0,,,1,FALSE,,,,,,,,,,,,,,,,,,,,,,,,,,,,,,,
,613a83cf8dd59de91973823e,627c6f2eeef365987406b55b,2022-05-11_21h24.55.258,classification_task,2021.2.3,MacIntel,60.0024001,627c6715c52fd12f31907bd0,,,,,,,,,,,,,,,,,,,,,,,a,0,0.8313,"[""0.467"",""0.376"",""0.550"",""0.829""]","[0,1,1,1]",0,63,63,63,1,1,0,,,1,FALSE,,,,,,,,,,,,,,,,,,,,,,,,,,,,,,,
,613a83cf8dd59de91973823e,627c6f2eeef365987406b55b,2022-05-11_21h24.55.258,classification_task,2021.2.3,MacIntel,60.0024001,627c6715c52fd12f31907bd0,,,,,,,,,,,,,,,,,,,,,,,,,,,,,,,,,,,,,,,0, ,,0,0,141.4635,0,2,2,2,1,2,3,,,,,,,,,,,,,,,,,,
,613a83cf8dd59de91973823e,627c6f2eeef365987406b55b,2022-05-11_21h24.55.258,classification_task,2021.2.3,MacIntel,60.0024001,627c6715c52fd12f31907bd0,,,,,,,,,,,,,,,,,,,,,,,,,,,,,,,,,,,,,,,1,  ,,0,10,144.61,0,2,2,2,1,2,3,,,,,,,,,,,,,,,,,,
,613a83cf8dd59de91973823e,627c6f2eeef365987406b55b,2022-05-11_21h24.55.258,classification_task,2021.2.3,MacIntel,60.0024001,627c6715c52fd12f31907bd0,,,,,,,,,,,,,,,,,,,,,,,,,,,,,,,,,,,,,,,2,  ,,0,8.917272928,147.3937,0,2,2,2,1,2,3,,,,,,,,,,,,,,,,,,
,613a83cf8dd59de91973823e,627c6f2eeef365987406b55b,2022-05-11_21h24.55.258,classification_task,2021.2.3,MacIntel,60.0024001,627c6715c52fd12f31907bd0,,,,,,,,,,,,,,,,,,,,,,,,,,,,,,,,,,,,,,,,,,,,,0,2,2,2,1,,3,,,,,,,,,,,,,,,,,,
,613a83cf8dd59de91973823e,627c6f2eeef365987406b55b,2022-05-11_21h24.55.258,classification_task,2021.2.3,MacIntel,60.0024001,627c6715c52fd12f31907bd0,,,,,,,,,,,,,,,,,,,,,,,,,,,,,,,,,,,,,,,,,,,,,,,,,,,,,I believe the aid is a competent performer,,0.7,0,4,821.5889,0,0,0,0,1,0,,,,,
,613a83cf8dd59de91973823e,627c6f2eeef365987406b55b,2022-05-11_21h24.55.258,classification_task,2021.2.3,MacIntel,60.0024001,627c6715c52fd12f31907bd0,,,,,,,,,,,,,,,,,,,,,,,,,,,,,,,,,,,,,,,,,,,,,,,,,,,,,I trust the aid,,0.7,0,5,781.688,0,0,0,0,1,0,,,,,
,613a83cf8dd59de91973823e,627c6f2eeef365987406b55b,2022-05-11_21h24.55.258,classification_task,2021.2.3,MacIntel,60.0024001,627c6715c52fd12f31907bd0,,,,,,,,,,,,,,,,,,,,,,,,,,,,,,,,,,,,,,,,,,,,,,,,,,,,,I have confidence in the advice given by the aid,,0.7,0,4,823.6121,0,0,0,0,1,0,,,,,
,613a83cf8dd59de91973823e,627c6f2eeef365987406b55b,2022-05-11_21h24.55.258,classification_task,2021.2.3,MacIntel,60.0024001,627c6715c52fd12f31907bd0,,,,,,,,,,,,,,,,,,,,,,,,,,,,,,,,,,,,,,,,,,,,,,,,,,,,,I can depend on the aid,,0.7,0,4,788.1859,0,0,0,0,1,0,,,,,
,613a83cf8dd59de91973823e,627c6f2eeef365987406b55b,2022-05-11_21h24.55.258,classification_task,2021.2.3,MacIntel,60.0024001,627c6715c52fd12f31907bd0,,,,,,,,,,,,,,,,,,,,,,,,,,,,,,,,,,,,,,,,,,,,,,,,,,,,,I can rely on the aid to behave in consistent ways,,0.7,0,3,789.8915,0,0,0,0,1,0,,,,,
,613a83cf8dd59de91973823e,627c6f2eeef365987406b55b,2022-05-11_21h24.55.258,classification_task,2021.2.3,MacIntel,60.0024001,627c6715c52fd12f31907bd0,,,,,,,,,,,,,,,,,,,,,,,,,,,,,,,,,,,,,,,,,,,,,,,,,,,,,I can rely on the aid to do its best every time I take its advice,,0.7,0,4,795.1322,0,0,0,0,1,0,,,,,
,613a83cf8dd59de91973823e,627c6f2eeef365987406b55b,2022-05-11_21h24.55.258,classification_task,2021.2.3,MacIntel,60.0024001,627c6715c52fd12f31907bd0,,,,,,,,,,,,,,,,,,,,,,,,,,,,,,,,,,,,,,,,,,,,,,,,,,,,,"On trials you completed with assistance from the aid, how frequently did you think the aid was correct?",,0.7,0,90%,,0,0,0,0,1,0,,,,,
,613a83cf8dd59de91973823e,627c6f2eeef365987406b55b,2022-05-11_21h24.55.258,classification_task,2021.2.3,MacIntel,60.0024001,627c6715c52fd12f31907bd0,,,,,,,,,,,,,,,,,,,,,,,,,,,,,,,,,,,,,,,,,,,,,,,,,,,,,"On trials you completed without the aid, how frequently did you think you were correct?",,0.7,0,70%,,0,0,0,0,1,0,,,,,
,613a83cf8dd59de91973823e,627c6f2eeef365987406b55b,2022-05-11_21h24.55.258,classification_task,2021.2.3,MacIntel,60.0024001,627c6715c52fd12f31907bd0,,,,,,,,,,,,,,,,,,,,,,,,,,,,,,,,,,,,,,,,,,,,,,,,,,,,,,,,,,,0,0,0,0,1,,,,,,
,613a83cf8dd59de91973823e,627c6f2eeef365987406b55b,2022-05-11_21h24.55.258,classification_task,2021.2.3,MacIntel,60.0024001,627c6715c52fd12f31907bd0,,,,,,,,,,,,,,,,,,,,,,,,,,,,,,,,,,,,,,,,,,,,,,,,,,,,,,,,,,,,,,,,,space,9.8342,835.3943,,
,613a83cf8dd59de91973823e,627c6f2eeef365987406b55b,2022-05-11_21h24.55.258,classification_task,2021.2.3,MacIntel,60.0024001,627c6715c52fd12f31907bd0,,,,,,,,,,,,,,,,,,,,,,,,,,,,,,,,,,,,,,,,,,,,,,,,,,,,,,,,,,,,,,,,,,,,"Mozilla/5.0 (Macintosh; Intel Mac OS X 10_15_7) AppleWebKit/537.36 (KHTML, like Gecko) Chrome/101.0.4951.54 Safari/537.36",
,613a83cf8dd59de91973823e,627c6f2eeef365987406b55b,2022-05-11_21h24.55.258,classification_task,2021.2.3,MacIntel,60.0024001,627c6715c52fd12f31907bd0,,,,,,,,,,,,,,,,,,,,,,,,,,,,,,,,,,,,,,,,,,,,,,,,,,,,,,,,,,,,,,,,,,,,,FADING
