usingWebGL,participant,session,date,expName,psychopyVersion,OS,frameRate,PROLIFIC_PID,STUDY_ID,SESSION_ID,signatures_friend,signatures_foe,band_ranges_top,band_ranges_bottom,formitemText,formtype,formundefined,formitemWidth,formindex,formresponse,formrt,key_resp_2.keys,key_resp_2.rt,tute_resp.keys,tute_resp.rt,tutorial.thisRepN,tutorial.thisTrialN,tutorial.thisN,tutorial.thisIndex,tutorial.ran,key_resp_4.keys,key_resp_4.rt,key_resp.keys,key_resp.corr,key_resp.rt,lines_presented,is_signal_presented,trials.thisRepN,trials.thisTrialN,trials.thisN,trials.thisIndex,trials.ran,vessel,active_band,lines,is_signal,supported_pos,catch_trial,debrief_formindex,debrief_formitemText,debrief_formtype,debrief_formitemWidth,debrief_formresponse,debrief_formrt,phases.thisRepN,phases.thisTrialN,phases.thisN,phases.thisIndex,phases.ran,phases.order,phase,key_resp_3.keys,trustitemText,trusttype,trustitemWidth,trustindex,trustresponse,trustrt,support_status.thisRepN,support_status.thisTrialN,support_status.thisN,support_status.thisIndex,support_status.ran,support_status.order,key_resp_5.keys,key_resp_5.rt,globalClockTime,userAgent
TRUE,613a7f3c88a2c0d8087b6a5c,001,2022-04-28_20h10.12.462,classification_task,2021.2.3,Win32,60.10699044,613a7f3c88a2c0d8087b6a5c,626b377229c10585ec392f89,626b3ab12f0aeed8afb3ff50,,,,,,,,,,,,,,,,,,,,,,,,,,,,,,,,,,,,,,,,,,,,,,,,,,,,,,,,,,,,,,,,,,,,
,613a7f3c88a2c0d8087b6a5c,001,2022-04-28_20h10.12.462,classification_task,2021.2.3,Win32,60.10699044,613a7f3c88a2c0d8087b6a5c,626b377229c10585ec392f89,626b3ab12f0aeed8afb3ff50,"[[""0.249"",""0.549"",""0.859"",""0.968""],[""0.288"",""0.514"",""0.893"",""0.931""]]","[[""0.144"",""0.189"",""0.598"",""0.791""],[""0.056"",""0.340"",""0.634"",""0.677""]]","[1,10]","[100,1000]",Video game experience,,,0.7,0,,,,,,,,,,,,,,,,,,,,,,,,,,,,,,,,,,,,,,,,,,,,,,,,,,,,,,,,,,,
,613a7f3c88a2c0d8087b6a5c,001,2022-04-28_20h10.12.462,classification_task,2021.2.3,Win32,60.10699044,613a7f3c88a2c0d8087b6a5c,626b377229c10585ec392f89,626b3ab12f0aeed8afb3ff50,,,,,Approximately how many hours did you spend playing video games in the last week?,,,0.7,0,18,,,,,,,,,,,,,,,,,,,,,,,,,,,,,,,,,,,,,,,,,,,,,,,,,,,,,,,,,,
,613a7f3c88a2c0d8087b6a5c,001,2022-04-28_20h10.12.462,classification_task,2021.2.3,Win32,60.10699044,613a7f3c88a2c0d8087b6a5c,626b377229c10585ec392f89,626b3ab12f0aeed8afb3ff50,,,,,"Which game did you play the most this year? (Enter ""None"" if you didn't play any)",,,0.7,0,FIFA 22,,,,,,,,,,,,,,,,,,,,,,,,,,,,,,,,,,,,,,,,,,,,,,,,,,,,,,,,,,
,613a7f3c88a2c0d8087b6a5c,001,2022-04-28_20h10.12.462,classification_task,2021.2.3,Win32,60.10699044,613a7f3c88a2c0d8087b6a5c,626b377229c10585ec392f89,626b3ab12f0aeed8afb3ff50,,,,,Visual perception,,,0.7,0,,,,,,,,,,,,,,,,,,,,,,,,,,,,,,,,,,,,,,,,,,,,,,,,,,,,,,,,,,,
,613a7f3c88a2c0d8087b6a5c,001,2022-04-28_20h10.12.462,classification_task,2021.2.3,Win32,60.10699044,613a7f3c88a2c0d8087b6a5c,626b377229c10585ec392f89,626b3ab12f0aeed8afb3ff50,,,,,Do you have any form of color blindness?,,,0.7,0,No,22.9014,,,,,,,,,,,,,,,,,,,,,,,,,,,,,,,,,,,,,,,,,,,,,,,,,,,,,,,,,
,613a7f3c88a2c0d8087b6a5c,001,2022-04-28_20h10.12.462,classification_task,2021.2.3,Win32,60.10699044,613a7f3c88a2c0d8087b6a5c,626b377229c10585ec392f89,626b3ab12f0aeed8afb3ff50,,,,,Do you use software to change the colour temperature of your screen (e.g. f.lux)?,,,0.7,0,No,26.3371,,,,,,,,,,,,,,,,,,,,,,,,,,,,,,,,,,,,,,,,,,,,,,,,,,,,,,,,,
,613a7f3c88a2c0d8087b6a5c,001,2022-04-28_20h10.12.462,classification_task,2021.2.3,Win32,60.10699044,613a7f3c88a2c0d8087b6a5c,626b377229c10585ec392f89,626b3ab12f0aeed8afb3ff50,,,,,,,,,,,,space,20.4554,space,6.2858,0,0,0,0,1,,,,,,,,,,,,,,,,,,,,,,,,,,,,,,,,,,,,,,,,,,,,,,,,
,613a7f3c88a2c0d8087b6a5c,001,2022-04-28_20h10.12.462,classification_task,2021.2.3,Win32,60.10699044,613a7f3c88a2c0d8087b6a5c,626b377229c10585ec392f89,626b3ab12f0aeed8afb3ff50,,,,,,,,,,,,,,space,4.7983,1,0,1,0,1,,,,,,,,,,,,,,,,,,,,,,,,,,,,,,,,,,,,,,,,,,,,,,,,
,613a7f3c88a2c0d8087b6a5c,001,2022-04-28_20h10.12.462,classification_task,2021.2.3,Win32,60.10699044,613a7f3c88a2c0d8087b6a5c,626b377229c10585ec392f89,626b3ab12f0aeed8afb3ff50,,,,,,,,,,,,,,space,40.5552,2,0,2,0,1,,,,,,,,,,,,,,,,,,,,,,,,,,,,,,,,,,,,,,,,,,,,,,,,
,613a7f3c88a2c0d8087b6a5c,001,2022-04-28_20h10.12.462,classification_task,2021.2.3,Win32,60.10699044,613a7f3c88a2c0d8087b6a5c,626b377229c10585ec392f89,626b3ab12f0aeed8afb3ff50,,,,,,,,,,,,,,space,17.1914,3,0,3,0,1,,,,,,,,,,,,,,,,,,,,,,,,,,,,,,,,,,,,,,,,,,,,,,,,
,613a7f3c88a2c0d8087b6a5c,001,2022-04-28_20h10.12.462,classification_task,2021.2.3,Win32,60.10699044,613a7f3c88a2c0d8087b6a5c,626b377229c10585ec392f89,626b3ab12f0aeed8afb3ff50,,,,,,,,,,,,,,space,12.2982,4,0,4,0,1,,,,,,,,,,,,,,,,,,,,,,,,,,,,,,,,,,,,,,,,,,,,,,,,
,613a7f3c88a2c0d8087b6a5c,001,2022-04-28_20h10.12.462,classification_task,2021.2.3,Win32,60.10699044,613a7f3c88a2c0d8087b6a5c,626b377229c10585ec392f89,626b3ab12f0aeed8afb3ff50,,,,,,,,,,,,,,,,,,,,,space,28.6456,l,1,4.9284,"[""0.751"",""0.189"",""0.598"",""0.791""]","[0,1,1,1]",0,0,0,0,1,1,0,,,0,FALSE,,,,,,,,,,,,,,,,,,,,,,,,,,,,,,
,613a7f3c88a2c0d8087b6a5c,001,2022-04-28_20h10.12.462,classification_task,2021.2.3,Win32,60.10699044,613a7f3c88a2c0d8087b6a5c,626b377229c10585ec392f89,626b3ab12f0aeed8afb3ff50,,,,,,,,,,,,,,,,,,,,,,,l,1,2.6491,"[""0.144"",""0.713"",""0.598"",""0.791""]","[1,0,1,1]",0,1,1,1,1,1,0,,,0,FALSE,,,,,,,,,,,,,,,,,,,,,,,,,,,,,,
,613a7f3c88a2c0d8087b6a5c,001,2022-04-28_20h10.12.462,classification_task,2021.2.3,Win32,60.10699044,613a7f3c88a2c0d8087b6a5c,626b377229c10585ec392f89,626b3ab12f0aeed8afb3ff50,,,,,,,,,,,,,,,,,,,,,,,a,1,3.7738,"[""0.249"",""0.751"",""0.859"",""0.968""]","[1,0,1,1]",0,2,2,2,1,0,0,,,0,FALSE,,,,,,,,,,,,,,,,,,,,,,,,,,,,,,
,613a7f3c88a2c0d8087b6a5c,001,2022-04-28_20h10.12.462,classification_task,2021.2.3,Win32,60.10699044,613a7f3c88a2c0d8087b6a5c,626b377229c10585ec392f89,626b3ab12f0aeed8afb3ff50,,,,,,,,,,,,,,,,,,,,,,,a,1,6.6392,"[""0.430"",""0.514"",""0.893"",""0.931""]","[0,1,1,1]",0,3,3,3,1,0,1,,,0,FALSE,,,,,,,,,,,,,,,,,,,,,,,,,,,,,,
,613a7f3c88a2c0d8087b6a5c,001,2022-04-28_20h10.12.462,classification_task,2021.2.3,Win32,60.10699044,613a7f3c88a2c0d8087b6a5c,626b377229c10585ec392f89,626b3ab12f0aeed8afb3ff50,,,,,,,,,,,,,,,,,,,,,,,a,1,3.6789,"[""0.249"",""0.549"",""0.379"",""0.968""]","[1,1,0,1]",0,4,4,4,1,0,0,,,0,FALSE,,,,,,,,,,,,,,,,,,,,,,,,,,,,,,
,613a7f3c88a2c0d8087b6a5c,001,2022-04-28_20h10.12.462,classification_task,2021.2.3,Win32,60.10699044,613a7f3c88a2c0d8087b6a5c,626b377229c10585ec392f89,626b3ab12f0aeed8afb3ff50,,,,,,,,,,,,,,,,,,,,,,,l,1,2.9206,"[""0.144"",""0.189"",""0.380"",""0.791""]","[1,1,0,1]",0,5,5,5,1,1,0,,,0,FALSE,,,,,,,,,,,,,,,,,,,,,,,,,,,,,,
,613a7f3c88a2c0d8087b6a5c,001,2022-04-28_20h10.12.462,classification_task,2021.2.3,Win32,60.10699044,613a7f3c88a2c0d8087b6a5c,626b377229c10585ec392f89,626b3ab12f0aeed8afb3ff50,,,,,,,,,,,,,,,,,,,,,,,l,1,1.7293,"[""0.144"",""0.189"",""0.598"",""0.479""]","[1,1,1,0]",0,6,6,6,1,1,0,,,0,FALSE,,,,,,,,,,,,,,,,,,,,,,,,,,,,,,
,613a7f3c88a2c0d8087b6a5c,001,2022-04-28_20h10.12.462,classification_task,2021.2.3,Win32,60.10699044,613a7f3c88a2c0d8087b6a5c,626b377229c10585ec392f89,626b3ab12f0aeed8afb3ff50,,,,,,,,,,,,,,,,,,,,,,,l,1,3.3239,"[""0.479"",""0.340"",""0.634"",""0.677""]","[0,1,1,1]",0,7,7,7,1,1,1,,,0,FALSE,,,,,,,,,,,,,,,,,,,,,,,,,,,,,,
,613a7f3c88a2c0d8087b6a5c,001,2022-04-28_20h10.12.462,classification_task,2021.2.3,Win32,60.10699044,613a7f3c88a2c0d8087b6a5c,626b377229c10585ec392f89,626b3ab12f0aeed8afb3ff50,,,,,,,,,,,,,,,,,,,,,,,a,1,7.1273,"[""0.249"",""0.549"",""0.859"",""0.731""]","[1,1,1,0]",0,8,8,8,1,0,0,,,0,FALSE,,,,,,,,,,,,,,,,,,,,,,,,,,,,,,
,613a7f3c88a2c0d8087b6a5c,001,2022-04-28_20h10.12.462,classification_task,2021.2.3,Win32,60.10699044,613a7f3c88a2c0d8087b6a5c,626b377229c10585ec392f89,626b3ab12f0aeed8afb3ff50,,,,,,,,,,,,,,,,,,,,,,,l,1,2.2585,"[""0.056"",""0.751"",""0.634"",""0.677""]","[1,0,1,1]",0,9,9,9,1,1,1,,,0,FALSE,,,,,,,,,,,,,,,,,,,,,,,,,,,,,,
,613a7f3c88a2c0d8087b6a5c,001,2022-04-28_20h10.12.462,classification_task,2021.2.3,Win32,60.10699044,613a7f3c88a2c0d8087b6a5c,626b377229c10585ec392f89,626b3ab12f0aeed8afb3ff50,,,,,,,,,,,,,,,,,,,,,,,a,1,3.0023,"[""0.288"",""0.514"",""0.893"",""0.379""]","[1,1,1,0]",0,10,10,10,1,0,1,,,0,FALSE,,,,,,,,,,,,,,,,,,,,,,,,,,,,,,
,613a7f3c88a2c0d8087b6a5c,001,2022-04-28_20h10.12.462,classification_task,2021.2.3,Win32,60.10699044,613a7f3c88a2c0d8087b6a5c,626b377229c10585ec392f89,626b3ab12f0aeed8afb3ff50,,,,,,,,,,,,,,,,,,,,,,,a,1,3.2299,"[""0.400"",""0.549"",""0.859"",""0.968""]","[0,1,1,1]",0,11,11,11,1,0,0,,,0,FALSE,,,,,,,,,,,,,,,,,,,,,,,,,,,,,,
,613a7f3c88a2c0d8087b6a5c,001,2022-04-28_20h10.12.462,classification_task,2021.2.3,Win32,60.10699044,613a7f3c88a2c0d8087b6a5c,626b377229c10585ec392f89,626b3ab12f0aeed8afb3ff50,,,,,,,,,,,,,,,,,,,,,,,a,1,2.1888,"[""0.288"",""0.514"",""0.467"",""0.931""]","[1,1,0,1]",0,12,12,12,1,0,1,,,0,FALSE,,,,,,,,,,,,,,,,,,,,,,,,,,,,,,
,613a7f3c88a2c0d8087b6a5c,001,2022-04-28_20h10.12.462,classification_task,2021.2.3,Win32,60.10699044,613a7f3c88a2c0d8087b6a5c,626b377229c10585ec392f89,626b3ab12f0aeed8afb3ff50,,,,,,,,,,,,,,,,,,,,,,,a,0,2.1097,"[""0.056"",""0.340"",""0.415"",""0.677""]","[1,1,0,1]",0,13,13,13,1,1,1,,,0,FALSE,,,,,,,,,,,,,,,,,,,,,,,,,,,,,,
,613a7f3c88a2c0d8087b6a5c,001,2022-04-28_20h10.12.462,classification_task,2021.2.3,Win32,60.10699044,613a7f3c88a2c0d8087b6a5c,626b377229c10585ec392f89,626b3ab12f0aeed8afb3ff50,,,,,,,,,,,,,,,,,,,,,,,a,1,2.4157,"[""0.288"",""0.405"",""0.893"",""0.931""]","[1,0,1,1]",0,14,14,14,1,0,1,,,0,FALSE,,,,,,,,,,,,,,,,,,,,,,,,,,,,,,
,613a7f3c88a2c0d8087b6a5c,001,2022-04-28_20h10.12.462,classification_task,2021.2.3,Win32,60.10699044,613a7f3c88a2c0d8087b6a5c,626b377229c10585ec392f89,626b3ab12f0aeed8afb3ff50,,,,,,,,,,,,,,,,,,,,,,,l,1,2.3106,"[""0.056"",""0.340"",""0.634"",""0.479""]","[1,1,1,0]",0,15,15,15,1,1,1,,,0,FALSE,,,,,,,,,,,,,,,,,,,,,,,,,,,,,,
,613a7f3c88a2c0d8087b6a5c,001,2022-04-28_20h10.12.462,classification_task,2021.2.3,Win32,60.10699044,613a7f3c88a2c0d8087b6a5c,626b377229c10585ec392f89,626b3ab12f0aeed8afb3ff50,,,,,,,,,,,,,,,,,,,,,,,a,1,3.9037,"[""0.249"",""0.380"",""0.859"",""0.968""]","[1,0,1,1]",0,16,16,16,1,0,0,,,0,FALSE,,,,,,,,,,,,,,,,,,,,,,,,,,,,,,
,613a7f3c88a2c0d8087b6a5c,001,2022-04-28_20h10.12.462,classification_task,2021.2.3,Win32,60.10699044,613a7f3c88a2c0d8087b6a5c,626b377229c10585ec392f89,626b3ab12f0aeed8afb3ff50,,,,,,,,,,,,,,,,,,,,,,,a,1,2.2423,"[""0.288"",""0.514"",""0.893"",""0.751""]","[1,1,1,0]",0,17,17,17,1,0,1,,,0,FALSE,,,,,,,,,,,,,,,,,,,,,,,,,,,,,,
,613a7f3c88a2c0d8087b6a5c,001,2022-04-28_20h10.12.462,classification_task,2021.2.3,Win32,60.10699044,613a7f3c88a2c0d8087b6a5c,626b377229c10585ec392f89,626b3ab12f0aeed8afb3ff50,,,,,,,,,,,,,,,,,,,,,,,l,1,1.9228,"[""0.144"",""0.189"",""0.598"",""0.733""]","[1,1,1,0]",0,18,18,18,1,1,0,,,0,FALSE,,,,,,,,,,,,,,,,,,,,,,,,,,,,,,
,613a7f3c88a2c0d8087b6a5c,001,2022-04-28_20h10.12.462,classification_task,2021.2.3,Win32,60.10699044,613a7f3c88a2c0d8087b6a5c,626b377229c10585ec392f89,626b3ab12f0aeed8afb3ff50,,,,,,,,,,,,,,,,,,,,,,,l,1,1.2459,"[""0.144"",""0.189"",""0.380"",""0.791""]","[1,1,0,1]",0,19,19,19,1,1,0,,,0,FALSE,,,,,,,,,,,,,,,,,,,,,,,,,,,,,,
,613a7f3c88a2c0d8087b6a5c,001,2022-04-28_20h10.12.462,classification_task,2021.2.3,Win32,60.10699044,613a7f3c88a2c0d8087b6a5c,626b377229c10585ec392f89,626b3ab12f0aeed8afb3ff50,,,,,,,,,,,,,,,,,,,,,,,a,1,1.6748,"[""0.249"",""0.549"",""0.405"",""0.968""]","[1,1,0,1]",0,20,20,20,1,0,0,,,0,FALSE,,,,,,,,,,,,,,,,,,,,,,,,,,,,,,
,613a7f3c88a2c0d8087b6a5c,001,2022-04-28_20h10.12.462,classification_task,2021.2.3,Win32,60.10699044,613a7f3c88a2c0d8087b6a5c,626b377229c10585ec392f89,626b3ab12f0aeed8afb3ff50,,,,,,,,,,,,,,,,,,,,,,,a,1,4.6298,"[""0.400"",""0.514"",""0.893"",""0.931""]","[0,1,1,1]",0,21,21,21,1,0,1,,,0,FALSE,,,,,,,,,,,,,,,,,,,,,,,,,,,,,,
,613a7f3c88a2c0d8087b6a5c,001,2022-04-28_20h10.12.462,classification_task,2021.2.3,Win32,60.10699044,613a7f3c88a2c0d8087b6a5c,626b377229c10585ec392f89,626b3ab12f0aeed8afb3ff50,,,,,,,,,,,,,,,,,,,,,,,l,1,2.754,"[""0.400"",""0.340"",""0.634"",""0.677""]","[0,1,1,1]",0,22,22,22,1,1,1,,,0,FALSE,,,,,,,,,,,,,,,,,,,,,,,,,,,,,,
,613a7f3c88a2c0d8087b6a5c,001,2022-04-28_20h10.12.462,classification_task,2021.2.3,Win32,60.10699044,613a7f3c88a2c0d8087b6a5c,626b377229c10585ec392f89,626b3ab12f0aeed8afb3ff50,,,,,,,,,,,,,,,,,,,,,,,a,1,7.8623,"[""0.400"",""0.549"",""0.859"",""0.968""]","[0,1,1,1]",0,23,23,23,1,0,0,,,0,FALSE,,,,,,,,,,,,,,,,,,,,,,,,,,,,,,
,613a7f3c88a2c0d8087b6a5c,001,2022-04-28_20h10.12.462,classification_task,2021.2.3,Win32,60.10699044,613a7f3c88a2c0d8087b6a5c,626b377229c10585ec392f89,626b3ab12f0aeed8afb3ff50,,,,,,,,,,,,,,,,,,,,,,,a,1,4.7822,"[""0.249"",""0.549"",""0.859"",""0.430""]","[1,1,1,0]",0,24,24,24,1,0,0,,,0,FALSE,,,,,,,,,,,,,,,,,,,,,,,,,,,,,,
,613a7f3c88a2c0d8087b6a5c,001,2022-04-28_20h10.12.462,classification_task,2021.2.3,Win32,60.10699044,613a7f3c88a2c0d8087b6a5c,626b377229c10585ec392f89,626b3ab12f0aeed8afb3ff50,,,,,,,,,,,,,,,,,,,,,,,a,1,2.871,"[""0.288"",""0.514"",""0.400"",""0.931""]","[1,1,0,1]",0,25,25,25,1,0,1,,,0,FALSE,,,,,,,,,,,,,,,,,,,,,,,,,,,,,,
,613a7f3c88a2c0d8087b6a5c,001,2022-04-28_20h10.12.462,classification_task,2021.2.3,Win32,60.10699044,613a7f3c88a2c0d8087b6a5c,626b377229c10585ec392f89,626b3ab12f0aeed8afb3ff50,,,,,,,,,,,,,,,,,,,,,,,l,1,3.8171,"[""0.056"",""0.340"",""0.634"",""0.733""]","[1,1,1,0]",0,26,26,26,1,1,1,,,0,FALSE,,,,,,,,,,,,,,,,,,,,,,,,,,,,,,
,613a7f3c88a2c0d8087b6a5c,001,2022-04-28_20h10.12.462,classification_task,2021.2.3,Win32,60.10699044,613a7f3c88a2c0d8087b6a5c,626b377229c10585ec392f89,626b3ab12f0aeed8afb3ff50,,,,,,,,,,,,,,,,,,,,,,,l,1,3.9664,"[""0.144"",""0.733"",""0.598"",""0.791""]","[1,0,1,1]",0,27,27,27,1,1,0,,,0,FALSE,,,,,,,,,,,,,,,,,,,,,,,,,,,,,,
,613a7f3c88a2c0d8087b6a5c,001,2022-04-28_20h10.12.462,classification_task,2021.2.3,Win32,60.10699044,613a7f3c88a2c0d8087b6a5c,626b377229c10585ec392f89,626b3ab12f0aeed8afb3ff50,,,,,,,,,,,,,,,,,,,,,,,l,1,3.9371,"[""0.479"",""0.189"",""0.598"",""0.791""]","[0,1,1,1]",0,28,28,28,1,1,0,,,0,FALSE,,,,,,,,,,,,,,,,,,,,,,,,,,,,,,
,613a7f3c88a2c0d8087b6a5c,001,2022-04-28_20h10.12.462,classification_task,2021.2.3,Win32,60.10699044,613a7f3c88a2c0d8087b6a5c,626b377229c10585ec392f89,626b3ab12f0aeed8afb3ff50,,,,,,,,,,,,,,,,,,,,,,,l,1,2.6029,"[""0.056"",""0.400"",""0.634"",""0.677""]","[1,0,1,1]",0,29,29,29,1,1,1,,,0,FALSE,,,,,,,,,,,,,,,,,,,,,,,,,,,,,,
,613a7f3c88a2c0d8087b6a5c,001,2022-04-28_20h10.12.462,classification_task,2021.2.3,Win32,60.10699044,613a7f3c88a2c0d8087b6a5c,626b377229c10585ec392f89,626b3ab12f0aeed8afb3ff50,,,,,,,,,,,,,,,,,,,,,,,a,1,2.7197,"[""0.288"",""0.721"",""0.893"",""0.931""]","[1,0,1,1]",0,30,30,30,1,0,1,,,0,FALSE,,,,,,,,,,,,,,,,,,,,,,,,,,,,,,
,613a7f3c88a2c0d8087b6a5c,001,2022-04-28_20h10.12.462,classification_task,2021.2.3,Win32,60.10699044,613a7f3c88a2c0d8087b6a5c,626b377229c10585ec392f89,626b3ab12f0aeed8afb3ff50,,,,,,,,,,,,,,,,,,,,,,,l,1,3.1488,"[""0.056"",""0.340"",""0.405"",""0.677""]","[1,1,0,1]",0,31,31,31,1,1,1,,,0,FALSE,,,,,,,,,,,,,,,,,,,,,,,,,,,,,,
,613a7f3c88a2c0d8087b6a5c,001,2022-04-28_20h10.12.462,classification_task,2021.2.3,Win32,60.10699044,613a7f3c88a2c0d8087b6a5c,626b377229c10585ec392f89,626b3ab12f0aeed8afb3ff50,,,,,,,,,,,,,,,,,,,,,,,a,0,3.3455,"[""0.144"",""0.189"",""0.598"",""0.400""]","[1,1,1,0]",0,32,32,32,1,1,0,,,0,FALSE,,,,,,,,,,,,,,,,,,,,,,,,,,,,,,
,613a7f3c88a2c0d8087b6a5c,001,2022-04-28_20h10.12.462,classification_task,2021.2.3,Win32,60.10699044,613a7f3c88a2c0d8087b6a5c,626b377229c10585ec392f89,626b3ab12f0aeed8afb3ff50,,,,,,,,,,,,,,,,,,,,,,,l,0,2.0559,"[""0.249"",""0.549"",""0.859"",""0.751""]","[1,1,1,0]",0,33,33,33,1,0,0,,,0,FALSE,,,,,,,,,,,,,,,,,,,,,,,,,,,,,,
,613a7f3c88a2c0d8087b6a5c,001,2022-04-28_20h10.12.462,classification_task,2021.2.3,Win32,60.10699044,613a7f3c88a2c0d8087b6a5c,626b377229c10585ec392f89,626b3ab12f0aeed8afb3ff50,,,,,,,,,,,,,,,,,,,,,,,l,1,2.0073,"[""0.056"",""0.400"",""0.634"",""0.677""]","[1,0,1,1]",0,34,34,34,1,1,1,,,0,FALSE,,,,,,,,,,,,,,,,,,,,,,,,,,,,,,
,613a7f3c88a2c0d8087b6a5c,001,2022-04-28_20h10.12.462,classification_task,2021.2.3,Win32,60.10699044,613a7f3c88a2c0d8087b6a5c,626b377229c10585ec392f89,626b3ab12f0aeed8afb3ff50,,,,,,,,,,,,,,,,,,,,,,,l,0,2.5733,"[""0.288"",""0.514"",""0.751"",""0.931""]","[1,1,0,1]",0,35,35,35,1,0,1,,,0,FALSE,,,,,,,,,,,,,,,,,,,,,,,,,,,,,,
,613a7f3c88a2c0d8087b6a5c,001,2022-04-28_20h10.12.462,classification_task,2021.2.3,Win32,60.10699044,613a7f3c88a2c0d8087b6a5c,626b377229c10585ec392f89,626b3ab12f0aeed8afb3ff50,,,,,,,,,,,,,,,,,,,,,,,a,0,1.7097,"[""0.144"",""0.476"",""0.598"",""0.791""]","[1,0,1,1]",0,36,36,36,1,1,0,,,0,FALSE,,,,,,,,,,,,,,,,,,,,,,,,,,,,,,
,613a7f3c88a2c0d8087b6a5c,001,2022-04-28_20h10.12.462,classification_task,2021.2.3,Win32,60.10699044,613a7f3c88a2c0d8087b6a5c,626b377229c10585ec392f89,626b3ab12f0aeed8afb3ff50,,,,,,,,,,,,,,,,,,,,,,,l,1,1.8076,"[""0.713"",""0.340"",""0.634"",""0.677""]","[0,1,1,1]",0,37,37,37,1,1,1,,,0,FALSE,,,,,,,,,,,,,,,,,,,,,,,,,,,,,,
,613a7f3c88a2c0d8087b6a5c,001,2022-04-28_20h10.12.462,classification_task,2021.2.3,Win32,60.10699044,613a7f3c88a2c0d8087b6a5c,626b377229c10585ec392f89,626b3ab12f0aeed8afb3ff50,,,,,,,,,,,,,,,,,,,,,,,a,1,1.9725,"[""0.415"",""0.514"",""0.893"",""0.931""]","[0,1,1,1]",0,38,38,38,1,0,1,,,0,FALSE,,,,,,,,,,,,,,,,,,,,,,,,,,,,,,
,613a7f3c88a2c0d8087b6a5c,001,2022-04-28_20h10.12.462,classification_task,2021.2.3,Win32,60.10699044,613a7f3c88a2c0d8087b6a5c,626b377229c10585ec392f89,626b3ab12f0aeed8afb3ff50,,,,,,,,,,,,,,,,,,,,,,,l,1,1.7561,"[""0.721"",""0.189"",""0.598"",""0.791""]","[0,1,1,1]",0,39,39,39,1,1,0,,,0,FALSE,,,,,,,,,,,,,,,,,,,,,,,,,,,,,,
,613a7f3c88a2c0d8087b6a5c,001,2022-04-28_20h10.12.462,classification_task,2021.2.3,Win32,60.10699044,613a7f3c88a2c0d8087b6a5c,626b377229c10585ec392f89,626b3ab12f0aeed8afb3ff50,,,,,,,,,,,,,,,,,,,,,,,l,1,2.3914,"[""0.056"",""0.340"",""0.634"",""0.405""]","[1,1,1,0]",0,40,40,40,1,1,1,,,0,FALSE,,,,,,,,,,,,,,,,,,,,,,,,,,,,,,
,613a7f3c88a2c0d8087b6a5c,001,2022-04-28_20h10.12.462,classification_task,2021.2.3,Win32,60.10699044,613a7f3c88a2c0d8087b6a5c,626b377229c10585ec392f89,626b3ab12f0aeed8afb3ff50,,,,,,,,,,,,,,,,,,,,,,,a,1,1.5375,"[""0.249"",""0.549"",""0.713"",""0.968""]","[1,1,0,1]",0,41,41,41,1,0,0,,,0,FALSE,,,,,,,,,,,,,,,,,,,,,,,,,,,,,,
,613a7f3c88a2c0d8087b6a5c,001,2022-04-28_20h10.12.462,classification_task,2021.2.3,Win32,60.10699044,613a7f3c88a2c0d8087b6a5c,626b377229c10585ec392f89,626b3ab12f0aeed8afb3ff50,,,,,,,,,,,,,,,,,,,,,,,a,1,0.7989,"[""0.249"",""0.476"",""0.859"",""0.968""]","[1,0,1,1]",0,42,42,42,1,0,0,,,0,FALSE,,,,,,,,,,,,,,,,,,,,,,,,,,,,,,
,613a7f3c88a2c0d8087b6a5c,001,2022-04-28_20h10.12.462,classification_task,2021.2.3,Win32,60.10699044,613a7f3c88a2c0d8087b6a5c,626b377229c10585ec392f89,626b3ab12f0aeed8afb3ff50,,,,,,,,,,,,,,,,,,,,,,,l,0,1.3019,"[""0.288"",""0.514"",""0.893"",""0.430""]","[1,1,1,0]",0,43,43,43,1,0,1,,,0,FALSE,,,,,,,,,,,,,,,,,,,,,,,,,,,,,,
,613a7f3c88a2c0d8087b6a5c,001,2022-04-28_20h10.12.462,classification_task,2021.2.3,Win32,60.10699044,613a7f3c88a2c0d8087b6a5c,626b377229c10585ec392f89,626b3ab12f0aeed8afb3ff50,,,,,,,,,,,,,,,,,,,,,,,l,1,1.1463,"[""0.056"",""0.340"",""0.415"",""0.677""]","[1,1,0,1]",0,44,44,44,1,1,1,,,0,FALSE,,,,,,,,,,,,,,,,,,,,,,,,,,,,,,
,613a7f3c88a2c0d8087b6a5c,001,2022-04-28_20h10.12.462,classification_task,2021.2.3,Win32,60.10699044,613a7f3c88a2c0d8087b6a5c,626b377229c10585ec392f89,626b3ab12f0aeed8afb3ff50,,,,,,,,,,,,,,,,,,,,,,,a,1,1.525,"[""0.731"",""0.549"",""0.859"",""0.968""]","[0,1,1,1]",0,45,45,45,1,0,0,,,0,FALSE,,,,,,,,,,,,,,,,,,,,,,,,,,,,,,
,613a7f3c88a2c0d8087b6a5c,001,2022-04-28_20h10.12.462,classification_task,2021.2.3,Win32,60.10699044,613a7f3c88a2c0d8087b6a5c,626b377229c10585ec392f89,626b3ab12f0aeed8afb3ff50,,,,,,,,,,,,,,,,,,,,,,,a,1,0.7652,"[""0.288"",""0.476"",""0.893"",""0.931""]","[1,0,1,1]",0,46,46,46,1,0,1,,,0,FALSE,,,,,,,,,,,,,,,,,,,,,,,,,,,,,,
,613a7f3c88a2c0d8087b6a5c,001,2022-04-28_20h10.12.462,classification_task,2021.2.3,Win32,60.10699044,613a7f3c88a2c0d8087b6a5c,626b377229c10585ec392f89,626b3ab12f0aeed8afb3ff50,,,,,,,,,,,,,,,,,,,,,,,l,1,1.0633,"[""0.144"",""0.189"",""0.733"",""0.791""]","[1,1,0,1]",0,47,47,47,1,1,0,,,0,FALSE,,,,,,,,,,,,,,,,,,,,,,,,,,,,,,
,613a7f3c88a2c0d8087b6a5c,001,2022-04-28_20h10.12.462,classification_task,2021.2.3,Win32,60.10699044,613a7f3c88a2c0d8087b6a5c,626b377229c10585ec392f89,626b3ab12f0aeed8afb3ff50,,,,,,,,,,,,,,,,,,,,,,,l,1,2.3759,"[""0.144"",""0.476"",""0.598"",""0.791""]","[1,0,1,1]",0,48,48,48,1,1,0,,,0,FALSE,,,,,,,,,,,,,,,,,,,,,,,,,,,,,,
,613a7f3c88a2c0d8087b6a5c,001,2022-04-28_20h10.12.462,classification_task,2021.2.3,Win32,60.10699044,613a7f3c88a2c0d8087b6a5c,626b377229c10585ec392f89,626b3ab12f0aeed8afb3ff50,,,,,,,,,,,,,,,,,,,,,,,a,1,1.1787,"[""0.249"",""0.549"",""0.751"",""0.968""]","[1,1,0,1]",0,49,49,49,1,0,0,,,0,FALSE,,,,,,,,,,,,,,,,,,,,,,,,,,,,,,
,613a7f3c88a2c0d8087b6a5c,001,2022-04-28_20h10.12.462,classification_task,2021.2.3,Win32,60.10699044,613a7f3c88a2c0d8087b6a5c,626b377229c10585ec392f89,626b3ab12f0aeed8afb3ff50,,,,,,,,,,,,,,,,,,,,,,,l,1,1.4618,"[""0.144"",""0.189"",""0.379"",""0.791""]","[1,1,0,1]",0,50,50,50,1,1,0,,,0,FALSE,,,,,,,,,,,,,,,,,,,,,,,,,,,,,,
,613a7f3c88a2c0d8087b6a5c,001,2022-04-28_20h10.12.462,classification_task,2021.2.3,Win32,60.10699044,613a7f3c88a2c0d8087b6a5c,626b377229c10585ec392f89,626b3ab12f0aeed8afb3ff50,,,,,,,,,,,,,,,,,,,,,,,a,0,0.9928,"[""0.415"",""0.340"",""0.634"",""0.677""]","[0,1,1,1]",0,51,51,51,1,1,1,,,0,FALSE,,,,,,,,,,,,,,,,,,,,,,,,,,,,,,
,613a7f3c88a2c0d8087b6a5c,001,2022-04-28_20h10.12.462,classification_task,2021.2.3,Win32,60.10699044,613a7f3c88a2c0d8087b6a5c,626b377229c10585ec392f89,626b3ab12f0aeed8afb3ff50,,,,,,,,,,,,,,,,,,,,,,,l,1,1.0466,"[""0.056"",""0.340"",""0.634"",""0.405""]","[1,1,1,0]",0,52,52,52,1,1,1,,,0,FALSE,,,,,,,,,,,,,,,,,,,,,,,,,,,,,,
,613a7f3c88a2c0d8087b6a5c,001,2022-04-28_20h10.12.462,classification_task,2021.2.3,Win32,60.10699044,613a7f3c88a2c0d8087b6a5c,626b377229c10585ec392f89,626b3ab12f0aeed8afb3ff50,,,,,,,,,,,,,,,,,,,,,,,l,0,0.9446,"[""0.733"",""0.549"",""0.859"",""0.968""]","[0,1,1,1]",0,53,53,53,1,0,0,,,0,FALSE,,,,,,,,,,,,,,,,,,,,,,,,,,,,,,
,613a7f3c88a2c0d8087b6a5c,001,2022-04-28_20h10.12.462,classification_task,2021.2.3,Win32,60.10699044,613a7f3c88a2c0d8087b6a5c,626b377229c10585ec392f89,626b3ab12f0aeed8afb3ff50,,,,,,,,,,,,,,,,,,,,,,,l,0,1.2357,"[""0.249"",""0.405"",""0.859"",""0.968""]","[1,0,1,1]",0,54,54,54,1,0,0,,,0,FALSE,,,,,,,,,,,,,,,,,,,,,,,,,,,,,,
,613a7f3c88a2c0d8087b6a5c,001,2022-04-28_20h10.12.462,classification_task,2021.2.3,Win32,60.10699044,613a7f3c88a2c0d8087b6a5c,626b377229c10585ec392f89,626b3ab12f0aeed8afb3ff50,,,,,,,,,,,,,,,,,,,,,,,l,0,1.6732,"[""0.288"",""0.467"",""0.893"",""0.931""]","[1,0,1,1]",0,55,55,55,1,0,1,,,0,FALSE,,,,,,,,,,,,,,,,,,,,,,,,,,,,,,
,613a7f3c88a2c0d8087b6a5c,001,2022-04-28_20h10.12.462,classification_task,2021.2.3,Win32,60.10699044,613a7f3c88a2c0d8087b6a5c,626b377229c10585ec392f89,626b3ab12f0aeed8afb3ff50,,,,,,,,,,,,,,,,,,,,,,,a,1,0.4802,"[""0.379"",""0.514"",""0.893"",""0.931""]","[0,1,1,1]",0,56,56,56,1,0,1,,,0,FALSE,,,,,,,,,,,,,,,,,,,,,,,,,,,,,,
,613a7f3c88a2c0d8087b6a5c,001,2022-04-28_20h10.12.462,classification_task,2021.2.3,Win32,60.10699044,613a7f3c88a2c0d8087b6a5c,626b377229c10585ec392f89,626b3ab12f0aeed8afb3ff50,,,,,,,,,,,,,,,,,,,,,,,a,1,1.9279,"[""0.288"",""0.514"",""0.893"",""0.405""]","[1,1,1,0]",0,57,57,57,1,0,1,,,0,FALSE,,,,,,,,,,,,,,,,,,,,,,,,,,,,,,
,613a7f3c88a2c0d8087b6a5c,001,2022-04-28_20h10.12.462,classification_task,2021.2.3,Win32,60.10699044,613a7f3c88a2c0d8087b6a5c,626b377229c10585ec392f89,626b3ab12f0aeed8afb3ff50,,,,,,,,,,,,,,,,,,,,,,,l,1,1.6018,"[""0.144"",""0.189"",""0.598"",""0.379""]","[1,1,1,0]",0,58,58,58,1,1,0,,,0,FALSE,,,,,,,,,,,,,,,,,,,,,,,,,,,,,,
,613a7f3c88a2c0d8087b6a5c,001,2022-04-28_20h10.12.462,classification_task,2021.2.3,Win32,60.10699044,613a7f3c88a2c0d8087b6a5c,626b377229c10585ec392f89,626b3ab12f0aeed8afb3ff50,,,,,,,,,,,,,,,,,,,,,,,a,1,1.4231,"[""0.288"",""0.514"",""0.379"",""0.931""]","[1,1,0,1]",0,59,59,59,1,0,1,,,0,FALSE,,,,,,,,,,,,,,,,,,,,,,,,,,,,,,
,613a7f3c88a2c0d8087b6a5c,001,2022-04-28_20h10.12.462,classification_task,2021.2.3,Win32,60.10699044,613a7f3c88a2c0d8087b6a5c,626b377229c10585ec392f89,626b3ab12f0aeed8afb3ff50,,,,,,,,,,,,,,,,,,,,,,,l,1,1.8005,"[""0.056"",""0.340"",""0.476"",""0.677""]","[1,1,0,1]",0,60,60,60,1,1,1,,,0,FALSE,,,,,,,,,,,,,,,,,,,,,,,,,,,,,,
,613a7f3c88a2c0d8087b6a5c,001,2022-04-28_20h10.12.462,classification_task,2021.2.3,Win32,60.10699044,613a7f3c88a2c0d8087b6a5c,626b377229c10585ec392f89,626b3ab12f0aeed8afb3ff50,,,,,,,,,,,,,,,,,,,,,,,l,1,0.9453,"[""0.056"",""0.400"",""0.634"",""0.677""]","[1,0,1,1]",0,61,61,61,1,1,1,,,0,FALSE,,,,,,,,,,,,,,,,,,,,,,,,,,,,,,
,613a7f3c88a2c0d8087b6a5c,001,2022-04-28_20h10.12.462,classification_task,2021.2.3,Win32,60.10699044,613a7f3c88a2c0d8087b6a5c,626b377229c10585ec392f89,626b3ab12f0aeed8afb3ff50,,,,,,,,,,,,,,,,,,,,,,,a,0,1.06,"[""0.379"",""0.189"",""0.598"",""0.791""]","[0,1,1,1]",0,62,62,62,1,1,0,,,0,FALSE,,,,,,,,,,,,,,,,,,,,,,,,,,,,,,
,613a7f3c88a2c0d8087b6a5c,001,2022-04-28_20h10.12.462,classification_task,2021.2.3,Win32,60.10699044,613a7f3c88a2c0d8087b6a5c,626b377229c10585ec392f89,626b3ab12f0aeed8afb3ff50,,,,,,,,,,,,,,,,,,,,,,,l,0,1.1359,"[""0.249"",""0.549"",""0.859"",""0.731""]","[1,1,1,0]",0,63,63,63,1,0,0,,,0,FALSE,,,,,,,,,,,,,,,,,,,,,,,,,,,,,,
,613a7f3c88a2c0d8087b6a5c,001,2022-04-28_20h10.12.462,classification_task,2021.2.3,Win32,60.10699044,613a7f3c88a2c0d8087b6a5c,626b377229c10585ec392f89,626b3ab12f0aeed8afb3ff50,,,,,,,,,,,,,,,,,,,,,,,,,,,,,,,,,,,,,,,0, ,,0,,,0,0,0,0,1,2,1,,,,,,,,,,,,,,,,,
,613a7f3c88a2c0d8087b6a5c,001,2022-04-28_20h10.12.462,classification_task,2021.2.3,Win32,60.10699044,613a7f3c88a2c0d8087b6a5c,626b377229c10585ec392f89,626b3ab12f0aeed8afb3ff50,,,,,,,,,,,,,,,,,,,,,,,,,,,,,,,,,,,,,,,1,  ,,0,,,0,0,0,0,1,2,1,,,,,,,,,,,,,,,,,
,613a7f3c88a2c0d8087b6a5c,001,2022-04-28_20h10.12.462,classification_task,2021.2.3,Win32,60.10699044,613a7f3c88a2c0d8087b6a5c,626b377229c10585ec392f89,626b3ab12f0aeed8afb3ff50,,,,,,,,,,,,,,,,,,,,,,,,,,,,,,,,,,,,,,,2,  ,,0,,,0,0,0,0,1,2,1,,,,,,,,,,,,,,,,,
,613a7f3c88a2c0d8087b6a5c,001,2022-04-28_20h10.12.462,classification_task,2021.2.3,Win32,60.10699044,613a7f3c88a2c0d8087b6a5c,626b377229c10585ec392f89,626b3ab12f0aeed8afb3ff50,,,,,,,,,,,,,,,,,,,,,,,,,,,,,,,,,,,,,,,,,,,,,0,0,0,0,1,,1,,,,,,,,,,,,,,,,,
,613a7f3c88a2c0d8087b6a5c,001,2022-04-28_20h10.12.462,classification_task,2021.2.3,Win32,60.10699044,613a7f3c88a2c0d8087b6a5c,626b377229c10585ec392f89,626b3ab12f0aeed8afb3ff50,,,,,,,,,,,,,,,,,,,,,space,8.2595,l,1,2.8655,"[""0.144"",""0.189"",""0.598"",""0.479""]","[1,1,1,0]",0,0,0,0,1,1,0,,,0,FALSE,,,,,,,,,,,,,,,,,,,,,,,,,,,,,,
,613a7f3c88a2c0d8087b6a5c,001,2022-04-28_20h10.12.462,classification_task,2021.2.3,Win32,60.10699044,613a7f3c88a2c0d8087b6a5c,626b377229c10585ec392f89,626b3ab12f0aeed8afb3ff50,,,,,,,,,,,,,,,,,,,,,,,a,1,1.632,"[""0.721"",""0.549"",""0.859"",""0.968""]","[0,1,1,1]",0,1,1,1,1,0,0,,,0,FALSE,,,,,,,,,,,,,,,,,,,,,,,,,,,,,,
,613a7f3c88a2c0d8087b6a5c,001,2022-04-28_20h10.12.462,classification_task,2021.2.3,Win32,60.10699044,613a7f3c88a2c0d8087b6a5c,626b377229c10585ec392f89,626b3ab12f0aeed8afb3ff50,,,,,,,,,,,,,,,,,,,,,,,l,1,2.7219,"[""0.056"",""0.340"",""0.430"",""0.677""]","[1,1,0,1]",0,2,2,2,1,1,1,,,0,FALSE,,,,,,,,,,,,,,,,,,,,,,,,,,,,,,
,613a7f3c88a2c0d8087b6a5c,001,2022-04-28_20h10.12.462,classification_task,2021.2.3,Win32,60.10699044,613a7f3c88a2c0d8087b6a5c,626b377229c10585ec392f89,626b3ab12f0aeed8afb3ff50,,,,,,,,,,,,,,,,,,,,,,,a,1,1.3683,"[""0.249"",""0.549"",""0.723"",""0.968""]","[1,1,0,1]",0,3,3,3,1,0,0,,,0,FALSE,,,,,,,,,,,,,,,,,,,,,,,,,,,,,,
,613a7f3c88a2c0d8087b6a5c,001,2022-04-28_20h10.12.462,classification_task,2021.2.3,Win32,60.10699044,613a7f3c88a2c0d8087b6a5c,626b377229c10585ec392f89,626b3ab12f0aeed8afb3ff50,,,,,,,,,,,,,,,,,,,,,,,l,1,1.1225,"[""0.144"",""0.733"",""0.598"",""0.791""]","[1,0,1,1]",0,4,4,4,1,1,0,,,0,FALSE,,,,,,,,,,,,,,,,,,,,,,,,,,,,,,
,613a7f3c88a2c0d8087b6a5c,001,2022-04-28_20h10.12.462,classification_task,2021.2.3,Win32,60.10699044,613a7f3c88a2c0d8087b6a5c,626b377229c10585ec392f89,626b3ab12f0aeed8afb3ff50,,,,,,,,,,,,,,,,,,,,,,,a,1,0.701,"[""0.249"",""0.405"",""0.859"",""0.968""]","[1,0,1,1]",0,5,5,5,1,0,0,,,0,FALSE,,,,,,,,,,,,,,,,,,,,,,,,,,,,,,
,613a7f3c88a2c0d8087b6a5c,001,2022-04-28_20h10.12.462,classification_task,2021.2.3,Win32,60.10699044,613a7f3c88a2c0d8087b6a5c,626b377229c10585ec392f89,626b3ab12f0aeed8afb3ff50,,,,,,,,,,,,,,,,,,,,,,,a,1,0.8133,"[""0.249"",""0.549"",""0.859"",""0.713""]","[1,1,1,0]",0,6,6,6,1,0,0,,,0,FALSE,,,,,,,,,,,,,,,,,,,,,,,,,,,,,,
,613a7f3c88a2c0d8087b6a5c,001,2022-04-28_20h10.12.462,classification_task,2021.2.3,Win32,60.10699044,613a7f3c88a2c0d8087b6a5c,626b377229c10585ec392f89,626b3ab12f0aeed8afb3ff50,,,,,,,,,,,,,,,,,,,,,,,l,1,0.6463,"[""0.144"",""0.189"",""0.476"",""0.791""]","[1,1,0,1]",0,7,7,7,1,1,0,,,0,FALSE,,,,,,,,,,,,,,,,,,,,,,,,,,,,,,
,613a7f3c88a2c0d8087b6a5c,001,2022-04-28_20h10.12.462,classification_task,2021.2.3,Win32,60.10699044,613a7f3c88a2c0d8087b6a5c,626b377229c10585ec392f89,626b3ab12f0aeed8afb3ff50,,,,,,,,,,,,,,,,,,,,,,,a,0,1.3898,"[""0.056"",""0.731"",""0.634"",""0.677""]","[1,0,1,1]",0,8,8,8,1,1,1,,,0,FALSE,,,,,,,,,,,,,,,,,,,,,,,,,,,,,,
,613a7f3c88a2c0d8087b6a5c,001,2022-04-28_20h10.12.462,classification_task,2021.2.3,Win32,60.10699044,613a7f3c88a2c0d8087b6a5c,626b377229c10585ec392f89,626b3ab12f0aeed8afb3ff50,,,,,,,,,,,,,,,,,,,,,,,l,0,0.7373,"[""0.430"",""0.514"",""0.893"",""0.931""]","[0,1,1,1]",0,9,9,9,1,0,1,,,0,FALSE,,,,,,,,,,,,,,,,,,,,,,,,,,,,,,
,613a7f3c88a2c0d8087b6a5c,001,2022-04-28_20h10.12.462,classification_task,2021.2.3,Win32,60.10699044,613a7f3c88a2c0d8087b6a5c,626b377229c10585ec392f89,626b3ab12f0aeed8afb3ff50,,,,,,,,,,,,,,,,,,,,,,,l,0,0.9602,"[""0.288"",""0.514"",""0.430"",""0.931""]","[1,1,0,1]",0,10,10,10,1,0,1,,,0,FALSE,,,,,,,,,,,,,,,,,,,,,,,,,,,,,,
,613a7f3c88a2c0d8087b6a5c,001,2022-04-28_20h10.12.462,classification_task,2021.2.3,Win32,60.10699044,613a7f3c88a2c0d8087b6a5c,626b377229c10585ec392f89,626b3ab12f0aeed8afb3ff50,,,,,,,,,,,,,,,,,,,,,,,a,1,0.8485,"[""0.288"",""0.514"",""0.893"",""0.479""]","[1,1,1,0]",0,11,11,11,1,0,1,,,0,FALSE,,,,,,,,,,,,,,,,,,,,,,,,,,,,,,
,613a7f3c88a2c0d8087b6a5c,001,2022-04-28_20h10.12.462,classification_task,2021.2.3,Win32,60.10699044,613a7f3c88a2c0d8087b6a5c,626b377229c10585ec392f89,626b3ab12f0aeed8afb3ff50,,,,,,,,,,,,,,,,,,,,,,,l,1,0.8496,"[""0.056"",""0.340"",""0.634"",""0.400""]","[1,1,1,0]",0,12,12,12,1,1,1,,,0,FALSE,,,,,,,,,,,,,,,,,,,,,,,,,,,,,,
,613a7f3c88a2c0d8087b6a5c,001,2022-04-28_20h10.12.462,classification_task,2021.2.3,Win32,60.10699044,613a7f3c88a2c0d8087b6a5c,626b377229c10585ec392f89,626b3ab12f0aeed8afb3ff50,,,,,,,,,,,,,,,,,,,,,,,a,0,0.84,"[""0.723"",""0.340"",""0.634"",""0.677""]","[0,1,1,1]",0,13,13,13,1,1,1,,,0,FALSE,,,,,,,,,,,,,,,,,,,,,,,,,,,,,,
,613a7f3c88a2c0d8087b6a5c,001,2022-04-28_20h10.12.462,classification_task,2021.2.3,Win32,60.10699044,613a7f3c88a2c0d8087b6a5c,626b377229c10585ec392f89,626b3ab12f0aeed8afb3ff50,,,,,,,,,,,,,,,,,,,,,,,l,0,0.9637,"[""0.288"",""0.405"",""0.893"",""0.931""]","[1,0,1,1]",0,14,14,14,1,0,1,,,0,FALSE,,,,,,,,,,,,,,,,,,,,,,,,,,,,,,
,613a7f3c88a2c0d8087b6a5c,001,2022-04-28_20h10.12.462,classification_task,2021.2.3,Win32,60.10699044,613a7f3c88a2c0d8087b6a5c,626b377229c10585ec392f89,626b3ab12f0aeed8afb3ff50,,,,,,,,,,,,,,,,,,,,,,,l,1,0.8981,"[""0.476"",""0.189"",""0.598"",""0.791""]","[0,1,1,1]",0,15,15,15,1,1,0,,,0,FALSE,,,,,,,,,,,,,,,,,,,,,,,,,,,,,,
,613a7f3c88a2c0d8087b6a5c,001,2022-04-28_20h10.12.462,classification_task,2021.2.3,Win32,60.10699044,613a7f3c88a2c0d8087b6a5c,626b377229c10585ec392f89,626b3ab12f0aeed8afb3ff50,,,,,,,,,,,,,,,,,,,,,,,a,1,0.6365,"[""0.249"",""0.751"",""0.859"",""0.968""]","[1,0,1,1]",0,16,16,16,1,0,0,,,0,FALSE,,,,,,,,,,,,,,,,,,,,,,,,,,,,,,
,613a7f3c88a2c0d8087b6a5c,001,2022-04-28_20h10.12.462,classification_task,2021.2.3,Win32,60.10699044,613a7f3c88a2c0d8087b6a5c,626b377229c10585ec392f89,626b3ab12f0aeed8afb3ff50,,,,,,,,,,,,,,,,,,,,,,,l,1,0.4877,"[""0.144"",""0.430"",""0.598"",""0.791""]","[1,0,1,1]",0,17,17,17,1,1,0,,,0,FALSE,,,,,,,,,,,,,,,,,,,,,,,,,,,,,,
,613a7f3c88a2c0d8087b6a5c,001,2022-04-28_20h10.12.462,classification_task,2021.2.3,Win32,60.10699044,613a7f3c88a2c0d8087b6a5c,626b377229c10585ec392f89,626b3ab12f0aeed8afb3ff50,,,,,,,,,,,,,,,,,,,,,,,l,1,0.5192,"[""0.144"",""0.189"",""0.430"",""0.791""]","[1,1,0,1]",0,18,18,18,1,1,0,,,0,FALSE,,,,,,,,,,,,,,,,,,,,,,,,,,,,,,
,613a7f3c88a2c0d8087b6a5c,001,2022-04-28_20h10.12.462,classification_task,2021.2.3,Win32,60.10699044,613a7f3c88a2c0d8087b6a5c,626b377229c10585ec392f89,626b3ab12f0aeed8afb3ff50,,,,,,,,,,,,,,,,,,,,,,,a,0,1.1865,"[""0.056"",""0.340"",""0.634"",""0.380""]","[1,1,1,0]",0,19,19,19,1,1,1,,,0,FALSE,,,,,,,,,,,,,,,,,,,,,,,,,,,,,,
,613a7f3c88a2c0d8087b6a5c,001,2022-04-28_20h10.12.462,classification_task,2021.2.3,Win32,60.10699044,613a7f3c88a2c0d8087b6a5c,626b377229c10585ec392f89,626b3ab12f0aeed8afb3ff50,,,,,,,,,,,,,,,,,,,,,,,l,1,1.026,"[""0.056"",""0.340"",""0.479"",""0.677""]","[1,1,0,1]",0,20,20,20,1,1,1,,,0,FALSE,,,,,,,,,,,,,,,,,,,,,,,,,,,,,,
,613a7f3c88a2c0d8087b6a5c,001,2022-04-28_20h10.12.462,classification_task,2021.2.3,Win32,60.10699044,613a7f3c88a2c0d8087b6a5c,626b377229c10585ec392f89,626b3ab12f0aeed8afb3ff50,,,,,,,,,,,,,,,,,,,,,,,l,1,1.5281,"[""0.751"",""0.189"",""0.598"",""0.791""]","[0,1,1,1]",0,21,21,21,1,1,0,,,0,FALSE,,,,,,,,,,,,,,,,,,,,,,,,,,,,,,
,613a7f3c88a2c0d8087b6a5c,001,2022-04-28_20h10.12.462,classification_task,2021.2.3,Win32,60.10699044,613a7f3c88a2c0d8087b6a5c,626b377229c10585ec392f89,626b3ab12f0aeed8afb3ff50,,,,,,,,,,,,,,,,,,,,,,,l,1,1.0343,"[""0.144"",""0.189"",""0.598"",""0.400""]","[1,1,1,0]",0,22,22,22,1,1,0,,,0,FALSE,,,,,,,,,,,,,,,,,,,,,,,,,,,,,,
,613a7f3c88a2c0d8087b6a5c,001,2022-04-28_20h10.12.462,classification_task,2021.2.3,Win32,60.10699044,613a7f3c88a2c0d8087b6a5c,626b377229c10585ec392f89,626b3ab12f0aeed8afb3ff50,,,,,,,,,,,,,,,,,,,,,,,a,1,1.1894,"[""0.288"",""0.514"",""0.479"",""0.931""]","[1,1,0,1]",0,23,23,23,1,0,1,,,0,FALSE,,,,,,,,,,,,,,,,,,,,,,,,,,,,,,
,613a7f3c88a2c0d8087b6a5c,001,2022-04-28_20h10.12.462,classification_task,2021.2.3,Win32,60.10699044,613a7f3c88a2c0d8087b6a5c,626b377229c10585ec392f89,626b3ab12f0aeed8afb3ff50,,,,,,,,,,,,,,,,,,,,,,,a,0,0.7782,"[""0.723"",""0.340"",""0.634"",""0.677""]","[0,1,1,1]",0,24,24,24,1,1,1,,,0,FALSE,,,,,,,,,,,,,,,,,,,,,,,,,,,,,,
,613a7f3c88a2c0d8087b6a5c,001,2022-04-28_20h10.12.462,classification_task,2021.2.3,Win32,60.10699044,613a7f3c88a2c0d8087b6a5c,626b377229c10585ec392f89,626b3ab12f0aeed8afb3ff50,,,,,,,,,,,,,,,,,,,,,,,l,1,0.7108,"[""0.056"",""0.721"",""0.634"",""0.677""]","[1,0,1,1]",0,25,25,25,1,1,1,,,0,FALSE,,,,,,,,,,,,,,,,,,,,,,,,,,,,,,
,613a7f3c88a2c0d8087b6a5c,001,2022-04-28_20h10.12.462,classification_task,2021.2.3,Win32,60.10699044,613a7f3c88a2c0d8087b6a5c,626b377229c10585ec392f89,626b3ab12f0aeed8afb3ff50,,,,,,,,,,,,,,,,,,,,,,,a,1,1.1995,"[""0.249"",""0.549"",""0.859"",""0.721""]","[1,1,1,0]",0,26,26,26,1,0,0,,,0,FALSE,,,,,,,,,,,,,,,,,,,,,,,,,,,,,,
,613a7f3c88a2c0d8087b6a5c,001,2022-04-28_20h10.12.462,classification_task,2021.2.3,Win32,60.10699044,613a7f3c88a2c0d8087b6a5c,626b377229c10585ec392f89,626b3ab12f0aeed8afb3ff50,,,,,,,,,,,,,,,,,,,,,,,l,0,0.5756,"[""0.249"",""0.549"",""0.379"",""0.968""]","[1,1,0,1]",0,27,27,27,1,0,0,,,0,FALSE,,,,,,,,,,,,,,,,,,,,,,,,,,,,,,
,613a7f3c88a2c0d8087b6a5c,001,2022-04-28_20h10.12.462,classification_task,2021.2.3,Win32,60.10699044,613a7f3c88a2c0d8087b6a5c,626b377229c10585ec392f89,626b3ab12f0aeed8afb3ff50,,,,,,,,,,,,,,,,,,,,,,,a,1,0.6983,"[""0.380"",""0.549"",""0.859"",""0.968""]","[0,1,1,1]",0,28,28,28,1,0,0,,,0,FALSE,,,,,,,,,,,,,,,,,,,,,,,,,,,,,,
,613a7f3c88a2c0d8087b6a5c,001,2022-04-28_20h10.12.462,classification_task,2021.2.3,Win32,60.10699044,613a7f3c88a2c0d8087b6a5c,626b377229c10585ec392f89,626b3ab12f0aeed8afb3ff50,,,,,,,,,,,,,,,,,,,,,,,l,0,1.3876,"[""0.288"",""0.514"",""0.893"",""0.400""]","[1,1,1,0]",0,29,29,29,1,0,1,,,0,FALSE,,,,,,,,,,,,,,,,,,,,,,,,,,,,,,
,613a7f3c88a2c0d8087b6a5c,001,2022-04-28_20h10.12.462,classification_task,2021.2.3,Win32,60.10699044,613a7f3c88a2c0d8087b6a5c,626b377229c10585ec392f89,626b3ab12f0aeed8afb3ff50,,,,,,,,,,,,,,,,,,,,,,,a,1,1.4903,"[""0.713"",""0.514"",""0.893"",""0.931""]","[0,1,1,1]",0,30,30,30,1,0,1,,,0,FALSE,,,,,,,,,,,,,,,,,,,,,,,,,,,,,,
,613a7f3c88a2c0d8087b6a5c,001,2022-04-28_20h10.12.462,classification_task,2021.2.3,Win32,60.10699044,613a7f3c88a2c0d8087b6a5c,626b377229c10585ec392f89,626b3ab12f0aeed8afb3ff50,,,,,,,,,,,,,,,,,,,,,,,a,1,0.7118,"[""0.288"",""0.379"",""0.893"",""0.931""]","[1,0,1,1]",0,31,31,31,1,0,1,,,0,FALSE,,,,,,,,,,,,,,,,,,,,,,,,,,,,,,
,613a7f3c88a2c0d8087b6a5c,001,2022-04-28_20h10.12.462,classification_task,2021.2.3,Win32,60.10699044,613a7f3c88a2c0d8087b6a5c,626b377229c10585ec392f89,626b3ab12f0aeed8afb3ff50,,,,,,,,,,,,,,,,,,,,,,,l,1,0.7537,"[""0.056"",""0.340"",""0.733"",""0.677""]","[1,1,0,1]",0,32,32,32,1,1,1,,,0,FALSE,,,,,,,,,,,,,,,,,,,,,,,,,,,,,,
,613a7f3c88a2c0d8087b6a5c,001,2022-04-28_20h10.12.462,classification_task,2021.2.3,Win32,60.10699044,613a7f3c88a2c0d8087b6a5c,626b377229c10585ec392f89,626b3ab12f0aeed8afb3ff50,,,,,,,,,,,,,,,,,,,,,,,a,1,2.489,"[""0.249"",""0.549"",""0.859"",""0.731""]","[1,1,1,0]",0,33,33,33,1,0,0,,,0,FALSE,,,,,,,,,,,,,,,,,,,,,,,,,,,,,,
,613a7f3c88a2c0d8087b6a5c,001,2022-04-28_20h10.12.462,classification_task,2021.2.3,Win32,60.10699044,613a7f3c88a2c0d8087b6a5c,626b377229c10585ec392f89,626b3ab12f0aeed8afb3ff50,,,,,,,,,,,,,,,,,,,,,,,l,1,1.5284,"[""0.479"",""0.340"",""0.634"",""0.677""]","[0,1,1,1]",0,34,34,34,1,1,1,,,0,FALSE,,,,,,,,,,,,,,,,,,,,,,,,,,,,,,
,613a7f3c88a2c0d8087b6a5c,001,2022-04-28_20h10.12.462,classification_task,2021.2.3,Win32,60.10699044,613a7f3c88a2c0d8087b6a5c,626b377229c10585ec392f89,626b3ab12f0aeed8afb3ff50,,,,,,,,,,,,,,,,,,,,,,,l,1,1.7431,"[""0.144"",""0.467"",""0.598"",""0.791""]","[1,0,1,1]",0,35,35,35,1,1,0,,,0,FALSE,,,,,,,,,,,,,,,,,,,,,,,,,,,,,,
,613a7f3c88a2c0d8087b6a5c,001,2022-04-28_20h10.12.462,classification_task,2021.2.3,Win32,60.10699044,613a7f3c88a2c0d8087b6a5c,626b377229c10585ec392f89,626b3ab12f0aeed8afb3ff50,,,,,,,,,,,,,,,,,,,,,,,a,1,0.786,"[""0.430"",""0.549"",""0.859"",""0.968""]","[0,1,1,1]",0,36,36,36,1,0,0,,,0,FALSE,,,,,,,,,,,,,,,,,,,,,,,,,,,,,,
,613a7f3c88a2c0d8087b6a5c,001,2022-04-28_20h10.12.462,classification_task,2021.2.3,Win32,60.10699044,613a7f3c88a2c0d8087b6a5c,626b377229c10585ec392f89,626b3ab12f0aeed8afb3ff50,,,,,,,,,,,,,,,,,,,,,,,l,1,0.7831,"[""0.144"",""0.189"",""0.598"",""0.731""]","[1,1,1,0]",0,37,37,37,1,1,0,,,0,FALSE,,,,,,,,,,,,,,,,,,,,,,,,,,,,,,
,613a7f3c88a2c0d8087b6a5c,001,2022-04-28_20h10.12.462,classification_task,2021.2.3,Win32,60.10699044,613a7f3c88a2c0d8087b6a5c,626b377229c10585ec392f89,626b3ab12f0aeed8afb3ff50,,,,,,,,,,,,,,,,,,,,,,,l,1,0.5572,"[""0.380"",""0.189"",""0.598"",""0.791""]","[0,1,1,1]",0,38,38,38,1,1,0,,,0,FALSE,,,,,,,,,,,,,,,,,,,,,,,,,,,,,,
,613a7f3c88a2c0d8087b6a5c,001,2022-04-28_20h10.12.462,classification_task,2021.2.3,Win32,60.10699044,613a7f3c88a2c0d8087b6a5c,626b377229c10585ec392f89,626b3ab12f0aeed8afb3ff50,,,,,,,,,,,,,,,,,,,,,,,l,1,0.6693,"[""0.144"",""0.189"",""0.380"",""0.791""]","[1,1,0,1]",0,39,39,39,1,1,0,,,0,FALSE,,,,,,,,,,,,,,,,,,,,,,,,,,,,,,
,613a7f3c88a2c0d8087b6a5c,001,2022-04-28_20h10.12.462,classification_task,2021.2.3,Win32,60.10699044,613a7f3c88a2c0d8087b6a5c,626b377229c10585ec392f89,626b3ab12f0aeed8afb3ff50,,,,,,,,,,,,,,,,,,,,,,,a,1,0.5937,"[""0.249"",""0.549"",""0.476"",""0.968""]","[1,1,0,1]",0,40,40,40,1,0,0,,,0,FALSE,,,,,,,,,,,,,,,,,,,,,,,,,,,,,,
,613a7f3c88a2c0d8087b6a5c,001,2022-04-28_20h10.12.462,classification_task,2021.2.3,Win32,60.10699044,613a7f3c88a2c0d8087b6a5c,626b377229c10585ec392f89,626b3ab12f0aeed8afb3ff50,,,,,,,,,,,,,,,,,,,,,,,a,0,1.7255,"[""0.056"",""0.430"",""0.634"",""0.677""]","[1,0,1,1]",0,41,41,41,1,1,1,,,0,FALSE,,,,,,,,,,,,,,,,,,,,,,,,,,,,,,
,613a7f3c88a2c0d8087b6a5c,001,2022-04-28_20h10.12.462,classification_task,2021.2.3,Win32,60.10699044,613a7f3c88a2c0d8087b6a5c,626b377229c10585ec392f89,626b3ab12f0aeed8afb3ff50,,,,,,,,,,,,,,,,,,,,,,,a,1,1.3281,"[""0.249"",""0.731"",""0.859"",""0.968""]","[1,0,1,1]",0,42,42,42,1,0,0,,,0,FALSE,,,,,,,,,,,,,,,,,,,,,,,,,,,,,,
,613a7f3c88a2c0d8087b6a5c,001,2022-04-28_20h10.12.462,classification_task,2021.2.3,Win32,60.10699044,613a7f3c88a2c0d8087b6a5c,626b377229c10585ec392f89,626b3ab12f0aeed8afb3ff50,,,,,,,,,,,,,,,,,,,,,,,l,1,0.7435,"[""0.056"",""0.340"",""0.634"",""0.467""]","[1,1,1,0]",0,43,43,43,1,1,1,,,0,FALSE,,,,,,,,,,,,,,,,,,,,,,,,,,,,,,
,613a7f3c88a2c0d8087b6a5c,001,2022-04-28_20h10.12.462,classification_task,2021.2.3,Win32,60.10699044,613a7f3c88a2c0d8087b6a5c,626b377229c10585ec392f89,626b3ab12f0aeed8afb3ff50,,,,,,,,,,,,,,,,,,,,,,,l,0,0.671,"[""0.288"",""0.379"",""0.893"",""0.931""]","[1,0,1,1]",0,44,44,44,1,0,1,,,0,FALSE,,,,,,,,,,,,,,,,,,,,,,,,,,,,,,
,613a7f3c88a2c0d8087b6a5c,001,2022-04-28_20h10.12.462,classification_task,2021.2.3,Win32,60.10699044,613a7f3c88a2c0d8087b6a5c,626b377229c10585ec392f89,626b3ab12f0aeed8afb3ff50,,,,,,,,,,,,,,,,,,,,,,,a,1,0.7724,"[""0.288"",""0.514"",""0.893"",""0.400""]","[1,1,1,0]",0,45,45,45,1,0,1,,,0,FALSE,,,,,,,,,,,,,,,,,,,,,,,,,,,,,,
,613a7f3c88a2c0d8087b6a5c,001,2022-04-28_20h10.12.462,classification_task,2021.2.3,Win32,60.10699044,613a7f3c88a2c0d8087b6a5c,626b377229c10585ec392f89,626b3ab12f0aeed8afb3ff50,,,,,,,,,,,,,,,,,,,,,,,a,1,2.5016,"[""0.288"",""0.514"",""0.733"",""0.931""]","[1,1,0,1]",0,46,46,46,1,0,1,,,0,FALSE,,,,,,,,,,,,,,,,,,,,,,,,,,,,,,
,613a7f3c88a2c0d8087b6a5c,001,2022-04-28_20h10.12.462,classification_task,2021.2.3,Win32,60.10699044,613a7f3c88a2c0d8087b6a5c,626b377229c10585ec392f89,626b3ab12f0aeed8afb3ff50,,,,,,,,,,,,,,,,,,,,,,,a,1,0.8157,"[""0.405"",""0.514"",""0.893"",""0.931""]","[0,1,1,1]",0,47,47,47,1,0,1,,,0,FALSE,,,,,,,,,,,,,,,,,,,,,,,,,,,,,,
,613a7f3c88a2c0d8087b6a5c,001,2022-04-28_20h10.12.462,classification_task,2021.2.3,Win32,60.10699044,613a7f3c88a2c0d8087b6a5c,626b377229c10585ec392f89,626b3ab12f0aeed8afb3ff50,,,,,,,,,,,,,,,,,,,,,,,a,1,1.3555,"[""0.731"",""0.549"",""0.859"",""0.968""]","[0,1,1,1]",0,48,48,48,1,0,0,,,0,FALSE,,,,,,,,,,,,,,,,,,,,,,,,,,,,,,
,613a7f3c88a2c0d8087b6a5c,001,2022-04-28_20h10.12.462,classification_task,2021.2.3,Win32,60.10699044,613a7f3c88a2c0d8087b6a5c,626b377229c10585ec392f89,626b3ab12f0aeed8afb3ff50,,,,,,,,,,,,,,,,,,,,,,,l,1,0.8135,"[""0.056"",""0.340"",""0.634"",""0.430""]","[1,1,1,0]",0,49,49,49,1,1,1,,,0,FALSE,,,,,,,,,,,,,,,,,,,,,,,,,,,,,,
,613a7f3c88a2c0d8087b6a5c,001,2022-04-28_20h10.12.462,classification_task,2021.2.3,Win32,60.10699044,613a7f3c88a2c0d8087b6a5c,626b377229c10585ec392f89,626b3ab12f0aeed8afb3ff50,,,,,,,,,,,,,,,,,,,,,,,l,1,1.0819,"[""0.144"",""0.189"",""0.380"",""0.791""]","[1,1,0,1]",0,50,50,50,1,1,0,,,0,FALSE,,,,,,,,,,,,,,,,,,,,,,,,,,,,,,
,613a7f3c88a2c0d8087b6a5c,001,2022-04-28_20h10.12.462,classification_task,2021.2.3,Win32,60.10699044,613a7f3c88a2c0d8087b6a5c,626b377229c10585ec392f89,626b3ab12f0aeed8afb3ff50,,,,,,,,,,,,,,,,,,,,,,,a,1,1.1308,"[""0.249"",""0.549"",""0.859"",""0.415""]","[1,1,1,0]",0,51,51,51,1,0,0,,,0,FALSE,,,,,,,,,,,,,,,,,,,,,,,,,,,,,,
,613a7f3c88a2c0d8087b6a5c,001,2022-04-28_20h10.12.462,classification_task,2021.2.3,Win32,60.10699044,613a7f3c88a2c0d8087b6a5c,626b377229c10585ec392f89,626b3ab12f0aeed8afb3ff50,,,,,,,,,,,,,,,,,,,,,,,a,1,1.7769,"[""0.249"",""0.479"",""0.859"",""0.968""]","[1,0,1,1]",0,52,52,52,1,0,0,,,0,FALSE,,,,,,,,,,,,,,,,,,,,,,,,,,,,,,
,613a7f3c88a2c0d8087b6a5c,001,2022-04-28_20h10.12.462,classification_task,2021.2.3,Win32,60.10699044,613a7f3c88a2c0d8087b6a5c,626b377229c10585ec392f89,626b3ab12f0aeed8afb3ff50,,,,,,,,,,,,,,,,,,,,,,,l,1,0.7038,"[""0.405"",""0.189"",""0.598"",""0.791""]","[0,1,1,1]",0,53,53,53,1,1,0,,,0,FALSE,,,,,,,,,,,,,,,,,,,,,,,,,,,,,,
,613a7f3c88a2c0d8087b6a5c,001,2022-04-28_20h10.12.462,classification_task,2021.2.3,Win32,60.10699044,613a7f3c88a2c0d8087b6a5c,626b377229c10585ec392f89,626b3ab12f0aeed8afb3ff50,,,,,,,,,,,,,,,,,,,,,,,a,0,1.2875,"[""0.056"",""0.340"",""0.731"",""0.677""]","[1,1,0,1]",0,54,54,54,1,1,1,,,0,FALSE,,,,,,,,,,,,,,,,,,,,,,,,,,,,,,
,613a7f3c88a2c0d8087b6a5c,001,2022-04-28_20h10.12.462,classification_task,2021.2.3,Win32,60.10699044,613a7f3c88a2c0d8087b6a5c,626b377229c10585ec392f89,626b3ab12f0aeed8afb3ff50,,,,,,,,,,,,,,,,,,,,,,,a,1,1.3452,"[""0.288"",""0.514"",""0.893"",""0.380""]","[1,1,1,0]",0,55,55,55,1,0,1,,,0,FALSE,,,,,,,,,,,,,,,,,,,,,,,,,,,,,,
,613a7f3c88a2c0d8087b6a5c,001,2022-04-28_20h10.12.462,classification_task,2021.2.3,Win32,60.10699044,613a7f3c88a2c0d8087b6a5c,626b377229c10585ec392f89,626b3ab12f0aeed8afb3ff50,,,,,,,,,,,,,,,,,,,,,,,a,1,0.6586,"[""0.467"",""0.514"",""0.893"",""0.931""]","[0,1,1,1]",0,56,56,56,1,0,1,,,0,FALSE,,,,,,,,,,,,,,,,,,,,,,,,,,,,,,
,613a7f3c88a2c0d8087b6a5c,001,2022-04-28_20h10.12.462,classification_task,2021.2.3,Win32,60.10699044,613a7f3c88a2c0d8087b6a5c,626b377229c10585ec392f89,626b3ab12f0aeed8afb3ff50,,,,,,,,,,,,,,,,,,,,,,,l,1,1.0726,"[""0.144"",""0.379"",""0.598"",""0.791""]","[1,0,1,1]",0,57,57,57,1,1,0,,,0,FALSE,,,,,,,,,,,,,,,,,,,,,,,,,,,,,,
,613a7f3c88a2c0d8087b6a5c,001,2022-04-28_20h10.12.462,classification_task,2021.2.3,Win32,60.10699044,613a7f3c88a2c0d8087b6a5c,626b377229c10585ec392f89,626b3ab12f0aeed8afb3ff50,,,,,,,,,,,,,,,,,,,,,,,l,1,1.5545,"[""0.380"",""0.340"",""0.634"",""0.677""]","[0,1,1,1]",0,58,58,58,1,1,1,,,0,FALSE,,,,,,,,,,,,,,,,,,,,,,,,,,,,,,
,613a7f3c88a2c0d8087b6a5c,001,2022-04-28_20h10.12.462,classification_task,2021.2.3,Win32,60.10699044,613a7f3c88a2c0d8087b6a5c,626b377229c10585ec392f89,626b3ab12f0aeed8afb3ff50,,,,,,,,,,,,,,,,,,,,,,,l,0,2.228,"[""0.288"",""0.400"",""0.893"",""0.931""]","[1,0,1,1]",0,59,59,59,1,0,1,,,0,FALSE,,,,,,,,,,,,,,,,,,,,,,,,,,,,,,
,613a7f3c88a2c0d8087b6a5c,001,2022-04-28_20h10.12.462,classification_task,2021.2.3,Win32,60.10699044,613a7f3c88a2c0d8087b6a5c,626b377229c10585ec392f89,626b3ab12f0aeed8afb3ff50,,,,,,,,,,,,,,,,,,,,,,,a,1,0.7535,"[""0.288"",""0.514"",""0.713"",""0.931""]","[1,1,0,1]",0,60,60,60,1,0,1,,,0,FALSE,,,,,,,,,,,,,,,,,,,,,,,,,,,,,,
,613a7f3c88a2c0d8087b6a5c,001,2022-04-28_20h10.12.462,classification_task,2021.2.3,Win32,60.10699044,613a7f3c88a2c0d8087b6a5c,626b377229c10585ec392f89,626b3ab12f0aeed8afb3ff50,,,,,,,,,,,,,,,,,,,,,,,l,1,0.9749,"[""0.056"",""0.379"",""0.634"",""0.677""]","[1,0,1,1]",0,61,61,61,1,1,1,,,0,FALSE,,,,,,,,,,,,,,,,,,,,,,,,,,,,,,
,613a7f3c88a2c0d8087b6a5c,001,2022-04-28_20h10.12.462,classification_task,2021.2.3,Win32,60.10699044,613a7f3c88a2c0d8087b6a5c,626b377229c10585ec392f89,626b3ab12f0aeed8afb3ff50,,,,,,,,,,,,,,,,,,,,,,,l,1,0.8716,"[""0.144"",""0.189"",""0.598"",""0.405""]","[1,1,1,0]",0,62,62,62,1,1,0,,,0,FALSE,,,,,,,,,,,,,,,,,,,,,,,,,,,,,,
,613a7f3c88a2c0d8087b6a5c,001,2022-04-28_20h10.12.462,classification_task,2021.2.3,Win32,60.10699044,613a7f3c88a2c0d8087b6a5c,626b377229c10585ec392f89,626b3ab12f0aeed8afb3ff50,,,,,,,,,,,,,,,,,,,,,,,a,1,0.9282,"[""0.249"",""0.549"",""0.723"",""0.968""]","[1,1,0,1]",0,63,63,63,1,0,0,,,0,FALSE,,,,,,,,,,,,,,,,,,,,,,,,,,,,,,
,613a7f3c88a2c0d8087b6a5c,001,2022-04-28_20h10.12.462,classification_task,2021.2.3,Win32,60.10699044,613a7f3c88a2c0d8087b6a5c,626b377229c10585ec392f89,626b3ab12f0aeed8afb3ff50,,,,,,,,,,,,,,,,,,,,,,,,,,,,,,,,,,,,,,,0, ,,0,7.028218695,180.1947,0,1,1,1,1,2,2,,,,,,,,,,,,,,,,,
,613a7f3c88a2c0d8087b6a5c,001,2022-04-28_20h10.12.462,classification_task,2021.2.3,Win32,60.10699044,613a7f3c88a2c0d8087b6a5c,626b377229c10585ec392f89,626b3ab12f0aeed8afb3ff50,,,,,,,,,,,,,,,,,,,,,,,,,,,,,,,,,,,,,,,1,  ,,0,3.85361552,184.2829,0,1,1,1,1,2,2,,,,,,,,,,,,,,,,,
,613a7f3c88a2c0d8087b6a5c,001,2022-04-28_20h10.12.462,classification_task,2021.2.3,Win32,60.10699044,613a7f3c88a2c0d8087b6a5c,626b377229c10585ec392f89,626b3ab12f0aeed8afb3ff50,,,,,,,,,,,,,,,,,,,,,,,,,,,,,,,,,,,,,,,2,  ,,0,5.38212816,192.1341,0,1,1,1,1,2,2,,,,,,,,,,,,,,,,,
,613a7f3c88a2c0d8087b6a5c,001,2022-04-28_20h10.12.462,classification_task,2021.2.3,Win32,60.10699044,613a7f3c88a2c0d8087b6a5c,626b377229c10585ec392f89,626b3ab12f0aeed8afb3ff50,,,,,,,,,,,,,,,,,,,,,,,,,,,,,,,,,,,,,,,,,,,,,0,1,1,1,1,,2,,,,,,,,,,,,,,,,,
,613a7f3c88a2c0d8087b6a5c,001,2022-04-28_20h10.12.462,classification_task,2021.2.3,Win32,60.10699044,613a7f3c88a2c0d8087b6a5c,626b377229c10585ec392f89,626b3ab12f0aeed8afb3ff50,,,,,,,,,,,,,,,,,,,,,space,13.86,l,0,1.8967,"[""0.288"",""0.514"",""0.893"",""0.405""]","[1,1,1,0]",0,0,0,0,1,0,1,,,0,FALSE,,,,,,,,,,,,,,,,,,,,,,,,,,,,,,
,613a7f3c88a2c0d8087b6a5c,001,2022-04-28_20h10.12.462,classification_task,2021.2.3,Win32,60.10699044,613a7f3c88a2c0d8087b6a5c,626b377229c10585ec392f89,626b3ab12f0aeed8afb3ff50,,,,,,,,,,,,,,,,,,,,,,,a,1,1.6044,"[""0.288"",""0.514"",""0.415"",""0.931""]","[1,1,0,1]",0,1,1,1,1,0,1,,,0,FALSE,,,,,,,,,,,,,,,,,,,,,,,,,,,,,,
,613a7f3c88a2c0d8087b6a5c,001,2022-04-28_20h10.12.462,classification_task,2021.2.3,Win32,60.10699044,613a7f3c88a2c0d8087b6a5c,626b377229c10585ec392f89,626b3ab12f0aeed8afb3ff50,,,,,,,,,,,,,,,,,,,,,,,a,0,2.2168,"[""0.144"",""0.479"",""0.598"",""0.791""]","[1,0,1,1]",0,2,2,2,1,1,0,,,0,FALSE,,,,,,,,,,,,,,,,,,,,,,,,,,,,,,
,613a7f3c88a2c0d8087b6a5c,001,2022-04-28_20h10.12.462,classification_task,2021.2.3,Win32,60.10699044,613a7f3c88a2c0d8087b6a5c,626b377229c10585ec392f89,626b3ab12f0aeed8afb3ff50,,,,,,,,,,,,,,,,,,,,,,,l,1,3.2571,"[""0.056"",""0.400"",""0.634"",""0.677""]","[1,0,1,1]",0,3,3,3,1,1,1,,,0,FALSE,,,,,,,,,,,,,,,,,,,,,,,,,,,,,,
,613a7f3c88a2c0d8087b6a5c,001,2022-04-28_20h10.12.462,classification_task,2021.2.3,Win32,60.10699044,613a7f3c88a2c0d8087b6a5c,626b377229c10585ec392f89,626b3ab12f0aeed8afb3ff50,,,,,,,,,,,,,,,,,,,,,,,a,1,1.3292,"[""0.400"",""0.514"",""0.893"",""0.931""]","[0,1,1,1]",0,4,4,4,1,0,1,,,0,FALSE,,,,,,,,,,,,,,,,,,,,,,,,,,,,,,
,613a7f3c88a2c0d8087b6a5c,001,2022-04-28_20h10.12.462,classification_task,2021.2.3,Win32,60.10699044,613a7f3c88a2c0d8087b6a5c,626b377229c10585ec392f89,626b3ab12f0aeed8afb3ff50,,,,,,,,,,,,,,,,,,,,,,,a,1,1.4112,"[""0.249"",""0.549"",""0.430"",""0.968""]","[1,1,0,1]",0,5,5,5,1,0,0,,,0,FALSE,,,,,,,,,,,,,,,,,,,,,,,,,,,,,,
,613a7f3c88a2c0d8087b6a5c,001,2022-04-28_20h10.12.462,classification_task,2021.2.3,Win32,60.10699044,613a7f3c88a2c0d8087b6a5c,626b377229c10585ec392f89,626b3ab12f0aeed8afb3ff50,,,,,,,,,,,,,,,,,,,,,,,l,1,1.3445,"[""0.056"",""0.340"",""0.723"",""0.677""]","[1,1,0,1]",0,6,6,6,1,1,1,,,0,FALSE,,,,,,,,,,,,,,,,,,,,,,,,,,,,,,
,613a7f3c88a2c0d8087b6a5c,001,2022-04-28_20h10.12.462,classification_task,2021.2.3,Win32,60.10699044,613a7f3c88a2c0d8087b6a5c,626b377229c10585ec392f89,626b3ab12f0aeed8afb3ff50,,,,,,,,,,,,,,,,,,,,,,,a,1,0.9578,"[""0.288"",""0.400"",""0.893"",""0.931""]","[1,0,1,1]",0,7,7,7,1,0,1,,,0,FALSE,,,,,,,,,,,,,,,,,,,,,,,,,,,,,,
,613a7f3c88a2c0d8087b6a5c,001,2022-04-28_20h10.12.462,classification_task,2021.2.3,Win32,60.10699044,613a7f3c88a2c0d8087b6a5c,626b377229c10585ec392f89,626b3ab12f0aeed8afb3ff50,,,,,,,,,,,,,,,,,,,,,,,l,0,3.3979,"[""0.249"",""0.549"",""0.859"",""0.467""]","[1,1,1,0]",0,8,8,8,1,0,0,,,0,FALSE,,,,,,,,,,,,,,,,,,,,,,,,,,,,,,
,613a7f3c88a2c0d8087b6a5c,001,2022-04-28_20h10.12.462,classification_task,2021.2.3,Win32,60.10699044,613a7f3c88a2c0d8087b6a5c,626b377229c10585ec392f89,626b3ab12f0aeed8afb3ff50,,,,,,,,,,,,,,,,,,,,,,,l,1,2.0395,"[""0.144"",""0.189"",""0.713"",""0.791""]","[1,1,0,1]",0,9,9,9,1,1,0,,,0,FALSE,,,,,,,,,,,,,,,,,,,,,,,,,,,,,,
,613a7f3c88a2c0d8087b6a5c,001,2022-04-28_20h10.12.462,classification_task,2021.2.3,Win32,60.10699044,613a7f3c88a2c0d8087b6a5c,626b377229c10585ec392f89,626b3ab12f0aeed8afb3ff50,,,,,,,,,,,,,,,,,,,,,,,a,0,1.2911,"[""0.400"",""0.189"",""0.598"",""0.791""]","[0,1,1,1]",0,10,10,10,1,1,0,,,0,FALSE,,,,,,,,,,,,,,,,,,,,,,,,,,,,,,
,613a7f3c88a2c0d8087b6a5c,001,2022-04-28_20h10.12.462,classification_task,2021.2.3,Win32,60.10699044,613a7f3c88a2c0d8087b6a5c,626b377229c10585ec392f89,626b3ab12f0aeed8afb3ff50,,,,,,,,,,,,,,,,,,,,,,,l,1,1.5311,"[""0.056"",""0.340"",""0.634"",""0.731""]","[1,1,1,0]",0,11,11,11,1,1,1,,,0,FALSE,,,,,,,,,,,,,,,,,,,,,,,,,,,,,,
,613a7f3c88a2c0d8087b6a5c,001,2022-04-28_20h10.12.462,classification_task,2021.2.3,Win32,60.10699044,613a7f3c88a2c0d8087b6a5c,626b377229c10585ec392f89,626b3ab12f0aeed8afb3ff50,,,,,,,,,,,,,,,,,,,,,,,a,1,1.0291,"[""0.249"",""0.405"",""0.859"",""0.968""]","[1,0,1,1]",0,12,12,12,1,0,0,,,0,FALSE,,,,,,,,,,,,,,,,,,,,,,,,,,,,,,
,613a7f3c88a2c0d8087b6a5c,001,2022-04-28_20h10.12.462,classification_task,2021.2.3,Win32,60.10699044,613a7f3c88a2c0d8087b6a5c,626b377229c10585ec392f89,626b3ab12f0aeed8afb3ff50,,,,,,,,,,,,,,,,,,,,,,,a,1,0.6916,"[""0.380"",""0.549"",""0.859"",""0.968""]","[0,1,1,1]",0,13,13,13,1,0,0,,,0,FALSE,,,,,,,,,,,,,,,,,,,,,,,,,,,,,,
,613a7f3c88a2c0d8087b6a5c,001,2022-04-28_20h10.12.462,classification_task,2021.2.3,Win32,60.10699044,613a7f3c88a2c0d8087b6a5c,626b377229c10585ec392f89,626b3ab12f0aeed8afb3ff50,,,,,,,,,,,,,,,,,,,,,,,l,1,1.2098,"[""0.467"",""0.340"",""0.634"",""0.677""]","[0,1,1,1]",0,14,14,14,1,1,1,,,0,FALSE,,,,,,,,,,,,,,,,,,,,,,,,,,,,,,
,613a7f3c88a2c0d8087b6a5c,001,2022-04-28_20h10.12.462,classification_task,2021.2.3,Win32,60.10699044,613a7f3c88a2c0d8087b6a5c,626b377229c10585ec392f89,626b3ab12f0aeed8afb3ff50,,,,,,,,,,,,,,,,,,,,,,,l,1,1.5478,"[""0.144"",""0.189"",""0.598"",""0.400""]","[1,1,1,0]",0,15,15,15,1,1,0,,,0,FALSE,,,,,,,,,,,,,,,,,,,,,,,,,,,,,,
,613a7f3c88a2c0d8087b6a5c,001,2022-04-28_20h10.12.462,classification_task,2021.2.3,Win32,60.10699044,613a7f3c88a2c0d8087b6a5c,626b377229c10585ec392f89,626b3ab12f0aeed8afb3ff50,,,,,,,,,,,,,,,,,,,,,,,l,1,1.0475,"[""0.056"",""0.476"",""0.634"",""0.677""]","[1,0,1,1]",0,16,16,16,1,1,1,,,0,FALSE,,,,,,,,,,,,,,,,,,,,,,,,,,,,,,
,613a7f3c88a2c0d8087b6a5c,001,2022-04-28_20h10.12.462,classification_task,2021.2.3,Win32,60.10699044,613a7f3c88a2c0d8087b6a5c,626b377229c10585ec392f89,626b3ab12f0aeed8afb3ff50,,,,,,,,,,,,,,,,,,,,,,,a,1,0.7641,"[""0.430"",""0.514"",""0.893"",""0.931""]","[0,1,1,1]",0,17,17,17,1,0,1,,,0,FALSE,,,,,,,,,,,,,,,,,,,,,,,,,,,,,,
,613a7f3c88a2c0d8087b6a5c,001,2022-04-28_20h10.12.462,classification_task,2021.2.3,Win32,60.10699044,613a7f3c88a2c0d8087b6a5c,626b377229c10585ec392f89,626b3ab12f0aeed8afb3ff50,,,,,,,,,,,,,,,,,,,,,,,a,1,1.58,"[""0.288"",""0.514"",""0.893"",""0.721""]","[1,1,1,0]",0,18,18,18,1,0,1,,,0,FALSE,,,,,,,,,,,,,,,,,,,,,,,,,,,,,,
,613a7f3c88a2c0d8087b6a5c,001,2022-04-28_20h10.12.462,classification_task,2021.2.3,Win32,60.10699044,613a7f3c88a2c0d8087b6a5c,626b377229c10585ec392f89,626b3ab12f0aeed8afb3ff50,,,,,,,,,,,,,,,,,,,,,,,l,1,0.9509,"[""0.144"",""0.400"",""0.598"",""0.791""]","[1,0,1,1]",0,19,19,19,1,1,0,,,0,FALSE,,,,,,,,,,,,,,,,,,,,,,,,,,,,,,
,613a7f3c88a2c0d8087b6a5c,001,2022-04-28_20h10.12.462,classification_task,2021.2.3,Win32,60.10699044,613a7f3c88a2c0d8087b6a5c,626b377229c10585ec392f89,626b3ab12f0aeed8afb3ff50,,,,,,,,,,,,,,,,,,,,,,,a,1,1.0598,"[""0.249"",""0.549"",""0.723"",""0.968""]","[1,1,0,1]",0,20,20,20,1,0,0,,,0,FALSE,,,,,,,,,,,,,,,,,,,,,,,,,,,,,,
,613a7f3c88a2c0d8087b6a5c,001,2022-04-28_20h10.12.462,classification_task,2021.2.3,Win32,60.10699044,613a7f3c88a2c0d8087b6a5c,626b377229c10585ec392f89,626b3ab12f0aeed8afb3ff50,,,,,,,,,,,,,,,,,,,,,,,l,1,1.5509,"[""0.144"",""0.189"",""0.598"",""0.476""]","[1,1,1,0]",0,21,21,21,1,1,0,,,0,FALSE,,,,,,,,,,,,,,,,,,,,,,,,,,,,,,
,613a7f3c88a2c0d8087b6a5c,001,2022-04-28_20h10.12.462,classification_task,2021.2.3,Win32,60.10699044,613a7f3c88a2c0d8087b6a5c,626b377229c10585ec392f89,626b3ab12f0aeed8afb3ff50,,,,,,,,,,,,,,,,,,,,,,,a,1,1.2553,"[""0.288"",""0.400"",""0.893"",""0.931""]","[1,0,1,1]",0,22,22,22,1,0,1,,,0,FALSE,,,,,,,,,,,,,,,,,,,,,,,,,,,,,,
,613a7f3c88a2c0d8087b6a5c,001,2022-04-28_20h10.12.462,classification_task,2021.2.3,Win32,60.10699044,613a7f3c88a2c0d8087b6a5c,626b377229c10585ec392f89,626b3ab12f0aeed8afb3ff50,,,,,,,,,,,,,,,,,,,,,,,a,1,1.4611,"[""0.288"",""0.514"",""0.400"",""0.931""]","[1,1,0,1]",0,23,23,23,1,0,1,,,0,FALSE,,,,,,,,,,,,,,,,,,,,,,,,,,,,,,
,613a7f3c88a2c0d8087b6a5c,001,2022-04-28_20h10.12.462,classification_task,2021.2.3,Win32,60.10699044,613a7f3c88a2c0d8087b6a5c,626b377229c10585ec392f89,626b3ab12f0aeed8afb3ff50,,,,,,,,,,,,,,,,,,,,,,,a,1,1.2886,"[""0.379"",""0.549"",""0.859"",""0.968""]","[0,1,1,1]",0,24,24,24,1,0,0,,,0,FALSE,,,,,,,,,,,,,,,,,,,,,,,,,,,,,,
,613a7f3c88a2c0d8087b6a5c,001,2022-04-28_20h10.12.462,classification_task,2021.2.3,Win32,60.10699044,613a7f3c88a2c0d8087b6a5c,626b377229c10585ec392f89,626b3ab12f0aeed8afb3ff50,,,,,,,,,,,,,,,,,,,,,,,a,1,1.1367,"[""0.249"",""0.733"",""0.859"",""0.968""]","[1,0,1,1]",0,25,25,25,1,0,0,,,0,FALSE,,,,,,,,,,,,,,,,,,,,,,,,,,,,,,
,613a7f3c88a2c0d8087b6a5c,001,2022-04-28_20h10.12.462,classification_task,2021.2.3,Win32,60.10699044,613a7f3c88a2c0d8087b6a5c,626b377229c10585ec392f89,626b3ab12f0aeed8afb3ff50,,,,,,,,,,,,,,,,,,,,,,,l,1,1.8745,"[""0.479"",""0.340"",""0.634"",""0.677""]","[0,1,1,1]",0,26,26,26,1,1,1,,,0,FALSE,,,,,,,,,,,,,,,,,,,,,,,,,,,,,,
,613a7f3c88a2c0d8087b6a5c,001,2022-04-28_20h10.12.462,classification_task,2021.2.3,Win32,60.10699044,613a7f3c88a2c0d8087b6a5c,626b377229c10585ec392f89,626b3ab12f0aeed8afb3ff50,,,,,,,,,,,,,,,,,,,,,,,l,1,2.4513,"[""0.405"",""0.189"",""0.598"",""0.791""]","[0,1,1,1]",0,27,27,27,1,1,0,,,0,FALSE,,,,,,,,,,,,,,,,,,,,,,,,,,,,,,
,613a7f3c88a2c0d8087b6a5c,001,2022-04-28_20h10.12.462,classification_task,2021.2.3,Win32,60.10699044,613a7f3c88a2c0d8087b6a5c,626b377229c10585ec392f89,626b3ab12f0aeed8afb3ff50,,,,,,,,,,,,,,,,,,,,,,,a,1,2.1392,"[""0.249"",""0.549"",""0.859"",""0.713""]","[1,1,1,0]",0,28,28,28,1,0,0,,,0,FALSE,,,,,,,,,,,,,,,,,,,,,,,,,,,,,,
,613a7f3c88a2c0d8087b6a5c,001,2022-04-28_20h10.12.462,classification_task,2021.2.3,Win32,60.10699044,613a7f3c88a2c0d8087b6a5c,626b377229c10585ec392f89,626b3ab12f0aeed8afb3ff50,,,,,,,,,,,,,,,,,,,,,,,l,1,1.4331,"[""0.144"",""0.189"",""0.400"",""0.791""]","[1,1,0,1]",0,29,29,29,1,1,0,,,0,FALSE,,,,,,,,,,,,,,,,,,,,,,,,,,,,,,
,613a7f3c88a2c0d8087b6a5c,001,2022-04-28_20h10.12.462,classification_task,2021.2.3,Win32,60.10699044,613a7f3c88a2c0d8087b6a5c,626b377229c10585ec392f89,626b3ab12f0aeed8afb3ff50,,,,,,,,,,,,,,,,,,,,,,,l,1,0.9475,"[""0.056"",""0.340"",""0.634"",""0.733""]","[1,1,1,0]",0,30,30,30,1,1,1,,,0,FALSE,,,,,,,,,,,,,,,,,,,,,,,,,,,,,,
,613a7f3c88a2c0d8087b6a5c,001,2022-04-28_20h10.12.462,classification_task,2021.2.3,Win32,60.10699044,613a7f3c88a2c0d8087b6a5c,626b377229c10585ec392f89,626b3ab12f0aeed8afb3ff50,,,,,,,,,,,,,,,,,,,,,,,l,1,0.8478,"[""0.056"",""0.340"",""0.723"",""0.677""]","[1,1,0,1]",0,31,31,31,1,1,1,,,0,FALSE,,,,,,,,,,,,,,,,,,,,,,,,,,,,,,
,613a7f3c88a2c0d8087b6a5c,001,2022-04-28_20h10.12.462,classification_task,2021.2.3,Win32,60.10699044,613a7f3c88a2c0d8087b6a5c,626b377229c10585ec392f89,626b3ab12f0aeed8afb3ff50,,,,,,,,,,,,,,,,,,,,,,,a,1,0.8047,"[""0.249"",""0.549"",""0.405"",""0.968""]","[1,1,0,1]",0,32,32,32,1,0,0,,,0,FALSE,,,,,,,,,,,,,,,,,,,,,,,,,,,,,,
,613a7f3c88a2c0d8087b6a5c,001,2022-04-28_20h10.12.462,classification_task,2021.2.3,Win32,60.10699044,613a7f3c88a2c0d8087b6a5c,626b377229c10585ec392f89,626b3ab12f0aeed8afb3ff50,,,,,,,,,,,,,,,,,,,,,,,l,1,1.2721,"[""0.144"",""0.189"",""0.400"",""0.791""]","[1,1,0,1]",0,33,33,33,1,1,0,,,0,FALSE,,,,,,,,,,,,,,,,,,,,,,,,,,,,,,
,613a7f3c88a2c0d8087b6a5c,001,2022-04-28_20h10.12.462,classification_task,2021.2.3,Win32,60.10699044,613a7f3c88a2c0d8087b6a5c,626b377229c10585ec392f89,626b3ab12f0aeed8afb3ff50,,,,,,,,,,,,,,,,,,,,,,,l,1,1.9558,"[""0.056"",""0.721"",""0.634"",""0.677""]","[1,0,1,1]",0,34,34,34,1,1,1,,,0,FALSE,,,,,,,,,,,,,,,,,,,,,,,,,,,,,,
,613a7f3c88a2c0d8087b6a5c,001,2022-04-28_20h10.12.462,classification_task,2021.2.3,Win32,60.10699044,613a7f3c88a2c0d8087b6a5c,626b377229c10585ec392f89,626b3ab12f0aeed8afb3ff50,,,,,,,,,,,,,,,,,,,,,,,l,1,0.7592,"[""0.056"",""0.340"",""0.634"",""0.751""]","[1,1,1,0]",0,35,35,35,1,1,1,,,0,FALSE,,,,,,,,,,,,,,,,,,,,,,,,,,,,,,
,613a7f3c88a2c0d8087b6a5c,001,2022-04-28_20h10.12.462,classification_task,2021.2.3,Win32,60.10699044,613a7f3c88a2c0d8087b6a5c,626b377229c10585ec392f89,626b3ab12f0aeed8afb3ff50,,,,,,,,,,,,,,,,,,,,,,,a,1,0.6616,"[""0.713"",""0.514"",""0.893"",""0.931""]","[0,1,1,1]",0,36,36,36,1,0,1,,,0,FALSE,,,,,,,,,,,,,,,,,,,,,,,,,,,,,,
,613a7f3c88a2c0d8087b6a5c,001,2022-04-28_20h10.12.462,classification_task,2021.2.3,Win32,60.10699044,613a7f3c88a2c0d8087b6a5c,626b377229c10585ec392f89,626b3ab12f0aeed8afb3ff50,,,,,,,,,,,,,,,,,,,,,,,l,1,1.3132,"[""0.723"",""0.340"",""0.634"",""0.677""]","[0,1,1,1]",0,37,37,37,1,1,1,,,0,FALSE,,,,,,,,,,,,,,,,,,,,,,,,,,,,,,
,613a7f3c88a2c0d8087b6a5c,001,2022-04-28_20h10.12.462,classification_task,2021.2.3,Win32,60.10699044,613a7f3c88a2c0d8087b6a5c,626b377229c10585ec392f89,626b3ab12f0aeed8afb3ff50,,,,,,,,,,,,,,,,,,,,,,,a,0,1.3842,"[""0.713"",""0.189"",""0.598"",""0.791""]","[0,1,1,1]",0,38,38,38,1,1,0,,,0,FALSE,,,,,,,,,,,,,,,,,,,,,,,,,,,,,,
,613a7f3c88a2c0d8087b6a5c,001,2022-04-28_20h10.12.462,classification_task,2021.2.3,Win32,60.10699044,613a7f3c88a2c0d8087b6a5c,626b377229c10585ec392f89,626b3ab12f0aeed8afb3ff50,,,,,,,,,,,,,,,,,,,,,,,a,1,1.7796,"[""0.249"",""0.751"",""0.859"",""0.968""]","[1,0,1,1]",0,39,39,39,1,0,0,,,0,FALSE,,,,,,,,,,,,,,,,,,,,,,,,,,,,,,
,613a7f3c88a2c0d8087b6a5c,001,2022-04-28_20h10.12.462,classification_task,2021.2.3,Win32,60.10699044,613a7f3c88a2c0d8087b6a5c,626b377229c10585ec392f89,626b3ab12f0aeed8afb3ff50,,,,,,,,,,,,,,,,,,,,,,,a,1,0.9077,"[""0.733"",""0.549"",""0.859"",""0.968""]","[0,1,1,1]",0,40,40,40,1,0,0,,,0,FALSE,,,,,,,,,,,,,,,,,,,,,,,,,,,,,,
,613a7f3c88a2c0d8087b6a5c,001,2022-04-28_20h10.12.462,classification_task,2021.2.3,Win32,60.10699044,613a7f3c88a2c0d8087b6a5c,626b377229c10585ec392f89,626b3ab12f0aeed8afb3ff50,,,,,,,,,,,,,,,,,,,,,,,a,1,1.2286,"[""0.288"",""0.514"",""0.893"",""0.479""]","[1,1,1,0]",0,41,41,41,1,0,1,,,0,FALSE,,,,,,,,,,,,,,,,,,,,,,,,,,,,,,
,613a7f3c88a2c0d8087b6a5c,001,2022-04-28_20h10.12.462,classification_task,2021.2.3,Win32,60.10699044,613a7f3c88a2c0d8087b6a5c,626b377229c10585ec392f89,626b3ab12f0aeed8afb3ff50,,,,,,,,,,,,,,,,,,,,,,,a,1,0.6948,"[""0.288"",""0.514"",""0.479"",""0.931""]","[1,1,0,1]",0,42,42,42,1,0,1,,,0,FALSE,,,,,,,,,,,,,,,,,,,,,,,,,,,,,,
,613a7f3c88a2c0d8087b6a5c,001,2022-04-28_20h10.12.462,classification_task,2021.2.3,Win32,60.10699044,613a7f3c88a2c0d8087b6a5c,626b377229c10585ec392f89,626b3ab12f0aeed8afb3ff50,,,,,,,,,,,,,,,,,,,,,,,l,1,1.0594,"[""0.144"",""0.400"",""0.598"",""0.791""]","[1,0,1,1]",0,43,43,43,1,1,0,,,0,FALSE,,,,,,,,,,,,,,,,,,,,,,,,,,,,,,
,613a7f3c88a2c0d8087b6a5c,001,2022-04-28_20h10.12.462,classification_task,2021.2.3,Win32,60.10699044,613a7f3c88a2c0d8087b6a5c,626b377229c10585ec392f89,626b3ab12f0aeed8afb3ff50,,,,,,,,,,,,,,,,,,,,,,,l,1,0.7615,"[""0.056"",""0.340"",""0.723"",""0.677""]","[1,1,0,1]",0,44,44,44,1,1,1,,,0,FALSE,,,,,,,,,,,,,,,,,,,,,,,,,,,,,,
,613a7f3c88a2c0d8087b6a5c,001,2022-04-28_20h10.12.462,classification_task,2021.2.3,Win32,60.10699044,613a7f3c88a2c0d8087b6a5c,626b377229c10585ec392f89,626b3ab12f0aeed8afb3ff50,,,,,,,,,,,,,,,,,,,,,,,a,1,1.674,"[""0.249"",""0.549"",""0.859"",""0.379""]","[1,1,1,0]",0,45,45,45,1,0,0,,,0,FALSE,,,,,,,,,,,,,,,,,,,,,,,,,,,,,,
,613a7f3c88a2c0d8087b6a5c,001,2022-04-28_20h10.12.462,classification_task,2021.2.3,Win32,60.10699044,613a7f3c88a2c0d8087b6a5c,626b377229c10585ec392f89,626b3ab12f0aeed8afb3ff50,,,,,,,,,,,,,,,,,,,,,,,a,1,2.5518,"[""0.288"",""0.723"",""0.893"",""0.931""]","[1,0,1,1]",0,46,46,46,1,0,1,,,0,FALSE,,,,,,,,,,,,,,,,,,,,,,,,,,,,,,
,613a7f3c88a2c0d8087b6a5c,001,2022-04-28_20h10.12.462,classification_task,2021.2.3,Win32,60.10699044,613a7f3c88a2c0d8087b6a5c,626b377229c10585ec392f89,626b3ab12f0aeed8afb3ff50,,,,,,,,,,,,,,,,,,,,,,,l,1,0.8797,"[""0.144"",""0.189"",""0.598"",""0.733""]","[1,1,1,0]",0,47,47,47,1,1,0,,,0,FALSE,,,,,,,,,,,,,,,,,,,,,,,,,,,,,,
,613a7f3c88a2c0d8087b6a5c,001,2022-04-28_20h10.12.462,classification_task,2021.2.3,Win32,60.10699044,613a7f3c88a2c0d8087b6a5c,626b377229c10585ec392f89,626b3ab12f0aeed8afb3ff50,,,,,,,,,,,,,,,,,,,,,,,l,1,0.7376,"[""0.056"",""0.340"",""0.634"",""0.380""]","[1,1,1,0]",0,48,48,48,1,1,1,,,0,FALSE,,,,,,,,,,,,,,,,,,,,,,,,,,,,,,
,613a7f3c88a2c0d8087b6a5c,001,2022-04-28_20h10.12.462,classification_task,2021.2.3,Win32,60.10699044,613a7f3c88a2c0d8087b6a5c,626b377229c10585ec392f89,626b3ab12f0aeed8afb3ff50,,,,,,,,,,,,,,,,,,,,,,,l,1,0.5705,"[""0.056"",""0.430"",""0.634"",""0.677""]","[1,0,1,1]",0,49,49,49,1,1,1,,,0,FALSE,,,,,,,,,,,,,,,,,,,,,,,,,,,,,,
,613a7f3c88a2c0d8087b6a5c,001,2022-04-28_20h10.12.462,classification_task,2021.2.3,Win32,60.10699044,613a7f3c88a2c0d8087b6a5c,626b377229c10585ec392f89,626b3ab12f0aeed8afb3ff50,,,,,,,,,,,,,,,,,,,,,,,l,1,0.8712,"[""0.144"",""0.189"",""0.405"",""0.791""]","[1,1,0,1]",0,50,50,50,1,1,0,,,0,FALSE,,,,,,,,,,,,,,,,,,,,,,,,,,,,,,
,613a7f3c88a2c0d8087b6a5c,001,2022-04-28_20h10.12.462,classification_task,2021.2.3,Win32,60.10699044,613a7f3c88a2c0d8087b6a5c,626b377229c10585ec392f89,626b3ab12f0aeed8afb3ff50,,,,,,,,,,,,,,,,,,,,,,,a,0,0.952,"[""0.721"",""0.340"",""0.634"",""0.677""]","[0,1,1,1]",0,51,51,51,1,1,1,,,0,FALSE,,,,,,,,,,,,,,,,,,,,,,,,,,,,,,
,613a7f3c88a2c0d8087b6a5c,001,2022-04-28_20h10.12.462,classification_task,2021.2.3,Win32,60.10699044,613a7f3c88a2c0d8087b6a5c,626b377229c10585ec392f89,626b3ab12f0aeed8afb3ff50,,,,,,,,,,,,,,,,,,,,,,,a,1,2.7428,"[""0.713"",""0.514"",""0.893"",""0.931""]","[0,1,1,1]",0,52,52,52,1,0,1,,,0,FALSE,,,,,,,,,,,,,,,,,,,,,,,,,,,,,,
,613a7f3c88a2c0d8087b6a5c,001,2022-04-28_20h10.12.462,classification_task,2021.2.3,Win32,60.10699044,613a7f3c88a2c0d8087b6a5c,626b377229c10585ec392f89,626b3ab12f0aeed8afb3ff50,,,,,,,,,,,,,,,,,,,,,,,l,1,2.4964,"[""0.056"",""0.340"",""0.380"",""0.677""]","[1,1,0,1]",0,53,53,53,1,1,1,,,0,FALSE,,,,,,,,,,,,,,,,,,,,,,,,,,,,,,
,613a7f3c88a2c0d8087b6a5c,001,2022-04-28_20h10.12.462,classification_task,2021.2.3,Win32,60.10699044,613a7f3c88a2c0d8087b6a5c,626b377229c10585ec392f89,626b3ab12f0aeed8afb3ff50,,,,,,,,,,,,,,,,,,,,,,,a,1,0.8098,"[""0.288"",""0.514"",""0.893"",""0.467""]","[1,1,1,0]",0,54,54,54,1,0,1,,,0,FALSE,,,,,,,,,,,,,,,,,,,,,,,,,,,,,,
,613a7f3c88a2c0d8087b6a5c,001,2022-04-28_20h10.12.462,classification_task,2021.2.3,Win32,60.10699044,613a7f3c88a2c0d8087b6a5c,626b377229c10585ec392f89,626b3ab12f0aeed8afb3ff50,,,,,,,,,,,,,,,,,,,,,,,a,1,1.0242,"[""0.288"",""0.430"",""0.893"",""0.931""]","[1,0,1,1]",0,55,55,55,1,0,1,,,0,FALSE,,,,,,,,,,,,,,,,,,,,,,,,,,,,,,
,613a7f3c88a2c0d8087b6a5c,001,2022-04-28_20h10.12.462,classification_task,2021.2.3,Win32,60.10699044,613a7f3c88a2c0d8087b6a5c,626b377229c10585ec392f89,626b3ab12f0aeed8afb3ff50,,,,,,,,,,,,,,,,,,,,,,,l,1,0.6535,"[""0.144"",""0.189"",""0.598"",""0.400""]","[1,1,1,0]",0,56,56,56,1,1,0,,,0,FALSE,,,,,,,,,,,,,,,,,,,,,,,,,,,,,,
,613a7f3c88a2c0d8087b6a5c,001,2022-04-28_20h10.12.462,classification_task,2021.2.3,Win32,60.10699044,613a7f3c88a2c0d8087b6a5c,626b377229c10585ec392f89,626b3ab12f0aeed8afb3ff50,,,,,,,,,,,,,,,,,,,,,,,l,1,2.5046,"[""0.144"",""0.731"",""0.598"",""0.791""]","[1,0,1,1]",0,57,57,57,1,1,0,,,0,FALSE,,,,,,,,,,,,,,,,,,,,,,,,,,,,,,
,613a7f3c88a2c0d8087b6a5c,001,2022-04-28_20h10.12.462,classification_task,2021.2.3,Win32,60.10699044,613a7f3c88a2c0d8087b6a5c,626b377229c10585ec392f89,626b3ab12f0aeed8afb3ff50,,,,,,,,,,,,,,,,,,,,,,,a,1,0.6944,"[""0.249"",""0.415"",""0.859"",""0.968""]","[1,0,1,1]",0,58,58,58,1,0,0,,,0,FALSE,,,,,,,,,,,,,,,,,,,,,,,,,,,,,,
,613a7f3c88a2c0d8087b6a5c,001,2022-04-28_20h10.12.462,classification_task,2021.2.3,Win32,60.10699044,613a7f3c88a2c0d8087b6a5c,626b377229c10585ec392f89,626b3ab12f0aeed8afb3ff50,,,,,,,,,,,,,,,,,,,,,,,l,1,1.6873,"[""0.713"",""0.189"",""0.598"",""0.791""]","[0,1,1,1]",0,59,59,59,1,1,0,,,0,FALSE,,,,,,,,,,,,,,,,,,,,,,,,,,,,,,
,613a7f3c88a2c0d8087b6a5c,001,2022-04-28_20h10.12.462,classification_task,2021.2.3,Win32,60.10699044,613a7f3c88a2c0d8087b6a5c,626b377229c10585ec392f89,626b3ab12f0aeed8afb3ff50,,,,,,,,,,,,,,,,,,,,,,,a,1,1.0854,"[""0.288"",""0.514"",""0.400"",""0.931""]","[1,1,0,1]",0,60,60,60,1,0,1,,,0,FALSE,,,,,,,,,,,,,,,,,,,,,,,,,,,,,,
,613a7f3c88a2c0d8087b6a5c,001,2022-04-28_20h10.12.462,classification_task,2021.2.3,Win32,60.10699044,613a7f3c88a2c0d8087b6a5c,626b377229c10585ec392f89,626b3ab12f0aeed8afb3ff50,,,,,,,,,,,,,,,,,,,,,,,a,1,0.8528,"[""0.733"",""0.549"",""0.859"",""0.968""]","[0,1,1,1]",0,61,61,61,1,0,0,,,0,FALSE,,,,,,,,,,,,,,,,,,,,,,,,,,,,,,
,613a7f3c88a2c0d8087b6a5c,001,2022-04-28_20h10.12.462,classification_task,2021.2.3,Win32,60.10699044,613a7f3c88a2c0d8087b6a5c,626b377229c10585ec392f89,626b3ab12f0aeed8afb3ff50,,,,,,,,,,,,,,,,,,,,,,,l,0,1.4078,"[""0.249"",""0.549"",""0.859"",""0.415""]","[1,1,1,0]",0,62,62,62,1,0,0,,,0,FALSE,,,,,,,,,,,,,,,,,,,,,,,,,,,,,,
,613a7f3c88a2c0d8087b6a5c,001,2022-04-28_20h10.12.462,classification_task,2021.2.3,Win32,60.10699044,613a7f3c88a2c0d8087b6a5c,626b377229c10585ec392f89,626b3ab12f0aeed8afb3ff50,,,,,,,,,,,,,,,,,,,,,,,a,1,0.8831,"[""0.249"",""0.549"",""0.723"",""0.968""]","[1,1,0,1]",0,63,63,63,1,0,0,,,0,FALSE,,,,,,,,,,,,,,,,,,,,,,,,,,,,,,
,613a7f3c88a2c0d8087b6a5c,001,2022-04-28_20h10.12.462,classification_task,2021.2.3,Win32,60.10699044,613a7f3c88a2c0d8087b6a5c,626b377229c10585ec392f89,626b3ab12f0aeed8afb3ff50,,,,,,,,,,,,,,,,,,,,,,,,,,,,,,,,,,,,,,,0, ,,0,6.322751323,185.15,0,2,2,2,1,2,3,,,,,,,,,,,,,,,,,
,613a7f3c88a2c0d8087b6a5c,001,2022-04-28_20h10.12.462,classification_task,2021.2.3,Win32,60.10699044,613a7f3c88a2c0d8087b6a5c,626b377229c10585ec392f89,626b3ab12f0aeed8afb3ff50,,,,,,,,,,,,,,,,,,,,,,,,,,,,,,,,,,,,,,,1,  ,,0,3.412698413,188.9282,0,2,2,2,1,2,3,,,,,,,,,,,,,,,,,
,613a7f3c88a2c0d8087b6a5c,001,2022-04-28_20h10.12.462,classification_task,2021.2.3,Win32,60.10699044,613a7f3c88a2c0d8087b6a5c,626b377229c10585ec392f89,626b3ab12f0aeed8afb3ff50,,,,,,,,,,,,,,,,,,,,,,,,,,,,,,,,,,,,,,,2,  ,,0,1.119929453,192.4765,0,2,2,2,1,2,3,,,,,,,,,,,,,,,,,
,613a7f3c88a2c0d8087b6a5c,001,2022-04-28_20h10.12.462,classification_task,2021.2.3,Win32,60.10699044,613a7f3c88a2c0d8087b6a5c,626b377229c10585ec392f89,626b3ab12f0aeed8afb3ff50,,,,,,,,,,,,,,,,,,,,,,,,,,,,,,,,,,,,,,,,,,,,,0,2,2,2,1,,3,,,,,,,,,,,,,,,,,
,613a7f3c88a2c0d8087b6a5c,001,2022-04-28_20h10.12.462,classification_task,2021.2.3,Win32,60.10699044,613a7f3c88a2c0d8087b6a5c,626b377229c10585ec392f89,626b3ab12f0aeed8afb3ff50,,,,,,,,,,,,,,,,,,,,,,,,,,,,,,,,,,,,,,,,,,,,,,,,,,,,,I believe the aid is a competent performer,,0.7,0,5,902.0938,0,0,0,0,1,0,,,,
,613a7f3c88a2c0d8087b6a5c,001,2022-04-28_20h10.12.462,classification_task,2021.2.3,Win32,60.10699044,613a7f3c88a2c0d8087b6a5c,626b377229c10585ec392f89,626b3ab12f0aeed8afb3ff50,,,,,,,,,,,,,,,,,,,,,,,,,,,,,,,,,,,,,,,,,,,,,,,,,,,,,I trust the aid,,0.7,0,5,900.303,0,0,0,0,1,0,,,,
,613a7f3c88a2c0d8087b6a5c,001,2022-04-28_20h10.12.462,classification_task,2021.2.3,Win32,60.10699044,613a7f3c88a2c0d8087b6a5c,626b377229c10585ec392f89,626b3ab12f0aeed8afb3ff50,,,,,,,,,,,,,,,,,,,,,,,,,,,,,,,,,,,,,,,,,,,,,,,,,,,,,I have confidence in the advice given by the aid,,0.7,0,5,899.0339,0,0,0,0,1,0,,,,
,613a7f3c88a2c0d8087b6a5c,001,2022-04-28_20h10.12.462,classification_task,2021.2.3,Win32,60.10699044,613a7f3c88a2c0d8087b6a5c,626b377229c10585ec392f89,626b3ab12f0aeed8afb3ff50,,,,,,,,,,,,,,,,,,,,,,,,,,,,,,,,,,,,,,,,,,,,,,,,,,,,,I can depend on the aid,,0.7,0,5,904.1039,0,0,0,0,1,0,,,,
,613a7f3c88a2c0d8087b6a5c,001,2022-04-28_20h10.12.462,classification_task,2021.2.3,Win32,60.10699044,613a7f3c88a2c0d8087b6a5c,626b377229c10585ec392f89,626b3ab12f0aeed8afb3ff50,,,,,,,,,,,,,,,,,,,,,,,,,,,,,,,,,,,,,,,,,,,,,,,,,,,,,I can rely on the aid to behave in consistent ways,,0.7,0,5,907.6715,0,0,0,0,1,0,,,,
,613a7f3c88a2c0d8087b6a5c,001,2022-04-28_20h10.12.462,classification_task,2021.2.3,Win32,60.10699044,613a7f3c88a2c0d8087b6a5c,626b377229c10585ec392f89,626b3ab12f0aeed8afb3ff50,,,,,,,,,,,,,,,,,,,,,,,,,,,,,,,,,,,,,,,,,,,,,,,,,,,,,I can rely on the aid to do its best every time I take its advice,,0.7,0,4,911.6182,0,0,0,0,1,0,,,,
,613a7f3c88a2c0d8087b6a5c,001,2022-04-28_20h10.12.462,classification_task,2021.2.3,Win32,60.10699044,613a7f3c88a2c0d8087b6a5c,626b377229c10585ec392f89,626b3ab12f0aeed8afb3ff50,,,,,,,,,,,,,,,,,,,,,,,,,,,,,,,,,,,,,,,,,,,,,,,,,,,,,"On trials you completed with assistance from the aid, how frequently did you think the aid was correct?",,0.7,0,100,,0,0,0,0,1,0,,,,
,613a7f3c88a2c0d8087b6a5c,001,2022-04-28_20h10.12.462,classification_task,2021.2.3,Win32,60.10699044,613a7f3c88a2c0d8087b6a5c,626b377229c10585ec392f89,626b3ab12f0aeed8afb3ff50,,,,,,,,,,,,,,,,,,,,,,,,,,,,,,,,,,,,,,,,,,,,,,,,,,,,,"On trials you completed without the aid, how frequently did you think you were correct?",,0.7,0,50,,0,0,0,0,1,0,,,,
,613a7f3c88a2c0d8087b6a5c,001,2022-04-28_20h10.12.462,classification_task,2021.2.3,Win32,60.10699044,613a7f3c88a2c0d8087b6a5c,626b377229c10585ec392f89,626b3ab12f0aeed8afb3ff50,,,,,,,,,,,,,,,,,,,,,,,,,,,,,,,,,,,,,,,,,,,,,,,,,,,,,,,,,,,0,0,0,0,1,,,,,
,613a7f3c88a2c0d8087b6a5c,001,2022-04-28_20h10.12.462,classification_task,2021.2.3,Win32,60.10699044,613a7f3c88a2c0d8087b6a5c,626b377229c10585ec392f89,626b3ab12f0aeed8afb3ff50,,,,,,,,,,,,,,,,,,,,,,,,,,,,,,,,,,,,,,,,,,,,,,,,,,,,,,,,,,,,,,,,,space,14.4363,941.9279,
,613a7f3c88a2c0d8087b6a5c,001,2022-04-28_20h10.12.462,classification_task,2021.2.3,Win32,60.10699044,613a7f3c88a2c0d8087b6a5c,626b377229c10585ec392f89,626b3ab12f0aeed8afb3ff50,,,,,,,,,,,,,,,,,,,,,,,,,,,,,,,,,,,,,,,,,,,,,,,,,,,,,,,,,,,,,,,,,,,,"Mozilla/5.0 (Windows NT 10.0; Win64; x64) AppleWebKit/537.36 (KHTML, like Gecko) Chrome/100.0.4896.127 Safari/537.36"
