usingWebGL,participant,session,date,expName,psychopyVersion,OS,frameRate,PROLIFIC_PID,STUDY_ID,SESSION_ID,signatures_friend,signatures_foe,band_ranges_top,band_ranges_bottom,formitemText,formtype,formundefined,formitemWidth,formindex,formresponse,formrt,key_resp_2.keys,key_resp_2.rt,tute_resp.keys,tute_resp.rt,tutorial.thisRepN,tutorial.thisTrialN,tutorial.thisN,tutorial.thisIndex,tutorial.ran,key_resp_4.keys,key_resp_4.rt,key_resp.keys,key_resp.corr,lines_presented,is_signal_presented,trials.thisRepN,trials.thisTrialN,trials.thisN,trials.thisIndex,trials.ran,vessel,active_band,lines,is_signal,supported_pos,catch_trial,key_resp.rt,debrief_formindex,debrief_formitemText,debrief_formtype,debrief_formitemWidth,debrief_formresponse,debrief_formrt,phases.thisRepN,phases.thisTrialN,phases.thisN,phases.thisIndex,phases.ran,phases.order,phase,key_resp_3.keys,trustitemText,trusttype,trustitemWidth,trustindex,trustresponse,trustrt,support_status.thisRepN,support_status.thisTrialN,support_status.thisN,support_status.thisIndex,support_status.ran,support_status.order,key_resp_5.keys,key_resp_5.rt,globalClockTime,userAgent
TRUE,613aa7b98f3d94f2d830bbe7,001,2022-04-28_20h20.49,classification_task,2021.2.3,MacIntel,62.5,613aa7b98f3d94f2d830bbe7,626b377229c10585ec392f8a,626b3b4abe0ebced469cce43,,,,,,,,,,,,,,,,,,,,,,,,,,,,,,,,,,,,,,,,,,,,,,,,,,,,,,,,,,,,,,,,,,,,
,613aa7b98f3d94f2d830bbe7,001,2022-04-28_20h20.49,classification_task,2021.2.3,MacIntel,62.5,613aa7b98f3d94f2d830bbe7,626b377229c10585ec392f8a,626b3b4abe0ebced469cce43,"[[""0.225"",""0.365"",""0.862"",""0.902""],[""0.189"",""0.476"",""0.939"",""0.973""]]","[[""0.110"",""0.151"",""0.568"",""0.697""],[""0.064"",""0.291"",""0.622"",""0.757""]]","[1,10]","[100,1000]",Video game experience,,,0.7,0,,,,,,,,,,,,,,,,,,,,,,,,,,,,,,,,,,,,,,,,,,,,,,,,,,,,,,,,,,,
,613aa7b98f3d94f2d830bbe7,001,2022-04-28_20h20.49,classification_task,2021.2.3,MacIntel,62.5,613aa7b98f3d94f2d830bbe7,626b377229c10585ec392f8a,626b3b4abe0ebced469cce43,,,,,Approximately how many hours did you spend playing video games in the last week?,,,0.7,0,1,,,,,,,,,,,,,,,,,,,,,,,,,,,,,,,,,,,,,,,,,,,,,,,,,,,,,,,,,,
,613aa7b98f3d94f2d830bbe7,001,2022-04-28_20h20.49,classification_task,2021.2.3,MacIntel,62.5,613aa7b98f3d94f2d830bbe7,626b377229c10585ec392f8a,626b3b4abe0ebced469cce43,,,,,"Which game did you play the most this year? (Enter ""None"" if you didn't play any)",,,0.7,0,Hungry Shark,,,,,,,,,,,,,,,,,,,,,,,,,,,,,,,,,,,,,,,,,,,,,,,,,,,,,,,,,,
,613aa7b98f3d94f2d830bbe7,001,2022-04-28_20h20.49,classification_task,2021.2.3,MacIntel,62.5,613aa7b98f3d94f2d830bbe7,626b377229c10585ec392f8a,626b3b4abe0ebced469cce43,,,,,Visual perception,,,0.7,0,,,,,,,,,,,,,,,,,,,,,,,,,,,,,,,,,,,,,,,,,,,,,,,,,,,,,,,,,,,
,613aa7b98f3d94f2d830bbe7,001,2022-04-28_20h20.49,classification_task,2021.2.3,MacIntel,62.5,613aa7b98f3d94f2d830bbe7,626b377229c10585ec392f8a,626b3b4abe0ebced469cce43,,,,,Do you have any form of color blindness?,,,0.7,0,No,31.774,,,,,,,,,,,,,,,,,,,,,,,,,,,,,,,,,,,,,,,,,,,,,,,,,,,,,,,,,
,613aa7b98f3d94f2d830bbe7,001,2022-04-28_20h20.49,classification_task,2021.2.3,MacIntel,62.5,613aa7b98f3d94f2d830bbe7,626b377229c10585ec392f8a,626b3b4abe0ebced469cce43,,,,,Do you use software to change the colour temperature of your screen (e.g. f.lux)?,,,0.7,0,No,32.541,,,,,,,,,,,,,,,,,,,,,,,,,,,,,,,,,,,,,,,,,,,,,,,,,,,,,,,,,
,613aa7b98f3d94f2d830bbe7,001,2022-04-28_20h20.49,classification_task,2021.2.3,MacIntel,62.5,613aa7b98f3d94f2d830bbe7,626b377229c10585ec392f8a,626b3b4abe0ebced469cce43,,,,,,,,,,,,space,21.761,space,6.521,0,0,0,0,1,,,,,,,,,,,,,,,,,,,,,,,,,,,,,,,,,,,,,,,,,,,,,,,,
,613aa7b98f3d94f2d830bbe7,001,2022-04-28_20h20.49,classification_task,2021.2.3,MacIntel,62.5,613aa7b98f3d94f2d830bbe7,626b377229c10585ec392f8a,626b3b4abe0ebced469cce43,,,,,,,,,,,,,,space,9.804,1,0,1,0,1,,,,,,,,,,,,,,,,,,,,,,,,,,,,,,,,,,,,,,,,,,,,,,,,
,613aa7b98f3d94f2d830bbe7,001,2022-04-28_20h20.49,classification_task,2021.2.3,MacIntel,62.5,613aa7b98f3d94f2d830bbe7,626b377229c10585ec392f8a,626b3b4abe0ebced469cce43,,,,,,,,,,,,,,space,26.643,2,0,2,0,1,,,,,,,,,,,,,,,,,,,,,,,,,,,,,,,,,,,,,,,,,,,,,,,,
,613aa7b98f3d94f2d830bbe7,001,2022-04-28_20h20.49,classification_task,2021.2.3,MacIntel,62.5,613aa7b98f3d94f2d830bbe7,626b377229c10585ec392f8a,626b3b4abe0ebced469cce43,,,,,,,,,,,,,,space,4.862,3,0,3,0,1,,,,,,,,,,,,,,,,,,,,,,,,,,,,,,,,,,,,,,,,,,,,,,,,
,613aa7b98f3d94f2d830bbe7,001,2022-04-28_20h20.49,classification_task,2021.2.3,MacIntel,62.5,613aa7b98f3d94f2d830bbe7,626b377229c10585ec392f8a,626b3b4abe0ebced469cce43,,,,,,,,,,,,,,space,11.622,4,0,4,0,1,,,,,,,,,,,,,,,,,,,,,,,,,,,,,,,,,,,,,,,,,,,,,,,,
,613aa7b98f3d94f2d830bbe7,001,2022-04-28_20h20.49,classification_task,2021.2.3,MacIntel,62.5,613aa7b98f3d94f2d830bbe7,626b377229c10585ec392f8a,626b3b4abe0ebced469cce43,,,,,,,,,,,,,,,,,,,,,space,13.366,,0,"[""0.110"",""0.151"",""0.401"",""0.697""]","[1,1,0,1]",0,0,0,0,1,1,0,,,0,FALSE,,,,,,,,,,,,,,,,,,,,,,,,,,,,,,,
,613aa7b98f3d94f2d830bbe7,001,2022-04-28_20h20.49,classification_task,2021.2.3,MacIntel,62.5,613aa7b98f3d94f2d830bbe7,626b377229c10585ec392f8a,626b3b4abe0ebced469cce43,,,,,,,,,,,,,,,,,,,,,,,l,0,"[""0.225"",""0.365"",""0.427"",""0.902""]","[1,1,0,1]",0,1,1,1,1,0,0,,,0,FALSE,1.444,,,,,,,,,,,,,,,,,,,,,,,,,,,,,,
,613aa7b98f3d94f2d830bbe7,001,2022-04-28_20h20.49,classification_task,2021.2.3,MacIntel,62.5,613aa7b98f3d94f2d830bbe7,626b377229c10585ec392f8a,626b3b4abe0ebced469cce43,,,,,,,,,,,,,,,,,,,,,,,a,0,"[""0.110"",""0.510"",""0.568"",""0.697""]","[1,0,1,1]",0,2,2,2,1,1,0,,,0,FALSE,1.433,,,,,,,,,,,,,,,,,,,,,,,,,,,,,,
,613aa7b98f3d94f2d830bbe7,001,2022-04-28_20h20.49,classification_task,2021.2.3,MacIntel,62.5,613aa7b98f3d94f2d830bbe7,626b377229c10585ec392f8a,626b3b4abe0ebced469cce43,,,,,,,,,,,,,,,,,,,,,,,a,1,"[""0.821"",""0.365"",""0.862"",""0.902""]","[0,1,1,1]",0,3,3,3,1,0,0,,,0,FALSE,2.432,,,,,,,,,,,,,,,,,,,,,,,,,,,,,,
,613aa7b98f3d94f2d830bbe7,001,2022-04-28_20h20.49,classification_task,2021.2.3,MacIntel,62.5,613aa7b98f3d94f2d830bbe7,626b377229c10585ec392f8a,626b3b4abe0ebced469cce43,,,,,,,,,,,,,,,,,,,,,,,a,1,"[""0.189"",""0.476"",""0.663"",""0.973""]","[1,1,0,1]",0,4,4,4,1,0,1,,,0,FALSE,2.51,,,,,,,,,,,,,,,,,,,,,,,,,,,,,,
,613aa7b98f3d94f2d830bbe7,001,2022-04-28_20h20.49,classification_task,2021.2.3,MacIntel,62.5,613aa7b98f3d94f2d830bbe7,626b377229c10585ec392f8a,626b3b4abe0ebced469cce43,,,,,,,,,,,,,,,,,,,,,,,a,0,"[""0.514"",""0.291"",""0.622"",""0.757""]","[0,1,1,1]",0,5,5,5,1,1,1,,,0,FALSE,2.249,,,,,,,,,,,,,,,,,,,,,,,,,,,,,,
,613aa7b98f3d94f2d830bbe7,001,2022-04-28_20h20.49,classification_task,2021.2.3,MacIntel,62.5,613aa7b98f3d94f2d830bbe7,626b377229c10585ec392f8a,626b3b4abe0ebced469cce43,,,,,,,,,,,,,,,,,,,,,,,a,1,"[""0.189"",""0.826"",""0.939"",""0.973""]","[1,0,1,1]",0,6,6,6,1,0,1,,,0,FALSE,2.317,,,,,,,,,,,,,,,,,,,,,,,,,,,,,,
,613aa7b98f3d94f2d830bbe7,001,2022-04-28_20h20.49,classification_task,2021.2.3,MacIntel,62.5,613aa7b98f3d94f2d830bbe7,626b377229c10585ec392f8a,626b3b4abe0ebced469cce43,,,,,,,,,,,,,,,,,,,,,,,l,0,"[""0.822"",""0.476"",""0.939"",""0.973""]","[0,1,1,1]",0,7,7,7,1,0,1,,,0,FALSE,1.568,,,,,,,,,,,,,,,,,,,,,,,,,,,,,,
,613aa7b98f3d94f2d830bbe7,001,2022-04-28_20h20.49,classification_task,2021.2.3,MacIntel,62.5,613aa7b98f3d94f2d830bbe7,626b377229c10585ec392f8a,626b3b4abe0ebced469cce43,,,,,,,,,,,,,,,,,,,,,,,l,1,"[""0.064"",""0.291"",""0.622"",""0.425""]","[1,1,1,0]",0,8,8,8,1,1,1,,,0,FALSE,1.932,,,,,,,,,,,,,,,,,,,,,,,,,,,,,,
,613aa7b98f3d94f2d830bbe7,001,2022-04-28_20h20.49,classification_task,2021.2.3,MacIntel,62.5,613aa7b98f3d94f2d830bbe7,626b377229c10585ec392f8a,626b3b4abe0ebced469cce43,,,,,,,,,,,,,,,,,,,,,,,a,0,"[""0.110"",""0.151"",""0.568"",""0.514""]","[1,1,1,0]",0,9,9,9,1,1,0,,,0,FALSE,2.339,,,,,,,,,,,,,,,,,,,,,,,,,,,,,,
,613aa7b98f3d94f2d830bbe7,001,2022-04-28_20h20.49,classification_task,2021.2.3,MacIntel,62.5,613aa7b98f3d94f2d830bbe7,626b377229c10585ec392f8a,626b3b4abe0ebced469cce43,,,,,,,,,,,,,,,,,,,,,,,a,0,"[""0.822"",""0.151"",""0.568"",""0.697""]","[0,1,1,1]",0,10,10,10,1,1,0,,,0,FALSE,1.518,,,,,,,,,,,,,,,,,,,,,,,,,,,,,,
,613aa7b98f3d94f2d830bbe7,001,2022-04-28_20h20.49,classification_task,2021.2.3,MacIntel,62.5,613aa7b98f3d94f2d830bbe7,626b377229c10585ec392f8a,626b3b4abe0ebced469cce43,,,,,,,,,,,,,,,,,,,,,,,l,1,"[""0.064"",""0.659"",""0.622"",""0.757""]","[1,0,1,1]",0,11,11,11,1,1,1,,,0,FALSE,2.426,,,,,,,,,,,,,,,,,,,,,,,,,,,,,,
,613aa7b98f3d94f2d830bbe7,001,2022-04-28_20h20.49,classification_task,2021.2.3,MacIntel,62.5,613aa7b98f3d94f2d830bbe7,626b377229c10585ec392f8a,626b3b4abe0ebced469cce43,,,,,,,,,,,,,,,,,,,,,,,a,1,"[""0.189"",""0.476"",""0.939"",""0.510""]","[1,1,1,0]",0,12,12,12,1,0,1,,,0,FALSE,1.222,,,,,,,,,,,,,,,,,,,,,,,,,,,,,,
,613aa7b98f3d94f2d830bbe7,001,2022-04-28_20h20.49,classification_task,2021.2.3,MacIntel,62.5,613aa7b98f3d94f2d830bbe7,626b377229c10585ec392f8a,626b3b4abe0ebced469cce43,,,,,,,,,,,,,,,,,,,,,,,l,0,"[""0.225"",""0.425"",""0.862"",""0.902""]","[1,0,1,1]",0,13,13,13,1,0,0,,,0,FALSE,1.747,,,,,,,,,,,,,,,,,,,,,,,,,,,,,,
,613aa7b98f3d94f2d830bbe7,001,2022-04-28_20h20.49,classification_task,2021.2.3,MacIntel,62.5,613aa7b98f3d94f2d830bbe7,626b377229c10585ec392f8a,626b3b4abe0ebced469cce43,,,,,,,,,,,,,,,,,,,,,,,a,1,"[""0.225"",""0.365"",""0.862"",""0.826""]","[1,1,1,0]",0,14,14,14,1,0,0,,,0,FALSE,1.182,,,,,,,,,,,,,,,,,,,,,,,,,,,,,,
,613aa7b98f3d94f2d830bbe7,001,2022-04-28_20h20.49,classification_task,2021.2.3,MacIntel,62.5,613aa7b98f3d94f2d830bbe7,626b377229c10585ec392f8a,626b3b4abe0ebced469cce43,,,,,,,,,,,,,,,,,,,,,,,l,1,"[""0.064"",""0.291"",""0.425"",""0.757""]","[1,1,0,1]",0,15,15,15,1,1,1,,,0,FALSE,2.142,,,,,,,,,,,,,,,,,,,,,,,,,,,,,,
,613aa7b98f3d94f2d830bbe7,001,2022-04-28_20h20.49,classification_task,2021.2.3,MacIntel,62.5,613aa7b98f3d94f2d830bbe7,626b377229c10585ec392f8a,626b3b4abe0ebced469cce43,,,,,,,,,,,,,,,,,,,,,,,a,0,"[""0.425"",""0.151"",""0.568"",""0.697""]","[0,1,1,1]",0,16,16,16,1,1,0,,,0,FALSE,0.879,,,,,,,,,,,,,,,,,,,,,,,,,,,,,,
,613aa7b98f3d94f2d830bbe7,001,2022-04-28_20h20.49,classification_task,2021.2.3,MacIntel,62.5,613aa7b98f3d94f2d830bbe7,626b377229c10585ec392f8a,626b3b4abe0ebced469cce43,,,,,,,,,,,,,,,,,,,,,,,a,0,"[""0.110"",""0.663"",""0.568"",""0.697""]","[1,0,1,1]",0,17,17,17,1,1,0,,,0,FALSE,0.95,,,,,,,,,,,,,,,,,,,,,,,,,,,,,,
,613aa7b98f3d94f2d830bbe7,001,2022-04-28_20h20.49,classification_task,2021.2.3,MacIntel,62.5,613aa7b98f3d94f2d830bbe7,626b377229c10585ec392f8a,626b3b4abe0ebced469cce43,,,,,,,,,,,,,,,,,,,,,,,l,1,"[""0.064"",""0.291"",""0.622"",""0.531""]","[1,1,1,0]",0,18,18,18,1,1,1,,,0,FALSE,1.078,,,,,,,,,,,,,,,,,,,,,,,,,,,,,,
,613aa7b98f3d94f2d830bbe7,001,2022-04-28_20h20.49,classification_task,2021.2.3,MacIntel,62.5,613aa7b98f3d94f2d830bbe7,626b377229c10585ec392f8a,626b3b4abe0ebced469cce43,,,,,,,,,,,,,,,,,,,,,,,l,1,"[""0.064"",""0.826"",""0.622"",""0.757""]","[1,0,1,1]",0,19,19,19,1,1,1,,,0,FALSE,0.815,,,,,,,,,,,,,,,,,,,,,,,,,,,,,,
,613aa7b98f3d94f2d830bbe7,001,2022-04-28_20h20.49,classification_task,2021.2.3,MacIntel,62.5,613aa7b98f3d94f2d830bbe7,626b377229c10585ec392f8a,626b3b4abe0ebced469cce43,,,,,,,,,,,,,,,,,,,,,,,l,0,"[""0.225"",""0.365"",""0.425"",""0.902""]","[1,1,0,1]",0,20,20,20,1,0,0,,,0,FALSE,2.694,,,,,,,,,,,,,,,,,,,,,,,,,,,,,,
,613aa7b98f3d94f2d830bbe7,001,2022-04-28_20h20.49,classification_task,2021.2.3,MacIntel,62.5,613aa7b98f3d94f2d830bbe7,626b377229c10585ec392f8a,626b3b4abe0ebced469cce43,,,,,,,,,,,,,,,,,,,,,,,l,1,"[""0.522"",""0.291"",""0.622"",""0.757""]","[0,1,1,1]",0,21,21,21,1,1,1,,,0,FALSE,0.837,,,,,,,,,,,,,,,,,,,,,,,,,,,,,,
,613aa7b98f3d94f2d830bbe7,001,2022-04-28_20h20.49,classification_task,2021.2.3,MacIntel,62.5,613aa7b98f3d94f2d830bbe7,626b377229c10585ec392f8a,626b3b4abe0ebced469cce43,,,,,,,,,,,,,,,,,,,,,,,a,1,"[""0.225"",""0.365"",""0.862"",""0.821""]","[1,1,1,0]",0,22,22,22,1,0,0,,,0,FALSE,0.682,,,,,,,,,,,,,,,,,,,,,,,,,,,,,,
,613aa7b98f3d94f2d830bbe7,001,2022-04-28_20h20.49,classification_task,2021.2.3,MacIntel,62.5,613aa7b98f3d94f2d830bbe7,626b377229c10585ec392f8a,626b3b4abe0ebced469cce43,,,,,,,,,,,,,,,,,,,,,,,l,0,"[""0.401"",""0.365"",""0.862"",""0.902""]","[0,1,1,1]",0,23,23,23,1,0,0,,,0,FALSE,1.12,,,,,,,,,,,,,,,,,,,,,,,,,,,,,,
,613aa7b98f3d94f2d830bbe7,001,2022-04-28_20h20.49,classification_task,2021.2.3,MacIntel,62.5,613aa7b98f3d94f2d830bbe7,626b377229c10585ec392f8a,626b3b4abe0ebced469cce43,,,,,,,,,,,,,,,,,,,,,,,a,1,"[""0.189"",""0.476"",""0.401"",""0.973""]","[1,1,0,1]",0,24,24,24,1,0,1,,,0,FALSE,1.624,,,,,,,,,,,,,,,,,,,,,,,,,,,,,,
,613aa7b98f3d94f2d830bbe7,001,2022-04-28_20h20.49,classification_task,2021.2.3,MacIntel,62.5,613aa7b98f3d94f2d830bbe7,626b377229c10585ec392f8a,626b3b4abe0ebced469cce43,,,,,,,,,,,,,,,,,,,,,,,l,0,"[""0.189"",""0.427"",""0.939"",""0.973""]","[1,0,1,1]",0,25,25,25,1,0,1,,,0,FALSE,0.765,,,,,,,,,,,,,,,,,,,,,,,,,,,,,,
,613aa7b98f3d94f2d830bbe7,001,2022-04-28_20h20.49,classification_task,2021.2.3,MacIntel,62.5,613aa7b98f3d94f2d830bbe7,626b377229c10585ec392f8a,626b3b4abe0ebced469cce43,,,,,,,,,,,,,,,,,,,,,,,a,0,"[""0.110"",""0.151"",""0.568"",""0.659""]","[1,1,1,0]",0,26,26,26,1,1,0,,,0,FALSE,0.991,,,,,,,,,,,,,,,,,,,,,,,,,,,,,,
,613aa7b98f3d94f2d830bbe7,001,2022-04-28_20h20.49,classification_task,2021.2.3,MacIntel,62.5,613aa7b98f3d94f2d830bbe7,626b377229c10585ec392f8a,626b3b4abe0ebced469cce43,,,,,,,,,,,,,,,,,,,,,,,l,1,"[""0.110"",""0.151"",""0.522"",""0.697""]","[1,1,0,1]",0,27,27,27,1,1,0,,,0,FALSE,2.065,,,,,,,,,,,,,,,,,,,,,,,,,,,,,,
,613aa7b98f3d94f2d830bbe7,001,2022-04-28_20h20.49,classification_task,2021.2.3,MacIntel,62.5,613aa7b98f3d94f2d830bbe7,626b377229c10585ec392f8a,626b3b4abe0ebced469cce43,,,,,,,,,,,,,,,,,,,,,,,l,1,"[""0.064"",""0.291"",""0.514"",""0.757""]","[1,1,0,1]",0,28,28,28,1,1,1,,,0,FALSE,1.375,,,,,,,,,,,,,,,,,,,,,,,,,,,,,,
,613aa7b98f3d94f2d830bbe7,001,2022-04-28_20h20.49,classification_task,2021.2.3,MacIntel,62.5,613aa7b98f3d94f2d830bbe7,626b377229c10585ec392f8a,626b3b4abe0ebced469cce43,,,,,,,,,,,,,,,,,,,,,,,a,1,"[""0.189"",""0.476"",""0.939"",""0.531""]","[1,1,1,0]",0,29,29,29,1,0,1,,,0,FALSE,1.436,,,,,,,,,,,,,,,,,,,,,,,,,,,,,,
,613aa7b98f3d94f2d830bbe7,001,2022-04-28_20h20.49,classification_task,2021.2.3,MacIntel,62.5,613aa7b98f3d94f2d830bbe7,626b377229c10585ec392f8a,626b3b4abe0ebced469cce43,,,,,,,,,,,,,,,,,,,,,,,a,1,"[""0.522"",""0.476"",""0.939"",""0.973""]","[0,1,1,1]",0,30,30,30,1,0,1,,,0,FALSE,0.935,,,,,,,,,,,,,,,,,,,,,,,,,,,,,,
,613aa7b98f3d94f2d830bbe7,001,2022-04-28_20h20.49,classification_task,2021.2.3,MacIntel,62.5,613aa7b98f3d94f2d830bbe7,626b377229c10585ec392f8a,626b3b4abe0ebced469cce43,,,,,,,,,,,,,,,,,,,,,,,l,0,"[""0.225"",""0.822"",""0.862"",""0.902""]","[1,0,1,1]",0,31,31,31,1,0,0,,,0,FALSE,1.127,,,,,,,,,,,,,,,,,,,,,,,,,,,,,,
,613aa7b98f3d94f2d830bbe7,001,2022-04-28_20h20.49,classification_task,2021.2.3,MacIntel,62.5,613aa7b98f3d94f2d830bbe7,626b377229c10585ec392f8a,626b3b4abe0ebced469cce43,,,,,,,,,,,,,,,,,,,,,,,a,0,"[""0.110"",""0.663"",""0.568"",""0.697""]","[1,0,1,1]",0,32,32,32,1,1,0,,,0,FALSE,0.875,,,,,,,,,,,,,,,,,,,,,,,,,,,,,,
,613aa7b98f3d94f2d830bbe7,001,2022-04-28_20h20.49,classification_task,2021.2.3,MacIntel,62.5,613aa7b98f3d94f2d830bbe7,626b377229c10585ec392f8a,626b3b4abe0ebced469cce43,,,,,,,,,,,,,,,,,,,,,,,l,1,"[""0.659"",""0.151"",""0.568"",""0.697""]","[0,1,1,1]",0,33,33,33,1,1,0,,,0,FALSE,0.599,,,,,,,,,,,,,,,,,,,,,,,,,,,,,,
,613aa7b98f3d94f2d830bbe7,001,2022-04-28_20h20.49,classification_task,2021.2.3,MacIntel,62.5,613aa7b98f3d94f2d830bbe7,626b377229c10585ec392f8a,626b3b4abe0ebced469cce43,,,,,,,,,,,,,,,,,,,,,,,l,0,"[""0.225"",""0.365"",""0.655"",""0.902""]","[1,1,0,1]",0,34,34,34,1,0,0,,,0,FALSE,1.65,,,,,,,,,,,,,,,,,,,,,,,,,,,,,,
,613aa7b98f3d94f2d830bbe7,001,2022-04-28_20h20.49,classification_task,2021.2.3,MacIntel,62.5,613aa7b98f3d94f2d830bbe7,626b377229c10585ec392f8a,626b3b4abe0ebced469cce43,,,,,,,,,,,,,,,,,,,,,,,a,1,"[""0.225"",""0.416"",""0.862"",""0.902""]","[1,0,1,1]",0,35,35,35,1,0,0,,,0,FALSE,0.718,,,,,,,,,,,,,,,,,,,,,,,,,,,,,,
,613aa7b98f3d94f2d830bbe7,001,2022-04-28_20h20.49,classification_task,2021.2.3,MacIntel,62.5,613aa7b98f3d94f2d830bbe7,626b377229c10585ec392f8a,626b3b4abe0ebced469cce43,,,,,,,,,,,,,,,,,,,,,,,a,0,"[""0.110"",""0.151"",""0.822"",""0.697""]","[1,1,0,1]",0,36,36,36,1,1,0,,,0,FALSE,0.768,,,,,,,,,,,,,,,,,,,,,,,,,,,,,,
,613aa7b98f3d94f2d830bbe7,001,2022-04-28_20h20.49,classification_task,2021.2.3,MacIntel,62.5,613aa7b98f3d94f2d830bbe7,626b377229c10585ec392f8a,626b3b4abe0ebced469cce43,,,,,,,,,,,,,,,,,,,,,,,l,0,"[""0.401"",""0.476"",""0.939"",""0.973""]","[0,1,1,1]",0,37,37,37,1,0,1,,,0,FALSE,1.085,,,,,,,,,,,,,,,,,,,,,,,,,,,,,,
,613aa7b98f3d94f2d830bbe7,001,2022-04-28_20h20.49,classification_task,2021.2.3,MacIntel,62.5,613aa7b98f3d94f2d830bbe7,626b377229c10585ec392f8a,626b3b4abe0ebced469cce43,,,,,,,,,,,,,,,,,,,,,,,l,0,"[""0.189"",""0.659"",""0.939"",""0.973""]","[1,0,1,1]",0,38,38,38,1,0,1,,,0,FALSE,0.989,,,,,,,,,,,,,,,,,,,,,,,,,,,,,,
,613aa7b98f3d94f2d830bbe7,001,2022-04-28_20h20.49,classification_task,2021.2.3,MacIntel,62.5,613aa7b98f3d94f2d830bbe7,626b377229c10585ec392f8a,626b3b4abe0ebced469cce43,,,,,,,,,,,,,,,,,,,,,,,a,0,"[""0.514"",""0.291"",""0.622"",""0.757""]","[0,1,1,1]",0,39,39,39,1,1,1,,,0,FALSE,0.991,,,,,,,,,,,,,,,,,,,,,,,,,,,,,,
,613aa7b98f3d94f2d830bbe7,001,2022-04-28_20h20.49,classification_task,2021.2.3,MacIntel,62.5,613aa7b98f3d94f2d830bbe7,626b377229c10585ec392f8a,626b3b4abe0ebced469cce43,,,,,,,,,,,,,,,,,,,,,,,l,1,"[""0.064"",""0.291"",""0.522"",""0.757""]","[1,1,0,1]",0,40,40,40,1,1,1,,,0,FALSE,0.538,,,,,,,,,,,,,,,,,,,,,,,,,,,,,,
,613aa7b98f3d94f2d830bbe7,001,2022-04-28_20h20.49,classification_task,2021.2.3,MacIntel,62.5,613aa7b98f3d94f2d830bbe7,626b377229c10585ec392f8a,626b3b4abe0ebced469cce43,,,,,,,,,,,,,,,,,,,,,,,l,0,"[""0.189"",""0.476"",""0.939"",""0.822""]","[1,1,1,0]",0,41,41,41,1,0,1,,,0,FALSE,0.65,,,,,,,,,,,,,,,,,,,,,,,,,,,,,,
,613aa7b98f3d94f2d830bbe7,001,2022-04-28_20h20.49,classification_task,2021.2.3,MacIntel,62.5,613aa7b98f3d94f2d830bbe7,626b377229c10585ec392f8a,626b3b4abe0ebced469cce43,,,,,,,,,,,,,,,,,,,,,,,a,0,"[""0.064"",""0.401"",""0.622"",""0.757""]","[1,0,1,1]",0,42,42,42,1,1,1,,,0,FALSE,0.633,,,,,,,,,,,,,,,,,,,,,,,,,,,,,,
,613aa7b98f3d94f2d830bbe7,001,2022-04-28_20h20.49,classification_task,2021.2.3,MacIntel,62.5,613aa7b98f3d94f2d830bbe7,626b377229c10585ec392f8a,626b3b4abe0ebced469cce43,,,,,,,,,,,,,,,,,,,,,,,l,0,"[""0.792"",""0.365"",""0.862"",""0.902""]","[0,1,1,1]",0,43,43,43,1,0,0,,,0,FALSE,0.629,,,,,,,,,,,,,,,,,,,,,,,,,,,,,,
,613aa7b98f3d94f2d830bbe7,001,2022-04-28_20h20.49,classification_task,2021.2.3,MacIntel,62.5,613aa7b98f3d94f2d830bbe7,626b377229c10585ec392f8a,626b3b4abe0ebced469cce43,,,,,,,,,,,,,,,,,,,,,,,a,0,"[""0.110"",""0.151"",""0.568"",""0.821""]","[1,1,1,0]",0,44,44,44,1,1,0,,,0,FALSE,1.235,,,,,,,,,,,,,,,,,,,,,,,,,,,,,,
,613aa7b98f3d94f2d830bbe7,001,2022-04-28_20h20.49,classification_task,2021.2.3,MacIntel,62.5,613aa7b98f3d94f2d830bbe7,626b377229c10585ec392f8a,626b3b4abe0ebced469cce43,,,,,,,,,,,,,,,,,,,,,,,l,0,"[""0.225"",""0.365"",""0.862"",""0.821""]","[1,1,1,0]",0,45,45,45,1,0,0,,,0,FALSE,0.388,,,,,,,,,,,,,,,,,,,,,,,,,,,,,,
,613aa7b98f3d94f2d830bbe7,001,2022-04-28_20h20.49,classification_task,2021.2.3,MacIntel,62.5,613aa7b98f3d94f2d830bbe7,626b377229c10585ec392f8a,626b3b4abe0ebced469cce43,,,,,,,,,,,,,,,,,,,,,,,l,0,"[""0.189"",""0.476"",""0.522"",""0.973""]","[1,1,0,1]",0,46,46,46,1,0,1,,,0,FALSE,0.695,,,,,,,,,,,,,,,,,,,,,,,,,,,,,,
,613aa7b98f3d94f2d830bbe7,001,2022-04-28_20h20.49,classification_task,2021.2.3,MacIntel,62.5,613aa7b98f3d94f2d830bbe7,626b377229c10585ec392f8a,626b3b4abe0ebced469cce43,,,,,,,,,,,,,,,,,,,,,,,a,0,"[""0.064"",""0.291"",""0.622"",""0.663""]","[1,1,1,0]",0,47,47,47,1,1,1,,,0,FALSE,0.351,,,,,,,,,,,,,,,,,,,,,,,,,,,,,,
,613aa7b98f3d94f2d830bbe7,001,2022-04-28_20h20.49,classification_task,2021.2.3,MacIntel,62.5,613aa7b98f3d94f2d830bbe7,626b377229c10585ec392f8a,626b3b4abe0ebced469cce43,,,,,,,,,,,,,,,,,,,,,,,a,0,"[""0.110"",""0.151"",""0.531"",""0.697""]","[1,1,0,1]",0,48,48,48,1,1,0,,,0,FALSE,2.35,,,,,,,,,,,,,,,,,,,,,,,,,,,,,,
,613aa7b98f3d94f2d830bbe7,001,2022-04-28_20h20.49,classification_task,2021.2.3,MacIntel,62.5,613aa7b98f3d94f2d830bbe7,626b377229c10585ec392f8a,626b3b4abe0ebced469cce43,,,,,,,,,,,,,,,,,,,,,,,l,1,"[""0.655"",""0.151"",""0.568"",""0.697""]","[0,1,1,1]",0,49,49,49,1,1,0,,,0,FALSE,0.717,,,,,,,,,,,,,,,,,,,,,,,,,,,,,,
,613aa7b98f3d94f2d830bbe7,001,2022-04-28_20h20.49,classification_task,2021.2.3,MacIntel,62.5,613aa7b98f3d94f2d830bbe7,626b377229c10585ec392f8a,626b3b4abe0ebced469cce43,,,,,,,,,,,,,,,,,,,,,,,l,1,"[""0.110"",""0.826"",""0.568"",""0.697""]","[1,0,1,1]",0,50,50,50,1,1,0,,,0,FALSE,0.835,,,,,,,,,,,,,,,,,,,,,,,,,,,,,,
,613aa7b98f3d94f2d830bbe7,001,2022-04-28_20h20.49,classification_task,2021.2.3,MacIntel,62.5,613aa7b98f3d94f2d830bbe7,626b377229c10585ec392f8a,626b3b4abe0ebced469cce43,,,,,,,,,,,,,,,,,,,,,,,l,1,"[""0.064"",""0.822"",""0.622"",""0.757""]","[1,0,1,1]",0,51,51,51,1,1,1,,,0,FALSE,1.485,,,,,,,,,,,,,,,,,,,,,,,,,,,,,,
,613aa7b98f3d94f2d830bbe7,001,2022-04-28_20h20.49,classification_task,2021.2.3,MacIntel,62.5,613aa7b98f3d94f2d830bbe7,626b377229c10585ec392f8a,626b3b4abe0ebced469cce43,,,,,,,,,,,,,,,,,,,,,,,l,0,"[""0.189"",""0.476"",""0.522"",""0.973""]","[1,1,0,1]",0,52,52,52,1,0,1,,,0,FALSE,0.952,,,,,,,,,,,,,,,,,,,,,,,,,,,,,,
,613aa7b98f3d94f2d830bbe7,001,2022-04-28_20h20.49,classification_task,2021.2.3,MacIntel,62.5,613aa7b98f3d94f2d830bbe7,626b377229c10585ec392f8a,626b3b4abe0ebced469cce43,,,,,,,,,,,,,,,,,,,,,,,a,1,"[""0.225"",""0.821"",""0.862"",""0.902""]","[1,0,1,1]",0,53,53,53,1,0,0,,,0,FALSE,2.403,,,,,,,,,,,,,,,,,,,,,,,,,,,,,,
,613aa7b98f3d94f2d830bbe7,001,2022-04-28_20h20.49,classification_task,2021.2.3,MacIntel,62.5,613aa7b98f3d94f2d830bbe7,626b377229c10585ec392f8a,626b3b4abe0ebced469cce43,,,,,,,,,,,,,,,,,,,,,,,l,0,"[""0.189"",""0.476"",""0.939"",""0.510""]","[1,1,1,0]",0,54,54,54,1,0,1,,,0,FALSE,1.505,,,,,,,,,,,,,,,,,,,,,,,,,,,,,,
,613aa7b98f3d94f2d830bbe7,001,2022-04-28_20h20.49,classification_task,2021.2.3,MacIntel,62.5,613aa7b98f3d94f2d830bbe7,626b377229c10585ec392f8a,626b3b4abe0ebced469cce43,,,,,,,,,,,,,,,,,,,,,,,a,1,"[""0.189"",""0.821"",""0.939"",""0.973""]","[1,0,1,1]",0,55,55,55,1,0,1,,,0,FALSE,0.649,,,,,,,,,,,,,,,,,,,,,,,,,,,,,,
,613aa7b98f3d94f2d830bbe7,001,2022-04-28_20h20.49,classification_task,2021.2.3,MacIntel,62.5,613aa7b98f3d94f2d830bbe7,626b377229c10585ec392f8a,626b3b4abe0ebced469cce43,,,,,,,,,,,,,,,,,,,,,,,a,1,"[""0.225"",""0.365"",""0.522"",""0.902""]","[1,1,0,1]",0,56,56,56,1,0,0,,,0,FALSE,0.773,,,,,,,,,,,,,,,,,,,,,,,,,,,,,,
,613aa7b98f3d94f2d830bbe7,001,2022-04-28_20h20.49,classification_task,2021.2.3,MacIntel,62.5,613aa7b98f3d94f2d830bbe7,626b377229c10585ec392f8a,626b3b4abe0ebced469cce43,,,,,,,,,,,,,,,,,,,,,,,a,0,"[""0.064"",""0.291"",""0.622"",""0.821""]","[1,1,1,0]",0,57,57,57,1,1,1,,,0,FALSE,0.517,,,,,,,,,,,,,,,,,,,,,,,,,,,,,,
,613aa7b98f3d94f2d830bbe7,001,2022-04-28_20h20.49,classification_task,2021.2.3,MacIntel,62.5,613aa7b98f3d94f2d830bbe7,626b377229c10585ec392f8a,626b3b4abe0ebced469cce43,,,,,,,,,,,,,,,,,,,,,,,l,1,"[""0.110"",""0.151"",""0.568"",""0.401""]","[1,1,1,0]",0,58,58,58,1,1,0,,,0,FALSE,1.048,,,,,,,,,,,,,,,,,,,,,,,,,,,,,,
,613aa7b98f3d94f2d830bbe7,001,2022-04-28_20h20.49,classification_task,2021.2.3,MacIntel,62.5,613aa7b98f3d94f2d830bbe7,626b377229c10585ec392f8a,626b3b4abe0ebced469cce43,,,,,,,,,,,,,,,,,,,,,,,l,0,"[""0.225"",""0.365"",""0.862"",""0.826""]","[1,1,1,0]",0,59,59,59,1,0,0,,,0,FALSE,0.687,,,,,,,,,,,,,,,,,,,,,,,,,,,,,,
,613aa7b98f3d94f2d830bbe7,001,2022-04-28_20h20.49,classification_task,2021.2.3,MacIntel,62.5,613aa7b98f3d94f2d830bbe7,626b377229c10585ec392f8a,626b3b4abe0ebced469cce43,,,,,,,,,,,,,,,,,,,,,,,a,1,"[""0.826"",""0.476"",""0.939"",""0.973""]","[0,1,1,1]",0,60,60,60,1,0,1,,,0,FALSE,0.722,,,,,,,,,,,,,,,,,,,,,,,,,,,,,,
,613aa7b98f3d94f2d830bbe7,001,2022-04-28_20h20.49,classification_task,2021.2.3,MacIntel,62.5,613aa7b98f3d94f2d830bbe7,626b377229c10585ec392f8a,626b3b4abe0ebced469cce43,,,,,,,,,,,,,,,,,,,,,,,a,0,"[""0.663"",""0.291"",""0.622"",""0.757""]","[0,1,1,1]",0,61,61,61,1,1,1,,,0,FALSE,0.65,,,,,,,,,,,,,,,,,,,,,,,,,,,,,,
,613aa7b98f3d94f2d830bbe7,001,2022-04-28_20h20.49,classification_task,2021.2.3,MacIntel,62.5,613aa7b98f3d94f2d830bbe7,626b377229c10585ec392f8a,626b3b4abe0ebced469cce43,,,,,,,,,,,,,,,,,,,,,,,l,0,"[""0.425"",""0.365"",""0.862"",""0.902""]","[0,1,1,1]",0,62,62,62,1,0,0,,,0,FALSE,0.652,,,,,,,,,,,,,,,,,,,,,,,,,,,,,,
,613aa7b98f3d94f2d830bbe7,001,2022-04-28_20h20.49,classification_task,2021.2.3,MacIntel,62.5,613aa7b98f3d94f2d830bbe7,626b377229c10585ec392f8a,626b3b4abe0ebced469cce43,,,,,,,,,,,,,,,,,,,,,,,l,1,"[""0.064"",""0.291"",""0.821"",""0.757""]","[1,1,0,1]",0,63,63,63,1,1,1,,,0,FALSE,0.849,,,,,,,,,,,,,,,,,,,,,,,,,,,,,,
,613aa7b98f3d94f2d830bbe7,001,2022-04-28_20h20.49,classification_task,2021.2.3,MacIntel,62.5,613aa7b98f3d94f2d830bbe7,626b377229c10585ec392f8a,626b3b4abe0ebced469cce43,,,,,,,,,,,,,,,,,,,,,,,,,,,,,,,,,,,,,,,0, ,,0,9.736709499,302.849,0,0,0,0,1,2,1,,,,,,,,,,,,,,,,,
,613aa7b98f3d94f2d830bbe7,001,2022-04-28_20h20.49,classification_task,2021.2.3,MacIntel,62.5,613aa7b98f3d94f2d830bbe7,626b377229c10585ec392f8a,626b3b4abe0ebced469cce43,,,,,,,,,,,,,,,,,,,,,,,,,,,,,,,,,,,,,,,1,  ,,0,10,306.534,0,0,0,0,1,2,1,,,,,,,,,,,,,,,,,
,613aa7b98f3d94f2d830bbe7,001,2022-04-28_20h20.49,classification_task,2021.2.3,MacIntel,62.5,613aa7b98f3d94f2d830bbe7,626b377229c10585ec392f8a,626b3b4abe0ebced469cce43,,,,,,,,,,,,,,,,,,,,,,,,,,,,,,,,,,,,,,,2,  ,,0,7.847064752,313.564,0,0,0,0,1,2,1,,,,,,,,,,,,,,,,,
,613aa7b98f3d94f2d830bbe7,001,2022-04-28_20h20.49,classification_task,2021.2.3,MacIntel,62.5,613aa7b98f3d94f2d830bbe7,626b377229c10585ec392f8a,626b3b4abe0ebced469cce43,,,,,,,,,,,,,,,,,,,,,,,,,,,,,,,,,,,,,,,,,,,,,0,0,0,0,1,,1,,,,,,,,,,,,,,,,,
,613aa7b98f3d94f2d830bbe7,001,2022-04-28_20h20.49,classification_task,2021.2.3,MacIntel,62.5,613aa7b98f3d94f2d830bbe7,626b377229c10585ec392f8a,626b3b4abe0ebced469cce43,,,,,,,,,,,,,,,,,,,,,space,8.16,a,0,"[""0.522"",""0.151"",""0.568"",""0.697""]","[0,1,1,1]",0,0,0,0,1,1,0,,,0,FALSE,2.016,,,,,,,,,,,,,,,,,,,,,,,,,,,,,,
,613aa7b98f3d94f2d830bbe7,001,2022-04-28_20h20.49,classification_task,2021.2.3,MacIntel,62.5,613aa7b98f3d94f2d830bbe7,626b377229c10585ec392f8a,626b3b4abe0ebced469cce43,,,,,,,,,,,,,,,,,,,,,,,l,0,"[""0.225"",""0.365"",""0.862"",""0.821""]","[1,1,1,0]",0,1,1,1,1,0,0,,,0,FALSE,1.963,,,,,,,,,,,,,,,,,,,,,,,,,,,,,,
,613aa7b98f3d94f2d830bbe7,001,2022-04-28_20h20.49,classification_task,2021.2.3,MacIntel,62.5,613aa7b98f3d94f2d830bbe7,626b377229c10585ec392f8a,626b3b4abe0ebced469cce43,,,,,,,,,,,,,,,,,,,,,,,a,0,"[""0.110"",""0.151"",""0.568"",""0.399""]","[1,1,1,0]",0,2,2,2,1,1,0,,,0,FALSE,1.183,,,,,,,,,,,,,,,,,,,,,,,,,,,,,,
,613aa7b98f3d94f2d830bbe7,001,2022-04-28_20h20.49,classification_task,2021.2.3,MacIntel,62.5,613aa7b98f3d94f2d830bbe7,626b377229c10585ec392f8a,626b3b4abe0ebced469cce43,,,,,,,,,,,,,,,,,,,,,,,l,0,"[""0.189"",""0.476"",""0.939"",""0.399""]","[1,1,1,0]",0,3,3,3,1,0,1,,,0,FALSE,0.7,,,,,,,,,,,,,,,,,,,,,,,,,,,,,,
,613aa7b98f3d94f2d830bbe7,001,2022-04-28_20h20.49,classification_task,2021.2.3,MacIntel,62.5,613aa7b98f3d94f2d830bbe7,626b377229c10585ec392f8a,626b3b4abe0ebced469cce43,,,,,,,,,,,,,,,,,,,,,,,a,1,"[""0.792"",""0.365"",""0.862"",""0.902""]","[0,1,1,1]",0,4,4,4,1,0,0,,,0,FALSE,1.88,,,,,,,,,,,,,,,,,,,,,,,,,,,,,,
,613aa7b98f3d94f2d830bbe7,001,2022-04-28_20h20.49,classification_task,2021.2.3,MacIntel,62.5,613aa7b98f3d94f2d830bbe7,626b377229c10585ec392f8a,626b3b4abe0ebced469cce43,,,,,,,,,,,,,,,,,,,,,,,l,0,"[""0.399"",""0.476"",""0.939"",""0.973""]","[0,1,1,1]",0,5,5,5,1,0,1,,,0,FALSE,1.27,,,,,,,,,,,,,,,,,,,,,,,,,,,,,,
,613aa7b98f3d94f2d830bbe7,001,2022-04-28_20h20.49,classification_task,2021.2.3,MacIntel,62.5,613aa7b98f3d94f2d830bbe7,626b377229c10585ec392f8a,626b3b4abe0ebced469cce43,,,,,,,,,,,,,,,,,,,,,,,l,0,"[""0.189"",""0.476"",""0.821"",""0.973""]","[1,1,0,1]",0,6,6,6,1,0,1,,,0,FALSE,0.651,,,,,,,,,,,,,,,,,,,,,,,,,,,,,,
,613aa7b98f3d94f2d830bbe7,001,2022-04-28_20h20.49,classification_task,2021.2.3,MacIntel,62.5,613aa7b98f3d94f2d830bbe7,626b377229c10585ec392f8a,626b3b4abe0ebced469cce43,,,,,,,,,,,,,,,,,,,,,,,a,0,"[""0.064"",""0.291"",""0.622"",""0.655""]","[1,1,1,0]",0,7,7,7,1,1,1,,,0,FALSE,0.731,,,,,,,,,,,,,,,,,,,,,,,,,,,,,,
,613aa7b98f3d94f2d830bbe7,001,2022-04-28_20h20.49,classification_task,2021.2.3,MacIntel,62.5,613aa7b98f3d94f2d830bbe7,626b377229c10585ec392f8a,626b3b4abe0ebced469cce43,,,,,,,,,,,,,,,,,,,,,,,l,1,"[""0.110"",""0.821"",""0.568"",""0.697""]","[1,0,1,1]",0,8,8,8,1,1,0,,,0,FALSE,0.666,,,,,,,,,,,,,,,,,,,,,,,,,,,,,,
,613aa7b98f3d94f2d830bbe7,001,2022-04-28_20h20.49,classification_task,2021.2.3,MacIntel,62.5,613aa7b98f3d94f2d830bbe7,626b377229c10585ec392f8a,626b3b4abe0ebced469cce43,,,,,,,,,,,,,,,,,,,,,,,a,0,"[""0.064"",""0.401"",""0.622"",""0.757""]","[1,0,1,1]",0,9,9,9,1,1,1,,,0,FALSE,1.253,,,,,,,,,,,,,,,,,,,,,,,,,,,,,,
,613aa7b98f3d94f2d830bbe7,001,2022-04-28_20h20.49,classification_task,2021.2.3,MacIntel,62.5,613aa7b98f3d94f2d830bbe7,626b377229c10585ec392f8a,626b3b4abe0ebced469cce43,,,,,,,,,,,,,,,,,,,,,,,a,1,"[""0.189"",""0.655"",""0.939"",""0.973""]","[1,0,1,1]",0,10,10,10,1,0,1,,,0,FALSE,0.539,,,,,,,,,,,,,,,,,,,,,,,,,,,,,,
,613aa7b98f3d94f2d830bbe7,001,2022-04-28_20h20.49,classification_task,2021.2.3,MacIntel,62.5,613aa7b98f3d94f2d830bbe7,626b377229c10585ec392f8a,626b3b4abe0ebced469cce43,,,,,,,,,,,,,,,,,,,,,,,l,1,"[""0.064"",""0.291"",""0.792"",""0.757""]","[1,1,0,1]",0,11,11,11,1,1,1,,,0,FALSE,0.473,,,,,,,,,,,,,,,,,,,,,,,,,,,,,,
,613aa7b98f3d94f2d830bbe7,001,2022-04-28_20h20.49,classification_task,2021.2.3,MacIntel,62.5,613aa7b98f3d94f2d830bbe7,626b377229c10585ec392f8a,626b3b4abe0ebced469cce43,,,,,,,,,,,,,,,,,,,,,,,l,0,"[""0.225"",""0.522"",""0.862"",""0.902""]","[1,0,1,1]",0,12,12,12,1,0,0,,,0,FALSE,1.351,,,,,,,,,,,,,,,,,,,,,,,,,,,,,,
,613aa7b98f3d94f2d830bbe7,001,2022-04-28_20h20.49,classification_task,2021.2.3,MacIntel,62.5,613aa7b98f3d94f2d830bbe7,626b377229c10585ec392f8a,626b3b4abe0ebced469cce43,,,,,,,,,,,,,,,,,,,,,,,a,0,"[""0.110"",""0.151"",""0.821"",""0.697""]","[1,1,0,1]",0,13,13,13,1,1,0,,,0,FALSE,0.82,,,,,,,,,,,,,,,,,,,,,,,,,,,,,,
,613aa7b98f3d94f2d830bbe7,001,2022-04-28_20h20.49,classification_task,2021.2.3,MacIntel,62.5,613aa7b98f3d94f2d830bbe7,626b377229c10585ec392f8a,626b3b4abe0ebced469cce43,,,,,,,,,,,,,,,,,,,,,,,l,0,"[""0.225"",""0.365"",""0.655"",""0.902""]","[1,1,0,1]",0,14,14,14,1,0,0,,,0,FALSE,0.881,,,,,,,,,,,,,,,,,,,,,,,,,,,,,,
,613aa7b98f3d94f2d830bbe7,001,2022-04-28_20h20.49,classification_task,2021.2.3,MacIntel,62.5,613aa7b98f3d94f2d830bbe7,626b377229c10585ec392f8a,626b3b4abe0ebced469cce43,,,,,,,,,,,,,,,,,,,,,,,a,0,"[""0.821"",""0.291"",""0.622"",""0.757""]","[0,1,1,1]",0,15,15,15,1,1,1,,,0,FALSE,1.085,,,,,,,,,,,,,,,,,,,,,,,,,,,,,,
,613aa7b98f3d94f2d830bbe7,001,2022-04-28_20h20.49,classification_task,2021.2.3,MacIntel,62.5,613aa7b98f3d94f2d830bbe7,626b377229c10585ec392f8a,626b3b4abe0ebced469cce43,,,,,,,,,,,,,,,,,,,,,,,a,0,"[""0.110"",""0.151"",""0.514"",""0.697""]","[1,1,0,1]",0,16,16,16,1,1,0,,,0,FALSE,0.763,,,,,,,,,,,,,,,,,,,,,,,,,,,,,,
,613aa7b98f3d94f2d830bbe7,001,2022-04-28_20h20.49,classification_task,2021.2.3,MacIntel,62.5,613aa7b98f3d94f2d830bbe7,626b377229c10585ec392f8a,626b3b4abe0ebced469cce43,,,,,,,,,,,,,,,,,,,,,,,a,1,"[""0.225"",""0.821"",""0.862"",""0.902""]","[1,0,1,1]",0,17,17,17,1,0,0,,,0,FALSE,0.713,,,,,,,,,,,,,,,,,,,,,,,,,,,,,,
,613aa7b98f3d94f2d830bbe7,001,2022-04-28_20h20.49,classification_task,2021.2.3,MacIntel,62.5,613aa7b98f3d94f2d830bbe7,626b377229c10585ec392f8a,626b3b4abe0ebced469cce43,,,,,,,,,,,,,,,,,,,,,,,a,0,"[""0.110"",""0.151"",""0.568"",""0.401""]","[1,1,1,0]",0,18,18,18,1,1,0,,,0,FALSE,0.863,,,,,,,,,,,,,,,,,,,,,,,,,,,,,,
,613aa7b98f3d94f2d830bbe7,001,2022-04-28_20h20.49,classification_task,2021.2.3,MacIntel,62.5,613aa7b98f3d94f2d830bbe7,626b377229c10585ec392f8a,626b3b4abe0ebced469cce43,,,,,,,,,,,,,,,,,,,,,,,l,0,"[""0.189"",""0.476"",""0.663"",""0.973""]","[1,1,0,1]",0,19,19,19,1,0,1,,,0,FALSE,0.815,,,,,,,,,,,,,,,,,,,,,,,,,,,,,,
,613aa7b98f3d94f2d830bbe7,001,2022-04-28_20h20.49,classification_task,2021.2.3,MacIntel,62.5,613aa7b98f3d94f2d830bbe7,626b377229c10585ec392f8a,626b3b4abe0ebced469cce43,,,,,,,,,,,,,,,,,,,,,,,a,0,"[""0.425"",""0.291"",""0.622"",""0.757""]","[0,1,1,1]",0,20,20,20,1,1,1,,,0,FALSE,0.58,,,,,,,,,,,,,,,,,,,,,,,,,,,,,,
,613aa7b98f3d94f2d830bbe7,001,2022-04-28_20h20.49,classification_task,2021.2.3,MacIntel,62.5,613aa7b98f3d94f2d830bbe7,626b377229c10585ec392f8a,626b3b4abe0ebced469cce43,,,,,,,,,,,,,,,,,,,,,,,a,0,"[""0.514"",""0.151"",""0.568"",""0.697""]","[0,1,1,1]",0,21,21,21,1,1,0,,,0,FALSE,0.749,,,,,,,,,,,,,,,,,,,,,,,,,,,,,,
,613aa7b98f3d94f2d830bbe7,001,2022-04-28_20h20.49,classification_task,2021.2.3,MacIntel,62.5,613aa7b98f3d94f2d830bbe7,626b377229c10585ec392f8a,626b3b4abe0ebced469cce43,,,,,,,,,,,,,,,,,,,,,,,l,0,"[""0.826"",""0.476"",""0.939"",""0.973""]","[0,1,1,1]",0,22,22,22,1,0,1,,,0,FALSE,0.405,,,,,,,,,,,,,,,,,,,,,,,,,,,,,,
,613aa7b98f3d94f2d830bbe7,001,2022-04-28_20h20.49,classification_task,2021.2.3,MacIntel,62.5,613aa7b98f3d94f2d830bbe7,626b377229c10585ec392f8a,626b3b4abe0ebced469cce43,,,,,,,,,,,,,,,,,,,,,,,a,0,"[""0.064"",""0.291"",""0.622"",""0.663""]","[1,1,1,0]",0,23,23,23,1,1,1,,,0,FALSE,0.349,,,,,,,,,,,,,,,,,,,,,,,,,,,,,,
,613aa7b98f3d94f2d830bbe7,001,2022-04-28_20h20.49,classification_task,2021.2.3,MacIntel,62.5,613aa7b98f3d94f2d830bbe7,626b377229c10585ec392f8a,626b3b4abe0ebced469cce43,,,,,,,,,,,,,,,,,,,,,,,l,1,"[""0.064"",""0.659"",""0.622"",""0.757""]","[1,0,1,1]",0,24,24,24,1,1,1,,,0,FALSE,0.348,,,,,,,,,,,,,,,,,,,,,,,,,,,,,,
,613aa7b98f3d94f2d830bbe7,001,2022-04-28_20h20.49,classification_task,2021.2.3,MacIntel,62.5,613aa7b98f3d94f2d830bbe7,626b377229c10585ec392f8a,626b3b4abe0ebced469cce43,,,,,,,,,,,,,,,,,,,,,,,l,0,"[""0.189"",""0.792"",""0.939"",""0.973""]","[1,0,1,1]",0,25,25,25,1,0,1,,,0,FALSE,0.599,,,,,,,,,,,,,,,,,,,,,,,,,,,,,,
,613aa7b98f3d94f2d830bbe7,001,2022-04-28_20h20.49,classification_task,2021.2.3,MacIntel,62.5,613aa7b98f3d94f2d830bbe7,626b377229c10585ec392f8a,626b3b4abe0ebced469cce43,,,,,,,,,,,,,,,,,,,,,,,l,0,"[""0.427"",""0.365"",""0.862"",""0.902""]","[0,1,1,1]",0,26,26,26,1,0,0,,,0,FALSE,0.816,,,,,,,,,,,,,,,,,,,,,,,,,,,,,,
,613aa7b98f3d94f2d830bbe7,001,2022-04-28_20h20.49,classification_task,2021.2.3,MacIntel,62.5,613aa7b98f3d94f2d830bbe7,626b377229c10585ec392f8a,626b3b4abe0ebced469cce43,,,,,,,,,,,,,,,,,,,,,,,a,0,"[""0.064"",""0.291"",""0.425"",""0.757""]","[1,1,0,1]",0,27,27,27,1,1,1,,,0,FALSE,0.885,,,,,,,,,,,,,,,,,,,,,,,,,,,,,,
,613aa7b98f3d94f2d830bbe7,001,2022-04-28_20h20.49,classification_task,2021.2.3,MacIntel,62.5,613aa7b98f3d94f2d830bbe7,626b377229c10585ec392f8a,626b3b4abe0ebced469cce43,,,,,,,,,,,,,,,,,,,,,,,a,0,"[""0.110"",""0.510"",""0.568"",""0.697""]","[1,0,1,1]",0,28,28,28,1,1,0,,,0,FALSE,0.811,,,,,,,,,,,,,,,,,,,,,,,,,,,,,,
,613aa7b98f3d94f2d830bbe7,001,2022-04-28_20h20.49,classification_task,2021.2.3,MacIntel,62.5,613aa7b98f3d94f2d830bbe7,626b377229c10585ec392f8a,626b3b4abe0ebced469cce43,,,,,,,,,,,,,,,,,,,,,,,l,0,"[""0.189"",""0.476"",""0.939"",""0.659""]","[1,1,1,0]",0,29,29,29,1,0,1,,,0,FALSE,0.357,,,,,,,,,,,,,,,,,,,,,,,,,,,,,,
,613aa7b98f3d94f2d830bbe7,001,2022-04-28_20h20.49,classification_task,2021.2.3,MacIntel,62.5,613aa7b98f3d94f2d830bbe7,626b377229c10585ec392f8a,626b3b4abe0ebced469cce43,,,,,,,,,,,,,,,,,,,,,,,a,1,"[""0.225"",""0.365"",""0.399"",""0.902""]","[1,1,0,1]",0,30,30,30,1,0,0,,,0,FALSE,0.367,,,,,,,,,,,,,,,,,,,,,,,,,,,,,,
,613aa7b98f3d94f2d830bbe7,001,2022-04-28_20h20.49,classification_task,2021.2.3,MacIntel,62.5,613aa7b98f3d94f2d830bbe7,626b377229c10585ec392f8a,626b3b4abe0ebced469cce43,,,,,,,,,,,,,,,,,,,,,,,a,1,"[""0.225"",""0.365"",""0.862"",""0.510""]","[1,1,1,0]",0,31,31,31,1,0,0,,,0,FALSE,0.915,,,,,,,,,,,,,,,,,,,,,,,,,,,,,,
,613aa7b98f3d94f2d830bbe7,001,2022-04-28_20h20.49,classification_task,2021.2.3,MacIntel,62.5,613aa7b98f3d94f2d830bbe7,626b377229c10585ec392f8a,626b3b4abe0ebced469cce43,,,,,,,,,,,,,,,,,,,,,,,l,1,"[""0.064"",""0.659"",""0.622"",""0.757""]","[1,0,1,1]",0,32,32,32,1,1,1,,,0,FALSE,0.848,,,,,,,,,,,,,,,,,,,,,,,,,,,,,,
,613aa7b98f3d94f2d830bbe7,001,2022-04-28_20h20.49,classification_task,2021.2.3,MacIntel,62.5,613aa7b98f3d94f2d830bbe7,626b377229c10585ec392f8a,626b3b4abe0ebced469cce43,,,,,,,,,,,,,,,,,,,,,,,l,0,"[""0.189"",""0.427"",""0.939"",""0.973""]","[1,0,1,1]",0,33,33,33,1,0,1,,,0,FALSE,0.754,,,,,,,,,,,,,,,,,,,,,,,,,,,,,,
,613aa7b98f3d94f2d830bbe7,001,2022-04-28_20h20.49,classification_task,2021.2.3,MacIntel,62.5,613aa7b98f3d94f2d830bbe7,626b377229c10585ec392f8a,626b3b4abe0ebced469cce43,,,,,,,,,,,,,,,,,,,,,,,a,0,"[""0.826"",""0.151"",""0.568"",""0.697""]","[0,1,1,1]",0,34,34,34,1,1,0,,,0,FALSE,0.599,,,,,,,,,,,,,,,,,,,,,,,,,,,,,,
,613aa7b98f3d94f2d830bbe7,001,2022-04-28_20h20.49,classification_task,2021.2.3,MacIntel,62.5,613aa7b98f3d94f2d830bbe7,626b377229c10585ec392f8a,626b3b4abe0ebced469cce43,,,,,,,,,,,,,,,,,,,,,,,l,1,"[""0.110"",""0.151"",""0.568"",""0.822""]","[1,1,1,0]",0,35,35,35,1,1,0,,,0,FALSE,0.281,,,,,,,,,,,,,,,,,,,,,,,,,,,,,,
,613aa7b98f3d94f2d830bbe7,001,2022-04-28_20h20.49,classification_task,2021.2.3,MacIntel,62.5,613aa7b98f3d94f2d830bbe7,626b377229c10585ec392f8a,626b3b4abe0ebced469cce43,,,,,,,,,,,,,,,,,,,,,,,l,1,"[""0.110"",""0.151"",""0.826"",""0.697""]","[1,1,0,1]",0,36,36,36,1,1,0,,,0,FALSE,0.564,,,,,,,,,,,,,,,,,,,,,,,,,,,,,,
,613aa7b98f3d94f2d830bbe7,001,2022-04-28_20h20.49,classification_task,2021.2.3,MacIntel,62.5,613aa7b98f3d94f2d830bbe7,626b377229c10585ec392f8a,626b3b4abe0ebced469cce43,,,,,,,,,,,,,,,,,,,,,,,l,0,"[""0.225"",""0.365"",""0.862"",""0.822""]","[1,1,1,0]",0,37,37,37,1,0,0,,,0,FALSE,0.749,,,,,,,,,,,,,,,,,,,,,,,,,,,,,,
,613aa7b98f3d94f2d830bbe7,001,2022-04-28_20h20.49,classification_task,2021.2.3,MacIntel,62.5,613aa7b98f3d94f2d830bbe7,626b377229c10585ec392f8a,626b3b4abe0ebced469cce43,,,,,,,,,,,,,,,,,,,,,,,a,0,"[""0.064"",""0.291"",""0.622"",""0.427""]","[1,1,1,0]",0,38,38,38,1,1,1,,,0,FALSE,0.583,,,,,,,,,,,,,,,,,,,,,,,,,,,,,,
,613aa7b98f3d94f2d830bbe7,001,2022-04-28_20h20.49,classification_task,2021.2.3,MacIntel,62.5,613aa7b98f3d94f2d830bbe7,626b377229c10585ec392f8a,626b3b4abe0ebced469cce43,,,,,,,,,,,,,,,,,,,,,,,a,0,"[""0.522"",""0.291"",""0.622"",""0.757""]","[0,1,1,1]",0,39,39,39,1,1,1,,,0,FALSE,1.382,,,,,,,,,,,,,,,,,,,,,,,,,,,,,,
,613aa7b98f3d94f2d830bbe7,001,2022-04-28_20h20.49,classification_task,2021.2.3,MacIntel,62.5,613aa7b98f3d94f2d830bbe7,626b377229c10585ec392f8a,626b3b4abe0ebced469cce43,,,,,,,,,,,,,,,,,,,,,,,a,1,"[""0.189"",""0.476"",""0.939"",""0.416""]","[1,1,1,0]",0,40,40,40,1,0,1,,,0,FALSE,0.817,,,,,,,,,,,,,,,,,,,,,,,,,,,,,,
,613aa7b98f3d94f2d830bbe7,001,2022-04-28_20h20.49,classification_task,2021.2.3,MacIntel,62.5,613aa7b98f3d94f2d830bbe7,626b377229c10585ec392f8a,626b3b4abe0ebced469cce43,,,,,,,,,,,,,,,,,,,,,,,a,0,"[""0.110"",""0.822"",""0.568"",""0.697""]","[1,0,1,1]",0,41,41,41,1,1,0,,,0,FALSE,0.881,,,,,,,,,,,,,,,,,,,,,,,,,,,,,,
,613aa7b98f3d94f2d830bbe7,001,2022-04-28_20h20.49,classification_task,2021.2.3,MacIntel,62.5,613aa7b98f3d94f2d830bbe7,626b377229c10585ec392f8a,626b3b4abe0ebced469cce43,,,,,,,,,,,,,,,,,,,,,,,a,1,"[""0.225"",""0.365"",""0.514"",""0.902""]","[1,1,0,1]",0,42,42,42,1,0,0,,,0,FALSE,0.816,,,,,,,,,,,,,,,,,,,,,,,,,,,,,,
,613aa7b98f3d94f2d830bbe7,001,2022-04-28_20h20.49,classification_task,2021.2.3,MacIntel,62.5,613aa7b98f3d94f2d830bbe7,626b377229c10585ec392f8a,626b3b4abe0ebced469cce43,,,,,,,,,,,,,,,,,,,,,,,l,0,"[""0.189"",""0.476"",""0.425"",""0.973""]","[1,1,0,1]",0,43,43,43,1,0,1,,,0,FALSE,0.678,,,,,,,,,,,,,,,,,,,,,,,,,,,,,,
,613aa7b98f3d94f2d830bbe7,001,2022-04-28_20h20.49,classification_task,2021.2.3,MacIntel,62.5,613aa7b98f3d94f2d830bbe7,626b377229c10585ec392f8a,626b3b4abe0ebced469cce43,,,,,,,,,,,,,,,,,,,,,,,l,1,"[""0.064"",""0.291"",""0.531"",""0.757""]","[1,1,0,1]",0,44,44,44,1,1,1,,,0,FALSE,1.047,,,,,,,,,,,,,,,,,,,,,,,,,,,,,,
,613aa7b98f3d94f2d830bbe7,001,2022-04-28_20h20.49,classification_task,2021.2.3,MacIntel,62.5,613aa7b98f3d94f2d830bbe7,626b377229c10585ec392f8a,626b3b4abe0ebced469cce43,,,,,,,,,,,,,,,,,,,,,,,l,0,"[""0.659"",""0.476"",""0.939"",""0.973""]","[0,1,1,1]",0,45,45,45,1,0,1,,,0,FALSE,1.374,,,,,,,,,,,,,,,,,,,,,,,,,,,,,,
,613aa7b98f3d94f2d830bbe7,001,2022-04-28_20h20.49,classification_task,2021.2.3,MacIntel,62.5,613aa7b98f3d94f2d830bbe7,626b377229c10585ec392f8a,626b3b4abe0ebced469cce43,,,,,,,,,,,,,,,,,,,,,,,l,0,"[""0.522"",""0.365"",""0.862"",""0.902""]","[0,1,1,1]",0,46,46,46,1,0,0,,,0,FALSE,0.782,,,,,,,,,,,,,,,,,,,,,,,,,,,,,,
,613aa7b98f3d94f2d830bbe7,001,2022-04-28_20h20.49,classification_task,2021.2.3,MacIntel,62.5,613aa7b98f3d94f2d830bbe7,626b377229c10585ec392f8a,626b3b4abe0ebced469cce43,,,,,,,,,,,,,,,,,,,,,,,a,1,"[""0.225"",""0.522"",""0.862"",""0.902""]","[1,0,1,1]",0,47,47,47,1,0,0,,,0,FALSE,0.567,,,,,,,,,,,,,,,,,,,,,,,,,,,,,,
,613aa7b98f3d94f2d830bbe7,001,2022-04-28_20h20.49,classification_task,2021.2.3,MacIntel,62.5,613aa7b98f3d94f2d830bbe7,626b377229c10585ec392f8a,626b3b4abe0ebced469cce43,,,,,,,,,,,,,,,,,,,,,,,a,0,"[""0.399"",""0.291"",""0.622"",""0.757""]","[0,1,1,1]",0,48,48,48,1,1,1,,,0,FALSE,0.647,,,,,,,,,,,,,,,,,,,,,,,,,,,,,,
,613aa7b98f3d94f2d830bbe7,001,2022-04-28_20h20.49,classification_task,2021.2.3,MacIntel,62.5,613aa7b98f3d94f2d830bbe7,626b377229c10585ec392f8a,626b3b4abe0ebced469cce43,,,,,,,,,,,,,,,,,,,,,,,a,1,"[""0.792"",""0.365"",""0.862"",""0.902""]","[0,1,1,1]",0,49,49,49,1,0,0,,,0,FALSE,1.781,,,,,,,,,,,,,,,,,,,,,,,,,,,,,,
,613aa7b98f3d94f2d830bbe7,001,2022-04-28_20h20.49,classification_task,2021.2.3,MacIntel,62.5,613aa7b98f3d94f2d830bbe7,626b377229c10585ec392f8a,626b3b4abe0ebced469cce43,,,,,,,,,,,,,,,,,,,,,,,a,1,"[""0.225"",""0.365"",""0.862"",""0.427""]","[1,1,1,0]",0,50,50,50,1,0,0,,,0,FALSE,1.317,,,,,,,,,,,,,,,,,,,,,,,,,,,,,,
,613aa7b98f3d94f2d830bbe7,001,2022-04-28_20h20.49,classification_task,2021.2.3,MacIntel,62.5,613aa7b98f3d94f2d830bbe7,626b377229c10585ec392f8a,626b3b4abe0ebced469cce43,,,,,,,,,,,,,,,,,,,,,,,a,1,"[""0.225"",""0.365"",""0.401"",""0.902""]","[1,1,0,1]",0,51,51,51,1,0,0,,,0,FALSE,0.754,,,,,,,,,,,,,,,,,,,,,,,,,,,,,,
,613aa7b98f3d94f2d830bbe7,001,2022-04-28_20h20.49,classification_task,2021.2.3,MacIntel,62.5,613aa7b98f3d94f2d830bbe7,626b377229c10585ec392f8a,626b3b4abe0ebced469cce43,,,,,,,,,,,,,,,,,,,,,,,l,0,"[""0.225"",""0.659"",""0.862"",""0.902""]","[1,0,1,1]",0,52,52,52,1,0,0,,,0,FALSE,1.18,,,,,,,,,,,,,,,,,,,,,,,,,,,,,,
,613aa7b98f3d94f2d830bbe7,001,2022-04-28_20h20.49,classification_task,2021.2.3,MacIntel,62.5,613aa7b98f3d94f2d830bbe7,626b377229c10585ec392f8a,626b3b4abe0ebced469cce43,,,,,,,,,,,,,,,,,,,,,,,l,0,"[""0.189"",""0.476"",""0.939"",""0.663""]","[1,1,1,0]",0,53,53,53,1,0,1,,,0,FALSE,0.868,,,,,,,,,,,,,,,,,,,,,,,,,,,,,,
,613aa7b98f3d94f2d830bbe7,001,2022-04-28_20h20.49,classification_task,2021.2.3,MacIntel,62.5,613aa7b98f3d94f2d830bbe7,626b377229c10585ec392f8a,626b3b4abe0ebced469cce43,,,,,,,,,,,,,,,,,,,,,,,a,0,"[""0.510"",""0.151"",""0.568"",""0.697""]","[0,1,1,1]",0,54,54,54,1,1,0,,,0,FALSE,0.514,,,,,,,,,,,,,,,,,,,,,,,,,,,,,,
,613aa7b98f3d94f2d830bbe7,001,2022-04-28_20h20.49,classification_task,2021.2.3,MacIntel,62.5,613aa7b98f3d94f2d830bbe7,626b377229c10585ec392f8a,626b3b4abe0ebced469cce43,,,,,,,,,,,,,,,,,,,,,,,l,0,"[""0.189"",""0.476"",""0.663"",""0.973""]","[1,1,0,1]",0,55,55,55,1,0,1,,,0,FALSE,0.748,,,,,,,,,,,,,,,,,,,,,,,,,,,,,,
,613aa7b98f3d94f2d830bbe7,001,2022-04-28_20h20.49,classification_task,2021.2.3,MacIntel,62.5,613aa7b98f3d94f2d830bbe7,626b377229c10585ec392f8a,626b3b4abe0ebced469cce43,,,,,,,,,,,,,,,,,,,,,,,a,0,"[""0.064"",""0.291"",""0.416"",""0.757""]","[1,1,0,1]",0,56,56,56,1,1,1,,,0,FALSE,0.605,,,,,,,,,,,,,,,,,,,,,,,,,,,,,,
,613aa7b98f3d94f2d830bbe7,001,2022-04-28_20h20.49,classification_task,2021.2.3,MacIntel,62.5,613aa7b98f3d94f2d830bbe7,626b377229c10585ec392f8a,626b3b4abe0ebced469cce43,,,,,,,,,,,,,,,,,,,,,,,a,1,"[""0.189"",""0.399"",""0.939"",""0.973""]","[1,0,1,1]",0,57,57,57,1,0,1,,,0,FALSE,1.585,,,,,,,,,,,,,,,,,,,,,,,,,,,,,,
,613aa7b98f3d94f2d830bbe7,001,2022-04-28_20h20.49,classification_task,2021.2.3,MacIntel,62.5,613aa7b98f3d94f2d830bbe7,626b377229c10585ec392f8a,626b3b4abe0ebced469cce43,,,,,,,,,,,,,,,,,,,,,,,a,0,"[""0.064"",""0.821"",""0.622"",""0.757""]","[1,0,1,1]",0,58,58,58,1,1,1,,,0,FALSE,0.882,,,,,,,,,,,,,,,,,,,,,,,,,,,,,,
,613aa7b98f3d94f2d830bbe7,001,2022-04-28_20h20.49,classification_task,2021.2.3,MacIntel,62.5,613aa7b98f3d94f2d830bbe7,626b377229c10585ec392f8a,626b3b4abe0ebced469cce43,,,,,,,,,,,,,,,,,,,,,,,a,0,"[""0.110"",""0.151"",""0.568"",""0.514""]","[1,1,1,0]",0,59,59,59,1,1,0,,,0,FALSE,0.549,,,,,,,,,,,,,,,,,,,,,,,,,,,,,,
,613aa7b98f3d94f2d830bbe7,001,2022-04-28_20h20.49,classification_task,2021.2.3,MacIntel,62.5,613aa7b98f3d94f2d830bbe7,626b377229c10585ec392f8a,626b3b4abe0ebced469cce43,,,,,,,,,,,,,,,,,,,,,,,l,1,"[""0.110"",""0.151"",""0.826"",""0.697""]","[1,1,0,1]",0,60,60,60,1,1,0,,,0,FALSE,0.351,,,,,,,,,,,,,,,,,,,,,,,,,,,,,,
,613aa7b98f3d94f2d830bbe7,001,2022-04-28_20h20.49,classification_task,2021.2.3,MacIntel,62.5,613aa7b98f3d94f2d830bbe7,626b377229c10585ec392f8a,626b3b4abe0ebced469cce43,,,,,,,,,,,,,,,,,,,,,,,l,0,"[""0.821"",""0.476"",""0.939"",""0.973""]","[0,1,1,1]",0,61,61,61,1,0,1,,,0,FALSE,1.015,,,,,,,,,,,,,,,,,,,,,,,,,,,,,,
,613aa7b98f3d94f2d830bbe7,001,2022-04-28_20h20.49,classification_task,2021.2.3,MacIntel,62.5,613aa7b98f3d94f2d830bbe7,626b377229c10585ec392f8a,626b3b4abe0ebced469cce43,,,,,,,,,,,,,,,,,,,,,,,a,0,"[""0.064"",""0.291"",""0.622"",""0.822""]","[1,1,1,0]",0,62,62,62,1,1,1,,,0,FALSE,0.469,,,,,,,,,,,,,,,,,,,,,,,,,,,,,,
,613aa7b98f3d94f2d830bbe7,001,2022-04-28_20h20.49,classification_task,2021.2.3,MacIntel,62.5,613aa7b98f3d94f2d830bbe7,626b377229c10585ec392f8a,626b3b4abe0ebced469cce43,,,,,,,,,,,,,,,,,,,,,,,a,0,"[""0.110"",""0.659"",""0.568"",""0.697""]","[1,0,1,1]",0,63,63,63,1,1,0,,,0,FALSE,0.752,,,,,,,,,,,,,,,,,,,,,,,,,,,,,,
,613aa7b98f3d94f2d830bbe7,001,2022-04-28_20h20.49,classification_task,2021.2.3,MacIntel,62.5,613aa7b98f3d94f2d830bbe7,626b377229c10585ec392f8a,626b3b4abe0ebced469cce43,,,,,,,,,,,,,,,,,,,,,,,,,,,,,,,,,,,,,,,0, ,,0,6.562106324,155.127,0,1,1,1,1,2,2,,,,,,,,,,,,,,,,,
,613aa7b98f3d94f2d830bbe7,001,2022-04-28_20h20.49,classification_task,2021.2.3,MacIntel,62.5,613aa7b98f3d94f2d830bbe7,626b377229c10585ec392f8a,626b3b4abe0ebced469cce43,,,,,,,,,,,,,,,,,,,,,,,,,,,,,,,,,,,,,,,1,  ,,0,8.930461073,140.455,0,1,1,1,1,2,2,,,,,,,,,,,,,,,,,
,613aa7b98f3d94f2d830bbe7,001,2022-04-28_20h20.49,classification_task,2021.2.3,MacIntel,62.5,613aa7b98f3d94f2d830bbe7,626b377229c10585ec392f8a,626b3b4abe0ebced469cce43,,,,,,,,,,,,,,,,,,,,,,,,,,,,,,,,,,,,,,,2,  ,,0,9.560342656,142.724,0,1,1,1,1,2,2,,,,,,,,,,,,,,,,,
,613aa7b98f3d94f2d830bbe7,001,2022-04-28_20h20.49,classification_task,2021.2.3,MacIntel,62.5,613aa7b98f3d94f2d830bbe7,626b377229c10585ec392f8a,626b3b4abe0ebced469cce43,,,,,,,,,,,,,,,,,,,,,,,,,,,,,,,,,,,,,,,,,,,,,0,1,1,1,1,,2,,,,,,,,,,,,,,,,,
,613aa7b98f3d94f2d830bbe7,001,2022-04-28_20h20.49,classification_task,2021.2.3,MacIntel,62.5,613aa7b98f3d94f2d830bbe7,626b377229c10585ec392f8a,626b3b4abe0ebced469cce43,,,,,,,,,,,,,,,,,,,,,space,6.875,a,1,"[""0.189"",""0.514"",""0.939"",""0.973""]","[1,0,1,1]",0,0,0,0,1,0,1,,,0,FALSE,4.013,,,,,,,,,,,,,,,,,,,,,,,,,,,,,,
,613aa7b98f3d94f2d830bbe7,001,2022-04-28_20h20.49,classification_task,2021.2.3,MacIntel,62.5,613aa7b98f3d94f2d830bbe7,626b377229c10585ec392f8a,626b3b4abe0ebced469cce43,,,,,,,,,,,,,,,,,,,,,,,l,0,"[""0.225"",""0.365"",""0.862"",""0.655""]","[1,1,1,0]",0,1,1,1,1,0,0,,,0,FALSE,4.179,,,,,,,,,,,,,,,,,,,,,,,,,,,,,,
,613aa7b98f3d94f2d830bbe7,001,2022-04-28_20h20.49,classification_task,2021.2.3,MacIntel,62.5,613aa7b98f3d94f2d830bbe7,626b377229c10585ec392f8a,626b3b4abe0ebced469cce43,,,,,,,,,,,,,,,,,,,,,,,a,1,"[""0.189"",""0.476"",""0.425"",""0.973""]","[1,1,0,1]",0,2,2,2,1,0,1,,,0,FALSE,1.281,,,,,,,,,,,,,,,,,,,,,,,,,,,,,,
,613aa7b98f3d94f2d830bbe7,001,2022-04-28_20h20.49,classification_task,2021.2.3,MacIntel,62.5,613aa7b98f3d94f2d830bbe7,626b377229c10585ec392f8a,626b3b4abe0ebced469cce43,,,,,,,,,,,,,,,,,,,,,,,a,0,"[""0.110"",""0.151"",""0.568"",""0.655""]","[1,1,1,0]",0,3,3,3,1,1,0,,,0,FALSE,1.085,,,,,,,,,,,,,,,,,,,,,,,,,,,,,,
,613aa7b98f3d94f2d830bbe7,001,2022-04-28_20h20.49,classification_task,2021.2.3,MacIntel,62.5,613aa7b98f3d94f2d830bbe7,626b377229c10585ec392f8a,626b3b4abe0ebced469cce43,,,,,,,,,,,,,,,,,,,,,,,a,0,"[""0.110"",""0.425"",""0.568"",""0.697""]","[1,0,1,1]",0,4,4,4,1,1,0,,,0,FALSE,1.132,,,,,,,,,,,,,,,,,,,,,,,,,,,,,,
,613aa7b98f3d94f2d830bbe7,001,2022-04-28_20h20.49,classification_task,2021.2.3,MacIntel,62.5,613aa7b98f3d94f2d830bbe7,626b377229c10585ec392f8a,626b3b4abe0ebced469cce43,,,,,,,,,,,,,,,,,,,,,,,a,1,"[""0.225"",""0.365"",""0.663"",""0.902""]","[1,1,0,1]",0,5,5,5,1,0,0,,,0,FALSE,1.349,,,,,,,,,,,,,,,,,,,,,,,,,,,,,,
,613aa7b98f3d94f2d830bbe7,001,2022-04-28_20h20.49,classification_task,2021.2.3,MacIntel,62.5,613aa7b98f3d94f2d830bbe7,626b377229c10585ec392f8a,626b3b4abe0ebced469cce43,,,,,,,,,,,,,,,,,,,,,,,a,0,"[""0.110"",""0.151"",""0.822"",""0.697""]","[1,1,0,1]",0,6,6,6,1,1,0,,,0,FALSE,0.979,,,,,,,,,,,,,,,,,,,,,,,,,,,,,,
,613aa7b98f3d94f2d830bbe7,001,2022-04-28_20h20.49,classification_task,2021.2.3,MacIntel,62.5,613aa7b98f3d94f2d830bbe7,626b377229c10585ec392f8a,626b3b4abe0ebced469cce43,,,,,,,,,,,,,,,,,,,,,,,l,0,"[""0.225"",""0.659"",""0.862"",""0.902""]","[1,0,1,1]",0,7,7,7,1,0,0,,,0,FALSE,0.695,,,,,,,,,,,,,,,,,,,,,,,,,,,,,,
,613aa7b98f3d94f2d830bbe7,001,2022-04-28_20h20.49,classification_task,2021.2.3,MacIntel,62.5,613aa7b98f3d94f2d830bbe7,626b377229c10585ec392f8a,626b3b4abe0ebced469cce43,,,,,,,,,,,,,,,,,,,,,,,l,1,"[""0.064"",""0.291"",""0.622"",""0.821""]","[1,1,1,0]",0,8,8,8,1,1,1,,,0,FALSE,0.728,,,,,,,,,,,,,,,,,,,,,,,,,,,,,,
,613aa7b98f3d94f2d830bbe7,001,2022-04-28_20h20.49,classification_task,2021.2.3,MacIntel,62.5,613aa7b98f3d94f2d830bbe7,626b377229c10585ec392f8a,626b3b4abe0ebced469cce43,,,,,,,,,,,,,,,,,,,,,,,a,1,"[""0.792"",""0.476"",""0.939"",""0.973""]","[0,1,1,1]",0,9,9,9,1,0,1,,,0,FALSE,1.566,,,,,,,,,,,,,,,,,,,,,,,,,,,,,,
,613aa7b98f3d94f2d830bbe7,001,2022-04-28_20h20.49,classification_task,2021.2.3,MacIntel,62.5,613aa7b98f3d94f2d830bbe7,626b377229c10585ec392f8a,626b3b4abe0ebced469cce43,,,,,,,,,,,,,,,,,,,,,,,a,1,"[""0.189"",""0.476"",""0.939"",""0.425""]","[1,1,1,0]",0,10,10,10,1,0,1,,,0,FALSE,1.335,,,,,,,,,,,,,,,,,,,,,,,,,,,,,,
,613aa7b98f3d94f2d830bbe7,001,2022-04-28_20h20.49,classification_task,2021.2.3,MacIntel,62.5,613aa7b98f3d94f2d830bbe7,626b377229c10585ec392f8a,626b3b4abe0ebced469cce43,,,,,,,,,,,,,,,,,,,,,,,l,1,"[""0.399"",""0.151"",""0.568"",""0.697""]","[0,1,1,1]",0,11,11,11,1,1,0,,,0,FALSE,0.713,,,,,,,,,,,,,,,,,,,,,,,,,,,,,,
,613aa7b98f3d94f2d830bbe7,001,2022-04-28_20h20.49,classification_task,2021.2.3,MacIntel,62.5,613aa7b98f3d94f2d830bbe7,626b377229c10585ec392f8a,626b3b4abe0ebced469cce43,,,,,,,,,,,,,,,,,,,,,,,l,1,"[""0.425"",""0.291"",""0.622"",""0.757""]","[0,1,1,1]",0,12,12,12,1,1,1,,,0,FALSE,1.083,,,,,,,,,,,,,,,,,,,,,,,,,,,,,,
,613aa7b98f3d94f2d830bbe7,001,2022-04-28_20h20.49,classification_task,2021.2.3,MacIntel,62.5,613aa7b98f3d94f2d830bbe7,626b377229c10585ec392f8a,626b3b4abe0ebced469cce43,,,,,,,,,,,,,,,,,,,,,,,l,1,"[""0.064"",""0.291"",""0.399"",""0.757""]","[1,1,0,1]",0,13,13,13,1,1,1,,,0,FALSE,1.105,,,,,,,,,,,,,,,,,,,,,,,,,,,,,,
,613aa7b98f3d94f2d830bbe7,001,2022-04-28_20h20.49,classification_task,2021.2.3,MacIntel,62.5,613aa7b98f3d94f2d830bbe7,626b377229c10585ec392f8a,626b3b4abe0ebced469cce43,,,,,,,,,,,,,,,,,,,,,,,l,1,"[""0.064"",""0.416"",""0.622"",""0.757""]","[1,0,1,1]",0,14,14,14,1,1,1,,,0,FALSE,1.48,,,,,,,,,,,,,,,,,,,,,,,,,,,,,,
,613aa7b98f3d94f2d830bbe7,001,2022-04-28_20h20.49,classification_task,2021.2.3,MacIntel,62.5,613aa7b98f3d94f2d830bbe7,626b377229c10585ec392f8a,626b3b4abe0ebced469cce43,,,,,,,,,,,,,,,,,,,,,,,a,1,"[""0.522"",""0.365"",""0.862"",""0.902""]","[0,1,1,1]",0,15,15,15,1,0,0,,,0,FALSE,1.85,,,,,,,,,,,,,,,,,,,,,,,,,,,,,,
,613aa7b98f3d94f2d830bbe7,001,2022-04-28_20h20.49,classification_task,2021.2.3,MacIntel,62.5,613aa7b98f3d94f2d830bbe7,626b377229c10585ec392f8a,626b3b4abe0ebced469cce43,,,,,,,,,,,,,,,,,,,,,,,a,1,"[""0.189"",""0.476"",""0.939"",""0.826""]","[1,1,1,0]",0,16,16,16,1,0,1,,,0,FALSE,0.804,,,,,,,,,,,,,,,,,,,,,,,,,,,,,,
,613aa7b98f3d94f2d830bbe7,001,2022-04-28_20h20.49,classification_task,2021.2.3,MacIntel,62.5,613aa7b98f3d94f2d830bbe7,626b377229c10585ec392f8a,626b3b4abe0ebced469cce43,,,,,,,,,,,,,,,,,,,,,,,a,0,"[""0.064"",""0.655"",""0.622"",""0.757""]","[1,0,1,1]",0,17,17,17,1,1,1,,,0,FALSE,0.848,,,,,,,,,,,,,,,,,,,,,,,,,,,,,,
,613aa7b98f3d94f2d830bbe7,001,2022-04-28_20h20.49,classification_task,2021.2.3,MacIntel,62.5,613aa7b98f3d94f2d830bbe7,626b377229c10585ec392f8a,626b3b4abe0ebced469cce43,,,,,,,,,,,,,,,,,,,,,,,l,1,"[""0.110"",""0.151"",""0.401"",""0.697""]","[1,1,0,1]",0,18,18,18,1,1,0,,,0,FALSE,0.565,,,,,,,,,,,,,,,,,,,,,,,,,,,,,,
,613aa7b98f3d94f2d830bbe7,001,2022-04-28_20h20.49,classification_task,2021.2.3,MacIntel,62.5,613aa7b98f3d94f2d830bbe7,626b377229c10585ec392f8a,626b3b4abe0ebced469cce43,,,,,,,,,,,,,,,,,,,,,,,a,1,"[""0.225"",""0.365"",""0.862"",""0.401""]","[1,1,1,0]",0,19,19,19,1,0,0,,,0,FALSE,0.833,,,,,,,,,,,,,,,,,,,,,,,,,,,,,,
,613aa7b98f3d94f2d830bbe7,001,2022-04-28_20h20.49,classification_task,2021.2.3,MacIntel,62.5,613aa7b98f3d94f2d830bbe7,626b377229c10585ec392f8a,626b3b4abe0ebced469cce43,,,,,,,,,,,,,,,,,,,,,,,l,0,"[""0.189"",""0.476"",""0.531"",""0.973""]","[1,1,0,1]",0,20,20,20,1,0,1,,,0,FALSE,0.695,,,,,,,,,,,,,,,,,,,,,,,,,,,,,,
,613aa7b98f3d94f2d830bbe7,001,2022-04-28_20h20.49,classification_task,2021.2.3,MacIntel,62.5,613aa7b98f3d94f2d830bbe7,626b377229c10585ec392f8a,626b3b4abe0ebced469cce43,,,,,,,,,,,,,,,,,,,,,,,a,0,"[""0.064"",""0.291"",""0.399"",""0.757""]","[1,1,0,1]",0,21,21,21,1,1,1,,,0,FALSE,0.766,,,,,,,,,,,,,,,,,,,,,,,,,,,,,,
,613aa7b98f3d94f2d830bbe7,001,2022-04-28_20h20.49,classification_task,2021.2.3,MacIntel,62.5,613aa7b98f3d94f2d830bbe7,626b377229c10585ec392f8a,626b3b4abe0ebced469cce43,,,,,,,,,,,,,,,,,,,,,,,l,1,"[""0.110"",""0.401"",""0.568"",""0.697""]","[1,0,1,1]",0,22,22,22,1,1,0,,,0,FALSE,0.819,,,,,,,,,,,,,,,,,,,,,,,,,,,,,,
,613aa7b98f3d94f2d830bbe7,001,2022-04-28_20h20.49,classification_task,2021.2.3,MacIntel,62.5,613aa7b98f3d94f2d830bbe7,626b377229c10585ec392f8a,626b3b4abe0ebced469cce43,,,,,,,,,,,,,,,,,,,,,,,l,0,"[""0.425"",""0.365"",""0.862"",""0.902""]","[0,1,1,1]",0,23,23,23,1,0,0,,,0,FALSE,1.069,,,,,,,,,,,,,,,,,,,,,,,,,,,,,,
,613aa7b98f3d94f2d830bbe7,001,2022-04-28_20h20.49,classification_task,2021.2.3,MacIntel,62.5,613aa7b98f3d94f2d830bbe7,626b377229c10585ec392f8a,626b3b4abe0ebced469cce43,,,,,,,,,,,,,,,,,,,,,,,a,1,"[""0.225"",""0.365"",""0.416"",""0.902""]","[1,1,0,1]",0,24,24,24,1,0,0,,,0,FALSE,1.663,,,,,,,,,,,,,,,,,,,,,,,,,,,,,,
,613aa7b98f3d94f2d830bbe7,001,2022-04-28_20h20.49,classification_task,2021.2.3,MacIntel,62.5,613aa7b98f3d94f2d830bbe7,626b377229c10585ec392f8a,626b3b4abe0ebced469cce43,,,,,,,,,,,,,,,,,,,,,,,l,1,"[""0.522"",""0.291"",""0.622"",""0.757""]","[0,1,1,1]",0,25,25,25,1,1,1,,,0,FALSE,0.965,,,,,,,,,,,,,,,,,,,,,,,,,,,,,,
,613aa7b98f3d94f2d830bbe7,001,2022-04-28_20h20.49,classification_task,2021.2.3,MacIntel,62.5,613aa7b98f3d94f2d830bbe7,626b377229c10585ec392f8a,626b3b4abe0ebced469cce43,,,,,,,,,,,,,,,,,,,,,,,l,1,"[""0.826"",""0.151"",""0.568"",""0.697""]","[0,1,1,1]",0,26,26,26,1,1,0,,,0,FALSE,0.913,,,,,,,,,,,,,,,,,,,,,,,,,,,,,,
,613aa7b98f3d94f2d830bbe7,001,2022-04-28_20h20.49,classification_task,2021.2.3,MacIntel,62.5,613aa7b98f3d94f2d830bbe7,626b377229c10585ec392f8a,626b3b4abe0ebced469cce43,,,,,,,,,,,,,,,,,,,,,,,l,0,"[""0.531"",""0.476"",""0.939"",""0.973""]","[0,1,1,1]",0,27,27,27,1,0,1,,,0,FALSE,1.263,,,,,,,,,,,,,,,,,,,,,,,,,,,,,,
,613aa7b98f3d94f2d830bbe7,001,2022-04-28_20h20.49,classification_task,2021.2.3,MacIntel,62.5,613aa7b98f3d94f2d830bbe7,626b377229c10585ec392f8a,626b3b4abe0ebced469cce43,,,,,,,,,,,,,,,,,,,,,,,a,0,"[""0.064"",""0.291"",""0.622"",""0.826""]","[1,1,1,0]",0,28,28,28,1,1,1,,,0,FALSE,1.245,,,,,,,,,,,,,,,,,,,,,,,,,,,,,,
,613aa7b98f3d94f2d830bbe7,001,2022-04-28_20h20.49,classification_task,2021.2.3,MacIntel,62.5,613aa7b98f3d94f2d830bbe7,626b377229c10585ec392f8a,626b3b4abe0ebced469cce43,,,,,,,,,,,,,,,,,,,,,,,a,0,"[""0.110"",""0.151"",""0.568"",""0.822""]","[1,1,1,0]",0,29,29,29,1,1,0,,,0,FALSE,1.082,,,,,,,,,,,,,,,,,,,,,,,,,,,,,,
,613aa7b98f3d94f2d830bbe7,001,2022-04-28_20h20.49,classification_task,2021.2.3,MacIntel,62.5,613aa7b98f3d94f2d830bbe7,626b377229c10585ec392f8a,626b3b4abe0ebced469cce43,,,,,,,,,,,,,,,,,,,,,,,l,0,"[""0.189"",""0.522"",""0.939"",""0.973""]","[1,0,1,1]",0,30,30,30,1,0,1,,,0,FALSE,0.748,,,,,,,,,,,,,,,,,,,,,,,,,,,,,,
,613aa7b98f3d94f2d830bbe7,001,2022-04-28_20h20.49,classification_task,2021.2.3,MacIntel,62.5,613aa7b98f3d94f2d830bbe7,626b377229c10585ec392f8a,626b3b4abe0ebced469cce43,,,,,,,,,,,,,,,,,,,,,,,a,1,"[""0.225"",""0.821"",""0.862"",""0.902""]","[1,0,1,1]",0,31,31,31,1,0,0,,,0,FALSE,2.479,,,,,,,,,,,,,,,,,,,,,,,,,,,,,,
,613aa7b98f3d94f2d830bbe7,001,2022-04-28_20h20.49,classification_task,2021.2.3,MacIntel,62.5,613aa7b98f3d94f2d830bbe7,626b377229c10585ec392f8a,626b3b4abe0ebced469cce43,,,,,,,,,,,,,,,,,,,,,,,a,1,"[""0.225"",""0.365"",""0.655"",""0.902""]","[1,1,0,1]",0,32,32,32,1,0,0,,,0,FALSE,2.301,,,,,,,,,,,,,,,,,,,,,,,,,,,,,,
,613aa7b98f3d94f2d830bbe7,001,2022-04-28_20h20.49,classification_task,2021.2.3,MacIntel,62.5,613aa7b98f3d94f2d830bbe7,626b377229c10585ec392f8a,626b3b4abe0ebced469cce43,,,,,,,,,,,,,,,,,,,,,,,a,1,"[""0.522"",""0.365"",""0.862"",""0.902""]","[0,1,1,1]",0,33,33,33,1,0,0,,,0,FALSE,1.957,,,,,,,,,,,,,,,,,,,,,,,,,,,,,,
,613aa7b98f3d94f2d830bbe7,001,2022-04-28_20h20.49,classification_task,2021.2.3,MacIntel,62.5,613aa7b98f3d94f2d830bbe7,626b377229c10585ec392f8a,626b3b4abe0ebced469cce43,,,,,,,,,,,,,,,,,,,,,,,l,0,"[""0.416"",""0.476"",""0.939"",""0.973""]","[0,1,1,1]",0,34,34,34,1,0,1,,,0,FALSE,2.614,,,,,,,,,,,,,,,,,,,,,,,,,,,,,,
,613aa7b98f3d94f2d830bbe7,001,2022-04-28_20h20.49,classification_task,2021.2.3,MacIntel,62.5,613aa7b98f3d94f2d830bbe7,626b377229c10585ec392f8a,626b3b4abe0ebced469cce43,,,,,,,,,,,,,,,,,,,,,,,a,0,"[""0.110"",""0.151"",""0.663"",""0.697""]","[1,1,0,1]",0,35,35,35,1,1,0,,,0,FALSE,1.183,,,,,,,,,,,,,,,,,,,,,,,,,,,,,,
,613aa7b98f3d94f2d830bbe7,001,2022-04-28_20h20.49,classification_task,2021.2.3,MacIntel,62.5,613aa7b98f3d94f2d830bbe7,626b377229c10585ec392f8a,626b3b4abe0ebced469cce43,,,,,,,,,,,,,,,,,,,,,,,l,0,"[""0.225"",""0.365"",""0.862"",""0.401""]","[1,1,1,0]",0,36,36,36,1,0,0,,,0,FALSE,0.93,,,,,,,,,,,,,,,,,,,,,,,,,,,,,,
,613aa7b98f3d94f2d830bbe7,001,2022-04-28_20h20.49,classification_task,2021.2.3,MacIntel,62.5,613aa7b98f3d94f2d830bbe7,626b377229c10585ec392f8a,626b3b4abe0ebced469cce43,,,,,,,,,,,,,,,,,,,,,,,l,1,"[""0.064"",""0.291"",""0.622"",""0.427""]","[1,1,1,0]",0,37,37,37,1,1,1,,,0,FALSE,1.33,,,,,,,,,,,,,,,,,,,,,,,,,,,,,,
,613aa7b98f3d94f2d830bbe7,001,2022-04-28_20h20.49,classification_task,2021.2.3,MacIntel,62.5,613aa7b98f3d94f2d830bbe7,626b377229c10585ec392f8a,626b3b4abe0ebced469cce43,,,,,,,,,,,,,,,,,,,,,,,a,1,"[""0.189"",""0.476"",""0.514"",""0.973""]","[1,1,0,1]",0,38,38,38,1,0,1,,,0,FALSE,0.958,,,,,,,,,,,,,,,,,,,,,,,,,,,,,,
,613aa7b98f3d94f2d830bbe7,001,2022-04-28_20h20.49,classification_task,2021.2.3,MacIntel,62.5,613aa7b98f3d94f2d830bbe7,626b377229c10585ec392f8a,626b3b4abe0ebced469cce43,,,,,,,,,,,,,,,,,,,,,,,a,1,"[""0.189"",""0.821"",""0.939"",""0.973""]","[1,0,1,1]",0,39,39,39,1,0,1,,,0,FALSE,1.063,,,,,,,,,,,,,,,,,,,,,,,,,,,,,,
,613aa7b98f3d94f2d830bbe7,001,2022-04-28_20h20.49,classification_task,2021.2.3,MacIntel,62.5,613aa7b98f3d94f2d830bbe7,626b377229c10585ec392f8a,626b3b4abe0ebced469cce43,,,,,,,,,,,,,,,,,,,,,,,a,0,"[""0.110"",""0.655"",""0.568"",""0.697""]","[1,0,1,1]",0,40,40,40,1,1,0,,,0,FALSE,1.047,,,,,,,,,,,,,,,,,,,,,,,,,,,,,,
,613aa7b98f3d94f2d830bbe7,001,2022-04-28_20h20.49,classification_task,2021.2.3,MacIntel,62.5,613aa7b98f3d94f2d830bbe7,626b377229c10585ec392f8a,626b3b4abe0ebced469cce43,,,,,,,,,,,,,,,,,,,,,,,a,0,"[""0.110"",""0.151"",""0.568"",""0.821""]","[1,1,1,0]",0,41,41,41,1,1,0,,,0,FALSE,0.982,,,,,,,,,,,,,,,,,,,,,,,,,,,,,,
,613aa7b98f3d94f2d830bbe7,001,2022-04-28_20h20.49,classification_task,2021.2.3,MacIntel,62.5,613aa7b98f3d94f2d830bbe7,626b377229c10585ec392f8a,626b3b4abe0ebced469cce43,,,,,,,,,,,,,,,,,,,,,,,l,0,"[""0.225"",""0.427"",""0.862"",""0.902""]","[1,0,1,1]",0,42,42,42,1,0,0,,,0,FALSE,1.506,,,,,,,,,,,,,,,,,,,,,,,,,,,,,,
,613aa7b98f3d94f2d830bbe7,001,2022-04-28_20h20.49,classification_task,2021.2.3,MacIntel,62.5,613aa7b98f3d94f2d830bbe7,626b377229c10585ec392f8a,626b3b4abe0ebced469cce43,,,,,,,,,,,,,,,,,,,,,,,l,1,"[""0.399"",""0.151"",""0.568"",""0.697""]","[0,1,1,1]",0,43,43,43,1,1,0,,,0,FALSE,0.985,,,,,,,,,,,,,,,,,,,,,,,,,,,,,,
,613aa7b98f3d94f2d830bbe7,001,2022-04-28_20h20.49,classification_task,2021.2.3,MacIntel,62.5,613aa7b98f3d94f2d830bbe7,626b377229c10585ec392f8a,626b3b4abe0ebced469cce43,,,,,,,,,,,,,,,,,,,,,,,l,1,"[""0.064"",""0.291"",""0.821"",""0.757""]","[1,1,0,1]",0,44,44,44,1,1,1,,,0,FALSE,1.068,,,,,,,,,,,,,,,,,,,,,,,,,,,,,,
,613aa7b98f3d94f2d830bbe7,001,2022-04-28_20h20.49,classification_task,2021.2.3,MacIntel,62.5,613aa7b98f3d94f2d830bbe7,626b377229c10585ec392f8a,626b3b4abe0ebced469cce43,,,,,,,,,,,,,,,,,,,,,,,l,1,"[""0.401"",""0.291"",""0.622"",""0.757""]","[0,1,1,1]",0,45,45,45,1,1,1,,,0,FALSE,1.115,,,,,,,,,,,,,,,,,,,,,,,,,,,,,,
,613aa7b98f3d94f2d830bbe7,001,2022-04-28_20h20.49,classification_task,2021.2.3,MacIntel,62.5,613aa7b98f3d94f2d830bbe7,626b377229c10585ec392f8a,626b3b4abe0ebced469cce43,,,,,,,,,,,,,,,,,,,,,,,l,0,"[""0.189"",""0.476"",""0.939"",""0.792""]","[1,1,1,0]",0,46,46,46,1,0,1,,,0,FALSE,1.188,,,,,,,,,,,,,,,,,,,,,,,,,,,,,,
,613aa7b98f3d94f2d830bbe7,001,2022-04-28_20h20.49,classification_task,2021.2.3,MacIntel,62.5,613aa7b98f3d94f2d830bbe7,626b377229c10585ec392f8a,626b3b4abe0ebced469cce43,,,,,,,,,,,,,,,,,,,,,,,a,0,"[""0.064"",""0.659"",""0.622"",""0.757""]","[1,0,1,1]",0,47,47,47,1,1,1,,,0,FALSE,0.888,,,,,,,,,,,,,,,,,,,,,,,,,,,,,,
,613aa7b98f3d94f2d830bbe7,001,2022-04-28_20h20.49,classification_task,2021.2.3,MacIntel,62.5,613aa7b98f3d94f2d830bbe7,626b377229c10585ec392f8a,626b3b4abe0ebced469cce43,,,,,,,,,,,,,,,,,,,,,,,a,1,"[""0.514"",""0.365"",""0.862"",""0.902""]","[0,1,1,1]",0,48,48,48,1,0,0,,,0,FALSE,0.951,,,,,,,,,,,,,,,,,,,,,,,,,,,,,,
,613aa7b98f3d94f2d830bbe7,001,2022-04-28_20h20.49,classification_task,2021.2.3,MacIntel,62.5,613aa7b98f3d94f2d830bbe7,626b377229c10585ec392f8a,626b3b4abe0ebced469cce43,,,,,,,,,,,,,,,,,,,,,,,l,1,"[""0.110"",""0.826"",""0.568"",""0.697""]","[1,0,1,1]",0,49,49,49,1,1,0,,,0,FALSE,1.37,,,,,,,,,,,,,,,,,,,,,,,,,,,,,,
,613aa7b98f3d94f2d830bbe7,001,2022-04-28_20h20.49,classification_task,2021.2.3,MacIntel,62.5,613aa7b98f3d94f2d830bbe7,626b377229c10585ec392f8a,626b3b4abe0ebced469cce43,,,,,,,,,,,,,,,,,,,,,,,l,0,"[""0.225"",""0.365"",""0.655"",""0.902""]","[1,1,0,1]",0,50,50,50,1,0,0,,,0,FALSE,0.832,,,,,,,,,,,,,,,,,,,,,,,,,,,,,,
,613aa7b98f3d94f2d830bbe7,001,2022-04-28_20h20.49,classification_task,2021.2.3,MacIntel,62.5,613aa7b98f3d94f2d830bbe7,626b377229c10585ec392f8a,626b3b4abe0ebced469cce43,,,,,,,,,,,,,,,,,,,,,,,l,1,"[""0.064"",""0.291"",""0.622"",""0.416""]","[1,1,1,0]",0,51,51,51,1,1,1,,,0,FALSE,0.788,,,,,,,,,,,,,,,,,,,,,,,,,,,,,,
,613aa7b98f3d94f2d830bbe7,001,2022-04-28_20h20.49,classification_task,2021.2.3,MacIntel,62.5,613aa7b98f3d94f2d830bbe7,626b377229c10585ec392f8a,626b3b4abe0ebced469cce43,,,,,,,,,,,,,,,,,,,,,,,a,1,"[""0.427"",""0.476"",""0.939"",""0.973""]","[0,1,1,1]",0,52,52,52,1,0,1,,,0,FALSE,0.655,,,,,,,,,,,,,,,,,,,,,,,,,,,,,,
,613aa7b98f3d94f2d830bbe7,001,2022-04-28_20h20.49,classification_task,2021.2.3,MacIntel,62.5,613aa7b98f3d94f2d830bbe7,626b377229c10585ec392f8a,626b3b4abe0ebced469cce43,,,,,,,,,,,,,,,,,,,,,,,l,0,"[""0.189"",""0.476"",""0.514"",""0.973""]","[1,1,0,1]",0,53,53,53,1,0,1,,,0,FALSE,1.483,,,,,,,,,,,,,,,,,,,,,,,,,,,,,,
,613aa7b98f3d94f2d830bbe7,001,2022-04-28_20h20.49,classification_task,2021.2.3,MacIntel,62.5,613aa7b98f3d94f2d830bbe7,626b377229c10585ec392f8a,626b3b4abe0ebced469cce43,,,,,,,,,,,,,,,,,,,,,,,a,0,"[""0.531"",""0.151"",""0.568"",""0.697""]","[0,1,1,1]",0,54,54,54,1,1,0,,,0,FALSE,0.615,,,,,,,,,,,,,,,,,,,,,,,,,,,,,,
,613aa7b98f3d94f2d830bbe7,001,2022-04-28_20h20.49,classification_task,2021.2.3,MacIntel,62.5,613aa7b98f3d94f2d830bbe7,626b377229c10585ec392f8a,626b3b4abe0ebced469cce43,,,,,,,,,,,,,,,,,,,,,,,l,1,"[""0.110"",""0.151"",""0.792"",""0.697""]","[1,1,0,1]",0,55,55,55,1,1,0,,,0,FALSE,0.898,,,,,,,,,,,,,,,,,,,,,,,,,,,,,,
,613aa7b98f3d94f2d830bbe7,001,2022-04-28_20h20.49,classification_task,2021.2.3,MacIntel,62.5,613aa7b98f3d94f2d830bbe7,626b377229c10585ec392f8a,626b3b4abe0ebced469cce43,,,,,,,,,,,,,,,,,,,,,,,a,1,"[""0.189"",""0.531"",""0.939"",""0.973""]","[1,0,1,1]",0,56,56,56,1,0,1,,,0,FALSE,0.616,,,,,,,,,,,,,,,,,,,,,,,,,,,,,,
,613aa7b98f3d94f2d830bbe7,001,2022-04-28_20h20.49,classification_task,2021.2.3,MacIntel,62.5,613aa7b98f3d94f2d830bbe7,626b377229c10585ec392f8a,626b3b4abe0ebced469cce43,,,,,,,,,,,,,,,,,,,,,,,a,0,"[""0.427"",""0.291"",""0.622"",""0.757""]","[0,1,1,1]",0,57,57,57,1,1,1,,,0,FALSE,3.097,,,,,,,,,,,,,,,,,,,,,,,,,,,,,,
,613aa7b98f3d94f2d830bbe7,001,2022-04-28_20h20.49,classification_task,2021.2.3,MacIntel,62.5,613aa7b98f3d94f2d830bbe7,626b377229c10585ec392f8a,626b3b4abe0ebced469cce43,,,,,,,,,,,,,,,,,,,,,,,l,1,"[""0.064"",""0.659"",""0.622"",""0.757""]","[1,0,1,1]",0,58,58,58,1,1,1,,,0,FALSE,1.298,,,,,,,,,,,,,,,,,,,,,,,,,,,,,,
,613aa7b98f3d94f2d830bbe7,001,2022-04-28_20h20.49,classification_task,2021.2.3,MacIntel,62.5,613aa7b98f3d94f2d830bbe7,626b377229c10585ec392f8a,626b3b4abe0ebced469cce43,,,,,,,,,,,,,,,,,,,,,,,l,0,"[""0.225"",""0.514"",""0.862"",""0.902""]","[1,0,1,1]",0,59,59,59,1,0,0,,,0,FALSE,1.184,,,,,,,,,,,,,,,,,,,,,,,,,,,,,,
,613aa7b98f3d94f2d830bbe7,001,2022-04-28_20h20.49,classification_task,2021.2.3,MacIntel,62.5,613aa7b98f3d94f2d830bbe7,626b377229c10585ec392f8a,626b3b4abe0ebced469cce43,,,,,,,,,,,,,,,,,,,,,,,l,0,"[""0.225"",""0.365"",""0.862"",""0.826""]","[1,1,1,0]",0,60,60,60,1,0,0,,,0,FALSE,0.72,,,,,,,,,,,,,,,,,,,,,,,,,,,,,,
,613aa7b98f3d94f2d830bbe7,001,2022-04-28_20h20.49,classification_task,2021.2.3,MacIntel,62.5,613aa7b98f3d94f2d830bbe7,626b377229c10585ec392f8a,626b3b4abe0ebced469cce43,,,,,,,,,,,,,,,,,,,,,,,a,1,"[""0.189"",""0.476"",""0.939"",""0.826""]","[1,1,1,0]",0,61,61,61,1,0,1,,,0,FALSE,0.849,,,,,,,,,,,,,,,,,,,,,,,,,,,,,,
,613aa7b98f3d94f2d830bbe7,001,2022-04-28_20h20.49,classification_task,2021.2.3,MacIntel,62.5,613aa7b98f3d94f2d830bbe7,626b377229c10585ec392f8a,626b3b4abe0ebced469cce43,,,,,,,,,,,,,,,,,,,,,,,l,1,"[""0.064"",""0.291"",""0.531"",""0.757""]","[1,1,0,1]",0,62,62,62,1,1,1,,,0,FALSE,0.986,,,,,,,,,,,,,,,,,,,,,,,,,,,,,,
,613aa7b98f3d94f2d830bbe7,001,2022-04-28_20h20.49,classification_task,2021.2.3,MacIntel,62.5,613aa7b98f3d94f2d830bbe7,626b377229c10585ec392f8a,626b3b4abe0ebced469cce43,,,,,,,,,,,,,,,,,,,,,,,a,0,"[""0.110"",""0.151"",""0.568"",""0.531""]","[1,1,1,0]",0,63,63,63,1,1,0,,,0,FALSE,0.728,,,,,,,,,,,,,,,,,,,,,,,,,,,,,,
,613aa7b98f3d94f2d830bbe7,001,2022-04-28_20h20.49,classification_task,2021.2.3,MacIntel,62.5,613aa7b98f3d94f2d830bbe7,626b377229c10585ec392f8a,626b3b4abe0ebced469cce43,,,,,,,,,,,,,,,,,,,,,,,,,,,,,,,,,,,,,,,0, ,,0,7.14159738,167.939,0,2,2,2,1,2,3,,,,,,,,,,,,,,,,,
,613aa7b98f3d94f2d830bbe7,001,2022-04-28_20h20.49,classification_task,2021.2.3,MacIntel,62.5,613aa7b98f3d94f2d830bbe7,626b377229c10585ec392f8a,626b3b4abe0ebced469cce43,,,,,,,,,,,,,,,,,,,,,,,,,,,,,,,,,,,,,,,1,  ,,0,10,156.924,0,2,2,2,1,2,3,,,,,,,,,,,,,,,,,
,613aa7b98f3d94f2d830bbe7,001,2022-04-28_20h20.49,classification_task,2021.2.3,MacIntel,62.5,613aa7b98f3d94f2d830bbe7,626b377229c10585ec392f8a,626b3b4abe0ebced469cce43,,,,,,,,,,,,,,,,,,,,,,,,,,,,,,,,,,,,,,,2,  ,,0,10,158.212,0,2,2,2,1,2,3,,,,,,,,,,,,,,,,,
,613aa7b98f3d94f2d830bbe7,001,2022-04-28_20h20.49,classification_task,2021.2.3,MacIntel,62.5,613aa7b98f3d94f2d830bbe7,626b377229c10585ec392f8a,626b3b4abe0ebced469cce43,,,,,,,,,,,,,,,,,,,,,,,,,,,,,,,,,,,,,,,,,,,,,0,2,2,2,1,,3,,,,,,,,,,,,,,,,,
,613aa7b98f3d94f2d830bbe7,001,2022-04-28_20h20.49,classification_task,2021.2.3,MacIntel,62.5,613aa7b98f3d94f2d830bbe7,626b377229c10585ec392f8a,626b3b4abe0ebced469cce43,,,,,,,,,,,,,,,,,,,,,,,,,,,,,,,,,,,,,,,,,,,,,,,,,,,,,I believe the aid is a competent performer,,0.7,0,1,889.303,0,0,0,0,1,0,,,,
,613aa7b98f3d94f2d830bbe7,001,2022-04-28_20h20.49,classification_task,2021.2.3,MacIntel,62.5,613aa7b98f3d94f2d830bbe7,626b377229c10585ec392f8a,626b3b4abe0ebced469cce43,,,,,,,,,,,,,,,,,,,,,,,,,,,,,,,,,,,,,,,,,,,,,,,,,,,,,I trust the aid,,0.7,0,1,890.594,0,0,0,0,1,0,,,,
,613aa7b98f3d94f2d830bbe7,001,2022-04-28_20h20.49,classification_task,2021.2.3,MacIntel,62.5,613aa7b98f3d94f2d830bbe7,626b377229c10585ec392f8a,626b3b4abe0ebced469cce43,,,,,,,,,,,,,,,,,,,,,,,,,,,,,,,,,,,,,,,,,,,,,,,,,,,,,I have confidence in the advice given by the aid,,0.7,0,1,891.472,0,0,0,0,1,0,,,,
,613aa7b98f3d94f2d830bbe7,001,2022-04-28_20h20.49,classification_task,2021.2.3,MacIntel,62.5,613aa7b98f3d94f2d830bbe7,626b377229c10585ec392f8a,626b3b4abe0ebced469cce43,,,,,,,,,,,,,,,,,,,,,,,,,,,,,,,,,,,,,,,,,,,,,,,,,,,,,I can depend on the aid,,0.7,0,1,892.733,0,0,0,0,1,0,,,,
,613aa7b98f3d94f2d830bbe7,001,2022-04-28_20h20.49,classification_task,2021.2.3,MacIntel,62.5,613aa7b98f3d94f2d830bbe7,626b377229c10585ec392f8a,626b3b4abe0ebced469cce43,,,,,,,,,,,,,,,,,,,,,,,,,,,,,,,,,,,,,,,,,,,,,,,,,,,,,I can rely on the aid to behave in consistent ways,,0.7,0,1,893.568,0,0,0,0,1,0,,,,
,613aa7b98f3d94f2d830bbe7,001,2022-04-28_20h20.49,classification_task,2021.2.3,MacIntel,62.5,613aa7b98f3d94f2d830bbe7,626b377229c10585ec392f8a,626b3b4abe0ebced469cce43,,,,,,,,,,,,,,,,,,,,,,,,,,,,,,,,,,,,,,,,,,,,,,,,,,,,,I can rely on the aid to do its best every time I take its advice,,0.7,0,1,894.337,0,0,0,0,1,0,,,,
,613aa7b98f3d94f2d830bbe7,001,2022-04-28_20h20.49,classification_task,2021.2.3,MacIntel,62.5,613aa7b98f3d94f2d830bbe7,626b377229c10585ec392f8a,626b3b4abe0ebced469cce43,,,,,,,,,,,,,,,,,,,,,,,,,,,,,,,,,,,,,,,,,,,,,,,,,,,,,"On trials you completed with assistance from the aid, how frequently did you think the aid was correct?",,0.7,0,25%,,0,0,0,0,1,0,,,,
,613aa7b98f3d94f2d830bbe7,001,2022-04-28_20h20.49,classification_task,2021.2.3,MacIntel,62.5,613aa7b98f3d94f2d830bbe7,626b377229c10585ec392f8a,626b3b4abe0ebced469cce43,,,,,,,,,,,,,,,,,,,,,,,,,,,,,,,,,,,,,,,,,,,,,,,,,,,,,"On trials you completed without the aid, how frequently did you think you were correct?",,0.7,0,20%,,0,0,0,0,1,0,,,,
,613aa7b98f3d94f2d830bbe7,001,2022-04-28_20h20.49,classification_task,2021.2.3,MacIntel,62.5,613aa7b98f3d94f2d830bbe7,626b377229c10585ec392f8a,626b3b4abe0ebced469cce43,,,,,,,,,,,,,,,,,,,,,,,,,,,,,,,,,,,,,,,,,,,,,,,,,,,,,,,,,,,0,0,0,0,1,,,,,
,613aa7b98f3d94f2d830bbe7,001,2022-04-28_20h20.49,classification_task,2021.2.3,MacIntel,62.5,613aa7b98f3d94f2d830bbe7,626b377229c10585ec392f8a,626b3b4abe0ebced469cce43,,,,,,,,,,,,,,,,,,,,,,,,,,,,,,,,,,,,,,,,,,,,,,,,,,,,,,,,,,,,,,,,,space,6.205,922.113,
,613aa7b98f3d94f2d830bbe7,001,2022-04-28_20h20.49,classification_task,2021.2.3,MacIntel,62.5,613aa7b98f3d94f2d830bbe7,626b377229c10585ec392f8a,626b3b4abe0ebced469cce43,,,,,,,,,,,,,,,,,,,,,,,,,,,,,,,,,,,,,,,,,,,,,,,,,,,,,,,,,,,,,,,,,,,,"Mozilla/5.0 (Macintosh; Intel Mac OS X 10_15_7) AppleWebKit/605.1.15 (KHTML, like Gecko) Version/13.1.3 Safari/605.1.15"
