usingWebGL,participant,session,date,expName,psychopyVersion,OS,frameRate,study_id,signatures_friend,signatures_foe,band_ranges_top,band_ranges_bottom,formitemText,formtype,formundefined,formitemWidth,formindex,formresponse,formrt,key_resp_2.keys,key_resp_2.rt,tute_resp.keys,tute_resp.rt,tutorial.thisRepN,tutorial.thisTrialN,tutorial.thisN,tutorial.thisIndex,tutorial.ran,key_resp_4.keys,key_resp_4.rt,key_resp.keys,key_resp.corr,key_resp.rt,lines_presented,is_signal_presented,trials.thisRepN,trials.thisTrialN,trials.thisN,trials.thisIndex,trials.ran,vessel,active_band,lines,is_signal,supported_pos,catch_trial,debrief_formindex,debrief_formitemText,debrief_formtype,debrief_formitemWidth,debrief_formresponse,debrief_formrt,phases.thisRepN,phases.thisTrialN,phases.thisN,phases.thisIndex,phases.ran,phases.order,phase,key_resp_3.keys,trustitemText,trusttype,trustitemWidth,trustindex,trustresponse,trustrt,support_status.thisRepN,support_status.thisTrialN,support_status.thisN,support_status.thisIndex,support_status.ran,support_status.order,key_resp_5.keys,key_resp_5.rt,globalClockTime,userAgent,manualCondition
TRUE,613a4b42362385920cddff76,627c6edb0446339b9e82a363,2022-05-11_21h20.54.886,classification_task,2021.2.3,Win32,59.81934558,627c6715c52fd12f31907bcf,,,,,,,,,,,,,,,,,,,,,,,,,,,,,,,,,,,,,,,,,,,,,,,,,,,,,,,,,,,,,,,,,,,,,
,613a4b42362385920cddff76,627c6edb0446339b9e82a363,2022-05-11_21h20.54.886,classification_task,2021.2.3,Win32,59.81934558,627c6715c52fd12f31907bcf,"[[""0.195"",""0.488"",""0.867"",""0.959""],[""0.253"",""0.328"",""0.724"",""0.906""]]","[[""0.149"",""0.362"",""0.660"",""0.816""],[""0.028"",""0.421"",""0.554"",""0.760""]]","[1,10]","[100,1000]",Video game experience,,,0.7,0,,,,,,,,,,,,,,,,,,,,,,,,,,,,,,,,,,,,,,,,,,,,,,,,,,,,,,,,,,,,
,613a4b42362385920cddff76,627c6edb0446339b9e82a363,2022-05-11_21h20.54.886,classification_task,2021.2.3,Win32,59.81934558,627c6715c52fd12f31907bcf,,,,,Approximately how many hours did you spend playing video games in the last week?,,,0.7,0,20,,,,,,,,,,,,,,,,,,,,,,,,,,,,,,,,,,,,,,,,,,,,,,,,,,,,,,,,,,,
,613a4b42362385920cddff76,627c6edb0446339b9e82a363,2022-05-11_21h20.54.886,classification_task,2021.2.3,Win32,59.81934558,627c6715c52fd12f31907bcf,,,,,"Which game did you play the most this year? (Enter ""None"" if you didn't play any)",,,0.7,0,Fortnite,,,,,,,,,,,,,,,,,,,,,,,,,,,,,,,,,,,,,,,,,,,,,,,,,,,,,,,,,,,
,613a4b42362385920cddff76,627c6edb0446339b9e82a363,2022-05-11_21h20.54.886,classification_task,2021.2.3,Win32,59.81934558,627c6715c52fd12f31907bcf,,,,,Visual perception,,,0.7,0,,,,,,,,,,,,,,,,,,,,,,,,,,,,,,,,,,,,,,,,,,,,,,,,,,,,,,,,,,,,
,613a4b42362385920cddff76,627c6edb0446339b9e82a363,2022-05-11_21h20.54.886,classification_task,2021.2.3,Win32,59.81934558,627c6715c52fd12f31907bcf,,,,,Do you have any form of color blindness?,,,0.7,0,No,88.0282,,,,,,,,,,,,,,,,,,,,,,,,,,,,,,,,,,,,,,,,,,,,,,,,,,,,,,,,,,
,613a4b42362385920cddff76,627c6edb0446339b9e82a363,2022-05-11_21h20.54.886,classification_task,2021.2.3,Win32,59.81934558,627c6715c52fd12f31907bcf,,,,,Do you use software to change the colour temperature of your screen (e.g. f.lux)?,,,0.7,0,No,91.3473,,,,,,,,,,,,,,,,,,,,,,,,,,,,,,,,,,,,,,,,,,,,,,,,,,,,,,,,,,
,613a4b42362385920cddff76,627c6edb0446339b9e82a363,2022-05-11_21h20.54.886,classification_task,2021.2.3,Win32,59.81934558,627c6715c52fd12f31907bcf,,,,,,,,,,,,space,162.9357,space,6.409,0,0,0,0,1,,,,,,,,,,,,,,,,,,,,,,,,,,,,,,,,,,,,,,,,,,,,,,,,,
,613a4b42362385920cddff76,627c6edb0446339b9e82a363,2022-05-11_21h20.54.886,classification_task,2021.2.3,Win32,59.81934558,627c6715c52fd12f31907bcf,,,,,,,,,,,,,,space,7.3243,1,0,1,0,1,,,,,,,,,,,,,,,,,,,,,,,,,,,,,,,,,,,,,,,,,,,,,,,,,
,613a4b42362385920cddff76,627c6edb0446339b9e82a363,2022-05-11_21h20.54.886,classification_task,2021.2.3,Win32,59.81934558,627c6715c52fd12f31907bcf,,,,,,,,,,,,,,space,57.477,2,0,2,0,1,,,,,,,,,,,,,,,,,,,,,,,,,,,,,,,,,,,,,,,,,,,,,,,,,
,613a4b42362385920cddff76,627c6edb0446339b9e82a363,2022-05-11_21h20.54.886,classification_task,2021.2.3,Win32,59.81934558,627c6715c52fd12f31907bcf,,,,,,,,,,,,,,space,20.263,3,0,3,0,1,,,,,,,,,,,,,,,,,,,,,,,,,,,,,,,,,,,,,,,,,,,,,,,,,
,613a4b42362385920cddff76,627c6edb0446339b9e82a363,2022-05-11_21h20.54.886,classification_task,2021.2.3,Win32,59.81934558,627c6715c52fd12f31907bcf,,,,,,,,,,,,,,space,31.6675,4,0,4,0,1,,,,,,,,,,,,,,,,,,,,,,,,,,,,,,,,,,,,,,,,,,,,,,,,,
,613a4b42362385920cddff76,627c6edb0446339b9e82a363,2022-05-11_21h20.54.886,classification_task,2021.2.3,Win32,59.81934558,627c6715c52fd12f31907bcf,,,,,,,,,,,,,,,,,,,,,space,12.4123,a,1,5.6553,"[""0.253"",""0.328"",""0.724"",""0.084""]","[1,1,1,0]",0,0,0,0,1,0,1,,,1,FALSE,,,,,,,,,,,,,,,,,,,,,,,,,,,,,,,
,613a4b42362385920cddff76,627c6edb0446339b9e82a363,2022-05-11_21h20.54.886,classification_task,2021.2.3,Win32,59.81934558,627c6715c52fd12f31907bcf,,,,,,,,,,,,,,,,,,,,,,,a,1,4.1612,"[""0.195"",""0.488"",""0.090"",""0.959""]","[1,1,0,1]",0,1,1,1,1,0,0,,,1,FALSE,,,,,,,,,,,,,,,,,,,,,,,,,,,,,,,
,613a4b42362385920cddff76,627c6edb0446339b9e82a363,2022-05-11_21h20.54.886,classification_task,2021.2.3,Win32,59.81934558,627c6715c52fd12f31907bcf,,,,,,,,,,,,,,,,,,,,,,,a,1,3.4234,"[""0.195"",""0.092"",""0.867"",""0.959""]","[1,0,1,1]",0,2,2,2,1,0,0,,,1,FALSE,,,,,,,,,,,,,,,,,,,,,,,,,,,,,,,
,613a4b42362385920cddff76,627c6edb0446339b9e82a363,2022-05-11_21h20.54.886,classification_task,2021.2.3,Win32,59.81934558,627c6715c52fd12f31907bcf,,,,,,,,,,,,,,,,,,,,,,,a,1,6.5247,"[""0.253"",""0.328"",""0.092"",""0.906""]","[1,1,0,1]",0,3,3,3,1,0,1,,,1,FALSE,,,,,,,,,,,,,,,,,,,,,,,,,,,,,,,
,613a4b42362385920cddff76,627c6edb0446339b9e82a363,2022-05-11_21h20.54.886,classification_task,2021.2.3,Win32,59.81934558,627c6715c52fd12f31907bcf,,,,,,,,,,,,,,,,,,,,,,,a,0,2.3469,"[""0.084"",""0.421"",""0.554"",""0.760""]","[0,1,1,1]",0,4,4,4,1,1,1,,,1,FALSE,,,,,,,,,,,,,,,,,,,,,,,,,,,,,,,
,613a4b42362385920cddff76,627c6edb0446339b9e82a363,2022-05-11_21h20.54.886,classification_task,2021.2.3,Win32,59.81934558,627c6715c52fd12f31907bcf,,,,,,,,,,,,,,,,,,,,,,,,0,,"[""0.028"",""0.084"",""0.554"",""0.760""]","[1,0,1,1]",0,5,5,5,1,1,1,,,1,FALSE,,,,,,,,,,,,,,,,,,,,,,,,,,,,,,,
,613a4b42362385920cddff76,627c6edb0446339b9e82a363,2022-05-11_21h20.54.886,classification_task,2021.2.3,Win32,59.81934558,627c6715c52fd12f31907bcf,,,,,,,,,,,,,,,,,,,,,,,a,1,5.9343,"[""0.088"",""0.488"",""0.867"",""0.959""]","[0,1,1,1]",0,6,6,6,1,0,0,,,1,FALSE,,,,,,,,,,,,,,,,,,,,,,,,,,,,,,,
,613a4b42362385920cddff76,627c6edb0446339b9e82a363,2022-05-11_21h20.54.886,classification_task,2021.2.3,Win32,59.81934558,627c6715c52fd12f31907bcf,,,,,,,,,,,,,,,,,,,,,,,l,0,2.8192,"[""0.092"",""0.328"",""0.724"",""0.906""]","[0,1,1,1]",0,7,7,7,1,0,1,,,1,FALSE,,,,,,,,,,,,,,,,,,,,,,,,,,,,,,,
,613a4b42362385920cddff76,627c6edb0446339b9e82a363,2022-05-11_21h20.54.886,classification_task,2021.2.3,Win32,59.81934558,627c6715c52fd12f31907bcf,,,,,,,,,,,,,,,,,,,,,,,l,1,1.4067,"[""0.149"",""0.362"",""0.660"",""0.609""]","[1,1,1,0]",0,8,8,8,1,1,0,,,1,FALSE,,,,,,,,,,,,,,,,,,,,,,,,,,,,,,,
,613a4b42362385920cddff76,627c6edb0446339b9e82a363,2022-05-11_21h20.54.886,classification_task,2021.2.3,Win32,59.81934558,627c6715c52fd12f31907bcf,,,,,,,,,,,,,,,,,,,,,,,a,0,7.5331,"[""0.149"",""0.362"",""0.613"",""0.816""]","[1,1,0,1]",0,9,9,9,1,1,0,,,1,FALSE,,,,,,,,,,,,,,,,,,,,,,,,,,,,,,,
,613a4b42362385920cddff76,627c6edb0446339b9e82a363,2022-05-11_21h20.54.886,classification_task,2021.2.3,Win32,59.81934558,627c6715c52fd12f31907bcf,,,,,,,,,,,,,,,,,,,,,,,a,0,3.7223,"[""0.028"",""0.421"",""0.554"",""0.613""]","[1,1,1,0]",0,10,10,10,1,1,1,,,1,FALSE,,,,,,,,,,,,,,,,,,,,,,,,,,,,,,,
,613a4b42362385920cddff76,627c6edb0446339b9e82a363,2022-05-11_21h20.54.886,classification_task,2021.2.3,Win32,59.81934558,627c6715c52fd12f31907bcf,,,,,,,,,,,,,,,,,,,,,,,a,1,3.6902,"[""0.195"",""0.488"",""0.867"",""0.090""]","[1,1,1,0]",0,11,11,11,1,0,0,,,1,FALSE,,,,,,,,,,,,,,,,,,,,,,,,,,,,,,,
,613a4b42362385920cddff76,627c6edb0446339b9e82a363,2022-05-11_21h20.54.886,classification_task,2021.2.3,Win32,59.81934558,627c6715c52fd12f31907bcf,,,,,,,,,,,,,,,,,,,,,,,a,0,1.7478,"[""0.084"",""0.362"",""0.660"",""0.816""]","[0,1,1,1]",0,12,12,12,1,1,0,,,1,FALSE,,,,,,,,,,,,,,,,,,,,,,,,,,,,,,,
,613a4b42362385920cddff76,627c6edb0446339b9e82a363,2022-05-11_21h20.54.886,classification_task,2021.2.3,Win32,59.81934558,627c6715c52fd12f31907bcf,,,,,,,,,,,,,,,,,,,,,,,a,0,1.6789,"[""0.028"",""0.421"",""0.088"",""0.760""]","[1,1,0,1]",0,13,13,13,1,1,1,,,1,FALSE,,,,,,,,,,,,,,,,,,,,,,,,,,,,,,,
,613a4b42362385920cddff76,627c6edb0446339b9e82a363,2022-05-11_21h20.54.886,classification_task,2021.2.3,Win32,59.81934558,627c6715c52fd12f31907bcf,,,,,,,,,,,,,,,,,,,,,,,a,1,2.3526,"[""0.253"",""0.092"",""0.724"",""0.906""]","[1,0,1,1]",0,14,14,14,1,0,1,,,1,FALSE,,,,,,,,,,,,,,,,,,,,,,,,,,,,,,,
,613a4b42362385920cddff76,627c6edb0446339b9e82a363,2022-05-11_21h20.54.886,classification_task,2021.2.3,Win32,59.81934558,627c6715c52fd12f31907bcf,,,,,,,,,,,,,,,,,,,,,,,a,0,9.5267,"[""0.149"",""0.090"",""0.660"",""0.816""]","[1,0,1,1]",0,15,15,15,1,1,0,,,1,FALSE,,,,,,,,,,,,,,,,,,,,,,,,,,,,,,,
,613a4b42362385920cddff76,627c6edb0446339b9e82a363,2022-05-11_21h20.54.886,classification_task,2021.2.3,Win32,59.81934558,627c6715c52fd12f31907bcf,,,,,,,,,,,,,,,,,,,,,,,l,1,2.8187,"[""0.149"",""0.090"",""0.660"",""0.816""]","[1,0,1,1]",0,16,16,16,1,1,0,,,1,FALSE,,,,,,,,,,,,,,,,,,,,,,,,,,,,,,,
,613a4b42362385920cddff76,627c6edb0446339b9e82a363,2022-05-11_21h20.54.886,classification_task,2021.2.3,Win32,59.81934558,627c6715c52fd12f31907bcf,,,,,,,,,,,,,,,,,,,,,,,a,1,2.2301,"[""0.195"",""0.607"",""0.867"",""0.959""]","[1,0,1,1]",0,17,17,17,1,0,0,,,1,FALSE,,,,,,,,,,,,,,,,,,,,,,,,,,,,,,,
,613a4b42362385920cddff76,627c6edb0446339b9e82a363,2022-05-11_21h20.54.886,classification_task,2021.2.3,Win32,59.81934558,627c6715c52fd12f31907bcf,,,,,,,,,,,,,,,,,,,,,,,l,1,3.7154,"[""0.028"",""0.421"",""0.554"",""0.084""]","[1,1,1,0]",0,18,18,18,1,1,1,,,1,FALSE,,,,,,,,,,,,,,,,,,,,,,,,,,,,,,,
,613a4b42362385920cddff76,627c6edb0446339b9e82a363,2022-05-11_21h20.54.886,classification_task,2021.2.3,Win32,59.81934558,627c6715c52fd12f31907bcf,,,,,,,,,,,,,,,,,,,,,,,a,0,2.2397,"[""0.149"",""0.362"",""0.660"",""0.090""]","[1,1,1,0]",0,19,19,19,1,1,0,,,1,FALSE,,,,,,,,,,,,,,,,,,,,,,,,,,,,,,,
,613a4b42362385920cddff76,627c6edb0446339b9e82a363,2022-05-11_21h20.54.886,classification_task,2021.2.3,Win32,59.81934558,627c6715c52fd12f31907bcf,,,,,,,,,,,,,,,,,,,,,,,a,0,4.4988,"[""0.075"",""0.362"",""0.660"",""0.816""]","[0,1,1,1]",0,20,20,20,1,1,0,,,1,FALSE,,,,,,,,,,,,,,,,,,,,,,,,,,,,,,,
,613a4b42362385920cddff76,627c6edb0446339b9e82a363,2022-05-11_21h20.54.886,classification_task,2021.2.3,Win32,59.81934558,627c6715c52fd12f31907bcf,,,,,,,,,,,,,,,,,,,,,,,a,1,1.6776,"[""0.253"",""0.093"",""0.724"",""0.906""]","[1,0,1,1]",0,21,21,21,1,0,1,,,1,FALSE,,,,,,,,,,,,,,,,,,,,,,,,,,,,,,,
,613a4b42362385920cddff76,627c6edb0446339b9e82a363,2022-05-11_21h20.54.886,classification_task,2021.2.3,Win32,59.81934558,627c6715c52fd12f31907bcf,,,,,,,,,,,,,,,,,,,,,,,a,1,3.4917,"[""0.253"",""0.328"",""0.724"",""0.076""]","[1,1,1,0]",0,22,22,22,1,0,1,,,1,FALSE,,,,,,,,,,,,,,,,,,,,,,,,,,,,,,,
,613a4b42362385920cddff76,627c6edb0446339b9e82a363,2022-05-11_21h20.54.886,classification_task,2021.2.3,Win32,59.81934558,627c6715c52fd12f31907bcf,,,,,,,,,,,,,,,,,,,,,,,,0,,"[""0.149"",""0.362"",""0.088"",""0.816""]","[1,1,0,1]",0,23,23,23,1,1,0,,,1,FALSE,,,,,,,,,,,,,,,,,,,,,,,,,,,,,,,
,613a4b42362385920cddff76,627c6edb0446339b9e82a363,2022-05-11_21h20.54.886,classification_task,2021.2.3,Win32,59.81934558,627c6715c52fd12f31907bcf,,,,,,,,,,,,,,,,,,,,,,,l,0,2.1752,"[""0.195"",""0.488"",""0.602"",""0.959""]","[1,1,0,1]",0,24,24,24,1,0,0,,,1,FALSE,,,,,,,,,,,,,,,,,,,,,,,,,,,,,,,
,613a4b42362385920cddff76,627c6edb0446339b9e82a363,2022-05-11_21h20.54.886,classification_task,2021.2.3,Win32,59.81934558,627c6715c52fd12f31907bcf,,,,,,,,,,,,,,,,,,,,,,,a,0,1.2263,"[""0.592"",""0.421"",""0.554"",""0.760""]","[0,1,1,1]",0,25,25,25,1,1,1,,,1,FALSE,,,,,,,,,,,,,,,,,,,,,,,,,,,,,,,
,613a4b42362385920cddff76,627c6edb0446339b9e82a363,2022-05-11_21h20.54.886,classification_task,2021.2.3,Win32,59.81934558,627c6715c52fd12f31907bcf,,,,,,,,,,,,,,,,,,,,,,,l,0,1.0827,"[""0.076"",""0.328"",""0.724"",""0.906""]","[0,1,1,1]",0,26,26,26,1,0,1,,,1,FALSE,,,,,,,,,,,,,,,,,,,,,,,,,,,,,,,
,613a4b42362385920cddff76,627c6edb0446339b9e82a363,2022-05-11_21h20.54.886,classification_task,2021.2.3,Win32,59.81934558,627c6715c52fd12f31907bcf,,,,,,,,,,,,,,,,,,,,,,,a,1,1.5975,"[""0.076"",""0.488"",""0.867"",""0.959""]","[0,1,1,1]",0,27,27,27,1,0,0,,,1,FALSE,,,,,,,,,,,,,,,,,,,,,,,,,,,,,,,
,613a4b42362385920cddff76,627c6edb0446339b9e82a363,2022-05-11_21h20.54.886,classification_task,2021.2.3,Win32,59.81934558,627c6715c52fd12f31907bcf,,,,,,,,,,,,,,,,,,,,,,,a,1,3.6897,"[""0.253"",""0.328"",""0.092"",""0.906""]","[1,1,0,1]",0,28,28,28,1,0,1,,,1,FALSE,,,,,,,,,,,,,,,,,,,,,,,,,,,,,,,
,613a4b42362385920cddff76,627c6edb0446339b9e82a363,2022-05-11_21h20.54.886,classification_task,2021.2.3,Win32,59.81934558,627c6715c52fd12f31907bcf,,,,,,,,,,,,,,,,,,,,,,,a,0,9.7497,"[""0.028"",""0.076"",""0.554"",""0.760""]","[1,0,1,1]",0,29,29,29,1,1,1,,,1,FALSE,,,,,,,,,,,,,,,,,,,,,,,,,,,,,,,
,613a4b42362385920cddff76,627c6edb0446339b9e82a363,2022-05-11_21h20.54.886,classification_task,2021.2.3,Win32,59.81934558,627c6715c52fd12f31907bcf,,,,,,,,,,,,,,,,,,,,,,,l,1,0.9819,"[""0.028"",""0.421"",""0.075"",""0.760""]","[1,1,0,1]",0,30,30,30,1,1,1,,,1,FALSE,,,,,,,,,,,,,,,,,,,,,,,,,,,,,,,
,613a4b42362385920cddff76,627c6edb0446339b9e82a363,2022-05-11_21h20.54.886,classification_task,2021.2.3,Win32,59.81934558,627c6715c52fd12f31907bcf,,,,,,,,,,,,,,,,,,,,,,,l,0,2.396,"[""0.195"",""0.488"",""0.867"",""0.602""]","[1,1,1,0]",0,31,31,31,1,0,0,,,1,FALSE,,,,,,,,,,,,,,,,,,,,,,,,,,,,,,,
,613a4b42362385920cddff76,627c6edb0446339b9e82a363,2022-05-11_21h20.54.886,classification_task,2021.2.3,Win32,59.81934558,627c6715c52fd12f31907bcf,,,,,,,,,,,,,,,,,,,,,,,a,0,1.5348,"[""0.149"",""0.088"",""0.660"",""0.816""]","[1,0,1,1]",0,32,32,32,1,1,0,,,1,FALSE,,,,,,,,,,,,,,,,,,,,,,,,,,,,,,,
,613a4b42362385920cddff76,627c6edb0446339b9e82a363,2022-05-11_21h20.54.886,classification_task,2021.2.3,Win32,59.81934558,627c6715c52fd12f31907bcf,,,,,,,,,,,,,,,,,,,,,,,,0,,"[""0.028"",""0.092"",""0.554"",""0.760""]","[1,0,1,1]",0,33,33,33,1,1,1,,,1,FALSE,,,,,,,,,,,,,,,,,,,,,,,,,,,,,,,
,613a4b42362385920cddff76,627c6edb0446339b9e82a363,2022-05-11_21h20.54.886,classification_task,2021.2.3,Win32,59.81934558,627c6715c52fd12f31907bcf,,,,,,,,,,,,,,,,,,,,,,,a,0,1.6976,"[""0.028"",""0.421"",""0.554"",""0.084""]","[1,1,1,0]",0,34,34,34,1,1,1,,,1,FALSE,,,,,,,,,,,,,,,,,,,,,,,,,,,,,,,
,613a4b42362385920cddff76,627c6edb0446339b9e82a363,2022-05-11_21h20.54.886,classification_task,2021.2.3,Win32,59.81934558,627c6715c52fd12f31907bcf,,,,,,,,,,,,,,,,,,,,,,,a,1,2.1221,"[""0.195"",""0.488"",""0.867"",""0.294""]","[1,1,1,0]",0,35,35,35,1,0,0,,,1,FALSE,,,,,,,,,,,,,,,,,,,,,,,,,,,,,,,
,613a4b42362385920cddff76,627c6edb0446339b9e82a363,2022-05-11_21h20.54.886,classification_task,2021.2.3,Win32,59.81934558,627c6715c52fd12f31907bcf,,,,,,,,,,,,,,,,,,,,,,,a,1,1.7593,"[""0.253"",""0.328"",""0.607"",""0.906""]","[1,1,0,1]",0,36,36,36,1,0,1,,,1,FALSE,,,,,,,,,,,,,,,,,,,,,,,,,,,,,,,
,613a4b42362385920cddff76,627c6edb0446339b9e82a363,2022-05-11_21h20.54.886,classification_task,2021.2.3,Win32,59.81934558,627c6715c52fd12f31907bcf,,,,,,,,,,,,,,,,,,,,,,,l,0,1.5242,"[""0.294"",""0.328"",""0.724"",""0.906""]","[0,1,1,1]",0,37,37,37,1,0,1,,,1,FALSE,,,,,,,,,,,,,,,,,,,,,,,,,,,,,,,
,613a4b42362385920cddff76,627c6edb0446339b9e82a363,2022-05-11_21h20.54.886,classification_task,2021.2.3,Win32,59.81934558,627c6715c52fd12f31907bcf,,,,,,,,,,,,,,,,,,,,,,,l,1,5.4859,"[""0.607"",""0.421"",""0.554"",""0.760""]","[0,1,1,1]",0,38,38,38,1,1,1,,,1,FALSE,,,,,,,,,,,,,,,,,,,,,,,,,,,,,,,
,613a4b42362385920cddff76,627c6edb0446339b9e82a363,2022-05-11_21h20.54.886,classification_task,2021.2.3,Win32,59.81934558,627c6715c52fd12f31907bcf,,,,,,,,,,,,,,,,,,,,,,,l,1,1.9916,"[""0.028"",""0.421"",""0.613"",""0.760""]","[1,1,0,1]",0,39,39,39,1,1,1,,,1,FALSE,,,,,,,,,,,,,,,,,,,,,,,,,,,,,,,
,613a4b42362385920cddff76,627c6edb0446339b9e82a363,2022-05-11_21h20.54.886,classification_task,2021.2.3,Win32,59.81934558,627c6715c52fd12f31907bcf,,,,,,,,,,,,,,,,,,,,,,,l,0,0.5548,"[""0.253"",""0.328"",""0.724"",""0.075""]","[1,1,1,0]",0,40,40,40,1,0,1,,,1,FALSE,,,,,,,,,,,,,,,,,,,,,,,,,,,,,,,
,613a4b42362385920cddff76,627c6edb0446339b9e82a363,2022-05-11_21h20.54.886,classification_task,2021.2.3,Win32,59.81934558,627c6715c52fd12f31907bcf,,,,,,,,,,,,,,,,,,,,,,,l,0,1.44,"[""0.253"",""0.090"",""0.724"",""0.906""]","[1,0,1,1]",0,41,41,41,1,0,1,,,1,FALSE,,,,,,,,,,,,,,,,,,,,,,,,,,,,,,,
,613a4b42362385920cddff76,627c6edb0446339b9e82a363,2022-05-11_21h20.54.886,classification_task,2021.2.3,Win32,59.81934558,627c6715c52fd12f31907bcf,,,,,,,,,,,,,,,,,,,,,,,l,0,0.3286,"[""0.093"",""0.488"",""0.867"",""0.959""]","[0,1,1,1]",0,42,42,42,1,0,0,,,1,FALSE,,,,,,,,,,,,,,,,,,,,,,,,,,,,,,,
,613a4b42362385920cddff76,627c6edb0446339b9e82a363,2022-05-11_21h20.54.886,classification_task,2021.2.3,Win32,59.81934558,627c6715c52fd12f31907bcf,,,,,,,,,,,,,,,,,,,,,,,a,0,1.7117,"[""0.149"",""0.362"",""0.090"",""0.816""]","[1,1,0,1]",0,43,43,43,1,1,0,,,1,FALSE,,,,,,,,,,,,,,,,,,,,,,,,,,,,,,,
,613a4b42362385920cddff76,627c6edb0446339b9e82a363,2022-05-11_21h20.54.886,classification_task,2021.2.3,Win32,59.81934558,627c6715c52fd12f31907bcf,,,,,,,,,,,,,,,,,,,,,,,l,1,5.558,"[""0.084"",""0.362"",""0.660"",""0.816""]","[0,1,1,1]",0,44,44,44,1,1,0,,,1,FALSE,,,,,,,,,,,,,,,,,,,,,,,,,,,,,,,
,613a4b42362385920cddff76,627c6edb0446339b9e82a363,2022-05-11_21h20.54.886,classification_task,2021.2.3,Win32,59.81934558,627c6715c52fd12f31907bcf,,,,,,,,,,,,,,,,,,,,,,,a,0,3.0954,"[""0.149"",""0.362"",""0.660"",""0.092""]","[1,1,1,0]",0,45,45,45,1,1,0,,,1,FALSE,,,,,,,,,,,,,,,,,,,,,,,,,,,,,,,
,613a4b42362385920cddff76,627c6edb0446339b9e82a363,2022-05-11_21h20.54.886,classification_task,2021.2.3,Win32,59.81934558,627c6715c52fd12f31907bcf,,,,,,,,,,,,,,,,,,,,,,,a,1,4.1024,"[""0.195"",""0.488"",""0.294"",""0.959""]","[1,1,0,1]",0,46,46,46,1,0,0,,,1,FALSE,,,,,,,,,,,,,,,,,,,,,,,,,,,,,,,
,613a4b42362385920cddff76,627c6edb0446339b9e82a363,2022-05-11_21h20.54.886,classification_task,2021.2.3,Win32,59.81934558,627c6715c52fd12f31907bcf,,,,,,,,,,,,,,,,,,,,,,,l,0,1.8164,"[""0.195"",""0.090"",""0.867"",""0.959""]","[1,0,1,1]",0,47,47,47,1,0,0,,,1,FALSE,,,,,,,,,,,,,,,,,,,,,,,,,,,,,,,
,613a4b42362385920cddff76,627c6edb0446339b9e82a363,2022-05-11_21h20.54.886,classification_task,2021.2.3,Win32,59.81934558,627c6715c52fd12f31907bcf,,,,,,,,,,,,,,,,,,,,,,,a,0,4.5368,"[""0.149"",""0.362"",""0.607"",""0.816""]","[1,1,0,1]",0,48,48,48,1,1,0,,,1,FALSE,,,,,,,,,,,,,,,,,,,,,,,,,,,,,,,
,613a4b42362385920cddff76,627c6edb0446339b9e82a363,2022-05-11_21h20.54.886,classification_task,2021.2.3,Win32,59.81934558,627c6715c52fd12f31907bcf,,,,,,,,,,,,,,,,,,,,,,,l,0,2.3021,"[""0.084"",""0.328"",""0.724"",""0.906""]","[0,1,1,1]",0,49,49,49,1,0,1,,,1,FALSE,,,,,,,,,,,,,,,,,,,,,,,,,,,,,,,
,613a4b42362385920cddff76,627c6edb0446339b9e82a363,2022-05-11_21h20.54.886,classification_task,2021.2.3,Win32,59.81934558,627c6715c52fd12f31907bcf,,,,,,,,,,,,,,,,,,,,,,,a,1,3.4146,"[""0.195"",""0.488"",""0.093"",""0.959""]","[1,1,0,1]",0,50,50,50,1,0,0,,,1,FALSE,,,,,,,,,,,,,,,,,,,,,,,,,,,,,,,
,613a4b42362385920cddff76,627c6edb0446339b9e82a363,2022-05-11_21h20.54.886,classification_task,2021.2.3,Win32,59.81934558,627c6715c52fd12f31907bcf,,,,,,,,,,,,,,,,,,,,,,,a,1,3.9165,"[""0.253"",""0.328"",""0.090"",""0.906""]","[1,1,0,1]",0,51,51,51,1,0,1,,,1,FALSE,,,,,,,,,,,,,,,,,,,,,,,,,,,,,,,
,613a4b42362385920cddff76,627c6edb0446339b9e82a363,2022-05-11_21h20.54.886,classification_task,2021.2.3,Win32,59.81934558,627c6715c52fd12f31907bcf,,,,,,,,,,,,,,,,,,,,,,,l,1,2.3299,"[""0.028"",""0.421"",""0.554"",""0.084""]","[1,1,1,0]",0,52,52,52,1,1,1,,,1,FALSE,,,,,,,,,,,,,,,,,,,,,,,,,,,,,,,
,613a4b42362385920cddff76,627c6edb0446339b9e82a363,2022-05-11_21h20.54.886,classification_task,2021.2.3,Win32,59.81934558,627c6715c52fd12f31907bcf,,,,,,,,,,,,,,,,,,,,,,,a,1,3.2176,"[""0.092"",""0.488"",""0.867"",""0.959""]","[0,1,1,1]",0,53,53,53,1,0,0,,,1,FALSE,,,,,,,,,,,,,,,,,,,,,,,,,,,,,,,
,613a4b42362385920cddff76,627c6edb0446339b9e82a363,2022-05-11_21h20.54.886,classification_task,2021.2.3,Win32,59.81934558,627c6715c52fd12f31907bcf,,,,,,,,,,,,,,,,,,,,,,,l,1,1.2502,"[""0.149"",""0.362"",""0.660"",""0.088""]","[1,1,1,0]",0,54,54,54,1,1,0,,,1,FALSE,,,,,,,,,,,,,,,,,,,,,,,,,,,,,,,
,613a4b42362385920cddff76,627c6edb0446339b9e82a363,2022-05-11_21h20.54.886,classification_task,2021.2.3,Win32,59.81934558,627c6715c52fd12f31907bcf,,,,,,,,,,,,,,,,,,,,,,,l,1,1.0232,"[""0.149"",""0.088"",""0.660"",""0.816""]","[1,0,1,1]",0,55,55,55,1,1,0,,,1,FALSE,,,,,,,,,,,,,,,,,,,,,,,,,,,,,,,
,613a4b42362385920cddff76,627c6edb0446339b9e82a363,2022-05-11_21h20.54.886,classification_task,2021.2.3,Win32,59.81934558,627c6715c52fd12f31907bcf,,,,,,,,,,,,,,,,,,,,,,,l,0,2.1598,"[""0.253"",""0.088"",""0.724"",""0.906""]","[1,0,1,1]",0,56,56,56,1,0,1,,,1,FALSE,,,,,,,,,,,,,,,,,,,,,,,,,,,,,,,
,613a4b42362385920cddff76,627c6edb0446339b9e82a363,2022-05-11_21h20.54.886,classification_task,2021.2.3,Win32,59.81934558,627c6715c52fd12f31907bcf,,,,,,,,,,,,,,,,,,,,,,,l,0,2.1875,"[""0.253"",""0.328"",""0.724"",""0.093""]","[1,1,1,0]",0,57,57,57,1,0,1,,,1,FALSE,,,,,,,,,,,,,,,,,,,,,,,,,,,,,,,
,613a4b42362385920cddff76,627c6edb0446339b9e82a363,2022-05-11_21h20.54.886,classification_task,2021.2.3,Win32,59.81934558,627c6715c52fd12f31907bcf,,,,,,,,,,,,,,,,,,,,,,,a,1,0.9083,"[""0.195"",""0.090"",""0.867"",""0.959""]","[1,0,1,1]",0,58,58,58,1,0,0,,,1,FALSE,,,,,,,,,,,,,,,,,,,,,,,,,,,,,,,
,613a4b42362385920cddff76,627c6edb0446339b9e82a363,2022-05-11_21h20.54.886,classification_task,2021.2.3,Win32,59.81934558,627c6715c52fd12f31907bcf,,,,,,,,,,,,,,,,,,,,,,,a,0,4.8879,"[""0.613"",""0.362"",""0.660"",""0.816""]","[0,1,1,1]",0,59,59,59,1,1,0,,,1,FALSE,,,,,,,,,,,,,,,,,,,,,,,,,,,,,,,
,613a4b42362385920cddff76,627c6edb0446339b9e82a363,2022-05-11_21h20.54.886,classification_task,2021.2.3,Win32,59.81934558,627c6715c52fd12f31907bcf,,,,,,,,,,,,,,,,,,,,,,,l,1,2.075,"[""0.613"",""0.421"",""0.554"",""0.760""]","[0,1,1,1]",0,60,60,60,1,1,1,,,1,FALSE,,,,,,,,,,,,,,,,,,,,,,,,,,,,,,,
,613a4b42362385920cddff76,627c6edb0446339b9e82a363,2022-05-11_21h20.54.886,classification_task,2021.2.3,Win32,59.81934558,627c6715c52fd12f31907bcf,,,,,,,,,,,,,,,,,,,,,,,l,1,0.2539,"[""0.028"",""0.421"",""0.088"",""0.760""]","[1,1,0,1]",0,61,61,61,1,1,1,,,1,FALSE,,,,,,,,,,,,,,,,,,,,,,,,,,,,,,,
,613a4b42362385920cddff76,627c6edb0446339b9e82a363,2022-05-11_21h20.54.886,classification_task,2021.2.3,Win32,59.81934558,627c6715c52fd12f31907bcf,,,,,,,,,,,,,,,,,,,,,,,l,0,3.0399,"[""0.195"",""0.488"",""0.867"",""0.084""]","[1,1,1,0]",0,62,62,62,1,0,0,,,1,FALSE,,,,,,,,,,,,,,,,,,,,,,,,,,,,,,,
,613a4b42362385920cddff76,627c6edb0446339b9e82a363,2022-05-11_21h20.54.886,classification_task,2021.2.3,Win32,59.81934558,627c6715c52fd12f31907bcf,,,,,,,,,,,,,,,,,,,,,,,a,0,0.8973,"[""0.028"",""0.088"",""0.554"",""0.760""]","[1,0,1,1]",0,63,63,63,1,1,1,,,1,FALSE,,,,,,,,,,,,,,,,,,,,,,,,,,,,,,,
,613a4b42362385920cddff76,627c6edb0446339b9e82a363,2022-05-11_21h20.54.886,classification_task,2021.2.3,Win32,59.81934558,627c6715c52fd12f31907bcf,,,,,,,,,,,,,,,,,,,,,,,,,,,,,,,,,,,,,,,0, ,,0,,,0,0,0,0,1,2,1,,,,,,,,,,,,,,,,,,
,613a4b42362385920cddff76,627c6edb0446339b9e82a363,2022-05-11_21h20.54.886,classification_task,2021.2.3,Win32,59.81934558,627c6715c52fd12f31907bcf,,,,,,,,,,,,,,,,,,,,,,,,,,,,,,,,,,,,,,,1,  ,,0,,,0,0,0,0,1,2,1,,,,,,,,,,,,,,,,,,
,613a4b42362385920cddff76,627c6edb0446339b9e82a363,2022-05-11_21h20.54.886,classification_task,2021.2.3,Win32,59.81934558,627c6715c52fd12f31907bcf,,,,,,,,,,,,,,,,,,,,,,,,,,,,,,,,,,,,,,,2,  ,,0,,,0,0,0,0,1,2,1,,,,,,,,,,,,,,,,,,
,613a4b42362385920cddff76,627c6edb0446339b9e82a363,2022-05-11_21h20.54.886,classification_task,2021.2.3,Win32,59.81934558,627c6715c52fd12f31907bcf,,,,,,,,,,,,,,,,,,,,,,,,,,,,,,,,,,,,,,,,,,,,,0,0,0,0,1,,1,,,,,,,,,,,,,,,,,,
,613a4b42362385920cddff76,627c6edb0446339b9e82a363,2022-05-11_21h20.54.886,classification_task,2021.2.3,Win32,59.81934558,627c6715c52fd12f31907bcf,,,,,,,,,,,,,,,,,,,,,space,121.4881,a,0,3.6472,"[""0.028"",""0.421"",""0.076"",""0.760""]","[1,1,0,1]",0,0,0,0,1,1,1,,,1,FALSE,,,,,,,,,,,,,,,,,,,,,,,,,,,,,,,
,613a4b42362385920cddff76,627c6edb0446339b9e82a363,2022-05-11_21h20.54.886,classification_task,2021.2.3,Win32,59.81934558,627c6715c52fd12f31907bcf,,,,,,,,,,,,,,,,,,,,,,,l,1,4.5183,"[""0.149"",""0.362"",""0.607"",""0.816""]","[1,1,0,1]",0,1,1,1,1,1,0,,,1,FALSE,,,,,,,,,,,,,,,,,,,,,,,,,,,,,,,
,613a4b42362385920cddff76,627c6edb0446339b9e82a363,2022-05-11_21h20.54.886,classification_task,2021.2.3,Win32,59.81934558,627c6715c52fd12f31907bcf,,,,,,,,,,,,,,,,,,,,,,,l,0,3.0994,"[""0.253"",""0.328"",""0.724"",""0.090""]","[1,1,1,0]",0,2,2,2,1,0,1,,,1,FALSE,,,,,,,,,,,,,,,,,,,,,,,,,,,,,,,
,613a4b42362385920cddff76,627c6edb0446339b9e82a363,2022-05-11_21h20.54.886,classification_task,2021.2.3,Win32,59.81934558,627c6715c52fd12f31907bcf,,,,,,,,,,,,,,,,,,,,,,,,0,,"[""0.088"",""0.362"",""0.660"",""0.816""]","[0,1,1,1]",0,3,3,3,1,1,0,,,1,FALSE,,,,,,,,,,,,,,,,,,,,,,,,,,,,,,,
,613a4b42362385920cddff76,627c6edb0446339b9e82a363,2022-05-11_21h20.54.886,classification_task,2021.2.3,Win32,59.81934558,627c6715c52fd12f31907bcf,,,,,,,,,,,,,,,,,,,,,,,l,0,0.9428,"[""0.088"",""0.488"",""0.867"",""0.959""]","[0,1,1,1]",0,4,4,4,1,0,0,,,1,FALSE,,,,,,,,,,,,,,,,,,,,,,,,,,,,,,,
,613a4b42362385920cddff76,627c6edb0446339b9e82a363,2022-05-11_21h20.54.886,classification_task,2021.2.3,Win32,59.81934558,627c6715c52fd12f31907bcf,,,,,,,,,,,,,,,,,,,,,,,a,1,3.5099,"[""0.195"",""0.488"",""0.090"",""0.959""]","[1,1,0,1]",0,5,5,5,1,0,0,,,1,FALSE,,,,,,,,,,,,,,,,,,,,,,,,,,,,,,,
,613a4b42362385920cddff76,627c6edb0446339b9e82a363,2022-05-11_21h20.54.886,classification_task,2021.2.3,Win32,59.81934558,627c6715c52fd12f31907bcf,,,,,,,,,,,,,,,,,,,,,,,a,1,2.592,"[""0.195"",""0.613"",""0.867"",""0.959""]","[1,0,1,1]",0,6,6,6,1,0,0,,,1,FALSE,,,,,,,,,,,,,,,,,,,,,,,,,,,,,,,
,613a4b42362385920cddff76,627c6edb0446339b9e82a363,2022-05-11_21h20.54.886,classification_task,2021.2.3,Win32,59.81934558,627c6715c52fd12f31907bcf,,,,,,,,,,,,,,,,,,,,,,,a,0,1.4214,"[""0.028"",""0.421"",""0.554"",""0.084""]","[1,1,1,0]",0,7,7,7,1,1,1,,,1,FALSE,,,,,,,,,,,,,,,,,,,,,,,,,,,,,,,
,613a4b42362385920cddff76,627c6edb0446339b9e82a363,2022-05-11_21h20.54.886,classification_task,2021.2.3,Win32,59.81934558,627c6715c52fd12f31907bcf,,,,,,,,,,,,,,,,,,,,,,,l,1,0.848,"[""0.149"",""0.362"",""0.660"",""0.592""]","[1,1,1,0]",0,8,8,8,1,1,0,,,1,FALSE,,,,,,,,,,,,,,,,,,,,,,,,,,,,,,,
,613a4b42362385920cddff76,627c6edb0446339b9e82a363,2022-05-11_21h20.54.886,classification_task,2021.2.3,Win32,59.81934558,627c6715c52fd12f31907bcf,,,,,,,,,,,,,,,,,,,,,,,a,0,2.3581,"[""0.028"",""0.088"",""0.554"",""0.760""]","[1,0,1,1]",0,9,9,9,1,1,1,,,1,FALSE,,,,,,,,,,,,,,,,,,,,,,,,,,,,,,,
,613a4b42362385920cddff76,627c6edb0446339b9e82a363,2022-05-11_21h20.54.886,classification_task,2021.2.3,Win32,59.81934558,627c6715c52fd12f31907bcf,,,,,,,,,,,,,,,,,,,,,,,l,1,0.9938,"[""0.094"",""0.421"",""0.554"",""0.760""]","[0,1,1,1]",0,10,10,10,1,1,1,,,1,FALSE,,,,,,,,,,,,,,,,,,,,,,,,,,,,,,,
,613a4b42362385920cddff76,627c6edb0446339b9e82a363,2022-05-11_21h20.54.886,classification_task,2021.2.3,Win32,59.81934558,627c6715c52fd12f31907bcf,,,,,,,,,,,,,,,,,,,,,,,a,1,6.7081,"[""0.195"",""0.488"",""0.867"",""0.088""]","[1,1,1,0]",0,11,11,11,1,0,0,,,1,FALSE,,,,,,,,,,,,,,,,,,,,,,,,,,,,,,,
,613a4b42362385920cddff76,627c6edb0446339b9e82a363,2022-05-11_21h20.54.886,classification_task,2021.2.3,Win32,59.81934558,627c6715c52fd12f31907bcf,,,,,,,,,,,,,,,,,,,,,,,l,0,5.187,"[""0.253"",""0.092"",""0.724"",""0.906""]","[1,0,1,1]",0,12,12,12,1,0,1,,,1,FALSE,,,,,,,,,,,,,,,,,,,,,,,,,,,,,,,
,613a4b42362385920cddff76,627c6edb0446339b9e82a363,2022-05-11_21h20.54.886,classification_task,2021.2.3,Win32,59.81934558,627c6715c52fd12f31907bcf,,,,,,,,,,,,,,,,,,,,,,,a,0,1.3692,"[""0.149"",""0.094"",""0.660"",""0.816""]","[1,0,1,1]",0,13,13,13,1,1,0,,,1,FALSE,,,,,,,,,,,,,,,,,,,,,,,,,,,,,,,
,613a4b42362385920cddff76,627c6edb0446339b9e82a363,2022-05-11_21h20.54.886,classification_task,2021.2.3,Win32,59.81934558,627c6715c52fd12f31907bcf,,,,,,,,,,,,,,,,,,,,,,,l,0,4.9937,"[""0.253"",""0.328"",""0.609"",""0.906""]","[1,1,0,1]",0,14,14,14,1,0,1,,,1,FALSE,,,,,,,,,,,,,,,,,,,,,,,,,,,,,,,
,613a4b42362385920cddff76,627c6edb0446339b9e82a363,2022-05-11_21h20.54.886,classification_task,2021.2.3,Win32,59.81934558,627c6715c52fd12f31907bcf,,,,,,,,,,,,,,,,,,,,,,,a,1,7.4618,"[""0.075"",""0.328"",""0.724"",""0.906""]","[0,1,1,1]",0,15,15,15,1,0,1,,,1,FALSE,,,,,,,,,,,,,,,,,,,,,,,,,,,,,,,
,613a4b42362385920cddff76,627c6edb0446339b9e82a363,2022-05-11_21h20.54.886,classification_task,2021.2.3,Win32,59.81934558,627c6715c52fd12f31907bcf,,,,,,,,,,,,,,,,,,,,,,,l,0,3.2888,"[""0.195"",""0.488"",""0.609"",""0.959""]","[1,1,0,1]",0,16,16,16,1,0,0,,,1,FALSE,,,,,,,,,,,,,,,,,,,,,,,,,,,,,,,
,613a4b42362385920cddff76,627c6edb0446339b9e82a363,2022-05-11_21h20.54.886,classification_task,2021.2.3,Win32,59.81934558,627c6715c52fd12f31907bcf,,,,,,,,,,,,,,,,,,,,,,,a,1,0.7758,"[""0.253"",""0.328"",""0.602"",""0.906""]","[1,1,0,1]",0,17,17,17,1,0,1,,,1,FALSE,,,,,,,,,,,,,,,,,,,,,,,,,,,,,,,
,613a4b42362385920cddff76,627c6edb0446339b9e82a363,2022-05-11_21h20.54.886,classification_task,2021.2.3,Win32,59.81934558,627c6715c52fd12f31907bcf,,,,,,,,,,,,,,,,,,,,,,,l,0,1.2365,"[""0.195"",""0.093"",""0.867"",""0.959""]","[1,0,1,1]",0,18,18,18,1,0,0,,,1,FALSE,,,,,,,,,,,,,,,,,,,,,,,,,,,,,,,
,613a4b42362385920cddff76,627c6edb0446339b9e82a363,2022-05-11_21h20.54.886,classification_task,2021.2.3,Win32,59.81934558,627c6715c52fd12f31907bcf,,,,,,,,,,,,,,,,,,,,,,,a,1,1.7151,"[""0.092"",""0.328"",""0.724"",""0.906""]","[0,1,1,1]",0,19,19,19,1,0,1,,,1,FALSE,,,,,,,,,,,,,,,,,,,,,,,,,,,,,,,
,613a4b42362385920cddff76,627c6edb0446339b9e82a363,2022-05-11_21h20.54.886,classification_task,2021.2.3,Win32,59.81934558,627c6715c52fd12f31907bcf,,,,,,,,,,,,,,,,,,,,,,,a,1,2.789,"[""0.253"",""0.592"",""0.724"",""0.906""]","[1,0,1,1]",0,20,20,20,1,0,1,,,1,FALSE,,,,,,,,,,,,,,,,,,,,,,,,,,,,,,,
,613a4b42362385920cddff76,627c6edb0446339b9e82a363,2022-05-11_21h20.54.886,classification_task,2021.2.3,Win32,59.81934558,627c6715c52fd12f31907bcf,,,,,,,,,,,,,,,,,,,,,,,l,1,2.3257,"[""0.149"",""0.592"",""0.660"",""0.816""]","[1,0,1,1]",0,21,21,21,1,1,0,,,1,FALSE,,,,,,,,,,,,,,,,,,,,,,,,,,,,,,,
,613a4b42362385920cddff76,627c6edb0446339b9e82a363,2022-05-11_21h20.54.886,classification_task,2021.2.3,Win32,59.81934558,627c6715c52fd12f31907bcf,,,,,,,,,,,,,,,,,,,,,,,a,0,1.2274,"[""0.028"",""0.602"",""0.554"",""0.760""]","[1,0,1,1]",0,22,22,22,1,1,1,,,1,FALSE,,,,,,,,,,,,,,,,,,,,,,,,,,,,,,,
,613a4b42362385920cddff76,627c6edb0446339b9e82a363,2022-05-11_21h20.54.886,classification_task,2021.2.3,Win32,59.81934558,627c6715c52fd12f31907bcf,,,,,,,,,,,,,,,,,,,,,,,a,1,1.3912,"[""0.195"",""0.488"",""0.867"",""0.076""]","[1,1,1,0]",0,23,23,23,1,0,0,,,1,FALSE,,,,,,,,,,,,,,,,,,,,,,,,,,,,,,,
,613a4b42362385920cddff76,627c6edb0446339b9e82a363,2022-05-11_21h20.54.886,classification_task,2021.2.3,Win32,59.81934558,627c6715c52fd12f31907bcf,,,,,,,,,,,,,,,,,,,,,,,l,1,3.737,"[""0.149"",""0.362"",""0.602"",""0.816""]","[1,1,0,1]",0,24,24,24,1,1,0,,,1,FALSE,,,,,,,,,,,,,,,,,,,,,,,,,,,,,,,
,613a4b42362385920cddff76,627c6edb0446339b9e82a363,2022-05-11_21h20.54.886,classification_task,2021.2.3,Win32,59.81934558,627c6715c52fd12f31907bcf,,,,,,,,,,,,,,,,,,,,,,,l,1,3.159,"[""0.149"",""0.362"",""0.660"",""0.076""]","[1,1,1,0]",0,25,25,25,1,1,0,,,1,FALSE,,,,,,,,,,,,,,,,,,,,,,,,,,,,,,,
,613a4b42362385920cddff76,627c6edb0446339b9e82a363,2022-05-11_21h20.54.886,classification_task,2021.2.3,Win32,59.81934558,627c6715c52fd12f31907bcf,,,,,,,,,,,,,,,,,,,,,,,a,0,1.0843,"[""0.028"",""0.421"",""0.088"",""0.760""]","[1,1,0,1]",0,26,26,26,1,1,1,,,1,FALSE,,,,,,,,,,,,,,,,,,,,,,,,,,,,,,,
,613a4b42362385920cddff76,627c6edb0446339b9e82a363,2022-05-11_21h20.54.886,classification_task,2021.2.3,Win32,59.81934558,627c6715c52fd12f31907bcf,,,,,,,,,,,,,,,,,,,,,,,l,0,1.3848,"[""0.094"",""0.488"",""0.867"",""0.959""]","[0,1,1,1]",0,27,27,27,1,0,0,,,1,FALSE,,,,,,,,,,,,,,,,,,,,,,,,,,,,,,,
,613a4b42362385920cddff76,627c6edb0446339b9e82a363,2022-05-11_21h20.54.886,classification_task,2021.2.3,Win32,59.81934558,627c6715c52fd12f31907bcf,,,,,,,,,,,,,,,,,,,,,,,l,1,2.0012,"[""0.028"",""0.421"",""0.554"",""0.294""]","[1,1,1,0]",0,28,28,28,1,1,1,,,1,FALSE,,,,,,,,,,,,,,,,,,,,,,,,,,,,,,,
,613a4b42362385920cddff76,627c6edb0446339b9e82a363,2022-05-11_21h20.54.886,classification_task,2021.2.3,Win32,59.81934558,627c6715c52fd12f31907bcf,,,,,,,,,,,,,,,,,,,,,,,a,0,2.5887,"[""0.076"",""0.421"",""0.554"",""0.760""]","[0,1,1,1]",0,29,29,29,1,1,1,,,1,FALSE,,,,,,,,,,,,,,,,,,,,,,,,,,,,,,,
,613a4b42362385920cddff76,627c6edb0446339b9e82a363,2022-05-11_21h20.54.886,classification_task,2021.2.3,Win32,59.81934558,627c6715c52fd12f31907bcf,,,,,,,,,,,,,,,,,,,,,,,l,1,0.9131,"[""0.090"",""0.362"",""0.660"",""0.816""]","[0,1,1,1]",0,30,30,30,1,1,0,,,1,FALSE,,,,,,,,,,,,,,,,,,,,,,,,,,,,,,,
,613a4b42362385920cddff76,627c6edb0446339b9e82a363,2022-05-11_21h20.54.886,classification_task,2021.2.3,Win32,59.81934558,627c6715c52fd12f31907bcf,,,,,,,,,,,,,,,,,,,,,,,l,0,1.6233,"[""0.253"",""0.328"",""0.724"",""0.592""]","[1,1,1,0]",0,31,31,31,1,0,1,,,1,FALSE,,,,,,,,,,,,,,,,,,,,,,,,,,,,,,,
,613a4b42362385920cddff76,627c6edb0446339b9e82a363,2022-05-11_21h20.54.886,classification_task,2021.2.3,Win32,59.81934558,627c6715c52fd12f31907bcf,,,,,,,,,,,,,,,,,,,,,,,a,1,1.3958,"[""0.253"",""0.328"",""0.724"",""0.294""]","[1,1,1,0]",0,32,32,32,1,0,1,,,1,FALSE,,,,,,,,,,,,,,,,,,,,,,,,,,,,,,,
,613a4b42362385920cddff76,627c6edb0446339b9e82a363,2022-05-11_21h20.54.886,classification_task,2021.2.3,Win32,59.81934558,627c6715c52fd12f31907bcf,,,,,,,,,,,,,,,,,,,,,,,a,0,1.2352,"[""0.602"",""0.362"",""0.660"",""0.816""]","[0,1,1,1]",0,33,33,33,1,1,0,,,1,FALSE,,,,,,,,,,,,,,,,,,,,,,,,,,,,,,,
,613a4b42362385920cddff76,627c6edb0446339b9e82a363,2022-05-11_21h20.54.886,classification_task,2021.2.3,Win32,59.81934558,627c6715c52fd12f31907bcf,,,,,,,,,,,,,,,,,,,,,,,l,0,0.5308,"[""0.076"",""0.488"",""0.867"",""0.959""]","[0,1,1,1]",0,34,34,34,1,0,0,,,1,FALSE,,,,,,,,,,,,,,,,,,,,,,,,,,,,,,,
,613a4b42362385920cddff76,627c6edb0446339b9e82a363,2022-05-11_21h20.54.886,classification_task,2021.2.3,Win32,59.81934558,627c6715c52fd12f31907bcf,,,,,,,,,,,,,,,,,,,,,,,a,0,1.9227,"[""0.149"",""0.362"",""0.592"",""0.816""]","[1,1,0,1]",0,35,35,35,1,1,0,,,1,FALSE,,,,,,,,,,,,,,,,,,,,,,,,,,,,,,,
,613a4b42362385920cddff76,627c6edb0446339b9e82a363,2022-05-11_21h20.54.886,classification_task,2021.2.3,Win32,59.81934558,627c6715c52fd12f31907bcf,,,,,,,,,,,,,,,,,,,,,,,l,1,1.3457,"[""0.028"",""0.421"",""0.084"",""0.760""]","[1,1,0,1]",0,36,36,36,1,1,1,,,1,FALSE,,,,,,,,,,,,,,,,,,,,,,,,,,,,,,,
,613a4b42362385920cddff76,627c6edb0446339b9e82a363,2022-05-11_21h20.54.886,classification_task,2021.2.3,Win32,59.81934558,627c6715c52fd12f31907bcf,,,,,,,,,,,,,,,,,,,,,,,l,0,1.9226,"[""0.088"",""0.328"",""0.724"",""0.906""]","[0,1,1,1]",0,37,37,37,1,0,1,,,1,FALSE,,,,,,,,,,,,,,,,,,,,,,,,,,,,,,,
,613a4b42362385920cddff76,627c6edb0446339b9e82a363,2022-05-11_21h20.54.886,classification_task,2021.2.3,Win32,59.81934558,627c6715c52fd12f31907bcf,,,,,,,,,,,,,,,,,,,,,,,a,1,1.403,"[""0.195"",""0.613"",""0.867"",""0.959""]","[1,0,1,1]",0,38,38,38,1,0,0,,,1,FALSE,,,,,,,,,,,,,,,,,,,,,,,,,,,,,,,
,613a4b42362385920cddff76,627c6edb0446339b9e82a363,2022-05-11_21h20.54.886,classification_task,2021.2.3,Win32,59.81934558,627c6715c52fd12f31907bcf,,,,,,,,,,,,,,,,,,,,,,,a,1,5.1564,"[""0.253"",""0.090"",""0.724"",""0.906""]","[1,0,1,1]",0,39,39,39,1,0,1,,,1,FALSE,,,,,,,,,,,,,,,,,,,,,,,,,,,,,,,
,613a4b42362385920cddff76,627c6edb0446339b9e82a363,2022-05-11_21h20.54.886,classification_task,2021.2.3,Win32,59.81934558,627c6715c52fd12f31907bcf,,,,,,,,,,,,,,,,,,,,,,,l,1,1.1695,"[""0.609"",""0.421"",""0.554"",""0.760""]","[0,1,1,1]",0,40,40,40,1,1,1,,,1,FALSE,,,,,,,,,,,,,,,,,,,,,,,,,,,,,,,
,613a4b42362385920cddff76,627c6edb0446339b9e82a363,2022-05-11_21h20.54.886,classification_task,2021.2.3,Win32,59.81934558,627c6715c52fd12f31907bcf,,,,,,,,,,,,,,,,,,,,,,,a,0,2.842,"[""0.149"",""0.088"",""0.660"",""0.816""]","[1,0,1,1]",0,41,41,41,1,1,0,,,1,FALSE,,,,,,,,,,,,,,,,,,,,,,,,,,,,,,,
,613a4b42362385920cddff76,627c6edb0446339b9e82a363,2022-05-11_21h20.54.886,classification_task,2021.2.3,Win32,59.81934558,627c6715c52fd12f31907bcf,,,,,,,,,,,,,,,,,,,,,,,a,1,2.5828,"[""0.195"",""0.488"",""0.607"",""0.959""]","[1,1,0,1]",0,42,42,42,1,0,0,,,1,FALSE,,,,,,,,,,,,,,,,,,,,,,,,,,,,,,,
,613a4b42362385920cddff76,627c6edb0446339b9e82a363,2022-05-11_21h20.54.886,classification_task,2021.2.3,Win32,59.81934558,627c6715c52fd12f31907bcf,,,,,,,,,,,,,,,,,,,,,,,a,1,8.5628,"[""0.253"",""0.328"",""0.092"",""0.906""]","[1,1,0,1]",0,43,43,43,1,0,1,,,1,FALSE,,,,,,,,,,,,,,,,,,,,,,,,,,,,,,,
,613a4b42362385920cddff76,627c6edb0446339b9e82a363,2022-05-11_21h20.54.886,classification_task,2021.2.3,Win32,59.81934558,627c6715c52fd12f31907bcf,,,,,,,,,,,,,,,,,,,,,,,l,1,1.4022,"[""0.028"",""0.421"",""0.554"",""0.602""]","[1,1,1,0]",0,44,44,44,1,1,1,,,1,FALSE,,,,,,,,,,,,,,,,,,,,,,,,,,,,,,,
,613a4b42362385920cddff76,627c6edb0446339b9e82a363,2022-05-11_21h20.54.886,classification_task,2021.2.3,Win32,59.81934558,627c6715c52fd12f31907bcf,,,,,,,,,,,,,,,,,,,,,,,l,1,1.2144,"[""0.028"",""0.088"",""0.554"",""0.760""]","[1,0,1,1]",0,45,45,45,1,1,1,,,1,FALSE,,,,,,,,,,,,,,,,,,,,,,,,,,,,,,,
,613a4b42362385920cddff76,627c6edb0446339b9e82a363,2022-05-11_21h20.54.886,classification_task,2021.2.3,Win32,59.81934558,627c6715c52fd12f31907bcf,,,,,,,,,,,,,,,,,,,,,,,l,1,1.6995,"[""0.149"",""0.362"",""0.660"",""0.607""]","[1,1,1,0]",0,46,46,46,1,1,0,,,1,FALSE,,,,,,,,,,,,,,,,,,,,,,,,,,,,,,,
,613a4b42362385920cddff76,627c6edb0446339b9e82a363,2022-05-11_21h20.54.886,classification_task,2021.2.3,Win32,59.81934558,627c6715c52fd12f31907bcf,,,,,,,,,,,,,,,,,,,,,,,a,1,1.558,"[""0.195"",""0.488"",""0.867"",""0.084""]","[1,1,1,0]",0,47,47,47,1,0,0,,,1,FALSE,,,,,,,,,,,,,,,,,,,,,,,,,,,,,,,
,613a4b42362385920cddff76,627c6edb0446339b9e82a363,2022-05-11_21h20.54.886,classification_task,2021.2.3,Win32,59.81934558,627c6715c52fd12f31907bcf,,,,,,,,,,,,,,,,,,,,,,,a,1,1.9461,"[""0.195"",""0.088"",""0.867"",""0.959""]","[1,0,1,1]",0,48,48,48,1,0,0,,,1,FALSE,,,,,,,,,,,,,,,,,,,,,,,,,,,,,,,
,613a4b42362385920cddff76,627c6edb0446339b9e82a363,2022-05-11_21h20.54.886,classification_task,2021.2.3,Win32,59.81934558,627c6715c52fd12f31907bcf,,,,,,,,,,,,,,,,,,,,,,,a,0,1.1416,"[""0.028"",""0.421"",""0.554"",""0.075""]","[1,1,1,0]",0,49,49,49,1,1,1,,,1,FALSE,,,,,,,,,,,,,,,,,,,,,,,,,,,,,,,
,613a4b42362385920cddff76,627c6edb0446339b9e82a363,2022-05-11_21h20.54.886,classification_task,2021.2.3,Win32,59.81934558,627c6715c52fd12f31907bcf,,,,,,,,,,,,,,,,,,,,,,,l,1,0.559,"[""0.149"",""0.362"",""0.613"",""0.816""]","[1,1,0,1]",0,50,50,50,1,1,0,,,1,FALSE,,,,,,,,,,,,,,,,,,,,,,,,,,,,,,,
,613a4b42362385920cddff76,627c6edb0446339b9e82a363,2022-05-11_21h20.54.886,classification_task,2021.2.3,Win32,59.81934558,627c6715c52fd12f31907bcf,,,,,,,,,,,,,,,,,,,,,,,l,0,1.5554,"[""0.253"",""0.093"",""0.724"",""0.906""]","[1,0,1,1]",0,51,51,51,1,0,1,,,1,FALSE,,,,,,,,,,,,,,,,,,,,,,,,,,,,,,,
,613a4b42362385920cddff76,627c6edb0446339b9e82a363,2022-05-11_21h20.54.886,classification_task,2021.2.3,Win32,59.81934558,627c6715c52fd12f31907bcf,,,,,,,,,,,,,,,,,,,,,,,a,0,1.7604,"[""0.090"",""0.362"",""0.660"",""0.816""]","[0,1,1,1]",0,52,52,52,1,1,0,,,1,FALSE,,,,,,,,,,,,,,,,,,,,,,,,,,,,,,,
,613a4b42362385920cddff76,627c6edb0446339b9e82a363,2022-05-11_21h20.54.886,classification_task,2021.2.3,Win32,59.81934558,627c6715c52fd12f31907bcf,,,,,,,,,,,,,,,,,,,,,,,l,1,1.5214,"[""0.028"",""0.294"",""0.554"",""0.760""]","[1,0,1,1]",0,53,53,53,1,1,1,,,1,FALSE,,,,,,,,,,,,,,,,,,,,,,,,,,,,,,,
,613a4b42362385920cddff76,627c6edb0446339b9e82a363,2022-05-11_21h20.54.886,classification_task,2021.2.3,Win32,59.81934558,627c6715c52fd12f31907bcf,,,,,,,,,,,,,,,,,,,,,,,l,1,4.628,"[""0.609"",""0.421"",""0.554"",""0.760""]","[0,1,1,1]",0,54,54,54,1,1,1,,,1,FALSE,,,,,,,,,,,,,,,,,,,,,,,,,,,,,,,
,613a4b42362385920cddff76,627c6edb0446339b9e82a363,2022-05-11_21h20.54.886,classification_task,2021.2.3,Win32,59.81934558,627c6715c52fd12f31907bcf,,,,,,,,,,,,,,,,,,,,,,,a,0,0.9092,"[""0.149"",""0.362"",""0.660"",""0.090""]","[1,1,1,0]",0,55,55,55,1,1,0,,,1,FALSE,,,,,,,,,,,,,,,,,,,,,,,,,,,,,,,
,613a4b42362385920cddff76,627c6edb0446339b9e82a363,2022-05-11_21h20.54.886,classification_task,2021.2.3,Win32,59.81934558,627c6715c52fd12f31907bcf,,,,,,,,,,,,,,,,,,,,,,,l,1,0.7265,"[""0.028"",""0.421"",""0.607"",""0.760""]","[1,1,0,1]",0,56,56,56,1,1,1,,,1,FALSE,,,,,,,,,,,,,,,,,,,,,,,,,,,,,,,
,613a4b42362385920cddff76,627c6edb0446339b9e82a363,2022-05-11_21h20.54.886,classification_task,2021.2.3,Win32,59.81934558,627c6715c52fd12f31907bcf,,,,,,,,,,,,,,,,,,,,,,,l,0,0.6125,"[""0.094"",""0.488"",""0.867"",""0.959""]","[0,1,1,1]",0,57,57,57,1,0,0,,,1,FALSE,,,,,,,,,,,,,,,,,,,,,,,,,,,,,,,
,613a4b42362385920cddff76,627c6edb0446339b9e82a363,2022-05-11_21h20.54.886,classification_task,2021.2.3,Win32,59.81934558,627c6715c52fd12f31907bcf,,,,,,,,,,,,,,,,,,,,,,,l,1,0.2834,"[""0.149"",""0.088"",""0.660"",""0.816""]","[1,0,1,1]",0,58,58,58,1,1,0,,,1,FALSE,,,,,,,,,,,,,,,,,,,,,,,,,,,,,,,
,613a4b42362385920cddff76,627c6edb0446339b9e82a363,2022-05-11_21h20.54.886,classification_task,2021.2.3,Win32,59.81934558,627c6715c52fd12f31907bcf,,,,,,,,,,,,,,,,,,,,,,,a,1,1.5421,"[""0.090"",""0.328"",""0.724"",""0.906""]","[0,1,1,1]",0,59,59,59,1,0,1,,,1,FALSE,,,,,,,,,,,,,,,,,,,,,,,,,,,,,,,
,613a4b42362385920cddff76,627c6edb0446339b9e82a363,2022-05-11_21h20.54.886,classification_task,2021.2.3,Win32,59.81934558,627c6715c52fd12f31907bcf,,,,,,,,,,,,,,,,,,,,,,,l,0,1.1952,"[""0.253"",""0.328"",""0.613"",""0.906""]","[1,1,0,1]",0,60,60,60,1,0,1,,,1,FALSE,,,,,,,,,,,,,,,,,,,,,,,,,,,,,,,
,613a4b42362385920cddff76,627c6edb0446339b9e82a363,2022-05-11_21h20.54.886,classification_task,2021.2.3,Win32,59.81934558,627c6715c52fd12f31907bcf,,,,,,,,,,,,,,,,,,,,,,,a,1,2.2924,"[""0.195"",""0.488"",""0.867"",""0.602""]","[1,1,1,0]",0,61,61,61,1,0,0,,,1,FALSE,,,,,,,,,,,,,,,,,,,,,,,,,,,,,,,
,613a4b42362385920cddff76,627c6edb0446339b9e82a363,2022-05-11_21h20.54.886,classification_task,2021.2.3,Win32,59.81934558,627c6715c52fd12f31907bcf,,,,,,,,,,,,,,,,,,,,,,,l,0,2.4004,"[""0.253"",""0.328"",""0.724"",""0.088""]","[1,1,1,0]",0,62,62,62,1,0,1,,,1,FALSE,,,,,,,,,,,,,,,,,,,,,,,,,,,,,,,
,613a4b42362385920cddff76,627c6edb0446339b9e82a363,2022-05-11_21h20.54.886,classification_task,2021.2.3,Win32,59.81934558,627c6715c52fd12f31907bcf,,,,,,,,,,,,,,,,,,,,,,,l,0,3.0686,"[""0.195"",""0.488"",""0.090"",""0.959""]","[1,1,0,1]",0,63,63,63,1,0,0,,,1,FALSE,,,,,,,,,,,,,,,,,,,,,,,,,,,,,,,
,613a4b42362385920cddff76,627c6edb0446339b9e82a363,2022-05-11_21h20.54.886,classification_task,2021.2.3,Win32,59.81934558,627c6715c52fd12f31907bcf,,,,,,,,,,,,,,,,,,,,,,,,,,,,,,,,,,,,,,,0, ,,0,7.82462522,384.0384,0,1,1,1,1,2,2,,,,,,,,,,,,,,,,,,
,613a4b42362385920cddff76,627c6edb0446339b9e82a363,2022-05-11_21h20.54.886,classification_task,2021.2.3,Win32,59.81934558,627c6715c52fd12f31907bcf,,,,,,,,,,,,,,,,,,,,,,,,,,,,,,,,,,,,,,,1,  ,,0,8.479111552,385.0464,0,1,1,1,1,2,2,,,,,,,,,,,,,,,,,,
,613a4b42362385920cddff76,627c6edb0446339b9e82a363,2022-05-11_21h20.54.886,classification_task,2021.2.3,Win32,59.81934558,627c6715c52fd12f31907bcf,,,,,,,,,,,,,,,,,,,,,,,,,,,,,,,,,,,,,,,2,  ,,0,8.134645062,385.9665,0,1,1,1,1,2,2,,,,,,,,,,,,,,,,,,
,613a4b42362385920cddff76,627c6edb0446339b9e82a363,2022-05-11_21h20.54.886,classification_task,2021.2.3,Win32,59.81934558,627c6715c52fd12f31907bcf,,,,,,,,,,,,,,,,,,,,,,,,,,,,,,,,,,,,,,,,,,,,,0,1,1,1,1,,2,,,,,,,,,,,,,,,,,,
,613a4b42362385920cddff76,627c6edb0446339b9e82a363,2022-05-11_21h20.54.886,classification_task,2021.2.3,Win32,59.81934558,627c6715c52fd12f31907bcf,,,,,,,,,,,,,,,,,,,,,space,17.4099,a,0,1.9541,"[""0.028"",""0.084"",""0.554"",""0.760""]","[1,0,1,1]",0,0,0,0,1,1,1,,,1,FALSE,,,,,,,,,,,,,,,,,,,,,,,,,,,,,,,
,613a4b42362385920cddff76,627c6edb0446339b9e82a363,2022-05-11_21h20.54.886,classification_task,2021.2.3,Win32,59.81934558,627c6715c52fd12f31907bcf,,,,,,,,,,,,,,,,,,,,,,,l,0,1.9295,"[""0.607"",""0.488"",""0.867"",""0.959""]","[0,1,1,1]",0,1,1,1,1,0,0,,,1,FALSE,,,,,,,,,,,,,,,,,,,,,,,,,,,,,,,
,613a4b42362385920cddff76,627c6edb0446339b9e82a363,2022-05-11_21h20.54.886,classification_task,2021.2.3,Win32,59.81934558,627c6715c52fd12f31907bcf,,,,,,,,,,,,,,,,,,,,,,,a,0,2.2404,"[""0.149"",""0.362"",""0.660"",""0.613""]","[1,1,1,0]",0,2,2,2,1,1,0,,,1,FALSE,,,,,,,,,,,,,,,,,,,,,,,,,,,,,,,
,613a4b42362385920cddff76,627c6edb0446339b9e82a363,2022-05-11_21h20.54.886,classification_task,2021.2.3,Win32,59.81934558,627c6715c52fd12f31907bcf,,,,,,,,,,,,,,,,,,,,,,,l,0,1.6495,"[""0.195"",""0.488"",""0.607"",""0.959""]","[1,1,0,1]",0,3,3,3,1,0,0,,,1,FALSE,,,,,,,,,,,,,,,,,,,,,,,,,,,,,,,
,613a4b42362385920cddff76,627c6edb0446339b9e82a363,2022-05-11_21h20.54.886,classification_task,2021.2.3,Win32,59.81934558,627c6715c52fd12f31907bcf,,,,,,,,,,,,,,,,,,,,,,,l,0,1.9723,"[""0.253"",""0.092"",""0.724"",""0.906""]","[1,0,1,1]",0,4,4,4,1,0,1,,,1,FALSE,,,,,,,,,,,,,,,,,,,,,,,,,,,,,,,
,613a4b42362385920cddff76,627c6edb0446339b9e82a363,2022-05-11_21h20.54.886,classification_task,2021.2.3,Win32,59.81934558,627c6715c52fd12f31907bcf,,,,,,,,,,,,,,,,,,,,,,,a,0,1.6822,"[""0.084"",""0.362"",""0.660"",""0.816""]","[0,1,1,1]",0,5,5,5,1,1,0,,,1,FALSE,,,,,,,,,,,,,,,,,,,,,,,,,,,,,,,
,613a4b42362385920cddff76,627c6edb0446339b9e82a363,2022-05-11_21h20.54.886,classification_task,2021.2.3,Win32,59.81934558,627c6715c52fd12f31907bcf,,,,,,,,,,,,,,,,,,,,,,,a,0,2.3083,"[""0.149"",""0.613"",""0.660"",""0.816""]","[1,0,1,1]",0,6,6,6,1,1,0,,,1,FALSE,,,,,,,,,,,,,,,,,,,,,,,,,,,,,,,
,613a4b42362385920cddff76,627c6edb0446339b9e82a363,2022-05-11_21h20.54.886,classification_task,2021.2.3,Win32,59.81934558,627c6715c52fd12f31907bcf,,,,,,,,,,,,,,,,,,,,,,,l,1,2.5362,"[""0.149"",""0.362"",""0.090"",""0.816""]","[1,1,0,1]",0,7,7,7,1,1,0,,,1,FALSE,,,,,,,,,,,,,,,,,,,,,,,,,,,,,,,
,613a4b42362385920cddff76,627c6edb0446339b9e82a363,2022-05-11_21h20.54.886,classification_task,2021.2.3,Win32,59.81934558,627c6715c52fd12f31907bcf,,,,,,,,,,,,,,,,,,,,,,,a,1,1.2352,"[""0.607"",""0.328"",""0.724"",""0.906""]","[0,1,1,1]",0,8,8,8,1,0,1,,,1,FALSE,,,,,,,,,,,,,,,,,,,,,,,,,,,,,,,
,613a4b42362385920cddff76,627c6edb0446339b9e82a363,2022-05-11_21h20.54.886,classification_task,2021.2.3,Win32,59.81934558,627c6715c52fd12f31907bcf,,,,,,,,,,,,,,,,,,,,,,,l,1,1.2895,"[""0.028"",""0.421"",""0.554"",""0.090""]","[1,1,1,0]",0,9,9,9,1,1,1,,,1,FALSE,,,,,,,,,,,,,,,,,,,,,,,,,,,,,,,
,613a4b42362385920cddff76,627c6edb0446339b9e82a363,2022-05-11_21h20.54.886,classification_task,2021.2.3,Win32,59.81934558,627c6715c52fd12f31907bcf,,,,,,,,,,,,,,,,,,,,,,,a,1,1.3215,"[""0.253"",""0.328"",""0.093"",""0.906""]","[1,1,0,1]",0,10,10,10,1,0,1,,,1,FALSE,,,,,,,,,,,,,,,,,,,,,,,,,,,,,,,
,613a4b42362385920cddff76,627c6edb0446339b9e82a363,2022-05-11_21h20.54.886,classification_task,2021.2.3,Win32,59.81934558,627c6715c52fd12f31907bcf,,,,,,,,,,,,,,,,,,,,,,,,0,,"[""0.613"",""0.421"",""0.554"",""0.760""]","[0,1,1,1]",0,11,11,11,1,1,1,,,1,FALSE,,,,,,,,,,,,,,,,,,,,,,,,,,,,,,,
,613a4b42362385920cddff76,627c6edb0446339b9e82a363,2022-05-11_21h20.54.886,classification_task,2021.2.3,Win32,59.81934558,627c6715c52fd12f31907bcf,,,,,,,,,,,,,,,,,,,,,,,a,1,1.7804,"[""0.195"",""0.488"",""0.867"",""0.607""]","[1,1,1,0]",0,12,12,12,1,0,0,,,1,FALSE,,,,,,,,,,,,,,,,,,,,,,,,,,,,,,,
,613a4b42362385920cddff76,627c6edb0446339b9e82a363,2022-05-11_21h20.54.886,classification_task,2021.2.3,Win32,59.81934558,627c6715c52fd12f31907bcf,,,,,,,,,,,,,,,,,,,,,,,l,1,1.2017,"[""0.028"",""0.421"",""0.294"",""0.760""]","[1,1,0,1]",0,13,13,13,1,1,1,,,1,FALSE,,,,,,,,,,,,,,,,,,,,,,,,,,,,,,,
,613a4b42362385920cddff76,627c6edb0446339b9e82a363,2022-05-11_21h20.54.886,classification_task,2021.2.3,Win32,59.81934558,627c6715c52fd12f31907bcf,,,,,,,,,,,,,,,,,,,,,,,l,0,2.41,"[""0.195"",""0.090"",""0.867"",""0.959""]","[1,0,1,1]",0,14,14,14,1,0,0,,,1,FALSE,,,,,,,,,,,,,,,,,,,,,,,,,,,,,,,
,613a4b42362385920cddff76,627c6edb0446339b9e82a363,2022-05-11_21h20.54.886,classification_task,2021.2.3,Win32,59.81934558,627c6715c52fd12f31907bcf,,,,,,,,,,,,,,,,,,,,,,,l,0,1.4496,"[""0.253"",""0.328"",""0.724"",""0.294""]","[1,1,1,0]",0,15,15,15,1,0,1,,,1,FALSE,,,,,,,,,,,,,,,,,,,,,,,,,,,,,,,
,613a4b42362385920cddff76,627c6edb0446339b9e82a363,2022-05-11_21h20.54.886,classification_task,2021.2.3,Win32,59.81934558,627c6715c52fd12f31907bcf,,,,,,,,,,,,,,,,,,,,,,,a,0,1.2866,"[""0.149"",""0.607"",""0.660"",""0.816""]","[1,0,1,1]",0,16,16,16,1,1,0,,,1,FALSE,,,,,,,,,,,,,,,,,,,,,,,,,,,,,,,
,613a4b42362385920cddff76,627c6edb0446339b9e82a363,2022-05-11_21h20.54.886,classification_task,2021.2.3,Win32,59.81934558,627c6715c52fd12f31907bcf,,,,,,,,,,,,,,,,,,,,,,,,0,,"[""0.195"",""0.488"",""0.088"",""0.959""]","[1,1,0,1]",0,17,17,17,1,0,0,,,1,FALSE,,,,,,,,,,,,,,,,,,,,,,,,,,,,,,,
,613a4b42362385920cddff76,627c6edb0446339b9e82a363,2022-05-11_21h20.54.886,classification_task,2021.2.3,Win32,59.81934558,627c6715c52fd12f31907bcf,,,,,,,,,,,,,,,,,,,,,,,a,0,2.7717,"[""0.028"",""0.609"",""0.554"",""0.760""]","[1,0,1,1]",0,18,18,18,1,1,1,,,1,FALSE,,,,,,,,,,,,,,,,,,,,,,,,,,,,,,,
,613a4b42362385920cddff76,627c6edb0446339b9e82a363,2022-05-11_21h20.54.886,classification_task,2021.2.3,Win32,59.81934558,627c6715c52fd12f31907bcf,,,,,,,,,,,,,,,,,,,,,,,l,1,0.5629,"[""0.028"",""0.421"",""0.294"",""0.760""]","[1,1,0,1]",0,19,19,19,1,1,1,,,1,FALSE,,,,,,,,,,,,,,,,,,,,,,,,,,,,,,,
,613a4b42362385920cddff76,627c6edb0446339b9e82a363,2022-05-11_21h20.54.886,classification_task,2021.2.3,Win32,59.81934558,627c6715c52fd12f31907bcf,,,,,,,,,,,,,,,,,,,,,,,a,0,3.1696,"[""0.149"",""0.362"",""0.660"",""0.613""]","[1,1,1,0]",0,20,20,20,1,1,0,,,1,FALSE,,,,,,,,,,,,,,,,,,,,,,,,,,,,,,,
,613a4b42362385920cddff76,627c6edb0446339b9e82a363,2022-05-11_21h20.54.886,classification_task,2021.2.3,Win32,59.81934558,627c6715c52fd12f31907bcf,,,,,,,,,,,,,,,,,,,,,,,l,0,1.9145,"[""0.609"",""0.328"",""0.724"",""0.906""]","[0,1,1,1]",0,21,21,21,1,0,1,,,1,FALSE,,,,,,,,,,,,,,,,,,,,,,,,,,,,,,,
,613a4b42362385920cddff76,627c6edb0446339b9e82a363,2022-05-11_21h20.54.886,classification_task,2021.2.3,Win32,59.81934558,627c6715c52fd12f31907bcf,,,,,,,,,,,,,,,,,,,,,,,a,1,1.9893,"[""0.088"",""0.488"",""0.867"",""0.959""]","[0,1,1,1]",0,22,22,22,1,0,0,,,1,FALSE,,,,,,,,,,,,,,,,,,,,,,,,,,,,,,,
,613a4b42362385920cddff76,627c6edb0446339b9e82a363,2022-05-11_21h20.54.886,classification_task,2021.2.3,Win32,59.81934558,627c6715c52fd12f31907bcf,,,,,,,,,,,,,,,,,,,,,,,a,1,1.3136,"[""0.195"",""0.613"",""0.867"",""0.959""]","[1,0,1,1]",0,23,23,23,1,0,0,,,1,FALSE,,,,,,,,,,,,,,,,,,,,,,,,,,,,,,,
,613a4b42362385920cddff76,627c6edb0446339b9e82a363,2022-05-11_21h20.54.886,classification_task,2021.2.3,Win32,59.81934558,627c6715c52fd12f31907bcf,,,,,,,,,,,,,,,,,,,,,,,,0,,"[""0.028"",""0.421"",""0.554"",""0.607""]","[1,1,1,0]",0,24,24,24,1,1,1,,,1,FALSE,,,,,,,,,,,,,,,,,,,,,,,,,,,,,,,
,613a4b42362385920cddff76,627c6edb0446339b9e82a363,2022-05-11_21h20.54.886,classification_task,2021.2.3,Win32,59.81934558,627c6715c52fd12f31907bcf,,,,,,,,,,,,,,,,,,,,,,,,0,,"[""0.592"",""0.421"",""0.554"",""0.760""]","[0,1,1,1]",0,25,25,25,1,1,1,,,1,FALSE,,,,,,,,,,,,,,,,,,,,,,,,,,,,,,,
,613a4b42362385920cddff76,627c6edb0446339b9e82a363,2022-05-11_21h20.54.886,classification_task,2021.2.3,Win32,59.81934558,627c6715c52fd12f31907bcf,,,,,,,,,,,,,,,,,,,,,,,l,1,0.5102,"[""0.075"",""0.362"",""0.660"",""0.816""]","[0,1,1,1]",0,26,26,26,1,1,0,,,1,FALSE,,,,,,,,,,,,,,,,,,,,,,,,,,,,,,,
,613a4b42362385920cddff76,627c6edb0446339b9e82a363,2022-05-11_21h20.54.886,classification_task,2021.2.3,Win32,59.81934558,627c6715c52fd12f31907bcf,,,,,,,,,,,,,,,,,,,,,,,a,0,0.5761,"[""0.149"",""0.362"",""0.592"",""0.816""]","[1,1,0,1]",0,27,27,27,1,1,0,,,1,FALSE,,,,,,,,,,,,,,,,,,,,,,,,,,,,,,,
,613a4b42362385920cddff76,627c6edb0446339b9e82a363,2022-05-11_21h20.54.886,classification_task,2021.2.3,Win32,59.81934558,627c6715c52fd12f31907bcf,,,,,,,,,,,,,,,,,,,,,,,l,0,1.0766,"[""0.253"",""0.328"",""0.613"",""0.906""]","[1,1,0,1]",0,28,28,28,1,0,1,,,1,FALSE,,,,,,,,,,,,,,,,,,,,,,,,,,,,,,,
,613a4b42362385920cddff76,627c6edb0446339b9e82a363,2022-05-11_21h20.54.886,classification_task,2021.2.3,Win32,59.81934558,627c6715c52fd12f31907bcf,,,,,,,,,,,,,,,,,,,,,,,a,1,7.0374,"[""0.253"",""0.076"",""0.724"",""0.906""]","[1,0,1,1]",0,29,29,29,1,0,1,,,1,FALSE,,,,,,,,,,,,,,,,,,,,,,,,,,,,,,,
,613a4b42362385920cddff76,627c6edb0446339b9e82a363,2022-05-11_21h20.54.886,classification_task,2021.2.3,Win32,59.81934558,627c6715c52fd12f31907bcf,,,,,,,,,,,,,,,,,,,,,,,l,0,1.1959,"[""0.195"",""0.488"",""0.867"",""0.609""]","[1,1,1,0]",0,30,30,30,1,0,0,,,1,FALSE,,,,,,,,,,,,,,,,,,,,,,,,,,,,,,,
,613a4b42362385920cddff76,627c6edb0446339b9e82a363,2022-05-11_21h20.54.886,classification_task,2021.2.3,Win32,59.81934558,627c6715c52fd12f31907bcf,,,,,,,,,,,,,,,,,,,,,,,a,1,2.4955,"[""0.253"",""0.328"",""0.724"",""0.088""]","[1,1,1,0]",0,31,31,31,1,0,1,,,1,FALSE,,,,,,,,,,,,,,,,,,,,,,,,,,,,,,,
,613a4b42362385920cddff76,627c6edb0446339b9e82a363,2022-05-11_21h20.54.886,classification_task,2021.2.3,Win32,59.81934558,627c6715c52fd12f31907bcf,,,,,,,,,,,,,,,,,,,,,,,,0,,"[""0.195"",""0.488"",""0.602"",""0.959""]","[1,1,0,1]",0,32,32,32,1,0,0,,,1,FALSE,,,,,,,,,,,,,,,,,,,,,,,,,,,,,,,
,613a4b42362385920cddff76,627c6edb0446339b9e82a363,2022-05-11_21h20.54.886,classification_task,2021.2.3,Win32,59.81934558,627c6715c52fd12f31907bcf,,,,,,,,,,,,,,,,,,,,,,,l,0,3.2368,"[""0.253"",""0.328"",""0.724"",""0.592""]","[1,1,1,0]",0,33,33,33,1,0,1,,,1,FALSE,,,,,,,,,,,,,,,,,,,,,,,,,,,,,,,
,613a4b42362385920cddff76,627c6edb0446339b9e82a363,2022-05-11_21h20.54.886,classification_task,2021.2.3,Win32,59.81934558,627c6715c52fd12f31907bcf,,,,,,,,,,,,,,,,,,,,,,,l,1,1.8816,"[""0.149"",""0.362"",""0.092"",""0.816""]","[1,1,0,1]",0,34,34,34,1,1,0,,,1,FALSE,,,,,,,,,,,,,,,,,,,,,,,,,,,,,,,
,613a4b42362385920cddff76,627c6edb0446339b9e82a363,2022-05-11_21h20.54.886,classification_task,2021.2.3,Win32,59.81934558,627c6715c52fd12f31907bcf,,,,,,,,,,,,,,,,,,,,,,,l,1,1.5644,"[""0.149"",""0.362"",""0.660"",""0.090""]","[1,1,1,0]",0,35,35,35,1,1,0,,,1,FALSE,,,,,,,,,,,,,,,,,,,,,,,,,,,,,,,
,613a4b42362385920cddff76,627c6edb0446339b9e82a363,2022-05-11_21h20.54.886,classification_task,2021.2.3,Win32,59.81934558,627c6715c52fd12f31907bcf,,,,,,,,,,,,,,,,,,,,,,,a,0,2.7036,"[""0.149"",""0.602"",""0.660"",""0.816""]","[1,0,1,1]",0,36,36,36,1,1,0,,,1,FALSE,,,,,,,,,,,,,,,,,,,,,,,,,,,,,,,
,613a4b42362385920cddff76,627c6edb0446339b9e82a363,2022-05-11_21h20.54.886,classification_task,2021.2.3,Win32,59.81934558,627c6715c52fd12f31907bcf,,,,,,,,,,,,,,,,,,,,,,,l,0,3.4458,"[""0.076"",""0.488"",""0.867"",""0.959""]","[0,1,1,1]",0,37,37,37,1,0,0,,,1,FALSE,,,,,,,,,,,,,,,,,,,,,,,,,,,,,,,
,613a4b42362385920cddff76,627c6edb0446339b9e82a363,2022-05-11_21h20.54.886,classification_task,2021.2.3,Win32,59.81934558,627c6715c52fd12f31907bcf,,,,,,,,,,,,,,,,,,,,,,,a,0,0.8706,"[""0.028"",""0.421"",""0.094"",""0.760""]","[1,1,0,1]",0,38,38,38,1,1,1,,,1,FALSE,,,,,,,,,,,,,,,,,,,,,,,,,,,,,,,
,613a4b42362385920cddff76,627c6edb0446339b9e82a363,2022-05-11_21h20.54.886,classification_task,2021.2.3,Win32,59.81934558,627c6715c52fd12f31907bcf,,,,,,,,,,,,,,,,,,,,,,,l,1,1.9582,"[""0.028"",""0.613"",""0.554"",""0.760""]","[1,0,1,1]",0,39,39,39,1,1,1,,,1,FALSE,,,,,,,,,,,,,,,,,,,,,,,,,,,,,,,
,613a4b42362385920cddff76,627c6edb0446339b9e82a363,2022-05-11_21h20.54.886,classification_task,2021.2.3,Win32,59.81934558,627c6715c52fd12f31907bcf,,,,,,,,,,,,,,,,,,,,,,,a,1,1.6637,"[""0.592"",""0.328"",""0.724"",""0.906""]","[0,1,1,1]",0,40,40,40,1,0,1,,,1,FALSE,,,,,,,,,,,,,,,,,,,,,,,,,,,,,,,
,613a4b42362385920cddff76,627c6edb0446339b9e82a363,2022-05-11_21h20.54.886,classification_task,2021.2.3,Win32,59.81934558,627c6715c52fd12f31907bcf,,,,,,,,,,,,,,,,,,,,,,,l,1,5.1577,"[""0.028"",""0.421"",""0.554"",""0.607""]","[1,1,1,0]",0,41,41,41,1,1,1,,,1,FALSE,,,,,,,,,,,,,,,,,,,,,,,,,,,,,,,
,613a4b42362385920cddff76,627c6edb0446339b9e82a363,2022-05-11_21h20.54.886,classification_task,2021.2.3,Win32,59.81934558,627c6715c52fd12f31907bcf,,,,,,,,,,,,,,,,,,,,,,,l,0,3.772,"[""0.253"",""0.602"",""0.724"",""0.906""]","[1,0,1,1]",0,42,42,42,1,0,1,,,1,FALSE,,,,,,,,,,,,,,,,,,,,,,,,,,,,,,,
,613a4b42362385920cddff76,627c6edb0446339b9e82a363,2022-05-11_21h20.54.886,classification_task,2021.2.3,Win32,59.81934558,627c6715c52fd12f31907bcf,,,,,,,,,,,,,,,,,,,,,,,l,0,6.3766,"[""0.195"",""0.090"",""0.867"",""0.959""]","[1,0,1,1]",0,43,43,43,1,0,0,,,1,FALSE,,,,,,,,,,,,,,,,,,,,,,,,,,,,,,,
,613a4b42362385920cddff76,627c6edb0446339b9e82a363,2022-05-11_21h20.54.886,classification_task,2021.2.3,Win32,59.81934558,627c6715c52fd12f31907bcf,,,,,,,,,,,,,,,,,,,,,,,l,0,0.9015,"[""0.253"",""0.328"",""0.084"",""0.906""]","[1,1,0,1]",0,44,44,44,1,0,1,,,1,FALSE,,,,,,,,,,,,,,,,,,,,,,,,,,,,,,,
,613a4b42362385920cddff76,627c6edb0446339b9e82a363,2022-05-11_21h20.54.886,classification_task,2021.2.3,Win32,59.81934558,627c6715c52fd12f31907bcf,,,,,,,,,,,,,,,,,,,,,,,l,1,0.9298,"[""0.294"",""0.421"",""0.554"",""0.760""]","[0,1,1,1]",0,45,45,45,1,1,1,,,1,FALSE,,,,,,,,,,,,,,,,,,,,,,,,,,,,,,,
,613a4b42362385920cddff76,627c6edb0446339b9e82a363,2022-05-11_21h20.54.886,classification_task,2021.2.3,Win32,59.81934558,627c6715c52fd12f31907bcf,,,,,,,,,,,,,,,,,,,,,,,l,1,1.3091,"[""0.602"",""0.362"",""0.660"",""0.816""]","[0,1,1,1]",0,46,46,46,1,1,0,,,1,FALSE,,,,,,,,,,,,,,,,,,,,,,,,,,,,,,,
,613a4b42362385920cddff76,627c6edb0446339b9e82a363,2022-05-11_21h20.54.886,classification_task,2021.2.3,Win32,59.81934558,627c6715c52fd12f31907bcf,,,,,,,,,,,,,,,,,,,,,,,l,0,1.8554,"[""0.195"",""0.488"",""0.867"",""0.075""]","[1,1,1,0]",0,47,47,47,1,0,0,,,1,FALSE,,,,,,,,,,,,,,,,,,,,,,,,,,,,,,,
,613a4b42362385920cddff76,627c6edb0446339b9e82a363,2022-05-11_21h20.54.886,classification_task,2021.2.3,Win32,59.81934558,627c6715c52fd12f31907bcf,,,,,,,,,,,,,,,,,,,,,,,a,1,4.4455,"[""0.253"",""0.592"",""0.724"",""0.906""]","[1,0,1,1]",0,48,48,48,1,0,1,,,1,FALSE,,,,,,,,,,,,,,,,,,,,,,,,,,,,,,,
,613a4b42362385920cddff76,627c6edb0446339b9e82a363,2022-05-11_21h20.54.886,classification_task,2021.2.3,Win32,59.81934558,627c6715c52fd12f31907bcf,,,,,,,,,,,,,,,,,,,,,,,l,0,3.8279,"[""0.253"",""0.328"",""0.724"",""0.076""]","[1,1,1,0]",0,49,49,49,1,0,1,,,1,FALSE,,,,,,,,,,,,,,,,,,,,,,,,,,,,,,,
,613a4b42362385920cddff76,627c6edb0446339b9e82a363,2022-05-11_21h20.54.886,classification_task,2021.2.3,Win32,59.81934558,627c6715c52fd12f31907bcf,,,,,,,,,,,,,,,,,,,,,,,l,0,1.0089,"[""0.195"",""0.488"",""0.867"",""0.090""]","[1,1,1,0]",0,50,50,50,1,0,0,,,1,FALSE,,,,,,,,,,,,,,,,,,,,,,,,,,,,,,,
,613a4b42362385920cddff76,627c6edb0446339b9e82a363,2022-05-11_21h20.54.886,classification_task,2021.2.3,Win32,59.81934558,627c6715c52fd12f31907bcf,,,,,,,,,,,,,,,,,,,,,,,l,1,1.5971,"[""0.149"",""0.362"",""0.093"",""0.816""]","[1,1,0,1]",0,51,51,51,1,1,0,,,1,FALSE,,,,,,,,,,,,,,,,,,,,,,,,,,,,,,,
,613a4b42362385920cddff76,627c6edb0446339b9e82a363,2022-05-11_21h20.54.886,classification_task,2021.2.3,Win32,59.81934558,627c6715c52fd12f31907bcf,,,,,,,,,,,,,,,,,,,,,,,l,1,3.8064,"[""0.602"",""0.362"",""0.660"",""0.816""]","[0,1,1,1]",0,52,52,52,1,1,0,,,1,FALSE,,,,,,,,,,,,,,,,,,,,,,,,,,,,,,,
,613a4b42362385920cddff76,627c6edb0446339b9e82a363,2022-05-11_21h20.54.886,classification_task,2021.2.3,Win32,59.81934558,627c6715c52fd12f31907bcf,,,,,,,,,,,,,,,,,,,,,,,l,1,1.3972,"[""0.028"",""0.088"",""0.554"",""0.760""]","[1,0,1,1]",0,53,53,53,1,1,1,,,1,FALSE,,,,,,,,,,,,,,,,,,,,,,,,,,,,,,,
,613a4b42362385920cddff76,627c6edb0446339b9e82a363,2022-05-11_21h20.54.886,classification_task,2021.2.3,Win32,59.81934558,627c6715c52fd12f31907bcf,,,,,,,,,,,,,,,,,,,,,,,l,1,1.7314,"[""0.149"",""0.362"",""0.660"",""0.088""]","[1,1,1,0]",0,54,54,54,1,1,0,,,1,FALSE,,,,,,,,,,,,,,,,,,,,,,,,,,,,,,,
,613a4b42362385920cddff76,627c6edb0446339b9e82a363,2022-05-11_21h20.54.886,classification_task,2021.2.3,Win32,59.81934558,627c6715c52fd12f31907bcf,,,,,,,,,,,,,,,,,,,,,,,a,0,2.3961,"[""0.028"",""0.421"",""0.075"",""0.760""]","[1,1,0,1]",0,55,55,55,1,1,1,,,1,FALSE,,,,,,,,,,,,,,,,,,,,,,,,,,,,,,,
,613a4b42362385920cddff76,627c6edb0446339b9e82a363,2022-05-11_21h20.54.886,classification_task,2021.2.3,Win32,59.81934558,627c6715c52fd12f31907bcf,,,,,,,,,,,,,,,,,,,,,,,a,0,1.7298,"[""0.088"",""0.421"",""0.554"",""0.760""]","[0,1,1,1]",0,56,56,56,1,1,1,,,1,FALSE,,,,,,,,,,,,,,,,,,,,,,,,,,,,,,,
,613a4b42362385920cddff76,627c6edb0446339b9e82a363,2022-05-11_21h20.54.886,classification_task,2021.2.3,Win32,59.81934558,627c6715c52fd12f31907bcf,,,,,,,,,,,,,,,,,,,,,,,a,1,1.9009,"[""0.195"",""0.488"",""0.088"",""0.959""]","[1,1,0,1]",0,57,57,57,1,0,0,,,1,FALSE,,,,,,,,,,,,,,,,,,,,,,,,,,,,,,,
,613a4b42362385920cddff76,627c6edb0446339b9e82a363,2022-05-11_21h20.54.886,classification_task,2021.2.3,Win32,59.81934558,627c6715c52fd12f31907bcf,,,,,,,,,,,,,,,,,,,,,,,a,1,1.1458,"[""0.195"",""0.609"",""0.867"",""0.959""]","[1,0,1,1]",0,58,58,58,1,0,0,,,1,FALSE,,,,,,,,,,,,,,,,,,,,,,,,,,,,,,,
,613a4b42362385920cddff76,627c6edb0446339b9e82a363,2022-05-11_21h20.54.886,classification_task,2021.2.3,Win32,59.81934558,627c6715c52fd12f31907bcf,,,,,,,,,,,,,,,,,,,,,,,a,0,1.1648,"[""0.149"",""0.094"",""0.660"",""0.816""]","[1,0,1,1]",0,59,59,59,1,1,0,,,1,FALSE,,,,,,,,,,,,,,,,,,,,,,,,,,,,,,,
,613a4b42362385920cddff76,627c6edb0446339b9e82a363,2022-05-11_21h20.54.886,classification_task,2021.2.3,Win32,59.81934558,627c6715c52fd12f31907bcf,,,,,,,,,,,,,,,,,,,,,,,l,1,3.5899,"[""0.028"",""0.421"",""0.554"",""0.609""]","[1,1,1,0]",0,60,60,60,1,1,1,,,1,FALSE,,,,,,,,,,,,,,,,,,,,,,,,,,,,,,,
,613a4b42362385920cddff76,627c6edb0446339b9e82a363,2022-05-11_21h20.54.886,classification_task,2021.2.3,Win32,59.81934558,627c6715c52fd12f31907bcf,,,,,,,,,,,,,,,,,,,,,,,l,0,1.8965,"[""0.075"",""0.328"",""0.724"",""0.906""]","[0,1,1,1]",0,61,61,61,1,0,1,,,1,FALSE,,,,,,,,,,,,,,,,,,,,,,,,,,,,,,,
,613a4b42362385920cddff76,627c6edb0446339b9e82a363,2022-05-11_21h20.54.886,classification_task,2021.2.3,Win32,59.81934558,627c6715c52fd12f31907bcf,,,,,,,,,,,,,,,,,,,,,,,l,0,2.7008,"[""0.075"",""0.488"",""0.867"",""0.959""]","[0,1,1,1]",0,62,62,62,1,0,0,,,1,FALSE,,,,,,,,,,,,,,,,,,,,,,,,,,,,,,,
,613a4b42362385920cddff76,627c6edb0446339b9e82a363,2022-05-11_21h20.54.886,classification_task,2021.2.3,Win32,59.81934558,627c6715c52fd12f31907bcf,,,,,,,,,,,,,,,,,,,,,,,a,1,1.8073,"[""0.253"",""0.328"",""0.084"",""0.906""]","[1,1,0,1]",0,63,63,63,1,0,1,,,1,FALSE,,,,,,,,,,,,,,,,,,,,,,,,,,,,,,,
,613a4b42362385920cddff76,627c6edb0446339b9e82a363,2022-05-11_21h20.54.886,classification_task,2021.2.3,Win32,59.81934558,627c6715c52fd12f31907bcf,,,,,,,,,,,,,,,,,,,,,,,,,,,,,,,,,,,,,,,0, ,,0,7.686838624,265.367,0,2,2,2,1,2,3,,,,,,,,,,,,,,,,,,
,613a4b42362385920cddff76,627c6edb0446339b9e82a363,2022-05-11_21h20.54.886,classification_task,2021.2.3,Win32,59.81934558,627c6715c52fd12f31907bcf,,,,,,,,,,,,,,,,,,,,,,,,,,,,,,,,,,,,,,,1,  ,,0,7.859071869,266.365,0,2,2,2,1,2,3,,,,,,,,,,,,,,,,,,
,613a4b42362385920cddff76,627c6edb0446339b9e82a363,2022-05-11_21h20.54.886,classification_task,2021.2.3,Win32,59.81934558,627c6715c52fd12f31907bcf,,,,,,,,,,,,,,,,,,,,,,,,,,,,,,,,,,,,,,,2,  ,,0,7.82462522,267.2928,0,2,2,2,1,2,3,,,,,,,,,,,,,,,,,,
,613a4b42362385920cddff76,627c6edb0446339b9e82a363,2022-05-11_21h20.54.886,classification_task,2021.2.3,Win32,59.81934558,627c6715c52fd12f31907bcf,,,,,,,,,,,,,,,,,,,,,,,,,,,,,,,,,,,,,,,,,,,,,0,2,2,2,1,,3,,,,,,,,,,,,,,,,,,
,613a4b42362385920cddff76,627c6edb0446339b9e82a363,2022-05-11_21h20.54.886,classification_task,2021.2.3,Win32,59.81934558,627c6715c52fd12f31907bcf,,,,,,,,,,,,,,,,,,,,,,,,,,,,,,,,,,,,,,,,,,,,,,,,,,,,,I believe the aid is a competent performer,,0.7,0,1,1535.4097,0,0,0,0,1,0,,,,,
,613a4b42362385920cddff76,627c6edb0446339b9e82a363,2022-05-11_21h20.54.886,classification_task,2021.2.3,Win32,59.81934558,627c6715c52fd12f31907bcf,,,,,,,,,,,,,,,,,,,,,,,,,,,,,,,,,,,,,,,,,,,,,,,,,,,,,I trust the aid,,0.7,0,1,1537.2563,0,0,0,0,1,0,,,,,
,613a4b42362385920cddff76,627c6edb0446339b9e82a363,2022-05-11_21h20.54.886,classification_task,2021.2.3,Win32,59.81934558,627c6715c52fd12f31907bcf,,,,,,,,,,,,,,,,,,,,,,,,,,,,,,,,,,,,,,,,,,,,,,,,,,,,,I have confidence in the advice given by the aid,,0.7,0,1,1539.0364,0,0,0,0,1,0,,,,,
,613a4b42362385920cddff76,627c6edb0446339b9e82a363,2022-05-11_21h20.54.886,classification_task,2021.2.3,Win32,59.81934558,627c6715c52fd12f31907bcf,,,,,,,,,,,,,,,,,,,,,,,,,,,,,,,,,,,,,,,,,,,,,,,,,,,,,I can depend on the aid,,0.7,0,1,1540.4671,0,0,0,0,1,0,,,,,
,613a4b42362385920cddff76,627c6edb0446339b9e82a363,2022-05-11_21h20.54.886,classification_task,2021.2.3,Win32,59.81934558,627c6715c52fd12f31907bcf,,,,,,,,,,,,,,,,,,,,,,,,,,,,,,,,,,,,,,,,,,,,,,,,,,,,,I can rely on the aid to behave in consistent ways,,0.7,0,1,1542.1635,0,0,0,0,1,0,,,,,
,613a4b42362385920cddff76,627c6edb0446339b9e82a363,2022-05-11_21h20.54.886,classification_task,2021.2.3,Win32,59.81934558,627c6715c52fd12f31907bcf,,,,,,,,,,,,,,,,,,,,,,,,,,,,,,,,,,,,,,,,,,,,,,,,,,,,,I can rely on the aid to do its best every time I take its advice,,0.7,0,1,1542.9112,0,0,0,0,1,0,,,,,
,613a4b42362385920cddff76,627c6edb0446339b9e82a363,2022-05-11_21h20.54.886,classification_task,2021.2.3,Win32,59.81934558,627c6715c52fd12f31907bcf,,,,,,,,,,,,,,,,,,,,,,,,,,,,,,,,,,,,,,,,,,,,,,,,,,,,,"On trials you completed with assistance from the aid, how frequently did you think the aid was correct?",,0.7,0,78,,0,0,0,0,1,0,,,,,
,613a4b42362385920cddff76,627c6edb0446339b9e82a363,2022-05-11_21h20.54.886,classification_task,2021.2.3,Win32,59.81934558,627c6715c52fd12f31907bcf,,,,,,,,,,,,,,,,,,,,,,,,,,,,,,,,,,,,,,,,,,,,,,,,,,,,,"On trials you completed without the aid, how frequently did you think you were correct?",,0.7,0,75,,0,0,0,0,1,0,,,,,
,613a4b42362385920cddff76,627c6edb0446339b9e82a363,2022-05-11_21h20.54.886,classification_task,2021.2.3,Win32,59.81934558,627c6715c52fd12f31907bcf,,,,,,,,,,,,,,,,,,,,,,,,,,,,,,,,,,,,,,,,,,,,,,,,,,,,,,,,,,,0,0,0,0,1,,,,,,
,613a4b42362385920cddff76,627c6edb0446339b9e82a363,2022-05-11_21h20.54.886,classification_task,2021.2.3,Win32,59.81934558,627c6715c52fd12f31907bcf,,,,,,,,,,,,,,,,,,,,,,,,,,,,,,,,,,,,,,,,,,,,,,,,,,,,,,,,,,,,,,,,,space,18.7164,1580.1392,,
,613a4b42362385920cddff76,627c6edb0446339b9e82a363,2022-05-11_21h20.54.886,classification_task,2021.2.3,Win32,59.81934558,627c6715c52fd12f31907bcf,,,,,,,,,,,,,,,,,,,,,,,,,,,,,,,,,,,,,,,,,,,,,,,,,,,,,,,,,,,,,,,,,,,,"Mozilla/5.0 (Windows NT 10.0; Win64; x64) AppleWebKit/537.36 (KHTML, like Gecko) Chrome/101.0.4951.54 Safari/537.36",
,613a4b42362385920cddff76,627c6edb0446339b9e82a363,2022-05-11_21h20.54.886,classification_task,2021.2.3,Win32,59.81934558,627c6715c52fd12f31907bcf,,,,,,,,,,,,,,,,,,,,,,,,,,,,,,,,,,,,,,,,,,,,,,,,,,,,,,,,,,,,,,,,,,,,,HIGHLIGHT
