usingWebGL,participant,session,date,expName,psychopyVersion,OS,frameRate,study_id,signatures_friend,signatures_foe,band_ranges_top,band_ranges_bottom,formitemText,formtype,formundefined,formitemWidth,formindex,formresponse,formrt,key_resp_2.keys,key_resp_2.rt,tute_resp.keys,tute_resp.rt,tutorial.thisRepN,tutorial.thisTrialN,tutorial.thisN,tutorial.thisIndex,tutorial.ran,key_resp_4.keys,key_resp_4.rt,key_resp.keys,key_resp.corr,key_resp.rt,lines_presented,is_signal_presented,trials.thisRepN,trials.thisTrialN,trials.thisN,trials.thisIndex,trials.ran,vessel,active_band,lines,is_signal,supported_pos,catch_trial,debrief_formindex,debrief_formitemText,debrief_formtype,debrief_formitemWidth,debrief_formresponse,debrief_formrt,phases.thisRepN,phases.thisTrialN,phases.thisN,phases.thisIndex,phases.ran,phases.order,phase,key_resp_3.keys,trustitemText,trusttype,trustitemWidth,trustindex,trustresponse,trustrt,support_status.thisRepN,support_status.thisTrialN,support_status.thisN,support_status.thisIndex,support_status.ran,support_status.order,key_resp_5.keys,key_resp_5.rt,globalClockTime,userAgent,manualCondition
TRUE,613a9e8e0795eac100d865bb,627c7655f8c71d8cfd8687b1,2022-05-11_21h53.23.972,classification_task,2021.2.3,MacIntel,62.5,627c6715c52fd12f31907bd0,,,,,,,,,,,,,,,,,,,,,,,,,,,,,,,,,,,,,,,,,,,,,,,,,,,,,,,,,,,,,,,,,,,,,
,613a9e8e0795eac100d865bb,627c7655f8c71d8cfd8687b1,2022-05-11_21h53.23.972,classification_task,2021.2.3,MacIntel,62.5,627c6715c52fd12f31907bd0,"[[""0.225"",""0.348"",""0.651"",""0.920""],[""0.190"",""0.386"",""0.846"",""0.884""]]","[[""0.060"",""0.289"",""0.580"",""0.702""],[""0.135"",""0.434"",""0.509"",""0.760""]]","[1,10]","[100,1000]",Video game experience,,,0.7,0,,,,,,,,,,,,,,,,,,,,,,,,,,,,,,,,,,,,,,,,,,,,,,,,,,,,,,,,,,,,
,613a9e8e0795eac100d865bb,627c7655f8c71d8cfd8687b1,2022-05-11_21h53.23.972,classification_task,2021.2.3,MacIntel,62.5,627c6715c52fd12f31907bd0,,,,,Approximately how many hours did you spend playing video games in the last week?,,,0.7,0,3,,,,,,,,,,,,,,,,,,,,,,,,,,,,,,,,,,,,,,,,,,,,,,,,,,,,,,,,,,,
,613a9e8e0795eac100d865bb,627c7655f8c71d8cfd8687b1,2022-05-11_21h53.23.972,classification_task,2021.2.3,MacIntel,62.5,627c6715c52fd12f31907bd0,,,,,"Which game did you play the most this year? (Enter ""None"" if you didn't play any)",,,0.7,0,"fifa, clash royale",,,,,,,,,,,,,,,,,,,,,,,,,,,,,,,,,,,,,,,,,,,,,,,,,,,,,,,,,,,
,613a9e8e0795eac100d865bb,627c7655f8c71d8cfd8687b1,2022-05-11_21h53.23.972,classification_task,2021.2.3,MacIntel,62.5,627c6715c52fd12f31907bd0,,,,,Visual perception,,,0.7,0,,,,,,,,,,,,,,,,,,,,,,,,,,,,,,,,,,,,,,,,,,,,,,,,,,,,,,,,,,,,
,613a9e8e0795eac100d865bb,627c7655f8c71d8cfd8687b1,2022-05-11_21h53.23.972,classification_task,2021.2.3,MacIntel,62.5,627c6715c52fd12f31907bd0,,,,,Do you have any form of color blindness?,,,0.7,0,No,66.754,,,,,,,,,,,,,,,,,,,,,,,,,,,,,,,,,,,,,,,,,,,,,,,,,,,,,,,,,,
,613a9e8e0795eac100d865bb,627c7655f8c71d8cfd8687b1,2022-05-11_21h53.23.972,classification_task,2021.2.3,MacIntel,62.5,627c6715c52fd12f31907bd0,,,,,Do you use software to change the colour temperature of your screen (e.g. f.lux)?,,,0.7,0,No,69.508,,,,,,,,,,,,,,,,,,,,,,,,,,,,,,,,,,,,,,,,,,,,,,,,,,,,,,,,,,
,613a9e8e0795eac100d865bb,627c7655f8c71d8cfd8687b1,2022-05-11_21h53.23.972,classification_task,2021.2.3,MacIntel,62.5,627c6715c52fd12f31907bd0,,,,,,,,,,,,space,37.064,space,6.782,0,0,0,0,1,,,,,,,,,,,,,,,,,,,,,,,,,,,,,,,,,,,,,,,,,,,,,,,,,
,613a9e8e0795eac100d865bb,627c7655f8c71d8cfd8687b1,2022-05-11_21h53.23.972,classification_task,2021.2.3,MacIntel,62.5,627c6715c52fd12f31907bd0,,,,,,,,,,,,,,space,8.639,1,0,1,0,1,,,,,,,,,,,,,,,,,,,,,,,,,,,,,,,,,,,,,,,,,,,,,,,,,
,613a9e8e0795eac100d865bb,627c7655f8c71d8cfd8687b1,2022-05-11_21h53.23.972,classification_task,2021.2.3,MacIntel,62.5,627c6715c52fd12f31907bd0,,,,,,,,,,,,,,space,21.217,2,0,2,0,1,,,,,,,,,,,,,,,,,,,,,,,,,,,,,,,,,,,,,,,,,,,,,,,,,
,613a9e8e0795eac100d865bb,627c7655f8c71d8cfd8687b1,2022-05-11_21h53.23.972,classification_task,2021.2.3,MacIntel,62.5,627c6715c52fd12f31907bd0,,,,,,,,,,,,,,space,6.339,3,0,3,0,1,,,,,,,,,,,,,,,,,,,,,,,,,,,,,,,,,,,,,,,,,,,,,,,,,
,613a9e8e0795eac100d865bb,627c7655f8c71d8cfd8687b1,2022-05-11_21h53.23.972,classification_task,2021.2.3,MacIntel,62.5,627c6715c52fd12f31907bd0,,,,,,,,,,,,,,space,11.592,4,0,4,0,1,,,,,,,,,,,,,,,,,,,,,,,,,,,,,,,,,,,,,,,,,,,,,,,,,
,613a9e8e0795eac100d865bb,627c7655f8c71d8cfd8687b1,2022-05-11_21h53.23.972,classification_task,2021.2.3,MacIntel,62.5,627c6715c52fd12f31907bd0,,,,,,,,,,,,,,,,,,,,,space,12.177,l,1,3.195,"[""0.135"",""0.807"",""0.509"",""0.760""]","[1,0,1,1]",0,0,0,0,1,1,1,,,0,FALSE,,,,,,,,,,,,,,,,,,,,,,,,,,,,,,,
,613a9e8e0795eac100d865bb,627c7655f8c71d8cfd8687b1,2022-05-11_21h53.23.972,classification_task,2021.2.3,MacIntel,62.5,627c6715c52fd12f31907bd0,,,,,,,,,,,,,,,,,,,,,,,a,1,3.451,"[""0.190"",""0.386"",""0.846"",""0.963""]","[1,1,1,0]",0,1,1,1,1,0,1,,,0,FALSE,,,,,,,,,,,,,,,,,,,,,,,,,,,,,,,
,613a9e8e0795eac100d865bb,627c7655f8c71d8cfd8687b1,2022-05-11_21h53.23.972,classification_task,2021.2.3,MacIntel,62.5,627c6715c52fd12f31907bd0,,,,,,,,,,,,,,,,,,,,,,,l,1,4.393,"[""0.468"",""0.434"",""0.509"",""0.760""]","[0,1,1,1]",0,2,2,2,1,1,1,,,0,FALSE,,,,,,,,,,,,,,,,,,,,,,,,,,,,,,,
,613a9e8e0795eac100d865bb,627c7655f8c71d8cfd8687b1,2022-05-11_21h53.23.972,classification_task,2021.2.3,MacIntel,62.5,627c6715c52fd12f31907bd0,,,,,,,,,,,,,,,,,,,,,,,a,1,3.828,"[""0.225"",""0.468"",""0.651"",""0.920""]","[1,0,1,1]",0,3,3,3,1,0,0,,,0,FALSE,,,,,,,,,,,,,,,,,,,,,,,,,,,,,,,
,613a9e8e0795eac100d865bb,627c7655f8c71d8cfd8687b1,2022-05-11_21h53.23.972,classification_task,2021.2.3,MacIntel,62.5,627c6715c52fd12f31907bd0,,,,,,,,,,,,,,,,,,,,,,,a,1,3.877,"[""0.800"",""0.386"",""0.846"",""0.884""]","[0,1,1,1]",0,4,4,4,1,0,1,,,0,FALSE,,,,,,,,,,,,,,,,,,,,,,,,,,,,,,,
,613a9e8e0795eac100d865bb,627c7655f8c71d8cfd8687b1,2022-05-11_21h53.23.972,classification_task,2021.2.3,MacIntel,62.5,627c6715c52fd12f31907bd0,,,,,,,,,,,,,,,,,,,,,,,l,1,3.236,"[""0.060"",""0.967"",""0.580"",""0.702""]","[1,0,1,1]",0,5,5,5,1,1,0,,,0,FALSE,,,,,,,,,,,,,,,,,,,,,,,,,,,,,,,
,613a9e8e0795eac100d865bb,627c7655f8c71d8cfd8687b1,2022-05-11_21h53.23.972,classification_task,2021.2.3,MacIntel,62.5,627c6715c52fd12f31907bd0,,,,,,,,,,,,,,,,,,,,,,,l,1,2.838,"[""0.060"",""0.289"",""0.580"",""0.798""]","[1,1,1,0]",0,6,6,6,1,1,0,,,0,FALSE,,,,,,,,,,,,,,,,,,,,,,,,,,,,,,,
,613a9e8e0795eac100d865bb,627c7655f8c71d8cfd8687b1,2022-05-11_21h53.23.972,classification_task,2021.2.3,MacIntel,62.5,627c6715c52fd12f31907bd0,,,,,,,,,,,,,,,,,,,,,,,l,1,3.258,"[""0.967"",""0.289"",""0.580"",""0.702""]","[0,1,1,1]",0,7,7,7,1,1,0,,,0,FALSE,,,,,,,,,,,,,,,,,,,,,,,,,,,,,,,
,613a9e8e0795eac100d865bb,627c7655f8c71d8cfd8687b1,2022-05-11_21h53.23.972,classification_task,2021.2.3,MacIntel,62.5,627c6715c52fd12f31907bd0,,,,,,,,,,,,,,,,,,,,,,,a,1,2.354,"[""0.225"",""0.348"",""0.651"",""0.471""]","[1,1,1,0]",0,8,8,8,1,0,0,,,0,FALSE,,,,,,,,,,,,,,,,,,,,,,,,,,,,,,,
,613a9e8e0795eac100d865bb,627c7655f8c71d8cfd8687b1,2022-05-11_21h53.23.972,classification_task,2021.2.3,MacIntel,62.5,627c6715c52fd12f31907bd0,,,,,,,,,,,,,,,,,,,,,,,l,1,3.297,"[""0.135"",""0.434"",""0.509"",""0.470""]","[1,1,1,0]",0,9,9,9,1,1,1,,,0,FALSE,,,,,,,,,,,,,,,,,,,,,,,,,,,,,,,
,613a9e8e0795eac100d865bb,627c7655f8c71d8cfd8687b1,2022-05-11_21h53.23.972,classification_task,2021.2.3,MacIntel,62.5,627c6715c52fd12f31907bd0,,,,,,,,,,,,,,,,,,,,,,,a,1,1.353,"[""0.190"",""0.386"",""0.811"",""0.884""]","[1,1,0,1]",0,10,10,10,1,0,1,,,0,FALSE,,,,,,,,,,,,,,,,,,,,,,,,,,,,,,,
,613a9e8e0795eac100d865bb,627c7655f8c71d8cfd8687b1,2022-05-11_21h53.23.972,classification_task,2021.2.3,MacIntel,62.5,627c6715c52fd12f31907bd0,,,,,,,,,,,,,,,,,,,,,,,l,1,2.296,"[""0.060"",""0.289"",""0.800"",""0.702""]","[1,1,0,1]",0,11,11,11,1,1,0,,,0,FALSE,,,,,,,,,,,,,,,,,,,,,,,,,,,,,,,
,613a9e8e0795eac100d865bb,627c7655f8c71d8cfd8687b1,2022-05-11_21h53.23.972,classification_task,2021.2.3,MacIntel,62.5,627c6715c52fd12f31907bd0,,,,,,,,,,,,,,,,,,,,,,,a,1,6.189,"[""0.798"",""0.348"",""0.651"",""0.920""]","[0,1,1,1]",0,12,12,12,1,0,0,,,0,FALSE,,,,,,,,,,,,,,,,,,,,,,,,,,,,,,,
,613a9e8e0795eac100d865bb,627c7655f8c71d8cfd8687b1,2022-05-11_21h53.23.972,classification_task,2021.2.3,MacIntel,62.5,627c6715c52fd12f31907bd0,,,,,,,,,,,,,,,,,,,,,,,a,1,2.991,"[""0.225"",""0.348"",""0.963"",""0.920""]","[1,1,0,1]",0,13,13,13,1,0,0,,,0,FALSE,,,,,,,,,,,,,,,,,,,,,,,,,,,,,,,
,613a9e8e0795eac100d865bb,627c7655f8c71d8cfd8687b1,2022-05-11_21h53.23.972,classification_task,2021.2.3,MacIntel,62.5,627c6715c52fd12f31907bd0,,,,,,,,,,,,,,,,,,,,,,,a,1,7.441,"[""0.190"",""0.101"",""0.846"",""0.884""]","[1,0,1,1]",0,14,14,14,1,0,1,,,0,FALSE,,,,,,,,,,,,,,,,,,,,,,,,,,,,,,,
,613a9e8e0795eac100d865bb,627c7655f8c71d8cfd8687b1,2022-05-11_21h53.23.972,classification_task,2021.2.3,MacIntel,62.5,627c6715c52fd12f31907bd0,,,,,,,,,,,,,,,,,,,,,,,l,1,1.803,"[""0.135"",""0.434"",""0.470"",""0.760""]","[1,1,0,1]",0,15,15,15,1,1,1,,,0,FALSE,,,,,,,,,,,,,,,,,,,,,,,,,,,,,,,
,613a9e8e0795eac100d865bb,627c7655f8c71d8cfd8687b1,2022-05-11_21h53.23.972,classification_task,2021.2.3,MacIntel,62.5,627c6715c52fd12f31907bd0,,,,,,,,,,,,,,,,,,,,,,,a,1,2.001,"[""0.225"",""0.348"",""0.651"",""0.800""]","[1,1,1,0]",0,16,16,16,1,0,0,,,0,FALSE,,,,,,,,,,,,,,,,,,,,,,,,,,,,,,,
,613a9e8e0795eac100d865bb,627c7655f8c71d8cfd8687b1,2022-05-11_21h53.23.972,classification_task,2021.2.3,MacIntel,62.5,627c6715c52fd12f31907bd0,,,,,,,,,,,,,,,,,,,,,,,l,1,1.635,"[""0.060"",""0.471"",""0.580"",""0.702""]","[1,0,1,1]",0,17,17,17,1,1,0,,,0,FALSE,,,,,,,,,,,,,,,,,,,,,,,,,,,,,,,
,613a9e8e0795eac100d865bb,627c7655f8c71d8cfd8687b1,2022-05-11_21h53.23.972,classification_task,2021.2.3,MacIntel,62.5,627c6715c52fd12f31907bd0,,,,,,,,,,,,,,,,,,,,,,,l,1,1.92,"[""0.135"",""0.434"",""0.509"",""0.800""]","[1,1,1,0]",0,18,18,18,1,1,1,,,0,FALSE,,,,,,,,,,,,,,,,,,,,,,,,,,,,,,,
,613a9e8e0795eac100d865bb,627c7655f8c71d8cfd8687b1,2022-05-11_21h53.23.972,classification_task,2021.2.3,MacIntel,62.5,627c6715c52fd12f31907bd0,,,,,,,,,,,,,,,,,,,,,,,a,1,4.347,"[""0.545"",""0.348"",""0.651"",""0.920""]","[0,1,1,1]",0,19,19,19,1,0,0,,,0,FALSE,,,,,,,,,,,,,,,,,,,,,,,,,,,,,,,
,613a9e8e0795eac100d865bb,627c7655f8c71d8cfd8687b1,2022-05-11_21h53.23.972,classification_task,2021.2.3,MacIntel,62.5,627c6715c52fd12f31907bd0,,,,,,,,,,,,,,,,,,,,,,,a,1,2.008,"[""0.225"",""0.348"",""0.807"",""0.920""]","[1,1,0,1]",0,20,20,20,1,0,0,,,0,FALSE,,,,,,,,,,,,,,,,,,,,,,,,,,,,,,,
,613a9e8e0795eac100d865bb,627c7655f8c71d8cfd8687b1,2022-05-11_21h53.23.972,classification_task,2021.2.3,MacIntel,62.5,627c6715c52fd12f31907bd0,,,,,,,,,,,,,,,,,,,,,,,a,1,2.812,"[""0.470"",""0.386"",""0.846"",""0.884""]","[0,1,1,1]",0,21,21,21,1,0,1,,,0,FALSE,,,,,,,,,,,,,,,,,,,,,,,,,,,,,,,
,613a9e8e0795eac100d865bb,627c7655f8c71d8cfd8687b1,2022-05-11_21h53.23.972,classification_task,2021.2.3,MacIntel,62.5,627c6715c52fd12f31907bd0,,,,,,,,,,,,,,,,,,,,,,,a,1,5.46,"[""0.190"",""0.386"",""0.963"",""0.884""]","[1,1,0,1]",0,22,22,22,1,0,1,,,0,FALSE,,,,,,,,,,,,,,,,,,,,,,,,,,,,,,,
,613a9e8e0795eac100d865bb,627c7655f8c71d8cfd8687b1,2022-05-11_21h53.23.972,classification_task,2021.2.3,MacIntel,62.5,627c6715c52fd12f31907bd0,,,,,,,,,,,,,,,,,,,,,,,a,1,1.195,"[""0.225"",""0.798"",""0.651"",""0.920""]","[1,0,1,1]",0,23,23,23,1,0,0,,,0,FALSE,,,,,,,,,,,,,,,,,,,,,,,,,,,,,,,
,613a9e8e0795eac100d865bb,627c7655f8c71d8cfd8687b1,2022-05-11_21h53.23.972,classification_task,2021.2.3,MacIntel,62.5,627c6715c52fd12f31907bd0,,,,,,,,,,,,,,,,,,,,,,,l,1,1.495,"[""0.135"",""0.470"",""0.509"",""0.760""]","[1,0,1,1]",0,24,24,24,1,1,1,,,0,FALSE,,,,,,,,,,,,,,,,,,,,,,,,,,,,,,,
,613a9e8e0795eac100d865bb,627c7655f8c71d8cfd8687b1,2022-05-11_21h53.23.972,classification_task,2021.2.3,MacIntel,62.5,627c6715c52fd12f31907bd0,,,,,,,,,,,,,,,,,,,,,,,a,1,1.671,"[""0.190"",""0.386"",""0.846"",""0.097""]","[1,1,1,0]",0,25,25,25,1,0,1,,,0,FALSE,,,,,,,,,,,,,,,,,,,,,,,,,,,,,,,
,613a9e8e0795eac100d865bb,627c7655f8c71d8cfd8687b1,2022-05-11_21h53.23.972,classification_task,2021.2.3,MacIntel,62.5,627c6715c52fd12f31907bd0,,,,,,,,,,,,,,,,,,,,,,,l,1,4.435,"[""0.097"",""0.289"",""0.580"",""0.702""]","[0,1,1,1]",0,26,26,26,1,1,0,,,0,FALSE,,,,,,,,,,,,,,,,,,,,,,,,,,,,,,,
,613a9e8e0795eac100d865bb,627c7655f8c71d8cfd8687b1,2022-05-11_21h53.23.972,classification_task,2021.2.3,MacIntel,62.5,627c6715c52fd12f31907bd0,,,,,,,,,,,,,,,,,,,,,,,a,0,1.371,"[""0.060"",""0.289"",""0.580"",""0.807""]","[1,1,1,0]",0,27,27,27,1,1,0,,,0,FALSE,,,,,,,,,,,,,,,,,,,,,,,,,,,,,,,
,613a9e8e0795eac100d865bb,627c7655f8c71d8cfd8687b1,2022-05-11_21h53.23.972,classification_task,2021.2.3,MacIntel,62.5,627c6715c52fd12f31907bd0,,,,,,,,,,,,,,,,,,,,,,,l,0,4.47,"[""0.190"",""0.970"",""0.846"",""0.884""]","[1,0,1,1]",0,28,28,28,1,0,1,,,0,FALSE,,,,,,,,,,,,,,,,,,,,,,,,,,,,,,,
,613a9e8e0795eac100d865bb,627c7655f8c71d8cfd8687b1,2022-05-11_21h53.23.972,classification_task,2021.2.3,MacIntel,62.5,627c6715c52fd12f31907bd0,,,,,,,,,,,,,,,,,,,,,,,l,1,2.736,"[""0.800"",""0.434"",""0.509"",""0.760""]","[0,1,1,1]",0,29,29,29,1,1,1,,,0,FALSE,,,,,,,,,,,,,,,,,,,,,,,,,,,,,,,
,613a9e8e0795eac100d865bb,627c7655f8c71d8cfd8687b1,2022-05-11_21h53.23.972,classification_task,2021.2.3,MacIntel,62.5,627c6715c52fd12f31907bd0,,,,,,,,,,,,,,,,,,,,,,,l,1,3.167,"[""0.060"",""0.289"",""0.468"",""0.702""]","[1,1,0,1]",0,30,30,30,1,1,0,,,0,FALSE,,,,,,,,,,,,,,,,,,,,,,,,,,,,,,,
,613a9e8e0795eac100d865bb,627c7655f8c71d8cfd8687b1,2022-05-11_21h53.23.972,classification_task,2021.2.3,MacIntel,62.5,627c6715c52fd12f31907bd0,,,,,,,,,,,,,,,,,,,,,,,l,1,1.761,"[""0.135"",""0.434"",""0.967"",""0.760""]","[1,1,0,1]",0,31,31,31,1,1,1,,,0,FALSE,,,,,,,,,,,,,,,,,,,,,,,,,,,,,,,
,613a9e8e0795eac100d865bb,627c7655f8c71d8cfd8687b1,2022-05-11_21h53.23.972,classification_task,2021.2.3,MacIntel,62.5,627c6715c52fd12f31907bd0,,,,,,,,,,,,,,,,,,,,,,,l,1,3.304,"[""0.135"",""0.545"",""0.509"",""0.760""]","[1,0,1,1]",0,32,32,32,1,1,1,,,0,FALSE,,,,,,,,,,,,,,,,,,,,,,,,,,,,,,,
,613a9e8e0795eac100d865bb,627c7655f8c71d8cfd8687b1,2022-05-11_21h53.23.972,classification_task,2021.2.3,MacIntel,62.5,627c6715c52fd12f31907bd0,,,,,,,,,,,,,,,,,,,,,,,l,1,1.166,"[""0.060"",""0.289"",""0.580"",""0.967""]","[1,1,1,0]",0,33,33,33,1,1,0,,,0,FALSE,,,,,,,,,,,,,,,,,,,,,,,,,,,,,,,
,613a9e8e0795eac100d865bb,627c7655f8c71d8cfd8687b1,2022-05-11_21h53.23.972,classification_task,2021.2.3,MacIntel,62.5,627c6715c52fd12f31907bd0,,,,,,,,,,,,,,,,,,,,,,,a,1,1.19,"[""0.190"",""0.545"",""0.846"",""0.884""]","[1,0,1,1]",0,34,34,34,1,0,1,,,0,FALSE,,,,,,,,,,,,,,,,,,,,,,,,,,,,,,,
,613a9e8e0795eac100d865bb,627c7655f8c71d8cfd8687b1,2022-05-11_21h53.23.972,classification_task,2021.2.3,MacIntel,62.5,627c6715c52fd12f31907bd0,,,,,,,,,,,,,,,,,,,,,,,l,1,1.059,"[""0.135"",""0.434"",""0.509"",""0.807""]","[1,1,1,0]",0,35,35,35,1,1,1,,,0,FALSE,,,,,,,,,,,,,,,,,,,,,,,,,,,,,,,
,613a9e8e0795eac100d865bb,627c7655f8c71d8cfd8687b1,2022-05-11_21h53.23.972,classification_task,2021.2.3,MacIntel,62.5,627c6715c52fd12f31907bd0,,,,,,,,,,,,,,,,,,,,,,,a,0,2.388,"[""0.798"",""0.434"",""0.509"",""0.760""]","[0,1,1,1]",0,36,36,36,1,1,1,,,0,FALSE,,,,,,,,,,,,,,,,,,,,,,,,,,,,,,,
,613a9e8e0795eac100d865bb,627c7655f8c71d8cfd8687b1,2022-05-11_21h53.23.972,classification_task,2021.2.3,MacIntel,62.5,627c6715c52fd12f31907bd0,,,,,,,,,,,,,,,,,,,,,,,l,1,1.491,"[""0.135"",""0.434"",""0.470"",""0.760""]","[1,1,0,1]",0,37,37,37,1,1,1,,,0,FALSE,,,,,,,,,,,,,,,,,,,,,,,,,,,,,,,
,613a9e8e0795eac100d865bb,627c7655f8c71d8cfd8687b1,2022-05-11_21h53.23.972,classification_task,2021.2.3,MacIntel,62.5,627c6715c52fd12f31907bd0,,,,,,,,,,,,,,,,,,,,,,,a,0,3.174,"[""0.060"",""0.289"",""0.798"",""0.702""]","[1,1,0,1]",0,38,38,38,1,1,0,,,0,FALSE,,,,,,,,,,,,,,,,,,,,,,,,,,,,,,,
,613a9e8e0795eac100d865bb,627c7655f8c71d8cfd8687b1,2022-05-11_21h53.23.972,classification_task,2021.2.3,MacIntel,62.5,627c6715c52fd12f31907bd0,,,,,,,,,,,,,,,,,,,,,,,a,1,1.367,"[""0.225"",""0.348"",""0.651"",""0.960""]","[1,1,1,0]",0,39,39,39,1,0,0,,,0,FALSE,,,,,,,,,,,,,,,,,,,,,,,,,,,,,,,
,613a9e8e0795eac100d865bb,627c7655f8c71d8cfd8687b1,2022-05-11_21h53.23.972,classification_task,2021.2.3,MacIntel,62.5,627c6715c52fd12f31907bd0,,,,,,,,,,,,,,,,,,,,,,,a,1,2.469,"[""0.225"",""0.348"",""0.097"",""0.920""]","[1,1,0,1]",0,40,40,40,1,0,0,,,0,FALSE,,,,,,,,,,,,,,,,,,,,,,,,,,,,,,,
,613a9e8e0795eac100d865bb,627c7655f8c71d8cfd8687b1,2022-05-11_21h53.23.972,classification_task,2021.2.3,MacIntel,62.5,627c6715c52fd12f31907bd0,,,,,,,,,,,,,,,,,,,,,,,a,1,1.919,"[""0.225"",""0.967"",""0.651"",""0.920""]","[1,0,1,1]",0,41,41,41,1,0,0,,,0,FALSE,,,,,,,,,,,,,,,,,,,,,,,,,,,,,,,
,613a9e8e0795eac100d865bb,627c7655f8c71d8cfd8687b1,2022-05-11_21h53.23.972,classification_task,2021.2.3,MacIntel,62.5,627c6715c52fd12f31907bd0,,,,,,,,,,,,,,,,,,,,,,,a,1,1.291,"[""0.811"",""0.348"",""0.651"",""0.920""]","[0,1,1,1]",0,42,42,42,1,0,0,,,0,FALSE,,,,,,,,,,,,,,,,,,,,,,,,,,,,,,,
,613a9e8e0795eac100d865bb,627c7655f8c71d8cfd8687b1,2022-05-11_21h53.23.972,classification_task,2021.2.3,MacIntel,62.5,627c6715c52fd12f31907bd0,,,,,,,,,,,,,,,,,,,,,,,a,1,2.356,"[""0.190"",""0.386"",""0.468"",""0.884""]","[1,1,0,1]",0,43,43,43,1,0,1,,,0,FALSE,,,,,,,,,,,,,,,,,,,,,,,,,,,,,,,
,613a9e8e0795eac100d865bb,627c7655f8c71d8cfd8687b1,2022-05-11_21h53.23.972,classification_task,2021.2.3,MacIntel,62.5,627c6715c52fd12f31907bd0,,,,,,,,,,,,,,,,,,,,,,,a,0,1.571,"[""0.060"",""0.967"",""0.580"",""0.702""]","[1,0,1,1]",0,44,44,44,1,1,0,,,0,FALSE,,,,,,,,,,,,,,,,,,,,,,,,,,,,,,,
,613a9e8e0795eac100d865bb,627c7655f8c71d8cfd8687b1,2022-05-11_21h53.23.972,classification_task,2021.2.3,MacIntel,62.5,627c6715c52fd12f31907bd0,,,,,,,,,,,,,,,,,,,,,,,l,0,1.239,"[""0.967"",""0.386"",""0.846"",""0.884""]","[0,1,1,1]",0,45,45,45,1,0,1,,,0,FALSE,,,,,,,,,,,,,,,,,,,,,,,,,,,,,,,
,613a9e8e0795eac100d865bb,627c7655f8c71d8cfd8687b1,2022-05-11_21h53.23.972,classification_task,2021.2.3,MacIntel,62.5,627c6715c52fd12f31907bd0,,,,,,,,,,,,,,,,,,,,,,,a,0,2.291,"[""0.811"",""0.289"",""0.580"",""0.702""]","[0,1,1,1]",0,46,46,46,1,1,0,,,0,FALSE,,,,,,,,,,,,,,,,,,,,,,,,,,,,,,,
,613a9e8e0795eac100d865bb,627c7655f8c71d8cfd8687b1,2022-05-11_21h53.23.972,classification_task,2021.2.3,MacIntel,62.5,627c6715c52fd12f31907bd0,,,,,,,,,,,,,,,,,,,,,,,l,0,2.318,"[""0.190"",""0.386"",""0.846"",""0.101""]","[1,1,1,0]",0,47,47,47,1,0,1,,,0,FALSE,,,,,,,,,,,,,,,,,,,,,,,,,,,,,,,
,613a9e8e0795eac100d865bb,627c7655f8c71d8cfd8687b1,2022-05-11_21h53.23.972,classification_task,2021.2.3,MacIntel,62.5,627c6715c52fd12f31907bd0,,,,,,,,,,,,,,,,,,,,,,,a,1,2.141,"[""0.190"",""0.386"",""0.807"",""0.884""]","[1,1,0,1]",0,48,48,48,1,0,1,,,0,FALSE,,,,,,,,,,,,,,,,,,,,,,,,,,,,,,,
,613a9e8e0795eac100d865bb,627c7655f8c71d8cfd8687b1,2022-05-11_21h53.23.972,classification_task,2021.2.3,MacIntel,62.5,627c6715c52fd12f31907bd0,,,,,,,,,,,,,,,,,,,,,,,l,1,1.541,"[""0.060"",""0.289"",""0.545"",""0.702""]","[1,1,0,1]",0,49,49,49,1,1,0,,,0,FALSE,,,,,,,,,,,,,,,,,,,,,,,,,,,,,,,
,613a9e8e0795eac100d865bb,627c7655f8c71d8cfd8687b1,2022-05-11_21h53.23.972,classification_task,2021.2.3,MacIntel,62.5,627c6715c52fd12f31907bd0,,,,,,,,,,,,,,,,,,,,,,,a,1,0.936,"[""0.225"",""0.348"",""0.651"",""0.471""]","[1,1,1,0]",0,50,50,50,1,0,0,,,0,FALSE,,,,,,,,,,,,,,,,,,,,,,,,,,,,,,,
,613a9e8e0795eac100d865bb,627c7655f8c71d8cfd8687b1,2022-05-11_21h53.23.972,classification_task,2021.2.3,MacIntel,62.5,627c6715c52fd12f31907bd0,,,,,,,,,,,,,,,,,,,,,,,l,0,1.285,"[""0.800"",""0.348"",""0.651"",""0.920""]","[0,1,1,1]",0,51,51,51,1,0,0,,,0,FALSE,,,,,,,,,,,,,,,,,,,,,,,,,,,,,,,
,613a9e8e0795eac100d865bb,627c7655f8c71d8cfd8687b1,2022-05-11_21h53.23.972,classification_task,2021.2.3,MacIntel,62.5,627c6715c52fd12f31907bd0,,,,,,,,,,,,,,,,,,,,,,,a,1,1.6,"[""0.190"",""0.386"",""0.846"",""0.470""]","[1,1,1,0]",0,52,52,52,1,0,1,,,0,FALSE,,,,,,,,,,,,,,,,,,,,,,,,,,,,,,,
,613a9e8e0795eac100d865bb,627c7655f8c71d8cfd8687b1,2022-05-11_21h53.23.972,classification_task,2021.2.3,MacIntel,62.5,627c6715c52fd12f31907bd0,,,,,,,,,,,,,,,,,,,,,,,l,1,2.891,"[""0.097"",""0.434"",""0.509"",""0.760""]","[0,1,1,1]",0,53,53,53,1,1,1,,,0,FALSE,,,,,,,,,,,,,,,,,,,,,,,,,,,,,,,
,613a9e8e0795eac100d865bb,627c7655f8c71d8cfd8687b1,2022-05-11_21h53.23.972,classification_task,2021.2.3,MacIntel,62.5,627c6715c52fd12f31907bd0,,,,,,,,,,,,,,,,,,,,,,,l,1,1.603,"[""0.798"",""0.289"",""0.580"",""0.702""]","[0,1,1,1]",0,54,54,54,1,1,0,,,0,FALSE,,,,,,,,,,,,,,,,,,,,,,,,,,,,,,,
,613a9e8e0795eac100d865bb,627c7655f8c71d8cfd8687b1,2022-05-11_21h53.23.972,classification_task,2021.2.3,MacIntel,62.5,627c6715c52fd12f31907bd0,,,,,,,,,,,,,,,,,,,,,,,a,0,3.471,"[""0.060"",""0.289"",""0.580"",""0.800""]","[1,1,1,0]",0,55,55,55,1,1,0,,,0,FALSE,,,,,,,,,,,,,,,,,,,,,,,,,,,,,,,
,613a9e8e0795eac100d865bb,627c7655f8c71d8cfd8687b1,2022-05-11_21h53.23.972,classification_task,2021.2.3,MacIntel,62.5,627c6715c52fd12f31907bd0,,,,,,,,,,,,,,,,,,,,,,,a,1,1.034,"[""0.225"",""0.348"",""0.798"",""0.920""]","[1,1,0,1]",0,56,56,56,1,0,0,,,0,FALSE,,,,,,,,,,,,,,,,,,,,,,,,,,,,,,,
,613a9e8e0795eac100d865bb,627c7655f8c71d8cfd8687b1,2022-05-11_21h53.23.972,classification_task,2021.2.3,MacIntel,62.5,627c6715c52fd12f31907bd0,,,,,,,,,,,,,,,,,,,,,,,l,0,1.674,"[""0.960"",""0.386"",""0.846"",""0.884""]","[0,1,1,1]",0,57,57,57,1,0,1,,,0,FALSE,,,,,,,,,,,,,,,,,,,,,,,,,,,,,,,
,613a9e8e0795eac100d865bb,627c7655f8c71d8cfd8687b1,2022-05-11_21h53.23.972,classification_task,2021.2.3,MacIntel,62.5,627c6715c52fd12f31907bd0,,,,,,,,,,,,,,,,,,,,,,,l,1,1.234,"[""0.060"",""0.800"",""0.580"",""0.702""]","[1,0,1,1]",0,58,58,58,1,1,0,,,0,FALSE,,,,,,,,,,,,,,,,,,,,,,,,,,,,,,,
,613a9e8e0795eac100d865bb,627c7655f8c71d8cfd8687b1,2022-05-11_21h53.23.972,classification_task,2021.2.3,MacIntel,62.5,627c6715c52fd12f31907bd0,,,,,,,,,,,,,,,,,,,,,,,l,1,2.651,"[""0.135"",""0.434"",""0.471"",""0.760""]","[1,1,0,1]",0,59,59,59,1,1,1,,,0,FALSE,,,,,,,,,,,,,,,,,,,,,,,,,,,,,,,
,613a9e8e0795eac100d865bb,627c7655f8c71d8cfd8687b1,2022-05-11_21h53.23.972,classification_task,2021.2.3,MacIntel,62.5,627c6715c52fd12f31907bd0,,,,,,,,,,,,,,,,,,,,,,,l,1,0.872,"[""0.135"",""0.470"",""0.509"",""0.760""]","[1,0,1,1]",0,60,60,60,1,1,1,,,0,FALSE,,,,,,,,,,,,,,,,,,,,,,,,,,,,,,,
,613a9e8e0795eac100d865bb,627c7655f8c71d8cfd8687b1,2022-05-11_21h53.23.972,classification_task,2021.2.3,MacIntel,62.5,627c6715c52fd12f31907bd0,,,,,,,,,,,,,,,,,,,,,,,a,1,1.337,"[""0.225"",""0.970"",""0.651"",""0.920""]","[1,0,1,1]",0,61,61,61,1,0,0,,,0,FALSE,,,,,,,,,,,,,,,,,,,,,,,,,,,,,,,
,613a9e8e0795eac100d865bb,627c7655f8c71d8cfd8687b1,2022-05-11_21h53.23.972,classification_task,2021.2.3,MacIntel,62.5,627c6715c52fd12f31907bd0,,,,,,,,,,,,,,,,,,,,,,,l,1,1.136,"[""0.135"",""0.434"",""0.509"",""0.967""]","[1,1,1,0]",0,62,62,62,1,1,1,,,0,FALSE,,,,,,,,,,,,,,,,,,,,,,,,,,,,,,,
,613a9e8e0795eac100d865bb,627c7655f8c71d8cfd8687b1,2022-05-11_21h53.23.972,classification_task,2021.2.3,MacIntel,62.5,627c6715c52fd12f31907bd0,,,,,,,,,,,,,,,,,,,,,,,a,1,1.121,"[""0.190"",""0.471"",""0.846"",""0.884""]","[1,0,1,1]",0,63,63,63,1,0,1,,,0,FALSE,,,,,,,,,,,,,,,,,,,,,,,,,,,,,,,
,613a9e8e0795eac100d865bb,627c7655f8c71d8cfd8687b1,2022-05-11_21h53.23.972,classification_task,2021.2.3,MacIntel,62.5,627c6715c52fd12f31907bd0,,,,,,,,,,,,,,,,,,,,,,,,,,,,,,,,,,,,,,,0, ,,0,10,416.126,0,0,0,0,1,2,1,,,,,,,,,,,,,,,,,,
,613a9e8e0795eac100d865bb,627c7655f8c71d8cfd8687b1,2022-05-11_21h53.23.972,classification_task,2021.2.3,MacIntel,62.5,627c6715c52fd12f31907bd0,,,,,,,,,,,,,,,,,,,,,,,,,,,,,,,,,,,,,,,1,  ,,0,10,423.518,0,0,0,0,1,2,1,,,,,,,,,,,,,,,,,,
,613a9e8e0795eac100d865bb,627c7655f8c71d8cfd8687b1,2022-05-11_21h53.23.972,classification_task,2021.2.3,MacIntel,62.5,627c6715c52fd12f31907bd0,,,,,,,,,,,,,,,,,,,,,,,,,,,,,,,,,,,,,,,2,  ,,0,5.220458554,428.241,0,0,0,0,1,2,1,,,,,,,,,,,,,,,,,,
,613a9e8e0795eac100d865bb,627c7655f8c71d8cfd8687b1,2022-05-11_21h53.23.972,classification_task,2021.2.3,MacIntel,62.5,627c6715c52fd12f31907bd0,,,,,,,,,,,,,,,,,,,,,,,,,,,,,,,,,,,,,,,,,,,,,0,0,0,0,1,,1,,,,,,,,,,,,,,,,,,
,613a9e8e0795eac100d865bb,627c7655f8c71d8cfd8687b1,2022-05-11_21h53.23.972,classification_task,2021.2.3,MacIntel,62.5,627c6715c52fd12f31907bd0,,,,,,,,,,,,,,,,,,,,,space,15.159,a,1,3.859,"[""0.190"",""0.386"",""0.846"",""0.470""]","[1,1,1,0]",0,0,0,0,1,0,1,,,0,FALSE,,,,,,,,,,,,,,,,,,,,,,,,,,,,,,,
,613a9e8e0795eac100d865bb,627c7655f8c71d8cfd8687b1,2022-05-11_21h53.23.972,classification_task,2021.2.3,MacIntel,62.5,627c6715c52fd12f31907bd0,,,,,,,,,,,,,,,,,,,,,,,l,1,3.212,"[""0.060"",""0.101"",""0.580"",""0.702""]","[1,0,1,1]",0,1,1,1,1,1,0,,,0,FALSE,,,,,,,,,,,,,,,,,,,,,,,,,,,,,,,
,613a9e8e0795eac100d865bb,627c7655f8c71d8cfd8687b1,2022-05-11_21h53.23.972,classification_task,2021.2.3,MacIntel,62.5,627c6715c52fd12f31907bd0,,,,,,,,,,,,,,,,,,,,,,,l,1,1.245,"[""0.135"",""0.967"",""0.509"",""0.760""]","[1,0,1,1]",0,2,2,2,1,1,1,,,0,FALSE,,,,,,,,,,,,,,,,,,,,,,,,,,,,,,,
,613a9e8e0795eac100d865bb,627c7655f8c71d8cfd8687b1,2022-05-11_21h53.23.972,classification_task,2021.2.3,MacIntel,62.5,627c6715c52fd12f31907bd0,,,,,,,,,,,,,,,,,,,,,,,a,1,1.063,"[""0.225"",""0.348"",""0.651"",""0.798""]","[1,1,1,0]",0,3,3,3,1,0,0,,,0,FALSE,,,,,,,,,,,,,,,,,,,,,,,,,,,,,,,
,613a9e8e0795eac100d865bb,627c7655f8c71d8cfd8687b1,2022-05-11_21h53.23.972,classification_task,2021.2.3,MacIntel,62.5,627c6715c52fd12f31907bd0,,,,,,,,,,,,,,,,,,,,,,,l,1,0.975,"[""0.135"",""0.434"",""0.509"",""0.468""]","[1,1,1,0]",0,4,4,4,1,1,1,,,0,FALSE,,,,,,,,,,,,,,,,,,,,,,,,,,,,,,,
,613a9e8e0795eac100d865bb,627c7655f8c71d8cfd8687b1,2022-05-11_21h53.23.972,classification_task,2021.2.3,MacIntel,62.5,627c6715c52fd12f31907bd0,,,,,,,,,,,,,,,,,,,,,,,l,1,3.714,"[""0.060"",""0.289"",""0.097"",""0.702""]","[1,1,0,1]",0,5,5,5,1,1,0,,,0,FALSE,,,,,,,,,,,,,,,,,,,,,,,,,,,,,,,
,613a9e8e0795eac100d865bb,627c7655f8c71d8cfd8687b1,2022-05-11_21h53.23.972,classification_task,2021.2.3,MacIntel,62.5,627c6715c52fd12f31907bd0,,,,,,,,,,,,,,,,,,,,,,,a,1,1.159,"[""0.190"",""0.798"",""0.846"",""0.884""]","[1,0,1,1]",0,6,6,6,1,0,1,,,0,FALSE,,,,,,,,,,,,,,,,,,,,,,,,,,,,,,,
,613a9e8e0795eac100d865bb,627c7655f8c71d8cfd8687b1,2022-05-11_21h53.23.972,classification_task,2021.2.3,MacIntel,62.5,627c6715c52fd12f31907bd0,,,,,,,,,,,,,,,,,,,,,,,l,1,2.434,"[""0.960"",""0.434"",""0.509"",""0.760""]","[0,1,1,1]",0,7,7,7,1,1,1,,,0,FALSE,,,,,,,,,,,,,,,,,,,,,,,,,,,,,,,
,613a9e8e0795eac100d865bb,627c7655f8c71d8cfd8687b1,2022-05-11_21h53.23.972,classification_task,2021.2.3,MacIntel,62.5,627c6715c52fd12f31907bd0,,,,,,,,,,,,,,,,,,,,,,,a,0,2.596,"[""0.060"",""0.289"",""0.580"",""0.798""]","[1,1,1,0]",0,8,8,8,1,1,0,,,0,FALSE,,,,,,,,,,,,,,,,,,,,,,,,,,,,,,,
,613a9e8e0795eac100d865bb,627c7655f8c71d8cfd8687b1,2022-05-11_21h53.23.972,classification_task,2021.2.3,MacIntel,62.5,627c6715c52fd12f31907bd0,,,,,,,,,,,,,,,,,,,,,,,l,0,2.902,"[""0.225"",""0.471"",""0.651"",""0.920""]","[1,0,1,1]",0,9,9,9,1,0,0,,,0,FALSE,,,,,,,,,,,,,,,,,,,,,,,,,,,,,,,
,613a9e8e0795eac100d865bb,627c7655f8c71d8cfd8687b1,2022-05-11_21h53.23.972,classification_task,2021.2.3,MacIntel,62.5,627c6715c52fd12f31907bd0,,,,,,,,,,,,,,,,,,,,,,,l,0,1.316,"[""0.967"",""0.348"",""0.651"",""0.920""]","[0,1,1,1]",0,10,10,10,1,0,0,,,0,FALSE,,,,,,,,,,,,,,,,,,,,,,,,,,,,,,,
,613a9e8e0795eac100d865bb,627c7655f8c71d8cfd8687b1,2022-05-11_21h53.23.972,classification_task,2021.2.3,MacIntel,62.5,627c6715c52fd12f31907bd0,,,,,,,,,,,,,,,,,,,,,,,l,1,1.369,"[""0.970"",""0.289"",""0.580"",""0.702""]","[0,1,1,1]",0,11,11,11,1,1,0,,,0,FALSE,,,,,,,,,,,,,,,,,,,,,,,,,,,,,,,
,613a9e8e0795eac100d865bb,627c7655f8c71d8cfd8687b1,2022-05-11_21h53.23.972,classification_task,2021.2.3,MacIntel,62.5,627c6715c52fd12f31907bd0,,,,,,,,,,,,,,,,,,,,,,,l,1,2.28,"[""0.135"",""0.434"",""0.798"",""0.760""]","[1,1,0,1]",0,12,12,12,1,1,1,,,0,FALSE,,,,,,,,,,,,,,,,,,,,,,,,,,,,,,,
,613a9e8e0795eac100d865bb,627c7655f8c71d8cfd8687b1,2022-05-11_21h53.23.972,classification_task,2021.2.3,MacIntel,62.5,627c6715c52fd12f31907bd0,,,,,,,,,,,,,,,,,,,,,,,a,1,1.483,"[""0.190"",""0.386"",""0.798"",""0.884""]","[1,1,0,1]",0,13,13,13,1,0,1,,,0,FALSE,,,,,,,,,,,,,,,,,,,,,,,,,,,,,,,
,613a9e8e0795eac100d865bb,627c7655f8c71d8cfd8687b1,2022-05-11_21h53.23.972,classification_task,2021.2.3,MacIntel,62.5,627c6715c52fd12f31907bd0,,,,,,,,,,,,,,,,,,,,,,,a,1,1.344,"[""0.225"",""0.348"",""0.811"",""0.920""]","[1,1,0,1]",0,14,14,14,1,0,0,,,0,FALSE,,,,,,,,,,,,,,,,,,,,,,,,,,,,,,,
,613a9e8e0795eac100d865bb,627c7655f8c71d8cfd8687b1,2022-05-11_21h53.23.972,classification_task,2021.2.3,MacIntel,62.5,627c6715c52fd12f31907bd0,,,,,,,,,,,,,,,,,,,,,,,l,0,3.245,"[""0.800"",""0.386"",""0.846"",""0.884""]","[0,1,1,1]",0,15,15,15,1,0,1,,,0,FALSE,,,,,,,,,,,,,,,,,,,,,,,,,,,,,,,
,613a9e8e0795eac100d865bb,627c7655f8c71d8cfd8687b1,2022-05-11_21h53.23.972,classification_task,2021.2.3,MacIntel,62.5,627c6715c52fd12f31907bd0,,,,,,,,,,,,,,,,,,,,,,,a,0,1.58,"[""0.060"",""0.800"",""0.580"",""0.702""]","[1,0,1,1]",0,16,16,16,1,1,0,,,0,FALSE,,,,,,,,,,,,,,,,,,,,,,,,,,,,,,,
,613a9e8e0795eac100d865bb,627c7655f8c71d8cfd8687b1,2022-05-11_21h53.23.972,classification_task,2021.2.3,MacIntel,62.5,627c6715c52fd12f31907bd0,,,,,,,,,,,,,,,,,,,,,,,a,1,1.732,"[""0.190"",""0.386"",""0.097"",""0.884""]","[1,1,0,1]",0,17,17,17,1,0,1,,,0,FALSE,,,,,,,,,,,,,,,,,,,,,,,,,,,,,,,
,613a9e8e0795eac100d865bb,627c7655f8c71d8cfd8687b1,2022-05-11_21h53.23.972,classification_task,2021.2.3,MacIntel,62.5,627c6715c52fd12f31907bd0,,,,,,,,,,,,,,,,,,,,,,,l,1,1.432,"[""0.470"",""0.289"",""0.580"",""0.702""]","[0,1,1,1]",0,18,18,18,1,1,0,,,0,FALSE,,,,,,,,,,,,,,,,,,,,,,,,,,,,,,,
,613a9e8e0795eac100d865bb,627c7655f8c71d8cfd8687b1,2022-05-11_21h53.23.972,classification_task,2021.2.3,MacIntel,62.5,627c6715c52fd12f31907bd0,,,,,,,,,,,,,,,,,,,,,,,a,1,1.612,"[""0.190"",""0.101"",""0.846"",""0.884""]","[1,0,1,1]",0,19,19,19,1,0,1,,,0,FALSE,,,,,,,,,,,,,,,,,,,,,,,,,,,,,,,
,613a9e8e0795eac100d865bb,627c7655f8c71d8cfd8687b1,2022-05-11_21h53.23.972,classification_task,2021.2.3,MacIntel,62.5,627c6715c52fd12f31907bd0,,,,,,,,,,,,,,,,,,,,,,,l,1,1.464,"[""0.060"",""0.289"",""0.811"",""0.702""]","[1,1,0,1]",0,20,20,20,1,1,0,,,0,FALSE,,,,,,,,,,,,,,,,,,,,,,,,,,,,,,,
,613a9e8e0795eac100d865bb,627c7655f8c71d8cfd8687b1,2022-05-11_21h53.23.972,classification_task,2021.2.3,MacIntel,62.5,627c6715c52fd12f31907bd0,,,,,,,,,,,,,,,,,,,,,,,l,1,1.329,"[""0.135"",""0.970"",""0.509"",""0.760""]","[1,0,1,1]",0,21,21,21,1,1,1,,,0,FALSE,,,,,,,,,,,,,,,,,,,,,,,,,,,,,,,
,613a9e8e0795eac100d865bb,627c7655f8c71d8cfd8687b1,2022-05-11_21h53.23.972,classification_task,2021.2.3,MacIntel,62.5,627c6715c52fd12f31907bd0,,,,,,,,,,,,,,,,,,,,,,,l,1,1.744,"[""0.060"",""0.289"",""0.580"",""0.960""]","[1,1,1,0]",0,22,22,22,1,1,0,,,0,FALSE,,,,,,,,,,,,,,,,,,,,,,,,,,,,,,,
,613a9e8e0795eac100d865bb,627c7655f8c71d8cfd8687b1,2022-05-11_21h53.23.972,classification_task,2021.2.3,MacIntel,62.5,627c6715c52fd12f31907bd0,,,,,,,,,,,,,,,,,,,,,,,a,1,0.97,"[""0.225"",""0.348"",""0.651"",""0.960""]","[1,1,1,0]",0,23,23,23,1,0,0,,,0,FALSE,,,,,,,,,,,,,,,,,,,,,,,,,,,,,,,
,613a9e8e0795eac100d865bb,627c7655f8c71d8cfd8687b1,2022-05-11_21h53.23.972,classification_task,2021.2.3,MacIntel,62.5,627c6715c52fd12f31907bd0,,,,,,,,,,,,,,,,,,,,,,,l,1,1.183,"[""0.135"",""0.434"",""0.509"",""0.471""]","[1,1,1,0]",0,24,24,24,1,1,1,,,0,FALSE,,,,,,,,,,,,,,,,,,,,,,,,,,,,,,,
,613a9e8e0795eac100d865bb,627c7655f8c71d8cfd8687b1,2022-05-11_21h53.23.972,classification_task,2021.2.3,MacIntel,62.5,627c6715c52fd12f31907bd0,,,,,,,,,,,,,,,,,,,,,,,l,0,1.757,"[""0.807"",""0.386"",""0.846"",""0.884""]","[0,1,1,1]",0,25,25,25,1,0,1,,,0,FALSE,,,,,,,,,,,,,,,,,,,,,,,,,,,,,,,
,613a9e8e0795eac100d865bb,627c7655f8c71d8cfd8687b1,2022-05-11_21h53.23.972,classification_task,2021.2.3,MacIntel,62.5,627c6715c52fd12f31907bd0,,,,,,,,,,,,,,,,,,,,,,,a,1,1.383,"[""0.190"",""0.386"",""0.846"",""0.967""]","[1,1,1,0]",0,26,26,26,1,0,1,,,0,FALSE,,,,,,,,,,,,,,,,,,,,,,,,,,,,,,,
,613a9e8e0795eac100d865bb,627c7655f8c71d8cfd8687b1,2022-05-11_21h53.23.972,classification_task,2021.2.3,MacIntel,62.5,627c6715c52fd12f31907bd0,,,,,,,,,,,,,,,,,,,,,,,l,0,3.551,"[""0.798"",""0.348"",""0.651"",""0.920""]","[0,1,1,1]",0,27,27,27,1,0,0,,,0,FALSE,,,,,,,,,,,,,,,,,,,,,,,,,,,,,,,
,613a9e8e0795eac100d865bb,627c7655f8c71d8cfd8687b1,2022-05-11_21h53.23.972,classification_task,2021.2.3,MacIntel,62.5,627c6715c52fd12f31907bd0,,,,,,,,,,,,,,,,,,,,,,,l,1,1.199,"[""0.135"",""0.434"",""0.470"",""0.760""]","[1,1,0,1]",0,28,28,28,1,1,1,,,0,FALSE,,,,,,,,,,,,,,,,,,,,,,,,,,,,,,,
,613a9e8e0795eac100d865bb,627c7655f8c71d8cfd8687b1,2022-05-11_21h53.23.972,classification_task,2021.2.3,MacIntel,62.5,627c6715c52fd12f31907bd0,,,,,,,,,,,,,,,,,,,,,,,a,0,1.5,"[""0.960"",""0.434"",""0.509"",""0.760""]","[0,1,1,1]",0,29,29,29,1,1,1,,,0,FALSE,,,,,,,,,,,,,,,,,,,,,,,,,,,,,,,
,613a9e8e0795eac100d865bb,627c7655f8c71d8cfd8687b1,2022-05-11_21h53.23.972,classification_task,2021.2.3,MacIntel,62.5,627c6715c52fd12f31907bd0,,,,,,,,,,,,,,,,,,,,,,,a,1,1.228,"[""0.225"",""0.348"",""0.807"",""0.920""]","[1,1,0,1]",0,30,30,30,1,0,0,,,0,FALSE,,,,,,,,,,,,,,,,,,,,,,,,,,,,,,,
,613a9e8e0795eac100d865bb,627c7655f8c71d8cfd8687b1,2022-05-11_21h53.23.972,classification_task,2021.2.3,MacIntel,62.5,627c6715c52fd12f31907bd0,,,,,,,,,,,,,,,,,,,,,,,a,1,0.718,"[""0.225"",""0.470"",""0.651"",""0.920""]","[1,0,1,1]",0,31,31,31,1,0,0,,,0,FALSE,,,,,,,,,,,,,,,,,,,,,,,,,,,,,,,
,613a9e8e0795eac100d865bb,627c7655f8c71d8cfd8687b1,2022-05-11_21h53.23.972,classification_task,2021.2.3,MacIntel,62.5,627c6715c52fd12f31907bd0,,,,,,,,,,,,,,,,,,,,,,,l,0,1.261,"[""0.190"",""0.811"",""0.846"",""0.884""]","[1,0,1,1]",0,32,32,32,1,0,1,,,0,FALSE,,,,,,,,,,,,,,,,,,,,,,,,,,,,,,,
,613a9e8e0795eac100d865bb,627c7655f8c71d8cfd8687b1,2022-05-11_21h53.23.972,classification_task,2021.2.3,MacIntel,62.5,627c6715c52fd12f31907bd0,,,,,,,,,,,,,,,,,,,,,,,l,1,0.997,"[""0.963"",""0.289"",""0.580"",""0.702""]","[0,1,1,1]",0,33,33,33,1,1,0,,,0,FALSE,,,,,,,,,,,,,,,,,,,,,,,,,,,,,,,
,613a9e8e0795eac100d865bb,627c7655f8c71d8cfd8687b1,2022-05-11_21h53.23.972,classification_task,2021.2.3,MacIntel,62.5,627c6715c52fd12f31907bd0,,,,,,,,,,,,,,,,,,,,,,,l,1,1.028,"[""0.135"",""0.471"",""0.509"",""0.760""]","[1,0,1,1]",0,34,34,34,1,1,1,,,0,FALSE,,,,,,,,,,,,,,,,,,,,,,,,,,,,,,,
,613a9e8e0795eac100d865bb,627c7655f8c71d8cfd8687b1,2022-05-11_21h53.23.972,classification_task,2021.2.3,MacIntel,62.5,627c6715c52fd12f31907bd0,,,,,,,,,,,,,,,,,,,,,,,l,1,1.6,"[""0.798"",""0.434"",""0.509"",""0.760""]","[0,1,1,1]",0,35,35,35,1,1,1,,,0,FALSE,,,,,,,,,,,,,,,,,,,,,,,,,,,,,,,
,613a9e8e0795eac100d865bb,627c7655f8c71d8cfd8687b1,2022-05-11_21h53.23.972,classification_task,2021.2.3,MacIntel,62.5,627c6715c52fd12f31907bd0,,,,,,,,,,,,,,,,,,,,,,,a,1,1.004,"[""0.190"",""0.386"",""0.097"",""0.884""]","[1,1,0,1]",0,36,36,36,1,0,1,,,0,FALSE,,,,,,,,,,,,,,,,,,,,,,,,,,,,,,,
,613a9e8e0795eac100d865bb,627c7655f8c71d8cfd8687b1,2022-05-11_21h53.23.972,classification_task,2021.2.3,MacIntel,62.5,627c6715c52fd12f31907bd0,,,,,,,,,,,,,,,,,,,,,,,a,0,1.714,"[""0.060"",""0.545"",""0.580"",""0.702""]","[1,0,1,1]",0,37,37,37,1,1,0,,,0,FALSE,,,,,,,,,,,,,,,,,,,,,,,,,,,,,,,
,613a9e8e0795eac100d865bb,627c7655f8c71d8cfd8687b1,2022-05-11_21h53.23.972,classification_task,2021.2.3,MacIntel,62.5,627c6715c52fd12f31907bd0,,,,,,,,,,,,,,,,,,,,,,,l,0,1.221,"[""0.225"",""0.348"",""0.798"",""0.920""]","[1,1,0,1]",0,38,38,38,1,0,0,,,0,FALSE,,,,,,,,,,,,,,,,,,,,,,,,,,,,,,,
,613a9e8e0795eac100d865bb,627c7655f8c71d8cfd8687b1,2022-05-11_21h53.23.972,classification_task,2021.2.3,MacIntel,62.5,627c6715c52fd12f31907bd0,,,,,,,,,,,,,,,,,,,,,,,l,1,2.229,"[""0.135"",""0.434"",""0.509"",""0.468""]","[1,1,1,0]",0,39,39,39,1,1,1,,,0,FALSE,,,,,,,,,,,,,,,,,,,,,,,,,,,,,,,
,613a9e8e0795eac100d865bb,627c7655f8c71d8cfd8687b1,2022-05-11_21h53.23.972,classification_task,2021.2.3,MacIntel,62.5,627c6715c52fd12f31907bd0,,,,,,,,,,,,,,,,,,,,,,,a,0,1.745,"[""0.060"",""0.289"",""0.580"",""0.097""]","[1,1,1,0]",0,40,40,40,1,1,0,,,0,FALSE,,,,,,,,,,,,,,,,,,,,,,,,,,,,,,,
,613a9e8e0795eac100d865bb,627c7655f8c71d8cfd8687b1,2022-05-11_21h53.23.972,classification_task,2021.2.3,MacIntel,62.5,627c6715c52fd12f31907bd0,,,,,,,,,,,,,,,,,,,,,,,a,1,1.529,"[""0.190"",""0.386"",""0.846"",""0.800""]","[1,1,1,0]",0,41,41,41,1,0,1,,,0,FALSE,,,,,,,,,,,,,,,,,,,,,,,,,,,,,,,
,613a9e8e0795eac100d865bb,627c7655f8c71d8cfd8687b1,2022-05-11_21h53.23.972,classification_task,2021.2.3,MacIntel,62.5,627c6715c52fd12f31907bd0,,,,,,,,,,,,,,,,,,,,,,,a,1,1.433,"[""0.225"",""0.348"",""0.651"",""0.967""]","[1,1,1,0]",0,42,42,42,1,0,0,,,0,FALSE,,,,,,,,,,,,,,,,,,,,,,,,,,,,,,,
,613a9e8e0795eac100d865bb,627c7655f8c71d8cfd8687b1,2022-05-11_21h53.23.972,classification_task,2021.2.3,MacIntel,62.5,627c6715c52fd12f31907bd0,,,,,,,,,,,,,,,,,,,,,,,a,1,1.099,"[""0.225"",""0.097"",""0.651"",""0.920""]","[1,0,1,1]",0,43,43,43,1,0,0,,,0,FALSE,,,,,,,,,,,,,,,,,,,,,,,,,,,,,,,
,613a9e8e0795eac100d865bb,627c7655f8c71d8cfd8687b1,2022-05-11_21h53.23.972,classification_task,2021.2.3,MacIntel,62.5,627c6715c52fd12f31907bd0,,,,,,,,,,,,,,,,,,,,,,,l,1,2.219,"[""0.060"",""0.289"",""0.470"",""0.702""]","[1,1,0,1]",0,44,44,44,1,1,0,,,0,FALSE,,,,,,,,,,,,,,,,,,,,,,,,,,,,,,,
,613a9e8e0795eac100d865bb,627c7655f8c71d8cfd8687b1,2022-05-11_21h53.23.972,classification_task,2021.2.3,MacIntel,62.5,627c6715c52fd12f31907bd0,,,,,,,,,,,,,,,,,,,,,,,l,1,1.835,"[""0.135"",""0.434"",""0.097"",""0.760""]","[1,1,0,1]",0,45,45,45,1,1,1,,,0,FALSE,,,,,,,,,,,,,,,,,,,,,,,,,,,,,,,
,613a9e8e0795eac100d865bb,627c7655f8c71d8cfd8687b1,2022-05-11_21h53.23.972,classification_task,2021.2.3,MacIntel,62.5,627c6715c52fd12f31907bd0,,,,,,,,,,,,,,,,,,,,,,,l,0,2.535,"[""0.097"",""0.386"",""0.846"",""0.884""]","[0,1,1,1]",0,46,46,46,1,0,1,,,0,FALSE,,,,,,,,,,,,,,,,,,,,,,,,,,,,,,,
,613a9e8e0795eac100d865bb,627c7655f8c71d8cfd8687b1,2022-05-11_21h53.23.972,classification_task,2021.2.3,MacIntel,62.5,627c6715c52fd12f31907bd0,,,,,,,,,,,,,,,,,,,,,,,a,1,2.1,"[""0.470"",""0.348"",""0.651"",""0.920""]","[0,1,1,1]",0,47,47,47,1,0,0,,,0,FALSE,,,,,,,,,,,,,,,,,,,,,,,,,,,,,,,
,613a9e8e0795eac100d865bb,627c7655f8c71d8cfd8687b1,2022-05-11_21h53.23.972,classification_task,2021.2.3,MacIntel,62.5,627c6715c52fd12f31907bd0,,,,,,,,,,,,,,,,,,,,,,,a,1,1.197,"[""0.190"",""0.386"",""0.846"",""0.097""]","[1,1,1,0]",0,48,48,48,1,0,1,,,0,FALSE,,,,,,,,,,,,,,,,,,,,,,,,,,,,,,,
,613a9e8e0795eac100d865bb,627c7655f8c71d8cfd8687b1,2022-05-11_21h53.23.972,classification_task,2021.2.3,MacIntel,62.5,627c6715c52fd12f31907bd0,,,,,,,,,,,,,,,,,,,,,,,l,1,1.149,"[""0.135"",""0.434"",""0.800"",""0.760""]","[1,1,0,1]",0,49,49,49,1,1,1,,,0,FALSE,,,,,,,,,,,,,,,,,,,,,,,,,,,,,,,
,613a9e8e0795eac100d865bb,627c7655f8c71d8cfd8687b1,2022-05-11_21h53.23.972,classification_task,2021.2.3,MacIntel,62.5,627c6715c52fd12f31907bd0,,,,,,,,,,,,,,,,,,,,,,,l,1,1.425,"[""0.060"",""0.289"",""0.967"",""0.702""]","[1,1,0,1]",0,50,50,50,1,1,0,,,0,FALSE,,,,,,,,,,,,,,,,,,,,,,,,,,,,,,,
,613a9e8e0795eac100d865bb,627c7655f8c71d8cfd8687b1,2022-05-11_21h53.23.972,classification_task,2021.2.3,MacIntel,62.5,627c6715c52fd12f31907bd0,,,,,,,,,,,,,,,,,,,,,,,l,1,1.013,"[""0.135"",""0.798"",""0.509"",""0.760""]","[1,0,1,1]",0,51,51,51,1,1,1,,,0,FALSE,,,,,,,,,,,,,,,,,,,,,,,,,,,,,,,
,613a9e8e0795eac100d865bb,627c7655f8c71d8cfd8687b1,2022-05-11_21h53.23.972,classification_task,2021.2.3,MacIntel,62.5,627c6715c52fd12f31907bd0,,,,,,,,,,,,,,,,,,,,,,,a,0,1.26,"[""0.097"",""0.289"",""0.580"",""0.702""]","[0,1,1,1]",0,52,52,52,1,1,0,,,0,FALSE,,,,,,,,,,,,,,,,,,,,,,,,,,,,,,,
,613a9e8e0795eac100d865bb,627c7655f8c71d8cfd8687b1,2022-05-11_21h53.23.972,classification_task,2021.2.3,MacIntel,62.5,627c6715c52fd12f31907bd0,,,,,,,,,,,,,,,,,,,,,,,l,1,1.719,"[""0.060"",""0.289"",""0.580"",""0.471""]","[1,1,1,0]",0,53,53,53,1,1,0,,,0,FALSE,,,,,,,,,,,,,,,,,,,,,,,,,,,,,,,
,613a9e8e0795eac100d865bb,627c7655f8c71d8cfd8687b1,2022-05-11_21h53.23.972,classification_task,2021.2.3,MacIntel,62.5,627c6715c52fd12f31907bd0,,,,,,,,,,,,,,,,,,,,,,,a,1,1.051,"[""0.225"",""0.348"",""0.651"",""0.800""]","[1,1,1,0]",0,54,54,54,1,0,0,,,0,FALSE,,,,,,,,,,,,,,,,,,,,,,,,,,,,,,,
,613a9e8e0795eac100d865bb,627c7655f8c71d8cfd8687b1,2022-05-11_21h53.23.972,classification_task,2021.2.3,MacIntel,62.5,627c6715c52fd12f31907bd0,,,,,,,,,,,,,,,,,,,,,,,a,1,0.704,"[""0.225"",""0.348"",""0.811"",""0.920""]","[1,1,0,1]",0,55,55,55,1,0,0,,,0,FALSE,,,,,,,,,,,,,,,,,,,,,,,,,,,,,,,
,613a9e8e0795eac100d865bb,627c7655f8c71d8cfd8687b1,2022-05-11_21h53.23.972,classification_task,2021.2.3,MacIntel,62.5,627c6715c52fd12f31907bd0,,,,,,,,,,,,,,,,,,,,,,,a,1,1.38,"[""0.190"",""0.386"",""0.800"",""0.884""]","[1,1,0,1]",0,56,56,56,1,0,1,,,0,FALSE,,,,,,,,,,,,,,,,,,,,,,,,,,,,,,,
,613a9e8e0795eac100d865bb,627c7655f8c71d8cfd8687b1,2022-05-11_21h53.23.972,classification_task,2021.2.3,MacIntel,62.5,627c6715c52fd12f31907bd0,,,,,,,,,,,,,,,,,,,,,,,l,0,1.421,"[""0.811"",""0.386"",""0.846"",""0.884""]","[0,1,1,1]",0,57,57,57,1,0,1,,,0,FALSE,,,,,,,,,,,,,,,,,,,,,,,,,,,,,,,
,613a9e8e0795eac100d865bb,627c7655f8c71d8cfd8687b1,2022-05-11_21h53.23.972,classification_task,2021.2.3,MacIntel,62.5,627c6715c52fd12f31907bd0,,,,,,,,,,,,,,,,,,,,,,,a,1,0.927,"[""0.225"",""0.798"",""0.651"",""0.920""]","[1,0,1,1]",0,58,58,58,1,0,0,,,0,FALSE,,,,,,,,,,,,,,,,,,,,,,,,,,,,,,,
,613a9e8e0795eac100d865bb,627c7655f8c71d8cfd8687b1,2022-05-11_21h53.23.972,classification_task,2021.2.3,MacIntel,62.5,627c6715c52fd12f31907bd0,,,,,,,,,,,,,,,,,,,,,,,l,0,2.791,"[""0.798"",""0.348"",""0.651"",""0.920""]","[0,1,1,1]",0,59,59,59,1,0,0,,,0,FALSE,,,,,,,,,,,,,,,,,,,,,,,,,,,,,,,
,613a9e8e0795eac100d865bb,627c7655f8c71d8cfd8687b1,2022-05-11_21h53.23.972,classification_task,2021.2.3,MacIntel,62.5,627c6715c52fd12f31907bd0,,,,,,,,,,,,,,,,,,,,,,,l,1,1.261,"[""0.135"",""0.434"",""0.509"",""0.468""]","[1,1,1,0]",0,60,60,60,1,1,1,,,0,FALSE,,,,,,,,,,,,,,,,,,,,,,,,,,,,,,,
,613a9e8e0795eac100d865bb,627c7655f8c71d8cfd8687b1,2022-05-11_21h53.23.972,classification_task,2021.2.3,MacIntel,62.5,627c6715c52fd12f31907bd0,,,,,,,,,,,,,,,,,,,,,,,l,1,1.635,"[""0.060"",""0.101"",""0.580"",""0.702""]","[1,0,1,1]",0,61,61,61,1,1,0,,,0,FALSE,,,,,,,,,,,,,,,,,,,,,,,,,,,,,,,
,613a9e8e0795eac100d865bb,627c7655f8c71d8cfd8687b1,2022-05-11_21h53.23.972,classification_task,2021.2.3,MacIntel,62.5,627c6715c52fd12f31907bd0,,,,,,,,,,,,,,,,,,,,,,,a,1,1.128,"[""0.190"",""0.097"",""0.846"",""0.884""]","[1,0,1,1]",0,62,62,62,1,0,1,,,0,FALSE,,,,,,,,,,,,,,,,,,,,,,,,,,,,,,,
,613a9e8e0795eac100d865bb,627c7655f8c71d8cfd8687b1,2022-05-11_21h53.23.972,classification_task,2021.2.3,MacIntel,62.5,627c6715c52fd12f31907bd0,,,,,,,,,,,,,,,,,,,,,,,a,0,1.366,"[""0.468"",""0.434"",""0.509"",""0.760""]","[0,1,1,1]",0,63,63,63,1,1,1,,,0,FALSE,,,,,,,,,,,,,,,,,,,,,,,,,,,,,,,
,613a9e8e0795eac100d865bb,627c7655f8c71d8cfd8687b1,2022-05-11_21h53.23.972,classification_task,2021.2.3,MacIntel,62.5,627c6715c52fd12f31907bd0,,,,,,,,,,,,,,,,,,,,,,,,,,,,,,,,,,,,,,,0, ,,0,9.262198707,205.381,0,1,1,1,1,2,2,,,,,,,,,,,,,,,,,,
,613a9e8e0795eac100d865bb,627c7655f8c71d8cfd8687b1,2022-05-11_21h53.23.972,classification_task,2021.2.3,MacIntel,62.5,627c6715c52fd12f31907bd0,,,,,,,,,,,,,,,,,,,,,,,,,,,,,,,,,,,,,,,1,  ,,0,10,196.855,0,1,1,1,1,2,2,,,,,,,,,,,,,,,,,,
,613a9e8e0795eac100d865bb,627c7655f8c71d8cfd8687b1,2022-05-11_21h53.23.972,classification_task,2021.2.3,MacIntel,62.5,627c6715c52fd12f31907bd0,,,,,,,,,,,,,,,,,,,,,,,,,,,,,,,,,,,,,,,2,  ,,0,8.478346071,194.454,0,1,1,1,1,2,2,,,,,,,,,,,,,,,,,,
,613a9e8e0795eac100d865bb,627c7655f8c71d8cfd8687b1,2022-05-11_21h53.23.972,classification_task,2021.2.3,MacIntel,62.5,627c6715c52fd12f31907bd0,,,,,,,,,,,,,,,,,,,,,,,,,,,,,,,,,,,,,,,,,,,,,0,1,1,1,1,,2,,,,,,,,,,,,,,,,,,
,613a9e8e0795eac100d865bb,627c7655f8c71d8cfd8687b1,2022-05-11_21h53.23.972,classification_task,2021.2.3,MacIntel,62.5,627c6715c52fd12f31907bd0,,,,,,,,,,,,,,,,,,,,,space,9.294,l,1,2.118,"[""0.135"",""0.963"",""0.509"",""0.760""]","[1,0,1,1]",0,0,0,0,1,1,1,,,0,FALSE,,,,,,,,,,,,,,,,,,,,,,,,,,,,,,,
,613a9e8e0795eac100d865bb,627c7655f8c71d8cfd8687b1,2022-05-11_21h53.23.972,classification_task,2021.2.3,MacIntel,62.5,627c6715c52fd12f31907bd0,,,,,,,,,,,,,,,,,,,,,,,l,1,0.889,"[""0.135"",""0.434"",""0.545"",""0.760""]","[1,1,0,1]",0,1,1,1,1,1,1,,,0,FALSE,,,,,,,,,,,,,,,,,,,,,,,,,,,,,,,
,613a9e8e0795eac100d865bb,627c7655f8c71d8cfd8687b1,2022-05-11_21h53.23.972,classification_task,2021.2.3,MacIntel,62.5,627c6715c52fd12f31907bd0,,,,,,,,,,,,,,,,,,,,,,,a,1,1.158,"[""0.190"",""0.386"",""0.800"",""0.884""]","[1,1,0,1]",0,2,2,2,1,0,1,,,0,FALSE,,,,,,,,,,,,,,,,,,,,,,,,,,,,,,,
,613a9e8e0795eac100d865bb,627c7655f8c71d8cfd8687b1,2022-05-11_21h53.23.972,classification_task,2021.2.3,MacIntel,62.5,627c6715c52fd12f31907bd0,,,,,,,,,,,,,,,,,,,,,,,l,1,1.568,"[""0.470"",""0.434"",""0.509"",""0.760""]","[0,1,1,1]",0,3,3,3,1,1,1,,,0,FALSE,,,,,,,,,,,,,,,,,,,,,,,,,,,,,,,
,613a9e8e0795eac100d865bb,627c7655f8c71d8cfd8687b1,2022-05-11_21h53.23.972,classification_task,2021.2.3,MacIntel,62.5,627c6715c52fd12f31907bd0,,,,,,,,,,,,,,,,,,,,,,,l,0,2.808,"[""0.970"",""0.386"",""0.846"",""0.884""]","[0,1,1,1]",0,4,4,4,1,0,1,,,0,FALSE,,,,,,,,,,,,,,,,,,,,,,,,,,,,,,,
,613a9e8e0795eac100d865bb,627c7655f8c71d8cfd8687b1,2022-05-11_21h53.23.972,classification_task,2021.2.3,MacIntel,62.5,627c6715c52fd12f31907bd0,,,,,,,,,,,,,,,,,,,,,,,a,1,1.002,"[""0.190"",""0.386"",""0.846"",""0.960""]","[1,1,1,0]",0,5,5,5,1,0,1,,,0,FALSE,,,,,,,,,,,,,,,,,,,,,,,,,,,,,,,
,613a9e8e0795eac100d865bb,627c7655f8c71d8cfd8687b1,2022-05-11_21h53.23.972,classification_task,2021.2.3,MacIntel,62.5,627c6715c52fd12f31907bd0,,,,,,,,,,,,,,,,,,,,,,,l,1,1.368,"[""0.060"",""0.289"",""0.811"",""0.702""]","[1,1,0,1]",0,6,6,6,1,1,0,,,0,FALSE,,,,,,,,,,,,,,,,,,,,,,,,,,,,,,,
,613a9e8e0795eac100d865bb,627c7655f8c71d8cfd8687b1,2022-05-11_21h53.23.972,classification_task,2021.2.3,MacIntel,62.5,627c6715c52fd12f31907bd0,,,,,,,,,,,,,,,,,,,,,,,a,1,1.101,"[""0.225"",""0.545"",""0.651"",""0.920""]","[1,0,1,1]",0,7,7,7,1,0,0,,,0,FALSE,,,,,,,,,,,,,,,,,,,,,,,,,,,,,,,
,613a9e8e0795eac100d865bb,627c7655f8c71d8cfd8687b1,2022-05-11_21h53.23.972,classification_task,2021.2.3,MacIntel,62.5,627c6715c52fd12f31907bd0,,,,,,,,,,,,,,,,,,,,,,,l,1,1.25,"[""0.135"",""0.434"",""0.509"",""0.800""]","[1,1,1,0]",0,8,8,8,1,1,1,,,0,FALSE,,,,,,,,,,,,,,,,,,,,,,,,,,,,,,,
,613a9e8e0795eac100d865bb,627c7655f8c71d8cfd8687b1,2022-05-11_21h53.23.972,classification_task,2021.2.3,MacIntel,62.5,627c6715c52fd12f31907bd0,,,,,,,,,,,,,,,,,,,,,,,l,1,1.623,"[""0.060"",""0.289"",""0.580"",""0.970""]","[1,1,1,0]",0,9,9,9,1,1,0,,,0,FALSE,,,,,,,,,,,,,,,,,,,,,,,,,,,,,,,
,613a9e8e0795eac100d865bb,627c7655f8c71d8cfd8687b1,2022-05-11_21h53.23.972,classification_task,2021.2.3,MacIntel,62.5,627c6715c52fd12f31907bd0,,,,,,,,,,,,,,,,,,,,,,,a,1,1.539,"[""0.097"",""0.348"",""0.651"",""0.920""]","[0,1,1,1]",0,10,10,10,1,0,0,,,0,FALSE,,,,,,,,,,,,,,,,,,,,,,,,,,,,,,,
,613a9e8e0795eac100d865bb,627c7655f8c71d8cfd8687b1,2022-05-11_21h53.23.972,classification_task,2021.2.3,MacIntel,62.5,627c6715c52fd12f31907bd0,,,,,,,,,,,,,,,,,,,,,,,a,1,1.252,"[""0.225"",""0.348"",""0.798"",""0.920""]","[1,1,0,1]",0,11,11,11,1,0,0,,,0,FALSE,,,,,,,,,,,,,,,,,,,,,,,,,,,,,,,
,613a9e8e0795eac100d865bb,627c7655f8c71d8cfd8687b1,2022-05-11_21h53.23.972,classification_task,2021.2.3,MacIntel,62.5,627c6715c52fd12f31907bd0,,,,,,,,,,,,,,,,,,,,,,,a,1,0.756,"[""0.225"",""0.348"",""0.651"",""0.963""]","[1,1,1,0]",0,12,12,12,1,0,0,,,0,FALSE,,,,,,,,,,,,,,,,,,,,,,,,,,,,,,,
,613a9e8e0795eac100d865bb,627c7655f8c71d8cfd8687b1,2022-05-11_21h53.23.972,classification_task,2021.2.3,MacIntel,62.5,627c6715c52fd12f31907bd0,,,,,,,,,,,,,,,,,,,,,,,l,1,2.521,"[""0.800"",""0.289"",""0.580"",""0.702""]","[0,1,1,1]",0,13,13,13,1,1,0,,,0,FALSE,,,,,,,,,,,,,,,,,,,,,,,,,,,,,,,
,613a9e8e0795eac100d865bb,627c7655f8c71d8cfd8687b1,2022-05-11_21h53.23.972,classification_task,2021.2.3,MacIntel,62.5,627c6715c52fd12f31907bd0,,,,,,,,,,,,,,,,,,,,,,,l,1,1.118,"[""0.060"",""0.471"",""0.580"",""0.702""]","[1,0,1,1]",0,14,14,14,1,1,0,,,0,FALSE,,,,,,,,,,,,,,,,,,,,,,,,,,,,,,,
,613a9e8e0795eac100d865bb,627c7655f8c71d8cfd8687b1,2022-05-11_21h53.23.972,classification_task,2021.2.3,MacIntel,62.5,627c6715c52fd12f31907bd0,,,,,,,,,,,,,,,,,,,,,,,a,1,1.257,"[""0.190"",""0.800"",""0.846"",""0.884""]","[1,0,1,1]",0,15,15,15,1,0,1,,,0,FALSE,,,,,,,,,,,,,,,,,,,,,,,,,,,,,,,
,613a9e8e0795eac100d865bb,627c7655f8c71d8cfd8687b1,2022-05-11_21h53.23.972,classification_task,2021.2.3,MacIntel,62.5,627c6715c52fd12f31907bd0,,,,,,,,,,,,,,,,,,,,,,,a,0,1.856,"[""0.960"",""0.434"",""0.509"",""0.760""]","[0,1,1,1]",0,16,16,16,1,1,1,,,0,FALSE,,,,,,,,,,,,,,,,,,,,,,,,,,,,,,,
,613a9e8e0795eac100d865bb,627c7655f8c71d8cfd8687b1,2022-05-11_21h53.23.972,classification_task,2021.2.3,MacIntel,62.5,627c6715c52fd12f31907bd0,,,,,,,,,,,,,,,,,,,,,,,a,1,1.151,"[""0.225"",""0.348"",""0.811"",""0.920""]","[1,1,0,1]",0,17,17,17,1,0,0,,,0,FALSE,,,,,,,,,,,,,,,,,,,,,,,,,,,,,,,
,613a9e8e0795eac100d865bb,627c7655f8c71d8cfd8687b1,2022-05-11_21h53.23.972,classification_task,2021.2.3,MacIntel,62.5,627c6715c52fd12f31907bd0,,,,,,,,,,,,,,,,,,,,,,,a,1,1.267,"[""0.190"",""0.386"",""0.846"",""0.967""]","[1,1,1,0]",0,18,18,18,1,0,1,,,0,FALSE,,,,,,,,,,,,,,,,,,,,,,,,,,,,,,,
,613a9e8e0795eac100d865bb,627c7655f8c71d8cfd8687b1,2022-05-11_21h53.23.972,classification_task,2021.2.3,MacIntel,62.5,627c6715c52fd12f31907bd0,,,,,,,,,,,,,,,,,,,,,,,l,1,1.057,"[""0.060"",""0.960"",""0.580"",""0.702""]","[1,0,1,1]",0,19,19,19,1,1,0,,,0,FALSE,,,,,,,,,,,,,,,,,,,,,,,,,,,,,,,
,613a9e8e0795eac100d865bb,627c7655f8c71d8cfd8687b1,2022-05-11_21h53.23.972,classification_task,2021.2.3,MacIntel,62.5,627c6715c52fd12f31907bd0,,,,,,,,,,,,,,,,,,,,,,,l,1,0.716,"[""0.060"",""0.289"",""0.811"",""0.702""]","[1,1,0,1]",0,20,20,20,1,1,0,,,0,FALSE,,,,,,,,,,,,,,,,,,,,,,,,,,,,,,,
,613a9e8e0795eac100d865bb,627c7655f8c71d8cfd8687b1,2022-05-11_21h53.23.972,classification_task,2021.2.3,MacIntel,62.5,627c6715c52fd12f31907bd0,,,,,,,,,,,,,,,,,,,,,,,a,1,1.09,"[""0.225"",""0.470"",""0.651"",""0.920""]","[1,0,1,1]",0,21,21,21,1,0,0,,,0,FALSE,,,,,,,,,,,,,,,,,,,,,,,,,,,,,,,
,613a9e8e0795eac100d865bb,627c7655f8c71d8cfd8687b1,2022-05-11_21h53.23.972,classification_task,2021.2.3,MacIntel,62.5,627c6715c52fd12f31907bd0,,,,,,,,,,,,,,,,,,,,,,,l,1,1.216,"[""0.135"",""0.798"",""0.509"",""0.760""]","[1,0,1,1]",0,22,22,22,1,1,1,,,0,FALSE,,,,,,,,,,,,,,,,,,,,,,,,,,,,,,,
,613a9e8e0795eac100d865bb,627c7655f8c71d8cfd8687b1,2022-05-11_21h53.23.972,classification_task,2021.2.3,MacIntel,62.5,627c6715c52fd12f31907bd0,,,,,,,,,,,,,,,,,,,,,,,l,0,1.354,"[""0.545"",""0.386"",""0.846"",""0.884""]","[0,1,1,1]",0,23,23,23,1,0,1,,,0,FALSE,,,,,,,,,,,,,,,,,,,,,,,,,,,,,,,
,613a9e8e0795eac100d865bb,627c7655f8c71d8cfd8687b1,2022-05-11_21h53.23.972,classification_task,2021.2.3,MacIntel,62.5,627c6715c52fd12f31907bd0,,,,,,,,,,,,,,,,,,,,,,,l,1,1.169,"[""0.135"",""0.434"",""0.470"",""0.760""]","[1,1,0,1]",0,24,24,24,1,1,1,,,0,FALSE,,,,,,,,,,,,,,,,,,,,,,,,,,,,,,,
,613a9e8e0795eac100d865bb,627c7655f8c71d8cfd8687b1,2022-05-11_21h53.23.972,classification_task,2021.2.3,MacIntel,62.5,627c6715c52fd12f31907bd0,,,,,,,,,,,,,,,,,,,,,,,l,1,0.753,"[""0.135"",""0.434"",""0.509"",""0.960""]","[1,1,1,0]",0,25,25,25,1,1,1,,,0,FALSE,,,,,,,,,,,,,,,,,,,,,,,,,,,,,,,
,613a9e8e0795eac100d865bb,627c7655f8c71d8cfd8687b1,2022-05-11_21h53.23.972,classification_task,2021.2.3,MacIntel,62.5,627c6715c52fd12f31907bd0,,,,,,,,,,,,,,,,,,,,,,,a,1,2.02,"[""0.225"",""0.348"",""0.651"",""0.101""]","[1,1,1,0]",0,26,26,26,1,0,0,,,0,FALSE,,,,,,,,,,,,,,,,,,,,,,,,,,,,,,,
,613a9e8e0795eac100d865bb,627c7655f8c71d8cfd8687b1,2022-05-11_21h53.23.972,classification_task,2021.2.3,MacIntel,62.5,627c6715c52fd12f31907bd0,,,,,,,,,,,,,,,,,,,,,,,a,1,1.355,"[""0.190"",""0.386"",""0.970"",""0.884""]","[1,1,0,1]",0,27,27,27,1,0,1,,,0,FALSE,,,,,,,,,,,,,,,,,,,,,,,,,,,,,,,
,613a9e8e0795eac100d865bb,627c7655f8c71d8cfd8687b1,2022-05-11_21h53.23.972,classification_task,2021.2.3,MacIntel,62.5,627c6715c52fd12f31907bd0,,,,,,,,,,,,,,,,,,,,,,,a,1,1.023,"[""0.190"",""0.471"",""0.846"",""0.884""]","[1,0,1,1]",0,28,28,28,1,0,1,,,0,FALSE,,,,,,,,,,,,,,,,,,,,,,,,,,,,,,,
,613a9e8e0795eac100d865bb,627c7655f8c71d8cfd8687b1,2022-05-11_21h53.23.972,classification_task,2021.2.3,MacIntel,62.5,627c6715c52fd12f31907bd0,,,,,,,,,,,,,,,,,,,,,,,l,1,1.19,"[""0.060"",""0.289"",""0.580"",""0.798""]","[1,1,1,0]",0,29,29,29,1,1,0,,,0,FALSE,,,,,,,,,,,,,,,,,,,,,,,,,,,,,,,
,613a9e8e0795eac100d865bb,627c7655f8c71d8cfd8687b1,2022-05-11_21h53.23.972,classification_task,2021.2.3,MacIntel,62.5,627c6715c52fd12f31907bd0,,,,,,,,,,,,,,,,,,,,,,,l,0,1.118,"[""0.097"",""0.348"",""0.651"",""0.920""]","[0,1,1,1]",0,30,30,30,1,0,0,,,0,FALSE,,,,,,,,,,,,,,,,,,,,,,,,,,,,,,,
,613a9e8e0795eac100d865bb,627c7655f8c71d8cfd8687b1,2022-05-11_21h53.23.972,classification_task,2021.2.3,MacIntel,62.5,627c6715c52fd12f31907bd0,,,,,,,,,,,,,,,,,,,,,,,l,1,1.217,"[""0.970"",""0.289"",""0.580"",""0.702""]","[0,1,1,1]",0,31,31,31,1,1,0,,,0,FALSE,,,,,,,,,,,,,,,,,,,,,,,,,,,,,,,
,613a9e8e0795eac100d865bb,627c7655f8c71d8cfd8687b1,2022-05-11_21h53.23.972,classification_task,2021.2.3,MacIntel,62.5,627c6715c52fd12f31907bd0,,,,,,,,,,,,,,,,,,,,,,,a,1,1.1,"[""0.190"",""0.386"",""0.846"",""0.800""]","[1,1,1,0]",0,32,32,32,1,0,1,,,0,FALSE,,,,,,,,,,,,,,,,,,,,,,,,,,,,,,,
,613a9e8e0795eac100d865bb,627c7655f8c71d8cfd8687b1,2022-05-11_21h53.23.972,classification_task,2021.2.3,MacIntel,62.5,627c6715c52fd12f31907bd0,,,,,,,,,,,,,,,,,,,,,,,l,1,1.04,"[""0.135"",""0.434"",""0.509"",""0.545""]","[1,1,1,0]",0,33,33,33,1,1,1,,,0,FALSE,,,,,,,,,,,,,,,,,,,,,,,,,,,,,,,
,613a9e8e0795eac100d865bb,627c7655f8c71d8cfd8687b1,2022-05-11_21h53.23.972,classification_task,2021.2.3,MacIntel,62.5,627c6715c52fd12f31907bd0,,,,,,,,,,,,,,,,,,,,,,,l,0,1.653,"[""0.545"",""0.348"",""0.651"",""0.920""]","[0,1,1,1]",0,34,34,34,1,0,0,,,0,FALSE,,,,,,,,,,,,,,,,,,,,,,,,,,,,,,,
,613a9e8e0795eac100d865bb,627c7655f8c71d8cfd8687b1,2022-05-11_21h53.23.972,classification_task,2021.2.3,MacIntel,62.5,627c6715c52fd12f31907bd0,,,,,,,,,,,,,,,,,,,,,,,l,1,1.002,"[""0.060"",""0.289"",""0.580"",""0.471""]","[1,1,1,0]",0,35,35,35,1,1,0,,,0,FALSE,,,,,,,,,,,,,,,,,,,,,,,,,,,,,,,
,613a9e8e0795eac100d865bb,627c7655f8c71d8cfd8687b1,2022-05-11_21h53.23.972,classification_task,2021.2.3,MacIntel,62.5,627c6715c52fd12f31907bd0,,,,,,,,,,,,,,,,,,,,,,,l,1,0.95,"[""0.960"",""0.434"",""0.509"",""0.760""]","[0,1,1,1]",0,36,36,36,1,1,1,,,0,FALSE,,,,,,,,,,,,,,,,,,,,,,,,,,,,,,,
,613a9e8e0795eac100d865bb,627c7655f8c71d8cfd8687b1,2022-05-11_21h53.23.972,classification_task,2021.2.3,MacIntel,62.5,627c6715c52fd12f31907bd0,,,,,,,,,,,,,,,,,,,,,,,l,1,1.125,"[""0.135"",""0.960"",""0.509"",""0.760""]","[1,0,1,1]",0,37,37,37,1,1,1,,,0,FALSE,,,,,,,,,,,,,,,,,,,,,,,,,,,,,,,
,613a9e8e0795eac100d865bb,627c7655f8c71d8cfd8687b1,2022-05-11_21h53.23.972,classification_task,2021.2.3,MacIntel,62.5,627c6715c52fd12f31907bd0,,,,,,,,,,,,,,,,,,,,,,,a,1,1.423,"[""0.225"",""0.348"",""0.097"",""0.920""]","[1,1,0,1]",0,38,38,38,1,0,0,,,0,FALSE,,,,,,,,,,,,,,,,,,,,,,,,,,,,,,,
,613a9e8e0795eac100d865bb,627c7655f8c71d8cfd8687b1,2022-05-11_21h53.23.972,classification_task,2021.2.3,MacIntel,62.5,627c6715c52fd12f31907bd0,,,,,,,,,,,,,,,,,,,,,,,l,1,1.386,"[""0.060"",""0.471"",""0.580"",""0.702""]","[1,0,1,1]",0,39,39,39,1,1,0,,,0,FALSE,,,,,,,,,,,,,,,,,,,,,,,,,,,,,,,
,613a9e8e0795eac100d865bb,627c7655f8c71d8cfd8687b1,2022-05-11_21h53.23.972,classification_task,2021.2.3,MacIntel,62.5,627c6715c52fd12f31907bd0,,,,,,,,,,,,,,,,,,,,,,,l,1,1.401,"[""0.135"",""0.434"",""0.798"",""0.760""]","[1,1,0,1]",0,40,40,40,1,1,1,,,0,FALSE,,,,,,,,,,,,,,,,,,,,,,,,,,,,,,,
,613a9e8e0795eac100d865bb,627c7655f8c71d8cfd8687b1,2022-05-11_21h53.23.972,classification_task,2021.2.3,MacIntel,62.5,627c6715c52fd12f31907bd0,,,,,,,,,,,,,,,,,,,,,,,l,1,1.351,"[""0.060"",""0.289"",""0.798"",""0.702""]","[1,1,0,1]",0,41,41,41,1,1,0,,,0,FALSE,,,,,,,,,,,,,,,,,,,,,,,,,,,,,,,
,613a9e8e0795eac100d865bb,627c7655f8c71d8cfd8687b1,2022-05-11_21h53.23.972,classification_task,2021.2.3,MacIntel,62.5,627c6715c52fd12f31907bd0,,,,,,,,,,,,,,,,,,,,,,,a,1,1.268,"[""0.800"",""0.386"",""0.846"",""0.884""]","[0,1,1,1]",0,42,42,42,1,0,1,,,0,FALSE,,,,,,,,,,,,,,,,,,,,,,,,,,,,,,,
,613a9e8e0795eac100d865bb,627c7655f8c71d8cfd8687b1,2022-05-11_21h53.23.972,classification_task,2021.2.3,MacIntel,62.5,627c6715c52fd12f31907bd0,,,,,,,,,,,,,,,,,,,,,,,l,1,1.375,"[""0.798"",""0.289"",""0.580"",""0.702""]","[0,1,1,1]",0,43,43,43,1,1,0,,,0,FALSE,,,,,,,,,,,,,,,,,,,,,,,,,,,,,,,
,613a9e8e0795eac100d865bb,627c7655f8c71d8cfd8687b1,2022-05-11_21h53.23.972,classification_task,2021.2.3,MacIntel,62.5,627c6715c52fd12f31907bd0,,,,,,,,,,,,,,,,,,,,,,,a,1,0.823,"[""0.225"",""0.348"",""0.651"",""0.811""]","[1,1,1,0]",0,44,44,44,1,0,0,,,0,FALSE,,,,,,,,,,,,,,,,,,,,,,,,,,,,,,,
,613a9e8e0795eac100d865bb,627c7655f8c71d8cfd8687b1,2022-05-11_21h53.23.972,classification_task,2021.2.3,MacIntel,62.5,627c6715c52fd12f31907bd0,,,,,,,,,,,,,,,,,,,,,,,a,1,1.334,"[""0.190"",""0.960"",""0.846"",""0.884""]","[1,0,1,1]",0,45,45,45,1,0,1,,,0,FALSE,,,,,,,,,,,,,,,,,,,,,,,,,,,,,,,
,613a9e8e0795eac100d865bb,627c7655f8c71d8cfd8687b1,2022-05-11_21h53.23.972,classification_task,2021.2.3,MacIntel,62.5,627c6715c52fd12f31907bd0,,,,,,,,,,,,,,,,,,,,,,,a,1,0.852,"[""0.190"",""0.386"",""0.963"",""0.884""]","[1,1,0,1]",0,46,46,46,1,0,1,,,0,FALSE,,,,,,,,,,,,,,,,,,,,,,,,,,,,,,,
,613a9e8e0795eac100d865bb,627c7655f8c71d8cfd8687b1,2022-05-11_21h53.23.972,classification_task,2021.2.3,MacIntel,62.5,627c6715c52fd12f31907bd0,,,,,,,,,,,,,,,,,,,,,,,a,1,1.016,"[""0.225"",""0.807"",""0.651"",""0.920""]","[1,0,1,1]",0,47,47,47,1,0,0,,,0,FALSE,,,,,,,,,,,,,,,,,,,,,,,,,,,,,,,
,613a9e8e0795eac100d865bb,627c7655f8c71d8cfd8687b1,2022-05-11_21h53.23.972,classification_task,2021.2.3,MacIntel,62.5,627c6715c52fd12f31907bd0,,,,,,,,,,,,,,,,,,,,,,,a,1,1.284,"[""0.190"",""0.386"",""0.807"",""0.884""]","[1,1,0,1]",0,48,48,48,1,0,1,,,0,FALSE,,,,,,,,,,,,,,,,,,,,,,,,,,,,,,,
,613a9e8e0795eac100d865bb,627c7655f8c71d8cfd8687b1,2022-05-11_21h53.23.972,classification_task,2021.2.3,MacIntel,62.5,627c6715c52fd12f31907bd0,,,,,,,,,,,,,,,,,,,,,,,l,1,0.892,"[""0.060"",""0.289"",""0.580"",""0.963""]","[1,1,1,0]",0,49,49,49,1,1,0,,,0,FALSE,,,,,,,,,,,,,,,,,,,,,,,,,,,,,,,
,613a9e8e0795eac100d865bb,627c7655f8c71d8cfd8687b1,2022-05-11_21h53.23.972,classification_task,2021.2.3,MacIntel,62.5,627c6715c52fd12f31907bd0,,,,,,,,,,,,,,,,,,,,,,,a,1,1.972,"[""0.807"",""0.386"",""0.846"",""0.884""]","[0,1,1,1]",0,50,50,50,1,0,1,,,0,FALSE,,,,,,,,,,,,,,,,,,,,,,,,,,,,,,,
,613a9e8e0795eac100d865bb,627c7655f8c71d8cfd8687b1,2022-05-11_21h53.23.972,classification_task,2021.2.3,MacIntel,62.5,627c6715c52fd12f31907bd0,,,,,,,,,,,,,,,,,,,,,,,l,1,1.188,"[""0.967"",""0.289"",""0.580"",""0.702""]","[0,1,1,1]",0,51,51,51,1,1,0,,,0,FALSE,,,,,,,,,,,,,,,,,,,,,,,,,,,,,,,
,613a9e8e0795eac100d865bb,627c7655f8c71d8cfd8687b1,2022-05-11_21h53.23.972,classification_task,2021.2.3,MacIntel,62.5,627c6715c52fd12f31907bd0,,,,,,,,,,,,,,,,,,,,,,,l,1,1.535,"[""0.545"",""0.434"",""0.509"",""0.760""]","[0,1,1,1]",0,52,52,52,1,1,1,,,0,FALSE,,,,,,,,,,,,,,,,,,,,,,,,,,,,,,,
,613a9e8e0795eac100d865bb,627c7655f8c71d8cfd8687b1,2022-05-11_21h53.23.972,classification_task,2021.2.3,MacIntel,62.5,627c6715c52fd12f31907bd0,,,,,,,,,,,,,,,,,,,,,,,a,1,2.118,"[""0.225"",""0.471"",""0.651"",""0.920""]","[1,0,1,1]",0,53,53,53,1,0,0,,,0,FALSE,,,,,,,,,,,,,,,,,,,,,,,,,,,,,,,
,613a9e8e0795eac100d865bb,627c7655f8c71d8cfd8687b1,2022-05-11_21h53.23.972,classification_task,2021.2.3,MacIntel,62.5,627c6715c52fd12f31907bd0,,,,,,,,,,,,,,,,,,,,,,,a,1,0.685,"[""0.225"",""0.348"",""0.800"",""0.920""]","[1,1,0,1]",0,54,54,54,1,0,0,,,0,FALSE,,,,,,,,,,,,,,,,,,,,,,,,,,,,,,,
,613a9e8e0795eac100d865bb,627c7655f8c71d8cfd8687b1,2022-05-11_21h53.23.972,classification_task,2021.2.3,MacIntel,62.5,627c6715c52fd12f31907bd0,,,,,,,,,,,,,,,,,,,,,,,a,1,1.184,"[""0.190"",""0.471"",""0.846"",""0.884""]","[1,0,1,1]",0,55,55,55,1,0,1,,,0,FALSE,,,,,,,,,,,,,,,,,,,,,,,,,,,,,,,
,613a9e8e0795eac100d865bb,627c7655f8c71d8cfd8687b1,2022-05-11_21h53.23.972,classification_task,2021.2.3,MacIntel,62.5,627c6715c52fd12f31907bd0,,,,,,,,,,,,,,,,,,,,,,,l,1,0.903,"[""0.135"",""0.434"",""0.800"",""0.760""]","[1,1,0,1]",0,56,56,56,1,1,1,,,0,FALSE,,,,,,,,,,,,,,,,,,,,,,,,,,,,,,,
,613a9e8e0795eac100d865bb,627c7655f8c71d8cfd8687b1,2022-05-11_21h53.23.972,classification_task,2021.2.3,MacIntel,62.5,627c6715c52fd12f31907bd0,,,,,,,,,,,,,,,,,,,,,,,l,1,2.149,"[""0.060"",""0.101"",""0.580"",""0.702""]","[1,0,1,1]",0,57,57,57,1,1,0,,,0,FALSE,,,,,,,,,,,,,,,,,,,,,,,,,,,,,,,
,613a9e8e0795eac100d865bb,627c7655f8c71d8cfd8687b1,2022-05-11_21h53.23.972,classification_task,2021.2.3,MacIntel,62.5,627c6715c52fd12f31907bd0,,,,,,,,,,,,,,,,,,,,,,,a,1,1.168,"[""0.190"",""0.386"",""0.846"",""0.097""]","[1,1,1,0]",0,58,58,58,1,0,1,,,0,FALSE,,,,,,,,,,,,,,,,,,,,,,,,,,,,,,,
,613a9e8e0795eac100d865bb,627c7655f8c71d8cfd8687b1,2022-05-11_21h53.23.972,classification_task,2021.2.3,MacIntel,62.5,627c6715c52fd12f31907bd0,,,,,,,,,,,,,,,,,,,,,,,a,1,1.908,"[""0.960"",""0.348"",""0.651"",""0.920""]","[0,1,1,1]",0,59,59,59,1,0,0,,,0,FALSE,,,,,,,,,,,,,,,,,,,,,,,,,,,,,,,
,613a9e8e0795eac100d865bb,627c7655f8c71d8cfd8687b1,2022-05-11_21h53.23.972,classification_task,2021.2.3,MacIntel,62.5,627c6715c52fd12f31907bd0,,,,,,,,,,,,,,,,,,,,,,,l,1,1.134,"[""0.135"",""0.434"",""0.509"",""0.800""]","[1,1,1,0]",0,60,60,60,1,1,1,,,0,FALSE,,,,,,,,,,,,,,,,,,,,,,,,,,,,,,,
,613a9e8e0795eac100d865bb,627c7655f8c71d8cfd8687b1,2022-05-11_21h53.23.972,classification_task,2021.2.3,MacIntel,62.5,627c6715c52fd12f31907bd0,,,,,,,,,,,,,,,,,,,,,,,l,1,1.09,"[""0.135"",""0.800"",""0.509"",""0.760""]","[1,0,1,1]",0,61,61,61,1,1,1,,,0,FALSE,,,,,,,,,,,,,,,,,,,,,,,,,,,,,,,
,613a9e8e0795eac100d865bb,627c7655f8c71d8cfd8687b1,2022-05-11_21h53.23.972,classification_task,2021.2.3,MacIntel,62.5,627c6715c52fd12f31907bd0,,,,,,,,,,,,,,,,,,,,,,,a,1,2.273,"[""0.225"",""0.348"",""0.651"",""0.470""]","[1,1,1,0]",0,62,62,62,1,0,0,,,0,FALSE,,,,,,,,,,,,,,,,,,,,,,,,,,,,,,,
,613a9e8e0795eac100d865bb,627c7655f8c71d8cfd8687b1,2022-05-11_21h53.23.972,classification_task,2021.2.3,MacIntel,62.5,627c6715c52fd12f31907bd0,,,,,,,,,,,,,,,,,,,,,,,l,1,1.36,"[""0.060"",""0.289"",""0.101"",""0.702""]","[1,1,0,1]",0,63,63,63,1,1,0,,,0,FALSE,,,,,,,,,,,,,,,,,,,,,,,,,,,,,,,
,613a9e8e0795eac100d865bb,627c7655f8c71d8cfd8687b1,2022-05-11_21h53.23.972,classification_task,2021.2.3,MacIntel,62.5,627c6715c52fd12f31907bd0,,,,,,,,,,,,,,,,,,,,,,,,,,,,,,,,,,,,,,,0, ,,0,10,167.624,0,2,2,2,1,2,3,,,,,,,,,,,,,,,,,,
,613a9e8e0795eac100d865bb,627c7655f8c71d8cfd8687b1,2022-05-11_21h53.23.972,classification_task,2021.2.3,MacIntel,62.5,627c6715c52fd12f31907bd0,,,,,,,,,,,,,,,,,,,,,,,,,,,,,,,,,,,,,,,1,  ,,0,10,171.311,0,2,2,2,1,2,3,,,,,,,,,,,,,,,,,,
,613a9e8e0795eac100d865bb,627c7655f8c71d8cfd8687b1,2022-05-11_21h53.23.972,classification_task,2021.2.3,MacIntel,62.5,627c6715c52fd12f31907bd0,,,,,,,,,,,,,,,,,,,,,,,,,,,,,,,,,,,,,,,2,  ,,0,7.621007251,172.471,0,2,2,2,1,2,3,,,,,,,,,,,,,,,,,,
,613a9e8e0795eac100d865bb,627c7655f8c71d8cfd8687b1,2022-05-11_21h53.23.972,classification_task,2021.2.3,MacIntel,62.5,627c6715c52fd12f31907bd0,,,,,,,,,,,,,,,,,,,,,,,,,,,,,,,,,,,,,,,,,,,,,0,2,2,2,1,,3,,,,,,,,,,,,,,,,,,
,613a9e8e0795eac100d865bb,627c7655f8c71d8cfd8687b1,2022-05-11_21h53.23.972,classification_task,2021.2.3,MacIntel,62.5,627c6715c52fd12f31907bd0,,,,,,,,,,,,,,,,,,,,,,,,,,,,,,,,,,,,,,,,,,,,,,,,,,,,,I believe the aid is a competent performer,,0.7,0,3,826.714,0,0,0,0,1,0,,,,,
,613a9e8e0795eac100d865bb,627c7655f8c71d8cfd8687b1,2022-05-11_21h53.23.972,classification_task,2021.2.3,MacIntel,62.5,627c6715c52fd12f31907bd0,,,,,,,,,,,,,,,,,,,,,,,,,,,,,,,,,,,,,,,,,,,,,,,,,,,,,I trust the aid,,0.7,0,3,827.33,0,0,0,0,1,0,,,,,
,613a9e8e0795eac100d865bb,627c7655f8c71d8cfd8687b1,2022-05-11_21h53.23.972,classification_task,2021.2.3,MacIntel,62.5,627c6715c52fd12f31907bd0,,,,,,,,,,,,,,,,,,,,,,,,,,,,,,,,,,,,,,,,,,,,,,,,,,,,,I have confidence in the advice given by the aid,,0.7,0,2,830.209,0,0,0,0,1,0,,,,,
,613a9e8e0795eac100d865bb,627c7655f8c71d8cfd8687b1,2022-05-11_21h53.23.972,classification_task,2021.2.3,MacIntel,62.5,627c6715c52fd12f31907bd0,,,,,,,,,,,,,,,,,,,,,,,,,,,,,,,,,,,,,,,,,,,,,,,,,,,,,I can depend on the aid,,0.7,0,2,832.885,0,0,0,0,1,0,,,,,
,613a9e8e0795eac100d865bb,627c7655f8c71d8cfd8687b1,2022-05-11_21h53.23.972,classification_task,2021.2.3,MacIntel,62.5,627c6715c52fd12f31907bd0,,,,,,,,,,,,,,,,,,,,,,,,,,,,,,,,,,,,,,,,,,,,,,,,,,,,,I can rely on the aid to behave in consistent ways,,0.7,0,1,835.618,0,0,0,0,1,0,,,,,
,613a9e8e0795eac100d865bb,627c7655f8c71d8cfd8687b1,2022-05-11_21h53.23.972,classification_task,2021.2.3,MacIntel,62.5,627c6715c52fd12f31907bd0,,,,,,,,,,,,,,,,,,,,,,,,,,,,,,,,,,,,,,,,,,,,,,,,,,,,,I can rely on the aid to do its best every time I take its advice,,0.7,0,3,846.529,0,0,0,0,1,0,,,,,
,613a9e8e0795eac100d865bb,627c7655f8c71d8cfd8687b1,2022-05-11_21h53.23.972,classification_task,2021.2.3,MacIntel,62.5,627c6715c52fd12f31907bd0,,,,,,,,,,,,,,,,,,,,,,,,,,,,,,,,,,,,,,,,,,,,,,,,,,,,,"On trials you completed with assistance from the aid, how frequently did you think the aid was correct?",,0.7,0,70%,,0,0,0,0,1,0,,,,,
,613a9e8e0795eac100d865bb,627c7655f8c71d8cfd8687b1,2022-05-11_21h53.23.972,classification_task,2021.2.3,MacIntel,62.5,627c6715c52fd12f31907bd0,,,,,,,,,,,,,,,,,,,,,,,,,,,,,,,,,,,,,,,,,,,,,,,,,,,,,"On trials you completed without the aid, how frequently did you think you were correct?",,0.7,0,80%,,0,0,0,0,1,0,,,,,
,613a9e8e0795eac100d865bb,627c7655f8c71d8cfd8687b1,2022-05-11_21h53.23.972,classification_task,2021.2.3,MacIntel,62.5,627c6715c52fd12f31907bd0,,,,,,,,,,,,,,,,,,,,,,,,,,,,,,,,,,,,,,,,,,,,,,,,,,,,,,,,,,,0,0,0,0,1,,,,,,
,613a9e8e0795eac100d865bb,627c7655f8c71d8cfd8687b1,2022-05-11_21h53.23.972,classification_task,2021.2.3,MacIntel,62.5,627c6715c52fd12f31907bd0,,,,,,,,,,,,,,,,,,,,,,,,,,,,,,,,,,,,,,,,,,,,,,,,,,,,,,,,,,,,,,,,,space,9.349,878.266,,
,613a9e8e0795eac100d865bb,627c7655f8c71d8cfd8687b1,2022-05-11_21h53.23.972,classification_task,2021.2.3,MacIntel,62.5,627c6715c52fd12f31907bd0,,,,,,,,,,,,,,,,,,,,,,,,,,,,,,,,,,,,,,,,,,,,,,,,,,,,,,,,,,,,,,,,,,,,"Mozilla/5.0 (Macintosh; Intel Mac OS X 10_14_6) AppleWebKit/605.1.15 (KHTML, like Gecko) Version/14.1.2 Safari/605.1.15",
,613a9e8e0795eac100d865bb,627c7655f8c71d8cfd8687b1,2022-05-11_21h53.23.972,classification_task,2021.2.3,MacIntel,62.5,627c6715c52fd12f31907bd0,,,,,,,,,,,,,,,,,,,,,,,,,,,,,,,,,,,,,,,,,,,,,,,,,,,,,,,,,,,,,,,,,,,,,HIGHLIGHT
