usingWebGL,participant,session,date,expName,psychopyVersion,OS,frameRate,study_id,signatures_friend,signatures_foe,band_ranges_top,band_ranges_bottom,formitemText,formtype,formundefined,formitemWidth,formindex,formresponse,formrt,key_resp_2.keys,key_resp_2.rt,tute_resp.keys,tute_resp.rt,tutorial.thisRepN,tutorial.thisTrialN,tutorial.thisN,tutorial.thisIndex,tutorial.ran,key_resp_4.keys,key_resp_4.rt,key_resp.keys,key_resp.corr,lines_presented,is_signal_presented,trials.thisRepN,trials.thisTrialN,trials.thisN,trials.thisIndex,trials.ran,vessel,active_band,lines,is_signal,supported_pos,catch_trial,key_resp.rt,debrief_formindex,debrief_formitemText,debrief_formtype,debrief_formitemWidth,debrief_formresponse,debrief_formrt,phases.thisRepN,phases.thisTrialN,phases.thisN,phases.thisIndex,phases.ran,phases.order,phase,key_resp_3.keys,trustitemText,trusttype,trustitemWidth,trustindex,trustresponse,trustrt,support_status.thisRepN,support_status.thisTrialN,support_status.thisN,support_status.thisIndex,support_status.ran,support_status.order,key_resp_5.keys,key_resp_5.rt,globalClockTime,userAgent,manualCondition
TRUE,613ae6e178fbca0316c2b325,627c6f50503fb2cc574e4376,2022-05-11_21h25.35.374,classification_task,2021.2.3,MacIntel,59.99880002,627c6715c52fd12f31907bd0,,,,,,,,,,,,,,,,,,,,,,,,,,,,,,,,,,,,,,,,,,,,,,,,,,,,,,,,,,,,,,,,,,,,,
,613ae6e178fbca0316c2b325,627c6f50503fb2cc574e4376,2022-05-11_21h25.35.374,classification_task,2021.2.3,MacIntel,59.99880002,627c6715c52fd12f31907bd0,"[[""0.215"",""0.394"",""0.831"",""0.933""],[""0.174"",""0.434"",""0.566"",""0.890""]]","[[""0.136"",""0.339"",""0.468"",""0.693""],[""0.084"",""0.275"",""0.515"",""0.753""]]","[1,10]","[100,1000]",Video game experience,,,0.7,0,,,,,,,,,,,,,,,,,,,,,,,,,,,,,,,,,,,,,,,,,,,,,,,,,,,,,,,,,,,,
,613ae6e178fbca0316c2b325,627c6f50503fb2cc574e4376,2022-05-11_21h25.35.374,classification_task,2021.2.3,MacIntel,59.99880002,627c6715c52fd12f31907bd0,,,,,Approximately how many hours did you spend playing video games in the last week?,,,0.7,0,0,,,,,,,,,,,,,,,,,,,,,,,,,,,,,,,,,,,,,,,,,,,,,,,,,,,,,,,,,,,
,613ae6e178fbca0316c2b325,627c6f50503fb2cc574e4376,2022-05-11_21h25.35.374,classification_task,2021.2.3,MacIntel,59.99880002,627c6715c52fd12f31907bd0,,,,,"Which game did you play the most this year? (Enter ""None"" if you didn't play any)",,,0.7,0,None,,,,,,,,,,,,,,,,,,,,,,,,,,,,,,,,,,,,,,,,,,,,,,,,,,,,,,,,,,,
,613ae6e178fbca0316c2b325,627c6f50503fb2cc574e4376,2022-05-11_21h25.35.374,classification_task,2021.2.3,MacIntel,59.99880002,627c6715c52fd12f31907bd0,,,,,Visual perception,,,0.7,0,,,,,,,,,,,,,,,,,,,,,,,,,,,,,,,,,,,,,,,,,,,,,,,,,,,,,,,,,,,,
,613ae6e178fbca0316c2b325,627c6f50503fb2cc574e4376,2022-05-11_21h25.35.374,classification_task,2021.2.3,MacIntel,59.99880002,627c6715c52fd12f31907bd0,,,,,Do you have any form of color blindness?,,,0.7,0,No,25.0108,,,,,,,,,,,,,,,,,,,,,,,,,,,,,,,,,,,,,,,,,,,,,,,,,,,,,,,,,,
,613ae6e178fbca0316c2b325,627c6f50503fb2cc574e4376,2022-05-11_21h25.35.374,classification_task,2021.2.3,MacIntel,59.99880002,627c6715c52fd12f31907bd0,,,,,Do you use software to change the colour temperature of your screen (e.g. f.lux)?,,,0.7,0,No,28.9302,,,,,,,,,,,,,,,,,,,,,,,,,,,,,,,,,,,,,,,,,,,,,,,,,,,,,,,,,,
,613ae6e178fbca0316c2b325,627c6f50503fb2cc574e4376,2022-05-11_21h25.35.374,classification_task,2021.2.3,MacIntel,59.99880002,627c6715c52fd12f31907bd0,,,,,,,,,,,,space,57.8978,space,13.4505,0,0,0,0,1,,,,,,,,,,,,,,,,,,,,,,,,,,,,,,,,,,,,,,,,,,,,,,,,,
,613ae6e178fbca0316c2b325,627c6f50503fb2cc574e4376,2022-05-11_21h25.35.374,classification_task,2021.2.3,MacIntel,59.99880002,627c6715c52fd12f31907bd0,,,,,,,,,,,,,,space,12.1978,1,0,1,0,1,,,,,,,,,,,,,,,,,,,,,,,,,,,,,,,,,,,,,,,,,,,,,,,,,
,613ae6e178fbca0316c2b325,627c6f50503fb2cc574e4376,2022-05-11_21h25.35.374,classification_task,2021.2.3,MacIntel,59.99880002,627c6715c52fd12f31907bd0,,,,,,,,,,,,,,space,42.6983,2,0,2,0,1,,,,,,,,,,,,,,,,,,,,,,,,,,,,,,,,,,,,,,,,,,,,,,,,,
,613ae6e178fbca0316c2b325,627c6f50503fb2cc574e4376,2022-05-11_21h25.35.374,classification_task,2021.2.3,MacIntel,59.99880002,627c6715c52fd12f31907bd0,,,,,,,,,,,,,,space,6.5795,3,0,3,0,1,,,,,,,,,,,,,,,,,,,,,,,,,,,,,,,,,,,,,,,,,,,,,,,,,
,613ae6e178fbca0316c2b325,627c6f50503fb2cc574e4376,2022-05-11_21h25.35.374,classification_task,2021.2.3,MacIntel,59.99880002,627c6715c52fd12f31907bd0,,,,,,,,,,,,,,space,32.8858,4,0,4,0,1,,,,,,,,,,,,,,,,,,,,,,,,,,,,,,,,,,,,,,,,,,,,,,,,,
,613ae6e178fbca0316c2b325,627c6f50503fb2cc574e4376,2022-05-11_21h25.35.374,classification_task,2021.2.3,MacIntel,59.99880002,627c6715c52fd12f31907bd0,,,,,,,,,,,,,,,,,,,,,space,47.417,,0,"[""0.215"",""0.394"",""0.659"",""0.933""]","[1,1,0,1]",0,0,0,0,1,0,0,,,1,FALSE,,,,,,,,,,,,,,,,,,,,,,,,,,,,,,,,
,613ae6e178fbca0316c2b325,627c6f50503fb2cc574e4376,2022-05-11_21h25.35.374,classification_task,2021.2.3,MacIntel,59.99880002,627c6715c52fd12f31907bd0,,,,,,,,,,,,,,,,,,,,,,,l,1,"[""0.136"",""0.339"",""0.652"",""0.693""]","[1,1,0,1]",0,1,1,1,1,1,0,,,1,FALSE,3.7132,,,,,,,,,,,,,,,,,,,,,,,,,,,,,,,
,613ae6e178fbca0316c2b325,627c6f50503fb2cc574e4376,2022-05-11_21h25.35.374,classification_task,2021.2.3,MacIntel,59.99880002,627c6715c52fd12f31907bd0,,,,,,,,,,,,,,,,,,,,,,,a,1,"[""0.174"",""0.434"",""0.659"",""0.890""]","[1,1,0,1]",0,2,2,2,1,0,1,,,1,FALSE,4.1796,,,,,,,,,,,,,,,,,,,,,,,,,,,,,,,
,613ae6e178fbca0316c2b325,627c6f50503fb2cc574e4376,2022-05-11_21h25.35.374,classification_task,2021.2.3,MacIntel,59.99880002,627c6715c52fd12f31907bd0,,,,,,,,,,,,,,,,,,,,,,,l,1,"[""0.084"",""0.275"",""0.515"",""0.643""]","[1,1,1,0]",0,3,3,3,1,1,1,,,1,FALSE,2.2342,,,,,,,,,,,,,,,,,,,,,,,,,,,,,,,
,613ae6e178fbca0316c2b325,627c6f50503fb2cc574e4376,2022-05-11_21h25.35.374,classification_task,2021.2.3,MacIntel,59.99880002,627c6715c52fd12f31907bd0,,,,,,,,,,,,,,,,,,,,,,,a,1,"[""0.174"",""0.602"",""0.566"",""0.890""]","[1,0,1,1]",0,4,4,4,1,0,1,,,1,FALSE,3.1874,,,,,,,,,,,,,,,,,,,,,,,,,,,,,,,
,613ae6e178fbca0316c2b325,627c6f50503fb2cc574e4376,2022-05-11_21h25.35.374,classification_task,2021.2.3,MacIntel,59.99880002,627c6715c52fd12f31907bd0,,,,,,,,,,,,,,,,,,,,,,,a,1,"[""0.215"",""0.643"",""0.831"",""0.933""]","[1,0,1,1]",0,5,5,5,1,0,0,,,1,FALSE,3.3133,,,,,,,,,,,,,,,,,,,,,,,,,,,,,,,
,613ae6e178fbca0316c2b325,627c6f50503fb2cc574e4376,2022-05-11_21h25.35.374,classification_task,2021.2.3,MacIntel,59.99880002,627c6715c52fd12f31907bd0,,,,,,,,,,,,,,,,,,,,,,,l,1,"[""0.136"",""0.339"",""0.468"",""0.659""]","[1,1,1,0]",0,6,6,6,1,1,0,,,1,FALSE,1.7646,,,,,,,,,,,,,,,,,,,,,,,,,,,,,,,
,613ae6e178fbca0316c2b325,627c6f50503fb2cc574e4376,2022-05-11_21h25.35.374,classification_task,2021.2.3,MacIntel,59.99880002,627c6715c52fd12f31907bd0,,,,,,,,,,,,,,,,,,,,,,,l,1,"[""0.643"",""0.339"",""0.468"",""0.693""]","[0,1,1,1]",0,7,7,7,1,1,0,,,1,FALSE,4.0316,,,,,,,,,,,,,,,,,,,,,,,,,,,,,,,
,613ae6e178fbca0316c2b325,627c6f50503fb2cc574e4376,2022-05-11_21h25.35.374,classification_task,2021.2.3,MacIntel,59.99880002,627c6715c52fd12f31907bd0,,,,,,,,,,,,,,,,,,,,,,,l,1,"[""0.136"",""0.652"",""0.468"",""0.693""]","[1,0,1,1]",0,8,8,8,1,1,0,,,1,FALSE,1.6515,,,,,,,,,,,,,,,,,,,,,,,,,,,,,,,
,613ae6e178fbca0316c2b325,627c6f50503fb2cc574e4376,2022-05-11_21h25.35.374,classification_task,2021.2.3,MacIntel,59.99880002,627c6715c52fd12f31907bd0,,,,,,,,,,,,,,,,,,,,,,,a,1,"[""0.215"",""0.394"",""0.831"",""0.602""]","[1,1,1,0]",0,9,9,9,1,0,0,,,1,FALSE,2.7306,,,,,,,,,,,,,,,,,,,,,,,,,,,,,,,
,613ae6e178fbca0316c2b325,627c6f50503fb2cc574e4376,2022-05-11_21h25.35.374,classification_task,2021.2.3,MacIntel,59.99880002,627c6715c52fd12f31907bd0,,,,,,,,,,,,,,,,,,,,,,,a,1,"[""0.652"",""0.394"",""0.831"",""0.933""]","[0,1,1,1]",0,10,10,10,1,0,0,,,1,FALSE,2.419,,,,,,,,,,,,,,,,,,,,,,,,,,,,,,,
,613ae6e178fbca0316c2b325,627c6f50503fb2cc574e4376,2022-05-11_21h25.35.374,classification_task,2021.2.3,MacIntel,59.99880002,627c6715c52fd12f31907bd0,,,,,,,,,,,,,,,,,,,,,,,l,1,"[""0.084"",""0.614"",""0.515"",""0.753""]","[1,0,1,1]",0,11,11,11,1,1,1,,,1,FALSE,3.2813,,,,,,,,,,,,,,,,,,,,,,,,,,,,,,,
,613ae6e178fbca0316c2b325,627c6f50503fb2cc574e4376,2022-05-11_21h25.35.374,classification_task,2021.2.3,MacIntel,59.99880002,627c6715c52fd12f31907bd0,,,,,,,,,,,,,,,,,,,,,,,l,1,"[""0.614"",""0.275"",""0.515"",""0.753""]","[0,1,1,1]",0,12,12,12,1,1,1,,,1,FALSE,3.2505,,,,,,,,,,,,,,,,,,,,,,,,,,,,,,,
,613ae6e178fbca0316c2b325,627c6f50503fb2cc574e4376,2022-05-11_21h25.35.374,classification_task,2021.2.3,MacIntel,59.99880002,627c6715c52fd12f31907bd0,,,,,,,,,,,,,,,,,,,,,,,a,1,"[""0.654"",""0.434"",""0.566"",""0.890""]","[0,1,1,1]",0,13,13,13,1,0,1,,,1,FALSE,2.5211,,,,,,,,,,,,,,,,,,,,,,,,,,,,,,,
,613ae6e178fbca0316c2b325,627c6f50503fb2cc574e4376,2022-05-11_21h25.35.374,classification_task,2021.2.3,MacIntel,59.99880002,627c6715c52fd12f31907bd0,,,,,,,,,,,,,,,,,,,,,,,a,1,"[""0.174"",""0.434"",""0.566"",""0.602""]","[1,1,1,0]",0,14,14,14,1,0,1,,,1,FALSE,2.5353,,,,,,,,,,,,,,,,,,,,,,,,,,,,,,,
,613ae6e178fbca0316c2b325,627c6f50503fb2cc574e4376,2022-05-11_21h25.35.374,classification_task,2021.2.3,MacIntel,59.99880002,627c6715c52fd12f31907bd0,,,,,,,,,,,,,,,,,,,,,,,a,0,"[""0.084"",""0.275"",""0.654"",""0.753""]","[1,1,0,1]",0,15,15,15,1,1,1,,,1,FALSE,2.2341,,,,,,,,,,,,,,,,,,,,,,,,,,,,,,,
,613ae6e178fbca0316c2b325,627c6f50503fb2cc574e4376,2022-05-11_21h25.35.374,classification_task,2021.2.3,MacIntel,59.99880002,627c6715c52fd12f31907bd0,,,,,,,,,,,,,,,,,,,,,,,l,1,"[""0.136"",""0.640"",""0.468"",""0.693""]","[1,0,1,1]",0,16,16,16,1,1,0,,,1,FALSE,2.1608,,,,,,,,,,,,,,,,,,,,,,,,,,,,,,,
,613ae6e178fbca0316c2b325,627c6f50503fb2cc574e4376,2022-05-11_21h25.35.374,classification_task,2021.2.3,MacIntel,59.99880002,627c6715c52fd12f31907bd0,,,,,,,,,,,,,,,,,,,,,,,l,1,"[""0.655"",""0.275"",""0.515"",""0.753""]","[0,1,1,1]",0,17,17,17,1,1,1,,,1,FALSE,4.0158,,,,,,,,,,,,,,,,,,,,,,,,,,,,,,,
,613ae6e178fbca0316c2b325,627c6f50503fb2cc574e4376,2022-05-11_21h25.35.374,classification_task,2021.2.3,MacIntel,59.99880002,627c6715c52fd12f31907bd0,,,,,,,,,,,,,,,,,,,,,,,l,1,"[""0.084"",""0.275"",""0.654"",""0.753""]","[1,1,0,1]",0,18,18,18,1,1,1,,,1,FALSE,4.1056,,,,,,,,,,,,,,,,,,,,,,,,,,,,,,,
,613ae6e178fbca0316c2b325,627c6f50503fb2cc574e4376,2022-05-11_21h25.35.374,classification_task,2021.2.3,MacIntel,59.99880002,627c6715c52fd12f31907bd0,,,,,,,,,,,,,,,,,,,,,,,l,1,"[""0.084"",""0.275"",""0.515"",""0.602""]","[1,1,1,0]",0,19,19,19,1,1,1,,,1,FALSE,1.7199,,,,,,,,,,,,,,,,,,,,,,,,,,,,,,,
,613ae6e178fbca0316c2b325,627c6f50503fb2cc574e4376,2022-05-11_21h25.35.374,classification_task,2021.2.3,MacIntel,59.99880002,627c6715c52fd12f31907bd0,,,,,,,,,,,,,,,,,,,,,,,a,1,"[""0.174"",""0.434"",""0.566"",""0.655""]","[1,1,1,0]",0,20,20,20,1,0,1,,,1,FALSE,1.6816,,,,,,,,,,,,,,,,,,,,,,,,,,,,,,,
,613ae6e178fbca0316c2b325,627c6f50503fb2cc574e4376,2022-05-11_21h25.35.374,classification_task,2021.2.3,MacIntel,59.99880002,627c6715c52fd12f31907bd0,,,,,,,,,,,,,,,,,,,,,,,l,1,"[""0.136"",""0.339"",""0.027"",""0.693""]","[1,1,0,1]",0,21,21,21,1,1,0,,,1,FALSE,2.8659,,,,,,,,,,,,,,,,,,,,,,,,,,,,,,,
,613ae6e178fbca0316c2b325,627c6f50503fb2cc574e4376,2022-05-11_21h25.35.374,classification_task,2021.2.3,MacIntel,59.99880002,627c6715c52fd12f31907bd0,,,,,,,,,,,,,,,,,,,,,,,a,1,"[""0.174"",""0.434"",""0.787"",""0.890""]","[1,1,0,1]",0,22,22,22,1,0,1,,,1,FALSE,2.7811,,,,,,,,,,,,,,,,,,,,,,,,,,,,,,,
,613ae6e178fbca0316c2b325,627c6f50503fb2cc574e4376,2022-05-11_21h25.35.374,classification_task,2021.2.3,MacIntel,59.99880002,627c6715c52fd12f31907bd0,,,,,,,,,,,,,,,,,,,,,,,a,1,"[""0.648"",""0.434"",""0.566"",""0.890""]","[0,1,1,1]",0,23,23,23,1,0,1,,,1,FALSE,3.9141,,,,,,,,,,,,,,,,,,,,,,,,,,,,,,,
,613ae6e178fbca0316c2b325,627c6f50503fb2cc574e4376,2022-05-11_21h25.35.374,classification_task,2021.2.3,MacIntel,59.99880002,627c6715c52fd12f31907bd0,,,,,,,,,,,,,,,,,,,,,,,a,1,"[""0.174"",""0.659"",""0.566"",""0.890""]","[1,0,1,1]",0,24,24,24,1,0,1,,,1,FALSE,1.8522,,,,,,,,,,,,,,,,,,,,,,,,,,,,,,,
,613ae6e178fbca0316c2b325,627c6f50503fb2cc574e4376,2022-05-11_21h25.35.374,classification_task,2021.2.3,MacIntel,59.99880002,627c6715c52fd12f31907bd0,,,,,,,,,,,,,,,,,,,,,,,l,1,"[""0.602"",""0.339"",""0.468"",""0.693""]","[0,1,1,1]",0,25,25,25,1,1,0,,,1,FALSE,2.9425,,,,,,,,,,,,,,,,,,,,,,,,,,,,,,,
,613ae6e178fbca0316c2b325,627c6f50503fb2cc574e4376,2022-05-11_21h25.35.374,classification_task,2021.2.3,MacIntel,59.99880002,627c6715c52fd12f31907bd0,,,,,,,,,,,,,,,,,,,,,,,l,1,"[""0.136"",""0.339"",""0.468"",""0.792""]","[1,1,1,0]",0,26,26,26,1,1,0,,,1,FALSE,3.7847,,,,,,,,,,,,,,,,,,,,,,,,,,,,,,,
,613ae6e178fbca0316c2b325,627c6f50503fb2cc574e4376,2022-05-11_21h25.35.374,classification_task,2021.2.3,MacIntel,59.99880002,627c6715c52fd12f31907bd0,,,,,,,,,,,,,,,,,,,,,,,a,1,"[""0.215"",""0.394"",""0.650"",""0.933""]","[1,1,0,1]",0,27,27,27,1,0,0,,,1,FALSE,1.7824,,,,,,,,,,,,,,,,,,,,,,,,,,,,,,,
,613ae6e178fbca0316c2b325,627c6f50503fb2cc574e4376,2022-05-11_21h25.35.374,classification_task,2021.2.3,MacIntel,59.99880002,627c6715c52fd12f31907bd0,,,,,,,,,,,,,,,,,,,,,,,a,1,"[""0.215"",""0.643"",""0.831"",""0.933""]","[1,0,1,1]",0,28,28,28,1,0,0,,,1,FALSE,4.3991,,,,,,,,,,,,,,,,,,,,,,,,,,,,,,,
,613ae6e178fbca0316c2b325,627c6f50503fb2cc574e4376,2022-05-11_21h25.35.374,classification_task,2021.2.3,MacIntel,59.99880002,627c6715c52fd12f31907bd0,,,,,,,,,,,,,,,,,,,,,,,a,1,"[""0.215"",""0.394"",""0.831"",""0.640""]","[1,1,1,0]",0,29,29,29,1,0,0,,,1,FALSE,5.3859,,,,,,,,,,,,,,,,,,,,,,,,,,,,,,,
,613ae6e178fbca0316c2b325,627c6f50503fb2cc574e4376,2022-05-11_21h25.35.374,classification_task,2021.2.3,MacIntel,59.99880002,627c6715c52fd12f31907bd0,,,,,,,,,,,,,,,,,,,,,,,l,1,"[""0.084"",""0.792"",""0.515"",""0.753""]","[1,0,1,1]",0,30,30,30,1,1,1,,,1,FALSE,1.8006,,,,,,,,,,,,,,,,,,,,,,,,,,,,,,,
,613ae6e178fbca0316c2b325,627c6f50503fb2cc574e4376,2022-05-11_21h25.35.374,classification_task,2021.2.3,MacIntel,59.99880002,627c6715c52fd12f31907bd0,,,,,,,,,,,,,,,,,,,,,,,a,1,"[""0.652"",""0.394"",""0.831"",""0.933""]","[0,1,1,1]",0,31,31,31,1,0,0,,,1,FALSE,2.3642,,,,,,,,,,,,,,,,,,,,,,,,,,,,,,,
,613ae6e178fbca0316c2b325,627c6f50503fb2cc574e4376,2022-05-11_21h25.35.374,classification_task,2021.2.3,MacIntel,59.99880002,627c6715c52fd12f31907bd0,,,,,,,,,,,,,,,,,,,,,,,a,1,"[""0.215"",""0.394"",""0.790"",""0.933""]","[1,1,0,1]",0,32,32,32,1,0,0,,,1,FALSE,3.3498,,,,,,,,,,,,,,,,,,,,,,,,,,,,,,,
,613ae6e178fbca0316c2b325,627c6f50503fb2cc574e4376,2022-05-11_21h25.35.374,classification_task,2021.2.3,MacIntel,59.99880002,627c6715c52fd12f31907bd0,,,,,,,,,,,,,,,,,,,,,,,a,1,"[""0.174"",""0.640"",""0.566"",""0.890""]","[1,0,1,1]",0,33,33,33,1,0,1,,,1,FALSE,2.0528,,,,,,,,,,,,,,,,,,,,,,,,,,,,,,,
,613ae6e178fbca0316c2b325,627c6f50503fb2cc574e4376,2022-05-11_21h25.35.374,classification_task,2021.2.3,MacIntel,59.99880002,627c6715c52fd12f31907bd0,,,,,,,,,,,,,,,,,,,,,,,l,1,"[""0.084"",""0.275"",""0.515"",""0.792""]","[1,1,1,0]",0,34,34,34,1,1,1,,,1,FALSE,0.9867,,,,,,,,,,,,,,,,,,,,,,,,,,,,,,,
,613ae6e178fbca0316c2b325,627c6f50503fb2cc574e4376,2022-05-11_21h25.35.374,classification_task,2021.2.3,MacIntel,59.99880002,627c6715c52fd12f31907bd0,,,,,,,,,,,,,,,,,,,,,,,a,1,"[""0.215"",""0.787"",""0.831"",""0.933""]","[1,0,1,1]",0,35,35,35,1,0,0,,,1,FALSE,1.249,,,,,,,,,,,,,,,,,,,,,,,,,,,,,,,
,613ae6e178fbca0316c2b325,627c6f50503fb2cc574e4376,2022-05-11_21h25.35.374,classification_task,2021.2.3,MacIntel,59.99880002,627c6715c52fd12f31907bd0,,,,,,,,,,,,,,,,,,,,,,,a,1,"[""0.215"",""0.394"",""0.831"",""0.787""]","[1,1,1,0]",0,36,36,36,1,0,0,,,1,FALSE,0.732,,,,,,,,,,,,,,,,,,,,,,,,,,,,,,,
,613ae6e178fbca0316c2b325,627c6f50503fb2cc574e4376,2022-05-11_21h25.35.374,classification_task,2021.2.3,MacIntel,59.99880002,627c6715c52fd12f31907bd0,,,,,,,,,,,,,,,,,,,,,,,a,1,"[""0.602"",""0.434"",""0.566"",""0.890""]","[0,1,1,1]",0,37,37,37,1,0,1,,,1,FALSE,3.517,,,,,,,,,,,,,,,,,,,,,,,,,,,,,,,
,613ae6e178fbca0316c2b325,627c6f50503fb2cc574e4376,2022-05-11_21h25.35.374,classification_task,2021.2.3,MacIntel,59.99880002,627c6715c52fd12f31907bd0,,,,,,,,,,,,,,,,,,,,,,,l,1,"[""0.084"",""0.648"",""0.515"",""0.753""]","[1,0,1,1]",0,38,38,38,1,1,1,,,1,FALSE,1.0357,,,,,,,,,,,,,,,,,,,,,,,,,,,,,,,
,613ae6e178fbca0316c2b325,627c6f50503fb2cc574e4376,2022-05-11_21h25.35.374,classification_task,2021.2.3,MacIntel,59.99880002,627c6715c52fd12f31907bd0,,,,,,,,,,,,,,,,,,,,,,,l,1,"[""0.136"",""0.339"",""0.468"",""0.787""]","[1,1,1,0]",0,39,39,39,1,1,0,,,1,FALSE,2.6462,,,,,,,,,,,,,,,,,,,,,,,,,,,,,,,
,613ae6e178fbca0316c2b325,627c6f50503fb2cc574e4376,2022-05-11_21h25.35.374,classification_task,2021.2.3,MacIntel,59.99880002,627c6715c52fd12f31907bd0,,,,,,,,,,,,,,,,,,,,,,,l,1,"[""0.084"",""0.275"",""0.790"",""0.753""]","[1,1,0,1]",0,40,40,40,1,1,1,,,1,FALSE,1.5367,,,,,,,,,,,,,,,,,,,,,,,,,,,,,,,
,613ae6e178fbca0316c2b325,627c6f50503fb2cc574e4376,2022-05-11_21h25.35.374,classification_task,2021.2.3,MacIntel,59.99880002,627c6715c52fd12f31907bd0,,,,,,,,,,,,,,,,,,,,,,,l,1,"[""0.643"",""0.339"",""0.468"",""0.693""]","[0,1,1,1]",0,41,41,41,1,1,0,,,1,FALSE,1.4652,,,,,,,,,,,,,,,,,,,,,,,,,,,,,,,
,613ae6e178fbca0316c2b325,627c6f50503fb2cc574e4376,2022-05-11_21h25.35.374,classification_task,2021.2.3,MacIntel,59.99880002,627c6715c52fd12f31907bd0,,,,,,,,,,,,,,,,,,,,,,,a,1,"[""0.602"",""0.394"",""0.831"",""0.933""]","[0,1,1,1]",0,42,42,42,1,0,0,,,1,FALSE,2.216,,,,,,,,,,,,,,,,,,,,,,,,,,,,,,,
,613ae6e178fbca0316c2b325,627c6f50503fb2cc574e4376,2022-05-11_21h25.35.374,classification_task,2021.2.3,MacIntel,59.99880002,627c6715c52fd12f31907bd0,,,,,,,,,,,,,,,,,,,,,,,a,1,"[""0.174"",""0.434"",""0.650"",""0.890""]","[1,1,0,1]",0,43,43,43,1,0,1,,,1,FALSE,2.6809,,,,,,,,,,,,,,,,,,,,,,,,,,,,,,,
,613ae6e178fbca0316c2b325,627c6f50503fb2cc574e4376,2022-05-11_21h25.35.374,classification_task,2021.2.3,MacIntel,59.99880002,627c6715c52fd12f31907bd0,,,,,,,,,,,,,,,,,,,,,,,a,1,"[""0.174"",""0.434"",""0.566"",""0.787""]","[1,1,1,0]",0,44,44,44,1,0,1,,,1,FALSE,1.1214,,,,,,,,,,,,,,,,,,,,,,,,,,,,,,,
,613ae6e178fbca0316c2b325,627c6f50503fb2cc574e4376,2022-05-11_21h25.35.374,classification_task,2021.2.3,MacIntel,59.99880002,627c6715c52fd12f31907bd0,,,,,,,,,,,,,,,,,,,,,,,l,1,"[""0.136"",""0.339"",""0.654"",""0.693""]","[1,1,0,1]",0,45,45,45,1,1,0,,,1,FALSE,2.5486,,,,,,,,,,,,,,,,,,,,,,,,,,,,,,,
,613ae6e178fbca0316c2b325,627c6f50503fb2cc574e4376,2022-05-11_21h25.35.374,classification_task,2021.2.3,MacIntel,59.99880002,627c6715c52fd12f31907bd0,,,,,,,,,,,,,,,,,,,,,,,a,0,"[""0.648"",""0.275"",""0.515"",""0.753""]","[0,1,1,1]",0,46,46,46,1,1,1,,,1,FALSE,2.8354,,,,,,,,,,,,,,,,,,,,,,,,,,,,,,,
,613ae6e178fbca0316c2b325,627c6f50503fb2cc574e4376,2022-05-11_21h25.35.374,classification_task,2021.2.3,MacIntel,59.99880002,627c6715c52fd12f31907bd0,,,,,,,,,,,,,,,,,,,,,,,l,1,"[""0.136"",""0.787"",""0.468"",""0.693""]","[1,0,1,1]",0,47,47,47,1,1,0,,,1,FALSE,1.9878,,,,,,,,,,,,,,,,,,,,,,,,,,,,,,,
,613ae6e178fbca0316c2b325,627c6f50503fb2cc574e4376,2022-05-11_21h25.35.374,classification_task,2021.2.3,MacIntel,59.99880002,627c6715c52fd12f31907bd0,,,,,,,,,,,,,,,,,,,,,,,a,1,"[""0.174"",""0.434"",""0.566"",""0.602""]","[1,1,1,0]",0,48,48,48,1,0,1,,,1,FALSE,1.4643,,,,,,,,,,,,,,,,,,,,,,,,,,,,,,,
,613ae6e178fbca0316c2b325,627c6f50503fb2cc574e4376,2022-05-11_21h25.35.374,classification_task,2021.2.3,MacIntel,59.99880002,627c6715c52fd12f31907bd0,,,,,,,,,,,,,,,,,,,,,,,l,0,"[""0.652"",""0.394"",""0.831"",""0.933""]","[0,1,1,1]",0,49,49,49,1,0,0,,,1,FALSE,2.4192,,,,,,,,,,,,,,,,,,,,,,,,,,,,,,,
,613ae6e178fbca0316c2b325,627c6f50503fb2cc574e4376,2022-05-11_21h25.35.374,classification_task,2021.2.3,MacIntel,59.99880002,627c6715c52fd12f31907bd0,,,,,,,,,,,,,,,,,,,,,,,l,1,"[""0.136"",""0.339"",""0.468"",""0.640""]","[1,1,1,0]",0,50,50,50,1,1,0,,,1,FALSE,1.5283,,,,,,,,,,,,,,,,,,,,,,,,,,,,,,,
,613ae6e178fbca0316c2b325,627c6f50503fb2cc574e4376,2022-05-11_21h25.35.374,classification_task,2021.2.3,MacIntel,59.99880002,627c6715c52fd12f31907bd0,,,,,,,,,,,,,,,,,,,,,,,a,1,"[""0.174"",""0.654"",""0.566"",""0.890""]","[1,0,1,1]",0,51,51,51,1,0,1,,,1,FALSE,1.4518,,,,,,,,,,,,,,,,,,,,,,,,,,,,,,,
,613ae6e178fbca0316c2b325,627c6f50503fb2cc574e4376,2022-05-11_21h25.35.374,classification_task,2021.2.3,MacIntel,59.99880002,627c6715c52fd12f31907bd0,,,,,,,,,,,,,,,,,,,,,,,a,1,"[""0.215"",""0.394"",""0.648"",""0.933""]","[1,1,0,1]",0,52,52,52,1,0,0,,,1,FALSE,2.2837,,,,,,,,,,,,,,,,,,,,,,,,,,,,,,,
,613ae6e178fbca0316c2b325,627c6f50503fb2cc574e4376,2022-05-11_21h25.35.374,classification_task,2021.2.3,MacIntel,59.99880002,627c6715c52fd12f31907bd0,,,,,,,,,,,,,,,,,,,,,,,l,1,"[""0.084"",""0.275"",""0.515"",""0.027""]","[1,1,1,0]",0,53,53,53,1,1,1,,,1,FALSE,2.9306,,,,,,,,,,,,,,,,,,,,,,,,,,,,,,,
,613ae6e178fbca0316c2b325,627c6f50503fb2cc574e4376,2022-05-11_21h25.35.374,classification_task,2021.2.3,MacIntel,59.99880002,627c6715c52fd12f31907bd0,,,,,,,,,,,,,,,,,,,,,,,l,1,"[""0.136"",""0.659"",""0.468"",""0.693""]","[1,0,1,1]",0,54,54,54,1,1,0,,,1,FALSE,1.6027,,,,,,,,,,,,,,,,,,,,,,,,,,,,,,,
,613ae6e178fbca0316c2b325,627c6f50503fb2cc574e4376,2022-05-11_21h25.35.374,classification_task,2021.2.3,MacIntel,59.99880002,627c6715c52fd12f31907bd0,,,,,,,,,,,,,,,,,,,,,,,l,1,"[""0.792"",""0.275"",""0.515"",""0.753""]","[0,1,1,1]",0,55,55,55,1,1,1,,,1,FALSE,3.4692,,,,,,,,,,,,,,,,,,,,,,,,,,,,,,,
,613ae6e178fbca0316c2b325,627c6f50503fb2cc574e4376,2022-05-11_21h25.35.374,classification_task,2021.2.3,MacIntel,59.99880002,627c6715c52fd12f31907bd0,,,,,,,,,,,,,,,,,,,,,,,l,1,"[""0.084"",""0.275"",""0.027"",""0.753""]","[1,1,0,1]",0,56,56,56,1,1,1,,,1,FALSE,2.2345,,,,,,,,,,,,,,,,,,,,,,,,,,,,,,,
,613ae6e178fbca0316c2b325,627c6f50503fb2cc574e4376,2022-05-11_21h25.35.374,classification_task,2021.2.3,MacIntel,59.99880002,627c6715c52fd12f31907bd0,,,,,,,,,,,,,,,,,,,,,,,l,0,"[""0.174"",""0.434"",""0.654"",""0.890""]","[1,1,0,1]",0,57,57,57,1,0,1,,,1,FALSE,2.1344,,,,,,,,,,,,,,,,,,,,,,,,,,,,,,,
,613ae6e178fbca0316c2b325,627c6f50503fb2cc574e4376,2022-05-11_21h25.35.374,classification_task,2021.2.3,MacIntel,59.99880002,627c6715c52fd12f31907bd0,,,,,,,,,,,,,,,,,,,,,,,a,1,"[""0.215"",""0.652"",""0.831"",""0.933""]","[1,0,1,1]",0,58,58,58,1,0,0,,,1,FALSE,1.831,,,,,,,,,,,,,,,,,,,,,,,,,,,,,,,
,613ae6e178fbca0316c2b325,627c6f50503fb2cc574e4376,2022-05-11_21h25.35.374,classification_task,2021.2.3,MacIntel,59.99880002,627c6715c52fd12f31907bd0,,,,,,,,,,,,,,,,,,,,,,,l,1,"[""0.655"",""0.339"",""0.468"",""0.693""]","[0,1,1,1]",0,59,59,59,1,1,0,,,1,FALSE,1.4356,,,,,,,,,,,,,,,,,,,,,,,,,,,,,,,
,613ae6e178fbca0316c2b325,627c6f50503fb2cc574e4376,2022-05-11_21h25.35.374,classification_task,2021.2.3,MacIntel,59.99880002,627c6715c52fd12f31907bd0,,,,,,,,,,,,,,,,,,,,,,,a,1,"[""0.648"",""0.434"",""0.566"",""0.890""]","[0,1,1,1]",0,60,60,60,1,0,1,,,1,FALSE,2.0634,,,,,,,,,,,,,,,,,,,,,,,,,,,,,,,
,613ae6e178fbca0316c2b325,627c6f50503fb2cc574e4376,2022-05-11_21h25.35.374,classification_task,2021.2.3,MacIntel,59.99880002,627c6715c52fd12f31907bd0,,,,,,,,,,,,,,,,,,,,,,,a,1,"[""0.215"",""0.394"",""0.831"",""0.614""]","[1,1,1,0]",0,61,61,61,1,0,0,,,1,FALSE,1.8618,,,,,,,,,,,,,,,,,,,,,,,,,,,,,,,
,613ae6e178fbca0316c2b325,627c6f50503fb2cc574e4376,2022-05-11_21h25.35.374,classification_task,2021.2.3,MacIntel,59.99880002,627c6715c52fd12f31907bd0,,,,,,,,,,,,,,,,,,,,,,,l,1,"[""0.136"",""0.339"",""0.652"",""0.693""]","[1,1,0,1]",0,62,62,62,1,1,0,,,1,FALSE,1.0353,,,,,,,,,,,,,,,,,,,,,,,,,,,,,,,
,613ae6e178fbca0316c2b325,627c6f50503fb2cc574e4376,2022-05-11_21h25.35.374,classification_task,2021.2.3,MacIntel,59.99880002,627c6715c52fd12f31907bd0,,,,,,,,,,,,,,,,,,,,,,,l,1,"[""0.084"",""0.654"",""0.515"",""0.753""]","[1,0,1,1]",0,63,63,63,1,1,1,,,1,FALSE,1.1324,,,,,,,,,,,,,,,,,,,,,,,,,,,,,,,
,613ae6e178fbca0316c2b325,627c6f50503fb2cc574e4376,2022-05-11_21h25.35.374,classification_task,2021.2.3,MacIntel,59.99880002,627c6715c52fd12f31907bd0,,,,,,,,,,,,,,,,,,,,,,,,,,,,,,,,,,,,,,,0, ,,0,9.16471469,511.4951,0,0,0,0,1,2,1,,,,,,,,,,,,,,,,,,
,613ae6e178fbca0316c2b325,627c6f50503fb2cc574e4376,2022-05-11_21h25.35.374,classification_task,2021.2.3,MacIntel,59.99880002,627c6715c52fd12f31907bd0,,,,,,,,,,,,,,,,,,,,,,,,,,,,,,,,,,,,,,,1,  ,,0,9.556832378,517.6779,0,0,0,0,1,2,1,,,,,,,,,,,,,,,,,,
,613ae6e178fbca0316c2b325,627c6f50503fb2cc574e4376,2022-05-11_21h25.35.374,classification_task,2021.2.3,MacIntel,59.99880002,627c6715c52fd12f31907bd0,,,,,,,,,,,,,,,,,,,,,,,,,,,,,,,,,,,,,,,2,  ,,0,7.424125514,524.8499,0,0,0,0,1,2,1,,,,,,,,,,,,,,,,,,
,613ae6e178fbca0316c2b325,627c6f50503fb2cc574e4376,2022-05-11_21h25.35.374,classification_task,2021.2.3,MacIntel,59.99880002,627c6715c52fd12f31907bd0,,,,,,,,,,,,,,,,,,,,,,,,,,,,,,,,,,,,,,,,,,,,,0,0,0,0,1,,1,,,,,,,,,,,,,,,,,,
,613ae6e178fbca0316c2b325,627c6f50503fb2cc574e4376,2022-05-11_21h25.35.374,classification_task,2021.2.3,MacIntel,59.99880002,627c6715c52fd12f31907bd0,,,,,,,,,,,,,,,,,,,,,space,23.8486,l,1,"[""0.136"",""0.339"",""0.787"",""0.693""]","[1,1,0,1]",0,0,0,0,1,1,0,,,1,FALSE,3.592,,,,,,,,,,,,,,,,,,,,,,,,,,,,,,,
,613ae6e178fbca0316c2b325,627c6f50503fb2cc574e4376,2022-05-11_21h25.35.374,classification_task,2021.2.3,MacIntel,59.99880002,627c6715c52fd12f31907bd0,,,,,,,,,,,,,,,,,,,,,,,a,1,"[""0.215"",""0.394"",""0.831"",""0.655""]","[1,1,1,0]",0,1,1,1,1,0,0,,,1,FALSE,2.9681,,,,,,,,,,,,,,,,,,,,,,,,,,,,,,,
,613ae6e178fbca0316c2b325,627c6f50503fb2cc574e4376,2022-05-11_21h25.35.374,classification_task,2021.2.3,MacIntel,59.99880002,627c6715c52fd12f31907bd0,,,,,,,,,,,,,,,,,,,,,,,a,1,"[""0.174"",""0.434"",""0.027"",""0.890""]","[1,1,0,1]",0,2,2,2,1,0,1,,,1,FALSE,5.0454,,,,,,,,,,,,,,,,,,,,,,,,,,,,,,,
,613ae6e178fbca0316c2b325,627c6f50503fb2cc574e4376,2022-05-11_21h25.35.374,classification_task,2021.2.3,MacIntel,59.99880002,627c6715c52fd12f31907bd0,,,,,,,,,,,,,,,,,,,,,,,l,1,"[""0.084"",""0.654"",""0.515"",""0.753""]","[1,0,1,1]",0,3,3,3,1,1,1,,,1,FALSE,0.8857,,,,,,,,,,,,,,,,,,,,,,,,,,,,,,,
,613ae6e178fbca0316c2b325,627c6f50503fb2cc574e4376,2022-05-11_21h25.35.374,classification_task,2021.2.3,MacIntel,59.99880002,627c6715c52fd12f31907bd0,,,,,,,,,,,,,,,,,,,,,,,l,0,"[""0.650"",""0.394"",""0.831"",""0.933""]","[0,1,1,1]",0,4,4,4,1,0,0,,,1,FALSE,3.5927,,,,,,,,,,,,,,,,,,,,,,,,,,,,,,,
,613ae6e178fbca0316c2b325,627c6f50503fb2cc574e4376,2022-05-11_21h25.35.374,classification_task,2021.2.3,MacIntel,59.99880002,627c6715c52fd12f31907bd0,,,,,,,,,,,,,,,,,,,,,,,a,1,"[""0.174"",""0.434"",""0.566"",""0.650""]","[1,1,1,0]",0,5,5,5,1,0,1,,,1,FALSE,3.6136,,,,,,,,,,,,,,,,,,,,,,,,,,,,,,,
,613ae6e178fbca0316c2b325,627c6f50503fb2cc574e4376,2022-05-11_21h25.35.374,classification_task,2021.2.3,MacIntel,59.99880002,627c6715c52fd12f31907bd0,,,,,,,,,,,,,,,,,,,,,,,a,1,"[""0.174"",""0.659"",""0.566"",""0.890""]","[1,0,1,1]",0,6,6,6,1,0,1,,,1,FALSE,1.103,,,,,,,,,,,,,,,,,,,,,,,,,,,,,,,
,613ae6e178fbca0316c2b325,627c6f50503fb2cc574e4376,2022-05-11_21h25.35.374,classification_task,2021.2.3,MacIntel,59.99880002,627c6715c52fd12f31907bd0,,,,,,,,,,,,,,,,,,,,,,,a,1,"[""0.652"",""0.434"",""0.566"",""0.890""]","[0,1,1,1]",0,7,7,7,1,0,1,,,1,FALSE,0.8995,,,,,,,,,,,,,,,,,,,,,,,,,,,,,,,
,613ae6e178fbca0316c2b325,627c6f50503fb2cc574e4376,2022-05-11_21h25.35.374,classification_task,2021.2.3,MacIntel,59.99880002,627c6715c52fd12f31907bd0,,,,,,,,,,,,,,,,,,,,,,,a,1,"[""0.215"",""0.394"",""0.790"",""0.933""]","[1,1,0,1]",0,8,8,8,1,0,0,,,1,FALSE,2.91,,,,,,,,,,,,,,,,,,,,,,,,,,,,,,,
,613ae6e178fbca0316c2b325,627c6f50503fb2cc574e4376,2022-05-11_21h25.35.374,classification_task,2021.2.3,MacIntel,59.99880002,627c6715c52fd12f31907bd0,,,,,,,,,,,,,,,,,,,,,,,a,1,"[""0.215"",""0.640"",""0.831"",""0.933""]","[1,0,1,1]",0,9,9,9,1,0,0,,,1,FALSE,0.8022,,,,,,,,,,,,,,,,,,,,,,,,,,,,,,,
,613ae6e178fbca0316c2b325,627c6f50503fb2cc574e4376,2022-05-11_21h25.35.374,classification_task,2021.2.3,MacIntel,59.99880002,627c6715c52fd12f31907bd0,,,,,,,,,,,,,,,,,,,,,,,l,1,"[""0.084"",""0.275"",""0.614"",""0.753""]","[1,1,0,1]",0,10,10,10,1,1,1,,,1,FALSE,1.6789,,,,,,,,,,,,,,,,,,,,,,,,,,,,,,,
,613ae6e178fbca0316c2b325,627c6f50503fb2cc574e4376,2022-05-11_21h25.35.374,classification_task,2021.2.3,MacIntel,59.99880002,627c6715c52fd12f31907bd0,,,,,,,,,,,,,,,,,,,,,,,l,1,"[""0.792"",""0.275"",""0.515"",""0.753""]","[0,1,1,1]",0,11,11,11,1,1,1,,,1,FALSE,0.7857,,,,,,,,,,,,,,,,,,,,,,,,,,,,,,,
,613ae6e178fbca0316c2b325,627c6f50503fb2cc574e4376,2022-05-11_21h25.35.374,classification_task,2021.2.3,MacIntel,59.99880002,627c6715c52fd12f31907bd0,,,,,,,,,,,,,,,,,,,,,,,l,1,"[""0.655"",""0.339"",""0.468"",""0.693""]","[0,1,1,1]",0,12,12,12,1,1,0,,,1,FALSE,4.375,,,,,,,,,,,,,,,,,,,,,,,,,,,,,,,
,613ae6e178fbca0316c2b325,627c6f50503fb2cc574e4376,2022-05-11_21h25.35.374,classification_task,2021.2.3,MacIntel,59.99880002,627c6715c52fd12f31907bd0,,,,,,,,,,,,,,,,,,,,,,,l,1,"[""0.136"",""0.787"",""0.468"",""0.693""]","[1,0,1,1]",0,13,13,13,1,1,0,,,1,FALSE,1.3336,,,,,,,,,,,,,,,,,,,,,,,,,,,,,,,
,613ae6e178fbca0316c2b325,627c6f50503fb2cc574e4376,2022-05-11_21h25.35.374,classification_task,2021.2.3,MacIntel,59.99880002,627c6715c52fd12f31907bd0,,,,,,,,,,,,,,,,,,,,,,,l,1,"[""0.084"",""0.275"",""0.515"",""0.654""]","[1,1,1,0]",0,14,14,14,1,1,1,,,1,FALSE,1.0253,,,,,,,,,,,,,,,,,,,,,,,,,,,,,,,
,613ae6e178fbca0316c2b325,627c6f50503fb2cc574e4376,2022-05-11_21h25.35.374,classification_task,2021.2.3,MacIntel,59.99880002,627c6715c52fd12f31907bd0,,,,,,,,,,,,,,,,,,,,,,,l,1,"[""0.136"",""0.339"",""0.468"",""0.655""]","[1,1,1,0]",0,15,15,15,1,1,0,,,1,FALSE,1.6972,,,,,,,,,,,,,,,,,,,,,,,,,,,,,,,
,613ae6e178fbca0316c2b325,627c6f50503fb2cc574e4376,2022-05-11_21h25.35.374,classification_task,2021.2.3,MacIntel,59.99880002,627c6715c52fd12f31907bd0,,,,,,,,,,,,,,,,,,,,,,,a,1,"[""0.215"",""0.394"",""0.643"",""0.933""]","[1,1,0,1]",0,16,16,16,1,0,0,,,1,FALSE,0.97,,,,,,,,,,,,,,,,,,,,,,,,,,,,,,,
,613ae6e178fbca0316c2b325,627c6f50503fb2cc574e4376,2022-05-11_21h25.35.374,classification_task,2021.2.3,MacIntel,59.99880002,627c6715c52fd12f31907bd0,,,,,,,,,,,,,,,,,,,,,,,l,1,"[""0.136"",""0.339"",""0.468"",""0.654""]","[1,1,1,0]",0,17,17,17,1,1,0,,,1,FALSE,1.3319,,,,,,,,,,,,,,,,,,,,,,,,,,,,,,,
,613ae6e178fbca0316c2b325,627c6f50503fb2cc574e4376,2022-05-11_21h25.35.374,classification_task,2021.2.3,MacIntel,59.99880002,627c6715c52fd12f31907bd0,,,,,,,,,,,,,,,,,,,,,,,l,1,"[""0.084"",""0.650"",""0.515"",""0.753""]","[1,0,1,1]",0,18,18,18,1,1,1,,,1,FALSE,1.1069,,,,,,,,,,,,,,,,,,,,,,,,,,,,,,,
,613ae6e178fbca0316c2b325,627c6f50503fb2cc574e4376,2022-05-11_21h25.35.374,classification_task,2021.2.3,MacIntel,59.99880002,627c6715c52fd12f31907bd0,,,,,,,,,,,,,,,,,,,,,,,a,1,"[""0.174"",""0.655"",""0.566"",""0.890""]","[1,0,1,1]",0,19,19,19,1,0,1,,,1,FALSE,0.866,,,,,,,,,,,,,,,,,,,,,,,,,,,,,,,
,613ae6e178fbca0316c2b325,627c6f50503fb2cc574e4376,2022-05-11_21h25.35.374,classification_task,2021.2.3,MacIntel,59.99880002,627c6715c52fd12f31907bd0,,,,,,,,,,,,,,,,,,,,,,,a,1,"[""0.174"",""0.434"",""0.566"",""0.027""]","[1,1,1,0]",0,20,20,20,1,0,1,,,1,FALSE,0.9145,,,,,,,,,,,,,,,,,,,,,,,,,,,,,,,
,613ae6e178fbca0316c2b325,627c6f50503fb2cc574e4376,2022-05-11_21h25.35.374,classification_task,2021.2.3,MacIntel,59.99880002,627c6715c52fd12f31907bd0,,,,,,,,,,,,,,,,,,,,,,,l,1,"[""0.084"",""0.275"",""0.650"",""0.753""]","[1,1,0,1]",0,21,21,21,1,1,1,,,1,FALSE,0.9311,,,,,,,,,,,,,,,,,,,,,,,,,,,,,,,
,613ae6e178fbca0316c2b325,627c6f50503fb2cc574e4376,2022-05-11_21h25.35.374,classification_task,2021.2.3,MacIntel,59.99880002,627c6715c52fd12f31907bd0,,,,,,,,,,,,,,,,,,,,,,,a,1,"[""0.614"",""0.434"",""0.566"",""0.890""]","[0,1,1,1]",0,22,22,22,1,0,1,,,1,FALSE,1.2991,,,,,,,,,,,,,,,,,,,,,,,,,,,,,,,
,613ae6e178fbca0316c2b325,627c6f50503fb2cc574e4376,2022-05-11_21h25.35.374,classification_task,2021.2.3,MacIntel,59.99880002,627c6715c52fd12f31907bd0,,,,,,,,,,,,,,,,,,,,,,,l,1,"[""0.659"",""0.339"",""0.468"",""0.693""]","[0,1,1,1]",0,23,23,23,1,1,0,,,1,FALSE,2.0436,,,,,,,,,,,,,,,,,,,,,,,,,,,,,,,
,613ae6e178fbca0316c2b325,627c6f50503fb2cc574e4376,2022-05-11_21h25.35.374,classification_task,2021.2.3,MacIntel,59.99880002,627c6715c52fd12f31907bd0,,,,,,,,,,,,,,,,,,,,,,,l,1,"[""0.136"",""0.339"",""0.790"",""0.693""]","[1,1,0,1]",0,24,24,24,1,1,0,,,1,FALSE,1.5502,,,,,,,,,,,,,,,,,,,,,,,,,,,,,,,
,613ae6e178fbca0316c2b325,627c6f50503fb2cc574e4376,2022-05-11_21h25.35.374,classification_task,2021.2.3,MacIntel,59.99880002,627c6715c52fd12f31907bd0,,,,,,,,,,,,,,,,,,,,,,,l,1,"[""0.136"",""0.652"",""0.468"",""0.693""]","[1,0,1,1]",0,25,25,25,1,1,0,,,1,FALSE,0.7465,,,,,,,,,,,,,,,,,,,,,,,,,,,,,,,
,613ae6e178fbca0316c2b325,627c6f50503fb2cc574e4376,2022-05-11_21h25.35.374,classification_task,2021.2.3,MacIntel,59.99880002,627c6715c52fd12f31907bd0,,,,,,,,,,,,,,,,,,,,,,,l,1,"[""0.640"",""0.275"",""0.515"",""0.753""]","[0,1,1,1]",0,26,26,26,1,1,1,,,1,FALSE,0.7259,,,,,,,,,,,,,,,,,,,,,,,,,,,,,,,
,613ae6e178fbca0316c2b325,627c6f50503fb2cc574e4376,2022-05-11_21h25.35.374,classification_task,2021.2.3,MacIntel,59.99880002,627c6715c52fd12f31907bd0,,,,,,,,,,,,,,,,,,,,,,,a,1,"[""0.654"",""0.394"",""0.831"",""0.933""]","[0,1,1,1]",0,27,27,27,1,0,0,,,1,FALSE,2.6581,,,,,,,,,,,,,,,,,,,,,,,,,,,,,,,
,613ae6e178fbca0316c2b325,627c6f50503fb2cc574e4376,2022-05-11_21h25.35.374,classification_task,2021.2.3,MacIntel,59.99880002,627c6715c52fd12f31907bd0,,,,,,,,,,,,,,,,,,,,,,,a,1,"[""0.215"",""0.394"",""0.831"",""0.602""]","[1,1,1,0]",0,28,28,28,1,0,0,,,1,FALSE,2.0175,,,,,,,,,,,,,,,,,,,,,,,,,,,,,,,
,613ae6e178fbca0316c2b325,627c6f50503fb2cc574e4376,2022-05-11_21h25.35.374,classification_task,2021.2.3,MacIntel,59.99880002,627c6715c52fd12f31907bd0,,,,,,,,,,,,,,,,,,,,,,,a,1,"[""0.174"",""0.434"",""0.659"",""0.890""]","[1,1,0,1]",0,29,29,29,1,0,1,,,1,FALSE,1.9262,,,,,,,,,,,,,,,,,,,,,,,,,,,,,,,
,613ae6e178fbca0316c2b325,627c6f50503fb2cc574e4376,2022-05-11_21h25.35.374,classification_task,2021.2.3,MacIntel,59.99880002,627c6715c52fd12f31907bd0,,,,,,,,,,,,,,,,,,,,,,,l,1,"[""0.084"",""0.275"",""0.515"",""0.792""]","[1,1,1,0]",0,30,30,30,1,1,1,,,1,FALSE,0.6002,,,,,,,,,,,,,,,,,,,,,,,,,,,,,,,
,613ae6e178fbca0316c2b325,627c6f50503fb2cc574e4376,2022-05-11_21h25.35.374,classification_task,2021.2.3,MacIntel,59.99880002,627c6715c52fd12f31907bd0,,,,,,,,,,,,,,,,,,,,,,,a,1,"[""0.215"",""0.655"",""0.831"",""0.933""]","[1,0,1,1]",0,31,31,31,1,0,0,,,1,FALSE,1.591,,,,,,,,,,,,,,,,,,,,,,,,,,,,,,,
,613ae6e178fbca0316c2b325,627c6f50503fb2cc574e4376,2022-05-11_21h25.35.374,classification_task,2021.2.3,MacIntel,59.99880002,627c6715c52fd12f31907bd0,,,,,,,,,,,,,,,,,,,,,,,a,1,"[""0.174"",""0.434"",""0.566"",""0.787""]","[1,1,1,0]",0,32,32,32,1,0,1,,,1,FALSE,2.0463,,,,,,,,,,,,,,,,,,,,,,,,,,,,,,,
,613ae6e178fbca0316c2b325,627c6f50503fb2cc574e4376,2022-05-11_21h25.35.374,classification_task,2021.2.3,MacIntel,59.99880002,627c6715c52fd12f31907bd0,,,,,,,,,,,,,,,,,,,,,,,a,1,"[""0.174"",""0.602"",""0.566"",""0.890""]","[1,0,1,1]",0,33,33,33,1,0,1,,,1,FALSE,0.7622,,,,,,,,,,,,,,,,,,,,,,,,,,,,,,,
,613ae6e178fbca0316c2b325,627c6f50503fb2cc574e4376,2022-05-11_21h25.35.374,classification_task,2021.2.3,MacIntel,59.99880002,627c6715c52fd12f31907bd0,,,,,,,,,,,,,,,,,,,,,,,l,1,"[""0.792"",""0.275"",""0.515"",""0.753""]","[0,1,1,1]",0,34,34,34,1,1,1,,,1,FALSE,0.949,,,,,,,,,,,,,,,,,,,,,,,,,,,,,,,
,613ae6e178fbca0316c2b325,627c6f50503fb2cc574e4376,2022-05-11_21h25.35.374,classification_task,2021.2.3,MacIntel,59.99880002,627c6715c52fd12f31907bd0,,,,,,,,,,,,,,,,,,,,,,,l,0,"[""0.643"",""0.394"",""0.831"",""0.933""]","[0,1,1,1]",0,35,35,35,1,0,0,,,1,FALSE,5.9744,,,,,,,,,,,,,,,,,,,,,,,,,,,,,,,
,613ae6e178fbca0316c2b325,627c6f50503fb2cc574e4376,2022-05-11_21h25.35.374,classification_task,2021.2.3,MacIntel,59.99880002,627c6715c52fd12f31907bd0,,,,,,,,,,,,,,,,,,,,,,,l,1,"[""0.084"",""0.614"",""0.515"",""0.753""]","[1,0,1,1]",0,36,36,36,1,1,1,,,1,FALSE,1.6979,,,,,,,,,,,,,,,,,,,,,,,,,,,,,,,
,613ae6e178fbca0316c2b325,627c6f50503fb2cc574e4376,2022-05-11_21h25.35.374,classification_task,2021.2.3,MacIntel,59.99880002,627c6715c52fd12f31907bd0,,,,,,,,,,,,,,,,,,,,,,,l,1,"[""0.136"",""0.339"",""0.468"",""0.790""]","[1,1,1,0]",0,37,37,37,1,1,0,,,1,FALSE,2.8924,,,,,,,,,,,,,,,,,,,,,,,,,,,,,,,
,613ae6e178fbca0316c2b325,627c6f50503fb2cc574e4376,2022-05-11_21h25.35.374,classification_task,2021.2.3,MacIntel,59.99880002,627c6715c52fd12f31907bd0,,,,,,,,,,,,,,,,,,,,,,,a,1,"[""0.215"",""0.394"",""0.659"",""0.933""]","[1,1,0,1]",0,38,38,38,1,0,0,,,1,FALSE,1.049,,,,,,,,,,,,,,,,,,,,,,,,,,,,,,,
,613ae6e178fbca0316c2b325,627c6f50503fb2cc574e4376,2022-05-11_21h25.35.374,classification_task,2021.2.3,MacIntel,59.99880002,627c6715c52fd12f31907bd0,,,,,,,,,,,,,,,,,,,,,,,l,0,"[""0.215"",""0.394"",""0.831"",""0.027""]","[1,1,1,0]",0,39,39,39,1,0,0,,,1,FALSE,1.281,,,,,,,,,,,,,,,,,,,,,,,,,,,,,,,
,613ae6e178fbca0316c2b325,627c6f50503fb2cc574e4376,2022-05-11_21h25.35.374,classification_task,2021.2.3,MacIntel,59.99880002,627c6715c52fd12f31907bd0,,,,,,,,,,,,,,,,,,,,,,,l,1,"[""0.084"",""0.275"",""0.792"",""0.753""]","[1,1,0,1]",0,40,40,40,1,1,1,,,1,FALSE,0.9085,,,,,,,,,,,,,,,,,,,,,,,,,,,,,,,
,613ae6e178fbca0316c2b325,627c6f50503fb2cc574e4376,2022-05-11_21h25.35.374,classification_task,2021.2.3,MacIntel,59.99880002,627c6715c52fd12f31907bd0,,,,,,,,,,,,,,,,,,,,,,,l,1,"[""0.136"",""0.339"",""0.652"",""0.693""]","[1,1,0,1]",0,41,41,41,1,1,0,,,1,FALSE,2.4254,,,,,,,,,,,,,,,,,,,,,,,,,,,,,,,
,613ae6e178fbca0316c2b325,627c6f50503fb2cc574e4376,2022-05-11_21h25.35.374,classification_task,2021.2.3,MacIntel,59.99880002,627c6715c52fd12f31907bd0,,,,,,,,,,,,,,,,,,,,,,,l,1,"[""0.650"",""0.339"",""0.468"",""0.693""]","[0,1,1,1]",0,42,42,42,1,1,0,,,1,FALSE,1.9492,,,,,,,,,,,,,,,,,,,,,,,,,,,,,,,
,613ae6e178fbca0316c2b325,627c6f50503fb2cc574e4376,2022-05-11_21h25.35.374,classification_task,2021.2.3,MacIntel,59.99880002,627c6715c52fd12f31907bd0,,,,,,,,,,,,,,,,,,,,,,,a,1,"[""0.215"",""0.659"",""0.831"",""0.933""]","[1,0,1,1]",0,43,43,43,1,0,0,,,1,FALSE,1.0825,,,,,,,,,,,,,,,,,,,,,,,,,,,,,,,
,613ae6e178fbca0316c2b325,627c6f50503fb2cc574e4376,2022-05-11_21h25.35.374,classification_task,2021.2.3,MacIntel,59.99880002,627c6715c52fd12f31907bd0,,,,,,,,,,,,,,,,,,,,,,,a,1,"[""0.787"",""0.434"",""0.566"",""0.890""]","[0,1,1,1]",0,44,44,44,1,0,1,,,1,FALSE,1.0461,,,,,,,,,,,,,,,,,,,,,,,,,,,,,,,
,613ae6e178fbca0316c2b325,627c6f50503fb2cc574e4376,2022-05-11_21h25.35.374,classification_task,2021.2.3,MacIntel,59.99880002,627c6715c52fd12f31907bd0,,,,,,,,,,,,,,,,,,,,,,,a,1,"[""0.174"",""0.434"",""0.602"",""0.890""]","[1,1,0,1]",0,45,45,45,1,0,1,,,1,FALSE,0.5477,,,,,,,,,,,,,,,,,,,,,,,,,,,,,,,
,613ae6e178fbca0316c2b325,627c6f50503fb2cc574e4376,2022-05-11_21h25.35.374,classification_task,2021.2.3,MacIntel,59.99880002,627c6715c52fd12f31907bd0,,,,,,,,,,,,,,,,,,,,,,,l,1,"[""0.136"",""0.643"",""0.468"",""0.693""]","[1,0,1,1]",0,46,46,46,1,1,0,,,1,FALSE,1.5293,,,,,,,,,,,,,,,,,,,,,,,,,,,,,,,
,613ae6e178fbca0316c2b325,627c6f50503fb2cc574e4376,2022-05-11_21h25.35.374,classification_task,2021.2.3,MacIntel,59.99880002,627c6715c52fd12f31907bd0,,,,,,,,,,,,,,,,,,,,,,,l,1,"[""0.084"",""0.275"",""0.515"",""0.659""]","[1,1,1,0]",0,47,47,47,1,1,1,,,1,FALSE,0.6761,,,,,,,,,,,,,,,,,,,,,,,,,,,,,,,
,613ae6e178fbca0316c2b325,627c6f50503fb2cc574e4376,2022-05-11_21h25.35.374,classification_task,2021.2.3,MacIntel,59.99880002,627c6715c52fd12f31907bd0,,,,,,,,,,,,,,,,,,,,,,,a,1,"[""0.174"",""0.792"",""0.566"",""0.890""]","[1,0,1,1]",0,48,48,48,1,0,1,,,1,FALSE,1.0641,,,,,,,,,,,,,,,,,,,,,,,,,,,,,,,
,613ae6e178fbca0316c2b325,627c6f50503fb2cc574e4376,2022-05-11_21h25.35.374,classification_task,2021.2.3,MacIntel,59.99880002,627c6715c52fd12f31907bd0,,,,,,,,,,,,,,,,,,,,,,,l,1,"[""0.136"",""0.339"",""0.655"",""0.693""]","[1,1,0,1]",0,49,49,49,1,1,0,,,1,FALSE,1.5598,,,,,,,,,,,,,,,,,,,,,,,,,,,,,,,
,613ae6e178fbca0316c2b325,627c6f50503fb2cc574e4376,2022-05-11_21h25.35.374,classification_task,2021.2.3,MacIntel,59.99880002,627c6715c52fd12f31907bd0,,,,,,,,,,,,,,,,,,,,,,,l,0,"[""0.654"",""0.394"",""0.831"",""0.933""]","[0,1,1,1]",0,50,50,50,1,0,0,,,1,FALSE,2.6671,,,,,,,,,,,,,,,,,,,,,,,,,,,,,,,
,613ae6e178fbca0316c2b325,627c6f50503fb2cc574e4376,2022-05-11_21h25.35.374,classification_task,2021.2.3,MacIntel,59.99880002,627c6715c52fd12f31907bd0,,,,,,,,,,,,,,,,,,,,,,,a,1,"[""0.215"",""0.394"",""0.831"",""0.654""]","[1,1,1,0]",0,51,51,51,1,0,0,,,1,FALSE,2.4316,,,,,,,,,,,,,,,,,,,,,,,,,,,,,,,
,613ae6e178fbca0316c2b325,627c6f50503fb2cc574e4376,2022-05-11_21h25.35.374,classification_task,2021.2.3,MacIntel,59.99880002,627c6715c52fd12f31907bd0,,,,,,,,,,,,,,,,,,,,,,,a,1,"[""0.215"",""0.792"",""0.831"",""0.933""]","[1,0,1,1]",0,52,52,52,1,0,0,,,1,FALSE,1.1515,,,,,,,,,,,,,,,,,,,,,,,,,,,,,,,
,613ae6e178fbca0316c2b325,627c6f50503fb2cc574e4376,2022-05-11_21h25.35.374,classification_task,2021.2.3,MacIntel,59.99880002,627c6715c52fd12f31907bd0,,,,,,,,,,,,,,,,,,,,,,,a,1,"[""0.174"",""0.434"",""0.566"",""0.655""]","[1,1,1,0]",0,53,53,53,1,0,1,,,1,FALSE,0.862,,,,,,,,,,,,,,,,,,,,,,,,,,,,,,,
,613ae6e178fbca0316c2b325,627c6f50503fb2cc574e4376,2022-05-11_21h25.35.374,classification_task,2021.2.3,MacIntel,59.99880002,627c6715c52fd12f31907bd0,,,,,,,,,,,,,,,,,,,,,,,l,1,"[""0.136"",""0.339"",""0.468"",""0.648""]","[1,1,1,0]",0,54,54,54,1,1,0,,,1,FALSE,1.2073,,,,,,,,,,,,,,,,,,,,,,,,,,,,,,,
,613ae6e178fbca0316c2b325,627c6f50503fb2cc574e4376,2022-05-11_21h25.35.374,classification_task,2021.2.3,MacIntel,59.99880002,627c6715c52fd12f31907bd0,,,,,,,,,,,,,,,,,,,,,,,l,1,"[""0.084"",""0.652"",""0.515"",""0.753""]","[1,0,1,1]",0,55,55,55,1,1,1,,,1,FALSE,0.9269,,,,,,,,,,,,,,,,,,,,,,,,,,,,,,,
,613ae6e178fbca0316c2b325,627c6f50503fb2cc574e4376,2022-05-11_21h25.35.374,classification_task,2021.2.3,MacIntel,59.99880002,627c6715c52fd12f31907bd0,,,,,,,,,,,,,,,,,,,,,,,l,1,"[""0.136"",""0.659"",""0.468"",""0.693""]","[1,0,1,1]",0,56,56,56,1,1,0,,,1,FALSE,1.007,,,,,,,,,,,,,,,,,,,,,,,,,,,,,,,
,613ae6e178fbca0316c2b325,627c6f50503fb2cc574e4376,2022-05-11_21h25.35.374,classification_task,2021.2.3,MacIntel,59.99880002,627c6715c52fd12f31907bd0,,,,,,,,,,,,,,,,,,,,,,,l,1,"[""0.084"",""0.275"",""0.515"",""0.659""]","[1,1,1,0]",0,57,57,57,1,1,1,,,1,FALSE,0.9564,,,,,,,,,,,,,,,,,,,,,,,,,,,,,,,
,613ae6e178fbca0316c2b325,627c6f50503fb2cc574e4376,2022-05-11_21h25.35.374,classification_task,2021.2.3,MacIntel,59.99880002,627c6715c52fd12f31907bd0,,,,,,,,,,,,,,,,,,,,,,,l,1,"[""0.084"",""0.275"",""0.792"",""0.753""]","[1,1,0,1]",0,58,58,58,1,1,1,,,1,FALSE,0.5966,,,,,,,,,,,,,,,,,,,,,,,,,,,,,,,
,613ae6e178fbca0316c2b325,627c6f50503fb2cc574e4376,2022-05-11_21h25.35.374,classification_task,2021.2.3,MacIntel,59.99880002,627c6715c52fd12f31907bd0,,,,,,,,,,,,,,,,,,,,,,,a,1,"[""0.174"",""0.434"",""0.643"",""0.890""]","[1,1,0,1]",0,59,59,59,1,0,1,,,1,FALSE,0.7145,,,,,,,,,,,,,,,,,,,,,,,,,,,,,,,
,613ae6e178fbca0316c2b325,627c6f50503fb2cc574e4376,2022-05-11_21h25.35.374,classification_task,2021.2.3,MacIntel,59.99880002,627c6715c52fd12f31907bd0,,,,,,,,,,,,,,,,,,,,,,,a,1,"[""0.787"",""0.434"",""0.566"",""0.890""]","[0,1,1,1]",0,60,60,60,1,0,1,,,1,FALSE,0.5486,,,,,,,,,,,,,,,,,,,,,,,,,,,,,,,
,613ae6e178fbca0316c2b325,627c6f50503fb2cc574e4376,2022-05-11_21h25.35.374,classification_task,2021.2.3,MacIntel,59.99880002,627c6715c52fd12f31907bd0,,,,,,,,,,,,,,,,,,,,,,,l,1,"[""0.787"",""0.275"",""0.515"",""0.753""]","[0,1,1,1]",0,61,61,61,1,1,1,,,1,FALSE,0.4476,,,,,,,,,,,,,,,,,,,,,,,,,,,,,,,
,613ae6e178fbca0316c2b325,627c6f50503fb2cc574e4376,2022-05-11_21h25.35.374,classification_task,2021.2.3,MacIntel,59.99880002,627c6715c52fd12f31907bd0,,,,,,,,,,,,,,,,,,,,,,,a,1,"[""0.215"",""0.394"",""0.643"",""0.933""]","[1,1,0,1]",0,62,62,62,1,0,0,,,1,FALSE,1.3101,,,,,,,,,,,,,,,,,,,,,,,,,,,,,,,
,613ae6e178fbca0316c2b325,627c6f50503fb2cc574e4376,2022-05-11_21h25.35.374,classification_task,2021.2.3,MacIntel,59.99880002,627c6715c52fd12f31907bd0,,,,,,,,,,,,,,,,,,,,,,,l,1,"[""0.614"",""0.339"",""0.468"",""0.693""]","[0,1,1,1]",0,63,63,63,1,1,0,,,1,FALSE,1.3002,,,,,,,,,,,,,,,,,,,,,,,,,,,,,,,
,613ae6e178fbca0316c2b325,627c6f50503fb2cc574e4376,2022-05-11_21h25.35.374,classification_task,2021.2.3,MacIntel,59.99880002,627c6715c52fd12f31907bd0,,,,,,,,,,,,,,,,,,,,,,,,,,,,,,,,,,,,,,,0, ,,0,6.300475823,203.9273,0,1,1,1,1,2,2,,,,,,,,,,,,,,,,,,
,613ae6e178fbca0316c2b325,627c6f50503fb2cc574e4376,2022-05-11_21h25.35.374,classification_task,2021.2.3,MacIntel,59.99880002,627c6715c52fd12f31907bd0,,,,,,,,,,,,,,,,,,,,,,,,,,,,,,,,,,,,,,,1,  ,,0,6.313221083,209.3717,0,1,1,1,1,2,2,,,,,,,,,,,,,,,,,,
,613ae6e178fbca0316c2b325,627c6f50503fb2cc574e4376,2022-05-11_21h25.35.374,classification_task,2021.2.3,MacIntel,59.99880002,627c6715c52fd12f31907bd0,,,,,,,,,,,,,,,,,,,,,,,,,,,,,,,,,,,,,,,2,  ,,0,5.149842923,215.6905,0,1,1,1,1,2,2,,,,,,,,,,,,,,,,,,
,613ae6e178fbca0316c2b325,627c6f50503fb2cc574e4376,2022-05-11_21h25.35.374,classification_task,2021.2.3,MacIntel,59.99880002,627c6715c52fd12f31907bd0,,,,,,,,,,,,,,,,,,,,,,,,,,,,,,,,,,,,,,,,,,,,,0,1,1,1,1,,2,,,,,,,,,,,,,,,,,,
,613ae6e178fbca0316c2b325,627c6f50503fb2cc574e4376,2022-05-11_21h25.35.374,classification_task,2021.2.3,MacIntel,59.99880002,627c6715c52fd12f31907bd0,,,,,,,,,,,,,,,,,,,,,space,358.5701,l,1,"[""0.084"",""0.790"",""0.515"",""0.753""]","[1,0,1,1]",0,0,0,0,1,1,1,,,1,FALSE,3.9738,,,,,,,,,,,,,,,,,,,,,,,,,,,,,,,
,613ae6e178fbca0316c2b325,627c6f50503fb2cc574e4376,2022-05-11_21h25.35.374,classification_task,2021.2.3,MacIntel,59.99880002,627c6715c52fd12f31907bd0,,,,,,,,,,,,,,,,,,,,,,,l,0,"[""0.027"",""0.434"",""0.566"",""0.890""]","[0,1,1,1]",0,1,1,1,1,0,1,,,1,FALSE,2.4186,,,,,,,,,,,,,,,,,,,,,,,,,,,,,,,
,613ae6e178fbca0316c2b325,627c6f50503fb2cc574e4376,2022-05-11_21h25.35.374,classification_task,2021.2.3,MacIntel,59.99880002,627c6715c52fd12f31907bd0,,,,,,,,,,,,,,,,,,,,,,,l,1,"[""0.084"",""0.275"",""0.515"",""0.027""]","[1,1,1,0]",0,2,2,2,1,1,1,,,1,FALSE,2.4159,,,,,,,,,,,,,,,,,,,,,,,,,,,,,,,
,613ae6e178fbca0316c2b325,627c6f50503fb2cc574e4376,2022-05-11_21h25.35.374,classification_task,2021.2.3,MacIntel,59.99880002,627c6715c52fd12f31907bd0,,,,,,,,,,,,,,,,,,,,,,,l,1,"[""0.654"",""0.275"",""0.515"",""0.753""]","[0,1,1,1]",0,3,3,3,1,1,1,,,1,FALSE,2.9511,,,,,,,,,,,,,,,,,,,,,,,,,,,,,,,
,613ae6e178fbca0316c2b325,627c6f50503fb2cc574e4376,2022-05-11_21h25.35.374,classification_task,2021.2.3,MacIntel,59.99880002,627c6715c52fd12f31907bd0,,,,,,,,,,,,,,,,,,,,,,,a,1,"[""0.215"",""0.655"",""0.831"",""0.933""]","[1,0,1,1]",0,4,4,4,1,0,0,,,1,FALSE,1.3195,,,,,,,,,,,,,,,,,,,,,,,,,,,,,,,
,613ae6e178fbca0316c2b325,627c6f50503fb2cc574e4376,2022-05-11_21h25.35.374,classification_task,2021.2.3,MacIntel,59.99880002,627c6715c52fd12f31907bd0,,,,,,,,,,,,,,,,,,,,,,,a,1,"[""0.659"",""0.394"",""0.831"",""0.933""]","[0,1,1,1]",0,5,5,5,1,0,0,,,1,FALSE,1.836,,,,,,,,,,,,,,,,,,,,,,,,,,,,,,,
,613ae6e178fbca0316c2b325,627c6f50503fb2cc574e4376,2022-05-11_21h25.35.374,classification_task,2021.2.3,MacIntel,59.99880002,627c6715c52fd12f31907bd0,,,,,,,,,,,,,,,,,,,,,,,l,1,"[""0.136"",""0.650"",""0.468"",""0.693""]","[1,0,1,1]",0,6,6,6,1,1,0,,,1,FALSE,3.1487,,,,,,,,,,,,,,,,,,,,,,,,,,,,,,,
,613ae6e178fbca0316c2b325,627c6f50503fb2cc574e4376,2022-05-11_21h25.35.374,classification_task,2021.2.3,MacIntel,59.99880002,627c6715c52fd12f31907bd0,,,,,,,,,,,,,,,,,,,,,,,a,1,"[""0.174"",""0.650"",""0.566"",""0.890""]","[1,0,1,1]",0,7,7,7,1,0,1,,,1,FALSE,2.6031,,,,,,,,,,,,,,,,,,,,,,,,,,,,,,,
,613ae6e178fbca0316c2b325,627c6f50503fb2cc574e4376,2022-05-11_21h25.35.374,classification_task,2021.2.3,MacIntel,59.99880002,627c6715c52fd12f31907bd0,,,,,,,,,,,,,,,,,,,,,,,l,1,"[""0.084"",""0.275"",""0.652"",""0.753""]","[1,1,0,1]",0,8,8,8,1,1,1,,,1,FALSE,2.1835,,,,,,,,,,,,,,,,,,,,,,,,,,,,,,,
,613ae6e178fbca0316c2b325,627c6f50503fb2cc574e4376,2022-05-11_21h25.35.374,classification_task,2021.2.3,MacIntel,59.99880002,627c6715c52fd12f31907bd0,,,,,,,,,,,,,,,,,,,,,,,l,0,"[""0.174"",""0.434"",""0.792"",""0.890""]","[1,1,0,1]",0,9,9,9,1,0,1,,,1,FALSE,5.2049,,,,,,,,,,,,,,,,,,,,,,,,,,,,,,,
,613ae6e178fbca0316c2b325,627c6f50503fb2cc574e4376,2022-05-11_21h25.35.374,classification_task,2021.2.3,MacIntel,59.99880002,627c6715c52fd12f31907bd0,,,,,,,,,,,,,,,,,,,,,,,a,1,"[""0.215"",""0.394"",""0.659"",""0.933""]","[1,1,0,1]",0,10,10,10,1,0,0,,,1,FALSE,1.7193,,,,,,,,,,,,,,,,,,,,,,,,,,,,,,,
,613ae6e178fbca0316c2b325,627c6f50503fb2cc574e4376,2022-05-11_21h25.35.374,classification_task,2021.2.3,MacIntel,59.99880002,627c6715c52fd12f31907bd0,,,,,,,,,,,,,,,,,,,,,,,a,1,"[""0.215"",""0.394"",""0.831"",""0.648""]","[1,1,1,0]",0,11,11,11,1,0,0,,,1,FALSE,1.0144,,,,,,,,,,,,,,,,,,,,,,,,,,,,,,,
,613ae6e178fbca0316c2b325,627c6f50503fb2cc574e4376,2022-05-11_21h25.35.374,classification_task,2021.2.3,MacIntel,59.99880002,627c6715c52fd12f31907bd0,,,,,,,,,,,,,,,,,,,,,,,l,1,"[""0.136"",""0.339"",""0.468"",""0.659""]","[1,1,1,0]",0,12,12,12,1,1,0,,,1,FALSE,1.1501,,,,,,,,,,,,,,,,,,,,,,,,,,,,,,,
,613ae6e178fbca0316c2b325,627c6f50503fb2cc574e4376,2022-05-11_21h25.35.374,classification_task,2021.2.3,MacIntel,59.99880002,627c6715c52fd12f31907bd0,,,,,,,,,,,,,,,,,,,,,,,l,1,"[""0.136"",""0.339"",""0.792"",""0.693""]","[1,1,0,1]",0,13,13,13,1,1,0,,,1,FALSE,1.5154,,,,,,,,,,,,,,,,,,,,,,,,,,,,,,,
,613ae6e178fbca0316c2b325,627c6f50503fb2cc574e4376,2022-05-11_21h25.35.374,classification_task,2021.2.3,MacIntel,59.99880002,627c6715c52fd12f31907bd0,,,,,,,,,,,,,,,,,,,,,,,l,1,"[""0.027"",""0.339"",""0.468"",""0.693""]","[0,1,1,1]",0,14,14,14,1,1,0,,,1,FALSE,1.6456,,,,,,,,,,,,,,,,,,,,,,,,,,,,,,,
,613ae6e178fbca0316c2b325,627c6f50503fb2cc574e4376,2022-05-11_21h25.35.374,classification_task,2021.2.3,MacIntel,59.99880002,627c6715c52fd12f31907bd0,,,,,,,,,,,,,,,,,,,,,,,a,1,"[""0.174"",""0.434"",""0.566"",""0.602""]","[1,1,1,0]",0,15,15,15,1,0,1,,,1,FALSE,8.2367,,,,,,,,,,,,,,,,,,,,,,,,,,,,,,,
,613ae6e178fbca0316c2b325,627c6f50503fb2cc574e4376,2022-05-11_21h25.35.374,classification_task,2021.2.3,MacIntel,59.99880002,627c6715c52fd12f31907bd0,,,,,,,,,,,,,,,,,,,,,,,l,1,"[""0.136"",""0.339"",""0.468"",""0.650""]","[1,1,1,0]",0,16,16,16,1,1,0,,,1,FALSE,2.0829,,,,,,,,,,,,,,,,,,,,,,,,,,,,,,,
,613ae6e178fbca0316c2b325,627c6f50503fb2cc574e4376,2022-05-11_21h25.35.374,classification_task,2021.2.3,MacIntel,59.99880002,627c6715c52fd12f31907bd0,,,,,,,,,,,,,,,,,,,,,,,a,1,"[""0.174"",""0.434"",""0.790"",""0.890""]","[1,1,0,1]",0,17,17,17,1,0,1,,,1,FALSE,2.6205,,,,,,,,,,,,,,,,,,,,,,,,,,,,,,,
,613ae6e178fbca0316c2b325,627c6f50503fb2cc574e4376,2022-05-11_21h25.35.374,classification_task,2021.2.3,MacIntel,59.99880002,627c6715c52fd12f31907bd0,,,,,,,,,,,,,,,,,,,,,,,a,1,"[""0.602"",""0.434"",""0.566"",""0.890""]","[0,1,1,1]",0,18,18,18,1,0,1,,,1,FALSE,2.7055,,,,,,,,,,,,,,,,,,,,,,,,,,,,,,,
,613ae6e178fbca0316c2b325,627c6f50503fb2cc574e4376,2022-05-11_21h25.35.374,classification_task,2021.2.3,MacIntel,59.99880002,627c6715c52fd12f31907bd0,,,,,,,,,,,,,,,,,,,,,,,l,1,"[""0.084"",""0.275"",""0.515"",""0.655""]","[1,1,1,0]",0,19,19,19,1,1,1,,,1,FALSE,1.9848,,,,,,,,,,,,,,,,,,,,,,,,,,,,,,,
,613ae6e178fbca0316c2b325,627c6f50503fb2cc574e4376,2022-05-11_21h25.35.374,classification_task,2021.2.3,MacIntel,59.99880002,627c6715c52fd12f31907bd0,,,,,,,,,,,,,,,,,,,,,,,a,1,"[""0.174"",""0.659"",""0.566"",""0.890""]","[1,0,1,1]",0,20,20,20,1,0,1,,,1,FALSE,3.1154,,,,,,,,,,,,,,,,,,,,,,,,,,,,,,,
,613ae6e178fbca0316c2b325,627c6f50503fb2cc574e4376,2022-05-11_21h25.35.374,classification_task,2021.2.3,MacIntel,59.99880002,627c6715c52fd12f31907bd0,,,,,,,,,,,,,,,,,,,,,,,l,1,"[""0.084"",""0.275"",""0.787"",""0.753""]","[1,1,0,1]",0,21,21,21,1,1,1,,,1,FALSE,1.034,,,,,,,,,,,,,,,,,,,,,,,,,,,,,,,
,613ae6e178fbca0316c2b325,627c6f50503fb2cc574e4376,2022-05-11_21h25.35.374,classification_task,2021.2.3,MacIntel,59.99880002,627c6715c52fd12f31907bd0,,,,,,,,,,,,,,,,,,,,,,,a,1,"[""0.215"",""0.394"",""0.831"",""0.654""]","[1,1,1,0]",0,22,22,22,1,0,0,,,1,FALSE,2.7616,,,,,,,,,,,,,,,,,,,,,,,,,,,,,,,
,613ae6e178fbca0316c2b325,627c6f50503fb2cc574e4376,2022-05-11_21h25.35.374,classification_task,2021.2.3,MacIntel,59.99880002,627c6715c52fd12f31907bd0,,,,,,,,,,,,,,,,,,,,,,,l,1,"[""0.659"",""0.275"",""0.515"",""0.753""]","[0,1,1,1]",0,23,23,23,1,1,1,,,1,FALSE,5.0157,,,,,,,,,,,,,,,,,,,,,,,,,,,,,,,
,613ae6e178fbca0316c2b325,627c6f50503fb2cc574e4376,2022-05-11_21h25.35.374,classification_task,2021.2.3,MacIntel,59.99880002,627c6715c52fd12f31907bd0,,,,,,,,,,,,,,,,,,,,,,,a,1,"[""0.648"",""0.394"",""0.831"",""0.933""]","[0,1,1,1]",0,24,24,24,1,0,0,,,1,FALSE,4.2678,,,,,,,,,,,,,,,,,,,,,,,,,,,,,,,
,613ae6e178fbca0316c2b325,627c6f50503fb2cc574e4376,2022-05-11_21h25.35.374,classification_task,2021.2.3,MacIntel,59.99880002,627c6715c52fd12f31907bd0,,,,,,,,,,,,,,,,,,,,,,,a,1,"[""0.174"",""0.434"",""0.566"",""0.643""]","[1,1,1,0]",0,25,25,25,1,0,1,,,1,FALSE,2.3186,,,,,,,,,,,,,,,,,,,,,,,,,,,,,,,
,613ae6e178fbca0316c2b325,627c6f50503fb2cc574e4376,2022-05-11_21h25.35.374,classification_task,2021.2.3,MacIntel,59.99880002,627c6715c52fd12f31907bd0,,,,,,,,,,,,,,,,,,,,,,,l,1,"[""0.084"",""0.648"",""0.515"",""0.753""]","[1,0,1,1]",0,26,26,26,1,1,1,,,1,FALSE,2.364,,,,,,,,,,,,,,,,,,,,,,,,,,,,,,,
,613ae6e178fbca0316c2b325,627c6f50503fb2cc574e4376,2022-05-11_21h25.35.374,classification_task,2021.2.3,MacIntel,59.99880002,627c6715c52fd12f31907bd0,,,,,,,,,,,,,,,,,,,,,,,l,1,"[""0.136"",""0.339"",""0.643"",""0.693""]","[1,1,0,1]",0,27,27,27,1,1,0,,,1,FALSE,2.3514,,,,,,,,,,,,,,,,,,,,,,,,,,,,,,,
,613ae6e178fbca0316c2b325,627c6f50503fb2cc574e4376,2022-05-11_21h25.35.374,classification_task,2021.2.3,MacIntel,59.99880002,627c6715c52fd12f31907bd0,,,,,,,,,,,,,,,,,,,,,,,a,1,"[""0.215"",""0.394"",""0.027"",""0.933""]","[1,1,0,1]",0,28,28,28,1,0,0,,,1,FALSE,4.7206,,,,,,,,,,,,,,,,,,,,,,,,,,,,,,,
,613ae6e178fbca0316c2b325,627c6f50503fb2cc574e4376,2022-05-11_21h25.35.374,classification_task,2021.2.3,MacIntel,59.99880002,627c6715c52fd12f31907bd0,,,,,,,,,,,,,,,,,,,,,,,l,1,"[""0.614"",""0.339"",""0.468"",""0.693""]","[0,1,1,1]",0,29,29,29,1,1,0,,,1,FALSE,2.9182,,,,,,,,,,,,,,,,,,,,,,,,,,,,,,,
,613ae6e178fbca0316c2b325,627c6f50503fb2cc574e4376,2022-05-11_21h25.35.374,classification_task,2021.2.3,MacIntel,59.99880002,627c6715c52fd12f31907bd0,,,,,,,,,,,,,,,,,,,,,,,l,1,"[""0.136"",""0.655"",""0.468"",""0.693""]","[1,0,1,1]",0,30,30,30,1,1,0,,,1,FALSE,2.5709,,,,,,,,,,,,,,,,,,,,,,,,,,,,,,,
,613ae6e178fbca0316c2b325,627c6f50503fb2cc574e4376,2022-05-11_21h25.35.374,classification_task,2021.2.3,MacIntel,59.99880002,627c6715c52fd12f31907bd0,,,,,,,,,,,,,,,,,,,,,,,a,1,"[""0.215"",""0.643"",""0.831"",""0.933""]","[1,0,1,1]",0,31,31,31,1,0,0,,,1,FALSE,2.3152,,,,,,,,,,,,,,,,,,,,,,,,,,,,,,,
,613ae6e178fbca0316c2b325,627c6f50503fb2cc574e4376,2022-05-11_21h25.35.374,classification_task,2021.2.3,MacIntel,59.99880002,627c6715c52fd12f31907bd0,,,,,,,,,,,,,,,,,,,,,,,a,1,"[""0.174"",""0.434"",""0.654"",""0.890""]","[1,1,0,1]",0,32,32,32,1,0,1,,,1,FALSE,4.0193,,,,,,,,,,,,,,,,,,,,,,,,,,,,,,,
,613ae6e178fbca0316c2b325,627c6f50503fb2cc574e4376,2022-05-11_21h25.35.374,classification_task,2021.2.3,MacIntel,59.99880002,627c6715c52fd12f31907bd0,,,,,,,,,,,,,,,,,,,,,,,l,0,"[""0.655"",""0.434"",""0.566"",""0.890""]","[0,1,1,1]",0,33,33,33,1,0,1,,,1,FALSE,4.1202,,,,,,,,,,,,,,,,,,,,,,,,,,,,,,,
,613ae6e178fbca0316c2b325,627c6f50503fb2cc574e4376,2022-05-11_21h25.35.374,classification_task,2021.2.3,MacIntel,59.99880002,627c6715c52fd12f31907bd0,,,,,,,,,,,,,,,,,,,,,,,l,1,"[""0.792"",""0.275"",""0.515"",""0.753""]","[0,1,1,1]",0,34,34,34,1,1,1,,,1,FALSE,3.5012,,,,,,,,,,,,,,,,,,,,,,,,,,,,,,,
,613ae6e178fbca0316c2b325,627c6f50503fb2cc574e4376,2022-05-11_21h25.35.374,classification_task,2021.2.3,MacIntel,59.99880002,627c6715c52fd12f31907bd0,,,,,,,,,,,,,,,,,,,,,,,a,1,"[""0.215"",""0.394"",""0.831"",""0.652""]","[1,1,1,0]",0,35,35,35,1,0,0,,,1,FALSE,1.2708,,,,,,,,,,,,,,,,,,,,,,,,,,,,,,,
,613ae6e178fbca0316c2b325,627c6f50503fb2cc574e4376,2022-05-11_21h25.35.374,classification_task,2021.2.3,MacIntel,59.99880002,627c6715c52fd12f31907bd0,,,,,,,,,,,,,,,,,,,,,,,l,1,"[""0.614"",""0.339"",""0.468"",""0.693""]","[0,1,1,1]",0,36,36,36,1,1,0,,,1,FALSE,1.7033,,,,,,,,,,,,,,,,,,,,,,,,,,,,,,,
,613ae6e178fbca0316c2b325,627c6f50503fb2cc574e4376,2022-05-11_21h25.35.374,classification_task,2021.2.3,MacIntel,59.99880002,627c6715c52fd12f31907bd0,,,,,,,,,,,,,,,,,,,,,,,a,1,"[""0.174"",""0.434"",""0.566"",""0.659""]","[1,1,1,0]",0,37,37,37,1,0,1,,,1,FALSE,3.6638,,,,,,,,,,,,,,,,,,,,,,,,,,,,,,,
,613ae6e178fbca0316c2b325,627c6f50503fb2cc574e4376,2022-05-11_21h25.35.374,classification_task,2021.2.3,MacIntel,59.99880002,627c6715c52fd12f31907bd0,,,,,,,,,,,,,,,,,,,,,,,l,1,"[""0.084"",""0.027"",""0.515"",""0.753""]","[1,0,1,1]",0,38,38,38,1,1,1,,,1,FALSE,4.0042,,,,,,,,,,,,,,,,,,,,,,,,,,,,,,,
,613ae6e178fbca0316c2b325,627c6f50503fb2cc574e4376,2022-05-11_21h25.35.374,classification_task,2021.2.3,MacIntel,59.99880002,627c6715c52fd12f31907bd0,,,,,,,,,,,,,,,,,,,,,,,l,1,"[""0.136"",""0.339"",""0.468"",""0.652""]","[1,1,1,0]",0,39,39,39,1,1,0,,,1,FALSE,2.1857,,,,,,,,,,,,,,,,,,,,,,,,,,,,,,,
,613ae6e178fbca0316c2b325,627c6f50503fb2cc574e4376,2022-05-11_21h25.35.374,classification_task,2021.2.3,MacIntel,59.99880002,627c6715c52fd12f31907bd0,,,,,,,,,,,,,,,,,,,,,,,a,1,"[""0.648"",""0.394"",""0.831"",""0.933""]","[0,1,1,1]",0,40,40,40,1,0,0,,,1,FALSE,4.9345,,,,,,,,,,,,,,,,,,,,,,,,,,,,,,,
,613ae6e178fbca0316c2b325,627c6f50503fb2cc574e4376,2022-05-11_21h25.35.374,classification_task,2021.2.3,MacIntel,59.99880002,627c6715c52fd12f31907bd0,,,,,,,,,,,,,,,,,,,,,,,l,1,"[""0.136"",""0.339"",""0.643"",""0.693""]","[1,1,0,1]",0,41,41,41,1,1,0,,,1,FALSE,1.4033,,,,,,,,,,,,,,,,,,,,,,,,,,,,,,,
,613ae6e178fbca0316c2b325,627c6f50503fb2cc574e4376,2022-05-11_21h25.35.374,classification_task,2021.2.3,MacIntel,59.99880002,627c6715c52fd12f31907bd0,,,,,,,,,,,,,,,,,,,,,,,l,1,"[""0.136"",""0.790"",""0.468"",""0.693""]","[1,0,1,1]",0,42,42,42,1,1,0,,,1,FALSE,1.1687,,,,,,,,,,,,,,,,,,,,,,,,,,,,,,,
,613ae6e178fbca0316c2b325,627c6f50503fb2cc574e4376,2022-05-11_21h25.35.374,classification_task,2021.2.3,MacIntel,59.99880002,627c6715c52fd12f31907bd0,,,,,,,,,,,,,,,,,,,,,,,a,0,"[""0.084"",""0.275"",""0.515"",""0.790""]","[1,1,1,0]",0,43,43,43,1,1,1,,,1,FALSE,1.0481,,,,,,,,,,,,,,,,,,,,,,,,,,,,,,,
,613ae6e178fbca0316c2b325,627c6f50503fb2cc574e4376,2022-05-11_21h25.35.374,classification_task,2021.2.3,MacIntel,59.99880002,627c6715c52fd12f31907bd0,,,,,,,,,,,,,,,,,,,,,,,l,1,"[""0.084"",""0.275"",""0.659"",""0.753""]","[1,1,0,1]",0,44,44,44,1,1,1,,,1,FALSE,0.8503,,,,,,,,,,,,,,,,,,,,,,,,,,,,,,,
,613ae6e178fbca0316c2b325,627c6f50503fb2cc574e4376,2022-05-11_21h25.35.374,classification_task,2021.2.3,MacIntel,59.99880002,627c6715c52fd12f31907bd0,,,,,,,,,,,,,,,,,,,,,,,a,1,"[""0.215"",""0.394"",""0.640"",""0.933""]","[1,1,0,1]",0,45,45,45,1,0,0,,,1,FALSE,1.1118,,,,,,,,,,,,,,,,,,,,,,,,,,,,,,,
,613ae6e178fbca0316c2b325,627c6f50503fb2cc574e4376,2022-05-11_21h25.35.374,classification_task,2021.2.3,MacIntel,59.99880002,627c6715c52fd12f31907bd0,,,,,,,,,,,,,,,,,,,,,,,a,1,"[""0.215"",""0.655"",""0.831"",""0.933""]","[1,0,1,1]",0,46,46,46,1,0,0,,,1,FALSE,0.8156,,,,,,,,,,,,,,,,,,,,,,,,,,,,,,,
,613ae6e178fbca0316c2b325,627c6f50503fb2cc574e4376,2022-05-11_21h25.35.374,classification_task,2021.2.3,MacIntel,59.99880002,627c6715c52fd12f31907bd0,,,,,,,,,,,,,,,,,,,,,,,a,1,"[""0.174"",""0.027"",""0.566"",""0.890""]","[1,0,1,1]",0,47,47,47,1,0,1,,,1,FALSE,6.0181,,,,,,,,,,,,,,,,,,,,,,,,,,,,,,,
,613ae6e178fbca0316c2b325,627c6f50503fb2cc574e4376,2022-05-11_21h25.35.374,classification_task,2021.2.3,MacIntel,59.99880002,627c6715c52fd12f31907bd0,,,,,,,,,,,,,,,,,,,,,,,a,1,"[""0.654"",""0.434"",""0.566"",""0.890""]","[0,1,1,1]",0,48,48,48,1,0,1,,,1,FALSE,3.1698,,,,,,,,,,,,,,,,,,,,,,,,,,,,,,,
,613ae6e178fbca0316c2b325,627c6f50503fb2cc574e4376,2022-05-11_21h25.35.374,classification_task,2021.2.3,MacIntel,59.99880002,627c6715c52fd12f31907bd0,,,,,,,,,,,,,,,,,,,,,,,l,0,"[""0.174"",""0.434"",""0.566"",""0.614""]","[1,1,1,0]",0,49,49,49,1,0,1,,,1,FALSE,3.1485,,,,,,,,,,,,,,,,,,,,,,,,,,,,,,,
,613ae6e178fbca0316c2b325,627c6f50503fb2cc574e4376,2022-05-11_21h25.35.374,classification_task,2021.2.3,MacIntel,59.99880002,627c6715c52fd12f31907bd0,,,,,,,,,,,,,,,,,,,,,,,a,1,"[""0.215"",""0.394"",""0.831"",""0.790""]","[1,1,1,0]",0,50,50,50,1,0,0,,,1,FALSE,2.6578,,,,,,,,,,,,,,,,,,,,,,,,,,,,,,,
,613ae6e178fbca0316c2b325,627c6f50503fb2cc574e4376,2022-05-11_21h25.35.374,classification_task,2021.2.3,MacIntel,59.99880002,627c6715c52fd12f31907bd0,,,,,,,,,,,,,,,,,,,,,,,l,1,"[""0.136"",""0.339"",""0.787"",""0.693""]","[1,1,0,1]",0,51,51,51,1,1,0,,,1,FALSE,1.1346,,,,,,,,,,,,,,,,,,,,,,,,,,,,,,,
,613ae6e178fbca0316c2b325,627c6f50503fb2cc574e4376,2022-05-11_21h25.35.374,classification_task,2021.2.3,MacIntel,59.99880002,627c6715c52fd12f31907bd0,,,,,,,,,,,,,,,,,,,,,,,l,1,"[""0.084"",""0.275"",""0.515"",""0.792""]","[1,1,1,0]",0,52,52,52,1,1,1,,,1,FALSE,3.7319,,,,,,,,,,,,,,,,,,,,,,,,,,,,,,,
,613ae6e178fbca0316c2b325,627c6f50503fb2cc574e4376,2022-05-11_21h25.35.374,classification_task,2021.2.3,MacIntel,59.99880002,627c6715c52fd12f31907bd0,,,,,,,,,,,,,,,,,,,,,,,l,1,"[""0.790"",""0.339"",""0.468"",""0.693""]","[0,1,1,1]",0,53,53,53,1,1,0,,,1,FALSE,2.4342,,,,,,,,,,,,,,,,,,,,,,,,,,,,,,,
,613ae6e178fbca0316c2b325,627c6f50503fb2cc574e4376,2022-05-11_21h25.35.374,classification_task,2021.2.3,MacIntel,59.99880002,627c6715c52fd12f31907bd0,,,,,,,,,,,,,,,,,,,,,,,a,1,"[""0.215"",""0.654"",""0.831"",""0.933""]","[1,0,1,1]",0,54,54,54,1,0,0,,,1,FALSE,1.3495,,,,,,,,,,,,,,,,,,,,,,,,,,,,,,,
,613ae6e178fbca0316c2b325,627c6f50503fb2cc574e4376,2022-05-11_21h25.35.374,classification_task,2021.2.3,MacIntel,59.99880002,627c6715c52fd12f31907bd0,,,,,,,,,,,,,,,,,,,,,,,l,1,"[""0.084"",""0.659"",""0.515"",""0.753""]","[1,0,1,1]",0,55,55,55,1,1,1,,,1,FALSE,1.22,,,,,,,,,,,,,,,,,,,,,,,,,,,,,,,
,613ae6e178fbca0316c2b325,627c6f50503fb2cc574e4376,2022-05-11_21h25.35.374,classification_task,2021.2.3,MacIntel,59.99880002,627c6715c52fd12f31907bd0,,,,,,,,,,,,,,,,,,,,,,,a,1,"[""0.215"",""0.394"",""0.659"",""0.933""]","[1,1,0,1]",0,56,56,56,1,0,0,,,1,FALSE,1.131,,,,,,,,,,,,,,,,,,,,,,,,,,,,,,,
,613ae6e178fbca0316c2b325,627c6f50503fb2cc574e4376,2022-05-11_21h25.35.374,classification_task,2021.2.3,MacIntel,59.99880002,627c6715c52fd12f31907bd0,,,,,,,,,,,,,,,,,,,,,,,a,1,"[""0.174"",""0.640"",""0.566"",""0.890""]","[1,0,1,1]",0,57,57,57,1,0,1,,,1,FALSE,4.5832,,,,,,,,,,,,,,,,,,,,,,,,,,,,,,,
,613ae6e178fbca0316c2b325,627c6f50503fb2cc574e4376,2022-05-11_21h25.35.374,classification_task,2021.2.3,MacIntel,59.99880002,627c6715c52fd12f31907bd0,,,,,,,,,,,,,,,,,,,,,,,l,0,"[""0.648"",""0.394"",""0.831"",""0.933""]","[0,1,1,1]",0,58,58,58,1,0,0,,,1,FALSE,6.135,,,,,,,,,,,,,,,,,,,,,,,,,,,,,,,
,613ae6e178fbca0316c2b325,627c6f50503fb2cc574e4376,2022-05-11_21h25.35.374,classification_task,2021.2.3,MacIntel,59.99880002,627c6715c52fd12f31907bd0,,,,,,,,,,,,,,,,,,,,,,,l,0,"[""0.174"",""0.434"",""0.027"",""0.890""]","[1,1,0,1]",0,59,59,59,1,0,1,,,1,FALSE,4.6847,,,,,,,,,,,,,,,,,,,,,,,,,,,,,,,
,613ae6e178fbca0316c2b325,627c6f50503fb2cc574e4376,2022-05-11_21h25.35.374,classification_task,2021.2.3,MacIntel,59.99880002,627c6715c52fd12f31907bd0,,,,,,,,,,,,,,,,,,,,,,,l,1,"[""0.659"",""0.275"",""0.515"",""0.753""]","[0,1,1,1]",0,60,60,60,1,1,1,,,1,FALSE,4.5677,,,,,,,,,,,,,,,,,,,,,,,,,,,,,,,
,613ae6e178fbca0316c2b325,627c6f50503fb2cc574e4376,2022-05-11_21h25.35.374,classification_task,2021.2.3,MacIntel,59.99880002,627c6715c52fd12f31907bd0,,,,,,,,,,,,,,,,,,,,,,,l,1,"[""0.084"",""0.275"",""0.640"",""0.753""]","[1,1,0,1]",0,61,61,61,1,1,1,,,1,FALSE,2.2996,,,,,,,,,,,,,,,,,,,,,,,,,,,,,,,
,613ae6e178fbca0316c2b325,627c6f50503fb2cc574e4376,2022-05-11_21h25.35.374,classification_task,2021.2.3,MacIntel,59.99880002,627c6715c52fd12f31907bd0,,,,,,,,,,,,,,,,,,,,,,,a,0,"[""0.136"",""0.339"",""0.468"",""0.602""]","[1,1,1,0]",0,62,62,62,1,1,0,,,1,FALSE,1.1808,,,,,,,,,,,,,,,,,,,,,,,,,,,,,,,
,613ae6e178fbca0316c2b325,627c6f50503fb2cc574e4376,2022-05-11_21h25.35.374,classification_task,2021.2.3,MacIntel,59.99880002,627c6715c52fd12f31907bd0,,,,,,,,,,,,,,,,,,,,,,,l,1,"[""0.136"",""0.027"",""0.468"",""0.693""]","[1,0,1,1]",0,63,63,63,1,1,0,,,1,FALSE,2.8039,,,,,,,,,,,,,,,,,,,,,,,,,,,,,,,
,613ae6e178fbca0316c2b325,627c6f50503fb2cc574e4376,2022-05-11_21h25.35.374,classification_task,2021.2.3,MacIntel,59.99880002,627c6715c52fd12f31907bd0,,,,,,,,,,,,,,,,,,,,,,,,,,,,,,,,,,,,,,,0, ,,0,5.732680225,612.9514,0,2,2,2,1,2,3,,,,,,,,,,,,,,,,,,
,613ae6e178fbca0316c2b325,627c6f50503fb2cc574e4376,2022-05-11_21h25.35.374,classification_task,2021.2.3,MacIntel,59.99880002,627c6715c52fd12f31907bd0,,,,,,,,,,,,,,,,,,,,,,,,,,,,,,,,,,,,,,,1,  ,,0,8.088716196,621.2756,0,2,2,2,1,2,3,,,,,,,,,,,,,,,,,,
,613ae6e178fbca0316c2b325,627c6f50503fb2cc574e4376,2022-05-11_21h25.35.374,classification_task,2021.2.3,MacIntel,59.99880002,627c6715c52fd12f31907bd0,,,,,,,,,,,,,,,,,,,,,,,,,,,,,,,,,,,,,,,2,  ,,0,8.248433826,625.4079,0,2,2,2,1,2,3,,,,,,,,,,,,,,,,,,
,613ae6e178fbca0316c2b325,627c6f50503fb2cc574e4376,2022-05-11_21h25.35.374,classification_task,2021.2.3,MacIntel,59.99880002,627c6715c52fd12f31907bd0,,,,,,,,,,,,,,,,,,,,,,,,,,,,,,,,,,,,,,,,,,,,,0,2,2,2,1,,3,,,,,,,,,,,,,,,,,,
,613ae6e178fbca0316c2b325,627c6f50503fb2cc574e4376,2022-05-11_21h25.35.374,classification_task,2021.2.3,MacIntel,59.99880002,627c6715c52fd12f31907bd0,,,,,,,,,,,,,,,,,,,,,,,,,,,,,,,,,,,,,,,,,,,,,,,,,,,,,I believe the aid is a competent performer,,0.7,0,5,1392.0426,0,0,0,0,1,0,,,,,
,613ae6e178fbca0316c2b325,627c6f50503fb2cc574e4376,2022-05-11_21h25.35.374,classification_task,2021.2.3,MacIntel,59.99880002,627c6715c52fd12f31907bd0,,,,,,,,,,,,,,,,,,,,,,,,,,,,,,,,,,,,,,,,,,,,,,,,,,,,,I trust the aid,,0.7,0,5,1392.9789,0,0,0,0,1,0,,,,,
,613ae6e178fbca0316c2b325,627c6f50503fb2cc574e4376,2022-05-11_21h25.35.374,classification_task,2021.2.3,MacIntel,59.99880002,627c6715c52fd12f31907bd0,,,,,,,,,,,,,,,,,,,,,,,,,,,,,,,,,,,,,,,,,,,,,,,,,,,,,I have confidence in the advice given by the aid,,0.7,0,5,1394.8606,0,0,0,0,1,0,,,,,
,613ae6e178fbca0316c2b325,627c6f50503fb2cc574e4376,2022-05-11_21h25.35.374,classification_task,2021.2.3,MacIntel,59.99880002,627c6715c52fd12f31907bd0,,,,,,,,,,,,,,,,,,,,,,,,,,,,,,,,,,,,,,,,,,,,,,,,,,,,,I can depend on the aid,,0.7,0,5,1398.22,0,0,0,0,1,0,,,,,
,613ae6e178fbca0316c2b325,627c6f50503fb2cc574e4376,2022-05-11_21h25.35.374,classification_task,2021.2.3,MacIntel,59.99880002,627c6715c52fd12f31907bd0,,,,,,,,,,,,,,,,,,,,,,,,,,,,,,,,,,,,,,,,,,,,,,,,,,,,,I can rely on the aid to behave in consistent ways,,0.7,0,5,1400.6108,0,0,0,0,1,0,,,,,
,613ae6e178fbca0316c2b325,627c6f50503fb2cc574e4376,2022-05-11_21h25.35.374,classification_task,2021.2.3,MacIntel,59.99880002,627c6715c52fd12f31907bd0,,,,,,,,,,,,,,,,,,,,,,,,,,,,,,,,,,,,,,,,,,,,,,,,,,,,,I can rely on the aid to do its best every time I take its advice,,0.7,0,5,1403.9772,0,0,0,0,1,0,,,,,
,613ae6e178fbca0316c2b325,627c6f50503fb2cc574e4376,2022-05-11_21h25.35.374,classification_task,2021.2.3,MacIntel,59.99880002,627c6715c52fd12f31907bd0,,,,,,,,,,,,,,,,,,,,,,,,,,,,,,,,,,,,,,,,,,,,,,,,,,,,,"On trials you completed with assistance from the aid, how frequently did you think the aid was correct?",,0.7,0,100%,,0,0,0,0,1,0,,,,,
,613ae6e178fbca0316c2b325,627c6f50503fb2cc574e4376,2022-05-11_21h25.35.374,classification_task,2021.2.3,MacIntel,59.99880002,627c6715c52fd12f31907bd0,,,,,,,,,,,,,,,,,,,,,,,,,,,,,,,,,,,,,,,,,,,,,,,,,,,,,"On trials you completed without the aid, how frequently did you think you were correct?",,0.7,0,30%,,0,0,0,0,1,0,,,,,
,613ae6e178fbca0316c2b325,627c6f50503fb2cc574e4376,2022-05-11_21h25.35.374,classification_task,2021.2.3,MacIntel,59.99880002,627c6715c52fd12f31907bd0,,,,,,,,,,,,,,,,,,,,,,,,,,,,,,,,,,,,,,,,,,,,,,,,,,,,,,,,,,,0,0,0,0,1,,,,,,
,613ae6e178fbca0316c2b325,627c6f50503fb2cc574e4376,2022-05-11_21h25.35.374,classification_task,2021.2.3,MacIntel,59.99880002,627c6715c52fd12f31907bd0,,,,,,,,,,,,,,,,,,,,,,,,,,,,,,,,,,,,,,,,,,,,,,,,,,,,,,,,,,,,,,,,,space,18.985,1439.4793,,
,613ae6e178fbca0316c2b325,627c6f50503fb2cc574e4376,2022-05-11_21h25.35.374,classification_task,2021.2.3,MacIntel,59.99880002,627c6715c52fd12f31907bd0,,,,,,,,,,,,,,,,,,,,,,,,,,,,,,,,,,,,,,,,,,,,,,,,,,,,,,,,,,,,,,,,,,,,"Mozilla/5.0 (Macintosh; Intel Mac OS X 10_15_7) AppleWebKit/537.36 (KHTML, like Gecko) Chrome/101.0.4951.54 Safari/537.36",
,613ae6e178fbca0316c2b325,627c6f50503fb2cc574e4376,2022-05-11_21h25.35.374,classification_task,2021.2.3,MacIntel,59.99880002,627c6715c52fd12f31907bd0,,,,,,,,,,,,,,,,,,,,,,,,,,,,,,,,,,,,,,,,,,,,,,,,,,,,,,,,,,,,,,,,,,,,,HIGHLIGHT
