usingWebGL,participant,session,date,expName,psychopyVersion,OS,frameRate,study_id,signatures_friend,signatures_foe,band_ranges_top,band_ranges_bottom,formitemText,formtype,formundefined,formitemWidth,formindex,formresponse,formrt,key_resp_2.keys,key_resp_2.rt,tute_resp.keys,tute_resp.rt,tutorial.thisRepN,tutorial.thisTrialN,tutorial.thisN,tutorial.thisIndex,tutorial.ran,key_resp_4.keys,key_resp_4.rt,key_resp.keys,key_resp.corr,lines_presented,is_signal_presented,trials.thisRepN,trials.thisTrialN,trials.thisN,trials.thisIndex,trials.ran,vessel,active_band,lines,is_signal,supported_pos,catch_trial,key_resp.rt,debrief_formindex,debrief_formitemText,debrief_formtype,debrief_formitemWidth,debrief_formresponse,debrief_formrt,phases.thisRepN,phases.thisTrialN,phases.thisN,phases.thisIndex,phases.ran,phases.order,phase,key_resp_3.keys,trustitemText,trusttype,trustitemWidth,trustindex,trustresponse,trustrt,support_status.thisRepN,support_status.thisTrialN,support_status.thisN,support_status.thisIndex,support_status.ran,support_status.order,key_resp_5.keys,key_resp_5.rt,globalClockTime,userAgent,manualCondition
TRUE,613a9b39928d81d5ce5a3f7c,627c6f14ee332063830f24ac,2022-05-11_21h21.41.994,classification_task,2021.2.3,Win32,40.01440519,627c6715c52fd12f31907bd0,,,,,,,,,,,,,,,,,,,,,,,,,,,,,,,,,,,,,,,,,,,,,,,,,,,,,,,,,,,,,,,,,,,,,
,613a9b39928d81d5ce5a3f7c,627c6f14ee332063830f24ac,2022-05-11_21h21.41.994,classification_task,2021.2.3,Win32,40.01440519,627c6715c52fd12f31907bd0,"[[""0.319"",""0.417"",""0.911"",""0.946""],[""0.266"",""0.455"",""0.732"",""0.876""]]","[[""0.039"",""0.373"",""0.523"",""0.674""],[""0.131"",""0.205"",""0.569"",""0.788""]]","[1,10]","[100,1000]",Video game experience,,,0.7,0,,,,,,,,,,,,,,,,,,,,,,,,,,,,,,,,,,,,,,,,,,,,,,,,,,,,,,,,,,,,
,613a9b39928d81d5ce5a3f7c,627c6f14ee332063830f24ac,2022-05-11_21h21.41.994,classification_task,2021.2.3,Win32,40.01440519,627c6715c52fd12f31907bd0,,,,,Approximately how many hours did you spend playing video games in the last week?,,,0.7,0,8,,,,,,,,,,,,,,,,,,,,,,,,,,,,,,,,,,,,,,,,,,,,,,,,,,,,,,,,,,,
,613a9b39928d81d5ce5a3f7c,627c6f14ee332063830f24ac,2022-05-11_21h21.41.994,classification_task,2021.2.3,Win32,40.01440519,627c6715c52fd12f31907bd0,,,,,"Which game did you play the most this year? (Enter ""None"" if you didn't play any)",,,0.7,0,halo ,,,,,,,,,,,,,,,,,,,,,,,,,,,,,,,,,,,,,,,,,,,,,,,,,,,,,,,,,,,
,613a9b39928d81d5ce5a3f7c,627c6f14ee332063830f24ac,2022-05-11_21h21.41.994,classification_task,2021.2.3,Win32,40.01440519,627c6715c52fd12f31907bd0,,,,,Visual perception,,,0.7,0,,,,,,,,,,,,,,,,,,,,,,,,,,,,,,,,,,,,,,,,,,,,,,,,,,,,,,,,,,,,
,613a9b39928d81d5ce5a3f7c,627c6f14ee332063830f24ac,2022-05-11_21h21.41.994,classification_task,2021.2.3,Win32,40.01440519,627c6715c52fd12f31907bd0,,,,,Do you have any form of color blindness?,,,0.7,0,No,18.7076,,,,,,,,,,,,,,,,,,,,,,,,,,,,,,,,,,,,,,,,,,,,,,,,,,,,,,,,,,
,613a9b39928d81d5ce5a3f7c,627c6f14ee332063830f24ac,2022-05-11_21h21.41.994,classification_task,2021.2.3,Win32,40.01440519,627c6715c52fd12f31907bd0,,,,,Do you use software to change the colour temperature of your screen (e.g. f.lux)?,,,0.7,0,No,21.9077,,,,,,,,,,,,,,,,,,,,,,,,,,,,,,,,,,,,,,,,,,,,,,,,,,,,,,,,,,
,613a9b39928d81d5ce5a3f7c,627c6f14ee332063830f24ac,2022-05-11_21h21.41.994,classification_task,2021.2.3,Win32,40.01440519,627c6715c52fd12f31907bd0,,,,,,,,,,,,space,2.2226,space,9.6346,0,0,0,0,1,,,,,,,,,,,,,,,,,,,,,,,,,,,,,,,,,,,,,,,,,,,,,,,,,
,613a9b39928d81d5ce5a3f7c,627c6f14ee332063830f24ac,2022-05-11_21h21.41.994,classification_task,2021.2.3,Win32,40.01440519,627c6715c52fd12f31907bd0,,,,,,,,,,,,,,space,12.3143,1,0,1,0,1,,,,,,,,,,,,,,,,,,,,,,,,,,,,,,,,,,,,,,,,,,,,,,,,,
,613a9b39928d81d5ce5a3f7c,627c6f14ee332063830f24ac,2022-05-11_21h21.41.994,classification_task,2021.2.3,Win32,40.01440519,627c6715c52fd12f31907bd0,,,,,,,,,,,,,,space,13.4849,2,0,2,0,1,,,,,,,,,,,,,,,,,,,,,,,,,,,,,,,,,,,,,,,,,,,,,,,,,
,613a9b39928d81d5ce5a3f7c,627c6f14ee332063830f24ac,2022-05-11_21h21.41.994,classification_task,2021.2.3,Win32,40.01440519,627c6715c52fd12f31907bd0,,,,,,,,,,,,,,space,10.4938,3,0,3,0,1,,,,,,,,,,,,,,,,,,,,,,,,,,,,,,,,,,,,,,,,,,,,,,,,,
,613a9b39928d81d5ce5a3f7c,627c6f14ee332063830f24ac,2022-05-11_21h21.41.994,classification_task,2021.2.3,Win32,40.01440519,627c6715c52fd12f31907bd0,,,,,,,,,,,,,,space,20.1406,4,0,4,0,1,,,,,,,,,,,,,,,,,,,,,,,,,,,,,,,,,,,,,,,,,,,,,,,,,
,613a9b39928d81d5ce5a3f7c,627c6f14ee332063830f24ac,2022-05-11_21h21.41.994,classification_task,2021.2.3,Win32,40.01440519,627c6715c52fd12f31907bd0,,,,,,,,,,,,,,,,,,,,,space,19.4306,,0,"[""0.319"",""0.417"",""0.625"",""0.946""]","[1,1,0,1]",0,0,0,0,1,0,0,,,0,FALSE,,,,,,,,,,,,,,,,,,,,,,,,,,,,,,,,
,613a9b39928d81d5ce5a3f7c,627c6f14ee332063830f24ac,2022-05-11_21h21.41.994,classification_task,2021.2.3,Win32,40.01440519,627c6715c52fd12f31907bd0,,,,,,,,,,,,,,,,,,,,,,,l,0,"[""0.266"",""0.455"",""0.732"",""0.839""]","[1,1,1,0]",0,1,1,1,1,0,1,,,0,FALSE,2.7644,,,,,,,,,,,,,,,,,,,,,,,,,,,,,,,
,613a9b39928d81d5ce5a3f7c,627c6f14ee332063830f24ac,2022-05-11_21h21.41.994,classification_task,2021.2.3,Win32,40.01440519,627c6715c52fd12f31907bd0,,,,,,,,,,,,,,,,,,,,,,,l,1,"[""0.837"",""0.373"",""0.523"",""0.674""]","[0,1,1,1]",0,2,2,2,1,1,0,,,0,FALSE,2.3932,,,,,,,,,,,,,,,,,,,,,,,,,,,,,,,
,613a9b39928d81d5ce5a3f7c,627c6f14ee332063830f24ac,2022-05-11_21h21.41.994,classification_task,2021.2.3,Win32,40.01440519,627c6715c52fd12f31907bd0,,,,,,,,,,,,,,,,,,,,,,,a,0,"[""0.039"",""0.167"",""0.523"",""0.674""]","[1,0,1,1]",0,3,3,3,1,1,0,,,0,FALSE,2.0036,,,,,,,,,,,,,,,,,,,,,,,,,,,,,,,
,613a9b39928d81d5ce5a3f7c,627c6f14ee332063830f24ac,2022-05-11_21h21.41.994,classification_task,2021.2.3,Win32,40.01440519,627c6715c52fd12f31907bd0,,,,,,,,,,,,,,,,,,,,,,,a,1,"[""0.091"",""0.417"",""0.911"",""0.946""]","[0,1,1,1]",0,4,4,4,1,0,0,,,0,FALSE,3.4041,,,,,,,,,,,,,,,,,,,,,,,,,,,,,,,
,613a9b39928d81d5ce5a3f7c,627c6f14ee332063830f24ac,2022-05-11_21h21.41.994,classification_task,2021.2.3,Win32,40.01440519,627c6715c52fd12f31907bd0,,,,,,,,,,,,,,,,,,,,,,,a,1,"[""0.266"",""0.629"",""0.732"",""0.876""]","[1,0,1,1]",0,5,5,5,1,0,1,,,0,FALSE,2.6416,,,,,,,,,,,,,,,,,,,,,,,,,,,,,,,
,613a9b39928d81d5ce5a3f7c,627c6f14ee332063830f24ac,2022-05-11_21h21.41.994,classification_task,2021.2.3,Win32,40.01440519,627c6715c52fd12f31907bd0,,,,,,,,,,,,,,,,,,,,,,,l,0,"[""0.319"",""0.095"",""0.911"",""0.946""]","[1,0,1,1]",0,6,6,6,1,0,0,,,0,FALSE,2.2178,,,,,,,,,,,,,,,,,,,,,,,,,,,,,,,
,613a9b39928d81d5ce5a3f7c,627c6f14ee332063830f24ac,2022-05-11_21h21.41.994,classification_task,2021.2.3,Win32,40.01440519,627c6715c52fd12f31907bd0,,,,,,,,,,,,,,,,,,,,,,,l,0,"[""0.629"",""0.455"",""0.732"",""0.876""]","[0,1,1,1]",0,7,7,7,1,0,1,,,0,FALSE,1.9267,,,,,,,,,,,,,,,,,,,,,,,,,,,,,,,
,613a9b39928d81d5ce5a3f7c,627c6f14ee332063830f24ac,2022-05-11_21h21.41.994,classification_task,2021.2.3,Win32,40.01440519,627c6715c52fd12f31907bd0,,,,,,,,,,,,,,,,,,,,,,,l,1,"[""0.131"",""0.075"",""0.569"",""0.788""]","[1,0,1,1]",0,8,8,8,1,1,1,,,0,FALSE,2.4078,,,,,,,,,,,,,,,,,,,,,,,,,,,,,,,
,613a9b39928d81d5ce5a3f7c,627c6f14ee332063830f24ac,2022-05-11_21h21.41.994,classification_task,2021.2.3,Win32,40.01440519,627c6715c52fd12f31907bd0,,,,,,,,,,,,,,,,,,,,,,,a,0,"[""0.131"",""0.205"",""0.626"",""0.788""]","[1,1,0,1]",0,9,9,9,1,1,1,,,0,FALSE,7.3483,,,,,,,,,,,,,,,,,,,,,,,,,,,,,,,
,613a9b39928d81d5ce5a3f7c,627c6f14ee332063830f24ac,2022-05-11_21h21.41.994,classification_task,2021.2.3,Win32,40.01440519,627c6715c52fd12f31907bd0,,,,,,,,,,,,,,,,,,,,,,,l,1,"[""0.039"",""0.373"",""0.523"",""0.838""]","[1,1,1,0]",0,10,10,10,1,1,0,,,0,FALSE,5.3662,,,,,,,,,,,,,,,,,,,,,,,,,,,,,,,
,613a9b39928d81d5ce5a3f7c,627c6f14ee332063830f24ac,2022-05-11_21h21.41.994,classification_task,2021.2.3,Win32,40.01440519,627c6715c52fd12f31907bd0,,,,,,,,,,,,,,,,,,,,,,,a,0,"[""0.131"",""0.205"",""0.569"",""0.839""]","[1,1,1,0]",0,11,11,11,1,1,1,,,0,FALSE,2.7272,,,,,,,,,,,,,,,,,,,,,,,,,,,,,,,
,613a9b39928d81d5ce5a3f7c,627c6f14ee332063830f24ac,2022-05-11_21h21.41.994,classification_task,2021.2.3,Win32,40.01440519,627c6715c52fd12f31907bd0,,,,,,,,,,,,,,,,,,,,,,,l,1,"[""0.039"",""0.373"",""0.839"",""0.674""]","[1,1,0,1]",0,12,12,12,1,1,0,,,0,FALSE,6.289,,,,,,,,,,,,,,,,,,,,,,,,,,,,,,,
,613a9b39928d81d5ce5a3f7c,627c6f14ee332063830f24ac,2022-05-11_21h21.41.994,classification_task,2021.2.3,Win32,40.01440519,627c6715c52fd12f31907bd0,,,,,,,,,,,,,,,,,,,,,,,a,1,"[""0.319"",""0.417"",""0.911"",""0.622""]","[1,1,1,0]",0,13,13,13,1,0,0,,,0,FALSE,3.2717,,,,,,,,,,,,,,,,,,,,,,,,,,,,,,,
,613a9b39928d81d5ce5a3f7c,627c6f14ee332063830f24ac,2022-05-11_21h21.41.994,classification_task,2021.2.3,Win32,40.01440519,627c6715c52fd12f31907bd0,,,,,,,,,,,,,,,,,,,,,,,l,0,"[""0.266"",""0.455"",""0.091"",""0.876""]","[1,1,0,1]",0,14,14,14,1,0,1,,,0,FALSE,6.7714,,,,,,,,,,,,,,,,,,,,,,,,,,,,,,,
,613a9b39928d81d5ce5a3f7c,627c6f14ee332063830f24ac,2022-05-11_21h21.41.994,classification_task,2021.2.3,Win32,40.01440519,627c6715c52fd12f31907bd0,,,,,,,,,,,,,,,,,,,,,,,a,0,"[""0.839"",""0.205"",""0.569"",""0.788""]","[0,1,1,1]",0,15,15,15,1,1,1,,,0,FALSE,2.3019,,,,,,,,,,,,,,,,,,,,,,,,,,,,,,,
,613a9b39928d81d5ce5a3f7c,627c6f14ee332063830f24ac,2022-05-11_21h21.41.994,classification_task,2021.2.3,Win32,40.01440519,627c6715c52fd12f31907bd0,,,,,,,,,,,,,,,,,,,,,,,l,1,"[""0.131"",""0.205"",""0.569"",""0.838""]","[1,1,1,0]",0,16,16,16,1,1,1,,,0,FALSE,2.8017,,,,,,,,,,,,,,,,,,,,,,,,,,,,,,,
,613a9b39928d81d5ce5a3f7c,627c6f14ee332063830f24ac,2022-05-11_21h21.41.994,classification_task,2021.2.3,Win32,40.01440519,627c6715c52fd12f31907bd0,,,,,,,,,,,,,,,,,,,,,,,l,1,"[""0.039"",""0.373"",""0.839"",""0.674""]","[1,1,0,1]",0,17,17,17,1,1,0,,,0,FALSE,3.0485,,,,,,,,,,,,,,,,,,,,,,,,,,,,,,,
,613a9b39928d81d5ce5a3f7c,627c6f14ee332063830f24ac,2022-05-11_21h21.41.994,classification_task,2021.2.3,Win32,40.01440519,627c6715c52fd12f31907bd0,,,,,,,,,,,,,,,,,,,,,,,a,1,"[""0.266"",""0.455"",""0.622"",""0.876""]","[1,1,0,1]",0,18,18,18,1,0,1,,,0,FALSE,3.92,,,,,,,,,,,,,,,,,,,,,,,,,,,,,,,
,613a9b39928d81d5ce5a3f7c,627c6f14ee332063830f24ac,2022-05-11_21h21.41.994,classification_task,2021.2.3,Win32,40.01440519,627c6715c52fd12f31907bd0,,,,,,,,,,,,,,,,,,,,,,,a,0,"[""0.131"",""0.205"",""0.075"",""0.788""]","[1,1,0,1]",0,19,19,19,1,1,1,,,0,FALSE,4.078,,,,,,,,,,,,,,,,,,,,,,,,,,,,,,,
,613a9b39928d81d5ce5a3f7c,627c6f14ee332063830f24ac,2022-05-11_21h21.41.994,classification_task,2021.2.3,Win32,40.01440519,627c6715c52fd12f31907bd0,,,,,,,,,,,,,,,,,,,,,,,l,1,"[""0.131"",""0.829"",""0.569"",""0.788""]","[1,0,1,1]",0,20,20,20,1,1,1,,,0,FALSE,2.3774,,,,,,,,,,,,,,,,,,,,,,,,,,,,,,,
,613a9b39928d81d5ce5a3f7c,627c6f14ee332063830f24ac,2022-05-11_21h21.41.994,classification_task,2021.2.3,Win32,40.01440519,627c6715c52fd12f31907bd0,,,,,,,,,,,,,,,,,,,,,,,l,1,"[""0.039"",""0.373"",""0.523"",""0.629""]","[1,1,1,0]",0,21,21,21,1,1,0,,,0,FALSE,2.212,,,,,,,,,,,,,,,,,,,,,,,,,,,,,,,
,613a9b39928d81d5ce5a3f7c,627c6f14ee332063830f24ac,2022-05-11_21h21.41.994,classification_task,2021.2.3,Win32,40.01440519,627c6715c52fd12f31907bd0,,,,,,,,,,,,,,,,,,,,,,,l,1,"[""0.625"",""0.373"",""0.523"",""0.674""]","[0,1,1,1]",0,22,22,22,1,1,0,,,0,FALSE,3.1205,,,,,,,,,,,,,,,,,,,,,,,,,,,,,,,
,613a9b39928d81d5ce5a3f7c,627c6f14ee332063830f24ac,2022-05-11_21h21.41.994,classification_task,2021.2.3,Win32,40.01440519,627c6715c52fd12f31907bd0,,,,,,,,,,,,,,,,,,,,,,,l,1,"[""0.622"",""0.205"",""0.569"",""0.788""]","[0,1,1,1]",0,23,23,23,1,1,1,,,0,FALSE,5.8662,,,,,,,,,,,,,,,,,,,,,,,,,,,,,,,
,613a9b39928d81d5ce5a3f7c,627c6f14ee332063830f24ac,2022-05-11_21h21.41.994,classification_task,2021.2.3,Win32,40.01440519,627c6715c52fd12f31907bd0,,,,,,,,,,,,,,,,,,,,,,,l,1,"[""0.039"",""0.622"",""0.523"",""0.674""]","[1,0,1,1]",0,24,24,24,1,1,0,,,0,FALSE,8.2617,,,,,,,,,,,,,,,,,,,,,,,,,,,,,,,
,613a9b39928d81d5ce5a3f7c,627c6f14ee332063830f24ac,2022-05-11_21h21.41.994,classification_task,2021.2.3,Win32,40.01440519,627c6715c52fd12f31907bd0,,,,,,,,,,,,,,,,,,,,,,,a,1,"[""0.319"",""0.417"",""0.911"",""0.091""]","[1,1,1,0]",0,25,25,25,1,0,0,,,0,FALSE,6.5959,,,,,,,,,,,,,,,,,,,,,,,,,,,,,,,
,613a9b39928d81d5ce5a3f7c,627c6f14ee332063830f24ac,2022-05-11_21h21.41.994,classification_task,2021.2.3,Win32,40.01440519,627c6715c52fd12f31907bd0,,,,,,,,,,,,,,,,,,,,,,,a,1,"[""0.319"",""0.839"",""0.911"",""0.946""]","[1,0,1,1]",0,26,26,26,1,0,0,,,0,FALSE,4.3991,,,,,,,,,,,,,,,,,,,,,,,,,,,,,,,
,613a9b39928d81d5ce5a3f7c,627c6f14ee332063830f24ac,2022-05-11_21h21.41.994,classification_task,2021.2.3,Win32,40.01440519,627c6715c52fd12f31907bd0,,,,,,,,,,,,,,,,,,,,,,,a,1,"[""0.622"",""0.455"",""0.732"",""0.876""]","[0,1,1,1]",0,27,27,27,1,0,1,,,0,FALSE,4.1935,,,,,,,,,,,,,,,,,,,,,,,,,,,,,,,
,613a9b39928d81d5ce5a3f7c,627c6f14ee332063830f24ac,2022-05-11_21h21.41.994,classification_task,2021.2.3,Win32,40.01440519,627c6715c52fd12f31907bd0,,,,,,,,,,,,,,,,,,,,,,,l,0,"[""0.319"",""0.417"",""0.829"",""0.946""]","[1,1,0,1]",0,28,28,28,1,0,0,,,0,FALSE,6.6893,,,,,,,,,,,,,,,,,,,,,,,,,,,,,,,
,613a9b39928d81d5ce5a3f7c,627c6f14ee332063830f24ac,2022-05-11_21h21.41.994,classification_task,2021.2.3,Win32,40.01440519,627c6715c52fd12f31907bd0,,,,,,,,,,,,,,,,,,,,,,,a,1,"[""0.266"",""0.455"",""0.732"",""0.095""]","[1,1,1,0]",0,29,29,29,1,0,1,,,0,FALSE,1.8706,,,,,,,,,,,,,,,,,,,,,,,,,,,,,,,
,613a9b39928d81d5ce5a3f7c,627c6f14ee332063830f24ac,2022-05-11_21h21.41.994,classification_task,2021.2.3,Win32,40.01440519,627c6715c52fd12f31907bd0,,,,,,,,,,,,,,,,,,,,,,,a,1,"[""0.266"",""0.075"",""0.732"",""0.876""]","[1,0,1,1]",0,30,30,30,1,0,1,,,0,FALSE,2.2777,,,,,,,,,,,,,,,,,,,,,,,,,,,,,,,
,613a9b39928d81d5ce5a3f7c,627c6f14ee332063830f24ac,2022-05-11_21h21.41.994,classification_task,2021.2.3,Win32,40.01440519,627c6715c52fd12f31907bd0,,,,,,,,,,,,,,,,,,,,,,,a,1,"[""0.829"",""0.417"",""0.911"",""0.946""]","[0,1,1,1]",0,31,31,31,1,0,0,,,0,FALSE,5.1398,,,,,,,,,,,,,,,,,,,,,,,,,,,,,,,
,613a9b39928d81d5ce5a3f7c,627c6f14ee332063830f24ac,2022-05-11_21h21.41.994,classification_task,2021.2.3,Win32,40.01440519,627c6715c52fd12f31907bd0,,,,,,,,,,,,,,,,,,,,,,,l,1,"[""0.039"",""0.373"",""0.626"",""0.674""]","[1,1,0,1]",0,32,32,32,1,1,0,,,0,FALSE,6.0186,,,,,,,,,,,,,,,,,,,,,,,,,,,,,,,
,613a9b39928d81d5ce5a3f7c,627c6f14ee332063830f24ac,2022-05-11_21h21.41.994,classification_task,2021.2.3,Win32,40.01440519,627c6715c52fd12f31907bd0,,,,,,,,,,,,,,,,,,,,,,,a,1,"[""0.319"",""0.620"",""0.911"",""0.946""]","[1,0,1,1]",0,33,33,33,1,0,0,,,0,FALSE,6.5786,,,,,,,,,,,,,,,,,,,,,,,,,,,,,,,
,613a9b39928d81d5ce5a3f7c,627c6f14ee332063830f24ac,2022-05-11_21h21.41.994,classification_task,2021.2.3,Win32,40.01440519,627c6715c52fd12f31907bd0,,,,,,,,,,,,,,,,,,,,,,,l,1,"[""0.039"",""0.373"",""0.523"",""0.629""]","[1,1,1,0]",0,34,34,34,1,1,0,,,0,FALSE,5.6098,,,,,,,,,,,,,,,,,,,,,,,,,,,,,,,
,613a9b39928d81d5ce5a3f7c,627c6f14ee332063830f24ac,2022-05-11_21h21.41.994,classification_task,2021.2.3,Win32,40.01440519,627c6715c52fd12f31907bd0,,,,,,,,,,,,,,,,,,,,,,,l,1,"[""0.039"",""0.620"",""0.523"",""0.674""]","[1,0,1,1]",0,35,35,35,1,1,0,,,0,FALSE,3.2114,,,,,,,,,,,,,,,,,,,,,,,,,,,,,,,
,613a9b39928d81d5ce5a3f7c,627c6f14ee332063830f24ac,2022-05-11_21h21.41.994,classification_task,2021.2.3,Win32,40.01440519,627c6715c52fd12f31907bd0,,,,,,,,,,,,,,,,,,,,,,,a,1,"[""0.266"",""0.455"",""0.091"",""0.876""]","[1,1,0,1]",0,36,36,36,1,0,1,,,0,FALSE,4.3511,,,,,,,,,,,,,,,,,,,,,,,,,,,,,,,
,613a9b39928d81d5ce5a3f7c,627c6f14ee332063830f24ac,2022-05-11_21h21.41.994,classification_task,2021.2.3,Win32,40.01440519,627c6715c52fd12f31907bd0,,,,,,,,,,,,,,,,,,,,,,,a,1,"[""0.319"",""0.417"",""0.622"",""0.946""]","[1,1,0,1]",0,37,37,37,1,0,0,,,0,FALSE,7.346,,,,,,,,,,,,,,,,,,,,,,,,,,,,,,,
,613a9b39928d81d5ce5a3f7c,627c6f14ee332063830f24ac,2022-05-11_21h21.41.994,classification_task,2021.2.3,Win32,40.01440519,627c6715c52fd12f31907bd0,,,,,,,,,,,,,,,,,,,,,,,l,1,"[""0.131"",""0.205"",""0.091"",""0.788""]","[1,1,0,1]",0,38,38,38,1,1,1,,,0,FALSE,6.2665,,,,,,,,,,,,,,,,,,,,,,,,,,,,,,,
,613a9b39928d81d5ce5a3f7c,627c6f14ee332063830f24ac,2022-05-11_21h21.41.994,classification_task,2021.2.3,Win32,40.01440519,627c6715c52fd12f31907bd0,,,,,,,,,,,,,,,,,,,,,,,l,0,"[""0.625"",""0.455"",""0.732"",""0.876""]","[0,1,1,1]",0,39,39,39,1,0,1,,,0,FALSE,3.9741,,,,,,,,,,,,,,,,,,,,,,,,,,,,,,,
,613a9b39928d81d5ce5a3f7c,627c6f14ee332063830f24ac,2022-05-11_21h21.41.994,classification_task,2021.2.3,Win32,40.01440519,627c6715c52fd12f31907bd0,,,,,,,,,,,,,,,,,,,,,,,l,1,"[""0.131"",""0.205"",""0.569"",""0.625""]","[1,1,1,0]",0,40,40,40,1,1,1,,,0,FALSE,3.3225,,,,,,,,,,,,,,,,,,,,,,,,,,,,,,,
,613a9b39928d81d5ce5a3f7c,627c6f14ee332063830f24ac,2022-05-11_21h21.41.994,classification_task,2021.2.3,Win32,40.01440519,627c6715c52fd12f31907bd0,,,,,,,,,,,,,,,,,,,,,,,l,0,"[""0.266"",""0.609"",""0.732"",""0.876""]","[1,0,1,1]",0,41,41,41,1,0,1,,,0,FALSE,2.6752,,,,,,,,,,,,,,,,,,,,,,,,,,,,,,,
,613a9b39928d81d5ce5a3f7c,627c6f14ee332063830f24ac,2022-05-11_21h21.41.994,classification_task,2021.2.3,Win32,40.01440519,627c6715c52fd12f31907bd0,,,,,,,,,,,,,,,,,,,,,,,l,1,"[""0.091"",""0.205"",""0.569"",""0.788""]","[0,1,1,1]",0,42,42,42,1,1,1,,,0,FALSE,1.8498,,,,,,,,,,,,,,,,,,,,,,,,,,,,,,,
,613a9b39928d81d5ce5a3f7c,627c6f14ee332063830f24ac,2022-05-11_21h21.41.994,classification_task,2021.2.3,Win32,40.01440519,627c6715c52fd12f31907bd0,,,,,,,,,,,,,,,,,,,,,,,a,0,"[""0.131"",""0.620"",""0.569"",""0.788""]","[1,0,1,1]",0,43,43,43,1,1,1,,,0,FALSE,0.9259,,,,,,,,,,,,,,,,,,,,,,,,,,,,,,,
,613a9b39928d81d5ce5a3f7c,627c6f14ee332063830f24ac,2022-05-11_21h21.41.994,classification_task,2021.2.3,Win32,40.01440519,627c6715c52fd12f31907bd0,,,,,,,,,,,,,,,,,,,,,,,a,0,"[""0.829"",""0.373"",""0.523"",""0.674""]","[0,1,1,1]",0,44,44,44,1,1,0,,,0,FALSE,1.4989,,,,,,,,,,,,,,,,,,,,,,,,,,,,,,,
,613a9b39928d81d5ce5a3f7c,627c6f14ee332063830f24ac,2022-05-11_21h21.41.994,classification_task,2021.2.3,Win32,40.01440519,627c6715c52fd12f31907bd0,,,,,,,,,,,,,,,,,,,,,,,l,0,"[""0.622"",""0.417"",""0.911"",""0.946""]","[0,1,1,1]",0,45,45,45,1,0,0,,,0,FALSE,1.5689,,,,,,,,,,,,,,,,,,,,,,,,,,,,,,,
,613a9b39928d81d5ce5a3f7c,627c6f14ee332063830f24ac,2022-05-11_21h21.41.994,classification_task,2021.2.3,Win32,40.01440519,627c6715c52fd12f31907bd0,,,,,,,,,,,,,,,,,,,,,,,l,0,"[""0.266"",""0.455"",""0.732"",""0.629""]","[1,1,1,0]",0,46,46,46,1,0,1,,,0,FALSE,0.8746,,,,,,,,,,,,,,,,,,,,,,,,,,,,,,,
,613a9b39928d81d5ce5a3f7c,627c6f14ee332063830f24ac,2022-05-11_21h21.41.994,classification_task,2021.2.3,Win32,40.01440519,627c6715c52fd12f31907bd0,,,,,,,,,,,,,,,,,,,,,,,a,1,"[""0.319"",""0.417"",""0.911"",""0.829""]","[1,1,1,0]",0,47,47,47,1,0,0,,,0,FALSE,1.202,,,,,,,,,,,,,,,,,,,,,,,,,,,,,,,
,613a9b39928d81d5ce5a3f7c,627c6f14ee332063830f24ac,2022-05-11_21h21.41.994,classification_task,2021.2.3,Win32,40.01440519,627c6715c52fd12f31907bd0,,,,,,,,,,,,,,,,,,,,,,,a,0,"[""0.131"",""0.205"",""0.837"",""0.788""]","[1,1,0,1]",0,48,48,48,1,1,1,,,0,FALSE,1.9492,,,,,,,,,,,,,,,,,,,,,,,,,,,,,,,
,613a9b39928d81d5ce5a3f7c,627c6f14ee332063830f24ac,2022-05-11_21h21.41.994,classification_task,2021.2.3,Win32,40.01440519,627c6715c52fd12f31907bd0,,,,,,,,,,,,,,,,,,,,,,,l,0,"[""0.319"",""0.609"",""0.911"",""0.946""]","[1,0,1,1]",0,49,49,49,1,0,0,,,0,FALSE,0.7502,,,,,,,,,,,,,,,,,,,,,,,,,,,,,,,
,613a9b39928d81d5ce5a3f7c,627c6f14ee332063830f24ac,2022-05-11_21h21.41.994,classification_task,2021.2.3,Win32,40.01440519,627c6715c52fd12f31907bd0,,,,,,,,,,,,,,,,,,,,,,,l,1,"[""0.039"",""0.373"",""0.629"",""0.674""]","[1,1,0,1]",0,50,50,50,1,1,0,,,0,FALSE,0.7248,,,,,,,,,,,,,,,,,,,,,,,,,,,,,,,
,613a9b39928d81d5ce5a3f7c,627c6f14ee332063830f24ac,2022-05-11_21h21.41.994,classification_task,2021.2.3,Win32,40.01440519,627c6715c52fd12f31907bd0,,,,,,,,,,,,,,,,,,,,,,,a,0,"[""0.131"",""0.205"",""0.569"",""0.622""]","[1,1,1,0]",0,51,51,51,1,1,1,,,0,FALSE,2.2759,,,,,,,,,,,,,,,,,,,,,,,,,,,,,,,
,613a9b39928d81d5ce5a3f7c,627c6f14ee332063830f24ac,2022-05-11_21h21.41.994,classification_task,2021.2.3,Win32,40.01440519,627c6715c52fd12f31907bd0,,,,,,,,,,,,,,,,,,,,,,,l,1,"[""0.039"",""0.167"",""0.523"",""0.674""]","[1,0,1,1]",0,52,52,52,1,1,0,,,0,FALSE,0.4716,,,,,,,,,,,,,,,,,,,,,,,,,,,,,,,
,613a9b39928d81d5ce5a3f7c,627c6f14ee332063830f24ac,2022-05-11_21h21.41.994,classification_task,2021.2.3,Win32,40.01440519,627c6715c52fd12f31907bd0,,,,,,,,,,,,,,,,,,,,,,,l,1,"[""0.039"",""0.373"",""0.523"",""0.622""]","[1,1,1,0]",0,53,53,53,1,1,0,,,0,FALSE,2.0014,,,,,,,,,,,,,,,,,,,,,,,,,,,,,,,
,613a9b39928d81d5ce5a3f7c,627c6f14ee332063830f24ac,2022-05-11_21h21.41.994,classification_task,2021.2.3,Win32,40.01440519,627c6715c52fd12f31907bd0,,,,,,,,,,,,,,,,,,,,,,,a,0,"[""0.607"",""0.205"",""0.569"",""0.788""]","[0,1,1,1]",0,54,54,54,1,1,1,,,0,FALSE,1.9491,,,,,,,,,,,,,,,,,,,,,,,,,,,,,,,
,613a9b39928d81d5ce5a3f7c,627c6f14ee332063830f24ac,2022-05-11_21h21.41.994,classification_task,2021.2.3,Win32,40.01440519,627c6715c52fd12f31907bd0,,,,,,,,,,,,,,,,,,,,,,,a,1,"[""0.266"",""0.455"",""0.622"",""0.876""]","[1,1,0,1]",0,55,55,55,1,0,1,,,0,FALSE,2.8934,,,,,,,,,,,,,,,,,,,,,,,,,,,,,,,
,613a9b39928d81d5ce5a3f7c,627c6f14ee332063830f24ac,2022-05-11_21h21.41.994,classification_task,2021.2.3,Win32,40.01440519,627c6715c52fd12f31907bd0,,,,,,,,,,,,,,,,,,,,,,,l,1,"[""0.131"",""0.091"",""0.569"",""0.788""]","[1,0,1,1]",0,56,56,56,1,1,1,,,0,FALSE,2.5224,,,,,,,,,,,,,,,,,,,,,,,,,,,,,,,
,613a9b39928d81d5ce5a3f7c,627c6f14ee332063830f24ac,2022-05-11_21h21.41.994,classification_task,2021.2.3,Win32,40.01440519,627c6715c52fd12f31907bd0,,,,,,,,,,,,,,,,,,,,,,,a,1,"[""0.319"",""0.417"",""0.075"",""0.946""]","[1,1,0,1]",0,57,57,57,1,0,0,,,0,FALSE,3.6507,,,,,,,,,,,,,,,,,,,,,,,,,,,,,,,
,613a9b39928d81d5ce5a3f7c,627c6f14ee332063830f24ac,2022-05-11_21h21.41.994,classification_task,2021.2.3,Win32,40.01440519,627c6715c52fd12f31907bd0,,,,,,,,,,,,,,,,,,,,,,,l,0,"[""0.626"",""0.455"",""0.732"",""0.876""]","[0,1,1,1]",0,58,58,58,1,0,1,,,0,FALSE,2.6984,,,,,,,,,,,,,,,,,,,,,,,,,,,,,,,
,613a9b39928d81d5ce5a3f7c,627c6f14ee332063830f24ac,2022-05-11_21h21.41.994,classification_task,2021.2.3,Win32,40.01440519,627c6715c52fd12f31907bd0,,,,,,,,,,,,,,,,,,,,,,,a,1,"[""0.626"",""0.417"",""0.911"",""0.946""]","[0,1,1,1]",0,59,59,59,1,0,0,,,0,FALSE,1.6204,,,,,,,,,,,,,,,,,,,,,,,,,,,,,,,
,613a9b39928d81d5ce5a3f7c,627c6f14ee332063830f24ac,2022-05-11_21h21.41.994,classification_task,2021.2.3,Win32,40.01440519,627c6715c52fd12f31907bd0,,,,,,,,,,,,,,,,,,,,,,,a,0,"[""0.167"",""0.373"",""0.523"",""0.674""]","[0,1,1,1]",0,60,60,60,1,1,0,,,0,FALSE,2.9981,,,,,,,,,,,,,,,,,,,,,,,,,,,,,,,
,613a9b39928d81d5ce5a3f7c,627c6f14ee332063830f24ac,2022-05-11_21h21.41.994,classification_task,2021.2.3,Win32,40.01440519,627c6715c52fd12f31907bd0,,,,,,,,,,,,,,,,,,,,,,,l,0,"[""0.266"",""0.095"",""0.732"",""0.876""]","[1,0,1,1]",0,61,61,61,1,0,1,,,0,FALSE,0.9233,,,,,,,,,,,,,,,,,,,,,,,,,,,,,,,
,613a9b39928d81d5ce5a3f7c,627c6f14ee332063830f24ac,2022-05-11_21h21.41.994,classification_task,2021.2.3,Win32,40.01440519,627c6715c52fd12f31907bd0,,,,,,,,,,,,,,,,,,,,,,,a,1,"[""0.266"",""0.455"",""0.732"",""0.167""]","[1,1,1,0]",0,62,62,62,1,0,1,,,0,FALSE,0.3511,,,,,,,,,,,,,,,,,,,,,,,,,,,,,,,
,613a9b39928d81d5ce5a3f7c,627c6f14ee332063830f24ac,2022-05-11_21h21.41.994,classification_task,2021.2.3,Win32,40.01440519,627c6715c52fd12f31907bd0,,,,,,,,,,,,,,,,,,,,,,,l,0,"[""0.319"",""0.417"",""0.911"",""0.607""]","[1,1,1,0]",0,63,63,63,1,0,0,,,0,FALSE,1.9258,,,,,,,,,,,,,,,,,,,,,,,,,,,,,,,
,613a9b39928d81d5ce5a3f7c,627c6f14ee332063830f24ac,2022-05-11_21h21.41.994,classification_task,2021.2.3,Win32,40.01440519,627c6715c52fd12f31907bd0,,,,,,,,,,,,,,,,,,,,,,,,,,,,,,,,,,,,,,,0, ,,0,2.912992357,406.135,0,0,0,0,1,2,1,,,,,,,,,,,,,,,,,,
,613a9b39928d81d5ce5a3f7c,627c6f14ee332063830f24ac,2022-05-11_21h21.41.994,classification_task,2021.2.3,Win32,40.01440519,627c6715c52fd12f31907bd0,,,,,,,,,,,,,,,,,,,,,,,,,,,,,,,,,,,,,,,1,  ,,0,10,418.6675,0,0,0,0,1,2,1,,,,,,,,,,,,,,,,,,
,613a9b39928d81d5ce5a3f7c,627c6f14ee332063830f24ac,2022-05-11_21h21.41.994,classification_task,2021.2.3,Win32,40.01440519,627c6715c52fd12f31907bd0,,,,,,,,,,,,,,,,,,,,,,,,,,,,,,,,,,,,,,,2,  ,,0,0,422.2321,0,0,0,0,1,2,1,,,,,,,,,,,,,,,,,,
,613a9b39928d81d5ce5a3f7c,627c6f14ee332063830f24ac,2022-05-11_21h21.41.994,classification_task,2021.2.3,Win32,40.01440519,627c6715c52fd12f31907bd0,,,,,,,,,,,,,,,,,,,,,,,,,,,,,,,,,,,,,,,,,,,,,0,0,0,0,1,,1,,,,,,,,,,,,,,,,,,
,613a9b39928d81d5ce5a3f7c,627c6f14ee332063830f24ac,2022-05-11_21h21.41.994,classification_task,2021.2.3,Win32,40.01440519,627c6715c52fd12f31907bd0,,,,,,,,,,,,,,,,,,,,,space,9.6395,,0,"[""0.039"",""0.373"",""0.523"",""0.829""]","[1,1,1,0]",0,0,0,0,1,1,0,,,0,FALSE,,,,,,,,,,,,,,,,,,,,,,,,,,,,,,,,
,613a9b39928d81d5ce5a3f7c,627c6f14ee332063830f24ac,2022-05-11_21h21.41.994,classification_task,2021.2.3,Win32,40.01440519,627c6715c52fd12f31907bd0,,,,,,,,,,,,,,,,,,,,,,,a,1,"[""0.091"",""0.417"",""0.911"",""0.946""]","[0,1,1,1]",0,1,1,1,1,0,0,,,0,FALSE,6.5024,,,,,,,,,,,,,,,,,,,,,,,,,,,,,,,
,613a9b39928d81d5ce5a3f7c,627c6f14ee332063830f24ac,2022-05-11_21h21.41.994,classification_task,2021.2.3,Win32,40.01440519,627c6715c52fd12f31907bd0,,,,,,,,,,,,,,,,,,,,,,,l,1,"[""0.039"",""0.607"",""0.523"",""0.674""]","[1,0,1,1]",0,2,2,2,1,1,0,,,0,FALSE,2.7444,,,,,,,,,,,,,,,,,,,,,,,,,,,,,,,
,613a9b39928d81d5ce5a3f7c,627c6f14ee332063830f24ac,2022-05-11_21h21.41.994,classification_task,2021.2.3,Win32,40.01440519,627c6715c52fd12f31907bd0,,,,,,,,,,,,,,,,,,,,,,,a,1,"[""0.319"",""0.417"",""0.911"",""0.075""]","[1,1,1,0]",0,3,3,3,1,0,0,,,0,FALSE,1.7437,,,,,,,,,,,,,,,,,,,,,,,,,,,,,,,
,613a9b39928d81d5ce5a3f7c,627c6f14ee332063830f24ac,2022-05-11_21h21.41.994,classification_task,2021.2.3,Win32,40.01440519,627c6715c52fd12f31907bd0,,,,,,,,,,,,,,,,,,,,,,,l,1,"[""0.131"",""0.205"",""0.839"",""0.788""]","[1,1,0,1]",0,4,4,4,1,1,1,,,0,FALSE,1.9441,,,,,,,,,,,,,,,,,,,,,,,,,,,,,,,
,613a9b39928d81d5ce5a3f7c,627c6f14ee332063830f24ac,2022-05-11_21h21.41.994,classification_task,2021.2.3,Win32,40.01440519,627c6715c52fd12f31907bd0,,,,,,,,,,,,,,,,,,,,,,,a,1,"[""0.319"",""0.417"",""0.075"",""0.946""]","[1,1,0,1]",0,5,5,5,1,0,0,,,0,FALSE,2.2212,,,,,,,,,,,,,,,,,,,,,,,,,,,,,,,
,613a9b39928d81d5ce5a3f7c,627c6f14ee332063830f24ac,2022-05-11_21h21.41.994,classification_task,2021.2.3,Win32,40.01440519,627c6715c52fd12f31907bd0,,,,,,,,,,,,,,,,,,,,,,,a,1,"[""0.266"",""0.455"",""0.629"",""0.876""]","[1,1,0,1]",0,6,6,6,1,0,1,,,0,FALSE,2.3202,,,,,,,,,,,,,,,,,,,,,,,,,,,,,,,
,613a9b39928d81d5ce5a3f7c,627c6f14ee332063830f24ac,2022-05-11_21h21.41.994,classification_task,2021.2.3,Win32,40.01440519,627c6715c52fd12f31907bd0,,,,,,,,,,,,,,,,,,,,,,,l,1,"[""0.829"",""0.205"",""0.569"",""0.788""]","[0,1,1,1]",0,7,7,7,1,1,1,,,0,FALSE,1.3253,,,,,,,,,,,,,,,,,,,,,,,,,,,,,,,
,613a9b39928d81d5ce5a3f7c,627c6f14ee332063830f24ac,2022-05-11_21h21.41.994,classification_task,2021.2.3,Win32,40.01440519,627c6715c52fd12f31907bd0,,,,,,,,,,,,,,,,,,,,,,,a,1,"[""0.266"",""0.075"",""0.732"",""0.876""]","[1,0,1,1]",0,8,8,8,1,0,1,,,0,FALSE,1.1721,,,,,,,,,,,,,,,,,,,,,,,,,,,,,,,
,613a9b39928d81d5ce5a3f7c,627c6f14ee332063830f24ac,2022-05-11_21h21.41.994,classification_task,2021.2.3,Win32,40.01440519,627c6715c52fd12f31907bd0,,,,,,,,,,,,,,,,,,,,,,,a,1,"[""0.075"",""0.455"",""0.732"",""0.876""]","[0,1,1,1]",0,9,9,9,1,0,1,,,0,FALSE,1.2002,,,,,,,,,,,,,,,,,,,,,,,,,,,,,,,
,613a9b39928d81d5ce5a3f7c,627c6f14ee332063830f24ac,2022-05-11_21h21.41.994,classification_task,2021.2.3,Win32,40.01440519,627c6715c52fd12f31907bd0,,,,,,,,,,,,,,,,,,,,,,,l,1,"[""0.131"",""0.622"",""0.569"",""0.788""]","[1,0,1,1]",0,10,10,10,1,1,1,,,0,FALSE,1.1244,,,,,,,,,,,,,,,,,,,,,,,,,,,,,,,
,613a9b39928d81d5ce5a3f7c,627c6f14ee332063830f24ac,2022-05-11_21h21.41.994,classification_task,2021.2.3,Win32,40.01440519,627c6715c52fd12f31907bd0,,,,,,,,,,,,,,,,,,,,,,,l,1,"[""0.039"",""0.373"",""0.629"",""0.674""]","[1,1,0,1]",0,11,11,11,1,1,0,,,0,FALSE,2.9681,,,,,,,,,,,,,,,,,,,,,,,,,,,,,,,
,613a9b39928d81d5ce5a3f7c,627c6f14ee332063830f24ac,2022-05-11_21h21.41.994,classification_task,2021.2.3,Win32,40.01440519,627c6715c52fd12f31907bd0,,,,,,,,,,,,,,,,,,,,,,,a,1,"[""0.319"",""0.620"",""0.911"",""0.946""]","[1,0,1,1]",0,12,12,12,1,0,0,,,0,FALSE,1.7176,,,,,,,,,,,,,,,,,,,,,,,,,,,,,,,
,613a9b39928d81d5ce5a3f7c,627c6f14ee332063830f24ac,2022-05-11_21h21.41.994,classification_task,2021.2.3,Win32,40.01440519,627c6715c52fd12f31907bd0,,,,,,,,,,,,,,,,,,,,,,,l,1,"[""0.607"",""0.373"",""0.523"",""0.674""]","[0,1,1,1]",0,13,13,13,1,1,0,,,0,FALSE,4.1247,,,,,,,,,,,,,,,,,,,,,,,,,,,,,,,
,613a9b39928d81d5ce5a3f7c,627c6f14ee332063830f24ac,2022-05-11_21h21.41.994,classification_task,2021.2.3,Win32,40.01440519,627c6715c52fd12f31907bd0,,,,,,,,,,,,,,,,,,,,,,,a,1,"[""0.266"",""0.455"",""0.732"",""0.626""]","[1,1,1,0]",0,14,14,14,1,0,1,,,0,FALSE,1.8943,,,,,,,,,,,,,,,,,,,,,,,,,,,,,,,
,613a9b39928d81d5ce5a3f7c,627c6f14ee332063830f24ac,2022-05-11_21h21.41.994,classification_task,2021.2.3,Win32,40.01440519,627c6715c52fd12f31907bd0,,,,,,,,,,,,,,,,,,,,,,,l,1,"[""0.131"",""0.205"",""0.569"",""0.629""]","[1,1,1,0]",0,15,15,15,1,1,1,,,0,FALSE,1.2725,,,,,,,,,,,,,,,,,,,,,,,,,,,,,,,
,613a9b39928d81d5ce5a3f7c,627c6f14ee332063830f24ac,2022-05-11_21h21.41.994,classification_task,2021.2.3,Win32,40.01440519,627c6715c52fd12f31907bd0,,,,,,,,,,,,,,,,,,,,,,,l,1,"[""0.620"",""0.373"",""0.523"",""0.674""]","[0,1,1,1]",0,16,16,16,1,1,0,,,0,FALSE,2.4152,,,,,,,,,,,,,,,,,,,,,,,,,,,,,,,
,613a9b39928d81d5ce5a3f7c,627c6f14ee332063830f24ac,2022-05-11_21h21.41.994,classification_task,2021.2.3,Win32,40.01440519,627c6715c52fd12f31907bd0,,,,,,,,,,,,,,,,,,,,,,,a,0,"[""0.131"",""0.205"",""0.569"",""0.620""]","[1,1,1,0]",0,17,17,17,1,1,1,,,0,FALSE,1.6189,,,,,,,,,,,,,,,,,,,,,,,,,,,,,,,
,613a9b39928d81d5ce5a3f7c,627c6f14ee332063830f24ac,2022-05-11_21h21.41.994,classification_task,2021.2.3,Win32,40.01440519,627c6715c52fd12f31907bd0,,,,,,,,,,,,,,,,,,,,,,,l,1,"[""0.039"",""0.626"",""0.523"",""0.674""]","[1,0,1,1]",0,18,18,18,1,1,0,,,0,FALSE,1.0412,,,,,,,,,,,,,,,,,,,,,,,,,,,,,,,
,613a9b39928d81d5ce5a3f7c,627c6f14ee332063830f24ac,2022-05-11_21h21.41.994,classification_task,2021.2.3,Win32,40.01440519,627c6715c52fd12f31907bd0,,,,,,,,,,,,,,,,,,,,,,,a,1,"[""0.319"",""0.417"",""0.911"",""0.607""]","[1,1,1,0]",0,19,19,19,1,0,0,,,0,FALSE,1.9962,,,,,,,,,,,,,,,,,,,,,,,,,,,,,,,
,613a9b39928d81d5ce5a3f7c,627c6f14ee332063830f24ac,2022-05-11_21h21.41.994,classification_task,2021.2.3,Win32,40.01440519,627c6715c52fd12f31907bd0,,,,,,,,,,,,,,,,,,,,,,,l,0,"[""0.266"",""0.620"",""0.732"",""0.876""]","[1,0,1,1]",0,20,20,20,1,0,1,,,0,FALSE,1.465,,,,,,,,,,,,,,,,,,,,,,,,,,,,,,,
,613a9b39928d81d5ce5a3f7c,627c6f14ee332063830f24ac,2022-05-11_21h21.41.994,classification_task,2021.2.3,Win32,40.01440519,627c6715c52fd12f31907bd0,,,,,,,,,,,,,,,,,,,,,,,l,1,"[""0.039"",""0.373"",""0.523"",""0.839""]","[1,1,1,0]",0,21,21,21,1,1,0,,,0,FALSE,3.5513,,,,,,,,,,,,,,,,,,,,,,,,,,,,,,,
,613a9b39928d81d5ce5a3f7c,627c6f14ee332063830f24ac,2022-05-11_21h21.41.994,classification_task,2021.2.3,Win32,40.01440519,627c6715c52fd12f31907bd0,,,,,,,,,,,,,,,,,,,,,,,a,1,"[""0.266"",""0.455"",""0.732"",""0.629""]","[1,1,1,0]",0,22,22,22,1,0,1,,,0,FALSE,1.7447,,,,,,,,,,,,,,,,,,,,,,,,,,,,,,,
,613a9b39928d81d5ce5a3f7c,627c6f14ee332063830f24ac,2022-05-11_21h21.41.994,classification_task,2021.2.3,Win32,40.01440519,627c6715c52fd12f31907bd0,,,,,,,,,,,,,,,,,,,,,,,l,0,"[""0.837"",""0.455"",""0.732"",""0.876""]","[0,1,1,1]",0,23,23,23,1,0,1,,,0,FALSE,3.5917,,,,,,,,,,,,,,,,,,,,,,,,,,,,,,,
,613a9b39928d81d5ce5a3f7c,627c6f14ee332063830f24ac,2022-05-11_21h21.41.994,classification_task,2021.2.3,Win32,40.01440519,627c6715c52fd12f31907bd0,,,,,,,,,,,,,,,,,,,,,,,a,1,"[""0.319"",""0.417"",""0.609"",""0.946""]","[1,1,0,1]",0,24,24,24,1,0,0,,,0,FALSE,1.9188,,,,,,,,,,,,,,,,,,,,,,,,,,,,,,,
,613a9b39928d81d5ce5a3f7c,627c6f14ee332063830f24ac,2022-05-11_21h21.41.994,classification_task,2021.2.3,Win32,40.01440519,627c6715c52fd12f31907bd0,,,,,,,,,,,,,,,,,,,,,,,l,0,"[""0.091"",""0.417"",""0.911"",""0.946""]","[0,1,1,1]",0,25,25,25,1,0,0,,,0,FALSE,5.62,,,,,,,,,,,,,,,,,,,,,,,,,,,,,,,
,613a9b39928d81d5ce5a3f7c,627c6f14ee332063830f24ac,2022-05-11_21h21.41.994,classification_task,2021.2.3,Win32,40.01440519,627c6715c52fd12f31907bd0,,,,,,,,,,,,,,,,,,,,,,,l,1,"[""0.131"",""0.205"",""0.839"",""0.788""]","[1,1,0,1]",0,26,26,26,1,1,1,,,0,FALSE,2.3409,,,,,,,,,,,,,,,,,,,,,,,,,,,,,,,
,613a9b39928d81d5ce5a3f7c,627c6f14ee332063830f24ac,2022-05-11_21h21.41.994,classification_task,2021.2.3,Win32,40.01440519,627c6715c52fd12f31907bd0,,,,,,,,,,,,,,,,,,,,,,,a,0,"[""0.075"",""0.205"",""0.569"",""0.788""]","[0,1,1,1]",0,27,27,27,1,1,1,,,0,FALSE,1.2772,,,,,,,,,,,,,,,,,,,,,,,,,,,,,,,
,613a9b39928d81d5ce5a3f7c,627c6f14ee332063830f24ac,2022-05-11_21h21.41.994,classification_task,2021.2.3,Win32,40.01440519,627c6715c52fd12f31907bd0,,,,,,,,,,,,,,,,,,,,,,,l,1,"[""0.039"",""0.373"",""0.829"",""0.674""]","[1,1,0,1]",0,28,28,28,1,1,0,,,0,FALSE,1.641,,,,,,,,,,,,,,,,,,,,,,,,,,,,,,,
,613a9b39928d81d5ce5a3f7c,627c6f14ee332063830f24ac,2022-05-11_21h21.41.994,classification_task,2021.2.3,Win32,40.01440519,627c6715c52fd12f31907bd0,,,,,,,,,,,,,,,,,,,,,,,a,1,"[""0.319"",""0.091"",""0.911"",""0.946""]","[1,0,1,1]",0,29,29,29,1,0,0,,,0,FALSE,1.3233,,,,,,,,,,,,,,,,,,,,,,,,,,,,,,,
,613a9b39928d81d5ce5a3f7c,627c6f14ee332063830f24ac,2022-05-11_21h21.41.994,classification_task,2021.2.3,Win32,40.01440519,627c6715c52fd12f31907bd0,,,,,,,,,,,,,,,,,,,,,,,a,1,"[""0.266"",""0.455"",""0.629"",""0.876""]","[1,1,0,1]",0,30,30,30,1,0,1,,,0,FALSE,2.7151,,,,,,,,,,,,,,,,,,,,,,,,,,,,,,,
,613a9b39928d81d5ce5a3f7c,627c6f14ee332063830f24ac,2022-05-11_21h21.41.994,classification_task,2021.2.3,Win32,40.01440519,627c6715c52fd12f31907bd0,,,,,,,,,,,,,,,,,,,,,,,l,1,"[""0.131"",""0.626"",""0.569"",""0.788""]","[1,0,1,1]",0,31,31,31,1,1,1,,,0,FALSE,2.824,,,,,,,,,,,,,,,,,,,,,,,,,,,,,,,
,613a9b39928d81d5ce5a3f7c,627c6f14ee332063830f24ac,2022-05-11_21h21.41.994,classification_task,2021.2.3,Win32,40.01440519,627c6715c52fd12f31907bd0,,,,,,,,,,,,,,,,,,,,,,,l,1,"[""0.620"",""0.205"",""0.569"",""0.788""]","[0,1,1,1]",0,32,32,32,1,1,1,,,0,FALSE,1.1728,,,,,,,,,,,,,,,,,,,,,,,,,,,,,,,
,613a9b39928d81d5ce5a3f7c,627c6f14ee332063830f24ac,2022-05-11_21h21.41.994,classification_task,2021.2.3,Win32,40.01440519,627c6715c52fd12f31907bd0,,,,,,,,,,,,,,,,,,,,,,,a,1,"[""0.622"",""0.417"",""0.911"",""0.946""]","[0,1,1,1]",0,33,33,33,1,0,0,,,0,FALSE,1.9971,,,,,,,,,,,,,,,,,,,,,,,,,,,,,,,
,613a9b39928d81d5ce5a3f7c,627c6f14ee332063830f24ac,2022-05-11_21h21.41.994,classification_task,2021.2.3,Win32,40.01440519,627c6715c52fd12f31907bd0,,,,,,,,,,,,,,,,,,,,,,,a,1,"[""0.319"",""0.417"",""0.625"",""0.946""]","[1,1,0,1]",0,34,34,34,1,0,0,,,0,FALSE,2.7201,,,,,,,,,,,,,,,,,,,,,,,,,,,,,,,
,613a9b39928d81d5ce5a3f7c,627c6f14ee332063830f24ac,2022-05-11_21h21.41.994,classification_task,2021.2.3,Win32,40.01440519,627c6715c52fd12f31907bd0,,,,,,,,,,,,,,,,,,,,,,,a,1,"[""0.319"",""0.417"",""0.911"",""0.091""]","[1,1,1,0]",0,35,35,35,1,0,0,,,0,FALSE,0.7477,,,,,,,,,,,,,,,,,,,,,,,,,,,,,,,
,613a9b39928d81d5ce5a3f7c,627c6f14ee332063830f24ac,2022-05-11_21h21.41.994,classification_task,2021.2.3,Win32,40.01440519,627c6715c52fd12f31907bd0,,,,,,,,,,,,,,,,,,,,,,,l,1,"[""0.625"",""0.373"",""0.523"",""0.674""]","[0,1,1,1]",0,36,36,36,1,1,0,,,0,FALSE,0.8804,,,,,,,,,,,,,,,,,,,,,,,,,,,,,,,
,613a9b39928d81d5ce5a3f7c,627c6f14ee332063830f24ac,2022-05-11_21h21.41.994,classification_task,2021.2.3,Win32,40.01440519,627c6715c52fd12f31907bd0,,,,,,,,,,,,,,,,,,,,,,,l,0,"[""0.266"",""0.609"",""0.732"",""0.876""]","[1,0,1,1]",0,37,37,37,1,0,1,,,0,FALSE,1.4964,,,,,,,,,,,,,,,,,,,,,,,,,,,,,,,
,613a9b39928d81d5ce5a3f7c,627c6f14ee332063830f24ac,2022-05-11_21h21.41.994,classification_task,2021.2.3,Win32,40.01440519,627c6715c52fd12f31907bd0,,,,,,,,,,,,,,,,,,,,,,,a,0,"[""0.131"",""0.205"",""0.075"",""0.788""]","[1,1,0,1]",0,38,38,38,1,1,1,,,0,FALSE,1.1502,,,,,,,,,,,,,,,,,,,,,,,,,,,,,,,
,613a9b39928d81d5ce5a3f7c,627c6f14ee332063830f24ac,2022-05-11_21h21.41.994,classification_task,2021.2.3,Win32,40.01440519,627c6715c52fd12f31907bd0,,,,,,,,,,,,,,,,,,,,,,,l,0,"[""0.266"",""0.455"",""0.075"",""0.876""]","[1,1,0,1]",0,39,39,39,1,0,1,,,0,FALSE,0.8228,,,,,,,,,,,,,,,,,,,,,,,,,,,,,,,
,613a9b39928d81d5ce5a3f7c,627c6f14ee332063830f24ac,2022-05-11_21h21.41.994,classification_task,2021.2.3,Win32,40.01440519,627c6715c52fd12f31907bd0,,,,,,,,,,,,,,,,,,,,,,,a,0,"[""0.039"",""0.373"",""0.626"",""0.674""]","[1,1,0,1]",0,40,40,40,1,1,0,,,0,FALSE,1.4725,,,,,,,,,,,,,,,,,,,,,,,,,,,,,,,
,613a9b39928d81d5ce5a3f7c,627c6f14ee332063830f24ac,2022-05-11_21h21.41.994,classification_task,2021.2.3,Win32,40.01440519,627c6715c52fd12f31907bd0,,,,,,,,,,,,,,,,,,,,,,,l,1,"[""0.039"",""0.373"",""0.523"",""0.622""]","[1,1,1,0]",0,41,41,41,1,1,0,,,0,FALSE,1.4653,,,,,,,,,,,,,,,,,,,,,,,,,,,,,,,
,613a9b39928d81d5ce5a3f7c,627c6f14ee332063830f24ac,2022-05-11_21h21.41.994,classification_task,2021.2.3,Win32,40.01440519,627c6715c52fd12f31907bd0,,,,,,,,,,,,,,,,,,,,,,,a,1,"[""0.319"",""0.622"",""0.911"",""0.946""]","[1,0,1,1]",0,42,42,42,1,0,0,,,0,FALSE,7.2995,,,,,,,,,,,,,,,,,,,,,,,,,,,,,,,
,613a9b39928d81d5ce5a3f7c,627c6f14ee332063830f24ac,2022-05-11_21h21.41.994,classification_task,2021.2.3,Win32,40.01440519,627c6715c52fd12f31907bd0,,,,,,,,,,,,,,,,,,,,,,,a,0,"[""0.131"",""0.205"",""0.569"",""0.837""]","[1,1,1,0]",0,43,43,43,1,1,1,,,0,FALSE,3.2175,,,,,,,,,,,,,,,,,,,,,,,,,,,,,,,
,613a9b39928d81d5ce5a3f7c,627c6f14ee332063830f24ac,2022-05-11_21h21.41.994,classification_task,2021.2.3,Win32,40.01440519,627c6715c52fd12f31907bd0,,,,,,,,,,,,,,,,,,,,,,,l,0,"[""0.266"",""0.455"",""0.732"",""0.829""]","[1,1,1,0]",0,44,44,44,1,0,1,,,0,FALSE,1.6726,,,,,,,,,,,,,,,,,,,,,,,,,,,,,,,
,613a9b39928d81d5ce5a3f7c,627c6f14ee332063830f24ac,2022-05-11_21h21.41.994,classification_task,2021.2.3,Win32,40.01440519,627c6715c52fd12f31907bd0,,,,,,,,,,,,,,,,,,,,,,,l,1,"[""0.039"",""0.838"",""0.523"",""0.674""]","[1,0,1,1]",0,45,45,45,1,1,0,,,0,FALSE,2.147,,,,,,,,,,,,,,,,,,,,,,,,,,,,,,,
,613a9b39928d81d5ce5a3f7c,627c6f14ee332063830f24ac,2022-05-11_21h21.41.994,classification_task,2021.2.3,Win32,40.01440519,627c6715c52fd12f31907bd0,,,,,,,,,,,,,,,,,,,,,,,l,1,"[""0.131"",""0.839"",""0.569"",""0.788""]","[1,0,1,1]",0,46,46,46,1,1,1,,,0,FALSE,1.2953,,,,,,,,,,,,,,,,,,,,,,,,,,,,,,,
,613a9b39928d81d5ce5a3f7c,627c6f14ee332063830f24ac,2022-05-11_21h21.41.994,classification_task,2021.2.3,Win32,40.01440519,627c6715c52fd12f31907bd0,,,,,,,,,,,,,,,,,,,,,,,a,1,"[""0.622"",""0.455"",""0.732"",""0.876""]","[0,1,1,1]",0,47,47,47,1,0,1,,,0,FALSE,1.2485,,,,,,,,,,,,,,,,,,,,,,,,,,,,,,,
,613a9b39928d81d5ce5a3f7c,627c6f14ee332063830f24ac,2022-05-11_21h21.41.994,classification_task,2021.2.3,Win32,40.01440519,627c6715c52fd12f31907bd0,,,,,,,,,,,,,,,,,,,,,,,l,1,"[""0.095"",""0.373"",""0.523"",""0.674""]","[0,1,1,1]",0,48,48,48,1,1,0,,,0,FALSE,1.1917,,,,,,,,,,,,,,,,,,,,,,,,,,,,,,,
,613a9b39928d81d5ce5a3f7c,627c6f14ee332063830f24ac,2022-05-11_21h21.41.994,classification_task,2021.2.3,Win32,40.01440519,627c6715c52fd12f31907bd0,,,,,,,,,,,,,,,,,,,,,,,l,0,"[""0.266"",""0.607"",""0.732"",""0.876""]","[1,0,1,1]",0,49,49,49,1,0,1,,,0,FALSE,3.3415,,,,,,,,,,,,,,,,,,,,,,,,,,,,,,,
,613a9b39928d81d5ce5a3f7c,627c6f14ee332063830f24ac,2022-05-11_21h21.41.994,classification_task,2021.2.3,Win32,40.01440519,627c6715c52fd12f31907bd0,,,,,,,,,,,,,,,,,,,,,,,a,1,"[""0.319"",""0.620"",""0.911"",""0.946""]","[1,0,1,1]",0,50,50,50,1,0,0,,,0,FALSE,1.087,,,,,,,,,,,,,,,,,,,,,,,,,,,,,,,
,613a9b39928d81d5ce5a3f7c,627c6f14ee332063830f24ac,2022-05-11_21h21.41.994,classification_task,2021.2.3,Win32,40.01440519,627c6715c52fd12f31907bd0,,,,,,,,,,,,,,,,,,,,,,,,0,"[""0.839"",""0.455"",""0.732"",""0.876""]","[0,1,1,1]",0,51,51,51,1,0,1,,,0,FALSE,,,,,,,,,,,,,,,,,,,,,,,,,,,,,,,,
,613a9b39928d81d5ce5a3f7c,627c6f14ee332063830f24ac,2022-05-11_21h21.41.994,classification_task,2021.2.3,Win32,40.01440519,627c6715c52fd12f31907bd0,,,,,,,,,,,,,,,,,,,,,,,a,1,"[""0.626"",""0.417"",""0.911"",""0.946""]","[0,1,1,1]",0,52,52,52,1,0,0,,,0,FALSE,7.0909,,,,,,,,,,,,,,,,,,,,,,,,,,,,,,,
,613a9b39928d81d5ce5a3f7c,627c6f14ee332063830f24ac,2022-05-11_21h21.41.994,classification_task,2021.2.3,Win32,40.01440519,627c6715c52fd12f31907bd0,,,,,,,,,,,,,,,,,,,,,,,a,0,"[""0.039"",""0.373"",""0.523"",""0.167""]","[1,1,1,0]",0,53,53,53,1,1,0,,,0,FALSE,2.6199,,,,,,,,,,,,,,,,,,,,,,,,,,,,,,,
,613a9b39928d81d5ce5a3f7c,627c6f14ee332063830f24ac,2022-05-11_21h21.41.994,classification_task,2021.2.3,Win32,40.01440519,627c6715c52fd12f31907bd0,,,,,,,,,,,,,,,,,,,,,,,l,0,"[""0.319"",""0.417"",""0.911"",""0.622""]","[1,1,1,0]",0,54,54,54,1,0,0,,,0,FALSE,0.8012,,,,,,,,,,,,,,,,,,,,,,,,,,,,,,,
,613a9b39928d81d5ce5a3f7c,627c6f14ee332063830f24ac,2022-05-11_21h21.41.994,classification_task,2021.2.3,Win32,40.01440519,627c6715c52fd12f31907bd0,,,,,,,,,,,,,,,,,,,,,,,a,0,"[""0.131"",""0.205"",""0.620"",""0.788""]","[1,1,0,1]",0,55,55,55,1,1,1,,,0,FALSE,2.4473,,,,,,,,,,,,,,,,,,,,,,,,,,,,,,,
,613a9b39928d81d5ce5a3f7c,627c6f14ee332063830f24ac,2022-05-11_21h21.41.994,classification_task,2021.2.3,Win32,40.01440519,627c6715c52fd12f31907bd0,,,,,,,,,,,,,,,,,,,,,,,l,0,"[""0.266"",""0.455"",""0.091"",""0.876""]","[1,1,0,1]",0,56,56,56,1,0,1,,,0,FALSE,0.7224,,,,,,,,,,,,,,,,,,,,,,,,,,,,,,,
,613a9b39928d81d5ce5a3f7c,627c6f14ee332063830f24ac,2022-05-11_21h21.41.994,classification_task,2021.2.3,Win32,40.01440519,627c6715c52fd12f31907bd0,,,,,,,,,,,,,,,,,,,,,,,a,1,"[""0.319"",""0.417"",""0.625"",""0.946""]","[1,1,0,1]",0,57,57,57,1,0,0,,,0,FALSE,2.2498,,,,,,,,,,,,,,,,,,,,,,,,,,,,,,,
,613a9b39928d81d5ce5a3f7c,627c6f14ee332063830f24ac,2022-05-11_21h21.41.994,classification_task,2021.2.3,Win32,40.01440519,627c6715c52fd12f31907bd0,,,,,,,,,,,,,,,,,,,,,,,l,1,"[""0.039"",""0.622"",""0.523"",""0.674""]","[1,0,1,1]",0,58,58,58,1,1,0,,,0,FALSE,1.0975,,,,,,,,,,,,,,,,,,,,,,,,,,,,,,,
,613a9b39928d81d5ce5a3f7c,627c6f14ee332063830f24ac,2022-05-11_21h21.41.994,classification_task,2021.2.3,Win32,40.01440519,627c6715c52fd12f31907bd0,,,,,,,,,,,,,,,,,,,,,,,l,1,"[""0.039"",""0.373"",""0.625"",""0.674""]","[1,1,0,1]",0,59,59,59,1,1,0,,,0,FALSE,1.4294,,,,,,,,,,,,,,,,,,,,,,,,,,,,,,,
,613a9b39928d81d5ce5a3f7c,627c6f14ee332063830f24ac,2022-05-11_21h21.41.994,classification_task,2021.2.3,Win32,40.01440519,627c6715c52fd12f31907bd0,,,,,,,,,,,,,,,,,,,,,,,a,0,"[""0.131"",""0.167"",""0.569"",""0.788""]","[1,0,1,1]",0,60,60,60,1,1,1,,,0,FALSE,1.0588,,,,,,,,,,,,,,,,,,,,,,,,,,,,,,,
,613a9b39928d81d5ce5a3f7c,627c6f14ee332063830f24ac,2022-05-11_21h21.41.994,classification_task,2021.2.3,Win32,40.01440519,627c6715c52fd12f31907bd0,,,,,,,,,,,,,,,,,,,,,,,l,1,"[""0.091"",""0.205"",""0.569"",""0.788""]","[0,1,1,1]",0,61,61,61,1,1,1,,,0,FALSE,0.5691,,,,,,,,,,,,,,,,,,,,,,,,,,,,,,,
,613a9b39928d81d5ce5a3f7c,627c6f14ee332063830f24ac,2022-05-11_21h21.41.994,classification_task,2021.2.3,Win32,40.01440519,627c6715c52fd12f31907bd0,,,,,,,,,,,,,,,,,,,,,,,l,1,"[""0.131"",""0.205"",""0.569"",""0.075""]","[1,1,1,0]",0,62,62,62,1,1,1,,,0,FALSE,0.972,,,,,,,,,,,,,,,,,,,,,,,,,,,,,,,
,613a9b39928d81d5ce5a3f7c,627c6f14ee332063830f24ac,2022-05-11_21h21.41.994,classification_task,2021.2.3,Win32,40.01440519,627c6715c52fd12f31907bd0,,,,,,,,,,,,,,,,,,,,,,,l,0,"[""0.266"",""0.455"",""0.732"",""0.622""]","[1,1,1,0]",0,63,63,63,1,0,1,,,0,FALSE,2.4278,,,,,,,,,,,,,,,,,,,,,,,,,,,,,,,
,613a9b39928d81d5ce5a3f7c,627c6f14ee332063830f24ac,2022-05-11_21h21.41.994,classification_task,2021.2.3,Win32,40.01440519,627c6715c52fd12f31907bd0,,,,,,,,,,,,,,,,,,,,,,,,,,,,,,,,,,,,,,,0, ,,0,2.619047619,233.133,0,1,1,1,1,2,2,,,,,,,,,,,,,,,,,,
,613a9b39928d81d5ce5a3f7c,627c6f14ee332063830f24ac,2022-05-11_21h21.41.994,classification_task,2021.2.3,Win32,40.01440519,627c6715c52fd12f31907bd0,,,,,,,,,,,,,,,,,,,,,,,,,,,,,,,,,,,,,,,1,  ,,0,10,234.4434,0,1,1,1,1,2,2,,,,,,,,,,,,,,,,,,
,613a9b39928d81d5ce5a3f7c,627c6f14ee332063830f24ac,2022-05-11_21h21.41.994,classification_task,2021.2.3,Win32,40.01440519,627c6715c52fd12f31907bd0,,,,,,,,,,,,,,,,,,,,,,,,,,,,,,,,,,,,,,,2,  ,,0,0,244.6245,0,1,1,1,1,2,2,,,,,,,,,,,,,,,,,,
,613a9b39928d81d5ce5a3f7c,627c6f14ee332063830f24ac,2022-05-11_21h21.41.994,classification_task,2021.2.3,Win32,40.01440519,627c6715c52fd12f31907bd0,,,,,,,,,,,,,,,,,,,,,,,,,,,,,,,,,,,,,,,,,,,,,0,1,1,1,1,,2,,,,,,,,,,,,,,,,,,
,613a9b39928d81d5ce5a3f7c,627c6f14ee332063830f24ac,2022-05-11_21h21.41.994,classification_task,2021.2.3,Win32,40.01440519,627c6715c52fd12f31907bd0,,,,,,,,,,,,,,,,,,,,,space,38.1908,a,0,"[""0.625"",""0.373"",""0.523"",""0.674""]","[0,1,1,1]",0,0,0,0,1,1,0,,,0,FALSE,5.8427,,,,,,,,,,,,,,,,,,,,,,,,,,,,,,,
,613a9b39928d81d5ce5a3f7c,627c6f14ee332063830f24ac,2022-05-11_21h21.41.994,classification_task,2021.2.3,Win32,40.01440519,627c6715c52fd12f31907bd0,,,,,,,,,,,,,,,,,,,,,,,a,1,"[""0.266"",""0.455"",""0.829"",""0.876""]","[1,1,0,1]",0,1,1,1,1,0,1,,,0,FALSE,1.4836,,,,,,,,,,,,,,,,,,,,,,,,,,,,,,,
,613a9b39928d81d5ce5a3f7c,627c6f14ee332063830f24ac,2022-05-11_21h21.41.994,classification_task,2021.2.3,Win32,40.01440519,627c6715c52fd12f31907bd0,,,,,,,,,,,,,,,,,,,,,,,l,1,"[""0.131"",""0.205"",""0.569"",""0.075""]","[1,1,1,0]",0,2,2,2,1,1,1,,,0,FALSE,4.0491,,,,,,,,,,,,,,,,,,,,,,,,,,,,,,,
,613a9b39928d81d5ce5a3f7c,627c6f14ee332063830f24ac,2022-05-11_21h21.41.994,classification_task,2021.2.3,Win32,40.01440519,627c6715c52fd12f31907bd0,,,,,,,,,,,,,,,,,,,,,,,a,1,"[""0.319"",""0.417"",""0.911"",""0.607""]","[1,1,1,0]",0,3,3,3,1,0,0,,,0,FALSE,1.9262,,,,,,,,,,,,,,,,,,,,,,,,,,,,,,,
,613a9b39928d81d5ce5a3f7c,627c6f14ee332063830f24ac,2022-05-11_21h21.41.994,classification_task,2021.2.3,Win32,40.01440519,627c6715c52fd12f31907bd0,,,,,,,,,,,,,,,,,,,,,,,l,0,"[""0.266"",""0.837"",""0.732"",""0.876""]","[1,0,1,1]",0,4,4,4,1,0,1,,,0,FALSE,4.7007,,,,,,,,,,,,,,,,,,,,,,,,,,,,,,,
,613a9b39928d81d5ce5a3f7c,627c6f14ee332063830f24ac,2022-05-11_21h21.41.994,classification_task,2021.2.3,Win32,40.01440519,627c6715c52fd12f31907bd0,,,,,,,,,,,,,,,,,,,,,,,l,0,"[""0.319"",""0.095"",""0.911"",""0.946""]","[1,0,1,1]",0,5,5,5,1,0,0,,,0,FALSE,1.8763,,,,,,,,,,,,,,,,,,,,,,,,,,,,,,,
,613a9b39928d81d5ce5a3f7c,627c6f14ee332063830f24ac,2022-05-11_21h21.41.994,classification_task,2021.2.3,Win32,40.01440519,627c6715c52fd12f31907bd0,,,,,,,,,,,,,,,,,,,,,,,a,1,"[""0.266"",""0.455"",""0.732"",""0.829""]","[1,1,1,0]",0,6,6,6,1,0,1,,,0,FALSE,2.957,,,,,,,,,,,,,,,,,,,,,,,,,,,,,,,
,613a9b39928d81d5ce5a3f7c,627c6f14ee332063830f24ac,2022-05-11_21h21.41.994,classification_task,2021.2.3,Win32,40.01440519,627c6715c52fd12f31907bd0,,,,,,,,,,,,,,,,,,,,,,,l,1,"[""0.039"",""0.373"",""0.523"",""0.839""]","[1,1,1,0]",0,7,7,7,1,1,0,,,0,FALSE,2.7753,,,,,,,,,,,,,,,,,,,,,,,,,,,,,,,
,613a9b39928d81d5ce5a3f7c,627c6f14ee332063830f24ac,2022-05-11_21h21.41.994,classification_task,2021.2.3,Win32,40.01440519,627c6715c52fd12f31907bd0,,,,,,,,,,,,,,,,,,,,,,,l,1,"[""0.039"",""0.373"",""0.167"",""0.674""]","[1,1,0,1]",0,8,8,8,1,1,0,,,0,FALSE,1.9003,,,,,,,,,,,,,,,,,,,,,,,,,,,,,,,
,613a9b39928d81d5ce5a3f7c,627c6f14ee332063830f24ac,2022-05-11_21h21.41.994,classification_task,2021.2.3,Win32,40.01440519,627c6715c52fd12f31907bd0,,,,,,,,,,,,,,,,,,,,,,,a,0,"[""0.039"",""0.609"",""0.523"",""0.674""]","[1,0,1,1]",0,9,9,9,1,1,0,,,0,FALSE,0.8564,,,,,,,,,,,,,,,,,,,,,,,,,,,,,,,
,613a9b39928d81d5ce5a3f7c,627c6f14ee332063830f24ac,2022-05-11_21h21.41.994,classification_task,2021.2.3,Win32,40.01440519,627c6715c52fd12f31907bd0,,,,,,,,,,,,,,,,,,,,,,,l,0,"[""0.167"",""0.417"",""0.911"",""0.946""]","[0,1,1,1]",0,10,10,10,1,0,0,,,0,FALSE,0.8247,,,,,,,,,,,,,,,,,,,,,,,,,,,,,,,
,613a9b39928d81d5ce5a3f7c,627c6f14ee332063830f24ac,2022-05-11_21h21.41.994,classification_task,2021.2.3,Win32,40.01440519,627c6715c52fd12f31907bd0,,,,,,,,,,,,,,,,,,,,,,,l,1,"[""0.131"",""0.839"",""0.569"",""0.788""]","[1,0,1,1]",0,11,11,11,1,1,1,,,0,FALSE,1.3979,,,,,,,,,,,,,,,,,,,,,,,,,,,,,,,
,613a9b39928d81d5ce5a3f7c,627c6f14ee332063830f24ac,2022-05-11_21h21.41.994,classification_task,2021.2.3,Win32,40.01440519,627c6715c52fd12f31907bd0,,,,,,,,,,,,,,,,,,,,,,,a,1,"[""0.319"",""0.417"",""0.625"",""0.946""]","[1,1,0,1]",0,12,12,12,1,0,0,,,0,FALSE,0.997,,,,,,,,,,,,,,,,,,,,,,,,,,,,,,,
,613a9b39928d81d5ce5a3f7c,627c6f14ee332063830f24ac,2022-05-11_21h21.41.994,classification_task,2021.2.3,Win32,40.01440519,627c6715c52fd12f31907bd0,,,,,,,,,,,,,,,,,,,,,,,,0,"[""0.131"",""0.205"",""0.829"",""0.788""]","[1,1,0,1]",0,13,13,13,1,1,1,,,0,FALSE,,,,,,,,,,,,,,,,,,,,,,,,,,,,,,,,
,613a9b39928d81d5ce5a3f7c,627c6f14ee332063830f24ac,2022-05-11_21h21.41.994,classification_task,2021.2.3,Win32,40.01440519,627c6715c52fd12f31907bd0,,,,,,,,,,,,,,,,,,,,,,,a,1,"[""0.091"",""0.455"",""0.732"",""0.876""]","[0,1,1,1]",0,14,14,14,1,0,1,,,0,FALSE,1.7015,,,,,,,,,,,,,,,,,,,,,,,,,,,,,,,
,613a9b39928d81d5ce5a3f7c,627c6f14ee332063830f24ac,2022-05-11_21h21.41.994,classification_task,2021.2.3,Win32,40.01440519,627c6715c52fd12f31907bd0,,,,,,,,,,,,,,,,,,,,,,,l,1,"[""0.095"",""0.205"",""0.569"",""0.788""]","[0,1,1,1]",0,15,15,15,1,1,1,,,0,FALSE,0.6498,,,,,,,,,,,,,,,,,,,,,,,,,,,,,,,
,613a9b39928d81d5ce5a3f7c,627c6f14ee332063830f24ac,2022-05-11_21h21.41.994,classification_task,2021.2.3,Win32,40.01440519,627c6715c52fd12f31907bd0,,,,,,,,,,,,,,,,,,,,,,,l,0,"[""0.266"",""0.455"",""0.732"",""0.622""]","[1,1,1,0]",0,16,16,16,1,0,1,,,0,FALSE,1.4073,,,,,,,,,,,,,,,,,,,,,,,,,,,,,,,
,613a9b39928d81d5ce5a3f7c,627c6f14ee332063830f24ac,2022-05-11_21h21.41.994,classification_task,2021.2.3,Win32,40.01440519,627c6715c52fd12f31907bd0,,,,,,,,,,,,,,,,,,,,,,,a,0,"[""0.039"",""0.373"",""0.523"",""0.091""]","[1,1,1,0]",0,17,17,17,1,1,0,,,0,FALSE,1.2983,,,,,,,,,,,,,,,,,,,,,,,,,,,,,,,
,613a9b39928d81d5ce5a3f7c,627c6f14ee332063830f24ac,2022-05-11_21h21.41.994,classification_task,2021.2.3,Win32,40.01440519,627c6715c52fd12f31907bd0,,,,,,,,,,,,,,,,,,,,,,,l,0,"[""0.622"",""0.455"",""0.732"",""0.876""]","[0,1,1,1]",0,18,18,18,1,0,1,,,0,FALSE,0.9566,,,,,,,,,,,,,,,,,,,,,,,,,,,,,,,
,613a9b39928d81d5ce5a3f7c,627c6f14ee332063830f24ac,2022-05-11_21h21.41.994,classification_task,2021.2.3,Win32,40.01440519,627c6715c52fd12f31907bd0,,,,,,,,,,,,,,,,,,,,,,,l,1,"[""0.622"",""0.373"",""0.523"",""0.674""]","[0,1,1,1]",0,19,19,19,1,1,0,,,0,FALSE,1.3475,,,,,,,,,,,,,,,,,,,,,,,,,,,,,,,
,613a9b39928d81d5ce5a3f7c,627c6f14ee332063830f24ac,2022-05-11_21h21.41.994,classification_task,2021.2.3,Win32,40.01440519,627c6715c52fd12f31907bd0,,,,,,,,,,,,,,,,,,,,,,,l,0,"[""0.319"",""0.625"",""0.911"",""0.946""]","[1,0,1,1]",0,20,20,20,1,0,0,,,0,FALSE,0.9489,,,,,,,,,,,,,,,,,,,,,,,,,,,,,,,
,613a9b39928d81d5ce5a3f7c,627c6f14ee332063830f24ac,2022-05-11_21h21.41.994,classification_task,2021.2.3,Win32,40.01440519,627c6715c52fd12f31907bd0,,,,,,,,,,,,,,,,,,,,,,,a,1,"[""0.091"",""0.417"",""0.911"",""0.946""]","[0,1,1,1]",0,21,21,21,1,0,0,,,0,FALSE,0.7737,,,,,,,,,,,,,,,,,,,,,,,,,,,,,,,
,613a9b39928d81d5ce5a3f7c,627c6f14ee332063830f24ac,2022-05-11_21h21.41.994,classification_task,2021.2.3,Win32,40.01440519,627c6715c52fd12f31907bd0,,,,,,,,,,,,,,,,,,,,,,,a,1,"[""0.319"",""0.417"",""0.609"",""0.946""]","[1,1,0,1]",0,22,22,22,1,0,0,,,0,FALSE,0.8999,,,,,,,,,,,,,,,,,,,,,,,,,,,,,,,
,613a9b39928d81d5ce5a3f7c,627c6f14ee332063830f24ac,2022-05-11_21h21.41.994,classification_task,2021.2.3,Win32,40.01440519,627c6715c52fd12f31907bd0,,,,,,,,,,,,,,,,,,,,,,,l,1,"[""0.039"",""0.373"",""0.838"",""0.674""]","[1,1,0,1]",0,23,23,23,1,1,0,,,0,FALSE,0.5468,,,,,,,,,,,,,,,,,,,,,,,,,,,,,,,
,613a9b39928d81d5ce5a3f7c,627c6f14ee332063830f24ac,2022-05-11_21h21.41.994,classification_task,2021.2.3,Win32,40.01440519,627c6715c52fd12f31907bd0,,,,,,,,,,,,,,,,,,,,,,,a,0,"[""0.131"",""0.609"",""0.569"",""0.788""]","[1,0,1,1]",0,24,24,24,1,1,1,,,0,FALSE,1.0242,,,,,,,,,,,,,,,,,,,,,,,,,,,,,,,
,613a9b39928d81d5ce5a3f7c,627c6f14ee332063830f24ac,2022-05-11_21h21.41.994,classification_task,2021.2.3,Win32,40.01440519,627c6715c52fd12f31907bd0,,,,,,,,,,,,,,,,,,,,,,,l,1,"[""0.131"",""0.205"",""0.838"",""0.788""]","[1,1,0,1]",0,25,25,25,1,1,1,,,0,FALSE,0.8752,,,,,,,,,,,,,,,,,,,,,,,,,,,,,,,
,613a9b39928d81d5ce5a3f7c,627c6f14ee332063830f24ac,2022-05-11_21h21.41.994,classification_task,2021.2.3,Win32,40.01440519,627c6715c52fd12f31907bd0,,,,,,,,,,,,,,,,,,,,,,,l,1,"[""0.039"",""0.095"",""0.523"",""0.674""]","[1,0,1,1]",0,26,26,26,1,1,0,,,0,FALSE,0.9257,,,,,,,,,,,,,,,,,,,,,,,,,,,,,,,
,613a9b39928d81d5ce5a3f7c,627c6f14ee332063830f24ac,2022-05-11_21h21.41.994,classification_task,2021.2.3,Win32,40.01440519,627c6715c52fd12f31907bd0,,,,,,,,,,,,,,,,,,,,,,,a,1,"[""0.266"",""0.629"",""0.732"",""0.876""]","[1,0,1,1]",0,27,27,27,1,0,1,,,0,FALSE,0.9581,,,,,,,,,,,,,,,,,,,,,,,,,,,,,,,
,613a9b39928d81d5ce5a3f7c,627c6f14ee332063830f24ac,2022-05-11_21h21.41.994,classification_task,2021.2.3,Win32,40.01440519,627c6715c52fd12f31907bd0,,,,,,,,,,,,,,,,,,,,,,,l,0,"[""0.266"",""0.455"",""0.167"",""0.876""]","[1,1,0,1]",0,28,28,28,1,0,1,,,0,FALSE,0.9251,,,,,,,,,,,,,,,,,,,,,,,,,,,,,,,
,613a9b39928d81d5ce5a3f7c,627c6f14ee332063830f24ac,2022-05-11_21h21.41.994,classification_task,2021.2.3,Win32,40.01440519,627c6715c52fd12f31907bd0,,,,,,,,,,,,,,,,,,,,,,,a,1,"[""0.319"",""0.417"",""0.911"",""0.829""]","[1,1,1,0]",0,29,29,29,1,0,0,,,0,FALSE,0.6077,,,,,,,,,,,,,,,,,,,,,,,,,,,,,,,
,613a9b39928d81d5ce5a3f7c,627c6f14ee332063830f24ac,2022-05-11_21h21.41.994,classification_task,2021.2.3,Win32,40.01440519,627c6715c52fd12f31907bd0,,,,,,,,,,,,,,,,,,,,,,,l,1,"[""0.131"",""0.205"",""0.569"",""0.609""]","[1,1,1,0]",0,30,30,30,1,1,1,,,0,FALSE,1.0788,,,,,,,,,,,,,,,,,,,,,,,,,,,,,,,
,613a9b39928d81d5ce5a3f7c,627c6f14ee332063830f24ac,2022-05-11_21h21.41.994,classification_task,2021.2.3,Win32,40.01440519,627c6715c52fd12f31907bd0,,,,,,,,,,,,,,,,,,,,,,,a,0,"[""0.620"",""0.205"",""0.569"",""0.788""]","[0,1,1,1]",0,31,31,31,1,1,1,,,0,FALSE,0.7247,,,,,,,,,,,,,,,,,,,,,,,,,,,,,,,
,613a9b39928d81d5ce5a3f7c,627c6f14ee332063830f24ac,2022-05-11_21h21.41.994,classification_task,2021.2.3,Win32,40.01440519,627c6715c52fd12f31907bd0,,,,,,,,,,,,,,,,,,,,,,,l,0,"[""0.266"",""0.455"",""0.732"",""0.609""]","[1,1,1,0]",0,32,32,32,1,0,1,,,0,FALSE,0.6498,,,,,,,,,,,,,,,,,,,,,,,,,,,,,,,
,613a9b39928d81d5ce5a3f7c,627c6f14ee332063830f24ac,2022-05-11_21h21.41.994,classification_task,2021.2.3,Win32,40.01440519,627c6715c52fd12f31907bd0,,,,,,,,,,,,,,,,,,,,,,,a,0,"[""0.167"",""0.373"",""0.523"",""0.674""]","[0,1,1,1]",0,33,33,33,1,1,0,,,0,FALSE,0.347,,,,,,,,,,,,,,,,,,,,,,,,,,,,,,,
,613a9b39928d81d5ce5a3f7c,627c6f14ee332063830f24ac,2022-05-11_21h21.41.994,classification_task,2021.2.3,Win32,40.01440519,627c6715c52fd12f31907bd0,,,,,,,,,,,,,,,,,,,,,,,l,0,"[""0.838"",""0.417"",""0.911"",""0.946""]","[0,1,1,1]",0,34,34,34,1,0,0,,,0,FALSE,0.8729,,,,,,,,,,,,,,,,,,,,,,,,,,,,,,,
,613a9b39928d81d5ce5a3f7c,627c6f14ee332063830f24ac,2022-05-11_21h21.41.994,classification_task,2021.2.3,Win32,40.01440519,627c6715c52fd12f31907bd0,,,,,,,,,,,,,,,,,,,,,,,a,0,"[""0.131"",""0.091"",""0.569"",""0.788""]","[1,0,1,1]",0,35,35,35,1,1,1,,,0,FALSE,0.4218,,,,,,,,,,,,,,,,,,,,,,,,,,,,,,,
,613a9b39928d81d5ce5a3f7c,627c6f14ee332063830f24ac,2022-05-11_21h21.41.994,classification_task,2021.2.3,Win32,40.01440519,627c6715c52fd12f31907bd0,,,,,,,,,,,,,,,,,,,,,,,l,0,"[""0.319"",""0.607"",""0.911"",""0.946""]","[1,0,1,1]",0,36,36,36,1,0,0,,,0,FALSE,0.4252,,,,,,,,,,,,,,,,,,,,,,,,,,,,,,,
,613a9b39928d81d5ce5a3f7c,627c6f14ee332063830f24ac,2022-05-11_21h21.41.994,classification_task,2021.2.3,Win32,40.01440519,627c6715c52fd12f31907bd0,,,,,,,,,,,,,,,,,,,,,,,a,0,"[""0.039"",""0.373"",""0.167"",""0.674""]","[1,1,0,1]",0,37,37,37,1,1,0,,,0,FALSE,0.8001,,,,,,,,,,,,,,,,,,,,,,,,,,,,,,,
,613a9b39928d81d5ce5a3f7c,627c6f14ee332063830f24ac,2022-05-11_21h21.41.994,classification_task,2021.2.3,Win32,40.01440519,627c6715c52fd12f31907bd0,,,,,,,,,,,,,,,,,,,,,,,l,1,"[""0.039"",""0.373"",""0.523"",""0.839""]","[1,1,1,0]",0,38,38,38,1,1,0,,,0,FALSE,0.6225,,,,,,,,,,,,,,,,,,,,,,,,,,,,,,,
,613a9b39928d81d5ce5a3f7c,627c6f14ee332063830f24ac,2022-05-11_21h21.41.994,classification_task,2021.2.3,Win32,40.01440519,627c6715c52fd12f31907bd0,,,,,,,,,,,,,,,,,,,,,,,a,0,"[""0.095"",""0.205"",""0.569"",""0.788""]","[0,1,1,1]",0,39,39,39,1,1,1,,,0,FALSE,0.7714,,,,,,,,,,,,,,,,,,,,,,,,,,,,,,,
,613a9b39928d81d5ce5a3f7c,627c6f14ee332063830f24ac,2022-05-11_21h21.41.994,classification_task,2021.2.3,Win32,40.01440519,627c6715c52fd12f31907bd0,,,,,,,,,,,,,,,,,,,,,,,l,1,"[""0.131"",""0.205"",""0.167"",""0.788""]","[1,1,0,1]",0,40,40,40,1,1,1,,,0,FALSE,0.4738,,,,,,,,,,,,,,,,,,,,,,,,,,,,,,,
,613a9b39928d81d5ce5a3f7c,627c6f14ee332063830f24ac,2022-05-11_21h21.41.994,classification_task,2021.2.3,Win32,40.01440519,627c6715c52fd12f31907bd0,,,,,,,,,,,,,,,,,,,,,,,l,0,"[""0.266"",""0.838"",""0.732"",""0.876""]","[1,0,1,1]",0,41,41,41,1,0,1,,,0,FALSE,0.4983,,,,,,,,,,,,,,,,,,,,,,,,,,,,,,,
,613a9b39928d81d5ce5a3f7c,627c6f14ee332063830f24ac,2022-05-11_21h21.41.994,classification_task,2021.2.3,Win32,40.01440519,627c6715c52fd12f31907bd0,,,,,,,,,,,,,,,,,,,,,,,a,1,"[""0.319"",""0.417"",""0.075"",""0.946""]","[1,1,0,1]",0,42,42,42,1,0,0,,,0,FALSE,0.5745,,,,,,,,,,,,,,,,,,,,,,,,,,,,,,,
,613a9b39928d81d5ce5a3f7c,627c6f14ee332063830f24ac,2022-05-11_21h21.41.994,classification_task,2021.2.3,Win32,40.01440519,627c6715c52fd12f31907bd0,,,,,,,,,,,,,,,,,,,,,,,l,0,"[""0.266"",""0.455"",""0.091"",""0.876""]","[1,1,0,1]",0,43,43,43,1,0,1,,,0,FALSE,0.3999,,,,,,,,,,,,,,,,,,,,,,,,,,,,,,,
,613a9b39928d81d5ce5a3f7c,627c6f14ee332063830f24ac,2022-05-11_21h21.41.994,classification_task,2021.2.3,Win32,40.01440519,627c6715c52fd12f31907bd0,,,,,,,,,,,,,,,,,,,,,,,l,1,"[""0.039"",""0.625"",""0.523"",""0.674""]","[1,0,1,1]",0,44,44,44,1,1,0,,,0,FALSE,0.3762,,,,,,,,,,,,,,,,,,,,,,,,,,,,,,,
,613a9b39928d81d5ce5a3f7c,627c6f14ee332063830f24ac,2022-05-11_21h21.41.994,classification_task,2021.2.3,Win32,40.01440519,627c6715c52fd12f31907bd0,,,,,,,,,,,,,,,,,,,,,,,a,1,"[""0.319"",""0.417"",""0.911"",""0.838""]","[1,1,1,0]",0,45,45,45,1,0,0,,,0,FALSE,0.3279,,,,,,,,,,,,,,,,,,,,,,,,,,,,,,,
,613a9b39928d81d5ce5a3f7c,627c6f14ee332063830f24ac,2022-05-11_21h21.41.994,classification_task,2021.2.3,Win32,40.01440519,627c6715c52fd12f31907bd0,,,,,,,,,,,,,,,,,,,,,,,l,0,"[""0.620"",""0.455"",""0.732"",""0.876""]","[0,1,1,1]",0,46,46,46,1,0,1,,,0,FALSE,0.5238,,,,,,,,,,,,,,,,,,,,,,,,,,,,,,,
,613a9b39928d81d5ce5a3f7c,627c6f14ee332063830f24ac,2022-05-11_21h21.41.994,classification_task,2021.2.3,Win32,40.01440519,627c6715c52fd12f31907bd0,,,,,,,,,,,,,,,,,,,,,,,a,0,"[""0.131"",""0.205"",""0.569"",""0.622""]","[1,1,1,0]",0,47,47,47,1,1,1,,,0,FALSE,0.3991,,,,,,,,,,,,,,,,,,,,,,,,,,,,,,,
,613a9b39928d81d5ce5a3f7c,627c6f14ee332063830f24ac,2022-05-11_21h21.41.994,classification_task,2021.2.3,Win32,40.01440519,627c6715c52fd12f31907bd0,,,,,,,,,,,,,,,,,,,,,,,l,0,"[""0.266"",""0.839"",""0.732"",""0.876""]","[1,0,1,1]",0,48,48,48,1,0,1,,,0,FALSE,1.2252,,,,,,,,,,,,,,,,,,,,,,,,,,,,,,,
,613a9b39928d81d5ce5a3f7c,627c6f14ee332063830f24ac,2022-05-11_21h21.41.994,classification_task,2021.2.3,Win32,40.01440519,627c6715c52fd12f31907bd0,,,,,,,,,,,,,,,,,,,,,,,l,0,"[""0.319"",""0.417"",""0.911"",""0.091""]","[1,1,1,0]",0,49,49,49,1,0,0,,,0,FALSE,0.5742,,,,,,,,,,,,,,,,,,,,,,,,,,,,,,,
,613a9b39928d81d5ce5a3f7c,627c6f14ee332063830f24ac,2022-05-11_21h21.41.994,classification_task,2021.2.3,Win32,40.01440519,627c6715c52fd12f31907bd0,,,,,,,,,,,,,,,,,,,,,,,a,0,"[""0.039"",""0.373"",""0.523"",""0.837""]","[1,1,1,0]",0,50,50,50,1,1,0,,,0,FALSE,1.0967,,,,,,,,,,,,,,,,,,,,,,,,,,,,,,,
,613a9b39928d81d5ce5a3f7c,627c6f14ee332063830f24ac,2022-05-11_21h21.41.994,classification_task,2021.2.3,Win32,40.01440519,627c6715c52fd12f31907bd0,,,,,,,,,,,,,,,,,,,,,,,l,0,"[""0.266"",""0.455"",""0.732"",""0.607""]","[1,1,1,0]",0,51,51,51,1,0,1,,,0,FALSE,0.7744,,,,,,,,,,,,,,,,,,,,,,,,,,,,,,,
,613a9b39928d81d5ce5a3f7c,627c6f14ee332063830f24ac,2022-05-11_21h21.41.994,classification_task,2021.2.3,Win32,40.01440519,627c6715c52fd12f31907bd0,,,,,,,,,,,,,,,,,,,,,,,a,0,"[""0.131"",""0.205"",""0.091"",""0.788""]","[1,1,0,1]",0,52,52,52,1,1,1,,,0,FALSE,0.6249,,,,,,,,,,,,,,,,,,,,,,,,,,,,,,,
,613a9b39928d81d5ce5a3f7c,627c6f14ee332063830f24ac,2022-05-11_21h21.41.994,classification_task,2021.2.3,Win32,40.01440519,627c6715c52fd12f31907bd0,,,,,,,,,,,,,,,,,,,,,,,l,1,"[""0.039"",""0.625"",""0.523"",""0.674""]","[1,0,1,1]",0,53,53,53,1,1,0,,,0,FALSE,0.6986,,,,,,,,,,,,,,,,,,,,,,,,,,,,,,,
,613a9b39928d81d5ce5a3f7c,627c6f14ee332063830f24ac,2022-05-11_21h21.41.994,classification_task,2021.2.3,Win32,40.01440519,627c6715c52fd12f31907bd0,,,,,,,,,,,,,,,,,,,,,,,l,0,"[""0.839"",""0.455"",""0.732"",""0.876""]","[0,1,1,1]",0,54,54,54,1,0,1,,,0,FALSE,0.5991,,,,,,,,,,,,,,,,,,,,,,,,,,,,,,,
,613a9b39928d81d5ce5a3f7c,627c6f14ee332063830f24ac,2022-05-11_21h21.41.994,classification_task,2021.2.3,Win32,40.01440519,627c6715c52fd12f31907bd0,,,,,,,,,,,,,,,,,,,,,,,l,0,"[""0.319"",""0.095"",""0.911"",""0.946""]","[1,0,1,1]",0,55,55,55,1,0,0,,,0,FALSE,0.4979,,,,,,,,,,,,,,,,,,,,,,,,,,,,,,,
,613a9b39928d81d5ce5a3f7c,627c6f14ee332063830f24ac,2022-05-11_21h21.41.994,classification_task,2021.2.3,Win32,40.01440519,627c6715c52fd12f31907bd0,,,,,,,,,,,,,,,,,,,,,,,a,0,"[""0.039"",""0.373"",""0.167"",""0.674""]","[1,1,0,1]",0,56,56,56,1,1,0,,,0,FALSE,0.3536,,,,,,,,,,,,,,,,,,,,,,,,,,,,,,,
,613a9b39928d81d5ce5a3f7c,627c6f14ee332063830f24ac,2022-05-11_21h21.41.994,classification_task,2021.2.3,Win32,40.01440519,627c6715c52fd12f31907bd0,,,,,,,,,,,,,,,,,,,,,,,a,1,"[""0.319"",""0.417"",""0.095"",""0.946""]","[1,1,0,1]",0,57,57,57,1,0,0,,,0,FALSE,0.4491,,,,,,,,,,,,,,,,,,,,,,,,,,,,,,,
,613a9b39928d81d5ce5a3f7c,627c6f14ee332063830f24ac,2022-05-11_21h21.41.994,classification_task,2021.2.3,Win32,40.01440519,627c6715c52fd12f31907bd0,,,,,,,,,,,,,,,,,,,,,,,l,1,"[""0.622"",""0.373"",""0.523"",""0.674""]","[0,1,1,1]",0,58,58,58,1,1,0,,,0,FALSE,0.7242,,,,,,,,,,,,,,,,,,,,,,,,,,,,,,,
,613a9b39928d81d5ce5a3f7c,627c6f14ee332063830f24ac,2022-05-11_21h21.41.994,classification_task,2021.2.3,Win32,40.01440519,627c6715c52fd12f31907bd0,,,,,,,,,,,,,,,,,,,,,,,a,1,"[""0.167"",""0.417"",""0.911"",""0.946""]","[0,1,1,1]",0,59,59,59,1,0,0,,,0,FALSE,0.3239,,,,,,,,,,,,,,,,,,,,,,,,,,,,,,,
,613a9b39928d81d5ce5a3f7c,627c6f14ee332063830f24ac,2022-05-11_21h21.41.994,classification_task,2021.2.3,Win32,40.01440519,627c6715c52fd12f31907bd0,,,,,,,,,,,,,,,,,,,,,,,l,0,"[""0.266"",""0.455"",""0.829"",""0.876""]","[1,1,0,1]",0,60,60,60,1,0,1,,,0,FALSE,0.6484,,,,,,,,,,,,,,,,,,,,,,,,,,,,,,,
,613a9b39928d81d5ce5a3f7c,627c6f14ee332063830f24ac,2022-05-11_21h21.41.994,classification_task,2021.2.3,Win32,40.01440519,627c6715c52fd12f31907bd0,,,,,,,,,,,,,,,,,,,,,,,a,0,"[""0.607"",""0.205"",""0.569"",""0.788""]","[0,1,1,1]",0,61,61,61,1,1,1,,,0,FALSE,0.4296,,,,,,,,,,,,,,,,,,,,,,,,,,,,,,,
,613a9b39928d81d5ce5a3f7c,627c6f14ee332063830f24ac,2022-05-11_21h21.41.994,classification_task,2021.2.3,Win32,40.01440519,627c6715c52fd12f31907bd0,,,,,,,,,,,,,,,,,,,,,,,l,1,"[""0.131"",""0.205"",""0.569"",""0.095""]","[1,1,1,0]",0,62,62,62,1,1,1,,,0,FALSE,0.3459,,,,,,,,,,,,,,,,,,,,,,,,,,,,,,,
,613a9b39928d81d5ce5a3f7c,627c6f14ee332063830f24ac,2022-05-11_21h21.41.994,classification_task,2021.2.3,Win32,40.01440519,627c6715c52fd12f31907bd0,,,,,,,,,,,,,,,,,,,,,,,l,1,"[""0.131"",""0.167"",""0.569"",""0.788""]","[1,0,1,1]",0,63,63,63,1,1,1,,,0,FALSE,0.3544,,,,,,,,,,,,,,,,,,,,,,,,,,,,,,,
,613a9b39928d81d5ce5a3f7c,627c6f14ee332063830f24ac,2022-05-11_21h21.41.994,classification_task,2021.2.3,Win32,40.01440519,627c6715c52fd12f31907bd0,,,,,,,,,,,,,,,,,,,,,,,,,,,,,,,,,,,,,,,0, ,,0,2.295708407,185.3581,0,2,2,2,1,2,3,,,,,,,,,,,,,,,,,,
,613a9b39928d81d5ce5a3f7c,627c6f14ee332063830f24ac,2022-05-11_21h21.41.994,classification_task,2021.2.3,Win32,40.01440519,627c6715c52fd12f31907bd0,,,,,,,,,,,,,,,,,,,,,,,,,,,,,,,,,,,,,,,1,  ,,0,10,187.5799,0,2,2,2,1,2,3,,,,,,,,,,,,,,,,,,
,613a9b39928d81d5ce5a3f7c,627c6f14ee332063830f24ac,2022-05-11_21h21.41.994,classification_task,2021.2.3,Win32,40.01440519,627c6715c52fd12f31907bd0,,,,,,,,,,,,,,,,,,,,,,,,,,,,,,,,,,,,,,,2,  ,,0,10,193.187,0,2,2,2,1,2,3,,,,,,,,,,,,,,,,,,
,613a9b39928d81d5ce5a3f7c,627c6f14ee332063830f24ac,2022-05-11_21h21.41.994,classification_task,2021.2.3,Win32,40.01440519,627c6715c52fd12f31907bd0,,,,,,,,,,,,,,,,,,,,,,,,,,,,,,,,,,,,,,,,,,,,,0,2,2,2,1,,3,,,,,,,,,,,,,,,,,,
,613a9b39928d81d5ce5a3f7c,627c6f14ee332063830f24ac,2022-05-11_21h21.41.994,classification_task,2021.2.3,Win32,40.01440519,627c6715c52fd12f31907bd0,,,,,,,,,,,,,,,,,,,,,,,,,,,,,,,,,,,,,,,,,,,,,,,,,,,,,I believe the aid is a competent performer,,0.7,0,3,951.8507,0,0,0,0,1,0,,,,,
,613a9b39928d81d5ce5a3f7c,627c6f14ee332063830f24ac,2022-05-11_21h21.41.994,classification_task,2021.2.3,Win32,40.01440519,627c6715c52fd12f31907bd0,,,,,,,,,,,,,,,,,,,,,,,,,,,,,,,,,,,,,,,,,,,,,,,,,,,,,I trust the aid,,0.7,0,5,957.5314,0,0,0,0,1,0,,,,,
,613a9b39928d81d5ce5a3f7c,627c6f14ee332063830f24ac,2022-05-11_21h21.41.994,classification_task,2021.2.3,Win32,40.01440519,627c6715c52fd12f31907bd0,,,,,,,,,,,,,,,,,,,,,,,,,,,,,,,,,,,,,,,,,,,,,,,,,,,,,I have confidence in the advice given by the aid,,0.7,0,5,958.9265,0,0,0,0,1,0,,,,,
,613a9b39928d81d5ce5a3f7c,627c6f14ee332063830f24ac,2022-05-11_21h21.41.994,classification_task,2021.2.3,Win32,40.01440519,627c6715c52fd12f31907bd0,,,,,,,,,,,,,,,,,,,,,,,,,,,,,,,,,,,,,,,,,,,,,,,,,,,,,I can depend on the aid,,0.7,0,5,961.5659,0,0,0,0,1,0,,,,,
,613a9b39928d81d5ce5a3f7c,627c6f14ee332063830f24ac,2022-05-11_21h21.41.994,classification_task,2021.2.3,Win32,40.01440519,627c6715c52fd12f31907bd0,,,,,,,,,,,,,,,,,,,,,,,,,,,,,,,,,,,,,,,,,,,,,,,,,,,,,I can rely on the aid to behave in consistent ways,,0.7,0,5,964.315,0,0,0,0,1,0,,,,,
,613a9b39928d81d5ce5a3f7c,627c6f14ee332063830f24ac,2022-05-11_21h21.41.994,classification_task,2021.2.3,Win32,40.01440519,627c6715c52fd12f31907bd0,,,,,,,,,,,,,,,,,,,,,,,,,,,,,,,,,,,,,,,,,,,,,,,,,,,,,I can rely on the aid to do its best every time I take its advice,,0.7,0,5,968.1,0,0,0,0,1,0,,,,,
,613a9b39928d81d5ce5a3f7c,627c6f14ee332063830f24ac,2022-05-11_21h21.41.994,classification_task,2021.2.3,Win32,40.01440519,627c6715c52fd12f31907bd0,,,,,,,,,,,,,,,,,,,,,,,,,,,,,,,,,,,,,,,,,,,,,,,,,,,,,"On trials you completed with assistance from the aid, how frequently did you think the aid was correct?",,0.7,0,50,,0,0,0,0,1,0,,,,,
,613a9b39928d81d5ce5a3f7c,627c6f14ee332063830f24ac,2022-05-11_21h21.41.994,classification_task,2021.2.3,Win32,40.01440519,627c6715c52fd12f31907bd0,,,,,,,,,,,,,,,,,,,,,,,,,,,,,,,,,,,,,,,,,,,,,,,,,,,,,"On trials you completed without the aid, how frequently did you think you were correct?",,0.7,0,50,,0,0,0,0,1,0,,,,,
,613a9b39928d81d5ce5a3f7c,627c6f14ee332063830f24ac,2022-05-11_21h21.41.994,classification_task,2021.2.3,Win32,40.01440519,627c6715c52fd12f31907bd0,,,,,,,,,,,,,,,,,,,,,,,,,,,,,,,,,,,,,,,,,,,,,,,,,,,,,,,,,,,0,0,0,0,1,,,,,,
,613a9b39928d81d5ce5a3f7c,627c6f14ee332063830f24ac,2022-05-11_21h21.41.994,classification_task,2021.2.3,Win32,40.01440519,627c6715c52fd12f31907bd0,,,,,,,,,,,,,,,,,,,,,,,,,,,,,,,,,,,,,,,,,,,,,,,,,,,,,,,,,,,,,,,,,space,2.4357,989.4641,,
,613a9b39928d81d5ce5a3f7c,627c6f14ee332063830f24ac,2022-05-11_21h21.41.994,classification_task,2021.2.3,Win32,40.01440519,627c6715c52fd12f31907bd0,,,,,,,,,,,,,,,,,,,,,,,,,,,,,,,,,,,,,,,,,,,,,,,,,,,,,,,,,,,,,,,,,,,,"Mozilla/5.0 (Windows NT 10.0; Win64; x64) AppleWebKit/537.36 (KHTML, like Gecko) Chrome/101.0.4951.54 Safari/537.36",
,613a9b39928d81d5ce5a3f7c,627c6f14ee332063830f24ac,2022-05-11_21h21.41.994,classification_task,2021.2.3,Win32,40.01440519,627c6715c52fd12f31907bd0,,,,,,,,,,,,,,,,,,,,,,,,,,,,,,,,,,,,,,,,,,,,,,,,,,,,,,,,,,,,,,,,,,,,,HIGHLIGHT
