usingWebGL,participant,session,date,expName,psychopyVersion,OS,frameRate,study_id,signatures_friend,signatures_foe,band_ranges_top,band_ranges_bottom,formitemText,formtype,formundefined,formitemWidth,formindex,formresponse,formrt,key_resp_2.keys,key_resp_2.rt,tute_resp.keys,tute_resp.rt,tutorial.thisRepN,tutorial.thisTrialN,tutorial.thisN,tutorial.thisIndex,tutorial.ran,key_resp_4.keys,key_resp_4.rt,key_resp.keys,key_resp.corr,key_resp.rt,lines_presented,is_signal_presented,trials.thisRepN,trials.thisTrialN,trials.thisN,trials.thisIndex,trials.ran,vessel,active_band,lines,is_signal,supported_pos,catch_trial,debrief_formindex,debrief_formitemText,debrief_formtype,debrief_formitemWidth,debrief_formresponse,debrief_formrt,phases.thisRepN,phases.thisTrialN,phases.thisN,phases.thisIndex,phases.ran,phases.order,phase,key_resp_3.keys,trustitemText,trusttype,trustitemWidth,trustindex,trustresponse,trustrt,support_status.thisRepN,support_status.thisTrialN,support_status.thisN,support_status.thisIndex,support_status.ran,support_status.order,key_resp_5.keys,key_resp_5.rt,globalClockTime,userAgent,manualCondition
TRUE,613aa083471f32340562774d,627c6ffaae0fb064bc6153ed,2022-05-11_21h26.51.932,classification_task,2021.2.3,Linux x86_64,60.07810153,627c6715c52fd12f31907bd0,,,,,,,,,,,,,,,,,,,,,,,,,,,,,,,,,,,,,,,,,,,,,,,,,,,,,,,,,,,,,,,,,,,,,
,613aa083471f32340562774d,627c6ffaae0fb064bc6153ed,2022-05-11_21h26.51.932,classification_task,2021.2.3,Linux x86_64,60.07810153,627c6715c52fd12f31907bd0,"[[""0.197"",""0.376"",""0.913"",""0.962""],[""0.163"",""0.425"",""0.641"",""0.863""]]","[[""0.066"",""0.236"",""0.522"",""0.696""],[""0.127"",""0.330"",""0.471"",""0.821""]]","[1,10]","[100,1000]",Video game experience,,,0.7,0,,,,,,,,,,,,,,,,,,,,,,,,,,,,,,,,,,,,,,,,,,,,,,,,,,,,,,,,,,,,
,613aa083471f32340562774d,627c6ffaae0fb064bc6153ed,2022-05-11_21h26.51.932,classification_task,2021.2.3,Linux x86_64,60.07810153,627c6715c52fd12f31907bd0,,,,,Approximately how many hours did you spend playing video games in the last week?,,,0.7,0,0,,,,,,,,,,,,,,,,,,,,,,,,,,,,,,,,,,,,,,,,,,,,,,,,,,,,,,,,,,,
,613aa083471f32340562774d,627c6ffaae0fb064bc6153ed,2022-05-11_21h26.51.932,classification_task,2021.2.3,Linux x86_64,60.07810153,627c6715c52fd12f31907bd0,,,,,"Which game did you play the most this year? (Enter ""None"" if you didn't play any)",,,0.7,0,none,,,,,,,,,,,,,,,,,,,,,,,,,,,,,,,,,,,,,,,,,,,,,,,,,,,,,,,,,,,
,613aa083471f32340562774d,627c6ffaae0fb064bc6153ed,2022-05-11_21h26.51.932,classification_task,2021.2.3,Linux x86_64,60.07810153,627c6715c52fd12f31907bd0,,,,,Visual perception,,,0.7,0,,,,,,,,,,,,,,,,,,,,,,,,,,,,,,,,,,,,,,,,,,,,,,,,,,,,,,,,,,,,
,613aa083471f32340562774d,627c6ffaae0fb064bc6153ed,2022-05-11_21h26.51.932,classification_task,2021.2.3,Linux x86_64,60.07810153,627c6715c52fd12f31907bd0,,,,,Do you have any form of color blindness?,,,0.7,0,No,19.9525,,,,,,,,,,,,,,,,,,,,,,,,,,,,,,,,,,,,,,,,,,,,,,,,,,,,,,,,,,
,613aa083471f32340562774d,627c6ffaae0fb064bc6153ed,2022-05-11_21h26.51.932,classification_task,2021.2.3,Linux x86_64,60.07810153,627c6715c52fd12f31907bd0,,,,,Do you use software to change the colour temperature of your screen (e.g. f.lux)?,,,0.7,0,No,26.0004,,,,,,,,,,,,,,,,,,,,,,,,,,,,,,,,,,,,,,,,,,,,,,,,,,,,,,,,,,
,613aa083471f32340562774d,627c6ffaae0fb064bc6153ed,2022-05-11_21h26.51.932,classification_task,2021.2.3,Linux x86_64,60.07810153,627c6715c52fd12f31907bd0,,,,,,,,,,,,space,30.4607,space,8.1199,0,0,0,0,1,,,,,,,,,,,,,,,,,,,,,,,,,,,,,,,,,,,,,,,,,,,,,,,,,
,613aa083471f32340562774d,627c6ffaae0fb064bc6153ed,2022-05-11_21h26.51.932,classification_task,2021.2.3,Linux x86_64,60.07810153,627c6715c52fd12f31907bd0,,,,,,,,,,,,,,space,11.1605,1,0,1,0,1,,,,,,,,,,,,,,,,,,,,,,,,,,,,,,,,,,,,,,,,,,,,,,,,,
,613aa083471f32340562774d,627c6ffaae0fb064bc6153ed,2022-05-11_21h26.51.932,classification_task,2021.2.3,Linux x86_64,60.07810153,627c6715c52fd12f31907bd0,,,,,,,,,,,,,,space,24.186,2,0,2,0,1,,,,,,,,,,,,,,,,,,,,,,,,,,,,,,,,,,,,,,,,,,,,,,,,,
,613aa083471f32340562774d,627c6ffaae0fb064bc6153ed,2022-05-11_21h26.51.932,classification_task,2021.2.3,Linux x86_64,60.07810153,627c6715c52fd12f31907bd0,,,,,,,,,,,,,,space,20.435,3,0,3,0,1,,,,,,,,,,,,,,,,,,,,,,,,,,,,,,,,,,,,,,,,,,,,,,,,,
,613aa083471f32340562774d,627c6ffaae0fb064bc6153ed,2022-05-11_21h26.51.932,classification_task,2021.2.3,Linux x86_64,60.07810153,627c6715c52fd12f31907bd0,,,,,,,,,,,,,,space,17.81,4,0,4,0,1,,,,,,,,,,,,,,,,,,,,,,,,,,,,,,,,,,,,,,,,,,,,,,,,,
,613aa083471f32340562774d,627c6ffaae0fb064bc6153ed,2022-05-11_21h26.51.932,classification_task,2021.2.3,Linux x86_64,60.07810153,627c6715c52fd12f31907bd0,,,,,,,,,,,,,,,,,,,,,space,19.0014,a,1,4.8416,"[""0.197"",""0.780"",""0.913"",""0.962""]","[1,0,1,1]",0,0,0,0,1,0,0,,,0,FALSE,,,,,,,,,,,,,,,,,,,,,,,,,,,,,,,
,613aa083471f32340562774d,627c6ffaae0fb064bc6153ed,2022-05-11_21h26.51.932,classification_task,2021.2.3,Linux x86_64,60.07810153,627c6715c52fd12f31907bd0,,,,,,,,,,,,,,,,,,,,,,,l,1,3.4209,"[""0.066"",""0.236"",""0.522"",""0.586""]","[1,1,1,0]",0,1,1,1,1,1,0,,,0,FALSE,,,,,,,,,,,,,,,,,,,,,,,,,,,,,,,
,613aa083471f32340562774d,627c6ffaae0fb064bc6153ed,2022-05-11_21h26.51.932,classification_task,2021.2.3,Linux x86_64,60.07810153,627c6715c52fd12f31907bd0,,,,,,,,,,,,,,,,,,,,,,,a,1,5.1347,"[""0.163"",""0.425"",""0.584"",""0.863""]","[1,1,0,1]",0,2,2,2,1,0,1,,,0,FALSE,,,,,,,,,,,,,,,,,,,,,,,,,,,,,,,
,613aa083471f32340562774d,627c6ffaae0fb064bc6153ed,2022-05-11_21h26.51.932,classification_task,2021.2.3,Linux x86_64,60.07810153,627c6715c52fd12f31907bd0,,,,,,,,,,,,,,,,,,,,,,,l,1,9.3618,"[""0.729"",""0.330"",""0.471"",""0.821""]","[0,1,1,1]",0,3,3,3,1,1,1,,,0,FALSE,,,,,,,,,,,,,,,,,,,,,,,,,,,,,,,
,613aa083471f32340562774d,627c6ffaae0fb064bc6153ed,2022-05-11_21h26.51.932,classification_task,2021.2.3,Linux x86_64,60.07810153,627c6715c52fd12f31907bd0,,,,,,,,,,,,,,,,,,,,,,,l,1,6.4135,"[""0.127"",""0.330"",""0.471"",""0.030""]","[1,1,1,0]",0,4,4,4,1,1,1,,,0,FALSE,,,,,,,,,,,,,,,,,,,,,,,,,,,,,,,
,613aa083471f32340562774d,627c6ffaae0fb064bc6153ed,2022-05-11_21h26.51.932,classification_task,2021.2.3,Linux x86_64,60.07810153,627c6715c52fd12f31907bd0,,,,,,,,,,,,,,,,,,,,,,,a,1,5.9896,"[""0.575"",""0.425"",""0.641"",""0.863""]","[0,1,1,1]",0,5,5,5,1,0,1,,,0,FALSE,,,,,,,,,,,,,,,,,,,,,,,,,,,,,,,
,613aa083471f32340562774d,627c6ffaae0fb064bc6153ed,2022-05-11_21h26.51.932,classification_task,2021.2.3,Linux x86_64,60.07810153,627c6715c52fd12f31907bd0,,,,,,,,,,,,,,,,,,,,,,,l,1,9.0757,"[""0.066"",""0.236"",""0.030"",""0.696""]","[1,1,0,1]",0,6,6,6,1,1,0,,,0,FALSE,,,,,,,,,,,,,,,,,,,,,,,,,,,,,,,
,613aa083471f32340562774d,627c6ffaae0fb064bc6153ed,2022-05-11_21h26.51.932,classification_task,2021.2.3,Linux x86_64,60.07810153,627c6715c52fd12f31907bd0,,,,,,,,,,,,,,,,,,,,,,,l,1,5.4841,"[""0.586"",""0.236"",""0.522"",""0.696""]","[0,1,1,1]",0,7,7,7,1,1,0,,,0,FALSE,,,,,,,,,,,,,,,,,,,,,,,,,,,,,,,
,613aa083471f32340562774d,627c6ffaae0fb064bc6153ed,2022-05-11_21h26.51.932,classification_task,2021.2.3,Linux x86_64,60.07810153,627c6715c52fd12f31907bd0,,,,,,,,,,,,,,,,,,,,,,,l,1,7.7117,"[""0.066"",""0.601"",""0.522"",""0.696""]","[1,0,1,1]",0,8,8,8,1,1,0,,,0,FALSE,,,,,,,,,,,,,,,,,,,,,,,,,,,,,,,
,613aa083471f32340562774d,627c6ffaae0fb064bc6153ed,2022-05-11_21h26.51.932,classification_task,2021.2.3,Linux x86_64,60.07810153,627c6715c52fd12f31907bd0,,,,,,,,,,,,,,,,,,,,,,,a,1,5.1809,"[""0.562"",""0.376"",""0.913"",""0.962""]","[0,1,1,1]",0,9,9,9,1,0,0,,,0,FALSE,,,,,,,,,,,,,,,,,,,,,,,,,,,,,,,
,613aa083471f32340562774d,627c6ffaae0fb064bc6153ed,2022-05-11_21h26.51.932,classification_task,2021.2.3,Linux x86_64,60.07810153,627c6715c52fd12f31907bd0,,,,,,,,,,,,,,,,,,,,,,,l,1,5.4,"[""0.127"",""0.030"",""0.471"",""0.821""]","[1,0,1,1]",0,10,10,10,1,1,1,,,0,FALSE,,,,,,,,,,,,,,,,,,,,,,,,,,,,,,,
,613aa083471f32340562774d,627c6ffaae0fb064bc6153ed,2022-05-11_21h26.51.932,classification_task,2021.2.3,Linux x86_64,60.07810153,627c6715c52fd12f31907bd0,,,,,,,,,,,,,,,,,,,,,,,l,0,8.6644,"[""0.163"",""0.281"",""0.641"",""0.863""]","[1,0,1,1]",0,11,11,11,1,0,1,,,0,FALSE,,,,,,,,,,,,,,,,,,,,,,,,,,,,,,,
,613aa083471f32340562774d,627c6ffaae0fb064bc6153ed,2022-05-11_21h26.51.932,classification_task,2021.2.3,Linux x86_64,60.07810153,627c6715c52fd12f31907bd0,,,,,,,,,,,,,,,,,,,,,,,a,1,5.6963,"[""0.197"",""0.376"",""0.562"",""0.962""]","[1,1,0,1]",0,12,12,12,1,0,0,,,0,FALSE,,,,,,,,,,,,,,,,,,,,,,,,,,,,,,,
,613aa083471f32340562774d,627c6ffaae0fb064bc6153ed,2022-05-11_21h26.51.932,classification_task,2021.2.3,Linux x86_64,60.07810153,627c6715c52fd12f31907bd0,,,,,,,,,,,,,,,,,,,,,,,a,1,6.4971,"[""0.163"",""0.425"",""0.641"",""0.586""]","[1,1,1,0]",0,13,13,13,1,0,1,,,0,FALSE,,,,,,,,,,,,,,,,,,,,,,,,,,,,,,,
,613aa083471f32340562774d,627c6ffaae0fb064bc6153ed,2022-05-11_21h26.51.932,classification_task,2021.2.3,Linux x86_64,60.07810153,627c6715c52fd12f31907bd0,,,,,,,,,,,,,,,,,,,,,,,l,1,4.8999,"[""0.127"",""0.330"",""0.556"",""0.821""]","[1,1,0,1]",0,14,14,14,1,1,1,,,0,FALSE,,,,,,,,,,,,,,,,,,,,,,,,,,,,,,,
,613aa083471f32340562774d,627c6ffaae0fb064bc6153ed,2022-05-11_21h26.51.932,classification_task,2021.2.3,Linux x86_64,60.07810153,627c6715c52fd12f31907bd0,,,,,,,,,,,,,,,,,,,,,,,a,1,5.2768,"[""0.197"",""0.376"",""0.913"",""0.782""]","[1,1,1,0]",0,15,15,15,1,0,0,,,0,FALSE,,,,,,,,,,,,,,,,,,,,,,,,,,,,,,,
,613aa083471f32340562774d,627c6ffaae0fb064bc6153ed,2022-05-11_21h26.51.932,classification_task,2021.2.3,Linux x86_64,60.07810153,627c6715c52fd12f31907bd0,,,,,,,,,,,,,,,,,,,,,,,a,1,8.5825,"[""0.163"",""0.589"",""0.641"",""0.863""]","[1,0,1,1]",0,16,16,16,1,0,1,,,0,FALSE,,,,,,,,,,,,,,,,,,,,,,,,,,,,,,,
,613aa083471f32340562774d,627c6ffaae0fb064bc6153ed,2022-05-11_21h26.51.932,classification_task,2021.2.3,Linux x86_64,60.07810153,627c6715c52fd12f31907bd0,,,,,,,,,,,,,,,,,,,,,,,a,1,4.9108,"[""0.163"",""0.425"",""0.641"",""0.586""]","[1,1,1,0]",0,17,17,17,1,0,1,,,0,FALSE,,,,,,,,,,,,,,,,,,,,,,,,,,,,,,,
,613aa083471f32340562774d,627c6ffaae0fb064bc6153ed,2022-05-11_21h26.51.932,classification_task,2021.2.3,Linux x86_64,60.07810153,627c6715c52fd12f31907bd0,,,,,,,,,,,,,,,,,,,,,,,a,1,8.3365,"[""0.197"",""0.281"",""0.913"",""0.962""]","[1,0,1,1]",0,18,18,18,1,0,0,,,0,FALSE,,,,,,,,,,,,,,,,,,,,,,,,,,,,,,,
,613aa083471f32340562774d,627c6ffaae0fb064bc6153ed,2022-05-11_21h26.51.932,classification_task,2021.2.3,Linux x86_64,60.07810153,627c6715c52fd12f31907bd0,,,,,,,,,,,,,,,,,,,,,,,a,1,3.9372,"[""0.197"",""0.376"",""0.913"",""0.561""]","[1,1,1,0]",0,19,19,19,1,0,0,,,0,FALSE,,,,,,,,,,,,,,,,,,,,,,,,,,,,,,,
,613aa083471f32340562774d,627c6ffaae0fb064bc6153ed,2022-05-11_21h26.51.932,classification_task,2021.2.3,Linux x86_64,60.07810153,627c6715c52fd12f31907bd0,,,,,,,,,,,,,,,,,,,,,,,l,1,2.4992,"[""0.066"",""0.236"",""0.522"",""0.595""]","[1,1,1,0]",0,20,20,20,1,1,0,,,0,FALSE,,,,,,,,,,,,,,,,,,,,,,,,,,,,,,,
,613aa083471f32340562774d,627c6ffaae0fb064bc6153ed,2022-05-11_21h26.51.932,classification_task,2021.2.3,Linux x86_64,60.07810153,627c6715c52fd12f31907bd0,,,,,,,,,,,,,,,,,,,,,,,a,1,3.3959,"[""0.589"",""0.376"",""0.913"",""0.962""]","[0,1,1,1]",0,21,21,21,1,0,0,,,0,FALSE,,,,,,,,,,,,,,,,,,,,,,,,,,,,,,,
,613aa083471f32340562774d,627c6ffaae0fb064bc6153ed,2022-05-11_21h26.51.932,classification_task,2021.2.3,Linux x86_64,60.07810153,627c6715c52fd12f31907bd0,,,,,,,,,,,,,,,,,,,,,,,l,1,2.5174,"[""0.066"",""0.586"",""0.522"",""0.696""]","[1,0,1,1]",0,22,22,22,1,1,0,,,0,FALSE,,,,,,,,,,,,,,,,,,,,,,,,,,,,,,,
,613aa083471f32340562774d,627c6ffaae0fb064bc6153ed,2022-05-11_21h26.51.932,classification_task,2021.2.3,Linux x86_64,60.07810153,627c6715c52fd12f31907bd0,,,,,,,,,,,,,,,,,,,,,,,a,1,2.9356,"[""0.197"",""0.376"",""0.595"",""0.962""]","[1,1,0,1]",0,23,23,23,1,0,0,,,0,FALSE,,,,,,,,,,,,,,,,,,,,,,,,,,,,,,,
,613aa083471f32340562774d,627c6ffaae0fb064bc6153ed,2022-05-11_21h26.51.932,classification_task,2021.2.3,Linux x86_64,60.07810153,627c6715c52fd12f31907bd0,,,,,,,,,,,,,,,,,,,,,,,l,1,5.8349,"[""0.127"",""0.330"",""0.290"",""0.821""]","[1,1,0,1]",0,24,24,24,1,1,1,,,0,FALSE,,,,,,,,,,,,,,,,,,,,,,,,,,,,,,,
,613aa083471f32340562774d,627c6ffaae0fb064bc6153ed,2022-05-11_21h26.51.932,classification_task,2021.2.3,Linux x86_64,60.07810153,627c6715c52fd12f31907bd0,,,,,,,,,,,,,,,,,,,,,,,l,1,2.2042,"[""0.066"",""0.236"",""0.595"",""0.696""]","[1,1,0,1]",0,25,25,25,1,1,0,,,0,FALSE,,,,,,,,,,,,,,,,,,,,,,,,,,,,,,,
,613aa083471f32340562774d,627c6ffaae0fb064bc6153ed,2022-05-11_21h26.51.932,classification_task,2021.2.3,Linux x86_64,60.07810153,627c6715c52fd12f31907bd0,,,,,,,,,,,,,,,,,,,,,,,a,1,8.4616,"[""0.575"",""0.425"",""0.641"",""0.863""]","[0,1,1,1]",0,26,26,26,1,0,1,,,0,FALSE,,,,,,,,,,,,,,,,,,,,,,,,,,,,,,,
,613aa083471f32340562774d,627c6ffaae0fb064bc6153ed,2022-05-11_21h26.51.932,classification_task,2021.2.3,Linux x86_64,60.07810153,627c6715c52fd12f31907bd0,,,,,,,,,,,,,,,,,,,,,,,l,1,4.7999,"[""0.575"",""0.330"",""0.471"",""0.821""]","[0,1,1,1]",0,27,27,27,1,1,1,,,0,FALSE,,,,,,,,,,,,,,,,,,,,,,,,,,,,,,,
,613aa083471f32340562774d,627c6ffaae0fb064bc6153ed,2022-05-11_21h26.51.932,classification_task,2021.2.3,Linux x86_64,60.07810153,627c6715c52fd12f31907bd0,,,,,,,,,,,,,,,,,,,,,,,l,1,5.6093,"[""0.281"",""0.236"",""0.522"",""0.696""]","[0,1,1,1]",0,28,28,28,1,1,0,,,0,FALSE,,,,,,,,,,,,,,,,,,,,,,,,,,,,,,,
,613aa083471f32340562774d,627c6ffaae0fb064bc6153ed,2022-05-11_21h26.51.932,classification_task,2021.2.3,Linux x86_64,60.07810153,627c6715c52fd12f31907bd0,,,,,,,,,,,,,,,,,,,,,,,l,1,5.2359,"[""0.127"",""0.589"",""0.471"",""0.821""]","[1,0,1,1]",0,29,29,29,1,1,1,,,0,FALSE,,,,,,,,,,,,,,,,,,,,,,,,,,,,,,,
,613aa083471f32340562774d,627c6ffaae0fb064bc6153ed,2022-05-11_21h26.51.932,classification_task,2021.2.3,Linux x86_64,60.07810153,627c6715c52fd12f31907bd0,,,,,,,,,,,,,,,,,,,,,,,l,1,9.9165,"[""0.127"",""0.330"",""0.471"",""0.729""]","[1,1,1,0]",0,30,30,30,1,1,1,,,0,FALSE,,,,,,,,,,,,,,,,,,,,,,,,,,,,,,,
,613aa083471f32340562774d,627c6ffaae0fb064bc6153ed,2022-05-11_21h26.51.932,classification_task,2021.2.3,Linux x86_64,60.07810153,627c6715c52fd12f31907bd0,,,,,,,,,,,,,,,,,,,,,,,a,1,9.4722,"[""0.163"",""0.425"",""0.749"",""0.863""]","[1,1,0,1]",0,31,31,31,1,0,1,,,0,FALSE,,,,,,,,,,,,,,,,,,,,,,,,,,,,,,,
,613aa083471f32340562774d,627c6ffaae0fb064bc6153ed,2022-05-11_21h26.51.932,classification_task,2021.2.3,Linux x86_64,60.07810153,627c6715c52fd12f31907bd0,,,,,,,,,,,,,,,,,,,,,,,a,0,7.4026,"[""0.127"",""0.586"",""0.471"",""0.821""]","[1,0,1,1]",0,32,32,32,1,1,1,,,0,FALSE,,,,,,,,,,,,,,,,,,,,,,,,,,,,,,,
,613aa083471f32340562774d,627c6ffaae0fb064bc6153ed,2022-05-11_21h26.51.932,classification_task,2021.2.3,Linux x86_64,60.07810153,627c6715c52fd12f31907bd0,,,,,,,,,,,,,,,,,,,,,,,l,0,3.1567,"[""0.163"",""0.425"",""0.641"",""0.595""]","[1,1,1,0]",0,33,33,33,1,0,1,,,0,FALSE,,,,,,,,,,,,,,,,,,,,,,,,,,,,,,,
,613aa083471f32340562774d,627c6ffaae0fb064bc6153ed,2022-05-11_21h26.51.932,classification_task,2021.2.3,Linux x86_64,60.07810153,627c6715c52fd12f31907bd0,,,,,,,,,,,,,,,,,,,,,,,l,0,3.6398,"[""0.163"",""0.425"",""0.780"",""0.863""]","[1,1,0,1]",0,34,34,34,1,0,1,,,0,FALSE,,,,,,,,,,,,,,,,,,,,,,,,,,,,,,,
,613aa083471f32340562774d,627c6ffaae0fb064bc6153ed,2022-05-11_21h26.51.932,classification_task,2021.2.3,Linux x86_64,60.07810153,627c6715c52fd12f31907bd0,,,,,,,,,,,,,,,,,,,,,,,a,1,4.0049,"[""0.163"",""0.595"",""0.641"",""0.863""]","[1,0,1,1]",0,35,35,35,1,0,1,,,0,FALSE,,,,,,,,,,,,,,,,,,,,,,,,,,,,,,,
,613aa083471f32340562774d,627c6ffaae0fb064bc6153ed,2022-05-11_21h26.51.932,classification_task,2021.2.3,Linux x86_64,60.07810153,627c6715c52fd12f31907bd0,,,,,,,,,,,,,,,,,,,,,,,l,0,1.7179,"[""0.030"",""0.425"",""0.641"",""0.863""]","[0,1,1,1]",0,36,36,36,1,0,1,,,0,FALSE,,,,,,,,,,,,,,,,,,,,,,,,,,,,,,,
,613aa083471f32340562774d,627c6ffaae0fb064bc6153ed,2022-05-11_21h26.51.932,classification_task,2021.2.3,Linux x86_64,60.07810153,627c6715c52fd12f31907bd0,,,,,,,,,,,,,,,,,,,,,,,a,1,4.7935,"[""0.197"",""0.030"",""0.913"",""0.962""]","[1,0,1,1]",0,37,37,37,1,0,0,,,0,FALSE,,,,,,,,,,,,,,,,,,,,,,,,,,,,,,,
,613aa083471f32340562774d,627c6ffaae0fb064bc6153ed,2022-05-11_21h26.51.932,classification_task,2021.2.3,Linux x86_64,60.07810153,627c6715c52fd12f31907bd0,,,,,,,,,,,,,,,,,,,,,,,l,0,2.5113,"[""0.197"",""0.376"",""0.595"",""0.962""]","[1,1,0,1]",0,38,38,38,1,0,0,,,0,FALSE,,,,,,,,,,,,,,,,,,,,,,,,,,,,,,,
,613aa083471f32340562774d,627c6ffaae0fb064bc6153ed,2022-05-11_21h26.51.932,classification_task,2021.2.3,Linux x86_64,60.07810153,627c6715c52fd12f31907bd0,,,,,,,,,,,,,,,,,,,,,,,a,0,4.5786,"[""0.066"",""0.236"",""0.522"",""0.782""]","[1,1,1,0]",0,39,39,39,1,1,0,,,0,FALSE,,,,,,,,,,,,,,,,,,,,,,,,,,,,,,,
,613aa083471f32340562774d,627c6ffaae0fb064bc6153ed,2022-05-11_21h26.51.932,classification_task,2021.2.3,Linux x86_64,60.07810153,627c6715c52fd12f31907bd0,,,,,,,,,,,,,,,,,,,,,,,l,1,5.5905,"[""0.066"",""0.575"",""0.522"",""0.696""]","[1,0,1,1]",0,40,40,40,1,1,0,,,0,FALSE,,,,,,,,,,,,,,,,,,,,,,,,,,,,,,,
,613aa083471f32340562774d,627c6ffaae0fb064bc6153ed,2022-05-11_21h26.51.932,classification_task,2021.2.3,Linux x86_64,60.07810153,627c6715c52fd12f31907bd0,,,,,,,,,,,,,,,,,,,,,,,a,1,2.5846,"[""0.601"",""0.376"",""0.913"",""0.962""]","[0,1,1,1]",0,41,41,41,1,0,0,,,0,FALSE,,,,,,,,,,,,,,,,,,,,,,,,,,,,,,,
,613aa083471f32340562774d,627c6ffaae0fb064bc6153ed,2022-05-11_21h26.51.932,classification_task,2021.2.3,Linux x86_64,60.07810153,627c6715c52fd12f31907bd0,,,,,,,,,,,,,,,,,,,,,,,l,1,2.3923,"[""0.127"",""0.330"",""0.471"",""0.561""]","[1,1,1,0]",0,42,42,42,1,1,1,,,0,FALSE,,,,,,,,,,,,,,,,,,,,,,,,,,,,,,,
,613aa083471f32340562774d,627c6ffaae0fb064bc6153ed,2022-05-11_21h26.51.932,classification_task,2021.2.3,Linux x86_64,60.07810153,627c6715c52fd12f31907bd0,,,,,,,,,,,,,,,,,,,,,,,a,0,3.315,"[""0.066"",""0.236"",""0.281"",""0.696""]","[1,1,0,1]",0,43,43,43,1,1,0,,,0,FALSE,,,,,,,,,,,,,,,,,,,,,,,,,,,,,,,
,613aa083471f32340562774d,627c6ffaae0fb064bc6153ed,2022-05-11_21h26.51.932,classification_task,2021.2.3,Linux x86_64,60.07810153,627c6715c52fd12f31907bd0,,,,,,,,,,,,,,,,,,,,,,,a,0,2.2628,"[""0.561"",""0.236"",""0.522"",""0.696""]","[0,1,1,1]",0,44,44,44,1,1,0,,,0,FALSE,,,,,,,,,,,,,,,,,,,,,,,,,,,,,,,
,613aa083471f32340562774d,627c6ffaae0fb064bc6153ed,2022-05-11_21h26.51.932,classification_task,2021.2.3,Linux x86_64,60.07810153,627c6715c52fd12f31907bd0,,,,,,,,,,,,,,,,,,,,,,,l,1,1.5946,"[""0.281"",""0.330"",""0.471"",""0.821""]","[0,1,1,1]",0,45,45,45,1,1,1,,,0,FALSE,,,,,,,,,,,,,,,,,,,,,,,,,,,,,,,
,613aa083471f32340562774d,627c6ffaae0fb064bc6153ed,2022-05-11_21h26.51.932,classification_task,2021.2.3,Linux x86_64,60.07810153,627c6715c52fd12f31907bd0,,,,,,,,,,,,,,,,,,,,,,,a,1,1.5238,"[""0.197"",""0.376"",""0.913"",""0.562""]","[1,1,1,0]",0,46,46,46,1,0,0,,,0,FALSE,,,,,,,,,,,,,,,,,,,,,,,,,,,,,,,
,613aa083471f32340562774d,627c6ffaae0fb064bc6153ed,2022-05-11_21h26.51.932,classification_task,2021.2.3,Linux x86_64,60.07810153,627c6715c52fd12f31907bd0,,,,,,,,,,,,,,,,,,,,,,,l,1,5.0485,"[""0.127"",""0.330"",""0.281"",""0.821""]","[1,1,0,1]",0,47,47,47,1,1,1,,,0,FALSE,,,,,,,,,,,,,,,,,,,,,,,,,,,,,,,
,613aa083471f32340562774d,627c6ffaae0fb064bc6153ed,2022-05-11_21h26.51.932,classification_task,2021.2.3,Linux x86_64,60.07810153,627c6715c52fd12f31907bd0,,,,,,,,,,,,,,,,,,,,,,,a,1,2.0375,"[""0.163"",""0.556"",""0.641"",""0.863""]","[1,0,1,1]",0,48,48,48,1,0,1,,,0,FALSE,,,,,,,,,,,,,,,,,,,,,,,,,,,,,,,
,613aa083471f32340562774d,627c6ffaae0fb064bc6153ed,2022-05-11_21h26.51.932,classification_task,2021.2.3,Linux x86_64,60.07810153,627c6715c52fd12f31907bd0,,,,,,,,,,,,,,,,,,,,,,,l,0,2.041,"[""0.197"",""0.780"",""0.913"",""0.962""]","[1,0,1,1]",0,49,49,49,1,0,0,,,0,FALSE,,,,,,,,,,,,,,,,,,,,,,,,,,,,,,,
,613aa083471f32340562774d,627c6ffaae0fb064bc6153ed,2022-05-11_21h26.51.932,classification_task,2021.2.3,Linux x86_64,60.07810153,627c6715c52fd12f31907bd0,,,,,,,,,,,,,,,,,,,,,,,a,0,1.4677,"[""0.586"",""0.236"",""0.522"",""0.696""]","[0,1,1,1]",0,50,50,50,1,1,0,,,0,FALSE,,,,,,,,,,,,,,,,,,,,,,,,,,,,,,,
,613aa083471f32340562774d,627c6ffaae0fb064bc6153ed,2022-05-11_21h26.51.932,classification_task,2021.2.3,Linux x86_64,60.07810153,627c6715c52fd12f31907bd0,,,,,,,,,,,,,,,,,,,,,,,l,0,3.3174,"[""0.163"",""0.425"",""0.641"",""0.729""]","[1,1,1,0]",0,51,51,51,1,0,1,,,0,FALSE,,,,,,,,,,,,,,,,,,,,,,,,,,,,,,,
,613aa083471f32340562774d,627c6ffaae0fb064bc6153ed,2022-05-11_21h26.51.932,classification_task,2021.2.3,Linux x86_64,60.07810153,627c6715c52fd12f31907bd0,,,,,,,,,,,,,,,,,,,,,,,a,0,3.5815,"[""0.127"",""0.330"",""0.281"",""0.821""]","[1,1,0,1]",0,52,52,52,1,1,1,,,0,FALSE,,,,,,,,,,,,,,,,,,,,,,,,,,,,,,,
,613aa083471f32340562774d,627c6ffaae0fb064bc6153ed,2022-05-11_21h26.51.932,classification_task,2021.2.3,Linux x86_64,60.07810153,627c6715c52fd12f31907bd0,,,,,,,,,,,,,,,,,,,,,,,a,0,1.0952,"[""0.127"",""0.330"",""0.471"",""0.562""]","[1,1,1,0]",0,53,53,53,1,1,1,,,0,FALSE,,,,,,,,,,,,,,,,,,,,,,,,,,,,,,,
,613aa083471f32340562774d,627c6ffaae0fb064bc6153ed,2022-05-11_21h26.51.932,classification_task,2021.2.3,Linux x86_64,60.07810153,627c6715c52fd12f31907bd0,,,,,,,,,,,,,,,,,,,,,,,l,1,0.9009,"[""0.066"",""0.575"",""0.522"",""0.696""]","[1,0,1,1]",0,54,54,54,1,1,0,,,0,FALSE,,,,,,,,,,,,,,,,,,,,,,,,,,,,,,,
,613aa083471f32340562774d,627c6ffaae0fb064bc6153ed,2022-05-11_21h26.51.932,classification_task,2021.2.3,Linux x86_64,60.07810153,627c6715c52fd12f31907bd0,,,,,,,,,,,,,,,,,,,,,,,l,0,3.7488,"[""0.197"",""0.376"",""0.913"",""0.586""]","[1,1,1,0]",0,55,55,55,1,0,0,,,0,FALSE,,,,,,,,,,,,,,,,,,,,,,,,,,,,,,,
,613aa083471f32340562774d,627c6ffaae0fb064bc6153ed,2022-05-11_21h26.51.932,classification_task,2021.2.3,Linux x86_64,60.07810153,627c6715c52fd12f31907bd0,,,,,,,,,,,,,,,,,,,,,,,a,0,4.0277,"[""0.127"",""0.575"",""0.471"",""0.821""]","[1,0,1,1]",0,56,56,56,1,1,1,,,0,FALSE,,,,,,,,,,,,,,,,,,,,,,,,,,,,,,,
,613aa083471f32340562774d,627c6ffaae0fb064bc6153ed,2022-05-11_21h26.51.932,classification_task,2021.2.3,Linux x86_64,60.07810153,627c6715c52fd12f31907bd0,,,,,,,,,,,,,,,,,,,,,,,a,1,1.0184,"[""0.163"",""0.425"",""0.562"",""0.863""]","[1,1,0,1]",0,57,57,57,1,0,1,,,0,FALSE,,,,,,,,,,,,,,,,,,,,,,,,,,,,,,,
,613aa083471f32340562774d,627c6ffaae0fb064bc6153ed,2022-05-11_21h26.51.932,classification_task,2021.2.3,Linux x86_64,60.07810153,627c6715c52fd12f31907bd0,,,,,,,,,,,,,,,,,,,,,,,a,0,2.5221,"[""0.066"",""0.236"",""0.522"",""0.556""]","[1,1,1,0]",0,58,58,58,1,1,0,,,0,FALSE,,,,,,,,,,,,,,,,,,,,,,,,,,,,,,,
,613aa083471f32340562774d,627c6ffaae0fb064bc6153ed,2022-05-11_21h26.51.932,classification_task,2021.2.3,Linux x86_64,60.07810153,627c6715c52fd12f31907bd0,,,,,,,,,,,,,,,,,,,,,,,l,0,2.0493,"[""0.586"",""0.425"",""0.641"",""0.863""]","[0,1,1,1]",0,59,59,59,1,0,1,,,0,FALSE,,,,,,,,,,,,,,,,,,,,,,,,,,,,,,,
,613aa083471f32340562774d,627c6ffaae0fb064bc6153ed,2022-05-11_21h26.51.932,classification_task,2021.2.3,Linux x86_64,60.07810153,627c6715c52fd12f31907bd0,,,,,,,,,,,,,,,,,,,,,,,l,0,2.9204,"[""0.601"",""0.376"",""0.913"",""0.962""]","[0,1,1,1]",0,60,60,60,1,0,0,,,0,FALSE,,,,,,,,,,,,,,,,,,,,,,,,,,,,,,,
,613aa083471f32340562774d,627c6ffaae0fb064bc6153ed,2022-05-11_21h26.51.932,classification_task,2021.2.3,Linux x86_64,60.07810153,627c6715c52fd12f31907bd0,,,,,,,,,,,,,,,,,,,,,,,a,1,2.536,"[""0.197"",""0.376"",""0.281"",""0.962""]","[1,1,0,1]",0,61,61,61,1,0,0,,,0,FALSE,,,,,,,,,,,,,,,,,,,,,,,,,,,,,,,
,613aa083471f32340562774d,627c6ffaae0fb064bc6153ed,2022-05-11_21h26.51.932,classification_task,2021.2.3,Linux x86_64,60.07810153,627c6715c52fd12f31907bd0,,,,,,,,,,,,,,,,,,,,,,,a,0,4.4422,"[""0.066"",""0.236"",""0.290"",""0.696""]","[1,1,0,1]",0,62,62,62,1,1,0,,,0,FALSE,,,,,,,,,,,,,,,,,,,,,,,,,,,,,,,
,613aa083471f32340562774d,627c6ffaae0fb064bc6153ed,2022-05-11_21h26.51.932,classification_task,2021.2.3,Linux x86_64,60.07810153,627c6715c52fd12f31907bd0,,,,,,,,,,,,,,,,,,,,,,,a,0,2.2183,"[""0.281"",""0.330"",""0.471"",""0.821""]","[0,1,1,1]",0,63,63,63,1,1,1,,,0,FALSE,,,,,,,,,,,,,,,,,,,,,,,,,,,,,,,
,613aa083471f32340562774d,627c6ffaae0fb064bc6153ed,2022-05-11_21h26.51.932,classification_task,2021.2.3,Linux x86_64,60.07810153,627c6715c52fd12f31907bd0,,,,,,,,,,,,,,,,,,,,,,,,,,,,,,,,,,,,,,,0, ,,0,0,530.1359,0,0,0,0,1,2,1,,,,,,,,,,,,,,,,,,
,613aa083471f32340562774d,627c6ffaae0fb064bc6153ed,2022-05-11_21h26.51.932,classification_task,2021.2.3,Linux x86_64,60.07810153,627c6715c52fd12f31907bd0,,,,,,,,,,,,,,,,,,,,,,,,,,,,,,,,,,,,,,,1,  ,,0,10,541.341,0,0,0,0,1,2,1,,,,,,,,,,,,,,,,,,
,613aa083471f32340562774d,627c6ffaae0fb064bc6153ed,2022-05-11_21h26.51.932,classification_task,2021.2.3,Linux x86_64,60.07810153,627c6715c52fd12f31907bd0,,,,,,,,,,,,,,,,,,,,,,,,,,,,,,,,,,,,,,,2,  ,,0,4.311233995,549.4963,0,0,0,0,1,2,1,,,,,,,,,,,,,,,,,,
,613aa083471f32340562774d,627c6ffaae0fb064bc6153ed,2022-05-11_21h26.51.932,classification_task,2021.2.3,Linux x86_64,60.07810153,627c6715c52fd12f31907bd0,,,,,,,,,,,,,,,,,,,,,,,,,,,,,,,,,,,,,,,,,,,,,0,0,0,0,1,,1,,,,,,,,,,,,,,,,,,
,613aa083471f32340562774d,627c6ffaae0fb064bc6153ed,2022-05-11_21h26.51.932,classification_task,2021.2.3,Linux x86_64,60.07810153,627c6715c52fd12f31907bd0,,,,,,,,,,,,,,,,,,,,,space,24.7196,l,1,1.1441,"[""0.729"",""0.236"",""0.522"",""0.696""]","[0,1,1,1]",0,0,0,0,1,1,0,,,0,FALSE,,,,,,,,,,,,,,,,,,,,,,,,,,,,,,,
,613aa083471f32340562774d,627c6ffaae0fb064bc6153ed,2022-05-11_21h26.51.932,classification_task,2021.2.3,Linux x86_64,60.07810153,627c6715c52fd12f31907bd0,,,,,,,,,,,,,,,,,,,,,,,a,1,0.8305,"[""0.556"",""0.376"",""0.913"",""0.962""]","[0,1,1,1]",0,1,1,1,1,0,0,,,0,FALSE,,,,,,,,,,,,,,,,,,,,,,,,,,,,,,,
,613aa083471f32340562774d,627c6ffaae0fb064bc6153ed,2022-05-11_21h26.51.932,classification_task,2021.2.3,Linux x86_64,60.07810153,627c6715c52fd12f31907bd0,,,,,,,,,,,,,,,,,,,,,,,l,0,3.6095,"[""0.163"",""0.425"",""0.641"",""0.729""]","[1,1,1,0]",0,2,2,2,1,0,1,,,0,FALSE,,,,,,,,,,,,,,,,,,,,,,,,,,,,,,,
,613aa083471f32340562774d,627c6ffaae0fb064bc6153ed,2022-05-11_21h26.51.932,classification_task,2021.2.3,Linux x86_64,60.07810153,627c6715c52fd12f31907bd0,,,,,,,,,,,,,,,,,,,,,,,a,0,1.2601,"[""0.127"",""0.330"",""0.471"",""0.562""]","[1,1,1,0]",0,3,3,3,1,1,1,,,0,FALSE,,,,,,,,,,,,,,,,,,,,,,,,,,,,,,,
,613aa083471f32340562774d,627c6ffaae0fb064bc6153ed,2022-05-11_21h26.51.932,classification_task,2021.2.3,Linux x86_64,60.07810153,627c6715c52fd12f31907bd0,,,,,,,,,,,,,,,,,,,,,,,l,0,3.0593,"[""0.163"",""0.601"",""0.641"",""0.863""]","[1,0,1,1]",0,4,4,4,1,0,1,,,0,FALSE,,,,,,,,,,,,,,,,,,,,,,,,,,,,,,,
,613aa083471f32340562774d,627c6ffaae0fb064bc6153ed,2022-05-11_21h26.51.932,classification_task,2021.2.3,Linux x86_64,60.07810153,627c6715c52fd12f31907bd0,,,,,,,,,,,,,,,,,,,,,,,l,1,1.547,"[""0.127"",""0.330"",""0.562"",""0.821""]","[1,1,0,1]",0,5,5,5,1,1,1,,,0,FALSE,,,,,,,,,,,,,,,,,,,,,,,,,,,,,,,
,613aa083471f32340562774d,627c6ffaae0fb064bc6153ed,2022-05-11_21h26.51.932,classification_task,2021.2.3,Linux x86_64,60.07810153,627c6715c52fd12f31907bd0,,,,,,,,,,,,,,,,,,,,,,,a,1,4.208,"[""0.197"",""0.601"",""0.913"",""0.962""]","[1,0,1,1]",0,6,6,6,1,0,0,,,0,FALSE,,,,,,,,,,,,,,,,,,,,,,,,,,,,,,,
,613aa083471f32340562774d,627c6ffaae0fb064bc6153ed,2022-05-11_21h26.51.932,classification_task,2021.2.3,Linux x86_64,60.07810153,627c6715c52fd12f31907bd0,,,,,,,,,,,,,,,,,,,,,,,l,1,3.4663,"[""0.066"",""0.236"",""0.522"",""0.601""]","[1,1,1,0]",0,7,7,7,1,1,0,,,0,FALSE,,,,,,,,,,,,,,,,,,,,,,,,,,,,,,,
,613aa083471f32340562774d,627c6ffaae0fb064bc6153ed,2022-05-11_21h26.51.932,classification_task,2021.2.3,Linux x86_64,60.07810153,627c6715c52fd12f31907bd0,,,,,,,,,,,,,,,,,,,,,,,l,1,3.0142,"[""0.066"",""0.236"",""0.561"",""0.696""]","[1,1,0,1]",0,8,8,8,1,1,0,,,0,FALSE,,,,,,,,,,,,,,,,,,,,,,,,,,,,,,,
,613aa083471f32340562774d,627c6ffaae0fb064bc6153ed,2022-05-11_21h26.51.932,classification_task,2021.2.3,Linux x86_64,60.07810153,627c6715c52fd12f31907bd0,,,,,,,,,,,,,,,,,,,,,,,a,1,2.387,"[""0.197"",""0.376"",""0.913"",""0.556""]","[1,1,1,0]",0,9,9,9,1,0,0,,,0,FALSE,,,,,,,,,,,,,,,,,,,,,,,,,,,,,,,
,613aa083471f32340562774d,627c6ffaae0fb064bc6153ed,2022-05-11_21h26.51.932,classification_task,2021.2.3,Linux x86_64,60.07810153,627c6715c52fd12f31907bd0,,,,,,,,,,,,,,,,,,,,,,,l,1,2.0314,"[""0.127"",""0.749"",""0.471"",""0.821""]","[1,0,1,1]",0,10,10,10,1,1,1,,,0,FALSE,,,,,,,,,,,,,,,,,,,,,,,,,,,,,,,
,613aa083471f32340562774d,627c6ffaae0fb064bc6153ed,2022-05-11_21h26.51.932,classification_task,2021.2.3,Linux x86_64,60.07810153,627c6715c52fd12f31907bd0,,,,,,,,,,,,,,,,,,,,,,,l,1,2.2696,"[""0.589"",""0.330"",""0.471"",""0.821""]","[0,1,1,1]",0,11,11,11,1,1,1,,,0,FALSE,,,,,,,,,,,,,,,,,,,,,,,,,,,,,,,
,613aa083471f32340562774d,627c6ffaae0fb064bc6153ed,2022-05-11_21h26.51.932,classification_task,2021.2.3,Linux x86_64,60.07810153,627c6715c52fd12f31907bd0,,,,,,,,,,,,,,,,,,,,,,,l,1,1.6572,"[""0.066"",""0.601"",""0.522"",""0.696""]","[1,0,1,1]",0,12,12,12,1,1,0,,,0,FALSE,,,,,,,,,,,,,,,,,,,,,,,,,,,,,,,
,613aa083471f32340562774d,627c6ffaae0fb064bc6153ed,2022-05-11_21h26.51.932,classification_task,2021.2.3,Linux x86_64,60.07810153,627c6715c52fd12f31907bd0,,,,,,,,,,,,,,,,,,,,,,,a,1,0.98,"[""0.197"",""0.376"",""0.281"",""0.962""]","[1,1,0,1]",0,13,13,13,1,0,0,,,0,FALSE,,,,,,,,,,,,,,,,,,,,,,,,,,,,,,,
,613aa083471f32340562774d,627c6ffaae0fb064bc6153ed,2022-05-11_21h26.51.932,classification_task,2021.2.3,Linux x86_64,60.07810153,627c6715c52fd12f31907bd0,,,,,,,,,,,,,,,,,,,,,,,a,1,0.9308,"[""0.163"",""0.425"",""0.281"",""0.863""]","[1,1,0,1]",0,14,14,14,1,0,1,,,0,FALSE,,,,,,,,,,,,,,,,,,,,,,,,,,,,,,,
,613aa083471f32340562774d,627c6ffaae0fb064bc6153ed,2022-05-11_21h26.51.932,classification_task,2021.2.3,Linux x86_64,60.07810153,627c6715c52fd12f31907bd0,,,,,,,,,,,,,,,,,,,,,,,l,0,1.4672,"[""0.556"",""0.425"",""0.641"",""0.863""]","[0,1,1,1]",0,15,15,15,1,0,1,,,0,FALSE,,,,,,,,,,,,,,,,,,,,,,,,,,,,,,,
,613aa083471f32340562774d,627c6ffaae0fb064bc6153ed,2022-05-11_21h26.51.932,classification_task,2021.2.3,Linux x86_64,60.07810153,627c6715c52fd12f31907bd0,,,,,,,,,,,,,,,,,,,,,,,l,1,2.784,"[""0.066"",""0.236"",""0.782"",""0.696""]","[1,1,0,1]",0,16,16,16,1,1,0,,,0,FALSE,,,,,,,,,,,,,,,,,,,,,,,,,,,,,,,
,613aa083471f32340562774d,627c6ffaae0fb064bc6153ed,2022-05-11_21h26.51.932,classification_task,2021.2.3,Linux x86_64,60.07810153,627c6715c52fd12f31907bd0,,,,,,,,,,,,,,,,,,,,,,,a,1,1.9006,"[""0.197"",""0.376"",""0.913"",""0.556""]","[1,1,1,0]",0,17,17,17,1,0,0,,,0,FALSE,,,,,,,,,,,,,,,,,,,,,,,,,,,,,,,
,613aa083471f32340562774d,627c6ffaae0fb064bc6153ed,2022-05-11_21h26.51.932,classification_task,2021.2.3,Linux x86_64,60.07810153,627c6715c52fd12f31907bd0,,,,,,,,,,,,,,,,,,,,,,,l,1,2.3753,"[""0.586"",""0.330"",""0.471"",""0.821""]","[0,1,1,1]",0,18,18,18,1,1,1,,,0,FALSE,,,,,,,,,,,,,,,,,,,,,,,,,,,,,,,
,613aa083471f32340562774d,627c6ffaae0fb064bc6153ed,2022-05-11_21h26.51.932,classification_task,2021.2.3,Linux x86_64,60.07810153,627c6715c52fd12f31907bd0,,,,,,,,,,,,,,,,,,,,,,,a,1,2.2753,"[""0.281"",""0.376"",""0.913"",""0.962""]","[0,1,1,1]",0,19,19,19,1,0,0,,,0,FALSE,,,,,,,,,,,,,,,,,,,,,,,,,,,,,,,
,613aa083471f32340562774d,627c6ffaae0fb064bc6153ed,2022-05-11_21h26.51.932,classification_task,2021.2.3,Linux x86_64,60.07810153,627c6715c52fd12f31907bd0,,,,,,,,,,,,,,,,,,,,,,,l,1,3.2185,"[""0.749"",""0.236"",""0.522"",""0.696""]","[0,1,1,1]",0,20,20,20,1,1,0,,,0,FALSE,,,,,,,,,,,,,,,,,,,,,,,,,,,,,,,
,613aa083471f32340562774d,627c6ffaae0fb064bc6153ed,2022-05-11_21h26.51.932,classification_task,2021.2.3,Linux x86_64,60.07810153,627c6715c52fd12f31907bd0,,,,,,,,,,,,,,,,,,,,,,,a,0,2.1422,"[""0.127"",""0.330"",""0.471"",""0.586""]","[1,1,1,0]",0,21,21,21,1,1,1,,,0,FALSE,,,,,,,,,,,,,,,,,,,,,,,,,,,,,,,
,613aa083471f32340562774d,627c6ffaae0fb064bc6153ed,2022-05-11_21h26.51.932,classification_task,2021.2.3,Linux x86_64,60.07810153,627c6715c52fd12f31907bd0,,,,,,,,,,,,,,,,,,,,,,,a,1,3.0373,"[""0.197"",""0.376"",""0.030"",""0.962""]","[1,1,0,1]",0,22,22,22,1,0,0,,,0,FALSE,,,,,,,,,,,,,,,,,,,,,,,,,,,,,,,
,613aa083471f32340562774d,627c6ffaae0fb064bc6153ed,2022-05-11_21h26.51.932,classification_task,2021.2.3,Linux x86_64,60.07810153,627c6715c52fd12f31907bd0,,,,,,,,,,,,,,,,,,,,,,,l,1,1.972,"[""0.066"",""0.030"",""0.522"",""0.696""]","[1,0,1,1]",0,23,23,23,1,1,0,,,0,FALSE,,,,,,,,,,,,,,,,,,,,,,,,,,,,,,,
,613aa083471f32340562774d,627c6ffaae0fb064bc6153ed,2022-05-11_21h26.51.932,classification_task,2021.2.3,Linux x86_64,60.07810153,627c6715c52fd12f31907bd0,,,,,,,,,,,,,,,,,,,,,,,a,1,1.3694,"[""0.163"",""0.425"",""0.601"",""0.863""]","[1,1,0,1]",0,24,24,24,1,0,1,,,0,FALSE,,,,,,,,,,,,,,,,,,,,,,,,,,,,,,,
,613aa083471f32340562774d,627c6ffaae0fb064bc6153ed,2022-05-11_21h26.51.932,classification_task,2021.2.3,Linux x86_64,60.07810153,627c6715c52fd12f31907bd0,,,,,,,,,,,,,,,,,,,,,,,l,1,2.4358,"[""0.127"",""0.330"",""0.290"",""0.821""]","[1,1,0,1]",0,25,25,25,1,1,1,,,0,FALSE,,,,,,,,,,,,,,,,,,,,,,,,,,,,,,,
,613aa083471f32340562774d,627c6ffaae0fb064bc6153ed,2022-05-11_21h26.51.932,classification_task,2021.2.3,Linux x86_64,60.07810153,627c6715c52fd12f31907bd0,,,,,,,,,,,,,,,,,,,,,,,l,0,2.8691,"[""0.163"",""0.561"",""0.641"",""0.863""]","[1,0,1,1]",0,26,26,26,1,0,1,,,0,FALSE,,,,,,,,,,,,,,,,,,,,,,,,,,,,,,,
,613aa083471f32340562774d,627c6ffaae0fb064bc6153ed,2022-05-11_21h26.51.932,classification_task,2021.2.3,Linux x86_64,60.07810153,627c6715c52fd12f31907bd0,,,,,,,,,,,,,,,,,,,,,,,a,1,2.1674,"[""0.163"",""0.425"",""0.641"",""0.281""]","[1,1,1,0]",0,27,27,27,1,0,1,,,0,FALSE,,,,,,,,,,,,,,,,,,,,,,,,,,,,,,,
,613aa083471f32340562774d,627c6ffaae0fb064bc6153ed,2022-05-11_21h26.51.932,classification_task,2021.2.3,Linux x86_64,60.07810153,627c6715c52fd12f31907bd0,,,,,,,,,,,,,,,,,,,,,,,l,0,1.5483,"[""0.561"",""0.425"",""0.641"",""0.863""]","[0,1,1,1]",0,28,28,28,1,0,1,,,0,FALSE,,,,,,,,,,,,,,,,,,,,,,,,,,,,,,,
,613aa083471f32340562774d,627c6ffaae0fb064bc6153ed,2022-05-11_21h26.51.932,classification_task,2021.2.3,Linux x86_64,60.07810153,627c6715c52fd12f31907bd0,,,,,,,,,,,,,,,,,,,,,,,l,1,3.7299,"[""0.066"",""0.236"",""0.522"",""0.586""]","[1,1,1,0]",0,29,29,29,1,1,0,,,0,FALSE,,,,,,,,,,,,,,,,,,,,,,,,,,,,,,,
,613aa083471f32340562774d,627c6ffaae0fb064bc6153ed,2022-05-11_21h26.51.932,classification_task,2021.2.3,Linux x86_64,60.07810153,627c6715c52fd12f31907bd0,,,,,,,,,,,,,,,,,,,,,,,a,0,2.1808,"[""0.127"",""0.782"",""0.471"",""0.821""]","[1,0,1,1]",0,30,30,30,1,1,1,,,0,FALSE,,,,,,,,,,,,,,,,,,,,,,,,,,,,,,,
,613aa083471f32340562774d,627c6ffaae0fb064bc6153ed,2022-05-11_21h26.51.932,classification_task,2021.2.3,Linux x86_64,60.07810153,627c6715c52fd12f31907bd0,,,,,,,,,,,,,,,,,,,,,,,a,1,2.7032,"[""0.197"",""0.290"",""0.913"",""0.962""]","[1,0,1,1]",0,31,31,31,1,0,0,,,0,FALSE,,,,,,,,,,,,,,,,,,,,,,,,,,,,,,,
,613aa083471f32340562774d,627c6ffaae0fb064bc6153ed,2022-05-11_21h26.51.932,classification_task,2021.2.3,Linux x86_64,60.07810153,627c6715c52fd12f31907bd0,,,,,,,,,,,,,,,,,,,,,,,a,1,2.8644,"[""0.163"",""0.425"",""0.729"",""0.863""]","[1,1,0,1]",0,32,32,32,1,0,1,,,0,FALSE,,,,,,,,,,,,,,,,,,,,,,,,,,,,,,,
,613aa083471f32340562774d,627c6ffaae0fb064bc6153ed,2022-05-11_21h26.51.932,classification_task,2021.2.3,Linux x86_64,60.07810153,627c6715c52fd12f31907bd0,,,,,,,,,,,,,,,,,,,,,,,a,0,1.2523,"[""0.127"",""0.330"",""0.595"",""0.821""]","[1,1,0,1]",0,33,33,33,1,1,1,,,0,FALSE,,,,,,,,,,,,,,,,,,,,,,,,,,,,,,,
,613aa083471f32340562774d,627c6ffaae0fb064bc6153ed,2022-05-11_21h26.51.932,classification_task,2021.2.3,Linux x86_64,60.07810153,627c6715c52fd12f31907bd0,,,,,,,,,,,,,,,,,,,,,,,a,1,3.1753,"[""0.601"",""0.376"",""0.913"",""0.962""]","[0,1,1,1]",0,34,34,34,1,0,0,,,0,FALSE,,,,,,,,,,,,,,,,,,,,,,,,,,,,,,,
,613aa083471f32340562774d,627c6ffaae0fb064bc6153ed,2022-05-11_21h26.51.932,classification_task,2021.2.3,Linux x86_64,60.07810153,627c6715c52fd12f31907bd0,,,,,,,,,,,,,,,,,,,,,,,a,1,3.669,"[""0.197"",""0.376"",""0.913"",""0.589""]","[1,1,1,0]",0,35,35,35,1,0,0,,,0,FALSE,,,,,,,,,,,,,,,,,,,,,,,,,,,,,,,
,613aa083471f32340562774d,627c6ffaae0fb064bc6153ed,2022-05-11_21h26.51.932,classification_task,2021.2.3,Linux x86_64,60.07810153,627c6715c52fd12f31907bd0,,,,,,,,,,,,,,,,,,,,,,,a,0,1.2099,"[""0.127"",""0.595"",""0.471"",""0.821""]","[1,0,1,1]",0,36,36,36,1,1,1,,,0,FALSE,,,,,,,,,,,,,,,,,,,,,,,,,,,,,,,
,613aa083471f32340562774d,627c6ffaae0fb064bc6153ed,2022-05-11_21h26.51.932,classification_task,2021.2.3,Linux x86_64,60.07810153,627c6715c52fd12f31907bd0,,,,,,,,,,,,,,,,,,,,,,,l,1,4.5344,"[""0.584"",""0.236"",""0.522"",""0.696""]","[0,1,1,1]",0,37,37,37,1,1,0,,,0,FALSE,,,,,,,,,,,,,,,,,,,,,,,,,,,,,,,
,613aa083471f32340562774d,627c6ffaae0fb064bc6153ed,2022-05-11_21h26.51.932,classification_task,2021.2.3,Linux x86_64,60.07810153,627c6715c52fd12f31907bd0,,,,,,,,,,,,,,,,,,,,,,,a,1,1.4018,"[""0.197"",""0.290"",""0.913"",""0.962""]","[1,0,1,1]",0,38,38,38,1,0,0,,,0,FALSE,,,,,,,,,,,,,,,,,,,,,,,,,,,,,,,
,613aa083471f32340562774d,627c6ffaae0fb064bc6153ed,2022-05-11_21h26.51.932,classification_task,2021.2.3,Linux x86_64,60.07810153,627c6715c52fd12f31907bd0,,,,,,,,,,,,,,,,,,,,,,,l,1,1.8513,"[""0.066"",""0.236"",""0.562"",""0.696""]","[1,1,0,1]",0,39,39,39,1,1,0,,,0,FALSE,,,,,,,,,,,,,,,,,,,,,,,,,,,,,,,
,613aa083471f32340562774d,627c6ffaae0fb064bc6153ed,2022-05-11_21h26.51.932,classification_task,2021.2.3,Linux x86_64,60.07810153,627c6715c52fd12f31907bd0,,,,,,,,,,,,,,,,,,,,,,,l,0,1.3134,"[""0.584"",""0.425"",""0.641"",""0.863""]","[0,1,1,1]",0,40,40,40,1,0,1,,,0,FALSE,,,,,,,,,,,,,,,,,,,,,,,,,,,,,,,
,613aa083471f32340562774d,627c6ffaae0fb064bc6153ed,2022-05-11_21h26.51.932,classification_task,2021.2.3,Linux x86_64,60.07810153,627c6715c52fd12f31907bd0,,,,,,,,,,,,,,,,,,,,,,,l,1,5.1187,"[""0.066"",""0.780"",""0.522"",""0.696""]","[1,0,1,1]",0,41,41,41,1,1,0,,,0,FALSE,,,,,,,,,,,,,,,,,,,,,,,,,,,,,,,
,613aa083471f32340562774d,627c6ffaae0fb064bc6153ed,2022-05-11_21h26.51.932,classification_task,2021.2.3,Linux x86_64,60.07810153,627c6715c52fd12f31907bd0,,,,,,,,,,,,,,,,,,,,,,,a,0,3.1844,"[""0.066"",""0.236"",""0.522"",""0.595""]","[1,1,1,0]",0,42,42,42,1,1,0,,,0,FALSE,,,,,,,,,,,,,,,,,,,,,,,,,,,,,,,
,613aa083471f32340562774d,627c6ffaae0fb064bc6153ed,2022-05-11_21h26.51.932,classification_task,2021.2.3,Linux x86_64,60.07810153,627c6715c52fd12f31907bd0,,,,,,,,,,,,,,,,,,,,,,,a,1,1.3554,"[""0.163"",""0.425"",""0.641"",""0.562""]","[1,1,1,0]",0,43,43,43,1,0,1,,,0,FALSE,,,,,,,,,,,,,,,,,,,,,,,,,,,,,,,
,613aa083471f32340562774d,627c6ffaae0fb064bc6153ed,2022-05-11_21h26.51.932,classification_task,2021.2.3,Linux x86_64,60.07810153,627c6715c52fd12f31907bd0,,,,,,,,,,,,,,,,,,,,,,,a,0,1.3709,"[""0.127"",""0.330"",""0.471"",""0.575""]","[1,1,1,0]",0,44,44,44,1,1,1,,,0,FALSE,,,,,,,,,,,,,,,,,,,,,,,,,,,,,,,
,613aa083471f32340562774d,627c6ffaae0fb064bc6153ed,2022-05-11_21h26.51.932,classification_task,2021.2.3,Linux x86_64,60.07810153,627c6715c52fd12f31907bd0,,,,,,,,,,,,,,,,,,,,,,,l,1,2.128,"[""0.281"",""0.330"",""0.471"",""0.821""]","[0,1,1,1]",0,45,45,45,1,1,1,,,0,FALSE,,,,,,,,,,,,,,,,,,,,,,,,,,,,,,,
,613aa083471f32340562774d,627c6ffaae0fb064bc6153ed,2022-05-11_21h26.51.932,classification_task,2021.2.3,Linux x86_64,60.07810153,627c6715c52fd12f31907bd0,,,,,,,,,,,,,,,,,,,,,,,a,1,2.1282,"[""0.197"",""0.376"",""0.584"",""0.962""]","[1,1,0,1]",0,46,46,46,1,0,0,,,0,FALSE,,,,,,,,,,,,,,,,,,,,,,,,,,,,,,,
,613aa083471f32340562774d,627c6ffaae0fb064bc6153ed,2022-05-11_21h26.51.932,classification_task,2021.2.3,Linux x86_64,60.07810153,627c6715c52fd12f31907bd0,,,,,,,,,,,,,,,,,,,,,,,l,0,1.7206,"[""0.163"",""0.595"",""0.641"",""0.863""]","[1,0,1,1]",0,47,47,47,1,0,1,,,0,FALSE,,,,,,,,,,,,,,,,,,,,,,,,,,,,,,,
,613aa083471f32340562774d,627c6ffaae0fb064bc6153ed,2022-05-11_21h26.51.932,classification_task,2021.2.3,Linux x86_64,60.07810153,627c6715c52fd12f31907bd0,,,,,,,,,,,,,,,,,,,,,,,a,0,3.2672,"[""0.127"",""0.589"",""0.471"",""0.821""]","[1,0,1,1]",0,48,48,48,1,1,1,,,0,FALSE,,,,,,,,,,,,,,,,,,,,,,,,,,,,,,,
,613aa083471f32340562774d,627c6ffaae0fb064bc6153ed,2022-05-11_21h26.51.932,classification_task,2021.2.3,Linux x86_64,60.07810153,627c6715c52fd12f31907bd0,,,,,,,,,,,,,,,,,,,,,,,a,1,3.1589,"[""0.163"",""0.425"",""0.641"",""0.562""]","[1,1,1,0]",0,49,49,49,1,0,1,,,0,FALSE,,,,,,,,,,,,,,,,,,,,,,,,,,,,,,,
,613aa083471f32340562774d,627c6ffaae0fb064bc6153ed,2022-05-11_21h26.51.932,classification_task,2021.2.3,Linux x86_64,60.07810153,627c6715c52fd12f31907bd0,,,,,,,,,,,,,,,,,,,,,,,l,0,1.8043,"[""0.163"",""0.562"",""0.641"",""0.863""]","[1,0,1,1]",0,50,50,50,1,0,1,,,0,FALSE,,,,,,,,,,,,,,,,,,,,,,,,,,,,,,,
,613aa083471f32340562774d,627c6ffaae0fb064bc6153ed,2022-05-11_21h26.51.932,classification_task,2021.2.3,Linux x86_64,60.07810153,627c6715c52fd12f31907bd0,,,,,,,,,,,,,,,,,,,,,,,l,1,2.4043,"[""0.290"",""0.330"",""0.471"",""0.821""]","[0,1,1,1]",0,51,51,51,1,1,1,,,0,FALSE,,,,,,,,,,,,,,,,,,,,,,,,,,,,,,,
,613aa083471f32340562774d,627c6ffaae0fb064bc6153ed,2022-05-11_21h26.51.932,classification_task,2021.2.3,Linux x86_64,60.07810153,627c6715c52fd12f31907bd0,,,,,,,,,,,,,,,,,,,,,,,l,1,3.5325,"[""0.066"",""0.236"",""0.729"",""0.696""]","[1,1,0,1]",0,52,52,52,1,1,0,,,0,FALSE,,,,,,,,,,,,,,,,,,,,,,,,,,,,,,,
,613aa083471f32340562774d,627c6ffaae0fb064bc6153ed,2022-05-11_21h26.51.932,classification_task,2021.2.3,Linux x86_64,60.07810153,627c6715c52fd12f31907bd0,,,,,,,,,,,,,,,,,,,,,,,l,1,3.5,"[""0.066"",""0.749"",""0.522"",""0.696""]","[1,0,1,1]",0,53,53,53,1,1,0,,,0,FALSE,,,,,,,,,,,,,,,,,,,,,,,,,,,,,,,
,613aa083471f32340562774d,627c6ffaae0fb064bc6153ed,2022-05-11_21h26.51.932,classification_task,2021.2.3,Linux x86_64,60.07810153,627c6715c52fd12f31907bd0,,,,,,,,,,,,,,,,,,,,,,,l,1,3.1529,"[""0.066"",""0.236"",""0.522"",""0.782""]","[1,1,1,0]",0,54,54,54,1,1,0,,,0,FALSE,,,,,,,,,,,,,,,,,,,,,,,,,,,,,,,
,613aa083471f32340562774d,627c6ffaae0fb064bc6153ed,2022-05-11_21h26.51.932,classification_task,2021.2.3,Linux x86_64,60.07810153,627c6715c52fd12f31907bd0,,,,,,,,,,,,,,,,,,,,,,,a,1,2.8981,"[""0.197"",""0.376"",""0.913"",""0.780""]","[1,1,1,0]",0,55,55,55,1,0,0,,,0,FALSE,,,,,,,,,,,,,,,,,,,,,,,,,,,,,,,
,613aa083471f32340562774d,627c6ffaae0fb064bc6153ed,2022-05-11_21h26.51.932,classification_task,2021.2.3,Linux x86_64,60.07810153,627c6715c52fd12f31907bd0,,,,,,,,,,,,,,,,,,,,,,,a,1,1.1027,"[""0.163"",""0.425"",""0.290"",""0.863""]","[1,1,0,1]",0,56,56,56,1,0,1,,,0,FALSE,,,,,,,,,,,,,,,,,,,,,,,,,,,,,,,
,613aa083471f32340562774d,627c6ffaae0fb064bc6153ed,2022-05-11_21h26.51.932,classification_task,2021.2.3,Linux x86_64,60.07810153,627c6715c52fd12f31907bd0,,,,,,,,,,,,,,,,,,,,,,,l,1,1.373,"[""0.127"",""0.330"",""0.471"",""0.575""]","[1,1,1,0]",0,57,57,57,1,1,1,,,0,FALSE,,,,,,,,,,,,,,,,,,,,,,,,,,,,,,,
,613aa083471f32340562774d,627c6ffaae0fb064bc6153ed,2022-05-11_21h26.51.932,classification_task,2021.2.3,Linux x86_64,60.07810153,627c6715c52fd12f31907bd0,,,,,,,,,,,,,,,,,,,,,,,l,1,2.1168,"[""0.729"",""0.236"",""0.522"",""0.696""]","[0,1,1,1]",0,58,58,58,1,1,0,,,0,FALSE,,,,,,,,,,,,,,,,,,,,,,,,,,,,,,,
,613aa083471f32340562774d,627c6ffaae0fb064bc6153ed,2022-05-11_21h26.51.932,classification_task,2021.2.3,Linux x86_64,60.07810153,627c6715c52fd12f31907bd0,,,,,,,,,,,,,,,,,,,,,,,a,1,1.9332,"[""0.575"",""0.376"",""0.913"",""0.962""]","[0,1,1,1]",0,59,59,59,1,0,0,,,0,FALSE,,,,,,,,,,,,,,,,,,,,,,,,,,,,,,,
,613aa083471f32340562774d,627c6ffaae0fb064bc6153ed,2022-05-11_21h26.51.932,classification_task,2021.2.3,Linux x86_64,60.07810153,627c6715c52fd12f31907bd0,,,,,,,,,,,,,,,,,,,,,,,l,1,3.7183,"[""0.127"",""0.330"",""0.589"",""0.821""]","[1,1,0,1]",0,60,60,60,1,1,1,,,0,FALSE,,,,,,,,,,,,,,,,,,,,,,,,,,,,,,,
,613aa083471f32340562774d,627c6ffaae0fb064bc6153ed,2022-05-11_21h26.51.932,classification_task,2021.2.3,Linux x86_64,60.07810153,627c6715c52fd12f31907bd0,,,,,,,,,,,,,,,,,,,,,,,a,1,2.723,"[""0.197"",""0.376"",""0.584"",""0.962""]","[1,1,0,1]",0,61,61,61,1,0,0,,,0,FALSE,,,,,,,,,,,,,,,,,,,,,,,,,,,,,,,
,613aa083471f32340562774d,627c6ffaae0fb064bc6153ed,2022-05-11_21h26.51.932,classification_task,2021.2.3,Linux x86_64,60.07810153,627c6715c52fd12f31907bd0,,,,,,,,,,,,,,,,,,,,,,,a,1,1.9351,"[""0.197"",""0.575"",""0.913"",""0.962""]","[1,0,1,1]",0,62,62,62,1,0,0,,,0,FALSE,,,,,,,,,,,,,,,,,,,,,,,,,,,,,,,
,613aa083471f32340562774d,627c6ffaae0fb064bc6153ed,2022-05-11_21h26.51.932,classification_task,2021.2.3,Linux x86_64,60.07810153,627c6715c52fd12f31907bd0,,,,,,,,,,,,,,,,,,,,,,,l,0,1.8424,"[""0.030"",""0.425"",""0.641"",""0.863""]","[0,1,1,1]",0,63,63,63,1,0,1,,,0,FALSE,,,,,,,,,,,,,,,,,,,,,,,,,,,,,,,
,613aa083471f32340562774d,627c6ffaae0fb064bc6153ed,2022-05-11_21h26.51.932,classification_task,2021.2.3,Linux x86_64,60.07810153,627c6715c52fd12f31907bd0,,,,,,,,,,,,,,,,,,,,,,,,,,,,,,,,,,,,,,,0, ,,0,1.906482376,264.5722,0,1,1,1,1,2,2,,,,,,,,,,,,,,,,,,
,613aa083471f32340562774d,627c6ffaae0fb064bc6153ed,2022-05-11_21h26.51.932,classification_task,2021.2.3,Linux x86_64,60.07810153,627c6715c52fd12f31907bd0,,,,,,,,,,,,,,,,,,,,,,,,,,,,,,,,,,,,,,,1,  ,,0,10,256.6986,0,1,1,1,1,2,2,,,,,,,,,,,,,,,,,,
,613aa083471f32340562774d,627c6ffaae0fb064bc6153ed,2022-05-11_21h26.51.932,classification_task,2021.2.3,Linux x86_64,60.07810153,627c6715c52fd12f31907bd0,,,,,,,,,,,,,,,,,,,,,,,,,,,,,,,,,,,,,,,2,  ,,0,8.852848457,269.3518,0,1,1,1,1,2,2,,,,,,,,,,,,,,,,,,
,613aa083471f32340562774d,627c6ffaae0fb064bc6153ed,2022-05-11_21h26.51.932,classification_task,2021.2.3,Linux x86_64,60.07810153,627c6715c52fd12f31907bd0,,,,,,,,,,,,,,,,,,,,,,,,,,,,,,,,,,,,,,,,,,,,,0,1,1,1,1,,2,,,,,,,,,,,,,,,,,,
,613aa083471f32340562774d,627c6ffaae0fb064bc6153ed,2022-05-11_21h26.51.932,classification_task,2021.2.3,Linux x86_64,60.07810153,627c6715c52fd12f31907bd0,,,,,,,,,,,,,,,,,,,,,space,8.4443,l,0,3.2741,"[""0.163"",""0.425"",""0.749"",""0.863""]","[1,1,0,1]",0,0,0,0,1,0,1,,,0,FALSE,,,,,,,,,,,,,,,,,,,,,,,,,,,,,,,
,613aa083471f32340562774d,627c6ffaae0fb064bc6153ed,2022-05-11_21h26.51.932,classification_task,2021.2.3,Linux x86_64,60.07810153,627c6715c52fd12f31907bd0,,,,,,,,,,,,,,,,,,,,,,,a,0,5.3999,"[""0.127"",""0.749"",""0.471"",""0.821""]","[1,0,1,1]",0,1,1,1,1,1,1,,,0,FALSE,,,,,,,,,,,,,,,,,,,,,,,,,,,,,,,
,613aa083471f32340562774d,627c6ffaae0fb064bc6153ed,2022-05-11_21h26.51.932,classification_task,2021.2.3,Linux x86_64,60.07810153,627c6715c52fd12f31907bd0,,,,,,,,,,,,,,,,,,,,,,,l,1,2.7376,"[""0.281"",""0.236"",""0.522"",""0.696""]","[0,1,1,1]",0,2,2,2,1,1,0,,,0,FALSE,,,,,,,,,,,,,,,,,,,,,,,,,,,,,,,
,613aa083471f32340562774d,627c6ffaae0fb064bc6153ed,2022-05-11_21h26.51.932,classification_task,2021.2.3,Linux x86_64,60.07810153,627c6715c52fd12f31907bd0,,,,,,,,,,,,,,,,,,,,,,,a,1,0.9158,"[""0.197"",""0.589"",""0.913"",""0.962""]","[1,0,1,1]",0,3,3,3,1,0,0,,,0,FALSE,,,,,,,,,,,,,,,,,,,,,,,,,,,,,,,
,613aa083471f32340562774d,627c6ffaae0fb064bc6153ed,2022-05-11_21h26.51.932,classification_task,2021.2.3,Linux x86_64,60.07810153,627c6715c52fd12f31907bd0,,,,,,,,,,,,,,,,,,,,,,,a,0,2.9832,"[""0.127"",""0.330"",""0.471"",""0.584""]","[1,1,1,0]",0,4,4,4,1,1,1,,,0,FALSE,,,,,,,,,,,,,,,,,,,,,,,,,,,,,,,
,613aa083471f32340562774d,627c6ffaae0fb064bc6153ed,2022-05-11_21h26.51.932,classification_task,2021.2.3,Linux x86_64,60.07810153,627c6715c52fd12f31907bd0,,,,,,,,,,,,,,,,,,,,,,,l,1,2.865,"[""0.127"",""0.330"",""0.595"",""0.821""]","[1,1,0,1]",0,5,5,5,1,1,1,,,0,FALSE,,,,,,,,,,,,,,,,,,,,,,,,,,,,,,,
,613aa083471f32340562774d,627c6ffaae0fb064bc6153ed,2022-05-11_21h26.51.932,classification_task,2021.2.3,Linux x86_64,60.07810153,627c6715c52fd12f31907bd0,,,,,,,,,,,,,,,,,,,,,,,l,0,3.2163,"[""0.163"",""0.556"",""0.641"",""0.863""]","[1,0,1,1]",0,6,6,6,1,0,1,,,0,FALSE,,,,,,,,,,,,,,,,,,,,,,,,,,,,,,,
,613aa083471f32340562774d,627c6ffaae0fb064bc6153ed,2022-05-11_21h26.51.932,classification_task,2021.2.3,Linux x86_64,60.07810153,627c6715c52fd12f31907bd0,,,,,,,,,,,,,,,,,,,,,,,l,1,4.2543,"[""0.066"",""0.782"",""0.522"",""0.696""]","[1,0,1,1]",0,7,7,7,1,1,0,,,0,FALSE,,,,,,,,,,,,,,,,,,,,,,,,,,,,,,,
,613aa083471f32340562774d,627c6ffaae0fb064bc6153ed,2022-05-11_21h26.51.932,classification_task,2021.2.3,Linux x86_64,60.07810153,627c6715c52fd12f31907bd0,,,,,,,,,,,,,,,,,,,,,,,a,1,3.606,"[""0.163"",""0.425"",""0.641"",""0.589""]","[1,1,1,0]",0,8,8,8,1,0,1,,,0,FALSE,,,,,,,,,,,,,,,,,,,,,,,,,,,,,,,
,613aa083471f32340562774d,627c6ffaae0fb064bc6153ed,2022-05-11_21h26.51.932,classification_task,2021.2.3,Linux x86_64,60.07810153,627c6715c52fd12f31907bd0,,,,,,,,,,,,,,,,,,,,,,,l,1,4.1057,"[""0.066"",""0.236"",""0.030"",""0.696""]","[1,1,0,1]",0,9,9,9,1,1,0,,,0,FALSE,,,,,,,,,,,,,,,,,,,,,,,,,,,,,,,
,613aa083471f32340562774d,627c6ffaae0fb064bc6153ed,2022-05-11_21h26.51.932,classification_task,2021.2.3,Linux x86_64,60.07810153,627c6715c52fd12f31907bd0,,,,,,,,,,,,,,,,,,,,,,,a,1,3.3743,"[""0.197"",""0.376"",""0.030"",""0.962""]","[1,1,0,1]",0,10,10,10,1,0,0,,,0,FALSE,,,,,,,,,,,,,,,,,,,,,,,,,,,,,,,
,613aa083471f32340562774d,627c6ffaae0fb064bc6153ed,2022-05-11_21h26.51.932,classification_task,2021.2.3,Linux x86_64,60.07810153,627c6715c52fd12f31907bd0,,,,,,,,,,,,,,,,,,,,,,,a,1,2.8608,"[""0.197"",""0.376"",""0.913"",""0.561""]","[1,1,1,0]",0,11,11,11,1,0,0,,,0,FALSE,,,,,,,,,,,,,,,,,,,,,,,,,,,,,,,
,613aa083471f32340562774d,627c6ffaae0fb064bc6153ed,2022-05-11_21h26.51.932,classification_task,2021.2.3,Linux x86_64,60.07810153,627c6715c52fd12f31907bd0,,,,,,,,,,,,,,,,,,,,,,,a,1,0.9858,"[""0.561"",""0.376"",""0.913"",""0.962""]","[0,1,1,1]",0,12,12,12,1,0,0,,,0,FALSE,,,,,,,,,,,,,,,,,,,,,,,,,,,,,,,
,613aa083471f32340562774d,627c6ffaae0fb064bc6153ed,2022-05-11_21h26.51.932,classification_task,2021.2.3,Linux x86_64,60.07810153,627c6715c52fd12f31907bd0,,,,,,,,,,,,,,,,,,,,,,,l,1,4.8286,"[""0.575"",""0.330"",""0.471"",""0.821""]","[0,1,1,1]",0,13,13,13,1,1,1,,,0,FALSE,,,,,,,,,,,,,,,,,,,,,,,,,,,,,,,
,613aa083471f32340562774d,627c6ffaae0fb064bc6153ed,2022-05-11_21h26.51.932,classification_task,2021.2.3,Linux x86_64,60.07810153,627c6715c52fd12f31907bd0,,,,,,,,,,,,,,,,,,,,,,,a,1,5.0561,"[""0.562"",""0.425"",""0.641"",""0.863""]","[0,1,1,1]",0,14,14,14,1,0,1,,,0,FALSE,,,,,,,,,,,,,,,,,,,,,,,,,,,,,,,
,613aa083471f32340562774d,627c6ffaae0fb064bc6153ed,2022-05-11_21h26.51.932,classification_task,2021.2.3,Linux x86_64,60.07810153,627c6715c52fd12f31907bd0,,,,,,,,,,,,,,,,,,,,,,,l,1,4.3272,"[""0.066"",""0.236"",""0.522"",""0.589""]","[1,1,1,0]",0,15,15,15,1,1,0,,,0,FALSE,,,,,,,,,,,,,,,,,,,,,,,,,,,,,,,
,613aa083471f32340562774d,627c6ffaae0fb064bc6153ed,2022-05-11_21h26.51.932,classification_task,2021.2.3,Linux x86_64,60.07810153,627c6715c52fd12f31907bd0,,,,,,,,,,,,,,,,,,,,,,,l,1,2.4764,"[""0.729"",""0.330"",""0.471"",""0.821""]","[0,1,1,1]",0,16,16,16,1,1,1,,,0,FALSE,,,,,,,,,,,,,,,,,,,,,,,,,,,,,,,
,613aa083471f32340562774d,627c6ffaae0fb064bc6153ed,2022-05-11_21h26.51.932,classification_task,2021.2.3,Linux x86_64,60.07810153,627c6715c52fd12f31907bd0,,,,,,,,,,,,,,,,,,,,,,,a,0,2.5877,"[""0.127"",""0.601"",""0.471"",""0.821""]","[1,0,1,1]",0,17,17,17,1,1,1,,,0,FALSE,,,,,,,,,,,,,,,,,,,,,,,,,,,,,,,
,613aa083471f32340562774d,627c6ffaae0fb064bc6153ed,2022-05-11_21h26.51.932,classification_task,2021.2.3,Linux x86_64,60.07810153,627c6715c52fd12f31907bd0,,,,,,,,,,,,,,,,,,,,,,,a,1,1.3343,"[""0.729"",""0.376"",""0.913"",""0.962""]","[0,1,1,1]",0,18,18,18,1,0,0,,,0,FALSE,,,,,,,,,,,,,,,,,,,,,,,,,,,,,,,
,613aa083471f32340562774d,627c6ffaae0fb064bc6153ed,2022-05-11_21h26.51.932,classification_task,2021.2.3,Linux x86_64,60.07810153,627c6715c52fd12f31907bd0,,,,,,,,,,,,,,,,,,,,,,,l,1,3.7789,"[""0.066"",""0.584"",""0.522"",""0.696""]","[1,0,1,1]",0,19,19,19,1,1,0,,,0,FALSE,,,,,,,,,,,,,,,,,,,,,,,,,,,,,,,
,613aa083471f32340562774d,627c6ffaae0fb064bc6153ed,2022-05-11_21h26.51.932,classification_task,2021.2.3,Linux x86_64,60.07810153,627c6715c52fd12f31907bd0,,,,,,,,,,,,,,,,,,,,,,,a,0,3.3853,"[""0.127"",""0.330"",""0.471"",""0.595""]","[1,1,1,0]",0,20,20,20,1,1,1,,,0,FALSE,,,,,,,,,,,,,,,,,,,,,,,,,,,,,,,
,613aa083471f32340562774d,627c6ffaae0fb064bc6153ed,2022-05-11_21h26.51.932,classification_task,2021.2.3,Linux x86_64,60.07810153,627c6715c52fd12f31907bd0,,,,,,,,,,,,,,,,,,,,,,,l,1,3.2387,"[""0.066"",""0.236"",""0.030"",""0.696""]","[1,1,0,1]",0,21,21,21,1,1,0,,,0,FALSE,,,,,,,,,,,,,,,,,,,,,,,,,,,,,,,
,613aa083471f32340562774d,627c6ffaae0fb064bc6153ed,2022-05-11_21h26.51.932,classification_task,2021.2.3,Linux x86_64,60.07810153,627c6715c52fd12f31907bd0,,,,,,,,,,,,,,,,,,,,,,,l,1,4.4386,"[""0.127"",""0.330"",""0.780"",""0.821""]","[1,1,0,1]",0,22,22,22,1,1,1,,,0,FALSE,,,,,,,,,,,,,,,,,,,,,,,,,,,,,,,
,613aa083471f32340562774d,627c6ffaae0fb064bc6153ed,2022-05-11_21h26.51.932,classification_task,2021.2.3,Linux x86_64,60.07810153,627c6715c52fd12f31907bd0,,,,,,,,,,,,,,,,,,,,,,,a,1,3.8317,"[""0.197"",""0.376"",""0.562"",""0.962""]","[1,1,0,1]",0,23,23,23,1,0,0,,,0,FALSE,,,,,,,,,,,,,,,,,,,,,,,,,,,,,,,
,613aa083471f32340562774d,627c6ffaae0fb064bc6153ed,2022-05-11_21h26.51.932,classification_task,2021.2.3,Linux x86_64,60.07810153,627c6715c52fd12f31907bd0,,,,,,,,,,,,,,,,,,,,,,,l,0,2.9159,"[""0.197"",""0.376"",""0.913"",""0.281""]","[1,1,1,0]",0,24,24,24,1,0,0,,,0,FALSE,,,,,,,,,,,,,,,,,,,,,,,,,,,,,,,
,613aa083471f32340562774d,627c6ffaae0fb064bc6153ed,2022-05-11_21h26.51.932,classification_task,2021.2.3,Linux x86_64,60.07810153,627c6715c52fd12f31907bd0,,,,,,,,,,,,,,,,,,,,,,,a,0,2.7437,"[""0.586"",""0.236"",""0.522"",""0.696""]","[0,1,1,1]",0,25,25,25,1,1,0,,,0,FALSE,,,,,,,,,,,,,,,,,,,,,,,,,,,,,,,
,613aa083471f32340562774d,627c6ffaae0fb064bc6153ed,2022-05-11_21h26.51.932,classification_task,2021.2.3,Linux x86_64,60.07810153,627c6715c52fd12f31907bd0,,,,,,,,,,,,,,,,,,,,,,,a,1,2.0012,"[""0.163"",""0.589"",""0.641"",""0.863""]","[1,0,1,1]",0,26,26,26,1,0,1,,,0,FALSE,,,,,,,,,,,,,,,,,,,,,,,,,,,,,,,
,613aa083471f32340562774d,627c6ffaae0fb064bc6153ed,2022-05-11_21h26.51.932,classification_task,2021.2.3,Linux x86_64,60.07810153,627c6715c52fd12f31907bd0,,,,,,,,,,,,,,,,,,,,,,,l,1,2.4372,"[""0.066"",""0.236"",""0.522"",""0.584""]","[1,1,1,0]",0,27,27,27,1,1,0,,,0,FALSE,,,,,,,,,,,,,,,,,,,,,,,,,,,,,,,
,613aa083471f32340562774d,627c6ffaae0fb064bc6153ed,2022-05-11_21h26.51.932,classification_task,2021.2.3,Linux x86_64,60.07810153,627c6715c52fd12f31907bd0,,,,,,,,,,,,,,,,,,,,,,,a,1,1.022,"[""0.197"",""0.556"",""0.913"",""0.962""]","[1,0,1,1]",0,28,28,28,1,0,0,,,0,FALSE,,,,,,,,,,,,,,,,,,,,,,,,,,,,,,,
,613aa083471f32340562774d,627c6ffaae0fb064bc6153ed,2022-05-11_21h26.51.932,classification_task,2021.2.3,Linux x86_64,60.07810153,627c6715c52fd12f31907bd0,,,,,,,,,,,,,,,,,,,,,,,a,1,2.7594,"[""0.030"",""0.425"",""0.641"",""0.863""]","[0,1,1,1]",0,29,29,29,1,0,1,,,0,FALSE,,,,,,,,,,,,,,,,,,,,,,,,,,,,,,,
,613aa083471f32340562774d,627c6ffaae0fb064bc6153ed,2022-05-11_21h26.51.932,classification_task,2021.2.3,Linux x86_64,60.07810153,627c6715c52fd12f31907bd0,,,,,,,,,,,,,,,,,,,,,,,a,1,3.9818,"[""0.163"",""0.425"",""0.641"",""0.556""]","[1,1,1,0]",0,30,30,30,1,0,1,,,0,FALSE,,,,,,,,,,,,,,,,,,,,,,,,,,,,,,,
,613aa083471f32340562774d,627c6ffaae0fb064bc6153ed,2022-05-11_21h26.51.932,classification_task,2021.2.3,Linux x86_64,60.07810153,627c6715c52fd12f31907bd0,,,,,,,,,,,,,,,,,,,,,,,l,0,3.285,"[""0.163"",""0.425"",""0.780"",""0.863""]","[1,1,0,1]",0,31,31,31,1,0,1,,,0,FALSE,,,,,,,,,,,,,,,,,,,,,,,,,,,,,,,
,613aa083471f32340562774d,627c6ffaae0fb064bc6153ed,2022-05-11_21h26.51.932,classification_task,2021.2.3,Linux x86_64,60.07810153,627c6715c52fd12f31907bd0,,,,,,,,,,,,,,,,,,,,,,,a,0,2.3274,"[""0.066"",""0.589"",""0.522"",""0.696""]","[1,0,1,1]",0,32,32,32,1,1,0,,,0,FALSE,,,,,,,,,,,,,,,,,,,,,,,,,,,,,,,
,613aa083471f32340562774d,627c6ffaae0fb064bc6153ed,2022-05-11_21h26.51.932,classification_task,2021.2.3,Linux x86_64,60.07810153,627c6715c52fd12f31907bd0,,,,,,,,,,,,,,,,,,,,,,,a,1,0.9202,"[""0.197"",""0.589"",""0.913"",""0.962""]","[1,0,1,1]",0,33,33,33,1,0,0,,,0,FALSE,,,,,,,,,,,,,,,,,,,,,,,,,,,,,,,
,613aa083471f32340562774d,627c6ffaae0fb064bc6153ed,2022-05-11_21h26.51.932,classification_task,2021.2.3,Linux x86_64,60.07810153,627c6715c52fd12f31907bd0,,,,,,,,,,,,,,,,,,,,,,,a,1,3.0652,"[""0.197"",""0.376"",""0.782"",""0.962""]","[1,1,0,1]",0,34,34,34,1,0,0,,,0,FALSE,,,,,,,,,,,,,,,,,,,,,,,,,,,,,,,
,613aa083471f32340562774d,627c6ffaae0fb064bc6153ed,2022-05-11_21h26.51.932,classification_task,2021.2.3,Linux x86_64,60.07810153,627c6715c52fd12f31907bd0,,,,,,,,,,,,,,,,,,,,,,,a,1,2.086,"[""0.163"",""0.290"",""0.641"",""0.863""]","[1,0,1,1]",0,35,35,35,1,0,1,,,0,FALSE,,,,,,,,,,,,,,,,,,,,,,,,,,,,,,,
,613aa083471f32340562774d,627c6ffaae0fb064bc6153ed,2022-05-11_21h26.51.932,classification_task,2021.2.3,Linux x86_64,60.07810153,627c6715c52fd12f31907bd0,,,,,,,,,,,,,,,,,,,,,,,l,1,3.2626,"[""0.127"",""0.330"",""0.471"",""0.290""]","[1,1,1,0]",0,36,36,36,1,1,1,,,0,FALSE,,,,,,,,,,,,,,,,,,,,,,,,,,,,,,,
,613aa083471f32340562774d,627c6ffaae0fb064bc6153ed,2022-05-11_21h26.51.932,classification_task,2021.2.3,Linux x86_64,60.07810153,627c6715c52fd12f31907bd0,,,,,,,,,,,,,,,,,,,,,,,a,1,2.0643,"[""0.290"",""0.376"",""0.913"",""0.962""]","[0,1,1,1]",0,37,37,37,1,0,0,,,0,FALSE,,,,,,,,,,,,,,,,,,,,,,,,,,,,,,,
,613aa083471f32340562774d,627c6ffaae0fb064bc6153ed,2022-05-11_21h26.51.932,classification_task,2021.2.3,Linux x86_64,60.07810153,627c6715c52fd12f31907bd0,,,,,,,,,,,,,,,,,,,,,,,l,1,2.8349,"[""0.127"",""0.562"",""0.471"",""0.821""]","[1,0,1,1]",0,38,38,38,1,1,1,,,0,FALSE,,,,,,,,,,,,,,,,,,,,,,,,,,,,,,,
,613aa083471f32340562774d,627c6ffaae0fb064bc6153ed,2022-05-11_21h26.51.932,classification_task,2021.2.3,Linux x86_64,60.07810153,627c6715c52fd12f31907bd0,,,,,,,,,,,,,,,,,,,,,,,l,0,3.5309,"[""0.163"",""0.425"",""0.586"",""0.863""]","[1,1,0,1]",0,39,39,39,1,0,1,,,0,FALSE,,,,,,,,,,,,,,,,,,,,,,,,,,,,,,,
,613aa083471f32340562774d,627c6ffaae0fb064bc6153ed,2022-05-11_21h26.51.932,classification_task,2021.2.3,Linux x86_64,60.07810153,627c6715c52fd12f31907bd0,,,,,,,,,,,,,,,,,,,,,,,l,1,3.2239,"[""0.127"",""0.330"",""0.561"",""0.821""]","[1,1,0,1]",0,40,40,40,1,1,1,,,0,FALSE,,,,,,,,,,,,,,,,,,,,,,,,,,,,,,,
,613aa083471f32340562774d,627c6ffaae0fb064bc6153ed,2022-05-11_21h26.51.932,classification_task,2021.2.3,Linux x86_64,60.07810153,627c6715c52fd12f31907bd0,,,,,,,,,,,,,,,,,,,,,,,l,0,2.6451,"[""0.163"",""0.425"",""0.641"",""0.562""]","[1,1,1,0]",0,41,41,41,1,0,1,,,0,FALSE,,,,,,,,,,,,,,,,,,,,,,,,,,,,,,,
,613aa083471f32340562774d,627c6ffaae0fb064bc6153ed,2022-05-11_21h26.51.932,classification_task,2021.2.3,Linux x86_64,60.07810153,627c6715c52fd12f31907bd0,,,,,,,,,,,,,,,,,,,,,,,a,0,4.2445,"[""0.584"",""0.330"",""0.471"",""0.821""]","[0,1,1,1]",0,42,42,42,1,1,1,,,0,FALSE,,,,,,,,,,,,,,,,,,,,,,,,,,,,,,,
,613aa083471f32340562774d,627c6ffaae0fb064bc6153ed,2022-05-11_21h26.51.932,classification_task,2021.2.3,Linux x86_64,60.07810153,627c6715c52fd12f31907bd0,,,,,,,,,,,,,,,,,,,,,,,l,0,2.6183,"[""0.197"",""0.376"",""0.913"",""0.589""]","[1,1,1,0]",0,43,43,43,1,0,0,,,0,FALSE,,,,,,,,,,,,,,,,,,,,,,,,,,,,,,,
,613aa083471f32340562774d,627c6ffaae0fb064bc6153ed,2022-05-11_21h26.51.932,classification_task,2021.2.3,Linux x86_64,60.07810153,627c6715c52fd12f31907bd0,,,,,,,,,,,,,,,,,,,,,,,l,1,3.3442,"[""0.782"",""0.236"",""0.522"",""0.696""]","[0,1,1,1]",0,44,44,44,1,1,0,,,0,FALSE,,,,,,,,,,,,,,,,,,,,,,,,,,,,,,,
,613aa083471f32340562774d,627c6ffaae0fb064bc6153ed,2022-05-11_21h26.51.932,classification_task,2021.2.3,Linux x86_64,60.07810153,627c6715c52fd12f31907bd0,,,,,,,,,,,,,,,,,,,,,,,a,0,2.8516,"[""0.066"",""0.236"",""0.522"",""0.782""]","[1,1,1,0]",0,45,45,45,1,1,0,,,0,FALSE,,,,,,,,,,,,,,,,,,,,,,,,,,,,,,,
,613aa083471f32340562774d,627c6ffaae0fb064bc6153ed,2022-05-11_21h26.51.932,classification_task,2021.2.3,Linux x86_64,60.07810153,627c6715c52fd12f31907bd0,,,,,,,,,,,,,,,,,,,,,,,l,1,4.8588,"[""0.066"",""0.236"",""0.584"",""0.696""]","[1,1,0,1]",0,46,46,46,1,1,0,,,0,FALSE,,,,,,,,,,,,,,,,,,,,,,,,,,,,,,,
,613aa083471f32340562774d,627c6ffaae0fb064bc6153ed,2022-05-11_21h26.51.932,classification_task,2021.2.3,Linux x86_64,60.07810153,627c6715c52fd12f31907bd0,,,,,,,,,,,,,,,,,,,,,,,a,1,2.2379,"[""0.561"",""0.425"",""0.641"",""0.863""]","[0,1,1,1]",0,47,47,47,1,0,1,,,0,FALSE,,,,,,,,,,,,,,,,,,,,,,,,,,,,,,,
,613aa083471f32340562774d,627c6ffaae0fb064bc6153ed,2022-05-11_21h26.51.932,classification_task,2021.2.3,Linux x86_64,60.07810153,627c6715c52fd12f31907bd0,,,,,,,,,,,,,,,,,,,,,,,a,1,2.9096,"[""0.163"",""0.425"",""0.561"",""0.863""]","[1,1,0,1]",0,48,48,48,1,0,1,,,0,FALSE,,,,,,,,,,,,,,,,,,,,,,,,,,,,,,,
,613aa083471f32340562774d,627c6ffaae0fb064bc6153ed,2022-05-11_21h26.51.932,classification_task,2021.2.3,Linux x86_64,60.07810153,627c6715c52fd12f31907bd0,,,,,,,,,,,,,,,,,,,,,,,l,1,3.3101,"[""0.729"",""0.330"",""0.471"",""0.821""]","[0,1,1,1]",0,49,49,49,1,1,1,,,0,FALSE,,,,,,,,,,,,,,,,,,,,,,,,,,,,,,,
,613aa083471f32340562774d,627c6ffaae0fb064bc6153ed,2022-05-11_21h26.51.932,classification_task,2021.2.3,Linux x86_64,60.07810153,627c6715c52fd12f31907bd0,,,,,,,,,,,,,,,,,,,,,,,a,1,1.252,"[""0.197"",""0.575"",""0.913"",""0.962""]","[1,0,1,1]",0,50,50,50,1,0,0,,,0,FALSE,,,,,,,,,,,,,,,,,,,,,,,,,,,,,,,
,613aa083471f32340562774d,627c6ffaae0fb064bc6153ed,2022-05-11_21h26.51.932,classification_task,2021.2.3,Linux x86_64,60.07810153,627c6715c52fd12f31907bd0,,,,,,,,,,,,,,,,,,,,,,,a,0,1.6849,"[""0.127"",""0.330"",""0.471"",""0.601""]","[1,1,1,0]",0,51,51,51,1,1,1,,,0,FALSE,,,,,,,,,,,,,,,,,,,,,,,,,,,,,,,
,613aa083471f32340562774d,627c6ffaae0fb064bc6153ed,2022-05-11_21h26.51.932,classification_task,2021.2.3,Linux x86_64,60.07810153,627c6715c52fd12f31907bd0,,,,,,,,,,,,,,,,,,,,,,,a,1,0.8416,"[""0.589"",""0.376"",""0.913"",""0.962""]","[0,1,1,1]",0,52,52,52,1,0,0,,,0,FALSE,,,,,,,,,,,,,,,,,,,,,,,,,,,,,,,
,613aa083471f32340562774d,627c6ffaae0fb064bc6153ed,2022-05-11_21h26.51.932,classification_task,2021.2.3,Linux x86_64,60.07810153,627c6715c52fd12f31907bd0,,,,,,,,,,,,,,,,,,,,,,,l,0,2.2974,"[""0.197"",""0.376"",""0.290"",""0.962""]","[1,1,0,1]",0,53,53,53,1,0,0,,,0,FALSE,,,,,,,,,,,,,,,,,,,,,,,,,,,,,,,
,613aa083471f32340562774d,627c6ffaae0fb064bc6153ed,2022-05-11_21h26.51.932,classification_task,2021.2.3,Linux x86_64,60.07810153,627c6715c52fd12f31907bd0,,,,,,,,,,,,,,,,,,,,,,,a,1,3.4141,"[""0.030"",""0.425"",""0.641"",""0.863""]","[0,1,1,1]",0,54,54,54,1,0,1,,,0,FALSE,,,,,,,,,,,,,,,,,,,,,,,,,,,,,,,
,613aa083471f32340562774d,627c6ffaae0fb064bc6153ed,2022-05-11_21h26.51.932,classification_task,2021.2.3,Linux x86_64,60.07810153,627c6715c52fd12f31907bd0,,,,,,,,,,,,,,,,,,,,,,,l,0,2.3922,"[""0.197"",""0.376"",""0.913"",""0.575""]","[1,1,1,0]",0,55,55,55,1,0,0,,,0,FALSE,,,,,,,,,,,,,,,,,,,,,,,,,,,,,,,
,613aa083471f32340562774d,627c6ffaae0fb064bc6153ed,2022-05-11_21h26.51.932,classification_task,2021.2.3,Linux x86_64,60.07810153,627c6715c52fd12f31907bd0,,,,,,,,,,,,,,,,,,,,,,,l,1,2.1015,"[""0.066"",""0.584"",""0.522"",""0.696""]","[1,0,1,1]",0,56,56,56,1,1,0,,,0,FALSE,,,,,,,,,,,,,,,,,,,,,,,,,,,,,,,
,613aa083471f32340562774d,627c6ffaae0fb064bc6153ed,2022-05-11_21h26.51.932,classification_task,2021.2.3,Linux x86_64,60.07810153,627c6715c52fd12f31907bd0,,,,,,,,,,,,,,,,,,,,,,,a,0,2.2019,"[""0.556"",""0.236"",""0.522"",""0.696""]","[0,1,1,1]",0,57,57,57,1,1,0,,,0,FALSE,,,,,,,,,,,,,,,,,,,,,,,,,,,,,,,
,613aa083471f32340562774d,627c6ffaae0fb064bc6153ed,2022-05-11_21h26.51.932,classification_task,2021.2.3,Linux x86_64,60.07810153,627c6715c52fd12f31907bd0,,,,,,,,,,,,,,,,,,,,,,,l,1,5.9255,"[""0.066"",""0.236"",""0.556"",""0.696""]","[1,1,0,1]",0,58,58,58,1,1,0,,,0,FALSE,,,,,,,,,,,,,,,,,,,,,,,,,,,,,,,
,613aa083471f32340562774d,627c6ffaae0fb064bc6153ed,2022-05-11_21h26.51.932,classification_task,2021.2.3,Linux x86_64,60.07810153,627c6715c52fd12f31907bd0,,,,,,,,,,,,,,,,,,,,,,,a,1,3.1056,"[""0.163"",""0.425"",""0.641"",""0.584""]","[1,1,1,0]",0,59,59,59,1,0,1,,,0,FALSE,,,,,,,,,,,,,,,,,,,,,,,,,,,,,,,
,613aa083471f32340562774d,627c6ffaae0fb064bc6153ed,2022-05-11_21h26.51.932,classification_task,2021.2.3,Linux x86_64,60.07810153,627c6715c52fd12f31907bd0,,,,,,,,,,,,,,,,,,,,,,,l,1,2.3813,"[""0.127"",""0.561"",""0.471"",""0.821""]","[1,0,1,1]",0,60,60,60,1,1,1,,,0,FALSE,,,,,,,,,,,,,,,,,,,,,,,,,,,,,,,
,613aa083471f32340562774d,627c6ffaae0fb064bc6153ed,2022-05-11_21h26.51.932,classification_task,2021.2.3,Linux x86_64,60.07810153,627c6715c52fd12f31907bd0,,,,,,,,,,,,,,,,,,,,,,,l,0,2.5856,"[""0.163"",""0.556"",""0.641"",""0.863""]","[1,0,1,1]",0,61,61,61,1,0,1,,,0,FALSE,,,,,,,,,,,,,,,,,,,,,,,,,,,,,,,
,613aa083471f32340562774d,627c6ffaae0fb064bc6153ed,2022-05-11_21h26.51.932,classification_task,2021.2.3,Linux x86_64,60.07810153,627c6715c52fd12f31907bd0,,,,,,,,,,,,,,,,,,,,,,,a,0,2.4585,"[""0.127"",""0.330"",""0.586"",""0.821""]","[1,1,0,1]",0,62,62,62,1,1,1,,,0,FALSE,,,,,,,,,,,,,,,,,,,,,,,,,,,,,,,
,613aa083471f32340562774d,627c6ffaae0fb064bc6153ed,2022-05-11_21h26.51.932,classification_task,2021.2.3,Linux x86_64,60.07810153,627c6715c52fd12f31907bd0,,,,,,,,,,,,,,,,,,,,,,,a,0,3.2302,"[""0.066"",""0.236"",""0.522"",""0.575""]","[1,1,1,0]",0,63,63,63,1,1,0,,,0,FALSE,,,,,,,,,,,,,,,,,,,,,,,,,,,,,,,
,613aa083471f32340562774d,627c6ffaae0fb064bc6153ed,2022-05-11_21h26.51.932,classification_task,2021.2.3,Linux x86_64,60.07810153,627c6715c52fd12f31907bd0,,,,,,,,,,,,,,,,,,,,,,,,,,,,,,,,,,,,,,,0, ,,0,5.381115792,273.3248,0,2,2,2,1,2,3,,,,,,,,,,,,,,,,,,
,613aa083471f32340562774d,627c6ffaae0fb064bc6153ed,2022-05-11_21h26.51.932,classification_task,2021.2.3,Linux x86_64,60.07810153,627c6715c52fd12f31907bd0,,,,,,,,,,,,,,,,,,,,,,,,,,,,,,,,,,,,,,,1,  ,,0,10,275.806,0,2,2,2,1,2,3,,,,,,,,,,,,,,,,,,
,613aa083471f32340562774d,627c6ffaae0fb064bc6153ed,2022-05-11_21h26.51.932,classification_task,2021.2.3,Linux x86_64,60.07810153,627c6715c52fd12f31907bd0,,,,,,,,,,,,,,,,,,,,,,,,,,,,,,,,,,,,,,,2,  ,,0,10,277.4314,0,2,2,2,1,2,3,,,,,,,,,,,,,,,,,,
,613aa083471f32340562774d,627c6ffaae0fb064bc6153ed,2022-05-11_21h26.51.932,classification_task,2021.2.3,Linux x86_64,60.07810153,627c6715c52fd12f31907bd0,,,,,,,,,,,,,,,,,,,,,,,,,,,,,,,,,,,,,,,,,,,,,0,2,2,2,1,,3,,,,,,,,,,,,,,,,,,
,613aa083471f32340562774d,627c6ffaae0fb064bc6153ed,2022-05-11_21h26.51.932,classification_task,2021.2.3,Linux x86_64,60.07810153,627c6715c52fd12f31907bd0,,,,,,,,,,,,,,,,,,,,,,,,,,,,,,,,,,,,,,,,,,,,,,,,,,,,,I believe the aid is a competent performer,,0.7,0,4,1191.6184,0,0,0,0,1,0,,,,,
,613aa083471f32340562774d,627c6ffaae0fb064bc6153ed,2022-05-11_21h26.51.932,classification_task,2021.2.3,Linux x86_64,60.07810153,627c6715c52fd12f31907bd0,,,,,,,,,,,,,,,,,,,,,,,,,,,,,,,,,,,,,,,,,,,,,,,,,,,,,I trust the aid,,0.7,0,5,1194.5386,0,0,0,0,1,0,,,,,
,613aa083471f32340562774d,627c6ffaae0fb064bc6153ed,2022-05-11_21h26.51.932,classification_task,2021.2.3,Linux x86_64,60.07810153,627c6715c52fd12f31907bd0,,,,,,,,,,,,,,,,,,,,,,,,,,,,,,,,,,,,,,,,,,,,,,,,,,,,,I have confidence in the advice given by the aid,,0.7,0,4,1198.8101,0,0,0,0,1,0,,,,,
,613aa083471f32340562774d,627c6ffaae0fb064bc6153ed,2022-05-11_21h26.51.932,classification_task,2021.2.3,Linux x86_64,60.07810153,627c6715c52fd12f31907bd0,,,,,,,,,,,,,,,,,,,,,,,,,,,,,,,,,,,,,,,,,,,,,,,,,,,,,I can depend on the aid,,0.7,0,4,1200.9614,0,0,0,0,1,0,,,,,
,613aa083471f32340562774d,627c6ffaae0fb064bc6153ed,2022-05-11_21h26.51.932,classification_task,2021.2.3,Linux x86_64,60.07810153,627c6715c52fd12f31907bd0,,,,,,,,,,,,,,,,,,,,,,,,,,,,,,,,,,,,,,,,,,,,,,,,,,,,,I can rely on the aid to behave in consistent ways,,0.7,0,4,1202.6449,0,0,0,0,1,0,,,,,
,613aa083471f32340562774d,627c6ffaae0fb064bc6153ed,2022-05-11_21h26.51.932,classification_task,2021.2.3,Linux x86_64,60.07810153,627c6715c52fd12f31907bd0,,,,,,,,,,,,,,,,,,,,,,,,,,,,,,,,,,,,,,,,,,,,,,,,,,,,,I can rely on the aid to do its best every time I take its advice,,0.7,0,4,1210.227,0,0,0,0,1,0,,,,,
,613aa083471f32340562774d,627c6ffaae0fb064bc6153ed,2022-05-11_21h26.51.932,classification_task,2021.2.3,Linux x86_64,60.07810153,627c6715c52fd12f31907bd0,,,,,,,,,,,,,,,,,,,,,,,,,,,,,,,,,,,,,,,,,,,,,,,,,,,,,"On trials you completed with assistance from the aid, how frequently did you think the aid was correct?",,0.7,0,80%,,0,0,0,0,1,0,,,,,
,613aa083471f32340562774d,627c6ffaae0fb064bc6153ed,2022-05-11_21h26.51.932,classification_task,2021.2.3,Linux x86_64,60.07810153,627c6715c52fd12f31907bd0,,,,,,,,,,,,,,,,,,,,,,,,,,,,,,,,,,,,,,,,,,,,,,,,,,,,,"On trials you completed without the aid, how frequently did you think you were correct?",,0.7,0,40%,,0,0,0,0,1,0,,,,,
,613aa083471f32340562774d,627c6ffaae0fb064bc6153ed,2022-05-11_21h26.51.932,classification_task,2021.2.3,Linux x86_64,60.07810153,627c6715c52fd12f31907bd0,,,,,,,,,,,,,,,,,,,,,,,,,,,,,,,,,,,,,,,,,,,,,,,,,,,,,,,,,,,0,0,0,0,1,,,,,,
,613aa083471f32340562774d,627c6ffaae0fb064bc6153ed,2022-05-11_21h26.51.932,classification_task,2021.2.3,Linux x86_64,60.07810153,627c6715c52fd12f31907bd0,,,,,,,,,,,,,,,,,,,,,,,,,,,,,,,,,,,,,,,,,,,,,,,,,,,,,,,,,,,,,,,,,space,9.4241,1260.4612,,
,613aa083471f32340562774d,627c6ffaae0fb064bc6153ed,2022-05-11_21h26.51.932,classification_task,2021.2.3,Linux x86_64,60.07810153,627c6715c52fd12f31907bd0,,,,,,,,,,,,,,,,,,,,,,,,,,,,,,,,,,,,,,,,,,,,,,,,,,,,,,,,,,,,,,,,,,,,"Mozilla/5.0 (X11; CrOS x86_64 14588.51.0) AppleWebKit/537.36 (KHTML, like Gecko) Chrome/101.0.0.0 Safari/537.36",
,613aa083471f32340562774d,627c6ffaae0fb064bc6153ed,2022-05-11_21h26.51.932,classification_task,2021.2.3,Linux x86_64,60.07810153,627c6715c52fd12f31907bd0,,,,,,,,,,,,,,,,,,,,,,,,,,,,,,,,,,,,,,,,,,,,,,,,,,,,,,,,,,,,,,,,,,,,,HIGHLIGHT
