usingWebGL,participant,session,date,expName,psychopyVersion,OS,frameRate,PROLIFIC_PID,STUDY_ID,SESSION_ID,signatures_friend,signatures_foe,band_ranges_top,band_ranges_bottom,formitemText,formtype,formundefined,formitemWidth,formindex,formresponse,formrt,key_resp_2.keys,key_resp_2.rt,tute_resp.keys,tute_resp.rt,tutorial.thisRepN,tutorial.thisTrialN,tutorial.thisN,tutorial.thisIndex,tutorial.ran,key_resp_4.keys,key_resp_4.rt,key_resp.keys,key_resp.corr,lines_presented,is_signal_presented,trials.thisRepN,trials.thisTrialN,trials.thisN,trials.thisIndex,trials.ran,vessel,active_band,lines,is_signal,supported_pos,catch_trial,key_resp.rt,debrief_formindex,debrief_formitemText,debrief_formtype,debrief_formitemWidth,debrief_formresponse,debrief_formrt,phases.thisRepN,phases.thisTrialN,phases.thisN,phases.thisIndex,phases.ran,phases.order,phase,key_resp_3.keys,trustitemText,trusttype,trustitemWidth,trustindex,trustresponse,trustrt,support_status.thisRepN,support_status.thisTrialN,support_status.thisN,support_status.thisIndex,support_status.ran,support_status.order,key_resp_5.keys,key_resp_5.rt,globalClockTime,userAgent
TRUE,613aa39321ee0e47931e4157,001,2022-04-28_20h08.11.054,classification_task,2021.2.3,Win32,60.93473889,613aa39321ee0e47931e4157,626b377229c10585ec392f8a,626b3a5c4d2cebb7e363ff65,,,,,,,,,,,,,,,,,,,,,,,,,,,,,,,,,,,,,,,,,,,,,,,,,,,,,,,,,,,,,,,,,,,,
,613aa39321ee0e47931e4157,001,2022-04-28_20h08.11.054,classification_task,2021.2.3,Win32,60.93473889,613aa39321ee0e47931e4157,626b377229c10585ec392f8a,626b3a5c4d2cebb7e363ff65,"[[""0.197"",""0.458"",""0.848"",""0.969""],[""0.159"",""0.555"",""0.760"",""0.931""]]","[[""0.082"",""0.248"",""0.591"",""0.805""],[""0.037"",""0.321"",""0.654"",""0.707""]]","[1,10]","[100,1000]",Video game experience,,,0.7,0,,,,,,,,,,,,,,,,,,,,,,,,,,,,,,,,,,,,,,,,,,,,,,,,,,,,,,,,,,,
,613aa39321ee0e47931e4157,001,2022-04-28_20h08.11.054,classification_task,2021.2.3,Win32,60.93473889,613aa39321ee0e47931e4157,626b377229c10585ec392f8a,626b3a5c4d2cebb7e363ff65,,,,,Approximately how many hours did you spend playing video games in the last week?,,,0.7,0,12,,,,,,,,,,,,,,,,,,,,,,,,,,,,,,,,,,,,,,,,,,,,,,,,,,,,,,,,,,
,613aa39321ee0e47931e4157,001,2022-04-28_20h08.11.054,classification_task,2021.2.3,Win32,60.93473889,613aa39321ee0e47931e4157,626b377229c10585ec392f8a,626b3a5c4d2cebb7e363ff65,,,,,"Which game did you play the most this year? (Enter ""None"" if you didn't play any)",,,0.7,0,Warzone,,,,,,,,,,,,,,,,,,,,,,,,,,,,,,,,,,,,,,,,,,,,,,,,,,,,,,,,,,
,613aa39321ee0e47931e4157,001,2022-04-28_20h08.11.054,classification_task,2021.2.3,Win32,60.93473889,613aa39321ee0e47931e4157,626b377229c10585ec392f8a,626b3a5c4d2cebb7e363ff65,,,,,Visual perception,,,0.7,0,,,,,,,,,,,,,,,,,,,,,,,,,,,,,,,,,,,,,,,,,,,,,,,,,,,,,,,,,,,
,613aa39321ee0e47931e4157,001,2022-04-28_20h08.11.054,classification_task,2021.2.3,Win32,60.93473889,613aa39321ee0e47931e4157,626b377229c10585ec392f8a,626b3a5c4d2cebb7e363ff65,,,,,Do you have any form of color blindness?,,,0.7,0,No,17.6527,,,,,,,,,,,,,,,,,,,,,,,,,,,,,,,,,,,,,,,,,,,,,,,,,,,,,,,,,
,613aa39321ee0e47931e4157,001,2022-04-28_20h08.11.054,classification_task,2021.2.3,Win32,60.93473889,613aa39321ee0e47931e4157,626b377229c10585ec392f8a,626b3a5c4d2cebb7e363ff65,,,,,Do you use software to change the colour temperature of your screen (e.g. f.lux)?,,,0.7,0,No,19.8287,,,,,,,,,,,,,,,,,,,,,,,,,,,,,,,,,,,,,,,,,,,,,,,,,,,,,,,,,
,613aa39321ee0e47931e4157,001,2022-04-28_20h08.11.054,classification_task,2021.2.3,Win32,60.93473889,613aa39321ee0e47931e4157,626b377229c10585ec392f8a,626b3a5c4d2cebb7e363ff65,,,,,,,,,,,,space,19.2963,space,4.8435,0,0,0,0,1,,,,,,,,,,,,,,,,,,,,,,,,,,,,,,,,,,,,,,,,,,,,,,,,
,613aa39321ee0e47931e4157,001,2022-04-28_20h08.11.054,classification_task,2021.2.3,Win32,60.93473889,613aa39321ee0e47931e4157,626b377229c10585ec392f8a,626b3a5c4d2cebb7e363ff65,,,,,,,,,,,,,,space,4.729,1,0,1,0,1,,,,,,,,,,,,,,,,,,,,,,,,,,,,,,,,,,,,,,,,,,,,,,,,
,613aa39321ee0e47931e4157,001,2022-04-28_20h08.11.054,classification_task,2021.2.3,Win32,60.93473889,613aa39321ee0e47931e4157,626b377229c10585ec392f8a,626b3a5c4d2cebb7e363ff65,,,,,,,,,,,,,,space,6.7009,2,0,2,0,1,,,,,,,,,,,,,,,,,,,,,,,,,,,,,,,,,,,,,,,,,,,,,,,,
,613aa39321ee0e47931e4157,001,2022-04-28_20h08.11.054,classification_task,2021.2.3,Win32,60.93473889,613aa39321ee0e47931e4157,626b377229c10585ec392f8a,626b3a5c4d2cebb7e363ff65,,,,,,,,,,,,,,space,5.1429,3,0,3,0,1,,,,,,,,,,,,,,,,,,,,,,,,,,,,,,,,,,,,,,,,,,,,,,,,
,613aa39321ee0e47931e4157,001,2022-04-28_20h08.11.054,classification_task,2021.2.3,Win32,60.93473889,613aa39321ee0e47931e4157,626b377229c10585ec392f8a,626b3a5c4d2cebb7e363ff65,,,,,,,,,,,,,,space,3.9171,4,0,4,0,1,,,,,,,,,,,,,,,,,,,,,,,,,,,,,,,,,,,,,,,,,,,,,,,,
,613aa39321ee0e47931e4157,001,2022-04-28_20h08.11.054,classification_task,2021.2.3,Win32,60.93473889,613aa39321ee0e47931e4157,626b377229c10585ec392f8a,626b3a5c4d2cebb7e363ff65,,,,,,,,,,,,,,,,,,,,,space,3.049,,0,"[""0.197"",""0.123"",""0.848"",""0.969""]","[1,0,1,1]",0,0,0,0,1,0,0,,,1,FALSE,,,,,,,,,,,,,,,,,,,,,,,,,,,,,,,
,613aa39321ee0e47931e4157,001,2022-04-28_20h08.11.054,classification_task,2021.2.3,Win32,60.93473889,613aa39321ee0e47931e4157,626b377229c10585ec392f8a,626b3a5c4d2cebb7e363ff65,,,,,,,,,,,,,,,,,,,,,,,,0,"[""0.159"",""0.120"",""0.760"",""0.931""]","[1,0,1,1]",0,1,1,1,1,0,1,,,1,FALSE,,,,,,,,,,,,,,,,,,,,,,,,,,,,,,,
,613aa39321ee0e47931e4157,001,2022-04-28_20h08.11.054,classification_task,2021.2.3,Win32,60.93473889,613aa39321ee0e47931e4157,626b377229c10585ec392f8a,626b3a5c4d2cebb7e363ff65,,,,,,,,,,,,,,,,,,,,,,,a,1,"[""0.197"",""0.458"",""0.848"",""0.386""]","[1,1,1,0]",0,2,2,2,1,0,0,,,1,FALSE,1.8603,,,,,,,,,,,,,,,,,,,,,,,,,,,,,,
,613aa39321ee0e47931e4157,001,2022-04-28_20h08.11.054,classification_task,2021.2.3,Win32,60.93473889,613aa39321ee0e47931e4157,626b377229c10585ec392f8a,626b3a5c4d2cebb7e363ff65,,,,,,,,,,,,,,,,,,,,,,,a,0,"[""0.082"",""0.123"",""0.591"",""0.805""]","[1,0,1,1]",0,3,3,3,1,1,0,,,1,FALSE,0.8371,,,,,,,,,,,,,,,,,,,,,,,,,,,,,,
,613aa39321ee0e47931e4157,001,2022-04-28_20h08.11.054,classification_task,2021.2.3,Win32,60.93473889,613aa39321ee0e47931e4157,626b377229c10585ec392f8a,626b3a5c4d2cebb7e363ff65,,,,,,,,,,,,,,,,,,,,,,,a,1,"[""0.159"",""0.555"",""0.415"",""0.931""]","[1,1,0,1]",0,4,4,4,1,0,1,,,1,FALSE,0.6782,,,,,,,,,,,,,,,,,,,,,,,,,,,,,,
,613aa39321ee0e47931e4157,001,2022-04-28_20h08.11.054,classification_task,2021.2.3,Win32,60.93473889,613aa39321ee0e47931e4157,626b377229c10585ec392f8a,626b3a5c4d2cebb7e363ff65,,,,,,,,,,,,,,,,,,,,,,,a,1,"[""0.159"",""0.555"",""0.760"",""0.423""]","[1,1,1,0]",0,5,5,5,1,0,1,,,1,FALSE,5.5694,,,,,,,,,,,,,,,,,,,,,,,,,,,,,,
,613aa39321ee0e47931e4157,001,2022-04-28_20h08.11.054,classification_task,2021.2.3,Win32,60.93473889,613aa39321ee0e47931e4157,626b377229c10585ec392f8a,626b3a5c4d2cebb7e363ff65,,,,,,,,,,,,,,,,,,,,,,,l,1,"[""0.037"",""0.321"",""0.654"",""0.506""]","[1,1,1,0]",0,6,6,6,1,1,1,,,1,FALSE,7.3002,,,,,,,,,,,,,,,,,,,,,,,,,,,,,,
,613aa39321ee0e47931e4157,001,2022-04-28_20h08.11.054,classification_task,2021.2.3,Win32,60.93473889,613aa39321ee0e47931e4157,626b377229c10585ec392f8a,626b3a5c4d2cebb7e363ff65,,,,,,,,,,,,,,,,,,,,,,,a,1,"[""0.197"",""0.458"",""0.508"",""0.969""]","[1,1,0,1]",0,7,7,7,1,0,0,,,1,FALSE,2.0946,,,,,,,,,,,,,,,,,,,,,,,,,,,,,,
,613aa39321ee0e47931e4157,001,2022-04-28_20h08.11.054,classification_task,2021.2.3,Win32,60.93473889,613aa39321ee0e47931e4157,626b377229c10585ec392f8a,626b3a5c4d2cebb7e363ff65,,,,,,,,,,,,,,,,,,,,,,,l,1,"[""0.082"",""0.248"",""0.591"",""0.123""]","[1,1,1,0]",0,8,8,8,1,1,0,,,1,FALSE,4.5128,,,,,,,,,,,,,,,,,,,,,,,,,,,,,,
,613aa39321ee0e47931e4157,001,2022-04-28_20h08.11.054,classification_task,2021.2.3,Win32,60.93473889,613aa39321ee0e47931e4157,626b377229c10585ec392f8a,626b3a5c4d2cebb7e363ff65,,,,,,,,,,,,,,,,,,,,,,,a,1,"[""0.359"",""0.555"",""0.760"",""0.931""]","[0,1,1,1]",0,9,9,9,1,0,1,,,1,FALSE,8.4387,,,,,,,,,,,,,,,,,,,,,,,,,,,,,,
,613aa39321ee0e47931e4157,001,2022-04-28_20h08.11.054,classification_task,2021.2.3,Win32,60.93473889,613aa39321ee0e47931e4157,626b377229c10585ec392f8a,626b3a5c4d2cebb7e363ff65,,,,,,,,,,,,,,,,,,,,,,,l,1,"[""0.120"",""0.248"",""0.591"",""0.805""]","[0,1,1,1]",0,10,10,10,1,1,0,,,1,FALSE,6.0061,,,,,,,,,,,,,,,,,,,,,,,,,,,,,,
,613aa39321ee0e47931e4157,001,2022-04-28_20h08.11.054,classification_task,2021.2.3,Win32,60.93473889,613aa39321ee0e47931e4157,626b377229c10585ec392f8a,626b3a5c4d2cebb7e363ff65,,,,,,,,,,,,,,,,,,,,,,,l,1,"[""0.037"",""0.423"",""0.654"",""0.707""]","[1,0,1,1]",0,11,11,11,1,1,1,,,1,FALSE,3.0124,,,,,,,,,,,,,,,,,,,,,,,,,,,,,,
,613aa39321ee0e47931e4157,001,2022-04-28_20h08.11.054,classification_task,2021.2.3,Win32,60.93473889,613aa39321ee0e47931e4157,626b377229c10585ec392f8a,626b3a5c4d2cebb7e363ff65,,,,,,,,,,,,,,,,,,,,,,,l,1,"[""0.386"",""0.321"",""0.654"",""0.707""]","[0,1,1,1]",0,12,12,12,1,1,1,,,1,FALSE,6.9999,,,,,,,,,,,,,,,,,,,,,,,,,,,,,,
,613aa39321ee0e47931e4157,001,2022-04-28_20h08.11.054,classification_task,2021.2.3,Win32,60.93473889,613aa39321ee0e47931e4157,626b377229c10585ec392f8a,626b3a5c4d2cebb7e363ff65,,,,,,,,,,,,,,,,,,,,,,,l,1,"[""0.037"",""0.321"",""0.379"",""0.707""]","[1,1,0,1]",0,13,13,13,1,1,1,,,1,FALSE,3.1306,,,,,,,,,,,,,,,,,,,,,,,,,,,,,,
,613aa39321ee0e47931e4157,001,2022-04-28_20h08.11.054,classification_task,2021.2.3,Win32,60.93473889,613aa39321ee0e47931e4157,626b377229c10585ec392f8a,626b3a5c4d2cebb7e363ff65,,,,,,,,,,,,,,,,,,,,,,,a,1,"[""0.417"",""0.458"",""0.848"",""0.969""]","[0,1,1,1]",0,14,14,14,1,0,0,,,1,FALSE,6.6423,,,,,,,,,,,,,,,,,,,,,,,,,,,,,,
,613aa39321ee0e47931e4157,001,2022-04-28_20h08.11.054,classification_task,2021.2.3,Win32,60.93473889,613aa39321ee0e47931e4157,626b377229c10585ec392f8a,626b3a5c4d2cebb7e363ff65,,,,,,,,,,,,,,,,,,,,,,,l,1,"[""0.082"",""0.248"",""0.120"",""0.805""]","[1,1,0,1]",0,15,15,15,1,1,0,,,1,FALSE,2.9838,,,,,,,,,,,,,,,,,,,,,,,,,,,,,,
,613aa39321ee0e47931e4157,001,2022-04-28_20h08.11.054,classification_task,2021.2.3,Win32,60.93473889,613aa39321ee0e47931e4157,626b377229c10585ec392f8a,626b3a5c4d2cebb7e363ff65,,,,,,,,,,,,,,,,,,,,,,,a,1,"[""0.159"",""0.386"",""0.760"",""0.931""]","[1,0,1,1]",0,16,16,16,1,0,1,,,1,FALSE,2.4189,,,,,,,,,,,,,,,,,,,,,,,,,,,,,,
,613aa39321ee0e47931e4157,001,2022-04-28_20h08.11.054,classification_task,2021.2.3,Win32,60.93473889,613aa39321ee0e47931e4157,626b377229c10585ec392f8a,626b3a5c4d2cebb7e363ff65,,,,,,,,,,,,,,,,,,,,,,,a,0,"[""0.082"",""0.248"",""0.591"",""0.417""]","[1,1,1,0]",0,17,17,17,1,1,0,,,1,FALSE,2.8418,,,,,,,,,,,,,,,,,,,,,,,,,,,,,,
,613aa39321ee0e47931e4157,001,2022-04-28_20h08.11.054,classification_task,2021.2.3,Win32,60.93473889,613aa39321ee0e47931e4157,626b377229c10585ec392f8a,626b3a5c4d2cebb7e363ff65,,,,,,,,,,,,,,,,,,,,,,,a,0,"[""0.082"",""0.248"",""0.359"",""0.805""]","[1,1,0,1]",0,18,18,18,1,1,0,,,1,FALSE,2.085,,,,,,,,,,,,,,,,,,,,,,,,,,,,,,
,613aa39321ee0e47931e4157,001,2022-04-28_20h08.11.054,classification_task,2021.2.3,Win32,60.93473889,613aa39321ee0e47931e4157,626b377229c10585ec392f8a,626b3a5c4d2cebb7e363ff65,,,,,,,,,,,,,,,,,,,,,,,a,1,"[""0.159"",""0.555"",""0.760"",""0.389""]","[1,1,1,0]",0,19,19,19,1,0,1,,,1,FALSE,2.7624,,,,,,,,,,,,,,,,,,,,,,,,,,,,,,
,613aa39321ee0e47931e4157,001,2022-04-28_20h08.11.054,classification_task,2021.2.3,Win32,60.93473889,613aa39321ee0e47931e4157,626b377229c10585ec392f8a,626b3a5c4d2cebb7e363ff65,,,,,,,,,,,,,,,,,,,,,,,a,1,"[""0.197"",""0.458"",""0.848"",""0.385""]","[1,1,1,0]",0,20,20,20,1,0,0,,,1,FALSE,1.6916,,,,,,,,,,,,,,,,,,,,,,,,,,,,,,
,613aa39321ee0e47931e4157,001,2022-04-28_20h08.11.054,classification_task,2021.2.3,Win32,60.93473889,613aa39321ee0e47931e4157,626b377229c10585ec392f8a,626b3a5c4d2cebb7e363ff65,,,,,,,,,,,,,,,,,,,,,,,l,1,"[""0.417"",""0.248"",""0.591"",""0.805""]","[0,1,1,1]",0,21,21,21,1,1,0,,,1,FALSE,1.7999,,,,,,,,,,,,,,,,,,,,,,,,,,,,,,
,613aa39321ee0e47931e4157,001,2022-04-28_20h08.11.054,classification_task,2021.2.3,Win32,60.93473889,613aa39321ee0e47931e4157,626b377229c10585ec392f8a,626b3a5c4d2cebb7e363ff65,,,,,,,,,,,,,,,,,,,,,,,l,1,"[""0.037"",""0.321"",""0.366"",""0.707""]","[1,1,0,1]",0,22,22,22,1,1,1,,,1,FALSE,6.9781,,,,,,,,,,,,,,,,,,,,,,,,,,,,,,
,613aa39321ee0e47931e4157,001,2022-04-28_20h08.11.054,classification_task,2021.2.3,Win32,60.93473889,613aa39321ee0e47931e4157,626b377229c10585ec392f8a,626b3a5c4d2cebb7e363ff65,,,,,,,,,,,,,,,,,,,,,,,a,1,"[""0.197"",""0.458"",""0.385"",""0.969""]","[1,1,0,1]",0,23,23,23,1,0,0,,,1,FALSE,2.7636,,,,,,,,,,,,,,,,,,,,,,,,,,,,,,
,613aa39321ee0e47931e4157,001,2022-04-28_20h08.11.054,classification_task,2021.2.3,Win32,60.93473889,613aa39321ee0e47931e4157,626b377229c10585ec392f8a,626b3a5c4d2cebb7e363ff65,,,,,,,,,,,,,,,,,,,,,,,l,0,"[""0.389"",""0.555"",""0.760"",""0.931""]","[0,1,1,1]",0,24,24,24,1,0,1,,,1,FALSE,5.5584,,,,,,,,,,,,,,,,,,,,,,,,,,,,,,
,613aa39321ee0e47931e4157,001,2022-04-28_20h08.11.054,classification_task,2021.2.3,Win32,60.93473889,613aa39321ee0e47931e4157,626b377229c10585ec392f8a,626b3a5c4d2cebb7e363ff65,,,,,,,,,,,,,,,,,,,,,,,a,1,"[""0.159"",""0.555"",""0.120"",""0.931""]","[1,1,0,1]",0,25,25,25,1,0,1,,,1,FALSE,2.4584,,,,,,,,,,,,,,,,,,,,,,,,,,,,,,
,613aa39321ee0e47931e4157,001,2022-04-28_20h08.11.054,classification_task,2021.2.3,Win32,60.93473889,613aa39321ee0e47931e4157,626b377229c10585ec392f8a,626b3a5c4d2cebb7e363ff65,,,,,,,,,,,,,,,,,,,,,,,a,1,"[""0.197"",""0.508"",""0.848"",""0.969""]","[1,0,1,1]",0,26,26,26,1,0,0,,,1,FALSE,5.0348,,,,,,,,,,,,,,,,,,,,,,,,,,,,,,
,613aa39321ee0e47931e4157,001,2022-04-28_20h08.11.054,classification_task,2021.2.3,Win32,60.93473889,613aa39321ee0e47931e4157,626b377229c10585ec392f8a,626b3a5c4d2cebb7e363ff65,,,,,,,,,,,,,,,,,,,,,,,a,0,"[""0.037"",""0.321"",""0.654"",""0.417""]","[1,1,1,0]",0,27,27,27,1,1,1,,,1,FALSE,3.4959,,,,,,,,,,,,,,,,,,,,,,,,,,,,,,
,613aa39321ee0e47931e4157,001,2022-04-28_20h08.11.054,classification_task,2021.2.3,Win32,60.93473889,613aa39321ee0e47931e4157,626b377229c10585ec392f8a,626b3a5c4d2cebb7e363ff65,,,,,,,,,,,,,,,,,,,,,,,l,1,"[""0.082"",""0.379"",""0.591"",""0.805""]","[1,0,1,1]",0,28,28,28,1,1,0,,,1,FALSE,3.6107,,,,,,,,,,,,,,,,,,,,,,,,,,,,,,
,613aa39321ee0e47931e4157,001,2022-04-28_20h08.11.054,classification_task,2021.2.3,Win32,60.93473889,613aa39321ee0e47931e4157,626b377229c10585ec392f8a,626b3a5c4d2cebb7e363ff65,,,,,,,,,,,,,,,,,,,,,,,l,1,"[""0.415"",""0.321"",""0.654"",""0.707""]","[0,1,1,1]",0,29,29,29,1,1,1,,,1,FALSE,3.315,,,,,,,,,,,,,,,,,,,,,,,,,,,,,,
,613aa39321ee0e47931e4157,001,2022-04-28_20h08.11.054,classification_task,2021.2.3,Win32,60.93473889,613aa39321ee0e47931e4157,626b377229c10585ec392f8a,626b3a5c4d2cebb7e363ff65,,,,,,,,,,,,,,,,,,,,,,,l,0,"[""0.417"",""0.458"",""0.848"",""0.969""]","[0,1,1,1]",0,30,30,30,1,0,0,,,1,FALSE,3.5262,,,,,,,,,,,,,,,,,,,,,,,,,,,,,,
,613aa39321ee0e47931e4157,001,2022-04-28_20h08.11.054,classification_task,2021.2.3,Win32,60.93473889,613aa39321ee0e47931e4157,626b377229c10585ec392f8a,626b3a5c4d2cebb7e363ff65,,,,,,,,,,,,,,,,,,,,,,,l,1,"[""0.037"",""0.417"",""0.654"",""0.707""]","[1,0,1,1]",0,31,31,31,1,1,1,,,1,FALSE,2.7294,,,,,,,,,,,,,,,,,,,,,,,,,,,,,,
,613aa39321ee0e47931e4157,001,2022-04-28_20h08.11.054,classification_task,2021.2.3,Win32,60.93473889,613aa39321ee0e47931e4157,626b377229c10585ec392f8a,626b3a5c4d2cebb7e363ff65,,,,,,,,,,,,,,,,,,,,,,,a,0,"[""0.037"",""0.321"",""0.506"",""0.707""]","[1,1,0,1]",0,32,32,32,1,1,1,,,1,FALSE,4.9464,,,,,,,,,,,,,,,,,,,,,,,,,,,,,,
,613aa39321ee0e47931e4157,001,2022-04-28_20h08.11.054,classification_task,2021.2.3,Win32,60.93473889,613aa39321ee0e47931e4157,626b377229c10585ec392f8a,626b3a5c4d2cebb7e363ff65,,,,,,,,,,,,,,,,,,,,,,,l,0,"[""0.159"",""0.555"",""0.760"",""0.359""]","[1,1,1,0]",0,33,33,33,1,0,1,,,1,FALSE,0.8678,,,,,,,,,,,,,,,,,,,,,,,,,,,,,,
,613aa39321ee0e47931e4157,001,2022-04-28_20h08.11.054,classification_task,2021.2.3,Win32,60.93473889,613aa39321ee0e47931e4157,626b377229c10585ec392f8a,626b3a5c4d2cebb7e363ff65,,,,,,,,,,,,,,,,,,,,,,,a,1,"[""0.423"",""0.458"",""0.848"",""0.969""]","[0,1,1,1]",0,34,34,34,1,0,0,,,1,FALSE,0.2986,,,,,,,,,,,,,,,,,,,,,,,,,,,,,,
,613aa39321ee0e47931e4157,001,2022-04-28_20h08.11.054,classification_task,2021.2.3,Win32,60.93473889,613aa39321ee0e47931e4157,626b377229c10585ec392f8a,626b3a5c4d2cebb7e363ff65,,,,,,,,,,,,,,,,,,,,,,,l,1,"[""0.082"",""0.248"",""0.385"",""0.805""]","[1,1,0,1]",0,35,35,35,1,1,0,,,1,FALSE,1.8327,,,,,,,,,,,,,,,,,,,,,,,,,,,,,,
,613aa39321ee0e47931e4157,001,2022-04-28_20h08.11.054,classification_task,2021.2.3,Win32,60.93473889,613aa39321ee0e47931e4157,626b377229c10585ec392f8a,626b3a5c4d2cebb7e363ff65,,,,,,,,,,,,,,,,,,,,,,,l,1,"[""0.082"",""0.423"",""0.591"",""0.805""]","[1,0,1,1]",0,36,36,36,1,1,0,,,1,FALSE,1.4345,,,,,,,,,,,,,,,,,,,,,,,,,,,,,,
,613aa39321ee0e47931e4157,001,2022-04-28_20h08.11.054,classification_task,2021.2.3,Win32,60.93473889,613aa39321ee0e47931e4157,626b377229c10585ec392f8a,626b3a5c4d2cebb7e363ff65,,,,,,,,,,,,,,,,,,,,,,,a,1,"[""0.159"",""0.555"",""0.389"",""0.931""]","[1,1,0,1]",0,37,37,37,1,0,1,,,1,FALSE,0.702,,,,,,,,,,,,,,,,,,,,,,,,,,,,,,
,613aa39321ee0e47931e4157,001,2022-04-28_20h08.11.054,classification_task,2021.2.3,Win32,60.93473889,613aa39321ee0e47931e4157,626b377229c10585ec392f8a,626b3a5c4d2cebb7e363ff65,,,,,,,,,,,,,,,,,,,,,,,a,0,"[""0.385"",""0.248"",""0.591"",""0.805""]","[0,1,1,1]",0,38,38,38,1,1,0,,,1,FALSE,1.1671,,,,,,,,,,,,,,,,,,,,,,,,,,,,,,
,613aa39321ee0e47931e4157,001,2022-04-28_20h08.11.054,classification_task,2021.2.3,Win32,60.93473889,613aa39321ee0e47931e4157,626b377229c10585ec392f8a,626b3a5c4d2cebb7e363ff65,,,,,,,,,,,,,,,,,,,,,,,l,0,"[""0.197"",""0.417"",""0.848"",""0.969""]","[1,0,1,1]",0,39,39,39,1,0,0,,,1,FALSE,0.8652,,,,,,,,,,,,,,,,,,,,,,,,,,,,,,
,613aa39321ee0e47931e4157,001,2022-04-28_20h08.11.054,classification_task,2021.2.3,Win32,60.93473889,613aa39321ee0e47931e4157,626b377229c10585ec392f8a,626b3a5c4d2cebb7e363ff65,,,,,,,,,,,,,,,,,,,,,,,a,0,"[""0.508"",""0.321"",""0.654"",""0.707""]","[0,1,1,1]",0,40,40,40,1,1,1,,,1,FALSE,1.2011,,,,,,,,,,,,,,,,,,,,,,,,,,,,,,
,613aa39321ee0e47931e4157,001,2022-04-28_20h08.11.054,classification_task,2021.2.3,Win32,60.93473889,613aa39321ee0e47931e4157,626b377229c10585ec392f8a,626b3a5c4d2cebb7e363ff65,,,,,,,,,,,,,,,,,,,,,,,a,1,"[""0.415"",""0.555"",""0.760"",""0.931""]","[0,1,1,1]",0,41,41,41,1,0,1,,,1,FALSE,0.9177,,,,,,,,,,,,,,,,,,,,,,,,,,,,,,
,613aa39321ee0e47931e4157,001,2022-04-28_20h08.11.054,classification_task,2021.2.3,Win32,60.93473889,613aa39321ee0e47931e4157,626b377229c10585ec392f8a,626b3a5c4d2cebb7e363ff65,,,,,,,,,,,,,,,,,,,,,,,l,0,"[""0.197"",""0.458"",""0.848"",""0.123""]","[1,1,1,0]",0,42,42,42,1,0,0,,,1,FALSE,0.7682,,,,,,,,,,,,,,,,,,,,,,,,,,,,,,
,613aa39321ee0e47931e4157,001,2022-04-28_20h08.11.054,classification_task,2021.2.3,Win32,60.93473889,613aa39321ee0e47931e4157,626b377229c10585ec392f8a,626b3a5c4d2cebb7e363ff65,,,,,,,,,,,,,,,,,,,,,,,a,0,"[""0.037"",""0.506"",""0.654"",""0.707""]","[1,0,1,1]",0,43,43,43,1,1,1,,,1,FALSE,1.0559,,,,,,,,,,,,,,,,,,,,,,,,,,,,,,
,613aa39321ee0e47931e4157,001,2022-04-28_20h08.11.054,classification_task,2021.2.3,Win32,60.93473889,613aa39321ee0e47931e4157,626b377229c10585ec392f8a,626b3a5c4d2cebb7e363ff65,,,,,,,,,,,,,,,,,,,,,,,l,1,"[""0.082"",""0.248"",""0.591"",""0.365""]","[1,1,1,0]",0,44,44,44,1,1,0,,,1,FALSE,0.8511,,,,,,,,,,,,,,,,,,,,,,,,,,,,,,
,613aa39321ee0e47931e4157,001,2022-04-28_20h08.11.054,classification_task,2021.2.3,Win32,60.93473889,613aa39321ee0e47931e4157,626b377229c10585ec392f8a,626b3a5c4d2cebb7e363ff65,,,,,,,,,,,,,,,,,,,,,,,l,0,"[""0.197"",""0.458"",""0.415"",""0.969""]","[1,1,0,1]",0,45,45,45,1,0,0,,,1,FALSE,1.2512,,,,,,,,,,,,,,,,,,,,,,,,,,,,,,
,613aa39321ee0e47931e4157,001,2022-04-28_20h08.11.054,classification_task,2021.2.3,Win32,60.93473889,613aa39321ee0e47931e4157,626b377229c10585ec392f8a,626b3a5c4d2cebb7e363ff65,,,,,,,,,,,,,,,,,,,,,,,a,0,"[""0.037"",""0.321"",""0.654"",""0.359""]","[1,1,1,0]",0,46,46,46,1,1,1,,,1,FALSE,0.6507,,,,,,,,,,,,,,,,,,,,,,,,,,,,,,
,613aa39321ee0e47931e4157,001,2022-04-28_20h08.11.054,classification_task,2021.2.3,Win32,60.93473889,613aa39321ee0e47931e4157,626b377229c10585ec392f8a,626b3a5c4d2cebb7e363ff65,,,,,,,,,,,,,,,,,,,,,,,l,0,"[""0.159"",""0.389"",""0.760"",""0.931""]","[1,0,1,1]",0,47,47,47,1,0,1,,,1,FALSE,1.1498,,,,,,,,,,,,,,,,,,,,,,,,,,,,,,
,613aa39321ee0e47931e4157,001,2022-04-28_20h08.11.054,classification_task,2021.2.3,Win32,60.93473889,613aa39321ee0e47931e4157,626b377229c10585ec392f8a,626b3a5c4d2cebb7e363ff65,,,,,,,,,,,,,,,,,,,,,,,l,0,"[""0.197"",""0.458"",""0.415"",""0.969""]","[1,1,0,1]",0,48,48,48,1,0,0,,,1,FALSE,1.0015,,,,,,,,,,,,,,,,,,,,,,,,,,,,,,
,613aa39321ee0e47931e4157,001,2022-04-28_20h08.11.054,classification_task,2021.2.3,Win32,60.93473889,613aa39321ee0e47931e4157,626b377229c10585ec392f8a,626b3a5c4d2cebb7e363ff65,,,,,,,,,,,,,,,,,,,,,,,l,1,"[""0.037"",""0.366"",""0.654"",""0.707""]","[1,0,1,1]",0,49,49,49,1,1,1,,,1,FALSE,1.1975,,,,,,,,,,,,,,,,,,,,,,,,,,,,,,
,613aa39321ee0e47931e4157,001,2022-04-28_20h08.11.054,classification_task,2021.2.3,Win32,60.93473889,613aa39321ee0e47931e4157,626b377229c10585ec392f8a,626b3a5c4d2cebb7e363ff65,,,,,,,,,,,,,,,,,,,,,,,a,1,"[""0.197"",""0.458"",""0.848"",""0.418""]","[1,1,1,0]",0,50,50,50,1,0,0,,,1,FALSE,0.7503,,,,,,,,,,,,,,,,,,,,,,,,,,,,,,
,613aa39321ee0e47931e4157,001,2022-04-28_20h08.11.054,classification_task,2021.2.3,Win32,60.93473889,613aa39321ee0e47931e4157,626b377229c10585ec392f8a,626b3a5c4d2cebb7e363ff65,,,,,,,,,,,,,,,,,,,,,,,a,1,"[""0.159"",""0.555"",""0.760"",""0.359""]","[1,1,1,0]",0,51,51,51,1,0,1,,,1,FALSE,0.9526,,,,,,,,,,,,,,,,,,,,,,,,,,,,,,
,613aa39321ee0e47931e4157,001,2022-04-28_20h08.11.054,classification_task,2021.2.3,Win32,60.93473889,613aa39321ee0e47931e4157,626b377229c10585ec392f8a,626b3a5c4d2cebb7e363ff65,,,,,,,,,,,,,,,,,,,,,,,l,1,"[""0.037"",""0.321"",""0.120"",""0.707""]","[1,1,0,1]",0,52,52,52,1,1,1,,,1,FALSE,1.4517,,,,,,,,,,,,,,,,,,,,,,,,,,,,,,
,613aa39321ee0e47931e4157,001,2022-04-28_20h08.11.054,classification_task,2021.2.3,Win32,60.93473889,613aa39321ee0e47931e4157,626b377229c10585ec392f8a,626b3a5c4d2cebb7e363ff65,,,,,,,,,,,,,,,,,,,,,,,a,0,"[""0.037"",""0.321"",""0.654"",""0.418""]","[1,1,1,0]",0,53,53,53,1,1,1,,,1,FALSE,0.9355,,,,,,,,,,,,,,,,,,,,,,,,,,,,,,
,613aa39321ee0e47931e4157,001,2022-04-28_20h08.11.054,classification_task,2021.2.3,Win32,60.93473889,613aa39321ee0e47931e4157,626b377229c10585ec392f8a,626b3a5c4d2cebb7e363ff65,,,,,,,,,,,,,,,,,,,,,,,l,0,"[""0.197"",""0.385"",""0.848"",""0.969""]","[1,0,1,1]",0,54,54,54,1,0,0,,,1,FALSE,0.7003,,,,,,,,,,,,,,,,,,,,,,,,,,,,,,
,613aa39321ee0e47931e4157,001,2022-04-28_20h08.11.054,classification_task,2021.2.3,Win32,60.93473889,613aa39321ee0e47931e4157,626b377229c10585ec392f8a,626b3a5c4d2cebb7e363ff65,,,,,,,,,,,,,,,,,,,,,,,a,0,"[""0.417"",""0.321"",""0.654"",""0.707""]","[0,1,1,1]",0,55,55,55,1,1,1,,,1,FALSE,0.8032,,,,,,,,,,,,,,,,,,,,,,,,,,,,,,
,613aa39321ee0e47931e4157,001,2022-04-28_20h08.11.054,classification_task,2021.2.3,Win32,60.93473889,613aa39321ee0e47931e4157,626b377229c10585ec392f8a,626b3a5c4d2cebb7e363ff65,,,,,,,,,,,,,,,,,,,,,,,l,0,"[""0.159"",""0.555"",""0.123"",""0.931""]","[1,1,0,1]",0,56,56,56,1,0,1,,,1,FALSE,0.9844,,,,,,,,,,,,,,,,,,,,,,,,,,,,,,
,613aa39321ee0e47931e4157,001,2022-04-28_20h08.11.054,classification_task,2021.2.3,Win32,60.93473889,613aa39321ee0e47931e4157,626b377229c10585ec392f8a,626b3a5c4d2cebb7e363ff65,,,,,,,,,,,,,,,,,,,,,,,a,0,"[""0.359"",""0.248"",""0.591"",""0.805""]","[0,1,1,1]",0,57,57,57,1,1,0,,,1,FALSE,2.4878,,,,,,,,,,,,,,,,,,,,,,,,,,,,,,
,613aa39321ee0e47931e4157,001,2022-04-28_20h08.11.054,classification_task,2021.2.3,Win32,60.93473889,613aa39321ee0e47931e4157,626b377229c10585ec392f8a,626b3a5c4d2cebb7e363ff65,,,,,,,,,,,,,,,,,,,,,,,l,1,"[""0.082"",""0.423"",""0.591"",""0.805""]","[1,0,1,1]",0,58,58,58,1,1,0,,,1,FALSE,0.8753,,,,,,,,,,,,,,,,,,,,,,,,,,,,,,
,613aa39321ee0e47931e4157,001,2022-04-28_20h08.11.054,classification_task,2021.2.3,Win32,60.93473889,613aa39321ee0e47931e4157,626b377229c10585ec392f8a,626b3a5c4d2cebb7e363ff65,,,,,,,,,,,,,,,,,,,,,,,l,0,"[""0.159"",""0.506"",""0.760"",""0.931""]","[1,0,1,1]",0,59,59,59,1,0,1,,,1,FALSE,2.8317,,,,,,,,,,,,,,,,,,,,,,,,,,,,,,
,613aa39321ee0e47931e4157,001,2022-04-28_20h08.11.054,classification_task,2021.2.3,Win32,60.93473889,613aa39321ee0e47931e4157,626b377229c10585ec392f8a,626b3a5c4d2cebb7e363ff65,,,,,,,,,,,,,,,,,,,,,,,a,1,"[""0.506"",""0.555"",""0.760"",""0.931""]","[0,1,1,1]",0,60,60,60,1,0,1,,,1,FALSE,0.439,,,,,,,,,,,,,,,,,,,,,,,,,,,,,,
,613aa39321ee0e47931e4157,001,2022-04-28_20h08.11.054,classification_task,2021.2.3,Win32,60.93473889,613aa39321ee0e47931e4157,626b377229c10585ec392f8a,626b3a5c4d2cebb7e363ff65,,,,,,,,,,,,,,,,,,,,,,,a,0,"[""0.082"",""0.248"",""0.591"",""0.379""]","[1,1,1,0]",0,61,61,61,1,1,0,,,1,FALSE,0.9349,,,,,,,,,,,,,,,,,,,,,,,,,,,,,,
,613aa39321ee0e47931e4157,001,2022-04-28_20h08.11.054,classification_task,2021.2.3,Win32,60.93473889,613aa39321ee0e47931e4157,626b377229c10585ec392f8a,626b3a5c4d2cebb7e363ff65,,,,,,,,,,,,,,,,,,,,,,,l,0,"[""0.418"",""0.458"",""0.848"",""0.969""]","[0,1,1,1]",0,62,62,62,1,0,0,,,1,FALSE,1.9672,,,,,,,,,,,,,,,,,,,,,,,,,,,,,,
,613aa39321ee0e47931e4157,001,2022-04-28_20h08.11.054,classification_task,2021.2.3,Win32,60.93473889,613aa39321ee0e47931e4157,626b377229c10585ec392f8a,626b3a5c4d2cebb7e363ff65,,,,,,,,,,,,,,,,,,,,,,,a,0,"[""0.082"",""0.248"",""0.366"",""0.805""]","[1,1,0,1]",0,63,63,63,1,1,0,,,1,FALSE,1.9544,,,,,,,,,,,,,,,,,,,,,,,,,,,,,,
,613aa39321ee0e47931e4157,001,2022-04-28_20h08.11.054,classification_task,2021.2.3,Win32,60.93473889,613aa39321ee0e47931e4157,626b377229c10585ec392f8a,626b3a5c4d2cebb7e363ff65,,,,,,,,,,,,,,,,,,,,,,,,,,,,,,,,,,,,,,,0, ,,0,,,0,0,0,0,1,2,1,,,,,,,,,,,,,,,,,
,613aa39321ee0e47931e4157,001,2022-04-28_20h08.11.054,classification_task,2021.2.3,Win32,60.93473889,613aa39321ee0e47931e4157,626b377229c10585ec392f8a,626b3a5c4d2cebb7e363ff65,,,,,,,,,,,,,,,,,,,,,,,,,,,,,,,,,,,,,,,1,  ,,0,,,0,0,0,0,1,2,1,,,,,,,,,,,,,,,,,
,613aa39321ee0e47931e4157,001,2022-04-28_20h08.11.054,classification_task,2021.2.3,Win32,60.93473889,613aa39321ee0e47931e4157,626b377229c10585ec392f8a,626b3a5c4d2cebb7e363ff65,,,,,,,,,,,,,,,,,,,,,,,,,,,,,,,,,,,,,,,2,  ,,0,,,0,0,0,0,1,2,1,,,,,,,,,,,,,,,,,
,613aa39321ee0e47931e4157,001,2022-04-28_20h08.11.054,classification_task,2021.2.3,Win32,60.93473889,613aa39321ee0e47931e4157,626b377229c10585ec392f8a,626b3a5c4d2cebb7e363ff65,,,,,,,,,,,,,,,,,,,,,,,,,,,,,,,,,,,,,,,,,,,,,0,0,0,0,1,,1,,,,,,,,,,,,,,,,,
,613aa39321ee0e47931e4157,001,2022-04-28_20h08.11.054,classification_task,2021.2.3,Win32,60.93473889,613aa39321ee0e47931e4157,626b377229c10585ec392f8a,626b3a5c4d2cebb7e363ff65,,,,,,,,,,,,,,,,,,,,,space,43.6437,a,1,"[""0.197"",""0.366"",""0.848"",""0.969""]","[1,0,1,1]",0,0,0,0,1,0,0,,,1,FALSE,2.5175,,,,,,,,,,,,,,,,,,,,,,,,,,,,,,
,613aa39321ee0e47931e4157,001,2022-04-28_20h08.11.054,classification_task,2021.2.3,Win32,60.93473889,613aa39321ee0e47931e4157,626b377229c10585ec392f8a,626b3a5c4d2cebb7e363ff65,,,,,,,,,,,,,,,,,,,,,,,l,1,"[""0.365"",""0.321"",""0.654"",""0.707""]","[0,1,1,1]",0,1,1,1,1,1,1,,,1,FALSE,0.6352,,,,,,,,,,,,,,,,,,,,,,,,,,,,,,
,613aa39321ee0e47931e4157,001,2022-04-28_20h08.11.054,classification_task,2021.2.3,Win32,60.93473889,613aa39321ee0e47931e4157,626b377229c10585ec392f8a,626b3a5c4d2cebb7e363ff65,,,,,,,,,,,,,,,,,,,,,,,a,0,"[""0.082"",""0.359"",""0.591"",""0.805""]","[1,0,1,1]",0,2,2,2,1,1,0,,,1,FALSE,0.5842,,,,,,,,,,,,,,,,,,,,,,,,,,,,,,
,613aa39321ee0e47931e4157,001,2022-04-28_20h08.11.054,classification_task,2021.2.3,Win32,60.93473889,613aa39321ee0e47931e4157,626b377229c10585ec392f8a,626b3a5c4d2cebb7e363ff65,,,,,,,,,,,,,,,,,,,,,,,l,1,"[""0.037"",""0.386"",""0.654"",""0.707""]","[1,0,1,1]",0,3,3,3,1,1,1,,,1,FALSE,2.4318,,,,,,,,,,,,,,,,,,,,,,,,,,,,,,
,613aa39321ee0e47931e4157,001,2022-04-28_20h08.11.054,classification_task,2021.2.3,Win32,60.93473889,613aa39321ee0e47931e4157,626b377229c10585ec392f8a,626b3a5c4d2cebb7e363ff65,,,,,,,,,,,,,,,,,,,,,,,a,1,"[""0.197"",""0.458"",""0.848"",""0.366""]","[1,1,1,0]",0,4,4,4,1,0,0,,,1,FALSE,0.3813,,,,,,,,,,,,,,,,,,,,,,,,,,,,,,
,613aa39321ee0e47931e4157,001,2022-04-28_20h08.11.054,classification_task,2021.2.3,Win32,60.93473889,613aa39321ee0e47931e4157,626b377229c10585ec392f8a,626b3a5c4d2cebb7e363ff65,,,,,,,,,,,,,,,,,,,,,,,l,1,"[""0.037"",""0.321"",""0.654"",""0.365""]","[1,1,1,0]",0,5,5,5,1,1,1,,,1,FALSE,0.3812,,,,,,,,,,,,,,,,,,,,,,,,,,,,,,
,613aa39321ee0e47931e4157,001,2022-04-28_20h08.11.054,classification_task,2021.2.3,Win32,60.93473889,613aa39321ee0e47931e4157,626b377229c10585ec392f8a,626b3a5c4d2cebb7e363ff65,,,,,,,,,,,,,,,,,,,,,,,a,0,"[""0.082"",""0.248"",""0.591"",""0.506""]","[1,1,1,0]",0,6,6,6,1,1,0,,,1,FALSE,0.2673,,,,,,,,,,,,,,,,,,,,,,,,,,,,,,
,613aa39321ee0e47931e4157,001,2022-04-28_20h08.11.054,classification_task,2021.2.3,Win32,60.93473889,613aa39321ee0e47931e4157,626b377229c10585ec392f8a,626b3a5c4d2cebb7e363ff65,,,,,,,,,,,,,,,,,,,,,,,l,0,"[""0.159"",""0.366"",""0.760"",""0.931""]","[1,0,1,1]",0,7,7,7,1,0,1,,,1,FALSE,0.3489,,,,,,,,,,,,,,,,,,,,,,,,,,,,,,
,613aa39321ee0e47931e4157,001,2022-04-28_20h08.11.054,classification_task,2021.2.3,Win32,60.93473889,613aa39321ee0e47931e4157,626b377229c10585ec392f8a,626b3a5c4d2cebb7e363ff65,,,,,,,,,,,,,,,,,,,,,,,a,0,"[""0.082"",""0.248"",""0.359"",""0.805""]","[1,1,0,1]",0,8,8,8,1,1,0,,,1,FALSE,0.6165,,,,,,,,,,,,,,,,,,,,,,,,,,,,,,
,613aa39321ee0e47931e4157,001,2022-04-28_20h08.11.054,classification_task,2021.2.3,Win32,60.93473889,613aa39321ee0e47931e4157,626b377229c10585ec392f8a,626b3a5c4d2cebb7e363ff65,,,,,,,,,,,,,,,,,,,,,,,a,0,"[""0.120"",""0.248"",""0.591"",""0.805""]","[0,1,1,1]",0,9,9,9,1,1,0,,,1,FALSE,0.3835,,,,,,,,,,,,,,,,,,,,,,,,,,,,,,
,613aa39321ee0e47931e4157,001,2022-04-28_20h08.11.054,classification_task,2021.2.3,Win32,60.93473889,613aa39321ee0e47931e4157,626b377229c10585ec392f8a,626b3a5c4d2cebb7e363ff65,,,,,,,,,,,,,,,,,,,,,,,l,0,"[""0.159"",""0.555"",""0.760"",""0.359""]","[1,1,1,0]",0,10,10,10,1,0,1,,,1,FALSE,0.3652,,,,,,,,,,,,,,,,,,,,,,,,,,,,,,
,613aa39321ee0e47931e4157,001,2022-04-28_20h08.11.054,classification_task,2021.2.3,Win32,60.93473889,613aa39321ee0e47931e4157,626b377229c10585ec392f8a,626b3a5c4d2cebb7e363ff65,,,,,,,,,,,,,,,,,,,,,,,l,0,"[""0.506"",""0.555"",""0.760"",""0.931""]","[0,1,1,1]",0,11,11,11,1,0,1,,,1,FALSE,1.4375,,,,,,,,,,,,,,,,,,,,,,,,,,,,,,
,613aa39321ee0e47931e4157,001,2022-04-28_20h08.11.054,classification_task,2021.2.3,Win32,60.93473889,613aa39321ee0e47931e4157,626b377229c10585ec392f8a,626b3a5c4d2cebb7e363ff65,,,,,,,,,,,,,,,,,,,,,,,a,1,"[""0.423"",""0.458"",""0.848"",""0.969""]","[0,1,1,1]",0,12,12,12,1,0,0,,,1,FALSE,0.9499,,,,,,,,,,,,,,,,,,,,,,,,,,,,,,
,613aa39321ee0e47931e4157,001,2022-04-28_20h08.11.054,classification_task,2021.2.3,Win32,60.93473889,613aa39321ee0e47931e4157,626b377229c10585ec392f8a,626b3a5c4d2cebb7e363ff65,,,,,,,,,,,,,,,,,,,,,,,l,1,"[""0.037"",""0.321"",""0.508"",""0.707""]","[1,1,0,1]",0,13,13,13,1,1,1,,,1,FALSE,2.2332,,,,,,,,,,,,,,,,,,,,,,,,,,,,,,
,613aa39321ee0e47931e4157,001,2022-04-28_20h08.11.054,classification_task,2021.2.3,Win32,60.93473889,613aa39321ee0e47931e4157,626b377229c10585ec392f8a,626b3a5c4d2cebb7e363ff65,,,,,,,,,,,,,,,,,,,,,,,a,1,"[""0.197"",""0.458"",""0.123"",""0.969""]","[1,1,0,1]",0,14,14,14,1,0,0,,,1,FALSE,0.8972,,,,,,,,,,,,,,,,,,,,,,,,,,,,,,
,613aa39321ee0e47931e4157,001,2022-04-28_20h08.11.054,classification_task,2021.2.3,Win32,60.93473889,613aa39321ee0e47931e4157,626b377229c10585ec392f8a,626b3a5c4d2cebb7e363ff65,,,,,,,,,,,,,,,,,,,,,,,l,0,"[""0.159"",""0.555"",""0.379"",""0.931""]","[1,1,0,1]",0,15,15,15,1,0,1,,,1,FALSE,0.6502,,,,,,,,,,,,,,,,,,,,,,,,,,,,,,
,613aa39321ee0e47931e4157,001,2022-04-28_20h08.11.054,classification_task,2021.2.3,Win32,60.93473889,613aa39321ee0e47931e4157,626b377229c10585ec392f8a,626b3a5c4d2cebb7e363ff65,,,,,,,,,,,,,,,,,,,,,,,l,0,"[""0.896"",""0.555"",""0.760"",""0.931""]","[0,1,1,1]",0,16,16,16,1,0,1,,,1,FALSE,1.6968,,,,,,,,,,,,,,,,,,,,,,,,,,,,,,
,613aa39321ee0e47931e4157,001,2022-04-28_20h08.11.054,classification_task,2021.2.3,Win32,60.93473889,613aa39321ee0e47931e4157,626b377229c10585ec392f8a,626b3a5c4d2cebb7e363ff65,,,,,,,,,,,,,,,,,,,,,,,a,1,"[""0.197"",""0.458"",""0.848"",""0.120""]","[1,1,1,0]",0,17,17,17,1,0,0,,,1,FALSE,0.8346,,,,,,,,,,,,,,,,,,,,,,,,,,,,,,
,613aa39321ee0e47931e4157,001,2022-04-28_20h08.11.054,classification_task,2021.2.3,Win32,60.93473889,613aa39321ee0e47931e4157,626b377229c10585ec392f8a,626b3a5c4d2cebb7e363ff65,,,,,,,,,,,,,,,,,,,,,,,a,1,"[""0.197"",""0.458"",""0.417"",""0.969""]","[1,1,0,1]",0,18,18,18,1,0,0,,,1,FALSE,0.832,,,,,,,,,,,,,,,,,,,,,,,,,,,,,,
,613aa39321ee0e47931e4157,001,2022-04-28_20h08.11.054,classification_task,2021.2.3,Win32,60.93473889,613aa39321ee0e47931e4157,626b377229c10585ec392f8a,626b3a5c4d2cebb7e363ff65,,,,,,,,,,,,,,,,,,,,,,,a,1,"[""0.423"",""0.458"",""0.848"",""0.969""]","[0,1,1,1]",0,19,19,19,1,0,0,,,1,FALSE,0.6996,,,,,,,,,,,,,,,,,,,,,,,,,,,,,,
,613aa39321ee0e47931e4157,001,2022-04-28_20h08.11.054,classification_task,2021.2.3,Win32,60.93473889,613aa39321ee0e47931e4157,626b377229c10585ec392f8a,626b3a5c4d2cebb7e363ff65,,,,,,,,,,,,,,,,,,,,,,,a,1,"[""0.197"",""0.386"",""0.848"",""0.969""]","[1,0,1,1]",0,20,20,20,1,0,0,,,1,FALSE,0.5841,,,,,,,,,,,,,,,,,,,,,,,,,,,,,,
,613aa39321ee0e47931e4157,001,2022-04-28_20h08.11.054,classification_task,2021.2.3,Win32,60.93473889,613aa39321ee0e47931e4157,626b377229c10585ec392f8a,626b3a5c4d2cebb7e363ff65,,,,,,,,,,,,,,,,,,,,,,,l,0,"[""0.159"",""0.415"",""0.760"",""0.931""]","[1,0,1,1]",0,21,21,21,1,0,1,,,1,FALSE,1.1337,,,,,,,,,,,,,,,,,,,,,,,,,,,,,,
,613aa39321ee0e47931e4157,001,2022-04-28_20h08.11.054,classification_task,2021.2.3,Win32,60.93473889,613aa39321ee0e47931e4157,626b377229c10585ec392f8a,626b3a5c4d2cebb7e363ff65,,,,,,,,,,,,,,,,,,,,,,,a,0,"[""0.366"",""0.248"",""0.591"",""0.805""]","[0,1,1,1]",0,22,22,22,1,1,0,,,1,FALSE,0.718,,,,,,,,,,,,,,,,,,,,,,,,,,,,,,
,613aa39321ee0e47931e4157,001,2022-04-28_20h08.11.054,classification_task,2021.2.3,Win32,60.93473889,613aa39321ee0e47931e4157,626b377229c10585ec392f8a,626b3a5c4d2cebb7e363ff65,,,,,,,,,,,,,,,,,,,,,,,l,1,"[""0.082"",""0.248"",""0.389"",""0.805""]","[1,1,0,1]",0,23,23,23,1,1,0,,,1,FALSE,0.5172,,,,,,,,,,,,,,,,,,,,,,,,,,,,,,
,613aa39321ee0e47931e4157,001,2022-04-28_20h08.11.054,classification_task,2021.2.3,Win32,60.93473889,613aa39321ee0e47931e4157,626b377229c10585ec392f8a,626b3a5c4d2cebb7e363ff65,,,,,,,,,,,,,,,,,,,,,,,a,0,"[""0.037"",""0.366"",""0.654"",""0.707""]","[1,0,1,1]",0,24,24,24,1,1,1,,,1,FALSE,0.8011,,,,,,,,,,,,,,,,,,,,,,,,,,,,,,
,613aa39321ee0e47931e4157,001,2022-04-28_20h08.11.054,classification_task,2021.2.3,Win32,60.93473889,613aa39321ee0e47931e4157,626b377229c10585ec392f8a,626b3a5c4d2cebb7e363ff65,,,,,,,,,,,,,,,,,,,,,,,l,1,"[""0.082"",""0.359"",""0.591"",""0.805""]","[1,0,1,1]",0,25,25,25,1,1,0,,,1,FALSE,0.7352,,,,,,,,,,,,,,,,,,,,,,,,,,,,,,
,613aa39321ee0e47931e4157,001,2022-04-28_20h08.11.054,classification_task,2021.2.3,Win32,60.93473889,613aa39321ee0e47931e4157,626b377229c10585ec392f8a,626b3a5c4d2cebb7e363ff65,,,,,,,,,,,,,,,,,,,,,,,a,0,"[""0.082"",""0.248"",""0.591"",""0.418""]","[1,1,1,0]",0,26,26,26,1,1,0,,,1,FALSE,0.7833,,,,,,,,,,,,,,,,,,,,,,,,,,,,,,
,613aa39321ee0e47931e4157,001,2022-04-28_20h08.11.054,classification_task,2021.2.3,Win32,60.93473889,613aa39321ee0e47931e4157,626b377229c10585ec392f8a,626b3a5c4d2cebb7e363ff65,,,,,,,,,,,,,,,,,,,,,,,l,1,"[""0.037"",""0.321"",""0.654"",""0.896""]","[1,1,1,0]",0,27,27,27,1,1,1,,,1,FALSE,0.5495,,,,,,,,,,,,,,,,,,,,,,,,,,,,,,
,613aa39321ee0e47931e4157,001,2022-04-28_20h08.11.054,classification_task,2021.2.3,Win32,60.93473889,613aa39321ee0e47931e4157,626b377229c10585ec392f8a,626b3a5c4d2cebb7e363ff65,,,,,,,,,,,,,,,,,,,,,,,l,0,"[""0.159"",""0.555"",""0.120"",""0.931""]","[1,1,0,1]",0,28,28,28,1,0,1,,,1,FALSE,1.3826,,,,,,,,,,,,,,,,,,,,,,,,,,,,,,
,613aa39321ee0e47931e4157,001,2022-04-28_20h08.11.054,classification_task,2021.2.3,Win32,60.93473889,613aa39321ee0e47931e4157,626b377229c10585ec392f8a,626b3a5c4d2cebb7e363ff65,,,,,,,,,,,,,,,,,,,,,,,a,1,"[""0.159"",""0.555"",""0.760"",""0.123""]","[1,1,1,0]",0,29,29,29,1,0,1,,,1,FALSE,2.1657,,,,,,,,,,,,,,,,,,,,,,,,,,,,,,
,613aa39321ee0e47931e4157,001,2022-04-28_20h08.11.054,classification_task,2021.2.3,Win32,60.93473889,613aa39321ee0e47931e4157,626b377229c10585ec392f8a,626b3a5c4d2cebb7e363ff65,,,,,,,,,,,,,,,,,,,,,,,a,0,"[""0.896"",""0.321"",""0.654"",""0.707""]","[0,1,1,1]",0,30,30,30,1,1,1,,,1,FALSE,1.5498,,,,,,,,,,,,,,,,,,,,,,,,,,,,,,
,613aa39321ee0e47931e4157,001,2022-04-28_20h08.11.054,classification_task,2021.2.3,Win32,60.93473889,613aa39321ee0e47931e4157,626b377229c10585ec392f8a,626b3a5c4d2cebb7e363ff65,,,,,,,,,,,,,,,,,,,,,,,a,0,"[""0.037"",""0.321"",""0.389"",""0.707""]","[1,1,0,1]",0,31,31,31,1,1,1,,,1,FALSE,0.6661,,,,,,,,,,,,,,,,,,,,,,,,,,,,,,
,613aa39321ee0e47931e4157,001,2022-04-28_20h08.11.054,classification_task,2021.2.3,Win32,60.93473889,613aa39321ee0e47931e4157,626b377229c10585ec392f8a,626b3a5c4d2cebb7e363ff65,,,,,,,,,,,,,,,,,,,,,,,l,0,"[""0.159"",""0.359"",""0.760"",""0.931""]","[1,0,1,1]",0,32,32,32,1,0,1,,,1,FALSE,0.2683,,,,,,,,,,,,,,,,,,,,,,,,,,,,,,
,613aa39321ee0e47931e4157,001,2022-04-28_20h08.11.054,classification_task,2021.2.3,Win32,60.93473889,613aa39321ee0e47931e4157,626b377229c10585ec392f8a,626b3a5c4d2cebb7e363ff65,,,,,,,,,,,,,,,,,,,,,,,a,1,"[""0.159"",""0.555"",""0.896"",""0.931""]","[1,1,0,1]",0,33,33,33,1,0,1,,,1,FALSE,0.3182,,,,,,,,,,,,,,,,,,,,,,,,,,,,,,
,613aa39321ee0e47931e4157,001,2022-04-28_20h08.11.054,classification_task,2021.2.3,Win32,60.93473889,613aa39321ee0e47931e4157,626b377229c10585ec392f8a,626b3a5c4d2cebb7e363ff65,,,,,,,,,,,,,,,,,,,,,,,a,0,"[""0.037"",""0.321"",""0.385"",""0.707""]","[1,1,0,1]",0,34,34,34,1,1,1,,,1,FALSE,0.7392,,,,,,,,,,,,,,,,,,,,,,,,,,,,,,
,613aa39321ee0e47931e4157,001,2022-04-28_20h08.11.054,classification_task,2021.2.3,Win32,60.93473889,613aa39321ee0e47931e4157,626b377229c10585ec392f8a,626b3a5c4d2cebb7e363ff65,,,,,,,,,,,,,,,,,,,,,,,l,0,"[""0.197"",""0.458"",""0.123"",""0.969""]","[1,1,0,1]",0,35,35,35,1,0,0,,,1,FALSE,1.0675,,,,,,,,,,,,,,,,,,,,,,,,,,,,,,
,613aa39321ee0e47931e4157,001,2022-04-28_20h08.11.054,classification_task,2021.2.3,Win32,60.93473889,613aa39321ee0e47931e4157,626b377229c10585ec392f8a,626b3a5c4d2cebb7e363ff65,,,,,,,,,,,,,,,,,,,,,,,a,0,"[""0.037"",""0.415"",""0.654"",""0.707""]","[1,0,1,1]",0,36,36,36,1,1,1,,,1,FALSE,0.8461,,,,,,,,,,,,,,,,,,,,,,,,,,,,,,
,613aa39321ee0e47931e4157,001,2022-04-28_20h08.11.054,classification_task,2021.2.3,Win32,60.93473889,613aa39321ee0e47931e4157,626b377229c10585ec392f8a,626b3a5c4d2cebb7e363ff65,,,,,,,,,,,,,,,,,,,,,,,l,1,"[""0.418"",""0.321"",""0.654"",""0.707""]","[0,1,1,1]",0,37,37,37,1,1,1,,,1,FALSE,0.6652,,,,,,,,,,,,,,,,,,,,,,,,,,,,,,
,613aa39321ee0e47931e4157,001,2022-04-28_20h08.11.054,classification_task,2021.2.3,Win32,60.93473889,613aa39321ee0e47931e4157,626b377229c10585ec392f8a,626b3a5c4d2cebb7e363ff65,,,,,,,,,,,,,,,,,,,,,,,l,1,"[""0.037"",""0.321"",""0.654"",""0.379""]","[1,1,1,0]",0,38,38,38,1,1,1,,,1,FALSE,0.7386,,,,,,,,,,,,,,,,,,,,,,,,,,,,,,
,613aa39321ee0e47931e4157,001,2022-04-28_20h08.11.054,classification_task,2021.2.3,Win32,60.93473889,613aa39321ee0e47931e4157,626b377229c10585ec392f8a,626b3a5c4d2cebb7e363ff65,,,,,,,,,,,,,,,,,,,,,,,a,0,"[""0.418"",""0.248"",""0.591"",""0.805""]","[0,1,1,1]",0,39,39,39,1,1,0,,,1,FALSE,0.4331,,,,,,,,,,,,,,,,,,,,,,,,,,,,,,
,613aa39321ee0e47931e4157,001,2022-04-28_20h08.11.054,classification_task,2021.2.3,Win32,60.93473889,613aa39321ee0e47931e4157,626b377229c10585ec392f8a,626b3a5c4d2cebb7e363ff65,,,,,,,,,,,,,,,,,,,,,,,l,0,"[""0.415"",""0.555"",""0.760"",""0.931""]","[0,1,1,1]",0,40,40,40,1,0,1,,,1,FALSE,0.6152,,,,,,,,,,,,,,,,,,,,,,,,,,,,,,
,613aa39321ee0e47931e4157,001,2022-04-28_20h08.11.054,classification_task,2021.2.3,Win32,60.93473889,613aa39321ee0e47931e4157,626b377229c10585ec392f8a,626b3a5c4d2cebb7e363ff65,,,,,,,,,,,,,,,,,,,,,,,a,1,"[""0.386"",""0.458"",""0.848"",""0.969""]","[0,1,1,1]",0,41,41,41,1,0,0,,,1,FALSE,0.7969,,,,,,,,,,,,,,,,,,,,,,,,,,,,,,
,613aa39321ee0e47931e4157,001,2022-04-28_20h08.11.054,classification_task,2021.2.3,Win32,60.93473889,613aa39321ee0e47931e4157,626b377229c10585ec392f8a,626b3a5c4d2cebb7e363ff65,,,,,,,,,,,,,,,,,,,,,,,a,1,"[""0.197"",""0.418"",""0.848"",""0.969""]","[1,0,1,1]",0,42,42,42,1,0,0,,,1,FALSE,0.7514,,,,,,,,,,,,,,,,,,,,,,,,,,,,,,
,613aa39321ee0e47931e4157,001,2022-04-28_20h08.11.054,classification_task,2021.2.3,Win32,60.93473889,613aa39321ee0e47931e4157,626b377229c10585ec392f8a,626b3a5c4d2cebb7e363ff65,,,,,,,,,,,,,,,,,,,,,,,l,0,"[""0.159"",""0.555"",""0.760"",""0.508""]","[1,1,1,0]",0,43,43,43,1,0,1,,,1,FALSE,0.7369,,,,,,,,,,,,,,,,,,,,,,,,,,,,,,
,613aa39321ee0e47931e4157,001,2022-04-28_20h08.11.054,classification_task,2021.2.3,Win32,60.93473889,613aa39321ee0e47931e4157,626b377229c10585ec392f8a,626b3a5c4d2cebb7e363ff65,,,,,,,,,,,,,,,,,,,,,,,a,0,"[""0.082"",""0.248"",""0.591"",""0.385""]","[1,1,1,0]",0,44,44,44,1,1,0,,,1,FALSE,0.5677,,,,,,,,,,,,,,,,,,,,,,,,,,,,,,
,613aa39321ee0e47931e4157,001,2022-04-28_20h08.11.054,classification_task,2021.2.3,Win32,60.93473889,613aa39321ee0e47931e4157,626b377229c10585ec392f8a,626b3a5c4d2cebb7e363ff65,,,,,,,,,,,,,,,,,,,,,,,a,0,"[""0.082"",""0.248"",""0.359"",""0.805""]","[1,1,0,1]",0,45,45,45,1,1,0,,,1,FALSE,0.537,,,,,,,,,,,,,,,,,,,,,,,,,,,,,,
,613aa39321ee0e47931e4157,001,2022-04-28_20h08.11.054,classification_task,2021.2.3,Win32,60.93473889,613aa39321ee0e47931e4157,626b377229c10585ec392f8a,626b3a5c4d2cebb7e363ff65,,,,,,,,,,,,,,,,,,,,,,,a,0,"[""0.082"",""0.120"",""0.591"",""0.805""]","[1,0,1,1]",0,46,46,46,1,1,0,,,1,FALSE,0.4704,,,,,,,,,,,,,,,,,,,,,,,,,,,,,,
,613aa39321ee0e47931e4157,001,2022-04-28_20h08.11.054,classification_task,2021.2.3,Win32,60.93473889,613aa39321ee0e47931e4157,626b377229c10585ec392f8a,626b3a5c4d2cebb7e363ff65,,,,,,,,,,,,,,,,,,,,,,,a,1,"[""0.197"",""0.458"",""0.848"",""0.506""]","[1,1,1,0]",0,47,47,47,1,0,0,,,1,FALSE,0.4683,,,,,,,,,,,,,,,,,,,,,,,,,,,,,,
,613aa39321ee0e47931e4157,001,2022-04-28_20h08.11.054,classification_task,2021.2.3,Win32,60.93473889,613aa39321ee0e47931e4157,626b377229c10585ec392f8a,626b3a5c4d2cebb7e363ff65,,,,,,,,,,,,,,,,,,,,,,,a,1,"[""0.197"",""0.417"",""0.848"",""0.969""]","[1,0,1,1]",0,48,48,48,1,0,0,,,1,FALSE,1.0762,,,,,,,,,,,,,,,,,,,,,,,,,,,,,,
,613aa39321ee0e47931e4157,001,2022-04-28_20h08.11.054,classification_task,2021.2.3,Win32,60.93473889,613aa39321ee0e47931e4157,626b377229c10585ec392f8a,626b3a5c4d2cebb7e363ff65,,,,,,,,,,,,,,,,,,,,,,,l,1,"[""0.896"",""0.248"",""0.591"",""0.805""]","[0,1,1,1]",0,49,49,49,1,1,0,,,1,FALSE,0.9693,,,,,,,,,,,,,,,,,,,,,,,,,,,,,,
,613aa39321ee0e47931e4157,001,2022-04-28_20h08.11.054,classification_task,2021.2.3,Win32,60.93473889,613aa39321ee0e47931e4157,626b377229c10585ec392f8a,626b3a5c4d2cebb7e363ff65,,,,,,,,,,,,,,,,,,,,,,,a,1,"[""0.159"",""0.555"",""0.120"",""0.931""]","[1,1,0,1]",0,50,50,50,1,0,1,,,1,FALSE,0.5503,,,,,,,,,,,,,,,,,,,,,,,,,,,,,,
,613aa39321ee0e47931e4157,001,2022-04-28_20h08.11.054,classification_task,2021.2.3,Win32,60.93473889,613aa39321ee0e47931e4157,626b377229c10585ec392f8a,626b3a5c4d2cebb7e363ff65,,,,,,,,,,,,,,,,,,,,,,,a,1,"[""0.366"",""0.458"",""0.848"",""0.969""]","[0,1,1,1]",0,51,51,51,1,0,0,,,1,FALSE,2.6853,,,,,,,,,,,,,,,,,,,,,,,,,,,,,,
,613aa39321ee0e47931e4157,001,2022-04-28_20h08.11.054,classification_task,2021.2.3,Win32,60.93473889,613aa39321ee0e47931e4157,626b377229c10585ec392f8a,626b3a5c4d2cebb7e363ff65,,,,,,,,,,,,,,,,,,,,,,,a,0,"[""0.082"",""0.385"",""0.591"",""0.805""]","[1,0,1,1]",0,52,52,52,1,1,0,,,1,FALSE,0.9982,,,,,,,,,,,,,,,,,,,,,,,,,,,,,,
,613aa39321ee0e47931e4157,001,2022-04-28_20h08.11.054,classification_task,2021.2.3,Win32,60.93473889,613aa39321ee0e47931e4157,626b377229c10585ec392f8a,626b3a5c4d2cebb7e363ff65,,,,,,,,,,,,,,,,,,,,,,,l,0,"[""0.197"",""0.458"",""0.848"",""0.508""]","[1,1,1,0]",0,53,53,53,1,0,0,,,1,FALSE,0.568,,,,,,,,,,,,,,,,,,,,,,,,,,,,,,
,613aa39321ee0e47931e4157,001,2022-04-28_20h08.11.054,classification_task,2021.2.3,Win32,60.93473889,613aa39321ee0e47931e4157,626b377229c10585ec392f8a,626b3a5c4d2cebb7e363ff65,,,,,,,,,,,,,,,,,,,,,,,l,0,"[""0.197"",""0.458"",""0.417"",""0.969""]","[1,1,0,1]",0,54,54,54,1,0,0,,,1,FALSE,1.6693,,,,,,,,,,,,,,,,,,,,,,,,,,,,,,
,613aa39321ee0e47931e4157,001,2022-04-28_20h08.11.054,classification_task,2021.2.3,Win32,60.93473889,613aa39321ee0e47931e4157,626b377229c10585ec392f8a,626b3a5c4d2cebb7e363ff65,,,,,,,,,,,,,,,,,,,,,,,a,1,"[""0.417"",""0.555"",""0.760"",""0.931""]","[0,1,1,1]",0,55,55,55,1,0,1,,,1,FALSE,0.4853,,,,,,,,,,,,,,,,,,,,,,,,,,,,,,
,613aa39321ee0e47931e4157,001,2022-04-28_20h08.11.054,classification_task,2021.2.3,Win32,60.93473889,613aa39321ee0e47931e4157,626b377229c10585ec392f8a,626b3a5c4d2cebb7e363ff65,,,,,,,,,,,,,,,,,,,,,,,a,0,"[""0.896"",""0.321"",""0.654"",""0.707""]","[0,1,1,1]",0,56,56,56,1,1,1,,,1,FALSE,0.499,,,,,,,,,,,,,,,,,,,,,,,,,,,,,,
,613aa39321ee0e47931e4157,001,2022-04-28_20h08.11.054,classification_task,2021.2.3,Win32,60.93473889,613aa39321ee0e47931e4157,626b377229c10585ec392f8a,626b3a5c4d2cebb7e363ff65,,,,,,,,,,,,,,,,,,,,,,,l,0,"[""0.159"",""0.555"",""0.760"",""0.506""]","[1,1,1,0]",0,57,57,57,1,0,1,,,1,FALSE,0.5015,,,,,,,,,,,,,,,,,,,,,,,,,,,,,,
,613aa39321ee0e47931e4157,001,2022-04-28_20h08.11.054,classification_task,2021.2.3,Win32,60.93473889,613aa39321ee0e47931e4157,626b377229c10585ec392f8a,626b3a5c4d2cebb7e363ff65,,,,,,,,,,,,,,,,,,,,,,,a,0,"[""0.037"",""0.321"",""0.654"",""0.385""]","[1,1,1,0]",0,58,58,58,1,1,1,,,1,FALSE,0.2837,,,,,,,,,,,,,,,,,,,,,,,,,,,,,,
,613aa39321ee0e47931e4157,001,2022-04-28_20h08.11.054,classification_task,2021.2.3,Win32,60.93473889,613aa39321ee0e47931e4157,626b377229c10585ec392f8a,626b3a5c4d2cebb7e363ff65,,,,,,,,,,,,,,,,,,,,,,,l,1,"[""0.082"",""0.248"",""0.417"",""0.805""]","[1,1,0,1]",0,59,59,59,1,1,0,,,1,FALSE,0.6314,,,,,,,,,,,,,,,,,,,,,,,,,,,,,,
,613aa39321ee0e47931e4157,001,2022-04-28_20h08.11.054,classification_task,2021.2.3,Win32,60.93473889,613aa39321ee0e47931e4157,626b377229c10585ec392f8a,626b3a5c4d2cebb7e363ff65,,,,,,,,,,,,,,,,,,,,,,,l,1,"[""0.037"",""0.321"",""0.120"",""0.707""]","[1,1,0,1]",0,60,60,60,1,1,1,,,1,FALSE,0.6339,,,,,,,,,,,,,,,,,,,,,,,,,,,,,,
,613aa39321ee0e47931e4157,001,2022-04-28_20h08.11.054,classification_task,2021.2.3,Win32,60.93473889,613aa39321ee0e47931e4157,626b377229c10585ec392f8a,626b3a5c4d2cebb7e363ff65,,,,,,,,,,,,,,,,,,,,,,,l,1,"[""0.082"",""0.248"",""0.591"",""0.386""]","[1,1,1,0]",0,61,61,61,1,1,0,,,1,FALSE,0.6504,,,,,,,,,,,,,,,,,,,,,,,,,,,,,,
,613aa39321ee0e47931e4157,001,2022-04-28_20h08.11.054,classification_task,2021.2.3,Win32,60.93473889,613aa39321ee0e47931e4157,626b377229c10585ec392f8a,626b3a5c4d2cebb7e363ff65,,,,,,,,,,,,,,,,,,,,,,,l,1,"[""0.037"",""0.123"",""0.654"",""0.707""]","[1,0,1,1]",0,62,62,62,1,1,1,,,1,FALSE,0.7026,,,,,,,,,,,,,,,,,,,,,,,,,,,,,,
,613aa39321ee0e47931e4157,001,2022-04-28_20h08.11.054,classification_task,2021.2.3,Win32,60.93473889,613aa39321ee0e47931e4157,626b377229c10585ec392f8a,626b3a5c4d2cebb7e363ff65,,,,,,,,,,,,,,,,,,,,,,,a,1,"[""0.159"",""0.415"",""0.760"",""0.931""]","[1,0,1,1]",0,63,63,63,1,0,1,,,1,FALSE,0.652,,,,,,,,,,,,,,,,,,,,,,,,,,,,,,
,613aa39321ee0e47931e4157,001,2022-04-28_20h08.11.054,classification_task,2021.2.3,Win32,60.93473889,613aa39321ee0e47931e4157,626b377229c10585ec392f8a,626b3a5c4d2cebb7e363ff65,,,,,,,,,,,,,,,,,,,,,,,,,,,,,,,,,,,,,,,0, ,,0,8.135410543,188.757,0,1,1,1,1,2,2,,,,,,,,,,,,,,,,,
,613aa39321ee0e47931e4157,001,2022-04-28_20h08.11.054,classification_task,2021.2.3,Win32,60.93473889,613aa39321ee0e47931e4157,626b377229c10585ec392f8a,626b3a5c4d2cebb7e363ff65,,,,,,,,,,,,,,,,,,,,,,,,,,,,,,,,,,,,,,,1,  ,,0,7.841465804,186.0358,0,1,1,1,1,2,2,,,,,,,,,,,,,,,,,
,613aa39321ee0e47931e4157,001,2022-04-28_20h08.11.054,classification_task,2021.2.3,Win32,60.93473889,613aa39321ee0e47931e4157,626b377229c10585ec392f8a,626b3a5c4d2cebb7e363ff65,,,,,,,,,,,,,,,,,,,,,,,,,,,,,,,,,,,,,,,2,  ,,0,7.621007251,190.1555,0,1,1,1,1,2,2,,,,,,,,,,,,,,,,,
,613aa39321ee0e47931e4157,001,2022-04-28_20h08.11.054,classification_task,2021.2.3,Win32,60.93473889,613aa39321ee0e47931e4157,626b377229c10585ec392f8a,626b3a5c4d2cebb7e363ff65,,,,,,,,,,,,,,,,,,,,,,,,,,,,,,,,,,,,,,,,,,,,,0,1,1,1,1,,2,,,,,,,,,,,,,,,,,
,613aa39321ee0e47931e4157,001,2022-04-28_20h08.11.054,classification_task,2021.2.3,Win32,60.93473889,613aa39321ee0e47931e4157,626b377229c10585ec392f8a,626b3a5c4d2cebb7e363ff65,,,,,,,,,,,,,,,,,,,,,space,5.6982,a,1,"[""0.197"",""0.458"",""0.848"",""0.506""]","[1,1,1,0]",0,0,0,0,1,0,0,,,1,FALSE,5.1101,,,,,,,,,,,,,,,,,,,,,,,,,,,,,,
,613aa39321ee0e47931e4157,001,2022-04-28_20h08.11.054,classification_task,2021.2.3,Win32,60.93473889,613aa39321ee0e47931e4157,626b377229c10585ec392f8a,626b3a5c4d2cebb7e363ff65,,,,,,,,,,,,,,,,,,,,,,,a,1,"[""0.197"",""0.458"",""0.417"",""0.969""]","[1,1,0,1]",0,1,1,1,1,0,0,,,1,FALSE,0.9337,,,,,,,,,,,,,,,,,,,,,,,,,,,,,,
,613aa39321ee0e47931e4157,001,2022-04-28_20h08.11.054,classification_task,2021.2.3,Win32,60.93473889,613aa39321ee0e47931e4157,626b377229c10585ec392f8a,626b3a5c4d2cebb7e363ff65,,,,,,,,,,,,,,,,,,,,,,,l,0,"[""0.415"",""0.458"",""0.848"",""0.969""]","[0,1,1,1]",0,2,2,2,1,0,0,,,1,FALSE,1.0348,,,,,,,,,,,,,,,,,,,,,,,,,,,,,,
,613aa39321ee0e47931e4157,001,2022-04-28_20h08.11.054,classification_task,2021.2.3,Win32,60.93473889,613aa39321ee0e47931e4157,626b377229c10585ec392f8a,626b3a5c4d2cebb7e363ff65,,,,,,,,,,,,,,,,,,,,,,,a,0,"[""0.385"",""0.321"",""0.654"",""0.707""]","[0,1,1,1]",0,3,3,3,1,1,1,,,1,FALSE,0.355,,,,,,,,,,,,,,,,,,,,,,,,,,,,,,
,613aa39321ee0e47931e4157,001,2022-04-28_20h08.11.054,classification_task,2021.2.3,Win32,60.93473889,613aa39321ee0e47931e4157,626b377229c10585ec392f8a,626b3a5c4d2cebb7e363ff65,,,,,,,,,,,,,,,,,,,,,,,a,0,"[""0.037"",""0.321"",""0.654"",""0.385""]","[1,1,1,0]",0,4,4,4,1,1,1,,,1,FALSE,0.9076,,,,,,,,,,,,,,,,,,,,,,,,,,,,,,
,613aa39321ee0e47931e4157,001,2022-04-28_20h08.11.054,classification_task,2021.2.3,Win32,60.93473889,613aa39321ee0e47931e4157,626b377229c10585ec392f8a,626b3a5c4d2cebb7e363ff65,,,,,,,,,,,,,,,,,,,,,,,l,1,"[""0.037"",""0.321"",""0.508"",""0.707""]","[1,1,0,1]",0,5,5,5,1,1,1,,,1,FALSE,0.3841,,,,,,,,,,,,,,,,,,,,,,,,,,,,,,
,613aa39321ee0e47931e4157,001,2022-04-28_20h08.11.054,classification_task,2021.2.3,Win32,60.93473889,613aa39321ee0e47931e4157,626b377229c10585ec392f8a,626b3a5c4d2cebb7e363ff65,,,,,,,,,,,,,,,,,,,,,,,a,1,"[""0.159"",""0.555"",""0.506"",""0.931""]","[1,1,0,1]",0,6,6,6,1,0,1,,,1,FALSE,0.3343,,,,,,,,,,,,,,,,,,,,,,,,,,,,,,
,613aa39321ee0e47931e4157,001,2022-04-28_20h08.11.054,classification_task,2021.2.3,Win32,60.93473889,613aa39321ee0e47931e4157,626b377229c10585ec392f8a,626b3a5c4d2cebb7e363ff65,,,,,,,,,,,,,,,,,,,,,,,a,1,"[""0.159"",""0.555"",""0.760"",""0.120""]","[1,1,1,0]",0,7,7,7,1,0,1,,,1,FALSE,1.0121,,,,,,,,,,,,,,,,,,,,,,,,,,,,,,
,613aa39321ee0e47931e4157,001,2022-04-28_20h08.11.054,classification_task,2021.2.3,Win32,60.93473889,613aa39321ee0e47931e4157,626b377229c10585ec392f8a,626b3a5c4d2cebb7e363ff65,,,,,,,,,,,,,,,,,,,,,,,l,1,"[""0.365"",""0.248"",""0.591"",""0.805""]","[0,1,1,1]",0,8,8,8,1,1,0,,,1,FALSE,0.332,,,,,,,,,,,,,,,,,,,,,,,,,,,,,,
,613aa39321ee0e47931e4157,001,2022-04-28_20h08.11.054,classification_task,2021.2.3,Win32,60.93473889,613aa39321ee0e47931e4157,626b377229c10585ec392f8a,626b3a5c4d2cebb7e363ff65,,,,,,,,,,,,,,,,,,,,,,,l,1,"[""0.082"",""0.248"",""0.591"",""0.417""]","[1,1,1,0]",0,9,9,9,1,1,0,,,1,FALSE,1.1525,,,,,,,,,,,,,,,,,,,,,,,,,,,,,,
,613aa39321ee0e47931e4157,001,2022-04-28_20h08.11.054,classification_task,2021.2.3,Win32,60.93473889,613aa39321ee0e47931e4157,626b377229c10585ec392f8a,626b3a5c4d2cebb7e363ff65,,,,,,,,,,,,,,,,,,,,,,,a,0,"[""0.037"",""0.896"",""0.654"",""0.707""]","[1,0,1,1]",0,10,10,10,1,1,1,,,1,FALSE,0.2545,,,,,,,,,,,,,,,,,,,,,,,,,,,,,,
,613aa39321ee0e47931e4157,001,2022-04-28_20h08.11.054,classification_task,2021.2.3,Win32,60.93473889,613aa39321ee0e47931e4157,626b377229c10585ec392f8a,626b3a5c4d2cebb7e363ff65,,,,,,,,,,,,,,,,,,,,,,,l,0,"[""0.159"",""0.389"",""0.760"",""0.931""]","[1,0,1,1]",0,11,11,11,1,0,1,,,1,FALSE,0.5775,,,,,,,,,,,,,,,,,,,,,,,,,,,,,,
,613aa39321ee0e47931e4157,001,2022-04-28_20h08.11.054,classification_task,2021.2.3,Win32,60.93473889,613aa39321ee0e47931e4157,626b377229c10585ec392f8a,626b3a5c4d2cebb7e363ff65,,,,,,,,,,,,,,,,,,,,,,,a,1,"[""0.197"",""0.365"",""0.848"",""0.969""]","[1,0,1,1]",0,12,12,12,1,0,0,,,1,FALSE,0.332,,,,,,,,,,,,,,,,,,,,,,,,,,,,,,
,613aa39321ee0e47931e4157,001,2022-04-28_20h08.11.054,classification_task,2021.2.3,Win32,60.93473889,613aa39321ee0e47931e4157,626b377229c10585ec392f8a,626b3a5c4d2cebb7e363ff65,,,,,,,,,,,,,,,,,,,,,,,l,0,"[""0.386"",""0.555"",""0.760"",""0.931""]","[0,1,1,1]",0,13,13,13,1,0,1,,,1,FALSE,0.2656,,,,,,,,,,,,,,,,,,,,,,,,,,,,,,
,613aa39321ee0e47931e4157,001,2022-04-28_20h08.11.054,classification_task,2021.2.3,Win32,60.93473889,613aa39321ee0e47931e4157,626b377229c10585ec392f8a,626b3a5c4d2cebb7e363ff65,,,,,,,,,,,,,,,,,,,,,,,l,1,"[""0.082"",""0.248"",""0.417"",""0.805""]","[1,1,0,1]",0,14,14,14,1,1,0,,,1,FALSE,0.2989,,,,,,,,,,,,,,,,,,,,,,,,,,,,,,
,613aa39321ee0e47931e4157,001,2022-04-28_20h08.11.054,classification_task,2021.2.3,Win32,60.93473889,613aa39321ee0e47931e4157,626b377229c10585ec392f8a,626b3a5c4d2cebb7e363ff65,,,,,,,,,,,,,,,,,,,,,,,a,0,"[""0.082"",""0.385"",""0.591"",""0.805""]","[1,0,1,1]",0,15,15,15,1,1,0,,,1,FALSE,0.7344,,,,,,,,,,,,,,,,,,,,,,,,,,,,,,
,613aa39321ee0e47931e4157,001,2022-04-28_20h08.11.054,classification_task,2021.2.3,Win32,60.93473889,613aa39321ee0e47931e4157,626b377229c10585ec392f8a,626b3a5c4d2cebb7e363ff65,,,,,,,,,,,,,,,,,,,,,,,a,0,"[""0.389"",""0.321"",""0.654"",""0.707""]","[0,1,1,1]",0,16,16,16,1,1,1,,,1,FALSE,1.02,,,,,,,,,,,,,,,,,,,,,,,,,,,,,,
,613aa39321ee0e47931e4157,001,2022-04-28_20h08.11.054,classification_task,2021.2.3,Win32,60.93473889,613aa39321ee0e47931e4157,626b377229c10585ec392f8a,626b3a5c4d2cebb7e363ff65,,,,,,,,,,,,,,,,,,,,,,,a,1,"[""0.418"",""0.458"",""0.848"",""0.969""]","[0,1,1,1]",0,17,17,17,1,0,0,,,1,FALSE,1.2011,,,,,,,,,,,,,,,,,,,,,,,,,,,,,,
,613aa39321ee0e47931e4157,001,2022-04-28_20h08.11.054,classification_task,2021.2.3,Win32,60.93473889,613aa39321ee0e47931e4157,626b377229c10585ec392f8a,626b3a5c4d2cebb7e363ff65,,,,,,,,,,,,,,,,,,,,,,,a,0,"[""0.082"",""0.248"",""0.389"",""0.805""]","[1,1,0,1]",0,18,18,18,1,1,0,,,1,FALSE,0.5359,,,,,,,,,,,,,,,,,,,,,,,,,,,,,,
,613aa39321ee0e47931e4157,001,2022-04-28_20h08.11.054,classification_task,2021.2.3,Win32,60.93473889,613aa39321ee0e47931e4157,626b377229c10585ec392f8a,626b3a5c4d2cebb7e363ff65,,,,,,,,,,,,,,,,,,,,,,,l,1,"[""0.082"",""0.248"",""0.591"",""0.366""]","[1,1,1,0]",0,19,19,19,1,1,0,,,1,FALSE,0.5515,,,,,,,,,,,,,,,,,,,,,,,,,,,,,,
,613aa39321ee0e47931e4157,001,2022-04-28_20h08.11.054,classification_task,2021.2.3,Win32,60.93473889,613aa39321ee0e47931e4157,626b377229c10585ec392f8a,626b3a5c4d2cebb7e363ff65,,,,,,,,,,,,,,,,,,,,,,,l,0,"[""0.197"",""0.458"",""0.123"",""0.969""]","[1,1,0,1]",0,20,20,20,1,0,0,,,1,FALSE,0.7846,,,,,,,,,,,,,,,,,,,,,,,,,,,,,,
,613aa39321ee0e47931e4157,001,2022-04-28_20h08.11.054,classification_task,2021.2.3,Win32,60.93473889,613aa39321ee0e47931e4157,626b377229c10585ec392f8a,626b3a5c4d2cebb7e363ff65,,,,,,,,,,,,,,,,,,,,,,,a,1,"[""0.159"",""0.555"",""0.760"",""0.386""]","[1,1,1,0]",0,21,21,21,1,0,1,,,1,FALSE,0.4326,,,,,,,,,,,,,,,,,,,,,,,,,,,,,,
,613aa39321ee0e47931e4157,001,2022-04-28_20h08.11.054,classification_task,2021.2.3,Win32,60.93473889,613aa39321ee0e47931e4157,626b377229c10585ec392f8a,626b3a5c4d2cebb7e363ff65,,,,,,,,,,,,,,,,,,,,,,,l,0,"[""0.159"",""0.423"",""0.760"",""0.931""]","[1,0,1,1]",0,22,22,22,1,0,1,,,1,FALSE,0.6517,,,,,,,,,,,,,,,,,,,,,,,,,,,,,,
,613aa39321ee0e47931e4157,001,2022-04-28_20h08.11.054,classification_task,2021.2.3,Win32,60.93473889,613aa39321ee0e47931e4157,626b377229c10585ec392f8a,626b3a5c4d2cebb7e363ff65,,,,,,,,,,,,,,,,,,,,,,,l,1,"[""0.082"",""0.120"",""0.591"",""0.805""]","[1,0,1,1]",0,23,23,23,1,1,0,,,1,FALSE,0.6832,,,,,,,,,,,,,,,,,,,,,,,,,,,,,,
,613aa39321ee0e47931e4157,001,2022-04-28_20h08.11.054,classification_task,2021.2.3,Win32,60.93473889,613aa39321ee0e47931e4157,626b377229c10585ec392f8a,626b3a5c4d2cebb7e363ff65,,,,,,,,,,,,,,,,,,,,,,,a,0,"[""0.037"",""0.321"",""0.386"",""0.707""]","[1,1,0,1]",0,24,24,24,1,1,1,,,1,FALSE,0.4025,,,,,,,,,,,,,,,,,,,,,,,,,,,,,,
,613aa39321ee0e47931e4157,001,2022-04-28_20h08.11.054,classification_task,2021.2.3,Win32,60.93473889,613aa39321ee0e47931e4157,626b377229c10585ec392f8a,626b3a5c4d2cebb7e363ff65,,,,,,,,,,,,,,,,,,,,,,,a,0,"[""0.037"",""0.359"",""0.654"",""0.707""]","[1,0,1,1]",0,25,25,25,1,1,1,,,1,FALSE,0.5673,,,,,,,,,,,,,,,,,,,,,,,,,,,,,,
,613aa39321ee0e47931e4157,001,2022-04-28_20h08.11.054,classification_task,2021.2.3,Win32,60.93473889,613aa39321ee0e47931e4157,626b377229c10585ec392f8a,626b3a5c4d2cebb7e363ff65,,,,,,,,,,,,,,,,,,,,,,,a,1,"[""0.197"",""0.379"",""0.848"",""0.969""]","[1,0,1,1]",0,26,26,26,1,0,0,,,1,FALSE,1.2334,,,,,,,,,,,,,,,,,,,,,,,,,,,,,,
,613aa39321ee0e47931e4157,001,2022-04-28_20h08.11.054,classification_task,2021.2.3,Win32,60.93473889,613aa39321ee0e47931e4157,626b377229c10585ec392f8a,626b3a5c4d2cebb7e363ff65,,,,,,,,,,,,,,,,,,,,,,,l,0,"[""0.197"",""0.458"",""0.848"",""0.379""]","[1,1,1,0]",0,27,27,27,1,0,0,,,1,FALSE,0.5837,,,,,,,,,,,,,,,,,,,,,,,,,,,,,,
,613aa39321ee0e47931e4157,001,2022-04-28_20h08.11.054,classification_task,2021.2.3,Win32,60.93473889,613aa39321ee0e47931e4157,626b377229c10585ec392f8a,626b3a5c4d2cebb7e363ff65,,,,,,,,,,,,,,,,,,,,,,,a,1,"[""0.418"",""0.555"",""0.760"",""0.931""]","[0,1,1,1]",0,28,28,28,1,0,1,,,1,FALSE,0.6811,,,,,,,,,,,,,,,,,,,,,,,,,,,,,,
,613aa39321ee0e47931e4157,001,2022-04-28_20h08.11.054,classification_task,2021.2.3,Win32,60.93473889,613aa39321ee0e47931e4157,626b377229c10585ec392f8a,626b3a5c4d2cebb7e363ff65,,,,,,,,,,,,,,,,,,,,,,,l,1,"[""0.037"",""0.321"",""0.654"",""0.123""]","[1,1,1,0]",0,29,29,29,1,1,1,,,1,FALSE,0.7483,,,,,,,,,,,,,,,,,,,,,,,,,,,,,,
,613aa39321ee0e47931e4157,001,2022-04-28_20h08.11.054,classification_task,2021.2.3,Win32,60.93473889,613aa39321ee0e47931e4157,626b377229c10585ec392f8a,626b3a5c4d2cebb7e363ff65,,,,,,,,,,,,,,,,,,,,,,,a,0,"[""0.418"",""0.248"",""0.591"",""0.805""]","[0,1,1,1]",0,30,30,30,1,1,0,,,1,FALSE,2.0141,,,,,,,,,,,,,,,,,,,,,,,,,,,,,,
,613aa39321ee0e47931e4157,001,2022-04-28_20h08.11.054,classification_task,2021.2.3,Win32,60.93473889,613aa39321ee0e47931e4157,626b377229c10585ec392f8a,626b3a5c4d2cebb7e363ff65,,,,,,,,,,,,,,,,,,,,,,,l,0,"[""0.159"",""0.555"",""0.506"",""0.931""]","[1,1,0,1]",0,31,31,31,1,0,1,,,1,FALSE,0.9989,,,,,,,,,,,,,,,,,,,,,,,,,,,,,,
,613aa39321ee0e47931e4157,001,2022-04-28_20h08.11.054,classification_task,2021.2.3,Win32,60.93473889,613aa39321ee0e47931e4157,626b377229c10585ec392f8a,626b3a5c4d2cebb7e363ff65,,,,,,,,,,,,,,,,,,,,,,,a,1,"[""0.159"",""0.555"",""0.418"",""0.931""]","[1,1,0,1]",0,32,32,32,1,0,1,,,1,FALSE,0.3713,,,,,,,,,,,,,,,,,,,,,,,,,,,,,,
,613aa39321ee0e47931e4157,001,2022-04-28_20h08.11.054,classification_task,2021.2.3,Win32,60.93473889,613aa39321ee0e47931e4157,626b377229c10585ec392f8a,626b3a5c4d2cebb7e363ff65,,,,,,,,,,,,,,,,,,,,,,,l,1,"[""0.037"",""0.321"",""0.654"",""0.379""]","[1,1,1,0]",0,33,33,33,1,1,1,,,1,FALSE,0.5509,,,,,,,,,,,,,,,,,,,,,,,,,,,,,,
,613aa39321ee0e47931e4157,001,2022-04-28_20h08.11.054,classification_task,2021.2.3,Win32,60.93473889,613aa39321ee0e47931e4157,626b377229c10585ec392f8a,626b3a5c4d2cebb7e363ff65,,,,,,,,,,,,,,,,,,,,,,,l,0,"[""0.415"",""0.555"",""0.760"",""0.931""]","[0,1,1,1]",0,34,34,34,1,0,1,,,1,FALSE,0.5333,,,,,,,,,,,,,,,,,,,,,,,,,,,,,,
,613aa39321ee0e47931e4157,001,2022-04-28_20h08.11.054,classification_task,2021.2.3,Win32,60.93473889,613aa39321ee0e47931e4157,626b377229c10585ec392f8a,626b3a5c4d2cebb7e363ff65,,,,,,,,,,,,,,,,,,,,,,,a,0,"[""0.508"",""0.321"",""0.654"",""0.707""]","[0,1,1,1]",0,35,35,35,1,1,1,,,1,FALSE,0.4701,,,,,,,,,,,,,,,,,,,,,,,,,,,,,,
,613aa39321ee0e47931e4157,001,2022-04-28_20h08.11.054,classification_task,2021.2.3,Win32,60.93473889,613aa39321ee0e47931e4157,626b377229c10585ec392f8a,626b3a5c4d2cebb7e363ff65,,,,,,,,,,,,,,,,,,,,,,,a,1,"[""0.197"",""0.458"",""0.848"",""0.418""]","[1,1,1,0]",0,36,36,36,1,0,0,,,1,FALSE,0.385,,,,,,,,,,,,,,,,,,,,,,,,,,,,,,
,613aa39321ee0e47931e4157,001,2022-04-28_20h08.11.054,classification_task,2021.2.3,Win32,60.93473889,613aa39321ee0e47931e4157,626b377229c10585ec392f8a,626b3a5c4d2cebb7e363ff65,,,,,,,,,,,,,,,,,,,,,,,l,0,"[""0.197"",""0.379"",""0.848"",""0.969""]","[1,0,1,1]",0,37,37,37,1,0,0,,,1,FALSE,0.2856,,,,,,,,,,,,,,,,,,,,,,,,,,,,,,
,613aa39321ee0e47931e4157,001,2022-04-28_20h08.11.054,classification_task,2021.2.3,Win32,60.93473889,613aa39321ee0e47931e4157,626b377229c10585ec392f8a,626b3a5c4d2cebb7e363ff65,,,,,,,,,,,,,,,,,,,,,,,l,0,"[""0.159"",""0.508"",""0.760"",""0.931""]","[1,0,1,1]",0,38,38,38,1,0,1,,,1,FALSE,0.2502,,,,,,,,,,,,,,,,,,,,,,,,,,,,,,
,613aa39321ee0e47931e4157,001,2022-04-28_20h08.11.054,classification_task,2021.2.3,Win32,60.93473889,613aa39321ee0e47931e4157,626b377229c10585ec392f8a,626b3a5c4d2cebb7e363ff65,,,,,,,,,,,,,,,,,,,,,,,a,1,"[""0.159"",""0.555"",""0.760"",""0.123""]","[1,1,1,0]",0,39,39,39,1,0,1,,,1,FALSE,0.2452,,,,,,,,,,,,,,,,,,,,,,,,,,,,,,
,613aa39321ee0e47931e4157,001,2022-04-28_20h08.11.054,classification_task,2021.2.3,Win32,60.93473889,613aa39321ee0e47931e4157,626b377229c10585ec392f8a,626b3a5c4d2cebb7e363ff65,,,,,,,,,,,,,,,,,,,,,,,l,1,"[""0.082"",""0.248"",""0.365"",""0.805""]","[1,1,0,1]",0,40,40,40,1,1,0,,,1,FALSE,0.2669,,,,,,,,,,,,,,,,,,,,,,,,,,,,,,
,613aa39321ee0e47931e4157,001,2022-04-28_20h08.11.054,classification_task,2021.2.3,Win32,60.93473889,613aa39321ee0e47931e4157,626b377229c10585ec392f8a,626b3a5c4d2cebb7e363ff65,,,,,,,,,,,,,,,,,,,,,,,a,0,"[""0.082"",""0.366"",""0.591"",""0.805""]","[1,0,1,1]",0,41,41,41,1,1,0,,,1,FALSE,0.1922,,,,,,,,,,,,,,,,,,,,,,,,,,,,,,
,613aa39321ee0e47931e4157,001,2022-04-28_20h08.11.054,classification_task,2021.2.3,Win32,60.93473889,613aa39321ee0e47931e4157,626b377229c10585ec392f8a,626b3a5c4d2cebb7e363ff65,,,,,,,,,,,,,,,,,,,,,,,,0,"[""0.197"",""0.458"",""0.365"",""0.969""]","[1,1,0,1]",0,42,42,42,1,0,0,,,1,FALSE,,,,,,,,,,,,,,,,,,,,,,,,,,,,,,,
,613aa39321ee0e47931e4157,001,2022-04-28_20h08.11.054,classification_task,2021.2.3,Win32,60.93473889,613aa39321ee0e47931e4157,626b377229c10585ec392f8a,626b3a5c4d2cebb7e363ff65,,,,,,,,,,,,,,,,,,,,,,,a,0,"[""0.365"",""0.248"",""0.591"",""0.805""]","[0,1,1,1]",0,43,43,43,1,1,0,,,1,FALSE,0.8543,,,,,,,,,,,,,,,,,,,,,,,,,,,,,,
,613aa39321ee0e47931e4157,001,2022-04-28_20h08.11.054,classification_task,2021.2.3,Win32,60.93473889,613aa39321ee0e47931e4157,626b377229c10585ec392f8a,626b3a5c4d2cebb7e363ff65,,,,,,,,,,,,,,,,,,,,,,,l,0,"[""0.415"",""0.458"",""0.848"",""0.969""]","[0,1,1,1]",0,44,44,44,1,0,0,,,1,FALSE,0.9525,,,,,,,,,,,,,,,,,,,,,,,,,,,,,,
,613aa39321ee0e47931e4157,001,2022-04-28_20h08.11.054,classification_task,2021.2.3,Win32,60.93473889,613aa39321ee0e47931e4157,626b377229c10585ec392f8a,626b3a5c4d2cebb7e363ff65,,,,,,,,,,,,,,,,,,,,,,,a,0,"[""0.082"",""0.248"",""0.591"",""0.415""]","[1,1,1,0]",0,45,45,45,1,1,0,,,1,FALSE,0.8468,,,,,,,,,,,,,,,,,,,,,,,,,,,,,,
,613aa39321ee0e47931e4157,001,2022-04-28_20h08.11.054,classification_task,2021.2.3,Win32,60.93473889,613aa39321ee0e47931e4157,626b377229c10585ec392f8a,626b3a5c4d2cebb7e363ff65,,,,,,,,,,,,,,,,,,,,,,,l,1,"[""0.037"",""0.120"",""0.654"",""0.707""]","[1,0,1,1]",0,46,46,46,1,1,1,,,1,FALSE,0.2835,,,,,,,,,,,,,,,,,,,,,,,,,,,,,,
,613aa39321ee0e47931e4157,001,2022-04-28_20h08.11.054,classification_task,2021.2.3,Win32,60.93473889,613aa39321ee0e47931e4157,626b377229c10585ec392f8a,626b3a5c4d2cebb7e363ff65,,,,,,,,,,,,,,,,,,,,,,,a,0,"[""0.037"",""0.321"",""0.120"",""0.707""]","[1,1,0,1]",0,47,47,47,1,1,1,,,1,FALSE,0.3836,,,,,,,,,,,,,,,,,,,,,,,,,,,,,,
,613aa39321ee0e47931e4157,001,2022-04-28_20h08.11.054,classification_task,2021.2.3,Win32,60.93473889,613aa39321ee0e47931e4157,626b377229c10585ec392f8a,626b3a5c4d2cebb7e363ff65,,,,,,,,,,,,,,,,,,,,,,,l,0,"[""0.159"",""0.417"",""0.760"",""0.931""]","[1,0,1,1]",0,48,48,48,1,0,1,,,1,FALSE,0.9183,,,,,,,,,,,,,,,,,,,,,,,,,,,,,,
,613aa39321ee0e47931e4157,001,2022-04-28_20h08.11.054,classification_task,2021.2.3,Win32,60.93473889,613aa39321ee0e47931e4157,626b377229c10585ec392f8a,626b3a5c4d2cebb7e363ff65,,,,,,,,,,,,,,,,,,,,,,,l,1,"[""0.082"",""0.248"",""0.386"",""0.805""]","[1,1,0,1]",0,49,49,49,1,1,0,,,1,FALSE,1.949,,,,,,,,,,,,,,,,,,,,,,,,,,,,,,
,613aa39321ee0e47931e4157,001,2022-04-28_20h08.11.054,classification_task,2021.2.3,Win32,60.93473889,613aa39321ee0e47931e4157,626b377229c10585ec392f8a,626b3a5c4d2cebb7e363ff65,,,,,,,,,,,,,,,,,,,,,,,a,0,"[""0.037"",""0.417"",""0.654"",""0.707""]","[1,0,1,1]",0,50,50,50,1,1,1,,,1,FALSE,1.7514,,,,,,,,,,,,,,,,,,,,,,,,,,,,,,
,613aa39321ee0e47931e4157,001,2022-04-28_20h08.11.054,classification_task,2021.2.3,Win32,60.93473889,613aa39321ee0e47931e4157,626b377229c10585ec392f8a,626b3a5c4d2cebb7e363ff65,,,,,,,,,,,,,,,,,,,,,,,l,0,"[""0.159"",""0.555"",""0.760"",""0.389""]","[1,1,1,0]",0,51,51,51,1,0,1,,,1,FALSE,3.6679,,,,,,,,,,,,,,,,,,,,,,,,,,,,,,
,613aa39321ee0e47931e4157,001,2022-04-28_20h08.11.054,classification_task,2021.2.3,Win32,60.93473889,613aa39321ee0e47931e4157,626b377229c10585ec392f8a,626b3a5c4d2cebb7e363ff65,,,,,,,,,,,,,,,,,,,,,,,l,1,"[""0.037"",""0.321"",""0.654"",""0.123""]","[1,1,1,0]",0,52,52,52,1,1,1,,,1,FALSE,3.4187,,,,,,,,,,,,,,,,,,,,,,,,,,,,,,
,613aa39321ee0e47931e4157,001,2022-04-28_20h08.11.054,classification_task,2021.2.3,Win32,60.93473889,613aa39321ee0e47931e4157,626b377229c10585ec392f8a,626b3a5c4d2cebb7e363ff65,,,,,,,,,,,,,,,,,,,,,,,a,1,"[""0.506"",""0.458"",""0.848"",""0.969""]","[0,1,1,1]",0,53,53,53,1,0,0,,,1,FALSE,3.9802,,,,,,,,,,,,,,,,,,,,,,,,,,,,,,
,613aa39321ee0e47931e4157,001,2022-04-28_20h08.11.054,classification_task,2021.2.3,Win32,60.93473889,613aa39321ee0e47931e4157,626b377229c10585ec392f8a,626b3a5c4d2cebb7e363ff65,,,,,,,,,,,,,,,,,,,,,,,l,1,"[""0.423"",""0.321"",""0.654"",""0.707""]","[0,1,1,1]",0,54,54,54,1,1,1,,,1,FALSE,0.2842,,,,,,,,,,,,,,,,,,,,,,,,,,,,,,
,613aa39321ee0e47931e4157,001,2022-04-28_20h08.11.054,classification_task,2021.2.3,Win32,60.93473889,613aa39321ee0e47931e4157,626b377229c10585ec392f8a,626b3a5c4d2cebb7e363ff65,,,,,,,,,,,,,,,,,,,,,,,l,0,"[""0.197"",""0.458"",""0.848"",""0.423""]","[1,1,1,0]",0,55,55,55,1,0,0,,,1,FALSE,7.7513,,,,,,,,,,,,,,,,,,,,,,,,,,,,,,
,613aa39321ee0e47931e4157,001,2022-04-28_20h08.11.054,classification_task,2021.2.3,Win32,60.93473889,613aa39321ee0e47931e4157,626b377229c10585ec392f8a,626b3a5c4d2cebb7e363ff65,,,,,,,,,,,,,,,,,,,,,,,a,0,"[""0.037"",""0.321"",""0.365"",""0.707""]","[1,1,0,1]",0,56,56,56,1,1,1,,,1,FALSE,4.7637,,,,,,,,,,,,,,,,,,,,,,,,,,,,,,
,613aa39321ee0e47931e4157,001,2022-04-28_20h08.11.054,classification_task,2021.2.3,Win32,60.93473889,613aa39321ee0e47931e4157,626b377229c10585ec392f8a,626b3a5c4d2cebb7e363ff65,,,,,,,,,,,,,,,,,,,,,,,l,1,"[""0.423"",""0.248"",""0.591"",""0.805""]","[0,1,1,1]",0,57,57,57,1,1,0,,,1,FALSE,8.7613,,,,,,,,,,,,,,,,,,,,,,,,,,,,,,
,613aa39321ee0e47931e4157,001,2022-04-28_20h08.11.054,classification_task,2021.2.3,Win32,60.93473889,613aa39321ee0e47931e4157,626b377229c10585ec392f8a,626b3a5c4d2cebb7e363ff65,,,,,,,,,,,,,,,,,,,,,,,a,1,"[""0.120"",""0.555"",""0.760"",""0.931""]","[0,1,1,1]",0,58,58,58,1,0,1,,,1,FALSE,5.9109,,,,,,,,,,,,,,,,,,,,,,,,,,,,,,
,613aa39321ee0e47931e4157,001,2022-04-28_20h08.11.054,classification_task,2021.2.3,Win32,60.93473889,613aa39321ee0e47931e4157,626b377229c10585ec392f8a,626b3a5c4d2cebb7e363ff65,,,,,,,,,,,,,,,,,,,,,,,l,0,"[""0.197"",""0.458"",""0.389"",""0.969""]","[1,1,0,1]",0,59,59,59,1,0,0,,,1,FALSE,7.695,,,,,,,,,,,,,,,,,,,,,,,,,,,,,,
,613aa39321ee0e47931e4157,001,2022-04-28_20h08.11.054,classification_task,2021.2.3,Win32,60.93473889,613aa39321ee0e47931e4157,626b377229c10585ec392f8a,626b3a5c4d2cebb7e363ff65,,,,,,,,,,,,,,,,,,,,,,,a,0,"[""0.082"",""0.379"",""0.591"",""0.805""]","[1,0,1,1]",0,60,60,60,1,1,0,,,1,FALSE,2.5644,,,,,,,,,,,,,,,,,,,,,,,,,,,,,,
,613aa39321ee0e47931e4157,001,2022-04-28_20h08.11.054,classification_task,2021.2.3,Win32,60.93473889,613aa39321ee0e47931e4157,626b377229c10585ec392f8a,626b3a5c4d2cebb7e363ff65,,,,,,,,,,,,,,,,,,,,,,,l,0,"[""0.159"",""0.555"",""0.896"",""0.931""]","[1,1,0,1]",0,61,61,61,1,0,1,,,1,FALSE,0.3138,,,,,,,,,,,,,,,,,,,,,,,,,,,,,,
,613aa39321ee0e47931e4157,001,2022-04-28_20h08.11.054,classification_task,2021.2.3,Win32,60.93473889,613aa39321ee0e47931e4157,626b377229c10585ec392f8a,626b3a5c4d2cebb7e363ff65,,,,,,,,,,,,,,,,,,,,,,,a,0,"[""0.082"",""0.248"",""0.591"",""0.386""]","[1,1,1,0]",0,62,62,62,1,1,0,,,1,FALSE,0.3516,,,,,,,,,,,,,,,,,,,,,,,,,,,,,,
,613aa39321ee0e47931e4157,001,2022-04-28_20h08.11.054,classification_task,2021.2.3,Win32,60.93473889,613aa39321ee0e47931e4157,626b377229c10585ec392f8a,626b3a5c4d2cebb7e363ff65,,,,,,,,,,,,,,,,,,,,,,,l,0,"[""0.197"",""0.423"",""0.848"",""0.969""]","[1,0,1,1]",0,63,63,63,1,0,0,,,1,FALSE,0.355,,,,,,,,,,,,,,,,,,,,,,,,,,,,,,
,613aa39321ee0e47931e4157,001,2022-04-28_20h08.11.054,classification_task,2021.2.3,Win32,60.93473889,613aa39321ee0e47931e4157,626b377229c10585ec392f8a,626b3a5c4d2cebb7e363ff65,,,,,,,,,,,,,,,,,,,,,,,,,,,,,,,,,,,,,,,0, ,,0,1.203213796,183.0385,0,2,2,2,1,2,3,,,,,,,,,,,,,,,,,
,613aa39321ee0e47931e4157,001,2022-04-28_20h08.11.054,classification_task,2021.2.3,Win32,60.93473889,613aa39321ee0e47931e4157,626b377229c10585ec392f8a,626b3a5c4d2cebb7e363ff65,,,,,,,,,,,,,,,,,,,,,,,,,,,,,,,,,,,,,,,1,  ,,0,2.697432883,182.2202,0,2,2,2,1,2,3,,,,,,,,,,,,,,,,,
,613aa39321ee0e47931e4157,001,2022-04-28_20h08.11.054,classification_task,2021.2.3,Win32,60.93473889,613aa39321ee0e47931e4157,626b377229c10585ec392f8a,626b3a5c4d2cebb7e363ff65,,,,,,,,,,,,,,,,,,,,,,,,,,,,,,,,,,,,,,,2,  ,,0,0.811287478,181.5057,0,2,2,2,1,2,3,,,,,,,,,,,,,,,,,
,613aa39321ee0e47931e4157,001,2022-04-28_20h08.11.054,classification_task,2021.2.3,Win32,60.93473889,613aa39321ee0e47931e4157,626b377229c10585ec392f8a,626b3a5c4d2cebb7e363ff65,,,,,,,,,,,,,,,,,,,,,,,,,,,,,,,,,,,,,,,,,,,,,0,2,2,2,1,,3,,,,,,,,,,,,,,,,,
,613aa39321ee0e47931e4157,001,2022-04-28_20h08.11.054,classification_task,2021.2.3,Win32,60.93473889,613aa39321ee0e47931e4157,626b377229c10585ec392f8a,626b3a5c4d2cebb7e363ff65,,,,,,,,,,,,,,,,,,,,,,,,,,,,,,,,,,,,,,,,,,,,,,,,,,,,,I believe the aid is a competent performer,,0.7,0,4,814.5201,0,0,0,0,1,0,,,,
,613aa39321ee0e47931e4157,001,2022-04-28_20h08.11.054,classification_task,2021.2.3,Win32,60.93473889,613aa39321ee0e47931e4157,626b377229c10585ec392f8a,626b3a5c4d2cebb7e363ff65,,,,,,,,,,,,,,,,,,,,,,,,,,,,,,,,,,,,,,,,,,,,,,,,,,,,,I trust the aid,,0.7,0,4,815.8578,0,0,0,0,1,0,,,,
,613aa39321ee0e47931e4157,001,2022-04-28_20h08.11.054,classification_task,2021.2.3,Win32,60.93473889,613aa39321ee0e47931e4157,626b377229c10585ec392f8a,626b3a5c4d2cebb7e363ff65,,,,,,,,,,,,,,,,,,,,,,,,,,,,,,,,,,,,,,,,,,,,,,,,,,,,,I have confidence in the advice given by the aid,,0.7,0,4,817.1856,0,0,0,0,1,0,,,,
,613aa39321ee0e47931e4157,001,2022-04-28_20h08.11.054,classification_task,2021.2.3,Win32,60.93473889,613aa39321ee0e47931e4157,626b377229c10585ec392f8a,626b3a5c4d2cebb7e363ff65,,,,,,,,,,,,,,,,,,,,,,,,,,,,,,,,,,,,,,,,,,,,,,,,,,,,,I can depend on the aid,,0.7,0,2,819.3838,0,0,0,0,1,0,,,,
,613aa39321ee0e47931e4157,001,2022-04-28_20h08.11.054,classification_task,2021.2.3,Win32,60.93473889,613aa39321ee0e47931e4157,626b377229c10585ec392f8a,626b3a5c4d2cebb7e363ff65,,,,,,,,,,,,,,,,,,,,,,,,,,,,,,,,,,,,,,,,,,,,,,,,,,,,,I can rely on the aid to behave in consistent ways,,0.7,0,3,821.7612,0,0,0,0,1,0,,,,
,613aa39321ee0e47931e4157,001,2022-04-28_20h08.11.054,classification_task,2021.2.3,Win32,60.93473889,613aa39321ee0e47931e4157,626b377229c10585ec392f8a,626b3a5c4d2cebb7e363ff65,,,,,,,,,,,,,,,,,,,,,,,,,,,,,,,,,,,,,,,,,,,,,,,,,,,,,I can rely on the aid to do its best every time I take its advice,,0.7,0,3,823.0891,0,0,0,0,1,0,,,,
,613aa39321ee0e47931e4157,001,2022-04-28_20h08.11.054,classification_task,2021.2.3,Win32,60.93473889,613aa39321ee0e47931e4157,626b377229c10585ec392f8a,626b3a5c4d2cebb7e363ff65,,,,,,,,,,,,,,,,,,,,,,,,,,,,,,,,,,,,,,,,,,,,,,,,,,,,,"On trials you completed with assistance from the aid, how frequently did you think the aid was correct?",,0.7,0,60,,0,0,0,0,1,0,,,,
,613aa39321ee0e47931e4157,001,2022-04-28_20h08.11.054,classification_task,2021.2.3,Win32,60.93473889,613aa39321ee0e47931e4157,626b377229c10585ec392f8a,626b3a5c4d2cebb7e363ff65,,,,,,,,,,,,,,,,,,,,,,,,,,,,,,,,,,,,,,,,,,,,,,,,,,,,,"On trials you completed without the aid, how frequently did you think you were correct?",,0.7,0,70,,0,0,0,0,1,0,,,,
,613aa39321ee0e47931e4157,001,2022-04-28_20h08.11.054,classification_task,2021.2.3,Win32,60.93473889,613aa39321ee0e47931e4157,626b377229c10585ec392f8a,626b3a5c4d2cebb7e363ff65,,,,,,,,,,,,,,,,,,,,,,,,,,,,,,,,,,,,,,,,,,,,,,,,,,,,,,,,,,,0,0,0,0,1,,,,,
,613aa39321ee0e47931e4157,001,2022-04-28_20h08.11.054,classification_task,2021.2.3,Win32,60.93473889,613aa39321ee0e47931e4157,626b377229c10585ec392f8a,626b3a5c4d2cebb7e363ff65,,,,,,,,,,,,,,,,,,,,,,,,,,,,,,,,,,,,,,,,,,,,,,,,,,,,,,,,,,,,,,,,,loption,7.7912,846.0133,
,613aa39321ee0e47931e4157,001,2022-04-28_20h08.11.054,classification_task,2021.2.3,Win32,60.93473889,613aa39321ee0e47931e4157,626b377229c10585ec392f8a,626b3a5c4d2cebb7e363ff65,,,,,,,,,,,,,,,,,,,,,,,,,,,,,,,,,,,,,,,,,,,,,,,,,,,,,,,,,,,,,,,,,,,,"Mozilla/5.0 (Windows NT 10.0; Win64; x64) AppleWebKit/537.36 (KHTML, like Gecko) Chrome/100.0.4896.127 Safari/537.36"
