usingWebGL,participant,session,date,expName,psychopyVersion,OS,frameRate,study_id,signatures_friend,signatures_foe,band_ranges_top,band_ranges_bottom,formitemText,formtype,formundefined,formitemWidth,formindex,formresponse,formrt,key_resp_2.keys,key_resp_2.rt,tute_resp.keys,tute_resp.rt,tutorial.thisRepN,tutorial.thisTrialN,tutorial.thisN,tutorial.thisIndex,tutorial.ran,key_resp_4.keys,key_resp_4.rt,key_resp.keys,key_resp.corr,key_resp.rt,lines_presented,is_signal_presented,trials.thisRepN,trials.thisTrialN,trials.thisN,trials.thisIndex,trials.ran,vessel,active_band,lines,is_signal,supported_pos,catch_trial,debrief_formindex,debrief_formitemText,debrief_formtype,debrief_formitemWidth,debrief_formresponse,debrief_formrt,phases.thisRepN,phases.thisTrialN,phases.thisN,phases.thisIndex,phases.ran,phases.order,phase,key_resp_3.keys,trustitemText,trusttype,trustitemWidth,trustindex,trustresponse,trustrt,support_status.thisRepN,support_status.thisTrialN,support_status.thisN,support_status.thisIndex,support_status.ran,support_status.order,key_resp_5.keys,key_resp_5.rt,globalClockTime,userAgent,manualCondition
TRUE,613a6cad54616b2514089576,627c6f545f47bba070e96327,2022-05-11_21h24.32.775,classification_task,2021.2.3,Win32,60.29544769,627c6715c52fd12f31907bd0,,,,,,,,,,,,,,,,,,,,,,,,,,,,,,,,,,,,,,,,,,,,,,,,,,,,,,,,,,,,,,,,,,,,,
,613a6cad54616b2514089576,627c6f545f47bba070e96327,2022-05-11_21h24.32.775,classification_task,2021.2.3,Win32,60.29544769,627c6715c52fd12f31907bd0,"[[""0.275"",""0.549"",""0.928"",""0.968""],[""0.313"",""0.496"",""0.847"",""0.882""]]","[[""0.127"",""0.348"",""0.641"",""0.785""],[""0.075"",""0.392"",""0.455"",""0.724""]]","[1,10]","[100,1000]",Video game experience,,,0.7,0,,,,,,,,,,,,,,,,,,,,,,,,,,,,,,,,,,,,,,,,,,,,,,,,,,,,,,,,,,,,
,613a6cad54616b2514089576,627c6f545f47bba070e96327,2022-05-11_21h24.32.775,classification_task,2021.2.3,Win32,60.29544769,627c6715c52fd12f31907bd0,,,,,Approximately how many hours did you spend playing video games in the last week?,,,0.7,0,3,,,,,,,,,,,,,,,,,,,,,,,,,,,,,,,,,,,,,,,,,,,,,,,,,,,,,,,,,,,
,613a6cad54616b2514089576,627c6f545f47bba070e96327,2022-05-11_21h24.32.775,classification_task,2021.2.3,Win32,60.29544769,627c6715c52fd12f31907bd0,,,,,"Which game did you play the most this year? (Enter ""None"" if you didn't play any)",,,0.7,0,mario kart,,,,,,,,,,,,,,,,,,,,,,,,,,,,,,,,,,,,,,,,,,,,,,,,,,,,,,,,,,,
,613a6cad54616b2514089576,627c6f545f47bba070e96327,2022-05-11_21h24.32.775,classification_task,2021.2.3,Win32,60.29544769,627c6715c52fd12f31907bd0,,,,,Visual perception,,,0.7,0,,,,,,,,,,,,,,,,,,,,,,,,,,,,,,,,,,,,,,,,,,,,,,,,,,,,,,,,,,,,
,613a6cad54616b2514089576,627c6f545f47bba070e96327,2022-05-11_21h24.32.775,classification_task,2021.2.3,Win32,60.29544769,627c6715c52fd12f31907bd0,,,,,Do you have any form of color blindness?,,,0.7,0,No,31.4393,,,,,,,,,,,,,,,,,,,,,,,,,,,,,,,,,,,,,,,,,,,,,,,,,,,,,,,,,,
,613a6cad54616b2514089576,627c6f545f47bba070e96327,2022-05-11_21h24.32.775,classification_task,2021.2.3,Win32,60.29544769,627c6715c52fd12f31907bd0,,,,,Do you use software to change the colour temperature of your screen (e.g. f.lux)?,,,0.7,0,No,34.053,,,,,,,,,,,,,,,,,,,,,,,,,,,,,,,,,,,,,,,,,,,,,,,,,,,,,,,,,,
,613a6cad54616b2514089576,627c6f545f47bba070e96327,2022-05-11_21h24.32.775,classification_task,2021.2.3,Win32,60.29544769,627c6715c52fd12f31907bd0,,,,,,,,,,,,space,21.7249,space,7.9461,0,0,0,0,1,,,,,,,,,,,,,,,,,,,,,,,,,,,,,,,,,,,,,,,,,,,,,,,,,
,613a6cad54616b2514089576,627c6f545f47bba070e96327,2022-05-11_21h24.32.775,classification_task,2021.2.3,Win32,60.29544769,627c6715c52fd12f31907bd0,,,,,,,,,,,,,,space,10.9365,1,0,1,0,1,,,,,,,,,,,,,,,,,,,,,,,,,,,,,,,,,,,,,,,,,,,,,,,,,
,613a6cad54616b2514089576,627c6f545f47bba070e96327,2022-05-11_21h24.32.775,classification_task,2021.2.3,Win32,60.29544769,627c6715c52fd12f31907bd0,,,,,,,,,,,,,,space,23.4352,2,0,2,0,1,,,,,,,,,,,,,,,,,,,,,,,,,,,,,,,,,,,,,,,,,,,,,,,,,
,613a6cad54616b2514089576,627c6f545f47bba070e96327,2022-05-11_21h24.32.775,classification_task,2021.2.3,Win32,60.29544769,627c6715c52fd12f31907bd0,,,,,,,,,,,,,,space,6.2766,3,0,3,0,1,,,,,,,,,,,,,,,,,,,,,,,,,,,,,,,,,,,,,,,,,,,,,,,,,
,613a6cad54616b2514089576,627c6f545f47bba070e96327,2022-05-11_21h24.32.775,classification_task,2021.2.3,Win32,60.29544769,627c6715c52fd12f31907bd0,,,,,,,,,,,,,,space,14.8651,4,0,4,0,1,,,,,,,,,,,,,,,,,,,,,,,,,,,,,,,,,,,,,,,,,,,,,,,,,
,613a6cad54616b2514089576,627c6f545f47bba070e96327,2022-05-11_21h24.32.775,classification_task,2021.2.3,Win32,60.29544769,627c6715c52fd12f31907bd0,,,,,,,,,,,,,,,,,,,,,space,13.7285,l,1,6.6818,"[""0.127"",""0.348"",""0.641"",""0.686""]","[1,1,1,0]",0,0,0,0,1,1,0,,,0,FALSE,,,,,,,,,,,,,,,,,,,,,,,,,,,,,,,
,613a6cad54616b2514089576,627c6f545f47bba070e96327,2022-05-11_21h24.32.775,classification_task,2021.2.3,Win32,60.29544769,627c6715c52fd12f31907bd0,,,,,,,,,,,,,,,,,,,,,,,a,1,4.8059,"[""0.275"",""0.549"",""0.928"",""0.686""]","[1,1,1,0]",0,1,1,1,1,0,0,,,0,FALSE,,,,,,,,,,,,,,,,,,,,,,,,,,,,,,,
,613a6cad54616b2514089576,627c6f545f47bba070e96327,2022-05-11_21h24.32.775,classification_task,2021.2.3,Win32,60.29544769,627c6715c52fd12f31907bd0,,,,,,,,,,,,,,,,,,,,,,,a,1,8.5751,"[""0.686"",""0.496"",""0.847"",""0.882""]","[0,1,1,1]",0,2,2,2,1,0,1,,,0,FALSE,,,,,,,,,,,,,,,,,,,,,,,,,,,,,,,
,613a6cad54616b2514089576,627c6f545f47bba070e96327,2022-05-11_21h24.32.775,classification_task,2021.2.3,Win32,60.29544769,627c6715c52fd12f31907bd0,,,,,,,,,,,,,,,,,,,,,,,l,1,5.025,"[""0.127"",""0.188"",""0.641"",""0.785""]","[1,0,1,1]",0,3,3,3,1,1,0,,,0,FALSE,,,,,,,,,,,,,,,,,,,,,,,,,,,,,,,
,613a6cad54616b2514089576,627c6f545f47bba070e96327,2022-05-11_21h24.32.775,classification_task,2021.2.3,Win32,60.29544769,627c6715c52fd12f31907bd0,,,,,,,,,,,,,,,,,,,,,,,,0,,"[""0.184"",""0.392"",""0.455"",""0.724""]","[0,1,1,1]",0,4,4,4,1,1,1,,,0,FALSE,,,,,,,,,,,,,,,,,,,,,,,,,,,,,,,
,613a6cad54616b2514089576,627c6f545f47bba070e96327,2022-05-11_21h24.32.775,classification_task,2021.2.3,Win32,60.29544769,627c6715c52fd12f31907bd0,,,,,,,,,,,,,,,,,,,,,,,a,1,7.8129,"[""0.199"",""0.549"",""0.928"",""0.968""]","[0,1,1,1]",0,5,5,5,1,0,0,,,0,FALSE,,,,,,,,,,,,,,,,,,,,,,,,,,,,,,,
,613a6cad54616b2514089576,627c6f545f47bba070e96327,2022-05-11_21h24.32.775,classification_task,2021.2.3,Win32,60.29544769,627c6715c52fd12f31907bd0,,,,,,,,,,,,,,,,,,,,,,,a,1,6.2755,"[""0.313"",""0.184"",""0.847"",""0.882""]","[1,0,1,1]",0,6,6,6,1,0,1,,,0,FALSE,,,,,,,,,,,,,,,,,,,,,,,,,,,,,,,
,613a6cad54616b2514089576,627c6f545f47bba070e96327,2022-05-11_21h24.32.775,classification_task,2021.2.3,Win32,60.29544769,627c6715c52fd12f31907bd0,,,,,,,,,,,,,,,,,,,,,,,a,1,3.1829,"[""0.313"",""0.496"",""0.847"",""0.590""]","[1,1,1,0]",0,7,7,7,1,0,1,,,0,FALSE,,,,,,,,,,,,,,,,,,,,,,,,,,,,,,,
,613a6cad54616b2514089576,627c6f545f47bba070e96327,2022-05-11_21h24.32.775,classification_task,2021.2.3,Win32,60.29544769,627c6715c52fd12f31907bd0,,,,,,,,,,,,,,,,,,,,,,,l,0,5.4962,"[""0.275"",""0.549"",""0.232"",""0.968""]","[1,1,0,1]",0,8,8,8,1,0,0,,,0,FALSE,,,,,,,,,,,,,,,,,,,,,,,,,,,,,,,
,613a6cad54616b2514089576,627c6f545f47bba070e96327,2022-05-11_21h24.32.775,classification_task,2021.2.3,Win32,60.29544769,627c6715c52fd12f31907bd0,,,,,,,,,,,,,,,,,,,,,,,l,1,4.5135,"[""0.686"",""0.348"",""0.641"",""0.785""]","[0,1,1,1]",0,9,9,9,1,1,0,,,0,FALSE,,,,,,,,,,,,,,,,,,,,,,,,,,,,,,,
,613a6cad54616b2514089576,627c6f545f47bba070e96327,2022-05-11_21h24.32.775,classification_task,2021.2.3,Win32,60.29544769,627c6715c52fd12f31907bd0,,,,,,,,,,,,,,,,,,,,,,,l,1,4.8979,"[""0.075"",""0.392"",""0.184"",""0.724""]","[1,1,0,1]",0,10,10,10,1,1,1,,,0,FALSE,,,,,,,,,,,,,,,,,,,,,,,,,,,,,,,
,613a6cad54616b2514089576,627c6f545f47bba070e96327,2022-05-11_21h24.32.775,classification_task,2021.2.3,Win32,60.29544769,627c6715c52fd12f31907bd0,,,,,,,,,,,,,,,,,,,,,,,l,0,3.7297,"[""0.313"",""0.496"",""0.215"",""0.882""]","[1,1,0,1]",0,11,11,11,1,0,1,,,0,FALSE,,,,,,,,,,,,,,,,,,,,,,,,,,,,,,,
,613a6cad54616b2514089576,627c6f545f47bba070e96327,2022-05-11_21h24.32.775,classification_task,2021.2.3,Win32,60.29544769,627c6715c52fd12f31907bd0,,,,,,,,,,,,,,,,,,,,,,,l,1,6.4682,"[""0.075"",""0.199"",""0.455"",""0.724""]","[1,0,1,1]",0,12,12,12,1,1,1,,,0,FALSE,,,,,,,,,,,,,,,,,,,,,,,,,,,,,,,
,613a6cad54616b2514089576,627c6f545f47bba070e96327,2022-05-11_21h24.32.775,classification_task,2021.2.3,Win32,60.29544769,627c6715c52fd12f31907bd0,,,,,,,,,,,,,,,,,,,,,,,l,1,5.5132,"[""0.127"",""0.348"",""0.585"",""0.785""]","[1,1,0,1]",0,13,13,13,1,1,0,,,0,FALSE,,,,,,,,,,,,,,,,,,,,,,,,,,,,,,,
,613a6cad54616b2514089576,627c6f545f47bba070e96327,2022-05-11_21h24.32.775,classification_task,2021.2.3,Win32,60.29544769,627c6715c52fd12f31907bd0,,,,,,,,,,,,,,,,,,,,,,,a,1,6.7817,"[""0.275"",""0.688"",""0.928"",""0.968""]","[1,0,1,1]",0,14,14,14,1,0,0,,,0,FALSE,,,,,,,,,,,,,,,,,,,,,,,,,,,,,,,
,613a6cad54616b2514089576,627c6f545f47bba070e96327,2022-05-11_21h24.32.775,classification_task,2021.2.3,Win32,60.29544769,627c6715c52fd12f31907bd0,,,,,,,,,,,,,,,,,,,,,,,l,1,5.1261,"[""0.075"",""0.392"",""0.455"",""0.232""]","[1,1,1,0]",0,15,15,15,1,1,1,,,0,FALSE,,,,,,,,,,,,,,,,,,,,,,,,,,,,,,,
,613a6cad54616b2514089576,627c6f545f47bba070e96327,2022-05-11_21h24.32.775,classification_task,2021.2.3,Win32,60.29544769,627c6715c52fd12f31907bd0,,,,,,,,,,,,,,,,,,,,,,,a,1,6.6123,"[""0.313"",""0.496"",""0.188"",""0.882""]","[1,1,0,1]",0,16,16,16,1,0,1,,,0,FALSE,,,,,,,,,,,,,,,,,,,,,,,,,,,,,,,
,613a6cad54616b2514089576,627c6f545f47bba070e96327,2022-05-11_21h24.32.775,classification_task,2021.2.3,Win32,60.29544769,627c6715c52fd12f31907bd0,,,,,,,,,,,,,,,,,,,,,,,l,1,5.9047,"[""0.231"",""0.392"",""0.455"",""0.724""]","[0,1,1,1]",0,17,17,17,1,1,1,,,0,FALSE,,,,,,,,,,,,,,,,,,,,,,,,,,,,,,,
,613a6cad54616b2514089576,627c6f545f47bba070e96327,2022-05-11_21h24.32.775,classification_task,2021.2.3,Win32,60.29544769,627c6715c52fd12f31907bd0,,,,,,,,,,,,,,,,,,,,,,,a,1,7.263,"[""0.275"",""0.549"",""0.199"",""0.968""]","[1,1,0,1]",0,18,18,18,1,0,0,,,0,FALSE,,,,,,,,,,,,,,,,,,,,,,,,,,,,,,,
,613a6cad54616b2514089576,627c6f545f47bba070e96327,2022-05-11_21h24.32.775,classification_task,2021.2.3,Win32,60.29544769,627c6715c52fd12f31907bd0,,,,,,,,,,,,,,,,,,,,,,,l,1,5.0661,"[""0.127"",""0.188"",""0.641"",""0.785""]","[1,0,1,1]",0,19,19,19,1,1,0,,,0,FALSE,,,,,,,,,,,,,,,,,,,,,,,,,,,,,,,
,613a6cad54616b2514089576,627c6f545f47bba070e96327,2022-05-11_21h24.32.775,classification_task,2021.2.3,Win32,60.29544769,627c6715c52fd12f31907bd0,,,,,,,,,,,,,,,,,,,,,,,l,1,4.0312,"[""0.127"",""0.348"",""0.585"",""0.785""]","[1,1,0,1]",0,20,20,20,1,1,0,,,0,FALSE,,,,,,,,,,,,,,,,,,,,,,,,,,,,,,,
,613a6cad54616b2514089576,627c6f545f47bba070e96327,2022-05-11_21h24.32.775,classification_task,2021.2.3,Win32,60.29544769,627c6715c52fd12f31907bd0,,,,,,,,,,,,,,,,,,,,,,,a,1,5.5254,"[""0.686"",""0.496"",""0.847"",""0.882""]","[0,1,1,1]",0,21,21,21,1,0,1,,,0,FALSE,,,,,,,,,,,,,,,,,,,,,,,,,,,,,,,
,613a6cad54616b2514089576,627c6f545f47bba070e96327,2022-05-11_21h24.32.775,classification_task,2021.2.3,Win32,60.29544769,627c6715c52fd12f31907bd0,,,,,,,,,,,,,,,,,,,,,,,l,1,4.4501,"[""0.127"",""0.348"",""0.641"",""0.215""]","[1,1,1,0]",0,22,22,22,1,1,0,,,0,FALSE,,,,,,,,,,,,,,,,,,,,,,,,,,,,,,,
,613a6cad54616b2514089576,627c6f545f47bba070e96327,2022-05-11_21h24.32.775,classification_task,2021.2.3,Win32,60.29544769,627c6715c52fd12f31907bd0,,,,,,,,,,,,,,,,,,,,,,,l,0,5.1612,"[""0.313"",""0.199"",""0.847"",""0.882""]","[1,0,1,1]",0,23,23,23,1,0,1,,,0,FALSE,,,,,,,,,,,,,,,,,,,,,,,,,,,,,,,
,613a6cad54616b2514089576,627c6f545f47bba070e96327,2022-05-11_21h24.32.775,classification_task,2021.2.3,Win32,60.29544769,627c6715c52fd12f31907bd0,,,,,,,,,,,,,,,,,,,,,,,a,1,3.1111,"[""0.232"",""0.549"",""0.928"",""0.968""]","[0,1,1,1]",0,24,24,24,1,0,0,,,0,FALSE,,,,,,,,,,,,,,,,,,,,,,,,,,,,,,,
,613a6cad54616b2514089576,627c6f545f47bba070e96327,2022-05-11_21h24.32.775,classification_task,2021.2.3,Win32,60.29544769,627c6715c52fd12f31907bd0,,,,,,,,,,,,,,,,,,,,,,,a,1,6.7608,"[""0.313"",""0.496"",""0.847"",""0.188""]","[1,1,1,0]",0,25,25,25,1,0,1,,,0,FALSE,,,,,,,,,,,,,,,,,,,,,,,,,,,,,,,
,613a6cad54616b2514089576,627c6f545f47bba070e96327,2022-05-11_21h24.32.775,classification_task,2021.2.3,Win32,60.29544769,627c6715c52fd12f31907bd0,,,,,,,,,,,,,,,,,,,,,,,l,1,5.5794,"[""0.075"",""0.392"",""0.686"",""0.724""]","[1,1,0,1]",0,26,26,26,1,1,1,,,0,FALSE,,,,,,,,,,,,,,,,,,,,,,,,,,,,,,,
,613a6cad54616b2514089576,627c6f545f47bba070e96327,2022-05-11_21h24.32.775,classification_task,2021.2.3,Win32,60.29544769,627c6715c52fd12f31907bd0,,,,,,,,,,,,,,,,,,,,,,,l,1,3.0494,"[""0.075"",""0.201"",""0.455"",""0.724""]","[1,0,1,1]",0,27,27,27,1,1,1,,,0,FALSE,,,,,,,,,,,,,,,,,,,,,,,,,,,,,,,
,613a6cad54616b2514089576,627c6f545f47bba070e96327,2022-05-11_21h24.32.775,classification_task,2021.2.3,Win32,60.29544769,627c6715c52fd12f31907bd0,,,,,,,,,,,,,,,,,,,,,,,a,1,2.9441,"[""0.275"",""0.215"",""0.928"",""0.968""]","[1,0,1,1]",0,28,28,28,1,0,0,,,0,FALSE,,,,,,,,,,,,,,,,,,,,,,,,,,,,,,,
,613a6cad54616b2514089576,627c6f545f47bba070e96327,2022-05-11_21h24.32.775,classification_task,2021.2.3,Win32,60.29544769,627c6715c52fd12f31907bd0,,,,,,,,,,,,,,,,,,,,,,,a,1,4.0641,"[""0.275"",""0.549"",""0.928"",""0.199""]","[1,1,1,0]",0,29,29,29,1,0,0,,,0,FALSE,,,,,,,,,,,,,,,,,,,,,,,,,,,,,,,
,613a6cad54616b2514089576,627c6f545f47bba070e96327,2022-05-11_21h24.32.775,classification_task,2021.2.3,Win32,60.29544769,627c6715c52fd12f31907bd0,,,,,,,,,,,,,,,,,,,,,,,l,1,7.177,"[""0.075"",""0.392"",""0.455"",""0.231""]","[1,1,1,0]",0,30,30,30,1,1,1,,,0,FALSE,,,,,,,,,,,,,,,,,,,,,,,,,,,,,,,
,613a6cad54616b2514089576,627c6f545f47bba070e96327,2022-05-11_21h24.32.775,classification_task,2021.2.3,Win32,60.29544769,627c6715c52fd12f31907bd0,,,,,,,,,,,,,,,,,,,,,,,l,1,4.8276,"[""0.231"",""0.348"",""0.641"",""0.785""]","[0,1,1,1]",0,31,31,31,1,1,0,,,0,FALSE,,,,,,,,,,,,,,,,,,,,,,,,,,,,,,,
,613a6cad54616b2514089576,627c6f545f47bba070e96327,2022-05-11_21h24.32.775,classification_task,2021.2.3,Win32,60.29544769,627c6715c52fd12f31907bd0,,,,,,,,,,,,,,,,,,,,,,,l,1,6.11,"[""0.075"",""0.392"",""0.455"",""0.231""]","[1,1,1,0]",0,32,32,32,1,1,1,,,0,FALSE,,,,,,,,,,,,,,,,,,,,,,,,,,,,,,,
,613a6cad54616b2514089576,627c6f545f47bba070e96327,2022-05-11_21h24.32.775,classification_task,2021.2.3,Win32,60.29544769,627c6715c52fd12f31907bd0,,,,,,,,,,,,,,,,,,,,,,,l,0,2.281,"[""0.199"",""0.549"",""0.928"",""0.968""]","[0,1,1,1]",0,33,33,33,1,0,0,,,0,FALSE,,,,,,,,,,,,,,,,,,,,,,,,,,,,,,,
,613a6cad54616b2514089576,627c6f545f47bba070e96327,2022-05-11_21h24.32.775,classification_task,2021.2.3,Win32,60.29544769,627c6715c52fd12f31907bd0,,,,,,,,,,,,,,,,,,,,,,,l,0,0.6664,"[""0.201"",""0.496"",""0.847"",""0.882""]","[0,1,1,1]",0,34,34,34,1,0,1,,,0,FALSE,,,,,,,,,,,,,,,,,,,,,,,,,,,,,,,
,613a6cad54616b2514089576,627c6f545f47bba070e96327,2022-05-11_21h24.32.775,classification_task,2021.2.3,Win32,60.29544769,627c6715c52fd12f31907bd0,,,,,,,,,,,,,,,,,,,,,,,a,1,2.6517,"[""0.313"",""0.496"",""0.199"",""0.882""]","[1,1,0,1]",0,35,35,35,1,0,1,,,0,FALSE,,,,,,,,,,,,,,,,,,,,,,,,,,,,,,,
,613a6cad54616b2514089576,627c6f545f47bba070e96327,2022-05-11_21h24.32.775,classification_task,2021.2.3,Win32,60.29544769,627c6715c52fd12f31907bd0,,,,,,,,,,,,,,,,,,,,,,,a,1,5.0684,"[""0.313"",""0.496"",""0.847"",""0.585""]","[1,1,1,0]",0,36,36,36,1,0,1,,,0,FALSE,,,,,,,,,,,,,,,,,,,,,,,,,,,,,,,
,613a6cad54616b2514089576,627c6f545f47bba070e96327,2022-05-11_21h24.32.775,classification_task,2021.2.3,Win32,60.29544769,627c6715c52fd12f31907bd0,,,,,,,,,,,,,,,,,,,,,,,l,0,4.1821,"[""0.275"",""0.549"",""0.686"",""0.968""]","[1,1,0,1]",0,37,37,37,1,0,0,,,0,FALSE,,,,,,,,,,,,,,,,,,,,,,,,,,,,,,,
,613a6cad54616b2514089576,627c6f545f47bba070e96327,2022-05-11_21h24.32.775,classification_task,2021.2.3,Win32,60.29544769,627c6715c52fd12f31907bd0,,,,,,,,,,,,,,,,,,,,,,,a,1,1.7508,"[""0.313"",""0.599"",""0.847"",""0.882""]","[1,0,1,1]",0,38,38,38,1,0,1,,,0,FALSE,,,,,,,,,,,,,,,,,,,,,,,,,,,,,,,
,613a6cad54616b2514089576,627c6f545f47bba070e96327,2022-05-11_21h24.32.775,classification_task,2021.2.3,Win32,60.29544769,627c6715c52fd12f31907bd0,,,,,,,,,,,,,,,,,,,,,,,a,0,2.1343,"[""0.075"",""0.188"",""0.455"",""0.724""]","[1,0,1,1]",0,39,39,39,1,1,1,,,0,FALSE,,,,,,,,,,,,,,,,,,,,,,,,,,,,,,,
,613a6cad54616b2514089576,627c6f545f47bba070e96327,2022-05-11_21h24.32.775,classification_task,2021.2.3,Win32,60.29544769,627c6715c52fd12f31907bd0,,,,,,,,,,,,,,,,,,,,,,,a,0,2.2193,"[""0.127"",""0.348"",""0.641"",""0.184""]","[1,1,1,0]",0,40,40,40,1,1,0,,,0,FALSE,,,,,,,,,,,,,,,,,,,,,,,,,,,,,,,
,613a6cad54616b2514089576,627c6f545f47bba070e96327,2022-05-11_21h24.32.775,classification_task,2021.2.3,Win32,60.29544769,627c6715c52fd12f31907bd0,,,,,,,,,,,,,,,,,,,,,,,l,1,1.319,"[""0.215"",""0.348"",""0.641"",""0.785""]","[0,1,1,1]",0,41,41,41,1,1,0,,,0,FALSE,,,,,,,,,,,,,,,,,,,,,,,,,,,,,,,
,613a6cad54616b2514089576,627c6f545f47bba070e96327,2022-05-11_21h24.32.775,classification_task,2021.2.3,Win32,60.29544769,627c6715c52fd12f31907bd0,,,,,,,,,,,,,,,,,,,,,,,l,1,2.1991,"[""0.688"",""0.392"",""0.455"",""0.724""]","[0,1,1,1]",0,42,42,42,1,1,1,,,0,FALSE,,,,,,,,,,,,,,,,,,,,,,,,,,,,,,,
,613a6cad54616b2514089576,627c6f545f47bba070e96327,2022-05-11_21h24.32.775,classification_task,2021.2.3,Win32,60.29544769,627c6715c52fd12f31907bd0,,,,,,,,,,,,,,,,,,,,,,,a,0,2.405,"[""0.075"",""0.392"",""0.215"",""0.724""]","[1,1,0,1]",0,43,43,43,1,1,1,,,0,FALSE,,,,,,,,,,,,,,,,,,,,,,,,,,,,,,,
,613a6cad54616b2514089576,627c6f545f47bba070e96327,2022-05-11_21h24.32.775,classification_task,2021.2.3,Win32,60.29544769,627c6715c52fd12f31907bd0,,,,,,,,,,,,,,,,,,,,,,,l,1,1.6144,"[""0.127"",""0.215"",""0.641"",""0.785""]","[1,0,1,1]",0,44,44,44,1,1,0,,,0,FALSE,,,,,,,,,,,,,,,,,,,,,,,,,,,,,,,
,613a6cad54616b2514089576,627c6f545f47bba070e96327,2022-05-11_21h24.32.775,classification_task,2021.2.3,Win32,60.29544769,627c6715c52fd12f31907bd0,,,,,,,,,,,,,,,,,,,,,,,l,1,3.4343,"[""0.127"",""0.348"",""0.585"",""0.785""]","[1,1,0,1]",0,45,45,45,1,1,0,,,0,FALSE,,,,,,,,,,,,,,,,,,,,,,,,,,,,,,,
,613a6cad54616b2514089576,627c6f545f47bba070e96327,2022-05-11_21h24.32.775,classification_task,2021.2.3,Win32,60.29544769,627c6715c52fd12f31907bd0,,,,,,,,,,,,,,,,,,,,,,,l,0,1.8519,"[""0.275"",""0.688"",""0.928"",""0.968""]","[1,0,1,1]",0,46,46,46,1,0,0,,,0,FALSE,,,,,,,,,,,,,,,,,,,,,,,,,,,,,,,
,613a6cad54616b2514089576,627c6f545f47bba070e96327,2022-05-11_21h24.32.775,classification_task,2021.2.3,Win32,60.29544769,627c6715c52fd12f31907bd0,,,,,,,,,,,,,,,,,,,,,,,a,1,1.0298,"[""0.275"",""0.549"",""0.928"",""0.585""]","[1,1,1,0]",0,47,47,47,1,0,0,,,0,FALSE,,,,,,,,,,,,,,,,,,,,,,,,,,,,,,,
,613a6cad54616b2514089576,627c6f545f47bba070e96327,2022-05-11_21h24.32.775,classification_task,2021.2.3,Win32,60.29544769,627c6715c52fd12f31907bd0,,,,,,,,,,,,,,,,,,,,,,,l,1,1.7201,"[""0.075"",""0.231"",""0.455"",""0.724""]","[1,0,1,1]",0,48,48,48,1,1,1,,,0,FALSE,,,,,,,,,,,,,,,,,,,,,,,,,,,,,,,
,613a6cad54616b2514089576,627c6f545f47bba070e96327,2022-05-11_21h24.32.775,classification_task,2021.2.3,Win32,60.29544769,627c6715c52fd12f31907bd0,,,,,,,,,,,,,,,,,,,,,,,l,1,1.9346,"[""0.127"",""0.232"",""0.641"",""0.785""]","[1,0,1,1]",0,49,49,49,1,1,0,,,0,FALSE,,,,,,,,,,,,,,,,,,,,,,,,,,,,,,,
,613a6cad54616b2514089576,627c6f545f47bba070e96327,2022-05-11_21h24.32.775,classification_task,2021.2.3,Win32,60.29544769,627c6715c52fd12f31907bd0,,,,,,,,,,,,,,,,,,,,,,,a,1,2.0354,"[""0.313"",""0.496"",""0.847"",""0.599""]","[1,1,1,0]",0,50,50,50,1,0,1,,,0,FALSE,,,,,,,,,,,,,,,,,,,,,,,,,,,,,,,
,613a6cad54616b2514089576,627c6f545f47bba070e96327,2022-05-11_21h24.32.775,classification_task,2021.2.3,Win32,60.29544769,627c6715c52fd12f31907bd0,,,,,,,,,,,,,,,,,,,,,,,l,1,1.2709,"[""0.201"",""0.348"",""0.641"",""0.785""]","[0,1,1,1]",0,51,51,51,1,1,0,,,0,FALSE,,,,,,,,,,,,,,,,,,,,,,,,,,,,,,,
,613a6cad54616b2514089576,627c6f545f47bba070e96327,2022-05-11_21h24.32.775,classification_task,2021.2.3,Win32,60.29544769,627c6715c52fd12f31907bd0,,,,,,,,,,,,,,,,,,,,,,,a,1,0.8838,"[""0.232"",""0.496"",""0.847"",""0.882""]","[0,1,1,1]",0,52,52,52,1,0,1,,,0,FALSE,,,,,,,,,,,,,,,,,,,,,,,,,,,,,,,
,613a6cad54616b2514089576,627c6f545f47bba070e96327,2022-05-11_21h24.32.775,classification_task,2021.2.3,Win32,60.29544769,627c6715c52fd12f31907bd0,,,,,,,,,,,,,,,,,,,,,,,a,1,0.8841,"[""0.184"",""0.549"",""0.928"",""0.968""]","[0,1,1,1]",0,53,53,53,1,0,0,,,0,FALSE,,,,,,,,,,,,,,,,,,,,,,,,,,,,,,,
,613a6cad54616b2514089576,627c6f545f47bba070e96327,2022-05-11_21h24.32.775,classification_task,2021.2.3,Win32,60.29544769,627c6715c52fd12f31907bd0,,,,,,,,,,,,,,,,,,,,,,,a,1,0.867,"[""0.313"",""0.188"",""0.847"",""0.882""]","[1,0,1,1]",0,54,54,54,1,0,1,,,0,FALSE,,,,,,,,,,,,,,,,,,,,,,,,,,,,,,,
,613a6cad54616b2514089576,627c6f545f47bba070e96327,2022-05-11_21h24.32.775,classification_task,2021.2.3,Win32,60.29544769,627c6715c52fd12f31907bd0,,,,,,,,,,,,,,,,,,,,,,,l,1,1.0683,"[""0.075"",""0.392"",""0.184"",""0.724""]","[1,1,0,1]",0,55,55,55,1,1,1,,,0,FALSE,,,,,,,,,,,,,,,,,,,,,,,,,,,,,,,
,613a6cad54616b2514089576,627c6f545f47bba070e96327,2022-05-11_21h24.32.775,classification_task,2021.2.3,Win32,60.29544769,627c6715c52fd12f31907bd0,,,,,,,,,,,,,,,,,,,,,,,l,1,0.7685,"[""0.075"",""0.392"",""0.455"",""0.585""]","[1,1,1,0]",0,56,56,56,1,1,1,,,0,FALSE,,,,,,,,,,,,,,,,,,,,,,,,,,,,,,,
,613a6cad54616b2514089576,627c6f545f47bba070e96327,2022-05-11_21h24.32.775,classification_task,2021.2.3,Win32,60.29544769,627c6715c52fd12f31907bd0,,,,,,,,,,,,,,,,,,,,,,,a,1,0.6367,"[""0.275"",""0.549"",""0.928"",""0.188""]","[1,1,1,0]",0,57,57,57,1,0,0,,,0,FALSE,,,,,,,,,,,,,,,,,,,,,,,,,,,,,,,
,613a6cad54616b2514089576,627c6f545f47bba070e96327,2022-05-11_21h24.32.775,classification_task,2021.2.3,Win32,60.29544769,627c6715c52fd12f31907bd0,,,,,,,,,,,,,,,,,,,,,,,l,1,1.9552,"[""0.127"",""0.348"",""0.590"",""0.785""]","[1,1,0,1]",0,58,58,58,1,1,0,,,0,FALSE,,,,,,,,,,,,,,,,,,,,,,,,,,,,,,,
,613a6cad54616b2514089576,627c6f545f47bba070e96327,2022-05-11_21h24.32.775,classification_task,2021.2.3,Win32,60.29544769,627c6715c52fd12f31907bd0,,,,,,,,,,,,,,,,,,,,,,,a,1,1.3182,"[""0.275"",""0.549"",""0.188"",""0.968""]","[1,1,0,1]",0,59,59,59,1,0,0,,,0,FALSE,,,,,,,,,,,,,,,,,,,,,,,,,,,,,,,
,613a6cad54616b2514089576,627c6f545f47bba070e96327,2022-05-11_21h24.32.775,classification_task,2021.2.3,Win32,60.29544769,627c6715c52fd12f31907bd0,,,,,,,,,,,,,,,,,,,,,,,l,1,2.9701,"[""0.231"",""0.392"",""0.455"",""0.724""]","[0,1,1,1]",0,60,60,60,1,1,1,,,0,FALSE,,,,,,,,,,,,,,,,,,,,,,,,,,,,,,,
,613a6cad54616b2514089576,627c6f545f47bba070e96327,2022-05-11_21h24.32.775,classification_task,2021.2.3,Win32,60.29544769,627c6715c52fd12f31907bd0,,,,,,,,,,,,,,,,,,,,,,,a,0,1.2522,"[""0.127"",""0.348"",""0.641"",""0.231""]","[1,1,1,0]",0,61,61,61,1,1,0,,,0,FALSE,,,,,,,,,,,,,,,,,,,,,,,,,,,,,,,
,613a6cad54616b2514089576,627c6f545f47bba070e96327,2022-05-11_21h24.32.775,classification_task,2021.2.3,Win32,60.29544769,627c6715c52fd12f31907bd0,,,,,,,,,,,,,,,,,,,,,,,a,1,1.0318,"[""0.275"",""0.585"",""0.928"",""0.968""]","[1,0,1,1]",0,62,62,62,1,0,0,,,0,FALSE,,,,,,,,,,,,,,,,,,,,,,,,,,,,,,,
,613a6cad54616b2514089576,627c6f545f47bba070e96327,2022-05-11_21h24.32.775,classification_task,2021.2.3,Win32,60.29544769,627c6715c52fd12f31907bd0,,,,,,,,,,,,,,,,,,,,,,,l,0,0.836,"[""0.313"",""0.496"",""0.232"",""0.882""]","[1,1,0,1]",0,63,63,63,1,0,1,,,0,FALSE,,,,,,,,,,,,,,,,,,,,,,,,,,,,,,,
,613a6cad54616b2514089576,627c6f545f47bba070e96327,2022-05-11_21h24.32.775,classification_task,2021.2.3,Win32,60.29544769,627c6715c52fd12f31907bd0,,,,,,,,,,,,,,,,,,,,,,,,,,,,,,,,,,,,,,,0, ,,0,7.623298313,469.5531,0,0,0,0,1,2,1,,,,,,,,,,,,,,,,,,
,613a6cad54616b2514089576,627c6f545f47bba070e96327,2022-05-11_21h24.32.775,classification_task,2021.2.3,Win32,60.29544769,627c6715c52fd12f31907bd0,,,,,,,,,,,,,,,,,,,,,,,,,,,,,,,,,,,,,,,1,  ,,0,5.688539814,477.602,0,0,0,0,1,2,1,,,,,,,,,,,,,,,,,,
,613a6cad54616b2514089576,627c6f545f47bba070e96327,2022-05-11_21h24.32.775,classification_task,2021.2.3,Win32,60.29544769,627c6715c52fd12f31907bd0,,,,,,,,,,,,,,,,,,,,,,,,,,,,,,,,,,,,,,,2,  ,,0,7.255938018,482.7605,0,0,0,0,1,2,1,,,,,,,,,,,,,,,,,,
,613a6cad54616b2514089576,627c6f545f47bba070e96327,2022-05-11_21h24.32.775,classification_task,2021.2.3,Win32,60.29544769,627c6715c52fd12f31907bd0,,,,,,,,,,,,,,,,,,,,,,,,,,,,,,,,,,,,,,,,,,,,,0,0,0,0,1,,1,,,,,,,,,,,,,,,,,,
,613a6cad54616b2514089576,627c6f545f47bba070e96327,2022-05-11_21h24.32.775,classification_task,2021.2.3,Win32,60.29544769,627c6715c52fd12f31907bd0,,,,,,,,,,,,,,,,,,,,,space,9.2396,a,1,4.1203,"[""0.313"",""0.231"",""0.847"",""0.882""]","[1,0,1,1]",0,0,0,0,1,0,1,,,0,FALSE,,,,,,,,,,,,,,,,,,,,,,,,,,,,,,,
,613a6cad54616b2514089576,627c6f545f47bba070e96327,2022-05-11_21h24.32.775,classification_task,2021.2.3,Win32,60.29544769,627c6715c52fd12f31907bd0,,,,,,,,,,,,,,,,,,,,,,,l,0,1.6462,"[""0.275"",""0.549"",""0.928"",""0.199""]","[1,1,1,0]",0,1,1,1,1,0,0,,,0,FALSE,,,,,,,,,,,,,,,,,,,,,,,,,,,,,,,
,613a6cad54616b2514089576,627c6f545f47bba070e96327,2022-05-11_21h24.32.775,classification_task,2021.2.3,Win32,60.29544769,627c6715c52fd12f31907bd0,,,,,,,,,,,,,,,,,,,,,,,a,1,1.2967,"[""0.313"",""0.496"",""0.847"",""0.199""]","[1,1,1,0]",0,2,2,2,1,0,1,,,0,FALSE,,,,,,,,,,,,,,,,,,,,,,,,,,,,,,,
,613a6cad54616b2514089576,627c6f545f47bba070e96327,2022-05-11_21h24.32.775,classification_task,2021.2.3,Win32,60.29544769,627c6715c52fd12f31907bd0,,,,,,,,,,,,,,,,,,,,,,,a,0,1.6827,"[""0.075"",""0.392"",""0.215"",""0.724""]","[1,1,0,1]",0,3,3,3,1,1,1,,,0,FALSE,,,,,,,,,,,,,,,,,,,,,,,,,,,,,,,
,613a6cad54616b2514089576,627c6f545f47bba070e96327,2022-05-11_21h24.32.775,classification_task,2021.2.3,Win32,60.29544769,627c6715c52fd12f31907bd0,,,,,,,,,,,,,,,,,,,,,,,a,0,1.1085,"[""0.127"",""0.348"",""0.231"",""0.785""]","[1,1,0,1]",0,4,4,4,1,1,0,,,0,FALSE,,,,,,,,,,,,,,,,,,,,,,,,,,,,,,,
,613a6cad54616b2514089576,627c6f545f47bba070e96327,2022-05-11_21h24.32.775,classification_task,2021.2.3,Win32,60.29544769,627c6715c52fd12f31907bd0,,,,,,,,,,,,,,,,,,,,,,,l,0,1.0822,"[""0.599"",""0.496"",""0.847"",""0.882""]","[0,1,1,1]",0,5,5,5,1,0,1,,,0,FALSE,,,,,,,,,,,,,,,,,,,,,,,,,,,,,,,
,613a6cad54616b2514089576,627c6f545f47bba070e96327,2022-05-11_21h24.32.775,classification_task,2021.2.3,Win32,60.29544769,627c6715c52fd12f31907bd0,,,,,,,,,,,,,,,,,,,,,,,l,0,0.8967,"[""0.275"",""0.585"",""0.928"",""0.968""]","[1,0,1,1]",0,6,6,6,1,0,0,,,0,FALSE,,,,,,,,,,,,,,,,,,,,,,,,,,,,,,,
,613a6cad54616b2514089576,627c6f545f47bba070e96327,2022-05-11_21h24.32.775,classification_task,2021.2.3,Win32,60.29544769,627c6715c52fd12f31907bd0,,,,,,,,,,,,,,,,,,,,,,,a,1,1.0323,"[""0.275"",""0.549"",""0.215"",""0.968""]","[1,1,0,1]",0,7,7,7,1,0,0,,,0,FALSE,,,,,,,,,,,,,,,,,,,,,,,,,,,,,,,
,613a6cad54616b2514089576,627c6f545f47bba070e96327,2022-05-11_21h24.32.775,classification_task,2021.2.3,Win32,60.29544769,627c6715c52fd12f31907bd0,,,,,,,,,,,,,,,,,,,,,,,a,1,1.1161,"[""0.585"",""0.549"",""0.928"",""0.968""]","[0,1,1,1]",0,8,8,8,1,0,0,,,0,FALSE,,,,,,,,,,,,,,,,,,,,,,,,,,,,,,,
,613a6cad54616b2514089576,627c6f545f47bba070e96327,2022-05-11_21h24.32.775,classification_task,2021.2.3,Win32,60.29544769,627c6715c52fd12f31907bd0,,,,,,,,,,,,,,,,,,,,,,,l,0,1.6972,"[""0.313"",""0.496"",""0.184"",""0.882""]","[1,1,0,1]",0,9,9,9,1,0,1,,,0,FALSE,,,,,,,,,,,,,,,,,,,,,,,,,,,,,,,
,613a6cad54616b2514089576,627c6f545f47bba070e96327,2022-05-11_21h24.32.775,classification_task,2021.2.3,Win32,60.29544769,627c6715c52fd12f31907bd0,,,,,,,,,,,,,,,,,,,,,,,l,1,0.7127,"[""0.127"",""0.585"",""0.641"",""0.785""]","[1,0,1,1]",0,10,10,10,1,1,0,,,0,FALSE,,,,,,,,,,,,,,,,,,,,,,,,,,,,,,,
,613a6cad54616b2514089576,627c6f545f47bba070e96327,2022-05-11_21h24.32.775,classification_task,2021.2.3,Win32,60.29544769,627c6715c52fd12f31907bd0,,,,,,,,,,,,,,,,,,,,,,,l,1,0.6331,"[""0.127"",""0.348"",""0.641"",""0.686""]","[1,1,1,0]",0,11,11,11,1,1,0,,,0,FALSE,,,,,,,,,,,,,,,,,,,,,,,,,,,,,,,
,613a6cad54616b2514089576,627c6f545f47bba070e96327,2022-05-11_21h24.32.775,classification_task,2021.2.3,Win32,60.29544769,627c6715c52fd12f31907bd0,,,,,,,,,,,,,,,,,,,,,,,a,0,0.6632,"[""0.075"",""0.392"",""0.455"",""0.199""]","[1,1,1,0]",0,12,12,12,1,1,1,,,0,FALSE,,,,,,,,,,,,,,,,,,,,,,,,,,,,,,,
,613a6cad54616b2514089576,627c6f545f47bba070e96327,2022-05-11_21h24.32.775,classification_task,2021.2.3,Win32,60.29544769,627c6715c52fd12f31907bd0,,,,,,,,,,,,,,,,,,,,,,,l,1,0.5471,"[""0.215"",""0.348"",""0.641"",""0.785""]","[0,1,1,1]",0,13,13,13,1,1,0,,,0,FALSE,,,,,,,,,,,,,,,,,,,,,,,,,,,,,,,
,613a6cad54616b2514089576,627c6f545f47bba070e96327,2022-05-11_21h24.32.775,classification_task,2021.2.3,Win32,60.29544769,627c6715c52fd12f31907bd0,,,,,,,,,,,,,,,,,,,,,,,l,1,0.6466,"[""0.232"",""0.392"",""0.455"",""0.724""]","[0,1,1,1]",0,14,14,14,1,1,1,,,0,FALSE,,,,,,,,,,,,,,,,,,,,,,,,,,,,,,,
,613a6cad54616b2514089576,627c6f545f47bba070e96327,2022-05-11_21h24.32.775,classification_task,2021.2.3,Win32,60.29544769,627c6715c52fd12f31907bd0,,,,,,,,,,,,,,,,,,,,,,,l,1,0.4492,"[""0.075"",""0.199"",""0.455"",""0.724""]","[1,0,1,1]",0,15,15,15,1,1,1,,,0,FALSE,,,,,,,,,,,,,,,,,,,,,,,,,,,,,,,
,613a6cad54616b2514089576,627c6f545f47bba070e96327,2022-05-11_21h24.32.775,classification_task,2021.2.3,Win32,60.29544769,627c6715c52fd12f31907bd0,,,,,,,,,,,,,,,,,,,,,,,l,1,0.813,"[""0.127"",""0.348"",""0.641"",""0.199""]","[1,1,1,0]",0,16,16,16,1,1,0,,,0,FALSE,,,,,,,,,,,,,,,,,,,,,,,,,,,,,,,
,613a6cad54616b2514089576,627c6f545f47bba070e96327,2022-05-11_21h24.32.775,classification_task,2021.2.3,Win32,60.29544769,627c6715c52fd12f31907bd0,,,,,,,,,,,,,,,,,,,,,,,l,0,0.5975,"[""0.313"",""0.199"",""0.847"",""0.882""]","[1,0,1,1]",0,17,17,17,1,0,1,,,0,FALSE,,,,,,,,,,,,,,,,,,,,,,,,,,,,,,,
,613a6cad54616b2514089576,627c6f545f47bba070e96327,2022-05-11_21h24.32.775,classification_task,2021.2.3,Win32,60.29544769,627c6715c52fd12f31907bd0,,,,,,,,,,,,,,,,,,,,,,,l,1,0.7304,"[""0.127"",""0.348"",""0.231"",""0.785""]","[1,1,0,1]",0,18,18,18,1,1,0,,,0,FALSE,,,,,,,,,,,,,,,,,,,,,,,,,,,,,,,
,613a6cad54616b2514089576,627c6f545f47bba070e96327,2022-05-11_21h24.32.775,classification_task,2021.2.3,Win32,60.29544769,627c6715c52fd12f31907bd0,,,,,,,,,,,,,,,,,,,,,,,a,1,0.4165,"[""0.275"",""0.549"",""0.928"",""0.201""]","[1,1,1,0]",0,19,19,19,1,0,0,,,0,FALSE,,,,,,,,,,,,,,,,,,,,,,,,,,,,,,,
,613a6cad54616b2514089576,627c6f545f47bba070e96327,2022-05-11_21h24.32.775,classification_task,2021.2.3,Win32,60.29544769,627c6715c52fd12f31907bd0,,,,,,,,,,,,,,,,,,,,,,,a,1,0.5484,"[""0.313"",""0.496"",""0.188"",""0.882""]","[1,1,0,1]",0,20,20,20,1,0,1,,,0,FALSE,,,,,,,,,,,,,,,,,,,,,,,,,,,,,,,
,613a6cad54616b2514089576,627c6f545f47bba070e96327,2022-05-11_21h24.32.775,classification_task,2021.2.3,Win32,60.29544769,627c6715c52fd12f31907bd0,,,,,,,,,,,,,,,,,,,,,,,a,0,0.4166,"[""0.075"",""0.688"",""0.455"",""0.724""]","[1,0,1,1]",0,21,21,21,1,1,1,,,0,FALSE,,,,,,,,,,,,,,,,,,,,,,,,,,,,,,,
,613a6cad54616b2514089576,627c6f545f47bba070e96327,2022-05-11_21h24.32.775,classification_task,2021.2.3,Win32,60.29544769,627c6715c52fd12f31907bd0,,,,,,,,,,,,,,,,,,,,,,,l,1,0.6461,"[""0.127"",""0.184"",""0.641"",""0.785""]","[1,0,1,1]",0,22,22,22,1,1,0,,,0,FALSE,,,,,,,,,,,,,,,,,,,,,,,,,,,,,,,
,613a6cad54616b2514089576,627c6f545f47bba070e96327,2022-05-11_21h24.32.775,classification_task,2021.2.3,Win32,60.29544769,627c6715c52fd12f31907bd0,,,,,,,,,,,,,,,,,,,,,,,a,1,0.4497,"[""0.275"",""0.549"",""0.184"",""0.968""]","[1,1,0,1]",0,23,23,23,1,0,0,,,0,FALSE,,,,,,,,,,,,,,,,,,,,,,,,,,,,,,,
,613a6cad54616b2514089576,627c6f545f47bba070e96327,2022-05-11_21h24.32.775,classification_task,2021.2.3,Win32,60.29544769,627c6715c52fd12f31907bd0,,,,,,,,,,,,,,,,,,,,,,,l,1,0.5989,"[""0.590"",""0.348"",""0.641"",""0.785""]","[0,1,1,1]",0,24,24,24,1,1,0,,,0,FALSE,,,,,,,,,,,,,,,,,,,,,,,,,,,,,,,
,613a6cad54616b2514089576,627c6f545f47bba070e96327,2022-05-11_21h24.32.775,classification_task,2021.2.3,Win32,60.29544769,627c6715c52fd12f31907bd0,,,,,,,,,,,,,,,,,,,,,,,l,1,0.8466,"[""0.184"",""0.392"",""0.455"",""0.724""]","[0,1,1,1]",0,25,25,25,1,1,1,,,0,FALSE,,,,,,,,,,,,,,,,,,,,,,,,,,,,,,,
,613a6cad54616b2514089576,627c6f545f47bba070e96327,2022-05-11_21h24.32.775,classification_task,2021.2.3,Win32,60.29544769,627c6715c52fd12f31907bd0,,,,,,,,,,,,,,,,,,,,,,,a,1,0.3992,"[""0.688"",""0.496"",""0.847"",""0.882""]","[0,1,1,1]",0,26,26,26,1,0,1,,,0,FALSE,,,,,,,,,,,,,,,,,,,,,,,,,,,,,,,
,613a6cad54616b2514089576,627c6f545f47bba070e96327,2022-05-11_21h24.32.775,classification_task,2021.2.3,Win32,60.29544769,627c6715c52fd12f31907bd0,,,,,,,,,,,,,,,,,,,,,,,a,0,0.7993,"[""0.075"",""0.392"",""0.455"",""0.199""]","[1,1,1,0]",0,27,27,27,1,1,1,,,0,FALSE,,,,,,,,,,,,,,,,,,,,,,,,,,,,,,,
,613a6cad54616b2514089576,627c6f545f47bba070e96327,2022-05-11_21h24.32.775,classification_task,2021.2.3,Win32,60.29544769,627c6715c52fd12f31907bd0,,,,,,,,,,,,,,,,,,,,,,,l,1,0.6001,"[""0.075"",""0.392"",""0.199"",""0.724""]","[1,1,0,1]",0,28,28,28,1,1,1,,,0,FALSE,,,,,,,,,,,,,,,,,,,,,,,,,,,,,,,
,613a6cad54616b2514089576,627c6f545f47bba070e96327,2022-05-11_21h24.32.775,classification_task,2021.2.3,Win32,60.29544769,627c6715c52fd12f31907bd0,,,,,,,,,,,,,,,,,,,,,,,a,1,0.8635,"[""0.275"",""0.188"",""0.928"",""0.968""]","[1,0,1,1]",0,29,29,29,1,0,0,,,0,FALSE,,,,,,,,,,,,,,,,,,,,,,,,,,,,,,,
,613a6cad54616b2514089576,627c6f545f47bba070e96327,2022-05-11_21h24.32.775,classification_task,2021.2.3,Win32,60.29544769,627c6715c52fd12f31907bd0,,,,,,,,,,,,,,,,,,,,,,,a,1,0.4466,"[""0.313"",""0.496"",""0.847"",""0.184""]","[1,1,1,0]",0,30,30,30,1,0,1,,,0,FALSE,,,,,,,,,,,,,,,,,,,,,,,,,,,,,,,
,613a6cad54616b2514089576,627c6f545f47bba070e96327,2022-05-11_21h24.32.775,classification_task,2021.2.3,Win32,60.29544769,627c6715c52fd12f31907bd0,,,,,,,,,,,,,,,,,,,,,,,a,1,0.5806,"[""0.188"",""0.549"",""0.928"",""0.968""]","[0,1,1,1]",0,31,31,31,1,0,0,,,0,FALSE,,,,,,,,,,,,,,,,,,,,,,,,,,,,,,,
,613a6cad54616b2514089576,627c6f545f47bba070e96327,2022-05-11_21h24.32.775,classification_task,2021.2.3,Win32,60.29544769,627c6715c52fd12f31907bd0,,,,,,,,,,,,,,,,,,,,,,,a,1,0.464,"[""0.313"",""0.496"",""0.231"",""0.882""]","[1,1,0,1]",0,32,32,32,1,0,1,,,0,FALSE,,,,,,,,,,,,,,,,,,,,,,,,,,,,,,,
,613a6cad54616b2514089576,627c6f545f47bba070e96327,2022-05-11_21h24.32.775,classification_task,2021.2.3,Win32,60.29544769,627c6715c52fd12f31907bd0,,,,,,,,,,,,,,,,,,,,,,,l,1,0.5633,"[""0.215"",""0.348"",""0.641"",""0.785""]","[0,1,1,1]",0,33,33,33,1,1,0,,,0,FALSE,,,,,,,,,,,,,,,,,,,,,,,,,,,,,,,
,613a6cad54616b2514089576,627c6f545f47bba070e96327,2022-05-11_21h24.32.775,classification_task,2021.2.3,Win32,60.29544769,627c6715c52fd12f31907bd0,,,,,,,,,,,,,,,,,,,,,,,l,0,0.4305,"[""0.313"",""0.496"",""0.847"",""0.688""]","[1,1,1,0]",0,34,34,34,1,0,1,,,0,FALSE,,,,,,,,,,,,,,,,,,,,,,,,,,,,,,,
,613a6cad54616b2514089576,627c6f545f47bba070e96327,2022-05-11_21h24.32.775,classification_task,2021.2.3,Win32,60.29544769,627c6715c52fd12f31907bd0,,,,,,,,,,,,,,,,,,,,,,,l,0,1.2465,"[""0.275"",""0.549"",""0.928"",""0.188""]","[1,1,1,0]",0,35,35,35,1,0,0,,,0,FALSE,,,,,,,,,,,,,,,,,,,,,,,,,,,,,,,
,613a6cad54616b2514089576,627c6f545f47bba070e96327,2022-05-11_21h24.32.775,classification_task,2021.2.3,Win32,60.29544769,627c6715c52fd12f31907bd0,,,,,,,,,,,,,,,,,,,,,,,l,1,2.2497,"[""0.127"",""0.348"",""0.231"",""0.785""]","[1,1,0,1]",0,36,36,36,1,1,0,,,0,FALSE,,,,,,,,,,,,,,,,,,,,,,,,,,,,,,,
,613a6cad54616b2514089576,627c6f545f47bba070e96327,2022-05-11_21h24.32.775,classification_task,2021.2.3,Win32,60.29544769,627c6715c52fd12f31907bd0,,,,,,,,,,,,,,,,,,,,,,,l,1,0.6128,"[""0.127"",""0.599"",""0.641"",""0.785""]","[1,0,1,1]",0,37,37,37,1,1,0,,,0,FALSE,,,,,,,,,,,,,,,,,,,,,,,,,,,,,,,
,613a6cad54616b2514089576,627c6f545f47bba070e96327,2022-05-11_21h24.32.775,classification_task,2021.2.3,Win32,60.29544769,627c6715c52fd12f31907bd0,,,,,,,,,,,,,,,,,,,,,,,a,0,0.913,"[""0.075"",""0.392"",""0.199"",""0.724""]","[1,1,0,1]",0,38,38,38,1,1,1,,,0,FALSE,,,,,,,,,,,,,,,,,,,,,,,,,,,,,,,
,613a6cad54616b2514089576,627c6f545f47bba070e96327,2022-05-11_21h24.32.775,classification_task,2021.2.3,Win32,60.29544769,627c6715c52fd12f31907bd0,,,,,,,,,,,,,,,,,,,,,,,a,0,1.0158,"[""0.590"",""0.392"",""0.455"",""0.724""]","[0,1,1,1]",0,39,39,39,1,1,1,,,0,FALSE,,,,,,,,,,,,,,,,,,,,,,,,,,,,,,,
,613a6cad54616b2514089576,627c6f545f47bba070e96327,2022-05-11_21h24.32.775,classification_task,2021.2.3,Win32,60.29544769,627c6715c52fd12f31907bd0,,,,,,,,,,,,,,,,,,,,,,,a,0,1.5137,"[""0.127"",""0.348"",""0.641"",""0.590""]","[1,1,1,0]",0,40,40,40,1,1,0,,,0,FALSE,,,,,,,,,,,,,,,,,,,,,,,,,,,,,,,
,613a6cad54616b2514089576,627c6f545f47bba070e96327,2022-05-11_21h24.32.775,classification_task,2021.2.3,Win32,60.29544769,627c6715c52fd12f31907bd0,,,,,,,,,,,,,,,,,,,,,,,l,0,0.6476,"[""0.688"",""0.496"",""0.847"",""0.882""]","[0,1,1,1]",0,41,41,41,1,0,1,,,0,FALSE,,,,,,,,,,,,,,,,,,,,,,,,,,,,,,,
,613a6cad54616b2514089576,627c6f545f47bba070e96327,2022-05-11_21h24.32.775,classification_task,2021.2.3,Win32,60.29544769,627c6715c52fd12f31907bd0,,,,,,,,,,,,,,,,,,,,,,,l,0,0.6135,"[""0.275"",""0.215"",""0.928"",""0.968""]","[1,0,1,1]",0,42,42,42,1,0,0,,,0,FALSE,,,,,,,,,,,,,,,,,,,,,,,,,,,,,,,
,613a6cad54616b2514089576,627c6f545f47bba070e96327,2022-05-11_21h24.32.775,classification_task,2021.2.3,Win32,60.29544769,627c6715c52fd12f31907bd0,,,,,,,,,,,,,,,,,,,,,,,l,1,1.5468,"[""0.075"",""0.392"",""0.455"",""0.599""]","[1,1,1,0]",0,43,43,43,1,1,1,,,0,FALSE,,,,,,,,,,,,,,,,,,,,,,,,,,,,,,,
,613a6cad54616b2514089576,627c6f545f47bba070e96327,2022-05-11_21h24.32.775,classification_task,2021.2.3,Win32,60.29544769,627c6715c52fd12f31907bd0,,,,,,,,,,,,,,,,,,,,,,,a,1,1.3809,"[""0.275"",""0.549"",""0.188"",""0.968""]","[1,1,0,1]",0,44,44,44,1,0,0,,,0,FALSE,,,,,,,,,,,,,,,,,,,,,,,,,,,,,,,
,613a6cad54616b2514089576,627c6f545f47bba070e96327,2022-05-11_21h24.32.775,classification_task,2021.2.3,Win32,60.29544769,627c6715c52fd12f31907bd0,,,,,,,,,,,,,,,,,,,,,,,a,0,1.5471,"[""0.075"",""0.585"",""0.455"",""0.724""]","[1,0,1,1]",0,45,45,45,1,1,1,,,0,FALSE,,,,,,,,,,,,,,,,,,,,,,,,,,,,,,,
,613a6cad54616b2514089576,627c6f545f47bba070e96327,2022-05-11_21h24.32.775,classification_task,2021.2.3,Win32,60.29544769,627c6715c52fd12f31907bd0,,,,,,,,,,,,,,,,,,,,,,,l,0,0.7157,"[""0.313"",""0.590"",""0.847"",""0.882""]","[1,0,1,1]",0,46,46,46,1,0,1,,,0,FALSE,,,,,,,,,,,,,,,,,,,,,,,,,,,,,,,
,613a6cad54616b2514089576,627c6f545f47bba070e96327,2022-05-11_21h24.32.775,classification_task,2021.2.3,Win32,60.29544769,627c6715c52fd12f31907bd0,,,,,,,,,,,,,,,,,,,,,,,a,1,1.2463,"[""0.184"",""0.549"",""0.928"",""0.968""]","[0,1,1,1]",0,47,47,47,1,0,0,,,0,FALSE,,,,,,,,,,,,,,,,,,,,,,,,,,,,,,,
,613a6cad54616b2514089576,627c6f545f47bba070e96327,2022-05-11_21h24.32.775,classification_task,2021.2.3,Win32,60.29544769,627c6715c52fd12f31907bd0,,,,,,,,,,,,,,,,,,,,,,,a,1,0.916,"[""0.275"",""0.549"",""0.184"",""0.968""]","[1,1,0,1]",0,48,48,48,1,0,0,,,0,FALSE,,,,,,,,,,,,,,,,,,,,,,,,,,,,,,,
,613a6cad54616b2514089576,627c6f545f47bba070e96327,2022-05-11_21h24.32.775,classification_task,2021.2.3,Win32,60.29544769,627c6715c52fd12f31907bd0,,,,,,,,,,,,,,,,,,,,,,,a,1,0.5322,"[""0.313"",""0.199"",""0.847"",""0.882""]","[1,0,1,1]",0,49,49,49,1,0,1,,,0,FALSE,,,,,,,,,,,,,,,,,,,,,,,,,,,,,,,
,613a6cad54616b2514089576,627c6f545f47bba070e96327,2022-05-11_21h24.32.775,classification_task,2021.2.3,Win32,60.29544769,627c6715c52fd12f31907bd0,,,,,,,,,,,,,,,,,,,,,,,a,1,0.463,"[""0.275"",""0.686"",""0.928"",""0.968""]","[1,0,1,1]",0,50,50,50,1,0,0,,,0,FALSE,,,,,,,,,,,,,,,,,,,,,,,,,,,,,,,
,613a6cad54616b2514089576,627c6f545f47bba070e96327,2022-05-11_21h24.32.775,classification_task,2021.2.3,Win32,60.29544769,627c6715c52fd12f31907bd0,,,,,,,,,,,,,,,,,,,,,,,a,0,0.4807,"[""0.075"",""0.231"",""0.455"",""0.724""]","[1,0,1,1]",0,51,51,51,1,1,1,,,0,FALSE,,,,,,,,,,,,,,,,,,,,,,,,,,,,,,,
,613a6cad54616b2514089576,627c6f545f47bba070e96327,2022-05-11_21h24.32.775,classification_task,2021.2.3,Win32,60.29544769,627c6715c52fd12f31907bd0,,,,,,,,,,,,,,,,,,,,,,,l,1,0.5323,"[""0.075"",""0.392"",""0.455"",""0.199""]","[1,1,1,0]",0,52,52,52,1,1,1,,,0,FALSE,,,,,,,,,,,,,,,,,,,,,,,,,,,,,,,
,613a6cad54616b2514089576,627c6f545f47bba070e96327,2022-05-11_21h24.32.775,classification_task,2021.2.3,Win32,60.29544769,627c6715c52fd12f31907bd0,,,,,,,,,,,,,,,,,,,,,,,l,1,0.7469,"[""0.127"",""0.688"",""0.641"",""0.785""]","[1,0,1,1]",0,53,53,53,1,1,0,,,0,FALSE,,,,,,,,,,,,,,,,,,,,,,,,,,,,,,,
,613a6cad54616b2514089576,627c6f545f47bba070e96327,2022-05-11_21h24.32.775,classification_task,2021.2.3,Win32,60.29544769,627c6715c52fd12f31907bd0,,,,,,,,,,,,,,,,,,,,,,,l,0,0.4159,"[""0.275"",""0.549"",""0.928"",""0.590""]","[1,1,1,0]",0,54,54,54,1,0,0,,,0,FALSE,,,,,,,,,,,,,,,,,,,,,,,,,,,,,,,
,613a6cad54616b2514089576,627c6f545f47bba070e96327,2022-05-11_21h24.32.775,classification_task,2021.2.3,Win32,60.29544769,627c6715c52fd12f31907bd0,,,,,,,,,,,,,,,,,,,,,,,a,0,0.3969,"[""0.585"",""0.392"",""0.455"",""0.724""]","[0,1,1,1]",0,55,55,55,1,1,1,,,0,FALSE,,,,,,,,,,,,,,,,,,,,,,,,,,,,,,,
,613a6cad54616b2514089576,627c6f545f47bba070e96327,2022-05-11_21h24.32.775,classification_task,2021.2.3,Win32,60.29544769,627c6715c52fd12f31907bd0,,,,,,,,,,,,,,,,,,,,,,,l,1,0.5307,"[""0.201"",""0.348"",""0.641"",""0.785""]","[0,1,1,1]",0,56,56,56,1,1,0,,,0,FALSE,,,,,,,,,,,,,,,,,,,,,,,,,,,,,,,
,613a6cad54616b2514089576,627c6f545f47bba070e96327,2022-05-11_21h24.32.775,classification_task,2021.2.3,Win32,60.29544769,627c6715c52fd12f31907bd0,,,,,,,,,,,,,,,,,,,,,,,l,0,0.3806,"[""0.313"",""0.496"",""0.231"",""0.882""]","[1,1,0,1]",0,57,57,57,1,0,1,,,0,FALSE,,,,,,,,,,,,,,,,,,,,,,,,,,,,,,,
,613a6cad54616b2514089576,627c6f545f47bba070e96327,2022-05-11_21h24.32.775,classification_task,2021.2.3,Win32,60.29544769,627c6715c52fd12f31907bd0,,,,,,,,,,,,,,,,,,,,,,,a,0,0.3798,"[""0.127"",""0.348"",""0.686"",""0.785""]","[1,1,0,1]",0,58,58,58,1,1,0,,,0,FALSE,,,,,,,,,,,,,,,,,,,,,,,,,,,,,,,
,613a6cad54616b2514089576,627c6f545f47bba070e96327,2022-05-11_21h24.32.775,classification_task,2021.2.3,Win32,60.29544769,627c6715c52fd12f31907bd0,,,,,,,,,,,,,,,,,,,,,,,l,1,0.2997,"[""0.127"",""0.348"",""0.641"",""0.590""]","[1,1,1,0]",0,59,59,59,1,1,0,,,0,FALSE,,,,,,,,,,,,,,,,,,,,,,,,,,,,,,,
,613a6cad54616b2514089576,627c6f545f47bba070e96327,2022-05-11_21h24.32.775,classification_task,2021.2.3,Win32,60.29544769,627c6715c52fd12f31907bd0,,,,,,,,,,,,,,,,,,,,,,,a,1,1.5968,"[""0.188"",""0.496"",""0.847"",""0.882""]","[0,1,1,1]",0,60,60,60,1,0,1,,,0,FALSE,,,,,,,,,,,,,,,,,,,,,,,,,,,,,,,
,613a6cad54616b2514089576,627c6f545f47bba070e96327,2022-05-11_21h24.32.775,classification_task,2021.2.3,Win32,60.29544769,627c6715c52fd12f31907bd0,,,,,,,,,,,,,,,,,,,,,,,l,0,0.8495,"[""0.313"",""0.496"",""0.847"",""0.231""]","[1,1,1,0]",0,61,61,61,1,0,1,,,0,FALSE,,,,,,,,,,,,,,,,,,,,,,,,,,,,,,,
,613a6cad54616b2514089576,627c6f545f47bba070e96327,2022-05-11_21h24.32.775,classification_task,2021.2.3,Win32,60.29544769,627c6715c52fd12f31907bd0,,,,,,,,,,,,,,,,,,,,,,,a,0,0.3163,"[""0.075"",""0.392"",""0.585"",""0.724""]","[1,1,0,1]",0,62,62,62,1,1,1,,,0,FALSE,,,,,,,,,,,,,,,,,,,,,,,,,,,,,,,
,613a6cad54616b2514089576,627c6f545f47bba070e96327,2022-05-11_21h24.32.775,classification_task,2021.2.3,Win32,60.29544769,627c6715c52fd12f31907bd0,,,,,,,,,,,,,,,,,,,,,,,l,0,1.1636,"[""0.599"",""0.549"",""0.928"",""0.968""]","[0,1,1,1]",0,63,63,63,1,0,0,,,0,FALSE,,,,,,,,,,,,,,,,,,,,,,,,,,,,,,,
,613a6cad54616b2514089576,627c6f545f47bba070e96327,2022-05-11_21h24.32.775,classification_task,2021.2.3,Win32,60.29544769,627c6715c52fd12f31907bd0,,,,,,,,,,,,,,,,,,,,,,,,,,,,,,,,,,,,,,,0, ,,0,8.970282695,137.7238,0,1,1,1,1,2,2,,,,,,,,,,,,,,,,,,
,613a6cad54616b2514089576,627c6f545f47bba070e96327,2022-05-11_21h24.32.775,classification_task,2021.2.3,Win32,60.29544769,627c6715c52fd12f31907bd0,,,,,,,,,,,,,,,,,,,,,,,,,,,,,,,,,,,,,,,1,  ,,0,9.582546489,140.0913,0,1,1,1,1,2,2,,,,,,,,,,,,,,,,,,
,613a6cad54616b2514089576,627c6f545f47bba070e96327,2022-05-11_21h24.32.775,classification_task,2021.2.3,Win32,60.29544769,627c6715c52fd12f31907bd0,,,,,,,,,,,,,,,,,,,,,,,,,,,,,,,,,,,,,,,2,  ,,0,8.811092225,151.072,0,1,1,1,1,2,2,,,,,,,,,,,,,,,,,,
,613a6cad54616b2514089576,627c6f545f47bba070e96327,2022-05-11_21h24.32.775,classification_task,2021.2.3,Win32,60.29544769,627c6715c52fd12f31907bd0,,,,,,,,,,,,,,,,,,,,,,,,,,,,,,,,,,,,,,,,,,,,,0,1,1,1,1,,2,,,,,,,,,,,,,,,,,,
,613a6cad54616b2514089576,627c6f545f47bba070e96327,2022-05-11_21h24.32.775,classification_task,2021.2.3,Win32,60.29544769,627c6715c52fd12f31907bd0,,,,,,,,,,,,,,,,,,,,,space,8.8905,a,0,4.6134,"[""0.075"",""0.199"",""0.455"",""0.724""]","[1,0,1,1]",0,0,0,0,1,1,1,,,0,FALSE,,,,,,,,,,,,,,,,,,,,,,,,,,,,,,,
,613a6cad54616b2514089576,627c6f545f47bba070e96327,2022-05-11_21h24.32.775,classification_task,2021.2.3,Win32,60.29544769,627c6715c52fd12f31907bd0,,,,,,,,,,,,,,,,,,,,,,,a,1,2.7521,"[""0.313"",""0.496"",""0.199"",""0.882""]","[1,1,0,1]",0,1,1,1,1,0,1,,,0,FALSE,,,,,,,,,,,,,,,,,,,,,,,,,,,,,,,
,613a6cad54616b2514089576,627c6f545f47bba070e96327,2022-05-11_21h24.32.775,classification_task,2021.2.3,Win32,60.29544769,627c6715c52fd12f31907bd0,,,,,,,,,,,,,,,,,,,,,,,l,0,1.335,"[""0.275"",""0.549"",""0.590"",""0.968""]","[1,1,0,1]",0,2,2,2,1,0,0,,,0,FALSE,,,,,,,,,,,,,,,,,,,,,,,,,,,,,,,
,613a6cad54616b2514089576,627c6f545f47bba070e96327,2022-05-11_21h24.32.775,classification_task,2021.2.3,Win32,60.29544769,627c6715c52fd12f31907bd0,,,,,,,,,,,,,,,,,,,,,,,a,0,0.7834,"[""0.127"",""0.231"",""0.641"",""0.785""]","[1,0,1,1]",0,3,3,3,1,1,0,,,0,FALSE,,,,,,,,,,,,,,,,,,,,,,,,,,,,,,,
,613a6cad54616b2514089576,627c6f545f47bba070e96327,2022-05-11_21h24.32.775,classification_task,2021.2.3,Win32,60.29544769,627c6715c52fd12f31907bd0,,,,,,,,,,,,,,,,,,,,,,,l,0,1.1663,"[""0.313"",""0.496"",""0.847"",""0.231""]","[1,1,1,0]",0,4,4,4,1,0,1,,,0,FALSE,,,,,,,,,,,,,,,,,,,,,,,,,,,,,,,
,613a6cad54616b2514089576,627c6f545f47bba070e96327,2022-05-11_21h24.32.775,classification_task,2021.2.3,Win32,60.29544769,627c6715c52fd12f31907bd0,,,,,,,,,,,,,,,,,,,,,,,l,0,0.6997,"[""0.275"",""0.688"",""0.928"",""0.968""]","[1,0,1,1]",0,5,5,5,1,0,0,,,0,FALSE,,,,,,,,,,,,,,,,,,,,,,,,,,,,,,,
,613a6cad54616b2514089576,627c6f545f47bba070e96327,2022-05-11_21h24.32.775,classification_task,2021.2.3,Win32,60.29544769,627c6715c52fd12f31907bd0,,,,,,,,,,,,,,,,,,,,,,,a,0,0.8527,"[""0.188"",""0.392"",""0.455"",""0.724""]","[0,1,1,1]",0,6,6,6,1,1,1,,,0,FALSE,,,,,,,,,,,,,,,,,,,,,,,,,,,,,,,
,613a6cad54616b2514089576,627c6f545f47bba070e96327,2022-05-11_21h24.32.775,classification_task,2021.2.3,Win32,60.29544769,627c6715c52fd12f31907bd0,,,,,,,,,,,,,,,,,,,,,,,a,0,0.5018,"[""0.075"",""0.392"",""0.455"",""0.232""]","[1,1,1,0]",0,7,7,7,1,1,1,,,0,FALSE,,,,,,,,,,,,,,,,,,,,,,,,,,,,,,,
,613a6cad54616b2514089576,627c6f545f47bba070e96327,2022-05-11_21h24.32.775,classification_task,2021.2.3,Win32,60.29544769,627c6715c52fd12f31907bd0,,,,,,,,,,,,,,,,,,,,,,,l,0,0.6991,"[""0.275"",""0.549"",""0.928"",""0.231""]","[1,1,1,0]",0,8,8,8,1,0,0,,,0,FALSE,,,,,,,,,,,,,,,,,,,,,,,,,,,,,,,
,613a6cad54616b2514089576,627c6f545f47bba070e96327,2022-05-11_21h24.32.775,classification_task,2021.2.3,Win32,60.29544769,627c6715c52fd12f31907bd0,,,,,,,,,,,,,,,,,,,,,,,a,0,0.533,"[""0.075"",""0.392"",""0.590"",""0.724""]","[1,1,0,1]",0,9,9,9,1,1,1,,,0,FALSE,,,,,,,,,,,,,,,,,,,,,,,,,,,,,,,
,613a6cad54616b2514089576,627c6f545f47bba070e96327,2022-05-11_21h24.32.775,classification_task,2021.2.3,Win32,60.29544769,627c6715c52fd12f31907bd0,,,,,,,,,,,,,,,,,,,,,,,a,0,0.9832,"[""0.127"",""0.348"",""0.686"",""0.785""]","[1,1,0,1]",0,10,10,10,1,1,0,,,0,FALSE,,,,,,,,,,,,,,,,,,,,,,,,,,,,,,,
,613a6cad54616b2514089576,627c6f545f47bba070e96327,2022-05-11_21h24.32.775,classification_task,2021.2.3,Win32,60.29544769,627c6715c52fd12f31907bd0,,,,,,,,,,,,,,,,,,,,,,,a,0,0.5,"[""0.127"",""0.348"",""0.641"",""0.599""]","[1,1,1,0]",0,11,11,11,1,1,0,,,0,FALSE,,,,,,,,,,,,,,,,,,,,,,,,,,,,,,,
,613a6cad54616b2514089576,627c6f545f47bba070e96327,2022-05-11_21h24.32.775,classification_task,2021.2.3,Win32,60.29544769,627c6715c52fd12f31907bd0,,,,,,,,,,,,,,,,,,,,,,,l,0,0.4329,"[""0.599"",""0.549"",""0.928"",""0.968""]","[0,1,1,1]",0,12,12,12,1,0,0,,,0,FALSE,,,,,,,,,,,,,,,,,,,,,,,,,,,,,,,
,613a6cad54616b2514089576,627c6f545f47bba070e96327,2022-05-11_21h24.32.775,classification_task,2021.2.3,Win32,60.29544769,627c6715c52fd12f31907bd0,,,,,,,,,,,,,,,,,,,,,,,a,0,0.6666,"[""0.232"",""0.348"",""0.641"",""0.785""]","[0,1,1,1]",0,13,13,13,1,1,0,,,0,FALSE,,,,,,,,,,,,,,,,,,,,,,,,,,,,,,,
,613a6cad54616b2514089576,627c6f545f47bba070e96327,2022-05-11_21h24.32.775,classification_task,2021.2.3,Win32,60.29544769,627c6715c52fd12f31907bd0,,,,,,,,,,,,,,,,,,,,,,,l,0,0.537,"[""0.313"",""0.585"",""0.847"",""0.882""]","[1,0,1,1]",0,14,14,14,1,0,1,,,0,FALSE,,,,,,,,,,,,,,,,,,,,,,,,,,,,,,,
,613a6cad54616b2514089576,627c6f545f47bba070e96327,2022-05-11_21h24.32.775,classification_task,2021.2.3,Win32,60.29544769,627c6715c52fd12f31907bd0,,,,,,,,,,,,,,,,,,,,,,,l,0,0.4668,"[""0.599"",""0.496"",""0.847"",""0.882""]","[0,1,1,1]",0,15,15,15,1,0,1,,,0,FALSE,,,,,,,,,,,,,,,,,,,,,,,,,,,,,,,
,613a6cad54616b2514089576,627c6f545f47bba070e96327,2022-05-11_21h24.32.775,classification_task,2021.2.3,Win32,60.29544769,627c6715c52fd12f31907bd0,,,,,,,,,,,,,,,,,,,,,,,a,0,0.7523,"[""0.127"",""0.188"",""0.641"",""0.785""]","[1,0,1,1]",0,16,16,16,1,1,0,,,0,FALSE,,,,,,,,,,,,,,,,,,,,,,,,,,,,,,,
,613a6cad54616b2514089576,627c6f545f47bba070e96327,2022-05-11_21h24.32.775,classification_task,2021.2.3,Win32,60.29544769,627c6715c52fd12f31907bd0,,,,,,,,,,,,,,,,,,,,,,,l,0,0.75,"[""0.275"",""0.549"",""0.215"",""0.968""]","[1,1,0,1]",0,17,17,17,1,0,0,,,0,FALSE,,,,,,,,,,,,,,,,,,,,,,,,,,,,,,,
,613a6cad54616b2514089576,627c6f545f47bba070e96327,2022-05-11_21h24.32.775,classification_task,2021.2.3,Win32,60.29544769,627c6715c52fd12f31907bd0,,,,,,,,,,,,,,,,,,,,,,,l,0,0.5334,"[""0.275"",""0.188"",""0.928"",""0.968""]","[1,0,1,1]",0,18,18,18,1,0,0,,,0,FALSE,,,,,,,,,,,,,,,,,,,,,,,,,,,,,,,
,613a6cad54616b2514089576,627c6f545f47bba070e96327,2022-05-11_21h24.32.775,classification_task,2021.2.3,Win32,60.29544769,627c6715c52fd12f31907bd0,,,,,,,,,,,,,,,,,,,,,,,a,1,0.7164,"[""0.313"",""0.496"",""0.585"",""0.882""]","[1,1,0,1]",0,19,19,19,1,0,1,,,0,FALSE,,,,,,,,,,,,,,,,,,,,,,,,,,,,,,,
,613a6cad54616b2514089576,627c6f545f47bba070e96327,2022-05-11_21h24.32.775,classification_task,2021.2.3,Win32,60.29544769,627c6715c52fd12f31907bd0,,,,,,,,,,,,,,,,,,,,,,,a,1,1.0998,"[""0.313"",""0.496"",""0.847"",""0.184""]","[1,1,1,0]",0,20,20,20,1,0,1,,,0,FALSE,,,,,,,,,,,,,,,,,,,,,,,,,,,,,,,
,613a6cad54616b2514089576,627c6f545f47bba070e96327,2022-05-11_21h24.32.775,classification_task,2021.2.3,Win32,60.29544769,627c6715c52fd12f31907bd0,,,,,,,,,,,,,,,,,,,,,,,l,0,0.4207,"[""0.688"",""0.496"",""0.847"",""0.882""]","[0,1,1,1]",0,21,21,21,1,0,1,,,0,FALSE,,,,,,,,,,,,,,,,,,,,,,,,,,,,,,,
,613a6cad54616b2514089576,627c6f545f47bba070e96327,2022-05-11_21h24.32.775,classification_task,2021.2.3,Win32,60.29544769,627c6715c52fd12f31907bd0,,,,,,,,,,,,,,,,,,,,,,,a,0,0.5336,"[""0.075"",""0.392"",""0.199"",""0.724""]","[1,1,0,1]",0,22,22,22,1,1,1,,,0,FALSE,,,,,,,,,,,,,,,,,,,,,,,,,,,,,,,
,613a6cad54616b2514089576,627c6f545f47bba070e96327,2022-05-11_21h24.32.775,classification_task,2021.2.3,Win32,60.29544769,627c6715c52fd12f31907bd0,,,,,,,,,,,,,,,,,,,,,,,a,0,0.9664,"[""0.215"",""0.348"",""0.641"",""0.785""]","[0,1,1,1]",0,23,23,23,1,1,0,,,0,FALSE,,,,,,,,,,,,,,,,,,,,,,,,,,,,,,,
,613a6cad54616b2514089576,627c6f545f47bba070e96327,2022-05-11_21h24.32.775,classification_task,2021.2.3,Win32,60.29544769,627c6715c52fd12f31907bd0,,,,,,,,,,,,,,,,,,,,,,,a,1,0.4001,"[""0.275"",""0.549"",""0.928"",""0.688""]","[1,1,1,0]",0,24,24,24,1,0,0,,,0,FALSE,,,,,,,,,,,,,,,,,,,,,,,,,,,,,,,
,613a6cad54616b2514089576,627c6f545f47bba070e96327,2022-05-11_21h24.32.775,classification_task,2021.2.3,Win32,60.29544769,627c6715c52fd12f31907bd0,,,,,,,,,,,,,,,,,,,,,,,a,0,0.5665,"[""0.127"",""0.348"",""0.585"",""0.785""]","[1,1,0,1]",0,25,25,25,1,1,0,,,0,FALSE,,,,,,,,,,,,,,,,,,,,,,,,,,,,,,,
,613a6cad54616b2514089576,627c6f545f47bba070e96327,2022-05-11_21h24.32.775,classification_task,2021.2.3,Win32,60.29544769,627c6715c52fd12f31907bd0,,,,,,,,,,,,,,,,,,,,,,,a,0,0.47,"[""0.127"",""0.348"",""0.641"",""0.201""]","[1,1,1,0]",0,26,26,26,1,1,0,,,0,FALSE,,,,,,,,,,,,,,,,,,,,,,,,,,,,,,,
,613a6cad54616b2514089576,627c6f545f47bba070e96327,2022-05-11_21h24.32.775,classification_task,2021.2.3,Win32,60.29544769,627c6715c52fd12f31907bd0,,,,,,,,,,,,,,,,,,,,,,,l,0,0.4168,"[""0.199"",""0.549"",""0.928"",""0.968""]","[0,1,1,1]",0,27,27,27,1,0,0,,,0,FALSE,,,,,,,,,,,,,,,,,,,,,,,,,,,,,,,
,613a6cad54616b2514089576,627c6f545f47bba070e96327,2022-05-11_21h24.32.775,classification_task,2021.2.3,Win32,60.29544769,627c6715c52fd12f31907bd0,,,,,,,,,,,,,,,,,,,,,,,a,0,0.7664,"[""0.585"",""0.392"",""0.455"",""0.724""]","[0,1,1,1]",0,28,28,28,1,1,1,,,0,FALSE,,,,,,,,,,,,,,,,,,,,,,,,,,,,,,,
,613a6cad54616b2514089576,627c6f545f47bba070e96327,2022-05-11_21h24.32.775,classification_task,2021.2.3,Win32,60.29544769,627c6715c52fd12f31907bd0,,,,,,,,,,,,,,,,,,,,,,,a,0,0.4667,"[""0.075"",""0.232"",""0.455"",""0.724""]","[1,0,1,1]",0,29,29,29,1,1,1,,,0,FALSE,,,,,,,,,,,,,,,,,,,,,,,,,,,,,,,
,613a6cad54616b2514089576,627c6f545f47bba070e96327,2022-05-11_21h24.32.775,classification_task,2021.2.3,Win32,60.29544769,627c6715c52fd12f31907bd0,,,,,,,,,,,,,,,,,,,,,,,a,0,0.7003,"[""0.075"",""0.392"",""0.455"",""0.585""]","[1,1,1,0]",0,30,30,30,1,1,1,,,0,FALSE,,,,,,,,,,,,,,,,,,,,,,,,,,,,,,,
,613a6cad54616b2514089576,627c6f545f47bba070e96327,2022-05-11_21h24.32.775,classification_task,2021.2.3,Win32,60.29544769,627c6715c52fd12f31907bd0,,,,,,,,,,,,,,,,,,,,,,,l,0,0.3832,"[""0.313"",""0.231"",""0.847"",""0.882""]","[1,0,1,1]",0,31,31,31,1,0,1,,,0,FALSE,,,,,,,,,,,,,,,,,,,,,,,,,,,,,,,
,613a6cad54616b2514089576,627c6f545f47bba070e96327,2022-05-11_21h24.32.775,classification_task,2021.2.3,Win32,60.29544769,627c6715c52fd12f31907bd0,,,,,,,,,,,,,,,,,,,,,,,a,0,0.75,"[""0.127"",""0.348"",""0.641"",""0.585""]","[1,1,1,0]",0,32,32,32,1,1,0,,,0,FALSE,,,,,,,,,,,,,,,,,,,,,,,,,,,,,,,
,613a6cad54616b2514089576,627c6f545f47bba070e96327,2022-05-11_21h24.32.775,classification_task,2021.2.3,Win32,60.29544769,627c6715c52fd12f31907bd0,,,,,,,,,,,,,,,,,,,,,,,a,0,0.8329,"[""0.127"",""0.215"",""0.641"",""0.785""]","[1,0,1,1]",0,33,33,33,1,1,0,,,0,FALSE,,,,,,,,,,,,,,,,,,,,,,,,,,,,,,,
,613a6cad54616b2514089576,627c6f545f47bba070e96327,2022-05-11_21h24.32.775,classification_task,2021.2.3,Win32,60.29544769,627c6715c52fd12f31907bd0,,,,,,,,,,,,,,,,,,,,,,,l,0,0.5994,"[""0.313"",""0.496"",""0.188"",""0.882""]","[1,1,0,1]",0,34,34,34,1,0,1,,,0,FALSE,,,,,,,,,,,,,,,,,,,,,,,,,,,,,,,
,613a6cad54616b2514089576,627c6f545f47bba070e96327,2022-05-11_21h24.32.775,classification_task,2021.2.3,Win32,60.29544769,627c6715c52fd12f31907bd0,,,,,,,,,,,,,,,,,,,,,,,l,0,0.4327,"[""0.275"",""0.201"",""0.928"",""0.968""]","[1,0,1,1]",0,35,35,35,1,0,0,,,0,FALSE,,,,,,,,,,,,,,,,,,,,,,,,,,,,,,,
,613a6cad54616b2514089576,627c6f545f47bba070e96327,2022-05-11_21h24.32.775,classification_task,2021.2.3,Win32,60.29544769,627c6715c52fd12f31907bd0,,,,,,,,,,,,,,,,,,,,,,,a,0,0.5335,"[""0.127"",""0.348"",""0.184"",""0.785""]","[1,1,0,1]",0,36,36,36,1,1,0,,,0,FALSE,,,,,,,,,,,,,,,,,,,,,,,,,,,,,,,
,613a6cad54616b2514089576,627c6f545f47bba070e96327,2022-05-11_21h24.32.775,classification_task,2021.2.3,Win32,60.29544769,627c6715c52fd12f31907bd0,,,,,,,,,,,,,,,,,,,,,,,l,0,0.5,"[""0.275"",""0.549"",""0.231"",""0.968""]","[1,1,0,1]",0,37,37,37,1,0,0,,,0,FALSE,,,,,,,,,,,,,,,,,,,,,,,,,,,,,,,
,613a6cad54616b2514089576,627c6f545f47bba070e96327,2022-05-11_21h24.32.775,classification_task,2021.2.3,Win32,60.29544769,627c6715c52fd12f31907bd0,,,,,,,,,,,,,,,,,,,,,,,a,0,0.687,"[""0.075"",""0.188"",""0.455"",""0.724""]","[1,0,1,1]",0,38,38,38,1,1,1,,,0,FALSE,,,,,,,,,,,,,,,,,,,,,,,,,,,,,,,
,613a6cad54616b2514089576,627c6f545f47bba070e96327,2022-05-11_21h24.32.775,classification_task,2021.2.3,Win32,60.29544769,627c6715c52fd12f31907bd0,,,,,,,,,,,,,,,,,,,,,,,l,0,0.6668,"[""0.275"",""0.549"",""0.928"",""0.199""]","[1,1,1,0]",0,39,39,39,1,0,0,,,0,FALSE,,,,,,,,,,,,,,,,,,,,,,,,,,,,,,,
,613a6cad54616b2514089576,627c6f545f47bba070e96327,2022-05-11_21h24.32.775,classification_task,2021.2.3,Win32,60.29544769,627c6715c52fd12f31907bd0,,,,,,,,,,,,,,,,,,,,,,,l,0,0.5876,"[""0.313"",""0.201"",""0.847"",""0.882""]","[1,0,1,1]",0,40,40,40,1,0,1,,,0,FALSE,,,,,,,,,,,,,,,,,,,,,,,,,,,,,,,
,613a6cad54616b2514089576,627c6f545f47bba070e96327,2022-05-11_21h24.32.775,classification_task,2021.2.3,Win32,60.29544769,627c6715c52fd12f31907bd0,,,,,,,,,,,,,,,,,,,,,,,l,0,0.6002,"[""0.313"",""0.496"",""0.847"",""0.585""]","[1,1,1,0]",0,41,41,41,1,0,1,,,0,FALSE,,,,,,,,,,,,,,,,,,,,,,,,,,,,,,,
,613a6cad54616b2514089576,627c6f545f47bba070e96327,2022-05-11_21h24.32.775,classification_task,2021.2.3,Win32,60.29544769,627c6715c52fd12f31907bd0,,,,,,,,,,,,,,,,,,,,,,,l,0,0.3832,"[""0.199"",""0.496"",""0.847"",""0.882""]","[0,1,1,1]",0,42,42,42,1,0,1,,,0,FALSE,,,,,,,,,,,,,,,,,,,,,,,,,,,,,,,
,613a6cad54616b2514089576,627c6f545f47bba070e96327,2022-05-11_21h24.32.775,classification_task,2021.2.3,Win32,60.29544769,627c6715c52fd12f31907bd0,,,,,,,,,,,,,,,,,,,,,,,l,0,0.5546,"[""0.184"",""0.549"",""0.928"",""0.968""]","[0,1,1,1]",0,43,43,43,1,0,0,,,0,FALSE,,,,,,,,,,,,,,,,,,,,,,,,,,,,,,,
,613a6cad54616b2514089576,627c6f545f47bba070e96327,2022-05-11_21h24.32.775,classification_task,2021.2.3,Win32,60.29544769,627c6715c52fd12f31907bd0,,,,,,,,,,,,,,,,,,,,,,,a,0,0.4855,"[""0.075"",""0.392"",""0.215"",""0.724""]","[1,1,0,1]",0,44,44,44,1,1,1,,,0,FALSE,,,,,,,,,,,,,,,,,,,,,,,,,,,,,,,
,613a6cad54616b2514089576,627c6f545f47bba070e96327,2022-05-11_21h24.32.775,classification_task,2021.2.3,Win32,60.29544769,627c6715c52fd12f31907bd0,,,,,,,,,,,,,,,,,,,,,,,a,0,0.5333,"[""0.231"",""0.348"",""0.641"",""0.785""]","[0,1,1,1]",0,45,45,45,1,1,0,,,0,FALSE,,,,,,,,,,,,,,,,,,,,,,,,,,,,,,,
,613a6cad54616b2514089576,627c6f545f47bba070e96327,2022-05-11_21h24.32.775,classification_task,2021.2.3,Win32,60.29544769,627c6715c52fd12f31907bd0,,,,,,,,,,,,,,,,,,,,,,,a,0,0.5328,"[""0.188"",""0.392"",""0.455"",""0.724""]","[0,1,1,1]",0,46,46,46,1,1,1,,,0,FALSE,,,,,,,,,,,,,,,,,,,,,,,,,,,,,,,
,613a6cad54616b2514089576,627c6f545f47bba070e96327,2022-05-11_21h24.32.775,classification_task,2021.2.3,Win32,60.29544769,627c6715c52fd12f31907bd0,,,,,,,,,,,,,,,,,,,,,,,a,0,0.4001,"[""0.075"",""0.392"",""0.455"",""0.199""]","[1,1,1,0]",0,47,47,47,1,1,1,,,0,FALSE,,,,,,,,,,,,,,,,,,,,,,,,,,,,,,,
,613a6cad54616b2514089576,627c6f545f47bba070e96327,2022-05-11_21h24.32.775,classification_task,2021.2.3,Win32,60.29544769,627c6715c52fd12f31907bd0,,,,,,,,,,,,,,,,,,,,,,,l,1,0.4503,"[""0.127"",""0.348"",""0.641"",""0.585""]","[1,1,1,0]",0,48,48,48,1,1,0,,,0,FALSE,,,,,,,,,,,,,,,,,,,,,,,,,,,,,,,
,613a6cad54616b2514089576,627c6f545f47bba070e96327,2022-05-11_21h24.32.775,classification_task,2021.2.3,Win32,60.29544769,627c6715c52fd12f31907bd0,,,,,,,,,,,,,,,,,,,,,,,l,0,0.6383,"[""0.313"",""0.496"",""0.199"",""0.882""]","[1,1,0,1]",0,49,49,49,1,0,1,,,0,FALSE,,,,,,,,,,,,,,,,,,,,,,,,,,,,,,,
,613a6cad54616b2514089576,627c6f545f47bba070e96327,2022-05-11_21h24.32.775,classification_task,2021.2.3,Win32,60.29544769,627c6715c52fd12f31907bd0,,,,,,,,,,,,,,,,,,,,,,,a,0,0.5001,"[""0.127"",""0.232"",""0.641"",""0.785""]","[1,0,1,1]",0,50,50,50,1,1,0,,,0,FALSE,,,,,,,,,,,,,,,,,,,,,,,,,,,,,,,
,613a6cad54616b2514089576,627c6f545f47bba070e96327,2022-05-11_21h24.32.775,classification_task,2021.2.3,Win32,60.29544769,627c6715c52fd12f31907bd0,,,,,,,,,,,,,,,,,,,,,,,a,1,1.4662,"[""0.313"",""0.496"",""0.847"",""0.232""]","[1,1,1,0]",0,51,51,51,1,0,1,,,0,FALSE,,,,,,,,,,,,,,,,,,,,,,,,,,,,,,,
,613a6cad54616b2514089576,627c6f545f47bba070e96327,2022-05-11_21h24.32.775,classification_task,2021.2.3,Win32,60.29544769,627c6715c52fd12f31907bd0,,,,,,,,,,,,,,,,,,,,,,,a,0,2.9884,"[""0.201"",""0.392"",""0.455"",""0.724""]","[0,1,1,1]",0,52,52,52,1,1,1,,,0,FALSE,,,,,,,,,,,,,,,,,,,,,,,,,,,,,,,
,613a6cad54616b2514089576,627c6f545f47bba070e96327,2022-05-11_21h24.32.775,classification_task,2021.2.3,Win32,60.29544769,627c6715c52fd12f31907bd0,,,,,,,,,,,,,,,,,,,,,,,a,0,0.6476,"[""0.127"",""0.348"",""0.188"",""0.785""]","[1,1,0,1]",0,53,53,53,1,1,0,,,0,FALSE,,,,,,,,,,,,,,,,,,,,,,,,,,,,,,,
,613a6cad54616b2514089576,627c6f545f47bba070e96327,2022-05-11_21h24.32.775,classification_task,2021.2.3,Win32,60.29544769,627c6715c52fd12f31907bd0,,,,,,,,,,,,,,,,,,,,,,,l,0,1.7679,"[""0.275"",""0.188"",""0.928"",""0.968""]","[1,0,1,1]",0,54,54,54,1,0,0,,,0,FALSE,,,,,,,,,,,,,,,,,,,,,,,,,,,,,,,
,613a6cad54616b2514089576,627c6f545f47bba070e96327,2022-05-11_21h24.32.775,classification_task,2021.2.3,Win32,60.29544769,627c6715c52fd12f31907bd0,,,,,,,,,,,,,,,,,,,,,,,l,0,0.6832,"[""0.231"",""0.496"",""0.847"",""0.882""]","[0,1,1,1]",0,55,55,55,1,0,1,,,0,FALSE,,,,,,,,,,,,,,,,,,,,,,,,,,,,,,,
,613a6cad54616b2514089576,627c6f545f47bba070e96327,2022-05-11_21h24.32.775,classification_task,2021.2.3,Win32,60.29544769,627c6715c52fd12f31907bd0,,,,,,,,,,,,,,,,,,,,,,,l,0,0.8881,"[""0.688"",""0.549"",""0.928"",""0.968""]","[0,1,1,1]",0,56,56,56,1,0,0,,,0,FALSE,,,,,,,,,,,,,,,,,,,,,,,,,,,,,,,
,613a6cad54616b2514089576,627c6f545f47bba070e96327,2022-05-11_21h24.32.775,classification_task,2021.2.3,Win32,60.29544769,627c6715c52fd12f31907bd0,,,,,,,,,,,,,,,,,,,,,,,a,0,2.8534,"[""0.075"",""0.392"",""0.599"",""0.724""]","[1,1,0,1]",0,57,57,57,1,1,1,,,0,FALSE,,,,,,,,,,,,,,,,,,,,,,,,,,,,,,,
,613a6cad54616b2514089576,627c6f545f47bba070e96327,2022-05-11_21h24.32.775,classification_task,2021.2.3,Win32,60.29544769,627c6715c52fd12f31907bd0,,,,,,,,,,,,,,,,,,,,,,,l,0,0.6333,"[""0.313"",""0.215"",""0.847"",""0.882""]","[1,0,1,1]",0,58,58,58,1,0,1,,,0,FALSE,,,,,,,,,,,,,,,,,,,,,,,,,,,,,,,
,613a6cad54616b2514089576,627c6f545f47bba070e96327,2022-05-11_21h24.32.775,classification_task,2021.2.3,Win32,60.29544769,627c6715c52fd12f31907bd0,,,,,,,,,,,,,,,,,,,,,,,a,0,0.6665,"[""0.075"",""0.585"",""0.455"",""0.724""]","[1,0,1,1]",0,59,59,59,1,1,1,,,0,FALSE,,,,,,,,,,,,,,,,,,,,,,,,,,,,,,,
,613a6cad54616b2514089576,627c6f545f47bba070e96327,2022-05-11_21h24.32.775,classification_task,2021.2.3,Win32,60.29544769,627c6715c52fd12f31907bd0,,,,,,,,,,,,,,,,,,,,,,,l,0,1.0205,"[""0.275"",""0.549"",""0.928"",""0.231""]","[1,1,1,0]",0,60,60,60,1,0,0,,,0,FALSE,,,,,,,,,,,,,,,,,,,,,,,,,,,,,,,
,613a6cad54616b2514089576,627c6f545f47bba070e96327,2022-05-11_21h24.32.775,classification_task,2021.2.3,Win32,60.29544769,627c6715c52fd12f31907bd0,,,,,,,,,,,,,,,,,,,,,,,a,0,0.5836,"[""0.075"",""0.392"",""0.455"",""0.688""]","[1,1,1,0]",0,61,61,61,1,1,1,,,0,FALSE,,,,,,,,,,,,,,,,,,,,,,,,,,,,,,,
,613a6cad54616b2514089576,627c6f545f47bba070e96327,2022-05-11_21h24.32.775,classification_task,2021.2.3,Win32,60.29544769,627c6715c52fd12f31907bd0,,,,,,,,,,,,,,,,,,,,,,,a,0,0.466,"[""0.199"",""0.348"",""0.641"",""0.785""]","[0,1,1,1]",0,62,62,62,1,1,0,,,0,FALSE,,,,,,,,,,,,,,,,,,,,,,,,,,,,,,,
,613a6cad54616b2514089576,627c6f545f47bba070e96327,2022-05-11_21h24.32.775,classification_task,2021.2.3,Win32,60.29544769,627c6715c52fd12f31907bd0,,,,,,,,,,,,,,,,,,,,,,,l,0,0.6517,"[""0.275"",""0.549"",""0.231"",""0.968""]","[1,1,0,1]",0,63,63,63,1,0,0,,,0,FALSE,,,,,,,,,,,,,,,,,,,,,,,,,,,,,,,
,613a6cad54616b2514089576,627c6f545f47bba070e96327,2022-05-11_21h24.32.775,classification_task,2021.2.3,Win32,60.29544769,627c6715c52fd12f31907bd0,,,,,,,,,,,,,,,,,,,,,,,,,,,,,,,,,,,,,,,0, ,,0,9.16620684,132.5909,0,2,2,2,1,2,3,,,,,,,,,,,,,,,,,,
,613a6cad54616b2514089576,627c6f545f47bba070e96327,2022-05-11_21h24.32.775,classification_task,2021.2.3,Win32,60.29544769,627c6715c52fd12f31907bd0,,,,,,,,,,,,,,,,,,,,,,,,,,,,,,,,,,,,,,,1,  ,,0,10,134.1262,0,2,2,2,1,2,3,,,,,,,,,,,,,,,,,,
,613a6cad54616b2514089576,627c6f545f47bba070e96327,2022-05-11_21h24.32.775,classification_task,2021.2.3,Win32,60.29544769,627c6715c52fd12f31907bd0,,,,,,,,,,,,,,,,,,,,,,,,,,,,,,,,,,,,,,,2,  ,,0,9.411113703,135.4236,0,2,2,2,1,2,3,,,,,,,,,,,,,,,,,,
,613a6cad54616b2514089576,627c6f545f47bba070e96327,2022-05-11_21h24.32.775,classification_task,2021.2.3,Win32,60.29544769,627c6715c52fd12f31907bd0,,,,,,,,,,,,,,,,,,,,,,,,,,,,,,,,,,,,,,,,,,,,,0,2,2,2,1,,3,,,,,,,,,,,,,,,,,,
,613a6cad54616b2514089576,627c6f545f47bba070e96327,2022-05-11_21h24.32.775,classification_task,2021.2.3,Win32,60.29544769,627c6715c52fd12f31907bd0,,,,,,,,,,,,,,,,,,,,,,,,,,,,,,,,,,,,,,,,,,,,,,,,,,,,,I believe the aid is a competent performer,,0.7,0,3,913.7529,0,0,0,0,1,0,,,,,
,613a6cad54616b2514089576,627c6f545f47bba070e96327,2022-05-11_21h24.32.775,classification_task,2021.2.3,Win32,60.29544769,627c6715c52fd12f31907bd0,,,,,,,,,,,,,,,,,,,,,,,,,,,,,,,,,,,,,,,,,,,,,,,,,,,,,I trust the aid,,0.7,0,4,915.4892,0,0,0,0,1,0,,,,,
,613a6cad54616b2514089576,627c6f545f47bba070e96327,2022-05-11_21h24.32.775,classification_task,2021.2.3,Win32,60.29544769,627c6715c52fd12f31907bd0,,,,,,,,,,,,,,,,,,,,,,,,,,,,,,,,,,,,,,,,,,,,,,,,,,,,,I have confidence in the advice given by the aid,,0.7,0,4,918.5644,0,0,0,0,1,0,,,,,
,613a6cad54616b2514089576,627c6f545f47bba070e96327,2022-05-11_21h24.32.775,classification_task,2021.2.3,Win32,60.29544769,627c6715c52fd12f31907bd0,,,,,,,,,,,,,,,,,,,,,,,,,,,,,,,,,,,,,,,,,,,,,,,,,,,,,I can depend on the aid,,0.7,0,3,920.3337,0,0,0,0,1,0,,,,,
,613a6cad54616b2514089576,627c6f545f47bba070e96327,2022-05-11_21h24.32.775,classification_task,2021.2.3,Win32,60.29544769,627c6715c52fd12f31907bd0,,,,,,,,,,,,,,,,,,,,,,,,,,,,,,,,,,,,,,,,,,,,,,,,,,,,,I can rely on the aid to behave in consistent ways,,0.7,0,4,922.5816,0,0,0,0,1,0,,,,,
,613a6cad54616b2514089576,627c6f545f47bba070e96327,2022-05-11_21h24.32.775,classification_task,2021.2.3,Win32,60.29544769,627c6715c52fd12f31907bd0,,,,,,,,,,,,,,,,,,,,,,,,,,,,,,,,,,,,,,,,,,,,,,,,,,,,,I can rely on the aid to do its best every time I take its advice,,0.7,0,4,925.725,0,0,0,0,1,0,,,,,
,613a6cad54616b2514089576,627c6f545f47bba070e96327,2022-05-11_21h24.32.775,classification_task,2021.2.3,Win32,60.29544769,627c6715c52fd12f31907bd0,,,,,,,,,,,,,,,,,,,,,,,,,,,,,,,,,,,,,,,,,,,,,,,,,,,,,"On trials you completed with assistance from the aid, how frequently did you think the aid was correct?",,0.7,0,60%,,0,0,0,0,1,0,,,,,
,613a6cad54616b2514089576,627c6f545f47bba070e96327,2022-05-11_21h24.32.775,classification_task,2021.2.3,Win32,60.29544769,627c6715c52fd12f31907bd0,,,,,,,,,,,,,,,,,,,,,,,,,,,,,,,,,,,,,,,,,,,,,,,,,,,,,"On trials you completed without the aid, how frequently did you think you were correct?",,0.7,0,40%,,0,0,0,0,1,0,,,,,
,613a6cad54616b2514089576,627c6f545f47bba070e96327,2022-05-11_21h24.32.775,classification_task,2021.2.3,Win32,60.29544769,627c6715c52fd12f31907bd0,,,,,,,,,,,,,,,,,,,,,,,,,,,,,,,,,,,,,,,,,,,,,,,,,,,,,,,,,,,0,0,0,0,1,,,,,,
,613a6cad54616b2514089576,627c6f545f47bba070e96327,2022-05-11_21h24.32.775,classification_task,2021.2.3,Win32,60.29544769,627c6715c52fd12f31907bd0,,,,,,,,,,,,,,,,,,,,,,,,,,,,,,,,,,,,,,,,,,,,,,,,,,,,,,,,,,,,,,,,,space,12.7359,961.0701,,
,613a6cad54616b2514089576,627c6f545f47bba070e96327,2022-05-11_21h24.32.775,classification_task,2021.2.3,Win32,60.29544769,627c6715c52fd12f31907bd0,,,,,,,,,,,,,,,,,,,,,,,,,,,,,,,,,,,,,,,,,,,,,,,,,,,,,,,,,,,,,,,,,,,,"Mozilla/5.0 (Windows NT 10.0; Win64; x64) AppleWebKit/537.36 (KHTML, like Gecko) Chrome/101.0.4951.54 Safari/537.36",
,613a6cad54616b2514089576,627c6f545f47bba070e96327,2022-05-11_21h24.32.775,classification_task,2021.2.3,Win32,60.29544769,627c6715c52fd12f31907bd0,,,,,,,,,,,,,,,,,,,,,,,,,,,,,,,,,,,,,,,,,,,,,,,,,,,,,,,,,,,,,,,,,,,,,FADING
