usingWebGL,participant,session,date,expName,psychopyVersion,OS,frameRate,study_id,signatures_friend,signatures_foe,band_ranges_top,band_ranges_bottom,formitemText,formtype,formundefined,formitemWidth,formindex,formresponse,formrt,key_resp_2.keys,key_resp_2.rt,tute_resp.keys,tute_resp.rt,tutorial.thisRepN,tutorial.thisTrialN,tutorial.thisN,tutorial.thisIndex,tutorial.ran,key_resp_4.keys,key_resp_4.rt,key_resp.keys,key_resp.corr,lines_presented,is_signal_presented,trials.thisRepN,trials.thisTrialN,trials.thisN,trials.thisIndex,trials.ran,vessel,active_band,lines,is_signal,supported_pos,catch_trial,key_resp.rt,debrief_formindex,debrief_formitemText,debrief_formtype,debrief_formitemWidth,debrief_formresponse,debrief_formrt,phases.thisRepN,phases.thisTrialN,phases.thisN,phases.thisIndex,phases.ran,phases.order,phase,key_resp_3.keys,trustitemText,trusttype,trustitemWidth,trustindex,trustresponse,trustrt,support_status.thisRepN,support_status.thisTrialN,support_status.thisN,support_status.thisIndex,support_status.ran,support_status.order,key_resp_5.keys,key_resp_5.rt,globalClockTime,userAgent,manualCondition
TRUE,613a86d8c415990ab17ad4d3,627c676016f9dec1b2e31be1,2022-05-11_20h48.40.226,classification_task,2021.2.3,Win32,75.0131273,627c6715c52fd12f31907bcf,,,,,,,,,,,,,,,,,,,,,,,,,,,,,,,,,,,,,,,,,,,,,,,,,,,,,,,,,,,,,,,,,,,,,
,613a86d8c415990ab17ad4d3,627c676016f9dec1b2e31be1,2022-05-11_20h48.40.226,classification_task,2021.2.3,Win32,75.0131273,627c6715c52fd12f31907bcf,"[[""0.292"",""0.381"",""0.613"",""0.949""],[""0.196"",""0.486"",""0.846"",""0.881""]]","[[""0.077"",""0.238"",""0.551"",""0.782""],[""0.123"",""0.330"",""0.452"",""0.703""]]","[1,10]","[100,1000]",Video game experience,,,0.7,0,,,,,,,,,,,,,,,,,,,,,,,,,,,,,,,,,,,,,,,,,,,,,,,,,,,,,,,,,,,,
,613a86d8c415990ab17ad4d3,627c676016f9dec1b2e31be1,2022-05-11_20h48.40.226,classification_task,2021.2.3,Win32,75.0131273,627c6715c52fd12f31907bcf,,,,,Approximately how many hours did you spend playing video games in the last week?,,,0.7,0,3,,,,,,,,,,,,,,,,,,,,,,,,,,,,,,,,,,,,,,,,,,,,,,,,,,,,,,,,,,,
,613a86d8c415990ab17ad4d3,627c676016f9dec1b2e31be1,2022-05-11_20h48.40.226,classification_task,2021.2.3,Win32,75.0131273,627c6715c52fd12f31907bcf,,,,,"Which game did you play the most this year? (Enter ""None"" if you didn't play any)",,,0.7,0,Fortnite,,,,,,,,,,,,,,,,,,,,,,,,,,,,,,,,,,,,,,,,,,,,,,,,,,,,,,,,,,,
,613a86d8c415990ab17ad4d3,627c676016f9dec1b2e31be1,2022-05-11_20h48.40.226,classification_task,2021.2.3,Win32,75.0131273,627c6715c52fd12f31907bcf,,,,,Visual perception,,,0.7,0,,,,,,,,,,,,,,,,,,,,,,,,,,,,,,,,,,,,,,,,,,,,,,,,,,,,,,,,,,,,
,613a86d8c415990ab17ad4d3,627c676016f9dec1b2e31be1,2022-05-11_20h48.40.226,classification_task,2021.2.3,Win32,75.0131273,627c6715c52fd12f31907bcf,,,,,Do you have any form of color blindness?,,,0.7,0,No,18.1643,,,,,,,,,,,,,,,,,,,,,,,,,,,,,,,,,,,,,,,,,,,,,,,,,,,,,,,,,,
,613a86d8c415990ab17ad4d3,627c676016f9dec1b2e31be1,2022-05-11_20h48.40.226,classification_task,2021.2.3,Win32,75.0131273,627c6715c52fd12f31907bcf,,,,,Do you use software to change the colour temperature of your screen (e.g. f.lux)?,,,0.7,0,No,19.8022,,,,,,,,,,,,,,,,,,,,,,,,,,,,,,,,,,,,,,,,,,,,,,,,,,,,,,,,,,
,613a86d8c415990ab17ad4d3,627c676016f9dec1b2e31be1,2022-05-11_20h48.40.226,classification_task,2021.2.3,Win32,75.0131273,627c6715c52fd12f31907bcf,,,,,,,,,,,,space,21.0144,space,5.8363,0,0,0,0,1,,,,,,,,,,,,,,,,,,,,,,,,,,,,,,,,,,,,,,,,,,,,,,,,,
,613a86d8c415990ab17ad4d3,627c676016f9dec1b2e31be1,2022-05-11_20h48.40.226,classification_task,2021.2.3,Win32,75.0131273,627c6715c52fd12f31907bcf,,,,,,,,,,,,,,space,6.3911,1,0,1,0,1,,,,,,,,,,,,,,,,,,,,,,,,,,,,,,,,,,,,,,,,,,,,,,,,,
,613a86d8c415990ab17ad4d3,627c676016f9dec1b2e31be1,2022-05-11_20h48.40.226,classification_task,2021.2.3,Win32,75.0131273,627c6715c52fd12f31907bcf,,,,,,,,,,,,,,space,14.6015,2,0,2,0,1,,,,,,,,,,,,,,,,,,,,,,,,,,,,,,,,,,,,,,,,,,,,,,,,,
,613a86d8c415990ab17ad4d3,627c676016f9dec1b2e31be1,2022-05-11_20h48.40.226,classification_task,2021.2.3,Win32,75.0131273,627c6715c52fd12f31907bcf,,,,,,,,,,,,,,space,19.2537,3,0,3,0,1,,,,,,,,,,,,,,,,,,,,,,,,,,,,,,,,,,,,,,,,,,,,,,,,,
,613a86d8c415990ab17ad4d3,627c676016f9dec1b2e31be1,2022-05-11_20h48.40.226,classification_task,2021.2.3,Win32,75.0131273,627c6715c52fd12f31907bcf,,,,,,,,,,,,,,space,10.9564,4,0,4,0,1,,,,,,,,,,,,,,,,,,,,,,,,,,,,,,,,,,,,,,,,,,,,,,,,,
,613a86d8c415990ab17ad4d3,627c676016f9dec1b2e31be1,2022-05-11_20h48.40.226,classification_task,2021.2.3,Win32,75.0131273,627c6715c52fd12f31907bcf,,,,,,,,,,,,,,,,,,,,,space,14.9736,,0,"[""0.196"",""0.647"",""0.846"",""0.881""]","[1,0,1,1]",0,0,0,0,1,0,1,,,1,FALSE,,,,,,,,,,,,,,,,,,,,,,,,,,,,,,,,
,613a86d8c415990ab17ad4d3,627c676016f9dec1b2e31be1,2022-05-11_20h48.40.226,classification_task,2021.2.3,Win32,75.0131273,627c6715c52fd12f31907bcf,,,,,,,,,,,,,,,,,,,,,,,a,1,"[""0.028"",""0.486"",""0.846"",""0.881""]","[0,1,1,1]",0,1,1,1,1,0,1,,,1,FALSE,7.9225,,,,,,,,,,,,,,,,,,,,,,,,,,,,,,,
,613a86d8c415990ab17ad4d3,627c676016f9dec1b2e31be1,2022-05-11_20h48.40.226,classification_task,2021.2.3,Win32,75.0131273,627c6715c52fd12f31907bcf,,,,,,,,,,,,,,,,,,,,,,,a,1,"[""0.292"",""0.162"",""0.613"",""0.949""]","[1,0,1,1]",0,2,2,2,1,0,0,,,1,FALSE,8.632,,,,,,,,,,,,,,,,,,,,,,,,,,,,,,,
,613a86d8c415990ab17ad4d3,627c676016f9dec1b2e31be1,2022-05-11_20h48.40.226,classification_task,2021.2.3,Win32,75.0131273,627c6715c52fd12f31907bcf,,,,,,,,,,,,,,,,,,,,,,,a,1,"[""0.292"",""0.381"",""0.613"",""0.657""]","[1,1,1,0]",0,3,3,3,1,0,0,,,1,FALSE,8.6849,,,,,,,,,,,,,,,,,,,,,,,,,,,,,,,
,613a86d8c415990ab17ad4d3,627c676016f9dec1b2e31be1,2022-05-11_20h48.40.226,classification_task,2021.2.3,Win32,75.0131273,627c6715c52fd12f31907bcf,,,,,,,,,,,,,,,,,,,,,,,l,1,"[""0.158"",""0.330"",""0.452"",""0.703""]","[0,1,1,1]",0,4,4,4,1,1,1,,,1,FALSE,5.4839,,,,,,,,,,,,,,,,,,,,,,,,,,,,,,,
,613a86d8c415990ab17ad4d3,627c676016f9dec1b2e31be1,2022-05-11_20h48.40.226,classification_task,2021.2.3,Win32,75.0131273,627c6715c52fd12f31907bcf,,,,,,,,,,,,,,,,,,,,,,,l,1,"[""0.123"",""0.330"",""0.452"",""0.657""]","[1,1,1,0]",0,5,5,5,1,1,1,,,1,FALSE,8.6819,,,,,,,,,,,,,,,,,,,,,,,,,,,,,,,
,613a86d8c415990ab17ad4d3,627c676016f9dec1b2e31be1,2022-05-11_20h48.40.226,classification_task,2021.2.3,Win32,75.0131273,627c6715c52fd12f31907bcf,,,,,,,,,,,,,,,,,,,,,,,a,1,"[""0.746"",""0.381"",""0.613"",""0.949""]","[0,1,1,1]",0,6,6,6,1,0,0,,,1,FALSE,9.3467,,,,,,,,,,,,,,,,,,,,,,,,,,,,,,,
,613a86d8c415990ab17ad4d3,627c676016f9dec1b2e31be1,2022-05-11_20h48.40.226,classification_task,2021.2.3,Win32,75.0131273,627c6715c52fd12f31907bcf,,,,,,,,,,,,,,,,,,,,,,,l,1,"[""0.656"",""0.238"",""0.551"",""0.782""]","[0,1,1,1]",0,7,7,7,1,1,0,,,1,FALSE,7.9944,,,,,,,,,,,,,,,,,,,,,,,,,,,,,,,
,613a86d8c415990ab17ad4d3,627c676016f9dec1b2e31be1,2022-05-11_20h48.40.226,classification_task,2021.2.3,Win32,75.0131273,627c6715c52fd12f31907bcf,,,,,,,,,,,,,,,,,,,,,,,l,1,"[""0.123"",""0.656"",""0.452"",""0.703""]","[1,0,1,1]",0,8,8,8,1,1,1,,,1,FALSE,7.1949,,,,,,,,,,,,,,,,,,,,,,,,,,,,,,,
,613a86d8c415990ab17ad4d3,627c676016f9dec1b2e31be1,2022-05-11_20h48.40.226,classification_task,2021.2.3,Win32,75.0131273,627c6715c52fd12f31907bcf,,,,,,,,,,,,,,,,,,,,,,,l,1,"[""0.077"",""0.238"",""0.656"",""0.782""]","[1,1,0,1]",0,9,9,9,1,1,0,,,1,FALSE,6.0902,,,,,,,,,,,,,,,,,,,,,,,,,,,,,,,
,613a86d8c415990ab17ad4d3,627c676016f9dec1b2e31be1,2022-05-11_20h48.40.226,classification_task,2021.2.3,Win32,75.0131273,627c6715c52fd12f31907bcf,,,,,,,,,,,,,,,,,,,,,,,a,1,"[""0.292"",""0.381"",""0.744"",""0.949""]","[1,1,0,1]",0,10,10,10,1,0,0,,,1,FALSE,6.26,,,,,,,,,,,,,,,,,,,,,,,,,,,,,,,
,613a86d8c415990ab17ad4d3,627c676016f9dec1b2e31be1,2022-05-11_20h48.40.226,classification_task,2021.2.3,Win32,75.0131273,627c6715c52fd12f31907bcf,,,,,,,,,,,,,,,,,,,,,,,l,1,"[""0.077"",""0.238"",""0.551"",""0.160""]","[1,1,1,0]",0,11,11,11,1,1,0,,,1,FALSE,5.8084,,,,,,,,,,,,,,,,,,,,,,,,,,,,,,,
,613a86d8c415990ab17ad4d3,627c676016f9dec1b2e31be1,2022-05-11_20h48.40.226,classification_task,2021.2.3,Win32,75.0131273,627c6715c52fd12f31907bcf,,,,,,,,,,,,,,,,,,,,,,,l,1,"[""0.123"",""0.330"",""0.028"",""0.703""]","[1,1,0,1]",0,12,12,12,1,1,1,,,1,FALSE,5.8537,,,,,,,,,,,,,,,,,,,,,,,,,,,,,,,
,613a86d8c415990ab17ad4d3,627c676016f9dec1b2e31be1,2022-05-11_20h48.40.226,classification_task,2021.2.3,Win32,75.0131273,627c6715c52fd12f31907bcf,,,,,,,,,,,,,,,,,,,,,,,a,1,"[""0.196"",""0.486"",""0.846"",""0.158""]","[1,1,1,0]",0,13,13,13,1,0,1,,,1,FALSE,5.7284,,,,,,,,,,,,,,,,,,,,,,,,,,,,,,,
,613a86d8c415990ab17ad4d3,627c676016f9dec1b2e31be1,2022-05-11_20h48.40.226,classification_task,2021.2.3,Win32,75.0131273,627c6715c52fd12f31907bcf,,,,,,,,,,,,,,,,,,,,,,,a,1,"[""0.196"",""0.486"",""0.028"",""0.881""]","[1,1,0,1]",0,14,14,14,1,0,1,,,1,FALSE,6.1027,,,,,,,,,,,,,,,,,,,,,,,,,,,,,,,
,613a86d8c415990ab17ad4d3,627c676016f9dec1b2e31be1,2022-05-11_20h48.40.226,classification_task,2021.2.3,Win32,75.0131273,627c6715c52fd12f31907bcf,,,,,,,,,,,,,,,,,,,,,,,a,0,"[""0.077"",""0.027"",""0.551"",""0.782""]","[1,0,1,1]",0,15,15,15,1,1,0,,,1,FALSE,5.262,,,,,,,,,,,,,,,,,,,,,,,,,,,,,,,
,613a86d8c415990ab17ad4d3,627c676016f9dec1b2e31be1,2022-05-11_20h48.40.226,classification_task,2021.2.3,Win32,75.0131273,627c6715c52fd12f31907bcf,,,,,,,,,,,,,,,,,,,,,,,a,1,"[""0.658"",""0.381"",""0.613"",""0.949""]","[0,1,1,1]",0,16,16,16,1,0,0,,,1,FALSE,5.3601,,,,,,,,,,,,,,,,,,,,,,,,,,,,,,,
,613a86d8c415990ab17ad4d3,627c676016f9dec1b2e31be1,2022-05-11_20h48.40.226,classification_task,2021.2.3,Win32,75.0131273,627c6715c52fd12f31907bcf,,,,,,,,,,,,,,,,,,,,,,,a,1,"[""0.196"",""0.486"",""0.846"",""0.160""]","[1,1,1,0]",0,17,17,17,1,0,1,,,1,FALSE,6.5292,,,,,,,,,,,,,,,,,,,,,,,,,,,,,,,
,613a86d8c415990ab17ad4d3,627c676016f9dec1b2e31be1,2022-05-11_20h48.40.226,classification_task,2021.2.3,Win32,75.0131273,627c6715c52fd12f31907bcf,,,,,,,,,,,,,,,,,,,,,,,a,1,"[""0.196"",""0.486"",""0.159"",""0.881""]","[1,1,0,1]",0,18,18,18,1,0,1,,,1,FALSE,5.3291,,,,,,,,,,,,,,,,,,,,,,,,,,,,,,,
,613a86d8c415990ab17ad4d3,627c676016f9dec1b2e31be1,2022-05-11_20h48.40.226,classification_task,2021.2.3,Win32,75.0131273,627c6715c52fd12f31907bcf,,,,,,,,,,,,,,,,,,,,,,,l,1,"[""0.077"",""0.238"",""0.647"",""0.782""]","[1,1,0,1]",0,19,19,19,1,1,0,,,1,FALSE,3.4969,,,,,,,,,,,,,,,,,,,,,,,,,,,,,,,
,613a86d8c415990ab17ad4d3,627c676016f9dec1b2e31be1,2022-05-11_20h48.40.226,classification_task,2021.2.3,Win32,75.0131273,627c6715c52fd12f31907bcf,,,,,,,,,,,,,,,,,,,,,,,l,1,"[""0.077"",""0.238"",""0.551"",""0.028""]","[1,1,1,0]",0,20,20,20,1,1,0,,,1,FALSE,4.4081,,,,,,,,,,,,,,,,,,,,,,,,,,,,,,,
,613a86d8c415990ab17ad4d3,627c676016f9dec1b2e31be1,2022-05-11_20h48.40.226,classification_task,2021.2.3,Win32,75.0131273,627c6715c52fd12f31907bcf,,,,,,,,,,,,,,,,,,,,,,,a,1,"[""0.196"",""0.651"",""0.846"",""0.881""]","[1,0,1,1]",0,21,21,21,1,0,1,,,1,FALSE,6.6122,,,,,,,,,,,,,,,,,,,,,,,,,,,,,,,
,613a86d8c415990ab17ad4d3,627c676016f9dec1b2e31be1,2022-05-11_20h48.40.226,classification_task,2021.2.3,Win32,75.0131273,627c6715c52fd12f31907bcf,,,,,,,,,,,,,,,,,,,,,,,a,1,"[""0.292"",""0.381"",""0.613"",""0.028""]","[1,1,1,0]",0,22,22,22,1,0,0,,,1,FALSE,8.315,,,,,,,,,,,,,,,,,,,,,,,,,,,,,,,
,613a86d8c415990ab17ad4d3,627c676016f9dec1b2e31be1,2022-05-11_20h48.40.226,classification_task,2021.2.3,Win32,75.0131273,627c6715c52fd12f31907bcf,,,,,,,,,,,,,,,,,,,,,,,a,1,"[""0.292"",""0.381"",""0.657"",""0.949""]","[1,1,0,1]",0,23,23,23,1,0,0,,,1,FALSE,6.6138,,,,,,,,,,,,,,,,,,,,,,,,,,,,,,,
,613a86d8c415990ab17ad4d3,627c676016f9dec1b2e31be1,2022-05-11_20h48.40.226,classification_task,2021.2.3,Win32,75.0131273,627c6715c52fd12f31907bcf,,,,,,,,,,,,,,,,,,,,,,,l,1,"[""0.123"",""0.330"",""0.744"",""0.703""]","[1,1,0,1]",0,24,24,24,1,1,1,,,1,FALSE,6.121,,,,,,,,,,,,,,,,,,,,,,,,,,,,,,,
,613a86d8c415990ab17ad4d3,627c676016f9dec1b2e31be1,2022-05-11_20h48.40.226,classification_task,2021.2.3,Win32,75.0131273,627c6715c52fd12f31907bcf,,,,,,,,,,,,,,,,,,,,,,,a,0,"[""0.123"",""0.330"",""0.452"",""0.160""]","[1,1,1,0]",0,25,25,25,1,1,1,,,1,FALSE,6.1857,,,,,,,,,,,,,,,,,,,,,,,,,,,,,,,
,613a86d8c415990ab17ad4d3,627c676016f9dec1b2e31be1,2022-05-11_20h48.40.226,classification_task,2021.2.3,Win32,75.0131273,627c6715c52fd12f31907bcf,,,,,,,,,,,,,,,,,,,,,,,l,1,"[""0.160"",""0.330"",""0.452"",""0.703""]","[0,1,1,1]",0,26,26,26,1,1,1,,,1,FALSE,7.1945,,,,,,,,,,,,,,,,,,,,,,,,,,,,,,,
,613a86d8c415990ab17ad4d3,627c676016f9dec1b2e31be1,2022-05-11_20h48.40.226,classification_task,2021.2.3,Win32,75.0131273,627c6715c52fd12f31907bcf,,,,,,,,,,,,,,,,,,,,,,,a,1,"[""0.292"",""0.162"",""0.613"",""0.949""]","[1,0,1,1]",0,27,27,27,1,0,0,,,1,FALSE,7.2066,,,,,,,,,,,,,,,,,,,,,,,,,,,,,,,
,613a86d8c415990ab17ad4d3,627c676016f9dec1b2e31be1,2022-05-11_20h48.40.226,classification_task,2021.2.3,Win32,75.0131273,627c6715c52fd12f31907bcf,,,,,,,,,,,,,,,,,,,,,,,,0,"[""0.651"",""0.238"",""0.551"",""0.782""]","[0,1,1,1]",0,28,28,28,1,1,0,,,1,FALSE,,,,,,,,,,,,,,,,,,,,,,,,,,,,,,,,
,613a86d8c415990ab17ad4d3,627c676016f9dec1b2e31be1,2022-05-11_20h48.40.226,classification_task,2021.2.3,Win32,75.0131273,627c6715c52fd12f31907bcf,,,,,,,,,,,,,,,,,,,,,,,l,1,"[""0.123"",""0.418"",""0.452"",""0.703""]","[1,0,1,1]",0,29,29,29,1,1,1,,,1,FALSE,6.3661,,,,,,,,,,,,,,,,,,,,,,,,,,,,,,,
,613a86d8c415990ab17ad4d3,627c676016f9dec1b2e31be1,2022-05-11_20h48.40.226,classification_task,2021.2.3,Win32,75.0131273,627c6715c52fd12f31907bcf,,,,,,,,,,,,,,,,,,,,,,,l,1,"[""0.077"",""0.160"",""0.551"",""0.782""]","[1,0,1,1]",0,30,30,30,1,1,0,,,1,FALSE,6.5665,,,,,,,,,,,,,,,,,,,,,,,,,,,,,,,
,613a86d8c415990ab17ad4d3,627c676016f9dec1b2e31be1,2022-05-11_20h48.40.226,classification_task,2021.2.3,Win32,75.0131273,627c6715c52fd12f31907bcf,,,,,,,,,,,,,,,,,,,,,,,a,1,"[""0.744"",""0.486"",""0.846"",""0.881""]","[0,1,1,1]",0,31,31,31,1,0,1,,,1,FALSE,7.5974,,,,,,,,,,,,,,,,,,,,,,,,,,,,,,,
,613a86d8c415990ab17ad4d3,627c676016f9dec1b2e31be1,2022-05-11_20h48.40.226,classification_task,2021.2.3,Win32,75.0131273,627c6715c52fd12f31907bcf,,,,,,,,,,,,,,,,,,,,,,,a,0,"[""0.077"",""0.238"",""0.657"",""0.782""]","[1,1,0,1]",0,32,32,32,1,1,0,,,1,FALSE,5.8078,,,,,,,,,,,,,,,,,,,,,,,,,,,,,,,
,613a86d8c415990ab17ad4d3,627c676016f9dec1b2e31be1,2022-05-11_20h48.40.226,classification_task,2021.2.3,Win32,75.0131273,627c6715c52fd12f31907bcf,,,,,,,,,,,,,,,,,,,,,,,a,0,"[""0.077"",""0.238"",""0.551"",""0.034""]","[1,1,1,0]",0,33,33,33,1,1,0,,,1,FALSE,5.5544,,,,,,,,,,,,,,,,,,,,,,,,,,,,,,,
,613a86d8c415990ab17ad4d3,627c676016f9dec1b2e31be1,2022-05-11_20h48.40.226,classification_task,2021.2.3,Win32,75.0131273,627c6715c52fd12f31907bcf,,,,,,,,,,,,,,,,,,,,,,,a,1,"[""0.196"",""0.486"",""0.846"",""0.158""]","[1,1,1,0]",0,34,34,34,1,0,1,,,1,FALSE,3.9135,,,,,,,,,,,,,,,,,,,,,,,,,,,,,,,
,613a86d8c415990ab17ad4d3,627c676016f9dec1b2e31be1,2022-05-11_20h48.40.226,classification_task,2021.2.3,Win32,75.0131273,627c6715c52fd12f31907bcf,,,,,,,,,,,,,,,,,,,,,,,l,1,"[""0.077"",""0.656"",""0.551"",""0.782""]","[1,0,1,1]",0,35,35,35,1,1,0,,,1,FALSE,3.1668,,,,,,,,,,,,,,,,,,,,,,,,,,,,,,,
,613a86d8c415990ab17ad4d3,627c676016f9dec1b2e31be1,2022-05-11_20h48.40.226,classification_task,2021.2.3,Win32,75.0131273,627c6715c52fd12f31907bcf,,,,,,,,,,,,,,,,,,,,,,,a,1,"[""0.292"",""0.381"",""0.162"",""0.949""]","[1,1,0,1]",0,36,36,36,1,0,0,,,1,FALSE,6.7971,,,,,,,,,,,,,,,,,,,,,,,,,,,,,,,
,613a86d8c415990ab17ad4d3,627c676016f9dec1b2e31be1,2022-05-11_20h48.40.226,classification_task,2021.2.3,Win32,75.0131273,627c6715c52fd12f31907bcf,,,,,,,,,,,,,,,,,,,,,,,l,0,"[""0.028"",""0.381"",""0.613"",""0.949""]","[0,1,1,1]",0,37,37,37,1,0,0,,,1,FALSE,2.8564,,,,,,,,,,,,,,,,,,,,,,,,,,,,,,,
,613a86d8c415990ab17ad4d3,627c676016f9dec1b2e31be1,2022-05-11_20h48.40.226,classification_task,2021.2.3,Win32,75.0131273,627c6715c52fd12f31907bcf,,,,,,,,,,,,,,,,,,,,,,,a,1,"[""0.744"",""0.486"",""0.846"",""0.881""]","[0,1,1,1]",0,38,38,38,1,0,1,,,1,FALSE,5.7378,,,,,,,,,,,,,,,,,,,,,,,,,,,,,,,
,613a86d8c415990ab17ad4d3,627c676016f9dec1b2e31be1,2022-05-11_20h48.40.226,classification_task,2021.2.3,Win32,75.0131273,627c6715c52fd12f31907bcf,,,,,,,,,,,,,,,,,,,,,,,a,0,"[""0.028"",""0.238"",""0.551"",""0.782""]","[0,1,1,1]",0,39,39,39,1,1,0,,,1,FALSE,4.5153,,,,,,,,,,,,,,,,,,,,,,,,,,,,,,,
,613a86d8c415990ab17ad4d3,627c676016f9dec1b2e31be1,2022-05-11_20h48.40.226,classification_task,2021.2.3,Win32,75.0131273,627c6715c52fd12f31907bcf,,,,,,,,,,,,,,,,,,,,,,,a,0,"[""0.123"",""0.330"",""0.452"",""0.158""]","[1,1,1,0]",0,40,40,40,1,1,1,,,1,FALSE,1.5938,,,,,,,,,,,,,,,,,,,,,,,,,,,,,,,
,613a86d8c415990ab17ad4d3,627c676016f9dec1b2e31be1,2022-05-11_20h48.40.226,classification_task,2021.2.3,Win32,75.0131273,627c6715c52fd12f31907bcf,,,,,,,,,,,,,,,,,,,,,,,l,1,"[""0.123"",""0.330"",""0.162"",""0.703""]","[1,1,0,1]",0,41,41,41,1,1,1,,,1,FALSE,2.9498,,,,,,,,,,,,,,,,,,,,,,,,,,,,,,,
,613a86d8c415990ab17ad4d3,627c676016f9dec1b2e31be1,2022-05-11_20h48.40.226,classification_task,2021.2.3,Win32,75.0131273,627c6715c52fd12f31907bcf,,,,,,,,,,,,,,,,,,,,,,,a,1,"[""0.196"",""0.486"",""0.658"",""0.881""]","[1,1,0,1]",0,42,42,42,1,0,1,,,1,FALSE,2.1542,,,,,,,,,,,,,,,,,,,,,,,,,,,,,,,
,613a86d8c415990ab17ad4d3,627c676016f9dec1b2e31be1,2022-05-11_20h48.40.226,classification_task,2021.2.3,Win32,75.0131273,627c6715c52fd12f31907bcf,,,,,,,,,,,,,,,,,,,,,,,a,1,"[""0.196"",""0.160"",""0.846"",""0.881""]","[1,0,1,1]",0,43,43,43,1,0,1,,,1,FALSE,2.7833,,,,,,,,,,,,,,,,,,,,,,,,,,,,,,,
,613a86d8c415990ab17ad4d3,627c676016f9dec1b2e31be1,2022-05-11_20h48.40.226,classification_task,2021.2.3,Win32,75.0131273,627c6715c52fd12f31907bcf,,,,,,,,,,,,,,,,,,,,,,,l,1,"[""0.123"",""0.656"",""0.452"",""0.703""]","[1,0,1,1]",0,44,44,44,1,1,1,,,1,FALSE,3.1185,,,,,,,,,,,,,,,,,,,,,,,,,,,,,,,
,613a86d8c415990ab17ad4d3,627c676016f9dec1b2e31be1,2022-05-11_20h48.40.226,classification_task,2021.2.3,Win32,75.0131273,627c6715c52fd12f31907bcf,,,,,,,,,,,,,,,,,,,,,,,a,1,"[""0.292"",""0.418"",""0.613"",""0.949""]","[1,0,1,1]",0,45,45,45,1,0,0,,,1,FALSE,3.9666,,,,,,,,,,,,,,,,,,,,,,,,,,,,,,,
,613a86d8c415990ab17ad4d3,627c676016f9dec1b2e31be1,2022-05-11_20h48.40.226,classification_task,2021.2.3,Win32,75.0131273,627c6715c52fd12f31907bcf,,,,,,,,,,,,,,,,,,,,,,,l,0,"[""0.292"",""0.381"",""0.613"",""0.656""]","[1,1,1,0]",0,46,46,46,1,0,0,,,1,FALSE,2.421,,,,,,,,,,,,,,,,,,,,,,,,,,,,,,,
,613a86d8c415990ab17ad4d3,627c676016f9dec1b2e31be1,2022-05-11_20h48.40.226,classification_task,2021.2.3,Win32,75.0131273,627c6715c52fd12f31907bcf,,,,,,,,,,,,,,,,,,,,,,,l,1,"[""0.647"",""0.330"",""0.452"",""0.703""]","[0,1,1,1]",0,47,47,47,1,1,1,,,1,FALSE,2.0481,,,,,,,,,,,,,,,,,,,,,,,,,,,,,,,
,613a86d8c415990ab17ad4d3,627c676016f9dec1b2e31be1,2022-05-11_20h48.40.226,classification_task,2021.2.3,Win32,75.0131273,627c6715c52fd12f31907bcf,,,,,,,,,,,,,,,,,,,,,,,a,0,"[""0.123"",""0.330"",""0.452"",""0.418""]","[1,1,1,0]",0,48,48,48,1,1,1,,,1,FALSE,5.6635,,,,,,,,,,,,,,,,,,,,,,,,,,,,,,,
,613a86d8c415990ab17ad4d3,627c676016f9dec1b2e31be1,2022-05-11_20h48.40.226,classification_task,2021.2.3,Win32,75.0131273,627c6715c52fd12f31907bcf,,,,,,,,,,,,,,,,,,,,,,,a,1,"[""0.292"",""0.381"",""0.613"",""0.028""]","[1,1,1,0]",0,49,49,49,1,0,0,,,1,FALSE,2.4739,,,,,,,,,,,,,,,,,,,,,,,,,,,,,,,
,613a86d8c415990ab17ad4d3,627c676016f9dec1b2e31be1,2022-05-11_20h48.40.226,classification_task,2021.2.3,Win32,75.0131273,627c6715c52fd12f31907bcf,,,,,,,,,,,,,,,,,,,,,,,l,0,"[""0.196"",""0.486"",""0.846"",""0.418""]","[1,1,1,0]",0,50,50,50,1,0,1,,,1,FALSE,4.0072,,,,,,,,,,,,,,,,,,,,,,,,,,,,,,,
,613a86d8c415990ab17ad4d3,627c676016f9dec1b2e31be1,2022-05-11_20h48.40.226,classification_task,2021.2.3,Win32,75.0131273,627c6715c52fd12f31907bcf,,,,,,,,,,,,,,,,,,,,,,,a,0,"[""0.077"",""0.238"",""0.746"",""0.782""]","[1,1,0,1]",0,51,51,51,1,1,0,,,1,FALSE,3.4876,,,,,,,,,,,,,,,,,,,,,,,,,,,,,,,
,613a86d8c415990ab17ad4d3,627c676016f9dec1b2e31be1,2022-05-11_20h48.40.226,classification_task,2021.2.3,Win32,75.0131273,627c6715c52fd12f31907bcf,,,,,,,,,,,,,,,,,,,,,,,l,1,"[""0.123"",""0.657"",""0.452"",""0.703""]","[1,0,1,1]",0,52,52,52,1,1,1,,,1,FALSE,4.1765,,,,,,,,,,,,,,,,,,,,,,,,,,,,,,,
,613a86d8c415990ab17ad4d3,627c676016f9dec1b2e31be1,2022-05-11_20h48.40.226,classification_task,2021.2.3,Win32,75.0131273,627c6715c52fd12f31907bcf,,,,,,,,,,,,,,,,,,,,,,,a,1,"[""0.292"",""0.381"",""0.028"",""0.949""]","[1,1,0,1]",0,53,53,53,1,0,0,,,1,FALSE,2.2737,,,,,,,,,,,,,,,,,,,,,,,,,,,,,,,
,613a86d8c415990ab17ad4d3,627c676016f9dec1b2e31be1,2022-05-11_20h48.40.226,classification_task,2021.2.3,Win32,75.0131273,627c6715c52fd12f31907bcf,,,,,,,,,,,,,,,,,,,,,,,a,1,"[""0.196"",""0.418"",""0.846"",""0.881""]","[1,0,1,1]",0,54,54,54,1,0,1,,,1,FALSE,1.287,,,,,,,,,,,,,,,,,,,,,,,,,,,,,,,
,613a86d8c415990ab17ad4d3,627c676016f9dec1b2e31be1,2022-05-11_20h48.40.226,classification_task,2021.2.3,Win32,75.0131273,627c6715c52fd12f31907bcf,,,,,,,,,,,,,,,,,,,,,,,a,1,"[""0.292"",""0.158"",""0.613"",""0.949""]","[1,0,1,1]",0,55,55,55,1,0,0,,,1,FALSE,1.3702,,,,,,,,,,,,,,,,,,,,,,,,,,,,,,,
,613a86d8c415990ab17ad4d3,627c676016f9dec1b2e31be1,2022-05-11_20h48.40.226,classification_task,2021.2.3,Win32,75.0131273,627c6715c52fd12f31907bcf,,,,,,,,,,,,,,,,,,,,,,,l,1,"[""0.123"",""0.330"",""0.160"",""0.703""]","[1,1,0,1]",0,56,56,56,1,1,1,,,1,FALSE,1.9013,,,,,,,,,,,,,,,,,,,,,,,,,,,,,,,
,613a86d8c415990ab17ad4d3,627c676016f9dec1b2e31be1,2022-05-11_20h48.40.226,classification_task,2021.2.3,Win32,75.0131273,627c6715c52fd12f31907bcf,,,,,,,,,,,,,,,,,,,,,,,l,1,"[""0.077"",""0.158"",""0.551"",""0.782""]","[1,0,1,1]",0,57,57,57,1,1,0,,,1,FALSE,1.7333,,,,,,,,,,,,,,,,,,,,,,,,,,,,,,,
,613a86d8c415990ab17ad4d3,627c676016f9dec1b2e31be1,2022-05-11_20h48.40.226,classification_task,2021.2.3,Win32,75.0131273,627c6715c52fd12f31907bcf,,,,,,,,,,,,,,,,,,,,,,,a,0,"[""0.158"",""0.330"",""0.452"",""0.703""]","[0,1,1,1]",0,58,58,58,1,1,1,,,1,FALSE,1.3577,,,,,,,,,,,,,,,,,,,,,,,,,,,,,,,
,613a86d8c415990ab17ad4d3,627c676016f9dec1b2e31be1,2022-05-11_20h48.40.226,classification_task,2021.2.3,Win32,75.0131273,627c6715c52fd12f31907bcf,,,,,,,,,,,,,,,,,,,,,,,a,1,"[""0.160"",""0.381"",""0.613"",""0.949""]","[0,1,1,1]",0,59,59,59,1,0,0,,,1,FALSE,1.0177,,,,,,,,,,,,,,,,,,,,,,,,,,,,,,,
,613a86d8c415990ab17ad4d3,627c676016f9dec1b2e31be1,2022-05-11_20h48.40.226,classification_task,2021.2.3,Win32,75.0131273,627c6715c52fd12f31907bcf,,,,,,,,,,,,,,,,,,,,,,,a,1,"[""0.034"",""0.486"",""0.846"",""0.881""]","[0,1,1,1]",0,60,60,60,1,0,1,,,1,FALSE,2.2631,,,,,,,,,,,,,,,,,,,,,,,,,,,,,,,
,613a86d8c415990ab17ad4d3,627c676016f9dec1b2e31be1,2022-05-11_20h48.40.226,classification_task,2021.2.3,Win32,75.0131273,627c6715c52fd12f31907bcf,,,,,,,,,,,,,,,,,,,,,,,l,1,"[""0.656"",""0.238"",""0.551"",""0.782""]","[0,1,1,1]",0,61,61,61,1,1,0,,,1,FALSE,1.8803,,,,,,,,,,,,,,,,,,,,,,,,,,,,,,,
,613a86d8c415990ab17ad4d3,627c676016f9dec1b2e31be1,2022-05-11_20h48.40.226,classification_task,2021.2.3,Win32,75.0131273,627c6715c52fd12f31907bcf,,,,,,,,,,,,,,,,,,,,,,,l,0,"[""0.196"",""0.486"",""0.162"",""0.881""]","[1,1,0,1]",0,62,62,62,1,0,1,,,1,FALSE,3.7006,,,,,,,,,,,,,,,,,,,,,,,,,,,,,,,
,613a86d8c415990ab17ad4d3,627c676016f9dec1b2e31be1,2022-05-11_20h48.40.226,classification_task,2021.2.3,Win32,75.0131273,627c6715c52fd12f31907bcf,,,,,,,,,,,,,,,,,,,,,,,l,1,"[""0.077"",""0.238"",""0.551"",""0.651""]","[1,1,1,0]",0,63,63,63,1,1,0,,,1,FALSE,5.3571,,,,,,,,,,,,,,,,,,,,,,,,,,,,,,,
,613a86d8c415990ab17ad4d3,627c676016f9dec1b2e31be1,2022-05-11_20h48.40.226,classification_task,2021.2.3,Win32,75.0131273,627c6715c52fd12f31907bcf,,,,,,,,,,,,,,,,,,,,,,,,,,,,,,,,,,,,,,,0, ,,0,10,529.5502,0,0,0,0,1,2,1,,,,,,,,,,,,,,,,,,
,613a86d8c415990ab17ad4d3,627c676016f9dec1b2e31be1,2022-05-11_20h48.40.226,classification_task,2021.2.3,Win32,75.0131273,627c6715c52fd12f31907bcf,,,,,,,,,,,,,,,,,,,,,,,,,,,,,,,,,,,,,,,1,  ,,0,8.600823045,534.391,0,0,0,0,1,2,1,,,,,,,,,,,,,,,,,,
,613a86d8c415990ab17ad4d3,627c676016f9dec1b2e31be1,2022-05-11_20h48.40.226,classification_task,2021.2.3,Win32,75.0131273,627c6715c52fd12f31907bcf,,,,,,,,,,,,,,,,,,,,,,,,,,,,,,,,,,,,,,,2,  ,,0,6.151283559,540.6577,0,0,0,0,1,2,1,,,,,,,,,,,,,,,,,,
,613a86d8c415990ab17ad4d3,627c676016f9dec1b2e31be1,2022-05-11_20h48.40.226,classification_task,2021.2.3,Win32,75.0131273,627c6715c52fd12f31907bcf,,,,,,,,,,,,,,,,,,,,,,,,,,,,,,,,,,,,,,,,,,,,,0,0,0,0,1,,1,,,,,,,,,,,,,,,,,,
,613a86d8c415990ab17ad4d3,627c676016f9dec1b2e31be1,2022-05-11_20h48.40.226,classification_task,2021.2.3,Win32,75.0131273,627c6715c52fd12f31907bcf,,,,,,,,,,,,,,,,,,,,,space,59.6407,a,1,"[""0.292"",""0.381"",""0.744"",""0.949""]","[1,1,0,1]",0,0,0,0,1,0,0,,,1,FALSE,4.6792,,,,,,,,,,,,,,,,,,,,,,,,,,,,,,,
,613a86d8c415990ab17ad4d3,627c676016f9dec1b2e31be1,2022-05-11_20h48.40.226,classification_task,2021.2.3,Win32,75.0131273,627c6715c52fd12f31907bcf,,,,,,,,,,,,,,,,,,,,,,,a,1,"[""0.292"",""0.028"",""0.613"",""0.949""]","[1,0,1,1]",0,1,1,1,1,0,0,,,1,FALSE,1.713,,,,,,,,,,,,,,,,,,,,,,,,,,,,,,,
,613a86d8c415990ab17ad4d3,627c676016f9dec1b2e31be1,2022-05-11_20h48.40.226,classification_task,2021.2.3,Win32,75.0131273,627c6715c52fd12f31907bcf,,,,,,,,,,,,,,,,,,,,,,,l,0,"[""0.292"",""0.381"",""0.613"",""0.160""]","[1,1,1,0]",0,2,2,2,1,0,0,,,1,FALSE,1.4318,,,,,,,,,,,,,,,,,,,,,,,,,,,,,,,
,613a86d8c415990ab17ad4d3,627c676016f9dec1b2e31be1,2022-05-11_20h48.40.226,classification_task,2021.2.3,Win32,75.0131273,627c6715c52fd12f31907bcf,,,,,,,,,,,,,,,,,,,,,,,a,1,"[""0.196"",""0.486"",""0.846"",""0.160""]","[1,1,1,0]",0,3,3,3,1,0,1,,,1,FALSE,9.829,,,,,,,,,,,,,,,,,,,,,,,,,,,,,,,
,613a86d8c415990ab17ad4d3,627c676016f9dec1b2e31be1,2022-05-11_20h48.40.226,classification_task,2021.2.3,Win32,75.0131273,627c6715c52fd12f31907bcf,,,,,,,,,,,,,,,,,,,,,,,l,1,"[""0.077"",""0.034"",""0.551"",""0.782""]","[1,0,1,1]",0,4,4,4,1,1,0,,,1,FALSE,4.415,,,,,,,,,,,,,,,,,,,,,,,,,,,,,,,
,613a86d8c415990ab17ad4d3,627c676016f9dec1b2e31be1,2022-05-11_20h48.40.226,classification_task,2021.2.3,Win32,75.0131273,627c6715c52fd12f31907bcf,,,,,,,,,,,,,,,,,,,,,,,l,1,"[""0.162"",""0.238"",""0.551"",""0.782""]","[0,1,1,1]",0,5,5,5,1,1,0,,,1,FALSE,2.6061,,,,,,,,,,,,,,,,,,,,,,,,,,,,,,,
,613a86d8c415990ab17ad4d3,627c676016f9dec1b2e31be1,2022-05-11_20h48.40.226,classification_task,2021.2.3,Win32,75.0131273,627c6715c52fd12f31907bcf,,,,,,,,,,,,,,,,,,,,,,,a,1,"[""0.158"",""0.381"",""0.613"",""0.949""]","[0,1,1,1]",0,6,6,6,1,0,0,,,1,FALSE,1.7336,,,,,,,,,,,,,,,,,,,,,,,,,,,,,,,
,613a86d8c415990ab17ad4d3,627c676016f9dec1b2e31be1,2022-05-11_20h48.40.226,classification_task,2021.2.3,Win32,75.0131273,627c6715c52fd12f31907bcf,,,,,,,,,,,,,,,,,,,,,,,l,1,"[""0.028"",""0.330"",""0.452"",""0.703""]","[0,1,1,1]",0,7,7,7,1,1,1,,,1,FALSE,2.109,,,,,,,,,,,,,,,,,,,,,,,,,,,,,,,
,613a86d8c415990ab17ad4d3,627c676016f9dec1b2e31be1,2022-05-11_20h48.40.226,classification_task,2021.2.3,Win32,75.0131273,627c6715c52fd12f31907bcf,,,,,,,,,,,,,,,,,,,,,,,l,0,"[""0.196"",""0.486"",""0.160"",""0.881""]","[1,1,0,1]",0,8,8,8,1,0,1,,,1,FALSE,4.4736,,,,,,,,,,,,,,,,,,,,,,,,,,,,,,,
,613a86d8c415990ab17ad4d3,627c676016f9dec1b2e31be1,2022-05-11_20h48.40.226,classification_task,2021.2.3,Win32,75.0131273,627c6715c52fd12f31907bcf,,,,,,,,,,,,,,,,,,,,,,,a,0,"[""0.123"",""0.330"",""0.746"",""0.703""]","[1,1,0,1]",0,9,9,9,1,1,1,,,1,FALSE,3.4335,,,,,,,,,,,,,,,,,,,,,,,,,,,,,,,
,613a86d8c415990ab17ad4d3,627c676016f9dec1b2e31be1,2022-05-11_20h48.40.226,classification_task,2021.2.3,Win32,75.0131273,627c6715c52fd12f31907bcf,,,,,,,,,,,,,,,,,,,,,,,l,1,"[""0.077"",""0.238"",""0.551"",""0.027""]","[1,1,1,0]",0,10,10,10,1,1,0,,,1,FALSE,1.4634,,,,,,,,,,,,,,,,,,,,,,,,,,,,,,,
,613a86d8c415990ab17ad4d3,627c676016f9dec1b2e31be1,2022-05-11_20h48.40.226,classification_task,2021.2.3,Win32,75.0131273,627c6715c52fd12f31907bcf,,,,,,,,,,,,,,,,,,,,,,,l,1,"[""0.077"",""0.238"",""0.658"",""0.782""]","[1,1,0,1]",0,11,11,11,1,1,0,,,1,FALSE,1.23,,,,,,,,,,,,,,,,,,,,,,,,,,,,,,,
,613a86d8c415990ab17ad4d3,627c676016f9dec1b2e31be1,2022-05-11_20h48.40.226,classification_task,2021.2.3,Win32,75.0131273,627c6715c52fd12f31907bcf,,,,,,,,,,,,,,,,,,,,,,,a,1,"[""0.196"",""0.658"",""0.846"",""0.881""]","[1,0,1,1]",0,12,12,12,1,0,1,,,1,FALSE,1.696,,,,,,,,,,,,,,,,,,,,,,,,,,,,,,,
,613a86d8c415990ab17ad4d3,627c676016f9dec1b2e31be1,2022-05-11_20h48.40.226,classification_task,2021.2.3,Win32,75.0131273,627c6715c52fd12f31907bcf,,,,,,,,,,,,,,,,,,,,,,,a,0,"[""0.123"",""0.330"",""0.452"",""0.159""]","[1,1,1,0]",0,13,13,13,1,1,1,,,1,FALSE,3.1266,,,,,,,,,,,,,,,,,,,,,,,,,,,,,,,
,613a86d8c415990ab17ad4d3,627c676016f9dec1b2e31be1,2022-05-11_20h48.40.226,classification_task,2021.2.3,Win32,75.0131273,627c6715c52fd12f31907bcf,,,,,,,,,,,,,,,,,,,,,,,a,1,"[""0.657"",""0.486"",""0.846"",""0.881""]","[0,1,1,1]",0,14,14,14,1,0,1,,,1,FALSE,2.9276,,,,,,,,,,,,,,,,,,,,,,,,,,,,,,,
,613a86d8c415990ab17ad4d3,627c676016f9dec1b2e31be1,2022-05-11_20h48.40.226,classification_task,2021.2.3,Win32,75.0131273,627c6715c52fd12f31907bcf,,,,,,,,,,,,,,,,,,,,,,,l,1,"[""0.123"",""0.658"",""0.452"",""0.703""]","[1,0,1,1]",0,15,15,15,1,1,1,,,1,FALSE,1.8612,,,,,,,,,,,,,,,,,,,,,,,,,,,,,,,
,613a86d8c415990ab17ad4d3,627c676016f9dec1b2e31be1,2022-05-11_20h48.40.226,classification_task,2021.2.3,Win32,75.0131273,627c6715c52fd12f31907bcf,,,,,,,,,,,,,,,,,,,,,,,l,0,"[""0.292"",""0.027"",""0.613"",""0.949""]","[1,0,1,1]",0,16,16,16,1,0,0,,,1,FALSE,2.0931,,,,,,,,,,,,,,,,,,,,,,,,,,,,,,,
,613a86d8c415990ab17ad4d3,627c676016f9dec1b2e31be1,2022-05-11_20h48.40.226,classification_task,2021.2.3,Win32,75.0131273,627c6715c52fd12f31907bcf,,,,,,,,,,,,,,,,,,,,,,,a,0,"[""0.077"",""0.238"",""0.551"",""0.160""]","[1,1,1,0]",0,17,17,17,1,1,0,,,1,FALSE,0.9138,,,,,,,,,,,,,,,,,,,,,,,,,,,,,,,
,613a86d8c415990ab17ad4d3,627c676016f9dec1b2e31be1,2022-05-11_20h48.40.226,classification_task,2021.2.3,Win32,75.0131273,627c6715c52fd12f31907bcf,,,,,,,,,,,,,,,,,,,,,,,a,1,"[""0.196"",""0.486"",""0.846"",""0.028""]","[1,1,1,0]",0,18,18,18,1,0,1,,,1,FALSE,2.1083,,,,,,,,,,,,,,,,,,,,,,,,,,,,,,,
,613a86d8c415990ab17ad4d3,627c676016f9dec1b2e31be1,2022-05-11_20h48.40.226,classification_task,2021.2.3,Win32,75.0131273,627c6715c52fd12f31907bcf,,,,,,,,,,,,,,,,,,,,,,,a,1,"[""0.196"",""0.656"",""0.846"",""0.881""]","[1,0,1,1]",0,19,19,19,1,0,1,,,1,FALSE,2.9746,,,,,,,,,,,,,,,,,,,,,,,,,,,,,,,
,613a86d8c415990ab17ad4d3,627c676016f9dec1b2e31be1,2022-05-11_20h48.40.226,classification_task,2021.2.3,Win32,75.0131273,627c6715c52fd12f31907bcf,,,,,,,,,,,,,,,,,,,,,,,a,0,"[""0.077"",""0.657"",""0.551"",""0.782""]","[1,0,1,1]",0,20,20,20,1,1,0,,,1,FALSE,3.0601,,,,,,,,,,,,,,,,,,,,,,,,,,,,,,,
,613a86d8c415990ab17ad4d3,627c676016f9dec1b2e31be1,2022-05-11_20h48.40.226,classification_task,2021.2.3,Win32,75.0131273,627c6715c52fd12f31907bcf,,,,,,,,,,,,,,,,,,,,,,,l,1,"[""0.160"",""0.238"",""0.551"",""0.782""]","[0,1,1,1]",0,21,21,21,1,1,0,,,1,FALSE,1.0732,,,,,,,,,,,,,,,,,,,,,,,,,,,,,,,
,613a86d8c415990ab17ad4d3,627c676016f9dec1b2e31be1,2022-05-11_20h48.40.226,classification_task,2021.2.3,Win32,75.0131273,627c6715c52fd12f31907bcf,,,,,,,,,,,,,,,,,,,,,,,a,1,"[""0.196"",""0.486"",""0.651"",""0.881""]","[1,1,0,1]",0,22,22,22,1,0,1,,,1,FALSE,2.3753,,,,,,,,,,,,,,,,,,,,,,,,,,,,,,,
,613a86d8c415990ab17ad4d3,627c676016f9dec1b2e31be1,2022-05-11_20h48.40.226,classification_task,2021.2.3,Win32,75.0131273,627c6715c52fd12f31907bcf,,,,,,,,,,,,,,,,,,,,,,,l,1,"[""0.028"",""0.330"",""0.452"",""0.703""]","[0,1,1,1]",0,23,23,23,1,1,1,,,1,FALSE,1.7006,,,,,,,,,,,,,,,,,,,,,,,,,,,,,,,
,613a86d8c415990ab17ad4d3,627c676016f9dec1b2e31be1,2022-05-11_20h48.40.226,classification_task,2021.2.3,Win32,75.0131273,627c6715c52fd12f31907bcf,,,,,,,,,,,,,,,,,,,,,,,a,0,"[""0.123"",""0.744"",""0.452"",""0.703""]","[1,0,1,1]",0,24,24,24,1,1,1,,,1,FALSE,2.8804,,,,,,,,,,,,,,,,,,,,,,,,,,,,,,,
,613a86d8c415990ab17ad4d3,627c676016f9dec1b2e31be1,2022-05-11_20h48.40.226,classification_task,2021.2.3,Win32,75.0131273,627c6715c52fd12f31907bcf,,,,,,,,,,,,,,,,,,,,,,,a,1,"[""0.292"",""0.381"",""0.160"",""0.949""]","[1,1,0,1]",0,25,25,25,1,0,0,,,1,FALSE,2.6112,,,,,,,,,,,,,,,,,,,,,,,,,,,,,,,
,613a86d8c415990ab17ad4d3,627c676016f9dec1b2e31be1,2022-05-11_20h48.40.226,classification_task,2021.2.3,Win32,75.0131273,627c6715c52fd12f31907bcf,,,,,,,,,,,,,,,,,,,,,,,l,1,"[""0.123"",""0.330"",""0.452"",""0.028""]","[1,1,1,0]",0,26,26,26,1,1,1,,,1,FALSE,2.9951,,,,,,,,,,,,,,,,,,,,,,,,,,,,,,,
,613a86d8c415990ab17ad4d3,627c676016f9dec1b2e31be1,2022-05-11_20h48.40.226,classification_task,2021.2.3,Win32,75.0131273,627c6715c52fd12f31907bcf,,,,,,,,,,,,,,,,,,,,,,,l,0,"[""0.162"",""0.381"",""0.613"",""0.949""]","[0,1,1,1]",0,27,27,27,1,0,0,,,1,FALSE,3.4202,,,,,,,,,,,,,,,,,,,,,,,,,,,,,,,
,613a86d8c415990ab17ad4d3,627c676016f9dec1b2e31be1,2022-05-11_20h48.40.226,classification_task,2021.2.3,Win32,75.0131273,627c6715c52fd12f31907bcf,,,,,,,,,,,,,,,,,,,,,,,a,0,"[""0.123"",""0.330"",""0.418"",""0.703""]","[1,1,0,1]",0,28,28,28,1,1,1,,,1,FALSE,3.0557,,,,,,,,,,,,,,,,,,,,,,,,,,,,,,,
,613a86d8c415990ab17ad4d3,627c676016f9dec1b2e31be1,2022-05-11_20h48.40.226,classification_task,2021.2.3,Win32,75.0131273,627c6715c52fd12f31907bcf,,,,,,,,,,,,,,,,,,,,,,,l,1,"[""0.077"",""0.238"",""0.746"",""0.782""]","[1,1,0,1]",0,29,29,29,1,1,0,,,1,FALSE,4.1937,,,,,,,,,,,,,,,,,,,,,,,,,,,,,,,
,613a86d8c415990ab17ad4d3,627c676016f9dec1b2e31be1,2022-05-11_20h48.40.226,classification_task,2021.2.3,Win32,75.0131273,627c6715c52fd12f31907bcf,,,,,,,,,,,,,,,,,,,,,,,a,1,"[""0.292"",""0.381"",""0.613"",""0.657""]","[1,1,1,0]",0,30,30,30,1,0,0,,,1,FALSE,4.8749,,,,,,,,,,,,,,,,,,,,,,,,,,,,,,,
,613a86d8c415990ab17ad4d3,627c676016f9dec1b2e31be1,2022-05-11_20h48.40.226,classification_task,2021.2.3,Win32,75.0131273,627c6715c52fd12f31907bcf,,,,,,,,,,,,,,,,,,,,,,,l,0,"[""0.028"",""0.486"",""0.846"",""0.881""]","[0,1,1,1]",0,31,31,31,1,0,1,,,1,FALSE,3.3406,,,,,,,,,,,,,,,,,,,,,,,,,,,,,,,
,613a86d8c415990ab17ad4d3,627c676016f9dec1b2e31be1,2022-05-11_20h48.40.226,classification_task,2021.2.3,Win32,75.0131273,627c6715c52fd12f31907bcf,,,,,,,,,,,,,,,,,,,,,,,l,1,"[""0.656"",""0.238"",""0.551"",""0.782""]","[0,1,1,1]",0,32,32,32,1,1,0,,,1,FALSE,0.7806,,,,,,,,,,,,,,,,,,,,,,,,,,,,,,,
,613a86d8c415990ab17ad4d3,627c676016f9dec1b2e31be1,2022-05-11_20h48.40.226,classification_task,2021.2.3,Win32,75.0131273,627c6715c52fd12f31907bcf,,,,,,,,,,,,,,,,,,,,,,,a,1,"[""0.196"",""0.027"",""0.846"",""0.881""]","[1,0,1,1]",0,33,33,33,1,0,1,,,1,FALSE,2.7872,,,,,,,,,,,,,,,,,,,,,,,,,,,,,,,
,613a86d8c415990ab17ad4d3,627c676016f9dec1b2e31be1,2022-05-11_20h48.40.226,classification_task,2021.2.3,Win32,75.0131273,627c6715c52fd12f31907bcf,,,,,,,,,,,,,,,,,,,,,,,l,1,"[""0.077"",""0.238"",""0.034"",""0.782""]","[1,1,0,1]",0,34,34,34,1,1,0,,,1,FALSE,3.6463,,,,,,,,,,,,,,,,,,,,,,,,,,,,,,,
,613a86d8c415990ab17ad4d3,627c676016f9dec1b2e31be1,2022-05-11_20h48.40.226,classification_task,2021.2.3,Win32,75.0131273,627c6715c52fd12f31907bcf,,,,,,,,,,,,,,,,,,,,,,,a,1,"[""0.196"",""0.486"",""0.657"",""0.881""]","[1,1,0,1]",0,35,35,35,1,0,1,,,1,FALSE,3.4362,,,,,,,,,,,,,,,,,,,,,,,,,,,,,,,
,613a86d8c415990ab17ad4d3,627c676016f9dec1b2e31be1,2022-05-11_20h48.40.226,classification_task,2021.2.3,Win32,75.0131273,627c6715c52fd12f31907bcf,,,,,,,,,,,,,,,,,,,,,,,l,1,"[""0.162"",""0.330"",""0.452"",""0.703""]","[0,1,1,1]",0,36,36,36,1,1,1,,,1,FALSE,4.0335,,,,,,,,,,,,,,,,,,,,,,,,,,,,,,,
,613a86d8c415990ab17ad4d3,627c676016f9dec1b2e31be1,2022-05-11_20h48.40.226,classification_task,2021.2.3,Win32,75.0131273,627c6715c52fd12f31907bcf,,,,,,,,,,,,,,,,,,,,,,,a,0,"[""0.123"",""0.330"",""0.159"",""0.703""]","[1,1,0,1]",0,37,37,37,1,1,1,,,1,FALSE,1.4769,,,,,,,,,,,,,,,,,,,,,,,,,,,,,,,
,613a86d8c415990ab17ad4d3,627c676016f9dec1b2e31be1,2022-05-11_20h48.40.226,classification_task,2021.2.3,Win32,75.0131273,627c6715c52fd12f31907bcf,,,,,,,,,,,,,,,,,,,,,,,l,0,"[""0.292"",""0.381"",""0.613"",""0.657""]","[1,1,1,0]",0,38,38,38,1,0,0,,,1,FALSE,1.6271,,,,,,,,,,,,,,,,,,,,,,,,,,,,,,,
,613a86d8c415990ab17ad4d3,627c676016f9dec1b2e31be1,2022-05-11_20h48.40.226,classification_task,2021.2.3,Win32,75.0131273,627c6715c52fd12f31907bcf,,,,,,,,,,,,,,,,,,,,,,,a,1,"[""0.744"",""0.486"",""0.846"",""0.881""]","[0,1,1,1]",0,39,39,39,1,0,1,,,1,FALSE,1.708,,,,,,,,,,,,,,,,,,,,,,,,,,,,,,,
,613a86d8c415990ab17ad4d3,627c676016f9dec1b2e31be1,2022-05-11_20h48.40.226,classification_task,2021.2.3,Win32,75.0131273,627c6715c52fd12f31907bcf,,,,,,,,,,,,,,,,,,,,,,,l,1,"[""0.077"",""0.238"",""0.551"",""0.651""]","[1,1,1,0]",0,40,40,40,1,1,0,,,1,FALSE,2.4723,,,,,,,,,,,,,,,,,,,,,,,,,,,,,,,
,613a86d8c415990ab17ad4d3,627c676016f9dec1b2e31be1,2022-05-11_20h48.40.226,classification_task,2021.2.3,Win32,75.0131273,627c6715c52fd12f31907bcf,,,,,,,,,,,,,,,,,,,,,,,a,0,"[""0.123"",""0.027"",""0.452"",""0.703""]","[1,0,1,1]",0,41,41,41,1,1,1,,,1,FALSE,4.1293,,,,,,,,,,,,,,,,,,,,,,,,,,,,,,,
,613a86d8c415990ab17ad4d3,627c676016f9dec1b2e31be1,2022-05-11_20h48.40.226,classification_task,2021.2.3,Win32,75.0131273,627c6715c52fd12f31907bcf,,,,,,,,,,,,,,,,,,,,,,,l,0,"[""0.292"",""0.744"",""0.613"",""0.949""]","[1,0,1,1]",0,42,42,42,1,0,0,,,1,FALSE,2.3795,,,,,,,,,,,,,,,,,,,,,,,,,,,,,,,
,613a86d8c415990ab17ad4d3,627c676016f9dec1b2e31be1,2022-05-11_20h48.40.226,classification_task,2021.2.3,Win32,75.0131273,627c6715c52fd12f31907bcf,,,,,,,,,,,,,,,,,,,,,,,a,1,"[""0.196"",""0.486"",""0.846"",""0.160""]","[1,1,1,0]",0,43,43,43,1,0,1,,,1,FALSE,1.8765,,,,,,,,,,,,,,,,,,,,,,,,,,,,,,,
,613a86d8c415990ab17ad4d3,627c676016f9dec1b2e31be1,2022-05-11_20h48.40.226,classification_task,2021.2.3,Win32,75.0131273,627c6715c52fd12f31907bcf,,,,,,,,,,,,,,,,,,,,,,,l,1,"[""0.077"",""0.158"",""0.551"",""0.782""]","[1,0,1,1]",0,44,44,44,1,1,0,,,1,FALSE,4.9483,,,,,,,,,,,,,,,,,,,,,,,,,,,,,,,
,613a86d8c415990ab17ad4d3,627c676016f9dec1b2e31be1,2022-05-11_20h48.40.226,classification_task,2021.2.3,Win32,75.0131273,627c6715c52fd12f31907bcf,,,,,,,,,,,,,,,,,,,,,,,a,0,"[""0.123"",""0.330"",""0.452"",""0.418""]","[1,1,1,0]",0,45,45,45,1,1,1,,,1,FALSE,1.846,,,,,,,,,,,,,,,,,,,,,,,,,,,,,,,
,613a86d8c415990ab17ad4d3,627c676016f9dec1b2e31be1,2022-05-11_20h48.40.226,classification_task,2021.2.3,Win32,75.0131273,627c6715c52fd12f31907bcf,,,,,,,,,,,,,,,,,,,,,,,a,1,"[""0.159"",""0.381"",""0.613"",""0.949""]","[0,1,1,1]",0,46,46,46,1,0,0,,,1,FALSE,1.4583,,,,,,,,,,,,,,,,,,,,,,,,,,,,,,,
,613a86d8c415990ab17ad4d3,627c676016f9dec1b2e31be1,2022-05-11_20h48.40.226,classification_task,2021.2.3,Win32,75.0131273,627c6715c52fd12f31907bcf,,,,,,,,,,,,,,,,,,,,,,,a,1,"[""0.292"",""0.381"",""0.746"",""0.949""]","[1,1,0,1]",0,47,47,47,1,0,0,,,1,FALSE,0.7595,,,,,,,,,,,,,,,,,,,,,,,,,,,,,,,
,613a86d8c415990ab17ad4d3,627c676016f9dec1b2e31be1,2022-05-11_20h48.40.226,classification_task,2021.2.3,Win32,75.0131273,627c6715c52fd12f31907bcf,,,,,,,,,,,,,,,,,,,,,,,a,0,"[""0.123"",""0.330"",""0.028"",""0.703""]","[1,1,0,1]",0,48,48,48,1,1,1,,,1,FALSE,1.3822,,,,,,,,,,,,,,,,,,,,,,,,,,,,,,,
,613a86d8c415990ab17ad4d3,627c676016f9dec1b2e31be1,2022-05-11_20h48.40.226,classification_task,2021.2.3,Win32,75.0131273,627c6715c52fd12f31907bcf,,,,,,,,,,,,,,,,,,,,,,,l,1,"[""0.077"",""0.238"",""0.551"",""0.647""]","[1,1,1,0]",0,49,49,49,1,1,0,,,1,FALSE,1.3379,,,,,,,,,,,,,,,,,,,,,,,,,,,,,,,
,613a86d8c415990ab17ad4d3,627c676016f9dec1b2e31be1,2022-05-11_20h48.40.226,classification_task,2021.2.3,Win32,75.0131273,627c6715c52fd12f31907bcf,,,,,,,,,,,,,,,,,,,,,,,a,1,"[""0.292"",""0.381"",""0.647"",""0.949""]","[1,1,0,1]",0,50,50,50,1,0,0,,,1,FALSE,0.8168,,,,,,,,,,,,,,,,,,,,,,,,,,,,,,,
,613a86d8c415990ab17ad4d3,627c676016f9dec1b2e31be1,2022-05-11_20h48.40.226,classification_task,2021.2.3,Win32,75.0131273,627c6715c52fd12f31907bcf,,,,,,,,,,,,,,,,,,,,,,,a,1,"[""0.158"",""0.486"",""0.846"",""0.881""]","[0,1,1,1]",0,51,51,51,1,0,1,,,1,FALSE,1.5705,,,,,,,,,,,,,,,,,,,,,,,,,,,,,,,
,613a86d8c415990ab17ad4d3,627c676016f9dec1b2e31be1,2022-05-11_20h48.40.226,classification_task,2021.2.3,Win32,75.0131273,627c6715c52fd12f31907bcf,,,,,,,,,,,,,,,,,,,,,,,a,1,"[""0.159"",""0.381"",""0.613"",""0.949""]","[0,1,1,1]",0,52,52,52,1,0,0,,,1,FALSE,0.9183,,,,,,,,,,,,,,,,,,,,,,,,,,,,,,,
,613a86d8c415990ab17ad4d3,627c676016f9dec1b2e31be1,2022-05-11_20h48.40.226,classification_task,2021.2.3,Win32,75.0131273,627c6715c52fd12f31907bcf,,,,,,,,,,,,,,,,,,,,,,,l,1,"[""0.077"",""0.238"",""0.028"",""0.782""]","[1,1,0,1]",0,53,53,53,1,1,0,,,1,FALSE,0.8792,,,,,,,,,,,,,,,,,,,,,,,,,,,,,,,
,613a86d8c415990ab17ad4d3,627c676016f9dec1b2e31be1,2022-05-11_20h48.40.226,classification_task,2021.2.3,Win32,75.0131273,627c6715c52fd12f31907bcf,,,,,,,,,,,,,,,,,,,,,,,l,0,"[""0.196"",""0.486"",""0.027"",""0.881""]","[1,1,0,1]",0,54,54,54,1,0,1,,,1,FALSE,0.6281,,,,,,,,,,,,,,,,,,,,,,,,,,,,,,,
,613a86d8c415990ab17ad4d3,627c676016f9dec1b2e31be1,2022-05-11_20h48.40.226,classification_task,2021.2.3,Win32,75.0131273,627c6715c52fd12f31907bcf,,,,,,,,,,,,,,,,,,,,,,,a,0,"[""0.123"",""0.744"",""0.452"",""0.703""]","[1,0,1,1]",0,55,55,55,1,1,1,,,1,FALSE,1.6105,,,,,,,,,,,,,,,,,,,,,,,,,,,,,,,
,613a86d8c415990ab17ad4d3,627c676016f9dec1b2e31be1,2022-05-11_20h48.40.226,classification_task,2021.2.3,Win32,75.0131273,627c6715c52fd12f31907bcf,,,,,,,,,,,,,,,,,,,,,,,l,0,"[""0.196"",""0.028"",""0.846"",""0.881""]","[1,0,1,1]",0,56,56,56,1,0,1,,,1,FALSE,1.0846,,,,,,,,,,,,,,,,,,,,,,,,,,,,,,,
,613a86d8c415990ab17ad4d3,627c676016f9dec1b2e31be1,2022-05-11_20h48.40.226,classification_task,2021.2.3,Win32,75.0131273,627c6715c52fd12f31907bcf,,,,,,,,,,,,,,,,,,,,,,,l,1,"[""0.744"",""0.330"",""0.452"",""0.703""]","[0,1,1,1]",0,57,57,57,1,1,1,,,1,FALSE,1.1742,,,,,,,,,,,,,,,,,,,,,,,,,,,,,,,
,613a86d8c415990ab17ad4d3,627c676016f9dec1b2e31be1,2022-05-11_20h48.40.226,classification_task,2021.2.3,Win32,75.0131273,627c6715c52fd12f31907bcf,,,,,,,,,,,,,,,,,,,,,,,l,1,"[""0.077"",""0.158"",""0.551"",""0.782""]","[1,0,1,1]",0,58,58,58,1,1,0,,,1,FALSE,0.8992,,,,,,,,,,,,,,,,,,,,,,,,,,,,,,,
,613a86d8c415990ab17ad4d3,627c676016f9dec1b2e31be1,2022-05-11_20h48.40.226,classification_task,2021.2.3,Win32,75.0131273,627c6715c52fd12f31907bcf,,,,,,,,,,,,,,,,,,,,,,,l,0,"[""0.196"",""0.486"",""0.846"",""0.746""]","[1,1,1,0]",0,59,59,59,1,0,1,,,1,FALSE,1.5478,,,,,,,,,,,,,,,,,,,,,,,,,,,,,,,
,613a86d8c415990ab17ad4d3,627c676016f9dec1b2e31be1,2022-05-11_20h48.40.226,classification_task,2021.2.3,Win32,75.0131273,627c6715c52fd12f31907bcf,,,,,,,,,,,,,,,,,,,,,,,l,1,"[""0.123"",""0.330"",""0.452"",""0.028""]","[1,1,1,0]",0,60,60,60,1,1,1,,,1,FALSE,4.1,,,,,,,,,,,,,,,,,,,,,,,,,,,,,,,
,613a86d8c415990ab17ad4d3,627c676016f9dec1b2e31be1,2022-05-11_20h48.40.226,classification_task,2021.2.3,Win32,75.0131273,627c6715c52fd12f31907bcf,,,,,,,,,,,,,,,,,,,,,,,a,0,"[""0.158"",""0.238"",""0.551"",""0.782""]","[0,1,1,1]",0,61,61,61,1,1,0,,,1,FALSE,4.9411,,,,,,,,,,,,,,,,,,,,,,,,,,,,,,,
,613a86d8c415990ab17ad4d3,627c676016f9dec1b2e31be1,2022-05-11_20h48.40.226,classification_task,2021.2.3,Win32,75.0131273,627c6715c52fd12f31907bcf,,,,,,,,,,,,,,,,,,,,,,,a,1,"[""0.292"",""0.381"",""0.613"",""0.656""]","[1,1,1,0]",0,62,62,62,1,0,0,,,1,FALSE,3.3181,,,,,,,,,,,,,,,,,,,,,,,,,,,,,,,
,613a86d8c415990ab17ad4d3,627c676016f9dec1b2e31be1,2022-05-11_20h48.40.226,classification_task,2021.2.3,Win32,75.0131273,627c6715c52fd12f31907bcf,,,,,,,,,,,,,,,,,,,,,,,l,0,"[""0.292"",""0.746"",""0.613"",""0.949""]","[1,0,1,1]",0,63,63,63,1,0,0,,,1,FALSE,5.0064,,,,,,,,,,,,,,,,,,,,,,,,,,,,,,,
,613a86d8c415990ab17ad4d3,627c676016f9dec1b2e31be1,2022-05-11_20h48.40.226,classification_task,2021.2.3,Win32,75.0131273,627c6715c52fd12f31907bcf,,,,,,,,,,,,,,,,,,,,,,,,,,,,,,,,,,,,,,,0, ,,0,10,296.666,0,1,1,1,1,2,2,,,,,,,,,,,,,,,,,,
,613a86d8c415990ab17ad4d3,627c676016f9dec1b2e31be1,2022-05-11_20h48.40.226,classification_task,2021.2.3,Win32,75.0131273,627c6715c52fd12f31907bcf,,,,,,,,,,,,,,,,,,,,,,,,,,,,,,,,,,,,,,,1,  ,,0,10,298.8135,0,1,1,1,1,2,2,,,,,,,,,,,,,,,,,,
,613a86d8c415990ab17ad4d3,627c676016f9dec1b2e31be1,2022-05-11_20h48.40.226,classification_task,2021.2.3,Win32,75.0131273,627c6715c52fd12f31907bcf,,,,,,,,,,,,,,,,,,,,,,,,,,,,,,,,,,,,,,,2,  ,,0,8.257887517,305.1616,0,1,1,1,1,2,2,,,,,,,,,,,,,,,,,,
,613a86d8c415990ab17ad4d3,627c676016f9dec1b2e31be1,2022-05-11_20h48.40.226,classification_task,2021.2.3,Win32,75.0131273,627c6715c52fd12f31907bcf,,,,,,,,,,,,,,,,,,,,,,,,,,,,,,,,,,,,,,,,,,,,,0,1,1,1,1,,2,,,,,,,,,,,,,,,,,,
,613a86d8c415990ab17ad4d3,627c676016f9dec1b2e31be1,2022-05-11_20h48.40.226,classification_task,2021.2.3,Win32,75.0131273,627c6715c52fd12f31907bcf,,,,,,,,,,,,,,,,,,,,,space,36.489,a,1,"[""0.196"",""0.486"",""0.846"",""0.162""]","[1,1,1,0]",0,0,0,0,1,0,1,,,1,FALSE,4.3001,,,,,,,,,,,,,,,,,,,,,,,,,,,,,,,
,613a86d8c415990ab17ad4d3,627c676016f9dec1b2e31be1,2022-05-11_20h48.40.226,classification_task,2021.2.3,Win32,75.0131273,627c6715c52fd12f31907bcf,,,,,,,,,,,,,,,,,,,,,,,a,1,"[""0.744"",""0.381"",""0.613"",""0.949""]","[0,1,1,1]",0,1,1,1,1,0,0,,,1,FALSE,4.5578,,,,,,,,,,,,,,,,,,,,,,,,,,,,,,,
,613a86d8c415990ab17ad4d3,627c676016f9dec1b2e31be1,2022-05-11_20h48.40.226,classification_task,2021.2.3,Win32,75.0131273,627c6715c52fd12f31907bcf,,,,,,,,,,,,,,,,,,,,,,,l,1,"[""0.034"",""0.330"",""0.452"",""0.703""]","[0,1,1,1]",0,2,2,2,1,1,1,,,1,FALSE,2.0351,,,,,,,,,,,,,,,,,,,,,,,,,,,,,,,
,613a86d8c415990ab17ad4d3,627c676016f9dec1b2e31be1,2022-05-11_20h48.40.226,classification_task,2021.2.3,Win32,75.0131273,627c6715c52fd12f31907bcf,,,,,,,,,,,,,,,,,,,,,,,l,1,"[""0.077"",""0.238"",""0.656"",""0.782""]","[1,1,0,1]",0,3,3,3,1,1,0,,,1,FALSE,2.6262,,,,,,,,,,,,,,,,,,,,,,,,,,,,,,,
,613a86d8c415990ab17ad4d3,627c676016f9dec1b2e31be1,2022-05-11_20h48.40.226,classification_task,2021.2.3,Win32,75.0131273,627c6715c52fd12f31907bcf,,,,,,,,,,,,,,,,,,,,,,,a,1,"[""0.292"",""0.381"",""0.158"",""0.949""]","[1,1,0,1]",0,4,4,4,1,0,0,,,1,FALSE,1.9,,,,,,,,,,,,,,,,,,,,,,,,,,,,,,,
,613a86d8c415990ab17ad4d3,627c676016f9dec1b2e31be1,2022-05-11_20h48.40.226,classification_task,2021.2.3,Win32,75.0131273,627c6715c52fd12f31907bcf,,,,,,,,,,,,,,,,,,,,,,,a,0,"[""0.123"",""0.027"",""0.452"",""0.703""]","[1,0,1,1]",0,5,5,5,1,1,1,,,1,FALSE,4.1588,,,,,,,,,,,,,,,,,,,,,,,,,,,,,,,
,613a86d8c415990ab17ad4d3,627c676016f9dec1b2e31be1,2022-05-11_20h48.40.226,classification_task,2021.2.3,Win32,75.0131273,627c6715c52fd12f31907bcf,,,,,,,,,,,,,,,,,,,,,,,a,1,"[""0.744"",""0.486"",""0.846"",""0.881""]","[0,1,1,1]",0,6,6,6,1,0,1,,,1,FALSE,4.5277,,,,,,,,,,,,,,,,,,,,,,,,,,,,,,,
,613a86d8c415990ab17ad4d3,627c676016f9dec1b2e31be1,2022-05-11_20h48.40.226,classification_task,2021.2.3,Win32,75.0131273,627c6715c52fd12f31907bcf,,,,,,,,,,,,,,,,,,,,,,,l,0,"[""0.196"",""0.486"",""0.418"",""0.881""]","[1,1,0,1]",0,7,7,7,1,0,1,,,1,FALSE,2.144,,,,,,,,,,,,,,,,,,,,,,,,,,,,,,,
,613a86d8c415990ab17ad4d3,627c676016f9dec1b2e31be1,2022-05-11_20h48.40.226,classification_task,2021.2.3,Win32,75.0131273,627c6715c52fd12f31907bcf,,,,,,,,,,,,,,,,,,,,,,,l,1,"[""0.077"",""0.028"",""0.551"",""0.782""]","[1,0,1,1]",0,8,8,8,1,1,0,,,1,FALSE,1.1074,,,,,,,,,,,,,,,,,,,,,,,,,,,,,,,
,613a86d8c415990ab17ad4d3,627c676016f9dec1b2e31be1,2022-05-11_20h48.40.226,classification_task,2021.2.3,Win32,75.0131273,627c6715c52fd12f31907bcf,,,,,,,,,,,,,,,,,,,,,,,a,1,"[""0.292"",""0.746"",""0.613"",""0.949""]","[1,0,1,1]",0,9,9,9,1,0,0,,,1,FALSE,1.263,,,,,,,,,,,,,,,,,,,,,,,,,,,,,,,
,613a86d8c415990ab17ad4d3,627c676016f9dec1b2e31be1,2022-05-11_20h48.40.226,classification_task,2021.2.3,Win32,75.0131273,627c6715c52fd12f31907bcf,,,,,,,,,,,,,,,,,,,,,,,a,1,"[""0.196"",""0.159"",""0.846"",""0.881""]","[1,0,1,1]",0,10,10,10,1,0,1,,,1,FALSE,3.4023,,,,,,,,,,,,,,,,,,,,,,,,,,,,,,,
,613a86d8c415990ab17ad4d3,627c676016f9dec1b2e31be1,2022-05-11_20h48.40.226,classification_task,2021.2.3,Win32,75.0131273,627c6715c52fd12f31907bcf,,,,,,,,,,,,,,,,,,,,,,,l,1,"[""0.123"",""0.330"",""0.158"",""0.703""]","[1,1,0,1]",0,11,11,11,1,1,1,,,1,FALSE,6.3805,,,,,,,,,,,,,,,,,,,,,,,,,,,,,,,
,613a86d8c415990ab17ad4d3,627c676016f9dec1b2e31be1,2022-05-11_20h48.40.226,classification_task,2021.2.3,Win32,75.0131273,627c6715c52fd12f31907bcf,,,,,,,,,,,,,,,,,,,,,,,l,1,"[""0.123"",""0.330"",""0.452"",""0.656""]","[1,1,1,0]",0,12,12,12,1,1,1,,,1,FALSE,1.4594,,,,,,,,,,,,,,,,,,,,,,,,,,,,,,,
,613a86d8c415990ab17ad4d3,627c676016f9dec1b2e31be1,2022-05-11_20h48.40.226,classification_task,2021.2.3,Win32,75.0131273,627c6715c52fd12f31907bcf,,,,,,,,,,,,,,,,,,,,,,,l,1,"[""0.028"",""0.238"",""0.551"",""0.782""]","[0,1,1,1]",0,13,13,13,1,1,0,,,1,FALSE,2.8275,,,,,,,,,,,,,,,,,,,,,,,,,,,,,,,
,613a86d8c415990ab17ad4d3,627c676016f9dec1b2e31be1,2022-05-11_20h48.40.226,classification_task,2021.2.3,Win32,75.0131273,627c6715c52fd12f31907bcf,,,,,,,,,,,,,,,,,,,,,,,l,0,"[""0.292"",""0.381"",""0.613"",""0.160""]","[1,1,1,0]",0,14,14,14,1,0,0,,,1,FALSE,1.607,,,,,,,,,,,,,,,,,,,,,,,,,,,,,,,
,613a86d8c415990ab17ad4d3,627c676016f9dec1b2e31be1,2022-05-11_20h48.40.226,classification_task,2021.2.3,Win32,75.0131273,627c6715c52fd12f31907bcf,,,,,,,,,,,,,,,,,,,,,,,l,1,"[""0.077"",""0.238"",""0.551"",""0.027""]","[1,1,1,0]",0,15,15,15,1,1,0,,,1,FALSE,0.8559,,,,,,,,,,,,,,,,,,,,,,,,,,,,,,,
,613a86d8c415990ab17ad4d3,627c676016f9dec1b2e31be1,2022-05-11_20h48.40.226,classification_task,2021.2.3,Win32,75.0131273,627c6715c52fd12f31907bcf,,,,,,,,,,,,,,,,,,,,,,,a,0,"[""0.158"",""0.330"",""0.452"",""0.703""]","[0,1,1,1]",0,16,16,16,1,1,1,,,1,FALSE,1.1211,,,,,,,,,,,,,,,,,,,,,,,,,,,,,,,
,613a86d8c415990ab17ad4d3,627c676016f9dec1b2e31be1,2022-05-11_20h48.40.226,classification_task,2021.2.3,Win32,75.0131273,627c6715c52fd12f31907bcf,,,,,,,,,,,,,,,,,,,,,,,l,1,"[""0.077"",""0.238"",""0.551"",""0.746""]","[1,1,1,0]",0,17,17,17,1,1,0,,,1,FALSE,2.5871,,,,,,,,,,,,,,,,,,,,,,,,,,,,,,,
,613a86d8c415990ab17ad4d3,627c676016f9dec1b2e31be1,2022-05-11_20h48.40.226,classification_task,2021.2.3,Win32,75.0131273,627c6715c52fd12f31907bcf,,,,,,,,,,,,,,,,,,,,,,,a,1,"[""0.292"",""0.651"",""0.613"",""0.949""]","[1,0,1,1]",0,18,18,18,1,0,0,,,1,FALSE,0.5659,,,,,,,,,,,,,,,,,,,,,,,,,,,,,,,
,613a86d8c415990ab17ad4d3,627c676016f9dec1b2e31be1,2022-05-11_20h48.40.226,classification_task,2021.2.3,Win32,75.0131273,627c6715c52fd12f31907bcf,,,,,,,,,,,,,,,,,,,,,,,a,0,"[""0.123"",""0.330"",""0.027"",""0.703""]","[1,1,0,1]",0,19,19,19,1,1,1,,,1,FALSE,2.0555,,,,,,,,,,,,,,,,,,,,,,,,,,,,,,,
,613a86d8c415990ab17ad4d3,627c676016f9dec1b2e31be1,2022-05-11_20h48.40.226,classification_task,2021.2.3,Win32,75.0131273,627c6715c52fd12f31907bcf,,,,,,,,,,,,,,,,,,,,,,,l,0,"[""0.034"",""0.486"",""0.846"",""0.881""]","[0,1,1,1]",0,20,20,20,1,0,1,,,1,FALSE,1.5787,,,,,,,,,,,,,,,,,,,,,,,,,,,,,,,
,613a86d8c415990ab17ad4d3,627c676016f9dec1b2e31be1,2022-05-11_20h48.40.226,classification_task,2021.2.3,Win32,75.0131273,627c6715c52fd12f31907bcf,,,,,,,,,,,,,,,,,,,,,,,l,1,"[""0.123"",""0.651"",""0.452"",""0.703""]","[1,0,1,1]",0,21,21,21,1,1,1,,,1,FALSE,2.3262,,,,,,,,,,,,,,,,,,,,,,,,,,,,,,,
,613a86d8c415990ab17ad4d3,627c676016f9dec1b2e31be1,2022-05-11_20h48.40.226,classification_task,2021.2.3,Win32,75.0131273,627c6715c52fd12f31907bcf,,,,,,,,,,,,,,,,,,,,,,,l,1,"[""0.077"",""0.238"",""0.658"",""0.782""]","[1,1,0,1]",0,22,22,22,1,1,0,,,1,FALSE,2.5597,,,,,,,,,,,,,,,,,,,,,,,,,,,,,,,
,613a86d8c415990ab17ad4d3,627c676016f9dec1b2e31be1,2022-05-11_20h48.40.226,classification_task,2021.2.3,Win32,75.0131273,627c6715c52fd12f31907bcf,,,,,,,,,,,,,,,,,,,,,,,l,1,"[""0.077"",""0.160"",""0.551"",""0.782""]","[1,0,1,1]",0,23,23,23,1,1,0,,,1,FALSE,1.1945,,,,,,,,,,,,,,,,,,,,,,,,,,,,,,,
,613a86d8c415990ab17ad4d3,627c676016f9dec1b2e31be1,2022-05-11_20h48.40.226,classification_task,2021.2.3,Win32,75.0131273,627c6715c52fd12f31907bcf,,,,,,,,,,,,,,,,,,,,,,,l,0,"[""0.196"",""0.158"",""0.846"",""0.881""]","[1,0,1,1]",0,24,24,24,1,0,1,,,1,FALSE,1.3217,,,,,,,,,,,,,,,,,,,,,,,,,,,,,,,
,613a86d8c415990ab17ad4d3,627c676016f9dec1b2e31be1,2022-05-11_20h48.40.226,classification_task,2021.2.3,Win32,75.0131273,627c6715c52fd12f31907bcf,,,,,,,,,,,,,,,,,,,,,,,a,1,"[""0.292"",""0.381"",""0.613"",""0.746""]","[1,1,1,0]",0,25,25,25,1,0,0,,,1,FALSE,1.1468,,,,,,,,,,,,,,,,,,,,,,,,,,,,,,,
,613a86d8c415990ab17ad4d3,627c676016f9dec1b2e31be1,2022-05-11_20h48.40.226,classification_task,2021.2.3,Win32,75.0131273,627c6715c52fd12f31907bcf,,,,,,,,,,,,,,,,,,,,,,,a,1,"[""0.158"",""0.381"",""0.613"",""0.949""]","[0,1,1,1]",0,26,26,26,1,0,0,,,1,FALSE,1.1201,,,,,,,,,,,,,,,,,,,,,,,,,,,,,,,
,613a86d8c415990ab17ad4d3,627c676016f9dec1b2e31be1,2022-05-11_20h48.40.226,classification_task,2021.2.3,Win32,75.0131273,627c6715c52fd12f31907bcf,,,,,,,,,,,,,,,,,,,,,,,a,0,"[""0.123"",""0.330"",""0.452"",""0.418""]","[1,1,1,0]",0,27,27,27,1,1,1,,,1,FALSE,1.3632,,,,,,,,,,,,,,,,,,,,,,,,,,,,,,,
,613a86d8c415990ab17ad4d3,627c676016f9dec1b2e31be1,2022-05-11_20h48.40.226,classification_task,2021.2.3,Win32,75.0131273,627c6715c52fd12f31907bcf,,,,,,,,,,,,,,,,,,,,,,,a,1,"[""0.196"",""0.486"",""0.160"",""0.881""]","[1,1,0,1]",0,28,28,28,1,0,1,,,1,FALSE,2.154,,,,,,,,,,,,,,,,,,,,,,,,,,,,,,,
,613a86d8c415990ab17ad4d3,627c676016f9dec1b2e31be1,2022-05-11_20h48.40.226,classification_task,2021.2.3,Win32,75.0131273,627c6715c52fd12f31907bcf,,,,,,,,,,,,,,,,,,,,,,,l,0,"[""0.196"",""0.486"",""0.846"",""0.034""]","[1,1,1,0]",0,29,29,29,1,0,1,,,1,FALSE,1.1067,,,,,,,,,,,,,,,,,,,,,,,,,,,,,,,
,613a86d8c415990ab17ad4d3,627c676016f9dec1b2e31be1,2022-05-11_20h48.40.226,classification_task,2021.2.3,Win32,75.0131273,627c6715c52fd12f31907bcf,,,,,,,,,,,,,,,,,,,,,,,l,1,"[""0.028"",""0.238"",""0.551"",""0.782""]","[0,1,1,1]",0,30,30,30,1,1,0,,,1,FALSE,0.9191,,,,,,,,,,,,,,,,,,,,,,,,,,,,,,,
,613a86d8c415990ab17ad4d3,627c676016f9dec1b2e31be1,2022-05-11_20h48.40.226,classification_task,2021.2.3,Win32,75.0131273,627c6715c52fd12f31907bcf,,,,,,,,,,,,,,,,,,,,,,,a,1,"[""0.292"",""0.381"",""0.028"",""0.949""]","[1,1,0,1]",0,31,31,31,1,0,0,,,1,FALSE,1.1209,,,,,,,,,,,,,,,,,,,,,,,,,,,,,,,
,613a86d8c415990ab17ad4d3,627c676016f9dec1b2e31be1,2022-05-11_20h48.40.226,classification_task,2021.2.3,Win32,75.0131273,627c6715c52fd12f31907bcf,,,,,,,,,,,,,,,,,,,,,,,l,1,"[""0.077"",""0.238"",""0.551"",""0.647""]","[1,1,1,0]",0,32,32,32,1,1,0,,,1,FALSE,2.0672,,,,,,,,,,,,,,,,,,,,,,,,,,,,,,,
,613a86d8c415990ab17ad4d3,627c676016f9dec1b2e31be1,2022-05-11_20h48.40.226,classification_task,2021.2.3,Win32,75.0131273,627c6715c52fd12f31907bcf,,,,,,,,,,,,,,,,,,,,,,,a,0,"[""0.123"",""0.027"",""0.452"",""0.703""]","[1,0,1,1]",0,33,33,33,1,1,1,,,1,FALSE,1.7737,,,,,,,,,,,,,,,,,,,,,,,,,,,,,,,
,613a86d8c415990ab17ad4d3,627c676016f9dec1b2e31be1,2022-05-11_20h48.40.226,classification_task,2021.2.3,Win32,75.0131273,627c6715c52fd12f31907bcf,,,,,,,,,,,,,,,,,,,,,,,a,0,"[""0.077"",""0.238"",""0.027"",""0.782""]","[1,1,0,1]",0,34,34,34,1,1,0,,,1,FALSE,2.4274,,,,,,,,,,,,,,,,,,,,,,,,,,,,,,,
,613a86d8c415990ab17ad4d3,627c676016f9dec1b2e31be1,2022-05-11_20h48.40.226,classification_task,2021.2.3,Win32,75.0131273,627c6715c52fd12f31907bcf,,,,,,,,,,,,,,,,,,,,,,,l,1,"[""0.123"",""0.330"",""0.658"",""0.703""]","[1,1,0,1]",0,35,35,35,1,1,1,,,1,FALSE,3.5661,,,,,,,,,,,,,,,,,,,,,,,,,,,,,,,
,613a86d8c415990ab17ad4d3,627c676016f9dec1b2e31be1,2022-05-11_20h48.40.226,classification_task,2021.2.3,Win32,75.0131273,627c6715c52fd12f31907bcf,,,,,,,,,,,,,,,,,,,,,,,a,1,"[""0.292"",""0.027"",""0.613"",""0.949""]","[1,0,1,1]",0,36,36,36,1,0,0,,,1,FALSE,1.7807,,,,,,,,,,,,,,,,,,,,,,,,,,,,,,,
,613a86d8c415990ab17ad4d3,627c676016f9dec1b2e31be1,2022-05-11_20h48.40.226,classification_task,2021.2.3,Win32,75.0131273,627c6715c52fd12f31907bcf,,,,,,,,,,,,,,,,,,,,,,,a,1,"[""0.744"",""0.486"",""0.846"",""0.881""]","[0,1,1,1]",0,37,37,37,1,0,1,,,1,FALSE,2.5261,,,,,,,,,,,,,,,,,,,,,,,,,,,,,,,
,613a86d8c415990ab17ad4d3,627c676016f9dec1b2e31be1,2022-05-11_20h48.40.226,classification_task,2021.2.3,Win32,75.0131273,627c6715c52fd12f31907bcf,,,,,,,,,,,,,,,,,,,,,,,a,1,"[""0.196"",""0.486"",""0.162"",""0.881""]","[1,1,0,1]",0,38,38,38,1,0,1,,,1,FALSE,1.1422,,,,,,,,,,,,,,,,,,,,,,,,,,,,,,,
,613a86d8c415990ab17ad4d3,627c676016f9dec1b2e31be1,2022-05-11_20h48.40.226,classification_task,2021.2.3,Win32,75.0131273,627c6715c52fd12f31907bcf,,,,,,,,,,,,,,,,,,,,,,,a,1,"[""0.196"",""0.486"",""0.846"",""0.657""]","[1,1,1,0]",0,39,39,39,1,0,1,,,1,FALSE,1.42,,,,,,,,,,,,,,,,,,,,,,,,,,,,,,,
,613a86d8c415990ab17ad4d3,627c676016f9dec1b2e31be1,2022-05-11_20h48.40.226,classification_task,2021.2.3,Win32,75.0131273,627c6715c52fd12f31907bcf,,,,,,,,,,,,,,,,,,,,,,,l,1,"[""0.077"",""0.647"",""0.551"",""0.782""]","[1,0,1,1]",0,40,40,40,1,1,0,,,1,FALSE,1.5112,,,,,,,,,,,,,,,,,,,,,,,,,,,,,,,
,613a86d8c415990ab17ad4d3,627c676016f9dec1b2e31be1,2022-05-11_20h48.40.226,classification_task,2021.2.3,Win32,75.0131273,627c6715c52fd12f31907bcf,,,,,,,,,,,,,,,,,,,,,,,l,0,"[""0.292"",""0.381"",""0.027"",""0.949""]","[1,1,0,1]",0,41,41,41,1,0,0,,,1,FALSE,2.1581,,,,,,,,,,,,,,,,,,,,,,,,,,,,,,,
,613a86d8c415990ab17ad4d3,627c676016f9dec1b2e31be1,2022-05-11_20h48.40.226,classification_task,2021.2.3,Win32,75.0131273,627c6715c52fd12f31907bcf,,,,,,,,,,,,,,,,,,,,,,,a,0,"[""0.123"",""0.330"",""0.452"",""0.028""]","[1,1,1,0]",0,42,42,42,1,1,1,,,1,FALSE,1.511,,,,,,,,,,,,,,,,,,,,,,,,,,,,,,,
,613a86d8c415990ab17ad4d3,627c676016f9dec1b2e31be1,2022-05-11_20h48.40.226,classification_task,2021.2.3,Win32,75.0131273,627c6715c52fd12f31907bcf,,,,,,,,,,,,,,,,,,,,,,,a,1,"[""0.162"",""0.381"",""0.613"",""0.949""]","[0,1,1,1]",0,43,43,43,1,0,0,,,1,FALSE,0.9191,,,,,,,,,,,,,,,,,,,,,,,,,,,,,,,
,613a86d8c415990ab17ad4d3,627c676016f9dec1b2e31be1,2022-05-11_20h48.40.226,classification_task,2021.2.3,Win32,75.0131273,627c6715c52fd12f31907bcf,,,,,,,,,,,,,,,,,,,,,,,a,0,"[""0.027"",""0.330"",""0.452"",""0.703""]","[0,1,1,1]",0,44,44,44,1,1,1,,,1,FALSE,1.148,,,,,,,,,,,,,,,,,,,,,,,,,,,,,,,
,613a86d8c415990ab17ad4d3,627c676016f9dec1b2e31be1,2022-05-11_20h48.40.226,classification_task,2021.2.3,Win32,75.0131273,627c6715c52fd12f31907bcf,,,,,,,,,,,,,,,,,,,,,,,l,0,"[""0.292"",""0.381"",""0.613"",""0.160""]","[1,1,1,0]",0,45,45,45,1,0,0,,,1,FALSE,0.8802,,,,,,,,,,,,,,,,,,,,,,,,,,,,,,,
,613a86d8c415990ab17ad4d3,627c676016f9dec1b2e31be1,2022-05-11_20h48.40.226,classification_task,2021.2.3,Win32,75.0131273,627c6715c52fd12f31907bcf,,,,,,,,,,,,,,,,,,,,,,,l,0,"[""0.196"",""0.656"",""0.846"",""0.881""]","[1,0,1,1]",0,46,46,46,1,0,1,,,1,FALSE,1.9039,,,,,,,,,,,,,,,,,,,,,,,,,,,,,,,
,613a86d8c415990ab17ad4d3,627c676016f9dec1b2e31be1,2022-05-11_20h48.40.226,classification_task,2021.2.3,Win32,75.0131273,627c6715c52fd12f31907bcf,,,,,,,,,,,,,,,,,,,,,,,a,0,"[""0.034"",""0.238"",""0.551"",""0.782""]","[0,1,1,1]",0,47,47,47,1,1,0,,,1,FALSE,1.3759,,,,,,,,,,,,,,,,,,,,,,,,,,,,,,,
,613a86d8c415990ab17ad4d3,627c676016f9dec1b2e31be1,2022-05-11_20h48.40.226,classification_task,2021.2.3,Win32,75.0131273,627c6715c52fd12f31907bcf,,,,,,,,,,,,,,,,,,,,,,,a,0,"[""0.656"",""0.330"",""0.452"",""0.703""]","[0,1,1,1]",0,48,48,48,1,1,1,,,1,FALSE,2.3145,,,,,,,,,,,,,,,,,,,,,,,,,,,,,,,
,613a86d8c415990ab17ad4d3,627c676016f9dec1b2e31be1,2022-05-11_20h48.40.226,classification_task,2021.2.3,Win32,75.0131273,627c6715c52fd12f31907bcf,,,,,,,,,,,,,,,,,,,,,,,l,0,"[""0.158"",""0.381"",""0.613"",""0.949""]","[0,1,1,1]",0,49,49,49,1,0,0,,,1,FALSE,1.6765,,,,,,,,,,,,,,,,,,,,,,,,,,,,,,,
,613a86d8c415990ab17ad4d3,627c676016f9dec1b2e31be1,2022-05-11_20h48.40.226,classification_task,2021.2.3,Win32,75.0131273,627c6715c52fd12f31907bcf,,,,,,,,,,,,,,,,,,,,,,,l,0,"[""0.196"",""0.486"",""0.034"",""0.881""]","[1,1,0,1]",0,50,50,50,1,0,1,,,1,FALSE,2.1533,,,,,,,,,,,,,,,,,,,,,,,,,,,,,,,
,613a86d8c415990ab17ad4d3,627c676016f9dec1b2e31be1,2022-05-11_20h48.40.226,classification_task,2021.2.3,Win32,75.0131273,627c6715c52fd12f31907bcf,,,,,,,,,,,,,,,,,,,,,,,l,0,"[""0.196"",""0.746"",""0.846"",""0.881""]","[1,0,1,1]",0,51,51,51,1,0,1,,,1,FALSE,1.5452,,,,,,,,,,,,,,,,,,,,,,,,,,,,,,,
,613a86d8c415990ab17ad4d3,627c676016f9dec1b2e31be1,2022-05-11_20h48.40.226,classification_task,2021.2.3,Win32,75.0131273,627c6715c52fd12f31907bcf,,,,,,,,,,,,,,,,,,,,,,,l,0,"[""0.196"",""0.486"",""0.846"",""0.162""]","[1,1,1,0]",0,52,52,52,1,0,1,,,1,FALSE,0.8815,,,,,,,,,,,,,,,,,,,,,,,,,,,,,,,
,613a86d8c415990ab17ad4d3,627c676016f9dec1b2e31be1,2022-05-11_20h48.40.226,classification_task,2021.2.3,Win32,75.0131273,627c6715c52fd12f31907bcf,,,,,,,,,,,,,,,,,,,,,,,a,0,"[""0.077"",""0.238"",""0.746"",""0.782""]","[1,1,0,1]",0,53,53,53,1,1,0,,,1,FALSE,1.5565,,,,,,,,,,,,,,,,,,,,,,,,,,,,,,,
,613a86d8c415990ab17ad4d3,627c676016f9dec1b2e31be1,2022-05-11_20h48.40.226,classification_task,2021.2.3,Win32,75.0131273,627c6715c52fd12f31907bcf,,,,,,,,,,,,,,,,,,,,,,,a,0,"[""0.744"",""0.238"",""0.551"",""0.782""]","[0,1,1,1]",0,54,54,54,1,1,0,,,1,FALSE,1.3274,,,,,,,,,,,,,,,,,,,,,,,,,,,,,,,
,613a86d8c415990ab17ad4d3,627c676016f9dec1b2e31be1,2022-05-11_20h48.40.226,classification_task,2021.2.3,Win32,75.0131273,627c6715c52fd12f31907bcf,,,,,,,,,,,,,,,,,,,,,,,a,1,"[""0.028"",""0.486"",""0.846"",""0.881""]","[0,1,1,1]",0,55,55,55,1,0,1,,,1,FALSE,1.1592,,,,,,,,,,,,,,,,,,,,,,,,,,,,,,,
,613a86d8c415990ab17ad4d3,627c676016f9dec1b2e31be1,2022-05-11_20h48.40.226,classification_task,2021.2.3,Win32,75.0131273,627c6715c52fd12f31907bcf,,,,,,,,,,,,,,,,,,,,,,,l,0,"[""0.292"",""0.381"",""0.613"",""0.418""]","[1,1,1,0]",0,56,56,56,1,0,0,,,1,FALSE,1.0809,,,,,,,,,,,,,,,,,,,,,,,,,,,,,,,
,613a86d8c415990ab17ad4d3,627c676016f9dec1b2e31be1,2022-05-11_20h48.40.226,classification_task,2021.2.3,Win32,75.0131273,627c6715c52fd12f31907bcf,,,,,,,,,,,,,,,,,,,,,,,a,0,"[""0.077"",""0.657"",""0.551"",""0.782""]","[1,0,1,1]",0,57,57,57,1,1,0,,,1,FALSE,0.8675,,,,,,,,,,,,,,,,,,,,,,,,,,,,,,,
,613a86d8c415990ab17ad4d3,627c676016f9dec1b2e31be1,2022-05-11_20h48.40.226,classification_task,2021.2.3,Win32,75.0131273,627c6715c52fd12f31907bcf,,,,,,,,,,,,,,,,,,,,,,,l,1,"[""0.123"",""0.330"",""0.452"",""0.418""]","[1,1,1,0]",0,58,58,58,1,1,1,,,1,FALSE,1.347,,,,,,,,,,,,,,,,,,,,,,,,,,,,,,,
,613a86d8c415990ab17ad4d3,627c676016f9dec1b2e31be1,2022-05-11_20h48.40.226,classification_task,2021.2.3,Win32,75.0131273,627c6715c52fd12f31907bcf,,,,,,,,,,,,,,,,,,,,,,,l,0,"[""0.292"",""0.656"",""0.613"",""0.949""]","[1,0,1,1]",0,59,59,59,1,0,0,,,1,FALSE,1.3335,,,,,,,,,,,,,,,,,,,,,,,,,,,,,,,
,613a86d8c415990ab17ad4d3,627c676016f9dec1b2e31be1,2022-05-11_20h48.40.226,classification_task,2021.2.3,Win32,75.0131273,627c6715c52fd12f31907bcf,,,,,,,,,,,,,,,,,,,,,,,l,0,"[""0.292"",""0.381"",""0.657"",""0.949""]","[1,1,0,1]",0,60,60,60,1,0,0,,,1,FALSE,0.6544,,,,,,,,,,,,,,,,,,,,,,,,,,,,,,,
,613a86d8c415990ab17ad4d3,627c676016f9dec1b2e31be1,2022-05-11_20h48.40.226,classification_task,2021.2.3,Win32,75.0131273,627c6715c52fd12f31907bcf,,,,,,,,,,,,,,,,,,,,,,,a,0,"[""0.123"",""0.656"",""0.452"",""0.703""]","[1,0,1,1]",0,61,61,61,1,1,1,,,1,FALSE,1.0678,,,,,,,,,,,,,,,,,,,,,,,,,,,,,,,
,613a86d8c415990ab17ad4d3,627c676016f9dec1b2e31be1,2022-05-11_20h48.40.226,classification_task,2021.2.3,Win32,75.0131273,627c6715c52fd12f31907bcf,,,,,,,,,,,,,,,,,,,,,,,l,1,"[""0.077"",""0.238"",""0.551"",""0.027""]","[1,1,1,0]",0,62,62,62,1,1,0,,,1,FALSE,0.813,,,,,,,,,,,,,,,,,,,,,,,,,,,,,,,
,613a86d8c415990ab17ad4d3,627c676016f9dec1b2e31be1,2022-05-11_20h48.40.226,classification_task,2021.2.3,Win32,75.0131273,627c6715c52fd12f31907bcf,,,,,,,,,,,,,,,,,,,,,,,a,0,"[""0.123"",""0.330"",""0.418"",""0.703""]","[1,1,0,1]",0,63,63,63,1,1,1,,,1,FALSE,0.8146,,,,,,,,,,,,,,,,,,,,,,,,,,,,,,,
,613a86d8c415990ab17ad4d3,627c676016f9dec1b2e31be1,2022-05-11_20h48.40.226,classification_task,2021.2.3,Win32,75.0131273,627c6715c52fd12f31907bcf,,,,,,,,,,,,,,,,,,,,,,,,,,,,,,,,,,,,,,,0, ,,0,10,223.992,0,2,2,2,1,2,3,,,,,,,,,,,,,,,,,,
,613a86d8c415990ab17ad4d3,627c676016f9dec1b2e31be1,2022-05-11_20h48.40.226,classification_task,2021.2.3,Win32,75.0131273,627c6715c52fd12f31907bcf,,,,,,,,,,,,,,,,,,,,,,,,,,,,,,,,,,,,,,,1,  ,,0,10,225.0094,0,2,2,2,1,2,3,,,,,,,,,,,,,,,,,,
,613a86d8c415990ab17ad4d3,627c676016f9dec1b2e31be1,2022-05-11_20h48.40.226,classification_task,2021.2.3,Win32,75.0131273,627c6715c52fd12f31907bcf,,,,,,,,,,,,,,,,,,,,,,,,,,,,,,,,,,,,,,,2,  ,,0,10,225.918,0,2,2,2,1,2,3,,,,,,,,,,,,,,,,,,
,613a86d8c415990ab17ad4d3,627c676016f9dec1b2e31be1,2022-05-11_20h48.40.226,classification_task,2021.2.3,Win32,75.0131273,627c6715c52fd12f31907bcf,,,,,,,,,,,,,,,,,,,,,,,,,,,,,,,,,,,,,,,,,,,,,0,2,2,2,1,,3,,,,,,,,,,,,,,,,,,
,613a86d8c415990ab17ad4d3,627c676016f9dec1b2e31be1,2022-05-11_20h48.40.226,classification_task,2021.2.3,Win32,75.0131273,627c6715c52fd12f31907bcf,,,,,,,,,,,,,,,,,,,,,,,,,,,,,,,,,,,,,,,,,,,,,,,,,,,,,I believe the aid is a competent performer,,0.7,0,4,1189.2759,0,0,0,0,1,0,,,,,
,613a86d8c415990ab17ad4d3,627c676016f9dec1b2e31be1,2022-05-11_20h48.40.226,classification_task,2021.2.3,Win32,75.0131273,627c6715c52fd12f31907bcf,,,,,,,,,,,,,,,,,,,,,,,,,,,,,,,,,,,,,,,,,,,,,,,,,,,,,I trust the aid,,0.7,0,4,1192.693,0,0,0,0,1,0,,,,,
,613a86d8c415990ab17ad4d3,627c676016f9dec1b2e31be1,2022-05-11_20h48.40.226,classification_task,2021.2.3,Win32,75.0131273,627c6715c52fd12f31907bcf,,,,,,,,,,,,,,,,,,,,,,,,,,,,,,,,,,,,,,,,,,,,,,,,,,,,,I have confidence in the advice given by the aid,,0.7,0,5,1193.4569,0,0,0,0,1,0,,,,,
,613a86d8c415990ab17ad4d3,627c676016f9dec1b2e31be1,2022-05-11_20h48.40.226,classification_task,2021.2.3,Win32,75.0131273,627c6715c52fd12f31907bcf,,,,,,,,,,,,,,,,,,,,,,,,,,,,,,,,,,,,,,,,,,,,,,,,,,,,,I can depend on the aid,,0.7,0,4,1195.4889,0,0,0,0,1,0,,,,,
,613a86d8c415990ab17ad4d3,627c676016f9dec1b2e31be1,2022-05-11_20h48.40.226,classification_task,2021.2.3,Win32,75.0131273,627c6715c52fd12f31907bcf,,,,,,,,,,,,,,,,,,,,,,,,,,,,,,,,,,,,,,,,,,,,,,,,,,,,,I can rely on the aid to behave in consistent ways,,0.7,0,5,1200.8845,0,0,0,0,1,0,,,,,
,613a86d8c415990ab17ad4d3,627c676016f9dec1b2e31be1,2022-05-11_20h48.40.226,classification_task,2021.2.3,Win32,75.0131273,627c6715c52fd12f31907bcf,,,,,,,,,,,,,,,,,,,,,,,,,,,,,,,,,,,,,,,,,,,,,,,,,,,,,I can rely on the aid to do its best every time I take its advice,,0.7,0,5,1203.5488,0,0,0,0,1,0,,,,,
,613a86d8c415990ab17ad4d3,627c676016f9dec1b2e31be1,2022-05-11_20h48.40.226,classification_task,2021.2.3,Win32,75.0131273,627c6715c52fd12f31907bcf,,,,,,,,,,,,,,,,,,,,,,,,,,,,,,,,,,,,,,,,,,,,,,,,,,,,,"On trials you completed with assistance from the aid, how frequently did you think the aid was correct?",,0.7,0,85%,,0,0,0,0,1,0,,,,,
,613a86d8c415990ab17ad4d3,627c676016f9dec1b2e31be1,2022-05-11_20h48.40.226,classification_task,2021.2.3,Win32,75.0131273,627c6715c52fd12f31907bcf,,,,,,,,,,,,,,,,,,,,,,,,,,,,,,,,,,,,,,,,,,,,,,,,,,,,,"On trials you completed without the aid, how frequently did you think you were correct?",,0.7,0,25%,,0,0,0,0,1,0,,,,,
,613a86d8c415990ab17ad4d3,627c676016f9dec1b2e31be1,2022-05-11_20h48.40.226,classification_task,2021.2.3,Win32,75.0131273,627c6715c52fd12f31907bcf,,,,,,,,,,,,,,,,,,,,,,,,,,,,,,,,,,,,,,,,,,,,,,,,,,,,,,,,,,,0,0,0,0,1,,,,,,
,613a86d8c415990ab17ad4d3,627c676016f9dec1b2e31be1,2022-05-11_20h48.40.226,classification_task,2021.2.3,Win32,75.0131273,627c6715c52fd12f31907bcf,,,,,,,,,,,,,,,,,,,,,,,,,,,,,,,,,,,,,,,,,,,,,,,,,,,,,,,,,,,,,,,,,space,2.4402,1228.1589,,
,613a86d8c415990ab17ad4d3,627c676016f9dec1b2e31be1,2022-05-11_20h48.40.226,classification_task,2021.2.3,Win32,75.0131273,627c6715c52fd12f31907bcf,,,,,,,,,,,,,,,,,,,,,,,,,,,,,,,,,,,,,,,,,,,,,,,,,,,,,,,,,,,,,,,,,,,,"Mozilla/5.0 (Windows NT 10.0; Win64; x64) AppleWebKit/537.36 (KHTML, like Gecko) Chrome/101.0.4951.54 Safari/537.36",
,613a86d8c415990ab17ad4d3,627c676016f9dec1b2e31be1,2022-05-11_20h48.40.226,classification_task,2021.2.3,Win32,75.0131273,627c6715c52fd12f31907bcf,,,,,,,,,,,,,,,,,,,,,,,,,,,,,,,,,,,,,,,,,,,,,,,,,,,,,,,,,,,,,,,,,,,,,LOWLIGHT
