usingWebGL,participant,session,date,expName,psychopyVersion,OS,frameRate,PROLIFIC_PID,STUDY_ID,SESSION_ID,signatures_friend,signatures_foe,band_ranges_top,band_ranges_bottom,formitemText,formtype,formundefined,formitemWidth,formindex,formresponse,formrt,key_resp_2.keys,key_resp_2.rt,tute_resp.keys,tute_resp.rt,tutorial.thisRepN,tutorial.thisTrialN,tutorial.thisN,tutorial.thisIndex,tutorial.ran,key_resp_4.keys,key_resp_4.rt,key_resp.keys,key_resp.corr,key_resp.rt,lines_presented,is_signal_presented,trials.thisRepN,trials.thisTrialN,trials.thisN,trials.thisIndex,trials.ran,vessel,active_band,lines,is_signal,supported_pos,catch_trial,debrief_formindex,debrief_formitemText,debrief_formtype,debrief_formitemWidth,debrief_formresponse,debrief_formrt,phases.thisRepN,phases.thisTrialN,phases.thisN,phases.thisIndex,phases.ran,phases.order,phase,key_resp_3.keys,trustitemText,trusttype,trustitemWidth,trustindex,trustresponse,trustrt,support_status.thisRepN,support_status.thisTrialN,support_status.thisN,support_status.thisIndex,support_status.ran,support_status.order,key_resp_5.keys,key_resp_5.rt,globalClockTime,userAgent
TRUE,613a80b393cb8128b75cda11,001,2022-04-28_20h17.14.321,classification_task,2021.2.3,Win32,59.92329818,613a80b393cb8128b75cda11,626b377229c10585ec392f8a,626b3c6513a9fc669217ae5a,,,,,,,,,,,,,,,,,,,,,,,,,,,,,,,,,,,,,,,,,,,,,,,,,,,,,,,,,,,,,,,,,,,,
,613a80b393cb8128b75cda11,001,2022-04-28_20h17.14.321,classification_task,2021.2.3,Win32,59.92329818,613a80b393cb8128b75cda11,626b377229c10585ec392f8a,626b3c6513a9fc669217ae5a,"[[""0.326"",""0.524"",""0.874"",""0.946""],[""0.163"",""0.441"",""0.630"",""0.910""]]","[[""0.070"",""0.271"",""0.490"",""0.677""],[""0.125"",""0.389"",""0.564"",""0.810""]]","[1,10]","[100,1000]",Video game experience,,,0.7,0,,,,,,,,,,,,,,,,,,,,,,,,,,,,,,,,,,,,,,,,,,,,,,,,,,,,,,,,,,,
,613a80b393cb8128b75cda11,001,2022-04-28_20h17.14.321,classification_task,2021.2.3,Win32,59.92329818,613a80b393cb8128b75cda11,626b377229c10585ec392f8a,626b3c6513a9fc669217ae5a,,,,,Approximately how many hours did you spend playing video games in the last week?,,,0.7,0,4,,,,,,,,,,,,,,,,,,,,,,,,,,,,,,,,,,,,,,,,,,,,,,,,,,,,,,,,,,
,613a80b393cb8128b75cda11,001,2022-04-28_20h17.14.321,classification_task,2021.2.3,Win32,59.92329818,613a80b393cb8128b75cda11,626b377229c10585ec392f8a,626b3c6513a9fc669217ae5a,,,,,"Which game did you play the most this year? (Enter ""None"" if you didn't play any)",,,0.7,0,Undertale,,,,,,,,,,,,,,,,,,,,,,,,,,,,,,,,,,,,,,,,,,,,,,,,,,,,,,,,,,
,613a80b393cb8128b75cda11,001,2022-04-28_20h17.14.321,classification_task,2021.2.3,Win32,59.92329818,613a80b393cb8128b75cda11,626b377229c10585ec392f8a,626b3c6513a9fc669217ae5a,,,,,Visual perception,,,0.7,0,,,,,,,,,,,,,,,,,,,,,,,,,,,,,,,,,,,,,,,,,,,,,,,,,,,,,,,,,,,
,613a80b393cb8128b75cda11,001,2022-04-28_20h17.14.321,classification_task,2021.2.3,Win32,59.92329818,613a80b393cb8128b75cda11,626b377229c10585ec392f8a,626b3c6513a9fc669217ae5a,,,,,Do you have any form of color blindness?,,,0.7,0,No,24.942,,,,,,,,,,,,,,,,,,,,,,,,,,,,,,,,,,,,,,,,,,,,,,,,,,,,,,,,,
,613a80b393cb8128b75cda11,001,2022-04-28_20h17.14.321,classification_task,2021.2.3,Win32,59.92329818,613a80b393cb8128b75cda11,626b377229c10585ec392f8a,626b3c6513a9fc669217ae5a,,,,,Do you use software to change the colour temperature of your screen (e.g. f.lux)?,,,0.7,0,No,27.3476,,,,,,,,,,,,,,,,,,,,,,,,,,,,,,,,,,,,,,,,,,,,,,,,,,,,,,,,,
,613a80b393cb8128b75cda11,001,2022-04-28_20h17.14.321,classification_task,2021.2.3,Win32,59.92329818,613a80b393cb8128b75cda11,626b377229c10585ec392f8a,626b3c6513a9fc669217ae5a,,,,,,,,,,,,space,19.0641,space,5.8108,0,0,0,0,1,,,,,,,,,,,,,,,,,,,,,,,,,,,,,,,,,,,,,,,,,,,,,,,,
,613a80b393cb8128b75cda11,001,2022-04-28_20h17.14.321,classification_task,2021.2.3,Win32,59.92329818,613a80b393cb8128b75cda11,626b377229c10585ec392f8a,626b3c6513a9fc669217ae5a,,,,,,,,,,,,,,space,6.3438,1,0,1,0,1,,,,,,,,,,,,,,,,,,,,,,,,,,,,,,,,,,,,,,,,,,,,,,,,
,613a80b393cb8128b75cda11,001,2022-04-28_20h17.14.321,classification_task,2021.2.3,Win32,59.92329818,613a80b393cb8128b75cda11,626b377229c10585ec392f8a,626b3c6513a9fc669217ae5a,,,,,,,,,,,,,,space,92.0879,2,0,2,0,1,,,,,,,,,,,,,,,,,,,,,,,,,,,,,,,,,,,,,,,,,,,,,,,,
,613a80b393cb8128b75cda11,001,2022-04-28_20h17.14.321,classification_task,2021.2.3,Win32,59.92329818,613a80b393cb8128b75cda11,626b377229c10585ec392f8a,626b3c6513a9fc669217ae5a,,,,,,,,,,,,,,space,11.4713,3,0,3,0,1,,,,,,,,,,,,,,,,,,,,,,,,,,,,,,,,,,,,,,,,,,,,,,,,
,613a80b393cb8128b75cda11,001,2022-04-28_20h17.14.321,classification_task,2021.2.3,Win32,59.92329818,613a80b393cb8128b75cda11,626b377229c10585ec392f8a,626b3c6513a9fc669217ae5a,,,,,,,,,,,,,,space,14.2358,4,0,4,0,1,,,,,,,,,,,,,,,,,,,,,,,,,,,,,,,,,,,,,,,,,,,,,,,,
,613a80b393cb8128b75cda11,001,2022-04-28_20h17.14.321,classification_task,2021.2.3,Win32,59.92329818,613a80b393cb8128b75cda11,626b377229c10585ec392f8a,626b3c6513a9fc669217ae5a,,,,,,,,,,,,,,,,,,,,,space,9.8387,l,1,1.5582,"[""0.734"",""0.389"",""0.564"",""0.810""]","[0,1,1,1]",0,0,0,0,1,1,1,,,0,FALSE,,,,,,,,,,,,,,,,,,,,,,,,,,,,,,
,613a80b393cb8128b75cda11,001,2022-04-28_20h17.14.321,classification_task,2021.2.3,Win32,59.92329818,613a80b393cb8128b75cda11,626b377229c10585ec392f8a,626b3c6513a9fc669217ae5a,,,,,,,,,,,,,,,,,,,,,,,a,0,1.4108,"[""0.070"",""0.744"",""0.490"",""0.677""]","[1,0,1,1]",0,1,1,1,1,1,0,,,0,FALSE,,,,,,,,,,,,,,,,,,,,,,,,,,,,,,
,613a80b393cb8128b75cda11,001,2022-04-28_20h17.14.321,classification_task,2021.2.3,Win32,59.92329818,613a80b393cb8128b75cda11,626b377229c10585ec392f8a,626b3c6513a9fc669217ae5a,,,,,,,,,,,,,,,,,,,,,,,l,0,0.9286,"[""0.163"",""0.776"",""0.630"",""0.910""]","[1,0,1,1]",0,2,2,2,1,0,1,,,0,FALSE,,,,,,,,,,,,,,,,,,,,,,,,,,,,,,
,613a80b393cb8128b75cda11,001,2022-04-28_20h17.14.321,classification_task,2021.2.3,Win32,59.92329818,613a80b393cb8128b75cda11,626b377229c10585ec392f8a,626b3c6513a9fc669217ae5a,,,,,,,,,,,,,,,,,,,,,,,a,1,1.2458,"[""0.326"",""0.524"",""0.874"",""0.732""]","[1,1,1,0]",0,3,3,3,1,0,0,,,0,FALSE,,,,,,,,,,,,,,,,,,,,,,,,,,,,,,
,613a80b393cb8128b75cda11,001,2022-04-28_20h17.14.321,classification_task,2021.2.3,Win32,59.92329818,613a80b393cb8128b75cda11,626b377229c10585ec392f8a,626b3c6513a9fc669217ae5a,,,,,,,,,,,,,,,,,,,,,,,a,1,1.0463,"[""0.163"",""0.441"",""0.630"",""0.777""]","[1,1,1,0]",0,4,4,4,1,0,1,,,0,FALSE,,,,,,,,,,,,,,,,,,,,,,,,,,,,,,
,613a80b393cb8128b75cda11,001,2022-04-28_20h17.14.321,classification_task,2021.2.3,Win32,59.92329818,613a80b393cb8128b75cda11,626b377229c10585ec392f8a,626b3c6513a9fc669217ae5a,,,,,,,,,,,,,,,,,,,,,,,a,0,1.0472,"[""0.070"",""0.271"",""0.490"",""0.732""]","[1,1,1,0]",0,5,5,5,1,1,0,,,0,FALSE,,,,,,,,,,,,,,,,,,,,,,,,,,,,,,
,613a80b393cb8128b75cda11,001,2022-04-28_20h17.14.321,classification_task,2021.2.3,Win32,59.92329818,613a80b393cb8128b75cda11,626b377229c10585ec392f8a,626b3c6513a9fc669217ae5a,,,,,,,,,,,,,,,,,,,,,,,a,0,1.2658,"[""0.125"",""0.215"",""0.564"",""0.810""]","[1,0,1,1]",0,6,6,6,1,1,1,,,0,FALSE,,,,,,,,,,,,,,,,,,,,,,,,,,,,,,
,613a80b393cb8128b75cda11,001,2022-04-28_20h17.14.321,classification_task,2021.2.3,Win32,59.92329818,613a80b393cb8128b75cda11,626b377229c10585ec392f8a,626b3c6513a9fc669217ae5a,,,,,,,,,,,,,,,,,,,,,,,l,0,0.6976,"[""0.220"",""0.524"",""0.874"",""0.946""]","[0,1,1,1]",0,7,7,7,1,0,0,,,0,FALSE,,,,,,,,,,,,,,,,,,,,,,,,,,,,,,
,613a80b393cb8128b75cda11,001,2022-04-28_20h17.14.321,classification_task,2021.2.3,Win32,59.92329818,613a80b393cb8128b75cda11,626b377229c10585ec392f8a,626b3c6513a9fc669217ae5a,,,,,,,,,,,,,,,,,,,,,,,a,0,1.3161,"[""0.070"",""0.271"",""0.200"",""0.677""]","[1,1,0,1]",0,8,8,8,1,1,0,,,0,FALSE,,,,,,,,,,,,,,,,,,,,,,,,,,,,,,
,613a80b393cb8128b75cda11,001,2022-04-28_20h17.14.321,classification_task,2021.2.3,Win32,59.92329818,613a80b393cb8128b75cda11,626b377229c10585ec392f8a,626b3c6513a9fc669217ae5a,,,,,,,,,,,,,,,,,,,,,,,l,1,1.2155,"[""0.224"",""0.271"",""0.490"",""0.677""]","[0,1,1,1]",0,9,9,9,1,1,0,,,0,FALSE,,,,,,,,,,,,,,,,,,,,,,,,,,,,,,
,613a80b393cb8128b75cda11,001,2022-04-28_20h17.14.321,classification_task,2021.2.3,Win32,59.92329818,613a80b393cb8128b75cda11,626b377229c10585ec392f8a,626b3c6513a9fc669217ae5a,,,,,,,,,,,,,,,,,,,,,,,a,1,0.6629,"[""0.744"",""0.441"",""0.630"",""0.910""]","[0,1,1,1]",0,10,10,10,1,0,1,,,0,FALSE,,,,,,,,,,,,,,,,,,,,,,,,,,,,,,
,613a80b393cb8128b75cda11,001,2022-04-28_20h17.14.321,classification_task,2021.2.3,Win32,59.92329818,613a80b393cb8128b75cda11,626b377229c10585ec392f8a,626b3c6513a9fc669217ae5a,,,,,,,,,,,,,,,,,,,,,,,l,0,0.714,"[""0.326"",""0.732"",""0.874"",""0.946""]","[1,0,1,1]",0,11,11,11,1,0,0,,,0,FALSE,,,,,,,,,,,,,,,,,,,,,,,,,,,,,,
,613a80b393cb8128b75cda11,001,2022-04-28_20h17.14.321,classification_task,2021.2.3,Win32,59.92329818,613a80b393cb8128b75cda11,626b377229c10585ec392f8a,626b3c6513a9fc669217ae5a,,,,,,,,,,,,,,,,,,,,,,,a,0,1.2113,"[""0.125"",""0.389"",""0.564"",""0.773""]","[1,1,1,0]",0,12,12,12,1,1,1,,,0,FALSE,,,,,,,,,,,,,,,,,,,,,,,,,,,,,,
,613a80b393cb8128b75cda11,001,2022-04-28_20h17.14.321,classification_task,2021.2.3,Win32,59.92329818,613a80b393cb8128b75cda11,626b377229c10585ec392f8a,626b3c6513a9fc669217ae5a,,,,,,,,,,,,,,,,,,,,,,,l,0,0.7327,"[""0.163"",""0.441"",""0.746"",""0.910""]","[1,1,0,1]",0,13,13,13,1,0,1,,,0,FALSE,,,,,,,,,,,,,,,,,,,,,,,,,,,,,,
,613a80b393cb8128b75cda11,001,2022-04-28_20h17.14.321,classification_task,2021.2.3,Win32,59.92329818,613a80b393cb8128b75cda11,626b377229c10585ec392f8a,626b3c6513a9fc669217ae5a,,,,,,,,,,,,,,,,,,,,,,,a,1,2.1665,"[""0.326"",""0.524"",""0.722"",""0.946""]","[1,1,0,1]",0,14,14,14,1,0,0,,,0,FALSE,,,,,,,,,,,,,,,,,,,,,,,,,,,,,,
,613a80b393cb8128b75cda11,001,2022-04-28_20h17.14.321,classification_task,2021.2.3,Win32,59.92329818,613a80b393cb8128b75cda11,626b377229c10585ec392f8a,626b3c6513a9fc669217ae5a,,,,,,,,,,,,,,,,,,,,,,,l,1,0.6571,"[""0.125"",""0.389"",""0.200"",""0.810""]","[1,1,0,1]",0,15,15,15,1,1,1,,,0,FALSE,,,,,,,,,,,,,,,,,,,,,,,,,,,,,,
,613a80b393cb8128b75cda11,001,2022-04-28_20h17.14.321,classification_task,2021.2.3,Win32,59.92329818,613a80b393cb8128b75cda11,626b377229c10585ec392f8a,626b3c6513a9fc669217ae5a,,,,,,,,,,,,,,,,,,,,,,,l,0,0.6154,"[""0.163"",""0.441"",""0.734"",""0.910""]","[1,1,0,1]",0,16,16,16,1,0,1,,,0,FALSE,,,,,,,,,,,,,,,,,,,,,,,,,,,,,,
,613a80b393cb8128b75cda11,001,2022-04-28_20h17.14.321,classification_task,2021.2.3,Win32,59.92329818,613a80b393cb8128b75cda11,626b377229c10585ec392f8a,626b3c6513a9fc669217ae5a,,,,,,,,,,,,,,,,,,,,,,,l,1,0.9979,"[""0.722"",""0.389"",""0.564"",""0.810""]","[0,1,1,1]",0,17,17,17,1,1,1,,,0,FALSE,,,,,,,,,,,,,,,,,,,,,,,,,,,,,,
,613a80b393cb8128b75cda11,001,2022-04-28_20h17.14.321,classification_task,2021.2.3,Win32,59.92329818,613a80b393cb8128b75cda11,626b377229c10585ec392f8a,626b3c6513a9fc669217ae5a,,,,,,,,,,,,,,,,,,,,,,,a,1,2.1874,"[""0.163"",""0.441"",""0.630"",""0.774""]","[1,1,1,0]",0,18,18,18,1,0,1,,,0,FALSE,,,,,,,,,,,,,,,,,,,,,,,,,,,,,,
,613a80b393cb8128b75cda11,001,2022-04-28_20h17.14.321,classification_task,2021.2.3,Win32,59.92329818,613a80b393cb8128b75cda11,626b377229c10585ec392f8a,626b3c6513a9fc669217ae5a,,,,,,,,,,,,,,,,,,,,,,,a,0,1.1277,"[""0.125"",""0.389"",""0.564"",""0.734""]","[1,1,1,0]",0,19,19,19,1,1,1,,,0,FALSE,,,,,,,,,,,,,,,,,,,,,,,,,,,,,,
,613a80b393cb8128b75cda11,001,2022-04-28_20h17.14.321,classification_task,2021.2.3,Win32,59.92329818,613a80b393cb8128b75cda11,626b377229c10585ec392f8a,626b3c6513a9fc669217ae5a,,,,,,,,,,,,,,,,,,,,,,,a,1,0.6462,"[""0.326"",""0.524"",""0.777"",""0.946""]","[1,1,0,1]",0,20,20,20,1,0,0,,,0,FALSE,,,,,,,,,,,,,,,,,,,,,,,,,,,,,,
,613a80b393cb8128b75cda11,001,2022-04-28_20h17.14.321,classification_task,2021.2.3,Win32,59.92329818,613a80b393cb8128b75cda11,626b377229c10585ec392f8a,626b3c6513a9fc669217ae5a,,,,,,,,,,,,,,,,,,,,,,,l,1,0.6793,"[""0.125"",""0.718"",""0.564"",""0.810""]","[1,0,1,1]",0,21,21,21,1,1,1,,,0,FALSE,,,,,,,,,,,,,,,,,,,,,,,,,,,,,,
,613a80b393cb8128b75cda11,001,2022-04-28_20h17.14.321,classification_task,2021.2.3,Win32,59.92329818,613a80b393cb8128b75cda11,626b377229c10585ec392f8a,626b3c6513a9fc669217ae5a,,,,,,,,,,,,,,,,,,,,,,,a,0,0.978,"[""0.070"",""0.271"",""0.490"",""0.776""]","[1,1,1,0]",0,22,22,22,1,1,0,,,0,FALSE,,,,,,,,,,,,,,,,,,,,,,,,,,,,,,
,613a80b393cb8128b75cda11,001,2022-04-28_20h17.14.321,classification_task,2021.2.3,Win32,59.92329818,613a80b393cb8128b75cda11,626b377229c10585ec392f8a,626b3c6513a9fc669217ae5a,,,,,,,,,,,,,,,,,,,,,,,a,1,0.6203,"[""0.224"",""0.524"",""0.874"",""0.946""]","[0,1,1,1]",0,23,23,23,1,0,0,,,0,FALSE,,,,,,,,,,,,,,,,,,,,,,,,,,,,,,
,613a80b393cb8128b75cda11,001,2022-04-28_20h17.14.321,classification_task,2021.2.3,Win32,59.92329818,613a80b393cb8128b75cda11,626b377229c10585ec392f8a,626b3c6513a9fc669217ae5a,,,,,,,,,,,,,,,,,,,,,,,a,0,0.6479,"[""0.070"",""0.220"",""0.490"",""0.677""]","[1,0,1,1]",0,24,24,24,1,1,0,,,0,FALSE,,,,,,,,,,,,,,,,,,,,,,,,,,,,,,
,613a80b393cb8128b75cda11,001,2022-04-28_20h17.14.321,classification_task,2021.2.3,Win32,59.92329818,613a80b393cb8128b75cda11,626b377229c10585ec392f8a,626b3c6513a9fc669217ae5a,,,,,,,,,,,,,,,,,,,,,,,l,0,0.5336,"[""0.163"",""0.746"",""0.630"",""0.910""]","[1,0,1,1]",0,25,25,25,1,0,1,,,0,FALSE,,,,,,,,,,,,,,,,,,,,,,,,,,,,,,
,613a80b393cb8128b75cda11,001,2022-04-28_20h17.14.321,classification_task,2021.2.3,Win32,59.92329818,613a80b393cb8128b75cda11,626b377229c10585ec392f8a,626b3c6513a9fc669217ae5a,,,,,,,,,,,,,,,,,,,,,,,l,0,0.5835,"[""0.722"",""0.441"",""0.630"",""0.910""]","[0,1,1,1]",0,26,26,26,1,0,1,,,0,FALSE,,,,,,,,,,,,,,,,,,,,,,,,,,,,,,
,613a80b393cb8128b75cda11,001,2022-04-28_20h17.14.321,classification_task,2021.2.3,Win32,59.92329818,613a80b393cb8128b75cda11,626b377229c10585ec392f8a,626b3c6513a9fc669217ae5a,,,,,,,,,,,,,,,,,,,,,,,a,1,1.5786,"[""0.326"",""0.524"",""0.874"",""0.032""]","[1,1,1,0]",0,27,27,27,1,0,0,,,0,FALSE,,,,,,,,,,,,,,,,,,,,,,,,,,,,,,
,613a80b393cb8128b75cda11,001,2022-04-28_20h17.14.321,classification_task,2021.2.3,Win32,59.92329818,613a80b393cb8128b75cda11,626b377229c10585ec392f8a,626b3c6513a9fc669217ae5a,,,,,,,,,,,,,,,,,,,,,,,a,1,0.986,"[""0.326"",""0.718"",""0.874"",""0.946""]","[1,0,1,1]",0,28,28,28,1,0,0,,,0,FALSE,,,,,,,,,,,,,,,,,,,,,,,,,,,,,,
,613a80b393cb8128b75cda11,001,2022-04-28_20h17.14.321,classification_task,2021.2.3,Win32,59.92329818,613a80b393cb8128b75cda11,626b377229c10585ec392f8a,626b3c6513a9fc669217ae5a,,,,,,,,,,,,,,,,,,,,,,,,0,,"[""0.070"",""0.271"",""0.734"",""0.677""]","[1,1,0,1]",0,29,29,29,1,1,0,,,0,FALSE,,,,,,,,,,,,,,,,,,,,,,,,,,,,,,
,613a80b393cb8128b75cda11,001,2022-04-28_20h17.14.321,classification_task,2021.2.3,Win32,59.92329818,613a80b393cb8128b75cda11,626b377229c10585ec392f8a,626b3c6513a9fc669217ae5a,,,,,,,,,,,,,,,,,,,,,,,l,1,1.0434,"[""0.774"",""0.271"",""0.490"",""0.677""]","[0,1,1,1]",0,30,30,30,1,1,0,,,0,FALSE,,,,,,,,,,,,,,,,,,,,,,,,,,,,,,
,613a80b393cb8128b75cda11,001,2022-04-28_20h17.14.321,classification_task,2021.2.3,Win32,59.92329818,613a80b393cb8128b75cda11,626b377229c10585ec392f8a,626b3c6513a9fc669217ae5a,,,,,,,,,,,,,,,,,,,,,,,a,0,0.6148,"[""0.125"",""0.389"",""0.776"",""0.810""]","[1,1,0,1]",0,31,31,31,1,1,1,,,0,FALSE,,,,,,,,,,,,,,,,,,,,,,,,,,,,,,
,613a80b393cb8128b75cda11,001,2022-04-28_20h17.14.321,classification_task,2021.2.3,Win32,59.92329818,613a80b393cb8128b75cda11,626b377229c10585ec392f8a,626b3c6513a9fc669217ae5a,,,,,,,,,,,,,,,,,,,,,,,a,0,0.6322,"[""0.070"",""0.271"",""0.490"",""0.215""]","[1,1,1,0]",0,32,32,32,1,1,0,,,0,FALSE,,,,,,,,,,,,,,,,,,,,,,,,,,,,,,
,613a80b393cb8128b75cda11,001,2022-04-28_20h17.14.321,classification_task,2021.2.3,Win32,59.92329818,613a80b393cb8128b75cda11,626b377229c10585ec392f8a,626b3c6513a9fc669217ae5a,,,,,,,,,,,,,,,,,,,,,,,l,0,0.4122,"[""0.326"",""0.777"",""0.874"",""0.946""]","[1,0,1,1]",0,33,33,33,1,0,0,,,0,FALSE,,,,,,,,,,,,,,,,,,,,,,,,,,,,,,
,613a80b393cb8128b75cda11,001,2022-04-28_20h17.14.321,classification_task,2021.2.3,Win32,59.92329818,613a80b393cb8128b75cda11,626b377229c10585ec392f8a,626b3c6513a9fc669217ae5a,,,,,,,,,,,,,,,,,,,,,,,l,1,0.4655,"[""0.746"",""0.389"",""0.564"",""0.810""]","[0,1,1,1]",0,34,34,34,1,1,1,,,0,FALSE,,,,,,,,,,,,,,,,,,,,,,,,,,,,,,
,613a80b393cb8128b75cda11,001,2022-04-28_20h17.14.321,classification_task,2021.2.3,Win32,59.92329818,613a80b393cb8128b75cda11,626b377229c10585ec392f8a,626b3c6513a9fc669217ae5a,,,,,,,,,,,,,,,,,,,,,,,a,1,0.8488,"[""0.326"",""0.524"",""0.874"",""0.774""]","[1,1,1,0]",0,35,35,35,1,0,0,,,0,FALSE,,,,,,,,,,,,,,,,,,,,,,,,,,,,,,
,613a80b393cb8128b75cda11,001,2022-04-28_20h17.14.321,classification_task,2021.2.3,Win32,59.92329818,613a80b393cb8128b75cda11,626b377229c10585ec392f8a,626b3c6513a9fc669217ae5a,,,,,,,,,,,,,,,,,,,,,,,a,1,0.7152,"[""0.163"",""0.441"",""0.630"",""0.773""]","[1,1,1,0]",0,36,36,36,1,0,1,,,0,FALSE,,,,,,,,,,,,,,,,,,,,,,,,,,,,,,
,613a80b393cb8128b75cda11,001,2022-04-28_20h17.14.321,classification_task,2021.2.3,Win32,59.92329818,613a80b393cb8128b75cda11,626b377229c10585ec392f8a,626b3c6513a9fc669217ae5a,,,,,,,,,,,,,,,,,,,,,,,l,1,0.6004,"[""0.734"",""0.271"",""0.490"",""0.677""]","[0,1,1,1]",0,37,37,37,1,1,0,,,0,FALSE,,,,,,,,,,,,,,,,,,,,,,,,,,,,,,
,613a80b393cb8128b75cda11,001,2022-04-28_20h17.14.321,classification_task,2021.2.3,Win32,59.92329818,613a80b393cb8128b75cda11,626b377229c10585ec392f8a,626b3c6513a9fc669217ae5a,,,,,,,,,,,,,,,,,,,,,,,a,0,0.7454,"[""0.070"",""0.271"",""0.746"",""0.677""]","[1,1,0,1]",0,38,38,38,1,1,0,,,0,FALSE,,,,,,,,,,,,,,,,,,,,,,,,,,,,,,
,613a80b393cb8128b75cda11,001,2022-04-28_20h17.14.321,classification_task,2021.2.3,Win32,59.92329818,613a80b393cb8128b75cda11,626b377229c10585ec392f8a,626b3c6513a9fc669217ae5a,,,,,,,,,,,,,,,,,,,,,,,l,1,0.9818,"[""0.125"",""0.389"",""0.718"",""0.810""]","[1,1,0,1]",0,39,39,39,1,1,1,,,0,FALSE,,,,,,,,,,,,,,,,,,,,,,,,,,,,,,
,613a80b393cb8128b75cda11,001,2022-04-28_20h17.14.321,classification_task,2021.2.3,Win32,59.92329818,613a80b393cb8128b75cda11,626b377229c10585ec392f8a,626b3c6513a9fc669217ae5a,,,,,,,,,,,,,,,,,,,,,,,l,0,0.7487,"[""0.224"",""0.524"",""0.874"",""0.946""]","[0,1,1,1]",0,40,40,40,1,0,0,,,0,FALSE,,,,,,,,,,,,,,,,,,,,,,,,,,,,,,
,613a80b393cb8128b75cda11,001,2022-04-28_20h17.14.321,classification_task,2021.2.3,Win32,59.92329818,613a80b393cb8128b75cda11,626b377229c10585ec392f8a,626b3c6513a9fc669217ae5a,,,,,,,,,,,,,,,,,,,,,,,a,0,0.7815,"[""0.125"",""0.389"",""0.564"",""0.744""]","[1,1,1,0]",0,41,41,41,1,1,1,,,0,FALSE,,,,,,,,,,,,,,,,,,,,,,,,,,,,,,
,613a80b393cb8128b75cda11,001,2022-04-28_20h17.14.321,classification_task,2021.2.3,Win32,59.92329818,613a80b393cb8128b75cda11,626b377229c10585ec392f8a,626b3c6513a9fc669217ae5a,,,,,,,,,,,,,,,,,,,,,,,a,0,0.4816,"[""0.070"",""0.776"",""0.490"",""0.677""]","[1,0,1,1]",0,42,42,42,1,1,0,,,0,FALSE,,,,,,,,,,,,,,,,,,,,,,,,,,,,,,
,613a80b393cb8128b75cda11,001,2022-04-28_20h17.14.321,classification_task,2021.2.3,Win32,59.92329818,613a80b393cb8128b75cda11,626b377229c10585ec392f8a,626b3c6513a9fc669217ae5a,,,,,,,,,,,,,,,,,,,,,,,l,1,0.4815,"[""0.125"",""0.746"",""0.564"",""0.810""]","[1,0,1,1]",0,43,43,43,1,1,1,,,0,FALSE,,,,,,,,,,,,,,,,,,,,,,,,,,,,,,
,613a80b393cb8128b75cda11,001,2022-04-28_20h17.14.321,classification_task,2021.2.3,Win32,59.92329818,613a80b393cb8128b75cda11,626b377229c10585ec392f8a,626b3c6513a9fc669217ae5a,,,,,,,,,,,,,,,,,,,,,,,a,1,1.08,"[""0.224"",""0.441"",""0.630"",""0.910""]","[0,1,1,1]",0,44,44,44,1,0,1,,,0,FALSE,,,,,,,,,,,,,,,,,,,,,,,,,,,,,,
,613a80b393cb8128b75cda11,001,2022-04-28_20h17.14.321,classification_task,2021.2.3,Win32,59.92329818,613a80b393cb8128b75cda11,626b377229c10585ec392f8a,626b3c6513a9fc669217ae5a,,,,,,,,,,,,,,,,,,,,,,,l,0,1.0307,"[""0.163"",""0.744"",""0.630"",""0.910""]","[1,0,1,1]",0,45,45,45,1,0,1,,,0,FALSE,,,,,,,,,,,,,,,,,,,,,,,,,,,,,,
,613a80b393cb8128b75cda11,001,2022-04-28_20h17.14.321,classification_task,2021.2.3,Win32,59.92329818,613a80b393cb8128b75cda11,626b377229c10585ec392f8a,626b3c6513a9fc669217ae5a,,,,,,,,,,,,,,,,,,,,,,,a,1,1.6147,"[""0.326"",""0.524"",""0.215"",""0.946""]","[1,1,0,1]",0,46,46,46,1,0,0,,,0,FALSE,,,,,,,,,,,,,,,,,,,,,,,,,,,,,,
,613a80b393cb8128b75cda11,001,2022-04-28_20h17.14.321,classification_task,2021.2.3,Win32,59.92329818,613a80b393cb8128b75cda11,626b377229c10585ec392f8a,626b3c6513a9fc669217ae5a,,,,,,,,,,,,,,,,,,,,,,,l,0,1.9878,"[""0.163"",""0.441"",""0.776"",""0.910""]","[1,1,0,1]",0,47,47,47,1,0,1,,,0,FALSE,,,,,,,,,,,,,,,,,,,,,,,,,,,,,,
,613a80b393cb8128b75cda11,001,2022-04-28_20h17.14.321,classification_task,2021.2.3,Win32,59.92329818,613a80b393cb8128b75cda11,626b377229c10585ec392f8a,626b3c6513a9fc669217ae5a,,,,,,,,,,,,,,,,,,,,,,,a,1,1.4493,"[""0.326"",""0.224"",""0.874"",""0.946""]","[1,0,1,1]",0,48,48,48,1,0,0,,,0,FALSE,,,,,,,,,,,,,,,,,,,,,,,,,,,,,,
,613a80b393cb8128b75cda11,001,2022-04-28_20h17.14.321,classification_task,2021.2.3,Win32,59.92329818,613a80b393cb8128b75cda11,626b377229c10585ec392f8a,626b3c6513a9fc669217ae5a,,,,,,,,,,,,,,,,,,,,,,,a,1,0.8483,"[""0.163"",""0.441"",""0.630"",""0.200""]","[1,1,1,0]",0,49,49,49,1,0,1,,,0,FALSE,,,,,,,,,,,,,,,,,,,,,,,,,,,,,,
,613a80b393cb8128b75cda11,001,2022-04-28_20h17.14.321,classification_task,2021.2.3,Win32,59.92329818,613a80b393cb8128b75cda11,626b377229c10585ec392f8a,626b3c6513a9fc669217ae5a,,,,,,,,,,,,,,,,,,,,,,,l,0,1.2154,"[""0.326"",""0.524"",""0.874"",""0.718""]","[1,1,1,0]",0,50,50,50,1,0,0,,,0,FALSE,,,,,,,,,,,,,,,,,,,,,,,,,,,,,,
,613a80b393cb8128b75cda11,001,2022-04-28_20h17.14.321,classification_task,2021.2.3,Win32,59.92329818,613a80b393cb8128b75cda11,626b377229c10585ec392f8a,626b3c6513a9fc669217ae5a,,,,,,,,,,,,,,,,,,,,,,,l,0,1.0482,"[""0.163"",""0.776"",""0.630"",""0.910""]","[1,0,1,1]",0,51,51,51,1,0,1,,,0,FALSE,,,,,,,,,,,,,,,,,,,,,,,,,,,,,,
,613a80b393cb8128b75cda11,001,2022-04-28_20h17.14.321,classification_task,2021.2.3,Win32,59.92329818,613a80b393cb8128b75cda11,626b377229c10585ec392f8a,626b3c6513a9fc669217ae5a,,,,,,,,,,,,,,,,,,,,,,,l,1,1.4862,"[""0.070"",""0.773"",""0.490"",""0.677""]","[1,0,1,1]",0,52,52,52,1,1,0,,,0,FALSE,,,,,,,,,,,,,,,,,,,,,,,,,,,,,,
,613a80b393cb8128b75cda11,001,2022-04-28_20h17.14.321,classification_task,2021.2.3,Win32,59.92329818,613a80b393cb8128b75cda11,626b377229c10585ec392f8a,626b3c6513a9fc669217ae5a,,,,,,,,,,,,,,,,,,,,,,,a,1,1.1445,"[""0.326"",""0.524"",""0.722"",""0.946""]","[1,1,0,1]",0,53,53,53,1,0,0,,,0,FALSE,,,,,,,,,,,,,,,,,,,,,,,,,,,,,,
,613a80b393cb8128b75cda11,001,2022-04-28_20h17.14.321,classification_task,2021.2.3,Win32,59.92329818,613a80b393cb8128b75cda11,626b377229c10585ec392f8a,626b3c6513a9fc669217ae5a,,,,,,,,,,,,,,,,,,,,,,,a,0,0.7355,"[""0.070"",""0.271"",""0.224"",""0.677""]","[1,1,0,1]",0,54,54,54,1,1,0,,,0,FALSE,,,,,,,,,,,,,,,,,,,,,,,,,,,,,,
,613a80b393cb8128b75cda11,001,2022-04-28_20h17.14.321,classification_task,2021.2.3,Win32,59.92329818,613a80b393cb8128b75cda11,626b377229c10585ec392f8a,626b3c6513a9fc669217ae5a,,,,,,,,,,,,,,,,,,,,,,,l,1,1.2018,"[""0.125"",""0.389"",""0.776"",""0.810""]","[1,1,0,1]",0,55,55,55,1,1,1,,,0,FALSE,,,,,,,,,,,,,,,,,,,,,,,,,,,,,,
,613a80b393cb8128b75cda11,001,2022-04-28_20h17.14.321,classification_task,2021.2.3,Win32,59.92329818,613a80b393cb8128b75cda11,626b377229c10585ec392f8a,626b3c6513a9fc669217ae5a,,,,,,,,,,,,,,,,,,,,,,,a,0,0.8654,"[""0.125"",""0.389"",""0.564"",""0.773""]","[1,1,1,0]",0,56,56,56,1,1,1,,,0,FALSE,,,,,,,,,,,,,,,,,,,,,,,,,,,,,,
,613a80b393cb8128b75cda11,001,2022-04-28_20h17.14.321,classification_task,2021.2.3,Win32,59.92329818,613a80b393cb8128b75cda11,626b377229c10585ec392f8a,626b3c6513a9fc669217ae5a,,,,,,,,,,,,,,,,,,,,,,,a,0,0.8483,"[""0.070"",""0.271"",""0.490"",""0.224""]","[1,1,1,0]",0,57,57,57,1,1,0,,,0,FALSE,,,,,,,,,,,,,,,,,,,,,,,,,,,,,,
,613a80b393cb8128b75cda11,001,2022-04-28_20h17.14.321,classification_task,2021.2.3,Win32,59.92329818,613a80b393cb8128b75cda11,626b377229c10585ec392f8a,626b3c6513a9fc669217ae5a,,,,,,,,,,,,,,,,,,,,,,,l,0,1.4828,"[""0.163"",""0.441"",""0.732"",""0.910""]","[1,1,0,1]",0,58,58,58,1,0,1,,,0,FALSE,,,,,,,,,,,,,,,,,,,,,,,,,,,,,,
,613a80b393cb8128b75cda11,001,2022-04-28_20h17.14.321,classification_task,2021.2.3,Win32,59.92329818,613a80b393cb8128b75cda11,626b377229c10585ec392f8a,626b3c6513a9fc669217ae5a,,,,,,,,,,,,,,,,,,,,,,,l,1,1.7142,"[""0.773"",""0.389"",""0.564"",""0.810""]","[0,1,1,1]",0,59,59,59,1,1,1,,,0,FALSE,,,,,,,,,,,,,,,,,,,,,,,,,,,,,,
,613a80b393cb8128b75cda11,001,2022-04-28_20h17.14.321,classification_task,2021.2.3,Win32,59.92329818,613a80b393cb8128b75cda11,626b377229c10585ec392f8a,626b3c6513a9fc669217ae5a,,,,,,,,,,,,,,,,,,,,,,,a,0,0.805,"[""0.125"",""0.220"",""0.564"",""0.810""]","[1,0,1,1]",0,60,60,60,1,1,1,,,0,FALSE,,,,,,,,,,,,,,,,,,,,,,,,,,,,,,
,613a80b393cb8128b75cda11,001,2022-04-28_20h17.14.321,classification_task,2021.2.3,Win32,59.92329818,613a80b393cb8128b75cda11,626b377229c10585ec392f8a,626b3c6513a9fc669217ae5a,,,,,,,,,,,,,,,,,,,,,,,l,0,0.7167,"[""0.722"",""0.524"",""0.874"",""0.946""]","[0,1,1,1]",0,61,61,61,1,0,0,,,0,FALSE,,,,,,,,,,,,,,,,,,,,,,,,,,,,,,
,613a80b393cb8128b75cda11,001,2022-04-28_20h17.14.321,classification_task,2021.2.3,Win32,59.92329818,613a80b393cb8128b75cda11,626b377229c10585ec392f8a,626b3c6513a9fc669217ae5a,,,,,,,,,,,,,,,,,,,,,,,l,1,0.8825,"[""0.773"",""0.271"",""0.490"",""0.677""]","[0,1,1,1]",0,62,62,62,1,1,0,,,0,FALSE,,,,,,,,,,,,,,,,,,,,,,,,,,,,,,
,613a80b393cb8128b75cda11,001,2022-04-28_20h17.14.321,classification_task,2021.2.3,Win32,59.92329818,613a80b393cb8128b75cda11,626b377229c10585ec392f8a,626b3c6513a9fc669217ae5a,,,,,,,,,,,,,,,,,,,,,,,l,0,0.6824,"[""0.776"",""0.441"",""0.630"",""0.910""]","[0,1,1,1]",0,63,63,63,1,0,1,,,0,FALSE,,,,,,,,,,,,,,,,,,,,,,,,,,,,,,
,613a80b393cb8128b75cda11,001,2022-04-28_20h17.14.321,classification_task,2021.2.3,Win32,59.92329818,613a80b393cb8128b75cda11,626b377229c10585ec392f8a,626b3c6513a9fc669217ae5a,,,,,,,,,,,,,,,,,,,,,,,,,,,,,,,,,,,,,,,0, ,,0,5.891213508,347.1211,0,0,0,0,1,2,1,,,,,,,,,,,,,,,,,
,613a80b393cb8128b75cda11,001,2022-04-28_20h17.14.321,classification_task,2021.2.3,Win32,59.92329818,613a80b393cb8128b75cda11,626b377229c10585ec392f8a,626b3c6513a9fc669217ae5a,,,,,,,,,,,,,,,,,,,,,,,,,,,,,,,,,,,,,,,1,  ,,0,10,359.058,0,0,0,0,1,2,1,,,,,,,,,,,,,,,,,
,613a80b393cb8128b75cda11,001,2022-04-28_20h17.14.321,classification_task,2021.2.3,Win32,59.92329818,613a80b393cb8128b75cda11,626b377229c10585ec392f8a,626b3c6513a9fc669217ae5a,,,,,,,,,,,,,,,,,,,,,,,,,,,,,,,,,,,,,,,2,  ,,0,9.966177919,369.7509,0,0,0,0,1,2,1,,,,,,,,,,,,,,,,,
,613a80b393cb8128b75cda11,001,2022-04-28_20h17.14.321,classification_task,2021.2.3,Win32,59.92329818,613a80b393cb8128b75cda11,626b377229c10585ec392f8a,626b3c6513a9fc669217ae5a,,,,,,,,,,,,,,,,,,,,,,,,,,,,,,,,,,,,,,,,,,,,,0,0,0,0,1,,1,,,,,,,,,,,,,,,,,
,613a80b393cb8128b75cda11,001,2022-04-28_20h17.14.321,classification_task,2021.2.3,Win32,59.92329818,613a80b393cb8128b75cda11,626b377229c10585ec392f8a,626b3c6513a9fc669217ae5a,,,,,,,,,,,,,,,,,,,,,space,16.1376,l,0,2.8276,"[""0.730"",""0.441"",""0.630"",""0.910""]","[0,1,1,1]",0,0,0,0,1,0,1,,,0,FALSE,,,,,,,,,,,,,,,,,,,,,,,,,,,,,,
,613a80b393cb8128b75cda11,001,2022-04-28_20h17.14.321,classification_task,2021.2.3,Win32,59.92329818,613a80b393cb8128b75cda11,626b377229c10585ec392f8a,626b3c6513a9fc669217ae5a,,,,,,,,,,,,,,,,,,,,,,,a,1,3.2963,"[""0.773"",""0.524"",""0.874"",""0.946""]","[0,1,1,1]",0,1,1,1,1,0,0,,,0,FALSE,,,,,,,,,,,,,,,,,,,,,,,,,,,,,,
,613a80b393cb8128b75cda11,001,2022-04-28_20h17.14.321,classification_task,2021.2.3,Win32,59.92329818,613a80b393cb8128b75cda11,626b377229c10585ec392f8a,626b3c6513a9fc669217ae5a,,,,,,,,,,,,,,,,,,,,,,,a,1,0.6661,"[""0.326"",""0.524"",""0.874"",""0.215""]","[1,1,1,0]",0,2,2,2,1,0,0,,,0,FALSE,,,,,,,,,,,,,,,,,,,,,,,,,,,,,,
,613a80b393cb8128b75cda11,001,2022-04-28_20h17.14.321,classification_task,2021.2.3,Win32,59.92329818,613a80b393cb8128b75cda11,626b377229c10585ec392f8a,626b3c6513a9fc669217ae5a,,,,,,,,,,,,,,,,,,,,,,,l,1,0.399,"[""0.070"",""0.271"",""0.220"",""0.677""]","[1,1,0,1]",0,3,3,3,1,1,0,,,0,FALSE,,,,,,,,,,,,,,,,,,,,,,,,,,,,,,
,613a80b393cb8128b75cda11,001,2022-04-28_20h17.14.321,classification_task,2021.2.3,Win32,59.92329818,613a80b393cb8128b75cda11,626b377229c10585ec392f8a,626b3c6513a9fc669217ae5a,,,,,,,,,,,,,,,,,,,,,,,l,1,1.7639,"[""0.730"",""0.389"",""0.564"",""0.810""]","[0,1,1,1]",0,4,4,4,1,1,1,,,0,FALSE,,,,,,,,,,,,,,,,,,,,,,,,,,,,,,
,613a80b393cb8128b75cda11,001,2022-04-28_20h17.14.321,classification_task,2021.2.3,Win32,59.92329818,613a80b393cb8128b75cda11,626b377229c10585ec392f8a,626b3c6513a9fc669217ae5a,,,,,,,,,,,,,,,,,,,,,,,a,1,0.7322,"[""0.163"",""0.746"",""0.630"",""0.910""]","[1,0,1,1]",0,5,5,5,1,0,1,,,0,FALSE,,,,,,,,,,,,,,,,,,,,,,,,,,,,,,
,613a80b393cb8128b75cda11,001,2022-04-28_20h17.14.321,classification_task,2021.2.3,Win32,59.92329818,613a80b393cb8128b75cda11,626b377229c10585ec392f8a,626b3c6513a9fc669217ae5a,,,,,,,,,,,,,,,,,,,,,,,a,0,0.5982,"[""0.125"",""0.389"",""0.564"",""0.200""]","[1,1,1,0]",0,6,6,6,1,1,1,,,0,FALSE,,,,,,,,,,,,,,,,,,,,,,,,,,,,,,
,613a80b393cb8128b75cda11,001,2022-04-28_20h17.14.321,classification_task,2021.2.3,Win32,59.92329818,613a80b393cb8128b75cda11,626b377229c10585ec392f8a,626b3c6513a9fc669217ae5a,,,,,,,,,,,,,,,,,,,,,,,l,0,0.6813,"[""0.163"",""0.441"",""0.630"",""0.744""]","[1,1,1,0]",0,7,7,7,1,0,1,,,0,FALSE,,,,,,,,,,,,,,,,,,,,,,,,,,,,,,
,613a80b393cb8128b75cda11,001,2022-04-28_20h17.14.321,classification_task,2021.2.3,Win32,59.92329818,613a80b393cb8128b75cda11,626b377229c10585ec392f8a,626b3c6513a9fc669217ae5a,,,,,,,,,,,,,,,,,,,,,,,l,1,1.3976,"[""0.070"",""0.215"",""0.490"",""0.677""]","[1,0,1,1]",0,8,8,8,1,1,0,,,0,FALSE,,,,,,,,,,,,,,,,,,,,,,,,,,,,,,
,613a80b393cb8128b75cda11,001,2022-04-28_20h17.14.321,classification_task,2021.2.3,Win32,59.92329818,613a80b393cb8128b75cda11,626b377229c10585ec392f8a,626b3c6513a9fc669217ae5a,,,,,,,,,,,,,,,,,,,,,,,a,0,0.6323,"[""0.125"",""0.389"",""0.744"",""0.810""]","[1,1,0,1]",0,9,9,9,1,1,1,,,0,FALSE,,,,,,,,,,,,,,,,,,,,,,,,,,,,,,
,613a80b393cb8128b75cda11,001,2022-04-28_20h17.14.321,classification_task,2021.2.3,Win32,59.92329818,613a80b393cb8128b75cda11,626b377229c10585ec392f8a,626b3c6513a9fc669217ae5a,,,,,,,,,,,,,,,,,,,,,,,l,1,0.5909,"[""0.125"",""0.776"",""0.564"",""0.810""]","[1,0,1,1]",0,10,10,10,1,1,1,,,0,FALSE,,,,,,,,,,,,,,,,,,,,,,,,,,,,,,
,613a80b393cb8128b75cda11,001,2022-04-28_20h17.14.321,classification_task,2021.2.3,Win32,59.92329818,613a80b393cb8128b75cda11,626b377229c10585ec392f8a,626b3c6513a9fc669217ae5a,,,,,,,,,,,,,,,,,,,,,,,l,0,0.4664,"[""0.163"",""0.441"",""0.746"",""0.910""]","[1,1,0,1]",0,11,11,11,1,0,1,,,0,FALSE,,,,,,,,,,,,,,,,,,,,,,,,,,,,,,
,613a80b393cb8128b75cda11,001,2022-04-28_20h17.14.321,classification_task,2021.2.3,Win32,59.92329818,613a80b393cb8128b75cda11,626b377229c10585ec392f8a,626b3c6513a9fc669217ae5a,,,,,,,,,,,,,,,,,,,,,,,a,0,0.6318,"[""0.070"",""0.271"",""0.490"",""0.776""]","[1,1,1,0]",0,12,12,12,1,1,0,,,0,FALSE,,,,,,,,,,,,,,,,,,,,,,,,,,,,,,
,613a80b393cb8128b75cda11,001,2022-04-28_20h17.14.321,classification_task,2021.2.3,Win32,59.92329818,613a80b393cb8128b75cda11,626b377229c10585ec392f8a,626b3c6513a9fc669217ae5a,,,,,,,,,,,,,,,,,,,,,,,l,1,0.8815,"[""0.220"",""0.271"",""0.490"",""0.677""]","[0,1,1,1]",0,13,13,13,1,1,0,,,0,FALSE,,,,,,,,,,,,,,,,,,,,,,,,,,,,,,
,613a80b393cb8128b75cda11,001,2022-04-28_20h17.14.321,classification_task,2021.2.3,Win32,59.92329818,613a80b393cb8128b75cda11,626b377229c10585ec392f8a,626b3c6513a9fc669217ae5a,,,,,,,,,,,,,,,,,,,,,,,a,1,1.1484,"[""0.326"",""0.224"",""0.874"",""0.946""]","[1,0,1,1]",0,14,14,14,1,0,0,,,0,FALSE,,,,,,,,,,,,,,,,,,,,,,,,,,,,,,
,613a80b393cb8128b75cda11,001,2022-04-28_20h17.14.321,classification_task,2021.2.3,Win32,59.92329818,613a80b393cb8128b75cda11,626b377229c10585ec392f8a,626b3c6513a9fc669217ae5a,,,,,,,,,,,,,,,,,,,,,,,a,1,0.5991,"[""0.326"",""0.524"",""0.746"",""0.946""]","[1,1,0,1]",0,15,15,15,1,0,0,,,0,FALSE,,,,,,,,,,,,,,,,,,,,,,,,,,,,,,
,613a80b393cb8128b75cda11,001,2022-04-28_20h17.14.321,classification_task,2021.2.3,Win32,59.92329818,613a80b393cb8128b75cda11,626b377229c10585ec392f8a,626b3c6513a9fc669217ae5a,,,,,,,,,,,,,,,,,,,,,,,l,0,0.7637,"[""0.163"",""0.441"",""0.718"",""0.910""]","[1,1,0,1]",0,16,16,16,1,0,1,,,0,FALSE,,,,,,,,,,,,,,,,,,,,,,,,,,,,,,
,613a80b393cb8128b75cda11,001,2022-04-28_20h17.14.321,classification_task,2021.2.3,Win32,59.92329818,613a80b393cb8128b75cda11,626b377229c10585ec392f8a,626b3c6513a9fc669217ae5a,,,,,,,,,,,,,,,,,,,,,,,l,1,1.1969,"[""0.070"",""0.271"",""0.773"",""0.677""]","[1,1,0,1]",0,17,17,17,1,1,0,,,0,FALSE,,,,,,,,,,,,,,,,,,,,,,,,,,,,,,
,613a80b393cb8128b75cda11,001,2022-04-28_20h17.14.321,classification_task,2021.2.3,Win32,59.92329818,613a80b393cb8128b75cda11,626b377229c10585ec392f8a,626b3c6513a9fc669217ae5a,,,,,,,,,,,,,,,,,,,,,,,l,0,0.7644,"[""0.220"",""0.441"",""0.630"",""0.910""]","[0,1,1,1]",0,18,18,18,1,0,1,,,0,FALSE,,,,,,,,,,,,,,,,,,,,,,,,,,,,,,
,613a80b393cb8128b75cda11,001,2022-04-28_20h17.14.321,classification_task,2021.2.3,Win32,59.92329818,613a80b393cb8128b75cda11,626b377229c10585ec392f8a,626b3c6513a9fc669217ae5a,,,,,,,,,,,,,,,,,,,,,,,l,1,0.7475,"[""0.070"",""0.271"",""0.490"",""0.220""]","[1,1,1,0]",0,19,19,19,1,1,0,,,0,FALSE,,,,,,,,,,,,,,,,,,,,,,,,,,,,,,
,613a80b393cb8128b75cda11,001,2022-04-28_20h17.14.321,classification_task,2021.2.3,Win32,59.92329818,613a80b393cb8128b75cda11,626b377229c10585ec392f8a,626b3c6513a9fc669217ae5a,,,,,,,,,,,,,,,,,,,,,,,l,1,1.0144,"[""0.774"",""0.389"",""0.564"",""0.810""]","[0,1,1,1]",0,20,20,20,1,1,1,,,0,FALSE,,,,,,,,,,,,,,,,,,,,,,,,,,,,,,
,613a80b393cb8128b75cda11,001,2022-04-28_20h17.14.321,classification_task,2021.2.3,Win32,59.92329818,613a80b393cb8128b75cda11,626b377229c10585ec392f8a,626b3c6513a9fc669217ae5a,,,,,,,,,,,,,,,,,,,,,,,l,0,0.4987,"[""0.163"",""0.734"",""0.630"",""0.910""]","[1,0,1,1]",0,21,21,21,1,0,1,,,0,FALSE,,,,,,,,,,,,,,,,,,,,,,,,,,,,,,
,613a80b393cb8128b75cda11,001,2022-04-28_20h17.14.321,classification_task,2021.2.3,Win32,59.92329818,613a80b393cb8128b75cda11,626b377229c10585ec392f8a,626b3c6513a9fc669217ae5a,,,,,,,,,,,,,,,,,,,,,,,a,0,0.6153,"[""0.125"",""0.389"",""0.564"",""0.718""]","[1,1,1,0]",0,22,22,22,1,1,1,,,0,FALSE,,,,,,,,,,,,,,,,,,,,,,,,,,,,,,
,613a80b393cb8128b75cda11,001,2022-04-28_20h17.14.321,classification_task,2021.2.3,Win32,59.92329818,613a80b393cb8128b75cda11,626b377229c10585ec392f8a,626b3c6513a9fc669217ae5a,,,,,,,,,,,,,,,,,,,,,,,l,1,0.8805,"[""0.777"",""0.271"",""0.490"",""0.677""]","[0,1,1,1]",0,23,23,23,1,1,0,,,0,FALSE,,,,,,,,,,,,,,,,,,,,,,,,,,,,,,
,613a80b393cb8128b75cda11,001,2022-04-28_20h17.14.321,classification_task,2021.2.3,Win32,59.92329818,613a80b393cb8128b75cda11,626b377229c10585ec392f8a,626b3c6513a9fc669217ae5a,,,,,,,,,,,,,,,,,,,,,,,a,1,0.5749,"[""0.326"",""0.224"",""0.874"",""0.946""]","[1,0,1,1]",0,24,24,24,1,0,0,,,0,FALSE,,,,,,,,,,,,,,,,,,,,,,,,,,,,,,
,613a80b393cb8128b75cda11,001,2022-04-28_20h17.14.321,classification_task,2021.2.3,Win32,59.92329818,613a80b393cb8128b75cda11,626b377229c10585ec392f8a,626b3c6513a9fc669217ae5a,,,,,,,,,,,,,,,,,,,,,,,a,1,0.5308,"[""0.734"",""0.524"",""0.874"",""0.946""]","[0,1,1,1]",0,25,25,25,1,0,0,,,0,FALSE,,,,,,,,,,,,,,,,,,,,,,,,,,,,,,
,613a80b393cb8128b75cda11,001,2022-04-28_20h17.14.321,classification_task,2021.2.3,Win32,59.92329818,613a80b393cb8128b75cda11,626b377229c10585ec392f8a,626b3c6513a9fc669217ae5a,,,,,,,,,,,,,,,,,,,,,,,l,1,0.5651,"[""0.070"",""0.200"",""0.490"",""0.677""]","[1,0,1,1]",0,26,26,26,1,1,0,,,0,FALSE,,,,,,,,,,,,,,,,,,,,,,,,,,,,,,
,613a80b393cb8128b75cda11,001,2022-04-28_20h17.14.321,classification_task,2021.2.3,Win32,59.92329818,613a80b393cb8128b75cda11,626b377229c10585ec392f8a,626b3c6513a9fc669217ae5a,,,,,,,,,,,,,,,,,,,,,,,l,1,0.6309,"[""0.125"",""0.774"",""0.564"",""0.810""]","[1,0,1,1]",0,27,27,27,1,1,1,,,0,FALSE,,,,,,,,,,,,,,,,,,,,,,,,,,,,,,
,613a80b393cb8128b75cda11,001,2022-04-28_20h17.14.321,classification_task,2021.2.3,Win32,59.92329818,613a80b393cb8128b75cda11,626b377229c10585ec392f8a,626b3c6513a9fc669217ae5a,,,,,,,,,,,,,,,,,,,,,,,a,1,1.0548,"[""0.326"",""0.524"",""0.224"",""0.946""]","[1,1,0,1]",0,28,28,28,1,0,0,,,0,FALSE,,,,,,,,,,,,,,,,,,,,,,,,,,,,,,
,613a80b393cb8128b75cda11,001,2022-04-28_20h17.14.321,classification_task,2021.2.3,Win32,59.92329818,613a80b393cb8128b75cda11,626b377229c10585ec392f8a,626b3c6513a9fc669217ae5a,,,,,,,,,,,,,,,,,,,,,,,l,0,0.6459,"[""0.163"",""0.441"",""0.630"",""0.732""]","[1,1,1,0]",0,29,29,29,1,0,1,,,0,FALSE,,,,,,,,,,,,,,,,,,,,,,,,,,,,,,
,613a80b393cb8128b75cda11,001,2022-04-28_20h17.14.321,classification_task,2021.2.3,Win32,59.92329818,613a80b393cb8128b75cda11,626b377229c10585ec392f8a,626b3c6513a9fc669217ae5a,,,,,,,,,,,,,,,,,,,,,,,a,0,0.8999,"[""0.125"",""0.389"",""0.220"",""0.810""]","[1,1,0,1]",0,30,30,30,1,1,1,,,0,FALSE,,,,,,,,,,,,,,,,,,,,,,,,,,,,,,
,613a80b393cb8128b75cda11,001,2022-04-28_20h17.14.321,classification_task,2021.2.3,Win32,59.92329818,613a80b393cb8128b75cda11,626b377229c10585ec392f8a,626b3c6513a9fc669217ae5a,,,,,,,,,,,,,,,,,,,,,,,a,1,1.3802,"[""0.326"",""0.524"",""0.874"",""0.215""]","[1,1,1,0]",0,31,31,31,1,0,0,,,0,FALSE,,,,,,,,,,,,,,,,,,,,,,,,,,,,,,
,613a80b393cb8128b75cda11,001,2022-04-28_20h17.14.321,classification_task,2021.2.3,Win32,59.92329818,613a80b393cb8128b75cda11,626b377229c10585ec392f8a,626b3c6513a9fc669217ae5a,,,,,,,,,,,,,,,,,,,,,,,l,1,0.7597,"[""0.070"",""0.271"",""0.490"",""0.032""]","[1,1,1,0]",0,32,32,32,1,1,0,,,0,FALSE,,,,,,,,,,,,,,,,,,,,,,,,,,,,,,
,613a80b393cb8128b75cda11,001,2022-04-28_20h17.14.321,classification_task,2021.2.3,Win32,59.92329818,613a80b393cb8128b75cda11,626b377229c10585ec392f8a,626b3c6513a9fc669217ae5a,,,,,,,,,,,,,,,,,,,,,,,l,1,0.499,"[""0.070"",""0.271"",""0.032"",""0.677""]","[1,1,0,1]",0,33,33,33,1,1,0,,,0,FALSE,,,,,,,,,,,,,,,,,,,,,,,,,,,,,,
,613a80b393cb8128b75cda11,001,2022-04-28_20h17.14.321,classification_task,2021.2.3,Win32,59.92329818,613a80b393cb8128b75cda11,626b377229c10585ec392f8a,626b3c6513a9fc669217ae5a,,,,,,,,,,,,,,,,,,,,,,,a,0,0.9302,"[""0.125"",""0.389"",""0.718"",""0.810""]","[1,1,0,1]",0,34,34,34,1,1,1,,,0,FALSE,,,,,,,,,,,,,,,,,,,,,,,,,,,,,,
,613a80b393cb8128b75cda11,001,2022-04-28_20h17.14.321,classification_task,2021.2.3,Win32,59.92329818,613a80b393cb8128b75cda11,626b377229c10585ec392f8a,626b3c6513a9fc669217ae5a,,,,,,,,,,,,,,,,,,,,,,,a,1,0.6294,"[""0.722"",""0.524"",""0.874"",""0.946""]","[0,1,1,1]",0,35,35,35,1,0,0,,,0,FALSE,,,,,,,,,,,,,,,,,,,,,,,,,,,,,,
,613a80b393cb8128b75cda11,001,2022-04-28_20h17.14.321,classification_task,2021.2.3,Win32,59.92329818,613a80b393cb8128b75cda11,626b377229c10585ec392f8a,626b3c6513a9fc669217ae5a,,,,,,,,,,,,,,,,,,,,,,,l,0,0.7294,"[""0.163"",""0.732"",""0.630"",""0.910""]","[1,0,1,1]",0,36,36,36,1,0,1,,,0,FALSE,,,,,,,,,,,,,,,,,,,,,,,,,,,,,,
,613a80b393cb8128b75cda11,001,2022-04-28_20h17.14.321,classification_task,2021.2.3,Win32,59.92329818,613a80b393cb8128b75cda11,626b377229c10585ec392f8a,626b3c6513a9fc669217ae5a,,,,,,,,,,,,,,,,,,,,,,,l,1,0.6452,"[""0.070"",""0.220"",""0.490"",""0.677""]","[1,0,1,1]",0,37,37,37,1,1,0,,,0,FALSE,,,,,,,,,,,,,,,,,,,,,,,,,,,,,,
,613a80b393cb8128b75cda11,001,2022-04-28_20h17.14.321,classification_task,2021.2.3,Win32,59.92329818,613a80b393cb8128b75cda11,626b377229c10585ec392f8a,626b3c6513a9fc669217ae5a,,,,,,,,,,,,,,,,,,,,,,,l,0,0.7144,"[""0.163"",""0.441"",""0.032"",""0.910""]","[1,1,0,1]",0,38,38,38,1,0,1,,,0,FALSE,,,,,,,,,,,,,,,,,,,,,,,,,,,,,,
,613a80b393cb8128b75cda11,001,2022-04-28_20h17.14.321,classification_task,2021.2.3,Win32,59.92329818,613a80b393cb8128b75cda11,626b377229c10585ec392f8a,626b3c6513a9fc669217ae5a,,,,,,,,,,,,,,,,,,,,,,,a,1,0.7809,"[""0.326"",""0.524"",""0.718"",""0.946""]","[1,1,0,1]",0,39,39,39,1,0,0,,,0,FALSE,,,,,,,,,,,,,,,,,,,,,,,,,,,,,,
,613a80b393cb8128b75cda11,001,2022-04-28_20h17.14.321,classification_task,2021.2.3,Win32,59.92329818,613a80b393cb8128b75cda11,626b377229c10585ec392f8a,626b3c6513a9fc669217ae5a,,,,,,,,,,,,,,,,,,,,,,,l,0,0.7135,"[""0.200"",""0.441"",""0.630"",""0.910""]","[0,1,1,1]",0,40,40,40,1,0,1,,,0,FALSE,,,,,,,,,,,,,,,,,,,,,,,,,,,,,,
,613a80b393cb8128b75cda11,001,2022-04-28_20h17.14.321,classification_task,2021.2.3,Win32,59.92329818,613a80b393cb8128b75cda11,626b377229c10585ec392f8a,626b3c6513a9fc669217ae5a,,,,,,,,,,,,,,,,,,,,,,,l,1,1.2806,"[""0.730"",""0.271"",""0.490"",""0.677""]","[0,1,1,1]",0,41,41,41,1,1,0,,,0,FALSE,,,,,,,,,,,,,,,,,,,,,,,,,,,,,,
,613a80b393cb8128b75cda11,001,2022-04-28_20h17.14.321,classification_task,2021.2.3,Win32,59.92329818,613a80b393cb8128b75cda11,626b377229c10585ec392f8a,626b3c6513a9fc669217ae5a,,,,,,,,,,,,,,,,,,,,,,,a,0,0.6416,"[""0.125"",""0.389"",""0.564"",""0.776""]","[1,1,1,0]",0,42,42,42,1,1,1,,,0,FALSE,,,,,,,,,,,,,,,,,,,,,,,,,,,,,,
,613a80b393cb8128b75cda11,001,2022-04-28_20h17.14.321,classification_task,2021.2.3,Win32,59.92329818,613a80b393cb8128b75cda11,626b377229c10585ec392f8a,626b3c6513a9fc669217ae5a,,,,,,,,,,,,,,,,,,,,,,,l,1,0.581,"[""0.125"",""0.224"",""0.564"",""0.810""]","[1,0,1,1]",0,43,43,43,1,1,1,,,0,FALSE,,,,,,,,,,,,,,,,,,,,,,,,,,,,,,
,613a80b393cb8128b75cda11,001,2022-04-28_20h17.14.321,classification_task,2021.2.3,Win32,59.92329818,613a80b393cb8128b75cda11,626b377229c10585ec392f8a,626b3c6513a9fc669217ae5a,,,,,,,,,,,,,,,,,,,,,,,a,1,0.7129,"[""0.326"",""0.718"",""0.874"",""0.946""]","[1,0,1,1]",0,44,44,44,1,0,0,,,0,FALSE,,,,,,,,,,,,,,,,,,,,,,,,,,,,,,
,613a80b393cb8128b75cda11,001,2022-04-28_20h17.14.321,classification_task,2021.2.3,Win32,59.92329818,613a80b393cb8128b75cda11,626b377229c10585ec392f8a,626b3c6513a9fc669217ae5a,,,,,,,,,,,,,,,,,,,,,,,a,1,0.6988,"[""0.326"",""0.524"",""0.874"",""0.746""]","[1,1,1,0]",0,45,45,45,1,0,0,,,0,FALSE,,,,,,,,,,,,,,,,,,,,,,,,,,,,,,
,613a80b393cb8128b75cda11,001,2022-04-28_20h17.14.321,classification_task,2021.2.3,Win32,59.92329818,613a80b393cb8128b75cda11,626b377229c10585ec392f8a,626b3c6513a9fc669217ae5a,,,,,,,,,,,,,,,,,,,,,,,l,0,0.5969,"[""0.163"",""0.441"",""0.630"",""0.200""]","[1,1,1,0]",0,46,46,46,1,0,1,,,0,FALSE,,,,,,,,,,,,,,,,,,,,,,,,,,,,,,
,613a80b393cb8128b75cda11,001,2022-04-28_20h17.14.321,classification_task,2021.2.3,Win32,59.92329818,613a80b393cb8128b75cda11,626b377229c10585ec392f8a,626b3c6513a9fc669217ae5a,,,,,,,,,,,,,,,,,,,,,,,l,1,0.5667,"[""0.718"",""0.389"",""0.564"",""0.810""]","[0,1,1,1]",0,47,47,47,1,1,1,,,0,FALSE,,,,,,,,,,,,,,,,,,,,,,,,,,,,,,
,613a80b393cb8128b75cda11,001,2022-04-28_20h17.14.321,classification_task,2021.2.3,Win32,59.92329818,613a80b393cb8128b75cda11,626b377229c10585ec392f8a,626b3c6513a9fc669217ae5a,,,,,,,,,,,,,,,,,,,,,,,l,0,0.4988,"[""0.163"",""0.441"",""0.220"",""0.910""]","[1,1,0,1]",0,48,48,48,1,0,1,,,0,FALSE,,,,,,,,,,,,,,,,,,,,,,,,,,,,,,
,613a80b393cb8128b75cda11,001,2022-04-28_20h17.14.321,classification_task,2021.2.3,Win32,59.92329818,613a80b393cb8128b75cda11,626b377229c10585ec392f8a,626b3c6513a9fc669217ae5a,,,,,,,,,,,,,,,,,,,,,,,l,1,0.7324,"[""0.776"",""0.389"",""0.564"",""0.810""]","[0,1,1,1]",0,49,49,49,1,1,1,,,0,FALSE,,,,,,,,,,,,,,,,,,,,,,,,,,,,,,
,613a80b393cb8128b75cda11,001,2022-04-28_20h17.14.321,classification_task,2021.2.3,Win32,59.92329818,613a80b393cb8128b75cda11,626b377229c10585ec392f8a,626b3c6513a9fc669217ae5a,,,,,,,,,,,,,,,,,,,,,,,l,0,0.9788,"[""0.777"",""0.524"",""0.874"",""0.946""]","[0,1,1,1]",0,50,50,50,1,0,0,,,0,FALSE,,,,,,,,,,,,,,,,,,,,,,,,,,,,,,
,613a80b393cb8128b75cda11,001,2022-04-28_20h17.14.321,classification_task,2021.2.3,Win32,59.92329818,613a80b393cb8128b75cda11,626b377229c10585ec392f8a,626b3c6513a9fc669217ae5a,,,,,,,,,,,,,,,,,,,,,,,l,1,0.5463,"[""0.125"",""0.776"",""0.564"",""0.810""]","[1,0,1,1]",0,51,51,51,1,1,1,,,0,FALSE,,,,,,,,,,,,,,,,,,,,,,,,,,,,,,
,613a80b393cb8128b75cda11,001,2022-04-28_20h17.14.321,classification_task,2021.2.3,Win32,59.92329818,613a80b393cb8128b75cda11,626b377229c10585ec392f8a,626b3c6513a9fc669217ae5a,,,,,,,,,,,,,,,,,,,,,,,a,0,0.549,"[""0.125"",""0.389"",""0.777"",""0.810""]","[1,1,0,1]",0,52,52,52,1,1,1,,,0,FALSE,,,,,,,,,,,,,,,,,,,,,,,,,,,,,,
,613a80b393cb8128b75cda11,001,2022-04-28_20h17.14.321,classification_task,2021.2.3,Win32,59.92329818,613a80b393cb8128b75cda11,626b377229c10585ec392f8a,626b3c6513a9fc669217ae5a,,,,,,,,,,,,,,,,,,,,,,,l,0,0.5283,"[""0.326"",""0.524"",""0.874"",""0.200""]","[1,1,1,0]",0,53,53,53,1,0,0,,,0,FALSE,,,,,,,,,,,,,,,,,,,,,,,,,,,,,,
,613a80b393cb8128b75cda11,001,2022-04-28_20h17.14.321,classification_task,2021.2.3,Win32,59.92329818,613a80b393cb8128b75cda11,626b377229c10585ec392f8a,626b3c6513a9fc669217ae5a,,,,,,,,,,,,,,,,,,,,,,,a,1,0.5799,"[""0.163"",""0.441"",""0.630"",""0.224""]","[1,1,1,0]",0,54,54,54,1,0,1,,,0,FALSE,,,,,,,,,,,,,,,,,,,,,,,,,,,,,,
,613a80b393cb8128b75cda11,001,2022-04-28_20h17.14.321,classification_task,2021.2.3,Win32,59.92329818,613a80b393cb8128b75cda11,626b377229c10585ec392f8a,626b3c6513a9fc669217ae5a,,,,,,,,,,,,,,,,,,,,,,,a,0,0.6135,"[""0.070"",""0.271"",""0.718"",""0.677""]","[1,1,0,1]",0,55,55,55,1,1,0,,,0,FALSE,,,,,,,,,,,,,,,,,,,,,,,,,,,,,,
,613a80b393cb8128b75cda11,001,2022-04-28_20h17.14.321,classification_task,2021.2.3,Win32,59.92329818,613a80b393cb8128b75cda11,626b377229c10585ec392f8a,626b3c6513a9fc669217ae5a,,,,,,,,,,,,,,,,,,,,,,,a,1,0.5624,"[""0.163"",""0.774"",""0.630"",""0.910""]","[1,0,1,1]",0,56,56,56,1,0,1,,,0,FALSE,,,,,,,,,,,,,,,,,,,,,,,,,,,,,,
,613a80b393cb8128b75cda11,001,2022-04-28_20h17.14.321,classification_task,2021.2.3,Win32,59.92329818,613a80b393cb8128b75cda11,626b377229c10585ec392f8a,626b3c6513a9fc669217ae5a,,,,,,,,,,,,,,,,,,,,,,,a,0,0.4643,"[""0.070"",""0.271"",""0.490"",""0.732""]","[1,1,1,0]",0,57,57,57,1,1,0,,,0,FALSE,,,,,,,,,,,,,,,,,,,,,,,,,,,,,,
,613a80b393cb8128b75cda11,001,2022-04-28_20h17.14.321,classification_task,2021.2.3,Win32,59.92329818,613a80b393cb8128b75cda11,626b377229c10585ec392f8a,626b3c6513a9fc669217ae5a,,,,,,,,,,,,,,,,,,,,,,,a,1,1.5626,"[""0.732"",""0.441"",""0.630"",""0.910""]","[0,1,1,1]",0,58,58,58,1,0,1,,,0,FALSE,,,,,,,,,,,,,,,,,,,,,,,,,,,,,,
,613a80b393cb8128b75cda11,001,2022-04-28_20h17.14.321,classification_task,2021.2.3,Win32,59.92329818,613a80b393cb8128b75cda11,626b377229c10585ec392f8a,626b3c6513a9fc669217ae5a,,,,,,,,,,,,,,,,,,,,,,,a,1,0.9666,"[""0.326"",""0.746"",""0.874"",""0.946""]","[1,0,1,1]",0,59,59,59,1,0,0,,,0,FALSE,,,,,,,,,,,,,,,,,,,,,,,,,,,,,,
,613a80b393cb8128b75cda11,001,2022-04-28_20h17.14.321,classification_task,2021.2.3,Win32,59.92329818,613a80b393cb8128b75cda11,626b377229c10585ec392f8a,626b3c6513a9fc669217ae5a,,,,,,,,,,,,,,,,,,,,,,,l,1,0.6151,"[""0.070"",""0.744"",""0.490"",""0.677""]","[1,0,1,1]",0,60,60,60,1,1,0,,,0,FALSE,,,,,,,,,,,,,,,,,,,,,,,,,,,,,,
,613a80b393cb8128b75cda11,001,2022-04-28_20h17.14.321,classification_task,2021.2.3,Win32,59.92329818,613a80b393cb8128b75cda11,626b377229c10585ec392f8a,626b3c6513a9fc669217ae5a,,,,,,,,,,,,,,,,,,,,,,,l,1,0.5983,"[""0.032"",""0.271"",""0.490"",""0.677""]","[0,1,1,1]",0,61,61,61,1,1,0,,,0,FALSE,,,,,,,,,,,,,,,,,,,,,,,,,,,,,,
,613a80b393cb8128b75cda11,001,2022-04-28_20h17.14.321,classification_task,2021.2.3,Win32,59.92329818,613a80b393cb8128b75cda11,626b377229c10585ec392f8a,626b3c6513a9fc669217ae5a,,,,,,,,,,,,,,,,,,,,,,,a,1,0.6521,"[""0.326"",""0.524"",""0.220"",""0.946""]","[1,1,0,1]",0,62,62,62,1,0,0,,,0,FALSE,,,,,,,,,,,,,,,,,,,,,,,,,,,,,,
,613a80b393cb8128b75cda11,001,2022-04-28_20h17.14.321,classification_task,2021.2.3,Win32,59.92329818,613a80b393cb8128b75cda11,626b377229c10585ec392f8a,626b3c6513a9fc669217ae5a,,,,,,,,,,,,,,,,,,,,,,,l,1,0.7284,"[""0.125"",""0.389"",""0.564"",""0.773""]","[1,1,1,0]",0,63,63,63,1,1,1,,,0,FALSE,,,,,,,,,,,,,,,,,,,,,,,,,,,,,,
,613a80b393cb8128b75cda11,001,2022-04-28_20h17.14.321,classification_task,2021.2.3,Win32,59.92329818,613a80b393cb8128b75cda11,626b377229c10585ec392f8a,626b3c6513a9fc669217ae5a,,,,,,,,,,,,,,,,,,,,,,,,,,,,,,,,,,,,,,,0, ,,0,2.871635748,142.2319,0,1,1,1,1,2,2,,,,,,,,,,,,,,,,,
,613a80b393cb8128b75cda11,001,2022-04-28_20h17.14.321,classification_task,2021.2.3,Win32,59.92329818,613a80b393cb8128b75cda11,626b377229c10585ec392f8a,626b3c6513a9fc669217ae5a,,,,,,,,,,,,,,,,,,,,,,,,,,,,,,,,,,,,,,,1,  ,,0,10,144.1013,0,1,1,1,1,2,2,,,,,,,,,,,,,,,,,
,613a80b393cb8128b75cda11,001,2022-04-28_20h17.14.321,classification_task,2021.2.3,Win32,59.92329818,613a80b393cb8128b75cda11,626b377229c10585ec392f8a,626b3c6513a9fc669217ae5a,,,,,,,,,,,,,,,,,,,,,,,,,,,,,,,,,,,,,,,2,  ,,0,9.321220126,146.0276,0,1,1,1,1,2,2,,,,,,,,,,,,,,,,,
,613a80b393cb8128b75cda11,001,2022-04-28_20h17.14.321,classification_task,2021.2.3,Win32,59.92329818,613a80b393cb8128b75cda11,626b377229c10585ec392f8a,626b3c6513a9fc669217ae5a,,,,,,,,,,,,,,,,,,,,,,,,,,,,,,,,,,,,,,,,,,,,,0,1,1,1,1,,2,,,,,,,,,,,,,,,,,
,613a80b393cb8128b75cda11,001,2022-04-28_20h17.14.321,classification_task,2021.2.3,Win32,59.92329818,613a80b393cb8128b75cda11,626b377229c10585ec392f8a,626b3c6513a9fc669217ae5a,,,,,,,,,,,,,,,,,,,,,space,30.8064,l,1,0.6432,"[""0.774"",""0.271"",""0.490"",""0.677""]","[0,1,1,1]",0,0,0,0,1,1,0,,,0,FALSE,,,,,,,,,,,,,,,,,,,,,,,,,,,,,,
,613a80b393cb8128b75cda11,001,2022-04-28_20h17.14.321,classification_task,2021.2.3,Win32,59.92329818,613a80b393cb8128b75cda11,626b377229c10585ec392f8a,626b3c6513a9fc669217ae5a,,,,,,,,,,,,,,,,,,,,,,,l,1,0.6343,"[""0.125"",""0.746"",""0.564"",""0.810""]","[1,0,1,1]",0,1,1,1,1,1,1,,,0,FALSE,,,,,,,,,,,,,,,,,,,,,,,,,,,,,,
,613a80b393cb8128b75cda11,001,2022-04-28_20h17.14.321,classification_task,2021.2.3,Win32,59.92329818,613a80b393cb8128b75cda11,626b377229c10585ec392f8a,626b3c6513a9fc669217ae5a,,,,,,,,,,,,,,,,,,,,,,,a,0,0.6316,"[""0.070"",""0.776"",""0.490"",""0.677""]","[1,0,1,1]",0,2,2,2,1,1,0,,,0,FALSE,,,,,,,,,,,,,,,,,,,,,,,,,,,,,,
,613a80b393cb8128b75cda11,001,2022-04-28_20h17.14.321,classification_task,2021.2.3,Win32,59.92329818,613a80b393cb8128b75cda11,626b377229c10585ec392f8a,626b3c6513a9fc669217ae5a,,,,,,,,,,,,,,,,,,,,,,,a,0,0.4834,"[""0.125"",""0.389"",""0.564"",""0.774""]","[1,1,1,0]",0,3,3,3,1,1,1,,,0,FALSE,,,,,,,,,,,,,,,,,,,,,,,,,,,,,,
,613a80b393cb8128b75cda11,001,2022-04-28_20h17.14.321,classification_task,2021.2.3,Win32,59.92329818,613a80b393cb8128b75cda11,626b377229c10585ec392f8a,626b3c6513a9fc669217ae5a,,,,,,,,,,,,,,,,,,,,,,,a,0,0.7503,"[""0.070"",""0.271"",""0.490"",""0.776""]","[1,1,1,0]",0,4,4,4,1,1,0,,,0,FALSE,,,,,,,,,,,,,,,,,,,,,,,,,,,,,,
,613a80b393cb8128b75cda11,001,2022-04-28_20h17.14.321,classification_task,2021.2.3,Win32,59.92329818,613a80b393cb8128b75cda11,626b377229c10585ec392f8a,626b3c6513a9fc669217ae5a,,,,,,,,,,,,,,,,,,,,,,,l,0,0.5507,"[""0.326"",""0.524"",""0.718"",""0.946""]","[1,1,0,1]",0,5,5,5,1,0,0,,,0,FALSE,,,,,,,,,,,,,,,,,,,,,,,,,,,,,,
,613a80b393cb8128b75cda11,001,2022-04-28_20h17.14.321,classification_task,2021.2.3,Win32,59.92329818,613a80b393cb8128b75cda11,626b377229c10585ec392f8a,626b3c6513a9fc669217ae5a,,,,,,,,,,,,,,,,,,,,,,,l,0,0.6667,"[""0.734"",""0.441"",""0.630"",""0.910""]","[0,1,1,1]",0,6,6,6,1,0,1,,,0,FALSE,,,,,,,,,,,,,,,,,,,,,,,,,,,,,,
,613a80b393cb8128b75cda11,001,2022-04-28_20h17.14.321,classification_task,2021.2.3,Win32,59.92329818,613a80b393cb8128b75cda11,626b377229c10585ec392f8a,626b3c6513a9fc669217ae5a,,,,,,,,,,,,,,,,,,,,,,,a,0,0.4654,"[""0.070"",""0.271"",""0.718"",""0.677""]","[1,1,0,1]",0,7,7,7,1,1,0,,,0,FALSE,,,,,,,,,,,,,,,,,,,,,,,,,,,,,,
,613a80b393cb8128b75cda11,001,2022-04-28_20h17.14.321,classification_task,2021.2.3,Win32,59.92329818,613a80b393cb8128b75cda11,626b377229c10585ec392f8a,626b3c6513a9fc669217ae5a,,,,,,,,,,,,,,,,,,,,,,,a,0,1.0993,"[""0.125"",""0.389"",""0.200"",""0.810""]","[1,1,0,1]",0,8,8,8,1,1,1,,,0,FALSE,,,,,,,,,,,,,,,,,,,,,,,,,,,,,,
,613a80b393cb8128b75cda11,001,2022-04-28_20h17.14.321,classification_task,2021.2.3,Win32,59.92329818,613a80b393cb8128b75cda11,626b377229c10585ec392f8a,626b3c6513a9fc669217ae5a,,,,,,,,,,,,,,,,,,,,,,,l,0,1.0163,"[""0.032"",""0.524"",""0.874"",""0.946""]","[0,1,1,1]",0,9,9,9,1,0,0,,,0,FALSE,,,,,,,,,,,,,,,,,,,,,,,,,,,,,,
,613a80b393cb8128b75cda11,001,2022-04-28_20h17.14.321,classification_task,2021.2.3,Win32,59.92329818,613a80b393cb8128b75cda11,626b377229c10585ec392f8a,626b3c6513a9fc669217ae5a,,,,,,,,,,,,,,,,,,,,,,,l,0,0.8661,"[""0.163"",""0.441"",""0.777"",""0.910""]","[1,1,0,1]",0,10,10,10,1,0,1,,,0,FALSE,,,,,,,,,,,,,,,,,,,,,,,,,,,,,,
,613a80b393cb8128b75cda11,001,2022-04-28_20h17.14.321,classification_task,2021.2.3,Win32,59.92329818,613a80b393cb8128b75cda11,626b377229c10585ec392f8a,626b3c6513a9fc669217ae5a,,,,,,,,,,,,,,,,,,,,,,,l,0,0.5338,"[""0.163"",""0.732"",""0.630"",""0.910""]","[1,0,1,1]",0,11,11,11,1,0,1,,,0,FALSE,,,,,,,,,,,,,,,,,,,,,,,,,,,,,,
,613a80b393cb8128b75cda11,001,2022-04-28_20h17.14.321,classification_task,2021.2.3,Win32,59.92329818,613a80b393cb8128b75cda11,626b377229c10585ec392f8a,626b3c6513a9fc669217ae5a,,,,,,,,,,,,,,,,,,,,,,,a,1,0.6991,"[""0.326"",""0.776"",""0.874"",""0.946""]","[1,0,1,1]",0,12,12,12,1,0,0,,,0,FALSE,,,,,,,,,,,,,,,,,,,,,,,,,,,,,,
,613a80b393cb8128b75cda11,001,2022-04-28_20h17.14.321,classification_task,2021.2.3,Win32,59.92329818,613a80b393cb8128b75cda11,626b377229c10585ec392f8a,626b3c6513a9fc669217ae5a,,,,,,,,,,,,,,,,,,,,,,,a,1,0.4314,"[""0.326"",""0.524"",""0.874"",""0.718""]","[1,1,1,0]",0,13,13,13,1,0,0,,,0,FALSE,,,,,,,,,,,,,,,,,,,,,,,,,,,,,,
,613a80b393cb8128b75cda11,001,2022-04-28_20h17.14.321,classification_task,2021.2.3,Win32,59.92329818,613a80b393cb8128b75cda11,626b377229c10585ec392f8a,626b3c6513a9fc669217ae5a,,,,,,,,,,,,,,,,,,,,,,,a,1,0.6329,"[""0.163"",""0.441"",""0.630"",""0.722""]","[1,1,1,0]",0,14,14,14,1,0,1,,,0,FALSE,,,,,,,,,,,,,,,,,,,,,,,,,,,,,,
,613a80b393cb8128b75cda11,001,2022-04-28_20h17.14.321,classification_task,2021.2.3,Win32,59.92329818,613a80b393cb8128b75cda11,626b377229c10585ec392f8a,626b3c6513a9fc669217ae5a,,,,,,,,,,,,,,,,,,,,,,,l,1,0.6643,"[""0.746"",""0.389"",""0.564"",""0.810""]","[0,1,1,1]",0,15,15,15,1,1,1,,,0,FALSE,,,,,,,,,,,,,,,,,,,,,,,,,,,,,,
,613a80b393cb8128b75cda11,001,2022-04-28_20h17.14.321,classification_task,2021.2.3,Win32,59.92329818,613a80b393cb8128b75cda11,626b377229c10585ec392f8a,626b3c6513a9fc669217ae5a,,,,,,,,,,,,,,,,,,,,,,,l,0,0.6153,"[""0.163"",""0.722"",""0.630"",""0.910""]","[1,0,1,1]",0,16,16,16,1,0,1,,,0,FALSE,,,,,,,,,,,,,,,,,,,,,,,,,,,,,,
,613a80b393cb8128b75cda11,001,2022-04-28_20h17.14.321,classification_task,2021.2.3,Win32,59.92329818,613a80b393cb8128b75cda11,626b377229c10585ec392f8a,626b3c6513a9fc669217ae5a,,,,,,,,,,,,,,,,,,,,,,,l,0,0.7163,"[""0.777"",""0.441"",""0.630"",""0.910""]","[0,1,1,1]",0,17,17,17,1,0,1,,,0,FALSE,,,,,,,,,,,,,,,,,,,,,,,,,,,,,,
,613a80b393cb8128b75cda11,001,2022-04-28_20h17.14.321,classification_task,2021.2.3,Win32,59.92329818,613a80b393cb8128b75cda11,626b377229c10585ec392f8a,626b3c6513a9fc669217ae5a,,,,,,,,,,,,,,,,,,,,,,,a,1,0.6814,"[""0.326"",""0.524"",""0.874"",""0.730""]","[1,1,1,0]",0,18,18,18,1,0,0,,,0,FALSE,,,,,,,,,,,,,,,,,,,,,,,,,,,,,,
,613a80b393cb8128b75cda11,001,2022-04-28_20h17.14.321,classification_task,2021.2.3,Win32,59.92329818,613a80b393cb8128b75cda11,626b377229c10585ec392f8a,626b3c6513a9fc669217ae5a,,,,,,,,,,,,,,,,,,,,,,,a,1,0.9991,"[""0.163"",""0.441"",""0.630"",""0.718""]","[1,1,1,0]",0,19,19,19,1,0,1,,,0,FALSE,,,,,,,,,,,,,,,,,,,,,,,,,,,,,,
,613a80b393cb8128b75cda11,001,2022-04-28_20h17.14.321,classification_task,2021.2.3,Win32,59.92329818,613a80b393cb8128b75cda11,626b377229c10585ec392f8a,626b3c6513a9fc669217ae5a,,,,,,,,,,,,,,,,,,,,,,,a,1,0.6487,"[""0.326"",""0.200"",""0.874"",""0.946""]","[1,0,1,1]",0,20,20,20,1,0,0,,,0,FALSE,,,,,,,,,,,,,,,,,,,,,,,,,,,,,,
,613a80b393cb8128b75cda11,001,2022-04-28_20h17.14.321,classification_task,2021.2.3,Win32,59.92329818,613a80b393cb8128b75cda11,626b377229c10585ec392f8a,626b3c6513a9fc669217ae5a,,,,,,,,,,,,,,,,,,,,,,,a,0,0.9,"[""0.070"",""0.200"",""0.490"",""0.677""]","[1,0,1,1]",0,21,21,21,1,1,0,,,0,FALSE,,,,,,,,,,,,,,,,,,,,,,,,,,,,,,
,613a80b393cb8128b75cda11,001,2022-04-28_20h17.14.321,classification_task,2021.2.3,Win32,59.92329818,613a80b393cb8128b75cda11,626b377229c10585ec392f8a,626b3c6513a9fc669217ae5a,,,,,,,,,,,,,,,,,,,,,,,l,0,0.587,"[""0.732"",""0.524"",""0.874"",""0.946""]","[0,1,1,1]",0,22,22,22,1,0,0,,,0,FALSE,,,,,,,,,,,,,,,,,,,,,,,,,,,,,,
,613a80b393cb8128b75cda11,001,2022-04-28_20h17.14.321,classification_task,2021.2.3,Win32,59.92329818,613a80b393cb8128b75cda11,626b377229c10585ec392f8a,626b3c6513a9fc669217ae5a,,,,,,,,,,,,,,,,,,,,,,,a,0,0.4833,"[""0.215"",""0.271"",""0.490"",""0.677""]","[0,1,1,1]",0,23,23,23,1,1,0,,,0,FALSE,,,,,,,,,,,,,,,,,,,,,,,,,,,,,,
,613a80b393cb8128b75cda11,001,2022-04-28_20h17.14.321,classification_task,2021.2.3,Win32,59.92329818,613a80b393cb8128b75cda11,626b377229c10585ec392f8a,626b3c6513a9fc669217ae5a,,,,,,,,,,,,,,,,,,,,,,,l,1,0.4494,"[""0.125"",""0.744"",""0.564"",""0.810""]","[1,0,1,1]",0,24,24,24,1,1,1,,,0,FALSE,,,,,,,,,,,,,,,,,,,,,,,,,,,,,,
,613a80b393cb8128b75cda11,001,2022-04-28_20h17.14.321,classification_task,2021.2.3,Win32,59.92329818,613a80b393cb8128b75cda11,626b377229c10585ec392f8a,626b3c6513a9fc669217ae5a,,,,,,,,,,,,,,,,,,,,,,,l,0,0.5825,"[""0.326"",""0.524"",""0.776"",""0.946""]","[1,1,0,1]",0,25,25,25,1,0,0,,,0,FALSE,,,,,,,,,,,,,,,,,,,,,,,,,,,,,,
,613a80b393cb8128b75cda11,001,2022-04-28_20h17.14.321,classification_task,2021.2.3,Win32,59.92329818,613a80b393cb8128b75cda11,626b377229c10585ec392f8a,626b3c6513a9fc669217ae5a,,,,,,,,,,,,,,,,,,,,,,,a,0,0.8162,"[""0.215"",""0.389"",""0.564"",""0.810""]","[0,1,1,1]",0,26,26,26,1,1,1,,,0,FALSE,,,,,,,,,,,,,,,,,,,,,,,,,,,,,,
,613a80b393cb8128b75cda11,001,2022-04-28_20h17.14.321,classification_task,2021.2.3,Win32,59.92329818,613a80b393cb8128b75cda11,626b377229c10585ec392f8a,626b3c6513a9fc669217ae5a,,,,,,,,,,,,,,,,,,,,,,,a,0,0.6529,"[""0.070"",""0.271"",""0.744"",""0.677""]","[1,1,0,1]",0,27,27,27,1,1,0,,,0,FALSE,,,,,,,,,,,,,,,,,,,,,,,,,,,,,,
,613a80b393cb8128b75cda11,001,2022-04-28_20h17.14.321,classification_task,2021.2.3,Win32,59.92329818,613a80b393cb8128b75cda11,626b377229c10585ec392f8a,626b3c6513a9fc669217ae5a,,,,,,,,,,,,,,,,,,,,,,,a,0,0.6802,"[""0.125"",""0.389"",""0.744"",""0.810""]","[1,1,0,1]",0,28,28,28,1,1,1,,,0,FALSE,,,,,,,,,,,,,,,,,,,,,,,,,,,,,,
,613a80b393cb8128b75cda11,001,2022-04-28_20h17.14.321,classification_task,2021.2.3,Win32,59.92329818,613a80b393cb8128b75cda11,626b377229c10585ec392f8a,626b3c6513a9fc669217ae5a,,,,,,,,,,,,,,,,,,,,,,,l,1,0.8485,"[""0.070"",""0.271"",""0.490"",""0.220""]","[1,1,1,0]",0,29,29,29,1,1,0,,,0,FALSE,,,,,,,,,,,,,,,,,,,,,,,,,,,,,,
,613a80b393cb8128b75cda11,001,2022-04-28_20h17.14.321,classification_task,2021.2.3,Win32,59.92329818,613a80b393cb8128b75cda11,626b377229c10585ec392f8a,626b3c6513a9fc669217ae5a,,,,,,,,,,,,,,,,,,,,,,,l,0,0.5541,"[""0.163"",""0.441"",""0.718"",""0.910""]","[1,1,0,1]",0,30,30,30,1,0,1,,,0,FALSE,,,,,,,,,,,,,,,,,,,,,,,,,,,,,,
,613a80b393cb8128b75cda11,001,2022-04-28_20h17.14.321,classification_task,2021.2.3,Win32,59.92329818,613a80b393cb8128b75cda11,626b377229c10585ec392f8a,626b3c6513a9fc669217ae5a,,,,,,,,,,,,,,,,,,,,,,,l,1,0.5008,"[""0.125"",""0.389"",""0.564"",""0.732""]","[1,1,1,0]",0,31,31,31,1,1,1,,,0,FALSE,,,,,,,,,,,,,,,,,,,,,,,,,,,,,,
,613a80b393cb8128b75cda11,001,2022-04-28_20h17.14.321,classification_task,2021.2.3,Win32,59.92329818,613a80b393cb8128b75cda11,626b377229c10585ec392f8a,626b3c6513a9fc669217ae5a,,,,,,,,,,,,,,,,,,,,,,,l,0,0.5662,"[""0.326"",""0.524"",""0.744"",""0.946""]","[1,1,0,1]",0,32,32,32,1,0,0,,,0,FALSE,,,,,,,,,,,,,,,,,,,,,,,,,,,,,,
,613a80b393cb8128b75cda11,001,2022-04-28_20h17.14.321,classification_task,2021.2.3,Win32,59.92329818,613a80b393cb8128b75cda11,626b377229c10585ec392f8a,626b3c6513a9fc669217ae5a,,,,,,,,,,,,,,,,,,,,,,,l,1,0.5196,"[""0.220"",""0.389"",""0.564"",""0.810""]","[0,1,1,1]",0,33,33,33,1,1,1,,,0,FALSE,,,,,,,,,,,,,,,,,,,,,,,,,,,,,,
,613a80b393cb8128b75cda11,001,2022-04-28_20h17.14.321,classification_task,2021.2.3,Win32,59.92329818,613a80b393cb8128b75cda11,626b377229c10585ec392f8a,626b3c6513a9fc669217ae5a,,,,,,,,,,,,,,,,,,,,,,,l,1,0.4991,"[""0.730"",""0.271"",""0.490"",""0.677""]","[0,1,1,1]",0,34,34,34,1,1,0,,,0,FALSE,,,,,,,,,,,,,,,,,,,,,,,,,,,,,,
,613a80b393cb8128b75cda11,001,2022-04-28_20h17.14.321,classification_task,2021.2.3,Win32,59.92329818,613a80b393cb8128b75cda11,626b377229c10585ec392f8a,626b3c6513a9fc669217ae5a,,,,,,,,,,,,,,,,,,,,,,,a,0,0.6667,"[""0.070"",""0.271"",""0.490"",""0.215""]","[1,1,1,0]",0,35,35,35,1,1,0,,,0,FALSE,,,,,,,,,,,,,,,,,,,,,,,,,,,,,,
,613a80b393cb8128b75cda11,001,2022-04-28_20h17.14.321,classification_task,2021.2.3,Win32,59.92329818,613a80b393cb8128b75cda11,626b377229c10585ec392f8a,626b3c6513a9fc669217ae5a,,,,,,,,,,,,,,,,,,,,,,,a,1,0.5665,"[""0.163"",""0.441"",""0.630"",""0.734""]","[1,1,1,0]",0,36,36,36,1,0,1,,,0,FALSE,,,,,,,,,,,,,,,,,,,,,,,,,,,,,,
,613a80b393cb8128b75cda11,001,2022-04-28_20h17.14.321,classification_task,2021.2.3,Win32,59.92329818,613a80b393cb8128b75cda11,626b377229c10585ec392f8a,626b3c6513a9fc669217ae5a,,,,,,,,,,,,,,,,,,,,,,,a,1,0.5489,"[""0.163"",""0.032"",""0.630"",""0.910""]","[1,0,1,1]",0,37,37,37,1,0,1,,,0,FALSE,,,,,,,,,,,,,,,,,,,,,,,,,,,,,,
,613a80b393cb8128b75cda11,001,2022-04-28_20h17.14.321,classification_task,2021.2.3,Win32,59.92329818,613a80b393cb8128b75cda11,626b377229c10585ec392f8a,626b3c6513a9fc669217ae5a,,,,,,,,,,,,,,,,,,,,,,,a,1,0.5162,"[""0.326"",""0.524"",""0.874"",""0.718""]","[1,1,1,0]",0,38,38,38,1,0,0,,,0,FALSE,,,,,,,,,,,,,,,,,,,,,,,,,,,,,,
,613a80b393cb8128b75cda11,001,2022-04-28_20h17.14.321,classification_task,2021.2.3,Win32,59.92329818,613a80b393cb8128b75cda11,626b377229c10585ec392f8a,626b3c6513a9fc669217ae5a,,,,,,,,,,,,,,,,,,,,,,,a,0,0.5679,"[""0.125"",""0.389"",""0.718"",""0.810""]","[1,1,0,1]",0,39,39,39,1,1,1,,,0,FALSE,,,,,,,,,,,,,,,,,,,,,,,,,,,,,,
,613a80b393cb8128b75cda11,001,2022-04-28_20h17.14.321,classification_task,2021.2.3,Win32,59.92329818,613a80b393cb8128b75cda11,626b377229c10585ec392f8a,626b3c6513a9fc669217ae5a,,,,,,,,,,,,,,,,,,,,,,,l,0,0.6325,"[""0.722"",""0.441"",""0.630"",""0.910""]","[0,1,1,1]",0,40,40,40,1,0,1,,,0,FALSE,,,,,,,,,,,,,,,,,,,,,,,,,,,,,,
,613a80b393cb8128b75cda11,001,2022-04-28_20h17.14.321,classification_task,2021.2.3,Win32,59.92329818,613a80b393cb8128b75cda11,626b377229c10585ec392f8a,626b3c6513a9fc669217ae5a,,,,,,,,,,,,,,,,,,,,,,,l,1,1.3512,"[""0.125"",""0.774"",""0.564"",""0.810""]","[1,0,1,1]",0,41,41,41,1,1,1,,,0,FALSE,,,,,,,,,,,,,,,,,,,,,,,,,,,,,,
,613a80b393cb8128b75cda11,001,2022-04-28_20h17.14.321,classification_task,2021.2.3,Win32,59.92329818,613a80b393cb8128b75cda11,626b377229c10585ec392f8a,626b3c6513a9fc669217ae5a,,,,,,,,,,,,,,,,,,,,,,,a,0,0.85,"[""0.070"",""0.271"",""0.224"",""0.677""]","[1,1,0,1]",0,42,42,42,1,1,0,,,0,FALSE,,,,,,,,,,,,,,,,,,,,,,,,,,,,,,
,613a80b393cb8128b75cda11,001,2022-04-28_20h17.14.321,classification_task,2021.2.3,Win32,59.92329818,613a80b393cb8128b75cda11,626b377229c10585ec392f8a,626b3c6513a9fc669217ae5a,,,,,,,,,,,,,,,,,,,,,,,a,1,0.8,"[""0.163"",""0.441"",""0.774"",""0.910""]","[1,1,0,1]",0,43,43,43,1,0,1,,,0,FALSE,,,,,,,,,,,,,,,,,,,,,,,,,,,,,,
,613a80b393cb8128b75cda11,001,2022-04-28_20h17.14.321,classification_task,2021.2.3,Win32,59.92329818,613a80b393cb8128b75cda11,626b377229c10585ec392f8a,626b3c6513a9fc669217ae5a,,,,,,,,,,,,,,,,,,,,,,,l,1,1.3353,"[""0.125"",""0.389"",""0.564"",""0.744""]","[1,1,1,0]",0,44,44,44,1,1,1,,,0,FALSE,,,,,,,,,,,,,,,,,,,,,,,,,,,,,,
,613a80b393cb8128b75cda11,001,2022-04-28_20h17.14.321,classification_task,2021.2.3,Win32,59.92329818,613a80b393cb8128b75cda11,626b377229c10585ec392f8a,626b3c6513a9fc669217ae5a,,,,,,,,,,,,,,,,,,,,,,,l,0,0.6815,"[""0.326"",""0.746"",""0.874"",""0.946""]","[1,0,1,1]",0,45,45,45,1,0,0,,,0,FALSE,,,,,,,,,,,,,,,,,,,,,,,,,,,,,,
,613a80b393cb8128b75cda11,001,2022-04-28_20h17.14.321,classification_task,2021.2.3,Win32,59.92329818,613a80b393cb8128b75cda11,626b377229c10585ec392f8a,626b3c6513a9fc669217ae5a,,,,,,,,,,,,,,,,,,,,,,,a,1,0.5868,"[""0.718"",""0.524"",""0.874"",""0.946""]","[0,1,1,1]",0,46,46,46,1,0,0,,,0,FALSE,,,,,,,,,,,,,,,,,,,,,,,,,,,,,,
,613a80b393cb8128b75cda11,001,2022-04-28_20h17.14.321,classification_task,2021.2.3,Win32,59.92329818,613a80b393cb8128b75cda11,626b377229c10585ec392f8a,626b3c6513a9fc669217ae5a,,,,,,,,,,,,,,,,,,,,,,,a,0,0.4995,"[""0.070"",""0.722"",""0.490"",""0.677""]","[1,0,1,1]",0,47,47,47,1,1,0,,,0,FALSE,,,,,,,,,,,,,,,,,,,,,,,,,,,,,,
,613a80b393cb8128b75cda11,001,2022-04-28_20h17.14.321,classification_task,2021.2.3,Win32,59.92329818,613a80b393cb8128b75cda11,626b377229c10585ec392f8a,626b3c6513a9fc669217ae5a,,,,,,,,,,,,,,,,,,,,,,,l,1,0.8504,"[""0.746"",""0.271"",""0.490"",""0.677""]","[0,1,1,1]",0,48,48,48,1,1,0,,,0,FALSE,,,,,,,,,,,,,,,,,,,,,,,,,,,,,,
,613a80b393cb8128b75cda11,001,2022-04-28_20h17.14.321,classification_task,2021.2.3,Win32,59.92329818,613a80b393cb8128b75cda11,626b377229c10585ec392f8a,626b3c6513a9fc669217ae5a,,,,,,,,,,,,,,,,,,,,,,,a,0,0.7706,"[""0.125"",""0.389"",""0.564"",""0.774""]","[1,1,1,0]",0,49,49,49,1,1,1,,,0,FALSE,,,,,,,,,,,,,,,,,,,,,,,,,,,,,,
,613a80b393cb8128b75cda11,001,2022-04-28_20h17.14.321,classification_task,2021.2.3,Win32,59.92329818,613a80b393cb8128b75cda11,626b377229c10585ec392f8a,626b3c6513a9fc669217ae5a,,,,,,,,,,,,,,,,,,,,,,,a,0,1.1824,"[""0.070"",""0.271"",""0.215"",""0.677""]","[1,1,0,1]",0,50,50,50,1,1,0,,,0,FALSE,,,,,,,,,,,,,,,,,,,,,,,,,,,,,,
,613a80b393cb8128b75cda11,001,2022-04-28_20h17.14.321,classification_task,2021.2.3,Win32,59.92329818,613a80b393cb8128b75cda11,626b377229c10585ec392f8a,626b3c6513a9fc669217ae5a,,,,,,,,,,,,,,,,,,,,,,,l,1,0.5922,"[""0.125"",""0.389"",""0.776"",""0.810""]","[1,1,0,1]",0,51,51,51,1,1,1,,,0,FALSE,,,,,,,,,,,,,,,,,,,,,,,,,,,,,,
,613a80b393cb8128b75cda11,001,2022-04-28_20h17.14.321,classification_task,2021.2.3,Win32,59.92329818,613a80b393cb8128b75cda11,626b377229c10585ec392f8a,626b3c6513a9fc669217ae5a,,,,,,,,,,,,,,,,,,,,,,,l,1,0.7876,"[""0.125"",""0.215"",""0.564"",""0.810""]","[1,0,1,1]",0,52,52,52,1,1,1,,,0,FALSE,,,,,,,,,,,,,,,,,,,,,,,,,,,,,,
,613a80b393cb8128b75cda11,001,2022-04-28_20h17.14.321,classification_task,2021.2.3,Win32,59.92329818,613a80b393cb8128b75cda11,626b377229c10585ec392f8a,626b3c6513a9fc669217ae5a,,,,,,,,,,,,,,,,,,,,,,,l,0,0.8827,"[""0.777"",""0.441"",""0.630"",""0.910""]","[0,1,1,1]",0,53,53,53,1,0,1,,,0,FALSE,,,,,,,,,,,,,,,,,,,,,,,,,,,,,,
,613a80b393cb8128b75cda11,001,2022-04-28_20h17.14.321,classification_task,2021.2.3,Win32,59.92329818,613a80b393cb8128b75cda11,626b377229c10585ec392f8a,626b3c6513a9fc669217ae5a,,,,,,,,,,,,,,,,,,,,,,,a,0,0.5831,"[""0.070"",""0.271"",""0.490"",""0.220""]","[1,1,1,0]",0,54,54,54,1,1,0,,,0,FALSE,,,,,,,,,,,,,,,,,,,,,,,,,,,,,,
,613a80b393cb8128b75cda11,001,2022-04-28_20h17.14.321,classification_task,2021.2.3,Win32,59.92329818,613a80b393cb8128b75cda11,626b377229c10585ec392f8a,626b3c6513a9fc669217ae5a,,,,,,,,,,,,,,,,,,,,,,,l,1,0.649,"[""0.722"",""0.389"",""0.564"",""0.810""]","[0,1,1,1]",0,55,55,55,1,1,1,,,0,FALSE,,,,,,,,,,,,,,,,,,,,,,,,,,,,,,
,613a80b393cb8128b75cda11,001,2022-04-28_20h17.14.321,classification_task,2021.2.3,Win32,59.92329818,613a80b393cb8128b75cda11,626b377229c10585ec392f8a,626b3c6513a9fc669217ae5a,,,,,,,,,,,,,,,,,,,,,,,a,1,0.9158,"[""0.163"",""0.441"",""0.630"",""0.777""]","[1,1,1,0]",0,56,56,56,1,0,1,,,0,FALSE,,,,,,,,,,,,,,,,,,,,,,,,,,,,,,
,613a80b393cb8128b75cda11,001,2022-04-28_20h17.14.321,classification_task,2021.2.3,Win32,59.92329818,613a80b393cb8128b75cda11,626b377229c10585ec392f8a,626b3c6513a9fc669217ae5a,,,,,,,,,,,,,,,,,,,,,,,l,0,0.5662,"[""0.326"",""0.730"",""0.874"",""0.946""]","[1,0,1,1]",0,57,57,57,1,0,0,,,0,FALSE,,,,,,,,,,,,,,,,,,,,,,,,,,,,,,
,613a80b393cb8128b75cda11,001,2022-04-28_20h17.14.321,classification_task,2021.2.3,Win32,59.92329818,613a80b393cb8128b75cda11,626b377229c10585ec392f8a,626b3c6513a9fc669217ae5a,,,,,,,,,,,,,,,,,,,,,,,l,0,0.6486,"[""0.163"",""0.774"",""0.630"",""0.910""]","[1,0,1,1]",0,58,58,58,1,0,1,,,0,FALSE,,,,,,,,,,,,,,,,,,,,,,,,,,,,,,
,613a80b393cb8128b75cda11,001,2022-04-28_20h17.14.321,classification_task,2021.2.3,Win32,59.92329818,613a80b393cb8128b75cda11,626b377229c10585ec392f8a,626b3c6513a9fc669217ae5a,,,,,,,,,,,,,,,,,,,,,,,a,1,0.7489,"[""0.163"",""0.441"",""0.200"",""0.910""]","[1,1,0,1]",0,59,59,59,1,0,1,,,0,FALSE,,,,,,,,,,,,,,,,,,,,,,,,,,,,,,
,613a80b393cb8128b75cda11,001,2022-04-28_20h17.14.321,classification_task,2021.2.3,Win32,59.92329818,613a80b393cb8128b75cda11,626b377229c10585ec392f8a,626b3c6513a9fc669217ae5a,,,,,,,,,,,,,,,,,,,,,,,l,1,0.9199,"[""0.070"",""0.777"",""0.490"",""0.677""]","[1,0,1,1]",0,60,60,60,1,1,0,,,0,FALSE,,,,,,,,,,,,,,,,,,,,,,,,,,,,,,
,613a80b393cb8128b75cda11,001,2022-04-28_20h17.14.321,classification_task,2021.2.3,Win32,59.92329818,613a80b393cb8128b75cda11,626b377229c10585ec392f8a,626b3c6513a9fc669217ae5a,,,,,,,,,,,,,,,,,,,,,,,l,0,0.616,"[""0.774"",""0.524"",""0.874"",""0.946""]","[0,1,1,1]",0,61,61,61,1,0,0,,,0,FALSE,,,,,,,,,,,,,,,,,,,,,,,,,,,,,,
,613a80b393cb8128b75cda11,001,2022-04-28_20h17.14.321,classification_task,2021.2.3,Win32,59.92329818,613a80b393cb8128b75cda11,626b377229c10585ec392f8a,626b3c6513a9fc669217ae5a,,,,,,,,,,,,,,,,,,,,,,,a,1,0.9813,"[""0.326"",""0.524"",""0.874"",""0.200""]","[1,1,1,0]",0,62,62,62,1,0,0,,,0,FALSE,,,,,,,,,,,,,,,,,,,,,,,,,,,,,,
,613a80b393cb8128b75cda11,001,2022-04-28_20h17.14.321,classification_task,2021.2.3,Win32,59.92329818,613a80b393cb8128b75cda11,626b377229c10585ec392f8a,626b3c6513a9fc669217ae5a,,,,,,,,,,,,,,,,,,,,,,,a,1,0.6321,"[""0.326"",""0.524"",""0.224"",""0.946""]","[1,1,0,1]",0,63,63,63,1,0,0,,,0,FALSE,,,,,,,,,,,,,,,,,,,,,,,,,,,,,,
,613a80b393cb8128b75cda11,001,2022-04-28_20h17.14.321,classification_task,2021.2.3,Win32,59.92329818,613a80b393cb8128b75cda11,626b377229c10585ec392f8a,626b3c6513a9fc669217ae5a,,,,,,,,,,,,,,,,,,,,,,,,,,,,,,,,,,,,,,,0, ,,0,2.168044646,143.7579,0,2,2,2,1,2,3,,,,,,,,,,,,,,,,,
,613a80b393cb8128b75cda11,001,2022-04-28_20h17.14.321,classification_task,2021.2.3,Win32,59.92329818,613a80b393cb8128b75cda11,626b377229c10585ec392f8a,626b3c6513a9fc669217ae5a,,,,,,,,,,,,,,,,,,,,,,,,,,,,,,,,,,,,,,,1,  ,,0,10,145.687,0,2,2,2,1,2,3,,,,,,,,,,,,,,,,,
,613a80b393cb8128b75cda11,001,2022-04-28_20h17.14.321,classification_task,2021.2.3,Win32,59.92329818,613a80b393cb8128b75cda11,626b377229c10585ec392f8a,626b3c6513a9fc669217ae5a,,,,,,,,,,,,,,,,,,,,,,,,,,,,,,,,,,,,,,,2,  ,,0,10,147.6563,0,2,2,2,1,2,3,,,,,,,,,,,,,,,,,
,613a80b393cb8128b75cda11,001,2022-04-28_20h17.14.321,classification_task,2021.2.3,Win32,59.92329818,613a80b393cb8128b75cda11,626b377229c10585ec392f8a,626b3c6513a9fc669217ae5a,,,,,,,,,,,,,,,,,,,,,,,,,,,,,,,,,,,,,,,,,,,,,0,2,2,2,1,,3,,,,,,,,,,,,,,,,,
,613a80b393cb8128b75cda11,001,2022-04-28_20h17.14.321,classification_task,2021.2.3,Win32,59.92329818,613a80b393cb8128b75cda11,626b377229c10585ec392f8a,626b3c6513a9fc669217ae5a,,,,,,,,,,,,,,,,,,,,,,,,,,,,,,,,,,,,,,,,,,,,,,,,,,,,,I believe the aid is a competent performer,,0.7,0,5,745.8324,0,0,0,0,1,0,,,,
,613a80b393cb8128b75cda11,001,2022-04-28_20h17.14.321,classification_task,2021.2.3,Win32,59.92329818,613a80b393cb8128b75cda11,626b377229c10585ec392f8a,626b3c6513a9fc669217ae5a,,,,,,,,,,,,,,,,,,,,,,,,,,,,,,,,,,,,,,,,,,,,,,,,,,,,,I trust the aid,,0.7,0,5,751.5093,0,0,0,0,1,0,,,,
,613a80b393cb8128b75cda11,001,2022-04-28_20h17.14.321,classification_task,2021.2.3,Win32,59.92329818,613a80b393cb8128b75cda11,626b377229c10585ec392f8a,626b3c6513a9fc669217ae5a,,,,,,,,,,,,,,,,,,,,,,,,,,,,,,,,,,,,,,,,,,,,,,,,,,,,,I have confidence in the advice given by the aid,,0.7,0,5,751.1237,0,0,0,0,1,0,,,,
,613a80b393cb8128b75cda11,001,2022-04-28_20h17.14.321,classification_task,2021.2.3,Win32,59.92329818,613a80b393cb8128b75cda11,626b377229c10585ec392f8a,626b3c6513a9fc669217ae5a,,,,,,,,,,,,,,,,,,,,,,,,,,,,,,,,,,,,,,,,,,,,,,,,,,,,,I can depend on the aid,,0.7,0,5,755.4603,0,0,0,0,1,0,,,,
,613a80b393cb8128b75cda11,001,2022-04-28_20h17.14.321,classification_task,2021.2.3,Win32,59.92329818,613a80b393cb8128b75cda11,626b377229c10585ec392f8a,626b3c6513a9fc669217ae5a,,,,,,,,,,,,,,,,,,,,,,,,,,,,,,,,,,,,,,,,,,,,,,,,,,,,,I can rely on the aid to behave in consistent ways,,0.7,0,5,756.9679,0,0,0,0,1,0,,,,
,613a80b393cb8128b75cda11,001,2022-04-28_20h17.14.321,classification_task,2021.2.3,Win32,59.92329818,613a80b393cb8128b75cda11,626b377229c10585ec392f8a,626b3c6513a9fc669217ae5a,,,,,,,,,,,,,,,,,,,,,,,,,,,,,,,,,,,,,,,,,,,,,,,,,,,,,I can rely on the aid to do its best every time I take its advice,,0.7,0,5,758.4309,0,0,0,0,1,0,,,,
,613a80b393cb8128b75cda11,001,2022-04-28_20h17.14.321,classification_task,2021.2.3,Win32,59.92329818,613a80b393cb8128b75cda11,626b377229c10585ec392f8a,626b3c6513a9fc669217ae5a,,,,,,,,,,,,,,,,,,,,,,,,,,,,,,,,,,,,,,,,,,,,,,,,,,,,,"On trials you completed with assistance from the aid, how frequently did you think the aid was correct?",,0.7,0,100%,,0,0,0,0,1,0,,,,
,613a80b393cb8128b75cda11,001,2022-04-28_20h17.14.321,classification_task,2021.2.3,Win32,59.92329818,613a80b393cb8128b75cda11,626b377229c10585ec392f8a,626b3c6513a9fc669217ae5a,,,,,,,,,,,,,,,,,,,,,,,,,,,,,,,,,,,,,,,,,,,,,,,,,,,,,"On trials you completed without the aid, how frequently did you think you were correct?",,0.7,0,20%,,0,0,0,0,1,0,,,,
,613a80b393cb8128b75cda11,001,2022-04-28_20h17.14.321,classification_task,2021.2.3,Win32,59.92329818,613a80b393cb8128b75cda11,626b377229c10585ec392f8a,626b3c6513a9fc669217ae5a,,,,,,,,,,,,,,,,,,,,,,,,,,,,,,,,,,,,,,,,,,,,,,,,,,,,,,,,,,,0,0,0,0,1,,,,,
,613a80b393cb8128b75cda11,001,2022-04-28_20h17.14.321,classification_task,2021.2.3,Win32,59.92329818,613a80b393cb8128b75cda11,626b377229c10585ec392f8a,626b3c6513a9fc669217ae5a,,,,,,,,,,,,,,,,,,,,,,,,,,,,,,,,,,,,,,,,,,,,,,,,,,,,,,,,,,,,,,,,,space,6.4991,786.2428,
,613a80b393cb8128b75cda11,001,2022-04-28_20h17.14.321,classification_task,2021.2.3,Win32,59.92329818,613a80b393cb8128b75cda11,626b377229c10585ec392f8a,626b3c6513a9fc669217ae5a,,,,,,,,,,,,,,,,,,,,,,,,,,,,,,,,,,,,,,,,,,,,,,,,,,,,,,,,,,,,,,,,,,,,"Mozilla/5.0 (Windows NT 10.0; Win64; x64) AppleWebKit/537.36 (KHTML, like Gecko) Chrome/100.0.4896.127 Safari/537.36"
