usingWebGL,participant,session,date,expName,psychopyVersion,OS,frameRate,PROLIFIC_PID,STUDY_ID,SESSION_ID,signatures_friend,signatures_foe,band_ranges_top,band_ranges_bottom,formitemText,formtype,formundefined,formitemWidth,formindex,formresponse,formrt,key_resp_2.keys,key_resp_2.rt,tute_resp.keys,tute_resp.rt,tutorial.thisRepN,tutorial.thisTrialN,tutorial.thisN,tutorial.thisIndex,tutorial.ran,key_resp_4.keys,key_resp_4.rt,key_resp.keys,key_resp.corr,key_resp.rt,lines_presented,is_signal_presented,trials.thisRepN,trials.thisTrialN,trials.thisN,trials.thisIndex,trials.ran,vessel,active_band,lines,is_signal,supported_pos,catch_trial,debrief_formindex,debrief_formitemText,debrief_formtype,debrief_formitemWidth,debrief_formresponse,debrief_formrt,phases.thisRepN,phases.thisTrialN,phases.thisN,phases.thisIndex,phases.ran,phases.order,phase,key_resp_3.keys,trustitemText,trusttype,trustitemWidth,trustindex,trustresponse,trustrt,support_status.thisRepN,support_status.thisTrialN,support_status.thisN,support_status.thisIndex,support_status.ran,support_status.order,key_resp_5.keys,key_resp_5.rt,globalClockTime,userAgent
TRUE,613aa96038862e4f29605ade,001,2022-04-28_20h07.05.120,classification_task,2021.2.3,Win32,60.53635208,613aa96038862e4f29605ade,626b377229c10585ec392f89,626b3a1fe3fbd43542785a2a,,,,,,,,,,,,,,,,,,,,,,,,,,,,,,,,,,,,,,,,,,,,,,,,,,,,,,,,,,,,,,,,,,,,
,613aa96038862e4f29605ade,001,2022-04-28_20h07.05.120,classification_task,2021.2.3,Win32,60.53635208,613aa96038862e4f29605ade,626b377229c10585ec392f89,626b3a1fe3fbd43542785a2a,"[[""0.320"",""0.389"",""0.571"",""0.889""],[""0.199"",""0.484"",""0.850"",""0.956""]]","[[""0.030"",""0.275"",""0.636"",""0.806""],[""0.071"",""0.234"",""0.521"",""0.742""]]","[1,10]","[100,1000]",Video game experience,,,0.7,0,,,,,,,,,,,,,,,,,,,,,,,,,,,,,,,,,,,,,,,,,,,,,,,,,,,,,,,,,,,
,613aa96038862e4f29605ade,001,2022-04-28_20h07.05.120,classification_task,2021.2.3,Win32,60.53635208,613aa96038862e4f29605ade,626b377229c10585ec392f89,626b3a1fe3fbd43542785a2a,,,,,Approximately how many hours did you spend playing video games in the last week?,,,0.7,0,1,,,,,,,,,,,,,,,,,,,,,,,,,,,,,,,,,,,,,,,,,,,,,,,,,,,,,,,,,,
,613aa96038862e4f29605ade,001,2022-04-28_20h07.05.120,classification_task,2021.2.3,Win32,60.53635208,613aa96038862e4f29605ade,626b377229c10585ec392f89,626b3a1fe3fbd43542785a2a,,,,,"Which game did you play the most this year? (Enter ""None"" if you didn't play any)",,,0.7,0,none,,,,,,,,,,,,,,,,,,,,,,,,,,,,,,,,,,,,,,,,,,,,,,,,,,,,,,,,,,
,613aa96038862e4f29605ade,001,2022-04-28_20h07.05.120,classification_task,2021.2.3,Win32,60.53635208,613aa96038862e4f29605ade,626b377229c10585ec392f89,626b3a1fe3fbd43542785a2a,,,,,Visual perception,,,0.7,0,,,,,,,,,,,,,,,,,,,,,,,,,,,,,,,,,,,,,,,,,,,,,,,,,,,,,,,,,,,
,613aa96038862e4f29605ade,001,2022-04-28_20h07.05.120,classification_task,2021.2.3,Win32,60.53635208,613aa96038862e4f29605ade,626b377229c10585ec392f89,626b3a1fe3fbd43542785a2a,,,,,Do you have any form of color blindness?,,,0.7,0,No,17.9042,,,,,,,,,,,,,,,,,,,,,,,,,,,,,,,,,,,,,,,,,,,,,,,,,,,,,,,,,
,613aa96038862e4f29605ade,001,2022-04-28_20h07.05.120,classification_task,2021.2.3,Win32,60.53635208,613aa96038862e4f29605ade,626b377229c10585ec392f89,626b3a1fe3fbd43542785a2a,,,,,Do you use software to change the colour temperature of your screen (e.g. f.lux)?,,,0.7,0,No,21.9257,,,,,,,,,,,,,,,,,,,,,,,,,,,,,,,,,,,,,,,,,,,,,,,,,,,,,,,,,
,613aa96038862e4f29605ade,001,2022-04-28_20h07.05.120,classification_task,2021.2.3,Win32,60.53635208,613aa96038862e4f29605ade,626b377229c10585ec392f89,626b3a1fe3fbd43542785a2a,,,,,,,,,,,,space,37.836,space,10.6578,0,0,0,0,1,,,,,,,,,,,,,,,,,,,,,,,,,,,,,,,,,,,,,,,,,,,,,,,,
,613aa96038862e4f29605ade,001,2022-04-28_20h07.05.120,classification_task,2021.2.3,Win32,60.53635208,613aa96038862e4f29605ade,626b377229c10585ec392f89,626b3a1fe3fbd43542785a2a,,,,,,,,,,,,,,space,15.2439,1,0,1,0,1,,,,,,,,,,,,,,,,,,,,,,,,,,,,,,,,,,,,,,,,,,,,,,,,
,613aa96038862e4f29605ade,001,2022-04-28_20h07.05.120,classification_task,2021.2.3,Win32,60.53635208,613aa96038862e4f29605ade,626b377229c10585ec392f89,626b3a1fe3fbd43542785a2a,,,,,,,,,,,,,,space,42.1622,2,0,2,0,1,,,,,,,,,,,,,,,,,,,,,,,,,,,,,,,,,,,,,,,,,,,,,,,,
,613aa96038862e4f29605ade,001,2022-04-28_20h07.05.120,classification_task,2021.2.3,Win32,60.53635208,613aa96038862e4f29605ade,626b377229c10585ec392f89,626b3a1fe3fbd43542785a2a,,,,,,,,,,,,,,space,9.6207,3,0,3,0,1,,,,,,,,,,,,,,,,,,,,,,,,,,,,,,,,,,,,,,,,,,,,,,,,
,613aa96038862e4f29605ade,001,2022-04-28_20h07.05.120,classification_task,2021.2.3,Win32,60.53635208,613aa96038862e4f29605ade,626b377229c10585ec392f89,626b3a1fe3fbd43542785a2a,,,,,,,,,,,,,,space,20.8487,4,0,4,0,1,,,,,,,,,,,,,,,,,,,,,,,,,,,,,,,,,,,,,,,,,,,,,,,,
,613aa96038862e4f29605ade,001,2022-04-28_20h07.05.120,classification_task,2021.2.3,Win32,60.53635208,613aa96038862e4f29605ade,626b377229c10585ec392f89,626b3a1fe3fbd43542785a2a,,,,,,,,,,,,,,,,,,,,,space,23.2732,l,1,9.5353,"[""0.115"",""0.234"",""0.521"",""0.742""]","[0,1,1,1]",0,0,0,0,1,1,1,,,1,FALSE,,,,,,,,,,,,,,,,,,,,,,,,,,,,,,
,613aa96038862e4f29605ade,001,2022-04-28_20h07.05.120,classification_task,2021.2.3,Win32,60.53635208,613aa96038862e4f29605ade,626b377229c10585ec392f89,626b3a1fe3fbd43542785a2a,,,,,,,,,,,,,,,,,,,,,,,a,1,7.5365,"[""0.320"",""0.389"",""0.427"",""0.889""]","[1,1,0,1]",0,1,1,1,1,0,0,,,1,FALSE,,,,,,,,,,,,,,,,,,,,,,,,,,,,,,
,613aa96038862e4f29605ade,001,2022-04-28_20h07.05.120,classification_task,2021.2.3,Win32,60.53635208,613aa96038862e4f29605ade,626b377229c10585ec392f89,626b3a1fe3fbd43542785a2a,,,,,,,,,,,,,,,,,,,,,,,l,1,4.0043,"[""0.030"",""0.275"",""0.675"",""0.806""]","[1,1,0,1]",0,2,2,2,1,1,0,,,1,FALSE,,,,,,,,,,,,,,,,,,,,,,,,,,,,,,
,613aa96038862e4f29605ade,001,2022-04-28_20h07.05.120,classification_task,2021.2.3,Win32,60.53635208,613aa96038862e4f29605ade,626b377229c10585ec392f89,626b3a1fe3fbd43542785a2a,,,,,,,,,,,,,,,,,,,,,,,l,1,3.0062,"[""0.681"",""0.275"",""0.636"",""0.806""]","[0,1,1,1]",0,3,3,3,1,1,0,,,1,FALSE,,,,,,,,,,,,,,,,,,,,,,,,,,,,,,
,613aa96038862e4f29605ade,001,2022-04-28_20h07.05.120,classification_task,2021.2.3,Win32,60.53635208,613aa96038862e4f29605ade,626b377229c10585ec392f89,626b3a1fe3fbd43542785a2a,,,,,,,,,,,,,,,,,,,,,,,a,1,2.4225,"[""0.689"",""0.389"",""0.571"",""0.889""]","[0,1,1,1]",0,4,4,4,1,0,0,,,1,FALSE,,,,,,,,,,,,,,,,,,,,,,,,,,,,,,
,613aa96038862e4f29605ade,001,2022-04-28_20h07.05.120,classification_task,2021.2.3,Win32,60.53635208,613aa96038862e4f29605ade,626b377229c10585ec392f89,626b3a1fe3fbd43542785a2a,,,,,,,,,,,,,,,,,,,,,,,l,1,4.0258,"[""0.071"",""0.442"",""0.521"",""0.742""]","[1,0,1,1]",0,5,5,5,1,1,1,,,1,FALSE,,,,,,,,,,,,,,,,,,,,,,,,,,,,,,
,613aa96038862e4f29605ade,001,2022-04-28_20h07.05.120,classification_task,2021.2.3,Win32,60.53635208,613aa96038862e4f29605ade,626b377229c10585ec392f89,626b3a1fe3fbd43542785a2a,,,,,,,,,,,,,,,,,,,,,,,a,1,3.298,"[""0.199"",""0.142"",""0.850"",""0.956""]","[1,0,1,1]",0,6,6,6,1,0,1,,,1,FALSE,,,,,,,,,,,,,,,,,,,,,,,,,,,,,,
,613aa96038862e4f29605ade,001,2022-04-28_20h07.05.120,classification_task,2021.2.3,Win32,60.53635208,613aa96038862e4f29605ade,626b377229c10585ec392f89,626b3a1fe3fbd43542785a2a,,,,,,,,,,,,,,,,,,,,,,,a,1,2.7645,"[""0.199"",""0.484"",""0.701"",""0.956""]","[1,1,0,1]",0,7,7,7,1,0,1,,,1,FALSE,,,,,,,,,,,,,,,,,,,,,,,,,,,,,,
,613aa96038862e4f29605ade,001,2022-04-28_20h07.05.120,classification_task,2021.2.3,Win32,60.53635208,613aa96038862e4f29605ade,626b377229c10585ec392f89,626b3a1fe3fbd43542785a2a,,,,,,,,,,,,,,,,,,,,,,,a,1,9.4713,"[""0.320"",""0.389"",""0.571"",""0.681""]","[1,1,1,0]",0,8,8,8,1,0,0,,,1,FALSE,,,,,,,,,,,,,,,,,,,,,,,,,,,,,,
,613aa96038862e4f29605ade,001,2022-04-28_20h07.05.120,classification_task,2021.2.3,Win32,60.53635208,613aa96038862e4f29605ade,626b377229c10585ec392f89,626b3a1fe3fbd43542785a2a,,,,,,,,,,,,,,,,,,,,,,,a,1,2.4986,"[""0.320"",""0.148"",""0.571"",""0.889""]","[1,0,1,1]",0,9,9,9,1,0,0,,,1,FALSE,,,,,,,,,,,,,,,,,,,,,,,,,,,,,,
,613aa96038862e4f29605ade,001,2022-04-28_20h07.05.120,classification_task,2021.2.3,Win32,60.53635208,613aa96038862e4f29605ade,626b377229c10585ec392f89,626b3a1fe3fbd43542785a2a,,,,,,,,,,,,,,,,,,,,,,,a,0,5.5296,"[""0.030"",""0.275"",""0.636"",""0.427""]","[1,1,1,0]",0,10,10,10,1,1,0,,,1,FALSE,,,,,,,,,,,,,,,,,,,,,,,,,,,,,,
,613aa96038862e4f29605ade,001,2022-04-28_20h07.05.120,classification_task,2021.2.3,Win32,60.53635208,613aa96038862e4f29605ade,626b377229c10585ec392f89,626b3a1fe3fbd43542785a2a,,,,,,,,,,,,,,,,,,,,,,,a,1,6.5224,"[""0.199"",""0.484"",""0.850"",""0.675""]","[1,1,1,0]",0,11,11,11,1,0,1,,,1,FALSE,,,,,,,,,,,,,,,,,,,,,,,,,,,,,,
,613aa96038862e4f29605ade,001,2022-04-28_20h07.05.120,classification_task,2021.2.3,Win32,60.53635208,613aa96038862e4f29605ade,626b377229c10585ec392f89,626b3a1fe3fbd43542785a2a,,,,,,,,,,,,,,,,,,,,,,,l,1,9.959,"[""0.071"",""0.234"",""0.521"",""0.160""]","[1,1,1,0]",0,12,12,12,1,1,1,,,1,FALSE,,,,,,,,,,,,,,,,,,,,,,,,,,,,,,
,613aa96038862e4f29605ade,001,2022-04-28_20h07.05.120,classification_task,2021.2.3,Win32,60.53635208,613aa96038862e4f29605ade,626b377229c10585ec392f89,626b3a1fe3fbd43542785a2a,,,,,,,,,,,,,,,,,,,,,,,a,1,4.5461,"[""0.685"",""0.484"",""0.850"",""0.956""]","[0,1,1,1]",0,13,13,13,1,0,1,,,1,FALSE,,,,,,,,,,,,,,,,,,,,,,,,,,,,,,
,613aa96038862e4f29605ade,001,2022-04-28_20h07.05.120,classification_task,2021.2.3,Win32,60.53635208,613aa96038862e4f29605ade,626b377229c10585ec392f89,626b3a1fe3fbd43542785a2a,,,,,,,,,,,,,,,,,,,,,,,l,1,3.831,"[""0.071"",""0.234"",""0.148"",""0.742""]","[1,1,0,1]",0,14,14,14,1,1,1,,,1,FALSE,,,,,,,,,,,,,,,,,,,,,,,,,,,,,,
,613aa96038862e4f29605ade,001,2022-04-28_20h07.05.120,classification_task,2021.2.3,Win32,60.53635208,613aa96038862e4f29605ade,626b377229c10585ec392f89,626b3a1fe3fbd43542785a2a,,,,,,,,,,,,,,,,,,,,,,,l,1,5.1899,"[""0.030"",""0.148"",""0.636"",""0.806""]","[1,0,1,1]",0,15,15,15,1,1,0,,,1,FALSE,,,,,,,,,,,,,,,,,,,,,,,,,,,,,,
,613aa96038862e4f29605ade,001,2022-04-28_20h07.05.120,classification_task,2021.2.3,Win32,60.53635208,613aa96038862e4f29605ade,626b377229c10585ec392f89,626b3a1fe3fbd43542785a2a,,,,,,,,,,,,,,,,,,,,,,,l,1,4.1806,"[""0.030"",""0.275"",""0.636"",""0.147""]","[1,1,1,0]",0,16,16,16,1,1,0,,,1,FALSE,,,,,,,,,,,,,,,,,,,,,,,,,,,,,,
,613aa96038862e4f29605ade,001,2022-04-28_20h07.05.120,classification_task,2021.2.3,Win32,60.53635208,613aa96038862e4f29605ade,626b377229c10585ec392f89,626b3a1fe3fbd43542785a2a,,,,,,,,,,,,,,,,,,,,,,,l,1,3.758,"[""0.071"",""0.445"",""0.521"",""0.742""]","[1,0,1,1]",0,17,17,17,1,1,1,,,1,FALSE,,,,,,,,,,,,,,,,,,,,,,,,,,,,,,
,613aa96038862e4f29605ade,001,2022-04-28_20h07.05.120,classification_task,2021.2.3,Win32,60.53635208,613aa96038862e4f29605ade,626b377229c10585ec392f89,626b3a1fe3fbd43542785a2a,,,,,,,,,,,,,,,,,,,,,,,l,1,7.5561,"[""0.030"",""0.701"",""0.636"",""0.806""]","[1,0,1,1]",0,18,18,18,1,1,0,,,1,FALSE,,,,,,,,,,,,,,,,,,,,,,,,,,,,,,
,613aa96038862e4f29605ade,001,2022-04-28_20h07.05.120,classification_task,2021.2.3,Win32,60.53635208,613aa96038862e4f29605ade,626b377229c10585ec392f89,626b3a1fe3fbd43542785a2a,,,,,,,,,,,,,,,,,,,,,,,a,1,6.3112,"[""0.320"",""0.389"",""0.571"",""0.701""]","[1,1,1,0]",0,19,19,19,1,0,0,,,1,FALSE,,,,,,,,,,,,,,,,,,,,,,,,,,,,,,
,613aa96038862e4f29605ade,001,2022-04-28_20h07.05.120,classification_task,2021.2.3,Win32,60.53635208,613aa96038862e4f29605ade,626b377229c10585ec392f89,626b3a1fe3fbd43542785a2a,,,,,,,,,,,,,,,,,,,,,,,l,1,6.6419,"[""0.071"",""0.234"",""0.521"",""0.681""]","[1,1,1,0]",0,20,20,20,1,1,1,,,1,FALSE,,,,,,,,,,,,,,,,,,,,,,,,,,,,,,
,613aa96038862e4f29605ade,001,2022-04-28_20h07.05.120,classification_task,2021.2.3,Win32,60.53635208,613aa96038862e4f29605ade,626b377229c10585ec392f89,626b3a1fe3fbd43542785a2a,,,,,,,,,,,,,,,,,,,,,,,a,1,5.1112,"[""0.199"",""0.427"",""0.850"",""0.956""]","[1,0,1,1]",0,21,21,21,1,0,1,,,1,FALSE,,,,,,,,,,,,,,,,,,,,,,,,,,,,,,
,613aa96038862e4f29605ade,001,2022-04-28_20h07.05.120,classification_task,2021.2.3,Win32,60.53635208,613aa96038862e4f29605ade,626b377229c10585ec392f89,626b3a1fe3fbd43542785a2a,,,,,,,,,,,,,,,,,,,,,,,l,0,2.7158,"[""0.199"",""0.484"",""0.427"",""0.956""]","[1,1,0,1]",0,22,22,22,1,0,1,,,1,FALSE,,,,,,,,,,,,,,,,,,,,,,,,,,,,,,
,613aa96038862e4f29605ade,001,2022-04-28_20h07.05.120,classification_task,2021.2.3,Win32,60.53635208,613aa96038862e4f29605ade,626b377229c10585ec392f89,626b3a1fe3fbd43542785a2a,,,,,,,,,,,,,,,,,,,,,,,l,1,6.5619,"[""0.157"",""0.275"",""0.636"",""0.806""]","[0,1,1,1]",0,23,23,23,1,1,0,,,1,FALSE,,,,,,,,,,,,,,,,,,,,,,,,,,,,,,
,613aa96038862e4f29605ade,001,2022-04-28_20h07.05.120,classification_task,2021.2.3,Win32,60.53635208,613aa96038862e4f29605ade,626b377229c10585ec392f89,626b3a1fe3fbd43542785a2a,,,,,,,,,,,,,,,,,,,,,,,a,1,4.0923,"[""0.675"",""0.484"",""0.850"",""0.956""]","[0,1,1,1]",0,24,24,24,1,0,1,,,1,FALSE,,,,,,,,,,,,,,,,,,,,,,,,,,,,,,
,613aa96038862e4f29605ade,001,2022-04-28_20h07.05.120,classification_task,2021.2.3,Win32,60.53635208,613aa96038862e4f29605ade,626b377229c10585ec392f89,626b3a1fe3fbd43542785a2a,,,,,,,,,,,,,,,,,,,,,,,a,1,8.3275,"[""0.199"",""0.484"",""0.850"",""0.675""]","[1,1,1,0]",0,25,25,25,1,0,1,,,1,FALSE,,,,,,,,,,,,,,,,,,,,,,,,,,,,,,
,613aa96038862e4f29605ade,001,2022-04-28_20h07.05.120,classification_task,2021.2.3,Win32,60.53635208,613aa96038862e4f29605ade,626b377229c10585ec392f89,626b3a1fe3fbd43542785a2a,,,,,,,,,,,,,,,,,,,,,,,a,1,9.4196,"[""0.320"",""0.389"",""0.681"",""0.889""]","[1,1,0,1]",0,26,26,26,1,0,0,,,1,FALSE,,,,,,,,,,,,,,,,,,,,,,,,,,,,,,
,613aa96038862e4f29605ade,001,2022-04-28_20h07.05.120,classification_task,2021.2.3,Win32,60.53635208,613aa96038862e4f29605ade,626b377229c10585ec392f89,626b3a1fe3fbd43542785a2a,,,,,,,,,,,,,,,,,,,,,,,l,1,3.0437,"[""0.071"",""0.234"",""0.445"",""0.742""]","[1,1,0,1]",0,27,27,27,1,1,1,,,1,FALSE,,,,,,,,,,,,,,,,,,,,,,,,,,,,,,
,613aa96038862e4f29605ade,001,2022-04-28_20h07.05.120,classification_task,2021.2.3,Win32,60.53635208,613aa96038862e4f29605ade,626b377229c10585ec392f89,626b3a1fe3fbd43542785a2a,,,,,,,,,,,,,,,,,,,,,,,l,1,3.7692,"[""0.681"",""0.234"",""0.521"",""0.742""]","[0,1,1,1]",0,28,28,28,1,1,1,,,1,FALSE,,,,,,,,,,,,,,,,,,,,,,,,,,,,,,
,613aa96038862e4f29605ade,001,2022-04-28_20h07.05.120,classification_task,2021.2.3,Win32,60.53635208,613aa96038862e4f29605ade,626b377229c10585ec392f89,626b3a1fe3fbd43542785a2a,,,,,,,,,,,,,,,,,,,,,,,l,1,7.5742,"[""0.030"",""0.275"",""0.139"",""0.806""]","[1,1,0,1]",0,29,29,29,1,1,0,,,1,FALSE,,,,,,,,,,,,,,,,,,,,,,,,,,,,,,
,613aa96038862e4f29605ade,001,2022-04-28_20h07.05.120,classification_task,2021.2.3,Win32,60.53635208,613aa96038862e4f29605ade,626b377229c10585ec392f89,626b3a1fe3fbd43542785a2a,,,,,,,,,,,,,,,,,,,,,,,a,1,2.7129,"[""0.148"",""0.389"",""0.571"",""0.889""]","[0,1,1,1]",0,30,30,30,1,0,0,,,1,FALSE,,,,,,,,,,,,,,,,,,,,,,,,,,,,,,
,613aa96038862e4f29605ade,001,2022-04-28_20h07.05.120,classification_task,2021.2.3,Win32,60.53635208,613aa96038862e4f29605ade,626b377229c10585ec392f89,626b3a1fe3fbd43542785a2a,,,,,,,,,,,,,,,,,,,,,,,a,1,1.732,"[""0.320"",""0.157"",""0.571"",""0.889""]","[1,0,1,1]",0,31,31,31,1,0,0,,,1,FALSE,,,,,,,,,,,,,,,,,,,,,,,,,,,,,,
,613aa96038862e4f29605ade,001,2022-04-28_20h07.05.120,classification_task,2021.2.3,Win32,60.53635208,613aa96038862e4f29605ade,626b377229c10585ec392f89,626b3a1fe3fbd43542785a2a,,,,,,,,,,,,,,,,,,,,,,,l,1,6.2242,"[""0.071"",""0.142"",""0.521"",""0.742""]","[1,0,1,1]",0,32,32,32,1,1,1,,,1,FALSE,,,,,,,,,,,,,,,,,,,,,,,,,,,,,,
,613aa96038862e4f29605ade,001,2022-04-28_20h07.05.120,classification_task,2021.2.3,Win32,60.53635208,613aa96038862e4f29605ade,626b377229c10585ec392f89,626b3a1fe3fbd43542785a2a,,,,,,,,,,,,,,,,,,,,,,,a,0,2.9157,"[""0.675"",""0.275"",""0.636"",""0.806""]","[0,1,1,1]",0,33,33,33,1,1,0,,,1,FALSE,,,,,,,,,,,,,,,,,,,,,,,,,,,,,,
,613aa96038862e4f29605ade,001,2022-04-28_20h07.05.120,classification_task,2021.2.3,Win32,60.53635208,613aa96038862e4f29605ade,626b377229c10585ec392f89,626b3a1fe3fbd43542785a2a,,,,,,,,,,,,,,,,,,,,,,,a,1,2.5995,"[""0.320"",""0.389"",""0.571"",""0.427""]","[1,1,1,0]",0,34,34,34,1,0,0,,,1,FALSE,,,,,,,,,,,,,,,,,,,,,,,,,,,,,,
,613aa96038862e4f29605ade,001,2022-04-28_20h07.05.120,classification_task,2021.2.3,Win32,60.53635208,613aa96038862e4f29605ade,626b377229c10585ec392f89,626b3a1fe3fbd43542785a2a,,,,,,,,,,,,,,,,,,,,,,,l,0,1.1665,"[""0.115"",""0.484"",""0.850"",""0.956""]","[0,1,1,1]",0,35,35,35,1,0,1,,,1,FALSE,,,,,,,,,,,,,,,,,,,,,,,,,,,,,,
,613aa96038862e4f29605ade,001,2022-04-28_20h07.05.120,classification_task,2021.2.3,Win32,60.53635208,613aa96038862e4f29605ade,626b377229c10585ec392f89,626b3a1fe3fbd43542785a2a,,,,,,,,,,,,,,,,,,,,,,,l,0,3.5471,"[""0.320"",""0.148"",""0.571"",""0.889""]","[1,0,1,1]",0,36,36,36,1,0,0,,,1,FALSE,,,,,,,,,,,,,,,,,,,,,,,,,,,,,,
,613aa96038862e4f29605ade,001,2022-04-28_20h07.05.120,classification_task,2021.2.3,Win32,60.53635208,613aa96038862e4f29605ade,626b377229c10585ec392f89,626b3a1fe3fbd43542785a2a,,,,,,,,,,,,,,,,,,,,,,,a,1,2.2489,"[""0.320"",""0.389"",""0.115"",""0.889""]","[1,1,0,1]",0,37,37,37,1,0,0,,,1,FALSE,,,,,,,,,,,,,,,,,,,,,,,,,,,,,,
,613aa96038862e4f29605ade,001,2022-04-28_20h07.05.120,classification_task,2021.2.3,Win32,60.53635208,613aa96038862e4f29605ade,626b377229c10585ec392f89,626b3a1fe3fbd43542785a2a,,,,,,,,,,,,,,,,,,,,,,,l,0,3.3316,"[""0.199"",""0.484"",""0.689"",""0.956""]","[1,1,0,1]",0,38,38,38,1,0,1,,,1,FALSE,,,,,,,,,,,,,,,,,,,,,,,,,,,,,,
,613aa96038862e4f29605ade,001,2022-04-28_20h07.05.120,classification_task,2021.2.3,Win32,60.53635208,613aa96038862e4f29605ade,626b377229c10585ec392f89,626b3a1fe3fbd43542785a2a,,,,,,,,,,,,,,,,,,,,,,,l,1,2.3327,"[""0.071"",""0.234"",""0.521"",""0.148""]","[1,1,1,0]",0,39,39,39,1,1,1,,,1,FALSE,,,,,,,,,,,,,,,,,,,,,,,,,,,,,,
,613aa96038862e4f29605ade,001,2022-04-28_20h07.05.120,classification_task,2021.2.3,Win32,60.53635208,613aa96038862e4f29605ade,626b377229c10585ec392f89,626b3a1fe3fbd43542785a2a,,,,,,,,,,,,,,,,,,,,,,,a,0,1.6654,"[""0.030"",""0.147"",""0.636"",""0.806""]","[1,0,1,1]",0,40,40,40,1,1,0,,,1,FALSE,,,,,,,,,,,,,,,,,,,,,,,,,,,,,,
,613aa96038862e4f29605ade,001,2022-04-28_20h07.05.120,classification_task,2021.2.3,Win32,60.53635208,613aa96038862e4f29605ade,626b377229c10585ec392f89,626b3a1fe3fbd43542785a2a,,,,,,,,,,,,,,,,,,,,,,,a,1,1.633,"[""0.147"",""0.389"",""0.571"",""0.889""]","[0,1,1,1]",0,41,41,41,1,0,0,,,1,FALSE,,,,,,,,,,,,,,,,,,,,,,,,,,,,,,
,613aa96038862e4f29605ade,001,2022-04-28_20h07.05.120,classification_task,2021.2.3,Win32,60.53635208,613aa96038862e4f29605ade,626b377229c10585ec392f89,626b3a1fe3fbd43542785a2a,,,,,,,,,,,,,,,,,,,,,,,l,1,2.633,"[""0.030"",""0.275"",""0.636"",""0.681""]","[1,1,1,0]",0,42,42,42,1,1,0,,,1,FALSE,,,,,,,,,,,,,,,,,,,,,,,,,,,,,,
,613aa96038862e4f29605ade,001,2022-04-28_20h07.05.120,classification_task,2021.2.3,Win32,60.53635208,613aa96038862e4f29605ade,626b377229c10585ec392f89,626b3a1fe3fbd43542785a2a,,,,,,,,,,,,,,,,,,,,,,,a,0,1.2655,"[""0.071"",""0.234"",""0.445"",""0.742""]","[1,1,0,1]",0,43,43,43,1,1,1,,,1,FALSE,,,,,,,,,,,,,,,,,,,,,,,,,,,,,,
,613aa96038862e4f29605ade,001,2022-04-28_20h07.05.120,classification_task,2021.2.3,Win32,60.53635208,613aa96038862e4f29605ade,626b377229c10585ec392f89,626b3a1fe3fbd43542785a2a,,,,,,,,,,,,,,,,,,,,,,,a,0,2.8976,"[""0.030"",""0.275"",""0.442"",""0.806""]","[1,1,0,1]",0,44,44,44,1,1,0,,,1,FALSE,,,,,,,,,,,,,,,,,,,,,,,,,,,,,,
,613aa96038862e4f29605ade,001,2022-04-28_20h07.05.120,classification_task,2021.2.3,Win32,60.53635208,613aa96038862e4f29605ade,626b377229c10585ec392f89,626b3a1fe3fbd43542785a2a,,,,,,,,,,,,,,,,,,,,,,,a,0,1.3182,"[""0.685"",""0.234"",""0.521"",""0.742""]","[0,1,1,1]",0,45,45,45,1,1,1,,,1,FALSE,,,,,,,,,,,,,,,,,,,,,,,,,,,,,,
,613aa96038862e4f29605ade,001,2022-04-28_20h07.05.120,classification_task,2021.2.3,Win32,60.53635208,613aa96038862e4f29605ade,626b377229c10585ec392f89,626b3a1fe3fbd43542785a2a,,,,,,,,,,,,,,,,,,,,,,,l,0,1.7668,"[""0.199"",""0.484"",""0.850"",""0.701""]","[1,1,1,0]",0,46,46,46,1,0,1,,,1,FALSE,,,,,,,,,,,,,,,,,,,,,,,,,,,,,,
,613aa96038862e4f29605ade,001,2022-04-28_20h07.05.120,classification_task,2021.2.3,Win32,60.53635208,613aa96038862e4f29605ade,626b377229c10585ec392f89,626b3a1fe3fbd43542785a2a,,,,,,,,,,,,,,,,,,,,,,,l,0,4.0805,"[""0.199"",""0.675"",""0.850"",""0.956""]","[1,0,1,1]",0,47,47,47,1,0,1,,,1,FALSE,,,,,,,,,,,,,,,,,,,,,,,,,,,,,,
,613aa96038862e4f29605ade,001,2022-04-28_20h07.05.120,classification_task,2021.2.3,Win32,60.53635208,613aa96038862e4f29605ade,626b377229c10585ec392f89,626b3a1fe3fbd43542785a2a,,,,,,,,,,,,,,,,,,,,,,,l,0,4.2584,"[""0.199"",""0.484"",""0.427"",""0.956""]","[1,1,0,1]",0,48,48,48,1,0,1,,,1,FALSE,,,,,,,,,,,,,,,,,,,,,,,,,,,,,,
,613aa96038862e4f29605ade,001,2022-04-28_20h07.05.120,classification_task,2021.2.3,Win32,60.53635208,613aa96038862e4f29605ade,626b377229c10585ec392f89,626b3a1fe3fbd43542785a2a,,,,,,,,,,,,,,,,,,,,,,,l,1,1.316,"[""0.071"",""0.442"",""0.521"",""0.742""]","[1,0,1,1]",0,49,49,49,1,1,1,,,1,FALSE,,,,,,,,,,,,,,,,,,,,,,,,,,,,,,
,613aa96038862e4f29605ade,001,2022-04-28_20h07.05.120,classification_task,2021.2.3,Win32,60.53635208,613aa96038862e4f29605ade,626b377229c10585ec392f89,626b3a1fe3fbd43542785a2a,,,,,,,,,,,,,,,,,,,,,,,a,1,3.9308,"[""0.115"",""0.389"",""0.571"",""0.889""]","[0,1,1,1]",0,50,50,50,1,0,0,,,1,FALSE,,,,,,,,,,,,,,,,,,,,,,,,,,,,,,
,613aa96038862e4f29605ade,001,2022-04-28_20h07.05.120,classification_task,2021.2.3,Win32,60.53635208,613aa96038862e4f29605ade,626b377229c10585ec392f89,626b3a1fe3fbd43542785a2a,,,,,,,,,,,,,,,,,,,,,,,a,1,2.1144,"[""0.320"",""0.389"",""0.571"",""0.701""]","[1,1,1,0]",0,51,51,51,1,0,0,,,1,FALSE,,,,,,,,,,,,,,,,,,,,,,,,,,,,,,
,613aa96038862e4f29605ade,001,2022-04-28_20h07.05.120,classification_task,2021.2.3,Win32,60.53635208,613aa96038862e4f29605ade,626b377229c10585ec392f89,626b3a1fe3fbd43542785a2a,,,,,,,,,,,,,,,,,,,,,,,l,1,1.5001,"[""0.427"",""0.275"",""0.636"",""0.806""]","[0,1,1,1]",0,52,52,52,1,1,0,,,1,FALSE,,,,,,,,,,,,,,,,,,,,,,,,,,,,,,
,613aa96038862e4f29605ade,001,2022-04-28_20h07.05.120,classification_task,2021.2.3,Win32,60.53635208,613aa96038862e4f29605ade,626b377229c10585ec392f89,626b3a1fe3fbd43542785a2a,,,,,,,,,,,,,,,,,,,,,,,a,0,3.3476,"[""0.030"",""0.160"",""0.636"",""0.806""]","[1,0,1,1]",0,53,53,53,1,1,0,,,1,FALSE,,,,,,,,,,,,,,,,,,,,,,,,,,,,,,
,613aa96038862e4f29605ade,001,2022-04-28_20h07.05.120,classification_task,2021.2.3,Win32,60.53635208,613aa96038862e4f29605ade,626b377229c10585ec392f89,626b3a1fe3fbd43542785a2a,,,,,,,,,,,,,,,,,,,,,,,l,1,6.0123,"[""0.030"",""0.275"",""0.636"",""0.115""]","[1,1,1,0]",0,54,54,54,1,1,0,,,1,FALSE,,,,,,,,,,,,,,,,,,,,,,,,,,,,,,
,613aa96038862e4f29605ade,001,2022-04-28_20h07.05.120,classification_task,2021.2.3,Win32,60.53635208,613aa96038862e4f29605ade,626b377229c10585ec392f89,626b3a1fe3fbd43542785a2a,,,,,,,,,,,,,,,,,,,,,,,a,1,2.4186,"[""0.320"",""0.389"",""0.689"",""0.889""]","[1,1,0,1]",0,55,55,55,1,0,0,,,1,FALSE,,,,,,,,,,,,,,,,,,,,,,,,,,,,,,
,613aa96038862e4f29605ade,001,2022-04-28_20h07.05.120,classification_task,2021.2.3,Win32,60.53635208,613aa96038862e4f29605ade,626b377229c10585ec392f89,626b3a1fe3fbd43542785a2a,,,,,,,,,,,,,,,,,,,,,,,l,0,4.3835,"[""0.320"",""0.142"",""0.571"",""0.889""]","[1,0,1,1]",0,56,56,56,1,0,0,,,1,FALSE,,,,,,,,,,,,,,,,,,,,,,,,,,,,,,
,613aa96038862e4f29605ade,001,2022-04-28_20h07.05.120,classification_task,2021.2.3,Win32,60.53635208,613aa96038862e4f29605ade,626b377229c10585ec392f89,626b3a1fe3fbd43542785a2a,,,,,,,,,,,,,,,,,,,,,,,a,1,4.7172,"[""0.148"",""0.484"",""0.850"",""0.956""]","[0,1,1,1]",0,57,57,57,1,0,1,,,1,FALSE,,,,,,,,,,,,,,,,,,,,,,,,,,,,,,
,613aa96038862e4f29605ade,001,2022-04-28_20h07.05.120,classification_task,2021.2.3,Win32,60.53635208,613aa96038862e4f29605ade,626b377229c10585ec392f89,626b3a1fe3fbd43542785a2a,,,,,,,,,,,,,,,,,,,,,,,l,1,2.6368,"[""0.071"",""0.234"",""0.427"",""0.742""]","[1,1,0,1]",0,58,58,58,1,1,1,,,1,FALSE,,,,,,,,,,,,,,,,,,,,,,,,,,,,,,
,613aa96038862e4f29605ade,001,2022-04-28_20h07.05.120,classification_task,2021.2.3,Win32,60.53635208,613aa96038862e4f29605ade,626b377229c10585ec392f89,626b3a1fe3fbd43542785a2a,,,,,,,,,,,,,,,,,,,,,,,a,1,1.6731,"[""0.199"",""0.427"",""0.850"",""0.956""]","[1,0,1,1]",0,59,59,59,1,0,1,,,1,FALSE,,,,,,,,,,,,,,,,,,,,,,,,,,,,,,
,613aa96038862e4f29605ade,001,2022-04-28_20h07.05.120,classification_task,2021.2.3,Win32,60.53635208,613aa96038862e4f29605ade,626b377229c10585ec392f89,626b3a1fe3fbd43542785a2a,,,,,,,,,,,,,,,,,,,,,,,l,0,5.3049,"[""0.199"",""0.484"",""0.850"",""0.160""]","[1,1,1,0]",0,60,60,60,1,0,1,,,1,FALSE,,,,,,,,,,,,,,,,,,,,,,,,,,,,,,
,613aa96038862e4f29605ade,001,2022-04-28_20h07.05.120,classification_task,2021.2.3,Win32,60.53635208,613aa96038862e4f29605ade,626b377229c10585ec392f89,626b3a1fe3fbd43542785a2a,,,,,,,,,,,,,,,,,,,,,,,l,1,2.6269,"[""0.071"",""0.234"",""0.521"",""0.115""]","[1,1,1,0]",0,61,61,61,1,1,1,,,1,FALSE,,,,,,,,,,,,,,,,,,,,,,,,,,,,,,
,613aa96038862e4f29605ade,001,2022-04-28_20h07.05.120,classification_task,2021.2.3,Win32,60.53635208,613aa96038862e4f29605ade,626b377229c10585ec392f89,626b3a1fe3fbd43542785a2a,,,,,,,,,,,,,,,,,,,,,,,a,0,2.6201,"[""0.030"",""0.275"",""0.689"",""0.806""]","[1,1,0,1]",0,62,62,62,1,1,0,,,1,FALSE,,,,,,,,,,,,,,,,,,,,,,,,,,,,,,
,613aa96038862e4f29605ade,001,2022-04-28_20h07.05.120,classification_task,2021.2.3,Win32,60.53635208,613aa96038862e4f29605ade,626b377229c10585ec392f89,626b3a1fe3fbd43542785a2a,,,,,,,,,,,,,,,,,,,,,,,a,0,2.2032,"[""0.147"",""0.234"",""0.521"",""0.742""]","[0,1,1,1]",0,63,63,63,1,1,1,,,1,FALSE,,,,,,,,,,,,,,,,,,,,,,,,,,,,,,
,613aa96038862e4f29605ade,001,2022-04-28_20h07.05.120,classification_task,2021.2.3,Win32,60.53635208,613aa96038862e4f29605ade,626b377229c10585ec392f89,626b3a1fe3fbd43542785a2a,,,,,,,,,,,,,,,,,,,,,,,,,,,,,,,,,,,,,,,0, ,,0,6.102292769,557.6192,0,0,0,0,1,2,1,,,,,,,,,,,,,,,,,
,613aa96038862e4f29605ade,001,2022-04-28_20h07.05.120,classification_task,2021.2.3,Win32,60.53635208,613aa96038862e4f29605ade,626b377229c10585ec392f89,626b3a1fe3fbd43542785a2a,,,,,,,,,,,,,,,,,,,,,,,,,,,,,,,,,,,,,,,1,  ,,0,5.068893298,555.401,0,0,0,0,1,2,1,,,,,,,,,,,,,,,,,
,613aa96038862e4f29605ade,001,2022-04-28_20h07.05.120,classification_task,2021.2.3,Win32,60.53635208,613aa96038862e4f29605ade,626b377229c10585ec392f89,626b3a1fe3fbd43542785a2a,,,,,,,,,,,,,,,,,,,,,,,,,,,,,,,,,,,,,,,2,  ,,0,0,564.5747,0,0,0,0,1,2,1,,,,,,,,,,,,,,,,,
,613aa96038862e4f29605ade,001,2022-04-28_20h07.05.120,classification_task,2021.2.3,Win32,60.53635208,613aa96038862e4f29605ade,626b377229c10585ec392f89,626b3a1fe3fbd43542785a2a,,,,,,,,,,,,,,,,,,,,,,,,,,,,,,,,,,,,,,,,,,,,,0,0,0,0,1,,1,,,,,,,,,,,,,,,,,
,613aa96038862e4f29605ade,001,2022-04-28_20h07.05.120,classification_task,2021.2.3,Win32,60.53635208,613aa96038862e4f29605ade,626b377229c10585ec392f89,626b3a1fe3fbd43542785a2a,,,,,,,,,,,,,,,,,,,,,space,20.2037,a,0,4.7241,"[""0.675"",""0.275"",""0.636"",""0.806""]","[0,1,1,1]",0,0,0,0,1,1,0,,,1,FALSE,,,,,,,,,,,,,,,,,,,,,,,,,,,,,,
,613aa96038862e4f29605ade,001,2022-04-28_20h07.05.120,classification_task,2021.2.3,Win32,60.53635208,613aa96038862e4f29605ade,626b377229c10585ec392f89,626b3a1fe3fbd43542785a2a,,,,,,,,,,,,,,,,,,,,,,,l,0,4.4788,"[""0.199"",""0.681"",""0.850"",""0.956""]","[1,0,1,1]",0,1,1,1,1,0,1,,,1,FALSE,,,,,,,,,,,,,,,,,,,,,,,,,,,,,,
,613aa96038862e4f29605ade,001,2022-04-28_20h07.05.120,classification_task,2021.2.3,Win32,60.53635208,613aa96038862e4f29605ade,626b377229c10585ec392f89,626b3a1fe3fbd43542785a2a,,,,,,,,,,,,,,,,,,,,,,,l,1,2.1127,"[""0.148"",""0.234"",""0.521"",""0.742""]","[0,1,1,1]",0,2,2,2,1,1,1,,,1,FALSE,,,,,,,,,,,,,,,,,,,,,,,,,,,,,,
,613aa96038862e4f29605ade,001,2022-04-28_20h07.05.120,classification_task,2021.2.3,Win32,60.53635208,613aa96038862e4f29605ade,626b377229c10585ec392f89,626b3a1fe3fbd43542785a2a,,,,,,,,,,,,,,,,,,,,,,,a,1,0.9291,"[""0.199"",""0.484"",""0.160"",""0.956""]","[1,1,0,1]",0,3,3,3,1,0,1,,,1,FALSE,,,,,,,,,,,,,,,,,,,,,,,,,,,,,,
,613aa96038862e4f29605ade,001,2022-04-28_20h07.05.120,classification_task,2021.2.3,Win32,60.53635208,613aa96038862e4f29605ade,626b377229c10585ec392f89,626b3a1fe3fbd43542785a2a,,,,,,,,,,,,,,,,,,,,,,,l,0,3.0966,"[""0.320"",""0.389"",""0.571"",""0.442""]","[1,1,1,0]",0,4,4,4,1,0,0,,,1,FALSE,,,,,,,,,,,,,,,,,,,,,,,,,,,,,,
,613aa96038862e4f29605ade,001,2022-04-28_20h07.05.120,classification_task,2021.2.3,Win32,60.53635208,613aa96038862e4f29605ade,626b377229c10585ec392f89,626b3a1fe3fbd43542785a2a,,,,,,,,,,,,,,,,,,,,,,,l,1,1.1654,"[""0.071"",""0.234"",""0.521"",""0.139""]","[1,1,1,0]",0,5,5,5,1,1,1,,,1,FALSE,,,,,,,,,,,,,,,,,,,,,,,,,,,,,,
,613aa96038862e4f29605ade,001,2022-04-28_20h07.05.120,classification_task,2021.2.3,Win32,60.53635208,613aa96038862e4f29605ade,626b377229c10585ec392f89,626b3a1fe3fbd43542785a2a,,,,,,,,,,,,,,,,,,,,,,,l,1,1.4824,"[""0.071"",""0.234"",""0.701"",""0.742""]","[1,1,0,1]",0,6,6,6,1,1,1,,,1,FALSE,,,,,,,,,,,,,,,,,,,,,,,,,,,,,,
,613aa96038862e4f29605ade,001,2022-04-28_20h07.05.120,classification_task,2021.2.3,Win32,60.53635208,613aa96038862e4f29605ade,626b377229c10585ec392f89,626b3a1fe3fbd43542785a2a,,,,,,,,,,,,,,,,,,,,,,,l,1,1.0324,"[""0.071"",""0.681"",""0.521"",""0.742""]","[1,0,1,1]",0,7,7,7,1,1,1,,,1,FALSE,,,,,,,,,,,,,,,,,,,,,,,,,,,,,,
,613aa96038862e4f29605ade,001,2022-04-28_20h07.05.120,classification_task,2021.2.3,Win32,60.53635208,613aa96038862e4f29605ade,626b377229c10585ec392f89,626b3a1fe3fbd43542785a2a,,,,,,,,,,,,,,,,,,,,,,,a,1,1.3824,"[""0.427"",""0.484"",""0.850"",""0.956""]","[0,1,1,1]",0,8,8,8,1,0,1,,,1,FALSE,,,,,,,,,,,,,,,,,,,,,,,,,,,,,,
,613aa96038862e4f29605ade,001,2022-04-28_20h07.05.120,classification_task,2021.2.3,Win32,60.53635208,613aa96038862e4f29605ade,626b377229c10585ec392f89,626b3a1fe3fbd43542785a2a,,,,,,,,,,,,,,,,,,,,,,,a,0,1.564,"[""0.030"",""0.675"",""0.636"",""0.806""]","[1,0,1,1]",0,9,9,9,1,1,0,,,1,FALSE,,,,,,,,,,,,,,,,,,,,,,,,,,,,,,
,613aa96038862e4f29605ade,001,2022-04-28_20h07.05.120,classification_task,2021.2.3,Win32,60.53635208,613aa96038862e4f29605ade,626b377229c10585ec392f89,626b3a1fe3fbd43542785a2a,,,,,,,,,,,,,,,,,,,,,,,a,1,1.5415,"[""0.199"",""0.484"",""0.850"",""0.685""]","[1,1,1,0]",0,10,10,10,1,0,1,,,1,FALSE,,,,,,,,,,,,,,,,,,,,,,,,,,,,,,
,613aa96038862e4f29605ade,001,2022-04-28_20h07.05.120,classification_task,2021.2.3,Win32,60.53635208,613aa96038862e4f29605ade,626b377229c10585ec392f89,626b3a1fe3fbd43542785a2a,,,,,,,,,,,,,,,,,,,,,,,l,0,1.7587,"[""0.320"",""0.389"",""0.157"",""0.889""]","[1,1,0,1]",0,11,11,11,1,0,0,,,1,FALSE,,,,,,,,,,,,,,,,,,,,,,,,,,,,,,
,613aa96038862e4f29605ade,001,2022-04-28_20h07.05.120,classification_task,2021.2.3,Win32,60.53635208,613aa96038862e4f29605ade,626b377229c10585ec392f89,626b3a1fe3fbd43542785a2a,,,,,,,,,,,,,,,,,,,,,,,l,0,1.4156,"[""0.157"",""0.389"",""0.571"",""0.889""]","[0,1,1,1]",0,12,12,12,1,0,0,,,1,FALSE,,,,,,,,,,,,,,,,,,,,,,,,,,,,,,
,613aa96038862e4f29605ade,001,2022-04-28_20h07.05.120,classification_task,2021.2.3,Win32,60.53635208,613aa96038862e4f29605ade,626b377229c10585ec392f89,626b3a1fe3fbd43542785a2a,,,,,,,,,,,,,,,,,,,,,,,a,0,0.8848,"[""0.030"",""0.275"",""0.681"",""0.806""]","[1,1,0,1]",0,13,13,13,1,1,0,,,1,FALSE,,,,,,,,,,,,,,,,,,,,,,,,,,,,,,
,613aa96038862e4f29605ade,001,2022-04-28_20h07.05.120,classification_task,2021.2.3,Win32,60.53635208,613aa96038862e4f29605ade,626b377229c10585ec392f89,626b3a1fe3fbd43542785a2a,,,,,,,,,,,,,,,,,,,,,,,a,1,1.0199,"[""0.320"",""0.445"",""0.571"",""0.889""]","[1,0,1,1]",0,14,14,14,1,0,0,,,1,FALSE,,,,,,,,,,,,,,,,,,,,,,,,,,,,,,
,613aa96038862e4f29605ade,001,2022-04-28_20h07.05.120,classification_task,2021.2.3,Win32,60.53635208,613aa96038862e4f29605ade,626b377229c10585ec392f89,626b3a1fe3fbd43542785a2a,,,,,,,,,,,,,,,,,,,,,,,a,0,1.8165,"[""0.030"",""0.275"",""0.636"",""0.142""]","[1,1,1,0]",0,15,15,15,1,1,0,,,1,FALSE,,,,,,,,,,,,,,,,,,,,,,,,,,,,,,
,613aa96038862e4f29605ade,001,2022-04-28_20h07.05.120,classification_task,2021.2.3,Win32,60.53635208,613aa96038862e4f29605ade,626b377229c10585ec392f89,626b3a1fe3fbd43542785a2a,,,,,,,,,,,,,,,,,,,,,,,l,0,1.2783,"[""0.199"",""0.142"",""0.850"",""0.956""]","[1,0,1,1]",0,16,16,16,1,0,1,,,1,FALSE,,,,,,,,,,,,,,,,,,,,,,,,,,,,,,
,613aa96038862e4f29605ade,001,2022-04-28_20h07.05.120,classification_task,2021.2.3,Win32,60.53635208,613aa96038862e4f29605ade,626b377229c10585ec392f89,626b3a1fe3fbd43542785a2a,,,,,,,,,,,,,,,,,,,,,,,l,1,2.796,"[""0.071"",""0.234"",""0.442"",""0.742""]","[1,1,0,1]",0,17,17,17,1,1,1,,,1,FALSE,,,,,,,,,,,,,,,,,,,,,,,,,,,,,,
,613aa96038862e4f29605ade,001,2022-04-28_20h07.05.120,classification_task,2021.2.3,Win32,60.53635208,613aa96038862e4f29605ade,626b377229c10585ec392f89,626b3a1fe3fbd43542785a2a,,,,,,,,,,,,,,,,,,,,,,,a,1,2.0994,"[""0.199"",""0.484"",""0.689"",""0.956""]","[1,1,0,1]",0,18,18,18,1,0,1,,,1,FALSE,,,,,,,,,,,,,,,,,,,,,,,,,,,,,,
,613aa96038862e4f29605ade,001,2022-04-28_20h07.05.120,classification_task,2021.2.3,Win32,60.53635208,613aa96038862e4f29605ade,626b377229c10585ec392f89,626b3a1fe3fbd43542785a2a,,,,,,,,,,,,,,,,,,,,,,,l,1,1.3947,"[""0.030"",""0.147"",""0.636"",""0.806""]","[1,0,1,1]",0,19,19,19,1,1,0,,,1,FALSE,,,,,,,,,,,,,,,,,,,,,,,,,,,,,,
,613aa96038862e4f29605ade,001,2022-04-28_20h07.05.120,classification_task,2021.2.3,Win32,60.53635208,613aa96038862e4f29605ade,626b377229c10585ec392f89,626b3a1fe3fbd43542785a2a,,,,,,,,,,,,,,,,,,,,,,,a,0,1.085,"[""0.030"",""0.275"",""0.636"",""0.160""]","[1,1,1,0]",0,20,20,20,1,1,0,,,1,FALSE,,,,,,,,,,,,,,,,,,,,,,,,,,,,,,
,613aa96038862e4f29605ade,001,2022-04-28_20h07.05.120,classification_task,2021.2.3,Win32,60.53635208,613aa96038862e4f29605ade,626b377229c10585ec392f89,626b3a1fe3fbd43542785a2a,,,,,,,,,,,,,,,,,,,,,,,a,0,1.2816,"[""0.030"",""0.275"",""0.147"",""0.806""]","[1,1,0,1]",0,21,21,21,1,1,0,,,1,FALSE,,,,,,,,,,,,,,,,,,,,,,,,,,,,,,
,613aa96038862e4f29605ade,001,2022-04-28_20h07.05.120,classification_task,2021.2.3,Win32,60.53635208,613aa96038862e4f29605ade,626b377229c10585ec392f89,626b3a1fe3fbd43542785a2a,,,,,,,,,,,,,,,,,,,,,,,a,1,2.4642,"[""0.681"",""0.484"",""0.850"",""0.956""]","[0,1,1,1]",0,22,22,22,1,0,1,,,1,FALSE,,,,,,,,,,,,,,,,,,,,,,,,,,,,,,
,613aa96038862e4f29605ade,001,2022-04-28_20h07.05.120,classification_task,2021.2.3,Win32,60.53635208,613aa96038862e4f29605ade,626b377229c10585ec392f89,626b3a1fe3fbd43542785a2a,,,,,,,,,,,,,,,,,,,,,,,l,0,2.2272,"[""0.320"",""0.160"",""0.571"",""0.889""]","[1,0,1,1]",0,23,23,23,1,0,0,,,1,FALSE,,,,,,,,,,,,,,,,,,,,,,,,,,,,,,
,613aa96038862e4f29605ade,001,2022-04-28_20h07.05.120,classification_task,2021.2.3,Win32,60.53635208,613aa96038862e4f29605ade,626b377229c10585ec392f89,626b3a1fe3fbd43542785a2a,,,,,,,,,,,,,,,,,,,,,,,a,0,2.8774,"[""0.071"",""0.675"",""0.521"",""0.742""]","[1,0,1,1]",0,24,24,24,1,1,1,,,1,FALSE,,,,,,,,,,,,,,,,,,,,,,,,,,,,,,
,613aa96038862e4f29605ade,001,2022-04-28_20h07.05.120,classification_task,2021.2.3,Win32,60.53635208,613aa96038862e4f29605ade,626b377229c10585ec392f89,626b3a1fe3fbd43542785a2a,,,,,,,,,,,,,,,,,,,,,,,l,1,1.7666,"[""0.071"",""0.234"",""0.521"",""0.681""]","[1,1,1,0]",0,25,25,25,1,1,1,,,1,FALSE,,,,,,,,,,,,,,,,,,,,,,,,,,,,,,
,613aa96038862e4f29605ade,001,2022-04-28_20h07.05.120,classification_task,2021.2.3,Win32,60.53635208,613aa96038862e4f29605ade,626b377229c10585ec392f89,626b3a1fe3fbd43542785a2a,,,,,,,,,,,,,,,,,,,,,,,l,0,3.4285,"[""0.320"",""0.389"",""0.571"",""0.427""]","[1,1,1,0]",0,26,26,26,1,0,0,,,1,FALSE,,,,,,,,,,,,,,,,,,,,,,,,,,,,,,
,613aa96038862e4f29605ade,001,2022-04-28_20h07.05.120,classification_task,2021.2.3,Win32,60.53635208,613aa96038862e4f29605ade,626b377229c10585ec392f89,626b3a1fe3fbd43542785a2a,,,,,,,,,,,,,,,,,,,,,,,l,1,1.9726,"[""0.681"",""0.275"",""0.636"",""0.806""]","[0,1,1,1]",0,27,27,27,1,1,0,,,1,FALSE,,,,,,,,,,,,,,,,,,,,,,,,,,,,,,
,613aa96038862e4f29605ade,001,2022-04-28_20h07.05.120,classification_task,2021.2.3,Win32,60.53635208,613aa96038862e4f29605ade,626b377229c10585ec392f89,626b3a1fe3fbd43542785a2a,,,,,,,,,,,,,,,,,,,,,,,a,1,2.6463,"[""0.147"",""0.389"",""0.571"",""0.889""]","[0,1,1,1]",0,28,28,28,1,0,0,,,1,FALSE,,,,,,,,,,,,,,,,,,,,,,,,,,,,,,
,613aa96038862e4f29605ade,001,2022-04-28_20h07.05.120,classification_task,2021.2.3,Win32,60.53635208,613aa96038862e4f29605ade,626b377229c10585ec392f89,626b3a1fe3fbd43542785a2a,,,,,,,,,,,,,,,,,,,,,,,a,1,1.9133,"[""0.199"",""0.484"",""0.850"",""0.685""]","[1,1,1,0]",0,29,29,29,1,0,1,,,1,FALSE,,,,,,,,,,,,,,,,,,,,,,,,,,,,,,
,613aa96038862e4f29605ade,001,2022-04-28_20h07.05.120,classification_task,2021.2.3,Win32,60.53635208,613aa96038862e4f29605ade,626b377229c10585ec392f89,626b3a1fe3fbd43542785a2a,,,,,,,,,,,,,,,,,,,,,,,a,1,2.65,"[""0.320"",""0.389"",""0.701"",""0.889""]","[1,1,0,1]",0,30,30,30,1,0,0,,,1,FALSE,,,,,,,,,,,,,,,,,,,,,,,,,,,,,,
,613aa96038862e4f29605ade,001,2022-04-28_20h07.05.120,classification_task,2021.2.3,Win32,60.53635208,613aa96038862e4f29605ade,626b377229c10585ec392f89,626b3a1fe3fbd43542785a2a,,,,,,,,,,,,,,,,,,,,,,,l,1,1.2418,"[""0.160"",""0.234"",""0.521"",""0.742""]","[0,1,1,1]",0,31,31,31,1,1,1,,,1,FALSE,,,,,,,,,,,,,,,,,,,,,,,,,,,,,,
,613aa96038862e4f29605ade,001,2022-04-28_20h07.05.120,classification_task,2021.2.3,Win32,60.53635208,613aa96038862e4f29605ade,626b377229c10585ec392f89,626b3a1fe3fbd43542785a2a,,,,,,,,,,,,,,,,,,,,,,,l,1,0.8725,"[""0.071"",""0.234"",""0.521"",""0.685""]","[1,1,1,0]",0,32,32,32,1,1,1,,,1,FALSE,,,,,,,,,,,,,,,,,,,,,,,,,,,,,,
,613aa96038862e4f29605ade,001,2022-04-28_20h07.05.120,classification_task,2021.2.3,Win32,60.53635208,613aa96038862e4f29605ade,626b377229c10585ec392f89,626b3a1fe3fbd43542785a2a,,,,,,,,,,,,,,,,,,,,,,,l,0,2.3232,"[""0.320"",""0.389"",""0.571"",""0.147""]","[1,1,1,0]",0,33,33,33,1,0,0,,,1,FALSE,,,,,,,,,,,,,,,,,,,,,,,,,,,,,,
,613aa96038862e4f29605ade,001,2022-04-28_20h07.05.120,classification_task,2021.2.3,Win32,60.53635208,613aa96038862e4f29605ade,626b377229c10585ec392f89,626b3a1fe3fbd43542785a2a,,,,,,,,,,,,,,,,,,,,,,,l,0,1.5501,"[""0.427"",""0.389"",""0.571"",""0.889""]","[0,1,1,1]",0,34,34,34,1,0,0,,,1,FALSE,,,,,,,,,,,,,,,,,,,,,,,,,,,,,,
,613aa96038862e4f29605ade,001,2022-04-28_20h07.05.120,classification_task,2021.2.3,Win32,60.53635208,613aa96038862e4f29605ade,626b377229c10585ec392f89,626b3a1fe3fbd43542785a2a,,,,,,,,,,,,,,,,,,,,,,,l,1,1.2987,"[""0.148"",""0.275"",""0.636"",""0.806""]","[0,1,1,1]",0,35,35,35,1,1,0,,,1,FALSE,,,,,,,,,,,,,,,,,,,,,,,,,,,,,,
,613aa96038862e4f29605ade,001,2022-04-28_20h07.05.120,classification_task,2021.2.3,Win32,60.53635208,613aa96038862e4f29605ade,626b377229c10585ec392f89,626b3a1fe3fbd43542785a2a,,,,,,,,,,,,,,,,,,,,,,,l,1,2.0555,"[""0.030"",""0.275"",""0.636"",""0.147""]","[1,1,1,0]",0,36,36,36,1,1,0,,,1,FALSE,,,,,,,,,,,,,,,,,,,,,,,,,,,,,,
,613aa96038862e4f29605ade,001,2022-04-28_20h07.05.120,classification_task,2021.2.3,Win32,60.53635208,613aa96038862e4f29605ade,626b377229c10585ec392f89,626b3a1fe3fbd43542785a2a,,,,,,,,,,,,,,,,,,,,,,,l,1,1.0245,"[""0.071"",""0.681"",""0.521"",""0.742""]","[1,0,1,1]",0,37,37,37,1,1,1,,,1,FALSE,,,,,,,,,,,,,,,,,,,,,,,,,,,,,,
,613aa96038862e4f29605ade,001,2022-04-28_20h07.05.120,classification_task,2021.2.3,Win32,60.53635208,613aa96038862e4f29605ade,626b377229c10585ec392f89,626b3a1fe3fbd43542785a2a,,,,,,,,,,,,,,,,,,,,,,,a,1,1.5753,"[""0.320"",""0.160"",""0.571"",""0.889""]","[1,0,1,1]",0,38,38,38,1,0,0,,,1,FALSE,,,,,,,,,,,,,,,,,,,,,,,,,,,,,,
,613aa96038862e4f29605ade,001,2022-04-28_20h07.05.120,classification_task,2021.2.3,Win32,60.53635208,613aa96038862e4f29605ade,626b377229c10585ec392f89,626b3a1fe3fbd43542785a2a,,,,,,,,,,,,,,,,,,,,,,,a,1,1.6903,"[""0.445"",""0.484"",""0.850"",""0.956""]","[0,1,1,1]",0,39,39,39,1,0,1,,,1,FALSE,,,,,,,,,,,,,,,,,,,,,,,,,,,,,,
,613aa96038862e4f29605ade,001,2022-04-28_20h07.05.120,classification_task,2021.2.3,Win32,60.53635208,613aa96038862e4f29605ade,626b377229c10585ec392f89,626b3a1fe3fbd43542785a2a,,,,,,,,,,,,,,,,,,,,,,,a,1,1.6832,"[""0.199"",""0.484"",""0.850"",""0.160""]","[1,1,1,0]",0,40,40,40,1,0,1,,,1,FALSE,,,,,,,,,,,,,,,,,,,,,,,,,,,,,,
,613aa96038862e4f29605ade,001,2022-04-28_20h07.05.120,classification_task,2021.2.3,Win32,60.53635208,613aa96038862e4f29605ade,626b377229c10585ec392f89,626b3a1fe3fbd43542785a2a,,,,,,,,,,,,,,,,,,,,,,,a,0,1.8257,"[""0.030"",""0.427"",""0.636"",""0.806""]","[1,0,1,1]",0,41,41,41,1,1,0,,,1,FALSE,,,,,,,,,,,,,,,,,,,,,,,,,,,,,,
,613aa96038862e4f29605ade,001,2022-04-28_20h07.05.120,classification_task,2021.2.3,Win32,60.53635208,613aa96038862e4f29605ade,626b377229c10585ec392f89,626b3a1fe3fbd43542785a2a,,,,,,,,,,,,,,,,,,,,,,,l,1,1.348,"[""0.071"",""0.234"",""0.160"",""0.742""]","[1,1,0,1]",0,42,42,42,1,1,1,,,1,FALSE,,,,,,,,,,,,,,,,,,,,,,,,,,,,,,
,613aa96038862e4f29605ade,001,2022-04-28_20h07.05.120,classification_task,2021.2.3,Win32,60.53635208,613aa96038862e4f29605ade,626b377229c10585ec392f89,626b3a1fe3fbd43542785a2a,,,,,,,,,,,,,,,,,,,,,,,l,0,2.2666,"[""0.199"",""0.115"",""0.850"",""0.956""]","[1,0,1,1]",0,43,43,43,1,0,1,,,1,FALSE,,,,,,,,,,,,,,,,,,,,,,,,,,,,,,
,613aa96038862e4f29605ade,001,2022-04-28_20h07.05.120,classification_task,2021.2.3,Win32,60.53635208,613aa96038862e4f29605ade,626b377229c10585ec392f89,626b3a1fe3fbd43542785a2a,,,,,,,,,,,,,,,,,,,,,,,a,1,3.5079,"[""0.320"",""0.389"",""0.139"",""0.889""]","[1,1,0,1]",0,44,44,44,1,0,0,,,1,FALSE,,,,,,,,,,,,,,,,,,,,,,,,,,,,,,
,613aa96038862e4f29605ade,001,2022-04-28_20h07.05.120,classification_task,2021.2.3,Win32,60.53635208,613aa96038862e4f29605ade,626b377229c10585ec392f89,626b3a1fe3fbd43542785a2a,,,,,,,,,,,,,,,,,,,,,,,a,0,1.933,"[""0.030"",""0.275"",""0.681"",""0.806""]","[1,1,0,1]",0,45,45,45,1,1,0,,,1,FALSE,,,,,,,,,,,,,,,,,,,,,,,,,,,,,,
,613aa96038862e4f29605ade,001,2022-04-28_20h07.05.120,classification_task,2021.2.3,Win32,60.53635208,613aa96038862e4f29605ade,626b377229c10585ec392f89,626b3a1fe3fbd43542785a2a,,,,,,,,,,,,,,,,,,,,,,,l,1,1.1908,"[""0.442"",""0.234"",""0.521"",""0.742""]","[0,1,1,1]",0,46,46,46,1,1,1,,,1,FALSE,,,,,,,,,,,,,,,,,,,,,,,,,,,,,,
,613aa96038862e4f29605ade,001,2022-04-28_20h07.05.120,classification_task,2021.2.3,Win32,60.53635208,613aa96038862e4f29605ade,626b377229c10585ec392f89,626b3a1fe3fbd43542785a2a,,,,,,,,,,,,,,,,,,,,,,,a,1,0.7978,"[""0.199"",""0.484"",""0.442"",""0.956""]","[1,1,0,1]",0,47,47,47,1,0,1,,,1,FALSE,,,,,,,,,,,,,,,,,,,,,,,,,,,,,,
,613aa96038862e4f29605ade,001,2022-04-28_20h07.05.120,classification_task,2021.2.3,Win32,60.53635208,613aa96038862e4f29605ade,626b377229c10585ec392f89,626b3a1fe3fbd43542785a2a,,,,,,,,,,,,,,,,,,,,,,,l,1,3.7255,"[""0.030"",""0.275"",""0.636"",""0.427""]","[1,1,1,0]",0,48,48,48,1,1,0,,,1,FALSE,,,,,,,,,,,,,,,,,,,,,,,,,,,,,,
,613aa96038862e4f29605ade,001,2022-04-28_20h07.05.120,classification_task,2021.2.3,Win32,60.53635208,613aa96038862e4f29605ade,626b377229c10585ec392f89,626b3a1fe3fbd43542785a2a,,,,,,,,,,,,,,,,,,,,,,,l,0,0.9009,"[""0.320"",""0.115"",""0.571"",""0.889""]","[1,0,1,1]",0,49,49,49,1,0,0,,,1,FALSE,,,,,,,,,,,,,,,,,,,,,,,,,,,,,,
,613aa96038862e4f29605ade,001,2022-04-28_20h07.05.120,classification_task,2021.2.3,Win32,60.53635208,613aa96038862e4f29605ade,626b377229c10585ec392f89,626b3a1fe3fbd43542785a2a,,,,,,,,,,,,,,,,,,,,,,,l,1,1.3413,"[""0.689"",""0.234"",""0.521"",""0.742""]","[0,1,1,1]",0,50,50,50,1,1,1,,,1,FALSE,,,,,,,,,,,,,,,,,,,,,,,,,,,,,,
,613aa96038862e4f29605ade,001,2022-04-28_20h07.05.120,classification_task,2021.2.3,Win32,60.53635208,613aa96038862e4f29605ade,626b377229c10585ec392f89,626b3a1fe3fbd43542785a2a,,,,,,,,,,,,,,,,,,,,,,,l,1,1.1508,"[""0.071"",""0.234"",""0.521"",""0.147""]","[1,1,1,0]",0,51,51,51,1,1,1,,,1,FALSE,,,,,,,,,,,,,,,,,,,,,,,,,,,,,,
,613aa96038862e4f29605ade,001,2022-04-28_20h07.05.120,classification_task,2021.2.3,Win32,60.53635208,613aa96038862e4f29605ade,626b377229c10585ec392f89,626b3a1fe3fbd43542785a2a,,,,,,,,,,,,,,,,,,,,,,,a,1,3.2717,"[""0.320"",""0.389"",""0.571"",""0.160""]","[1,1,1,0]",0,52,52,52,1,0,0,,,1,FALSE,,,,,,,,,,,,,,,,,,,,,,,,,,,,,,
,613aa96038862e4f29605ade,001,2022-04-28_20h07.05.120,classification_task,2021.2.3,Win32,60.53635208,613aa96038862e4f29605ade,626b377229c10585ec392f89,626b3a1fe3fbd43542785a2a,,,,,,,,,,,,,,,,,,,,,,,l,0,1.4371,"[""0.685"",""0.389"",""0.571"",""0.889""]","[0,1,1,1]",0,53,53,53,1,0,0,,,1,FALSE,,,,,,,,,,,,,,,,,,,,,,,,,,,,,,
,613aa96038862e4f29605ade,001,2022-04-28_20h07.05.120,classification_task,2021.2.3,Win32,60.53635208,613aa96038862e4f29605ade,626b377229c10585ec392f89,626b3a1fe3fbd43542785a2a,,,,,,,,,,,,,,,,,,,,,,,a,0,2.9463,"[""0.030"",""0.685"",""0.636"",""0.806""]","[1,0,1,1]",0,54,54,54,1,1,0,,,1,FALSE,,,,,,,,,,,,,,,,,,,,,,,,,,,,,,
,613aa96038862e4f29605ade,001,2022-04-28_20h07.05.120,classification_task,2021.2.3,Win32,60.53635208,613aa96038862e4f29605ade,626b377229c10585ec392f89,626b3a1fe3fbd43542785a2a,,,,,,,,,,,,,,,,,,,,,,,l,0,2.702,"[""0.320"",""0.389"",""0.701"",""0.889""]","[1,1,0,1]",0,55,55,55,1,0,0,,,1,FALSE,,,,,,,,,,,,,,,,,,,,,,,,,,,,,,
,613aa96038862e4f29605ade,001,2022-04-28_20h07.05.120,classification_task,2021.2.3,Win32,60.53635208,613aa96038862e4f29605ade,626b377229c10585ec392f89,626b3a1fe3fbd43542785a2a,,,,,,,,,,,,,,,,,,,,,,,a,1,1.7135,"[""0.199"",""0.484"",""0.850"",""0.681""]","[1,1,1,0]",0,56,56,56,1,0,1,,,1,FALSE,,,,,,,,,,,,,,,,,,,,,,,,,,,,,,
,613aa96038862e4f29605ade,001,2022-04-28_20h07.05.120,classification_task,2021.2.3,Win32,60.53635208,613aa96038862e4f29605ade,626b377229c10585ec392f89,626b3a1fe3fbd43542785a2a,,,,,,,,,,,,,,,,,,,,,,,l,1,4.3164,"[""0.071"",""0.234"",""0.142"",""0.742""]","[1,1,0,1]",0,57,57,57,1,1,1,,,1,FALSE,,,,,,,,,,,,,,,,,,,,,,,,,,,,,,
,613aa96038862e4f29605ade,001,2022-04-28_20h07.05.120,classification_task,2021.2.3,Win32,60.53635208,613aa96038862e4f29605ade,626b377229c10585ec392f89,626b3a1fe3fbd43542785a2a,,,,,,,,,,,,,,,,,,,,,,,a,1,0.8829,"[""0.157"",""0.484"",""0.850"",""0.956""]","[0,1,1,1]",0,58,58,58,1,0,1,,,1,FALSE,,,,,,,,,,,,,,,,,,,,,,,,,,,,,,
,613aa96038862e4f29605ade,001,2022-04-28_20h07.05.120,classification_task,2021.2.3,Win32,60.53635208,613aa96038862e4f29605ade,626b377229c10585ec392f89,626b3a1fe3fbd43542785a2a,,,,,,,,,,,,,,,,,,,,,,,l,1,0.8498,"[""0.071"",""0.701"",""0.521"",""0.742""]","[1,0,1,1]",0,59,59,59,1,1,1,,,1,FALSE,,,,,,,,,,,,,,,,,,,,,,,,,,,,,,
,613aa96038862e4f29605ade,001,2022-04-28_20h07.05.120,classification_task,2021.2.3,Win32,60.53635208,613aa96038862e4f29605ade,626b377229c10585ec392f89,626b3a1fe3fbd43542785a2a,,,,,,,,,,,,,,,,,,,,,,,a,0,3.9235,"[""0.442"",""0.275"",""0.636"",""0.806""]","[0,1,1,1]",0,60,60,60,1,1,0,,,1,FALSE,,,,,,,,,,,,,,,,,,,,,,,,,,,,,,
,613aa96038862e4f29605ade,001,2022-04-28_20h07.05.120,classification_task,2021.2.3,Win32,60.53635208,613aa96038862e4f29605ade,626b377229c10585ec392f89,626b3a1fe3fbd43542785a2a,,,,,,,,,,,,,,,,,,,,,,,a,1,1.2301,"[""0.199"",""0.484"",""0.681"",""0.956""]","[1,1,0,1]",0,61,61,61,1,0,1,,,1,FALSE,,,,,,,,,,,,,,,,,,,,,,,,,,,,,,
,613aa96038862e4f29605ade,001,2022-04-28_20h07.05.120,classification_task,2021.2.3,Win32,60.53635208,613aa96038862e4f29605ade,626b377229c10585ec392f89,626b3a1fe3fbd43542785a2a,,,,,,,,,,,,,,,,,,,,,,,a,1,2.3504,"[""0.199"",""0.689"",""0.850"",""0.956""]","[1,0,1,1]",0,62,62,62,1,0,1,,,1,FALSE,,,,,,,,,,,,,,,,,,,,,,,,,,,,,,
,613aa96038862e4f29605ade,001,2022-04-28_20h07.05.120,classification_task,2021.2.3,Win32,60.53635208,613aa96038862e4f29605ade,626b377229c10585ec392f89,626b3a1fe3fbd43542785a2a,,,,,,,,,,,,,,,,,,,,,,,l,1,3.2317,"[""0.030"",""0.275"",""0.427"",""0.806""]","[1,1,0,1]",0,63,63,63,1,1,0,,,1,FALSE,,,,,,,,,,,,,,,,,,,,,,,,,,,,,,
,613aa96038862e4f29605ade,001,2022-04-28_20h07.05.120,classification_task,2021.2.3,Win32,60.53635208,613aa96038862e4f29605ade,626b377229c10585ec392f89,626b3a1fe3fbd43542785a2a,,,,,,,,,,,,,,,,,,,,,,,,,,,,,,,,,,,,,,,0, ,,0,4.793320106,241.3481,0,1,1,1,1,2,2,,,,,,,,,,,,,,,,,
,613aa96038862e4f29605ade,001,2022-04-28_20h07.05.120,classification_task,2021.2.3,Win32,60.53635208,613aa96038862e4f29605ade,626b377229c10585ec392f89,626b3a1fe3fbd43542785a2a,,,,,,,,,,,,,,,,,,,,,,,,,,,,,,,,,,,,,,,1,  ,,0,3.897707231,239.5685,0,1,1,1,1,2,2,,,,,,,,,,,,,,,,,
,613aa96038862e4f29605ade,001,2022-04-28_20h07.05.120,classification_task,2021.2.3,Win32,60.53635208,613aa96038862e4f29605ade,626b377229c10585ec392f89,626b3a1fe3fbd43542785a2a,,,,,,,,,,,,,,,,,,,,,,,,,,,,,,,,,,,,,,,2,  ,,0,0,234.851,0,1,1,1,1,2,2,,,,,,,,,,,,,,,,,
,613aa96038862e4f29605ade,001,2022-04-28_20h07.05.120,classification_task,2021.2.3,Win32,60.53635208,613aa96038862e4f29605ade,626b377229c10585ec392f89,626b3a1fe3fbd43542785a2a,,,,,,,,,,,,,,,,,,,,,,,,,,,,,,,,,,,,,,,,,,,,,0,1,1,1,1,,2,,,,,,,,,,,,,,,,,
,613aa96038862e4f29605ade,001,2022-04-28_20h07.05.120,classification_task,2021.2.3,Win32,60.53635208,613aa96038862e4f29605ade,626b377229c10585ec392f89,626b3a1fe3fbd43542785a2a,,,,,,,,,,,,,,,,,,,,,space,11.5488,a,1,6.3057,"[""0.320"",""0.389"",""0.445"",""0.889""]","[1,1,0,1]",0,0,0,0,1,0,0,,,1,FALSE,,,,,,,,,,,,,,,,,,,,,,,,,,,,,,
,613aa96038862e4f29605ade,001,2022-04-28_20h07.05.120,classification_task,2021.2.3,Win32,60.53635208,613aa96038862e4f29605ade,626b377229c10585ec392f89,626b3a1fe3fbd43542785a2a,,,,,,,,,,,,,,,,,,,,,,,a,1,2.8478,"[""0.157"",""0.484"",""0.850"",""0.956""]","[0,1,1,1]",0,1,1,1,1,0,1,,,1,FALSE,,,,,,,,,,,,,,,,,,,,,,,,,,,,,,
,613aa96038862e4f29605ade,001,2022-04-28_20h07.05.120,classification_task,2021.2.3,Win32,60.53635208,613aa96038862e4f29605ade,626b377229c10585ec392f89,626b3a1fe3fbd43542785a2a,,,,,,,,,,,,,,,,,,,,,,,a,0,1.752,"[""0.675"",""0.275"",""0.636"",""0.806""]","[0,1,1,1]",0,2,2,2,1,1,0,,,1,FALSE,,,,,,,,,,,,,,,,,,,,,,,,,,,,,,
,613aa96038862e4f29605ade,001,2022-04-28_20h07.05.120,classification_task,2021.2.3,Win32,60.53635208,613aa96038862e4f29605ade,626b377229c10585ec392f89,626b3a1fe3fbd43542785a2a,,,,,,,,,,,,,,,,,,,,,,,l,1,1.2006,"[""0.071"",""0.234"",""0.445"",""0.742""]","[1,1,0,1]",0,3,3,3,1,1,1,,,1,FALSE,,,,,,,,,,,,,,,,,,,,,,,,,,,,,,
,613aa96038862e4f29605ade,001,2022-04-28_20h07.05.120,classification_task,2021.2.3,Win32,60.53635208,613aa96038862e4f29605ade,626b377229c10585ec392f89,626b3a1fe3fbd43542785a2a,,,,,,,,,,,,,,,,,,,,,,,l,1,0.7501,"[""0.030"",""0.442"",""0.636"",""0.806""]","[1,0,1,1]",0,4,4,4,1,1,0,,,1,FALSE,,,,,,,,,,,,,,,,,,,,,,,,,,,,,,
,613aa96038862e4f29605ade,001,2022-04-28_20h07.05.120,classification_task,2021.2.3,Win32,60.53635208,613aa96038862e4f29605ade,626b377229c10585ec392f89,626b3a1fe3fbd43542785a2a,,,,,,,,,,,,,,,,,,,,,,,a,1,0.7999,"[""0.199"",""0.484"",""0.850"",""0.442""]","[1,1,1,0]",0,5,5,5,1,0,1,,,1,FALSE,,,,,,,,,,,,,,,,,,,,,,,,,,,,,,
,613aa96038862e4f29605ade,001,2022-04-28_20h07.05.120,classification_task,2021.2.3,Win32,60.53635208,613aa96038862e4f29605ade,626b377229c10585ec392f89,626b3a1fe3fbd43542785a2a,,,,,,,,,,,,,,,,,,,,,,,l,0,0.8501,"[""0.199"",""0.484"",""0.675"",""0.956""]","[1,1,0,1]",0,6,6,6,1,0,1,,,1,FALSE,,,,,,,,,,,,,,,,,,,,,,,,,,,,,,
,613aa96038862e4f29605ade,001,2022-04-28_20h07.05.120,classification_task,2021.2.3,Win32,60.53635208,613aa96038862e4f29605ade,626b377229c10585ec392f89,626b3a1fe3fbd43542785a2a,,,,,,,,,,,,,,,,,,,,,,,a,1,2.0828,"[""0.199"",""0.115"",""0.850"",""0.956""]","[1,0,1,1]",0,7,7,7,1,0,1,,,1,FALSE,,,,,,,,,,,,,,,,,,,,,,,,,,,,,,
,613aa96038862e4f29605ade,001,2022-04-28_20h07.05.120,classification_task,2021.2.3,Win32,60.53635208,613aa96038862e4f29605ade,626b377229c10585ec392f89,626b3a1fe3fbd43542785a2a,,,,,,,,,,,,,,,,,,,,,,,a,0,1.3332,"[""0.071"",""0.234"",""0.521"",""0.689""]","[1,1,1,0]",0,8,8,8,1,1,1,,,1,FALSE,,,,,,,,,,,,,,,,,,,,,,,,,,,,,,
,613aa96038862e4f29605ade,001,2022-04-28_20h07.05.120,classification_task,2021.2.3,Win32,60.53635208,613aa96038862e4f29605ade,626b377229c10585ec392f89,626b3a1fe3fbd43542785a2a,,,,,,,,,,,,,,,,,,,,,,,a,1,3.3137,"[""0.427"",""0.389"",""0.571"",""0.889""]","[0,1,1,1]",0,9,9,9,1,0,0,,,1,FALSE,,,,,,,,,,,,,,,,,,,,,,,,,,,,,,
,613aa96038862e4f29605ade,001,2022-04-28_20h07.05.120,classification_task,2021.2.3,Win32,60.53635208,613aa96038862e4f29605ade,626b377229c10585ec392f89,626b3a1fe3fbd43542785a2a,,,,,,,,,,,,,,,,,,,,,,,l,0,0.9664,"[""0.320"",""0.147"",""0.571"",""0.889""]","[1,0,1,1]",0,10,10,10,1,0,0,,,1,FALSE,,,,,,,,,,,,,,,,,,,,,,,,,,,,,,
,613aa96038862e4f29605ade,001,2022-04-28_20h07.05.120,classification_task,2021.2.3,Win32,60.53635208,613aa96038862e4f29605ade,626b377229c10585ec392f89,626b3a1fe3fbd43542785a2a,,,,,,,,,,,,,,,,,,,,,,,a,0,0.9844,"[""0.427"",""0.234"",""0.521"",""0.742""]","[0,1,1,1]",0,11,11,11,1,1,1,,,1,FALSE,,,,,,,,,,,,,,,,,,,,,,,,,,,,,,
,613aa96038862e4f29605ade,001,2022-04-28_20h07.05.120,classification_task,2021.2.3,Win32,60.53635208,613aa96038862e4f29605ade,626b377229c10585ec392f89,626b3a1fe3fbd43542785a2a,,,,,,,,,,,,,,,,,,,,,,,a,0,0.8506,"[""0.030"",""0.275"",""0.636"",""0.685""]","[1,1,1,0]",0,12,12,12,1,1,0,,,1,FALSE,,,,,,,,,,,,,,,,,,,,,,,,,,,,,,
,613aa96038862e4f29605ade,001,2022-04-28_20h07.05.120,classification_task,2021.2.3,Win32,60.53635208,613aa96038862e4f29605ade,626b377229c10585ec392f89,626b3a1fe3fbd43542785a2a,,,,,,,,,,,,,,,,,,,,,,,l,1,2.8158,"[""0.071"",""0.139"",""0.521"",""0.742""]","[1,0,1,1]",0,13,13,13,1,1,1,,,1,FALSE,,,,,,,,,,,,,,,,,,,,,,,,,,,,,,
,613aa96038862e4f29605ade,001,2022-04-28_20h07.05.120,classification_task,2021.2.3,Win32,60.53635208,613aa96038862e4f29605ade,626b377229c10585ec392f89,626b3a1fe3fbd43542785a2a,,,,,,,,,,,,,,,,,,,,,,,a,0,1.2822,"[""0.030"",""0.275"",""0.160"",""0.806""]","[1,1,0,1]",0,14,14,14,1,1,0,,,1,FALSE,,,,,,,,,,,,,,,,,,,,,,,,,,,,,,
,613aa96038862e4f29605ade,001,2022-04-28_20h07.05.120,classification_task,2021.2.3,Win32,60.53635208,613aa96038862e4f29605ade,626b377229c10585ec392f89,626b3a1fe3fbd43542785a2a,,,,,,,,,,,,,,,,,,,,,,,a,1,1.0336,"[""0.320"",""0.389"",""0.571"",""0.142""]","[1,1,1,0]",0,15,15,15,1,0,0,,,1,FALSE,,,,,,,,,,,,,,,,,,,,,,,,,,,,,,
,613aa96038862e4f29605ade,001,2022-04-28_20h07.05.120,classification_task,2021.2.3,Win32,60.53635208,613aa96038862e4f29605ade,626b377229c10585ec392f89,626b3a1fe3fbd43542785a2a,,,,,,,,,,,,,,,,,,,,,,,a,0,1.4992,"[""0.030"",""0.275"",""0.636"",""0.681""]","[1,1,1,0]",0,16,16,16,1,1,0,,,1,FALSE,,,,,,,,,,,,,,,,,,,,,,,,,,,,,,
,613aa96038862e4f29605ade,001,2022-04-28_20h07.05.120,classification_task,2021.2.3,Win32,60.53635208,613aa96038862e4f29605ade,626b377229c10585ec392f89,626b3a1fe3fbd43542785a2a,,,,,,,,,,,,,,,,,,,,,,,a,0,1.0158,"[""0.071"",""0.234"",""0.521"",""0.160""]","[1,1,1,0]",0,17,17,17,1,1,1,,,1,FALSE,,,,,,,,,,,,,,,,,,,,,,,,,,,,,,
,613aa96038862e4f29605ade,001,2022-04-28_20h07.05.120,classification_task,2021.2.3,Win32,60.53635208,613aa96038862e4f29605ade,626b377229c10585ec392f89,626b3a1fe3fbd43542785a2a,,,,,,,,,,,,,,,,,,,,,,,a,1,0.8528,"[""0.199"",""0.484"",""0.850"",""0.142""]","[1,1,1,0]",0,18,18,18,1,0,1,,,1,FALSE,,,,,,,,,,,,,,,,,,,,,,,,,,,,,,
,613aa96038862e4f29605ade,001,2022-04-28_20h07.05.120,classification_task,2021.2.3,Win32,60.53635208,613aa96038862e4f29605ade,626b377229c10585ec392f89,626b3a1fe3fbd43542785a2a,,,,,,,,,,,,,,,,,,,,,,,l,1,0.9684,"[""0.030"",""0.275"",""0.685"",""0.806""]","[1,1,0,1]",0,19,19,19,1,1,0,,,1,FALSE,,,,,,,,,,,,,,,,,,,,,,,,,,,,,,
,613aa96038862e4f29605ade,001,2022-04-28_20h07.05.120,classification_task,2021.2.3,Win32,60.53635208,613aa96038862e4f29605ade,626b377229c10585ec392f89,626b3a1fe3fbd43542785a2a,,,,,,,,,,,,,,,,,,,,,,,a,0,0.9482,"[""0.071"",""0.234"",""0.157"",""0.742""]","[1,1,0,1]",0,20,20,20,1,1,1,,,1,FALSE,,,,,,,,,,,,,,,,,,,,,,,,,,,,,,
,613aa96038862e4f29605ade,001,2022-04-28_20h07.05.120,classification_task,2021.2.3,Win32,60.53635208,613aa96038862e4f29605ade,626b377229c10585ec392f89,626b3a1fe3fbd43542785a2a,,,,,,,,,,,,,,,,,,,,,,,l,0,0.8989,"[""0.199"",""0.484"",""0.675"",""0.956""]","[1,1,0,1]",0,21,21,21,1,0,1,,,1,FALSE,,,,,,,,,,,,,,,,,,,,,,,,,,,,,,
,613aa96038862e4f29605ade,001,2022-04-28_20h07.05.120,classification_task,2021.2.3,Win32,60.53635208,613aa96038862e4f29605ade,626b377229c10585ec392f89,626b3a1fe3fbd43542785a2a,,,,,,,,,,,,,,,,,,,,,,,a,1,1.5842,"[""0.701"",""0.389"",""0.571"",""0.889""]","[0,1,1,1]",0,22,22,22,1,0,0,,,1,FALSE,,,,,,,,,,,,,,,,,,,,,,,,,,,,,,
,613aa96038862e4f29605ade,001,2022-04-28_20h07.05.120,classification_task,2021.2.3,Win32,60.53635208,613aa96038862e4f29605ade,626b377229c10585ec392f89,626b3a1fe3fbd43542785a2a,,,,,,,,,,,,,,,,,,,,,,,l,0,2.6987,"[""0.320"",""0.142"",""0.571"",""0.889""]","[1,0,1,1]",0,23,23,23,1,0,0,,,1,FALSE,,,,,,,,,,,,,,,,,,,,,,,,,,,,,,
,613aa96038862e4f29605ade,001,2022-04-28_20h07.05.120,classification_task,2021.2.3,Win32,60.53635208,613aa96038862e4f29605ade,626b377229c10585ec392f89,626b3a1fe3fbd43542785a2a,,,,,,,,,,,,,,,,,,,,,,,l,0,6.9941,"[""0.320"",""0.389"",""0.571"",""0.685""]","[1,1,1,0]",0,24,24,24,1,0,0,,,1,FALSE,,,,,,,,,,,,,,,,,,,,,,,,,,,,,,
,613aa96038862e4f29605ade,001,2022-04-28_20h07.05.120,classification_task,2021.2.3,Win32,60.53635208,613aa96038862e4f29605ade,626b377229c10585ec392f89,626b3a1fe3fbd43542785a2a,,,,,,,,,,,,,,,,,,,,,,,a,0,1.2985,"[""0.071"",""0.148"",""0.521"",""0.742""]","[1,0,1,1]",0,25,25,25,1,1,1,,,1,FALSE,,,,,,,,,,,,,,,,,,,,,,,,,,,,,,
,613aa96038862e4f29605ade,001,2022-04-28_20h07.05.120,classification_task,2021.2.3,Win32,60.53635208,613aa96038862e4f29605ade,626b377229c10585ec392f89,626b3a1fe3fbd43542785a2a,,,,,,,,,,,,,,,,,,,,,,,a,1,1.1166,"[""0.320"",""0.389"",""0.681"",""0.889""]","[1,1,0,1]",0,26,26,26,1,0,0,,,1,FALSE,,,,,,,,,,,,,,,,,,,,,,,,,,,,,,
,613aa96038862e4f29605ade,001,2022-04-28_20h07.05.120,classification_task,2021.2.3,Win32,60.53635208,613aa96038862e4f29605ade,626b377229c10585ec392f89,626b3a1fe3fbd43542785a2a,,,,,,,,,,,,,,,,,,,,,,,l,1,0.8011,"[""0.030"",""0.427"",""0.636"",""0.806""]","[1,0,1,1]",0,27,27,27,1,1,0,,,1,FALSE,,,,,,,,,,,,,,,,,,,,,,,,,,,,,,
,613aa96038862e4f29605ade,001,2022-04-28_20h07.05.120,classification_task,2021.2.3,Win32,60.53635208,613aa96038862e4f29605ade,626b377229c10585ec392f89,626b3a1fe3fbd43542785a2a,,,,,,,,,,,,,,,,,,,,,,,a,0,2.532,"[""0.685"",""0.234"",""0.521"",""0.742""]","[0,1,1,1]",0,28,28,28,1,1,1,,,1,FALSE,,,,,,,,,,,,,,,,,,,,,,,,,,,,,,
,613aa96038862e4f29605ade,001,2022-04-28_20h07.05.120,classification_task,2021.2.3,Win32,60.53635208,613aa96038862e4f29605ade,626b377229c10585ec392f89,626b3a1fe3fbd43542785a2a,,,,,,,,,,,,,,,,,,,,,,,a,1,2.015,"[""0.445"",""0.484"",""0.850"",""0.956""]","[0,1,1,1]",0,29,29,29,1,0,1,,,1,FALSE,,,,,,,,,,,,,,,,,,,,,,,,,,,,,,
,613aa96038862e4f29605ade,001,2022-04-28_20h07.05.120,classification_task,2021.2.3,Win32,60.53635208,613aa96038862e4f29605ade,626b377229c10585ec392f89,626b3a1fe3fbd43542785a2a,,,,,,,,,,,,,,,,,,,,,,,l,1,0.8834,"[""0.148"",""0.275"",""0.636"",""0.806""]","[0,1,1,1]",0,30,30,30,1,1,0,,,1,FALSE,,,,,,,,,,,,,,,,,,,,,,,,,,,,,,
,613aa96038862e4f29605ade,001,2022-04-28_20h07.05.120,classification_task,2021.2.3,Win32,60.53635208,613aa96038862e4f29605ade,626b377229c10585ec392f89,626b3a1fe3fbd43542785a2a,,,,,,,,,,,,,,,,,,,,,,,l,0,0.7506,"[""0.199"",""0.147"",""0.850"",""0.956""]","[1,0,1,1]",0,31,31,31,1,0,1,,,1,FALSE,,,,,,,,,,,,,,,,,,,,,,,,,,,,,,
,613aa96038862e4f29605ade,001,2022-04-28_20h07.05.120,classification_task,2021.2.3,Win32,60.53635208,613aa96038862e4f29605ade,626b377229c10585ec392f89,626b3a1fe3fbd43542785a2a,,,,,,,,,,,,,,,,,,,,,,,a,1,1.4021,"[""0.320"",""0.389"",""0.148"",""0.889""]","[1,1,0,1]",0,32,32,32,1,0,0,,,1,FALSE,,,,,,,,,,,,,,,,,,,,,,,,,,,,,,
,613aa96038862e4f29605ade,001,2022-04-28_20h07.05.120,classification_task,2021.2.3,Win32,60.53635208,613aa96038862e4f29605ade,626b377229c10585ec392f89,626b3a1fe3fbd43542785a2a,,,,,,,,,,,,,,,,,,,,,,,l,1,1.8312,"[""0.071"",""0.445"",""0.521"",""0.742""]","[1,0,1,1]",0,33,33,33,1,1,1,,,1,FALSE,,,,,,,,,,,,,,,,,,,,,,,,,,,,,,
,613aa96038862e4f29605ade,001,2022-04-28_20h07.05.120,classification_task,2021.2.3,Win32,60.53635208,613aa96038862e4f29605ade,626b377229c10585ec392f89,626b3a1fe3fbd43542785a2a,,,,,,,,,,,,,,,,,,,,,,,a,1,0.8494,"[""0.199"",""0.484"",""0.142"",""0.956""]","[1,1,0,1]",0,34,34,34,1,0,1,,,1,FALSE,,,,,,,,,,,,,,,,,,,,,,,,,,,,,,
,613aa96038862e4f29605ade,001,2022-04-28_20h07.05.120,classification_task,2021.2.3,Win32,60.53635208,613aa96038862e4f29605ade,626b377229c10585ec392f89,626b3a1fe3fbd43542785a2a,,,,,,,,,,,,,,,,,,,,,,,l,1,0.6658,"[""0.030"",""0.275"",""0.427"",""0.806""]","[1,1,0,1]",0,35,35,35,1,1,0,,,1,FALSE,,,,,,,,,,,,,,,,,,,,,,,,,,,,,,
,613aa96038862e4f29605ade,001,2022-04-28_20h07.05.120,classification_task,2021.2.3,Win32,60.53635208,613aa96038862e4f29605ade,626b377229c10585ec392f89,626b3a1fe3fbd43542785a2a,,,,,,,,,,,,,,,,,,,,,,,a,0,4.7134,"[""0.030"",""0.115"",""0.636"",""0.806""]","[1,0,1,1]",0,36,36,36,1,1,0,,,1,FALSE,,,,,,,,,,,,,,,,,,,,,,,,,,,,,,
,613aa96038862e4f29605ade,001,2022-04-28_20h07.05.120,classification_task,2021.2.3,Win32,60.53635208,613aa96038862e4f29605ade,626b377229c10585ec392f89,626b3a1fe3fbd43542785a2a,,,,,,,,,,,,,,,,,,,,,,,a,1,0.8663,"[""0.442"",""0.389"",""0.571"",""0.889""]","[0,1,1,1]",0,37,37,37,1,0,0,,,1,FALSE,,,,,,,,,,,,,,,,,,,,,,,,,,,,,,
,613aa96038862e4f29605ade,001,2022-04-28_20h07.05.120,classification_task,2021.2.3,Win32,60.53635208,613aa96038862e4f29605ade,626b377229c10585ec392f89,626b3a1fe3fbd43542785a2a,,,,,,,,,,,,,,,,,,,,,,,l,1,1.2501,"[""0.115"",""0.234"",""0.521"",""0.742""]","[0,1,1,1]",0,38,38,38,1,1,1,,,1,FALSE,,,,,,,,,,,,,,,,,,,,,,,,,,,,,,
,613aa96038862e4f29605ade,001,2022-04-28_20h07.05.120,classification_task,2021.2.3,Win32,60.53635208,613aa96038862e4f29605ade,626b377229c10585ec392f89,626b3a1fe3fbd43542785a2a,,,,,,,,,,,,,,,,,,,,,,,a,1,4.212,"[""0.320"",""0.689"",""0.571"",""0.889""]","[1,0,1,1]",0,39,39,39,1,0,0,,,1,FALSE,,,,,,,,,,,,,,,,,,,,,,,,,,,,,,
,613aa96038862e4f29605ade,001,2022-04-28_20h07.05.120,classification_task,2021.2.3,Win32,60.53635208,613aa96038862e4f29605ade,626b377229c10585ec392f89,626b3a1fe3fbd43542785a2a,,,,,,,,,,,,,,,,,,,,,,,l,1,3.798,"[""0.071"",""0.234"",""0.521"",""0.681""]","[1,1,1,0]",0,40,40,40,1,1,1,,,1,FALSE,,,,,,,,,,,,,,,,,,,,,,,,,,,,,,
,613aa96038862e4f29605ade,001,2022-04-28_20h07.05.120,classification_task,2021.2.3,Win32,60.53635208,613aa96038862e4f29605ade,626b377229c10585ec392f89,626b3a1fe3fbd43542785a2a,,,,,,,,,,,,,,,,,,,,,,,l,0,7.1959,"[""0.199"",""0.160"",""0.850"",""0.956""]","[1,0,1,1]",0,41,41,41,1,0,1,,,1,FALSE,,,,,,,,,,,,,,,,,,,,,,,,,,,,,,
,613aa96038862e4f29605ade,001,2022-04-28_20h07.05.120,classification_task,2021.2.3,Win32,60.53635208,613aa96038862e4f29605ade,626b377229c10585ec392f89,626b3a1fe3fbd43542785a2a,,,,,,,,,,,,,,,,,,,,,,,a,0,0.9973,"[""0.071"",""0.234"",""0.148"",""0.742""]","[1,1,0,1]",0,42,42,42,1,1,1,,,1,FALSE,,,,,,,,,,,,,,,,,,,,,,,,,,,,,,
,613aa96038862e4f29605ade,001,2022-04-28_20h07.05.120,classification_task,2021.2.3,Win32,60.53635208,613aa96038862e4f29605ade,626b377229c10585ec392f89,626b3a1fe3fbd43542785a2a,,,,,,,,,,,,,,,,,,,,,,,l,0,1.0168,"[""0.320"",""0.389"",""0.571"",""0.681""]","[1,1,1,0]",0,43,43,43,1,0,0,,,1,FALSE,,,,,,,,,,,,,,,,,,,,,,,,,,,,,,
,613aa96038862e4f29605ade,001,2022-04-28_20h07.05.120,classification_task,2021.2.3,Win32,60.53635208,613aa96038862e4f29605ade,626b377229c10585ec392f89,626b3a1fe3fbd43542785a2a,,,,,,,,,,,,,,,,,,,,,,,l,0,1.0337,"[""0.681"",""0.484"",""0.850"",""0.956""]","[0,1,1,1]",0,44,44,44,1,0,1,,,1,FALSE,,,,,,,,,,,,,,,,,,,,,,,,,,,,,,
,613aa96038862e4f29605ade,001,2022-04-28_20h07.05.120,classification_task,2021.2.3,Win32,60.53635208,613aa96038862e4f29605ade,626b377229c10585ec392f89,626b3a1fe3fbd43542785a2a,,,,,,,,,,,,,,,,,,,,,,,a,0,0.8,"[""0.675"",""0.275"",""0.636"",""0.806""]","[0,1,1,1]",0,45,45,45,1,1,0,,,1,FALSE,,,,,,,,,,,,,,,,,,,,,,,,,,,,,,
,613aa96038862e4f29605ade,001,2022-04-28_20h07.05.120,classification_task,2021.2.3,Win32,60.53635208,613aa96038862e4f29605ade,626b377229c10585ec392f89,626b3a1fe3fbd43542785a2a,,,,,,,,,,,,,,,,,,,,,,,a,1,1.1661,"[""0.199"",""0.484"",""0.850"",""0.148""]","[1,1,1,0]",0,46,46,46,1,0,1,,,1,FALSE,,,,,,,,,,,,,,,,,,,,,,,,,,,,,,
,613aa96038862e4f29605ade,001,2022-04-28_20h07.05.120,classification_task,2021.2.3,Win32,60.53635208,613aa96038862e4f29605ade,626b377229c10585ec392f89,626b3a1fe3fbd43542785a2a,,,,,,,,,,,,,,,,,,,,,,,a,0,1.6972,"[""0.030"",""0.275"",""0.636"",""0.685""]","[1,1,1,0]",0,47,47,47,1,1,0,,,1,FALSE,,,,,,,,,,,,,,,,,,,,,,,,,,,,,,
,613aa96038862e4f29605ade,001,2022-04-28_20h07.05.120,classification_task,2021.2.3,Win32,60.53635208,613aa96038862e4f29605ade,626b377229c10585ec392f89,626b3a1fe3fbd43542785a2a,,,,,,,,,,,,,,,,,,,,,,,l,0,1.6666,"[""0.199"",""0.142"",""0.850"",""0.956""]","[1,0,1,1]",0,48,48,48,1,0,1,,,1,FALSE,,,,,,,,,,,,,,,,,,,,,,,,,,,,,,
,613aa96038862e4f29605ade,001,2022-04-28_20h07.05.120,classification_task,2021.2.3,Win32,60.53635208,613aa96038862e4f29605ade,626b377229c10585ec392f89,626b3a1fe3fbd43542785a2a,,,,,,,,,,,,,,,,,,,,,,,l,0,0.7839,"[""0.320"",""0.389"",""0.701"",""0.889""]","[1,1,0,1]",0,49,49,49,1,0,0,,,1,FALSE,,,,,,,,,,,,,,,,,,,,,,,,,,,,,,
,613aa96038862e4f29605ade,001,2022-04-28_20h07.05.120,classification_task,2021.2.3,Win32,60.53635208,613aa96038862e4f29605ade,626b377229c10585ec392f89,626b3a1fe3fbd43542785a2a,,,,,,,,,,,,,,,,,,,,,,,a,1,1.0344,"[""0.199"",""0.484"",""0.427"",""0.956""]","[1,1,0,1]",0,50,50,50,1,0,1,,,1,FALSE,,,,,,,,,,,,,,,,,,,,,,,,,,,,,,
,613aa96038862e4f29605ade,001,2022-04-28_20h07.05.120,classification_task,2021.2.3,Win32,60.53635208,613aa96038862e4f29605ade,626b377229c10585ec392f89,626b3a1fe3fbd43542785a2a,,,,,,,,,,,,,,,,,,,,,,,l,0,1.3707,"[""0.115"",""0.389"",""0.571"",""0.889""]","[0,1,1,1]",0,51,51,51,1,0,0,,,1,FALSE,,,,,,,,,,,,,,,,,,,,,,,,,,,,,,
,613aa96038862e4f29605ade,001,2022-04-28_20h07.05.120,classification_task,2021.2.3,Win32,60.53635208,613aa96038862e4f29605ade,626b377229c10585ec392f89,626b3a1fe3fbd43542785a2a,,,,,,,,,,,,,,,,,,,,,,,l,0,1.5655,"[""0.689"",""0.484"",""0.850"",""0.956""]","[0,1,1,1]",0,52,52,52,1,0,1,,,1,FALSE,,,,,,,,,,,,,,,,,,,,,,,,,,,,,,
,613aa96038862e4f29605ade,001,2022-04-28_20h07.05.120,classification_task,2021.2.3,Win32,60.53635208,613aa96038862e4f29605ade,626b377229c10585ec392f89,626b3a1fe3fbd43542785a2a,,,,,,,,,,,,,,,,,,,,,,,l,1,2.0235,"[""0.030"",""0.275"",""0.636"",""0.142""]","[1,1,1,0]",0,53,53,53,1,1,0,,,1,FALSE,,,,,,,,,,,,,,,,,,,,,,,,,,,,,,
,613aa96038862e4f29605ade,001,2022-04-28_20h07.05.120,classification_task,2021.2.3,Win32,60.53635208,613aa96038862e4f29605ade,626b377229c10585ec392f89,626b3a1fe3fbd43542785a2a,,,,,,,,,,,,,,,,,,,,,,,l,0,0.8997,"[""0.199"",""0.484"",""0.850"",""0.689""]","[1,1,1,0]",0,54,54,54,1,0,1,,,1,FALSE,,,,,,,,,,,,,,,,,,,,,,,,,,,,,,
,613aa96038862e4f29605ade,001,2022-04-28_20h07.05.120,classification_task,2021.2.3,Win32,60.53635208,613aa96038862e4f29605ade,626b377229c10585ec392f89,626b3a1fe3fbd43542785a2a,,,,,,,,,,,,,,,,,,,,,,,a,0,0.987,"[""0.071"",""0.234"",""0.675"",""0.742""]","[1,1,0,1]",0,55,55,55,1,1,1,,,1,FALSE,,,,,,,,,,,,,,,,,,,,,,,,,,,,,,
,613aa96038862e4f29605ade,001,2022-04-28_20h07.05.120,classification_task,2021.2.3,Win32,60.53635208,613aa96038862e4f29605ade,626b377229c10585ec392f89,626b3a1fe3fbd43542785a2a,,,,,,,,,,,,,,,,,,,,,,,l,1,1.8521,"[""0.071"",""0.157"",""0.521"",""0.742""]","[1,0,1,1]",0,56,56,56,1,1,1,,,1,FALSE,,,,,,,,,,,,,,,,,,,,,,,,,,,,,,
,613aa96038862e4f29605ade,001,2022-04-28_20h07.05.120,classification_task,2021.2.3,Win32,60.53635208,613aa96038862e4f29605ade,626b377229c10585ec392f89,626b3a1fe3fbd43542785a2a,,,,,,,,,,,,,,,,,,,,,,,a,0,1.8728,"[""0.071"",""0.234"",""0.521"",""0.701""]","[1,1,1,0]",0,57,57,57,1,1,1,,,1,FALSE,,,,,,,,,,,,,,,,,,,,,,,,,,,,,,
,613aa96038862e4f29605ade,001,2022-04-28_20h07.05.120,classification_task,2021.2.3,Win32,60.53635208,613aa96038862e4f29605ade,626b377229c10585ec392f89,626b3a1fe3fbd43542785a2a,,,,,,,,,,,,,,,,,,,,,,,l,1,0.7343,"[""0.115"",""0.234"",""0.521"",""0.742""]","[0,1,1,1]",0,58,58,58,1,1,1,,,1,FALSE,,,,,,,,,,,,,,,,,,,,,,,,,,,,,,
,613aa96038862e4f29605ade,001,2022-04-28_20h07.05.120,classification_task,2021.2.3,Win32,60.53635208,613aa96038862e4f29605ade,626b377229c10585ec392f89,626b3a1fe3fbd43542785a2a,,,,,,,,,,,,,,,,,,,,,,,a,1,3.4499,"[""0.320"",""0.445"",""0.571"",""0.889""]","[1,0,1,1]",0,59,59,59,1,0,0,,,1,FALSE,,,,,,,,,,,,,,,,,,,,,,,,,,,,,,
,613aa96038862e4f29605ade,001,2022-04-28_20h07.05.120,classification_task,2021.2.3,Win32,60.53635208,613aa96038862e4f29605ade,626b377229c10585ec392f89,626b3a1fe3fbd43542785a2a,,,,,,,,,,,,,,,,,,,,,,,l,1,0.9866,"[""0.142"",""0.275"",""0.636"",""0.806""]","[0,1,1,1]",0,60,60,60,1,1,0,,,1,FALSE,,,,,,,,,,,,,,,,,,,,,,,,,,,,,,
,613aa96038862e4f29605ade,001,2022-04-28_20h07.05.120,classification_task,2021.2.3,Win32,60.53635208,613aa96038862e4f29605ade,626b377229c10585ec392f89,626b3a1fe3fbd43542785a2a,,,,,,,,,,,,,,,,,,,,,,,l,1,1.299,"[""0.030"",""0.275"",""0.689"",""0.806""]","[1,1,0,1]",0,61,61,61,1,1,0,,,1,FALSE,,,,,,,,,,,,,,,,,,,,,,,,,,,,,,
,613aa96038862e4f29605ade,001,2022-04-28_20h07.05.120,classification_task,2021.2.3,Win32,60.53635208,613aa96038862e4f29605ade,626b377229c10585ec392f89,626b3a1fe3fbd43542785a2a,,,,,,,,,,,,,,,,,,,,,,,l,1,1.3484,"[""0.030"",""0.147"",""0.636"",""0.806""]","[1,0,1,1]",0,62,62,62,1,1,0,,,1,FALSE,,,,,,,,,,,,,,,,,,,,,,,,,,,,,,
,613aa96038862e4f29605ade,001,2022-04-28_20h07.05.120,classification_task,2021.2.3,Win32,60.53635208,613aa96038862e4f29605ade,626b377229c10585ec392f89,626b3a1fe3fbd43542785a2a,,,,,,,,,,,,,,,,,,,,,,,l,0,1.4337,"[""0.320"",""0.389"",""0.571"",""0.445""]","[1,1,1,0]",0,63,63,63,1,0,0,,,1,FALSE,,,,,,,,,,,,,,,,,,,,,,,,,,,,,,
,613aa96038862e4f29605ade,001,2022-04-28_20h07.05.120,classification_task,2021.2.3,Win32,60.53635208,613aa96038862e4f29605ade,626b377229c10585ec392f89,626b3a1fe3fbd43542785a2a,,,,,,,,,,,,,,,,,,,,,,,,,,,,,,,,,,,,,,,0, ,,0,0.211915785,198.7715,0,2,2,2,1,2,3,,,,,,,,,,,,,,,,,
,613aa96038862e4f29605ade,001,2022-04-28_20h07.05.120,classification_task,2021.2.3,Win32,60.53635208,613aa96038862e4f29605ade,626b377229c10585ec392f89,626b3a1fe3fbd43542785a2a,,,,,,,,,,,,,,,,,,,,,,,,,,,,,,,,,,,,,,,1,  ,,0,1.10752866,200.7531,0,2,2,2,1,2,3,,,,,,,,,,,,,,,,,
,613aa96038862e4f29605ade,001,2022-04-28_20h07.05.120,classification_task,2021.2.3,Win32,60.53635208,613aa96038862e4f29605ade,626b377229c10585ec392f89,626b3a1fe3fbd43542785a2a,,,,,,,,,,,,,,,,,,,,,,,,,,,,,,,,,,,,,,,2,  ,,0,0.521935626,205.1994,0,2,2,2,1,2,3,,,,,,,,,,,,,,,,,
,613aa96038862e4f29605ade,001,2022-04-28_20h07.05.120,classification_task,2021.2.3,Win32,60.53635208,613aa96038862e4f29605ade,626b377229c10585ec392f89,626b3a1fe3fbd43542785a2a,,,,,,,,,,,,,,,,,,,,,,,,,,,,,,,,,,,,,,,,,,,,,0,2,2,2,1,,3,,,,,,,,,,,,,,,,,
,613aa96038862e4f29605ade,001,2022-04-28_20h07.05.120,classification_task,2021.2.3,Win32,60.53635208,613aa96038862e4f29605ade,626b377229c10585ec392f89,626b3a1fe3fbd43542785a2a,,,,,,,,,,,,,,,,,,,,,,,,,,,,,,,,,,,,,,,,,,,,,,,,,,,,,I believe the aid is a competent performer,,0.7,0,4,1041.0426,0,0,0,0,1,0,,,,
,613aa96038862e4f29605ade,001,2022-04-28_20h07.05.120,classification_task,2021.2.3,Win32,60.53635208,613aa96038862e4f29605ade,626b377229c10585ec392f89,626b3a1fe3fbd43542785a2a,,,,,,,,,,,,,,,,,,,,,,,,,,,,,,,,,,,,,,,,,,,,,,,,,,,,,I trust the aid,,0.7,0,5,1044.6448,0,0,0,0,1,0,,,,
,613aa96038862e4f29605ade,001,2022-04-28_20h07.05.120,classification_task,2021.2.3,Win32,60.53635208,613aa96038862e4f29605ade,626b377229c10585ec392f89,626b3a1fe3fbd43542785a2a,,,,,,,,,,,,,,,,,,,,,,,,,,,,,,,,,,,,,,,,,,,,,,,,,,,,,I have confidence in the advice given by the aid,,0.7,0,5,1047.6198,0,0,0,0,1,0,,,,
,613aa96038862e4f29605ade,001,2022-04-28_20h07.05.120,classification_task,2021.2.3,Win32,60.53635208,613aa96038862e4f29605ade,626b377229c10585ec392f89,626b3a1fe3fbd43542785a2a,,,,,,,,,,,,,,,,,,,,,,,,,,,,,,,,,,,,,,,,,,,,,,,,,,,,,I can depend on the aid,,0.7,0,5,1051.1799,0,0,0,0,1,0,,,,
,613aa96038862e4f29605ade,001,2022-04-28_20h07.05.120,classification_task,2021.2.3,Win32,60.53635208,613aa96038862e4f29605ade,626b377229c10585ec392f89,626b3a1fe3fbd43542785a2a,,,,,,,,,,,,,,,,,,,,,,,,,,,,,,,,,,,,,,,,,,,,,,,,,,,,,I can rely on the aid to behave in consistent ways,,0.7,0,5,1054.2558,0,0,0,0,1,0,,,,
,613aa96038862e4f29605ade,001,2022-04-28_20h07.05.120,classification_task,2021.2.3,Win32,60.53635208,613aa96038862e4f29605ade,626b377229c10585ec392f89,626b3a1fe3fbd43542785a2a,,,,,,,,,,,,,,,,,,,,,,,,,,,,,,,,,,,,,,,,,,,,,,,,,,,,,I can rely on the aid to do its best every time I take its advice,,0.7,0,5,1057.5328,0,0,0,0,1,0,,,,
,613aa96038862e4f29605ade,001,2022-04-28_20h07.05.120,classification_task,2021.2.3,Win32,60.53635208,613aa96038862e4f29605ade,626b377229c10585ec392f89,626b3a1fe3fbd43542785a2a,,,,,,,,,,,,,,,,,,,,,,,,,,,,,,,,,,,,,,,,,,,,,,,,,,,,,"On trials you completed with assistance from the aid, how frequently did you think the aid was correct?",,0.7,0,65,,0,0,0,0,1,0,,,,
,613aa96038862e4f29605ade,001,2022-04-28_20h07.05.120,classification_task,2021.2.3,Win32,60.53635208,613aa96038862e4f29605ade,626b377229c10585ec392f89,626b3a1fe3fbd43542785a2a,,,,,,,,,,,,,,,,,,,,,,,,,,,,,,,,,,,,,,,,,,,,,,,,,,,,,"On trials you completed without the aid, how frequently did you think you were correct?",,0.7,0,20,,0,0,0,0,1,0,,,,
,613aa96038862e4f29605ade,001,2022-04-28_20h07.05.120,classification_task,2021.2.3,Win32,60.53635208,613aa96038862e4f29605ade,626b377229c10585ec392f89,626b3a1fe3fbd43542785a2a,,,,,,,,,,,,,,,,,,,,,,,,,,,,,,,,,,,,,,,,,,,,,,,,,,,,,,,,,,,0,0,0,0,1,,,,,
,613aa96038862e4f29605ade,001,2022-04-28_20h07.05.120,classification_task,2021.2.3,Win32,60.53635208,613aa96038862e4f29605ade,626b377229c10585ec392f89,626b3a1fe3fbd43542785a2a,,,,,,,,,,,,,,,,,,,,,,,,,,,,,,,,,,,,,,,,,,,,,,,,,,,,,,,,,,,,,,,,,space,12.2348,1081.6218,
,613aa96038862e4f29605ade,001,2022-04-28_20h07.05.120,classification_task,2021.2.3,Win32,60.53635208,613aa96038862e4f29605ade,626b377229c10585ec392f89,626b3a1fe3fbd43542785a2a,,,,,,,,,,,,,,,,,,,,,,,,,,,,,,,,,,,,,,,,,,,,,,,,,,,,,,,,,,,,,,,,,,,,"Mozilla/5.0 (Windows NT 10.0; Win64; x64) AppleWebKit/537.36 (KHTML, like Gecko) Chrome/100.0.4896.127 Safari/537.36"
