usingWebGL,participant,session,date,expName,psychopyVersion,OS,frameRate,PROLIFIC_PID,STUDY_ID,SESSION_ID,signatures_friend,signatures_foe,band_ranges_top,band_ranges_bottom,formitemText,formtype,formundefined,formitemWidth,formindex,formresponse,formrt,key_resp_2.keys,key_resp_2.rt,tute_resp.keys,tute_resp.rt,tutorial.thisRepN,tutorial.thisTrialN,tutorial.thisN,tutorial.thisIndex,tutorial.ran,key_resp_4.keys,key_resp_4.rt,key_resp.keys,key_resp.corr,key_resp.rt,lines_presented,is_signal_presented,trials.thisRepN,trials.thisTrialN,trials.thisN,trials.thisIndex,trials.ran,vessel,active_band,lines,is_signal,supported_pos,catch_trial,debrief_formindex,debrief_formitemText,debrief_formtype,debrief_formitemWidth,debrief_formresponse,debrief_formrt,phases.thisRepN,phases.thisTrialN,phases.thisN,phases.thisIndex,phases.ran,phases.order,phase,key_resp_3.keys,trustitemText,trusttype,trustitemWidth,trustindex,trustresponse,trustrt,support_status.thisRepN,support_status.thisTrialN,support_status.thisN,support_status.thisIndex,support_status.ran,support_status.order,key_resp_5.keys,key_resp_5.rt,globalClockTime,userAgent
TRUE,613a9833c9a297f3ac00743f,001,2022-04-28_20h38.45.243,classification_task,2021.2.3,MacIntel,59.93407252,613a9833c9a297f3ac00743f,626b377229c10585ec392f8a,626b3b477fd5610a2c41f186,,,,,,,,,,,,,,,,,,,,,,,,,,,,,,,,,,,,,,,,,,,,,,,,,,,,,,,,,,,,,,,,,,,,
,613a9833c9a297f3ac00743f,001,2022-04-28_20h38.45.243,classification_task,2021.2.3,MacIntel,59.93407252,613a9833c9a297f3ac00743f,626b377229c10585ec392f8a,626b3b477fd5610a2c41f186,"[[""0.184"",""0.398"",""0.845"",""0.897""],[""0.218"",""0.547"",""0.935"",""0.973""]]","[[""0.120"",""0.263"",""0.437"",""0.708""],[""0.079"",""0.329"",""0.497"",""0.771""]]","[1,10]","[100,1000]",Video game experience,,,0.7,0,,,,,,,,,,,,,,,,,,,,,,,,,,,,,,,,,,,,,,,,,,,,,,,,,,,,,,,,,,,
,613a9833c9a297f3ac00743f,001,2022-04-28_20h38.45.243,classification_task,2021.2.3,MacIntel,59.93407252,613a9833c9a297f3ac00743f,626b377229c10585ec392f8a,626b3b477fd5610a2c41f186,,,,,Approximately how many hours did you spend playing video games in the last week?,,,0.7,0,3,,,,,,,,,,,,,,,,,,,,,,,,,,,,,,,,,,,,,,,,,,,,,,,,,,,,,,,,,,
,613a9833c9a297f3ac00743f,001,2022-04-28_20h38.45.243,classification_task,2021.2.3,MacIntel,59.93407252,613a9833c9a297f3ac00743f,626b377229c10585ec392f8a,626b3b477fd5610a2c41f186,,,,,"Which game did you play the most this year? (Enter ""None"" if you didn't play any)",,,0.7,0,Bioshock,,,,,,,,,,,,,,,,,,,,,,,,,,,,,,,,,,,,,,,,,,,,,,,,,,,,,,,,,,
,613a9833c9a297f3ac00743f,001,2022-04-28_20h38.45.243,classification_task,2021.2.3,MacIntel,59.93407252,613a9833c9a297f3ac00743f,626b377229c10585ec392f8a,626b3b477fd5610a2c41f186,,,,,Visual perception,,,0.7,0,,,,,,,,,,,,,,,,,,,,,,,,,,,,,,,,,,,,,,,,,,,,,,,,,,,,,,,,,,,
,613a9833c9a297f3ac00743f,001,2022-04-28_20h38.45.243,classification_task,2021.2.3,MacIntel,59.93407252,613a9833c9a297f3ac00743f,626b377229c10585ec392f8a,626b3b477fd5610a2c41f186,,,,,Do you have any form of color blindness?,,,0.7,0,No,15.0182,,,,,,,,,,,,,,,,,,,,,,,,,,,,,,,,,,,,,,,,,,,,,,,,,,,,,,,,,
,613a9833c9a297f3ac00743f,001,2022-04-28_20h38.45.243,classification_task,2021.2.3,MacIntel,59.93407252,613a9833c9a297f3ac00743f,626b377229c10585ec392f8a,626b3b477fd5610a2c41f186,,,,,Do you use software to change the colour temperature of your screen (e.g. f.lux)?,,,0.7,0,No,15.6837,,,,,,,,,,,,,,,,,,,,,,,,,,,,,,,,,,,,,,,,,,,,,,,,,,,,,,,,,
,613a9833c9a297f3ac00743f,001,2022-04-28_20h38.45.243,classification_task,2021.2.3,MacIntel,59.93407252,613a9833c9a297f3ac00743f,626b377229c10585ec392f8a,626b3b477fd5610a2c41f186,,,,,,,,,,,,space,1.6301,space,17.1655,0,0,0,0,1,,,,,,,,,,,,,,,,,,,,,,,,,,,,,,,,,,,,,,,,,,,,,,,,
,613a9833c9a297f3ac00743f,001,2022-04-28_20h38.45.243,classification_task,2021.2.3,MacIntel,59.93407252,613a9833c9a297f3ac00743f,626b377229c10585ec392f8a,626b3b477fd5610a2c41f186,,,,,,,,,,,,,,space,30.2197,1,0,1,0,1,,,,,,,,,,,,,,,,,,,,,,,,,,,,,,,,,,,,,,,,,,,,,,,,
,613a9833c9a297f3ac00743f,001,2022-04-28_20h38.45.243,classification_task,2021.2.3,MacIntel,59.93407252,613a9833c9a297f3ac00743f,626b377229c10585ec392f8a,626b3b477fd5610a2c41f186,,,,,,,,,,,,,,space,43.675,2,0,2,0,1,,,,,,,,,,,,,,,,,,,,,,,,,,,,,,,,,,,,,,,,,,,,,,,,
,613a9833c9a297f3ac00743f,001,2022-04-28_20h38.45.243,classification_task,2021.2.3,MacIntel,59.93407252,613a9833c9a297f3ac00743f,626b377229c10585ec392f8a,626b3b477fd5610a2c41f186,,,,,,,,,,,,,,space,4.8738,3,0,3,0,1,,,,,,,,,,,,,,,,,,,,,,,,,,,,,,,,,,,,,,,,,,,,,,,,
,613a9833c9a297f3ac00743f,001,2022-04-28_20h38.45.243,classification_task,2021.2.3,MacIntel,59.93407252,613a9833c9a297f3ac00743f,626b377229c10585ec392f8a,626b3b477fd5610a2c41f186,,,,,,,,,,,,,,space,3.3623,4,0,4,0,1,,,,,,,,,,,,,,,,,,,,,,,,,,,,,,,,,,,,,,,,,,,,,,,,
,613a9833c9a297f3ac00743f,001,2022-04-28_20h38.45.243,classification_task,2021.2.3,MacIntel,59.93407252,613a9833c9a297f3ac00743f,626b377229c10585ec392f8a,626b3b477fd5610a2c41f186,,,,,,,,,,,,,,,,,,,,,space,1.1736,l,0,0.9245,"[""0.643"",""0.547"",""0.935"",""0.973""]","[0,1,1,1]",0,0,0,0,1,0,1,,,0,FALSE,,,,,,,,,,,,,,,,,,,,,,,,,,,,,,
,613a9833c9a297f3ac00743f,001,2022-04-28_20h38.45.243,classification_task,2021.2.3,MacIntel,59.93407252,613a9833c9a297f3ac00743f,626b377229c10585ec392f8a,626b3b477fd5610a2c41f186,,,,,,,,,,,,,,,,,,,,,,,,0,,"[""0.184"",""0.398"",""0.027"",""0.897""]","[1,1,0,1]",0,1,1,1,1,0,0,,,0,FALSE,,,,,,,,,,,,,,,,,,,,,,,,,,,,,,
,613a9833c9a297f3ac00743f,001,2022-04-28_20h38.45.243,classification_task,2021.2.3,MacIntel,59.93407252,613a9833c9a297f3ac00743f,626b377229c10585ec392f8a,626b3b477fd5610a2c41f186,,,,,,,,,,,,,,,,,,,,,,,a,1,4.5043,"[""0.037"",""0.398"",""0.845"",""0.897""]","[0,1,1,1]",0,2,2,2,1,0,0,,,0,FALSE,,,,,,,,,,,,,,,,,,,,,,,,,,,,,,
,613a9833c9a297f3ac00743f,001,2022-04-28_20h38.45.243,classification_task,2021.2.3,MacIntel,59.93407252,613a9833c9a297f3ac00743f,626b377229c10585ec392f8a,626b3b477fd5610a2c41f186,,,,,,,,,,,,,,,,,,,,,,,l,0,3.3426,"[""0.218"",""0.547"",""0.935"",""0.810""]","[1,1,1,0]",0,3,3,3,1,0,1,,,0,FALSE,,,,,,,,,,,,,,,,,,,,,,,,,,,,,,
,613a9833c9a297f3ac00743f,001,2022-04-28_20h38.45.243,classification_task,2021.2.3,MacIntel,59.93407252,613a9833c9a297f3ac00743f,626b377229c10585ec392f8a,626b3b477fd5610a2c41f186,,,,,,,,,,,,,,,,,,,,,,,l,1,1.847,"[""0.079"",""0.666"",""0.497"",""0.771""]","[1,0,1,1]",0,4,4,4,1,1,1,,,0,FALSE,,,,,,,,,,,,,,,,,,,,,,,,,,,,,,
,613a9833c9a297f3ac00743f,001,2022-04-28_20h38.45.243,classification_task,2021.2.3,MacIntel,59.93407252,613a9833c9a297f3ac00743f,626b377229c10585ec392f8a,626b3b477fd5610a2c41f186,,,,,,,,,,,,,,,,,,,,,,,l,1,4.4793,"[""0.120"",""0.635"",""0.437"",""0.708""]","[1,0,1,1]",0,5,5,5,1,1,0,,,0,FALSE,,,,,,,,,,,,,,,,,,,,,,,,,,,,,,
,613a9833c9a297f3ac00743f,001,2022-04-28_20h38.45.243,classification_task,2021.2.3,MacIntel,59.93407252,613a9833c9a297f3ac00743f,626b377229c10585ec392f8a,626b3b477fd5610a2c41f186,,,,,,,,,,,,,,,,,,,,,,,l,1,2.0761,"[""0.079"",""0.329"",""0.497"",""0.027""]","[1,1,1,0]",0,6,6,6,1,1,1,,,0,FALSE,,,,,,,,,,,,,,,,,,,,,,,,,,,,,,
,613a9833c9a297f3ac00743f,001,2022-04-28_20h38.45.243,classification_task,2021.2.3,MacIntel,59.93407252,613a9833c9a297f3ac00743f,626b377229c10585ec392f8a,626b3b477fd5610a2c41f186,,,,,,,,,,,,,,,,,,,,,,,,0,,"[""0.184"",""0.044"",""0.845"",""0.897""]","[1,0,1,1]",0,7,7,7,1,0,0,,,0,FALSE,,,,,,,,,,,,,,,,,,,,,,,,,,,,,,
,613a9833c9a297f3ac00743f,001,2022-04-28_20h38.45.243,classification_task,2021.2.3,MacIntel,59.93407252,613a9833c9a297f3ac00743f,626b377229c10585ec392f8a,626b3b477fd5610a2c41f186,,,,,,,,,,,,,,,,,,,,,,,l,1,1.9283,"[""0.120"",""0.263"",""0.669"",""0.708""]","[1,1,0,1]",0,8,8,8,1,1,0,,,0,FALSE,,,,,,,,,,,,,,,,,,,,,,,,,,,,,,
,613a9833c9a297f3ac00743f,001,2022-04-28_20h38.45.243,classification_task,2021.2.3,MacIntel,59.93407252,613a9833c9a297f3ac00743f,626b377229c10585ec392f8a,626b3b477fd5610a2c41f186,,,,,,,,,,,,,,,,,,,,,,,l,1,4.564,"[""0.643"",""0.263"",""0.437"",""0.708""]","[0,1,1,1]",0,9,9,9,1,1,0,,,0,FALSE,,,,,,,,,,,,,,,,,,,,,,,,,,,,,,
,613a9833c9a297f3ac00743f,001,2022-04-28_20h38.45.243,classification_task,2021.2.3,MacIntel,59.93407252,613a9833c9a297f3ac00743f,626b377229c10585ec392f8a,626b3b477fd5610a2c41f186,,,,,,,,,,,,,,,,,,,,,,,a,1,1.1111,"[""0.184"",""0.398"",""0.845"",""0.044""]","[1,1,1,0]",0,10,10,10,1,0,0,,,0,FALSE,,,,,,,,,,,,,,,,,,,,,,,,,,,,,,
,613a9833c9a297f3ac00743f,001,2022-04-28_20h38.45.243,classification_task,2021.2.3,MacIntel,59.93407252,613a9833c9a297f3ac00743f,626b377229c10585ec392f8a,626b3b477fd5610a2c41f186,,,,,,,,,,,,,,,,,,,,,,,l,1,1.3741,"[""0.806"",""0.329"",""0.497"",""0.771""]","[0,1,1,1]",0,11,11,11,1,1,1,,,0,FALSE,,,,,,,,,,,,,,,,,,,,,,,,,,,,,,
,613a9833c9a297f3ac00743f,001,2022-04-28_20h38.45.243,classification_task,2021.2.3,MacIntel,59.93407252,613a9833c9a297f3ac00743f,626b377229c10585ec392f8a,626b3b477fd5610a2c41f186,,,,,,,,,,,,,,,,,,,,,,,a,1,1.173,"[""0.218"",""0.547"",""0.669"",""0.973""]","[1,1,0,1]",0,12,12,12,1,0,1,,,0,FALSE,,,,,,,,,,,,,,,,,,,,,,,,,,,,,,
,613a9833c9a297f3ac00743f,001,2022-04-28_20h38.45.243,classification_task,2021.2.3,MacIntel,59.93407252,613a9833c9a297f3ac00743f,626b377229c10585ec392f8a,626b3b477fd5610a2c41f186,,,,,,,,,,,,,,,,,,,,,,,l,0,1.502,"[""0.218"",""0.639"",""0.935"",""0.973""]","[1,0,1,1]",0,13,13,13,1,0,1,,,0,FALSE,,,,,,,,,,,,,,,,,,,,,,,,,,,,,,
,613a9833c9a297f3ac00743f,001,2022-04-28_20h38.45.243,classification_task,2021.2.3,MacIntel,59.93407252,613a9833c9a297f3ac00743f,626b377229c10585ec392f8a,626b3b477fd5610a2c41f186,,,,,,,,,,,,,,,,,,,,,,,l,1,1.1385,"[""0.079"",""0.329"",""0.635"",""0.771""]","[1,1,0,1]",0,14,14,14,1,1,1,,,0,FALSE,,,,,,,,,,,,,,,,,,,,,,,,,,,,,,
,613a9833c9a297f3ac00743f,001,2022-04-28_20h38.45.243,classification_task,2021.2.3,MacIntel,59.93407252,613a9833c9a297f3ac00743f,626b377229c10585ec392f8a,626b3b477fd5610a2c41f186,,,,,,,,,,,,,,,,,,,,,,,l,1,1.2835,"[""0.120"",""0.263"",""0.437"",""0.027""]","[1,1,1,0]",0,15,15,15,1,1,0,,,0,FALSE,,,,,,,,,,,,,,,,,,,,,,,,,,,,,,
,613a9833c9a297f3ac00743f,001,2022-04-28_20h38.45.243,classification_task,2021.2.3,MacIntel,59.93407252,613a9833c9a297f3ac00743f,626b377229c10585ec392f8a,626b3b477fd5610a2c41f186,,,,,,,,,,,,,,,,,,,,,,,a,1,1.7592,"[""0.218"",""0.547"",""0.935"",""0.643""]","[1,1,1,0]",0,16,16,16,1,0,1,,,0,FALSE,,,,,,,,,,,,,,,,,,,,,,,,,,,,,,
,613a9833c9a297f3ac00743f,001,2022-04-28_20h38.45.243,classification_task,2021.2.3,MacIntel,59.93407252,613a9833c9a297f3ac00743f,626b377229c10585ec392f8a,626b3b477fd5610a2c41f186,,,,,,,,,,,,,,,,,,,,,,,a,1,2.1758,"[""0.184"",""0.398"",""0.806"",""0.897""]","[1,1,0,1]",0,17,17,17,1,0,0,,,0,FALSE,,,,,,,,,,,,,,,,,,,,,,,,,,,,,,
,613a9833c9a297f3ac00743f,001,2022-04-28_20h38.45.243,classification_task,2021.2.3,MacIntel,59.93407252,613a9833c9a297f3ac00743f,626b377229c10585ec392f8a,626b3b477fd5610a2c41f186,,,,,,,,,,,,,,,,,,,,,,,l,0,1.2414,"[""0.635"",""0.547"",""0.935"",""0.973""]","[0,1,1,1]",0,18,18,18,1,0,1,,,0,FALSE,,,,,,,,,,,,,,,,,,,,,,,,,,,,,,
,613a9833c9a297f3ac00743f,001,2022-04-28_20h38.45.243,classification_task,2021.2.3,MacIntel,59.93407252,613a9833c9a297f3ac00743f,626b377229c10585ec392f8a,626b3b477fd5610a2c41f186,,,,,,,,,,,,,,,,,,,,,,,l,1,1.9197,"[""0.079"",""0.329"",""0.497"",""0.671""]","[1,1,1,0]",0,19,19,19,1,1,1,,,0,FALSE,,,,,,,,,,,,,,,,,,,,,,,,,,,,,,
,613a9833c9a297f3ac00743f,001,2022-04-28_20h38.45.243,classification_task,2021.2.3,MacIntel,59.93407252,613a9833c9a297f3ac00743f,626b377229c10585ec392f8a,626b3b477fd5610a2c41f186,,,,,,,,,,,,,,,,,,,,,,,l,1,1.2748,"[""0.120"",""0.263"",""0.044"",""0.708""]","[1,1,0,1]",0,20,20,20,1,1,0,,,0,FALSE,,,,,,,,,,,,,,,,,,,,,,,,,,,,,,
,613a9833c9a297f3ac00743f,001,2022-04-28_20h38.45.243,classification_task,2021.2.3,MacIntel,59.93407252,613a9833c9a297f3ac00743f,626b377229c10585ec392f8a,626b3b477fd5610a2c41f186,,,,,,,,,,,,,,,,,,,,,,,l,1,1.5338,"[""0.079"",""0.810"",""0.497"",""0.771""]","[1,0,1,1]",0,21,21,21,1,1,1,,,0,FALSE,,,,,,,,,,,,,,,,,,,,,,,,,,,,,,
,613a9833c9a297f3ac00743f,001,2022-04-28_20h38.45.243,classification_task,2021.2.3,MacIntel,59.93407252,613a9833c9a297f3ac00743f,626b377229c10585ec392f8a,626b3b477fd5610a2c41f186,,,,,,,,,,,,,,,,,,,,,,,l,1,2.2127,"[""0.079"",""0.329"",""0.584"",""0.771""]","[1,1,0,1]",0,22,22,22,1,1,1,,,0,FALSE,,,,,,,,,,,,,,,,,,,,,,,,,,,,,,
,613a9833c9a297f3ac00743f,001,2022-04-28_20h38.45.243,classification_task,2021.2.3,MacIntel,59.93407252,613a9833c9a297f3ac00743f,626b377229c10585ec392f8a,626b3b477fd5610a2c41f186,,,,,,,,,,,,,,,,,,,,,,,l,1,1.5592,"[""0.120"",""0.263"",""0.437"",""0.037""]","[1,1,1,0]",0,23,23,23,1,1,0,,,0,FALSE,,,,,,,,,,,,,,,,,,,,,,,,,,,,,,
,613a9833c9a297f3ac00743f,001,2022-04-28_20h38.45.243,classification_task,2021.2.3,MacIntel,59.93407252,613a9833c9a297f3ac00743f,626b377229c10585ec392f8a,626b3b477fd5610a2c41f186,,,,,,,,,,,,,,,,,,,,,,,a,1,1.9029,"[""0.218"",""0.635"",""0.935"",""0.973""]","[1,0,1,1]",0,24,24,24,1,0,1,,,0,FALSE,,,,,,,,,,,,,,,,,,,,,,,,,,,,,,
,613a9833c9a297f3ac00743f,001,2022-04-28_20h38.45.243,classification_task,2021.2.3,MacIntel,59.93407252,613a9833c9a297f3ac00743f,626b377229c10585ec392f8a,626b3b477fd5610a2c41f186,,,,,,,,,,,,,,,,,,,,,,,a,1,2.3176,"[""0.184"",""0.806"",""0.845"",""0.897""]","[1,0,1,1]",0,25,25,25,1,0,0,,,0,FALSE,,,,,,,,,,,,,,,,,,,,,,,,,,,,,,
,613a9833c9a297f3ac00743f,001,2022-04-28_20h38.45.243,classification_task,2021.2.3,MacIntel,59.93407252,613a9833c9a297f3ac00743f,626b377229c10585ec392f8a,626b3b477fd5610a2c41f186,,,,,,,,,,,,,,,,,,,,,,,a,1,1.9962,"[""0.184"",""0.398"",""0.845"",""0.027""]","[1,1,1,0]",0,26,26,26,1,0,0,,,0,FALSE,,,,,,,,,,,,,,,,,,,,,,,,,,,,,,
,613a9833c9a297f3ac00743f,001,2022-04-28_20h38.45.243,classification_task,2021.2.3,MacIntel,59.93407252,613a9833c9a297f3ac00743f,626b377229c10585ec392f8a,626b3b477fd5610a2c41f186,,,,,,,,,,,,,,,,,,,,,,,l,1,1.6172,"[""0.044"",""0.329"",""0.497"",""0.771""]","[0,1,1,1]",0,27,27,27,1,1,1,,,0,FALSE,,,,,,,,,,,,,,,,,,,,,,,,,,,,,,
,613a9833c9a297f3ac00743f,001,2022-04-28_20h38.45.243,classification_task,2021.2.3,MacIntel,59.93407252,613a9833c9a297f3ac00743f,626b377229c10585ec392f8a,626b3b477fd5610a2c41f186,,,,,,,,,,,,,,,,,,,,,,,a,1,3.5921,"[""0.044"",""0.398"",""0.845"",""0.897""]","[0,1,1,1]",0,28,28,28,1,0,0,,,0,FALSE,,,,,,,,,,,,,,,,,,,,,,,,,,,,,,
,613a9833c9a297f3ac00743f,001,2022-04-28_20h38.45.243,classification_task,2021.2.3,MacIntel,59.93407252,613a9833c9a297f3ac00743f,626b377229c10585ec392f8a,626b3b477fd5610a2c41f186,,,,,,,,,,,,,,,,,,,,,,,l,1,2.9974,"[""0.643"",""0.263"",""0.437"",""0.708""]","[0,1,1,1]",0,29,29,29,1,1,0,,,0,FALSE,,,,,,,,,,,,,,,,,,,,,,,,,,,,,,
,613a9833c9a297f3ac00743f,001,2022-04-28_20h38.45.243,classification_task,2021.2.3,MacIntel,59.93407252,613a9833c9a297f3ac00743f,626b377229c10585ec392f8a,626b3b477fd5610a2c41f186,,,,,,,,,,,,,,,,,,,,,,,l,0,2.2429,"[""0.218"",""0.547"",""0.584"",""0.973""]","[1,1,0,1]",0,30,30,30,1,0,1,,,0,FALSE,,,,,,,,,,,,,,,,,,,,,,,,,,,,,,
,613a9833c9a297f3ac00743f,001,2022-04-28_20h38.45.243,classification_task,2021.2.3,MacIntel,59.93407252,613a9833c9a297f3ac00743f,626b377229c10585ec392f8a,626b3b477fd5610a2c41f186,,,,,,,,,,,,,,,,,,,,,,,l,1,1.3163,"[""0.120"",""0.584"",""0.437"",""0.708""]","[1,0,1,1]",0,31,31,31,1,1,0,,,0,FALSE,,,,,,,,,,,,,,,,,,,,,,,,,,,,,,
,613a9833c9a297f3ac00743f,001,2022-04-28_20h38.45.243,classification_task,2021.2.3,MacIntel,59.93407252,613a9833c9a297f3ac00743f,626b377229c10585ec392f8a,626b3b477fd5610a2c41f186,,,,,,,,,,,,,,,,,,,,,,,l,1,1.2794,"[""0.806"",""0.329"",""0.497"",""0.771""]","[0,1,1,1]",0,32,32,32,1,1,1,,,0,FALSE,,,,,,,,,,,,,,,,,,,,,,,,,,,,,,
,613a9833c9a297f3ac00743f,001,2022-04-28_20h38.45.243,classification_task,2021.2.3,MacIntel,59.93407252,613a9833c9a297f3ac00743f,626b377229c10585ec392f8a,626b3b477fd5610a2c41f186,,,,,,,,,,,,,,,,,,,,,,,a,1,1.6184,"[""0.184"",""0.810"",""0.845"",""0.897""]","[1,0,1,1]",0,33,33,33,1,0,0,,,0,FALSE,,,,,,,,,,,,,,,,,,,,,,,,,,,,,,
,613a9833c9a297f3ac00743f,001,2022-04-28_20h38.45.243,classification_task,2021.2.3,MacIntel,59.93407252,613a9833c9a297f3ac00743f,626b377229c10585ec392f8a,626b3b477fd5610a2c41f186,,,,,,,,,,,,,,,,,,,,,,,l,1,2.5865,"[""0.079"",""0.643"",""0.497"",""0.771""]","[1,0,1,1]",0,34,34,34,1,1,1,,,0,FALSE,,,,,,,,,,,,,,,,,,,,,,,,,,,,,,
,613a9833c9a297f3ac00743f,001,2022-04-28_20h38.45.243,classification_task,2021.2.3,MacIntel,59.93407252,613a9833c9a297f3ac00743f,626b377229c10585ec392f8a,626b3b477fd5610a2c41f186,,,,,,,,,,,,,,,,,,,,,,,a,1,1.1848,"[""0.026"",""0.398"",""0.845"",""0.897""]","[0,1,1,1]",0,35,35,35,1,0,0,,,0,FALSE,,,,,,,,,,,,,,,,,,,,,,,,,,,,,,
,613a9833c9a297f3ac00743f,001,2022-04-28_20h38.45.243,classification_task,2021.2.3,MacIntel,59.93407252,613a9833c9a297f3ac00743f,626b377229c10585ec392f8a,626b3b477fd5610a2c41f186,,,,,,,,,,,,,,,,,,,,,,,l,1,2.9734,"[""0.079"",""0.329"",""0.497"",""0.643""]","[1,1,1,0]",0,36,36,36,1,1,1,,,0,FALSE,,,,,,,,,,,,,,,,,,,,,,,,,,,,,,
,613a9833c9a297f3ac00743f,001,2022-04-28_20h38.45.243,classification_task,2021.2.3,MacIntel,59.93407252,613a9833c9a297f3ac00743f,626b377229c10585ec392f8a,626b3b477fd5610a2c41f186,,,,,,,,,,,,,,,,,,,,,,,a,1,0.9934,"[""0.184"",""0.398"",""0.845"",""0.669""]","[1,1,1,0]",0,37,37,37,1,0,0,,,0,FALSE,,,,,,,,,,,,,,,,,,,,,,,,,,,,,,
,613a9833c9a297f3ac00743f,001,2022-04-28_20h38.45.243,classification_task,2021.2.3,MacIntel,59.93407252,613a9833c9a297f3ac00743f,626b377229c10585ec392f8a,626b3b477fd5610a2c41f186,,,,,,,,,,,,,,,,,,,,,,,l,0,1.7931,"[""0.218"",""0.547"",""0.935"",""0.671""]","[1,1,1,0]",0,38,38,38,1,0,1,,,0,FALSE,,,,,,,,,,,,,,,,,,,,,,,,,,,,,,
,613a9833c9a297f3ac00743f,001,2022-04-28_20h38.45.243,classification_task,2021.2.3,MacIntel,59.93407252,613a9833c9a297f3ac00743f,626b377229c10585ec392f8a,626b3b477fd5610a2c41f186,,,,,,,,,,,,,,,,,,,,,,,l,1,1.1522,"[""0.120"",""0.263"",""0.034"",""0.708""]","[1,1,0,1]",0,39,39,39,1,1,0,,,0,FALSE,,,,,,,,,,,,,,,,,,,,,,,,,,,,,,
,613a9833c9a297f3ac00743f,001,2022-04-28_20h38.45.243,classification_task,2021.2.3,MacIntel,59.93407252,613a9833c9a297f3ac00743f,626b377229c10585ec392f8a,626b3b477fd5610a2c41f186,,,,,,,,,,,,,,,,,,,,,,,a,1,2.1879,"[""0.218"",""0.547"",""0.643"",""0.973""]","[1,1,0,1]",0,40,40,40,1,0,1,,,0,FALSE,,,,,,,,,,,,,,,,,,,,,,,,,,,,,,
,613a9833c9a297f3ac00743f,001,2022-04-28_20h38.45.243,classification_task,2021.2.3,MacIntel,59.93407252,613a9833c9a297f3ac00743f,626b377229c10585ec392f8a,626b3b477fd5610a2c41f186,,,,,,,,,,,,,,,,,,,,,,,l,1,1.0276,"[""0.079"",""0.329"",""0.635"",""0.771""]","[1,1,0,1]",0,41,41,41,1,1,1,,,0,FALSE,,,,,,,,,,,,,,,,,,,,,,,,,,,,,,
,613a9833c9a297f3ac00743f,001,2022-04-28_20h38.45.243,classification_task,2021.2.3,MacIntel,59.93407252,613a9833c9a297f3ac00743f,626b377229c10585ec392f8a,626b3b477fd5610a2c41f186,,,,,,,,,,,,,,,,,,,,,,,l,1,1.0735,"[""0.639"",""0.263"",""0.437"",""0.708""]","[0,1,1,1]",0,42,42,42,1,1,0,,,0,FALSE,,,,,,,,,,,,,,,,,,,,,,,,,,,,,,
,613a9833c9a297f3ac00743f,001,2022-04-28_20h38.45.243,classification_task,2021.2.3,MacIntel,59.93407252,613a9833c9a297f3ac00743f,626b377229c10585ec392f8a,626b3b477fd5610a2c41f186,,,,,,,,,,,,,,,,,,,,,,,a,1,1.4187,"[""0.218"",""0.635"",""0.935"",""0.973""]","[1,0,1,1]",0,43,43,43,1,0,1,,,0,FALSE,,,,,,,,,,,,,,,,,,,,,,,,,,,,,,
,613a9833c9a297f3ac00743f,001,2022-04-28_20h38.45.243,classification_task,2021.2.3,MacIntel,59.93407252,613a9833c9a297f3ac00743f,626b377229c10585ec392f8a,626b3b477fd5610a2c41f186,,,,,,,,,,,,,,,,,,,,,,,l,1,1.6184,"[""0.120"",""0.263"",""0.437"",""0.643""]","[1,1,1,0]",0,44,44,44,1,1,0,,,0,FALSE,,,,,,,,,,,,,,,,,,,,,,,,,,,,,,
,613a9833c9a297f3ac00743f,001,2022-04-28_20h38.45.243,classification_task,2021.2.3,MacIntel,59.93407252,613a9833c9a297f3ac00743f,626b377229c10585ec392f8a,626b3b477fd5610a2c41f186,,,,,,,,,,,,,,,,,,,,,,,l,1,1.953,"[""0.120"",""0.635"",""0.437"",""0.708""]","[1,0,1,1]",0,45,45,45,1,1,0,,,0,FALSE,,,,,,,,,,,,,,,,,,,,,,,,,,,,,,
,613a9833c9a297f3ac00743f,001,2022-04-28_20h38.45.243,classification_task,2021.2.3,MacIntel,59.93407252,613a9833c9a297f3ac00743f,626b377229c10585ec392f8a,626b3b477fd5610a2c41f186,,,,,,,,,,,,,,,,,,,,,,,a,1,0.9849,"[""0.184"",""0.398"",""0.639"",""0.897""]","[1,1,0,1]",0,46,46,46,1,0,0,,,0,FALSE,,,,,,,,,,,,,,,,,,,,,,,,,,,,,,
,613a9833c9a297f3ac00743f,001,2022-04-28_20h38.45.243,classification_task,2021.2.3,MacIntel,59.93407252,613a9833c9a297f3ac00743f,626b377229c10585ec392f8a,626b3b477fd5610a2c41f186,,,,,,,,,,,,,,,,,,,,,,,l,0,1.3849,"[""0.671"",""0.547"",""0.935"",""0.973""]","[0,1,1,1]",0,47,47,47,1,0,1,,,0,FALSE,,,,,,,,,,,,,,,,,,,,,,,,,,,,,,
,613a9833c9a297f3ac00743f,001,2022-04-28_20h38.45.243,classification_task,2021.2.3,MacIntel,59.93407252,613a9833c9a297f3ac00743f,626b377229c10585ec392f8a,626b3b477fd5610a2c41f186,,,,,,,,,,,,,,,,,,,,,,,a,0,1.8189,"[""0.806"",""0.329"",""0.497"",""0.771""]","[0,1,1,1]",0,48,48,48,1,1,1,,,0,FALSE,,,,,,,,,,,,,,,,,,,,,,,,,,,,,,
,613a9833c9a297f3ac00743f,001,2022-04-28_20h38.45.243,classification_task,2021.2.3,MacIntel,59.93407252,613a9833c9a297f3ac00743f,626b377229c10585ec392f8a,626b3b477fd5610a2c41f186,,,,,,,,,,,,,,,,,,,,,,,a,1,1.1472,"[""0.218"",""0.547"",""0.643"",""0.973""]","[1,1,0,1]",0,49,49,49,1,0,1,,,0,FALSE,,,,,,,,,,,,,,,,,,,,,,,,,,,,,,
,613a9833c9a297f3ac00743f,001,2022-04-28_20h38.45.243,classification_task,2021.2.3,MacIntel,59.93407252,613a9833c9a297f3ac00743f,626b377229c10585ec392f8a,626b3b477fd5610a2c41f186,,,,,,,,,,,,,,,,,,,,,,,a,1,0.9193,"[""0.184"",""0.398"",""0.643"",""0.897""]","[1,1,0,1]",0,50,50,50,1,0,0,,,0,FALSE,,,,,,,,,,,,,,,,,,,,,,,,,,,,,,
,613a9833c9a297f3ac00743f,001,2022-04-28_20h38.45.243,classification_task,2021.2.3,MacIntel,59.93407252,613a9833c9a297f3ac00743f,626b377229c10585ec392f8a,626b3b477fd5610a2c41f186,,,,,,,,,,,,,,,,,,,,,,,a,0,0.901,"[""0.079"",""0.329"",""0.027"",""0.771""]","[1,1,0,1]",0,51,51,51,1,1,1,,,0,FALSE,,,,,,,,,,,,,,,,,,,,,,,,,,,,,,
,613a9833c9a297f3ac00743f,001,2022-04-28_20h38.45.243,classification_task,2021.2.3,MacIntel,59.93407252,613a9833c9a297f3ac00743f,626b377229c10585ec392f8a,626b3b477fd5610a2c41f186,,,,,,,,,,,,,,,,,,,,,,,l,0,1.3283,"[""0.218"",""0.043"",""0.935"",""0.973""]","[1,0,1,1]",0,52,52,52,1,0,1,,,0,FALSE,,,,,,,,,,,,,,,,,,,,,,,,,,,,,,
,613a9833c9a297f3ac00743f,001,2022-04-28_20h38.45.243,classification_task,2021.2.3,MacIntel,59.93407252,613a9833c9a297f3ac00743f,626b377229c10585ec392f8a,626b3b477fd5610a2c41f186,,,,,,,,,,,,,,,,,,,,,,,a,1,0.8847,"[""0.043"",""0.398"",""0.845"",""0.897""]","[0,1,1,1]",0,53,53,53,1,0,0,,,0,FALSE,,,,,,,,,,,,,,,,,,,,,,,,,,,,,,
,613a9833c9a297f3ac00743f,001,2022-04-28_20h38.45.243,classification_task,2021.2.3,MacIntel,59.93407252,613a9833c9a297f3ac00743f,626b377229c10585ec392f8a,626b3b477fd5610a2c41f186,,,,,,,,,,,,,,,,,,,,,,,l,1,1.0058,"[""0.120"",""0.263"",""0.437"",""0.043""]","[1,1,1,0]",0,54,54,54,1,1,0,,,0,FALSE,,,,,,,,,,,,,,,,,,,,,,,,,,,,,,
,613a9833c9a297f3ac00743f,001,2022-04-28_20h38.45.243,classification_task,2021.2.3,MacIntel,59.93407252,613a9833c9a297f3ac00743f,626b377229c10585ec392f8a,626b3b477fd5610a2c41f186,,,,,,,,,,,,,,,,,,,,,,,a,1,0.9448,"[""0.184"",""0.398"",""0.845"",""0.806""]","[1,1,1,0]",0,55,55,55,1,0,0,,,0,FALSE,,,,,,,,,,,,,,,,,,,,,,,,,,,,,,
,613a9833c9a297f3ac00743f,001,2022-04-28_20h38.45.243,classification_task,2021.2.3,MacIntel,59.93407252,613a9833c9a297f3ac00743f,626b377229c10585ec392f8a,626b3b477fd5610a2c41f186,,,,,,,,,,,,,,,,,,,,,,,l,1,1.2759,"[""0.120"",""0.263"",""0.043"",""0.708""]","[1,1,0,1]",0,56,56,56,1,1,0,,,0,FALSE,,,,,,,,,,,,,,,,,,,,,,,,,,,,,,
,613a9833c9a297f3ac00743f,001,2022-04-28_20h38.45.243,classification_task,2021.2.3,MacIntel,59.93407252,613a9833c9a297f3ac00743f,626b377229c10585ec392f8a,626b3b477fd5610a2c41f186,,,,,,,,,,,,,,,,,,,,,,,a,1,1.2857,"[""0.184"",""0.043"",""0.845"",""0.897""]","[1,0,1,1]",0,57,57,57,1,0,0,,,0,FALSE,,,,,,,,,,,,,,,,,,,,,,,,,,,,,,
,613a9833c9a297f3ac00743f,001,2022-04-28_20h38.45.243,classification_task,2021.2.3,MacIntel,59.93407252,613a9833c9a297f3ac00743f,626b377229c10585ec392f8a,626b3b477fd5610a2c41f186,,,,,,,,,,,,,,,,,,,,,,,l,1,1.0869,"[""0.806"",""0.263"",""0.437"",""0.708""]","[0,1,1,1]",0,58,58,58,1,1,0,,,0,FALSE,,,,,,,,,,,,,,,,,,,,,,,,,,,,,,
,613a9833c9a297f3ac00743f,001,2022-04-28_20h38.45.243,classification_task,2021.2.3,MacIntel,59.93407252,613a9833c9a297f3ac00743f,626b377229c10585ec392f8a,626b3b477fd5610a2c41f186,,,,,,,,,,,,,,,,,,,,,,,a,1,1.8761,"[""0.218"",""0.547"",""0.935"",""0.027""]","[1,1,1,0]",0,59,59,59,1,0,1,,,0,FALSE,,,,,,,,,,,,,,,,,,,,,,,,,,,,,,
,613a9833c9a297f3ac00743f,001,2022-04-28_20h38.45.243,classification_task,2021.2.3,MacIntel,59.93407252,613a9833c9a297f3ac00743f,626b377229c10585ec392f8a,626b3b477fd5610a2c41f186,,,,,,,,,,,,,,,,,,,,,,,l,0,1.0775,"[""0.026"",""0.547"",""0.935"",""0.973""]","[0,1,1,1]",0,60,60,60,1,0,1,,,0,FALSE,,,,,,,,,,,,,,,,,,,,,,,,,,,,,,
,613a9833c9a297f3ac00743f,001,2022-04-28_20h38.45.243,classification_task,2021.2.3,MacIntel,59.93407252,613a9833c9a297f3ac00743f,626b377229c10585ec392f8a,626b3b477fd5610a2c41f186,,,,,,,,,,,,,,,,,,,,,,,l,1,1.7525,"[""0.079"",""0.806"",""0.497"",""0.771""]","[1,0,1,1]",0,61,61,61,1,1,1,,,0,FALSE,,,,,,,,,,,,,,,,,,,,,,,,,,,,,,
,613a9833c9a297f3ac00743f,001,2022-04-28_20h38.45.243,classification_task,2021.2.3,MacIntel,59.93407252,613a9833c9a297f3ac00743f,626b377229c10585ec392f8a,626b3b477fd5610a2c41f186,,,,,,,,,,,,,,,,,,,,,,,a,0,1.4754,"[""0.120"",""0.806"",""0.437"",""0.708""]","[1,0,1,1]",0,62,62,62,1,1,0,,,0,FALSE,,,,,,,,,,,,,,,,,,,,,,,,,,,,,,
,613a9833c9a297f3ac00743f,001,2022-04-28_20h38.45.243,classification_task,2021.2.3,MacIntel,59.93407252,613a9833c9a297f3ac00743f,626b377229c10585ec392f8a,626b3b477fd5610a2c41f186,,,,,,,,,,,,,,,,,,,,,,,a,0,1.7815,"[""0.079"",""0.329"",""0.497"",""0.635""]","[1,1,1,0]",0,63,63,63,1,1,1,,,0,FALSE,,,,,,,,,,,,,,,,,,,,,,,,,,,,,,
,613a9833c9a297f3ac00743f,001,2022-04-28_20h38.45.243,classification_task,2021.2.3,MacIntel,59.93407252,613a9833c9a297f3ac00743f,626b377229c10585ec392f8a,626b3b477fd5610a2c41f186,,,,,,,,,,,,,,,,,,,,,,,,,,,,,,,,,,,,,,,0, ,,0,6.998097014,321.0539,0,0,0,0,1,2,1,,,,,,,,,,,,,,,,,
,613a9833c9a297f3ac00743f,001,2022-04-28_20h38.45.243,classification_task,2021.2.3,MacIntel,59.93407252,613a9833c9a297f3ac00743f,626b377229c10585ec392f8a,626b3b477fd5610a2c41f186,,,,,,,,,,,,,,,,,,,,,,,,,,,,,,,,,,,,,,,1,  ,,0,8.33692344,326.678,0,0,0,0,1,2,1,,,,,,,,,,,,,,,,,
,613a9833c9a297f3ac00743f,001,2022-04-28_20h38.45.243,classification_task,2021.2.3,MacIntel,59.93407252,613a9833c9a297f3ac00743f,626b377229c10585ec392f8a,626b3b477fd5610a2c41f186,,,,,,,,,,,,,,,,,,,,,,,,,,,,,,,,,,,,,,,2,  ,,0,7.173487869,325.7096,0,0,0,0,1,2,1,,,,,,,,,,,,,,,,,
,613a9833c9a297f3ac00743f,001,2022-04-28_20h38.45.243,classification_task,2021.2.3,MacIntel,59.93407252,613a9833c9a297f3ac00743f,626b377229c10585ec392f8a,626b3b477fd5610a2c41f186,,,,,,,,,,,,,,,,,,,,,,,,,,,,,,,,,,,,,,,,,,,,,0,0,0,0,1,,1,,,,,,,,,,,,,,,,,
,613a9833c9a297f3ac00743f,001,2022-04-28_20h38.45.243,classification_task,2021.2.3,MacIntel,59.93407252,613a9833c9a297f3ac00743f,626b377229c10585ec392f8a,626b3b477fd5610a2c41f186,,,,,,,,,,,,,,,,,,,,,space,3.6693,a,1,1.1337,"[""0.184"",""0.398"",""0.845"",""0.027""]","[1,1,1,0]",0,0,0,0,1,0,0,,,0,FALSE,,,,,,,,,,,,,,,,,,,,,,,,,,,,,,
,613a9833c9a297f3ac00743f,001,2022-04-28_20h38.45.243,classification_task,2021.2.3,MacIntel,59.93407252,613a9833c9a297f3ac00743f,626b377229c10585ec392f8a,626b3b477fd5610a2c41f186,,,,,,,,,,,,,,,,,,,,,,,l,1,0.7225,"[""0.120"",""0.263"",""0.437"",""0.666""]","[1,1,1,0]",0,1,1,1,1,1,0,,,0,FALSE,,,,,,,,,,,,,,,,,,,,,,,,,,,,,,
,613a9833c9a297f3ac00743f,001,2022-04-28_20h38.45.243,classification_task,2021.2.3,MacIntel,59.93407252,613a9833c9a297f3ac00743f,626b377229c10585ec392f8a,626b3b477fd5610a2c41f186,,,,,,,,,,,,,,,,,,,,,,,l,0,1.1701,"[""0.643"",""0.547"",""0.935"",""0.973""]","[0,1,1,1]",0,2,2,2,1,0,1,,,0,FALSE,,,,,,,,,,,,,,,,,,,,,,,,,,,,,,
,613a9833c9a297f3ac00743f,001,2022-04-28_20h38.45.243,classification_task,2021.2.3,MacIntel,59.93407252,613a9833c9a297f3ac00743f,626b377229c10585ec392f8a,626b3b477fd5610a2c41f186,,,,,,,,,,,,,,,,,,,,,,,a,1,1.1228,"[""0.218"",""0.584"",""0.935"",""0.973""]","[1,0,1,1]",0,3,3,3,1,0,1,,,0,FALSE,,,,,,,,,,,,,,,,,,,,,,,,,,,,,,
,613a9833c9a297f3ac00743f,001,2022-04-28_20h38.45.243,classification_task,2021.2.3,MacIntel,59.93407252,613a9833c9a297f3ac00743f,626b377229c10585ec392f8a,626b3b477fd5610a2c41f186,,,,,,,,,,,,,,,,,,,,,,,a,1,0.4977,"[""0.184"",""0.398"",""0.669"",""0.897""]","[1,1,0,1]",0,4,4,4,1,0,0,,,0,FALSE,,,,,,,,,,,,,,,,,,,,,,,,,,,,,,
,613a9833c9a297f3ac00743f,001,2022-04-28_20h38.45.243,classification_task,2021.2.3,MacIntel,59.93407252,613a9833c9a297f3ac00743f,626b377229c10585ec392f8a,626b3b477fd5610a2c41f186,,,,,,,,,,,,,,,,,,,,,,,a,0,1.6516,"[""0.639"",""0.329"",""0.497"",""0.771""]","[0,1,1,1]",0,5,5,5,1,1,1,,,0,FALSE,,,,,,,,,,,,,,,,,,,,,,,,,,,,,,
,613a9833c9a297f3ac00743f,001,2022-04-28_20h38.45.243,classification_task,2021.2.3,MacIntel,59.93407252,613a9833c9a297f3ac00743f,626b377229c10585ec392f8a,626b3b477fd5610a2c41f186,,,,,,,,,,,,,,,,,,,,,,,a,1,1.4185,"[""0.218"",""0.547"",""0.666"",""0.973""]","[1,1,0,1]",0,6,6,6,1,0,1,,,0,FALSE,,,,,,,,,,,,,,,,,,,,,,,,,,,,,,
,613a9833c9a297f3ac00743f,001,2022-04-28_20h38.45.243,classification_task,2021.2.3,MacIntel,59.93407252,613a9833c9a297f3ac00743f,626b377229c10585ec392f8a,626b3b477fd5610a2c41f186,,,,,,,,,,,,,,,,,,,,,,,l,1,0.8206,"[""0.120"",""0.263"",""0.037"",""0.708""]","[1,1,0,1]",0,7,7,7,1,1,0,,,0,FALSE,,,,,,,,,,,,,,,,,,,,,,,,,,,,,,
,613a9833c9a297f3ac00743f,001,2022-04-28_20h38.45.243,classification_task,2021.2.3,MacIntel,59.93407252,613a9833c9a297f3ac00743f,626b377229c10585ec392f8a,626b3b477fd5610a2c41f186,,,,,,,,,,,,,,,,,,,,,,,l,1,1.1931,"[""0.079"",""0.329"",""0.497"",""0.026""]","[1,1,1,0]",0,8,8,8,1,1,1,,,0,FALSE,,,,,,,,,,,,,,,,,,,,,,,,,,,,,,
,613a9833c9a297f3ac00743f,001,2022-04-28_20h38.45.243,classification_task,2021.2.3,MacIntel,59.93407252,613a9833c9a297f3ac00743f,626b377229c10585ec392f8a,626b3b477fd5610a2c41f186,,,,,,,,,,,,,,,,,,,,,,,a,1,1.5685,"[""0.218"",""0.547"",""0.935"",""0.037""]","[1,1,1,0]",0,9,9,9,1,0,1,,,0,FALSE,,,,,,,,,,,,,,,,,,,,,,,,,,,,,,
,613a9833c9a297f3ac00743f,001,2022-04-28_20h38.45.243,classification_task,2021.2.3,MacIntel,59.93407252,613a9833c9a297f3ac00743f,626b377229c10585ec392f8a,626b3b477fd5610a2c41f186,,,,,,,,,,,,,,,,,,,,,,,l,1,0.749,"[""0.120"",""0.669"",""0.437"",""0.708""]","[1,0,1,1]",0,10,10,10,1,1,0,,,0,FALSE,,,,,,,,,,,,,,,,,,,,,,,,,,,,,,
,613a9833c9a297f3ac00743f,001,2022-04-28_20h38.45.243,classification_task,2021.2.3,MacIntel,59.93407252,613a9833c9a297f3ac00743f,626b377229c10585ec392f8a,626b3b477fd5610a2c41f186,,,,,,,,,,,,,,,,,,,,,,,a,0,1.2663,"[""0.079"",""0.329"",""0.806"",""0.771""]","[1,1,0,1]",0,11,11,11,1,1,1,,,0,FALSE,,,,,,,,,,,,,,,,,,,,,,,,,,,,,,
,613a9833c9a297f3ac00743f,001,2022-04-28_20h38.45.243,classification_task,2021.2.3,MacIntel,59.93407252,613a9833c9a297f3ac00743f,626b377229c10585ec392f8a,626b3b477fd5610a2c41f186,,,,,,,,,,,,,,,,,,,,,,,l,1,0.9234,"[""0.079"",""0.806"",""0.497"",""0.771""]","[1,0,1,1]",0,12,12,12,1,1,1,,,0,FALSE,,,,,,,,,,,,,,,,,,,,,,,,,,,,,,
,613a9833c9a297f3ac00743f,001,2022-04-28_20h38.45.243,classification_task,2021.2.3,MacIntel,59.93407252,613a9833c9a297f3ac00743f,626b377229c10585ec392f8a,626b3b477fd5610a2c41f186,,,,,,,,,,,,,,,,,,,,,,,a,1,0.5372,"[""0.639"",""0.398"",""0.845"",""0.897""]","[0,1,1,1]",0,13,13,13,1,0,0,,,0,FALSE,,,,,,,,,,,,,,,,,,,,,,,,,,,,,,
,613a9833c9a297f3ac00743f,001,2022-04-28_20h38.45.243,classification_task,2021.2.3,MacIntel,59.93407252,613a9833c9a297f3ac00743f,626b377229c10585ec392f8a,626b3b477fd5610a2c41f186,,,,,,,,,,,,,,,,,,,,,,,a,1,0.6671,"[""0.184"",""0.044"",""0.845"",""0.897""]","[1,0,1,1]",0,14,14,14,1,0,0,,,0,FALSE,,,,,,,,,,,,,,,,,,,,,,,,,,,,,,
,613a9833c9a297f3ac00743f,001,2022-04-28_20h38.45.243,classification_task,2021.2.3,MacIntel,59.93407252,613a9833c9a297f3ac00743f,626b377229c10585ec392f8a,626b3b477fd5610a2c41f186,,,,,,,,,,,,,,,,,,,,,,,l,1,0.684,"[""0.037"",""0.263"",""0.437"",""0.708""]","[0,1,1,1]",0,15,15,15,1,1,0,,,0,FALSE,,,,,,,,,,,,,,,,,,,,,,,,,,,,,,
,613a9833c9a297f3ac00743f,001,2022-04-28_20h38.45.243,classification_task,2021.2.3,MacIntel,59.93407252,613a9833c9a297f3ac00743f,626b377229c10585ec392f8a,626b3b477fd5610a2c41f186,,,,,,,,,,,,,,,,,,,,,,,l,1,0.9511,"[""0.120"",""0.026"",""0.437"",""0.708""]","[1,0,1,1]",0,16,16,16,1,1,0,,,0,FALSE,,,,,,,,,,,,,,,,,,,,,,,,,,,,,,
,613a9833c9a297f3ac00743f,001,2022-04-28_20h38.45.243,classification_task,2021.2.3,MacIntel,59.93407252,613a9833c9a297f3ac00743f,626b377229c10585ec392f8a,626b3b477fd5610a2c41f186,,,,,,,,,,,,,,,,,,,,,,,a,1,1.5997,"[""0.218"",""0.034"",""0.935"",""0.973""]","[1,0,1,1]",0,17,17,17,1,0,1,,,0,FALSE,,,,,,,,,,,,,,,,,,,,,,,,,,,,,,
,613a9833c9a297f3ac00743f,001,2022-04-28_20h38.45.243,classification_task,2021.2.3,MacIntel,59.93407252,613a9833c9a297f3ac00743f,626b377229c10585ec392f8a,626b3b477fd5610a2c41f186,,,,,,,,,,,,,,,,,,,,,,,l,1,0.5237,"[""0.120"",""0.263"",""0.437"",""0.027""]","[1,1,1,0]",0,18,18,18,1,1,0,,,0,FALSE,,,,,,,,,,,,,,,,,,,,,,,,,,,,,,
,613a9833c9a297f3ac00743f,001,2022-04-28_20h38.45.243,classification_task,2021.2.3,MacIntel,59.93407252,613a9833c9a297f3ac00743f,626b377229c10585ec392f8a,626b3b477fd5610a2c41f186,,,,,,,,,,,,,,,,,,,,,,,a,1,1.0926,"[""0.218"",""0.547"",""0.935"",""0.037""]","[1,1,1,0]",0,19,19,19,1,0,1,,,0,FALSE,,,,,,,,,,,,,,,,,,,,,,,,,,,,,,
,613a9833c9a297f3ac00743f,001,2022-04-28_20h38.45.243,classification_task,2021.2.3,MacIntel,59.93407252,613a9833c9a297f3ac00743f,626b377229c10585ec392f8a,626b3b477fd5610a2c41f186,,,,,,,,,,,,,,,,,,,,,,,l,1,0.656,"[""0.120"",""0.263"",""0.669"",""0.708""]","[1,1,0,1]",0,20,20,20,1,1,0,,,0,FALSE,,,,,,,,,,,,,,,,,,,,,,,,,,,,,,
,613a9833c9a297f3ac00743f,001,2022-04-28_20h38.45.243,classification_task,2021.2.3,MacIntel,59.93407252,613a9833c9a297f3ac00743f,626b377229c10585ec392f8a,626b3b477fd5610a2c41f186,,,,,,,,,,,,,,,,,,,,,,,a,1,1.0026,"[""0.043"",""0.398"",""0.845"",""0.897""]","[0,1,1,1]",0,21,21,21,1,0,0,,,0,FALSE,,,,,,,,,,,,,,,,,,,,,,,,,,,,,,
,613a9833c9a297f3ac00743f,001,2022-04-28_20h38.45.243,classification_task,2021.2.3,MacIntel,59.93407252,613a9833c9a297f3ac00743f,626b377229c10585ec392f8a,626b3b477fd5610a2c41f186,,,,,,,,,,,,,,,,,,,,,,,l,1,1.3335,"[""0.079"",""0.329"",""0.034"",""0.771""]","[1,1,0,1]",0,22,22,22,1,1,1,,,0,FALSE,,,,,,,,,,,,,,,,,,,,,,,,,,,,,,
,613a9833c9a297f3ac00743f,001,2022-04-28_20h38.45.243,classification_task,2021.2.3,MacIntel,59.93407252,613a9833c9a297f3ac00743f,626b377229c10585ec392f8a,626b3b477fd5610a2c41f186,,,,,,,,,,,,,,,,,,,,,,,l,1,1.0095,"[""0.666"",""0.329"",""0.497"",""0.771""]","[0,1,1,1]",0,23,23,23,1,1,1,,,0,FALSE,,,,,,,,,,,,,,,,,,,,,,,,,,,,,,
,613a9833c9a297f3ac00743f,001,2022-04-28_20h38.45.243,classification_task,2021.2.3,MacIntel,59.93407252,613a9833c9a297f3ac00743f,626b377229c10585ec392f8a,626b3b477fd5610a2c41f186,,,,,,,,,,,,,,,,,,,,,,,a,1,1.1512,"[""0.218"",""0.547"",""0.027"",""0.973""]","[1,1,0,1]",0,24,24,24,1,0,1,,,0,FALSE,,,,,,,,,,,,,,,,,,,,,,,,,,,,,,
,613a9833c9a297f3ac00743f,001,2022-04-28_20h38.45.243,classification_task,2021.2.3,MacIntel,59.93407252,613a9833c9a297f3ac00743f,626b377229c10585ec392f8a,626b3b477fd5610a2c41f186,,,,,,,,,,,,,,,,,,,,,,,a,1,0.8917,"[""0.184"",""0.026"",""0.845"",""0.897""]","[1,0,1,1]",0,25,25,25,1,0,0,,,0,FALSE,,,,,,,,,,,,,,,,,,,,,,,,,,,,,,
,613a9833c9a297f3ac00743f,001,2022-04-28_20h38.45.243,classification_task,2021.2.3,MacIntel,59.93407252,613a9833c9a297f3ac00743f,626b377229c10585ec392f8a,626b3b477fd5610a2c41f186,,,,,,,,,,,,,,,,,,,,,,,a,1,0.7682,"[""0.184"",""0.398"",""0.034"",""0.897""]","[1,1,0,1]",0,26,26,26,1,0,0,,,0,FALSE,,,,,,,,,,,,,,,,,,,,,,,,,,,,,,
,613a9833c9a297f3ac00743f,001,2022-04-28_20h38.45.243,classification_task,2021.2.3,MacIntel,59.93407252,613a9833c9a297f3ac00743f,626b377229c10585ec392f8a,626b3b477fd5610a2c41f186,,,,,,,,,,,,,,,,,,,,,,,l,1,0.6503,"[""0.044"",""0.263"",""0.437"",""0.708""]","[0,1,1,1]",0,27,27,27,1,1,0,,,0,FALSE,,,,,,,,,,,,,,,,,,,,,,,,,,,,,,
,613a9833c9a297f3ac00743f,001,2022-04-28_20h38.45.243,classification_task,2021.2.3,MacIntel,59.93407252,613a9833c9a297f3ac00743f,626b377229c10585ec392f8a,626b3b477fd5610a2c41f186,,,,,,,,,,,,,,,,,,,,,,,l,1,0.8359,"[""0.079"",""0.810"",""0.497"",""0.771""]","[1,0,1,1]",0,28,28,28,1,1,1,,,0,FALSE,,,,,,,,,,,,,,,,,,,,,,,,,,,,,,
,613a9833c9a297f3ac00743f,001,2022-04-28_20h38.45.243,classification_task,2021.2.3,MacIntel,59.93407252,613a9833c9a297f3ac00743f,626b377229c10585ec392f8a,626b3b477fd5610a2c41f186,,,,,,,,,,,,,,,,,,,,,,,l,1,0.8745,"[""0.079"",""0.329"",""0.497"",""0.044""]","[1,1,1,0]",0,29,29,29,1,1,1,,,0,FALSE,,,,,,,,,,,,,,,,,,,,,,,,,,,,,,
,613a9833c9a297f3ac00743f,001,2022-04-28_20h38.45.243,classification_task,2021.2.3,MacIntel,59.93407252,613a9833c9a297f3ac00743f,626b377229c10585ec392f8a,626b3b477fd5610a2c41f186,,,,,,,,,,,,,,,,,,,,,,,l,0,0.9249,"[""0.584"",""0.547"",""0.935"",""0.973""]","[0,1,1,1]",0,30,30,30,1,0,1,,,0,FALSE,,,,,,,,,,,,,,,,,,,,,,,,,,,,,,
,613a9833c9a297f3ac00743f,001,2022-04-28_20h38.45.243,classification_task,2021.2.3,MacIntel,59.93407252,613a9833c9a297f3ac00743f,626b377229c10585ec392f8a,626b3b477fd5610a2c41f186,,,,,,,,,,,,,,,,,,,,,,,a,1,0.876,"[""0.184"",""0.398"",""0.845"",""0.666""]","[1,1,1,0]",0,31,31,31,1,0,0,,,0,FALSE,,,,,,,,,,,,,,,,,,,,,,,,,,,,,,
,613a9833c9a297f3ac00743f,001,2022-04-28_20h38.45.243,classification_task,2021.2.3,MacIntel,59.93407252,613a9833c9a297f3ac00743f,626b377229c10585ec392f8a,626b3b477fd5610a2c41f186,,,,,,,,,,,,,,,,,,,,,,,l,1,1.0046,"[""0.079"",""0.026"",""0.497"",""0.771""]","[1,0,1,1]",0,32,32,32,1,1,1,,,0,FALSE,,,,,,,,,,,,,,,,,,,,,,,,,,,,,,
,613a9833c9a297f3ac00743f,001,2022-04-28_20h38.45.243,classification_task,2021.2.3,MacIntel,59.93407252,613a9833c9a297f3ac00743f,626b377229c10585ec392f8a,626b3b477fd5610a2c41f186,,,,,,,,,,,,,,,,,,,,,,,l,0,0.8905,"[""0.027"",""0.547"",""0.935"",""0.973""]","[0,1,1,1]",0,33,33,33,1,0,1,,,0,FALSE,,,,,,,,,,,,,,,,,,,,,,,,,,,,,,
,613a9833c9a297f3ac00743f,001,2022-04-28_20h38.45.243,classification_task,2021.2.3,MacIntel,59.93407252,613a9833c9a297f3ac00743f,626b377229c10585ec392f8a,626b3b477fd5610a2c41f186,,,,,,,,,,,,,,,,,,,,,,,a,1,1.1585,"[""0.218"",""0.026"",""0.935"",""0.973""]","[1,0,1,1]",0,34,34,34,1,0,1,,,0,FALSE,,,,,,,,,,,,,,,,,,,,,,,,,,,,,,
,613a9833c9a297f3ac00743f,001,2022-04-28_20h38.45.243,classification_task,2021.2.3,MacIntel,59.93407252,613a9833c9a297f3ac00743f,626b377229c10585ec392f8a,626b3b477fd5610a2c41f186,,,,,,,,,,,,,,,,,,,,,,,l,1,0.9154,"[""0.120"",""0.806"",""0.437"",""0.708""]","[1,0,1,1]",0,35,35,35,1,1,0,,,0,FALSE,,,,,,,,,,,,,,,,,,,,,,,,,,,,,,
,613a9833c9a297f3ac00743f,001,2022-04-28_20h38.45.243,classification_task,2021.2.3,MacIntel,59.93407252,613a9833c9a297f3ac00743f,626b377229c10585ec392f8a,626b3b477fd5610a2c41f186,,,,,,,,,,,,,,,,,,,,,,,a,1,1.0705,"[""0.184"",""0.398"",""0.639"",""0.897""]","[1,1,0,1]",0,36,36,36,1,0,0,,,0,FALSE,,,,,,,,,,,,,,,,,,,,,,,,,,,,,,
,613a9833c9a297f3ac00743f,001,2022-04-28_20h38.45.243,classification_task,2021.2.3,MacIntel,59.93407252,613a9833c9a297f3ac00743f,626b377229c10585ec392f8a,626b3b477fd5610a2c41f186,,,,,,,,,,,,,,,,,,,,,,,l,1,1.0436,"[""0.120"",""0.263"",""0.437"",""0.026""]","[1,1,1,0]",0,37,37,37,1,1,0,,,0,FALSE,,,,,,,,,,,,,,,,,,,,,,,,,,,,,,
,613a9833c9a297f3ac00743f,001,2022-04-28_20h38.45.243,classification_task,2021.2.3,MacIntel,59.93407252,613a9833c9a297f3ac00743f,626b377229c10585ec392f8a,626b3b477fd5610a2c41f186,,,,,,,,,,,,,,,,,,,,,,,l,1,0.8037,"[""0.120"",""0.263"",""0.666"",""0.708""]","[1,1,0,1]",0,38,38,38,1,1,0,,,0,FALSE,,,,,,,,,,,,,,,,,,,,,,,,,,,,,,
,613a9833c9a297f3ac00743f,001,2022-04-28_20h38.45.243,classification_task,2021.2.3,MacIntel,59.93407252,613a9833c9a297f3ac00743f,626b377229c10585ec392f8a,626b3b477fd5610a2c41f186,,,,,,,,,,,,,,,,,,,,,,,l,1,1.2431,"[""0.079"",""0.329"",""0.671"",""0.771""]","[1,1,0,1]",0,39,39,39,1,1,1,,,0,FALSE,,,,,,,,,,,,,,,,,,,,,,,,,,,,,,
,613a9833c9a297f3ac00743f,001,2022-04-28_20h38.45.243,classification_task,2021.2.3,MacIntel,59.93407252,613a9833c9a297f3ac00743f,626b377229c10585ec392f8a,626b3b477fd5610a2c41f186,,,,,,,,,,,,,,,,,,,,,,,a,1,0.8491,"[""0.184"",""0.398"",""0.845"",""0.027""]","[1,1,1,0]",0,40,40,40,1,0,0,,,0,FALSE,,,,,,,,,,,,,,,,,,,,,,,,,,,,,,
,613a9833c9a297f3ac00743f,001,2022-04-28_20h38.45.243,classification_task,2021.2.3,MacIntel,59.93407252,613a9833c9a297f3ac00743f,626b377229c10585ec392f8a,626b3b477fd5610a2c41f186,,,,,,,,,,,,,,,,,,,,,,,a,1,1.5894,"[""0.218"",""0.547"",""0.935"",""0.584""]","[1,1,1,0]",0,41,41,41,1,0,1,,,0,FALSE,,,,,,,,,,,,,,,,,,,,,,,,,,,,,,
,613a9833c9a297f3ac00743f,001,2022-04-28_20h38.45.243,classification_task,2021.2.3,MacIntel,59.93407252,613a9833c9a297f3ac00743f,626b377229c10585ec392f8a,626b3b477fd5610a2c41f186,,,,,,,,,,,,,,,,,,,,,,,l,1,0.7069,"[""0.666"",""0.263"",""0.437"",""0.708""]","[0,1,1,1]",0,42,42,42,1,1,0,,,0,FALSE,,,,,,,,,,,,,,,,,,,,,,,,,,,,,,
,613a9833c9a297f3ac00743f,001,2022-04-28_20h38.45.243,classification_task,2021.2.3,MacIntel,59.93407252,613a9833c9a297f3ac00743f,626b377229c10585ec392f8a,626b3b477fd5610a2c41f186,,,,,,,,,,,,,,,,,,,,,,,a,1,0.9925,"[""0.184"",""0.043"",""0.845"",""0.897""]","[1,0,1,1]",0,43,43,43,1,0,0,,,0,FALSE,,,,,,,,,,,,,,,,,,,,,,,,,,,,,,
,613a9833c9a297f3ac00743f,001,2022-04-28_20h38.45.243,classification_task,2021.2.3,MacIntel,59.93407252,613a9833c9a297f3ac00743f,626b377229c10585ec392f8a,626b3b477fd5610a2c41f186,,,,,,,,,,,,,,,,,,,,,,,l,0,1.183,"[""0.218"",""0.547"",""0.806"",""0.973""]","[1,1,0,1]",0,44,44,44,1,0,1,,,0,FALSE,,,,,,,,,,,,,,,,,,,,,,,,,,,,,,
,613a9833c9a297f3ac00743f,001,2022-04-28_20h38.45.243,classification_task,2021.2.3,MacIntel,59.93407252,613a9833c9a297f3ac00743f,626b377229c10585ec392f8a,626b3b477fd5610a2c41f186,,,,,,,,,,,,,,,,,,,,,,,l,1,1.7521,"[""0.027"",""0.329"",""0.497"",""0.771""]","[0,1,1,1]",0,45,45,45,1,1,1,,,0,FALSE,,,,,,,,,,,,,,,,,,,,,,,,,,,,,,
,613a9833c9a297f3ac00743f,001,2022-04-28_20h38.45.243,classification_task,2021.2.3,MacIntel,59.93407252,613a9833c9a297f3ac00743f,626b377229c10585ec392f8a,626b3b477fd5610a2c41f186,,,,,,,,,,,,,,,,,,,,,,,a,1,0.7404,"[""0.026"",""0.398"",""0.845"",""0.897""]","[0,1,1,1]",0,46,46,46,1,0,0,,,0,FALSE,,,,,,,,,,,,,,,,,,,,,,,,,,,,,,
,613a9833c9a297f3ac00743f,001,2022-04-28_20h38.45.243,classification_task,2021.2.3,MacIntel,59.93407252,613a9833c9a297f3ac00743f,626b377229c10585ec392f8a,626b3b477fd5610a2c41f186,,,,,,,,,,,,,,,,,,,,,,,l,1,1.5403,"[""0.079"",""0.329"",""0.497"",""0.043""]","[1,1,1,0]",0,47,47,47,1,1,1,,,0,FALSE,,,,,,,,,,,,,,,,,,,,,,,,,,,,,,
,613a9833c9a297f3ac00743f,001,2022-04-28_20h38.45.243,classification_task,2021.2.3,MacIntel,59.93407252,613a9833c9a297f3ac00743f,626b377229c10585ec392f8a,626b3b477fd5610a2c41f186,,,,,,,,,,,,,,,,,,,,,,,l,1,1.1257,"[""0.079"",""0.026"",""0.497"",""0.771""]","[1,0,1,1]",0,48,48,48,1,1,1,,,0,FALSE,,,,,,,,,,,,,,,,,,,,,,,,,,,,,,
,613a9833c9a297f3ac00743f,001,2022-04-28_20h38.45.243,classification_task,2021.2.3,MacIntel,59.93407252,613a9833c9a297f3ac00743f,626b377229c10585ec392f8a,626b3b477fd5610a2c41f186,,,,,,,,,,,,,,,,,,,,,,,a,1,0.7855,"[""0.584"",""0.398"",""0.845"",""0.897""]","[0,1,1,1]",0,49,49,49,1,0,0,,,0,FALSE,,,,,,,,,,,,,,,,,,,,,,,,,,,,,,
,613a9833c9a297f3ac00743f,001,2022-04-28_20h38.45.243,classification_task,2021.2.3,MacIntel,59.93407252,613a9833c9a297f3ac00743f,626b377229c10585ec392f8a,626b3b477fd5610a2c41f186,,,,,,,,,,,,,,,,,,,,,,,a,1,0.8768,"[""0.184"",""0.639"",""0.845"",""0.897""]","[1,0,1,1]",0,50,50,50,1,0,0,,,0,FALSE,,,,,,,,,,,,,,,,,,,,,,,,,,,,,,
,613a9833c9a297f3ac00743f,001,2022-04-28_20h38.45.243,classification_task,2021.2.3,MacIntel,59.93407252,613a9833c9a297f3ac00743f,626b377229c10585ec392f8a,626b3b477fd5610a2c41f186,,,,,,,,,,,,,,,,,,,,,,,a,1,1.1499,"[""0.218"",""0.547"",""0.935"",""0.027""]","[1,1,1,0]",0,51,51,51,1,0,1,,,0,FALSE,,,,,,,,,,,,,,,,,,,,,,,,,,,,,,
,613a9833c9a297f3ac00743f,001,2022-04-28_20h38.45.243,classification_task,2021.2.3,MacIntel,59.93407252,613a9833c9a297f3ac00743f,626b377229c10585ec392f8a,626b3b477fd5610a2c41f186,,,,,,,,,,,,,,,,,,,,,,,a,1,0.8612,"[""0.218"",""0.547"",""0.044"",""0.973""]","[1,1,0,1]",0,52,52,52,1,0,1,,,0,FALSE,,,,,,,,,,,,,,,,,,,,,,,,,,,,,,
,613a9833c9a297f3ac00743f,001,2022-04-28_20h38.45.243,classification_task,2021.2.3,MacIntel,59.93407252,613a9833c9a297f3ac00743f,626b377229c10585ec392f8a,626b3b477fd5610a2c41f186,,,,,,,,,,,,,,,,,,,,,,,l,1,1.3683,"[""0.666"",""0.329"",""0.497"",""0.771""]","[0,1,1,1]",0,53,53,53,1,1,1,,,0,FALSE,,,,,,,,,,,,,,,,,,,,,,,,,,,,,,
,613a9833c9a297f3ac00743f,001,2022-04-28_20h38.45.243,classification_task,2021.2.3,MacIntel,59.93407252,613a9833c9a297f3ac00743f,626b377229c10585ec392f8a,626b3b477fd5610a2c41f186,,,,,,,,,,,,,,,,,,,,,,,l,1,0.7895,"[""0.120"",""0.044"",""0.437"",""0.708""]","[1,0,1,1]",0,54,54,54,1,1,0,,,0,FALSE,,,,,,,,,,,,,,,,,,,,,,,,,,,,,,
,613a9833c9a297f3ac00743f,001,2022-04-28_20h38.45.243,classification_task,2021.2.3,MacIntel,59.93407252,613a9833c9a297f3ac00743f,626b377229c10585ec392f8a,626b3b477fd5610a2c41f186,,,,,,,,,,,,,,,,,,,,,,,l,1,1.2497,"[""0.079"",""0.329"",""0.044"",""0.771""]","[1,1,0,1]",0,55,55,55,1,1,1,,,0,FALSE,,,,,,,,,,,,,,,,,,,,,,,,,,,,,,
,613a9833c9a297f3ac00743f,001,2022-04-28_20h38.45.243,classification_task,2021.2.3,MacIntel,59.93407252,613a9833c9a297f3ac00743f,626b377229c10585ec392f8a,626b3b477fd5610a2c41f186,,,,,,,,,,,,,,,,,,,,,,,l,0,0.8047,"[""0.666"",""0.547"",""0.935"",""0.973""]","[0,1,1,1]",0,56,56,56,1,0,1,,,0,FALSE,,,,,,,,,,,,,,,,,,,,,,,,,,,,,,
,613a9833c9a297f3ac00743f,001,2022-04-28_20h38.45.243,classification_task,2021.2.3,MacIntel,59.93407252,613a9833c9a297f3ac00743f,626b377229c10585ec392f8a,626b3b477fd5610a2c41f186,,,,,,,,,,,,,,,,,,,,,,,l,1,0.9063,"[""0.120"",""0.263"",""0.044"",""0.708""]","[1,1,0,1]",0,57,57,57,1,1,0,,,0,FALSE,,,,,,,,,,,,,,,,,,,,,,,,,,,,,,
,613a9833c9a297f3ac00743f,001,2022-04-28_20h38.45.243,classification_task,2021.2.3,MacIntel,59.93407252,613a9833c9a297f3ac00743f,626b377229c10585ec392f8a,626b3b477fd5610a2c41f186,,,,,,,,,,,,,,,,,,,,,,,a,1,0.6762,"[""0.184"",""0.398"",""0.845"",""0.810""]","[1,1,1,0]",0,58,58,58,1,0,0,,,0,FALSE,,,,,,,,,,,,,,,,,,,,,,,,,,,,,,
,613a9833c9a297f3ac00743f,001,2022-04-28_20h38.45.243,classification_task,2021.2.3,MacIntel,59.93407252,613a9833c9a297f3ac00743f,626b377229c10585ec392f8a,626b3b477fd5610a2c41f186,,,,,,,,,,,,,,,,,,,,,,,a,1,0.9735,"[""0.184"",""0.398"",""0.044"",""0.897""]","[1,1,0,1]",0,59,59,59,1,0,0,,,0,FALSE,,,,,,,,,,,,,,,,,,,,,,,,,,,,,,
,613a9833c9a297f3ac00743f,001,2022-04-28_20h38.45.243,classification_task,2021.2.3,MacIntel,59.93407252,613a9833c9a297f3ac00743f,626b377229c10585ec392f8a,626b3b477fd5610a2c41f186,,,,,,,,,,,,,,,,,,,,,,,l,1,1.0659,"[""0.079"",""0.329"",""0.497"",""0.584""]","[1,1,1,0]",0,60,60,60,1,1,1,,,0,FALSE,,,,,,,,,,,,,,,,,,,,,,,,,,,,,,
,613a9833c9a297f3ac00743f,001,2022-04-28_20h38.45.243,classification_task,2021.2.3,MacIntel,59.93407252,613a9833c9a297f3ac00743f,626b377229c10585ec392f8a,626b3b477fd5610a2c41f186,,,,,,,,,,,,,,,,,,,,,,,l,0,1.436,"[""0.218"",""0.584"",""0.935"",""0.973""]","[1,0,1,1]",0,61,61,61,1,0,1,,,0,FALSE,,,,,,,,,,,,,,,,,,,,,,,,,,,,,,
,613a9833c9a297f3ac00743f,001,2022-04-28_20h38.45.243,classification_task,2021.2.3,MacIntel,59.93407252,613a9833c9a297f3ac00743f,626b377229c10585ec392f8a,626b3b477fd5610a2c41f186,,,,,,,,,,,,,,,,,,,,,,,l,1,0.9714,"[""0.120"",""0.263"",""0.437"",""0.810""]","[1,1,1,0]",0,62,62,62,1,1,0,,,0,FALSE,,,,,,,,,,,,,,,,,,,,,,,,,,,,,,
,613a9833c9a297f3ac00743f,001,2022-04-28_20h38.45.243,classification_task,2021.2.3,MacIntel,59.93407252,613a9833c9a297f3ac00743f,626b377229c10585ec392f8a,626b3b477fd5610a2c41f186,,,,,,,,,,,,,,,,,,,,,,,l,1,0.6204,"[""0.044"",""0.263"",""0.437"",""0.708""]","[0,1,1,1]",0,63,63,63,1,1,0,,,0,FALSE,,,,,,,,,,,,,,,,,,,,,,,,,,,,,,
,613a9833c9a297f3ac00743f,001,2022-04-28_20h38.45.243,classification_task,2021.2.3,MacIntel,59.93407252,613a9833c9a297f3ac00743f,626b377229c10585ec392f8a,626b3b477fd5610a2c41f186,,,,,,,,,,,,,,,,,,,,,,,,,,,,,,,,,,,,,,,0, ,,0,7.281516387,140.1581,0,1,1,1,1,2,2,,,,,,,,,,,,,,,,,
,613a9833c9a297f3ac00743f,001,2022-04-28_20h38.45.243,classification_task,2021.2.3,MacIntel,59.93407252,613a9833c9a297f3ac00743f,626b377229c10585ec392f8a,626b3b477fd5610a2c41f186,,,,,,,,,,,,,,,,,,,,,,,,,,,,,,,,,,,,,,,1,  ,,0,7.331751084,141.4597,0,1,1,1,1,2,2,,,,,,,,,,,,,,,,,
,613a9833c9a297f3ac00743f,001,2022-04-28_20h38.45.243,classification_task,2021.2.3,MacIntel,59.93407252,613a9833c9a297f3ac00743f,626b377229c10585ec392f8a,626b3b477fd5610a2c41f186,,,,,,,,,,,,,,,,,,,,,,,,,,,,,,,,,,,,,,,2,  ,,0,4.42713309,144.5196,0,1,1,1,1,2,2,,,,,,,,,,,,,,,,,
,613a9833c9a297f3ac00743f,001,2022-04-28_20h38.45.243,classification_task,2021.2.3,MacIntel,59.93407252,613a9833c9a297f3ac00743f,626b377229c10585ec392f8a,626b3b477fd5610a2c41f186,,,,,,,,,,,,,,,,,,,,,,,,,,,,,,,,,,,,,,,,,,,,,0,1,1,1,1,,2,,,,,,,,,,,,,,,,,
,613a9833c9a297f3ac00743f,001,2022-04-28_20h38.45.243,classification_task,2021.2.3,MacIntel,59.93407252,613a9833c9a297f3ac00743f,626b377229c10585ec392f8a,626b3b477fd5610a2c41f186,,,,,,,,,,,,,,,,,,,,,space,3.978,l,1,1.1684,"[""0.079"",""0.329"",""0.497"",""0.034""]","[1,1,1,0]",0,0,0,0,1,1,1,,,0,FALSE,,,,,,,,,,,,,,,,,,,,,,,,,,,,,,
,613a9833c9a297f3ac00743f,001,2022-04-28_20h38.45.243,classification_task,2021.2.3,MacIntel,59.93407252,613a9833c9a297f3ac00743f,626b377229c10585ec392f8a,626b3b477fd5610a2c41f186,,,,,,,,,,,,,,,,,,,,,,,l,1,1.7732,"[""0.079"",""0.329"",""0.806"",""0.771""]","[1,1,0,1]",0,1,1,1,1,1,1,,,0,FALSE,,,,,,,,,,,,,,,,,,,,,,,,,,,,,,
,613a9833c9a297f3ac00743f,001,2022-04-28_20h38.45.243,classification_task,2021.2.3,MacIntel,59.93407252,613a9833c9a297f3ac00743f,626b377229c10585ec392f8a,626b3b477fd5610a2c41f186,,,,,,,,,,,,,,,,,,,,,,,l,1,1.2353,"[""0.079"",""0.044"",""0.497"",""0.771""]","[1,0,1,1]",0,2,2,2,1,1,1,,,0,FALSE,,,,,,,,,,,,,,,,,,,,,,,,,,,,,,
,613a9833c9a297f3ac00743f,001,2022-04-28_20h38.45.243,classification_task,2021.2.3,MacIntel,59.93407252,613a9833c9a297f3ac00743f,626b377229c10585ec392f8a,626b3b477fd5610a2c41f186,,,,,,,,,,,,,,,,,,,,,,,l,1,1.1684,"[""0.120"",""0.263"",""0.043"",""0.708""]","[1,1,0,1]",0,3,3,3,1,1,0,,,0,FALSE,,,,,,,,,,,,,,,,,,,,,,,,,,,,,,
,613a9833c9a297f3ac00743f,001,2022-04-28_20h38.45.243,classification_task,2021.2.3,MacIntel,59.93407252,613a9833c9a297f3ac00743f,626b377229c10585ec392f8a,626b3b477fd5610a2c41f186,,,,,,,,,,,,,,,,,,,,,,,a,1,0.8247,"[""0.184"",""0.398"",""0.845"",""0.043""]","[1,1,1,0]",0,4,4,4,1,0,0,,,0,FALSE,,,,,,,,,,,,,,,,,,,,,,,,,,,,,,
,613a9833c9a297f3ac00743f,001,2022-04-28_20h38.45.243,classification_task,2021.2.3,MacIntel,59.93407252,613a9833c9a297f3ac00743f,626b377229c10585ec392f8a,626b3b477fd5610a2c41f186,,,,,,,,,,,,,,,,,,,,,,,a,1,1.2684,"[""0.184"",""0.669"",""0.845"",""0.897""]","[1,0,1,1]",0,5,5,5,1,0,0,,,0,FALSE,,,,,,,,,,,,,,,,,,,,,,,,,,,,,,
,613a9833c9a297f3ac00743f,001,2022-04-28_20h38.45.243,classification_task,2021.2.3,MacIntel,59.93407252,613a9833c9a297f3ac00743f,626b377229c10585ec392f8a,626b3b477fd5610a2c41f186,,,,,,,,,,,,,,,,,,,,,,,l,1,0.911,"[""0.120"",""0.027"",""0.437"",""0.708""]","[1,0,1,1]",0,6,6,6,1,1,0,,,0,FALSE,,,,,,,,,,,,,,,,,,,,,,,,,,,,,,
,613a9833c9a297f3ac00743f,001,2022-04-28_20h38.45.243,classification_task,2021.2.3,MacIntel,59.93407252,613a9833c9a297f3ac00743f,626b377229c10585ec392f8a,626b3b477fd5610a2c41f186,,,,,,,,,,,,,,,,,,,,,,,l,0,1.4689,"[""0.806"",""0.547"",""0.935"",""0.973""]","[0,1,1,1]",0,7,7,7,1,0,1,,,0,FALSE,,,,,,,,,,,,,,,,,,,,,,,,,,,,,,
,613a9833c9a297f3ac00743f,001,2022-04-28_20h38.45.243,classification_task,2021.2.3,MacIntel,59.93407252,613a9833c9a297f3ac00743f,626b377229c10585ec392f8a,626b3b477fd5610a2c41f186,,,,,,,,,,,,,,,,,,,,,,,a,1,1.0854,"[""0.218"",""0.547"",""0.935"",""0.044""]","[1,1,1,0]",0,8,8,8,1,0,1,,,0,FALSE,,,,,,,,,,,,,,,,,,,,,,,,,,,,,,
,613a9833c9a297f3ac00743f,001,2022-04-28_20h38.45.243,classification_task,2021.2.3,MacIntel,59.93407252,613a9833c9a297f3ac00743f,626b377229c10585ec392f8a,626b3b477fd5610a2c41f186,,,,,,,,,,,,,,,,,,,,,,,l,1,1.4769,"[""0.043"",""0.263"",""0.437"",""0.708""]","[0,1,1,1]",0,9,9,9,1,1,0,,,0,FALSE,,,,,,,,,,,,,,,,,,,,,,,,,,,,,,
,613a9833c9a297f3ac00743f,001,2022-04-28_20h38.45.243,classification_task,2021.2.3,MacIntel,59.93407252,613a9833c9a297f3ac00743f,626b377229c10585ec392f8a,626b3b477fd5610a2c41f186,,,,,,,,,,,,,,,,,,,,,,,a,1,0.7008,"[""0.184"",""0.398"",""0.639"",""0.897""]","[1,1,0,1]",0,10,10,10,1,0,0,,,0,FALSE,,,,,,,,,,,,,,,,,,,,,,,,,,,,,,
,613a9833c9a297f3ac00743f,001,2022-04-28_20h38.45.243,classification_task,2021.2.3,MacIntel,59.93407252,613a9833c9a297f3ac00743f,626b377229c10585ec392f8a,626b3b477fd5610a2c41f186,,,,,,,,,,,,,,,,,,,,,,,a,1,1.2015,"[""0.218"",""0.043"",""0.935"",""0.973""]","[1,0,1,1]",0,11,11,11,1,0,1,,,0,FALSE,,,,,,,,,,,,,,,,,,,,,,,,,,,,,,
,613a9833c9a297f3ac00743f,001,2022-04-28_20h38.45.243,classification_task,2021.2.3,MacIntel,59.93407252,613a9833c9a297f3ac00743f,626b377229c10585ec392f8a,626b3b477fd5610a2c41f186,,,,,,,,,,,,,,,,,,,,,,,a,0,1.1515,"[""0.806"",""0.329"",""0.497"",""0.771""]","[0,1,1,1]",0,12,12,12,1,1,1,,,0,FALSE,,,,,,,,,,,,,,,,,,,,,,,,,,,,,,
,613a9833c9a297f3ac00743f,001,2022-04-28_20h38.45.243,classification_task,2021.2.3,MacIntel,59.93407252,613a9833c9a297f3ac00743f,626b377229c10585ec392f8a,626b3b477fd5610a2c41f186,,,,,,,,,,,,,,,,,,,,,,,l,1,1.2347,"[""0.120"",""0.263"",""0.437"",""0.810""]","[1,1,1,0]",0,13,13,13,1,1,0,,,0,FALSE,,,,,,,,,,,,,,,,,,,,,,,,,,,,,,
,613a9833c9a297f3ac00743f,001,2022-04-28_20h38.45.243,classification_task,2021.2.3,MacIntel,59.93407252,613a9833c9a297f3ac00743f,626b377229c10585ec392f8a,626b3b477fd5610a2c41f186,,,,,,,,,,,,,,,,,,,,,,,a,1,1.0257,"[""0.218"",""0.547"",""0.584"",""0.973""]","[1,1,0,1]",0,14,14,14,1,0,1,,,0,FALSE,,,,,,,,,,,,,,,,,,,,,,,,,,,,,,
,613a9833c9a297f3ac00743f,001,2022-04-28_20h38.45.243,classification_task,2021.2.3,MacIntel,59.93407252,613a9833c9a297f3ac00743f,626b377229c10585ec392f8a,626b3b477fd5610a2c41f186,,,,,,,,,,,,,,,,,,,,,,,a,1,1.5015,"[""0.043"",""0.398"",""0.845"",""0.897""]","[0,1,1,1]",0,15,15,15,1,0,0,,,0,FALSE,,,,,,,,,,,,,,,,,,,,,,,,,,,,,,
,613a9833c9a297f3ac00743f,001,2022-04-28_20h38.45.243,classification_task,2021.2.3,MacIntel,59.93407252,613a9833c9a297f3ac00743f,626b377229c10585ec392f8a,626b3b477fd5610a2c41f186,,,,,,,,,,,,,,,,,,,,,,,a,1,0.903,"[""0.184"",""0.398"",""0.027"",""0.897""]","[1,1,0,1]",0,16,16,16,1,0,0,,,0,FALSE,,,,,,,,,,,,,,,,,,,,,,,,,,,,,,
,613a9833c9a297f3ac00743f,001,2022-04-28_20h38.45.243,classification_task,2021.2.3,MacIntel,59.93407252,613a9833c9a297f3ac00743f,626b377229c10585ec392f8a,626b3b477fd5610a2c41f186,,,,,,,,,,,,,,,,,,,,,,,l,1,0.9868,"[""0.120"",""0.263"",""0.037"",""0.708""]","[1,1,0,1]",0,17,17,17,1,1,0,,,0,FALSE,,,,,,,,,,,,,,,,,,,,,,,,,,,,,,
,613a9833c9a297f3ac00743f,001,2022-04-28_20h38.45.243,classification_task,2021.2.3,MacIntel,59.93407252,613a9833c9a297f3ac00743f,626b377229c10585ec392f8a,626b3b477fd5610a2c41f186,,,,,,,,,,,,,,,,,,,,,,,l,1,1.2847,"[""0.034"",""0.329"",""0.497"",""0.771""]","[0,1,1,1]",0,18,18,18,1,1,1,,,0,FALSE,,,,,,,,,,,,,,,,,,,,,,,,,,,,,,
,613a9833c9a297f3ac00743f,001,2022-04-28_20h38.45.243,classification_task,2021.2.3,MacIntel,59.93407252,613a9833c9a297f3ac00743f,626b377229c10585ec392f8a,626b3b477fd5610a2c41f186,,,,,,,,,,,,,,,,,,,,,,,l,1,1.2184,"[""0.120"",""0.263"",""0.437"",""0.037""]","[1,1,1,0]",0,19,19,19,1,1,0,,,0,FALSE,,,,,,,,,,,,,,,,,,,,,,,,,,,,,,
,613a9833c9a297f3ac00743f,001,2022-04-28_20h38.45.243,classification_task,2021.2.3,MacIntel,59.93407252,613a9833c9a297f3ac00743f,626b377229c10585ec392f8a,626b3b477fd5610a2c41f186,,,,,,,,,,,,,,,,,,,,,,,a,1,1.4019,"[""0.639"",""0.547"",""0.935"",""0.973""]","[0,1,1,1]",0,20,20,20,1,0,1,,,0,FALSE,,,,,,,,,,,,,,,,,,,,,,,,,,,,,,
,613a9833c9a297f3ac00743f,001,2022-04-28_20h38.45.243,classification_task,2021.2.3,MacIntel,59.93407252,613a9833c9a297f3ac00743f,626b377229c10585ec392f8a,626b3b477fd5610a2c41f186,,,,,,,,,,,,,,,,,,,,,,,a,0,1.261,"[""0.079"",""0.329"",""0.639"",""0.771""]","[1,1,0,1]",0,21,21,21,1,1,1,,,0,FALSE,,,,,,,,,,,,,,,,,,,,,,,,,,,,,,
,613a9833c9a297f3ac00743f,001,2022-04-28_20h38.45.243,classification_task,2021.2.3,MacIntel,59.93407252,613a9833c9a297f3ac00743f,626b377229c10585ec392f8a,626b3b477fd5610a2c41f186,,,,,,,,,,,,,,,,,,,,,,,a,1,4.4459,"[""0.184"",""0.639"",""0.845"",""0.897""]","[1,0,1,1]",0,22,22,22,1,0,0,,,0,FALSE,,,,,,,,,,,,,,,,,,,,,,,,,,,,,,
,613a9833c9a297f3ac00743f,001,2022-04-28_20h38.45.243,classification_task,2021.2.3,MacIntel,59.93407252,613a9833c9a297f3ac00743f,626b377229c10585ec392f8a,626b3b477fd5610a2c41f186,,,,,,,,,,,,,,,,,,,,,,,l,1,1.2655,"[""0.120"",""0.584"",""0.437"",""0.708""]","[1,0,1,1]",0,23,23,23,1,1,0,,,0,FALSE,,,,,,,,,,,,,,,,,,,,,,,,,,,,,,
,613a9833c9a297f3ac00743f,001,2022-04-28_20h38.45.243,classification_task,2021.2.3,MacIntel,59.93407252,613a9833c9a297f3ac00743f,626b377229c10585ec392f8a,626b3b477fd5610a2c41f186,,,,,,,,,,,,,,,,,,,,,,,a,1,0.8441,"[""0.037"",""0.398"",""0.845"",""0.897""]","[0,1,1,1]",0,24,24,24,1,0,0,,,0,FALSE,,,,,,,,,,,,,,,,,,,,,,,,,,,,,,
,613a9833c9a297f3ac00743f,001,2022-04-28_20h38.45.243,classification_task,2021.2.3,MacIntel,59.93407252,613a9833c9a297f3ac00743f,626b377229c10585ec392f8a,626b3b477fd5610a2c41f186,,,,,,,,,,,,,,,,,,,,,,,l,1,1.1683,"[""0.079"",""0.044"",""0.497"",""0.771""]","[1,0,1,1]",0,25,25,25,1,1,1,,,0,FALSE,,,,,,,,,,,,,,,,,,,,,,,,,,,,,,
,613a9833c9a297f3ac00743f,001,2022-04-28_20h38.45.243,classification_task,2021.2.3,MacIntel,59.93407252,613a9833c9a297f3ac00743f,626b377229c10585ec392f8a,626b3b477fd5610a2c41f186,,,,,,,,,,,,,,,,,,,,,,,l,1,1.0384,"[""0.044"",""0.263"",""0.437"",""0.708""]","[0,1,1,1]",0,26,26,26,1,1,0,,,0,FALSE,,,,,,,,,,,,,,,,,,,,,,,,,,,,,,
,613a9833c9a297f3ac00743f,001,2022-04-28_20h38.45.243,classification_task,2021.2.3,MacIntel,59.93407252,613a9833c9a297f3ac00743f,626b377229c10585ec392f8a,626b3b477fd5610a2c41f186,,,,,,,,,,,,,,,,,,,,,,,a,1,2.0222,"[""0.218"",""0.547"",""0.026"",""0.973""]","[1,1,0,1]",0,27,27,27,1,0,1,,,0,FALSE,,,,,,,,,,,,,,,,,,,,,,,,,,,,,,
,613a9833c9a297f3ac00743f,001,2022-04-28_20h38.45.243,classification_task,2021.2.3,MacIntel,59.93407252,613a9833c9a297f3ac00743f,626b377229c10585ec392f8a,626b3b477fd5610a2c41f186,,,,,,,,,,,,,,,,,,,,,,,a,1,1.204,"[""0.218"",""0.547"",""0.935"",""0.043""]","[1,1,1,0]",0,28,28,28,1,0,1,,,0,FALSE,,,,,,,,,,,,,,,,,,,,,,,,,,,,,,
,613a9833c9a297f3ac00743f,001,2022-04-28_20h38.45.243,classification_task,2021.2.3,MacIntel,59.93407252,613a9833c9a297f3ac00743f,626b377229c10585ec392f8a,626b3b477fd5610a2c41f186,,,,,,,,,,,,,,,,,,,,,,,a,1,0.8948,"[""0.184"",""0.398"",""0.845"",""0.635""]","[1,1,1,0]",0,29,29,29,1,0,0,,,0,FALSE,,,,,,,,,,,,,,,,,,,,,,,,,,,,,,
,613a9833c9a297f3ac00743f,001,2022-04-28_20h38.45.243,classification_task,2021.2.3,MacIntel,59.93407252,613a9833c9a297f3ac00743f,626b377229c10585ec392f8a,626b3b477fd5610a2c41f186,,,,,,,,,,,,,,,,,,,,,,,a,1,1.2785,"[""0.218"",""0.635"",""0.935"",""0.973""]","[1,0,1,1]",0,30,30,30,1,0,1,,,0,FALSE,,,,,,,,,,,,,,,,,,,,,,,,,,,,,,
,613a9833c9a297f3ac00743f,001,2022-04-28_20h38.45.243,classification_task,2021.2.3,MacIntel,59.93407252,613a9833c9a297f3ac00743f,626b377229c10585ec392f8a,626b3b477fd5610a2c41f186,,,,,,,,,,,,,,,,,,,,,,,l,1,1.3538,"[""0.079"",""0.329"",""0.497"",""0.669""]","[1,1,1,0]",0,31,31,31,1,1,1,,,0,FALSE,,,,,,,,,,,,,,,,,,,,,,,,,,,,,,
,613a9833c9a297f3ac00743f,001,2022-04-28_20h38.45.243,classification_task,2021.2.3,MacIntel,59.93407252,613a9833c9a297f3ac00743f,626b377229c10585ec392f8a,626b3b477fd5610a2c41f186,,,,,,,,,,,,,,,,,,,,,,,l,1,1.3107,"[""0.079"",""0.329"",""0.806"",""0.771""]","[1,1,0,1]",0,32,32,32,1,1,1,,,0,FALSE,,,,,,,,,,,,,,,,,,,,,,,,,,,,,,
,613a9833c9a297f3ac00743f,001,2022-04-28_20h38.45.243,classification_task,2021.2.3,MacIntel,59.93407252,613a9833c9a297f3ac00743f,626b377229c10585ec392f8a,626b3b477fd5610a2c41f186,,,,,,,,,,,,,,,,,,,,,,,a,1,0.7774,"[""0.184"",""0.635"",""0.845"",""0.897""]","[1,0,1,1]",0,33,33,33,1,0,0,,,0,FALSE,,,,,,,,,,,,,,,,,,,,,,,,,,,,,,
,613a9833c9a297f3ac00743f,001,2022-04-28_20h38.45.243,classification_task,2021.2.3,MacIntel,59.93407252,613a9833c9a297f3ac00743f,626b377229c10585ec392f8a,626b3b477fd5610a2c41f186,,,,,,,,,,,,,,,,,,,,,,,l,1,1.3351,"[""0.034"",""0.263"",""0.437"",""0.708""]","[0,1,1,1]",0,34,34,34,1,1,0,,,0,FALSE,,,,,,,,,,,,,,,,,,,,,,,,,,,,,,
,613a9833c9a297f3ac00743f,001,2022-04-28_20h38.45.243,classification_task,2021.2.3,MacIntel,59.93407252,613a9833c9a297f3ac00743f,626b377229c10585ec392f8a,626b3b477fd5610a2c41f186,,,,,,,,,,,,,,,,,,,,,,,a,1,1.0514,"[""0.218"",""0.547"",""0.806"",""0.973""]","[1,1,0,1]",0,35,35,35,1,0,1,,,0,FALSE,,,,,,,,,,,,,,,,,,,,,,,,,,,,,,
,613a9833c9a297f3ac00743f,001,2022-04-28_20h38.45.243,classification_task,2021.2.3,MacIntel,59.93407252,613a9833c9a297f3ac00743f,626b377229c10585ec392f8a,626b3b477fd5610a2c41f186,,,,,,,,,,,,,,,,,,,,,,,a,1,0.9066,"[""0.027"",""0.398"",""0.845"",""0.897""]","[0,1,1,1]",0,36,36,36,1,0,0,,,0,FALSE,,,,,,,,,,,,,,,,,,,,,,,,,,,,,,
,613a9833c9a297f3ac00743f,001,2022-04-28_20h38.45.243,classification_task,2021.2.3,MacIntel,59.93407252,613a9833c9a297f3ac00743f,626b377229c10585ec392f8a,626b3b477fd5610a2c41f186,,,,,,,,,,,,,,,,,,,,,,,l,1,1.7023,"[""0.120"",""0.806"",""0.437"",""0.708""]","[1,0,1,1]",0,37,37,37,1,1,0,,,0,FALSE,,,,,,,,,,,,,,,,,,,,,,,,,,,,,,
,613a9833c9a297f3ac00743f,001,2022-04-28_20h38.45.243,classification_task,2021.2.3,MacIntel,59.93407252,613a9833c9a297f3ac00743f,626b377229c10585ec392f8a,626b3b477fd5610a2c41f186,,,,,,,,,,,,,,,,,,,,,,,a,1,0.8797,"[""0.184"",""0.398"",""0.806"",""0.897""]","[1,1,0,1]",0,38,38,38,1,0,0,,,0,FALSE,,,,,,,,,,,,,,,,,,,,,,,,,,,,,,
,613a9833c9a297f3ac00743f,001,2022-04-28_20h38.45.243,classification_task,2021.2.3,MacIntel,59.93407252,613a9833c9a297f3ac00743f,626b377229c10585ec392f8a,626b3b477fd5610a2c41f186,,,,,,,,,,,,,,,,,,,,,,,l,1,1.1761,"[""0.043"",""0.329"",""0.497"",""0.771""]","[0,1,1,1]",0,39,39,39,1,1,1,,,0,FALSE,,,,,,,,,,,,,,,,,,,,,,,,,,,,,,
,613a9833c9a297f3ac00743f,001,2022-04-28_20h38.45.243,classification_task,2021.2.3,MacIntel,59.93407252,613a9833c9a297f3ac00743f,626b377229c10585ec392f8a,626b3b477fd5610a2c41f186,,,,,,,,,,,,,,,,,,,,,,,a,1,1.105,"[""0.218"",""0.635"",""0.935"",""0.973""]","[1,0,1,1]",0,40,40,40,1,0,1,,,0,FALSE,,,,,,,,,,,,,,,,,,,,,,,,,,,,,,
,613a9833c9a297f3ac00743f,001,2022-04-28_20h38.45.243,classification_task,2021.2.3,MacIntel,59.93407252,613a9833c9a297f3ac00743f,626b377229c10585ec392f8a,626b3b477fd5610a2c41f186,,,,,,,,,,,,,,,,,,,,,,,l,1,0.9555,"[""0.120"",""0.263"",""0.635"",""0.708""]","[1,1,0,1]",0,41,41,41,1,1,0,,,0,FALSE,,,,,,,,,,,,,,,,,,,,,,,,,,,,,,
,613a9833c9a297f3ac00743f,001,2022-04-28_20h38.45.243,classification_task,2021.2.3,MacIntel,59.93407252,613a9833c9a297f3ac00743f,626b377229c10585ec392f8a,626b3b477fd5610a2c41f186,,,,,,,,,,,,,,,,,,,,,,,l,1,0.7773,"[""0.120"",""0.263"",""0.437"",""0.043""]","[1,1,1,0]",0,42,42,42,1,1,0,,,0,FALSE,,,,,,,,,,,,,,,,,,,,,,,,,,,,,,
,613a9833c9a297f3ac00743f,001,2022-04-28_20h38.45.243,classification_task,2021.2.3,MacIntel,59.93407252,613a9833c9a297f3ac00743f,626b377229c10585ec392f8a,626b3b477fd5610a2c41f186,,,,,,,,,,,,,,,,,,,,,,,a,1,1.0407,"[""0.218"",""0.547"",""0.935"",""0.643""]","[1,1,1,0]",0,43,43,43,1,0,1,,,0,FALSE,,,,,,,,,,,,,,,,,,,,,,,,,,,,,,
,613a9833c9a297f3ac00743f,001,2022-04-28_20h38.45.243,classification_task,2021.2.3,MacIntel,59.93407252,613a9833c9a297f3ac00743f,626b377229c10585ec392f8a,626b3b477fd5610a2c41f186,,,,,,,,,,,,,,,,,,,,,,,l,1,1.3228,"[""0.079"",""0.643"",""0.497"",""0.771""]","[1,0,1,1]",0,44,44,44,1,1,1,,,0,FALSE,,,,,,,,,,,,,,,,,,,,,,,,,,,,,,
,613a9833c9a297f3ac00743f,001,2022-04-28_20h38.45.243,classification_task,2021.2.3,MacIntel,59.93407252,613a9833c9a297f3ac00743f,626b377229c10585ec392f8a,626b3b477fd5610a2c41f186,,,,,,,,,,,,,,,,,,,,,,,a,1,1.252,"[""0.184"",""0.398"",""0.845"",""0.643""]","[1,1,1,0]",0,45,45,45,1,0,0,,,0,FALSE,,,,,,,,,,,,,,,,,,,,,,,,,,,,,,
,613a9833c9a297f3ac00743f,001,2022-04-28_20h38.45.243,classification_task,2021.2.3,MacIntel,59.93407252,613a9833c9a297f3ac00743f,626b377229c10585ec392f8a,626b3b477fd5610a2c41f186,,,,,,,,,,,,,,,,,,,,,,,l,1,0.8948,"[""0.079"",""0.329"",""0.497"",""0.044""]","[1,1,1,0]",0,46,46,46,1,1,1,,,0,FALSE,,,,,,,,,,,,,,,,,,,,,,,,,,,,,,
,613a9833c9a297f3ac00743f,001,2022-04-28_20h38.45.243,classification_task,2021.2.3,MacIntel,59.93407252,613a9833c9a297f3ac00743f,626b377229c10585ec392f8a,626b3b477fd5610a2c41f186,,,,,,,,,,,,,,,,,,,,,,,l,0,1.4516,"[""0.034"",""0.547"",""0.935"",""0.973""]","[0,1,1,1]",0,47,47,47,1,0,1,,,0,FALSE,,,,,,,,,,,,,,,,,,,,,,,,,,,,,,
,613a9833c9a297f3ac00743f,001,2022-04-28_20h38.45.243,classification_task,2021.2.3,MacIntel,59.93407252,613a9833c9a297f3ac00743f,626b377229c10585ec392f8a,626b3b477fd5610a2c41f186,,,,,,,,,,,,,,,,,,,,,,,l,1,1.5673,"[""0.120"",""0.806"",""0.437"",""0.708""]","[1,0,1,1]",0,48,48,48,1,1,0,,,0,FALSE,,,,,,,,,,,,,,,,,,,,,,,,,,,,,,
,613a9833c9a297f3ac00743f,001,2022-04-28_20h38.45.243,classification_task,2021.2.3,MacIntel,59.93407252,613a9833c9a297f3ac00743f,626b377229c10585ec392f8a,626b3b477fd5610a2c41f186,,,,,,,,,,,,,,,,,,,,,,,a,1,0.9355,"[""0.184"",""0.639"",""0.845"",""0.897""]","[1,0,1,1]",0,49,49,49,1,0,0,,,0,FALSE,,,,,,,,,,,,,,,,,,,,,,,,,,,,,,
,613a9833c9a297f3ac00743f,001,2022-04-28_20h38.45.243,classification_task,2021.2.3,MacIntel,59.93407252,613a9833c9a297f3ac00743f,626b377229c10585ec392f8a,626b3b477fd5610a2c41f186,,,,,,,,,,,,,,,,,,,,,,,l,0,1.1014,"[""0.034"",""0.547"",""0.935"",""0.973""]","[0,1,1,1]",0,50,50,50,1,0,1,,,0,FALSE,,,,,,,,,,,,,,,,,,,,,,,,,,,,,,
,613a9833c9a297f3ac00743f,001,2022-04-28_20h38.45.243,classification_task,2021.2.3,MacIntel,59.93407252,613a9833c9a297f3ac00743f,626b377229c10585ec392f8a,626b3b477fd5610a2c41f186,,,,,,,,,,,,,,,,,,,,,,,a,1,0.8242,"[""0.806"",""0.398"",""0.845"",""0.897""]","[0,1,1,1]",0,51,51,51,1,0,0,,,0,FALSE,,,,,,,,,,,,,,,,,,,,,,,,,,,,,,
,613a9833c9a297f3ac00743f,001,2022-04-28_20h38.45.243,classification_task,2021.2.3,MacIntel,59.93407252,613a9833c9a297f3ac00743f,626b377229c10585ec392f8a,626b3b477fd5610a2c41f186,,,,,,,,,,,,,,,,,,,,,,,l,1,1.3401,"[""0.043"",""0.329"",""0.497"",""0.771""]","[0,1,1,1]",0,52,52,52,1,1,1,,,0,FALSE,,,,,,,,,,,,,,,,,,,,,,,,,,,,,,
,613a9833c9a297f3ac00743f,001,2022-04-28_20h38.45.243,classification_task,2021.2.3,MacIntel,59.93407252,613a9833c9a297f3ac00743f,626b377229c10585ec392f8a,626b3b477fd5610a2c41f186,,,,,,,,,,,,,,,,,,,,,,,a,1,0.7766,"[""0.184"",""0.398"",""0.845"",""0.806""]","[1,1,1,0]",0,53,53,53,1,0,0,,,0,FALSE,,,,,,,,,,,,,,,,,,,,,,,,,,,,,,
,613a9833c9a297f3ac00743f,001,2022-04-28_20h38.45.243,classification_task,2021.2.3,MacIntel,59.93407252,613a9833c9a297f3ac00743f,626b377229c10585ec392f8a,626b3b477fd5610a2c41f186,,,,,,,,,,,,,,,,,,,,,,,l,1,0.9182,"[""0.120"",""0.263"",""0.666"",""0.708""]","[1,1,0,1]",0,54,54,54,1,1,0,,,0,FALSE,,,,,,,,,,,,,,,,,,,,,,,,,,,,,,
,613a9833c9a297f3ac00743f,001,2022-04-28_20h38.45.243,classification_task,2021.2.3,MacIntel,59.93407252,613a9833c9a297f3ac00743f,626b377229c10585ec392f8a,626b3b477fd5610a2c41f186,,,,,,,,,,,,,,,,,,,,,,,l,1,1.8388,"[""0.806"",""0.263"",""0.437"",""0.708""]","[0,1,1,1]",0,55,55,55,1,1,0,,,0,FALSE,,,,,,,,,,,,,,,,,,,,,,,,,,,,,,
,613a9833c9a297f3ac00743f,001,2022-04-28_20h38.45.243,classification_task,2021.2.3,MacIntel,59.93407252,613a9833c9a297f3ac00743f,626b377229c10585ec392f8a,626b3b477fd5610a2c41f186,,,,,,,,,,,,,,,,,,,,,,,a,1,1.5187,"[""0.184"",""0.398"",""0.643"",""0.897""]","[1,1,0,1]",0,56,56,56,1,0,0,,,0,FALSE,,,,,,,,,,,,,,,,,,,,,,,,,,,,,,
,613a9833c9a297f3ac00743f,001,2022-04-28_20h38.45.243,classification_task,2021.2.3,MacIntel,59.93407252,613a9833c9a297f3ac00743f,626b377229c10585ec392f8a,626b3b477fd5610a2c41f186,,,,,,,,,,,,,,,,,,,,,,,l,1,2.28,"[""0.079"",""0.329"",""0.806"",""0.771""]","[1,1,0,1]",0,57,57,57,1,1,1,,,0,FALSE,,,,,,,,,,,,,,,,,,,,,,,,,,,,,,
,613a9833c9a297f3ac00743f,001,2022-04-28_20h38.45.243,classification_task,2021.2.3,MacIntel,59.93407252,613a9833c9a297f3ac00743f,626b377229c10585ec392f8a,626b3b477fd5610a2c41f186,,,,,,,,,,,,,,,,,,,,,,,a,1,1.8073,"[""0.218"",""0.547"",""0.935"",""0.037""]","[1,1,1,0]",0,58,58,58,1,0,1,,,0,FALSE,,,,,,,,,,,,,,,,,,,,,,,,,,,,,,
,613a9833c9a297f3ac00743f,001,2022-04-28_20h38.45.243,classification_task,2021.2.3,MacIntel,59.93407252,613a9833c9a297f3ac00743f,626b377229c10585ec392f8a,626b3b477fd5610a2c41f186,,,,,,,,,,,,,,,,,,,,,,,l,1,1.2972,"[""0.079"",""0.666"",""0.497"",""0.771""]","[1,0,1,1]",0,59,59,59,1,1,1,,,0,FALSE,,,,,,,,,,,,,,,,,,,,,,,,,,,,,,
,613a9833c9a297f3ac00743f,001,2022-04-28_20h38.45.243,classification_task,2021.2.3,MacIntel,59.93407252,613a9833c9a297f3ac00743f,626b377229c10585ec392f8a,626b3b477fd5610a2c41f186,,,,,,,,,,,,,,,,,,,,,,,a,1,2.091,"[""0.218"",""0.547"",""0.669"",""0.973""]","[1,1,0,1]",0,60,60,60,1,0,1,,,0,FALSE,,,,,,,,,,,,,,,,,,,,,,,,,,,,,,
,613a9833c9a297f3ac00743f,001,2022-04-28_20h38.45.243,classification_task,2021.2.3,MacIntel,59.93407252,613a9833c9a297f3ac00743f,626b377229c10585ec392f8a,626b3b477fd5610a2c41f186,,,,,,,,,,,,,,,,,,,,,,,l,1,1.4066,"[""0.120"",""0.263"",""0.437"",""0.034""]","[1,1,1,0]",0,61,61,61,1,1,0,,,0,FALSE,,,,,,,,,,,,,,,,,,,,,,,,,,,,,,
,613a9833c9a297f3ac00743f,001,2022-04-28_20h38.45.243,classification_task,2021.2.3,MacIntel,59.93407252,613a9833c9a297f3ac00743f,626b377229c10585ec392f8a,626b3b477fd5610a2c41f186,,,,,,,,,,,,,,,,,,,,,,,a,1,1.2857,"[""0.218"",""0.635"",""0.935"",""0.973""]","[1,0,1,1]",0,62,62,62,1,0,1,,,0,FALSE,,,,,,,,,,,,,,,,,,,,,,,,,,,,,,
,613a9833c9a297f3ac00743f,001,2022-04-28_20h38.45.243,classification_task,2021.2.3,MacIntel,59.93407252,613a9833c9a297f3ac00743f,626b377229c10585ec392f8a,626b3b477fd5610a2c41f186,,,,,,,,,,,,,,,,,,,,,,,l,1,2.3361,"[""0.079"",""0.329"",""0.497"",""0.043""]","[1,1,1,0]",0,63,63,63,1,1,1,,,0,FALSE,,,,,,,,,,,,,,,,,,,,,,,,,,,,,,
,613a9833c9a297f3ac00743f,001,2022-04-28_20h38.45.243,classification_task,2021.2.3,MacIntel,59.93407252,613a9833c9a297f3ac00743f,626b377229c10585ec392f8a,626b3b477fd5610a2c41f186,,,,,,,,,,,,,,,,,,,,,,,,,,,,,,,,,,,,,,,0, ,,0,5.894177598,155.2925,0,2,2,2,1,2,3,,,,,,,,,,,,,,,,,
,613a9833c9a297f3ac00743f,001,2022-04-28_20h38.45.243,classification_task,2021.2.3,MacIntel,59.93407252,613a9833c9a297f3ac00743f,626b377229c10585ec392f8a,626b3b477fd5610a2c41f186,,,,,,,,,,,,,,,,,,,,,,,,,,,,,,,,,,,,,,,1,  ,,0,6.726638283,157.7702,0,2,2,2,1,2,3,,,,,,,,,,,,,,,,,
,613a9833c9a297f3ac00743f,001,2022-04-28_20h38.45.243,classification_task,2021.2.3,MacIntel,59.93407252,613a9833c9a297f3ac00743f,626b377229c10585ec392f8a,626b3b477fd5610a2c41f186,,,,,,,,,,,,,,,,,,,,,,,,,,,,,,,,,,,,,,,2,  ,,0,3.869480116,160.5558,0,2,2,2,1,2,3,,,,,,,,,,,,,,,,,
,613a9833c9a297f3ac00743f,001,2022-04-28_20h38.45.243,classification_task,2021.2.3,MacIntel,59.93407252,613a9833c9a297f3ac00743f,626b377229c10585ec392f8a,626b3b477fd5610a2c41f186,,,,,,,,,,,,,,,,,,,,,,,,,,,,,,,,,,,,,,,,,,,,,0,2,2,2,1,,3,,,,,,,,,,,,,,,,,
,613a9833c9a297f3ac00743f,001,2022-04-28_20h38.45.243,classification_task,2021.2.3,MacIntel,59.93407252,613a9833c9a297f3ac00743f,626b377229c10585ec392f8a,626b3b477fd5610a2c41f186,,,,,,,,,,,,,,,,,,,,,,,,,,,,,,,,,,,,,,,,,,,,,,,,,,,,,I believe the aid is a competent performer,,0.7,0,5,641.4704,0,0,0,0,1,0,,,,
,613a9833c9a297f3ac00743f,001,2022-04-28_20h38.45.243,classification_task,2021.2.3,MacIntel,59.93407252,613a9833c9a297f3ac00743f,626b377229c10585ec392f8a,626b3b477fd5610a2c41f186,,,,,,,,,,,,,,,,,,,,,,,,,,,,,,,,,,,,,,,,,,,,,,,,,,,,,I trust the aid,,0.7,0,5,643.8206,0,0,0,0,1,0,,,,
,613a9833c9a297f3ac00743f,001,2022-04-28_20h38.45.243,classification_task,2021.2.3,MacIntel,59.93407252,613a9833c9a297f3ac00743f,626b377229c10585ec392f8a,626b3b477fd5610a2c41f186,,,,,,,,,,,,,,,,,,,,,,,,,,,,,,,,,,,,,,,,,,,,,,,,,,,,,I have confidence in the advice given by the aid,,0.7,0,5,644.4489,0,0,0,0,1,0,,,,
,613a9833c9a297f3ac00743f,001,2022-04-28_20h38.45.243,classification_task,2021.2.3,MacIntel,59.93407252,613a9833c9a297f3ac00743f,626b377229c10585ec392f8a,626b3b477fd5610a2c41f186,,,,,,,,,,,,,,,,,,,,,,,,,,,,,,,,,,,,,,,,,,,,,,,,,,,,,I can depend on the aid,,0.7,0,5,644.978,0,0,0,0,1,0,,,,
,613a9833c9a297f3ac00743f,001,2022-04-28_20h38.45.243,classification_task,2021.2.3,MacIntel,59.93407252,613a9833c9a297f3ac00743f,626b377229c10585ec392f8a,626b3b477fd5610a2c41f186,,,,,,,,,,,,,,,,,,,,,,,,,,,,,,,,,,,,,,,,,,,,,,,,,,,,,I can rely on the aid to behave in consistent ways,,0.7,0,5,645.9199,0,0,0,0,1,0,,,,
,613a9833c9a297f3ac00743f,001,2022-04-28_20h38.45.243,classification_task,2021.2.3,MacIntel,59.93407252,613a9833c9a297f3ac00743f,626b377229c10585ec392f8a,626b3b477fd5610a2c41f186,,,,,,,,,,,,,,,,,,,,,,,,,,,,,,,,,,,,,,,,,,,,,,,,,,,,,I can rely on the aid to do its best every time I take its advice,,0.7,0,5,646.5032,0,0,0,0,1,0,,,,
,613a9833c9a297f3ac00743f,001,2022-04-28_20h38.45.243,classification_task,2021.2.3,MacIntel,59.93407252,613a9833c9a297f3ac00743f,626b377229c10585ec392f8a,626b3b477fd5610a2c41f186,,,,,,,,,,,,,,,,,,,,,,,,,,,,,,,,,,,,,,,,,,,,,,,,,,,,,"On trials you completed with assistance from the aid, how frequently did you think the aid was correct?",,0.7,0,100%,,0,0,0,0,1,0,,,,
,613a9833c9a297f3ac00743f,001,2022-04-28_20h38.45.243,classification_task,2021.2.3,MacIntel,59.93407252,613a9833c9a297f3ac00743f,626b377229c10585ec392f8a,626b3b477fd5610a2c41f186,,,,,,,,,,,,,,,,,,,,,,,,,,,,,,,,,,,,,,,,,,,,,,,,,,,,,"On trials you completed without the aid, how frequently did you think you were correct?",,0.7,0,60%,,0,0,0,0,1,0,,,,
,613a9833c9a297f3ac00743f,001,2022-04-28_20h38.45.243,classification_task,2021.2.3,MacIntel,59.93407252,613a9833c9a297f3ac00743f,626b377229c10585ec392f8a,626b3b477fd5610a2c41f186,,,,,,,,,,,,,,,,,,,,,,,,,,,,,,,,,,,,,,,,,,,,,,,,,,,,,,,,,,,0,0,0,0,1,,,,,
,613a9833c9a297f3ac00743f,001,2022-04-28_20h38.45.243,classification_task,2021.2.3,MacIntel,59.93407252,613a9833c9a297f3ac00743f,626b377229c10585ec392f8a,626b3b477fd5610a2c41f186,,,,,,,,,,,,,,,,,,,,,,,,,,,,,,,,,,,,,,,,,,,,,,,,,,,,,,,,,,,,,,,,,space,8.6653,674.3438,
,613a9833c9a297f3ac00743f,001,2022-04-28_20h38.45.243,classification_task,2021.2.3,MacIntel,59.93407252,613a9833c9a297f3ac00743f,626b377229c10585ec392f8a,626b3b477fd5610a2c41f186,,,,,,,,,,,,,,,,,,,,,,,,,,,,,,,,,,,,,,,,,,,,,,,,,,,,,,,,,,,,,,,,,,,,"Mozilla/5.0 (Macintosh; Intel Mac OS X 10_15_7) AppleWebKit/537.36 (KHTML, like Gecko) Chrome/100.0.4896.127 Safari/537.36"
