usingWebGL,participant,session,date,expName,psychopyVersion,OS,frameRate,study_id,signatures_friend,signatures_foe,band_ranges_top,band_ranges_bottom,formitemText,formtype,formundefined,formitemWidth,formindex,formresponse,formrt,key_resp_2.keys,key_resp_2.rt,tute_resp.keys,tute_resp.rt,tutorial.thisRepN,tutorial.thisTrialN,tutorial.thisN,tutorial.thisIndex,tutorial.ran,key_resp_4.keys,key_resp_4.rt,key_resp.keys,key_resp.corr,lines_presented,is_signal_presented,trials.thisRepN,trials.thisTrialN,trials.thisN,trials.thisIndex,trials.ran,vessel,active_band,lines,is_signal,supported_pos,catch_trial,key_resp.rt,debrief_formindex,debrief_formitemText,debrief_formtype,debrief_formitemWidth,debrief_formresponse,debrief_formrt,phases.thisRepN,phases.thisTrialN,phases.thisN,phases.thisIndex,phases.ran,phases.order,phase,key_resp_3.keys,trustitemText,trusttype,trustitemWidth,trustindex,trustresponse,trustrt,support_status.thisRepN,support_status.thisTrialN,support_status.thisN,support_status.thisIndex,support_status.ran,support_status.order,key_resp_5.keys,key_resp_5.rt,globalClockTime,userAgent,manualCondition
TRUE,613ad069b7f1de6a11fbf6b5,627c757313639d58a5c00530,2022-05-11_21h49.50.071,classification_task,2021.2.3,MacIntel,60.0024001,627c6715c52fd12f31907bd0,,,,,,,,,,,,,,,,,,,,,,,,,,,,,,,,,,,,,,,,,,,,,,,,,,,,,,,,,,,,,,,,,,,,,
,613ad069b7f1de6a11fbf6b5,627c757313639d58a5c00530,2022-05-11_21h49.50.071,classification_task,2021.2.3,MacIntel,60.0024001,627c6715c52fd12f31907bd0,"[[""0.285"",""0.530"",""0.880"",""0.916""],[""0.243"",""0.396"",""0.776"",""0.953""]]","[[""0.156"",""0.360"",""0.494"",""0.730""],[""0.069"",""0.431"",""0.566"",""0.823""]]","[1,10]","[100,1000]",Video game experience,,,0.7,0,,,,,,,,,,,,,,,,,,,,,,,,,,,,,,,,,,,,,,,,,,,,,,,,,,,,,,,,,,,,
,613ad069b7f1de6a11fbf6b5,627c757313639d58a5c00530,2022-05-11_21h49.50.071,classification_task,2021.2.3,MacIntel,60.0024001,627c6715c52fd12f31907bd0,,,,,Approximately how many hours did you spend playing video games in the last week?,,,0.7,0,4,,,,,,,,,,,,,,,,,,,,,,,,,,,,,,,,,,,,,,,,,,,,,,,,,,,,,,,,,,,
,613ad069b7f1de6a11fbf6b5,627c757313639d58a5c00530,2022-05-11_21h49.50.071,classification_task,2021.2.3,MacIntel,60.0024001,627c6715c52fd12f31907bd0,,,,,"Which game did you play the most this year? (Enter ""None"" if you didn't play any)",,,0.7,0,gta,,,,,,,,,,,,,,,,,,,,,,,,,,,,,,,,,,,,,,,,,,,,,,,,,,,,,,,,,,,
,613ad069b7f1de6a11fbf6b5,627c757313639d58a5c00530,2022-05-11_21h49.50.071,classification_task,2021.2.3,MacIntel,60.0024001,627c6715c52fd12f31907bd0,,,,,Visual perception,,,0.7,0,,,,,,,,,,,,,,,,,,,,,,,,,,,,,,,,,,,,,,,,,,,,,,,,,,,,,,,,,,,,
,613ad069b7f1de6a11fbf6b5,627c757313639d58a5c00530,2022-05-11_21h49.50.071,classification_task,2021.2.3,MacIntel,60.0024001,627c6715c52fd12f31907bd0,,,,,Do you have any form of color blindness?,,,0.7,0,No,28.2565,,,,,,,,,,,,,,,,,,,,,,,,,,,,,,,,,,,,,,,,,,,,,,,,,,,,,,,,,,
,613ad069b7f1de6a11fbf6b5,627c757313639d58a5c00530,2022-05-11_21h49.50.071,classification_task,2021.2.3,MacIntel,60.0024001,627c6715c52fd12f31907bd0,,,,,Do you use software to change the colour temperature of your screen (e.g. f.lux)?,,,0.7,0,No,31.5195,,,,,,,,,,,,,,,,,,,,,,,,,,,,,,,,,,,,,,,,,,,,,,,,,,,,,,,,,,
,613ad069b7f1de6a11fbf6b5,627c757313639d58a5c00530,2022-05-11_21h49.50.071,classification_task,2021.2.3,MacIntel,60.0024001,627c6715c52fd12f31907bd0,,,,,,,,,,,,space,28.1294,space,6.8647,0,0,0,0,1,,,,,,,,,,,,,,,,,,,,,,,,,,,,,,,,,,,,,,,,,,,,,,,,,
,613ad069b7f1de6a11fbf6b5,627c757313639d58a5c00530,2022-05-11_21h49.50.071,classification_task,2021.2.3,MacIntel,60.0024001,627c6715c52fd12f31907bd0,,,,,,,,,,,,,,space,8.1834,1,0,1,0,1,,,,,,,,,,,,,,,,,,,,,,,,,,,,,,,,,,,,,,,,,,,,,,,,,
,613ad069b7f1de6a11fbf6b5,627c757313639d58a5c00530,2022-05-11_21h49.50.071,classification_task,2021.2.3,MacIntel,60.0024001,627c6715c52fd12f31907bd0,,,,,,,,,,,,,,space,17.0464,2,0,2,0,1,,,,,,,,,,,,,,,,,,,,,,,,,,,,,,,,,,,,,,,,,,,,,,,,,
,613ad069b7f1de6a11fbf6b5,627c757313639d58a5c00530,2022-05-11_21h49.50.071,classification_task,2021.2.3,MacIntel,60.0024001,627c6715c52fd12f31907bd0,,,,,,,,,,,,,,space,23.6805,3,0,3,0,1,,,,,,,,,,,,,,,,,,,,,,,,,,,,,,,,,,,,,,,,,,,,,,,,,
,613ad069b7f1de6a11fbf6b5,627c757313639d58a5c00530,2022-05-11_21h49.50.071,classification_task,2021.2.3,MacIntel,60.0024001,627c6715c52fd12f31907bd0,,,,,,,,,,,,,,space,12.0627,4,0,4,0,1,,,,,,,,,,,,,,,,,,,,,,,,,,,,,,,,,,,,,,,,,,,,,,,,,
,613ad069b7f1de6a11fbf6b5,627c757313639d58a5c00530,2022-05-11_21h49.50.071,classification_task,2021.2.3,MacIntel,60.0024001,627c6715c52fd12f31907bd0,,,,,,,,,,,,,,,,,,,,,space,11.4234,,0,"[""0.630"",""0.396"",""0.776"",""0.953""]","[0,1,1,1]",0,0,0,0,1,0,1,,,1,FALSE,,,,,,,,,,,,,,,,,,,,,,,,,,,,,,,,
,613ad069b7f1de6a11fbf6b5,627c757313639d58a5c00530,2022-05-11_21h49.50.071,classification_task,2021.2.3,MacIntel,60.0024001,627c6715c52fd12f31907bd0,,,,,,,,,,,,,,,,,,,,,,,l,1,"[""0.156"",""0.360"",""0.494"",""0.659""]","[1,1,1,0]",0,1,1,1,1,1,0,,,1,FALSE,5.1771,,,,,,,,,,,,,,,,,,,,,,,,,,,,,,,
,613ad069b7f1de6a11fbf6b5,627c757313639d58a5c00530,2022-05-11_21h49.50.071,classification_task,2021.2.3,MacIntel,60.0024001,627c6715c52fd12f31907bd0,,,,,,,,,,,,,,,,,,,,,,,l,1,"[""0.604"",""0.431"",""0.566"",""0.823""]","[0,1,1,1]",0,2,2,2,1,1,1,,,1,FALSE,6.6977,,,,,,,,,,,,,,,,,,,,,,,,,,,,,,,
,613ad069b7f1de6a11fbf6b5,627c757313639d58a5c00530,2022-05-11_21h49.50.071,classification_task,2021.2.3,MacIntel,60.0024001,627c6715c52fd12f31907bd0,,,,,,,,,,,,,,,,,,,,,,,a,1,"[""0.243"",""0.630"",""0.776"",""0.953""]","[1,0,1,1]",0,3,3,3,1,0,1,,,1,FALSE,4.705,,,,,,,,,,,,,,,,,,,,,,,,,,,,,,,
,613ad069b7f1de6a11fbf6b5,627c757313639d58a5c00530,2022-05-11_21h49.50.071,classification_task,2021.2.3,MacIntel,60.0024001,627c6715c52fd12f31907bd0,,,,,,,,,,,,,,,,,,,,,,,l,1,"[""0.069"",""0.646"",""0.566"",""0.823""]","[1,0,1,1]",0,4,4,4,1,1,1,,,1,FALSE,3.4037,,,,,,,,,,,,,,,,,,,,,,,,,,,,,,,
,613ad069b7f1de6a11fbf6b5,627c757313639d58a5c00530,2022-05-11_21h49.50.071,classification_task,2021.2.3,MacIntel,60.0024001,627c6715c52fd12f31907bd0,,,,,,,,,,,,,,,,,,,,,,,a,1,"[""0.285"",""0.604"",""0.880"",""0.916""]","[1,0,1,1]",0,5,5,5,1,0,0,,,1,FALSE,3.7675,,,,,,,,,,,,,,,,,,,,,,,,,,,,,,,
,613ad069b7f1de6a11fbf6b5,627c757313639d58a5c00530,2022-05-11_21h49.50.071,classification_task,2021.2.3,MacIntel,60.0024001,627c6715c52fd12f31907bd0,,,,,,,,,,,,,,,,,,,,,,,l,0,"[""0.243"",""0.396"",""0.109"",""0.953""]","[1,1,0,1]",0,6,6,6,1,0,1,,,1,FALSE,4.785,,,,,,,,,,,,,,,,,,,,,,,,,,,,,,,
,613ad069b7f1de6a11fbf6b5,627c757313639d58a5c00530,2022-05-11_21h49.50.071,classification_task,2021.2.3,MacIntel,60.0024001,627c6715c52fd12f31907bd0,,,,,,,,,,,,,,,,,,,,,,,a,1,"[""0.691"",""0.530"",""0.880"",""0.916""]","[0,1,1,1]",0,7,7,7,1,0,0,,,1,FALSE,4.6352,,,,,,,,,,,,,,,,,,,,,,,,,,,,,,,
,613ad069b7f1de6a11fbf6b5,627c757313639d58a5c00530,2022-05-11_21h49.50.071,classification_task,2021.2.3,MacIntel,60.0024001,627c6715c52fd12f31907bd0,,,,,,,,,,,,,,,,,,,,,,,a,1,"[""0.285"",""0.530"",""0.322"",""0.916""]","[1,1,0,1]",0,8,8,8,1,0,0,,,1,FALSE,3.1562,,,,,,,,,,,,,,,,,,,,,,,,,,,,,,,
,613ad069b7f1de6a11fbf6b5,627c757313639d58a5c00530,2022-05-11_21h49.50.071,classification_task,2021.2.3,MacIntel,60.0024001,627c6715c52fd12f31907bd0,,,,,,,,,,,,,,,,,,,,,,,l,1,"[""0.156"",""0.109"",""0.494"",""0.730""]","[1,0,1,1]",0,9,9,9,1,1,0,,,1,FALSE,5.6893,,,,,,,,,,,,,,,,,,,,,,,,,,,,,,,
,613ad069b7f1de6a11fbf6b5,627c757313639d58a5c00530,2022-05-11_21h49.50.071,classification_task,2021.2.3,MacIntel,60.0024001,627c6715c52fd12f31907bd0,,,,,,,,,,,,,,,,,,,,,,,l,1,"[""0.156"",""0.360"",""0.604"",""0.730""]","[1,1,0,1]",0,10,10,10,1,1,0,,,1,FALSE,3.8874,,,,,,,,,,,,,,,,,,,,,,,,,,,,,,,
,613ad069b7f1de6a11fbf6b5,627c757313639d58a5c00530,2022-05-11_21h49.50.071,classification_task,2021.2.3,MacIntel,60.0024001,627c6715c52fd12f31907bd0,,,,,,,,,,,,,,,,,,,,,,,a,1,"[""0.243"",""0.396"",""0.776"",""0.655""]","[1,1,1,0]",0,11,11,11,1,0,1,,,1,FALSE,3.4021,,,,,,,,,,,,,,,,,,,,,,,,,,,,,,,
,613ad069b7f1de6a11fbf6b5,627c757313639d58a5c00530,2022-05-11_21h49.50.071,classification_task,2021.2.3,MacIntel,60.0024001,627c6715c52fd12f31907bd0,,,,,,,,,,,,,,,,,,,,,,,l,1,"[""0.069"",""0.431"",""0.630"",""0.823""]","[1,1,0,1]",0,12,12,12,1,1,1,,,1,FALSE,2.588,,,,,,,,,,,,,,,,,,,,,,,,,,,,,,,
,613ad069b7f1de6a11fbf6b5,627c757313639d58a5c00530,2022-05-11_21h49.50.071,classification_task,2021.2.3,MacIntel,60.0024001,627c6715c52fd12f31907bd0,,,,,,,,,,,,,,,,,,,,,,,l,1,"[""0.069"",""0.431"",""0.566"",""0.192""]","[1,1,1,0]",0,13,13,13,1,1,1,,,1,FALSE,2.2844,,,,,,,,,,,,,,,,,,,,,,,,,,,,,,,
,613ad069b7f1de6a11fbf6b5,627c757313639d58a5c00530,2022-05-11_21h49.50.071,classification_task,2021.2.3,MacIntel,60.0024001,627c6715c52fd12f31907bd0,,,,,,,,,,,,,,,,,,,,,,,l,1,"[""0.120"",""0.360"",""0.494"",""0.730""]","[0,1,1,1]",0,14,14,14,1,1,0,,,1,FALSE,3.5561,,,,,,,,,,,,,,,,,,,,,,,,,,,,,,,
,613ad069b7f1de6a11fbf6b5,627c757313639d58a5c00530,2022-05-11_21h49.50.071,classification_task,2021.2.3,MacIntel,60.0024001,627c6715c52fd12f31907bd0,,,,,,,,,,,,,,,,,,,,,,,l,0,"[""0.285"",""0.530"",""0.880"",""0.322""]","[1,1,1,0]",0,15,15,15,1,0,0,,,1,FALSE,4.8695,,,,,,,,,,,,,,,,,,,,,,,,,,,,,,,
,613ad069b7f1de6a11fbf6b5,627c757313639d58a5c00530,2022-05-11_21h49.50.071,classification_task,2021.2.3,MacIntel,60.0024001,627c6715c52fd12f31907bd0,,,,,,,,,,,,,,,,,,,,,,,a,1,"[""0.285"",""0.530"",""0.690"",""0.916""]","[1,1,0,1]",0,16,16,16,1,0,0,,,1,FALSE,3.0671,,,,,,,,,,,,,,,,,,,,,,,,,,,,,,,
,613ad069b7f1de6a11fbf6b5,627c757313639d58a5c00530,2022-05-11_21h49.50.071,classification_task,2021.2.3,MacIntel,60.0024001,627c6715c52fd12f31907bd0,,,,,,,,,,,,,,,,,,,,,,,a,0,"[""0.691"",""0.360"",""0.494"",""0.730""]","[0,1,1,1]",0,17,17,17,1,1,0,,,1,FALSE,3.2729,,,,,,,,,,,,,,,,,,,,,,,,,,,,,,,
,613ad069b7f1de6a11fbf6b5,627c757313639d58a5c00530,2022-05-11_21h49.50.071,classification_task,2021.2.3,MacIntel,60.0024001,627c6715c52fd12f31907bd0,,,,,,,,,,,,,,,,,,,,,,,l,0,"[""0.243"",""0.396"",""0.776"",""0.120""]","[1,1,1,0]",0,18,18,18,1,0,1,,,1,FALSE,5.3974,,,,,,,,,,,,,,,,,,,,,,,,,,,,,,,
,613ad069b7f1de6a11fbf6b5,627c757313639d58a5c00530,2022-05-11_21h49.50.071,classification_task,2021.2.3,MacIntel,60.0024001,627c6715c52fd12f31907bd0,,,,,,,,,,,,,,,,,,,,,,,,0,"[""0.028"",""0.530"",""0.880"",""0.916""]","[0,1,1,1]",0,19,19,19,1,0,0,,,1,FALSE,,,,,,,,,,,,,,,,,,,,,,,,,,,,,,,,
,613ad069b7f1de6a11fbf6b5,627c757313639d58a5c00530,2022-05-11_21h49.50.071,classification_task,2021.2.3,MacIntel,60.0024001,627c6715c52fd12f31907bd0,,,,,,,,,,,,,,,,,,,,,,,,0,"[""0.192"",""0.431"",""0.566"",""0.823""]","[0,1,1,1]",0,20,20,20,1,1,1,,,1,FALSE,,,,,,,,,,,,,,,,,,,,,,,,,,,,,,,,
,613ad069b7f1de6a11fbf6b5,627c757313639d58a5c00530,2022-05-11_21h49.50.071,classification_task,2021.2.3,MacIntel,60.0024001,627c6715c52fd12f31907bd0,,,,,,,,,,,,,,,,,,,,,,,a,1,"[""0.646"",""0.396"",""0.776"",""0.953""]","[0,1,1,1]",0,21,21,21,1,0,1,,,1,FALSE,6.018,,,,,,,,,,,,,,,,,,,,,,,,,,,,,,,
,613ad069b7f1de6a11fbf6b5,627c757313639d58a5c00530,2022-05-11_21h49.50.071,classification_task,2021.2.3,MacIntel,60.0024001,627c6715c52fd12f31907bd0,,,,,,,,,,,,,,,,,,,,,,,l,1,"[""0.156"",""0.360"",""0.630"",""0.730""]","[1,1,0,1]",0,22,22,22,1,1,0,,,1,FALSE,3.5844,,,,,,,,,,,,,,,,,,,,,,,,,,,,,,,
,613ad069b7f1de6a11fbf6b5,627c757313639d58a5c00530,2022-05-11_21h49.50.071,classification_task,2021.2.3,MacIntel,60.0024001,627c6715c52fd12f31907bd0,,,,,,,,,,,,,,,,,,,,,,,l,0,"[""0.285"",""0.659"",""0.880"",""0.916""]","[1,0,1,1]",0,23,23,23,1,0,0,,,1,FALSE,2.6196,,,,,,,,,,,,,,,,,,,,,,,,,,,,,,,
,613ad069b7f1de6a11fbf6b5,627c757313639d58a5c00530,2022-05-11_21h49.50.071,classification_task,2021.2.3,MacIntel,60.0024001,627c6715c52fd12f31907bd0,,,,,,,,,,,,,,,,,,,,,,,l,0,"[""0.243"",""0.109"",""0.776"",""0.953""]","[1,0,1,1]",0,24,24,24,1,0,1,,,1,FALSE,4.302,,,,,,,,,,,,,,,,,,,,,,,,,,,,,,,
,613ad069b7f1de6a11fbf6b5,627c757313639d58a5c00530,2022-05-11_21h49.50.071,classification_task,2021.2.3,MacIntel,60.0024001,627c6715c52fd12f31907bd0,,,,,,,,,,,,,,,,,,,,,,,l,1,"[""0.156"",""0.691"",""0.494"",""0.730""]","[1,0,1,1]",0,25,25,25,1,1,0,,,1,FALSE,3.5051,,,,,,,,,,,,,,,,,,,,,,,,,,,,,,,
,613ad069b7f1de6a11fbf6b5,627c757313639d58a5c00530,2022-05-11_21h49.50.071,classification_task,2021.2.3,MacIntel,60.0024001,627c6715c52fd12f31907bd0,,,,,,,,,,,,,,,,,,,,,,,l,1,"[""0.156"",""0.360"",""0.494"",""0.679""]","[1,1,1,0]",0,26,26,26,1,1,0,,,1,FALSE,3.0879,,,,,,,,,,,,,,,,,,,,,,,,,,,,,,,
,613ad069b7f1de6a11fbf6b5,627c757313639d58a5c00530,2022-05-11_21h49.50.071,classification_task,2021.2.3,MacIntel,60.0024001,627c6715c52fd12f31907bd0,,,,,,,,,,,,,,,,,,,,,,,l,1,"[""0.069"",""0.646"",""0.566"",""0.823""]","[1,0,1,1]",0,27,27,27,1,1,1,,,1,FALSE,2.417,,,,,,,,,,,,,,,,,,,,,,,,,,,,,,,
,613ad069b7f1de6a11fbf6b5,627c757313639d58a5c00530,2022-05-11_21h49.50.071,classification_task,2021.2.3,MacIntel,60.0024001,627c6715c52fd12f31907bd0,,,,,,,,,,,,,,,,,,,,,,,a,1,"[""0.285"",""0.530"",""0.880"",""0.691""]","[1,1,1,0]",0,28,28,28,1,0,0,,,1,FALSE,2.7831,,,,,,,,,,,,,,,,,,,,,,,,,,,,,,,
,613ad069b7f1de6a11fbf6b5,627c757313639d58a5c00530,2022-05-11_21h49.50.071,classification_task,2021.2.3,MacIntel,60.0024001,627c6715c52fd12f31907bd0,,,,,,,,,,,,,,,,,,,,,,,a,1,"[""0.243"",""0.396"",""0.109"",""0.953""]","[1,1,0,1]",0,29,29,29,1,0,1,,,1,FALSE,8.5358,,,,,,,,,,,,,,,,,,,,,,,,,,,,,,,
,613ad069b7f1de6a11fbf6b5,627c757313639d58a5c00530,2022-05-11_21h49.50.071,classification_task,2021.2.3,MacIntel,60.0024001,627c6715c52fd12f31907bd0,,,,,,,,,,,,,,,,,,,,,,,l,1,"[""0.069"",""0.431"",""0.566"",""0.322""]","[1,1,1,0]",0,30,30,30,1,1,1,,,1,FALSE,4.3389,,,,,,,,,,,,,,,,,,,,,,,,,,,,,,,
,613ad069b7f1de6a11fbf6b5,627c757313639d58a5c00530,2022-05-11_21h49.50.071,classification_task,2021.2.3,MacIntel,60.0024001,627c6715c52fd12f31907bd0,,,,,,,,,,,,,,,,,,,,,,,l,1,"[""0.069"",""0.431"",""0.114"",""0.823""]","[1,1,0,1]",0,31,31,31,1,1,1,,,1,FALSE,6.4706,,,,,,,,,,,,,,,,,,,,,,,,,,,,,,,
,613ad069b7f1de6a11fbf6b5,627c757313639d58a5c00530,2022-05-11_21h49.50.071,classification_task,2021.2.3,MacIntel,60.0024001,627c6715c52fd12f31907bd0,,,,,,,,,,,,,,,,,,,,,,,a,1,"[""0.120"",""0.530"",""0.880"",""0.916""]","[0,1,1,1]",0,32,32,32,1,0,0,,,1,FALSE,5.5334,,,,,,,,,,,,,,,,,,,,,,,,,,,,,,,
,613ad069b7f1de6a11fbf6b5,627c757313639d58a5c00530,2022-05-11_21h49.50.071,classification_task,2021.2.3,MacIntel,60.0024001,627c6715c52fd12f31907bd0,,,,,,,,,,,,,,,,,,,,,,,l,0,"[""0.285"",""0.109"",""0.880"",""0.916""]","[1,0,1,1]",0,33,33,33,1,0,0,,,1,FALSE,2.4351,,,,,,,,,,,,,,,,,,,,,,,,,,,,,,,
,613ad069b7f1de6a11fbf6b5,627c757313639d58a5c00530,2022-05-11_21h49.50.071,classification_task,2021.2.3,MacIntel,60.0024001,627c6715c52fd12f31907bd0,,,,,,,,,,,,,,,,,,,,,,,l,0,"[""0.243"",""0.396"",""0.028"",""0.953""]","[1,1,0,1]",0,34,34,34,1,0,1,,,1,FALSE,1.8209,,,,,,,,,,,,,,,,,,,,,,,,,,,,,,,
,613ad069b7f1de6a11fbf6b5,627c757313639d58a5c00530,2022-05-11_21h49.50.071,classification_task,2021.2.3,MacIntel,60.0024001,627c6715c52fd12f31907bd0,,,,,,,,,,,,,,,,,,,,,,,l,1,"[""0.156"",""0.120"",""0.494"",""0.730""]","[1,0,1,1]",0,35,35,35,1,1,0,,,1,FALSE,3.4809,,,,,,,,,,,,,,,,,,,,,,,,,,,,,,,
,613ad069b7f1de6a11fbf6b5,627c757313639d58a5c00530,2022-05-11_21h49.50.071,classification_task,2021.2.3,MacIntel,60.0024001,627c6715c52fd12f31907bd0,,,,,,,,,,,,,,,,,,,,,,,a,0,"[""0.069"",""0.431"",""0.604"",""0.823""]","[1,1,0,1]",0,36,36,36,1,1,1,,,1,FALSE,0.855,,,,,,,,,,,,,,,,,,,,,,,,,,,,,,,
,613ad069b7f1de6a11fbf6b5,627c757313639d58a5c00530,2022-05-11_21h49.50.071,classification_task,2021.2.3,MacIntel,60.0024001,627c6715c52fd12f31907bd0,,,,,,,,,,,,,,,,,,,,,,,a,1,"[""0.285"",""0.530"",""0.880"",""0.109""]","[1,1,1,0]",0,37,37,37,1,0,0,,,1,FALSE,1.7158,,,,,,,,,,,,,,,,,,,,,,,,,,,,,,,
,613ad069b7f1de6a11fbf6b5,627c757313639d58a5c00530,2022-05-11_21h49.50.071,classification_task,2021.2.3,MacIntel,60.0024001,627c6715c52fd12f31907bd0,,,,,,,,,,,,,,,,,,,,,,,l,1,"[""0.069"",""0.691"",""0.566"",""0.823""]","[1,0,1,1]",0,38,38,38,1,1,1,,,1,FALSE,1.6479,,,,,,,,,,,,,,,,,,,,,,,,,,,,,,,
,613ad069b7f1de6a11fbf6b5,627c757313639d58a5c00530,2022-05-11_21h49.50.071,classification_task,2021.2.3,MacIntel,60.0024001,627c6715c52fd12f31907bd0,,,,,,,,,,,,,,,,,,,,,,,a,1,"[""0.243"",""0.396"",""0.776"",""0.630""]","[1,1,1,0]",0,39,39,39,1,0,1,,,1,FALSE,1.5376,,,,,,,,,,,,,,,,,,,,,,,,,,,,,,,
,613ad069b7f1de6a11fbf6b5,627c757313639d58a5c00530,2022-05-11_21h49.50.071,classification_task,2021.2.3,MacIntel,60.0024001,627c6715c52fd12f31907bd0,,,,,,,,,,,,,,,,,,,,,,,l,0,"[""0.285"",""0.530"",""0.659"",""0.916""]","[1,1,0,1]",0,40,40,40,1,0,0,,,1,FALSE,1.9301,,,,,,,,,,,,,,,,,,,,,,,,,,,,,,,
,613ad069b7f1de6a11fbf6b5,627c757313639d58a5c00530,2022-05-11_21h49.50.071,classification_task,2021.2.3,MacIntel,60.0024001,627c6715c52fd12f31907bd0,,,,,,,,,,,,,,,,,,,,,,,a,0,"[""0.156"",""0.360"",""0.494"",""0.691""]","[1,1,1,0]",0,41,41,41,1,1,0,,,1,FALSE,1.7521,,,,,,,,,,,,,,,,,,,,,,,,,,,,,,,
,613ad069b7f1de6a11fbf6b5,627c757313639d58a5c00530,2022-05-11_21h49.50.071,classification_task,2021.2.3,MacIntel,60.0024001,627c6715c52fd12f31907bd0,,,,,,,,,,,,,,,,,,,,,,,a,1,"[""0.243"",""0.629"",""0.776"",""0.953""]","[1,0,1,1]",0,42,42,42,1,0,1,,,1,FALSE,1.3319,,,,,,,,,,,,,,,,,,,,,,,,,,,,,,,
,613ad069b7f1de6a11fbf6b5,627c757313639d58a5c00530,2022-05-11_21h49.50.071,classification_task,2021.2.3,MacIntel,60.0024001,627c6715c52fd12f31907bd0,,,,,,,,,,,,,,,,,,,,,,,l,1,"[""0.120"",""0.431"",""0.566"",""0.823""]","[0,1,1,1]",0,43,43,43,1,1,1,,,1,FALSE,1.6483,,,,,,,,,,,,,,,,,,,,,,,,,,,,,,,
,613ad069b7f1de6a11fbf6b5,627c757313639d58a5c00530,2022-05-11_21h49.50.071,classification_task,2021.2.3,MacIntel,60.0024001,627c6715c52fd12f31907bd0,,,,,,,,,,,,,,,,,,,,,,,l,1,"[""0.069"",""0.431"",""0.566"",""0.114""]","[1,1,1,0]",0,44,44,44,1,1,1,,,1,FALSE,1.5498,,,,,,,,,,,,,,,,,,,,,,,,,,,,,,,
,613ad069b7f1de6a11fbf6b5,627c757313639d58a5c00530,2022-05-11_21h49.50.071,classification_task,2021.2.3,MacIntel,60.0024001,627c6715c52fd12f31907bd0,,,,,,,,,,,,,,,,,,,,,,,a,0,"[""0.156"",""0.360"",""0.114"",""0.730""]","[1,1,0,1]",0,45,45,45,1,1,0,,,1,FALSE,1.2846,,,,,,,,,,,,,,,,,,,,,,,,,,,,,,,
,613ad069b7f1de6a11fbf6b5,627c757313639d58a5c00530,2022-05-11_21h49.50.071,classification_task,2021.2.3,MacIntel,60.0024001,627c6715c52fd12f31907bd0,,,,,,,,,,,,,,,,,,,,,,,a,0,"[""0.109"",""0.360"",""0.494"",""0.730""]","[0,1,1,1]",0,46,46,46,1,1,0,,,1,FALSE,1.1818,,,,,,,,,,,,,,,,,,,,,,,,,,,,,,,
,613ad069b7f1de6a11fbf6b5,627c757313639d58a5c00530,2022-05-11_21h49.50.071,classification_task,2021.2.3,MacIntel,60.0024001,627c6715c52fd12f31907bd0,,,,,,,,,,,,,,,,,,,,,,,a,1,"[""0.114"",""0.396"",""0.776"",""0.953""]","[0,1,1,1]",0,47,47,47,1,0,1,,,1,FALSE,0.7665,,,,,,,,,,,,,,,,,,,,,,,,,,,,,,,
,613ad069b7f1de6a11fbf6b5,627c757313639d58a5c00530,2022-05-11_21h49.50.071,classification_task,2021.2.3,MacIntel,60.0024001,627c6715c52fd12f31907bd0,,,,,,,,,,,,,,,,,,,,,,,a,0,"[""0.069"",""0.431"",""0.566"",""0.028""]","[1,1,1,0]",0,48,48,48,1,1,1,,,1,FALSE,1.4484,,,,,,,,,,,,,,,,,,,,,,,,,,,,,,,
,613ad069b7f1de6a11fbf6b5,627c757313639d58a5c00530,2022-05-11_21h49.50.071,classification_task,2021.2.3,MacIntel,60.0024001,627c6715c52fd12f31907bd0,,,,,,,,,,,,,,,,,,,,,,,l,0,"[""0.285"",""0.530"",""0.880"",""0.109""]","[1,1,1,0]",0,49,49,49,1,0,0,,,1,FALSE,1.0315,,,,,,,,,,,,,,,,,,,,,,,,,,,,,,,
,613ad069b7f1de6a11fbf6b5,627c757313639d58a5c00530,2022-05-11_21h49.50.071,classification_task,2021.2.3,MacIntel,60.0024001,627c6715c52fd12f31907bd0,,,,,,,,,,,,,,,,,,,,,,,a,1,"[""0.285"",""0.655"",""0.880"",""0.916""]","[1,0,1,1]",0,50,50,50,1,0,0,,,1,FALSE,1.4977,,,,,,,,,,,,,,,,,,,,,,,,,,,,,,,
,613ad069b7f1de6a11fbf6b5,627c757313639d58a5c00530,2022-05-11_21h49.50.071,classification_task,2021.2.3,MacIntel,60.0024001,627c6715c52fd12f31907bd0,,,,,,,,,,,,,,,,,,,,,,,l,1,"[""0.156"",""0.114"",""0.494"",""0.730""]","[1,0,1,1]",0,51,51,51,1,1,0,,,1,FALSE,1.5486,,,,,,,,,,,,,,,,,,,,,,,,,,,,,,,
,613ad069b7f1de6a11fbf6b5,627c757313639d58a5c00530,2022-05-11_21h49.50.071,classification_task,2021.2.3,MacIntel,60.0024001,627c6715c52fd12f31907bd0,,,,,,,,,,,,,,,,,,,,,,,a,0,"[""0.690"",""0.360"",""0.494"",""0.730""]","[0,1,1,1]",0,52,52,52,1,1,0,,,1,FALSE,1.1366,,,,,,,,,,,,,,,,,,,,,,,,,,,,,,,
,613ad069b7f1de6a11fbf6b5,627c757313639d58a5c00530,2022-05-11_21h49.50.071,classification_task,2021.2.3,MacIntel,60.0024001,627c6715c52fd12f31907bd0,,,,,,,,,,,,,,,,,,,,,,,l,0,"[""0.243"",""0.396"",""0.776"",""0.109""]","[1,1,1,0]",0,53,53,53,1,0,1,,,1,FALSE,1.0338,,,,,,,,,,,,,,,,,,,,,,,,,,,,,,,
,613ad069b7f1de6a11fbf6b5,627c757313639d58a5c00530,2022-05-11_21h49.50.071,classification_task,2021.2.3,MacIntel,60.0024001,627c6715c52fd12f31907bd0,,,,,,,,,,,,,,,,,,,,,,,l,1,"[""0.156"",""0.360"",""0.114"",""0.730""]","[1,1,0,1]",0,54,54,54,1,1,0,,,1,FALSE,0.6961,,,,,,,,,,,,,,,,,,,,,,,,,,,,,,,
,613ad069b7f1de6a11fbf6b5,627c757313639d58a5c00530,2022-05-11_21h49.50.071,classification_task,2021.2.3,MacIntel,60.0024001,627c6715c52fd12f31907bd0,,,,,,,,,,,,,,,,,,,,,,,l,1,"[""0.655"",""0.431"",""0.566"",""0.823""]","[0,1,1,1]",0,55,55,55,1,1,1,,,1,FALSE,1.2299,,,,,,,,,,,,,,,,,,,,,,,,,,,,,,,
,613ad069b7f1de6a11fbf6b5,627c757313639d58a5c00530,2022-05-11_21h49.50.071,classification_task,2021.2.3,MacIntel,60.0024001,627c6715c52fd12f31907bd0,,,,,,,,,,,,,,,,,,,,,,,a,0,"[""0.069"",""0.431"",""0.659"",""0.823""]","[1,1,0,1]",0,56,56,56,1,1,1,,,1,FALSE,0.5656,,,,,,,,,,,,,,,,,,,,,,,,,,,,,,,
,613ad069b7f1de6a11fbf6b5,627c757313639d58a5c00530,2022-05-11_21h49.50.071,classification_task,2021.2.3,MacIntel,60.0024001,627c6715c52fd12f31907bd0,,,,,,,,,,,,,,,,,,,,,,,a,1,"[""0.659"",""0.396"",""0.776"",""0.953""]","[0,1,1,1]",0,57,57,57,1,0,1,,,1,FALSE,0.5642,,,,,,,,,,,,,,,,,,,,,,,,,,,,,,,
,613ad069b7f1de6a11fbf6b5,627c757313639d58a5c00530,2022-05-11_21h49.50.071,classification_task,2021.2.3,MacIntel,60.0024001,627c6715c52fd12f31907bd0,,,,,,,,,,,,,,,,,,,,,,,a,0,"[""0.156"",""0.360"",""0.494"",""0.630""]","[1,1,1,0]",0,58,58,58,1,1,0,,,1,FALSE,1.1661,,,,,,,,,,,,,,,,,,,,,,,,,,,,,,,
,613ad069b7f1de6a11fbf6b5,627c757313639d58a5c00530,2022-05-11_21h49.50.071,classification_task,2021.2.3,MacIntel,60.0024001,627c6715c52fd12f31907bd0,,,,,,,,,,,,,,,,,,,,,,,l,0,"[""0.285"",""0.530"",""0.192"",""0.916""]","[1,1,0,1]",0,59,59,59,1,0,0,,,1,FALSE,0.3155,,,,,,,,,,,,,,,,,,,,,,,,,,,,,,,
,613ad069b7f1de6a11fbf6b5,627c757313639d58a5c00530,2022-05-11_21h49.50.071,classification_task,2021.2.3,MacIntel,60.0024001,627c6715c52fd12f31907bd0,,,,,,,,,,,,,,,,,,,,,,,l,1,"[""0.069"",""0.690"",""0.566"",""0.823""]","[1,0,1,1]",0,60,60,60,1,1,1,,,1,FALSE,0.2966,,,,,,,,,,,,,,,,,,,,,,,,,,,,,,,
,613ad069b7f1de6a11fbf6b5,627c757313639d58a5c00530,2022-05-11_21h49.50.071,classification_task,2021.2.3,MacIntel,60.0024001,627c6715c52fd12f31907bd0,,,,,,,,,,,,,,,,,,,,,,,l,0,"[""0.243"",""0.629"",""0.776"",""0.953""]","[1,0,1,1]",0,61,61,61,1,0,1,,,1,FALSE,0.2974,,,,,,,,,,,,,,,,,,,,,,,,,,,,,,,
,613ad069b7f1de6a11fbf6b5,627c757313639d58a5c00530,2022-05-11_21h49.50.071,classification_task,2021.2.3,MacIntel,60.0024001,627c6715c52fd12f31907bd0,,,,,,,,,,,,,,,,,,,,,,,a,1,"[""0.659"",""0.530"",""0.880"",""0.916""]","[0,1,1,1]",0,62,62,62,1,0,0,,,1,FALSE,0.4144,,,,,,,,,,,,,,,,,,,,,,,,,,,,,,,
,613ad069b7f1de6a11fbf6b5,627c757313639d58a5c00530,2022-05-11_21h49.50.071,classification_task,2021.2.3,MacIntel,60.0024001,627c6715c52fd12f31907bd0,,,,,,,,,,,,,,,,,,,,,,,a,1,"[""0.243"",""0.396"",""0.690"",""0.953""]","[1,1,0,1]",0,63,63,63,1,0,1,,,1,FALSE,6.4642,,,,,,,,,,,,,,,,,,,,,,,,,,,,,,,
,613ad069b7f1de6a11fbf6b5,627c757313639d58a5c00530,2022-05-11_21h49.50.071,classification_task,2021.2.3,MacIntel,60.0024001,627c6715c52fd12f31907bd0,,,,,,,,,,,,,,,,,,,,,,,,,,,,,,,,,,,,,,,0, ,,0,4.996784979,445.54,0,0,0,0,1,2,1,,,,,,,,,,,,,,,,,,
,613ad069b7f1de6a11fbf6b5,627c757313639d58a5c00530,2022-05-11_21h49.50.071,classification_task,2021.2.3,MacIntel,60.0024001,627c6715c52fd12f31907bd0,,,,,,,,,,,,,,,,,,,,,,,,,,,,,,,,,,,,,,,1,  ,,0,8.550875404,442.463,0,0,0,0,1,2,1,,,,,,,,,,,,,,,,,,
,613ad069b7f1de6a11fbf6b5,627c757313639d58a5c00530,2022-05-11_21h49.50.071,classification_task,2021.2.3,MacIntel,60.0024001,627c6715c52fd12f31907bd0,,,,,,,,,,,,,,,,,,,,,,,,,,,,,,,,,,,,,,,2,  ,,0,3.956840645,451.3894,0,0,0,0,1,2,1,,,,,,,,,,,,,,,,,,
,613ad069b7f1de6a11fbf6b5,627c757313639d58a5c00530,2022-05-11_21h49.50.071,classification_task,2021.2.3,MacIntel,60.0024001,627c6715c52fd12f31907bd0,,,,,,,,,,,,,,,,,,,,,,,,,,,,,,,,,,,,,,,,,,,,,0,0,0,0,1,,1,,,,,,,,,,,,,,,,,,
,613ad069b7f1de6a11fbf6b5,627c757313639d58a5c00530,2022-05-11_21h49.50.071,classification_task,2021.2.3,MacIntel,60.0024001,627c6715c52fd12f31907bd0,,,,,,,,,,,,,,,,,,,,,space,12.2947,a,0,"[""0.156"",""0.360"",""0.659"",""0.730""]","[1,1,0,1]",0,0,0,0,1,1,0,,,1,FALSE,4.6699,,,,,,,,,,,,,,,,,,,,,,,,,,,,,,,
,613ad069b7f1de6a11fbf6b5,627c757313639d58a5c00530,2022-05-11_21h49.50.071,classification_task,2021.2.3,MacIntel,60.0024001,627c6715c52fd12f31907bd0,,,,,,,,,,,,,,,,,,,,,,,a,0,"[""0.156"",""0.109"",""0.494"",""0.730""]","[1,0,1,1]",0,1,1,1,1,1,0,,,1,FALSE,1.1975,,,,,,,,,,,,,,,,,,,,,,,,,,,,,,,
,613ad069b7f1de6a11fbf6b5,627c757313639d58a5c00530,2022-05-11_21h49.50.071,classification_task,2021.2.3,MacIntel,60.0024001,627c6715c52fd12f31907bd0,,,,,,,,,,,,,,,,,,,,,,,a,1,"[""0.285"",""0.530"",""0.880"",""0.691""]","[1,1,1,0]",0,2,2,2,1,0,0,,,1,FALSE,0.6162,,,,,,,,,,,,,,,,,,,,,,,,,,,,,,,
,613ad069b7f1de6a11fbf6b5,627c757313639d58a5c00530,2022-05-11_21h49.50.071,classification_task,2021.2.3,MacIntel,60.0024001,627c6715c52fd12f31907bd0,,,,,,,,,,,,,,,,,,,,,,,l,0,"[""0.243"",""0.396"",""0.630"",""0.953""]","[1,1,0,1]",0,3,3,3,1,0,1,,,1,FALSE,3.1571,,,,,,,,,,,,,,,,,,,,,,,,,,,,,,,
,613ad069b7f1de6a11fbf6b5,627c757313639d58a5c00530,2022-05-11_21h49.50.071,classification_task,2021.2.3,MacIntel,60.0024001,627c6715c52fd12f31907bd0,,,,,,,,,,,,,,,,,,,,,,,l,0,"[""0.243"",""0.396"",""0.776"",""0.109""]","[1,1,1,0]",0,4,4,4,1,0,1,,,1,FALSE,2.1355,,,,,,,,,,,,,,,,,,,,,,,,,,,,,,,
,613ad069b7f1de6a11fbf6b5,627c757313639d58a5c00530,2022-05-11_21h49.50.071,classification_task,2021.2.3,MacIntel,60.0024001,627c6715c52fd12f31907bd0,,,,,,,,,,,,,,,,,,,,,,,l,1,"[""0.690"",""0.360"",""0.494"",""0.730""]","[0,1,1,1]",0,5,5,5,1,1,0,,,1,FALSE,0.9978,,,,,,,,,,,,,,,,,,,,,,,,,,,,,,,
,613ad069b7f1de6a11fbf6b5,627c757313639d58a5c00530,2022-05-11_21h49.50.071,classification_task,2021.2.3,MacIntel,60.0024001,627c6715c52fd12f31907bd0,,,,,,,,,,,,,,,,,,,,,,,a,0,"[""0.156"",""0.360"",""0.494"",""0.655""]","[1,1,1,0]",0,6,6,6,1,1,0,,,1,FALSE,0.8978,,,,,,,,,,,,,,,,,,,,,,,,,,,,,,,
,613ad069b7f1de6a11fbf6b5,627c757313639d58a5c00530,2022-05-11_21h49.50.071,classification_task,2021.2.3,MacIntel,60.0024001,627c6715c52fd12f31907bd0,,,,,,,,,,,,,,,,,,,,,,,l,1,"[""0.069"",""0.192"",""0.566"",""0.823""]","[1,0,1,1]",0,7,7,7,1,1,1,,,1,FALSE,2.6907,,,,,,,,,,,,,,,,,,,,,,,,,,,,,,,
,613ad069b7f1de6a11fbf6b5,627c757313639d58a5c00530,2022-05-11_21h49.50.071,classification_task,2021.2.3,MacIntel,60.0024001,627c6715c52fd12f31907bd0,,,,,,,,,,,,,,,,,,,,,,,a,1,"[""0.114"",""0.396"",""0.776"",""0.953""]","[0,1,1,1]",0,8,8,8,1,0,1,,,1,FALSE,1.1223,,,,,,,,,,,,,,,,,,,,,,,,,,,,,,,
,613ad069b7f1de6a11fbf6b5,627c757313639d58a5c00530,2022-05-11_21h49.50.071,classification_task,2021.2.3,MacIntel,60.0024001,627c6715c52fd12f31907bd0,,,,,,,,,,,,,,,,,,,,,,,l,1,"[""0.069"",""0.431"",""0.114"",""0.823""]","[1,1,0,1]",0,9,9,9,1,1,1,,,1,FALSE,1.546,,,,,,,,,,,,,,,,,,,,,,,,,,,,,,,
,613ad069b7f1de6a11fbf6b5,627c757313639d58a5c00530,2022-05-11_21h49.50.071,classification_task,2021.2.3,MacIntel,60.0024001,627c6715c52fd12f31907bd0,,,,,,,,,,,,,,,,,,,,,,,l,1,"[""0.069"",""0.431"",""0.566"",""0.630""]","[1,1,1,0]",0,10,10,10,1,1,1,,,1,FALSE,1.1984,,,,,,,,,,,,,,,,,,,,,,,,,,,,,,,
,613ad069b7f1de6a11fbf6b5,627c757313639d58a5c00530,2022-05-11_21h49.50.071,classification_task,2021.2.3,MacIntel,60.0024001,627c6715c52fd12f31907bd0,,,,,,,,,,,,,,,,,,,,,,,a,1,"[""0.243"",""0.679"",""0.776"",""0.953""]","[1,0,1,1]",0,11,11,11,1,0,1,,,1,FALSE,1.013,,,,,,,,,,,,,,,,,,,,,,,,,,,,,,,
,613ad069b7f1de6a11fbf6b5,627c757313639d58a5c00530,2022-05-11_21h49.50.071,classification_task,2021.2.3,MacIntel,60.0024001,627c6715c52fd12f31907bd0,,,,,,,,,,,,,,,,,,,,,,,l,0,"[""0.028"",""0.530"",""0.880"",""0.916""]","[0,1,1,1]",0,12,12,12,1,0,0,,,1,FALSE,2.1075,,,,,,,,,,,,,,,,,,,,,,,,,,,,,,,
,613ad069b7f1de6a11fbf6b5,627c757313639d58a5c00530,2022-05-11_21h49.50.071,classification_task,2021.2.3,MacIntel,60.0024001,627c6715c52fd12f31907bd0,,,,,,,,,,,,,,,,,,,,,,,l,0,"[""0.285"",""0.530"",""0.659"",""0.916""]","[1,1,0,1]",0,13,13,13,1,0,0,,,1,FALSE,1.1025,,,,,,,,,,,,,,,,,,,,,,,,,,,,,,,
,613ad069b7f1de6a11fbf6b5,627c757313639d58a5c00530,2022-05-11_21h49.50.071,classification_task,2021.2.3,MacIntel,60.0024001,627c6715c52fd12f31907bd0,,,,,,,,,,,,,,,,,,,,,,,l,1,"[""0.322"",""0.431"",""0.566"",""0.823""]","[0,1,1,1]",0,14,14,14,1,1,1,,,1,FALSE,1.2419,,,,,,,,,,,,,,,,,,,,,,,,,,,,,,,
,613ad069b7f1de6a11fbf6b5,627c757313639d58a5c00530,2022-05-11_21h49.50.071,classification_task,2021.2.3,MacIntel,60.0024001,627c6715c52fd12f31907bd0,,,,,,,,,,,,,,,,,,,,,,,a,1,"[""0.285"",""0.120"",""0.880"",""0.916""]","[1,0,1,1]",0,15,15,15,1,0,0,,,1,FALSE,1.4932,,,,,,,,,,,,,,,,,,,,,,,,,,,,,,,
,613ad069b7f1de6a11fbf6b5,627c757313639d58a5c00530,2022-05-11_21h49.50.071,classification_task,2021.2.3,MacIntel,60.0024001,627c6715c52fd12f31907bd0,,,,,,,,,,,,,,,,,,,,,,,l,0,"[""0.285"",""0.530"",""0.880"",""0.322""]","[1,1,1,0]",0,16,16,16,1,0,0,,,1,FALSE,1.6824,,,,,,,,,,,,,,,,,,,,,,,,,,,,,,,
,613ad069b7f1de6a11fbf6b5,627c757313639d58a5c00530,2022-05-11_21h49.50.071,classification_task,2021.2.3,MacIntel,60.0024001,627c6715c52fd12f31907bd0,,,,,,,,,,,,,,,,,,,,,,,l,1,"[""0.069"",""0.431"",""0.566"",""0.679""]","[1,1,1,0]",0,17,17,17,1,1,1,,,1,FALSE,1.2962,,,,,,,,,,,,,,,,,,,,,,,,,,,,,,,
,613ad069b7f1de6a11fbf6b5,627c757313639d58a5c00530,2022-05-11_21h49.50.071,classification_task,2021.2.3,MacIntel,60.0024001,627c6715c52fd12f31907bd0,,,,,,,,,,,,,,,,,,,,,,,a,1,"[""0.285"",""0.691"",""0.880"",""0.916""]","[1,0,1,1]",0,18,18,18,1,0,0,,,1,FALSE,0.9413,,,,,,,,,,,,,,,,,,,,,,,,,,,,,,,
,613ad069b7f1de6a11fbf6b5,627c757313639d58a5c00530,2022-05-11_21h49.50.071,classification_task,2021.2.3,MacIntel,60.0024001,627c6715c52fd12f31907bd0,,,,,,,,,,,,,,,,,,,,,,,a,1,"[""0.243"",""0.396"",""0.776"",""0.604""]","[1,1,1,0]",0,19,19,19,1,0,1,,,1,FALSE,1.7087,,,,,,,,,,,,,,,,,,,,,,,,,,,,,,,
,613ad069b7f1de6a11fbf6b5,627c757313639d58a5c00530,2022-05-11_21h49.50.071,classification_task,2021.2.3,MacIntel,60.0024001,627c6715c52fd12f31907bd0,,,,,,,,,,,,,,,,,,,,,,,a,0,"[""0.659"",""0.360"",""0.494"",""0.730""]","[0,1,1,1]",0,20,20,20,1,1,0,,,1,FALSE,1.7206,,,,,,,,,,,,,,,,,,,,,,,,,,,,,,,
,613ad069b7f1de6a11fbf6b5,627c757313639d58a5c00530,2022-05-11_21h49.50.071,classification_task,2021.2.3,MacIntel,60.0024001,627c6715c52fd12f31907bd0,,,,,,,,,,,,,,,,,,,,,,,a,1,"[""0.114"",""0.530"",""0.880"",""0.916""]","[0,1,1,1]",0,21,21,21,1,0,0,,,1,FALSE,1.1198,,,,,,,,,,,,,,,,,,,,,,,,,,,,,,,
,613ad069b7f1de6a11fbf6b5,627c757313639d58a5c00530,2022-05-11_21h49.50.071,classification_task,2021.2.3,MacIntel,60.0024001,627c6715c52fd12f31907bd0,,,,,,,,,,,,,,,,,,,,,,,l,1,"[""0.156"",""0.360"",""0.192"",""0.730""]","[1,1,0,1]",0,22,22,22,1,1,0,,,1,FALSE,0.7147,,,,,,,,,,,,,,,,,,,,,,,,,,,,,,,
,613ad069b7f1de6a11fbf6b5,627c757313639d58a5c00530,2022-05-11_21h49.50.071,classification_task,2021.2.3,MacIntel,60.0024001,627c6715c52fd12f31907bd0,,,,,,,,,,,,,,,,,,,,,,,l,1,"[""0.069"",""0.192"",""0.566"",""0.823""]","[1,0,1,1]",0,23,23,23,1,1,1,,,1,FALSE,1.0065,,,,,,,,,,,,,,,,,,,,,,,,,,,,,,,
,613ad069b7f1de6a11fbf6b5,627c757313639d58a5c00530,2022-05-11_21h49.50.071,classification_task,2021.2.3,MacIntel,60.0024001,627c6715c52fd12f31907bd0,,,,,,,,,,,,,,,,,,,,,,,l,0,"[""0.285"",""0.530"",""0.028"",""0.916""]","[1,1,0,1]",0,24,24,24,1,0,0,,,1,FALSE,1.0718,,,,,,,,,,,,,,,,,,,,,,,,,,,,,,,
,613ad069b7f1de6a11fbf6b5,627c757313639d58a5c00530,2022-05-11_21h49.50.071,classification_task,2021.2.3,MacIntel,60.0024001,627c6715c52fd12f31907bd0,,,,,,,,,,,,,,,,,,,,,,,l,1,"[""0.156"",""0.691"",""0.494"",""0.730""]","[1,0,1,1]",0,25,25,25,1,1,0,,,1,FALSE,0.6642,,,,,,,,,,,,,,,,,,,,,,,,,,,,,,,
,613ad069b7f1de6a11fbf6b5,627c757313639d58a5c00530,2022-05-11_21h49.50.071,classification_task,2021.2.3,MacIntel,60.0024001,627c6715c52fd12f31907bd0,,,,,,,,,,,,,,,,,,,,,,,l,1,"[""0.069"",""0.431"",""0.630"",""0.823""]","[1,1,0,1]",0,26,26,26,1,1,1,,,1,FALSE,0.9399,,,,,,,,,,,,,,,,,,,,,,,,,,,,,,,
,613ad069b7f1de6a11fbf6b5,627c757313639d58a5c00530,2022-05-11_21h49.50.071,classification_task,2021.2.3,MacIntel,60.0024001,627c6715c52fd12f31907bd0,,,,,,,,,,,,,,,,,,,,,,,l,1,"[""0.646"",""0.431"",""0.566"",""0.823""]","[0,1,1,1]",0,27,27,27,1,1,1,,,1,FALSE,0.7131,,,,,,,,,,,,,,,,,,,,,,,,,,,,,,,
,613ad069b7f1de6a11fbf6b5,627c757313639d58a5c00530,2022-05-11_21h49.50.071,classification_task,2021.2.3,MacIntel,60.0024001,627c6715c52fd12f31907bd0,,,,,,,,,,,,,,,,,,,,,,,a,0,"[""0.156"",""0.360"",""0.494"",""0.691""]","[1,1,1,0]",0,28,28,28,1,1,0,,,1,FALSE,0.8245,,,,,,,,,,,,,,,,,,,,,,,,,,,,,,,
,613ad069b7f1de6a11fbf6b5,627c757313639d58a5c00530,2022-05-11_21h49.50.071,classification_task,2021.2.3,MacIntel,60.0024001,627c6715c52fd12f31907bd0,,,,,,,,,,,,,,,,,,,,,,,a,1,"[""0.243"",""0.396"",""0.691"",""0.953""]","[1,1,0,1]",0,29,29,29,1,0,1,,,1,FALSE,0.9064,,,,,,,,,,,,,,,,,,,,,,,,,,,,,,,
,613ad069b7f1de6a11fbf6b5,627c757313639d58a5c00530,2022-05-11_21h49.50.071,classification_task,2021.2.3,MacIntel,60.0024001,627c6715c52fd12f31907bd0,,,,,,,,,,,,,,,,,,,,,,,a,1,"[""0.243"",""0.028"",""0.776"",""0.953""]","[1,0,1,1]",0,30,30,30,1,0,1,,,1,FALSE,0.6491,,,,,,,,,,,,,,,,,,,,,,,,,,,,,,,
,613ad069b7f1de6a11fbf6b5,627c757313639d58a5c00530,2022-05-11_21h49.50.071,classification_task,2021.2.3,MacIntel,60.0024001,627c6715c52fd12f31907bd0,,,,,,,,,,,,,,,,,,,,,,,a,1,"[""0.192"",""0.396"",""0.776"",""0.953""]","[0,1,1,1]",0,31,31,31,1,0,1,,,1,FALSE,0.5133,,,,,,,,,,,,,,,,,,,,,,,,,,,,,,,
,613ad069b7f1de6a11fbf6b5,627c757313639d58a5c00530,2022-05-11_21h49.50.071,classification_task,2021.2.3,MacIntel,60.0024001,627c6715c52fd12f31907bd0,,,,,,,,,,,,,,,,,,,,,,,a,0,"[""0.646"",""0.360"",""0.494"",""0.730""]","[0,1,1,1]",0,32,32,32,1,1,0,,,1,FALSE,0.9873,,,,,,,,,,,,,,,,,,,,,,,,,,,,,,,
,613ad069b7f1de6a11fbf6b5,627c757313639d58a5c00530,2022-05-11_21h49.50.071,classification_task,2021.2.3,MacIntel,60.0024001,627c6715c52fd12f31907bd0,,,,,,,,,,,,,,,,,,,,,,,l,1,"[""0.156"",""0.360"",""0.655"",""0.730""]","[1,1,0,1]",0,33,33,33,1,1,0,,,1,FALSE,0.5648,,,,,,,,,,,,,,,,,,,,,,,,,,,,,,,
,613ad069b7f1de6a11fbf6b5,627c757313639d58a5c00530,2022-05-11_21h49.50.071,classification_task,2021.2.3,MacIntel,60.0024001,627c6715c52fd12f31907bd0,,,,,,,,,,,,,,,,,,,,,,,l,1,"[""0.028"",""0.431"",""0.566"",""0.823""]","[0,1,1,1]",0,34,34,34,1,1,1,,,1,FALSE,0.8114,,,,,,,,,,,,,,,,,,,,,,,,,,,,,,,
,613ad069b7f1de6a11fbf6b5,627c757313639d58a5c00530,2022-05-11_21h49.50.071,classification_task,2021.2.3,MacIntel,60.0024001,627c6715c52fd12f31907bd0,,,,,,,,,,,,,,,,,,,,,,,a,1,"[""0.243"",""0.396"",""0.604"",""0.953""]","[1,1,0,1]",0,35,35,35,1,0,1,,,1,FALSE,0.8796,,,,,,,,,,,,,,,,,,,,,,,,,,,,,,,
,613ad069b7f1de6a11fbf6b5,627c757313639d58a5c00530,2022-05-11_21h49.50.071,classification_task,2021.2.3,MacIntel,60.0024001,627c6715c52fd12f31907bd0,,,,,,,,,,,,,,,,,,,,,,,a,1,"[""0.285"",""0.604"",""0.880"",""0.916""]","[1,0,1,1]",0,36,36,36,1,0,0,,,1,FALSE,1.1769,,,,,,,,,,,,,,,,,,,,,,,,,,,,,,,
,613ad069b7f1de6a11fbf6b5,627c757313639d58a5c00530,2022-05-11_21h49.50.071,classification_task,2021.2.3,MacIntel,60.0024001,627c6715c52fd12f31907bd0,,,,,,,,,,,,,,,,,,,,,,,l,1,"[""0.156"",""0.360"",""0.494"",""0.646""]","[1,1,1,0]",0,37,37,37,1,1,0,,,1,FALSE,0.8655,,,,,,,,,,,,,,,,,,,,,,,,,,,,,,,
,613ad069b7f1de6a11fbf6b5,627c757313639d58a5c00530,2022-05-11_21h49.50.071,classification_task,2021.2.3,MacIntel,60.0024001,627c6715c52fd12f31907bd0,,,,,,,,,,,,,,,,,,,,,,,l,0,"[""0.646"",""0.530"",""0.880"",""0.916""]","[0,1,1,1]",0,38,38,38,1,0,0,,,1,FALSE,0.7296,,,,,,,,,,,,,,,,,,,,,,,,,,,,,,,
,613ad069b7f1de6a11fbf6b5,627c757313639d58a5c00530,2022-05-11_21h49.50.071,classification_task,2021.2.3,MacIntel,60.0024001,627c6715c52fd12f31907bd0,,,,,,,,,,,,,,,,,,,,,,,a,1,"[""0.243"",""0.396"",""0.776"",""0.679""]","[1,1,1,0]",0,39,39,39,1,0,1,,,1,FALSE,1.2122,,,,,,,,,,,,,,,,,,,,,,,,,,,,,,,
,613ad069b7f1de6a11fbf6b5,627c757313639d58a5c00530,2022-05-11_21h49.50.071,classification_task,2021.2.3,MacIntel,60.0024001,627c6715c52fd12f31907bd0,,,,,,,,,,,,,,,,,,,,,,,l,1,"[""0.069"",""0.028"",""0.566"",""0.823""]","[1,0,1,1]",0,40,40,40,1,1,1,,,1,FALSE,0.5809,,,,,,,,,,,,,,,,,,,,,,,,,,,,,,,
,613ad069b7f1de6a11fbf6b5,627c757313639d58a5c00530,2022-05-11_21h49.50.071,classification_task,2021.2.3,MacIntel,60.0024001,627c6715c52fd12f31907bd0,,,,,,,,,,,,,,,,,,,,,,,a,1,"[""0.285"",""0.530"",""0.120"",""0.916""]","[1,1,0,1]",0,41,41,41,1,0,0,,,1,FALSE,0.3737,,,,,,,,,,,,,,,,,,,,,,,,,,,,,,,
,613ad069b7f1de6a11fbf6b5,627c757313639d58a5c00530,2022-05-11_21h49.50.071,classification_task,2021.2.3,MacIntel,60.0024001,627c6715c52fd12f31907bd0,,,,,,,,,,,,,,,,,,,,,,,a,1,"[""0.322"",""0.396"",""0.776"",""0.953""]","[0,1,1,1]",0,42,42,42,1,0,1,,,1,FALSE,0.7901,,,,,,,,,,,,,,,,,,,,,,,,,,,,,,,
,613ad069b7f1de6a11fbf6b5,627c757313639d58a5c00530,2022-05-11_21h49.50.071,classification_task,2021.2.3,MacIntel,60.0024001,627c6715c52fd12f31907bd0,,,,,,,,,,,,,,,,,,,,,,,l,1,"[""0.156"",""0.109"",""0.494"",""0.730""]","[1,0,1,1]",0,43,43,43,1,1,0,,,1,FALSE,0.539,,,,,,,,,,,,,,,,,,,,,,,,,,,,,,,
,613ad069b7f1de6a11fbf6b5,627c757313639d58a5c00530,2022-05-11_21h49.50.071,classification_task,2021.2.3,MacIntel,60.0024001,627c6715c52fd12f31907bd0,,,,,,,,,,,,,,,,,,,,,,,a,1,"[""0.243"",""0.629"",""0.776"",""0.953""]","[1,0,1,1]",0,44,44,44,1,0,1,,,1,FALSE,1.3727,,,,,,,,,,,,,,,,,,,,,,,,,,,,,,,
,613ad069b7f1de6a11fbf6b5,627c757313639d58a5c00530,2022-05-11_21h49.50.071,classification_task,2021.2.3,MacIntel,60.0024001,627c6715c52fd12f31907bd0,,,,,,,,,,,,,,,,,,,,,,,l,0,"[""0.285"",""0.530"",""0.880"",""0.659""]","[1,1,1,0]",0,45,45,45,1,0,0,,,1,FALSE,0.5771,,,,,,,,,,,,,,,,,,,,,,,,,,,,,,,
,613ad069b7f1de6a11fbf6b5,627c757313639d58a5c00530,2022-05-11_21h49.50.071,classification_task,2021.2.3,MacIntel,60.0024001,627c6715c52fd12f31907bd0,,,,,,,,,,,,,,,,,,,,,,,l,1,"[""0.069"",""0.431"",""0.691"",""0.823""]","[1,1,0,1]",0,46,46,46,1,1,1,,,1,FALSE,0.6743,,,,,,,,,,,,,,,,,,,,,,,,,,,,,,,
,613ad069b7f1de6a11fbf6b5,627c757313639d58a5c00530,2022-05-11_21h49.50.071,classification_task,2021.2.3,MacIntel,60.0024001,627c6715c52fd12f31907bd0,,,,,,,,,,,,,,,,,,,,,,,l,1,"[""0.069"",""0.431"",""0.566"",""0.655""]","[1,1,1,0]",0,47,47,47,1,1,1,,,1,FALSE,0.5979,,,,,,,,,,,,,,,,,,,,,,,,,,,,,,,
,613ad069b7f1de6a11fbf6b5,627c757313639d58a5c00530,2022-05-11_21h49.50.071,classification_task,2021.2.3,MacIntel,60.0024001,627c6715c52fd12f31907bd0,,,,,,,,,,,,,,,,,,,,,,,a,0,"[""0.322"",""0.360"",""0.494"",""0.730""]","[0,1,1,1]",0,48,48,48,1,1,0,,,1,FALSE,0.5589,,,,,,,,,,,,,,,,,,,,,,,,,,,,,,,
,613ad069b7f1de6a11fbf6b5,627c757313639d58a5c00530,2022-05-11_21h49.50.071,classification_task,2021.2.3,MacIntel,60.0024001,627c6715c52fd12f31907bd0,,,,,,,,,,,,,,,,,,,,,,,a,1,"[""0.120"",""0.396"",""0.776"",""0.953""]","[0,1,1,1]",0,49,49,49,1,0,1,,,1,FALSE,0.7267,,,,,,,,,,,,,,,,,,,,,,,,,,,,,,,
,613ad069b7f1de6a11fbf6b5,627c757313639d58a5c00530,2022-05-11_21h49.50.071,classification_task,2021.2.3,MacIntel,60.0024001,627c6715c52fd12f31907bd0,,,,,,,,,,,,,,,,,,,,,,,l,1,"[""0.156"",""0.360"",""0.494"",""0.659""]","[1,1,1,0]",0,50,50,50,1,1,0,,,1,FALSE,0.5224,,,,,,,,,,,,,,,,,,,,,,,,,,,,,,,
,613ad069b7f1de6a11fbf6b5,627c757313639d58a5c00530,2022-05-11_21h49.50.071,classification_task,2021.2.3,MacIntel,60.0024001,627c6715c52fd12f31907bd0,,,,,,,,,,,,,,,,,,,,,,,a,1,"[""0.285"",""0.691"",""0.880"",""0.916""]","[1,0,1,1]",0,51,51,51,1,0,0,,,1,FALSE,0.5823,,,,,,,,,,,,,,,,,,,,,,,,,,,,,,,
,613ad069b7f1de6a11fbf6b5,627c757313639d58a5c00530,2022-05-11_21h49.50.071,classification_task,2021.2.3,MacIntel,60.0024001,627c6715c52fd12f31907bd0,,,,,,,,,,,,,,,,,,,,,,,l,1,"[""0.069"",""0.431"",""0.114"",""0.823""]","[1,1,0,1]",0,52,52,52,1,1,1,,,1,FALSE,0.6235,,,,,,,,,,,,,,,,,,,,,,,,,,,,,,,
,613ad069b7f1de6a11fbf6b5,627c757313639d58a5c00530,2022-05-11_21h49.50.071,classification_task,2021.2.3,MacIntel,60.0024001,627c6715c52fd12f31907bd0,,,,,,,,,,,,,,,,,,,,,,,l,0,"[""0.243"",""0.114"",""0.776"",""0.953""]","[1,0,1,1]",0,53,53,53,1,0,1,,,1,FALSE,0.5348,,,,,,,,,,,,,,,,,,,,,,,,,,,,,,,
,613ad069b7f1de6a11fbf6b5,627c757313639d58a5c00530,2022-05-11_21h49.50.071,classification_task,2021.2.3,MacIntel,60.0024001,627c6715c52fd12f31907bd0,,,,,,,,,,,,,,,,,,,,,,,l,1,"[""0.156"",""0.690"",""0.494"",""0.730""]","[1,0,1,1]",0,54,54,54,1,1,0,,,1,FALSE,0.7723,,,,,,,,,,,,,,,,,,,,,,,,,,,,,,,
,613ad069b7f1de6a11fbf6b5,627c757313639d58a5c00530,2022-05-11_21h49.50.071,classification_task,2021.2.3,MacIntel,60.0024001,627c6715c52fd12f31907bd0,,,,,,,,,,,,,,,,,,,,,,,a,1,"[""0.243"",""0.396"",""0.776"",""0.028""]","[1,1,1,0]",0,55,55,55,1,0,1,,,1,FALSE,0.4774,,,,,,,,,,,,,,,,,,,,,,,,,,,,,,,
,613ad069b7f1de6a11fbf6b5,627c757313639d58a5c00530,2022-05-11_21h49.50.071,classification_task,2021.2.3,MacIntel,60.0024001,627c6715c52fd12f31907bd0,,,,,,,,,,,,,,,,,,,,,,,l,0,"[""0.285"",""0.530"",""0.880"",""0.690""]","[1,1,1,0]",0,56,56,56,1,0,0,,,1,FALSE,0.5274,,,,,,,,,,,,,,,,,,,,,,,,,,,,,,,
,613ad069b7f1de6a11fbf6b5,627c757313639d58a5c00530,2022-05-11_21h49.50.071,classification_task,2021.2.3,MacIntel,60.0024001,627c6715c52fd12f31907bd0,,,,,,,,,,,,,,,,,,,,,,,a,1,"[""0.322"",""0.530"",""0.880"",""0.916""]","[0,1,1,1]",0,57,57,57,1,0,0,,,1,FALSE,0.4477,,,,,,,,,,,,,,,,,,,,,,,,,,,,,,,
,613ad069b7f1de6a11fbf6b5,627c757313639d58a5c00530,2022-05-11_21h49.50.071,classification_task,2021.2.3,MacIntel,60.0024001,627c6715c52fd12f31907bd0,,,,,,,,,,,,,,,,,,,,,,,l,1,"[""0.069"",""0.659"",""0.566"",""0.823""]","[1,0,1,1]",0,58,58,58,1,1,1,,,1,FALSE,0.4103,,,,,,,,,,,,,,,,,,,,,,,,,,,,,,,
,613ad069b7f1de6a11fbf6b5,627c757313639d58a5c00530,2022-05-11_21h49.50.071,classification_task,2021.2.3,MacIntel,60.0024001,627c6715c52fd12f31907bd0,,,,,,,,,,,,,,,,,,,,,,,a,0,"[""0.069"",""0.431"",""0.566"",""0.604""]","[1,1,1,0]",0,59,59,59,1,1,1,,,1,FALSE,0.4805,,,,,,,,,,,,,,,,,,,,,,,,,,,,,,,
,613ad069b7f1de6a11fbf6b5,627c757313639d58a5c00530,2022-05-11_21h49.50.071,classification_task,2021.2.3,MacIntel,60.0024001,627c6715c52fd12f31907bd0,,,,,,,,,,,,,,,,,,,,,,,l,0,"[""0.243"",""0.396"",""0.109"",""0.953""]","[1,1,0,1]",0,60,60,60,1,0,1,,,1,FALSE,0.3473,,,,,,,,,,,,,,,,,,,,,,,,,,,,,,,
,613ad069b7f1de6a11fbf6b5,627c757313639d58a5c00530,2022-05-11_21h49.50.071,classification_task,2021.2.3,MacIntel,60.0024001,627c6715c52fd12f31907bd0,,,,,,,,,,,,,,,,,,,,,,,l,1,"[""0.156"",""0.360"",""0.679"",""0.730""]","[1,1,0,1]",0,61,61,61,1,1,0,,,1,FALSE,0.4079,,,,,,,,,,,,,,,,,,,,,,,,,,,,,,,
,613ad069b7f1de6a11fbf6b5,627c757313639d58a5c00530,2022-05-11_21h49.50.071,classification_task,2021.2.3,MacIntel,60.0024001,627c6715c52fd12f31907bd0,,,,,,,,,,,,,,,,,,,,,,,l,0,"[""0.285"",""0.530"",""0.114"",""0.916""]","[1,1,0,1]",0,62,62,62,1,0,0,,,1,FALSE,0.3632,,,,,,,,,,,,,,,,,,,,,,,,,,,,,,,
,613ad069b7f1de6a11fbf6b5,627c757313639d58a5c00530,2022-05-11_21h49.50.071,classification_task,2021.2.3,MacIntel,60.0024001,627c6715c52fd12f31907bd0,,,,,,,,,,,,,,,,,,,,,,,a,0,"[""0.629"",""0.431"",""0.566"",""0.823""]","[0,1,1,1]",0,63,63,63,1,1,1,,,1,FALSE,0.3895,,,,,,,,,,,,,,,,,,,,,,,,,,,,,,,
,613ad069b7f1de6a11fbf6b5,627c757313639d58a5c00530,2022-05-11_21h49.50.071,classification_task,2021.2.3,MacIntel,60.0024001,627c6715c52fd12f31907bd0,,,,,,,,,,,,,,,,,,,,,,,,,,,,,,,,,,,,,,,0, ,,0,4.783215755,145.5213,0,1,1,1,1,2,2,,,,,,,,,,,,,,,,,,
,613ad069b7f1de6a11fbf6b5,627c757313639d58a5c00530,2022-05-11_21h49.50.071,classification_task,2021.2.3,MacIntel,60.0024001,627c6715c52fd12f31907bd0,,,,,,,,,,,,,,,,,,,,,,,,,,,,,,,,,,,,,,,1,  ,,0,6.716591343,150.3012,0,1,1,1,1,2,2,,,,,,,,,,,,,,,,,,
,613ad069b7f1de6a11fbf6b5,627c757313639d58a5c00530,2022-05-11_21h49.50.071,classification_task,2021.2.3,MacIntel,60.0024001,627c6715c52fd12f31907bd0,,,,,,,,,,,,,,,,,,,,,,,,,,,,,,,,,,,,,,,2,  ,,0,6.644023736,156.9924,0,1,1,1,1,2,2,,,,,,,,,,,,,,,,,,
,613ad069b7f1de6a11fbf6b5,627c757313639d58a5c00530,2022-05-11_21h49.50.071,classification_task,2021.2.3,MacIntel,60.0024001,627c6715c52fd12f31907bd0,,,,,,,,,,,,,,,,,,,,,,,,,,,,,,,,,,,,,,,,,,,,,0,1,1,1,1,,2,,,,,,,,,,,,,,,,,,
,613ad069b7f1de6a11fbf6b5,627c757313639d58a5c00530,2022-05-11_21h49.50.071,classification_task,2021.2.3,MacIntel,60.0024001,627c6715c52fd12f31907bd0,,,,,,,,,,,,,,,,,,,,,space,1.4459,l,0,"[""0.243"",""0.109"",""0.776"",""0.953""]","[1,0,1,1]",0,0,0,0,1,0,1,,,1,FALSE,1.9441,,,,,,,,,,,,,,,,,,,,,,,,,,,,,,,
,613ad069b7f1de6a11fbf6b5,627c757313639d58a5c00530,2022-05-11_21h49.50.071,classification_task,2021.2.3,MacIntel,60.0024001,627c6715c52fd12f31907bd0,,,,,,,,,,,,,,,,,,,,,,,a,1,"[""0.285"",""0.530"",""0.679"",""0.916""]","[1,1,0,1]",0,1,1,1,1,0,0,,,1,FALSE,3.8821,,,,,,,,,,,,,,,,,,,,,,,,,,,,,,,
,613ad069b7f1de6a11fbf6b5,627c757313639d58a5c00530,2022-05-11_21h49.50.071,classification_task,2021.2.3,MacIntel,60.0024001,627c6715c52fd12f31907bd0,,,,,,,,,,,,,,,,,,,,,,,a,1,"[""0.659"",""0.530"",""0.880"",""0.916""]","[0,1,1,1]",0,2,2,2,1,0,0,,,1,FALSE,2.021,,,,,,,,,,,,,,,,,,,,,,,,,,,,,,,
,613ad069b7f1de6a11fbf6b5,627c757313639d58a5c00530,2022-05-11_21h49.50.071,classification_task,2021.2.3,MacIntel,60.0024001,627c6715c52fd12f31907bd0,,,,,,,,,,,,,,,,,,,,,,,a,1,"[""0.285"",""0.530"",""0.880"",""0.120""]","[1,1,1,0]",0,3,3,3,1,0,0,,,1,FALSE,1.4809,,,,,,,,,,,,,,,,,,,,,,,,,,,,,,,
,613ad069b7f1de6a11fbf6b5,627c757313639d58a5c00530,2022-05-11_21h49.50.071,classification_task,2021.2.3,MacIntel,60.0024001,627c6715c52fd12f31907bd0,,,,,,,,,,,,,,,,,,,,,,,l,0,"[""0.192"",""0.396"",""0.776"",""0.953""]","[0,1,1,1]",0,4,4,4,1,0,1,,,1,FALSE,1.158,,,,,,,,,,,,,,,,,,,,,,,,,,,,,,,
,613ad069b7f1de6a11fbf6b5,627c757313639d58a5c00530,2022-05-11_21h49.50.071,classification_task,2021.2.3,MacIntel,60.0024001,627c6715c52fd12f31907bd0,,,,,,,,,,,,,,,,,,,,,,,a,0,"[""0.069"",""0.114"",""0.566"",""0.823""]","[1,0,1,1]",0,5,5,5,1,1,1,,,1,FALSE,1.0822,,,,,,,,,,,,,,,,,,,,,,,,,,,,,,,
,613ad069b7f1de6a11fbf6b5,627c757313639d58a5c00530,2022-05-11_21h49.50.071,classification_task,2021.2.3,MacIntel,60.0024001,627c6715c52fd12f31907bd0,,,,,,,,,,,,,,,,,,,,,,,l,1,"[""0.156"",""0.360"",""0.494"",""0.604""]","[1,1,1,0]",0,6,6,6,1,1,0,,,1,FALSE,1.5142,,,,,,,,,,,,,,,,,,,,,,,,,,,,,,,
,613ad069b7f1de6a11fbf6b5,627c757313639d58a5c00530,2022-05-11_21h49.50.071,classification_task,2021.2.3,MacIntel,60.0024001,627c6715c52fd12f31907bd0,,,,,,,,,,,,,,,,,,,,,,,l,0,"[""0.243"",""0.396"",""0.120"",""0.953""]","[1,1,0,1]",0,7,7,7,1,0,1,,,1,FALSE,1.3816,,,,,,,,,,,,,,,,,,,,,,,,,,,,,,,
,613ad069b7f1de6a11fbf6b5,627c757313639d58a5c00530,2022-05-11_21h49.50.071,classification_task,2021.2.3,MacIntel,60.0024001,627c6715c52fd12f31907bd0,,,,,,,,,,,,,,,,,,,,,,,a,0,"[""0.109"",""0.360"",""0.494"",""0.730""]","[0,1,1,1]",0,8,8,8,1,1,0,,,1,FALSE,0.9657,,,,,,,,,,,,,,,,,,,,,,,,,,,,,,,
,613ad069b7f1de6a11fbf6b5,627c757313639d58a5c00530,2022-05-11_21h49.50.071,classification_task,2021.2.3,MacIntel,60.0024001,627c6715c52fd12f31907bd0,,,,,,,,,,,,,,,,,,,,,,,a,1,"[""0.243"",""0.396"",""0.776"",""0.691""]","[1,1,1,0]",0,9,9,9,1,0,1,,,1,FALSE,0.7801,,,,,,,,,,,,,,,,,,,,,,,,,,,,,,,
,613ad069b7f1de6a11fbf6b5,627c757313639d58a5c00530,2022-05-11_21h49.50.071,classification_task,2021.2.3,MacIntel,60.0024001,627c6715c52fd12f31907bd0,,,,,,,,,,,,,,,,,,,,,,,l,1,"[""0.069"",""0.431"",""0.630"",""0.823""]","[1,1,0,1]",0,10,10,10,1,1,1,,,1,FALSE,0.4482,,,,,,,,,,,,,,,,,,,,,,,,,,,,,,,
,613ad069b7f1de6a11fbf6b5,627c757313639d58a5c00530,2022-05-11_21h49.50.071,classification_task,2021.2.3,MacIntel,60.0024001,627c6715c52fd12f31907bd0,,,,,,,,,,,,,,,,,,,,,,,l,1,"[""0.069"",""0.431"",""0.566"",""0.646""]","[1,1,1,0]",0,11,11,11,1,1,1,,,1,FALSE,1.2316,,,,,,,,,,,,,,,,,,,,,,,,,,,,,,,
,613ad069b7f1de6a11fbf6b5,627c757313639d58a5c00530,2022-05-11_21h49.50.071,classification_task,2021.2.3,MacIntel,60.0024001,627c6715c52fd12f31907bd0,,,,,,,,,,,,,,,,,,,,,,,a,0,"[""0.156"",""0.604"",""0.494"",""0.730""]","[1,0,1,1]",0,12,12,12,1,1,0,,,1,FALSE,1.1143,,,,,,,,,,,,,,,,,,,,,,,,,,,,,,,
,613ad069b7f1de6a11fbf6b5,627c757313639d58a5c00530,2022-05-11_21h49.50.071,classification_task,2021.2.3,MacIntel,60.0024001,627c6715c52fd12f31907bd0,,,,,,,,,,,,,,,,,,,,,,,l,1,"[""0.629"",""0.431"",""0.566"",""0.823""]","[0,1,1,1]",0,13,13,13,1,1,1,,,1,FALSE,1.132,,,,,,,,,,,,,,,,,,,,,,,,,,,,,,,
,613ad069b7f1de6a11fbf6b5,627c757313639d58a5c00530,2022-05-11_21h49.50.071,classification_task,2021.2.3,MacIntel,60.0024001,627c6715c52fd12f31907bd0,,,,,,,,,,,,,,,,,,,,,,,a,1,"[""0.285"",""0.691"",""0.880"",""0.916""]","[1,0,1,1]",0,14,14,14,1,0,0,,,1,FALSE,1.3501,,,,,,,,,,,,,,,,,,,,,,,,,,,,,,,
,613ad069b7f1de6a11fbf6b5,627c757313639d58a5c00530,2022-05-11_21h49.50.071,classification_task,2021.2.3,MacIntel,60.0024001,627c6715c52fd12f31907bd0,,,,,,,,,,,,,,,,,,,,,,,a,0,"[""0.156"",""0.360"",""0.646"",""0.730""]","[1,1,0,1]",0,15,15,15,1,1,0,,,1,FALSE,1.1645,,,,,,,,,,,,,,,,,,,,,,,,,,,,,,,
,613ad069b7f1de6a11fbf6b5,627c757313639d58a5c00530,2022-05-11_21h49.50.071,classification_task,2021.2.3,MacIntel,60.0024001,627c6715c52fd12f31907bd0,,,,,,,,,,,,,,,,,,,,,,,a,0,"[""0.069"",""0.192"",""0.566"",""0.823""]","[1,0,1,1]",0,16,16,16,1,1,1,,,1,FALSE,1.7983,,,,,,,,,,,,,,,,,,,,,,,,,,,,,,,
,613ad069b7f1de6a11fbf6b5,627c757313639d58a5c00530,2022-05-11_21h49.50.071,classification_task,2021.2.3,MacIntel,60.0024001,627c6715c52fd12f31907bd0,,,,,,,,,,,,,,,,,,,,,,,l,1,"[""0.069"",""0.431"",""0.109"",""0.823""]","[1,1,0,1]",0,17,17,17,1,1,1,,,1,FALSE,1.5392,,,,,,,,,,,,,,,,,,,,,,,,,,,,,,,
,613ad069b7f1de6a11fbf6b5,627c757313639d58a5c00530,2022-05-11_21h49.50.071,classification_task,2021.2.3,MacIntel,60.0024001,627c6715c52fd12f31907bd0,,,,,,,,,,,,,,,,,,,,,,,a,0,"[""0.156"",""0.360"",""0.028"",""0.730""]","[1,1,0,1]",0,18,18,18,1,1,0,,,1,FALSE,1.3962,,,,,,,,,,,,,,,,,,,,,,,,,,,,,,,
,613ad069b7f1de6a11fbf6b5,627c757313639d58a5c00530,2022-05-11_21h49.50.071,classification_task,2021.2.3,MacIntel,60.0024001,627c6715c52fd12f31907bd0,,,,,,,,,,,,,,,,,,,,,,,l,0,"[""0.120"",""0.530"",""0.880"",""0.916""]","[0,1,1,1]",0,19,19,19,1,0,0,,,1,FALSE,0.799,,,,,,,,,,,,,,,,,,,,,,,,,,,,,,,
,613ad069b7f1de6a11fbf6b5,627c757313639d58a5c00530,2022-05-11_21h49.50.071,classification_task,2021.2.3,MacIntel,60.0024001,627c6715c52fd12f31907bd0,,,,,,,,,,,,,,,,,,,,,,,a,1,"[""0.243"",""0.028"",""0.776"",""0.953""]","[1,0,1,1]",0,20,20,20,1,0,1,,,1,FALSE,0.9652,,,,,,,,,,,,,,,,,,,,,,,,,,,,,,,
,613ad069b7f1de6a11fbf6b5,627c757313639d58a5c00530,2022-05-11_21h49.50.071,classification_task,2021.2.3,MacIntel,60.0024001,627c6715c52fd12f31907bd0,,,,,,,,,,,,,,,,,,,,,,,l,0,"[""0.285"",""0.604"",""0.880"",""0.916""]","[1,0,1,1]",0,21,21,21,1,0,0,,,1,FALSE,0.799,,,,,,,,,,,,,,,,,,,,,,,,,,,,,,,
,613ad069b7f1de6a11fbf6b5,627c757313639d58a5c00530,2022-05-11_21h49.50.071,classification_task,2021.2.3,MacIntel,60.0024001,627c6715c52fd12f31907bd0,,,,,,,,,,,,,,,,,,,,,,,l,0,"[""0.243"",""0.396"",""0.776"",""0.629""]","[1,1,1,0]",0,22,22,22,1,0,1,,,1,FALSE,0.7506,,,,,,,,,,,,,,,,,,,,,,,,,,,,,,,
,613ad069b7f1de6a11fbf6b5,627c757313639d58a5c00530,2022-05-11_21h49.50.071,classification_task,2021.2.3,MacIntel,60.0024001,627c6715c52fd12f31907bd0,,,,,,,,,,,,,,,,,,,,,,,a,0,"[""0.156"",""0.360"",""0.494"",""0.322""]","[1,1,1,0]",0,23,23,23,1,1,0,,,1,FALSE,1.2977,,,,,,,,,,,,,,,,,,,,,,,,,,,,,,,
,613ad069b7f1de6a11fbf6b5,627c757313639d58a5c00530,2022-05-11_21h49.50.071,classification_task,2021.2.3,MacIntel,60.0024001,627c6715c52fd12f31907bd0,,,,,,,,,,,,,,,,,,,,,,,l,1,"[""0.120"",""0.360"",""0.494"",""0.730""]","[0,1,1,1]",0,24,24,24,1,1,0,,,1,FALSE,1.4506,,,,,,,,,,,,,,,,,,,,,,,,,,,,,,,
,613ad069b7f1de6a11fbf6b5,627c757313639d58a5c00530,2022-05-11_21h49.50.071,classification_task,2021.2.3,MacIntel,60.0024001,627c6715c52fd12f31907bd0,,,,,,,,,,,,,,,,,,,,,,,a,1,"[""0.604"",""0.396"",""0.776"",""0.953""]","[0,1,1,1]",0,25,25,25,1,0,1,,,1,FALSE,1.8975,,,,,,,,,,,,,,,,,,,,,,,,,,,,,,,
,613ad069b7f1de6a11fbf6b5,627c757313639d58a5c00530,2022-05-11_21h49.50.071,classification_task,2021.2.3,MacIntel,60.0024001,627c6715c52fd12f31907bd0,,,,,,,,,,,,,,,,,,,,,,,l,1,"[""0.114"",""0.431"",""0.566"",""0.823""]","[0,1,1,1]",0,26,26,26,1,1,1,,,1,FALSE,2.32,,,,,,,,,,,,,,,,,,,,,,,,,,,,,,,
,613ad069b7f1de6a11fbf6b5,627c757313639d58a5c00530,2022-05-11_21h49.50.071,classification_task,2021.2.3,MacIntel,60.0024001,627c6715c52fd12f31907bd0,,,,,,,,,,,,,,,,,,,,,,,a,1,"[""0.285"",""0.530"",""0.880"",""0.192""]","[1,1,1,0]",0,27,27,27,1,0,0,,,1,FALSE,1.2805,,,,,,,,,,,,,,,,,,,,,,,,,,,,,,,
,613ad069b7f1de6a11fbf6b5,627c757313639d58a5c00530,2022-05-11_21h49.50.071,classification_task,2021.2.3,MacIntel,60.0024001,627c6715c52fd12f31907bd0,,,,,,,,,,,,,,,,,,,,,,,l,0,"[""0.285"",""0.530"",""0.659"",""0.916""]","[1,1,0,1]",0,28,28,28,1,0,0,,,1,FALSE,1.0195,,,,,,,,,,,,,,,,,,,,,,,,,,,,,,,
,613ad069b7f1de6a11fbf6b5,627c757313639d58a5c00530,2022-05-11_21h49.50.071,classification_task,2021.2.3,MacIntel,60.0024001,627c6715c52fd12f31907bd0,,,,,,,,,,,,,,,,,,,,,,,a,0,"[""0.069"",""0.431"",""0.566"",""0.679""]","[1,1,1,0]",0,29,29,29,1,1,1,,,1,FALSE,2.4475,,,,,,,,,,,,,,,,,,,,,,,,,,,,,,,
,613ad069b7f1de6a11fbf6b5,627c757313639d58a5c00530,2022-05-11_21h49.50.071,classification_task,2021.2.3,MacIntel,60.0024001,627c6715c52fd12f31907bd0,,,,,,,,,,,,,,,,,,,,,,,l,0,"[""0.243"",""0.396"",""0.192"",""0.953""]","[1,1,0,1]",0,30,30,30,1,0,1,,,1,FALSE,0.8145,,,,,,,,,,,,,,,,,,,,,,,,,,,,,,,
,613ad069b7f1de6a11fbf6b5,627c757313639d58a5c00530,2022-05-11_21h49.50.071,classification_task,2021.2.3,MacIntel,60.0024001,627c6715c52fd12f31907bd0,,,,,,,,,,,,,,,,,,,,,,,l,1,"[""0.156"",""0.690"",""0.494"",""0.730""]","[1,0,1,1]",0,31,31,31,1,1,0,,,1,FALSE,0.5972,,,,,,,,,,,,,,,,,,,,,,,,,,,,,,,
,613ad069b7f1de6a11fbf6b5,627c757313639d58a5c00530,2022-05-11_21h49.50.071,classification_task,2021.2.3,MacIntel,60.0024001,627c6715c52fd12f31907bd0,,,,,,,,,,,,,,,,,,,,,,,a,0,"[""0.156"",""0.604"",""0.494"",""0.730""]","[1,0,1,1]",0,32,32,32,1,1,0,,,1,FALSE,0.5953,,,,,,,,,,,,,,,,,,,,,,,,,,,,,,,
,613ad069b7f1de6a11fbf6b5,627c757313639d58a5c00530,2022-05-11_21h49.50.071,classification_task,2021.2.3,MacIntel,60.0024001,627c6715c52fd12f31907bd0,,,,,,,,,,,,,,,,,,,,,,,a,1,"[""0.243"",""0.396"",""0.114"",""0.953""]","[1,1,0,1]",0,33,33,33,1,0,1,,,1,FALSE,0.8488,,,,,,,,,,,,,,,,,,,,,,,,,,,,,,,
,613ad069b7f1de6a11fbf6b5,627c757313639d58a5c00530,2022-05-11_21h49.50.071,classification_task,2021.2.3,MacIntel,60.0024001,627c6715c52fd12f31907bd0,,,,,,,,,,,,,,,,,,,,,,,l,1,"[""0.028"",""0.431"",""0.566"",""0.823""]","[0,1,1,1]",0,34,34,34,1,1,1,,,1,FALSE,0.8314,,,,,,,,,,,,,,,,,,,,,,,,,,,,,,,
,613ad069b7f1de6a11fbf6b5,627c757313639d58a5c00530,2022-05-11_21h49.50.071,classification_task,2021.2.3,MacIntel,60.0024001,627c6715c52fd12f31907bd0,,,,,,,,,,,,,,,,,,,,,,,l,1,"[""0.604"",""0.360"",""0.494"",""0.730""]","[0,1,1,1]",0,35,35,35,1,1,0,,,1,FALSE,0.7647,,,,,,,,,,,,,,,,,,,,,,,,,,,,,,,
,613ad069b7f1de6a11fbf6b5,627c757313639d58a5c00530,2022-05-11_21h49.50.071,classification_task,2021.2.3,MacIntel,60.0024001,627c6715c52fd12f31907bd0,,,,,,,,,,,,,,,,,,,,,,,a,1,"[""0.285"",""0.530"",""0.192"",""0.916""]","[1,1,0,1]",0,36,36,36,1,0,0,,,1,FALSE,0.8985,,,,,,,,,,,,,,,,,,,,,,,,,,,,,,,
,613ad069b7f1de6a11fbf6b5,627c757313639d58a5c00530,2022-05-11_21h49.50.071,classification_task,2021.2.3,MacIntel,60.0024001,627c6715c52fd12f31907bd0,,,,,,,,,,,,,,,,,,,,,,,l,1,"[""0.069"",""0.431"",""0.566"",""0.028""]","[1,1,1,0]",0,37,37,37,1,1,1,,,1,FALSE,0.9465,,,,,,,,,,,,,,,,,,,,,,,,,,,,,,,
,613ad069b7f1de6a11fbf6b5,627c757313639d58a5c00530,2022-05-11_21h49.50.071,classification_task,2021.2.3,MacIntel,60.0024001,627c6715c52fd12f31907bd0,,,,,,,,,,,,,,,,,,,,,,,l,0,"[""0.109"",""0.396"",""0.776"",""0.953""]","[0,1,1,1]",0,38,38,38,1,0,1,,,1,FALSE,0.8639,,,,,,,,,,,,,,,,,,,,,,,,,,,,,,,
,613ad069b7f1de6a11fbf6b5,627c757313639d58a5c00530,2022-05-11_21h49.50.071,classification_task,2021.2.3,MacIntel,60.0024001,627c6715c52fd12f31907bd0,,,,,,,,,,,,,,,,,,,,,,,a,0,"[""0.156"",""0.360"",""0.646"",""0.730""]","[1,1,0,1]",0,39,39,39,1,1,0,,,1,FALSE,0.8982,,,,,,,,,,,,,,,,,,,,,,,,,,,,,,,
,613ad069b7f1de6a11fbf6b5,627c757313639d58a5c00530,2022-05-11_21h49.50.071,classification_task,2021.2.3,MacIntel,60.0024001,627c6715c52fd12f31907bd0,,,,,,,,,,,,,,,,,,,,,,,l,0,"[""0.322"",""0.530"",""0.880"",""0.916""]","[0,1,1,1]",0,40,40,40,1,0,0,,,1,FALSE,0.8345,,,,,,,,,,,,,,,,,,,,,,,,,,,,,,,
,613ad069b7f1de6a11fbf6b5,627c757313639d58a5c00530,2022-05-11_21h49.50.071,classification_task,2021.2.3,MacIntel,60.0024001,627c6715c52fd12f31907bd0,,,,,,,,,,,,,,,,,,,,,,,a,1,"[""0.243"",""0.396"",""0.776"",""0.655""]","[1,1,1,0]",0,41,41,41,1,0,1,,,1,FALSE,1.3663,,,,,,,,,,,,,,,,,,,,,,,,,,,,,,,
,613ad069b7f1de6a11fbf6b5,627c757313639d58a5c00530,2022-05-11_21h49.50.071,classification_task,2021.2.3,MacIntel,60.0024001,627c6715c52fd12f31907bd0,,,,,,,,,,,,,,,,,,,,,,,l,0,"[""0.285"",""0.530"",""0.880"",""0.659""]","[1,1,1,0]",0,42,42,42,1,0,0,,,1,FALSE,1.8485,,,,,,,,,,,,,,,,,,,,,,,,,,,,,,,
,613ad069b7f1de6a11fbf6b5,627c757313639d58a5c00530,2022-05-11_21h49.50.071,classification_task,2021.2.3,MacIntel,60.0024001,627c6715c52fd12f31907bd0,,,,,,,,,,,,,,,,,,,,,,,a,0,"[""0.069"",""0.431"",""0.120"",""0.823""]","[1,1,0,1]",0,43,43,43,1,1,1,,,1,FALSE,0.7049,,,,,,,,,,,,,,,,,,,,,,,,,,,,,,,
,613ad069b7f1de6a11fbf6b5,627c757313639d58a5c00530,2022-05-11_21h49.50.071,classification_task,2021.2.3,MacIntel,60.0024001,627c6715c52fd12f31907bd0,,,,,,,,,,,,,,,,,,,,,,,a,0,"[""0.156"",""0.360"",""0.494"",""0.691""]","[1,1,1,0]",0,44,44,44,1,1,0,,,1,FALSE,0.4657,,,,,,,,,,,,,,,,,,,,,,,,,,,,,,,
,613ad069b7f1de6a11fbf6b5,627c757313639d58a5c00530,2022-05-11_21h49.50.071,classification_task,2021.2.3,MacIntel,60.0024001,627c6715c52fd12f31907bd0,,,,,,,,,,,,,,,,,,,,,,,l,0,"[""0.243"",""0.192"",""0.776"",""0.953""]","[1,0,1,1]",0,45,45,45,1,0,1,,,1,FALSE,0.4982,,,,,,,,,,,,,,,,,,,,,,,,,,,,,,,
,613ad069b7f1de6a11fbf6b5,627c757313639d58a5c00530,2022-05-11_21h49.50.071,classification_task,2021.2.3,MacIntel,60.0024001,627c6715c52fd12f31907bd0,,,,,,,,,,,,,,,,,,,,,,,a,0,"[""0.069"",""0.691"",""0.566"",""0.823""]","[1,0,1,1]",0,46,46,46,1,1,1,,,1,FALSE,0.6976,,,,,,,,,,,,,,,,,,,,,,,,,,,,,,,
,613ad069b7f1de6a11fbf6b5,627c757313639d58a5c00530,2022-05-11_21h49.50.071,classification_task,2021.2.3,MacIntel,60.0024001,627c6715c52fd12f31907bd0,,,,,,,,,,,,,,,,,,,,,,,l,0,"[""0.285"",""0.655"",""0.880"",""0.916""]","[1,0,1,1]",0,47,47,47,1,0,0,,,1,FALSE,0.7703,,,,,,,,,,,,,,,,,,,,,,,,,,,,,,,
,613ad069b7f1de6a11fbf6b5,627c757313639d58a5c00530,2022-05-11_21h49.50.071,classification_task,2021.2.3,MacIntel,60.0024001,627c6715c52fd12f31907bd0,,,,,,,,,,,,,,,,,,,,,,,a,0,"[""0.156"",""0.028"",""0.494"",""0.730""]","[1,0,1,1]",0,48,48,48,1,1,0,,,1,FALSE,0.5849,,,,,,,,,,,,,,,,,,,,,,,,,,,,,,,
,613ad069b7f1de6a11fbf6b5,627c757313639d58a5c00530,2022-05-11_21h49.50.071,classification_task,2021.2.3,MacIntel,60.0024001,627c6715c52fd12f31907bd0,,,,,,,,,,,,,,,,,,,,,,,a,0,"[""0.069"",""0.431"",""0.566"",""0.691""]","[1,1,1,0]",0,49,49,49,1,1,1,,,1,FALSE,0.7982,,,,,,,,,,,,,,,,,,,,,,,,,,,,,,,
,613ad069b7f1de6a11fbf6b5,627c757313639d58a5c00530,2022-05-11_21h49.50.071,classification_task,2021.2.3,MacIntel,60.0024001,627c6715c52fd12f31907bd0,,,,,,,,,,,,,,,,,,,,,,,l,0,"[""0.285"",""0.530"",""0.322"",""0.916""]","[1,1,0,1]",0,50,50,50,1,0,0,,,1,FALSE,0.4983,,,,,,,,,,,,,,,,,,,,,,,,,,,,,,,
,613ad069b7f1de6a11fbf6b5,627c757313639d58a5c00530,2022-05-11_21h49.50.071,classification_task,2021.2.3,MacIntel,60.0024001,627c6715c52fd12f31907bd0,,,,,,,,,,,,,,,,,,,,,,,l,1,"[""0.322"",""0.431"",""0.566"",""0.823""]","[0,1,1,1]",0,51,51,51,1,1,1,,,1,FALSE,0.6506,,,,,,,,,,,,,,,,,,,,,,,,,,,,,,,
,613ad069b7f1de6a11fbf6b5,627c757313639d58a5c00530,2022-05-11_21h49.50.071,classification_task,2021.2.3,MacIntel,60.0024001,627c6715c52fd12f31907bd0,,,,,,,,,,,,,,,,,,,,,,,a,0,"[""0.109"",""0.360"",""0.494"",""0.730""]","[0,1,1,1]",0,52,52,52,1,1,0,,,1,FALSE,0.5991,,,,,,,,,,,,,,,,,,,,,,,,,,,,,,,
,613ad069b7f1de6a11fbf6b5,627c757313639d58a5c00530,2022-05-11_21h49.50.071,classification_task,2021.2.3,MacIntel,60.0024001,627c6715c52fd12f31907bd0,,,,,,,,,,,,,,,,,,,,,,,l,0,"[""0.243"",""0.396"",""0.690"",""0.953""]","[1,1,0,1]",0,53,53,53,1,0,1,,,1,FALSE,0.631,,,,,,,,,,,,,,,,,,,,,,,,,,,,,,,
,613ad069b7f1de6a11fbf6b5,627c757313639d58a5c00530,2022-05-11_21h49.50.071,classification_task,2021.2.3,MacIntel,60.0024001,627c6715c52fd12f31907bd0,,,,,,,,,,,,,,,,,,,,,,,l,0,"[""0.285"",""0.530"",""0.880"",""0.630""]","[1,1,1,0]",0,54,54,54,1,0,0,,,1,FALSE,0.6464,,,,,,,,,,,,,,,,,,,,,,,,,,,,,,,
,613ad069b7f1de6a11fbf6b5,627c757313639d58a5c00530,2022-05-11_21h49.50.071,classification_task,2021.2.3,MacIntel,60.0024001,627c6715c52fd12f31907bd0,,,,,,,,,,,,,,,,,,,,,,,a,0,"[""0.069"",""0.604"",""0.566"",""0.823""]","[1,0,1,1]",0,55,55,55,1,1,1,,,1,FALSE,0.6151,,,,,,,,,,,,,,,,,,,,,,,,,,,,,,,
,613ad069b7f1de6a11fbf6b5,627c757313639d58a5c00530,2022-05-11_21h49.50.071,classification_task,2021.2.3,MacIntel,60.0024001,627c6715c52fd12f31907bd0,,,,,,,,,,,,,,,,,,,,,,,a,1,"[""0.114"",""0.396"",""0.776"",""0.953""]","[0,1,1,1]",0,56,56,56,1,0,1,,,1,FALSE,0.6304,,,,,,,,,,,,,,,,,,,,,,,,,,,,,,,
,613ad069b7f1de6a11fbf6b5,627c757313639d58a5c00530,2022-05-11_21h49.50.071,classification_task,2021.2.3,MacIntel,60.0024001,627c6715c52fd12f31907bd0,,,,,,,,,,,,,,,,,,,,,,,l,0,"[""0.285"",""0.659"",""0.880"",""0.916""]","[1,0,1,1]",0,57,57,57,1,0,0,,,1,FALSE,0.6822,,,,,,,,,,,,,,,,,,,,,,,,,,,,,,,
,613ad069b7f1de6a11fbf6b5,627c757313639d58a5c00530,2022-05-11_21h49.50.071,classification_task,2021.2.3,MacIntel,60.0024001,627c6715c52fd12f31907bd0,,,,,,,,,,,,,,,,,,,,,,,l,0,"[""0.629"",""0.530"",""0.880"",""0.916""]","[0,1,1,1]",0,58,58,58,1,0,0,,,1,FALSE,0.6306,,,,,,,,,,,,,,,,,,,,,,,,,,,,,,,
,613ad069b7f1de6a11fbf6b5,627c757313639d58a5c00530,2022-05-11_21h49.50.071,classification_task,2021.2.3,MacIntel,60.0024001,627c6715c52fd12f31907bd0,,,,,,,,,,,,,,,,,,,,,,,a,0,"[""0.069"",""0.431"",""0.659"",""0.823""]","[1,1,0,1]",0,59,59,59,1,1,1,,,1,FALSE,0.6316,,,,,,,,,,,,,,,,,,,,,,,,,,,,,,,
,613ad069b7f1de6a11fbf6b5,627c757313639d58a5c00530,2022-05-11_21h49.50.071,classification_task,2021.2.3,MacIntel,60.0024001,627c6715c52fd12f31907bd0,,,,,,,,,,,,,,,,,,,,,,,l,0,"[""0.243"",""0.396"",""0.776"",""0.646""]","[1,1,1,0]",0,60,60,60,1,0,1,,,1,FALSE,1.2646,,,,,,,,,,,,,,,,,,,,,,,,,,,,,,,
,613ad069b7f1de6a11fbf6b5,627c757313639d58a5c00530,2022-05-11_21h49.50.071,classification_task,2021.2.3,MacIntel,60.0024001,627c6715c52fd12f31907bd0,,,,,,,,,,,,,,,,,,,,,,,a,0,"[""0.156"",""0.360"",""0.494"",""0.322""]","[1,1,1,0]",0,61,61,61,1,1,0,,,1,FALSE,0.6136,,,,,,,,,,,,,,,,,,,,,,,,,,,,,,,
,613ad069b7f1de6a11fbf6b5,627c757313639d58a5c00530,2022-05-11_21h49.50.071,classification_task,2021.2.3,MacIntel,60.0024001,627c6715c52fd12f31907bd0,,,,,,,,,,,,,,,,,,,,,,,l,0,"[""0.243"",""0.646"",""0.776"",""0.953""]","[1,0,1,1]",0,62,62,62,1,0,1,,,1,FALSE,0.9822,,,,,,,,,,,,,,,,,,,,,,,,,,,,,,,
,613ad069b7f1de6a11fbf6b5,627c757313639d58a5c00530,2022-05-11_21h49.50.071,classification_task,2021.2.3,MacIntel,60.0024001,627c6715c52fd12f31907bd0,,,,,,,,,,,,,,,,,,,,,,,a,0,"[""0.156"",""0.360"",""0.322"",""0.730""]","[1,1,0,1]",0,63,63,63,1,1,0,,,1,FALSE,0.5652,,,,,,,,,,,,,,,,,,,,,,,,,,,,,,,
,613ad069b7f1de6a11fbf6b5,627c757313639d58a5c00530,2022-05-11_21h49.50.071,classification_task,2021.2.3,MacIntel,60.0024001,627c6715c52fd12f31907bd0,,,,,,,,,,,,,,,,,,,,,,,,,,,,,,,,,,,,,,,0, ,,0,7.181046994,143.1469,0,2,2,2,1,2,3,,,,,,,,,,,,,,,,,,
,613ad069b7f1de6a11fbf6b5,627c757313639d58a5c00530,2022-05-11_21h49.50.071,classification_task,2021.2.3,MacIntel,60.0024001,627c6715c52fd12f31907bd0,,,,,,,,,,,,,,,,,,,,,,,,,,,,,,,,,,,,,,,1,  ,,0,7.708999302,145.4305,0,2,2,2,1,2,3,,,,,,,,,,,,,,,,,,
,613ad069b7f1de6a11fbf6b5,627c757313639d58a5c00530,2022-05-11_21h49.50.071,classification_task,2021.2.3,MacIntel,60.0024001,627c6715c52fd12f31907bd0,,,,,,,,,,,,,,,,,,,,,,,,,,,,,,,,,,,,,,,2,  ,,0,8.326857363,146.6436,0,2,2,2,1,2,3,,,,,,,,,,,,,,,,,,
,613ad069b7f1de6a11fbf6b5,627c757313639d58a5c00530,2022-05-11_21h49.50.071,classification_task,2021.2.3,MacIntel,60.0024001,627c6715c52fd12f31907bd0,,,,,,,,,,,,,,,,,,,,,,,,,,,,,,,,,,,,,,,,,,,,,0,2,2,2,1,,3,,,,,,,,,,,,,,,,,,
,613ad069b7f1de6a11fbf6b5,627c757313639d58a5c00530,2022-05-11_21h49.50.071,classification_task,2021.2.3,MacIntel,60.0024001,627c6715c52fd12f31907bd0,,,,,,,,,,,,,,,,,,,,,,,,,,,,,,,,,,,,,,,,,,,,,,,,,,,,,I believe the aid is a competent performer,,0.7,0,4,767.7657,0,0,0,0,1,0,,,,,
,613ad069b7f1de6a11fbf6b5,627c757313639d58a5c00530,2022-05-11_21h49.50.071,classification_task,2021.2.3,MacIntel,60.0024001,627c6715c52fd12f31907bd0,,,,,,,,,,,,,,,,,,,,,,,,,,,,,,,,,,,,,,,,,,,,,,,,,,,,,I trust the aid,,0.7,0,4,769.3972,0,0,0,0,1,0,,,,,
,613ad069b7f1de6a11fbf6b5,627c757313639d58a5c00530,2022-05-11_21h49.50.071,classification_task,2021.2.3,MacIntel,60.0024001,627c6715c52fd12f31907bd0,,,,,,,,,,,,,,,,,,,,,,,,,,,,,,,,,,,,,,,,,,,,,,,,,,,,,I have confidence in the advice given by the aid,,0.7,0,4,772.1797,0,0,0,0,1,0,,,,,
,613ad069b7f1de6a11fbf6b5,627c757313639d58a5c00530,2022-05-11_21h49.50.071,classification_task,2021.2.3,MacIntel,60.0024001,627c6715c52fd12f31907bd0,,,,,,,,,,,,,,,,,,,,,,,,,,,,,,,,,,,,,,,,,,,,,,,,,,,,,I can depend on the aid,,0.7,0,4,773.6286,0,0,0,0,1,0,,,,,
,613ad069b7f1de6a11fbf6b5,627c757313639d58a5c00530,2022-05-11_21h49.50.071,classification_task,2021.2.3,MacIntel,60.0024001,627c6715c52fd12f31907bd0,,,,,,,,,,,,,,,,,,,,,,,,,,,,,,,,,,,,,,,,,,,,,,,,,,,,,I can rely on the aid to behave in consistent ways,,0.7,0,4,777.7174,0,0,0,0,1,0,,,,,
,613ad069b7f1de6a11fbf6b5,627c757313639d58a5c00530,2022-05-11_21h49.50.071,classification_task,2021.2.3,MacIntel,60.0024001,627c6715c52fd12f31907bd0,,,,,,,,,,,,,,,,,,,,,,,,,,,,,,,,,,,,,,,,,,,,,,,,,,,,,I can rely on the aid to do its best every time I take its advice,,0.7,0,5,783.6571,0,0,0,0,1,0,,,,,
,613ad069b7f1de6a11fbf6b5,627c757313639d58a5c00530,2022-05-11_21h49.50.071,classification_task,2021.2.3,MacIntel,60.0024001,627c6715c52fd12f31907bd0,,,,,,,,,,,,,,,,,,,,,,,,,,,,,,,,,,,,,,,,,,,,,,,,,,,,,"On trials you completed with assistance from the aid, how frequently did you think the aid was correct?",,0.7,0,90,,0,0,0,0,1,0,,,,,
,613ad069b7f1de6a11fbf6b5,627c757313639d58a5c00530,2022-05-11_21h49.50.071,classification_task,2021.2.3,MacIntel,60.0024001,627c6715c52fd12f31907bd0,,,,,,,,,,,,,,,,,,,,,,,,,,,,,,,,,,,,,,,,,,,,,,,,,,,,,"On trials you completed without the aid, how frequently did you think you were correct?",,0.7,0,60,,0,0,0,0,1,0,,,,,
,613ad069b7f1de6a11fbf6b5,627c757313639d58a5c00530,2022-05-11_21h49.50.071,classification_task,2021.2.3,MacIntel,60.0024001,627c6715c52fd12f31907bd0,,,,,,,,,,,,,,,,,,,,,,,,,,,,,,,,,,,,,,,,,,,,,,,,,,,,,,,,,,,0,0,0,0,1,,,,,,
,613ad069b7f1de6a11fbf6b5,627c757313639d58a5c00530,2022-05-11_21h49.50.071,classification_task,2021.2.3,MacIntel,60.0024001,627c6715c52fd12f31907bd0,,,,,,,,,,,,,,,,,,,,,,,,,,,,,,,,,,,,,,,,,,,,,,,,,,,,,,,,,,,,,,,,,space,12.4938,809.2041,,
,613ad069b7f1de6a11fbf6b5,627c757313639d58a5c00530,2022-05-11_21h49.50.071,classification_task,2021.2.3,MacIntel,60.0024001,627c6715c52fd12f31907bd0,,,,,,,,,,,,,,,,,,,,,,,,,,,,,,,,,,,,,,,,,,,,,,,,,,,,,,,,,,,,,,,,,,,,"Mozilla/5.0 (Macintosh; Intel Mac OS X 10_13_6) AppleWebKit/537.36 (KHTML, like Gecko) Chrome/100.0.4896.127 Safari/537.36",
,613ad069b7f1de6a11fbf6b5,627c757313639d58a5c00530,2022-05-11_21h49.50.071,classification_task,2021.2.3,MacIntel,60.0024001,627c6715c52fd12f31907bd0,,,,,,,,,,,,,,,,,,,,,,,,,,,,,,,,,,,,,,,,,,,,,,,,,,,,,,,,,,,,,,,,,,,,,FADING
