usingWebGL,participant,session,date,expName,psychopyVersion,OS,frameRate,study_id,signatures_friend,signatures_foe,band_ranges_top,band_ranges_bottom,formitemText,formtype,formundefined,formitemWidth,formindex,formresponse,formrt,key_resp_2.keys,key_resp_2.rt,tute_resp.keys,tute_resp.rt,tutorial.thisRepN,tutorial.thisTrialN,tutorial.thisN,tutorial.thisIndex,tutorial.ran,key_resp_4.keys,key_resp_4.rt,key_resp.keys,key_resp.corr,key_resp.rt,lines_presented,is_signal_presented,trials.thisRepN,trials.thisTrialN,trials.thisN,trials.thisIndex,trials.ran,vessel,active_band,lines,is_signal,supported_pos,catch_trial,debrief_formindex,debrief_formitemText,debrief_formtype,debrief_formitemWidth,debrief_formresponse,debrief_formrt,phases.thisRepN,phases.thisTrialN,phases.thisN,phases.thisIndex,phases.ran,phases.order,phase,key_resp_3.keys,trustitemText,trusttype,trustitemWidth,trustindex,trustresponse,trustrt,support_status.thisRepN,support_status.thisTrialN,support_status.thisN,support_status.thisIndex,support_status.ran,support_status.order,key_resp_5.keys,key_resp_5.rt,globalClockTime,userAgent,manualCondition
TRUE,613aef3d9041bcd28952af82,627c6feefca8de0c05f73c11,2022-05-11_19h24.58.415,classification_task,2021.2.3,Win32,59.63384817,627c6715c52fd12f31907bd0,,,,,,,,,,,,,,,,,,,,,,,,,,,,,,,,,,,,,,,,,,,,,,,,,,,,,,,,,,,,,,,,,,,,,
,613aef3d9041bcd28952af82,627c6feefca8de0c05f73c11,2022-05-11_19h24.58.415,classification_task,2021.2.3,Win32,59.63384817,627c6715c52fd12f31907bd0,"[[""0.209"",""0.523"",""0.906"",""0.955""],[""0.247"",""0.343"",""0.653"",""0.866""]]","[[""0.050"",""0.380"",""0.583"",""0.693""],[""0.136"",""0.299"",""0.477"",""0.829""]]","[1,10]","[100,1000]",Video game experience,,,0.7,0,,,,,,,,,,,,,,,,,,,,,,,,,,,,,,,,,,,,,,,,,,,,,,,,,,,,,,,,,,,,
,613aef3d9041bcd28952af82,627c6feefca8de0c05f73c11,2022-05-11_19h24.58.415,classification_task,2021.2.3,Win32,59.63384817,627c6715c52fd12f31907bd0,,,,,Approximately how many hours did you spend playing video games in the last week?,,,0.7,0,10,,,,,,,,,,,,,,,,,,,,,,,,,,,,,,,,,,,,,,,,,,,,,,,,,,,,,,,,,,,
,613aef3d9041bcd28952af82,627c6feefca8de0c05f73c11,2022-05-11_19h24.58.415,classification_task,2021.2.3,Win32,59.63384817,627c6715c52fd12f31907bd0,,,,,"Which game did you play the most this year? (Enter ""None"" if you didn't play any)",,,0.7,0,Minecraft,,,,,,,,,,,,,,,,,,,,,,,,,,,,,,,,,,,,,,,,,,,,,,,,,,,,,,,,,,,
,613aef3d9041bcd28952af82,627c6feefca8de0c05f73c11,2022-05-11_19h24.58.415,classification_task,2021.2.3,Win32,59.63384817,627c6715c52fd12f31907bd0,,,,,Visual perception,,,0.7,0,,,,,,,,,,,,,,,,,,,,,,,,,,,,,,,,,,,,,,,,,,,,,,,,,,,,,,,,,,,,
,613aef3d9041bcd28952af82,627c6feefca8de0c05f73c11,2022-05-11_19h24.58.415,classification_task,2021.2.3,Win32,59.63384817,627c6715c52fd12f31907bd0,,,,,Do you have any form of color blindness?,,,0.7,0,No,48.5809,,,,,,,,,,,,,,,,,,,,,,,,,,,,,,,,,,,,,,,,,,,,,,,,,,,,,,,,,,
,613aef3d9041bcd28952af82,627c6feefca8de0c05f73c11,2022-05-11_19h24.58.415,classification_task,2021.2.3,Win32,59.63384817,627c6715c52fd12f31907bd0,,,,,Do you use software to change the colour temperature of your screen (e.g. f.lux)?,,,0.7,0,No,52.7594,,,,,,,,,,,,,,,,,,,,,,,,,,,,,,,,,,,,,,,,,,,,,,,,,,,,,,,,,,
,613aef3d9041bcd28952af82,627c6feefca8de0c05f73c11,2022-05-11_19h24.58.415,classification_task,2021.2.3,Win32,59.63384817,627c6715c52fd12f31907bd0,,,,,,,,,,,,space,29.088,space,8.2649,0,0,0,0,1,,,,,,,,,,,,,,,,,,,,,,,,,,,,,,,,,,,,,,,,,,,,,,,,,
,613aef3d9041bcd28952af82,627c6feefca8de0c05f73c11,2022-05-11_19h24.58.415,classification_task,2021.2.3,Win32,59.63384817,627c6715c52fd12f31907bd0,,,,,,,,,,,,,,space,11.7124,1,0,1,0,1,,,,,,,,,,,,,,,,,,,,,,,,,,,,,,,,,,,,,,,,,,,,,,,,,
,613aef3d9041bcd28952af82,627c6feefca8de0c05f73c11,2022-05-11_19h24.58.415,classification_task,2021.2.3,Win32,59.63384817,627c6715c52fd12f31907bd0,,,,,,,,,,,,,,space,16.3938,2,0,2,0,1,,,,,,,,,,,,,,,,,,,,,,,,,,,,,,,,,,,,,,,,,,,,,,,,,
,613aef3d9041bcd28952af82,627c6feefca8de0c05f73c11,2022-05-11_19h24.58.415,classification_task,2021.2.3,Win32,59.63384817,627c6715c52fd12f31907bd0,,,,,,,,,,,,,,space,25.1264,3,0,3,0,1,,,,,,,,,,,,,,,,,,,,,,,,,,,,,,,,,,,,,,,,,,,,,,,,,
,613aef3d9041bcd28952af82,627c6feefca8de0c05f73c11,2022-05-11_19h24.58.415,classification_task,2021.2.3,Win32,59.63384817,627c6715c52fd12f31907bd0,,,,,,,,,,,,,,space,17.8446,4,0,4,0,1,,,,,,,,,,,,,,,,,,,,,,,,,,,,,,,,,,,,,,,,,,,,,,,,,
,613aef3d9041bcd28952af82,627c6feefca8de0c05f73c11,2022-05-11_19h24.58.415,classification_task,2021.2.3,Win32,59.63384817,627c6715c52fd12f31907bd0,,,,,,,,,,,,,,,,,,,,,space,21.4113,a,1,6.3533,"[""0.209"",""0.523"",""0.906"",""0.773""]","[1,1,1,0]",0,0,0,0,1,0,0,,,0,FALSE,,,,,,,,,,,,,,,,,,,,,,,,,,,,,,,
,613aef3d9041bcd28952af82,627c6feefca8de0c05f73c11,2022-05-11_19h24.58.415,classification_task,2021.2.3,Win32,59.63384817,627c6715c52fd12f31907bd0,,,,,,,,,,,,,,,,,,,,,,,a,0,3.9949,"[""0.050"",""0.735"",""0.583"",""0.693""]","[1,0,1,1]",0,1,1,1,1,1,0,,,0,FALSE,,,,,,,,,,,,,,,,,,,,,,,,,,,,,,,
,613aef3d9041bcd28952af82,627c6feefca8de0c05f73c11,2022-05-11_19h24.58.415,classification_task,2021.2.3,Win32,59.63384817,627c6715c52fd12f31907bd0,,,,,,,,,,,,,,,,,,,,,,,l,1,7.6883,"[""0.750"",""0.299"",""0.477"",""0.829""]","[0,1,1,1]",0,2,2,2,1,1,1,,,0,FALSE,,,,,,,,,,,,,,,,,,,,,,,,,,,,,,,
,613aef3d9041bcd28952af82,627c6feefca8de0c05f73c11,2022-05-11_19h24.58.415,classification_task,2021.2.3,Win32,59.63384817,627c6715c52fd12f31907bd0,,,,,,,,,,,,,,,,,,,,,,,a,1,9.2604,"[""0.247"",""0.343"",""0.782"",""0.866""]","[1,1,0,1]",0,3,3,3,1,0,1,,,0,FALSE,,,,,,,,,,,,,,,,,,,,,,,,,,,,,,,
,613aef3d9041bcd28952af82,627c6feefca8de0c05f73c11,2022-05-11_19h24.58.415,classification_task,2021.2.3,Win32,59.63384817,627c6715c52fd12f31907bd0,,,,,,,,,,,,,,,,,,,,,,,l,1,4.6079,"[""0.050"",""0.380"",""0.583"",""0.747""]","[1,1,1,0]",0,4,4,4,1,1,0,,,0,FALSE,,,,,,,,,,,,,,,,,,,,,,,,,,,,,,,
,613aef3d9041bcd28952af82,627c6feefca8de0c05f73c11,2022-05-11_19h24.58.415,classification_task,2021.2.3,Win32,59.63384817,627c6715c52fd12f31907bd0,,,,,,,,,,,,,,,,,,,,,,,l,1,6.6917,"[""0.136"",""0.299"",""0.477"",""0.773""]","[1,1,1,0]",0,5,5,5,1,1,1,,,0,FALSE,,,,,,,,,,,,,,,,,,,,,,,,,,,,,,,
,613aef3d9041bcd28952af82,627c6feefca8de0c05f73c11,2022-05-11_19h24.58.415,classification_task,2021.2.3,Win32,59.63384817,627c6715c52fd12f31907bd0,,,,,,,,,,,,,,,,,,,,,,,a,0,3.8921,"[""0.050"",""0.380"",""0.750"",""0.693""]","[1,1,0,1]",0,6,6,6,1,1,0,,,0,FALSE,,,,,,,,,,,,,,,,,,,,,,,,,,,,,,,
,613aef3d9041bcd28952af82,627c6feefca8de0c05f73c11,2022-05-11_19h24.58.415,classification_task,2021.2.3,Win32,59.63384817,627c6715c52fd12f31907bd0,,,,,,,,,,,,,,,,,,,,,,,l,1,7.7057,"[""0.136"",""0.299"",""0.422"",""0.829""]","[1,1,0,1]",0,7,7,7,1,1,1,,,0,FALSE,,,,,,,,,,,,,,,,,,,,,,,,,,,,,,,
,613aef3d9041bcd28952af82,627c6feefca8de0c05f73c11,2022-05-11_19h24.58.415,classification_task,2021.2.3,Win32,59.63384817,627c6715c52fd12f31907bd0,,,,,,,,,,,,,,,,,,,,,,,a,1,8.8426,"[""0.414"",""0.343"",""0.653"",""0.866""]","[0,1,1,1]",0,8,8,8,1,0,1,,,0,FALSE,,,,,,,,,,,,,,,,,,,,,,,,,,,,,,,
,613aef3d9041bcd28952af82,627c6feefca8de0c05f73c11,2022-05-11_19h24.58.415,classification_task,2021.2.3,Win32,59.63384817,627c6715c52fd12f31907bd0,,,,,,,,,,,,,,,,,,,,,,,a,1,3.2381,"[""0.209"",""0.523"",""0.414"",""0.955""]","[1,1,0,1]",0,9,9,9,1,0,0,,,0,FALSE,,,,,,,,,,,,,,,,,,,,,,,,,,,,,,,
,613aef3d9041bcd28952af82,627c6feefca8de0c05f73c11,2022-05-11_19h24.58.415,classification_task,2021.2.3,Win32,59.63384817,627c6715c52fd12f31907bd0,,,,,,,,,,,,,,,,,,,,,,,a,1,3.3767,"[""0.768"",""0.523"",""0.906"",""0.955""]","[0,1,1,1]",0,10,10,10,1,0,0,,,0,FALSE,,,,,,,,,,,,,,,,,,,,,,,,,,,,,,,
,613aef3d9041bcd28952af82,627c6feefca8de0c05f73c11,2022-05-11_19h24.58.415,classification_task,2021.2.3,Win32,59.63384817,627c6715c52fd12f31907bd0,,,,,,,,,,,,,,,,,,,,,,,a,1,4.8574,"[""0.247"",""0.773"",""0.653"",""0.866""]","[1,0,1,1]",0,11,11,11,1,0,1,,,0,FALSE,,,,,,,,,,,,,,,,,,,,,,,,,,,,,,,
,613aef3d9041bcd28952af82,627c6feefca8de0c05f73c11,2022-05-11_19h24.58.415,classification_task,2021.2.3,Win32,59.63384817,627c6715c52fd12f31907bd0,,,,,,,,,,,,,,,,,,,,,,,l,1,4.1981,"[""0.617"",""0.380"",""0.583"",""0.693""]","[0,1,1,1]",0,12,12,12,1,1,0,,,0,FALSE,,,,,,,,,,,,,,,,,,,,,,,,,,,,,,,
,613aef3d9041bcd28952af82,627c6feefca8de0c05f73c11,2022-05-11_19h24.58.415,classification_task,2021.2.3,Win32,59.63384817,627c6715c52fd12f31907bd0,,,,,,,,,,,,,,,,,,,,,,,a,1,5.3972,"[""0.209"",""0.175"",""0.906"",""0.955""]","[1,0,1,1]",0,13,13,13,1,0,0,,,0,FALSE,,,,,,,,,,,,,,,,,,,,,,,,,,,,,,,
,613aef3d9041bcd28952af82,627c6feefca8de0c05f73c11,2022-05-11_19h24.58.415,classification_task,2021.2.3,Win32,59.63384817,627c6715c52fd12f31907bd0,,,,,,,,,,,,,,,,,,,,,,,a,1,4.6777,"[""0.247"",""0.343"",""0.653"",""0.761""]","[1,1,1,0]",0,14,14,14,1,0,1,,,0,FALSE,,,,,,,,,,,,,,,,,,,,,,,,,,,,,,,
,613aef3d9041bcd28952af82,627c6feefca8de0c05f73c11,2022-05-11_19h24.58.415,classification_task,2021.2.3,Win32,59.63384817,627c6715c52fd12f31907bd0,,,,,,,,,,,,,,,,,,,,,,,l,1,5.0006,"[""0.136"",""0.414"",""0.477"",""0.829""]","[1,0,1,1]",0,15,15,15,1,1,1,,,0,FALSE,,,,,,,,,,,,,,,,,,,,,,,,,,,,,,,
,613aef3d9041bcd28952af82,627c6feefca8de0c05f73c11,2022-05-11_19h24.58.415,classification_task,2021.2.3,Win32,59.63384817,627c6715c52fd12f31907bd0,,,,,,,,,,,,,,,,,,,,,,,a,0,4.2278,"[""0.747"",""0.299"",""0.477"",""0.829""]","[0,1,1,1]",0,16,16,16,1,1,1,,,0,FALSE,,,,,,,,,,,,,,,,,,,,,,,,,,,,,,,
,613aef3d9041bcd28952af82,627c6feefca8de0c05f73c11,2022-05-11_19h24.58.415,classification_task,2021.2.3,Win32,59.63384817,627c6715c52fd12f31907bd0,,,,,,,,,,,,,,,,,,,,,,,a,1,6.5967,"[""0.247"",""0.343"",""0.422"",""0.866""]","[1,1,0,1]",0,17,17,17,1,0,1,,,0,FALSE,,,,,,,,,,,,,,,,,,,,,,,,,,,,,,,
,613aef3d9041bcd28952af82,627c6feefca8de0c05f73c11,2022-05-11_19h24.58.415,classification_task,2021.2.3,Win32,59.63384817,627c6715c52fd12f31907bd0,,,,,,,,,,,,,,,,,,,,,,,a,1,3.4726,"[""0.209"",""0.523"",""0.906"",""0.087""]","[1,1,1,0]",0,18,18,18,1,0,0,,,0,FALSE,,,,,,,,,,,,,,,,,,,,,,,,,,,,,,,
,613aef3d9041bcd28952af82,627c6feefca8de0c05f73c11,2022-05-11_19h24.58.415,classification_task,2021.2.3,Win32,59.63384817,627c6715c52fd12f31907bd0,,,,,,,,,,,,,,,,,,,,,,,l,1,3.4579,"[""0.136"",""0.747"",""0.477"",""0.829""]","[1,0,1,1]",0,19,19,19,1,1,1,,,0,FALSE,,,,,,,,,,,,,,,,,,,,,,,,,,,,,,,
,613aef3d9041bcd28952af82,627c6feefca8de0c05f73c11,2022-05-11_19h24.58.415,classification_task,2021.2.3,Win32,59.63384817,627c6715c52fd12f31907bd0,,,,,,,,,,,,,,,,,,,,,,,l,1,3.6235,"[""0.050"",""0.768"",""0.583"",""0.693""]","[1,0,1,1]",0,20,20,20,1,1,0,,,0,FALSE,,,,,,,,,,,,,,,,,,,,,,,,,,,,,,,
,613aef3d9041bcd28952af82,627c6feefca8de0c05f73c11,2022-05-11_19h24.58.415,classification_task,2021.2.3,Win32,59.63384817,627c6715c52fd12f31907bd0,,,,,,,,,,,,,,,,,,,,,,,l,0,6.8563,"[""0.247"",""0.773"",""0.653"",""0.866""]","[1,0,1,1]",0,21,21,21,1,0,1,,,0,FALSE,,,,,,,,,,,,,,,,,,,,,,,,,,,,,,,
,613aef3d9041bcd28952af82,627c6feefca8de0c05f73c11,2022-05-11_19h24.58.415,classification_task,2021.2.3,Win32,59.63384817,627c6715c52fd12f31907bd0,,,,,,,,,,,,,,,,,,,,,,,l,0,3.0211,"[""0.209"",""0.523"",""0.087"",""0.955""]","[1,1,0,1]",0,22,22,22,1,0,0,,,0,FALSE,,,,,,,,,,,,,,,,,,,,,,,,,,,,,,,
,613aef3d9041bcd28952af82,627c6feefca8de0c05f73c11,2022-05-11_19h24.58.415,classification_task,2021.2.3,Win32,59.63384817,627c6715c52fd12f31907bd0,,,,,,,,,,,,,,,,,,,,,,,l,0,3.2422,"[""0.782"",""0.343"",""0.653"",""0.866""]","[0,1,1,1]",0,23,23,23,1,0,1,,,0,FALSE,,,,,,,,,,,,,,,,,,,,,,,,,,,,,,,
,613aef3d9041bcd28952af82,627c6feefca8de0c05f73c11,2022-05-11_19h24.58.415,classification_task,2021.2.3,Win32,59.63384817,627c6715c52fd12f31907bd0,,,,,,,,,,,,,,,,,,,,,,,a,1,3.9158,"[""0.247"",""0.343"",""0.653"",""0.768""]","[1,1,1,0]",0,24,24,24,1,0,1,,,0,FALSE,,,,,,,,,,,,,,,,,,,,,,,,,,,,,,,
,613aef3d9041bcd28952af82,627c6feefca8de0c05f73c11,2022-05-11_19h24.58.415,classification_task,2021.2.3,Win32,59.63384817,627c6715c52fd12f31907bd0,,,,,,,,,,,,,,,,,,,,,,,a,1,4.8231,"[""0.761"",""0.523"",""0.906"",""0.955""]","[0,1,1,1]",0,25,25,25,1,0,0,,,0,FALSE,,,,,,,,,,,,,,,,,,,,,,,,,,,,,,,
,613aef3d9041bcd28952af82,627c6feefca8de0c05f73c11,2022-05-11_19h24.58.415,classification_task,2021.2.3,Win32,59.63384817,627c6715c52fd12f31907bd0,,,,,,,,,,,,,,,,,,,,,,,l,1,4.0595,"[""0.773"",""0.380"",""0.583"",""0.693""]","[0,1,1,1]",0,26,26,26,1,1,0,,,0,FALSE,,,,,,,,,,,,,,,,,,,,,,,,,,,,,,,
,613aef3d9041bcd28952af82,627c6feefca8de0c05f73c11,2022-05-11_19h24.58.415,classification_task,2021.2.3,Win32,59.63384817,627c6715c52fd12f31907bd0,,,,,,,,,,,,,,,,,,,,,,,l,1,5.5587,"[""0.050"",""0.380"",""0.583"",""0.768""]","[1,1,1,0]",0,27,27,27,1,1,0,,,0,FALSE,,,,,,,,,,,,,,,,,,,,,,,,,,,,,,,
,613aef3d9041bcd28952af82,627c6feefca8de0c05f73c11,2022-05-11_19h24.58.415,classification_task,2021.2.3,Win32,59.63384817,627c6715c52fd12f31907bd0,,,,,,,,,,,,,,,,,,,,,,,a,1,3.5445,"[""0.209"",""0.422"",""0.906"",""0.955""]","[1,0,1,1]",0,28,28,28,1,0,0,,,0,FALSE,,,,,,,,,,,,,,,,,,,,,,,,,,,,,,,
,613aef3d9041bcd28952af82,627c6feefca8de0c05f73c11,2022-05-11_19h24.58.415,classification_task,2021.2.3,Win32,59.63384817,627c6715c52fd12f31907bd0,,,,,,,,,,,,,,,,,,,,,,,l,1,4.3451,"[""0.050"",""0.380"",""0.617"",""0.693""]","[1,1,0,1]",0,29,29,29,1,1,0,,,0,FALSE,,,,,,,,,,,,,,,,,,,,,,,,,,,,,,,
,613aef3d9041bcd28952af82,627c6feefca8de0c05f73c11,2022-05-11_19h24.58.415,classification_task,2021.2.3,Win32,59.63384817,627c6715c52fd12f31907bd0,,,,,,,,,,,,,,,,,,,,,,,l,1,7.4424,"[""0.136"",""0.299"",""0.477"",""0.087""]","[1,1,1,0]",0,30,30,30,1,1,1,,,0,FALSE,,,,,,,,,,,,,,,,,,,,,,,,,,,,,,,
,613aef3d9041bcd28952af82,627c6feefca8de0c05f73c11,2022-05-11_19h24.58.415,classification_task,2021.2.3,Win32,59.63384817,627c6715c52fd12f31907bd0,,,,,,,,,,,,,,,,,,,,,,,l,1,4.1122,"[""0.136"",""0.299"",""0.422"",""0.829""]","[1,1,0,1]",0,31,31,31,1,1,1,,,0,FALSE,,,,,,,,,,,,,,,,,,,,,,,,,,,,,,,
,613aef3d9041bcd28952af82,627c6feefca8de0c05f73c11,2022-05-11_19h24.58.415,classification_task,2021.2.3,Win32,59.63384817,627c6715c52fd12f31907bd0,,,,,,,,,,,,,,,,,,,,,,,l,0,4.3886,"[""0.247"",""0.343"",""0.782"",""0.866""]","[1,1,0,1]",0,32,32,32,1,0,1,,,0,FALSE,,,,,,,,,,,,,,,,,,,,,,,,,,,,,,,
,613aef3d9041bcd28952af82,627c6feefca8de0c05f73c11,2022-05-11_19h24.58.415,classification_task,2021.2.3,Win32,59.63384817,627c6715c52fd12f31907bd0,,,,,,,,,,,,,,,,,,,,,,,a,0,1.9936,"[""0.136"",""0.299"",""0.477"",""0.175""]","[1,1,1,0]",0,33,33,33,1,1,1,,,0,FALSE,,,,,,,,,,,,,,,,,,,,,,,,,,,,,,,
,613aef3d9041bcd28952af82,627c6feefca8de0c05f73c11,2022-05-11_19h24.58.415,classification_task,2021.2.3,Win32,59.63384817,627c6715c52fd12f31907bd0,,,,,,,,,,,,,,,,,,,,,,,a,0,1.9297,"[""0.083"",""0.299"",""0.477"",""0.829""]","[0,1,1,1]",0,34,34,34,1,1,1,,,0,FALSE,,,,,,,,,,,,,,,,,,,,,,,,,,,,,,,
,613aef3d9041bcd28952af82,627c6feefca8de0c05f73c11,2022-05-11_19h24.58.415,classification_task,2021.2.3,Win32,59.63384817,627c6715c52fd12f31907bd0,,,,,,,,,,,,,,,,,,,,,,,l,0,2.193,"[""0.792"",""0.343"",""0.653"",""0.866""]","[0,1,1,1]",0,35,35,35,1,0,1,,,0,FALSE,,,,,,,,,,,,,,,,,,,,,,,,,,,,,,,
,613aef3d9041bcd28952af82,627c6feefca8de0c05f73c11,2022-05-11_19h24.58.415,classification_task,2021.2.3,Win32,59.63384817,627c6715c52fd12f31907bd0,,,,,,,,,,,,,,,,,,,,,,,a,1,2.6271,"[""0.209"",""0.523"",""0.175"",""0.955""]","[1,1,0,1]",0,36,36,36,1,0,0,,,0,FALSE,,,,,,,,,,,,,,,,,,,,,,,,,,,,,,,
,613aef3d9041bcd28952af82,627c6feefca8de0c05f73c11,2022-05-11_19h24.58.415,classification_task,2021.2.3,Win32,59.63384817,627c6715c52fd12f31907bd0,,,,,,,,,,,,,,,,,,,,,,,a,0,2.1422,"[""0.050"",""0.750"",""0.583"",""0.693""]","[1,0,1,1]",0,37,37,37,1,1,0,,,0,FALSE,,,,,,,,,,,,,,,,,,,,,,,,,,,,,,,
,613aef3d9041bcd28952af82,627c6feefca8de0c05f73c11,2022-05-11_19h24.58.415,classification_task,2021.2.3,Win32,59.63384817,627c6715c52fd12f31907bd0,,,,,,,,,,,,,,,,,,,,,,,l,0,2.712,"[""0.087"",""0.523"",""0.906"",""0.955""]","[0,1,1,1]",0,38,38,38,1,0,0,,,0,FALSE,,,,,,,,,,,,,,,,,,,,,,,,,,,,,,,
,613aef3d9041bcd28952af82,627c6feefca8de0c05f73c11,2022-05-11_19h24.58.415,classification_task,2021.2.3,Win32,59.63384817,627c6715c52fd12f31907bd0,,,,,,,,,,,,,,,,,,,,,,,l,1,2.1806,"[""0.136"",""0.299"",""0.735"",""0.829""]","[1,1,0,1]",0,39,39,39,1,1,1,,,0,FALSE,,,,,,,,,,,,,,,,,,,,,,,,,,,,,,,
,613aef3d9041bcd28952af82,627c6feefca8de0c05f73c11,2022-05-11_19h24.58.415,classification_task,2021.2.3,Win32,59.63384817,627c6715c52fd12f31907bd0,,,,,,,,,,,,,,,,,,,,,,,a,1,1.7581,"[""0.247"",""0.761"",""0.653"",""0.866""]","[1,0,1,1]",0,40,40,40,1,0,1,,,0,FALSE,,,,,,,,,,,,,,,,,,,,,,,,,,,,,,,
,613aef3d9041bcd28952af82,627c6feefca8de0c05f73c11,2022-05-11_19h24.58.415,classification_task,2021.2.3,Win32,59.63384817,627c6715c52fd12f31907bd0,,,,,,,,,,,,,,,,,,,,,,,l,1,1.6097,"[""0.050"",""0.380"",""0.583"",""0.422""]","[1,1,1,0]",0,41,41,41,1,1,0,,,0,FALSE,,,,,,,,,,,,,,,,,,,,,,,,,,,,,,,
,613aef3d9041bcd28952af82,627c6feefca8de0c05f73c11,2022-05-11_19h24.58.415,classification_task,2021.2.3,Win32,59.63384817,627c6715c52fd12f31907bd0,,,,,,,,,,,,,,,,,,,,,,,a,1,1.6613,"[""0.209"",""0.523"",""0.906"",""0.792""]","[1,1,1,0]",0,42,42,42,1,0,0,,,0,FALSE,,,,,,,,,,,,,,,,,,,,,,,,,,,,,,,
,613aef3d9041bcd28952af82,627c6feefca8de0c05f73c11,2022-05-11_19h24.58.415,classification_task,2021.2.3,Win32,59.63384817,627c6715c52fd12f31907bd0,,,,,,,,,,,,,,,,,,,,,,,l,1,1.7104,"[""0.414"",""0.380"",""0.583"",""0.693""]","[0,1,1,1]",0,43,43,43,1,1,0,,,0,FALSE,,,,,,,,,,,,,,,,,,,,,,,,,,,,,,,
,613aef3d9041bcd28952af82,627c6feefca8de0c05f73c11,2022-05-11_19h24.58.415,classification_task,2021.2.3,Win32,59.63384817,627c6715c52fd12f31907bd0,,,,,,,,,,,,,,,,,,,,,,,l,1,1.6567,"[""0.136"",""0.175"",""0.477"",""0.829""]","[1,0,1,1]",0,44,44,44,1,1,1,,,0,FALSE,,,,,,,,,,,,,,,,,,,,,,,,,,,,,,,
,613aef3d9041bcd28952af82,627c6feefca8de0c05f73c11,2022-05-11_19h24.58.415,classification_task,2021.2.3,Win32,59.63384817,627c6715c52fd12f31907bd0,,,,,,,,,,,,,,,,,,,,,,,a,1,1.3279,"[""0.247"",""0.343"",""0.653"",""0.768""]","[1,1,1,0]",0,45,45,45,1,0,1,,,0,FALSE,,,,,,,,,,,,,,,,,,,,,,,,,,,,,,,
,613aef3d9041bcd28952af82,627c6feefca8de0c05f73c11,2022-05-11_19h24.58.415,classification_task,2021.2.3,Win32,59.63384817,627c6715c52fd12f31907bd0,,,,,,,,,,,,,,,,,,,,,,,l,1,1.4601,"[""0.050"",""0.380"",""0.761"",""0.693""]","[1,1,0,1]",0,46,46,46,1,1,0,,,0,FALSE,,,,,,,,,,,,,,,,,,,,,,,,,,,,,,,
,613aef3d9041bcd28952af82,627c6feefca8de0c05f73c11,2022-05-11_19h24.58.415,classification_task,2021.2.3,Win32,59.63384817,627c6715c52fd12f31907bd0,,,,,,,,,,,,,,,,,,,,,,,l,0,1.4082,"[""0.209"",""0.083"",""0.906"",""0.955""]","[1,0,1,1]",0,47,47,47,1,0,0,,,0,FALSE,,,,,,,,,,,,,,,,,,,,,,,,,,,,,,,
,613aef3d9041bcd28952af82,627c6feefca8de0c05f73c11,2022-05-11_19h24.58.415,classification_task,2021.2.3,Win32,59.63384817,627c6715c52fd12f31907bd0,,,,,,,,,,,,,,,,,,,,,,,l,1,1.1739,"[""0.782"",""0.299"",""0.477"",""0.829""]","[0,1,1,1]",0,48,48,48,1,1,1,,,0,FALSE,,,,,,,,,,,,,,,,,,,,,,,,,,,,,,,
,613aef3d9041bcd28952af82,627c6feefca8de0c05f73c11,2022-05-11_19h24.58.415,classification_task,2021.2.3,Win32,59.63384817,627c6715c52fd12f31907bd0,,,,,,,,,,,,,,,,,,,,,,,a,0,2.6416,"[""0.050"",""0.380"",""0.773"",""0.693""]","[1,1,0,1]",0,49,49,49,1,1,0,,,0,FALSE,,,,,,,,,,,,,,,,,,,,,,,,,,,,,,,
,613aef3d9041bcd28952af82,627c6feefca8de0c05f73c11,2022-05-11_19h24.58.415,classification_task,2021.2.3,Win32,59.63384817,627c6715c52fd12f31907bd0,,,,,,,,,,,,,,,,,,,,,,,a,1,1.3946,"[""0.747"",""0.343"",""0.653"",""0.866""]","[0,1,1,1]",0,50,50,50,1,0,1,,,0,FALSE,,,,,,,,,,,,,,,,,,,,,,,,,,,,,,,
,613aef3d9041bcd28952af82,627c6feefca8de0c05f73c11,2022-05-11_19h24.58.415,classification_task,2021.2.3,Win32,59.63384817,627c6715c52fd12f31907bd0,,,,,,,,,,,,,,,,,,,,,,,a,1,1.6432,"[""0.247"",""0.343"",""0.792"",""0.866""]","[1,1,0,1]",0,51,51,51,1,0,1,,,0,FALSE,,,,,,,,,,,,,,,,,,,,,,,,,,,,,,,
,613aef3d9041bcd28952af82,627c6feefca8de0c05f73c11,2022-05-11_19h24.58.415,classification_task,2021.2.3,Win32,59.63384817,627c6715c52fd12f31907bd0,,,,,,,,,,,,,,,,,,,,,,,l,1,1.6764,"[""0.136"",""0.299"",""0.792"",""0.829""]","[1,1,0,1]",0,52,52,52,1,1,1,,,0,FALSE,,,,,,,,,,,,,,,,,,,,,,,,,,,,,,,
,613aef3d9041bcd28952af82,627c6feefca8de0c05f73c11,2022-05-11_19h24.58.415,classification_task,2021.2.3,Win32,59.63384817,627c6715c52fd12f31907bd0,,,,,,,,,,,,,,,,,,,,,,,a,0,1.7078,"[""0.050"",""0.380"",""0.583"",""0.735""]","[1,1,1,0]",0,53,53,53,1,1,0,,,0,FALSE,,,,,,,,,,,,,,,,,,,,,,,,,,,,,,,
,613aef3d9041bcd28952af82,627c6feefca8de0c05f73c11,2022-05-11_19h24.58.415,classification_task,2021.2.3,Win32,59.63384817,627c6715c52fd12f31907bd0,,,,,,,,,,,,,,,,,,,,,,,l,1,1.4094,"[""0.050"",""0.095"",""0.583"",""0.693""]","[1,0,1,1]",0,54,54,54,1,1,0,,,0,FALSE,,,,,,,,,,,,,,,,,,,,,,,,,,,,,,,
,613aef3d9041bcd28952af82,627c6feefca8de0c05f73c11,2022-05-11_19h24.58.415,classification_task,2021.2.3,Win32,59.63384817,627c6715c52fd12f31907bd0,,,,,,,,,,,,,,,,,,,,,,,a,1,1.7958,"[""0.209"",""0.523"",""0.906"",""0.617""]","[1,1,1,0]",0,55,55,55,1,0,0,,,0,FALSE,,,,,,,,,,,,,,,,,,,,,,,,,,,,,,,
,613aef3d9041bcd28952af82,627c6feefca8de0c05f73c11,2022-05-11_19h24.58.415,classification_task,2021.2.3,Win32,59.63384817,627c6715c52fd12f31907bd0,,,,,,,,,,,,,,,,,,,,,,,l,1,1.7626,"[""0.136"",""0.792"",""0.477"",""0.829""]","[1,0,1,1]",0,56,56,56,1,1,1,,,0,FALSE,,,,,,,,,,,,,,,,,,,,,,,,,,,,,,,
,613aef3d9041bcd28952af82,627c6feefca8de0c05f73c11,2022-05-11_19h24.58.415,classification_task,2021.2.3,Win32,59.63384817,627c6715c52fd12f31907bd0,,,,,,,,,,,,,,,,,,,,,,,a,0,1.9617,"[""0.136"",""0.299"",""0.477"",""0.787""]","[1,1,1,0]",0,57,57,57,1,1,1,,,0,FALSE,,,,,,,,,,,,,,,,,,,,,,,,,,,,,,,
,613aef3d9041bcd28952af82,627c6feefca8de0c05f73c11,2022-05-11_19h24.58.415,classification_task,2021.2.3,Win32,59.63384817,627c6715c52fd12f31907bd0,,,,,,,,,,,,,,,,,,,,,,,l,0,1.1122,"[""0.209"",""0.747"",""0.906"",""0.955""]","[1,0,1,1]",0,58,58,58,1,0,0,,,0,FALSE,,,,,,,,,,,,,,,,,,,,,,,,,,,,,,,
,613aef3d9041bcd28952af82,627c6feefca8de0c05f73c11,2022-05-11_19h24.58.415,classification_task,2021.2.3,Win32,59.63384817,627c6715c52fd12f31907bd0,,,,,,,,,,,,,,,,,,,,,,,a,1,1.7489,"[""0.209"",""0.523"",""0.414"",""0.955""]","[1,1,0,1]",0,59,59,59,1,0,0,,,0,FALSE,,,,,,,,,,,,,,,,,,,,,,,,,,,,,,,
,613aef3d9041bcd28952af82,627c6feefca8de0c05f73c11,2022-05-11_19h24.58.415,classification_task,2021.2.3,Win32,59.63384817,627c6715c52fd12f31907bd0,,,,,,,,,,,,,,,,,,,,,,,a,1,1.9267,"[""0.247"",""0.343"",""0.653"",""0.414""]","[1,1,1,0]",0,60,60,60,1,0,1,,,0,FALSE,,,,,,,,,,,,,,,,,,,,,,,,,,,,,,,
,613aef3d9041bcd28952af82,627c6feefca8de0c05f73c11,2022-05-11_19h24.58.415,classification_task,2021.2.3,Win32,59.63384817,627c6715c52fd12f31907bd0,,,,,,,,,,,,,,,,,,,,,,,l,0,1.3269,"[""0.175"",""0.523"",""0.906"",""0.955""]","[0,1,1,1]",0,61,61,61,1,0,0,,,0,FALSE,,,,,,,,,,,,,,,,,,,,,,,,,,,,,,,
,613aef3d9041bcd28952af82,627c6feefca8de0c05f73c11,2022-05-11_19h24.58.415,classification_task,2021.2.3,Win32,59.63384817,627c6715c52fd12f31907bd0,,,,,,,,,,,,,,,,,,,,,,,l,1,0.9074,"[""0.747"",""0.380"",""0.583"",""0.693""]","[0,1,1,1]",0,62,62,62,1,1,0,,,0,FALSE,,,,,,,,,,,,,,,,,,,,,,,,,,,,,,,
,613aef3d9041bcd28952af82,627c6feefca8de0c05f73c11,2022-05-11_19h24.58.415,classification_task,2021.2.3,Win32,59.63384817,627c6715c52fd12f31907bd0,,,,,,,,,,,,,,,,,,,,,,,a,1,1.4253,"[""0.247"",""0.761"",""0.653"",""0.866""]","[1,0,1,1]",0,63,63,63,1,0,1,,,0,FALSE,,,,,,,,,,,,,,,,,,,,,,,,,,,,,,,
,613aef3d9041bcd28952af82,627c6feefca8de0c05f73c11,2022-05-11_19h24.58.415,classification_task,2021.2.3,Win32,59.63384817,627c6715c52fd12f31907bd0,,,,,,,,,,,,,,,,,,,,,,,,,,,,,,,,,,,,,,,0, ,,0,10,513.8648,0,0,0,0,1,2,1,,,,,,,,,,,,,,,,,,
,613aef3d9041bcd28952af82,627c6feefca8de0c05f73c11,2022-05-11_19h24.58.415,classification_task,2021.2.3,Win32,59.63384817,627c6715c52fd12f31907bd0,,,,,,,,,,,,,,,,,,,,,,,,,,,,,,,,,,,,,,,1,  ,,0,8.459974525,531.2864,0,0,0,0,1,2,1,,,,,,,,,,,,,,,,,,
,613aef3d9041bcd28952af82,627c6feefca8de0c05f73c11,2022-05-11_19h24.58.415,classification_task,2021.2.3,Win32,59.63384817,627c6715c52fd12f31907bd0,,,,,,,,,,,,,,,,,,,,,,,,,,,,,,,,,,,,,,,2,  ,,0,6.426857872,539.1092,0,0,0,0,1,2,1,,,,,,,,,,,,,,,,,,
,613aef3d9041bcd28952af82,627c6feefca8de0c05f73c11,2022-05-11_19h24.58.415,classification_task,2021.2.3,Win32,59.63384817,627c6715c52fd12f31907bd0,,,,,,,,,,,,,,,,,,,,,,,,,,,,,,,,,,,,,,,,,,,,,0,0,0,0,1,,1,,,,,,,,,,,,,,,,,,
,613aef3d9041bcd28952af82,627c6feefca8de0c05f73c11,2022-05-11_19h24.58.415,classification_task,2021.2.3,Win32,59.63384817,627c6715c52fd12f31907bd0,,,,,,,,,,,,,,,,,,,,,space,20.1612,a,1,5.0319,"[""0.247"",""0.083"",""0.653"",""0.866""]","[1,0,1,1]",0,0,0,0,1,0,1,,,0,FALSE,,,,,,,,,,,,,,,,,,,,,,,,,,,,,,,
,613aef3d9041bcd28952af82,627c6feefca8de0c05f73c11,2022-05-11_19h24.58.415,classification_task,2021.2.3,Win32,59.63384817,627c6715c52fd12f31907bd0,,,,,,,,,,,,,,,,,,,,,,,l,1,1.1418,"[""0.750"",""0.380"",""0.583"",""0.693""]","[0,1,1,1]",0,1,1,1,1,1,0,,,0,FALSE,,,,,,,,,,,,,,,,,,,,,,,,,,,,,,,
,613aef3d9041bcd28952af82,627c6feefca8de0c05f73c11,2022-05-11_19h24.58.415,classification_task,2021.2.3,Win32,59.63384817,627c6715c52fd12f31907bd0,,,,,,,,,,,,,,,,,,,,,,,l,1,1.768,"[""0.136"",""0.773"",""0.477"",""0.829""]","[1,0,1,1]",0,2,2,2,1,1,1,,,0,FALSE,,,,,,,,,,,,,,,,,,,,,,,,,,,,,,,
,613aef3d9041bcd28952af82,627c6feefca8de0c05f73c11,2022-05-11_19h24.58.415,classification_task,2021.2.3,Win32,59.63384817,627c6715c52fd12f31907bd0,,,,,,,,,,,,,,,,,,,,,,,a,0,1.5147,"[""0.136"",""0.299"",""0.477"",""0.617""]","[1,1,1,0]",0,3,3,3,1,1,1,,,0,FALSE,,,,,,,,,,,,,,,,,,,,,,,,,,,,,,,
,613aef3d9041bcd28952af82,627c6feefca8de0c05f73c11,2022-05-11_19h24.58.415,classification_task,2021.2.3,Win32,59.63384817,627c6715c52fd12f31907bd0,,,,,,,,,,,,,,,,,,,,,,,a,1,2.2561,"[""0.247"",""0.343"",""0.653"",""0.414""]","[1,1,1,0]",0,4,4,4,1,0,1,,,0,FALSE,,,,,,,,,,,,,,,,,,,,,,,,,,,,,,,
,613aef3d9041bcd28952af82,627c6feefca8de0c05f73c11,2022-05-11_19h24.58.415,classification_task,2021.2.3,Win32,59.63384817,627c6715c52fd12f31907bd0,,,,,,,,,,,,,,,,,,,,,,,a,1,1.3227,"[""0.083"",""0.343"",""0.653"",""0.866""]","[0,1,1,1]",0,5,5,5,1,0,1,,,0,FALSE,,,,,,,,,,,,,,,,,,,,,,,,,,,,,,,
,613aef3d9041bcd28952af82,627c6feefca8de0c05f73c11,2022-05-11_19h24.58.415,classification_task,2021.2.3,Win32,59.63384817,627c6715c52fd12f31907bd0,,,,,,,,,,,,,,,,,,,,,,,a,1,0.7698,"[""0.209"",""0.523"",""0.768"",""0.955""]","[1,1,0,1]",0,6,6,6,1,0,0,,,0,FALSE,,,,,,,,,,,,,,,,,,,,,,,,,,,,,,,
,613aef3d9041bcd28952af82,627c6feefca8de0c05f73c11,2022-05-11_19h24.58.415,classification_task,2021.2.3,Win32,59.63384817,627c6715c52fd12f31907bd0,,,,,,,,,,,,,,,,,,,,,,,a,1,0.5857,"[""0.209"",""0.523"",""0.906"",""0.747""]","[1,1,1,0]",0,7,7,7,1,0,0,,,0,FALSE,,,,,,,,,,,,,,,,,,,,,,,,,,,,,,,
,613aef3d9041bcd28952af82,627c6feefca8de0c05f73c11,2022-05-11_19h24.58.415,classification_task,2021.2.3,Win32,59.63384817,627c6715c52fd12f31907bd0,,,,,,,,,,,,,,,,,,,,,,,l,1,0.5087,"[""0.050"",""0.422"",""0.583"",""0.693""]","[1,0,1,1]",0,8,8,8,1,1,0,,,0,FALSE,,,,,,,,,,,,,,,,,,,,,,,,,,,,,,,
,613aef3d9041bcd28952af82,627c6feefca8de0c05f73c11,2022-05-11_19h24.58.415,classification_task,2021.2.3,Win32,59.63384817,627c6715c52fd12f31907bd0,,,,,,,,,,,,,,,,,,,,,,,l,1,0.5827,"[""0.050"",""0.380"",""0.792"",""0.693""]","[1,1,0,1]",0,9,9,9,1,1,0,,,0,FALSE,,,,,,,,,,,,,,,,,,,,,,,,,,,,,,,
,613aef3d9041bcd28952af82,627c6feefca8de0c05f73c11,2022-05-11_19h24.58.415,classification_task,2021.2.3,Win32,59.63384817,627c6715c52fd12f31907bd0,,,,,,,,,,,,,,,,,,,,,,,l,1,0.4251,"[""0.050"",""0.380"",""0.583"",""0.761""]","[1,1,1,0]",0,10,10,10,1,1,0,,,0,FALSE,,,,,,,,,,,,,,,,,,,,,,,,,,,,,,,
,613aef3d9041bcd28952af82,627c6feefca8de0c05f73c11,2022-05-11_19h24.58.415,classification_task,2021.2.3,Win32,59.63384817,627c6715c52fd12f31907bd0,,,,,,,,,,,,,,,,,,,,,,,l,0,1.8534,"[""0.247"",""0.343"",""0.175"",""0.866""]","[1,1,0,1]",0,11,11,11,1,0,1,,,0,FALSE,,,,,,,,,,,,,,,,,,,,,,,,,,,,,,,
,613aef3d9041bcd28952af82,627c6feefca8de0c05f73c11,2022-05-11_19h24.58.415,classification_task,2021.2.3,Win32,59.63384817,627c6715c52fd12f31907bd0,,,,,,,,,,,,,,,,,,,,,,,l,1,1.2296,"[""0.768"",""0.299"",""0.477"",""0.829""]","[0,1,1,1]",0,12,12,12,1,1,1,,,0,FALSE,,,,,,,,,,,,,,,,,,,,,,,,,,,,,,,
,613aef3d9041bcd28952af82,627c6feefca8de0c05f73c11,2022-05-11_19h24.58.415,classification_task,2021.2.3,Win32,59.63384817,627c6715c52fd12f31907bd0,,,,,,,,,,,,,,,,,,,,,,,l,1,1.0408,"[""0.136"",""0.299"",""0.773"",""0.829""]","[1,1,0,1]",0,13,13,13,1,1,1,,,0,FALSE,,,,,,,,,,,,,,,,,,,,,,,,,,,,,,,
,613aef3d9041bcd28952af82,627c6feefca8de0c05f73c11,2022-05-11_19h24.58.415,classification_task,2021.2.3,Win32,59.63384817,627c6715c52fd12f31907bd0,,,,,,,,,,,,,,,,,,,,,,,a,1,0.8386,"[""0.209"",""0.422"",""0.906"",""0.955""]","[1,0,1,1]",0,14,14,14,1,0,0,,,0,FALSE,,,,,,,,,,,,,,,,,,,,,,,,,,,,,,,
,613aef3d9041bcd28952af82,627c6feefca8de0c05f73c11,2022-05-11_19h24.58.415,classification_task,2021.2.3,Win32,59.63384817,627c6715c52fd12f31907bd0,,,,,,,,,,,,,,,,,,,,,,,a,1,0.4146,"[""0.773"",""0.523"",""0.906"",""0.955""]","[0,1,1,1]",0,15,15,15,1,0,0,,,0,FALSE,,,,,,,,,,,,,,,,,,,,,,,,,,,,,,,
,613aef3d9041bcd28952af82,627c6feefca8de0c05f73c11,2022-05-11_19h24.58.415,classification_task,2021.2.3,Win32,59.63384817,627c6715c52fd12f31907bd0,,,,,,,,,,,,,,,,,,,,,,,a,1,1.0782,"[""0.247"",""0.343"",""0.768"",""0.866""]","[1,1,0,1]",0,16,16,16,1,0,1,,,0,FALSE,,,,,,,,,,,,,,,,,,,,,,,,,,,,,,,
,613aef3d9041bcd28952af82,627c6feefca8de0c05f73c11,2022-05-11_19h24.58.415,classification_task,2021.2.3,Win32,59.63384817,627c6715c52fd12f31907bd0,,,,,,,,,,,,,,,,,,,,,,,a,1,0.7279,"[""0.175"",""0.343"",""0.653"",""0.866""]","[0,1,1,1]",0,17,17,17,1,0,1,,,0,FALSE,,,,,,,,,,,,,,,,,,,,,,,,,,,,,,,
,613aef3d9041bcd28952af82,627c6feefca8de0c05f73c11,2022-05-11_19h24.58.415,classification_task,2021.2.3,Win32,59.63384817,627c6715c52fd12f31907bd0,,,,,,,,,,,,,,,,,,,,,,,a,0,1.0911,"[""0.136"",""0.299"",""0.477"",""0.750""]","[1,1,1,0]",0,18,18,18,1,1,1,,,0,FALSE,,,,,,,,,,,,,,,,,,,,,,,,,,,,,,,
,613aef3d9041bcd28952af82,627c6feefca8de0c05f73c11,2022-05-11_19h24.58.415,classification_task,2021.2.3,Win32,59.63384817,627c6715c52fd12f31907bd0,,,,,,,,,,,,,,,,,,,,,,,a,0,0.5374,"[""0.617"",""0.380"",""0.583"",""0.693""]","[0,1,1,1]",0,19,19,19,1,1,0,,,0,FALSE,,,,,,,,,,,,,,,,,,,,,,,,,,,,,,,
,613aef3d9041bcd28952af82,627c6feefca8de0c05f73c11,2022-05-11_19h24.58.415,classification_task,2021.2.3,Win32,59.63384817,627c6715c52fd12f31907bd0,,,,,,,,,,,,,,,,,,,,,,,a,1,0.5743,"[""0.209"",""0.095"",""0.906"",""0.955""]","[1,0,1,1]",0,20,20,20,1,0,0,,,0,FALSE,,,,,,,,,,,,,,,,,,,,,,,,,,,,,,,
,613aef3d9041bcd28952af82,627c6feefca8de0c05f73c11,2022-05-11_19h24.58.415,classification_task,2021.2.3,Win32,59.63384817,627c6715c52fd12f31907bd0,,,,,,,,,,,,,,,,,,,,,,,l,1,0.5507,"[""0.050"",""0.380"",""0.735"",""0.693""]","[1,1,0,1]",0,21,21,21,1,1,0,,,0,FALSE,,,,,,,,,,,,,,,,,,,,,,,,,,,,,,,
,613aef3d9041bcd28952af82,627c6feefca8de0c05f73c11,2022-05-11_19h24.58.415,classification_task,2021.2.3,Win32,59.63384817,627c6715c52fd12f31907bd0,,,,,,,,,,,,,,,,,,,,,,,l,1,1.0265,"[""0.136"",""0.747"",""0.477"",""0.829""]","[1,0,1,1]",0,22,22,22,1,1,1,,,0,FALSE,,,,,,,,,,,,,,,,,,,,,,,,,,,,,,,
,613aef3d9041bcd28952af82,627c6feefca8de0c05f73c11,2022-05-11_19h24.58.415,classification_task,2021.2.3,Win32,59.63384817,627c6715c52fd12f31907bd0,,,,,,,,,,,,,,,,,,,,,,,l,1,0.5506,"[""0.050"",""0.380"",""0.583"",""0.083""]","[1,1,1,0]",0,23,23,23,1,1,0,,,0,FALSE,,,,,,,,,,,,,,,,,,,,,,,,,,,,,,,
,613aef3d9041bcd28952af82,627c6feefca8de0c05f73c11,2022-05-11_19h24.58.415,classification_task,2021.2.3,Win32,59.63384817,627c6715c52fd12f31907bd0,,,,,,,,,,,,,,,,,,,,,,,l,1,0.4274,"[""0.050"",""0.735"",""0.583"",""0.693""]","[1,0,1,1]",0,24,24,24,1,1,0,,,0,FALSE,,,,,,,,,,,,,,,,,,,,,,,,,,,,,,,
,613aef3d9041bcd28952af82,627c6feefca8de0c05f73c11,2022-05-11_19h24.58.415,classification_task,2021.2.3,Win32,59.63384817,627c6715c52fd12f31907bd0,,,,,,,,,,,,,,,,,,,,,,,a,1,0.4865,"[""0.209"",""0.523"",""0.761"",""0.955""]","[1,1,0,1]",0,25,25,25,1,0,0,,,0,FALSE,,,,,,,,,,,,,,,,,,,,,,,,,,,,,,,
,613aef3d9041bcd28952af82,627c6feefca8de0c05f73c11,2022-05-11_19h24.58.415,classification_task,2021.2.3,Win32,59.63384817,627c6715c52fd12f31907bd0,,,,,,,,,,,,,,,,,,,,,,,a,1,0.3909,"[""0.761"",""0.523"",""0.906"",""0.955""]","[0,1,1,1]",0,26,26,26,1,0,0,,,0,FALSE,,,,,,,,,,,,,,,,,,,,,,,,,,,,,,,
,613aef3d9041bcd28952af82,627c6feefca8de0c05f73c11,2022-05-11_19h24.58.415,classification_task,2021.2.3,Win32,59.63384817,627c6715c52fd12f31907bd0,,,,,,,,,,,,,,,,,,,,,,,l,1,0.8556,"[""0.136"",""0.299"",""0.175"",""0.829""]","[1,1,0,1]",0,27,27,27,1,1,1,,,0,FALSE,,,,,,,,,,,,,,,,,,,,,,,,,,,,,,,
,613aef3d9041bcd28952af82,627c6feefca8de0c05f73c11,2022-05-11_19h24.58.415,classification_task,2021.2.3,Win32,59.63384817,627c6715c52fd12f31907bd0,,,,,,,,,,,,,,,,,,,,,,,a,1,0.7905,"[""0.247"",""0.343"",""0.653"",""0.735""]","[1,1,1,0]",0,28,28,28,1,0,1,,,0,FALSE,,,,,,,,,,,,,,,,,,,,,,,,,,,,,,,
,613aef3d9041bcd28952af82,627c6feefca8de0c05f73c11,2022-05-11_19h24.58.415,classification_task,2021.2.3,Win32,59.63384817,627c6715c52fd12f31907bd0,,,,,,,,,,,,,,,,,,,,,,,a,1,1.0178,"[""0.247"",""0.087"",""0.653"",""0.866""]","[1,0,1,1]",0,29,29,29,1,0,1,,,0,FALSE,,,,,,,,,,,,,,,,,,,,,,,,,,,,,,,
,613aef3d9041bcd28952af82,627c6feefca8de0c05f73c11,2022-05-11_19h24.58.415,classification_task,2021.2.3,Win32,59.63384817,627c6715c52fd12f31907bd0,,,,,,,,,,,,,,,,,,,,,,,a,1,0.6321,"[""0.209"",""0.523"",""0.906"",""0.175""]","[1,1,1,0]",0,30,30,30,1,0,0,,,0,FALSE,,,,,,,,,,,,,,,,,,,,,,,,,,,,,,,
,613aef3d9041bcd28952af82,627c6feefca8de0c05f73c11,2022-05-11_19h24.58.415,classification_task,2021.2.3,Win32,59.63384817,627c6715c52fd12f31907bd0,,,,,,,,,,,,,,,,,,,,,,,l,1,0.8196,"[""0.792"",""0.299"",""0.477"",""0.829""]","[0,1,1,1]",0,31,31,31,1,1,1,,,0,FALSE,,,,,,,,,,,,,,,,,,,,,,,,,,,,,,,
,613aef3d9041bcd28952af82,627c6feefca8de0c05f73c11,2022-05-11_19h24.58.415,classification_task,2021.2.3,Win32,59.63384817,627c6715c52fd12f31907bd0,,,,,,,,,,,,,,,,,,,,,,,l,1,0.7579,"[""0.136"",""0.299"",""0.787"",""0.829""]","[1,1,0,1]",0,32,32,32,1,1,1,,,0,FALSE,,,,,,,,,,,,,,,,,,,,,,,,,,,,,,,
,613aef3d9041bcd28952af82,627c6feefca8de0c05f73c11,2022-05-11_19h24.58.415,classification_task,2021.2.3,Win32,59.63384817,627c6715c52fd12f31907bd0,,,,,,,,,,,,,,,,,,,,,,,l,0,1.0473,"[""0.750"",""0.343"",""0.653"",""0.866""]","[0,1,1,1]",0,33,33,33,1,0,1,,,0,FALSE,,,,,,,,,,,,,,,,,,,,,,,,,,,,,,,
,613aef3d9041bcd28952af82,627c6feefca8de0c05f73c11,2022-05-11_19h24.58.415,classification_task,2021.2.3,Win32,59.63384817,627c6715c52fd12f31907bd0,,,,,,,,,,,,,,,,,,,,,,,l,1,0.68,"[""0.136"",""0.299"",""0.477"",""0.422""]","[1,1,1,0]",0,34,34,34,1,1,1,,,0,FALSE,,,,,,,,,,,,,,,,,,,,,,,,,,,,,,,
,613aef3d9041bcd28952af82,627c6feefca8de0c05f73c11,2022-05-11_19h24.58.415,classification_task,2021.2.3,Win32,59.63384817,627c6715c52fd12f31907bd0,,,,,,,,,,,,,,,,,,,,,,,l,0,1.6104,"[""0.247"",""0.343"",""0.653"",""0.414""]","[1,1,1,0]",0,35,35,35,1,0,1,,,0,FALSE,,,,,,,,,,,,,,,,,,,,,,,,,,,,,,,
,613aef3d9041bcd28952af82,627c6feefca8de0c05f73c11,2022-05-11_19h24.58.415,classification_task,2021.2.3,Win32,59.63384817,627c6715c52fd12f31907bd0,,,,,,,,,,,,,,,,,,,,,,,a,1,0.8727,"[""0.247"",""0.343"",""0.083"",""0.866""]","[1,1,0,1]",0,36,36,36,1,0,1,,,0,FALSE,,,,,,,,,,,,,,,,,,,,,,,,,,,,,,,
,613aef3d9041bcd28952af82,627c6feefca8de0c05f73c11,2022-05-11_19h24.58.415,classification_task,2021.2.3,Win32,59.63384817,627c6715c52fd12f31907bd0,,,,,,,,,,,,,,,,,,,,,,,a,1,0.3968,"[""0.617"",""0.523"",""0.906"",""0.955""]","[0,1,1,1]",0,37,37,37,1,0,0,,,0,FALSE,,,,,,,,,,,,,,,,,,,,,,,,,,,,,,,
,613aef3d9041bcd28952af82,627c6feefca8de0c05f73c11,2022-05-11_19h24.58.415,classification_task,2021.2.3,Win32,59.63384817,627c6715c52fd12f31907bd0,,,,,,,,,,,,,,,,,,,,,,,a,1,0.3902,"[""0.209"",""0.523"",""0.747"",""0.955""]","[1,1,0,1]",0,38,38,38,1,0,0,,,0,FALSE,,,,,,,,,,,,,,,,,,,,,,,,,,,,,,,
,613aef3d9041bcd28952af82,627c6feefca8de0c05f73c11,2022-05-11_19h24.58.415,classification_task,2021.2.3,Win32,59.63384817,627c6715c52fd12f31907bd0,,,,,,,,,,,,,,,,,,,,,,,l,1,0.546,"[""0.761"",""0.380"",""0.583"",""0.693""]","[0,1,1,1]",0,39,39,39,1,1,0,,,0,FALSE,,,,,,,,,,,,,,,,,,,,,,,,,,,,,,,
,613aef3d9041bcd28952af82,627c6feefca8de0c05f73c11,2022-05-11_19h24.58.415,classification_task,2021.2.3,Win32,59.63384817,627c6715c52fd12f31907bd0,,,,,,,,,,,,,,,,,,,,,,,l,1,1.1523,"[""0.750"",""0.299"",""0.477"",""0.829""]","[0,1,1,1]",0,40,40,40,1,1,1,,,0,FALSE,,,,,,,,,,,,,,,,,,,,,,,,,,,,,,,
,613aef3d9041bcd28952af82,627c6feefca8de0c05f73c11,2022-05-11_19h24.58.415,classification_task,2021.2.3,Win32,59.63384817,627c6715c52fd12f31907bd0,,,,,,,,,,,,,,,,,,,,,,,a,1,0.7365,"[""0.209"",""0.414"",""0.906"",""0.955""]","[1,0,1,1]",0,41,41,41,1,0,0,,,0,FALSE,,,,,,,,,,,,,,,,,,,,,,,,,,,,,,,
,613aef3d9041bcd28952af82,627c6feefca8de0c05f73c11,2022-05-11_19h24.58.415,classification_task,2021.2.3,Win32,59.63384817,627c6715c52fd12f31907bd0,,,,,,,,,,,,,,,,,,,,,,,l,1,0.5932,"[""0.050"",""0.175"",""0.583"",""0.693""]","[1,0,1,1]",0,42,42,42,1,1,0,,,0,FALSE,,,,,,,,,,,,,,,,,,,,,,,,,,,,,,,
,613aef3d9041bcd28952af82,627c6feefca8de0c05f73c11,2022-05-11_19h24.58.415,classification_task,2021.2.3,Win32,59.63384817,627c6715c52fd12f31907bd0,,,,,,,,,,,,,,,,,,,,,,,l,0,1.0827,"[""0.247"",""0.750"",""0.653"",""0.866""]","[1,0,1,1]",0,43,43,43,1,0,1,,,0,FALSE,,,,,,,,,,,,,,,,,,,,,,,,,,,,,,,
,613aef3d9041bcd28952af82,627c6feefca8de0c05f73c11,2022-05-11_19h24.58.415,classification_task,2021.2.3,Win32,59.63384817,627c6715c52fd12f31907bd0,,,,,,,,,,,,,,,,,,,,,,,l,1,0.6859,"[""0.050"",""0.380"",""0.414"",""0.693""]","[1,1,0,1]",0,44,44,44,1,1,0,,,0,FALSE,,,,,,,,,,,,,,,,,,,,,,,,,,,,,,,
,613aef3d9041bcd28952af82,627c6feefca8de0c05f73c11,2022-05-11_19h24.58.415,classification_task,2021.2.3,Win32,59.63384817,627c6715c52fd12f31907bd0,,,,,,,,,,,,,,,,,,,,,,,l,1,0.5788,"[""0.050"",""0.380"",""0.583"",""0.787""]","[1,1,1,0]",0,45,45,45,1,1,0,,,0,FALSE,,,,,,,,,,,,,,,,,,,,,,,,,,,,,,,
,613aef3d9041bcd28952af82,627c6feefca8de0c05f73c11,2022-05-11_19h24.58.415,classification_task,2021.2.3,Win32,59.63384817,627c6715c52fd12f31907bd0,,,,,,,,,,,,,,,,,,,,,,,l,1,0.9234,"[""0.136"",""0.747"",""0.477"",""0.829""]","[1,0,1,1]",0,46,46,46,1,1,1,,,0,FALSE,,,,,,,,,,,,,,,,,,,,,,,,,,,,,,,
,613aef3d9041bcd28952af82,627c6feefca8de0c05f73c11,2022-05-11_19h24.58.415,classification_task,2021.2.3,Win32,59.63384817,627c6715c52fd12f31907bd0,,,,,,,,,,,,,,,,,,,,,,,a,1,0.5704,"[""0.209"",""0.523"",""0.906"",""0.617""]","[1,1,1,0]",0,47,47,47,1,0,0,,,0,FALSE,,,,,,,,,,,,,,,,,,,,,,,,,,,,,,,
,613aef3d9041bcd28952af82,627c6feefca8de0c05f73c11,2022-05-11_19h24.58.415,classification_task,2021.2.3,Win32,59.63384817,627c6715c52fd12f31907bd0,,,,,,,,,,,,,,,,,,,,,,,a,0,0.9029,"[""0.136"",""0.299"",""0.422"",""0.829""]","[1,1,0,1]",0,48,48,48,1,1,1,,,0,FALSE,,,,,,,,,,,,,,,,,,,,,,,,,,,,,,,
,613aef3d9041bcd28952af82,627c6feefca8de0c05f73c11,2022-05-11_19h24.58.415,classification_task,2021.2.3,Win32,59.63384817,627c6715c52fd12f31907bd0,,,,,,,,,,,,,,,,,,,,,,,l,0,0.6332,"[""0.247"",""0.768"",""0.653"",""0.866""]","[1,0,1,1]",0,49,49,49,1,0,1,,,0,FALSE,,,,,,,,,,,,,,,,,,,,,,,,,,,,,,,
,613aef3d9041bcd28952af82,627c6feefca8de0c05f73c11,2022-05-11_19h24.58.415,classification_task,2021.2.3,Win32,59.63384817,627c6715c52fd12f31907bd0,,,,,,,,,,,,,,,,,,,,,,,l,0,0.6086,"[""0.422"",""0.343"",""0.653"",""0.866""]","[0,1,1,1]",0,50,50,50,1,0,1,,,0,FALSE,,,,,,,,,,,,,,,,,,,,,,,,,,,,,,,
,613aef3d9041bcd28952af82,627c6feefca8de0c05f73c11,2022-05-11_19h24.58.415,classification_task,2021.2.3,Win32,59.63384817,627c6715c52fd12f31907bd0,,,,,,,,,,,,,,,,,,,,,,,l,0,0.6407,"[""0.247"",""0.343"",""0.653"",""0.617""]","[1,1,1,0]",0,51,51,51,1,0,1,,,0,FALSE,,,,,,,,,,,,,,,,,,,,,,,,,,,,,,,
,613aef3d9041bcd28952af82,627c6feefca8de0c05f73c11,2022-05-11_19h24.58.415,classification_task,2021.2.3,Win32,59.63384817,627c6715c52fd12f31907bd0,,,,,,,,,,,,,,,,,,,,,,,l,1,0.6205,"[""0.750"",""0.380"",""0.583"",""0.693""]","[0,1,1,1]",0,52,52,52,1,1,0,,,0,FALSE,,,,,,,,,,,,,,,,,,,,,,,,,,,,,,,
,613aef3d9041bcd28952af82,627c6feefca8de0c05f73c11,2022-05-11_19h24.58.415,classification_task,2021.2.3,Win32,59.63384817,627c6715c52fd12f31907bd0,,,,,,,,,,,,,,,,,,,,,,,l,1,0.7639,"[""0.136"",""0.299"",""0.477"",""0.083""]","[1,1,1,0]",0,53,53,53,1,1,1,,,0,FALSE,,,,,,,,,,,,,,,,,,,,,,,,,,,,,,,
,613aef3d9041bcd28952af82,627c6feefca8de0c05f73c11,2022-05-11_19h24.58.415,classification_task,2021.2.3,Win32,59.63384817,627c6715c52fd12f31907bd0,,,,,,,,,,,,,,,,,,,,,,,l,1,0.8101,"[""0.050"",""0.617"",""0.583"",""0.693""]","[1,0,1,1]",0,54,54,54,1,1,0,,,0,FALSE,,,,,,,,,,,,,,,,,,,,,,,,,,,,,,,
,613aef3d9041bcd28952af82,627c6feefca8de0c05f73c11,2022-05-11_19h24.58.415,classification_task,2021.2.3,Win32,59.63384817,627c6715c52fd12f31907bd0,,,,,,,,,,,,,,,,,,,,,,,l,1,0.7406,"[""0.050"",""0.380"",""0.747"",""0.693""]","[1,1,0,1]",0,55,55,55,1,1,0,,,0,FALSE,,,,,,,,,,,,,,,,,,,,,,,,,,,,,,,
,613aef3d9041bcd28952af82,627c6feefca8de0c05f73c11,2022-05-11_19h24.58.415,classification_task,2021.2.3,Win32,59.63384817,627c6715c52fd12f31907bd0,,,,,,,,,,,,,,,,,,,,,,,l,1,0.6384,"[""0.136"",""0.768"",""0.477"",""0.829""]","[1,0,1,1]",0,56,56,56,1,1,1,,,0,FALSE,,,,,,,,,,,,,,,,,,,,,,,,,,,,,,,
,613aef3d9041bcd28952af82,627c6feefca8de0c05f73c11,2022-05-11_19h24.58.415,classification_task,2021.2.3,Win32,59.63384817,627c6715c52fd12f31907bd0,,,,,,,,,,,,,,,,,,,,,,,l,1,0.51,"[""0.787"",""0.299"",""0.477"",""0.829""]","[0,1,1,1]",0,57,57,57,1,1,1,,,0,FALSE,,,,,,,,,,,,,,,,,,,,,,,,,,,,,,,
,613aef3d9041bcd28952af82,627c6feefca8de0c05f73c11,2022-05-11_19h24.58.415,classification_task,2021.2.3,Win32,59.63384817,627c6715c52fd12f31907bd0,,,,,,,,,,,,,,,,,,,,,,,l,0,0.5703,"[""0.735"",""0.523"",""0.906"",""0.955""]","[0,1,1,1]",0,58,58,58,1,0,0,,,0,FALSE,,,,,,,,,,,,,,,,,,,,,,,,,,,,,,,
,613aef3d9041bcd28952af82,627c6feefca8de0c05f73c11,2022-05-11_19h24.58.415,classification_task,2021.2.3,Win32,59.63384817,627c6715c52fd12f31907bd0,,,,,,,,,,,,,,,,,,,,,,,a,1,0.5137,"[""0.247"",""0.343"",""0.617"",""0.866""]","[1,1,0,1]",0,59,59,59,1,0,1,,,0,FALSE,,,,,,,,,,,,,,,,,,,,,,,,,,,,,,,
,613aef3d9041bcd28952af82,627c6feefca8de0c05f73c11,2022-05-11_19h24.58.415,classification_task,2021.2.3,Win32,59.63384817,627c6715c52fd12f31907bd0,,,,,,,,,,,,,,,,,,,,,,,a,1,0.556,"[""0.209"",""0.523"",""0.087"",""0.955""]","[1,1,0,1]",0,60,60,60,1,0,0,,,0,FALSE,,,,,,,,,,,,,,,,,,,,,,,,,,,,,,,
,613aef3d9041bcd28952af82,627c6feefca8de0c05f73c11,2022-05-11_19h24.58.415,classification_task,2021.2.3,Win32,59.63384817,627c6715c52fd12f31907bd0,,,,,,,,,,,,,,,,,,,,,,,a,1,0.3951,"[""0.209"",""0.523"",""0.906"",""0.175""]","[1,1,1,0]",0,61,61,61,1,0,0,,,0,FALSE,,,,,,,,,,,,,,,,,,,,,,,,,,,,,,,
,613aef3d9041bcd28952af82,627c6feefca8de0c05f73c11,2022-05-11_19h24.58.415,classification_task,2021.2.3,Win32,59.63384817,627c6715c52fd12f31907bd0,,,,,,,,,,,,,,,,,,,,,,,a,0,0.4904,"[""0.050"",""0.380"",""0.583"",""0.782""]","[1,1,1,0]",0,62,62,62,1,1,0,,,0,FALSE,,,,,,,,,,,,,,,,,,,,,,,,,,,,,,,
,613aef3d9041bcd28952af82,627c6feefca8de0c05f73c11,2022-05-11_19h24.58.415,classification_task,2021.2.3,Win32,59.63384817,627c6715c52fd12f31907bd0,,,,,,,,,,,,,,,,,,,,,,,l,0,0.5251,"[""0.209"",""0.747"",""0.906"",""0.955""]","[1,0,1,1]",0,63,63,63,1,0,0,,,0,FALSE,,,,,,,,,,,,,,,,,,,,,,,,,,,,,,,
,613aef3d9041bcd28952af82,627c6feefca8de0c05f73c11,2022-05-11_19h24.58.415,classification_task,2021.2.3,Win32,59.63384817,627c6715c52fd12f31907bd0,,,,,,,,,,,,,,,,,,,,,,,,,,,,,,,,,,,,,,,0, ,,0,10,149.0768,0,1,1,1,1,2,2,,,,,,,,,,,,,,,,,,
,613aef3d9041bcd28952af82,627c6feefca8de0c05f73c11,2022-05-11_19h24.58.415,classification_task,2021.2.3,Win32,59.63384817,627c6715c52fd12f31907bd0,,,,,,,,,,,,,,,,,,,,,,,,,,,,,,,,,,,,,,,1,  ,,0,8.876397359,153.8592,0,1,1,1,1,2,2,,,,,,,,,,,,,,,,,,
,613aef3d9041bcd28952af82,627c6feefca8de0c05f73c11,2022-05-11_19h24.58.415,classification_task,2021.2.3,Win32,59.63384817,627c6715c52fd12f31907bd0,,,,,,,,,,,,,,,,,,,,,,,,,,,,,,,,,,,,,,,2,  ,,0,6.328875919,157.342,0,1,1,1,1,2,2,,,,,,,,,,,,,,,,,,
,613aef3d9041bcd28952af82,627c6feefca8de0c05f73c11,2022-05-11_19h24.58.415,classification_task,2021.2.3,Win32,59.63384817,627c6715c52fd12f31907bd0,,,,,,,,,,,,,,,,,,,,,,,,,,,,,,,,,,,,,,,,,,,,,0,1,1,1,1,,2,,,,,,,,,,,,,,,,,,
,613aef3d9041bcd28952af82,627c6feefca8de0c05f73c11,2022-05-11_19h24.58.415,classification_task,2021.2.3,Win32,59.63384817,627c6715c52fd12f31907bd0,,,,,,,,,,,,,,,,,,,,,space,13.4657,a,0,1.024,"[""0.050"",""0.380"",""0.175"",""0.693""]","[1,1,0,1]",0,0,0,0,1,1,0,,,0,FALSE,,,,,,,,,,,,,,,,,,,,,,,,,,,,,,,
,613aef3d9041bcd28952af82,627c6feefca8de0c05f73c11,2022-05-11_19h24.58.415,classification_task,2021.2.3,Win32,59.63384817,627c6715c52fd12f31907bd0,,,,,,,,,,,,,,,,,,,,,,,a,0,0.7418,"[""0.050"",""0.380"",""0.583"",""0.782""]","[1,1,1,0]",0,1,1,1,1,1,0,,,0,FALSE,,,,,,,,,,,,,,,,,,,,,,,,,,,,,,,
,613aef3d9041bcd28952af82,627c6feefca8de0c05f73c11,2022-05-11_19h24.58.415,classification_task,2021.2.3,Win32,59.63384817,627c6715c52fd12f31907bd0,,,,,,,,,,,,,,,,,,,,,,,l,0,1.0759,"[""0.747"",""0.523"",""0.906"",""0.955""]","[0,1,1,1]",0,2,2,2,1,0,0,,,0,FALSE,,,,,,,,,,,,,,,,,,,,,,,,,,,,,,,
,613aef3d9041bcd28952af82,627c6feefca8de0c05f73c11,2022-05-11_19h24.58.415,classification_task,2021.2.3,Win32,59.63384817,627c6715c52fd12f31907bd0,,,,,,,,,,,,,,,,,,,,,,,a,1,0.7104,"[""0.768"",""0.343"",""0.653"",""0.866""]","[0,1,1,1]",0,3,3,3,1,0,1,,,0,FALSE,,,,,,,,,,,,,,,,,,,,,,,,,,,,,,,
,613aef3d9041bcd28952af82,627c6feefca8de0c05f73c11,2022-05-11_19h24.58.415,classification_task,2021.2.3,Win32,59.63384817,627c6715c52fd12f31907bd0,,,,,,,,,,,,,,,,,,,,,,,l,0,0.6338,"[""0.209"",""0.617"",""0.906"",""0.955""]","[1,0,1,1]",0,4,4,4,1,0,0,,,0,FALSE,,,,,,,,,,,,,,,,,,,,,,,,,,,,,,,
,613aef3d9041bcd28952af82,627c6feefca8de0c05f73c11,2022-05-11_19h24.58.415,classification_task,2021.2.3,Win32,59.63384817,627c6715c52fd12f31907bd0,,,,,,,,,,,,,,,,,,,,,,,l,1,0.7445,"[""0.050"",""0.083"",""0.583"",""0.693""]","[1,0,1,1]",0,5,5,5,1,1,0,,,0,FALSE,,,,,,,,,,,,,,,,,,,,,,,,,,,,,,,
,613aef3d9041bcd28952af82,627c6feefca8de0c05f73c11,2022-05-11_19h24.58.415,classification_task,2021.2.3,Win32,59.63384817,627c6715c52fd12f31907bd0,,,,,,,,,,,,,,,,,,,,,,,a,1,1.1239,"[""0.247"",""0.343"",""0.747"",""0.866""]","[1,1,0,1]",0,6,6,6,1,0,1,,,0,FALSE,,,,,,,,,,,,,,,,,,,,,,,,,,,,,,,
,613aef3d9041bcd28952af82,627c6feefca8de0c05f73c11,2022-05-11_19h24.58.415,classification_task,2021.2.3,Win32,59.63384817,627c6715c52fd12f31907bd0,,,,,,,,,,,,,,,,,,,,,,,a,1,0.8249,"[""0.209"",""0.523"",""0.787"",""0.955""]","[1,1,0,1]",0,7,7,7,1,0,0,,,0,FALSE,,,,,,,,,,,,,,,,,,,,,,,,,,,,,,,
,613aef3d9041bcd28952af82,627c6feefca8de0c05f73c11,2022-05-11_19h24.58.415,classification_task,2021.2.3,Win32,59.63384817,627c6715c52fd12f31907bd0,,,,,,,,,,,,,,,,,,,,,,,a,0,0.8756,"[""0.787"",""0.299"",""0.477"",""0.829""]","[0,1,1,1]",0,8,8,8,1,1,1,,,0,FALSE,,,,,,,,,,,,,,,,,,,,,,,,,,,,,,,
,613aef3d9041bcd28952af82,627c6feefca8de0c05f73c11,2022-05-11_19h24.58.415,classification_task,2021.2.3,Win32,59.63384817,627c6715c52fd12f31907bd0,,,,,,,,,,,,,,,,,,,,,,,a,0,0.5092,"[""0.136"",""0.299"",""0.477"",""0.747""]","[1,1,1,0]",0,9,9,9,1,1,1,,,0,FALSE,,,,,,,,,,,,,,,,,,,,,,,,,,,,,,,
,613aef3d9041bcd28952af82,627c6feefca8de0c05f73c11,2022-05-11_19h24.58.415,classification_task,2021.2.3,Win32,59.63384817,627c6715c52fd12f31907bd0,,,,,,,,,,,,,,,,,,,,,,,l,1,0.56,"[""0.136"",""0.773"",""0.477"",""0.829""]","[1,0,1,1]",0,10,10,10,1,1,1,,,0,FALSE,,,,,,,,,,,,,,,,,,,,,,,,,,,,,,,
,613aef3d9041bcd28952af82,627c6feefca8de0c05f73c11,2022-05-11_19h24.58.415,classification_task,2021.2.3,Win32,59.63384817,627c6715c52fd12f31907bd0,,,,,,,,,,,,,,,,,,,,,,,l,1,0.9584,"[""0.750"",""0.380"",""0.583"",""0.693""]","[0,1,1,1]",0,11,11,11,1,1,0,,,0,FALSE,,,,,,,,,,,,,,,,,,,,,,,,,,,,,,,
,613aef3d9041bcd28952af82,627c6feefca8de0c05f73c11,2022-05-11_19h24.58.415,classification_task,2021.2.3,Win32,59.63384817,627c6715c52fd12f31907bd0,,,,,,,,,,,,,,,,,,,,,,,a,1,0.7128,"[""0.209"",""0.523"",""0.906"",""0.768""]","[1,1,1,0]",0,12,12,12,1,0,0,,,0,FALSE,,,,,,,,,,,,,,,,,,,,,,,,,,,,,,,
,613aef3d9041bcd28952af82,627c6feefca8de0c05f73c11,2022-05-11_19h24.58.415,classification_task,2021.2.3,Win32,59.63384817,627c6715c52fd12f31907bd0,,,,,,,,,,,,,,,,,,,,,,,a,1,0.5477,"[""0.247"",""0.343"",""0.653"",""0.087""]","[1,1,1,0]",0,13,13,13,1,0,1,,,0,FALSE,,,,,,,,,,,,,,,,,,,,,,,,,,,,,,,
,613aef3d9041bcd28952af82,627c6feefca8de0c05f73c11,2022-05-11_19h24.58.415,classification_task,2021.2.3,Win32,59.63384817,627c6715c52fd12f31907bd0,,,,,,,,,,,,,,,,,,,,,,,l,1,0.893,"[""0.136"",""0.299"",""0.768"",""0.829""]","[1,1,0,1]",0,14,14,14,1,1,1,,,0,FALSE,,,,,,,,,,,,,,,,,,,,,,,,,,,,,,,
,613aef3d9041bcd28952af82,627c6feefca8de0c05f73c11,2022-05-11_19h24.58.415,classification_task,2021.2.3,Win32,59.63384817,627c6715c52fd12f31907bd0,,,,,,,,,,,,,,,,,,,,,,,l,0,1.4278,"[""0.247"",""0.175"",""0.653"",""0.866""]","[1,0,1,1]",0,15,15,15,1,0,1,,,0,FALSE,,,,,,,,,,,,,,,,,,,,,,,,,,,,,,,
,613aef3d9041bcd28952af82,627c6feefca8de0c05f73c11,2022-05-11_19h24.58.415,classification_task,2021.2.3,Win32,59.63384817,627c6715c52fd12f31907bd0,,,,,,,,,,,,,,,,,,,,,,,a,1,0.61,"[""0.083"",""0.523"",""0.906"",""0.955""]","[0,1,1,1]",0,16,16,16,1,0,0,,,0,FALSE,,,,,,,,,,,,,,,,,,,,,,,,,,,,,,,
,613aef3d9041bcd28952af82,627c6feefca8de0c05f73c11,2022-05-11_19h24.58.415,classification_task,2021.2.3,Win32,59.63384817,627c6715c52fd12f31907bd0,,,,,,,,,,,,,,,,,,,,,,,l,1,0.6106,"[""0.136"",""0.299"",""0.422"",""0.829""]","[1,1,0,1]",0,17,17,17,1,1,1,,,0,FALSE,,,,,,,,,,,,,,,,,,,,,,,,,,,,,,,
,613aef3d9041bcd28952af82,627c6feefca8de0c05f73c11,2022-05-11_19h24.58.415,classification_task,2021.2.3,Win32,59.63384817,627c6715c52fd12f31907bd0,,,,,,,,,,,,,,,,,,,,,,,l,1,0.6101,"[""0.050"",""0.380"",""0.083"",""0.693""]","[1,1,0,1]",0,18,18,18,1,1,0,,,0,FALSE,,,,,,,,,,,,,,,,,,,,,,,,,,,,,,,
,613aef3d9041bcd28952af82,627c6feefca8de0c05f73c11,2022-05-11_19h24.58.415,classification_task,2021.2.3,Win32,59.63384817,627c6715c52fd12f31907bd0,,,,,,,,,,,,,,,,,,,,,,,a,1,1.4407,"[""0.247"",""0.343"",""0.653"",""0.422""]","[1,1,1,0]",0,19,19,19,1,0,1,,,0,FALSE,,,,,,,,,,,,,,,,,,,,,,,,,,,,,,,
,613aef3d9041bcd28952af82,627c6feefca8de0c05f73c11,2022-05-11_19h24.58.415,classification_task,2021.2.3,Win32,59.63384817,627c6715c52fd12f31907bd0,,,,,,,,,,,,,,,,,,,,,,,a,0,0.6284,"[""0.136"",""0.299"",""0.477"",""0.083""]","[1,1,1,0]",0,20,20,20,1,1,1,,,0,FALSE,,,,,,,,,,,,,,,,,,,,,,,,,,,,,,,
,613aef3d9041bcd28952af82,627c6feefca8de0c05f73c11,2022-05-11_19h24.58.415,classification_task,2021.2.3,Win32,59.63384817,627c6715c52fd12f31907bd0,,,,,,,,,,,,,,,,,,,,,,,a,1,1.0003,"[""0.247"",""0.343"",""0.617"",""0.866""]","[1,1,0,1]",0,21,21,21,1,0,1,,,0,FALSE,,,,,,,,,,,,,,,,,,,,,,,,,,,,,,,
,613aef3d9041bcd28952af82,627c6feefca8de0c05f73c11,2022-05-11_19h24.58.415,classification_task,2021.2.3,Win32,59.63384817,627c6715c52fd12f31907bd0,,,,,,,,,,,,,,,,,,,,,,,a,1,0.7166,"[""0.209"",""0.523"",""0.906"",""0.083""]","[1,1,1,0]",0,22,22,22,1,0,0,,,0,FALSE,,,,,,,,,,,,,,,,,,,,,,,,,,,,,,,
,613aef3d9041bcd28952af82,627c6feefca8de0c05f73c11,2022-05-11_19h24.58.415,classification_task,2021.2.3,Win32,59.63384817,627c6715c52fd12f31907bd0,,,,,,,,,,,,,,,,,,,,,,,a,0,0.6096,"[""0.050"",""0.175"",""0.583"",""0.693""]","[1,0,1,1]",0,23,23,23,1,1,0,,,0,FALSE,,,,,,,,,,,,,,,,,,,,,,,,,,,,,,,
,613aef3d9041bcd28952af82,627c6feefca8de0c05f73c11,2022-05-11_19h24.58.415,classification_task,2021.2.3,Win32,59.63384817,627c6715c52fd12f31907bd0,,,,,,,,,,,,,,,,,,,,,,,a,0,0.5946,"[""0.087"",""0.380"",""0.583"",""0.693""]","[0,1,1,1]",0,24,24,24,1,1,0,,,0,FALSE,,,,,,,,,,,,,,,,,,,,,,,,,,,,,,,
,613aef3d9041bcd28952af82,627c6feefca8de0c05f73c11,2022-05-11_19h24.58.415,classification_task,2021.2.3,Win32,59.63384817,627c6715c52fd12f31907bd0,,,,,,,,,,,,,,,,,,,,,,,a,1,0.8936,"[""0.209"",""0.523"",""0.617"",""0.955""]","[1,1,0,1]",0,25,25,25,1,0,0,,,0,FALSE,,,,,,,,,,,,,,,,,,,,,,,,,,,,,,,
,613aef3d9041bcd28952af82,627c6feefca8de0c05f73c11,2022-05-11_19h24.58.415,classification_task,2021.2.3,Win32,59.63384817,627c6715c52fd12f31907bd0,,,,,,,,,,,,,,,,,,,,,,,l,0,0.5431,"[""0.209"",""0.617"",""0.906"",""0.955""]","[1,0,1,1]",0,26,26,26,1,0,0,,,0,FALSE,,,,,,,,,,,,,,,,,,,,,,,,,,,,,,,
,613aef3d9041bcd28952af82,627c6feefca8de0c05f73c11,2022-05-11_19h24.58.415,classification_task,2021.2.3,Win32,59.63384817,627c6715c52fd12f31907bd0,,,,,,,,,,,,,,,,,,,,,,,a,1,0.9951,"[""0.247"",""0.750"",""0.653"",""0.866""]","[1,0,1,1]",0,27,27,27,1,0,1,,,0,FALSE,,,,,,,,,,,,,,,,,,,,,,,,,,,,,,,
,613aef3d9041bcd28952af82,627c6feefca8de0c05f73c11,2022-05-11_19h24.58.415,classification_task,2021.2.3,Win32,59.63384817,627c6715c52fd12f31907bd0,,,,,,,,,,,,,,,,,,,,,,,l,1,0.457,"[""0.050"",""0.380"",""0.583"",""0.617""]","[1,1,1,0]",0,28,28,28,1,1,0,,,0,FALSE,,,,,,,,,,,,,,,,,,,,,,,,,,,,,,,
,613aef3d9041bcd28952af82,627c6feefca8de0c05f73c11,2022-05-11_19h24.58.415,classification_task,2021.2.3,Win32,59.63384817,627c6715c52fd12f31907bd0,,,,,,,,,,,,,,,,,,,,,,,a,0,1.2701,"[""0.136"",""0.750"",""0.477"",""0.829""]","[1,0,1,1]",0,29,29,29,1,1,1,,,0,FALSE,,,,,,,,,,,,,,,,,,,,,,,,,,,,,,,
,613aef3d9041bcd28952af82,627c6feefca8de0c05f73c11,2022-05-11_19h24.58.415,classification_task,2021.2.3,Win32,59.63384817,627c6715c52fd12f31907bd0,,,,,,,,,,,,,,,,,,,,,,,l,1,0.7801,"[""0.773"",""0.299"",""0.477"",""0.829""]","[0,1,1,1]",0,30,30,30,1,1,1,,,0,FALSE,,,,,,,,,,,,,,,,,,,,,,,,,,,,,,,
,613aef3d9041bcd28952af82,627c6feefca8de0c05f73c11,2022-05-11_19h24.58.415,classification_task,2021.2.3,Win32,59.63384817,627c6715c52fd12f31907bd0,,,,,,,,,,,,,,,,,,,,,,,a,1,1.4931,"[""0.773"",""0.343"",""0.653"",""0.866""]","[0,1,1,1]",0,31,31,31,1,0,1,,,0,FALSE,,,,,,,,,,,,,,,,,,,,,,,,,,,,,,,
,613aef3d9041bcd28952af82,627c6feefca8de0c05f73c11,2022-05-11_19h24.58.415,classification_task,2021.2.3,Win32,59.63384817,627c6715c52fd12f31907bd0,,,,,,,,,,,,,,,,,,,,,,,a,0,0.6756,"[""0.136"",""0.299"",""0.477"",""0.768""]","[1,1,1,0]",0,32,32,32,1,1,1,,,0,FALSE,,,,,,,,,,,,,,,,,,,,,,,,,,,,,,,
,613aef3d9041bcd28952af82,627c6feefca8de0c05f73c11,2022-05-11_19h24.58.415,classification_task,2021.2.3,Win32,59.63384817,627c6715c52fd12f31907bd0,,,,,,,,,,,,,,,,,,,,,,,a,1,0.6884,"[""0.209"",""0.523"",""0.906"",""0.750""]","[1,1,1,0]",0,33,33,33,1,0,0,,,0,FALSE,,,,,,,,,,,,,,,,,,,,,,,,,,,,,,,
,613aef3d9041bcd28952af82,627c6feefca8de0c05f73c11,2022-05-11_19h24.58.415,classification_task,2021.2.3,Win32,59.63384817,627c6715c52fd12f31907bd0,,,,,,,,,,,,,,,,,,,,,,,a,0,0.5625,"[""0.136"",""0.299"",""0.617"",""0.829""]","[1,1,0,1]",0,34,34,34,1,1,1,,,0,FALSE,,,,,,,,,,,,,,,,,,,,,,,,,,,,,,,
,613aef3d9041bcd28952af82,627c6feefca8de0c05f73c11,2022-05-11_19h24.58.415,classification_task,2021.2.3,Win32,59.63384817,627c6715c52fd12f31907bd0,,,,,,,,,,,,,,,,,,,,,,,l,0,0.7495,"[""0.209"",""0.792"",""0.906"",""0.955""]","[1,0,1,1]",0,35,35,35,1,0,0,,,0,FALSE,,,,,,,,,,,,,,,,,,,,,,,,,,,,,,,
,613aef3d9041bcd28952af82,627c6feefca8de0c05f73c11,2022-05-11_19h24.58.415,classification_task,2021.2.3,Win32,59.63384817,627c6715c52fd12f31907bd0,,,,,,,,,,,,,,,,,,,,,,,l,0,0.835,"[""0.792"",""0.523"",""0.906"",""0.955""]","[0,1,1,1]",0,36,36,36,1,0,0,,,0,FALSE,,,,,,,,,,,,,,,,,,,,,,,,,,,,,,,
,613aef3d9041bcd28952af82,627c6feefca8de0c05f73c11,2022-05-11_19h24.58.415,classification_task,2021.2.3,Win32,59.63384817,627c6715c52fd12f31907bd0,,,,,,,,,,,,,,,,,,,,,,,l,1,0.6906,"[""0.050"",""0.747"",""0.583"",""0.693""]","[1,0,1,1]",0,37,37,37,1,1,0,,,0,FALSE,,,,,,,,,,,,,,,,,,,,,,,,,,,,,,,
,613aef3d9041bcd28952af82,627c6feefca8de0c05f73c11,2022-05-11_19h24.58.415,classification_task,2021.2.3,Win32,59.63384817,627c6715c52fd12f31907bd0,,,,,,,,,,,,,,,,,,,,,,,a,1,0.6949,"[""0.209"",""0.523"",""0.768"",""0.955""]","[1,1,0,1]",0,38,38,38,1,0,0,,,0,FALSE,,,,,,,,,,,,,,,,,,,,,,,,,,,,,,,
,613aef3d9041bcd28952af82,627c6feefca8de0c05f73c11,2022-05-11_19h24.58.415,classification_task,2021.2.3,Win32,59.63384817,627c6715c52fd12f31907bd0,,,,,,,,,,,,,,,,,,,,,,,l,1,0.5269,"[""0.050"",""0.380"",""0.583"",""0.083""]","[1,1,1,0]",0,39,39,39,1,1,0,,,0,FALSE,,,,,,,,,,,,,,,,,,,,,,,,,,,,,,,
,613aef3d9041bcd28952af82,627c6feefca8de0c05f73c11,2022-05-11_19h24.58.415,classification_task,2021.2.3,Win32,59.63384817,627c6715c52fd12f31907bd0,,,,,,,,,,,,,,,,,,,,,,,a,1,0.6919,"[""0.247"",""0.761"",""0.653"",""0.866""]","[1,0,1,1]",0,40,40,40,1,0,1,,,0,FALSE,,,,,,,,,,,,,,,,,,,,,,,,,,,,,,,
,613aef3d9041bcd28952af82,627c6feefca8de0c05f73c11,2022-05-11_19h24.58.415,classification_task,2021.2.3,Win32,59.63384817,627c6715c52fd12f31907bd0,,,,,,,,,,,,,,,,,,,,,,,a,1,0.9985,"[""0.247"",""0.343"",""0.653"",""0.095""]","[1,1,1,0]",0,41,41,41,1,0,1,,,0,FALSE,,,,,,,,,,,,,,,,,,,,,,,,,,,,,,,
,613aef3d9041bcd28952af82,627c6feefca8de0c05f73c11,2022-05-11_19h24.58.415,classification_task,2021.2.3,Win32,59.63384817,627c6715c52fd12f31907bd0,,,,,,,,,,,,,,,,,,,,,,,a,1,1.3256,"[""0.083"",""0.343"",""0.653"",""0.866""]","[0,1,1,1]",0,42,42,42,1,0,1,,,0,FALSE,,,,,,,,,,,,,,,,,,,,,,,,,,,,,,,
,613aef3d9041bcd28952af82,627c6feefca8de0c05f73c11,2022-05-11_19h24.58.415,classification_task,2021.2.3,Win32,59.63384817,627c6715c52fd12f31907bd0,,,,,,,,,,,,,,,,,,,,,,,a,1,0.7421,"[""0.247"",""0.343"",""0.761"",""0.866""]","[1,1,0,1]",0,43,43,43,1,0,1,,,0,FALSE,,,,,,,,,,,,,,,,,,,,,,,,,,,,,,,
,613aef3d9041bcd28952af82,627c6feefca8de0c05f73c11,2022-05-11_19h24.58.415,classification_task,2021.2.3,Win32,59.63384817,627c6715c52fd12f31907bd0,,,,,,,,,,,,,,,,,,,,,,,l,1,0.4771,"[""0.787"",""0.299"",""0.477"",""0.829""]","[0,1,1,1]",0,44,44,44,1,1,1,,,0,FALSE,,,,,,,,,,,,,,,,,,,,,,,,,,,,,,,
,613aef3d9041bcd28952af82,627c6feefca8de0c05f73c11,2022-05-11_19h24.58.415,classification_task,2021.2.3,Win32,59.63384817,627c6715c52fd12f31907bd0,,,,,,,,,,,,,,,,,,,,,,,a,0,0.7585,"[""0.773"",""0.380"",""0.583"",""0.693""]","[0,1,1,1]",0,45,45,45,1,1,0,,,0,FALSE,,,,,,,,,,,,,,,,,,,,,,,,,,,,,,,
,613aef3d9041bcd28952af82,627c6feefca8de0c05f73c11,2022-05-11_19h24.58.415,classification_task,2021.2.3,Win32,59.63384817,627c6715c52fd12f31907bd0,,,,,,,,,,,,,,,,,,,,,,,l,1,0.4956,"[""0.136"",""0.175"",""0.477"",""0.829""]","[1,0,1,1]",0,46,46,46,1,1,1,,,0,FALSE,,,,,,,,,,,,,,,,,,,,,,,,,,,,,,,
,613aef3d9041bcd28952af82,627c6feefca8de0c05f73c11,2022-05-11_19h24.58.415,classification_task,2021.2.3,Win32,59.63384817,627c6715c52fd12f31907bd0,,,,,,,,,,,,,,,,,,,,,,,l,1,0.6399,"[""0.050"",""0.380"",""0.414"",""0.693""]","[1,1,0,1]",0,47,47,47,1,1,0,,,0,FALSE,,,,,,,,,,,,,,,,,,,,,,,,,,,,,,,
,613aef3d9041bcd28952af82,627c6feefca8de0c05f73c11,2022-05-11_19h24.58.415,classification_task,2021.2.3,Win32,59.63384817,627c6715c52fd12f31907bd0,,,,,,,,,,,,,,,,,,,,,,,a,1,0.6935,"[""0.209"",""0.523"",""0.747"",""0.955""]","[1,1,0,1]",0,48,48,48,1,0,0,,,0,FALSE,,,,,,,,,,,,,,,,,,,,,,,,,,,,,,,
,613aef3d9041bcd28952af82,627c6feefca8de0c05f73c11,2022-05-11_19h24.58.415,classification_task,2021.2.3,Win32,59.63384817,627c6715c52fd12f31907bd0,,,,,,,,,,,,,,,,,,,,,,,a,0,0.6104,"[""0.050"",""0.380"",""0.583"",""0.787""]","[1,1,1,0]",0,49,49,49,1,1,0,,,0,FALSE,,,,,,,,,,,,,,,,,,,,,,,,,,,,,,,
,613aef3d9041bcd28952af82,627c6feefca8de0c05f73c11,2022-05-11_19h24.58.415,classification_task,2021.2.3,Win32,59.63384817,627c6715c52fd12f31907bd0,,,,,,,,,,,,,,,,,,,,,,,a,0,0.7747,"[""0.136"",""0.299"",""0.477"",""0.747""]","[1,1,1,0]",0,50,50,50,1,1,1,,,0,FALSE,,,,,,,,,,,,,,,,,,,,,,,,,,,,,,,
,613aef3d9041bcd28952af82,627c6feefca8de0c05f73c11,2022-05-11_19h24.58.415,classification_task,2021.2.3,Win32,59.63384817,627c6715c52fd12f31907bd0,,,,,,,,,,,,,,,,,,,,,,,l,1,0.4989,"[""0.050"",""0.380"",""0.735"",""0.693""]","[1,1,0,1]",0,51,51,51,1,1,0,,,0,FALSE,,,,,,,,,,,,,,,,,,,,,,,,,,,,,,,
,613aef3d9041bcd28952af82,627c6feefca8de0c05f73c11,2022-05-11_19h24.58.415,classification_task,2021.2.3,Win32,59.63384817,627c6715c52fd12f31907bd0,,,,,,,,,,,,,,,,,,,,,,,a,1,0.6456,"[""0.247"",""0.343"",""0.750"",""0.866""]","[1,1,0,1]",0,52,52,52,1,0,1,,,0,FALSE,,,,,,,,,,,,,,,,,,,,,,,,,,,,,,,
,613aef3d9041bcd28952af82,627c6feefca8de0c05f73c11,2022-05-11_19h24.58.415,classification_task,2021.2.3,Win32,59.63384817,627c6715c52fd12f31907bd0,,,,,,,,,,,,,,,,,,,,,,,a,1,0.8781,"[""0.209"",""0.523"",""0.906"",""0.422""]","[1,1,1,0]",0,53,53,53,1,0,0,,,0,FALSE,,,,,,,,,,,,,,,,,,,,,,,,,,,,,,,
,613aef3d9041bcd28952af82,627c6feefca8de0c05f73c11,2022-05-11_19h24.58.415,classification_task,2021.2.3,Win32,59.63384817,627c6715c52fd12f31907bd0,,,,,,,,,,,,,,,,,,,,,,,a,1,0.6298,"[""0.247"",""0.414"",""0.653"",""0.866""]","[1,0,1,1]",0,54,54,54,1,0,1,,,0,FALSE,,,,,,,,,,,,,,,,,,,,,,,,,,,,,,,
,613aef3d9041bcd28952af82,627c6feefca8de0c05f73c11,2022-05-11_19h24.58.415,classification_task,2021.2.3,Win32,59.63384817,627c6715c52fd12f31907bd0,,,,,,,,,,,,,,,,,,,,,,,l,1,1.6274,"[""0.050"",""0.750"",""0.583"",""0.693""]","[1,0,1,1]",0,55,55,55,1,1,0,,,0,FALSE,,,,,,,,,,,,,,,,,,,,,,,,,,,,,,,
,613aef3d9041bcd28952af82,627c6feefca8de0c05f73c11,2022-05-11_19h24.58.415,classification_task,2021.2.3,Win32,59.63384817,627c6715c52fd12f31907bd0,,,,,,,,,,,,,,,,,,,,,,,l,1,0.6751,"[""0.792"",""0.299"",""0.477"",""0.829""]","[0,1,1,1]",0,56,56,56,1,1,1,,,0,FALSE,,,,,,,,,,,,,,,,,,,,,,,,,,,,,,,
,613aef3d9041bcd28952af82,627c6feefca8de0c05f73c11,2022-05-11_19h24.58.415,classification_task,2021.2.3,Win32,59.63384817,627c6715c52fd12f31907bd0,,,,,,,,,,,,,,,,,,,,,,,a,0,0.6204,"[""0.136"",""0.617"",""0.477"",""0.829""]","[1,0,1,1]",0,57,57,57,1,1,1,,,0,FALSE,,,,,,,,,,,,,,,,,,,,,,,,,,,,,,,
,613aef3d9041bcd28952af82,627c6feefca8de0c05f73c11,2022-05-11_19h24.58.415,classification_task,2021.2.3,Win32,59.63384817,627c6715c52fd12f31907bd0,,,,,,,,,,,,,,,,,,,,,,,l,0,0.7625,"[""0.209"",""0.095"",""0.906"",""0.955""]","[1,0,1,1]",0,58,58,58,1,0,0,,,0,FALSE,,,,,,,,,,,,,,,,,,,,,,,,,,,,,,,
,613aef3d9041bcd28952af82,627c6feefca8de0c05f73c11,2022-05-11_19h24.58.415,classification_task,2021.2.3,Win32,59.63384817,627c6715c52fd12f31907bd0,,,,,,,,,,,,,,,,,,,,,,,a,0,0.5945,"[""0.136"",""0.299"",""0.792"",""0.829""]","[1,1,0,1]",0,59,59,59,1,1,1,,,0,FALSE,,,,,,,,,,,,,,,,,,,,,,,,,,,,,,,
,613aef3d9041bcd28952af82,627c6feefca8de0c05f73c11,2022-05-11_19h24.58.415,classification_task,2021.2.3,Win32,59.63384817,627c6715c52fd12f31907bd0,,,,,,,,,,,,,,,,,,,,,,,l,0,0.9443,"[""0.087"",""0.523"",""0.906"",""0.955""]","[0,1,1,1]",0,60,60,60,1,0,0,,,0,FALSE,,,,,,,,,,,,,,,,,,,,,,,,,,,,,,,
,613aef3d9041bcd28952af82,627c6feefca8de0c05f73c11,2022-05-11_19h24.58.415,classification_task,2021.2.3,Win32,59.63384817,627c6715c52fd12f31907bd0,,,,,,,,,,,,,,,,,,,,,,,l,1,0.9931,"[""0.750"",""0.380"",""0.583"",""0.693""]","[0,1,1,1]",0,61,61,61,1,1,0,,,0,FALSE,,,,,,,,,,,,,,,,,,,,,,,,,,,,,,,
,613aef3d9041bcd28952af82,627c6feefca8de0c05f73c11,2022-05-11_19h24.58.415,classification_task,2021.2.3,Win32,59.63384817,627c6715c52fd12f31907bd0,,,,,,,,,,,,,,,,,,,,,,,l,0,0.6417,"[""0.414"",""0.343"",""0.653"",""0.866""]","[0,1,1,1]",0,62,62,62,1,0,1,,,0,FALSE,,,,,,,,,,,,,,,,,,,,,,,,,,,,,,,
,613aef3d9041bcd28952af82,627c6feefca8de0c05f73c11,2022-05-11_19h24.58.415,classification_task,2021.2.3,Win32,59.63384817,627c6715c52fd12f31907bd0,,,,,,,,,,,,,,,,,,,,,,,a,1,0.5421,"[""0.247"",""0.343"",""0.653"",""0.747""]","[1,1,1,0]",0,63,63,63,1,0,1,,,0,FALSE,,,,,,,,,,,,,,,,,,,,,,,,,,,,,,,
,613aef3d9041bcd28952af82,627c6feefca8de0c05f73c11,2022-05-11_19h24.58.415,classification_task,2021.2.3,Win32,59.63384817,627c6715c52fd12f31907bd0,,,,,,,,,,,,,,,,,,,,,,,,,,,,,,,,,,,,,,,0, ,,0,10,133.9352,0,2,2,2,1,2,3,,,,,,,,,,,,,,,,,,
,613aef3d9041bcd28952af82,627c6feefca8de0c05f73c11,2022-05-11_19h24.58.415,classification_task,2021.2.3,Win32,59.63384817,627c6715c52fd12f31907bd0,,,,,,,,,,,,,,,,,,,,,,,,,,,,,,,,,,,,,,,1,  ,,0,7.235204782,138.6014,0,2,2,2,1,2,3,,,,,,,,,,,,,,,,,,
,613aef3d9041bcd28952af82,627c6feefca8de0c05f73c11,2022-05-11_19h24.58.415,classification_task,2021.2.3,Win32,59.63384817,627c6715c52fd12f31907bd0,,,,,,,,,,,,,,,,,,,,,,,,,,,,,,,,,,,,,,,2,  ,,0,5.202088129,142.4838,0,2,2,2,1,2,3,,,,,,,,,,,,,,,,,,
,613aef3d9041bcd28952af82,627c6feefca8de0c05f73c11,2022-05-11_19h24.58.415,classification_task,2021.2.3,Win32,59.63384817,627c6715c52fd12f31907bd0,,,,,,,,,,,,,,,,,,,,,,,,,,,,,,,,,,,,,,,,,,,,,0,2,2,2,1,,3,,,,,,,,,,,,,,,,,,
,613aef3d9041bcd28952af82,627c6feefca8de0c05f73c11,2022-05-11_19h24.58.415,classification_task,2021.2.3,Win32,59.63384817,627c6715c52fd12f31907bd0,,,,,,,,,,,,,,,,,,,,,,,,,,,,,,,,,,,,,,,,,,,,,,,,,,,,,I believe the aid is a competent performer,,0.7,0,5,931.3902,0,0,0,0,1,0,,,,,
,613aef3d9041bcd28952af82,627c6feefca8de0c05f73c11,2022-05-11_19h24.58.415,classification_task,2021.2.3,Win32,59.63384817,627c6715c52fd12f31907bd0,,,,,,,,,,,,,,,,,,,,,,,,,,,,,,,,,,,,,,,,,,,,,,,,,,,,,I trust the aid,,0.7,0,5,916.8561,0,0,0,0,1,0,,,,,
,613aef3d9041bcd28952af82,627c6feefca8de0c05f73c11,2022-05-11_19h24.58.415,classification_task,2021.2.3,Win32,59.63384817,627c6715c52fd12f31907bd0,,,,,,,,,,,,,,,,,,,,,,,,,,,,,,,,,,,,,,,,,,,,,,,,,,,,,I have confidence in the advice given by the aid,,0.7,0,5,919.89,0,0,0,0,1,0,,,,,
,613aef3d9041bcd28952af82,627c6feefca8de0c05f73c11,2022-05-11_19h24.58.415,classification_task,2021.2.3,Win32,59.63384817,627c6715c52fd12f31907bd0,,,,,,,,,,,,,,,,,,,,,,,,,,,,,,,,,,,,,,,,,,,,,,,,,,,,,I can depend on the aid,,0.7,0,5,922.17,0,0,0,0,1,0,,,,,
,613aef3d9041bcd28952af82,627c6feefca8de0c05f73c11,2022-05-11_19h24.58.415,classification_task,2021.2.3,Win32,59.63384817,627c6715c52fd12f31907bd0,,,,,,,,,,,,,,,,,,,,,,,,,,,,,,,,,,,,,,,,,,,,,,,,,,,,,I can rely on the aid to behave in consistent ways,,0.7,0,5,924.8774,0,0,0,0,1,0,,,,,
,613aef3d9041bcd28952af82,627c6feefca8de0c05f73c11,2022-05-11_19h24.58.415,classification_task,2021.2.3,Win32,59.63384817,627c6715c52fd12f31907bd0,,,,,,,,,,,,,,,,,,,,,,,,,,,,,,,,,,,,,,,,,,,,,,,,,,,,,I can rely on the aid to do its best every time I take its advice,,0.7,0,5,928.715,0,0,0,0,1,0,,,,,
,613aef3d9041bcd28952af82,627c6feefca8de0c05f73c11,2022-05-11_19h24.58.415,classification_task,2021.2.3,Win32,59.63384817,627c6715c52fd12f31907bd0,,,,,,,,,,,,,,,,,,,,,,,,,,,,,,,,,,,,,,,,,,,,,,,,,,,,,"On trials you completed with assistance from the aid, how frequently did you think the aid was correct?",,0.7,0,100%,,0,0,0,0,1,0,,,,,
,613aef3d9041bcd28952af82,627c6feefca8de0c05f73c11,2022-05-11_19h24.58.415,classification_task,2021.2.3,Win32,59.63384817,627c6715c52fd12f31907bd0,,,,,,,,,,,,,,,,,,,,,,,,,,,,,,,,,,,,,,,,,,,,,,,,,,,,,"On trials you completed without the aid, how frequently did you think you were correct?",,0.7,0,40%,,0,0,0,0,1,0,,,,,
,613aef3d9041bcd28952af82,627c6feefca8de0c05f73c11,2022-05-11_19h24.58.415,classification_task,2021.2.3,Win32,59.63384817,627c6715c52fd12f31907bd0,,,,,,,,,,,,,,,,,,,,,,,,,,,,,,,,,,,,,,,,,,,,,,,,,,,,,,,,,,,0,0,0,0,1,,,,,,
,613aef3d9041bcd28952af82,627c6feefca8de0c05f73c11,2022-05-11_19h24.58.415,classification_task,2021.2.3,Win32,59.63384817,627c6715c52fd12f31907bd0,,,,,,,,,,,,,,,,,,,,,,,,,,,,,,,,,,,,,,,,,,,,,,,,,,,,,,,,,,,,,,,,,m,15.5771,972.4777,,
,613aef3d9041bcd28952af82,627c6feefca8de0c05f73c11,2022-05-11_19h24.58.415,classification_task,2021.2.3,Win32,59.63384817,627c6715c52fd12f31907bd0,,,,,,,,,,,,,,,,,,,,,,,,,,,,,,,,,,,,,,,,,,,,,,,,,,,,,,,,,,,,,,,,,,,,"Mozilla/5.0 (Windows NT 10.0; Win64; x64) AppleWebKit/537.36 (KHTML, like Gecko) Chrome/101.0.4951.54 Safari/537.36",
,613aef3d9041bcd28952af82,627c6feefca8de0c05f73c11,2022-05-11_19h24.58.415,classification_task,2021.2.3,Win32,59.63384817,627c6715c52fd12f31907bd0,,,,,,,,,,,,,,,,,,,,,,,,,,,,,,,,,,,,,,,,,,,,,,,,,,,,,,,,,,,,,,,,,,,,,FADING
