usingWebGL,participant,session,date,expName,psychopyVersion,OS,frameRate,study_id,signatures_friend,signatures_foe,band_ranges_top,band_ranges_bottom,formitemText,formtype,formundefined,formitemWidth,formindex,formresponse,formrt,key_resp_2.keys,key_resp_2.rt,tute_resp.keys,tute_resp.rt,tutorial.thisRepN,tutorial.thisTrialN,tutorial.thisN,tutorial.thisIndex,tutorial.ran,key_resp_4.keys,key_resp_4.rt,key_resp.keys,key_resp.corr,lines_presented,is_signal_presented,trials.thisRepN,trials.thisTrialN,trials.thisN,trials.thisIndex,trials.ran,vessel,active_band,lines,is_signal,supported_pos,catch_trial,key_resp.rt,debrief_formindex,debrief_formitemText,debrief_formtype,debrief_formitemWidth,debrief_formresponse,debrief_formrt,phases.thisRepN,phases.thisTrialN,phases.thisN,phases.thisIndex,phases.ran,phases.order,phase,key_resp_3.keys,trustitemText,trusttype,trustitemWidth,trustindex,trustresponse,trustrt,support_status.thisRepN,support_status.thisTrialN,support_status.thisN,support_status.thisIndex,support_status.ran,support_status.order,key_resp_5.keys,key_resp_5.rt,globalClockTime,userAgent,manualCondition
TRUE,613a83dc733097c0054602df,627c698628f16fa2b9fa0fee,2022-05-11_20h58.18.027,classification_task,2021.2.3,Win32,60.0132029,627c6715c52fd12f31907bcf,,,,,,,,,,,,,,,,,,,,,,,,,,,,,,,,,,,,,,,,,,,,,,,,,,,,,,,,,,,,,,,,,,,,,
,613a83dc733097c0054602df,627c698628f16fa2b9fa0fee,2022-05-11_20h58.18.027,classification_task,2021.2.3,Win32,60.0132029,627c6715c52fd12f31907bcf,"[[""0.323"",""0.559"",""0.660"",""0.930""],[""0.201"",""0.400"",""0.734"",""0.855""]]","[[""0.067"",""0.239"",""0.480"",""0.770""],[""0.156"",""0.284"",""0.438"",""0.816""]]","[1,10]","[100,1000]",Video game experience,,,0.7,0,,,,,,,,,,,,,,,,,,,,,,,,,,,,,,,,,,,,,,,,,,,,,,,,,,,,,,,,,,,,
,613a83dc733097c0054602df,627c698628f16fa2b9fa0fee,2022-05-11_20h58.18.027,classification_task,2021.2.3,Win32,60.0132029,627c6715c52fd12f31907bcf,,,,,Approximately how many hours did you spend playing video games in the last week?,,,0.7,0,8,,,,,,,,,,,,,,,,,,,,,,,,,,,,,,,,,,,,,,,,,,,,,,,,,,,,,,,,,,,
,613a83dc733097c0054602df,627c698628f16fa2b9fa0fee,2022-05-11_20h58.18.027,classification_task,2021.2.3,Win32,60.0132029,627c6715c52fd12f31907bcf,,,,,"Which game did you play the most this year? (Enter ""None"" if you didn't play any)",,,0.7,0,naruto shipudden 2,,,,,,,,,,,,,,,,,,,,,,,,,,,,,,,,,,,,,,,,,,,,,,,,,,,,,,,,,,,
,613a83dc733097c0054602df,627c698628f16fa2b9fa0fee,2022-05-11_20h58.18.027,classification_task,2021.2.3,Win32,60.0132029,627c6715c52fd12f31907bcf,,,,,Visual perception,,,0.7,0,,,,,,,,,,,,,,,,,,,,,,,,,,,,,,,,,,,,,,,,,,,,,,,,,,,,,,,,,,,,
,613a83dc733097c0054602df,627c698628f16fa2b9fa0fee,2022-05-11_20h58.18.027,classification_task,2021.2.3,Win32,60.0132029,627c6715c52fd12f31907bcf,,,,,Do you have any form of color blindness?,,,0.7,0,No,48.2901,,,,,,,,,,,,,,,,,,,,,,,,,,,,,,,,,,,,,,,,,,,,,,,,,,,,,,,,,,
,613a83dc733097c0054602df,627c698628f16fa2b9fa0fee,2022-05-11_20h58.18.027,classification_task,2021.2.3,Win32,60.0132029,627c6715c52fd12f31907bcf,,,,,Do you use software to change the colour temperature of your screen (e.g. f.lux)?,,,0.7,0,No,51.7618,,,,,,,,,,,,,,,,,,,,,,,,,,,,,,,,,,,,,,,,,,,,,,,,,,,,,,,,,,
,613a83dc733097c0054602df,627c698628f16fa2b9fa0fee,2022-05-11_20h58.18.027,classification_task,2021.2.3,Win32,60.0132029,627c6715c52fd12f31907bcf,,,,,,,,,,,,space,30.0856,space,8.2208,0,0,0,0,1,,,,,,,,,,,,,,,,,,,,,,,,,,,,,,,,,,,,,,,,,,,,,,,,,
,613a83dc733097c0054602df,627c698628f16fa2b9fa0fee,2022-05-11_20h58.18.027,classification_task,2021.2.3,Win32,60.0132029,627c6715c52fd12f31907bcf,,,,,,,,,,,,,,space,7.6718,1,0,1,0,1,,,,,,,,,,,,,,,,,,,,,,,,,,,,,,,,,,,,,,,,,,,,,,,,,
,613a83dc733097c0054602df,627c698628f16fa2b9fa0fee,2022-05-11_20h58.18.027,classification_task,2021.2.3,Win32,60.0132029,627c6715c52fd12f31907bcf,,,,,,,,,,,,,,space,12.9691,2,0,2,0,1,,,,,,,,,,,,,,,,,,,,,,,,,,,,,,,,,,,,,,,,,,,,,,,,,
,613a83dc733097c0054602df,627c698628f16fa2b9fa0fee,2022-05-11_20h58.18.027,classification_task,2021.2.3,Win32,60.0132029,627c6715c52fd12f31907bcf,,,,,,,,,,,,,,space,11.2609,3,0,3,0,1,,,,,,,,,,,,,,,,,,,,,,,,,,,,,,,,,,,,,,,,,,,,,,,,,
,613a83dc733097c0054602df,627c698628f16fa2b9fa0fee,2022-05-11_20h58.18.027,classification_task,2021.2.3,Win32,60.0132029,627c6715c52fd12f31907bcf,,,,,,,,,,,,,,space,47.5948,4,0,4,0,1,,,,,,,,,,,,,,,,,,,,,,,,,,,,,,,,,,,,,,,,,,,,,,,,,
,613a83dc733097c0054602df,627c698628f16fa2b9fa0fee,2022-05-11_20h58.18.027,classification_task,2021.2.3,Win32,60.0132029,627c6715c52fd12f31907bcf,,,,,,,,,,,,,,,,,,,,,space,15.1937,,0,"[""0.201"",""0.968"",""0.734"",""0.855""]","[1,0,1,1]",0,0,0,0,1,0,1,,,0,FALSE,,,,,,,,,,,,,,,,,,,,,,,,,,,,,,,,
,613a83dc733097c0054602df,627c698628f16fa2b9fa0fee,2022-05-11_20h58.18.027,classification_task,2021.2.3,Win32,60.0132029,627c6715c52fd12f31907bcf,,,,,,,,,,,,,,,,,,,,,,,a,0,"[""0.156"",""0.520"",""0.438"",""0.816""]","[1,0,1,1]",0,1,1,1,1,1,1,,,0,FALSE,2.9648,,,,,,,,,,,,,,,,,,,,,,,,,,,,,,,
,613a83dc733097c0054602df,627c698628f16fa2b9fa0fee,2022-05-11_20h58.18.027,classification_task,2021.2.3,Win32,60.0132029,627c6715c52fd12f31907bcf,,,,,,,,,,,,,,,,,,,,,,,l,0,"[""0.201"",""0.400"",""0.106"",""0.855""]","[1,1,0,1]",0,2,2,2,1,0,1,,,0,FALSE,3.9175,,,,,,,,,,,,,,,,,,,,,,,,,,,,,,,
,613a83dc733097c0054602df,627c698628f16fa2b9fa0fee,2022-05-11_20h58.18.027,classification_task,2021.2.3,Win32,60.0132029,627c6715c52fd12f31907bcf,,,,,,,,,,,,,,,,,,,,,,,a,0,"[""0.067"",""0.107"",""0.480"",""0.770""]","[1,0,1,1]",0,3,3,3,1,1,0,,,0,FALSE,1.9848,,,,,,,,,,,,,,,,,,,,,,,,,,,,,,,
,613a83dc733097c0054602df,627c698628f16fa2b9fa0fee,2022-05-11_20h58.18.027,classification_task,2021.2.3,Win32,60.0132029,627c6715c52fd12f31907bcf,,,,,,,,,,,,,,,,,,,,,,,a,1,"[""0.606"",""0.400"",""0.734"",""0.855""]","[0,1,1,1]",0,4,4,4,1,0,1,,,0,FALSE,1.4046,,,,,,,,,,,,,,,,,,,,,,,,,,,,,,,
,613a83dc733097c0054602df,627c698628f16fa2b9fa0fee,2022-05-11_20h58.18.027,classification_task,2021.2.3,Win32,60.0132029,627c6715c52fd12f31907bcf,,,,,,,,,,,,,,,,,,,,,,,l,1,"[""0.106"",""0.284"",""0.438"",""0.816""]","[0,1,1,1]",0,5,5,5,1,1,1,,,0,FALSE,0.9325,,,,,,,,,,,,,,,,,,,,,,,,,,,,,,,
,613a83dc733097c0054602df,627c698628f16fa2b9fa0fee,2022-05-11_20h58.18.027,classification_task,2021.2.3,Win32,60.0132029,627c6715c52fd12f31907bcf,,,,,,,,,,,,,,,,,,,,,,,a,1,"[""0.323"",""0.559"",""0.107"",""0.930""]","[1,1,0,1]",0,6,6,6,1,0,0,,,0,FALSE,1.481,,,,,,,,,,,,,,,,,,,,,,,,,,,,,,,
,613a83dc733097c0054602df,627c698628f16fa2b9fa0fee,2022-05-11_20h58.18.027,classification_task,2021.2.3,Win32,60.0132029,627c6715c52fd12f31907bcf,,,,,,,,,,,,,,,,,,,,,,,l,0,"[""0.201"",""0.400"",""0.734"",""0.600""]","[1,1,1,0]",0,7,7,7,1,0,1,,,0,FALSE,0.7345,,,,,,,,,,,,,,,,,,,,,,,,,,,,,,,
,613a83dc733097c0054602df,627c698628f16fa2b9fa0fee,2022-05-11_20h58.18.027,classification_task,2021.2.3,Win32,60.0132029,627c6715c52fd12f31907bcf,,,,,,,,,,,,,,,,,,,,,,,a,0,"[""0.607"",""0.239"",""0.480"",""0.770""]","[0,1,1,1]",0,8,8,8,1,1,0,,,0,FALSE,1.4583,,,,,,,,,,,,,,,,,,,,,,,,,,,,,,,
,613a83dc733097c0054602df,627c698628f16fa2b9fa0fee,2022-05-11_20h58.18.027,classification_task,2021.2.3,Win32,60.0132029,627c6715c52fd12f31907bcf,,,,,,,,,,,,,,,,,,,,,,,l,1,"[""0.156"",""0.284"",""0.611"",""0.816""]","[1,1,0,1]",0,9,9,9,1,1,1,,,0,FALSE,1.745,,,,,,,,,,,,,,,,,,,,,,,,,,,,,,,
,613a83dc733097c0054602df,627c698628f16fa2b9fa0fee,2022-05-11_20h58.18.027,classification_task,2021.2.3,Win32,60.0132029,627c6715c52fd12f31907bcf,,,,,,,,,,,,,,,,,,,,,,,a,1,"[""0.968"",""0.559"",""0.660"",""0.930""]","[0,1,1,1]",0,10,10,10,1,0,0,,,0,FALSE,3.6563,,,,,,,,,,,,,,,,,,,,,,,,,,,,,,,
,613a83dc733097c0054602df,627c698628f16fa2b9fa0fee,2022-05-11_20h58.18.027,classification_task,2021.2.3,Win32,60.0132029,627c6715c52fd12f31907bcf,,,,,,,,,,,,,,,,,,,,,,,a,1,"[""0.323"",""0.559"",""0.660"",""0.107""]","[1,1,1,0]",0,11,11,11,1,0,0,,,0,FALSE,0.7386,,,,,,,,,,,,,,,,,,,,,,,,,,,,,,,
,613a83dc733097c0054602df,627c698628f16fa2b9fa0fee,2022-05-11_20h58.18.027,classification_task,2021.2.3,Win32,60.0132029,627c6715c52fd12f31907bcf,,,,,,,,,,,,,,,,,,,,,,,l,1,"[""0.067"",""0.239"",""0.619"",""0.770""]","[1,1,0,1]",0,12,12,12,1,1,0,,,0,FALSE,0.8537,,,,,,,,,,,,,,,,,,,,,,,,,,,,,,,
,613a83dc733097c0054602df,627c698628f16fa2b9fa0fee,2022-05-11_20h58.18.027,classification_task,2021.2.3,Win32,60.0132029,627c6715c52fd12f31907bcf,,,,,,,,,,,,,,,,,,,,,,,l,1,"[""0.156"",""0.284"",""0.438"",""0.968""]","[1,1,1,0]",0,13,13,13,1,1,1,,,0,FALSE,1.0393,,,,,,,,,,,,,,,,,,,,,,,,,,,,,,,
,613a83dc733097c0054602df,627c698628f16fa2b9fa0fee,2022-05-11_20h58.18.027,classification_task,2021.2.3,Win32,60.0132029,627c6715c52fd12f31907bcf,,,,,,,,,,,,,,,,,,,,,,,a,0,"[""0.067"",""0.239"",""0.480"",""0.600""]","[1,1,1,0]",0,14,14,14,1,1,0,,,0,FALSE,1.0029,,,,,,,,,,,,,,,,,,,,,,,,,,,,,,,
,613a83dc733097c0054602df,627c698628f16fa2b9fa0fee,2022-05-11_20h58.18.027,classification_task,2021.2.3,Win32,60.0132029,627c6715c52fd12f31907bcf,,,,,,,,,,,,,,,,,,,,,,,l,0,"[""0.323"",""0.611"",""0.660"",""0.930""]","[1,0,1,1]",0,15,15,15,1,0,0,,,0,FALSE,2.3407,,,,,,,,,,,,,,,,,,,,,,,,,,,,,,,
,613a83dc733097c0054602df,627c698628f16fa2b9fa0fee,2022-05-11_20h58.18.027,classification_task,2021.2.3,Win32,60.0132029,627c6715c52fd12f31907bcf,,,,,,,,,,,,,,,,,,,,,,,a,0,"[""0.156"",""0.284"",""0.438"",""0.614""]","[1,1,1,0]",0,16,16,16,1,1,1,,,0,FALSE,0.7448,,,,,,,,,,,,,,,,,,,,,,,,,,,,,,,
,613a83dc733097c0054602df,627c698628f16fa2b9fa0fee,2022-05-11_20h58.18.027,classification_task,2021.2.3,Win32,60.0132029,627c6715c52fd12f31907bcf,,,,,,,,,,,,,,,,,,,,,,,l,1,"[""0.156"",""0.284"",""0.600"",""0.816""]","[1,1,0,1]",0,17,17,17,1,1,1,,,0,FALSE,0.9409,,,,,,,,,,,,,,,,,,,,,,,,,,,,,,,
,613a83dc733097c0054602df,627c698628f16fa2b9fa0fee,2022-05-11_20h58.18.027,classification_task,2021.2.3,Win32,60.0132029,627c6715c52fd12f31907bcf,,,,,,,,,,,,,,,,,,,,,,,a,1,"[""0.601"",""0.559"",""0.660"",""0.930""]","[0,1,1,1]",0,18,18,18,1,0,0,,,0,FALSE,0.7294,,,,,,,,,,,,,,,,,,,,,,,,,,,,,,,
,613a83dc733097c0054602df,627c698628f16fa2b9fa0fee,2022-05-11_20h58.18.027,classification_task,2021.2.3,Win32,60.0132029,627c6715c52fd12f31907bcf,,,,,,,,,,,,,,,,,,,,,,,a,1,"[""0.323"",""0.559"",""0.611"",""0.930""]","[1,1,0,1]",0,19,19,19,1,0,0,,,0,FALSE,1.09,,,,,,,,,,,,,,,,,,,,,,,,,,,,,,,
,613a83dc733097c0054602df,627c698628f16fa2b9fa0fee,2022-05-11_20h58.18.027,classification_task,2021.2.3,Win32,60.0132029,627c6715c52fd12f31907bcf,,,,,,,,,,,,,,,,,,,,,,,a,1,"[""0.323"",""0.106"",""0.660"",""0.930""]","[1,0,1,1]",0,20,20,20,1,0,0,,,0,FALSE,0.9337,,,,,,,,,,,,,,,,,,,,,,,,,,,,,,,
,613a83dc733097c0054602df,627c698628f16fa2b9fa0fee,2022-05-11_20h58.18.027,classification_task,2021.2.3,Win32,60.0132029,627c6715c52fd12f31907bcf,,,,,,,,,,,,,,,,,,,,,,,a,0,"[""0.067"",""0.239"",""0.480"",""0.107""]","[1,1,1,0]",0,21,21,21,1,1,0,,,0,FALSE,0.7004,,,,,,,,,,,,,,,,,,,,,,,,,,,,,,,
,613a83dc733097c0054602df,627c698628f16fa2b9fa0fee,2022-05-11_20h58.18.027,classification_task,2021.2.3,Win32,60.0132029,627c6715c52fd12f31907bcf,,,,,,,,,,,,,,,,,,,,,,,l,0,"[""0.201"",""0.400"",""0.614"",""0.855""]","[1,1,0,1]",0,22,22,22,1,0,1,,,0,FALSE,0.8736,,,,,,,,,,,,,,,,,,,,,,,,,,,,,,,
,613a83dc733097c0054602df,627c698628f16fa2b9fa0fee,2022-05-11_20h58.18.027,classification_task,2021.2.3,Win32,60.0132029,627c6715c52fd12f31907bcf,,,,,,,,,,,,,,,,,,,,,,,a,1,"[""0.201"",""0.600"",""0.734"",""0.855""]","[1,0,1,1]",0,23,23,23,1,0,1,,,0,FALSE,0.937,,,,,,,,,,,,,,,,,,,,,,,,,,,,,,,
,613a83dc733097c0054602df,627c698628f16fa2b9fa0fee,2022-05-11_20h58.18.027,classification_task,2021.2.3,Win32,60.0132029,627c6715c52fd12f31907bcf,,,,,,,,,,,,,,,,,,,,,,,l,1,"[""0.156"",""0.607"",""0.438"",""0.816""]","[1,0,1,1]",0,24,24,24,1,1,1,,,0,FALSE,6.9804,,,,,,,,,,,,,,,,,,,,,,,,,,,,,,,
,613a83dc733097c0054602df,627c698628f16fa2b9fa0fee,2022-05-11_20h58.18.027,classification_task,2021.2.3,Win32,60.0132029,627c6715c52fd12f31907bcf,,,,,,,,,,,,,,,,,,,,,,,a,1,"[""0.611"",""0.400"",""0.734"",""0.855""]","[0,1,1,1]",0,25,25,25,1,0,1,,,0,FALSE,2.5793,,,,,,,,,,,,,,,,,,,,,,,,,,,,,,,
,613a83dc733097c0054602df,627c698628f16fa2b9fa0fee,2022-05-11_20h58.18.027,classification_task,2021.2.3,Win32,60.0132029,627c6715c52fd12f31907bcf,,,,,,,,,,,,,,,,,,,,,,,l,1,"[""0.067"",""0.239"",""0.601"",""0.770""]","[1,1,0,1]",0,26,26,26,1,1,0,,,0,FALSE,1.0945,,,,,,,,,,,,,,,,,,,,,,,,,,,,,,,
,613a83dc733097c0054602df,627c698628f16fa2b9fa0fee,2022-05-11_20h58.18.027,classification_task,2021.2.3,Win32,60.0132029,627c6715c52fd12f31907bcf,,,,,,,,,,,,,,,,,,,,,,,a,0,"[""0.520"",""0.284"",""0.438"",""0.816""]","[0,1,1,1]",0,27,27,27,1,1,1,,,0,FALSE,1.1208,,,,,,,,,,,,,,,,,,,,,,,,,,,,,,,
,613a83dc733097c0054602df,627c698628f16fa2b9fa0fee,2022-05-11_20h58.18.027,classification_task,2021.2.3,Win32,60.0132029,627c6715c52fd12f31907bcf,,,,,,,,,,,,,,,,,,,,,,,l,0,"[""0.323"",""0.559"",""0.660"",""0.968""]","[1,1,1,0]",0,28,28,28,1,0,0,,,0,FALSE,0.981,,,,,,,,,,,,,,,,,,,,,,,,,,,,,,,
,613a83dc733097c0054602df,627c698628f16fa2b9fa0fee,2022-05-11_20h58.18.027,classification_task,2021.2.3,Win32,60.0132029,627c6715c52fd12f31907bcf,,,,,,,,,,,,,,,,,,,,,,,a,1,"[""0.201"",""0.400"",""0.734"",""0.965""]","[1,1,1,0]",0,29,29,29,1,0,1,,,0,FALSE,2.3278,,,,,,,,,,,,,,,,,,,,,,,,,,,,,,,
,613a83dc733097c0054602df,627c698628f16fa2b9fa0fee,2022-05-11_20h58.18.027,classification_task,2021.2.3,Win32,60.0132029,627c6715c52fd12f31907bcf,,,,,,,,,,,,,,,,,,,,,,,l,1,"[""0.067"",""0.694"",""0.480"",""0.770""]","[1,0,1,1]",0,30,30,30,1,1,0,,,0,FALSE,8.8604,,,,,,,,,,,,,,,,,,,,,,,,,,,,,,,
,613a83dc733097c0054602df,627c698628f16fa2b9fa0fee,2022-05-11_20h58.18.027,classification_task,2021.2.3,Win32,60.0132029,627c6715c52fd12f31907bcf,,,,,,,,,,,,,,,,,,,,,,,a,0,"[""0.106"",""0.239"",""0.480"",""0.770""]","[0,1,1,1]",0,31,31,31,1,1,0,,,0,FALSE,2.4481,,,,,,,,,,,,,,,,,,,,,,,,,,,,,,,
,613a83dc733097c0054602df,627c698628f16fa2b9fa0fee,2022-05-11_20h58.18.027,classification_task,2021.2.3,Win32,60.0132029,627c6715c52fd12f31907bcf,,,,,,,,,,,,,,,,,,,,,,,l,1,"[""0.156"",""0.607"",""0.438"",""0.816""]","[1,0,1,1]",0,32,32,32,1,1,1,,,0,FALSE,0.8186,,,,,,,,,,,,,,,,,,,,,,,,,,,,,,,
,613a83dc733097c0054602df,627c698628f16fa2b9fa0fee,2022-05-11_20h58.18.027,classification_task,2021.2.3,Win32,60.0132029,627c6715c52fd12f31907bcf,,,,,,,,,,,,,,,,,,,,,,,a,1,"[""0.201"",""0.400"",""0.694"",""0.855""]","[1,1,0,1]",0,33,33,33,1,0,1,,,0,FALSE,0.9279,,,,,,,,,,,,,,,,,,,,,,,,,,,,,,,
,613a83dc733097c0054602df,627c698628f16fa2b9fa0fee,2022-05-11_20h58.18.027,classification_task,2021.2.3,Win32,60.0132029,627c6715c52fd12f31907bcf,,,,,,,,,,,,,,,,,,,,,,,l,0,"[""0.323"",""0.559"",""0.965"",""0.930""]","[1,1,0,1]",0,34,34,34,1,0,0,,,0,FALSE,1.201,,,,,,,,,,,,,,,,,,,,,,,,,,,,,,,
,613a83dc733097c0054602df,627c698628f16fa2b9fa0fee,2022-05-11_20h58.18.027,classification_task,2021.2.3,Win32,60.0132029,627c6715c52fd12f31907bcf,,,,,,,,,,,,,,,,,,,,,,,a,0,"[""0.067"",""0.601"",""0.480"",""0.770""]","[1,0,1,1]",0,35,35,35,1,1,0,,,0,FALSE,0.5266,,,,,,,,,,,,,,,,,,,,,,,,,,,,,,,
,613a83dc733097c0054602df,627c698628f16fa2b9fa0fee,2022-05-11_20h58.18.027,classification_task,2021.2.3,Win32,60.0132029,627c6715c52fd12f31907bcf,,,,,,,,,,,,,,,,,,,,,,,a,1,"[""0.619"",""0.559"",""0.660"",""0.930""]","[0,1,1,1]",0,36,36,36,1,0,0,,,0,FALSE,0.7721,,,,,,,,,,,,,,,,,,,,,,,,,,,,,,,
,613a83dc733097c0054602df,627c698628f16fa2b9fa0fee,2022-05-11_20h58.18.027,classification_task,2021.2.3,Win32,60.0132029,627c6715c52fd12f31907bcf,,,,,,,,,,,,,,,,,,,,,,,l,1,"[""0.107"",""0.239"",""0.480"",""0.770""]","[0,1,1,1]",0,37,37,37,1,1,0,,,0,FALSE,1.0779,,,,,,,,,,,,,,,,,,,,,,,,,,,,,,,
,613a83dc733097c0054602df,627c698628f16fa2b9fa0fee,2022-05-11_20h58.18.027,classification_task,2021.2.3,Win32,60.0132029,627c6715c52fd12f31907bcf,,,,,,,,,,,,,,,,,,,,,,,l,0,"[""0.619"",""0.400"",""0.734"",""0.855""]","[0,1,1,1]",0,38,38,38,1,0,1,,,0,FALSE,0.7854,,,,,,,,,,,,,,,,,,,,,,,,,,,,,,,
,613a83dc733097c0054602df,627c698628f16fa2b9fa0fee,2022-05-11_20h58.18.027,classification_task,2021.2.3,Win32,60.0132029,627c6715c52fd12f31907bcf,,,,,,,,,,,,,,,,,,,,,,,a,0,"[""0.067"",""0.239"",""0.480"",""0.606""]","[1,1,1,0]",0,39,39,39,1,1,0,,,0,FALSE,0.5986,,,,,,,,,,,,,,,,,,,,,,,,,,,,,,,
,613a83dc733097c0054602df,627c698628f16fa2b9fa0fee,2022-05-11_20h58.18.027,classification_task,2021.2.3,Win32,60.0132029,627c6715c52fd12f31907bcf,,,,,,,,,,,,,,,,,,,,,,,a,1,"[""0.201"",""0.400"",""0.734"",""0.612""]","[1,1,1,0]",0,40,40,40,1,0,1,,,0,FALSE,0.5903,,,,,,,,,,,,,,,,,,,,,,,,,,,,,,,
,613a83dc733097c0054602df,627c698628f16fa2b9fa0fee,2022-05-11_20h58.18.027,classification_task,2021.2.3,Win32,60.0132029,627c6715c52fd12f31907bcf,,,,,,,,,,,,,,,,,,,,,,,l,1,"[""0.156"",""0.284"",""0.107"",""0.816""]","[1,1,0,1]",0,41,41,41,1,1,1,,,0,FALSE,0.8051,,,,,,,,,,,,,,,,,,,,,,,,,,,,,,,
,613a83dc733097c0054602df,627c698628f16fa2b9fa0fee,2022-05-11_20h58.18.027,classification_task,2021.2.3,Win32,60.0132029,627c6715c52fd12f31907bcf,,,,,,,,,,,,,,,,,,,,,,,l,0,"[""0.323"",""0.612"",""0.660"",""0.930""]","[1,0,1,1]",0,42,42,42,1,0,0,,,0,FALSE,1.1632,,,,,,,,,,,,,,,,,,,,,,,,,,,,,,,
,613a83dc733097c0054602df,627c698628f16fa2b9fa0fee,2022-05-11_20h58.18.027,classification_task,2021.2.3,Win32,60.0132029,627c6715c52fd12f31907bcf,,,,,,,,,,,,,,,,,,,,,,,a,1,"[""0.323"",""0.559"",""0.660"",""0.520""]","[1,1,1,0]",0,43,43,43,1,0,0,,,0,FALSE,0.6746,,,,,,,,,,,,,,,,,,,,,,,,,,,,,,,
,613a83dc733097c0054602df,627c698628f16fa2b9fa0fee,2022-05-11_20h58.18.027,classification_task,2021.2.3,Win32,60.0132029,627c6715c52fd12f31907bcf,,,,,,,,,,,,,,,,,,,,,,,l,1,"[""0.968"",""0.284"",""0.438"",""0.816""]","[0,1,1,1]",0,44,44,44,1,1,1,,,0,FALSE,0.9122,,,,,,,,,,,,,,,,,,,,,,,,,,,,,,,
,613a83dc733097c0054602df,627c698628f16fa2b9fa0fee,2022-05-11_20h58.18.027,classification_task,2021.2.3,Win32,60.0132029,627c6715c52fd12f31907bcf,,,,,,,,,,,,,,,,,,,,,,,a,0,"[""0.156"",""0.284"",""0.438"",""0.611""]","[1,1,1,0]",0,45,45,45,1,1,1,,,0,FALSE,0.8167,,,,,,,,,,,,,,,,,,,,,,,,,,,,,,,
,613a83dc733097c0054602df,627c698628f16fa2b9fa0fee,2022-05-11_20h58.18.027,classification_task,2021.2.3,Win32,60.0132029,627c6715c52fd12f31907bcf,,,,,,,,,,,,,,,,,,,,,,,l,1,"[""0.067"",""0.239"",""0.611"",""0.770""]","[1,1,0,1]",0,46,46,46,1,1,0,,,0,FALSE,0.7229,,,,,,,,,,,,,,,,,,,,,,,,,,,,,,,
,613a83dc733097c0054602df,627c698628f16fa2b9fa0fee,2022-05-11_20h58.18.027,classification_task,2021.2.3,Win32,60.0132029,627c6715c52fd12f31907bcf,,,,,,,,,,,,,,,,,,,,,,,l,0,"[""0.201"",""0.968"",""0.734"",""0.855""]","[1,0,1,1]",0,47,47,47,1,0,1,,,0,FALSE,0.852,,,,,,,,,,,,,,,,,,,,,,,,,,,,,,,
,613a83dc733097c0054602df,627c698628f16fa2b9fa0fee,2022-05-11_20h58.18.027,classification_task,2021.2.3,Win32,60.0132029,627c6715c52fd12f31907bcf,,,,,,,,,,,,,,,,,,,,,,,a,0,"[""0.156"",""0.284"",""0.694"",""0.816""]","[1,1,0,1]",0,48,48,48,1,1,1,,,0,FALSE,0.5689,,,,,,,,,,,,,,,,,,,,,,,,,,,,,,,
,613a83dc733097c0054602df,627c698628f16fa2b9fa0fee,2022-05-11_20h58.18.027,classification_task,2021.2.3,Win32,60.0132029,627c6715c52fd12f31907bcf,,,,,,,,,,,,,,,,,,,,,,,l,1,"[""0.156"",""0.284"",""0.438"",""0.612""]","[1,1,1,0]",0,49,49,49,1,1,1,,,0,FALSE,0.3833,,,,,,,,,,,,,,,,,,,,,,,,,,,,,,,
,613a83dc733097c0054602df,627c698628f16fa2b9fa0fee,2022-05-11_20h58.18.027,classification_task,2021.2.3,Win32,60.0132029,627c6715c52fd12f31907bcf,,,,,,,,,,,,,,,,,,,,,,,l,1,"[""0.067"",""0.239"",""0.480"",""0.968""]","[1,1,1,0]",0,50,50,50,1,1,0,,,0,FALSE,0.8043,,,,,,,,,,,,,,,,,,,,,,,,,,,,,,,
,613a83dc733097c0054602df,627c698628f16fa2b9fa0fee,2022-05-11_20h58.18.027,classification_task,2021.2.3,Win32,60.0132029,627c6715c52fd12f31907bcf,,,,,,,,,,,,,,,,,,,,,,,l,1,"[""0.067"",""0.239"",""0.607"",""0.770""]","[1,1,0,1]",0,51,51,51,1,1,0,,,0,FALSE,0.5756,,,,,,,,,,,,,,,,,,,,,,,,,,,,,,,
,613a83dc733097c0054602df,627c698628f16fa2b9fa0fee,2022-05-11_20h58.18.027,classification_task,2021.2.3,Win32,60.0132029,627c6715c52fd12f31907bcf,,,,,,,,,,,,,,,,,,,,,,,l,0,"[""0.323"",""0.559"",""0.606"",""0.930""]","[1,1,0,1]",0,52,52,52,1,0,0,,,0,FALSE,0.7589,,,,,,,,,,,,,,,,,,,,,,,,,,,,,,,
,613a83dc733097c0054602df,627c698628f16fa2b9fa0fee,2022-05-11_20h58.18.027,classification_task,2021.2.3,Win32,60.0132029,627c6715c52fd12f31907bcf,,,,,,,,,,,,,,,,,,,,,,,l,0,"[""0.965"",""0.559"",""0.660"",""0.930""]","[0,1,1,1]",0,53,53,53,1,0,0,,,0,FALSE,0.6183,,,,,,,,,,,,,,,,,,,,,,,,,,,,,,,
,613a83dc733097c0054602df,627c698628f16fa2b9fa0fee,2022-05-11_20h58.18.027,classification_task,2021.2.3,Win32,60.0132029,627c6715c52fd12f31907bcf,,,,,,,,,,,,,,,,,,,,,,,a,0,"[""0.067"",""0.106"",""0.480"",""0.770""]","[1,0,1,1]",0,54,54,54,1,1,0,,,0,FALSE,0.4871,,,,,,,,,,,,,,,,,,,,,,,,,,,,,,,
,613a83dc733097c0054602df,627c698628f16fa2b9fa0fee,2022-05-11_20h58.18.027,classification_task,2021.2.3,Win32,60.0132029,627c6715c52fd12f31907bcf,,,,,,,,,,,,,,,,,,,,,,,l,0,"[""0.201"",""0.400"",""0.734"",""0.611""]","[1,1,1,0]",0,55,55,55,1,0,1,,,0,FALSE,0.6313,,,,,,,,,,,,,,,,,,,,,,,,,,,,,,,
,613a83dc733097c0054602df,627c698628f16fa2b9fa0fee,2022-05-11_20h58.18.027,classification_task,2021.2.3,Win32,60.0132029,627c6715c52fd12f31907bcf,,,,,,,,,,,,,,,,,,,,,,,l,0,"[""0.201"",""0.400"",""0.968"",""0.855""]","[1,1,0,1]",0,56,56,56,1,0,1,,,0,FALSE,1.0482,,,,,,,,,,,,,,,,,,,,,,,,,,,,,,,
,613a83dc733097c0054602df,627c698628f16fa2b9fa0fee,2022-05-11_20h58.18.027,classification_task,2021.2.3,Win32,60.0132029,627c6715c52fd12f31907bcf,,,,,,,,,,,,,,,,,,,,,,,l,0,"[""0.201"",""0.965"",""0.734"",""0.855""]","[1,0,1,1]",0,57,57,57,1,0,1,,,0,FALSE,5.8187,,,,,,,,,,,,,,,,,,,,,,,,,,,,,,,
,613a83dc733097c0054602df,627c698628f16fa2b9fa0fee,2022-05-11_20h58.18.027,classification_task,2021.2.3,Win32,60.0132029,627c6715c52fd12f31907bcf,,,,,,,,,,,,,,,,,,,,,,,l,1,"[""0.156"",""0.606"",""0.438"",""0.816""]","[1,0,1,1]",0,58,58,58,1,1,1,,,0,FALSE,0.9572,,,,,,,,,,,,,,,,,,,,,,,,,,,,,,,
,613a83dc733097c0054602df,627c698628f16fa2b9fa0fee,2022-05-11_20h58.18.027,classification_task,2021.2.3,Win32,60.0132029,627c6715c52fd12f31907bcf,,,,,,,,,,,,,,,,,,,,,,,a,0,"[""0.606"",""0.284"",""0.438"",""0.816""]","[0,1,1,1]",0,59,59,59,1,1,1,,,0,FALSE,0.8829,,,,,,,,,,,,,,,,,,,,,,,,,,,,,,,
,613a83dc733097c0054602df,627c698628f16fa2b9fa0fee,2022-05-11_20h58.18.027,classification_task,2021.2.3,Win32,60.0132029,627c6715c52fd12f31907bcf,,,,,,,,,,,,,,,,,,,,,,,l,1,"[""0.968"",""0.239"",""0.480"",""0.770""]","[0,1,1,1]",0,60,60,60,1,1,0,,,0,FALSE,0.8121,,,,,,,,,,,,,,,,,,,,,,,,,,,,,,,
,613a83dc733097c0054602df,627c698628f16fa2b9fa0fee,2022-05-11_20h58.18.027,classification_task,2021.2.3,Win32,60.0132029,627c6715c52fd12f31907bcf,,,,,,,,,,,,,,,,,,,,,,,a,1,"[""0.323"",""0.559"",""0.660"",""0.968""]","[1,1,1,0]",0,61,61,61,1,0,0,,,0,FALSE,2.4365,,,,,,,,,,,,,,,,,,,,,,,,,,,,,,,
,613a83dc733097c0054602df,627c698628f16fa2b9fa0fee,2022-05-11_20h58.18.027,classification_task,2021.2.3,Win32,60.0132029,627c6715c52fd12f31907bcf,,,,,,,,,,,,,,,,,,,,,,,a,1,"[""0.323"",""0.601"",""0.660"",""0.930""]","[1,0,1,1]",0,62,62,62,1,0,0,,,0,FALSE,1.2431,,,,,,,,,,,,,,,,,,,,,,,,,,,,,,,
,613a83dc733097c0054602df,627c698628f16fa2b9fa0fee,2022-05-11_20h58.18.027,classification_task,2021.2.3,Win32,60.0132029,627c6715c52fd12f31907bcf,,,,,,,,,,,,,,,,,,,,,,,a,1,"[""0.611"",""0.400"",""0.734"",""0.855""]","[0,1,1,1]",0,63,63,63,1,0,1,,,0,FALSE,1.2217,,,,,,,,,,,,,,,,,,,,,,,,,,,,,,,
,613a83dc733097c0054602df,627c698628f16fa2b9fa0fee,2022-05-11_20h58.18.027,classification_task,2021.2.3,Win32,60.0132029,627c6715c52fd12f31907bcf,,,,,,,,,,,,,,,,,,,,,,,,,,,,,,,,,,,,,,,0, ,,0,2.619047619,382.8228,0,0,0,0,1,2,1,,,,,,,,,,,,,,,,,,
,613a83dc733097c0054602df,627c698628f16fa2b9fa0fee,2022-05-11_20h58.18.027,classification_task,2021.2.3,Win32,60.0132029,627c6715c52fd12f31907bcf,,,,,,,,,,,,,,,,,,,,,,,,,,,,,,,,,,,,,,,1,  ,,0,7.087007643,390.1852,0,0,0,0,1,2,1,,,,,,,,,,,,,,,,,,
,613a83dc733097c0054602df,627c698628f16fa2b9fa0fee,2022-05-11_20h58.18.027,classification_task,2021.2.3,Win32,60.0132029,627c6715c52fd12f31907bcf,,,,,,,,,,,,,,,,,,,,,,,,,,,,,,,,,,,,,,,2,  ,,0,0,401.7425,0,0,0,0,1,2,1,,,,,,,,,,,,,,,,,,
,613a83dc733097c0054602df,627c698628f16fa2b9fa0fee,2022-05-11_20h58.18.027,classification_task,2021.2.3,Win32,60.0132029,627c6715c52fd12f31907bcf,,,,,,,,,,,,,,,,,,,,,,,,,,,,,,,,,,,,,,,,,,,,,0,0,0,0,1,,1,,,,,,,,,,,,,,,,,,
,613a83dc733097c0054602df,627c698628f16fa2b9fa0fee,2022-05-11_20h58.18.027,classification_task,2021.2.3,Win32,60.0132029,627c6715c52fd12f31907bcf,,,,,,,,,,,,,,,,,,,,,space,14.3208,l,1,"[""0.156"",""0.284"",""0.606"",""0.816""]","[1,1,0,1]",0,0,0,0,1,1,1,,,0,FALSE,2.8206,,,,,,,,,,,,,,,,,,,,,,,,,,,,,,,
,613a83dc733097c0054602df,627c698628f16fa2b9fa0fee,2022-05-11_20h58.18.027,classification_task,2021.2.3,Win32,60.0132029,627c6715c52fd12f31907bcf,,,,,,,,,,,,,,,,,,,,,,,a,1,"[""0.201"",""0.400"",""0.734"",""0.612""]","[1,1,1,0]",0,1,1,1,1,0,1,,,0,FALSE,1.166,,,,,,,,,,,,,,,,,,,,,,,,,,,,,,,
,613a83dc733097c0054602df,627c698628f16fa2b9fa0fee,2022-05-11_20h58.18.027,classification_task,2021.2.3,Win32,60.0132029,627c6715c52fd12f31907bcf,,,,,,,,,,,,,,,,,,,,,,,l,1,"[""0.067"",""0.239"",""0.480"",""0.606""]","[1,1,1,0]",0,2,2,2,1,1,0,,,0,FALSE,1.5203,,,,,,,,,,,,,,,,,,,,,,,,,,,,,,,
,613a83dc733097c0054602df,627c698628f16fa2b9fa0fee,2022-05-11_20h58.18.027,classification_task,2021.2.3,Win32,60.0132029,627c6715c52fd12f31907bcf,,,,,,,,,,,,,,,,,,,,,,,a,1,"[""0.323"",""0.559"",""0.694"",""0.930""]","[1,1,0,1]",0,3,3,3,1,0,0,,,0,FALSE,0.8629,,,,,,,,,,,,,,,,,,,,,,,,,,,,,,,
,613a83dc733097c0054602df,627c698628f16fa2b9fa0fee,2022-05-11_20h58.18.027,classification_task,2021.2.3,Win32,60.0132029,627c6715c52fd12f31907bcf,,,,,,,,,,,,,,,,,,,,,,,a,1,"[""0.520"",""0.559"",""0.660"",""0.930""]","[0,1,1,1]",0,4,4,4,1,0,0,,,0,FALSE,0.771,,,,,,,,,,,,,,,,,,,,,,,,,,,,,,,
,613a83dc733097c0054602df,627c698628f16fa2b9fa0fee,2022-05-11_20h58.18.027,classification_task,2021.2.3,Win32,60.0132029,627c6715c52fd12f31907bcf,,,,,,,,,,,,,,,,,,,,,,,l,1,"[""0.156"",""0.107"",""0.438"",""0.816""]","[1,0,1,1]",0,5,5,5,1,1,1,,,0,FALSE,1.5105,,,,,,,,,,,,,,,,,,,,,,,,,,,,,,,
,613a83dc733097c0054602df,627c698628f16fa2b9fa0fee,2022-05-11_20h58.18.027,classification_task,2021.2.3,Win32,60.0132029,627c6715c52fd12f31907bcf,,,,,,,,,,,,,,,,,,,,,,,a,1,"[""0.323"",""0.612"",""0.660"",""0.930""]","[1,0,1,1]",0,6,6,6,1,0,0,,,0,FALSE,0.836,,,,,,,,,,,,,,,,,,,,,,,,,,,,,,,
,613a83dc733097c0054602df,627c698628f16fa2b9fa0fee,2022-05-11_20h58.18.027,classification_task,2021.2.3,Win32,60.0132029,627c6715c52fd12f31907bcf,,,,,,,,,,,,,,,,,,,,,,,l,1,"[""0.067"",""0.239"",""0.612"",""0.770""]","[1,1,0,1]",0,7,7,7,1,1,0,,,0,FALSE,0.6721,,,,,,,,,,,,,,,,,,,,,,,,,,,,,,,
,613a83dc733097c0054602df,627c698628f16fa2b9fa0fee,2022-05-11_20h58.18.027,classification_task,2021.2.3,Win32,60.0132029,627c6715c52fd12f31907bcf,,,,,,,,,,,,,,,,,,,,,,,a,0,"[""0.156"",""0.284"",""0.438"",""0.606""]","[1,1,1,0]",0,8,8,8,1,1,1,,,0,FALSE,0.8404,,,,,,,,,,,,,,,,,,,,,,,,,,,,,,,
,613a83dc733097c0054602df,627c698628f16fa2b9fa0fee,2022-05-11_20h58.18.027,classification_task,2021.2.3,Win32,60.0132029,627c6715c52fd12f31907bcf,,,,,,,,,,,,,,,,,,,,,,,l,0,"[""0.201"",""0.700"",""0.734"",""0.855""]","[1,0,1,1]",0,9,9,9,1,0,1,,,0,FALSE,0.8044,,,,,,,,,,,,,,,,,,,,,,,,,,,,,,,
,613a83dc733097c0054602df,627c698628f16fa2b9fa0fee,2022-05-11_20h58.18.027,classification_task,2021.2.3,Win32,60.0132029,627c6715c52fd12f31907bcf,,,,,,,,,,,,,,,,,,,,,,,l,0,"[""0.700"",""0.400"",""0.734"",""0.855""]","[0,1,1,1]",0,10,10,10,1,0,1,,,0,FALSE,0.6478,,,,,,,,,,,,,,,,,,,,,,,,,,,,,,,
,613a83dc733097c0054602df,627c698628f16fa2b9fa0fee,2022-05-11_20h58.18.027,classification_task,2021.2.3,Win32,60.0132029,627c6715c52fd12f31907bcf,,,,,,,,,,,,,,,,,,,,,,,l,1,"[""0.067"",""0.619"",""0.480"",""0.770""]","[1,0,1,1]",0,11,11,11,1,1,0,,,0,FALSE,0.5722,,,,,,,,,,,,,,,,,,,,,,,,,,,,,,,
,613a83dc733097c0054602df,627c698628f16fa2b9fa0fee,2022-05-11_20h58.18.027,classification_task,2021.2.3,Win32,60.0132029,627c6715c52fd12f31907bcf,,,,,,,,,,,,,,,,,,,,,,,a,1,"[""0.201"",""0.400"",""0.965"",""0.855""]","[1,1,0,1]",0,12,12,12,1,0,1,,,0,FALSE,0.8201,,,,,,,,,,,,,,,,,,,,,,,,,,,,,,,
,613a83dc733097c0054602df,627c698628f16fa2b9fa0fee,2022-05-11_20h58.18.027,classification_task,2021.2.3,Win32,60.0132029,627c6715c52fd12f31907bcf,,,,,,,,,,,,,,,,,,,,,,,l,1,"[""0.107"",""0.239"",""0.480"",""0.770""]","[0,1,1,1]",0,13,13,13,1,1,0,,,0,FALSE,1.1477,,,,,,,,,,,,,,,,,,,,,,,,,,,,,,,
,613a83dc733097c0054602df,627c698628f16fa2b9fa0fee,2022-05-11_20h58.18.027,classification_task,2021.2.3,Win32,60.0132029,627c6715c52fd12f31907bcf,,,,,,,,,,,,,,,,,,,,,,,a,1,"[""0.323"",""0.559"",""0.660"",""0.600""]","[1,1,1,0]",0,14,14,14,1,0,0,,,0,FALSE,0.6622,,,,,,,,,,,,,,,,,,,,,,,,,,,,,,,
,613a83dc733097c0054602df,627c698628f16fa2b9fa0fee,2022-05-11_20h58.18.027,classification_task,2021.2.3,Win32,60.0132029,627c6715c52fd12f31907bcf,,,,,,,,,,,,,,,,,,,,,,,a,0,"[""0.968"",""0.284"",""0.438"",""0.816""]","[0,1,1,1]",0,15,15,15,1,1,1,,,0,FALSE,1.4374,,,,,,,,,,,,,,,,,,,,,,,,,,,,,,,
,613a83dc733097c0054602df,627c698628f16fa2b9fa0fee,2022-05-11_20h58.18.027,classification_task,2021.2.3,Win32,60.0132029,627c6715c52fd12f31907bcf,,,,,,,,,,,,,,,,,,,,,,,l,0,"[""0.201"",""0.400"",""0.520"",""0.855""]","[1,1,0,1]",0,16,16,16,1,0,1,,,0,FALSE,0.7384,,,,,,,,,,,,,,,,,,,,,,,,,,,,,,,
,613a83dc733097c0054602df,627c698628f16fa2b9fa0fee,2022-05-11_20h58.18.027,classification_task,2021.2.3,Win32,60.0132029,627c6715c52fd12f31907bcf,,,,,,,,,,,,,,,,,,,,,,,a,1,"[""0.694"",""0.400"",""0.734"",""0.855""]","[0,1,1,1]",0,17,17,17,1,0,1,,,0,FALSE,0.8231,,,,,,,,,,,,,,,,,,,,,,,,,,,,,,,
,613a83dc733097c0054602df,627c698628f16fa2b9fa0fee,2022-05-11_20h58.18.027,classification_task,2021.2.3,Win32,60.0132029,627c6715c52fd12f31907bcf,,,,,,,,,,,,,,,,,,,,,,,a,1,"[""0.323"",""0.559"",""0.965"",""0.930""]","[1,1,0,1]",0,18,18,18,1,0,0,,,0,FALSE,0.6747,,,,,,,,,,,,,,,,,,,,,,,,,,,,,,,
,613a83dc733097c0054602df,627c698628f16fa2b9fa0fee,2022-05-11_20h58.18.027,classification_task,2021.2.3,Win32,60.0132029,627c6715c52fd12f31907bcf,,,,,,,,,,,,,,,,,,,,,,,a,1,"[""0.965"",""0.559"",""0.660"",""0.930""]","[0,1,1,1]",0,19,19,19,1,0,0,,,0,FALSE,0.6125,,,,,,,,,,,,,,,,,,,,,,,,,,,,,,,
,613a83dc733097c0054602df,627c698628f16fa2b9fa0fee,2022-05-11_20h58.18.027,classification_task,2021.2.3,Win32,60.0132029,627c6715c52fd12f31907bcf,,,,,,,,,,,,,,,,,,,,,,,a,1,"[""0.323"",""0.559"",""0.660"",""0.968""]","[1,1,1,0]",0,20,20,20,1,0,0,,,0,FALSE,0.5695,,,,,,,,,,,,,,,,,,,,,,,,,,,,,,,
,613a83dc733097c0054602df,627c698628f16fa2b9fa0fee,2022-05-11_20h58.18.027,classification_task,2021.2.3,Win32,60.0132029,627c6715c52fd12f31907bcf,,,,,,,,,,,,,,,,,,,,,,,l,0,"[""0.201"",""0.611"",""0.734"",""0.855""]","[1,0,1,1]",0,21,21,21,1,0,1,,,0,FALSE,0.6472,,,,,,,,,,,,,,,,,,,,,,,,,,,,,,,
,613a83dc733097c0054602df,627c698628f16fa2b9fa0fee,2022-05-11_20h58.18.027,classification_task,2021.2.3,Win32,60.0132029,627c6715c52fd12f31907bcf,,,,,,,,,,,,,,,,,,,,,,,l,1,"[""0.965"",""0.239"",""0.480"",""0.770""]","[0,1,1,1]",0,22,22,22,1,1,0,,,0,FALSE,0.8283,,,,,,,,,,,,,,,,,,,,,,,,,,,,,,,
,613a83dc733097c0054602df,627c698628f16fa2b9fa0fee,2022-05-11_20h58.18.027,classification_task,2021.2.3,Win32,60.0132029,627c6715c52fd12f31907bcf,,,,,,,,,,,,,,,,,,,,,,,a,0,"[""0.156"",""0.284"",""0.601"",""0.816""]","[1,1,0,1]",0,23,23,23,1,1,1,,,0,FALSE,0.6914,,,,,,,,,,,,,,,,,,,,,,,,,,,,,,,
,613a83dc733097c0054602df,627c698628f16fa2b9fa0fee,2022-05-11_20h58.18.027,classification_task,2021.2.3,Win32,60.0132029,627c6715c52fd12f31907bcf,,,,,,,,,,,,,,,,,,,,,,,a,0,"[""0.156"",""0.284"",""0.438"",""0.694""]","[1,1,1,0]",0,24,24,24,1,1,1,,,0,FALSE,1.2991,,,,,,,,,,,,,,,,,,,,,,,,,,,,,,,
,613a83dc733097c0054602df,627c698628f16fa2b9fa0fee,2022-05-11_20h58.18.027,classification_task,2021.2.3,Win32,60.0132029,627c6715c52fd12f31907bcf,,,,,,,,,,,,,,,,,,,,,,,a,1,"[""0.323"",""0.601"",""0.660"",""0.930""]","[1,0,1,1]",0,25,25,25,1,0,0,,,0,FALSE,0.6908,,,,,,,,,,,,,,,,,,,,,,,,,,,,,,,
,613a83dc733097c0054602df,627c698628f16fa2b9fa0fee,2022-05-11_20h58.18.027,classification_task,2021.2.3,Win32,60.0132029,627c6715c52fd12f31907bcf,,,,,,,,,,,,,,,,,,,,,,,l,0,"[""0.201"",""0.400"",""0.734"",""0.607""]","[1,1,1,0]",0,26,26,26,1,0,1,,,0,FALSE,0.7347,,,,,,,,,,,,,,,,,,,,,,,,,,,,,,,
,613a83dc733097c0054602df,627c698628f16fa2b9fa0fee,2022-05-11_20h58.18.027,classification_task,2021.2.3,Win32,60.0132029,627c6715c52fd12f31907bcf,,,,,,,,,,,,,,,,,,,,,,,a,0,"[""0.601"",""0.284"",""0.438"",""0.816""]","[0,1,1,1]",0,27,27,27,1,1,1,,,0,FALSE,1.1903,,,,,,,,,,,,,,,,,,,,,,,,,,,,,,,
,613a83dc733097c0054602df,627c698628f16fa2b9fa0fee,2022-05-11_20h58.18.027,classification_task,2021.2.3,Win32,60.0132029,627c6715c52fd12f31907bcf,,,,,,,,,,,,,,,,,,,,,,,l,1,"[""0.067"",""0.106"",""0.480"",""0.770""]","[1,0,1,1]",0,28,28,28,1,1,0,,,0,FALSE,0.705,,,,,,,,,,,,,,,,,,,,,,,,,,,,,,,
,613a83dc733097c0054602df,627c698628f16fa2b9fa0fee,2022-05-11_20h58.18.027,classification_task,2021.2.3,Win32,60.0132029,627c6715c52fd12f31907bcf,,,,,,,,,,,,,,,,,,,,,,,l,1,"[""0.067"",""0.239"",""0.968"",""0.770""]","[1,1,0,1]",0,29,29,29,1,1,0,,,0,FALSE,0.6255,,,,,,,,,,,,,,,,,,,,,,,,,,,,,,,
,613a83dc733097c0054602df,627c698628f16fa2b9fa0fee,2022-05-11_20h58.18.027,classification_task,2021.2.3,Win32,60.0132029,627c6715c52fd12f31907bcf,,,,,,,,,,,,,,,,,,,,,,,a,0,"[""0.156"",""0.520"",""0.438"",""0.816""]","[1,0,1,1]",0,30,30,30,1,1,1,,,0,FALSE,1.0299,,,,,,,,,,,,,,,,,,,,,,,,,,,,,,,
,613a83dc733097c0054602df,627c698628f16fa2b9fa0fee,2022-05-11_20h58.18.027,classification_task,2021.2.3,Win32,60.0132029,627c6715c52fd12f31907bcf,,,,,,,,,,,,,,,,,,,,,,,l,1,"[""0.067"",""0.239"",""0.480"",""0.968""]","[1,1,1,0]",0,31,31,31,1,1,0,,,0,FALSE,0.6907,,,,,,,,,,,,,,,,,,,,,,,,,,,,,,,
,613a83dc733097c0054602df,627c698628f16fa2b9fa0fee,2022-05-11_20h58.18.027,classification_task,2021.2.3,Win32,60.0132029,627c6715c52fd12f31907bcf,,,,,,,,,,,,,,,,,,,,,,,a,1,"[""0.323"",""0.559"",""0.614"",""0.930""]","[1,1,0,1]",0,32,32,32,1,0,0,,,0,FALSE,0.6669,,,,,,,,,,,,,,,,,,,,,,,,,,,,,,,
,613a83dc733097c0054602df,627c698628f16fa2b9fa0fee,2022-05-11_20h58.18.027,classification_task,2021.2.3,Win32,60.0132029,627c6715c52fd12f31907bcf,,,,,,,,,,,,,,,,,,,,,,,l,0,"[""0.201"",""0.400"",""0.107"",""0.855""]","[1,1,0,1]",0,33,33,33,1,0,1,,,0,FALSE,0.8418,,,,,,,,,,,,,,,,,,,,,,,,,,,,,,,
,613a83dc733097c0054602df,627c698628f16fa2b9fa0fee,2022-05-11_20h58.18.027,classification_task,2021.2.3,Win32,60.0132029,627c6715c52fd12f31907bcf,,,,,,,,,,,,,,,,,,,,,,,l,1,"[""0.156"",""0.284"",""0.438"",""0.968""]","[1,1,1,0]",0,34,34,34,1,1,1,,,0,FALSE,0.8467,,,,,,,,,,,,,,,,,,,,,,,,,,,,,,,
,613a83dc733097c0054602df,627c698628f16fa2b9fa0fee,2022-05-11_20h58.18.027,classification_task,2021.2.3,Win32,60.0132029,627c6715c52fd12f31907bcf,,,,,,,,,,,,,,,,,,,,,,,l,0,"[""0.201"",""0.968"",""0.734"",""0.855""]","[1,0,1,1]",0,35,35,35,1,0,1,,,0,FALSE,0.7896,,,,,,,,,,,,,,,,,,,,,,,,,,,,,,,
,613a83dc733097c0054602df,627c698628f16fa2b9fa0fee,2022-05-11_20h58.18.027,classification_task,2021.2.3,Win32,60.0132029,627c6715c52fd12f31907bcf,,,,,,,,,,,,,,,,,,,,,,,a,1,"[""0.323"",""0.559"",""0.660"",""0.614""]","[1,1,1,0]",0,36,36,36,1,0,0,,,0,FALSE,0.6161,,,,,,,,,,,,,,,,,,,,,,,,,,,,,,,
,613a83dc733097c0054602df,627c698628f16fa2b9fa0fee,2022-05-11_20h58.18.027,classification_task,2021.2.3,Win32,60.0132029,627c6715c52fd12f31907bcf,,,,,,,,,,,,,,,,,,,,,,,l,1,"[""0.606"",""0.239"",""0.480"",""0.770""]","[0,1,1,1]",0,37,37,37,1,1,0,,,0,FALSE,0.6954,,,,,,,,,,,,,,,,,,,,,,,,,,,,,,,
,613a83dc733097c0054602df,627c698628f16fa2b9fa0fee,2022-05-11_20h58.18.027,classification_task,2021.2.3,Win32,60.0132029,627c6715c52fd12f31907bcf,,,,,,,,,,,,,,,,,,,,,,,a,1,"[""0.700"",""0.559"",""0.660"",""0.930""]","[0,1,1,1]",0,38,38,38,1,0,0,,,0,FALSE,0.6263,,,,,,,,,,,,,,,,,,,,,,,,,,,,,,,
,613a83dc733097c0054602df,627c698628f16fa2b9fa0fee,2022-05-11_20h58.18.027,classification_task,2021.2.3,Win32,60.0132029,627c6715c52fd12f31907bcf,,,,,,,,,,,,,,,,,,,,,,,l,1,"[""0.067"",""0.239"",""0.480"",""0.600""]","[1,1,1,0]",0,39,39,39,1,1,0,,,0,FALSE,0.635,,,,,,,,,,,,,,,,,,,,,,,,,,,,,,,
,613a83dc733097c0054602df,627c698628f16fa2b9fa0fee,2022-05-11_20h58.18.027,classification_task,2021.2.3,Win32,60.0132029,627c6715c52fd12f31907bcf,,,,,,,,,,,,,,,,,,,,,,,a,1,"[""0.201"",""0.400"",""0.734"",""0.614""]","[1,1,1,0]",0,40,40,40,1,0,1,,,0,FALSE,1.6751,,,,,,,,,,,,,,,,,,,,,,,,,,,,,,,
,613a83dc733097c0054602df,627c698628f16fa2b9fa0fee,2022-05-11_20h58.18.027,classification_task,2021.2.3,Win32,60.0132029,627c6715c52fd12f31907bcf,,,,,,,,,,,,,,,,,,,,,,,a,0,"[""0.520"",""0.284"",""0.438"",""0.816""]","[0,1,1,1]",0,41,41,41,1,1,1,,,0,FALSE,1.2485,,,,,,,,,,,,,,,,,,,,,,,,,,,,,,,
,613a83dc733097c0054602df,627c698628f16fa2b9fa0fee,2022-05-11_20h58.18.027,classification_task,2021.2.3,Win32,60.0132029,627c6715c52fd12f31907bcf,,,,,,,,,,,,,,,,,,,,,,,l,1,"[""0.156"",""0.601"",""0.438"",""0.816""]","[1,0,1,1]",0,42,42,42,1,1,1,,,0,FALSE,0.965,,,,,,,,,,,,,,,,,,,,,,,,,,,,,,,
,613a83dc733097c0054602df,627c698628f16fa2b9fa0fee,2022-05-11_20h58.18.027,classification_task,2021.2.3,Win32,60.0132029,627c6715c52fd12f31907bcf,,,,,,,,,,,,,,,,,,,,,,,l,1,"[""0.067"",""0.606"",""0.480"",""0.770""]","[1,0,1,1]",0,43,43,43,1,1,0,,,0,FALSE,0.7331,,,,,,,,,,,,,,,,,,,,,,,,,,,,,,,
,613a83dc733097c0054602df,627c698628f16fa2b9fa0fee,2022-05-11_20h58.18.027,classification_task,2021.2.3,Win32,60.0132029,627c6715c52fd12f31907bcf,,,,,,,,,,,,,,,,,,,,,,,a,1,"[""0.611"",""0.400"",""0.734"",""0.855""]","[0,1,1,1]",0,44,44,44,1,0,1,,,0,FALSE,0.9413,,,,,,,,,,,,,,,,,,,,,,,,,,,,,,,
,613a83dc733097c0054602df,627c698628f16fa2b9fa0fee,2022-05-11_20h58.18.027,classification_task,2021.2.3,Win32,60.0132029,627c6715c52fd12f31907bcf,,,,,,,,,,,,,,,,,,,,,,,l,1,"[""0.067"",""0.239"",""0.607"",""0.770""]","[1,1,0,1]",0,45,45,45,1,1,0,,,0,FALSE,0.6937,,,,,,,,,,,,,,,,,,,,,,,,,,,,,,,
,613a83dc733097c0054602df,627c698628f16fa2b9fa0fee,2022-05-11_20h58.18.027,classification_task,2021.2.3,Win32,60.0132029,627c6715c52fd12f31907bcf,,,,,,,,,,,,,,,,,,,,,,,a,1,"[""0.323"",""0.106"",""0.660"",""0.930""]","[1,0,1,1]",0,46,46,46,1,0,0,,,0,FALSE,0.6934,,,,,,,,,,,,,,,,,,,,,,,,,,,,,,,
,613a83dc733097c0054602df,627c698628f16fa2b9fa0fee,2022-05-11_20h58.18.027,classification_task,2021.2.3,Win32,60.0132029,627c6715c52fd12f31907bcf,,,,,,,,,,,,,,,,,,,,,,,l,1,"[""0.156"",""0.284"",""0.965"",""0.816""]","[1,1,0,1]",0,47,47,47,1,1,1,,,0,FALSE,2.0145,,,,,,,,,,,,,,,,,,,,,,,,,,,,,,,
,613a83dc733097c0054602df,627c698628f16fa2b9fa0fee,2022-05-11_20h58.18.027,classification_task,2021.2.3,Win32,60.0132029,627c6715c52fd12f31907bcf,,,,,,,,,,,,,,,,,,,,,,,a,1,"[""0.323"",""0.559"",""0.968"",""0.930""]","[1,1,0,1]",0,48,48,48,1,0,0,,,0,FALSE,0.6873,,,,,,,,,,,,,,,,,,,,,,,,,,,,,,,
,613a83dc733097c0054602df,627c698628f16fa2b9fa0fee,2022-05-11_20h58.18.027,classification_task,2021.2.3,Win32,60.0132029,627c6715c52fd12f31907bcf,,,,,,,,,,,,,,,,,,,,,,,a,1,"[""0.323"",""0.601"",""0.660"",""0.930""]","[1,0,1,1]",0,49,49,49,1,0,0,,,0,FALSE,0.6393,,,,,,,,,,,,,,,,,,,,,,,,,,,,,,,
,613a83dc733097c0054602df,627c698628f16fa2b9fa0fee,2022-05-11_20h58.18.027,classification_task,2021.2.3,Win32,60.0132029,627c6715c52fd12f31907bcf,,,,,,,,,,,,,,,,,,,,,,,l,1,"[""0.156"",""0.106"",""0.438"",""0.816""]","[1,0,1,1]",0,50,50,50,1,1,1,,,0,FALSE,0.6665,,,,,,,,,,,,,,,,,,,,,,,,,,,,,,,
,613a83dc733097c0054602df,627c698628f16fa2b9fa0fee,2022-05-11_20h58.18.027,classification_task,2021.2.3,Win32,60.0132029,627c6715c52fd12f31907bcf,,,,,,,,,,,,,,,,,,,,,,,l,1,"[""0.156"",""0.284"",""0.606"",""0.816""]","[1,1,0,1]",0,51,51,51,1,1,1,,,0,FALSE,0.6153,,,,,,,,,,,,,,,,,,,,,,,,,,,,,,,
,613a83dc733097c0054602df,627c698628f16fa2b9fa0fee,2022-05-11_20h58.18.027,classification_task,2021.2.3,Win32,60.0132029,627c6715c52fd12f31907bcf,,,,,,,,,,,,,,,,,,,,,,,l,1,"[""0.067"",""0.520"",""0.480"",""0.770""]","[1,0,1,1]",0,52,52,52,1,1,0,,,0,FALSE,0.7809,,,,,,,,,,,,,,,,,,,,,,,,,,,,,,,
,613a83dc733097c0054602df,627c698628f16fa2b9fa0fee,2022-05-11_20h58.18.027,classification_task,2021.2.3,Win32,60.0132029,627c6715c52fd12f31907bcf,,,,,,,,,,,,,,,,,,,,,,,a,1,"[""0.323"",""0.559"",""0.660"",""0.107""]","[1,1,1,0]",0,53,53,53,1,0,0,,,0,FALSE,0.8062,,,,,,,,,,,,,,,,,,,,,,,,,,,,,,,
,613a83dc733097c0054602df,627c698628f16fa2b9fa0fee,2022-05-11_20h58.18.027,classification_task,2021.2.3,Win32,60.0132029,627c6715c52fd12f31907bcf,,,,,,,,,,,,,,,,,,,,,,,l,1,"[""0.067"",""0.239"",""0.480"",""0.612""]","[1,1,1,0]",0,54,54,54,1,1,0,,,0,FALSE,0.7403,,,,,,,,,,,,,,,,,,,,,,,,,,,,,,,
,613a83dc733097c0054602df,627c698628f16fa2b9fa0fee,2022-05-11_20h58.18.027,classification_task,2021.2.3,Win32,60.0132029,627c6715c52fd12f31907bcf,,,,,,,,,,,,,,,,,,,,,,,l,0,"[""0.201"",""0.400"",""0.968"",""0.855""]","[1,1,0,1]",0,55,55,55,1,0,1,,,0,FALSE,0.9079,,,,,,,,,,,,,,,,,,,,,,,,,,,,,,,
,613a83dc733097c0054602df,627c698628f16fa2b9fa0fee,2022-05-11_20h58.18.027,classification_task,2021.2.3,Win32,60.0132029,627c6715c52fd12f31907bcf,,,,,,,,,,,,,,,,,,,,,,,l,0,"[""0.201"",""0.400"",""0.734"",""0.614""]","[1,1,1,0]",0,56,56,56,1,0,1,,,0,FALSE,0.6008,,,,,,,,,,,,,,,,,,,,,,,,,,,,,,,
,613a83dc733097c0054602df,627c698628f16fa2b9fa0fee,2022-05-11_20h58.18.027,classification_task,2021.2.3,Win32,60.0132029,627c6715c52fd12f31907bcf,,,,,,,,,,,,,,,,,,,,,,,a,1,"[""0.107"",""0.559"",""0.660"",""0.930""]","[0,1,1,1]",0,57,57,57,1,0,0,,,0,FALSE,0.4728,,,,,,,,,,,,,,,,,,,,,,,,,,,,,,,
,613a83dc733097c0054602df,627c698628f16fa2b9fa0fee,2022-05-11_20h58.18.027,classification_task,2021.2.3,Win32,60.0132029,627c6715c52fd12f31907bcf,,,,,,,,,,,,,,,,,,,,,,,l,0,"[""0.201"",""0.968"",""0.734"",""0.855""]","[1,0,1,1]",0,58,58,58,1,0,1,,,0,FALSE,1.1282,,,,,,,,,,,,,,,,,,,,,,,,,,,,,,,
,613a83dc733097c0054602df,627c698628f16fa2b9fa0fee,2022-05-11_20h58.18.027,classification_task,2021.2.3,Win32,60.0132029,627c6715c52fd12f31907bcf,,,,,,,,,,,,,,,,,,,,,,,a,0,"[""0.156"",""0.284"",""0.438"",""0.106""]","[1,1,1,0]",0,59,59,59,1,1,1,,,0,FALSE,0.7758,,,,,,,,,,,,,,,,,,,,,,,,,,,,,,,
,613a83dc733097c0054602df,627c698628f16fa2b9fa0fee,2022-05-11_20h58.18.027,classification_task,2021.2.3,Win32,60.0132029,627c6715c52fd12f31907bcf,,,,,,,,,,,,,,,,,,,,,,,a,1,"[""0.606"",""0.400"",""0.734"",""0.855""]","[0,1,1,1]",0,60,60,60,1,0,1,,,0,FALSE,0.8443,,,,,,,,,,,,,,,,,,,,,,,,,,,,,,,
,613a83dc733097c0054602df,627c698628f16fa2b9fa0fee,2022-05-11_20h58.18.027,classification_task,2021.2.3,Win32,60.0132029,627c6715c52fd12f31907bcf,,,,,,,,,,,,,,,,,,,,,,,l,1,"[""0.067"",""0.239"",""0.520"",""0.770""]","[1,1,0,1]",0,61,61,61,1,1,0,,,0,FALSE,0.773,,,,,,,,,,,,,,,,,,,,,,,,,,,,,,,
,613a83dc733097c0054602df,627c698628f16fa2b9fa0fee,2022-05-11_20h58.18.027,classification_task,2021.2.3,Win32,60.0132029,627c6715c52fd12f31907bcf,,,,,,,,,,,,,,,,,,,,,,,a,0,"[""0.520"",""0.284"",""0.438"",""0.816""]","[0,1,1,1]",0,62,62,62,1,1,1,,,0,FALSE,0.7129,,,,,,,,,,,,,,,,,,,,,,,,,,,,,,,
,613a83dc733097c0054602df,627c698628f16fa2b9fa0fee,2022-05-11_20h58.18.027,classification_task,2021.2.3,Win32,60.0132029,627c6715c52fd12f31907bcf,,,,,,,,,,,,,,,,,,,,,,,l,1,"[""0.107"",""0.239"",""0.480"",""0.770""]","[0,1,1,1]",0,63,63,63,1,1,0,,,0,FALSE,0.9052,,,,,,,,,,,,,,,,,,,,,,,,,,,,,,,
,613a83dc733097c0054602df,627c698628f16fa2b9fa0fee,2022-05-11_20h58.18.027,classification_task,2021.2.3,Win32,60.0132029,627c6715c52fd12f31907bcf,,,,,,,,,,,,,,,,,,,,,,,,,,,,,,,,,,,,,,,0, ,,0,,,0,1,1,1,1,2,2,,,,,,,,,,,,,,,,,,
,613a83dc733097c0054602df,627c698628f16fa2b9fa0fee,2022-05-11_20h58.18.027,classification_task,2021.2.3,Win32,60.0132029,627c6715c52fd12f31907bcf,,,,,,,,,,,,,,,,,,,,,,,,,,,,,,,,,,,,,,,1,  ,,0,,,0,1,1,1,1,2,2,,,,,,,,,,,,,,,,,,
,613a83dc733097c0054602df,627c698628f16fa2b9fa0fee,2022-05-11_20h58.18.027,classification_task,2021.2.3,Win32,60.0132029,627c6715c52fd12f31907bcf,,,,,,,,,,,,,,,,,,,,,,,,,,,,,,,,,,,,,,,2,  ,,0,,,0,1,1,1,1,2,2,,,,,,,,,,,,,,,,,,
,613a83dc733097c0054602df,627c698628f16fa2b9fa0fee,2022-05-11_20h58.18.027,classification_task,2021.2.3,Win32,60.0132029,627c6715c52fd12f31907bcf,,,,,,,,,,,,,,,,,,,,,,,,,,,,,,,,,,,,,,,,,,,,,0,1,1,1,1,,2,,,,,,,,,,,,,,,,,,
,613a83dc733097c0054602df,627c698628f16fa2b9fa0fee,2022-05-11_20h58.18.027,classification_task,2021.2.3,Win32,60.0132029,627c6715c52fd12f31907bcf,,,,,,,,,,,,,,,,,,,,,space,6.209,l,1,"[""0.067"",""0.107"",""0.480"",""0.770""]","[1,0,1,1]",0,0,0,0,1,1,0,,,0,FALSE,1.4523,,,,,,,,,,,,,,,,,,,,,,,,,,,,,,,
,613a83dc733097c0054602df,627c698628f16fa2b9fa0fee,2022-05-11_20h58.18.027,classification_task,2021.2.3,Win32,60.0132029,627c6715c52fd12f31907bcf,,,,,,,,,,,,,,,,,,,,,,,a,1,"[""0.323"",""0.559"",""0.606"",""0.930""]","[1,1,0,1]",0,1,1,1,1,0,0,,,0,FALSE,1.1793,,,,,,,,,,,,,,,,,,,,,,,,,,,,,,,
,613a83dc733097c0054602df,627c698628f16fa2b9fa0fee,2022-05-11_20h58.18.027,classification_task,2021.2.3,Win32,60.0132029,627c6715c52fd12f31907bcf,,,,,,,,,,,,,,,,,,,,,,,a,0,"[""0.156"",""0.284"",""0.438"",""0.607""]","[1,1,1,0]",0,2,2,2,1,1,1,,,0,FALSE,1.1849,,,,,,,,,,,,,,,,,,,,,,,,,,,,,,,
,613a83dc733097c0054602df,627c698628f16fa2b9fa0fee,2022-05-11_20h58.18.027,classification_task,2021.2.3,Win32,60.0132029,627c6715c52fd12f31907bcf,,,,,,,,,,,,,,,,,,,,,,,a,1,"[""0.323"",""0.559"",""0.660"",""0.612""]","[1,1,1,0]",0,3,3,3,1,0,0,,,0,FALSE,0.6867,,,,,,,,,,,,,,,,,,,,,,,,,,,,,,,
,613a83dc733097c0054602df,627c698628f16fa2b9fa0fee,2022-05-11_20h58.18.027,classification_task,2021.2.3,Win32,60.0132029,627c6715c52fd12f31907bcf,,,,,,,,,,,,,,,,,,,,,,,l,0,"[""0.323"",""0.968"",""0.660"",""0.930""]","[1,0,1,1]",0,4,4,4,1,0,0,,,0,FALSE,0.8838,,,,,,,,,,,,,,,,,,,,,,,,,,,,,,,
,613a83dc733097c0054602df,627c698628f16fa2b9fa0fee,2022-05-11_20h58.18.027,classification_task,2021.2.3,Win32,60.0132029,627c6715c52fd12f31907bcf,,,,,,,,,,,,,,,,,,,,,,,l,0,"[""0.106"",""0.400"",""0.734"",""0.855""]","[0,1,1,1]",0,5,5,5,1,0,1,,,0,FALSE,0.8302,,,,,,,,,,,,,,,,,,,,,,,,,,,,,,,
,613a83dc733097c0054602df,627c698628f16fa2b9fa0fee,2022-05-11_20h58.18.027,classification_task,2021.2.3,Win32,60.0132029,627c6715c52fd12f31907bcf,,,,,,,,,,,,,,,,,,,,,,,a,1,"[""0.201"",""0.400"",""0.734"",""0.612""]","[1,1,1,0]",0,6,6,6,1,0,1,,,0,FALSE,1.0769,,,,,,,,,,,,,,,,,,,,,,,,,,,,,,,
,613a83dc733097c0054602df,627c698628f16fa2b9fa0fee,2022-05-11_20h58.18.027,classification_task,2021.2.3,Win32,60.0132029,627c6715c52fd12f31907bcf,,,,,,,,,,,,,,,,,,,,,,,a,0,"[""0.067"",""0.239"",""0.480"",""0.614""]","[1,1,1,0]",0,7,7,7,1,1,0,,,0,FALSE,0.8014,,,,,,,,,,,,,,,,,,,,,,,,,,,,,,,
,613a83dc733097c0054602df,627c698628f16fa2b9fa0fee,2022-05-11_20h58.18.027,classification_task,2021.2.3,Win32,60.0132029,627c6715c52fd12f31907bcf,,,,,,,,,,,,,,,,,,,,,,,l,1,"[""0.067"",""0.239"",""0.106"",""0.770""]","[1,1,0,1]",0,8,8,8,1,1,0,,,0,FALSE,1.1468,,,,,,,,,,,,,,,,,,,,,,,,,,,,,,,
,613a83dc733097c0054602df,627c698628f16fa2b9fa0fee,2022-05-11_20h58.18.027,classification_task,2021.2.3,Win32,60.0132029,627c6715c52fd12f31907bcf,,,,,,,,,,,,,,,,,,,,,,,l,1,"[""0.156"",""0.601"",""0.438"",""0.816""]","[1,0,1,1]",0,9,9,9,1,1,1,,,0,FALSE,1.8437,,,,,,,,,,,,,,,,,,,,,,,,,,,,,,,
,613a83dc733097c0054602df,627c698628f16fa2b9fa0fee,2022-05-11_20h58.18.027,classification_task,2021.2.3,Win32,60.0132029,627c6715c52fd12f31907bcf,,,,,,,,,,,,,,,,,,,,,,,l,0,"[""0.201"",""0.400"",""0.600"",""0.855""]","[1,1,0,1]",0,10,10,10,1,0,1,,,0,FALSE,1.2686,,,,,,,,,,,,,,,,,,,,,,,,,,,,,,,
,613a83dc733097c0054602df,627c698628f16fa2b9fa0fee,2022-05-11_20h58.18.027,classification_task,2021.2.3,Win32,60.0132029,627c6715c52fd12f31907bcf,,,,,,,,,,,,,,,,,,,,,,,a,0,"[""0.600"",""0.284"",""0.438"",""0.816""]","[0,1,1,1]",0,11,11,11,1,1,1,,,0,FALSE,0.8528,,,,,,,,,,,,,,,,,,,,,,,,,,,,,,,
,613a83dc733097c0054602df,627c698628f16fa2b9fa0fee,2022-05-11_20h58.18.027,classification_task,2021.2.3,Win32,60.0132029,627c6715c52fd12f31907bcf,,,,,,,,,,,,,,,,,,,,,,,l,0,"[""0.201"",""0.606"",""0.734"",""0.855""]","[1,0,1,1]",0,12,12,12,1,0,1,,,0,FALSE,0.7272,,,,,,,,,,,,,,,,,,,,,,,,,,,,,,,
,613a83dc733097c0054602df,627c698628f16fa2b9fa0fee,2022-05-11_20h58.18.027,classification_task,2021.2.3,Win32,60.0132029,627c6715c52fd12f31907bcf,,,,,,,,,,,,,,,,,,,,,,,l,1,"[""0.156"",""0.284"",""0.107"",""0.816""]","[1,1,0,1]",0,13,13,13,1,1,1,,,0,FALSE,0.7416,,,,,,,,,,,,,,,,,,,,,,,,,,,,,,,
,613a83dc733097c0054602df,627c698628f16fa2b9fa0fee,2022-05-11_20h58.18.027,classification_task,2021.2.3,Win32,60.0132029,627c6715c52fd12f31907bcf,,,,,,,,,,,,,,,,,,,,,,,a,1,"[""0.614"",""0.559"",""0.660"",""0.930""]","[0,1,1,1]",0,14,14,14,1,0,0,,,0,FALSE,0.8839,,,,,,,,,,,,,,,,,,,,,,,,,,,,,,,
,613a83dc733097c0054602df,627c698628f16fa2b9fa0fee,2022-05-11_20h58.18.027,classification_task,2021.2.3,Win32,60.0132029,627c6715c52fd12f31907bcf,,,,,,,,,,,,,,,,,,,,,,,a,0,"[""0.619"",""0.239"",""0.480"",""0.770""]","[0,1,1,1]",0,15,15,15,1,1,0,,,0,FALSE,0.8309,,,,,,,,,,,,,,,,,,,,,,,,,,,,,,,
,613a83dc733097c0054602df,627c698628f16fa2b9fa0fee,2022-05-11_20h58.18.027,classification_task,2021.2.3,Win32,60.0132029,627c6715c52fd12f31907bcf,,,,,,,,,,,,,,,,,,,,,,,l,1,"[""0.067"",""0.239"",""0.968"",""0.770""]","[1,1,0,1]",0,16,16,16,1,1,0,,,0,FALSE,0.6993,,,,,,,,,,,,,,,,,,,,,,,,,,,,,,,
,613a83dc733097c0054602df,627c698628f16fa2b9fa0fee,2022-05-11_20h58.18.027,classification_task,2021.2.3,Win32,60.0132029,627c6715c52fd12f31907bcf,,,,,,,,,,,,,,,,,,,,,,,a,1,"[""0.323"",""0.559"",""0.601"",""0.930""]","[1,1,0,1]",0,17,17,17,1,0,0,,,0,FALSE,1.4443,,,,,,,,,,,,,,,,,,,,,,,,,,,,,,,
,613a83dc733097c0054602df,627c698628f16fa2b9fa0fee,2022-05-11_20h58.18.027,classification_task,2021.2.3,Win32,60.0132029,627c6715c52fd12f31907bcf,,,,,,,,,,,,,,,,,,,,,,,a,1,"[""0.612"",""0.400"",""0.734"",""0.855""]","[0,1,1,1]",0,18,18,18,1,0,1,,,0,FALSE,1.2081,,,,,,,,,,,,,,,,,,,,,,,,,,,,,,,
,613a83dc733097c0054602df,627c698628f16fa2b9fa0fee,2022-05-11_20h58.18.027,classification_task,2021.2.3,Win32,60.0132029,627c6715c52fd12f31907bcf,,,,,,,,,,,,,,,,,,,,,,,a,1,"[""0.323"",""0.559"",""0.660"",""0.611""]","[1,1,1,0]",0,19,19,19,1,0,0,,,0,FALSE,0.8385,,,,,,,,,,,,,,,,,,,,,,,,,,,,,,,
,613a83dc733097c0054602df,627c698628f16fa2b9fa0fee,2022-05-11_20h58.18.027,classification_task,2021.2.3,Win32,60.0132029,627c6715c52fd12f31907bcf,,,,,,,,,,,,,,,,,,,,,,,l,1,"[""0.156"",""0.284"",""0.614"",""0.816""]","[1,1,0,1]",0,20,20,20,1,1,1,,,0,FALSE,0.8204,,,,,,,,,,,,,,,,,,,,,,,,,,,,,,,
,613a83dc733097c0054602df,627c698628f16fa2b9fa0fee,2022-05-11_20h58.18.027,classification_task,2021.2.3,Win32,60.0132029,627c6715c52fd12f31907bcf,,,,,,,,,,,,,,,,,,,,,,,a,0,"[""0.067"",""0.239"",""0.480"",""0.612""]","[1,1,1,0]",0,21,21,21,1,1,0,,,0,FALSE,1.507,,,,,,,,,,,,,,,,,,,,,,,,,,,,,,,
,613a83dc733097c0054602df,627c698628f16fa2b9fa0fee,2022-05-11_20h58.18.027,classification_task,2021.2.3,Win32,60.0132029,627c6715c52fd12f31907bcf,,,,,,,,,,,,,,,,,,,,,,,a,0,"[""0.606"",""0.239"",""0.480"",""0.770""]","[0,1,1,1]",0,22,22,22,1,1,0,,,0,FALSE,0.8539,,,,,,,,,,,,,,,,,,,,,,,,,,,,,,,
,613a83dc733097c0054602df,627c698628f16fa2b9fa0fee,2022-05-11_20h58.18.027,classification_task,2021.2.3,Win32,60.0132029,627c6715c52fd12f31907bcf,,,,,,,,,,,,,,,,,,,,,,,a,1,"[""0.601"",""0.559"",""0.660"",""0.930""]","[0,1,1,1]",0,23,23,23,1,0,0,,,0,FALSE,0.8524,,,,,,,,,,,,,,,,,,,,,,,,,,,,,,,
,613a83dc733097c0054602df,627c698628f16fa2b9fa0fee,2022-05-11_20h58.18.027,classification_task,2021.2.3,Win32,60.0132029,627c6715c52fd12f31907bcf,,,,,,,,,,,,,,,,,,,,,,,a,1,"[""0.201"",""0.400"",""0.734"",""0.614""]","[1,1,1,0]",0,24,24,24,1,0,1,,,0,FALSE,5.5865,,,,,,,,,,,,,,,,,,,,,,,,,,,,,,,
,613a83dc733097c0054602df,627c698628f16fa2b9fa0fee,2022-05-11_20h58.18.027,classification_task,2021.2.3,Win32,60.0132029,627c6715c52fd12f31907bcf,,,,,,,,,,,,,,,,,,,,,,,a,0,"[""0.156"",""0.607"",""0.438"",""0.816""]","[1,0,1,1]",0,25,25,25,1,1,1,,,0,FALSE,0.8085,,,,,,,,,,,,,,,,,,,,,,,,,,,,,,,
,613a83dc733097c0054602df,627c698628f16fa2b9fa0fee,2022-05-11_20h58.18.027,classification_task,2021.2.3,Win32,60.0132029,627c6715c52fd12f31907bcf,,,,,,,,,,,,,,,,,,,,,,,a,1,"[""0.323"",""0.614"",""0.660"",""0.930""]","[1,0,1,1]",0,26,26,26,1,0,0,,,0,FALSE,0.639,,,,,,,,,,,,,,,,,,,,,,,,,,,,,,,
,613a83dc733097c0054602df,627c698628f16fa2b9fa0fee,2022-05-11_20h58.18.027,classification_task,2021.2.3,Win32,60.0132029,627c6715c52fd12f31907bcf,,,,,,,,,,,,,,,,,,,,,,,a,0,"[""0.156"",""0.284"",""0.438"",""0.694""]","[1,1,1,0]",0,27,27,27,1,1,1,,,0,FALSE,0.7627,,,,,,,,,,,,,,,,,,,,,,,,,,,,,,,
,613a83dc733097c0054602df,627c698628f16fa2b9fa0fee,2022-05-11_20h58.18.027,classification_task,2021.2.3,Win32,60.0132029,627c6715c52fd12f31907bcf,,,,,,,,,,,,,,,,,,,,,,,l,0,"[""0.201"",""0.400"",""0.520"",""0.855""]","[1,1,0,1]",0,28,28,28,1,0,1,,,0,FALSE,1.0939,,,,,,,,,,,,,,,,,,,,,,,,,,,,,,,
,613a83dc733097c0054602df,627c698628f16fa2b9fa0fee,2022-05-11_20h58.18.027,classification_task,2021.2.3,Win32,60.0132029,627c6715c52fd12f31907bcf,,,,,,,,,,,,,,,,,,,,,,,l,1,"[""0.067"",""0.619"",""0.480"",""0.770""]","[1,0,1,1]",0,29,29,29,1,1,0,,,0,FALSE,0.5832,,,,,,,,,,,,,,,,,,,,,,,,,,,,,,,
,613a83dc733097c0054602df,627c698628f16fa2b9fa0fee,2022-05-11_20h58.18.027,classification_task,2021.2.3,Win32,60.0132029,627c6715c52fd12f31907bcf,,,,,,,,,,,,,,,,,,,,,,,a,0,"[""0.606"",""0.284"",""0.438"",""0.816""]","[0,1,1,1]",0,30,30,30,1,1,1,,,0,FALSE,1.0031,,,,,,,,,,,,,,,,,,,,,,,,,,,,,,,
,613a83dc733097c0054602df,627c698628f16fa2b9fa0fee,2022-05-11_20h58.18.027,classification_task,2021.2.3,Win32,60.0132029,627c6715c52fd12f31907bcf,,,,,,,,,,,,,,,,,,,,,,,l,0,"[""0.201"",""0.107"",""0.734"",""0.855""]","[1,0,1,1]",0,31,31,31,1,0,1,,,0,FALSE,0.7232,,,,,,,,,,,,,,,,,,,,,,,,,,,,,,,
,613a83dc733097c0054602df,627c698628f16fa2b9fa0fee,2022-05-11_20h58.18.027,classification_task,2021.2.3,Win32,60.0132029,627c6715c52fd12f31907bcf,,,,,,,,,,,,,,,,,,,,,,,a,0,"[""0.067"",""0.239"",""0.480"",""0.107""]","[1,1,1,0]",0,32,32,32,1,1,0,,,0,FALSE,1.7414,,,,,,,,,,,,,,,,,,,,,,,,,,,,,,,
,613a83dc733097c0054602df,627c698628f16fa2b9fa0fee,2022-05-11_20h58.18.027,classification_task,2021.2.3,Win32,60.0132029,627c6715c52fd12f31907bcf,,,,,,,,,,,,,,,,,,,,,,,a,0,"[""0.607"",""0.284"",""0.438"",""0.816""]","[0,1,1,1]",0,33,33,33,1,1,1,,,0,FALSE,1.2079,,,,,,,,,,,,,,,,,,,,,,,,,,,,,,,
,613a83dc733097c0054602df,627c698628f16fa2b9fa0fee,2022-05-11_20h58.18.027,classification_task,2021.2.3,Win32,60.0132029,627c6715c52fd12f31907bcf,,,,,,,,,,,,,,,,,,,,,,,a,0,"[""0.156"",""0.284"",""0.438"",""0.107""]","[1,1,1,0]",0,34,34,34,1,1,1,,,0,FALSE,0.8009,,,,,,,,,,,,,,,,,,,,,,,,,,,,,,,
,613a83dc733097c0054602df,627c698628f16fa2b9fa0fee,2022-05-11_20h58.18.027,classification_task,2021.2.3,Win32,60.0132029,627c6715c52fd12f31907bcf,,,,,,,,,,,,,,,,,,,,,,,a,1,"[""0.323"",""0.559"",""0.660"",""0.107""]","[1,1,1,0]",0,35,35,35,1,0,0,,,0,FALSE,1.3364,,,,,,,,,,,,,,,,,,,,,,,,,,,,,,,
,613a83dc733097c0054602df,627c698628f16fa2b9fa0fee,2022-05-11_20h58.18.027,classification_task,2021.2.3,Win32,60.0132029,627c6715c52fd12f31907bcf,,,,,,,,,,,,,,,,,,,,,,,l,0,"[""0.201"",""0.614"",""0.734"",""0.855""]","[1,0,1,1]",0,36,36,36,1,0,1,,,0,FALSE,0.7519,,,,,,,,,,,,,,,,,,,,,,,,,,,,,,,
,613a83dc733097c0054602df,627c698628f16fa2b9fa0fee,2022-05-11_20h58.18.027,classification_task,2021.2.3,Win32,60.0132029,627c6715c52fd12f31907bcf,,,,,,,,,,,,,,,,,,,,,,,l,0,"[""0.323"",""0.968"",""0.660"",""0.930""]","[1,0,1,1]",0,37,37,37,1,0,0,,,0,FALSE,0.6967,,,,,,,,,,,,,,,,,,,,,,,,,,,,,,,
,613a83dc733097c0054602df,627c698628f16fa2b9fa0fee,2022-05-11_20h58.18.027,classification_task,2021.2.3,Win32,60.0132029,627c6715c52fd12f31907bcf,,,,,,,,,,,,,,,,,,,,,,,l,1,"[""0.067"",""0.239"",""0.700"",""0.770""]","[1,1,0,1]",0,38,38,38,1,1,0,,,0,FALSE,1.0226,,,,,,,,,,,,,,,,,,,,,,,,,,,,,,,
,613a83dc733097c0054602df,627c698628f16fa2b9fa0fee,2022-05-11_20h58.18.027,classification_task,2021.2.3,Win32,60.0132029,627c6715c52fd12f31907bcf,,,,,,,,,,,,,,,,,,,,,,,a,1,"[""0.323"",""0.559"",""0.611"",""0.930""]","[1,1,0,1]",0,39,39,39,1,0,0,,,0,FALSE,1.0949,,,,,,,,,,,,,,,,,,,,,,,,,,,,,,,
,613a83dc733097c0054602df,627c698628f16fa2b9fa0fee,2022-05-11_20h58.18.027,classification_task,2021.2.3,Win32,60.0132029,627c6715c52fd12f31907bcf,,,,,,,,,,,,,,,,,,,,,,,l,0,"[""0.201"",""0.400"",""0.968"",""0.855""]","[1,1,0,1]",0,40,40,40,1,0,1,,,0,FALSE,0.841,,,,,,,,,,,,,,,,,,,,,,,,,,,,,,,
,613a83dc733097c0054602df,627c698628f16fa2b9fa0fee,2022-05-11_20h58.18.027,classification_task,2021.2.3,Win32,60.0132029,627c6715c52fd12f31907bcf,,,,,,,,,,,,,,,,,,,,,,,l,0,"[""0.201"",""0.400"",""0.734"",""0.968""]","[1,1,1,0]",0,41,41,41,1,0,1,,,0,FALSE,0.6665,,,,,,,,,,,,,,,,,,,,,,,,,,,,,,,
,613a83dc733097c0054602df,627c698628f16fa2b9fa0fee,2022-05-11_20h58.18.027,classification_task,2021.2.3,Win32,60.0132029,627c6715c52fd12f31907bcf,,,,,,,,,,,,,,,,,,,,,,,l,1,"[""0.156"",""0.965"",""0.438"",""0.816""]","[1,0,1,1]",0,42,42,42,1,1,1,,,0,FALSE,0.6761,,,,,,,,,,,,,,,,,,,,,,,,,,,,,,,
,613a83dc733097c0054602df,627c698628f16fa2b9fa0fee,2022-05-11_20h58.18.027,classification_task,2021.2.3,Win32,60.0132029,627c6715c52fd12f31907bcf,,,,,,,,,,,,,,,,,,,,,,,l,1,"[""0.156"",""0.284"",""0.694"",""0.816""]","[1,1,0,1]",0,43,43,43,1,1,1,,,0,FALSE,1.1356,,,,,,,,,,,,,,,,,,,,,,,,,,,,,,,
,613a83dc733097c0054602df,627c698628f16fa2b9fa0fee,2022-05-11_20h58.18.027,classification_task,2021.2.3,Win32,60.0132029,627c6715c52fd12f31907bcf,,,,,,,,,,,,,,,,,,,,,,,a,1,"[""0.965"",""0.559"",""0.660"",""0.930""]","[0,1,1,1]",0,44,44,44,1,0,0,,,0,FALSE,0.7017,,,,,,,,,,,,,,,,,,,,,,,,,,,,,,,
,613a83dc733097c0054602df,627c698628f16fa2b9fa0fee,2022-05-11_20h58.18.027,classification_task,2021.2.3,Win32,60.0132029,627c6715c52fd12f31907bcf,,,,,,,,,,,,,,,,,,,,,,,l,1,"[""0.067"",""0.700"",""0.480"",""0.770""]","[1,0,1,1]",0,45,45,45,1,1,0,,,0,FALSE,0.7884,,,,,,,,,,,,,,,,,,,,,,,,,,,,,,,
,613a83dc733097c0054602df,627c698628f16fa2b9fa0fee,2022-05-11_20h58.18.027,classification_task,2021.2.3,Win32,60.0132029,627c6715c52fd12f31907bcf,,,,,,,,,,,,,,,,,,,,,,,a,1,"[""0.611"",""0.400"",""0.734"",""0.855""]","[0,1,1,1]",0,46,46,46,1,0,1,,,0,FALSE,0.767,,,,,,,,,,,,,,,,,,,,,,,,,,,,,,,
,613a83dc733097c0054602df,627c698628f16fa2b9fa0fee,2022-05-11_20h58.18.027,classification_task,2021.2.3,Win32,60.0132029,627c6715c52fd12f31907bcf,,,,,,,,,,,,,,,,,,,,,,,a,0,"[""0.612"",""0.239"",""0.480"",""0.770""]","[0,1,1,1]",0,47,47,47,1,1,0,,,0,FALSE,0.7833,,,,,,,,,,,,,,,,,,,,,,,,,,,,,,,
,613a83dc733097c0054602df,627c698628f16fa2b9fa0fee,2022-05-11_20h58.18.027,classification_task,2021.2.3,Win32,60.0132029,627c6715c52fd12f31907bcf,,,,,,,,,,,,,,,,,,,,,,,a,0,"[""0.601"",""0.284"",""0.438"",""0.816""]","[0,1,1,1]",0,48,48,48,1,1,1,,,0,FALSE,0.8143,,,,,,,,,,,,,,,,,,,,,,,,,,,,,,,
,613a83dc733097c0054602df,627c698628f16fa2b9fa0fee,2022-05-11_20h58.18.027,classification_task,2021.2.3,Win32,60.0132029,627c6715c52fd12f31907bcf,,,,,,,,,,,,,,,,,,,,,,,l,0,"[""0.323"",""0.559"",""0.660"",""0.968""]","[1,1,1,0]",0,49,49,49,1,0,0,,,0,FALSE,0.8636,,,,,,,,,,,,,,,,,,,,,,,,,,,,,,,
,613a83dc733097c0054602df,627c698628f16fa2b9fa0fee,2022-05-11_20h58.18.027,classification_task,2021.2.3,Win32,60.0132029,627c6715c52fd12f31907bcf,,,,,,,,,,,,,,,,,,,,,,,a,1,"[""0.612"",""0.400"",""0.734"",""0.855""]","[0,1,1,1]",0,50,50,50,1,0,1,,,0,FALSE,0.7427,,,,,,,,,,,,,,,,,,,,,,,,,,,,,,,
,613a83dc733097c0054602df,627c698628f16fa2b9fa0fee,2022-05-11_20h58.18.027,classification_task,2021.2.3,Win32,60.0132029,627c6715c52fd12f31907bcf,,,,,,,,,,,,,,,,,,,,,,,l,0,"[""0.106"",""0.559"",""0.660"",""0.930""]","[0,1,1,1]",0,51,51,51,1,0,0,,,0,FALSE,0.6568,,,,,,,,,,,,,,,,,,,,,,,,,,,,,,,
,613a83dc733097c0054602df,627c698628f16fa2b9fa0fee,2022-05-11_20h58.18.027,classification_task,2021.2.3,Win32,60.0132029,627c6715c52fd12f31907bcf,,,,,,,,,,,,,,,,,,,,,,,a,0,"[""0.067"",""0.239"",""0.480"",""0.600""]","[1,1,1,0]",0,52,52,52,1,1,0,,,0,FALSE,0.5994,,,,,,,,,,,,,,,,,,,,,,,,,,,,,,,
,613a83dc733097c0054602df,627c698628f16fa2b9fa0fee,2022-05-11_20h58.18.027,classification_task,2021.2.3,Win32,60.0132029,627c6715c52fd12f31907bcf,,,,,,,,,,,,,,,,,,,,,,,a,1,"[""0.323"",""0.612"",""0.660"",""0.930""]","[1,0,1,1]",0,53,53,53,1,0,0,,,0,FALSE,0.5013,,,,,,,,,,,,,,,,,,,,,,,,,,,,,,,
,613a83dc733097c0054602df,627c698628f16fa2b9fa0fee,2022-05-11_20h58.18.027,classification_task,2021.2.3,Win32,60.0132029,627c6715c52fd12f31907bcf,,,,,,,,,,,,,,,,,,,,,,,a,1,"[""0.201"",""0.400"",""0.601"",""0.855""]","[1,1,0,1]",0,54,54,54,1,0,1,,,0,FALSE,0.6067,,,,,,,,,,,,,,,,,,,,,,,,,,,,,,,
,613a83dc733097c0054602df,627c698628f16fa2b9fa0fee,2022-05-11_20h58.18.027,classification_task,2021.2.3,Win32,60.0132029,627c6715c52fd12f31907bcf,,,,,,,,,,,,,,,,,,,,,,,l,1,"[""0.156"",""0.284"",""0.438"",""0.965""]","[1,1,1,0]",0,55,55,55,1,1,1,,,0,FALSE,0.7947,,,,,,,,,,,,,,,,,,,,,,,,,,,,,,,
,613a83dc733097c0054602df,627c698628f16fa2b9fa0fee,2022-05-11_20h58.18.027,classification_task,2021.2.3,Win32,60.0132029,627c6715c52fd12f31907bcf,,,,,,,,,,,,,,,,,,,,,,,l,1,"[""0.156"",""0.600"",""0.438"",""0.816""]","[1,0,1,1]",0,56,56,56,1,1,1,,,0,FALSE,1.0935,,,,,,,,,,,,,,,,,,,,,,,,,,,,,,,
,613a83dc733097c0054602df,627c698628f16fa2b9fa0fee,2022-05-11_20h58.18.027,classification_task,2021.2.3,Win32,60.0132029,627c6715c52fd12f31907bcf,,,,,,,,,,,,,,,,,,,,,,,l,1,"[""0.067"",""0.607"",""0.480"",""0.770""]","[1,0,1,1]",0,57,57,57,1,1,0,,,0,FALSE,0.7732,,,,,,,,,,,,,,,,,,,,,,,,,,,,,,,
,613a83dc733097c0054602df,627c698628f16fa2b9fa0fee,2022-05-11_20h58.18.027,classification_task,2021.2.3,Win32,60.0132029,627c6715c52fd12f31907bcf,,,,,,,,,,,,,,,,,,,,,,,a,0,"[""0.614"",""0.239"",""0.480"",""0.770""]","[0,1,1,1]",0,58,58,58,1,1,0,,,0,FALSE,0.7835,,,,,,,,,,,,,,,,,,,,,,,,,,,,,,,
,613a83dc733097c0054602df,627c698628f16fa2b9fa0fee,2022-05-11_20h58.18.027,classification_task,2021.2.3,Win32,60.0132029,627c6715c52fd12f31907bcf,,,,,,,,,,,,,,,,,,,,,,,l,0,"[""0.323"",""0.559"",""0.106"",""0.930""]","[1,1,0,1]",0,59,59,59,1,0,0,,,0,FALSE,0.7566,,,,,,,,,,,,,,,,,,,,,,,,,,,,,,,
,613a83dc733097c0054602df,627c698628f16fa2b9fa0fee,2022-05-11_20h58.18.027,classification_task,2021.2.3,Win32,60.0132029,627c6715c52fd12f31907bcf,,,,,,,,,,,,,,,,,,,,,,,l,1,"[""0.067"",""0.239"",""0.965"",""0.770""]","[1,1,0,1]",0,60,60,60,1,1,0,,,0,FALSE,0.7641,,,,,,,,,,,,,,,,,,,,,,,,,,,,,,,
,613a83dc733097c0054602df,627c698628f16fa2b9fa0fee,2022-05-11_20h58.18.027,classification_task,2021.2.3,Win32,60.0132029,627c6715c52fd12f31907bcf,,,,,,,,,,,,,,,,,,,,,,,l,1,"[""0.156"",""0.284"",""0.600"",""0.816""]","[1,1,0,1]",0,61,61,61,1,1,1,,,0,FALSE,0.8713,,,,,,,,,,,,,,,,,,,,,,,,,,,,,,,
,613a83dc733097c0054602df,627c698628f16fa2b9fa0fee,2022-05-11_20h58.18.027,classification_task,2021.2.3,Win32,60.0132029,627c6715c52fd12f31907bcf,,,,,,,,,,,,,,,,,,,,,,,a,1,"[""0.201"",""0.400"",""0.734"",""0.612""]","[1,1,1,0]",0,62,62,62,1,0,1,,,0,FALSE,0.5579,,,,,,,,,,,,,,,,,,,,,,,,,,,,,,,
,613a83dc733097c0054602df,627c698628f16fa2b9fa0fee,2022-05-11_20h58.18.027,classification_task,2021.2.3,Win32,60.0132029,627c6715c52fd12f31907bcf,,,,,,,,,,,,,,,,,,,,,,,l,0,"[""0.201"",""0.614"",""0.734"",""0.855""]","[1,0,1,1]",0,63,63,63,1,0,1,,,0,FALSE,0.8724,,,,,,,,,,,,,,,,,,,,,,,,,,,,,,,
,613a83dc733097c0054602df,627c698628f16fa2b9fa0fee,2022-05-11_20h58.18.027,classification_task,2021.2.3,Win32,60.0132029,627c6715c52fd12f31907bcf,,,,,,,,,,,,,,,,,,,,,,,,,,,,,,,,,,,,,,,0, ,,0,1.296296296,140.4105,0,2,2,2,1,2,3,,,,,,,,,,,,,,,,,,
,613a83dc733097c0054602df,627c698628f16fa2b9fa0fee,2022-05-11_20h58.18.027,classification_task,2021.2.3,Win32,60.0132029,627c6715c52fd12f31907bcf,,,,,,,,,,,,,,,,,,,,,,,,,,,,,,,,,,,,,,,1,  ,,0,6.940035273,143.8486,0,2,2,2,1,2,3,,,,,,,,,,,,,,,,,,
,613a83dc733097c0054602df,627c698628f16fa2b9fa0fee,2022-05-11_20h58.18.027,classification_task,2021.2.3,Win32,60.0132029,627c6715c52fd12f31907bcf,,,,,,,,,,,,,,,,,,,,,,,,,,,,,,,,,,,,,,,2,  ,,0,3.059964727,147.448,0,2,2,2,1,2,3,,,,,,,,,,,,,,,,,,
,613a83dc733097c0054602df,627c698628f16fa2b9fa0fee,2022-05-11_20h58.18.027,classification_task,2021.2.3,Win32,60.0132029,627c6715c52fd12f31907bcf,,,,,,,,,,,,,,,,,,,,,,,,,,,,,,,,,,,,,,,,,,,,,0,2,2,2,1,,3,,,,,,,,,,,,,,,,,,
,613a83dc733097c0054602df,627c698628f16fa2b9fa0fee,2022-05-11_20h58.18.027,classification_task,2021.2.3,Win32,60.0132029,627c6715c52fd12f31907bcf,,,,,,,,,,,,,,,,,,,,,,,,,,,,,,,,,,,,,,,,,,,,,,,,,,,,,I believe the aid is a competent performer,,0.7,0,4,822.8993,0,0,0,0,1,0,,,,,
,613a83dc733097c0054602df,627c698628f16fa2b9fa0fee,2022-05-11_20h58.18.027,classification_task,2021.2.3,Win32,60.0132029,627c6715c52fd12f31907bcf,,,,,,,,,,,,,,,,,,,,,,,,,,,,,,,,,,,,,,,,,,,,,,,,,,,,,I trust the aid,,0.7,0,4,825.1621,0,0,0,0,1,0,,,,,
,613a83dc733097c0054602df,627c698628f16fa2b9fa0fee,2022-05-11_20h58.18.027,classification_task,2021.2.3,Win32,60.0132029,627c6715c52fd12f31907bcf,,,,,,,,,,,,,,,,,,,,,,,,,,,,,,,,,,,,,,,,,,,,,,,,,,,,,I have confidence in the advice given by the aid,,0.7,0,3,827.6543,0,0,0,0,1,0,,,,,
,613a83dc733097c0054602df,627c698628f16fa2b9fa0fee,2022-05-11_20h58.18.027,classification_task,2021.2.3,Win32,60.0132029,627c6715c52fd12f31907bcf,,,,,,,,,,,,,,,,,,,,,,,,,,,,,,,,,,,,,,,,,,,,,,,,,,,,,I can depend on the aid,,0.7,0,3,830.4946,0,0,0,0,1,0,,,,,
,613a83dc733097c0054602df,627c698628f16fa2b9fa0fee,2022-05-11_20h58.18.027,classification_task,2021.2.3,Win32,60.0132029,627c6715c52fd12f31907bcf,,,,,,,,,,,,,,,,,,,,,,,,,,,,,,,,,,,,,,,,,,,,,,,,,,,,,I can rely on the aid to behave in consistent ways,,0.7,0,3,834.1406,0,0,0,0,1,0,,,,,
,613a83dc733097c0054602df,627c698628f16fa2b9fa0fee,2022-05-11_20h58.18.027,classification_task,2021.2.3,Win32,60.0132029,627c6715c52fd12f31907bcf,,,,,,,,,,,,,,,,,,,,,,,,,,,,,,,,,,,,,,,,,,,,,,,,,,,,,I can rely on the aid to do its best every time I take its advice,,0.7,0,4,837.6801,0,0,0,0,1,0,,,,,
,613a83dc733097c0054602df,627c698628f16fa2b9fa0fee,2022-05-11_20h58.18.027,classification_task,2021.2.3,Win32,60.0132029,627c6715c52fd12f31907bcf,,,,,,,,,,,,,,,,,,,,,,,,,,,,,,,,,,,,,,,,,,,,,,,,,,,,,"On trials you completed with assistance from the aid, how frequently did you think the aid was correct?",,0.7,0,50,,0,0,0,0,1,0,,,,,
,613a83dc733097c0054602df,627c698628f16fa2b9fa0fee,2022-05-11_20h58.18.027,classification_task,2021.2.3,Win32,60.0132029,627c6715c52fd12f31907bcf,,,,,,,,,,,,,,,,,,,,,,,,,,,,,,,,,,,,,,,,,,,,,,,,,,,,,"On trials you completed without the aid, how frequently did you think you were correct?",,0.7,0,50,,0,0,0,0,1,0,,,,,
,613a83dc733097c0054602df,627c698628f16fa2b9fa0fee,2022-05-11_20h58.18.027,classification_task,2021.2.3,Win32,60.0132029,627c6715c52fd12f31907bcf,,,,,,,,,,,,,,,,,,,,,,,,,,,,,,,,,,,,,,,,,,,,,,,,,,,,,,,,,,,0,0,0,0,1,,,,,,
,613a83dc733097c0054602df,627c698628f16fa2b9fa0fee,2022-05-11_20h58.18.027,classification_task,2021.2.3,Win32,60.0132029,627c6715c52fd12f31907bcf,,,,,,,,,,,,,,,,,,,,,,,,,,,,,,,,,,,,,,,,,,,,,,,,,,,,,,,,,,,,,,,,,space,11.0068,864.6109,,
,613a83dc733097c0054602df,627c698628f16fa2b9fa0fee,2022-05-11_20h58.18.027,classification_task,2021.2.3,Win32,60.0132029,627c6715c52fd12f31907bcf,,,,,,,,,,,,,,,,,,,,,,,,,,,,,,,,,,,,,,,,,,,,,,,,,,,,,,,,,,,,,,,,,,,,"Mozilla/5.0 (Windows NT 10.0; Win64; x64) AppleWebKit/537.36 (KHTML, like Gecko) Chrome/101.0.4951.54 Safari/537.36",
,613a83dc733097c0054602df,627c698628f16fa2b9fa0fee,2022-05-11_20h58.18.027,classification_task,2021.2.3,Win32,60.0132029,627c6715c52fd12f31907bcf,,,,,,,,,,,,,,,,,,,,,,,,,,,,,,,,,,,,,,,,,,,,,,,,,,,,,,,,,,,,,,,,,,,,,HIGHLIGHT
