usingWebGL,participant,session,date,expName,psychopyVersion,OS,frameRate,study_id,signatures_friend,signatures_foe,band_ranges_top,band_ranges_bottom,formitemText,formtype,formundefined,formitemWidth,formindex,formresponse,formrt,key_resp_2.keys,key_resp_2.rt,tute_resp.keys,tute_resp.rt,tutorial.thisRepN,tutorial.thisTrialN,tutorial.thisN,tutorial.thisIndex,tutorial.ran,key_resp_4.keys,key_resp_4.rt,key_resp.keys,key_resp.corr,key_resp.rt,lines_presented,is_signal_presented,trials.thisRepN,trials.thisTrialN,trials.thisN,trials.thisIndex,trials.ran,vessel,active_band,lines,is_signal,supported_pos,catch_trial,debrief_formindex,debrief_formitemText,debrief_formtype,debrief_formitemWidth,debrief_formresponse,debrief_formrt,phases.thisRepN,phases.thisTrialN,phases.thisN,phases.thisIndex,phases.ran,phases.order,phase,key_resp_3.keys,trustitemText,trusttype,trustitemWidth,trustindex,trustresponse,trustrt,support_status.thisRepN,support_status.thisTrialN,support_status.thisN,support_status.thisIndex,support_status.ran,support_status.order,key_resp_5.keys,key_resp_5.rt,globalClockTime,userAgent,manualCondition
TRUE,613a6c6bb8459052dd94feca,627c6d6e71b12638ac809f5e,2022-05-11_21h16.42.256,classification_task,2021.2.3,Win32,59.66231132,627c6715c52fd12f31907bcf,,,,,,,,,,,,,,,,,,,,,,,,,,,,,,,,,,,,,,,,,,,,,,,,,,,,,,,,,,,,,,,,,,,,,
,613a6c6bb8459052dd94feca,627c6d6e71b12638ac809f5e,2022-05-11_21h16.42.256,classification_task,2021.2.3,Win32,59.66231132,627c6715c52fd12f31907bcf,"[[""0.229"",""0.416"",""0.767"",""0.904""],[""0.186"",""0.376"",""0.583"",""0.847""]]","[[""0.044"",""0.081"",""0.493"",""0.685""],[""0.145"",""0.272"",""0.458"",""0.812""]]","[1,10]","[100,1000]",Video game experience,,,0.7,0,,,,,,,,,,,,,,,,,,,,,,,,,,,,,,,,,,,,,,,,,,,,,,,,,,,,,,,,,,,,
,613a6c6bb8459052dd94feca,627c6d6e71b12638ac809f5e,2022-05-11_21h16.42.256,classification_task,2021.2.3,Win32,59.66231132,627c6715c52fd12f31907bcf,,,,,Approximately how many hours did you spend playing video games in the last week?,,,0.7,0,0,,,,,,,,,,,,,,,,,,,,,,,,,,,,,,,,,,,,,,,,,,,,,,,,,,,,,,,,,,,
,613a6c6bb8459052dd94feca,627c6d6e71b12638ac809f5e,2022-05-11_21h16.42.256,classification_task,2021.2.3,Win32,59.66231132,627c6715c52fd12f31907bcf,,,,,"Which game did you play the most this year? (Enter ""None"" if you didn't play any)",,,0.7,0,None,,,,,,,,,,,,,,,,,,,,,,,,,,,,,,,,,,,,,,,,,,,,,,,,,,,,,,,,,,,
,613a6c6bb8459052dd94feca,627c6d6e71b12638ac809f5e,2022-05-11_21h16.42.256,classification_task,2021.2.3,Win32,59.66231132,627c6715c52fd12f31907bcf,,,,,Visual perception,,,0.7,0,,,,,,,,,,,,,,,,,,,,,,,,,,,,,,,,,,,,,,,,,,,,,,,,,,,,,,,,,,,,
,613a6c6bb8459052dd94feca,627c6d6e71b12638ac809f5e,2022-05-11_21h16.42.256,classification_task,2021.2.3,Win32,59.66231132,627c6715c52fd12f31907bcf,,,,,Do you have any form of color blindness?,,,0.7,0,No,24.6572,,,,,,,,,,,,,,,,,,,,,,,,,,,,,,,,,,,,,,,,,,,,,,,,,,,,,,,,,,
,613a6c6bb8459052dd94feca,627c6d6e71b12638ac809f5e,2022-05-11_21h16.42.256,classification_task,2021.2.3,Win32,59.66231132,627c6715c52fd12f31907bcf,,,,,Do you use software to change the colour temperature of your screen (e.g. f.lux)?,,,0.7,0,No,28.5653,,,,,,,,,,,,,,,,,,,,,,,,,,,,,,,,,,,,,,,,,,,,,,,,,,,,,,,,,,
,613a6c6bb8459052dd94feca,627c6d6e71b12638ac809f5e,2022-05-11_21h16.42.256,classification_task,2021.2.3,Win32,59.66231132,627c6715c52fd12f31907bcf,,,,,,,,,,,,space,34.7907,space,8.2573,0,0,0,0,1,,,,,,,,,,,,,,,,,,,,,,,,,,,,,,,,,,,,,,,,,,,,,,,,,
,613a6c6bb8459052dd94feca,627c6d6e71b12638ac809f5e,2022-05-11_21h16.42.256,classification_task,2021.2.3,Win32,59.66231132,627c6715c52fd12f31907bcf,,,,,,,,,,,,,,space,9.2655,1,0,1,0,1,,,,,,,,,,,,,,,,,,,,,,,,,,,,,,,,,,,,,,,,,,,,,,,,,
,613a6c6bb8459052dd94feca,627c6d6e71b12638ac809f5e,2022-05-11_21h16.42.256,classification_task,2021.2.3,Win32,59.66231132,627c6715c52fd12f31907bcf,,,,,,,,,,,,,,space,10.3979,2,0,2,0,1,,,,,,,,,,,,,,,,,,,,,,,,,,,,,,,,,,,,,,,,,,,,,,,,,
,613a6c6bb8459052dd94feca,627c6d6e71b12638ac809f5e,2022-05-11_21h16.42.256,classification_task,2021.2.3,Win32,59.66231132,627c6715c52fd12f31907bcf,,,,,,,,,,,,,,space,25.148,3,0,3,0,1,,,,,,,,,,,,,,,,,,,,,,,,,,,,,,,,,,,,,,,,,,,,,,,,,
,613a6c6bb8459052dd94feca,627c6d6e71b12638ac809f5e,2022-05-11_21h16.42.256,classification_task,2021.2.3,Win32,59.66231132,627c6715c52fd12f31907bcf,,,,,,,,,,,,,,space,17.3528,4,0,4,0,1,,,,,,,,,,,,,,,,,,,,,,,,,,,,,,,,,,,,,,,,,,,,,,,,,
,613a6c6bb8459052dd94feca,627c6d6e71b12638ac809f5e,2022-05-11_21h16.42.256,classification_task,2021.2.3,Win32,59.66231132,627c6715c52fd12f31907bcf,,,,,,,,,,,,,,,,,,,,,space,22.7803,a,1,9.7096,"[""0.722"",""0.416"",""0.767"",""0.904""]","[0,1,1,1]",0,0,0,0,1,0,0,,,1,FALSE,,,,,,,,,,,,,,,,,,,,,,,,,,,,,,,
,613a6c6bb8459052dd94feca,627c6d6e71b12638ac809f5e,2022-05-11_21h16.42.256,classification_task,2021.2.3,Win32,59.66231132,627c6715c52fd12f31907bcf,,,,,,,,,,,,,,,,,,,,,,,l,1,5.6016,"[""0.044"",""0.081"",""0.493"",""0.631""]","[1,1,1,0]",0,1,1,1,1,1,0,,,1,FALSE,,,,,,,,,,,,,,,,,,,,,,,,,,,,,,,
,613a6c6bb8459052dd94feca,627c6d6e71b12638ac809f5e,2022-05-11_21h16.42.256,classification_task,2021.2.3,Win32,59.66231132,627c6715c52fd12f31907bcf,,,,,,,,,,,,,,,,,,,,,,,a,1,3.5018,"[""0.186"",""0.310"",""0.583"",""0.847""]","[1,0,1,1]",0,2,2,2,1,0,1,,,1,FALSE,,,,,,,,,,,,,,,,,,,,,,,,,,,,,,,
,613a6c6bb8459052dd94feca,627c6d6e71b12638ac809f5e,2022-05-11_21h16.42.256,classification_task,2021.2.3,Win32,59.66231132,627c6715c52fd12f31907bcf,,,,,,,,,,,,,,,,,,,,,,,l,0,3.6073,"[""0.310"",""0.376"",""0.583"",""0.847""]","[0,1,1,1]",0,3,3,3,1,0,1,,,1,FALSE,,,,,,,,,,,,,,,,,,,,,,,,,,,,,,,
,613a6c6bb8459052dd94feca,627c6d6e71b12638ac809f5e,2022-05-11_21h16.42.256,classification_task,2021.2.3,Win32,59.66231132,627c6715c52fd12f31907bcf,,,,,,,,,,,,,,,,,,,,,,,l,1,3.3957,"[""0.145"",""0.272"",""0.458"",""0.325""]","[1,1,1,0]",0,4,4,4,1,1,1,,,1,FALSE,,,,,,,,,,,,,,,,,,,,,,,,,,,,,,,
,613a6c6bb8459052dd94feca,627c6d6e71b12638ac809f5e,2022-05-11_21h16.42.256,classification_task,2021.2.3,Win32,59.66231132,627c6715c52fd12f31907bcf,,,,,,,,,,,,,,,,,,,,,,,a,1,2.9712,"[""0.229"",""0.416"",""0.767"",""0.310""]","[1,1,1,0]",0,5,5,5,1,0,0,,,1,FALSE,,,,,,,,,,,,,,,,,,,,,,,,,,,,,,,
,613a6c6bb8459052dd94feca,627c6d6e71b12638ac809f5e,2022-05-11_21h16.42.256,classification_task,2021.2.3,Win32,59.66231132,627c6715c52fd12f31907bcf,,,,,,,,,,,,,,,,,,,,,,,a,1,3.1736,"[""0.186"",""0.376"",""0.322"",""0.847""]","[1,1,0,1]",0,6,6,6,1,0,1,,,1,FALSE,,,,,,,,,,,,,,,,,,,,,,,,,,,,,,,
,613a6c6bb8459052dd94feca,627c6d6e71b12638ac809f5e,2022-05-11_21h16.42.256,classification_task,2021.2.3,Win32,59.66231132,627c6715c52fd12f31907bcf,,,,,,,,,,,,,,,,,,,,,,,l,1,2.254,"[""0.145"",""0.272"",""0.631"",""0.812""]","[1,1,0,1]",0,7,7,7,1,1,1,,,1,FALSE,,,,,,,,,,,,,,,,,,,,,,,,,,,,,,,
,613a6c6bb8459052dd94feca,627c6d6e71b12638ac809f5e,2022-05-11_21h16.42.256,classification_task,2021.2.3,Win32,59.66231132,627c6715c52fd12f31907bcf,,,,,,,,,,,,,,,,,,,,,,,a,1,4.2124,"[""0.229"",""0.320"",""0.767"",""0.904""]","[1,0,1,1]",0,8,8,8,1,0,0,,,1,FALSE,,,,,,,,,,,,,,,,,,,,,,,,,,,,,,,
,613a6c6bb8459052dd94feca,627c6d6e71b12638ac809f5e,2022-05-11_21h16.42.256,classification_task,2021.2.3,Win32,59.66231132,627c6715c52fd12f31907bcf,,,,,,,,,,,,,,,,,,,,,,,a,1,3.1649,"[""0.186"",""0.376"",""0.583"",""0.322""]","[1,1,1,0]",0,9,9,9,1,0,1,,,1,FALSE,,,,,,,,,,,,,,,,,,,,,,,,,,,,,,,
,613a6c6bb8459052dd94feca,627c6d6e71b12638ac809f5e,2022-05-11_21h16.42.256,classification_task,2021.2.3,Win32,59.66231132,627c6715c52fd12f31907bcf,,,,,,,,,,,,,,,,,,,,,,,a,1,2.3757,"[""0.229"",""0.416"",""0.340"",""0.904""]","[1,1,0,1]",0,10,10,10,1,0,0,,,1,FALSE,,,,,,,,,,,,,,,,,,,,,,,,,,,,,,,
,613a6c6bb8459052dd94feca,627c6d6e71b12638ac809f5e,2022-05-11_21h16.42.256,classification_task,2021.2.3,Win32,59.66231132,627c6715c52fd12f31907bcf,,,,,,,,,,,,,,,,,,,,,,,l,1,2.3513,"[""0.631"",""0.272"",""0.458"",""0.812""]","[0,1,1,1]",0,11,11,11,1,1,1,,,1,FALSE,,,,,,,,,,,,,,,,,,,,,,,,,,,,,,,
,613a6c6bb8459052dd94feca,627c6d6e71b12638ac809f5e,2022-05-11_21h16.42.256,classification_task,2021.2.3,Win32,59.66231132,627c6715c52fd12f31907bcf,,,,,,,,,,,,,,,,,,,,,,,a,0,3.5705,"[""0.044"",""0.628"",""0.493"",""0.685""]","[1,0,1,1]",0,12,12,12,1,1,0,,,1,FALSE,,,,,,,,,,,,,,,,,,,,,,,,,,,,,,,
,613a6c6bb8459052dd94feca,627c6d6e71b12638ac809f5e,2022-05-11_21h16.42.256,classification_task,2021.2.3,Win32,59.66231132,627c6715c52fd12f31907bcf,,,,,,,,,,,,,,,,,,,,,,,l,1,5.2211,"[""0.340"",""0.081"",""0.493"",""0.685""]","[0,1,1,1]",0,13,13,13,1,1,0,,,1,FALSE,,,,,,,,,,,,,,,,,,,,,,,,,,,,,,,
,613a6c6bb8459052dd94feca,627c6d6e71b12638ac809f5e,2022-05-11_21h16.42.256,classification_task,2021.2.3,Win32,59.66231132,627c6715c52fd12f31907bcf,,,,,,,,,,,,,,,,,,,,,,,l,1,2.2604,"[""0.145"",""0.313"",""0.458"",""0.812""]","[1,0,1,1]",0,14,14,14,1,1,1,,,1,FALSE,,,,,,,,,,,,,,,,,,,,,,,,,,,,,,,
,613a6c6bb8459052dd94feca,627c6d6e71b12638ac809f5e,2022-05-11_21h16.42.256,classification_task,2021.2.3,Win32,59.66231132,627c6715c52fd12f31907bcf,,,,,,,,,,,,,,,,,,,,,,,l,1,1.8715,"[""0.044"",""0.081"",""0.631"",""0.685""]","[1,1,0,1]",0,15,15,15,1,1,0,,,1,FALSE,,,,,,,,,,,,,,,,,,,,,,,,,,,,,,,
,613a6c6bb8459052dd94feca,627c6d6e71b12638ac809f5e,2022-05-11_21h16.42.256,classification_task,2021.2.3,Win32,59.66231132,627c6715c52fd12f31907bcf,,,,,,,,,,,,,,,,,,,,,,,a,1,3.0105,"[""0.229"",""0.416"",""0.767"",""0.315""]","[1,1,1,0]",0,16,16,16,1,0,0,,,1,FALSE,,,,,,,,,,,,,,,,,,,,,,,,,,,,,,,
,613a6c6bb8459052dd94feca,627c6d6e71b12638ac809f5e,2022-05-11_21h16.42.256,classification_task,2021.2.3,Win32,59.66231132,627c6715c52fd12f31907bcf,,,,,,,,,,,,,,,,,,,,,,,a,1,2.7394,"[""0.628"",""0.376"",""0.583"",""0.847""]","[0,1,1,1]",0,17,17,17,1,0,1,,,1,FALSE,,,,,,,,,,,,,,,,,,,,,,,,,,,,,,,
,613a6c6bb8459052dd94feca,627c6d6e71b12638ac809f5e,2022-05-11_21h16.42.256,classification_task,2021.2.3,Win32,59.66231132,627c6715c52fd12f31907bcf,,,,,,,,,,,,,,,,,,,,,,,a,1,2.6595,"[""0.186"",""0.376"",""0.583"",""0.320""]","[1,1,1,0]",0,18,18,18,1,0,1,,,1,FALSE,,,,,,,,,,,,,,,,,,,,,,,,,,,,,,,
,613a6c6bb8459052dd94feca,627c6d6e71b12638ac809f5e,2022-05-11_21h16.42.256,classification_task,2021.2.3,Win32,59.66231132,627c6715c52fd12f31907bcf,,,,,,,,,,,,,,,,,,,,,,,a,0,3.0032,"[""0.310"",""0.081"",""0.493"",""0.685""]","[0,1,1,1]",0,19,19,19,1,1,0,,,1,FALSE,,,,,,,,,,,,,,,,,,,,,,,,,,,,,,,
,613a6c6bb8459052dd94feca,627c6d6e71b12638ac809f5e,2022-05-11_21h16.42.256,classification_task,2021.2.3,Win32,59.66231132,627c6715c52fd12f31907bcf,,,,,,,,,,,,,,,,,,,,,,,a,1,2.5111,"[""0.229"",""0.340"",""0.767"",""0.904""]","[1,0,1,1]",0,20,20,20,1,0,0,,,1,FALSE,,,,,,,,,,,,,,,,,,,,,,,,,,,,,,,
,613a6c6bb8459052dd94feca,627c6d6e71b12638ac809f5e,2022-05-11_21h16.42.256,classification_task,2021.2.3,Win32,59.66231132,627c6715c52fd12f31907bcf,,,,,,,,,,,,,,,,,,,,,,,l,1,2.306,"[""0.044"",""0.081"",""0.493"",""0.939""]","[1,1,1,0]",0,21,21,21,1,1,0,,,1,FALSE,,,,,,,,,,,,,,,,,,,,,,,,,,,,,,,
,613a6c6bb8459052dd94feca,627c6d6e71b12638ac809f5e,2022-05-11_21h16.42.256,classification_task,2021.2.3,Win32,59.66231132,627c6715c52fd12f31907bcf,,,,,,,,,,,,,,,,,,,,,,,a,0,2.9171,"[""0.145"",""0.325"",""0.458"",""0.812""]","[1,0,1,1]",0,22,22,22,1,1,1,,,1,FALSE,,,,,,,,,,,,,,,,,,,,,,,,,,,,,,,
,613a6c6bb8459052dd94feca,627c6d6e71b12638ac809f5e,2022-05-11_21h16.42.256,classification_task,2021.2.3,Win32,59.66231132,627c6715c52fd12f31907bcf,,,,,,,,,,,,,,,,,,,,,,,a,0,8.7401,"[""0.145"",""0.272"",""0.458"",""0.631""]","[1,1,1,0]",0,23,23,23,1,1,1,,,1,FALSE,,,,,,,,,,,,,,,,,,,,,,,,,,,,,,,
,613a6c6bb8459052dd94feca,627c6d6e71b12638ac809f5e,2022-05-11_21h16.42.256,classification_task,2021.2.3,Win32,59.66231132,627c6715c52fd12f31907bcf,,,,,,,,,,,,,,,,,,,,,,,a,0,2.8445,"[""0.340"",""0.272"",""0.458"",""0.812""]","[0,1,1,1]",0,24,24,24,1,1,1,,,1,FALSE,,,,,,,,,,,,,,,,,,,,,,,,,,,,,,,
,613a6c6bb8459052dd94feca,627c6d6e71b12638ac809f5e,2022-05-11_21h16.42.256,classification_task,2021.2.3,Win32,59.66231132,627c6715c52fd12f31907bcf,,,,,,,,,,,,,,,,,,,,,,,a,1,2.6032,"[""0.229"",""0.416"",""0.631"",""0.904""]","[1,1,0,1]",0,25,25,25,1,0,0,,,1,FALSE,,,,,,,,,,,,,,,,,,,,,,,,,,,,,,,
,613a6c6bb8459052dd94feca,627c6d6e71b12638ac809f5e,2022-05-11_21h16.42.256,classification_task,2021.2.3,Win32,59.66231132,627c6715c52fd12f31907bcf,,,,,,,,,,,,,,,,,,,,,,,a,1,2.9537,"[""0.628"",""0.416"",""0.767"",""0.904""]","[0,1,1,1]",0,26,26,26,1,0,0,,,1,FALSE,,,,,,,,,,,,,,,,,,,,,,,,,,,,,,,
,613a6c6bb8459052dd94feca,627c6d6e71b12638ac809f5e,2022-05-11_21h16.42.256,classification_task,2021.2.3,Win32,59.66231132,627c6715c52fd12f31907bcf,,,,,,,,,,,,,,,,,,,,,,,a,1,2.7182,"[""0.186"",""0.631"",""0.583"",""0.847""]","[1,0,1,1]",0,27,27,27,1,0,1,,,1,FALSE,,,,,,,,,,,,,,,,,,,,,,,,,,,,,,,
,613a6c6bb8459052dd94feca,627c6d6e71b12638ac809f5e,2022-05-11_21h16.42.256,classification_task,2021.2.3,Win32,59.66231132,627c6715c52fd12f31907bcf,,,,,,,,,,,,,,,,,,,,,,,l,1,0.0008,"[""0.145"",""0.272"",""0.628"",""0.812""]","[1,1,0,1]",0,28,28,28,1,1,1,,,1,FALSE,,,,,,,,,,,,,,,,,,,,,,,,,,,,,,,
,613a6c6bb8459052dd94feca,627c6d6e71b12638ac809f5e,2022-05-11_21h16.42.256,classification_task,2021.2.3,Win32,59.66231132,627c6715c52fd12f31907bcf,,,,,,,,,,,,,,,,,,,,,,,a,1,4.3281,"[""0.186"",""0.376"",""0.940"",""0.847""]","[1,1,0,1]",0,29,29,29,1,0,1,,,1,FALSE,,,,,,,,,,,,,,,,,,,,,,,,,,,,,,,
,613a6c6bb8459052dd94feca,627c6d6e71b12638ac809f5e,2022-05-11_21h16.42.256,classification_task,2021.2.3,Win32,59.66231132,627c6715c52fd12f31907bcf,,,,,,,,,,,,,,,,,,,,,,,l,1,1.9932,"[""0.044"",""0.631"",""0.493"",""0.685""]","[1,0,1,1]",0,30,30,30,1,1,0,,,1,FALSE,,,,,,,,,,,,,,,,,,,,,,,,,,,,,,,
,613a6c6bb8459052dd94feca,627c6d6e71b12638ac809f5e,2022-05-11_21h16.42.256,classification_task,2021.2.3,Win32,59.66231132,627c6715c52fd12f31907bcf,,,,,,,,,,,,,,,,,,,,,,,l,1,2.7741,"[""0.044"",""0.081"",""0.631"",""0.685""]","[1,1,0,1]",0,31,31,31,1,1,0,,,1,FALSE,,,,,,,,,,,,,,,,,,,,,,,,,,,,,,,
,613a6c6bb8459052dd94feca,627c6d6e71b12638ac809f5e,2022-05-11_21h16.42.256,classification_task,2021.2.3,Win32,59.66231132,627c6715c52fd12f31907bcf,,,,,,,,,,,,,,,,,,,,,,,a,0,4.4887,"[""0.145"",""0.272"",""0.458"",""0.315""]","[1,1,1,0]",0,32,32,32,1,1,1,,,1,FALSE,,,,,,,,,,,,,,,,,,,,,,,,,,,,,,,
,613a6c6bb8459052dd94feca,627c6d6e71b12638ac809f5e,2022-05-11_21h16.42.256,classification_task,2021.2.3,Win32,59.66231132,627c6715c52fd12f31907bcf,,,,,,,,,,,,,,,,,,,,,,,a,1,2.2711,"[""0.322"",""0.376"",""0.583"",""0.847""]","[0,1,1,1]",0,33,33,33,1,0,1,,,1,FALSE,,,,,,,,,,,,,,,,,,,,,,,,,,,,,,,
,613a6c6bb8459052dd94feca,627c6d6e71b12638ac809f5e,2022-05-11_21h16.42.256,classification_task,2021.2.3,Win32,59.66231132,627c6715c52fd12f31907bcf,,,,,,,,,,,,,,,,,,,,,,,l,0,1.7757,"[""0.229"",""0.416"",""0.322"",""0.904""]","[1,1,0,1]",0,34,34,34,1,0,0,,,1,FALSE,,,,,,,,,,,,,,,,,,,,,,,,,,,,,,,
,613a6c6bb8459052dd94feca,627c6d6e71b12638ac809f5e,2022-05-11_21h16.42.256,classification_task,2021.2.3,Win32,59.66231132,627c6715c52fd12f31907bcf,,,,,,,,,,,,,,,,,,,,,,,l,0,2.1754,"[""0.229"",""0.416"",""0.767"",""0.628""]","[1,1,1,0]",0,35,35,35,1,0,0,,,1,FALSE,,,,,,,,,,,,,,,,,,,,,,,,,,,,,,,
,613a6c6bb8459052dd94feca,627c6d6e71b12638ac809f5e,2022-05-11_21h16.42.256,classification_task,2021.2.3,Win32,59.66231132,627c6715c52fd12f31907bcf,,,,,,,,,,,,,,,,,,,,,,,a,1,1.6038,"[""0.340"",""0.416"",""0.767"",""0.904""]","[0,1,1,1]",0,36,36,36,1,0,0,,,1,FALSE,,,,,,,,,,,,,,,,,,,,,,,,,,,,,,,
,613a6c6bb8459052dd94feca,627c6d6e71b12638ac809f5e,2022-05-11_21h16.42.256,classification_task,2021.2.3,Win32,59.66231132,627c6715c52fd12f31907bcf,,,,,,,,,,,,,,,,,,,,,,,a,0,1.8192,"[""0.334"",""0.272"",""0.458"",""0.812""]","[0,1,1,1]",0,37,37,37,1,1,1,,,1,FALSE,,,,,,,,,,,,,,,,,,,,,,,,,,,,,,,
,613a6c6bb8459052dd94feca,627c6d6e71b12638ac809f5e,2022-05-11_21h16.42.256,classification_task,2021.2.3,Win32,59.66231132,627c6715c52fd12f31907bcf,,,,,,,,,,,,,,,,,,,,,,,l,0,1.3054,"[""0.186"",""0.313"",""0.583"",""0.847""]","[1,0,1,1]",0,38,38,38,1,0,1,,,1,FALSE,,,,,,,,,,,,,,,,,,,,,,,,,,,,,,,
,613a6c6bb8459052dd94feca,627c6d6e71b12638ac809f5e,2022-05-11_21h16.42.256,classification_task,2021.2.3,Win32,59.66231132,627c6715c52fd12f31907bcf,,,,,,,,,,,,,,,,,,,,,,,a,0,0.9634,"[""0.044"",""0.320"",""0.493"",""0.685""]","[1,0,1,1]",0,39,39,39,1,1,0,,,1,FALSE,,,,,,,,,,,,,,,,,,,,,,,,,,,,,,,
,613a6c6bb8459052dd94feca,627c6d6e71b12638ac809f5e,2022-05-11_21h16.42.256,classification_task,2021.2.3,Win32,59.66231132,627c6715c52fd12f31907bcf,,,,,,,,,,,,,,,,,,,,,,,l,1,2.5107,"[""0.145"",""0.940"",""0.458"",""0.812""]","[1,0,1,1]",0,40,40,40,1,1,1,,,1,FALSE,,,,,,,,,,,,,,,,,,,,,,,,,,,,,,,
,613a6c6bb8459052dd94feca,627c6d6e71b12638ac809f5e,2022-05-11_21h16.42.256,classification_task,2021.2.3,Win32,59.66231132,627c6715c52fd12f31907bcf,,,,,,,,,,,,,,,,,,,,,,,a,0,1.4566,"[""0.044"",""0.081"",""0.313"",""0.685""]","[1,1,0,1]",0,41,41,41,1,1,0,,,1,FALSE,,,,,,,,,,,,,,,,,,,,,,,,,,,,,,,
,613a6c6bb8459052dd94feca,627c6d6e71b12638ac809f5e,2022-05-11_21h16.42.256,classification_task,2021.2.3,Win32,59.66231132,627c6715c52fd12f31907bcf,,,,,,,,,,,,,,,,,,,,,,,a,1,1.5448,"[""0.186"",""0.376"",""0.940"",""0.847""]","[1,1,0,1]",0,42,42,42,1,0,1,,,1,FALSE,,,,,,,,,,,,,,,,,,,,,,,,,,,,,,,
,613a6c6bb8459052dd94feca,627c6d6e71b12638ac809f5e,2022-05-11_21h16.42.256,classification_task,2021.2.3,Win32,59.66231132,627c6715c52fd12f31907bcf,,,,,,,,,,,,,,,,,,,,,,,l,1,1.1602,"[""0.145"",""0.272"",""0.631"",""0.812""]","[1,1,0,1]",0,43,43,43,1,1,1,,,1,FALSE,,,,,,,,,,,,,,,,,,,,,,,,,,,,,,,
,613a6c6bb8459052dd94feca,627c6d6e71b12638ac809f5e,2022-05-11_21h16.42.256,classification_task,2021.2.3,Win32,59.66231132,627c6715c52fd12f31907bcf,,,,,,,,,,,,,,,,,,,,,,,l,0,1.0441,"[""0.186"",""0.376"",""0.583"",""0.315""]","[1,1,1,0]",0,44,44,44,1,0,1,,,1,FALSE,,,,,,,,,,,,,,,,,,,,,,,,,,,,,,,
,613a6c6bb8459052dd94feca,627c6d6e71b12638ac809f5e,2022-05-11_21h16.42.256,classification_task,2021.2.3,Win32,59.66231132,627c6715c52fd12f31907bcf,,,,,,,,,,,,,,,,,,,,,,,l,1,1.0274,"[""0.315"",""0.081"",""0.493"",""0.685""]","[0,1,1,1]",0,45,45,45,1,1,0,,,1,FALSE,,,,,,,,,,,,,,,,,,,,,,,,,,,,,,,
,613a6c6bb8459052dd94feca,627c6d6e71b12638ac809f5e,2022-05-11_21h16.42.256,classification_task,2021.2.3,Win32,59.66231132,627c6715c52fd12f31907bcf,,,,,,,,,,,,,,,,,,,,,,,a,0,1.1666,"[""0.044"",""0.081"",""0.493"",""0.322""]","[1,1,1,0]",0,46,46,46,1,1,0,,,1,FALSE,,,,,,,,,,,,,,,,,,,,,,,,,,,,,,,
,613a6c6bb8459052dd94feca,627c6d6e71b12638ac809f5e,2022-05-11_21h16.42.256,classification_task,2021.2.3,Win32,59.66231132,627c6715c52fd12f31907bcf,,,,,,,,,,,,,,,,,,,,,,,l,0,1.2301,"[""0.229"",""0.340"",""0.767"",""0.904""]","[1,0,1,1]",0,47,47,47,1,0,0,,,1,FALSE,,,,,,,,,,,,,,,,,,,,,,,,,,,,,,,
,613a6c6bb8459052dd94feca,627c6d6e71b12638ac809f5e,2022-05-11_21h16.42.256,classification_task,2021.2.3,Win32,59.66231132,627c6715c52fd12f31907bcf,,,,,,,,,,,,,,,,,,,,,,,l,1,1.3502,"[""0.145"",""0.272"",""0.458"",""0.720""]","[1,1,1,0]",0,48,48,48,1,1,1,,,1,FALSE,,,,,,,,,,,,,,,,,,,,,,,,,,,,,,,
,613a6c6bb8459052dd94feca,627c6d6e71b12638ac809f5e,2022-05-11_21h16.42.256,classification_task,2021.2.3,Win32,59.66231132,627c6715c52fd12f31907bcf,,,,,,,,,,,,,,,,,,,,,,,l,0,0.7946,"[""0.186"",""0.322"",""0.583"",""0.847""]","[1,0,1,1]",0,49,49,49,1,0,1,,,1,FALSE,,,,,,,,,,,,,,,,,,,,,,,,,,,,,,,
,613a6c6bb8459052dd94feca,627c6d6e71b12638ac809f5e,2022-05-11_21h16.42.256,classification_task,2021.2.3,Win32,59.66231132,627c6715c52fd12f31907bcf,,,,,,,,,,,,,,,,,,,,,,,a,1,0.9917,"[""0.229"",""0.416"",""0.340"",""0.904""]","[1,1,0,1]",0,50,50,50,1,0,0,,,1,FALSE,,,,,,,,,,,,,,,,,,,,,,,,,,,,,,,
,613a6c6bb8459052dd94feca,627c6d6e71b12638ac809f5e,2022-05-11_21h16.42.256,classification_task,2021.2.3,Win32,59.66231132,627c6715c52fd12f31907bcf,,,,,,,,,,,,,,,,,,,,,,,a,1,1.0718,"[""0.229"",""0.416"",""0.767"",""0.320""]","[1,1,1,0]",0,51,51,51,1,0,0,,,1,FALSE,,,,,,,,,,,,,,,,,,,,,,,,,,,,,,,
,613a6c6bb8459052dd94feca,627c6d6e71b12638ac809f5e,2022-05-11_21h16.42.256,classification_task,2021.2.3,Win32,59.66231132,627c6715c52fd12f31907bcf,,,,,,,,,,,,,,,,,,,,,,,l,0,1.4403,"[""0.315"",""0.416"",""0.767"",""0.904""]","[0,1,1,1]",0,52,52,52,1,0,0,,,1,FALSE,,,,,,,,,,,,,,,,,,,,,,,,,,,,,,,
,613a6c6bb8459052dd94feca,627c6d6e71b12638ac809f5e,2022-05-11_21h16.42.256,classification_task,2021.2.3,Win32,59.66231132,627c6715c52fd12f31907bcf,,,,,,,,,,,,,,,,,,,,,,,l,1,1.3752,"[""0.939"",""0.272"",""0.458"",""0.812""]","[0,1,1,1]",0,53,53,53,1,1,1,,,1,FALSE,,,,,,,,,,,,,,,,,,,,,,,,,,,,,,,
,613a6c6bb8459052dd94feca,627c6d6e71b12638ac809f5e,2022-05-11_21h16.42.256,classification_task,2021.2.3,Win32,59.66231132,627c6715c52fd12f31907bcf,,,,,,,,,,,,,,,,,,,,,,,l,0,1.0576,"[""0.186"",""0.376"",""0.631"",""0.847""]","[1,1,0,1]",0,54,54,54,1,0,1,,,1,FALSE,,,,,,,,,,,,,,,,,,,,,,,,,,,,,,,
,613a6c6bb8459052dd94feca,627c6d6e71b12638ac809f5e,2022-05-11_21h16.42.256,classification_task,2021.2.3,Win32,59.66231132,627c6715c52fd12f31907bcf,,,,,,,,,,,,,,,,,,,,,,,l,1,0.9666,"[""0.044"",""0.081"",""0.493"",""0.940""]","[1,1,1,0]",0,55,55,55,1,1,0,,,1,FALSE,,,,,,,,,,,,,,,,,,,,,,,,,,,,,,,
,613a6c6bb8459052dd94feca,627c6d6e71b12638ac809f5e,2022-05-11_21h16.42.256,classification_task,2021.2.3,Win32,59.66231132,627c6715c52fd12f31907bcf,,,,,,,,,,,,,,,,,,,,,,,l,1,0.829,"[""0.044"",""0.340"",""0.493"",""0.685""]","[1,0,1,1]",0,56,56,56,1,1,0,,,1,FALSE,,,,,,,,,,,,,,,,,,,,,,,,,,,,,,,
,613a6c6bb8459052dd94feca,627c6d6e71b12638ac809f5e,2022-05-11_21h16.42.256,classification_task,2021.2.3,Win32,59.66231132,627c6715c52fd12f31907bcf,,,,,,,,,,,,,,,,,,,,,,,a,1,0.6479,"[""0.325"",""0.376"",""0.583"",""0.847""]","[0,1,1,1]",0,57,57,57,1,0,1,,,1,FALSE,,,,,,,,,,,,,,,,,,,,,,,,,,,,,,,
,613a6c6bb8459052dd94feca,627c6d6e71b12638ac809f5e,2022-05-11_21h16.42.256,classification_task,2021.2.3,Win32,59.66231132,627c6715c52fd12f31907bcf,,,,,,,,,,,,,,,,,,,,,,,a,1,1.2137,"[""0.229"",""0.722"",""0.767"",""0.904""]","[1,0,1,1]",0,58,58,58,1,0,0,,,1,FALSE,,,,,,,,,,,,,,,,,,,,,,,,,,,,,,,
,613a6c6bb8459052dd94feca,627c6d6e71b12638ac809f5e,2022-05-11_21h16.42.256,classification_task,2021.2.3,Win32,59.66231132,627c6715c52fd12f31907bcf,,,,,,,,,,,,,,,,,,,,,,,l,1,1.1668,"[""0.325"",""0.081"",""0.493"",""0.685""]","[0,1,1,1]",0,59,59,59,1,1,0,,,1,FALSE,,,,,,,,,,,,,,,,,,,,,,,,,,,,,,,
,613a6c6bb8459052dd94feca,627c6d6e71b12638ac809f5e,2022-05-11_21h16.42.256,classification_task,2021.2.3,Win32,59.66231132,627c6715c52fd12f31907bcf,,,,,,,,,,,,,,,,,,,,,,,a,1,1.2838,"[""0.186"",""0.376"",""0.583"",""0.313""]","[1,1,1,0]",0,60,60,60,1,0,1,,,1,FALSE,,,,,,,,,,,,,,,,,,,,,,,,,,,,,,,
,613a6c6bb8459052dd94feca,627c6d6e71b12638ac809f5e,2022-05-11_21h16.42.256,classification_task,2021.2.3,Win32,59.66231132,627c6715c52fd12f31907bcf,,,,,,,,,,,,,,,,,,,,,,,l,1,2.2446,"[""0.145"",""0.649"",""0.458"",""0.812""]","[1,0,1,1]",0,61,61,61,1,1,1,,,1,FALSE,,,,,,,,,,,,,,,,,,,,,,,,,,,,,,,
,613a6c6bb8459052dd94feca,627c6d6e71b12638ac809f5e,2022-05-11_21h16.42.256,classification_task,2021.2.3,Win32,59.66231132,627c6715c52fd12f31907bcf,,,,,,,,,,,,,,,,,,,,,,,a,0,0.7277,"[""0.044"",""0.081"",""0.313"",""0.685""]","[1,1,0,1]",0,62,62,62,1,1,0,,,1,FALSE,,,,,,,,,,,,,,,,,,,,,,,,,,,,,,,
,613a6c6bb8459052dd94feca,627c6d6e71b12638ac809f5e,2022-05-11_21h16.42.256,classification_task,2021.2.3,Win32,59.66231132,627c6715c52fd12f31907bcf,,,,,,,,,,,,,,,,,,,,,,,a,0,0.7789,"[""0.145"",""0.272"",""0.325"",""0.812""]","[1,1,0,1]",0,63,63,63,1,1,1,,,1,FALSE,,,,,,,,,,,,,,,,,,,,,,,,,,,,,,,
,613a6c6bb8459052dd94feca,627c6d6e71b12638ac809f5e,2022-05-11_21h16.42.256,classification_task,2021.2.3,Win32,59.66231132,627c6715c52fd12f31907bcf,,,,,,,,,,,,,,,,,,,,,,,,,,,,,,,,,,,,,,,0, ,,0,9.753637566,400.8659,0,0,0,0,1,2,1,,,,,,,,,,,,,,,,,,
,613a6c6bb8459052dd94feca,627c6d6e71b12638ac809f5e,2022-05-11_21h16.42.256,classification_task,2021.2.3,Win32,59.66231132,627c6715c52fd12f31907bcf,,,,,,,,,,,,,,,,,,,,,,,,,,,,,,,,,,,,,,,1,  ,,0,7.859071869,407.3845,0,0,0,0,1,2,1,,,,,,,,,,,,,,,,,,
,613a6c6bb8459052dd94feca,627c6d6e71b12638ac809f5e,2022-05-11_21h16.42.256,classification_task,2021.2.3,Win32,59.66231132,627c6715c52fd12f31907bcf,,,,,,,,,,,,,,,,,,,,,,,,,,,,,,,,,,,,,,,2,  ,,0,1.762014991,411.9067,0,0,0,0,1,2,1,,,,,,,,,,,,,,,,,,
,613a6c6bb8459052dd94feca,627c6d6e71b12638ac809f5e,2022-05-11_21h16.42.256,classification_task,2021.2.3,Win32,59.66231132,627c6715c52fd12f31907bcf,,,,,,,,,,,,,,,,,,,,,,,,,,,,,,,,,,,,,,,,,,,,,0,0,0,0,1,,1,,,,,,,,,,,,,,,,,,
,613a6c6bb8459052dd94feca,627c6d6e71b12638ac809f5e,2022-05-11_21h16.42.256,classification_task,2021.2.3,Win32,59.66231132,627c6715c52fd12f31907bcf,,,,,,,,,,,,,,,,,,,,,space,15.5192,a,1,1.86,"[""0.229"",""0.416"",""0.340"",""0.904""]","[1,1,0,1]",0,0,0,0,1,0,0,,,1,FALSE,,,,,,,,,,,,,,,,,,,,,,,,,,,,,,,
,613a6c6bb8459052dd94feca,627c6d6e71b12638ac809f5e,2022-05-11_21h16.42.256,classification_task,2021.2.3,Win32,59.66231132,627c6715c52fd12f31907bcf,,,,,,,,,,,,,,,,,,,,,,,l,1,1.8365,"[""0.145"",""0.272"",""0.458"",""0.628""]","[1,1,1,0]",0,1,1,1,1,1,1,,,1,FALSE,,,,,,,,,,,,,,,,,,,,,,,,,,,,,,,
,613a6c6bb8459052dd94feca,627c6d6e71b12638ac809f5e,2022-05-11_21h16.42.256,classification_task,2021.2.3,Win32,59.66231132,627c6715c52fd12f31907bcf,,,,,,,,,,,,,,,,,,,,,,,a,1,0.7718,"[""0.631"",""0.376"",""0.583"",""0.847""]","[0,1,1,1]",0,2,2,2,1,0,1,,,1,FALSE,,,,,,,,,,,,,,,,,,,,,,,,,,,,,,,
,613a6c6bb8459052dd94feca,627c6d6e71b12638ac809f5e,2022-05-11_21h16.42.256,classification_task,2021.2.3,Win32,59.66231132,627c6715c52fd12f31907bcf,,,,,,,,,,,,,,,,,,,,,,,l,1,1.5139,"[""0.722"",""0.081"",""0.493"",""0.685""]","[0,1,1,1]",0,3,3,3,1,1,0,,,1,FALSE,,,,,,,,,,,,,,,,,,,,,,,,,,,,,,,
,613a6c6bb8459052dd94feca,627c6d6e71b12638ac809f5e,2022-05-11_21h16.42.256,classification_task,2021.2.3,Win32,59.66231132,627c6715c52fd12f31907bcf,,,,,,,,,,,,,,,,,,,,,,,l,1,0.9132,"[""0.320"",""0.272"",""0.458"",""0.812""]","[0,1,1,1]",0,4,4,4,1,1,1,,,1,FALSE,,,,,,,,,,,,,,,,,,,,,,,,,,,,,,,
,613a6c6bb8459052dd94feca,627c6d6e71b12638ac809f5e,2022-05-11_21h16.42.256,classification_task,2021.2.3,Win32,59.66231132,627c6715c52fd12f31907bcf,,,,,,,,,,,,,,,,,,,,,,,a,0,0.9286,"[""0.044"",""0.322"",""0.493"",""0.685""]","[1,0,1,1]",0,5,5,5,1,1,0,,,1,FALSE,,,,,,,,,,,,,,,,,,,,,,,,,,,,,,,
,613a6c6bb8459052dd94feca,627c6d6e71b12638ac809f5e,2022-05-11_21h16.42.256,classification_task,2021.2.3,Win32,59.66231132,627c6715c52fd12f31907bcf,,,,,,,,,,,,,,,,,,,,,,,a,0,0.7297,"[""0.044"",""0.081"",""0.493"",""0.722""]","[1,1,1,0]",0,6,6,6,1,1,0,,,1,FALSE,,,,,,,,,,,,,,,,,,,,,,,,,,,,,,,
,613a6c6bb8459052dd94feca,627c6d6e71b12638ac809f5e,2022-05-11_21h16.42.256,classification_task,2021.2.3,Win32,59.66231132,627c6715c52fd12f31907bcf,,,,,,,,,,,,,,,,,,,,,,,l,1,0.8318,"[""0.145"",""0.272"",""0.313"",""0.812""]","[1,1,0,1]",0,7,7,7,1,1,1,,,1,FALSE,,,,,,,,,,,,,,,,,,,,,,,,,,,,,,,
,613a6c6bb8459052dd94feca,627c6d6e71b12638ac809f5e,2022-05-11_21h16.42.256,classification_task,2021.2.3,Win32,59.66231132,627c6715c52fd12f31907bcf,,,,,,,,,,,,,,,,,,,,,,,l,0,0.7814,"[""0.229"",""0.416"",""0.767"",""0.649""]","[1,1,1,0]",0,8,8,8,1,0,0,,,1,FALSE,,,,,,,,,,,,,,,,,,,,,,,,,,,,,,,
,613a6c6bb8459052dd94feca,627c6d6e71b12638ac809f5e,2022-05-11_21h16.42.256,classification_task,2021.2.3,Win32,59.66231132,627c6715c52fd12f31907bcf,,,,,,,,,,,,,,,,,,,,,,,l,0,0.7752,"[""0.229"",""0.649"",""0.767"",""0.904""]","[1,0,1,1]",0,9,9,9,1,0,0,,,1,FALSE,,,,,,,,,,,,,,,,,,,,,,,,,,,,,,,
,613a6c6bb8459052dd94feca,627c6d6e71b12638ac809f5e,2022-05-11_21h16.42.256,classification_task,2021.2.3,Win32,59.66231132,627c6715c52fd12f31907bcf,,,,,,,,,,,,,,,,,,,,,,,a,0,1.6309,"[""0.044"",""0.081"",""0.940"",""0.685""]","[1,1,0,1]",0,10,10,10,1,1,0,,,1,FALSE,,,,,,,,,,,,,,,,,,,,,,,,,,,,,,,
,613a6c6bb8459052dd94feca,627c6d6e71b12638ac809f5e,2022-05-11_21h16.42.256,classification_task,2021.2.3,Win32,59.66231132,627c6715c52fd12f31907bcf,,,,,,,,,,,,,,,,,,,,,,,l,0,0.9942,"[""0.631"",""0.416"",""0.767"",""0.904""]","[0,1,1,1]",0,11,11,11,1,0,0,,,1,FALSE,,,,,,,,,,,,,,,,,,,,,,,,,,,,,,,
,613a6c6bb8459052dd94feca,627c6d6e71b12638ac809f5e,2022-05-11_21h16.42.256,classification_task,2021.2.3,Win32,59.66231132,627c6715c52fd12f31907bcf,,,,,,,,,,,,,,,,,,,,,,,a,1,0.6787,"[""0.186"",""0.376"",""0.583"",""0.313""]","[1,1,1,0]",0,12,12,12,1,0,1,,,1,FALSE,,,,,,,,,,,,,,,,,,,,,,,,,,,,,,,
,613a6c6bb8459052dd94feca,627c6d6e71b12638ac809f5e,2022-05-11_21h16.42.256,classification_task,2021.2.3,Win32,59.66231132,627c6715c52fd12f31907bcf,,,,,,,,,,,,,,,,,,,,,,,a,1,0.7242,"[""0.186"",""0.376"",""0.649"",""0.847""]","[1,1,0,1]",0,13,13,13,1,0,1,,,1,FALSE,,,,,,,,,,,,,,,,,,,,,,,,,,,,,,,
,613a6c6bb8459052dd94feca,627c6d6e71b12638ac809f5e,2022-05-11_21h16.42.256,classification_task,2021.2.3,Win32,59.66231132,627c6715c52fd12f31907bcf,,,,,,,,,,,,,,,,,,,,,,,l,1,0.6785,"[""0.145"",""0.320"",""0.458"",""0.812""]","[1,0,1,1]",0,14,14,14,1,1,1,,,1,FALSE,,,,,,,,,,,,,,,,,,,,,,,,,,,,,,,
,613a6c6bb8459052dd94feca,627c6d6e71b12638ac809f5e,2022-05-11_21h16.42.256,classification_task,2021.2.3,Win32,59.66231132,627c6715c52fd12f31907bcf,,,,,,,,,,,,,,,,,,,,,,,a,1,0.6823,"[""0.186"",""0.325"",""0.583"",""0.847""]","[1,0,1,1]",0,15,15,15,1,0,1,,,1,FALSE,,,,,,,,,,,,,,,,,,,,,,,,,,,,,,,
,613a6c6bb8459052dd94feca,627c6d6e71b12638ac809f5e,2022-05-11_21h16.42.256,classification_task,2021.2.3,Win32,59.66231132,627c6715c52fd12f31907bcf,,,,,,,,,,,,,,,,,,,,,,,a,0,0.6946,"[""0.044"",""0.081"",""0.322"",""0.685""]","[1,1,0,1]",0,16,16,16,1,1,0,,,1,FALSE,,,,,,,,,,,,,,,,,,,,,,,,,,,,,,,
,613a6c6bb8459052dd94feca,627c6d6e71b12638ac809f5e,2022-05-11_21h16.42.256,classification_task,2021.2.3,Win32,59.66231132,627c6715c52fd12f31907bcf,,,,,,,,,,,,,,,,,,,,,,,l,0,1.0763,"[""0.939"",""0.416"",""0.767"",""0.904""]","[0,1,1,1]",0,17,17,17,1,0,0,,,1,FALSE,,,,,,,,,,,,,,,,,,,,,,,,,,,,,,,
,613a6c6bb8459052dd94feca,627c6d6e71b12638ac809f5e,2022-05-11_21h16.42.256,classification_task,2021.2.3,Win32,59.66231132,627c6715c52fd12f31907bcf,,,,,,,,,,,,,,,,,,,,,,,a,1,0.723,"[""0.186"",""0.376"",""0.583"",""0.939""]","[1,1,1,0]",0,18,18,18,1,0,1,,,1,FALSE,,,,,,,,,,,,,,,,,,,,,,,,,,,,,,,
,613a6c6bb8459052dd94feca,627c6d6e71b12638ac809f5e,2022-05-11_21h16.42.256,classification_task,2021.2.3,Win32,59.66231132,627c6715c52fd12f31907bcf,,,,,,,,,,,,,,,,,,,,,,,a,1,0.8312,"[""0.186"",""0.376"",""0.315"",""0.847""]","[1,1,0,1]",0,19,19,19,1,0,1,,,1,FALSE,,,,,,,,,,,,,,,,,,,,,,,,,,,,,,,
,613a6c6bb8459052dd94feca,627c6d6e71b12638ac809f5e,2022-05-11_21h16.42.256,classification_task,2021.2.3,Win32,59.66231132,627c6715c52fd12f31907bcf,,,,,,,,,,,,,,,,,,,,,,,l,0,0.6972,"[""0.322"",""0.376"",""0.583"",""0.847""]","[0,1,1,1]",0,20,20,20,1,0,1,,,1,FALSE,,,,,,,,,,,,,,,,,,,,,,,,,,,,,,,
,613a6c6bb8459052dd94feca,627c6d6e71b12638ac809f5e,2022-05-11_21h16.42.256,classification_task,2021.2.3,Win32,59.66231132,627c6715c52fd12f31907bcf,,,,,,,,,,,,,,,,,,,,,,,l,1,1.4035,"[""0.322"",""0.081"",""0.493"",""0.685""]","[0,1,1,1]",0,21,21,21,1,1,0,,,1,FALSE,,,,,,,,,,,,,,,,,,,,,,,,,,,,,,,
,613a6c6bb8459052dd94feca,627c6d6e71b12638ac809f5e,2022-05-11_21h16.42.256,classification_task,2021.2.3,Win32,59.66231132,627c6715c52fd12f31907bcf,,,,,,,,,,,,,,,,,,,,,,,a,1,1.226,"[""0.229"",""0.416"",""0.767"",""0.649""]","[1,1,1,0]",0,22,22,22,1,0,0,,,1,FALSE,,,,,,,,,,,,,,,,,,,,,,,,,,,,,,,
,613a6c6bb8459052dd94feca,627c6d6e71b12638ac809f5e,2022-05-11_21h16.42.256,classification_task,2021.2.3,Win32,59.66231132,627c6715c52fd12f31907bcf,,,,,,,,,,,,,,,,,,,,,,,l,1,0.8004,"[""0.145"",""0.322"",""0.458"",""0.812""]","[1,0,1,1]",0,23,23,23,1,1,1,,,1,FALSE,,,,,,,,,,,,,,,,,,,,,,,,,,,,,,,
,613a6c6bb8459052dd94feca,627c6d6e71b12638ac809f5e,2022-05-11_21h16.42.256,classification_task,2021.2.3,Win32,59.66231132,627c6715c52fd12f31907bcf,,,,,,,,,,,,,,,,,,,,,,,l,1,0.566,"[""0.044"",""0.081"",""0.493"",""0.322""]","[1,1,1,0]",0,24,24,24,1,1,0,,,1,FALSE,,,,,,,,,,,,,,,,,,,,,,,,,,,,,,,
,613a6c6bb8459052dd94feca,627c6d6e71b12638ac809f5e,2022-05-11_21h16.42.256,classification_task,2021.2.3,Win32,59.66231132,627c6715c52fd12f31907bcf,,,,,,,,,,,,,,,,,,,,,,,l,1,2.0605,"[""0.145"",""0.272"",""0.720"",""0.812""]","[1,1,0,1]",0,25,25,25,1,1,1,,,1,FALSE,,,,,,,,,,,,,,,,,,,,,,,,,,,,,,,
,613a6c6bb8459052dd94feca,627c6d6e71b12638ac809f5e,2022-05-11_21h16.42.256,classification_task,2021.2.3,Win32,59.66231132,627c6715c52fd12f31907bcf,,,,,,,,,,,,,,,,,,,,,,,a,1,2.0635,"[""0.229"",""0.416"",""0.649"",""0.904""]","[1,1,0,1]",0,26,26,26,1,0,0,,,1,FALSE,,,,,,,,,,,,,,,,,,,,,,,,,,,,,,,
,613a6c6bb8459052dd94feca,627c6d6e71b12638ac809f5e,2022-05-11_21h16.42.256,classification_task,2021.2.3,Win32,59.66231132,627c6715c52fd12f31907bcf,,,,,,,,,,,,,,,,,,,,,,,a,0,3.262,"[""0.044"",""0.940"",""0.493"",""0.685""]","[1,0,1,1]",0,27,27,27,1,1,0,,,1,FALSE,,,,,,,,,,,,,,,,,,,,,,,,,,,,,,,
,613a6c6bb8459052dd94feca,627c6d6e71b12638ac809f5e,2022-05-11_21h16.42.256,classification_task,2021.2.3,Win32,59.66231132,627c6715c52fd12f31907bcf,,,,,,,,,,,,,,,,,,,,,,,l,1,0.83,"[""0.940"",""0.272"",""0.458"",""0.812""]","[0,1,1,1]",0,28,28,28,1,1,1,,,1,FALSE,,,,,,,,,,,,,,,,,,,,,,,,,,,,,,,
,613a6c6bb8459052dd94feca,627c6d6e71b12638ac809f5e,2022-05-11_21h16.42.256,classification_task,2021.2.3,Win32,59.66231132,627c6715c52fd12f31907bcf,,,,,,,,,,,,,,,,,,,,,,,a,1,1.6296,"[""0.229"",""0.940"",""0.767"",""0.904""]","[1,0,1,1]",0,29,29,29,1,0,0,,,1,FALSE,,,,,,,,,,,,,,,,,,,,,,,,,,,,,,,
,613a6c6bb8459052dd94feca,627c6d6e71b12638ac809f5e,2022-05-11_21h16.42.256,classification_task,2021.2.3,Win32,59.66231132,627c6715c52fd12f31907bcf,,,,,,,,,,,,,,,,,,,,,,,l,1,0.8977,"[""0.145"",""0.272"",""0.458"",""0.722""]","[1,1,1,0]",0,30,30,30,1,1,1,,,1,FALSE,,,,,,,,,,,,,,,,,,,,,,,,,,,,,,,
,613a6c6bb8459052dd94feca,627c6d6e71b12638ac809f5e,2022-05-11_21h16.42.256,classification_task,2021.2.3,Win32,59.66231132,627c6715c52fd12f31907bcf,,,,,,,,,,,,,,,,,,,,,,,a,1,1.1859,"[""0.186"",""0.720"",""0.583"",""0.847""]","[1,0,1,1]",0,31,31,31,1,0,1,,,1,FALSE,,,,,,,,,,,,,,,,,,,,,,,,,,,,,,,
,613a6c6bb8459052dd94feca,627c6d6e71b12638ac809f5e,2022-05-11_21h16.42.256,classification_task,2021.2.3,Win32,59.66231132,627c6715c52fd12f31907bcf,,,,,,,,,,,,,,,,,,,,,,,a,1,0.6603,"[""0.722"",""0.376"",""0.583"",""0.847""]","[0,1,1,1]",0,32,32,32,1,0,1,,,1,FALSE,,,,,,,,,,,,,,,,,,,,,,,,,,,,,,,
,613a6c6bb8459052dd94feca,627c6d6e71b12638ac809f5e,2022-05-11_21h16.42.256,classification_task,2021.2.3,Win32,59.66231132,627c6715c52fd12f31907bcf,,,,,,,,,,,,,,,,,,,,,,,l,1,0.8159,"[""0.310"",""0.081"",""0.493"",""0.685""]","[0,1,1,1]",0,33,33,33,1,1,0,,,1,FALSE,,,,,,,,,,,,,,,,,,,,,,,,,,,,,,,
,613a6c6bb8459052dd94feca,627c6d6e71b12638ac809f5e,2022-05-11_21h16.42.256,classification_task,2021.2.3,Win32,59.66231132,627c6715c52fd12f31907bcf,,,,,,,,,,,,,,,,,,,,,,,l,1,0.879,"[""0.145"",""0.272"",""0.322"",""0.812""]","[1,1,0,1]",0,34,34,34,1,1,1,,,1,FALSE,,,,,,,,,,,,,,,,,,,,,,,,,,,,,,,
,613a6c6bb8459052dd94feca,627c6d6e71b12638ac809f5e,2022-05-11_21h16.42.256,classification_task,2021.2.3,Win32,59.66231132,627c6715c52fd12f31907bcf,,,,,,,,,,,,,,,,,,,,,,,l,1,0.5841,"[""0.145"",""0.720"",""0.458"",""0.812""]","[1,0,1,1]",0,35,35,35,1,1,1,,,1,FALSE,,,,,,,,,,,,,,,,,,,,,,,,,,,,,,,
,613a6c6bb8459052dd94feca,627c6d6e71b12638ac809f5e,2022-05-11_21h16.42.256,classification_task,2021.2.3,Win32,59.66231132,627c6715c52fd12f31907bcf,,,,,,,,,,,,,,,,,,,,,,,a,1,0.6582,"[""0.186"",""0.340"",""0.583"",""0.847""]","[1,0,1,1]",0,36,36,36,1,0,1,,,1,FALSE,,,,,,,,,,,,,,,,,,,,,,,,,,,,,,,
,613a6c6bb8459052dd94feca,627c6d6e71b12638ac809f5e,2022-05-11_21h16.42.256,classification_task,2021.2.3,Win32,59.66231132,627c6715c52fd12f31907bcf,,,,,,,,,,,,,,,,,,,,,,,l,0,1.1806,"[""0.229"",""0.416"",""0.767"",""0.631""]","[1,1,1,0]",0,37,37,37,1,0,0,,,1,FALSE,,,,,,,,,,,,,,,,,,,,,,,,,,,,,,,
,613a6c6bb8459052dd94feca,627c6d6e71b12638ac809f5e,2022-05-11_21h16.42.256,classification_task,2021.2.3,Win32,59.66231132,627c6715c52fd12f31907bcf,,,,,,,,,,,,,,,,,,,,,,,a,1,1.2359,"[""0.229"",""0.340"",""0.767"",""0.904""]","[1,0,1,1]",0,38,38,38,1,0,0,,,1,FALSE,,,,,,,,,,,,,,,,,,,,,,,,,,,,,,,
,613a6c6bb8459052dd94feca,627c6d6e71b12638ac809f5e,2022-05-11_21h16.42.256,classification_task,2021.2.3,Win32,59.66231132,627c6715c52fd12f31907bcf,,,,,,,,,,,,,,,,,,,,,,,l,1,1.6189,"[""0.145"",""0.272"",""0.458"",""0.720""]","[1,1,1,0]",0,39,39,39,1,1,1,,,1,FALSE,,,,,,,,,,,,,,,,,,,,,,,,,,,,,,,
,613a6c6bb8459052dd94feca,627c6d6e71b12638ac809f5e,2022-05-11_21h16.42.256,classification_task,2021.2.3,Win32,59.66231132,627c6715c52fd12f31907bcf,,,,,,,,,,,,,,,,,,,,,,,l,0,1.3518,"[""0.229"",""0.416"",""0.313"",""0.904""]","[1,1,0,1]",0,40,40,40,1,0,0,,,1,FALSE,,,,,,,,,,,,,,,,,,,,,,,,,,,,,,,
,613a6c6bb8459052dd94feca,627c6d6e71b12638ac809f5e,2022-05-11_21h16.42.256,classification_task,2021.2.3,Win32,59.66231132,627c6715c52fd12f31907bcf,,,,,,,,,,,,,,,,,,,,,,,l,1,1.0906,"[""0.044"",""0.720"",""0.493"",""0.685""]","[1,0,1,1]",0,41,41,41,1,1,0,,,1,FALSE,,,,,,,,,,,,,,,,,,,,,,,,,,,,,,,
,613a6c6bb8459052dd94feca,627c6d6e71b12638ac809f5e,2022-05-11_21h16.42.256,classification_task,2021.2.3,Win32,59.66231132,627c6715c52fd12f31907bcf,,,,,,,,,,,,,,,,,,,,,,,l,1,0.9093,"[""0.044"",""0.081"",""0.315"",""0.685""]","[1,1,0,1]",0,42,42,42,1,1,0,,,1,FALSE,,,,,,,,,,,,,,,,,,,,,,,,,,,,,,,
,613a6c6bb8459052dd94feca,627c6d6e71b12638ac809f5e,2022-05-11_21h16.42.256,classification_task,2021.2.3,Win32,59.66231132,627c6715c52fd12f31907bcf,,,,,,,,,,,,,,,,,,,,,,,l,1,1.2117,"[""0.044"",""0.081"",""0.493"",""0.939""]","[1,1,1,0]",0,43,43,43,1,1,0,,,1,FALSE,,,,,,,,,,,,,,,,,,,,,,,,,,,,,,,
,613a6c6bb8459052dd94feca,627c6d6e71b12638ac809f5e,2022-05-11_21h16.42.256,classification_task,2021.2.3,Win32,59.66231132,627c6715c52fd12f31907bcf,,,,,,,,,,,,,,,,,,,,,,,l,1,0.7799,"[""0.720"",""0.272"",""0.458"",""0.812""]","[0,1,1,1]",0,44,44,44,1,1,1,,,1,FALSE,,,,,,,,,,,,,,,,,,,,,,,,,,,,,,,
,613a6c6bb8459052dd94feca,627c6d6e71b12638ac809f5e,2022-05-11_21h16.42.256,classification_task,2021.2.3,Win32,59.66231132,627c6715c52fd12f31907bcf,,,,,,,,,,,,,,,,,,,,,,,a,1,0.6362,"[""0.186"",""0.376"",""0.722"",""0.847""]","[1,1,0,1]",0,45,45,45,1,0,1,,,1,FALSE,,,,,,,,,,,,,,,,,,,,,,,,,,,,,,,
,613a6c6bb8459052dd94feca,627c6d6e71b12638ac809f5e,2022-05-11_21h16.42.256,classification_task,2021.2.3,Win32,59.66231132,627c6715c52fd12f31907bcf,,,,,,,,,,,,,,,,,,,,,,,a,1,0.5829,"[""0.186"",""0.376"",""0.583"",""0.334""]","[1,1,1,0]",0,46,46,46,1,0,1,,,1,FALSE,,,,,,,,,,,,,,,,,,,,,,,,,,,,,,,
,613a6c6bb8459052dd94feca,627c6d6e71b12638ac809f5e,2022-05-11_21h16.42.256,classification_task,2021.2.3,Win32,59.66231132,627c6715c52fd12f31907bcf,,,,,,,,,,,,,,,,,,,,,,,a,1,1.4168,"[""0.649"",""0.416"",""0.767"",""0.904""]","[0,1,1,1]",0,47,47,47,1,0,0,,,1,FALSE,,,,,,,,,,,,,,,,,,,,,,,,,,,,,,,
,613a6c6bb8459052dd94feca,627c6d6e71b12638ac809f5e,2022-05-11_21h16.42.256,classification_task,2021.2.3,Win32,59.66231132,627c6715c52fd12f31907bcf,,,,,,,,,,,,,,,,,,,,,,,a,1,1.0527,"[""0.186"",""0.376"",""0.583"",""0.939""]","[1,1,1,0]",0,48,48,48,1,0,1,,,1,FALSE,,,,,,,,,,,,,,,,,,,,,,,,,,,,,,,
,613a6c6bb8459052dd94feca,627c6d6e71b12638ac809f5e,2022-05-11_21h16.42.256,classification_task,2021.2.3,Win32,59.66231132,627c6715c52fd12f31907bcf,,,,,,,,,,,,,,,,,,,,,,,a,1,1.2079,"[""0.229"",""0.416"",""0.767"",""0.649""]","[1,1,1,0]",0,49,49,49,1,0,0,,,1,FALSE,,,,,,,,,,,,,,,,,,,,,,,,,,,,,,,
,613a6c6bb8459052dd94feca,627c6d6e71b12638ac809f5e,2022-05-11_21h16.42.256,classification_task,2021.2.3,Win32,59.66231132,627c6715c52fd12f31907bcf,,,,,,,,,,,,,,,,,,,,,,,a,1,0.6216,"[""0.325"",""0.376"",""0.583"",""0.847""]","[0,1,1,1]",0,50,50,50,1,0,1,,,1,FALSE,,,,,,,,,,,,,,,,,,,,,,,,,,,,,,,
,613a6c6bb8459052dd94feca,627c6d6e71b12638ac809f5e,2022-05-11_21h16.42.256,classification_task,2021.2.3,Win32,59.66231132,627c6715c52fd12f31907bcf,,,,,,,,,,,,,,,,,,,,,,,l,1,0.7223,"[""0.313"",""0.272"",""0.458"",""0.812""]","[0,1,1,1]",0,51,51,51,1,1,1,,,1,FALSE,,,,,,,,,,,,,,,,,,,,,,,,,,,,,,,
,613a6c6bb8459052dd94feca,627c6d6e71b12638ac809f5e,2022-05-11_21h16.42.256,classification_task,2021.2.3,Win32,59.66231132,627c6715c52fd12f31907bcf,,,,,,,,,,,,,,,,,,,,,,,a,0,2.0148,"[""0.044"",""0.628"",""0.493"",""0.685""]","[1,0,1,1]",0,52,52,52,1,1,0,,,1,FALSE,,,,,,,,,,,,,,,,,,,,,,,,,,,,,,,
,613a6c6bb8459052dd94feca,627c6d6e71b12638ac809f5e,2022-05-11_21h16.42.256,classification_task,2021.2.3,Win32,59.66231132,627c6715c52fd12f31907bcf,,,,,,,,,,,,,,,,,,,,,,,l,1,0.8659,"[""0.313"",""0.081"",""0.493"",""0.685""]","[0,1,1,1]",0,53,53,53,1,1,0,,,1,FALSE,,,,,,,,,,,,,,,,,,,,,,,,,,,,,,,
,613a6c6bb8459052dd94feca,627c6d6e71b12638ac809f5e,2022-05-11_21h16.42.256,classification_task,2021.2.3,Win32,59.66231132,627c6715c52fd12f31907bcf,,,,,,,,,,,,,,,,,,,,,,,l,1,1.2069,"[""0.044"",""0.081"",""0.334"",""0.685""]","[1,1,0,1]",0,54,54,54,1,1,0,,,1,FALSE,,,,,,,,,,,,,,,,,,,,,,,,,,,,,,,
,613a6c6bb8459052dd94feca,627c6d6e71b12638ac809f5e,2022-05-11_21h16.42.256,classification_task,2021.2.3,Win32,59.66231132,627c6715c52fd12f31907bcf,,,,,,,,,,,,,,,,,,,,,,,a,1,0.7443,"[""0.186"",""0.340"",""0.583"",""0.847""]","[1,0,1,1]",0,55,55,55,1,0,1,,,1,FALSE,,,,,,,,,,,,,,,,,,,,,,,,,,,,,,,
,613a6c6bb8459052dd94feca,627c6d6e71b12638ac809f5e,2022-05-11_21h16.42.256,classification_task,2021.2.3,Win32,59.66231132,627c6715c52fd12f31907bcf,,,,,,,,,,,,,,,,,,,,,,,a,1,0.8779,"[""0.229"",""0.940"",""0.767"",""0.904""]","[1,0,1,1]",0,56,56,56,1,0,0,,,1,FALSE,,,,,,,,,,,,,,,,,,,,,,,,,,,,,,,
,613a6c6bb8459052dd94feca,627c6d6e71b12638ac809f5e,2022-05-11_21h16.42.256,classification_task,2021.2.3,Win32,59.66231132,627c6715c52fd12f31907bcf,,,,,,,,,,,,,,,,,,,,,,,a,1,0.6659,"[""0.186"",""0.376"",""0.631"",""0.847""]","[1,1,0,1]",0,57,57,57,1,0,1,,,1,FALSE,,,,,,,,,,,,,,,,,,,,,,,,,,,,,,,
,613a6c6bb8459052dd94feca,627c6d6e71b12638ac809f5e,2022-05-11_21h16.42.256,classification_task,2021.2.3,Win32,59.66231132,627c6715c52fd12f31907bcf,,,,,,,,,,,,,,,,,,,,,,,l,1,1.132,"[""0.044"",""0.081"",""0.493"",""0.720""]","[1,1,1,0]",0,58,58,58,1,1,0,,,1,FALSE,,,,,,,,,,,,,,,,,,,,,,,,,,,,,,,
,613a6c6bb8459052dd94feca,627c6d6e71b12638ac809f5e,2022-05-11_21h16.42.256,classification_task,2021.2.3,Win32,59.66231132,627c6715c52fd12f31907bcf,,,,,,,,,,,,,,,,,,,,,,,l,1,0.8032,"[""0.145"",""0.325"",""0.458"",""0.812""]","[1,0,1,1]",0,59,59,59,1,1,1,,,1,FALSE,,,,,,,,,,,,,,,,,,,,,,,,,,,,,,,
,613a6c6bb8459052dd94feca,627c6d6e71b12638ac809f5e,2022-05-11_21h16.42.256,classification_task,2021.2.3,Win32,59.66231132,627c6715c52fd12f31907bcf,,,,,,,,,,,,,,,,,,,,,,,a,1,1.2178,"[""0.229"",""0.416"",""0.313"",""0.904""]","[1,1,0,1]",0,60,60,60,1,0,0,,,1,FALSE,,,,,,,,,,,,,,,,,,,,,,,,,,,,,,,
,613a6c6bb8459052dd94feca,627c6d6e71b12638ac809f5e,2022-05-11_21h16.42.256,classification_task,2021.2.3,Win32,59.66231132,627c6715c52fd12f31907bcf,,,,,,,,,,,,,,,,,,,,,,,l,1,1.3983,"[""0.145"",""0.272"",""0.631"",""0.812""]","[1,1,0,1]",0,61,61,61,1,1,1,,,1,FALSE,,,,,,,,,,,,,,,,,,,,,,,,,,,,,,,
,613a6c6bb8459052dd94feca,627c6d6e71b12638ac809f5e,2022-05-11_21h16.42.256,classification_task,2021.2.3,Win32,59.66231132,627c6715c52fd12f31907bcf,,,,,,,,,,,,,,,,,,,,,,,l,1,0.623,"[""0.145"",""0.272"",""0.458"",""0.320""]","[1,1,1,0]",0,62,62,62,1,1,1,,,1,FALSE,,,,,,,,,,,,,,,,,,,,,,,,,,,,,,,
,613a6c6bb8459052dd94feca,627c6d6e71b12638ac809f5e,2022-05-11_21h16.42.256,classification_task,2021.2.3,Win32,59.66231132,627c6715c52fd12f31907bcf,,,,,,,,,,,,,,,,,,,,,,,a,1,1.15,"[""0.334"",""0.416"",""0.767"",""0.904""]","[0,1,1,1]",0,63,63,63,1,0,0,,,1,FALSE,,,,,,,,,,,,,,,,,,,,,,,,,,,,,,,
,613a6c6bb8459052dd94feca,627c6d6e71b12638ac809f5e,2022-05-11_21h16.42.256,classification_task,2021.2.3,Win32,59.66231132,627c6715c52fd12f31907bcf,,,,,,,,,,,,,,,,,,,,,,,,,,,,,,,,,,,,,,,0, ,,0,0.280809083,157.9491,0,1,1,1,1,2,2,,,,,,,,,,,,,,,,,,
,613a6c6bb8459052dd94feca,627c6d6e71b12638ac809f5e,2022-05-11_21h16.42.256,classification_task,2021.2.3,Win32,59.66231132,627c6715c52fd12f31907bcf,,,,,,,,,,,,,,,,,,,,,,,,,,,,,,,,,,,,,,,1,  ,,0,4.621086861,162.0153,0,1,1,1,1,2,2,,,,,,,,,,,,,,,,,,
,613a6c6bb8459052dd94feca,627c6d6e71b12638ac809f5e,2022-05-11_21h16.42.256,classification_task,2021.2.3,Win32,59.66231132,627c6715c52fd12f31907bcf,,,,,,,,,,,,,,,,,,,,,,,,,,,,,,,,,,,,,,,2,  ,,0,3.93215388,166.3159,0,1,1,1,1,2,2,,,,,,,,,,,,,,,,,,
,613a6c6bb8459052dd94feca,627c6d6e71b12638ac809f5e,2022-05-11_21h16.42.256,classification_task,2021.2.3,Win32,59.66231132,627c6715c52fd12f31907bcf,,,,,,,,,,,,,,,,,,,,,,,,,,,,,,,,,,,,,,,,,,,,,0,1,1,1,1,,2,,,,,,,,,,,,,,,,,,
,613a6c6bb8459052dd94feca,627c6d6e71b12638ac809f5e,2022-05-11_21h16.42.256,classification_task,2021.2.3,Win32,59.66231132,627c6715c52fd12f31907bcf,,,,,,,,,,,,,,,,,,,,,space,9.8767,a,1,3.5065,"[""0.722"",""0.376"",""0.583"",""0.847""]","[0,1,1,1]",0,0,0,0,1,0,1,,,1,FALSE,,,,,,,,,,,,,,,,,,,,,,,,,,,,,,,
,613a6c6bb8459052dd94feca,627c6d6e71b12638ac809f5e,2022-05-11_21h16.42.256,classification_task,2021.2.3,Win32,59.66231132,627c6715c52fd12f31907bcf,,,,,,,,,,,,,,,,,,,,,,,l,1,1.9065,"[""0.145"",""0.313"",""0.458"",""0.812""]","[1,0,1,1]",0,1,1,1,1,1,1,,,1,FALSE,,,,,,,,,,,,,,,,,,,,,,,,,,,,,,,
,613a6c6bb8459052dd94feca,627c6d6e71b12638ac809f5e,2022-05-11_21h16.42.256,classification_task,2021.2.3,Win32,59.66231132,627c6715c52fd12f31907bcf,,,,,,,,,,,,,,,,,,,,,,,l,1,0.9055,"[""0.044"",""0.649"",""0.493"",""0.685""]","[1,0,1,1]",0,2,2,2,1,1,0,,,1,FALSE,,,,,,,,,,,,,,,,,,,,,,,,,,,,,,,
,613a6c6bb8459052dd94feca,627c6d6e71b12638ac809f5e,2022-05-11_21h16.42.256,classification_task,2021.2.3,Win32,59.66231132,627c6715c52fd12f31907bcf,,,,,,,,,,,,,,,,,,,,,,,a,1,0.6598,"[""0.229"",""0.416"",""0.649"",""0.904""]","[1,1,0,1]",0,3,3,3,1,0,0,,,1,FALSE,,,,,,,,,,,,,,,,,,,,,,,,,,,,,,,
,613a6c6bb8459052dd94feca,627c6d6e71b12638ac809f5e,2022-05-11_21h16.42.256,classification_task,2021.2.3,Win32,59.66231132,627c6715c52fd12f31907bcf,,,,,,,,,,,,,,,,,,,,,,,a,1,0.6389,"[""0.631"",""0.416"",""0.767"",""0.904""]","[0,1,1,1]",0,4,4,4,1,0,0,,,1,FALSE,,,,,,,,,,,,,,,,,,,,,,,,,,,,,,,
,613a6c6bb8459052dd94feca,627c6d6e71b12638ac809f5e,2022-05-11_21h16.42.256,classification_task,2021.2.3,Win32,59.66231132,627c6715c52fd12f31907bcf,,,,,,,,,,,,,,,,,,,,,,,l,1,2.4965,"[""0.044"",""0.081"",""0.939"",""0.685""]","[1,1,0,1]",0,5,5,5,1,1,0,,,1,FALSE,,,,,,,,,,,,,,,,,,,,,,,,,,,,,,,
,613a6c6bb8459052dd94feca,627c6d6e71b12638ac809f5e,2022-05-11_21h16.42.256,classification_task,2021.2.3,Win32,59.66231132,627c6715c52fd12f31907bcf,,,,,,,,,,,,,,,,,,,,,,,a,0,0.9945,"[""0.315"",""0.272"",""0.458"",""0.812""]","[0,1,1,1]",0,6,6,6,1,1,1,,,1,FALSE,,,,,,,,,,,,,,,,,,,,,,,,,,,,,,,
,613a6c6bb8459052dd94feca,627c6d6e71b12638ac809f5e,2022-05-11_21h16.42.256,classification_task,2021.2.3,Win32,59.66231132,627c6715c52fd12f31907bcf,,,,,,,,,,,,,,,,,,,,,,,l,1,1.8839,"[""0.044"",""0.081"",""0.493"",""0.939""]","[1,1,1,0]",0,7,7,7,1,1,0,,,1,FALSE,,,,,,,,,,,,,,,,,,,,,,,,,,,,,,,
,613a6c6bb8459052dd94feca,627c6d6e71b12638ac809f5e,2022-05-11_21h16.42.256,classification_task,2021.2.3,Win32,59.66231132,627c6715c52fd12f31907bcf,,,,,,,,,,,,,,,,,,,,,,,a,1,1.4875,"[""0.229"",""0.416"",""0.767"",""0.631""]","[1,1,1,0]",0,8,8,8,1,0,0,,,1,FALSE,,,,,,,,,,,,,,,,,,,,,,,,,,,,,,,
,613a6c6bb8459052dd94feca,627c6d6e71b12638ac809f5e,2022-05-11_21h16.42.256,classification_task,2021.2.3,Win32,59.66231132,627c6715c52fd12f31907bcf,,,,,,,,,,,,,,,,,,,,,,,l,1,3.1774,"[""0.145"",""0.272"",""0.940"",""0.812""]","[1,1,0,1]",0,9,9,9,1,1,1,,,1,FALSE,,,,,,,,,,,,,,,,,,,,,,,,,,,,,,,
,613a6c6bb8459052dd94feca,627c6d6e71b12638ac809f5e,2022-05-11_21h16.42.256,classification_task,2021.2.3,Win32,59.66231132,627c6715c52fd12f31907bcf,,,,,,,,,,,,,,,,,,,,,,,l,0,0.9735,"[""0.186"",""0.376"",""0.583"",""0.320""]","[1,1,1,0]",0,10,10,10,1,0,1,,,1,FALSE,,,,,,,,,,,,,,,,,,,,,,,,,,,,,,,
,613a6c6bb8459052dd94feca,627c6d6e71b12638ac809f5e,2022-05-11_21h16.42.256,classification_task,2021.2.3,Win32,59.66231132,627c6715c52fd12f31907bcf,,,,,,,,,,,,,,,,,,,,,,,a,0,1.6757,"[""0.722"",""0.081"",""0.493"",""0.685""]","[0,1,1,1]",0,11,11,11,1,1,0,,,1,FALSE,,,,,,,,,,,,,,,,,,,,,,,,,,,,,,,
,613a6c6bb8459052dd94feca,627c6d6e71b12638ac809f5e,2022-05-11_21h16.42.256,classification_task,2021.2.3,Win32,59.66231132,627c6715c52fd12f31907bcf,,,,,,,,,,,,,,,,,,,,,,,l,0,3.3056,"[""0.186"",""0.322"",""0.583"",""0.847""]","[1,0,1,1]",0,12,12,12,1,0,1,,,1,FALSE,,,,,,,,,,,,,,,,,,,,,,,,,,,,,,,
,613a6c6bb8459052dd94feca,627c6d6e71b12638ac809f5e,2022-05-11_21h16.42.256,classification_task,2021.2.3,Win32,59.66231132,627c6715c52fd12f31907bcf,,,,,,,,,,,,,,,,,,,,,,,a,1,2.3091,"[""0.186"",""0.376"",""0.722"",""0.847""]","[1,1,0,1]",0,13,13,13,1,0,1,,,1,FALSE,,,,,,,,,,,,,,,,,,,,,,,,,,,,,,,
,613a6c6bb8459052dd94feca,627c6d6e71b12638ac809f5e,2022-05-11_21h16.42.256,classification_task,2021.2.3,Win32,59.66231132,627c6715c52fd12f31907bcf,,,,,,,,,,,,,,,,,,,,,,,a,1,1.5218,"[""0.229"",""0.334"",""0.767"",""0.904""]","[1,0,1,1]",0,14,14,14,1,0,0,,,1,FALSE,,,,,,,,,,,,,,,,,,,,,,,,,,,,,,,
,613a6c6bb8459052dd94feca,627c6d6e71b12638ac809f5e,2022-05-11_21h16.42.256,classification_task,2021.2.3,Win32,59.66231132,627c6715c52fd12f31907bcf,,,,,,,,,,,,,,,,,,,,,,,l,1,1.1005,"[""0.145"",""0.272"",""0.458"",""0.939""]","[1,1,1,0]",0,15,15,15,1,1,1,,,1,FALSE,,,,,,,,,,,,,,,,,,,,,,,,,,,,,,,
,613a6c6bb8459052dd94feca,627c6d6e71b12638ac809f5e,2022-05-11_21h16.42.256,classification_task,2021.2.3,Win32,59.66231132,627c6715c52fd12f31907bcf,,,,,,,,,,,,,,,,,,,,,,,a,0,2.3296,"[""0.145"",""0.272"",""0.722"",""0.812""]","[1,1,0,1]",0,16,16,16,1,1,1,,,1,FALSE,,,,,,,,,,,,,,,,,,,,,,,,,,,,,,,
,613a6c6bb8459052dd94feca,627c6d6e71b12638ac809f5e,2022-05-11_21h16.42.256,classification_task,2021.2.3,Win32,59.66231132,627c6715c52fd12f31907bcf,,,,,,,,,,,,,,,,,,,,,,,l,1,0.9085,"[""0.145"",""0.272"",""0.458"",""0.939""]","[1,1,1,0]",0,17,17,17,1,1,1,,,1,FALSE,,,,,,,,,,,,,,,,,,,,,,,,,,,,,,,
,613a6c6bb8459052dd94feca,627c6d6e71b12638ac809f5e,2022-05-11_21h16.42.256,classification_task,2021.2.3,Win32,59.66231132,627c6715c52fd12f31907bcf,,,,,,,,,,,,,,,,,,,,,,,l,0,2.3703,"[""0.186"",""0.376"",""0.310"",""0.847""]","[1,1,0,1]",0,18,18,18,1,0,1,,,1,FALSE,,,,,,,,,,,,,,,,,,,,,,,,,,,,,,,
,613a6c6bb8459052dd94feca,627c6d6e71b12638ac809f5e,2022-05-11_21h16.42.256,classification_task,2021.2.3,Win32,59.66231132,627c6715c52fd12f31907bcf,,,,,,,,,,,,,,,,,,,,,,,a,1,1.1421,"[""0.322"",""0.416"",""0.767"",""0.904""]","[0,1,1,1]",0,19,19,19,1,0,0,,,1,FALSE,,,,,,,,,,,,,,,,,,,,,,,,,,,,,,,
,613a6c6bb8459052dd94feca,627c6d6e71b12638ac809f5e,2022-05-11_21h16.42.256,classification_task,2021.2.3,Win32,59.66231132,627c6715c52fd12f31907bcf,,,,,,,,,,,,,,,,,,,,,,,l,1,1.1134,"[""0.044"",""0.313"",""0.493"",""0.685""]","[1,0,1,1]",0,20,20,20,1,1,0,,,1,FALSE,,,,,,,,,,,,,,,,,,,,,,,,,,,,,,,
,613a6c6bb8459052dd94feca,627c6d6e71b12638ac809f5e,2022-05-11_21h16.42.256,classification_task,2021.2.3,Win32,59.66231132,627c6715c52fd12f31907bcf,,,,,,,,,,,,,,,,,,,,,,,a,0,1.0442,"[""0.145"",""0.720"",""0.458"",""0.812""]","[1,0,1,1]",0,21,21,21,1,1,1,,,1,FALSE,,,,,,,,,,,,,,,,,,,,,,,,,,,,,,,
,613a6c6bb8459052dd94feca,627c6d6e71b12638ac809f5e,2022-05-11_21h16.42.256,classification_task,2021.2.3,Win32,59.66231132,627c6715c52fd12f31907bcf,,,,,,,,,,,,,,,,,,,,,,,l,0,1.8968,"[""0.186"",""0.315"",""0.583"",""0.847""]","[1,0,1,1]",0,22,22,22,1,0,1,,,1,FALSE,,,,,,,,,,,,,,,,,,,,,,,,,,,,,,,
,613a6c6bb8459052dd94feca,627c6d6e71b12638ac809f5e,2022-05-11_21h16.42.256,classification_task,2021.2.3,Win32,59.66231132,627c6715c52fd12f31907bcf,,,,,,,,,,,,,,,,,,,,,,,l,0,1.0897,"[""0.229"",""0.416"",""0.767"",""0.310""]","[1,1,1,0]",0,23,23,23,1,0,0,,,1,FALSE,,,,,,,,,,,,,,,,,,,,,,,,,,,,,,,
,613a6c6bb8459052dd94feca,627c6d6e71b12638ac809f5e,2022-05-11_21h16.42.256,classification_task,2021.2.3,Win32,59.66231132,627c6715c52fd12f31907bcf,,,,,,,,,,,,,,,,,,,,,,,l,1,2.096,"[""0.044"",""0.081"",""0.720"",""0.685""]","[1,1,0,1]",0,24,24,24,1,1,0,,,1,FALSE,,,,,,,,,,,,,,,,,,,,,,,,,,,,,,,
,613a6c6bb8459052dd94feca,627c6d6e71b12638ac809f5e,2022-05-11_21h16.42.256,classification_task,2021.2.3,Win32,59.66231132,627c6715c52fd12f31907bcf,,,,,,,,,,,,,,,,,,,,,,,l,0,1.0896,"[""0.186"",""0.376"",""0.583"",""0.310""]","[1,1,1,0]",0,25,25,25,1,0,1,,,1,FALSE,,,,,,,,,,,,,,,,,,,,,,,,,,,,,,,
,613a6c6bb8459052dd94feca,627c6d6e71b12638ac809f5e,2022-05-11_21h16.42.256,classification_task,2021.2.3,Win32,59.66231132,627c6715c52fd12f31907bcf,,,,,,,,,,,,,,,,,,,,,,,a,1,0.8162,"[""0.229"",""0.416"",""0.628"",""0.904""]","[1,1,0,1]",0,26,26,26,1,0,0,,,1,FALSE,,,,,,,,,,,,,,,,,,,,,,,,,,,,,,,
,613a6c6bb8459052dd94feca,627c6d6e71b12638ac809f5e,2022-05-11_21h16.42.256,classification_task,2021.2.3,Win32,59.66231132,627c6715c52fd12f31907bcf,,,,,,,,,,,,,,,,,,,,,,,l,1,1.8904,"[""0.310"",""0.272"",""0.458"",""0.812""]","[0,1,1,1]",0,27,27,27,1,1,1,,,1,FALSE,,,,,,,,,,,,,,,,,,,,,,,,,,,,,,,
,613a6c6bb8459052dd94feca,627c6d6e71b12638ac809f5e,2022-05-11_21h16.42.256,classification_task,2021.2.3,Win32,59.66231132,627c6715c52fd12f31907bcf,,,,,,,,,,,,,,,,,,,,,,,a,1,0.7268,"[""0.229"",""0.631"",""0.767"",""0.904""]","[1,0,1,1]",0,28,28,28,1,0,0,,,1,FALSE,,,,,,,,,,,,,,,,,,,,,,,,,,,,,,,
,613a6c6bb8459052dd94feca,627c6d6e71b12638ac809f5e,2022-05-11_21h16.42.256,classification_task,2021.2.3,Win32,59.66231132,627c6715c52fd12f31907bcf,,,,,,,,,,,,,,,,,,,,,,,l,1,0.8671,"[""0.044"",""0.081"",""0.493"",""0.325""]","[1,1,1,0]",0,29,29,29,1,1,0,,,1,FALSE,,,,,,,,,,,,,,,,,,,,,,,,,,,,,,,
,613a6c6bb8459052dd94feca,627c6d6e71b12638ac809f5e,2022-05-11_21h16.42.256,classification_task,2021.2.3,Win32,59.66231132,627c6715c52fd12f31907bcf,,,,,,,,,,,,,,,,,,,,,,,a,1,0.8621,"[""0.720"",""0.376"",""0.583"",""0.847""]","[0,1,1,1]",0,30,30,30,1,0,1,,,1,FALSE,,,,,,,,,,,,,,,,,,,,,,,,,,,,,,,
,613a6c6bb8459052dd94feca,627c6d6e71b12638ac809f5e,2022-05-11_21h16.42.256,classification_task,2021.2.3,Win32,59.66231132,627c6715c52fd12f31907bcf,,,,,,,,,,,,,,,,,,,,,,,l,1,0.9179,"[""0.720"",""0.081"",""0.493"",""0.685""]","[0,1,1,1]",0,31,31,31,1,1,0,,,1,FALSE,,,,,,,,,,,,,,,,,,,,,,,,,,,,,,,
,613a6c6bb8459052dd94feca,627c6d6e71b12638ac809f5e,2022-05-11_21h16.42.256,classification_task,2021.2.3,Win32,59.66231132,627c6715c52fd12f31907bcf,,,,,,,,,,,,,,,,,,,,,,,l,1,0.8447,"[""0.044"",""0.081"",""0.325"",""0.685""]","[1,1,0,1]",0,32,32,32,1,1,0,,,1,FALSE,,,,,,,,,,,,,,,,,,,,,,,,,,,,,,,
,613a6c6bb8459052dd94feca,627c6d6e71b12638ac809f5e,2022-05-11_21h16.42.256,classification_task,2021.2.3,Win32,59.66231132,627c6715c52fd12f31907bcf,,,,,,,,,,,,,,,,,,,,,,,l,0,1.4344,"[""0.186"",""0.376"",""0.340"",""0.847""]","[1,1,0,1]",0,33,33,33,1,0,1,,,1,FALSE,,,,,,,,,,,,,,,,,,,,,,,,,,,,,,,
,613a6c6bb8459052dd94feca,627c6d6e71b12638ac809f5e,2022-05-11_21h16.42.256,classification_task,2021.2.3,Win32,59.66231132,627c6715c52fd12f31907bcf,,,,,,,,,,,,,,,,,,,,,,,a,1,1.28,"[""0.229"",""0.325"",""0.767"",""0.904""]","[1,0,1,1]",0,34,34,34,1,0,0,,,1,FALSE,,,,,,,,,,,,,,,,,,,,,,,,,,,,,,,
,613a6c6bb8459052dd94feca,627c6d6e71b12638ac809f5e,2022-05-11_21h16.42.256,classification_task,2021.2.3,Win32,59.66231132,627c6715c52fd12f31907bcf,,,,,,,,,,,,,,,,,,,,,,,l,1,1.5749,"[""0.145"",""0.272"",""0.631"",""0.812""]","[1,1,0,1]",0,35,35,35,1,1,1,,,1,FALSE,,,,,,,,,,,,,,,,,,,,,,,,,,,,,,,
,613a6c6bb8459052dd94feca,627c6d6e71b12638ac809f5e,2022-05-11_21h16.42.256,classification_task,2021.2.3,Win32,59.66231132,627c6715c52fd12f31907bcf,,,,,,,,,,,,,,,,,,,,,,,a,0,0.666,"[""0.649"",""0.272"",""0.458"",""0.812""]","[0,1,1,1]",0,36,36,36,1,1,1,,,1,FALSE,,,,,,,,,,,,,,,,,,,,,,,,,,,,,,,
,613a6c6bb8459052dd94feca,627c6d6e71b12638ac809f5e,2022-05-11_21h16.42.256,classification_task,2021.2.3,Win32,59.66231132,627c6715c52fd12f31907bcf,,,,,,,,,,,,,,,,,,,,,,,a,1,1.4751,"[""0.320"",""0.376"",""0.583"",""0.847""]","[0,1,1,1]",0,37,37,37,1,0,1,,,1,FALSE,,,,,,,,,,,,,,,,,,,,,,,,,,,,,,,
,613a6c6bb8459052dd94feca,627c6d6e71b12638ac809f5e,2022-05-11_21h16.42.256,classification_task,2021.2.3,Win32,59.66231132,627c6715c52fd12f31907bcf,,,,,,,,,,,,,,,,,,,,,,,l,1,1.1902,"[""0.649"",""0.081"",""0.493"",""0.685""]","[0,1,1,1]",0,38,38,38,1,1,0,,,1,FALSE,,,,,,,,,,,,,,,,,,,,,,,,,,,,,,,
,613a6c6bb8459052dd94feca,627c6d6e71b12638ac809f5e,2022-05-11_21h16.42.256,classification_task,2021.2.3,Win32,59.66231132,627c6715c52fd12f31907bcf,,,,,,,,,,,,,,,,,,,,,,,l,1,0.8722,"[""0.044"",""0.081"",""0.493"",""0.722""]","[1,1,1,0]",0,39,39,39,1,1,0,,,1,FALSE,,,,,,,,,,,,,,,,,,,,,,,,,,,,,,,
,613a6c6bb8459052dd94feca,627c6d6e71b12638ac809f5e,2022-05-11_21h16.42.256,classification_task,2021.2.3,Win32,59.66231132,627c6715c52fd12f31907bcf,,,,,,,,,,,,,,,,,,,,,,,l,1,0.7652,"[""0.145"",""0.272"",""0.458"",""0.940""]","[1,1,1,0]",0,40,40,40,1,1,1,,,1,FALSE,,,,,,,,,,,,,,,,,,,,,,,,,,,,,,,
,613a6c6bb8459052dd94feca,627c6d6e71b12638ac809f5e,2022-05-11_21h16.42.256,classification_task,2021.2.3,Win32,59.66231132,627c6715c52fd12f31907bcf,,,,,,,,,,,,,,,,,,,,,,,a,1,0.6643,"[""0.334"",""0.416"",""0.767"",""0.904""]","[0,1,1,1]",0,41,41,41,1,0,0,,,1,FALSE,,,,,,,,,,,,,,,,,,,,,,,,,,,,,,,
,613a6c6bb8459052dd94feca,627c6d6e71b12638ac809f5e,2022-05-11_21h16.42.256,classification_task,2021.2.3,Win32,59.66231132,627c6715c52fd12f31907bcf,,,,,,,,,,,,,,,,,,,,,,,l,0,0.6043,"[""0.186"",""0.315"",""0.583"",""0.847""]","[1,0,1,1]",0,42,42,42,1,0,1,,,1,FALSE,,,,,,,,,,,,,,,,,,,,,,,,,,,,,,,
,613a6c6bb8459052dd94feca,627c6d6e71b12638ac809f5e,2022-05-11_21h16.42.256,classification_task,2021.2.3,Win32,59.66231132,627c6715c52fd12f31907bcf,,,,,,,,,,,,,,,,,,,,,,,l,0,0.8655,"[""0.186"",""0.376"",""0.583"",""0.939""]","[1,1,1,0]",0,43,43,43,1,0,1,,,1,FALSE,,,,,,,,,,,,,,,,,,,,,,,,,,,,,,,
,613a6c6bb8459052dd94feca,627c6d6e71b12638ac809f5e,2022-05-11_21h16.42.256,classification_task,2021.2.3,Win32,59.66231132,627c6715c52fd12f31907bcf,,,,,,,,,,,,,,,,,,,,,,,a,0,0.7664,"[""0.044"",""0.940"",""0.493"",""0.685""]","[1,0,1,1]",0,44,44,44,1,1,0,,,1,FALSE,,,,,,,,,,,,,,,,,,,,,,,,,,,,,,,
,613a6c6bb8459052dd94feca,627c6d6e71b12638ac809f5e,2022-05-11_21h16.42.256,classification_task,2021.2.3,Win32,59.66231132,627c6715c52fd12f31907bcf,,,,,,,,,,,,,,,,,,,,,,,a,1,0.6292,"[""0.229"",""0.416"",""0.631"",""0.904""]","[1,1,0,1]",0,45,45,45,1,0,0,,,1,FALSE,,,,,,,,,,,,,,,,,,,,,,,,,,,,,,,
,613a6c6bb8459052dd94feca,627c6d6e71b12638ac809f5e,2022-05-11_21h16.42.256,classification_task,2021.2.3,Win32,59.66231132,627c6715c52fd12f31907bcf,,,,,,,,,,,,,,,,,,,,,,,a,1,1.345,"[""0.229"",""0.416"",""0.767"",""0.631""]","[1,1,1,0]",0,46,46,46,1,0,0,,,1,FALSE,,,,,,,,,,,,,,,,,,,,,,,,,,,,,,,
,613a6c6bb8459052dd94feca,627c6d6e71b12638ac809f5e,2022-05-11_21h16.42.256,classification_task,2021.2.3,Win32,59.66231132,627c6715c52fd12f31907bcf,,,,,,,,,,,,,,,,,,,,,,,l,1,0.7562,"[""0.145"",""0.320"",""0.458"",""0.812""]","[1,0,1,1]",0,47,47,47,1,1,1,,,1,FALSE,,,,,,,,,,,,,,,,,,,,,,,,,,,,,,,
,613a6c6bb8459052dd94feca,627c6d6e71b12638ac809f5e,2022-05-11_21h16.42.256,classification_task,2021.2.3,Win32,59.66231132,627c6715c52fd12f31907bcf,,,,,,,,,,,,,,,,,,,,,,,l,0,0.6236,"[""0.186"",""0.376"",""0.310"",""0.847""]","[1,1,0,1]",0,48,48,48,1,0,1,,,1,FALSE,,,,,,,,,,,,,,,,,,,,,,,,,,,,,,,
,613a6c6bb8459052dd94feca,627c6d6e71b12638ac809f5e,2022-05-11_21h16.42.256,classification_task,2021.2.3,Win32,59.66231132,627c6715c52fd12f31907bcf,,,,,,,,,,,,,,,,,,,,,,,a,0,0.6677,"[""0.145"",""0.272"",""0.940"",""0.812""]","[1,1,0,1]",0,49,49,49,1,1,1,,,1,FALSE,,,,,,,,,,,,,,,,,,,,,,,,,,,,,,,
,613a6c6bb8459052dd94feca,627c6d6e71b12638ac809f5e,2022-05-11_21h16.42.256,classification_task,2021.2.3,Win32,59.66231132,627c6715c52fd12f31907bcf,,,,,,,,,,,,,,,,,,,,,,,l,1,0.5797,"[""0.145"",""0.272"",""0.458"",""0.320""]","[1,1,1,0]",0,50,50,50,1,1,1,,,1,FALSE,,,,,,,,,,,,,,,,,,,,,,,,,,,,,,,
,613a6c6bb8459052dd94feca,627c6d6e71b12638ac809f5e,2022-05-11_21h16.42.256,classification_task,2021.2.3,Win32,59.66231132,627c6715c52fd12f31907bcf,,,,,,,,,,,,,,,,,,,,,,,a,1,0.6834,"[""0.340"",""0.416"",""0.767"",""0.904""]","[0,1,1,1]",0,51,51,51,1,0,0,,,1,FALSE,,,,,,,,,,,,,,,,,,,,,,,,,,,,,,,
,613a6c6bb8459052dd94feca,627c6d6e71b12638ac809f5e,2022-05-11_21h16.42.256,classification_task,2021.2.3,Win32,59.66231132,627c6715c52fd12f31907bcf,,,,,,,,,,,,,,,,,,,,,,,l,1,0.5651,"[""0.044"",""0.081"",""0.340"",""0.685""]","[1,1,0,1]",0,52,52,52,1,1,0,,,1,FALSE,,,,,,,,,,,,,,,,,,,,,,,,,,,,,,,
,613a6c6bb8459052dd94feca,627c6d6e71b12638ac809f5e,2022-05-11_21h16.42.256,classification_task,2021.2.3,Win32,59.66231132,627c6715c52fd12f31907bcf,,,,,,,,,,,,,,,,,,,,,,,l,0,0.593,"[""0.186"",""0.376"",""0.583"",""0.649""]","[1,1,1,0]",0,53,53,53,1,0,1,,,1,FALSE,,,,,,,,,,,,,,,,,,,,,,,,,,,,,,,
,613a6c6bb8459052dd94feca,627c6d6e71b12638ac809f5e,2022-05-11_21h16.42.256,classification_task,2021.2.3,Win32,59.66231132,627c6715c52fd12f31907bcf,,,,,,,,,,,,,,,,,,,,,,,l,0,0.9354,"[""0.229"",""0.416"",""0.315"",""0.904""]","[1,1,0,1]",0,54,54,54,1,0,0,,,1,FALSE,,,,,,,,,,,,,,,,,,,,,,,,,,,,,,,
,613a6c6bb8459052dd94feca,627c6d6e71b12638ac809f5e,2022-05-11_21h16.42.256,classification_task,2021.2.3,Win32,59.66231132,627c6715c52fd12f31907bcf,,,,,,,,,,,,,,,,,,,,,,,a,0,0.6615,"[""0.720"",""0.272"",""0.458"",""0.812""]","[0,1,1,1]",0,55,55,55,1,1,1,,,1,FALSE,,,,,,,,,,,,,,,,,,,,,,,,,,,,,,,
,613a6c6bb8459052dd94feca,627c6d6e71b12638ac809f5e,2022-05-11_21h16.42.256,classification_task,2021.2.3,Win32,59.66231132,627c6715c52fd12f31907bcf,,,,,,,,,,,,,,,,,,,,,,,l,1,1.2746,"[""0.044"",""0.315"",""0.493"",""0.685""]","[1,0,1,1]",0,56,56,56,1,1,0,,,1,FALSE,,,,,,,,,,,,,,,,,,,,,,,,,,,,,,,
,613a6c6bb8459052dd94feca,627c6d6e71b12638ac809f5e,2022-05-11_21h16.42.256,classification_task,2021.2.3,Win32,59.66231132,627c6715c52fd12f31907bcf,,,,,,,,,,,,,,,,,,,,,,,a,1,2.7574,"[""0.229"",""0.313"",""0.767"",""0.904""]","[1,0,1,1]",0,57,57,57,1,0,0,,,1,FALSE,,,,,,,,,,,,,,,,,,,,,,,,,,,,,,,
,613a6c6bb8459052dd94feca,627c6d6e71b12638ac809f5e,2022-05-11_21h16.42.256,classification_task,2021.2.3,Win32,59.66231132,627c6715c52fd12f31907bcf,,,,,,,,,,,,,,,,,,,,,,,a,0,0.7072,"[""0.145"",""0.631"",""0.458"",""0.812""]","[1,0,1,1]",0,58,58,58,1,1,1,,,1,FALSE,,,,,,,,,,,,,,,,,,,,,,,,,,,,,,,
,613a6c6bb8459052dd94feca,627c6d6e71b12638ac809f5e,2022-05-11_21h16.42.256,classification_task,2021.2.3,Win32,59.66231132,627c6715c52fd12f31907bcf,,,,,,,,,,,,,,,,,,,,,,,l,1,0.6469,"[""0.325"",""0.081"",""0.493"",""0.685""]","[0,1,1,1]",0,59,59,59,1,1,0,,,1,FALSE,,,,,,,,,,,,,,,,,,,,,,,,,,,,,,,
,613a6c6bb8459052dd94feca,627c6d6e71b12638ac809f5e,2022-05-11_21h16.42.256,classification_task,2021.2.3,Win32,59.66231132,627c6715c52fd12f31907bcf,,,,,,,,,,,,,,,,,,,,,,,a,1,0.7645,"[""0.186"",""0.628"",""0.583"",""0.847""]","[1,0,1,1]",0,60,60,60,1,0,1,,,1,FALSE,,,,,,,,,,,,,,,,,,,,,,,,,,,,,,,
,613a6c6bb8459052dd94feca,627c6d6e71b12638ac809f5e,2022-05-11_21h16.42.256,classification_task,2021.2.3,Win32,59.66231132,627c6715c52fd12f31907bcf,,,,,,,,,,,,,,,,,,,,,,,a,1,0.6843,"[""0.649"",""0.376"",""0.583"",""0.847""]","[0,1,1,1]",0,61,61,61,1,0,1,,,1,FALSE,,,,,,,,,,,,,,,,,,,,,,,,,,,,,,,
,613a6c6bb8459052dd94feca,627c6d6e71b12638ac809f5e,2022-05-11_21h16.42.256,classification_task,2021.2.3,Win32,59.66231132,627c6715c52fd12f31907bcf,,,,,,,,,,,,,,,,,,,,,,,l,0,0.8338,"[""0.229"",""0.416"",""0.767"",""0.310""]","[1,1,1,0]",0,62,62,62,1,0,0,,,1,FALSE,,,,,,,,,,,,,,,,,,,,,,,,,,,,,,,
,613a6c6bb8459052dd94feca,627c6d6e71b12638ac809f5e,2022-05-11_21h16.42.256,classification_task,2021.2.3,Win32,59.66231132,627c6715c52fd12f31907bcf,,,,,,,,,,,,,,,,,,,,,,,l,1,1.3445,"[""0.044"",""0.081"",""0.493"",""0.325""]","[1,1,1,0]",0,63,63,63,1,1,0,,,1,FALSE,,,,,,,,,,,,,,,,,,,,,,,,,,,,,,,
,613a6c6bb8459052dd94feca,627c6d6e71b12638ac809f5e,2022-05-11_21h16.42.256,classification_task,2021.2.3,Win32,59.66231132,627c6715c52fd12f31907bcf,,,,,,,,,,,,,,,,,,,,,,,,,,,,,,,,,,,,,,,0, ,,0,5.516699735,163.308,0,2,2,2,1,2,3,,,,,,,,,,,,,,,,,,
,613a6c6bb8459052dd94feca,627c6d6e71b12638ac809f5e,2022-05-11_21h16.42.256,classification_task,2021.2.3,Win32,59.66231132,627c6715c52fd12f31907bcf,,,,,,,,,,,,,,,,,,,,,,,,,,,,,,,,,,,,,,,1,  ,,0,2.51984127,168.1921,0,2,2,2,1,2,3,,,,,,,,,,,,,,,,,,
,613a6c6bb8459052dd94feca,627c6d6e71b12638ac809f5e,2022-05-11_21h16.42.256,classification_task,2021.2.3,Win32,59.66231132,627c6715c52fd12f31907bcf,,,,,,,,,,,,,,,,,,,,,,,,,,,,,,,,,,,,,,,2,  ,,0,5.792272928,172.5777,0,2,2,2,1,2,3,,,,,,,,,,,,,,,,,,
,613a6c6bb8459052dd94feca,627c6d6e71b12638ac809f5e,2022-05-11_21h16.42.256,classification_task,2021.2.3,Win32,59.66231132,627c6715c52fd12f31907bcf,,,,,,,,,,,,,,,,,,,,,,,,,,,,,,,,,,,,,,,,,,,,,0,2,2,2,1,,3,,,,,,,,,,,,,,,,,,
,613a6c6bb8459052dd94feca,627c6d6e71b12638ac809f5e,2022-05-11_21h16.42.256,classification_task,2021.2.3,Win32,59.66231132,627c6715c52fd12f31907bcf,,,,,,,,,,,,,,,,,,,,,,,,,,,,,,,,,,,,,,,,,,,,,,,,,,,,,I believe the aid is a competent performer,,0.7,0,4,827.1118,0,0,0,0,1,0,,,,,
,613a6c6bb8459052dd94feca,627c6d6e71b12638ac809f5e,2022-05-11_21h16.42.256,classification_task,2021.2.3,Win32,59.66231132,627c6715c52fd12f31907bcf,,,,,,,,,,,,,,,,,,,,,,,,,,,,,,,,,,,,,,,,,,,,,,,,,,,,,I trust the aid,,0.7,0,5,830.2857,0,0,0,0,1,0,,,,,
,613a6c6bb8459052dd94feca,627c6d6e71b12638ac809f5e,2022-05-11_21h16.42.256,classification_task,2021.2.3,Win32,59.66231132,627c6715c52fd12f31907bcf,,,,,,,,,,,,,,,,,,,,,,,,,,,,,,,,,,,,,,,,,,,,,,,,,,,,,I have confidence in the advice given by the aid,,0.7,0,4,833.9019,0,0,0,0,1,0,,,,,
,613a6c6bb8459052dd94feca,627c6d6e71b12638ac809f5e,2022-05-11_21h16.42.256,classification_task,2021.2.3,Win32,59.66231132,627c6715c52fd12f31907bcf,,,,,,,,,,,,,,,,,,,,,,,,,,,,,,,,,,,,,,,,,,,,,,,,,,,,,I can depend on the aid,,0.7,0,4,835.1392,0,0,0,0,1,0,,,,,
,613a6c6bb8459052dd94feca,627c6d6e71b12638ac809f5e,2022-05-11_21h16.42.256,classification_task,2021.2.3,Win32,59.66231132,627c6715c52fd12f31907bcf,,,,,,,,,,,,,,,,,,,,,,,,,,,,,,,,,,,,,,,,,,,,,,,,,,,,,I can rely on the aid to behave in consistent ways,,0.7,0,4,836.2875,0,0,0,0,1,0,,,,,
,613a6c6bb8459052dd94feca,627c6d6e71b12638ac809f5e,2022-05-11_21h16.42.256,classification_task,2021.2.3,Win32,59.66231132,627c6715c52fd12f31907bcf,,,,,,,,,,,,,,,,,,,,,,,,,,,,,,,,,,,,,,,,,,,,,,,,,,,,,I can rely on the aid to do its best every time I take its advice,,0.7,0,4,839.1545,0,0,0,0,1,0,,,,,
,613a6c6bb8459052dd94feca,627c6d6e71b12638ac809f5e,2022-05-11_21h16.42.256,classification_task,2021.2.3,Win32,59.66231132,627c6715c52fd12f31907bcf,,,,,,,,,,,,,,,,,,,,,,,,,,,,,,,,,,,,,,,,,,,,,,,,,,,,,"On trials you completed with assistance from the aid, how frequently did you think the aid was correct?",,0.7,0,100%,,0,0,0,0,1,0,,,,,
,613a6c6bb8459052dd94feca,627c6d6e71b12638ac809f5e,2022-05-11_21h16.42.256,classification_task,2021.2.3,Win32,59.66231132,627c6715c52fd12f31907bcf,,,,,,,,,,,,,,,,,,,,,,,,,,,,,,,,,,,,,,,,,,,,,,,,,,,,,"On trials you completed without the aid, how frequently did you think you were correct?",,0.7,0,100%,,0,0,0,0,1,0,,,,,
,613a6c6bb8459052dd94feca,627c6d6e71b12638ac809f5e,2022-05-11_21h16.42.256,classification_task,2021.2.3,Win32,59.66231132,627c6715c52fd12f31907bcf,,,,,,,,,,,,,,,,,,,,,,,,,,,,,,,,,,,,,,,,,,,,,,,,,,,,,,,,,,,0,0,0,0,1,,,,,,
,613a6c6bb8459052dd94feca,627c6d6e71b12638ac809f5e,2022-05-11_21h16.42.256,classification_task,2021.2.3,Win32,59.66231132,627c6715c52fd12f31907bcf,,,,,,,,,,,,,,,,,,,,,,,,,,,,,,,,,,,,,,,,,,,,,,,,,,,,,,,,,,,,,,,,,space,13.9684,872.8521,,
,613a6c6bb8459052dd94feca,627c6d6e71b12638ac809f5e,2022-05-11_21h16.42.256,classification_task,2021.2.3,Win32,59.66231132,627c6715c52fd12f31907bcf,,,,,,,,,,,,,,,,,,,,,,,,,,,,,,,,,,,,,,,,,,,,,,,,,,,,,,,,,,,,,,,,,,,,"Mozilla/5.0 (Windows NT 10.0; Win64; x64) AppleWebKit/537.36 (KHTML, like Gecko) Chrome/101.0.4951.54 Safari/537.36",
,613a6c6bb8459052dd94feca,627c6d6e71b12638ac809f5e,2022-05-11_21h16.42.256,classification_task,2021.2.3,Win32,59.66231132,627c6715c52fd12f31907bcf,,,,,,,,,,,,,,,,,,,,,,,,,,,,,,,,,,,,,,,,,,,,,,,,,,,,,,,,,,,,,,,,,,,,,FADING
