usingWebGL,participant,session,date,expName,psychopyVersion,OS,frameRate,study_id,signatures_friend,signatures_foe,band_ranges_top,band_ranges_bottom,formitemText,formtype,formundefined,formitemWidth,formindex,formresponse,formrt,key_resp_2.keys,key_resp_2.rt,tute_resp.keys,tute_resp.rt,tutorial.thisRepN,tutorial.thisTrialN,tutorial.thisN,tutorial.thisIndex,tutorial.ran,key_resp_4.keys,key_resp_4.rt,key_resp.keys,key_resp.corr,lines_presented,is_signal_presented,trials.thisRepN,trials.thisTrialN,trials.thisN,trials.thisIndex,trials.ran,vessel,active_band,lines,is_signal,supported_pos,catch_trial,key_resp.rt,debrief_formindex,debrief_formitemText,debrief_formtype,debrief_formitemWidth,debrief_formresponse,debrief_formrt,phases.thisRepN,phases.thisTrialN,phases.thisN,phases.thisIndex,phases.ran,phases.order,phase,key_resp_3.keys,trustitemText,trusttype,trustitemWidth,trustindex,trustresponse,trustrt,support_status.thisRepN,support_status.thisTrialN,support_status.thisN,support_status.thisIndex,support_status.ran,support_status.order,key_resp_5.keys,key_resp_5.rt,globalClockTime,userAgent,manualCondition
TRUE,613add879e40150ca89fd051,627c6f9c9a918b62953cb025,2022-05-11_19h25.35.568,classification_task,2021.2.3,Win32,60.0240096,627c6715c52fd12f31907bcf,,,,,,,,,,,,,,,,,,,,,,,,,,,,,,,,,,,,,,,,,,,,,,,,,,,,,,,,,,,,,,,,,,,,,
,613add879e40150ca89fd051,627c6f9c9a918b62953cb025,2022-05-11_19h25.35.568,classification_task,2021.2.3,Win32,60.0240096,627c6715c52fd12f31907bcf,"[[""0.192"",""0.463"",""0.804"",""0.959""],[""0.323"",""0.426"",""0.646"",""0.912""]]","[[""0.138"",""0.392"",""0.610"",""0.762""],[""0.035"",""0.085"",""0.532"",""0.700""]]","[1,10]","[100,1000]",Video game experience,,,0.7,0,,,,,,,,,,,,,,,,,,,,,,,,,,,,,,,,,,,,,,,,,,,,,,,,,,,,,,,,,,,,
,613add879e40150ca89fd051,627c6f9c9a918b62953cb025,2022-05-11_19h25.35.568,classification_task,2021.2.3,Win32,60.0240096,627c6715c52fd12f31907bcf,,,,,Approximately how many hours did you spend playing video games in the last week?,,,0.7,0,12,,,,,,,,,,,,,,,,,,,,,,,,,,,,,,,,,,,,,,,,,,,,,,,,,,,,,,,,,,,
,613add879e40150ca89fd051,627c6f9c9a918b62953cb025,2022-05-11_19h25.35.568,classification_task,2021.2.3,Win32,60.0240096,627c6715c52fd12f31907bcf,,,,,"Which game did you play the most this year? (Enter ""None"" if you didn't play any)",,,0.7,0,Genshin Impact,,,,,,,,,,,,,,,,,,,,,,,,,,,,,,,,,,,,,,,,,,,,,,,,,,,,,,,,,,,
,613add879e40150ca89fd051,627c6f9c9a918b62953cb025,2022-05-11_19h25.35.568,classification_task,2021.2.3,Win32,60.0240096,627c6715c52fd12f31907bcf,,,,,Visual perception,,,0.7,0,,,,,,,,,,,,,,,,,,,,,,,,,,,,,,,,,,,,,,,,,,,,,,,,,,,,,,,,,,,,
,613add879e40150ca89fd051,627c6f9c9a918b62953cb025,2022-05-11_19h25.35.568,classification_task,2021.2.3,Win32,60.0240096,627c6715c52fd12f31907bcf,,,,,Do you have any form of color blindness?,,,0.7,0,No,48.265,,,,,,,,,,,,,,,,,,,,,,,,,,,,,,,,,,,,,,,,,,,,,,,,,,,,,,,,,,
,613add879e40150ca89fd051,627c6f9c9a918b62953cb025,2022-05-11_19h25.35.568,classification_task,2021.2.3,Win32,60.0240096,627c6715c52fd12f31907bcf,,,,,Do you use software to change the colour temperature of your screen (e.g. f.lux)?,,,0.7,0,No,53.149,,,,,,,,,,,,,,,,,,,,,,,,,,,,,,,,,,,,,,,,,,,,,,,,,,,,,,,,,,
,613add879e40150ca89fd051,627c6f9c9a918b62953cb025,2022-05-11_19h25.35.568,classification_task,2021.2.3,Win32,60.0240096,627c6715c52fd12f31907bcf,,,,,,,,,,,,space,86.527,space,37.01,0,0,0,0,1,,,,,,,,,,,,,,,,,,,,,,,,,,,,,,,,,,,,,,,,,,,,,,,,,
,613add879e40150ca89fd051,627c6f9c9a918b62953cb025,2022-05-11_19h25.35.568,classification_task,2021.2.3,Win32,60.0240096,627c6715c52fd12f31907bcf,,,,,,,,,,,,,,space,19,1,0,1,0,1,,,,,,,,,,,,,,,,,,,,,,,,,,,,,,,,,,,,,,,,,,,,,,,,,
,613add879e40150ca89fd051,627c6f9c9a918b62953cb025,2022-05-11_19h25.35.568,classification_task,2021.2.3,Win32,60.0240096,627c6715c52fd12f31907bcf,,,,,,,,,,,,,,space,69.562,2,0,2,0,1,,,,,,,,,,,,,,,,,,,,,,,,,,,,,,,,,,,,,,,,,,,,,,,,,
,613add879e40150ca89fd051,627c6f9c9a918b62953cb025,2022-05-11_19h25.35.568,classification_task,2021.2.3,Win32,60.0240096,627c6715c52fd12f31907bcf,,,,,,,,,,,,,,space,20.532,3,0,3,0,1,,,,,,,,,,,,,,,,,,,,,,,,,,,,,,,,,,,,,,,,,,,,,,,,,
,613add879e40150ca89fd051,627c6f9c9a918b62953cb025,2022-05-11_19h25.35.568,classification_task,2021.2.3,Win32,60.0240096,627c6715c52fd12f31907bcf,,,,,,,,,,,,,,space,53.689,4,0,4,0,1,,,,,,,,,,,,,,,,,,,,,,,,,,,,,,,,,,,,,,,,,,,,,,,,,
,613add879e40150ca89fd051,627c6f9c9a918b62953cb025,2022-05-11_19h25.35.568,classification_task,2021.2.3,Win32,60.0240096,627c6715c52fd12f31907bcf,,,,,,,,,,,,,,,,,,,,,space,18.588,,0,"[""0.192"",""0.463"",""0.804"",""0.242""]","[1,1,1,0]",0,0,0,0,1,0,0,,,0,FALSE,,,,,,,,,,,,,,,,,,,,,,,,,,,,,,,,
,613add879e40150ca89fd051,627c6f9c9a918b62953cb025,2022-05-11_19h25.35.568,classification_task,2021.2.3,Win32,60.0240096,627c6715c52fd12f31907bcf,,,,,,,,,,,,,,,,,,,,,,,l,1,"[""0.035"",""0.264"",""0.532"",""0.700""]","[1,0,1,1]",0,1,1,1,1,1,1,,,0,FALSE,6.261,,,,,,,,,,,,,,,,,,,,,,,,,,,,,,,
,613add879e40150ca89fd051,627c6f9c9a918b62953cb025,2022-05-11_19h25.35.568,classification_task,2021.2.3,Win32,60.0240096,627c6715c52fd12f31907bcf,,,,,,,,,,,,,,,,,,,,,,,l,1,"[""0.284"",""0.085"",""0.532"",""0.700""]","[0,1,1,1]",0,2,2,2,1,1,1,,,0,FALSE,3.835,,,,,,,,,,,,,,,,,,,,,,,,,,,,,,,
,613add879e40150ca89fd051,627c6f9c9a918b62953cb025,2022-05-11_19h25.35.568,classification_task,2021.2.3,Win32,60.0240096,627c6715c52fd12f31907bcf,,,,,,,,,,,,,,,,,,,,,,,l,1,"[""0.138"",""0.284"",""0.610"",""0.762""]","[1,0,1,1]",0,3,3,3,1,1,0,,,0,FALSE,3.902,,,,,,,,,,,,,,,,,,,,,,,,,,,,,,,
,613add879e40150ca89fd051,627c6f9c9a918b62953cb025,2022-05-11_19h25.35.568,classification_task,2021.2.3,Win32,60.0240096,627c6715c52fd12f31907bcf,,,,,,,,,,,,,,,,,,,,,,,l,1,"[""0.138"",""0.392"",""0.610"",""0.570""]","[1,1,1,0]",0,4,4,4,1,1,0,,,0,FALSE,2.637,,,,,,,,,,,,,,,,,,,,,,,,,,,,,,,
,613add879e40150ca89fd051,627c6f9c9a918b62953cb025,2022-05-11_19h25.35.568,classification_task,2021.2.3,Win32,60.0240096,627c6715c52fd12f31907bcf,,,,,,,,,,,,,,,,,,,,,,,a,1,"[""0.192"",""0.463"",""0.243"",""0.959""]","[1,1,0,1]",0,5,5,5,1,0,0,,,0,FALSE,2.652,,,,,,,,,,,,,,,,,,,,,,,,,,,,,,,
,613add879e40150ca89fd051,627c6f9c9a918b62953cb025,2022-05-11_19h25.35.568,classification_task,2021.2.3,Win32,60.0240096,627c6715c52fd12f31907bcf,,,,,,,,,,,,,,,,,,,,,,,a,1,"[""0.323"",""0.426"",""0.866"",""0.912""]","[1,1,0,1]",0,6,6,6,1,0,1,,,0,FALSE,2.878,,,,,,,,,,,,,,,,,,,,,,,,,,,,,,,
,613add879e40150ca89fd051,627c6f9c9a918b62953cb025,2022-05-11_19h25.35.568,classification_task,2021.2.3,Win32,60.0240096,627c6715c52fd12f31907bcf,,,,,,,,,,,,,,,,,,,,,,,l,1,"[""0.857"",""0.392"",""0.610"",""0.762""]","[0,1,1,1]",0,7,7,7,1,1,0,,,0,FALSE,5.896,,,,,,,,,,,,,,,,,,,,,,,,,,,,,,,
,613add879e40150ca89fd051,627c6f9c9a918b62953cb025,2022-05-11_19h25.35.568,classification_task,2021.2.3,Win32,60.0240096,627c6715c52fd12f31907bcf,,,,,,,,,,,,,,,,,,,,,,,a,1,"[""0.874"",""0.463"",""0.804"",""0.959""]","[0,1,1,1]",0,8,8,8,1,0,0,,,0,FALSE,3.068,,,,,,,,,,,,,,,,,,,,,,,,,,,,,,,
,613add879e40150ca89fd051,627c6f9c9a918b62953cb025,2022-05-11_19h25.35.568,classification_task,2021.2.3,Win32,60.0240096,627c6715c52fd12f31907bcf,,,,,,,,,,,,,,,,,,,,,,,a,1,"[""0.323"",""0.873"",""0.646"",""0.912""]","[1,0,1,1]",0,9,9,9,1,0,1,,,0,FALSE,2.099,,,,,,,,,,,,,,,,,,,,,,,,,,,,,,,
,613add879e40150ca89fd051,627c6f9c9a918b62953cb025,2022-05-11_19h25.35.568,classification_task,2021.2.3,Win32,60.0240096,627c6715c52fd12f31907bcf,,,,,,,,,,,,,,,,,,,,,,,l,1,"[""0.035"",""0.085"",""0.532"",""0.874""]","[1,1,1,0]",0,10,10,10,1,1,1,,,0,FALSE,2.539,,,,,,,,,,,,,,,,,,,,,,,,,,,,,,,
,613add879e40150ca89fd051,627c6f9c9a918b62953cb025,2022-05-11_19h25.35.568,classification_task,2021.2.3,Win32,60.0240096,627c6715c52fd12f31907bcf,,,,,,,,,,,,,,,,,,,,,,,a,1,"[""0.323"",""0.426"",""0.646"",""0.873""]","[1,1,1,0]",0,11,11,11,1,0,1,,,0,FALSE,1.733,,,,,,,,,,,,,,,,,,,,,,,,,,,,,,,
,613add879e40150ca89fd051,627c6f9c9a918b62953cb025,2022-05-11_19h25.35.568,classification_task,2021.2.3,Win32,60.0240096,627c6715c52fd12f31907bcf,,,,,,,,,,,,,,,,,,,,,,,a,1,"[""0.192"",""0.284"",""0.804"",""0.959""]","[1,0,1,1]",0,12,12,12,1,0,0,,,0,FALSE,2.176,,,,,,,,,,,,,,,,,,,,,,,,,,,,,,,
,613add879e40150ca89fd051,627c6f9c9a918b62953cb025,2022-05-11_19h25.35.568,classification_task,2021.2.3,Win32,60.0240096,627c6715c52fd12f31907bcf,,,,,,,,,,,,,,,,,,,,,,,l,1,"[""0.035"",""0.085"",""0.264"",""0.700""]","[1,1,0,1]",0,13,13,13,1,1,1,,,0,FALSE,2.049,,,,,,,,,,,,,,,,,,,,,,,,,,,,,,,
,613add879e40150ca89fd051,627c6f9c9a918b62953cb025,2022-05-11_19h25.35.568,classification_task,2021.2.3,Win32,60.0240096,627c6715c52fd12f31907bcf,,,,,,,,,,,,,,,,,,,,,,,a,1,"[""0.242"",""0.426"",""0.646"",""0.912""]","[0,1,1,1]",0,14,14,14,1,0,1,,,0,FALSE,5.901,,,,,,,,,,,,,,,,,,,,,,,,,,,,,,,
,613add879e40150ca89fd051,627c6f9c9a918b62953cb025,2022-05-11_19h25.35.568,classification_task,2021.2.3,Win32,60.0240096,627c6715c52fd12f31907bcf,,,,,,,,,,,,,,,,,,,,,,,l,1,"[""0.138"",""0.392"",""0.860"",""0.762""]","[1,1,0,1]",0,15,15,15,1,1,0,,,0,FALSE,2.795,,,,,,,,,,,,,,,,,,,,,,,,,,,,,,,
,613add879e40150ca89fd051,627c6f9c9a918b62953cb025,2022-05-11_19h25.35.568,classification_task,2021.2.3,Win32,60.0240096,627c6715c52fd12f31907bcf,,,,,,,,,,,,,,,,,,,,,,,a,1,"[""0.272"",""0.426"",""0.646"",""0.912""]","[0,1,1,1]",0,16,16,16,1,0,1,,,0,FALSE,2.949,,,,,,,,,,,,,,,,,,,,,,,,,,,,,,,
,613add879e40150ca89fd051,627c6f9c9a918b62953cb025,2022-05-11_19h25.35.568,classification_task,2021.2.3,Win32,60.0240096,627c6715c52fd12f31907bcf,,,,,,,,,,,,,,,,,,,,,,,l,1,"[""0.035"",""0.866"",""0.532"",""0.700""]","[1,0,1,1]",0,17,17,17,1,1,1,,,0,FALSE,4.506,,,,,,,,,,,,,,,,,,,,,,,,,,,,,,,
,613add879e40150ca89fd051,627c6f9c9a918b62953cb025,2022-05-11_19h25.35.568,classification_task,2021.2.3,Win32,60.0240096,627c6715c52fd12f31907bcf,,,,,,,,,,,,,,,,,,,,,,,a,1,"[""0.248"",""0.463"",""0.804"",""0.959""]","[0,1,1,1]",0,18,18,18,1,0,0,,,0,FALSE,5.914,,,,,,,,,,,,,,,,,,,,,,,,,,,,,,,
,613add879e40150ca89fd051,627c6f9c9a918b62953cb025,2022-05-11_19h25.35.568,classification_task,2021.2.3,Win32,60.0240096,627c6715c52fd12f31907bcf,,,,,,,,,,,,,,,,,,,,,,,l,1,"[""0.857"",""0.085"",""0.532"",""0.700""]","[0,1,1,1]",0,19,19,19,1,1,1,,,0,FALSE,3.529,,,,,,,,,,,,,,,,,,,,,,,,,,,,,,,
,613add879e40150ca89fd051,627c6f9c9a918b62953cb025,2022-05-11_19h25.35.568,classification_task,2021.2.3,Win32,60.0240096,627c6715c52fd12f31907bcf,,,,,,,,,,,,,,,,,,,,,,,l,1,"[""0.035"",""0.085"",""0.532"",""0.264""]","[1,1,1,0]",0,20,20,20,1,1,1,,,0,FALSE,2.45,,,,,,,,,,,,,,,,,,,,,,,,,,,,,,,
,613add879e40150ca89fd051,627c6f9c9a918b62953cb025,2022-05-11_19h25.35.568,classification_task,2021.2.3,Win32,60.0240096,627c6715c52fd12f31907bcf,,,,,,,,,,,,,,,,,,,,,,,a,1,"[""0.323"",""0.426"",""0.646"",""0.873""]","[1,1,1,0]",0,21,21,21,1,0,1,,,0,FALSE,2.05,,,,,,,,,,,,,,,,,,,,,,,,,,,,,,,
,613add879e40150ca89fd051,627c6f9c9a918b62953cb025,2022-05-11_19h25.35.568,classification_task,2021.2.3,Win32,60.0240096,627c6715c52fd12f31907bcf,,,,,,,,,,,,,,,,,,,,,,,l,1,"[""0.035"",""0.085"",""0.867"",""0.700""]","[1,1,0,1]",0,22,22,22,1,1,1,,,0,FALSE,2.055,,,,,,,,,,,,,,,,,,,,,,,,,,,,,,,
,613add879e40150ca89fd051,627c6f9c9a918b62953cb025,2022-05-11_19h25.35.568,classification_task,2021.2.3,Win32,60.0240096,627c6715c52fd12f31907bcf,,,,,,,,,,,,,,,,,,,,,,,a,1,"[""0.323"",""0.857"",""0.646"",""0.912""]","[1,0,1,1]",0,23,23,23,1,0,1,,,0,FALSE,1.434,,,,,,,,,,,,,,,,,,,,,,,,,,,,,,,
,613add879e40150ca89fd051,627c6f9c9a918b62953cb025,2022-05-11_19h25.35.568,classification_task,2021.2.3,Win32,60.0240096,627c6715c52fd12f31907bcf,,,,,,,,,,,,,,,,,,,,,,,a,1,"[""0.323"",""0.426"",""0.867"",""0.912""]","[1,1,0,1]",0,24,24,24,1,0,1,,,0,FALSE,1.802,,,,,,,,,,,,,,,,,,,,,,,,,,,,,,,
,613add879e40150ca89fd051,627c6f9c9a918b62953cb025,2022-05-11_19h25.35.568,classification_task,2021.2.3,Win32,60.0240096,627c6715c52fd12f31907bcf,,,,,,,,,,,,,,,,,,,,,,,a,1,"[""0.192"",""0.463"",""0.264"",""0.959""]","[1,1,0,1]",0,25,25,25,1,0,0,,,0,FALSE,2.644,,,,,,,,,,,,,,,,,,,,,,,,,,,,,,,
,613add879e40150ca89fd051,627c6f9c9a918b62953cb025,2022-05-11_19h25.35.568,classification_task,2021.2.3,Win32,60.0240096,627c6715c52fd12f31907bcf,,,,,,,,,,,,,,,,,,,,,,,l,1,"[""0.248"",""0.392"",""0.610"",""0.762""]","[0,1,1,1]",0,26,26,26,1,1,0,,,0,FALSE,3.534,,,,,,,,,,,,,,,,,,,,,,,,,,,,,,,
,613add879e40150ca89fd051,627c6f9c9a918b62953cb025,2022-05-11_19h25.35.568,classification_task,2021.2.3,Win32,60.0240096,627c6715c52fd12f31907bcf,,,,,,,,,,,,,,,,,,,,,,,a,1,"[""0.192"",""0.857"",""0.804"",""0.959""]","[1,0,1,1]",0,27,27,27,1,0,0,,,0,FALSE,1.751,,,,,,,,,,,,,,,,,,,,,,,,,,,,,,,
,613add879e40150ca89fd051,627c6f9c9a918b62953cb025,2022-05-11_19h25.35.568,classification_task,2021.2.3,Win32,60.0240096,627c6715c52fd12f31907bcf,,,,,,,,,,,,,,,,,,,,,,,a,1,"[""0.192"",""0.463"",""0.804"",""0.357""]","[1,1,1,0]",0,28,28,28,1,0,0,,,0,FALSE,1.1,,,,,,,,,,,,,,,,,,,,,,,,,,,,,,,
,613add879e40150ca89fd051,627c6f9c9a918b62953cb025,2022-05-11_19h25.35.568,classification_task,2021.2.3,Win32,60.0240096,627c6715c52fd12f31907bcf,,,,,,,,,,,,,,,,,,,,,,,l,1,"[""0.138"",""0.392"",""0.873"",""0.762""]","[1,1,0,1]",0,29,29,29,1,1,0,,,0,FALSE,1.932,,,,,,,,,,,,,,,,,,,,,,,,,,,,,,,
,613add879e40150ca89fd051,627c6f9c9a918b62953cb025,2022-05-11_19h25.35.568,classification_task,2021.2.3,Win32,60.0240096,627c6715c52fd12f31907bcf,,,,,,,,,,,,,,,,,,,,,,,l,1,"[""0.138"",""0.392"",""0.610"",""0.248""]","[1,1,1,0]",0,30,30,30,1,1,0,,,0,FALSE,2.482,,,,,,,,,,,,,,,,,,,,,,,,,,,,,,,
,613add879e40150ca89fd051,627c6f9c9a918b62953cb025,2022-05-11_19h25.35.568,classification_task,2021.2.3,Win32,60.0240096,627c6715c52fd12f31907bcf,,,,,,,,,,,,,,,,,,,,,,,l,1,"[""0.138"",""0.264"",""0.610"",""0.762""]","[1,0,1,1]",0,31,31,31,1,1,0,,,0,FALSE,2.437,,,,,,,,,,,,,,,,,,,,,,,,,,,,,,,
,613add879e40150ca89fd051,627c6f9c9a918b62953cb025,2022-05-11_19h25.35.568,classification_task,2021.2.3,Win32,60.0240096,627c6715c52fd12f31907bcf,,,,,,,,,,,,,,,,,,,,,,,l,0,"[""0.192"",""0.463"",""0.804"",""0.857""]","[1,1,1,0]",0,32,32,32,1,0,0,,,0,FALSE,5.061,,,,,,,,,,,,,,,,,,,,,,,,,,,,,,,
,613add879e40150ca89fd051,627c6f9c9a918b62953cb025,2022-05-11_19h25.35.568,classification_task,2021.2.3,Win32,60.0240096,627c6715c52fd12f31907bcf,,,,,,,,,,,,,,,,,,,,,,,a,0,"[""0.138"",""0.392"",""0.873"",""0.762""]","[1,1,0,1]",0,33,33,33,1,1,0,,,0,FALSE,2.3,,,,,,,,,,,,,,,,,,,,,,,,,,,,,,,
,613add879e40150ca89fd051,627c6f9c9a918b62953cb025,2022-05-11_19h25.35.568,classification_task,2021.2.3,Win32,60.0240096,627c6715c52fd12f31907bcf,,,,,,,,,,,,,,,,,,,,,,,l,1,"[""0.138"",""0.392"",""0.610"",""0.873""]","[1,1,1,0]",0,34,34,34,1,1,0,,,0,FALSE,1.534,,,,,,,,,,,,,,,,,,,,,,,,,,,,,,,
,613add879e40150ca89fd051,627c6f9c9a918b62953cb025,2022-05-11_19h25.35.568,classification_task,2021.2.3,Win32,60.0240096,627c6715c52fd12f31907bcf,,,,,,,,,,,,,,,,,,,,,,,a,1,"[""0.323"",""0.248"",""0.646"",""0.912""]","[1,0,1,1]",0,35,35,35,1,0,1,,,0,FALSE,2.134,,,,,,,,,,,,,,,,,,,,,,,,,,,,,,,
,613add879e40150ca89fd051,627c6f9c9a918b62953cb025,2022-05-11_19h25.35.568,classification_task,2021.2.3,Win32,60.0240096,627c6715c52fd12f31907bcf,,,,,,,,,,,,,,,,,,,,,,,l,1,"[""0.138"",""0.866"",""0.610"",""0.762""]","[1,0,1,1]",0,36,36,36,1,1,0,,,0,FALSE,1.36,,,,,,,,,,,,,,,,,,,,,,,,,,,,,,,
,613add879e40150ca89fd051,627c6f9c9a918b62953cb025,2022-05-11_19h25.35.568,classification_task,2021.2.3,Win32,60.0240096,627c6715c52fd12f31907bcf,,,,,,,,,,,,,,,,,,,,,,,a,1,"[""0.323"",""0.426"",""0.646"",""0.282""]","[1,1,1,0]",0,37,37,37,1,0,1,,,0,FALSE,1.442,,,,,,,,,,,,,,,,,,,,,,,,,,,,,,,
,613add879e40150ca89fd051,627c6f9c9a918b62953cb025,2022-05-11_19h25.35.568,classification_task,2021.2.3,Win32,60.0240096,627c6715c52fd12f31907bcf,,,,,,,,,,,,,,,,,,,,,,,l,1,"[""0.035"",""0.085"",""0.532"",""0.357""]","[1,1,1,0]",0,38,38,38,1,1,1,,,0,FALSE,1.59,,,,,,,,,,,,,,,,,,,,,,,,,,,,,,,
,613add879e40150ca89fd051,627c6f9c9a918b62953cb025,2022-05-11_19h25.35.568,classification_task,2021.2.3,Win32,60.0240096,627c6715c52fd12f31907bcf,,,,,,,,,,,,,,,,,,,,,,,l,0,"[""0.570"",""0.426"",""0.646"",""0.912""]","[0,1,1,1]",0,39,39,39,1,0,1,,,0,FALSE,2.769,,,,,,,,,,,,,,,,,,,,,,,,,,,,,,,
,613add879e40150ca89fd051,627c6f9c9a918b62953cb025,2022-05-11_19h25.35.568,classification_task,2021.2.3,Win32,60.0240096,627c6715c52fd12f31907bcf,,,,,,,,,,,,,,,,,,,,,,,a,1,"[""0.192"",""0.867"",""0.804"",""0.959""]","[1,0,1,1]",0,40,40,40,1,0,0,,,0,FALSE,2.503,,,,,,,,,,,,,,,,,,,,,,,,,,,,,,,
,613add879e40150ca89fd051,627c6f9c9a918b62953cb025,2022-05-11_19h25.35.568,classification_task,2021.2.3,Win32,60.0240096,627c6715c52fd12f31907bcf,,,,,,,,,,,,,,,,,,,,,,,l,1,"[""0.035"",""0.243"",""0.532"",""0.700""]","[1,0,1,1]",0,41,41,41,1,1,1,,,0,FALSE,1.367,,,,,,,,,,,,,,,,,,,,,,,,,,,,,,,
,613add879e40150ca89fd051,627c6f9c9a918b62953cb025,2022-05-11_19h25.35.568,classification_task,2021.2.3,Win32,60.0240096,627c6715c52fd12f31907bcf,,,,,,,,,,,,,,,,,,,,,,,a,0,"[""0.242"",""0.392"",""0.610"",""0.762""]","[0,1,1,1]",0,42,42,42,1,1,0,,,0,FALSE,1.483,,,,,,,,,,,,,,,,,,,,,,,,,,,,,,,
,613add879e40150ca89fd051,627c6f9c9a918b62953cb025,2022-05-11_19h25.35.568,classification_task,2021.2.3,Win32,60.0240096,627c6715c52fd12f31907bcf,,,,,,,,,,,,,,,,,,,,,,,a,1,"[""0.242"",""0.463"",""0.804"",""0.959""]","[0,1,1,1]",0,43,43,43,1,0,0,,,0,FALSE,1.37,,,,,,,,,,,,,,,,,,,,,,,,,,,,,,,
,613add879e40150ca89fd051,627c6f9c9a918b62953cb025,2022-05-11_19h25.35.568,classification_task,2021.2.3,Win32,60.0240096,627c6715c52fd12f31907bcf,,,,,,,,,,,,,,,,,,,,,,,l,1,"[""0.035"",""0.085"",""0.248"",""0.700""]","[1,1,0,1]",0,44,44,44,1,1,1,,,0,FALSE,2.12,,,,,,,,,,,,,,,,,,,,,,,,,,,,,,,
,613add879e40150ca89fd051,627c6f9c9a918b62953cb025,2022-05-11_19h25.35.568,classification_task,2021.2.3,Win32,60.0240096,627c6715c52fd12f31907bcf,,,,,,,,,,,,,,,,,,,,,,,a,0,"[""0.874"",""0.085"",""0.532"",""0.700""]","[0,1,1,1]",0,45,45,45,1,1,1,,,0,FALSE,1.421,,,,,,,,,,,,,,,,,,,,,,,,,,,,,,,
,613add879e40150ca89fd051,627c6f9c9a918b62953cb025,2022-05-11_19h25.35.568,classification_task,2021.2.3,Win32,60.0240096,627c6715c52fd12f31907bcf,,,,,,,,,,,,,,,,,,,,,,,l,0,"[""0.192"",""0.463"",""0.282"",""0.959""]","[1,1,0,1]",0,46,46,46,1,0,0,,,0,FALSE,1.507,,,,,,,,,,,,,,,,,,,,,,,,,,,,,,,
,613add879e40150ca89fd051,627c6f9c9a918b62953cb025,2022-05-11_19h25.35.568,classification_task,2021.2.3,Win32,60.0240096,627c6715c52fd12f31907bcf,,,,,,,,,,,,,,,,,,,,,,,l,0,"[""0.323"",""0.426"",""0.357"",""0.912""]","[1,1,0,1]",0,47,47,47,1,0,1,,,0,FALSE,1.944,,,,,,,,,,,,,,,,,,,,,,,,,,,,,,,
,613add879e40150ca89fd051,627c6f9c9a918b62953cb025,2022-05-11_19h25.35.568,classification_task,2021.2.3,Win32,60.0240096,627c6715c52fd12f31907bcf,,,,,,,,,,,,,,,,,,,,,,,a,1,"[""0.866"",""0.463"",""0.804"",""0.959""]","[0,1,1,1]",0,48,48,48,1,0,0,,,0,FALSE,2.569,,,,,,,,,,,,,,,,,,,,,,,,,,,,,,,
,613add879e40150ca89fd051,627c6f9c9a918b62953cb025,2022-05-11_19h25.35.568,classification_task,2021.2.3,Win32,60.0240096,627c6715c52fd12f31907bcf,,,,,,,,,,,,,,,,,,,,,,,a,1,"[""0.323"",""0.426"",""0.646"",""0.248""]","[1,1,1,0]",0,49,49,49,1,0,1,,,0,FALSE,1.769,,,,,,,,,,,,,,,,,,,,,,,,,,,,,,,
,613add879e40150ca89fd051,627c6f9c9a918b62953cb025,2022-05-11_19h25.35.568,classification_task,2021.2.3,Win32,60.0240096,627c6715c52fd12f31907bcf,,,,,,,,,,,,,,,,,,,,,,,l,0,"[""0.873"",""0.426"",""0.646"",""0.912""]","[0,1,1,1]",0,50,50,50,1,0,1,,,0,FALSE,1.491,,,,,,,,,,,,,,,,,,,,,,,,,,,,,,,
,613add879e40150ca89fd051,627c6f9c9a918b62953cb025,2022-05-11_19h25.35.568,classification_task,2021.2.3,Win32,60.0240096,627c6715c52fd12f31907bcf,,,,,,,,,,,,,,,,,,,,,,,l,1,"[""0.035"",""0.085"",""0.873"",""0.700""]","[1,1,0,1]",0,51,51,51,1,1,1,,,0,FALSE,1.096,,,,,,,,,,,,,,,,,,,,,,,,,,,,,,,
,613add879e40150ca89fd051,627c6f9c9a918b62953cb025,2022-05-11_19h25.35.568,classification_task,2021.2.3,Win32,60.0240096,627c6715c52fd12f31907bcf,,,,,,,,,,,,,,,,,,,,,,,a,0,"[""0.035"",""0.085"",""0.532"",""0.272""]","[1,1,1,0]",0,52,52,52,1,1,1,,,0,FALSE,1.538,,,,,,,,,,,,,,,,,,,,,,,,,,,,,,,
,613add879e40150ca89fd051,627c6f9c9a918b62953cb025,2022-05-11_19h25.35.568,classification_task,2021.2.3,Win32,60.0240096,627c6715c52fd12f31907bcf,,,,,,,,,,,,,,,,,,,,,,,a,1,"[""0.323"",""0.264"",""0.646"",""0.912""]","[1,0,1,1]",0,53,53,53,1,0,1,,,0,FALSE,1.374,,,,,,,,,,,,,,,,,,,,,,,,,,,,,,,
,613add879e40150ca89fd051,627c6f9c9a918b62953cb025,2022-05-11_19h25.35.568,classification_task,2021.2.3,Win32,60.0240096,627c6715c52fd12f31907bcf,,,,,,,,,,,,,,,,,,,,,,,a,0,"[""0.138"",""0.392"",""0.242"",""0.762""]","[1,1,0,1]",0,54,54,54,1,1,0,,,0,FALSE,1.901,,,,,,,,,,,,,,,,,,,,,,,,,,,,,,,
,613add879e40150ca89fd051,627c6f9c9a918b62953cb025,2022-05-11_19h25.35.568,classification_task,2021.2.3,Win32,60.0240096,627c6715c52fd12f31907bcf,,,,,,,,,,,,,,,,,,,,,,,a,1,"[""0.192"",""0.463"",""0.284"",""0.959""]","[1,1,0,1]",0,55,55,55,1,0,0,,,0,FALSE,1.21,,,,,,,,,,,,,,,,,,,,,,,,,,,,,,,
,613add879e40150ca89fd051,627c6f9c9a918b62953cb025,2022-05-11_19h25.35.568,classification_task,2021.2.3,Win32,60.0240096,627c6715c52fd12f31907bcf,,,,,,,,,,,,,,,,,,,,,,,a,0,"[""0.035"",""0.248"",""0.532"",""0.700""]","[1,0,1,1]",0,56,56,56,1,1,1,,,0,FALSE,2.332,,,,,,,,,,,,,,,,,,,,,,,,,,,,,,,
,613add879e40150ca89fd051,627c6f9c9a918b62953cb025,2022-05-11_19h25.35.568,classification_task,2021.2.3,Win32,60.0240096,627c6715c52fd12f31907bcf,,,,,,,,,,,,,,,,,,,,,,,a,1,"[""0.323"",""0.426"",""0.866"",""0.912""]","[1,1,0,1]",0,57,57,57,1,0,1,,,0,FALSE,1.587,,,,,,,,,,,,,,,,,,,,,,,,,,,,,,,
,613add879e40150ca89fd051,627c6f9c9a918b62953cb025,2022-05-11_19h25.35.568,classification_task,2021.2.3,Win32,60.0240096,627c6715c52fd12f31907bcf,,,,,,,,,,,,,,,,,,,,,,,l,1,"[""0.138"",""0.857"",""0.610"",""0.762""]","[1,0,1,1]",0,58,58,58,1,1,0,,,0,FALSE,1.483,,,,,,,,,,,,,,,,,,,,,,,,,,,,,,,
,613add879e40150ca89fd051,627c6f9c9a918b62953cb025,2022-05-11_19h25.35.568,classification_task,2021.2.3,Win32,60.0240096,627c6715c52fd12f31907bcf,,,,,,,,,,,,,,,,,,,,,,,l,1,"[""0.867"",""0.085"",""0.532"",""0.700""]","[0,1,1,1]",0,59,59,59,1,1,1,,,0,FALSE,1.886,,,,,,,,,,,,,,,,,,,,,,,,,,,,,,,
,613add879e40150ca89fd051,627c6f9c9a918b62953cb025,2022-05-11_19h25.35.568,classification_task,2021.2.3,Win32,60.0240096,627c6715c52fd12f31907bcf,,,,,,,,,,,,,,,,,,,,,,,a,1,"[""0.192"",""0.463"",""0.804"",""0.570""]","[1,1,1,0]",0,60,60,60,1,0,0,,,0,FALSE,1.97,,,,,,,,,,,,,,,,,,,,,,,,,,,,,,,
,613add879e40150ca89fd051,627c6f9c9a918b62953cb025,2022-05-11_19h25.35.568,classification_task,2021.2.3,Win32,60.0240096,627c6715c52fd12f31907bcf,,,,,,,,,,,,,,,,,,,,,,,a,1,"[""0.192"",""0.242"",""0.804"",""0.959""]","[1,0,1,1]",0,61,61,61,1,0,0,,,0,FALSE,1.309,,,,,,,,,,,,,,,,,,,,,,,,,,,,,,,
,613add879e40150ca89fd051,627c6f9c9a918b62953cb025,2022-05-11_19h25.35.568,classification_task,2021.2.3,Win32,60.0240096,627c6715c52fd12f31907bcf,,,,,,,,,,,,,,,,,,,,,,,l,1,"[""0.138"",""0.392"",""0.610"",""0.284""]","[1,1,1,0]",0,62,62,62,1,1,0,,,0,FALSE,1.008,,,,,,,,,,,,,,,,,,,,,,,,,,,,,,,
,613add879e40150ca89fd051,627c6f9c9a918b62953cb025,2022-05-11_19h25.35.568,classification_task,2021.2.3,Win32,60.0240096,627c6715c52fd12f31907bcf,,,,,,,,,,,,,,,,,,,,,,,a,0,"[""0.873"",""0.392"",""0.610"",""0.762""]","[0,1,1,1]",0,63,63,63,1,1,0,,,0,FALSE,1.407,,,,,,,,,,,,,,,,,,,,,,,,,,,,,,,
,613add879e40150ca89fd051,627c6f9c9a918b62953cb025,2022-05-11_19h25.35.568,classification_task,2021.2.3,Win32,60.0240096,627c6715c52fd12f31907bcf,,,,,,,,,,,,,,,,,,,,,,,,,,,,,,,,,,,,,,,0, ,,0,5.734861846,682.033,0,0,0,0,1,2,1,,,,,,,,,,,,,,,,,,
,613add879e40150ca89fd051,627c6f9c9a918b62953cb025,2022-05-11_19h25.35.568,classification_task,2021.2.3,Win32,60.0240096,627c6715c52fd12f31907bcf,,,,,,,,,,,,,,,,,,,,,,,,,,,,,,,,,,,,,,,1,  ,,0,3.677248677,685.875,0,0,0,0,1,2,1,,,,,,,,,,,,,,,,,,
,613add879e40150ca89fd051,627c6f9c9a918b62953cb025,2022-05-11_19h25.35.568,classification_task,2021.2.3,Win32,60.0240096,627c6715c52fd12f31907bcf,,,,,,,,,,,,,,,,,,,,,,,,,,,,,,,,,,,,,,,2,  ,,0,1.644130903,691.249,0,0,0,0,1,2,1,,,,,,,,,,,,,,,,,,
,613add879e40150ca89fd051,627c6f9c9a918b62953cb025,2022-05-11_19h25.35.568,classification_task,2021.2.3,Win32,60.0240096,627c6715c52fd12f31907bcf,,,,,,,,,,,,,,,,,,,,,,,,,,,,,,,,,,,,,,,,,,,,,0,0,0,0,1,,1,,,,,,,,,,,,,,,,,,
,613add879e40150ca89fd051,627c6f9c9a918b62953cb025,2022-05-11_19h25.35.568,classification_task,2021.2.3,Win32,60.0240096,627c6715c52fd12f31907bcf,,,,,,,,,,,,,,,,,,,,,space,35.738,l,1,"[""0.138"",""0.243"",""0.610"",""0.762""]","[1,0,1,1]",0,0,0,0,1,1,0,,,0,FALSE,3.627,,,,,,,,,,,,,,,,,,,,,,,,,,,,,,,
,613add879e40150ca89fd051,627c6f9c9a918b62953cb025,2022-05-11_19h25.35.568,classification_task,2021.2.3,Win32,60.0240096,627c6715c52fd12f31907bcf,,,,,,,,,,,,,,,,,,,,,,,a,0,"[""0.035"",""0.085"",""0.243"",""0.700""]","[1,1,0,1]",0,1,1,1,1,1,1,,,0,FALSE,5.045,,,,,,,,,,,,,,,,,,,,,,,,,,,,,,,
,613add879e40150ca89fd051,627c6f9c9a918b62953cb025,2022-05-11_19h25.35.568,classification_task,2021.2.3,Win32,60.0240096,627c6715c52fd12f31907bcf,,,,,,,,,,,,,,,,,,,,,,,a,1,"[""0.192"",""0.866"",""0.804"",""0.959""]","[1,0,1,1]",0,2,2,2,1,0,0,,,0,FALSE,2.118,,,,,,,,,,,,,,,,,,,,,,,,,,,,,,,
,613add879e40150ca89fd051,627c6f9c9a918b62953cb025,2022-05-11_19h25.35.568,classification_task,2021.2.3,Win32,60.0240096,627c6715c52fd12f31907bcf,,,,,,,,,,,,,,,,,,,,,,,l,1,"[""0.272"",""0.392"",""0.610"",""0.762""]","[0,1,1,1]",0,3,3,3,1,1,0,,,0,FALSE,0.899,,,,,,,,,,,,,,,,,,,,,,,,,,,,,,,
,613add879e40150ca89fd051,627c6f9c9a918b62953cb025,2022-05-11_19h25.35.568,classification_task,2021.2.3,Win32,60.0240096,627c6715c52fd12f31907bcf,,,,,,,,,,,,,,,,,,,,,,,l,1,"[""0.138"",""0.392"",""0.873"",""0.762""]","[1,1,0,1]",0,4,4,4,1,1,0,,,0,FALSE,0.95,,,,,,,,,,,,,,,,,,,,,,,,,,,,,,,
,613add879e40150ca89fd051,627c6f9c9a918b62953cb025,2022-05-11_19h25.35.568,classification_task,2021.2.3,Win32,60.0240096,627c6715c52fd12f31907bcf,,,,,,,,,,,,,,,,,,,,,,,a,0,"[""0.035"",""0.085"",""0.532"",""0.873""]","[1,1,1,0]",0,5,5,5,1,1,1,,,0,FALSE,2.439,,,,,,,,,,,,,,,,,,,,,,,,,,,,,,,
,613add879e40150ca89fd051,627c6f9c9a918b62953cb025,2022-05-11_19h25.35.568,classification_task,2021.2.3,Win32,60.0240096,627c6715c52fd12f31907bcf,,,,,,,,,,,,,,,,,,,,,,,a,1,"[""0.570"",""0.426"",""0.646"",""0.912""]","[0,1,1,1]",0,6,6,6,1,0,1,,,0,FALSE,1.241,,,,,,,,,,,,,,,,,,,,,,,,,,,,,,,
,613add879e40150ca89fd051,627c6f9c9a918b62953cb025,2022-05-11_19h25.35.568,classification_task,2021.2.3,Win32,60.0240096,627c6715c52fd12f31907bcf,,,,,,,,,,,,,,,,,,,,,,,a,1,"[""0.192"",""0.463"",""0.804"",""0.272""]","[1,1,1,0]",0,7,7,7,1,0,0,,,0,FALSE,3.819,,,,,,,,,,,,,,,,,,,,,,,,,,,,,,,
,613add879e40150ca89fd051,627c6f9c9a918b62953cb025,2022-05-11_19h25.35.568,classification_task,2021.2.3,Win32,60.0240096,627c6715c52fd12f31907bcf,,,,,,,,,,,,,,,,,,,,,,,a,1,"[""0.264"",""0.463"",""0.804"",""0.959""]","[0,1,1,1]",0,8,8,8,1,0,0,,,0,FALSE,2.362,,,,,,,,,,,,,,,,,,,,,,,,,,,,,,,
,613add879e40150ca89fd051,627c6f9c9a918b62953cb025,2022-05-11_19h25.35.568,classification_task,2021.2.3,Win32,60.0240096,627c6715c52fd12f31907bcf,,,,,,,,,,,,,,,,,,,,,,,a,1,"[""0.323"",""0.426"",""0.873"",""0.912""]","[1,1,0,1]",0,9,9,9,1,0,1,,,0,FALSE,2.277,,,,,,,,,,,,,,,,,,,,,,,,,,,,,,,
,613add879e40150ca89fd051,627c6f9c9a918b62953cb025,2022-05-11_19h25.35.568,classification_task,2021.2.3,Win32,60.0240096,627c6715c52fd12f31907bcf,,,,,,,,,,,,,,,,,,,,,,,a,1,"[""0.192"",""0.463"",""0.284"",""0.959""]","[1,1,0,1]",0,10,10,10,1,0,0,,,0,FALSE,1.11,,,,,,,,,,,,,,,,,,,,,,,,,,,,,,,
,613add879e40150ca89fd051,627c6f9c9a918b62953cb025,2022-05-11_19h25.35.568,classification_task,2021.2.3,Win32,60.0240096,627c6715c52fd12f31907bcf,,,,,,,,,,,,,,,,,,,,,,,l,0,"[""0.323"",""0.426"",""0.646"",""0.282""]","[1,1,1,0]",0,11,11,11,1,0,1,,,0,FALSE,1.465,,,,,,,,,,,,,,,,,,,,,,,,,,,,,,,
,613add879e40150ca89fd051,627c6f9c9a918b62953cb025,2022-05-11_19h25.35.568,classification_task,2021.2.3,Win32,60.0240096,627c6715c52fd12f31907bcf,,,,,,,,,,,,,,,,,,,,,,,l,1,"[""0.138"",""0.392"",""0.610"",""0.357""]","[1,1,1,0]",0,12,12,12,1,1,0,,,0,FALSE,1.022,,,,,,,,,,,,,,,,,,,,,,,,,,,,,,,
,613add879e40150ca89fd051,627c6f9c9a918b62953cb025,2022-05-11_19h25.35.568,classification_task,2021.2.3,Win32,60.0240096,627c6715c52fd12f31907bcf,,,,,,,,,,,,,,,,,,,,,,,l,0,"[""0.323"",""0.243"",""0.646"",""0.912""]","[1,0,1,1]",0,13,13,13,1,0,1,,,0,FALSE,3.029,,,,,,,,,,,,,,,,,,,,,,,,,,,,,,,
,613add879e40150ca89fd051,627c6f9c9a918b62953cb025,2022-05-11_19h25.35.568,classification_task,2021.2.3,Win32,60.0240096,627c6715c52fd12f31907bcf,,,,,,,,,,,,,,,,,,,,,,,l,1,"[""0.857"",""0.085"",""0.532"",""0.700""]","[0,1,1,1]",0,14,14,14,1,1,1,,,0,FALSE,1.349,,,,,,,,,,,,,,,,,,,,,,,,,,,,,,,
,613add879e40150ca89fd051,627c6f9c9a918b62953cb025,2022-05-11_19h25.35.568,classification_task,2021.2.3,Win32,60.0240096,627c6715c52fd12f31907bcf,,,,,,,,,,,,,,,,,,,,,,,a,0,"[""0.035"",""0.867"",""0.532"",""0.700""]","[1,0,1,1]",0,15,15,15,1,1,1,,,0,FALSE,1.289,,,,,,,,,,,,,,,,,,,,,,,,,,,,,,,
,613add879e40150ca89fd051,627c6f9c9a918b62953cb025,2022-05-11_19h25.35.568,classification_task,2021.2.3,Win32,60.0240096,627c6715c52fd12f31907bcf,,,,,,,,,,,,,,,,,,,,,,,l,1,"[""0.138"",""0.874"",""0.610"",""0.762""]","[1,0,1,1]",0,16,16,16,1,1,0,,,0,FALSE,0.814,,,,,,,,,,,,,,,,,,,,,,,,,,,,,,,
,613add879e40150ca89fd051,627c6f9c9a918b62953cb025,2022-05-11_19h25.35.568,classification_task,2021.2.3,Win32,60.0240096,627c6715c52fd12f31907bcf,,,,,,,,,,,,,,,,,,,,,,,a,0,"[""0.873"",""0.085"",""0.532"",""0.700""]","[0,1,1,1]",0,17,17,17,1,1,1,,,0,FALSE,4.458,,,,,,,,,,,,,,,,,,,,,,,,,,,,,,,
,613add879e40150ca89fd051,627c6f9c9a918b62953cb025,2022-05-11_19h25.35.568,classification_task,2021.2.3,Win32,60.0240096,627c6715c52fd12f31907bcf,,,,,,,,,,,,,,,,,,,,,,,a,1,"[""0.192"",""0.873"",""0.804"",""0.959""]","[1,0,1,1]",0,18,18,18,1,0,0,,,0,FALSE,0.807,,,,,,,,,,,,,,,,,,,,,,,,,,,,,,,
,613add879e40150ca89fd051,627c6f9c9a918b62953cb025,2022-05-11_19h25.35.568,classification_task,2021.2.3,Win32,60.0240096,627c6715c52fd12f31907bcf,,,,,,,,,,,,,,,,,,,,,,,a,1,"[""0.860"",""0.426"",""0.646"",""0.912""]","[0,1,1,1]",0,19,19,19,1,0,1,,,0,FALSE,1.719,,,,,,,,,,,,,,,,,,,,,,,,,,,,,,,
,613add879e40150ca89fd051,627c6f9c9a918b62953cb025,2022-05-11_19h25.35.568,classification_task,2021.2.3,Win32,60.0240096,627c6715c52fd12f31907bcf,,,,,,,,,,,,,,,,,,,,,,,l,1,"[""0.035"",""0.085"",""0.242"",""0.700""]","[1,1,0,1]",0,20,20,20,1,1,1,,,0,FALSE,1.396,,,,,,,,,,,,,,,,,,,,,,,,,,,,,,,
,613add879e40150ca89fd051,627c6f9c9a918b62953cb025,2022-05-11_19h25.35.568,classification_task,2021.2.3,Win32,60.0240096,627c6715c52fd12f31907bcf,,,,,,,,,,,,,,,,,,,,,,,l,0,"[""0.323"",""0.426"",""0.243"",""0.912""]","[1,1,0,1]",0,21,21,21,1,0,1,,,0,FALSE,1.615,,,,,,,,,,,,,,,,,,,,,,,,,,,,,,,
,613add879e40150ca89fd051,627c6f9c9a918b62953cb025,2022-05-11_19h25.35.568,classification_task,2021.2.3,Win32,60.0240096,627c6715c52fd12f31907bcf,,,,,,,,,,,,,,,,,,,,,,,l,1,"[""0.138"",""0.392"",""0.867"",""0.762""]","[1,1,0,1]",0,22,22,22,1,1,0,,,0,FALSE,0.884,,,,,,,,,,,,,,,,,,,,,,,,,,,,,,,
,613add879e40150ca89fd051,627c6f9c9a918b62953cb025,2022-05-11_19h25.35.568,classification_task,2021.2.3,Win32,60.0240096,627c6715c52fd12f31907bcf,,,,,,,,,,,,,,,,,,,,,,,l,1,"[""0.035"",""0.873"",""0.532"",""0.700""]","[1,0,1,1]",0,23,23,23,1,1,1,,,0,FALSE,1.447,,,,,,,,,,,,,,,,,,,,,,,,,,,,,,,
,613add879e40150ca89fd051,627c6f9c9a918b62953cb025,2022-05-11_19h25.35.568,classification_task,2021.2.3,Win32,60.0240096,627c6715c52fd12f31907bcf,,,,,,,,,,,,,,,,,,,,,,,l,1,"[""0.284"",""0.392"",""0.610"",""0.762""]","[0,1,1,1]",0,24,24,24,1,1,0,,,0,FALSE,1.103,,,,,,,,,,,,,,,,,,,,,,,,,,,,,,,
,613add879e40150ca89fd051,627c6f9c9a918b62953cb025,2022-05-11_19h25.35.568,classification_task,2021.2.3,Win32,60.0240096,627c6715c52fd12f31907bcf,,,,,,,,,,,,,,,,,,,,,,,a,1,"[""0.874"",""0.463"",""0.804"",""0.959""]","[0,1,1,1]",0,25,25,25,1,0,0,,,0,FALSE,0.959,,,,,,,,,,,,,,,,,,,,,,,,,,,,,,,
,613add879e40150ca89fd051,627c6f9c9a918b62953cb025,2022-05-11_19h25.35.568,classification_task,2021.2.3,Win32,60.0240096,627c6715c52fd12f31907bcf,,,,,,,,,,,,,,,,,,,,,,,l,1,"[""0.035"",""0.085"",""0.532"",""0.242""]","[1,1,1,0]",0,26,26,26,1,1,1,,,0,FALSE,2.714,,,,,,,,,,,,,,,,,,,,,,,,,,,,,,,
,613add879e40150ca89fd051,627c6f9c9a918b62953cb025,2022-05-11_19h25.35.568,classification_task,2021.2.3,Win32,60.0240096,627c6715c52fd12f31907bcf,,,,,,,,,,,,,,,,,,,,,,,a,1,"[""0.323"",""0.426"",""0.646"",""0.264""]","[1,1,1,0]",0,27,27,27,1,0,1,,,0,FALSE,1.733,,,,,,,,,,,,,,,,,,,,,,,,,,,,,,,
,613add879e40150ca89fd051,627c6f9c9a918b62953cb025,2022-05-11_19h25.35.568,classification_task,2021.2.3,Win32,60.0240096,627c6715c52fd12f31907bcf,,,,,,,,,,,,,,,,,,,,,,,a,1,"[""0.323"",""0.866"",""0.646"",""0.912""]","[1,0,1,1]",0,28,28,28,1,0,1,,,0,FALSE,1.925,,,,,,,,,,,,,,,,,,,,,,,,,,,,,,,
,613add879e40150ca89fd051,627c6f9c9a918b62953cb025,2022-05-11_19h25.35.568,classification_task,2021.2.3,Win32,60.0240096,627c6715c52fd12f31907bcf,,,,,,,,,,,,,,,,,,,,,,,l,1,"[""0.138"",""0.392"",""0.610"",""0.248""]","[1,1,1,0]",0,29,29,29,1,1,0,,,0,FALSE,0.699,,,,,,,,,,,,,,,,,,,,,,,,,,,,,,,
,613add879e40150ca89fd051,627c6f9c9a918b62953cb025,2022-05-11_19h25.35.568,classification_task,2021.2.3,Win32,60.0240096,627c6715c52fd12f31907bcf,,,,,,,,,,,,,,,,,,,,,,,a,1,"[""0.192"",""0.463"",""0.264"",""0.959""]","[1,1,0,1]",0,30,30,30,1,0,0,,,0,FALSE,3.317,,,,,,,,,,,,,,,,,,,,,,,,,,,,,,,
,613add879e40150ca89fd051,627c6f9c9a918b62953cb025,2022-05-11_19h25.35.568,classification_task,2021.2.3,Win32,60.0240096,627c6715c52fd12f31907bcf,,,,,,,,,,,,,,,,,,,,,,,a,1,"[""0.192"",""0.463"",""0.804"",""0.272""]","[1,1,1,0]",0,31,31,31,1,0,0,,,0,FALSE,1.037,,,,,,,,,,,,,,,,,,,,,,,,,,,,,,,
,613add879e40150ca89fd051,627c6f9c9a918b62953cb025,2022-05-11_19h25.35.568,classification_task,2021.2.3,Win32,60.0240096,627c6715c52fd12f31907bcf,,,,,,,,,,,,,,,,,,,,,,,l,1,"[""0.866"",""0.085"",""0.532"",""0.700""]","[0,1,1,1]",0,32,32,32,1,1,1,,,0,FALSE,1.478,,,,,,,,,,,,,,,,,,,,,,,,,,,,,,,
,613add879e40150ca89fd051,627c6f9c9a918b62953cb025,2022-05-11_19h25.35.568,classification_task,2021.2.3,Win32,60.0240096,627c6715c52fd12f31907bcf,,,,,,,,,,,,,,,,,,,,,,,a,1,"[""0.192"",""0.866"",""0.804"",""0.959""]","[1,0,1,1]",0,33,33,33,1,0,0,,,0,FALSE,1.161,,,,,,,,,,,,,,,,,,,,,,,,,,,,,,,
,613add879e40150ca89fd051,627c6f9c9a918b62953cb025,2022-05-11_19h25.35.568,classification_task,2021.2.3,Win32,60.0240096,627c6715c52fd12f31907bcf,,,,,,,,,,,,,,,,,,,,,,,l,0,"[""0.323"",""0.426"",""0.646"",""0.284""]","[1,1,1,0]",0,34,34,34,1,0,1,,,0,FALSE,1.963,,,,,,,,,,,,,,,,,,,,,,,,,,,,,,,
,613add879e40150ca89fd051,627c6f9c9a918b62953cb025,2022-05-11_19h25.35.568,classification_task,2021.2.3,Win32,60.0240096,627c6715c52fd12f31907bcf,,,,,,,,,,,,,,,,,,,,,,,l,0,"[""0.282"",""0.426"",""0.646"",""0.912""]","[0,1,1,1]",0,35,35,35,1,0,1,,,0,FALSE,2.106,,,,,,,,,,,,,,,,,,,,,,,,,,,,,,,
,613add879e40150ca89fd051,627c6f9c9a918b62953cb025,2022-05-11_19h25.35.568,classification_task,2021.2.3,Win32,60.0240096,627c6715c52fd12f31907bcf,,,,,,,,,,,,,,,,,,,,,,,l,1,"[""0.035"",""0.085"",""0.532"",""0.857""]","[1,1,1,0]",0,36,36,36,1,1,1,,,0,FALSE,1.25,,,,,,,,,,,,,,,,,,,,,,,,,,,,,,,
,613add879e40150ca89fd051,627c6f9c9a918b62953cb025,2022-05-11_19h25.35.568,classification_task,2021.2.3,Win32,60.0240096,627c6715c52fd12f31907bcf,,,,,,,,,,,,,,,,,,,,,,,l,1,"[""0.035"",""0.874"",""0.532"",""0.700""]","[1,0,1,1]",0,37,37,37,1,1,1,,,0,FALSE,1.817,,,,,,,,,,,,,,,,,,,,,,,,,,,,,,,
,613add879e40150ca89fd051,627c6f9c9a918b62953cb025,2022-05-11_19h25.35.568,classification_task,2021.2.3,Win32,60.0240096,627c6715c52fd12f31907bcf,,,,,,,,,,,,,,,,,,,,,,,l,1,"[""0.282"",""0.392"",""0.610"",""0.762""]","[0,1,1,1]",0,38,38,38,1,1,0,,,0,FALSE,0.983,,,,,,,,,,,,,,,,,,,,,,,,,,,,,,,
,613add879e40150ca89fd051,627c6f9c9a918b62953cb025,2022-05-11_19h25.35.568,classification_task,2021.2.3,Win32,60.0240096,627c6715c52fd12f31907bcf,,,,,,,,,,,,,,,,,,,,,,,l,1,"[""0.138"",""0.392"",""0.610"",""0.874""]","[1,1,1,0]",0,39,39,39,1,1,0,,,0,FALSE,1.098,,,,,,,,,,,,,,,,,,,,,,,,,,,,,,,
,613add879e40150ca89fd051,627c6f9c9a918b62953cb025,2022-05-11_19h25.35.568,classification_task,2021.2.3,Win32,60.0240096,627c6715c52fd12f31907bcf,,,,,,,,,,,,,,,,,,,,,,,a,1,"[""0.192"",""0.463"",""0.804"",""0.282""]","[1,1,1,0]",0,40,40,40,1,0,0,,,0,FALSE,1.807,,,,,,,,,,,,,,,,,,,,,,,,,,,,,,,
,613add879e40150ca89fd051,627c6f9c9a918b62953cb025,2022-05-11_19h25.35.568,classification_task,2021.2.3,Win32,60.0240096,627c6715c52fd12f31907bcf,,,,,,,,,,,,,,,,,,,,,,,a,1,"[""0.323"",""0.426"",""0.874"",""0.912""]","[1,1,0,1]",0,41,41,41,1,0,1,,,0,FALSE,2.231,,,,,,,,,,,,,,,,,,,,,,,,,,,,,,,
,613add879e40150ca89fd051,627c6f9c9a918b62953cb025,2022-05-11_19h25.35.568,classification_task,2021.2.3,Win32,60.0240096,627c6715c52fd12f31907bcf,,,,,,,,,,,,,,,,,,,,,,,a,1,"[""0.323"",""0.873"",""0.646"",""0.912""]","[1,0,1,1]",0,42,42,42,1,0,1,,,0,FALSE,1.816,,,,,,,,,,,,,,,,,,,,,,,,,,,,,,,
,613add879e40150ca89fd051,627c6f9c9a918b62953cb025,2022-05-11_19h25.35.568,classification_task,2021.2.3,Win32,60.0240096,627c6715c52fd12f31907bcf,,,,,,,,,,,,,,,,,,,,,,,l,1,"[""0.138"",""0.392"",""0.284"",""0.762""]","[1,1,0,1]",0,43,43,43,1,1,0,,,0,FALSE,1.023,,,,,,,,,,,,,,,,,,,,,,,,,,,,,,,
,613add879e40150ca89fd051,627c6f9c9a918b62953cb025,2022-05-11_19h25.35.568,classification_task,2021.2.3,Win32,60.0240096,627c6715c52fd12f31907bcf,,,,,,,,,,,,,,,,,,,,,,,a,1,"[""0.272"",""0.463"",""0.804"",""0.959""]","[0,1,1,1]",0,44,44,44,1,0,0,,,0,FALSE,0.792,,,,,,,,,,,,,,,,,,,,,,,,,,,,,,,
,613add879e40150ca89fd051,627c6f9c9a918b62953cb025,2022-05-11_19h25.35.568,classification_task,2021.2.3,Win32,60.0240096,627c6715c52fd12f31907bcf,,,,,,,,,,,,,,,,,,,,,,,a,1,"[""0.192"",""0.463"",""0.866"",""0.959""]","[1,1,0,1]",0,45,45,45,1,0,0,,,0,FALSE,1.473,,,,,,,,,,,,,,,,,,,,,,,,,,,,,,,
,613add879e40150ca89fd051,627c6f9c9a918b62953cb025,2022-05-11_19h25.35.568,classification_task,2021.2.3,Win32,60.0240096,627c6715c52fd12f31907bcf,,,,,,,,,,,,,,,,,,,,,,,l,1,"[""0.138"",""0.570"",""0.610"",""0.762""]","[1,0,1,1]",0,46,46,46,1,1,0,,,0,FALSE,2.017,,,,,,,,,,,,,,,,,,,,,,,,,,,,,,,
,613add879e40150ca89fd051,627c6f9c9a918b62953cb025,2022-05-11_19h25.35.568,classification_task,2021.2.3,Win32,60.0240096,627c6715c52fd12f31907bcf,,,,,,,,,,,,,,,,,,,,,,,l,1,"[""0.035"",""0.085"",""0.272"",""0.700""]","[1,1,0,1]",0,47,47,47,1,1,1,,,0,FALSE,1.501,,,,,,,,,,,,,,,,,,,,,,,,,,,,,,,
,613add879e40150ca89fd051,627c6f9c9a918b62953cb025,2022-05-11_19h25.35.568,classification_task,2021.2.3,Win32,60.0240096,627c6715c52fd12f31907bcf,,,,,,,,,,,,,,,,,,,,,,,l,0,"[""0.873"",""0.426"",""0.646"",""0.912""]","[0,1,1,1]",0,48,48,48,1,0,1,,,0,FALSE,1.336,,,,,,,,,,,,,,,,,,,,,,,,,,,,,,,
,613add879e40150ca89fd051,627c6f9c9a918b62953cb025,2022-05-11_19h25.35.568,classification_task,2021.2.3,Win32,60.0240096,627c6715c52fd12f31907bcf,,,,,,,,,,,,,,,,,,,,,,,l,0,"[""0.323"",""0.426"",""0.646"",""0.873""]","[1,1,1,0]",0,49,49,49,1,0,1,,,0,FALSE,1.299,,,,,,,,,,,,,,,,,,,,,,,,,,,,,,,
,613add879e40150ca89fd051,627c6f9c9a918b62953cb025,2022-05-11_19h25.35.568,classification_task,2021.2.3,Win32,60.0240096,627c6715c52fd12f31907bcf,,,,,,,,,,,,,,,,,,,,,,,l,1,"[""0.035"",""0.873"",""0.532"",""0.700""]","[1,0,1,1]",0,50,50,50,1,1,1,,,0,FALSE,1.599,,,,,,,,,,,,,,,,,,,,,,,,,,,,,,,
,613add879e40150ca89fd051,627c6f9c9a918b62953cb025,2022-05-11_19h25.35.568,classification_task,2021.2.3,Win32,60.0240096,627c6715c52fd12f31907bcf,,,,,,,,,,,,,,,,,,,,,,,a,0,"[""0.035"",""0.085"",""0.532"",""0.248""]","[1,1,1,0]",0,51,51,51,1,1,1,,,0,FALSE,1.95,,,,,,,,,,,,,,,,,,,,,,,,,,,,,,,
,613add879e40150ca89fd051,627c6f9c9a918b62953cb025,2022-05-11_19h25.35.568,classification_task,2021.2.3,Win32,60.0240096,627c6715c52fd12f31907bcf,,,,,,,,,,,,,,,,,,,,,,,l,1,"[""0.264"",""0.392"",""0.610"",""0.762""]","[0,1,1,1]",0,52,52,52,1,1,0,,,0,FALSE,0.762,,,,,,,,,,,,,,,,,,,,,,,,,,,,,,,
,613add879e40150ca89fd051,627c6f9c9a918b62953cb025,2022-05-11_19h25.35.568,classification_task,2021.2.3,Win32,60.0240096,627c6715c52fd12f31907bcf,,,,,,,,,,,,,,,,,,,,,,,l,1,"[""0.138"",""0.392"",""0.610"",""0.243""]","[1,1,1,0]",0,53,53,53,1,1,0,,,0,FALSE,0.641,,,,,,,,,,,,,,,,,,,,,,,,,,,,,,,
,613add879e40150ca89fd051,627c6f9c9a918b62953cb025,2022-05-11_19h25.35.568,classification_task,2021.2.3,Win32,60.0240096,627c6715c52fd12f31907bcf,,,,,,,,,,,,,,,,,,,,,,,a,1,"[""0.357"",""0.463"",""0.804"",""0.959""]","[0,1,1,1]",0,54,54,54,1,0,0,,,0,FALSE,0.807,,,,,,,,,,,,,,,,,,,,,,,,,,,,,,,
,613add879e40150ca89fd051,627c6f9c9a918b62953cb025,2022-05-11_19h25.35.568,classification_task,2021.2.3,Win32,60.0240096,627c6715c52fd12f31907bcf,,,,,,,,,,,,,,,,,,,,,,,l,0,"[""0.323"",""0.426"",""0.242"",""0.912""]","[1,1,0,1]",0,55,55,55,1,0,1,,,0,FALSE,3.034,,,,,,,,,,,,,,,,,,,,,,,,,,,,,,,
,613add879e40150ca89fd051,627c6f9c9a918b62953cb025,2022-05-11_19h25.35.568,classification_task,2021.2.3,Win32,60.0240096,627c6715c52fd12f31907bcf,,,,,,,,,,,,,,,,,,,,,,,a,1,"[""0.192"",""0.463"",""0.804"",""0.242""]","[1,1,1,0]",0,56,56,56,1,0,0,,,0,FALSE,0.888,,,,,,,,,,,,,,,,,,,,,,,,,,,,,,,
,613add879e40150ca89fd051,627c6f9c9a918b62953cb025,2022-05-11_19h25.35.568,classification_task,2021.2.3,Win32,60.0240096,627c6715c52fd12f31907bcf,,,,,,,,,,,,,,,,,,,,,,,a,1,"[""0.192"",""0.284"",""0.804"",""0.959""]","[1,0,1,1]",0,57,57,57,1,0,0,,,0,FALSE,1.606,,,,,,,,,,,,,,,,,,,,,,,,,,,,,,,
,613add879e40150ca89fd051,627c6f9c9a918b62953cb025,2022-05-11_19h25.35.568,classification_task,2021.2.3,Win32,60.0240096,627c6715c52fd12f31907bcf,,,,,,,,,,,,,,,,,,,,,,,l,1,"[""0.867"",""0.085"",""0.532"",""0.700""]","[0,1,1,1]",0,58,58,58,1,1,1,,,0,FALSE,2.268,,,,,,,,,,,,,,,,,,,,,,,,,,,,,,,
,613add879e40150ca89fd051,627c6f9c9a918b62953cb025,2022-05-11_19h25.35.568,classification_task,2021.2.3,Win32,60.0240096,627c6715c52fd12f31907bcf,,,,,,,,,,,,,,,,,,,,,,,l,1,"[""0.138"",""0.282"",""0.610"",""0.762""]","[1,0,1,1]",0,59,59,59,1,1,0,,,0,FALSE,0.82,,,,,,,,,,,,,,,,,,,,,,,,,,,,,,,
,613add879e40150ca89fd051,627c6f9c9a918b62953cb025,2022-05-11_19h25.35.568,classification_task,2021.2.3,Win32,60.0240096,627c6715c52fd12f31907bcf,,,,,,,,,,,,,,,,,,,,,,,l,1,"[""0.138"",""0.392"",""0.248"",""0.762""]","[1,1,0,1]",0,60,60,60,1,1,0,,,0,FALSE,1.614,,,,,,,,,,,,,,,,,,,,,,,,,,,,,,,
,613add879e40150ca89fd051,627c6f9c9a918b62953cb025,2022-05-11_19h25.35.568,classification_task,2021.2.3,Win32,60.0240096,627c6715c52fd12f31907bcf,,,,,,,,,,,,,,,,,,,,,,,l,0,"[""0.323"",""0.242"",""0.646"",""0.912""]","[1,0,1,1]",0,61,61,61,1,0,1,,,0,FALSE,2.251,,,,,,,,,,,,,,,,,,,,,,,,,,,,,,,
,613add879e40150ca89fd051,627c6f9c9a918b62953cb025,2022-05-11_19h25.35.568,classification_task,2021.2.3,Win32,60.0240096,627c6715c52fd12f31907bcf,,,,,,,,,,,,,,,,,,,,,,,l,1,"[""0.035"",""0.085"",""0.284"",""0.700""]","[1,1,0,1]",0,62,62,62,1,1,1,,,0,FALSE,1.541,,,,,,,,,,,,,,,,,,,,,,,,,,,,,,,
,613add879e40150ca89fd051,627c6f9c9a918b62953cb025,2022-05-11_19h25.35.568,classification_task,2021.2.3,Win32,60.0240096,627c6715c52fd12f31907bcf,,,,,,,,,,,,,,,,,,,,,,,a,1,"[""0.192"",""0.463"",""0.866"",""0.959""]","[1,1,0,1]",0,63,63,63,1,0,0,,,0,FALSE,0.99,,,,,,,,,,,,,,,,,,,,,,,,,,,,,,,
,613add879e40150ca89fd051,627c6f9c9a918b62953cb025,2022-05-11_19h25.35.568,classification_task,2021.2.3,Win32,60.0240096,627c6715c52fd12f31907bcf,,,,,,,,,,,,,,,,,,,,,,,,,,,,,,,,,,,,,,,0, ,,0,8.943758573,227.035,0,1,1,1,1,2,2,,,,,,,,,,,,,,,,,,
,613add879e40150ca89fd051,627c6f9c9a918b62953cb025,2022-05-11_19h25.35.568,classification_task,2021.2.3,Win32,60.0240096,627c6715c52fd12f31907bcf,,,,,,,,,,,,,,,,,,,,,,,,,,,,,,,,,,,,,,,1,  ,,0,2.378992749,229.981,0,1,1,1,1,2,2,,,,,,,,,,,,,,,,,,
,613add879e40150ca89fd051,627c6f9c9a918b62953cb025,2022-05-11_19h25.35.568,classification_task,2021.2.3,Win32,60.0240096,627c6715c52fd12f31907bcf,,,,,,,,,,,,,,,,,,,,,,,,,,,,,,,,,,,,,,,2,  ,,0,2.207524985,238.971,0,1,1,1,1,2,2,,,,,,,,,,,,,,,,,,
,613add879e40150ca89fd051,627c6f9c9a918b62953cb025,2022-05-11_19h25.35.568,classification_task,2021.2.3,Win32,60.0240096,627c6715c52fd12f31907bcf,,,,,,,,,,,,,,,,,,,,,,,,,,,,,,,,,,,,,,,,,,,,,0,1,1,1,1,,2,,,,,,,,,,,,,,,,,,
,613add879e40150ca89fd051,627c6f9c9a918b62953cb025,2022-05-11_19h25.35.568,classification_task,2021.2.3,Win32,60.0240096,627c6715c52fd12f31907bcf,,,,,,,,,,,,,,,,,,,,,space,16.035,l,1,"[""0.035"",""0.085"",""0.532"",""0.282""]","[1,1,1,0]",0,0,0,0,1,1,1,,,0,FALSE,2.86,,,,,,,,,,,,,,,,,,,,,,,,,,,,,,,
,613add879e40150ca89fd051,627c6f9c9a918b62953cb025,2022-05-11_19h25.35.568,classification_task,2021.2.3,Win32,60.0240096,627c6715c52fd12f31907bcf,,,,,,,,,,,,,,,,,,,,,,,l,1,"[""0.867"",""0.085"",""0.532"",""0.700""]","[0,1,1,1]",0,1,1,1,1,1,1,,,0,FALSE,2.267,,,,,,,,,,,,,,,,,,,,,,,,,,,,,,,
,613add879e40150ca89fd051,627c6f9c9a918b62953cb025,2022-05-11_19h25.35.568,classification_task,2021.2.3,Win32,60.0240096,627c6715c52fd12f31907bcf,,,,,,,,,,,,,,,,,,,,,,,l,0,"[""0.323"",""0.426"",""0.646"",""0.248""]","[1,1,1,0]",0,2,2,2,1,0,1,,,0,FALSE,1.735,,,,,,,,,,,,,,,,,,,,,,,,,,,,,,,
,613add879e40150ca89fd051,627c6f9c9a918b62953cb025,2022-05-11_19h25.35.568,classification_task,2021.2.3,Win32,60.0240096,627c6715c52fd12f31907bcf,,,,,,,,,,,,,,,,,,,,,,,a,1,"[""0.867"",""0.463"",""0.804"",""0.959""]","[0,1,1,1]",0,3,3,3,1,0,0,,,0,FALSE,2.994,,,,,,,,,,,,,,,,,,,,,,,,,,,,,,,
,613add879e40150ca89fd051,627c6f9c9a918b62953cb025,2022-05-11_19h25.35.568,classification_task,2021.2.3,Win32,60.0240096,627c6715c52fd12f31907bcf,,,,,,,,,,,,,,,,,,,,,,,l,0,"[""0.192"",""0.243"",""0.804"",""0.959""]","[1,0,1,1]",0,4,4,4,1,0,0,,,0,FALSE,1.599,,,,,,,,,,,,,,,,,,,,,,,,,,,,,,,
,613add879e40150ca89fd051,627c6f9c9a918b62953cb025,2022-05-11_19h25.35.568,classification_task,2021.2.3,Win32,60.0240096,627c6715c52fd12f31907bcf,,,,,,,,,,,,,,,,,,,,,,,a,1,"[""0.323"",""0.867"",""0.646"",""0.912""]","[1,0,1,1]",0,5,5,5,1,0,1,,,0,FALSE,1.702,,,,,,,,,,,,,,,,,,,,,,,,,,,,,,,
,613add879e40150ca89fd051,627c6f9c9a918b62953cb025,2022-05-11_19h25.35.568,classification_task,2021.2.3,Win32,60.0240096,627c6715c52fd12f31907bcf,,,,,,,,,,,,,,,,,,,,,,,l,1,"[""0.035"",""0.866"",""0.532"",""0.700""]","[1,0,1,1]",0,6,6,6,1,1,1,,,0,FALSE,2.549,,,,,,,,,,,,,,,,,,,,,,,,,,,,,,,
,613add879e40150ca89fd051,627c6f9c9a918b62953cb025,2022-05-11_19h25.35.568,classification_task,2021.2.3,Win32,60.0240096,627c6715c52fd12f31907bcf,,,,,,,,,,,,,,,,,,,,,,,a,0,"[""0.282"",""0.392"",""0.610"",""0.762""]","[0,1,1,1]",0,7,7,7,1,1,0,,,0,FALSE,1.266,,,,,,,,,,,,,,,,,,,,,,,,,,,,,,,
,613add879e40150ca89fd051,627c6f9c9a918b62953cb025,2022-05-11_19h25.35.568,classification_task,2021.2.3,Win32,60.0240096,627c6715c52fd12f31907bcf,,,,,,,,,,,,,,,,,,,,,,,a,1,"[""0.284"",""0.426"",""0.646"",""0.912""]","[0,1,1,1]",0,8,8,8,1,0,1,,,0,FALSE,1.402,,,,,,,,,,,,,,,,,,,,,,,,,,,,,,,
,613add879e40150ca89fd051,627c6f9c9a918b62953cb025,2022-05-11_19h25.35.568,classification_task,2021.2.3,Win32,60.0240096,627c6715c52fd12f31907bcf,,,,,,,,,,,,,,,,,,,,,,,a,1,"[""0.323"",""0.426"",""0.866"",""0.912""]","[1,1,0,1]",0,9,9,9,1,0,1,,,0,FALSE,1.491,,,,,,,,,,,,,,,,,,,,,,,,,,,,,,,
,613add879e40150ca89fd051,627c6f9c9a918b62953cb025,2022-05-11_19h25.35.568,classification_task,2021.2.3,Win32,60.0240096,627c6715c52fd12f31907bcf,,,,,,,,,,,,,,,,,,,,,,,a,1,"[""0.192"",""0.463"",""0.804"",""0.272""]","[1,1,1,0]",0,10,10,10,1,0,0,,,0,FALSE,1.535,,,,,,,,,,,,,,,,,,,,,,,,,,,,,,,
,613add879e40150ca89fd051,627c6f9c9a918b62953cb025,2022-05-11_19h25.35.568,classification_task,2021.2.3,Win32,60.0240096,627c6715c52fd12f31907bcf,,,,,,,,,,,,,,,,,,,,,,,l,1,"[""0.138"",""0.392"",""0.610"",""0.873""]","[1,1,1,0]",0,11,11,11,1,1,0,,,0,FALSE,1.09,,,,,,,,,,,,,,,,,,,,,,,,,,,,,,,
,613add879e40150ca89fd051,627c6f9c9a918b62953cb025,2022-05-11_19h25.35.568,classification_task,2021.2.3,Win32,60.0240096,627c6715c52fd12f31907bcf,,,,,,,,,,,,,,,,,,,,,,,l,0,"[""0.192"",""0.463"",""0.272"",""0.959""]","[1,1,0,1]",0,12,12,12,1,0,0,,,0,FALSE,1.352,,,,,,,,,,,,,,,,,,,,,,,,,,,,,,,
,613add879e40150ca89fd051,627c6f9c9a918b62953cb025,2022-05-11_19h25.35.568,classification_task,2021.2.3,Win32,60.0240096,627c6715c52fd12f31907bcf,,,,,,,,,,,,,,,,,,,,,,,a,0,"[""0.138"",""0.392"",""0.282"",""0.762""]","[1,1,0,1]",0,13,13,13,1,1,0,,,0,FALSE,1.087,,,,,,,,,,,,,,,,,,,,,,,,,,,,,,,
,613add879e40150ca89fd051,627c6f9c9a918b62953cb025,2022-05-11_19h25.35.568,classification_task,2021.2.3,Win32,60.0240096,627c6715c52fd12f31907bcf,,,,,,,,,,,,,,,,,,,,,,,l,1,"[""0.035"",""0.085"",""0.866"",""0.700""]","[1,1,0,1]",0,14,14,14,1,1,1,,,0,FALSE,1.018,,,,,,,,,,,,,,,,,,,,,,,,,,,,,,,
,613add879e40150ca89fd051,627c6f9c9a918b62953cb025,2022-05-11_19h25.35.568,classification_task,2021.2.3,Win32,60.0240096,627c6715c52fd12f31907bcf,,,,,,,,,,,,,,,,,,,,,,,a,0,"[""0.138"",""0.243"",""0.610"",""0.762""]","[1,0,1,1]",0,15,15,15,1,1,0,,,0,FALSE,1.234,,,,,,,,,,,,,,,,,,,,,,,,,,,,,,,
,613add879e40150ca89fd051,627c6f9c9a918b62953cb025,2022-05-11_19h25.35.568,classification_task,2021.2.3,Win32,60.0240096,627c6715c52fd12f31907bcf,,,,,,,,,,,,,,,,,,,,,,,l,0,"[""0.192"",""0.463"",""0.804"",""0.357""]","[1,1,1,0]",0,16,16,16,1,0,0,,,0,FALSE,1.867,,,,,,,,,,,,,,,,,,,,,,,,,,,,,,,
,613add879e40150ca89fd051,627c6f9c9a918b62953cb025,2022-05-11_19h25.35.568,classification_task,2021.2.3,Win32,60.0240096,627c6715c52fd12f31907bcf,,,,,,,,,,,,,,,,,,,,,,,l,0,"[""0.860"",""0.426"",""0.646"",""0.912""]","[0,1,1,1]",0,17,17,17,1,0,1,,,0,FALSE,1.605,,,,,,,,,,,,,,,,,,,,,,,,,,,,,,,
,613add879e40150ca89fd051,627c6f9c9a918b62953cb025,2022-05-11_19h25.35.568,classification_task,2021.2.3,Win32,60.0240096,627c6715c52fd12f31907bcf,,,,,,,,,,,,,,,,,,,,,,,a,0,"[""0.857"",""0.392"",""0.610"",""0.762""]","[0,1,1,1]",0,18,18,18,1,1,0,,,0,FALSE,3.1,,,,,,,,,,,,,,,,,,,,,,,,,,,,,,,
,613add879e40150ca89fd051,627c6f9c9a918b62953cb025,2022-05-11_19h25.35.568,classification_task,2021.2.3,Win32,60.0240096,627c6715c52fd12f31907bcf,,,,,,,,,,,,,,,,,,,,,,,a,1,"[""0.323"",""0.426"",""0.646"",""0.264""]","[1,1,1,0]",0,19,19,19,1,0,1,,,0,FALSE,3.885,,,,,,,,,,,,,,,,,,,,,,,,,,,,,,,
,613add879e40150ca89fd051,627c6f9c9a918b62953cb025,2022-05-11_19h25.35.568,classification_task,2021.2.3,Win32,60.0240096,627c6715c52fd12f31907bcf,,,,,,,,,,,,,,,,,,,,,,,l,1,"[""0.035"",""0.085"",""0.532"",""0.874""]","[1,1,1,0]",0,20,20,20,1,1,1,,,0,FALSE,1.083,,,,,,,,,,,,,,,,,,,,,,,,,,,,,,,
,613add879e40150ca89fd051,627c6f9c9a918b62953cb025,2022-05-11_19h25.35.568,classification_task,2021.2.3,Win32,60.0240096,627c6715c52fd12f31907bcf,,,,,,,,,,,,,,,,,,,,,,,l,1,"[""0.035"",""0.243"",""0.532"",""0.700""]","[1,0,1,1]",0,21,21,21,1,1,1,,,0,FALSE,1.41,,,,,,,,,,,,,,,,,,,,,,,,,,,,,,,
,613add879e40150ca89fd051,627c6f9c9a918b62953cb025,2022-05-11_19h25.35.568,classification_task,2021.2.3,Win32,60.0240096,627c6715c52fd12f31907bcf,,,,,,,,,,,,,,,,,,,,,,,l,0,"[""0.323"",""0.426"",""0.264"",""0.912""]","[1,1,0,1]",0,22,22,22,1,0,1,,,0,FALSE,2.284,,,,,,,,,,,,,,,,,,,,,,,,,,,,,,,
,613add879e40150ca89fd051,627c6f9c9a918b62953cb025,2022-05-11_19h25.35.568,classification_task,2021.2.3,Win32,60.0240096,627c6715c52fd12f31907bcf,,,,,,,,,,,,,,,,,,,,,,,l,1,"[""0.035"",""0.085"",""0.866"",""0.700""]","[1,1,0,1]",0,23,23,23,1,1,1,,,0,FALSE,1.836,,,,,,,,,,,,,,,,,,,,,,,,,,,,,,,
,613add879e40150ca89fd051,627c6f9c9a918b62953cb025,2022-05-11_19h25.35.568,classification_task,2021.2.3,Win32,60.0240096,627c6715c52fd12f31907bcf,,,,,,,,,,,,,,,,,,,,,,,a,1,"[""0.323"",""0.873"",""0.646"",""0.912""]","[1,0,1,1]",0,24,24,24,1,0,1,,,0,FALSE,1.506,,,,,,,,,,,,,,,,,,,,,,,,,,,,,,,
,613add879e40150ca89fd051,627c6f9c9a918b62953cb025,2022-05-11_19h25.35.568,classification_task,2021.2.3,Win32,60.0240096,627c6715c52fd12f31907bcf,,,,,,,,,,,,,,,,,,,,,,,a,1,"[""0.264"",""0.463"",""0.804"",""0.959""]","[0,1,1,1]",0,25,25,25,1,0,0,,,0,FALSE,2.19,,,,,,,,,,,,,,,,,,,,,,,,,,,,,,,
,613add879e40150ca89fd051,627c6f9c9a918b62953cb025,2022-05-11_19h25.35.568,classification_task,2021.2.3,Win32,60.0240096,627c6715c52fd12f31907bcf,,,,,,,,,,,,,,,,,,,,,,,a,1,"[""0.192"",""0.463"",""0.873"",""0.959""]","[1,1,0,1]",0,26,26,26,1,0,0,,,0,FALSE,1.942,,,,,,,,,,,,,,,,,,,,,,,,,,,,,,,
,613add879e40150ca89fd051,627c6f9c9a918b62953cb025,2022-05-11_19h25.35.568,classification_task,2021.2.3,Win32,60.0240096,627c6715c52fd12f31907bcf,,,,,,,,,,,,,,,,,,,,,,,l,1,"[""0.264"",""0.085"",""0.532"",""0.700""]","[0,1,1,1]",0,27,27,27,1,1,1,,,0,FALSE,3.815,,,,,,,,,,,,,,,,,,,,,,,,,,,,,,,
,613add879e40150ca89fd051,627c6f9c9a918b62953cb025,2022-05-11_19h25.35.568,classification_task,2021.2.3,Win32,60.0240096,627c6715c52fd12f31907bcf,,,,,,,,,,,,,,,,,,,,,,,a,1,"[""0.192"",""0.242"",""0.804"",""0.959""]","[1,0,1,1]",0,28,28,28,1,0,0,,,0,FALSE,2.118,,,,,,,,,,,,,,,,,,,,,,,,,,,,,,,
,613add879e40150ca89fd051,627c6f9c9a918b62953cb025,2022-05-11_19h25.35.568,classification_task,2021.2.3,Win32,60.0240096,627c6715c52fd12f31907bcf,,,,,,,,,,,,,,,,,,,,,,,l,1,"[""0.138"",""0.874"",""0.610"",""0.762""]","[1,0,1,1]",0,29,29,29,1,1,0,,,0,FALSE,1.193,,,,,,,,,,,,,,,,,,,,,,,,,,,,,,,
,613add879e40150ca89fd051,627c6f9c9a918b62953cb025,2022-05-11_19h25.35.568,classification_task,2021.2.3,Win32,60.0240096,627c6715c52fd12f31907bcf,,,,,,,,,,,,,,,,,,,,,,,l,1,"[""0.138"",""0.392"",""0.873"",""0.762""]","[1,1,0,1]",0,30,30,30,1,1,0,,,0,FALSE,1.081,,,,,,,,,,,,,,,,,,,,,,,,,,,,,,,
,613add879e40150ca89fd051,627c6f9c9a918b62953cb025,2022-05-11_19h25.35.568,classification_task,2021.2.3,Win32,60.0240096,627c6715c52fd12f31907bcf,,,,,,,,,,,,,,,,,,,,,,,l,1,"[""0.138"",""0.392"",""0.610"",""0.860""]","[1,1,1,0]",0,31,31,31,1,1,0,,,0,FALSE,1.271,,,,,,,,,,,,,,,,,,,,,,,,,,,,,,,
,613add879e40150ca89fd051,627c6f9c9a918b62953cb025,2022-05-11_19h25.35.568,classification_task,2021.2.3,Win32,60.0240096,627c6715c52fd12f31907bcf,,,,,,,,,,,,,,,,,,,,,,,l,1,"[""0.138"",""0.392"",""0.610"",""0.860""]","[1,1,1,0]",0,32,32,32,1,1,0,,,0,FALSE,1.901,,,,,,,,,,,,,,,,,,,,,,,,,,,,,,,
,613add879e40150ca89fd051,627c6f9c9a918b62953cb025,2022-05-11_19h25.35.568,classification_task,2021.2.3,Win32,60.0240096,627c6715c52fd12f31907bcf,,,,,,,,,,,,,,,,,,,,,,,l,1,"[""0.138"",""0.392"",""0.860"",""0.762""]","[1,1,0,1]",0,33,33,33,1,1,0,,,0,FALSE,2.486,,,,,,,,,,,,,,,,,,,,,,,,,,,,,,,
,613add879e40150ca89fd051,627c6f9c9a918b62953cb025,2022-05-11_19h25.35.568,classification_task,2021.2.3,Win32,60.0240096,627c6715c52fd12f31907bcf,,,,,,,,,,,,,,,,,,,,,,,l,1,"[""0.035"",""0.085"",""0.532"",""0.284""]","[1,1,1,0]",0,34,34,34,1,1,1,,,0,FALSE,2.365,,,,,,,,,,,,,,,,,,,,,,,,,,,,,,,
,613add879e40150ca89fd051,627c6f9c9a918b62953cb025,2022-05-11_19h25.35.568,classification_task,2021.2.3,Win32,60.0240096,627c6715c52fd12f31907bcf,,,,,,,,,,,,,,,,,,,,,,,a,1,"[""0.323"",""0.426"",""0.646"",""0.866""]","[1,1,1,0]",0,35,35,35,1,0,1,,,0,FALSE,1.124,,,,,,,,,,,,,,,,,,,,,,,,,,,,,,,
,613add879e40150ca89fd051,627c6f9c9a918b62953cb025,2022-05-11_19h25.35.568,classification_task,2021.2.3,Win32,60.0240096,627c6715c52fd12f31907bcf,,,,,,,,,,,,,,,,,,,,,,,a,1,"[""0.323"",""0.426"",""0.867"",""0.912""]","[1,1,0,1]",0,36,36,36,1,0,1,,,0,FALSE,1.584,,,,,,,,,,,,,,,,,,,,,,,,,,,,,,,
,613add879e40150ca89fd051,627c6f9c9a918b62953cb025,2022-05-11_19h25.35.568,classification_task,2021.2.3,Win32,60.0240096,627c6715c52fd12f31907bcf,,,,,,,,,,,,,,,,,,,,,,,a,1,"[""0.192"",""0.463"",""0.804"",""0.873""]","[1,1,1,0]",0,37,37,37,1,0,0,,,0,FALSE,1.949,,,,,,,,,,,,,,,,,,,,,,,,,,,,,,,
,613add879e40150ca89fd051,627c6f9c9a918b62953cb025,2022-05-11_19h25.35.568,classification_task,2021.2.3,Win32,60.0240096,627c6715c52fd12f31907bcf,,,,,,,,,,,,,,,,,,,,,,,a,1,"[""0.192"",""0.463"",""0.857"",""0.959""]","[1,1,0,1]",0,38,38,38,1,0,0,,,0,FALSE,1.318,,,,,,,,,,,,,,,,,,,,,,,,,,,,,,,
,613add879e40150ca89fd051,627c6f9c9a918b62953cb025,2022-05-11_19h25.35.568,classification_task,2021.2.3,Win32,60.0240096,627c6715c52fd12f31907bcf,,,,,,,,,,,,,,,,,,,,,,,l,0,"[""0.323"",""0.264"",""0.646"",""0.912""]","[1,0,1,1]",0,39,39,39,1,0,1,,,0,FALSE,2.003,,,,,,,,,,,,,,,,,,,,,,,,,,,,,,,
,613add879e40150ca89fd051,627c6f9c9a918b62953cb025,2022-05-11_19h25.35.568,classification_task,2021.2.3,Win32,60.0240096,627c6715c52fd12f31907bcf,,,,,,,,,,,,,,,,,,,,,,,a,1,"[""0.192"",""0.357"",""0.804"",""0.959""]","[1,0,1,1]",0,40,40,40,1,0,0,,,0,FALSE,1.05,,,,,,,,,,,,,,,,,,,,,,,,,,,,,,,
,613add879e40150ca89fd051,627c6f9c9a918b62953cb025,2022-05-11_19h25.35.568,classification_task,2021.2.3,Win32,60.0240096,627c6715c52fd12f31907bcf,,,,,,,,,,,,,,,,,,,,,,,l,0,"[""0.873"",""0.463"",""0.804"",""0.959""]","[0,1,1,1]",0,41,41,41,1,0,0,,,0,FALSE,2.018,,,,,,,,,,,,,,,,,,,,,,,,,,,,,,,
,613add879e40150ca89fd051,627c6f9c9a918b62953cb025,2022-05-11_19h25.35.568,classification_task,2021.2.3,Win32,60.0240096,627c6715c52fd12f31907bcf,,,,,,,,,,,,,,,,,,,,,,,l,1,"[""0.035"",""0.085"",""0.857"",""0.700""]","[1,1,0,1]",0,42,42,42,1,1,1,,,0,FALSE,1.054,,,,,,,,,,,,,,,,,,,,,,,,,,,,,,,
,613add879e40150ca89fd051,627c6f9c9a918b62953cb025,2022-05-11_19h25.35.568,classification_task,2021.2.3,Win32,60.0240096,627c6715c52fd12f31907bcf,,,,,,,,,,,,,,,,,,,,,,,a,1,"[""0.282"",""0.426"",""0.646"",""0.912""]","[0,1,1,1]",0,43,43,43,1,0,1,,,0,FALSE,1.789,,,,,,,,,,,,,,,,,,,,,,,,,,,,,,,
,613add879e40150ca89fd051,627c6f9c9a918b62953cb025,2022-05-11_19h25.35.568,classification_task,2021.2.3,Win32,60.0240096,627c6715c52fd12f31907bcf,,,,,,,,,,,,,,,,,,,,,,,a,0,"[""0.874"",""0.085"",""0.532"",""0.700""]","[0,1,1,1]",0,44,44,44,1,1,1,,,0,FALSE,1.741,,,,,,,,,,,,,,,,,,,,,,,,,,,,,,,
,613add879e40150ca89fd051,627c6f9c9a918b62953cb025,2022-05-11_19h25.35.568,classification_task,2021.2.3,Win32,60.0240096,627c6715c52fd12f31907bcf,,,,,,,,,,,,,,,,,,,,,,,a,0,"[""0.874"",""0.392"",""0.610"",""0.762""]","[0,1,1,1]",0,45,45,45,1,1,0,,,0,FALSE,1.165,,,,,,,,,,,,,,,,,,,,,,,,,,,,,,,
,613add879e40150ca89fd051,627c6f9c9a918b62953cb025,2022-05-11_19h25.35.568,classification_task,2021.2.3,Win32,60.0240096,627c6715c52fd12f31907bcf,,,,,,,,,,,,,,,,,,,,,,,l,1,"[""0.035"",""0.873"",""0.532"",""0.700""]","[1,0,1,1]",0,46,46,46,1,1,1,,,0,FALSE,1.383,,,,,,,,,,,,,,,,,,,,,,,,,,,,,,,
,613add879e40150ca89fd051,627c6f9c9a918b62953cb025,2022-05-11_19h25.35.568,classification_task,2021.2.3,Win32,60.0240096,627c6715c52fd12f31907bcf,,,,,,,,,,,,,,,,,,,,,,,l,1,"[""0.138"",""0.282"",""0.610"",""0.762""]","[1,0,1,1]",0,47,47,47,1,1,0,,,0,FALSE,1.1,,,,,,,,,,,,,,,,,,,,,,,,,,,,,,,
,613add879e40150ca89fd051,627c6f9c9a918b62953cb025,2022-05-11_19h25.35.568,classification_task,2021.2.3,Win32,60.0240096,627c6715c52fd12f31907bcf,,,,,,,,,,,,,,,,,,,,,,,a,1,"[""0.323"",""0.426"",""0.646"",""0.860""]","[1,1,1,0]",0,48,48,48,1,0,1,,,0,FALSE,2.603,,,,,,,,,,,,,,,,,,,,,,,,,,,,,,,
,613add879e40150ca89fd051,627c6f9c9a918b62953cb025,2022-05-11_19h25.35.568,classification_task,2021.2.3,Win32,60.0240096,627c6715c52fd12f31907bcf,,,,,,,,,,,,,,,,,,,,,,,a,0,"[""0.248"",""0.085"",""0.532"",""0.700""]","[0,1,1,1]",0,49,49,49,1,1,1,,,0,FALSE,1.771,,,,,,,,,,,,,,,,,,,,,,,,,,,,,,,
,613add879e40150ca89fd051,627c6f9c9a918b62953cb025,2022-05-11_19h25.35.568,classification_task,2021.2.3,Win32,60.0240096,627c6715c52fd12f31907bcf,,,,,,,,,,,,,,,,,,,,,,,l,1,"[""0.035"",""0.085"",""0.866"",""0.700""]","[1,1,0,1]",0,50,50,50,1,1,1,,,0,FALSE,0.933,,,,,,,,,,,,,,,,,,,,,,,,,,,,,,,
,613add879e40150ca89fd051,627c6f9c9a918b62953cb025,2022-05-11_19h25.35.568,classification_task,2021.2.3,Win32,60.0240096,627c6715c52fd12f31907bcf,,,,,,,,,,,,,,,,,,,,,,,l,0,"[""0.248"",""0.426"",""0.646"",""0.912""]","[0,1,1,1]",0,51,51,51,1,0,1,,,0,FALSE,3.022,,,,,,,,,,,,,,,,,,,,,,,,,,,,,,,
,613add879e40150ca89fd051,627c6f9c9a918b62953cb025,2022-05-11_19h25.35.568,classification_task,2021.2.3,Win32,60.0240096,627c6715c52fd12f31907bcf,,,,,,,,,,,,,,,,,,,,,,,l,1,"[""0.035"",""0.085"",""0.532"",""0.243""]","[1,1,1,0]",0,52,52,52,1,1,1,,,0,FALSE,0.958,,,,,,,,,,,,,,,,,,,,,,,,,,,,,,,
,613add879e40150ca89fd051,627c6f9c9a918b62953cb025,2022-05-11_19h25.35.568,classification_task,2021.2.3,Win32,60.0240096,627c6715c52fd12f31907bcf,,,,,,,,,,,,,,,,,,,,,,,l,1,"[""0.138"",""0.392"",""0.610"",""0.860""]","[1,1,1,0]",0,53,53,53,1,1,0,,,0,FALSE,1.141,,,,,,,,,,,,,,,,,,,,,,,,,,,,,,,
,613add879e40150ca89fd051,627c6f9c9a918b62953cb025,2022-05-11_19h25.35.568,classification_task,2021.2.3,Win32,60.0240096,627c6715c52fd12f31907bcf,,,,,,,,,,,,,,,,,,,,,,,a,1,"[""0.323"",""0.426"",""0.866"",""0.912""]","[1,1,0,1]",0,54,54,54,1,0,1,,,0,FALSE,1.833,,,,,,,,,,,,,,,,,,,,,,,,,,,,,,,
,613add879e40150ca89fd051,627c6f9c9a918b62953cb025,2022-05-11_19h25.35.568,classification_task,2021.2.3,Win32,60.0240096,627c6715c52fd12f31907bcf,,,,,,,,,,,,,,,,,,,,,,,a,1,"[""0.192"",""0.463"",""0.243"",""0.959""]","[1,1,0,1]",0,55,55,55,1,0,0,,,0,FALSE,1.232,,,,,,,,,,,,,,,,,,,,,,,,,,,,,,,
,613add879e40150ca89fd051,627c6f9c9a918b62953cb025,2022-05-11_19h25.35.568,classification_task,2021.2.3,Win32,60.0240096,627c6715c52fd12f31907bcf,,,,,,,,,,,,,,,,,,,,,,,l,0,"[""0.873"",""0.463"",""0.804"",""0.959""]","[0,1,1,1]",0,56,56,56,1,0,0,,,0,FALSE,1.801,,,,,,,,,,,,,,,,,,,,,,,,,,,,,,,
,613add879e40150ca89fd051,627c6f9c9a918b62953cb025,2022-05-11_19h25.35.568,classification_task,2021.2.3,Win32,60.0240096,627c6715c52fd12f31907bcf,,,,,,,,,,,,,,,,,,,,,,,a,1,"[""0.192"",""0.243"",""0.804"",""0.959""]","[1,0,1,1]",0,57,57,57,1,0,0,,,0,FALSE,2.301,,,,,,,,,,,,,,,,,,,,,,,,,,,,,,,
,613add879e40150ca89fd051,627c6f9c9a918b62953cb025,2022-05-11_19h25.35.568,classification_task,2021.2.3,Win32,60.0240096,627c6715c52fd12f31907bcf,,,,,,,,,,,,,,,,,,,,,,,a,1,"[""0.192"",""0.463"",""0.804"",""0.866""]","[1,1,1,0]",0,58,58,58,1,0,0,,,0,FALSE,1.552,,,,,,,,,,,,,,,,,,,,,,,,,,,,,,,
,613add879e40150ca89fd051,627c6f9c9a918b62953cb025,2022-05-11_19h25.35.568,classification_task,2021.2.3,Win32,60.0240096,627c6715c52fd12f31907bcf,,,,,,,,,,,,,,,,,,,,,,,l,1,"[""0.138"",""0.392"",""0.284"",""0.762""]","[1,1,0,1]",0,59,59,59,1,1,0,,,0,FALSE,0.953,,,,,,,,,,,,,,,,,,,,,,,,,,,,,,,
,613add879e40150ca89fd051,627c6f9c9a918b62953cb025,2022-05-11_19h25.35.568,classification_task,2021.2.3,Win32,60.0240096,627c6715c52fd12f31907bcf,,,,,,,,,,,,,,,,,,,,,,,l,1,"[""0.248"",""0.392"",""0.610"",""0.762""]","[0,1,1,1]",0,60,60,60,1,1,0,,,0,FALSE,2.354,,,,,,,,,,,,,,,,,,,,,,,,,,,,,,,
,613add879e40150ca89fd051,627c6f9c9a918b62953cb025,2022-05-11_19h25.35.568,classification_task,2021.2.3,Win32,60.0240096,627c6715c52fd12f31907bcf,,,,,,,,,,,,,,,,,,,,,,,a,1,"[""0.323"",""0.272"",""0.646"",""0.912""]","[1,0,1,1]",0,61,61,61,1,0,1,,,0,FALSE,2.14,,,,,,,,,,,,,,,,,,,,,,,,,,,,,,,
,613add879e40150ca89fd051,627c6f9c9a918b62953cb025,2022-05-11_19h25.35.568,classification_task,2021.2.3,Win32,60.0240096,627c6715c52fd12f31907bcf,,,,,,,,,,,,,,,,,,,,,,,l,1,"[""0.035"",""0.857"",""0.532"",""0.700""]","[1,0,1,1]",0,62,62,62,1,1,1,,,0,FALSE,0.952,,,,,,,,,,,,,,,,,,,,,,,,,,,,,,,
,613add879e40150ca89fd051,627c6f9c9a918b62953cb025,2022-05-11_19h25.35.568,classification_task,2021.2.3,Win32,60.0240096,627c6715c52fd12f31907bcf,,,,,,,,,,,,,,,,,,,,,,,l,1,"[""0.138"",""0.284"",""0.610"",""0.762""]","[1,0,1,1]",0,63,63,63,1,1,0,,,0,FALSE,1.234,,,,,,,,,,,,,,,,,,,,,,,,,,,,,,,
,613add879e40150ca89fd051,627c6f9c9a918b62953cb025,2022-05-11_19h25.35.568,classification_task,2021.2.3,Win32,60.0240096,627c6715c52fd12f31907bcf,,,,,,,,,,,,,,,,,,,,,,,,,,,,,,,,,,,,,,,0, ,,0,8.061924358,202.591,0,2,2,2,1,2,3,,,,,,,,,,,,,,,,,,
,613add879e40150ca89fd051,627c6f9c9a918b62953cb025,2022-05-11_19h25.35.568,classification_task,2021.2.3,Win32,60.0240096,627c6715c52fd12f31907bcf,,,,,,,,,,,,,,,,,,,,,,,,,,,,,,,,,,,,,,,1,  ,,0,0.811287478,205.544,0,2,2,2,1,2,3,,,,,,,,,,,,,,,,,,
,613add879e40150ca89fd051,627c6f9c9a918b62953cb025,2022-05-11_19h25.35.568,classification_task,2021.2.3,Win32,60.0240096,627c6715c52fd12f31907bcf,,,,,,,,,,,,,,,,,,,,,,,,,,,,,,,,,,,,,,,2,  ,,0,0.46835195,208.133,0,2,2,2,1,2,3,,,,,,,,,,,,,,,,,,
,613add879e40150ca89fd051,627c6f9c9a918b62953cb025,2022-05-11_19h25.35.568,classification_task,2021.2.3,Win32,60.0240096,627c6715c52fd12f31907bcf,,,,,,,,,,,,,,,,,,,,,,,,,,,,,,,,,,,,,,,,,,,,,0,2,2,2,1,,3,,,,,,,,,,,,,,,,,,
,613add879e40150ca89fd051,627c6f9c9a918b62953cb025,2022-05-11_19h25.35.568,classification_task,2021.2.3,Win32,60.0240096,627c6715c52fd12f31907bcf,,,,,,,,,,,,,,,,,,,,,,,,,,,,,,,,,,,,,,,,,,,,,,,,,,,,,I believe the aid is a competent performer,,0.7,0,4,1190.593,0,0,0,0,1,0,,,,,
,613add879e40150ca89fd051,627c6f9c9a918b62953cb025,2022-05-11_19h25.35.568,classification_task,2021.2.3,Win32,60.0240096,627c6715c52fd12f31907bcf,,,,,,,,,,,,,,,,,,,,,,,,,,,,,,,,,,,,,,,,,,,,,,,,,,,,,I trust the aid,,0.7,0,5,1193.39,0,0,0,0,1,0,,,,,
,613add879e40150ca89fd051,627c6f9c9a918b62953cb025,2022-05-11_19h25.35.568,classification_task,2021.2.3,Win32,60.0240096,627c6715c52fd12f31907bcf,,,,,,,,,,,,,,,,,,,,,,,,,,,,,,,,,,,,,,,,,,,,,,,,,,,,,I have confidence in the advice given by the aid,,0.7,0,4,1196.621,0,0,0,0,1,0,,,,,
,613add879e40150ca89fd051,627c6f9c9a918b62953cb025,2022-05-11_19h25.35.568,classification_task,2021.2.3,Win32,60.0240096,627c6715c52fd12f31907bcf,,,,,,,,,,,,,,,,,,,,,,,,,,,,,,,,,,,,,,,,,,,,,,,,,,,,,I can depend on the aid,,0.7,0,3,1200.268,0,0,0,0,1,0,,,,,
,613add879e40150ca89fd051,627c6f9c9a918b62953cb025,2022-05-11_19h25.35.568,classification_task,2021.2.3,Win32,60.0240096,627c6715c52fd12f31907bcf,,,,,,,,,,,,,,,,,,,,,,,,,,,,,,,,,,,,,,,,,,,,,,,,,,,,,I can rely on the aid to behave in consistent ways,,0.7,0,3,1203.949,0,0,0,0,1,0,,,,,
,613add879e40150ca89fd051,627c6f9c9a918b62953cb025,2022-05-11_19h25.35.568,classification_task,2021.2.3,Win32,60.0240096,627c6715c52fd12f31907bcf,,,,,,,,,,,,,,,,,,,,,,,,,,,,,,,,,,,,,,,,,,,,,,,,,,,,,I can rely on the aid to do its best every time I take its advice,,0.7,0,4,1213.696,0,0,0,0,1,0,,,,,
,613add879e40150ca89fd051,627c6f9c9a918b62953cb025,2022-05-11_19h25.35.568,classification_task,2021.2.3,Win32,60.0240096,627c6715c52fd12f31907bcf,,,,,,,,,,,,,,,,,,,,,,,,,,,,,,,,,,,,,,,,,,,,,,,,,,,,,"On trials you completed with assistance from the aid, how frequently did you think the aid was correct?",,0.7,0,100,,0,0,0,0,1,0,,,,,
,613add879e40150ca89fd051,627c6f9c9a918b62953cb025,2022-05-11_19h25.35.568,classification_task,2021.2.3,Win32,60.0240096,627c6715c52fd12f31907bcf,,,,,,,,,,,,,,,,,,,,,,,,,,,,,,,,,,,,,,,,,,,,,,,,,,,,,"On trials you completed without the aid, how frequently did you think you were correct?",,0.7,0,50,,0,0,0,0,1,0,,,,,
,613add879e40150ca89fd051,627c6f9c9a918b62953cb025,2022-05-11_19h25.35.568,classification_task,2021.2.3,Win32,60.0240096,627c6715c52fd12f31907bcf,,,,,,,,,,,,,,,,,,,,,,,,,,,,,,,,,,,,,,,,,,,,,,,,,,,,,,,,,,,0,0,0,0,1,,,,,,
,613add879e40150ca89fd051,627c6f9c9a918b62953cb025,2022-05-11_19h25.35.568,classification_task,2021.2.3,Win32,60.0240096,627c6715c52fd12f31907bcf,,,,,,,,,,,,,,,,,,,,,,,,,,,,,,,,,,,,,,,,,,,,,,,,,,,,,,,,,,,,,,,,,space,17.24,1250.696,,
,613add879e40150ca89fd051,627c6f9c9a918b62953cb025,2022-05-11_19h25.35.568,classification_task,2021.2.3,Win32,60.0240096,627c6715c52fd12f31907bcf,,,,,,,,,,,,,,,,,,,,,,,,,,,,,,,,,,,,,,,,,,,,,,,,,,,,,,,,,,,,,,,,,,,,Mozilla/5.0 (Windows NT 10.0; Win64; x64; rv:100.0) Gecko/20100101 Firefox/100.0,
,613add879e40150ca89fd051,627c6f9c9a918b62953cb025,2022-05-11_19h25.35.568,classification_task,2021.2.3,Win32,60.0240096,627c6715c52fd12f31907bcf,,,,,,,,,,,,,,,,,,,,,,,,,,,,,,,,,,,,,,,,,,,,,,,,,,,,,,,,,,,,,,,,,,,,,HIGHLIGHT
