usingWebGL,participant,session,date,expName,psychopyVersion,OS,frameRate,study_id,signatures_friend,signatures_foe,band_ranges_top,band_ranges_bottom,formitemText,formtype,formundefined,formitemWidth,formindex,formresponse,formrt,key_resp_2.keys,key_resp_2.rt,tute_resp.keys,tute_resp.rt,tutorial.thisRepN,tutorial.thisTrialN,tutorial.thisN,tutorial.thisIndex,tutorial.ran,key_resp_4.keys,key_resp_4.rt,key_resp.keys,key_resp.corr,key_resp.rt,lines_presented,is_signal_presented,trials.thisRepN,trials.thisTrialN,trials.thisN,trials.thisIndex,trials.ran,vessel,active_band,lines,is_signal,supported_pos,catch_trial,debrief_formindex,debrief_formitemText,debrief_formtype,debrief_formitemWidth,debrief_formresponse,debrief_formrt,phases.thisRepN,phases.thisTrialN,phases.thisN,phases.thisIndex,phases.ran,phases.order,phase,key_resp_3.keys,trustitemText,trusttype,trustitemWidth,trustindex,trustresponse,trustrt,support_status.thisRepN,support_status.thisTrialN,support_status.thisN,support_status.thisIndex,support_status.ran,support_status.order,key_resp_5.keys,key_resp_5.rt,globalClockTime,userAgent,manualCondition
TRUE,613bce8ce65bd067beb06b5c,627c68ca2b63c792d89a88cf,2022-05-11_20h55.22.973,classification_task,2021.2.3,Win32,60.0276127,627c6715c52fd12f31907bd0,,,,,,,,,,,,,,,,,,,,,,,,,,,,,,,,,,,,,,,,,,,,,,,,,,,,,,,,,,,,,,,,,,,,,
,613bce8ce65bd067beb06b5c,627c68ca2b63c792d89a88cf,2022-05-11_20h55.22.973,classification_task,2021.2.3,Win32,60.0276127,627c6715c52fd12f31907bd0,"[[""0.300"",""0.445"",""0.917"",""0.951""],[""0.238"",""0.337"",""0.729"",""0.882""]]","[[""0.083"",""0.142"",""0.485"",""0.842""],[""0.040"",""0.384"",""0.555"",""0.791""]]","[1,10]","[100,1000]",Video game experience,,,0.7,0,,,,,,,,,,,,,,,,,,,,,,,,,,,,,,,,,,,,,,,,,,,,,,,,,,,,,,,,,,,,
,613bce8ce65bd067beb06b5c,627c68ca2b63c792d89a88cf,2022-05-11_20h55.22.973,classification_task,2021.2.3,Win32,60.0276127,627c6715c52fd12f31907bd0,,,,,Approximately how many hours did you spend playing video games in the last week?,,,0.7,0,7,,,,,,,,,,,,,,,,,,,,,,,,,,,,,,,,,,,,,,,,,,,,,,,,,,,,,,,,,,,
,613bce8ce65bd067beb06b5c,627c68ca2b63c792d89a88cf,2022-05-11_20h55.22.973,classification_task,2021.2.3,Win32,60.0276127,627c6715c52fd12f31907bd0,,,,,"Which game did you play the most this year? (Enter ""None"" if you didn't play any)",,,0.7,0,Free Fire,,,,,,,,,,,,,,,,,,,,,,,,,,,,,,,,,,,,,,,,,,,,,,,,,,,,,,,,,,,
,613bce8ce65bd067beb06b5c,627c68ca2b63c792d89a88cf,2022-05-11_20h55.22.973,classification_task,2021.2.3,Win32,60.0276127,627c6715c52fd12f31907bd0,,,,,Visual perception,,,0.7,0,,,,,,,,,,,,,,,,,,,,,,,,,,,,,,,,,,,,,,,,,,,,,,,,,,,,,,,,,,,,
,613bce8ce65bd067beb06b5c,627c68ca2b63c792d89a88cf,2022-05-11_20h55.22.973,classification_task,2021.2.3,Win32,60.0276127,627c6715c52fd12f31907bd0,,,,,Do you have any form of color blindness?,,,0.7,0,No,44.1704,,,,,,,,,,,,,,,,,,,,,,,,,,,,,,,,,,,,,,,,,,,,,,,,,,,,,,,,,,
,613bce8ce65bd067beb06b5c,627c68ca2b63c792d89a88cf,2022-05-11_20h55.22.973,classification_task,2021.2.3,Win32,60.0276127,627c6715c52fd12f31907bd0,,,,,Do you use software to change the colour temperature of your screen (e.g. f.lux)?,,,0.7,0,No,46.8235,,,,,,,,,,,,,,,,,,,,,,,,,,,,,,,,,,,,,,,,,,,,,,,,,,,,,,,,,,
,613bce8ce65bd067beb06b5c,627c68ca2b63c792d89a88cf,2022-05-11_20h55.22.973,classification_task,2021.2.3,Win32,60.0276127,627c6715c52fd12f31907bd0,,,,,,,,,,,,space,21.5238,space,6.3965,0,0,0,0,1,,,,,,,,,,,,,,,,,,,,,,,,,,,,,,,,,,,,,,,,,,,,,,,,,
,613bce8ce65bd067beb06b5c,627c68ca2b63c792d89a88cf,2022-05-11_20h55.22.973,classification_task,2021.2.3,Win32,60.0276127,627c6715c52fd12f31907bd0,,,,,,,,,,,,,,space,6.7324,1,0,1,0,1,,,,,,,,,,,,,,,,,,,,,,,,,,,,,,,,,,,,,,,,,,,,,,,,,
,613bce8ce65bd067beb06b5c,627c68ca2b63c792d89a88cf,2022-05-11_20h55.22.973,classification_task,2021.2.3,Win32,60.0276127,627c6715c52fd12f31907bd0,,,,,,,,,,,,,,space,99.6798,2,0,2,0,1,,,,,,,,,,,,,,,,,,,,,,,,,,,,,,,,,,,,,,,,,,,,,,,,,
,613bce8ce65bd067beb06b5c,627c68ca2b63c792d89a88cf,2022-05-11_20h55.22.973,classification_task,2021.2.3,Win32,60.0276127,627c6715c52fd12f31907bd0,,,,,,,,,,,,,,space,1172.0679,3,0,3,0,1,,,,,,,,,,,,,,,,,,,,,,,,,,,,,,,,,,,,,,,,,,,,,,,,,
,613bce8ce65bd067beb06b5c,627c68ca2b63c792d89a88cf,2022-05-11_20h55.22.973,classification_task,2021.2.3,Win32,60.0276127,627c6715c52fd12f31907bd0,,,,,,,,,,,,,,space,35.52,4,0,4,0,1,,,,,,,,,,,,,,,,,,,,,,,,,,,,,,,,,,,,,,,,,,,,,,,,,
,613bce8ce65bd067beb06b5c,627c68ca2b63c792d89a88cf,2022-05-11_20h55.22.973,classification_task,2021.2.3,Win32,60.0276127,627c6715c52fd12f31907bd0,,,,,,,,,,,,,,,,,,,,,space,32.5164,a,1,5.0653,"[""0.300"",""0.445"",""0.917"",""0.521""]","[1,1,1,0]",0,0,0,0,1,0,0,,,0,FALSE,,,,,,,,,,,,,,,,,,,,,,,,,,,,,,,
,613bce8ce65bd067beb06b5c,627c68ca2b63c792d89a88cf,2022-05-11_20h55.22.973,classification_task,2021.2.3,Win32,60.0276127,627c6715c52fd12f31907bd0,,,,,,,,,,,,,,,,,,,,,,,l,1,4.9608,"[""0.040"",""0.521"",""0.555"",""0.791""]","[1,0,1,1]",0,1,1,1,1,1,1,,,0,FALSE,,,,,,,,,,,,,,,,,,,,,,,,,,,,,,,
,613bce8ce65bd067beb06b5c,627c68ca2b63c792d89a88cf,2022-05-11_20h55.22.973,classification_task,2021.2.3,Win32,60.0276127,627c6715c52fd12f31907bd0,,,,,,,,,,,,,,,,,,,,,,,l,1,9.9127,"[""0.667"",""0.142"",""0.485"",""0.842""]","[0,1,1,1]",0,2,2,2,1,1,0,,,0,FALSE,,,,,,,,,,,,,,,,,,,,,,,,,,,,,,,
,613bce8ce65bd067beb06b5c,627c68ca2b63c792d89a88cf,2022-05-11_20h55.22.973,classification_task,2021.2.3,Win32,60.0276127,627c6715c52fd12f31907bd0,,,,,,,,,,,,,,,,,,,,,,,l,1,2.9851,"[""0.083"",""0.142"",""0.202"",""0.842""]","[1,1,0,1]",0,3,3,3,1,1,0,,,0,FALSE,,,,,,,,,,,,,,,,,,,,,,,,,,,,,,,
,613bce8ce65bd067beb06b5c,627c68ca2b63c792d89a88cf,2022-05-11_20h55.22.973,classification_task,2021.2.3,Win32,60.0276127,627c6715c52fd12f31907bd0,,,,,,,,,,,,,,,,,,,,,,,a,1,4.6472,"[""0.300"",""0.642"",""0.917"",""0.951""]","[1,0,1,1]",0,4,4,4,1,0,0,,,0,FALSE,,,,,,,,,,,,,,,,,,,,,,,,,,,,,,,
,613bce8ce65bd067beb06b5c,627c68ca2b63c792d89a88cf,2022-05-11_20h55.22.973,classification_task,2021.2.3,Win32,60.0276127,627c6715c52fd12f31907bd0,,,,,,,,,,,,,,,,,,,,,,,l,1,3.4626,"[""0.083"",""0.652"",""0.485"",""0.842""]","[1,0,1,1]",0,5,5,5,1,1,0,,,0,FALSE,,,,,,,,,,,,,,,,,,,,,,,,,,,,,,,
,613bce8ce65bd067beb06b5c,627c68ca2b63c792d89a88cf,2022-05-11_20h55.22.973,classification_task,2021.2.3,Win32,60.0276127,627c6715c52fd12f31907bd0,,,,,,,,,,,,,,,,,,,,,,,a,1,9.6131,"[""0.238"",""0.337"",""0.202"",""0.882""]","[1,1,0,1]",0,6,6,6,1,0,1,,,0,FALSE,,,,,,,,,,,,,,,,,,,,,,,,,,,,,,,
,613bce8ce65bd067beb06b5c,627c68ca2b63c792d89a88cf,2022-05-11_20h55.22.973,classification_task,2021.2.3,Win32,60.0276127,627c6715c52fd12f31907bd0,,,,,,,,,,,,,,,,,,,,,,,a,1,2.729,"[""0.300"",""0.445"",""0.642"",""0.951""]","[1,1,0,1]",0,7,7,7,1,0,0,,,0,FALSE,,,,,,,,,,,,,,,,,,,,,,,,,,,,,,,
,613bce8ce65bd067beb06b5c,627c68ca2b63c792d89a88cf,2022-05-11_20h55.22.973,classification_task,2021.2.3,Win32,60.0276127,627c6715c52fd12f31907bd0,,,,,,,,,,,,,,,,,,,,,,,l,1,2.8164,"[""0.083"",""0.142"",""0.485"",""0.634""]","[1,1,1,0]",0,8,8,8,1,1,0,,,0,FALSE,,,,,,,,,,,,,,,,,,,,,,,,,,,,,,,
,613bce8ce65bd067beb06b5c,627c68ca2b63c792d89a88cf,2022-05-11_20h55.22.973,classification_task,2021.2.3,Win32,60.0276127,627c6715c52fd12f31907bd0,,,,,,,,,,,,,,,,,,,,,,,a,1,9.6787,"[""0.682"",""0.445"",""0.917"",""0.951""]","[0,1,1,1]",0,9,9,9,1,0,0,,,0,FALSE,,,,,,,,,,,,,,,,,,,,,,,,,,,,,,,
,613bce8ce65bd067beb06b5c,627c68ca2b63c792d89a88cf,2022-05-11_20h55.22.973,classification_task,2021.2.3,Win32,60.0276127,627c6715c52fd12f31907bd0,,,,,,,,,,,,,,,,,,,,,,,l,1,2.1142,"[""0.040"",""0.384"",""0.600"",""0.791""]","[1,1,0,1]",0,10,10,10,1,1,1,,,0,FALSE,,,,,,,,,,,,,,,,,,,,,,,,,,,,,,,
,613bce8ce65bd067beb06b5c,627c68ca2b63c792d89a88cf,2022-05-11_20h55.22.973,classification_task,2021.2.3,Win32,60.0276127,627c6715c52fd12f31907bd0,,,,,,,,,,,,,,,,,,,,,,,l,1,5.6829,"[""0.612"",""0.384"",""0.555"",""0.791""]","[0,1,1,1]",0,11,11,11,1,1,1,,,0,FALSE,,,,,,,,,,,,,,,,,,,,,,,,,,,,,,,
,613bce8ce65bd067beb06b5c,627c68ca2b63c792d89a88cf,2022-05-11_20h55.22.973,classification_task,2021.2.3,Win32,60.0276127,627c6715c52fd12f31907bd0,,,,,,,,,,,,,,,,,,,,,,,a,1,4.4966,"[""0.667"",""0.337"",""0.729"",""0.882""]","[0,1,1,1]",0,12,12,12,1,0,1,,,0,FALSE,,,,,,,,,,,,,,,,,,,,,,,,,,,,,,,
,613bce8ce65bd067beb06b5c,627c68ca2b63c792d89a88cf,2022-05-11_20h55.22.973,classification_task,2021.2.3,Win32,60.0276127,627c6715c52fd12f31907bd0,,,,,,,,,,,,,,,,,,,,,,,a,1,4.1276,"[""0.238"",""0.649"",""0.729"",""0.882""]","[1,0,1,1]",0,13,13,13,1,0,1,,,0,FALSE,,,,,,,,,,,,,,,,,,,,,,,,,,,,,,,
,613bce8ce65bd067beb06b5c,627c68ca2b63c792d89a88cf,2022-05-11_20h55.22.973,classification_task,2021.2.3,Win32,60.0276127,627c6715c52fd12f31907bd0,,,,,,,,,,,,,,,,,,,,,,,a,1,4.3464,"[""0.238"",""0.337"",""0.729"",""0.519""]","[1,1,1,0]",0,14,14,14,1,0,1,,,0,FALSE,,,,,,,,,,,,,,,,,,,,,,,,,,,,,,,
,613bce8ce65bd067beb06b5c,627c68ca2b63c792d89a88cf,2022-05-11_20h55.22.973,classification_task,2021.2.3,Win32,60.0276127,627c6715c52fd12f31907bd0,,,,,,,,,,,,,,,,,,,,,,,l,1,4.1037,"[""0.040"",""0.384"",""0.555"",""0.612""]","[1,1,1,0]",0,15,15,15,1,1,1,,,0,FALSE,,,,,,,,,,,,,,,,,,,,,,,,,,,,,,,
,613bce8ce65bd067beb06b5c,627c68ca2b63c792d89a88cf,2022-05-11_20h55.22.973,classification_task,2021.2.3,Win32,60.0276127,627c6715c52fd12f31907bd0,,,,,,,,,,,,,,,,,,,,,,,a,1,4.2293,"[""0.519"",""0.337"",""0.729"",""0.882""]","[0,1,1,1]",0,16,16,16,1,0,1,,,0,FALSE,,,,,,,,,,,,,,,,,,,,,,,,,,,,,,,
,613bce8ce65bd067beb06b5c,627c68ca2b63c792d89a88cf,2022-05-11_20h55.22.973,classification_task,2021.2.3,Win32,60.0276127,627c6715c52fd12f31907bd0,,,,,,,,,,,,,,,,,,,,,,,a,1,3.6431,"[""0.238"",""0.667"",""0.729"",""0.882""]","[1,0,1,1]",0,17,17,17,1,0,1,,,0,FALSE,,,,,,,,,,,,,,,,,,,,,,,,,,,,,,,
,613bce8ce65bd067beb06b5c,627c68ca2b63c792d89a88cf,2022-05-11_20h55.22.973,classification_task,2021.2.3,Win32,60.0276127,627c6715c52fd12f31907bd0,,,,,,,,,,,,,,,,,,,,,,,a,1,3.6495,"[""0.300"",""0.649"",""0.917"",""0.951""]","[1,0,1,1]",0,18,18,18,1,0,0,,,0,FALSE,,,,,,,,,,,,,,,,,,,,,,,,,,,,,,,
,613bce8ce65bd067beb06b5c,627c68ca2b63c792d89a88cf,2022-05-11_20h55.22.973,classification_task,2021.2.3,Win32,60.0276127,627c6715c52fd12f31907bd0,,,,,,,,,,,,,,,,,,,,,,,l,1,3.624,"[""0.642"",""0.384"",""0.555"",""0.791""]","[0,1,1,1]",0,19,19,19,1,1,1,,,0,FALSE,,,,,,,,,,,,,,,,,,,,,,,,,,,,,,,
,613bce8ce65bd067beb06b5c,627c68ca2b63c792d89a88cf,2022-05-11_20h55.22.973,classification_task,2021.2.3,Win32,60.0276127,627c6715c52fd12f31907bd0,,,,,,,,,,,,,,,,,,,,,,,a,1,5.238,"[""0.300"",""0.445"",""0.917"",""0.682""]","[1,1,1,0]",0,20,20,20,1,0,0,,,0,FALSE,,,,,,,,,,,,,,,,,,,,,,,,,,,,,,,
,613bce8ce65bd067beb06b5c,627c68ca2b63c792d89a88cf,2022-05-11_20h55.22.973,classification_task,2021.2.3,Win32,60.0276127,627c6715c52fd12f31907bd0,,,,,,,,,,,,,,,,,,,,,,,a,1,8.8006,"[""0.238"",""0.337"",""0.519"",""0.882""]","[1,1,0,1]",0,21,21,21,1,0,1,,,0,FALSE,,,,,,,,,,,,,,,,,,,,,,,,,,,,,,,
,613bce8ce65bd067beb06b5c,627c68ca2b63c792d89a88cf,2022-05-11_20h55.22.973,classification_task,2021.2.3,Win32,60.0276127,627c6715c52fd12f31907bd0,,,,,,,,,,,,,,,,,,,,,,,a,1,4.6264,"[""0.238"",""0.337"",""0.729"",""0.682""]","[1,1,1,0]",0,22,22,22,1,0,1,,,0,FALSE,,,,,,,,,,,,,,,,,,,,,,,,,,,,,,,
,613bce8ce65bd067beb06b5c,627c68ca2b63c792d89a88cf,2022-05-11_20h55.22.973,classification_task,2021.2.3,Win32,60.0276127,627c6715c52fd12f31907bd0,,,,,,,,,,,,,,,,,,,,,,,a,1,3.1255,"[""0.600"",""0.445"",""0.917"",""0.951""]","[0,1,1,1]",0,23,23,23,1,0,0,,,0,FALSE,,,,,,,,,,,,,,,,,,,,,,,,,,,,,,,
,613bce8ce65bd067beb06b5c,627c68ca2b63c792d89a88cf,2022-05-11_20h55.22.973,classification_task,2021.2.3,Win32,60.0276127,627c6715c52fd12f31907bd0,,,,,,,,,,,,,,,,,,,,,,,l,1,6.4469,"[""0.083"",""0.142"",""0.634"",""0.842""]","[1,1,0,1]",0,24,24,24,1,1,0,,,0,FALSE,,,,,,,,,,,,,,,,,,,,,,,,,,,,,,,
,613bce8ce65bd067beb06b5c,627c68ca2b63c792d89a88cf,2022-05-11_20h55.22.973,classification_task,2021.2.3,Win32,60.0276127,627c6715c52fd12f31907bd0,,,,,,,,,,,,,,,,,,,,,,,l,1,7.716,"[""0.083"",""0.142"",""0.485"",""0.682""]","[1,1,1,0]",0,25,25,25,1,1,0,,,0,FALSE,,,,,,,,,,,,,,,,,,,,,,,,,,,,,,,
,613bce8ce65bd067beb06b5c,627c68ca2b63c792d89a88cf,2022-05-11_20h55.22.973,classification_task,2021.2.3,Win32,60.0276127,627c6715c52fd12f31907bd0,,,,,,,,,,,,,,,,,,,,,,,l,1,5.1172,"[""0.667"",""0.142"",""0.485"",""0.842""]","[0,1,1,1]",0,26,26,26,1,1,0,,,0,FALSE,,,,,,,,,,,,,,,,,,,,,,,,,,,,,,,
,613bce8ce65bd067beb06b5c,627c68ca2b63c792d89a88cf,2022-05-11_20h55.22.973,classification_task,2021.2.3,Win32,60.0276127,627c6715c52fd12f31907bd0,,,,,,,,,,,,,,,,,,,,,,,l,1,2.6461,"[""0.040"",""0.384"",""0.555"",""0.642""]","[1,1,1,0]",0,27,27,27,1,1,1,,,0,FALSE,,,,,,,,,,,,,,,,,,,,,,,,,,,,,,,
,613bce8ce65bd067beb06b5c,627c68ca2b63c792d89a88cf,2022-05-11_20h55.22.973,classification_task,2021.2.3,Win32,60.0276127,627c6715c52fd12f31907bd0,,,,,,,,,,,,,,,,,,,,,,,a,1,2.0464,"[""0.300"",""0.445"",""0.612"",""0.951""]","[1,1,0,1]",0,28,28,28,1,0,0,,,0,FALSE,,,,,,,,,,,,,,,,,,,,,,,,,,,,,,,
,613bce8ce65bd067beb06b5c,627c68ca2b63c792d89a88cf,2022-05-11_20h55.22.973,classification_task,2021.2.3,Win32,60.0276127,627c6715c52fd12f31907bd0,,,,,,,,,,,,,,,,,,,,,,,l,1,2.299,"[""0.040"",""0.612"",""0.555"",""0.791""]","[1,0,1,1]",0,29,29,29,1,1,1,,,0,FALSE,,,,,,,,,,,,,,,,,,,,,,,,,,,,,,,
,613bce8ce65bd067beb06b5c,627c68ca2b63c792d89a88cf,2022-05-11_20h55.22.973,classification_task,2021.2.3,Win32,60.0276127,627c6715c52fd12f31907bd0,,,,,,,,,,,,,,,,,,,,,,,l,1,2.7822,"[""0.040"",""0.384"",""0.176"",""0.791""]","[1,1,0,1]",0,30,30,30,1,1,1,,,0,FALSE,,,,,,,,,,,,,,,,,,,,,,,,,,,,,,,
,613bce8ce65bd067beb06b5c,627c68ca2b63c792d89a88cf,2022-05-11_20h55.22.973,classification_task,2021.2.3,Win32,60.0276127,627c6715c52fd12f31907bd0,,,,,,,,,,,,,,,,,,,,,,,l,1,2.6805,"[""0.083"",""0.521"",""0.485"",""0.842""]","[1,0,1,1]",0,31,31,31,1,1,0,,,0,FALSE,,,,,,,,,,,,,,,,,,,,,,,,,,,,,,,
,613bce8ce65bd067beb06b5c,627c68ca2b63c792d89a88cf,2022-05-11_20h55.22.973,classification_task,2021.2.3,Win32,60.0276127,627c6715c52fd12f31907bd0,,,,,,,,,,,,,,,,,,,,,,,a,0,6.7161,"[""0.083"",""0.142"",""0.485"",""0.638""]","[1,1,1,0]",0,32,32,32,1,1,0,,,0,FALSE,,,,,,,,,,,,,,,,,,,,,,,,,,,,,,,
,613bce8ce65bd067beb06b5c,627c68ca2b63c792d89a88cf,2022-05-11_20h55.22.973,classification_task,2021.2.3,Win32,60.0276127,627c6715c52fd12f31907bd0,,,,,,,,,,,,,,,,,,,,,,,l,1,2.5577,"[""0.083"",""0.142"",""0.202"",""0.842""]","[1,1,0,1]",0,33,33,33,1,1,0,,,0,FALSE,,,,,,,,,,,,,,,,,,,,,,,,,,,,,,,
,613bce8ce65bd067beb06b5c,627c68ca2b63c792d89a88cf,2022-05-11_20h55.22.973,classification_task,2021.2.3,Win32,60.0276127,627c6715c52fd12f31907bd0,,,,,,,,,,,,,,,,,,,,,,,a,1,1.3333,"[""0.238"",""0.337"",""0.729"",""0.521""]","[1,1,1,0]",0,34,34,34,1,0,1,,,0,FALSE,,,,,,,,,,,,,,,,,,,,,,,,,,,,,,,
,613bce8ce65bd067beb06b5c,627c68ca2b63c792d89a88cf,2022-05-11_20h55.22.973,classification_task,2021.2.3,Win32,60.0276127,627c6715c52fd12f31907bd0,,,,,,,,,,,,,,,,,,,,,,,l,1,1.8155,"[""0.040"",""0.667"",""0.555"",""0.791""]","[1,0,1,1]",0,35,35,35,1,1,1,,,0,FALSE,,,,,,,,,,,,,,,,,,,,,,,,,,,,,,,
,613bce8ce65bd067beb06b5c,627c68ca2b63c792d89a88cf,2022-05-11_20h55.22.973,classification_task,2021.2.3,Win32,60.0276127,627c6715c52fd12f31907bd0,,,,,,,,,,,,,,,,,,,,,,,a,1,2.9848,"[""0.238"",""0.600"",""0.729"",""0.882""]","[1,0,1,1]",0,36,36,36,1,0,1,,,0,FALSE,,,,,,,,,,,,,,,,,,,,,,,,,,,,,,,
,613bce8ce65bd067beb06b5c,627c68ca2b63c792d89a88cf,2022-05-11_20h55.22.973,classification_task,2021.2.3,Win32,60.0276127,627c6715c52fd12f31907bd0,,,,,,,,,,,,,,,,,,,,,,,a,1,1.294,"[""0.682"",""0.445"",""0.917"",""0.951""]","[0,1,1,1]",0,37,37,37,1,0,0,,,0,FALSE,,,,,,,,,,,,,,,,,,,,,,,,,,,,,,,
,613bce8ce65bd067beb06b5c,627c68ca2b63c792d89a88cf,2022-05-11_20h55.22.973,classification_task,2021.2.3,Win32,60.0276127,627c6715c52fd12f31907bd0,,,,,,,,,,,,,,,,,,,,,,,a,0,1.433,"[""0.040"",""0.384"",""0.649"",""0.791""]","[1,1,0,1]",0,38,38,38,1,1,1,,,0,FALSE,,,,,,,,,,,,,,,,,,,,,,,,,,,,,,,
,613bce8ce65bd067beb06b5c,627c68ca2b63c792d89a88cf,2022-05-11_20h55.22.973,classification_task,2021.2.3,Win32,60.0276127,627c6715c52fd12f31907bd0,,,,,,,,,,,,,,,,,,,,,,,a,0,1.799,"[""0.083"",""0.634"",""0.485"",""0.842""]","[1,0,1,1]",0,39,39,39,1,1,0,,,0,FALSE,,,,,,,,,,,,,,,,,,,,,,,,,,,,,,,
,613bce8ce65bd067beb06b5c,627c68ca2b63c792d89a88cf,2022-05-11_20h55.22.973,classification_task,2021.2.3,Win32,60.0276127,627c6715c52fd12f31907bd0,,,,,,,,,,,,,,,,,,,,,,,a,1,1.8347,"[""0.300"",""0.445"",""0.917"",""0.642""]","[1,1,1,0]",0,40,40,40,1,0,0,,,0,FALSE,,,,,,,,,,,,,,,,,,,,,,,,,,,,,,,
,613bce8ce65bd067beb06b5c,627c68ca2b63c792d89a88cf,2022-05-11_20h55.22.973,classification_task,2021.2.3,Win32,60.0276127,627c6715c52fd12f31907bd0,,,,,,,,,,,,,,,,,,,,,,,l,1,1.1841,"[""0.040"",""0.384"",""0.555"",""0.642""]","[1,1,1,0]",0,41,41,41,1,1,1,,,0,FALSE,,,,,,,,,,,,,,,,,,,,,,,,,,,,,,,
,613bce8ce65bd067beb06b5c,627c68ca2b63c792d89a88cf,2022-05-11_20h55.22.973,classification_task,2021.2.3,Win32,60.0276127,627c6715c52fd12f31907bd0,,,,,,,,,,,,,,,,,,,,,,,a,0,3.4833,"[""0.612"",""0.142"",""0.485"",""0.842""]","[0,1,1,1]",0,42,42,42,1,1,0,,,0,FALSE,,,,,,,,,,,,,,,,,,,,,,,,,,,,,,,
,613bce8ce65bd067beb06b5c,627c68ca2b63c792d89a88cf,2022-05-11_20h55.22.973,classification_task,2021.2.3,Win32,60.0276127,627c6715c52fd12f31907bd0,,,,,,,,,,,,,,,,,,,,,,,a,0,4.1079,"[""0.682"",""0.384"",""0.555"",""0.791""]","[0,1,1,1]",0,43,43,43,1,1,1,,,0,FALSE,,,,,,,,,,,,,,,,,,,,,,,,,,,,,,,
,613bce8ce65bd067beb06b5c,627c68ca2b63c792d89a88cf,2022-05-11_20h55.22.973,classification_task,2021.2.3,Win32,60.0276127,627c6715c52fd12f31907bd0,,,,,,,,,,,,,,,,,,,,,,,l,0,0.6944,"[""0.521"",""0.337"",""0.729"",""0.882""]","[0,1,1,1]",0,44,44,44,1,0,1,,,0,FALSE,,,,,,,,,,,,,,,,,,,,,,,,,,,,,,,
,613bce8ce65bd067beb06b5c,627c68ca2b63c792d89a88cf,2022-05-11_20h55.22.973,classification_task,2021.2.3,Win32,60.0276127,627c6715c52fd12f31907bd0,,,,,,,,,,,,,,,,,,,,,,,l,0,1.6822,"[""0.300"",""0.445"",""0.176"",""0.951""]","[1,1,0,1]",0,45,45,45,1,0,0,,,0,FALSE,,,,,,,,,,,,,,,,,,,,,,,,,,,,,,,
,613bce8ce65bd067beb06b5c,627c68ca2b63c792d89a88cf,2022-05-11_20h55.22.973,classification_task,2021.2.3,Win32,60.0276127,627c6715c52fd12f31907bd0,,,,,,,,,,,,,,,,,,,,,,,a,1,0.9174,"[""0.238"",""0.337"",""0.652"",""0.882""]","[1,1,0,1]",0,46,46,46,1,0,1,,,0,FALSE,,,,,,,,,,,,,,,,,,,,,,,,,,,,,,,
,613bce8ce65bd067beb06b5c,627c68ca2b63c792d89a88cf,2022-05-11_20h55.22.973,classification_task,2021.2.3,Win32,60.0276127,627c6715c52fd12f31907bd0,,,,,,,,,,,,,,,,,,,,,,,a,1,0.8323,"[""0.300"",""0.176"",""0.917"",""0.951""]","[1,0,1,1]",0,47,47,47,1,0,0,,,0,FALSE,,,,,,,,,,,,,,,,,,,,,,,,,,,,,,,
,613bce8ce65bd067beb06b5c,627c68ca2b63c792d89a88cf,2022-05-11_20h55.22.973,classification_task,2021.2.3,Win32,60.0276127,627c6715c52fd12f31907bd0,,,,,,,,,,,,,,,,,,,,,,,a,0,1.4279,"[""0.040"",""0.667"",""0.555"",""0.791""]","[1,0,1,1]",0,48,48,48,1,1,1,,,0,FALSE,,,,,,,,,,,,,,,,,,,,,,,,,,,,,,,
,613bce8ce65bd067beb06b5c,627c68ca2b63c792d89a88cf,2022-05-11_20h55.22.973,classification_task,2021.2.3,Win32,60.0276127,627c6715c52fd12f31907bd0,,,,,,,,,,,,,,,,,,,,,,,a,1,1.0047,"[""0.300"",""0.445"",""0.917"",""0.638""]","[1,1,1,0]",0,49,49,49,1,0,0,,,0,FALSE,,,,,,,,,,,,,,,,,,,,,,,,,,,,,,,
,613bce8ce65bd067beb06b5c,627c68ca2b63c792d89a88cf,2022-05-11_20h55.22.973,classification_task,2021.2.3,Win32,60.0276127,627c6715c52fd12f31907bd0,,,,,,,,,,,,,,,,,,,,,,,l,0,1.0002,"[""0.238"",""0.337"",""0.642"",""0.882""]","[1,1,0,1]",0,50,50,50,1,0,1,,,0,FALSE,,,,,,,,,,,,,,,,,,,,,,,,,,,,,,,
,613bce8ce65bd067beb06b5c,627c68ca2b63c792d89a88cf,2022-05-11_20h55.22.973,classification_task,2021.2.3,Win32,60.0276127,627c6715c52fd12f31907bd0,,,,,,,,,,,,,,,,,,,,,,,l,0,1.8799,"[""0.642"",""0.337"",""0.729"",""0.882""]","[0,1,1,1]",0,51,51,51,1,0,1,,,0,FALSE,,,,,,,,,,,,,,,,,,,,,,,,,,,,,,,
,613bce8ce65bd067beb06b5c,627c68ca2b63c792d89a88cf,2022-05-11_20h55.22.973,classification_task,2021.2.3,Win32,60.0276127,627c6715c52fd12f31907bd0,,,,,,,,,,,,,,,,,,,,,,,a,1,1.2606,"[""0.238"",""0.337"",""0.729"",""0.652""]","[1,1,1,0]",0,52,52,52,1,0,1,,,0,FALSE,,,,,,,,,,,,,,,,,,,,,,,,,,,,,,,
,613bce8ce65bd067beb06b5c,627c68ca2b63c792d89a88cf,2022-05-11_20h55.22.973,classification_task,2021.2.3,Win32,60.0276127,627c6715c52fd12f31907bd0,,,,,,,,,,,,,,,,,,,,,,,a,0,1.0331,"[""0.040"",""0.384"",""0.555"",""0.682""]","[1,1,1,0]",0,53,53,53,1,1,1,,,0,FALSE,,,,,,,,,,,,,,,,,,,,,,,,,,,,,,,
,613bce8ce65bd067beb06b5c,627c68ca2b63c792d89a88cf,2022-05-11_20h55.22.973,classification_task,2021.2.3,Win32,60.0276127,627c6715c52fd12f31907bd0,,,,,,,,,,,,,,,,,,,,,,,a,1,0.8674,"[""0.238"",""0.612"",""0.729"",""0.882""]","[1,0,1,1]",0,54,54,54,1,0,1,,,0,FALSE,,,,,,,,,,,,,,,,,,,,,,,,,,,,,,,
,613bce8ce65bd067beb06b5c,627c68ca2b63c792d89a88cf,2022-05-11_20h55.22.973,classification_task,2021.2.3,Win32,60.0276127,627c6715c52fd12f31907bd0,,,,,,,,,,,,,,,,,,,,,,,l,1,3.1116,"[""0.083"",""0.521"",""0.485"",""0.842""]","[1,0,1,1]",0,55,55,55,1,1,0,,,0,FALSE,,,,,,,,,,,,,,,,,,,,,,,,,,,,,,,
,613bce8ce65bd067beb06b5c,627c68ca2b63c792d89a88cf,2022-05-11_20h55.22.973,classification_task,2021.2.3,Win32,60.0276127,627c6715c52fd12f31907bd0,,,,,,,,,,,,,,,,,,,,,,,l,1,1.2903,"[""0.040"",""0.384"",""0.600"",""0.791""]","[1,1,0,1]",0,56,56,56,1,1,1,,,0,FALSE,,,,,,,,,,,,,,,,,,,,,,,,,,,,,,,
,613bce8ce65bd067beb06b5c,627c68ca2b63c792d89a88cf,2022-05-11_20h55.22.973,classification_task,2021.2.3,Win32,60.0276127,627c6715c52fd12f31907bd0,,,,,,,,,,,,,,,,,,,,,,,a,0,2.3454,"[""0.176"",""0.384"",""0.555"",""0.791""]","[0,1,1,1]",0,57,57,57,1,1,1,,,0,FALSE,,,,,,,,,,,,,,,,,,,,,,,,,,,,,,,
,613bce8ce65bd067beb06b5c,627c68ca2b63c792d89a88cf,2022-05-11_20h55.22.973,classification_task,2021.2.3,Win32,60.0276127,627c6715c52fd12f31907bd0,,,,,,,,,,,,,,,,,,,,,,,a,1,1.4786,"[""0.642"",""0.445"",""0.917"",""0.951""]","[0,1,1,1]",0,58,58,58,1,0,0,,,0,FALSE,,,,,,,,,,,,,,,,,,,,,,,,,,,,,,,
,613bce8ce65bd067beb06b5c,627c68ca2b63c792d89a88cf,2022-05-11_20h55.22.973,classification_task,2021.2.3,Win32,60.0276127,627c6715c52fd12f31907bd0,,,,,,,,,,,,,,,,,,,,,,,l,0,1.2097,"[""0.300"",""0.642"",""0.917"",""0.951""]","[1,0,1,1]",0,59,59,59,1,0,0,,,0,FALSE,,,,,,,,,,,,,,,,,,,,,,,,,,,,,,,
,613bce8ce65bd067beb06b5c,627c68ca2b63c792d89a88cf,2022-05-11_20h55.22.973,classification_task,2021.2.3,Win32,60.0276127,627c6715c52fd12f31907bd0,,,,,,,,,,,,,,,,,,,,,,,l,1,2.7235,"[""0.638"",""0.142"",""0.485"",""0.842""]","[0,1,1,1]",0,60,60,60,1,1,0,,,0,FALSE,,,,,,,,,,,,,,,,,,,,,,,,,,,,,,,
,613bce8ce65bd067beb06b5c,627c68ca2b63c792d89a88cf,2022-05-11_20h55.22.973,classification_task,2021.2.3,Win32,60.0276127,627c6715c52fd12f31907bd0,,,,,,,,,,,,,,,,,,,,,,,a,0,1.1095,"[""0.083"",""0.142"",""0.485"",""0.519""]","[1,1,1,0]",0,61,61,61,1,1,0,,,0,FALSE,,,,,,,,,,,,,,,,,,,,,,,,,,,,,,,
,613bce8ce65bd067beb06b5c,627c68ca2b63c792d89a88cf,2022-05-11_20h55.22.973,classification_task,2021.2.3,Win32,60.0276127,627c6715c52fd12f31907bd0,,,,,,,,,,,,,,,,,,,,,,,l,1,1.0837,"[""0.083"",""0.142"",""0.638"",""0.842""]","[1,1,0,1]",0,62,62,62,1,1,0,,,0,FALSE,,,,,,,,,,,,,,,,,,,,,,,,,,,,,,,
,613bce8ce65bd067beb06b5c,627c68ca2b63c792d89a88cf,2022-05-11_20h55.22.973,classification_task,2021.2.3,Win32,60.0276127,627c6715c52fd12f31907bd0,,,,,,,,,,,,,,,,,,,,,,,l,0,2.4885,"[""0.300"",""0.445"",""0.682"",""0.951""]","[1,1,0,1]",0,63,63,63,1,0,0,,,0,FALSE,,,,,,,,,,,,,,,,,,,,,,,,,,,,,,,
,613bce8ce65bd067beb06b5c,627c68ca2b63c792d89a88cf,2022-05-11_20h55.22.973,classification_task,2021.2.3,Win32,60.0276127,627c6715c52fd12f31907bd0,,,,,,,,,,,,,,,,,,,,,,,,,,,,,,,,,,,,,,,0, ,,0,0,1728.5159,0,0,0,0,1,2,1,,,,,,,,,,,,,,,,,,
,613bce8ce65bd067beb06b5c,627c68ca2b63c792d89a88cf,2022-05-11_20h55.22.973,classification_task,2021.2.3,Win32,60.0276127,627c6715c52fd12f31907bd0,,,,,,,,,,,,,,,,,,,,,,,,,,,,,,,,,,,,,,,1,  ,,0,8.497942387,1737.5633,0,0,0,0,1,2,1,,,,,,,,,,,,,,,,,,
,613bce8ce65bd067beb06b5c,627c68ca2b63c792d89a88cf,2022-05-11_20h55.22.973,classification_task,2021.2.3,Win32,60.0276127,627c6715c52fd12f31907bd0,,,,,,,,,,,,,,,,,,,,,,,,,,,,,,,,,,,,,,,2,  ,,0,4.147560259,1743.3321,0,0,0,0,1,2,1,,,,,,,,,,,,,,,,,,
,613bce8ce65bd067beb06b5c,627c68ca2b63c792d89a88cf,2022-05-11_20h55.22.973,classification_task,2021.2.3,Win32,60.0276127,627c6715c52fd12f31907bd0,,,,,,,,,,,,,,,,,,,,,,,,,,,,,,,,,,,,,,,,,,,,,0,0,0,0,1,,1,,,,,,,,,,,,,,,,,,
,613bce8ce65bd067beb06b5c,627c68ca2b63c792d89a88cf,2022-05-11_20h55.22.973,classification_task,2021.2.3,Win32,60.0276127,627c6715c52fd12f31907bd0,,,,,,,,,,,,,,,,,,,,,space,9.4256,l,0,2.2724,"[""0.238"",""0.176"",""0.729"",""0.882""]","[1,0,1,1]",0,0,0,0,1,0,1,,,0,FALSE,,,,,,,,,,,,,,,,,,,,,,,,,,,,,,,
,613bce8ce65bd067beb06b5c,627c68ca2b63c792d89a88cf,2022-05-11_20h55.22.973,classification_task,2021.2.3,Win32,60.0276127,627c6715c52fd12f31907bd0,,,,,,,,,,,,,,,,,,,,,,,a,1,1.4029,"[""0.300"",""0.445"",""0.667"",""0.951""]","[1,1,0,1]",0,1,1,1,1,0,0,,,0,FALSE,,,,,,,,,,,,,,,,,,,,,,,,,,,,,,,
,613bce8ce65bd067beb06b5c,627c68ca2b63c792d89a88cf,2022-05-11_20h55.22.973,classification_task,2021.2.3,Win32,60.0276127,627c6715c52fd12f31907bd0,,,,,,,,,,,,,,,,,,,,,,,a,1,0.9504,"[""0.300"",""0.612"",""0.917"",""0.951""]","[1,0,1,1]",0,2,2,2,1,0,0,,,0,FALSE,,,,,,,,,,,,,,,,,,,,,,,,,,,,,,,
,613bce8ce65bd067beb06b5c,627c68ca2b63c792d89a88cf,2022-05-11_20h55.22.973,classification_task,2021.2.3,Win32,60.0276127,627c6715c52fd12f31907bd0,,,,,,,,,,,,,,,,,,,,,,,l,0,1.5115,"[""0.238"",""0.337"",""0.729"",""0.667""]","[1,1,1,0]",0,3,3,3,1,0,1,,,0,FALSE,,,,,,,,,,,,,,,,,,,,,,,,,,,,,,,
,613bce8ce65bd067beb06b5c,627c68ca2b63c792d89a88cf,2022-05-11_20h55.22.973,classification_task,2021.2.3,Win32,60.0276127,627c6715c52fd12f31907bd0,,,,,,,,,,,,,,,,,,,,,,,a,1,0.9014,"[""0.300"",""0.445"",""0.917"",""0.613""]","[1,1,1,0]",0,4,4,4,1,0,0,,,0,FALSE,,,,,,,,,,,,,,,,,,,,,,,,,,,,,,,
,613bce8ce65bd067beb06b5c,627c68ca2b63c792d89a88cf,2022-05-11_20h55.22.973,classification_task,2021.2.3,Win32,60.0276127,627c6715c52fd12f31907bd0,,,,,,,,,,,,,,,,,,,,,,,l,1,1.2157,"[""0.083"",""0.142"",""0.667"",""0.842""]","[1,1,0,1]",0,5,5,5,1,1,0,,,0,FALSE,,,,,,,,,,,,,,,,,,,,,,,,,,,,,,,
,613bce8ce65bd067beb06b5c,627c68ca2b63c792d89a88cf,2022-05-11_20h55.22.973,classification_task,2021.2.3,Win32,60.0276127,627c6715c52fd12f31907bd0,,,,,,,,,,,,,,,,,,,,,,,a,1,1.2818,"[""0.519"",""0.337"",""0.729"",""0.882""]","[0,1,1,1]",0,6,6,6,1,0,1,,,0,FALSE,,,,,,,,,,,,,,,,,,,,,,,,,,,,,,,
,613bce8ce65bd067beb06b5c,627c68ca2b63c792d89a88cf,2022-05-11_20h55.22.973,classification_task,2021.2.3,Win32,60.0276127,627c6715c52fd12f31907bd0,,,,,,,,,,,,,,,,,,,,,,,l,1,1.3591,"[""0.040"",""0.667"",""0.555"",""0.791""]","[1,0,1,1]",0,7,7,7,1,1,1,,,0,FALSE,,,,,,,,,,,,,,,,,,,,,,,,,,,,,,,
,613bce8ce65bd067beb06b5c,627c68ca2b63c792d89a88cf,2022-05-11_20h55.22.973,classification_task,2021.2.3,Win32,60.0276127,627c6715c52fd12f31907bd0,,,,,,,,,,,,,,,,,,,,,,,a,0,1.1625,"[""0.613"",""0.142"",""0.485"",""0.842""]","[0,1,1,1]",0,8,8,8,1,1,0,,,0,FALSE,,,,,,,,,,,,,,,,,,,,,,,,,,,,,,,
,613bce8ce65bd067beb06b5c,627c68ca2b63c792d89a88cf,2022-05-11_20h55.22.973,classification_task,2021.2.3,Win32,60.0276127,627c6715c52fd12f31907bd0,,,,,,,,,,,,,,,,,,,,,,,l,1,1.7989,"[""0.083"",""0.142"",""0.485"",""0.613""]","[1,1,1,0]",0,9,9,9,1,1,0,,,0,FALSE,,,,,,,,,,,,,,,,,,,,,,,,,,,,,,,
,613bce8ce65bd067beb06b5c,627c68ca2b63c792d89a88cf,2022-05-11_20h55.22.973,classification_task,2021.2.3,Win32,60.0276127,627c6715c52fd12f31907bd0,,,,,,,,,,,,,,,,,,,,,,,l,1,2.2948,"[""0.040"",""0.384"",""0.555"",""0.642""]","[1,1,1,0]",0,10,10,10,1,1,1,,,0,FALSE,,,,,,,,,,,,,,,,,,,,,,,,,,,,,,,
,613bce8ce65bd067beb06b5c,627c68ca2b63c792d89a88cf,2022-05-11_20h55.22.973,classification_task,2021.2.3,Win32,60.0276127,627c6715c52fd12f31907bd0,,,,,,,,,,,,,,,,,,,,,,,a,1,1.193,"[""0.667"",""0.445"",""0.917"",""0.951""]","[0,1,1,1]",0,11,11,11,1,0,0,,,0,FALSE,,,,,,,,,,,,,,,,,,,,,,,,,,,,,,,
,613bce8ce65bd067beb06b5c,627c68ca2b63c792d89a88cf,2022-05-11_20h55.22.973,classification_task,2021.2.3,Win32,60.0276127,627c6715c52fd12f31907bd0,,,,,,,,,,,,,,,,,,,,,,,a,0,3.6297,"[""0.176"",""0.384"",""0.555"",""0.791""]","[0,1,1,1]",0,12,12,12,1,1,1,,,0,FALSE,,,,,,,,,,,,,,,,,,,,,,,,,,,,,,,
,613bce8ce65bd067beb06b5c,627c68ca2b63c792d89a88cf,2022-05-11_20h55.22.973,classification_task,2021.2.3,Win32,60.0276127,627c6715c52fd12f31907bd0,,,,,,,,,,,,,,,,,,,,,,,l,1,1.5492,"[""0.083"",""0.649"",""0.485"",""0.842""]","[1,0,1,1]",0,13,13,13,1,1,0,,,0,FALSE,,,,,,,,,,,,,,,,,,,,,,,,,,,,,,,
,613bce8ce65bd067beb06b5c,627c68ca2b63c792d89a88cf,2022-05-11_20h55.22.973,classification_task,2021.2.3,Win32,60.0276127,627c6715c52fd12f31907bd0,,,,,,,,,,,,,,,,,,,,,,,l,1,2.716,"[""0.040"",""0.384"",""0.667"",""0.791""]","[1,1,0,1]",0,14,14,14,1,1,1,,,0,FALSE,,,,,,,,,,,,,,,,,,,,,,,,,,,,,,,
,613bce8ce65bd067beb06b5c,627c68ca2b63c792d89a88cf,2022-05-11_20h55.22.973,classification_task,2021.2.3,Win32,60.0276127,627c6715c52fd12f31907bd0,,,,,,,,,,,,,,,,,,,,,,,l,0,2.1038,"[""0.238"",""0.337"",""0.612"",""0.882""]","[1,1,0,1]",0,15,15,15,1,0,1,,,0,FALSE,,,,,,,,,,,,,,,,,,,,,,,,,,,,,,,
,613bce8ce65bd067beb06b5c,627c68ca2b63c792d89a88cf,2022-05-11_20h55.22.973,classification_task,2021.2.3,Win32,60.0276127,627c6715c52fd12f31907bd0,,,,,,,,,,,,,,,,,,,,,,,l,1,0.9268,"[""0.040"",""0.384"",""0.555"",""0.682""]","[1,1,1,0]",0,16,16,16,1,1,1,,,0,FALSE,,,,,,,,,,,,,,,,,,,,,,,,,,,,,,,
,613bce8ce65bd067beb06b5c,627c68ca2b63c792d89a88cf,2022-05-11_20h55.22.973,classification_task,2021.2.3,Win32,60.0276127,627c6715c52fd12f31907bd0,,,,,,,,,,,,,,,,,,,,,,,a,1,1.0816,"[""0.642"",""0.445"",""0.917"",""0.951""]","[0,1,1,1]",0,17,17,17,1,0,0,,,0,FALSE,,,,,,,,,,,,,,,,,,,,,,,,,,,,,,,
,613bce8ce65bd067beb06b5c,627c68ca2b63c792d89a88cf,2022-05-11_20h55.22.973,classification_task,2021.2.3,Win32,60.0276127,627c6715c52fd12f31907bd0,,,,,,,,,,,,,,,,,,,,,,,l,0,2.5014,"[""0.238"",""0.667"",""0.729"",""0.882""]","[1,0,1,1]",0,18,18,18,1,0,1,,,0,FALSE,,,,,,,,,,,,,,,,,,,,,,,,,,,,,,,
,613bce8ce65bd067beb06b5c,627c68ca2b63c792d89a88cf,2022-05-11_20h55.22.973,classification_task,2021.2.3,Win32,60.0276127,627c6715c52fd12f31907bd0,,,,,,,,,,,,,,,,,,,,,,,a,0,1.8137,"[""0.642"",""0.384"",""0.555"",""0.791""]","[0,1,1,1]",0,19,19,19,1,1,1,,,0,FALSE,,,,,,,,,,,,,,,,,,,,,,,,,,,,,,,
,613bce8ce65bd067beb06b5c,627c68ca2b63c792d89a88cf,2022-05-11_20h55.22.973,classification_task,2021.2.3,Win32,60.0276127,627c6715c52fd12f31907bd0,,,,,,,,,,,,,,,,,,,,,,,l,1,1.2998,"[""0.083"",""0.142"",""0.485"",""0.202""]","[1,1,1,0]",0,20,20,20,1,1,0,,,0,FALSE,,,,,,,,,,,,,,,,,,,,,,,,,,,,,,,
,613bce8ce65bd067beb06b5c,627c68ca2b63c792d89a88cf,2022-05-11_20h55.22.973,classification_task,2021.2.3,Win32,60.0276127,627c6715c52fd12f31907bd0,,,,,,,,,,,,,,,,,,,,,,,l,1,1.1703,"[""0.083"",""0.642"",""0.485"",""0.842""]","[1,0,1,1]",0,21,21,21,1,1,0,,,0,FALSE,,,,,,,,,,,,,,,,,,,,,,,,,,,,,,,
,613bce8ce65bd067beb06b5c,627c68ca2b63c792d89a88cf,2022-05-11_20h55.22.973,classification_task,2021.2.3,Win32,60.0276127,627c6715c52fd12f31907bd0,,,,,,,,,,,,,,,,,,,,,,,l,1,1.1019,"[""0.040"",""0.682"",""0.555"",""0.791""]","[1,0,1,1]",0,22,22,22,1,1,1,,,0,FALSE,,,,,,,,,,,,,,,,,,,,,,,,,,,,,,,
,613bce8ce65bd067beb06b5c,627c68ca2b63c792d89a88cf,2022-05-11_20h55.22.973,classification_task,2021.2.3,Win32,60.0276127,627c6715c52fd12f31907bd0,,,,,,,,,,,,,,,,,,,,,,,l,0,1.9168,"[""0.300"",""0.445"",""0.917"",""0.642""]","[1,1,1,0]",0,23,23,23,1,0,0,,,0,FALSE,,,,,,,,,,,,,,,,,,,,,,,,,,,,,,,
,613bce8ce65bd067beb06b5c,627c68ca2b63c792d89a88cf,2022-05-11_20h55.22.973,classification_task,2021.2.3,Win32,60.0276127,627c6715c52fd12f31907bd0,,,,,,,,,,,,,,,,,,,,,,,a,1,1.0105,"[""0.238"",""0.337"",""0.682"",""0.882""]","[1,1,0,1]",0,24,24,24,1,0,1,,,0,FALSE,,,,,,,,,,,,,,,,,,,,,,,,,,,,,,,
,613bce8ce65bd067beb06b5c,627c68ca2b63c792d89a88cf,2022-05-11_20h55.22.973,classification_task,2021.2.3,Win32,60.0276127,627c6715c52fd12f31907bd0,,,,,,,,,,,,,,,,,,,,,,,a,1,1.0823,"[""0.238"",""0.337"",""0.729"",""0.642""]","[1,1,1,0]",0,25,25,25,1,0,1,,,0,FALSE,,,,,,,,,,,,,,,,,,,,,,,,,,,,,,,
,613bce8ce65bd067beb06b5c,627c68ca2b63c792d89a88cf,2022-05-11_20h55.22.973,classification_task,2021.2.3,Win32,60.0276127,627c6715c52fd12f31907bd0,,,,,,,,,,,,,,,,,,,,,,,l,1,1.0661,"[""0.083"",""0.142"",""0.612"",""0.842""]","[1,1,0,1]",0,26,26,26,1,1,0,,,0,FALSE,,,,,,,,,,,,,,,,,,,,,,,,,,,,,,,
,613bce8ce65bd067beb06b5c,627c68ca2b63c792d89a88cf,2022-05-11_20h55.22.973,classification_task,2021.2.3,Win32,60.0276127,627c6715c52fd12f31907bd0,,,,,,,,,,,,,,,,,,,,,,,a,1,2.9773,"[""0.652"",""0.337"",""0.729"",""0.882""]","[0,1,1,1]",0,27,27,27,1,0,1,,,0,FALSE,,,,,,,,,,,,,,,,,,,,,,,,,,,,,,,
,613bce8ce65bd067beb06b5c,627c68ca2b63c792d89a88cf,2022-05-11_20h55.22.973,classification_task,2021.2.3,Win32,60.0276127,627c6715c52fd12f31907bd0,,,,,,,,,,,,,,,,,,,,,,,l,0,1.1427,"[""0.300"",""0.652"",""0.917"",""0.951""]","[1,0,1,1]",0,28,28,28,1,0,0,,,0,FALSE,,,,,,,,,,,,,,,,,,,,,,,,,,,,,,,
,613bce8ce65bd067beb06b5c,627c68ca2b63c792d89a88cf,2022-05-11_20h55.22.973,classification_task,2021.2.3,Win32,60.0276127,627c6715c52fd12f31907bd0,,,,,,,,,,,,,,,,,,,,,,,a,0,1.1441,"[""0.040"",""0.384"",""0.667"",""0.791""]","[1,1,0,1]",0,29,29,29,1,1,1,,,0,FALSE,,,,,,,,,,,,,,,,,,,,,,,,,,,,,,,
,613bce8ce65bd067beb06b5c,627c68ca2b63c792d89a88cf,2022-05-11_20h55.22.973,classification_task,2021.2.3,Win32,60.0276127,627c6715c52fd12f31907bd0,,,,,,,,,,,,,,,,,,,,,,,l,1,1.1626,"[""0.652"",""0.142"",""0.485"",""0.842""]","[0,1,1,1]",0,30,30,30,1,1,0,,,0,FALSE,,,,,,,,,,,,,,,,,,,,,,,,,,,,,,,
,613bce8ce65bd067beb06b5c,627c68ca2b63c792d89a88cf,2022-05-11_20h55.22.973,classification_task,2021.2.3,Win32,60.0276127,627c6715c52fd12f31907bd0,,,,,,,,,,,,,,,,,,,,,,,l,0,1.2223,"[""0.300"",""0.445"",""0.682"",""0.951""]","[1,1,0,1]",0,31,31,31,1,0,0,,,0,FALSE,,,,,,,,,,,,,,,,,,,,,,,,,,,,,,,
,613bce8ce65bd067beb06b5c,627c68ca2b63c792d89a88cf,2022-05-11_20h55.22.973,classification_task,2021.2.3,Win32,60.0276127,627c6715c52fd12f31907bd0,,,,,,,,,,,,,,,,,,,,,,,l,1,1.1496,"[""0.176"",""0.142"",""0.485"",""0.842""]","[0,1,1,1]",0,32,32,32,1,1,0,,,0,FALSE,,,,,,,,,,,,,,,,,,,,,,,,,,,,,,,
,613bce8ce65bd067beb06b5c,627c68ca2b63c792d89a88cf,2022-05-11_20h55.22.973,classification_task,2021.2.3,Win32,60.0276127,627c6715c52fd12f31907bd0,,,,,,,,,,,,,,,,,,,,,,,a,1,2.611,"[""0.238"",""0.638"",""0.729"",""0.882""]","[1,0,1,1]",0,33,33,33,1,0,1,,,0,FALSE,,,,,,,,,,,,,,,,,,,,,,,,,,,,,,,
,613bce8ce65bd067beb06b5c,627c68ca2b63c792d89a88cf,2022-05-11_20h55.22.973,classification_task,2021.2.3,Win32,60.0276127,627c6715c52fd12f31907bd0,,,,,,,,,,,,,,,,,,,,,,,a,1,1.3287,"[""0.238"",""0.337"",""0.729"",""0.638""]","[1,1,1,0]",0,34,34,34,1,0,1,,,0,FALSE,,,,,,,,,,,,,,,,,,,,,,,,,,,,,,,
,613bce8ce65bd067beb06b5c,627c68ca2b63c792d89a88cf,2022-05-11_20h55.22.973,classification_task,2021.2.3,Win32,60.0276127,627c6715c52fd12f31907bd0,,,,,,,,,,,,,,,,,,,,,,,l,1,1.2463,"[""0.040"",""0.638"",""0.555"",""0.791""]","[1,0,1,1]",0,35,35,35,1,1,1,,,0,FALSE,,,,,,,,,,,,,,,,,,,,,,,,,,,,,,,
,613bce8ce65bd067beb06b5c,627c68ca2b63c792d89a88cf,2022-05-11_20h55.22.973,classification_task,2021.2.3,Win32,60.0276127,627c6715c52fd12f31907bd0,,,,,,,,,,,,,,,,,,,,,,,l,1,3.7793,"[""0.083"",""0.142"",""0.485"",""0.519""]","[1,1,1,0]",0,36,36,36,1,1,0,,,0,FALSE,,,,,,,,,,,,,,,,,,,,,,,,,,,,,,,
,613bce8ce65bd067beb06b5c,627c68ca2b63c792d89a88cf,2022-05-11_20h55.22.973,classification_task,2021.2.3,Win32,60.0276127,627c6715c52fd12f31907bd0,,,,,,,,,,,,,,,,,,,,,,,l,1,3.8435,"[""0.667"",""0.384"",""0.555"",""0.791""]","[0,1,1,1]",0,37,37,37,1,1,1,,,0,FALSE,,,,,,,,,,,,,,,,,,,,,,,,,,,,,,,
,613bce8ce65bd067beb06b5c,627c68ca2b63c792d89a88cf,2022-05-11_20h55.22.973,classification_task,2021.2.3,Win32,60.0276127,627c6715c52fd12f31907bd0,,,,,,,,,,,,,,,,,,,,,,,l,0,1.1315,"[""0.238"",""0.337"",""0.667"",""0.882""]","[1,1,0,1]",0,38,38,38,1,0,1,,,0,FALSE,,,,,,,,,,,,,,,,,,,,,,,,,,,,,,,
,613bce8ce65bd067beb06b5c,627c68ca2b63c792d89a88cf,2022-05-11_20h55.22.973,classification_task,2021.2.3,Win32,60.0276127,627c6715c52fd12f31907bd0,,,,,,,,,,,,,,,,,,,,,,,l,1,1.3963,"[""0.040"",""0.384"",""0.600"",""0.791""]","[1,1,0,1]",0,39,39,39,1,1,1,,,0,FALSE,,,,,,,,,,,,,,,,,,,,,,,,,,,,,,,
,613bce8ce65bd067beb06b5c,627c68ca2b63c792d89a88cf,2022-05-11_20h55.22.973,classification_task,2021.2.3,Win32,60.0276127,627c6715c52fd12f31907bd0,,,,,,,,,,,,,,,,,,,,,,,a,1,1.4276,"[""0.642"",""0.445"",""0.917"",""0.951""]","[0,1,1,1]",0,40,40,40,1,0,0,,,0,FALSE,,,,,,,,,,,,,,,,,,,,,,,,,,,,,,,
,613bce8ce65bd067beb06b5c,627c68ca2b63c792d89a88cf,2022-05-11_20h55.22.973,classification_task,2021.2.3,Win32,60.0276127,627c6715c52fd12f31907bd0,,,,,,,,,,,,,,,,,,,,,,,l,1,1.2177,"[""0.040"",""0.384"",""0.555"",""0.613""]","[1,1,1,0]",0,41,41,41,1,1,1,,,0,FALSE,,,,,,,,,,,,,,,,,,,,,,,,,,,,,,,
,613bce8ce65bd067beb06b5c,627c68ca2b63c792d89a88cf,2022-05-11_20h55.22.973,classification_task,2021.2.3,Win32,60.0276127,627c6715c52fd12f31907bd0,,,,,,,,,,,,,,,,,,,,,,,a,1,2.6665,"[""0.300"",""0.667"",""0.917"",""0.951""]","[1,0,1,1]",0,42,42,42,1,0,0,,,0,FALSE,,,,,,,,,,,,,,,,,,,,,,,,,,,,,,,
,613bce8ce65bd067beb06b5c,627c68ca2b63c792d89a88cf,2022-05-11_20h55.22.973,classification_task,2021.2.3,Win32,60.0276127,627c6715c52fd12f31907bd0,,,,,,,,,,,,,,,,,,,,,,,l,1,1.582,"[""0.083"",""0.142"",""0.652"",""0.842""]","[1,1,0,1]",0,43,43,43,1,1,0,,,0,FALSE,,,,,,,,,,,,,,,,,,,,,,,,,,,,,,,
,613bce8ce65bd067beb06b5c,627c68ca2b63c792d89a88cf,2022-05-11_20h55.22.973,classification_task,2021.2.3,Win32,60.0276127,627c6715c52fd12f31907bd0,,,,,,,,,,,,,,,,,,,,,,,a,1,3.3283,"[""0.652"",""0.337"",""0.729"",""0.882""]","[0,1,1,1]",0,44,44,44,1,0,1,,,0,FALSE,,,,,,,,,,,,,,,,,,,,,,,,,,,,,,,
,613bce8ce65bd067beb06b5c,627c68ca2b63c792d89a88cf,2022-05-11_20h55.22.973,classification_task,2021.2.3,Win32,60.0276127,627c6715c52fd12f31907bd0,,,,,,,,,,,,,,,,,,,,,,,a,1,2.1516,"[""0.300"",""0.445"",""0.600"",""0.951""]","[1,1,0,1]",0,45,45,45,1,0,0,,,0,FALSE,,,,,,,,,,,,,,,,,,,,,,,,,,,,,,,
,613bce8ce65bd067beb06b5c,627c68ca2b63c792d89a88cf,2022-05-11_20h55.22.973,classification_task,2021.2.3,Win32,60.0276127,627c6715c52fd12f31907bd0,,,,,,,,,,,,,,,,,,,,,,,l,1,0.9597,"[""0.083"",""0.667"",""0.485"",""0.842""]","[1,0,1,1]",0,46,46,46,1,1,0,,,0,FALSE,,,,,,,,,,,,,,,,,,,,,,,,,,,,,,,
,613bce8ce65bd067beb06b5c,627c68ca2b63c792d89a88cf,2022-05-11_20h55.22.973,classification_task,2021.2.3,Win32,60.0276127,627c6715c52fd12f31907bd0,,,,,,,,,,,,,,,,,,,,,,,l,0,2.5513,"[""0.300"",""0.445"",""0.917"",""0.521""]","[1,1,1,0]",0,47,47,47,1,0,0,,,0,FALSE,,,,,,,,,,,,,,,,,,,,,,,,,,,,,,,
,613bce8ce65bd067beb06b5c,627c68ca2b63c792d89a88cf,2022-05-11_20h55.22.973,classification_task,2021.2.3,Win32,60.0276127,627c6715c52fd12f31907bd0,,,,,,,,,,,,,,,,,,,,,,,a,1,1.1746,"[""0.682"",""0.445"",""0.917"",""0.951""]","[0,1,1,1]",0,48,48,48,1,0,0,,,0,FALSE,,,,,,,,,,,,,,,,,,,,,,,,,,,,,,,
,613bce8ce65bd067beb06b5c,627c68ca2b63c792d89a88cf,2022-05-11_20h55.22.973,classification_task,2021.2.3,Win32,60.0276127,627c6715c52fd12f31907bd0,,,,,,,,,,,,,,,,,,,,,,,l,1,1.1465,"[""0.083"",""0.142"",""0.485"",""0.634""]","[1,1,1,0]",0,49,49,49,1,1,0,,,0,FALSE,,,,,,,,,,,,,,,,,,,,,,,,,,,,,,,
,613bce8ce65bd067beb06b5c,627c68ca2b63c792d89a88cf,2022-05-11_20h55.22.973,classification_task,2021.2.3,Win32,60.0276127,627c6715c52fd12f31907bd0,,,,,,,,,,,,,,,,,,,,,,,a,1,1.5959,"[""0.176"",""0.337"",""0.729"",""0.882""]","[0,1,1,1]",0,50,50,50,1,0,1,,,0,FALSE,,,,,,,,,,,,,,,,,,,,,,,,,,,,,,,
,613bce8ce65bd067beb06b5c,627c68ca2b63c792d89a88cf,2022-05-11_20h55.22.973,classification_task,2021.2.3,Win32,60.0276127,627c6715c52fd12f31907bd0,,,,,,,,,,,,,,,,,,,,,,,l,1,1.2672,"[""0.083"",""0.612"",""0.485"",""0.842""]","[1,0,1,1]",0,51,51,51,1,1,0,,,0,FALSE,,,,,,,,,,,,,,,,,,,,,,,,,,,,,,,
,613bce8ce65bd067beb06b5c,627c68ca2b63c792d89a88cf,2022-05-11_20h55.22.973,classification_task,2021.2.3,Win32,60.0276127,627c6715c52fd12f31907bd0,,,,,,,,,,,,,,,,,,,,,,,l,1,1.2181,"[""0.040"",""0.384"",""0.652"",""0.791""]","[1,1,0,1]",0,52,52,52,1,1,1,,,0,FALSE,,,,,,,,,,,,,,,,,,,,,,,,,,,,,,,
,613bce8ce65bd067beb06b5c,627c68ca2b63c792d89a88cf,2022-05-11_20h55.22.973,classification_task,2021.2.3,Win32,60.0276127,627c6715c52fd12f31907bd0,,,,,,,,,,,,,,,,,,,,,,,a,1,1.3896,"[""0.238"",""0.638"",""0.729"",""0.882""]","[1,0,1,1]",0,53,53,53,1,0,1,,,0,FALSE,,,,,,,,,,,,,,,,,,,,,,,,,,,,,,,
,613bce8ce65bd067beb06b5c,627c68ca2b63c792d89a88cf,2022-05-11_20h55.22.973,classification_task,2021.2.3,Win32,60.0276127,627c6715c52fd12f31907bd0,,,,,,,,,,,,,,,,,,,,,,,l,1,1.5768,"[""0.040"",""0.652"",""0.555"",""0.791""]","[1,0,1,1]",0,54,54,54,1,1,1,,,0,FALSE,,,,,,,,,,,,,,,,,,,,,,,,,,,,,,,
,613bce8ce65bd067beb06b5c,627c68ca2b63c792d89a88cf,2022-05-11_20h55.22.973,classification_task,2021.2.3,Win32,60.0276127,627c6715c52fd12f31907bd0,,,,,,,,,,,,,,,,,,,,,,,a,0,1.8335,"[""0.612"",""0.384"",""0.555"",""0.791""]","[0,1,1,1]",0,55,55,55,1,1,1,,,0,FALSE,,,,,,,,,,,,,,,,,,,,,,,,,,,,,,,
,613bce8ce65bd067beb06b5c,627c68ca2b63c792d89a88cf,2022-05-11_20h55.22.973,classification_task,2021.2.3,Win32,60.0276127,627c6715c52fd12f31907bd0,,,,,,,,,,,,,,,,,,,,,,,a,1,1.1,"[""0.238"",""0.337"",""0.729"",""0.642""]","[1,1,1,0]",0,56,56,56,1,0,1,,,0,FALSE,,,,,,,,,,,,,,,,,,,,,,,,,,,,,,,
,613bce8ce65bd067beb06b5c,627c68ca2b63c792d89a88cf,2022-05-11_20h55.22.973,classification_task,2021.2.3,Win32,60.0276127,627c6715c52fd12f31907bd0,,,,,,,,,,,,,,,,,,,,,,,a,1,1.2471,"[""0.300"",""0.445"",""0.521"",""0.951""]","[1,1,0,1]",0,57,57,57,1,0,0,,,0,FALSE,,,,,,,,,,,,,,,,,,,,,,,,,,,,,,,
,613bce8ce65bd067beb06b5c,627c68ca2b63c792d89a88cf,2022-05-11_20h55.22.973,classification_task,2021.2.3,Win32,60.0276127,627c6715c52fd12f31907bd0,,,,,,,,,,,,,,,,,,,,,,,l,0,3.1239,"[""0.238"",""0.337"",""0.682"",""0.882""]","[1,1,0,1]",0,58,58,58,1,0,1,,,0,FALSE,,,,,,,,,,,,,,,,,,,,,,,,,,,,,,,
,613bce8ce65bd067beb06b5c,627c68ca2b63c792d89a88cf,2022-05-11_20h55.22.973,classification_task,2021.2.3,Win32,60.0276127,627c6715c52fd12f31907bd0,,,,,,,,,,,,,,,,,,,,,,,l,1,1.3093,"[""0.040"",""0.384"",""0.555"",""0.649""]","[1,1,1,0]",0,59,59,59,1,1,1,,,0,FALSE,,,,,,,,,,,,,,,,,,,,,,,,,,,,,,,
,613bce8ce65bd067beb06b5c,627c68ca2b63c792d89a88cf,2022-05-11_20h55.22.973,classification_task,2021.2.3,Win32,60.0276127,627c6715c52fd12f31907bd0,,,,,,,,,,,,,,,,,,,,,,,a,1,1.0484,"[""0.300"",""0.445"",""0.917"",""0.652""]","[1,1,1,0]",0,60,60,60,1,0,0,,,0,FALSE,,,,,,,,,,,,,,,,,,,,,,,,,,,,,,,
,613bce8ce65bd067beb06b5c,627c68ca2b63c792d89a88cf,2022-05-11_20h55.22.973,classification_task,2021.2.3,Win32,60.0276127,627c6715c52fd12f31907bd0,,,,,,,,,,,,,,,,,,,,,,,l,1,1.436,"[""0.083"",""0.142"",""0.638"",""0.842""]","[1,1,0,1]",0,61,61,61,1,1,0,,,0,FALSE,,,,,,,,,,,,,,,,,,,,,,,,,,,,,,,
,613bce8ce65bd067beb06b5c,627c68ca2b63c792d89a88cf,2022-05-11_20h55.22.973,classification_task,2021.2.3,Win32,60.0276127,627c6715c52fd12f31907bd0,,,,,,,,,,,,,,,,,,,,,,,a,1,1.1405,"[""0.300"",""0.612"",""0.917"",""0.951""]","[1,0,1,1]",0,62,62,62,1,0,0,,,0,FALSE,,,,,,,,,,,,,,,,,,,,,,,,,,,,,,,
,613bce8ce65bd067beb06b5c,627c68ca2b63c792d89a88cf,2022-05-11_20h55.22.973,classification_task,2021.2.3,Win32,60.0276127,627c6715c52fd12f31907bd0,,,,,,,,,,,,,,,,,,,,,,,l,1,2.8791,"[""0.667"",""0.142"",""0.485"",""0.842""]","[0,1,1,1]",0,63,63,63,1,1,0,,,0,FALSE,,,,,,,,,,,,,,,,,,,,,,,,,,,,,,,
,613bce8ce65bd067beb06b5c,627c68ca2b63c792d89a88cf,2022-05-11_20h55.22.973,classification_task,2021.2.3,Win32,60.0276127,627c6715c52fd12f31907bd0,,,,,,,,,,,,,,,,,,,,,,,,,,,,,,,,,,,,,,,0, ,,0,0,187.1851,0,1,1,1,1,2,2,,,,,,,,,,,,,,,,,,
,613bce8ce65bd067beb06b5c,627c68ca2b63c792d89a88cf,2022-05-11_20h55.22.973,classification_task,2021.2.3,Win32,60.0276127,627c6715c52fd12f31907bd0,,,,,,,,,,,,,,,,,,,,,,,,,,,,,,,,,,,,,,,1,  ,,0,8.203997648,190.9921,0,1,1,1,1,2,2,,,,,,,,,,,,,,,,,,
,613bce8ce65bd067beb06b5c,627c68ca2b63c792d89a88cf,2022-05-11_20h55.22.973,classification_task,2021.2.3,Win32,60.0276127,627c6715c52fd12f31907bd0,,,,,,,,,,,,,,,,,,,,,,,,,,,,,,,,,,,,,,,2,  ,,0,1.913580247,193.5631,0,1,1,1,1,2,2,,,,,,,,,,,,,,,,,,
,613bce8ce65bd067beb06b5c,627c68ca2b63c792d89a88cf,2022-05-11_20h55.22.973,classification_task,2021.2.3,Win32,60.0276127,627c6715c52fd12f31907bd0,,,,,,,,,,,,,,,,,,,,,,,,,,,,,,,,,,,,,,,,,,,,,0,1,1,1,1,,2,,,,,,,,,,,,,,,,,,
,613bce8ce65bd067beb06b5c,627c68ca2b63c792d89a88cf,2022-05-11_20h55.22.973,classification_task,2021.2.3,Win32,60.0276127,627c6715c52fd12f31907bd0,,,,,,,,,,,,,,,,,,,,,space,4.482,a,1,2.5303,"[""0.238"",""0.337"",""0.729"",""0.649""]","[1,1,1,0]",0,0,0,0,1,0,1,,,0,FALSE,,,,,,,,,,,,,,,,,,,,,,,,,,,,,,,
,613bce8ce65bd067beb06b5c,627c68ca2b63c792d89a88cf,2022-05-11_20h55.22.973,classification_task,2021.2.3,Win32,60.0276127,627c6715c52fd12f31907bd0,,,,,,,,,,,,,,,,,,,,,,,l,1,2.7673,"[""0.040"",""0.384"",""0.613"",""0.791""]","[1,1,0,1]",0,1,1,1,1,1,1,,,0,FALSE,,,,,,,,,,,,,,,,,,,,,,,,,,,,,,,
,613bce8ce65bd067beb06b5c,627c68ca2b63c792d89a88cf,2022-05-11_20h55.22.973,classification_task,2021.2.3,Win32,60.0276127,627c6715c52fd12f31907bd0,,,,,,,,,,,,,,,,,,,,,,,a,1,5.6112,"[""0.238"",""0.649"",""0.729"",""0.882""]","[1,0,1,1]",0,2,2,2,1,0,1,,,0,FALSE,,,,,,,,,,,,,,,,,,,,,,,,,,,,,,,
,613bce8ce65bd067beb06b5c,627c68ca2b63c792d89a88cf,2022-05-11_20h55.22.973,classification_task,2021.2.3,Win32,60.0276127,627c6715c52fd12f31907bd0,,,,,,,,,,,,,,,,,,,,,,,l,1,1.611,"[""0.040"",""0.612"",""0.555"",""0.791""]","[1,0,1,1]",0,3,3,3,1,1,1,,,0,FALSE,,,,,,,,,,,,,,,,,,,,,,,,,,,,,,,
,613bce8ce65bd067beb06b5c,627c68ca2b63c792d89a88cf,2022-05-11_20h55.22.973,classification_task,2021.2.3,Win32,60.0276127,627c6715c52fd12f31907bd0,,,,,,,,,,,,,,,,,,,,,,,l,1,2.3155,"[""0.040"",""0.384"",""0.555"",""0.176""]","[1,1,1,0]",0,4,4,4,1,1,1,,,0,FALSE,,,,,,,,,,,,,,,,,,,,,,,,,,,,,,,
,613bce8ce65bd067beb06b5c,627c68ca2b63c792d89a88cf,2022-05-11_20h55.22.973,classification_task,2021.2.3,Win32,60.0276127,627c6715c52fd12f31907bd0,,,,,,,,,,,,,,,,,,,,,,,l,1,2.9826,"[""0.083"",""0.142"",""0.667"",""0.842""]","[1,1,0,1]",0,5,5,5,1,1,0,,,0,FALSE,,,,,,,,,,,,,,,,,,,,,,,,,,,,,,,
,613bce8ce65bd067beb06b5c,627c68ca2b63c792d89a88cf,2022-05-11_20h55.22.973,classification_task,2021.2.3,Win32,60.0276127,627c6715c52fd12f31907bd0,,,,,,,,,,,,,,,,,,,,,,,l,1,1.6897,"[""0.613"",""0.142"",""0.485"",""0.842""]","[0,1,1,1]",0,6,6,6,1,1,0,,,0,FALSE,,,,,,,,,,,,,,,,,,,,,,,,,,,,,,,
,613bce8ce65bd067beb06b5c,627c68ca2b63c792d89a88cf,2022-05-11_20h55.22.973,classification_task,2021.2.3,Win32,60.0276127,627c6715c52fd12f31907bd0,,,,,,,,,,,,,,,,,,,,,,,a,1,2.933,"[""0.238"",""0.337"",""0.638"",""0.882""]","[1,1,0,1]",0,7,7,7,1,0,1,,,0,FALSE,,,,,,,,,,,,,,,,,,,,,,,,,,,,,,,
,613bce8ce65bd067beb06b5c,627c68ca2b63c792d89a88cf,2022-05-11_20h55.22.973,classification_task,2021.2.3,Win32,60.0276127,627c6715c52fd12f31907bd0,,,,,,,,,,,,,,,,,,,,,,,l,1,1.5103,"[""0.083"",""0.142"",""0.485"",""0.642""]","[1,1,1,0]",0,8,8,8,1,1,0,,,0,FALSE,,,,,,,,,,,,,,,,,,,,,,,,,,,,,,,
,613bce8ce65bd067beb06b5c,627c68ca2b63c792d89a88cf,2022-05-11_20h55.22.973,classification_task,2021.2.3,Win32,60.0276127,627c6715c52fd12f31907bd0,,,,,,,,,,,,,,,,,,,,,,,a,1,0.9655,"[""0.519"",""0.337"",""0.729"",""0.882""]","[0,1,1,1]",0,9,9,9,1,0,1,,,0,FALSE,,,,,,,,,,,,,,,,,,,,,,,,,,,,,,,
,613bce8ce65bd067beb06b5c,627c68ca2b63c792d89a88cf,2022-05-11_20h55.22.973,classification_task,2021.2.3,Win32,60.0276127,627c6715c52fd12f31907bd0,,,,,,,,,,,,,,,,,,,,,,,a,1,1.0325,"[""0.652"",""0.445"",""0.917"",""0.951""]","[0,1,1,1]",0,10,10,10,1,0,0,,,0,FALSE,,,,,,,,,,,,,,,,,,,,,,,,,,,,,,,
,613bce8ce65bd067beb06b5c,627c68ca2b63c792d89a88cf,2022-05-11_20h55.22.973,classification_task,2021.2.3,Win32,60.0276127,627c6715c52fd12f31907bd0,,,,,,,,,,,,,,,,,,,,,,,l,0,0.8358,"[""0.300"",""0.652"",""0.917"",""0.951""]","[1,0,1,1]",0,11,11,11,1,0,0,,,0,FALSE,,,,,,,,,,,,,,,,,,,,,,,,,,,,,,,
,613bce8ce65bd067beb06b5c,627c68ca2b63c792d89a88cf,2022-05-11_20h55.22.973,classification_task,2021.2.3,Win32,60.0276127,627c6715c52fd12f31907bd0,,,,,,,,,,,,,,,,,,,,,,,l,1,1.634,"[""0.521"",""0.384"",""0.555"",""0.791""]","[0,1,1,1]",0,12,12,12,1,1,1,,,0,FALSE,,,,,,,,,,,,,,,,,,,,,,,,,,,,,,,
,613bce8ce65bd067beb06b5c,627c68ca2b63c792d89a88cf,2022-05-11_20h55.22.973,classification_task,2021.2.3,Win32,60.0276127,627c6715c52fd12f31907bd0,,,,,,,,,,,,,,,,,,,,,,,l,0,2.5645,"[""0.300"",""0.445"",""0.917"",""0.612""]","[1,1,1,0]",0,13,13,13,1,0,0,,,0,FALSE,,,,,,,,,,,,,,,,,,,,,,,,,,,,,,,
,613bce8ce65bd067beb06b5c,627c68ca2b63c792d89a88cf,2022-05-11_20h55.22.973,classification_task,2021.2.3,Win32,60.0276127,627c6715c52fd12f31907bd0,,,,,,,,,,,,,,,,,,,,,,,a,1,1.6999,"[""0.300"",""0.445"",""0.642"",""0.951""]","[1,1,0,1]",0,14,14,14,1,0,0,,,0,FALSE,,,,,,,,,,,,,,,,,,,,,,,,,,,,,,,
,613bce8ce65bd067beb06b5c,627c68ca2b63c792d89a88cf,2022-05-11_20h55.22.973,classification_task,2021.2.3,Win32,60.0276127,627c6715c52fd12f31907bd0,,,,,,,,,,,,,,,,,,,,,,,l,1,1.9572,"[""0.083"",""0.652"",""0.485"",""0.842""]","[1,0,1,1]",0,15,15,15,1,1,0,,,0,FALSE,,,,,,,,,,,,,,,,,,,,,,,,,,,,,,,
,613bce8ce65bd067beb06b5c,627c68ca2b63c792d89a88cf,2022-05-11_20h55.22.973,classification_task,2021.2.3,Win32,60.0276127,627c6715c52fd12f31907bd0,,,,,,,,,,,,,,,,,,,,,,,a,1,1.1183,"[""0.300"",""0.445"",""0.519"",""0.951""]","[1,1,0,1]",0,16,16,16,1,0,0,,,0,FALSE,,,,,,,,,,,,,,,,,,,,,,,,,,,,,,,
,613bce8ce65bd067beb06b5c,627c68ca2b63c792d89a88cf,2022-05-11_20h55.22.973,classification_task,2021.2.3,Win32,60.0276127,627c6715c52fd12f31907bd0,,,,,,,,,,,,,,,,,,,,,,,a,1,4.3957,"[""0.238"",""0.600"",""0.729"",""0.882""]","[1,0,1,1]",0,17,17,17,1,0,1,,,0,FALSE,,,,,,,,,,,,,,,,,,,,,,,,,,,,,,,
,613bce8ce65bd067beb06b5c,627c68ca2b63c792d89a88cf,2022-05-11_20h55.22.973,classification_task,2021.2.3,Win32,60.0276127,627c6715c52fd12f31907bd0,,,,,,,,,,,,,,,,,,,,,,,l,1,1.2079,"[""0.083"",""0.142"",""0.519"",""0.842""]","[1,1,0,1]",0,18,18,18,1,1,0,,,0,FALSE,,,,,,,,,,,,,,,,,,,,,,,,,,,,,,,
,613bce8ce65bd067beb06b5c,627c68ca2b63c792d89a88cf,2022-05-11_20h55.22.973,classification_task,2021.2.3,Win32,60.0276127,627c6715c52fd12f31907bd0,,,,,,,,,,,,,,,,,,,,,,,l,0,3.2173,"[""0.300"",""0.667"",""0.917"",""0.951""]","[1,0,1,1]",0,19,19,19,1,0,0,,,0,FALSE,,,,,,,,,,,,,,,,,,,,,,,,,,,,,,,
,613bce8ce65bd067beb06b5c,627c68ca2b63c792d89a88cf,2022-05-11_20h55.22.973,classification_task,2021.2.3,Win32,60.0276127,627c6715c52fd12f31907bd0,,,,,,,,,,,,,,,,,,,,,,,a,1,4.5052,"[""0.519"",""0.337"",""0.729"",""0.882""]","[0,1,1,1]",0,20,20,20,1,0,1,,,0,FALSE,,,,,,,,,,,,,,,,,,,,,,,,,,,,,,,
,613bce8ce65bd067beb06b5c,627c68ca2b63c792d89a88cf,2022-05-11_20h55.22.973,classification_task,2021.2.3,Win32,60.0276127,627c6715c52fd12f31907bd0,,,,,,,,,,,,,,,,,,,,,,,l,1,1.1242,"[""0.083"",""0.142"",""0.485"",""0.613""]","[1,1,1,0]",0,21,21,21,1,1,0,,,0,FALSE,,,,,,,,,,,,,,,,,,,,,,,,,,,,,,,
,613bce8ce65bd067beb06b5c,627c68ca2b63c792d89a88cf,2022-05-11_20h55.22.973,classification_task,2021.2.3,Win32,60.0276127,627c6715c52fd12f31907bd0,,,,,,,,,,,,,,,,,,,,,,,a,1,1.0859,"[""0.300"",""0.445"",""0.917"",""0.600""]","[1,1,1,0]",0,22,22,22,1,0,0,,,0,FALSE,,,,,,,,,,,,,,,,,,,,,,,,,,,,,,,
,613bce8ce65bd067beb06b5c,627c68ca2b63c792d89a88cf,2022-05-11_20h55.22.973,classification_task,2021.2.3,Win32,60.0276127,627c6715c52fd12f31907bd0,,,,,,,,,,,,,,,,,,,,,,,l,1,2.3167,"[""0.040"",""0.384"",""0.667"",""0.791""]","[1,1,0,1]",0,23,23,23,1,1,1,,,0,FALSE,,,,,,,,,,,,,,,,,,,,,,,,,,,,,,,
,613bce8ce65bd067beb06b5c,627c68ca2b63c792d89a88cf,2022-05-11_20h55.22.973,classification_task,2021.2.3,Win32,60.0276127,627c6715c52fd12f31907bd0,,,,,,,,,,,,,,,,,,,,,,,l,1,3.1593,"[""0.040"",""0.642"",""0.555"",""0.791""]","[1,0,1,1]",0,24,24,24,1,1,1,,,0,FALSE,,,,,,,,,,,,,,,,,,,,,,,,,,,,,,,
,613bce8ce65bd067beb06b5c,627c68ca2b63c792d89a88cf,2022-05-11_20h55.22.973,classification_task,2021.2.3,Win32,60.0276127,627c6715c52fd12f31907bd0,,,,,,,,,,,,,,,,,,,,,,,l,1,1.1335,"[""0.040"",""0.384"",""0.555"",""0.642""]","[1,1,1,0]",0,25,25,25,1,1,1,,,0,FALSE,,,,,,,,,,,,,,,,,,,,,,,,,,,,,,,
,613bce8ce65bd067beb06b5c,627c68ca2b63c792d89a88cf,2022-05-11_20h55.22.973,classification_task,2021.2.3,Win32,60.0276127,627c6715c52fd12f31907bd0,,,,,,,,,,,,,,,,,,,,,,,a,1,2.448,"[""0.238"",""0.337"",""0.729"",""0.667""]","[1,1,1,0]",0,26,26,26,1,0,1,,,0,FALSE,,,,,,,,,,,,,,,,,,,,,,,,,,,,,,,
,613bce8ce65bd067beb06b5c,627c68ca2b63c792d89a88cf,2022-05-11_20h55.22.973,classification_task,2021.2.3,Win32,60.0276127,627c6715c52fd12f31907bd0,,,,,,,,,,,,,,,,,,,,,,,a,1,0.795,"[""0.238"",""0.337"",""0.600"",""0.882""]","[1,1,0,1]",0,27,27,27,1,0,1,,,0,FALSE,,,,,,,,,,,,,,,,,,,,,,,,,,,,,,,
,613bce8ce65bd067beb06b5c,627c68ca2b63c792d89a88cf,2022-05-11_20h55.22.973,classification_task,2021.2.3,Win32,60.0276127,627c6715c52fd12f31907bd0,,,,,,,,,,,,,,,,,,,,,,,a,1,1.0653,"[""0.519"",""0.445"",""0.917"",""0.951""]","[0,1,1,1]",0,28,28,28,1,0,0,,,0,FALSE,,,,,,,,,,,,,,,,,,,,,,,,,,,,,,,
,613bce8ce65bd067beb06b5c,627c68ca2b63c792d89a88cf,2022-05-11_20h55.22.973,classification_task,2021.2.3,Win32,60.0276127,627c6715c52fd12f31907bd0,,,,,,,,,,,,,,,,,,,,,,,a,0,6.4692,"[""0.600"",""0.142"",""0.485"",""0.842""]","[0,1,1,1]",0,29,29,29,1,1,0,,,0,FALSE,,,,,,,,,,,,,,,,,,,,,,,,,,,,,,,
,613bce8ce65bd067beb06b5c,627c68ca2b63c792d89a88cf,2022-05-11_20h55.22.973,classification_task,2021.2.3,Win32,60.0276127,627c6715c52fd12f31907bd0,,,,,,,,,,,,,,,,,,,,,,,l,1,2.367,"[""0.652"",""0.384"",""0.555"",""0.791""]","[0,1,1,1]",0,30,30,30,1,1,1,,,0,FALSE,,,,,,,,,,,,,,,,,,,,,,,,,,,,,,,
,613bce8ce65bd067beb06b5c,627c68ca2b63c792d89a88cf,2022-05-11_20h55.22.973,classification_task,2021.2.3,Win32,60.0276127,627c6715c52fd12f31907bd0,,,,,,,,,,,,,,,,,,,,,,,l,1,1.1327,"[""0.083"",""0.649"",""0.485"",""0.842""]","[1,0,1,1]",0,31,31,31,1,1,0,,,0,FALSE,,,,,,,,,,,,,,,,,,,,,,,,,,,,,,,
,613bce8ce65bd067beb06b5c,627c68ca2b63c792d89a88cf,2022-05-11_20h55.22.973,classification_task,2021.2.3,Win32,60.0276127,627c6715c52fd12f31907bd0,,,,,,,,,,,,,,,,,,,,,,,l,1,1.4172,"[""0.083"",""0.142"",""0.485"",""0.667""]","[1,1,1,0]",0,32,32,32,1,1,0,,,0,FALSE,,,,,,,,,,,,,,,,,,,,,,,,,,,,,,,
,613bce8ce65bd067beb06b5c,627c68ca2b63c792d89a88cf,2022-05-11_20h55.22.973,classification_task,2021.2.3,Win32,60.0276127,627c6715c52fd12f31907bd0,,,,,,,,,,,,,,,,,,,,,,,l,1,3.6613,"[""0.202"",""0.142"",""0.485"",""0.842""]","[0,1,1,1]",0,33,33,33,1,1,0,,,0,FALSE,,,,,,,,,,,,,,,,,,,,,,,,,,,,,,,
,613bce8ce65bd067beb06b5c,627c68ca2b63c792d89a88cf,2022-05-11_20h55.22.973,classification_task,2021.2.3,Win32,60.0276127,627c6715c52fd12f31907bd0,,,,,,,,,,,,,,,,,,,,,,,a,1,1.0826,"[""0.300"",""0.445"",""0.600"",""0.951""]","[1,1,0,1]",0,34,34,34,1,0,0,,,0,FALSE,,,,,,,,,,,,,,,,,,,,,,,,,,,,,,,
,613bce8ce65bd067beb06b5c,627c68ca2b63c792d89a88cf,2022-05-11_20h55.22.973,classification_task,2021.2.3,Win32,60.0276127,627c6715c52fd12f31907bd0,,,,,,,,,,,,,,,,,,,,,,,a,1,1.5174,"[""0.238"",""0.337"",""0.729"",""0.600""]","[1,1,1,0]",0,35,35,35,1,0,1,,,0,FALSE,,,,,,,,,,,,,,,,,,,,,,,,,,,,,,,
,613bce8ce65bd067beb06b5c,627c68ca2b63c792d89a88cf,2022-05-11_20h55.22.973,classification_task,2021.2.3,Win32,60.0276127,627c6715c52fd12f31907bd0,,,,,,,,,,,,,,,,,,,,,,,l,1,1.3943,"[""0.040"",""0.384"",""0.667"",""0.791""]","[1,1,0,1]",0,36,36,36,1,1,1,,,0,FALSE,,,,,,,,,,,,,,,,,,,,,,,,,,,,,,,
,613bce8ce65bd067beb06b5c,627c68ca2b63c792d89a88cf,2022-05-11_20h55.22.973,classification_task,2021.2.3,Win32,60.0276127,627c6715c52fd12f31907bd0,,,,,,,,,,,,,,,,,,,,,,,a,1,1.6318,"[""0.300"",""0.445"",""0.917"",""0.634""]","[1,1,1,0]",0,37,37,37,1,0,0,,,0,FALSE,,,,,,,,,,,,,,,,,,,,,,,,,,,,,,,
,613bce8ce65bd067beb06b5c,627c68ca2b63c792d89a88cf,2022-05-11_20h55.22.973,classification_task,2021.2.3,Win32,60.0276127,627c6715c52fd12f31907bd0,,,,,,,,,,,,,,,,,,,,,,,l,0,1.6333,"[""0.238"",""0.667"",""0.729"",""0.882""]","[1,0,1,1]",0,38,38,38,1,0,1,,,0,FALSE,,,,,,,,,,,,,,,,,,,,,,,,,,,,,,,
,613bce8ce65bd067beb06b5c,627c68ca2b63c792d89a88cf,2022-05-11_20h55.22.973,classification_task,2021.2.3,Win32,60.0276127,627c6715c52fd12f31907bd0,,,,,,,,,,,,,,,,,,,,,,,l,1,1.3264,"[""0.667"",""0.384"",""0.555"",""0.791""]","[0,1,1,1]",0,39,39,39,1,1,1,,,0,FALSE,,,,,,,,,,,,,,,,,,,,,,,,,,,,,,,
,613bce8ce65bd067beb06b5c,627c68ca2b63c792d89a88cf,2022-05-11_20h55.22.973,classification_task,2021.2.3,Win32,60.0276127,627c6715c52fd12f31907bd0,,,,,,,,,,,,,,,,,,,,,,,a,1,7.0154,"[""0.238"",""0.337"",""0.649"",""0.882""]","[1,1,0,1]",0,40,40,40,1,0,1,,,0,FALSE,,,,,,,,,,,,,,,,,,,,,,,,,,,,,,,
,613bce8ce65bd067beb06b5c,627c68ca2b63c792d89a88cf,2022-05-11_20h55.22.973,classification_task,2021.2.3,Win32,60.0276127,627c6715c52fd12f31907bd0,,,,,,,,,,,,,,,,,,,,,,,l,1,1.3369,"[""0.083"",""0.142"",""0.613"",""0.842""]","[1,1,0,1]",0,41,41,41,1,1,0,,,0,FALSE,,,,,,,,,,,,,,,,,,,,,,,,,,,,,,,
,613bce8ce65bd067beb06b5c,627c68ca2b63c792d89a88cf,2022-05-11_20h55.22.973,classification_task,2021.2.3,Win32,60.0276127,627c6715c52fd12f31907bd0,,,,,,,,,,,,,,,,,,,,,,,l,1,1.8985,"[""0.040"",""0.384"",""0.555"",""0.682""]","[1,1,1,0]",0,42,42,42,1,1,1,,,0,FALSE,,,,,,,,,,,,,,,,,,,,,,,,,,,,,,,
,613bce8ce65bd067beb06b5c,627c68ca2b63c792d89a88cf,2022-05-11_20h55.22.973,classification_task,2021.2.3,Win32,60.0276127,627c6715c52fd12f31907bd0,,,,,,,,,,,,,,,,,,,,,,,a,1,3.4284,"[""0.300"",""0.613"",""0.917"",""0.951""]","[1,0,1,1]",0,43,43,43,1,0,0,,,0,FALSE,,,,,,,,,,,,,,,,,,,,,,,,,,,,,,,
,613bce8ce65bd067beb06b5c,627c68ca2b63c792d89a88cf,2022-05-11_20h55.22.973,classification_task,2021.2.3,Win32,60.0276127,627c6715c52fd12f31907bd0,,,,,,,,,,,,,,,,,,,,,,,a,1,0.8763,"[""0.521"",""0.445"",""0.917"",""0.951""]","[0,1,1,1]",0,44,44,44,1,0,0,,,0,FALSE,,,,,,,,,,,,,,,,,,,,,,,,,,,,,,,
,613bce8ce65bd067beb06b5c,627c68ca2b63c792d89a88cf,2022-05-11_20h55.22.973,classification_task,2021.2.3,Win32,60.0276127,627c6715c52fd12f31907bd0,,,,,,,,,,,,,,,,,,,,,,,l,1,2.2159,"[""0.083"",""0.649"",""0.485"",""0.842""]","[1,0,1,1]",0,45,45,45,1,1,0,,,0,FALSE,,,,,,,,,,,,,,,,,,,,,,,,,,,,,,,
,613bce8ce65bd067beb06b5c,627c68ca2b63c792d89a88cf,2022-05-11_20h55.22.973,classification_task,2021.2.3,Win32,60.0276127,627c6715c52fd12f31907bd0,,,,,,,,,,,,,,,,,,,,,,,a,1,2.4001,"[""0.519"",""0.337"",""0.729"",""0.882""]","[0,1,1,1]",0,46,46,46,1,0,1,,,0,FALSE,,,,,,,,,,,,,,,,,,,,,,,,,,,,,,,
,613bce8ce65bd067beb06b5c,627c68ca2b63c792d89a88cf,2022-05-11_20h55.22.973,classification_task,2021.2.3,Win32,60.0276127,627c6715c52fd12f31907bd0,,,,,,,,,,,,,,,,,,,,,,,l,1,1.6264,"[""0.040"",""0.667"",""0.555"",""0.791""]","[1,0,1,1]",0,47,47,47,1,1,1,,,0,FALSE,,,,,,,,,,,,,,,,,,,,,,,,,,,,,,,
,613bce8ce65bd067beb06b5c,627c68ca2b63c792d89a88cf,2022-05-11_20h55.22.973,classification_task,2021.2.3,Win32,60.0276127,627c6715c52fd12f31907bd0,,,,,,,,,,,,,,,,,,,,,,,l,1,2.7126,"[""0.652"",""0.142"",""0.485"",""0.842""]","[0,1,1,1]",0,48,48,48,1,1,0,,,0,FALSE,,,,,,,,,,,,,,,,,,,,,,,,,,,,,,,
,613bce8ce65bd067beb06b5c,627c68ca2b63c792d89a88cf,2022-05-11_20h55.22.973,classification_task,2021.2.3,Win32,60.0276127,627c6715c52fd12f31907bd0,,,,,,,,,,,,,,,,,,,,,,,a,1,1.4467,"[""0.238"",""0.337"",""0.667"",""0.882""]","[1,1,0,1]",0,49,49,49,1,0,1,,,0,FALSE,,,,,,,,,,,,,,,,,,,,,,,,,,,,,,,
,613bce8ce65bd067beb06b5c,627c68ca2b63c792d89a88cf,2022-05-11_20h55.22.973,classification_task,2021.2.3,Win32,60.0276127,627c6715c52fd12f31907bd0,,,,,,,,,,,,,,,,,,,,,,,a,1,1.0176,"[""0.642"",""0.445"",""0.917"",""0.951""]","[0,1,1,1]",0,50,50,50,1,0,0,,,0,FALSE,,,,,,,,,,,,,,,,,,,,,,,,,,,,,,,
,613bce8ce65bd067beb06b5c,627c68ca2b63c792d89a88cf,2022-05-11_20h55.22.973,classification_task,2021.2.3,Win32,60.0276127,627c6715c52fd12f31907bd0,,,,,,,,,,,,,,,,,,,,,,,l,1,1.4154,"[""0.040"",""0.384"",""0.682"",""0.791""]","[1,1,0,1]",0,51,51,51,1,1,1,,,0,FALSE,,,,,,,,,,,,,,,,,,,,,,,,,,,,,,,
,613bce8ce65bd067beb06b5c,627c68ca2b63c792d89a88cf,2022-05-11_20h55.22.973,classification_task,2021.2.3,Win32,60.0276127,627c6715c52fd12f31907bd0,,,,,,,,,,,,,,,,,,,,,,,l,1,2.0977,"[""0.642"",""0.384"",""0.555"",""0.791""]","[0,1,1,1]",0,52,52,52,1,1,1,,,0,FALSE,,,,,,,,,,,,,,,,,,,,,,,,,,,,,,,
,613bce8ce65bd067beb06b5c,627c68ca2b63c792d89a88cf,2022-05-11_20h55.22.973,classification_task,2021.2.3,Win32,60.0276127,627c6715c52fd12f31907bd0,,,,,,,,,,,,,,,,,,,,,,,a,1,1.2482,"[""0.238"",""0.337"",""0.729"",""0.642""]","[1,1,1,0]",0,53,53,53,1,0,1,,,0,FALSE,,,,,,,,,,,,,,,,,,,,,,,,,,,,,,,
,613bce8ce65bd067beb06b5c,627c68ca2b63c792d89a88cf,2022-05-11_20h55.22.973,classification_task,2021.2.3,Win32,60.0276127,627c6715c52fd12f31907bd0,,,,,,,,,,,,,,,,,,,,,,,l,1,1.4819,"[""0.040"",""0.652"",""0.555"",""0.791""]","[1,0,1,1]",0,54,54,54,1,1,1,,,0,FALSE,,,,,,,,,,,,,,,,,,,,,,,,,,,,,,,
,613bce8ce65bd067beb06b5c,627c68ca2b63c792d89a88cf,2022-05-11_20h55.22.973,classification_task,2021.2.3,Win32,60.0276127,627c6715c52fd12f31907bd0,,,,,,,,,,,,,,,,,,,,,,,l,1,1.4948,"[""0.083"",""0.642"",""0.485"",""0.842""]","[1,0,1,1]",0,55,55,55,1,1,0,,,0,FALSE,,,,,,,,,,,,,,,,,,,,,,,,,,,,,,,
,613bce8ce65bd067beb06b5c,627c68ca2b63c792d89a88cf,2022-05-11_20h55.22.973,classification_task,2021.2.3,Win32,60.0276127,627c6715c52fd12f31907bd0,,,,,,,,,,,,,,,,,,,,,,,a,1,5.431,"[""0.238"",""0.634"",""0.729"",""0.882""]","[1,0,1,1]",0,56,56,56,1,0,1,,,0,FALSE,,,,,,,,,,,,,,,,,,,,,,,,,,,,,,,
,613bce8ce65bd067beb06b5c,627c68ca2b63c792d89a88cf,2022-05-11_20h55.22.973,classification_task,2021.2.3,Win32,60.0276127,627c6715c52fd12f31907bd0,,,,,,,,,,,,,,,,,,,,,,,l,1,1.1069,"[""0.083"",""0.142"",""0.485"",""0.642""]","[1,1,1,0]",0,57,57,57,1,1,0,,,0,FALSE,,,,,,,,,,,,,,,,,,,,,,,,,,,,,,,
,613bce8ce65bd067beb06b5c,627c68ca2b63c792d89a88cf,2022-05-11_20h55.22.973,classification_task,2021.2.3,Win32,60.0276127,627c6715c52fd12f31907bd0,,,,,,,,,,,,,,,,,,,,,,,l,1,1.3114,"[""0.040"",""0.384"",""0.555"",""0.652""]","[1,1,1,0]",0,58,58,58,1,1,1,,,0,FALSE,,,,,,,,,,,,,,,,,,,,,,,,,,,,,,,
,613bce8ce65bd067beb06b5c,627c68ca2b63c792d89a88cf,2022-05-11_20h55.22.973,classification_task,2021.2.3,Win32,60.0276127,627c6715c52fd12f31907bd0,,,,,,,,,,,,,,,,,,,,,,,,0,,"[""0.300"",""0.445"",""0.917"",""0.642""]","[1,1,1,0]",0,59,59,59,1,0,0,,,0,FALSE,,,,,,,,,,,,,,,,,,,,,,,,,,,,,,,
,613bce8ce65bd067beb06b5c,627c68ca2b63c792d89a88cf,2022-05-11_20h55.22.973,classification_task,2021.2.3,Win32,60.0276127,627c6715c52fd12f31907bd0,,,,,,,,,,,,,,,,,,,,,,,a,1,2.5747,"[""0.202"",""0.337"",""0.729"",""0.882""]","[0,1,1,1]",0,60,60,60,1,0,1,,,0,FALSE,,,,,,,,,,,,,,,,,,,,,,,,,,,,,,,
,613bce8ce65bd067beb06b5c,627c68ca2b63c792d89a88cf,2022-05-11_20h55.22.973,classification_task,2021.2.3,Win32,60.0276127,627c6715c52fd12f31907bd0,,,,,,,,,,,,,,,,,,,,,,,a,1,2.0322,"[""0.300"",""0.667"",""0.917"",""0.951""]","[1,0,1,1]",0,61,61,61,1,0,0,,,0,FALSE,,,,,,,,,,,,,,,,,,,,,,,,,,,,,,,
,613bce8ce65bd067beb06b5c,627c68ca2b63c792d89a88cf,2022-05-11_20h55.22.973,classification_task,2021.2.3,Win32,60.0276127,627c6715c52fd12f31907bd0,,,,,,,,,,,,,,,,,,,,,,,a,1,1.3413,"[""0.300"",""0.445"",""0.638"",""0.951""]","[1,1,0,1]",0,62,62,62,1,0,0,,,0,FALSE,,,,,,,,,,,,,,,,,,,,,,,,,,,,,,,
,613bce8ce65bd067beb06b5c,627c68ca2b63c792d89a88cf,2022-05-11_20h55.22.973,classification_task,2021.2.3,Win32,60.0276127,627c6715c52fd12f31907bd0,,,,,,,,,,,,,,,,,,,,,,,l,1,0.9667,"[""0.083"",""0.142"",""0.682"",""0.842""]","[1,1,0,1]",0,63,63,63,1,1,0,,,0,FALSE,,,,,,,,,,,,,,,,,,,,,,,,,,,,,,,
,613bce8ce65bd067beb06b5c,627c68ca2b63c792d89a88cf,2022-05-11_20h55.22.973,classification_task,2021.2.3,Win32,60.0276127,627c6715c52fd12f31907bd0,,,,,,,,,,,,,,,,,,,,,,,,,,,,,,,,,,,,,,,0, ,,0,0.620223398,217.767,0,2,2,2,1,2,3,,,,,,,,,,,,,,,,,,
,613bce8ce65bd067beb06b5c,627c68ca2b63c792d89a88cf,2022-05-11_20h55.22.973,classification_task,2021.2.3,Win32,60.0276127,627c6715c52fd12f31907bd0,,,,,,,,,,,,,,,,,,,,,,,,,,,,,,,,,,,,,,,1,  ,,0,10,230.784,0,2,2,2,1,2,3,,,,,,,,,,,,,,,,,,
,613bce8ce65bd067beb06b5c,627c68ca2b63c792d89a88cf,2022-05-11_20h55.22.973,classification_task,2021.2.3,Win32,60.0276127,627c6715c52fd12f31907bd0,,,,,,,,,,,,,,,,,,,,,,,,,,,,,,,,,,,,,,,2,  ,,0,4.588477366,234.5226,0,2,2,2,1,2,3,,,,,,,,,,,,,,,,,,
,613bce8ce65bd067beb06b5c,627c68ca2b63c792d89a88cf,2022-05-11_20h55.22.973,classification_task,2021.2.3,Win32,60.0276127,627c6715c52fd12f31907bd0,,,,,,,,,,,,,,,,,,,,,,,,,,,,,,,,,,,,,,,,,,,,,0,2,2,2,1,,3,,,,,,,,,,,,,,,,,,
,613bce8ce65bd067beb06b5c,627c68ca2b63c792d89a88cf,2022-05-11_20h55.22.973,classification_task,2021.2.3,Win32,60.0276127,627c6715c52fd12f31907bd0,,,,,,,,,,,,,,,,,,,,,,,,,,,,,,,,,,,,,,,,,,,,,,,,,,,,,I believe the aid is a competent performer,,0.7,0,5,2201.2712,0,0,0,0,1,0,,,,,
,613bce8ce65bd067beb06b5c,627c68ca2b63c792d89a88cf,2022-05-11_20h55.22.973,classification_task,2021.2.3,Win32,60.0276127,627c6715c52fd12f31907bd0,,,,,,,,,,,,,,,,,,,,,,,,,,,,,,,,,,,,,,,,,,,,,,,,,,,,,I trust the aid,,0.7,0,5,2202.411,0,0,0,0,1,0,,,,,
,613bce8ce65bd067beb06b5c,627c68ca2b63c792d89a88cf,2022-05-11_20h55.22.973,classification_task,2021.2.3,Win32,60.0276127,627c6715c52fd12f31907bd0,,,,,,,,,,,,,,,,,,,,,,,,,,,,,,,,,,,,,,,,,,,,,,,,,,,,,I have confidence in the advice given by the aid,,0.7,0,5,2203.8418,0,0,0,0,1,0,,,,,
,613bce8ce65bd067beb06b5c,627c68ca2b63c792d89a88cf,2022-05-11_20h55.22.973,classification_task,2021.2.3,Win32,60.0276127,627c6715c52fd12f31907bd0,,,,,,,,,,,,,,,,,,,,,,,,,,,,,,,,,,,,,,,,,,,,,,,,,,,,,I can depend on the aid,,0.7,0,5,2204.8907,0,0,0,0,1,0,,,,,
,613bce8ce65bd067beb06b5c,627c68ca2b63c792d89a88cf,2022-05-11_20h55.22.973,classification_task,2021.2.3,Win32,60.0276127,627c6715c52fd12f31907bd0,,,,,,,,,,,,,,,,,,,,,,,,,,,,,,,,,,,,,,,,,,,,,,,,,,,,,I can rely on the aid to behave in consistent ways,,0.7,0,5,2206.8225,0,0,0,0,1,0,,,,,
,613bce8ce65bd067beb06b5c,627c68ca2b63c792d89a88cf,2022-05-11_20h55.22.973,classification_task,2021.2.3,Win32,60.0276127,627c6715c52fd12f31907bd0,,,,,,,,,,,,,,,,,,,,,,,,,,,,,,,,,,,,,,,,,,,,,,,,,,,,,I can rely on the aid to do its best every time I take its advice,,0.7,0,5,2209.3998,0,0,0,0,1,0,,,,,
,613bce8ce65bd067beb06b5c,627c68ca2b63c792d89a88cf,2022-05-11_20h55.22.973,classification_task,2021.2.3,Win32,60.0276127,627c6715c52fd12f31907bd0,,,,,,,,,,,,,,,,,,,,,,,,,,,,,,,,,,,,,,,,,,,,,,,,,,,,,"On trials you completed with assistance from the aid, how frequently did you think the aid was correct?",,0.7,0,90%,,0,0,0,0,1,0,,,,,
,613bce8ce65bd067beb06b5c,627c68ca2b63c792d89a88cf,2022-05-11_20h55.22.973,classification_task,2021.2.3,Win32,60.0276127,627c6715c52fd12f31907bd0,,,,,,,,,,,,,,,,,,,,,,,,,,,,,,,,,,,,,,,,,,,,,,,,,,,,,"On trials you completed without the aid, how frequently did you think you were correct?",,0.7,0,60%,,0,0,0,0,1,0,,,,,
,613bce8ce65bd067beb06b5c,627c68ca2b63c792d89a88cf,2022-05-11_20h55.22.973,classification_task,2021.2.3,Win32,60.0276127,627c6715c52fd12f31907bd0,,,,,,,,,,,,,,,,,,,,,,,,,,,,,,,,,,,,,,,,,,,,,,,,,,,,,,,,,,,0,0,0,0,1,,,,,,
,613bce8ce65bd067beb06b5c,627c68ca2b63c792d89a88cf,2022-05-11_20h55.22.973,classification_task,2021.2.3,Win32,60.0276127,627c6715c52fd12f31907bd0,,,,,,,,,,,,,,,,,,,,,,,,,,,,,,,,,,,,,,,,,,,,,,,,,,,,,,,,,,,,,,,,,space,7.4906,2232.3808,,
,613bce8ce65bd067beb06b5c,627c68ca2b63c792d89a88cf,2022-05-11_20h55.22.973,classification_task,2021.2.3,Win32,60.0276127,627c6715c52fd12f31907bd0,,,,,,,,,,,,,,,,,,,,,,,,,,,,,,,,,,,,,,,,,,,,,,,,,,,,,,,,,,,,,,,,,,,,"Mozilla/5.0 (Windows NT 10.0; Win64; x64) AppleWebKit/537.36 (KHTML, like Gecko) Chrome/101.0.4951.64 Safari/537.36",
,613bce8ce65bd067beb06b5c,627c68ca2b63c792d89a88cf,2022-05-11_20h55.22.973,classification_task,2021.2.3,Win32,60.0276127,627c6715c52fd12f31907bd0,,,,,,,,,,,,,,,,,,,,,,,,,,,,,,,,,,,,,,,,,,,,,,,,,,,,,,,,,,,,,,,,,,,,,LOWLIGHT
