usingWebGL,participant,session,date,expName,psychopyVersion,OS,frameRate,study_id,signatures_friend,signatures_foe,band_ranges_top,band_ranges_bottom,formitemText,formtype,formundefined,formitemWidth,formindex,formresponse,formrt,key_resp_2.keys,key_resp_2.rt,tute_resp.keys,tute_resp.rt,tutorial.thisRepN,tutorial.thisTrialN,tutorial.thisN,tutorial.thisIndex,tutorial.ran,key_resp_4.keys,key_resp_4.rt,key_resp.keys,key_resp.corr,lines_presented,is_signal_presented,trials.thisRepN,trials.thisTrialN,trials.thisN,trials.thisIndex,trials.ran,vessel,active_band,lines,is_signal,supported_pos,catch_trial,key_resp.rt,debrief_formindex,debrief_formitemText,debrief_formtype,debrief_formitemWidth,debrief_formresponse,debrief_formrt,phases.thisRepN,phases.thisTrialN,phases.thisN,phases.thisIndex,phases.ran,phases.order,phase,key_resp_3.keys,trustitemText,trusttype,trustitemWidth,trustindex,trustresponse,trustrt,support_status.thisRepN,support_status.thisTrialN,support_status.thisN,support_status.thisIndex,support_status.ran,support_status.order,key_resp_5.keys,key_resp_5.rt,globalClockTime,userAgent,manualCondition
TRUE,613b7bdc3a329ab20c067d1a,627c6f1ff7723f13650e4b66,2022-05-11_21h22.01.632,classification_task,2021.2.3,Win32,59.97720866,627c6715c52fd12f31907bcf,,,,,,,,,,,,,,,,,,,,,,,,,,,,,,,,,,,,,,,,,,,,,,,,,,,,,,,,,,,,,,,,,,,,,
,613b7bdc3a329ab20c067d1a,627c6f1ff7723f13650e4b66,2022-05-11_21h22.01.632,classification_task,2021.2.3,Win32,59.97720866,627c6715c52fd12f31907bcf,"[[""0.196"",""0.545"",""0.912"",""0.954""],[""0.230"",""0.506"",""0.666"",""0.862""]]","[[""0.100"",""0.277"",""0.605"",""0.821""],[""0.150"",""0.406"",""0.460"",""0.741""]]","[1,10]","[100,1000]",Video game experience,,,0.7,0,,,,,,,,,,,,,,,,,,,,,,,,,,,,,,,,,,,,,,,,,,,,,,,,,,,,,,,,,,,,
,613b7bdc3a329ab20c067d1a,627c6f1ff7723f13650e4b66,2022-05-11_21h22.01.632,classification_task,2021.2.3,Win32,59.97720866,627c6715c52fd12f31907bcf,,,,,Approximately how many hours did you spend playing video games in the last week?,,,0.7,0,30,,,,,,,,,,,,,,,,,,,,,,,,,,,,,,,,,,,,,,,,,,,,,,,,,,,,,,,,,,,
,613b7bdc3a329ab20c067d1a,627c6f1ff7723f13650e4b66,2022-05-11_21h22.01.632,classification_task,2021.2.3,Win32,59.97720866,627c6715c52fd12f31907bcf,,,,,"Which game did you play the most this year? (Enter ""None"" if you didn't play any)",,,0.7,0,Valorant,,,,,,,,,,,,,,,,,,,,,,,,,,,,,,,,,,,,,,,,,,,,,,,,,,,,,,,,,,,
,613b7bdc3a329ab20c067d1a,627c6f1ff7723f13650e4b66,2022-05-11_21h22.01.632,classification_task,2021.2.3,Win32,59.97720866,627c6715c52fd12f31907bcf,,,,,Visual perception,,,0.7,0,,,,,,,,,,,,,,,,,,,,,,,,,,,,,,,,,,,,,,,,,,,,,,,,,,,,,,,,,,,,
,613b7bdc3a329ab20c067d1a,627c6f1ff7723f13650e4b66,2022-05-11_21h22.01.632,classification_task,2021.2.3,Win32,59.97720866,627c6715c52fd12f31907bcf,,,,,Do you have any form of color blindness?,,,0.7,0,No,28.4394,,,,,,,,,,,,,,,,,,,,,,,,,,,,,,,,,,,,,,,,,,,,,,,,,,,,,,,,,,
,613b7bdc3a329ab20c067d1a,627c6f1ff7723f13650e4b66,2022-05-11_21h22.01.632,classification_task,2021.2.3,Win32,59.97720866,627c6715c52fd12f31907bcf,,,,,Do you use software to change the colour temperature of your screen (e.g. f.lux)?,,,0.7,0,No,33.0147,,,,,,,,,,,,,,,,,,,,,,,,,,,,,,,,,,,,,,,,,,,,,,,,,,,,,,,,,,
,613b7bdc3a329ab20c067d1a,627c6f1ff7723f13650e4b66,2022-05-11_21h22.01.632,classification_task,2021.2.3,Win32,59.97720866,627c6715c52fd12f31907bcf,,,,,,,,,,,,space,105.4673,space,11.0588,0,0,0,0,1,,,,,,,,,,,,,,,,,,,,,,,,,,,,,,,,,,,,,,,,,,,,,,,,,
,613b7bdc3a329ab20c067d1a,627c6f1ff7723f13650e4b66,2022-05-11_21h22.01.632,classification_task,2021.2.3,Win32,59.97720866,627c6715c52fd12f31907bcf,,,,,,,,,,,,,,space,9.9413,1,0,1,0,1,,,,,,,,,,,,,,,,,,,,,,,,,,,,,,,,,,,,,,,,,,,,,,,,,
,613b7bdc3a329ab20c067d1a,627c6f1ff7723f13650e4b66,2022-05-11_21h22.01.632,classification_task,2021.2.3,Win32,59.97720866,627c6715c52fd12f31907bcf,,,,,,,,,,,,,,space,33.4723,2,0,2,0,1,,,,,,,,,,,,,,,,,,,,,,,,,,,,,,,,,,,,,,,,,,,,,,,,,
,613b7bdc3a329ab20c067d1a,627c6f1ff7723f13650e4b66,2022-05-11_21h22.01.632,classification_task,2021.2.3,Win32,59.97720866,627c6715c52fd12f31907bcf,,,,,,,,,,,,,,space,12.5173,3,0,3,0,1,,,,,,,,,,,,,,,,,,,,,,,,,,,,,,,,,,,,,,,,,,,,,,,,,
,613b7bdc3a329ab20c067d1a,627c6f1ff7723f13650e4b66,2022-05-11_21h22.01.632,classification_task,2021.2.3,Win32,59.97720866,627c6715c52fd12f31907bcf,,,,,,,,,,,,,,space,12.3601,4,0,4,0,1,,,,,,,,,,,,,,,,,,,,,,,,,,,,,,,,,,,,,,,,,,,,,,,,,
,613b7bdc3a329ab20c067d1a,627c6f1ff7723f13650e4b66,2022-05-11_21h22.01.632,classification_task,2021.2.3,Win32,59.97720866,627c6715c52fd12f31907bcf,,,,,,,,,,,,,,,,,,,,,space,17.8192,,0,"[""0.031"",""0.506"",""0.666"",""0.862""]","[0,1,1,1]",0,0,0,0,1,0,1,,,0,FALSE,,,,,,,,,,,,,,,,,,,,,,,,,,,,,,,,
,613b7bdc3a329ab20c067d1a,627c6f1ff7723f13650e4b66,2022-05-11_21h22.01.632,classification_task,2021.2.3,Win32,59.97720866,627c6715c52fd12f31907bcf,,,,,,,,,,,,,,,,,,,,,,,a,1,"[""0.230"",""0.506"",""0.666"",""0.340""]","[1,1,1,0]",0,1,1,1,1,0,1,,,0,FALSE,3.6023,,,,,,,,,,,,,,,,,,,,,,,,,,,,,,,
,613b7bdc3a329ab20c067d1a,627c6f1ff7723f13650e4b66,2022-05-11_21h22.01.632,classification_task,2021.2.3,Win32,59.97720866,627c6715c52fd12f31907bcf,,,,,,,,,,,,,,,,,,,,,,,a,0,"[""0.312"",""0.277"",""0.605"",""0.821""]","[0,1,1,1]",0,2,2,2,1,1,0,,,0,FALSE,5.9181,,,,,,,,,,,,,,,,,,,,,,,,,,,,,,,
,613b7bdc3a329ab20c067d1a,627c6f1ff7723f13650e4b66,2022-05-11_21h22.01.632,classification_task,2021.2.3,Win32,59.97720866,627c6715c52fd12f31907bcf,,,,,,,,,,,,,,,,,,,,,,,l,1,"[""0.150"",""0.051"",""0.460"",""0.741""]","[1,0,1,1]",0,3,3,3,1,1,1,,,0,FALSE,8.0447,,,,,,,,,,,,,,,,,,,,,,,,,,,,,,,
,613b7bdc3a329ab20c067d1a,627c6f1ff7723f13650e4b66,2022-05-11_21h22.01.632,classification_task,2021.2.3,Win32,59.97720866,627c6715c52fd12f31907bcf,,,,,,,,,,,,,,,,,,,,,,,l,0,"[""0.345"",""0.545"",""0.912"",""0.954""]","[0,1,1,1]",0,4,4,4,1,0,0,,,0,FALSE,6.1732,,,,,,,,,,,,,,,,,,,,,,,,,,,,,,,
,613b7bdc3a329ab20c067d1a,627c6f1ff7723f13650e4b66,2022-05-11_21h22.01.632,classification_task,2021.2.3,Win32,59.97720866,627c6715c52fd12f31907bcf,,,,,,,,,,,,,,,,,,,,,,,l,1,"[""0.100"",""0.031"",""0.605"",""0.821""]","[1,0,1,1]",0,5,5,5,1,1,0,,,0,FALSE,3.9415,,,,,,,,,,,,,,,,,,,,,,,,,,,,,,,
,613b7bdc3a329ab20c067d1a,627c6f1ff7723f13650e4b66,2022-05-11_21h22.01.632,classification_task,2021.2.3,Win32,59.97720866,627c6715c52fd12f31907bcf,,,,,,,,,,,,,,,,,,,,,,,l,0,"[""0.196"",""0.040"",""0.912"",""0.954""]","[1,0,1,1]",0,6,6,6,1,0,0,,,0,FALSE,1.774,,,,,,,,,,,,,,,,,,,,,,,,,,,,,,,
,613b7bdc3a329ab20c067d1a,627c6f1ff7723f13650e4b66,2022-05-11_21h22.01.632,classification_task,2021.2.3,Win32,59.97720866,627c6715c52fd12f31907bcf,,,,,,,,,,,,,,,,,,,,,,,a,1,"[""0.230"",""0.506"",""0.323"",""0.862""]","[1,1,0,1]",0,7,7,7,1,0,1,,,0,FALSE,2.4026,,,,,,,,,,,,,,,,,,,,,,,,,,,,,,,
,613b7bdc3a329ab20c067d1a,627c6f1ff7723f13650e4b66,2022-05-11_21h22.01.632,classification_task,2021.2.3,Win32,59.97720866,627c6715c52fd12f31907bcf,,,,,,,,,,,,,,,,,,,,,,,a,1,"[""0.196"",""0.545"",""0.912"",""0.325""]","[1,1,1,0]",0,8,8,8,1,0,0,,,0,FALSE,2.4019,,,,,,,,,,,,,,,,,,,,,,,,,,,,,,,
,613b7bdc3a329ab20c067d1a,627c6f1ff7723f13650e4b66,2022-05-11_21h22.01.632,classification_task,2021.2.3,Win32,59.97720866,627c6715c52fd12f31907bcf,,,,,,,,,,,,,,,,,,,,,,,l,1,"[""0.150"",""0.406"",""0.777"",""0.741""]","[1,1,0,1]",0,9,9,9,1,1,1,,,0,FALSE,2.4626,,,,,,,,,,,,,,,,,,,,,,,,,,,,,,,
,613b7bdc3a329ab20c067d1a,627c6f1ff7723f13650e4b66,2022-05-11_21h22.01.632,classification_task,2021.2.3,Win32,59.97720866,627c6715c52fd12f31907bcf,,,,,,,,,,,,,,,,,,,,,,,a,1,"[""0.196"",""0.545"",""0.312"",""0.954""]","[1,1,0,1]",0,10,10,10,1,0,0,,,0,FALSE,2.6835,,,,,,,,,,,,,,,,,,,,,,,,,,,,,,,
,613b7bdc3a329ab20c067d1a,627c6f1ff7723f13650e4b66,2022-05-11_21h22.01.632,classification_task,2021.2.3,Win32,59.97720866,627c6715c52fd12f31907bcf,,,,,,,,,,,,,,,,,,,,,,,l,1,"[""0.150"",""0.406"",""0.460"",""0.312""]","[1,1,1,0]",0,11,11,11,1,1,1,,,0,FALSE,2.285,,,,,,,,,,,,,,,,,,,,,,,,,,,,,,,
,613b7bdc3a329ab20c067d1a,627c6f1ff7723f13650e4b66,2022-05-11_21h22.01.632,classification_task,2021.2.3,Win32,59.97720866,627c6715c52fd12f31907bcf,,,,,,,,,,,,,,,,,,,,,,,a,1,"[""0.230"",""0.323"",""0.666"",""0.862""]","[1,0,1,1]",0,12,12,12,1,0,1,,,0,FALSE,1.6332,,,,,,,,,,,,,,,,,,,,,,,,,,,,,,,
,613b7bdc3a329ab20c067d1a,627c6f1ff7723f13650e4b66,2022-05-11_21h22.01.632,classification_task,2021.2.3,Win32,59.97720866,627c6715c52fd12f31907bcf,,,,,,,,,,,,,,,,,,,,,,,l,1,"[""0.100"",""0.277"",""0.605"",""0.324""]","[1,1,1,0]",0,13,13,13,1,1,0,,,0,FALSE,3.5193,,,,,,,,,,,,,,,,,,,,,,,,,,,,,,,
,613b7bdc3a329ab20c067d1a,627c6f1ff7723f13650e4b66,2022-05-11_21h22.01.632,classification_task,2021.2.3,Win32,59.97720866,627c6715c52fd12f31907bcf,,,,,,,,,,,,,,,,,,,,,,,l,1,"[""0.100"",""0.277"",""0.340"",""0.821""]","[1,1,0,1]",0,14,14,14,1,1,0,,,0,FALSE,1.6235,,,,,,,,,,,,,,,,,,,,,,,,,,,,,,,
,613b7bdc3a329ab20c067d1a,627c6f1ff7723f13650e4b66,2022-05-11_21h22.01.632,classification_task,2021.2.3,Win32,59.97720866,627c6715c52fd12f31907bcf,,,,,,,,,,,,,,,,,,,,,,,l,1,"[""0.783"",""0.406"",""0.460"",""0.741""]","[0,1,1,1]",0,15,15,15,1,1,1,,,0,FALSE,3.7606,,,,,,,,,,,,,,,,,,,,,,,,,,,,,,,
,613b7bdc3a329ab20c067d1a,627c6f1ff7723f13650e4b66,2022-05-11_21h22.01.632,classification_task,2021.2.3,Win32,59.97720866,627c6715c52fd12f31907bcf,,,,,,,,,,,,,,,,,,,,,,,l,1,"[""0.100"",""0.323"",""0.605"",""0.821""]","[1,0,1,1]",0,16,16,16,1,1,0,,,0,FALSE,6.2368,,,,,,,,,,,,,,,,,,,,,,,,,,,,,,,
,613b7bdc3a329ab20c067d1a,627c6f1ff7723f13650e4b66,2022-05-11_21h22.01.632,classification_task,2021.2.3,Win32,59.97720866,627c6715c52fd12f31907bcf,,,,,,,,,,,,,,,,,,,,,,,l,1,"[""0.100"",""0.277"",""0.605"",""0.705""]","[1,1,1,0]",0,17,17,17,1,1,0,,,0,FALSE,2.7558,,,,,,,,,,,,,,,,,,,,,,,,,,,,,,,
,613b7bdc3a329ab20c067d1a,627c6f1ff7723f13650e4b66,2022-05-11_21h22.01.632,classification_task,2021.2.3,Win32,59.97720866,627c6715c52fd12f31907bcf,,,,,,,,,,,,,,,,,,,,,,,l,0,"[""0.196"",""0.051"",""0.912"",""0.954""]","[1,0,1,1]",0,18,18,18,1,0,0,,,0,FALSE,3.4593,,,,,,,,,,,,,,,,,,,,,,,,,,,,,,,
,613b7bdc3a329ab20c067d1a,627c6f1ff7723f13650e4b66,2022-05-11_21h22.01.632,classification_task,2021.2.3,Win32,59.97720866,627c6715c52fd12f31907bcf,,,,,,,,,,,,,,,,,,,,,,,l,1,"[""0.150"",""0.406"",""0.312"",""0.741""]","[1,1,0,1]",0,19,19,19,1,1,1,,,0,FALSE,3.696,,,,,,,,,,,,,,,,,,,,,,,,,,,,,,,
,613b7bdc3a329ab20c067d1a,627c6f1ff7723f13650e4b66,2022-05-11_21h22.01.632,classification_task,2021.2.3,Win32,59.97720866,627c6715c52fd12f31907bcf,,,,,,,,,,,,,,,,,,,,,,,l,0,"[""0.230"",""0.506"",""0.040"",""0.862""]","[1,1,0,1]",0,20,20,20,1,0,1,,,0,FALSE,3.0503,,,,,,,,,,,,,,,,,,,,,,,,,,,,,,,
,613b7bdc3a329ab20c067d1a,627c6f1ff7723f13650e4b66,2022-05-11_21h22.01.632,classification_task,2021.2.3,Win32,59.97720866,627c6715c52fd12f31907bcf,,,,,,,,,,,,,,,,,,,,,,,a,1,"[""0.230"",""0.506"",""0.666"",""0.347""]","[1,1,1,0]",0,21,21,21,1,0,1,,,0,FALSE,2.4284,,,,,,,,,,,,,,,,,,,,,,,,,,,,,,,
,613b7bdc3a329ab20c067d1a,627c6f1ff7723f13650e4b66,2022-05-11_21h22.01.632,classification_task,2021.2.3,Win32,59.97720866,627c6715c52fd12f31907bcf,,,,,,,,,,,,,,,,,,,,,,,a,1,"[""0.051"",""0.506"",""0.666"",""0.862""]","[0,1,1,1]",0,22,22,22,1,0,1,,,0,FALSE,2.8276,,,,,,,,,,,,,,,,,,,,,,,,,,,,,,,
,613b7bdc3a329ab20c067d1a,627c6f1ff7723f13650e4b66,2022-05-11_21h22.01.632,classification_task,2021.2.3,Win32,59.97720866,627c6715c52fd12f31907bcf,,,,,,,,,,,,,,,,,,,,,,,a,1,"[""0.196"",""0.545"",""0.912"",""0.783""]","[1,1,1,0]",0,23,23,23,1,0,0,,,0,FALSE,1.7535,,,,,,,,,,,,,,,,,,,,,,,,,,,,,,,
,613b7bdc3a329ab20c067d1a,627c6f1ff7723f13650e4b66,2022-05-11_21h22.01.632,classification_task,2021.2.3,Win32,59.97720866,627c6715c52fd12f31907bcf,,,,,,,,,,,,,,,,,,,,,,,l,1,"[""0.150"",""0.406"",""0.460"",""0.323""]","[1,1,1,0]",0,24,24,24,1,1,1,,,0,FALSE,2.3465,,,,,,,,,,,,,,,,,,,,,,,,,,,,,,,
,613b7bdc3a329ab20c067d1a,627c6f1ff7723f13650e4b66,2022-05-11_21h22.01.632,classification_task,2021.2.3,Win32,59.97720866,627c6715c52fd12f31907bcf,,,,,,,,,,,,,,,,,,,,,,,a,0,"[""0.783"",""0.406"",""0.460"",""0.741""]","[0,1,1,1]",0,25,25,25,1,1,1,,,0,FALSE,3.977,,,,,,,,,,,,,,,,,,,,,,,,,,,,,,,
,613b7bdc3a329ab20c067d1a,627c6f1ff7723f13650e4b66,2022-05-11_21h22.01.632,classification_task,2021.2.3,Win32,59.97720866,627c6715c52fd12f31907bcf,,,,,,,,,,,,,,,,,,,,,,,l,1,"[""0.335"",""0.277"",""0.605"",""0.821""]","[0,1,1,1]",0,26,26,26,1,1,0,,,0,FALSE,6.5119,,,,,,,,,,,,,,,,,,,,,,,,,,,,,,,
,613b7bdc3a329ab20c067d1a,627c6f1ff7723f13650e4b66,2022-05-11_21h22.01.632,classification_task,2021.2.3,Win32,59.97720866,627c6715c52fd12f31907bcf,,,,,,,,,,,,,,,,,,,,,,,l,1,"[""0.100"",""0.277"",""0.785"",""0.821""]","[1,1,0,1]",0,27,27,27,1,1,0,,,0,FALSE,5.2786,,,,,,,,,,,,,,,,,,,,,,,,,,,,,,,
,613b7bdc3a329ab20c067d1a,627c6f1ff7723f13650e4b66,2022-05-11_21h22.01.632,classification_task,2021.2.3,Win32,59.97720866,627c6715c52fd12f31907bcf,,,,,,,,,,,,,,,,,,,,,,,a,1,"[""0.230"",""0.335"",""0.666"",""0.862""]","[1,0,1,1]",0,28,28,28,1,0,1,,,0,FALSE,1.9213,,,,,,,,,,,,,,,,,,,,,,,,,,,,,,,
,613b7bdc3a329ab20c067d1a,627c6f1ff7723f13650e4b66,2022-05-11_21h22.01.632,classification_task,2021.2.3,Win32,59.97720866,627c6715c52fd12f31907bcf,,,,,,,,,,,,,,,,,,,,,,,a,1,"[""0.196"",""0.545"",""0.051"",""0.954""]","[1,1,0,1]",0,29,29,29,1,0,0,,,0,FALSE,5.7757,,,,,,,,,,,,,,,,,,,,,,,,,,,,,,,
,613b7bdc3a329ab20c067d1a,627c6f1ff7723f13650e4b66,2022-05-11_21h22.01.632,classification_task,2021.2.3,Win32,59.97720866,627c6715c52fd12f31907bcf,,,,,,,,,,,,,,,,,,,,,,,l,0,"[""0.051"",""0.545"",""0.912"",""0.954""]","[0,1,1,1]",0,30,30,30,1,0,0,,,0,FALSE,2.995,,,,,,,,,,,,,,,,,,,,,,,,,,,,,,,
,613b7bdc3a329ab20c067d1a,627c6f1ff7723f13650e4b66,2022-05-11_21h22.01.632,classification_task,2021.2.3,Win32,59.97720866,627c6715c52fd12f31907bcf,,,,,,,,,,,,,,,,,,,,,,,l,1,"[""0.150"",""0.325"",""0.460"",""0.741""]","[1,0,1,1]",0,31,31,31,1,1,1,,,0,FALSE,2.3701,,,,,,,,,,,,,,,,,,,,,,,,,,,,,,,
,613b7bdc3a329ab20c067d1a,627c6f1ff7723f13650e4b66,2022-05-11_21h22.01.632,classification_task,2021.2.3,Win32,59.97720866,627c6715c52fd12f31907bcf,,,,,,,,,,,,,,,,,,,,,,,a,0,"[""0.100"",""0.277"",""0.605"",""0.335""]","[1,1,1,0]",0,32,32,32,1,1,0,,,0,FALSE,4.6858,,,,,,,,,,,,,,,,,,,,,,,,,,,,,,,
,613b7bdc3a329ab20c067d1a,627c6f1ff7723f13650e4b66,2022-05-11_21h22.01.632,classification_task,2021.2.3,Win32,59.97720866,627c6715c52fd12f31907bcf,,,,,,,,,,,,,,,,,,,,,,,l,1,"[""0.324"",""0.277"",""0.605"",""0.821""]","[0,1,1,1]",0,33,33,33,1,1,0,,,0,FALSE,2.089,,,,,,,,,,,,,,,,,,,,,,,,,,,,,,,
,613b7bdc3a329ab20c067d1a,627c6f1ff7723f13650e4b66,2022-05-11_21h22.01.632,classification_task,2021.2.3,Win32,59.97720866,627c6715c52fd12f31907bcf,,,,,,,,,,,,,,,,,,,,,,,l,1,"[""0.100"",""0.324"",""0.605"",""0.821""]","[1,0,1,1]",0,34,34,34,1,1,0,,,0,FALSE,3.2007,,,,,,,,,,,,,,,,,,,,,,,,,,,,,,,
,613b7bdc3a329ab20c067d1a,627c6f1ff7723f13650e4b66,2022-05-11_21h22.01.632,classification_task,2021.2.3,Win32,59.97720866,627c6715c52fd12f31907bcf,,,,,,,,,,,,,,,,,,,,,,,a,0,"[""0.100"",""0.277"",""0.777"",""0.821""]","[1,1,0,1]",0,35,35,35,1,1,0,,,0,FALSE,0.8817,,,,,,,,,,,,,,,,,,,,,,,,,,,,,,,
,613b7bdc3a329ab20c067d1a,627c6f1ff7723f13650e4b66,2022-05-11_21h22.01.632,classification_task,2021.2.3,Win32,59.97720866,627c6715c52fd12f31907bcf,,,,,,,,,,,,,,,,,,,,,,,a,1,"[""0.323"",""0.545"",""0.912"",""0.954""]","[0,1,1,1]",0,36,36,36,1,0,0,,,0,FALSE,0.9984,,,,,,,,,,,,,,,,,,,,,,,,,,,,,,,
,613b7bdc3a329ab20c067d1a,627c6f1ff7723f13650e4b66,2022-05-11_21h22.01.632,classification_task,2021.2.3,Win32,59.97720866,627c6715c52fd12f31907bcf,,,,,,,,,,,,,,,,,,,,,,,a,1,"[""0.196"",""0.335"",""0.912"",""0.954""]","[1,0,1,1]",0,37,37,37,1,0,0,,,0,FALSE,1.8832,,,,,,,,,,,,,,,,,,,,,,,,,,,,,,,
,613b7bdc3a329ab20c067d1a,627c6f1ff7723f13650e4b66,2022-05-11_21h22.01.632,classification_task,2021.2.3,Win32,59.97720866,627c6715c52fd12f31907bcf,,,,,,,,,,,,,,,,,,,,,,,l,1,"[""0.150"",""0.406"",""0.340"",""0.741""]","[1,1,0,1]",0,38,38,38,1,1,1,,,0,FALSE,2.7586,,,,,,,,,,,,,,,,,,,,,,,,,,,,,,,
,613b7bdc3a329ab20c067d1a,627c6f1ff7723f13650e4b66,2022-05-11_21h22.01.632,classification_task,2021.2.3,Win32,59.97720866,627c6715c52fd12f31907bcf,,,,,,,,,,,,,,,,,,,,,,,l,0,"[""0.335"",""0.506"",""0.666"",""0.862""]","[0,1,1,1]",0,39,39,39,1,0,1,,,0,FALSE,1.2126,,,,,,,,,,,,,,,,,,,,,,,,,,,,,,,
,613b7bdc3a329ab20c067d1a,627c6f1ff7723f13650e4b66,2022-05-11_21h22.01.632,classification_task,2021.2.3,Win32,59.97720866,627c6715c52fd12f31907bcf,,,,,,,,,,,,,,,,,,,,,,,a,1,"[""0.230"",""0.506"",""0.335"",""0.862""]","[1,1,0,1]",0,40,40,40,1,0,1,,,0,FALSE,1.0319,,,,,,,,,,,,,,,,,,,,,,,,,,,,,,,
,613b7bdc3a329ab20c067d1a,627c6f1ff7723f13650e4b66,2022-05-11_21h22.01.632,classification_task,2021.2.3,Win32,59.97720866,627c6715c52fd12f31907bcf,,,,,,,,,,,,,,,,,,,,,,,l,1,"[""0.150"",""0.040"",""0.460"",""0.741""]","[1,0,1,1]",0,41,41,41,1,1,1,,,0,FALSE,1.4654,,,,,,,,,,,,,,,,,,,,,,,,,,,,,,,
,613b7bdc3a329ab20c067d1a,627c6f1ff7723f13650e4b66,2022-05-11_21h22.01.632,classification_task,2021.2.3,Win32,59.97720866,627c6715c52fd12f31907bcf,,,,,,,,,,,,,,,,,,,,,,,a,1,"[""0.196"",""0.545"",""0.912"",""0.705""]","[1,1,1,0]",0,42,42,42,1,0,0,,,0,FALSE,1.308,,,,,,,,,,,,,,,,,,,,,,,,,,,,,,,
,613b7bdc3a329ab20c067d1a,627c6f1ff7723f13650e4b66,2022-05-11_21h22.01.632,classification_task,2021.2.3,Win32,59.97720866,627c6715c52fd12f31907bcf,,,,,,,,,,,,,,,,,,,,,,,a,1,"[""0.196"",""0.545"",""0.323"",""0.954""]","[1,1,0,1]",0,43,43,43,1,0,0,,,0,FALSE,0.9164,,,,,,,,,,,,,,,,,,,,,,,,,,,,,,,
,613b7bdc3a329ab20c067d1a,627c6f1ff7723f13650e4b66,2022-05-11_21h22.01.632,classification_task,2021.2.3,Win32,59.97720866,627c6715c52fd12f31907bcf,,,,,,,,,,,,,,,,,,,,,,,l,0,"[""0.230"",""0.031"",""0.666"",""0.862""]","[1,0,1,1]",0,44,44,44,1,0,1,,,0,FALSE,1.084,,,,,,,,,,,,,,,,,,,,,,,,,,,,,,,
,613b7bdc3a329ab20c067d1a,627c6f1ff7723f13650e4b66,2022-05-11_21h22.01.632,classification_task,2021.2.3,Win32,59.97720866,627c6715c52fd12f31907bcf,,,,,,,,,,,,,,,,,,,,,,,l,1,"[""0.312"",""0.406"",""0.460"",""0.741""]","[0,1,1,1]",0,45,45,45,1,1,1,,,0,FALSE,0.7022,,,,,,,,,,,,,,,,,,,,,,,,,,,,,,,
,613b7bdc3a329ab20c067d1a,627c6f1ff7723f13650e4b66,2022-05-11_21h22.01.632,classification_task,2021.2.3,Win32,59.97720866,627c6715c52fd12f31907bcf,,,,,,,,,,,,,,,,,,,,,,,a,1,"[""0.230"",""0.506"",""0.666"",""0.040""]","[1,1,1,0]",0,46,46,46,1,0,1,,,0,FALSE,0.9814,,,,,,,,,,,,,,,,,,,,,,,,,,,,,,,
,613b7bdc3a329ab20c067d1a,627c6f1ff7723f13650e4b66,2022-05-11_21h22.01.632,classification_task,2021.2.3,Win32,59.97720866,627c6715c52fd12f31907bcf,,,,,,,,,,,,,,,,,,,,,,,l,1,"[""0.150"",""0.406"",""0.460"",""0.783""]","[1,1,1,0]",0,47,47,47,1,1,1,,,0,FALSE,2.0216,,,,,,,,,,,,,,,,,,,,,,,,,,,,,,,
,613b7bdc3a329ab20c067d1a,627c6f1ff7723f13650e4b66,2022-05-11_21h22.01.632,classification_task,2021.2.3,Win32,59.97720866,627c6715c52fd12f31907bcf,,,,,,,,,,,,,,,,,,,,,,,a,1,"[""0.230"",""0.506"",""0.666"",""0.345""]","[1,1,1,0]",0,48,48,48,1,0,1,,,0,FALSE,1.3531,,,,,,,,,,,,,,,,,,,,,,,,,,,,,,,
,613b7bdc3a329ab20c067d1a,627c6f1ff7723f13650e4b66,2022-05-11_21h22.01.632,classification_task,2021.2.3,Win32,59.97720866,627c6715c52fd12f31907bcf,,,,,,,,,,,,,,,,,,,,,,,a,1,"[""0.230"",""0.031"",""0.666"",""0.862""]","[1,0,1,1]",0,49,49,49,1,0,1,,,0,FALSE,0.9889,,,,,,,,,,,,,,,,,,,,,,,,,,,,,,,
,613b7bdc3a329ab20c067d1a,627c6f1ff7723f13650e4b66,2022-05-11_21h22.01.632,classification_task,2021.2.3,Win32,59.97720866,627c6715c52fd12f31907bcf,,,,,,,,,,,,,,,,,,,,,,,a,1,"[""0.196"",""0.340"",""0.912"",""0.954""]","[1,0,1,1]",0,50,50,50,1,0,0,,,0,FALSE,1.1338,,,,,,,,,,,,,,,,,,,,,,,,,,,,,,,
,613b7bdc3a329ab20c067d1a,627c6f1ff7723f13650e4b66,2022-05-11_21h22.01.632,classification_task,2021.2.3,Win32,59.97720866,627c6715c52fd12f31907bcf,,,,,,,,,,,,,,,,,,,,,,,a,1,"[""0.345"",""0.545"",""0.912"",""0.954""]","[0,1,1,1]",0,51,51,51,1,0,0,,,0,FALSE,0.7337,,,,,,,,,,,,,,,,,,,,,,,,,,,,,,,
,613b7bdc3a329ab20c067d1a,627c6f1ff7723f13650e4b66,2022-05-11_21h22.01.632,classification_task,2021.2.3,Win32,59.97720866,627c6715c52fd12f31907bcf,,,,,,,,,,,,,,,,,,,,,,,l,1,"[""0.150"",""0.406"",""0.460"",""0.335""]","[1,1,1,0]",0,52,52,52,1,1,1,,,0,FALSE,0.8836,,,,,,,,,,,,,,,,,,,,,,,,,,,,,,,
,613b7bdc3a329ab20c067d1a,627c6f1ff7723f13650e4b66,2022-05-11_21h22.01.632,classification_task,2021.2.3,Win32,59.97720866,627c6715c52fd12f31907bcf,,,,,,,,,,,,,,,,,,,,,,,a,1,"[""0.196"",""0.545"",""0.912"",""0.323""]","[1,1,1,0]",0,53,53,53,1,0,0,,,0,FALSE,0.7032,,,,,,,,,,,,,,,,,,,,,,,,,,,,,,,
,613b7bdc3a329ab20c067d1a,627c6f1ff7723f13650e4b66,2022-05-11_21h22.01.632,classification_task,2021.2.3,Win32,59.97720866,627c6715c52fd12f31907bcf,,,,,,,,,,,,,,,,,,,,,,,l,1,"[""0.150"",""0.777"",""0.460"",""0.741""]","[1,0,1,1]",0,54,54,54,1,1,1,,,0,FALSE,0.9565,,,,,,,,,,,,,,,,,,,,,,,,,,,,,,,
,613b7bdc3a329ab20c067d1a,627c6f1ff7723f13650e4b66,2022-05-11_21h22.01.632,classification_task,2021.2.3,Win32,59.97720866,627c6715c52fd12f31907bcf,,,,,,,,,,,,,,,,,,,,,,,l,1,"[""0.100"",""0.277"",""0.605"",""0.705""]","[1,1,1,0]",0,55,55,55,1,1,0,,,0,FALSE,1.2326,,,,,,,,,,,,,,,,,,,,,,,,,,,,,,,
,613b7bdc3a329ab20c067d1a,627c6f1ff7723f13650e4b66,2022-05-11_21h22.01.632,classification_task,2021.2.3,Win32,59.97720866,627c6715c52fd12f31907bcf,,,,,,,,,,,,,,,,,,,,,,,l,1,"[""0.340"",""0.406"",""0.460"",""0.741""]","[0,1,1,1]",0,56,56,56,1,1,1,,,0,FALSE,1.1055,,,,,,,,,,,,,,,,,,,,,,,,,,,,,,,
,613b7bdc3a329ab20c067d1a,627c6f1ff7723f13650e4b66,2022-05-11_21h22.01.632,classification_task,2021.2.3,Win32,59.97720866,627c6715c52fd12f31907bcf,,,,,,,,,,,,,,,,,,,,,,,l,0,"[""0.785"",""0.506"",""0.666"",""0.862""]","[0,1,1,1]",0,57,57,57,1,0,1,,,0,FALSE,0.9999,,,,,,,,,,,,,,,,,,,,,,,,,,,,,,,
,613b7bdc3a329ab20c067d1a,627c6f1ff7723f13650e4b66,2022-05-11_21h22.01.632,classification_task,2021.2.3,Win32,59.97720866,627c6715c52fd12f31907bcf,,,,,,,,,,,,,,,,,,,,,,,a,1,"[""0.230"",""0.506"",""0.325"",""0.862""]","[1,1,0,1]",0,58,58,58,1,0,1,,,0,FALSE,1.0993,,,,,,,,,,,,,,,,,,,,,,,,,,,,,,,
,613b7bdc3a329ab20c067d1a,627c6f1ff7723f13650e4b66,2022-05-11_21h22.01.632,classification_task,2021.2.3,Win32,59.97720866,627c6715c52fd12f31907bcf,,,,,,,,,,,,,,,,,,,,,,,l,1,"[""0.150"",""0.406"",""0.345"",""0.741""]","[1,1,0,1]",0,59,59,59,1,1,1,,,0,FALSE,1.221,,,,,,,,,,,,,,,,,,,,,,,,,,,,,,,
,613b7bdc3a329ab20c067d1a,627c6f1ff7723f13650e4b66,2022-05-11_21h22.01.632,classification_task,2021.2.3,Win32,59.97720866,627c6715c52fd12f31907bcf,,,,,,,,,,,,,,,,,,,,,,,l,1,"[""0.100"",""0.277"",""0.040"",""0.821""]","[1,1,0,1]",0,60,60,60,1,1,0,,,0,FALSE,1.3039,,,,,,,,,,,,,,,,,,,,,,,,,,,,,,,
,613b7bdc3a329ab20c067d1a,627c6f1ff7723f13650e4b66,2022-05-11_21h22.01.632,classification_task,2021.2.3,Win32,59.97720866,627c6715c52fd12f31907bcf,,,,,,,,,,,,,,,,,,,,,,,a,0,"[""0.100"",""0.785"",""0.605"",""0.821""]","[1,0,1,1]",0,61,61,61,1,1,0,,,0,FALSE,0.6654,,,,,,,,,,,,,,,,,,,,,,,,,,,,,,,
,613b7bdc3a329ab20c067d1a,627c6f1ff7723f13650e4b66,2022-05-11_21h22.01.632,classification_task,2021.2.3,Win32,59.97720866,627c6715c52fd12f31907bcf,,,,,,,,,,,,,,,,,,,,,,,a,1,"[""0.196"",""0.545"",""0.785"",""0.954""]","[1,1,0,1]",0,62,62,62,1,0,0,,,0,FALSE,0.5025,,,,,,,,,,,,,,,,,,,,,,,,,,,,,,,
,613b7bdc3a329ab20c067d1a,627c6f1ff7723f13650e4b66,2022-05-11_21h22.01.632,classification_task,2021.2.3,Win32,59.97720866,627c6715c52fd12f31907bcf,,,,,,,,,,,,,,,,,,,,,,,a,0,"[""0.340"",""0.277"",""0.605"",""0.821""]","[0,1,1,1]",0,63,63,63,1,1,0,,,0,FALSE,0.6012,,,,,,,,,,,,,,,,,,,,,,,,,,,,,,,
,613b7bdc3a329ab20c067d1a,627c6f1ff7723f13650e4b66,2022-05-11_21h22.01.632,classification_task,2021.2.3,Win32,59.97720866,627c6715c52fd12f31907bcf,,,,,,,,,,,,,,,,,,,,,,,,,,,,,,,,,,,,,,,0, ,,0,1.399176955,509.3328,0,0,0,0,1,2,1,,,,,,,,,,,,,,,,,,
,613b7bdc3a329ab20c067d1a,627c6f1ff7723f13650e4b66,2022-05-11_21h22.01.632,classification_task,2021.2.3,Win32,59.97720866,627c6715c52fd12f31907bcf,,,,,,,,,,,,,,,,,,,,,,,,,,,,,,,,,,,,,,,1,  ,,0,6.494219087,500.8728,0,0,0,0,1,2,1,,,,,,,,,,,,,,,,,,
,613b7bdc3a329ab20c067d1a,627c6f1ff7723f13650e4b66,2022-05-11_21h22.01.632,classification_task,2021.2.3,Win32,59.97720866,627c6715c52fd12f31907bcf,,,,,,,,,,,,,,,,,,,,,,,,,,,,,,,,,,,,,,,2,  ,,0,0,504.9583,0,0,0,0,1,2,1,,,,,,,,,,,,,,,,,,
,613b7bdc3a329ab20c067d1a,627c6f1ff7723f13650e4b66,2022-05-11_21h22.01.632,classification_task,2021.2.3,Win32,59.97720866,627c6715c52fd12f31907bcf,,,,,,,,,,,,,,,,,,,,,,,,,,,,,,,,,,,,,,,,,,,,,0,0,0,0,1,,1,,,,,,,,,,,,,,,,,,
,613b7bdc3a329ab20c067d1a,627c6f1ff7723f13650e4b66,2022-05-11_21h22.01.632,classification_task,2021.2.3,Win32,59.97720866,627c6715c52fd12f31907bcf,,,,,,,,,,,,,,,,,,,,,space,58.8093,l,0,"[""0.230"",""0.345"",""0.666"",""0.862""]","[1,0,1,1]",0,0,0,0,1,0,1,,,0,FALSE,3.8777,,,,,,,,,,,,,,,,,,,,,,,,,,,,,,,
,613b7bdc3a329ab20c067d1a,627c6f1ff7723f13650e4b66,2022-05-11_21h22.01.632,classification_task,2021.2.3,Win32,59.97720866,627c6715c52fd12f31907bcf,,,,,,,,,,,,,,,,,,,,,,,l,0,"[""0.230"",""0.506"",""0.783"",""0.862""]","[1,1,0,1]",0,1,1,1,1,0,1,,,0,FALSE,2.2846,,,,,,,,,,,,,,,,,,,,,,,,,,,,,,,
,613b7bdc3a329ab20c067d1a,627c6f1ff7723f13650e4b66,2022-05-11_21h22.01.632,classification_task,2021.2.3,Win32,59.97720866,627c6715c52fd12f31907bcf,,,,,,,,,,,,,,,,,,,,,,,l,1,"[""0.100"",""0.340"",""0.605"",""0.821""]","[1,0,1,1]",0,2,2,2,1,1,0,,,0,FALSE,3.7748,,,,,,,,,,,,,,,,,,,,,,,,,,,,,,,
,613b7bdc3a329ab20c067d1a,627c6f1ff7723f13650e4b66,2022-05-11_21h22.01.632,classification_task,2021.2.3,Win32,59.97720866,627c6715c52fd12f31907bcf,,,,,,,,,,,,,,,,,,,,,,,a,1,"[""0.196"",""0.545"",""0.323"",""0.954""]","[1,1,0,1]",0,3,3,3,1,0,0,,,0,FALSE,1.1702,,,,,,,,,,,,,,,,,,,,,,,,,,,,,,,
,613b7bdc3a329ab20c067d1a,627c6f1ff7723f13650e4b66,2022-05-11_21h22.01.632,classification_task,2021.2.3,Win32,59.97720866,627c6715c52fd12f31907bcf,,,,,,,,,,,,,,,,,,,,,,,a,1,"[""0.196"",""0.545"",""0.912"",""0.345""]","[1,1,1,0]",0,4,4,4,1,0,0,,,0,FALSE,0.7058,,,,,,,,,,,,,,,,,,,,,,,,,,,,,,,
,613b7bdc3a329ab20c067d1a,627c6f1ff7723f13650e4b66,2022-05-11_21h22.01.632,classification_task,2021.2.3,Win32,59.97720866,627c6715c52fd12f31907bcf,,,,,,,,,,,,,,,,,,,,,,,l,1,"[""0.100"",""0.277"",""0.335"",""0.821""]","[1,1,0,1]",0,5,5,5,1,1,0,,,0,FALSE,0.566,,,,,,,,,,,,,,,,,,,,,,,,,,,,,,,
,613b7bdc3a329ab20c067d1a,627c6f1ff7723f13650e4b66,2022-05-11_21h22.01.632,classification_task,2021.2.3,Win32,59.97720866,627c6715c52fd12f31907bcf,,,,,,,,,,,,,,,,,,,,,,,a,1,"[""0.705"",""0.506"",""0.666"",""0.862""]","[0,1,1,1]",0,6,6,6,1,0,1,,,0,FALSE,1.5303,,,,,,,,,,,,,,,,,,,,,,,,,,,,,,,
,613b7bdc3a329ab20c067d1a,627c6f1ff7723f13650e4b66,2022-05-11_21h22.01.632,classification_task,2021.2.3,Win32,59.97720866,627c6715c52fd12f31907bcf,,,,,,,,,,,,,,,,,,,,,,,l,0,"[""0.230"",""0.506"",""0.666"",""0.040""]","[1,1,1,0]",0,7,7,7,1,0,1,,,0,FALSE,1.3038,,,,,,,,,,,,,,,,,,,,,,,,,,,,,,,
,613b7bdc3a329ab20c067d1a,627c6f1ff7723f13650e4b66,2022-05-11_21h22.01.632,classification_task,2021.2.3,Win32,59.97720866,627c6715c52fd12f31907bcf,,,,,,,,,,,,,,,,,,,,,,,l,1,"[""0.100"",""0.277"",""0.605"",""0.051""]","[1,1,1,0]",0,8,8,8,1,1,0,,,0,FALSE,0.9822,,,,,,,,,,,,,,,,,,,,,,,,,,,,,,,
,613b7bdc3a329ab20c067d1a,627c6f1ff7723f13650e4b66,2022-05-11_21h22.01.632,classification_task,2021.2.3,Win32,59.97720866,627c6715c52fd12f31907bcf,,,,,,,,,,,,,,,,,,,,,,,a,0,"[""0.150"",""0.324"",""0.460"",""0.741""]","[1,0,1,1]",0,9,9,9,1,1,1,,,0,FALSE,1.4607,,,,,,,,,,,,,,,,,,,,,,,,,,,,,,,
,613b7bdc3a329ab20c067d1a,627c6f1ff7723f13650e4b66,2022-05-11_21h22.01.632,classification_task,2021.2.3,Win32,59.97720866,627c6715c52fd12f31907bcf,,,,,,,,,,,,,,,,,,,,,,,l,1,"[""0.051"",""0.277"",""0.605"",""0.821""]","[0,1,1,1]",0,10,10,10,1,1,0,,,0,FALSE,0.9609,,,,,,,,,,,,,,,,,,,,,,,,,,,,,,,
,613b7bdc3a329ab20c067d1a,627c6f1ff7723f13650e4b66,2022-05-11_21h22.01.632,classification_task,2021.2.3,Win32,59.97720866,627c6715c52fd12f31907bcf,,,,,,,,,,,,,,,,,,,,,,,a,1,"[""0.340"",""0.545"",""0.912"",""0.954""]","[0,1,1,1]",0,11,11,11,1,0,0,,,0,FALSE,0.7349,,,,,,,,,,,,,,,,,,,,,,,,,,,,,,,
,613b7bdc3a329ab20c067d1a,627c6f1ff7723f13650e4b66,2022-05-11_21h22.01.632,classification_task,2021.2.3,Win32,59.97720866,627c6715c52fd12f31907bcf,,,,,,,,,,,,,,,,,,,,,,,l,1,"[""0.150"",""0.406"",""0.460"",""0.347""]","[1,1,1,0]",0,12,12,12,1,1,1,,,0,FALSE,1.3109,,,,,,,,,,,,,,,,,,,,,,,,,,,,,,,
,613b7bdc3a329ab20c067d1a,627c6f1ff7723f13650e4b66,2022-05-11_21h22.01.632,classification_task,2021.2.3,Win32,59.97720866,627c6715c52fd12f31907bcf,,,,,,,,,,,,,,,,,,,,,,,a,0,"[""0.323"",""0.406"",""0.460"",""0.741""]","[0,1,1,1]",0,13,13,13,1,1,1,,,0,FALSE,1.0491,,,,,,,,,,,,,,,,,,,,,,,,,,,,,,,
,613b7bdc3a329ab20c067d1a,627c6f1ff7723f13650e4b66,2022-05-11_21h22.01.632,classification_task,2021.2.3,Win32,59.97720866,627c6715c52fd12f31907bcf,,,,,,,,,,,,,,,,,,,,,,,a,0,"[""0.150"",""0.406"",""0.347"",""0.741""]","[1,1,0,1]",0,14,14,14,1,1,1,,,0,FALSE,0.8868,,,,,,,,,,,,,,,,,,,,,,,,,,,,,,,
,613b7bdc3a329ab20c067d1a,627c6f1ff7723f13650e4b66,2022-05-11_21h22.01.632,classification_task,2021.2.3,Win32,59.97720866,627c6715c52fd12f31907bcf,,,,,,,,,,,,,,,,,,,,,,,a,1,"[""0.196"",""0.324"",""0.912"",""0.954""]","[1,0,1,1]",0,15,15,15,1,0,0,,,0,FALSE,1.279,,,,,,,,,,,,,,,,,,,,,,,,,,,,,,,
,613b7bdc3a329ab20c067d1a,627c6f1ff7723f13650e4b66,2022-05-11_21h22.01.632,classification_task,2021.2.3,Win32,59.97720866,627c6715c52fd12f31907bcf,,,,,,,,,,,,,,,,,,,,,,,l,0,"[""0.345"",""0.506"",""0.666"",""0.862""]","[0,1,1,1]",0,16,16,16,1,0,1,,,0,FALSE,1.0231,,,,,,,,,,,,,,,,,,,,,,,,,,,,,,,
,613b7bdc3a329ab20c067d1a,627c6f1ff7723f13650e4b66,2022-05-11_21h22.01.632,classification_task,2021.2.3,Win32,59.97720866,627c6715c52fd12f31907bcf,,,,,,,,,,,,,,,,,,,,,,,l,0,"[""0.230"",""0.506"",""0.666"",""0.347""]","[1,1,1,0]",0,17,17,17,1,0,1,,,0,FALSE,0.7485,,,,,,,,,,,,,,,,,,,,,,,,,,,,,,,
,613b7bdc3a329ab20c067d1a,627c6f1ff7723f13650e4b66,2022-05-11_21h22.01.632,classification_task,2021.2.3,Win32,59.97720866,627c6715c52fd12f31907bcf,,,,,,,,,,,,,,,,,,,,,,,a,0,"[""0.340"",""0.406"",""0.460"",""0.741""]","[0,1,1,1]",0,18,18,18,1,1,1,,,0,FALSE,0.8642,,,,,,,,,,,,,,,,,,,,,,,,,,,,,,,
,613b7bdc3a329ab20c067d1a,627c6f1ff7723f13650e4b66,2022-05-11_21h22.01.632,classification_task,2021.2.3,Win32,59.97720866,627c6715c52fd12f31907bcf,,,,,,,,,,,,,,,,,,,,,,,l,1,"[""0.150"",""0.785"",""0.460"",""0.741""]","[1,0,1,1]",0,19,19,19,1,1,1,,,0,FALSE,0.7724,,,,,,,,,,,,,,,,,,,,,,,,,,,,,,,
,613b7bdc3a329ab20c067d1a,627c6f1ff7723f13650e4b66,2022-05-11_21h22.01.632,classification_task,2021.2.3,Win32,59.97720866,627c6715c52fd12f31907bcf,,,,,,,,,,,,,,,,,,,,,,,l,1,"[""0.150"",""0.406"",""0.460"",""0.783""]","[1,1,1,0]",0,20,20,20,1,1,1,,,0,FALSE,0.9722,,,,,,,,,,,,,,,,,,,,,,,,,,,,,,,
,613b7bdc3a329ab20c067d1a,627c6f1ff7723f13650e4b66,2022-05-11_21h22.01.632,classification_task,2021.2.3,Win32,59.97720866,627c6715c52fd12f31907bcf,,,,,,,,,,,,,,,,,,,,,,,a,1,"[""0.196"",""0.545"",""0.051"",""0.954""]","[1,1,0,1]",0,21,21,21,1,0,0,,,0,FALSE,1.032,,,,,,,,,,,,,,,,,,,,,,,,,,,,,,,
,613b7bdc3a329ab20c067d1a,627c6f1ff7723f13650e4b66,2022-05-11_21h22.01.632,classification_task,2021.2.3,Win32,59.97720866,627c6715c52fd12f31907bcf,,,,,,,,,,,,,,,,,,,,,,,l,1,"[""0.100"",""0.323"",""0.605"",""0.821""]","[1,0,1,1]",0,22,22,22,1,1,0,,,0,FALSE,0.5141,,,,,,,,,,,,,,,,,,,,,,,,,,,,,,,
,613b7bdc3a329ab20c067d1a,627c6f1ff7723f13650e4b66,2022-05-11_21h22.01.632,classification_task,2021.2.3,Win32,59.97720866,627c6715c52fd12f31907bcf,,,,,,,,,,,,,,,,,,,,,,,l,0,"[""0.230"",""0.506"",""0.324"",""0.862""]","[1,1,0,1]",0,23,23,23,1,0,1,,,0,FALSE,3.685,,,,,,,,,,,,,,,,,,,,,,,,,,,,,,,
,613b7bdc3a329ab20c067d1a,627c6f1ff7723f13650e4b66,2022-05-11_21h22.01.632,classification_task,2021.2.3,Win32,59.97720866,627c6715c52fd12f31907bcf,,,,,,,,,,,,,,,,,,,,,,,l,1,"[""0.100"",""0.277"",""0.605"",""0.705""]","[1,1,1,0]",0,24,24,24,1,1,0,,,0,FALSE,2.2363,,,,,,,,,,,,,,,,,,,,,,,,,,,,,,,
,613b7bdc3a329ab20c067d1a,627c6f1ff7723f13650e4b66,2022-05-11_21h22.01.632,classification_task,2021.2.3,Win32,59.97720866,627c6715c52fd12f31907bcf,,,,,,,,,,,,,,,,,,,,,,,a,1,"[""0.230"",""0.783"",""0.666"",""0.862""]","[1,0,1,1]",0,25,25,25,1,0,1,,,0,FALSE,1.2055,,,,,,,,,,,,,,,,,,,,,,,,,,,,,,,
,613b7bdc3a329ab20c067d1a,627c6f1ff7723f13650e4b66,2022-05-11_21h22.01.632,classification_task,2021.2.3,Win32,59.97720866,627c6715c52fd12f31907bcf,,,,,,,,,,,,,,,,,,,,,,,l,1,"[""0.785"",""0.277"",""0.605"",""0.821""]","[0,1,1,1]",0,26,26,26,1,1,0,,,0,FALSE,0.8671,,,,,,,,,,,,,,,,,,,,,,,,,,,,,,,
,613b7bdc3a329ab20c067d1a,627c6f1ff7723f13650e4b66,2022-05-11_21h22.01.632,classification_task,2021.2.3,Win32,59.97720866,627c6715c52fd12f31907bcf,,,,,,,,,,,,,,,,,,,,,,,a,1,"[""0.196"",""0.545"",""0.912"",""0.777""]","[1,1,1,0]",0,27,27,27,1,0,0,,,0,FALSE,0.6422,,,,,,,,,,,,,,,,,,,,,,,,,,,,,,,
,613b7bdc3a329ab20c067d1a,627c6f1ff7723f13650e4b66,2022-05-11_21h22.01.632,classification_task,2021.2.3,Win32,59.97720866,627c6715c52fd12f31907bcf,,,,,,,,,,,,,,,,,,,,,,,a,0,"[""0.150"",""0.406"",""0.783"",""0.741""]","[1,1,0,1]",0,28,28,28,1,1,1,,,0,FALSE,1.1635,,,,,,,,,,,,,,,,,,,,,,,,,,,,,,,
,613b7bdc3a329ab20c067d1a,627c6f1ff7723f13650e4b66,2022-05-11_21h22.01.632,classification_task,2021.2.3,Win32,59.97720866,627c6715c52fd12f31907bcf,,,,,,,,,,,,,,,,,,,,,,,l,1,"[""0.100"",""0.277"",""0.335"",""0.821""]","[1,1,0,1]",0,29,29,29,1,1,0,,,0,FALSE,0.7821,,,,,,,,,,,,,,,,,,,,,,,,,,,,,,,
,613b7bdc3a329ab20c067d1a,627c6f1ff7723f13650e4b66,2022-05-11_21h22.01.632,classification_task,2021.2.3,Win32,59.97720866,627c6715c52fd12f31907bcf,,,,,,,,,,,,,,,,,,,,,,,a,1,"[""0.783"",""0.545"",""0.912"",""0.954""]","[0,1,1,1]",0,30,30,30,1,0,0,,,0,FALSE,0.6041,,,,,,,,,,,,,,,,,,,,,,,,,,,,,,,
,613b7bdc3a329ab20c067d1a,627c6f1ff7723f13650e4b66,2022-05-11_21h22.01.632,classification_task,2021.2.3,Win32,59.97720866,627c6715c52fd12f31907bcf,,,,,,,,,,,,,,,,,,,,,,,a,1,"[""0.196"",""0.323"",""0.912"",""0.954""]","[1,0,1,1]",0,31,31,31,1,0,0,,,0,FALSE,0.7666,,,,,,,,,,,,,,,,,,,,,,,,,,,,,,,
,613b7bdc3a329ab20c067d1a,627c6f1ff7723f13650e4b66,2022-05-11_21h22.01.632,classification_task,2021.2.3,Win32,59.97720866,627c6715c52fd12f31907bcf,,,,,,,,,,,,,,,,,,,,,,,l,1,"[""0.100"",""0.277"",""0.785"",""0.821""]","[1,1,0,1]",0,32,32,32,1,1,0,,,0,FALSE,0.6476,,,,,,,,,,,,,,,,,,,,,,,,,,,,,,,
,613b7bdc3a329ab20c067d1a,627c6f1ff7723f13650e4b66,2022-05-11_21h22.01.632,classification_task,2021.2.3,Win32,59.97720866,627c6715c52fd12f31907bcf,,,,,,,,,,,,,,,,,,,,,,,a,1,"[""0.196"",""0.545"",""0.912"",""0.783""]","[1,1,1,0]",0,33,33,33,1,0,0,,,0,FALSE,0.5551,,,,,,,,,,,,,,,,,,,,,,,,,,,,,,,
,613b7bdc3a329ab20c067d1a,627c6f1ff7723f13650e4b66,2022-05-11_21h22.01.632,classification_task,2021.2.3,Win32,59.97720866,627c6715c52fd12f31907bcf,,,,,,,,,,,,,,,,,,,,,,,l,0,"[""0.230"",""0.506"",""0.312"",""0.862""]","[1,1,0,1]",0,34,34,34,1,0,1,,,0,FALSE,0.9936,,,,,,,,,,,,,,,,,,,,,,,,,,,,,,,
,613b7bdc3a329ab20c067d1a,627c6f1ff7723f13650e4b66,2022-05-11_21h22.01.632,classification_task,2021.2.3,Win32,59.97720866,627c6715c52fd12f31907bcf,,,,,,,,,,,,,,,,,,,,,,,l,1,"[""0.347"",""0.406"",""0.460"",""0.741""]","[0,1,1,1]",0,35,35,35,1,1,1,,,0,FALSE,0.8489,,,,,,,,,,,,,,,,,,,,,,,,,,,,,,,
,613b7bdc3a329ab20c067d1a,627c6f1ff7723f13650e4b66,2022-05-11_21h22.01.632,classification_task,2021.2.3,Win32,59.97720866,627c6715c52fd12f31907bcf,,,,,,,,,,,,,,,,,,,,,,,a,1,"[""0.196"",""0.783"",""0.912"",""0.954""]","[1,0,1,1]",0,36,36,36,1,0,0,,,0,FALSE,0.8779,,,,,,,,,,,,,,,,,,,,,,,,,,,,,,,
,613b7bdc3a329ab20c067d1a,627c6f1ff7723f13650e4b66,2022-05-11_21h22.01.632,classification_task,2021.2.3,Win32,59.97720866,627c6715c52fd12f31907bcf,,,,,,,,,,,,,,,,,,,,,,,l,1,"[""0.100"",""0.785"",""0.605"",""0.821""]","[1,0,1,1]",0,37,37,37,1,1,0,,,0,FALSE,0.6167,,,,,,,,,,,,,,,,,,,,,,,,,,,,,,,
,613b7bdc3a329ab20c067d1a,627c6f1ff7723f13650e4b66,2022-05-11_21h22.01.632,classification_task,2021.2.3,Win32,59.97720866,627c6715c52fd12f31907bcf,,,,,,,,,,,,,,,,,,,,,,,l,1,"[""0.150"",""0.406"",""0.340"",""0.741""]","[1,1,0,1]",0,38,38,38,1,1,1,,,0,FALSE,1.9807,,,,,,,,,,,,,,,,,,,,,,,,,,,,,,,
,613b7bdc3a329ab20c067d1a,627c6f1ff7723f13650e4b66,2022-05-11_21h22.01.632,classification_task,2021.2.3,Win32,59.97720866,627c6715c52fd12f31907bcf,,,,,,,,,,,,,,,,,,,,,,,a,1,"[""0.230"",""0.777"",""0.666"",""0.862""]","[1,0,1,1]",0,39,39,39,1,0,1,,,0,FALSE,0.987,,,,,,,,,,,,,,,,,,,,,,,,,,,,,,,
,613b7bdc3a329ab20c067d1a,627c6f1ff7723f13650e4b66,2022-05-11_21h22.01.632,classification_task,2021.2.3,Win32,59.97720866,627c6715c52fd12f31907bcf,,,,,,,,,,,,,,,,,,,,,,,a,1,"[""0.196"",""0.545"",""0.031"",""0.954""]","[1,1,0,1]",0,40,40,40,1,0,0,,,0,FALSE,1.6639,,,,,,,,,,,,,,,,,,,,,,,,,,,,,,,
,613b7bdc3a329ab20c067d1a,627c6f1ff7723f13650e4b66,2022-05-11_21h22.01.632,classification_task,2021.2.3,Win32,59.97720866,627c6715c52fd12f31907bcf,,,,,,,,,,,,,,,,,,,,,,,a,1,"[""0.335"",""0.545"",""0.912"",""0.954""]","[0,1,1,1]",0,41,41,41,1,0,0,,,0,FALSE,0.5195,,,,,,,,,,,,,,,,,,,,,,,,,,,,,,,
,613b7bdc3a329ab20c067d1a,627c6f1ff7723f13650e4b66,2022-05-11_21h22.01.632,classification_task,2021.2.3,Win32,59.97720866,627c6715c52fd12f31907bcf,,,,,,,,,,,,,,,,,,,,,,,l,1,"[""0.150"",""0.340"",""0.460"",""0.741""]","[1,0,1,1]",0,42,42,42,1,1,1,,,0,FALSE,0.9115,,,,,,,,,,,,,,,,,,,,,,,,,,,,,,,
,613b7bdc3a329ab20c067d1a,627c6f1ff7723f13650e4b66,2022-05-11_21h22.01.632,classification_task,2021.2.3,Win32,59.97720866,627c6715c52fd12f31907bcf,,,,,,,,,,,,,,,,,,,,,,,l,1,"[""0.324"",""0.277"",""0.605"",""0.821""]","[0,1,1,1]",0,43,43,43,1,1,0,,,0,FALSE,0.8617,,,,,,,,,,,,,,,,,,,,,,,,,,,,,,,
,613b7bdc3a329ab20c067d1a,627c6f1ff7723f13650e4b66,2022-05-11_21h22.01.632,classification_task,2021.2.3,Win32,59.97720866,627c6715c52fd12f31907bcf,,,,,,,,,,,,,,,,,,,,,,,l,1,"[""0.100"",""0.277"",""0.605"",""0.785""]","[1,1,1,0]",0,44,44,44,1,1,0,,,0,FALSE,0.7859,,,,,,,,,,,,,,,,,,,,,,,,,,,,,,,
,613b7bdc3a329ab20c067d1a,627c6f1ff7723f13650e4b66,2022-05-11_21h22.01.632,classification_task,2021.2.3,Win32,59.97720866,627c6715c52fd12f31907bcf,,,,,,,,,,,,,,,,,,,,,,,a,1,"[""0.230"",""0.506"",""0.666"",""0.345""]","[1,1,1,0]",0,45,45,45,1,0,1,,,0,FALSE,1.0715,,,,,,,,,,,,,,,,,,,,,,,,,,,,,,,
,613b7bdc3a329ab20c067d1a,627c6f1ff7723f13650e4b66,2022-05-11_21h22.01.632,classification_task,2021.2.3,Win32,59.97720866,627c6715c52fd12f31907bcf,,,,,,,,,,,,,,,,,,,,,,,a,1,"[""0.345"",""0.506"",""0.666"",""0.862""]","[0,1,1,1]",0,46,46,46,1,0,1,,,0,FALSE,4.6545,,,,,,,,,,,,,,,,,,,,,,,,,,,,,,,
,613b7bdc3a329ab20c067d1a,627c6f1ff7723f13650e4b66,2022-05-11_21h22.01.632,classification_task,2021.2.3,Win32,59.97720866,627c6715c52fd12f31907bcf,,,,,,,,,,,,,,,,,,,,,,,a,0,"[""0.150"",""0.406"",""0.460"",""0.323""]","[1,1,1,0]",0,47,47,47,1,1,1,,,0,FALSE,1.3587,,,,,,,,,,,,,,,,,,,,,,,,,,,,,,,
,613b7bdc3a329ab20c067d1a,627c6f1ff7723f13650e4b66,2022-05-11_21h22.01.632,classification_task,2021.2.3,Win32,59.97720866,627c6715c52fd12f31907bcf,,,,,,,,,,,,,,,,,,,,,,,a,1,"[""0.196"",""0.545"",""0.031"",""0.954""]","[1,1,0,1]",0,48,48,48,1,0,0,,,0,FALSE,1.765,,,,,,,,,,,,,,,,,,,,,,,,,,,,,,,
,613b7bdc3a329ab20c067d1a,627c6f1ff7723f13650e4b66,2022-05-11_21h22.01.632,classification_task,2021.2.3,Win32,59.97720866,627c6715c52fd12f31907bcf,,,,,,,,,,,,,,,,,,,,,,,l,0,"[""0.325"",""0.506"",""0.666"",""0.862""]","[0,1,1,1]",0,49,49,49,1,0,1,,,0,FALSE,1.0234,,,,,,,,,,,,,,,,,,,,,,,,,,,,,,,
,613b7bdc3a329ab20c067d1a,627c6f1ff7723f13650e4b66,2022-05-11_21h22.01.632,classification_task,2021.2.3,Win32,59.97720866,627c6715c52fd12f31907bcf,,,,,,,,,,,,,,,,,,,,,,,a,0,"[""0.100"",""0.040"",""0.605"",""0.821""]","[1,0,1,1]",0,50,50,50,1,1,0,,,0,FALSE,1.5622,,,,,,,,,,,,,,,,,,,,,,,,,,,,,,,
,613b7bdc3a329ab20c067d1a,627c6f1ff7723f13650e4b66,2022-05-11_21h22.01.632,classification_task,2021.2.3,Win32,59.97720866,627c6715c52fd12f31907bcf,,,,,,,,,,,,,,,,,,,,,,,l,1,"[""0.100"",""0.277"",""0.777"",""0.821""]","[1,1,0,1]",0,51,51,51,1,1,0,,,0,FALSE,0.999,,,,,,,,,,,,,,,,,,,,,,,,,,,,,,,
,613b7bdc3a329ab20c067d1a,627c6f1ff7723f13650e4b66,2022-05-11_21h22.01.632,classification_task,2021.2.3,Win32,59.97720866,627c6715c52fd12f31907bcf,,,,,,,,,,,,,,,,,,,,,,,a,1,"[""0.196"",""0.040"",""0.912"",""0.954""]","[1,0,1,1]",0,52,52,52,1,0,0,,,0,FALSE,0.8649,,,,,,,,,,,,,,,,,,,,,,,,,,,,,,,
,613b7bdc3a329ab20c067d1a,627c6f1ff7723f13650e4b66,2022-05-11_21h22.01.632,classification_task,2021.2.3,Win32,59.97720866,627c6715c52fd12f31907bcf,,,,,,,,,,,,,,,,,,,,,,,l,1,"[""0.324"",""0.406"",""0.460"",""0.741""]","[0,1,1,1]",0,53,53,53,1,1,1,,,0,FALSE,1.8303,,,,,,,,,,,,,,,,,,,,,,,,,,,,,,,
,613b7bdc3a329ab20c067d1a,627c6f1ff7723f13650e4b66,2022-05-11_21h22.01.632,classification_task,2021.2.3,Win32,59.97720866,627c6715c52fd12f31907bcf,,,,,,,,,,,,,,,,,,,,,,,a,0,"[""0.150"",""0.406"",""0.460"",""0.324""]","[1,1,1,0]",0,54,54,54,1,1,1,,,0,FALSE,1.7628,,,,,,,,,,,,,,,,,,,,,,,,,,,,,,,
,613b7bdc3a329ab20c067d1a,627c6f1ff7723f13650e4b66,2022-05-11_21h22.01.632,classification_task,2021.2.3,Win32,59.97720866,627c6715c52fd12f31907bcf,,,,,,,,,,,,,,,,,,,,,,,l,0,"[""0.040"",""0.545"",""0.912"",""0.954""]","[0,1,1,1]",0,55,55,55,1,0,0,,,0,FALSE,0.961,,,,,,,,,,,,,,,,,,,,,,,,,,,,,,,
,613b7bdc3a329ab20c067d1a,627c6f1ff7723f13650e4b66,2022-05-11_21h22.01.632,classification_task,2021.2.3,Win32,59.97720866,627c6715c52fd12f31907bcf,,,,,,,,,,,,,,,,,,,,,,,a,1,"[""0.196"",""0.545"",""0.912"",""0.031""]","[1,1,1,0]",0,56,56,56,1,0,0,,,0,FALSE,0.77,,,,,,,,,,,,,,,,,,,,,,,,,,,,,,,
,613b7bdc3a329ab20c067d1a,627c6f1ff7723f13650e4b66,2022-05-11_21h22.01.632,classification_task,2021.2.3,Win32,59.97720866,627c6715c52fd12f31907bcf,,,,,,,,,,,,,,,,,,,,,,,a,0,"[""0.150"",""0.051"",""0.460"",""0.741""]","[1,0,1,1]",0,57,57,57,1,1,1,,,0,FALSE,0.7626,,,,,,,,,,,,,,,,,,,,,,,,,,,,,,,
,613b7bdc3a329ab20c067d1a,627c6f1ff7723f13650e4b66,2022-05-11_21h22.01.632,classification_task,2021.2.3,Win32,59.97720866,627c6715c52fd12f31907bcf,,,,,,,,,,,,,,,,,,,,,,,a,0,"[""0.347"",""0.277"",""0.605"",""0.821""]","[0,1,1,1]",0,58,58,58,1,1,0,,,0,FALSE,1.2627,,,,,,,,,,,,,,,,,,,,,,,,,,,,,,,
,613b7bdc3a329ab20c067d1a,627c6f1ff7723f13650e4b66,2022-05-11_21h22.01.632,classification_task,2021.2.3,Win32,59.97720866,627c6715c52fd12f31907bcf,,,,,,,,,,,,,,,,,,,,,,,l,0,"[""0.230"",""0.506"",""0.666"",""0.785""]","[1,1,1,0]",0,59,59,59,1,0,1,,,0,FALSE,0.7912,,,,,,,,,,,,,,,,,,,,,,,,,,,,,,,
,613b7bdc3a329ab20c067d1a,627c6f1ff7723f13650e4b66,2022-05-11_21h22.01.632,classification_task,2021.2.3,Win32,59.97720866,627c6715c52fd12f31907bcf,,,,,,,,,,,,,,,,,,,,,,,l,0,"[""0.230"",""0.506"",""0.323"",""0.862""]","[1,1,0,1]",0,60,60,60,1,0,1,,,0,FALSE,0.4886,,,,,,,,,,,,,,,,,,,,,,,,,,,,,,,
,613b7bdc3a329ab20c067d1a,627c6f1ff7723f13650e4b66,2022-05-11_21h22.01.632,classification_task,2021.2.3,Win32,59.97720866,627c6715c52fd12f31907bcf,,,,,,,,,,,,,,,,,,,,,,,l,0,"[""0.230"",""0.777"",""0.666"",""0.862""]","[1,0,1,1]",0,61,61,61,1,0,1,,,0,FALSE,0.5706,,,,,,,,,,,,,,,,,,,,,,,,,,,,,,,
,613b7bdc3a329ab20c067d1a,627c6f1ff7723f13650e4b66,2022-05-11_21h22.01.632,classification_task,2021.2.3,Win32,59.97720866,627c6715c52fd12f31907bcf,,,,,,,,,,,,,,,,,,,,,,,a,0,"[""0.150"",""0.406"",""0.345"",""0.741""]","[1,1,0,1]",0,62,62,62,1,1,1,,,0,FALSE,0.4526,,,,,,,,,,,,,,,,,,,,,,,,,,,,,,,
,613b7bdc3a329ab20c067d1a,627c6f1ff7723f13650e4b66,2022-05-11_21h22.01.632,classification_task,2021.2.3,Win32,59.97720866,627c6715c52fd12f31907bcf,,,,,,,,,,,,,,,,,,,,,,,l,1,"[""0.100"",""0.277"",""0.605"",""0.777""]","[1,1,1,0]",0,63,63,63,1,1,0,,,0,FALSE,0.7302,,,,,,,,,,,,,,,,,,,,,,,,,,,,,,,
,613b7bdc3a329ab20c067d1a,627c6f1ff7723f13650e4b66,2022-05-11_21h22.01.632,classification_task,2021.2.3,Win32,59.97720866,627c6715c52fd12f31907bcf,,,,,,,,,,,,,,,,,,,,,,,,,,,,,,,,,,,,,,,0, ,,0,5.9553204,209.0071,0,1,1,1,1,2,2,,,,,,,,,,,,,,,,,,
,613b7bdc3a329ab20c067d1a,627c6f1ff7723f13650e4b66,2022-05-11_21h22.01.632,classification_task,2021.2.3,Win32,59.97720866,627c6715c52fd12f31907bcf,,,,,,,,,,,,,,,,,,,,,,,,,,,,,,,,,,,,,,,1,  ,,0,9.017244758,210.8587,0,1,1,1,1,2,2,,,,,,,,,,,,,,,,,,
,613b7bdc3a329ab20c067d1a,627c6f1ff7723f13650e4b66,2022-05-11_21h22.01.632,classification_task,2021.2.3,Win32,59.97720866,627c6715c52fd12f31907bcf,,,,,,,,,,,,,,,,,,,,,,,,,,,,,,,,,,,,,,,2,  ,,0,8.649813835,220.1178,0,1,1,1,1,2,2,,,,,,,,,,,,,,,,,,
,613b7bdc3a329ab20c067d1a,627c6f1ff7723f13650e4b66,2022-05-11_21h22.01.632,classification_task,2021.2.3,Win32,59.97720866,627c6715c52fd12f31907bcf,,,,,,,,,,,,,,,,,,,,,,,,,,,,,,,,,,,,,,,,,,,,,0,1,1,1,1,,2,,,,,,,,,,,,,,,,,,
,613b7bdc3a329ab20c067d1a,627c6f1ff7723f13650e4b66,2022-05-11_21h22.01.632,classification_task,2021.2.3,Win32,59.97720866,627c6715c52fd12f31907bcf,,,,,,,,,,,,,,,,,,,,,space,32.4759,a,0,"[""0.150"",""0.406"",""0.460"",""0.040""]","[1,1,1,0]",0,0,0,0,1,1,1,,,0,FALSE,1.7293,,,,,,,,,,,,,,,,,,,,,,,,,,,,,,,
,613b7bdc3a329ab20c067d1a,627c6f1ff7723f13650e4b66,2022-05-11_21h22.01.632,classification_task,2021.2.3,Win32,59.97720866,627c6715c52fd12f31907bcf,,,,,,,,,,,,,,,,,,,,,,,a,1,"[""0.777"",""0.506"",""0.666"",""0.862""]","[0,1,1,1]",0,1,1,1,1,0,1,,,0,FALSE,1.1665,,,,,,,,,,,,,,,,,,,,,,,,,,,,,,,
,613b7bdc3a329ab20c067d1a,627c6f1ff7723f13650e4b66,2022-05-11_21h22.01.632,classification_task,2021.2.3,Win32,59.97720866,627c6715c52fd12f31907bcf,,,,,,,,,,,,,,,,,,,,,,,l,0,"[""0.230"",""0.347"",""0.666"",""0.862""]","[1,0,1,1]",0,2,2,2,1,0,1,,,0,FALSE,1.035,,,,,,,,,,,,,,,,,,,,,,,,,,,,,,,
,613b7bdc3a329ab20c067d1a,627c6f1ff7723f13650e4b66,2022-05-11_21h22.01.632,classification_task,2021.2.3,Win32,59.97720866,627c6715c52fd12f31907bcf,,,,,,,,,,,,,,,,,,,,,,,a,1,"[""0.230"",""0.506"",""0.666"",""0.347""]","[1,1,1,0]",0,3,3,3,1,0,1,,,0,FALSE,1.1016,,,,,,,,,,,,,,,,,,,,,,,,,,,,,,,
,613b7bdc3a329ab20c067d1a,627c6f1ff7723f13650e4b66,2022-05-11_21h22.01.632,classification_task,2021.2.3,Win32,59.97720866,627c6715c52fd12f31907bcf,,,,,,,,,,,,,,,,,,,,,,,l,1,"[""0.323"",""0.277"",""0.605"",""0.821""]","[0,1,1,1]",0,4,4,4,1,1,0,,,0,FALSE,1.384,,,,,,,,,,,,,,,,,,,,,,,,,,,,,,,
,613b7bdc3a329ab20c067d1a,627c6f1ff7723f13650e4b66,2022-05-11_21h22.01.632,classification_task,2021.2.3,Win32,59.97720866,627c6715c52fd12f31907bcf,,,,,,,,,,,,,,,,,,,,,,,a,1,"[""0.230"",""0.506"",""0.323"",""0.862""]","[1,1,0,1]",0,5,5,5,1,0,1,,,0,FALSE,1.583,,,,,,,,,,,,,,,,,,,,,,,,,,,,,,,
,613b7bdc3a329ab20c067d1a,627c6f1ff7723f13650e4b66,2022-05-11_21h22.01.632,classification_task,2021.2.3,Win32,59.97720866,627c6715c52fd12f31907bcf,,,,,,,,,,,,,,,,,,,,,,,,0,"[""0.196"",""0.031"",""0.912"",""0.954""]","[1,0,1,1]",0,6,6,6,1,0,0,,,0,FALSE,,,,,,,,,,,,,,,,,,,,,,,,,,,,,,,,
,613b7bdc3a329ab20c067d1a,627c6f1ff7723f13650e4b66,2022-05-11_21h22.01.632,classification_task,2021.2.3,Win32,59.97720866,627c6715c52fd12f31907bcf,,,,,,,,,,,,,,,,,,,,,,,a,0,"[""0.150"",""0.406"",""0.340"",""0.741""]","[1,1,0,1]",0,7,7,7,1,1,1,,,0,FALSE,1.235,,,,,,,,,,,,,,,,,,,,,,,,,,,,,,,
,613b7bdc3a329ab20c067d1a,627c6f1ff7723f13650e4b66,2022-05-11_21h22.01.632,classification_task,2021.2.3,Win32,59.97720866,627c6715c52fd12f31907bcf,,,,,,,,,,,,,,,,,,,,,,,l,0,"[""0.051"",""0.545"",""0.912"",""0.954""]","[0,1,1,1]",0,8,8,8,1,0,0,,,0,FALSE,0.5669,,,,,,,,,,,,,,,,,,,,,,,,,,,,,,,
,613b7bdc3a329ab20c067d1a,627c6f1ff7723f13650e4b66,2022-05-11_21h22.01.632,classification_task,2021.2.3,Win32,59.97720866,627c6715c52fd12f31907bcf,,,,,,,,,,,,,,,,,,,,,,,l,1,"[""0.100"",""0.325"",""0.605"",""0.821""]","[1,0,1,1]",0,9,9,9,1,1,0,,,0,FALSE,2.05,,,,,,,,,,,,,,,,,,,,,,,,,,,,,,,
,613b7bdc3a329ab20c067d1a,627c6f1ff7723f13650e4b66,2022-05-11_21h22.01.632,classification_task,2021.2.3,Win32,59.97720866,627c6715c52fd12f31907bcf,,,,,,,,,,,,,,,,,,,,,,,a,1,"[""0.196"",""0.545"",""0.335"",""0.954""]","[1,1,0,1]",0,10,10,10,1,0,0,,,0,FALSE,1.0506,,,,,,,,,,,,,,,,,,,,,,,,,,,,,,,
,613b7bdc3a329ab20c067d1a,627c6f1ff7723f13650e4b66,2022-05-11_21h22.01.632,classification_task,2021.2.3,Win32,59.97720866,627c6715c52fd12f31907bcf,,,,,,,,,,,,,,,,,,,,,,,a,0,"[""0.100"",""0.277"",""0.605"",""0.323""]","[1,1,1,0]",0,11,11,11,1,1,0,,,0,FALSE,1.5349,,,,,,,,,,,,,,,,,,,,,,,,,,,,,,,
,613b7bdc3a329ab20c067d1a,627c6f1ff7723f13650e4b66,2022-05-11_21h22.01.632,classification_task,2021.2.3,Win32,59.97720866,627c6715c52fd12f31907bcf,,,,,,,,,,,,,,,,,,,,,,,l,1,"[""0.150"",""0.312"",""0.460"",""0.741""]","[1,0,1,1]",0,12,12,12,1,1,1,,,0,FALSE,0.9997,,,,,,,,,,,,,,,,,,,,,,,,,,,,,,,
,613b7bdc3a329ab20c067d1a,627c6f1ff7723f13650e4b66,2022-05-11_21h22.01.632,classification_task,2021.2.3,Win32,59.97720866,627c6715c52fd12f31907bcf,,,,,,,,,,,,,,,,,,,,,,,l,1,"[""0.100"",""0.277"",""0.340"",""0.821""]","[1,1,0,1]",0,13,13,13,1,1,0,,,0,FALSE,0.7149,,,,,,,,,,,,,,,,,,,,,,,,,,,,,,,
,613b7bdc3a329ab20c067d1a,627c6f1ff7723f13650e4b66,2022-05-11_21h22.01.632,classification_task,2021.2.3,Win32,59.97720866,627c6715c52fd12f31907bcf,,,,,,,,,,,,,,,,,,,,,,,l,1,"[""0.345"",""0.406"",""0.460"",""0.741""]","[0,1,1,1]",0,14,14,14,1,1,1,,,0,FALSE,0.7354,,,,,,,,,,,,,,,,,,,,,,,,,,,,,,,
,613b7bdc3a329ab20c067d1a,627c6f1ff7723f13650e4b66,2022-05-11_21h22.01.632,classification_task,2021.2.3,Win32,59.97720866,627c6715c52fd12f31907bcf,,,,,,,,,,,,,,,,,,,,,,,a,1,"[""0.196"",""0.545"",""0.912"",""0.335""]","[1,1,1,0]",0,15,15,15,1,0,0,,,0,FALSE,0.9189,,,,,,,,,,,,,,,,,,,,,,,,,,,,,,,
,613b7bdc3a329ab20c067d1a,627c6f1ff7723f13650e4b66,2022-05-11_21h22.01.632,classification_task,2021.2.3,Win32,59.97720866,627c6715c52fd12f31907bcf,,,,,,,,,,,,,,,,,,,,,,,a,1,"[""0.347"",""0.545"",""0.912"",""0.954""]","[0,1,1,1]",0,16,16,16,1,0,0,,,0,FALSE,1.0994,,,,,,,,,,,,,,,,,,,,,,,,,,,,,,,
,613b7bdc3a329ab20c067d1a,627c6f1ff7723f13650e4b66,2022-05-11_21h22.01.632,classification_task,2021.2.3,Win32,59.97720866,627c6715c52fd12f31907bcf,,,,,,,,,,,,,,,,,,,,,,,a,1,"[""0.196"",""0.325"",""0.912"",""0.954""]","[1,0,1,1]",0,17,17,17,1,0,0,,,0,FALSE,1.7507,,,,,,,,,,,,,,,,,,,,,,,,,,,,,,,
,613b7bdc3a329ab20c067d1a,627c6f1ff7723f13650e4b66,2022-05-11_21h22.01.632,classification_task,2021.2.3,Win32,59.97720866,627c6715c52fd12f31907bcf,,,,,,,,,,,,,,,,,,,,,,,l,1,"[""0.150"",""0.347"",""0.460"",""0.741""]","[1,0,1,1]",0,18,18,18,1,1,1,,,0,FALSE,1.0009,,,,,,,,,,,,,,,,,,,,,,,,,,,,,,,
,613b7bdc3a329ab20c067d1a,627c6f1ff7723f13650e4b66,2022-05-11_21h22.01.632,classification_task,2021.2.3,Win32,59.97720866,627c6715c52fd12f31907bcf,,,,,,,,,,,,,,,,,,,,,,,a,1,"[""0.230"",""0.031"",""0.666"",""0.862""]","[1,0,1,1]",0,19,19,19,1,0,1,,,0,FALSE,1.0666,,,,,,,,,,,,,,,,,,,,,,,,,,,,,,,
,613b7bdc3a329ab20c067d1a,627c6f1ff7723f13650e4b66,2022-05-11_21h22.01.632,classification_task,2021.2.3,Win32,59.97720866,627c6715c52fd12f31907bcf,,,,,,,,,,,,,,,,,,,,,,,l,0,"[""0.230"",""0.506"",""0.666"",""0.040""]","[1,1,1,0]",0,20,20,20,1,0,1,,,0,FALSE,1.2984,,,,,,,,,,,,,,,,,,,,,,,,,,,,,,,
,613b7bdc3a329ab20c067d1a,627c6f1ff7723f13650e4b66,2022-05-11_21h22.01.632,classification_task,2021.2.3,Win32,59.97720866,627c6715c52fd12f31907bcf,,,,,,,,,,,,,,,,,,,,,,,l,0,"[""0.031"",""0.506"",""0.666"",""0.862""]","[0,1,1,1]",0,21,21,21,1,0,1,,,0,FALSE,1.9027,,,,,,,,,,,,,,,,,,,,,,,,,,,,,,,
,613b7bdc3a329ab20c067d1a,627c6f1ff7723f13650e4b66,2022-05-11_21h22.01.632,classification_task,2021.2.3,Win32,59.97720866,627c6715c52fd12f31907bcf,,,,,,,,,,,,,,,,,,,,,,,a,0,"[""0.031"",""0.406"",""0.460"",""0.741""]","[0,1,1,1]",0,22,22,22,1,1,1,,,0,FALSE,2.2185,,,,,,,,,,,,,,,,,,,,,,,,,,,,,,,
,613b7bdc3a329ab20c067d1a,627c6f1ff7723f13650e4b66,2022-05-11_21h22.01.632,classification_task,2021.2.3,Win32,59.97720866,627c6715c52fd12f31907bcf,,,,,,,,,,,,,,,,,,,,,,,l,1,"[""0.100"",""0.277"",""0.605"",""0.323""]","[1,1,1,0]",0,23,23,23,1,1,0,,,0,FALSE,2.0523,,,,,,,,,,,,,,,,,,,,,,,,,,,,,,,
,613b7bdc3a329ab20c067d1a,627c6f1ff7723f13650e4b66,2022-05-11_21h22.01.632,classification_task,2021.2.3,Win32,59.97720866,627c6715c52fd12f31907bcf,,,,,,,,,,,,,,,,,,,,,,,a,0,"[""0.150"",""0.406"",""0.460"",""0.335""]","[1,1,1,0]",0,24,24,24,1,1,1,,,0,FALSE,0.5676,,,,,,,,,,,,,,,,,,,,,,,,,,,,,,,
,613b7bdc3a329ab20c067d1a,627c6f1ff7723f13650e4b66,2022-05-11_21h22.01.632,classification_task,2021.2.3,Win32,59.97720866,627c6715c52fd12f31907bcf,,,,,,,,,,,,,,,,,,,,,,,l,0,"[""0.230"",""0.506"",""0.312"",""0.862""]","[1,1,0,1]",0,25,25,25,1,0,1,,,0,FALSE,1.0346,,,,,,,,,,,,,,,,,,,,,,,,,,,,,,,
,613b7bdc3a329ab20c067d1a,627c6f1ff7723f13650e4b66,2022-05-11_21h22.01.632,classification_task,2021.2.3,Win32,59.97720866,627c6715c52fd12f31907bcf,,,,,,,,,,,,,,,,,,,,,,,l,1,"[""0.325"",""0.277"",""0.605"",""0.821""]","[0,1,1,1]",0,26,26,26,1,1,0,,,0,FALSE,1.3169,,,,,,,,,,,,,,,,,,,,,,,,,,,,,,,
,613b7bdc3a329ab20c067d1a,627c6f1ff7723f13650e4b66,2022-05-11_21h22.01.632,classification_task,2021.2.3,Win32,59.97720866,627c6715c52fd12f31907bcf,,,,,,,,,,,,,,,,,,,,,,,l,1,"[""0.100"",""0.335"",""0.605"",""0.821""]","[1,0,1,1]",0,27,27,27,1,1,0,,,0,FALSE,0.5159,,,,,,,,,,,,,,,,,,,,,,,,,,,,,,,
,613b7bdc3a329ab20c067d1a,627c6f1ff7723f13650e4b66,2022-05-11_21h22.01.632,classification_task,2021.2.3,Win32,59.97720866,627c6715c52fd12f31907bcf,,,,,,,,,,,,,,,,,,,,,,,l,0,"[""0.196"",""0.545"",""0.912"",""0.323""]","[1,1,1,0]",0,28,28,28,1,0,0,,,0,FALSE,0.8335,,,,,,,,,,,,,,,,,,,,,,,,,,,,,,,
,613b7bdc3a329ab20c067d1a,627c6f1ff7723f13650e4b66,2022-05-11_21h22.01.632,classification_task,2021.2.3,Win32,59.97720866,627c6715c52fd12f31907bcf,,,,,,,,,,,,,,,,,,,,,,,l,0,"[""0.196"",""0.545"",""0.312"",""0.954""]","[1,1,0,1]",0,29,29,29,1,0,0,,,0,FALSE,1.3175,,,,,,,,,,,,,,,,,,,,,,,,,,,,,,,
,613b7bdc3a329ab20c067d1a,627c6f1ff7723f13650e4b66,2022-05-11_21h22.01.632,classification_task,2021.2.3,Win32,59.97720866,627c6715c52fd12f31907bcf,,,,,,,,,,,,,,,,,,,,,,,a,0,"[""0.150"",""0.406"",""0.051"",""0.741""]","[1,1,0,1]",0,30,30,30,1,1,1,,,0,FALSE,0.7991,,,,,,,,,,,,,,,,,,,,,,,,,,,,,,,
,613b7bdc3a329ab20c067d1a,627c6f1ff7723f13650e4b66,2022-05-11_21h22.01.632,classification_task,2021.2.3,Win32,59.97720866,627c6715c52fd12f31907bcf,,,,,,,,,,,,,,,,,,,,,,,a,0,"[""0.100"",""0.277"",""0.051"",""0.821""]","[1,1,0,1]",0,31,31,31,1,1,0,,,0,FALSE,0.834,,,,,,,,,,,,,,,,,,,,,,,,,,,,,,,
,613b7bdc3a329ab20c067d1a,627c6f1ff7723f13650e4b66,2022-05-11_21h22.01.632,classification_task,2021.2.3,Win32,59.97720866,627c6715c52fd12f31907bcf,,,,,,,,,,,,,,,,,,,,,,,l,0,"[""0.230"",""0.783"",""0.666"",""0.862""]","[1,0,1,1]",0,32,32,32,1,0,1,,,0,FALSE,0.6151,,,,,,,,,,,,,,,,,,,,,,,,,,,,,,,
,613b7bdc3a329ab20c067d1a,627c6f1ff7723f13650e4b66,2022-05-11_21h22.01.632,classification_task,2021.2.3,Win32,59.97720866,627c6715c52fd12f31907bcf,,,,,,,,,,,,,,,,,,,,,,,a,0,"[""0.051"",""0.406"",""0.460"",""0.741""]","[0,1,1,1]",0,33,33,33,1,1,1,,,0,FALSE,0.3161,,,,,,,,,,,,,,,,,,,,,,,,,,,,,,,
,613b7bdc3a329ab20c067d1a,627c6f1ff7723f13650e4b66,2022-05-11_21h22.01.632,classification_task,2021.2.3,Win32,59.97720866,627c6715c52fd12f31907bcf,,,,,,,,,,,,,,,,,,,,,,,l,1,"[""0.150"",""0.777"",""0.460"",""0.741""]","[1,0,1,1]",0,34,34,34,1,1,1,,,0,FALSE,0.4003,,,,,,,,,,,,,,,,,,,,,,,,,,,,,,,
,613b7bdc3a329ab20c067d1a,627c6f1ff7723f13650e4b66,2022-05-11_21h22.01.632,classification_task,2021.2.3,Win32,59.97720866,627c6715c52fd12f31907bcf,,,,,,,,,,,,,,,,,,,,,,,a,1,"[""0.196"",""0.545"",""0.912"",""0.312""]","[1,1,1,0]",0,35,35,35,1,0,0,,,0,FALSE,0.5008,,,,,,,,,,,,,,,,,,,,,,,,,,,,,,,
,613b7bdc3a329ab20c067d1a,627c6f1ff7723f13650e4b66,2022-05-11_21h22.01.632,classification_task,2021.2.3,Win32,59.97720866,627c6715c52fd12f31907bcf,,,,,,,,,,,,,,,,,,,,,,,l,1,"[""0.150"",""0.406"",""0.324"",""0.741""]","[1,1,0,1]",0,36,36,36,1,1,1,,,0,FALSE,0.5338,,,,,,,,,,,,,,,,,,,,,,,,,,,,,,,
,613b7bdc3a329ab20c067d1a,627c6f1ff7723f13650e4b66,2022-05-11_21h22.01.632,classification_task,2021.2.3,Win32,59.97720866,627c6715c52fd12f31907bcf,,,,,,,,,,,,,,,,,,,,,,,a,0,"[""0.100"",""0.785"",""0.605"",""0.821""]","[1,0,1,1]",0,37,37,37,1,1,0,,,0,FALSE,0.451,,,,,,,,,,,,,,,,,,,,,,,,,,,,,,,
,613b7bdc3a329ab20c067d1a,627c6f1ff7723f13650e4b66,2022-05-11_21h22.01.632,classification_task,2021.2.3,Win32,59.97720866,627c6715c52fd12f31907bcf,,,,,,,,,,,,,,,,,,,,,,,l,0,"[""0.230"",""0.506"",""0.666"",""0.312""]","[1,1,1,0]",0,38,38,38,1,0,1,,,0,FALSE,0.3989,,,,,,,,,,,,,,,,,,,,,,,,,,,,,,,
,613b7bdc3a329ab20c067d1a,627c6f1ff7723f13650e4b66,2022-05-11_21h22.01.632,classification_task,2021.2.3,Win32,59.97720866,627c6715c52fd12f31907bcf,,,,,,,,,,,,,,,,,,,,,,,l,1,"[""0.323"",""0.277"",""0.605"",""0.821""]","[0,1,1,1]",0,39,39,39,1,1,0,,,0,FALSE,0.316,,,,,,,,,,,,,,,,,,,,,,,,,,,,,,,
,613b7bdc3a329ab20c067d1a,627c6f1ff7723f13650e4b66,2022-05-11_21h22.01.632,classification_task,2021.2.3,Win32,59.97720866,627c6715c52fd12f31907bcf,,,,,,,,,,,,,,,,,,,,,,,a,1,"[""0.196"",""0.545"",""0.340"",""0.954""]","[1,1,0,1]",0,40,40,40,1,0,0,,,0,FALSE,0.483,,,,,,,,,,,,,,,,,,,,,,,,,,,,,,,
,613b7bdc3a329ab20c067d1a,627c6f1ff7723f13650e4b66,2022-05-11_21h22.01.632,classification_task,2021.2.3,Win32,59.97720866,627c6715c52fd12f31907bcf,,,,,,,,,,,,,,,,,,,,,,,l,1,"[""0.100"",""0.277"",""0.605"",""0.705""]","[1,1,1,0]",0,41,41,41,1,1,0,,,0,FALSE,0.4156,,,,,,,,,,,,,,,,,,,,,,,,,,,,,,,
,613b7bdc3a329ab20c067d1a,627c6f1ff7723f13650e4b66,2022-05-11_21h22.01.632,classification_task,2021.2.3,Win32,59.97720866,627c6715c52fd12f31907bcf,,,,,,,,,,,,,,,,,,,,,,,a,0,"[""0.100"",""0.277"",""0.345"",""0.821""]","[1,1,0,1]",0,42,42,42,1,1,0,,,0,FALSE,0.2997,,,,,,,,,,,,,,,,,,,,,,,,,,,,,,,
,613b7bdc3a329ab20c067d1a,627c6f1ff7723f13650e4b66,2022-05-11_21h22.01.632,classification_task,2021.2.3,Win32,59.97720866,627c6715c52fd12f31907bcf,,,,,,,,,,,,,,,,,,,,,,,l,0,"[""0.230"",""0.506"",""0.345"",""0.862""]","[1,1,0,1]",0,43,43,43,1,0,1,,,0,FALSE,0.5661,,,,,,,,,,,,,,,,,,,,,,,,,,,,,,,
,613b7bdc3a329ab20c067d1a,627c6f1ff7723f13650e4b66,2022-05-11_21h22.01.632,classification_task,2021.2.3,Win32,59.97720866,627c6715c52fd12f31907bcf,,,,,,,,,,,,,,,,,,,,,,,a,0,"[""0.150"",""0.406"",""0.460"",""0.051""]","[1,1,1,0]",0,44,44,44,1,1,1,,,0,FALSE,0.7316,,,,,,,,,,,,,,,,,,,,,,,,,,,,,,,
,613b7bdc3a329ab20c067d1a,627c6f1ff7723f13650e4b66,2022-05-11_21h22.01.632,classification_task,2021.2.3,Win32,59.97720866,627c6715c52fd12f31907bcf,,,,,,,,,,,,,,,,,,,,,,,l,0,"[""0.196"",""0.777"",""0.912"",""0.954""]","[1,0,1,1]",0,45,45,45,1,0,0,,,0,FALSE,0.5165,,,,,,,,,,,,,,,,,,,,,,,,,,,,,,,
,613b7bdc3a329ab20c067d1a,627c6f1ff7723f13650e4b66,2022-05-11_21h22.01.632,classification_task,2021.2.3,Win32,59.97720866,627c6715c52fd12f31907bcf,,,,,,,,,,,,,,,,,,,,,,,a,1,"[""0.335"",""0.545"",""0.912"",""0.954""]","[0,1,1,1]",0,46,46,46,1,0,0,,,0,FALSE,0.5155,,,,,,,,,,,,,,,,,,,,,,,,,,,,,,,
,613b7bdc3a329ab20c067d1a,627c6f1ff7723f13650e4b66,2022-05-11_21h22.01.632,classification_task,2021.2.3,Win32,59.97720866,627c6715c52fd12f31907bcf,,,,,,,,,,,,,,,,,,,,,,,l,0,"[""0.340"",""0.506"",""0.666"",""0.862""]","[0,1,1,1]",0,47,47,47,1,0,1,,,0,FALSE,0.5171,,,,,,,,,,,,,,,,,,,,,,,,,,,,,,,
,613b7bdc3a329ab20c067d1a,627c6f1ff7723f13650e4b66,2022-05-11_21h22.01.632,classification_task,2021.2.3,Win32,59.97720866,627c6715c52fd12f31907bcf,,,,,,,,,,,,,,,,,,,,,,,a,0,"[""0.324"",""0.277"",""0.605"",""0.821""]","[0,1,1,1]",0,48,48,48,1,1,0,,,0,FALSE,0.6146,,,,,,,,,,,,,,,,,,,,,,,,,,,,,,,
,613b7bdc3a329ab20c067d1a,627c6f1ff7723f13650e4b66,2022-05-11_21h22.01.632,classification_task,2021.2.3,Win32,59.97720866,627c6715c52fd12f31907bcf,,,,,,,,,,,,,,,,,,,,,,,l,1,"[""0.150"",""0.406"",""0.323"",""0.741""]","[1,1,0,1]",0,49,49,49,1,1,1,,,0,FALSE,0.4657,,,,,,,,,,,,,,,,,,,,,,,,,,,,,,,
,613b7bdc3a329ab20c067d1a,627c6f1ff7723f13650e4b66,2022-05-11_21h22.01.632,classification_task,2021.2.3,Win32,59.97720866,627c6715c52fd12f31907bcf,,,,,,,,,,,,,,,,,,,,,,,a,0,"[""0.100"",""0.277"",""0.777"",""0.821""]","[1,1,0,1]",0,50,50,50,1,1,0,,,0,FALSE,0.682,,,,,,,,,,,,,,,,,,,,,,,,,,,,,,,
,613b7bdc3a329ab20c067d1a,627c6f1ff7723f13650e4b66,2022-05-11_21h22.01.632,classification_task,2021.2.3,Win32,59.97720866,627c6715c52fd12f31907bcf,,,,,,,,,,,,,,,,,,,,,,,l,0,"[""0.230"",""0.506"",""0.340"",""0.862""]","[1,1,0,1]",0,51,51,51,1,0,1,,,0,FALSE,0.9158,,,,,,,,,,,,,,,,,,,,,,,,,,,,,,,
,613b7bdc3a329ab20c067d1a,627c6f1ff7723f13650e4b66,2022-05-11_21h22.01.632,classification_task,2021.2.3,Win32,59.97720866,627c6715c52fd12f31907bcf,,,,,,,,,,,,,,,,,,,,,,,l,0,"[""0.230"",""0.506"",""0.666"",""0.340""]","[1,1,1,0]",0,52,52,52,1,0,1,,,0,FALSE,0.4316,,,,,,,,,,,,,,,,,,,,,,,,,,,,,,,
,613b7bdc3a329ab20c067d1a,627c6f1ff7723f13650e4b66,2022-05-11_21h22.01.632,classification_task,2021.2.3,Win32,59.97720866,627c6715c52fd12f31907bcf,,,,,,,,,,,,,,,,,,,,,,,l,1,"[""0.150"",""0.406"",""0.460"",""0.031""]","[1,1,1,0]",0,53,53,53,1,1,1,,,0,FALSE,0.8155,,,,,,,,,,,,,,,,,,,,,,,,,,,,,,,
,613b7bdc3a329ab20c067d1a,627c6f1ff7723f13650e4b66,2022-05-11_21h22.01.632,classification_task,2021.2.3,Win32,59.97720866,627c6715c52fd12f31907bcf,,,,,,,,,,,,,,,,,,,,,,,l,1,"[""0.785"",""0.406"",""0.460"",""0.741""]","[0,1,1,1]",0,54,54,54,1,1,1,,,0,FALSE,0.6312,,,,,,,,,,,,,,,,,,,,,,,,,,,,,,,
,613b7bdc3a329ab20c067d1a,627c6f1ff7723f13650e4b66,2022-05-11_21h22.01.632,classification_task,2021.2.3,Win32,59.97720866,627c6715c52fd12f31907bcf,,,,,,,,,,,,,,,,,,,,,,,a,0,"[""0.100"",""0.323"",""0.605"",""0.821""]","[1,0,1,1]",0,55,55,55,1,1,0,,,0,FALSE,0.9326,,,,,,,,,,,,,,,,,,,,,,,,,,,,,,,
,613b7bdc3a329ab20c067d1a,627c6f1ff7723f13650e4b66,2022-05-11_21h22.01.632,classification_task,2021.2.3,Win32,59.97720866,627c6715c52fd12f31907bcf,,,,,,,,,,,,,,,,,,,,,,,l,0,"[""0.340"",""0.506"",""0.666"",""0.862""]","[0,1,1,1]",0,56,56,56,1,0,1,,,0,FALSE,0.5842,,,,,,,,,,,,,,,,,,,,,,,,,,,,,,,
,613b7bdc3a329ab20c067d1a,627c6f1ff7723f13650e4b66,2022-05-11_21h22.01.632,classification_task,2021.2.3,Win32,59.97720866,627c6715c52fd12f31907bcf,,,,,,,,,,,,,,,,,,,,,,,l,0,"[""0.196"",""0.031"",""0.912"",""0.954""]","[1,0,1,1]",0,57,57,57,1,0,0,,,0,FALSE,0.6176,,,,,,,,,,,,,,,,,,,,,,,,,,,,,,,
,613b7bdc3a329ab20c067d1a,627c6f1ff7723f13650e4b66,2022-05-11_21h22.01.632,classification_task,2021.2.3,Win32,59.97720866,627c6715c52fd12f31907bcf,,,,,,,,,,,,,,,,,,,,,,,l,0,"[""0.196"",""0.545"",""0.335"",""0.954""]","[1,1,0,1]",0,58,58,58,1,0,0,,,0,FALSE,0.4166,,,,,,,,,,,,,,,,,,,,,,,,,,,,,,,
,613b7bdc3a329ab20c067d1a,627c6f1ff7723f13650e4b66,2022-05-11_21h22.01.632,classification_task,2021.2.3,Win32,59.97720866,627c6715c52fd12f31907bcf,,,,,,,,,,,,,,,,,,,,,,,l,0,"[""0.785"",""0.545"",""0.912"",""0.954""]","[0,1,1,1]",0,59,59,59,1,0,0,,,0,FALSE,0.584,,,,,,,,,,,,,,,,,,,,,,,,,,,,,,,
,613b7bdc3a329ab20c067d1a,627c6f1ff7723f13650e4b66,2022-05-11_21h22.01.632,classification_task,2021.2.3,Win32,59.97720866,627c6715c52fd12f31907bcf,,,,,,,,,,,,,,,,,,,,,,,a,1,"[""0.196"",""0.545"",""0.912"",""0.335""]","[1,1,1,0]",0,60,60,60,1,0,0,,,0,FALSE,0.3334,,,,,,,,,,,,,,,,,,,,,,,,,,,,,,,
,613b7bdc3a329ab20c067d1a,627c6f1ff7723f13650e4b66,2022-05-11_21h22.01.632,classification_task,2021.2.3,Win32,59.97720866,627c6715c52fd12f31907bcf,,,,,,,,,,,,,,,,,,,,,,,a,1,"[""0.230"",""0.347"",""0.666"",""0.862""]","[1,0,1,1]",0,61,61,61,1,0,1,,,0,FALSE,0.9663,,,,,,,,,,,,,,,,,,,,,,,,,,,,,,,
,613b7bdc3a329ab20c067d1a,627c6f1ff7723f13650e4b66,2022-05-11_21h22.01.632,classification_task,2021.2.3,Win32,59.97720866,627c6715c52fd12f31907bcf,,,,,,,,,,,,,,,,,,,,,,,l,1,"[""0.150"",""0.783"",""0.460"",""0.741""]","[1,0,1,1]",0,62,62,62,1,1,1,,,0,FALSE,2.3343,,,,,,,,,,,,,,,,,,,,,,,,,,,,,,,
,613b7bdc3a329ab20c067d1a,627c6f1ff7723f13650e4b66,2022-05-11_21h22.01.632,classification_task,2021.2.3,Win32,59.97720866,627c6715c52fd12f31907bcf,,,,,,,,,,,,,,,,,,,,,,,a,0,"[""0.100"",""0.277"",""0.605"",""0.340""]","[1,1,1,0]",0,63,63,63,1,1,0,,,0,FALSE,1.2178,,,,,,,,,,,,,,,,,,,,,,,,,,,,,,,
,613b7bdc3a329ab20c067d1a,627c6f1ff7723f13650e4b66,2022-05-11_21h22.01.632,classification_task,2021.2.3,Win32,59.97720866,627c6715c52fd12f31907bcf,,,,,,,,,,,,,,,,,,,,,,,,,,,,,,,,,,,,,,,0, ,,0,0,172.688,0,2,2,2,1,2,3,,,,,,,,,,,,,,,,,,
,613b7bdc3a329ab20c067d1a,627c6f1ff7723f13650e4b66,2022-05-11_21h22.01.632,classification_task,2021.2.3,Win32,59.97720866,627c6715c52fd12f31907bcf,,,,,,,,,,,,,,,,,,,,,,,,,,,,,,,,,,,,,,,1,  ,,0,0,174.7401,0,2,2,2,1,2,3,,,,,,,,,,,,,,,,,,
,613b7bdc3a329ab20c067d1a,627c6f1ff7723f13650e4b66,2022-05-11_21h22.01.632,classification_task,2021.2.3,Win32,59.97720866,627c6715c52fd12f31907bcf,,,,,,,,,,,,,,,,,,,,,,,,,,,,,,,,,,,,,,,2,  ,,0,0,176.0413,0,2,2,2,1,2,3,,,,,,,,,,,,,,,,,,
,613b7bdc3a329ab20c067d1a,627c6f1ff7723f13650e4b66,2022-05-11_21h22.01.632,classification_task,2021.2.3,Win32,59.97720866,627c6715c52fd12f31907bcf,,,,,,,,,,,,,,,,,,,,,,,,,,,,,,,,,,,,,,,,,,,,,0,2,2,2,1,,3,,,,,,,,,,,,,,,,,,
,613b7bdc3a329ab20c067d1a,627c6f1ff7723f13650e4b66,2022-05-11_21h22.01.632,classification_task,2021.2.3,Win32,59.97720866,627c6715c52fd12f31907bcf,,,,,,,,,,,,,,,,,,,,,,,,,,,,,,,,,,,,,,,,,,,,,,,,,,,,,I believe the aid is a competent performer,,0.7,0,5,930.7106,0,0,0,0,1,0,,,,,
,613b7bdc3a329ab20c067d1a,627c6f1ff7723f13650e4b66,2022-05-11_21h22.01.632,classification_task,2021.2.3,Win32,59.97720866,627c6715c52fd12f31907bcf,,,,,,,,,,,,,,,,,,,,,,,,,,,,,,,,,,,,,,,,,,,,,,,,,,,,,I trust the aid,,0.7,0,5,931.6015,0,0,0,0,1,0,,,,,
,613b7bdc3a329ab20c067d1a,627c6f1ff7723f13650e4b66,2022-05-11_21h22.01.632,classification_task,2021.2.3,Win32,59.97720866,627c6715c52fd12f31907bcf,,,,,,,,,,,,,,,,,,,,,,,,,,,,,,,,,,,,,,,,,,,,,,,,,,,,,I have confidence in the advice given by the aid,,0.7,0,4,934.1595,0,0,0,0,1,0,,,,,
,613b7bdc3a329ab20c067d1a,627c6f1ff7723f13650e4b66,2022-05-11_21h22.01.632,classification_task,2021.2.3,Win32,59.97720866,627c6715c52fd12f31907bcf,,,,,,,,,,,,,,,,,,,,,,,,,,,,,,,,,,,,,,,,,,,,,,,,,,,,,I can depend on the aid,,0.7,0,5,936.2849,0,0,0,0,1,0,,,,,
,613b7bdc3a329ab20c067d1a,627c6f1ff7723f13650e4b66,2022-05-11_21h22.01.632,classification_task,2021.2.3,Win32,59.97720866,627c6715c52fd12f31907bcf,,,,,,,,,,,,,,,,,,,,,,,,,,,,,,,,,,,,,,,,,,,,,,,,,,,,,I can rely on the aid to behave in consistent ways,,0.7,0,4,940.1028,0,0,0,0,1,0,,,,,
,613b7bdc3a329ab20c067d1a,627c6f1ff7723f13650e4b66,2022-05-11_21h22.01.632,classification_task,2021.2.3,Win32,59.97720866,627c6715c52fd12f31907bcf,,,,,,,,,,,,,,,,,,,,,,,,,,,,,,,,,,,,,,,,,,,,,,,,,,,,,I can rely on the aid to do its best every time I take its advice,,0.7,0,4,941.3189,0,0,0,0,1,0,,,,,
,613b7bdc3a329ab20c067d1a,627c6f1ff7723f13650e4b66,2022-05-11_21h22.01.632,classification_task,2021.2.3,Win32,59.97720866,627c6715c52fd12f31907bcf,,,,,,,,,,,,,,,,,,,,,,,,,,,,,,,,,,,,,,,,,,,,,,,,,,,,,"On trials you completed with assistance from the aid, how frequently did you think the aid was correct?",,0.7,0,100%,,0,0,0,0,1,0,,,,,
,613b7bdc3a329ab20c067d1a,627c6f1ff7723f13650e4b66,2022-05-11_21h22.01.632,classification_task,2021.2.3,Win32,59.97720866,627c6715c52fd12f31907bcf,,,,,,,,,,,,,,,,,,,,,,,,,,,,,,,,,,,,,,,,,,,,,,,,,,,,,"On trials you completed without the aid, how frequently did you think you were correct?",,0.7,0,50%,,0,0,0,0,1,0,,,,,
,613b7bdc3a329ab20c067d1a,627c6f1ff7723f13650e4b66,2022-05-11_21h22.01.632,classification_task,2021.2.3,Win32,59.97720866,627c6715c52fd12f31907bcf,,,,,,,,,,,,,,,,,,,,,,,,,,,,,,,,,,,,,,,,,,,,,,,,,,,,,,,,,,,0,0,0,0,1,,,,,,
,613b7bdc3a329ab20c067d1a,627c6f1ff7723f13650e4b66,2022-05-11_21h22.01.632,classification_task,2021.2.3,Win32,59.97720866,627c6715c52fd12f31907bcf,,,,,,,,,,,,,,,,,,,,,,,,,,,,,,,,,,,,,,,,,,,,,,,,,,,,,,,,,,,,,,,,,space,11.1888,970.1535,,
,613b7bdc3a329ab20c067d1a,627c6f1ff7723f13650e4b66,2022-05-11_21h22.01.632,classification_task,2021.2.3,Win32,59.97720866,627c6715c52fd12f31907bcf,,,,,,,,,,,,,,,,,,,,,,,,,,,,,,,,,,,,,,,,,,,,,,,,,,,,,,,,,,,,,,,,,,,,"Mozilla/5.0 (Windows NT 10.0; Win64; x64) AppleWebKit/537.36 (KHTML, like Gecko) Chrome/101.0.4951.64 Safari/537.36",
,613b7bdc3a329ab20c067d1a,627c6f1ff7723f13650e4b66,2022-05-11_21h22.01.632,classification_task,2021.2.3,Win32,59.97720866,627c6715c52fd12f31907bcf,,,,,,,,,,,,,,,,,,,,,,,,,,,,,,,,,,,,,,,,,,,,,,,,,,,,,,,,,,,,,,,,,,,,,FADING
