usingWebGL,participant,session,date,expName,psychopyVersion,OS,frameRate,study_id,signatures_friend,signatures_foe,band_ranges_top,band_ranges_bottom,formitemText,formtype,formundefined,formitemWidth,formindex,formresponse,formrt,key_resp_2.keys,key_resp_2.rt,tute_resp.keys,tute_resp.rt,tutorial.thisRepN,tutorial.thisTrialN,tutorial.thisN,tutorial.thisIndex,tutorial.ran,key_resp_4.keys,key_resp_4.rt,key_resp.keys,key_resp.corr,key_resp.rt,lines_presented,is_signal_presented,trials.thisRepN,trials.thisTrialN,trials.thisN,trials.thisIndex,trials.ran,vessel,active_band,lines,is_signal,supported_pos,catch_trial,debrief_formindex,debrief_formitemText,debrief_formtype,debrief_formitemWidth,debrief_formresponse,debrief_formrt,phases.thisRepN,phases.thisTrialN,phases.thisN,phases.thisIndex,phases.ran,phases.order,phase,key_resp_3.keys,trustitemText,trusttype,trustitemWidth,trustindex,trustresponse,trustrt,support_status.thisRepN,support_status.thisTrialN,support_status.thisN,support_status.thisIndex,support_status.ran,support_status.order,key_resp_5.keys,key_resp_5.rt,globalClockTime,userAgent,manualCondition
TRUE,613cfec42b4571e6552c3019,627c6fa16f4dd69f76734257,2022-05-11_19h34.55.129,classification_task,2021.2.3,MacIntel,60.14675809,627c6715c52fd12f31907bd0,,,,,,,,,,,,,,,,,,,,,,,,,,,,,,,,,,,,,,,,,,,,,,,,,,,,,,,,,,,,,,,,,,,,,
,613cfec42b4571e6552c3019,627c6fa16f4dd69f76734257,2022-05-11_19h34.55.129,classification_task,2021.2.3,MacIntel,60.14675809,627c6715c52fd12f31907bd0,"[[""0.237"",""0.427"",""0.681"",""0.878""],[""0.177"",""0.393"",""0.941"",""0.975""]]","[[""0.080"",""0.304"",""0.535"",""0.830""],[""0.030"",""0.338"",""0.481"",""0.788""]]","[1,10]","[100,1000]",Video game experience,,,0.7,0,,,,,,,,,,,,,,,,,,,,,,,,,,,,,,,,,,,,,,,,,,,,,,,,,,,,,,,,,,,,
,613cfec42b4571e6552c3019,627c6fa16f4dd69f76734257,2022-05-11_19h34.55.129,classification_task,2021.2.3,MacIntel,60.14675809,627c6715c52fd12f31907bd0,,,,,Approximately how many hours did you spend playing video games in the last week?,,,0.7,0,0,,,,,,,,,,,,,,,,,,,,,,,,,,,,,,,,,,,,,,,,,,,,,,,,,,,,,,,,,,,
,613cfec42b4571e6552c3019,627c6fa16f4dd69f76734257,2022-05-11_19h34.55.129,classification_task,2021.2.3,MacIntel,60.14675809,627c6715c52fd12f31907bd0,,,,,"Which game did you play the most this year? (Enter ""None"" if you didn't play any)",,,0.7,0,None,,,,,,,,,,,,,,,,,,,,,,,,,,,,,,,,,,,,,,,,,,,,,,,,,,,,,,,,,,,
,613cfec42b4571e6552c3019,627c6fa16f4dd69f76734257,2022-05-11_19h34.55.129,classification_task,2021.2.3,MacIntel,60.14675809,627c6715c52fd12f31907bd0,,,,,Visual perception,,,0.7,0,,,,,,,,,,,,,,,,,,,,,,,,,,,,,,,,,,,,,,,,,,,,,,,,,,,,,,,,,,,,
,613cfec42b4571e6552c3019,627c6fa16f4dd69f76734257,2022-05-11_19h34.55.129,classification_task,2021.2.3,MacIntel,60.14675809,627c6715c52fd12f31907bd0,,,,,Do you have any form of color blindness?,,,0.7,0,No,15.6976,,,,,,,,,,,,,,,,,,,,,,,,,,,,,,,,,,,,,,,,,,,,,,,,,,,,,,,,,,
,613cfec42b4571e6552c3019,627c6fa16f4dd69f76734257,2022-05-11_19h34.55.129,classification_task,2021.2.3,MacIntel,60.14675809,627c6715c52fd12f31907bd0,,,,,Do you use software to change the colour temperature of your screen (e.g. f.lux)?,,,0.7,0,Yes,16.5642,,,,,,,,,,,,,,,,,,,,,,,,,,,,,,,,,,,,,,,,,,,,,,,,,,,,,,,,,,
,613cfec42b4571e6552c3019,627c6fa16f4dd69f76734257,2022-05-11_19h34.55.129,classification_task,2021.2.3,MacIntel,60.14675809,627c6715c52fd12f31907bd0,,,,,,,,,,,,space,26.0735,space,7.6116,0,0,0,0,1,,,,,,,,,,,,,,,,,,,,,,,,,,,,,,,,,,,,,,,,,,,,,,,,,
,613cfec42b4571e6552c3019,627c6fa16f4dd69f76734257,2022-05-11_19h34.55.129,classification_task,2021.2.3,MacIntel,60.14675809,627c6715c52fd12f31907bd0,,,,,,,,,,,,,,space,4.5944,1,0,1,0,1,,,,,,,,,,,,,,,,,,,,,,,,,,,,,,,,,,,,,,,,,,,,,,,,,
,613cfec42b4571e6552c3019,627c6fa16f4dd69f76734257,2022-05-11_19h34.55.129,classification_task,2021.2.3,MacIntel,60.14675809,627c6715c52fd12f31907bd0,,,,,,,,,,,,,,space,22.4506,2,0,2,0,1,,,,,,,,,,,,,,,,,,,,,,,,,,,,,,,,,,,,,,,,,,,,,,,,,
,613cfec42b4571e6552c3019,627c6fa16f4dd69f76734257,2022-05-11_19h34.55.129,classification_task,2021.2.3,MacIntel,60.14675809,627c6715c52fd12f31907bd0,,,,,,,,,,,,,,space,5.4239,3,0,3,0,1,,,,,,,,,,,,,,,,,,,,,,,,,,,,,,,,,,,,,,,,,,,,,,,,,
,613cfec42b4571e6552c3019,627c6fa16f4dd69f76734257,2022-05-11_19h34.55.129,classification_task,2021.2.3,MacIntel,60.14675809,627c6715c52fd12f31907bd0,,,,,,,,,,,,,,space,9.8145,4,0,4,0,1,,,,,,,,,,,,,,,,,,,,,,,,,,,,,,,,,,,,,,,,,,,,,,,,,
,613cfec42b4571e6552c3019,627c6fa16f4dd69f76734257,2022-05-11_19h34.55.129,classification_task,2021.2.3,MacIntel,60.14675809,627c6715c52fd12f31907bd0,,,,,,,,,,,,,,,,,,,,,space,16.8881,l,1,2.6499,"[""0.030"",""0.338"",""0.635"",""0.788""]","[1,1,0,1]",0,0,0,0,1,1,1,,,1,FALSE,,,,,,,,,,,,,,,,,,,,,,,,,,,,,,,
,613cfec42b4571e6552c3019,627c6fa16f4dd69f76734257,2022-05-11_19h34.55.129,classification_task,2021.2.3,MacIntel,60.14675809,627c6715c52fd12f31907bd0,,,,,,,,,,,,,,,,,,,,,,,a,1,2.6937,"[""0.177"",""0.643"",""0.941"",""0.975""]","[1,0,1,1]",0,1,1,1,1,0,1,,,1,FALSE,,,,,,,,,,,,,,,,,,,,,,,,,,,,,,,
,613cfec42b4571e6552c3019,627c6fa16f4dd69f76734257,2022-05-11_19h34.55.129,classification_task,2021.2.3,MacIntel,60.14675809,627c6715c52fd12f31907bd0,,,,,,,,,,,,,,,,,,,,,,,a,1,2.7927,"[""0.237"",""0.427"",""0.569"",""0.878""]","[1,1,0,1]",0,2,2,2,1,0,0,,,1,FALSE,,,,,,,,,,,,,,,,,,,,,,,,,,,,,,,
,613cfec42b4571e6552c3019,627c6fa16f4dd69f76734257,2022-05-11_19h34.55.129,classification_task,2021.2.3,MacIntel,60.14675809,627c6715c52fd12f31907bd0,,,,,,,,,,,,,,,,,,,,,,,l,1,2.2032,"[""0.080"",""0.304"",""0.535"",""0.728""]","[1,1,1,0]",0,3,3,3,1,1,0,,,1,FALSE,,,,,,,,,,,,,,,,,,,,,,,,,,,,,,,
,613cfec42b4571e6552c3019,627c6fa16f4dd69f76734257,2022-05-11_19h34.55.129,classification_task,2021.2.3,MacIntel,60.14675809,627c6715c52fd12f31907bd0,,,,,,,,,,,,,,,,,,,,,,,l,0,2.8788,"[""0.728"",""0.393"",""0.941"",""0.975""]","[0,1,1,1]",0,4,4,4,1,0,1,,,1,FALSE,,,,,,,,,,,,,,,,,,,,,,,,,,,,,,,
,613cfec42b4571e6552c3019,627c6fa16f4dd69f76734257,2022-05-11_19h34.55.129,classification_task,2021.2.3,MacIntel,60.14675809,627c6715c52fd12f31907bd0,,,,,,,,,,,,,,,,,,,,,,,a,1,2.1439,"[""0.237"",""0.732"",""0.681"",""0.878""]","[1,0,1,1]",0,5,5,5,1,0,0,,,1,FALSE,,,,,,,,,,,,,,,,,,,,,,,,,,,,,,,
,613cfec42b4571e6552c3019,627c6fa16f4dd69f76734257,2022-05-11_19h34.55.129,classification_task,2021.2.3,MacIntel,60.14675809,627c6715c52fd12f31907bd0,,,,,,,,,,,,,,,,,,,,,,,a,1,2.4927,"[""0.177"",""0.393"",""0.941"",""0.643""]","[1,1,1,0]",0,6,6,6,1,0,1,,,1,FALSE,,,,,,,,,,,,,,,,,,,,,,,,,,,,,,,
,613cfec42b4571e6552c3019,627c6fa16f4dd69f76734257,2022-05-11_19h34.55.129,classification_task,2021.2.3,MacIntel,60.14675809,627c6715c52fd12f31907bd0,,,,,,,,,,,,,,,,,,,,,,,l,1,1.9196,"[""0.030"",""0.754"",""0.481"",""0.788""]","[1,0,1,1]",0,7,7,7,1,1,1,,,1,FALSE,,,,,,,,,,,,,,,,,,,,,,,,,,,,,,,
,613cfec42b4571e6552c3019,627c6fa16f4dd69f76734257,2022-05-11_19h34.55.129,classification_task,2021.2.3,MacIntel,60.14675809,627c6715c52fd12f31907bd0,,,,,,,,,,,,,,,,,,,,,,,l,1,1.9949,"[""0.030"",""0.338"",""0.481"",""0.576""]","[1,1,1,0]",0,8,8,8,1,1,1,,,1,FALSE,,,,,,,,,,,,,,,,,,,,,,,,,,,,,,,
,613cfec42b4571e6552c3019,627c6fa16f4dd69f76734257,2022-05-11_19h34.55.129,classification_task,2021.2.3,MacIntel,60.14675809,627c6715c52fd12f31907bd0,,,,,,,,,,,,,,,,,,,,,,,l,1,6.7179,"[""0.137"",""0.304"",""0.535"",""0.830""]","[0,1,1,1]",0,9,9,9,1,1,0,,,1,FALSE,,,,,,,,,,,,,,,,,,,,,,,,,,,,,,,
,613cfec42b4571e6552c3019,627c6fa16f4dd69f76734257,2022-05-11_19h34.55.129,classification_task,2021.2.3,MacIntel,60.14675809,627c6715c52fd12f31907bd0,,,,,,,,,,,,,,,,,,,,,,,a,1,6.2111,"[""0.137"",""0.427"",""0.681"",""0.878""]","[0,1,1,1]",0,10,10,10,1,0,0,,,1,FALSE,,,,,,,,,,,,,,,,,,,,,,,,,,,,,,,
,613cfec42b4571e6552c3019,627c6fa16f4dd69f76734257,2022-05-11_19h34.55.129,classification_task,2021.2.3,MacIntel,60.14675809,627c6715c52fd12f31907bd0,,,,,,,,,,,,,,,,,,,,,,,a,1,6.3793,"[""0.237"",""0.427"",""0.681"",""0.141""]","[1,1,1,0]",0,11,11,11,1,0,0,,,1,FALSE,,,,,,,,,,,,,,,,,,,,,,,,,,,,,,,
,613cfec42b4571e6552c3019,627c6fa16f4dd69f76734257,2022-05-11_19h34.55.129,classification_task,2021.2.3,MacIntel,60.14675809,627c6715c52fd12f31907bd0,,,,,,,,,,,,,,,,,,,,,,,l,1,4.1001,"[""0.080"",""0.304"",""0.131"",""0.830""]","[1,1,0,1]",0,12,12,12,1,1,0,,,1,FALSE,,,,,,,,,,,,,,,,,,,,,,,,,,,,,,,
,613cfec42b4571e6552c3019,627c6fa16f4dd69f76734257,2022-05-11_19h34.55.129,classification_task,2021.2.3,MacIntel,60.14675809,627c6715c52fd12f31907bd0,,,,,,,,,,,,,,,,,,,,,,,a,1,2.6599,"[""0.177"",""0.393"",""0.137"",""0.975""]","[1,1,0,1]",0,13,13,13,1,0,1,,,1,FALSE,,,,,,,,,,,,,,,,,,,,,,,,,,,,,,,
,613cfec42b4571e6552c3019,627c6fa16f4dd69f76734257,2022-05-11_19h34.55.129,classification_task,2021.2.3,MacIntel,60.14675809,627c6715c52fd12f31907bd0,,,,,,,,,,,,,,,,,,,,,,,l,1,3.1013,"[""0.080"",""0.137"",""0.535"",""0.830""]","[1,0,1,1]",0,14,14,14,1,1,0,,,1,FALSE,,,,,,,,,,,,,,,,,,,,,,,,,,,,,,,
,613cfec42b4571e6552c3019,627c6fa16f4dd69f76734257,2022-05-11_19h34.55.129,classification_task,2021.2.3,MacIntel,60.14675809,627c6715c52fd12f31907bd0,,,,,,,,,,,,,,,,,,,,,,,l,1,4.5372,"[""0.137"",""0.338"",""0.481"",""0.788""]","[0,1,1,1]",0,15,15,15,1,1,1,,,1,FALSE,,,,,,,,,,,,,,,,,,,,,,,,,,,,,,,
,613cfec42b4571e6552c3019,627c6fa16f4dd69f76734257,2022-05-11_19h34.55.129,classification_task,2021.2.3,MacIntel,60.14675809,627c6715c52fd12f31907bd0,,,,,,,,,,,,,,,,,,,,,,,l,1,4.5089,"[""0.137"",""0.304"",""0.535"",""0.830""]","[0,1,1,1]",0,16,16,16,1,1,0,,,1,FALSE,,,,,,,,,,,,,,,,,,,,,,,,,,,,,,,
,613cfec42b4571e6552c3019,627c6fa16f4dd69f76734257,2022-05-11_19h34.55.129,classification_task,2021.2.3,MacIntel,60.14675809,627c6715c52fd12f31907bd0,,,,,,,,,,,,,,,,,,,,,,,a,1,3.1252,"[""0.177"",""0.137"",""0.941"",""0.975""]","[1,0,1,1]",0,17,17,17,1,0,1,,,1,FALSE,,,,,,,,,,,,,,,,,,,,,,,,,,,,,,,
,613cfec42b4571e6552c3019,627c6fa16f4dd69f76734257,2022-05-11_19h34.55.129,classification_task,2021.2.3,MacIntel,60.14675809,627c6715c52fd12f31907bd0,,,,,,,,,,,,,,,,,,,,,,,a,1,3.7651,"[""0.715"",""0.427"",""0.681"",""0.878""]","[0,1,1,1]",0,18,18,18,1,0,0,,,1,FALSE,,,,,,,,,,,,,,,,,,,,,,,,,,,,,,,
,613cfec42b4571e6552c3019,627c6fa16f4dd69f76734257,2022-05-11_19h34.55.129,classification_task,2021.2.3,MacIntel,60.14675809,627c6715c52fd12f31907bd0,,,,,,,,,,,,,,,,,,,,,,,a,1,2.4215,"[""0.237"",""0.427"",""0.137"",""0.878""]","[1,1,0,1]",0,19,19,19,1,0,0,,,1,FALSE,,,,,,,,,,,,,,,,,,,,,,,,,,,,,,,
,613cfec42b4571e6552c3019,627c6fa16f4dd69f76734257,2022-05-11_19h34.55.129,classification_task,2021.2.3,MacIntel,60.14675809,627c6715c52fd12f31907bd0,,,,,,,,,,,,,,,,,,,,,,,l,1,2.9246,"[""0.030"",""0.338"",""0.481"",""0.576""]","[1,1,1,0]",0,20,20,20,1,1,1,,,1,FALSE,,,,,,,,,,,,,,,,,,,,,,,,,,,,,,,
,613cfec42b4571e6552c3019,627c6fa16f4dd69f76734257,2022-05-11_19h34.55.129,classification_task,2021.2.3,MacIntel,60.14675809,627c6715c52fd12f31907bd0,,,,,,,,,,,,,,,,,,,,,,,l,1,2.5516,"[""0.080"",""0.643"",""0.535"",""0.830""]","[1,0,1,1]",0,21,21,21,1,1,0,,,1,FALSE,,,,,,,,,,,,,,,,,,,,,,,,,,,,,,,
,613cfec42b4571e6552c3019,627c6fa16f4dd69f76734257,2022-05-11_19h34.55.129,classification_task,2021.2.3,MacIntel,60.14675809,627c6715c52fd12f31907bd0,,,,,,,,,,,,,,,,,,,,,,,a,1,3.4356,"[""0.177"",""0.393"",""0.941"",""0.754""]","[1,1,1,0]",0,22,22,22,1,0,1,,,1,FALSE,,,,,,,,,,,,,,,,,,,,,,,,,,,,,,,
,613cfec42b4571e6552c3019,627c6fa16f4dd69f76734257,2022-05-11_19h34.55.129,classification_task,2021.2.3,MacIntel,60.14675809,627c6715c52fd12f31907bd0,,,,,,,,,,,,,,,,,,,,,,,a,1,2.8528,"[""0.631"",""0.393"",""0.941"",""0.975""]","[0,1,1,1]",0,23,23,23,1,0,1,,,1,FALSE,,,,,,,,,,,,,,,,,,,,,,,,,,,,,,,
,613cfec42b4571e6552c3019,627c6fa16f4dd69f76734257,2022-05-11_19h34.55.129,classification_task,2021.2.3,MacIntel,60.14675809,627c6715c52fd12f31907bd0,,,,,,,,,,,,,,,,,,,,,,,a,1,2.2689,"[""0.237"",""0.754"",""0.681"",""0.878""]","[1,0,1,1]",0,24,24,24,1,0,0,,,1,FALSE,,,,,,,,,,,,,,,,,,,,,,,,,,,,,,,
,613cfec42b4571e6552c3019,627c6fa16f4dd69f76734257,2022-05-11_19h34.55.129,classification_task,2021.2.3,MacIntel,60.14675809,627c6715c52fd12f31907bd0,,,,,,,,,,,,,,,,,,,,,,,l,1,2.8372,"[""0.030"",""0.633"",""0.481"",""0.788""]","[1,0,1,1]",0,25,25,25,1,1,1,,,1,FALSE,,,,,,,,,,,,,,,,,,,,,,,,,,,,,,,
,613cfec42b4571e6552c3019,627c6fa16f4dd69f76734257,2022-05-11_19h34.55.129,classification_task,2021.2.3,MacIntel,60.14675809,627c6715c52fd12f31907bd0,,,,,,,,,,,,,,,,,,,,,,,l,1,1.7408,"[""0.137"",""0.338"",""0.481"",""0.788""]","[0,1,1,1]",0,26,26,26,1,1,1,,,1,FALSE,,,,,,,,,,,,,,,,,,,,,,,,,,,,,,,
,613cfec42b4571e6552c3019,627c6fa16f4dd69f76734257,2022-05-11_19h34.55.129,classification_task,2021.2.3,MacIntel,60.14675809,627c6715c52fd12f31907bd0,,,,,,,,,,,,,,,,,,,,,,,l,1,4.3018,"[""0.030"",""0.338"",""0.643"",""0.788""]","[1,1,0,1]",0,27,27,27,1,1,1,,,1,FALSE,,,,,,,,,,,,,,,,,,,,,,,,,,,,,,,
,613cfec42b4571e6552c3019,627c6fa16f4dd69f76734257,2022-05-11_19h34.55.129,classification_task,2021.2.3,MacIntel,60.14675809,627c6715c52fd12f31907bd0,,,,,,,,,,,,,,,,,,,,,,,l,1,3.6573,"[""0.080"",""0.304"",""0.754"",""0.830""]","[1,1,0,1]",0,28,28,28,1,1,0,,,1,FALSE,,,,,,,,,,,,,,,,,,,,,,,,,,,,,,,
,613cfec42b4571e6552c3019,627c6fa16f4dd69f76734257,2022-05-11_19h34.55.129,classification_task,2021.2.3,MacIntel,60.14675809,627c6715c52fd12f31907bd0,,,,,,,,,,,,,,,,,,,,,,,a,0,3.0183,"[""0.080"",""0.304"",""0.535"",""0.749""]","[1,1,1,0]",0,29,29,29,1,1,0,,,1,FALSE,,,,,,,,,,,,,,,,,,,,,,,,,,,,,,,
,613cfec42b4571e6552c3019,627c6fa16f4dd69f76734257,2022-05-11_19h34.55.129,classification_task,2021.2.3,MacIntel,60.14675809,627c6715c52fd12f31907bd0,,,,,,,,,,,,,,,,,,,,,,,a,1,3.8692,"[""0.237"",""0.427"",""0.681"",""0.633""]","[1,1,1,0]",0,30,30,30,1,0,0,,,1,FALSE,,,,,,,,,,,,,,,,,,,,,,,,,,,,,,,
,613cfec42b4571e6552c3019,627c6fa16f4dd69f76734257,2022-05-11_19h34.55.129,classification_task,2021.2.3,MacIntel,60.14675809,627c6715c52fd12f31907bd0,,,,,,,,,,,,,,,,,,,,,,,a,1,3.2084,"[""0.177"",""0.393"",""0.643"",""0.975""]","[1,1,0,1]",0,31,31,31,1,0,1,,,1,FALSE,,,,,,,,,,,,,,,,,,,,,,,,,,,,,,,
,613cfec42b4571e6552c3019,627c6fa16f4dd69f76734257,2022-05-11_19h34.55.129,classification_task,2021.2.3,MacIntel,60.14675809,627c6715c52fd12f31907bd0,,,,,,,,,,,,,,,,,,,,,,,a,1,3.9007,"[""0.237"",""0.141"",""0.681"",""0.878""]","[1,0,1,1]",0,32,32,32,1,0,0,,,1,FALSE,,,,,,,,,,,,,,,,,,,,,,,,,,,,,,,
,613cfec42b4571e6552c3019,627c6fa16f4dd69f76734257,2022-05-11_19h34.55.129,classification_task,2021.2.3,MacIntel,60.14675809,627c6715c52fd12f31907bd0,,,,,,,,,,,,,,,,,,,,,,,a,1,1.7407,"[""0.177"",""0.393"",""0.754"",""0.975""]","[1,1,0,1]",0,33,33,33,1,0,1,,,1,FALSE,,,,,,,,,,,,,,,,,,,,,,,,,,,,,,,
,613cfec42b4571e6552c3019,627c6fa16f4dd69f76734257,2022-05-11_19h34.55.129,classification_task,2021.2.3,MacIntel,60.14675809,627c6715c52fd12f31907bd0,,,,,,,,,,,,,,,,,,,,,,,l,1,1.2333,"[""0.030"",""0.338"",""0.137"",""0.788""]","[1,1,0,1]",0,34,34,34,1,1,1,,,1,FALSE,,,,,,,,,,,,,,,,,,,,,,,,,,,,,,,
,613cfec42b4571e6552c3019,627c6fa16f4dd69f76734257,2022-05-11_19h34.55.129,classification_task,2021.2.3,MacIntel,60.14675809,627c6715c52fd12f31907bd0,,,,,,,,,,,,,,,,,,,,,,,a,0,2.2111,"[""0.080"",""0.304"",""0.535"",""0.576""]","[1,1,1,0]",0,35,35,35,1,1,0,,,1,FALSE,,,,,,,,,,,,,,,,,,,,,,,,,,,,,,,
,613cfec42b4571e6552c3019,627c6fa16f4dd69f76734257,2022-05-11_19h34.55.129,classification_task,2021.2.3,MacIntel,60.14675809,627c6715c52fd12f31907bd0,,,,,,,,,,,,,,,,,,,,,,,a,1,1.2248,"[""0.569"",""0.427"",""0.681"",""0.878""]","[0,1,1,1]",0,36,36,36,1,0,0,,,1,FALSE,,,,,,,,,,,,,,,,,,,,,,,,,,,,,,,
,613cfec42b4571e6552c3019,627c6fa16f4dd69f76734257,2022-05-11_19h34.55.129,classification_task,2021.2.3,MacIntel,60.14675809,627c6715c52fd12f31907bd0,,,,,,,,,,,,,,,,,,,,,,,a,1,0.7343,"[""0.237"",""0.427"",""0.635"",""0.878""]","[1,1,0,1]",0,37,37,37,1,0,0,,,1,FALSE,,,,,,,,,,,,,,,,,,,,,,,,,,,,,,,
,613cfec42b4571e6552c3019,627c6fa16f4dd69f76734257,2022-05-11_19h34.55.129,classification_task,2021.2.3,MacIntel,60.14675809,627c6715c52fd12f31907bd0,,,,,,,,,,,,,,,,,,,,,,,l,0,1.0468,"[""0.177"",""0.131"",""0.941"",""0.975""]","[1,0,1,1]",0,38,38,38,1,0,1,,,1,FALSE,,,,,,,,,,,,,,,,,,,,,,,,,,,,,,,
,613cfec42b4571e6552c3019,627c6fa16f4dd69f76734257,2022-05-11_19h34.55.129,classification_task,2021.2.3,MacIntel,60.14675809,627c6715c52fd12f31907bd0,,,,,,,,,,,,,,,,,,,,,,,l,1,1.3296,"[""0.080"",""0.715"",""0.535"",""0.830""]","[1,0,1,1]",0,39,39,39,1,1,0,,,1,FALSE,,,,,,,,,,,,,,,,,,,,,,,,,,,,,,,
,613cfec42b4571e6552c3019,627c6fa16f4dd69f76734257,2022-05-11_19h34.55.129,classification_task,2021.2.3,MacIntel,60.14675809,627c6715c52fd12f31907bd0,,,,,,,,,,,,,,,,,,,,,,,l,1,1.0639,"[""0.080"",""0.304"",""0.732"",""0.830""]","[1,1,0,1]",0,40,40,40,1,1,0,,,1,FALSE,,,,,,,,,,,,,,,,,,,,,,,,,,,,,,,
,613cfec42b4571e6552c3019,627c6fa16f4dd69f76734257,2022-05-11_19h34.55.129,classification_task,2021.2.3,MacIntel,60.14675809,627c6715c52fd12f31907bd0,,,,,,,,,,,,,,,,,,,,,,,a,1,2.3279,"[""0.237"",""0.427"",""0.681"",""0.732""]","[1,1,1,0]",0,41,41,41,1,0,0,,,1,FALSE,,,,,,,,,,,,,,,,,,,,,,,,,,,,,,,
,613cfec42b4571e6552c3019,627c6fa16f4dd69f76734257,2022-05-11_19h34.55.129,classification_task,2021.2.3,MacIntel,60.14675809,627c6715c52fd12f31907bd0,,,,,,,,,,,,,,,,,,,,,,,a,1,1.1586,"[""0.177"",""0.393"",""0.941"",""0.728""]","[1,1,1,0]",0,42,42,42,1,0,1,,,1,FALSE,,,,,,,,,,,,,,,,,,,,,,,,,,,,,,,
,613cfec42b4571e6552c3019,627c6fa16f4dd69f76734257,2022-05-11_19h34.55.129,classification_task,2021.2.3,MacIntel,60.14675809,627c6715c52fd12f31907bd0,,,,,,,,,,,,,,,,,,,,,,,a,0,1.5938,"[""0.728"",""0.304"",""0.535"",""0.830""]","[0,1,1,1]",0,43,43,43,1,1,0,,,1,FALSE,,,,,,,,,,,,,,,,,,,,,,,,,,,,,,,
,613cfec42b4571e6552c3019,627c6fa16f4dd69f76734257,2022-05-11_19h34.55.129,classification_task,2021.2.3,MacIntel,60.14675809,627c6715c52fd12f31907bd0,,,,,,,,,,,,,,,,,,,,,,,l,1,0.8806,"[""0.030"",""0.338"",""0.481"",""0.137""]","[1,1,1,0]",0,44,44,44,1,1,1,,,1,FALSE,,,,,,,,,,,,,,,,,,,,,,,,,,,,,,,
,613cfec42b4571e6552c3019,627c6fa16f4dd69f76734257,2022-05-11_19h34.55.129,classification_task,2021.2.3,MacIntel,60.14675809,627c6715c52fd12f31907bd0,,,,,,,,,,,,,,,,,,,,,,,l,0,1.762,"[""0.631"",""0.393"",""0.941"",""0.975""]","[0,1,1,1]",0,45,45,45,1,0,1,,,1,FALSE,,,,,,,,,,,,,,,,,,,,,,,,,,,,,,,
,613cfec42b4571e6552c3019,627c6fa16f4dd69f76734257,2022-05-11_19h34.55.129,classification_task,2021.2.3,MacIntel,60.14675809,627c6715c52fd12f31907bd0,,,,,,,,,,,,,,,,,,,,,,,a,0,0.7646,"[""0.577"",""0.338"",""0.481"",""0.788""]","[0,1,1,1]",0,46,46,46,1,1,1,,,1,FALSE,,,,,,,,,,,,,,,,,,,,,,,,,,,,,,,
,613cfec42b4571e6552c3019,627c6fa16f4dd69f76734257,2022-05-11_19h34.55.129,classification_task,2021.2.3,MacIntel,60.14675809,627c6715c52fd12f31907bd0,,,,,,,,,,,,,,,,,,,,,,,l,1,0.7477,"[""0.030"",""0.715"",""0.481"",""0.788""]","[1,0,1,1]",0,47,47,47,1,1,1,,,1,FALSE,,,,,,,,,,,,,,,,,,,,,,,,,,,,,,,
,613cfec42b4571e6552c3019,627c6fa16f4dd69f76734257,2022-05-11_19h34.55.129,classification_task,2021.2.3,MacIntel,60.14675809,627c6715c52fd12f31907bd0,,,,,,,,,,,,,,,,,,,,,,,l,1,0.9138,"[""0.577"",""0.338"",""0.481"",""0.788""]","[0,1,1,1]",0,48,48,48,1,1,1,,,1,FALSE,,,,,,,,,,,,,,,,,,,,,,,,,,,,,,,
,613cfec42b4571e6552c3019,627c6fa16f4dd69f76734257,2022-05-11_19h34.55.129,classification_task,2021.2.3,MacIntel,60.14675809,627c6715c52fd12f31907bd0,,,,,,,,,,,,,,,,,,,,,,,a,1,1.1345,"[""0.177"",""0.393"",""0.635"",""0.975""]","[1,1,0,1]",0,49,49,49,1,0,1,,,1,FALSE,,,,,,,,,,,,,,,,,,,,,,,,,,,,,,,
,613cfec42b4571e6552c3019,627c6fa16f4dd69f76734257,2022-05-11_19h34.55.129,classification_task,2021.2.3,MacIntel,60.14675809,627c6715c52fd12f31907bd0,,,,,,,,,,,,,,,,,,,,,,,l,0,1.2798,"[""0.237"",""0.137"",""0.681"",""0.878""]","[1,0,1,1]",0,50,50,50,1,0,0,,,1,FALSE,,,,,,,,,,,,,,,,,,,,,,,,,,,,,,,
,613cfec42b4571e6552c3019,627c6fa16f4dd69f76734257,2022-05-11_19h34.55.129,classification_task,2021.2.3,MacIntel,60.14675809,627c6715c52fd12f31907bd0,,,,,,,,,,,,,,,,,,,,,,,l,0,1.0495,"[""0.237"",""0.427"",""0.569"",""0.878""]","[1,1,0,1]",0,51,51,51,1,0,0,,,1,FALSE,,,,,,,,,,,,,,,,,,,,,,,,,,,,,,,
,613cfec42b4571e6552c3019,627c6fa16f4dd69f76734257,2022-05-11_19h34.55.129,classification_task,2021.2.3,MacIntel,60.14675809,627c6715c52fd12f31907bd0,,,,,,,,,,,,,,,,,,,,,,,a,0,0.5805,"[""0.080"",""0.304"",""0.569"",""0.830""]","[1,1,0,1]",0,52,52,52,1,1,0,,,1,FALSE,,,,,,,,,,,,,,,,,,,,,,,,,,,,,,,
,613cfec42b4571e6552c3019,627c6fa16f4dd69f76734257,2022-05-11_19h34.55.129,classification_task,2021.2.3,MacIntel,60.14675809,627c6715c52fd12f31907bd0,,,,,,,,,,,,,,,,,,,,,,,l,1,0.6144,"[""0.635"",""0.304"",""0.535"",""0.830""]","[0,1,1,1]",0,53,53,53,1,1,0,,,1,FALSE,,,,,,,,,,,,,,,,,,,,,,,,,,,,,,,
,613cfec42b4571e6552c3019,627c6fa16f4dd69f76734257,2022-05-11_19h34.55.129,classification_task,2021.2.3,MacIntel,60.14675809,627c6715c52fd12f31907bd0,,,,,,,,,,,,,,,,,,,,,,,a,0,1.2479,"[""0.080"",""0.304"",""0.535"",""0.569""]","[1,1,1,0]",0,54,54,54,1,1,0,,,1,FALSE,,,,,,,,,,,,,,,,,,,,,,,,,,,,,,,
,613cfec42b4571e6552c3019,627c6fa16f4dd69f76734257,2022-05-11_19h34.55.129,classification_task,2021.2.3,MacIntel,60.14675809,627c6715c52fd12f31907bd0,,,,,,,,,,,,,,,,,,,,,,,a,1,0.9792,"[""0.577"",""0.393"",""0.941"",""0.975""]","[0,1,1,1]",0,55,55,55,1,0,1,,,1,FALSE,,,,,,,,,,,,,,,,,,,,,,,,,,,,,,,
,613cfec42b4571e6552c3019,627c6fa16f4dd69f76734257,2022-05-11_19h34.55.129,classification_task,2021.2.3,MacIntel,60.14675809,627c6715c52fd12f31907bd0,,,,,,,,,,,,,,,,,,,,,,,l,1,0.9505,"[""0.080"",""0.137"",""0.535"",""0.830""]","[1,0,1,1]",0,56,56,56,1,1,0,,,1,FALSE,,,,,,,,,,,,,,,,,,,,,,,,,,,,,,,
,613cfec42b4571e6552c3019,627c6fa16f4dd69f76734257,2022-05-11_19h34.55.129,classification_task,2021.2.3,MacIntel,60.14675809,627c6715c52fd12f31907bd0,,,,,,,,,,,,,,,,,,,,,,,a,0,0.9637,"[""0.030"",""0.338"",""0.754"",""0.788""]","[1,1,0,1]",0,57,57,57,1,1,1,,,1,FALSE,,,,,,,,,,,,,,,,,,,,,,,,,,,,,,,
,613cfec42b4571e6552c3019,627c6fa16f4dd69f76734257,2022-05-11_19h34.55.129,classification_task,2021.2.3,MacIntel,60.14675809,627c6715c52fd12f31907bd0,,,,,,,,,,,,,,,,,,,,,,,l,0,0.8337,"[""0.177"",""0.754"",""0.941"",""0.975""]","[1,0,1,1]",0,58,58,58,1,0,1,,,1,FALSE,,,,,,,,,,,,,,,,,,,,,,,,,,,,,,,
,613cfec42b4571e6552c3019,627c6fa16f4dd69f76734257,2022-05-11_19h34.55.129,classification_task,2021.2.3,MacIntel,60.14675809,627c6715c52fd12f31907bd0,,,,,,,,,,,,,,,,,,,,,,,l,1,1.296,"[""0.030"",""0.338"",""0.481"",""0.754""]","[1,1,1,0]",0,59,59,59,1,1,1,,,1,FALSE,,,,,,,,,,,,,,,,,,,,,,,,,,,,,,,
,613cfec42b4571e6552c3019,627c6fa16f4dd69f76734257,2022-05-11_19h34.55.129,classification_task,2021.2.3,MacIntel,60.14675809,627c6715c52fd12f31907bd0,,,,,,,,,,,,,,,,,,,,,,,l,0,1.0454,"[""0.732"",""0.427"",""0.681"",""0.878""]","[0,1,1,1]",0,60,60,60,1,0,0,,,1,FALSE,,,,,,,,,,,,,,,,,,,,,,,,,,,,,,,
,613cfec42b4571e6552c3019,627c6fa16f4dd69f76734257,2022-05-11_19h34.55.129,classification_task,2021.2.3,MacIntel,60.14675809,627c6715c52fd12f31907bd0,,,,,,,,,,,,,,,,,,,,,,,l,0,1.1467,"[""0.177"",""0.393"",""0.941"",""0.577""]","[1,1,1,0]",0,61,61,61,1,0,1,,,1,FALSE,,,,,,,,,,,,,,,,,,,,,,,,,,,,,,,
,613cfec42b4571e6552c3019,627c6fa16f4dd69f76734257,2022-05-11_19h34.55.129,classification_task,2021.2.3,MacIntel,60.14675809,627c6715c52fd12f31907bd0,,,,,,,,,,,,,,,,,,,,,,,a,0,0.8855,"[""0.030"",""0.732"",""0.481"",""0.788""]","[1,0,1,1]",0,62,62,62,1,1,1,,,1,FALSE,,,,,,,,,,,,,,,,,,,,,,,,,,,,,,,
,613cfec42b4571e6552c3019,627c6fa16f4dd69f76734257,2022-05-11_19h34.55.129,classification_task,2021.2.3,MacIntel,60.14675809,627c6715c52fd12f31907bd0,,,,,,,,,,,,,,,,,,,,,,,a,1,0.648,"[""0.237"",""0.427"",""0.681"",""0.749""]","[1,1,1,0]",0,63,63,63,1,0,0,,,1,FALSE,,,,,,,,,,,,,,,,,,,,,,,,,,,,,,,
,613cfec42b4571e6552c3019,627c6fa16f4dd69f76734257,2022-05-11_19h34.55.129,classification_task,2021.2.3,MacIntel,60.14675809,627c6715c52fd12f31907bd0,,,,,,,,,,,,,,,,,,,,,,,,,,,,,,,,,,,,,,,0, ,,0,0,347.1087,0,0,0,0,1,2,1,,,,,,,,,,,,,,,,,,
,613cfec42b4571e6552c3019,627c6fa16f4dd69f76734257,2022-05-11_19h34.55.129,classification_task,2021.2.3,MacIntel,60.14675809,627c6715c52fd12f31907bd0,,,,,,,,,,,,,,,,,,,,,,,,,,,,,,,,,,,,,,,1,  ,,0,6.051613137,353.9592,0,0,0,0,1,2,1,,,,,,,,,,,,,,,,,,
,613cfec42b4571e6552c3019,627c6fa16f4dd69f76734257,2022-05-11_19h34.55.129,classification_task,2021.2.3,MacIntel,60.14675809,627c6715c52fd12f31907bd0,,,,,,,,,,,,,,,,,,,,,,,,,,,,,,,,,,,,,,,2,  ,,0,6.098891162,364.8578,0,0,0,0,1,2,1,,,,,,,,,,,,,,,,,,
,613cfec42b4571e6552c3019,627c6fa16f4dd69f76734257,2022-05-11_19h34.55.129,classification_task,2021.2.3,MacIntel,60.14675809,627c6715c52fd12f31907bd0,,,,,,,,,,,,,,,,,,,,,,,,,,,,,,,,,,,,,,,,,,,,,0,0,0,0,1,,1,,,,,,,,,,,,,,,,,,
,613cfec42b4571e6552c3019,627c6fa16f4dd69f76734257,2022-05-11_19h34.55.129,classification_task,2021.2.3,MacIntel,60.14675809,627c6715c52fd12f31907bd0,,,,,,,,,,,,,,,,,,,,,space,6.8127,l,0,2.0105,"[""0.635"",""0.427"",""0.681"",""0.878""]","[0,1,1,1]",0,0,0,0,1,0,0,,,1,FALSE,,,,,,,,,,,,,,,,,,,,,,,,,,,,,,,
,613cfec42b4571e6552c3019,627c6fa16f4dd69f76734257,2022-05-11_19h34.55.129,classification_task,2021.2.3,MacIntel,60.14675809,627c6715c52fd12f31907bd0,,,,,,,,,,,,,,,,,,,,,,,a,0,0.5929,"[""0.080"",""0.304"",""0.633"",""0.830""]","[1,1,0,1]",0,1,1,1,1,1,0,,,1,FALSE,,,,,,,,,,,,,,,,,,,,,,,,,,,,,,,
,613cfec42b4571e6552c3019,627c6fa16f4dd69f76734257,2022-05-11_19h34.55.129,classification_task,2021.2.3,MacIntel,60.14675809,627c6715c52fd12f31907bd0,,,,,,,,,,,,,,,,,,,,,,,a,0,0.6687,"[""0.080"",""0.304"",""0.535"",""0.749""]","[1,1,1,0]",0,2,2,2,1,1,0,,,1,FALSE,,,,,,,,,,,,,,,,,,,,,,,,,,,,,,,
,613cfec42b4571e6552c3019,627c6fa16f4dd69f76734257,2022-05-11_19h34.55.129,classification_task,2021.2.3,MacIntel,60.14675809,627c6715c52fd12f31907bd0,,,,,,,,,,,,,,,,,,,,,,,l,1,3.5717,"[""0.030"",""0.338"",""0.131"",""0.788""]","[1,1,0,1]",0,3,3,3,1,1,1,,,1,FALSE,,,,,,,,,,,,,,,,,,,,,,,,,,,,,,,
,613cfec42b4571e6552c3019,627c6fa16f4dd69f76734257,2022-05-11_19h34.55.129,classification_task,2021.2.3,MacIntel,60.14675809,627c6715c52fd12f31907bd0,,,,,,,,,,,,,,,,,,,,,,,a,1,2.0762,"[""0.237"",""0.427"",""0.681"",""0.643""]","[1,1,1,0]",0,4,4,4,1,0,0,,,1,FALSE,,,,,,,,,,,,,,,,,,,,,,,,,,,,,,,
,613cfec42b4571e6552c3019,627c6fa16f4dd69f76734257,2022-05-11_19h34.55.129,classification_task,2021.2.3,MacIntel,60.14675809,627c6715c52fd12f31907bd0,,,,,,,,,,,,,,,,,,,,,,,l,1,0.8966,"[""0.030"",""0.338"",""0.481"",""0.569""]","[1,1,1,0]",0,5,5,5,1,1,1,,,1,FALSE,,,,,,,,,,,,,,,,,,,,,,,,,,,,,,,
,613cfec42b4571e6552c3019,627c6fa16f4dd69f76734257,2022-05-11_19h34.55.129,classification_task,2021.2.3,MacIntel,60.14675809,627c6715c52fd12f31907bd0,,,,,,,,,,,,,,,,,,,,,,,a,1,0.6289,"[""0.237"",""0.427"",""0.631"",""0.878""]","[1,1,0,1]",0,6,6,6,1,0,0,,,1,FALSE,,,,,,,,,,,,,,,,,,,,,,,,,,,,,,,
,613cfec42b4571e6552c3019,627c6fa16f4dd69f76734257,2022-05-11_19h34.55.129,classification_task,2021.2.3,MacIntel,60.14675809,627c6715c52fd12f31907bd0,,,,,,,,,,,,,,,,,,,,,,,l,1,0.4635,"[""0.030"",""0.728"",""0.481"",""0.788""]","[1,0,1,1]",0,7,7,7,1,1,1,,,1,FALSE,,,,,,,,,,,,,,,,,,,,,,,,,,,,,,,
,613cfec42b4571e6552c3019,627c6fa16f4dd69f76734257,2022-05-11_19h34.55.129,classification_task,2021.2.3,MacIntel,60.14675809,627c6715c52fd12f31907bd0,,,,,,,,,,,,,,,,,,,,,,,a,0,0.479,"[""0.080"",""0.569"",""0.535"",""0.830""]","[1,0,1,1]",0,8,8,8,1,1,0,,,1,FALSE,,,,,,,,,,,,,,,,,,,,,,,,,,,,,,,
,613cfec42b4571e6552c3019,627c6fa16f4dd69f76734257,2022-05-11_19h34.55.129,classification_task,2021.2.3,MacIntel,60.14675809,627c6715c52fd12f31907bd0,,,,,,,,,,,,,,,,,,,,,,,l,0,1.682,"[""0.237"",""0.643"",""0.681"",""0.878""]","[1,0,1,1]",0,9,9,9,1,0,0,,,1,FALSE,,,,,,,,,,,,,,,,,,,,,,,,,,,,,,,
,613cfec42b4571e6552c3019,627c6fa16f4dd69f76734257,2022-05-11_19h34.55.129,classification_task,2021.2.3,MacIntel,60.14675809,627c6715c52fd12f31907bd0,,,,,,,,,,,,,,,,,,,,,,,a,1,1.3634,"[""0.177"",""0.393"",""0.569"",""0.975""]","[1,1,0,1]",0,10,10,10,1,0,1,,,1,FALSE,,,,,,,,,,,,,,,,,,,,,,,,,,,,,,,
,613cfec42b4571e6552c3019,627c6fa16f4dd69f76734257,2022-05-11_19h34.55.129,classification_task,2021.2.3,MacIntel,60.14675809,627c6715c52fd12f31907bd0,,,,,,,,,,,,,,,,,,,,,,,l,1,0.581,"[""0.728"",""0.338"",""0.481"",""0.788""]","[0,1,1,1]",0,11,11,11,1,1,1,,,1,FALSE,,,,,,,,,,,,,,,,,,,,,,,,,,,,,,,
,613cfec42b4571e6552c3019,627c6fa16f4dd69f76734257,2022-05-11_19h34.55.129,classification_task,2021.2.3,MacIntel,60.14675809,627c6715c52fd12f31907bd0,,,,,,,,,,,,,,,,,,,,,,,a,0,1.0611,"[""0.137"",""0.304"",""0.535"",""0.830""]","[0,1,1,1]",0,12,12,12,1,1,0,,,1,FALSE,,,,,,,,,,,,,,,,,,,,,,,,,,,,,,,
,613cfec42b4571e6552c3019,627c6fa16f4dd69f76734257,2022-05-11_19h34.55.129,classification_task,2021.2.3,MacIntel,60.14675809,627c6715c52fd12f31907bd0,,,,,,,,,,,,,,,,,,,,,,,a,1,0.5823,"[""0.177"",""0.633"",""0.941"",""0.975""]","[1,0,1,1]",0,13,13,13,1,0,1,,,1,FALSE,,,,,,,,,,,,,,,,,,,,,,,,,,,,,,,
,613cfec42b4571e6552c3019,627c6fa16f4dd69f76734257,2022-05-11_19h34.55.129,classification_task,2021.2.3,MacIntel,60.14675809,627c6715c52fd12f31907bd0,,,,,,,,,,,,,,,,,,,,,,,a,1,0.598,"[""0.177"",""0.393"",""0.941"",""0.577""]","[1,1,1,0]",0,14,14,14,1,0,1,,,1,FALSE,,,,,,,,,,,,,,,,,,,,,,,,,,,,,,,
,613cfec42b4571e6552c3019,627c6fa16f4dd69f76734257,2022-05-11_19h34.55.129,classification_task,2021.2.3,MacIntel,60.14675809,627c6715c52fd12f31907bd0,,,,,,,,,,,,,,,,,,,,,,,a,1,0.7646,"[""0.728"",""0.393"",""0.941"",""0.975""]","[0,1,1,1]",0,15,15,15,1,0,1,,,1,FALSE,,,,,,,,,,,,,,,,,,,,,,,,,,,,,,,
,613cfec42b4571e6552c3019,627c6fa16f4dd69f76734257,2022-05-11_19h34.55.129,classification_task,2021.2.3,MacIntel,60.14675809,627c6715c52fd12f31907bd0,,,,,,,,,,,,,,,,,,,,,,,l,0,0.845,"[""0.237"",""0.427"",""0.141"",""0.878""]","[1,1,0,1]",0,16,16,16,1,0,0,,,1,FALSE,,,,,,,,,,,,,,,,,,,,,,,,,,,,,,,
,613cfec42b4571e6552c3019,627c6fa16f4dd69f76734257,2022-05-11_19h34.55.129,classification_task,2021.2.3,MacIntel,60.14675809,627c6715c52fd12f31907bd0,,,,,,,,,,,,,,,,,,,,,,,l,1,0.8,"[""0.080"",""0.643"",""0.535"",""0.830""]","[1,0,1,1]",0,17,17,17,1,1,0,,,1,FALSE,,,,,,,,,,,,,,,,,,,,,,,,,,,,,,,
,613cfec42b4571e6552c3019,627c6fa16f4dd69f76734257,2022-05-11_19h34.55.129,classification_task,2021.2.3,MacIntel,60.14675809,627c6715c52fd12f31907bd0,,,,,,,,,,,,,,,,,,,,,,,l,1,0.6618,"[""0.030"",""0.338"",""0.481"",""0.577""]","[1,1,1,0]",0,18,18,18,1,1,1,,,1,FALSE,,,,,,,,,,,,,,,,,,,,,,,,,,,,,,,
,613cfec42b4571e6552c3019,627c6fa16f4dd69f76734257,2022-05-11_19h34.55.129,classification_task,2021.2.3,MacIntel,60.14675809,627c6715c52fd12f31907bd0,,,,,,,,,,,,,,,,,,,,,,,l,1,0.6316,"[""0.030"",""0.137"",""0.481"",""0.788""]","[1,0,1,1]",0,19,19,19,1,1,1,,,1,FALSE,,,,,,,,,,,,,,,,,,,,,,,,,,,,,,,
,613cfec42b4571e6552c3019,627c6fa16f4dd69f76734257,2022-05-11_19h34.55.129,classification_task,2021.2.3,MacIntel,60.14675809,627c6715c52fd12f31907bd0,,,,,,,,,,,,,,,,,,,,,,,l,1,0.6971,"[""0.080"",""0.304"",""0.535"",""0.631""]","[1,1,1,0]",0,20,20,20,1,1,0,,,1,FALSE,,,,,,,,,,,,,,,,,,,,,,,,,,,,,,,
,613cfec42b4571e6552c3019,627c6fa16f4dd69f76734257,2022-05-11_19h34.55.129,classification_task,2021.2.3,MacIntel,60.14675809,627c6715c52fd12f31907bd0,,,,,,,,,,,,,,,,,,,,,,,a,1,0.6325,"[""0.177"",""0.393"",""0.749"",""0.975""]","[1,1,0,1]",0,21,21,21,1,0,1,,,1,FALSE,,,,,,,,,,,,,,,,,,,,,,,,,,,,,,,
,613cfec42b4571e6552c3019,627c6fa16f4dd69f76734257,2022-05-11_19h34.55.129,classification_task,2021.2.3,MacIntel,60.14675809,627c6715c52fd12f31907bd0,,,,,,,,,,,,,,,,,,,,,,,l,1,0.8122,"[""0.631"",""0.304"",""0.535"",""0.830""]","[0,1,1,1]",0,22,22,22,1,1,0,,,1,FALSE,,,,,,,,,,,,,,,,,,,,,,,,,,,,,,,
,613cfec42b4571e6552c3019,627c6fa16f4dd69f76734257,2022-05-11_19h34.55.129,classification_task,2021.2.3,MacIntel,60.14675809,627c6715c52fd12f31907bd0,,,,,,,,,,,,,,,,,,,,,,,l,1,0.7987,"[""0.030"",""0.338"",""0.137"",""0.788""]","[1,1,0,1]",0,23,23,23,1,1,1,,,1,FALSE,,,,,,,,,,,,,,,,,,,,,,,,,,,,,,,
,613cfec42b4571e6552c3019,627c6fa16f4dd69f76734257,2022-05-11_19h34.55.129,classification_task,2021.2.3,MacIntel,60.14675809,627c6715c52fd12f31907bd0,,,,,,,,,,,,,,,,,,,,,,,a,1,0.8348,"[""0.237"",""0.715"",""0.681"",""0.878""]","[1,0,1,1]",0,24,24,24,1,0,0,,,1,FALSE,,,,,,,,,,,,,,,,,,,,,,,,,,,,,,,
,613cfec42b4571e6552c3019,627c6fa16f4dd69f76734257,2022-05-11_19h34.55.129,classification_task,2021.2.3,MacIntel,60.14675809,627c6715c52fd12f31907bd0,,,,,,,,,,,,,,,,,,,,,,,a,1,0.4962,"[""0.177"",""0.393"",""0.941"",""0.635""]","[1,1,1,0]",0,25,25,25,1,0,1,,,1,FALSE,,,,,,,,,,,,,,,,,,,,,,,,,,,,,,,
,613cfec42b4571e6552c3019,627c6fa16f4dd69f76734257,2022-05-11_19h34.55.129,classification_task,2021.2.3,MacIntel,60.14675809,627c6715c52fd12f31907bd0,,,,,,,,,,,,,,,,,,,,,,,a,1,0.499,"[""0.141"",""0.393"",""0.941"",""0.975""]","[0,1,1,1]",0,26,26,26,1,0,1,,,1,FALSE,,,,,,,,,,,,,,,,,,,,,,,,,,,,,,,
,613cfec42b4571e6552c3019,627c6fa16f4dd69f76734257,2022-05-11_19h34.55.129,classification_task,2021.2.3,MacIntel,60.14675809,627c6715c52fd12f31907bd0,,,,,,,,,,,,,,,,,,,,,,,a,1,0.9972,"[""0.237"",""0.427"",""0.681"",""0.577""]","[1,1,1,0]",0,27,27,27,1,0,0,,,1,FALSE,,,,,,,,,,,,,,,,,,,,,,,,,,,,,,,
,613cfec42b4571e6552c3019,627c6fa16f4dd69f76734257,2022-05-11_19h34.55.129,classification_task,2021.2.3,MacIntel,60.14675809,627c6715c52fd12f31907bd0,,,,,,,,,,,,,,,,,,,,,,,a,0,0.7517,"[""0.080"",""0.304"",""0.732"",""0.830""]","[1,1,0,1]",0,28,28,28,1,1,0,,,1,FALSE,,,,,,,,,,,,,,,,,,,,,,,,,,,,,,,
,613cfec42b4571e6552c3019,627c6fa16f4dd69f76734257,2022-05-11_19h34.55.129,classification_task,2021.2.3,MacIntel,60.14675809,627c6715c52fd12f31907bd0,,,,,,,,,,,,,,,,,,,,,,,l,1,0.4117,"[""0.715"",""0.338"",""0.481"",""0.788""]","[0,1,1,1]",0,29,29,29,1,1,1,,,1,FALSE,,,,,,,,,,,,,,,,,,,,,,,,,,,,,,,
,613cfec42b4571e6552c3019,627c6fa16f4dd69f76734257,2022-05-11_19h34.55.129,classification_task,2021.2.3,MacIntel,60.14675809,627c6715c52fd12f31907bd0,,,,,,,,,,,,,,,,,,,,,,,l,0,0.5841,"[""0.131"",""0.427"",""0.681"",""0.878""]","[0,1,1,1]",0,30,30,30,1,0,0,,,1,FALSE,,,,,,,,,,,,,,,,,,,,,,,,,,,,,,,
,613cfec42b4571e6552c3019,627c6fa16f4dd69f76734257,2022-05-11_19h34.55.129,classification_task,2021.2.3,MacIntel,60.14675809,627c6715c52fd12f31907bd0,,,,,,,,,,,,,,,,,,,,,,,a,1,0.6332,"[""0.177"",""0.732"",""0.941"",""0.975""]","[1,0,1,1]",0,31,31,31,1,0,1,,,1,FALSE,,,,,,,,,,,,,,,,,,,,,,,,,,,,,,,
,613cfec42b4571e6552c3019,627c6fa16f4dd69f76734257,2022-05-11_19h34.55.129,classification_task,2021.2.3,MacIntel,60.14675809,627c6715c52fd12f31907bd0,,,,,,,,,,,,,,,,,,,,,,,a,1,0.4156,"[""0.177"",""0.754"",""0.941"",""0.975""]","[1,0,1,1]",0,32,32,32,1,0,1,,,1,FALSE,,,,,,,,,,,,,,,,,,,,,,,,,,,,,,,
,613cfec42b4571e6552c3019,627c6fa16f4dd69f76734257,2022-05-11_19h34.55.129,classification_task,2021.2.3,MacIntel,60.14675809,627c6715c52fd12f31907bd0,,,,,,,,,,,,,,,,,,,,,,,a,1,0.5498,"[""0.177"",""0.393"",""0.141"",""0.975""]","[1,1,0,1]",0,33,33,33,1,0,1,,,1,FALSE,,,,,,,,,,,,,,,,,,,,,,,,,,,,,,,
,613cfec42b4571e6552c3019,627c6fa16f4dd69f76734257,2022-05-11_19h34.55.129,classification_task,2021.2.3,MacIntel,60.14675809,627c6715c52fd12f31907bd0,,,,,,,,,,,,,,,,,,,,,,,l,1,0.6453,"[""0.080"",""0.304"",""0.633"",""0.830""]","[1,1,0,1]",0,34,34,34,1,1,0,,,1,FALSE,,,,,,,,,,,,,,,,,,,,,,,,,,,,,,,
,613cfec42b4571e6552c3019,627c6fa16f4dd69f76734257,2022-05-11_19h34.55.129,classification_task,2021.2.3,MacIntel,60.14675809,627c6715c52fd12f31907bd0,,,,,,,,,,,,,,,,,,,,,,,l,0,0.7521,"[""0.237"",""0.427"",""0.732"",""0.878""]","[1,1,0,1]",0,35,35,35,1,0,0,,,1,FALSE,,,,,,,,,,,,,,,,,,,,,,,,,,,,,,,
,613cfec42b4571e6552c3019,627c6fa16f4dd69f76734257,2022-05-11_19h34.55.129,classification_task,2021.2.3,MacIntel,60.14675809,627c6715c52fd12f31907bd0,,,,,,,,,,,,,,,,,,,,,,,l,1,0.7125,"[""0.030"",""0.728"",""0.481"",""0.788""]","[1,0,1,1]",0,36,36,36,1,1,1,,,1,FALSE,,,,,,,,,,,,,,,,,,,,,,,,,,,,,,,
,613cfec42b4571e6552c3019,627c6fa16f4dd69f76734257,2022-05-11_19h34.55.129,classification_task,2021.2.3,MacIntel,60.14675809,627c6715c52fd12f31907bd0,,,,,,,,,,,,,,,,,,,,,,,l,0,1.3771,"[""0.237"",""0.427"",""0.681"",""0.577""]","[1,1,1,0]",0,37,37,37,1,0,0,,,1,FALSE,,,,,,,,,,,,,,,,,,,,,,,,,,,,,,,
,613cfec42b4571e6552c3019,627c6fa16f4dd69f76734257,2022-05-11_19h34.55.129,classification_task,2021.2.3,MacIntel,60.14675809,627c6715c52fd12f31907bd0,,,,,,,,,,,,,,,,,,,,,,,a,1,0.5177,"[""0.749"",""0.393"",""0.941"",""0.975""]","[0,1,1,1]",0,38,38,38,1,0,1,,,1,FALSE,,,,,,,,,,,,,,,,,,,,,,,,,,,,,,,
,613cfec42b4571e6552c3019,627c6fa16f4dd69f76734257,2022-05-11_19h34.55.129,classification_task,2021.2.3,MacIntel,60.14675809,627c6715c52fd12f31907bd0,,,,,,,,,,,,,,,,,,,,,,,l,1,0.4988,"[""0.030"",""0.338"",""0.577"",""0.788""]","[1,1,0,1]",0,39,39,39,1,1,1,,,1,FALSE,,,,,,,,,,,,,,,,,,,,,,,,,,,,,,,
,613cfec42b4571e6552c3019,627c6fa16f4dd69f76734257,2022-05-11_19h34.55.129,classification_task,2021.2.3,MacIntel,60.14675809,627c6715c52fd12f31907bd0,,,,,,,,,,,,,,,,,,,,,,,l,1,0.8808,"[""0.030"",""0.338"",""0.481"",""0.633""]","[1,1,1,0]",0,40,40,40,1,1,1,,,1,FALSE,,,,,,,,,,,,,,,,,,,,,,,,,,,,,,,
,613cfec42b4571e6552c3019,627c6fa16f4dd69f76734257,2022-05-11_19h34.55.129,classification_task,2021.2.3,MacIntel,60.14675809,627c6715c52fd12f31907bd0,,,,,,,,,,,,,,,,,,,,,,,l,0,0.8295,"[""0.237"",""0.633"",""0.681"",""0.878""]","[1,0,1,1]",0,41,41,41,1,0,0,,,1,FALSE,,,,,,,,,,,,,,,,,,,,,,,,,,,,,,,
,613cfec42b4571e6552c3019,627c6fa16f4dd69f76734257,2022-05-11_19h34.55.129,classification_task,2021.2.3,MacIntel,60.14675809,627c6715c52fd12f31907bd0,,,,,,,,,,,,,,,,,,,,,,,a,0,0.7354,"[""0.080"",""0.635"",""0.535"",""0.830""]","[1,0,1,1]",0,42,42,42,1,1,0,,,1,FALSE,,,,,,,,,,,,,,,,,,,,,,,,,,,,,,,
,613cfec42b4571e6552c3019,627c6fa16f4dd69f76734257,2022-05-11_19h34.55.129,classification_task,2021.2.3,MacIntel,60.14675809,627c6715c52fd12f31907bd0,,,,,,,,,,,,,,,,,,,,,,,l,1,0.7813,"[""0.080"",""0.304"",""0.535"",""0.643""]","[1,1,1,0]",0,43,43,43,1,1,0,,,1,FALSE,,,,,,,,,,,,,,,,,,,,,,,,,,,,,,,
,613cfec42b4571e6552c3019,627c6fa16f4dd69f76734257,2022-05-11_19h34.55.129,classification_task,2021.2.3,MacIntel,60.14675809,627c6715c52fd12f31907bd0,,,,,,,,,,,,,,,,,,,,,,,l,0,0.5817,"[""0.576"",""0.427"",""0.681"",""0.878""]","[0,1,1,1]",0,44,44,44,1,0,0,,,1,FALSE,,,,,,,,,,,,,,,,,,,,,,,,,,,,,,,
,613cfec42b4571e6552c3019,627c6fa16f4dd69f76734257,2022-05-11_19h34.55.129,classification_task,2021.2.3,MacIntel,60.14675809,627c6715c52fd12f31907bd0,,,,,,,,,,,,,,,,,,,,,,,l,1,0.6301,"[""0.131"",""0.338"",""0.481"",""0.788""]","[0,1,1,1]",0,45,45,45,1,1,1,,,1,FALSE,,,,,,,,,,,,,,,,,,,,,,,,,,,,,,,
,613cfec42b4571e6552c3019,627c6fa16f4dd69f76734257,2022-05-11_19h34.55.129,classification_task,2021.2.3,MacIntel,60.14675809,627c6715c52fd12f31907bd0,,,,,,,,,,,,,,,,,,,,,,,a,1,0.4797,"[""0.177"",""0.393"",""0.941"",""0.732""]","[1,1,1,0]",0,46,46,46,1,0,1,,,1,FALSE,,,,,,,,,,,,,,,,,,,,,,,,,,,,,,,
,613cfec42b4571e6552c3019,627c6fa16f4dd69f76734257,2022-05-11_19h34.55.129,classification_task,2021.2.3,MacIntel,60.14675809,627c6715c52fd12f31907bd0,,,,,,,,,,,,,,,,,,,,,,,l,1,1.1323,"[""0.728"",""0.304"",""0.535"",""0.830""]","[0,1,1,1]",0,47,47,47,1,1,0,,,1,FALSE,,,,,,,,,,,,,,,,,,,,,,,,,,,,,,,
,613cfec42b4571e6552c3019,627c6fa16f4dd69f76734257,2022-05-11_19h34.55.129,classification_task,2021.2.3,MacIntel,60.14675809,627c6715c52fd12f31907bd0,,,,,,,,,,,,,,,,,,,,,,,a,0,0.6648,"[""0.080"",""0.635"",""0.535"",""0.830""]","[1,0,1,1]",0,48,48,48,1,1,0,,,1,FALSE,,,,,,,,,,,,,,,,,,,,,,,,,,,,,,,
,613cfec42b4571e6552c3019,627c6fa16f4dd69f76734257,2022-05-11_19h34.55.129,classification_task,2021.2.3,MacIntel,60.14675809,627c6715c52fd12f31907bd0,,,,,,,,,,,,,,,,,,,,,,,a,1,0.7118,"[""0.643"",""0.393"",""0.941"",""0.975""]","[0,1,1,1]",0,49,49,49,1,0,1,,,1,FALSE,,,,,,,,,,,,,,,,,,,,,,,,,,,,,,,
,613cfec42b4571e6552c3019,627c6fa16f4dd69f76734257,2022-05-11_19h34.55.129,classification_task,2021.2.3,MacIntel,60.14675809,627c6715c52fd12f31907bd0,,,,,,,,,,,,,,,,,,,,,,,a,0,0.8827,"[""0.080"",""0.304"",""0.535"",""0.577""]","[1,1,1,0]",0,50,50,50,1,1,0,,,1,FALSE,,,,,,,,,,,,,,,,,,,,,,,,,,,,,,,
,613cfec42b4571e6552c3019,627c6fa16f4dd69f76734257,2022-05-11_19h34.55.129,classification_task,2021.2.3,MacIntel,60.14675809,627c6715c52fd12f31907bd0,,,,,,,,,,,,,,,,,,,,,,,a,1,0.3979,"[""0.177"",""0.754"",""0.941"",""0.975""]","[1,0,1,1]",0,51,51,51,1,0,1,,,1,FALSE,,,,,,,,,,,,,,,,,,,,,,,,,,,,,,,
,613cfec42b4571e6552c3019,627c6fa16f4dd69f76734257,2022-05-11_19h34.55.129,classification_task,2021.2.3,MacIntel,60.14675809,627c6715c52fd12f31907bd0,,,,,,,,,,,,,,,,,,,,,,,l,0,0.8947,"[""0.237"",""0.427"",""0.728"",""0.878""]","[1,1,0,1]",0,52,52,52,1,0,0,,,1,FALSE,,,,,,,,,,,,,,,,,,,,,,,,,,,,,,,
,613cfec42b4571e6552c3019,627c6fa16f4dd69f76734257,2022-05-11_19h34.55.129,classification_task,2021.2.3,MacIntel,60.14675809,627c6715c52fd12f31907bd0,,,,,,,,,,,,,,,,,,,,,,,l,1,0.6651,"[""0.080"",""0.304"",""0.732"",""0.830""]","[1,1,0,1]",0,53,53,53,1,1,0,,,1,FALSE,,,,,,,,,,,,,,,,,,,,,,,,,,,,,,,
,613cfec42b4571e6552c3019,627c6fa16f4dd69f76734257,2022-05-11_19h34.55.129,classification_task,2021.2.3,MacIntel,60.14675809,627c6715c52fd12f31907bd0,,,,,,,,,,,,,,,,,,,,,,,a,1,0.816,"[""0.237"",""0.427"",""0.681"",""0.576""]","[1,1,1,0]",0,54,54,54,1,0,0,,,1,FALSE,,,,,,,,,,,,,,,,,,,,,,,,,,,,,,,
,613cfec42b4571e6552c3019,627c6fa16f4dd69f76734257,2022-05-11_19h34.55.129,classification_task,2021.2.3,MacIntel,60.14675809,627c6715c52fd12f31907bd0,,,,,,,,,,,,,,,,,,,,,,,l,0,0.6993,"[""0.749"",""0.427"",""0.681"",""0.878""]","[0,1,1,1]",0,55,55,55,1,0,0,,,1,FALSE,,,,,,,,,,,,,,,,,,,,,,,,,,,,,,,
,613cfec42b4571e6552c3019,627c6fa16f4dd69f76734257,2022-05-11_19h34.55.129,classification_task,2021.2.3,MacIntel,60.14675809,627c6715c52fd12f31907bd0,,,,,,,,,,,,,,,,,,,,,,,a,1,0.6653,"[""0.177"",""0.393"",""0.728"",""0.975""]","[1,1,0,1]",0,56,56,56,1,0,1,,,1,FALSE,,,,,,,,,,,,,,,,,,,,,,,,,,,,,,,
,613cfec42b4571e6552c3019,627c6fa16f4dd69f76734257,2022-05-11_19h34.55.129,classification_task,2021.2.3,MacIntel,60.14675809,627c6715c52fd12f31907bd0,,,,,,,,,,,,,,,,,,,,,,,a,0,1.3791,"[""0.754"",""0.304"",""0.535"",""0.830""]","[0,1,1,1]",0,57,57,57,1,1,0,,,1,FALSE,,,,,,,,,,,,,,,,,,,,,,,,,,,,,,,
,613cfec42b4571e6552c3019,627c6fa16f4dd69f76734257,2022-05-11_19h34.55.129,classification_task,2021.2.3,MacIntel,60.14675809,627c6715c52fd12f31907bd0,,,,,,,,,,,,,,,,,,,,,,,a,0,0.5472,"[""0.030"",""0.338"",""0.635"",""0.788""]","[1,1,0,1]",0,58,58,58,1,1,1,,,1,FALSE,,,,,,,,,,,,,,,,,,,,,,,,,,,,,,,
,613cfec42b4571e6552c3019,627c6fa16f4dd69f76734257,2022-05-11_19h34.55.129,classification_task,2021.2.3,MacIntel,60.14675809,627c6715c52fd12f31907bd0,,,,,,,,,,,,,,,,,,,,,,,a,1,0.4646,"[""0.177"",""0.393"",""0.941"",""0.728""]","[1,1,1,0]",0,59,59,59,1,0,1,,,1,FALSE,,,,,,,,,,,,,,,,,,,,,,,,,,,,,,,
,613cfec42b4571e6552c3019,627c6fa16f4dd69f76734257,2022-05-11_19h34.55.129,classification_task,2021.2.3,MacIntel,60.14675809,627c6715c52fd12f31907bd0,,,,,,,,,,,,,,,,,,,,,,,l,1,0.7471,"[""0.030"",""0.338"",""0.481"",""0.577""]","[1,1,1,0]",0,60,60,60,1,1,1,,,1,FALSE,,,,,,,,,,,,,,,,,,,,,,,,,,,,,,,
,613cfec42b4571e6552c3019,627c6fa16f4dd69f76734257,2022-05-11_19h34.55.129,classification_task,2021.2.3,MacIntel,60.14675809,627c6715c52fd12f31907bd0,,,,,,,,,,,,,,,,,,,,,,,l,0,0.678,"[""0.237"",""0.137"",""0.681"",""0.878""]","[1,0,1,1]",0,61,61,61,1,0,0,,,1,FALSE,,,,,,,,,,,,,,,,,,,,,,,,,,,,,,,
,613cfec42b4571e6552c3019,627c6fa16f4dd69f76734257,2022-05-11_19h34.55.129,classification_task,2021.2.3,MacIntel,60.14675809,627c6715c52fd12f31907bd0,,,,,,,,,,,,,,,,,,,,,,,l,1,0.5965,"[""0.141"",""0.338"",""0.481"",""0.788""]","[0,1,1,1]",0,62,62,62,1,1,1,,,1,FALSE,,,,,,,,,,,,,,,,,,,,,,,,,,,,,,,
,613cfec42b4571e6552c3019,627c6fa16f4dd69f76734257,2022-05-11_19h34.55.129,classification_task,2021.2.3,MacIntel,60.14675809,627c6715c52fd12f31907bd0,,,,,,,,,,,,,,,,,,,,,,,l,1,0.598,"[""0.030"",""0.569"",""0.481"",""0.788""]","[1,0,1,1]",0,63,63,63,1,1,1,,,1,FALSE,,,,,,,,,,,,,,,,,,,,,,,,,,,,,,,
,613cfec42b4571e6552c3019,627c6fa16f4dd69f76734257,2022-05-11_19h34.55.129,classification_task,2021.2.3,MacIntel,60.14675809,627c6715c52fd12f31907bd0,,,,,,,,,,,,,,,,,,,,,,,,,,,,,,,,,,,,,,,0, ,,0,5.482210028,133.878,0,1,1,1,1,2,2,,,,,,,,,,,,,,,,,,
,613cfec42b4571e6552c3019,627c6fa16f4dd69f76734257,2022-05-11_19h34.55.129,classification_task,2021.2.3,MacIntel,60.14675809,627c6715c52fd12f31907bd0,,,,,,,,,,,,,,,,,,,,,,,,,,,,,,,,,,,,,,,1,  ,,0,6.654989253,135.2899,0,1,1,1,1,2,2,,,,,,,,,,,,,,,,,,
,613cfec42b4571e6552c3019,627c6fa16f4dd69f76734257,2022-05-11_19h34.55.129,classification_task,2021.2.3,MacIntel,60.14675809,627c6715c52fd12f31907bd0,,,,,,,,,,,,,,,,,,,,,,,,,,,,,,,,,,,,,,,2,  ,,0,6.97353464,136.8724,0,1,1,1,1,2,2,,,,,,,,,,,,,,,,,,
,613cfec42b4571e6552c3019,627c6fa16f4dd69f76734257,2022-05-11_19h34.55.129,classification_task,2021.2.3,MacIntel,60.14675809,627c6715c52fd12f31907bd0,,,,,,,,,,,,,,,,,,,,,,,,,,,,,,,,,,,,,,,,,,,,,0,1,1,1,1,,2,,,,,,,,,,,,,,,,,,
,613cfec42b4571e6552c3019,627c6fa16f4dd69f76734257,2022-05-11_19h34.55.129,classification_task,2021.2.3,MacIntel,60.14675809,627c6715c52fd12f31907bd0,,,,,,,,,,,,,,,,,,,,,space,7.3819,a,0,0.953,"[""0.137"",""0.304"",""0.535"",""0.830""]","[0,1,1,1]",0,0,0,0,1,1,0,,,1,FALSE,,,,,,,,,,,,,,,,,,,,,,,,,,,,,,,
,613cfec42b4571e6552c3019,627c6fa16f4dd69f76734257,2022-05-11_19h34.55.129,classification_task,2021.2.3,MacIntel,60.14675809,627c6715c52fd12f31907bd0,,,,,,,,,,,,,,,,,,,,,,,l,0,2.4091,"[""0.177"",""0.393"",""0.941"",""0.715""]","[1,1,1,0]",0,1,1,1,1,0,1,,,1,FALSE,,,,,,,,,,,,,,,,,,,,,,,,,,,,,,,
,613cfec42b4571e6552c3019,627c6fa16f4dd69f76734257,2022-05-11_19h34.55.129,classification_task,2021.2.3,MacIntel,60.14675809,627c6715c52fd12f31907bd0,,,,,,,,,,,,,,,,,,,,,,,l,1,0.7232,"[""0.030"",""0.338"",""0.631"",""0.788""]","[1,1,0,1]",0,2,2,2,1,1,1,,,1,FALSE,,,,,,,,,,,,,,,,,,,,,,,,,,,,,,,
,613cfec42b4571e6552c3019,627c6fa16f4dd69f76734257,2022-05-11_19h34.55.129,classification_task,2021.2.3,MacIntel,60.14675809,627c6715c52fd12f31907bd0,,,,,,,,,,,,,,,,,,,,,,,l,0,0.8139,"[""0.569"",""0.393"",""0.941"",""0.975""]","[0,1,1,1]",0,3,3,3,1,0,1,,,1,FALSE,,,,,,,,,,,,,,,,,,,,,,,,,,,,,,,
,613cfec42b4571e6552c3019,627c6fa16f4dd69f76734257,2022-05-11_19h34.55.129,classification_task,2021.2.3,MacIntel,60.14675809,627c6715c52fd12f31907bd0,,,,,,,,,,,,,,,,,,,,,,,a,0,0.432,"[""0.030"",""0.338"",""0.481"",""0.635""]","[1,1,1,0]",0,4,4,4,1,1,1,,,1,FALSE,,,,,,,,,,,,,,,,,,,,,,,,,,,,,,,
,613cfec42b4571e6552c3019,627c6fa16f4dd69f76734257,2022-05-11_19h34.55.129,classification_task,2021.2.3,MacIntel,60.14675809,627c6715c52fd12f31907bd0,,,,,,,,,,,,,,,,,,,,,,,l,0,0.8489,"[""0.177"",""0.569"",""0.941"",""0.975""]","[1,0,1,1]",0,5,5,5,1,0,1,,,1,FALSE,,,,,,,,,,,,,,,,,,,,,,,,,,,,,,,
,613cfec42b4571e6552c3019,627c6fa16f4dd69f76734257,2022-05-11_19h34.55.129,classification_task,2021.2.3,MacIntel,60.14675809,627c6715c52fd12f31907bd0,,,,,,,,,,,,,,,,,,,,,,,l,1,0.9475,"[""0.080"",""0.749"",""0.535"",""0.830""]","[1,0,1,1]",0,6,6,6,1,1,0,,,1,FALSE,,,,,,,,,,,,,,,,,,,,,,,,,,,,,,,
,613cfec42b4571e6552c3019,627c6fa16f4dd69f76734257,2022-05-11_19h34.55.129,classification_task,2021.2.3,MacIntel,60.14675809,627c6715c52fd12f31907bd0,,,,,,,,,,,,,,,,,,,,,,,l,0,0.6982,"[""0.569"",""0.427"",""0.681"",""0.878""]","[0,1,1,1]",0,7,7,7,1,0,0,,,1,FALSE,,,,,,,,,,,,,,,,,,,,,,,,,,,,,,,
,613cfec42b4571e6552c3019,627c6fa16f4dd69f76734257,2022-05-11_19h34.55.129,classification_task,2021.2.3,MacIntel,60.14675809,627c6715c52fd12f31907bd0,,,,,,,,,,,,,,,,,,,,,,,a,1,0.5356,"[""0.237"",""0.427"",""0.681"",""0.137""]","[1,1,1,0]",0,8,8,8,1,0,0,,,1,FALSE,,,,,,,,,,,,,,,,,,,,,,,,,,,,,,,
,613cfec42b4571e6552c3019,627c6fa16f4dd69f76734257,2022-05-11_19h34.55.129,classification_task,2021.2.3,MacIntel,60.14675809,627c6715c52fd12f31907bd0,,,,,,,,,,,,,,,,,,,,,,,a,0,0.7645,"[""0.080"",""0.304"",""0.141"",""0.830""]","[1,1,0,1]",0,9,9,9,1,1,0,,,1,FALSE,,,,,,,,,,,,,,,,,,,,,,,,,,,,,,,
,613cfec42b4571e6552c3019,627c6fa16f4dd69f76734257,2022-05-11_19h34.55.129,classification_task,2021.2.3,MacIntel,60.14675809,627c6715c52fd12f31907bd0,,,,,,,,,,,,,,,,,,,,,,,l,1,0.5651,"[""0.030"",""0.131"",""0.481"",""0.788""]","[1,0,1,1]",0,10,10,10,1,1,1,,,1,FALSE,,,,,,,,,,,,,,,,,,,,,,,,,,,,,,,
,613cfec42b4571e6552c3019,627c6fa16f4dd69f76734257,2022-05-11_19h34.55.129,classification_task,2021.2.3,MacIntel,60.14675809,627c6715c52fd12f31907bd0,,,,,,,,,,,,,,,,,,,,,,,a,0,0.6311,"[""0.080"",""0.304"",""0.535"",""0.137""]","[1,1,1,0]",0,11,11,11,1,1,0,,,1,FALSE,,,,,,,,,,,,,,,,,,,,,,,,,,,,,,,
,613cfec42b4571e6552c3019,627c6fa16f4dd69f76734257,2022-05-11_19h34.55.129,classification_task,2021.2.3,MacIntel,60.14675809,627c6715c52fd12f31907bd0,,,,,,,,,,,,,,,,,,,,,,,l,0,0.5331,"[""0.237"",""0.633"",""0.681"",""0.878""]","[1,0,1,1]",0,12,12,12,1,0,0,,,1,FALSE,,,,,,,,,,,,,,,,,,,,,,,,,,,,,,,
,613cfec42b4571e6552c3019,627c6fa16f4dd69f76734257,2022-05-11_19h34.55.129,classification_task,2021.2.3,MacIntel,60.14675809,627c6715c52fd12f31907bd0,,,,,,,,,,,,,,,,,,,,,,,l,0,0.9821,"[""0.237"",""0.427"",""0.633"",""0.878""]","[1,1,0,1]",0,13,13,13,1,0,0,,,1,FALSE,,,,,,,,,,,,,,,,,,,,,,,,,,,,,,,
,613cfec42b4571e6552c3019,627c6fa16f4dd69f76734257,2022-05-11_19h34.55.129,classification_task,2021.2.3,MacIntel,60.14675809,627c6715c52fd12f31907bd0,,,,,,,,,,,,,,,,,,,,,,,l,0,0.635,"[""0.177"",""0.393"",""0.577"",""0.975""]","[1,1,0,1]",0,14,14,14,1,0,1,,,1,FALSE,,,,,,,,,,,,,,,,,,,,,,,,,,,,,,,
,613cfec42b4571e6552c3019,627c6fa16f4dd69f76734257,2022-05-11_19h34.55.129,classification_task,2021.2.3,MacIntel,60.14675809,627c6715c52fd12f31907bd0,,,,,,,,,,,,,,,,,,,,,,,a,0,0.9807,"[""0.141"",""0.338"",""0.481"",""0.788""]","[0,1,1,1]",0,15,15,15,1,1,1,,,1,FALSE,,,,,,,,,,,,,,,,,,,,,,,,,,,,,,,
,613cfec42b4571e6552c3019,627c6fa16f4dd69f76734257,2022-05-11_19h34.55.129,classification_task,2021.2.3,MacIntel,60.14675809,627c6715c52fd12f31907bd0,,,,,,,,,,,,,,,,,,,,,,,l,0,0.7646,"[""0.177"",""0.393"",""0.754"",""0.975""]","[1,1,0,1]",0,16,16,16,1,0,1,,,1,FALSE,,,,,,,,,,,,,,,,,,,,,,,,,,,,,,,
,613cfec42b4571e6552c3019,627c6fa16f4dd69f76734257,2022-05-11_19h34.55.129,classification_task,2021.2.3,MacIntel,60.14675809,627c6715c52fd12f31907bd0,,,,,,,,,,,,,,,,,,,,,,,a,0,0.7142,"[""0.030"",""0.338"",""0.131"",""0.788""]","[1,1,0,1]",0,17,17,17,1,1,1,,,1,FALSE,,,,,,,,,,,,,,,,,,,,,,,,,,,,,,,
,613cfec42b4571e6552c3019,627c6fa16f4dd69f76734257,2022-05-11_19h34.55.129,classification_task,2021.2.3,MacIntel,60.14675809,627c6715c52fd12f31907bd0,,,,,,,,,,,,,,,,,,,,,,,a,0,0.498,"[""0.030"",""0.754"",""0.481"",""0.788""]","[1,0,1,1]",0,18,18,18,1,1,1,,,1,FALSE,,,,,,,,,,,,,,,,,,,,,,,,,,,,,,,
,613cfec42b4571e6552c3019,627c6fa16f4dd69f76734257,2022-05-11_19h34.55.129,classification_task,2021.2.3,MacIntel,60.14675809,627c6715c52fd12f31907bd0,,,,,,,,,,,,,,,,,,,,,,,l,0,0.9808,"[""0.141"",""0.427"",""0.681"",""0.878""]","[0,1,1,1]",0,19,19,19,1,0,0,,,1,FALSE,,,,,,,,,,,,,,,,,,,,,,,,,,,,,,,
,613cfec42b4571e6552c3019,627c6fa16f4dd69f76734257,2022-05-11_19h34.55.129,classification_task,2021.2.3,MacIntel,60.14675809,627c6715c52fd12f31907bd0,,,,,,,,,,,,,,,,,,,,,,,l,0,1.0302,"[""0.237"",""0.427"",""0.141"",""0.878""]","[1,1,0,1]",0,20,20,20,1,0,0,,,1,FALSE,,,,,,,,,,,,,,,,,,,,,,,,,,,,,,,
,613cfec42b4571e6552c3019,627c6fa16f4dd69f76734257,2022-05-11_19h34.55.129,classification_task,2021.2.3,MacIntel,60.14675809,627c6715c52fd12f31907bd0,,,,,,,,,,,,,,,,,,,,,,,a,1,0.9148,"[""0.237"",""0.569"",""0.681"",""0.878""]","[1,0,1,1]",0,21,21,21,1,0,0,,,1,FALSE,,,,,,,,,,,,,,,,,,,,,,,,,,,,,,,
,613cfec42b4571e6552c3019,627c6fa16f4dd69f76734257,2022-05-11_19h34.55.129,classification_task,2021.2.3,MacIntel,60.14675809,627c6715c52fd12f31907bd0,,,,,,,,,,,,,,,,,,,,,,,a,0,0.515,"[""0.080"",""0.131"",""0.535"",""0.830""]","[1,0,1,1]",0,22,22,22,1,1,0,,,1,FALSE,,,,,,,,,,,,,,,,,,,,,,,,,,,,,,,
,613cfec42b4571e6552c3019,627c6fa16f4dd69f76734257,2022-05-11_19h34.55.129,classification_task,2021.2.3,MacIntel,60.14675809,627c6715c52fd12f31907bd0,,,,,,,,,,,,,,,,,,,,,,,l,0,0.6318,"[""0.177"",""0.631"",""0.941"",""0.975""]","[1,0,1,1]",0,23,23,23,1,0,1,,,1,FALSE,,,,,,,,,,,,,,,,,,,,,,,,,,,,,,,
,613cfec42b4571e6552c3019,627c6fa16f4dd69f76734257,2022-05-11_19h34.55.129,classification_task,2021.2.3,MacIntel,60.14675809,627c6715c52fd12f31907bd0,,,,,,,,,,,,,,,,,,,,,,,l,1,1.1491,"[""0.080"",""0.304"",""0.633"",""0.830""]","[1,1,0,1]",0,24,24,24,1,1,0,,,1,FALSE,,,,,,,,,,,,,,,,,,,,,,,,,,,,,,,
,613cfec42b4571e6552c3019,627c6fa16f4dd69f76734257,2022-05-11_19h34.55.129,classification_task,2021.2.3,MacIntel,60.14675809,627c6715c52fd12f31907bd0,,,,,,,,,,,,,,,,,,,,,,,a,0,0.6336,"[""0.080"",""0.304"",""0.535"",""0.732""]","[1,1,1,0]",0,25,25,25,1,1,0,,,1,FALSE,,,,,,,,,,,,,,,,,,,,,,,,,,,,,,,
,613cfec42b4571e6552c3019,627c6fa16f4dd69f76734257,2022-05-11_19h34.55.129,classification_task,2021.2.3,MacIntel,60.14675809,627c6715c52fd12f31907bd0,,,,,,,,,,,,,,,,,,,,,,,l,1,0.6808,"[""0.635"",""0.304"",""0.535"",""0.830""]","[0,1,1,1]",0,26,26,26,1,1,0,,,1,FALSE,,,,,,,,,,,,,,,,,,,,,,,,,,,,,,,
,613cfec42b4571e6552c3019,627c6fa16f4dd69f76734257,2022-05-11_19h34.55.129,classification_task,2021.2.3,MacIntel,60.14675809,627c6715c52fd12f31907bd0,,,,,,,,,,,,,,,,,,,,,,,l,0,0.6304,"[""0.715"",""0.393"",""0.941"",""0.975""]","[0,1,1,1]",0,27,27,27,1,0,1,,,1,FALSE,,,,,,,,,,,,,,,,,,,,,,,,,,,,,,,
,613cfec42b4571e6552c3019,627c6fa16f4dd69f76734257,2022-05-11_19h34.55.129,classification_task,2021.2.3,MacIntel,60.14675809,627c6715c52fd12f31907bd0,,,,,,,,,,,,,,,,,,,,,,,a,0,0.53,"[""0.030"",""0.338"",""0.481"",""0.131""]","[1,1,1,0]",0,28,28,28,1,1,1,,,1,FALSE,,,,,,,,,,,,,,,,,,,,,,,,,,,,,,,
,613cfec42b4571e6552c3019,627c6fa16f4dd69f76734257,2022-05-11_19h34.55.129,classification_task,2021.2.3,MacIntel,60.14675809,627c6715c52fd12f31907bd0,,,,,,,,,,,,,,,,,,,,,,,l,1,1.667,"[""0.569"",""0.338"",""0.481"",""0.788""]","[0,1,1,1]",0,29,29,29,1,1,1,,,1,FALSE,,,,,,,,,,,,,,,,,,,,,,,,,,,,,,,
,613cfec42b4571e6552c3019,627c6fa16f4dd69f76734257,2022-05-11_19h34.55.129,classification_task,2021.2.3,MacIntel,60.14675809,627c6715c52fd12f31907bd0,,,,,,,,,,,,,,,,,,,,,,,l,0,0.664,"[""0.177"",""0.393"",""0.941"",""0.749""]","[1,1,1,0]",0,30,30,30,1,0,1,,,1,FALSE,,,,,,,,,,,,,,,,,,,,,,,,,,,,,,,
,613cfec42b4571e6552c3019,627c6fa16f4dd69f76734257,2022-05-11_19h34.55.129,classification_task,2021.2.3,MacIntel,60.14675809,627c6715c52fd12f31907bd0,,,,,,,,,,,,,,,,,,,,,,,a,1,0.432,"[""0.237"",""0.427"",""0.681"",""0.137""]","[1,1,1,0]",0,31,31,31,1,0,0,,,1,FALSE,,,,,,,,,,,,,,,,,,,,,,,,,,,,,,,
,613cfec42b4571e6552c3019,627c6fa16f4dd69f76734257,2022-05-11_19h34.55.129,classification_task,2021.2.3,MacIntel,60.14675809,627c6715c52fd12f31907bd0,,,,,,,,,,,,,,,,,,,,,,,l,1,0.7517,"[""0.728"",""0.304"",""0.535"",""0.830""]","[0,1,1,1]",0,32,32,32,1,1,0,,,1,FALSE,,,,,,,,,,,,,,,,,,,,,,,,,,,,,,,
,613cfec42b4571e6552c3019,627c6fa16f4dd69f76734257,2022-05-11_19h34.55.129,classification_task,2021.2.3,MacIntel,60.14675809,627c6715c52fd12f31907bd0,,,,,,,,,,,,,,,,,,,,,,,l,1,0.5471,"[""0.030"",""0.643"",""0.481"",""0.788""]","[1,0,1,1]",0,33,33,33,1,1,1,,,1,FALSE,,,,,,,,,,,,,,,,,,,,,,,,,,,,,,,
,613cfec42b4571e6552c3019,627c6fa16f4dd69f76734257,2022-05-11_19h34.55.129,classification_task,2021.2.3,MacIntel,60.14675809,627c6715c52fd12f31907bd0,,,,,,,,,,,,,,,,,,,,,,,l,1,0.7147,"[""0.080"",""0.304"",""0.754"",""0.830""]","[1,1,0,1]",0,34,34,34,1,1,0,,,1,FALSE,,,,,,,,,,,,,,,,,,,,,,,,,,,,,,,
,613cfec42b4571e6552c3019,627c6fa16f4dd69f76734257,2022-05-11_19h34.55.129,classification_task,2021.2.3,MacIntel,60.14675809,627c6715c52fd12f31907bd0,,,,,,,,,,,,,,,,,,,,,,,l,0,0.782,"[""0.177"",""0.393"",""0.941"",""0.635""]","[1,1,1,0]",0,35,35,35,1,0,1,,,1,FALSE,,,,,,,,,,,,,,,,,,,,,,,,,,,,,,,
,613cfec42b4571e6552c3019,627c6fa16f4dd69f76734257,2022-05-11_19h34.55.129,classification_task,2021.2.3,MacIntel,60.14675809,627c6715c52fd12f31907bd0,,,,,,,,,,,,,,,,,,,,,,,l,1,0.6476,"[""0.080"",""0.754"",""0.535"",""0.830""]","[1,0,1,1]",0,36,36,36,1,1,0,,,1,FALSE,,,,,,,,,,,,,,,,,,,,,,,,,,,,,,,
,613cfec42b4571e6552c3019,627c6fa16f4dd69f76734257,2022-05-11_19h34.55.129,classification_task,2021.2.3,MacIntel,60.14675809,627c6715c52fd12f31907bd0,,,,,,,,,,,,,,,,,,,,,,,a,1,0.666,"[""0.237"",""0.427"",""0.681"",""0.633""]","[1,1,1,0]",0,37,37,37,1,0,0,,,1,FALSE,,,,,,,,,,,,,,,,,,,,,,,,,,,,,,,
,613cfec42b4571e6552c3019,627c6fa16f4dd69f76734257,2022-05-11_19h34.55.129,classification_task,2021.2.3,MacIntel,60.14675809,627c6715c52fd12f31907bd0,,,,,,,,,,,,,,,,,,,,,,,l,0,0.5828,"[""0.137"",""0.393"",""0.941"",""0.975""]","[0,1,1,1]",0,38,38,38,1,0,1,,,1,FALSE,,,,,,,,,,,,,,,,,,,,,,,,,,,,,,,
,613cfec42b4571e6552c3019,627c6fa16f4dd69f76734257,2022-05-11_19h34.55.129,classification_task,2021.2.3,MacIntel,60.14675809,627c6715c52fd12f31907bd0,,,,,,,,,,,,,,,,,,,,,,,a,0,0.4508,"[""0.080"",""0.304"",""0.535"",""0.131""]","[1,1,1,0]",0,39,39,39,1,1,0,,,1,FALSE,,,,,,,,,,,,,,,,,,,,,,,,,,,,,,,
,613cfec42b4571e6552c3019,627c6fa16f4dd69f76734257,2022-05-11_19h34.55.129,classification_task,2021.2.3,MacIntel,60.14675809,627c6715c52fd12f31907bd0,,,,,,,,,,,,,,,,,,,,,,,l,0,0.7316,"[""0.237"",""0.732"",""0.681"",""0.878""]","[1,0,1,1]",0,40,40,40,1,0,0,,,1,FALSE,,,,,,,,,,,,,,,,,,,,,,,,,,,,,,,
,613cfec42b4571e6552c3019,627c6fa16f4dd69f76734257,2022-05-11_19h34.55.129,classification_task,2021.2.3,MacIntel,60.14675809,627c6715c52fd12f31907bd0,,,,,,,,,,,,,,,,,,,,,,,l,0,0.5491,"[""0.749"",""0.427"",""0.681"",""0.878""]","[0,1,1,1]",0,41,41,41,1,0,0,,,1,FALSE,,,,,,,,,,,,,,,,,,,,,,,,,,,,,,,
,613cfec42b4571e6552c3019,627c6fa16f4dd69f76734257,2022-05-11_19h34.55.129,classification_task,2021.2.3,MacIntel,60.14675809,627c6715c52fd12f31907bd0,,,,,,,,,,,,,,,,,,,,,,,a,0,0.6493,"[""0.030"",""0.338"",""0.481"",""0.749""]","[1,1,1,0]",0,42,42,42,1,1,1,,,1,FALSE,,,,,,,,,,,,,,,,,,,,,,,,,,,,,,,
,613cfec42b4571e6552c3019,627c6fa16f4dd69f76734257,2022-05-11_19h34.55.129,classification_task,2021.2.3,MacIntel,60.14675809,627c6715c52fd12f31907bd0,,,,,,,,,,,,,,,,,,,,,,,a,0,0.85,"[""0.577"",""0.338"",""0.481"",""0.788""]","[0,1,1,1]",0,43,43,43,1,1,1,,,1,FALSE,,,,,,,,,,,,,,,,,,,,,,,,,,,,,,,
,613cfec42b4571e6552c3019,627c6fa16f4dd69f76734257,2022-05-11_19h34.55.129,classification_task,2021.2.3,MacIntel,60.14675809,627c6715c52fd12f31907bd0,,,,,,,,,,,,,,,,,,,,,,,l,0,1.2291,"[""0.237"",""0.427"",""0.728"",""0.878""]","[1,1,0,1]",0,44,44,44,1,0,0,,,1,FALSE,,,,,,,,,,,,,,,,,,,,,,,,,,,,,,,
,613cfec42b4571e6552c3019,627c6fa16f4dd69f76734257,2022-05-11_19h34.55.129,classification_task,2021.2.3,MacIntel,60.14675809,627c6715c52fd12f31907bd0,,,,,,,,,,,,,,,,,,,,,,,a,0,0.9812,"[""0.030"",""0.338"",""0.643"",""0.788""]","[1,1,0,1]",0,45,45,45,1,1,1,,,1,FALSE,,,,,,,,,,,,,,,,,,,,,,,,,,,,,,,
,613cfec42b4571e6552c3019,627c6fa16f4dd69f76734257,2022-05-11_19h34.55.129,classification_task,2021.2.3,MacIntel,60.14675809,627c6715c52fd12f31907bd0,,,,,,,,,,,,,,,,,,,,,,,l,0,0.6501,"[""0.177"",""0.715"",""0.941"",""0.975""]","[1,0,1,1]",0,46,46,46,1,0,1,,,1,FALSE,,,,,,,,,,,,,,,,,,,,,,,,,,,,,,,
,613cfec42b4571e6552c3019,627c6fa16f4dd69f76734257,2022-05-11_19h34.55.129,classification_task,2021.2.3,MacIntel,60.14675809,627c6715c52fd12f31907bd0,,,,,,,,,,,,,,,,,,,,,,,a,1,0.6804,"[""0.177"",""0.393"",""0.137"",""0.975""]","[1,1,0,1]",0,47,47,47,1,0,1,,,1,FALSE,,,,,,,,,,,,,,,,,,,,,,,,,,,,,,,
,613cfec42b4571e6552c3019,627c6fa16f4dd69f76734257,2022-05-11_19h34.55.129,classification_task,2021.2.3,MacIntel,60.14675809,627c6715c52fd12f31907bd0,,,,,,,,,,,,,,,,,,,,,,,a,1,0.9322,"[""0.177"",""0.393"",""0.635"",""0.975""]","[1,1,0,1]",0,48,48,48,1,0,1,,,1,FALSE,,,,,,,,,,,,,,,,,,,,,,,,,,,,,,,
,613cfec42b4571e6552c3019,627c6fa16f4dd69f76734257,2022-05-11_19h34.55.129,classification_task,2021.2.3,MacIntel,60.14675809,627c6715c52fd12f31907bd0,,,,,,,,,,,,,,,,,,,,,,,a,0,0.5856,"[""0.030"",""0.338"",""0.481"",""0.643""]","[1,1,1,0]",0,49,49,49,1,1,1,,,1,FALSE,,,,,,,,,,,,,,,,,,,,,,,,,,,,,,,
,613cfec42b4571e6552c3019,627c6fa16f4dd69f76734257,2022-05-11_19h34.55.129,classification_task,2021.2.3,MacIntel,60.14675809,627c6715c52fd12f31907bd0,,,,,,,,,,,,,,,,,,,,,,,a,0,0.8151,"[""0.631"",""0.338"",""0.481"",""0.788""]","[0,1,1,1]",0,50,50,50,1,1,1,,,1,FALSE,,,,,,,,,,,,,,,,,,,,,,,,,,,,,,,
,613cfec42b4571e6552c3019,627c6fa16f4dd69f76734257,2022-05-11_19h34.55.129,classification_task,2021.2.3,MacIntel,60.14675809,627c6715c52fd12f31907bd0,,,,,,,,,,,,,,,,,,,,,,,l,1,0.6648,"[""0.080"",""0.715"",""0.535"",""0.830""]","[1,0,1,1]",0,51,51,51,1,1,0,,,1,FALSE,,,,,,,,,,,,,,,,,,,,,,,,,,,,,,,
,613cfec42b4571e6552c3019,627c6fa16f4dd69f76734257,2022-05-11_19h34.55.129,classification_task,2021.2.3,MacIntel,60.14675809,627c6715c52fd12f31907bd0,,,,,,,,,,,,,,,,,,,,,,,l,1,0.6185,"[""0.080"",""0.304"",""0.535"",""0.577""]","[1,1,1,0]",0,52,52,52,1,1,0,,,1,FALSE,,,,,,,,,,,,,,,,,,,,,,,,,,,,,,,
,613cfec42b4571e6552c3019,627c6fa16f4dd69f76734257,2022-05-11_19h34.55.129,classification_task,2021.2.3,MacIntel,60.14675809,627c6715c52fd12f31907bd0,,,,,,,,,,,,,,,,,,,,,,,a,1,0.7813,"[""0.237"",""0.427"",""0.681"",""0.131""]","[1,1,1,0]",0,53,53,53,1,0,0,,,1,FALSE,,,,,,,,,,,,,,,,,,,,,,,,,,,,,,,
,613cfec42b4571e6552c3019,627c6fa16f4dd69f76734257,2022-05-11_19h34.55.129,classification_task,2021.2.3,MacIntel,60.14675809,627c6715c52fd12f31907bd0,,,,,,,,,,,,,,,,,,,,,,,l,0,0.52,"[""0.177"",""0.577"",""0.941"",""0.975""]","[1,0,1,1]",0,54,54,54,1,0,1,,,1,FALSE,,,,,,,,,,,,,,,,,,,,,,,,,,,,,,,
,613cfec42b4571e6552c3019,627c6fa16f4dd69f76734257,2022-05-11_19h34.55.129,classification_task,2021.2.3,MacIntel,60.14675809,627c6715c52fd12f31907bd0,,,,,,,,,,,,,,,,,,,,,,,l,0,0.5682,"[""0.633"",""0.393"",""0.941"",""0.975""]","[0,1,1,1]",0,55,55,55,1,0,1,,,1,FALSE,,,,,,,,,,,,,,,,,,,,,,,,,,,,,,,
,613cfec42b4571e6552c3019,627c6fa16f4dd69f76734257,2022-05-11_19h34.55.129,classification_task,2021.2.3,MacIntel,60.14675809,627c6715c52fd12f31907bd0,,,,,,,,,,,,,,,,,,,,,,,l,1,1.2502,"[""0.577"",""0.304"",""0.535"",""0.830""]","[0,1,1,1]",0,56,56,56,1,1,0,,,1,FALSE,,,,,,,,,,,,,,,,,,,,,,,,,,,,,,,
,613cfec42b4571e6552c3019,627c6fa16f4dd69f76734257,2022-05-11_19h34.55.129,classification_task,2021.2.3,MacIntel,60.14675809,627c6715c52fd12f31907bd0,,,,,,,,,,,,,,,,,,,,,,,l,0,0.8161,"[""0.237"",""0.643"",""0.681"",""0.878""]","[1,0,1,1]",0,57,57,57,1,0,0,,,1,FALSE,,,,,,,,,,,,,,,,,,,,,,,,,,,,,,,
,613cfec42b4571e6552c3019,627c6fa16f4dd69f76734257,2022-05-11_19h34.55.129,classification_task,2021.2.3,MacIntel,60.14675809,627c6715c52fd12f31907bd0,,,,,,,,,,,,,,,,,,,,,,,a,1,0.4811,"[""0.635"",""0.427"",""0.681"",""0.878""]","[0,1,1,1]",0,58,58,58,1,0,0,,,1,FALSE,,,,,,,,,,,,,,,,,,,,,,,,,,,,,,,
,613cfec42b4571e6552c3019,627c6fa16f4dd69f76734257,2022-05-11_19h34.55.129,classification_task,2021.2.3,MacIntel,60.14675809,627c6715c52fd12f31907bd0,,,,,,,,,,,,,,,,,,,,,,,a,1,0.7145,"[""0.177"",""0.393"",""0.941"",""0.131""]","[1,1,1,0]",0,59,59,59,1,0,1,,,1,FALSE,,,,,,,,,,,,,,,,,,,,,,,,,,,,,,,
,613cfec42b4571e6552c3019,627c6fa16f4dd69f76734257,2022-05-11_19h34.55.129,classification_task,2021.2.3,MacIntel,60.14675809,627c6715c52fd12f31907bd0,,,,,,,,,,,,,,,,,,,,,,,a,0,0.6148,"[""0.080"",""0.304"",""0.137"",""0.830""]","[1,1,0,1]",0,60,60,60,1,1,0,,,1,FALSE,,,,,,,,,,,,,,,,,,,,,,,,,,,,,,,
,613cfec42b4571e6552c3019,627c6fa16f4dd69f76734257,2022-05-11_19h34.55.129,classification_task,2021.2.3,MacIntel,60.14675809,627c6715c52fd12f31907bd0,,,,,,,,,,,,,,,,,,,,,,,l,0,0.8175,"[""0.237"",""0.427"",""0.569"",""0.878""]","[1,1,0,1]",0,61,61,61,1,0,0,,,1,FALSE,,,,,,,,,,,,,,,,,,,,,,,,,,,,,,,
,613cfec42b4571e6552c3019,627c6fa16f4dd69f76734257,2022-05-11_19h34.55.129,classification_task,2021.2.3,MacIntel,60.14675809,627c6715c52fd12f31907bd0,,,,,,,,,,,,,,,,,,,,,,,l,1,0.5013,"[""0.030"",""0.338"",""0.754"",""0.788""]","[1,1,0,1]",0,62,62,62,1,1,1,,,1,FALSE,,,,,,,,,,,,,,,,,,,,,,,,,,,,,,,
,613cfec42b4571e6552c3019,627c6fa16f4dd69f76734257,2022-05-11_19h34.55.129,classification_task,2021.2.3,MacIntel,60.14675809,627c6715c52fd12f31907bd0,,,,,,,,,,,,,,,,,,,,,,,l,1,0.4832,"[""0.030"",""0.728"",""0.481"",""0.788""]","[1,0,1,1]",0,63,63,63,1,1,1,,,1,FALSE,,,,,,,,,,,,,,,,,,,,,,,,,,,,,,,
,613cfec42b4571e6552c3019,627c6fa16f4dd69f76734257,2022-05-11_19h34.55.129,classification_task,2021.2.3,MacIntel,60.14675809,627c6715c52fd12f31907bd0,,,,,,,,,,,,,,,,,,,,,,,,,,,,,,,,,,,,,,,0, ,,0,3.40869399,126.6795,0,2,2,2,1,2,3,,,,,,,,,,,,,,,,,,
,613cfec42b4571e6552c3019,627c6fa16f4dd69f76734257,2022-05-11_19h34.55.129,classification_task,2021.2.3,MacIntel,60.14675809,627c6715c52fd12f31907bd0,,,,,,,,,,,,,,,,,,,,,,,,,,,,,,,,,,,,,,,1,  ,,0,8.525183945,129.0061,0,2,2,2,1,2,3,,,,,,,,,,,,,,,,,,
,613cfec42b4571e6552c3019,627c6fa16f4dd69f76734257,2022-05-11_19h34.55.129,classification_task,2021.2.3,MacIntel,60.14675809,627c6715c52fd12f31907bd0,,,,,,,,,,,,,,,,,,,,,,,,,,,,,,,,,,,,,,,2,  ,,0,6.238916791,130.186,0,2,2,2,1,2,3,,,,,,,,,,,,,,,,,,
,613cfec42b4571e6552c3019,627c6fa16f4dd69f76734257,2022-05-11_19h34.55.129,classification_task,2021.2.3,MacIntel,60.14675809,627c6715c52fd12f31907bd0,,,,,,,,,,,,,,,,,,,,,,,,,,,,,,,,,,,,,,,,,,,,,0,2,2,2,1,,3,,,,,,,,,,,,,,,,,,
,613cfec42b4571e6552c3019,627c6fa16f4dd69f76734257,2022-05-11_19h34.55.129,classification_task,2021.2.3,MacIntel,60.14675809,627c6715c52fd12f31907bd0,,,,,,,,,,,,,,,,,,,,,,,,,,,,,,,,,,,,,,,,,,,,,,,,,,,,,I believe the aid is a competent performer,,0.7,0,4,645.5927,0,0,0,0,1,0,,,,,
,613cfec42b4571e6552c3019,627c6fa16f4dd69f76734257,2022-05-11_19h34.55.129,classification_task,2021.2.3,MacIntel,60.14675809,627c6715c52fd12f31907bd0,,,,,,,,,,,,,,,,,,,,,,,,,,,,,,,,,,,,,,,,,,,,,,,,,,,,,I trust the aid,,0.7,0,4,647.0098,0,0,0,0,1,0,,,,,
,613cfec42b4571e6552c3019,627c6fa16f4dd69f76734257,2022-05-11_19h34.55.129,classification_task,2021.2.3,MacIntel,60.14675809,627c6715c52fd12f31907bd0,,,,,,,,,,,,,,,,,,,,,,,,,,,,,,,,,,,,,,,,,,,,,,,,,,,,,I have confidence in the advice given by the aid,,0.7,0,4,648.8383,0,0,0,0,1,0,,,,,
,613cfec42b4571e6552c3019,627c6fa16f4dd69f76734257,2022-05-11_19h34.55.129,classification_task,2021.2.3,MacIntel,60.14675809,627c6715c52fd12f31907bd0,,,,,,,,,,,,,,,,,,,,,,,,,,,,,,,,,,,,,,,,,,,,,,,,,,,,,I can depend on the aid,,0.7,0,5,650.1822,0,0,0,0,1,0,,,,,
,613cfec42b4571e6552c3019,627c6fa16f4dd69f76734257,2022-05-11_19h34.55.129,classification_task,2021.2.3,MacIntel,60.14675809,627c6715c52fd12f31907bd0,,,,,,,,,,,,,,,,,,,,,,,,,,,,,,,,,,,,,,,,,,,,,,,,,,,,,I can rely on the aid to behave in consistent ways,,0.7,0,5,651.9254,0,0,0,0,1,0,,,,,
,613cfec42b4571e6552c3019,627c6fa16f4dd69f76734257,2022-05-11_19h34.55.129,classification_task,2021.2.3,MacIntel,60.14675809,627c6715c52fd12f31907bd0,,,,,,,,,,,,,,,,,,,,,,,,,,,,,,,,,,,,,,,,,,,,,,,,,,,,,I can rely on the aid to do its best every time I take its advice,,0.7,0,4,653.7849,0,0,0,0,1,0,,,,,
,613cfec42b4571e6552c3019,627c6fa16f4dd69f76734257,2022-05-11_19h34.55.129,classification_task,2021.2.3,MacIntel,60.14675809,627c6715c52fd12f31907bd0,,,,,,,,,,,,,,,,,,,,,,,,,,,,,,,,,,,,,,,,,,,,,,,,,,,,,"On trials you completed with assistance from the aid, how frequently did you think the aid was correct?",,0.7,0,always,,0,0,0,0,1,0,,,,,
,613cfec42b4571e6552c3019,627c6fa16f4dd69f76734257,2022-05-11_19h34.55.129,classification_task,2021.2.3,MacIntel,60.14675809,627c6715c52fd12f31907bd0,,,,,,,,,,,,,,,,,,,,,,,,,,,,,,,,,,,,,,,,,,,,,,,,,,,,,"On trials you completed without the aid, how frequently did you think you were correct?",,0.7,0,70%,,0,0,0,0,1,0,,,,,
,613cfec42b4571e6552c3019,627c6fa16f4dd69f76734257,2022-05-11_19h34.55.129,classification_task,2021.2.3,MacIntel,60.14675809,627c6715c52fd12f31907bd0,,,,,,,,,,,,,,,,,,,,,,,,,,,,,,,,,,,,,,,,,,,,,,,,,,,,,,,,,,,0,0,0,0,1,,,,,,
,613cfec42b4571e6552c3019,627c6fa16f4dd69f76734257,2022-05-11_19h34.55.129,classification_task,2021.2.3,MacIntel,60.14675809,627c6715c52fd12f31907bd0,,,,,,,,,,,,,,,,,,,,,,,,,,,,,,,,,,,,,,,,,,,,,,,,,,,,,,,,,,,,,,,,,space,8.6399,679.5227,,
,613cfec42b4571e6552c3019,627c6fa16f4dd69f76734257,2022-05-11_19h34.55.129,classification_task,2021.2.3,MacIntel,60.14675809,627c6715c52fd12f31907bd0,,,,,,,,,,,,,,,,,,,,,,,,,,,,,,,,,,,,,,,,,,,,,,,,,,,,,,,,,,,,,,,,,,,,"Mozilla/5.0 (Macintosh; Intel Mac OS X 10_15_7) AppleWebKit/537.36 (KHTML, like Gecko) Chrome/101.0.4951.54 Safari/537.36",
,613cfec42b4571e6552c3019,627c6fa16f4dd69f76734257,2022-05-11_19h34.55.129,classification_task,2021.2.3,MacIntel,60.14675809,627c6715c52fd12f31907bd0,,,,,,,,,,,,,,,,,,,,,,,,,,,,,,,,,,,,,,,,,,,,,,,,,,,,,,,,,,,,,,,,,,,,,HIGHLIGHT
