usingWebGL,participant,session,date,expName,psychopyVersion,OS,frameRate,study_id,signatures_friend,signatures_foe,band_ranges_top,band_ranges_bottom,formitemText,formtype,formundefined,formitemWidth,formindex,formresponse,formrt,key_resp_2.keys,key_resp_2.rt,tute_resp.keys,tute_resp.rt,tutorial.thisRepN,tutorial.thisTrialN,tutorial.thisN,tutorial.thisIndex,tutorial.ran,key_resp_4.keys,key_resp_4.rt,key_resp.keys,key_resp.corr,key_resp.rt,lines_presented,is_signal_presented,trials.thisRepN,trials.thisTrialN,trials.thisN,trials.thisIndex,trials.ran,vessel,active_band,lines,is_signal,supported_pos,catch_trial,debrief_formindex,debrief_formitemText,debrief_formtype,debrief_formitemWidth,debrief_formresponse,debrief_formrt,phases.thisRepN,phases.thisTrialN,phases.thisN,phases.thisIndex,phases.ran,phases.order,phase,key_resp_3.keys,trustitemText,trusttype,trustitemWidth,trustindex,trustresponse,trustrt,support_status.thisRepN,support_status.thisTrialN,support_status.thisN,support_status.thisIndex,support_status.ran,support_status.order,key_resp_5.keys,key_resp_5.rt,globalClockTime,userAgent,manualCondition
TRUE,613c0bbec55231d8e1697bd7,627c6f4987fb4fd63b5b431b,2022-05-11_21h22.35.363,classification_task,2021.2.3,Win32,59.99160118,627c6715c52fd12f31907bd0,,,,,,,,,,,,,,,,,,,,,,,,,,,,,,,,,,,,,,,,,,,,,,,,,,,,,,,,,,,,,,,,,,,,,
,613c0bbec55231d8e1697bd7,627c6f4987fb4fd63b5b431b,2022-05-11_21h22.35.363,classification_task,2021.2.3,Win32,59.99160118,627c6715c52fd12f31907bd0,"[[""0.305"",""0.546"",""0.918"",""0.965""],[""0.164"",""0.446"",""0.844"",""0.878""]]","[[""0.114"",""0.397"",""0.581"",""0.710""],[""0.077"",""0.216"",""0.505"",""0.748""]]","[1,10]","[100,1000]",Video game experience,,,0.7,0,,,,,,,,,,,,,,,,,,,,,,,,,,,,,,,,,,,,,,,,,,,,,,,,,,,,,,,,,,,,
,613c0bbec55231d8e1697bd7,627c6f4987fb4fd63b5b431b,2022-05-11_21h22.35.363,classification_task,2021.2.3,Win32,59.99160118,627c6715c52fd12f31907bd0,,,,,Approximately how many hours did you spend playing video games in the last week?,,,0.7,0,0,,,,,,,,,,,,,,,,,,,,,,,,,,,,,,,,,,,,,,,,,,,,,,,,,,,,,,,,,,,
,613c0bbec55231d8e1697bd7,627c6f4987fb4fd63b5b431b,2022-05-11_21h22.35.363,classification_task,2021.2.3,Win32,59.99160118,627c6715c52fd12f31907bd0,,,,,"Which game did you play the most this year? (Enter ""None"" if you didn't play any)",,,0.7,0,none,,,,,,,,,,,,,,,,,,,,,,,,,,,,,,,,,,,,,,,,,,,,,,,,,,,,,,,,,,,
,613c0bbec55231d8e1697bd7,627c6f4987fb4fd63b5b431b,2022-05-11_21h22.35.363,classification_task,2021.2.3,Win32,59.99160118,627c6715c52fd12f31907bd0,,,,,Visual perception,,,0.7,0,,,,,,,,,,,,,,,,,,,,,,,,,,,,,,,,,,,,,,,,,,,,,,,,,,,,,,,,,,,,
,613c0bbec55231d8e1697bd7,627c6f4987fb4fd63b5b431b,2022-05-11_21h22.35.363,classification_task,2021.2.3,Win32,59.99160118,627c6715c52fd12f31907bd0,,,,,Do you have any form of color blindness?,,,0.7,0,No,31.8869,,,,,,,,,,,,,,,,,,,,,,,,,,,,,,,,,,,,,,,,,,,,,,,,,,,,,,,,,,
,613c0bbec55231d8e1697bd7,627c6f4987fb4fd63b5b431b,2022-05-11_21h22.35.363,classification_task,2021.2.3,Win32,59.99160118,627c6715c52fd12f31907bd0,,,,,Do you use software to change the colour temperature of your screen (e.g. f.lux)?,,,0.7,0,Yes,37.1477,,,,,,,,,,,,,,,,,,,,,,,,,,,,,,,,,,,,,,,,,,,,,,,,,,,,,,,,,,
,613c0bbec55231d8e1697bd7,627c6f4987fb4fd63b5b431b,2022-05-11_21h22.35.363,classification_task,2021.2.3,Win32,59.99160118,627c6715c52fd12f31907bd0,,,,,,,,,,,,space,30.6841,space,6.8411,0,0,0,0,1,,,,,,,,,,,,,,,,,,,,,,,,,,,,,,,,,,,,,,,,,,,,,,,,,
,613c0bbec55231d8e1697bd7,627c6f4987fb4fd63b5b431b,2022-05-11_21h22.35.363,classification_task,2021.2.3,Win32,59.99160118,627c6715c52fd12f31907bd0,,,,,,,,,,,,,,space,9.5624,1,0,1,0,1,,,,,,,,,,,,,,,,,,,,,,,,,,,,,,,,,,,,,,,,,,,,,,,,,
,613c0bbec55231d8e1697bd7,627c6f4987fb4fd63b5b431b,2022-05-11_21h22.35.363,classification_task,2021.2.3,Win32,59.99160118,627c6715c52fd12f31907bd0,,,,,,,,,,,,,,space,12.2758,2,0,2,0,1,,,,,,,,,,,,,,,,,,,,,,,,,,,,,,,,,,,,,,,,,,,,,,,,,
,613c0bbec55231d8e1697bd7,627c6f4987fb4fd63b5b431b,2022-05-11_21h22.35.363,classification_task,2021.2.3,Win32,59.99160118,627c6715c52fd12f31907bd0,,,,,,,,,,,,,,space,7.9889,3,0,3,0,1,,,,,,,,,,,,,,,,,,,,,,,,,,,,,,,,,,,,,,,,,,,,,,,,,
,613c0bbec55231d8e1697bd7,627c6f4987fb4fd63b5b431b,2022-05-11_21h22.35.363,classification_task,2021.2.3,Win32,59.99160118,627c6715c52fd12f31907bd0,,,,,,,,,,,,,,space,18.458,4,0,4,0,1,,,,,,,,,,,,,,,,,,,,,,,,,,,,,,,,,,,,,,,,,,,,,,,,,
,613c0bbec55231d8e1697bd7,627c6f4987fb4fd63b5b431b,2022-05-11_21h22.35.363,classification_task,2021.2.3,Win32,59.99160118,627c6715c52fd12f31907bd0,,,,,,,,,,,,,,,,,,,,,space,18.8595,a,0,4.2273,"[""0.077"",""0.216"",""0.505"",""0.802""]","[1,1,1,0]",0,0,0,0,1,1,1,,,0,FALSE,,,,,,,,,,,,,,,,,,,,,,,,,,,,,,,
,613c0bbec55231d8e1697bd7,627c6f4987fb4fd63b5b431b,2022-05-11_21h22.35.363,classification_task,2021.2.3,Win32,59.99160118,627c6715c52fd12f31907bd0,,,,,,,,,,,,,,,,,,,,,,,a,1,2.4381,"[""0.305"",""0.546"",""0.918"",""0.661""]","[1,1,1,0]",0,1,1,1,1,0,0,,,0,FALSE,,,,,,,,,,,,,,,,,,,,,,,,,,,,,,,
,613c0bbec55231d8e1697bd7,627c6f4987fb4fd63b5b431b,2022-05-11_21h22.35.363,classification_task,2021.2.3,Win32,59.99160118,627c6715c52fd12f31907bd0,,,,,,,,,,,,,,,,,,,,,,,l,0,1.9554,"[""0.305"",""0.546"",""0.260"",""0.965""]","[1,1,0,1]",0,2,2,2,1,0,0,,,0,FALSE,,,,,,,,,,,,,,,,,,,,,,,,,,,,,,,
,613c0bbec55231d8e1697bd7,627c6f4987fb4fd63b5b431b,2022-05-11_21h22.35.363,classification_task,2021.2.3,Win32,59.99160118,627c6715c52fd12f31907bd0,,,,,,,,,,,,,,,,,,,,,,,a,0,1.2978,"[""0.360"",""0.397"",""0.581"",""0.710""]","[0,1,1,1]",0,3,3,3,1,1,0,,,0,FALSE,,,,,,,,,,,,,,,,,,,,,,,,,,,,,,,
,613c0bbec55231d8e1697bd7,627c6f4987fb4fd63b5b431b,2022-05-11_21h22.35.363,classification_task,2021.2.3,Win32,59.99160118,627c6715c52fd12f31907bd0,,,,,,,,,,,,,,,,,,,,,,,l,0,1.1294,"[""0.164"",""0.446"",""0.844"",""0.628""]","[1,1,1,0]",0,4,4,4,1,0,1,,,0,FALSE,,,,,,,,,,,,,,,,,,,,,,,,,,,,,,,
,613c0bbec55231d8e1697bd7,627c6f4987fb4fd63b5b431b,2022-05-11_21h22.35.363,classification_task,2021.2.3,Win32,59.99160118,627c6715c52fd12f31907bd0,,,,,,,,,,,,,,,,,,,,,,,l,0,0.8677,"[""0.164"",""0.661"",""0.844"",""0.878""]","[1,0,1,1]",0,5,5,5,1,0,1,,,0,FALSE,,,,,,,,,,,,,,,,,,,,,,,,,,,,,,,
,613c0bbec55231d8e1697bd7,627c6f4987fb4fd63b5b431b,2022-05-11_21h22.35.363,classification_task,2021.2.3,Win32,59.99160118,627c6715c52fd12f31907bd0,,,,,,,,,,,,,,,,,,,,,,,a,1,1.2498,"[""0.164"",""0.446"",""0.265"",""0.878""]","[1,1,0,1]",0,6,6,6,1,0,1,,,0,FALSE,,,,,,,,,,,,,,,,,,,,,,,,,,,,,,,
,613c0bbec55231d8e1697bd7,627c6f4987fb4fd63b5b431b,2022-05-11_21h22.35.363,classification_task,2021.2.3,Win32,59.99160118,627c6715c52fd12f31907bd0,,,,,,,,,,,,,,,,,,,,,,,l,0,1.0304,"[""0.652"",""0.546"",""0.918"",""0.965""]","[0,1,1,1]",0,7,7,7,1,0,0,,,0,FALSE,,,,,,,,,,,,,,,,,,,,,,,,,,,,,,,
,613c0bbec55231d8e1697bd7,627c6f4987fb4fd63b5b431b,2022-05-11_21h22.35.363,classification_task,2021.2.3,Win32,59.99160118,627c6715c52fd12f31907bd0,,,,,,,,,,,,,,,,,,,,,,,a,0,0.9824,"[""0.114"",""0.668"",""0.581"",""0.710""]","[1,0,1,1]",0,8,8,8,1,1,0,,,0,FALSE,,,,,,,,,,,,,,,,,,,,,,,,,,,,,,,
,613c0bbec55231d8e1697bd7,627c6f4987fb4fd63b5b431b,2022-05-11_21h22.35.363,classification_task,2021.2.3,Win32,59.99160118,627c6715c52fd12f31907bd0,,,,,,,,,,,,,,,,,,,,,,,a,0,1.0672,"[""0.114"",""0.397"",""0.581"",""0.260""]","[1,1,1,0]",0,9,9,9,1,1,0,,,0,FALSE,,,,,,,,,,,,,,,,,,,,,,,,,,,,,,,
,613c0bbec55231d8e1697bd7,627c6f4987fb4fd63b5b431b,2022-05-11_21h22.35.363,classification_task,2021.2.3,Win32,59.99160118,627c6715c52fd12f31907bd0,,,,,,,,,,,,,,,,,,,,,,,l,0,3.6671,"[""0.305"",""0.260"",""0.918"",""0.965""]","[1,0,1,1]",0,10,10,10,1,0,0,,,0,FALSE,,,,,,,,,,,,,,,,,,,,,,,,,,,,,,,
,613c0bbec55231d8e1697bd7,627c6f4987fb4fd63b5b431b,2022-05-11_21h22.35.363,classification_task,2021.2.3,Win32,59.99160118,627c6715c52fd12f31907bd0,,,,,,,,,,,,,,,,,,,,,,,l,1,1.0015,"[""0.077"",""0.216"",""0.258"",""0.748""]","[1,1,0,1]",0,11,11,11,1,1,1,,,0,FALSE,,,,,,,,,,,,,,,,,,,,,,,,,,,,,,,
,613c0bbec55231d8e1697bd7,627c6f4987fb4fd63b5b431b,2022-05-11_21h22.35.363,classification_task,2021.2.3,Win32,59.99160118,627c6715c52fd12f31907bd0,,,,,,,,,,,,,,,,,,,,,,,l,1,0.95,"[""0.628"",""0.216"",""0.505"",""0.748""]","[0,1,1,1]",0,12,12,12,1,1,1,,,0,FALSE,,,,,,,,,,,,,,,,,,,,,,,,,,,,,,,
,613c0bbec55231d8e1697bd7,627c6f4987fb4fd63b5b431b,2022-05-11_21h22.35.363,classification_task,2021.2.3,Win32,59.99160118,627c6715c52fd12f31907bd0,,,,,,,,,,,,,,,,,,,,,,,l,0,0.6843,"[""0.628"",""0.446"",""0.844"",""0.878""]","[0,1,1,1]",0,13,13,13,1,0,1,,,0,FALSE,,,,,,,,,,,,,,,,,,,,,,,,,,,,,,,
,613c0bbec55231d8e1697bd7,627c6f4987fb4fd63b5b431b,2022-05-11_21h22.35.363,classification_task,2021.2.3,Win32,59.99160118,627c6715c52fd12f31907bd0,,,,,,,,,,,,,,,,,,,,,,,a,0,2.6995,"[""0.077"",""0.348"",""0.505"",""0.748""]","[1,0,1,1]",0,14,14,14,1,1,1,,,0,FALSE,,,,,,,,,,,,,,,,,,,,,,,,,,,,,,,
,613c0bbec55231d8e1697bd7,627c6f4987fb4fd63b5b431b,2022-05-11_21h22.35.363,classification_task,2021.2.3,Win32,59.99160118,627c6715c52fd12f31907bd0,,,,,,,,,,,,,,,,,,,,,,,l,1,2.6492,"[""0.114"",""0.397"",""0.341"",""0.710""]","[1,1,0,1]",0,15,15,15,1,1,0,,,0,FALSE,,,,,,,,,,,,,,,,,,,,,,,,,,,,,,,
,613c0bbec55231d8e1697bd7,627c6f4987fb4fd63b5b431b,2022-05-11_21h22.35.363,classification_task,2021.2.3,Win32,59.99160118,627c6715c52fd12f31907bd0,,,,,,,,,,,,,,,,,,,,,,,a,0,0.8794,"[""0.265"",""0.397"",""0.581"",""0.710""]","[0,1,1,1]",0,16,16,16,1,1,0,,,0,FALSE,,,,,,,,,,,,,,,,,,,,,,,,,,,,,,,
,613c0bbec55231d8e1697bd7,627c6f4987fb4fd63b5b431b,2022-05-11_21h22.35.363,classification_task,2021.2.3,Win32,59.99160118,627c6715c52fd12f31907bd0,,,,,,,,,,,,,,,,,,,,,,,l,0,1.033,"[""0.305"",""0.546"",""0.918"",""0.802""]","[1,1,1,0]",0,17,17,17,1,0,0,,,0,FALSE,,,,,,,,,,,,,,,,,,,,,,,,,,,,,,,
,613c0bbec55231d8e1697bd7,627c6f4987fb4fd63b5b431b,2022-05-11_21h22.35.363,classification_task,2021.2.3,Win32,59.99160118,627c6715c52fd12f31907bd0,,,,,,,,,,,,,,,,,,,,,,,a,0,1.5237,"[""0.077"",""0.216"",""0.802"",""0.748""]","[1,1,0,1]",0,18,18,18,1,1,1,,,0,FALSE,,,,,,,,,,,,,,,,,,,,,,,,,,,,,,,
,613c0bbec55231d8e1697bd7,627c6f4987fb4fd63b5b431b,2022-05-11_21h22.35.363,classification_task,2021.2.3,Win32,59.99160118,627c6715c52fd12f31907bd0,,,,,,,,,,,,,,,,,,,,,,,l,0,0.8412,"[""0.348"",""0.546"",""0.918"",""0.965""]","[0,1,1,1]",0,19,19,19,1,0,0,,,0,FALSE,,,,,,,,,,,,,,,,,,,,,,,,,,,,,,,
,613c0bbec55231d8e1697bd7,627c6f4987fb4fd63b5b431b,2022-05-11_21h22.35.363,classification_task,2021.2.3,Win32,59.99160118,627c6715c52fd12f31907bd0,,,,,,,,,,,,,,,,,,,,,,,a,1,1.1005,"[""0.305"",""0.358"",""0.918"",""0.965""]","[1,0,1,1]",0,20,20,20,1,0,0,,,0,FALSE,,,,,,,,,,,,,,,,,,,,,,,,,,,,,,,
,613c0bbec55231d8e1697bd7,627c6f4987fb4fd63b5b431b,2022-05-11_21h22.35.363,classification_task,2021.2.3,Win32,59.99160118,627c6715c52fd12f31907bd0,,,,,,,,,,,,,,,,,,,,,,,l,0,2.3523,"[""0.164"",""0.446"",""0.844"",""0.358""]","[1,1,1,0]",0,21,21,21,1,0,1,,,0,FALSE,,,,,,,,,,,,,,,,,,,,,,,,,,,,,,,
,613c0bbec55231d8e1697bd7,627c6f4987fb4fd63b5b431b,2022-05-11_21h22.35.363,classification_task,2021.2.3,Win32,59.99160118,627c6715c52fd12f31907bd0,,,,,,,,,,,,,,,,,,,,,,,a,0,0.7352,"[""0.802"",""0.216"",""0.505"",""0.748""]","[0,1,1,1]",0,22,22,22,1,1,1,,,0,FALSE,,,,,,,,,,,,,,,,,,,,,,,,,,,,,,,
,613c0bbec55231d8e1697bd7,627c6f4987fb4fd63b5b431b,2022-05-11_21h22.35.363,classification_task,2021.2.3,Win32,59.99160118,627c6715c52fd12f31907bd0,,,,,,,,,,,,,,,,,,,,,,,a,0,1.2175,"[""0.114"",""0.341"",""0.581"",""0.710""]","[1,0,1,1]",0,23,23,23,1,1,0,,,0,FALSE,,,,,,,,,,,,,,,,,,,,,,,,,,,,,,,
,613c0bbec55231d8e1697bd7,627c6f4987fb4fd63b5b431b,2022-05-11_21h22.35.363,classification_task,2021.2.3,Win32,59.99160118,627c6715c52fd12f31907bd0,,,,,,,,,,,,,,,,,,,,,,,a,0,1.1935,"[""0.114"",""0.397"",""0.624"",""0.710""]","[1,1,0,1]",0,24,24,24,1,1,0,,,0,FALSE,,,,,,,,,,,,,,,,,,,,,,,,,,,,,,,
,613c0bbec55231d8e1697bd7,627c6f4987fb4fd63b5b431b,2022-05-11_21h22.35.363,classification_task,2021.2.3,Win32,59.99160118,627c6715c52fd12f31907bd0,,,,,,,,,,,,,,,,,,,,,,,l,1,0.6909,"[""0.077"",""0.628"",""0.505"",""0.748""]","[1,0,1,1]",0,25,25,25,1,1,1,,,0,FALSE,,,,,,,,,,,,,,,,,,,,,,,,,,,,,,,
,613c0bbec55231d8e1697bd7,627c6f4987fb4fd63b5b431b,2022-05-11_21h22.35.363,classification_task,2021.2.3,Win32,59.99160118,627c6715c52fd12f31907bd0,,,,,,,,,,,,,,,,,,,,,,,l,0,1.5497,"[""0.164"",""0.265"",""0.844"",""0.878""]","[1,0,1,1]",0,26,26,26,1,0,1,,,0,FALSE,,,,,,,,,,,,,,,,,,,,,,,,,,,,,,,
,613c0bbec55231d8e1697bd7,627c6f4987fb4fd63b5b431b,2022-05-11_21h22.35.363,classification_task,2021.2.3,Win32,59.99160118,627c6715c52fd12f31907bd0,,,,,,,,,,,,,,,,,,,,,,,l,0,0.807,"[""0.305"",""0.546"",""0.661"",""0.965""]","[1,1,0,1]",0,27,27,27,1,0,0,,,0,FALSE,,,,,,,,,,,,,,,,,,,,,,,,,,,,,,,
,613c0bbec55231d8e1697bd7,627c6f4987fb4fd63b5b431b,2022-05-11_21h22.35.363,classification_task,2021.2.3,Win32,59.99160118,627c6715c52fd12f31907bd0,,,,,,,,,,,,,,,,,,,,,,,l,1,9.0483,"[""0.114"",""0.397"",""0.581"",""0.624""]","[1,1,1,0]",0,28,28,28,1,1,0,,,0,FALSE,,,,,,,,,,,,,,,,,,,,,,,,,,,,,,,
,613c0bbec55231d8e1697bd7,627c6f4987fb4fd63b5b431b,2022-05-11_21h22.35.363,classification_task,2021.2.3,Win32,59.99160118,627c6715c52fd12f31907bd0,,,,,,,,,,,,,,,,,,,,,,,a,0,6.1497,"[""0.077"",""0.216"",""0.505"",""0.358""]","[1,1,1,0]",0,29,29,29,1,1,1,,,0,FALSE,,,,,,,,,,,,,,,,,,,,,,,,,,,,,,,
,613c0bbec55231d8e1697bd7,627c6f4987fb4fd63b5b431b,2022-05-11_21h22.35.363,classification_task,2021.2.3,Win32,59.99160118,627c6715c52fd12f31907bd0,,,,,,,,,,,,,,,,,,,,,,,a,1,7.2712,"[""0.628"",""0.446"",""0.844"",""0.878""]","[0,1,1,1]",0,30,30,30,1,0,1,,,0,FALSE,,,,,,,,,,,,,,,,,,,,,,,,,,,,,,,
,613c0bbec55231d8e1697bd7,627c6f4987fb4fd63b5b431b,2022-05-11_21h22.35.363,classification_task,2021.2.3,Win32,59.99160118,627c6715c52fd12f31907bd0,,,,,,,,,,,,,,,,,,,,,,,a,1,7.2247,"[""0.164"",""0.446"",""0.265"",""0.878""]","[1,1,0,1]",0,31,31,31,1,0,1,,,0,FALSE,,,,,,,,,,,,,,,,,,,,,,,,,,,,,,,
,613c0bbec55231d8e1697bd7,627c6f4987fb4fd63b5b431b,2022-05-11_21h22.35.363,classification_task,2021.2.3,Win32,59.99160118,627c6715c52fd12f31907bd0,,,,,,,,,,,,,,,,,,,,,,,a,0,2.6823,"[""0.077"",""0.216"",""0.802"",""0.748""]","[1,1,0,1]",0,32,32,32,1,1,1,,,0,FALSE,,,,,,,,,,,,,,,,,,,,,,,,,,,,,,,
,613c0bbec55231d8e1697bd7,627c6f4987fb4fd63b5b431b,2022-05-11_21h22.35.363,classification_task,2021.2.3,Win32,59.99160118,627c6715c52fd12f31907bd0,,,,,,,,,,,,,,,,,,,,,,,l,1,3.259,"[""0.077"",""0.216"",""0.505"",""0.341""]","[1,1,1,0]",0,33,33,33,1,1,1,,,0,FALSE,,,,,,,,,,,,,,,,,,,,,,,,,,,,,,,
,613c0bbec55231d8e1697bd7,627c6f4987fb4fd63b5b431b,2022-05-11_21h22.35.363,classification_task,2021.2.3,Win32,59.99160118,627c6715c52fd12f31907bd0,,,,,,,,,,,,,,,,,,,,,,,a,1,2.3264,"[""0.341"",""0.446"",""0.844"",""0.878""]","[0,1,1,1]",0,34,34,34,1,0,1,,,0,FALSE,,,,,,,,,,,,,,,,,,,,,,,,,,,,,,,
,613c0bbec55231d8e1697bd7,627c6f4987fb4fd63b5b431b,2022-05-11_21h22.35.363,classification_task,2021.2.3,Win32,59.99160118,627c6715c52fd12f31907bd0,,,,,,,,,,,,,,,,,,,,,,,a,0,1.4414,"[""0.077"",""0.624"",""0.505"",""0.748""]","[1,0,1,1]",0,35,35,35,1,1,1,,,0,FALSE,,,,,,,,,,,,,,,,,,,,,,,,,,,,,,,
,613c0bbec55231d8e1697bd7,627c6f4987fb4fd63b5b431b,2022-05-11_21h22.35.363,classification_task,2021.2.3,Win32,59.99160118,627c6715c52fd12f31907bd0,,,,,,,,,,,,,,,,,,,,,,,l,0,1.3476,"[""0.164"",""0.446"",""0.628"",""0.878""]","[1,1,0,1]",0,36,36,36,1,0,1,,,0,FALSE,,,,,,,,,,,,,,,,,,,,,,,,,,,,,,,
,613c0bbec55231d8e1697bd7,627c6f4987fb4fd63b5b431b,2022-05-11_21h22.35.363,classification_task,2021.2.3,Win32,59.99160118,627c6715c52fd12f31907bd0,,,,,,,,,,,,,,,,,,,,,,,l,0,1.7653,"[""0.305"",""0.668"",""0.918"",""0.965""]","[1,0,1,1]",0,37,37,37,1,0,0,,,0,FALSE,,,,,,,,,,,,,,,,,,,,,,,,,,,,,,,
,613c0bbec55231d8e1697bd7,627c6f4987fb4fd63b5b431b,2022-05-11_21h22.35.363,classification_task,2021.2.3,Win32,59.99160118,627c6715c52fd12f31907bd0,,,,,,,,,,,,,,,,,,,,,,,l,1,1.91,"[""0.114"",""0.258"",""0.581"",""0.710""]","[1,0,1,1]",0,38,38,38,1,1,0,,,0,FALSE,,,,,,,,,,,,,,,,,,,,,,,,,,,,,,,
,613c0bbec55231d8e1697bd7,627c6f4987fb4fd63b5b431b,2022-05-11_21h22.35.363,classification_task,2021.2.3,Win32,59.99160118,627c6715c52fd12f31907bd0,,,,,,,,,,,,,,,,,,,,,,,a,1,3.8468,"[""0.164"",""0.446"",""0.844"",""0.260""]","[1,1,1,0]",0,39,39,39,1,0,1,,,0,FALSE,,,,,,,,,,,,,,,,,,,,,,,,,,,,,,,
,613c0bbec55231d8e1697bd7,627c6f4987fb4fd63b5b431b,2022-05-11_21h22.35.363,classification_task,2021.2.3,Win32,59.99160118,627c6715c52fd12f31907bd0,,,,,,,,,,,,,,,,,,,,,,,l,0,1.4566,"[""0.164"",""0.348"",""0.844"",""0.878""]","[1,0,1,1]",0,40,40,40,1,0,1,,,0,FALSE,,,,,,,,,,,,,,,,,,,,,,,,,,,,,,,
,613c0bbec55231d8e1697bd7,627c6f4987fb4fd63b5b431b,2022-05-11_21h22.35.363,classification_task,2021.2.3,Win32,59.99160118,627c6715c52fd12f31907bd0,,,,,,,,,,,,,,,,,,,,,,,a,0,1.1155,"[""0.360"",""0.216"",""0.505"",""0.748""]","[0,1,1,1]",0,41,41,41,1,1,1,,,0,FALSE,,,,,,,,,,,,,,,,,,,,,,,,,,,,,,,
,613c0bbec55231d8e1697bd7,627c6f4987fb4fd63b5b431b,2022-05-11_21h22.35.363,classification_task,2021.2.3,Win32,59.99160118,627c6715c52fd12f31907bd0,,,,,,,,,,,,,,,,,,,,,,,l,0,1.4312,"[""0.624"",""0.546"",""0.918"",""0.965""]","[0,1,1,1]",0,42,42,42,1,0,0,,,0,FALSE,,,,,,,,,,,,,,,,,,,,,,,,,,,,,,,
,613c0bbec55231d8e1697bd7,627c6f4987fb4fd63b5b431b,2022-05-11_21h22.35.363,classification_task,2021.2.3,Win32,59.99160118,627c6715c52fd12f31907bd0,,,,,,,,,,,,,,,,,,,,,,,a,1,2.6341,"[""0.305"",""0.546"",""0.341"",""0.965""]","[1,1,0,1]",0,43,43,43,1,0,0,,,0,FALSE,,,,,,,,,,,,,,,,,,,,,,,,,,,,,,,
,613c0bbec55231d8e1697bd7,627c6f4987fb4fd63b5b431b,2022-05-11_21h22.35.363,classification_task,2021.2.3,Win32,59.99160118,627c6715c52fd12f31907bd0,,,,,,,,,,,,,,,,,,,,,,,a,0,1.5568,"[""0.114"",""0.397"",""0.258"",""0.710""]","[1,1,0,1]",0,44,44,44,1,1,0,,,0,FALSE,,,,,,,,,,,,,,,,,,,,,,,,,,,,,,,
,613c0bbec55231d8e1697bd7,627c6f4987fb4fd63b5b431b,2022-05-11_21h22.35.363,classification_task,2021.2.3,Win32,59.99160118,627c6715c52fd12f31907bd0,,,,,,,,,,,,,,,,,,,,,,,a,0,1.1846,"[""0.624"",""0.397"",""0.581"",""0.710""]","[0,1,1,1]",0,45,45,45,1,1,0,,,0,FALSE,,,,,,,,,,,,,,,,,,,,,,,,,,,,,,,
,613c0bbec55231d8e1697bd7,627c6f4987fb4fd63b5b431b,2022-05-11_21h22.35.363,classification_task,2021.2.3,Win32,59.99160118,627c6715c52fd12f31907bd0,,,,,,,,,,,,,,,,,,,,,,,l,0,2.0161,"[""0.305"",""0.546"",""0.918"",""0.348""]","[1,1,1,0]",0,46,46,46,1,0,0,,,0,FALSE,,,,,,,,,,,,,,,,,,,,,,,,,,,,,,,
,613c0bbec55231d8e1697bd7,627c6f4987fb4fd63b5b431b,2022-05-11_21h22.35.363,classification_task,2021.2.3,Win32,59.99160118,627c6715c52fd12f31907bd0,,,,,,,,,,,,,,,,,,,,,,,a,0,1.91,"[""0.114"",""0.397"",""0.581"",""0.668""]","[1,1,1,0]",0,47,47,47,1,1,0,,,0,FALSE,,,,,,,,,,,,,,,,,,,,,,,,,,,,,,,
,613c0bbec55231d8e1697bd7,627c6f4987fb4fd63b5b431b,2022-05-11_21h22.35.363,classification_task,2021.2.3,Win32,59.99160118,627c6715c52fd12f31907bd0,,,,,,,,,,,,,,,,,,,,,,,l,0,1.4326,"[""0.305"",""0.546"",""0.918"",""0.652""]","[1,1,1,0]",0,48,48,48,1,0,0,,,0,FALSE,,,,,,,,,,,,,,,,,,,,,,,,,,,,,,,
,613c0bbec55231d8e1697bd7,627c6f4987fb4fd63b5b431b,2022-05-11_21h22.35.363,classification_task,2021.2.3,Win32,59.99160118,627c6715c52fd12f31907bd0,,,,,,,,,,,,,,,,,,,,,,,l,0,1.0414,"[""0.164"",""0.446"",""0.844"",""0.802""]","[1,1,1,0]",0,49,49,49,1,0,1,,,0,FALSE,,,,,,,,,,,,,,,,,,,,,,,,,,,,,,,
,613c0bbec55231d8e1697bd7,627c6f4987fb4fd63b5b431b,2022-05-11_21h22.35.363,classification_task,2021.2.3,Win32,59.99160118,627c6715c52fd12f31907bd0,,,,,,,,,,,,,,,,,,,,,,,a,0,1.8828,"[""0.077"",""0.216"",""0.505"",""0.624""]","[1,1,1,0]",0,50,50,50,1,1,1,,,0,FALSE,,,,,,,,,,,,,,,,,,,,,,,,,,,,,,,
,613c0bbec55231d8e1697bd7,627c6f4987fb4fd63b5b431b,2022-05-11_21h22.35.363,classification_task,2021.2.3,Win32,59.99160118,627c6715c52fd12f31907bd0,,,,,,,,,,,,,,,,,,,,,,,l,0,2.6153,"[""0.305"",""0.546"",""0.661"",""0.965""]","[1,1,0,1]",0,51,51,51,1,0,0,,,0,FALSE,,,,,,,,,,,,,,,,,,,,,,,,,,,,,,,
,613c0bbec55231d8e1697bd7,627c6f4987fb4fd63b5b431b,2022-05-11_21h22.35.363,classification_task,2021.2.3,Win32,59.99160118,627c6715c52fd12f31907bd0,,,,,,,,,,,,,,,,,,,,,,,l,1,0.9577,"[""0.077"",""0.341"",""0.505"",""0.748""]","[1,0,1,1]",0,52,52,52,1,1,1,,,0,FALSE,,,,,,,,,,,,,,,,,,,,,,,,,,,,,,,
,613c0bbec55231d8e1697bd7,627c6f4987fb4fd63b5b431b,2022-05-11_21h22.35.363,classification_task,2021.2.3,Win32,59.99160118,627c6715c52fd12f31907bd0,,,,,,,,,,,,,,,,,,,,,,,l,1,1.2491,"[""0.114"",""0.265"",""0.581"",""0.710""]","[1,0,1,1]",0,53,53,53,1,1,0,,,0,FALSE,,,,,,,,,,,,,,,,,,,,,,,,,,,,,,,
,613c0bbec55231d8e1697bd7,627c6f4987fb4fd63b5b431b,2022-05-11_21h22.35.363,classification_task,2021.2.3,Win32,59.99160118,627c6715c52fd12f31907bd0,,,,,,,,,,,,,,,,,,,,,,,l,1,1.6492,"[""0.114"",""0.397"",""0.581"",""0.358""]","[1,1,1,0]",0,54,54,54,1,1,0,,,0,FALSE,,,,,,,,,,,,,,,,,,,,,,,,,,,,,,,
,613c0bbec55231d8e1697bd7,627c6f4987fb4fd63b5b431b,2022-05-11_21h22.35.363,classification_task,2021.2.3,Win32,59.99160118,627c6715c52fd12f31907bd0,,,,,,,,,,,,,,,,,,,,,,,l,0,2.5324,"[""0.624"",""0.446"",""0.844"",""0.878""]","[0,1,1,1]",0,55,55,55,1,0,1,,,0,FALSE,,,,,,,,,,,,,,,,,,,,,,,,,,,,,,,
,613c0bbec55231d8e1697bd7,627c6f4987fb4fd63b5b431b,2022-05-11_21h22.35.363,classification_task,2021.2.3,Win32,59.99160118,627c6715c52fd12f31907bd0,,,,,,,,,,,,,,,,,,,,,,,l,1,1.1765,"[""0.624"",""0.216"",""0.505"",""0.748""]","[0,1,1,1]",0,56,56,56,1,1,1,,,0,FALSE,,,,,,,,,,,,,,,,,,,,,,,,,,,,,,,
,613c0bbec55231d8e1697bd7,627c6f4987fb4fd63b5b431b,2022-05-11_21h22.35.363,classification_task,2021.2.3,Win32,59.99160118,627c6715c52fd12f31907bd0,,,,,,,,,,,,,,,,,,,,,,,a,1,3.9665,"[""0.164"",""0.668"",""0.844"",""0.878""]","[1,0,1,1]",0,57,57,57,1,0,1,,,0,FALSE,,,,,,,,,,,,,,,,,,,,,,,,,,,,,,,
,613c0bbec55231d8e1697bd7,627c6f4987fb4fd63b5b431b,2022-05-11_21h22.35.363,classification_task,2021.2.3,Win32,59.99160118,627c6715c52fd12f31907bd0,,,,,,,,,,,,,,,,,,,,,,,l,1,1.5581,"[""0.077"",""0.216"",""0.358"",""0.748""]","[1,1,0,1]",0,58,58,58,1,1,1,,,0,FALSE,,,,,,,,,,,,,,,,,,,,,,,,,,,,,,,
,613c0bbec55231d8e1697bd7,627c6f4987fb4fd63b5b431b,2022-05-11_21h22.35.363,classification_task,2021.2.3,Win32,59.99160118,627c6715c52fd12f31907bd0,,,,,,,,,,,,,,,,,,,,,,,a,0,2.4499,"[""0.802"",""0.397"",""0.581"",""0.710""]","[0,1,1,1]",0,59,59,59,1,1,0,,,0,FALSE,,,,,,,,,,,,,,,,,,,,,,,,,,,,,,,
,613c0bbec55231d8e1697bd7,627c6f4987fb4fd63b5b431b,2022-05-11_21h22.35.363,classification_task,2021.2.3,Win32,59.99160118,627c6715c52fd12f31907bd0,,,,,,,,,,,,,,,,,,,,,,,l,0,0.8094,"[""0.305"",""0.802"",""0.918"",""0.965""]","[1,0,1,1]",0,60,60,60,1,0,0,,,0,FALSE,,,,,,,,,,,,,,,,,,,,,,,,,,,,,,,
,613c0bbec55231d8e1697bd7,627c6f4987fb4fd63b5b431b,2022-05-11_21h22.35.363,classification_task,2021.2.3,Win32,59.99160118,627c6715c52fd12f31907bd0,,,,,,,,,,,,,,,,,,,,,,,l,0,0.5328,"[""0.360"",""0.546"",""0.918"",""0.965""]","[0,1,1,1]",0,61,61,61,1,0,0,,,0,FALSE,,,,,,,,,,,,,,,,,,,,,,,,,,,,,,,
,613c0bbec55231d8e1697bd7,627c6f4987fb4fd63b5b431b,2022-05-11_21h22.35.363,classification_task,2021.2.3,Win32,59.99160118,627c6715c52fd12f31907bd0,,,,,,,,,,,,,,,,,,,,,,,a,0,0.2847,"[""0.114"",""0.397"",""0.668"",""0.710""]","[1,1,0,1]",0,62,62,62,1,1,0,,,0,FALSE,,,,,,,,,,,,,,,,,,,,,,,,,,,,,,,
,613c0bbec55231d8e1697bd7,627c6f4987fb4fd63b5b431b,2022-05-11_21h22.35.363,classification_task,2021.2.3,Win32,59.99160118,627c6715c52fd12f31907bd0,,,,,,,,,,,,,,,,,,,,,,,a,1,1.1164,"[""0.164"",""0.446"",""0.628"",""0.878""]","[1,1,0,1]",0,63,63,63,1,0,1,,,0,FALSE,,,,,,,,,,,,,,,,,,,,,,,,,,,,,,,
,613c0bbec55231d8e1697bd7,627c6f4987fb4fd63b5b431b,2022-05-11_21h22.35.363,classification_task,2021.2.3,Win32,59.99160118,627c6715c52fd12f31907bd0,,,,,,,,,,,,,,,,,,,,,,,,,,,,,,,,,,,,,,,0, ,,0,10,366.2494,0,0,0,0,1,2,1,,,,,,,,,,,,,,,,,,
,613c0bbec55231d8e1697bd7,627c6f4987fb4fd63b5b431b,2022-05-11_21h22.35.363,classification_task,2021.2.3,Win32,59.99160118,627c6715c52fd12f31907bd0,,,,,,,,,,,,,,,,,,,,,,,,,,,,,,,,,,,,,,,1,  ,,0,10,369.8649,0,0,0,0,1,2,1,,,,,,,,,,,,,,,,,,
,613c0bbec55231d8e1697bd7,627c6f4987fb4fd63b5b431b,2022-05-11_21h22.35.363,classification_task,2021.2.3,Win32,59.99160118,627c6715c52fd12f31907bd0,,,,,,,,,,,,,,,,,,,,,,,,,,,,,,,,,,,,,,,2,  ,,0,10,373.7377,0,0,0,0,1,2,1,,,,,,,,,,,,,,,,,,
,613c0bbec55231d8e1697bd7,627c6f4987fb4fd63b5b431b,2022-05-11_21h22.35.363,classification_task,2021.2.3,Win32,59.99160118,627c6715c52fd12f31907bd0,,,,,,,,,,,,,,,,,,,,,,,,,,,,,,,,,,,,,,,,,,,,,0,0,0,0,1,,1,,,,,,,,,,,,,,,,,,
,613c0bbec55231d8e1697bd7,627c6f4987fb4fd63b5b431b,2022-05-11_21h22.35.363,classification_task,2021.2.3,Win32,59.99160118,627c6715c52fd12f31907bd0,,,,,,,,,,,,,,,,,,,,,space,29.3554,l,1,4.9469,"[""0.077"",""0.652"",""0.505"",""0.748""]","[1,0,1,1]",0,0,0,0,1,1,1,,,0,FALSE,,,,,,,,,,,,,,,,,,,,,,,,,,,,,,,
,613c0bbec55231d8e1697bd7,627c6f4987fb4fd63b5b431b,2022-05-11_21h22.35.363,classification_task,2021.2.3,Win32,59.99160118,627c6715c52fd12f31907bd0,,,,,,,,,,,,,,,,,,,,,,,l,0,1.8059,"[""0.265"",""0.446"",""0.844"",""0.878""]","[0,1,1,1]",0,1,1,1,1,0,1,,,0,FALSE,,,,,,,,,,,,,,,,,,,,,,,,,,,,,,,
,613c0bbec55231d8e1697bd7,627c6f4987fb4fd63b5b431b,2022-05-11_21h22.35.363,classification_task,2021.2.3,Win32,59.99160118,627c6715c52fd12f31907bd0,,,,,,,,,,,,,,,,,,,,,,,a,0,1.3076,"[""0.077"",""0.216"",""0.505"",""0.652""]","[1,1,1,0]",0,2,2,2,1,1,1,,,0,FALSE,,,,,,,,,,,,,,,,,,,,,,,,,,,,,,,
,613c0bbec55231d8e1697bd7,627c6f4987fb4fd63b5b431b,2022-05-11_21h22.35.363,classification_task,2021.2.3,Win32,59.99160118,627c6715c52fd12f31907bd0,,,,,,,,,,,,,,,,,,,,,,,a,1,3.5553,"[""0.348"",""0.546"",""0.918"",""0.965""]","[0,1,1,1]",0,3,3,3,1,0,0,,,0,FALSE,,,,,,,,,,,,,,,,,,,,,,,,,,,,,,,
,613c0bbec55231d8e1697bd7,627c6f4987fb4fd63b5b431b,2022-05-11_21h22.35.363,classification_task,2021.2.3,Win32,59.99160118,627c6715c52fd12f31907bd0,,,,,,,,,,,,,,,,,,,,,,,l,1,1.1331,"[""0.802"",""0.216"",""0.505"",""0.748""]","[0,1,1,1]",0,4,4,4,1,1,1,,,0,FALSE,,,,,,,,,,,,,,,,,,,,,,,,,,,,,,,
,613c0bbec55231d8e1697bd7,627c6f4987fb4fd63b5b431b,2022-05-11_21h22.35.363,classification_task,2021.2.3,Win32,59.99160118,627c6715c52fd12f31907bd0,,,,,,,,,,,,,,,,,,,,,,,l,0,3.0148,"[""0.164"",""0.802"",""0.844"",""0.878""]","[1,0,1,1]",0,5,5,5,1,0,1,,,0,FALSE,,,,,,,,,,,,,,,,,,,,,,,,,,,,,,,
,613c0bbec55231d8e1697bd7,627c6f4987fb4fd63b5b431b,2022-05-11_21h22.35.363,classification_task,2021.2.3,Win32,59.99160118,627c6715c52fd12f31907bd0,,,,,,,,,,,,,,,,,,,,,,,a,1,1.1977,"[""0.305"",""0.624"",""0.918"",""0.965""]","[1,0,1,1]",0,6,6,6,1,0,0,,,0,FALSE,,,,,,,,,,,,,,,,,,,,,,,,,,,,,,,
,613c0bbec55231d8e1697bd7,627c6f4987fb4fd63b5b431b,2022-05-11_21h22.35.363,classification_task,2021.2.3,Win32,59.99160118,627c6715c52fd12f31907bd0,,,,,,,,,,,,,,,,,,,,,,,l,1,1.0131,"[""0.077"",""0.216"",""0.652"",""0.748""]","[1,1,0,1]",0,7,7,7,1,1,1,,,0,FALSE,,,,,,,,,,,,,,,,,,,,,,,,,,,,,,,
,613c0bbec55231d8e1697bd7,627c6f4987fb4fd63b5b431b,2022-05-11_21h22.35.363,classification_task,2021.2.3,Win32,59.99160118,627c6715c52fd12f31907bd0,,,,,,,,,,,,,,,,,,,,,,,a,1,0.9062,"[""0.305"",""0.546"",""0.918"",""0.661""]","[1,1,1,0]",0,8,8,8,1,0,0,,,0,FALSE,,,,,,,,,,,,,,,,,,,,,,,,,,,,,,,
,613c0bbec55231d8e1697bd7,627c6f4987fb4fd63b5b431b,2022-05-11_21h22.35.363,classification_task,2021.2.3,Win32,59.99160118,627c6715c52fd12f31907bd0,,,,,,,,,,,,,,,,,,,,,,,l,1,0.9143,"[""0.114"",""0.348"",""0.581"",""0.710""]","[1,0,1,1]",0,9,9,9,1,1,0,,,0,FALSE,,,,,,,,,,,,,,,,,,,,,,,,,,,,,,,
,613c0bbec55231d8e1697bd7,627c6f4987fb4fd63b5b431b,2022-05-11_21h22.35.363,classification_task,2021.2.3,Win32,59.99160118,627c6715c52fd12f31907bd0,,,,,,,,,,,,,,,,,,,,,,,l,1,0.5486,"[""0.114"",""0.397"",""0.360"",""0.710""]","[1,1,0,1]",0,10,10,10,1,1,0,,,0,FALSE,,,,,,,,,,,,,,,,,,,,,,,,,,,,,,,
,613c0bbec55231d8e1697bd7,627c6f4987fb4fd63b5b431b,2022-05-11_21h22.35.363,classification_task,2021.2.3,Win32,59.99160118,627c6715c52fd12f31907bd0,,,,,,,,,,,,,,,,,,,,,,,a,1,0.7142,"[""0.305"",""0.546"",""0.258"",""0.965""]","[1,1,0,1]",0,11,11,11,1,0,0,,,0,FALSE,,,,,,,,,,,,,,,,,,,,,,,,,,,,,,,
,613c0bbec55231d8e1697bd7,627c6f4987fb4fd63b5b431b,2022-05-11_21h22.35.363,classification_task,2021.2.3,Win32,59.99160118,627c6715c52fd12f31907bd0,,,,,,,,,,,,,,,,,,,,,,,a,1,2.4082,"[""0.164"",""0.446"",""0.358"",""0.878""]","[1,1,0,1]",0,12,12,12,1,0,1,,,0,FALSE,,,,,,,,,,,,,,,,,,,,,,,,,,,,,,,
,613c0bbec55231d8e1697bd7,627c6f4987fb4fd63b5b431b,2022-05-11_21h22.35.363,classification_task,2021.2.3,Win32,59.99160118,627c6715c52fd12f31907bd0,,,,,,,,,,,,,,,,,,,,,,,l,1,0.9328,"[""0.114"",""0.397"",""0.581"",""0.341""]","[1,1,1,0]",0,13,13,13,1,1,0,,,0,FALSE,,,,,,,,,,,,,,,,,,,,,,,,,,,,,,,
,613c0bbec55231d8e1697bd7,627c6f4987fb4fd63b5b431b,2022-05-11_21h22.35.363,classification_task,2021.2.3,Win32,59.99160118,627c6715c52fd12f31907bd0,,,,,,,,,,,,,,,,,,,,,,,a,1,1.2558,"[""0.164"",""0.446"",""0.844"",""0.360""]","[1,1,1,0]",0,14,14,14,1,0,1,,,0,FALSE,,,,,,,,,,,,,,,,,,,,,,,,,,,,,,,
,613c0bbec55231d8e1697bd7,627c6f4987fb4fd63b5b431b,2022-05-11_21h22.35.363,classification_task,2021.2.3,Win32,59.99160118,627c6715c52fd12f31907bd0,,,,,,,,,,,,,,,,,,,,,,,l,1,1.0543,"[""0.258"",""0.397"",""0.581"",""0.710""]","[0,1,1,1]",0,15,15,15,1,1,0,,,0,FALSE,,,,,,,,,,,,,,,,,,,,,,,,,,,,,,,
,613c0bbec55231d8e1697bd7,627c6f4987fb4fd63b5b431b,2022-05-11_21h22.35.363,classification_task,2021.2.3,Win32,59.99160118,627c6715c52fd12f31907bd0,,,,,,,,,,,,,,,,,,,,,,,a,1,1.1398,"[""0.164"",""0.446"",""0.668"",""0.878""]","[1,1,0,1]",0,16,16,16,1,0,1,,,0,FALSE,,,,,,,,,,,,,,,,,,,,,,,,,,,,,,,
,613c0bbec55231d8e1697bd7,627c6f4987fb4fd63b5b431b,2022-05-11_21h22.35.363,classification_task,2021.2.3,Win32,59.99160118,627c6715c52fd12f31907bd0,,,,,,,,,,,,,,,,,,,,,,,a,1,1.3409,"[""0.305"",""0.546"",""0.918"",""0.668""]","[1,1,1,0]",0,17,17,17,1,0,0,,,0,FALSE,,,,,,,,,,,,,,,,,,,,,,,,,,,,,,,
,613c0bbec55231d8e1697bd7,627c6f4987fb4fd63b5b431b,2022-05-11_21h22.35.363,classification_task,2021.2.3,Win32,59.99160118,627c6715c52fd12f31907bd0,,,,,,,,,,,,,,,,,,,,,,,l,1,0.6967,"[""0.114"",""0.802"",""0.581"",""0.710""]","[1,0,1,1]",0,18,18,18,1,1,0,,,0,FALSE,,,,,,,,,,,,,,,,,,,,,,,,,,,,,,,
,613c0bbec55231d8e1697bd7,627c6f4987fb4fd63b5b431b,2022-05-11_21h22.35.363,classification_task,2021.2.3,Win32,59.99160118,627c6715c52fd12f31907bd0,,,,,,,,,,,,,,,,,,,,,,,l,1,0.5299,"[""0.114"",""0.397"",""0.581"",""0.258""]","[1,1,1,0]",0,19,19,19,1,1,0,,,0,FALSE,,,,,,,,,,,,,,,,,,,,,,,,,,,,,,,
,613c0bbec55231d8e1697bd7,627c6f4987fb4fd63b5b431b,2022-05-11_21h22.35.363,classification_task,2021.2.3,Win32,59.99160118,627c6715c52fd12f31907bd0,,,,,,,,,,,,,,,,,,,,,,,l,1,0.8139,"[""0.114"",""0.397"",""0.661"",""0.710""]","[1,1,0,1]",0,20,20,20,1,1,0,,,0,FALSE,,,,,,,,,,,,,,,,,,,,,,,,,,,,,,,
,613c0bbec55231d8e1697bd7,627c6f4987fb4fd63b5b431b,2022-05-11_21h22.35.363,classification_task,2021.2.3,Win32,59.99160118,627c6715c52fd12f31907bd0,,,,,,,,,,,,,,,,,,,,,,,a,0,1.835,"[""0.624"",""0.216"",""0.505"",""0.748""]","[0,1,1,1]",0,21,21,21,1,1,1,,,0,FALSE,,,,,,,,,,,,,,,,,,,,,,,,,,,,,,,
,613c0bbec55231d8e1697bd7,627c6f4987fb4fd63b5b431b,2022-05-11_21h22.35.363,classification_task,2021.2.3,Win32,59.99160118,627c6715c52fd12f31907bd0,,,,,,,,,,,,,,,,,,,,,,,a,1,0.8489,"[""0.305"",""0.260"",""0.918"",""0.965""]","[1,0,1,1]",0,22,22,22,1,0,0,,,0,FALSE,,,,,,,,,,,,,,,,,,,,,,,,,,,,,,,
,613c0bbec55231d8e1697bd7,627c6f4987fb4fd63b5b431b,2022-05-11_21h22.35.363,classification_task,2021.2.3,Win32,59.99160118,627c6715c52fd12f31907bd0,,,,,,,,,,,,,,,,,,,,,,,l,1,2.6058,"[""0.077"",""0.216"",""0.628"",""0.748""]","[1,1,0,1]",0,23,23,23,1,1,1,,,0,FALSE,,,,,,,,,,,,,,,,,,,,,,,,,,,,,,,
,613c0bbec55231d8e1697bd7,627c6f4987fb4fd63b5b431b,2022-05-11_21h22.35.363,classification_task,2021.2.3,Win32,59.99160118,627c6715c52fd12f31907bd0,,,,,,,,,,,,,,,,,,,,,,,a,0,1.0093,"[""0.077"",""0.216"",""0.505"",""0.624""]","[1,1,1,0]",0,24,24,24,1,1,1,,,0,FALSE,,,,,,,,,,,,,,,,,,,,,,,,,,,,,,,
,613c0bbec55231d8e1697bd7,627c6f4987fb4fd63b5b431b,2022-05-11_21h22.35.363,classification_task,2021.2.3,Win32,59.99160118,627c6715c52fd12f31907bd0,,,,,,,,,,,,,,,,,,,,,,,a,1,0.6738,"[""0.348"",""0.546"",""0.918"",""0.965""]","[0,1,1,1]",0,25,25,25,1,0,0,,,0,FALSE,,,,,,,,,,,,,,,,,,,,,,,,,,,,,,,
,613c0bbec55231d8e1697bd7,627c6f4987fb4fd63b5b431b,2022-05-11_21h22.35.363,classification_task,2021.2.3,Win32,59.99160118,627c6715c52fd12f31907bd0,,,,,,,,,,,,,,,,,,,,,,,l,0,1.355,"[""0.164"",""0.652"",""0.844"",""0.878""]","[1,0,1,1]",0,26,26,26,1,0,1,,,0,FALSE,,,,,,,,,,,,,,,,,,,,,,,,,,,,,,,
,613c0bbec55231d8e1697bd7,627c6f4987fb4fd63b5b431b,2022-05-11_21h22.35.363,classification_task,2021.2.3,Win32,59.99160118,627c6715c52fd12f31907bd0,,,,,,,,,,,,,,,,,,,,,,,l,0,0.6318,"[""0.305"",""0.546"",""0.341"",""0.965""]","[1,1,0,1]",0,27,27,27,1,0,0,,,0,FALSE,,,,,,,,,,,,,,,,,,,,,,,,,,,,,,,
,613c0bbec55231d8e1697bd7,627c6f4987fb4fd63b5b431b,2022-05-11_21h22.35.363,classification_task,2021.2.3,Win32,59.99160118,627c6715c52fd12f31907bd0,,,,,,,,,,,,,,,,,,,,,,,a,1,0.7484,"[""0.668"",""0.446"",""0.844"",""0.878""]","[0,1,1,1]",0,28,28,28,1,0,1,,,0,FALSE,,,,,,,,,,,,,,,,,,,,,,,,,,,,,,,
,613c0bbec55231d8e1697bd7,627c6f4987fb4fd63b5b431b,2022-05-11_21h22.35.363,classification_task,2021.2.3,Win32,59.99160118,627c6715c52fd12f31907bd0,,,,,,,,,,,,,,,,,,,,,,,a,0,2.1984,"[""0.077"",""0.668"",""0.505"",""0.748""]","[1,0,1,1]",0,29,29,29,1,1,1,,,0,FALSE,,,,,,,,,,,,,,,,,,,,,,,,,,,,,,,
,613c0bbec55231d8e1697bd7,627c6f4987fb4fd63b5b431b,2022-05-11_21h22.35.363,classification_task,2021.2.3,Win32,59.99160118,627c6715c52fd12f31907bd0,,,,,,,,,,,,,,,,,,,,,,,l,1,0.7045,"[""0.341"",""0.397"",""0.581"",""0.710""]","[0,1,1,1]",0,30,30,30,1,1,0,,,0,FALSE,,,,,,,,,,,,,,,,,,,,,,,,,,,,,,,
,613c0bbec55231d8e1697bd7,627c6f4987fb4fd63b5b431b,2022-05-11_21h22.35.363,classification_task,2021.2.3,Win32,59.99160118,627c6715c52fd12f31907bd0,,,,,,,,,,,,,,,,,,,,,,,a,1,1.9162,"[""0.164"",""0.446"",""0.844"",""0.360""]","[1,1,1,0]",0,31,31,31,1,0,1,,,0,FALSE,,,,,,,,,,,,,,,,,,,,,,,,,,,,,,,
,613c0bbec55231d8e1697bd7,627c6f4987fb4fd63b5b431b,2022-05-11_21h22.35.363,classification_task,2021.2.3,Win32,59.99160118,627c6715c52fd12f31907bd0,,,,,,,,,,,,,,,,,,,,,,,l,1,0.7825,"[""0.114"",""0.397"",""0.581"",""0.265""]","[1,1,1,0]",0,32,32,32,1,1,0,,,0,FALSE,,,,,,,,,,,,,,,,,,,,,,,,,,,,,,,
,613c0bbec55231d8e1697bd7,627c6f4987fb4fd63b5b431b,2022-05-11_21h22.35.363,classification_task,2021.2.3,Win32,59.99160118,627c6715c52fd12f31907bd0,,,,,,,,,,,,,,,,,,,,,,,a,1,0.9849,"[""0.164"",""0.446"",""0.844"",""0.802""]","[1,1,1,0]",0,33,33,33,1,0,1,,,0,FALSE,,,,,,,,,,,,,,,,,,,,,,,,,,,,,,,
,613c0bbec55231d8e1697bd7,627c6f4987fb4fd63b5b431b,2022-05-11_21h22.35.363,classification_task,2021.2.3,Win32,59.99160118,627c6715c52fd12f31907bd0,,,,,,,,,,,,,,,,,,,,,,,a,1,0.584,"[""0.305"",""0.624"",""0.918"",""0.965""]","[1,0,1,1]",0,34,34,34,1,0,0,,,0,FALSE,,,,,,,,,,,,,,,,,,,,,,,,,,,,,,,
,613c0bbec55231d8e1697bd7,627c6f4987fb4fd63b5b431b,2022-05-11_21h22.35.363,classification_task,2021.2.3,Win32,59.99160118,627c6715c52fd12f31907bd0,,,,,,,,,,,,,,,,,,,,,,,a,1,1.2447,"[""0.164"",""0.446"",""0.360"",""0.878""]","[1,1,0,1]",0,35,35,35,1,0,1,,,0,FALSE,,,,,,,,,,,,,,,,,,,,,,,,,,,,,,,
,613c0bbec55231d8e1697bd7,627c6f4987fb4fd63b5b431b,2022-05-11_21h22.35.363,classification_task,2021.2.3,Win32,59.99160118,627c6715c52fd12f31907bd0,,,,,,,,,,,,,,,,,,,,,,,l,1,1.3889,"[""0.077"",""0.216"",""0.802"",""0.748""]","[1,1,0,1]",0,36,36,36,1,1,1,,,0,FALSE,,,,,,,,,,,,,,,,,,,,,,,,,,,,,,,
,613c0bbec55231d8e1697bd7,627c6f4987fb4fd63b5b431b,2022-05-11_21h22.35.363,classification_task,2021.2.3,Win32,59.99160118,627c6715c52fd12f31907bd0,,,,,,,,,,,,,,,,,,,,,,,a,0,0.9301,"[""0.077"",""0.216"",""0.505"",""0.661""]","[1,1,1,0]",0,37,37,37,1,1,1,,,0,FALSE,,,,,,,,,,,,,,,,,,,,,,,,,,,,,,,
,613c0bbec55231d8e1697bd7,627c6f4987fb4fd63b5b431b,2022-05-11_21h22.35.363,classification_task,2021.2.3,Win32,59.99160118,627c6715c52fd12f31907bd0,,,,,,,,,,,,,,,,,,,,,,,l,1,0.5899,"[""0.624"",""0.397"",""0.581"",""0.710""]","[0,1,1,1]",0,38,38,38,1,1,0,,,0,FALSE,,,,,,,,,,,,,,,,,,,,,,,,,,,,,,,
,613c0bbec55231d8e1697bd7,627c6f4987fb4fd63b5b431b,2022-05-11_21h22.35.363,classification_task,2021.2.3,Win32,59.99160118,627c6715c52fd12f31907bd0,,,,,,,,,,,,,,,,,,,,,,,a,0,0.9745,"[""0.348"",""0.216"",""0.505"",""0.748""]","[0,1,1,1]",0,39,39,39,1,1,1,,,0,FALSE,,,,,,,,,,,,,,,,,,,,,,,,,,,,,,,
,613c0bbec55231d8e1697bd7,627c6f4987fb4fd63b5b431b,2022-05-11_21h22.35.363,classification_task,2021.2.3,Win32,59.99160118,627c6715c52fd12f31907bd0,,,,,,,,,,,,,,,,,,,,,,,a,1,0.7544,"[""0.348"",""0.546"",""0.918"",""0.965""]","[0,1,1,1]",0,40,40,40,1,0,0,,,0,FALSE,,,,,,,,,,,,,,,,,,,,,,,,,,,,,,,
,613c0bbec55231d8e1697bd7,627c6f4987fb4fd63b5b431b,2022-05-11_21h22.35.363,classification_task,2021.2.3,Win32,59.99160118,627c6715c52fd12f31907bd0,,,,,,,,,,,,,,,,,,,,,,,a,1,1.0731,"[""0.164"",""0.358"",""0.844"",""0.878""]","[1,0,1,1]",0,41,41,41,1,0,1,,,0,FALSE,,,,,,,,,,,,,,,,,,,,,,,,,,,,,,,
,613c0bbec55231d8e1697bd7,627c6f4987fb4fd63b5b431b,2022-05-11_21h22.35.363,classification_task,2021.2.3,Win32,59.99160118,627c6715c52fd12f31907bd0,,,,,,,,,,,,,,,,,,,,,,,a,0,0.9077,"[""0.077"",""0.624"",""0.505"",""0.748""]","[1,0,1,1]",0,42,42,42,1,1,1,,,0,FALSE,,,,,,,,,,,,,,,,,,,,,,,,,,,,,,,
,613c0bbec55231d8e1697bd7,627c6f4987fb4fd63b5b431b,2022-05-11_21h22.35.363,classification_task,2021.2.3,Win32,59.99160118,627c6715c52fd12f31907bd0,,,,,,,,,,,,,,,,,,,,,,,l,1,0.4904,"[""0.114"",""0.258"",""0.581"",""0.710""]","[1,0,1,1]",0,43,43,43,1,1,0,,,0,FALSE,,,,,,,,,,,,,,,,,,,,,,,,,,,,,,,
,613c0bbec55231d8e1697bd7,627c6f4987fb4fd63b5b431b,2022-05-11_21h22.35.363,classification_task,2021.2.3,Win32,59.99160118,627c6715c52fd12f31907bd0,,,,,,,,,,,,,,,,,,,,,,,l,1,0.6667,"[""0.114"",""0.397"",""0.360"",""0.710""]","[1,1,0,1]",0,44,44,44,1,1,0,,,0,FALSE,,,,,,,,,,,,,,,,,,,,,,,,,,,,,,,
,613c0bbec55231d8e1697bd7,627c6f4987fb4fd63b5b431b,2022-05-11_21h22.35.363,classification_task,2021.2.3,Win32,59.99160118,627c6715c52fd12f31907bd0,,,,,,,,,,,,,,,,,,,,,,,l,0,1.447,"[""0.348"",""0.446"",""0.844"",""0.878""]","[0,1,1,1]",0,45,45,45,1,0,1,,,0,FALSE,,,,,,,,,,,,,,,,,,,,,,,,,,,,,,,
,613c0bbec55231d8e1697bd7,627c6f4987fb4fd63b5b431b,2022-05-11_21h22.35.363,classification_task,2021.2.3,Win32,59.99160118,627c6715c52fd12f31907bd0,,,,,,,,,,,,,,,,,,,,,,,a,1,0.8194,"[""0.305"",""0.546"",""0.358"",""0.965""]","[1,1,0,1]",0,46,46,46,1,0,0,,,0,FALSE,,,,,,,,,,,,,,,,,,,,,,,,,,,,,,,
,613c0bbec55231d8e1697bd7,627c6f4987fb4fd63b5b431b,2022-05-11_21h22.35.363,classification_task,2021.2.3,Win32,59.99160118,627c6715c52fd12f31907bd0,,,,,,,,,,,,,,,,,,,,,,,a,1,0.5963,"[""0.305"",""0.546"",""0.918"",""0.624""]","[1,1,1,0]",0,47,47,47,1,0,0,,,0,FALSE,,,,,,,,,,,,,,,,,,,,,,,,,,,,,,,
,613c0bbec55231d8e1697bd7,627c6f4987fb4fd63b5b431b,2022-05-11_21h22.35.363,classification_task,2021.2.3,Win32,59.99160118,627c6715c52fd12f31907bd0,,,,,,,,,,,,,,,,,,,,,,,a,1,0.4642,"[""0.668"",""0.546"",""0.918"",""0.965""]","[0,1,1,1]",0,48,48,48,1,0,0,,,0,FALSE,,,,,,,,,,,,,,,,,,,,,,,,,,,,,,,
,613c0bbec55231d8e1697bd7,627c6f4987fb4fd63b5b431b,2022-05-11_21h22.35.363,classification_task,2021.2.3,Win32,59.99160118,627c6715c52fd12f31907bd0,,,,,,,,,,,,,,,,,,,,,,,a,1,1.3729,"[""0.164"",""0.446"",""0.661"",""0.878""]","[1,1,0,1]",0,49,49,49,1,0,1,,,0,FALSE,,,,,,,,,,,,,,,,,,,,,,,,,,,,,,,
,613c0bbec55231d8e1697bd7,627c6f4987fb4fd63b5b431b,2022-05-11_21h22.35.363,classification_task,2021.2.3,Win32,59.99160118,627c6715c52fd12f31907bd0,,,,,,,,,,,,,,,,,,,,,,,a,1,1.1142,"[""0.164"",""0.624"",""0.844"",""0.878""]","[1,0,1,1]",0,50,50,50,1,0,1,,,0,FALSE,,,,,,,,,,,,,,,,,,,,,,,,,,,,,,,
,613c0bbec55231d8e1697bd7,627c6f4987fb4fd63b5b431b,2022-05-11_21h22.35.363,classification_task,2021.2.3,Win32,59.99160118,627c6715c52fd12f31907bd0,,,,,,,,,,,,,,,,,,,,,,,l,0,1.4339,"[""0.260"",""0.446"",""0.844"",""0.878""]","[0,1,1,1]",0,51,51,51,1,0,1,,,0,FALSE,,,,,,,,,,,,,,,,,,,,,,,,,,,,,,,
,613c0bbec55231d8e1697bd7,627c6f4987fb4fd63b5b431b,2022-05-11_21h22.35.363,classification_task,2021.2.3,Win32,59.99160118,627c6715c52fd12f31907bd0,,,,,,,,,,,,,,,,,,,,,,,a,1,0.854,"[""0.305"",""0.546"",""0.918"",""0.661""]","[1,1,1,0]",0,52,52,52,1,0,0,,,0,FALSE,,,,,,,,,,,,,,,,,,,,,,,,,,,,,,,
,613c0bbec55231d8e1697bd7,627c6f4987fb4fd63b5b431b,2022-05-11_21h22.35.363,classification_task,2021.2.3,Win32,59.99160118,627c6715c52fd12f31907bd0,,,,,,,,,,,,,,,,,,,,,,,a,1,0.5294,"[""0.305"",""0.652"",""0.918"",""0.965""]","[1,0,1,1]",0,53,53,53,1,0,0,,,0,FALSE,,,,,,,,,,,,,,,,,,,,,,,,,,,,,,,
,613c0bbec55231d8e1697bd7,627c6f4987fb4fd63b5b431b,2022-05-11_21h22.35.363,classification_task,2021.2.3,Win32,59.99160118,627c6715c52fd12f31907bd0,,,,,,,,,,,,,,,,,,,,,,,l,1,0.7471,"[""0.114"",""0.652"",""0.581"",""0.710""]","[1,0,1,1]",0,54,54,54,1,1,0,,,0,FALSE,,,,,,,,,,,,,,,,,,,,,,,,,,,,,,,
,613c0bbec55231d8e1697bd7,627c6f4987fb4fd63b5b431b,2022-05-11_21h22.35.363,classification_task,2021.2.3,Win32,59.99160118,627c6715c52fd12f31907bd0,,,,,,,,,,,,,,,,,,,,,,,l,1,0.7322,"[""0.114"",""0.397"",""0.624"",""0.710""]","[1,1,0,1]",0,55,55,55,1,1,0,,,0,FALSE,,,,,,,,,,,,,,,,,,,,,,,,,,,,,,,
,613c0bbec55231d8e1697bd7,627c6f4987fb4fd63b5b431b,2022-05-11_21h22.35.363,classification_task,2021.2.3,Win32,59.99160118,627c6715c52fd12f31907bd0,,,,,,,,,,,,,,,,,,,,,,,l,1,0.8899,"[""0.077"",""0.216"",""0.624"",""0.748""]","[1,1,0,1]",0,56,56,56,1,1,1,,,0,FALSE,,,,,,,,,,,,,,,,,,,,,,,,,,,,,,,
,613c0bbec55231d8e1697bd7,627c6f4987fb4fd63b5b431b,2022-05-11_21h22.35.363,classification_task,2021.2.3,Win32,59.99160118,627c6715c52fd12f31907bd0,,,,,,,,,,,,,,,,,,,,,,,l,1,0.7652,"[""0.077"",""0.802"",""0.505"",""0.748""]","[1,0,1,1]",0,57,57,57,1,1,1,,,0,FALSE,,,,,,,,,,,,,,,,,,,,,,,,,,,,,,,
,613c0bbec55231d8e1697bd7,627c6f4987fb4fd63b5b431b,2022-05-11_21h22.35.363,classification_task,2021.2.3,Win32,59.99160118,627c6715c52fd12f31907bd0,,,,,,,,,,,,,,,,,,,,,,,l,0,0.6641,"[""0.164"",""0.446"",""0.844"",""0.668""]","[1,1,1,0]",0,58,58,58,1,0,1,,,0,FALSE,,,,,,,,,,,,,,,,,,,,,,,,,,,,,,,
,613c0bbec55231d8e1697bd7,627c6f4987fb4fd63b5b431b,2022-05-11_21h22.35.363,classification_task,2021.2.3,Win32,59.99160118,627c6715c52fd12f31907bd0,,,,,,,,,,,,,,,,,,,,,,,l,1,1.1971,"[""0.077"",""0.216"",""0.505"",""0.360""]","[1,1,1,0]",0,59,59,59,1,1,1,,,0,FALSE,,,,,,,,,,,,,,,,,,,,,,,,,,,,,,,
,613c0bbec55231d8e1697bd7,627c6f4987fb4fd63b5b431b,2022-05-11_21h22.35.363,classification_task,2021.2.3,Win32,59.99160118,627c6715c52fd12f31907bd0,,,,,,,,,,,,,,,,,,,,,,,a,0,0.9392,"[""0.661"",""0.216"",""0.505"",""0.748""]","[0,1,1,1]",0,60,60,60,1,1,1,,,0,FALSE,,,,,,,,,,,,,,,,,,,,,,,,,,,,,,,
,613c0bbec55231d8e1697bd7,627c6f4987fb4fd63b5b431b,2022-05-11_21h22.35.363,classification_task,2021.2.3,Win32,59.99160118,627c6715c52fd12f31907bd0,,,,,,,,,,,,,,,,,,,,,,,a,1,0.508,"[""0.305"",""0.546"",""0.668"",""0.965""]","[1,1,0,1]",0,61,61,61,1,0,0,,,0,FALSE,,,,,,,,,,,,,,,,,,,,,,,,,,,,,,,
,613c0bbec55231d8e1697bd7,627c6f4987fb4fd63b5b431b,2022-05-11_21h22.35.363,classification_task,2021.2.3,Win32,59.99160118,627c6715c52fd12f31907bd0,,,,,,,,,,,,,,,,,,,,,,,l,1,0.4819,"[""0.265"",""0.397"",""0.581"",""0.710""]","[0,1,1,1]",0,62,62,62,1,1,0,,,0,FALSE,,,,,,,,,,,,,,,,,,,,,,,,,,,,,,,
,613c0bbec55231d8e1697bd7,627c6f4987fb4fd63b5b431b,2022-05-11_21h22.35.363,classification_task,2021.2.3,Win32,59.99160118,627c6715c52fd12f31907bd0,,,,,,,,,,,,,,,,,,,,,,,l,1,0.6069,"[""0.114"",""0.397"",""0.581"",""0.265""]","[1,1,1,0]",0,63,63,63,1,1,0,,,0,FALSE,,,,,,,,,,,,,,,,,,,,,,,,,,,,,,,
,613c0bbec55231d8e1697bd7,627c6f4987fb4fd63b5b431b,2022-05-11_21h22.35.363,classification_task,2021.2.3,Win32,59.99160118,627c6715c52fd12f31907bd0,,,,,,,,,,,,,,,,,,,,,,,,,,,,,,,,,,,,,,,0, ,,0,10,191.5149,0,1,1,1,1,2,2,,,,,,,,,,,,,,,,,,
,613c0bbec55231d8e1697bd7,627c6f4987fb4fd63b5b431b,2022-05-11_21h22.35.363,classification_task,2021.2.3,Win32,59.99160118,627c6715c52fd12f31907bd0,,,,,,,,,,,,,,,,,,,,,,,,,,,,,,,,,,,,,,,1,  ,,0,10,194.4437,0,1,1,1,1,2,2,,,,,,,,,,,,,,,,,,
,613c0bbec55231d8e1697bd7,627c6f4987fb4fd63b5b431b,2022-05-11_21h22.35.363,classification_task,2021.2.3,Win32,59.99160118,627c6715c52fd12f31907bd0,,,,,,,,,,,,,,,,,,,,,,,,,,,,,,,,,,,,,,,2,  ,,0,10,196.1588,0,1,1,1,1,2,2,,,,,,,,,,,,,,,,,,
,613c0bbec55231d8e1697bd7,627c6f4987fb4fd63b5b431b,2022-05-11_21h22.35.363,classification_task,2021.2.3,Win32,59.99160118,627c6715c52fd12f31907bd0,,,,,,,,,,,,,,,,,,,,,,,,,,,,,,,,,,,,,,,,,,,,,0,1,1,1,1,,2,,,,,,,,,,,,,,,,,,
,613c0bbec55231d8e1697bd7,627c6f4987fb4fd63b5b431b,2022-05-11_21h22.35.363,classification_task,2021.2.3,Win32,59.99160118,627c6715c52fd12f31907bd0,,,,,,,,,,,,,,,,,,,,,space,7.2813,l,0,3.2076,"[""0.628"",""0.446"",""0.844"",""0.878""]","[0,1,1,1]",0,0,0,0,1,0,1,,,0,FALSE,,,,,,,,,,,,,,,,,,,,,,,,,,,,,,,
,613c0bbec55231d8e1697bd7,627c6f4987fb4fd63b5b431b,2022-05-11_21h22.35.363,classification_task,2021.2.3,Win32,59.99160118,627c6715c52fd12f31907bd0,,,,,,,,,,,,,,,,,,,,,,,l,1,2.5083,"[""0.661"",""0.397"",""0.581"",""0.710""]","[0,1,1,1]",0,1,1,1,1,1,0,,,0,FALSE,,,,,,,,,,,,,,,,,,,,,,,,,,,,,,,
,613c0bbec55231d8e1697bd7,627c6f4987fb4fd63b5b431b,2022-05-11_21h22.35.363,classification_task,2021.2.3,Win32,59.99160118,627c6715c52fd12f31907bd0,,,,,,,,,,,,,,,,,,,,,,,a,0,2.5658,"[""0.114"",""0.668"",""0.581"",""0.710""]","[1,0,1,1]",0,2,2,2,1,1,0,,,0,FALSE,,,,,,,,,,,,,,,,,,,,,,,,,,,,,,,
,613c0bbec55231d8e1697bd7,627c6f4987fb4fd63b5b431b,2022-05-11_21h22.35.363,classification_task,2021.2.3,Win32,59.99160118,627c6715c52fd12f31907bd0,,,,,,,,,,,,,,,,,,,,,,,l,0,1.2937,"[""0.305"",""0.802"",""0.918"",""0.965""]","[1,0,1,1]",0,3,3,3,1,0,0,,,0,FALSE,,,,,,,,,,,,,,,,,,,,,,,,,,,,,,,
,613c0bbec55231d8e1697bd7,627c6f4987fb4fd63b5b431b,2022-05-11_21h22.35.363,classification_task,2021.2.3,Win32,59.99160118,627c6715c52fd12f31907bd0,,,,,,,,,,,,,,,,,,,,,,,a,1,2.5833,"[""0.164"",""0.624"",""0.844"",""0.878""]","[1,0,1,1]",0,4,4,4,1,0,1,,,0,FALSE,,,,,,,,,,,,,,,,,,,,,,,,,,,,,,,
,613c0bbec55231d8e1697bd7,627c6f4987fb4fd63b5b431b,2022-05-11_21h22.35.363,classification_task,2021.2.3,Win32,59.99160118,627c6715c52fd12f31907bd0,,,,,,,,,,,,,,,,,,,,,,,l,1,0.8738,"[""0.077"",""0.216"",""0.505"",""0.661""]","[1,1,1,0]",0,5,5,5,1,1,1,,,0,FALSE,,,,,,,,,,,,,,,,,,,,,,,,,,,,,,,
,613c0bbec55231d8e1697bd7,627c6f4987fb4fd63b5b431b,2022-05-11_21h22.35.363,classification_task,2021.2.3,Win32,59.99160118,627c6715c52fd12f31907bd0,,,,,,,,,,,,,,,,,,,,,,,a,0,1.367,"[""0.114"",""0.397"",""0.624"",""0.710""]","[1,1,0,1]",0,6,6,6,1,1,0,,,0,FALSE,,,,,,,,,,,,,,,,,,,,,,,,,,,,,,,
,613c0bbec55231d8e1697bd7,627c6f4987fb4fd63b5b431b,2022-05-11_21h22.35.363,classification_task,2021.2.3,Win32,59.99160118,627c6715c52fd12f31907bd0,,,,,,,,,,,,,,,,,,,,,,,a,1,1.0012,"[""0.164"",""0.446"",""0.802"",""0.878""]","[1,1,0,1]",0,7,7,7,1,0,1,,,0,FALSE,,,,,,,,,,,,,,,,,,,,,,,,,,,,,,,
,613c0bbec55231d8e1697bd7,627c6f4987fb4fd63b5b431b,2022-05-11_21h22.35.363,classification_task,2021.2.3,Win32,59.99160118,627c6715c52fd12f31907bd0,,,,,,,,,,,,,,,,,,,,,,,l,1,1.5494,"[""0.077"",""0.216"",""0.260"",""0.748""]","[1,1,0,1]",0,8,8,8,1,1,1,,,0,FALSE,,,,,,,,,,,,,,,,,,,,,,,,,,,,,,,
,613c0bbec55231d8e1697bd7,627c6f4987fb4fd63b5b431b,2022-05-11_21h22.35.363,classification_task,2021.2.3,Win32,59.99160118,627c6715c52fd12f31907bd0,,,,,,,,,,,,,,,,,,,,,,,a,0,0.8154,"[""0.114"",""0.397"",""0.581"",""0.661""]","[1,1,1,0]",0,9,9,9,1,1,0,,,0,FALSE,,,,,,,,,,,,,,,,,,,,,,,,,,,,,,,
,613c0bbec55231d8e1697bd7,627c6f4987fb4fd63b5b431b,2022-05-11_21h22.35.363,classification_task,2021.2.3,Win32,59.99160118,627c6715c52fd12f31907bd0,,,,,,,,,,,,,,,,,,,,,,,l,1,1.2655,"[""0.358"",""0.216"",""0.505"",""0.748""]","[0,1,1,1]",0,10,10,10,1,1,1,,,0,FALSE,,,,,,,,,,,,,,,,,,,,,,,,,,,,,,,
,613c0bbec55231d8e1697bd7,627c6f4987fb4fd63b5b431b,2022-05-11_21h22.35.363,classification_task,2021.2.3,Win32,59.99160118,627c6715c52fd12f31907bd0,,,,,,,,,,,,,,,,,,,,,,,l,0,2.1741,"[""0.164"",""0.446"",""0.844"",""0.624""]","[1,1,1,0]",0,11,11,11,1,0,1,,,0,FALSE,,,,,,,,,,,,,,,,,,,,,,,,,,,,,,,
,613c0bbec55231d8e1697bd7,627c6f4987fb4fd63b5b431b,2022-05-11_21h22.35.363,classification_task,2021.2.3,Win32,59.99160118,627c6715c52fd12f31907bd0,,,,,,,,,,,,,,,,,,,,,,,a,1,0.766,"[""0.305"",""0.546"",""0.918"",""0.258""]","[1,1,1,0]",0,12,12,12,1,0,0,,,0,FALSE,,,,,,,,,,,,,,,,,,,,,,,,,,,,,,,
,613c0bbec55231d8e1697bd7,627c6f4987fb4fd63b5b431b,2022-05-11_21h22.35.363,classification_task,2021.2.3,Win32,59.99160118,627c6715c52fd12f31907bd0,,,,,,,,,,,,,,,,,,,,,,,l,0,0.7161,"[""0.661"",""0.546"",""0.918"",""0.965""]","[0,1,1,1]",0,13,13,13,1,0,0,,,0,FALSE,,,,,,,,,,,,,,,,,,,,,,,,,,,,,,,
,613c0bbec55231d8e1697bd7,627c6f4987fb4fd63b5b431b,2022-05-11_21h22.35.363,classification_task,2021.2.3,Win32,59.99160118,627c6715c52fd12f31907bd0,,,,,,,,,,,,,,,,,,,,,,,a,1,0.8495,"[""0.305"",""0.546"",""0.624"",""0.965""]","[1,1,0,1]",0,14,14,14,1,0,0,,,0,FALSE,,,,,,,,,,,,,,,,,,,,,,,,,,,,,,,
,613c0bbec55231d8e1697bd7,627c6f4987fb4fd63b5b431b,2022-05-11_21h22.35.363,classification_task,2021.2.3,Win32,59.99160118,627c6715c52fd12f31907bd0,,,,,,,,,,,,,,,,,,,,,,,l,1,1.0495,"[""0.077"",""0.341"",""0.505"",""0.748""]","[1,0,1,1]",0,15,15,15,1,1,1,,,0,FALSE,,,,,,,,,,,,,,,,,,,,,,,,,,,,,,,
,613c0bbec55231d8e1697bd7,627c6f4987fb4fd63b5b431b,2022-05-11_21h22.35.363,classification_task,2021.2.3,Win32,59.99160118,627c6715c52fd12f31907bd0,,,,,,,,,,,,,,,,,,,,,,,a,0,1.2834,"[""0.114"",""0.397"",""0.668"",""0.710""]","[1,1,0,1]",0,16,16,16,1,1,0,,,0,FALSE,,,,,,,,,,,,,,,,,,,,,,,,,,,,,,,
,613c0bbec55231d8e1697bd7,627c6f4987fb4fd63b5b431b,2022-05-11_21h22.35.363,classification_task,2021.2.3,Win32,59.99160118,627c6715c52fd12f31907bd0,,,,,,,,,,,,,,,,,,,,,,,l,1,1.2186,"[""0.077"",""0.216"",""0.652"",""0.748""]","[1,1,0,1]",0,17,17,17,1,1,1,,,0,FALSE,,,,,,,,,,,,,,,,,,,,,,,,,,,,,,,
,613c0bbec55231d8e1697bd7,627c6f4987fb4fd63b5b431b,2022-05-11_21h22.35.363,classification_task,2021.2.3,Win32,59.99160118,627c6715c52fd12f31907bd0,,,,,,,,,,,,,,,,,,,,,,,l,0,1.2674,"[""0.652"",""0.446"",""0.844"",""0.878""]","[0,1,1,1]",0,18,18,18,1,0,1,,,0,FALSE,,,,,,,,,,,,,,,,,,,,,,,,,,,,,,,
,613c0bbec55231d8e1697bd7,627c6f4987fb4fd63b5b431b,2022-05-11_21h22.35.363,classification_task,2021.2.3,Win32,59.99160118,627c6715c52fd12f31907bd0,,,,,,,,,,,,,,,,,,,,,,,a,0,0.7668,"[""0.114"",""0.397"",""0.581"",""0.260""]","[1,1,1,0]",0,19,19,19,1,1,0,,,0,FALSE,,,,,,,,,,,,,,,,,,,,,,,,,,,,,,,
,613c0bbec55231d8e1697bd7,627c6f4987fb4fd63b5b431b,2022-05-11_21h22.35.363,classification_task,2021.2.3,Win32,59.99160118,627c6715c52fd12f31907bd0,,,,,,,,,,,,,,,,,,,,,,,l,1,1.1006,"[""0.358"",""0.397"",""0.581"",""0.710""]","[0,1,1,1]",0,20,20,20,1,1,0,,,0,FALSE,,,,,,,,,,,,,,,,,,,,,,,,,,,,,,,
,613c0bbec55231d8e1697bd7,627c6f4987fb4fd63b5b431b,2022-05-11_21h22.35.363,classification_task,2021.2.3,Win32,59.99160118,627c6715c52fd12f31907bd0,,,,,,,,,,,,,,,,,,,,,,,a,0,1.0002,"[""0.077"",""0.216"",""0.505"",""0.661""]","[1,1,1,0]",0,21,21,21,1,1,1,,,0,FALSE,,,,,,,,,,,,,,,,,,,,,,,,,,,,,,,
,613c0bbec55231d8e1697bd7,627c6f4987fb4fd63b5b431b,2022-05-11_21h22.35.363,classification_task,2021.2.3,Win32,59.99160118,627c6715c52fd12f31907bd0,,,,,,,,,,,,,,,,,,,,,,,l,1,0.8993,"[""0.114"",""0.628"",""0.581"",""0.710""]","[1,0,1,1]",0,22,22,22,1,1,0,,,0,FALSE,,,,,,,,,,,,,,,,,,,,,,,,,,,,,,,
,613c0bbec55231d8e1697bd7,627c6f4987fb4fd63b5b431b,2022-05-11_21h22.35.363,classification_task,2021.2.3,Win32,59.99160118,627c6715c52fd12f31907bd0,,,,,,,,,,,,,,,,,,,,,,,l,0,0.9144,"[""0.164"",""0.446"",""0.624"",""0.878""]","[1,1,0,1]",0,23,23,23,1,0,1,,,0,FALSE,,,,,,,,,,,,,,,,,,,,,,,,,,,,,,,
,613c0bbec55231d8e1697bd7,627c6f4987fb4fd63b5b431b,2022-05-11_21h22.35.363,classification_task,2021.2.3,Win32,59.99160118,627c6715c52fd12f31907bd0,,,,,,,,,,,,,,,,,,,,,,,a,1,0.7254,"[""0.305"",""0.546"",""0.260"",""0.965""]","[1,1,0,1]",0,24,24,24,1,0,0,,,0,FALSE,,,,,,,,,,,,,,,,,,,,,,,,,,,,,,,
,613c0bbec55231d8e1697bd7,627c6f4987fb4fd63b5b431b,2022-05-11_21h22.35.363,classification_task,2021.2.3,Win32,59.99160118,627c6715c52fd12f31907bd0,,,,,,,,,,,,,,,,,,,,,,,l,0,0.9176,"[""0.305"",""0.546"",""0.918"",""0.358""]","[1,1,1,0]",0,25,25,25,1,0,0,,,0,FALSE,,,,,,,,,,,,,,,,,,,,,,,,,,,,,,,
,613c0bbec55231d8e1697bd7,627c6f4987fb4fd63b5b431b,2022-05-11_21h22.35.363,classification_task,2021.2.3,Win32,59.99160118,627c6715c52fd12f31907bd0,,,,,,,,,,,,,,,,,,,,,,,l,0,1.2485,"[""0.624"",""0.546"",""0.918"",""0.965""]","[0,1,1,1]",0,26,26,26,1,0,0,,,0,FALSE,,,,,,,,,,,,,,,,,,,,,,,,,,,,,,,
,613c0bbec55231d8e1697bd7,627c6f4987fb4fd63b5b431b,2022-05-11_21h22.35.363,classification_task,2021.2.3,Win32,59.99160118,627c6715c52fd12f31907bd0,,,,,,,,,,,,,,,,,,,,,,,a,1,0.6664,"[""0.305"",""0.661"",""0.918"",""0.965""]","[1,0,1,1]",0,27,27,27,1,0,0,,,0,FALSE,,,,,,,,,,,,,,,,,,,,,,,,,,,,,,,
,613c0bbec55231d8e1697bd7,627c6f4987fb4fd63b5b431b,2022-05-11_21h22.35.363,classification_task,2021.2.3,Win32,59.99160118,627c6715c52fd12f31907bd0,,,,,,,,,,,,,,,,,,,,,,,a,1,1.1468,"[""0.164"",""0.668"",""0.844"",""0.878""]","[1,0,1,1]",0,28,28,28,1,0,1,,,0,FALSE,,,,,,,,,,,,,,,,,,,,,,,,,,,,,,,
,613c0bbec55231d8e1697bd7,627c6f4987fb4fd63b5b431b,2022-05-11_21h22.35.363,classification_task,2021.2.3,Win32,59.99160118,627c6715c52fd12f31907bd0,,,,,,,,,,,,,,,,,,,,,,,l,1,4.7168,"[""0.077"",""0.624"",""0.505"",""0.748""]","[1,0,1,1]",0,29,29,29,1,1,1,,,0,FALSE,,,,,,,,,,,,,,,,,,,,,,,,,,,,,,,
,613c0bbec55231d8e1697bd7,627c6f4987fb4fd63b5b431b,2022-05-11_21h22.35.363,classification_task,2021.2.3,Win32,59.99160118,627c6715c52fd12f31907bd0,,,,,,,,,,,,,,,,,,,,,,,a,0,2.7246,"[""0.348"",""0.216"",""0.505"",""0.748""]","[0,1,1,1]",0,30,30,30,1,1,1,,,0,FALSE,,,,,,,,,,,,,,,,,,,,,,,,,,,,,,,
,613c0bbec55231d8e1697bd7,627c6f4987fb4fd63b5b431b,2022-05-11_21h22.35.363,classification_task,2021.2.3,Win32,59.99160118,627c6715c52fd12f31907bd0,,,,,,,,,,,,,,,,,,,,,,,a,1,0.8574,"[""0.164"",""0.446"",""0.844"",""0.258""]","[1,1,1,0]",0,31,31,31,1,0,1,,,0,FALSE,,,,,,,,,,,,,,,,,,,,,,,,,,,,,,,
,613c0bbec55231d8e1697bd7,627c6f4987fb4fd63b5b431b,2022-05-11_21h22.35.363,classification_task,2021.2.3,Win32,59.99160118,627c6715c52fd12f31907bd0,,,,,,,,,,,,,,,,,,,,,,,l,0,0.8992,"[""0.164"",""0.668"",""0.844"",""0.878""]","[1,0,1,1]",0,32,32,32,1,0,1,,,0,FALSE,,,,,,,,,,,,,,,,,,,,,,,,,,,,,,,
,613c0bbec55231d8e1697bd7,627c6f4987fb4fd63b5b431b,2022-05-11_21h22.35.363,classification_task,2021.2.3,Win32,59.99160118,627c6715c52fd12f31907bd0,,,,,,,,,,,,,,,,,,,,,,,a,0,2.0331,"[""0.077"",""0.216"",""0.358"",""0.748""]","[1,1,0,1]",0,33,33,33,1,1,1,,,0,FALSE,,,,,,,,,,,,,,,,,,,,,,,,,,,,,,,
,613c0bbec55231d8e1697bd7,627c6f4987fb4fd63b5b431b,2022-05-11_21h22.35.363,classification_task,2021.2.3,Win32,59.99160118,627c6715c52fd12f31907bd0,,,,,,,,,,,,,,,,,,,,,,,l,0,1.4339,"[""0.305"",""0.358"",""0.918"",""0.965""]","[1,0,1,1]",0,34,34,34,1,0,0,,,0,FALSE,,,,,,,,,,,,,,,,,,,,,,,,,,,,,,,
,613c0bbec55231d8e1697bd7,627c6f4987fb4fd63b5b431b,2022-05-11_21h22.35.363,classification_task,2021.2.3,Win32,59.99160118,627c6715c52fd12f31907bd0,,,,,,,,,,,,,,,,,,,,,,,l,0,1.3324,"[""0.668"",""0.446"",""0.844"",""0.878""]","[0,1,1,1]",0,35,35,35,1,0,1,,,0,FALSE,,,,,,,,,,,,,,,,,,,,,,,,,,,,,,,
,613c0bbec55231d8e1697bd7,627c6f4987fb4fd63b5b431b,2022-05-11_21h22.35.363,classification_task,2021.2.3,Win32,59.99160118,627c6715c52fd12f31907bd0,,,,,,,,,,,,,,,,,,,,,,,a,1,1.2611,"[""0.305"",""0.546"",""0.918"",""0.360""]","[1,1,1,0]",0,36,36,36,1,0,0,,,0,FALSE,,,,,,,,,,,,,,,,,,,,,,,,,,,,,,,
,613c0bbec55231d8e1697bd7,627c6f4987fb4fd63b5b431b,2022-05-11_21h22.35.363,classification_task,2021.2.3,Win32,59.99160118,627c6715c52fd12f31907bd0,,,,,,,,,,,,,,,,,,,,,,,l,0,1.9502,"[""0.164"",""0.446"",""0.844"",""0.668""]","[1,1,1,0]",0,37,37,37,1,0,1,,,0,FALSE,,,,,,,,,,,,,,,,,,,,,,,,,,,,,,,
,613c0bbec55231d8e1697bd7,627c6f4987fb4fd63b5b431b,2022-05-11_21h22.35.363,classification_task,2021.2.3,Win32,59.99160118,627c6715c52fd12f31907bd0,,,,,,,,,,,,,,,,,,,,,,,a,0,1.8118,"[""0.114"",""0.397"",""0.581"",""0.258""]","[1,1,1,0]",0,38,38,38,1,1,0,,,0,FALSE,,,,,,,,,,,,,,,,,,,,,,,,,,,,,,,
,613c0bbec55231d8e1697bd7,627c6f4987fb4fd63b5b431b,2022-05-11_21h22.35.363,classification_task,2021.2.3,Win32,59.99160118,627c6715c52fd12f31907bd0,,,,,,,,,,,,,,,,,,,,,,,a,0,1.7404,"[""0.358"",""0.216"",""0.505"",""0.748""]","[0,1,1,1]",0,39,39,39,1,1,1,,,0,FALSE,,,,,,,,,,,,,,,,,,,,,,,,,,,,,,,
,613c0bbec55231d8e1697bd7,627c6f4987fb4fd63b5b431b,2022-05-11_21h22.35.363,classification_task,2021.2.3,Win32,59.99160118,627c6715c52fd12f31907bd0,,,,,,,,,,,,,,,,,,,,,,,a,0,0.8826,"[""0.114"",""0.397"",""0.360"",""0.710""]","[1,1,0,1]",0,40,40,40,1,1,0,,,0,FALSE,,,,,,,,,,,,,,,,,,,,,,,,,,,,,,,
,613c0bbec55231d8e1697bd7,627c6f4987fb4fd63b5b431b,2022-05-11_21h22.35.363,classification_task,2021.2.3,Win32,59.99160118,627c6715c52fd12f31907bd0,,,,,,,,,,,,,,,,,,,,,,,l,1,0.7346,"[""0.668"",""0.397"",""0.581"",""0.710""]","[0,1,1,1]",0,41,41,41,1,1,0,,,0,FALSE,,,,,,,,,,,,,,,,,,,,,,,,,,,,,,,
,613c0bbec55231d8e1697bd7,627c6f4987fb4fd63b5b431b,2022-05-11_21h22.35.363,classification_task,2021.2.3,Win32,59.99160118,627c6715c52fd12f31907bd0,,,,,,,,,,,,,,,,,,,,,,,a,0,2.494,"[""0.077"",""0.216"",""0.505"",""0.258""]","[1,1,1,0]",0,42,42,42,1,1,1,,,0,FALSE,,,,,,,,,,,,,,,,,,,,,,,,,,,,,,,
,613c0bbec55231d8e1697bd7,627c6f4987fb4fd63b5b431b,2022-05-11_21h22.35.363,classification_task,2021.2.3,Win32,59.99160118,627c6715c52fd12f31907bd0,,,,,,,,,,,,,,,,,,,,,,,l,0,0.6752,"[""0.305"",""0.546"",""0.668"",""0.965""]","[1,1,0,1]",0,43,43,43,1,0,0,,,0,FALSE,,,,,,,,,,,,,,,,,,,,,,,,,,,,,,,
,613c0bbec55231d8e1697bd7,627c6f4987fb4fd63b5b431b,2022-05-11_21h22.35.363,classification_task,2021.2.3,Win32,59.99160118,627c6715c52fd12f31907bd0,,,,,,,,,,,,,,,,,,,,,,,a,0,1.0999,"[""0.114"",""0.360"",""0.581"",""0.710""]","[1,0,1,1]",0,44,44,44,1,1,0,,,0,FALSE,,,,,,,,,,,,,,,,,,,,,,,,,,,,,,,
,613c0bbec55231d8e1697bd7,627c6f4987fb4fd63b5b431b,2022-05-11_21h22.35.363,classification_task,2021.2.3,Win32,59.99160118,627c6715c52fd12f31907bd0,,,,,,,,,,,,,,,,,,,,,,,a,1,1.2502,"[""0.164"",""0.446"",""0.360"",""0.878""]","[1,1,0,1]",0,45,45,45,1,0,1,,,0,FALSE,,,,,,,,,,,,,,,,,,,,,,,,,,,,,,,
,613c0bbec55231d8e1697bd7,627c6f4987fb4fd63b5b431b,2022-05-11_21h22.35.363,classification_task,2021.2.3,Win32,59.99160118,627c6715c52fd12f31907bd0,,,,,,,,,,,,,,,,,,,,,,,l,1,1.5065,"[""0.077"",""0.348"",""0.505"",""0.748""]","[1,0,1,1]",0,46,46,46,1,1,1,,,0,FALSE,,,,,,,,,,,,,,,,,,,,,,,,,,,,,,,
,613c0bbec55231d8e1697bd7,627c6f4987fb4fd63b5b431b,2022-05-11_21h22.35.363,classification_task,2021.2.3,Win32,59.99160118,627c6715c52fd12f31907bd0,,,,,,,,,,,,,,,,,,,,,,,l,0,1.0659,"[""0.661"",""0.546"",""0.918"",""0.965""]","[0,1,1,1]",0,47,47,47,1,0,0,,,0,FALSE,,,,,,,,,,,,,,,,,,,,,,,,,,,,,,,
,613c0bbec55231d8e1697bd7,627c6f4987fb4fd63b5b431b,2022-05-11_21h22.35.363,classification_task,2021.2.3,Win32,59.99160118,627c6715c52fd12f31907bd0,,,,,,,,,,,,,,,,,,,,,,,a,0,1.3489,"[""0.114"",""0.397"",""0.341"",""0.710""]","[1,1,0,1]",0,48,48,48,1,1,0,,,0,FALSE,,,,,,,,,,,,,,,,,,,,,,,,,,,,,,,
,613c0bbec55231d8e1697bd7,627c6f4987fb4fd63b5b431b,2022-05-11_21h22.35.363,classification_task,2021.2.3,Win32,59.99160118,627c6715c52fd12f31907bd0,,,,,,,,,,,,,,,,,,,,,,,a,1,2.0168,"[""0.164"",""0.661"",""0.844"",""0.878""]","[1,0,1,1]",0,49,49,49,1,0,1,,,0,FALSE,,,,,,,,,,,,,,,,,,,,,,,,,,,,,,,
,613c0bbec55231d8e1697bd7,627c6f4987fb4fd63b5b431b,2022-05-11_21h22.35.363,classification_task,2021.2.3,Win32,59.99160118,627c6715c52fd12f31907bd0,,,,,,,,,,,,,,,,,,,,,,,a,0,1.3083,"[""0.114"",""0.397"",""0.581"",""0.628""]","[1,1,1,0]",0,50,50,50,1,1,0,,,0,FALSE,,,,,,,,,,,,,,,,,,,,,,,,,,,,,,,
,613c0bbec55231d8e1697bd7,627c6f4987fb4fd63b5b431b,2022-05-11_21h22.35.363,classification_task,2021.2.3,Win32,59.99160118,627c6715c52fd12f31907bd0,,,,,,,,,,,,,,,,,,,,,,,a,1,1.1815,"[""0.164"",""0.446"",""0.844"",""0.802""]","[1,1,1,0]",0,51,51,51,1,0,1,,,0,FALSE,,,,,,,,,,,,,,,,,,,,,,,,,,,,,,,
,613c0bbec55231d8e1697bd7,627c6f4987fb4fd63b5b431b,2022-05-11_21h22.35.363,classification_task,2021.2.3,Win32,59.99160118,627c6715c52fd12f31907bd0,,,,,,,,,,,,,,,,,,,,,,,a,0,1.284,"[""0.077"",""0.624"",""0.505"",""0.748""]","[1,0,1,1]",0,52,52,52,1,1,1,,,0,FALSE,,,,,,,,,,,,,,,,,,,,,,,,,,,,,,,
,613c0bbec55231d8e1697bd7,627c6f4987fb4fd63b5b431b,2022-05-11_21h22.35.363,classification_task,2021.2.3,Win32,59.99160118,627c6715c52fd12f31907bd0,,,,,,,,,,,,,,,,,,,,,,,l,0,0.9658,"[""0.305"",""0.546"",""0.918"",""0.802""]","[1,1,1,0]",0,53,53,53,1,0,0,,,0,FALSE,,,,,,,,,,,,,,,,,,,,,,,,,,,,,,,
,613c0bbec55231d8e1697bd7,627c6f4987fb4fd63b5b431b,2022-05-11_21h22.35.363,classification_task,2021.2.3,Win32,59.99160118,627c6715c52fd12f31907bd0,,,,,,,,,,,,,,,,,,,,,,,l,0,0.7162,"[""0.652"",""0.446"",""0.844"",""0.878""]","[0,1,1,1]",0,54,54,54,1,0,1,,,0,FALSE,,,,,,,,,,,,,,,,,,,,,,,,,,,,,,,
,613c0bbec55231d8e1697bd7,627c6f4987fb4fd63b5b431b,2022-05-11_21h22.35.363,classification_task,2021.2.3,Win32,59.99160118,627c6715c52fd12f31907bd0,,,,,,,,,,,,,,,,,,,,,,,a,0,2.1508,"[""0.077"",""0.216"",""0.668"",""0.748""]","[1,1,0,1]",0,55,55,55,1,1,1,,,0,FALSE,,,,,,,,,,,,,,,,,,,,,,,,,,,,,,,
,613c0bbec55231d8e1697bd7,627c6f4987fb4fd63b5b431b,2022-05-11_21h22.35.363,classification_task,2021.2.3,Win32,59.99160118,627c6715c52fd12f31907bd0,,,,,,,,,,,,,,,,,,,,,,,l,1,1.9317,"[""0.114"",""0.348"",""0.581"",""0.710""]","[1,0,1,1]",0,56,56,56,1,1,0,,,0,FALSE,,,,,,,,,,,,,,,,,,,,,,,,,,,,,,,
,613c0bbec55231d8e1697bd7,627c6f4987fb4fd63b5b431b,2022-05-11_21h22.35.363,classification_task,2021.2.3,Win32,59.99160118,627c6715c52fd12f31907bd0,,,,,,,,,,,,,,,,,,,,,,,l,1,1.8773,"[""0.358"",""0.216"",""0.505"",""0.748""]","[0,1,1,1]",0,57,57,57,1,1,1,,,0,FALSE,,,,,,,,,,,,,,,,,,,,,,,,,,,,,,,
,613c0bbec55231d8e1697bd7,627c6f4987fb4fd63b5b431b,2022-05-11_21h22.35.363,classification_task,2021.2.3,Win32,59.99160118,627c6715c52fd12f31907bd0,,,,,,,,,,,,,,,,,,,,,,,a,1,1.1325,"[""0.305"",""0.358"",""0.918"",""0.965""]","[1,0,1,1]",0,58,58,58,1,0,0,,,0,FALSE,,,,,,,,,,,,,,,,,,,,,,,,,,,,,,,
,613c0bbec55231d8e1697bd7,627c6f4987fb4fd63b5b431b,2022-05-11_21h22.35.363,classification_task,2021.2.3,Win32,59.99160118,627c6715c52fd12f31907bd0,,,,,,,,,,,,,,,,,,,,,,,l,0,1.2328,"[""0.305"",""0.546"",""0.265"",""0.965""]","[1,1,0,1]",0,59,59,59,1,0,0,,,0,FALSE,,,,,,,,,,,,,,,,,,,,,,,,,,,,,,,
,613c0bbec55231d8e1697bd7,627c6f4987fb4fd63b5b431b,2022-05-11_21h22.35.363,classification_task,2021.2.3,Win32,59.99160118,627c6715c52fd12f31907bd0,,,,,,,,,,,,,,,,,,,,,,,l,0,1.2084,"[""0.164"",""0.446"",""0.624"",""0.878""]","[1,1,0,1]",0,60,60,60,1,0,1,,,0,FALSE,,,,,,,,,,,,,,,,,,,,,,,,,,,,,,,
,613c0bbec55231d8e1697bd7,627c6f4987fb4fd63b5b431b,2022-05-11_21h22.35.363,classification_task,2021.2.3,Win32,59.99160118,627c6715c52fd12f31907bd0,,,,,,,,,,,,,,,,,,,,,,,l,1,1.8147,"[""0.652"",""0.397"",""0.581"",""0.710""]","[0,1,1,1]",0,61,61,61,1,1,0,,,0,FALSE,,,,,,,,,,,,,,,,,,,,,,,,,,,,,,,
,613c0bbec55231d8e1697bd7,627c6f4987fb4fd63b5b431b,2022-05-11_21h22.35.363,classification_task,2021.2.3,Win32,59.99160118,627c6715c52fd12f31907bd0,,,,,,,,,,,,,,,,,,,,,,,l,0,1.0029,"[""0.360"",""0.546"",""0.918"",""0.965""]","[0,1,1,1]",0,62,62,62,1,0,0,,,0,FALSE,,,,,,,,,,,,,,,,,,,,,,,,,,,,,,,
,613c0bbec55231d8e1697bd7,627c6f4987fb4fd63b5b431b,2022-05-11_21h22.35.363,classification_task,2021.2.3,Win32,59.99160118,627c6715c52fd12f31907bd0,,,,,,,,,,,,,,,,,,,,,,,l,1,2.0322,"[""0.077"",""0.216"",""0.505"",""0.265""]","[1,1,1,0]",0,63,63,63,1,1,1,,,0,FALSE,,,,,,,,,,,,,,,,,,,,,,,,,,,,,,,
,613c0bbec55231d8e1697bd7,627c6f4987fb4fd63b5b431b,2022-05-11_21h22.35.363,classification_task,2021.2.3,Win32,59.99160118,627c6715c52fd12f31907bd0,,,,,,,,,,,,,,,,,,,,,,,,,,,,,,,,,,,,,,,0, ,,0,10,167.1675,0,2,2,2,1,2,3,,,,,,,,,,,,,,,,,,
,613c0bbec55231d8e1697bd7,627c6f4987fb4fd63b5b431b,2022-05-11_21h22.35.363,classification_task,2021.2.3,Win32,59.99160118,627c6715c52fd12f31907bd0,,,,,,,,,,,,,,,,,,,,,,,,,,,,,,,,,,,,,,,1,  ,,0,9.831716264,168.279,0,2,2,2,1,2,3,,,,,,,,,,,,,,,,,,
,613c0bbec55231d8e1697bd7,627c6f4987fb4fd63b5b431b,2022-05-11_21h22.35.363,classification_task,2021.2.3,Win32,59.99160118,627c6715c52fd12f31907bd0,,,,,,,,,,,,,,,,,,,,,,,,,,,,,,,,,,,,,,,2,  ,,0,10,169.9619,0,2,2,2,1,2,3,,,,,,,,,,,,,,,,,,
,613c0bbec55231d8e1697bd7,627c6f4987fb4fd63b5b431b,2022-05-11_21h22.35.363,classification_task,2021.2.3,Win32,59.99160118,627c6715c52fd12f31907bd0,,,,,,,,,,,,,,,,,,,,,,,,,,,,,,,,,,,,,,,,,,,,,0,2,2,2,1,,3,,,,,,,,,,,,,,,,,,
,613c0bbec55231d8e1697bd7,627c6f4987fb4fd63b5b431b,2022-05-11_21h22.35.363,classification_task,2021.2.3,Win32,59.99160118,627c6715c52fd12f31907bd0,,,,,,,,,,,,,,,,,,,,,,,,,,,,,,,,,,,,,,,,,,,,,,,,,,,,,I believe the aid is a competent performer,,0.7,0,3,760.5176,0,0,0,0,1,0,,,,,
,613c0bbec55231d8e1697bd7,627c6f4987fb4fd63b5b431b,2022-05-11_21h22.35.363,classification_task,2021.2.3,Win32,59.99160118,627c6715c52fd12f31907bd0,,,,,,,,,,,,,,,,,,,,,,,,,,,,,,,,,,,,,,,,,,,,,,,,,,,,,I trust the aid,,0.7,0,3,762.4004,0,0,0,0,1,0,,,,,
,613c0bbec55231d8e1697bd7,627c6f4987fb4fd63b5b431b,2022-05-11_21h22.35.363,classification_task,2021.2.3,Win32,59.99160118,627c6715c52fd12f31907bd0,,,,,,,,,,,,,,,,,,,,,,,,,,,,,,,,,,,,,,,,,,,,,,,,,,,,,I have confidence in the advice given by the aid,,0.7,0,3,766.4127,0,0,0,0,1,0,,,,,
,613c0bbec55231d8e1697bd7,627c6f4987fb4fd63b5b431b,2022-05-11_21h22.35.363,classification_task,2021.2.3,Win32,59.99160118,627c6715c52fd12f31907bd0,,,,,,,,,,,,,,,,,,,,,,,,,,,,,,,,,,,,,,,,,,,,,,,,,,,,,I can depend on the aid,,0.7,0,2,768.3253,0,0,0,0,1,0,,,,,
,613c0bbec55231d8e1697bd7,627c6f4987fb4fd63b5b431b,2022-05-11_21h22.35.363,classification_task,2021.2.3,Win32,59.99160118,627c6715c52fd12f31907bd0,,,,,,,,,,,,,,,,,,,,,,,,,,,,,,,,,,,,,,,,,,,,,,,,,,,,,I can rely on the aid to behave in consistent ways,,0.7,0,2,771.1178,0,0,0,0,1,0,,,,,
,613c0bbec55231d8e1697bd7,627c6f4987fb4fd63b5b431b,2022-05-11_21h22.35.363,classification_task,2021.2.3,Win32,59.99160118,627c6715c52fd12f31907bd0,,,,,,,,,,,,,,,,,,,,,,,,,,,,,,,,,,,,,,,,,,,,,,,,,,,,,I can rely on the aid to do its best every time I take its advice,,0.7,0,3,775.8601,0,0,0,0,1,0,,,,,
,613c0bbec55231d8e1697bd7,627c6f4987fb4fd63b5b431b,2022-05-11_21h22.35.363,classification_task,2021.2.3,Win32,59.99160118,627c6715c52fd12f31907bd0,,,,,,,,,,,,,,,,,,,,,,,,,,,,,,,,,,,,,,,,,,,,,,,,,,,,,"On trials you completed with assistance from the aid, how frequently did you think the aid was correct?",,0.7,0,70,,0,0,0,0,1,0,,,,,
,613c0bbec55231d8e1697bd7,627c6f4987fb4fd63b5b431b,2022-05-11_21h22.35.363,classification_task,2021.2.3,Win32,59.99160118,627c6715c52fd12f31907bd0,,,,,,,,,,,,,,,,,,,,,,,,,,,,,,,,,,,,,,,,,,,,,,,,,,,,,"On trials you completed without the aid, how frequently did you think you were correct?",,0.7,0,60,,0,0,0,0,1,0,,,,,
,613c0bbec55231d8e1697bd7,627c6f4987fb4fd63b5b431b,2022-05-11_21h22.35.363,classification_task,2021.2.3,Win32,59.99160118,627c6715c52fd12f31907bd0,,,,,,,,,,,,,,,,,,,,,,,,,,,,,,,,,,,,,,,,,,,,,,,,,,,,,,,,,,,0,0,0,0,1,,,,,,
,613c0bbec55231d8e1697bd7,627c6f4987fb4fd63b5b431b,2022-05-11_21h22.35.363,classification_task,2021.2.3,Win32,59.99160118,627c6715c52fd12f31907bd0,,,,,,,,,,,,,,,,,,,,,,,,,,,,,,,,,,,,,,,,,,,,,,,,,,,,,,,,,,,,,,,,,space,8.7481,806.2761,,
,613c0bbec55231d8e1697bd7,627c6f4987fb4fd63b5b431b,2022-05-11_21h22.35.363,classification_task,2021.2.3,Win32,59.99160118,627c6715c52fd12f31907bd0,,,,,,,,,,,,,,,,,,,,,,,,,,,,,,,,,,,,,,,,,,,,,,,,,,,,,,,,,,,,,,,,,,,,"Mozilla/5.0 (Windows NT 10.0; Win64; x64) AppleWebKit/537.36 (KHTML, like Gecko) Chrome/101.0.4951.54 Safari/537.36",
,613c0bbec55231d8e1697bd7,627c6f4987fb4fd63b5b431b,2022-05-11_21h22.35.363,classification_task,2021.2.3,Win32,59.99160118,627c6715c52fd12f31907bd0,,,,,,,,,,,,,,,,,,,,,,,,,,,,,,,,,,,,,,,,,,,,,,,,,,,,,,,,,,,,,,,,,,,,,HIGHLIGHT
