usingWebGL,participant,session,date,expName,psychopyVersion,OS,frameRate,study_id,signatures_friend,signatures_foe,band_ranges_top,band_ranges_bottom,formitemText,formtype,formundefined,formitemWidth,formindex,formresponse,formrt,key_resp_2.keys,key_resp_2.rt,tute_resp.keys,tute_resp.rt,tutorial.thisRepN,tutorial.thisTrialN,tutorial.thisN,tutorial.thisIndex,tutorial.ran,key_resp_4.keys,key_resp_4.rt,key_resp.keys,key_resp.corr,key_resp.rt,lines_presented,is_signal_presented,trials.thisRepN,trials.thisTrialN,trials.thisN,trials.thisIndex,trials.ran,vessel,active_band,lines,is_signal,supported_pos,catch_trial,debrief_formindex,debrief_formitemText,debrief_formtype,debrief_formitemWidth,debrief_formresponse,debrief_formrt,phases.thisRepN,phases.thisTrialN,phases.thisN,phases.thisIndex,phases.ran,phases.order,phase,key_resp_3.keys,trustitemText,trusttype,trustitemWidth,trustindex,trustresponse,trustrt,support_status.thisRepN,support_status.thisTrialN,support_status.thisN,support_status.thisIndex,support_status.ran,support_status.order,key_resp_5.keys,key_resp_5.rt,globalClockTime,userAgent,manualCondition
TRUE,613c366feb00475071e752cb,627c6f1d1633f75070dcf723,2022-05-11_21h22.00.165,classification_task,2021.2.3,MacIntel,59.87665409,627c6715c52fd12f31907bcf,,,,,,,,,,,,,,,,,,,,,,,,,,,,,,,,,,,,,,,,,,,,,,,,,,,,,,,,,,,,,,,,,,,,,
,613c366feb00475071e752cb,627c6f1d1633f75070dcf723,2022-05-11_21h22.00.165,classification_task,2021.2.3,MacIntel,59.87665409,627c6715c52fd12f31907bcf,"[[""0.282"",""0.542"",""0.910"",""0.945""],[""0.239"",""0.393"",""0.692"",""0.863""]]","[[""0.125"",""0.193"",""0.633"",""0.804""],[""0.086"",""0.319"",""0.460"",""0.742""]]","[1,10]","[100,1000]",Video game experience,,,0.7,0,,,,,,,,,,,,,,,,,,,,,,,,,,,,,,,,,,,,,,,,,,,,,,,,,,,,,,,,,,,,
,613c366feb00475071e752cb,627c6f1d1633f75070dcf723,2022-05-11_21h22.00.165,classification_task,2021.2.3,MacIntel,59.87665409,627c6715c52fd12f31907bcf,,,,,Approximately how many hours did you spend playing video games in the last week?,,,0.7,0,10,,,,,,,,,,,,,,,,,,,,,,,,,,,,,,,,,,,,,,,,,,,,,,,,,,,,,,,,,,,
,613c366feb00475071e752cb,627c6f1d1633f75070dcf723,2022-05-11_21h22.00.165,classification_task,2021.2.3,MacIntel,59.87665409,627c6715c52fd12f31907bcf,,,,,"Which game did you play the most this year? (Enter ""None"" if you didn't play any)",,,0.7,0,FIFA22,,,,,,,,,,,,,,,,,,,,,,,,,,,,,,,,,,,,,,,,,,,,,,,,,,,,,,,,,,,
,613c366feb00475071e752cb,627c6f1d1633f75070dcf723,2022-05-11_21h22.00.165,classification_task,2021.2.3,MacIntel,59.87665409,627c6715c52fd12f31907bcf,,,,,Visual perception,,,0.7,0,,,,,,,,,,,,,,,,,,,,,,,,,,,,,,,,,,,,,,,,,,,,,,,,,,,,,,,,,,,,
,613c366feb00475071e752cb,627c6f1d1633f75070dcf723,2022-05-11_21h22.00.165,classification_task,2021.2.3,MacIntel,59.87665409,627c6715c52fd12f31907bcf,,,,,Do you have any form of color blindness?,,,0.7,0,No,29.5295,,,,,,,,,,,,,,,,,,,,,,,,,,,,,,,,,,,,,,,,,,,,,,,,,,,,,,,,,,
,613c366feb00475071e752cb,627c6f1d1633f75070dcf723,2022-05-11_21h22.00.165,classification_task,2021.2.3,MacIntel,59.87665409,627c6715c52fd12f31907bcf,,,,,Do you use software to change the colour temperature of your screen (e.g. f.lux)?,,,0.7,0,No,33.5953,,,,,,,,,,,,,,,,,,,,,,,,,,,,,,,,,,,,,,,,,,,,,,,,,,,,,,,,,,
,613c366feb00475071e752cb,627c6f1d1633f75070dcf723,2022-05-11_21h22.00.165,classification_task,2021.2.3,MacIntel,59.87665409,627c6715c52fd12f31907bcf,,,,,,,,,,,,space,43.7445,space,9.8893,0,0,0,0,1,,,,,,,,,,,,,,,,,,,,,,,,,,,,,,,,,,,,,,,,,,,,,,,,,
,613c366feb00475071e752cb,627c6f1d1633f75070dcf723,2022-05-11_21h22.00.165,classification_task,2021.2.3,MacIntel,59.87665409,627c6715c52fd12f31907bcf,,,,,,,,,,,,,,space,10.692,1,0,1,0,1,,,,,,,,,,,,,,,,,,,,,,,,,,,,,,,,,,,,,,,,,,,,,,,,,
,613c366feb00475071e752cb,627c6f1d1633f75070dcf723,2022-05-11_21h22.00.165,classification_task,2021.2.3,MacIntel,59.87665409,627c6715c52fd12f31907bcf,,,,,,,,,,,,,,space,31.2636,2,0,2,0,1,,,,,,,,,,,,,,,,,,,,,,,,,,,,,,,,,,,,,,,,,,,,,,,,,
,613c366feb00475071e752cb,627c6f1d1633f75070dcf723,2022-05-11_21h22.00.165,classification_task,2021.2.3,MacIntel,59.87665409,627c6715c52fd12f31907bcf,,,,,,,,,,,,,,space,13.1259,3,0,3,0,1,,,,,,,,,,,,,,,,,,,,,,,,,,,,,,,,,,,,,,,,,,,,,,,,,
,613c366feb00475071e752cb,627c6f1d1633f75070dcf723,2022-05-11_21h22.00.165,classification_task,2021.2.3,MacIntel,59.87665409,627c6715c52fd12f31907bcf,,,,,,,,,,,,,,space,17.978,4,0,4,0,1,,,,,,,,,,,,,,,,,,,,,,,,,,,,,,,,,,,,,,,,,,,,,,,,,
,613c366feb00475071e752cb,627c6f1d1633f75070dcf723,2022-05-11_21h22.00.165,classification_task,2021.2.3,MacIntel,59.87665409,627c6715c52fd12f31907bcf,,,,,,,,,,,,,,,,,,,,,space,42.7684,l,1,1.62,"[""0.032"",""0.193"",""0.633"",""0.804""]","[0,1,1,1]",0,0,0,0,1,1,0,,,0,FALSE,,,,,,,,,,,,,,,,,,,,,,,,,,,,,,,
,613c366feb00475071e752cb,627c6f1d1633f75070dcf723,2022-05-11_21h22.00.165,classification_task,2021.2.3,MacIntel,59.87665409,627c6715c52fd12f31907bcf,,,,,,,,,,,,,,,,,,,,,,,a,1,1.0828,"[""0.239"",""0.393"",""0.494"",""0.863""]","[1,1,0,1]",0,1,1,1,1,0,1,,,0,FALSE,,,,,,,,,,,,,,,,,,,,,,,,,,,,,,,
,613c366feb00475071e752cb,627c6f1d1633f75070dcf723,2022-05-11_21h22.00.165,classification_task,2021.2.3,MacIntel,59.87665409,627c6715c52fd12f31907bcf,,,,,,,,,,,,,,,,,,,,,,,a,1,0.8358,"[""0.239"",""0.592"",""0.692"",""0.863""]","[1,0,1,1]",0,2,2,2,1,0,1,,,0,FALSE,,,,,,,,,,,,,,,,,,,,,,,,,,,,,,,
,613c366feb00475071e752cb,627c6f1d1633f75070dcf723,2022-05-11_21h22.00.165,classification_task,2021.2.3,MacIntel,59.87665409,627c6715c52fd12f31907bcf,,,,,,,,,,,,,,,,,,,,,,,a,1,0.8458,"[""0.239"",""0.393"",""0.692"",""0.495""]","[1,1,1,0]",0,3,3,3,1,0,1,,,0,FALSE,,,,,,,,,,,,,,,,,,,,,,,,,,,,,,,
,613c366feb00475071e752cb,627c6f1d1633f75070dcf723,2022-05-11_21h22.00.165,classification_task,2021.2.3,MacIntel,59.87665409,627c6715c52fd12f31907bcf,,,,,,,,,,,,,,,,,,,,,,,l,1,0.9455,"[""0.086"",""0.587"",""0.460"",""0.742""]","[1,0,1,1]",0,4,4,4,1,1,1,,,0,FALSE,,,,,,,,,,,,,,,,,,,,,,,,,,,,,,,
,613c366feb00475071e752cb,627c6f1d1633f75070dcf723,2022-05-11_21h22.00.165,classification_task,2021.2.3,MacIntel,59.87665409,627c6715c52fd12f31907bcf,,,,,,,,,,,,,,,,,,,,,,,a,1,0.7897,"[""0.282"",""0.542"",""0.590"",""0.945""]","[1,1,0,1]",0,5,5,5,1,0,0,,,0,FALSE,,,,,,,,,,,,,,,,,,,,,,,,,,,,,,,
,613c366feb00475071e752cb,627c6f1d1633f75070dcf723,2022-05-11_21h22.00.165,classification_task,2021.2.3,MacIntel,59.87665409,627c6715c52fd12f31907bcf,,,,,,,,,,,,,,,,,,,,,,,a,0,0.9006,"[""0.086"",""0.319"",""0.032"",""0.742""]","[1,1,0,1]",0,6,6,6,1,1,1,,,0,FALSE,,,,,,,,,,,,,,,,,,,,,,,,,,,,,,,
,613c366feb00475071e752cb,627c6f1d1633f75070dcf723,2022-05-11_21h22.00.165,classification_task,2021.2.3,MacIntel,59.87665409,627c6715c52fd12f31907bcf,,,,,,,,,,,,,,,,,,,,,,,a,1,1.184,"[""0.027"",""0.542"",""0.910"",""0.945""]","[0,1,1,1]",0,7,7,7,1,0,0,,,0,FALSE,,,,,,,,,,,,,,,,,,,,,,,,,,,,,,,
,613c366feb00475071e752cb,627c6f1d1633f75070dcf723,2022-05-11_21h22.00.165,classification_task,2021.2.3,MacIntel,59.87665409,627c6715c52fd12f31907bcf,,,,,,,,,,,,,,,,,,,,,,,l,1,0.8148,"[""0.125"",""0.193"",""0.633"",""0.358""]","[1,1,1,0]",0,8,8,8,1,1,0,,,0,FALSE,,,,,,,,,,,,,,,,,,,,,,,,,,,,,,,
,613c366feb00475071e752cb,627c6f1d1633f75070dcf723,2022-05-11_21h22.00.165,classification_task,2021.2.3,MacIntel,59.87665409,627c6715c52fd12f31907bcf,,,,,,,,,,,,,,,,,,,,,,,a,1,1.33,"[""0.282"",""0.358"",""0.910"",""0.945""]","[1,0,1,1]",0,9,9,9,1,0,0,,,0,FALSE,,,,,,,,,,,,,,,,,,,,,,,,,,,,,,,
,613c366feb00475071e752cb,627c6f1d1633f75070dcf723,2022-05-11_21h22.00.165,classification_task,2021.2.3,MacIntel,59.87665409,627c6715c52fd12f31907bcf,,,,,,,,,,,,,,,,,,,,,,,l,1,1.361,"[""0.125"",""0.358"",""0.633"",""0.804""]","[1,0,1,1]",0,10,10,10,1,1,0,,,0,FALSE,,,,,,,,,,,,,,,,,,,,,,,,,,,,,,,
,613c366feb00475071e752cb,627c6f1d1633f75070dcf723,2022-05-11_21h22.00.165,classification_task,2021.2.3,MacIntel,59.87665409,627c6715c52fd12f31907bcf,,,,,,,,,,,,,,,,,,,,,,,l,1,1.8053,"[""0.032"",""0.319"",""0.460"",""0.742""]","[0,1,1,1]",0,11,11,11,1,1,1,,,0,FALSE,,,,,,,,,,,,,,,,,,,,,,,,,,,,,,,
,613c366feb00475071e752cb,627c6f1d1633f75070dcf723,2022-05-11_21h22.00.165,classification_task,2021.2.3,MacIntel,59.87665409,627c6715c52fd12f31907bcf,,,,,,,,,,,,,,,,,,,,,,,a,1,2.7303,"[""0.358"",""0.393"",""0.692"",""0.863""]","[0,1,1,1]",0,12,12,12,1,0,1,,,0,FALSE,,,,,,,,,,,,,,,,,,,,,,,,,,,,,,,
,613c366feb00475071e752cb,627c6f1d1633f75070dcf723,2022-05-11_21h22.00.165,classification_task,2021.2.3,MacIntel,59.87665409,627c6715c52fd12f31907bcf,,,,,,,,,,,,,,,,,,,,,,,a,1,0.7574,"[""0.282"",""0.542"",""0.910"",""0.507""]","[1,1,1,0]",0,13,13,13,1,0,0,,,0,FALSE,,,,,,,,,,,,,,,,,,,,,,,,,,,,,,,
,613c366feb00475071e752cb,627c6f1d1633f75070dcf723,2022-05-11_21h22.00.165,classification_task,2021.2.3,MacIntel,59.87665409,627c6715c52fd12f31907bcf,,,,,,,,,,,,,,,,,,,,,,,a,0,2.0529,"[""0.086"",""0.319"",""0.460"",""0.494""]","[1,1,1,0]",0,14,14,14,1,1,1,,,0,FALSE,,,,,,,,,,,,,,,,,,,,,,,,,,,,,,,
,613c366feb00475071e752cb,627c6f1d1633f75070dcf723,2022-05-11_21h22.00.165,classification_task,2021.2.3,MacIntel,59.87665409,627c6715c52fd12f31907bcf,,,,,,,,,,,,,,,,,,,,,,,l,1,1.4184,"[""0.125"",""0.193"",""0.494"",""0.804""]","[1,1,0,1]",0,15,15,15,1,1,0,,,0,FALSE,,,,,,,,,,,,,,,,,,,,,,,,,,,,,,,
,613c366feb00475071e752cb,627c6f1d1633f75070dcf723,2022-05-11_21h22.00.165,classification_task,2021.2.3,MacIntel,59.87665409,627c6715c52fd12f31907bcf,,,,,,,,,,,,,,,,,,,,,,,a,1,1.5309,"[""0.282"",""0.542"",""0.592"",""0.945""]","[1,1,0,1]",0,16,16,16,1,0,0,,,0,FALSE,,,,,,,,,,,,,,,,,,,,,,,,,,,,,,,
,613c366feb00475071e752cb,627c6f1d1633f75070dcf723,2022-05-11_21h22.00.165,classification_task,2021.2.3,MacIntel,59.87665409,627c6715c52fd12f31907bcf,,,,,,,,,,,,,,,,,,,,,,,l,0,2.1219,"[""0.282"",""0.499"",""0.910"",""0.945""]","[1,0,1,1]",0,17,17,17,1,0,0,,,0,FALSE,,,,,,,,,,,,,,,,,,,,,,,,,,,,,,,
,613c366feb00475071e752cb,627c6f1d1633f75070dcf723,2022-05-11_21h22.00.165,classification_task,2021.2.3,MacIntel,59.87665409,627c6715c52fd12f31907bcf,,,,,,,,,,,,,,,,,,,,,,,l,1,0.8995,"[""0.587"",""0.319"",""0.460"",""0.742""]","[0,1,1,1]",0,18,18,18,1,1,1,,,0,FALSE,,,,,,,,,,,,,,,,,,,,,,,,,,,,,,,
,613c366feb00475071e752cb,627c6f1d1633f75070dcf723,2022-05-11_21h22.00.165,classification_task,2021.2.3,MacIntel,59.87665409,627c6715c52fd12f31907bcf,,,,,,,,,,,,,,,,,,,,,,,l,1,0.8117,"[""0.086"",""0.319"",""0.592"",""0.742""]","[1,1,0,1]",0,19,19,19,1,1,1,,,0,FALSE,,,,,,,,,,,,,,,,,,,,,,,,,,,,,,,
,613c366feb00475071e752cb,627c6f1d1633f75070dcf723,2022-05-11_21h22.00.165,classification_task,2021.2.3,MacIntel,59.87665409,627c6715c52fd12f31907bcf,,,,,,,,,,,,,,,,,,,,,,,l,0,0.6635,"[""0.494"",""0.393"",""0.692"",""0.863""]","[0,1,1,1]",0,20,20,20,1,0,1,,,0,FALSE,,,,,,,,,,,,,,,,,,,,,,,,,,,,,,,
,613c366feb00475071e752cb,627c6f1d1633f75070dcf723,2022-05-11_21h22.00.165,classification_task,2021.2.3,MacIntel,59.87665409,627c6715c52fd12f31907bcf,,,,,,,,,,,,,,,,,,,,,,,a,0,0.9837,"[""0.125"",""0.193"",""0.633"",""0.041""]","[1,1,1,0]",0,21,21,21,1,1,0,,,0,FALSE,,,,,,,,,,,,,,,,,,,,,,,,,,,,,,,
,613c366feb00475071e752cb,627c6f1d1633f75070dcf723,2022-05-11_21h22.00.165,classification_task,2021.2.3,MacIntel,59.87665409,627c6715c52fd12f31907bcf,,,,,,,,,,,,,,,,,,,,,,,l,0,2.1317,"[""0.239"",""0.032"",""0.692"",""0.863""]","[1,0,1,1]",0,22,22,22,1,0,1,,,0,FALSE,,,,,,,,,,,,,,,,,,,,,,,,,,,,,,,
,613c366feb00475071e752cb,627c6f1d1633f75070dcf723,2022-05-11_21h22.00.165,classification_task,2021.2.3,MacIntel,59.87665409,627c6715c52fd12f31907bcf,,,,,,,,,,,,,,,,,,,,,,,a,0,1.0541,"[""0.086"",""0.041"",""0.460"",""0.742""]","[1,0,1,1]",0,23,23,23,1,1,1,,,0,FALSE,,,,,,,,,,,,,,,,,,,,,,,,,,,,,,,
,613c366feb00475071e752cb,627c6f1d1633f75070dcf723,2022-05-11_21h22.00.165,classification_task,2021.2.3,MacIntel,59.87665409,627c6715c52fd12f31907bcf,,,,,,,,,,,,,,,,,,,,,,,a,0,1.332,"[""0.125"",""0.027"",""0.633"",""0.804""]","[1,0,1,1]",0,24,24,24,1,1,0,,,0,FALSE,,,,,,,,,,,,,,,,,,,,,,,,,,,,,,,
,613c366feb00475071e752cb,627c6f1d1633f75070dcf723,2022-05-11_21h22.00.165,classification_task,2021.2.3,MacIntel,59.87665409,627c6715c52fd12f31907bcf,,,,,,,,,,,,,,,,,,,,,,,a,0,2.743,"[""0.125"",""0.193"",""0.041"",""0.804""]","[1,1,0,1]",0,25,25,25,1,1,0,,,0,FALSE,,,,,,,,,,,,,,,,,,,,,,,,,,,,,,,
,613c366feb00475071e752cb,627c6f1d1633f75070dcf723,2022-05-11_21h22.00.165,classification_task,2021.2.3,MacIntel,59.87665409,627c6715c52fd12f31907bcf,,,,,,,,,,,,,,,,,,,,,,,a,0,1.1158,"[""0.086"",""0.319"",""0.460"",""0.356""]","[1,1,1,0]",0,26,26,26,1,1,1,,,0,FALSE,,,,,,,,,,,,,,,,,,,,,,,,,,,,,,,
,613c366feb00475071e752cb,627c6f1d1633f75070dcf723,2022-05-11_21h22.00.165,classification_task,2021.2.3,MacIntel,59.87665409,627c6715c52fd12f31907bcf,,,,,,,,,,,,,,,,,,,,,,,a,1,1.2851,"[""0.282"",""0.542"",""0.910"",""0.026""]","[1,1,1,0]",0,27,27,27,1,0,0,,,0,FALSE,,,,,,,,,,,,,,,,,,,,,,,,,,,,,,,
,613c366feb00475071e752cb,627c6f1d1633f75070dcf723,2022-05-11_21h22.00.165,classification_task,2021.2.3,MacIntel,59.87665409,627c6715c52fd12f31907bcf,,,,,,,,,,,,,,,,,,,,,,,a,0,1.0986,"[""0.027"",""0.193"",""0.633"",""0.804""]","[0,1,1,1]",0,28,28,28,1,1,0,,,0,FALSE,,,,,,,,,,,,,,,,,,,,,,,,,,,,,,,
,613c366feb00475071e752cb,627c6f1d1633f75070dcf723,2022-05-11_21h22.00.165,classification_task,2021.2.3,MacIntel,59.87665409,627c6715c52fd12f31907bcf,,,,,,,,,,,,,,,,,,,,,,,l,0,0.8316,"[""0.239"",""0.393"",""0.692"",""0.590""]","[1,1,1,0]",0,29,29,29,1,0,1,,,0,FALSE,,,,,,,,,,,,,,,,,,,,,,,,,,,,,,,
,613c366feb00475071e752cb,627c6f1d1633f75070dcf723,2022-05-11_21h22.00.165,classification_task,2021.2.3,MacIntel,59.87665409,627c6715c52fd12f31907bcf,,,,,,,,,,,,,,,,,,,,,,,l,0,0.8038,"[""0.239"",""0.393"",""0.587"",""0.863""]","[1,1,0,1]",0,30,30,30,1,0,1,,,0,FALSE,,,,,,,,,,,,,,,,,,,,,,,,,,,,,,,
,613c366feb00475071e752cb,627c6f1d1633f75070dcf723,2022-05-11_21h22.00.165,classification_task,2021.2.3,MacIntel,59.87665409,627c6715c52fd12f31907bcf,,,,,,,,,,,,,,,,,,,,,,,l,0,1.0308,"[""0.495"",""0.542"",""0.910"",""0.945""]","[0,1,1,1]",0,31,31,31,1,0,0,,,0,FALSE,,,,,,,,,,,,,,,,,,,,,,,,,,,,,,,
,613c366feb00475071e752cb,627c6f1d1633f75070dcf723,2022-05-11_21h22.00.165,classification_task,2021.2.3,MacIntel,59.87665409,627c6715c52fd12f31907bcf,,,,,,,,,,,,,,,,,,,,,,,l,1,0.9628,"[""0.125"",""0.193"",""0.587"",""0.804""]","[1,1,0,1]",0,32,32,32,1,1,0,,,0,FALSE,,,,,,,,,,,,,,,,,,,,,,,,,,,,,,,
,613c366feb00475071e752cb,627c6f1d1633f75070dcf723,2022-05-11_21h22.00.165,classification_task,2021.2.3,MacIntel,59.87665409,627c6715c52fd12f31907bcf,,,,,,,,,,,,,,,,,,,,,,,a,1,4.175,"[""0.282"",""0.542"",""0.494"",""0.945""]","[1,1,0,1]",0,33,33,33,1,0,0,,,0,FALSE,,,,,,,,,,,,,,,,,,,,,,,,,,,,,,,
,613c366feb00475071e752cb,627c6f1d1633f75070dcf723,2022-05-11_21h22.00.165,classification_task,2021.2.3,MacIntel,59.87665409,627c6715c52fd12f31907bcf,,,,,,,,,,,,,,,,,,,,,,,l,0,4.671,"[""0.239"",""0.393"",""0.692"",""0.027""]","[1,1,1,0]",0,34,34,34,1,0,1,,,0,FALSE,,,,,,,,,,,,,,,,,,,,,,,,,,,,,,,
,613c366feb00475071e752cb,627c6f1d1633f75070dcf723,2022-05-11_21h22.00.165,classification_task,2021.2.3,MacIntel,59.87665409,627c6715c52fd12f31907bcf,,,,,,,,,,,,,,,,,,,,,,,a,1,8.1634,"[""0.282"",""0.542"",""0.910"",""0.500""]","[1,1,1,0]",0,35,35,35,1,0,0,,,0,FALSE,,,,,,,,,,,,,,,,,,,,,,,,,,,,,,,
,613c366feb00475071e752cb,627c6f1d1633f75070dcf723,2022-05-11_21h22.00.165,classification_task,2021.2.3,MacIntel,59.87665409,627c6715c52fd12f31907bcf,,,,,,,,,,,,,,,,,,,,,,,l,1,1.3382,"[""0.587"",""0.319"",""0.460"",""0.742""]","[0,1,1,1]",0,36,36,36,1,1,1,,,0,FALSE,,,,,,,,,,,,,,,,,,,,,,,,,,,,,,,
,613c366feb00475071e752cb,627c6f1d1633f75070dcf723,2022-05-11_21h22.00.165,classification_task,2021.2.3,MacIntel,59.87665409,627c6715c52fd12f31907bcf,,,,,,,,,,,,,,,,,,,,,,,a,0,2.0402,"[""0.125"",""0.500"",""0.633"",""0.804""]","[1,0,1,1]",0,37,37,37,1,1,0,,,0,FALSE,,,,,,,,,,,,,,,,,,,,,,,,,,,,,,,
,613c366feb00475071e752cb,627c6f1d1633f75070dcf723,2022-05-11_21h22.00.165,classification_task,2021.2.3,MacIntel,59.87665409,627c6715c52fd12f31907bcf,,,,,,,,,,,,,,,,,,,,,,,l,0,1.2924,"[""0.239"",""0.494"",""0.692"",""0.863""]","[1,0,1,1]",0,38,38,38,1,0,1,,,0,FALSE,,,,,,,,,,,,,,,,,,,,,,,,,,,,,,,
,613c366feb00475071e752cb,627c6f1d1633f75070dcf723,2022-05-11_21h22.00.165,classification_task,2021.2.3,MacIntel,59.87665409,627c6715c52fd12f31907bcf,,,,,,,,,,,,,,,,,,,,,,,l,1,1.0528,"[""0.086"",""0.358"",""0.460"",""0.742""]","[1,0,1,1]",0,39,39,39,1,1,1,,,0,FALSE,,,,,,,,,,,,,,,,,,,,,,,,,,,,,,,
,613c366feb00475071e752cb,627c6f1d1633f75070dcf723,2022-05-11_21h22.00.165,classification_task,2021.2.3,MacIntel,59.87665409,627c6715c52fd12f31907bcf,,,,,,,,,,,,,,,,,,,,,,,a,0,1.9488,"[""0.086"",""0.319"",""0.590"",""0.742""]","[1,1,0,1]",0,40,40,40,1,1,1,,,0,FALSE,,,,,,,,,,,,,,,,,,,,,,,,,,,,,,,
,613c366feb00475071e752cb,627c6f1d1633f75070dcf723,2022-05-11_21h22.00.165,classification_task,2021.2.3,MacIntel,59.87665409,627c6715c52fd12f31907bcf,,,,,,,,,,,,,,,,,,,,,,,l,0,0.7382,"[""0.041"",""0.393"",""0.692"",""0.863""]","[0,1,1,1]",0,41,41,41,1,0,1,,,0,FALSE,,,,,,,,,,,,,,,,,,,,,,,,,,,,,,,
,613c366feb00475071e752cb,627c6f1d1633f75070dcf723,2022-05-11_21h22.00.165,classification_task,2021.2.3,MacIntel,59.87665409,627c6715c52fd12f31907bcf,,,,,,,,,,,,,,,,,,,,,,,l,0,1.0378,"[""0.282"",""0.356"",""0.910"",""0.945""]","[1,0,1,1]",0,42,42,42,1,0,0,,,0,FALSE,,,,,,,,,,,,,,,,,,,,,,,,,,,,,,,
,613c366feb00475071e752cb,627c6f1d1633f75070dcf723,2022-05-11_21h22.00.165,classification_task,2021.2.3,MacIntel,59.87665409,627c6715c52fd12f31907bcf,,,,,,,,,,,,,,,,,,,,,,,l,0,1.0266,"[""0.499"",""0.542"",""0.910"",""0.945""]","[0,1,1,1]",0,43,43,43,1,0,0,,,0,FALSE,,,,,,,,,,,,,,,,,,,,,,,,,,,,,,,
,613c366feb00475071e752cb,627c6f1d1633f75070dcf723,2022-05-11_21h22.00.165,classification_task,2021.2.3,MacIntel,59.87665409,627c6715c52fd12f31907bcf,,,,,,,,,,,,,,,,,,,,,,,a,0,0.7823,"[""0.086"",""0.319"",""0.460"",""0.356""]","[1,1,1,0]",0,44,44,44,1,1,1,,,0,FALSE,,,,,,,,,,,,,,,,,,,,,,,,,,,,,,,
,613c366feb00475071e752cb,627c6f1d1633f75070dcf723,2022-05-11_21h22.00.165,classification_task,2021.2.3,MacIntel,59.87665409,627c6715c52fd12f31907bcf,,,,,,,,,,,,,,,,,,,,,,,a,0,1.3938,"[""0.507"",""0.193"",""0.633"",""0.804""]","[0,1,1,1]",0,45,45,45,1,1,0,,,0,FALSE,,,,,,,,,,,,,,,,,,,,,,,,,,,,,,,
,613c366feb00475071e752cb,627c6f1d1633f75070dcf723,2022-05-11_21h22.00.165,classification_task,2021.2.3,MacIntel,59.87665409,627c6715c52fd12f31907bcf,,,,,,,,,,,,,,,,,,,,,,,a,0,0.9575,"[""0.125"",""0.193"",""0.633"",""0.507""]","[1,1,1,0]",0,46,46,46,1,1,0,,,0,FALSE,,,,,,,,,,,,,,,,,,,,,,,,,,,,,,,
,613c366feb00475071e752cb,627c6f1d1633f75070dcf723,2022-05-11_21h22.00.165,classification_task,2021.2.3,MacIntel,59.87665409,627c6715c52fd12f31907bcf,,,,,,,,,,,,,,,,,,,,,,,l,0,3.9818,"[""0.239"",""0.393"",""0.590"",""0.863""]","[1,1,0,1]",0,47,47,47,1,0,1,,,0,FALSE,,,,,,,,,,,,,,,,,,,,,,,,,,,,,,,
,613c366feb00475071e752cb,627c6f1d1633f75070dcf723,2022-05-11_21h22.00.165,classification_task,2021.2.3,MacIntel,59.87665409,627c6715c52fd12f31907bcf,,,,,,,,,,,,,,,,,,,,,,,a,0,1.433,"[""0.027"",""0.319"",""0.460"",""0.742""]","[0,1,1,1]",0,48,48,48,1,1,1,,,0,FALSE,,,,,,,,,,,,,,,,,,,,,,,,,,,,,,,
,613c366feb00475071e752cb,627c6f1d1633f75070dcf723,2022-05-11_21h22.00.165,classification_task,2021.2.3,MacIntel,59.87665409,627c6715c52fd12f31907bcf,,,,,,,,,,,,,,,,,,,,,,,a,1,1.0333,"[""0.239"",""0.494"",""0.692"",""0.863""]","[1,0,1,1]",0,49,49,49,1,0,1,,,0,FALSE,,,,,,,,,,,,,,,,,,,,,,,,,,,,,,,
,613c366feb00475071e752cb,627c6f1d1633f75070dcf723,2022-05-11_21h22.00.165,classification_task,2021.2.3,MacIntel,59.87665409,627c6715c52fd12f31907bcf,,,,,,,,,,,,,,,,,,,,,,,l,0,2.6322,"[""0.282"",""0.031"",""0.910"",""0.945""]","[1,0,1,1]",0,50,50,50,1,0,0,,,0,FALSE,,,,,,,,,,,,,,,,,,,,,,,,,,,,,,,
,613c366feb00475071e752cb,627c6f1d1633f75070dcf723,2022-05-11_21h22.00.165,classification_task,2021.2.3,MacIntel,59.87665409,627c6715c52fd12f31907bcf,,,,,,,,,,,,,,,,,,,,,,,a,0,1.9016,"[""0.125"",""0.193"",""0.499"",""0.804""]","[1,1,0,1]",0,51,51,51,1,1,0,,,0,FALSE,,,,,,,,,,,,,,,,,,,,,,,,,,,,,,,
,613c366feb00475071e752cb,627c6f1d1633f75070dcf723,2022-05-11_21h22.00.165,classification_task,2021.2.3,MacIntel,59.87665409,627c6715c52fd12f31907bcf,,,,,,,,,,,,,,,,,,,,,,,a,0,0.9872,"[""0.086"",""0.319"",""0.026"",""0.742""]","[1,1,0,1]",0,52,52,52,1,1,1,,,0,FALSE,,,,,,,,,,,,,,,,,,,,,,,,,,,,,,,
,613c366feb00475071e752cb,627c6f1d1633f75070dcf723,2022-05-11_21h22.00.165,classification_task,2021.2.3,MacIntel,59.87665409,627c6715c52fd12f31907bcf,,,,,,,,,,,,,,,,,,,,,,,a,1,1.7716,"[""0.041"",""0.542"",""0.910"",""0.945""]","[0,1,1,1]",0,53,53,53,1,0,0,,,0,FALSE,,,,,,,,,,,,,,,,,,,,,,,,,,,,,,,
,613c366feb00475071e752cb,627c6f1d1633f75070dcf723,2022-05-11_21h22.00.165,classification_task,2021.2.3,MacIntel,59.87665409,627c6715c52fd12f31907bcf,,,,,,,,,,,,,,,,,,,,,,,l,0,2.2332,"[""0.239"",""0.393"",""0.032"",""0.863""]","[1,1,0,1]",0,54,54,54,1,0,1,,,0,FALSE,,,,,,,,,,,,,,,,,,,,,,,,,,,,,,,
,613c366feb00475071e752cb,627c6f1d1633f75070dcf723,2022-05-11_21h22.00.165,classification_task,2021.2.3,MacIntel,59.87665409,627c6715c52fd12f31907bcf,,,,,,,,,,,,,,,,,,,,,,,l,1,1.8199,"[""0.086"",""0.507"",""0.460"",""0.742""]","[1,0,1,1]",0,55,55,55,1,1,1,,,0,FALSE,,,,,,,,,,,,,,,,,,,,,,,,,,,,,,,
,613c366feb00475071e752cb,627c6f1d1633f75070dcf723,2022-05-11_21h22.00.165,classification_task,2021.2.3,MacIntel,59.87665409,627c6715c52fd12f31907bcf,,,,,,,,,,,,,,,,,,,,,,,a,1,7.6838,"[""0.282"",""0.542"",""0.910"",""0.041""]","[1,1,1,0]",0,56,56,56,1,0,0,,,0,FALSE,,,,,,,,,,,,,,,,,,,,,,,,,,,,,,,
,613c366feb00475071e752cb,627c6f1d1633f75070dcf723,2022-05-11_21h22.00.165,classification_task,2021.2.3,MacIntel,59.87665409,627c6715c52fd12f31907bcf,,,,,,,,,,,,,,,,,,,,,,,l,1,7.8269,"[""0.125"",""0.032"",""0.633"",""0.804""]","[1,0,1,1]",0,57,57,57,1,1,0,,,0,FALSE,,,,,,,,,,,,,,,,,,,,,,,,,,,,,,,
,613c366feb00475071e752cb,627c6f1d1633f75070dcf723,2022-05-11_21h22.00.165,classification_task,2021.2.3,MacIntel,59.87665409,627c6715c52fd12f31907bcf,,,,,,,,,,,,,,,,,,,,,,,a,0,3.1048,"[""0.125"",""0.193"",""0.633"",""0.592""]","[1,1,1,0]",0,58,58,58,1,1,0,,,0,FALSE,,,,,,,,,,,,,,,,,,,,,,,,,,,,,,,
,613c366feb00475071e752cb,627c6f1d1633f75070dcf723,2022-05-11_21h22.00.165,classification_task,2021.2.3,MacIntel,59.87665409,627c6715c52fd12f31907bcf,,,,,,,,,,,,,,,,,,,,,,,l,0,1.3512,"[""0.282"",""0.542"",""0.027"",""0.945""]","[1,1,0,1]",0,59,59,59,1,0,0,,,0,FALSE,,,,,,,,,,,,,,,,,,,,,,,,,,,,,,,
,613c366feb00475071e752cb,627c6f1d1633f75070dcf723,2022-05-11_21h22.00.165,classification_task,2021.2.3,MacIntel,59.87665409,627c6715c52fd12f31907bcf,,,,,,,,,,,,,,,,,,,,,,,a,1,0.873,"[""0.239"",""0.393"",""0.692"",""0.500""]","[1,1,1,0]",0,60,60,60,1,0,1,,,0,FALSE,,,,,,,,,,,,,,,,,,,,,,,,,,,,,,,
,613c366feb00475071e752cb,627c6f1d1633f75070dcf723,2022-05-11_21h22.00.165,classification_task,2021.2.3,MacIntel,59.87665409,627c6715c52fd12f31907bcf,,,,,,,,,,,,,,,,,,,,,,,a,1,1.1145,"[""0.500"",""0.393"",""0.692"",""0.863""]","[0,1,1,1]",0,61,61,61,1,0,1,,,0,FALSE,,,,,,,,,,,,,,,,,,,,,,,,,,,,,,,
,613c366feb00475071e752cb,627c6f1d1633f75070dcf723,2022-05-11_21h22.00.165,classification_task,2021.2.3,MacIntel,59.87665409,627c6715c52fd12f31907bcf,,,,,,,,,,,,,,,,,,,,,,,a,0,0.7576,"[""0.358"",""0.193"",""0.633"",""0.804""]","[0,1,1,1]",0,62,62,62,1,1,0,,,0,FALSE,,,,,,,,,,,,,,,,,,,,,,,,,,,,,,,
,613c366feb00475071e752cb,627c6f1d1633f75070dcf723,2022-05-11_21h22.00.165,classification_task,2021.2.3,MacIntel,59.87665409,627c6715c52fd12f31907bcf,,,,,,,,,,,,,,,,,,,,,,,l,1,0.92,"[""0.086"",""0.319"",""0.460"",""0.041""]","[1,1,1,0]",0,63,63,63,1,1,1,,,0,FALSE,,,,,,,,,,,,,,,,,,,,,,,,,,,,,,,
,613c366feb00475071e752cb,627c6f1d1633f75070dcf723,2022-05-11_21h22.00.165,classification_task,2021.2.3,MacIntel,59.87665409,627c6715c52fd12f31907bcf,,,,,,,,,,,,,,,,,,,,,,,,,,,,,,,,,,,,,,,0, ,,0,1.233129754,436.6123,0,0,0,0,1,2,1,,,,,,,,,,,,,,,,,,
,613c366feb00475071e752cb,627c6f1d1633f75070dcf723,2022-05-11_21h22.00.165,classification_task,2021.2.3,MacIntel,59.87665409,627c6715c52fd12f31907bcf,,,,,,,,,,,,,,,,,,,,,,,,,,,,,,,,,,,,,,,1,  ,,0,5.584387401,443.7107,0,0,0,0,1,2,1,,,,,,,,,,,,,,,,,,
,613c366feb00475071e752cb,627c6f1d1633f75070dcf723,2022-05-11_21h22.00.165,classification_task,2021.2.3,MacIntel,59.87665409,627c6715c52fd12f31907bcf,,,,,,,,,,,,,,,,,,,,,,,,,,,,,,,,,,,,,,,2,  ,,0,3.967117229,459.1101,0,0,0,0,1,2,1,,,,,,,,,,,,,,,,,,
,613c366feb00475071e752cb,627c6f1d1633f75070dcf723,2022-05-11_21h22.00.165,classification_task,2021.2.3,MacIntel,59.87665409,627c6715c52fd12f31907bcf,,,,,,,,,,,,,,,,,,,,,,,,,,,,,,,,,,,,,,,,,,,,,0,0,0,0,1,,1,,,,,,,,,,,,,,,,,,
,613c366feb00475071e752cb,627c6f1d1633f75070dcf723,2022-05-11_21h22.00.165,classification_task,2021.2.3,MacIntel,59.87665409,627c6715c52fd12f31907bcf,,,,,,,,,,,,,,,,,,,,,space,40.4239,l,0,5.5453,"[""0.239"",""0.393"",""0.692"",""0.356""]","[1,1,1,0]",0,0,0,0,1,0,1,,,0,FALSE,,,,,,,,,,,,,,,,,,,,,,,,,,,,,,,
,613c366feb00475071e752cb,627c6f1d1633f75070dcf723,2022-05-11_21h22.00.165,classification_task,2021.2.3,MacIntel,59.87665409,627c6715c52fd12f31907bcf,,,,,,,,,,,,,,,,,,,,,,,l,0,2.9899,"[""0.495"",""0.542"",""0.910"",""0.945""]","[0,1,1,1]",0,1,1,1,1,0,0,,,0,FALSE,,,,,,,,,,,,,,,,,,,,,,,,,,,,,,,
,613c366feb00475071e752cb,627c6f1d1633f75070dcf723,2022-05-11_21h22.00.165,classification_task,2021.2.3,MacIntel,59.87665409,627c6715c52fd12f31907bcf,,,,,,,,,,,,,,,,,,,,,,,l,0,1.1348,"[""0.031"",""0.393"",""0.692"",""0.863""]","[0,1,1,1]",0,2,2,2,1,0,1,,,0,FALSE,,,,,,,,,,,,,,,,,,,,,,,,,,,,,,,
,613c366feb00475071e752cb,627c6f1d1633f75070dcf723,2022-05-11_21h22.00.165,classification_task,2021.2.3,MacIntel,59.87665409,627c6715c52fd12f31907bcf,,,,,,,,,,,,,,,,,,,,,,,a,0,0.58,"[""0.086"",""0.319"",""0.460"",""0.041""]","[1,1,1,0]",0,3,3,3,1,1,1,,,0,FALSE,,,,,,,,,,,,,,,,,,,,,,,,,,,,,,,
,613c366feb00475071e752cb,627c6f1d1633f75070dcf723,2022-05-11_21h22.00.165,classification_task,2021.2.3,MacIntel,59.87665409,627c6715c52fd12f31907bcf,,,,,,,,,,,,,,,,,,,,,,,a,0,0.6301,"[""0.125"",""0.193"",""0.633"",""0.026""]","[1,1,1,0]",0,4,4,4,1,1,0,,,0,FALSE,,,,,,,,,,,,,,,,,,,,,,,,,,,,,,,
,613c366feb00475071e752cb,627c6f1d1633f75070dcf723,2022-05-11_21h22.00.165,classification_task,2021.2.3,MacIntel,59.87665409,627c6715c52fd12f31907bcf,,,,,,,,,,,,,,,,,,,,,,,l,1,7.0987,"[""0.086"",""0.495"",""0.460"",""0.742""]","[1,0,1,1]",0,5,5,5,1,1,1,,,0,FALSE,,,,,,,,,,,,,,,,,,,,,,,,,,,,,,,
,613c366feb00475071e752cb,627c6f1d1633f75070dcf723,2022-05-11_21h22.00.165,classification_task,2021.2.3,MacIntel,59.87665409,627c6715c52fd12f31907bcf,,,,,,,,,,,,,,,,,,,,,,,a,1,1.9166,"[""0.282"",""0.542"",""0.041"",""0.945""]","[1,1,0,1]",0,6,6,6,1,0,0,,,0,FALSE,,,,,,,,,,,,,,,,,,,,,,,,,,,,,,,
,613c366feb00475071e752cb,627c6f1d1633f75070dcf723,2022-05-11_21h22.00.165,classification_task,2021.2.3,MacIntel,59.87665409,627c6715c52fd12f31907bcf,,,,,,,,,,,,,,,,,,,,,,,a,1,6.2061,"[""0.282"",""0.494"",""0.910"",""0.945""]","[1,0,1,1]",0,7,7,7,1,0,0,,,0,FALSE,,,,,,,,,,,,,,,,,,,,,,,,,,,,,,,
,613c366feb00475071e752cb,627c6f1d1633f75070dcf723,2022-05-11_21h22.00.165,classification_task,2021.2.3,MacIntel,59.87665409,627c6715c52fd12f31907bcf,,,,,,,,,,,,,,,,,,,,,,,l,0,1.58,"[""0.239"",""0.393"",""0.031"",""0.863""]","[1,1,0,1]",0,8,8,8,1,0,1,,,0,FALSE,,,,,,,,,,,,,,,,,,,,,,,,,,,,,,,
,613c366feb00475071e752cb,627c6f1d1633f75070dcf723,2022-05-11_21h22.00.165,classification_task,2021.2.3,MacIntel,59.87665409,627c6715c52fd12f31907bcf,,,,,,,,,,,,,,,,,,,,,,,l,1,1.4866,"[""0.587"",""0.193"",""0.633"",""0.804""]","[0,1,1,1]",0,9,9,9,1,1,0,,,0,FALSE,,,,,,,,,,,,,,,,,,,,,,,,,,,,,,,
,613c366feb00475071e752cb,627c6f1d1633f75070dcf723,2022-05-11_21h22.00.165,classification_task,2021.2.3,MacIntel,59.87665409,627c6715c52fd12f31907bcf,,,,,,,,,,,,,,,,,,,,,,,a,0,6.5469,"[""0.125"",""0.193"",""0.026"",""0.804""]","[1,1,0,1]",0,10,10,10,1,1,0,,,0,FALSE,,,,,,,,,,,,,,,,,,,,,,,,,,,,,,,
,613c366feb00475071e752cb,627c6f1d1633f75070dcf723,2022-05-11_21h22.00.165,classification_task,2021.2.3,MacIntel,59.87665409,627c6715c52fd12f31907bcf,,,,,,,,,,,,,,,,,,,,,,,a,0,2.6974,"[""0.086"",""0.319"",""0.587"",""0.742""]","[1,1,0,1]",0,11,11,11,1,1,1,,,0,FALSE,,,,,,,,,,,,,,,,,,,,,,,,,,,,,,,
,613c366feb00475071e752cb,627c6f1d1633f75070dcf723,2022-05-11_21h22.00.165,classification_task,2021.2.3,MacIntel,59.87665409,627c6715c52fd12f31907bcf,,,,,,,,,,,,,,,,,,,,,,,l,1,2.2959,"[""0.032"",""0.319"",""0.460"",""0.742""]","[0,1,1,1]",0,12,12,12,1,1,1,,,0,FALSE,,,,,,,,,,,,,,,,,,,,,,,,,,,,,,,
,613c366feb00475071e752cb,627c6f1d1633f75070dcf723,2022-05-11_21h22.00.165,classification_task,2021.2.3,MacIntel,59.87665409,627c6715c52fd12f31907bcf,,,,,,,,,,,,,,,,,,,,,,,,0,,"[""0.125"",""0.356"",""0.633"",""0.804""]","[1,0,1,1]",0,13,13,13,1,1,0,,,0,FALSE,,,,,,,,,,,,,,,,,,,,,,,,,,,,,,,
,613c366feb00475071e752cb,627c6f1d1633f75070dcf723,2022-05-11_21h22.00.165,classification_task,2021.2.3,MacIntel,59.87665409,627c6715c52fd12f31907bcf,,,,,,,,,,,,,,,,,,,,,,,a,1,2.0368,"[""0.239"",""0.027"",""0.692"",""0.863""]","[1,0,1,1]",0,14,14,14,1,0,1,,,0,FALSE,,,,,,,,,,,,,,,,,,,,,,,,,,,,,,,
,613c366feb00475071e752cb,627c6f1d1633f75070dcf723,2022-05-11_21h22.00.165,classification_task,2021.2.3,MacIntel,59.87665409,627c6715c52fd12f31907bcf,,,,,,,,,,,,,,,,,,,,,,,l,0,2.2001,"[""0.282"",""0.542"",""0.910"",""0.587""]","[1,1,1,0]",0,15,15,15,1,0,0,,,0,FALSE,,,,,,,,,,,,,,,,,,,,,,,,,,,,,,,
,613c366feb00475071e752cb,627c6f1d1633f75070dcf723,2022-05-11_21h22.00.165,classification_task,2021.2.3,MacIntel,59.87665409,627c6715c52fd12f31907bcf,,,,,,,,,,,,,,,,,,,,,,,a,0,2.1864,"[""0.032"",""0.193"",""0.633"",""0.804""]","[0,1,1,1]",0,16,16,16,1,1,0,,,0,FALSE,,,,,,,,,,,,,,,,,,,,,,,,,,,,,,,
,613c366feb00475071e752cb,627c6f1d1633f75070dcf723,2022-05-11_21h22.00.165,classification_task,2021.2.3,MacIntel,59.87665409,627c6715c52fd12f31907bcf,,,,,,,,,,,,,,,,,,,,,,,a,0,0.8326,"[""0.086"",""0.319"",""0.356"",""0.742""]","[1,1,0,1]",0,17,17,17,1,1,1,,,0,FALSE,,,,,,,,,,,,,,,,,,,,,,,,,,,,,,,
,613c366feb00475071e752cb,627c6f1d1633f75070dcf723,2022-05-11_21h22.00.165,classification_task,2021.2.3,MacIntel,59.87665409,627c6715c52fd12f31907bcf,,,,,,,,,,,,,,,,,,,,,,,l,0,2.4893,"[""0.282"",""0.542"",""0.041"",""0.945""]","[1,1,0,1]",0,18,18,18,1,0,0,,,0,FALSE,,,,,,,,,,,,,,,,,,,,,,,,,,,,,,,
,613c366feb00475071e752cb,627c6f1d1633f75070dcf723,2022-05-11_21h22.00.165,classification_task,2021.2.3,MacIntel,59.87665409,627c6715c52fd12f31907bcf,,,,,,,,,,,,,,,,,,,,,,,l,1,0.9316,"[""0.125"",""0.193"",""0.032"",""0.804""]","[1,1,0,1]",0,19,19,19,1,1,0,,,0,FALSE,,,,,,,,,,,,,,,,,,,,,,,,,,,,,,,
,613c366feb00475071e752cb,627c6f1d1633f75070dcf723,2022-05-11_21h22.00.165,classification_task,2021.2.3,MacIntel,59.87665409,627c6715c52fd12f31907bcf,,,,,,,,,,,,,,,,,,,,,,,l,1,1.6364,"[""0.125"",""0.193"",""0.633"",""0.507""]","[1,1,1,0]",0,20,20,20,1,1,0,,,0,FALSE,,,,,,,,,,,,,,,,,,,,,,,,,,,,,,,
,613c366feb00475071e752cb,627c6f1d1633f75070dcf723,2022-05-11_21h22.00.165,classification_task,2021.2.3,MacIntel,59.87665409,627c6715c52fd12f31907bcf,,,,,,,,,,,,,,,,,,,,,,,l,1,1.7608,"[""0.086"",""0.358"",""0.460"",""0.742""]","[1,0,1,1]",0,21,21,21,1,1,1,,,0,FALSE,,,,,,,,,,,,,,,,,,,,,,,,,,,,,,,
,613c366feb00475071e752cb,627c6f1d1633f75070dcf723,2022-05-11_21h22.00.165,classification_task,2021.2.3,MacIntel,59.87665409,627c6715c52fd12f31907bcf,,,,,,,,,,,,,,,,,,,,,,,a,1,2.5628,"[""0.282"",""0.494"",""0.910"",""0.945""]","[1,0,1,1]",0,22,22,22,1,0,0,,,0,FALSE,,,,,,,,,,,,,,,,,,,,,,,,,,,,,,,
,613c366feb00475071e752cb,627c6f1d1633f75070dcf723,2022-05-11_21h22.00.165,classification_task,2021.2.3,MacIntel,59.87665409,627c6715c52fd12f31907bcf,,,,,,,,,,,,,,,,,,,,,,,a,1,6.5624,"[""0.507"",""0.393"",""0.692"",""0.863""]","[0,1,1,1]",0,23,23,23,1,0,1,,,0,FALSE,,,,,,,,,,,,,,,,,,,,,,,,,,,,,,,
,613c366feb00475071e752cb,627c6f1d1633f75070dcf723,2022-05-11_21h22.00.165,classification_task,2021.2.3,MacIntel,59.87665409,627c6715c52fd12f31907bcf,,,,,,,,,,,,,,,,,,,,,,,a,1,3.7373,"[""0.282"",""0.542"",""0.910"",""0.356""]","[1,1,1,0]",0,24,24,24,1,0,0,,,0,FALSE,,,,,,,,,,,,,,,,,,,,,,,,,,,,,,,
,613c366feb00475071e752cb,627c6f1d1633f75070dcf723,2022-05-11_21h22.00.165,classification_task,2021.2.3,MacIntel,59.87665409,627c6715c52fd12f31907bcf,,,,,,,,,,,,,,,,,,,,,,,a,0,2.8181,"[""0.125"",""0.500"",""0.633"",""0.804""]","[1,0,1,1]",0,25,25,25,1,1,0,,,0,FALSE,,,,,,,,,,,,,,,,,,,,,,,,,,,,,,,
,613c366feb00475071e752cb,627c6f1d1633f75070dcf723,2022-05-11_21h22.00.165,classification_task,2021.2.3,MacIntel,59.87665409,627c6715c52fd12f31907bcf,,,,,,,,,,,,,,,,,,,,,,,a,0,1.5861,"[""0.027"",""0.319"",""0.460"",""0.742""]","[0,1,1,1]",0,26,26,26,1,1,1,,,0,FALSE,,,,,,,,,,,,,,,,,,,,,,,,,,,,,,,
,613c366feb00475071e752cb,627c6f1d1633f75070dcf723,2022-05-11_21h22.00.165,classification_task,2021.2.3,MacIntel,59.87665409,627c6715c52fd12f31907bcf,,,,,,,,,,,,,,,,,,,,,,,l,0,0.9854,"[""0.239"",""0.393"",""0.692"",""0.590""]","[1,1,1,0]",0,27,27,27,1,0,1,,,0,FALSE,,,,,,,,,,,,,,,,,,,,,,,,,,,,,,,
,613c366feb00475071e752cb,627c6f1d1633f75070dcf723,2022-05-11_21h22.00.165,classification_task,2021.2.3,MacIntel,59.87665409,627c6715c52fd12f31907bcf,,,,,,,,,,,,,,,,,,,,,,,l,1,0.7526,"[""0.086"",""0.319"",""0.460"",""0.500""]","[1,1,1,0]",0,28,28,28,1,1,1,,,0,FALSE,,,,,,,,,,,,,,,,,,,,,,,,,,,,,,,
,613c366feb00475071e752cb,627c6f1d1633f75070dcf723,2022-05-11_21h22.00.165,classification_task,2021.2.3,MacIntel,59.87665409,627c6715c52fd12f31907bcf,,,,,,,,,,,,,,,,,,,,,,,l,0,2.9256,"[""0.027"",""0.542"",""0.910"",""0.945""]","[0,1,1,1]",0,29,29,29,1,0,0,,,0,FALSE,,,,,,,,,,,,,,,,,,,,,,,,,,,,,,,
,613c366feb00475071e752cb,627c6f1d1633f75070dcf723,2022-05-11_21h22.00.165,classification_task,2021.2.3,MacIntel,59.87665409,627c6715c52fd12f31907bcf,,,,,,,,,,,,,,,,,,,,,,,a,1,0.7507,"[""0.239"",""0.393"",""0.500"",""0.863""]","[1,1,0,1]",0,30,30,30,1,0,1,,,0,FALSE,,,,,,,,,,,,,,,,,,,,,,,,,,,,,,,
,613c366feb00475071e752cb,627c6f1d1633f75070dcf723,2022-05-11_21h22.00.165,classification_task,2021.2.3,MacIntel,59.87665409,627c6715c52fd12f31907bcf,,,,,,,,,,,,,,,,,,,,,,,a,1,1.7608,"[""0.239"",""0.026"",""0.692"",""0.863""]","[1,0,1,1]",0,31,31,31,1,0,1,,,0,FALSE,,,,,,,,,,,,,,,,,,,,,,,,,,,,,,,
,613c366feb00475071e752cb,627c6f1d1633f75070dcf723,2022-05-11_21h22.00.165,classification_task,2021.2.3,MacIntel,59.87665409,627c6715c52fd12f31907bcf,,,,,,,,,,,,,,,,,,,,,,,l,1,1.3193,"[""0.086"",""0.319"",""0.460"",""0.499""]","[1,1,1,0]",0,32,32,32,1,1,1,,,0,FALSE,,,,,,,,,,,,,,,,,,,,,,,,,,,,,,,
,613c366feb00475071e752cb,627c6f1d1633f75070dcf723,2022-05-11_21h22.00.165,classification_task,2021.2.3,MacIntel,59.87665409,627c6715c52fd12f31907bcf,,,,,,,,,,,,,,,,,,,,,,,l,0,2.1443,"[""0.282"",""0.587"",""0.910"",""0.945""]","[1,0,1,1]",0,33,33,33,1,0,0,,,0,FALSE,,,,,,,,,,,,,,,,,,,,,,,,,,,,,,,
,613c366feb00475071e752cb,627c6f1d1633f75070dcf723,2022-05-11_21h22.00.165,classification_task,2021.2.3,MacIntel,59.87665409,627c6715c52fd12f31907bcf,,,,,,,,,,,,,,,,,,,,,,,a,0,0.5665,"[""0.125"",""0.193"",""0.633"",""0.358""]","[1,1,1,0]",0,34,34,34,1,1,0,,,0,FALSE,,,,,,,,,,,,,,,,,,,,,,,,,,,,,,,
,613c366feb00475071e752cb,627c6f1d1633f75070dcf723,2022-05-11_21h22.00.165,classification_task,2021.2.3,MacIntel,59.87665409,627c6715c52fd12f31907bcf,,,,,,,,,,,,,,,,,,,,,,,a,0,0.2333,"[""0.125"",""0.590"",""0.633"",""0.804""]","[1,0,1,1]",0,35,35,35,1,1,0,,,0,FALSE,,,,,,,,,,,,,,,,,,,,,,,,,,,,,,,
,613c366feb00475071e752cb,627c6f1d1633f75070dcf723,2022-05-11_21h22.00.165,classification_task,2021.2.3,MacIntel,59.87665409,627c6715c52fd12f31907bcf,,,,,,,,,,,,,,,,,,,,,,,a,1,0.7808,"[""0.239"",""0.393"",""0.692"",""0.027""]","[1,1,1,0]",0,36,36,36,1,0,1,,,0,FALSE,,,,,,,,,,,,,,,,,,,,,,,,,,,,,,,
,613c366feb00475071e752cb,627c6f1d1633f75070dcf723,2022-05-11_21h22.00.165,classification_task,2021.2.3,MacIntel,59.87665409,627c6715c52fd12f31907bcf,,,,,,,,,,,,,,,,,,,,,,,a,0,0.8137,"[""0.125"",""0.193"",""0.358"",""0.804""]","[1,1,0,1]",0,37,37,37,1,1,0,,,0,FALSE,,,,,,,,,,,,,,,,,,,,,,,,,,,,,,,
,613c366feb00475071e752cb,627c6f1d1633f75070dcf723,2022-05-11_21h22.00.165,classification_task,2021.2.3,MacIntel,59.87665409,627c6715c52fd12f31907bcf,,,,,,,,,,,,,,,,,,,,,,,l,1,3.1025,"[""0.086"",""0.319"",""0.356"",""0.742""]","[1,1,0,1]",0,38,38,38,1,1,1,,,0,FALSE,,,,,,,,,,,,,,,,,,,,,,,,,,,,,,,
,613c366feb00475071e752cb,627c6f1d1633f75070dcf723,2022-05-11_21h22.00.165,classification_task,2021.2.3,MacIntel,59.87665409,627c6715c52fd12f31907bcf,,,,,,,,,,,,,,,,,,,,,,,a,0,4.2936,"[""0.507"",""0.193"",""0.633"",""0.804""]","[0,1,1,1]",0,39,39,39,1,1,0,,,0,FALSE,,,,,,,,,,,,,,,,,,,,,,,,,,,,,,,
,613c366feb00475071e752cb,627c6f1d1633f75070dcf723,2022-05-11_21h22.00.165,classification_task,2021.2.3,MacIntel,59.87665409,627c6715c52fd12f31907bcf,,,,,,,,,,,,,,,,,,,,,,,a,1,2.401,"[""0.282"",""0.542"",""0.500"",""0.945""]","[1,1,0,1]",0,40,40,40,1,0,0,,,0,FALSE,,,,,,,,,,,,,,,,,,,,,,,,,,,,,,,
,613c366feb00475071e752cb,627c6f1d1633f75070dcf723,2022-05-11_21h22.00.165,classification_task,2021.2.3,MacIntel,59.87665409,627c6715c52fd12f31907bcf,,,,,,,,,,,,,,,,,,,,,,,a,1,1.9631,"[""0.282"",""0.542"",""0.910"",""0.507""]","[1,1,1,0]",0,41,41,41,1,0,0,,,0,FALSE,,,,,,,,,,,,,,,,,,,,,,,,,,,,,,,
,613c366feb00475071e752cb,627c6f1d1633f75070dcf723,2022-05-11_21h22.00.165,classification_task,2021.2.3,MacIntel,59.87665409,627c6715c52fd12f31907bcf,,,,,,,,,,,,,,,,,,,,,,,l,0,3.0234,"[""0.587"",""0.393"",""0.692"",""0.863""]","[0,1,1,1]",0,42,42,42,1,0,1,,,0,FALSE,,,,,,,,,,,,,,,,,,,,,,,,,,,,,,,
,613c366feb00475071e752cb,627c6f1d1633f75070dcf723,2022-05-11_21h22.00.165,classification_task,2021.2.3,MacIntel,59.87665409,627c6715c52fd12f31907bcf,,,,,,,,,,,,,,,,,,,,,,,l,0,3.8233,"[""0.239"",""0.032"",""0.692"",""0.863""]","[1,0,1,1]",0,43,43,43,1,0,1,,,0,FALSE,,,,,,,,,,,,,,,,,,,,,,,,,,,,,,,
,613c366feb00475071e752cb,627c6f1d1633f75070dcf723,2022-05-11_21h22.00.165,classification_task,2021.2.3,MacIntel,59.87665409,627c6715c52fd12f31907bcf,,,,,,,,,,,,,,,,,,,,,,,l,1,5.7567,"[""0.086"",""0.587"",""0.460"",""0.742""]","[1,0,1,1]",0,44,44,44,1,1,1,,,0,FALSE,,,,,,,,,,,,,,,,,,,,,,,,,,,,,,,
,613c366feb00475071e752cb,627c6f1d1633f75070dcf723,2022-05-11_21h22.00.165,classification_task,2021.2.3,MacIntel,59.87665409,627c6715c52fd12f31907bcf,,,,,,,,,,,,,,,,,,,,,,,a,1,2.054,"[""0.239"",""0.393"",""0.507"",""0.863""]","[1,1,0,1]",0,45,45,45,1,0,1,,,0,FALSE,,,,,,,,,,,,,,,,,,,,,,,,,,,,,,,
,613c366feb00475071e752cb,627c6f1d1633f75070dcf723,2022-05-11_21h22.00.165,classification_task,2021.2.3,MacIntel,59.87665409,627c6715c52fd12f31907bcf,,,,,,,,,,,,,,,,,,,,,,,a,0,3.1413,"[""0.592"",""0.319"",""0.460"",""0.742""]","[0,1,1,1]",0,46,46,46,1,1,1,,,0,FALSE,,,,,,,,,,,,,,,,,,,,,,,,,,,,,,,
,613c366feb00475071e752cb,627c6f1d1633f75070dcf723,2022-05-11_21h22.00.165,classification_task,2021.2.3,MacIntel,59.87665409,627c6715c52fd12f31907bcf,,,,,,,,,,,,,,,,,,,,,,,a,1,4.2745,"[""0.356"",""0.542"",""0.910"",""0.945""]","[0,1,1,1]",0,47,47,47,1,0,0,,,0,FALSE,,,,,,,,,,,,,,,,,,,,,,,,,,,,,,,
,613c366feb00475071e752cb,627c6f1d1633f75070dcf723,2022-05-11_21h22.00.165,classification_task,2021.2.3,MacIntel,59.87665409,627c6715c52fd12f31907bcf,,,,,,,,,,,,,,,,,,,,,,,l,0,4.2746,"[""0.282"",""0.542"",""0.041"",""0.945""]","[1,1,0,1]",0,48,48,48,1,0,0,,,0,FALSE,,,,,,,,,,,,,,,,,,,,,,,,,,,,,,,
,613c366feb00475071e752cb,627c6f1d1633f75070dcf723,2022-05-11_21h22.00.165,classification_task,2021.2.3,MacIntel,59.87665409,627c6715c52fd12f31907bcf,,,,,,,,,,,,,,,,,,,,,,,l,1,2.87,"[""0.086"",""0.319"",""0.494"",""0.742""]","[1,1,0,1]",0,49,49,49,1,1,1,,,0,FALSE,,,,,,,,,,,,,,,,,,,,,,,,,,,,,,,
,613c366feb00475071e752cb,627c6f1d1633f75070dcf723,2022-05-11_21h22.00.165,classification_task,2021.2.3,MacIntel,59.87665409,627c6715c52fd12f31907bcf,,,,,,,,,,,,,,,,,,,,,,,a,1,3.977,"[""0.239"",""0.393"",""0.031"",""0.863""]","[1,1,0,1]",0,50,50,50,1,0,1,,,0,FALSE,,,,,,,,,,,,,,,,,,,,,,,,,,,,,,,
,613c366feb00475071e752cb,627c6f1d1633f75070dcf723,2022-05-11_21h22.00.165,classification_task,2021.2.3,MacIntel,59.87665409,627c6715c52fd12f31907bcf,,,,,,,,,,,,,,,,,,,,,,,a,0,5.386,"[""0.086"",""0.319"",""0.460"",""0.031""]","[1,1,1,0]",0,51,51,51,1,1,1,,,0,FALSE,,,,,,,,,,,,,,,,,,,,,,,,,,,,,,,
,613c366feb00475071e752cb,627c6f1d1633f75070dcf723,2022-05-11_21h22.00.165,classification_task,2021.2.3,MacIntel,59.87665409,627c6715c52fd12f31907bcf,,,,,,,,,,,,,,,,,,,,,,,l,1,3.5046,"[""0.125"",""0.193"",""0.633"",""0.032""]","[1,1,1,0]",0,52,52,52,1,1,0,,,0,FALSE,,,,,,,,,,,,,,,,,,,,,,,,,,,,,,,
,613c366feb00475071e752cb,627c6f1d1633f75070dcf723,2022-05-11_21h22.00.165,classification_task,2021.2.3,MacIntel,59.87665409,627c6715c52fd12f31907bcf,,,,,,,,,,,,,,,,,,,,,,,l,1,3.2411,"[""0.507"",""0.319"",""0.460"",""0.742""]","[0,1,1,1]",0,53,53,53,1,1,1,,,0,FALSE,,,,,,,,,,,,,,,,,,,,,,,,,,,,,,,
,613c366feb00475071e752cb,627c6f1d1633f75070dcf723,2022-05-11_21h22.00.165,classification_task,2021.2.3,MacIntel,59.87665409,627c6715c52fd12f31907bcf,,,,,,,,,,,,,,,,,,,,,,,a,1,2.4175,"[""0.282"",""0.542"",""0.910"",""0.499""]","[1,1,1,0]",0,54,54,54,1,0,0,,,0,FALSE,,,,,,,,,,,,,,,,,,,,,,,,,,,,,,,
,613c366feb00475071e752cb,627c6f1d1633f75070dcf723,2022-05-11_21h22.00.165,classification_task,2021.2.3,MacIntel,59.87665409,627c6715c52fd12f31907bcf,,,,,,,,,,,,,,,,,,,,,,,a,1,5.6246,"[""0.239"",""0.393"",""0.692"",""0.592""]","[1,1,1,0]",0,55,55,55,1,0,1,,,0,FALSE,,,,,,,,,,,,,,,,,,,,,,,,,,,,,,,
,613c366feb00475071e752cb,627c6f1d1633f75070dcf723,2022-05-11_21h22.00.165,classification_task,2021.2.3,MacIntel,59.87665409,627c6715c52fd12f31907bcf,,,,,,,,,,,,,,,,,,,,,,,a,0,3.3733,"[""0.125"",""0.032"",""0.633"",""0.804""]","[1,0,1,1]",0,56,56,56,1,1,0,,,0,FALSE,,,,,,,,,,,,,,,,,,,,,,,,,,,,,,,
,613c366feb00475071e752cb,627c6f1d1633f75070dcf723,2022-05-11_21h22.00.165,classification_task,2021.2.3,MacIntel,59.87665409,627c6715c52fd12f31907bcf,,,,,,,,,,,,,,,,,,,,,,,a,1,3.4207,"[""0.027"",""0.542"",""0.910"",""0.945""]","[0,1,1,1]",0,57,57,57,1,0,0,,,0,FALSE,,,,,,,,,,,,,,,,,,,,,,,,,,,,,,,
,613c366feb00475071e752cb,627c6f1d1633f75070dcf723,2022-05-11_21h22.00.165,classification_task,2021.2.3,MacIntel,59.87665409,627c6715c52fd12f31907bcf,,,,,,,,,,,,,,,,,,,,,,,l,1,1.707,"[""0.041"",""0.193"",""0.633"",""0.804""]","[0,1,1,1]",0,58,58,58,1,1,0,,,0,FALSE,,,,,,,,,,,,,,,,,,,,,,,,,,,,,,,
,613c366feb00475071e752cb,627c6f1d1633f75070dcf723,2022-05-11_21h22.00.165,classification_task,2021.2.3,MacIntel,59.87665409,627c6715c52fd12f31907bcf,,,,,,,,,,,,,,,,,,,,,,,a,0,1.2419,"[""0.086"",""0.494"",""0.460"",""0.742""]","[1,0,1,1]",0,59,59,59,1,1,1,,,0,FALSE,,,,,,,,,,,,,,,,,,,,,,,,,,,,,,,
,613c366feb00475071e752cb,627c6f1d1633f75070dcf723,2022-05-11_21h22.00.165,classification_task,2021.2.3,MacIntel,59.87665409,627c6715c52fd12f31907bcf,,,,,,,,,,,,,,,,,,,,,,,l,0,2.3152,"[""0.358"",""0.393"",""0.692"",""0.863""]","[0,1,1,1]",0,60,60,60,1,0,1,,,0,FALSE,,,,,,,,,,,,,,,,,,,,,,,,,,,,,,,
,613c366feb00475071e752cb,627c6f1d1633f75070dcf723,2022-05-11_21h22.00.165,classification_task,2021.2.3,MacIntel,59.87665409,627c6715c52fd12f31907bcf,,,,,,,,,,,,,,,,,,,,,,,a,1,1.5148,"[""0.282"",""0.032"",""0.910"",""0.945""]","[1,0,1,1]",0,61,61,61,1,0,0,,,0,FALSE,,,,,,,,,,,,,,,,,,,,,,,,,,,,,,,
,613c366feb00475071e752cb,627c6f1d1633f75070dcf723,2022-05-11_21h22.00.165,classification_task,2021.2.3,MacIntel,59.87665409,627c6715c52fd12f31907bcf,,,,,,,,,,,,,,,,,,,,,,,l,0,1.7558,"[""0.239"",""0.041"",""0.692"",""0.863""]","[1,0,1,1]",0,62,62,62,1,0,1,,,0,FALSE,,,,,,,,,,,,,,,,,,,,,,,,,,,,,,,
,613c366feb00475071e752cb,627c6f1d1633f75070dcf723,2022-05-11_21h22.00.165,classification_task,2021.2.3,MacIntel,59.87665409,627c6715c52fd12f31907bcf,,,,,,,,,,,,,,,,,,,,,,,a,0,2.3023,"[""0.125"",""0.193"",""0.358"",""0.804""]","[1,1,0,1]",0,63,63,63,1,1,0,,,0,FALSE,,,,,,,,,,,,,,,,,,,,,,,,,,,,,,,
,613c366feb00475071e752cb,627c6f1d1633f75070dcf723,2022-05-11_21h22.00.165,classification_task,2021.2.3,MacIntel,59.87665409,627c6715c52fd12f31907bcf,,,,,,,,,,,,,,,,,,,,,,,,,,,,,,,,,,,,,,,0, ,,0,1.810670883,326.05,0,1,1,1,1,2,2,,,,,,,,,,,,,,,,,,
,613c366feb00475071e752cb,627c6f1d1633f75070dcf723,2022-05-11_21h22.00.165,classification_task,2021.2.3,MacIntel,59.87665409,627c6715c52fd12f31907bcf,,,,,,,,,,,,,,,,,,,,,,,,,,,,,,,,,,,,,,,1,  ,,0,8.146055514,329.3413,0,1,1,1,1,2,2,,,,,,,,,,,,,,,,,,
,613c366feb00475071e752cb,627c6f1d1633f75070dcf723,2022-05-11_21h22.00.165,classification_task,2021.2.3,MacIntel,59.87665409,627c6715c52fd12f31907bcf,,,,,,,,,,,,,,,,,,,,,,,,,,,,,,,,,,,,,,,2,  ,,0,6.375583871,331.9317,0,1,1,1,1,2,2,,,,,,,,,,,,,,,,,,
,613c366feb00475071e752cb,627c6f1d1633f75070dcf723,2022-05-11_21h22.00.165,classification_task,2021.2.3,MacIntel,59.87665409,627c6715c52fd12f31907bcf,,,,,,,,,,,,,,,,,,,,,,,,,,,,,,,,,,,,,,,,,,,,,0,1,1,1,1,,2,,,,,,,,,,,,,,,,,,
,613c366feb00475071e752cb,627c6f1d1633f75070dcf723,2022-05-11_21h22.00.165,classification_task,2021.2.3,MacIntel,59.87665409,627c6715c52fd12f31907bcf,,,,,,,,,,,,,,,,,,,,,space,20.7084,l,1,4.0837,"[""0.125"",""0.500"",""0.633"",""0.804""]","[1,0,1,1]",0,0,0,0,1,1,0,,,0,FALSE,,,,,,,,,,,,,,,,,,,,,,,,,,,,,,,
,613c366feb00475071e752cb,627c6f1d1633f75070dcf723,2022-05-11_21h22.00.165,classification_task,2021.2.3,MacIntel,59.87665409,627c6715c52fd12f31907bcf,,,,,,,,,,,,,,,,,,,,,,,l,0,5.6784,"[""0.239"",""0.592"",""0.692"",""0.863""]","[1,0,1,1]",0,1,1,1,1,0,1,,,0,FALSE,,,,,,,,,,,,,,,,,,,,,,,,,,,,,,,
,613c366feb00475071e752cb,627c6f1d1633f75070dcf723,2022-05-11_21h22.00.165,classification_task,2021.2.3,MacIntel,59.87665409,627c6715c52fd12f31907bcf,,,,,,,,,,,,,,,,,,,,,,,a,1,1.3353,"[""0.239"",""0.393"",""0.587"",""0.863""]","[1,1,0,1]",0,2,2,2,1,0,1,,,0,FALSE,,,,,,,,,,,,,,,,,,,,,,,,,,,,,,,
,613c366feb00475071e752cb,627c6f1d1633f75070dcf723,2022-05-11_21h22.00.165,classification_task,2021.2.3,MacIntel,59.87665409,627c6715c52fd12f31907bcf,,,,,,,,,,,,,,,,,,,,,,,a,1,3.5161,"[""0.282"",""0.542"",""0.910"",""0.495""]","[1,1,1,0]",0,3,3,3,1,0,0,,,0,FALSE,,,,,,,,,,,,,,,,,,,,,,,,,,,,,,,
,613c366feb00475071e752cb,627c6f1d1633f75070dcf723,2022-05-11_21h22.00.165,classification_task,2021.2.3,MacIntel,59.87665409,627c6715c52fd12f31907bcf,,,,,,,,,,,,,,,,,,,,,,,a,1,4.0607,"[""0.590"",""0.393"",""0.692"",""0.863""]","[0,1,1,1]",0,4,4,4,1,0,1,,,0,FALSE,,,,,,,,,,,,,,,,,,,,,,,,,,,,,,,
,613c366feb00475071e752cb,627c6f1d1633f75070dcf723,2022-05-11_21h22.00.165,classification_task,2021.2.3,MacIntel,59.87665409,627c6715c52fd12f31907bcf,,,,,,,,,,,,,,,,,,,,,,,a,1,1.54,"[""0.239"",""0.393"",""0.692"",""0.592""]","[1,1,1,0]",0,5,5,5,1,0,1,,,0,FALSE,,,,,,,,,,,,,,,,,,,,,,,,,,,,,,,
,613c366feb00475071e752cb,627c6f1d1633f75070dcf723,2022-05-11_21h22.00.165,classification_task,2021.2.3,MacIntel,59.87665409,627c6715c52fd12f31907bcf,,,,,,,,,,,,,,,,,,,,,,,l,1,1.394,"[""0.086"",""0.319"",""0.587"",""0.742""]","[1,1,0,1]",0,6,6,6,1,1,1,,,0,FALSE,,,,,,,,,,,,,,,,,,,,,,,,,,,,,,,
,613c366feb00475071e752cb,627c6f1d1633f75070dcf723,2022-05-11_21h22.00.165,classification_task,2021.2.3,MacIntel,59.87665409,627c6715c52fd12f31907bcf,,,,,,,,,,,,,,,,,,,,,,,l,1,2.9565,"[""0.125"",""0.193"",""0.633"",""0.041""]","[1,1,1,0]",0,7,7,7,1,1,0,,,0,FALSE,,,,,,,,,,,,,,,,,,,,,,,,,,,,,,,
,613c366feb00475071e752cb,627c6f1d1633f75070dcf723,2022-05-11_21h22.00.165,classification_task,2021.2.3,MacIntel,59.87665409,627c6715c52fd12f31907bcf,,,,,,,,,,,,,,,,,,,,,,,l,1,0.8842,"[""0.587"",""0.193"",""0.633"",""0.804""]","[0,1,1,1]",0,8,8,8,1,1,0,,,0,FALSE,,,,,,,,,,,,,,,,,,,,,,,,,,,,,,,
,613c366feb00475071e752cb,627c6f1d1633f75070dcf723,2022-05-11_21h22.00.165,classification_task,2021.2.3,MacIntel,59.87665409,627c6715c52fd12f31907bcf,,,,,,,,,,,,,,,,,,,,,,,a,0,1.3108,"[""0.125"",""0.193"",""0.358"",""0.804""]","[1,1,0,1]",0,9,9,9,1,1,0,,,0,FALSE,,,,,,,,,,,,,,,,,,,,,,,,,,,,,,,
,613c366feb00475071e752cb,627c6f1d1633f75070dcf723,2022-05-11_21h22.00.165,classification_task,2021.2.3,MacIntel,59.87665409,627c6715c52fd12f31907bcf,,,,,,,,,,,,,,,,,,,,,,,a,0,2.0571,"[""0.086"",""0.319"",""0.460"",""0.592""]","[1,1,1,0]",0,10,10,10,1,1,1,,,0,FALSE,,,,,,,,,,,,,,,,,,,,,,,,,,,,,,,
,613c366feb00475071e752cb,627c6f1d1633f75070dcf723,2022-05-11_21h22.00.165,classification_task,2021.2.3,MacIntel,59.87665409,627c6715c52fd12f31907bcf,,,,,,,,,,,,,,,,,,,,,,,a,0,0.976,"[""0.499"",""0.319"",""0.460"",""0.742""]","[0,1,1,1]",0,11,11,11,1,1,1,,,0,FALSE,,,,,,,,,,,,,,,,,,,,,,,,,,,,,,,
,613c366feb00475071e752cb,627c6f1d1633f75070dcf723,2022-05-11_21h22.00.165,classification_task,2021.2.3,MacIntel,59.87665409,627c6715c52fd12f31907bcf,,,,,,,,,,,,,,,,,,,,,,,l,0,0.8833,"[""0.282"",""0.494"",""0.910"",""0.945""]","[1,0,1,1]",0,12,12,12,1,0,0,,,0,FALSE,,,,,,,,,,,,,,,,,,,,,,,,,,,,,,,
,613c366feb00475071e752cb,627c6f1d1633f75070dcf723,2022-05-11_21h22.00.165,classification_task,2021.2.3,MacIntel,59.87665409,627c6715c52fd12f31907bcf,,,,,,,,,,,,,,,,,,,,,,,l,0,1.2355,"[""0.495"",""0.542"",""0.910"",""0.945""]","[0,1,1,1]",0,13,13,13,1,0,0,,,0,FALSE,,,,,,,,,,,,,,,,,,,,,,,,,,,,,,,
,613c366feb00475071e752cb,627c6f1d1633f75070dcf723,2022-05-11_21h22.00.165,classification_task,2021.2.3,MacIntel,59.87665409,627c6715c52fd12f31907bcf,,,,,,,,,,,,,,,,,,,,,,,l,0,1.3523,"[""0.282"",""0.542"",""0.356"",""0.945""]","[1,1,0,1]",0,14,14,14,1,0,0,,,0,FALSE,,,,,,,,,,,,,,,,,,,,,,,,,,,,,,,
,613c366feb00475071e752cb,627c6f1d1633f75070dcf723,2022-05-11_21h22.00.165,classification_task,2021.2.3,MacIntel,59.87665409,627c6715c52fd12f31907bcf,,,,,,,,,,,,,,,,,,,,,,,a,0,1.5712,"[""0.086"",""0.499"",""0.460"",""0.742""]","[1,0,1,1]",0,15,15,15,1,1,1,,,0,FALSE,,,,,,,,,,,,,,,,,,,,,,,,,,,,,,,
,613c366feb00475071e752cb,627c6f1d1633f75070dcf723,2022-05-11_21h22.00.165,classification_task,2021.2.3,MacIntel,59.87665409,627c6715c52fd12f31907bcf,,,,,,,,,,,,,,,,,,,,,,,l,0,2.3558,"[""0.239"",""0.356"",""0.692"",""0.863""]","[1,0,1,1]",0,16,16,16,1,0,1,,,0,FALSE,,,,,,,,,,,,,,,,,,,,,,,,,,,,,,,
,613c366feb00475071e752cb,627c6f1d1633f75070dcf723,2022-05-11_21h22.00.165,classification_task,2021.2.3,MacIntel,59.87665409,627c6715c52fd12f31907bcf,,,,,,,,,,,,,,,,,,,,,,,a,1,1.3449,"[""0.282"",""0.027"",""0.910"",""0.945""]","[1,0,1,1]",0,17,17,17,1,0,0,,,0,FALSE,,,,,,,,,,,,,,,,,,,,,,,,,,,,,,,
,613c366feb00475071e752cb,627c6f1d1633f75070dcf723,2022-05-11_21h22.00.165,classification_task,2021.2.3,MacIntel,59.87665409,627c6715c52fd12f31907bcf,,,,,,,,,,,,,,,,,,,,,,,a,1,0.4091,"[""0.507"",""0.542"",""0.910"",""0.945""]","[0,1,1,1]",0,18,18,18,1,0,0,,,0,FALSE,,,,,,,,,,,,,,,,,,,,,,,,,,,,,,,
,613c366feb00475071e752cb,627c6f1d1633f75070dcf723,2022-05-11_21h22.00.165,classification_task,2021.2.3,MacIntel,59.87665409,627c6715c52fd12f31907bcf,,,,,,,,,,,,,,,,,,,,,,,l,1,1.5616,"[""0.041"",""0.193"",""0.633"",""0.804""]","[0,1,1,1]",0,19,19,19,1,1,0,,,0,FALSE,,,,,,,,,,,,,,,,,,,,,,,,,,,,,,,
,613c366feb00475071e752cb,627c6f1d1633f75070dcf723,2022-05-11_21h22.00.165,classification_task,2021.2.3,MacIntel,59.87665409,627c6715c52fd12f31907bcf,,,,,,,,,,,,,,,,,,,,,,,a,1,2.3937,"[""0.495"",""0.393"",""0.692"",""0.863""]","[0,1,1,1]",0,20,20,20,1,0,1,,,0,FALSE,,,,,,,,,,,,,,,,,,,,,,,,,,,,,,,
,613c366feb00475071e752cb,627c6f1d1633f75070dcf723,2022-05-11_21h22.00.165,classification_task,2021.2.3,MacIntel,59.87665409,627c6715c52fd12f31907bcf,,,,,,,,,,,,,,,,,,,,,,,l,0,1.632,"[""0.282"",""0.542"",""0.910"",""0.592""]","[1,1,1,0]",0,21,21,21,1,0,0,,,0,FALSE,,,,,,,,,,,,,,,,,,,,,,,,,,,,,,,
,613c366feb00475071e752cb,627c6f1d1633f75070dcf723,2022-05-11_21h22.00.165,classification_task,2021.2.3,MacIntel,59.87665409,627c6715c52fd12f31907bcf,,,,,,,,,,,,,,,,,,,,,,,l,0,1.2642,"[""0.282"",""0.542"",""0.495"",""0.945""]","[1,1,0,1]",0,22,22,22,1,0,0,,,0,FALSE,,,,,,,,,,,,,,,,,,,,,,,,,,,,,,,
,613c366feb00475071e752cb,627c6f1d1633f75070dcf723,2022-05-11_21h22.00.165,classification_task,2021.2.3,MacIntel,59.87665409,627c6715c52fd12f31907bcf,,,,,,,,,,,,,,,,,,,,,,,l,1,0.9154,"[""0.125"",""0.193"",""0.041"",""0.804""]","[1,1,0,1]",0,23,23,23,1,1,0,,,0,FALSE,,,,,,,,,,,,,,,,,,,,,,,,,,,,,,,
,613c366feb00475071e752cb,627c6f1d1633f75070dcf723,2022-05-11_21h22.00.165,classification_task,2021.2.3,MacIntel,59.87665409,627c6715c52fd12f31907bcf,,,,,,,,,,,,,,,,,,,,,,,l,1,0.9337,"[""0.086"",""0.319"",""0.460"",""0.032""]","[1,1,1,0]",0,24,24,24,1,1,1,,,0,FALSE,,,,,,,,,,,,,,,,,,,,,,,,,,,,,,,
,613c366feb00475071e752cb,627c6f1d1633f75070dcf723,2022-05-11_21h22.00.165,classification_task,2021.2.3,MacIntel,59.87665409,627c6715c52fd12f31907bcf,,,,,,,,,,,,,,,,,,,,,,,a,0,0.8945,"[""0.125"",""0.356"",""0.633"",""0.804""]","[1,0,1,1]",0,25,25,25,1,1,0,,,0,FALSE,,,,,,,,,,,,,,,,,,,,,,,,,,,,,,,
,613c366feb00475071e752cb,627c6f1d1633f75070dcf723,2022-05-11_21h22.00.165,classification_task,2021.2.3,MacIntel,59.87665409,627c6715c52fd12f31907bcf,,,,,,,,,,,,,,,,,,,,,,,a,0,2.9027,"[""0.026"",""0.319"",""0.460"",""0.742""]","[0,1,1,1]",0,26,26,26,1,1,1,,,0,FALSE,,,,,,,,,,,,,,,,,,,,,,,,,,,,,,,
,613c366feb00475071e752cb,627c6f1d1633f75070dcf723,2022-05-11_21h22.00.165,classification_task,2021.2.3,MacIntel,59.87665409,627c6715c52fd12f31907bcf,,,,,,,,,,,,,,,,,,,,,,,a,1,1.2675,"[""0.239"",""0.393"",""0.692"",""0.041""]","[1,1,1,0]",0,27,27,27,1,0,1,,,0,FALSE,,,,,,,,,,,,,,,,,,,,,,,,,,,,,,,
,613c366feb00475071e752cb,627c6f1d1633f75070dcf723,2022-05-11_21h22.00.165,classification_task,2021.2.3,MacIntel,59.87665409,627c6715c52fd12f31907bcf,,,,,,,,,,,,,,,,,,,,,,,,0,,"[""0.086"",""0.319"",""0.041"",""0.742""]","[1,1,0,1]",0,28,28,28,1,1,1,,,0,FALSE,,,,,,,,,,,,,,,,,,,,,,,,,,,,,,,
,613c366feb00475071e752cb,627c6f1d1633f75070dcf723,2022-05-11_21h22.00.165,classification_task,2021.2.3,MacIntel,59.87665409,627c6715c52fd12f31907bcf,,,,,,,,,,,,,,,,,,,,,,,l,0,8.5005,"[""0.239"",""0.393"",""0.587"",""0.863""]","[1,1,0,1]",0,29,29,29,1,0,1,,,0,FALSE,,,,,,,,,,,,,,,,,,,,,,,,,,,,,,,
,613c366feb00475071e752cb,627c6f1d1633f75070dcf723,2022-05-11_21h22.00.165,classification_task,2021.2.3,MacIntel,59.87665409,627c6715c52fd12f31907bcf,,,,,,,,,,,,,,,,,,,,,,,a,0,5.879,"[""0.086"",""0.031"",""0.460"",""0.742""]","[1,0,1,1]",0,30,30,30,1,1,1,,,0,FALSE,,,,,,,,,,,,,,,,,,,,,,,,,,,,,,,
,613c366feb00475071e752cb,627c6f1d1633f75070dcf723,2022-05-11_21h22.00.165,classification_task,2021.2.3,MacIntel,59.87665409,627c6715c52fd12f31907bcf,,,,,,,,,,,,,,,,,,,,,,,l,1,1.6983,"[""0.125"",""0.193"",""0.633"",""0.495""]","[1,1,1,0]",0,31,31,31,1,1,0,,,0,FALSE,,,,,,,,,,,,,,,,,,,,,,,,,,,,,,,
,613c366feb00475071e752cb,627c6f1d1633f75070dcf723,2022-05-11_21h22.00.165,classification_task,2021.2.3,MacIntel,59.87665409,627c6715c52fd12f31907bcf,,,,,,,,,,,,,,,,,,,,,,,l,0,1.1746,"[""0.592"",""0.393"",""0.692"",""0.863""]","[0,1,1,1]",0,32,32,32,1,0,1,,,0,FALSE,,,,,,,,,,,,,,,,,,,,,,,,,,,,,,,
,613c366feb00475071e752cb,627c6f1d1633f75070dcf723,2022-05-11_21h22.00.165,classification_task,2021.2.3,MacIntel,59.87665409,627c6715c52fd12f31907bcf,,,,,,,,,,,,,,,,,,,,,,,l,0,1.1016,"[""0.239"",""0.027"",""0.692"",""0.863""]","[1,0,1,1]",0,33,33,33,1,0,1,,,0,FALSE,,,,,,,,,,,,,,,,,,,,,,,,,,,,,,,
,613c366feb00475071e752cb,627c6f1d1633f75070dcf723,2022-05-11_21h22.00.165,classification_task,2021.2.3,MacIntel,59.87665409,627c6715c52fd12f31907bcf,,,,,,,,,,,,,,,,,,,,,,,a,1,1.6698,"[""0.282"",""0.542"",""0.910"",""0.026""]","[1,1,1,0]",0,34,34,34,1,0,0,,,0,FALSE,,,,,,,,,,,,,,,,,,,,,,,,,,,,,,,
,613c366feb00475071e752cb,627c6f1d1633f75070dcf723,2022-05-11_21h22.00.165,classification_task,2021.2.3,MacIntel,59.87665409,627c6715c52fd12f31907bcf,,,,,,,,,,,,,,,,,,,,,,,l,1,1.6459,"[""0.086"",""0.499"",""0.460"",""0.742""]","[1,0,1,1]",0,35,35,35,1,1,1,,,0,FALSE,,,,,,,,,,,,,,,,,,,,,,,,,,,,,,,
,613c366feb00475071e752cb,627c6f1d1633f75070dcf723,2022-05-11_21h22.00.165,classification_task,2021.2.3,MacIntel,59.87665409,627c6715c52fd12f31907bcf,,,,,,,,,,,,,,,,,,,,,,,a,0,2.7454,"[""0.125"",""0.193"",""0.495"",""0.804""]","[1,1,0,1]",0,36,36,36,1,1,0,,,0,FALSE,,,,,,,,,,,,,,,,,,,,,,,,,,,,,,,
,613c366feb00475071e752cb,627c6f1d1633f75070dcf723,2022-05-11_21h22.00.165,classification_task,2021.2.3,MacIntel,59.87665409,627c6715c52fd12f31907bcf,,,,,,,,,,,,,,,,,,,,,,,a,1,4.8243,"[""0.239"",""0.393"",""0.041"",""0.863""]","[1,1,0,1]",0,37,37,37,1,0,1,,,0,FALSE,,,,,,,,,,,,,,,,,,,,,,,,,,,,,,,
,613c366feb00475071e752cb,627c6f1d1633f75070dcf723,2022-05-11_21h22.00.165,classification_task,2021.2.3,MacIntel,59.87665409,627c6715c52fd12f31907bcf,,,,,,,,,,,,,,,,,,,,,,,l,1,2.7212,"[""0.500"",""0.193"",""0.633"",""0.804""]","[0,1,1,1]",0,38,38,38,1,1,0,,,0,FALSE,,,,,,,,,,,,,,,,,,,,,,,,,,,,,,,
,613c366feb00475071e752cb,627c6f1d1633f75070dcf723,2022-05-11_21h22.00.165,classification_task,2021.2.3,MacIntel,59.87665409,627c6715c52fd12f31907bcf,,,,,,,,,,,,,,,,,,,,,,,l,0,1.3688,"[""0.282"",""0.542"",""0.356"",""0.945""]","[1,1,0,1]",0,39,39,39,1,0,0,,,0,FALSE,,,,,,,,,,,,,,,,,,,,,,,,,,,,,,,
,613c366feb00475071e752cb,627c6f1d1633f75070dcf723,2022-05-11_21h22.00.165,classification_task,2021.2.3,MacIntel,59.87665409,627c6715c52fd12f31907bcf,,,,,,,,,,,,,,,,,,,,,,,l,1,2.9509,"[""0.086"",""0.319"",""0.499"",""0.742""]","[1,1,0,1]",0,40,40,40,1,1,1,,,0,FALSE,,,,,,,,,,,,,,,,,,,,,,,,,,,,,,,
,613c366feb00475071e752cb,627c6f1d1633f75070dcf723,2022-05-11_21h22.00.165,classification_task,2021.2.3,MacIntel,59.87665409,627c6715c52fd12f31907bcf,,,,,,,,,,,,,,,,,,,,,,,l,0,1.1466,"[""0.282"",""0.495"",""0.910"",""0.945""]","[1,0,1,1]",0,41,41,41,1,0,0,,,0,FALSE,,,,,,,,,,,,,,,,,,,,,,,,,,,,,,,
,613c366feb00475071e752cb,627c6f1d1633f75070dcf723,2022-05-11_21h22.00.165,classification_task,2021.2.3,MacIntel,59.87665409,627c6715c52fd12f31907bcf,,,,,,,,,,,,,,,,,,,,,,,a,0,1.3211,"[""0.086"",""0.319"",""0.460"",""0.507""]","[1,1,1,0]",0,42,42,42,1,1,1,,,0,FALSE,,,,,,,,,,,,,,,,,,,,,,,,,,,,,,,
,613c366feb00475071e752cb,627c6f1d1633f75070dcf723,2022-05-11_21h22.00.165,classification_task,2021.2.3,MacIntel,59.87665409,627c6715c52fd12f31907bcf,,,,,,,,,,,,,,,,,,,,,,,a,0,2.0779,"[""0.125"",""0.592"",""0.633"",""0.804""]","[1,0,1,1]",0,43,43,43,1,1,0,,,0,FALSE,,,,,,,,,,,,,,,,,,,,,,,,,,,,,,,
,613c366feb00475071e752cb,627c6f1d1633f75070dcf723,2022-05-11_21h22.00.165,classification_task,2021.2.3,MacIntel,59.87665409,627c6715c52fd12f31907bcf,,,,,,,,,,,,,,,,,,,,,,,a,1,4.893,"[""0.590"",""0.542"",""0.910"",""0.945""]","[0,1,1,1]",0,44,44,44,1,0,0,,,0,FALSE,,,,,,,,,,,,,,,,,,,,,,,,,,,,,,,
,613c366feb00475071e752cb,627c6f1d1633f75070dcf723,2022-05-11_21h22.00.165,classification_task,2021.2.3,MacIntel,59.87665409,627c6715c52fd12f31907bcf,,,,,,,,,,,,,,,,,,,,,,,a,0,2.2304,"[""0.587"",""0.319"",""0.460"",""0.742""]","[0,1,1,1]",0,45,45,45,1,1,1,,,0,FALSE,,,,,,,,,,,,,,,,,,,,,,,,,,,,,,,
,613c366feb00475071e752cb,627c6f1d1633f75070dcf723,2022-05-11_21h22.00.165,classification_task,2021.2.3,MacIntel,59.87665409,627c6715c52fd12f31907bcf,,,,,,,,,,,,,,,,,,,,,,,a,0,1.2255,"[""0.125"",""0.193"",""0.633"",""0.358""]","[1,1,1,0]",0,46,46,46,1,1,0,,,0,FALSE,,,,,,,,,,,,,,,,,,,,,,,,,,,,,,,
,613c366feb00475071e752cb,627c6f1d1633f75070dcf723,2022-05-11_21h22.00.165,classification_task,2021.2.3,MacIntel,59.87665409,627c6715c52fd12f31907bcf,,,,,,,,,,,,,,,,,,,,,,,l,0,3.3403,"[""0.239"",""0.393"",""0.692"",""0.032""]","[1,1,1,0]",0,47,47,47,1,0,1,,,0,FALSE,,,,,,,,,,,,,,,,,,,,,,,,,,,,,,,
,613c366feb00475071e752cb,627c6f1d1633f75070dcf723,2022-05-11_21h22.00.165,classification_task,2021.2.3,MacIntel,59.87665409,627c6715c52fd12f31907bcf,,,,,,,,,,,,,,,,,,,,,,,l,0,2.6008,"[""0.282"",""0.542"",""0.032"",""0.945""]","[1,1,0,1]",0,48,48,48,1,0,0,,,0,FALSE,,,,,,,,,,,,,,,,,,,,,,,,,,,,,,,
,613c366feb00475071e752cb,627c6f1d1633f75070dcf723,2022-05-11_21h22.00.165,classification_task,2021.2.3,MacIntel,59.87665409,627c6715c52fd12f31907bcf,,,,,,,,,,,,,,,,,,,,,,,l,0,2.1163,"[""0.239"",""0.027"",""0.692"",""0.863""]","[1,0,1,1]",0,49,49,49,1,0,1,,,0,FALSE,,,,,,,,,,,,,,,,,,,,,,,,,,,,,,,
,613c366feb00475071e752cb,627c6f1d1633f75070dcf723,2022-05-11_21h22.00.165,classification_task,2021.2.3,MacIntel,59.87665409,627c6715c52fd12f31907bcf,,,,,,,,,,,,,,,,,,,,,,,a,1,1.7811,"[""0.239"",""0.393"",""0.692"",""0.592""]","[1,1,1,0]",0,50,50,50,1,0,1,,,0,FALSE,,,,,,,,,,,,,,,,,,,,,,,,,,,,,,,
,613c366feb00475071e752cb,627c6f1d1633f75070dcf723,2022-05-11_21h22.00.165,classification_task,2021.2.3,MacIntel,59.87665409,627c6715c52fd12f31907bcf,,,,,,,,,,,,,,,,,,,,,,,l,1,0.6872,"[""0.086"",""0.319"",""0.026"",""0.742""]","[1,1,0,1]",0,51,51,51,1,1,1,,,0,FALSE,,,,,,,,,,,,,,,,,,,,,,,,,,,,,,,
,613c366feb00475071e752cb,627c6f1d1633f75070dcf723,2022-05-11_21h22.00.165,classification_task,2021.2.3,MacIntel,59.87665409,627c6715c52fd12f31907bcf,,,,,,,,,,,,,,,,,,,,,,,l,1,1.7192,"[""0.026"",""0.193"",""0.633"",""0.804""]","[0,1,1,1]",0,52,52,52,1,1,0,,,0,FALSE,,,,,,,,,,,,,,,,,,,,,,,,,,,,,,,
,613c366feb00475071e752cb,627c6f1d1633f75070dcf723,2022-05-11_21h22.00.165,classification_task,2021.2.3,MacIntel,59.87665409,627c6715c52fd12f31907bcf,,,,,,,,,,,,,,,,,,,,,,,l,0,0.7508,"[""0.494"",""0.542"",""0.910"",""0.945""]","[0,1,1,1]",0,53,53,53,1,0,0,,,0,FALSE,,,,,,,,,,,,,,,,,,,,,,,,,,,,,,,
,613c366feb00475071e752cb,627c6f1d1633f75070dcf723,2022-05-11_21h22.00.165,classification_task,2021.2.3,MacIntel,59.87665409,627c6715c52fd12f31907bcf,,,,,,,,,,,,,,,,,,,,,,,a,1,2.1408,"[""0.239"",""0.393"",""0.590"",""0.863""]","[1,1,0,1]",0,54,54,54,1,0,1,,,0,FALSE,,,,,,,,,,,,,,,,,,,,,,,,,,,,,,,
,613c366feb00475071e752cb,627c6f1d1633f75070dcf723,2022-05-11_21h22.00.165,classification_task,2021.2.3,MacIntel,59.87665409,627c6715c52fd12f31907bcf,,,,,,,,,,,,,,,,,,,,,,,a,0,0.8109,"[""0.086"",""0.592"",""0.460"",""0.742""]","[1,0,1,1]",0,55,55,55,1,1,1,,,0,FALSE,,,,,,,,,,,,,,,,,,,,,,,,,,,,,,,
,613c366feb00475071e752cb,627c6f1d1633f75070dcf723,2022-05-11_21h22.00.165,classification_task,2021.2.3,MacIntel,59.87665409,627c6715c52fd12f31907bcf,,,,,,,,,,,,,,,,,,,,,,,a,1,1.5896,"[""0.282"",""0.542"",""0.910"",""0.500""]","[1,1,1,0]",0,56,56,56,1,0,0,,,0,FALSE,,,,,,,,,,,,,,,,,,,,,,,,,,,,,,,
,613c366feb00475071e752cb,627c6f1d1633f75070dcf723,2022-05-11_21h22.00.165,classification_task,2021.2.3,MacIntel,59.87665409,627c6715c52fd12f31907bcf,,,,,,,,,,,,,,,,,,,,,,,l,1,1.4259,"[""0.086"",""0.319"",""0.460"",""0.495""]","[1,1,1,0]",0,57,57,57,1,1,1,,,0,FALSE,,,,,,,,,,,,,,,,,,,,,,,,,,,,,,,
,613c366feb00475071e752cb,627c6f1d1633f75070dcf723,2022-05-11_21h22.00.165,classification_task,2021.2.3,MacIntel,59.87665409,627c6715c52fd12f31907bcf,,,,,,,,,,,,,,,,,,,,,,,l,1,1.6372,"[""0.125"",""0.193"",""0.356"",""0.804""]","[1,1,0,1]",0,58,58,58,1,1,0,,,0,FALSE,,,,,,,,,,,,,,,,,,,,,,,,,,,,,,,
,613c366feb00475071e752cb,627c6f1d1633f75070dcf723,2022-05-11_21h22.00.165,classification_task,2021.2.3,MacIntel,59.87665409,627c6715c52fd12f31907bcf,,,,,,,,,,,,,,,,,,,,,,,l,0,1.6849,"[""0.282"",""0.590"",""0.910"",""0.945""]","[1,0,1,1]",0,59,59,59,1,0,0,,,0,FALSE,,,,,,,,,,,,,,,,,,,,,,,,,,,,,,,
,613c366feb00475071e752cb,627c6f1d1633f75070dcf723,2022-05-11_21h22.00.165,classification_task,2021.2.3,MacIntel,59.87665409,627c6715c52fd12f31907bcf,,,,,,,,,,,,,,,,,,,,,,,l,1,1.0862,"[""0.125"",""0.358"",""0.633"",""0.804""]","[1,0,1,1]",0,60,60,60,1,1,0,,,0,FALSE,,,,,,,,,,,,,,,,,,,,,,,,,,,,,,,
,613c366feb00475071e752cb,627c6f1d1633f75070dcf723,2022-05-11_21h22.00.165,classification_task,2021.2.3,MacIntel,59.87665409,627c6715c52fd12f31907bcf,,,,,,,,,,,,,,,,,,,,,,,l,1,1.118,"[""0.125"",""0.193"",""0.633"",""0.356""]","[1,1,1,0]",0,61,61,61,1,1,0,,,0,FALSE,,,,,,,,,,,,,,,,,,,,,,,,,,,,,,,
,613c366feb00475071e752cb,627c6f1d1633f75070dcf723,2022-05-11_21h22.00.165,classification_task,2021.2.3,MacIntel,59.87665409,627c6715c52fd12f31907bcf,,,,,,,,,,,,,,,,,,,,,,,l,0,0.9964,"[""0.356"",""0.393"",""0.692"",""0.863""]","[0,1,1,1]",0,62,62,62,1,0,1,,,0,FALSE,,,,,,,,,,,,,,,,,,,,,,,,,,,,,,,
,613c366feb00475071e752cb,627c6f1d1633f75070dcf723,2022-05-11_21h22.00.165,classification_task,2021.2.3,MacIntel,59.87665409,627c6715c52fd12f31907bcf,,,,,,,,,,,,,,,,,,,,,,,l,1,4.9676,"[""0.027"",""0.319"",""0.460"",""0.742""]","[0,1,1,1]",0,63,63,63,1,1,1,,,0,FALSE,,,,,,,,,,,,,,,,,,,,,,,,,,,,,,,
,613c366feb00475071e752cb,627c6f1d1633f75070dcf723,2022-05-11_21h22.00.165,classification_task,2021.2.3,MacIntel,59.87665409,627c6715c52fd12f31907bcf,,,,,,,,,,,,,,,,,,,,,,,,,,,,,,,,,,,,,,,0, ,,0,2.429547991,234.4792,0,2,2,2,1,2,3,,,,,,,,,,,,,,,,,,
,613c366feb00475071e752cb,627c6f1d1633f75070dcf723,2022-05-11_21h22.00.165,classification_task,2021.2.3,MacIntel,59.87665409,627c6715c52fd12f31907bcf,,,,,,,,,,,,,,,,,,,,,,,,,,,,,,,,,,,,,,,1,  ,,0,8.184291295,236.2883,0,2,2,2,1,2,3,,,,,,,,,,,,,,,,,,
,613c366feb00475071e752cb,627c6f1d1633f75070dcf723,2022-05-11_21h22.00.165,classification_task,2021.2.3,MacIntel,59.87665409,627c6715c52fd12f31907bcf,,,,,,,,,,,,,,,,,,,,,,,,,,,,,,,,,,,,,,,2,  ,,0,2.140583664,238.3435,0,2,2,2,1,2,3,,,,,,,,,,,,,,,,,,
,613c366feb00475071e752cb,627c6f1d1633f75070dcf723,2022-05-11_21h22.00.165,classification_task,2021.2.3,MacIntel,59.87665409,627c6715c52fd12f31907bcf,,,,,,,,,,,,,,,,,,,,,,,,,,,,,,,,,,,,,,,,,,,,,0,2,2,2,1,,3,,,,,,,,,,,,,,,,,,
,613c366feb00475071e752cb,627c6f1d1633f75070dcf723,2022-05-11_21h22.00.165,classification_task,2021.2.3,MacIntel,59.87665409,627c6715c52fd12f31907bcf,,,,,,,,,,,,,,,,,,,,,,,,,,,,,,,,,,,,,,,,,,,,,,,,,,,,,I believe the aid is a competent performer,,0.7,0,3,1045.3241,0,0,0,0,1,0,,,,,
,613c366feb00475071e752cb,627c6f1d1633f75070dcf723,2022-05-11_21h22.00.165,classification_task,2021.2.3,MacIntel,59.87665409,627c6715c52fd12f31907bcf,,,,,,,,,,,,,,,,,,,,,,,,,,,,,,,,,,,,,,,,,,,,,,,,,,,,,I trust the aid,,0.7,0,2,1048.9044,0,0,0,0,1,0,,,,,
,613c366feb00475071e752cb,627c6f1d1633f75070dcf723,2022-05-11_21h22.00.165,classification_task,2021.2.3,MacIntel,59.87665409,627c6715c52fd12f31907bcf,,,,,,,,,,,,,,,,,,,,,,,,,,,,,,,,,,,,,,,,,,,,,,,,,,,,,I have confidence in the advice given by the aid,,0.7,0,2,1051.1581,0,0,0,0,1,0,,,,,
,613c366feb00475071e752cb,627c6f1d1633f75070dcf723,2022-05-11_21h22.00.165,classification_task,2021.2.3,MacIntel,59.87665409,627c6715c52fd12f31907bcf,,,,,,,,,,,,,,,,,,,,,,,,,,,,,,,,,,,,,,,,,,,,,,,,,,,,,I can depend on the aid,,0.7,0,2,1054.5255,0,0,0,0,1,0,,,,,
,613c366feb00475071e752cb,627c6f1d1633f75070dcf723,2022-05-11_21h22.00.165,classification_task,2021.2.3,MacIntel,59.87665409,627c6715c52fd12f31907bcf,,,,,,,,,,,,,,,,,,,,,,,,,,,,,,,,,,,,,,,,,,,,,,,,,,,,,I can rely on the aid to behave in consistent ways,,0.7,0,3,1058.3786,0,0,0,0,1,0,,,,,
,613c366feb00475071e752cb,627c6f1d1633f75070dcf723,2022-05-11_21h22.00.165,classification_task,2021.2.3,MacIntel,59.87665409,627c6715c52fd12f31907bcf,,,,,,,,,,,,,,,,,,,,,,,,,,,,,,,,,,,,,,,,,,,,,,,,,,,,,I can rely on the aid to do its best every time I take its advice,,0.7,0,3,1061.5733,0,0,0,0,1,0,,,,,
,613c366feb00475071e752cb,627c6f1d1633f75070dcf723,2022-05-11_21h22.00.165,classification_task,2021.2.3,MacIntel,59.87665409,627c6715c52fd12f31907bcf,,,,,,,,,,,,,,,,,,,,,,,,,,,,,,,,,,,,,,,,,,,,,,,,,,,,,"On trials you completed with assistance from the aid, how frequently did you think the aid was correct?",,0.7,0,55,,0,0,0,0,1,0,,,,,
,613c366feb00475071e752cb,627c6f1d1633f75070dcf723,2022-05-11_21h22.00.165,classification_task,2021.2.3,MacIntel,59.87665409,627c6715c52fd12f31907bcf,,,,,,,,,,,,,,,,,,,,,,,,,,,,,,,,,,,,,,,,,,,,,,,,,,,,,"On trials you completed without the aid, how frequently did you think you were correct?",,0.7,0,50,,0,0,0,0,1,0,,,,,
,613c366feb00475071e752cb,627c6f1d1633f75070dcf723,2022-05-11_21h22.00.165,classification_task,2021.2.3,MacIntel,59.87665409,627c6715c52fd12f31907bcf,,,,,,,,,,,,,,,,,,,,,,,,,,,,,,,,,,,,,,,,,,,,,,,,,,,,,,,,,,,0,0,0,0,1,,,,,,
,613c366feb00475071e752cb,627c6f1d1633f75070dcf723,2022-05-11_21h22.00.165,classification_task,2021.2.3,MacIntel,59.87665409,627c6715c52fd12f31907bcf,,,,,,,,,,,,,,,,,,,,,,,,,,,,,,,,,,,,,,,,,,,,,,,,,,,,,,,,,,,,,,,,,space,15.0486,1090.2407,,
,613c366feb00475071e752cb,627c6f1d1633f75070dcf723,2022-05-11_21h22.00.165,classification_task,2021.2.3,MacIntel,59.87665409,627c6715c52fd12f31907bcf,,,,,,,,,,,,,,,,,,,,,,,,,,,,,,,,,,,,,,,,,,,,,,,,,,,,,,,,,,,,,,,,,,,,"Mozilla/5.0 (Macintosh; Intel Mac OS X 10_12_6) AppleWebKit/537.36 (KHTML, like Gecko) Chrome/101.0.4951.54 Safari/537.36",
,613c366feb00475071e752cb,627c6f1d1633f75070dcf723,2022-05-11_21h22.00.165,classification_task,2021.2.3,MacIntel,59.87665409,627c6715c52fd12f31907bcf,,,,,,,,,,,,,,,,,,,,,,,,,,,,,,,,,,,,,,,,,,,,,,,,,,,,,,,,,,,,,,,,,,,,,LOWLIGHT
