usingWebGL,participant,session,date,expName,psychopyVersion,OS,frameRate,study_id,signatures_friend,signatures_foe,band_ranges_top,band_ranges_bottom,formitemText,formtype,formundefined,formitemWidth,formindex,formresponse,formrt,key_resp_2.keys,key_resp_2.rt,tute_resp.keys,tute_resp.rt,tutorial.thisRepN,tutorial.thisTrialN,tutorial.thisN,tutorial.thisIndex,tutorial.ran,key_resp_4.keys,key_resp_4.rt,key_resp.keys,key_resp.corr,key_resp.rt,lines_presented,is_signal_presented,trials.thisRepN,trials.thisTrialN,trials.thisN,trials.thisIndex,trials.ran,vessel,active_band,lines,is_signal,supported_pos,catch_trial,debrief_formindex,debrief_formitemText,debrief_formtype,debrief_formitemWidth,debrief_formresponse,debrief_formrt,phases.thisRepN,phases.thisTrialN,phases.thisN,phases.thisIndex,phases.ran,phases.order,phase,key_resp_3.keys,trustitemText,trusttype,trustitemWidth,trustindex,trustresponse,trustrt,support_status.thisRepN,support_status.thisTrialN,support_status.thisN,support_status.thisIndex,support_status.ran,support_status.order,key_resp_5.keys,key_resp_5.rt,globalClockTime,userAgent,manualCondition
TRUE,613d17189f701e7a75b88d68,627c6fb6d7a94c73bd2000e5,2022-05-11_21h24.19.082,classification_task,2021.2.3,Win32,165.5903295,627c6715c52fd12f31907bd0,,,,,,,,,,,,,,,,,,,,,,,,,,,,,,,,,,,,,,,,,,,,,,,,,,,,,,,,,,,,,,,,,,,,,
,613d17189f701e7a75b88d68,627c6fb6d7a94c73bd2000e5,2022-05-11_21h24.19.082,classification_task,2021.2.3,Win32,165.5903295,627c6715c52fd12f31907bd0,"[[""0.176"",""0.565"",""0.670"",""0.962""],[""0.297"",""0.381"",""0.861"",""0.905""]]","[[""0.033"",""0.080"",""0.451"",""0.822""],[""0.139"",""0.346"",""0.489"",""0.734""]]","[1,10]","[100,1000]",Video game experience,,,0.7,0,,,,,,,,,,,,,,,,,,,,,,,,,,,,,,,,,,,,,,,,,,,,,,,,,,,,,,,,,,,,
,613d17189f701e7a75b88d68,627c6fb6d7a94c73bd2000e5,2022-05-11_21h24.19.082,classification_task,2021.2.3,Win32,165.5903295,627c6715c52fd12f31907bd0,,,,,Approximately how many hours did you spend playing video games in the last week?,,,0.7,0,4,,,,,,,,,,,,,,,,,,,,,,,,,,,,,,,,,,,,,,,,,,,,,,,,,,,,,,,,,,,
,613d17189f701e7a75b88d68,627c6fb6d7a94c73bd2000e5,2022-05-11_21h24.19.082,classification_task,2021.2.3,Win32,165.5903295,627c6715c52fd12f31907bd0,,,,,"Which game did you play the most this year? (Enter ""None"" if you didn't play any)",,,0.7,0,The Witcher 3: Wild Hunt,,,,,,,,,,,,,,,,,,,,,,,,,,,,,,,,,,,,,,,,,,,,,,,,,,,,,,,,,,,
,613d17189f701e7a75b88d68,627c6fb6d7a94c73bd2000e5,2022-05-11_21h24.19.082,classification_task,2021.2.3,Win32,165.5903295,627c6715c52fd12f31907bd0,,,,,Visual perception,,,0.7,0,,,,,,,,,,,,,,,,,,,,,,,,,,,,,,,,,,,,,,,,,,,,,,,,,,,,,,,,,,,,
,613d17189f701e7a75b88d68,627c6fb6d7a94c73bd2000e5,2022-05-11_21h24.19.082,classification_task,2021.2.3,Win32,165.5903295,627c6715c52fd12f31907bd0,,,,,Do you have any form of color blindness?,,,0.7,0,No,24.8841,,,,,,,,,,,,,,,,,,,,,,,,,,,,,,,,,,,,,,,,,,,,,,,,,,,,,,,,,,
,613d17189f701e7a75b88d68,627c6fb6d7a94c73bd2000e5,2022-05-11_21h24.19.082,classification_task,2021.2.3,Win32,165.5903295,627c6715c52fd12f31907bd0,,,,,Do you use software to change the colour temperature of your screen (e.g. f.lux)?,,,0.7,0,No,29.7115,,,,,,,,,,,,,,,,,,,,,,,,,,,,,,,,,,,,,,,,,,,,,,,,,,,,,,,,,,
,613d17189f701e7a75b88d68,627c6fb6d7a94c73bd2000e5,2022-05-11_21h24.19.082,classification_task,2021.2.3,Win32,165.5903295,627c6715c52fd12f31907bd0,,,,,,,,,,,,space,164.9517,space,10.5691,0,0,0,0,1,,,,,,,,,,,,,,,,,,,,,,,,,,,,,,,,,,,,,,,,,,,,,,,,,
,613d17189f701e7a75b88d68,627c6fb6d7a94c73bd2000e5,2022-05-11_21h24.19.082,classification_task,2021.2.3,Win32,165.5903295,627c6715c52fd12f31907bd0,,,,,,,,,,,,,,space,18.4165,1,0,1,0,1,,,,,,,,,,,,,,,,,,,,,,,,,,,,,,,,,,,,,,,,,,,,,,,,,
,613d17189f701e7a75b88d68,627c6fb6d7a94c73bd2000e5,2022-05-11_21h24.19.082,classification_task,2021.2.3,Win32,165.5903295,627c6715c52fd12f31907bd0,,,,,,,,,,,,,,space,29.4283,2,0,2,0,1,,,,,,,,,,,,,,,,,,,,,,,,,,,,,,,,,,,,,,,,,,,,,,,,,
,613d17189f701e7a75b88d68,627c6fb6d7a94c73bd2000e5,2022-05-11_21h24.19.082,classification_task,2021.2.3,Win32,165.5903295,627c6715c52fd12f31907bd0,,,,,,,,,,,,,,space,6.7685,3,0,3,0,1,,,,,,,,,,,,,,,,,,,,,,,,,,,,,,,,,,,,,,,,,,,,,,,,,
,613d17189f701e7a75b88d68,627c6fb6d7a94c73bd2000e5,2022-05-11_21h24.19.082,classification_task,2021.2.3,Win32,165.5903295,627c6715c52fd12f31907bd0,,,,,,,,,,,,,,space,45.1761,4,0,4,0,1,,,,,,,,,,,,,,,,,,,,,,,,,,,,,,,,,,,,,,,,,,,,,,,,,
,613d17189f701e7a75b88d68,627c6fb6d7a94c73bd2000e5,2022-05-11_21h24.19.082,classification_task,2021.2.3,Win32,165.5903295,627c6715c52fd12f31907bd0,,,,,,,,,,,,,,,,,,,,,space,26.1782,a,1,7.2948,"[""0.297"",""0.608"",""0.861"",""0.905""]","[1,0,1,1]",0,0,0,0,1,0,1,,,0,FALSE,,,,,,,,,,,,,,,,,,,,,,,,,,,,,,,
,613d17189f701e7a75b88d68,627c6fb6d7a94c73bd2000e5,2022-05-11_21h24.19.082,classification_task,2021.2.3,Win32,165.5903295,627c6715c52fd12f31907bd0,,,,,,,,,,,,,,,,,,,,,,,a,1,4.9149,"[""0.297"",""0.381"",""0.861"",""0.251""]","[1,1,1,0]",0,1,1,1,1,0,1,,,0,FALSE,,,,,,,,,,,,,,,,,,,,,,,,,,,,,,,
,613d17189f701e7a75b88d68,627c6fb6d7a94c73bd2000e5,2022-05-11_21h24.19.082,classification_task,2021.2.3,Win32,165.5903295,627c6715c52fd12f31907bd0,,,,,,,,,,,,,,,,,,,,,,,l,1,3.4069,"[""0.139"",""0.346"",""0.617"",""0.734""]","[1,1,0,1]",0,2,2,2,1,1,1,,,0,FALSE,,,,,,,,,,,,,,,,,,,,,,,,,,,,,,,
,613d17189f701e7a75b88d68,627c6fb6d7a94c73bd2000e5,2022-05-11_21h24.19.082,classification_task,2021.2.3,Win32,165.5903295,627c6715c52fd12f31907bd0,,,,,,,,,,,,,,,,,,,,,,,l,1,3.1216,"[""0.139"",""0.619"",""0.489"",""0.734""]","[1,0,1,1]",0,3,3,3,1,1,1,,,0,FALSE,,,,,,,,,,,,,,,,,,,,,,,,,,,,,,,
,613d17189f701e7a75b88d68,627c6fb6d7a94c73bd2000e5,2022-05-11_21h24.19.082,classification_task,2021.2.3,Win32,165.5903295,627c6715c52fd12f31907bd0,,,,,,,,,,,,,,,,,,,,,,,a,1,4.0189,"[""0.608"",""0.381"",""0.861"",""0.905""]","[0,1,1,1]",0,4,4,4,1,0,1,,,0,FALSE,,,,,,,,,,,,,,,,,,,,,,,,,,,,,,,
,613d17189f701e7a75b88d68,627c6fb6d7a94c73bd2000e5,2022-05-11_21h24.19.082,classification_task,2021.2.3,Win32,165.5903295,627c6715c52fd12f31907bd0,,,,,,,,,,,,,,,,,,,,,,,l,1,2.7219,"[""0.617"",""0.346"",""0.489"",""0.734""]","[0,1,1,1]",0,5,5,5,1,1,1,,,0,FALSE,,,,,,,,,,,,,,,,,,,,,,,,,,,,,,,
,613d17189f701e7a75b88d68,627c6fb6d7a94c73bd2000e5,2022-05-11_21h24.19.082,classification_task,2021.2.3,Win32,165.5903295,627c6715c52fd12f31907bd0,,,,,,,,,,,,,,,,,,,,,,,a,1,2.219,"[""0.297"",""0.381"",""0.628"",""0.905""]","[1,1,0,1]",0,6,6,6,1,0,1,,,0,FALSE,,,,,,,,,,,,,,,,,,,,,,,,,,,,,,,
,613d17189f701e7a75b88d68,627c6fb6d7a94c73bd2000e5,2022-05-11_21h24.19.082,classification_task,2021.2.3,Win32,165.5903295,627c6715c52fd12f31907bd0,,,,,,,,,,,,,,,,,,,,,,,a,1,7.3184,"[""0.527"",""0.565"",""0.670"",""0.962""]","[0,1,1,1]",0,7,7,7,1,0,0,,,0,FALSE,,,,,,,,,,,,,,,,,,,,,,,,,,,,,,,
,613d17189f701e7a75b88d68,627c6fb6d7a94c73bd2000e5,2022-05-11_21h24.19.082,classification_task,2021.2.3,Win32,165.5903295,627c6715c52fd12f31907bd0,,,,,,,,,,,,,,,,,,,,,,,l,1,2.8371,"[""0.602"",""0.080"",""0.451"",""0.822""]","[0,1,1,1]",0,8,8,8,1,1,0,,,0,FALSE,,,,,,,,,,,,,,,,,,,,,,,,,,,,,,,
,613d17189f701e7a75b88d68,627c6fb6d7a94c73bd2000e5,2022-05-11_21h24.19.082,classification_task,2021.2.3,Win32,165.5903295,627c6715c52fd12f31907bd0,,,,,,,,,,,,,,,,,,,,,,,l,1,8.7772,"[""0.033"",""0.080"",""0.222"",""0.822""]","[1,1,0,1]",0,9,9,9,1,1,0,,,0,FALSE,,,,,,,,,,,,,,,,,,,,,,,,,,,,,,,
,613d17189f701e7a75b88d68,627c6fb6d7a94c73bd2000e5,2022-05-11_21h24.19.082,classification_task,2021.2.3,Win32,165.5903295,627c6715c52fd12f31907bd0,,,,,,,,,,,,,,,,,,,,,,,a,1,7.0484,"[""0.176"",""0.527"",""0.670"",""0.962""]","[1,0,1,1]",0,10,10,10,1,0,0,,,0,FALSE,,,,,,,,,,,,,,,,,,,,,,,,,,,,,,,
,613d17189f701e7a75b88d68,627c6fb6d7a94c73bd2000e5,2022-05-11_21h24.19.082,classification_task,2021.2.3,Win32,165.5903295,627c6715c52fd12f31907bd0,,,,,,,,,,,,,,,,,,,,,,,a,1,3.2239,"[""0.176"",""0.565"",""0.670"",""0.602""]","[1,1,1,0]",0,11,11,11,1,0,0,,,0,FALSE,,,,,,,,,,,,,,,,,,,,,,,,,,,,,,,
,613d17189f701e7a75b88d68,627c6fb6d7a94c73bd2000e5,2022-05-11_21h24.19.082,classification_task,2021.2.3,Win32,165.5903295,627c6715c52fd12f31907bd0,,,,,,,,,,,,,,,,,,,,,,,l,1,4.0583,"[""0.139"",""0.346"",""0.489"",""0.628""]","[1,1,1,0]",0,12,12,12,1,1,1,,,0,FALSE,,,,,,,,,,,,,,,,,,,,,,,,,,,,,,,
,613d17189f701e7a75b88d68,627c6fb6d7a94c73bd2000e5,2022-05-11_21h24.19.082,classification_task,2021.2.3,Win32,165.5903295,627c6715c52fd12f31907bd0,,,,,,,,,,,,,,,,,,,,,,,l,1,5.0214,"[""0.033"",""0.251"",""0.451"",""0.822""]","[1,0,1,1]",0,13,13,13,1,1,0,,,0,FALSE,,,,,,,,,,,,,,,,,,,,,,,,,,,,,,,
,613d17189f701e7a75b88d68,627c6fb6d7a94c73bd2000e5,2022-05-11_21h24.19.082,classification_task,2021.2.3,Win32,165.5903295,627c6715c52fd12f31907bd0,,,,,,,,,,,,,,,,,,,,,,,l,1,1.7463,"[""0.033"",""0.080"",""0.451"",""0.417""]","[1,1,1,0]",0,14,14,14,1,1,0,,,0,FALSE,,,,,,,,,,,,,,,,,,,,,,,,,,,,,,,
,613d17189f701e7a75b88d68,627c6fb6d7a94c73bd2000e5,2022-05-11_21h24.19.082,classification_task,2021.2.3,Win32,165.5903295,627c6715c52fd12f31907bd0,,,,,,,,,,,,,,,,,,,,,,,a,1,2.6552,"[""0.176"",""0.565"",""0.223"",""0.962""]","[1,1,0,1]",0,15,15,15,1,0,0,,,0,FALSE,,,,,,,,,,,,,,,,,,,,,,,,,,,,,,,
,613d17189f701e7a75b88d68,627c6fb6d7a94c73bd2000e5,2022-05-11_21h24.19.082,classification_task,2021.2.3,Win32,165.5903295,627c6715c52fd12f31907bd0,,,,,,,,,,,,,,,,,,,,,,,a,1,2.3819,"[""0.176"",""0.608"",""0.670"",""0.962""]","[1,0,1,1]",0,16,16,16,1,0,0,,,0,FALSE,,,,,,,,,,,,,,,,,,,,,,,,,,,,,,,
,613d17189f701e7a75b88d68,627c6fb6d7a94c73bd2000e5,2022-05-11_21h24.19.082,classification_task,2021.2.3,Win32,165.5903295,627c6715c52fd12f31907bd0,,,,,,,,,,,,,,,,,,,,,,,l,1,4.1669,"[""0.139"",""0.251"",""0.489"",""0.734""]","[1,0,1,1]",0,17,17,17,1,1,1,,,0,FALSE,,,,,,,,,,,,,,,,,,,,,,,,,,,,,,,
,613d17189f701e7a75b88d68,627c6fb6d7a94c73bd2000e5,2022-05-11_21h24.19.082,classification_task,2021.2.3,Win32,165.5903295,627c6715c52fd12f31907bd0,,,,,,,,,,,,,,,,,,,,,,,a,1,3.3001,"[""0.176"",""0.565"",""0.233"",""0.962""]","[1,1,0,1]",0,18,18,18,1,0,0,,,0,FALSE,,,,,,,,,,,,,,,,,,,,,,,,,,,,,,,
,613d17189f701e7a75b88d68,627c6fb6d7a94c73bd2000e5,2022-05-11_21h24.19.082,classification_task,2021.2.3,Win32,165.5903295,627c6715c52fd12f31907bd0,,,,,,,,,,,,,,,,,,,,,,,l,1,2.7702,"[""0.033"",""0.251"",""0.451"",""0.822""]","[1,0,1,1]",0,19,19,19,1,1,0,,,0,FALSE,,,,,,,,,,,,,,,,,,,,,,,,,,,,,,,
,613d17189f701e7a75b88d68,627c6fb6d7a94c73bd2000e5,2022-05-11_21h24.19.082,classification_task,2021.2.3,Win32,165.5903295,627c6715c52fd12f31907bd0,,,,,,,,,,,,,,,,,,,,,,,a,1,3.3274,"[""0.223"",""0.565"",""0.670"",""0.962""]","[0,1,1,1]",0,20,20,20,1,0,0,,,0,FALSE,,,,,,,,,,,,,,,,,,,,,,,,,,,,,,,
,613d17189f701e7a75b88d68,627c6fb6d7a94c73bd2000e5,2022-05-11_21h24.19.082,classification_task,2021.2.3,Win32,165.5903295,627c6715c52fd12f31907bd0,,,,,,,,,,,,,,,,,,,,,,,l,1,3.6018,"[""0.033"",""0.080"",""0.451"",""0.233""]","[1,1,1,0]",0,21,21,21,1,1,0,,,0,FALSE,,,,,,,,,,,,,,,,,,,,,,,,,,,,,,,
,613d17189f701e7a75b88d68,627c6fb6d7a94c73bd2000e5,2022-05-11_21h24.19.082,classification_task,2021.2.3,Win32,165.5903295,627c6715c52fd12f31907bd0,,,,,,,,,,,,,,,,,,,,,,,l,1,2.8943,"[""0.248"",""0.346"",""0.489"",""0.734""]","[0,1,1,1]",0,22,22,22,1,1,1,,,0,FALSE,,,,,,,,,,,,,,,,,,,,,,,,,,,,,,,
,613d17189f701e7a75b88d68,627c6fb6d7a94c73bd2000e5,2022-05-11_21h24.19.082,classification_task,2021.2.3,Win32,165.5903295,627c6715c52fd12f31907bd0,,,,,,,,,,,,,,,,,,,,,,,a,1,4.8431,"[""0.297"",""0.606"",""0.861"",""0.905""]","[1,0,1,1]",0,23,23,23,1,0,1,,,0,FALSE,,,,,,,,,,,,,,,,,,,,,,,,,,,,,,,
,613d17189f701e7a75b88d68,627c6fb6d7a94c73bd2000e5,2022-05-11_21h24.19.082,classification_task,2021.2.3,Win32,165.5903295,627c6715c52fd12f31907bd0,,,,,,,,,,,,,,,,,,,,,,,l,1,3.4729,"[""0.139"",""0.346"",""0.489"",""0.527""]","[1,1,1,0]",0,24,24,24,1,1,1,,,0,FALSE,,,,,,,,,,,,,,,,,,,,,,,,,,,,,,,
,613d17189f701e7a75b88d68,627c6fb6d7a94c73bd2000e5,2022-05-11_21h24.19.082,classification_task,2021.2.3,Win32,165.5903295,627c6715c52fd12f31907bd0,,,,,,,,,,,,,,,,,,,,,,,a,1,3.9606,"[""0.176"",""0.565"",""0.670"",""0.222""]","[1,1,1,0]",0,25,25,25,1,0,0,,,0,FALSE,,,,,,,,,,,,,,,,,,,,,,,,,,,,,,,
,613d17189f701e7a75b88d68,627c6fb6d7a94c73bd2000e5,2022-05-11_21h24.19.082,classification_task,2021.2.3,Win32,165.5903295,627c6715c52fd12f31907bd0,,,,,,,,,,,,,,,,,,,,,,,a,1,3.8294,"[""0.297"",""0.381"",""0.861"",""0.619""]","[1,1,1,0]",0,26,26,26,1,0,1,,,0,FALSE,,,,,,,,,,,,,,,,,,,,,,,,,,,,,,,
,613d17189f701e7a75b88d68,627c6fb6d7a94c73bd2000e5,2022-05-11_21h24.19.082,classification_task,2021.2.3,Win32,165.5903295,627c6715c52fd12f31907bd0,,,,,,,,,,,,,,,,,,,,,,,l,1,2.3976,"[""0.248"",""0.080"",""0.451"",""0.822""]","[0,1,1,1]",0,27,27,27,1,1,0,,,0,FALSE,,,,,,,,,,,,,,,,,,,,,,,,,,,,,,,
,613d17189f701e7a75b88d68,627c6fb6d7a94c73bd2000e5,2022-05-11_21h24.19.082,classification_task,2021.2.3,Win32,165.5903295,627c6715c52fd12f31907bd0,,,,,,,,,,,,,,,,,,,,,,,a,1,3.8403,"[""0.606"",""0.381"",""0.861"",""0.905""]","[0,1,1,1]",0,28,28,28,1,0,1,,,0,FALSE,,,,,,,,,,,,,,,,,,,,,,,,,,,,,,,
,613d17189f701e7a75b88d68,627c6fb6d7a94c73bd2000e5,2022-05-11_21h24.19.082,classification_task,2021.2.3,Win32,165.5903295,627c6715c52fd12f31907bd0,,,,,,,,,,,,,,,,,,,,,,,a,1,4.0315,"[""0.297"",""0.381"",""0.602"",""0.905""]","[1,1,0,1]",0,29,29,29,1,0,1,,,0,FALSE,,,,,,,,,,,,,,,,,,,,,,,,,,,,,,,
,613d17189f701e7a75b88d68,627c6fb6d7a94c73bd2000e5,2022-05-11_21h24.19.082,classification_task,2021.2.3,Win32,165.5903295,627c6715c52fd12f31907bd0,,,,,,,,,,,,,,,,,,,,,,,l,1,3.6858,"[""0.139"",""0.346"",""0.617"",""0.734""]","[1,1,0,1]",0,30,30,30,1,1,1,,,0,FALSE,,,,,,,,,,,,,,,,,,,,,,,,,,,,,,,
,613d17189f701e7a75b88d68,627c6fb6d7a94c73bd2000e5,2022-05-11_21h24.19.082,classification_task,2021.2.3,Win32,165.5903295,627c6715c52fd12f31907bd0,,,,,,,,,,,,,,,,,,,,,,,l,1,3.5548,"[""0.033"",""0.080"",""0.608"",""0.822""]","[1,1,0,1]",0,31,31,31,1,1,0,,,0,FALSE,,,,,,,,,,,,,,,,,,,,,,,,,,,,,,,
,613d17189f701e7a75b88d68,627c6fb6d7a94c73bd2000e5,2022-05-11_21h24.19.082,classification_task,2021.2.3,Win32,165.5903295,627c6715c52fd12f31907bd0,,,,,,,,,,,,,,,,,,,,,,,l,0,6.3086,"[""0.176"",""0.565"",""0.670"",""0.615""]","[1,1,1,0]",0,32,32,32,1,0,0,,,0,FALSE,,,,,,,,,,,,,,,,,,,,,,,,,,,,,,,
,613d17189f701e7a75b88d68,627c6fb6d7a94c73bd2000e5,2022-05-11_21h24.19.082,classification_task,2021.2.3,Win32,165.5903295,627c6715c52fd12f31907bd0,,,,,,,,,,,,,,,,,,,,,,,l,1,3.5898,"[""0.033"",""0.080"",""0.451"",""0.233""]","[1,1,1,0]",0,33,33,33,1,1,0,,,0,FALSE,,,,,,,,,,,,,,,,,,,,,,,,,,,,,,,
,613d17189f701e7a75b88d68,627c6fb6d7a94c73bd2000e5,2022-05-11_21h24.19.082,classification_task,2021.2.3,Win32,165.5903295,627c6715c52fd12f31907bd0,,,,,,,,,,,,,,,,,,,,,,,l,1,0.94,"[""0.033"",""0.615"",""0.451"",""0.822""]","[1,0,1,1]",0,34,34,34,1,1,0,,,0,FALSE,,,,,,,,,,,,,,,,,,,,,,,,,,,,,,,
,613d17189f701e7a75b88d68,627c6fb6d7a94c73bd2000e5,2022-05-11_21h24.19.082,classification_task,2021.2.3,Win32,165.5903295,627c6715c52fd12f31907bd0,,,,,,,,,,,,,,,,,,,,,,,a,1,2.9824,"[""0.297"",""0.381"",""0.617"",""0.905""]","[1,1,0,1]",0,35,35,35,1,0,1,,,0,FALSE,,,,,,,,,,,,,,,,,,,,,,,,,,,,,,,
,613d17189f701e7a75b88d68,627c6fb6d7a94c73bd2000e5,2022-05-11_21h24.19.082,classification_task,2021.2.3,Win32,165.5903295,627c6715c52fd12f31907bd0,,,,,,,,,,,,,,,,,,,,,,,l,1,3.9345,"[""0.233"",""0.080"",""0.451"",""0.822""]","[0,1,1,1]",0,36,36,36,1,1,0,,,0,FALSE,,,,,,,,,,,,,,,,,,,,,,,,,,,,,,,
,613d17189f701e7a75b88d68,627c6fb6d7a94c73bd2000e5,2022-05-11_21h24.19.082,classification_task,2021.2.3,Win32,165.5903295,627c6715c52fd12f31907bd0,,,,,,,,,,,,,,,,,,,,,,,l,1,1.8912,"[""0.033"",""0.080"",""0.251"",""0.822""]","[1,1,0,1]",0,37,37,37,1,1,0,,,0,FALSE,,,,,,,,,,,,,,,,,,,,,,,,,,,,,,,
,613d17189f701e7a75b88d68,627c6fb6d7a94c73bd2000e5,2022-05-11_21h24.19.082,classification_task,2021.2.3,Win32,165.5903295,627c6715c52fd12f31907bd0,,,,,,,,,,,,,,,,,,,,,,,a,1,1.54,"[""0.222"",""0.565"",""0.670"",""0.962""]","[0,1,1,1]",0,38,38,38,1,0,0,,,0,FALSE,,,,,,,,,,,,,,,,,,,,,,,,,,,,,,,
,613d17189f701e7a75b88d68,627c6fb6d7a94c73bd2000e5,2022-05-11_21h24.19.082,classification_task,2021.2.3,Win32,165.5903295,627c6715c52fd12f31907bd0,,,,,,,,,,,,,,,,,,,,,,,a,1,1.9818,"[""0.628"",""0.381"",""0.861"",""0.905""]","[0,1,1,1]",0,39,39,39,1,0,1,,,0,FALSE,,,,,,,,,,,,,,,,,,,,,,,,,,,,,,,
,613d17189f701e7a75b88d68,627c6fb6d7a94c73bd2000e5,2022-05-11_21h24.19.082,classification_task,2021.2.3,Win32,165.5903295,627c6715c52fd12f31907bd0,,,,,,,,,,,,,,,,,,,,,,,l,1,3.6734,"[""0.139"",""0.346"",""0.489"",""0.602""]","[1,1,1,0]",0,40,40,40,1,1,1,,,0,FALSE,,,,,,,,,,,,,,,,,,,,,,,,,,,,,,,
,613d17189f701e7a75b88d68,627c6fb6d7a94c73bd2000e5,2022-05-11_21h24.19.082,classification_task,2021.2.3,Win32,165.5903295,627c6715c52fd12f31907bd0,,,,,,,,,,,,,,,,,,,,,,,a,1,2.51,"[""0.297"",""0.617"",""0.861"",""0.905""]","[1,0,1,1]",0,41,41,41,1,0,1,,,0,FALSE,,,,,,,,,,,,,,,,,,,,,,,,,,,,,,,
,613d17189f701e7a75b88d68,627c6fb6d7a94c73bd2000e5,2022-05-11_21h24.19.082,classification_task,2021.2.3,Win32,165.5903295,627c6715c52fd12f31907bd0,,,,,,,,,,,,,,,,,,,,,,,l,0,3.117,"[""0.176"",""0.565"",""0.243"",""0.962""]","[1,1,0,1]",0,42,42,42,1,0,0,,,0,FALSE,,,,,,,,,,,,,,,,,,,,,,,,,,,,,,,
,613d17189f701e7a75b88d68,627c6fb6d7a94c73bd2000e5,2022-05-11_21h24.19.082,classification_task,2021.2.3,Win32,165.5903295,627c6715c52fd12f31907bd0,,,,,,,,,,,,,,,,,,,,,,,l,1,1.8494,"[""0.139"",""0.346"",""0.615"",""0.734""]","[1,1,0,1]",0,43,43,43,1,1,1,,,0,FALSE,,,,,,,,,,,,,,,,,,,,,,,,,,,,,,,
,613d17189f701e7a75b88d68,627c6fb6d7a94c73bd2000e5,2022-05-11_21h24.19.082,classification_task,2021.2.3,Win32,165.5903295,627c6715c52fd12f31907bd0,,,,,,,,,,,,,,,,,,,,,,,a,1,3.6368,"[""0.297"",""0.381"",""0.861"",""0.248""]","[1,1,1,0]",0,44,44,44,1,0,1,,,0,FALSE,,,,,,,,,,,,,,,,,,,,,,,,,,,,,,,
,613d17189f701e7a75b88d68,627c6fb6d7a94c73bd2000e5,2022-05-11_21h24.19.082,classification_task,2021.2.3,Win32,165.5903295,627c6715c52fd12f31907bd0,,,,,,,,,,,,,,,,,,,,,,,l,1,3.7213,"[""0.417"",""0.346"",""0.489"",""0.734""]","[0,1,1,1]",0,45,45,45,1,1,1,,,0,FALSE,,,,,,,,,,,,,,,,,,,,,,,,,,,,,,,
,613d17189f701e7a75b88d68,627c6fb6d7a94c73bd2000e5,2022-05-11_21h24.19.082,classification_task,2021.2.3,Win32,165.5903295,627c6715c52fd12f31907bd0,,,,,,,,,,,,,,,,,,,,,,,l,0,3.17,"[""0.176"",""0.602"",""0.670"",""0.962""]","[1,0,1,1]",0,46,46,46,1,0,0,,,0,FALSE,,,,,,,,,,,,,,,,,,,,,,,,,,,,,,,
,613d17189f701e7a75b88d68,627c6fb6d7a94c73bd2000e5,2022-05-11_21h24.19.082,classification_task,2021.2.3,Win32,165.5903295,627c6715c52fd12f31907bd0,,,,,,,,,,,,,,,,,,,,,,,l,1,4.8793,"[""0.139"",""0.415"",""0.489"",""0.734""]","[1,0,1,1]",0,47,47,47,1,1,1,,,0,FALSE,,,,,,,,,,,,,,,,,,,,,,,,,,,,,,,
,613d17189f701e7a75b88d68,627c6fb6d7a94c73bd2000e5,2022-05-11_21h24.19.082,classification_task,2021.2.3,Win32,165.5903295,627c6715c52fd12f31907bd0,,,,,,,,,,,,,,,,,,,,,,,l,0,3.9343,"[""0.176"",""0.565"",""0.615"",""0.962""]","[1,1,0,1]",0,48,48,48,1,0,0,,,0,FALSE,,,,,,,,,,,,,,,,,,,,,,,,,,,,,,,
,613d17189f701e7a75b88d68,627c6fb6d7a94c73bd2000e5,2022-05-11_21h24.19.082,classification_task,2021.2.3,Win32,165.5903295,627c6715c52fd12f31907bd0,,,,,,,,,,,,,,,,,,,,,,,a,1,4.5336,"[""0.297"",""0.381"",""0.861"",""0.602""]","[1,1,1,0]",0,49,49,49,1,0,1,,,0,FALSE,,,,,,,,,,,,,,,,,,,,,,,,,,,,,,,
,613d17189f701e7a75b88d68,627c6fb6d7a94c73bd2000e5,2022-05-11_21h24.19.082,classification_task,2021.2.3,Win32,165.5903295,627c6715c52fd12f31907bd0,,,,,,,,,,,,,,,,,,,,,,,l,1,1.1341,"[""0.139"",""0.346"",""0.608"",""0.734""]","[1,1,0,1]",0,50,50,50,1,1,1,,,0,FALSE,,,,,,,,,,,,,,,,,,,,,,,,,,,,,,,
,613d17189f701e7a75b88d68,627c6fb6d7a94c73bd2000e5,2022-05-11_21h24.19.082,classification_task,2021.2.3,Win32,165.5903295,627c6715c52fd12f31907bd0,,,,,,,,,,,,,,,,,,,,,,,l,1,2.7399,"[""0.417"",""0.080"",""0.451"",""0.822""]","[0,1,1,1]",0,51,51,51,1,1,0,,,0,FALSE,,,,,,,,,,,,,,,,,,,,,,,,,,,,,,,
,613d17189f701e7a75b88d68,627c6fb6d7a94c73bd2000e5,2022-05-11_21h24.19.082,classification_task,2021.2.3,Win32,165.5903295,627c6715c52fd12f31907bd0,,,,,,,,,,,,,,,,,,,,,,,a,1,1.724,"[""0.176"",""0.565"",""0.670"",""0.415""]","[1,1,1,0]",0,52,52,52,1,0,0,,,0,FALSE,,,,,,,,,,,,,,,,,,,,,,,,,,,,,,,
,613d17189f701e7a75b88d68,627c6fb6d7a94c73bd2000e5,2022-05-11_21h24.19.082,classification_task,2021.2.3,Win32,165.5903295,627c6715c52fd12f31907bd0,,,,,,,,,,,,,,,,,,,,,,,l,1,2.6806,"[""0.033"",""0.080"",""0.615"",""0.822""]","[1,1,0,1]",0,53,53,53,1,1,0,,,0,FALSE,,,,,,,,,,,,,,,,,,,,,,,,,,,,,,,
,613d17189f701e7a75b88d68,627c6fb6d7a94c73bd2000e5,2022-05-11_21h24.19.082,classification_task,2021.2.3,Win32,165.5903295,627c6715c52fd12f31907bd0,,,,,,,,,,,,,,,,,,,,,,,a,1,1.8245,"[""0.176"",""0.608"",""0.670"",""0.962""]","[1,0,1,1]",0,54,54,54,1,0,0,,,0,FALSE,,,,,,,,,,,,,,,,,,,,,,,,,,,,,,,
,613d17189f701e7a75b88d68,627c6fb6d7a94c73bd2000e5,2022-05-11_21h24.19.082,classification_task,2021.2.3,Win32,165.5903295,627c6715c52fd12f31907bd0,,,,,,,,,,,,,,,,,,,,,,,l,1,2.7887,"[""0.139"",""0.608"",""0.489"",""0.734""]","[1,0,1,1]",0,55,55,55,1,1,1,,,0,FALSE,,,,,,,,,,,,,,,,,,,,,,,,,,,,,,,
,613d17189f701e7a75b88d68,627c6fb6d7a94c73bd2000e5,2022-05-11_21h24.19.082,classification_task,2021.2.3,Win32,165.5903295,627c6715c52fd12f31907bd0,,,,,,,,,,,,,,,,,,,,,,,a,1,4.1767,"[""0.297"",""0.606"",""0.861"",""0.905""]","[1,0,1,1]",0,56,56,56,1,0,1,,,0,FALSE,,,,,,,,,,,,,,,,,,,,,,,,,,,,,,,
,613d17189f701e7a75b88d68,627c6fb6d7a94c73bd2000e5,2022-05-11_21h24.19.082,classification_task,2021.2.3,Win32,165.5903295,627c6715c52fd12f31907bd0,,,,,,,,,,,,,,,,,,,,,,,l,1,1.5577,"[""0.033"",""0.080"",""0.451"",""0.628""]","[1,1,1,0]",0,57,57,57,1,1,0,,,0,FALSE,,,,,,,,,,,,,,,,,,,,,,,,,,,,,,,
,613d17189f701e7a75b88d68,627c6fb6d7a94c73bd2000e5,2022-05-11_21h24.19.082,classification_task,2021.2.3,Win32,165.5903295,627c6715c52fd12f31907bd0,,,,,,,,,,,,,,,,,,,,,,,a,1,4.178,"[""0.297"",""0.381"",""0.222"",""0.905""]","[1,1,0,1]",0,58,58,58,1,0,1,,,0,FALSE,,,,,,,,,,,,,,,,,,,,,,,,,,,,,,,
,613d17189f701e7a75b88d68,627c6fb6d7a94c73bd2000e5,2022-05-11_21h24.19.082,classification_task,2021.2.3,Win32,165.5903295,627c6715c52fd12f31907bd0,,,,,,,,,,,,,,,,,,,,,,,l,1,2.4027,"[""0.033"",""0.608"",""0.451"",""0.822""]","[1,0,1,1]",0,59,59,59,1,1,0,,,0,FALSE,,,,,,,,,,,,,,,,,,,,,,,,,,,,,,,
,613d17189f701e7a75b88d68,627c6fb6d7a94c73bd2000e5,2022-05-11_21h24.19.082,classification_task,2021.2.3,Win32,165.5903295,627c6715c52fd12f31907bd0,,,,,,,,,,,,,,,,,,,,,,,l,1,2.1335,"[""0.139"",""0.346"",""0.489"",""0.617""]","[1,1,1,0]",0,60,60,60,1,1,1,,,0,FALSE,,,,,,,,,,,,,,,,,,,,,,,,,,,,,,,
,613d17189f701e7a75b88d68,627c6fb6d7a94c73bd2000e5,2022-05-11_21h24.19.082,classification_task,2021.2.3,Win32,165.5903295,627c6715c52fd12f31907bd0,,,,,,,,,,,,,,,,,,,,,,,l,1,1.2917,"[""0.223"",""0.346"",""0.489"",""0.734""]","[0,1,1,1]",0,61,61,61,1,1,1,,,0,FALSE,,,,,,,,,,,,,,,,,,,,,,,,,,,,,,,
,613d17189f701e7a75b88d68,627c6fb6d7a94c73bd2000e5,2022-05-11_21h24.19.082,classification_task,2021.2.3,Win32,165.5903295,627c6715c52fd12f31907bd0,,,,,,,,,,,,,,,,,,,,,,,a,1,0.9763,"[""0.619"",""0.381"",""0.861"",""0.905""]","[0,1,1,1]",0,62,62,62,1,0,1,,,0,FALSE,,,,,,,,,,,,,,,,,,,,,,,,,,,,,,,
,613d17189f701e7a75b88d68,627c6fb6d7a94c73bd2000e5,2022-05-11_21h24.19.082,classification_task,2021.2.3,Win32,165.5903295,627c6715c52fd12f31907bd0,,,,,,,,,,,,,,,,,,,,,,,a,1,1.2058,"[""0.628"",""0.565"",""0.670"",""0.962""]","[0,1,1,1]",0,63,63,63,1,0,0,,,0,FALSE,,,,,,,,,,,,,,,,,,,,,,,,,,,,,,,
,613d17189f701e7a75b88d68,627c6fb6d7a94c73bd2000e5,2022-05-11_21h24.19.082,classification_task,2021.2.3,Win32,165.5903295,627c6715c52fd12f31907bd0,,,,,,,,,,,,,,,,,,,,,,,,,,,,,,,,,,,,,,,0, ,,0,,,0,0,0,0,1,2,1,,,,,,,,,,,,,,,,,,
,613d17189f701e7a75b88d68,627c6fb6d7a94c73bd2000e5,2022-05-11_21h24.19.082,classification_task,2021.2.3,Win32,165.5903295,627c6715c52fd12f31907bd0,,,,,,,,,,,,,,,,,,,,,,,,,,,,,,,,,,,,,,,1,  ,,0,,,0,0,0,0,1,2,1,,,,,,,,,,,,,,,,,,
,613d17189f701e7a75b88d68,627c6fb6d7a94c73bd2000e5,2022-05-11_21h24.19.082,classification_task,2021.2.3,Win32,165.5903295,627c6715c52fd12f31907bd0,,,,,,,,,,,,,,,,,,,,,,,,,,,,,,,,,,,,,,,2,  ,,0,,,0,0,0,0,1,2,1,,,,,,,,,,,,,,,,,,
,613d17189f701e7a75b88d68,627c6fb6d7a94c73bd2000e5,2022-05-11_21h24.19.082,classification_task,2021.2.3,Win32,165.5903295,627c6715c52fd12f31907bd0,,,,,,,,,,,,,,,,,,,,,,,,,,,,,,,,,,,,,,,,,,,,,0,0,0,0,1,,1,,,,,,,,,,,,,,,,,,
,613d17189f701e7a75b88d68,627c6fb6d7a94c73bd2000e5,2022-05-11_21h24.19.082,classification_task,2021.2.3,Win32,165.5903295,627c6715c52fd12f31907bd0,,,,,,,,,,,,,,,,,,,,,space,54.4255,a,1,6.0834,"[""0.297"",""0.381"",""0.861"",""0.619""]","[1,1,1,0]",0,0,0,0,1,0,1,,,0,FALSE,,,,,,,,,,,,,,,,,,,,,,,,,,,,,,,
,613d17189f701e7a75b88d68,627c6fb6d7a94c73bd2000e5,2022-05-11_21h24.19.082,classification_task,2021.2.3,Win32,165.5903295,627c6715c52fd12f31907bd0,,,,,,,,,,,,,,,,,,,,,,,a,1,5.1978,"[""0.176"",""0.565"",""0.670"",""0.223""]","[1,1,1,0]",0,1,1,1,1,0,0,,,0,FALSE,,,,,,,,,,,,,,,,,,,,,,,,,,,,,,,
,613d17189f701e7a75b88d68,627c6fb6d7a94c73bd2000e5,2022-05-11_21h24.19.082,classification_task,2021.2.3,Win32,165.5903295,627c6715c52fd12f31907bd0,,,,,,,,,,,,,,,,,,,,,,,l,1,1.562,"[""0.139"",""0.346"",""0.489"",""0.602""]","[1,1,1,0]",0,2,2,2,1,1,1,,,0,FALSE,,,,,,,,,,,,,,,,,,,,,,,,,,,,,,,
,613d17189f701e7a75b88d68,627c6fb6d7a94c73bd2000e5,2022-05-11_21h24.19.082,classification_task,2021.2.3,Win32,165.5903295,627c6715c52fd12f31907bd0,,,,,,,,,,,,,,,,,,,,,,,l,1,2.9028,"[""0.527"",""0.346"",""0.489"",""0.734""]","[0,1,1,1]",0,3,3,3,1,1,1,,,0,FALSE,,,,,,,,,,,,,,,,,,,,,,,,,,,,,,,
,613d17189f701e7a75b88d68,627c6fb6d7a94c73bd2000e5,2022-05-11_21h24.19.082,classification_task,2021.2.3,Win32,165.5903295,627c6715c52fd12f31907bd0,,,,,,,,,,,,,,,,,,,,,,,l,1,3.1734,"[""0.033"",""0.080"",""0.451"",""0.619""]","[1,1,1,0]",0,4,4,4,1,1,0,,,0,FALSE,,,,,,,,,,,,,,,,,,,,,,,,,,,,,,,
,613d17189f701e7a75b88d68,627c6fb6d7a94c73bd2000e5,2022-05-11_21h24.19.082,classification_task,2021.2.3,Win32,165.5903295,627c6715c52fd12f31907bd0,,,,,,,,,,,,,,,,,,,,,,,l,1,3.792,"[""0.139"",""0.346"",""0.243"",""0.734""]","[1,1,0,1]",0,5,5,5,1,1,1,,,0,FALSE,,,,,,,,,,,,,,,,,,,,,,,,,,,,,,,
,613d17189f701e7a75b88d68,627c6fb6d7a94c73bd2000e5,2022-05-11_21h24.19.082,classification_task,2021.2.3,Win32,165.5903295,627c6715c52fd12f31907bd0,,,,,,,,,,,,,,,,,,,,,,,a,1,0.9863,"[""0.176"",""0.233"",""0.670"",""0.962""]","[1,0,1,1]",0,6,6,6,1,0,0,,,0,FALSE,,,,,,,,,,,,,,,,,,,,,,,,,,,,,,,
,613d17189f701e7a75b88d68,627c6fb6d7a94c73bd2000e5,2022-05-11_21h24.19.082,classification_task,2021.2.3,Win32,165.5903295,627c6715c52fd12f31907bd0,,,,,,,,,,,,,,,,,,,,,,,l,1,0.7936,"[""0.222"",""0.080"",""0.451"",""0.822""]","[0,1,1,1]",0,7,7,7,1,1,0,,,0,FALSE,,,,,,,,,,,,,,,,,,,,,,,,,,,,,,,
,613d17189f701e7a75b88d68,627c6fb6d7a94c73bd2000e5,2022-05-11_21h24.19.082,classification_task,2021.2.3,Win32,165.5903295,627c6715c52fd12f31907bd0,,,,,,,,,,,,,,,,,,,,,,,a,1,2.3623,"[""0.297"",""0.602"",""0.861"",""0.905""]","[1,0,1,1]",0,8,8,8,1,0,1,,,0,FALSE,,,,,,,,,,,,,,,,,,,,,,,,,,,,,,,
,613d17189f701e7a75b88d68,627c6fb6d7a94c73bd2000e5,2022-05-11_21h24.19.082,classification_task,2021.2.3,Win32,165.5903295,627c6715c52fd12f31907bd0,,,,,,,,,,,,,,,,,,,,,,,l,1,3.3613,"[""0.033"",""0.606"",""0.451"",""0.822""]","[1,0,1,1]",0,9,9,9,1,1,0,,,0,FALSE,,,,,,,,,,,,,,,,,,,,,,,,,,,,,,,
,613d17189f701e7a75b88d68,627c6fb6d7a94c73bd2000e5,2022-05-11_21h24.19.082,classification_task,2021.2.3,Win32,165.5903295,627c6715c52fd12f31907bd0,,,,,,,,,,,,,,,,,,,,,,,l,1,0.7344,"[""0.033"",""0.080"",""0.527"",""0.822""]","[1,1,0,1]",0,10,10,10,1,1,0,,,0,FALSE,,,,,,,,,,,,,,,,,,,,,,,,,,,,,,,
,613d17189f701e7a75b88d68,627c6fb6d7a94c73bd2000e5,2022-05-11_21h24.19.082,classification_task,2021.2.3,Win32,165.5903295,627c6715c52fd12f31907bd0,,,,,,,,,,,,,,,,,,,,,,,a,1,2.3131,"[""0.297"",""0.381"",""0.417"",""0.905""]","[1,1,0,1]",0,11,11,11,1,0,1,,,0,FALSE,,,,,,,,,,,,,,,,,,,,,,,,,,,,,,,
,613d17189f701e7a75b88d68,627c6fb6d7a94c73bd2000e5,2022-05-11_21h24.19.082,classification_task,2021.2.3,Win32,165.5903295,627c6715c52fd12f31907bd0,,,,,,,,,,,,,,,,,,,,,,,l,1,3.8972,"[""0.139"",""0.615"",""0.489"",""0.734""]","[1,0,1,1]",0,12,12,12,1,1,1,,,0,FALSE,,,,,,,,,,,,,,,,,,,,,,,,,,,,,,,
,613d17189f701e7a75b88d68,627c6fb6d7a94c73bd2000e5,2022-05-11_21h24.19.082,classification_task,2021.2.3,Win32,165.5903295,627c6715c52fd12f31907bd0,,,,,,,,,,,,,,,,,,,,,,,a,1,0.6524,"[""0.619"",""0.565"",""0.670"",""0.962""]","[0,1,1,1]",0,13,13,13,1,0,0,,,0,FALSE,,,,,,,,,,,,,,,,,,,,,,,,,,,,,,,
,613d17189f701e7a75b88d68,627c6fb6d7a94c73bd2000e5,2022-05-11_21h24.19.082,classification_task,2021.2.3,Win32,165.5903295,627c6715c52fd12f31907bd0,,,,,,,,,,,,,,,,,,,,,,,a,1,3.0452,"[""0.222"",""0.381"",""0.861"",""0.905""]","[0,1,1,1]",0,14,14,14,1,0,1,,,0,FALSE,,,,,,,,,,,,,,,,,,,,,,,,,,,,,,,
,613d17189f701e7a75b88d68,627c6fb6d7a94c73bd2000e5,2022-05-11_21h24.19.082,classification_task,2021.2.3,Win32,165.5903295,627c6715c52fd12f31907bd0,,,,,,,,,,,,,,,,,,,,,,,a,1,1.108,"[""0.176"",""0.565"",""0.602"",""0.962""]","[1,1,0,1]",0,15,15,15,1,0,0,,,0,FALSE,,,,,,,,,,,,,,,,,,,,,,,,,,,,,,,
,613d17189f701e7a75b88d68,627c6fb6d7a94c73bd2000e5,2022-05-11_21h24.19.082,classification_task,2021.2.3,Win32,165.5903295,627c6715c52fd12f31907bd0,,,,,,,,,,,,,,,,,,,,,,,a,1,1.6948,"[""0.297"",""0.381"",""0.861"",""0.619""]","[1,1,1,0]",0,16,16,16,1,0,1,,,0,FALSE,,,,,,,,,,,,,,,,,,,,,,,,,,,,,,,
,613d17189f701e7a75b88d68,627c6fb6d7a94c73bd2000e5,2022-05-11_21h24.19.082,classification_task,2021.2.3,Win32,165.5903295,627c6715c52fd12f31907bd0,,,,,,,,,,,,,,,,,,,,,,,a,1,0.5484,"[""0.176"",""0.565"",""0.243"",""0.962""]","[1,1,0,1]",0,17,17,17,1,0,0,,,0,FALSE,,,,,,,,,,,,,,,,,,,,,,,,,,,,,,,
,613d17189f701e7a75b88d68,627c6fb6d7a94c73bd2000e5,2022-05-11_21h24.19.082,classification_task,2021.2.3,Win32,165.5903295,627c6715c52fd12f31907bd0,,,,,,,,,,,,,,,,,,,,,,,a,1,0.4236,"[""0.176"",""0.222"",""0.670"",""0.962""]","[1,0,1,1]",0,18,18,18,1,0,0,,,0,FALSE,,,,,,,,,,,,,,,,,,,,,,,,,,,,,,,
,613d17189f701e7a75b88d68,627c6fb6d7a94c73bd2000e5,2022-05-11_21h24.19.082,classification_task,2021.2.3,Win32,165.5903295,627c6715c52fd12f31907bd0,,,,,,,,,,,,,,,,,,,,,,,a,1,2.2218,"[""0.297"",""0.251"",""0.861"",""0.905""]","[1,0,1,1]",0,19,19,19,1,0,1,,,0,FALSE,,,,,,,,,,,,,,,,,,,,,,,,,,,,,,,
,613d17189f701e7a75b88d68,627c6fb6d7a94c73bd2000e5,2022-05-11_21h24.19.082,classification_task,2021.2.3,Win32,165.5903295,627c6715c52fd12f31907bd0,,,,,,,,,,,,,,,,,,,,,,,a,1,1.9105,"[""0.297"",""0.381"",""0.417"",""0.905""]","[1,1,0,1]",0,20,20,20,1,0,1,,,0,FALSE,,,,,,,,,,,,,,,,,,,,,,,,,,,,,,,
,613d17189f701e7a75b88d68,627c6fb6d7a94c73bd2000e5,2022-05-11_21h24.19.082,classification_task,2021.2.3,Win32,165.5903295,627c6715c52fd12f31907bd0,,,,,,,,,,,,,,,,,,,,,,,l,1,0.6823,"[""0.033"",""0.080"",""0.619"",""0.822""]","[1,1,0,1]",0,21,21,21,1,1,0,,,0,FALSE,,,,,,,,,,,,,,,,,,,,,,,,,,,,,,,
,613d17189f701e7a75b88d68,627c6fb6d7a94c73bd2000e5,2022-05-11_21h24.19.082,classification_task,2021.2.3,Win32,165.5903295,627c6715c52fd12f31907bd0,,,,,,,,,,,,,,,,,,,,,,,l,1,1.332,"[""0.139"",""0.346"",""0.617"",""0.734""]","[1,1,0,1]",0,22,22,22,1,1,1,,,0,FALSE,,,,,,,,,,,,,,,,,,,,,,,,,,,,,,,
,613d17189f701e7a75b88d68,627c6fb6d7a94c73bd2000e5,2022-05-11_21h24.19.082,classification_task,2021.2.3,Win32,165.5903295,627c6715c52fd12f31907bd0,,,,,,,,,,,,,,,,,,,,,,,a,1,0.4398,"[""0.176"",""0.565"",""0.670"",""0.615""]","[1,1,1,0]",0,23,23,23,1,0,0,,,0,FALSE,,,,,,,,,,,,,,,,,,,,,,,,,,,,,,,
,613d17189f701e7a75b88d68,627c6fb6d7a94c73bd2000e5,2022-05-11_21h24.19.082,classification_task,2021.2.3,Win32,165.5903295,627c6715c52fd12f31907bd0,,,,,,,,,,,,,,,,,,,,,,,a,1,1.6776,"[""0.222"",""0.381"",""0.861"",""0.905""]","[0,1,1,1]",0,24,24,24,1,0,1,,,0,FALSE,,,,,,,,,,,,,,,,,,,,,,,,,,,,,,,
,613d17189f701e7a75b88d68,627c6fb6d7a94c73bd2000e5,2022-05-11_21h24.19.082,classification_task,2021.2.3,Win32,165.5903295,627c6715c52fd12f31907bd0,,,,,,,,,,,,,,,,,,,,,,,a,0,1.71,"[""0.139"",""0.346"",""0.489"",""0.617""]","[1,1,1,0]",0,25,25,25,1,1,1,,,0,FALSE,,,,,,,,,,,,,,,,,,,,,,,,,,,,,,,
,613d17189f701e7a75b88d68,627c6fb6d7a94c73bd2000e5,2022-05-11_21h24.19.082,classification_task,2021.2.3,Win32,165.5903295,627c6715c52fd12f31907bd0,,,,,,,,,,,,,,,,,,,,,,,l,1,1.4747,"[""0.417"",""0.346"",""0.489"",""0.734""]","[0,1,1,1]",0,26,26,26,1,1,1,,,0,FALSE,,,,,,,,,,,,,,,,,,,,,,,,,,,,,,,
,613d17189f701e7a75b88d68,627c6fb6d7a94c73bd2000e5,2022-05-11_21h24.19.082,classification_task,2021.2.3,Win32,165.5903295,627c6715c52fd12f31907bd0,,,,,,,,,,,,,,,,,,,,,,,l,1,2.7538,"[""0.139"",""0.619"",""0.489"",""0.734""]","[1,0,1,1]",0,27,27,27,1,1,1,,,0,FALSE,,,,,,,,,,,,,,,,,,,,,,,,,,,,,,,
,613d17189f701e7a75b88d68,627c6fb6d7a94c73bd2000e5,2022-05-11_21h24.19.082,classification_task,2021.2.3,Win32,165.5903295,627c6715c52fd12f31907bd0,,,,,,,,,,,,,,,,,,,,,,,l,1,1.1134,"[""0.033"",""0.243"",""0.451"",""0.822""]","[1,0,1,1]",0,28,28,28,1,1,0,,,0,FALSE,,,,,,,,,,,,,,,,,,,,,,,,,,,,,,,
,613d17189f701e7a75b88d68,627c6fb6d7a94c73bd2000e5,2022-05-11_21h24.19.082,classification_task,2021.2.3,Win32,165.5903295,627c6715c52fd12f31907bd0,,,,,,,,,,,,,,,,,,,,,,,l,1,0.4184,"[""0.619"",""0.080"",""0.451"",""0.822""]","[0,1,1,1]",0,29,29,29,1,1,0,,,0,FALSE,,,,,,,,,,,,,,,,,,,,,,,,,,,,,,,
,613d17189f701e7a75b88d68,627c6fb6d7a94c73bd2000e5,2022-05-11_21h24.19.082,classification_task,2021.2.3,Win32,165.5903295,627c6715c52fd12f31907bd0,,,,,,,,,,,,,,,,,,,,,,,a,1,0.3819,"[""0.222"",""0.565"",""0.670"",""0.962""]","[0,1,1,1]",0,30,30,30,1,0,0,,,0,FALSE,,,,,,,,,,,,,,,,,,,,,,,,,,,,,,,
,613d17189f701e7a75b88d68,627c6fb6d7a94c73bd2000e5,2022-05-11_21h24.19.082,classification_task,2021.2.3,Win32,165.5903295,627c6715c52fd12f31907bd0,,,,,,,,,,,,,,,,,,,,,,,l,1,0.4479,"[""0.033"",""0.080"",""0.451"",""0.608""]","[1,1,1,0]",0,31,31,31,1,1,0,,,0,FALSE,,,,,,,,,,,,,,,,,,,,,,,,,,,,,,,
,613d17189f701e7a75b88d68,627c6fb6d7a94c73bd2000e5,2022-05-11_21h24.19.082,classification_task,2021.2.3,Win32,165.5903295,627c6715c52fd12f31907bd0,,,,,,,,,,,,,,,,,,,,,,,a,1,0.3332,"[""0.176"",""0.565"",""0.251"",""0.962""]","[1,1,0,1]",0,32,32,32,1,0,0,,,0,FALSE,,,,,,,,,,,,,,,,,,,,,,,,,,,,,,,
,613d17189f701e7a75b88d68,627c6fb6d7a94c73bd2000e5,2022-05-11_21h24.19.082,classification_task,2021.2.3,Win32,165.5903295,627c6715c52fd12f31907bd0,,,,,,,,,,,,,,,,,,,,,,,a,1,1.9188,"[""0.248"",""0.381"",""0.861"",""0.905""]","[0,1,1,1]",0,33,33,33,1,0,1,,,0,FALSE,,,,,,,,,,,,,,,,,,,,,,,,,,,,,,,
,613d17189f701e7a75b88d68,627c6fb6d7a94c73bd2000e5,2022-05-11_21h24.19.082,classification_task,2021.2.3,Win32,165.5903295,627c6715c52fd12f31907bd0,,,,,,,,,,,,,,,,,,,,,,,a,0,2.9939,"[""0.139"",""0.233"",""0.489"",""0.734""]","[1,0,1,1]",0,34,34,34,1,1,1,,,0,FALSE,,,,,,,,,,,,,,,,,,,,,,,,,,,,,,,
,613d17189f701e7a75b88d68,627c6fb6d7a94c73bd2000e5,2022-05-11_21h24.19.082,classification_task,2021.2.3,Win32,165.5903295,627c6715c52fd12f31907bd0,,,,,,,,,,,,,,,,,,,,,,,l,1,1.3251,"[""0.033"",""0.617"",""0.451"",""0.822""]","[1,0,1,1]",0,35,35,35,1,1,0,,,0,FALSE,,,,,,,,,,,,,,,,,,,,,,,,,,,,,,,
,613d17189f701e7a75b88d68,627c6fb6d7a94c73bd2000e5,2022-05-11_21h24.19.082,classification_task,2021.2.3,Win32,165.5903295,627c6715c52fd12f31907bd0,,,,,,,,,,,,,,,,,,,,,,,l,1,1.9798,"[""0.606"",""0.346"",""0.489"",""0.734""]","[0,1,1,1]",0,36,36,36,1,1,1,,,0,FALSE,,,,,,,,,,,,,,,,,,,,,,,,,,,,,,,
,613d17189f701e7a75b88d68,627c6fb6d7a94c73bd2000e5,2022-05-11_21h24.19.082,classification_task,2021.2.3,Win32,165.5903295,627c6715c52fd12f31907bd0,,,,,,,,,,,,,,,,,,,,,,,a,1,1.1212,"[""0.297"",""0.381"",""0.861"",""0.527""]","[1,1,1,0]",0,37,37,37,1,0,1,,,0,FALSE,,,,,,,,,,,,,,,,,,,,,,,,,,,,,,,
,613d17189f701e7a75b88d68,627c6fb6d7a94c73bd2000e5,2022-05-11_21h24.19.082,classification_task,2021.2.3,Win32,165.5903295,627c6715c52fd12f31907bd0,,,,,,,,,,,,,,,,,,,,,,,l,1,1.4844,"[""0.139"",""0.346"",""0.489"",""0.415""]","[1,1,1,0]",0,38,38,38,1,1,1,,,0,FALSE,,,,,,,,,,,,,,,,,,,,,,,,,,,,,,,
,613d17189f701e7a75b88d68,627c6fb6d7a94c73bd2000e5,2022-05-11_21h24.19.082,classification_task,2021.2.3,Win32,165.5903295,627c6715c52fd12f31907bd0,,,,,,,,,,,,,,,,,,,,,,,l,1,1.434,"[""0.033"",""0.080"",""0.417"",""0.822""]","[1,1,0,1]",0,39,39,39,1,1,0,,,0,FALSE,,,,,,,,,,,,,,,,,,,,,,,,,,,,,,,
,613d17189f701e7a75b88d68,627c6fb6d7a94c73bd2000e5,2022-05-11_21h24.19.082,classification_task,2021.2.3,Win32,165.5903295,627c6715c52fd12f31907bd0,,,,,,,,,,,,,,,,,,,,,,,l,1,2.3189,"[""0.139"",""0.346"",""0.248"",""0.734""]","[1,1,0,1]",0,40,40,40,1,1,1,,,0,FALSE,,,,,,,,,,,,,,,,,,,,,,,,,,,,,,,
,613d17189f701e7a75b88d68,627c6fb6d7a94c73bd2000e5,2022-05-11_21h24.19.082,classification_task,2021.2.3,Win32,165.5903295,627c6715c52fd12f31907bd0,,,,,,,,,,,,,,,,,,,,,,,a,1,0.6456,"[""0.176"",""0.565"",""0.670"",""0.248""]","[1,1,1,0]",0,41,41,41,1,0,0,,,0,FALSE,,,,,,,,,,,,,,,,,,,,,,,,,,,,,,,
,613d17189f701e7a75b88d68,627c6fb6d7a94c73bd2000e5,2022-05-11_21h24.19.082,classification_task,2021.2.3,Win32,165.5903295,627c6715c52fd12f31907bd0,,,,,,,,,,,,,,,,,,,,,,,a,1,2.7004,"[""0.297"",""0.619"",""0.861"",""0.905""]","[1,0,1,1]",0,42,42,42,1,0,1,,,0,FALSE,,,,,,,,,,,,,,,,,,,,,,,,,,,,,,,
,613d17189f701e7a75b88d68,627c6fb6d7a94c73bd2000e5,2022-05-11_21h24.19.082,classification_task,2021.2.3,Win32,165.5903295,627c6715c52fd12f31907bd0,,,,,,,,,,,,,,,,,,,,,,,l,1,2.7009,"[""0.415"",""0.080"",""0.451"",""0.822""]","[0,1,1,1]",0,43,43,43,1,1,0,,,0,FALSE,,,,,,,,,,,,,,,,,,,,,,,,,,,,,,,
,613d17189f701e7a75b88d68,627c6fb6d7a94c73bd2000e5,2022-05-11_21h24.19.082,classification_task,2021.2.3,Win32,165.5903295,627c6715c52fd12f31907bd0,,,,,,,,,,,,,,,,,,,,,,,a,1,2.6467,"[""0.297"",""0.381"",""0.251"",""0.905""]","[1,1,0,1]",0,44,44,44,1,0,1,,,0,FALSE,,,,,,,,,,,,,,,,,,,,,,,,,,,,,,,
,613d17189f701e7a75b88d68,627c6fb6d7a94c73bd2000e5,2022-05-11_21h24.19.082,classification_task,2021.2.3,Win32,165.5903295,627c6715c52fd12f31907bd0,,,,,,,,,,,,,,,,,,,,,,,a,1,0.7138,"[""0.606"",""0.565"",""0.670"",""0.962""]","[0,1,1,1]",0,45,45,45,1,0,0,,,0,FALSE,,,,,,,,,,,,,,,,,,,,,,,,,,,,,,,
,613d17189f701e7a75b88d68,627c6fb6d7a94c73bd2000e5,2022-05-11_21h24.19.082,classification_task,2021.2.3,Win32,165.5903295,627c6715c52fd12f31907bd0,,,,,,,,,,,,,,,,,,,,,,,l,1,0.4365,"[""0.033"",""0.080"",""0.451"",""0.251""]","[1,1,1,0]",0,46,46,46,1,1,0,,,0,FALSE,,,,,,,,,,,,,,,,,,,,,,,,,,,,,,,
,613d17189f701e7a75b88d68,627c6fb6d7a94c73bd2000e5,2022-05-11_21h24.19.082,classification_task,2021.2.3,Win32,165.5903295,627c6715c52fd12f31907bd0,,,,,,,,,,,,,,,,,,,,,,,l,0,0.3218,"[""0.176"",""0.233"",""0.670"",""0.962""]","[1,0,1,1]",0,47,47,47,1,0,0,,,0,FALSE,,,,,,,,,,,,,,,,,,,,,,,,,,,,,,,
,613d17189f701e7a75b88d68,627c6fb6d7a94c73bd2000e5,2022-05-11_21h24.19.082,classification_task,2021.2.3,Win32,165.5903295,627c6715c52fd12f31907bd0,,,,,,,,,,,,,,,,,,,,,,,a,1,2.5911,"[""0.297"",""0.381"",""0.861"",""0.615""]","[1,1,1,0]",0,48,48,48,1,0,1,,,0,FALSE,,,,,,,,,,,,,,,,,,,,,,,,,,,,,,,
,613d17189f701e7a75b88d68,627c6fb6d7a94c73bd2000e5,2022-05-11_21h24.19.082,classification_task,2021.2.3,Win32,165.5903295,627c6715c52fd12f31907bd0,,,,,,,,,,,,,,,,,,,,,,,a,1,0.6904,"[""0.251"",""0.565"",""0.670"",""0.962""]","[0,1,1,1]",0,49,49,49,1,0,0,,,0,FALSE,,,,,,,,,,,,,,,,,,,,,,,,,,,,,,,
,613d17189f701e7a75b88d68,627c6fb6d7a94c73bd2000e5,2022-05-11_21h24.19.082,classification_task,2021.2.3,Win32,165.5903295,627c6715c52fd12f31907bd0,,,,,,,,,,,,,,,,,,,,,,,l,1,2.7973,"[""0.139"",""0.615"",""0.489"",""0.734""]","[1,0,1,1]",0,50,50,50,1,1,1,,,0,FALSE,,,,,,,,,,,,,,,,,,,,,,,,,,,,,,,
,613d17189f701e7a75b88d68,627c6fb6d7a94c73bd2000e5,2022-05-11_21h24.19.082,classification_task,2021.2.3,Win32,165.5903295,627c6715c52fd12f31907bd0,,,,,,,,,,,,,,,,,,,,,,,l,1,0.5937,"[""0.033"",""0.233"",""0.451"",""0.822""]","[1,0,1,1]",0,51,51,51,1,1,0,,,0,FALSE,,,,,,,,,,,,,,,,,,,,,,,,,,,,,,,
,613d17189f701e7a75b88d68,627c6fb6d7a94c73bd2000e5,2022-05-11_21h24.19.082,classification_task,2021.2.3,Win32,165.5903295,627c6715c52fd12f31907bd0,,,,,,,,,,,,,,,,,,,,,,,l,1,0.4202,"[""0.033"",""0.080"",""0.251"",""0.822""]","[1,1,0,1]",0,52,52,52,1,1,0,,,0,FALSE,,,,,,,,,,,,,,,,,,,,,,,,,,,,,,,
,613d17189f701e7a75b88d68,627c6fb6d7a94c73bd2000e5,2022-05-11_21h24.19.082,classification_task,2021.2.3,Win32,165.5903295,627c6715c52fd12f31907bd0,,,,,,,,,,,,,,,,,,,,,,,a,1,1.8724,"[""0.297"",""0.381"",""0.615"",""0.905""]","[1,1,0,1]",0,53,53,53,1,0,1,,,0,FALSE,,,,,,,,,,,,,,,,,,,,,,,,,,,,,,,
,613d17189f701e7a75b88d68,627c6fb6d7a94c73bd2000e5,2022-05-11_21h24.19.082,classification_task,2021.2.3,Win32,165.5903295,627c6715c52fd12f31907bd0,,,,,,,,,,,,,,,,,,,,,,,l,1,3.6671,"[""0.139"",""0.346"",""0.489"",""0.248""]","[1,1,1,0]",0,54,54,54,1,1,1,,,0,FALSE,,,,,,,,,,,,,,,,,,,,,,,,,,,,,,,
,613d17189f701e7a75b88d68,627c6fb6d7a94c73bd2000e5,2022-05-11_21h24.19.082,classification_task,2021.2.3,Win32,165.5903295,627c6715c52fd12f31907bd0,,,,,,,,,,,,,,,,,,,,,,,a,1,0.4953,"[""0.176"",""0.565"",""0.670"",""0.222""]","[1,1,1,0]",0,55,55,55,1,0,0,,,0,FALSE,,,,,,,,,,,,,,,,,,,,,,,,,,,,,,,
,613d17189f701e7a75b88d68,627c6fb6d7a94c73bd2000e5,2022-05-11_21h24.19.082,classification_task,2021.2.3,Win32,165.5903295,627c6715c52fd12f31907bd0,,,,,,,,,,,,,,,,,,,,,,,a,1,1.8601,"[""0.297"",""0.617"",""0.861"",""0.905""]","[1,0,1,1]",0,56,56,56,1,0,1,,,0,FALSE,,,,,,,,,,,,,,,,,,,,,,,,,,,,,,,
,613d17189f701e7a75b88d68,627c6fb6d7a94c73bd2000e5,2022-05-11_21h24.19.082,classification_task,2021.2.3,Win32,165.5903295,627c6715c52fd12f31907bd0,,,,,,,,,,,,,,,,,,,,,,,a,1,2.0911,"[""0.527"",""0.381"",""0.861"",""0.905""]","[0,1,1,1]",0,57,57,57,1,0,1,,,0,FALSE,,,,,,,,,,,,,,,,,,,,,,,,,,,,,,,
,613d17189f701e7a75b88d68,627c6fb6d7a94c73bd2000e5,2022-05-11_21h24.19.082,classification_task,2021.2.3,Win32,165.5903295,627c6715c52fd12f31907bd0,,,,,,,,,,,,,,,,,,,,,,,a,1,0.8348,"[""0.176"",""0.223"",""0.670"",""0.962""]","[1,0,1,1]",0,58,58,58,1,0,0,,,0,FALSE,,,,,,,,,,,,,,,,,,,,,,,,,,,,,,,
,613d17189f701e7a75b88d68,627c6fb6d7a94c73bd2000e5,2022-05-11_21h24.19.082,classification_task,2021.2.3,Win32,165.5903295,627c6715c52fd12f31907bd0,,,,,,,,,,,,,,,,,,,,,,,l,1,0.9916,"[""0.628"",""0.346"",""0.489"",""0.734""]","[0,1,1,1]",0,59,59,59,1,1,1,,,0,FALSE,,,,,,,,,,,,,,,,,,,,,,,,,,,,,,,
,613d17189f701e7a75b88d68,627c6fb6d7a94c73bd2000e5,2022-05-11_21h24.19.082,classification_task,2021.2.3,Win32,165.5903295,627c6715c52fd12f31907bd0,,,,,,,,,,,,,,,,,,,,,,,l,1,1.7395,"[""0.139"",""0.346"",""0.233"",""0.734""]","[1,1,0,1]",0,60,60,60,1,1,1,,,0,FALSE,,,,,,,,,,,,,,,,,,,,,,,,,,,,,,,
,613d17189f701e7a75b88d68,627c6fb6d7a94c73bd2000e5,2022-05-11_21h24.19.082,classification_task,2021.2.3,Win32,165.5903295,627c6715c52fd12f31907bd0,,,,,,,,,,,,,,,,,,,,,,,l,1,0.5554,"[""0.033"",""0.080"",""0.451"",""0.615""]","[1,1,1,0]",0,61,61,61,1,1,0,,,0,FALSE,,,,,,,,,,,,,,,,,,,,,,,,,,,,,,,
,613d17189f701e7a75b88d68,627c6fb6d7a94c73bd2000e5,2022-05-11_21h24.19.082,classification_task,2021.2.3,Win32,165.5903295,627c6715c52fd12f31907bd0,,,,,,,,,,,,,,,,,,,,,,,l,1,0.473,"[""0.617"",""0.080"",""0.451"",""0.822""]","[0,1,1,1]",0,62,62,62,1,1,0,,,0,FALSE,,,,,,,,,,,,,,,,,,,,,,,,,,,,,,,
,613d17189f701e7a75b88d68,627c6fb6d7a94c73bd2000e5,2022-05-11_21h24.19.082,classification_task,2021.2.3,Win32,165.5903295,627c6715c52fd12f31907bd0,,,,,,,,,,,,,,,,,,,,,,,a,1,0.8607,"[""0.176"",""0.565"",""0.606"",""0.962""]","[1,1,0,1]",0,63,63,63,1,0,0,,,0,FALSE,,,,,,,,,,,,,,,,,,,,,,,,,,,,,,,
,613d17189f701e7a75b88d68,627c6fb6d7a94c73bd2000e5,2022-05-11_21h24.19.082,classification_task,2021.2.3,Win32,165.5903295,627c6715c52fd12f31907bd0,,,,,,,,,,,,,,,,,,,,,,,,,,,,,,,,,,,,,,,0, ,,0,5.471537099,286.3979,0,1,1,1,1,2,2,,,,,,,,,,,,,,,,,,
,613d17189f701e7a75b88d68,627c6fb6d7a94c73bd2000e5,2022-05-11_21h24.19.082,classification_task,2021.2.3,Win32,165.5903295,627c6715c52fd12f31907bd0,,,,,,,,,,,,,,,,,,,,,,,,,,,,,,,,,,,,,,,1,  ,,0,10,274.1976,0,1,1,1,1,2,2,,,,,,,,,,,,,,,,,,
,613d17189f701e7a75b88d68,627c6fb6d7a94c73bd2000e5,2022-05-11_21h24.19.082,classification_task,2021.2.3,Win32,165.5903295,627c6715c52fd12f31907bd0,,,,,,,,,,,,,,,,,,,,,,,,,,,,,,,,,,,,,,,2,  ,,0,3.095482675,269.4317,0,1,1,1,1,2,2,,,,,,,,,,,,,,,,,,
,613d17189f701e7a75b88d68,627c6fb6d7a94c73bd2000e5,2022-05-11_21h24.19.082,classification_task,2021.2.3,Win32,165.5903295,627c6715c52fd12f31907bd0,,,,,,,,,,,,,,,,,,,,,,,,,,,,,,,,,,,,,,,,,,,,,0,1,1,1,1,,2,,,,,,,,,,,,,,,,,,
,613d17189f701e7a75b88d68,627c6fb6d7a94c73bd2000e5,2022-05-11_21h24.19.082,classification_task,2021.2.3,Win32,165.5903295,627c6715c52fd12f31907bd0,,,,,,,,,,,,,,,,,,,,,space,10.7793,a,1,2.5198,"[""0.176"",""0.565"",""0.602"",""0.962""]","[1,1,0,1]",0,0,0,0,1,0,0,,,0,FALSE,,,,,,,,,,,,,,,,,,,,,,,,,,,,,,,
,613d17189f701e7a75b88d68,627c6fb6d7a94c73bd2000e5,2022-05-11_21h24.19.082,classification_task,2021.2.3,Win32,165.5903295,627c6715c52fd12f31907bd0,,,,,,,,,,,,,,,,,,,,,,,l,1,1.934,"[""0.139"",""0.346"",""0.527"",""0.734""]","[1,1,0,1]",0,1,1,1,1,1,1,,,0,FALSE,,,,,,,,,,,,,,,,,,,,,,,,,,,,,,,
,613d17189f701e7a75b88d68,627c6fb6d7a94c73bd2000e5,2022-05-11_21h24.19.082,classification_task,2021.2.3,Win32,165.5903295,627c6715c52fd12f31907bd0,,,,,,,,,,,,,,,,,,,,,,,l,1,3.0975,"[""0.139"",""0.243"",""0.489"",""0.734""]","[1,0,1,1]",0,2,2,2,1,1,1,,,0,FALSE,,,,,,,,,,,,,,,,,,,,,,,,,,,,,,,
,613d17189f701e7a75b88d68,627c6fb6d7a94c73bd2000e5,2022-05-11_21h24.19.082,classification_task,2021.2.3,Win32,165.5903295,627c6715c52fd12f31907bd0,,,,,,,,,,,,,,,,,,,,,,,l,1,2.6798,"[""0.033"",""0.615"",""0.451"",""0.822""]","[1,0,1,1]",0,3,3,3,1,1,0,,,0,FALSE,,,,,,,,,,,,,,,,,,,,,,,,,,,,,,,
,613d17189f701e7a75b88d68,627c6fb6d7a94c73bd2000e5,2022-05-11_21h24.19.082,classification_task,2021.2.3,Win32,165.5903295,627c6715c52fd12f31907bd0,,,,,,,,,,,,,,,,,,,,,,,l,1,3.267,"[""0.033"",""0.080"",""0.628"",""0.822""]","[1,1,0,1]",0,4,4,4,1,1,0,,,0,FALSE,,,,,,,,,,,,,,,,,,,,,,,,,,,,,,,
,613d17189f701e7a75b88d68,627c6fb6d7a94c73bd2000e5,2022-05-11_21h24.19.082,classification_task,2021.2.3,Win32,165.5903295,627c6715c52fd12f31907bd0,,,,,,,,,,,,,,,,,,,,,,,l,1,2.7525,"[""0.033"",""0.080"",""0.451"",""0.619""]","[1,1,1,0]",0,5,5,5,1,1,0,,,0,FALSE,,,,,,,,,,,,,,,,,,,,,,,,,,,,,,,
,613d17189f701e7a75b88d68,627c6fb6d7a94c73bd2000e5,2022-05-11_21h24.19.082,classification_task,2021.2.3,Win32,165.5903295,627c6715c52fd12f31907bd0,,,,,,,,,,,,,,,,,,,,,,,a,1,1.2247,"[""0.176"",""0.565"",""0.670"",""0.223""]","[1,1,1,0]",0,6,6,6,1,0,0,,,0,FALSE,,,,,,,,,,,,,,,,,,,,,,,,,,,,,,,
,613d17189f701e7a75b88d68,627c6fb6d7a94c73bd2000e5,2022-05-11_21h24.19.082,classification_task,2021.2.3,Win32,165.5903295,627c6715c52fd12f31907bd0,,,,,,,,,,,,,,,,,,,,,,,l,1,2.479,"[""0.222"",""0.080"",""0.451"",""0.822""]","[0,1,1,1]",0,7,7,7,1,1,0,,,0,FALSE,,,,,,,,,,,,,,,,,,,,,,,,,,,,,,,
,613d17189f701e7a75b88d68,627c6fb6d7a94c73bd2000e5,2022-05-11_21h24.19.082,classification_task,2021.2.3,Win32,165.5903295,627c6715c52fd12f31907bd0,,,,,,,,,,,,,,,,,,,,,,,l,1,1.5694,"[""0.139"",""0.346"",""0.489"",""0.628""]","[1,1,1,0]",0,8,8,8,1,1,1,,,0,FALSE,,,,,,,,,,,,,,,,,,,,,,,,,,,,,,,
,613d17189f701e7a75b88d68,627c6fb6d7a94c73bd2000e5,2022-05-11_21h24.19.082,classification_task,2021.2.3,Win32,165.5903295,627c6715c52fd12f31907bd0,,,,,,,,,,,,,,,,,,,,,,,a,1,3.8737,"[""0.297"",""0.233"",""0.861"",""0.905""]","[1,0,1,1]",0,9,9,9,1,0,1,,,0,FALSE,,,,,,,,,,,,,,,,,,,,,,,,,,,,,,,
,613d17189f701e7a75b88d68,627c6fb6d7a94c73bd2000e5,2022-05-11_21h24.19.082,classification_task,2021.2.3,Win32,165.5903295,627c6715c52fd12f31907bd0,,,,,,,,,,,,,,,,,,,,,,,a,1,1.3523,"[""0.297"",""0.381"",""0.861"",""0.619""]","[1,1,1,0]",0,10,10,10,1,0,1,,,0,FALSE,,,,,,,,,,,,,,,,,,,,,,,,,,,,,,,
,613d17189f701e7a75b88d68,627c6fb6d7a94c73bd2000e5,2022-05-11_21h24.19.082,classification_task,2021.2.3,Win32,165.5903295,627c6715c52fd12f31907bd0,,,,,,,,,,,,,,,,,,,,,,,l,1,0.9093,"[""0.615"",""0.346"",""0.489"",""0.734""]","[0,1,1,1]",0,11,11,11,1,1,1,,,0,FALSE,,,,,,,,,,,,,,,,,,,,,,,,,,,,,,,
,613d17189f701e7a75b88d68,627c6fb6d7a94c73bd2000e5,2022-05-11_21h24.19.082,classification_task,2021.2.3,Win32,165.5903295,627c6715c52fd12f31907bd0,,,,,,,,,,,,,,,,,,,,,,,a,1,1.4731,"[""0.297"",""0.381"",""0.628"",""0.905""]","[1,1,0,1]",0,12,12,12,1,0,1,,,0,FALSE,,,,,,,,,,,,,,,,,,,,,,,,,,,,,,,
,613d17189f701e7a75b88d68,627c6fb6d7a94c73bd2000e5,2022-05-11_21h24.19.082,classification_task,2021.2.3,Win32,165.5903295,627c6715c52fd12f31907bd0,,,,,,,,,,,,,,,,,,,,,,,a,1,4.522,"[""0.223"",""0.381"",""0.861"",""0.905""]","[0,1,1,1]",0,13,13,13,1,0,1,,,0,FALSE,,,,,,,,,,,,,,,,,,,,,,,,,,,,,,,
,613d17189f701e7a75b88d68,627c6fb6d7a94c73bd2000e5,2022-05-11_21h24.19.082,classification_task,2021.2.3,Win32,165.5903295,627c6715c52fd12f31907bd0,,,,,,,,,,,,,,,,,,,,,,,a,1,4.4792,"[""0.619"",""0.565"",""0.670"",""0.962""]","[0,1,1,1]",0,14,14,14,1,0,0,,,0,FALSE,,,,,,,,,,,,,,,,,,,,,,,,,,,,,,,
,613d17189f701e7a75b88d68,627c6fb6d7a94c73bd2000e5,2022-05-11_21h24.19.082,classification_task,2021.2.3,Win32,165.5903295,627c6715c52fd12f31907bd0,,,,,,,,,,,,,,,,,,,,,,,a,1,1.6425,"[""0.176"",""0.248"",""0.670"",""0.962""]","[1,0,1,1]",0,15,15,15,1,0,0,,,0,FALSE,,,,,,,,,,,,,,,,,,,,,,,,,,,,,,,
,613d17189f701e7a75b88d68,627c6fb6d7a94c73bd2000e5,2022-05-11_21h24.19.082,classification_task,2021.2.3,Win32,165.5903295,627c6715c52fd12f31907bd0,,,,,,,,,,,,,,,,,,,,,,,a,1,6.1704,"[""0.297"",""0.417"",""0.861"",""0.905""]","[1,0,1,1]",0,16,16,16,1,0,1,,,0,FALSE,,,,,,,,,,,,,,,,,,,,,,,,,,,,,,,
,613d17189f701e7a75b88d68,627c6fb6d7a94c73bd2000e5,2022-05-11_21h24.19.082,classification_task,2021.2.3,Win32,165.5903295,627c6715c52fd12f31907bd0,,,,,,,,,,,,,,,,,,,,,,,l,1,1.1885,"[""0.243"",""0.080"",""0.451"",""0.822""]","[0,1,1,1]",0,17,17,17,1,1,0,,,0,FALSE,,,,,,,,,,,,,,,,,,,,,,,,,,,,,,,
,613d17189f701e7a75b88d68,627c6fb6d7a94c73bd2000e5,2022-05-11_21h24.19.082,classification_task,2021.2.3,Win32,165.5903295,627c6715c52fd12f31907bd0,,,,,,,,,,,,,,,,,,,,,,,l,1,1.1883,"[""0.139"",""0.346"",""0.489"",""0.619""]","[1,1,1,0]",0,18,18,18,1,1,1,,,0,FALSE,,,,,,,,,,,,,,,,,,,,,,,,,,,,,,,
,613d17189f701e7a75b88d68,627c6fb6d7a94c73bd2000e5,2022-05-11_21h24.19.082,classification_task,2021.2.3,Win32,165.5903295,627c6715c52fd12f31907bd0,,,,,,,,,,,,,,,,,,,,,,,a,0,1.2726,"[""0.033"",""0.222"",""0.451"",""0.822""]","[1,0,1,1]",0,19,19,19,1,1,0,,,0,FALSE,,,,,,,,,,,,,,,,,,,,,,,,,,,,,,,
,613d17189f701e7a75b88d68,627c6fb6d7a94c73bd2000e5,2022-05-11_21h24.19.082,classification_task,2021.2.3,Win32,165.5903295,627c6715c52fd12f31907bd0,,,,,,,,,,,,,,,,,,,,,,,a,1,4.1032,"[""0.176"",""0.251"",""0.670"",""0.962""]","[1,0,1,1]",0,20,20,20,1,0,0,,,0,FALSE,,,,,,,,,,,,,,,,,,,,,,,,,,,,,,,
,613d17189f701e7a75b88d68,627c6fb6d7a94c73bd2000e5,2022-05-11_21h24.19.082,classification_task,2021.2.3,Win32,165.5903295,627c6715c52fd12f31907bd0,,,,,,,,,,,,,,,,,,,,,,,a,1,4.3459,"[""0.243"",""0.565"",""0.670"",""0.962""]","[0,1,1,1]",0,21,21,21,1,0,0,,,0,FALSE,,,,,,,,,,,,,,,,,,,,,,,,,,,,,,,
,613d17189f701e7a75b88d68,627c6fb6d7a94c73bd2000e5,2022-05-11_21h24.19.082,classification_task,2021.2.3,Win32,165.5903295,627c6715c52fd12f31907bd0,,,,,,,,,,,,,,,,,,,,,,,a,1,1.3278,"[""0.297"",""0.381"",""0.223"",""0.905""]","[1,1,0,1]",0,22,22,22,1,0,1,,,0,FALSE,,,,,,,,,,,,,,,,,,,,,,,,,,,,,,,
,613d17189f701e7a75b88d68,627c6fb6d7a94c73bd2000e5,2022-05-11_21h24.19.082,classification_task,2021.2.3,Win32,165.5903295,627c6715c52fd12f31907bd0,,,,,,,,,,,,,,,,,,,,,,,a,1,1.8244,"[""0.176"",""0.565"",""0.670"",""0.619""]","[1,1,1,0]",0,23,23,23,1,0,0,,,0,FALSE,,,,,,,,,,,,,,,,,,,,,,,,,,,,,,,
,613d17189f701e7a75b88d68,627c6fb6d7a94c73bd2000e5,2022-05-11_21h24.19.082,classification_task,2021.2.3,Win32,165.5903295,627c6715c52fd12f31907bd0,,,,,,,,,,,,,,,,,,,,,,,a,1,2.1762,"[""0.297"",""0.381"",""0.861"",""0.248""]","[1,1,1,0]",0,24,24,24,1,0,1,,,0,FALSE,,,,,,,,,,,,,,,,,,,,,,,,,,,,,,,
,613d17189f701e7a75b88d68,627c6fb6d7a94c73bd2000e5,2022-05-11_21h24.19.082,classification_task,2021.2.3,Win32,165.5903295,627c6715c52fd12f31907bd0,,,,,,,,,,,,,,,,,,,,,,,l,1,1.0248,"[""0.608"",""0.346"",""0.489"",""0.734""]","[0,1,1,1]",0,25,25,25,1,1,1,,,0,FALSE,,,,,,,,,,,,,,,,,,,,,,,,,,,,,,,
,613d17189f701e7a75b88d68,627c6fb6d7a94c73bd2000e5,2022-05-11_21h24.19.082,classification_task,2021.2.3,Win32,165.5903295,627c6715c52fd12f31907bd0,,,,,,,,,,,,,,,,,,,,,,,l,1,6.4071,"[""0.139"",""0.346"",""0.233"",""0.734""]","[1,1,0,1]",0,26,26,26,1,1,1,,,0,FALSE,,,,,,,,,,,,,,,,,,,,,,,,,,,,,,,
,613d17189f701e7a75b88d68,627c6fb6d7a94c73bd2000e5,2022-05-11_21h24.19.082,classification_task,2021.2.3,Win32,165.5903295,627c6715c52fd12f31907bd0,,,,,,,,,,,,,,,,,,,,,,,a,1,0.9702,"[""0.619"",""0.381"",""0.861"",""0.905""]","[0,1,1,1]",0,27,27,27,1,0,1,,,0,FALSE,,,,,,,,,,,,,,,,,,,,,,,,,,,,,,,
,613d17189f701e7a75b88d68,627c6fb6d7a94c73bd2000e5,2022-05-11_21h24.19.082,classification_task,2021.2.3,Win32,165.5903295,627c6715c52fd12f31907bd0,,,,,,,,,,,,,,,,,,,,,,,a,1,2.6484,"[""0.176"",""0.565"",""0.615"",""0.962""]","[1,1,0,1]",0,28,28,28,1,0,0,,,0,FALSE,,,,,,,,,,,,,,,,,,,,,,,,,,,,,,,
,613d17189f701e7a75b88d68,627c6fb6d7a94c73bd2000e5,2022-05-11_21h24.19.082,classification_task,2021.2.3,Win32,165.5903295,627c6715c52fd12f31907bd0,,,,,,,,,,,,,,,,,,,,,,,a,0,5.0793,"[""0.139"",""0.617"",""0.489"",""0.734""]","[1,0,1,1]",0,29,29,29,1,1,1,,,0,FALSE,,,,,,,,,,,,,,,,,,,,,,,,,,,,,,,
,613d17189f701e7a75b88d68,627c6fb6d7a94c73bd2000e5,2022-05-11_21h24.19.082,classification_task,2021.2.3,Win32,165.5903295,627c6715c52fd12f31907bd0,,,,,,,,,,,,,,,,,,,,,,,l,1,3.6185,"[""0.033"",""0.080"",""0.527"",""0.822""]","[1,1,0,1]",0,30,30,30,1,1,0,,,0,FALSE,,,,,,,,,,,,,,,,,,,,,,,,,,,,,,,
,613d17189f701e7a75b88d68,627c6fb6d7a94c73bd2000e5,2022-05-11_21h24.19.082,classification_task,2021.2.3,Win32,165.5903295,627c6715c52fd12f31907bd0,,,,,,,,,,,,,,,,,,,,,,,l,1,1.3091,"[""0.033"",""0.080"",""0.451"",""0.415""]","[1,1,1,0]",0,31,31,31,1,1,0,,,0,FALSE,,,,,,,,,,,,,,,,,,,,,,,,,,,,,,,
,613d17189f701e7a75b88d68,627c6fb6d7a94c73bd2000e5,2022-05-11_21h24.19.082,classification_task,2021.2.3,Win32,165.5903295,627c6715c52fd12f31907bd0,,,,,,,,,,,,,,,,,,,,,,,l,1,0.9098,"[""0.033"",""0.080"",""0.451"",""0.248""]","[1,1,1,0]",0,32,32,32,1,1,0,,,0,FALSE,,,,,,,,,,,,,,,,,,,,,,,,,,,,,,,
,613d17189f701e7a75b88d68,627c6fb6d7a94c73bd2000e5,2022-05-11_21h24.19.082,classification_task,2021.2.3,Win32,165.5903295,627c6715c52fd12f31907bd0,,,,,,,,,,,,,,,,,,,,,,,a,1,1.1273,"[""0.297"",""0.248"",""0.861"",""0.905""]","[1,0,1,1]",0,33,33,33,1,0,1,,,0,FALSE,,,,,,,,,,,,,,,,,,,,,,,,,,,,,,,
,613d17189f701e7a75b88d68,627c6fb6d7a94c73bd2000e5,2022-05-11_21h24.19.082,classification_task,2021.2.3,Win32,165.5903295,627c6715c52fd12f31907bd0,,,,,,,,,,,,,,,,,,,,,,,l,1,0.6121,"[""0.139"",""0.346"",""0.489"",""0.617""]","[1,1,1,0]",0,34,34,34,1,1,1,,,0,FALSE,,,,,,,,,,,,,,,,,,,,,,,,,,,,,,,
,613d17189f701e7a75b88d68,627c6fb6d7a94c73bd2000e5,2022-05-11_21h24.19.082,classification_task,2021.2.3,Win32,165.5903295,627c6715c52fd12f31907bd0,,,,,,,,,,,,,,,,,,,,,,,l,1,1.4548,"[""0.033"",""0.251"",""0.451"",""0.822""]","[1,0,1,1]",0,35,35,35,1,1,0,,,0,FALSE,,,,,,,,,,,,,,,,,,,,,,,,,,,,,,,
,613d17189f701e7a75b88d68,627c6fb6d7a94c73bd2000e5,2022-05-11_21h24.19.082,classification_task,2021.2.3,Win32,165.5903295,627c6715c52fd12f31907bd0,,,,,,,,,,,,,,,,,,,,,,,l,1,0.5334,"[""0.033"",""0.080"",""0.223"",""0.822""]","[1,1,0,1]",0,36,36,36,1,1,0,,,0,FALSE,,,,,,,,,,,,,,,,,,,,,,,,,,,,,,,
,613d17189f701e7a75b88d68,627c6fb6d7a94c73bd2000e5,2022-05-11_21h24.19.082,classification_task,2021.2.3,Win32,165.5903295,627c6715c52fd12f31907bd0,,,,,,,,,,,,,,,,,,,,,,,l,1,1.055,"[""0.415"",""0.080"",""0.451"",""0.822""]","[0,1,1,1]",0,37,37,37,1,1,0,,,0,FALSE,,,,,,,,,,,,,,,,,,,,,,,,,,,,,,,
,613d17189f701e7a75b88d68,627c6fb6d7a94c73bd2000e5,2022-05-11_21h24.19.082,classification_task,2021.2.3,Win32,165.5903295,627c6715c52fd12f31907bd0,,,,,,,,,,,,,,,,,,,,,,,l,1,3.0854,"[""0.139"",""0.223"",""0.489"",""0.734""]","[1,0,1,1]",0,38,38,38,1,1,1,,,0,FALSE,,,,,,,,,,,,,,,,,,,,,,,,,,,,,,,
,613d17189f701e7a75b88d68,627c6fb6d7a94c73bd2000e5,2022-05-11_21h24.19.082,classification_task,2021.2.3,Win32,165.5903295,627c6715c52fd12f31907bd0,,,,,,,,,,,,,,,,,,,,,,,l,1,1.2552,"[""0.615"",""0.346"",""0.489"",""0.734""]","[0,1,1,1]",0,39,39,39,1,1,1,,,0,FALSE,,,,,,,,,,,,,,,,,,,,,,,,,,,,,,,
,613d17189f701e7a75b88d68,627c6fb6d7a94c73bd2000e5,2022-05-11_21h24.19.082,classification_task,2021.2.3,Win32,165.5903295,627c6715c52fd12f31907bd0,,,,,,,,,,,,,,,,,,,,,,,a,1,1.0971,"[""0.176"",""0.565"",""0.670"",""0.233""]","[1,1,1,0]",0,40,40,40,1,0,0,,,0,FALSE,,,,,,,,,,,,,,,,,,,,,,,,,,,,,,,
,613d17189f701e7a75b88d68,627c6fb6d7a94c73bd2000e5,2022-05-11_21h24.19.082,classification_task,2021.2.3,Win32,165.5903295,627c6715c52fd12f31907bd0,,,,,,,,,,,,,,,,,,,,,,,l,1,1.6125,"[""0.139"",""0.346"",""0.527"",""0.734""]","[1,1,0,1]",0,41,41,41,1,1,1,,,0,FALSE,,,,,,,,,,,,,,,,,,,,,,,,,,,,,,,
,613d17189f701e7a75b88d68,627c6fb6d7a94c73bd2000e5,2022-05-11_21h24.19.082,classification_task,2021.2.3,Win32,165.5903295,627c6715c52fd12f31907bd0,,,,,,,,,,,,,,,,,,,,,,,a,1,2.3274,"[""0.297"",""0.381"",""0.615"",""0.905""]","[1,1,0,1]",0,42,42,42,1,0,1,,,0,FALSE,,,,,,,,,,,,,,,,,,,,,,,,,,,,,,,
,613d17189f701e7a75b88d68,627c6fb6d7a94c73bd2000e5,2022-05-11_21h24.19.082,classification_task,2021.2.3,Win32,165.5903295,627c6715c52fd12f31907bd0,,,,,,,,,,,,,,,,,,,,,,,a,1,5.1823,"[""0.176"",""0.527"",""0.670"",""0.962""]","[1,0,1,1]",0,43,43,43,1,0,0,,,0,FALSE,,,,,,,,,,,,,,,,,,,,,,,,,,,,,,,
,613d17189f701e7a75b88d68,627c6fb6d7a94c73bd2000e5,2022-05-11_21h24.19.082,classification_task,2021.2.3,Win32,165.5903295,627c6715c52fd12f31907bd0,,,,,,,,,,,,,,,,,,,,,,,a,1,3.7878,"[""0.417"",""0.565"",""0.670"",""0.962""]","[0,1,1,1]",0,44,44,44,1,0,0,,,0,FALSE,,,,,,,,,,,,,,,,,,,,,,,,,,,,,,,
,613d17189f701e7a75b88d68,627c6fb6d7a94c73bd2000e5,2022-05-11_21h24.19.082,classification_task,2021.2.3,Win32,165.5903295,627c6715c52fd12f31907bd0,,,,,,,,,,,,,,,,,,,,,,,a,1,4.4308,"[""0.297"",""0.381"",""0.861"",""0.248""]","[1,1,1,0]",0,45,45,45,1,0,1,,,0,FALSE,,,,,,,,,,,,,,,,,,,,,,,,,,,,,,,
,613d17189f701e7a75b88d68,627c6fb6d7a94c73bd2000e5,2022-05-11_21h24.19.082,classification_task,2021.2.3,Win32,165.5903295,627c6715c52fd12f31907bd0,,,,,,,,,,,,,,,,,,,,,,,a,1,2.2917,"[""0.176"",""0.565"",""0.615"",""0.962""]","[1,1,0,1]",0,46,46,46,1,0,0,,,0,FALSE,,,,,,,,,,,,,,,,,,,,,,,,,,,,,,,
,613d17189f701e7a75b88d68,627c6fb6d7a94c73bd2000e5,2022-05-11_21h24.19.082,classification_task,2021.2.3,Win32,165.5903295,627c6715c52fd12f31907bd0,,,,,,,,,,,,,,,,,,,,,,,a,1,1.2187,"[""0.233"",""0.381"",""0.861"",""0.905""]","[0,1,1,1]",0,47,47,47,1,0,1,,,0,FALSE,,,,,,,,,,,,,,,,,,,,,,,,,,,,,,,
,613d17189f701e7a75b88d68,627c6fb6d7a94c73bd2000e5,2022-05-11_21h24.19.082,classification_task,2021.2.3,Win32,165.5903295,627c6715c52fd12f31907bd0,,,,,,,,,,,,,,,,,,,,,,,l,1,0.8851,"[""0.615"",""0.080"",""0.451"",""0.822""]","[0,1,1,1]",0,48,48,48,1,1,0,,,0,FALSE,,,,,,,,,,,,,,,,,,,,,,,,,,,,,,,
,613d17189f701e7a75b88d68,627c6fb6d7a94c73bd2000e5,2022-05-11_21h24.19.082,classification_task,2021.2.3,Win32,165.5903295,627c6715c52fd12f31907bd0,,,,,,,,,,,,,,,,,,,,,,,l,1,2.7695,"[""0.139"",""0.346"",""0.251"",""0.734""]","[1,1,0,1]",0,49,49,49,1,1,1,,,0,FALSE,,,,,,,,,,,,,,,,,,,,,,,,,,,,,,,
,613d17189f701e7a75b88d68,627c6fb6d7a94c73bd2000e5,2022-05-11_21h24.19.082,classification_task,2021.2.3,Win32,165.5903295,627c6715c52fd12f31907bd0,,,,,,,,,,,,,,,,,,,,,,,a,1,1.4188,"[""0.297"",""0.243"",""0.861"",""0.905""]","[1,0,1,1]",0,50,50,50,1,0,1,,,0,FALSE,,,,,,,,,,,,,,,,,,,,,,,,,,,,,,,
,613d17189f701e7a75b88d68,627c6fb6d7a94c73bd2000e5,2022-05-11_21h24.19.082,classification_task,2021.2.3,Win32,165.5903295,627c6715c52fd12f31907bd0,,,,,,,,,,,,,,,,,,,,,,,a,1,1.328,"[""0.297"",""0.381"",""0.415"",""0.905""]","[1,1,0,1]",0,51,51,51,1,0,1,,,0,FALSE,,,,,,,,,,,,,,,,,,,,,,,,,,,,,,,
,613d17189f701e7a75b88d68,627c6fb6d7a94c73bd2000e5,2022-05-11_21h24.19.082,classification_task,2021.2.3,Win32,165.5903295,627c6715c52fd12f31907bd0,,,,,,,,,,,,,,,,,,,,,,,l,1,4.7215,"[""0.139"",""0.248"",""0.489"",""0.734""]","[1,0,1,1]",0,52,52,52,1,1,1,,,0,FALSE,,,,,,,,,,,,,,,,,,,,,,,,,,,,,,,
,613d17189f701e7a75b88d68,627c6fb6d7a94c73bd2000e5,2022-05-11_21h24.19.082,classification_task,2021.2.3,Win32,165.5903295,627c6715c52fd12f31907bd0,,,,,,,,,,,,,,,,,,,,,,,l,1,2.0554,"[""0.139"",""0.346"",""0.489"",""0.619""]","[1,1,1,0]",0,53,53,53,1,1,1,,,0,FALSE,,,,,,,,,,,,,,,,,,,,,,,,,,,,,,,
,613d17189f701e7a75b88d68,627c6fb6d7a94c73bd2000e5,2022-05-11_21h24.19.082,classification_task,2021.2.3,Win32,165.5903295,627c6715c52fd12f31907bd0,,,,,,,,,,,,,,,,,,,,,,,l,1,0.8124,"[""0.628"",""0.346"",""0.489"",""0.734""]","[0,1,1,1]",0,54,54,54,1,1,1,,,0,FALSE,,,,,,,,,,,,,,,,,,,,,,,,,,,,,,,
,613d17189f701e7a75b88d68,627c6fb6d7a94c73bd2000e5,2022-05-11_21h24.19.082,classification_task,2021.2.3,Win32,165.5903295,627c6715c52fd12f31907bd0,,,,,,,,,,,,,,,,,,,,,,,l,1,1.0061,"[""0.033"",""0.080"",""0.451"",""0.248""]","[1,1,1,0]",0,55,55,55,1,1,0,,,0,FALSE,,,,,,,,,,,,,,,,,,,,,,,,,,,,,,,
,613d17189f701e7a75b88d68,627c6fb6d7a94c73bd2000e5,2022-05-11_21h24.19.082,classification_task,2021.2.3,Win32,165.5903295,627c6715c52fd12f31907bd0,,,,,,,,,,,,,,,,,,,,,,,a,1,1.794,"[""0.176"",""0.565"",""0.670"",""0.608""]","[1,1,1,0]",0,56,56,56,1,0,0,,,0,FALSE,,,,,,,,,,,,,,,,,,,,,,,,,,,,,,,
,613d17189f701e7a75b88d68,627c6fb6d7a94c73bd2000e5,2022-05-11_21h24.19.082,classification_task,2021.2.3,Win32,165.5903295,627c6715c52fd12f31907bd0,,,,,,,,,,,,,,,,,,,,,,,l,1,2.2188,"[""0.033"",""0.080"",""0.415"",""0.822""]","[1,1,0,1]",0,57,57,57,1,1,0,,,0,FALSE,,,,,,,,,,,,,,,,,,,,,,,,,,,,,,,
,613d17189f701e7a75b88d68,627c6fb6d7a94c73bd2000e5,2022-05-11_21h24.19.082,classification_task,2021.2.3,Win32,165.5903295,627c6715c52fd12f31907bd0,,,,,,,,,,,,,,,,,,,,,,,a,1,2.3877,"[""0.527"",""0.565"",""0.670"",""0.962""]","[0,1,1,1]",0,58,58,58,1,0,0,,,0,FALSE,,,,,,,,,,,,,,,,,,,,,,,,,,,,,,,
,613d17189f701e7a75b88d68,627c6fb6d7a94c73bd2000e5,2022-05-11_21h24.19.082,classification_task,2021.2.3,Win32,165.5903295,627c6715c52fd12f31907bd0,,,,,,,,,,,,,,,,,,,,,,,a,1,4.5701,"[""0.297"",""0.381"",""0.861"",""0.628""]","[1,1,1,0]",0,59,59,59,1,0,1,,,0,FALSE,,,,,,,,,,,,,,,,,,,,,,,,,,,,,,,
,613d17189f701e7a75b88d68,627c6fb6d7a94c73bd2000e5,2022-05-11_21h24.19.082,classification_task,2021.2.3,Win32,165.5903295,627c6715c52fd12f31907bd0,,,,,,,,,,,,,,,,,,,,,,,a,1,3.9157,"[""0.176"",""0.565"",""0.223"",""0.962""]","[1,1,0,1]",0,60,60,60,1,0,0,,,0,FALSE,,,,,,,,,,,,,,,,,,,,,,,,,,,,,,,
,613d17189f701e7a75b88d68,627c6fb6d7a94c73bd2000e5,2022-05-11_21h24.19.082,classification_task,2021.2.3,Win32,165.5903295,627c6715c52fd12f31907bd0,,,,,,,,,,,,,,,,,,,,,,,a,1,1.2728,"[""0.617"",""0.381"",""0.861"",""0.905""]","[0,1,1,1]",0,61,61,61,1,0,1,,,0,FALSE,,,,,,,,,,,,,,,,,,,,,,,,,,,,,,,
,613d17189f701e7a75b88d68,627c6fb6d7a94c73bd2000e5,2022-05-11_21h24.19.082,classification_task,2021.2.3,Win32,165.5903295,627c6715c52fd12f31907bd0,,,,,,,,,,,,,,,,,,,,,,,l,1,0.94,"[""0.033"",""0.619"",""0.451"",""0.822""]","[1,0,1,1]",0,62,62,62,1,1,0,,,0,FALSE,,,,,,,,,,,,,,,,,,,,,,,,,,,,,,,
,613d17189f701e7a75b88d68,627c6fb6d7a94c73bd2000e5,2022-05-11_21h24.19.082,classification_task,2021.2.3,Win32,165.5903295,627c6715c52fd12f31907bd0,,,,,,,,,,,,,,,,,,,,,,,a,1,1.0914,"[""0.176"",""0.233"",""0.670"",""0.962""]","[1,0,1,1]",0,63,63,63,1,0,0,,,0,FALSE,,,,,,,,,,,,,,,,,,,,,,,,,,,,,,,
,613d17189f701e7a75b88d68,627c6fb6d7a94c73bd2000e5,2022-05-11_21h24.19.082,classification_task,2021.2.3,Win32,165.5903295,627c6715c52fd12f31907bd0,,,,,,,,,,,,,,,,,,,,,,,,,,,,,,,,,,,,,,,0, ,,0,6.328875919,231.9547,0,2,2,2,1,2,3,,,,,,,,,,,,,,,,,,
,613d17189f701e7a75b88d68,627c6fb6d7a94c73bd2000e5,2022-05-11_21h24.19.082,classification_task,2021.2.3,Win32,165.5903295,627c6715c52fd12f31907bd0,,,,,,,,,,,,,,,,,,,,,,,,,,,,,,,,,,,,,,,1,  ,,0,10,234.0337,0,2,2,2,1,2,3,,,,,,,,,,,,,,,,,,
,613d17189f701e7a75b88d68,627c6fb6d7a94c73bd2000e5,2022-05-11_21h24.19.082,classification_task,2021.2.3,Win32,165.5903295,627c6715c52fd12f31907bd0,,,,,,,,,,,,,,,,,,,,,,,,,,,,,,,,,,,,,,,2,  ,,0,3.928326475,236.9793,0,2,2,2,1,2,3,,,,,,,,,,,,,,,,,,
,613d17189f701e7a75b88d68,627c6fb6d7a94c73bd2000e5,2022-05-11_21h24.19.082,classification_task,2021.2.3,Win32,165.5903295,627c6715c52fd12f31907bd0,,,,,,,,,,,,,,,,,,,,,,,,,,,,,,,,,,,,,,,,,,,,,0,2,2,2,1,,3,,,,,,,,,,,,,,,,,,
,613d17189f701e7a75b88d68,627c6fb6d7a94c73bd2000e5,2022-05-11_21h24.19.082,classification_task,2021.2.3,Win32,165.5903295,627c6715c52fd12f31907bd0,,,,,,,,,,,,,,,,,,,,,,,,,,,,,,,,,,,,,,,,,,,,,,,,,,,,,I believe the aid is a competent performer,,0.7,0,5,1205.5047,0,0,0,0,1,0,,,,,
,613d17189f701e7a75b88d68,627c6fb6d7a94c73bd2000e5,2022-05-11_21h24.19.082,classification_task,2021.2.3,Win32,165.5903295,627c6715c52fd12f31907bd0,,,,,,,,,,,,,,,,,,,,,,,,,,,,,,,,,,,,,,,,,,,,,,,,,,,,,I trust the aid,,0.7,0,4,1226.3807,0,0,0,0,1,0,,,,,
,613d17189f701e7a75b88d68,627c6fb6d7a94c73bd2000e5,2022-05-11_21h24.19.082,classification_task,2021.2.3,Win32,165.5903295,627c6715c52fd12f31907bd0,,,,,,,,,,,,,,,,,,,,,,,,,,,,,,,,,,,,,,,,,,,,,,,,,,,,,I have confidence in the advice given by the aid,,0.7,0,5,1212.75,0,0,0,0,1,0,,,,,
,613d17189f701e7a75b88d68,627c6fb6d7a94c73bd2000e5,2022-05-11_21h24.19.082,classification_task,2021.2.3,Win32,165.5903295,627c6715c52fd12f31907bd0,,,,,,,,,,,,,,,,,,,,,,,,,,,,,,,,,,,,,,,,,,,,,,,,,,,,,I can depend on the aid,,0.7,0,4,1215.2274,0,0,0,0,1,0,,,,,
,613d17189f701e7a75b88d68,627c6fb6d7a94c73bd2000e5,2022-05-11_21h24.19.082,classification_task,2021.2.3,Win32,165.5903295,627c6715c52fd12f31907bd0,,,,,,,,,,,,,,,,,,,,,,,,,,,,,,,,,,,,,,,,,,,,,,,,,,,,,I can rely on the aid to behave in consistent ways,,0.7,0,4,1220.6195,0,0,0,0,1,0,,,,,
,613d17189f701e7a75b88d68,627c6fb6d7a94c73bd2000e5,2022-05-11_21h24.19.082,classification_task,2021.2.3,Win32,165.5903295,627c6715c52fd12f31907bd0,,,,,,,,,,,,,,,,,,,,,,,,,,,,,,,,,,,,,,,,,,,,,,,,,,,,,I can rely on the aid to do its best every time I take its advice,,0.7,0,4,1224.2438,0,0,0,0,1,0,,,,,
,613d17189f701e7a75b88d68,627c6fb6d7a94c73bd2000e5,2022-05-11_21h24.19.082,classification_task,2021.2.3,Win32,165.5903295,627c6715c52fd12f31907bd0,,,,,,,,,,,,,,,,,,,,,,,,,,,,,,,,,,,,,,,,,,,,,,,,,,,,,"On trials you completed with assistance from the aid, how frequently did you think the aid was correct?",,0.7,0,90%,,0,0,0,0,1,0,,,,,
,613d17189f701e7a75b88d68,627c6fb6d7a94c73bd2000e5,2022-05-11_21h24.19.082,classification_task,2021.2.3,Win32,165.5903295,627c6715c52fd12f31907bd0,,,,,,,,,,,,,,,,,,,,,,,,,,,,,,,,,,,,,,,,,,,,,,,,,,,,,"On trials you completed without the aid, how frequently did you think you were correct?",,0.7,0,70%,,0,0,0,0,1,0,,,,,
,613d17189f701e7a75b88d68,627c6fb6d7a94c73bd2000e5,2022-05-11_21h24.19.082,classification_task,2021.2.3,Win32,165.5903295,627c6715c52fd12f31907bd0,,,,,,,,,,,,,,,,,,,,,,,,,,,,,,,,,,,,,,,,,,,,,,,,,,,,,,,,,,,0,0,0,0,1,,,,,,
,613d17189f701e7a75b88d68,627c6fb6d7a94c73bd2000e5,2022-05-11_21h24.19.082,classification_task,2021.2.3,Win32,165.5903295,627c6715c52fd12f31907bd0,,,,,,,,,,,,,,,,,,,,,,,,,,,,,,,,,,,,,,,,,,,,,,,,,,,,,,,,,,,,,,,,,space,15.7396,1262.881,,
,613d17189f701e7a75b88d68,627c6fb6d7a94c73bd2000e5,2022-05-11_21h24.19.082,classification_task,2021.2.3,Win32,165.5903295,627c6715c52fd12f31907bd0,,,,,,,,,,,,,,,,,,,,,,,,,,,,,,,,,,,,,,,,,,,,,,,,,,,,,,,,,,,,,,,,,,,,"Mozilla/5.0 (Windows NT 10.0; Win64; x64) AppleWebKit/537.36 (KHTML, like Gecko) Chrome/101.0.4951.54 Safari/537.36",
,613d17189f701e7a75b88d68,627c6fb6d7a94c73bd2000e5,2022-05-11_21h24.19.082,classification_task,2021.2.3,Win32,165.5903295,627c6715c52fd12f31907bd0,,,,,,,,,,,,,,,,,,,,,,,,,,,,,,,,,,,,,,,,,,,,,,,,,,,,,,,,,,,,,,,,,,,,,HIGHLIGHT
