usingWebGL,participant,session,date,expName,psychopyVersion,OS,frameRate,study_id,signatures_friend,signatures_foe,band_ranges_top,band_ranges_bottom,formitemText,formtype,formundefined,formitemWidth,formindex,formresponse,formrt,key_resp_2.keys,key_resp_2.rt,tute_resp.keys,tute_resp.rt,tutorial.thisRepN,tutorial.thisTrialN,tutorial.thisN,tutorial.thisIndex,tutorial.ran,key_resp_4.keys,key_resp_4.rt,key_resp.keys,key_resp.corr,key_resp.rt,lines_presented,is_signal_presented,trials.thisRepN,trials.thisTrialN,trials.thisN,trials.thisIndex,trials.ran,vessel,active_band,lines,is_signal,supported_pos,catch_trial,debrief_formindex,debrief_formitemText,debrief_formtype,debrief_formitemWidth,debrief_formresponse,debrief_formrt,phases.thisRepN,phases.thisTrialN,phases.thisN,phases.thisIndex,phases.ran,phases.order,phase,key_resp_3.keys,trustitemText,trusttype,trustitemWidth,trustindex,trustresponse,trustrt,support_status.thisRepN,support_status.thisTrialN,support_status.thisN,support_status.thisIndex,support_status.ran,support_status.order,key_resp_5.keys,key_resp_5.rt,globalClockTime,userAgent,manualCondition
TRUE,613d7f06231b0dca788663fd,627c6faa1fed89d5bf0f58c0,2022-05-11_21h26.24.521,classification_task,2021.2.3,Win32,59.91252771,627c6715c52fd12f31907bcf,,,,,,,,,,,,,,,,,,,,,,,,,,,,,,,,,,,,,,,,,,,,,,,,,,,,,,,,,,,,,,,,,,,,,
,613d7f06231b0dca788663fd,627c6faa1fed89d5bf0f58c0,2022-05-11_21h26.24.521,classification_task,2021.2.3,Win32,59.91252771,627c6715c52fd12f31907bcf,"[[""0.241"",""0.415"",""0.883"",""0.973""],[""0.186"",""0.454"",""0.623"",""0.928""]]","[[""0.039"",""0.095"",""0.565"",""0.841""],[""0.129"",""0.307"",""0.670"",""0.776""]]","[1,10]","[100,1000]",Video game experience,,,0.7,0,,,,,,,,,,,,,,,,,,,,,,,,,,,,,,,,,,,,,,,,,,,,,,,,,,,,,,,,,,,,
,613d7f06231b0dca788663fd,627c6faa1fed89d5bf0f58c0,2022-05-11_21h26.24.521,classification_task,2021.2.3,Win32,59.91252771,627c6715c52fd12f31907bcf,,,,,Approximately how many hours did you spend playing video games in the last week?,,,0.7,0,28,,,,,,,,,,,,,,,,,,,,,,,,,,,,,,,,,,,,,,,,,,,,,,,,,,,,,,,,,,,
,613d7f06231b0dca788663fd,627c6faa1fed89d5bf0f58c0,2022-05-11_21h26.24.521,classification_task,2021.2.3,Win32,59.91252771,627c6715c52fd12f31907bcf,,,,,"Which game did you play the most this year? (Enter ""None"" if you didn't play any)",,,0.7,0,Call of Duty,,,,,,,,,,,,,,,,,,,,,,,,,,,,,,,,,,,,,,,,,,,,,,,,,,,,,,,,,,,
,613d7f06231b0dca788663fd,627c6faa1fed89d5bf0f58c0,2022-05-11_21h26.24.521,classification_task,2021.2.3,Win32,59.91252771,627c6715c52fd12f31907bcf,,,,,Visual perception,,,0.7,0,,,,,,,,,,,,,,,,,,,,,,,,,,,,,,,,,,,,,,,,,,,,,,,,,,,,,,,,,,,,
,613d7f06231b0dca788663fd,627c6faa1fed89d5bf0f58c0,2022-05-11_21h26.24.521,classification_task,2021.2.3,Win32,59.91252771,627c6715c52fd12f31907bcf,,,,,Do you have any form of color blindness?,,,0.7,0,No,33.2184,,,,,,,,,,,,,,,,,,,,,,,,,,,,,,,,,,,,,,,,,,,,,,,,,,,,,,,,,,
,613d7f06231b0dca788663fd,627c6faa1fed89d5bf0f58c0,2022-05-11_21h26.24.521,classification_task,2021.2.3,Win32,59.91252771,627c6715c52fd12f31907bcf,,,,,Do you use software to change the colour temperature of your screen (e.g. f.lux)?,,,0.7,0,No,34.8473,,,,,,,,,,,,,,,,,,,,,,,,,,,,,,,,,,,,,,,,,,,,,,,,,,,,,,,,,,
,613d7f06231b0dca788663fd,627c6faa1fed89d5bf0f58c0,2022-05-11_21h26.24.521,classification_task,2021.2.3,Win32,59.91252771,627c6715c52fd12f31907bcf,,,,,,,,,,,,space,31.0609,space,7.0067,0,0,0,0,1,,,,,,,,,,,,,,,,,,,,,,,,,,,,,,,,,,,,,,,,,,,,,,,,,
,613d7f06231b0dca788663fd,627c6faa1fed89d5bf0f58c0,2022-05-11_21h26.24.521,classification_task,2021.2.3,Win32,59.91252771,627c6715c52fd12f31907bcf,,,,,,,,,,,,,,space,5.859,1,0,1,0,1,,,,,,,,,,,,,,,,,,,,,,,,,,,,,,,,,,,,,,,,,,,,,,,,,
,613d7f06231b0dca788663fd,627c6faa1fed89d5bf0f58c0,2022-05-11_21h26.24.521,classification_task,2021.2.3,Win32,59.91252771,627c6715c52fd12f31907bcf,,,,,,,,,,,,,,space,14.0009,2,0,2,0,1,,,,,,,,,,,,,,,,,,,,,,,,,,,,,,,,,,,,,,,,,,,,,,,,,
,613d7f06231b0dca788663fd,627c6faa1fed89d5bf0f58c0,2022-05-11_21h26.24.521,classification_task,2021.2.3,Win32,59.91252771,627c6715c52fd12f31907bcf,,,,,,,,,,,,,,space,9.9861,3,0,3,0,1,,,,,,,,,,,,,,,,,,,,,,,,,,,,,,,,,,,,,,,,,,,,,,,,,
,613d7f06231b0dca788663fd,627c6faa1fed89d5bf0f58c0,2022-05-11_21h26.24.521,classification_task,2021.2.3,Win32,59.91252771,627c6715c52fd12f31907bcf,,,,,,,,,,,,,,space,11.4535,4,0,4,0,1,,,,,,,,,,,,,,,,,,,,,,,,,,,,,,,,,,,,,,,,,,,,,,,,,
,613d7f06231b0dca788663fd,627c6faa1fed89d5bf0f58c0,2022-05-11_21h26.24.521,classification_task,2021.2.3,Win32,59.91252771,627c6715c52fd12f31907bcf,,,,,,,,,,,,,,,,,,,,,space,165.9952,a,0,3.511,"[""0.129"",""0.705"",""0.670"",""0.776""]","[1,0,1,1]",0,0,0,0,1,1,1,,,1,FALSE,,,,,,,,,,,,,,,,,,,,,,,,,,,,,,,
,613d7f06231b0dca788663fd,627c6faa1fed89d5bf0f58c0,2022-05-11_21h26.24.521,classification_task,2021.2.3,Win32,59.91252771,627c6715c52fd12f31907bcf,,,,,,,,,,,,,,,,,,,,,,,a,0,3.2094,"[""0.039"",""0.095"",""0.359"",""0.841""]","[1,1,0,1]",0,1,1,1,1,1,0,,,1,FALSE,,,,,,,,,,,,,,,,,,,,,,,,,,,,,,,
,613d7f06231b0dca788663fd,627c6faa1fed89d5bf0f58c0,2022-05-11_21h26.24.521,classification_task,2021.2.3,Win32,59.91252771,627c6715c52fd12f31907bcf,,,,,,,,,,,,,,,,,,,,,,,l,1,2.8594,"[""0.504"",""0.095"",""0.565"",""0.841""]","[0,1,1,1]",0,2,2,2,1,1,0,,,1,FALSE,,,,,,,,,,,,,,,,,,,,,,,,,,,,,,,
,613d7f06231b0dca788663fd,627c6faa1fed89d5bf0f58c0,2022-05-11_21h26.24.521,classification_task,2021.2.3,Win32,59.91252771,627c6715c52fd12f31907bcf,,,,,,,,,,,,,,,,,,,,,,,l,1,7.4457,"[""0.129"",""0.307"",""0.705"",""0.776""]","[1,1,0,1]",0,3,3,3,1,1,1,,,1,FALSE,,,,,,,,,,,,,,,,,,,,,,,,,,,,,,,
,613d7f06231b0dca788663fd,627c6faa1fed89d5bf0f58c0,2022-05-11_21h26.24.521,classification_task,2021.2.3,Win32,59.91252771,627c6715c52fd12f31907bcf,,,,,,,,,,,,,,,,,,,,,,,a,0,1.4688,"[""0.129"",""0.307"",""0.670"",""0.502""]","[1,1,1,0]",0,4,4,4,1,1,1,,,1,FALSE,,,,,,,,,,,,,,,,,,,,,,,,,,,,,,,
,613d7f06231b0dca788663fd,627c6faa1fed89d5bf0f58c0,2022-05-11_21h26.24.521,classification_task,2021.2.3,Win32,59.91252771,627c6715c52fd12f31907bcf,,,,,,,,,,,,,,,,,,,,,,,a,1,6.711,"[""0.241"",""0.415"",""0.883"",""0.504""]","[1,1,1,0]",0,5,5,5,1,0,0,,,1,FALSE,,,,,,,,,,,,,,,,,,,,,,,,,,,,,,,
,613d7f06231b0dca788663fd,627c6faa1fed89d5bf0f58c0,2022-05-11_21h26.24.521,classification_task,2021.2.3,Win32,59.91252771,627c6715c52fd12f31907bcf,,,,,,,,,,,,,,,,,,,,,,,l,1,5.0325,"[""0.504"",""0.307"",""0.670"",""0.776""]","[0,1,1,1]",0,6,6,6,1,1,1,,,1,FALSE,,,,,,,,,,,,,,,,,,,,,,,,,,,,,,,
,613d7f06231b0dca788663fd,627c6faa1fed89d5bf0f58c0,2022-05-11_21h26.24.521,classification_task,2021.2.3,Win32,59.91252771,627c6715c52fd12f31907bcf,,,,,,,,,,,,,,,,,,,,,,,a,0,5.3083,"[""0.039"",""0.731"",""0.565"",""0.841""]","[1,0,1,1]",0,7,7,7,1,1,0,,,1,FALSE,,,,,,,,,,,,,,,,,,,,,,,,,,,,,,,
,613d7f06231b0dca788663fd,627c6faa1fed89d5bf0f58c0,2022-05-11_21h26.24.521,classification_task,2021.2.3,Win32,59.91252771,627c6715c52fd12f31907bcf,,,,,,,,,,,,,,,,,,,,,,,a,1,5.7908,"[""0.241"",""0.415"",""0.733"",""0.973""]","[1,1,0,1]",0,8,8,8,1,0,0,,,1,FALSE,,,,,,,,,,,,,,,,,,,,,,,,,,,,,,,
,613d7f06231b0dca788663fd,627c6faa1fed89d5bf0f58c0,2022-05-11_21h26.24.521,classification_task,2021.2.3,Win32,59.91252771,627c6715c52fd12f31907bcf,,,,,,,,,,,,,,,,,,,,,,,a,1,2.6942,"[""0.705"",""0.415"",""0.883"",""0.973""]","[0,1,1,1]",0,9,9,9,1,0,0,,,1,FALSE,,,,,,,,,,,,,,,,,,,,,,,,,,,,,,,
,613d7f06231b0dca788663fd,627c6faa1fed89d5bf0f58c0,2022-05-11_21h26.24.521,classification_task,2021.2.3,Win32,59.91252771,627c6715c52fd12f31907bcf,,,,,,,,,,,,,,,,,,,,,,,a,1,5.2342,"[""0.186"",""0.454"",""0.502"",""0.928""]","[1,1,0,1]",0,10,10,10,1,0,1,,,1,FALSE,,,,,,,,,,,,,,,,,,,,,,,,,,,,,,,
,613d7f06231b0dca788663fd,627c6faa1fed89d5bf0f58c0,2022-05-11_21h26.24.521,classification_task,2021.2.3,Win32,59.91252771,627c6715c52fd12f31907bcf,,,,,,,,,,,,,,,,,,,,,,,a,1,4.7852,"[""0.186"",""0.454"",""0.623"",""0.355""]","[1,1,1,0]",0,11,11,11,1,0,1,,,1,FALSE,,,,,,,,,,,,,,,,,,,,,,,,,,,,,,,
,613d7f06231b0dca788663fd,627c6faa1fed89d5bf0f58c0,2022-05-11_21h26.24.521,classification_task,2021.2.3,Win32,59.91252771,627c6715c52fd12f31907bcf,,,,,,,,,,,,,,,,,,,,,,,a,1,2.9452,"[""0.186"",""0.509"",""0.623"",""0.928""]","[1,0,1,1]",0,12,12,12,1,0,1,,,1,FALSE,,,,,,,,,,,,,,,,,,,,,,,,,,,,,,,
,613d7f06231b0dca788663fd,627c6faa1fed89d5bf0f58c0,2022-05-11_21h26.24.521,classification_task,2021.2.3,Win32,59.91252771,627c6715c52fd12f31907bcf,,,,,,,,,,,,,,,,,,,,,,,l,1,7.2073,"[""0.039"",""0.095"",""0.565"",""0.355""]","[1,1,1,0]",0,13,13,13,1,1,0,,,1,FALSE,,,,,,,,,,,,,,,,,,,,,,,,,,,,,,,
,613d7f06231b0dca788663fd,627c6faa1fed89d5bf0f58c0,2022-05-11_21h26.24.521,classification_task,2021.2.3,Win32,59.91252771,627c6715c52fd12f31907bcf,,,,,,,,,,,,,,,,,,,,,,,a,1,6.5622,"[""0.350"",""0.454"",""0.623"",""0.928""]","[0,1,1,1]",0,14,14,14,1,0,1,,,1,FALSE,,,,,,,,,,,,,,,,,,,,,,,,,,,,,,,
,613d7f06231b0dca788663fd,627c6faa1fed89d5bf0f58c0,2022-05-11_21h26.24.521,classification_task,2021.2.3,Win32,59.91252771,627c6715c52fd12f31907bcf,,,,,,,,,,,,,,,,,,,,,,,a,1,3.1692,"[""0.241"",""0.355"",""0.883"",""0.973""]","[1,0,1,1]",0,15,15,15,1,0,0,,,1,FALSE,,,,,,,,,,,,,,,,,,,,,,,,,,,,,,,
,613d7f06231b0dca788663fd,627c6faa1fed89d5bf0f58c0,2022-05-11_21h26.24.521,classification_task,2021.2.3,Win32,59.91252771,627c6715c52fd12f31907bcf,,,,,,,,,,,,,,,,,,,,,,,l,1,3.9937,"[""0.039"",""0.359"",""0.565"",""0.841""]","[1,0,1,1]",0,16,16,16,1,1,0,,,1,FALSE,,,,,,,,,,,,,,,,,,,,,,,,,,,,,,,
,613d7f06231b0dca788663fd,627c6faa1fed89d5bf0f58c0,2022-05-11_21h26.24.521,classification_task,2021.2.3,Win32,59.91252771,627c6715c52fd12f31907bcf,,,,,,,,,,,,,,,,,,,,,,,l,1,1.7662,"[""0.039"",""0.095"",""0.509"",""0.841""]","[1,1,0,1]",0,17,17,17,1,1,0,,,1,FALSE,,,,,,,,,,,,,,,,,,,,,,,,,,,,,,,
,613d7f06231b0dca788663fd,627c6faa1fed89d5bf0f58c0,2022-05-11_21h26.24.521,classification_task,2021.2.3,Win32,59.91252771,627c6715c52fd12f31907bcf,,,,,,,,,,,,,,,,,,,,,,,a,1,6.6775,"[""0.241"",""0.415"",""0.883"",""0.710""]","[1,1,1,0]",0,18,18,18,1,0,0,,,1,FALSE,,,,,,,,,,,,,,,,,,,,,,,,,,,,,,,
,613d7f06231b0dca788663fd,627c6faa1fed89d5bf0f58c0,2022-05-11_21h26.24.521,classification_task,2021.2.3,Win32,59.91252771,627c6715c52fd12f31907bcf,,,,,,,,,,,,,,,,,,,,,,,a,1,3.1828,"[""0.186"",""0.509"",""0.623"",""0.928""]","[1,0,1,1]",0,19,19,19,1,0,1,,,1,FALSE,,,,,,,,,,,,,,,,,,,,,,,,,,,,,,,
,613d7f06231b0dca788663fd,627c6faa1fed89d5bf0f58c0,2022-05-11_21h26.24.521,classification_task,2021.2.3,Win32,59.91252771,627c6715c52fd12f31907bcf,,,,,,,,,,,,,,,,,,,,,,,l,1,6.5559,"[""0.039"",""0.095"",""0.565"",""0.502""]","[1,1,1,0]",0,20,20,20,1,1,0,,,1,FALSE,,,,,,,,,,,,,,,,,,,,,,,,,,,,,,,
,613d7f06231b0dca788663fd,627c6faa1fed89d5bf0f58c0,2022-05-11_21h26.24.521,classification_task,2021.2.3,Win32,59.91252771,627c6715c52fd12f31907bcf,,,,,,,,,,,,,,,,,,,,,,,a,1,3.1524,"[""0.241"",""0.415"",""0.502"",""0.973""]","[1,1,0,1]",0,21,21,21,1,0,0,,,1,FALSE,,,,,,,,,,,,,,,,,,,,,,,,,,,,,,,
,613d7f06231b0dca788663fd,627c6faa1fed89d5bf0f58c0,2022-05-11_21h26.24.521,classification_task,2021.2.3,Win32,59.91252771,627c6715c52fd12f31907bcf,,,,,,,,,,,,,,,,,,,,,,,l,1,4.9137,"[""0.359"",""0.307"",""0.670"",""0.776""]","[0,1,1,1]",0,22,22,22,1,1,1,,,1,FALSE,,,,,,,,,,,,,,,,,,,,,,,,,,,,,,,
,613d7f06231b0dca788663fd,627c6faa1fed89d5bf0f58c0,2022-05-11_21h26.24.521,classification_task,2021.2.3,Win32,59.91252771,627c6715c52fd12f31907bcf,,,,,,,,,,,,,,,,,,,,,,,a,1,5.7186,"[""0.186"",""0.454"",""0.623"",""0.705""]","[1,1,1,0]",0,23,23,23,1,0,1,,,1,FALSE,,,,,,,,,,,,,,,,,,,,,,,,,,,,,,,
,613d7f06231b0dca788663fd,627c6faa1fed89d5bf0f58c0,2022-05-11_21h26.24.521,classification_task,2021.2.3,Win32,59.91252771,627c6715c52fd12f31907bcf,,,,,,,,,,,,,,,,,,,,,,,l,1,9.1943,"[""0.129"",""0.504"",""0.670"",""0.776""]","[1,0,1,1]",0,24,24,24,1,1,1,,,1,FALSE,,,,,,,,,,,,,,,,,,,,,,,,,,,,,,,
,613d7f06231b0dca788663fd,627c6faa1fed89d5bf0f58c0,2022-05-11_21h26.24.521,classification_task,2021.2.3,Win32,59.91252771,627c6715c52fd12f31907bcf,,,,,,,,,,,,,,,,,,,,,,,a,1,3.2851,"[""0.509"",""0.454"",""0.623"",""0.928""]","[0,1,1,1]",0,25,25,25,1,0,1,,,1,FALSE,,,,,,,,,,,,,,,,,,,,,,,,,,,,,,,
,613d7f06231b0dca788663fd,627c6faa1fed89d5bf0f58c0,2022-05-11_21h26.24.521,classification_task,2021.2.3,Win32,59.91252771,627c6715c52fd12f31907bcf,,,,,,,,,,,,,,,,,,,,,,,a,1,2.2528,"[""0.186"",""0.454"",""0.502"",""0.928""]","[1,1,0,1]",0,26,26,26,1,0,1,,,1,FALSE,,,,,,,,,,,,,,,,,,,,,,,,,,,,,,,
,613d7f06231b0dca788663fd,627c6faa1fed89d5bf0f58c0,2022-05-11_21h26.24.521,classification_task,2021.2.3,Win32,59.91252771,627c6715c52fd12f31907bcf,,,,,,,,,,,,,,,,,,,,,,,a,1,5.6443,"[""0.241"",""0.736"",""0.883"",""0.973""]","[1,0,1,1]",0,27,27,27,1,0,0,,,1,FALSE,,,,,,,,,,,,,,,,,,,,,,,,,,,,,,,
,613d7f06231b0dca788663fd,627c6faa1fed89d5bf0f58c0,2022-05-11_21h26.24.521,classification_task,2021.2.3,Win32,59.91252771,627c6715c52fd12f31907bcf,,,,,,,,,,,,,,,,,,,,,,,a,1,3.1529,"[""0.355"",""0.415"",""0.883"",""0.973""]","[0,1,1,1]",0,28,28,28,1,0,0,,,1,FALSE,,,,,,,,,,,,,,,,,,,,,,,,,,,,,,,
,613d7f06231b0dca788663fd,627c6faa1fed89d5bf0f58c0,2022-05-11_21h26.24.521,classification_task,2021.2.3,Win32,59.91252771,627c6715c52fd12f31907bcf,,,,,,,,,,,,,,,,,,,,,,,l,1,4.2182,"[""0.129"",""0.307"",""0.670"",""0.731""]","[1,1,1,0]",0,29,29,29,1,1,1,,,1,FALSE,,,,,,,,,,,,,,,,,,,,,,,,,,,,,,,
,613d7f06231b0dca788663fd,627c6faa1fed89d5bf0f58c0,2022-05-11_21h26.24.521,classification_task,2021.2.3,Win32,59.91252771,627c6715c52fd12f31907bcf,,,,,,,,,,,,,,,,,,,,,,,l,1,3.6424,"[""0.705"",""0.095"",""0.565"",""0.841""]","[0,1,1,1]",0,30,30,30,1,1,0,,,1,FALSE,,,,,,,,,,,,,,,,,,,,,,,,,,,,,,,
,613d7f06231b0dca788663fd,627c6faa1fed89d5bf0f58c0,2022-05-11_21h26.24.521,classification_task,2021.2.3,Win32,59.91252771,627c6715c52fd12f31907bcf,,,,,,,,,,,,,,,,,,,,,,,a,0,2.4454,"[""0.129"",""0.307"",""0.731"",""0.776""]","[1,1,0,1]",0,31,31,31,1,1,1,,,1,FALSE,,,,,,,,,,,,,,,,,,,,,,,,,,,,,,,
,613d7f06231b0dca788663fd,627c6faa1fed89d5bf0f58c0,2022-05-11_21h26.24.521,classification_task,2021.2.3,Win32,59.91252771,627c6715c52fd12f31907bcf,,,,,,,,,,,,,,,,,,,,,,,l,1,4.2257,"[""0.736"",""0.307"",""0.670"",""0.776""]","[0,1,1,1]",0,32,32,32,1,1,1,,,1,FALSE,,,,,,,,,,,,,,,,,,,,,,,,,,,,,,,
,613d7f06231b0dca788663fd,627c6faa1fed89d5bf0f58c0,2022-05-11_21h26.24.521,classification_task,2021.2.3,Win32,59.91252771,627c6715c52fd12f31907bcf,,,,,,,,,,,,,,,,,,,,,,,l,0,3.6542,"[""0.186"",""0.454"",""0.732"",""0.928""]","[1,1,0,1]",0,33,33,33,1,0,1,,,1,FALSE,,,,,,,,,,,,,,,,,,,,,,,,,,,,,,,
,613d7f06231b0dca788663fd,627c6faa1fed89d5bf0f58c0,2022-05-11_21h26.24.521,classification_task,2021.2.3,Win32,59.91252771,627c6715c52fd12f31907bcf,,,,,,,,,,,,,,,,,,,,,,,a,1,2.57,"[""0.186"",""0.454"",""0.623"",""0.710""]","[1,1,1,0]",0,34,34,34,1,0,1,,,1,FALSE,,,,,,,,,,,,,,,,,,,,,,,,,,,,,,,
,613d7f06231b0dca788663fd,627c6faa1fed89d5bf0f58c0,2022-05-11_21h26.24.521,classification_task,2021.2.3,Win32,59.91252771,627c6715c52fd12f31907bcf,,,,,,,,,,,,,,,,,,,,,,,a,0,2.7728,"[""0.732"",""0.095"",""0.565"",""0.841""]","[0,1,1,1]",0,35,35,35,1,1,0,,,1,FALSE,,,,,,,,,,,,,,,,,,,,,,,,,,,,,,,
,613d7f06231b0dca788663fd,627c6faa1fed89d5bf0f58c0,2022-05-11_21h26.24.521,classification_task,2021.2.3,Win32,59.91252771,627c6715c52fd12f31907bcf,,,,,,,,,,,,,,,,,,,,,,,l,1,4.4855,"[""0.039"",""0.095"",""0.731"",""0.841""]","[1,1,0,1]",0,36,36,36,1,1,0,,,1,FALSE,,,,,,,,,,,,,,,,,,,,,,,,,,,,,,,
,613d7f06231b0dca788663fd,627c6faa1fed89d5bf0f58c0,2022-05-11_21h26.24.521,classification_task,2021.2.3,Win32,59.91252771,627c6715c52fd12f31907bcf,,,,,,,,,,,,,,,,,,,,,,,l,1,1.7452,"[""0.129"",""0.350"",""0.670"",""0.776""]","[1,0,1,1]",0,37,37,37,1,1,1,,,1,FALSE,,,,,,,,,,,,,,,,,,,,,,,,,,,,,,,
,613d7f06231b0dca788663fd,627c6faa1fed89d5bf0f58c0,2022-05-11_21h26.24.521,classification_task,2021.2.3,Win32,59.91252771,627c6715c52fd12f31907bcf,,,,,,,,,,,,,,,,,,,,,,,l,0,1.7899,"[""0.241"",""0.415"",""0.883"",""0.504""]","[1,1,1,0]",0,38,38,38,1,0,0,,,1,FALSE,,,,,,,,,,,,,,,,,,,,,,,,,,,,,,,
,613d7f06231b0dca788663fd,627c6faa1fed89d5bf0f58c0,2022-05-11_21h26.24.521,classification_task,2021.2.3,Win32,59.91252771,627c6715c52fd12f31907bcf,,,,,,,,,,,,,,,,,,,,,,,a,1,1.8179,"[""0.241"",""0.415"",""0.509"",""0.973""]","[1,1,0,1]",0,39,39,39,1,0,0,,,1,FALSE,,,,,,,,,,,,,,,,,,,,,,,,,,,,,,,
,613d7f06231b0dca788663fd,627c6faa1fed89d5bf0f58c0,2022-05-11_21h26.24.521,classification_task,2021.2.3,Win32,59.91252771,627c6715c52fd12f31907bcf,,,,,,,,,,,,,,,,,,,,,,,l,1,2.0422,"[""0.039"",""0.095"",""0.565"",""0.504""]","[1,1,1,0]",0,40,40,40,1,1,0,,,1,FALSE,,,,,,,,,,,,,,,,,,,,,,,,,,,,,,,
,613d7f06231b0dca788663fd,627c6faa1fed89d5bf0f58c0,2022-05-11_21h26.24.521,classification_task,2021.2.3,Win32,59.91252771,627c6715c52fd12f31907bcf,,,,,,,,,,,,,,,,,,,,,,,a,1,1.3038,"[""0.733"",""0.454"",""0.623"",""0.928""]","[0,1,1,1]",0,41,41,41,1,0,1,,,1,FALSE,,,,,,,,,,,,,,,,,,,,,,,,,,,,,,,
,613d7f06231b0dca788663fd,627c6faa1fed89d5bf0f58c0,2022-05-11_21h26.24.521,classification_task,2021.2.3,Win32,59.91252771,627c6715c52fd12f31907bcf,,,,,,,,,,,,,,,,,,,,,,,a,0,2.228,"[""0.129"",""0.307"",""0.670"",""0.350""]","[1,1,1,0]",0,42,42,42,1,1,1,,,1,FALSE,,,,,,,,,,,,,,,,,,,,,,,,,,,,,,,
,613d7f06231b0dca788663fd,627c6faa1fed89d5bf0f58c0,2022-05-11_21h26.24.521,classification_task,2021.2.3,Win32,59.91252771,627c6715c52fd12f31907bcf,,,,,,,,,,,,,,,,,,,,,,,l,0,1.3918,"[""0.504"",""0.415"",""0.883"",""0.973""]","[0,1,1,1]",0,43,43,43,1,0,0,,,1,FALSE,,,,,,,,,,,,,,,,,,,,,,,,,,,,,,,
,613d7f06231b0dca788663fd,627c6faa1fed89d5bf0f58c0,2022-05-11_21h26.24.521,classification_task,2021.2.3,Win32,59.91252771,627c6715c52fd12f31907bcf,,,,,,,,,,,,,,,,,,,,,,,l,1,1.5396,"[""0.039"",""0.359"",""0.565"",""0.841""]","[1,0,1,1]",0,44,44,44,1,1,0,,,1,FALSE,,,,,,,,,,,,,,,,,,,,,,,,,,,,,,,
,613d7f06231b0dca788663fd,627c6faa1fed89d5bf0f58c0,2022-05-11_21h26.24.521,classification_task,2021.2.3,Win32,59.91252771,627c6715c52fd12f31907bcf,,,,,,,,,,,,,,,,,,,,,,,l,1,1.2425,"[""0.129"",""0.307"",""0.509"",""0.776""]","[1,1,0,1]",0,45,45,45,1,1,1,,,1,FALSE,,,,,,,,,,,,,,,,,,,,,,,,,,,,,,,
,613d7f06231b0dca788663fd,627c6faa1fed89d5bf0f58c0,2022-05-11_21h26.24.521,classification_task,2021.2.3,Win32,59.91252771,627c6715c52fd12f31907bcf,,,,,,,,,,,,,,,,,,,,,,,a,1,1.3439,"[""0.186"",""0.504"",""0.623"",""0.928""]","[1,0,1,1]",0,46,46,46,1,0,1,,,1,FALSE,,,,,,,,,,,,,,,,,,,,,,,,,,,,,,,
,613d7f06231b0dca788663fd,627c6faa1fed89d5bf0f58c0,2022-05-11_21h26.24.521,classification_task,2021.2.3,Win32,59.91252771,627c6715c52fd12f31907bcf,,,,,,,,,,,,,,,,,,,,,,,l,0,1.0817,"[""0.241"",""0.355"",""0.883"",""0.973""]","[1,0,1,1]",0,47,47,47,1,0,0,,,1,FALSE,,,,,,,,,,,,,,,,,,,,,,,,,,,,,,,
,613d7f06231b0dca788663fd,627c6faa1fed89d5bf0f58c0,2022-05-11_21h26.24.521,classification_task,2021.2.3,Win32,59.91252771,627c6715c52fd12f31907bcf,,,,,,,,,,,,,,,,,,,,,,,a,0,0.909,"[""0.129"",""0.504"",""0.670"",""0.776""]","[1,0,1,1]",0,48,48,48,1,1,1,,,1,FALSE,,,,,,,,,,,,,,,,,,,,,,,,,,,,,,,
,613d7f06231b0dca788663fd,627c6faa1fed89d5bf0f58c0,2022-05-11_21h26.24.521,classification_task,2021.2.3,Win32,59.91252771,627c6715c52fd12f31907bcf,,,,,,,,,,,,,,,,,,,,,,,l,0,1.094,"[""0.186"",""0.454"",""0.623"",""0.705""]","[1,1,1,0]",0,49,49,49,1,0,1,,,1,FALSE,,,,,,,,,,,,,,,,,,,,,,,,,,,,,,,
,613d7f06231b0dca788663fd,627c6faa1fed89d5bf0f58c0,2022-05-11_21h26.24.521,classification_task,2021.2.3,Win32,59.91252771,627c6715c52fd12f31907bcf,,,,,,,,,,,,,,,,,,,,,,,l,1,1.2285,"[""0.129"",""0.307"",""0.733"",""0.776""]","[1,1,0,1]",0,50,50,50,1,1,1,,,1,FALSE,,,,,,,,,,,,,,,,,,,,,,,,,,,,,,,
,613d7f06231b0dca788663fd,627c6faa1fed89d5bf0f58c0,2022-05-11_21h26.24.521,classification_task,2021.2.3,Win32,59.91252771,627c6715c52fd12f31907bcf,,,,,,,,,,,,,,,,,,,,,,,a,1,1.8929,"[""0.241"",""0.731"",""0.883"",""0.973""]","[1,0,1,1]",0,51,51,51,1,0,0,,,1,FALSE,,,,,,,,,,,,,,,,,,,,,,,,,,,,,,,
,613d7f06231b0dca788663fd,627c6faa1fed89d5bf0f58c0,2022-05-11_21h26.24.521,classification_task,2021.2.3,Win32,59.91252771,627c6715c52fd12f31907bcf,,,,,,,,,,,,,,,,,,,,,,,l,0,1.3375,"[""0.186"",""0.359"",""0.623"",""0.928""]","[1,0,1,1]",0,52,52,52,1,0,1,,,1,FALSE,,,,,,,,,,,,,,,,,,,,,,,,,,,,,,,
,613d7f06231b0dca788663fd,627c6faa1fed89d5bf0f58c0,2022-05-11_21h26.24.521,classification_task,2021.2.3,Win32,59.91252771,627c6715c52fd12f31907bcf,,,,,,,,,,,,,,,,,,,,,,,l,1,1.3404,"[""0.039"",""0.095"",""0.504"",""0.841""]","[1,1,0,1]",0,53,53,53,1,1,0,,,1,FALSE,,,,,,,,,,,,,,,,,,,,,,,,,,,,,,,
,613d7f06231b0dca788663fd,627c6faa1fed89d5bf0f58c0,2022-05-11_21h26.24.521,classification_task,2021.2.3,Win32,59.91252771,627c6715c52fd12f31907bcf,,,,,,,,,,,,,,,,,,,,,,,a,0,2.3423,"[""0.129"",""0.307"",""0.670"",""0.731""]","[1,1,1,0]",0,54,54,54,1,1,1,,,1,FALSE,,,,,,,,,,,,,,,,,,,,,,,,,,,,,,,
,613d7f06231b0dca788663fd,627c6faa1fed89d5bf0f58c0,2022-05-11_21h26.24.521,classification_task,2021.2.3,Win32,59.91252771,627c6715c52fd12f31907bcf,,,,,,,,,,,,,,,,,,,,,,,a,1,1.3032,"[""0.733"",""0.454"",""0.623"",""0.928""]","[0,1,1,1]",0,55,55,55,1,0,1,,,1,FALSE,,,,,,,,,,,,,,,,,,,,,,,,,,,,,,,
,613d7f06231b0dca788663fd,627c6faa1fed89d5bf0f58c0,2022-05-11_21h26.24.521,classification_task,2021.2.3,Win32,59.91252771,627c6715c52fd12f31907bcf,,,,,,,,,,,,,,,,,,,,,,,l,0,1.5067,"[""0.504"",""0.415"",""0.883"",""0.973""]","[0,1,1,1]",0,56,56,56,1,0,0,,,1,FALSE,,,,,,,,,,,,,,,,,,,,,,,,,,,,,,,
,613d7f06231b0dca788663fd,627c6faa1fed89d5bf0f58c0,2022-05-11_21h26.24.521,classification_task,2021.2.3,Win32,59.91252771,627c6715c52fd12f31907bcf,,,,,,,,,,,,,,,,,,,,,,,a,0,0.8302,"[""0.039"",""0.509"",""0.565"",""0.841""]","[1,0,1,1]",0,57,57,57,1,1,0,,,1,FALSE,,,,,,,,,,,,,,,,,,,,,,,,,,,,,,,
,613d7f06231b0dca788663fd,627c6faa1fed89d5bf0f58c0,2022-05-11_21h26.24.521,classification_task,2021.2.3,Win32,59.91252771,627c6715c52fd12f31907bcf,,,,,,,,,,,,,,,,,,,,,,,l,1,0.6294,"[""0.509"",""0.095"",""0.565"",""0.841""]","[0,1,1,1]",0,58,58,58,1,1,0,,,1,FALSE,,,,,,,,,,,,,,,,,,,,,,,,,,,,,,,
,613d7f06231b0dca788663fd,627c6faa1fed89d5bf0f58c0,2022-05-11_21h26.24.521,classification_task,2021.2.3,Win32,59.91252771,627c6715c52fd12f31907bcf,,,,,,,,,,,,,,,,,,,,,,,a,1,1.6924,"[""0.186"",""0.454"",""0.350"",""0.928""]","[1,1,0,1]",0,59,59,59,1,0,1,,,1,FALSE,,,,,,,,,,,,,,,,,,,,,,,,,,,,,,,
,613d7f06231b0dca788663fd,627c6faa1fed89d5bf0f58c0,2022-05-11_21h26.24.521,classification_task,2021.2.3,Win32,59.91252771,627c6715c52fd12f31907bcf,,,,,,,,,,,,,,,,,,,,,,,l,0,1.1914,"[""0.241"",""0.415"",""0.504"",""0.973""]","[1,1,0,1]",0,60,60,60,1,0,0,,,1,FALSE,,,,,,,,,,,,,,,,,,,,,,,,,,,,,,,
,613d7f06231b0dca788663fd,627c6faa1fed89d5bf0f58c0,2022-05-11_21h26.24.521,classification_task,2021.2.3,Win32,59.91252771,627c6715c52fd12f31907bcf,,,,,,,,,,,,,,,,,,,,,,,a,0,1.278,"[""0.039"",""0.095"",""0.565"",""0.359""]","[1,1,1,0]",0,61,61,61,1,1,0,,,1,FALSE,,,,,,,,,,,,,,,,,,,,,,,,,,,,,,,
,613d7f06231b0dca788663fd,627c6faa1fed89d5bf0f58c0,2022-05-11_21h26.24.521,classification_task,2021.2.3,Win32,59.91252771,627c6715c52fd12f31907bcf,,,,,,,,,,,,,,,,,,,,,,,l,0,0.8568,"[""0.241"",""0.415"",""0.883"",""0.509""]","[1,1,1,0]",0,62,62,62,1,0,0,,,1,FALSE,,,,,,,,,,,,,,,,,,,,,,,,,,,,,,,
,613d7f06231b0dca788663fd,627c6faa1fed89d5bf0f58c0,2022-05-11_21h26.24.521,classification_task,2021.2.3,Win32,59.91252771,627c6715c52fd12f31907bcf,,,,,,,,,,,,,,,,,,,,,,,a,0,1.0114,"[""0.509"",""0.307"",""0.670"",""0.776""]","[0,1,1,1]",0,63,63,63,1,1,1,,,1,FALSE,,,,,,,,,,,,,,,,,,,,,,,,,,,,,,,
,613d7f06231b0dca788663fd,627c6faa1fed89d5bf0f58c0,2022-05-11_21h26.24.521,classification_task,2021.2.3,Win32,59.91252771,627c6715c52fd12f31907bcf,,,,,,,,,,,,,,,,,,,,,,,,,,,,,,,,,,,,,,,0, ,,0,1.555335097,566.48,0,0,0,0,1,2,1,,,,,,,,,,,,,,,,,,
,613d7f06231b0dca788663fd,627c6faa1fed89d5bf0f58c0,2022-05-11_21h26.24.521,classification_task,2021.2.3,Win32,59.91252771,627c6715c52fd12f31907bcf,,,,,,,,,,,,,,,,,,,,,,,,,,,,,,,,,,,,,,,1,  ,,0,6.963458995,570.6648,0,0,0,0,1,2,1,,,,,,,,,,,,,,,,,,
,613d7f06231b0dca788663fd,627c6faa1fed89d5bf0f58c0,2022-05-11_21h26.24.521,classification_task,2021.2.3,Win32,59.91252771,627c6715c52fd12f31907bcf,,,,,,,,,,,,,,,,,,,,,,,,,,,,,,,,,,,,,,,2,  ,,0,5.137786596,576.7659,0,0,0,0,1,2,1,,,,,,,,,,,,,,,,,,
,613d7f06231b0dca788663fd,627c6faa1fed89d5bf0f58c0,2022-05-11_21h26.24.521,classification_task,2021.2.3,Win32,59.91252771,627c6715c52fd12f31907bcf,,,,,,,,,,,,,,,,,,,,,,,,,,,,,,,,,,,,,,,,,,,,,0,0,0,0,1,,1,,,,,,,,,,,,,,,,,,
,613d7f06231b0dca788663fd,627c6faa1fed89d5bf0f58c0,2022-05-11_21h26.24.521,classification_task,2021.2.3,Win32,59.91252771,627c6715c52fd12f31907bcf,,,,,,,,,,,,,,,,,,,,,space,8.2693,a,1,6.1029,"[""0.186"",""0.454"",""0.623"",""0.504""]","[1,1,1,0]",0,0,0,0,1,0,1,,,1,FALSE,,,,,,,,,,,,,,,,,,,,,,,,,,,,,,,
,613d7f06231b0dca788663fd,627c6faa1fed89d5bf0f58c0,2022-05-11_21h26.24.521,classification_task,2021.2.3,Win32,59.91252771,627c6715c52fd12f31907bcf,,,,,,,,,,,,,,,,,,,,,,,a,0,2.6042,"[""0.039"",""0.095"",""0.731"",""0.841""]","[1,1,0,1]",0,1,1,1,1,1,0,,,1,FALSE,,,,,,,,,,,,,,,,,,,,,,,,,,,,,,,
,613d7f06231b0dca788663fd,627c6faa1fed89d5bf0f58c0,2022-05-11_21h26.24.521,classification_task,2021.2.3,Win32,59.91252771,627c6715c52fd12f31907bcf,,,,,,,,,,,,,,,,,,,,,,,l,1,1.8961,"[""0.731"",""0.307"",""0.670"",""0.776""]","[0,1,1,1]",0,2,2,2,1,1,1,,,1,FALSE,,,,,,,,,,,,,,,,,,,,,,,,,,,,,,,
,613d7f06231b0dca788663fd,627c6faa1fed89d5bf0f58c0,2022-05-11_21h26.24.521,classification_task,2021.2.3,Win32,59.91252771,627c6715c52fd12f31907bcf,,,,,,,,,,,,,,,,,,,,,,,l,0,1.1914,"[""0.241"",""0.415"",""0.883"",""0.731""]","[1,1,1,0]",0,3,3,3,1,0,0,,,1,FALSE,,,,,,,,,,,,,,,,,,,,,,,,,,,,,,,
,613d7f06231b0dca788663fd,627c6faa1fed89d5bf0f58c0,2022-05-11_21h26.24.521,classification_task,2021.2.3,Win32,59.91252771,627c6715c52fd12f31907bcf,,,,,,,,,,,,,,,,,,,,,,,l,0,1.3613,"[""0.241"",""0.415"",""0.731"",""0.973""]","[1,1,0,1]",0,4,4,4,1,0,0,,,1,FALSE,,,,,,,,,,,,,,,,,,,,,,,,,,,,,,,
,613d7f06231b0dca788663fd,627c6faa1fed89d5bf0f58c0,2022-05-11_21h26.24.521,classification_task,2021.2.3,Win32,59.91252771,627c6715c52fd12f31907bcf,,,,,,,,,,,,,,,,,,,,,,,a,1,0.6428,"[""0.241"",""0.359"",""0.883"",""0.973""]","[1,0,1,1]",0,5,5,5,1,0,0,,,1,FALSE,,,,,,,,,,,,,,,,,,,,,,,,,,,,,,,
,613d7f06231b0dca788663fd,627c6faa1fed89d5bf0f58c0,2022-05-11_21h26.24.521,classification_task,2021.2.3,Win32,59.91252771,627c6715c52fd12f31907bcf,,,,,,,,,,,,,,,,,,,,,,,l,1,0.959,"[""0.039"",""0.717"",""0.565"",""0.841""]","[1,0,1,1]",0,6,6,6,1,1,0,,,1,FALSE,,,,,,,,,,,,,,,,,,,,,,,,,,,,,,,
,613d7f06231b0dca788663fd,627c6faa1fed89d5bf0f58c0,2022-05-11_21h26.24.521,classification_task,2021.2.3,Win32,59.91252771,627c6715c52fd12f31907bcf,,,,,,,,,,,,,,,,,,,,,,,a,1,0.9415,"[""0.731"",""0.415"",""0.883"",""0.973""]","[0,1,1,1]",0,7,7,7,1,0,0,,,1,FALSE,,,,,,,,,,,,,,,,,,,,,,,,,,,,,,,
,613d7f06231b0dca788663fd,627c6faa1fed89d5bf0f58c0,2022-05-11_21h26.24.521,classification_task,2021.2.3,Win32,59.91252771,627c6715c52fd12f31907bcf,,,,,,,,,,,,,,,,,,,,,,,a,0,1.1065,"[""0.039"",""0.095"",""0.565"",""0.731""]","[1,1,1,0]",0,8,8,8,1,1,0,,,1,FALSE,,,,,,,,,,,,,,,,,,,,,,,,,,,,,,,
,613d7f06231b0dca788663fd,627c6faa1fed89d5bf0f58c0,2022-05-11_21h26.24.521,classification_task,2021.2.3,Win32,59.91252771,627c6715c52fd12f31907bcf,,,,,,,,,,,,,,,,,,,,,,,a,1,1.5924,"[""0.186"",""0.731"",""0.623"",""0.928""]","[1,0,1,1]",0,9,9,9,1,0,1,,,1,FALSE,,,,,,,,,,,,,,,,,,,,,,,,,,,,,,,
,613d7f06231b0dca788663fd,627c6faa1fed89d5bf0f58c0,2022-05-11_21h26.24.521,classification_task,2021.2.3,Win32,59.91252771,627c6715c52fd12f31907bcf,,,,,,,,,,,,,,,,,,,,,,,a,1,0.7865,"[""0.509"",""0.454"",""0.623"",""0.928""]","[0,1,1,1]",0,10,10,10,1,0,1,,,1,FALSE,,,,,,,,,,,,,,,,,,,,,,,,,,,,,,,
,613d7f06231b0dca788663fd,627c6faa1fed89d5bf0f58c0,2022-05-11_21h26.24.521,classification_task,2021.2.3,Win32,59.91252771,627c6715c52fd12f31907bcf,,,,,,,,,,,,,,,,,,,,,,,l,1,0.6217,"[""0.129"",""0.307"",""0.502"",""0.776""]","[1,1,0,1]",0,11,11,11,1,1,1,,,1,FALSE,,,,,,,,,,,,,,,,,,,,,,,,,,,,,,,
,613d7f06231b0dca788663fd,627c6faa1fed89d5bf0f58c0,2022-05-11_21h26.24.521,classification_task,2021.2.3,Win32,59.91252771,627c6715c52fd12f31907bcf,,,,,,,,,,,,,,,,,,,,,,,a,1,0.8206,"[""0.186"",""0.454"",""0.731"",""0.928""]","[1,1,0,1]",0,12,12,12,1,0,1,,,1,FALSE,,,,,,,,,,,,,,,,,,,,,,,,,,,,,,,
,613d7f06231b0dca788663fd,627c6faa1fed89d5bf0f58c0,2022-05-11_21h26.24.521,classification_task,2021.2.3,Win32,59.91252771,627c6715c52fd12f31907bcf,,,,,,,,,,,,,,,,,,,,,,,l,1,1.1098,"[""0.717"",""0.095"",""0.565"",""0.841""]","[0,1,1,1]",0,13,13,13,1,1,0,,,1,FALSE,,,,,,,,,,,,,,,,,,,,,,,,,,,,,,,
,613d7f06231b0dca788663fd,627c6faa1fed89d5bf0f58c0,2022-05-11_21h26.24.521,classification_task,2021.2.3,Win32,59.91252771,627c6715c52fd12f31907bcf,,,,,,,,,,,,,,,,,,,,,,,l,1,1.6423,"[""0.129"",""0.307"",""0.670"",""0.502""]","[1,1,1,0]",0,14,14,14,1,1,1,,,1,FALSE,,,,,,,,,,,,,,,,,,,,,,,,,,,,,,,
,613d7f06231b0dca788663fd,627c6faa1fed89d5bf0f58c0,2022-05-11_21h26.24.521,classification_task,2021.2.3,Win32,59.91252771,627c6715c52fd12f31907bcf,,,,,,,,,,,,,,,,,,,,,,,l,1,0.9687,"[""0.129"",""0.509"",""0.670"",""0.776""]","[1,0,1,1]",0,15,15,15,1,1,1,,,1,FALSE,,,,,,,,,,,,,,,,,,,,,,,,,,,,,,,
,613d7f06231b0dca788663fd,627c6faa1fed89d5bf0f58c0,2022-05-11_21h26.24.521,classification_task,2021.2.3,Win32,59.91252771,627c6715c52fd12f31907bcf,,,,,,,,,,,,,,,,,,,,,,,a,1,0.8331,"[""0.241"",""0.415"",""0.509"",""0.973""]","[1,1,0,1]",0,16,16,16,1,0,0,,,1,FALSE,,,,,,,,,,,,,,,,,,,,,,,,,,,,,,,
,613d7f06231b0dca788663fd,627c6faa1fed89d5bf0f58c0,2022-05-11_21h26.24.521,classification_task,2021.2.3,Win32,59.91252771,627c6715c52fd12f31907bcf,,,,,,,,,,,,,,,,,,,,,,,l,0,0.7254,"[""0.241"",""0.509"",""0.883"",""0.973""]","[1,0,1,1]",0,17,17,17,1,0,0,,,1,FALSE,,,,,,,,,,,,,,,,,,,,,,,,,,,,,,,
,613d7f06231b0dca788663fd,627c6faa1fed89d5bf0f58c0,2022-05-11_21h26.24.521,classification_task,2021.2.3,Win32,59.91252771,627c6715c52fd12f31907bcf,,,,,,,,,,,,,,,,,,,,,,,l,1,1.9258,"[""0.502"",""0.307"",""0.670"",""0.776""]","[0,1,1,1]",0,18,18,18,1,1,1,,,1,FALSE,,,,,,,,,,,,,,,,,,,,,,,,,,,,,,,
,613d7f06231b0dca788663fd,627c6faa1fed89d5bf0f58c0,2022-05-11_21h26.24.521,classification_task,2021.2.3,Win32,59.91252771,627c6715c52fd12f31907bcf,,,,,,,,,,,,,,,,,,,,,,,l,1,1.4332,"[""0.129"",""0.732"",""0.670"",""0.776""]","[1,0,1,1]",0,19,19,19,1,1,1,,,1,FALSE,,,,,,,,,,,,,,,,,,,,,,,,,,,,,,,
,613d7f06231b0dca788663fd,627c6faa1fed89d5bf0f58c0,2022-05-11_21h26.24.521,classification_task,2021.2.3,Win32,59.91252771,627c6715c52fd12f31907bcf,,,,,,,,,,,,,,,,,,,,,,,a,1,2.1719,"[""0.186"",""0.454"",""0.623"",""0.355""]","[1,1,1,0]",0,20,20,20,1,0,1,,,1,FALSE,,,,,,,,,,,,,,,,,,,,,,,,,,,,,,,
,613d7f06231b0dca788663fd,627c6faa1fed89d5bf0f58c0,2022-05-11_21h26.24.521,classification_task,2021.2.3,Win32,59.91252771,627c6715c52fd12f31907bcf,,,,,,,,,,,,,,,,,,,,,,,a,0,2.4756,"[""0.039"",""0.095"",""0.359"",""0.841""]","[1,1,0,1]",0,21,21,21,1,1,0,,,1,FALSE,,,,,,,,,,,,,,,,,,,,,,,,,,,,,,,
,613d7f06231b0dca788663fd,627c6faa1fed89d5bf0f58c0,2022-05-11_21h26.24.521,classification_task,2021.2.3,Win32,59.91252771,627c6715c52fd12f31907bcf,,,,,,,,,,,,,,,,,,,,,,,l,0,2.0868,"[""0.241"",""0.415"",""0.883"",""0.710""]","[1,1,1,0]",0,22,22,22,1,0,0,,,1,FALSE,,,,,,,,,,,,,,,,,,,,,,,,,,,,,,,
,613d7f06231b0dca788663fd,627c6faa1fed89d5bf0f58c0,2022-05-11_21h26.24.521,classification_task,2021.2.3,Win32,59.91252771,627c6715c52fd12f31907bcf,,,,,,,,,,,,,,,,,,,,,,,l,1,1.0783,"[""0.129"",""0.307"",""0.717"",""0.776""]","[1,1,0,1]",0,23,23,23,1,1,1,,,1,FALSE,,,,,,,,,,,,,,,,,,,,,,,,,,,,,,,
,613d7f06231b0dca788663fd,627c6faa1fed89d5bf0f58c0,2022-05-11_21h26.24.521,classification_task,2021.2.3,Win32,59.91252771,627c6715c52fd12f31907bcf,,,,,,,,,,,,,,,,,,,,,,,a,0,1.8095,"[""0.509"",""0.095"",""0.565"",""0.841""]","[0,1,1,1]",0,24,24,24,1,1,0,,,1,FALSE,,,,,,,,,,,,,,,,,,,,,,,,,,,,,,,
,613d7f06231b0dca788663fd,627c6faa1fed89d5bf0f58c0,2022-05-11_21h26.24.521,classification_task,2021.2.3,Win32,59.91252771,627c6715c52fd12f31907bcf,,,,,,,,,,,,,,,,,,,,,,,l,1,3.1464,"[""0.129"",""0.307"",""0.670"",""0.350""]","[1,1,1,0]",0,25,25,25,1,1,1,,,1,FALSE,,,,,,,,,,,,,,,,,,,,,,,,,,,,,,,
,613d7f06231b0dca788663fd,627c6faa1fed89d5bf0f58c0,2022-05-11_21h26.24.521,classification_task,2021.2.3,Win32,59.91252771,627c6715c52fd12f31907bcf,,,,,,,,,,,,,,,,,,,,,,,a,0,1.4899,"[""0.039"",""0.095"",""0.565"",""0.359""]","[1,1,1,0]",0,26,26,26,1,1,0,,,1,FALSE,,,,,,,,,,,,,,,,,,,,,,,,,,,,,,,
,613d7f06231b0dca788663fd,627c6faa1fed89d5bf0f58c0,2022-05-11_21h26.24.521,classification_task,2021.2.3,Win32,59.91252771,627c6715c52fd12f31907bcf,,,,,,,,,,,,,,,,,,,,,,,a,1,1.0188,"[""0.186"",""0.454"",""0.710"",""0.928""]","[1,1,0,1]",0,27,27,27,1,0,1,,,1,FALSE,,,,,,,,,,,,,,,,,,,,,,,,,,,,,,,
,613d7f06231b0dca788663fd,627c6faa1fed89d5bf0f58c0,2022-05-11_21h26.24.521,classification_task,2021.2.3,Win32,59.91252771,627c6715c52fd12f31907bcf,,,,,,,,,,,,,,,,,,,,,,,l,1,1.1637,"[""0.039"",""0.733"",""0.565"",""0.841""]","[1,0,1,1]",0,28,28,28,1,1,0,,,1,FALSE,,,,,,,,,,,,,,,,,,,,,,,,,,,,,,,
,613d7f06231b0dca788663fd,627c6faa1fed89d5bf0f58c0,2022-05-11_21h26.24.521,classification_task,2021.2.3,Win32,59.91252771,627c6715c52fd12f31907bcf,,,,,,,,,,,,,,,,,,,,,,,a,1,1.5756,"[""0.502"",""0.454"",""0.623"",""0.928""]","[0,1,1,1]",0,29,29,29,1,0,1,,,1,FALSE,,,,,,,,,,,,,,,,,,,,,,,,,,,,,,,
,613d7f06231b0dca788663fd,627c6faa1fed89d5bf0f58c0,2022-05-11_21h26.24.521,classification_task,2021.2.3,Win32,59.91252771,627c6715c52fd12f31907bcf,,,,,,,,,,,,,,,,,,,,,,,l,0,1.4809,"[""0.355"",""0.415"",""0.883"",""0.973""]","[0,1,1,1]",0,30,30,30,1,0,0,,,1,FALSE,,,,,,,,,,,,,,,,,,,,,,,,,,,,,,,
,613d7f06231b0dca788663fd,627c6faa1fed89d5bf0f58c0,2022-05-11_21h26.24.521,classification_task,2021.2.3,Win32,59.91252771,627c6715c52fd12f31907bcf,,,,,,,,,,,,,,,,,,,,,,,a,1,1.1174,"[""0.186"",""0.509"",""0.623"",""0.928""]","[1,0,1,1]",0,31,31,31,1,0,1,,,1,FALSE,,,,,,,,,,,,,,,,,,,,,,,,,,,,,,,
,613d7f06231b0dca788663fd,627c6faa1fed89d5bf0f58c0,2022-05-11_21h26.24.521,classification_task,2021.2.3,Win32,59.91252771,627c6715c52fd12f31907bcf,,,,,,,,,,,,,,,,,,,,,,,a,1,0.9934,"[""0.186"",""0.454"",""0.731"",""0.928""]","[1,1,0,1]",0,32,32,32,1,0,1,,,1,FALSE,,,,,,,,,,,,,,,,,,,,,,,,,,,,,,,
,613d7f06231b0dca788663fd,627c6faa1fed89d5bf0f58c0,2022-05-11_21h26.24.521,classification_task,2021.2.3,Win32,59.91252771,627c6715c52fd12f31907bcf,,,,,,,,,,,,,,,,,,,,,,,l,1,1.5138,"[""0.039"",""0.371"",""0.565"",""0.841""]","[1,0,1,1]",0,33,33,33,1,1,0,,,1,FALSE,,,,,,,,,,,,,,,,,,,,,,,,,,,,,,,
,613d7f06231b0dca788663fd,627c6faa1fed89d5bf0f58c0,2022-05-11_21h26.24.521,classification_task,2021.2.3,Win32,59.91252771,627c6715c52fd12f31907bcf,,,,,,,,,,,,,,,,,,,,,,,l,1,2.8408,"[""0.129"",""0.307"",""0.509"",""0.776""]","[1,1,0,1]",0,34,34,34,1,1,1,,,1,FALSE,,,,,,,,,,,,,,,,,,,,,,,,,,,,,,,
,613d7f06231b0dca788663fd,627c6faa1fed89d5bf0f58c0,2022-05-11_21h26.24.521,classification_task,2021.2.3,Win32,59.91252771,627c6715c52fd12f31907bcf,,,,,,,,,,,,,,,,,,,,,,,a,0,1.5543,"[""0.039"",""0.095"",""0.565"",""0.733""]","[1,1,1,0]",0,35,35,35,1,1,0,,,1,FALSE,,,,,,,,,,,,,,,,,,,,,,,,,,,,,,,
,613d7f06231b0dca788663fd,627c6faa1fed89d5bf0f58c0,2022-05-11_21h26.24.521,classification_task,2021.2.3,Win32,59.91252771,627c6715c52fd12f31907bcf,,,,,,,,,,,,,,,,,,,,,,,l,1,1.1185,"[""0.129"",""0.307"",""0.670"",""0.350""]","[1,1,1,0]",0,36,36,36,1,1,1,,,1,FALSE,,,,,,,,,,,,,,,,,,,,,,,,,,,,,,,
,613d7f06231b0dca788663fd,627c6faa1fed89d5bf0f58c0,2022-05-11_21h26.24.521,classification_task,2021.2.3,Win32,59.91252771,627c6715c52fd12f31907bcf,,,,,,,,,,,,,,,,,,,,,,,a,1,0.8756,"[""0.186"",""0.454"",""0.623"",""0.359""]","[1,1,1,0]",0,37,37,37,1,0,1,,,1,FALSE,,,,,,,,,,,,,,,,,,,,,,,,,,,,,,,
,613d7f06231b0dca788663fd,627c6faa1fed89d5bf0f58c0,2022-05-11_21h26.24.521,classification_task,2021.2.3,Win32,59.91252771,627c6715c52fd12f31907bcf,,,,,,,,,,,,,,,,,,,,,,,a,1,0.9638,"[""0.241"",""0.415"",""0.731"",""0.973""]","[1,1,0,1]",0,38,38,38,1,0,0,,,1,FALSE,,,,,,,,,,,,,,,,,,,,,,,,,,,,,,,
,613d7f06231b0dca788663fd,627c6faa1fed89d5bf0f58c0,2022-05-11_21h26.24.521,classification_task,2021.2.3,Win32,59.91252771,627c6715c52fd12f31907bcf,,,,,,,,,,,,,,,,,,,,,,,a,1,1.2623,"[""0.371"",""0.454"",""0.623"",""0.928""]","[0,1,1,1]",0,39,39,39,1,0,1,,,1,FALSE,,,,,,,,,,,,,,,,,,,,,,,,,,,,,,,
,613d7f06231b0dca788663fd,627c6faa1fed89d5bf0f58c0,2022-05-11_21h26.24.521,classification_task,2021.2.3,Win32,59.91252771,627c6715c52fd12f31907bcf,,,,,,,,,,,,,,,,,,,,,,,a,1,0.5391,"[""0.186"",""0.731"",""0.623"",""0.928""]","[1,0,1,1]",0,40,40,40,1,0,1,,,1,FALSE,,,,,,,,,,,,,,,,,,,,,,,,,,,,,,,
,613d7f06231b0dca788663fd,627c6faa1fed89d5bf0f58c0,2022-05-11_21h26.24.521,classification_task,2021.2.3,Win32,59.91252771,627c6715c52fd12f31907bcf,,,,,,,,,,,,,,,,,,,,,,,a,0,1.0027,"[""0.039"",""0.095"",""0.502"",""0.841""]","[1,1,0,1]",0,41,41,41,1,1,0,,,1,FALSE,,,,,,,,,,,,,,,,,,,,,,,,,,,,,,,
,613d7f06231b0dca788663fd,627c6faa1fed89d5bf0f58c0,2022-05-11_21h26.24.521,classification_task,2021.2.3,Win32,59.91252771,627c6715c52fd12f31907bcf,,,,,,,,,,,,,,,,,,,,,,,l,0,0.5405,"[""0.355"",""0.415"",""0.883"",""0.973""]","[0,1,1,1]",0,42,42,42,1,0,0,,,1,FALSE,,,,,,,,,,,,,,,,,,,,,,,,,,,,,,,
,613d7f06231b0dca788663fd,627c6faa1fed89d5bf0f58c0,2022-05-11_21h26.24.521,classification_task,2021.2.3,Win32,59.91252771,627c6715c52fd12f31907bcf,,,,,,,,,,,,,,,,,,,,,,,l,1,0.8944,"[""0.717"",""0.307"",""0.670"",""0.776""]","[0,1,1,1]",0,43,43,43,1,1,1,,,1,FALSE,,,,,,,,,,,,,,,,,,,,,,,,,,,,,,,
,613d7f06231b0dca788663fd,627c6faa1fed89d5bf0f58c0,2022-05-11_21h26.24.521,classification_task,2021.2.3,Win32,59.91252771,627c6715c52fd12f31907bcf,,,,,,,,,,,,,,,,,,,,,,,l,0,0.9346,"[""0.241"",""0.350"",""0.883"",""0.973""]","[1,0,1,1]",0,44,44,44,1,0,0,,,1,FALSE,,,,,,,,,,,,,,,,,,,,,,,,,,,,,,,
,613d7f06231b0dca788663fd,627c6faa1fed89d5bf0f58c0,2022-05-11_21h26.24.521,classification_task,2021.2.3,Win32,59.91252771,627c6715c52fd12f31907bcf,,,,,,,,,,,,,,,,,,,,,,,a,0,0.5072,"[""0.717"",""0.095"",""0.565"",""0.841""]","[0,1,1,1]",0,45,45,45,1,1,0,,,1,FALSE,,,,,,,,,,,,,,,,,,,,,,,,,,,,,,,
,613d7f06231b0dca788663fd,627c6faa1fed89d5bf0f58c0,2022-05-11_21h26.24.521,classification_task,2021.2.3,Win32,59.91252771,627c6715c52fd12f31907bcf,,,,,,,,,,,,,,,,,,,,,,,l,0,0.3771,"[""0.241"",""0.415"",""0.883"",""0.731""]","[1,1,1,0]",0,46,46,46,1,0,0,,,1,FALSE,,,,,,,,,,,,,,,,,,,,,,,,,,,,,,,
,613d7f06231b0dca788663fd,627c6faa1fed89d5bf0f58c0,2022-05-11_21h26.24.521,classification_task,2021.2.3,Win32,59.91252771,627c6715c52fd12f31907bcf,,,,,,,,,,,,,,,,,,,,,,,l,1,0.6991,"[""0.129"",""0.717"",""0.670"",""0.776""]","[1,0,1,1]",0,47,47,47,1,1,1,,,1,FALSE,,,,,,,,,,,,,,,,,,,,,,,,,,,,,,,
,613d7f06231b0dca788663fd,627c6faa1fed89d5bf0f58c0,2022-05-11_21h26.24.521,classification_task,2021.2.3,Win32,59.91252771,627c6715c52fd12f31907bcf,,,,,,,,,,,,,,,,,,,,,,,l,1,1.0158,"[""0.129"",""0.307"",""0.670"",""0.355""]","[1,1,1,0]",0,48,48,48,1,1,1,,,1,FALSE,,,,,,,,,,,,,,,,,,,,,,,,,,,,,,,
,613d7f06231b0dca788663fd,627c6faa1fed89d5bf0f58c0,2022-05-11_21h26.24.521,classification_task,2021.2.3,Win32,59.91252771,627c6715c52fd12f31907bcf,,,,,,,,,,,,,,,,,,,,,,,l,0,1.7462,"[""0.371"",""0.415"",""0.883"",""0.973""]","[0,1,1,1]",0,49,49,49,1,0,0,,,1,FALSE,,,,,,,,,,,,,,,,,,,,,,,,,,,,,,,
,613d7f06231b0dca788663fd,627c6faa1fed89d5bf0f58c0,2022-05-11_21h26.24.521,classification_task,2021.2.3,Win32,59.91252771,627c6715c52fd12f31907bcf,,,,,,,,,,,,,,,,,,,,,,,l,1,1.2721,"[""0.039"",""0.095"",""0.733"",""0.841""]","[1,1,0,1]",0,50,50,50,1,1,0,,,1,FALSE,,,,,,,,,,,,,,,,,,,,,,,,,,,,,,,
,613d7f06231b0dca788663fd,627c6faa1fed89d5bf0f58c0,2022-05-11_21h26.24.521,classification_task,2021.2.3,Win32,59.91252771,627c6715c52fd12f31907bcf,,,,,,,,,,,,,,,,,,,,,,,a,1,1.2207,"[""0.186"",""0.454"",""0.732"",""0.928""]","[1,1,0,1]",0,51,51,51,1,0,1,,,1,FALSE,,,,,,,,,,,,,,,,,,,,,,,,,,,,,,,
,613d7f06231b0dca788663fd,627c6faa1fed89d5bf0f58c0,2022-05-11_21h26.24.521,classification_task,2021.2.3,Win32,59.91252771,627c6715c52fd12f31907bcf,,,,,,,,,,,,,,,,,,,,,,,a,0,1.2511,"[""0.705"",""0.095"",""0.565"",""0.841""]","[0,1,1,1]",0,52,52,52,1,1,0,,,1,FALSE,,,,,,,,,,,,,,,,,,,,,,,,,,,,,,,
,613d7f06231b0dca788663fd,627c6faa1fed89d5bf0f58c0,2022-05-11_21h26.24.521,classification_task,2021.2.3,Win32,59.91252771,627c6715c52fd12f31907bcf,,,,,,,,,,,,,,,,,,,,,,,a,0,0.5178,"[""0.129"",""0.732"",""0.670"",""0.776""]","[1,0,1,1]",0,53,53,53,1,1,1,,,1,FALSE,,,,,,,,,,,,,,,,,,,,,,,,,,,,,,,
,613d7f06231b0dca788663fd,627c6faa1fed89d5bf0f58c0,2022-05-11_21h26.24.521,classification_task,2021.2.3,Win32,59.91252771,627c6715c52fd12f31907bcf,,,,,,,,,,,,,,,,,,,,,,,l,1,0.8278,"[""0.129"",""0.307"",""0.731"",""0.776""]","[1,1,0,1]",0,54,54,54,1,1,1,,,1,FALSE,,,,,,,,,,,,,,,,,,,,,,,,,,,,,,,
,613d7f06231b0dca788663fd,627c6faa1fed89d5bf0f58c0,2022-05-11_21h26.24.521,classification_task,2021.2.3,Win32,59.91252771,627c6715c52fd12f31907bcf,,,,,,,,,,,,,,,,,,,,,,,l,1,3.3801,"[""0.039"",""0.717"",""0.565"",""0.841""]","[1,0,1,1]",0,55,55,55,1,1,0,,,1,FALSE,,,,,,,,,,,,,,,,,,,,,,,,,,,,,,,
,613d7f06231b0dca788663fd,627c6faa1fed89d5bf0f58c0,2022-05-11_21h26.24.521,classification_task,2021.2.3,Win32,59.91252771,627c6715c52fd12f31907bcf,,,,,,,,,,,,,,,,,,,,,,,a,1,0.7522,"[""0.731"",""0.454"",""0.623"",""0.928""]","[0,1,1,1]",0,56,56,56,1,0,1,,,1,FALSE,,,,,,,,,,,,,,,,,,,,,,,,,,,,,,,
,613d7f06231b0dca788663fd,627c6faa1fed89d5bf0f58c0,2022-05-11_21h26.24.521,classification_task,2021.2.3,Win32,59.91252771,627c6715c52fd12f31907bcf,,,,,,,,,,,,,,,,,,,,,,,a,1,0.5899,"[""0.186"",""0.732"",""0.623"",""0.928""]","[1,0,1,1]",0,57,57,57,1,0,1,,,1,FALSE,,,,,,,,,,,,,,,,,,,,,,,,,,,,,,,
,613d7f06231b0dca788663fd,627c6faa1fed89d5bf0f58c0,2022-05-11_21h26.24.521,classification_task,2021.2.3,Win32,59.91252771,627c6715c52fd12f31907bcf,,,,,,,,,,,,,,,,,,,,,,,l,1,0.8702,"[""0.350"",""0.307"",""0.670"",""0.776""]","[0,1,1,1]",0,58,58,58,1,1,1,,,1,FALSE,,,,,,,,,,,,,,,,,,,,,,,,,,,,,,,
,613d7f06231b0dca788663fd,627c6faa1fed89d5bf0f58c0,2022-05-11_21h26.24.521,classification_task,2021.2.3,Win32,59.91252771,627c6715c52fd12f31907bcf,,,,,,,,,,,,,,,,,,,,,,,l,0,1.195,"[""0.241"",""0.415"",""0.883"",""0.509""]","[1,1,1,0]",0,59,59,59,1,0,0,,,1,FALSE,,,,,,,,,,,,,,,,,,,,,,,,,,,,,,,
,613d7f06231b0dca788663fd,627c6faa1fed89d5bf0f58c0,2022-05-11_21h26.24.521,classification_task,2021.2.3,Win32,59.91252771,627c6715c52fd12f31907bcf,,,,,,,,,,,,,,,,,,,,,,,a,0,2.2611,"[""0.039"",""0.095"",""0.565"",""0.731""]","[1,1,1,0]",0,60,60,60,1,1,0,,,1,FALSE,,,,,,,,,,,,,,,,,,,,,,,,,,,,,,,
,613d7f06231b0dca788663fd,627c6faa1fed89d5bf0f58c0,2022-05-11_21h26.24.521,classification_task,2021.2.3,Win32,59.91252771,627c6715c52fd12f31907bcf,,,,,,,,,,,,,,,,,,,,,,,l,0,0.8335,"[""0.241"",""0.415"",""0.509"",""0.973""]","[1,1,0,1]",0,61,61,61,1,0,0,,,1,FALSE,,,,,,,,,,,,,,,,,,,,,,,,,,,,,,,
,613d7f06231b0dca788663fd,627c6faa1fed89d5bf0f58c0,2022-05-11_21h26.24.521,classification_task,2021.2.3,Win32,59.91252771,627c6715c52fd12f31907bcf,,,,,,,,,,,,,,,,,,,,,,,a,1,1.1253,"[""0.186"",""0.454"",""0.623"",""0.355""]","[1,1,1,0]",0,62,62,62,1,0,1,,,1,FALSE,,,,,,,,,,,,,,,,,,,,,,,,,,,,,,,
,613d7f06231b0dca788663fd,627c6faa1fed89d5bf0f58c0,2022-05-11_21h26.24.521,classification_task,2021.2.3,Win32,59.91252771,627c6715c52fd12f31907bcf,,,,,,,,,,,,,,,,,,,,,,,a,1,1.3245,"[""0.241"",""0.732"",""0.883"",""0.973""]","[1,0,1,1]",0,63,63,63,1,0,0,,,1,FALSE,,,,,,,,,,,,,,,,,,,,,,,,,,,,,,,
,613d7f06231b0dca788663fd,627c6faa1fed89d5bf0f58c0,2022-05-11_21h26.24.521,classification_task,2021.2.3,Win32,59.91252771,627c6715c52fd12f31907bcf,,,,,,,,,,,,,,,,,,,,,,,,,,,,,,,,,,,,,,,0, ,,0,2.17537478,164.1233,0,1,1,1,1,2,2,,,,,,,,,,,,,,,,,,
,613d7f06231b0dca788663fd,627c6faa1fed89d5bf0f58c0,2022-05-11_21h26.24.521,classification_task,2021.2.3,Win32,59.91252771,627c6715c52fd12f31907bcf,,,,,,,,,,,,,,,,,,,,,,,,,,,,,,,,,,,,,,,1,  ,,0,7.927965168,165.5874,0,1,1,1,1,2,2,,,,,,,,,,,,,,,,,,
,613d7f06231b0dca788663fd,627c6faa1fed89d5bf0f58c0,2022-05-11_21h26.24.521,classification_task,2021.2.3,Win32,59.91252771,627c6715c52fd12f31907bcf,,,,,,,,,,,,,,,,,,,,,,,,,,,,,,,,,,,,,,,2,  ,,0,7.549052028,166.5192,0,1,1,1,1,2,2,,,,,,,,,,,,,,,,,,
,613d7f06231b0dca788663fd,627c6faa1fed89d5bf0f58c0,2022-05-11_21h26.24.521,classification_task,2021.2.3,Win32,59.91252771,627c6715c52fd12f31907bcf,,,,,,,,,,,,,,,,,,,,,,,,,,,,,,,,,,,,,,,,,,,,,0,1,1,1,1,,2,,,,,,,,,,,,,,,,,,
,613d7f06231b0dca788663fd,627c6faa1fed89d5bf0f58c0,2022-05-11_21h26.24.521,classification_task,2021.2.3,Win32,59.91252771,627c6715c52fd12f31907bcf,,,,,,,,,,,,,,,,,,,,,space,5.9921,a,0,2.8165,"[""0.129"",""0.307"",""0.670"",""0.731""]","[1,1,1,0]",0,0,0,0,1,1,1,,,1,FALSE,,,,,,,,,,,,,,,,,,,,,,,,,,,,,,,
,613d7f06231b0dca788663fd,627c6faa1fed89d5bf0f58c0,2022-05-11_21h26.24.521,classification_task,2021.2.3,Win32,59.91252771,627c6715c52fd12f31907bcf,,,,,,,,,,,,,,,,,,,,,,,l,1,1.4551,"[""0.039"",""0.095"",""0.355"",""0.841""]","[1,1,0,1]",0,1,1,1,1,1,0,,,1,FALSE,,,,,,,,,,,,,,,,,,,,,,,,,,,,,,,
,613d7f06231b0dca788663fd,627c6faa1fed89d5bf0f58c0,2022-05-11_21h26.24.521,classification_task,2021.2.3,Win32,59.91252771,627c6715c52fd12f31907bcf,,,,,,,,,,,,,,,,,,,,,,,l,1,1.3908,"[""0.039"",""0.736"",""0.565"",""0.841""]","[1,0,1,1]",0,2,2,2,1,1,0,,,1,FALSE,,,,,,,,,,,,,,,,,,,,,,,,,,,,,,,
,613d7f06231b0dca788663fd,627c6faa1fed89d5bf0f58c0,2022-05-11_21h26.24.521,classification_task,2021.2.3,Win32,59.91252771,627c6715c52fd12f31907bcf,,,,,,,,,,,,,,,,,,,,,,,a,1,1.7094,"[""0.186"",""0.454"",""0.623"",""0.371""]","[1,1,1,0]",0,3,3,3,1,0,1,,,1,FALSE,,,,,,,,,,,,,,,,,,,,,,,,,,,,,,,
,613d7f06231b0dca788663fd,627c6faa1fed89d5bf0f58c0,2022-05-11_21h26.24.521,classification_task,2021.2.3,Win32,59.91252771,627c6715c52fd12f31907bcf,,,,,,,,,,,,,,,,,,,,,,,l,0,1.0108,"[""0.241"",""0.502"",""0.883"",""0.973""]","[1,0,1,1]",0,4,4,4,1,0,0,,,1,FALSE,,,,,,,,,,,,,,,,,,,,,,,,,,,,,,,
,613d7f06231b0dca788663fd,627c6faa1fed89d5bf0f58c0,2022-05-11_21h26.24.521,classification_task,2021.2.3,Win32,59.91252771,627c6715c52fd12f31907bcf,,,,,,,,,,,,,,,,,,,,,,,l,1,1.7601,"[""0.129"",""0.350"",""0.670"",""0.776""]","[1,0,1,1]",0,5,5,5,1,1,1,,,1,FALSE,,,,,,,,,,,,,,,,,,,,,,,,,,,,,,,
,613d7f06231b0dca788663fd,627c6faa1fed89d5bf0f58c0,2022-05-11_21h26.24.521,classification_task,2021.2.3,Win32,59.91252771,627c6715c52fd12f31907bcf,,,,,,,,,,,,,,,,,,,,,,,a,0,1.0641,"[""0.039"",""0.095"",""0.565"",""0.705""]","[1,1,1,0]",0,6,6,6,1,1,0,,,1,FALSE,,,,,,,,,,,,,,,,,,,,,,,,,,,,,,,
,613d7f06231b0dca788663fd,627c6faa1fed89d5bf0f58c0,2022-05-11_21h26.24.521,classification_task,2021.2.3,Win32,59.91252771,627c6715c52fd12f31907bcf,,,,,,,,,,,,,,,,,,,,,,,l,0,0.8656,"[""0.186"",""0.731"",""0.623"",""0.928""]","[1,0,1,1]",0,7,7,7,1,0,1,,,1,FALSE,,,,,,,,,,,,,,,,,,,,,,,,,,,,,,,
,613d7f06231b0dca788663fd,627c6faa1fed89d5bf0f58c0,2022-05-11_21h26.24.521,classification_task,2021.2.3,Win32,59.91252771,627c6715c52fd12f31907bcf,,,,,,,,,,,,,,,,,,,,,,,l,1,0.976,"[""0.736"",""0.307"",""0.670"",""0.776""]","[0,1,1,1]",0,8,8,8,1,1,1,,,1,FALSE,,,,,,,,,,,,,,,,,,,,,,,,,,,,,,,
,613d7f06231b0dca788663fd,627c6faa1fed89d5bf0f58c0,2022-05-11_21h26.24.521,classification_task,2021.2.3,Win32,59.91252771,627c6715c52fd12f31907bcf,,,,,,,,,,,,,,,,,,,,,,,l,1,1.1103,"[""0.502"",""0.095"",""0.565"",""0.841""]","[0,1,1,1]",0,9,9,9,1,1,0,,,1,FALSE,,,,,,,,,,,,,,,,,,,,,,,,,,,,,,,
,613d7f06231b0dca788663fd,627c6faa1fed89d5bf0f58c0,2022-05-11_21h26.24.521,classification_task,2021.2.3,Win32,59.91252771,627c6715c52fd12f31907bcf,,,,,,,,,,,,,,,,,,,,,,,l,0,0.7276,"[""0.241"",""0.415"",""0.883"",""0.732""]","[1,1,1,0]",0,10,10,10,1,0,0,,,1,FALSE,,,,,,,,,,,,,,,,,,,,,,,,,,,,,,,
,613d7f06231b0dca788663fd,627c6faa1fed89d5bf0f58c0,2022-05-11_21h26.24.521,classification_task,2021.2.3,Win32,59.91252771,627c6715c52fd12f31907bcf,,,,,,,,,,,,,,,,,,,,,,,a,0,0.8079,"[""0.129"",""0.307"",""0.509"",""0.776""]","[1,1,0,1]",0,11,11,11,1,1,1,,,1,FALSE,,,,,,,,,,,,,,,,,,,,,,,,,,,,,,,
,613d7f06231b0dca788663fd,627c6faa1fed89d5bf0f58c0,2022-05-11_21h26.24.521,classification_task,2021.2.3,Win32,59.91252771,627c6715c52fd12f31907bcf,,,,,,,,,,,,,,,,,,,,,,,l,0,0.9622,"[""0.355"",""0.454"",""0.623"",""0.928""]","[0,1,1,1]",0,12,12,12,1,0,1,,,1,FALSE,,,,,,,,,,,,,,,,,,,,,,,,,,,,,,,
,613d7f06231b0dca788663fd,627c6faa1fed89d5bf0f58c0,2022-05-11_21h26.24.521,classification_task,2021.2.3,Win32,59.91252771,627c6715c52fd12f31907bcf,,,,,,,,,,,,,,,,,,,,,,,l,0,0.8105,"[""0.241"",""0.415"",""0.732"",""0.973""]","[1,1,0,1]",0,13,13,13,1,0,0,,,1,FALSE,,,,,,,,,,,,,,,,,,,,,,,,,,,,,,,
,613d7f06231b0dca788663fd,627c6faa1fed89d5bf0f58c0,2022-05-11_21h26.24.521,classification_task,2021.2.3,Win32,59.91252771,627c6715c52fd12f31907bcf,,,,,,,,,,,,,,,,,,,,,,,a,1,0.9613,"[""0.186"",""0.454"",""0.710"",""0.928""]","[1,1,0,1]",0,14,14,14,1,0,1,,,1,FALSE,,,,,,,,,,,,,,,,,,,,,,,,,,,,,,,
,613d7f06231b0dca788663fd,627c6faa1fed89d5bf0f58c0,2022-05-11_21h26.24.521,classification_task,2021.2.3,Win32,59.91252771,627c6715c52fd12f31907bcf,,,,,,,,,,,,,,,,,,,,,,,l,0,0.6428,"[""0.731"",""0.415"",""0.883"",""0.973""]","[0,1,1,1]",0,15,15,15,1,0,0,,,1,FALSE,,,,,,,,,,,,,,,,,,,,,,,,,,,,,,,
,613d7f06231b0dca788663fd,627c6faa1fed89d5bf0f58c0,2022-05-11_21h26.24.521,classification_task,2021.2.3,Win32,59.91252771,627c6715c52fd12f31907bcf,,,,,,,,,,,,,,,,,,,,,,,l,0,1.0117,"[""0.186"",""0.736"",""0.623"",""0.928""]","[1,0,1,1]",0,16,16,16,1,0,1,,,1,FALSE,,,,,,,,,,,,,,,,,,,,,,,,,,,,,,,
,613d7f06231b0dca788663fd,627c6faa1fed89d5bf0f58c0,2022-05-11_21h26.24.521,classification_task,2021.2.3,Win32,59.91252771,627c6715c52fd12f31907bcf,,,,,,,,,,,,,,,,,,,,,,,a,0,2.0275,"[""0.710"",""0.307"",""0.670"",""0.776""]","[0,1,1,1]",0,17,17,17,1,1,1,,,1,FALSE,,,,,,,,,,,,,,,,,,,,,,,,,,,,,,,
,613d7f06231b0dca788663fd,627c6faa1fed89d5bf0f58c0,2022-05-11_21h26.24.521,classification_task,2021.2.3,Win32,59.91252771,627c6715c52fd12f31907bcf,,,,,,,,,,,,,,,,,,,,,,,a,1,0.7997,"[""0.186"",""0.454"",""0.623"",""0.733""]","[1,1,1,0]",0,18,18,18,1,0,1,,,1,FALSE,,,,,,,,,,,,,,,,,,,,,,,,,,,,,,,
,613d7f06231b0dca788663fd,627c6faa1fed89d5bf0f58c0,2022-05-11_21h26.24.521,classification_task,2021.2.3,Win32,59.91252771,627c6715c52fd12f31907bcf,,,,,,,,,,,,,,,,,,,,,,,l,0,0.7962,"[""0.509"",""0.415"",""0.883"",""0.973""]","[0,1,1,1]",0,19,19,19,1,0,0,,,1,FALSE,,,,,,,,,,,,,,,,,,,,,,,,,,,,,,,
,613d7f06231b0dca788663fd,627c6faa1fed89d5bf0f58c0,2022-05-11_21h26.24.521,classification_task,2021.2.3,Win32,59.91252771,627c6715c52fd12f31907bcf,,,,,,,,,,,,,,,,,,,,,,,a,0,0.6991,"[""0.129"",""0.509"",""0.670"",""0.776""]","[1,0,1,1]",0,20,20,20,1,1,1,,,1,FALSE,,,,,,,,,,,,,,,,,,,,,,,,,,,,,,,
,613d7f06231b0dca788663fd,627c6faa1fed89d5bf0f58c0,2022-05-11_21h26.24.521,classification_task,2021.2.3,Win32,59.91252771,627c6715c52fd12f31907bcf,,,,,,,,,,,,,,,,,,,,,,,l,0,0.8119,"[""0.241"",""0.359"",""0.883"",""0.973""]","[1,0,1,1]",0,21,21,21,1,0,0,,,1,FALSE,,,,,,,,,,,,,,,,,,,,,,,,,,,,,,,
,613d7f06231b0dca788663fd,627c6faa1fed89d5bf0f58c0,2022-05-11_21h26.24.521,classification_task,2021.2.3,Win32,59.91252771,627c6715c52fd12f31907bcf,,,,,,,,,,,,,,,,,,,,,,,a,0,1.5966,"[""0.129"",""0.307"",""0.670"",""0.355""]","[1,1,1,0]",0,22,22,22,1,1,1,,,1,FALSE,,,,,,,,,,,,,,,,,,,,,,,,,,,,,,,
,613d7f06231b0dca788663fd,627c6faa1fed89d5bf0f58c0,2022-05-11_21h26.24.521,classification_task,2021.2.3,Win32,59.91252771,627c6715c52fd12f31907bcf,,,,,,,,,,,,,,,,,,,,,,,a,0,1.452,"[""0.129"",""0.307"",""0.502"",""0.776""]","[1,1,0,1]",0,23,23,23,1,1,1,,,1,FALSE,,,,,,,,,,,,,,,,,,,,,,,,,,,,,,,
,613d7f06231b0dca788663fd,627c6faa1fed89d5bf0f58c0,2022-05-11_21h26.24.521,classification_task,2021.2.3,Win32,59.91252771,627c6715c52fd12f31907bcf,,,,,,,,,,,,,,,,,,,,,,,l,0,1.2779,"[""0.241"",""0.415"",""0.883"",""0.509""]","[1,1,1,0]",0,24,24,24,1,0,0,,,1,FALSE,,,,,,,,,,,,,,,,,,,,,,,,,,,,,,,
,613d7f06231b0dca788663fd,627c6faa1fed89d5bf0f58c0,2022-05-11_21h26.24.521,classification_task,2021.2.3,Win32,59.91252771,627c6715c52fd12f31907bcf,,,,,,,,,,,,,,,,,,,,,,,l,0,0.6841,"[""0.241"",""0.415"",""0.717"",""0.973""]","[1,1,0,1]",0,25,25,25,1,0,0,,,1,FALSE,,,,,,,,,,,,,,,,,,,,,,,,,,,,,,,
,613d7f06231b0dca788663fd,627c6faa1fed89d5bf0f58c0,2022-05-11_21h26.24.521,classification_task,2021.2.3,Win32,59.91252771,627c6715c52fd12f31907bcf,,,,,,,,,,,,,,,,,,,,,,,a,0,0.66,"[""0.039"",""0.095"",""0.717"",""0.841""]","[1,1,0,1]",0,26,26,26,1,1,0,,,1,FALSE,,,,,,,,,,,,,,,,,,,,,,,,,,,,,,,
,613d7f06231b0dca788663fd,627c6faa1fed89d5bf0f58c0,2022-05-11_21h26.24.521,classification_task,2021.2.3,Win32,59.91252771,627c6715c52fd12f31907bcf,,,,,,,,,,,,,,,,,,,,,,,a,0,0.7946,"[""0.039"",""0.095"",""0.565"",""0.359""]","[1,1,1,0]",0,27,27,27,1,1,0,,,1,FALSE,,,,,,,,,,,,,,,,,,,,,,,,,,,,,,,
,613d7f06231b0dca788663fd,627c6faa1fed89d5bf0f58c0,2022-05-11_21h26.24.521,classification_task,2021.2.3,Win32,59.91252771,627c6715c52fd12f31907bcf,,,,,,,,,,,,,,,,,,,,,,,l,0,0.6797,"[""0.736"",""0.454"",""0.623"",""0.928""]","[0,1,1,1]",0,28,28,28,1,0,1,,,1,FALSE,,,,,,,,,,,,,,,,,,,,,,,,,,,,,,,
,613d7f06231b0dca788663fd,627c6faa1fed89d5bf0f58c0,2022-05-11_21h26.24.521,classification_task,2021.2.3,Win32,59.91252771,627c6715c52fd12f31907bcf,,,,,,,,,,,,,,,,,,,,,,,l,0,0.7299,"[""0.186"",""0.454"",""0.731"",""0.928""]","[1,1,0,1]",0,29,29,29,1,0,1,,,1,FALSE,,,,,,,,,,,,,,,,,,,,,,,,,,,,,,,
,613d7f06231b0dca788663fd,627c6faa1fed89d5bf0f58c0,2022-05-11_21h26.24.521,classification_task,2021.2.3,Win32,59.91252771,627c6715c52fd12f31907bcf,,,,,,,,,,,,,,,,,,,,,,,l,1,1.6115,"[""0.502"",""0.095"",""0.565"",""0.841""]","[0,1,1,1]",0,30,30,30,1,1,0,,,1,FALSE,,,,,,,,,,,,,,,,,,,,,,,,,,,,,,,
,613d7f06231b0dca788663fd,627c6faa1fed89d5bf0f58c0,2022-05-11_21h26.24.521,classification_task,2021.2.3,Win32,59.91252771,627c6715c52fd12f31907bcf,,,,,,,,,,,,,,,,,,,,,,,l,1,1.8031,"[""0.039"",""0.705"",""0.565"",""0.841""]","[1,0,1,1]",0,31,31,31,1,1,0,,,1,FALSE,,,,,,,,,,,,,,,,,,,,,,,,,,,,,,,
,613d7f06231b0dca788663fd,627c6faa1fed89d5bf0f58c0,2022-05-11_21h26.24.521,classification_task,2021.2.3,Win32,59.91252771,627c6715c52fd12f31907bcf,,,,,,,,,,,,,,,,,,,,,,,a,1,0.7014,"[""0.186"",""0.454"",""0.623"",""0.736""]","[1,1,1,0]",0,32,32,32,1,0,1,,,1,FALSE,,,,,,,,,,,,,,,,,,,,,,,,,,,,,,,
,613d7f06231b0dca788663fd,627c6faa1fed89d5bf0f58c0,2022-05-11_21h26.24.521,classification_task,2021.2.3,Win32,59.91252771,627c6715c52fd12f31907bcf,,,,,,,,,,,,,,,,,,,,,,,a,0,0.7304,"[""0.129"",""0.307"",""0.732"",""0.776""]","[1,1,0,1]",0,33,33,33,1,1,1,,,1,FALSE,,,,,,,,,,,,,,,,,,,,,,,,,,,,,,,
,613d7f06231b0dca788663fd,627c6faa1fed89d5bf0f58c0,2022-05-11_21h26.24.521,classification_task,2021.2.3,Win32,59.91252771,627c6715c52fd12f31907bcf,,,,,,,,,,,,,,,,,,,,,,,l,0,0.5765,"[""0.710"",""0.415"",""0.883"",""0.973""]","[0,1,1,1]",0,34,34,34,1,0,0,,,1,FALSE,,,,,,,,,,,,,,,,,,,,,,,,,,,,,,,
,613d7f06231b0dca788663fd,627c6faa1fed89d5bf0f58c0,2022-05-11_21h26.24.521,classification_task,2021.2.3,Win32,59.91252771,627c6715c52fd12f31907bcf,,,,,,,,,,,,,,,,,,,,,,,l,0,1.2956,"[""0.241"",""0.415"",""0.705"",""0.973""]","[1,1,0,1]",0,35,35,35,1,0,0,,,1,FALSE,,,,,,,,,,,,,,,,,,,,,,,,,,,,,,,
,613d7f06231b0dca788663fd,627c6faa1fed89d5bf0f58c0,2022-05-11_21h26.24.521,classification_task,2021.2.3,Win32,59.91252771,627c6715c52fd12f31907bcf,,,,,,,,,,,,,,,,,,,,,,,a,0,0.6073,"[""0.509"",""0.095"",""0.565"",""0.841""]","[0,1,1,1]",0,36,36,36,1,1,0,,,1,FALSE,,,,,,,,,,,,,,,,,,,,,,,,,,,,,,,
,613d7f06231b0dca788663fd,627c6faa1fed89d5bf0f58c0,2022-05-11_21h26.24.521,classification_task,2021.2.3,Win32,59.91252771,627c6715c52fd12f31907bcf,,,,,,,,,,,,,,,,,,,,,,,a,0,0.5955,"[""0.039"",""0.095"",""0.371"",""0.841""]","[1,1,0,1]",0,37,37,37,1,1,0,,,1,FALSE,,,,,,,,,,,,,,,,,,,,,,,,,,,,,,,
,613d7f06231b0dca788663fd,627c6faa1fed89d5bf0f58c0,2022-05-11_21h26.24.521,classification_task,2021.2.3,Win32,59.91252771,627c6715c52fd12f31907bcf,,,,,,,,,,,,,,,,,,,,,,,l,0,0.7781,"[""0.241"",""0.415"",""0.883"",""0.731""]","[1,1,1,0]",0,38,38,38,1,0,0,,,1,FALSE,,,,,,,,,,,,,,,,,,,,,,,,,,,,,,,
,613d7f06231b0dca788663fd,627c6faa1fed89d5bf0f58c0,2022-05-11_21h26.24.521,classification_task,2021.2.3,Win32,59.91252771,627c6715c52fd12f31907bcf,,,,,,,,,,,,,,,,,,,,,,,a,1,0.6091,"[""0.186"",""0.454"",""0.705"",""0.928""]","[1,1,0,1]",0,39,39,39,1,0,1,,,1,FALSE,,,,,,,,,,,,,,,,,,,,,,,,,,,,,,,
,613d7f06231b0dca788663fd,627c6faa1fed89d5bf0f58c0,2022-05-11_21h26.24.521,classification_task,2021.2.3,Win32,59.91252771,627c6715c52fd12f31907bcf,,,,,,,,,,,,,,,,,,,,,,,l,1,0.529,"[""0.129"",""0.307"",""0.670"",""0.371""]","[1,1,1,0]",0,40,40,40,1,1,1,,,1,FALSE,,,,,,,,,,,,,,,,,,,,,,,,,,,,,,,
,613d7f06231b0dca788663fd,627c6faa1fed89d5bf0f58c0,2022-05-11_21h26.24.521,classification_task,2021.2.3,Win32,59.91252771,627c6715c52fd12f31907bcf,,,,,,,,,,,,,,,,,,,,,,,l,0,0.5412,"[""0.241"",""0.509"",""0.883"",""0.973""]","[1,0,1,1]",0,41,41,41,1,0,0,,,1,FALSE,,,,,,,,,,,,,,,,,,,,,,,,,,,,,,,
,613d7f06231b0dca788663fd,627c6faa1fed89d5bf0f58c0,2022-05-11_21h26.24.521,classification_task,2021.2.3,Win32,59.91252771,627c6715c52fd12f31907bcf,,,,,,,,,,,,,,,,,,,,,,,a,0,1.0315,"[""0.039"",""0.095"",""0.565"",""0.509""]","[1,1,1,0]",0,42,42,42,1,1,0,,,1,FALSE,,,,,,,,,,,,,,,,,,,,,,,,,,,,,,,
,613d7f06231b0dca788663fd,627c6faa1fed89d5bf0f58c0,2022-05-11_21h26.24.521,classification_task,2021.2.3,Win32,59.91252771,627c6715c52fd12f31907bcf,,,,,,,,,,,,,,,,,,,,,,,l,1,0.6243,"[""0.129"",""0.731"",""0.670"",""0.776""]","[1,0,1,1]",0,43,43,43,1,1,1,,,1,FALSE,,,,,,,,,,,,,,,,,,,,,,,,,,,,,,,
,613d7f06231b0dca788663fd,627c6faa1fed89d5bf0f58c0,2022-05-11_21h26.24.521,classification_task,2021.2.3,Win32,59.91252771,627c6715c52fd12f31907bcf,,,,,,,,,,,,,,,,,,,,,,,l,0,0.9583,"[""0.502"",""0.454"",""0.623"",""0.928""]","[0,1,1,1]",0,44,44,44,1,0,1,,,1,FALSE,,,,,,,,,,,,,,,,,,,,,,,,,,,,,,,
,613d7f06231b0dca788663fd,627c6faa1fed89d5bf0f58c0,2022-05-11_21h26.24.521,classification_task,2021.2.3,Win32,59.91252771,627c6715c52fd12f31907bcf,,,,,,,,,,,,,,,,,,,,,,,a,1,0.525,"[""0.186"",""0.355"",""0.623"",""0.928""]","[1,0,1,1]",0,45,45,45,1,0,1,,,1,FALSE,,,,,,,,,,,,,,,,,,,,,,,,,,,,,,,
,613d7f06231b0dca788663fd,627c6faa1fed89d5bf0f58c0,2022-05-11_21h26.24.521,classification_task,2021.2.3,Win32,59.91252771,627c6715c52fd12f31907bcf,,,,,,,,,,,,,,,,,,,,,,,l,1,0.8754,"[""0.733"",""0.307"",""0.670"",""0.776""]","[0,1,1,1]",0,46,46,46,1,1,1,,,1,FALSE,,,,,,,,,,,,,,,,,,,,,,,,,,,,,,,
,613d7f06231b0dca788663fd,627c6faa1fed89d5bf0f58c0,2022-05-11_21h26.24.521,classification_task,2021.2.3,Win32,59.91252771,627c6715c52fd12f31907bcf,,,,,,,,,,,,,,,,,,,,,,,a,0,0.5774,"[""0.039"",""0.731"",""0.565"",""0.841""]","[1,0,1,1]",0,47,47,47,1,1,0,,,1,FALSE,,,,,,,,,,,,,,,,,,,,,,,,,,,,,,,
,613d7f06231b0dca788663fd,627c6faa1fed89d5bf0f58c0,2022-05-11_21h26.24.521,classification_task,2021.2.3,Win32,59.91252771,627c6715c52fd12f31907bcf,,,,,,,,,,,,,,,,,,,,,,,a,0,0.6112,"[""0.039"",""0.350"",""0.565"",""0.841""]","[1,0,1,1]",0,48,48,48,1,1,0,,,1,FALSE,,,,,,,,,,,,,,,,,,,,,,,,,,,,,,,
,613d7f06231b0dca788663fd,627c6faa1fed89d5bf0f58c0,2022-05-11_21h26.24.521,classification_task,2021.2.3,Win32,59.91252771,627c6715c52fd12f31907bcf,,,,,,,,,,,,,,,,,,,,,,,a,0,0.4792,"[""0.731"",""0.095"",""0.565"",""0.841""]","[0,1,1,1]",0,49,49,49,1,1,0,,,1,FALSE,,,,,,,,,,,,,,,,,,,,,,,,,,,,,,,
,613d7f06231b0dca788663fd,627c6faa1fed89d5bf0f58c0,2022-05-11_21h26.24.521,classification_task,2021.2.3,Win32,59.91252771,627c6715c52fd12f31907bcf,,,,,,,,,,,,,,,,,,,,,,,a,0,0.8082,"[""0.129"",""0.307"",""0.670"",""0.504""]","[1,1,1,0]",0,50,50,50,1,1,1,,,1,FALSE,,,,,,,,,,,,,,,,,,,,,,,,,,,,,,,
,613d7f06231b0dca788663fd,627c6faa1fed89d5bf0f58c0,2022-05-11_21h26.24.521,classification_task,2021.2.3,Win32,59.91252771,627c6715c52fd12f31907bcf,,,,,,,,,,,,,,,,,,,,,,,l,1,0.6286,"[""0.129"",""0.732"",""0.670"",""0.776""]","[1,0,1,1]",0,51,51,51,1,1,1,,,1,FALSE,,,,,,,,,,,,,,,,,,,,,,,,,,,,,,,
,613d7f06231b0dca788663fd,627c6faa1fed89d5bf0f58c0,2022-05-11_21h26.24.521,classification_task,2021.2.3,Win32,59.91252771,627c6715c52fd12f31907bcf,,,,,,,,,,,,,,,,,,,,,,,l,0,0.7443,"[""0.509"",""0.415"",""0.883"",""0.973""]","[0,1,1,1]",0,52,52,52,1,0,0,,,1,FALSE,,,,,,,,,,,,,,,,,,,,,,,,,,,,,,,
,613d7f06231b0dca788663fd,627c6faa1fed89d5bf0f58c0,2022-05-11_21h26.24.521,classification_task,2021.2.3,Win32,59.91252771,627c6715c52fd12f31907bcf,,,,,,,,,,,,,,,,,,,,,,,a,0,1.7456,"[""0.039"",""0.095"",""0.565"",""0.717""]","[1,1,1,0]",0,53,53,53,1,1,0,,,1,FALSE,,,,,,,,,,,,,,,,,,,,,,,,,,,,,,,
,613d7f06231b0dca788663fd,627c6faa1fed89d5bf0f58c0,2022-05-11_21h26.24.521,classification_task,2021.2.3,Win32,59.91252771,627c6715c52fd12f31907bcf,,,,,,,,,,,,,,,,,,,,,,,l,0,0.656,"[""0.241"",""0.415"",""0.371"",""0.973""]","[1,1,0,1]",0,54,54,54,1,0,0,,,1,FALSE,,,,,,,,,,,,,,,,,,,,,,,,,,,,,,,
,613d7f06231b0dca788663fd,627c6faa1fed89d5bf0f58c0,2022-05-11_21h26.24.521,classification_task,2021.2.3,Win32,59.91252771,627c6715c52fd12f31907bcf,,,,,,,,,,,,,,,,,,,,,,,a,0,0.5327,"[""0.039"",""0.095"",""0.731"",""0.841""]","[1,1,0,1]",0,55,55,55,1,1,0,,,1,FALSE,,,,,,,,,,,,,,,,,,,,,,,,,,,,,,,
,613d7f06231b0dca788663fd,627c6faa1fed89d5bf0f58c0,2022-05-11_21h26.24.521,classification_task,2021.2.3,Win32,59.91252771,627c6715c52fd12f31907bcf,,,,,,,,,,,,,,,,,,,,,,,l,1,0.7065,"[""0.705"",""0.307"",""0.670"",""0.776""]","[0,1,1,1]",0,56,56,56,1,1,1,,,1,FALSE,,,,,,,,,,,,,,,,,,,,,,,,,,,,,,,
,613d7f06231b0dca788663fd,627c6faa1fed89d5bf0f58c0,2022-05-11_21h26.24.521,classification_task,2021.2.3,Win32,59.91252771,627c6715c52fd12f31907bcf,,,,,,,,,,,,,,,,,,,,,,,l,0,0.6801,"[""0.241"",""0.350"",""0.883"",""0.973""]","[1,0,1,1]",0,57,57,57,1,0,0,,,1,FALSE,,,,,,,,,,,,,,,,,,,,,,,,,,,,,,,
,613d7f06231b0dca788663fd,627c6faa1fed89d5bf0f58c0,2022-05-11_21h26.24.521,classification_task,2021.2.3,Win32,59.91252771,627c6715c52fd12f31907bcf,,,,,,,,,,,,,,,,,,,,,,,l,0,0.6383,"[""0.186"",""0.454"",""0.623"",""0.733""]","[1,1,1,0]",0,58,58,58,1,0,1,,,1,FALSE,,,,,,,,,,,,,,,,,,,,,,,,,,,,,,,
,613d7f06231b0dca788663fd,627c6faa1fed89d5bf0f58c0,2022-05-11_21h26.24.521,classification_task,2021.2.3,Win32,59.91252771,627c6715c52fd12f31907bcf,,,,,,,,,,,,,,,,,,,,,,,l,0,0.4951,"[""0.186"",""0.454"",""0.350"",""0.928""]","[1,1,0,1]",0,59,59,59,1,0,1,,,1,FALSE,,,,,,,,,,,,,,,,,,,,,,,,,,,,,,,
,613d7f06231b0dca788663fd,627c6faa1fed89d5bf0f58c0,2022-05-11_21h26.24.521,classification_task,2021.2.3,Win32,59.91252771,627c6715c52fd12f31907bcf,,,,,,,,,,,,,,,,,,,,,,,l,0,0.6609,"[""0.736"",""0.454"",""0.623"",""0.928""]","[0,1,1,1]",0,60,60,60,1,0,1,,,1,FALSE,,,,,,,,,,,,,,,,,,,,,,,,,,,,,,,
,613d7f06231b0dca788663fd,627c6faa1fed89d5bf0f58c0,2022-05-11_21h26.24.521,classification_task,2021.2.3,Win32,59.91252771,627c6715c52fd12f31907bcf,,,,,,,,,,,,,,,,,,,,,,,a,0,0.4775,"[""0.129"",""0.307"",""0.355"",""0.776""]","[1,1,0,1]",0,61,61,61,1,1,1,,,1,FALSE,,,,,,,,,,,,,,,,,,,,,,,,,,,,,,,
,613d7f06231b0dca788663fd,627c6faa1fed89d5bf0f58c0,2022-05-11_21h26.24.521,classification_task,2021.2.3,Win32,59.91252771,627c6715c52fd12f31907bcf,,,,,,,,,,,,,,,,,,,,,,,a,1,0.3769,"[""0.241"",""0.415"",""0.883"",""0.710""]","[1,1,1,0]",0,62,62,62,1,0,0,,,1,FALSE,,,,,,,,,,,,,,,,,,,,,,,,,,,,,,,
,613d7f06231b0dca788663fd,627c6faa1fed89d5bf0f58c0,2022-05-11_21h26.24.521,classification_task,2021.2.3,Win32,59.91252771,627c6715c52fd12f31907bcf,,,,,,,,,,,,,,,,,,,,,,,l,0,0.5098,"[""0.186"",""0.717"",""0.623"",""0.928""]","[1,0,1,1]",0,63,63,63,1,0,1,,,1,FALSE,,,,,,,,,,,,,,,,,,,,,,,,,,,,,,,
,613d7f06231b0dca788663fd,627c6faa1fed89d5bf0f58c0,2022-05-11_21h26.24.521,classification_task,2021.2.3,Win32,59.91252771,627c6715c52fd12f31907bcf,,,,,,,,,,,,,,,,,,,,,,,,,,,,,,,,,,,,,,,0, ,,0,0.694168871,133.7934,0,2,2,2,1,2,3,,,,,,,,,,,,,,,,,,
,613d7f06231b0dca788663fd,627c6faa1fed89d5bf0f58c0,2022-05-11_21h26.24.521,classification_task,2021.2.3,Win32,59.91252771,627c6715c52fd12f31907bcf,,,,,,,,,,,,,,,,,,,,,,,,,,,,,,,,,,,,,,,1,  ,,0,2.072034832,136.6045,0,2,2,2,1,2,3,,,,,,,,,,,,,,,,,,
,613d7f06231b0dca788663fd,627c6faa1fed89d5bf0f58c0,2022-05-11_21h26.24.521,classification_task,2021.2.3,Win32,59.91252771,627c6715c52fd12f31907bcf,,,,,,,,,,,,,,,,,,,,,,,,,,,,,,,,,,,,,,,2,  ,,0,9.133597884,137.5556,0,2,2,2,1,2,3,,,,,,,,,,,,,,,,,,
,613d7f06231b0dca788663fd,627c6faa1fed89d5bf0f58c0,2022-05-11_21h26.24.521,classification_task,2021.2.3,Win32,59.91252771,627c6715c52fd12f31907bcf,,,,,,,,,,,,,,,,,,,,,,,,,,,,,,,,,,,,,,,,,,,,,0,2,2,2,1,,3,,,,,,,,,,,,,,,,,,
,613d7f06231b0dca788663fd,627c6faa1fed89d5bf0f58c0,2022-05-11_21h26.24.521,classification_task,2021.2.3,Win32,59.91252771,627c6715c52fd12f31907bcf,,,,,,,,,,,,,,,,,,,,,,,,,,,,,,,,,,,,,,,,,,,,,,,,,,,,,I believe the aid is a competent performer,,0.7,0,4,891.4351,0,0,0,0,1,0,,,,,
,613d7f06231b0dca788663fd,627c6faa1fed89d5bf0f58c0,2022-05-11_21h26.24.521,classification_task,2021.2.3,Win32,59.91252771,627c6715c52fd12f31907bcf,,,,,,,,,,,,,,,,,,,,,,,,,,,,,,,,,,,,,,,,,,,,,,,,,,,,,I trust the aid,,0.7,0,2,893.7151,0,0,0,0,1,0,,,,,
,613d7f06231b0dca788663fd,627c6faa1fed89d5bf0f58c0,2022-05-11_21h26.24.521,classification_task,2021.2.3,Win32,59.91252771,627c6715c52fd12f31907bcf,,,,,,,,,,,,,,,,,,,,,,,,,,,,,,,,,,,,,,,,,,,,,,,,,,,,,I have confidence in the advice given by the aid,,0.7,0,3,895.1768,0,0,0,0,1,0,,,,,
,613d7f06231b0dca788663fd,627c6faa1fed89d5bf0f58c0,2022-05-11_21h26.24.521,classification_task,2021.2.3,Win32,59.91252771,627c6715c52fd12f31907bcf,,,,,,,,,,,,,,,,,,,,,,,,,,,,,,,,,,,,,,,,,,,,,,,,,,,,,I can depend on the aid,,0.7,0,4,896.5108,0,0,0,0,1,0,,,,,
,613d7f06231b0dca788663fd,627c6faa1fed89d5bf0f58c0,2022-05-11_21h26.24.521,classification_task,2021.2.3,Win32,59.91252771,627c6715c52fd12f31907bcf,,,,,,,,,,,,,,,,,,,,,,,,,,,,,,,,,,,,,,,,,,,,,,,,,,,,,I can rely on the aid to behave in consistent ways,,0.7,0,4,898.0722,0,0,0,0,1,0,,,,,
,613d7f06231b0dca788663fd,627c6faa1fed89d5bf0f58c0,2022-05-11_21h26.24.521,classification_task,2021.2.3,Win32,59.91252771,627c6715c52fd12f31907bcf,,,,,,,,,,,,,,,,,,,,,,,,,,,,,,,,,,,,,,,,,,,,,,,,,,,,,I can rely on the aid to do its best every time I take its advice,,0.7,0,2,900.3839,0,0,0,0,1,0,,,,,
,613d7f06231b0dca788663fd,627c6faa1fed89d5bf0f58c0,2022-05-11_21h26.24.521,classification_task,2021.2.3,Win32,59.91252771,627c6715c52fd12f31907bcf,,,,,,,,,,,,,,,,,,,,,,,,,,,,,,,,,,,,,,,,,,,,,,,,,,,,,"On trials you completed with assistance from the aid, how frequently did you think the aid was correct?",,0.7,0,80%,,0,0,0,0,1,0,,,,,
,613d7f06231b0dca788663fd,627c6faa1fed89d5bf0f58c0,2022-05-11_21h26.24.521,classification_task,2021.2.3,Win32,59.91252771,627c6715c52fd12f31907bcf,,,,,,,,,,,,,,,,,,,,,,,,,,,,,,,,,,,,,,,,,,,,,,,,,,,,,"On trials you completed without the aid, how frequently did you think you were correct?",,0.7,0,20%,,0,0,0,0,1,0,,,,,
,613d7f06231b0dca788663fd,627c6faa1fed89d5bf0f58c0,2022-05-11_21h26.24.521,classification_task,2021.2.3,Win32,59.91252771,627c6715c52fd12f31907bcf,,,,,,,,,,,,,,,,,,,,,,,,,,,,,,,,,,,,,,,,,,,,,,,,,,,,,,,,,,,0,0,0,0,1,,,,,,
,613d7f06231b0dca788663fd,627c6faa1fed89d5bf0f58c0,2022-05-11_21h26.24.521,classification_task,2021.2.3,Win32,59.91252771,627c6715c52fd12f31907bcf,,,,,,,,,,,,,,,,,,,,,,,,,,,,,,,,,,,,,,,,,,,,,,,,,,,,,,,,,,,,,,,,,space,1.7008,923.2795,,
,613d7f06231b0dca788663fd,627c6faa1fed89d5bf0f58c0,2022-05-11_21h26.24.521,classification_task,2021.2.3,Win32,59.91252771,627c6715c52fd12f31907bcf,,,,,,,,,,,,,,,,,,,,,,,,,,,,,,,,,,,,,,,,,,,,,,,,,,,,,,,,,,,,,,,,,,,,"Mozilla/5.0 (Windows NT 10.0; Win64; x64) AppleWebKit/537.36 (KHTML, like Gecko) Chrome/101.0.4951.54 Safari/537.36",
,613d7f06231b0dca788663fd,627c6faa1fed89d5bf0f58c0,2022-05-11_21h26.24.521,classification_task,2021.2.3,Win32,59.91252771,627c6715c52fd12f31907bcf,,,,,,,,,,,,,,,,,,,,,,,,,,,,,,,,,,,,,,,,,,,,,,,,,,,,,,,,,,,,,,,,,,,,,FADING
