usingWebGL,participant,session,date,expName,psychopyVersion,OS,frameRate,PROLIFIC_PID,STUDY_ID,SESSION_ID,signatures_friend,signatures_foe,band_ranges_top,band_ranges_bottom,formitemText,formtype,formundefined,formitemWidth,formindex,formresponse,formrt,key_resp_2.keys,key_resp_2.rt,tute_resp.keys,tute_resp.rt,tutorial.thisRepN,tutorial.thisTrialN,tutorial.thisN,tutorial.thisIndex,tutorial.ran,key_resp_4.keys,key_resp_4.rt,key_resp.keys,key_resp.corr,lines_presented,is_signal_presented,trials.thisRepN,trials.thisTrialN,trials.thisN,trials.thisIndex,trials.ran,vessel,active_band,lines,is_signal,supported_pos,catch_trial,key_resp.rt,debrief_formindex,debrief_formitemText,debrief_formtype,debrief_formitemWidth,debrief_formresponse,debrief_formrt,phases.thisRepN,phases.thisTrialN,phases.thisN,phases.thisIndex,phases.ran,phases.order,phase,key_resp_3.keys,trustitemText,trusttype,trustitemWidth,trustindex,trustresponse,trustrt,support_status.thisRepN,support_status.thisTrialN,support_status.thisN,support_status.thisIndex,support_status.ran,support_status.order,key_resp_5.keys,key_resp_5.rt,globalClockTime,userAgent
TRUE,613d45bab7d3d7088986829f,001,2022-04-28_20h16.09.615,classification_task,2021.2.3,Win32,60.24822268,613d45bab7d3d7088986829f,626b377229c10585ec392f8a,626b3a9f79a56aa03a14ab38,,,,,,,,,,,,,,,,,,,,,,,,,,,,,,,,,,,,,,,,,,,,,,,,,,,,,,,,,,,,,,,,,,,,
,613d45bab7d3d7088986829f,001,2022-04-28_20h16.09.615,classification_task,2021.2.3,Win32,60.24822268,613d45bab7d3d7088986829f,626b377229c10585ec392f8a,626b3a9f79a56aa03a14ab38,"[[""0.315"",""0.503"",""0.660"",""0.857""],[""0.274"",""0.446"",""0.907"",""0.973""]]","[[""0.094"",""0.224"",""0.614"",""0.733""],[""0.055"",""0.137"",""0.574"",""0.784""]]","[1,10]","[100,1000]",Video game experience,,,0.7,0,,,,,,,,,,,,,,,,,,,,,,,,,,,,,,,,,,,,,,,,,,,,,,,,,,,,,,,,,,,
,613d45bab7d3d7088986829f,001,2022-04-28_20h16.09.615,classification_task,2021.2.3,Win32,60.24822268,613d45bab7d3d7088986829f,626b377229c10585ec392f8a,626b3a9f79a56aa03a14ab38,,,,,Approximately how many hours did you spend playing video games in the last week?,,,0.7,0,0,,,,,,,,,,,,,,,,,,,,,,,,,,,,,,,,,,,,,,,,,,,,,,,,,,,,,,,,,,
,613d45bab7d3d7088986829f,001,2022-04-28_20h16.09.615,classification_task,2021.2.3,Win32,60.24822268,613d45bab7d3d7088986829f,626b377229c10585ec392f8a,626b3a9f79a56aa03a14ab38,,,,,"Which game did you play the most this year? (Enter ""None"" if you didn't play any)",,,0.7,0,none,,,,,,,,,,,,,,,,,,,,,,,,,,,,,,,,,,,,,,,,,,,,,,,,,,,,,,,,,,
,613d45bab7d3d7088986829f,001,2022-04-28_20h16.09.615,classification_task,2021.2.3,Win32,60.24822268,613d45bab7d3d7088986829f,626b377229c10585ec392f8a,626b3a9f79a56aa03a14ab38,,,,,Visual perception,,,0.7,0,,,,,,,,,,,,,,,,,,,,,,,,,,,,,,,,,,,,,,,,,,,,,,,,,,,,,,,,,,,
,613d45bab7d3d7088986829f,001,2022-04-28_20h16.09.615,classification_task,2021.2.3,Win32,60.24822268,613d45bab7d3d7088986829f,626b377229c10585ec392f8a,626b3a9f79a56aa03a14ab38,,,,,Do you have any form of color blindness?,,,0.7,0,No,45.396,,,,,,,,,,,,,,,,,,,,,,,,,,,,,,,,,,,,,,,,,,,,,,,,,,,,,,,,,
,613d45bab7d3d7088986829f,001,2022-04-28_20h16.09.615,classification_task,2021.2.3,Win32,60.24822268,613d45bab7d3d7088986829f,626b377229c10585ec392f8a,626b3a9f79a56aa03a14ab38,,,,,Do you use software to change the colour temperature of your screen (e.g. f.lux)?,,,0.7,0,No,50.5959,,,,,,,,,,,,,,,,,,,,,,,,,,,,,,,,,,,,,,,,,,,,,,,,,,,,,,,,,
,613d45bab7d3d7088986829f,001,2022-04-28_20h16.09.615,classification_task,2021.2.3,Win32,60.24822268,613d45bab7d3d7088986829f,626b377229c10585ec392f8a,626b3a9f79a56aa03a14ab38,,,,,,,,,,,,space,162.6751,space,9.161,0,0,0,0,1,,,,,,,,,,,,,,,,,,,,,,,,,,,,,,,,,,,,,,,,,,,,,,,,
,613d45bab7d3d7088986829f,001,2022-04-28_20h16.09.615,classification_task,2021.2.3,Win32,60.24822268,613d45bab7d3d7088986829f,626b377229c10585ec392f8a,626b3a9f79a56aa03a14ab38,,,,,,,,,,,,,,space,13.4424,1,0,1,0,1,,,,,,,,,,,,,,,,,,,,,,,,,,,,,,,,,,,,,,,,,,,,,,,,
,613d45bab7d3d7088986829f,001,2022-04-28_20h16.09.615,classification_task,2021.2.3,Win32,60.24822268,613d45bab7d3d7088986829f,626b377229c10585ec392f8a,626b3a9f79a56aa03a14ab38,,,,,,,,,,,,,,space,37.9236,2,0,2,0,1,,,,,,,,,,,,,,,,,,,,,,,,,,,,,,,,,,,,,,,,,,,,,,,,
,613d45bab7d3d7088986829f,001,2022-04-28_20h16.09.615,classification_task,2021.2.3,Win32,60.24822268,613d45bab7d3d7088986829f,626b377229c10585ec392f8a,626b3a9f79a56aa03a14ab38,,,,,,,,,,,,,,space,16.3445,3,0,3,0,1,,,,,,,,,,,,,,,,,,,,,,,,,,,,,,,,,,,,,,,,,,,,,,,,
,613d45bab7d3d7088986829f,001,2022-04-28_20h16.09.615,classification_task,2021.2.3,Win32,60.24822268,613d45bab7d3d7088986829f,626b377229c10585ec392f8a,626b3a9f79a56aa03a14ab38,,,,,,,,,,,,,,space,77.5038,4,0,4,0,1,,,,,,,,,,,,,,,,,,,,,,,,,,,,,,,,,,,,,,,,,,,,,,,,
,613d45bab7d3d7088986829f,001,2022-04-28_20h16.09.615,classification_task,2021.2.3,Win32,60.24822268,613d45bab7d3d7088986829f,626b377229c10585ec392f8a,626b3a9f79a56aa03a14ab38,,,,,,,,,,,,,,,,,,,,,space,35.6205,,0,"[""0.315"",""0.820"",""0.660"",""0.857""]","[1,0,1,1]",0,0,0,0,1,0,0,,,0,FALSE,,,,,,,,,,,,,,,,,,,,,,,,,,,,,,,
,613d45bab7d3d7088986829f,001,2022-04-28_20h16.09.615,classification_task,2021.2.3,Win32,60.24822268,613d45bab7d3d7088986829f,626b377229c10585ec392f8a,626b3a9f79a56aa03a14ab38,,,,,,,,,,,,,,,,,,,,,,,a,1,"[""0.274"",""0.379"",""0.907"",""0.973""]","[1,0,1,1]",0,1,1,1,1,0,1,,,0,FALSE,3.9446,,,,,,,,,,,,,,,,,,,,,,,,,,,,,,
,613d45bab7d3d7088986829f,001,2022-04-28_20h16.09.615,classification_task,2021.2.3,Win32,60.24822268,613d45bab7d3d7088986829f,626b377229c10585ec392f8a,626b3a9f79a56aa03a14ab38,,,,,,,,,,,,,,,,,,,,,,,a,1,"[""0.395"",""0.503"",""0.660"",""0.857""]","[0,1,1,1]",0,2,2,2,1,0,0,,,0,FALSE,3.5454,,,,,,,,,,,,,,,,,,,,,,,,,,,,,,
,613d45bab7d3d7088986829f,001,2022-04-28_20h16.09.615,classification_task,2021.2.3,Win32,60.24822268,613d45bab7d3d7088986829f,626b377229c10585ec392f8a,626b3a9f79a56aa03a14ab38,,,,,,,,,,,,,,,,,,,,,,,l,0,"[""0.274"",""0.446"",""0.907"",""0.190""]","[1,1,1,0]",0,3,3,3,1,0,1,,,0,FALSE,3.5905,,,,,,,,,,,,,,,,,,,,,,,,,,,,,,
,613d45bab7d3d7088986829f,001,2022-04-28_20h16.09.615,classification_task,2021.2.3,Win32,60.24822268,613d45bab7d3d7088986829f,626b377229c10585ec392f8a,626b3a9f79a56aa03a14ab38,,,,,,,,,,,,,,,,,,,,,,,a,0,"[""0.055"",""0.393"",""0.574"",""0.784""]","[1,0,1,1]",0,4,4,4,1,1,1,,,0,FALSE,6.4981,,,,,,,,,,,,,,,,,,,,,,,,,,,,,,
,613d45bab7d3d7088986829f,001,2022-04-28_20h16.09.615,classification_task,2021.2.3,Win32,60.24822268,613d45bab7d3d7088986829f,626b377229c10585ec392f8a,626b3a9f79a56aa03a14ab38,,,,,,,,,,,,,,,,,,,,,,,l,1,"[""0.094"",""0.188"",""0.614"",""0.733""]","[1,0,1,1]",0,5,5,5,1,1,0,,,0,FALSE,5.093,,,,,,,,,,,,,,,,,,,,,,,,,,,,,,
,613d45bab7d3d7088986829f,001,2022-04-28_20h16.09.615,classification_task,2021.2.3,Win32,60.24822268,613d45bab7d3d7088986829f,626b377229c10585ec392f8a,626b3a9f79a56aa03a14ab38,,,,,,,,,,,,,,,,,,,,,,,l,1,"[""0.055"",""0.137"",""0.406"",""0.784""]","[1,1,0,1]",0,6,6,6,1,1,1,,,0,FALSE,3.1403,,,,,,,,,,,,,,,,,,,,,,,,,,,,,,
,613d45bab7d3d7088986829f,001,2022-04-28_20h16.09.615,classification_task,2021.2.3,Win32,60.24822268,613d45bab7d3d7088986829f,626b377229c10585ec392f8a,626b3a9f79a56aa03a14ab38,,,,,,,,,,,,,,,,,,,,,,,a,1,"[""0.274"",""0.446"",""0.190"",""0.973""]","[1,1,0,1]",0,7,7,7,1,0,1,,,0,FALSE,6.33,,,,,,,,,,,,,,,,,,,,,,,,,,,,,,
,613d45bab7d3d7088986829f,001,2022-04-28_20h16.09.615,classification_task,2021.2.3,Win32,60.24822268,613d45bab7d3d7088986829f,626b377229c10585ec392f8a,626b3a9f79a56aa03a14ab38,,,,,,,,,,,,,,,,,,,,,,,a,1,"[""0.315"",""0.503"",""0.386"",""0.857""]","[1,1,0,1]",0,8,8,8,1,0,0,,,0,FALSE,4.0901,,,,,,,,,,,,,,,,,,,,,,,,,,,,,,
,613d45bab7d3d7088986829f,001,2022-04-28_20h16.09.615,classification_task,2021.2.3,Win32,60.24822268,613d45bab7d3d7088986829f,626b377229c10585ec392f8a,626b3a9f79a56aa03a14ab38,,,,,,,,,,,,,,,,,,,,,,,a,1,"[""0.386"",""0.446"",""0.907"",""0.973""]","[0,1,1,1]",0,9,9,9,1,0,1,,,0,FALSE,4.0792,,,,,,,,,,,,,,,,,,,,,,,,,,,,,,
,613d45bab7d3d7088986829f,001,2022-04-28_20h16.09.615,classification_task,2021.2.3,Win32,60.24822268,613d45bab7d3d7088986829f,626b377229c10585ec392f8a,626b3a9f79a56aa03a14ab38,,,,,,,,,,,,,,,,,,,,,,,l,1,"[""0.094"",""0.224"",""0.388"",""0.733""]","[1,1,0,1]",0,10,10,10,1,1,0,,,0,FALSE,3.3924,,,,,,,,,,,,,,,,,,,,,,,,,,,,,,
,613d45bab7d3d7088986829f,001,2022-04-28_20h16.09.615,classification_task,2021.2.3,Win32,60.24822268,613d45bab7d3d7088986829f,626b377229c10585ec392f8a,626b3a9f79a56aa03a14ab38,,,,,,,,,,,,,,,,,,,,,,,a,1,"[""0.315"",""0.503"",""0.660"",""0.820""]","[1,1,1,0]",0,11,11,11,1,0,0,,,0,FALSE,3.9515,,,,,,,,,,,,,,,,,,,,,,,,,,,,,,
,613d45bab7d3d7088986829f,001,2022-04-28_20h16.09.615,classification_task,2021.2.3,Win32,60.24822268,613d45bab7d3d7088986829f,626b377229c10585ec392f8a,626b3a9f79a56aa03a14ab38,,,,,,,,,,,,,,,,,,,,,,,l,1,"[""0.388"",""0.137"",""0.574"",""0.784""]","[0,1,1,1]",0,12,12,12,1,1,1,,,0,FALSE,3.5629,,,,,,,,,,,,,,,,,,,,,,,,,,,,,,
,613d45bab7d3d7088986829f,001,2022-04-28_20h16.09.615,classification_task,2021.2.3,Win32,60.24822268,613d45bab7d3d7088986829f,626b377229c10585ec392f8a,626b3a9f79a56aa03a14ab38,,,,,,,,,,,,,,,,,,,,,,,l,1,"[""0.055"",""0.137"",""0.574"",""0.395""]","[1,1,1,0]",0,13,13,13,1,1,1,,,0,FALSE,2.2879,,,,,,,,,,,,,,,,,,,,,,,,,,,,,,
,613d45bab7d3d7088986829f,001,2022-04-28_20h16.09.615,classification_task,2021.2.3,Win32,60.24822268,613d45bab7d3d7088986829f,626b377229c10585ec392f8a,626b3a9f79a56aa03a14ab38,,,,,,,,,,,,,,,,,,,,,,,l,1,"[""0.094"",""0.224"",""0.614"",""0.393""]","[1,1,1,0]",0,14,14,14,1,1,0,,,0,FALSE,4.1111,,,,,,,,,,,,,,,,,,,,,,,,,,,,,,
,613d45bab7d3d7088986829f,001,2022-04-28_20h16.09.615,classification_task,2021.2.3,Win32,60.24822268,613d45bab7d3d7088986829f,626b377229c10585ec392f8a,626b3a9f79a56aa03a14ab38,,,,,,,,,,,,,,,,,,,,,,,a,0,"[""0.388"",""0.224"",""0.614"",""0.733""]","[0,1,1,1]",0,15,15,15,1,1,0,,,0,FALSE,2.8534,,,,,,,,,,,,,,,,,,,,,,,,,,,,,,
,613d45bab7d3d7088986829f,001,2022-04-28_20h16.09.615,classification_task,2021.2.3,Win32,60.24822268,613d45bab7d3d7088986829f,626b377229c10585ec392f8a,626b3a9f79a56aa03a14ab38,,,,,,,,,,,,,,,,,,,,,,,a,0,"[""0.190"",""0.224"",""0.614"",""0.733""]","[0,1,1,1]",0,16,16,16,1,1,0,,,0,FALSE,6.1356,,,,,,,,,,,,,,,,,,,,,,,,,,,,,,
,613d45bab7d3d7088986829f,001,2022-04-28_20h16.09.615,classification_task,2021.2.3,Win32,60.24822268,613d45bab7d3d7088986829f,626b377229c10585ec392f8a,626b3a9f79a56aa03a14ab38,,,,,,,,,,,,,,,,,,,,,,,l,1,"[""0.094"",""0.393"",""0.614"",""0.733""]","[1,0,1,1]",0,17,17,17,1,1,0,,,0,FALSE,3.1907,,,,,,,,,,,,,,,,,,,,,,,,,,,,,,
,613d45bab7d3d7088986829f,001,2022-04-28_20h16.09.615,classification_task,2021.2.3,Win32,60.24822268,613d45bab7d3d7088986829f,626b377229c10585ec392f8a,626b3a9f79a56aa03a14ab38,,,,,,,,,,,,,,,,,,,,,,,a,1,"[""0.274"",""0.446"",""0.907"",""0.393""]","[1,1,1,0]",0,18,18,18,1,0,1,,,0,FALSE,3.6082,,,,,,,,,,,,,,,,,,,,,,,,,,,,,,
,613d45bab7d3d7088986829f,001,2022-04-28_20h16.09.615,classification_task,2021.2.3,Win32,60.24822268,613d45bab7d3d7088986829f,626b377229c10585ec392f8a,626b3a9f79a56aa03a14ab38,,,,,,,,,,,,,,,,,,,,,,,l,1,"[""0.055"",""0.367"",""0.574"",""0.784""]","[1,0,1,1]",0,19,19,19,1,1,1,,,0,FALSE,1.8683,,,,,,,,,,,,,,,,,,,,,,,,,,,,,,
,613d45bab7d3d7088986829f,001,2022-04-28_20h16.09.615,classification_task,2021.2.3,Win32,60.24822268,613d45bab7d3d7088986829f,626b377229c10585ec392f8a,626b3a9f79a56aa03a14ab38,,,,,,,,,,,,,,,,,,,,,,,l,1,"[""0.055"",""0.137"",""0.574"",""0.386""]","[1,1,1,0]",0,20,20,20,1,1,1,,,0,FALSE,2.3501,,,,,,,,,,,,,,,,,,,,,,,,,,,,,,
,613d45bab7d3d7088986829f,001,2022-04-28_20h16.09.615,classification_task,2021.2.3,Win32,60.24822268,613d45bab7d3d7088986829f,626b377229c10585ec392f8a,626b3a9f79a56aa03a14ab38,,,,,,,,,,,,,,,,,,,,,,,a,1,"[""0.386"",""0.503"",""0.660"",""0.857""]","[0,1,1,1]",0,21,21,21,1,0,0,,,0,FALSE,5.6571,,,,,,,,,,,,,,,,,,,,,,,,,,,,,,
,613d45bab7d3d7088986829f,001,2022-04-28_20h16.09.615,classification_task,2021.2.3,Win32,60.24822268,613d45bab7d3d7088986829f,626b377229c10585ec392f8a,626b3a9f79a56aa03a14ab38,,,,,,,,,,,,,,,,,,,,,,,a,1,"[""0.274"",""0.446"",""0.377"",""0.973""]","[1,1,0,1]",0,22,22,22,1,0,1,,,0,FALSE,4.7579,,,,,,,,,,,,,,,,,,,,,,,,,,,,,,
,613d45bab7d3d7088986829f,001,2022-04-28_20h16.09.615,classification_task,2021.2.3,Win32,60.24822268,613d45bab7d3d7088986829f,626b377229c10585ec392f8a,626b3a9f79a56aa03a14ab38,,,,,,,,,,,,,,,,,,,,,,,l,1,"[""0.094"",""0.224"",""0.614"",""0.188""]","[1,1,1,0]",0,23,23,23,1,1,0,,,0,FALSE,2.8134,,,,,,,,,,,,,,,,,,,,,,,,,,,,,,
,613d45bab7d3d7088986829f,001,2022-04-28_20h16.09.615,classification_task,2021.2.3,Win32,60.24822268,613d45bab7d3d7088986829f,626b377229c10585ec392f8a,626b3a9f79a56aa03a14ab38,,,,,,,,,,,,,,,,,,,,,,,l,1,"[""0.393"",""0.137"",""0.574"",""0.784""]","[0,1,1,1]",0,24,24,24,1,1,1,,,0,FALSE,2.8605,,,,,,,,,,,,,,,,,,,,,,,,,,,,,,
,613d45bab7d3d7088986829f,001,2022-04-28_20h16.09.615,classification_task,2021.2.3,Win32,60.24822268,613d45bab7d3d7088986829f,626b377229c10585ec392f8a,626b3a9f79a56aa03a14ab38,,,,,,,,,,,,,,,,,,,,,,,l,1,"[""0.055"",""0.137"",""0.188"",""0.784""]","[1,1,0,1]",0,25,25,25,1,1,1,,,0,FALSE,2.5023,,,,,,,,,,,,,,,,,,,,,,,,,,,,,,
,613d45bab7d3d7088986829f,001,2022-04-28_20h16.09.615,classification_task,2021.2.3,Win32,60.24822268,613d45bab7d3d7088986829f,626b377229c10585ec392f8a,626b3a9f79a56aa03a14ab38,,,,,,,,,,,,,,,,,,,,,,,a,0,"[""0.094"",""0.224"",""0.190"",""0.733""]","[1,1,0,1]",0,26,26,26,1,1,0,,,0,FALSE,2.4618,,,,,,,,,,,,,,,,,,,,,,,,,,,,,,
,613d45bab7d3d7088986829f,001,2022-04-28_20h16.09.615,classification_task,2021.2.3,Win32,60.24822268,613d45bab7d3d7088986829f,626b377229c10585ec392f8a,626b3a9f79a56aa03a14ab38,,,,,,,,,,,,,,,,,,,,,,,l,0,"[""0.315"",""0.503"",""0.660"",""0.190""]","[1,1,1,0]",0,27,27,27,1,0,0,,,0,FALSE,2.6164,,,,,,,,,,,,,,,,,,,,,,,,,,,,,,
,613d45bab7d3d7088986829f,001,2022-04-28_20h16.09.615,classification_task,2021.2.3,Win32,60.24822268,613d45bab7d3d7088986829f,626b377229c10585ec392f8a,626b3a9f79a56aa03a14ab38,,,,,,,,,,,,,,,,,,,,,,,a,1,"[""0.315"",""0.503"",""0.386"",""0.857""]","[1,1,0,1]",0,28,28,28,1,0,0,,,0,FALSE,1.7994,,,,,,,,,,,,,,,,,,,,,,,,,,,,,,
,613d45bab7d3d7088986829f,001,2022-04-28_20h16.09.615,classification_task,2021.2.3,Win32,60.24822268,613d45bab7d3d7088986829f,626b377229c10585ec392f8a,626b3a9f79a56aa03a14ab38,,,,,,,,,,,,,,,,,,,,,,,a,1,"[""0.315"",""0.388"",""0.660"",""0.857""]","[1,0,1,1]",0,29,29,29,1,0,0,,,0,FALSE,2.8673,,,,,,,,,,,,,,,,,,,,,,,,,,,,,,
,613d45bab7d3d7088986829f,001,2022-04-28_20h16.09.615,classification_task,2021.2.3,Win32,60.24822268,613d45bab7d3d7088986829f,626b377229c10585ec392f8a,626b3a9f79a56aa03a14ab38,,,,,,,,,,,,,,,,,,,,,,,a,1,"[""0.274"",""0.388"",""0.907"",""0.973""]","[1,0,1,1]",0,30,30,30,1,0,1,,,0,FALSE,2.5955,,,,,,,,,,,,,,,,,,,,,,,,,,,,,,
,613d45bab7d3d7088986829f,001,2022-04-28_20h16.09.615,classification_task,2021.2.3,Win32,60.24822268,613d45bab7d3d7088986829f,626b377229c10585ec392f8a,626b3a9f79a56aa03a14ab38,,,,,,,,,,,,,,,,,,,,,,,l,0,"[""0.377"",""0.446"",""0.907"",""0.973""]","[0,1,1,1]",0,31,31,31,1,0,1,,,0,FALSE,4.1849,,,,,,,,,,,,,,,,,,,,,,,,,,,,,,
,613d45bab7d3d7088986829f,001,2022-04-28_20h16.09.615,classification_task,2021.2.3,Win32,60.24822268,613d45bab7d3d7088986829f,626b377229c10585ec392f8a,626b3a9f79a56aa03a14ab38,,,,,,,,,,,,,,,,,,,,,,,a,0,"[""0.386"",""0.224"",""0.614"",""0.733""]","[0,1,1,1]",0,32,32,32,1,1,0,,,0,FALSE,3.845,,,,,,,,,,,,,,,,,,,,,,,,,,,,,,
,613d45bab7d3d7088986829f,001,2022-04-28_20h16.09.615,classification_task,2021.2.3,Win32,60.24822268,613d45bab7d3d7088986829f,626b377229c10585ec392f8a,626b3a9f79a56aa03a14ab38,,,,,,,,,,,,,,,,,,,,,,,l,0,"[""0.274"",""0.379"",""0.907"",""0.973""]","[1,0,1,1]",0,33,33,33,1,0,1,,,0,FALSE,2.5853,,,,,,,,,,,,,,,,,,,,,,,,,,,,,,
,613d45bab7d3d7088986829f,001,2022-04-28_20h16.09.615,classification_task,2021.2.3,Win32,60.24822268,613d45bab7d3d7088986829f,626b377229c10585ec392f8a,626b3a9f79a56aa03a14ab38,,,,,,,,,,,,,,,,,,,,,,,a,0,"[""0.055"",""0.188"",""0.574"",""0.784""]","[1,0,1,1]",0,34,34,34,1,1,1,,,0,FALSE,1.6854,,,,,,,,,,,,,,,,,,,,,,,,,,,,,,
,613d45bab7d3d7088986829f,001,2022-04-28_20h16.09.615,classification_task,2021.2.3,Win32,60.24822268,613d45bab7d3d7088986829f,626b377229c10585ec392f8a,626b3a9f79a56aa03a14ab38,,,,,,,,,,,,,,,,,,,,,,,l,0,"[""0.274"",""0.446"",""0.907"",""0.388""]","[1,1,1,0]",0,35,35,35,1,0,1,,,0,FALSE,2.5506,,,,,,,,,,,,,,,,,,,,,,,,,,,,,,
,613d45bab7d3d7088986829f,001,2022-04-28_20h16.09.615,classification_task,2021.2.3,Win32,60.24822268,613d45bab7d3d7088986829f,626b377229c10585ec392f8a,626b3a9f79a56aa03a14ab38,,,,,,,,,,,,,,,,,,,,,,,l,1,"[""0.055"",""0.137"",""0.820"",""0.784""]","[1,1,0,1]",0,36,36,36,1,1,1,,,0,FALSE,0.7335,,,,,,,,,,,,,,,,,,,,,,,,,,,,,,
,613d45bab7d3d7088986829f,001,2022-04-28_20h16.09.615,classification_task,2021.2.3,Win32,60.24822268,613d45bab7d3d7088986829f,626b377229c10585ec392f8a,626b3a9f79a56aa03a14ab38,,,,,,,,,,,,,,,,,,,,,,,l,1,"[""0.094"",""0.224"",""0.614"",""0.188""]","[1,1,1,0]",0,37,37,37,1,1,0,,,0,FALSE,2.0829,,,,,,,,,,,,,,,,,,,,,,,,,,,,,,
,613d45bab7d3d7088986829f,001,2022-04-28_20h16.09.615,classification_task,2021.2.3,Win32,60.24822268,613d45bab7d3d7088986829f,626b377229c10585ec392f8a,626b3a9f79a56aa03a14ab38,,,,,,,,,,,,,,,,,,,,,,,a,1,"[""0.315"",""0.503"",""0.388"",""0.857""]","[1,1,0,1]",0,38,38,38,1,0,0,,,0,FALSE,1.6829,,,,,,,,,,,,,,,,,,,,,,,,,,,,,,
,613d45bab7d3d7088986829f,001,2022-04-28_20h16.09.615,classification_task,2021.2.3,Win32,60.24822268,613d45bab7d3d7088986829f,626b377229c10585ec392f8a,626b3a9f79a56aa03a14ab38,,,,,,,,,,,,,,,,,,,,,,,l,1,"[""0.094"",""0.224"",""0.388"",""0.733""]","[1,1,0,1]",0,39,39,39,1,1,0,,,0,FALSE,2.0992,,,,,,,,,,,,,,,,,,,,,,,,,,,,,,
,613d45bab7d3d7088986829f,001,2022-04-28_20h16.09.615,classification_task,2021.2.3,Win32,60.24822268,613d45bab7d3d7088986829f,626b377229c10585ec392f8a,626b3a9f79a56aa03a14ab38,,,,,,,,,,,,,,,,,,,,,,,l,1,"[""0.094"",""0.393"",""0.614"",""0.733""]","[1,0,1,1]",0,40,40,40,1,1,0,,,0,FALSE,0.8496,,,,,,,,,,,,,,,,,,,,,,,,,,,,,,
,613d45bab7d3d7088986829f,001,2022-04-28_20h16.09.615,classification_task,2021.2.3,Win32,60.24822268,613d45bab7d3d7088986829f,626b377229c10585ec392f8a,626b3a9f79a56aa03a14ab38,,,,,,,,,,,,,,,,,,,,,,,l,0,"[""0.388"",""0.503"",""0.660"",""0.857""]","[0,1,1,1]",0,41,41,41,1,0,0,,,0,FALSE,0.9165,,,,,,,,,,,,,,,,,,,,,,,,,,,,,,
,613d45bab7d3d7088986829f,001,2022-04-28_20h16.09.615,classification_task,2021.2.3,Win32,60.24822268,613d45bab7d3d7088986829f,626b377229c10585ec392f8a,626b3a9f79a56aa03a14ab38,,,,,,,,,,,,,,,,,,,,,,,a,0,"[""0.393"",""0.137"",""0.574"",""0.784""]","[0,1,1,1]",0,42,42,42,1,1,1,,,0,FALSE,1.8331,,,,,,,,,,,,,,,,,,,,,,,,,,,,,,
,613d45bab7d3d7088986829f,001,2022-04-28_20h16.09.615,classification_task,2021.2.3,Win32,60.24822268,613d45bab7d3d7088986829f,626b377229c10585ec392f8a,626b3a9f79a56aa03a14ab38,,,,,,,,,,,,,,,,,,,,,,,l,0,"[""0.393"",""0.446"",""0.907"",""0.973""]","[0,1,1,1]",0,43,43,43,1,0,1,,,0,FALSE,0.6173,,,,,,,,,,,,,,,,,,,,,,,,,,,,,,
,613d45bab7d3d7088986829f,001,2022-04-28_20h16.09.615,classification_task,2021.2.3,Win32,60.24822268,613d45bab7d3d7088986829f,626b377229c10585ec392f8a,626b3a9f79a56aa03a14ab38,,,,,,,,,,,,,,,,,,,,,,,a,1,"[""0.315"",""0.188"",""0.660"",""0.857""]","[1,0,1,1]",0,44,44,44,1,0,0,,,0,FALSE,0.3522,,,,,,,,,,,,,,,,,,,,,,,,,,,,,,
,613d45bab7d3d7088986829f,001,2022-04-28_20h16.09.615,classification_task,2021.2.3,Win32,60.24822268,613d45bab7d3d7088986829f,626b377229c10585ec392f8a,626b3a9f79a56aa03a14ab38,,,,,,,,,,,,,,,,,,,,,,,a,0,"[""0.055"",""0.137"",""0.574"",""0.386""]","[1,1,1,0]",0,45,45,45,1,1,1,,,0,FALSE,0.8183,,,,,,,,,,,,,,,,,,,,,,,,,,,,,,
,613d45bab7d3d7088986829f,001,2022-04-28_20h16.09.615,classification_task,2021.2.3,Win32,60.24822268,613d45bab7d3d7088986829f,626b377229c10585ec392f8a,626b3a9f79a56aa03a14ab38,,,,,,,,,,,,,,,,,,,,,,,a,1,"[""0.315"",""0.503"",""0.660"",""0.188""]","[1,1,1,0]",0,46,46,46,1,0,0,,,0,FALSE,0.3019,,,,,,,,,,,,,,,,,,,,,,,,,,,,,,
,613d45bab7d3d7088986829f,001,2022-04-28_20h16.09.615,classification_task,2021.2.3,Win32,60.24822268,613d45bab7d3d7088986829f,626b377229c10585ec392f8a,626b3a9f79a56aa03a14ab38,,,,,,,,,,,,,,,,,,,,,,,a,1,"[""0.274"",""0.446"",""0.820"",""0.973""]","[1,1,0,1]",0,47,47,47,1,0,1,,,0,FALSE,1.034,,,,,,,,,,,,,,,,,,,,,,,,,,,,,,
,613d45bab7d3d7088986829f,001,2022-04-28_20h16.09.615,classification_task,2021.2.3,Win32,60.24822268,613d45bab7d3d7088986829f,626b377229c10585ec392f8a,626b3a9f79a56aa03a14ab38,,,,,,,,,,,,,,,,,,,,,,,l,1,"[""0.055"",""0.393"",""0.574"",""0.784""]","[1,0,1,1]",0,48,48,48,1,1,1,,,0,FALSE,0.3007,,,,,,,,,,,,,,,,,,,,,,,,,,,,,,
,613d45bab7d3d7088986829f,001,2022-04-28_20h16.09.615,classification_task,2021.2.3,Win32,60.24822268,613d45bab7d3d7088986829f,626b377229c10585ec392f8a,626b3a9f79a56aa03a14ab38,,,,,,,,,,,,,,,,,,,,,,,a,1,"[""0.274"",""0.446"",""0.406"",""0.973""]","[1,1,0,1]",0,49,49,49,1,0,1,,,0,FALSE,1.1342,,,,,,,,,,,,,,,,,,,,,,,,,,,,,,
,613d45bab7d3d7088986829f,001,2022-04-28_20h16.09.615,classification_task,2021.2.3,Win32,60.24822268,613d45bab7d3d7088986829f,626b377229c10585ec392f8a,626b3a9f79a56aa03a14ab38,,,,,,,,,,,,,,,,,,,,,,,a,0,"[""0.820"",""0.224"",""0.614"",""0.733""]","[0,1,1,1]",0,50,50,50,1,1,0,,,0,FALSE,0.9859,,,,,,,,,,,,,,,,,,,,,,,,,,,,,,
,613d45bab7d3d7088986829f,001,2022-04-28_20h16.09.615,classification_task,2021.2.3,Win32,60.24822268,613d45bab7d3d7088986829f,626b377229c10585ec392f8a,626b3a9f79a56aa03a14ab38,,,,,,,,,,,,,,,,,,,,,,,l,0,"[""0.315"",""0.503"",""0.393"",""0.857""]","[1,1,0,1]",0,51,51,51,1,0,0,,,0,FALSE,2.2331,,,,,,,,,,,,,,,,,,,,,,,,,,,,,,
,613d45bab7d3d7088986829f,001,2022-04-28_20h16.09.615,classification_task,2021.2.3,Win32,60.24822268,613d45bab7d3d7088986829f,626b377229c10585ec392f8a,626b3a9f79a56aa03a14ab38,,,,,,,,,,,,,,,,,,,,,,,a,1,"[""0.274"",""0.446"",""0.907"",""0.367""]","[1,1,1,0]",0,52,52,52,1,0,1,,,0,FALSE,0.3847,,,,,,,,,,,,,,,,,,,,,,,,,,,,,,
,613d45bab7d3d7088986829f,001,2022-04-28_20h16.09.615,classification_task,2021.2.3,Win32,60.24822268,613d45bab7d3d7088986829f,626b377229c10585ec392f8a,626b3a9f79a56aa03a14ab38,,,,,,,,,,,,,,,,,,,,,,,a,1,"[""0.315"",""0.503"",""0.660"",""0.377""]","[1,1,1,0]",0,53,53,53,1,0,0,,,0,FALSE,1.1839,,,,,,,,,,,,,,,,,,,,,,,,,,,,,,
,613d45bab7d3d7088986829f,001,2022-04-28_20h16.09.615,classification_task,2021.2.3,Win32,60.24822268,613d45bab7d3d7088986829f,626b377229c10585ec392f8a,626b3a9f79a56aa03a14ab38,,,,,,,,,,,,,,,,,,,,,,,l,0,"[""0.315"",""0.395"",""0.660"",""0.857""]","[1,0,1,1]",0,54,54,54,1,0,0,,,0,FALSE,0.8159,,,,,,,,,,,,,,,,,,,,,,,,,,,,,,
,613d45bab7d3d7088986829f,001,2022-04-28_20h16.09.615,classification_task,2021.2.3,Win32,60.24822268,613d45bab7d3d7088986829f,626b377229c10585ec392f8a,626b3a9f79a56aa03a14ab38,,,,,,,,,,,,,,,,,,,,,,,a,0,"[""0.094"",""0.224"",""0.614"",""0.388""]","[1,1,1,0]",0,55,55,55,1,1,0,,,0,FALSE,0.4824,,,,,,,,,,,,,,,,,,,,,,,,,,,,,,
,613d45bab7d3d7088986829f,001,2022-04-28_20h16.09.615,classification_task,2021.2.3,Win32,60.24822268,613d45bab7d3d7088986829f,626b377229c10585ec392f8a,626b3a9f79a56aa03a14ab38,,,,,,,,,,,,,,,,,,,,,,,a,0,"[""0.393"",""0.137"",""0.574"",""0.784""]","[0,1,1,1]",0,56,56,56,1,1,1,,,0,FALSE,1.1854,,,,,,,,,,,,,,,,,,,,,,,,,,,,,,
,613d45bab7d3d7088986829f,001,2022-04-28_20h16.09.615,classification_task,2021.2.3,Win32,60.24822268,613d45bab7d3d7088986829f,626b377229c10585ec392f8a,626b3a9f79a56aa03a14ab38,,,,,,,,,,,,,,,,,,,,,,,l,0,"[""0.379"",""0.503"",""0.660"",""0.857""]","[0,1,1,1]",0,57,57,57,1,0,0,,,0,FALSE,0.7339,,,,,,,,,,,,,,,,,,,,,,,,,,,,,,
,613d45bab7d3d7088986829f,001,2022-04-28_20h16.09.615,classification_task,2021.2.3,Win32,60.24822268,613d45bab7d3d7088986829f,626b377229c10585ec392f8a,626b3a9f79a56aa03a14ab38,,,,,,,,,,,,,,,,,,,,,,,l,1,"[""0.094"",""0.395"",""0.614"",""0.733""]","[1,0,1,1]",0,58,58,58,1,1,0,,,0,FALSE,3.0008,,,,,,,,,,,,,,,,,,,,,,,,,,,,,,
,613d45bab7d3d7088986829f,001,2022-04-28_20h16.09.615,classification_task,2021.2.3,Win32,60.24822268,613d45bab7d3d7088986829f,626b377229c10585ec392f8a,626b3a9f79a56aa03a14ab38,,,,,,,,,,,,,,,,,,,,,,,a,1,"[""0.274"",""0.393"",""0.907"",""0.973""]","[1,0,1,1]",0,59,59,59,1,0,1,,,0,FALSE,1.4355,,,,,,,,,,,,,,,,,,,,,,,,,,,,,,
,613d45bab7d3d7088986829f,001,2022-04-28_20h16.09.615,classification_task,2021.2.3,Win32,60.24822268,613d45bab7d3d7088986829f,626b377229c10585ec392f8a,626b3a9f79a56aa03a14ab38,,,,,,,,,,,,,,,,,,,,,,,a,1,"[""0.393"",""0.446"",""0.907"",""0.973""]","[0,1,1,1]",0,60,60,60,1,0,1,,,0,FALSE,1.5506,,,,,,,,,,,,,,,,,,,,,,,,,,,,,,
,613d45bab7d3d7088986829f,001,2022-04-28_20h16.09.615,classification_task,2021.2.3,Win32,60.24822268,613d45bab7d3d7088986829f,626b377229c10585ec392f8a,626b3a9f79a56aa03a14ab38,,,,,,,,,,,,,,,,,,,,,,,l,1,"[""0.055"",""0.137"",""0.574"",""0.388""]","[1,1,1,0]",0,61,61,61,1,1,1,,,0,FALSE,1.1009,,,,,,,,,,,,,,,,,,,,,,,,,,,,,,
,613d45bab7d3d7088986829f,001,2022-04-28_20h16.09.615,classification_task,2021.2.3,Win32,60.24822268,613d45bab7d3d7088986829f,626b377229c10585ec392f8a,626b3a9f79a56aa03a14ab38,,,,,,,,,,,,,,,,,,,,,,,l,1,"[""0.094"",""0.224"",""0.393"",""0.733""]","[1,1,0,1]",0,62,62,62,1,1,0,,,0,FALSE,2.0006,,,,,,,,,,,,,,,,,,,,,,,,,,,,,,
,613d45bab7d3d7088986829f,001,2022-04-28_20h16.09.615,classification_task,2021.2.3,Win32,60.24822268,613d45bab7d3d7088986829f,626b377229c10585ec392f8a,626b3a9f79a56aa03a14ab38,,,,,,,,,,,,,,,,,,,,,,,l,1,"[""0.055"",""0.137"",""0.367"",""0.784""]","[1,1,0,1]",0,63,63,63,1,1,1,,,0,FALSE,2.0003,,,,,,,,,,,,,,,,,,,,,,,,,,,,,,
,613d45bab7d3d7088986829f,001,2022-04-28_20h16.09.615,classification_task,2021.2.3,Win32,60.24822268,613d45bab7d3d7088986829f,626b377229c10585ec392f8a,626b3a9f79a56aa03a14ab38,,,,,,,,,,,,,,,,,,,,,,,,,,,,,,,,,,,,,,,0, ,,0,,,0,0,0,0,1,2,1,,,,,,,,,,,,,,,,,
,613d45bab7d3d7088986829f,001,2022-04-28_20h16.09.615,classification_task,2021.2.3,Win32,60.24822268,613d45bab7d3d7088986829f,626b377229c10585ec392f8a,626b3a9f79a56aa03a14ab38,,,,,,,,,,,,,,,,,,,,,,,,,,,,,,,,,,,,,,,1,  ,,0,,,0,0,0,0,1,2,1,,,,,,,,,,,,,,,,,
,613d45bab7d3d7088986829f,001,2022-04-28_20h16.09.615,classification_task,2021.2.3,Win32,60.24822268,613d45bab7d3d7088986829f,626b377229c10585ec392f8a,626b3a9f79a56aa03a14ab38,,,,,,,,,,,,,,,,,,,,,,,,,,,,,,,,,,,,,,,2,  ,,0,,,0,0,0,0,1,2,1,,,,,,,,,,,,,,,,,
,613d45bab7d3d7088986829f,001,2022-04-28_20h16.09.615,classification_task,2021.2.3,Win32,60.24822268,613d45bab7d3d7088986829f,626b377229c10585ec392f8a,626b3a9f79a56aa03a14ab38,,,,,,,,,,,,,,,,,,,,,,,,,,,,,,,,,,,,,,,,,,,,,0,0,0,0,1,,1,,,,,,,,,,,,,,,,,
,613d45bab7d3d7088986829f,001,2022-04-28_20h16.09.615,classification_task,2021.2.3,Win32,60.24822268,613d45bab7d3d7088986829f,626b377229c10585ec392f8a,626b3a9f79a56aa03a14ab38,,,,,,,,,,,,,,,,,,,,,space,22.4488,a,0,"[""0.055"",""0.137"",""0.395"",""0.784""]","[1,1,0,1]",0,0,0,0,1,1,1,,,0,FALSE,1.7981,,,,,,,,,,,,,,,,,,,,,,,,,,,,,,
,613d45bab7d3d7088986829f,001,2022-04-28_20h16.09.615,classification_task,2021.2.3,Win32,60.24822268,613d45bab7d3d7088986829f,626b377229c10585ec392f8a,626b3a9f79a56aa03a14ab38,,,,,,,,,,,,,,,,,,,,,,,a,1,"[""0.274"",""0.446"",""0.907"",""0.393""]","[1,1,1,0]",0,1,1,1,1,0,1,,,0,FALSE,0.9833,,,,,,,,,,,,,,,,,,,,,,,,,,,,,,
,613d45bab7d3d7088986829f,001,2022-04-28_20h16.09.615,classification_task,2021.2.3,Win32,60.24822268,613d45bab7d3d7088986829f,626b377229c10585ec392f8a,626b3a9f79a56aa03a14ab38,,,,,,,,,,,,,,,,,,,,,,,a,1,"[""0.315"",""0.503"",""0.406"",""0.857""]","[1,1,0,1]",0,2,2,2,1,0,0,,,0,FALSE,1.2504,,,,,,,,,,,,,,,,,,,,,,,,,,,,,,
,613d45bab7d3d7088986829f,001,2022-04-28_20h16.09.615,classification_task,2021.2.3,Win32,60.24822268,613d45bab7d3d7088986829f,626b377229c10585ec392f8a,626b3a9f79a56aa03a14ab38,,,,,,,,,,,,,,,,,,,,,,,l,1,"[""0.055"",""0.137"",""0.574"",""0.395""]","[1,1,1,0]",0,3,3,3,1,1,1,,,0,FALSE,0.5477,,,,,,,,,,,,,,,,,,,,,,,,,,,,,,
,613d45bab7d3d7088986829f,001,2022-04-28_20h16.09.615,classification_task,2021.2.3,Win32,60.24822268,613d45bab7d3d7088986829f,626b377229c10585ec392f8a,626b3a9f79a56aa03a14ab38,,,,,,,,,,,,,,,,,,,,,,,a,1,"[""0.274"",""0.446"",""0.386"",""0.973""]","[1,1,0,1]",0,4,4,4,1,0,1,,,0,FALSE,1.0354,,,,,,,,,,,,,,,,,,,,,,,,,,,,,,
,613d45bab7d3d7088986829f,001,2022-04-28_20h16.09.615,classification_task,2021.2.3,Win32,60.24822268,613d45bab7d3d7088986829f,626b377229c10585ec392f8a,626b3a9f79a56aa03a14ab38,,,,,,,,,,,,,,,,,,,,,,,a,1,"[""0.379"",""0.503"",""0.660"",""0.857""]","[0,1,1,1]",0,5,5,5,1,0,0,,,0,FALSE,1.5845,,,,,,,,,,,,,,,,,,,,,,,,,,,,,,
,613d45bab7d3d7088986829f,001,2022-04-28_20h16.09.615,classification_task,2021.2.3,Win32,60.24822268,613d45bab7d3d7088986829f,626b377229c10585ec392f8a,626b3a9f79a56aa03a14ab38,,,,,,,,,,,,,,,,,,,,,,,a,1,"[""0.274"",""0.406"",""0.907"",""0.973""]","[1,0,1,1]",0,6,6,6,1,0,1,,,0,FALSE,0.9494,,,,,,,,,,,,,,,,,,,,,,,,,,,,,,
,613d45bab7d3d7088986829f,001,2022-04-28_20h16.09.615,classification_task,2021.2.3,Win32,60.24822268,613d45bab7d3d7088986829f,626b377229c10585ec392f8a,626b3a9f79a56aa03a14ab38,,,,,,,,,,,,,,,,,,,,,,,a,1,"[""0.393"",""0.446"",""0.907"",""0.973""]","[0,1,1,1]",0,7,7,7,1,0,1,,,0,FALSE,1.0998,,,,,,,,,,,,,,,,,,,,,,,,,,,,,,
,613d45bab7d3d7088986829f,001,2022-04-28_20h16.09.615,classification_task,2021.2.3,Win32,60.24822268,613d45bab7d3d7088986829f,626b377229c10585ec392f8a,626b3a9f79a56aa03a14ab38,,,,,,,,,,,,,,,,,,,,,,,l,1,"[""0.094"",""0.224"",""0.386"",""0.733""]","[1,1,0,1]",0,8,8,8,1,1,0,,,0,FALSE,0.6997,,,,,,,,,,,,,,,,,,,,,,,,,,,,,,
,613d45bab7d3d7088986829f,001,2022-04-28_20h16.09.615,classification_task,2021.2.3,Win32,60.24822268,613d45bab7d3d7088986829f,626b377229c10585ec392f8a,626b3a9f79a56aa03a14ab38,,,,,,,,,,,,,,,,,,,,,,,l,1,"[""0.179"",""0.137"",""0.574"",""0.784""]","[0,1,1,1]",0,9,9,9,1,1,1,,,0,FALSE,0.5822,,,,,,,,,,,,,,,,,,,,,,,,,,,,,,
,613d45bab7d3d7088986829f,001,2022-04-28_20h16.09.615,classification_task,2021.2.3,Win32,60.24822268,613d45bab7d3d7088986829f,626b377229c10585ec392f8a,626b3a9f79a56aa03a14ab38,,,,,,,,,,,,,,,,,,,,,,,l,0,"[""0.315"",""0.503"",""0.660"",""0.393""]","[1,1,1,0]",0,10,10,10,1,0,0,,,0,FALSE,2.6006,,,,,,,,,,,,,,,,,,,,,,,,,,,,,,
,613d45bab7d3d7088986829f,001,2022-04-28_20h16.09.615,classification_task,2021.2.3,Win32,60.24822268,613d45bab7d3d7088986829f,626b377229c10585ec392f8a,626b3a9f79a56aa03a14ab38,,,,,,,,,,,,,,,,,,,,,,,l,0,"[""0.315"",""0.377"",""0.660"",""0.857""]","[1,0,1,1]",0,11,11,11,1,0,0,,,0,FALSE,1.251,,,,,,,,,,,,,,,,,,,,,,,,,,,,,,
,613d45bab7d3d7088986829f,001,2022-04-28_20h16.09.615,classification_task,2021.2.3,Win32,60.24822268,613d45bab7d3d7088986829f,626b377229c10585ec392f8a,626b3a9f79a56aa03a14ab38,,,,,,,,,,,,,,,,,,,,,,,l,1,"[""0.055"",""0.388"",""0.574"",""0.784""]","[1,0,1,1]",0,12,12,12,1,1,1,,,0,FALSE,1.5183,,,,,,,,,,,,,,,,,,,,,,,,,,,,,,
,613d45bab7d3d7088986829f,001,2022-04-28_20h16.09.615,classification_task,2021.2.3,Win32,60.24822268,613d45bab7d3d7088986829f,626b377229c10585ec392f8a,626b3a9f79a56aa03a14ab38,,,,,,,,,,,,,,,,,,,,,,,l,1,"[""0.094"",""0.224"",""0.614"",""0.820""]","[1,1,1,0]",0,13,13,13,1,1,0,,,0,FALSE,1.3691,,,,,,,,,,,,,,,,,,,,,,,,,,,,,,
,613d45bab7d3d7088986829f,001,2022-04-28_20h16.09.615,classification_task,2021.2.3,Win32,60.24822268,613d45bab7d3d7088986829f,626b377229c10585ec392f8a,626b3a9f79a56aa03a14ab38,,,,,,,,,,,,,,,,,,,,,,,l,1,"[""0.094"",""0.179"",""0.614"",""0.733""]","[1,0,1,1]",0,14,14,14,1,1,0,,,0,FALSE,0.7513,,,,,,,,,,,,,,,,,,,,,,,,,,,,,,
,613d45bab7d3d7088986829f,001,2022-04-28_20h16.09.615,classification_task,2021.2.3,Win32,60.24822268,613d45bab7d3d7088986829f,626b377229c10585ec392f8a,626b3a9f79a56aa03a14ab38,,,,,,,,,,,,,,,,,,,,,,,a,0,"[""0.188"",""0.224"",""0.614"",""0.733""]","[0,1,1,1]",0,15,15,15,1,1,0,,,0,FALSE,2.0682,,,,,,,,,,,,,,,,,,,,,,,,,,,,,,
,613d45bab7d3d7088986829f,001,2022-04-28_20h16.09.615,classification_task,2021.2.3,Win32,60.24822268,613d45bab7d3d7088986829f,626b377229c10585ec392f8a,626b3a9f79a56aa03a14ab38,,,,,,,,,,,,,,,,,,,,,,,l,1,"[""0.055"",""0.137"",""0.574"",""0.393""]","[1,1,1,0]",0,16,16,16,1,1,1,,,0,FALSE,0.9501,,,,,,,,,,,,,,,,,,,,,,,,,,,,,,
,613d45bab7d3d7088986829f,001,2022-04-28_20h16.09.615,classification_task,2021.2.3,Win32,60.24822268,613d45bab7d3d7088986829f,626b377229c10585ec392f8a,626b3a9f79a56aa03a14ab38,,,,,,,,,,,,,,,,,,,,,,,l,1,"[""0.055"",""0.386"",""0.574"",""0.784""]","[1,0,1,1]",0,17,17,17,1,1,1,,,0,FALSE,0.6329,,,,,,,,,,,,,,,,,,,,,,,,,,,,,,
,613d45bab7d3d7088986829f,001,2022-04-28_20h16.09.615,classification_task,2021.2.3,Win32,60.24822268,613d45bab7d3d7088986829f,626b377229c10585ec392f8a,626b3a9f79a56aa03a14ab38,,,,,,,,,,,,,,,,,,,,,,,l,1,"[""0.188"",""0.137"",""0.574"",""0.784""]","[0,1,1,1]",0,18,18,18,1,1,1,,,0,FALSE,1.2182,,,,,,,,,,,,,,,,,,,,,,,,,,,,,,
,613d45bab7d3d7088986829f,001,2022-04-28_20h16.09.615,classification_task,2021.2.3,Win32,60.24822268,613d45bab7d3d7088986829f,626b377229c10585ec392f8a,626b3a9f79a56aa03a14ab38,,,,,,,,,,,,,,,,,,,,,,,l,1,"[""0.094"",""0.224"",""0.395"",""0.733""]","[1,1,0,1]",0,19,19,19,1,1,0,,,0,FALSE,1.7998,,,,,,,,,,,,,,,,,,,,,,,,,,,,,,
,613d45bab7d3d7088986829f,001,2022-04-28_20h16.09.615,classification_task,2021.2.3,Win32,60.24822268,613d45bab7d3d7088986829f,626b377229c10585ec392f8a,626b3a9f79a56aa03a14ab38,,,,,,,,,,,,,,,,,,,,,,,l,0,"[""0.274"",""0.446"",""0.907"",""0.393""]","[1,1,1,0]",0,20,20,20,1,0,1,,,0,FALSE,1.7508,,,,,,,,,,,,,,,,,,,,,,,,,,,,,,
,613d45bab7d3d7088986829f,001,2022-04-28_20h16.09.615,classification_task,2021.2.3,Win32,60.24822268,613d45bab7d3d7088986829f,626b377229c10585ec392f8a,626b3a9f79a56aa03a14ab38,,,,,,,,,,,,,,,,,,,,,,,l,1,"[""0.094"",""0.224"",""0.614"",""0.820""]","[1,1,1,0]",0,21,21,21,1,1,0,,,0,FALSE,0.7336,,,,,,,,,,,,,,,,,,,,,,,,,,,,,,
,613d45bab7d3d7088986829f,001,2022-04-28_20h16.09.615,classification_task,2021.2.3,Win32,60.24822268,613d45bab7d3d7088986829f,626b377229c10585ec392f8a,626b3a9f79a56aa03a14ab38,,,,,,,,,,,,,,,,,,,,,,,a,1,"[""0.315"",""0.503"",""0.660"",""0.367""]","[1,1,1,0]",0,22,22,22,1,0,0,,,0,FALSE,0.8187,,,,,,,,,,,,,,,,,,,,,,,,,,,,,,
,613d45bab7d3d7088986829f,001,2022-04-28_20h16.09.615,classification_task,2021.2.3,Win32,60.24822268,613d45bab7d3d7088986829f,626b377229c10585ec392f8a,626b3a9f79a56aa03a14ab38,,,,,,,,,,,,,,,,,,,,,,,l,1,"[""0.055"",""0.137"",""0.386"",""0.784""]","[1,1,0,1]",0,23,23,23,1,1,1,,,0,FALSE,0.785,,,,,,,,,,,,,,,,,,,,,,,,,,,,,,
,613d45bab7d3d7088986829f,001,2022-04-28_20h16.09.615,classification_task,2021.2.3,Win32,60.24822268,613d45bab7d3d7088986829f,626b377229c10585ec392f8a,626b3a9f79a56aa03a14ab38,,,,,,,,,,,,,,,,,,,,,,,l,1,"[""0.179"",""0.224"",""0.614"",""0.733""]","[0,1,1,1]",0,24,24,24,1,1,0,,,0,FALSE,0.8683,,,,,,,,,,,,,,,,,,,,,,,,,,,,,,
,613d45bab7d3d7088986829f,001,2022-04-28_20h16.09.615,classification_task,2021.2.3,Win32,60.24822268,613d45bab7d3d7088986829f,626b377229c10585ec392f8a,626b3a9f79a56aa03a14ab38,,,,,,,,,,,,,,,,,,,,,,,a,1,"[""0.274"",""0.188"",""0.907"",""0.973""]","[1,0,1,1]",0,25,25,25,1,0,1,,,0,FALSE,0.9511,,,,,,,,,,,,,,,,,,,,,,,,,,,,,,
,613d45bab7d3d7088986829f,001,2022-04-28_20h16.09.615,classification_task,2021.2.3,Win32,60.24822268,613d45bab7d3d7088986829f,626b377229c10585ec392f8a,626b3a9f79a56aa03a14ab38,,,,,,,,,,,,,,,,,,,,,,,l,1,"[""0.094"",""0.367"",""0.614"",""0.733""]","[1,0,1,1]",0,26,26,26,1,1,0,,,0,FALSE,0.8167,,,,,,,,,,,,,,,,,,,,,,,,,,,,,,
,613d45bab7d3d7088986829f,001,2022-04-28_20h16.09.615,classification_task,2021.2.3,Win32,60.24822268,613d45bab7d3d7088986829f,626b377229c10585ec392f8a,626b3a9f79a56aa03a14ab38,,,,,,,,,,,,,,,,,,,,,,,a,1,"[""0.388"",""0.446"",""0.907"",""0.973""]","[0,1,1,1]",0,27,27,27,1,0,1,,,0,FALSE,0.7672,,,,,,,,,,,,,,,,,,,,,,,,,,,,,,
,613d45bab7d3d7088986829f,001,2022-04-28_20h16.09.615,classification_task,2021.2.3,Win32,60.24822268,613d45bab7d3d7088986829f,626b377229c10585ec392f8a,626b3a9f79a56aa03a14ab38,,,,,,,,,,,,,,,,,,,,,,,a,1,"[""0.274"",""0.446"",""0.395"",""0.973""]","[1,1,0,1]",0,28,28,28,1,0,1,,,0,FALSE,0.9511,,,,,,,,,,,,,,,,,,,,,,,,,,,,,,
,613d45bab7d3d7088986829f,001,2022-04-28_20h16.09.615,classification_task,2021.2.3,Win32,60.24822268,613d45bab7d3d7088986829f,626b377229c10585ec392f8a,626b3a9f79a56aa03a14ab38,,,,,,,,,,,,,,,,,,,,,,,a,1,"[""0.315"",""0.503"",""0.190"",""0.857""]","[1,1,0,1]",0,29,29,29,1,0,0,,,0,FALSE,2.414,,,,,,,,,,,,,,,,,,,,,,,,,,,,,,
,613d45bab7d3d7088986829f,001,2022-04-28_20h16.09.615,classification_task,2021.2.3,Win32,60.24822268,613d45bab7d3d7088986829f,626b377229c10585ec392f8a,626b3a9f79a56aa03a14ab38,,,,,,,,,,,,,,,,,,,,,,,a,1,"[""0.315"",""0.406"",""0.660"",""0.857""]","[1,0,1,1]",0,30,30,30,1,0,0,,,0,FALSE,2.9672,,,,,,,,,,,,,,,,,,,,,,,,,,,,,,
,613d45bab7d3d7088986829f,001,2022-04-28_20h16.09.615,classification_task,2021.2.3,Win32,60.24822268,613d45bab7d3d7088986829f,626b377229c10585ec392f8a,626b3a9f79a56aa03a14ab38,,,,,,,,,,,,,,,,,,,,,,,a,1,"[""0.820"",""0.503"",""0.660"",""0.857""]","[0,1,1,1]",0,31,31,31,1,0,0,,,0,FALSE,1.7488,,,,,,,,,,,,,,,,,,,,,,,,,,,,,,
,613d45bab7d3d7088986829f,001,2022-04-28_20h16.09.615,classification_task,2021.2.3,Win32,60.24822268,613d45bab7d3d7088986829f,626b377229c10585ec392f8a,626b3a9f79a56aa03a14ab38,,,,,,,,,,,,,,,,,,,,,,,l,1,"[""0.094"",""0.224"",""0.377"",""0.733""]","[1,1,0,1]",0,32,32,32,1,1,0,,,0,FALSE,0.6838,,,,,,,,,,,,,,,,,,,,,,,,,,,,,,
,613d45bab7d3d7088986829f,001,2022-04-28_20h16.09.615,classification_task,2021.2.3,Win32,60.24822268,613d45bab7d3d7088986829f,626b377229c10585ec392f8a,626b3a9f79a56aa03a14ab38,,,,,,,,,,,,,,,,,,,,,,,l,1,"[""0.055"",""0.393"",""0.574"",""0.784""]","[1,0,1,1]",0,33,33,33,1,1,1,,,0,FALSE,1.2022,,,,,,,,,,,,,,,,,,,,,,,,,,,,,,
,613d45bab7d3d7088986829f,001,2022-04-28_20h16.09.615,classification_task,2021.2.3,Win32,60.24822268,613d45bab7d3d7088986829f,626b377229c10585ec392f8a,626b3a9f79a56aa03a14ab38,,,,,,,,,,,,,,,,,,,,,,,a,1,"[""0.379"",""0.503"",""0.660"",""0.857""]","[0,1,1,1]",0,34,34,34,1,0,0,,,0,FALSE,1.4506,,,,,,,,,,,,,,,,,,,,,,,,,,,,,,
,613d45bab7d3d7088986829f,001,2022-04-28_20h16.09.615,classification_task,2021.2.3,Win32,60.24822268,613d45bab7d3d7088986829f,626b377229c10585ec392f8a,626b3a9f79a56aa03a14ab38,,,,,,,,,,,,,,,,,,,,,,,a,1,"[""0.274"",""0.446"",""0.397"",""0.973""]","[1,1,0,1]",0,35,35,35,1,0,1,,,0,FALSE,1.8856,,,,,,,,,,,,,,,,,,,,,,,,,,,,,,
,613d45bab7d3d7088986829f,001,2022-04-28_20h16.09.615,classification_task,2021.2.3,Win32,60.24822268,613d45bab7d3d7088986829f,626b377229c10585ec392f8a,626b3a9f79a56aa03a14ab38,,,,,,,,,,,,,,,,,,,,,,,l,1,"[""0.055"",""0.137"",""0.386"",""0.784""]","[1,1,0,1]",0,36,36,36,1,1,1,,,0,FALSE,0.6214,,,,,,,,,,,,,,,,,,,,,,,,,,,,,,
,613d45bab7d3d7088986829f,001,2022-04-28_20h16.09.615,classification_task,2021.2.3,Win32,60.24822268,613d45bab7d3d7088986829f,626b377229c10585ec392f8a,626b3a9f79a56aa03a14ab38,,,,,,,,,,,,,,,,,,,,,,,a,1,"[""0.315"",""0.503"",""0.660"",""0.377""]","[1,1,1,0]",0,37,37,37,1,0,0,,,0,FALSE,0.9795,,,,,,,,,,,,,,,,,,,,,,,,,,,,,,
,613d45bab7d3d7088986829f,001,2022-04-28_20h16.09.615,classification_task,2021.2.3,Win32,60.24822268,613d45bab7d3d7088986829f,626b377229c10585ec392f8a,626b3a9f79a56aa03a14ab38,,,,,,,,,,,,,,,,,,,,,,,a,1,"[""0.393"",""0.446"",""0.907"",""0.973""]","[0,1,1,1]",0,38,38,38,1,0,1,,,0,FALSE,2.7342,,,,,,,,,,,,,,,,,,,,,,,,,,,,,,
,613d45bab7d3d7088986829f,001,2022-04-28_20h16.09.615,classification_task,2021.2.3,Win32,60.24822268,613d45bab7d3d7088986829f,626b377229c10585ec392f8a,626b3a9f79a56aa03a14ab38,,,,,,,,,,,,,,,,,,,,,,,a,1,"[""0.274"",""0.820"",""0.907"",""0.973""]","[1,0,1,1]",0,39,39,39,1,0,1,,,0,FALSE,2.0685,,,,,,,,,,,,,,,,,,,,,,,,,,,,,,
,613d45bab7d3d7088986829f,001,2022-04-28_20h16.09.615,classification_task,2021.2.3,Win32,60.24822268,613d45bab7d3d7088986829f,626b377229c10585ec392f8a,626b3a9f79a56aa03a14ab38,,,,,,,,,,,,,,,,,,,,,,,a,1,"[""0.315"",""0.377"",""0.660"",""0.857""]","[1,0,1,1]",0,40,40,40,1,0,0,,,0,FALSE,0.9359,,,,,,,,,,,,,,,,,,,,,,,,,,,,,,
,613d45bab7d3d7088986829f,001,2022-04-28_20h16.09.615,classification_task,2021.2.3,Win32,60.24822268,613d45bab7d3d7088986829f,626b377229c10585ec392f8a,626b3a9f79a56aa03a14ab38,,,,,,,,,,,,,,,,,,,,,,,l,1,"[""0.055"",""0.137"",""0.574"",""0.820""]","[1,1,1,0]",0,41,41,41,1,1,1,,,0,FALSE,0.6348,,,,,,,,,,,,,,,,,,,,,,,,,,,,,,
,613d45bab7d3d7088986829f,001,2022-04-28_20h16.09.615,classification_task,2021.2.3,Win32,60.24822268,613d45bab7d3d7088986829f,626b377229c10585ec392f8a,626b3a9f79a56aa03a14ab38,,,,,,,,,,,,,,,,,,,,,,,a,1,"[""0.315"",""0.503"",""0.397"",""0.857""]","[1,1,0,1]",0,42,42,42,1,0,0,,,0,FALSE,1.6845,,,,,,,,,,,,,,,,,,,,,,,,,,,,,,
,613d45bab7d3d7088986829f,001,2022-04-28_20h16.09.615,classification_task,2021.2.3,Win32,60.24822268,613d45bab7d3d7088986829f,626b377229c10585ec392f8a,626b3a9f79a56aa03a14ab38,,,,,,,,,,,,,,,,,,,,,,,l,1,"[""0.094"",""0.386"",""0.614"",""0.733""]","[1,0,1,1]",0,43,43,43,1,1,0,,,0,FALSE,0.7635,,,,,,,,,,,,,,,,,,,,,,,,,,,,,,
,613d45bab7d3d7088986829f,001,2022-04-28_20h16.09.615,classification_task,2021.2.3,Win32,60.24822268,613d45bab7d3d7088986829f,626b377229c10585ec392f8a,626b3a9f79a56aa03a14ab38,,,,,,,,,,,,,,,,,,,,,,,a,0,"[""0.377"",""0.224"",""0.614"",""0.733""]","[0,1,1,1]",0,44,44,44,1,1,0,,,0,FALSE,1.5724,,,,,,,,,,,,,,,,,,,,,,,,,,,,,,
,613d45bab7d3d7088986829f,001,2022-04-28_20h16.09.615,classification_task,2021.2.3,Win32,60.24822268,613d45bab7d3d7088986829f,626b377229c10585ec392f8a,626b3a9f79a56aa03a14ab38,,,,,,,,,,,,,,,,,,,,,,,l,1,"[""0.094"",""0.224"",""0.614"",""0.379""]","[1,1,1,0]",0,45,45,45,1,1,0,,,0,FALSE,0.9346,,,,,,,,,,,,,,,,,,,,,,,,,,,,,,
,613d45bab7d3d7088986829f,001,2022-04-28_20h16.09.615,classification_task,2021.2.3,Win32,60.24822268,613d45bab7d3d7088986829f,626b377229c10585ec392f8a,626b3a9f79a56aa03a14ab38,,,,,,,,,,,,,,,,,,,,,,,l,0,"[""0.274"",""0.446"",""0.907"",""0.179""]","[1,1,1,0]",0,46,46,46,1,0,1,,,0,FALSE,1.8163,,,,,,,,,,,,,,,,,,,,,,,,,,,,,,
,613d45bab7d3d7088986829f,001,2022-04-28_20h16.09.615,classification_task,2021.2.3,Win32,60.24822268,613d45bab7d3d7088986829f,626b377229c10585ec392f8a,626b3a9f79a56aa03a14ab38,,,,,,,,,,,,,,,,,,,,,,,a,0,"[""0.393"",""0.137"",""0.574"",""0.784""]","[0,1,1,1]",0,47,47,47,1,1,1,,,0,FALSE,2.2343,,,,,,,,,,,,,,,,,,,,,,,,,,,,,,
,613d45bab7d3d7088986829f,001,2022-04-28_20h16.09.615,classification_task,2021.2.3,Win32,60.24822268,613d45bab7d3d7088986829f,626b377229c10585ec392f8a,626b3a9f79a56aa03a14ab38,,,,,,,,,,,,,,,,,,,,,,,l,1,"[""0.094"",""0.224"",""0.388"",""0.733""]","[1,1,0,1]",0,48,48,48,1,1,0,,,0,FALSE,0.8506,,,,,,,,,,,,,,,,,,,,,,,,,,,,,,
,613d45bab7d3d7088986829f,001,2022-04-28_20h16.09.615,classification_task,2021.2.3,Win32,60.24822268,613d45bab7d3d7088986829f,626b377229c10585ec392f8a,626b3a9f79a56aa03a14ab38,,,,,,,,,,,,,,,,,,,,,,,a,0,"[""0.393"",""0.224"",""0.614"",""0.733""]","[0,1,1,1]",0,49,49,49,1,1,0,,,0,FALSE,1.5704,,,,,,,,,,,,,,,,,,,,,,,,,,,,,,
,613d45bab7d3d7088986829f,001,2022-04-28_20h16.09.615,classification_task,2021.2.3,Win32,60.24822268,613d45bab7d3d7088986829f,626b377229c10585ec392f8a,626b3a9f79a56aa03a14ab38,,,,,,,,,,,,,,,,,,,,,,,l,1,"[""0.094"",""0.367"",""0.614"",""0.733""]","[1,0,1,1]",0,50,50,50,1,1,0,,,0,FALSE,0.6675,,,,,,,,,,,,,,,,,,,,,,,,,,,,,,
,613d45bab7d3d7088986829f,001,2022-04-28_20h16.09.615,classification_task,2021.2.3,Win32,60.24822268,613d45bab7d3d7088986829f,626b377229c10585ec392f8a,626b3a9f79a56aa03a14ab38,,,,,,,,,,,,,,,,,,,,,,,a,1,"[""0.367"",""0.503"",""0.660"",""0.857""]","[0,1,1,1]",0,51,51,51,1,0,0,,,0,FALSE,2.6677,,,,,,,,,,,,,,,,,,,,,,,,,,,,,,
,613d45bab7d3d7088986829f,001,2022-04-28_20h16.09.615,classification_task,2021.2.3,Win32,60.24822268,613d45bab7d3d7088986829f,626b377229c10585ec392f8a,626b3a9f79a56aa03a14ab38,,,,,,,,,,,,,,,,,,,,,,,a,1,"[""0.315"",""0.503"",""0.179"",""0.857""]","[1,1,0,1]",0,52,52,52,1,0,0,,,0,FALSE,3.4962,,,,,,,,,,,,,,,,,,,,,,,,,,,,,,
,613d45bab7d3d7088986829f,001,2022-04-28_20h16.09.615,classification_task,2021.2.3,Win32,60.24822268,613d45bab7d3d7088986829f,626b377229c10585ec392f8a,626b3a9f79a56aa03a14ab38,,,,,,,,,,,,,,,,,,,,,,,a,1,"[""0.274"",""0.446"",""0.367"",""0.973""]","[1,1,0,1]",0,53,53,53,1,0,1,,,0,FALSE,1.3474,,,,,,,,,,,,,,,,,,,,,,,,,,,,,,
,613d45bab7d3d7088986829f,001,2022-04-28_20h16.09.615,classification_task,2021.2.3,Win32,60.24822268,613d45bab7d3d7088986829f,626b377229c10585ec392f8a,626b3a9f79a56aa03a14ab38,,,,,,,,,,,,,,,,,,,,,,,a,1,"[""0.377"",""0.446"",""0.907"",""0.973""]","[0,1,1,1]",0,54,54,54,1,0,1,,,0,FALSE,2.4015,,,,,,,,,,,,,,,,,,,,,,,,,,,,,,
,613d45bab7d3d7088986829f,001,2022-04-28_20h16.09.615,classification_task,2021.2.3,Win32,60.24822268,613d45bab7d3d7088986829f,626b377229c10585ec392f8a,626b3a9f79a56aa03a14ab38,,,,,,,,,,,,,,,,,,,,,,,a,1,"[""0.274"",""0.446"",""0.907"",""0.388""]","[1,1,1,0]",0,55,55,55,1,0,1,,,0,FALSE,1.0998,,,,,,,,,,,,,,,,,,,,,,,,,,,,,,
,613d45bab7d3d7088986829f,001,2022-04-28_20h16.09.615,classification_task,2021.2.3,Win32,60.24822268,613d45bab7d3d7088986829f,626b377229c10585ec392f8a,626b3a9f79a56aa03a14ab38,,,,,,,,,,,,,,,,,,,,,,,l,1,"[""0.055"",""0.137"",""0.377"",""0.784""]","[1,1,0,1]",0,56,56,56,1,1,1,,,0,FALSE,2.3157,,,,,,,,,,,,,,,,,,,,,,,,,,,,,,
,613d45bab7d3d7088986829f,001,2022-04-28_20h16.09.615,classification_task,2021.2.3,Win32,60.24822268,613d45bab7d3d7088986829f,626b377229c10585ec392f8a,626b3a9f79a56aa03a14ab38,,,,,,,,,,,,,,,,,,,,,,,a,1,"[""0.274"",""0.388"",""0.907"",""0.973""]","[1,0,1,1]",0,57,57,57,1,0,1,,,0,FALSE,2.1296,,,,,,,,,,,,,,,,,,,,,,,,,,,,,,
,613d45bab7d3d7088986829f,001,2022-04-28_20h16.09.615,classification_task,2021.2.3,Win32,60.24822268,613d45bab7d3d7088986829f,626b377229c10585ec392f8a,626b3a9f79a56aa03a14ab38,,,,,,,,,,,,,,,,,,,,,,,a,1,"[""0.315"",""0.503"",""0.660"",""0.379""]","[1,1,1,0]",0,58,58,58,1,0,0,,,0,FALSE,3.0358,,,,,,,,,,,,,,,,,,,,,,,,,,,,,,
,613d45bab7d3d7088986829f,001,2022-04-28_20h16.09.615,classification_task,2021.2.3,Win32,60.24822268,613d45bab7d3d7088986829f,626b377229c10585ec392f8a,626b3a9f79a56aa03a14ab38,,,,,,,,,,,,,,,,,,,,,,,l,1,"[""0.055"",""0.406"",""0.574"",""0.784""]","[1,0,1,1]",0,59,59,59,1,1,1,,,0,FALSE,1.7036,,,,,,,,,,,,,,,,,,,,,,,,,,,,,,
,613d45bab7d3d7088986829f,001,2022-04-28_20h16.09.615,classification_task,2021.2.3,Win32,60.24822268,613d45bab7d3d7088986829f,626b377229c10585ec392f8a,626b3a9f79a56aa03a14ab38,,,,,,,,,,,,,,,,,,,,,,,a,0,"[""0.386"",""0.137"",""0.574"",""0.784""]","[0,1,1,1]",0,60,60,60,1,1,1,,,0,FALSE,3.7864,,,,,,,,,,,,,,,,,,,,,,,,,,,,,,
,613d45bab7d3d7088986829f,001,2022-04-28_20h16.09.615,classification_task,2021.2.3,Win32,60.24822268,613d45bab7d3d7088986829f,626b377229c10585ec392f8a,626b3a9f79a56aa03a14ab38,,,,,,,,,,,,,,,,,,,,,,,a,1,"[""0.315"",""0.379"",""0.660"",""0.857""]","[1,0,1,1]",0,61,61,61,1,0,0,,,0,FALSE,3.3221,,,,,,,,,,,,,,,,,,,,,,,,,,,,,,
,613d45bab7d3d7088986829f,001,2022-04-28_20h16.09.615,classification_task,2021.2.3,Win32,60.24822268,613d45bab7d3d7088986829f,626b377229c10585ec392f8a,626b3a9f79a56aa03a14ab38,,,,,,,,,,,,,,,,,,,,,,,l,1,"[""0.055"",""0.137"",""0.574"",""0.820""]","[1,1,1,0]",0,62,62,62,1,1,1,,,0,FALSE,2.1997,,,,,,,,,,,,,,,,,,,,,,,,,,,,,,
,613d45bab7d3d7088986829f,001,2022-04-28_20h16.09.615,classification_task,2021.2.3,Win32,60.24822268,613d45bab7d3d7088986829f,626b377229c10585ec392f8a,626b3a9f79a56aa03a14ab38,,,,,,,,,,,,,,,,,,,,,,,l,1,"[""0.094"",""0.224"",""0.614"",""0.393""]","[1,1,1,0]",0,63,63,63,1,1,0,,,0,FALSE,2.517,,,,,,,,,,,,,,,,,,,,,,,,,,,,,,
,613d45bab7d3d7088986829f,001,2022-04-28_20h16.09.615,classification_task,2021.2.3,Win32,60.24822268,613d45bab7d3d7088986829f,626b377229c10585ec392f8a,626b3a9f79a56aa03a14ab38,,,,,,,,,,,,,,,,,,,,,,,,,,,,,,,,,,,,,,,0, ,,0,,,0,1,1,1,1,2,2,,,,,,,,,,,,,,,,,
,613d45bab7d3d7088986829f,001,2022-04-28_20h16.09.615,classification_task,2021.2.3,Win32,60.24822268,613d45bab7d3d7088986829f,626b377229c10585ec392f8a,626b3a9f79a56aa03a14ab38,,,,,,,,,,,,,,,,,,,,,,,,,,,,,,,,,,,,,,,1,  ,,0,,,0,1,1,1,1,2,2,,,,,,,,,,,,,,,,,
,613d45bab7d3d7088986829f,001,2022-04-28_20h16.09.615,classification_task,2021.2.3,Win32,60.24822268,613d45bab7d3d7088986829f,626b377229c10585ec392f8a,626b3a9f79a56aa03a14ab38,,,,,,,,,,,,,,,,,,,,,,,,,,,,,,,,,,,,,,,2,  ,,0,,,0,1,1,1,1,2,2,,,,,,,,,,,,,,,,,
,613d45bab7d3d7088986829f,001,2022-04-28_20h16.09.615,classification_task,2021.2.3,Win32,60.24822268,613d45bab7d3d7088986829f,626b377229c10585ec392f8a,626b3a9f79a56aa03a14ab38,,,,,,,,,,,,,,,,,,,,,,,,,,,,,,,,,,,,,,,,,,,,,0,1,1,1,1,,2,,,,,,,,,,,,,,,,,
,613d45bab7d3d7088986829f,001,2022-04-28_20h16.09.615,classification_task,2021.2.3,Win32,60.24822268,613d45bab7d3d7088986829f,626b377229c10585ec392f8a,626b3a9f79a56aa03a14ab38,,,,,,,,,,,,,,,,,,,,,space,20.9869,l,1,"[""0.094"",""0.224"",""0.397"",""0.733""]","[1,1,0,1]",0,0,0,0,1,1,0,,,0,FALSE,3.6272,,,,,,,,,,,,,,,,,,,,,,,,,,,,,,
,613d45bab7d3d7088986829f,001,2022-04-28_20h16.09.615,classification_task,2021.2.3,Win32,60.24822268,613d45bab7d3d7088986829f,626b377229c10585ec392f8a,626b3a9f79a56aa03a14ab38,,,,,,,,,,,,,,,,,,,,,,,a,1,"[""0.315"",""0.397"",""0.660"",""0.857""]","[1,0,1,1]",0,1,1,1,1,0,0,,,0,FALSE,1.3207,,,,,,,,,,,,,,,,,,,,,,,,,,,,,,
,613d45bab7d3d7088986829f,001,2022-04-28_20h16.09.615,classification_task,2021.2.3,Win32,60.24822268,613d45bab7d3d7088986829f,626b377229c10585ec392f8a,626b3a9f79a56aa03a14ab38,,,,,,,,,,,,,,,,,,,,,,,l,1,"[""0.055"",""0.137"",""0.574"",""0.386""]","[1,1,1,0]",0,2,2,2,1,1,1,,,0,FALSE,0.8166,,,,,,,,,,,,,,,,,,,,,,,,,,,,,,
,613d45bab7d3d7088986829f,001,2022-04-28_20h16.09.615,classification_task,2021.2.3,Win32,60.24822268,613d45bab7d3d7088986829f,626b377229c10585ec392f8a,626b3a9f79a56aa03a14ab38,,,,,,,,,,,,,,,,,,,,,,,l,1,"[""0.055"",""0.367"",""0.574"",""0.784""]","[1,0,1,1]",0,3,3,3,1,1,1,,,0,FALSE,0.6011,,,,,,,,,,,,,,,,,,,,,,,,,,,,,,
,613d45bab7d3d7088986829f,001,2022-04-28_20h16.09.615,classification_task,2021.2.3,Win32,60.24822268,613d45bab7d3d7088986829f,626b377229c10585ec392f8a,626b3a9f79a56aa03a14ab38,,,,,,,,,,,,,,,,,,,,,,,a,1,"[""0.315"",""0.503"",""0.393"",""0.857""]","[1,1,0,1]",0,4,4,4,1,0,0,,,0,FALSE,0.8842,,,,,,,,,,,,,,,,,,,,,,,,,,,,,,
,613d45bab7d3d7088986829f,001,2022-04-28_20h16.09.615,classification_task,2021.2.3,Win32,60.24822268,613d45bab7d3d7088986829f,626b377229c10585ec392f8a,626b3a9f79a56aa03a14ab38,,,,,,,,,,,,,,,,,,,,,,,l,1,"[""0.055"",""0.137"",""0.386"",""0.784""]","[1,1,0,1]",0,5,5,5,1,1,1,,,0,FALSE,0.6865,,,,,,,,,,,,,,,,,,,,,,,,,,,,,,
,613d45bab7d3d7088986829f,001,2022-04-28_20h16.09.615,classification_task,2021.2.3,Win32,60.24822268,613d45bab7d3d7088986829f,626b377229c10585ec392f8a,626b3a9f79a56aa03a14ab38,,,,,,,,,,,,,,,,,,,,,,,a,1,"[""0.386"",""0.446"",""0.907"",""0.973""]","[0,1,1,1]",0,6,6,6,1,0,1,,,0,FALSE,0.8835,,,,,,,,,,,,,,,,,,,,,,,,,,,,,,
,613d45bab7d3d7088986829f,001,2022-04-28_20h16.09.615,classification_task,2021.2.3,Win32,60.24822268,613d45bab7d3d7088986829f,626b377229c10585ec392f8a,626b3a9f79a56aa03a14ab38,,,,,,,,,,,,,,,,,,,,,,,l,1,"[""0.094"",""0.224"",""0.614"",""0.393""]","[1,1,1,0]",0,7,7,7,1,1,0,,,0,FALSE,1.8175,,,,,,,,,,,,,,,,,,,,,,,,,,,,,,
,613d45bab7d3d7088986829f,001,2022-04-28_20h16.09.615,classification_task,2021.2.3,Win32,60.24822268,613d45bab7d3d7088986829f,626b377229c10585ec392f8a,626b3a9f79a56aa03a14ab38,,,,,,,,,,,,,,,,,,,,,,,l,1,"[""0.820"",""0.137"",""0.574"",""0.784""]","[0,1,1,1]",0,8,8,8,1,1,1,,,0,FALSE,0.9962,,,,,,,,,,,,,,,,,,,,,,,,,,,,,,
,613d45bab7d3d7088986829f,001,2022-04-28_20h16.09.615,classification_task,2021.2.3,Win32,60.24822268,613d45bab7d3d7088986829f,626b377229c10585ec392f8a,626b3a9f79a56aa03a14ab38,,,,,,,,,,,,,,,,,,,,,,,a,1,"[""0.274"",""0.820"",""0.907"",""0.973""]","[1,0,1,1]",0,9,9,9,1,0,1,,,0,FALSE,2.3007,,,,,,,,,,,,,,,,,,,,,,,,,,,,,,
,613d45bab7d3d7088986829f,001,2022-04-28_20h16.09.615,classification_task,2021.2.3,Win32,60.24822268,613d45bab7d3d7088986829f,626b377229c10585ec392f8a,626b3a9f79a56aa03a14ab38,,,,,,,,,,,,,,,,,,,,,,,a,1,"[""0.274"",""0.446"",""0.393"",""0.973""]","[1,1,0,1]",0,10,10,10,1,0,1,,,0,FALSE,0.8169,,,,,,,,,,,,,,,,,,,,,,,,,,,,,,
,613d45bab7d3d7088986829f,001,2022-04-28_20h16.09.615,classification_task,2021.2.3,Win32,60.24822268,613d45bab7d3d7088986829f,626b377229c10585ec392f8a,626b3a9f79a56aa03a14ab38,,,,,,,,,,,,,,,,,,,,,,,a,1,"[""0.315"",""0.503"",""0.660"",""0.406""]","[1,1,1,0]",0,11,11,11,1,0,0,,,0,FALSE,0.755,,,,,,,,,,,,,,,,,,,,,,,,,,,,,,
,613d45bab7d3d7088986829f,001,2022-04-28_20h16.09.615,classification_task,2021.2.3,Win32,60.24822268,613d45bab7d3d7088986829f,626b377229c10585ec392f8a,626b3a9f79a56aa03a14ab38,,,,,,,,,,,,,,,,,,,,,,,a,1,"[""0.395"",""0.503"",""0.660"",""0.857""]","[0,1,1,1]",0,12,12,12,1,0,0,,,0,FALSE,0.6523,,,,,,,,,,,,,,,,,,,,,,,,,,,,,,
,613d45bab7d3d7088986829f,001,2022-04-28_20h16.09.615,classification_task,2021.2.3,Win32,60.24822268,613d45bab7d3d7088986829f,626b377229c10585ec392f8a,626b3a9f79a56aa03a14ab38,,,,,,,,,,,,,,,,,,,,,,,l,1,"[""0.094"",""0.397"",""0.614"",""0.733""]","[1,0,1,1]",0,13,13,13,1,1,0,,,0,FALSE,0.6386,,,,,,,,,,,,,,,,,,,,,,,,,,,,,,
,613d45bab7d3d7088986829f,001,2022-04-28_20h16.09.615,classification_task,2021.2.3,Win32,60.24822268,613d45bab7d3d7088986829f,626b377229c10585ec392f8a,626b3a9f79a56aa03a14ab38,,,,,,,,,,,,,,,,,,,,,,,l,1,"[""0.179"",""0.224"",""0.614"",""0.733""]","[0,1,1,1]",0,14,14,14,1,1,0,,,0,FALSE,0.8483,,,,,,,,,,,,,,,,,,,,,,,,,,,,,,
,613d45bab7d3d7088986829f,001,2022-04-28_20h16.09.615,classification_task,2021.2.3,Win32,60.24822268,613d45bab7d3d7088986829f,626b377229c10585ec392f8a,626b3a9f79a56aa03a14ab38,,,,,,,,,,,,,,,,,,,,,,,a,1,"[""0.274"",""0.446"",""0.907"",""0.393""]","[1,1,1,0]",0,15,15,15,1,0,1,,,0,FALSE,2.7311,,,,,,,,,,,,,,,,,,,,,,,,,,,,,,
,613d45bab7d3d7088986829f,001,2022-04-28_20h16.09.615,classification_task,2021.2.3,Win32,60.24822268,613d45bab7d3d7088986829f,626b377229c10585ec392f8a,626b3a9f79a56aa03a14ab38,,,,,,,,,,,,,,,,,,,,,,,a,1,"[""0.274"",""0.446"",""0.907"",""0.406""]","[1,1,1,0]",0,16,16,16,1,0,1,,,0,FALSE,0.6117,,,,,,,,,,,,,,,,,,,,,,,,,,,,,,
,613d45bab7d3d7088986829f,001,2022-04-28_20h16.09.615,classification_task,2021.2.3,Win32,60.24822268,613d45bab7d3d7088986829f,626b377229c10585ec392f8a,626b3a9f79a56aa03a14ab38,,,,,,,,,,,,,,,,,,,,,,,a,1,"[""0.315"",""0.367"",""0.660"",""0.857""]","[1,0,1,1]",0,17,17,17,1,0,0,,,0,FALSE,0.9177,,,,,,,,,,,,,,,,,,,,,,,,,,,,,,
,613d45bab7d3d7088986829f,001,2022-04-28_20h16.09.615,classification_task,2021.2.3,Win32,60.24822268,613d45bab7d3d7088986829f,626b377229c10585ec392f8a,626b3a9f79a56aa03a14ab38,,,,,,,,,,,,,,,,,,,,,,,l,0,"[""0.274"",""0.446"",""0.395"",""0.973""]","[1,1,0,1]",0,18,18,18,1,0,1,,,0,FALSE,1.8362,,,,,,,,,,,,,,,,,,,,,,,,,,,,,,
,613d45bab7d3d7088986829f,001,2022-04-28_20h16.09.615,classification_task,2021.2.3,Win32,60.24822268,613d45bab7d3d7088986829f,626b377229c10585ec392f8a,626b3a9f79a56aa03a14ab38,,,,,,,,,,,,,,,,,,,,,,,l,1,"[""0.055"",""0.386"",""0.574"",""0.784""]","[1,0,1,1]",0,19,19,19,1,1,1,,,0,FALSE,2.0344,,,,,,,,,,,,,,,,,,,,,,,,,,,,,,
,613d45bab7d3d7088986829f,001,2022-04-28_20h16.09.615,classification_task,2021.2.3,Win32,60.24822268,613d45bab7d3d7088986829f,626b377229c10585ec392f8a,626b3a9f79a56aa03a14ab38,,,,,,,,,,,,,,,,,,,,,,,a,1,"[""0.274"",""0.820"",""0.907"",""0.973""]","[1,0,1,1]",0,20,20,20,1,0,1,,,0,FALSE,1.4125,,,,,,,,,,,,,,,,,,,,,,,,,,,,,,
,613d45bab7d3d7088986829f,001,2022-04-28_20h16.09.615,classification_task,2021.2.3,Win32,60.24822268,613d45bab7d3d7088986829f,626b377229c10585ec392f8a,626b3a9f79a56aa03a14ab38,,,,,,,,,,,,,,,,,,,,,,,l,1,"[""0.386"",""0.224"",""0.614"",""0.733""]","[0,1,1,1]",0,21,21,21,1,1,0,,,0,FALSE,1.2001,,,,,,,,,,,,,,,,,,,,,,,,,,,,,,
,613d45bab7d3d7088986829f,001,2022-04-28_20h16.09.615,classification_task,2021.2.3,Win32,60.24822268,613d45bab7d3d7088986829f,626b377229c10585ec392f8a,626b3a9f79a56aa03a14ab38,,,,,,,,,,,,,,,,,,,,,,,a,1,"[""0.406"",""0.503"",""0.660"",""0.857""]","[0,1,1,1]",0,22,22,22,1,0,0,,,0,FALSE,1.2178,,,,,,,,,,,,,,,,,,,,,,,,,,,,,,
,613d45bab7d3d7088986829f,001,2022-04-28_20h16.09.615,classification_task,2021.2.3,Win32,60.24822268,613d45bab7d3d7088986829f,626b377229c10585ec392f8a,626b3a9f79a56aa03a14ab38,,,,,,,,,,,,,,,,,,,,,,,a,1,"[""0.315"",""0.503"",""0.660"",""0.397""]","[1,1,1,0]",0,23,23,23,1,0,0,,,0,FALSE,1.3323,,,,,,,,,,,,,,,,,,,,,,,,,,,,,,
,613d45bab7d3d7088986829f,001,2022-04-28_20h16.09.615,classification_task,2021.2.3,Win32,60.24822268,613d45bab7d3d7088986829f,626b377229c10585ec392f8a,626b3a9f79a56aa03a14ab38,,,,,,,,,,,,,,,,,,,,,,,a,1,"[""0.315"",""0.503"",""0.367"",""0.857""]","[1,1,0,1]",0,24,24,24,1,0,0,,,0,FALSE,1.4381,,,,,,,,,,,,,,,,,,,,,,,,,,,,,,
,613d45bab7d3d7088986829f,001,2022-04-28_20h16.09.615,classification_task,2021.2.3,Win32,60.24822268,613d45bab7d3d7088986829f,626b377229c10585ec392f8a,626b3a9f79a56aa03a14ab38,,,,,,,,,,,,,,,,,,,,,,,a,1,"[""0.820"",""0.446"",""0.907"",""0.973""]","[0,1,1,1]",0,25,25,25,1,0,1,,,0,FALSE,2.5663,,,,,,,,,,,,,,,,,,,,,,,,,,,,,,
,613d45bab7d3d7088986829f,001,2022-04-28_20h16.09.615,classification_task,2021.2.3,Win32,60.24822268,613d45bab7d3d7088986829f,626b377229c10585ec392f8a,626b3a9f79a56aa03a14ab38,,,,,,,,,,,,,,,,,,,,,,,l,1,"[""0.094"",""0.224"",""0.614"",""0.367""]","[1,1,1,0]",0,26,26,26,1,1,0,,,0,FALSE,0.6662,,,,,,,,,,,,,,,,,,,,,,,,,,,,,,
,613d45bab7d3d7088986829f,001,2022-04-28_20h16.09.615,classification_task,2021.2.3,Win32,60.24822268,613d45bab7d3d7088986829f,626b377229c10585ec392f8a,626b3a9f79a56aa03a14ab38,,,,,,,,,,,,,,,,,,,,,,,l,1,"[""0.055"",""0.137"",""0.190"",""0.784""]","[1,1,0,1]",0,27,27,27,1,1,1,,,0,FALSE,0.8505,,,,,,,,,,,,,,,,,,,,,,,,,,,,,,
,613d45bab7d3d7088986829f,001,2022-04-28_20h16.09.615,classification_task,2021.2.3,Win32,60.24822268,613d45bab7d3d7088986829f,626b377229c10585ec392f8a,626b3a9f79a56aa03a14ab38,,,,,,,,,,,,,,,,,,,,,,,l,1,"[""0.406"",""0.137"",""0.574"",""0.784""]","[0,1,1,1]",0,28,28,28,1,1,1,,,0,FALSE,0.9835,,,,,,,,,,,,,,,,,,,,,,,,,,,,,,
,613d45bab7d3d7088986829f,001,2022-04-28_20h16.09.615,classification_task,2021.2.3,Win32,60.24822268,613d45bab7d3d7088986829f,626b377229c10585ec392f8a,626b3a9f79a56aa03a14ab38,,,,,,,,,,,,,,,,,,,,,,,l,1,"[""0.055"",""0.137"",""0.574"",""0.179""]","[1,1,1,0]",0,29,29,29,1,1,1,,,0,FALSE,0.7997,,,,,,,,,,,,,,,,,,,,,,,,,,,,,,
,613d45bab7d3d7088986829f,001,2022-04-28_20h16.09.615,classification_task,2021.2.3,Win32,60.24822268,613d45bab7d3d7088986829f,626b377229c10585ec392f8a,626b3a9f79a56aa03a14ab38,,,,,,,,,,,,,,,,,,,,,,,l,1,"[""0.094"",""0.224"",""0.395"",""0.733""]","[1,1,0,1]",0,30,30,30,1,1,0,,,0,FALSE,0.9826,,,,,,,,,,,,,,,,,,,,,,,,,,,,,,
,613d45bab7d3d7088986829f,001,2022-04-28_20h16.09.615,classification_task,2021.2.3,Win32,60.24822268,613d45bab7d3d7088986829f,626b377229c10585ec392f8a,626b3a9f79a56aa03a14ab38,,,,,,,,,,,,,,,,,,,,,,,l,1,"[""0.094"",""0.820"",""0.614"",""0.733""]","[1,0,1,1]",0,31,31,31,1,1,0,,,0,FALSE,0.6667,,,,,,,,,,,,,,,,,,,,,,,,,,,,,,
,613d45bab7d3d7088986829f,001,2022-04-28_20h16.09.615,classification_task,2021.2.3,Win32,60.24822268,613d45bab7d3d7088986829f,626b377229c10585ec392f8a,626b3a9f79a56aa03a14ab38,,,,,,,,,,,,,,,,,,,,,,,l,1,"[""0.094"",""0.190"",""0.614"",""0.733""]","[1,0,1,1]",0,32,32,32,1,1,0,,,0,FALSE,0.684,,,,,,,,,,,,,,,,,,,,,,,,,,,,,,
,613d45bab7d3d7088986829f,001,2022-04-28_20h16.09.615,classification_task,2021.2.3,Win32,60.24822268,613d45bab7d3d7088986829f,626b377229c10585ec392f8a,626b3a9f79a56aa03a14ab38,,,,,,,,,,,,,,,,,,,,,,,l,1,"[""0.055"",""0.388"",""0.574"",""0.784""]","[1,0,1,1]",0,33,33,33,1,1,1,,,0,FALSE,0.6995,,,,,,,,,,,,,,,,,,,,,,,,,,,,,,
,613d45bab7d3d7088986829f,001,2022-04-28_20h16.09.615,classification_task,2021.2.3,Win32,60.24822268,613d45bab7d3d7088986829f,626b377229c10585ec392f8a,626b3a9f79a56aa03a14ab38,,,,,,,,,,,,,,,,,,,,,,,a,1,"[""0.377"",""0.446"",""0.907"",""0.973""]","[0,1,1,1]",0,34,34,34,1,0,1,,,0,FALSE,1.5168,,,,,,,,,,,,,,,,,,,,,,,,,,,,,,
,613d45bab7d3d7088986829f,001,2022-04-28_20h16.09.615,classification_task,2021.2.3,Win32,60.24822268,613d45bab7d3d7088986829f,626b377229c10585ec392f8a,626b3a9f79a56aa03a14ab38,,,,,,,,,,,,,,,,,,,,,,,a,1,"[""0.274"",""0.395"",""0.907"",""0.973""]","[1,0,1,1]",0,35,35,35,1,0,1,,,0,FALSE,3.6217,,,,,,,,,,,,,,,,,,,,,,,,,,,,,,
,613d45bab7d3d7088986829f,001,2022-04-28_20h16.09.615,classification_task,2021.2.3,Win32,60.24822268,613d45bab7d3d7088986829f,626b377229c10585ec392f8a,626b3a9f79a56aa03a14ab38,,,,,,,,,,,,,,,,,,,,,,,l,1,"[""0.055"",""0.137"",""0.574"",""0.367""]","[1,1,1,0]",0,36,36,36,1,1,1,,,0,FALSE,0.7447,,,,,,,,,,,,,,,,,,,,,,,,,,,,,,
,613d45bab7d3d7088986829f,001,2022-04-28_20h16.09.615,classification_task,2021.2.3,Win32,60.24822268,613d45bab7d3d7088986829f,626b377229c10585ec392f8a,626b3a9f79a56aa03a14ab38,,,,,,,,,,,,,,,,,,,,,,,a,1,"[""0.315"",""0.503"",""0.377"",""0.857""]","[1,1,0,1]",0,37,37,37,1,0,0,,,0,FALSE,1.4346,,,,,,,,,,,,,,,,,,,,,,,,,,,,,,
,613d45bab7d3d7088986829f,001,2022-04-28_20h16.09.615,classification_task,2021.2.3,Win32,60.24822268,613d45bab7d3d7088986829f,626b377229c10585ec392f8a,626b3a9f79a56aa03a14ab38,,,,,,,,,,,,,,,,,,,,,,,a,0,"[""0.094"",""0.224"",""0.388"",""0.733""]","[1,1,0,1]",0,38,38,38,1,1,0,,,0,FALSE,1.0499,,,,,,,,,,,,,,,,,,,,,,,,,,,,,,
,613d45bab7d3d7088986829f,001,2022-04-28_20h16.09.615,classification_task,2021.2.3,Win32,60.24822268,613d45bab7d3d7088986829f,626b377229c10585ec392f8a,626b3a9f79a56aa03a14ab38,,,,,,,,,,,,,,,,,,,,,,,a,1,"[""0.274"",""0.446"",""0.395"",""0.973""]","[1,1,0,1]",0,39,39,39,1,0,1,,,0,FALSE,1.7856,,,,,,,,,,,,,,,,,,,,,,,,,,,,,,
,613d45bab7d3d7088986829f,001,2022-04-28_20h16.09.615,classification_task,2021.2.3,Win32,60.24822268,613d45bab7d3d7088986829f,626b377229c10585ec392f8a,626b3a9f79a56aa03a14ab38,,,,,,,,,,,,,,,,,,,,,,,l,0,"[""0.315"",""0.503"",""0.660"",""0.379""]","[1,1,1,0]",0,40,40,40,1,0,0,,,0,FALSE,1.8107,,,,,,,,,,,,,,,,,,,,,,,,,,,,,,
,613d45bab7d3d7088986829f,001,2022-04-28_20h16.09.615,classification_task,2021.2.3,Win32,60.24822268,613d45bab7d3d7088986829f,626b377229c10585ec392f8a,626b3a9f79a56aa03a14ab38,,,,,,,,,,,,,,,,,,,,,,,a,0,"[""0.397"",""0.224"",""0.614"",""0.733""]","[0,1,1,1]",0,41,41,41,1,1,0,,,0,FALSE,1.8039,,,,,,,,,,,,,,,,,,,,,,,,,,,,,,
,613d45bab7d3d7088986829f,001,2022-04-28_20h16.09.615,classification_task,2021.2.3,Win32,60.24822268,613d45bab7d3d7088986829f,626b377229c10585ec392f8a,626b3a9f79a56aa03a14ab38,,,,,,,,,,,,,,,,,,,,,,,l,1,"[""0.393"",""0.137"",""0.574"",""0.784""]","[0,1,1,1]",0,42,42,42,1,1,1,,,0,FALSE,1.3366,,,,,,,,,,,,,,,,,,,,,,,,,,,,,,
,613d45bab7d3d7088986829f,001,2022-04-28_20h16.09.615,classification_task,2021.2.3,Win32,60.24822268,613d45bab7d3d7088986829f,626b377229c10585ec392f8a,626b3a9f79a56aa03a14ab38,,,,,,,,,,,,,,,,,,,,,,,a,1,"[""0.393"",""0.503"",""0.660"",""0.857""]","[0,1,1,1]",0,43,43,43,1,0,0,,,0,FALSE,1.161,,,,,,,,,,,,,,,,,,,,,,,,,,,,,,
,613d45bab7d3d7088986829f,001,2022-04-28_20h16.09.615,classification_task,2021.2.3,Win32,60.24822268,613d45bab7d3d7088986829f,626b377229c10585ec392f8a,626b3a9f79a56aa03a14ab38,,,,,,,,,,,,,,,,,,,,,,,l,1,"[""0.055"",""0.137"",""0.406"",""0.784""]","[1,1,0,1]",0,44,44,44,1,1,1,,,0,FALSE,0.5648,,,,,,,,,,,,,,,,,,,,,,,,,,,,,,
,613d45bab7d3d7088986829f,001,2022-04-28_20h16.09.615,classification_task,2021.2.3,Win32,60.24822268,613d45bab7d3d7088986829f,626b377229c10585ec392f8a,626b3a9f79a56aa03a14ab38,,,,,,,,,,,,,,,,,,,,,,,l,1,"[""0.094"",""0.224"",""0.614"",""0.367""]","[1,1,1,0]",0,45,45,45,1,1,0,,,0,FALSE,0.7863,,,,,,,,,,,,,,,,,,,,,,,,,,,,,,
,613d45bab7d3d7088986829f,001,2022-04-28_20h16.09.615,classification_task,2021.2.3,Win32,60.24822268,613d45bab7d3d7088986829f,626b377229c10585ec392f8a,626b3a9f79a56aa03a14ab38,,,,,,,,,,,,,,,,,,,,,,,a,1,"[""0.315"",""0.393"",""0.660"",""0.857""]","[1,0,1,1]",0,46,46,46,1,0,0,,,0,FALSE,1.9509,,,,,,,,,,,,,,,,,,,,,,,,,,,,,,
,613d45bab7d3d7088986829f,001,2022-04-28_20h16.09.615,classification_task,2021.2.3,Win32,60.24822268,613d45bab7d3d7088986829f,626b377229c10585ec392f8a,626b3a9f79a56aa03a14ab38,,,,,,,,,,,,,,,,,,,,,,,a,1,"[""0.274"",""0.446"",""0.907"",""0.386""]","[1,1,1,0]",0,47,47,47,1,0,1,,,0,FALSE,2.0942,,,,,,,,,,,,,,,,,,,,,,,,,,,,,,
,613d45bab7d3d7088986829f,001,2022-04-28_20h16.09.615,classification_task,2021.2.3,Win32,60.24822268,613d45bab7d3d7088986829f,626b377229c10585ec392f8a,626b3a9f79a56aa03a14ab38,,,,,,,,,,,,,,,,,,,,,,,l,1,"[""0.094"",""0.224"",""0.388"",""0.733""]","[1,1,0,1]",0,48,48,48,1,1,0,,,0,FALSE,0.6995,,,,,,,,,,,,,,,,,,,,,,,,,,,,,,
,613d45bab7d3d7088986829f,001,2022-04-28_20h16.09.615,classification_task,2021.2.3,Win32,60.24822268,613d45bab7d3d7088986829f,626b377229c10585ec392f8a,626b3a9f79a56aa03a14ab38,,,,,,,,,,,,,,,,,,,,,,,a,1,"[""0.386"",""0.503"",""0.660"",""0.857""]","[0,1,1,1]",0,49,49,49,1,0,0,,,0,FALSE,1.0676,,,,,,,,,,,,,,,,,,,,,,,,,,,,,,
,613d45bab7d3d7088986829f,001,2022-04-28_20h16.09.615,classification_task,2021.2.3,Win32,60.24822268,613d45bab7d3d7088986829f,626b377229c10585ec392f8a,626b3a9f79a56aa03a14ab38,,,,,,,,,,,,,,,,,,,,,,,a,1,"[""0.274"",""0.446"",""0.907"",""0.388""]","[1,1,1,0]",0,50,50,50,1,0,1,,,0,FALSE,3.2906,,,,,,,,,,,,,,,,,,,,,,,,,,,,,,
,613d45bab7d3d7088986829f,001,2022-04-28_20h16.09.615,classification_task,2021.2.3,Win32,60.24822268,613d45bab7d3d7088986829f,626b377229c10585ec392f8a,626b3a9f79a56aa03a14ab38,,,,,,,,,,,,,,,,,,,,,,,l,1,"[""0.388"",""0.137"",""0.574"",""0.784""]","[0,1,1,1]",0,51,51,51,1,1,1,,,0,FALSE,0.6814,,,,,,,,,,,,,,,,,,,,,,,,,,,,,,
,613d45bab7d3d7088986829f,001,2022-04-28_20h16.09.615,classification_task,2021.2.3,Win32,60.24822268,613d45bab7d3d7088986829f,626b377229c10585ec392f8a,626b3a9f79a56aa03a14ab38,,,,,,,,,,,,,,,,,,,,,,,l,1,"[""0.055"",""0.397"",""0.574"",""0.784""]","[1,0,1,1]",0,52,52,52,1,1,1,,,0,FALSE,0.5837,,,,,,,,,,,,,,,,,,,,,,,,,,,,,,
,613d45bab7d3d7088986829f,001,2022-04-28_20h16.09.615,classification_task,2021.2.3,Win32,60.24822268,613d45bab7d3d7088986829f,626b377229c10585ec392f8a,626b3a9f79a56aa03a14ab38,,,,,,,,,,,,,,,,,,,,,,,a,1,"[""0.315"",""0.503"",""0.660"",""0.386""]","[1,1,1,0]",0,53,53,53,1,0,0,,,0,FALSE,0.8674,,,,,,,,,,,,,,,,,,,,,,,,,,,,,,
,613d45bab7d3d7088986829f,001,2022-04-28_20h16.09.615,classification_task,2021.2.3,Win32,60.24822268,613d45bab7d3d7088986829f,626b377229c10585ec392f8a,626b3a9f79a56aa03a14ab38,,,,,,,,,,,,,,,,,,,,,,,l,0,"[""0.315"",""0.190"",""0.660"",""0.857""]","[1,0,1,1]",0,54,54,54,1,0,0,,,0,FALSE,0.6678,,,,,,,,,,,,,,,,,,,,,,,,,,,,,,
,613d45bab7d3d7088986829f,001,2022-04-28_20h16.09.615,classification_task,2021.2.3,Win32,60.24822268,613d45bab7d3d7088986829f,626b377229c10585ec392f8a,626b3a9f79a56aa03a14ab38,,,,,,,,,,,,,,,,,,,,,,,a,0,"[""0.388"",""0.224"",""0.614"",""0.733""]","[0,1,1,1]",0,55,55,55,1,1,0,,,0,FALSE,0.8993,,,,,,,,,,,,,,,,,,,,,,,,,,,,,,
,613d45bab7d3d7088986829f,001,2022-04-28_20h16.09.615,classification_task,2021.2.3,Win32,60.24822268,613d45bab7d3d7088986829f,626b377229c10585ec392f8a,626b3a9f79a56aa03a14ab38,,,,,,,,,,,,,,,,,,,,,,,l,1,"[""0.094"",""0.188"",""0.614"",""0.733""]","[1,0,1,1]",0,56,56,56,1,1,0,,,0,FALSE,0.6412,,,,,,,,,,,,,,,,,,,,,,,,,,,,,,
,613d45bab7d3d7088986829f,001,2022-04-28_20h16.09.615,classification_task,2021.2.3,Win32,60.24822268,613d45bab7d3d7088986829f,626b377229c10585ec392f8a,626b3a9f79a56aa03a14ab38,,,,,,,,,,,,,,,,,,,,,,,a,1,"[""0.377"",""0.446"",""0.907"",""0.973""]","[0,1,1,1]",0,57,57,57,1,0,1,,,0,FALSE,0.8863,,,,,,,,,,,,,,,,,,,,,,,,,,,,,,
,613d45bab7d3d7088986829f,001,2022-04-28_20h16.09.615,classification_task,2021.2.3,Win32,60.24822268,613d45bab7d3d7088986829f,626b377229c10585ec392f8a,626b3a9f79a56aa03a14ab38,,,,,,,,,,,,,,,,,,,,,,,l,0,"[""0.274"",""0.446"",""0.188"",""0.973""]","[1,1,0,1]",0,58,58,58,1,0,1,,,0,FALSE,1.1494,,,,,,,,,,,,,,,,,,,,,,,,,,,,,,
,613d45bab7d3d7088986829f,001,2022-04-28_20h16.09.615,classification_task,2021.2.3,Win32,60.24822268,613d45bab7d3d7088986829f,626b377229c10585ec392f8a,626b3a9f79a56aa03a14ab38,,,,,,,,,,,,,,,,,,,,,,,a,1,"[""0.274"",""0.377"",""0.907"",""0.973""]","[1,0,1,1]",0,59,59,59,1,0,1,,,0,FALSE,1.6839,,,,,,,,,,,,,,,,,,,,,,,,,,,,,,
,613d45bab7d3d7088986829f,001,2022-04-28_20h16.09.615,classification_task,2021.2.3,Win32,60.24822268,613d45bab7d3d7088986829f,626b377229c10585ec392f8a,626b3a9f79a56aa03a14ab38,,,,,,,,,,,,,,,,,,,,,,,l,1,"[""0.094"",""0.224"",""0.614"",""0.388""]","[1,1,1,0]",0,60,60,60,1,1,0,,,0,FALSE,1.3031,,,,,,,,,,,,,,,,,,,,,,,,,,,,,,
,613d45bab7d3d7088986829f,001,2022-04-28_20h16.09.615,classification_task,2021.2.3,Win32,60.24822268,613d45bab7d3d7088986829f,626b377229c10585ec392f8a,626b3a9f79a56aa03a14ab38,,,,,,,,,,,,,,,,,,,,,,,l,1,"[""0.055"",""0.137"",""0.397"",""0.784""]","[1,1,0,1]",0,61,61,61,1,1,1,,,0,FALSE,1.2326,,,,,,,,,,,,,,,,,,,,,,,,,,,,,,
,613d45bab7d3d7088986829f,001,2022-04-28_20h16.09.615,classification_task,2021.2.3,Win32,60.24822268,613d45bab7d3d7088986829f,626b377229c10585ec392f8a,626b3a9f79a56aa03a14ab38,,,,,,,,,,,,,,,,,,,,,,,a,1,"[""0.315"",""0.503"",""0.820"",""0.857""]","[1,1,0,1]",0,62,62,62,1,0,0,,,0,FALSE,1.8668,,,,,,,,,,,,,,,,,,,,,,,,,,,,,,
,613d45bab7d3d7088986829f,001,2022-04-28_20h16.09.615,classification_task,2021.2.3,Win32,60.24822268,613d45bab7d3d7088986829f,626b377229c10585ec392f8a,626b3a9f79a56aa03a14ab38,,,,,,,,,,,,,,,,,,,,,,,l,1,"[""0.055"",""0.137"",""0.574"",""0.379""]","[1,1,1,0]",0,63,63,63,1,1,1,,,0,FALSE,1.9441,,,,,,,,,,,,,,,,,,,,,,,,,,,,,,
,613d45bab7d3d7088986829f,001,2022-04-28_20h16.09.615,classification_task,2021.2.3,Win32,60.24822268,613d45bab7d3d7088986829f,626b377229c10585ec392f8a,626b3a9f79a56aa03a14ab38,,,,,,,,,,,,,,,,,,,,,,,,,,,,,,,,,,,,,,,0, ,,0,,,0,2,2,2,1,2,3,,,,,,,,,,,,,,,,,
,613d45bab7d3d7088986829f,001,2022-04-28_20h16.09.615,classification_task,2021.2.3,Win32,60.24822268,613d45bab7d3d7088986829f,626b377229c10585ec392f8a,626b3a9f79a56aa03a14ab38,,,,,,,,,,,,,,,,,,,,,,,,,,,,,,,,,,,,,,,1,  ,,0,,,0,2,2,2,1,2,3,,,,,,,,,,,,,,,,,
,613d45bab7d3d7088986829f,001,2022-04-28_20h16.09.615,classification_task,2021.2.3,Win32,60.24822268,613d45bab7d3d7088986829f,626b377229c10585ec392f8a,626b3a9f79a56aa03a14ab38,,,,,,,,,,,,,,,,,,,,,,,,,,,,,,,,,,,,,,,2,  ,,0,,,0,2,2,2,1,2,3,,,,,,,,,,,,,,,,,
,613d45bab7d3d7088986829f,001,2022-04-28_20h16.09.615,classification_task,2021.2.3,Win32,60.24822268,613d45bab7d3d7088986829f,626b377229c10585ec392f8a,626b3a9f79a56aa03a14ab38,,,,,,,,,,,,,,,,,,,,,,,,,,,,,,,,,,,,,,,,,,,,,0,2,2,2,1,,3,,,,,,,,,,,,,,,,,
,613d45bab7d3d7088986829f,001,2022-04-28_20h16.09.615,classification_task,2021.2.3,Win32,60.24822268,613d45bab7d3d7088986829f,626b377229c10585ec392f8a,626b3a9f79a56aa03a14ab38,,,,,,,,,,,,,,,,,,,,,,,,,,,,,,,,,,,,,,,,,,,,,,,,,,,,,I believe the aid is a competent performer,,0.7,0,4,1392.0317,0,0,0,0,1,0,,,,
,613d45bab7d3d7088986829f,001,2022-04-28_20h16.09.615,classification_task,2021.2.3,Win32,60.24822268,613d45bab7d3d7088986829f,626b377229c10585ec392f8a,626b3a9f79a56aa03a14ab38,,,,,,,,,,,,,,,,,,,,,,,,,,,,,,,,,,,,,,,,,,,,,,,,,,,,,I trust the aid,,0.7,0,3,1380.3559,0,0,0,0,1,0,,,,
,613d45bab7d3d7088986829f,001,2022-04-28_20h16.09.615,classification_task,2021.2.3,Win32,60.24822268,613d45bab7d3d7088986829f,626b377229c10585ec392f8a,626b3a9f79a56aa03a14ab38,,,,,,,,,,,,,,,,,,,,,,,,,,,,,,,,,,,,,,,,,,,,,,,,,,,,,I have confidence in the advice given by the aid,,0.7,0,3,1382.9436,0,0,0,0,1,0,,,,
,613d45bab7d3d7088986829f,001,2022-04-28_20h16.09.615,classification_task,2021.2.3,Win32,60.24822268,613d45bab7d3d7088986829f,626b377229c10585ec392f8a,626b3a9f79a56aa03a14ab38,,,,,,,,,,,,,,,,,,,,,,,,,,,,,,,,,,,,,,,,,,,,,,,,,,,,,I can depend on the aid,,0.7,0,4,1386.8799,0,0,0,0,1,0,,,,
,613d45bab7d3d7088986829f,001,2022-04-28_20h16.09.615,classification_task,2021.2.3,Win32,60.24822268,613d45bab7d3d7088986829f,626b377229c10585ec392f8a,626b3a9f79a56aa03a14ab38,,,,,,,,,,,,,,,,,,,,,,,,,,,,,,,,,,,,,,,,,,,,,,,,,,,,,I can rely on the aid to behave in consistent ways,,0.7,0,3,1401.3338,0,0,0,0,1,0,,,,
,613d45bab7d3d7088986829f,001,2022-04-28_20h16.09.615,classification_task,2021.2.3,Win32,60.24822268,613d45bab7d3d7088986829f,626b377229c10585ec392f8a,626b3a9f79a56aa03a14ab38,,,,,,,,,,,,,,,,,,,,,,,,,,,,,,,,,,,,,,,,,,,,,,,,,,,,,I can rely on the aid to do its best every time I take its advice,,0.7,0,3,1405.1559,0,0,0,0,1,0,,,,
,613d45bab7d3d7088986829f,001,2022-04-28_20h16.09.615,classification_task,2021.2.3,Win32,60.24822268,613d45bab7d3d7088986829f,626b377229c10585ec392f8a,626b3a9f79a56aa03a14ab38,,,,,,,,,,,,,,,,,,,,,,,,,,,,,,,,,,,,,,,,,,,,,,,,,,,,,"On trials you completed with assistance from the aid, how frequently did you think the aid was correct?",,0.7,0,90%,,0,0,0,0,1,0,,,,
,613d45bab7d3d7088986829f,001,2022-04-28_20h16.09.615,classification_task,2021.2.3,Win32,60.24822268,613d45bab7d3d7088986829f,626b377229c10585ec392f8a,626b3a9f79a56aa03a14ab38,,,,,,,,,,,,,,,,,,,,,,,,,,,,,,,,,,,,,,,,,,,,,,,,,,,,,"On trials you completed without the aid, how frequently did you think you were correct?",,0.7,0,80%,,0,0,0,0,1,0,,,,
,613d45bab7d3d7088986829f,001,2022-04-28_20h16.09.615,classification_task,2021.2.3,Win32,60.24822268,613d45bab7d3d7088986829f,626b377229c10585ec392f8a,626b3a9f79a56aa03a14ab38,,,,,,,,,,,,,,,,,,,,,,,,,,,,,,,,,,,,,,,,,,,,,,,,,,,,,,,,,,,0,0,0,0,1,,,,,
,613d45bab7d3d7088986829f,001,2022-04-28_20h16.09.615,classification_task,2021.2.3,Win32,60.24822268,613d45bab7d3d7088986829f,626b377229c10585ec392f8a,626b3a9f79a56aa03a14ab38,,,,,,,,,,,,,,,,,,,,,,,,,,,,,,,,,,,,,,,,,,,,,,,,,,,,,,,,,,,,,,,,,space,13.6643,1448.971,
,613d45bab7d3d7088986829f,001,2022-04-28_20h16.09.615,classification_task,2021.2.3,Win32,60.24822268,613d45bab7d3d7088986829f,626b377229c10585ec392f8a,626b3a9f79a56aa03a14ab38,,,,,,,,,,,,,,,,,,,,,,,,,,,,,,,,,,,,,,,,,,,,,,,,,,,,,,,,,,,,,,,,,,,,"Mozilla/5.0 (Windows NT 10.0; Win64; x64) AppleWebKit/537.36 (KHTML, like Gecko) Chrome/100.0.4896.127 Safari/537.36"
