usingWebGL,participant,session,date,expName,psychopyVersion,OS,frameRate,study_id,signatures_friend,signatures_foe,band_ranges_top,band_ranges_bottom,formitemText,formtype,formundefined,formitemWidth,formindex,formresponse,formrt,key_resp_2.keys,key_resp_2.rt,tute_resp.keys,tute_resp.rt,tutorial.thisRepN,tutorial.thisTrialN,tutorial.thisN,tutorial.thisIndex,tutorial.ran,key_resp_4.keys,key_resp_4.rt,key_resp.keys,key_resp.corr,lines_presented,is_signal_presented,trials.thisRepN,trials.thisTrialN,trials.thisN,trials.thisIndex,trials.ran,vessel,active_band,lines,is_signal,supported_pos,catch_trial,key_resp.rt,debrief_formindex,debrief_formitemText,debrief_formtype,debrief_formitemWidth,debrief_formresponse,debrief_formrt,phases.thisRepN,phases.thisTrialN,phases.thisN,phases.thisIndex,phases.ran,phases.order,phase,key_resp_3.keys,trustitemText,trusttype,trustitemWidth,trustindex,trustresponse,trustrt,support_status.thisRepN,support_status.thisTrialN,support_status.thisN,support_status.thisIndex,support_status.ran,support_status.order,key_resp_5.keys,key_resp_5.rt,globalClockTime,userAgent,manualCondition
TRUE,613da2f481d2755038340eee,627c693d394be32478599400,2022-05-11_20h56.27.225,classification_task,2021.2.3,Win32,59.95563283,627c6715c52fd12f31907bcf,,,,,,,,,,,,,,,,,,,,,,,,,,,,,,,,,,,,,,,,,,,,,,,,,,,,,,,,,,,,,,,,,,,,,
,613da2f481d2755038340eee,627c693d394be32478599400,2022-05-11_20h56.27.225,classification_task,2021.2.3,Win32,59.95563283,627c6715c52fd12f31907bcf,"[[""0.262"",""0.472"",""0.649"",""0.858""],[""0.229"",""0.409"",""0.906"",""0.965""]]","[[""0.130"",""0.306"",""0.595"",""0.800""],[""0.062"",""0.195"",""0.561"",""0.729""]]","[1,10]","[100,1000]",Video game experience,,,0.7,0,,,,,,,,,,,,,,,,,,,,,,,,,,,,,,,,,,,,,,,,,,,,,,,,,,,,,,,,,,,,
,613da2f481d2755038340eee,627c693d394be32478599400,2022-05-11_20h56.27.225,classification_task,2021.2.3,Win32,59.95563283,627c6715c52fd12f31907bcf,,,,,Approximately how many hours did you spend playing video games in the last week?,,,0.7,0,17,,,,,,,,,,,,,,,,,,,,,,,,,,,,,,,,,,,,,,,,,,,,,,,,,,,,,,,,,,,
,613da2f481d2755038340eee,627c693d394be32478599400,2022-05-11_20h56.27.225,classification_task,2021.2.3,Win32,59.95563283,627c6715c52fd12f31907bcf,,,,,"Which game did you play the most this year? (Enter ""None"" if you didn't play any)",,,0.7,0,Mabinogi,,,,,,,,,,,,,,,,,,,,,,,,,,,,,,,,,,,,,,,,,,,,,,,,,,,,,,,,,,,
,613da2f481d2755038340eee,627c693d394be32478599400,2022-05-11_20h56.27.225,classification_task,2021.2.3,Win32,59.95563283,627c6715c52fd12f31907bcf,,,,,Visual perception,,,0.7,0,,,,,,,,,,,,,,,,,,,,,,,,,,,,,,,,,,,,,,,,,,,,,,,,,,,,,,,,,,,,
,613da2f481d2755038340eee,627c693d394be32478599400,2022-05-11_20h56.27.225,classification_task,2021.2.3,Win32,59.95563283,627c6715c52fd12f31907bcf,,,,,Do you have any form of color blindness?,,,0.7,0,No,39.428,,,,,,,,,,,,,,,,,,,,,,,,,,,,,,,,,,,,,,,,,,,,,,,,,,,,,,,,,,
,613da2f481d2755038340eee,627c693d394be32478599400,2022-05-11_20h56.27.225,classification_task,2021.2.3,Win32,59.95563283,627c6715c52fd12f31907bcf,,,,,Do you use software to change the colour temperature of your screen (e.g. f.lux)?,,,0.7,0,No,42.293,,,,,,,,,,,,,,,,,,,,,,,,,,,,,,,,,,,,,,,,,,,,,,,,,,,,,,,,,,
,613da2f481d2755038340eee,627c693d394be32478599400,2022-05-11_20h56.27.225,classification_task,2021.2.3,Win32,59.95563283,627c6715c52fd12f31907bcf,,,,,,,,,,,,space,24.1044,space,7.9159,0,0,0,0,1,,,,,,,,,,,,,,,,,,,,,,,,,,,,,,,,,,,,,,,,,,,,,,,,,
,613da2f481d2755038340eee,627c693d394be32478599400,2022-05-11_20h56.27.225,classification_task,2021.2.3,Win32,59.95563283,627c6715c52fd12f31907bcf,,,,,,,,,,,,,,space,9.0353,1,0,1,0,1,,,,,,,,,,,,,,,,,,,,,,,,,,,,,,,,,,,,,,,,,,,,,,,,,
,613da2f481d2755038340eee,627c693d394be32478599400,2022-05-11_20h56.27.225,classification_task,2021.2.3,Win32,59.95563283,627c6715c52fd12f31907bcf,,,,,,,,,,,,,,space,25.9102,2,0,2,0,1,,,,,,,,,,,,,,,,,,,,,,,,,,,,,,,,,,,,,,,,,,,,,,,,,
,613da2f481d2755038340eee,627c693d394be32478599400,2022-05-11_20h56.27.225,classification_task,2021.2.3,Win32,59.95563283,627c6715c52fd12f31907bcf,,,,,,,,,,,,,,space,29.6763,3,0,3,0,1,,,,,,,,,,,,,,,,,,,,,,,,,,,,,,,,,,,,,,,,,,,,,,,,,
,613da2f481d2755038340eee,627c693d394be32478599400,2022-05-11_20h56.27.225,classification_task,2021.2.3,Win32,59.95563283,627c6715c52fd12f31907bcf,,,,,,,,,,,,,,space,13.8053,4,0,4,0,1,,,,,,,,,,,,,,,,,,,,,,,,,,,,,,,,,,,,,,,,,,,,,,,,,
,613da2f481d2755038340eee,627c693d394be32478599400,2022-05-11_20h56.27.225,classification_task,2021.2.3,Win32,59.95563283,627c6715c52fd12f31907bcf,,,,,,,,,,,,,,,,,,,,,space,12.4388,,0,"[""0.262"",""0.472"",""0.372"",""0.858""]","[1,1,0,1]",0,0,0,0,1,0,0,,,0,FALSE,,,,,,,,,,,,,,,,,,,,,,,,,,,,,,,,
,613da2f481d2755038340eee,627c693d394be32478599400,2022-05-11_20h56.27.225,classification_task,2021.2.3,Win32,59.95563283,627c6715c52fd12f31907bcf,,,,,,,,,,,,,,,,,,,,,,,a,1,"[""0.229"",""0.409"",""0.906"",""0.341""]","[1,1,1,0]",0,1,1,1,1,0,1,,,0,FALSE,3.8517,,,,,,,,,,,,,,,,,,,,,,,,,,,,,,,
,613da2f481d2755038340eee,627c693d394be32478599400,2022-05-11_20h56.27.225,classification_task,2021.2.3,Win32,59.95563283,627c6715c52fd12f31907bcf,,,,,,,,,,,,,,,,,,,,,,,l,1,"[""0.130"",""0.306"",""0.357"",""0.800""]","[1,1,0,1]",0,2,2,2,1,1,0,,,0,FALSE,3.568,,,,,,,,,,,,,,,,,,,,,,,,,,,,,,,
,613da2f481d2755038340eee,627c693d394be32478599400,2022-05-11_20h56.27.225,classification_task,2021.2.3,Win32,59.95563283,627c6715c52fd12f31907bcf,,,,,,,,,,,,,,,,,,,,,,,l,1,"[""0.692"",""0.195"",""0.561"",""0.729""]","[0,1,1,1]",0,3,3,3,1,1,1,,,0,FALSE,8.3701,,,,,,,,,,,,,,,,,,,,,,,,,,,,,,,
,613da2f481d2755038340eee,627c693d394be32478599400,2022-05-11_20h56.27.225,classification_task,2021.2.3,Win32,59.95563283,627c6715c52fd12f31907bcf,,,,,,,,,,,,,,,,,,,,,,,a,1,"[""0.229"",""0.525"",""0.906"",""0.965""]","[1,0,1,1]",0,4,4,4,1,0,1,,,0,FALSE,6.5035,,,,,,,,,,,,,,,,,,,,,,,,,,,,,,,
,613da2f481d2755038340eee,627c693d394be32478599400,2022-05-11_20h56.27.225,classification_task,2021.2.3,Win32,59.95563283,627c6715c52fd12f31907bcf,,,,,,,,,,,,,,,,,,,,,,,l,1,"[""0.130"",""0.306"",""0.595"",""0.519""]","[1,1,1,0]",0,5,5,5,1,1,0,,,0,FALSE,3.3878,,,,,,,,,,,,,,,,,,,,,,,,,,,,,,,
,613da2f481d2755038340eee,627c693d394be32478599400,2022-05-11_20h56.27.225,classification_task,2021.2.3,Win32,59.95563283,627c6715c52fd12f31907bcf,,,,,,,,,,,,,,,,,,,,,,,a,1,"[""0.229"",""0.409"",""0.528"",""0.965""]","[1,1,0,1]",0,6,6,6,1,0,1,,,0,FALSE,2.7677,,,,,,,,,,,,,,,,,,,,,,,,,,,,,,,
,613da2f481d2755038340eee,627c693d394be32478599400,2022-05-11_20h56.27.225,classification_task,2021.2.3,Win32,59.95563283,627c6715c52fd12f31907bcf,,,,,,,,,,,,,,,,,,,,,,,a,1,"[""0.517"",""0.409"",""0.906"",""0.965""]","[0,1,1,1]",0,7,7,7,1,0,1,,,0,FALSE,5.1529,,,,,,,,,,,,,,,,,,,,,,,,,,,,,,,
,613da2f481d2755038340eee,627c693d394be32478599400,2022-05-11_20h56.27.225,classification_task,2021.2.3,Win32,59.95563283,627c6715c52fd12f31907bcf,,,,,,,,,,,,,,,,,,,,,,,l,1,"[""0.062"",""0.195"",""0.561"",""0.354""]","[1,1,1,0]",0,8,8,8,1,1,1,,,0,FALSE,3.4349,,,,,,,,,,,,,,,,,,,,,,,,,,,,,,,
,613da2f481d2755038340eee,627c693d394be32478599400,2022-05-11_20h56.27.225,classification_task,2021.2.3,Win32,59.95563283,627c6715c52fd12f31907bcf,,,,,,,,,,,,,,,,,,,,,,,a,1,"[""0.763"",""0.472"",""0.649"",""0.858""]","[0,1,1,1]",0,9,9,9,1,0,0,,,0,FALSE,4.5546,,,,,,,,,,,,,,,,,,,,,,,,,,,,,,,
,613da2f481d2755038340eee,627c693d394be32478599400,2022-05-11_20h56.27.225,classification_task,2021.2.3,Win32,59.95563283,627c6715c52fd12f31907bcf,,,,,,,,,,,,,,,,,,,,,,,l,1,"[""0.062"",""0.195"",""0.366"",""0.729""]","[1,1,0,1]",0,10,10,10,1,1,1,,,0,FALSE,2.6015,,,,,,,,,,,,,,,,,,,,,,,,,,,,,,,
,613da2f481d2755038340eee,627c693d394be32478599400,2022-05-11_20h56.27.225,classification_task,2021.2.3,Win32,59.95563283,627c6715c52fd12f31907bcf,,,,,,,,,,,,,,,,,,,,,,,l,1,"[""0.062"",""0.358"",""0.561"",""0.729""]","[1,0,1,1]",0,11,11,11,1,1,1,,,0,FALSE,2.051,,,,,,,,,,,,,,,,,,,,,,,,,,,,,,,
,613da2f481d2755038340eee,627c693d394be32478599400,2022-05-11_20h56.27.225,classification_task,2021.2.3,Win32,59.95563283,627c6715c52fd12f31907bcf,,,,,,,,,,,,,,,,,,,,,,,a,1,"[""0.262"",""0.472"",""0.649"",""0.357""]","[1,1,1,0]",0,12,12,12,1,0,0,,,0,FALSE,2.9847,,,,,,,,,,,,,,,,,,,,,,,,,,,,,,,
,613da2f481d2755038340eee,627c693d394be32478599400,2022-05-11_20h56.27.225,classification_task,2021.2.3,Win32,59.95563283,627c6715c52fd12f31907bcf,,,,,,,,,,,,,,,,,,,,,,,l,1,"[""0.519"",""0.306"",""0.595"",""0.800""]","[0,1,1,1]",0,13,13,13,1,1,0,,,0,FALSE,4.2686,,,,,,,,,,,,,,,,,,,,,,,,,,,,,,,
,613da2f481d2755038340eee,627c693d394be32478599400,2022-05-11_20h56.27.225,classification_task,2021.2.3,Win32,59.95563283,627c6715c52fd12f31907bcf,,,,,,,,,,,,,,,,,,,,,,,a,1,"[""0.262"",""0.692"",""0.649"",""0.858""]","[1,0,1,1]",0,14,14,14,1,0,0,,,0,FALSE,2.5184,,,,,,,,,,,,,,,,,,,,,,,,,,,,,,,
,613da2f481d2755038340eee,627c693d394be32478599400,2022-05-11_20h56.27.225,classification_task,2021.2.3,Win32,59.95563283,627c6715c52fd12f31907bcf,,,,,,,,,,,,,,,,,,,,,,,l,1,"[""0.130"",""0.764"",""0.595"",""0.800""]","[1,0,1,1]",0,15,15,15,1,1,0,,,0,FALSE,1.9017,,,,,,,,,,,,,,,,,,,,,,,,,,,,,,,
,613da2f481d2755038340eee,627c693d394be32478599400,2022-05-11_20h56.27.225,classification_task,2021.2.3,Win32,59.95563283,627c6715c52fd12f31907bcf,,,,,,,,,,,,,,,,,,,,,,,a,1,"[""0.262"",""0.354"",""0.649"",""0.858""]","[1,0,1,1]",0,16,16,16,1,0,0,,,0,FALSE,2.9182,,,,,,,,,,,,,,,,,,,,,,,,,,,,,,,
,613da2f481d2755038340eee,627c693d394be32478599400,2022-05-11_20h56.27.225,classification_task,2021.2.3,Win32,59.95563283,627c6715c52fd12f31907bcf,,,,,,,,,,,,,,,,,,,,,,,l,1,"[""0.130"",""0.306"",""0.595"",""0.519""]","[1,1,1,0]",0,17,17,17,1,1,0,,,0,FALSE,1.7515,,,,,,,,,,,,,,,,,,,,,,,,,,,,,,,
,613da2f481d2755038340eee,627c693d394be32478599400,2022-05-11_20h56.27.225,classification_task,2021.2.3,Win32,59.95563283,627c6715c52fd12f31907bcf,,,,,,,,,,,,,,,,,,,,,,,l,1,"[""0.366"",""0.306"",""0.595"",""0.800""]","[0,1,1,1]",0,18,18,18,1,1,0,,,0,FALSE,4.5683,,,,,,,,,,,,,,,,,,,,,,,,,,,,,,,
,613da2f481d2755038340eee,627c693d394be32478599400,2022-05-11_20h56.27.225,classification_task,2021.2.3,Win32,59.95563283,627c6715c52fd12f31907bcf,,,,,,,,,,,,,,,,,,,,,,,a,1,"[""0.229"",""0.763"",""0.906"",""0.965""]","[1,0,1,1]",0,19,19,19,1,0,1,,,0,FALSE,2.568,,,,,,,,,,,,,,,,,,,,,,,,,,,,,,,
,613da2f481d2755038340eee,627c693d394be32478599400,2022-05-11_20h56.27.225,classification_task,2021.2.3,Win32,59.95563283,627c6715c52fd12f31907bcf,,,,,,,,,,,,,,,,,,,,,,,l,1,"[""0.062"",""0.354"",""0.561"",""0.729""]","[1,0,1,1]",0,20,20,20,1,1,1,,,0,FALSE,3.0853,,,,,,,,,,,,,,,,,,,,,,,,,,,,,,,
,613da2f481d2755038340eee,627c693d394be32478599400,2022-05-11_20h56.27.225,classification_task,2021.2.3,Win32,59.95563283,627c6715c52fd12f31907bcf,,,,,,,,,,,,,,,,,,,,,,,a,1,"[""0.229"",""0.409"",""0.906"",""0.366""]","[1,1,1,0]",0,21,21,21,1,0,1,,,0,FALSE,4.3355,,,,,,,,,,,,,,,,,,,,,,,,,,,,,,,
,613da2f481d2755038340eee,627c693d394be32478599400,2022-05-11_20h56.27.225,classification_task,2021.2.3,Win32,59.95563283,627c6715c52fd12f31907bcf,,,,,,,,,,,,,,,,,,,,,,,a,1,"[""0.372"",""0.409"",""0.906"",""0.965""]","[0,1,1,1]",0,22,22,22,1,0,1,,,0,FALSE,4.4353,,,,,,,,,,,,,,,,,,,,,,,,,,,,,,,
,613da2f481d2755038340eee,627c693d394be32478599400,2022-05-11_20h56.27.225,classification_task,2021.2.3,Win32,59.95563283,627c6715c52fd12f31907bcf,,,,,,,,,,,,,,,,,,,,,,,l,1,"[""0.130"",""0.306"",""0.519"",""0.800""]","[1,1,0,1]",0,23,23,23,1,1,0,,,0,FALSE,2.7012,,,,,,,,,,,,,,,,,,,,,,,,,,,,,,,
,613da2f481d2755038340eee,627c693d394be32478599400,2022-05-11_20h56.27.225,classification_task,2021.2.3,Win32,59.95563283,627c6715c52fd12f31907bcf,,,,,,,,,,,,,,,,,,,,,,,l,1,"[""0.062"",""0.195"",""0.528"",""0.729""]","[1,1,0,1]",0,24,24,24,1,1,1,,,0,FALSE,2.6245,,,,,,,,,,,,,,,,,,,,,,,,,,,,,,,
,613da2f481d2755038340eee,627c693d394be32478599400,2022-05-11_20h56.27.225,classification_task,2021.2.3,Win32,59.95563283,627c6715c52fd12f31907bcf,,,,,,,,,,,,,,,,,,,,,,,a,1,"[""0.262"",""0.472"",""0.342"",""0.858""]","[1,1,0,1]",0,25,25,25,1,0,0,,,0,FALSE,2.6184,,,,,,,,,,,,,,,,,,,,,,,,,,,,,,,
,613da2f481d2755038340eee,627c693d394be32478599400,2022-05-11_20h56.27.225,classification_task,2021.2.3,Win32,59.95563283,627c6715c52fd12f31907bcf,,,,,,,,,,,,,,,,,,,,,,,l,1,"[""0.130"",""0.357"",""0.595"",""0.800""]","[1,0,1,1]",0,26,26,26,1,1,0,,,0,FALSE,3.4859,,,,,,,,,,,,,,,,,,,,,,,,,,,,,,,
,613da2f481d2755038340eee,627c693d394be32478599400,2022-05-11_20h56.27.225,classification_task,2021.2.3,Win32,59.95563283,627c6715c52fd12f31907bcf,,,,,,,,,,,,,,,,,,,,,,,l,1,"[""0.062"",""0.195"",""0.561"",""0.341""]","[1,1,1,0]",0,27,27,27,1,1,1,,,0,FALSE,2.868,,,,,,,,,,,,,,,,,,,,,,,,,,,,,,,
,613da2f481d2755038340eee,627c693d394be32478599400,2022-05-11_20h56.27.225,classification_task,2021.2.3,Win32,59.95563283,627c6715c52fd12f31907bcf,,,,,,,,,,,,,,,,,,,,,,,a,1,"[""0.517"",""0.472"",""0.649"",""0.858""]","[0,1,1,1]",0,28,28,28,1,0,0,,,0,FALSE,4.8021,,,,,,,,,,,,,,,,,,,,,,,,,,,,,,,
,613da2f481d2755038340eee,627c693d394be32478599400,2022-05-11_20h56.27.225,classification_task,2021.2.3,Win32,59.95563283,627c6715c52fd12f31907bcf,,,,,,,,,,,,,,,,,,,,,,,a,1,"[""0.262"",""0.472"",""0.649"",""0.528""]","[1,1,1,0]",0,29,29,29,1,0,0,,,0,FALSE,2.568,,,,,,,,,,,,,,,,,,,,,,,,,,,,,,,
,613da2f481d2755038340eee,627c693d394be32478599400,2022-05-11_20h56.27.225,classification_task,2021.2.3,Win32,59.95563283,627c6715c52fd12f31907bcf,,,,,,,,,,,,,,,,,,,,,,,a,1,"[""0.229"",""0.409"",""0.358"",""0.965""]","[1,1,0,1]",0,30,30,30,1,0,1,,,0,FALSE,4.3349,,,,,,,,,,,,,,,,,,,,,,,,,,,,,,,
,613da2f481d2755038340eee,627c693d394be32478599400,2022-05-11_20h56.27.225,classification_task,2021.2.3,Win32,59.95563283,627c6715c52fd12f31907bcf,,,,,,,,,,,,,,,,,,,,,,,l,1,"[""0.372"",""0.195"",""0.561"",""0.729""]","[0,1,1,1]",0,31,31,31,1,1,1,,,0,FALSE,3.7184,,,,,,,,,,,,,,,,,,,,,,,,,,,,,,,
,613da2f481d2755038340eee,627c693d394be32478599400,2022-05-11_20h56.27.225,classification_task,2021.2.3,Win32,59.95563283,627c6715c52fd12f31907bcf,,,,,,,,,,,,,,,,,,,,,,,a,1,"[""0.229"",""0.409"",""0.906"",""0.764""]","[1,1,1,0]",0,32,32,32,1,0,1,,,0,FALSE,2.8681,,,,,,,,,,,,,,,,,,,,,,,,,,,,,,,
,613da2f481d2755038340eee,627c693d394be32478599400,2022-05-11_20h56.27.225,classification_task,2021.2.3,Win32,59.95563283,627c6715c52fd12f31907bcf,,,,,,,,,,,,,,,,,,,,,,,a,1,"[""0.262"",""0.472"",""0.763"",""0.858""]","[1,1,0,1]",0,33,33,33,1,0,0,,,0,FALSE,2.2012,,,,,,,,,,,,,,,,,,,,,,,,,,,,,,,
,613da2f481d2755038340eee,627c693d394be32478599400,2022-05-11_20h56.27.225,classification_task,2021.2.3,Win32,59.95563283,627c6715c52fd12f31907bcf,,,,,,,,,,,,,,,,,,,,,,,l,1,"[""0.358"",""0.195"",""0.561"",""0.729""]","[0,1,1,1]",0,34,34,34,1,1,1,,,0,FALSE,2.0013,,,,,,,,,,,,,,,,,,,,,,,,,,,,,,,
,613da2f481d2755038340eee,627c693d394be32478599400,2022-05-11_20h56.27.225,classification_task,2021.2.3,Win32,59.95563283,627c6715c52fd12f31907bcf,,,,,,,,,,,,,,,,,,,,,,,l,1,"[""0.130"",""0.366"",""0.595"",""0.800""]","[1,0,1,1]",0,35,35,35,1,1,0,,,0,FALSE,2.2848,,,,,,,,,,,,,,,,,,,,,,,,,,,,,,,
,613da2f481d2755038340eee,627c693d394be32478599400,2022-05-11_20h56.27.225,classification_task,2021.2.3,Win32,59.95563283,627c6715c52fd12f31907bcf,,,,,,,,,,,,,,,,,,,,,,,a,1,"[""0.366"",""0.472"",""0.649"",""0.858""]","[0,1,1,1]",0,36,36,36,1,0,0,,,0,FALSE,1.7516,,,,,,,,,,,,,,,,,,,,,,,,,,,,,,,
,613da2f481d2755038340eee,627c693d394be32478599400,2022-05-11_20h56.27.225,classification_task,2021.2.3,Win32,59.95563283,627c6715c52fd12f31907bcf,,,,,,,,,,,,,,,,,,,,,,,l,1,"[""0.062"",""0.528"",""0.561"",""0.729""]","[1,0,1,1]",0,37,37,37,1,1,1,,,0,FALSE,1.9679,,,,,,,,,,,,,,,,,,,,,,,,,,,,,,,
,613da2f481d2755038340eee,627c693d394be32478599400,2022-05-11_20h56.27.225,classification_task,2021.2.3,Win32,59.95563283,627c6715c52fd12f31907bcf,,,,,,,,,,,,,,,,,,,,,,,a,1,"[""0.229"",""0.341"",""0.906"",""0.965""]","[1,0,1,1]",0,38,38,38,1,0,1,,,0,FALSE,1.8518,,,,,,,,,,,,,,,,,,,,,,,,,,,,,,,
,613da2f481d2755038340eee,627c693d394be32478599400,2022-05-11_20h56.27.225,classification_task,2021.2.3,Win32,59.95563283,627c6715c52fd12f31907bcf,,,,,,,,,,,,,,,,,,,,,,,a,1,"[""0.262"",""0.472"",""0.649"",""0.525""]","[1,1,1,0]",0,39,39,39,1,0,0,,,0,FALSE,1.4845,,,,,,,,,,,,,,,,,,,,,,,,,,,,,,,
,613da2f481d2755038340eee,627c693d394be32478599400,2022-05-11_20h56.27.225,classification_task,2021.2.3,Win32,59.95563283,627c6715c52fd12f31907bcf,,,,,,,,,,,,,,,,,,,,,,,l,1,"[""0.130"",""0.306"",""0.595"",""0.519""]","[1,1,1,0]",0,40,40,40,1,1,0,,,0,FALSE,1.2344,,,,,,,,,,,,,,,,,,,,,,,,,,,,,,,
,613da2f481d2755038340eee,627c693d394be32478599400,2022-05-11_20h56.27.225,classification_task,2021.2.3,Win32,59.95563283,627c6715c52fd12f31907bcf,,,,,,,,,,,,,,,,,,,,,,,a,1,"[""0.262"",""0.357"",""0.649"",""0.858""]","[1,0,1,1]",0,41,41,41,1,0,0,,,0,FALSE,2.1509,,,,,,,,,,,,,,,,,,,,,,,,,,,,,,,
,613da2f481d2755038340eee,627c693d394be32478599400,2022-05-11_20h56.27.225,classification_task,2021.2.3,Win32,59.95563283,627c6715c52fd12f31907bcf,,,,,,,,,,,,,,,,,,,,,,,l,1,"[""0.528"",""0.306"",""0.595"",""0.800""]","[0,1,1,1]",0,42,42,42,1,1,0,,,0,FALSE,1.8011,,,,,,,,,,,,,,,,,,,,,,,,,,,,,,,
,613da2f481d2755038340eee,627c693d394be32478599400,2022-05-11_20h56.27.225,classification_task,2021.2.3,Win32,59.95563283,627c6715c52fd12f31907bcf,,,,,,,,,,,,,,,,,,,,,,,l,0,"[""0.341"",""0.409"",""0.906"",""0.965""]","[0,1,1,1]",0,43,43,43,1,0,1,,,0,FALSE,2.3511,,,,,,,,,,,,,,,,,,,,,,,,,,,,,,,
,613da2f481d2755038340eee,627c693d394be32478599400,2022-05-11_20h56.27.225,classification_task,2021.2.3,Win32,59.95563283,627c6715c52fd12f31907bcf,,,,,,,,,,,,,,,,,,,,,,,a,1,"[""0.229"",""0.409"",""0.519"",""0.965""]","[1,1,0,1]",0,44,44,44,1,0,1,,,0,FALSE,1.2509,,,,,,,,,,,,,,,,,,,,,,,,,,,,,,,
,613da2f481d2755038340eee,627c693d394be32478599400,2022-05-11_20h56.27.225,classification_task,2021.2.3,Win32,59.95563283,627c6715c52fd12f31907bcf,,,,,,,,,,,,,,,,,,,,,,,l,1,"[""0.130"",""0.306"",""0.358"",""0.800""]","[1,1,0,1]",0,45,45,45,1,1,0,,,0,FALSE,1.9181,,,,,,,,,,,,,,,,,,,,,,,,,,,,,,,
,613da2f481d2755038340eee,627c693d394be32478599400,2022-05-11_20h56.27.225,classification_task,2021.2.3,Win32,59.95563283,627c6715c52fd12f31907bcf,,,,,,,,,,,,,,,,,,,,,,,l,1,"[""0.062"",""0.195"",""0.763"",""0.729""]","[1,1,0,1]",0,46,46,46,1,1,1,,,0,FALSE,1.4676,,,,,,,,,,,,,,,,,,,,,,,,,,,,,,,
,613da2f481d2755038340eee,627c693d394be32478599400,2022-05-11_20h56.27.225,classification_task,2021.2.3,Win32,59.95563283,627c6715c52fd12f31907bcf,,,,,,,,,,,,,,,,,,,,,,,l,1,"[""0.062"",""0.195"",""0.561"",""0.342""]","[1,1,1,0]",0,47,47,47,1,1,1,,,0,FALSE,1.7509,,,,,,,,,,,,,,,,,,,,,,,,,,,,,,,
,613da2f481d2755038340eee,627c693d394be32478599400,2022-05-11_20h56.27.225,classification_task,2021.2.3,Win32,59.95563283,627c6715c52fd12f31907bcf,,,,,,,,,,,,,,,,,,,,,,,a,1,"[""0.229"",""0.409"",""0.906"",""0.358""]","[1,1,1,0]",0,48,48,48,1,0,1,,,0,FALSE,1.1009,,,,,,,,,,,,,,,,,,,,,,,,,,,,,,,
,613da2f481d2755038340eee,627c693d394be32478599400,2022-05-11_20h56.27.225,classification_task,2021.2.3,Win32,59.95563283,627c6715c52fd12f31907bcf,,,,,,,,,,,,,,,,,,,,,,,l,1,"[""0.130"",""0.306"",""0.595"",""0.341""]","[1,1,1,0]",0,49,49,49,1,1,0,,,0,FALSE,1.501,,,,,,,,,,,,,,,,,,,,,,,,,,,,,,,
,613da2f481d2755038340eee,627c693d394be32478599400,2022-05-11_20h56.27.225,classification_task,2021.2.3,Win32,59.95563283,627c6715c52fd12f31907bcf,,,,,,,,,,,,,,,,,,,,,,,a,1,"[""0.262"",""0.472"",""0.528"",""0.858""]","[1,1,0,1]",0,50,50,50,1,0,0,,,0,FALSE,1.1508,,,,,,,,,,,,,,,,,,,,,,,,,,,,,,,
,613da2f481d2755038340eee,627c693d394be32478599400,2022-05-11_20h56.27.225,classification_task,2021.2.3,Win32,59.95563283,627c6715c52fd12f31907bcf,,,,,,,,,,,,,,,,,,,,,,,a,1,"[""0.262"",""0.472"",""0.649"",""0.342""]","[1,1,1,0]",0,51,51,51,1,0,0,,,0,FALSE,1.7733,,,,,,,,,,,,,,,,,,,,,,,,,,,,,,,
,613da2f481d2755038340eee,627c693d394be32478599400,2022-05-11_20h56.27.225,classification_task,2021.2.3,Win32,59.95563283,627c6715c52fd12f31907bcf,,,,,,,,,,,,,,,,,,,,,,,l,1,"[""0.528"",""0.306"",""0.595"",""0.800""]","[0,1,1,1]",0,52,52,52,1,1,0,,,0,FALSE,0.9508,,,,,,,,,,,,,,,,,,,,,,,,,,,,,,,
,613da2f481d2755038340eee,627c693d394be32478599400,2022-05-11_20h56.27.225,classification_task,2021.2.3,Win32,59.95563283,627c6715c52fd12f31907bcf,,,,,,,,,,,,,,,,,,,,,,,l,1,"[""0.763"",""0.195"",""0.561"",""0.729""]","[0,1,1,1]",0,53,53,53,1,1,1,,,0,FALSE,2.0696,,,,,,,,,,,,,,,,,,,,,,,,,,,,,,,
,613da2f481d2755038340eee,627c693d394be32478599400,2022-05-11_20h56.27.225,classification_task,2021.2.3,Win32,59.95563283,627c6715c52fd12f31907bcf,,,,,,,,,,,,,,,,,,,,,,,l,0,"[""0.764"",""0.472"",""0.649"",""0.858""]","[0,1,1,1]",0,54,54,54,1,0,0,,,0,FALSE,1.8191,,,,,,,,,,,,,,,,,,,,,,,,,,,,,,,
,613da2f481d2755038340eee,627c693d394be32478599400,2022-05-11_20h56.27.225,classification_task,2021.2.3,Win32,59.95563283,627c6715c52fd12f31907bcf,,,,,,,,,,,,,,,,,,,,,,,a,1,"[""0.229"",""0.409"",""0.517"",""0.965""]","[1,1,0,1]",0,55,55,55,1,0,1,,,0,FALSE,1.6179,,,,,,,,,,,,,,,,,,,,,,,,,,,,,,,
,613da2f481d2755038340eee,627c693d394be32478599400,2022-05-11_20h56.27.225,classification_task,2021.2.3,Win32,59.95563283,627c6715c52fd12f31907bcf,,,,,,,,,,,,,,,,,,,,,,,l,1,"[""0.062"",""0.525"",""0.561"",""0.729""]","[1,0,1,1]",0,56,56,56,1,1,1,,,0,FALSE,1.3169,,,,,,,,,,,,,,,,,,,,,,,,,,,,,,,
,613da2f481d2755038340eee,627c693d394be32478599400,2022-05-11_20h56.27.225,classification_task,2021.2.3,Win32,59.95563283,627c6715c52fd12f31907bcf,,,,,,,,,,,,,,,,,,,,,,,l,1,"[""0.062"",""0.195"",""0.561"",""0.517""]","[1,1,1,0]",0,57,57,57,1,1,1,,,0,FALSE,1.0241,,,,,,,,,,,,,,,,,,,,,,,,,,,,,,,
,613da2f481d2755038340eee,627c693d394be32478599400,2022-05-11_20h56.27.225,classification_task,2021.2.3,Win32,59.95563283,627c6715c52fd12f31907bcf,,,,,,,,,,,,,,,,,,,,,,,a,1,"[""0.763"",""0.409"",""0.906"",""0.965""]","[0,1,1,1]",0,58,58,58,1,0,1,,,0,FALSE,2.468,,,,,,,,,,,,,,,,,,,,,,,,,,,,,,,
,613da2f481d2755038340eee,627c693d394be32478599400,2022-05-11_20h56.27.225,classification_task,2021.2.3,Win32,59.95563283,627c6715c52fd12f31907bcf,,,,,,,,,,,,,,,,,,,,,,,a,1,"[""0.229"",""0.763"",""0.906"",""0.965""]","[1,0,1,1]",0,59,59,59,1,0,1,,,0,FALSE,1.5341,,,,,,,,,,,,,,,,,,,,,,,,,,,,,,,
,613da2f481d2755038340eee,627c693d394be32478599400,2022-05-11_20h56.27.225,classification_task,2021.2.3,Win32,59.95563283,627c6715c52fd12f31907bcf,,,,,,,,,,,,,,,,,,,,,,,l,1,"[""0.130"",""0.357"",""0.595"",""0.800""]","[1,0,1,1]",0,60,60,60,1,1,0,,,0,FALSE,1.4338,,,,,,,,,,,,,,,,,,,,,,,,,,,,,,,
,613da2f481d2755038340eee,627c693d394be32478599400,2022-05-11_20h56.27.225,classification_task,2021.2.3,Win32,59.95563283,627c6715c52fd12f31907bcf,,,,,,,,,,,,,,,,,,,,,,,l,1,"[""0.130"",""0.306"",""0.528"",""0.800""]","[1,1,0,1]",0,61,61,61,1,1,0,,,0,FALSE,0.9173,,,,,,,,,,,,,,,,,,,,,,,,,,,,,,,
,613da2f481d2755038340eee,627c693d394be32478599400,2022-05-11_20h56.27.225,classification_task,2021.2.3,Win32,59.95563283,627c6715c52fd12f31907bcf,,,,,,,,,,,,,,,,,,,,,,,l,1,"[""0.062"",""0.195"",""0.372"",""0.729""]","[1,1,0,1]",0,62,62,62,1,1,1,,,0,FALSE,1.3841,,,,,,,,,,,,,,,,,,,,,,,,,,,,,,,
,613da2f481d2755038340eee,627c693d394be32478599400,2022-05-11_20h56.27.225,classification_task,2021.2.3,Win32,59.95563283,627c6715c52fd12f31907bcf,,,,,,,,,,,,,,,,,,,,,,,a,1,"[""0.262"",""0.342"",""0.649"",""0.858""]","[1,0,1,1]",0,63,63,63,1,0,0,,,0,FALSE,1.5509,,,,,,,,,,,,,,,,,,,,,,,,,,,,,,,
,613da2f481d2755038340eee,627c693d394be32478599400,2022-05-11_20h56.27.225,classification_task,2021.2.3,Win32,59.95563283,627c6715c52fd12f31907bcf,,,,,,,,,,,,,,,,,,,,,,,,,,,,,,,,,,,,,,,0, ,,0,2.85420341,448.6872,0,0,0,0,1,2,1,,,,,,,,,,,,,,,,,,
,613da2f481d2755038340eee,627c693d394be32478599400,2022-05-11_20h56.27.225,classification_task,2021.2.3,Win32,59.95563283,627c6715c52fd12f31907bcf,,,,,,,,,,,,,,,,,,,,,,,,,,,,,,,,,,,,,,,1,  ,,0,3.589065256,445.717,0,0,0,0,1,2,1,,,,,,,,,,,,,,,,,,
,613da2f481d2755038340eee,627c693d394be32478599400,2022-05-11_20h56.27.225,classification_task,2021.2.3,Win32,59.95563283,627c6715c52fd12f31907bcf,,,,,,,,,,,,,,,,,,,,,,,,,,,,,,,,,,,,,,,2,  ,,0,1.884185773,453.7022,0,0,0,0,1,2,1,,,,,,,,,,,,,,,,,,
,613da2f481d2755038340eee,627c693d394be32478599400,2022-05-11_20h56.27.225,classification_task,2021.2.3,Win32,59.95563283,627c6715c52fd12f31907bcf,,,,,,,,,,,,,,,,,,,,,,,,,,,,,,,,,,,,,,,,,,,,,0,0,0,0,1,,1,,,,,,,,,,,,,,,,,,
,613da2f481d2755038340eee,627c693d394be32478599400,2022-05-11_20h56.27.225,classification_task,2021.2.3,Win32,59.95563283,627c6715c52fd12f31907bcf,,,,,,,,,,,,,,,,,,,,,space,17.2902,a,1,"[""0.229"",""0.409"",""0.764"",""0.965""]","[1,1,0,1]",0,0,0,0,1,0,1,,,0,FALSE,4.6158,,,,,,,,,,,,,,,,,,,,,,,,,,,,,,,
,613da2f481d2755038340eee,627c693d394be32478599400,2022-05-11_20h56.27.225,classification_task,2021.2.3,Win32,59.95563283,627c6715c52fd12f31907bcf,,,,,,,,,,,,,,,,,,,,,,,l,1,"[""0.130"",""0.525"",""0.595"",""0.800""]","[1,0,1,1]",0,1,1,1,1,1,0,,,0,FALSE,2.2002,,,,,,,,,,,,,,,,,,,,,,,,,,,,,,,
,613da2f481d2755038340eee,627c693d394be32478599400,2022-05-11_20h56.27.225,classification_task,2021.2.3,Win32,59.95563283,627c6715c52fd12f31907bcf,,,,,,,,,,,,,,,,,,,,,,,l,1,"[""0.366"",""0.306"",""0.595"",""0.800""]","[0,1,1,1]",0,2,2,2,1,1,0,,,0,FALSE,1.8203,,,,,,,,,,,,,,,,,,,,,,,,,,,,,,,
,613da2f481d2755038340eee,627c693d394be32478599400,2022-05-11_20h56.27.225,classification_task,2021.2.3,Win32,59.95563283,627c6715c52fd12f31907bcf,,,,,,,,,,,,,,,,,,,,,,,a,1,"[""0.528"",""0.409"",""0.906"",""0.965""]","[0,1,1,1]",0,3,3,3,1,0,1,,,0,FALSE,2.5179,,,,,,,,,,,,,,,,,,,,,,,,,,,,,,,
,613da2f481d2755038340eee,627c693d394be32478599400,2022-05-11_20h56.27.225,classification_task,2021.2.3,Win32,59.95563283,627c6715c52fd12f31907bcf,,,,,,,,,,,,,,,,,,,,,,,a,1,"[""0.262"",""0.357"",""0.649"",""0.858""]","[1,0,1,1]",0,4,4,4,1,0,0,,,0,FALSE,1.234,,,,,,,,,,,,,,,,,,,,,,,,,,,,,,,
,613da2f481d2755038340eee,627c693d394be32478599400,2022-05-11_20h56.27.225,classification_task,2021.2.3,Win32,59.95563283,627c6715c52fd12f31907bcf,,,,,,,,,,,,,,,,,,,,,,,l,1,"[""0.130"",""0.306"",""0.595"",""0.358""]","[1,1,1,0]",0,5,5,5,1,1,0,,,0,FALSE,1.0004,,,,,,,,,,,,,,,,,,,,,,,,,,,,,,,
,613da2f481d2755038340eee,627c693d394be32478599400,2022-05-11_20h56.27.225,classification_task,2021.2.3,Win32,59.95563283,627c6715c52fd12f31907bcf,,,,,,,,,,,,,,,,,,,,,,,l,1,"[""0.062"",""0.195"",""0.561"",""0.357""]","[1,1,1,0]",0,6,6,6,1,1,1,,,0,FALSE,1.2502,,,,,,,,,,,,,,,,,,,,,,,,,,,,,,,
,613da2f481d2755038340eee,627c693d394be32478599400,2022-05-11_20h56.27.225,classification_task,2021.2.3,Win32,59.95563283,627c6715c52fd12f31907bcf,,,,,,,,,,,,,,,,,,,,,,,a,1,"[""0.229"",""0.528"",""0.906"",""0.965""]","[1,0,1,1]",0,7,7,7,1,0,1,,,0,FALSE,1.1839,,,,,,,,,,,,,,,,,,,,,,,,,,,,,,,
,613da2f481d2755038340eee,627c693d394be32478599400,2022-05-11_20h56.27.225,classification_task,2021.2.3,Win32,59.95563283,627c6715c52fd12f31907bcf,,,,,,,,,,,,,,,,,,,,,,,a,1,"[""0.763"",""0.472"",""0.649"",""0.858""]","[0,1,1,1]",0,8,8,8,1,0,0,,,0,FALSE,1.101,,,,,,,,,,,,,,,,,,,,,,,,,,,,,,,
,613da2f481d2755038340eee,627c693d394be32478599400,2022-05-11_20h56.27.225,classification_task,2021.2.3,Win32,59.95563283,627c6715c52fd12f31907bcf,,,,,,,,,,,,,,,,,,,,,,,a,1,"[""0.262"",""0.472"",""0.649"",""0.519""]","[1,1,1,0]",0,9,9,9,1,0,0,,,0,FALSE,1.3676,,,,,,,,,,,,,,,,,,,,,,,,,,,,,,,
,613da2f481d2755038340eee,627c693d394be32478599400,2022-05-11_20h56.27.225,classification_task,2021.2.3,Win32,59.95563283,627c6715c52fd12f31907bcf,,,,,,,,,,,,,,,,,,,,,,,a,0,"[""0.372"",""0.195"",""0.561"",""0.729""]","[0,1,1,1]",0,10,10,10,1,1,1,,,0,FALSE,1.5013,,,,,,,,,,,,,,,,,,,,,,,,,,,,,,,
,613da2f481d2755038340eee,627c693d394be32478599400,2022-05-11_20h56.27.225,classification_task,2021.2.3,Win32,59.95563283,627c6715c52fd12f31907bcf,,,,,,,,,,,,,,,,,,,,,,,l,1,"[""0.130"",""0.306"",""0.519"",""0.800""]","[1,1,0,1]",0,11,11,11,1,1,0,,,0,FALSE,1.1507,,,,,,,,,,,,,,,,,,,,,,,,,,,,,,,
,613da2f481d2755038340eee,627c693d394be32478599400,2022-05-11_20h56.27.225,classification_task,2021.2.3,Win32,59.95563283,627c6715c52fd12f31907bcf,,,,,,,,,,,,,,,,,,,,,,,l,1,"[""0.062"",""0.357"",""0.561"",""0.729""]","[1,0,1,1]",0,12,12,12,1,1,1,,,0,FALSE,1.2341,,,,,,,,,,,,,,,,,,,,,,,,,,,,,,,
,613da2f481d2755038340eee,627c693d394be32478599400,2022-05-11_20h56.27.225,classification_task,2021.2.3,Win32,59.95563283,627c6715c52fd12f31907bcf,,,,,,,,,,,,,,,,,,,,,,,a,1,"[""0.229"",""0.409"",""0.906"",""0.764""]","[1,1,1,0]",0,13,13,13,1,0,1,,,0,FALSE,1.2342,,,,,,,,,,,,,,,,,,,,,,,,,,,,,,,
,613da2f481d2755038340eee,627c693d394be32478599400,2022-05-11_20h56.27.225,classification_task,2021.2.3,Win32,59.95563283,627c6715c52fd12f31907bcf,,,,,,,,,,,,,,,,,,,,,,,l,1,"[""0.062"",""0.195"",""0.763"",""0.729""]","[1,1,0,1]",0,14,14,14,1,1,1,,,0,FALSE,1.1681,,,,,,,,,,,,,,,,,,,,,,,,,,,,,,,
,613da2f481d2755038340eee,627c693d394be32478599400,2022-05-11_20h56.27.225,classification_task,2021.2.3,Win32,59.95563283,627c6715c52fd12f31907bcf,,,,,,,,,,,,,,,,,,,,,,,a,1,"[""0.262"",""0.472"",""0.692"",""0.858""]","[1,1,0,1]",0,15,15,15,1,0,0,,,0,FALSE,1.0007,,,,,,,,,,,,,,,,,,,,,,,,,,,,,,,
,613da2f481d2755038340eee,627c693d394be32478599400,2022-05-11_20h56.27.225,classification_task,2021.2.3,Win32,59.95563283,627c6715c52fd12f31907bcf,,,,,,,,,,,,,,,,,,,,,,,l,1,"[""0.062"",""0.519"",""0.561"",""0.729""]","[1,0,1,1]",0,16,16,16,1,1,1,,,0,FALSE,1.0839,,,,,,,,,,,,,,,,,,,,,,,,,,,,,,,
,613da2f481d2755038340eee,627c693d394be32478599400,2022-05-11_20h56.27.225,classification_task,2021.2.3,Win32,59.95563283,627c6715c52fd12f31907bcf,,,,,,,,,,,,,,,,,,,,,,,a,1,"[""0.229"",""0.366"",""0.906"",""0.965""]","[1,0,1,1]",0,17,17,17,1,0,1,,,0,FALSE,2.5519,,,,,,,,,,,,,,,,,,,,,,,,,,,,,,,
,613da2f481d2755038340eee,627c693d394be32478599400,2022-05-11_20h56.27.225,classification_task,2021.2.3,Win32,59.95563283,627c6715c52fd12f31907bcf,,,,,,,,,,,,,,,,,,,,,,,l,1,"[""0.130"",""0.306"",""0.764"",""0.800""]","[1,1,0,1]",0,18,18,18,1,1,0,,,0,FALSE,0.8672,,,,,,,,,,,,,,,,,,,,,,,,,,,,,,,
,613da2f481d2755038340eee,627c693d394be32478599400,2022-05-11_20h56.27.225,classification_task,2021.2.3,Win32,59.95563283,627c6715c52fd12f31907bcf,,,,,,,,,,,,,,,,,,,,,,,l,1,"[""0.130"",""0.306"",""0.595"",""0.366""]","[1,1,1,0]",0,19,19,19,1,1,0,,,0,FALSE,0.8684,,,,,,,,,,,,,,,,,,,,,,,,,,,,,,,
,613da2f481d2755038340eee,627c693d394be32478599400,2022-05-11_20h56.27.225,classification_task,2021.2.3,Win32,59.95563283,627c6715c52fd12f31907bcf,,,,,,,,,,,,,,,,,,,,,,,l,1,"[""0.764"",""0.306"",""0.595"",""0.800""]","[0,1,1,1]",0,20,20,20,1,1,0,,,0,FALSE,0.8173,,,,,,,,,,,,,,,,,,,,,,,,,,,,,,,
,613da2f481d2755038340eee,627c693d394be32478599400,2022-05-11_20h56.27.225,classification_task,2021.2.3,Win32,59.95563283,627c6715c52fd12f31907bcf,,,,,,,,,,,,,,,,,,,,,,,a,1,"[""0.262"",""0.472"",""0.649"",""0.519""]","[1,1,1,0]",0,21,21,21,1,0,0,,,0,FALSE,0.8674,,,,,,,,,,,,,,,,,,,,,,,,,,,,,,,
,613da2f481d2755038340eee,627c693d394be32478599400,2022-05-11_20h56.27.225,classification_task,2021.2.3,Win32,59.95563283,627c6715c52fd12f31907bcf,,,,,,,,,,,,,,,,,,,,,,,l,1,"[""0.130"",""0.341"",""0.595"",""0.800""]","[1,0,1,1]",0,22,22,22,1,1,0,,,0,FALSE,2.8999,,,,,,,,,,,,,,,,,,,,,,,,,,,,,,,
,613da2f481d2755038340eee,627c693d394be32478599400,2022-05-11_20h56.27.225,classification_task,2021.2.3,Win32,59.95563283,627c6715c52fd12f31907bcf,,,,,,,,,,,,,,,,,,,,,,,l,0,"[""0.517"",""0.409"",""0.906"",""0.965""]","[0,1,1,1]",0,23,23,23,1,0,1,,,0,FALSE,1.8175,,,,,,,,,,,,,,,,,,,,,,,,,,,,,,,
,613da2f481d2755038340eee,627c693d394be32478599400,2022-05-11_20h56.27.225,classification_task,2021.2.3,Win32,59.95563283,627c6715c52fd12f31907bcf,,,,,,,,,,,,,,,,,,,,,,,a,1,"[""0.764"",""0.472"",""0.649"",""0.858""]","[0,1,1,1]",0,24,24,24,1,0,0,,,0,FALSE,1.451,,,,,,,,,,,,,,,,,,,,,,,,,,,,,,,
,613da2f481d2755038340eee,627c693d394be32478599400,2022-05-11_20h56.27.225,classification_task,2021.2.3,Win32,59.95563283,627c6715c52fd12f31907bcf,,,,,,,,,,,,,,,,,,,,,,,a,1,"[""0.229"",""0.409"",""0.906"",""0.372""]","[1,1,1,0]",0,25,25,25,1,0,1,,,0,FALSE,1.184,,,,,,,,,,,,,,,,,,,,,,,,,,,,,,,
,613da2f481d2755038340eee,627c693d394be32478599400,2022-05-11_20h56.27.225,classification_task,2021.2.3,Win32,59.95563283,627c6715c52fd12f31907bcf,,,,,,,,,,,,,,,,,,,,,,,a,1,"[""0.262"",""0.472"",""0.764"",""0.858""]","[1,1,0,1]",0,26,26,26,1,0,0,,,0,FALSE,1.0839,,,,,,,,,,,,,,,,,,,,,,,,,,,,,,,
,613da2f481d2755038340eee,627c693d394be32478599400,2022-05-11_20h56.27.225,classification_task,2021.2.3,Win32,59.95563283,627c6715c52fd12f31907bcf,,,,,,,,,,,,,,,,,,,,,,,l,1,"[""0.062"",""0.195"",""0.561"",""0.357""]","[1,1,1,0]",0,27,27,27,1,1,1,,,0,FALSE,1.034,,,,,,,,,,,,,,,,,,,,,,,,,,,,,,,
,613da2f481d2755038340eee,627c693d394be32478599400,2022-05-11_20h56.27.225,classification_task,2021.2.3,Win32,59.95563283,627c6715c52fd12f31907bcf,,,,,,,,,,,,,,,,,,,,,,,l,1,"[""0.062"",""0.195"",""0.519"",""0.729""]","[1,1,0,1]",0,28,28,28,1,1,1,,,0,FALSE,0.934,,,,,,,,,,,,,,,,,,,,,,,,,,,,,,,
,613da2f481d2755038340eee,627c693d394be32478599400,2022-05-11_20h56.27.225,classification_task,2021.2.3,Win32,59.95563283,627c6715c52fd12f31907bcf,,,,,,,,,,,,,,,,,,,,,,,a,1,"[""0.262"",""0.341"",""0.649"",""0.858""]","[1,0,1,1]",0,29,29,29,1,0,0,,,0,FALSE,1.0008,,,,,,,,,,,,,,,,,,,,,,,,,,,,,,,
,613da2f481d2755038340eee,627c693d394be32478599400,2022-05-11_20h56.27.225,classification_task,2021.2.3,Win32,59.95563283,627c6715c52fd12f31907bcf,,,,,,,,,,,,,,,,,,,,,,,a,1,"[""0.229"",""0.409"",""0.763"",""0.965""]","[1,1,0,1]",0,30,30,30,1,0,1,,,0,FALSE,1.6511,,,,,,,,,,,,,,,,,,,,,,,,,,,,,,,
,613da2f481d2755038340eee,627c693d394be32478599400,2022-05-11_20h56.27.225,classification_task,2021.2.3,Win32,59.95563283,627c6715c52fd12f31907bcf,,,,,,,,,,,,,,,,,,,,,,,l,1,"[""0.763"",""0.195"",""0.561"",""0.729""]","[0,1,1,1]",0,31,31,31,1,1,1,,,0,FALSE,0.9506,,,,,,,,,,,,,,,,,,,,,,,,,,,,,,,
,613da2f481d2755038340eee,627c693d394be32478599400,2022-05-11_20h56.27.225,classification_task,2021.2.3,Win32,59.95563283,627c6715c52fd12f31907bcf,,,,,,,,,,,,,,,,,,,,,,,l,1,"[""0.062"",""0.195"",""0.342"",""0.729""]","[1,1,0,1]",0,32,32,32,1,1,1,,,0,FALSE,0.901,,,,,,,,,,,,,,,,,,,,,,,,,,,,,,,
,613da2f481d2755038340eee,627c693d394be32478599400,2022-05-11_20h56.27.225,classification_task,2021.2.3,Win32,59.95563283,627c6715c52fd12f31907bcf,,,,,,,,,,,,,,,,,,,,,,,l,1,"[""0.130"",""0.306"",""0.595"",""0.357""]","[1,1,1,0]",0,33,33,33,1,1,0,,,0,FALSE,1.4172,,,,,,,,,,,,,,,,,,,,,,,,,,,,,,,
,613da2f481d2755038340eee,627c693d394be32478599400,2022-05-11_20h56.27.225,classification_task,2021.2.3,Win32,59.95563283,627c6715c52fd12f31907bcf,,,,,,,,,,,,,,,,,,,,,,,a,1,"[""0.262"",""0.472"",""0.649"",""0.517""]","[1,1,1,0]",0,34,34,34,1,0,0,,,0,FALSE,0.7675,,,,,,,,,,,,,,,,,,,,,,,,,,,,,,,
,613da2f481d2755038340eee,627c693d394be32478599400,2022-05-11_20h56.27.225,classification_task,2021.2.3,Win32,59.95563283,627c6715c52fd12f31907bcf,,,,,,,,,,,,,,,,,,,,,,,a,1,"[""0.262"",""0.472"",""0.357"",""0.858""]","[1,1,0,1]",0,35,35,35,1,0,0,,,0,FALSE,0.9506,,,,,,,,,,,,,,,,,,,,,,,,,,,,,,,
,613da2f481d2755038340eee,627c693d394be32478599400,2022-05-11_20h56.27.225,classification_task,2021.2.3,Win32,59.95563283,627c6715c52fd12f31907bcf,,,,,,,,,,,,,,,,,,,,,,,l,1,"[""0.062"",""0.195"",""0.561"",""0.517""]","[1,1,1,0]",0,36,36,36,1,1,1,,,0,FALSE,0.9009,,,,,,,,,,,,,,,,,,,,,,,,,,,,,,,
,613da2f481d2755038340eee,627c693d394be32478599400,2022-05-11_20h56.27.225,classification_task,2021.2.3,Win32,59.95563283,627c6715c52fd12f31907bcf,,,,,,,,,,,,,,,,,,,,,,,l,1,"[""0.358"",""0.306"",""0.595"",""0.800""]","[0,1,1,1]",0,37,37,37,1,1,0,,,0,FALSE,0.951,,,,,,,,,,,,,,,,,,,,,,,,,,,,,,,
,613da2f481d2755038340eee,627c693d394be32478599400,2022-05-11_20h56.27.225,classification_task,2021.2.3,Win32,59.95563283,627c6715c52fd12f31907bcf,,,,,,,,,,,,,,,,,,,,,,,l,1,"[""0.130"",""0.342"",""0.595"",""0.800""]","[1,0,1,1]",0,38,38,38,1,1,0,,,0,FALSE,1.0007,,,,,,,,,,,,,,,,,,,,,,,,,,,,,,,
,613da2f481d2755038340eee,627c693d394be32478599400,2022-05-11_20h56.27.225,classification_task,2021.2.3,Win32,59.95563283,627c6715c52fd12f31907bcf,,,,,,,,,,,,,,,,,,,,,,,l,1,"[""0.062"",""0.341"",""0.561"",""0.729""]","[1,0,1,1]",0,39,39,39,1,1,1,,,0,FALSE,0.9176,,,,,,,,,,,,,,,,,,,,,,,,,,,,,,,
,613da2f481d2755038340eee,627c693d394be32478599400,2022-05-11_20h56.27.225,classification_task,2021.2.3,Win32,59.95563283,627c6715c52fd12f31907bcf,,,,,,,,,,,,,,,,,,,,,,,a,1,"[""0.763"",""0.472"",""0.649"",""0.858""]","[0,1,1,1]",0,40,40,40,1,0,0,,,0,FALSE,0.8504,,,,,,,,,,,,,,,,,,,,,,,,,,,,,,,
,613da2f481d2755038340eee,627c693d394be32478599400,2022-05-11_20h56.27.225,classification_task,2021.2.3,Win32,59.95563283,627c6715c52fd12f31907bcf,,,,,,,,,,,,,,,,,,,,,,,l,1,"[""0.130"",""0.306"",""0.341"",""0.800""]","[1,1,0,1]",0,41,41,41,1,1,0,,,0,FALSE,0.8007,,,,,,,,,,,,,,,,,,,,,,,,,,,,,,,
,613da2f481d2755038340eee,627c693d394be32478599400,2022-05-11_20h56.27.225,classification_task,2021.2.3,Win32,59.95563283,627c6715c52fd12f31907bcf,,,,,,,,,,,,,,,,,,,,,,,a,1,"[""0.229"",""0.358"",""0.906"",""0.965""]","[1,0,1,1]",0,42,42,42,1,0,1,,,0,FALSE,1.2008,,,,,,,,,,,,,,,,,,,,,,,,,,,,,,,
,613da2f481d2755038340eee,627c693d394be32478599400,2022-05-11_20h56.27.225,classification_task,2021.2.3,Win32,59.95563283,627c6715c52fd12f31907bcf,,,,,,,,,,,,,,,,,,,,,,,a,1,"[""0.262"",""0.763"",""0.649"",""0.858""]","[1,0,1,1]",0,43,43,43,1,0,0,,,0,FALSE,1.2678,,,,,,,,,,,,,,,,,,,,,,,,,,,,,,,
,613da2f481d2755038340eee,627c693d394be32478599400,2022-05-11_20h56.27.225,classification_task,2021.2.3,Win32,59.95563283,627c6715c52fd12f31907bcf,,,,,,,,,,,,,,,,,,,,,,,a,1,"[""0.229"",""0.409"",""0.906"",""0.763""]","[1,1,1,0]",0,44,44,44,1,0,1,,,0,FALSE,1.0506,,,,,,,,,,,,,,,,,,,,,,,,,,,,,,,
,613da2f481d2755038340eee,627c693d394be32478599400,2022-05-11_20h56.27.225,classification_task,2021.2.3,Win32,59.95563283,627c6715c52fd12f31907bcf,,,,,,,,,,,,,,,,,,,,,,,l,1,"[""0.517"",""0.195"",""0.561"",""0.729""]","[0,1,1,1]",0,45,45,45,1,1,1,,,0,FALSE,1.901,,,,,,,,,,,,,,,,,,,,,,,,,,,,,,,
,613da2f481d2755038340eee,627c693d394be32478599400,2022-05-11_20h56.27.225,classification_task,2021.2.3,Win32,59.95563283,627c6715c52fd12f31907bcf,,,,,,,,,,,,,,,,,,,,,,,a,1,"[""0.372"",""0.409"",""0.906"",""0.965""]","[0,1,1,1]",0,46,46,46,1,0,1,,,0,FALSE,1.9343,,,,,,,,,,,,,,,,,,,,,,,,,,,,,,,
,613da2f481d2755038340eee,627c693d394be32478599400,2022-05-11_20h56.27.225,classification_task,2021.2.3,Win32,59.95563283,627c6715c52fd12f31907bcf,,,,,,,,,,,,,,,,,,,,,,,a,1,"[""0.229"",""0.409"",""0.763"",""0.965""]","[1,1,0,1]",0,47,47,47,1,0,1,,,0,FALSE,0.9673,,,,,,,,,,,,,,,,,,,,,,,,,,,,,,,
,613da2f481d2755038340eee,627c693d394be32478599400,2022-05-11_20h56.27.225,classification_task,2021.2.3,Win32,59.95563283,627c6715c52fd12f31907bcf,,,,,,,,,,,,,,,,,,,,,,,a,1,"[""0.229"",""0.354"",""0.906"",""0.965""]","[1,0,1,1]",0,48,48,48,1,0,1,,,0,FALSE,0.7674,,,,,,,,,,,,,,,,,,,,,,,,,,,,,,,
,613da2f481d2755038340eee,627c693d394be32478599400,2022-05-11_20h56.27.225,classification_task,2021.2.3,Win32,59.95563283,627c6715c52fd12f31907bcf,,,,,,,,,,,,,,,,,,,,,,,a,1,"[""0.229"",""0.409"",""0.358"",""0.965""]","[1,1,0,1]",0,49,49,49,1,0,1,,,0,FALSE,0.7329,,,,,,,,,,,,,,,,,,,,,,,,,,,,,,,
,613da2f481d2755038340eee,627c693d394be32478599400,2022-05-11_20h56.27.225,classification_task,2021.2.3,Win32,59.95563283,627c6715c52fd12f31907bcf,,,,,,,,,,,,,,,,,,,,,,,l,1,"[""0.130"",""0.366"",""0.595"",""0.800""]","[1,0,1,1]",0,50,50,50,1,1,0,,,0,FALSE,0.8676,,,,,,,,,,,,,,,,,,,,,,,,,,,,,,,
,613da2f481d2755038340eee,627c693d394be32478599400,2022-05-11_20h56.27.225,classification_task,2021.2.3,Win32,59.95563283,627c6715c52fd12f31907bcf,,,,,,,,,,,,,,,,,,,,,,,l,1,"[""0.062"",""0.195"",""0.561"",""0.354""]","[1,1,1,0]",0,51,51,51,1,1,1,,,0,FALSE,1.0017,,,,,,,,,,,,,,,,,,,,,,,,,,,,,,,
,613da2f481d2755038340eee,627c693d394be32478599400,2022-05-11_20h56.27.225,classification_task,2021.2.3,Win32,59.95563283,627c6715c52fd12f31907bcf,,,,,,,,,,,,,,,,,,,,,,,l,1,"[""0.130"",""0.306"",""0.595"",""0.763""]","[1,1,1,0]",0,52,52,52,1,1,0,,,0,FALSE,0.8513,,,,,,,,,,,,,,,,,,,,,,,,,,,,,,,
,613da2f481d2755038340eee,627c693d394be32478599400,2022-05-11_20h56.27.225,classification_task,2021.2.3,Win32,59.95563283,627c6715c52fd12f31907bcf,,,,,,,,,,,,,,,,,,,,,,,a,1,"[""0.262"",""0.472"",""0.341"",""0.858""]","[1,1,0,1]",0,53,53,53,1,0,0,,,0,FALSE,1.0193,,,,,,,,,,,,,,,,,,,,,,,,,,,,,,,
,613da2f481d2755038340eee,627c693d394be32478599400,2022-05-11_20h56.27.225,classification_task,2021.2.3,Win32,59.95563283,627c6715c52fd12f31907bcf,,,,,,,,,,,,,,,,,,,,,,,a,1,"[""0.262"",""0.763"",""0.649"",""0.858""]","[1,0,1,1]",0,54,54,54,1,0,0,,,0,FALSE,0.7514,,,,,,,,,,,,,,,,,,,,,,,,,,,,,,,
,613da2f481d2755038340eee,627c693d394be32478599400,2022-05-11_20h56.27.225,classification_task,2021.2.3,Win32,59.95563283,627c6715c52fd12f31907bcf,,,,,,,,,,,,,,,,,,,,,,,a,1,"[""0.262"",""0.472"",""0.649"",""0.372""]","[1,1,1,0]",0,55,55,55,1,0,0,,,0,FALSE,0.8005,,,,,,,,,,,,,,,,,,,,,,,,,,,,,,,
,613da2f481d2755038340eee,627c693d394be32478599400,2022-05-11_20h56.27.225,classification_task,2021.2.3,Win32,59.95563283,627c6715c52fd12f31907bcf,,,,,,,,,,,,,,,,,,,,,,,l,0,"[""0.366"",""0.409"",""0.906"",""0.965""]","[0,1,1,1]",0,56,56,56,1,0,1,,,0,FALSE,1.8175,,,,,,,,,,,,,,,,,,,,,,,,,,,,,,,
,613da2f481d2755038340eee,627c693d394be32478599400,2022-05-11_20h56.27.225,classification_task,2021.2.3,Win32,59.95563283,627c6715c52fd12f31907bcf,,,,,,,,,,,,,,,,,,,,,,,l,1,"[""0.062"",""0.195"",""0.341"",""0.729""]","[1,1,0,1]",0,57,57,57,1,1,1,,,0,FALSE,0.8666,,,,,,,,,,,,,,,,,,,,,,,,,,,,,,,
,613da2f481d2755038340eee,627c693d394be32478599400,2022-05-11_20h56.27.225,classification_task,2021.2.3,Win32,59.95563283,627c6715c52fd12f31907bcf,,,,,,,,,,,,,,,,,,,,,,,l,1,"[""0.062"",""0.517"",""0.561"",""0.729""]","[1,0,1,1]",0,58,58,58,1,1,1,,,0,FALSE,1.0167,,,,,,,,,,,,,,,,,,,,,,,,,,,,,,,
,613da2f481d2755038340eee,627c693d394be32478599400,2022-05-11_20h56.27.225,classification_task,2021.2.3,Win32,59.95563283,627c6715c52fd12f31907bcf,,,,,,,,,,,,,,,,,,,,,,,a,0,"[""0.341"",""0.195"",""0.561"",""0.729""]","[0,1,1,1]",0,59,59,59,1,1,1,,,0,FALSE,1.2671,,,,,,,,,,,,,,,,,,,,,,,,,,,,,,,
,613da2f481d2755038340eee,627c693d394be32478599400,2022-05-11_20h56.27.225,classification_task,2021.2.3,Win32,59.95563283,627c6715c52fd12f31907bcf,,,,,,,,,,,,,,,,,,,,,,,a,1,"[""0.525"",""0.472"",""0.649"",""0.858""]","[0,1,1,1]",0,60,60,60,1,0,0,,,0,FALSE,0.8844,,,,,,,,,,,,,,,,,,,,,,,,,,,,,,,
,613da2f481d2755038340eee,627c693d394be32478599400,2022-05-11_20h56.27.225,classification_task,2021.2.3,Win32,59.95563283,627c6715c52fd12f31907bcf,,,,,,,,,,,,,,,,,,,,,,,l,1,"[""0.763"",""0.306"",""0.595"",""0.800""]","[0,1,1,1]",0,61,61,61,1,1,0,,,0,FALSE,1.2006,,,,,,,,,,,,,,,,,,,,,,,,,,,,,,,
,613da2f481d2755038340eee,627c693d394be32478599400,2022-05-11_20h56.27.225,classification_task,2021.2.3,Win32,59.95563283,627c6715c52fd12f31907bcf,,,,,,,,,,,,,,,,,,,,,,,a,1,"[""0.229"",""0.409"",""0.906"",""0.763""]","[1,1,1,0]",0,62,62,62,1,0,1,,,0,FALSE,1.0006,,,,,,,,,,,,,,,,,,,,,,,,,,,,,,,
,613da2f481d2755038340eee,627c693d394be32478599400,2022-05-11_20h56.27.225,classification_task,2021.2.3,Win32,59.95563283,627c6715c52fd12f31907bcf,,,,,,,,,,,,,,,,,,,,,,,l,1,"[""0.130"",""0.306"",""0.372"",""0.800""]","[1,1,0,1]",0,63,63,63,1,1,0,,,0,FALSE,0.8174,,,,,,,,,,,,,,,,,,,,,,,,,,,,,,,
,613da2f481d2755038340eee,627c693d394be32478599400,2022-05-11_20h56.27.225,classification_task,2021.2.3,Win32,59.95563283,627c6715c52fd12f31907bcf,,,,,,,,,,,,,,,,,,,,,,,,,,,,,,,,,,,,,,,0, ,,0,1.531452087,172.8038,0,1,1,1,1,2,2,,,,,,,,,,,,,,,,,,
,613da2f481d2755038340eee,627c693d394be32478599400,2022-05-11_20h56.27.225,classification_task,2021.2.3,Win32,59.95563283,627c6715c52fd12f31907bcf,,,,,,,,,,,,,,,,,,,,,,,,,,,,,,,,,,,,,,,1,  ,,0,2.589653145,176.8551,0,1,1,1,1,2,2,,,,,,,,,,,,,,,,,,
,613da2f481d2755038340eee,627c693d394be32478599400,2022-05-11_20h56.27.225,classification_task,2021.2.3,Win32,59.95563283,627c6715c52fd12f31907bcf,,,,,,,,,,,,,,,,,,,,,,,,,,,,,,,,,,,,,,,2,  ,,0,2.354497354,179.9563,0,1,1,1,1,2,2,,,,,,,,,,,,,,,,,,
,613da2f481d2755038340eee,627c693d394be32478599400,2022-05-11_20h56.27.225,classification_task,2021.2.3,Win32,59.95563283,627c6715c52fd12f31907bcf,,,,,,,,,,,,,,,,,,,,,,,,,,,,,,,,,,,,,,,,,,,,,0,1,1,1,1,,2,,,,,,,,,,,,,,,,,,
,613da2f481d2755038340eee,627c693d394be32478599400,2022-05-11_20h56.27.225,classification_task,2021.2.3,Win32,59.95563283,627c6715c52fd12f31907bcf,,,,,,,,,,,,,,,,,,,,,space,10.5027,a,1,"[""0.357"",""0.472"",""0.649"",""0.858""]","[0,1,1,1]",0,0,0,0,1,0,0,,,0,FALSE,2.9438,,,,,,,,,,,,,,,,,,,,,,,,,,,,,,,
,613da2f481d2755038340eee,627c693d394be32478599400,2022-05-11_20h56.27.225,classification_task,2021.2.3,Win32,59.95563283,627c6715c52fd12f31907bcf,,,,,,,,,,,,,,,,,,,,,,,l,1,"[""0.130"",""0.306"",""0.595"",""0.357""]","[1,1,1,0]",0,1,1,1,1,1,0,,,0,FALSE,1.7843,,,,,,,,,,,,,,,,,,,,,,,,,,,,,,,
,613da2f481d2755038340eee,627c693d394be32478599400,2022-05-11_20h56.27.225,classification_task,2021.2.3,Win32,59.95563283,627c6715c52fd12f31907bcf,,,,,,,,,,,,,,,,,,,,,,,a,1,"[""0.229"",""0.409"",""0.906"",""0.528""]","[1,1,1,0]",0,2,2,2,1,0,1,,,0,FALSE,1.3006,,,,,,,,,,,,,,,,,,,,,,,,,,,,,,,
,613da2f481d2755038340eee,627c693d394be32478599400,2022-05-11_20h56.27.225,classification_task,2021.2.3,Win32,59.95563283,627c6715c52fd12f31907bcf,,,,,,,,,,,,,,,,,,,,,,,l,1,"[""0.062"",""0.195"",""0.561"",""0.357""]","[1,1,1,0]",0,3,3,3,1,1,1,,,0,FALSE,1.0674,,,,,,,,,,,,,,,,,,,,,,,,,,,,,,,
,613da2f481d2755038340eee,627c693d394be32478599400,2022-05-11_20h56.27.225,classification_task,2021.2.3,Win32,59.95563283,627c6715c52fd12f31907bcf,,,,,,,,,,,,,,,,,,,,,,,l,1,"[""0.130"",""0.306"",""0.528"",""0.800""]","[1,1,0,1]",0,4,4,4,1,1,0,,,0,FALSE,1.4675,,,,,,,,,,,,,,,,,,,,,,,,,,,,,,,
,613da2f481d2755038340eee,627c693d394be32478599400,2022-05-11_20h56.27.225,classification_task,2021.2.3,Win32,59.95563283,627c6715c52fd12f31907bcf,,,,,,,,,,,,,,,,,,,,,,,l,1,"[""0.062"",""0.341"",""0.561"",""0.729""]","[1,0,1,1]",0,5,5,5,1,1,1,,,0,FALSE,1.0175,,,,,,,,,,,,,,,,,,,,,,,,,,,,,,,
,613da2f481d2755038340eee,627c693d394be32478599400,2022-05-11_20h56.27.225,classification_task,2021.2.3,Win32,59.95563283,627c6715c52fd12f31907bcf,,,,,,,,,,,,,,,,,,,,,,,a,1,"[""0.229"",""0.341"",""0.906"",""0.965""]","[1,0,1,1]",0,6,6,6,1,0,1,,,0,FALSE,1.0172,,,,,,,,,,,,,,,,,,,,,,,,,,,,,,,
,613da2f481d2755038340eee,627c693d394be32478599400,2022-05-11_20h56.27.225,classification_task,2021.2.3,Win32,59.95563283,627c6715c52fd12f31907bcf,,,,,,,,,,,,,,,,,,,,,,,a,1,"[""0.262"",""0.472"",""0.649"",""0.528""]","[1,1,1,0]",0,7,7,7,1,0,0,,,0,FALSE,1.5344,,,,,,,,,,,,,,,,,,,,,,,,,,,,,,,
,613da2f481d2755038340eee,627c693d394be32478599400,2022-05-11_20h56.27.225,classification_task,2021.2.3,Win32,59.95563283,627c6715c52fd12f31907bcf,,,,,,,,,,,,,,,,,,,,,,,a,1,"[""0.229"",""0.409"",""0.764"",""0.965""]","[1,1,0,1]",0,8,8,8,1,0,1,,,0,FALSE,1.0676,,,,,,,,,,,,,,,,,,,,,,,,,,,,,,,
,613da2f481d2755038340eee,627c693d394be32478599400,2022-05-11_20h56.27.225,classification_task,2021.2.3,Win32,59.95563283,627c6715c52fd12f31907bcf,,,,,,,,,,,,,,,,,,,,,,,a,1,"[""0.358"",""0.409"",""0.906"",""0.965""]","[0,1,1,1]",0,9,9,9,1,0,1,,,0,FALSE,2.0841,,,,,,,,,,,,,,,,,,,,,,,,,,,,,,,
,613da2f481d2755038340eee,627c693d394be32478599400,2022-05-11_20h56.27.225,classification_task,2021.2.3,Win32,59.95563283,627c6715c52fd12f31907bcf,,,,,,,,,,,,,,,,,,,,,,,a,1,"[""0.262"",""0.472"",""0.372"",""0.858""]","[1,1,0,1]",0,10,10,10,1,0,0,,,0,FALSE,1.7231,,,,,,,,,,,,,,,,,,,,,,,,,,,,,,,
,613da2f481d2755038340eee,627c693d394be32478599400,2022-05-11_20h56.27.225,classification_task,2021.2.3,Win32,59.95563283,627c6715c52fd12f31907bcf,,,,,,,,,,,,,,,,,,,,,,,a,1,"[""0.262"",""0.525"",""0.649"",""0.858""]","[1,0,1,1]",0,11,11,11,1,0,0,,,0,FALSE,0.9455,,,,,,,,,,,,,,,,,,,,,,,,,,,,,,,
,613da2f481d2755038340eee,627c693d394be32478599400,2022-05-11_20h56.27.225,classification_task,2021.2.3,Win32,59.95563283,627c6715c52fd12f31907bcf,,,,,,,,,,,,,,,,,,,,,,,l,1,"[""0.062"",""0.195"",""0.764"",""0.729""]","[1,1,0,1]",0,12,12,12,1,1,1,,,0,FALSE,0.7856,,,,,,,,,,,,,,,,,,,,,,,,,,,,,,,
,613da2f481d2755038340eee,627c693d394be32478599400,2022-05-11_20h56.27.225,classification_task,2021.2.3,Win32,59.95563283,627c6715c52fd12f31907bcf,,,,,,,,,,,,,,,,,,,,,,,l,1,"[""0.519"",""0.306"",""0.595"",""0.800""]","[0,1,1,1]",0,13,13,13,1,1,0,,,0,FALSE,2.7013,,,,,,,,,,,,,,,,,,,,,,,,,,,,,,,
,613da2f481d2755038340eee,627c693d394be32478599400,2022-05-11_20h56.27.225,classification_task,2021.2.3,Win32,59.95563283,627c6715c52fd12f31907bcf,,,,,,,,,,,,,,,,,,,,,,,l,1,"[""0.130"",""0.354"",""0.595"",""0.800""]","[1,0,1,1]",0,14,14,14,1,1,0,,,0,FALSE,1.2172,,,,,,,,,,,,,,,,,,,,,,,,,,,,,,,
,613da2f481d2755038340eee,627c693d394be32478599400,2022-05-11_20h56.27.225,classification_task,2021.2.3,Win32,59.95563283,627c6715c52fd12f31907bcf,,,,,,,,,,,,,,,,,,,,,,,l,1,"[""0.358"",""0.195"",""0.561"",""0.729""]","[0,1,1,1]",0,15,15,15,1,1,1,,,0,FALSE,3.6999,,,,,,,,,,,,,,,,,,,,,,,,,,,,,,,
,613da2f481d2755038340eee,627c693d394be32478599400,2022-05-11_20h56.27.225,classification_task,2021.2.3,Win32,59.95563283,627c6715c52fd12f31907bcf,,,,,,,,,,,,,,,,,,,,,,,l,1,"[""0.130"",""0.358"",""0.595"",""0.800""]","[1,0,1,1]",0,16,16,16,1,1,0,,,0,FALSE,1.1339,,,,,,,,,,,,,,,,,,,,,,,,,,,,,,,
,613da2f481d2755038340eee,627c693d394be32478599400,2022-05-11_20h56.27.225,classification_task,2021.2.3,Win32,59.95563283,627c6715c52fd12f31907bcf,,,,,,,,,,,,,,,,,,,,,,,a,0,"[""0.763"",""0.306"",""0.595"",""0.800""]","[0,1,1,1]",0,17,17,17,1,1,0,,,0,FALSE,1.8508,,,,,,,,,,,,,,,,,,,,,,,,,,,,,,,
,613da2f481d2755038340eee,627c693d394be32478599400,2022-05-11_20h56.27.225,classification_task,2021.2.3,Win32,59.95563283,627c6715c52fd12f31907bcf,,,,,,,,,,,,,,,,,,,,,,,a,1,"[""0.262"",""0.472"",""0.649"",""0.341""]","[1,1,1,0]",0,18,18,18,1,0,0,,,0,FALSE,1.0679,,,,,,,,,,,,,,,,,,,,,,,,,,,,,,,
,613da2f481d2755038340eee,627c693d394be32478599400,2022-05-11_20h56.27.225,classification_task,2021.2.3,Win32,59.95563283,627c6715c52fd12f31907bcf,,,,,,,,,,,,,,,,,,,,,,,l,1,"[""0.528"",""0.195"",""0.561"",""0.729""]","[0,1,1,1]",0,19,19,19,1,1,1,,,0,FALSE,1.7313,,,,,,,,,,,,,,,,,,,,,,,,,,,,,,,
,613da2f481d2755038340eee,627c693d394be32478599400,2022-05-11_20h56.27.225,classification_task,2021.2.3,Win32,59.95563283,627c6715c52fd12f31907bcf,,,,,,,,,,,,,,,,,,,,,,,a,1,"[""0.372"",""0.472"",""0.649"",""0.858""]","[0,1,1,1]",0,20,20,20,1,0,0,,,0,FALSE,1.7174,,,,,,,,,,,,,,,,,,,,,,,,,,,,,,,
,613da2f481d2755038340eee,627c693d394be32478599400,2022-05-11_20h56.27.225,classification_task,2021.2.3,Win32,59.95563283,627c6715c52fd12f31907bcf,,,,,,,,,,,,,,,,,,,,,,,l,1,"[""0.062"",""0.195"",""0.354"",""0.729""]","[1,1,0,1]",0,21,21,21,1,1,1,,,0,FALSE,1.0674,,,,,,,,,,,,,,,,,,,,,,,,,,,,,,,
,613da2f481d2755038340eee,627c693d394be32478599400,2022-05-11_20h56.27.225,classification_task,2021.2.3,Win32,59.95563283,627c6715c52fd12f31907bcf,,,,,,,,,,,,,,,,,,,,,,,a,1,"[""0.262"",""0.472"",""0.357"",""0.858""]","[1,1,0,1]",0,22,22,22,1,0,0,,,0,FALSE,1.2175,,,,,,,,,,,,,,,,,,,,,,,,,,,,,,,
,613da2f481d2755038340eee,627c693d394be32478599400,2022-05-11_20h56.27.225,classification_task,2021.2.3,Win32,59.95563283,627c6715c52fd12f31907bcf,,,,,,,,,,,,,,,,,,,,,,,l,1,"[""0.062"",""0.195"",""0.561"",""0.357""]","[1,1,1,0]",0,23,23,23,1,1,1,,,0,FALSE,0.9341,,,,,,,,,,,,,,,,,,,,,,,,,,,,,,,
,613da2f481d2755038340eee,627c693d394be32478599400,2022-05-11_20h56.27.225,classification_task,2021.2.3,Win32,59.95563283,627c6715c52fd12f31907bcf,,,,,,,,,,,,,,,,,,,,,,,l,1,"[""0.130"",""0.306"",""0.595"",""0.763""]","[1,1,1,0]",0,24,24,24,1,1,0,,,0,FALSE,1.4671,,,,,,,,,,,,,,,,,,,,,,,,,,,,,,,
,613da2f481d2755038340eee,627c693d394be32478599400,2022-05-11_20h56.27.225,classification_task,2021.2.3,Win32,59.95563283,627c6715c52fd12f31907bcf,,,,,,,,,,,,,,,,,,,,,,,a,1,"[""0.262"",""0.692"",""0.649"",""0.858""]","[1,0,1,1]",0,25,25,25,1,0,0,,,0,FALSE,0.9687,,,,,,,,,,,,,,,,,,,,,,,,,,,,,,,
,613da2f481d2755038340eee,627c693d394be32478599400,2022-05-11_20h56.27.225,classification_task,2021.2.3,Win32,59.95563283,627c6715c52fd12f31907bcf,,,,,,,,,,,,,,,,,,,,,,,a,1,"[""0.229"",""0.341"",""0.906"",""0.965""]","[1,0,1,1]",0,26,26,26,1,0,1,,,0,FALSE,1.0675,,,,,,,,,,,,,,,,,,,,,,,,,,,,,,,
,613da2f481d2755038340eee,627c693d394be32478599400,2022-05-11_20h56.27.225,classification_task,2021.2.3,Win32,59.95563283,627c6715c52fd12f31907bcf,,,,,,,,,,,,,,,,,,,,,,,l,0,"[""0.517"",""0.409"",""0.906"",""0.965""]","[0,1,1,1]",0,27,27,27,1,0,1,,,0,FALSE,3.5344,,,,,,,,,,,,,,,,,,,,,,,,,,,,,,,
,613da2f481d2755038340eee,627c693d394be32478599400,2022-05-11_20h56.27.225,classification_task,2021.2.3,Win32,59.95563283,627c6715c52fd12f31907bcf,,,,,,,,,,,,,,,,,,,,,,,l,1,"[""0.130"",""0.306"",""0.354"",""0.800""]","[1,1,0,1]",0,28,28,28,1,1,0,,,0,FALSE,1.0176,,,,,,,,,,,,,,,,,,,,,,,,,,,,,,,
,613da2f481d2755038340eee,627c693d394be32478599400,2022-05-11_20h56.27.225,classification_task,2021.2.3,Win32,59.95563283,627c6715c52fd12f31907bcf,,,,,,,,,,,,,,,,,,,,,,,a,1,"[""0.229"",""0.409"",""0.763"",""0.965""]","[1,1,0,1]",0,29,29,29,1,0,1,,,0,FALSE,0.9509,,,,,,,,,,,,,,,,,,,,,,,,,,,,,,,
,613da2f481d2755038340eee,627c693d394be32478599400,2022-05-11_20h56.27.225,classification_task,2021.2.3,Win32,59.95563283,627c6715c52fd12f31907bcf,,,,,,,,,,,,,,,,,,,,,,,l,1,"[""0.062"",""0.357"",""0.561"",""0.729""]","[1,0,1,1]",0,30,30,30,1,1,1,,,0,FALSE,0.8507,,,,,,,,,,,,,,,,,,,,,,,,,,,,,,,
,613da2f481d2755038340eee,627c693d394be32478599400,2022-05-11_20h56.27.225,classification_task,2021.2.3,Win32,59.95563283,627c6715c52fd12f31907bcf,,,,,,,,,,,,,,,,,,,,,,,a,1,"[""0.229"",""0.409"",""0.906"",""0.372""]","[1,1,1,0]",0,31,31,31,1,0,1,,,0,FALSE,0.868,,,,,,,,,,,,,,,,,,,,,,,,,,,,,,,
,613da2f481d2755038340eee,627c693d394be32478599400,2022-05-11_20h56.27.225,classification_task,2021.2.3,Win32,59.95563283,627c6715c52fd12f31907bcf,,,,,,,,,,,,,,,,,,,,,,,l,1,"[""0.062"",""0.195"",""0.561"",""0.517""]","[1,1,1,0]",0,32,32,32,1,1,1,,,0,FALSE,0.9834,,,,,,,,,,,,,,,,,,,,,,,,,,,,,,,
,613da2f481d2755038340eee,627c693d394be32478599400,2022-05-11_20h56.27.225,classification_task,2021.2.3,Win32,59.95563283,627c6715c52fd12f31907bcf,,,,,,,,,,,,,,,,,,,,,,,l,1,"[""0.130"",""0.306"",""0.692"",""0.800""]","[1,1,0,1]",0,33,33,33,1,1,0,,,0,FALSE,1.5342,,,,,,,,,,,,,,,,,,,,,,,,,,,,,,,
,613da2f481d2755038340eee,627c693d394be32478599400,2022-05-11_20h56.27.225,classification_task,2021.2.3,Win32,59.95563283,627c6715c52fd12f31907bcf,,,,,,,,,,,,,,,,,,,,,,,a,1,"[""0.262"",""0.472"",""0.649"",""0.517""]","[1,1,1,0]",0,34,34,34,1,0,0,,,0,FALSE,2.7179,,,,,,,,,,,,,,,,,,,,,,,,,,,,,,,
,613da2f481d2755038340eee,627c693d394be32478599400,2022-05-11_20h56.27.225,classification_task,2021.2.3,Win32,59.95563283,627c6715c52fd12f31907bcf,,,,,,,,,,,,,,,,,,,,,,,l,1,"[""0.062"",""0.195"",""0.525"",""0.729""]","[1,1,0,1]",0,35,35,35,1,1,1,,,0,FALSE,0.8172,,,,,,,,,,,,,,,,,,,,,,,,,,,,,,,
,613da2f481d2755038340eee,627c693d394be32478599400,2022-05-11_20h56.27.225,classification_task,2021.2.3,Win32,59.95563283,627c6715c52fd12f31907bcf,,,,,,,,,,,,,,,,,,,,,,,a,1,"[""0.229"",""0.409"",""0.357"",""0.965""]","[1,1,0,1]",0,36,36,36,1,0,1,,,0,FALSE,0.9175,,,,,,,,,,,,,,,,,,,,,,,,,,,,,,,
,613da2f481d2755038340eee,627c693d394be32478599400,2022-05-11_20h56.27.225,classification_task,2021.2.3,Win32,59.95563283,627c6715c52fd12f31907bcf,,,,,,,,,,,,,,,,,,,,,,,l,0,"[""0.341"",""0.409"",""0.906"",""0.965""]","[0,1,1,1]",0,37,37,37,1,0,1,,,0,FALSE,2.2846,,,,,,,,,,,,,,,,,,,,,,,,,,,,,,,
,613da2f481d2755038340eee,627c693d394be32478599400,2022-05-11_20h56.27.225,classification_task,2021.2.3,Win32,59.95563283,627c6715c52fd12f31907bcf,,,,,,,,,,,,,,,,,,,,,,,l,1,"[""0.763"",""0.306"",""0.595"",""0.800""]","[0,1,1,1]",0,38,38,38,1,1,0,,,0,FALSE,1.5341,,,,,,,,,,,,,,,,,,,,,,,,,,,,,,,
,613da2f481d2755038340eee,627c693d394be32478599400,2022-05-11_20h56.27.225,classification_task,2021.2.3,Win32,59.95563283,627c6715c52fd12f31907bcf,,,,,,,,,,,,,,,,,,,,,,,l,1,"[""0.130"",""0.357"",""0.595"",""0.800""]","[1,0,1,1]",0,39,39,39,1,1,0,,,0,FALSE,1.2509,,,,,,,,,,,,,,,,,,,,,,,,,,,,,,,
,613da2f481d2755038340eee,627c693d394be32478599400,2022-05-11_20h56.27.225,classification_task,2021.2.3,Win32,59.95563283,627c6715c52fd12f31907bcf,,,,,,,,,,,,,,,,,,,,,,,a,1,"[""0.262"",""0.472"",""0.528"",""0.858""]","[1,1,0,1]",0,40,40,40,1,0,0,,,0,FALSE,1.0679,,,,,,,,,,,,,,,,,,,,,,,,,,,,,,,
,613da2f481d2755038340eee,627c693d394be32478599400,2022-05-11_20h56.27.225,classification_task,2021.2.3,Win32,59.95563283,627c6715c52fd12f31907bcf,,,,,,,,,,,,,,,,,,,,,,,a,1,"[""0.229"",""0.409"",""0.906"",""0.354""]","[1,1,1,0]",0,41,41,41,1,0,1,,,0,FALSE,0.9676,,,,,,,,,,,,,,,,,,,,,,,,,,,,,,,
,613da2f481d2755038340eee,627c693d394be32478599400,2022-05-11_20h56.27.225,classification_task,2021.2.3,Win32,59.95563283,627c6715c52fd12f31907bcf,,,,,,,,,,,,,,,,,,,,,,,a,1,"[""0.262"",""0.763"",""0.649"",""0.858""]","[1,0,1,1]",0,42,42,42,1,0,0,,,0,FALSE,0.9338,,,,,,,,,,,,,,,,,,,,,,,,,,,,,,,
,613da2f481d2755038340eee,627c693d394be32478599400,2022-05-11_20h56.27.225,classification_task,2021.2.3,Win32,59.95563283,627c6715c52fd12f31907bcf,,,,,,,,,,,,,,,,,,,,,,,l,1,"[""0.062"",""0.517"",""0.561"",""0.729""]","[1,0,1,1]",0,43,43,43,1,1,1,,,0,FALSE,0.8339,,,,,,,,,,,,,,,,,,,,,,,,,,,,,,,
,613da2f481d2755038340eee,627c693d394be32478599400,2022-05-11_20h56.27.225,classification_task,2021.2.3,Win32,59.95563283,627c6715c52fd12f31907bcf,,,,,,,,,,,,,,,,,,,,,,,l,1,"[""0.130"",""0.306"",""0.595"",""0.366""]","[1,1,1,0]",0,44,44,44,1,1,0,,,0,FALSE,0.8005,,,,,,,,,,,,,,,,,,,,,,,,,,,,,,,
,613da2f481d2755038340eee,627c693d394be32478599400,2022-05-11_20h56.27.225,classification_task,2021.2.3,Win32,59.95563283,627c6715c52fd12f31907bcf,,,,,,,,,,,,,,,,,,,,,,,a,1,"[""0.354"",""0.472"",""0.649"",""0.858""]","[0,1,1,1]",0,45,45,45,1,0,0,,,0,FALSE,1.3176,,,,,,,,,,,,,,,,,,,,,,,,,,,,,,,
,613da2f481d2755038340eee,627c693d394be32478599400,2022-05-11_20h56.27.225,classification_task,2021.2.3,Win32,59.95563283,627c6715c52fd12f31907bcf,,,,,,,,,,,,,,,,,,,,,,,l,1,"[""0.341"",""0.195"",""0.561"",""0.729""]","[0,1,1,1]",0,46,46,46,1,1,1,,,0,FALSE,1.9511,,,,,,,,,,,,,,,,,,,,,,,,,,,,,,,
,613da2f481d2755038340eee,627c693d394be32478599400,2022-05-11_20h56.27.225,classification_task,2021.2.3,Win32,59.95563283,627c6715c52fd12f31907bcf,,,,,,,,,,,,,,,,,,,,,,,a,1,"[""0.229"",""0.528"",""0.906"",""0.965""]","[1,0,1,1]",0,47,47,47,1,0,1,,,0,FALSE,1.2009,,,,,,,,,,,,,,,,,,,,,,,,,,,,,,,
,613da2f481d2755038340eee,627c693d394be32478599400,2022-05-11_20h56.27.225,classification_task,2021.2.3,Win32,59.95563283,627c6715c52fd12f31907bcf,,,,,,,,,,,,,,,,,,,,,,,l,0,"[""0.519"",""0.409"",""0.906"",""0.965""]","[0,1,1,1]",0,48,48,48,1,0,1,,,0,FALSE,4.2353,,,,,,,,,,,,,,,,,,,,,,,,,,,,,,,
,613da2f481d2755038340eee,627c693d394be32478599400,2022-05-11_20h56.27.225,classification_task,2021.2.3,Win32,59.95563283,627c6715c52fd12f31907bcf,,,,,,,,,,,,,,,,,,,,,,,a,0,"[""0.366"",""0.306"",""0.595"",""0.800""]","[0,1,1,1]",0,49,49,49,1,1,0,,,0,FALSE,1.6681,,,,,,,,,,,,,,,,,,,,,,,,,,,,,,,
,613da2f481d2755038340eee,627c693d394be32478599400,2022-05-11_20h56.27.225,classification_task,2021.2.3,Win32,59.95563283,627c6715c52fd12f31907bcf,,,,,,,,,,,,,,,,,,,,,,,a,1,"[""0.229"",""0.409"",""0.517"",""0.965""]","[1,1,0,1]",0,50,50,50,1,0,1,,,0,FALSE,1.0991,,,,,,,,,,,,,,,,,,,,,,,,,,,,,,,
,613da2f481d2755038340eee,627c693d394be32478599400,2022-05-11_20h56.27.225,classification_task,2021.2.3,Win32,59.95563283,627c6715c52fd12f31907bcf,,,,,,,,,,,,,,,,,,,,,,,a,1,"[""0.262"",""0.472"",""0.649"",""0.342""]","[1,1,1,0]",0,51,51,51,1,0,0,,,0,FALSE,1.1669,,,,,,,,,,,,,,,,,,,,,,,,,,,,,,,
,613da2f481d2755038340eee,627c693d394be32478599400,2022-05-11_20h56.27.225,classification_task,2021.2.3,Win32,59.95563283,627c6715c52fd12f31907bcf,,,,,,,,,,,,,,,,,,,,,,,l,1,"[""0.366"",""0.195"",""0.561"",""0.729""]","[0,1,1,1]",0,52,52,52,1,1,1,,,0,FALSE,1.2009,,,,,,,,,,,,,,,,,,,,,,,,,,,,,,,
,613da2f481d2755038340eee,627c693d394be32478599400,2022-05-11_20h56.27.225,classification_task,2021.2.3,Win32,59.95563283,627c6715c52fd12f31907bcf,,,,,,,,,,,,,,,,,,,,,,,l,1,"[""0.130"",""0.306"",""0.595"",""0.366""]","[1,1,1,0]",0,53,53,53,1,1,0,,,0,FALSE,0.9174,,,,,,,,,,,,,,,,,,,,,,,,,,,,,,,
,613da2f481d2755038340eee,627c693d394be32478599400,2022-05-11_20h56.27.225,classification_task,2021.2.3,Win32,59.95563283,627c6715c52fd12f31907bcf,,,,,,,,,,,,,,,,,,,,,,,l,1,"[""0.130"",""0.306"",""0.764"",""0.800""]","[1,1,0,1]",0,54,54,54,1,1,0,,,0,FALSE,1.3343,,,,,,,,,,,,,,,,,,,,,,,,,,,,,,,
,613da2f481d2755038340eee,627c693d394be32478599400,2022-05-11_20h56.27.225,classification_task,2021.2.3,Win32,59.95563283,627c6715c52fd12f31907bcf,,,,,,,,,,,,,,,,,,,,,,,a,1,"[""0.262"",""0.528"",""0.649"",""0.858""]","[1,0,1,1]",0,55,55,55,1,0,0,,,0,FALSE,1.8014,,,,,,,,,,,,,,,,,,,,,,,,,,,,,,,
,613da2f481d2755038340eee,627c693d394be32478599400,2022-05-11_20h56.27.225,classification_task,2021.2.3,Win32,59.95563283,627c6715c52fd12f31907bcf,,,,,,,,,,,,,,,,,,,,,,,a,1,"[""0.229"",""0.409"",""0.906"",""0.366""]","[1,1,1,0]",0,56,56,56,1,0,1,,,0,FALSE,0.7507,,,,,,,,,,,,,,,,,,,,,,,,,,,,,,,
,613da2f481d2755038340eee,627c693d394be32478599400,2022-05-11_20h56.27.225,classification_task,2021.2.3,Win32,59.95563283,627c6715c52fd12f31907bcf,,,,,,,,,,,,,,,,,,,,,,,l,1,"[""0.062"",""0.195"",""0.561"",""0.366""]","[1,1,1,0]",0,57,57,57,1,1,1,,,0,FALSE,0.6172,,,,,,,,,,,,,,,,,,,,,,,,,,,,,,,
,613da2f481d2755038340eee,627c693d394be32478599400,2022-05-11_20h56.27.225,classification_task,2021.2.3,Win32,59.95563283,627c6715c52fd12f31907bcf,,,,,,,,,,,,,,,,,,,,,,,a,1,"[""0.262"",""0.472"",""0.357"",""0.858""]","[1,1,0,1]",0,58,58,58,1,0,0,,,0,FALSE,1.9846,,,,,,,,,,,,,,,,,,,,,,,,,,,,,,,
,613da2f481d2755038340eee,627c693d394be32478599400,2022-05-11_20h56.27.225,classification_task,2021.2.3,Win32,59.95563283,627c6715c52fd12f31907bcf,,,,,,,,,,,,,,,,,,,,,,,a,1,"[""0.229"",""0.372"",""0.906"",""0.965""]","[1,0,1,1]",0,59,59,59,1,0,1,,,0,FALSE,0.7339,,,,,,,,,,,,,,,,,,,,,,,,,,,,,,,
,613da2f481d2755038340eee,627c693d394be32478599400,2022-05-11_20h56.27.225,classification_task,2021.2.3,Win32,59.95563283,627c6715c52fd12f31907bcf,,,,,,,,,,,,,,,,,,,,,,,l,1,"[""0.130"",""0.357"",""0.595"",""0.800""]","[1,0,1,1]",0,60,60,60,1,1,0,,,0,FALSE,2.4846,,,,,,,,,,,,,,,,,,,,,,,,,,,,,,,
,613da2f481d2755038340eee,627c693d394be32478599400,2022-05-11_20h56.27.225,classification_task,2021.2.3,Win32,59.95563283,627c6715c52fd12f31907bcf,,,,,,,,,,,,,,,,,,,,,,,l,1,"[""0.062"",""0.195"",""0.692"",""0.729""]","[1,1,0,1]",0,61,61,61,1,1,1,,,0,FALSE,1.3507,,,,,,,,,,,,,,,,,,,,,,,,,,,,,,,
,613da2f481d2755038340eee,627c693d394be32478599400,2022-05-11_20h56.27.225,classification_task,2021.2.3,Win32,59.95563283,627c6715c52fd12f31907bcf,,,,,,,,,,,,,,,,,,,,,,,l,1,"[""0.062"",""0.528"",""0.561"",""0.729""]","[1,0,1,1]",0,62,62,62,1,1,1,,,0,FALSE,0.9677,,,,,,,,,,,,,,,,,,,,,,,,,,,,,,,
,613da2f481d2755038340eee,627c693d394be32478599400,2022-05-11_20h56.27.225,classification_task,2021.2.3,Win32,59.95563283,627c6715c52fd12f31907bcf,,,,,,,,,,,,,,,,,,,,,,,l,0,"[""0.354"",""0.472"",""0.649"",""0.858""]","[0,1,1,1]",0,63,63,63,1,0,0,,,0,FALSE,2.3346,,,,,,,,,,,,,,,,,,,,,,,,,,,,,,,
,613da2f481d2755038340eee,627c693d394be32478599400,2022-05-11_20h56.27.225,classification_task,2021.2.3,Win32,59.95563283,627c6715c52fd12f31907bcf,,,,,,,,,,,,,,,,,,,,,,,,,,,,,,,,,,,,,,,0, ,,0,6.38154027,176.1266,0,2,2,2,1,2,3,,,,,,,,,,,,,,,,,,
,613da2f481d2755038340eee,627c693d394be32478599400,2022-05-11_20h56.27.225,classification_task,2021.2.3,Win32,59.95563283,627c6715c52fd12f31907bcf,,,,,,,,,,,,,,,,,,,,,,,,,,,,,,,,,,,,,,,1,  ,,0,6.116990006,178.7259,0,2,2,2,1,2,3,,,,,,,,,,,,,,,,,,
,613da2f481d2755038340eee,627c693d394be32478599400,2022-05-11_20h56.27.225,classification_task,2021.2.3,Win32,59.95563283,627c6715c52fd12f31907bcf,,,,,,,,,,,,,,,,,,,,,,,,,,,,,,,,,,,,,,,2,  ,,0,6.76366843,181.5969,0,2,2,2,1,2,3,,,,,,,,,,,,,,,,,,
,613da2f481d2755038340eee,627c693d394be32478599400,2022-05-11_20h56.27.225,classification_task,2021.2.3,Win32,59.95563283,627c6715c52fd12f31907bcf,,,,,,,,,,,,,,,,,,,,,,,,,,,,,,,,,,,,,,,,,,,,,0,2,2,2,1,,3,,,,,,,,,,,,,,,,,,
,613da2f481d2755038340eee,627c693d394be32478599400,2022-05-11_20h56.27.225,classification_task,2021.2.3,Win32,59.95563283,627c6715c52fd12f31907bcf,,,,,,,,,,,,,,,,,,,,,,,,,,,,,,,,,,,,,,,,,,,,,,,,,,,,,I believe the aid is a competent performer,,0.7,0,4,1000.1546,0,0,0,0,1,0,,,,,
,613da2f481d2755038340eee,627c693d394be32478599400,2022-05-11_20h56.27.225,classification_task,2021.2.3,Win32,59.95563283,627c6715c52fd12f31907bcf,,,,,,,,,,,,,,,,,,,,,,,,,,,,,,,,,,,,,,,,,,,,,,,,,,,,,I trust the aid,,0.7,0,4,1002.6966,0,0,0,0,1,0,,,,,
,613da2f481d2755038340eee,627c693d394be32478599400,2022-05-11_20h56.27.225,classification_task,2021.2.3,Win32,59.95563283,627c6715c52fd12f31907bcf,,,,,,,,,,,,,,,,,,,,,,,,,,,,,,,,,,,,,,,,,,,,,,,,,,,,,I have confidence in the advice given by the aid,,0.7,0,5,1005.1364,0,0,0,0,1,0,,,,,
,613da2f481d2755038340eee,627c693d394be32478599400,2022-05-11_20h56.27.225,classification_task,2021.2.3,Win32,59.95563283,627c6715c52fd12f31907bcf,,,,,,,,,,,,,,,,,,,,,,,,,,,,,,,,,,,,,,,,,,,,,,,,,,,,,I can depend on the aid,,0.7,0,3,1007.6529,0,0,0,0,1,0,,,,,
,613da2f481d2755038340eee,627c693d394be32478599400,2022-05-11_20h56.27.225,classification_task,2021.2.3,Win32,59.95563283,627c6715c52fd12f31907bcf,,,,,,,,,,,,,,,,,,,,,,,,,,,,,,,,,,,,,,,,,,,,,,,,,,,,,I can rely on the aid to behave in consistent ways,,0.7,0,4,1010.5861,0,0,0,0,1,0,,,,,
,613da2f481d2755038340eee,627c693d394be32478599400,2022-05-11_20h56.27.225,classification_task,2021.2.3,Win32,59.95563283,627c6715c52fd12f31907bcf,,,,,,,,,,,,,,,,,,,,,,,,,,,,,,,,,,,,,,,,,,,,,,,,,,,,,I can rely on the aid to do its best every time I take its advice,,0.7,0,4,1015.3288,0,0,0,0,1,0,,,,,
,613da2f481d2755038340eee,627c693d394be32478599400,2022-05-11_20h56.27.225,classification_task,2021.2.3,Win32,59.95563283,627c6715c52fd12f31907bcf,,,,,,,,,,,,,,,,,,,,,,,,,,,,,,,,,,,,,,,,,,,,,,,,,,,,,"On trials you completed with assistance from the aid, how frequently did you think the aid was correct?",,0.7,0,95%,,0,0,0,0,1,0,,,,,
,613da2f481d2755038340eee,627c693d394be32478599400,2022-05-11_20h56.27.225,classification_task,2021.2.3,Win32,59.95563283,627c6715c52fd12f31907bcf,,,,,,,,,,,,,,,,,,,,,,,,,,,,,,,,,,,,,,,,,,,,,,,,,,,,,"On trials you completed without the aid, how frequently did you think you were correct?",,0.7,0,80%,,0,0,0,0,1,0,,,,,
,613da2f481d2755038340eee,627c693d394be32478599400,2022-05-11_20h56.27.225,classification_task,2021.2.3,Win32,59.95563283,627c6715c52fd12f31907bcf,,,,,,,,,,,,,,,,,,,,,,,,,,,,,,,,,,,,,,,,,,,,,,,,,,,,,,,,,,,0,0,0,0,1,,,,,,
,613da2f481d2755038340eee,627c693d394be32478599400,2022-05-11_20h56.27.225,classification_task,2021.2.3,Win32,59.95563283,627c6715c52fd12f31907bcf,,,,,,,,,,,,,,,,,,,,,,,,,,,,,,,,,,,,,,,,,,,,,,,,,,,,,,,,,,,,,,,,,f,15.6734,1047.8926,,
,613da2f481d2755038340eee,627c693d394be32478599400,2022-05-11_20h56.27.225,classification_task,2021.2.3,Win32,59.95563283,627c6715c52fd12f31907bcf,,,,,,,,,,,,,,,,,,,,,,,,,,,,,,,,,,,,,,,,,,,,,,,,,,,,,,,,,,,,,,,,,,,,"Mozilla/5.0 (Windows NT 10.0; Win64; x64) AppleWebKit/537.36 (KHTML, like Gecko) Chrome/101.0.4951.54 Safari/537.36 Edg/101.0.1210.39",
,613da2f481d2755038340eee,627c693d394be32478599400,2022-05-11_20h56.27.225,classification_task,2021.2.3,Win32,59.95563283,627c6715c52fd12f31907bcf,,,,,,,,,,,,,,,,,,,,,,,,,,,,,,,,,,,,,,,,,,,,,,,,,,,,,,,,,,,,,,,,,,,,,HIGHLIGHT
