usingWebGL,participant,session,date,expName,psychopyVersion,OS,frameRate,study_id,signatures_friend,signatures_foe,band_ranges_top,band_ranges_bottom,formitemText,formtype,formundefined,formitemWidth,formindex,formresponse,formrt,key_resp_2.keys,key_resp_2.rt,tute_resp.keys,tute_resp.rt,tutorial.thisRepN,tutorial.thisTrialN,tutorial.thisN,tutorial.thisIndex,tutorial.ran,key_resp_4.keys,key_resp_4.rt,key_resp.keys,key_resp.corr,key_resp.rt,lines_presented,is_signal_presented,trials.thisRepN,trials.thisTrialN,trials.thisN,trials.thisIndex,trials.ran,vessel,active_band,lines,is_signal,supported_pos,catch_trial,debrief_formindex,debrief_formitemText,debrief_formtype,debrief_formitemWidth,debrief_formresponse,debrief_formrt,phases.thisRepN,phases.thisTrialN,phases.thisN,phases.thisIndex,phases.ran,phases.order,phase,key_resp_3.keys,trustitemText,trusttype,trustitemWidth,trustindex,trustresponse,trustrt,support_status.thisRepN,support_status.thisTrialN,support_status.thisN,support_status.thisIndex,support_status.ran,support_status.order,key_resp_5.keys,key_resp_5.rt,globalClockTime,userAgent,manualCondition
TRUE,613d25aae4f98b5e481fca50,627c76d165bc5538045da41d,2022-05-11_19h54.26.569,classification_task,2021.2.3,Win32,60.10699044,627c6715c52fd12f31907bd0,,,,,,,,,,,,,,,,,,,,,,,,,,,,,,,,,,,,,,,,,,,,,,,,,,,,,,,,,,,,,,,,,,,,,
,613d25aae4f98b5e481fca50,627c76d165bc5538045da41d,2022-05-11_19h54.26.569,classification_task,2021.2.3,Win32,60.10699044,627c6715c52fd12f31907bd0,"[[""0.195"",""0.417"",""0.890"",""0.940""],[""0.236"",""0.365"",""0.590"",""0.974""]]","[[""0.094"",""0.142"",""0.628"",""0.826""],[""0.056"",""0.288"",""0.538"",""0.764""]]","[1,10]","[100,1000]",Video game experience,,,0.7,0,,,,,,,,,,,,,,,,,,,,,,,,,,,,,,,,,,,,,,,,,,,,,,,,,,,,,,,,,,,,
,613d25aae4f98b5e481fca50,627c76d165bc5538045da41d,2022-05-11_19h54.26.569,classification_task,2021.2.3,Win32,60.10699044,627c6715c52fd12f31907bd0,,,,,Approximately how many hours did you spend playing video games in the last week?,,,0.7,0,0,,,,,,,,,,,,,,,,,,,,,,,,,,,,,,,,,,,,,,,,,,,,,,,,,,,,,,,,,,,
,613d25aae4f98b5e481fca50,627c76d165bc5538045da41d,2022-05-11_19h54.26.569,classification_task,2021.2.3,Win32,60.10699044,627c6715c52fd12f31907bd0,,,,,"Which game did you play the most this year? (Enter ""None"" if you didn't play any)",,,0.7,0,none,,,,,,,,,,,,,,,,,,,,,,,,,,,,,,,,,,,,,,,,,,,,,,,,,,,,,,,,,,,
,613d25aae4f98b5e481fca50,627c76d165bc5538045da41d,2022-05-11_19h54.26.569,classification_task,2021.2.3,Win32,60.10699044,627c6715c52fd12f31907bd0,,,,,Visual perception,,,0.7,0,,,,,,,,,,,,,,,,,,,,,,,,,,,,,,,,,,,,,,,,,,,,,,,,,,,,,,,,,,,,
,613d25aae4f98b5e481fca50,627c76d165bc5538045da41d,2022-05-11_19h54.26.569,classification_task,2021.2.3,Win32,60.10699044,627c6715c52fd12f31907bd0,,,,,Do you have any form of color blindness?,,,0.7,0,No,18.1468,,,,,,,,,,,,,,,,,,,,,,,,,,,,,,,,,,,,,,,,,,,,,,,,,,,,,,,,,,
,613d25aae4f98b5e481fca50,627c76d165bc5538045da41d,2022-05-11_19h54.26.569,classification_task,2021.2.3,Win32,60.10699044,627c6715c52fd12f31907bd0,,,,,Do you use software to change the colour temperature of your screen (e.g. f.lux)?,,,0.7,0,Yes,28.1941,,,,,,,,,,,,,,,,,,,,,,,,,,,,,,,,,,,,,,,,,,,,,,,,,,,,,,,,,,
,613d25aae4f98b5e481fca50,627c76d165bc5538045da41d,2022-05-11_19h54.26.569,classification_task,2021.2.3,Win32,60.10699044,627c6715c52fd12f31907bd0,,,,,,,,,,,,space,26.2217,space,6.56,0,0,0,0,1,,,,,,,,,,,,,,,,,,,,,,,,,,,,,,,,,,,,,,,,,,,,,,,,,
,613d25aae4f98b5e481fca50,627c76d165bc5538045da41d,2022-05-11_19h54.26.569,classification_task,2021.2.3,Win32,60.10699044,627c6715c52fd12f31907bd0,,,,,,,,,,,,,,space,7.3603,1,0,1,0,1,,,,,,,,,,,,,,,,,,,,,,,,,,,,,,,,,,,,,,,,,,,,,,,,,
,613d25aae4f98b5e481fca50,627c76d165bc5538045da41d,2022-05-11_19h54.26.569,classification_task,2021.2.3,Win32,60.10699044,627c6715c52fd12f31907bd0,,,,,,,,,,,,,,space,10.4631,2,0,2,0,1,,,,,,,,,,,,,,,,,,,,,,,,,,,,,,,,,,,,,,,,,,,,,,,,,
,613d25aae4f98b5e481fca50,627c76d165bc5538045da41d,2022-05-11_19h54.26.569,classification_task,2021.2.3,Win32,60.10699044,627c6715c52fd12f31907bd0,,,,,,,,,,,,,,space,9.2791,3,0,3,0,1,,,,,,,,,,,,,,,,,,,,,,,,,,,,,,,,,,,,,,,,,,,,,,,,,
,613d25aae4f98b5e481fca50,627c76d165bc5538045da41d,2022-05-11_19h54.26.569,classification_task,2021.2.3,Win32,60.10699044,627c6715c52fd12f31907bd0,,,,,,,,,,,,,,space,12.4594,4,0,4,0,1,,,,,,,,,,,,,,,,,,,,,,,,,,,,,,,,,,,,,,,,,,,,,,,,,
,613d25aae4f98b5e481fca50,627c76d165bc5538045da41d,2022-05-11_19h54.26.569,classification_task,2021.2.3,Win32,60.10699044,627c6715c52fd12f31907bd0,,,,,,,,,,,,,,,,,,,,,space,9.81,l,1,3.7223,"[""0.094"",""0.142"",""0.721"",""0.826""]","[1,1,0,1]",0,0,0,0,1,1,0,,,0,FALSE,,,,,,,,,,,,,,,,,,,,,,,,,,,,,,,
,613d25aae4f98b5e481fca50,627c76d165bc5538045da41d,2022-05-11_19h54.26.569,classification_task,2021.2.3,Win32,60.10699044,627c6715c52fd12f31907bd0,,,,,,,,,,,,,,,,,,,,,,,l,0,2.2138,"[""0.663"",""0.417"",""0.890"",""0.940""]","[0,1,1,1]",0,1,1,1,1,0,0,,,0,FALSE,,,,,,,,,,,,,,,,,,,,,,,,,,,,,,,
,613d25aae4f98b5e481fca50,627c76d165bc5538045da41d,2022-05-11_19h54.26.569,classification_task,2021.2.3,Win32,60.10699044,627c6715c52fd12f31907bd0,,,,,,,,,,,,,,,,,,,,,,,l,0,2.1377,"[""0.727"",""0.365"",""0.590"",""0.974""]","[0,1,1,1]",0,2,2,2,1,0,1,,,0,FALSE,,,,,,,,,,,,,,,,,,,,,,,,,,,,,,,
,613d25aae4f98b5e481fca50,627c76d165bc5538045da41d,2022-05-11_19h54.26.569,classification_task,2021.2.3,Win32,60.10699044,627c6715c52fd12f31907bd0,,,,,,,,,,,,,,,,,,,,,,,a,1,1.4768,"[""0.236"",""0.500"",""0.590"",""0.974""]","[1,0,1,1]",0,3,3,3,1,0,1,,,0,FALSE,,,,,,,,,,,,,,,,,,,,,,,,,,,,,,,
,613d25aae4f98b5e481fca50,627c76d165bc5538045da41d,2022-05-11_19h54.26.569,classification_task,2021.2.3,Win32,60.10699044,627c6715c52fd12f31907bd0,,,,,,,,,,,,,,,,,,,,,,,l,1,1.2451,"[""0.056"",""0.288"",""0.538"",""0.663""]","[1,1,1,0]",0,4,4,4,1,1,1,,,0,FALSE,,,,,,,,,,,,,,,,,,,,,,,,,,,,,,,
,613d25aae4f98b5e481fca50,627c76d165bc5538045da41d,2022-05-11_19h54.26.569,classification_task,2021.2.3,Win32,60.10699044,627c6715c52fd12f31907bd0,,,,,,,,,,,,,,,,,,,,,,,a,0,4.3129,"[""0.056"",""0.288"",""0.721"",""0.764""]","[1,1,0,1]",0,5,5,5,1,1,1,,,0,FALSE,,,,,,,,,,,,,,,,,,,,,,,,,,,,,,,
,613d25aae4f98b5e481fca50,627c76d165bc5538045da41d,2022-05-11_19h54.26.569,classification_task,2021.2.3,Win32,60.10699044,627c6715c52fd12f31907bd0,,,,,,,,,,,,,,,,,,,,,,,l,0,1.5453,"[""0.236"",""0.365"",""0.590"",""0.721""]","[1,1,1,0]",0,6,6,6,1,0,1,,,0,FALSE,,,,,,,,,,,,,,,,,,,,,,,,,,,,,,,
,613d25aae4f98b5e481fca50,627c76d165bc5538045da41d,2022-05-11_19h54.26.569,classification_task,2021.2.3,Win32,60.10699044,627c6715c52fd12f31907bd0,,,,,,,,,,,,,,,,,,,,,,,a,0,0.449,"[""0.056"",""0.676"",""0.538"",""0.764""]","[1,0,1,1]",0,7,7,7,1,1,1,,,0,FALSE,,,,,,,,,,,,,,,,,,,,,,,,,,,,,,,
,613d25aae4f98b5e481fca50,627c76d165bc5538045da41d,2022-05-11_19h54.26.569,classification_task,2021.2.3,Win32,60.10699044,627c6715c52fd12f31907bd0,,,,,,,,,,,,,,,,,,,,,,,l,0,0.8253,"[""0.195"",""0.417"",""0.675"",""0.940""]","[1,1,0,1]",0,8,8,8,1,0,0,,,0,FALSE,,,,,,,,,,,,,,,,,,,,,,,,,,,,,,,
,613d25aae4f98b5e481fca50,627c76d165bc5538045da41d,2022-05-11_19h54.26.569,classification_task,2021.2.3,Win32,60.10699044,627c6715c52fd12f31907bd0,,,,,,,,,,,,,,,,,,,,,,,l,1,1.0655,"[""0.094"",""0.663"",""0.628"",""0.826""]","[1,0,1,1]",0,9,9,9,1,1,0,,,0,FALSE,,,,,,,,,,,,,,,,,,,,,,,,,,,,,,,
,613d25aae4f98b5e481fca50,627c76d165bc5538045da41d,2022-05-11_19h54.26.569,classification_task,2021.2.3,Win32,60.10699044,627c6715c52fd12f31907bd0,,,,,,,,,,,,,,,,,,,,,,,a,0,0.9818,"[""0.094"",""0.142"",""0.628"",""0.662""]","[1,1,1,0]",0,10,10,10,1,1,0,,,0,FALSE,,,,,,,,,,,,,,,,,,,,,,,,,,,,,,,
,613d25aae4f98b5e481fca50,627c76d165bc5538045da41d,2022-05-11_19h54.26.569,classification_task,2021.2.3,Win32,60.10699044,627c6715c52fd12f31907bd0,,,,,,,,,,,,,,,,,,,,,,,l,0,6.4986,"[""0.195"",""0.675"",""0.890"",""0.940""]","[1,0,1,1]",0,11,11,11,1,0,0,,,0,FALSE,,,,,,,,,,,,,,,,,,,,,,,,,,,,,,,
,613d25aae4f98b5e481fca50,627c76d165bc5538045da41d,2022-05-11_19h54.26.569,classification_task,2021.2.3,Win32,60.10699044,627c6715c52fd12f31907bd0,,,,,,,,,,,,,,,,,,,,,,,a,1,2.2766,"[""0.195"",""0.417"",""0.890"",""0.662""]","[1,1,1,0]",0,12,12,12,1,0,0,,,0,FALSE,,,,,,,,,,,,,,,,,,,,,,,,,,,,,,,
,613d25aae4f98b5e481fca50,627c76d165bc5538045da41d,2022-05-11_19h54.26.569,classification_task,2021.2.3,Win32,60.10699044,627c6715c52fd12f31907bd0,,,,,,,,,,,,,,,,,,,,,,,a,0,9.2883,"[""0.703"",""0.288"",""0.538"",""0.764""]","[0,1,1,1]",0,13,13,13,1,1,1,,,0,FALSE,,,,,,,,,,,,,,,,,,,,,,,,,,,,,,,
,613d25aae4f98b5e481fca50,627c76d165bc5538045da41d,2022-05-11_19h54.26.569,classification_task,2021.2.3,Win32,60.10699044,627c6715c52fd12f31907bd0,,,,,,,,,,,,,,,,,,,,,,,l,1,0.7387,"[""0.467"",""0.142"",""0.628"",""0.826""]","[0,1,1,1]",0,14,14,14,1,1,0,,,0,FALSE,,,,,,,,,,,,,,,,,,,,,,,,,,,,,,,
,613d25aae4f98b5e481fca50,627c76d165bc5538045da41d,2022-05-11_19h54.26.569,classification_task,2021.2.3,Win32,60.10699044,627c6715c52fd12f31907bd0,,,,,,,,,,,,,,,,,,,,,,,l,0,0.6243,"[""0.236"",""0.365"",""0.703"",""0.974""]","[1,1,0,1]",0,15,15,15,1,0,1,,,0,FALSE,,,,,,,,,,,,,,,,,,,,,,,,,,,,,,,
,613d25aae4f98b5e481fca50,627c76d165bc5538045da41d,2022-05-11_19h54.26.569,classification_task,2021.2.3,Win32,60.10699044,627c6715c52fd12f31907bd0,,,,,,,,,,,,,,,,,,,,,,,a,0,0.3421,"[""0.094"",""0.142"",""0.628"",""0.675""]","[1,1,1,0]",0,16,16,16,1,1,0,,,0,FALSE,,,,,,,,,,,,,,,,,,,,,,,,,,,,,,,
,613d25aae4f98b5e481fca50,627c76d165bc5538045da41d,2022-05-11_19h54.26.569,classification_task,2021.2.3,Win32,60.10699044,627c6715c52fd12f31907bd0,,,,,,,,,,,,,,,,,,,,,,,l,1,0.8758,"[""0.056"",""0.467"",""0.538"",""0.764""]","[1,0,1,1]",0,17,17,17,1,1,1,,,0,FALSE,,,,,,,,,,,,,,,,,,,,,,,,,,,,,,,
,613d25aae4f98b5e481fca50,627c76d165bc5538045da41d,2022-05-11_19h54.26.569,classification_task,2021.2.3,Win32,60.10699044,627c6715c52fd12f31907bd0,,,,,,,,,,,,,,,,,,,,,,,l,1,4.2478,"[""0.056"",""0.288"",""0.676"",""0.764""]","[1,1,0,1]",0,18,18,18,1,1,1,,,0,FALSE,,,,,,,,,,,,,,,,,,,,,,,,,,,,,,,
,613d25aae4f98b5e481fca50,627c76d165bc5538045da41d,2022-05-11_19h54.26.569,classification_task,2021.2.3,Win32,60.10699044,627c6715c52fd12f31907bd0,,,,,,,,,,,,,,,,,,,,,,,a,0,4.5559,"[""0.467"",""0.142"",""0.628"",""0.826""]","[0,1,1,1]",0,19,19,19,1,1,0,,,0,FALSE,,,,,,,,,,,,,,,,,,,,,,,,,,,,,,,
,613d25aae4f98b5e481fca50,627c76d165bc5538045da41d,2022-05-11_19h54.26.569,classification_task,2021.2.3,Win32,60.10699044,627c6715c52fd12f31907bd0,,,,,,,,,,,,,,,,,,,,,,,a,0,3.122,"[""0.710"",""0.288"",""0.538"",""0.764""]","[0,1,1,1]",0,20,20,20,1,1,1,,,0,FALSE,,,,,,,,,,,,,,,,,,,,,,,,,,,,,,,
,613d25aae4f98b5e481fca50,627c76d165bc5538045da41d,2022-05-11_19h54.26.569,classification_task,2021.2.3,Win32,60.10699044,627c6715c52fd12f31907bd0,,,,,,,,,,,,,,,,,,,,,,,l,0,0.4798,"[""0.195"",""0.727"",""0.890"",""0.940""]","[1,0,1,1]",0,21,21,21,1,0,0,,,0,FALSE,,,,,,,,,,,,,,,,,,,,,,,,,,,,,,,
,613d25aae4f98b5e481fca50,627c76d165bc5538045da41d,2022-05-11_19h54.26.569,classification_task,2021.2.3,Win32,60.10699044,627c6715c52fd12f31907bd0,,,,,,,,,,,,,,,,,,,,,,,a,1,0.4321,"[""0.195"",""0.417"",""0.662"",""0.940""]","[1,1,0,1]",0,22,22,22,1,0,0,,,0,FALSE,,,,,,,,,,,,,,,,,,,,,,,,,,,,,,,
,613d25aae4f98b5e481fca50,627c76d165bc5538045da41d,2022-05-11_19h54.26.569,classification_task,2021.2.3,Win32,60.10699044,627c6715c52fd12f31907bd0,,,,,,,,,,,,,,,,,,,,,,,l,0,0.7088,"[""0.236"",""0.467"",""0.590"",""0.974""]","[1,0,1,1]",0,23,23,23,1,0,1,,,0,FALSE,,,,,,,,,,,,,,,,,,,,,,,,,,,,,,,
,613d25aae4f98b5e481fca50,627c76d165bc5538045da41d,2022-05-11_19h54.26.569,classification_task,2021.2.3,Win32,60.10699044,627c6715c52fd12f31907bd0,,,,,,,,,,,,,,,,,,,,,,,a,1,0.2998,"[""0.727"",""0.365"",""0.590"",""0.974""]","[0,1,1,1]",0,24,24,24,1,0,1,,,0,FALSE,,,,,,,,,,,,,,,,,,,,,,,,,,,,,,,
,613d25aae4f98b5e481fca50,627c76d165bc5538045da41d,2022-05-11_19h54.26.569,classification_task,2021.2.3,Win32,60.10699044,627c6715c52fd12f31907bd0,,,,,,,,,,,,,,,,,,,,,,,l,1,3.7429,"[""0.094"",""0.727"",""0.628"",""0.826""]","[1,0,1,1]",0,25,25,25,1,1,0,,,0,FALSE,,,,,,,,,,,,,,,,,,,,,,,,,,,,,,,
,613d25aae4f98b5e481fca50,627c76d165bc5538045da41d,2022-05-11_19h54.26.569,classification_task,2021.2.3,Win32,60.10699044,627c6715c52fd12f31907bd0,,,,,,,,,,,,,,,,,,,,,,,a,1,8.8765,"[""0.195"",""0.417"",""0.890"",""0.703""]","[1,1,1,0]",0,26,26,26,1,0,0,,,0,FALSE,,,,,,,,,,,,,,,,,,,,,,,,,,,,,,,
,613d25aae4f98b5e481fca50,627c76d165bc5538045da41d,2022-05-11_19h54.26.569,classification_task,2021.2.3,Win32,60.10699044,627c6715c52fd12f31907bd0,,,,,,,,,,,,,,,,,,,,,,,a,1,8.8074,"[""0.502"",""0.417"",""0.890"",""0.940""]","[0,1,1,1]",0,27,27,27,1,0,0,,,0,FALSE,,,,,,,,,,,,,,,,,,,,,,,,,,,,,,,
,613d25aae4f98b5e481fca50,627c76d165bc5538045da41d,2022-05-11_19h54.26.569,classification_task,2021.2.3,Win32,60.10699044,627c6715c52fd12f31907bd0,,,,,,,,,,,,,,,,,,,,,,,l,1,6.0433,"[""0.094"",""0.142"",""0.727"",""0.826""]","[1,1,0,1]",0,28,28,28,1,1,0,,,0,FALSE,,,,,,,,,,,,,,,,,,,,,,,,,,,,,,,
,613d25aae4f98b5e481fca50,627c76d165bc5538045da41d,2022-05-11_19h54.26.569,classification_task,2021.2.3,Win32,60.10699044,627c6715c52fd12f31907bd0,,,,,,,,,,,,,,,,,,,,,,,a,1,8.8023,"[""0.236"",""0.365"",""0.590"",""0.727""]","[1,1,1,0]",0,29,29,29,1,0,1,,,0,FALSE,,,,,,,,,,,,,,,,,,,,,,,,,,,,,,,
,613d25aae4f98b5e481fca50,627c76d165bc5538045da41d,2022-05-11_19h54.26.569,classification_task,2021.2.3,Win32,60.10699044,627c6715c52fd12f31907bd0,,,,,,,,,,,,,,,,,,,,,,,l,1,2.7285,"[""0.056"",""0.288"",""0.538"",""0.500""]","[1,1,1,0]",0,30,30,30,1,1,1,,,0,FALSE,,,,,,,,,,,,,,,,,,,,,,,,,,,,,,,
,613d25aae4f98b5e481fca50,627c76d165bc5538045da41d,2022-05-11_19h54.26.569,classification_task,2021.2.3,Win32,60.10699044,627c6715c52fd12f31907bd0,,,,,,,,,,,,,,,,,,,,,,,a,1,4.6647,"[""0.236"",""0.365"",""0.663"",""0.974""]","[1,1,0,1]",0,31,31,31,1,0,1,,,0,FALSE,,,,,,,,,,,,,,,,,,,,,,,,,,,,,,,
,613d25aae4f98b5e481fca50,627c76d165bc5538045da41d,2022-05-11_19h54.26.569,classification_task,2021.2.3,Win32,60.10699044,627c6715c52fd12f31907bd0,,,,,,,,,,,,,,,,,,,,,,,a,0,6.2534,"[""0.710"",""0.288"",""0.538"",""0.764""]","[0,1,1,1]",0,32,32,32,1,1,1,,,0,FALSE,,,,,,,,,,,,,,,,,,,,,,,,,,,,,,,
,613d25aae4f98b5e481fca50,627c76d165bc5538045da41d,2022-05-11_19h54.26.569,classification_task,2021.2.3,Win32,60.10699044,627c6715c52fd12f31907bd0,,,,,,,,,,,,,,,,,,,,,,,l,1,2.4746,"[""0.056"",""0.288"",""0.727"",""0.764""]","[1,1,0,1]",0,33,33,33,1,1,1,,,0,FALSE,,,,,,,,,,,,,,,,,,,,,,,,,,,,,,,
,613d25aae4f98b5e481fca50,627c76d165bc5538045da41d,2022-05-11_19h54.26.569,classification_task,2021.2.3,Win32,60.10699044,627c6715c52fd12f31907bd0,,,,,,,,,,,,,,,,,,,,,,,l,1,1.7842,"[""0.094"",""0.481"",""0.628"",""0.826""]","[1,0,1,1]",0,34,34,34,1,1,0,,,0,FALSE,,,,,,,,,,,,,,,,,,,,,,,,,,,,,,,
,613d25aae4f98b5e481fca50,627c76d165bc5538045da41d,2022-05-11_19h54.26.569,classification_task,2021.2.3,Win32,60.10699044,627c6715c52fd12f31907bd0,,,,,,,,,,,,,,,,,,,,,,,a,1,1.0777,"[""0.236"",""0.365"",""0.590"",""0.325""]","[1,1,1,0]",0,35,35,35,1,0,1,,,0,FALSE,,,,,,,,,,,,,,,,,,,,,,,,,,,,,,,
,613d25aae4f98b5e481fca50,627c76d165bc5538045da41d,2022-05-11_19h54.26.569,classification_task,2021.2.3,Win32,60.10699044,627c6715c52fd12f31907bd0,,,,,,,,,,,,,,,,,,,,,,,l,0,2.6642,"[""0.195"",""0.417"",""0.676"",""0.940""]","[1,1,0,1]",0,36,36,36,1,0,0,,,0,FALSE,,,,,,,,,,,,,,,,,,,,,,,,,,,,,,,
,613d25aae4f98b5e481fca50,627c76d165bc5538045da41d,2022-05-11_19h54.26.569,classification_task,2021.2.3,Win32,60.10699044,627c6715c52fd12f31907bd0,,,,,,,,,,,,,,,,,,,,,,,a,1,0.5284,"[""0.195"",""0.675"",""0.890"",""0.940""]","[1,0,1,1]",0,37,37,37,1,0,0,,,0,FALSE,,,,,,,,,,,,,,,,,,,,,,,,,,,,,,,
,613d25aae4f98b5e481fca50,627c76d165bc5538045da41d,2022-05-11_19h54.26.569,classification_task,2021.2.3,Win32,60.10699044,627c6715c52fd12f31907bd0,,,,,,,,,,,,,,,,,,,,,,,a,0,0.7813,"[""0.325"",""0.142"",""0.628"",""0.826""]","[0,1,1,1]",0,38,38,38,1,1,0,,,0,FALSE,,,,,,,,,,,,,,,,,,,,,,,,,,,,,,,
,613d25aae4f98b5e481fca50,627c76d165bc5538045da41d,2022-05-11_19h54.26.569,classification_task,2021.2.3,Win32,60.10699044,627c6715c52fd12f31907bd0,,,,,,,,,,,,,,,,,,,,,,,a,0,0.7819,"[""0.094"",""0.142"",""0.467"",""0.826""]","[1,1,0,1]",0,39,39,39,1,1,0,,,0,FALSE,,,,,,,,,,,,,,,,,,,,,,,,,,,,,,,
,613d25aae4f98b5e481fca50,627c76d165bc5538045da41d,2022-05-11_19h54.26.569,classification_task,2021.2.3,Win32,60.10699044,627c6715c52fd12f31907bd0,,,,,,,,,,,,,,,,,,,,,,,l,1,0.7445,"[""0.056"",""0.675"",""0.538"",""0.764""]","[1,0,1,1]",0,40,40,40,1,1,1,,,0,FALSE,,,,,,,,,,,,,,,,,,,,,,,,,,,,,,,
,613d25aae4f98b5e481fca50,627c76d165bc5538045da41d,2022-05-11_19h54.26.569,classification_task,2021.2.3,Win32,60.10699044,627c6715c52fd12f31907bd0,,,,,,,,,,,,,,,,,,,,,,,l,0,1.5095,"[""0.727"",""0.417"",""0.890"",""0.940""]","[0,1,1,1]",0,41,41,41,1,0,0,,,0,FALSE,,,,,,,,,,,,,,,,,,,,,,,,,,,,,,,
,613d25aae4f98b5e481fca50,627c76d165bc5538045da41d,2022-05-11_19h54.26.569,classification_task,2021.2.3,Win32,60.10699044,627c6715c52fd12f31907bd0,,,,,,,,,,,,,,,,,,,,,,,a,1,0.4831,"[""0.727"",""0.365"",""0.590"",""0.974""]","[0,1,1,1]",0,42,42,42,1,0,1,,,0,FALSE,,,,,,,,,,,,,,,,,,,,,,,,,,,,,,,
,613d25aae4f98b5e481fca50,627c76d165bc5538045da41d,2022-05-11_19h54.26.569,classification_task,2021.2.3,Win32,60.10699044,627c6715c52fd12f31907bd0,,,,,,,,,,,,,,,,,,,,,,,l,1,1.2703,"[""0.056"",""0.288"",""0.538"",""0.502""]","[1,1,1,0]",0,43,43,43,1,1,1,,,0,FALSE,,,,,,,,,,,,,,,,,,,,,,,,,,,,,,,
,613d25aae4f98b5e481fca50,627c76d165bc5538045da41d,2022-05-11_19h54.26.569,classification_task,2021.2.3,Win32,60.10699044,627c6715c52fd12f31907bd0,,,,,,,,,,,,,,,,,,,,,,,a,0,2.6797,"[""0.094"",""0.142"",""0.628"",""0.703""]","[1,1,1,0]",0,44,44,44,1,1,0,,,0,FALSE,,,,,,,,,,,,,,,,,,,,,,,,,,,,,,,
,613d25aae4f98b5e481fca50,627c76d165bc5538045da41d,2022-05-11_19h54.26.569,classification_task,2021.2.3,Win32,60.10699044,627c6715c52fd12f31907bd0,,,,,,,,,,,,,,,,,,,,,,,l,0,0.3789,"[""0.195"",""0.417"",""0.890"",""0.502""]","[1,1,1,0]",0,45,45,45,1,0,0,,,0,FALSE,,,,,,,,,,,,,,,,,,,,,,,,,,,,,,,
,613d25aae4f98b5e481fca50,627c76d165bc5538045da41d,2022-05-11_19h54.26.569,classification_task,2021.2.3,Win32,60.10699044,627c6715c52fd12f31907bd0,,,,,,,,,,,,,,,,,,,,,,,l,0,0.532,"[""0.236"",""0.365"",""0.675"",""0.974""]","[1,1,0,1]",0,46,46,46,1,0,1,,,0,FALSE,,,,,,,,,,,,,,,,,,,,,,,,,,,,,,,
,613d25aae4f98b5e481fca50,627c76d165bc5538045da41d,2022-05-11_19h54.26.569,classification_task,2021.2.3,Win32,60.10699044,627c6715c52fd12f31907bd0,,,,,,,,,,,,,,,,,,,,,,,a,1,0.2989,"[""0.236"",""0.675"",""0.590"",""0.974""]","[1,0,1,1]",0,47,47,47,1,0,1,,,0,FALSE,,,,,,,,,,,,,,,,,,,,,,,,,,,,,,,
,613d25aae4f98b5e481fca50,627c76d165bc5538045da41d,2022-05-11_19h54.26.569,classification_task,2021.2.3,Win32,60.10699044,627c6715c52fd12f31907bd0,,,,,,,,,,,,,,,,,,,,,,,a,1,2.1998,"[""0.236"",""0.488"",""0.590"",""0.974""]","[1,0,1,1]",0,48,48,48,1,0,1,,,0,FALSE,,,,,,,,,,,,,,,,,,,,,,,,,,,,,,,
,613d25aae4f98b5e481fca50,627c76d165bc5538045da41d,2022-05-11_19h54.26.569,classification_task,2021.2.3,Win32,60.10699044,627c6715c52fd12f31907bd0,,,,,,,,,,,,,,,,,,,,,,,a,1,1.1771,"[""0.500"",""0.417"",""0.890"",""0.940""]","[0,1,1,1]",0,49,49,49,1,0,0,,,0,FALSE,,,,,,,,,,,,,,,,,,,,,,,,,,,,,,,
,613d25aae4f98b5e481fca50,627c76d165bc5538045da41d,2022-05-11_19h54.26.569,classification_task,2021.2.3,Win32,60.10699044,627c6715c52fd12f31907bd0,,,,,,,,,,,,,,,,,,,,,,,l,1,1.032,"[""0.094"",""0.142"",""0.628"",""0.662""]","[1,1,1,0]",0,50,50,50,1,1,0,,,0,FALSE,,,,,,,,,,,,,,,,,,,,,,,,,,,,,,,
,613d25aae4f98b5e481fca50,627c76d165bc5538045da41d,2022-05-11_19h54.26.569,classification_task,2021.2.3,Win32,60.10699044,627c6715c52fd12f31907bd0,,,,,,,,,,,,,,,,,,,,,,,l,0,1.5976,"[""0.195"",""0.417"",""0.727"",""0.940""]","[1,1,0,1]",0,51,51,51,1,0,0,,,0,FALSE,,,,,,,,,,,,,,,,,,,,,,,,,,,,,,,
,613d25aae4f98b5e481fca50,627c76d165bc5538045da41d,2022-05-11_19h54.26.569,classification_task,2021.2.3,Win32,60.10699044,627c6715c52fd12f31907bd0,,,,,,,,,,,,,,,,,,,,,,,a,0,0.6827,"[""0.094"",""0.721"",""0.628"",""0.826""]","[1,0,1,1]",0,52,52,52,1,1,0,,,0,FALSE,,,,,,,,,,,,,,,,,,,,,,,,,,,,,,,
,613d25aae4f98b5e481fca50,627c76d165bc5538045da41d,2022-05-11_19h54.26.569,classification_task,2021.2.3,Win32,60.10699044,627c6715c52fd12f31907bd0,,,,,,,,,,,,,,,,,,,,,,,l,0,0.4137,"[""0.236"",""0.365"",""0.721"",""0.974""]","[1,1,0,1]",0,53,53,53,1,0,1,,,0,FALSE,,,,,,,,,,,,,,,,,,,,,,,,,,,,,,,
,613d25aae4f98b5e481fca50,627c76d165bc5538045da41d,2022-05-11_19h54.26.569,classification_task,2021.2.3,Win32,60.10699044,627c6715c52fd12f31907bd0,,,,,,,,,,,,,,,,,,,,,,,a,0,0.3328,"[""0.056"",""0.288"",""0.675"",""0.764""]","[1,1,0,1]",0,54,54,54,1,1,1,,,0,FALSE,,,,,,,,,,,,,,,,,,,,,,,,,,,,,,,
,613d25aae4f98b5e481fca50,627c76d165bc5538045da41d,2022-05-11_19h54.26.569,classification_task,2021.2.3,Win32,60.10699044,627c6715c52fd12f31907bd0,,,,,,,,,,,,,,,,,,,,,,,a,0,0.2996,"[""0.500"",""0.288"",""0.538"",""0.764""]","[0,1,1,1]",0,55,55,55,1,1,1,,,0,FALSE,,,,,,,,,,,,,,,,,,,,,,,,,,,,,,,
,613d25aae4f98b5e481fca50,627c76d165bc5538045da41d,2022-05-11_19h54.26.569,classification_task,2021.2.3,Win32,60.10699044,627c6715c52fd12f31907bd0,,,,,,,,,,,,,,,,,,,,,,,l,0,0.3656,"[""0.195"",""0.417"",""0.890"",""0.676""]","[1,1,1,0]",0,56,56,56,1,0,0,,,0,FALSE,,,,,,,,,,,,,,,,,,,,,,,,,,,,,,,
,613d25aae4f98b5e481fca50,627c76d165bc5538045da41d,2022-05-11_19h54.26.569,classification_task,2021.2.3,Win32,60.10699044,627c6715c52fd12f31907bd0,,,,,,,,,,,,,,,,,,,,,,,a,0,0.8996,"[""0.094"",""0.142"",""0.481"",""0.826""]","[1,1,0,1]",0,57,57,57,1,1,0,,,0,FALSE,,,,,,,,,,,,,,,,,,,,,,,,,,,,,,,
,613d25aae4f98b5e481fca50,627c76d165bc5538045da41d,2022-05-11_19h54.26.569,classification_task,2021.2.3,Win32,60.10699044,627c6715c52fd12f31907bd0,,,,,,,,,,,,,,,,,,,,,,,l,1,1.9656,"[""0.056"",""0.500"",""0.538"",""0.764""]","[1,0,1,1]",0,58,58,58,1,1,1,,,0,FALSE,,,,,,,,,,,,,,,,,,,,,,,,,,,,,,,
,613d25aae4f98b5e481fca50,627c76d165bc5538045da41d,2022-05-11_19h54.26.569,classification_task,2021.2.3,Win32,60.10699044,627c6715c52fd12f31907bd0,,,,,,,,,,,,,,,,,,,,,,,l,0,0.9822,"[""0.721"",""0.365"",""0.590"",""0.974""]","[0,1,1,1]",0,59,59,59,1,0,1,,,0,FALSE,,,,,,,,,,,,,,,,,,,,,,,,,,,,,,,
,613d25aae4f98b5e481fca50,627c76d165bc5538045da41d,2022-05-11_19h54.26.569,classification_task,2021.2.3,Win32,60.10699044,627c6715c52fd12f31907bd0,,,,,,,,,,,,,,,,,,,,,,,l,1,0.2829,"[""0.675"",""0.142"",""0.628"",""0.826""]","[0,1,1,1]",0,60,60,60,1,1,0,,,0,FALSE,,,,,,,,,,,,,,,,,,,,,,,,,,,,,,,
,613d25aae4f98b5e481fca50,627c76d165bc5538045da41d,2022-05-11_19h54.26.569,classification_task,2021.2.3,Win32,60.10699044,627c6715c52fd12f31907bd0,,,,,,,,,,,,,,,,,,,,,,,a,1,1.0472,"[""0.195"",""0.721"",""0.890"",""0.940""]","[1,0,1,1]",0,61,61,61,1,0,0,,,0,FALSE,,,,,,,,,,,,,,,,,,,,,,,,,,,,,,,
,613d25aae4f98b5e481fca50,627c76d165bc5538045da41d,2022-05-11_19h54.26.569,classification_task,2021.2.3,Win32,60.10699044,627c6715c52fd12f31907bd0,,,,,,,,,,,,,,,,,,,,,,,a,1,1.1146,"[""0.236"",""0.365"",""0.590"",""0.663""]","[1,1,1,0]",0,62,62,62,1,0,1,,,0,FALSE,,,,,,,,,,,,,,,,,,,,,,,,,,,,,,,
,613d25aae4f98b5e481fca50,627c76d165bc5538045da41d,2022-05-11_19h54.26.569,classification_task,2021.2.3,Win32,60.10699044,627c6715c52fd12f31907bd0,,,,,,,,,,,,,,,,,,,,,,,a,0,3.3146,"[""0.056"",""0.288"",""0.538"",""0.500""]","[1,1,1,0]",0,63,63,63,1,1,1,,,0,FALSE,,,,,,,,,,,,,,,,,,,,,,,,,,,,,,,
,613d25aae4f98b5e481fca50,627c76d165bc5538045da41d,2022-05-11_19h54.26.569,classification_task,2021.2.3,Win32,60.10699044,627c6715c52fd12f31907bd0,,,,,,,,,,,,,,,,,,,,,,,,,,,,,,,,,,,,,,,0, ,,0,8.823578042,359.1018,0,0,0,0,1,2,1,,,,,,,,,,,,,,,,,,
,613d25aae4f98b5e481fca50,627c76d165bc5538045da41d,2022-05-11_19h54.26.569,classification_task,2021.2.3,Win32,60.10699044,627c6715c52fd12f31907bd0,,,,,,,,,,,,,,,,,,,,,,,,,,,,,,,,,,,,,,,1,  ,,0,8.789131393,355.0545,0,0,0,0,1,2,1,,,,,,,,,,,,,,,,,,
,613d25aae4f98b5e481fca50,627c76d165bc5538045da41d,2022-05-11_19h54.26.569,classification_task,2021.2.3,Win32,60.10699044,627c6715c52fd12f31907bd0,,,,,,,,,,,,,,,,,,,,,,,,,,,,,,,,,,,,,,,2,  ,,0,9.168044533,352.6132,0,0,0,0,1,2,1,,,,,,,,,,,,,,,,,,
,613d25aae4f98b5e481fca50,627c76d165bc5538045da41d,2022-05-11_19h54.26.569,classification_task,2021.2.3,Win32,60.10699044,627c6715c52fd12f31907bd0,,,,,,,,,,,,,,,,,,,,,,,,,,,,,,,,,,,,,,,,,,,,,0,0,0,0,1,,1,,,,,,,,,,,,,,,,,,
,613d25aae4f98b5e481fca50,627c76d165bc5538045da41d,2022-05-11_19h54.26.569,classification_task,2021.2.3,Win32,60.10699044,627c6715c52fd12f31907bd0,,,,,,,,,,,,,,,,,,,,,space,6.4931,l,1,2.2255,"[""0.721"",""0.142"",""0.628"",""0.826""]","[0,1,1,1]",0,0,0,0,1,1,0,,,0,FALSE,,,,,,,,,,,,,,,,,,,,,,,,,,,,,,,
,613d25aae4f98b5e481fca50,627c76d165bc5538045da41d,2022-05-11_19h54.26.569,classification_task,2021.2.3,Win32,60.10699044,627c6715c52fd12f31907bd0,,,,,,,,,,,,,,,,,,,,,,,a,1,1.4818,"[""0.195"",""0.467"",""0.890"",""0.940""]","[1,0,1,1]",0,1,1,1,1,0,0,,,0,FALSE,,,,,,,,,,,,,,,,,,,,,,,,,,,,,,,
,613d25aae4f98b5e481fca50,627c76d165bc5538045da41d,2022-05-11_19h54.26.569,classification_task,2021.2.3,Win32,60.10699044,627c6715c52fd12f31907bd0,,,,,,,,,,,,,,,,,,,,,,,a,0,1.3779,"[""0.094"",""0.481"",""0.628"",""0.826""]","[1,0,1,1]",0,2,2,2,1,1,0,,,0,FALSE,,,,,,,,,,,,,,,,,,,,,,,,,,,,,,,
,613d25aae4f98b5e481fca50,627c76d165bc5538045da41d,2022-05-11_19h54.26.569,classification_task,2021.2.3,Win32,60.10699044,627c6715c52fd12f31907bd0,,,,,,,,,,,,,,,,,,,,,,,l,0,0.6174,"[""0.195"",""0.417"",""0.890"",""0.675""]","[1,1,1,0]",0,3,3,3,1,0,0,,,0,FALSE,,,,,,,,,,,,,,,,,,,,,,,,,,,,,,,
,613d25aae4f98b5e481fca50,627c76d165bc5538045da41d,2022-05-11_19h54.26.569,classification_task,2021.2.3,Win32,60.10699044,627c6715c52fd12f31907bd0,,,,,,,,,,,,,,,,,,,,,,,a,1,0.5983,"[""0.325"",""0.365"",""0.590"",""0.974""]","[0,1,1,1]",0,4,4,4,1,0,1,,,0,FALSE,,,,,,,,,,,,,,,,,,,,,,,,,,,,,,,
,613d25aae4f98b5e481fca50,627c76d165bc5538045da41d,2022-05-11_19h54.26.569,classification_task,2021.2.3,Win32,60.10699044,627c6715c52fd12f31907bd0,,,,,,,,,,,,,,,,,,,,,,,a,1,0.616,"[""0.710"",""0.417"",""0.890"",""0.940""]","[0,1,1,1]",0,5,5,5,1,0,0,,,0,FALSE,,,,,,,,,,,,,,,,,,,,,,,,,,,,,,,
,613d25aae4f98b5e481fca50,627c76d165bc5538045da41d,2022-05-11_19h54.26.569,classification_task,2021.2.3,Win32,60.10699044,627c6715c52fd12f31907bd0,,,,,,,,,,,,,,,,,,,,,,,l,0,1.3311,"[""0.195"",""0.417"",""0.721"",""0.940""]","[1,1,0,1]",0,6,6,6,1,0,0,,,0,FALSE,,,,,,,,,,,,,,,,,,,,,,,,,,,,,,,
,613d25aae4f98b5e481fca50,627c76d165bc5538045da41d,2022-05-11_19h54.26.569,classification_task,2021.2.3,Win32,60.10699044,627c6715c52fd12f31907bd0,,,,,,,,,,,,,,,,,,,,,,,a,0,0.2994,"[""0.094"",""0.142"",""0.628"",""0.458""]","[1,1,1,0]",0,7,7,7,1,1,0,,,0,FALSE,,,,,,,,,,,,,,,,,,,,,,,,,,,,,,,
,613d25aae4f98b5e481fca50,627c76d165bc5538045da41d,2022-05-11_19h54.26.569,classification_task,2021.2.3,Win32,60.10699044,627c6715c52fd12f31907bd0,,,,,,,,,,,,,,,,,,,,,,,l,0,0.4978,"[""0.236"",""0.676"",""0.590"",""0.974""]","[1,0,1,1]",0,8,8,8,1,0,1,,,0,FALSE,,,,,,,,,,,,,,,,,,,,,,,,,,,,,,,
,613d25aae4f98b5e481fca50,627c76d165bc5538045da41d,2022-05-11_19h54.26.569,classification_task,2021.2.3,Win32,60.10699044,627c6715c52fd12f31907bd0,,,,,,,,,,,,,,,,,,,,,,,l,1,0.8993,"[""0.056"",""0.288"",""0.710"",""0.764""]","[1,1,0,1]",0,9,9,9,1,1,1,,,0,FALSE,,,,,,,,,,,,,,,,,,,,,,,,,,,,,,,
,613d25aae4f98b5e481fca50,627c76d165bc5538045da41d,2022-05-11_19h54.26.569,classification_task,2021.2.3,Win32,60.10699044,627c6715c52fd12f31907bd0,,,,,,,,,,,,,,,,,,,,,,,l,1,1.1319,"[""0.094"",""0.142"",""0.727"",""0.826""]","[1,1,0,1]",0,10,10,10,1,1,0,,,0,FALSE,,,,,,,,,,,,,,,,,,,,,,,,,,,,,,,
,613d25aae4f98b5e481fca50,627c76d165bc5538045da41d,2022-05-11_19h54.26.569,classification_task,2021.2.3,Win32,60.10699044,627c6715c52fd12f31907bd0,,,,,,,,,,,,,,,,,,,,,,,l,0,2.031,"[""0.236"",""0.365"",""0.727"",""0.974""]","[1,1,0,1]",0,11,11,11,1,0,1,,,0,FALSE,,,,,,,,,,,,,,,,,,,,,,,,,,,,,,,
,613d25aae4f98b5e481fca50,627c76d165bc5538045da41d,2022-05-11_19h54.26.569,classification_task,2021.2.3,Win32,60.10699044,627c6715c52fd12f31907bd0,,,,,,,,,,,,,,,,,,,,,,,a,0,0.6328,"[""0.056"",""0.675"",""0.538"",""0.764""]","[1,0,1,1]",0,12,12,12,1,1,1,,,0,FALSE,,,,,,,,,,,,,,,,,,,,,,,,,,,,,,,
,613d25aae4f98b5e481fca50,627c76d165bc5538045da41d,2022-05-11_19h54.26.569,classification_task,2021.2.3,Win32,60.10699044,627c6715c52fd12f31907bd0,,,,,,,,,,,,,,,,,,,,,,,a,0,1.0305,"[""0.056"",""0.288"",""0.538"",""0.721""]","[1,1,1,0]",0,13,13,13,1,1,1,,,0,FALSE,,,,,,,,,,,,,,,,,,,,,,,,,,,,,,,
,613d25aae4f98b5e481fca50,627c76d165bc5538045da41d,2022-05-11_19h54.26.569,classification_task,2021.2.3,Win32,60.10699044,627c6715c52fd12f31907bd0,,,,,,,,,,,,,,,,,,,,,,,l,0,0.312,"[""0.236"",""0.365"",""0.590"",""0.710""]","[1,1,1,0]",0,14,14,14,1,0,1,,,0,FALSE,,,,,,,,,,,,,,,,,,,,,,,,,,,,,,,
,613d25aae4f98b5e481fca50,627c76d165bc5538045da41d,2022-05-11_19h54.26.569,classification_task,2021.2.3,Win32,60.10699044,627c6715c52fd12f31907bd0,,,,,,,,,,,,,,,,,,,,,,,l,1,1.2998,"[""0.710"",""0.288"",""0.538"",""0.764""]","[0,1,1,1]",0,15,15,15,1,1,1,,,0,FALSE,,,,,,,,,,,,,,,,,,,,,,,,,,,,,,,
,613d25aae4f98b5e481fca50,627c76d165bc5538045da41d,2022-05-11_19h54.26.569,classification_task,2021.2.3,Win32,60.10699044,627c6715c52fd12f31907bd0,,,,,,,,,,,,,,,,,,,,,,,l,1,1.0331,"[""0.056"",""0.727"",""0.538"",""0.764""]","[1,0,1,1]",0,16,16,16,1,1,1,,,0,FALSE,,,,,,,,,,,,,,,,,,,,,,,,,,,,,,,
,613d25aae4f98b5e481fca50,627c76d165bc5538045da41d,2022-05-11_19h54.26.569,classification_task,2021.2.3,Win32,60.10699044,627c6715c52fd12f31907bd0,,,,,,,,,,,,,,,,,,,,,,,l,0,1.8161,"[""0.236"",""0.365"",""0.663"",""0.974""]","[1,1,0,1]",0,17,17,17,1,0,1,,,0,FALSE,,,,,,,,,,,,,,,,,,,,,,,,,,,,,,,
,613d25aae4f98b5e481fca50,627c76d165bc5538045da41d,2022-05-11_19h54.26.569,classification_task,2021.2.3,Win32,60.10699044,627c6715c52fd12f31907bd0,,,,,,,,,,,,,,,,,,,,,,,a,1,0.6442,"[""0.195"",""0.417"",""0.890"",""0.488""]","[1,1,1,0]",0,18,18,18,1,0,0,,,0,FALSE,,,,,,,,,,,,,,,,,,,,,,,,,,,,,,,
,613d25aae4f98b5e481fca50,627c76d165bc5538045da41d,2022-05-11_19h54.26.569,classification_task,2021.2.3,Win32,60.10699044,627c6715c52fd12f31907bd0,,,,,,,,,,,,,,,,,,,,,,,a,1,0.7187,"[""0.195"",""0.417"",""0.727"",""0.940""]","[1,1,0,1]",0,19,19,19,1,0,0,,,0,FALSE,,,,,,,,,,,,,,,,,,,,,,,,,,,,,,,
,613d25aae4f98b5e481fca50,627c76d165bc5538045da41d,2022-05-11_19h54.26.569,classification_task,2021.2.3,Win32,60.10699044,627c6715c52fd12f31907bd0,,,,,,,,,,,,,,,,,,,,,,,l,0,1.3813,"[""0.236"",""0.365"",""0.590"",""0.727""]","[1,1,1,0]",0,20,20,20,1,0,1,,,0,FALSE,,,,,,,,,,,,,,,,,,,,,,,,,,,,,,,
,613d25aae4f98b5e481fca50,627c76d165bc5538045da41d,2022-05-11_19h54.26.569,classification_task,2021.2.3,Win32,60.10699044,627c6715c52fd12f31907bd0,,,,,,,,,,,,,,,,,,,,,,,a,0,0.3802,"[""0.056"",""0.288"",""0.676"",""0.764""]","[1,1,0,1]",0,21,21,21,1,1,1,,,0,FALSE,,,,,,,,,,,,,,,,,,,,,,,,,,,,,,,
,613d25aae4f98b5e481fca50,627c76d165bc5538045da41d,2022-05-11_19h54.26.569,classification_task,2021.2.3,Win32,60.10699044,627c6715c52fd12f31907bd0,,,,,,,,,,,,,,,,,,,,,,,a,0,0.2823,"[""0.710"",""0.142"",""0.628"",""0.826""]","[0,1,1,1]",0,22,22,22,1,1,0,,,0,FALSE,,,,,,,,,,,,,,,,,,,,,,,,,,,,,,,
,613d25aae4f98b5e481fca50,627c76d165bc5538045da41d,2022-05-11_19h54.26.569,classification_task,2021.2.3,Win32,60.10699044,627c6715c52fd12f31907bd0,,,,,,,,,,,,,,,,,,,,,,,a,1,1.7817,"[""0.502"",""0.365"",""0.590"",""0.974""]","[0,1,1,1]",0,23,23,23,1,0,1,,,0,FALSE,,,,,,,,,,,,,,,,,,,,,,,,,,,,,,,
,613d25aae4f98b5e481fca50,627c76d165bc5538045da41d,2022-05-11_19h54.26.569,classification_task,2021.2.3,Win32,60.10699044,627c6715c52fd12f31907bd0,,,,,,,,,,,,,,,,,,,,,,,a,0,0.9979,"[""0.094"",""0.142"",""0.628"",""0.721""]","[1,1,1,0]",0,24,24,24,1,1,0,,,0,FALSE,,,,,,,,,,,,,,,,,,,,,,,,,,,,,,,
,613d25aae4f98b5e481fca50,627c76d165bc5538045da41d,2022-05-11_19h54.26.569,classification_task,2021.2.3,Win32,60.10699044,627c6715c52fd12f31907bd0,,,,,,,,,,,,,,,,,,,,,,,l,1,0.4822,"[""0.094"",""0.142"",""0.481"",""0.826""]","[1,1,0,1]",0,25,25,25,1,1,0,,,0,FALSE,,,,,,,,,,,,,,,,,,,,,,,,,,,,,,,
,613d25aae4f98b5e481fca50,627c76d165bc5538045da41d,2022-05-11_19h54.26.569,classification_task,2021.2.3,Win32,60.10699044,627c6715c52fd12f31907bd0,,,,,,,,,,,,,,,,,,,,,,,l,0,1.1631,"[""0.236"",""0.662"",""0.590"",""0.974""]","[1,0,1,1]",0,26,26,26,1,0,1,,,0,FALSE,,,,,,,,,,,,,,,,,,,,,,,,,,,,,,,
,613d25aae4f98b5e481fca50,627c76d165bc5538045da41d,2022-05-11_19h54.26.569,classification_task,2021.2.3,Win32,60.10699044,627c6715c52fd12f31907bd0,,,,,,,,,,,,,,,,,,,,,,,a,0,0.4002,"[""0.676"",""0.288"",""0.538"",""0.764""]","[0,1,1,1]",0,27,27,27,1,1,1,,,0,FALSE,,,,,,,,,,,,,,,,,,,,,,,,,,,,,,,
,613d25aae4f98b5e481fca50,627c76d165bc5538045da41d,2022-05-11_19h54.26.569,classification_task,2021.2.3,Win32,60.10699044,627c6715c52fd12f31907bd0,,,,,,,,,,,,,,,,,,,,,,,a,1,0.8978,"[""0.195"",""0.710"",""0.890"",""0.940""]","[1,0,1,1]",0,28,28,28,1,0,0,,,0,FALSE,,,,,,,,,,,,,,,,,,,,,,,,,,,,,,,
,613d25aae4f98b5e481fca50,627c76d165bc5538045da41d,2022-05-11_19h54.26.569,classification_task,2021.2.3,Win32,60.10699044,627c6715c52fd12f31907bd0,,,,,,,,,,,,,,,,,,,,,,,a,0,0.6791,"[""0.056"",""0.288"",""0.538"",""0.500""]","[1,1,1,0]",0,29,29,29,1,1,1,,,0,FALSE,,,,,,,,,,,,,,,,,,,,,,,,,,,,,,,
,613d25aae4f98b5e481fca50,627c76d165bc5538045da41d,2022-05-11_19h54.26.569,classification_task,2021.2.3,Win32,60.10699044,627c6715c52fd12f31907bd0,,,,,,,,,,,,,,,,,,,,,,,l,0,0.315,"[""0.727"",""0.417"",""0.890"",""0.940""]","[0,1,1,1]",0,30,30,30,1,0,0,,,0,FALSE,,,,,,,,,,,,,,,,,,,,,,,,,,,,,,,
,613d25aae4f98b5e481fca50,627c76d165bc5538045da41d,2022-05-11_19h54.26.569,classification_task,2021.2.3,Win32,60.10699044,627c6715c52fd12f31907bd0,,,,,,,,,,,,,,,,,,,,,,,l,1,0.4984,"[""0.094"",""0.467"",""0.628"",""0.826""]","[1,0,1,1]",0,31,31,31,1,1,0,,,0,FALSE,,,,,,,,,,,,,,,,,,,,,,,,,,,,,,,
,613d25aae4f98b5e481fca50,627c76d165bc5538045da41d,2022-05-11_19h54.26.569,classification_task,2021.2.3,Win32,60.10699044,627c6715c52fd12f31907bd0,,,,,,,,,,,,,,,,,,,,,,,l,0,0.3146,"[""0.195"",""0.417"",""0.890"",""0.481""]","[1,1,1,0]",0,32,32,32,1,0,0,,,0,FALSE,,,,,,,,,,,,,,,,,,,,,,,,,,,,,,,
,613d25aae4f98b5e481fca50,627c76d165bc5538045da41d,2022-05-11_19h54.26.569,classification_task,2021.2.3,Win32,60.10699044,627c6715c52fd12f31907bd0,,,,,,,,,,,,,,,,,,,,,,,l,1,0.2988,"[""0.056"",""0.676"",""0.538"",""0.764""]","[1,0,1,1]",0,33,33,33,1,1,1,,,0,FALSE,,,,,,,,,,,,,,,,,,,,,,,,,,,,,,,
,613d25aae4f98b5e481fca50,627c76d165bc5538045da41d,2022-05-11_19h54.26.569,classification_task,2021.2.3,Win32,60.10699044,627c6715c52fd12f31907bd0,,,,,,,,,,,,,,,,,,,,,,,a,1,1.1316,"[""0.236"",""0.365"",""0.458"",""0.974""]","[1,1,0,1]",0,34,34,34,1,0,1,,,0,FALSE,,,,,,,,,,,,,,,,,,,,,,,,,,,,,,,
,613d25aae4f98b5e481fca50,627c76d165bc5538045da41d,2022-05-11_19h54.26.569,classification_task,2021.2.3,Win32,60.10699044,627c6715c52fd12f31907bd0,,,,,,,,,,,,,,,,,,,,,,,l,0,0.8811,"[""0.236"",""0.458"",""0.590"",""0.974""]","[1,0,1,1]",0,35,35,35,1,0,1,,,0,FALSE,,,,,,,,,,,,,,,,,,,,,,,,,,,,,,,
,613d25aae4f98b5e481fca50,627c76d165bc5538045da41d,2022-05-11_19h54.26.569,classification_task,2021.2.3,Win32,60.10699044,627c6715c52fd12f31907bd0,,,,,,,,,,,,,,,,,,,,,,,a,0,0.581,"[""0.721"",""0.142"",""0.628"",""0.826""]","[0,1,1,1]",0,36,36,36,1,1,0,,,0,FALSE,,,,,,,,,,,,,,,,,,,,,,,,,,,,,,,
,613d25aae4f98b5e481fca50,627c76d165bc5538045da41d,2022-05-11_19h54.26.569,classification_task,2021.2.3,Win32,60.10699044,627c6715c52fd12f31907bd0,,,,,,,,,,,,,,,,,,,,,,,l,0,3.8136,"[""0.502"",""0.365"",""0.590"",""0.974""]","[0,1,1,1]",0,37,37,37,1,0,1,,,0,FALSE,,,,,,,,,,,,,,,,,,,,,,,,,,,,,,,
,613d25aae4f98b5e481fca50,627c76d165bc5538045da41d,2022-05-11_19h54.26.569,classification_task,2021.2.3,Win32,60.10699044,627c6715c52fd12f31907bd0,,,,,,,,,,,,,,,,,,,,,,,a,0,0.3125,"[""0.663"",""0.288"",""0.538"",""0.764""]","[0,1,1,1]",0,38,38,38,1,1,1,,,0,FALSE,,,,,,,,,,,,,,,,,,,,,,,,,,,,,,,
,613d25aae4f98b5e481fca50,627c76d165bc5538045da41d,2022-05-11_19h54.26.569,classification_task,2021.2.3,Win32,60.10699044,627c6715c52fd12f31907bd0,,,,,,,,,,,,,,,,,,,,,,,l,1,0.6302,"[""0.094"",""0.142"",""0.628"",""0.488""]","[1,1,1,0]",0,39,39,39,1,1,0,,,0,FALSE,,,,,,,,,,,,,,,,,,,,,,,,,,,,,,,
,613d25aae4f98b5e481fca50,627c76d165bc5538045da41d,2022-05-11_19h54.26.569,classification_task,2021.2.3,Win32,60.10699044,627c6715c52fd12f31907bd0,,,,,,,,,,,,,,,,,,,,,,,l,1,1.798,"[""0.056"",""0.288"",""0.500"",""0.764""]","[1,1,0,1]",0,40,40,40,1,1,1,,,0,FALSE,,,,,,,,,,,,,,,,,,,,,,,,,,,,,,,
,613d25aae4f98b5e481fca50,627c76d165bc5538045da41d,2022-05-11_19h54.26.569,classification_task,2021.2.3,Win32,60.10699044,627c6715c52fd12f31907bd0,,,,,,,,,,,,,,,,,,,,,,,a,0,1.6315,"[""0.056"",""0.288"",""0.538"",""0.703""]","[1,1,1,0]",0,41,41,41,1,1,1,,,0,FALSE,,,,,,,,,,,,,,,,,,,,,,,,,,,,,,,
,613d25aae4f98b5e481fca50,627c76d165bc5538045da41d,2022-05-11_19h54.26.569,classification_task,2021.2.3,Win32,60.10699044,627c6715c52fd12f31907bd0,,,,,,,,,,,,,,,,,,,,,,,l,0,1.2279,"[""0.236"",""0.365"",""0.590"",""0.325""]","[1,1,1,0]",0,42,42,42,1,0,1,,,0,FALSE,,,,,,,,,,,,,,,,,,,,,,,,,,,,,,,
,613d25aae4f98b5e481fca50,627c76d165bc5538045da41d,2022-05-11_19h54.26.569,classification_task,2021.2.3,Win32,60.10699044,627c6715c52fd12f31907bd0,,,,,,,,,,,,,,,,,,,,,,,a,1,3.7133,"[""0.195"",""0.417"",""0.703"",""0.940""]","[1,1,0,1]",0,43,43,43,1,0,0,,,0,FALSE,,,,,,,,,,,,,,,,,,,,,,,,,,,,,,,
,613d25aae4f98b5e481fca50,627c76d165bc5538045da41d,2022-05-11_19h54.26.569,classification_task,2021.2.3,Win32,60.10699044,627c6715c52fd12f31907bd0,,,,,,,,,,,,,,,,,,,,,,,a,0,0.5621,"[""0.094"",""0.142"",""0.481"",""0.826""]","[1,1,0,1]",0,44,44,44,1,1,0,,,0,FALSE,,,,,,,,,,,,,,,,,,,,,,,,,,,,,,,
,613d25aae4f98b5e481fca50,627c76d165bc5538045da41d,2022-05-11_19h54.26.569,classification_task,2021.2.3,Win32,60.10699044,627c6715c52fd12f31907bd0,,,,,,,,,,,,,,,,,,,,,,,l,0,0.2823,"[""0.727"",""0.417"",""0.890"",""0.940""]","[0,1,1,1]",0,45,45,45,1,0,0,,,0,FALSE,,,,,,,,,,,,,,,,,,,,,,,,,,,,,,,
,613d25aae4f98b5e481fca50,627c76d165bc5538045da41d,2022-05-11_19h54.26.569,classification_task,2021.2.3,Win32,60.10699044,627c6715c52fd12f31907bd0,,,,,,,,,,,,,,,,,,,,,,,l,1,0.748,"[""0.094"",""0.703"",""0.628"",""0.826""]","[1,0,1,1]",0,46,46,46,1,1,0,,,0,FALSE,,,,,,,,,,,,,,,,,,,,,,,,,,,,,,,
,613d25aae4f98b5e481fca50,627c76d165bc5538045da41d,2022-05-11_19h54.26.569,classification_task,2021.2.3,Win32,60.10699044,627c6715c52fd12f31907bd0,,,,,,,,,,,,,,,,,,,,,,,l,0,0.4677,"[""0.195"",""0.663"",""0.890"",""0.940""]","[1,0,1,1]",0,47,47,47,1,0,0,,,0,FALSE,,,,,,,,,,,,,,,,,,,,,,,,,,,,,,,
,613d25aae4f98b5e481fca50,627c76d165bc5538045da41d,2022-05-11_19h54.26.569,classification_task,2021.2.3,Win32,60.10699044,627c6715c52fd12f31907bd0,,,,,,,,,,,,,,,,,,,,,,,l,1,2.7983,"[""0.094"",""0.142"",""0.628"",""0.662""]","[1,1,1,0]",0,48,48,48,1,1,0,,,0,FALSE,,,,,,,,,,,,,,,,,,,,,,,,,,,,,,,
,613d25aae4f98b5e481fca50,627c76d165bc5538045da41d,2022-05-11_19h54.26.569,classification_task,2021.2.3,Win32,60.10699044,627c6715c52fd12f31907bd0,,,,,,,,,,,,,,,,,,,,,,,l,0,1.8801,"[""0.675"",""0.417"",""0.890"",""0.940""]","[0,1,1,1]",0,49,49,49,1,0,0,,,0,FALSE,,,,,,,,,,,,,,,,,,,,,,,,,,,,,,,
,613d25aae4f98b5e481fca50,627c76d165bc5538045da41d,2022-05-11_19h54.26.569,classification_task,2021.2.3,Win32,60.10699044,627c6715c52fd12f31907bd0,,,,,,,,,,,,,,,,,,,,,,,a,1,0.7109,"[""0.727"",""0.365"",""0.590"",""0.974""]","[0,1,1,1]",0,50,50,50,1,0,1,,,0,FALSE,,,,,,,,,,,,,,,,,,,,,,,,,,,,,,,
,613d25aae4f98b5e481fca50,627c76d165bc5538045da41d,2022-05-11_19h54.26.569,classification_task,2021.2.3,Win32,60.10699044,627c6715c52fd12f31907bd0,,,,,,,,,,,,,,,,,,,,,,,a,1,2.298,"[""0.195"",""0.500"",""0.890"",""0.940""]","[1,0,1,1]",0,51,51,51,1,0,0,,,0,FALSE,,,,,,,,,,,,,,,,,,,,,,,,,,,,,,,
,613d25aae4f98b5e481fca50,627c76d165bc5538045da41d,2022-05-11_19h54.26.569,classification_task,2021.2.3,Win32,60.10699044,627c6715c52fd12f31907bd0,,,,,,,,,,,,,,,,,,,,,,,a,0,4.3634,"[""0.094"",""0.142"",""0.703"",""0.826""]","[1,1,0,1]",0,52,52,52,1,1,0,,,0,FALSE,,,,,,,,,,,,,,,,,,,,,,,,,,,,,,,
,613d25aae4f98b5e481fca50,627c76d165bc5538045da41d,2022-05-11_19h54.26.569,classification_task,2021.2.3,Win32,60.10699044,627c6715c52fd12f31907bd0,,,,,,,,,,,,,,,,,,,,,,,l,1,0.4777,"[""0.056"",""0.727"",""0.538"",""0.764""]","[1,0,1,1]",0,53,53,53,1,1,1,,,0,FALSE,,,,,,,,,,,,,,,,,,,,,,,,,,,,,,,
,613d25aae4f98b5e481fca50,627c76d165bc5538045da41d,2022-05-11_19h54.26.569,classification_task,2021.2.3,Win32,60.10699044,627c6715c52fd12f31907bd0,,,,,,,,,,,,,,,,,,,,,,,l,1,0.3483,"[""0.056"",""0.288"",""0.663"",""0.764""]","[1,1,0,1]",0,54,54,54,1,1,1,,,0,FALSE,,,,,,,,,,,,,,,,,,,,,,,,,,,,,,,
,613d25aae4f98b5e481fca50,627c76d165bc5538045da41d,2022-05-11_19h54.26.569,classification_task,2021.2.3,Win32,60.10699044,627c6715c52fd12f31907bd0,,,,,,,,,,,,,,,,,,,,,,,l,1,0.3801,"[""0.727"",""0.288"",""0.538"",""0.764""]","[0,1,1,1]",0,55,55,55,1,1,1,,,0,FALSE,,,,,,,,,,,,,,,,,,,,,,,,,,,,,,,
,613d25aae4f98b5e481fca50,627c76d165bc5538045da41d,2022-05-11_19h54.26.569,classification_task,2021.2.3,Win32,60.10699044,627c6715c52fd12f31907bd0,,,,,,,,,,,,,,,,,,,,,,,a,1,1.4814,"[""0.236"",""0.365"",""0.590"",""0.675""]","[1,1,1,0]",0,56,56,56,1,0,1,,,0,FALSE,,,,,,,,,,,,,,,,,,,,,,,,,,,,,,,
,613d25aae4f98b5e481fca50,627c76d165bc5538045da41d,2022-05-11_19h54.26.569,classification_task,2021.2.3,Win32,60.10699044,627c6715c52fd12f31907bd0,,,,,,,,,,,,,,,,,,,,,,,l,1,1.3646,"[""0.710"",""0.142"",""0.628"",""0.826""]","[0,1,1,1]",0,57,57,57,1,1,0,,,0,FALSE,,,,,,,,,,,,,,,,,,,,,,,,,,,,,,,
,613d25aae4f98b5e481fca50,627c76d165bc5538045da41d,2022-05-11_19h54.26.569,classification_task,2021.2.3,Win32,60.10699044,627c6715c52fd12f31907bd0,,,,,,,,,,,,,,,,,,,,,,,l,1,2.0312,"[""0.056"",""0.288"",""0.538"",""0.727""]","[1,1,1,0]",0,58,58,58,1,1,1,,,0,FALSE,,,,,,,,,,,,,,,,,,,,,,,,,,,,,,,
,613d25aae4f98b5e481fca50,627c76d165bc5538045da41d,2022-05-11_19h54.26.569,classification_task,2021.2.3,Win32,60.10699044,627c6715c52fd12f31907bd0,,,,,,,,,,,,,,,,,,,,,,,l,0,1.5269,"[""0.195"",""0.417"",""0.890"",""0.721""]","[1,1,1,0]",0,59,59,59,1,0,0,,,0,FALSE,,,,,,,,,,,,,,,,,,,,,,,,,,,,,,,
,613d25aae4f98b5e481fca50,627c76d165bc5538045da41d,2022-05-11_19h54.26.569,classification_task,2021.2.3,Win32,60.10699044,627c6715c52fd12f31907bd0,,,,,,,,,,,,,,,,,,,,,,,a,0,0.4308,"[""0.094"",""0.675"",""0.628"",""0.826""]","[1,0,1,1]",0,60,60,60,1,1,0,,,0,FALSE,,,,,,,,,,,,,,,,,,,,,,,,,,,,,,,
,613d25aae4f98b5e481fca50,627c76d165bc5538045da41d,2022-05-11_19h54.26.569,classification_task,2021.2.3,Win32,60.10699044,627c6715c52fd12f31907bd0,,,,,,,,,,,,,,,,,,,,,,,l,0,0.2802,"[""0.236"",""0.365"",""0.467"",""0.974""]","[1,1,0,1]",0,61,61,61,1,0,1,,,0,FALSE,,,,,,,,,,,,,,,,,,,,,,,,,,,,,,,
,613d25aae4f98b5e481fca50,627c76d165bc5538045da41d,2022-05-11_19h54.26.569,classification_task,2021.2.3,Win32,60.10699044,627c6715c52fd12f31907bd0,,,,,,,,,,,,,,,,,,,,,,,l,0,0.2986,"[""0.195"",""0.417"",""0.727"",""0.940""]","[1,1,0,1]",0,62,62,62,1,0,0,,,0,FALSE,,,,,,,,,,,,,,,,,,,,,,,,,,,,,,,
,613d25aae4f98b5e481fca50,627c76d165bc5538045da41d,2022-05-11_19h54.26.569,classification_task,2021.2.3,Win32,60.10699044,627c6715c52fd12f31907bd0,,,,,,,,,,,,,,,,,,,,,,,a,1,1.7493,"[""0.236"",""0.500"",""0.590"",""0.974""]","[1,0,1,1]",0,63,63,63,1,0,1,,,0,FALSE,,,,,,,,,,,,,,,,,,,,,,,,,,,,,,,
,613d25aae4f98b5e481fca50,627c76d165bc5538045da41d,2022-05-11_19h54.26.569,classification_task,2021.2.3,Win32,60.10699044,627c6715c52fd12f31907bd0,,,,,,,,,,,,,,,,,,,,,,,,,,,,,,,,,,,,,,,0, ,,0,7.239032187,153.5084,0,1,1,1,1,2,2,,,,,,,,,,,,,,,,,,
,613d25aae4f98b5e481fca50,627c76d165bc5538045da41d,2022-05-11_19h54.26.569,classification_task,2021.2.3,Win32,60.10699044,627c6715c52fd12f31907bd0,,,,,,,,,,,,,,,,,,,,,,,,,,,,,,,,,,,,,,,1,  ,,0,6.584545855,160.3829,0,1,1,1,1,2,2,,,,,,,,,,,,,,,,,,
,613d25aae4f98b5e481fca50,627c76d165bc5538045da41d,2022-05-11_19h54.26.569,classification_task,2021.2.3,Win32,60.10699044,627c6715c52fd12f31907bd0,,,,,,,,,,,,,,,,,,,,,,,,,,,,,,,,,,,,,,,2,  ,,0,9.994764109,166.6635,0,1,1,1,1,2,2,,,,,,,,,,,,,,,,,,
,613d25aae4f98b5e481fca50,627c76d165bc5538045da41d,2022-05-11_19h54.26.569,classification_task,2021.2.3,Win32,60.10699044,627c6715c52fd12f31907bd0,,,,,,,,,,,,,,,,,,,,,,,,,,,,,,,,,,,,,,,,,,,,,0,1,1,1,1,,2,,,,,,,,,,,,,,,,,,
,613d25aae4f98b5e481fca50,627c76d165bc5538045da41d,2022-05-11_19h54.26.569,classification_task,2021.2.3,Win32,60.10699044,627c6715c52fd12f31907bd0,,,,,,,,,,,,,,,,,,,,,space,9.4904,a,0,3.141,"[""0.094"",""0.142"",""0.481"",""0.826""]","[1,1,0,1]",0,0,0,0,1,1,0,,,0,FALSE,,,,,,,,,,,,,,,,,,,,,,,,,,,,,,,
,613d25aae4f98b5e481fca50,627c76d165bc5538045da41d,2022-05-11_19h54.26.569,classification_task,2021.2.3,Win32,60.10699044,627c6715c52fd12f31907bd0,,,,,,,,,,,,,,,,,,,,,,,l,0,2.41,"[""0.236"",""0.662"",""0.590"",""0.974""]","[1,0,1,1]",0,1,1,1,1,0,1,,,0,FALSE,,,,,,,,,,,,,,,,,,,,,,,,,,,,,,,
,613d25aae4f98b5e481fca50,627c76d165bc5538045da41d,2022-05-11_19h54.26.569,classification_task,2021.2.3,Win32,60.10699044,627c6715c52fd12f31907bd0,,,,,,,,,,,,,,,,,,,,,,,a,1,0.2489,"[""0.195"",""0.417"",""0.502"",""0.940""]","[1,1,0,1]",0,2,2,2,1,0,0,,,0,FALSE,,,,,,,,,,,,,,,,,,,,,,,,,,,,,,,
,613d25aae4f98b5e481fca50,627c76d165bc5538045da41d,2022-05-11_19h54.26.569,classification_task,2021.2.3,Win32,60.10699044,627c6715c52fd12f31907bd0,,,,,,,,,,,,,,,,,,,,,,,a,0,1.4982,"[""0.056"",""0.288"",""0.502"",""0.764""]","[1,1,0,1]",0,3,3,3,1,1,1,,,0,FALSE,,,,,,,,,,,,,,,,,,,,,,,,,,,,,,,
,613d25aae4f98b5e481fca50,627c76d165bc5538045da41d,2022-05-11_19h54.26.569,classification_task,2021.2.3,Win32,60.10699044,627c6715c52fd12f31907bd0,,,,,,,,,,,,,,,,,,,,,,,l,1,0.9805,"[""0.325"",""0.288"",""0.538"",""0.764""]","[0,1,1,1]",0,4,4,4,1,1,1,,,0,FALSE,,,,,,,,,,,,,,,,,,,,,,,,,,,,,,,
,613d25aae4f98b5e481fca50,627c76d165bc5538045da41d,2022-05-11_19h54.26.569,classification_task,2021.2.3,Win32,60.10699044,627c6715c52fd12f31907bd0,,,,,,,,,,,,,,,,,,,,,,,l,0,0.299,"[""0.710"",""0.365"",""0.590"",""0.974""]","[0,1,1,1]",0,5,5,5,1,0,1,,,0,FALSE,,,,,,,,,,,,,,,,,,,,,,,,,,,,,,,
,613d25aae4f98b5e481fca50,627c76d165bc5538045da41d,2022-05-11_19h54.26.569,classification_task,2021.2.3,Win32,60.10699044,627c6715c52fd12f31907bd0,,,,,,,,,,,,,,,,,,,,,,,l,1,0.9003,"[""0.056"",""0.288"",""0.538"",""0.467""]","[1,1,1,0]",0,6,6,6,1,1,1,,,0,FALSE,,,,,,,,,,,,,,,,,,,,,,,,,,,,,,,
,613d25aae4f98b5e481fca50,627c76d165bc5538045da41d,2022-05-11_19h54.26.569,classification_task,2021.2.3,Win32,60.10699044,627c6715c52fd12f31907bd0,,,,,,,,,,,,,,,,,,,,,,,a,0,0.4821,"[""0.663"",""0.142"",""0.628"",""0.826""]","[0,1,1,1]",0,7,7,7,1,1,0,,,0,FALSE,,,,,,,,,,,,,,,,,,,,,,,,,,,,,,,
,613d25aae4f98b5e481fca50,627c76d165bc5538045da41d,2022-05-11_19h54.26.569,classification_task,2021.2.3,Win32,60.10699044,627c6715c52fd12f31907bd0,,,,,,,,,,,,,,,,,,,,,,,l,0,1.449,"[""0.195"",""0.481"",""0.890"",""0.940""]","[1,0,1,1]",0,8,8,8,1,0,0,,,0,FALSE,,,,,,,,,,,,,,,,,,,,,,,,,,,,,,,
,613d25aae4f98b5e481fca50,627c76d165bc5538045da41d,2022-05-11_19h54.26.569,classification_task,2021.2.3,Win32,60.10699044,627c6715c52fd12f31907bd0,,,,,,,,,,,,,,,,,,,,,,,l,1,0.933,"[""0.094"",""0.502"",""0.628"",""0.826""]","[1,0,1,1]",0,9,9,9,1,1,0,,,0,FALSE,,,,,,,,,,,,,,,,,,,,,,,,,,,,,,,
,613d25aae4f98b5e481fca50,627c76d165bc5538045da41d,2022-05-11_19h54.26.569,classification_task,2021.2.3,Win32,60.10699044,627c6715c52fd12f31907bd0,,,,,,,,,,,,,,,,,,,,,,,l,0,0.2664,"[""0.458"",""0.417"",""0.890"",""0.940""]","[0,1,1,1]",0,10,10,10,1,0,0,,,0,FALSE,,,,,,,,,,,,,,,,,,,,,,,,,,,,,,,
,613d25aae4f98b5e481fca50,627c76d165bc5538045da41d,2022-05-11_19h54.26.569,classification_task,2021.2.3,Win32,60.10699044,627c6715c52fd12f31907bd0,,,,,,,,,,,,,,,,,,,,,,,a,0,0.3148,"[""0.094"",""0.142"",""0.628"",""0.675""]","[1,1,1,0]",0,11,11,11,1,1,0,,,0,FALSE,,,,,,,,,,,,,,,,,,,,,,,,,,,,,,,
,613d25aae4f98b5e481fca50,627c76d165bc5538045da41d,2022-05-11_19h54.26.569,classification_task,2021.2.3,Win32,60.10699044,627c6715c52fd12f31907bd0,,,,,,,,,,,,,,,,,,,,,,,a,1,0.2642,"[""0.236"",""0.365"",""0.481"",""0.974""]","[1,1,0,1]",0,12,12,12,1,0,1,,,0,FALSE,,,,,,,,,,,,,,,,,,,,,,,,,,,,,,,
,613d25aae4f98b5e481fca50,627c76d165bc5538045da41d,2022-05-11_19h54.26.569,classification_task,2021.2.3,Win32,60.10699044,627c6715c52fd12f31907bd0,,,,,,,,,,,,,,,,,,,,,,,l,1,0.6811,"[""0.056"",""0.662"",""0.538"",""0.764""]","[1,0,1,1]",0,13,13,13,1,1,1,,,0,FALSE,,,,,,,,,,,,,,,,,,,,,,,,,,,,,,,
,613d25aae4f98b5e481fca50,627c76d165bc5538045da41d,2022-05-11_19h54.26.569,classification_task,2021.2.3,Win32,60.10699044,627c6715c52fd12f31907bd0,,,,,,,,,,,,,,,,,,,,,,,l,0,0.4326,"[""0.195"",""0.417"",""0.890"",""0.663""]","[1,1,1,0]",0,14,14,14,1,0,0,,,0,FALSE,,,,,,,,,,,,,,,,,,,,,,,,,,,,,,,
,613d25aae4f98b5e481fca50,627c76d165bc5538045da41d,2022-05-11_19h54.26.569,classification_task,2021.2.3,Win32,60.10699044,627c6715c52fd12f31907bd0,,,,,,,,,,,,,,,,,,,,,,,a,1,0.4822,"[""0.236"",""0.365"",""0.590"",""0.727""]","[1,1,1,0]",0,15,15,15,1,0,1,,,0,FALSE,,,,,,,,,,,,,,,,,,,,,,,,,,,,,,,
,613d25aae4f98b5e481fca50,627c76d165bc5538045da41d,2022-05-11_19h54.26.569,classification_task,2021.2.3,Win32,60.10699044,627c6715c52fd12f31907bd0,,,,,,,,,,,,,,,,,,,,,,,a,1,4.1968,"[""0.236"",""0.365"",""0.502"",""0.974""]","[1,1,0,1]",0,16,16,16,1,0,1,,,0,FALSE,,,,,,,,,,,,,,,,,,,,,,,,,,,,,,,
,613d25aae4f98b5e481fca50,627c76d165bc5538045da41d,2022-05-11_19h54.26.569,classification_task,2021.2.3,Win32,60.10699044,627c6715c52fd12f31907bd0,,,,,,,,,,,,,,,,,,,,,,,a,1,1.1608,"[""0.195"",""0.417"",""0.890"",""0.675""]","[1,1,1,0]",0,17,17,17,1,0,0,,,0,FALSE,,,,,,,,,,,,,,,,,,,,,,,,,,,,,,,
,613d25aae4f98b5e481fca50,627c76d165bc5538045da41d,2022-05-11_19h54.26.569,classification_task,2021.2.3,Win32,60.10699044,627c6715c52fd12f31907bd0,,,,,,,,,,,,,,,,,,,,,,,a,0,1.8134,"[""0.056"",""0.288"",""0.502"",""0.764""]","[1,1,0,1]",0,18,18,18,1,1,1,,,0,FALSE,,,,,,,,,,,,,,,,,,,,,,,,,,,,,,,
,613d25aae4f98b5e481fca50,627c76d165bc5538045da41d,2022-05-11_19h54.26.569,classification_task,2021.2.3,Win32,60.10699044,627c6715c52fd12f31907bd0,,,,,,,,,,,,,,,,,,,,,,,l,1,2.6144,"[""0.094"",""0.142"",""0.628"",""0.467""]","[1,1,1,0]",0,19,19,19,1,1,0,,,0,FALSE,,,,,,,,,,,,,,,,,,,,,,,,,,,,,,,
,613d25aae4f98b5e481fca50,627c76d165bc5538045da41d,2022-05-11_19h54.26.569,classification_task,2021.2.3,Win32,60.10699044,627c6715c52fd12f31907bd0,,,,,,,,,,,,,,,,,,,,,,,l,1,1.5948,"[""0.094"",""0.142"",""0.727"",""0.826""]","[1,1,0,1]",0,20,20,20,1,1,0,,,0,FALSE,,,,,,,,,,,,,,,,,,,,,,,,,,,,,,,
,613d25aae4f98b5e481fca50,627c76d165bc5538045da41d,2022-05-11_19h54.26.569,classification_task,2021.2.3,Win32,60.10699044,627c6715c52fd12f31907bd0,,,,,,,,,,,,,,,,,,,,,,,a,1,4.281,"[""0.236"",""0.710"",""0.590"",""0.974""]","[1,0,1,1]",0,21,21,21,1,0,1,,,0,FALSE,,,,,,,,,,,,,,,,,,,,,,,,,,,,,,,
,613d25aae4f98b5e481fca50,627c76d165bc5538045da41d,2022-05-11_19h54.26.569,classification_task,2021.2.3,Win32,60.10699044,627c6715c52fd12f31907bd0,,,,,,,,,,,,,,,,,,,,,,,l,1,0.5614,"[""0.094"",""0.502"",""0.628"",""0.826""]","[1,0,1,1]",0,22,22,22,1,1,0,,,0,FALSE,,,,,,,,,,,,,,,,,,,,,,,,,,,,,,,
,613d25aae4f98b5e481fca50,627c76d165bc5538045da41d,2022-05-11_19h54.26.569,classification_task,2021.2.3,Win32,60.10699044,627c6715c52fd12f31907bd0,,,,,,,,,,,,,,,,,,,,,,,l,1,1.6144,"[""0.056"",""0.288"",""0.538"",""0.458""]","[1,1,1,0]",0,23,23,23,1,1,1,,,0,FALSE,,,,,,,,,,,,,,,,,,,,,,,,,,,,,,,
,613d25aae4f98b5e481fca50,627c76d165bc5538045da41d,2022-05-11_19h54.26.569,classification_task,2021.2.3,Win32,60.10699044,627c6715c52fd12f31907bd0,,,,,,,,,,,,,,,,,,,,,,,l,1,3.5304,"[""0.662"",""0.142"",""0.628"",""0.826""]","[0,1,1,1]",0,24,24,24,1,1,0,,,0,FALSE,,,,,,,,,,,,,,,,,,,,,,,,,,,,,,,
,613d25aae4f98b5e481fca50,627c76d165bc5538045da41d,2022-05-11_19h54.26.569,classification_task,2021.2.3,Win32,60.10699044,627c6715c52fd12f31907bd0,,,,,,,,,,,,,,,,,,,,,,,l,0,4.7436,"[""0.727"",""0.365"",""0.590"",""0.974""]","[0,1,1,1]",0,25,25,25,1,0,1,,,0,FALSE,,,,,,,,,,,,,,,,,,,,,,,,,,,,,,,
,613d25aae4f98b5e481fca50,627c76d165bc5538045da41d,2022-05-11_19h54.26.569,classification_task,2021.2.3,Win32,60.10699044,627c6715c52fd12f31907bd0,,,,,,,,,,,,,,,,,,,,,,,a,1,1.6764,"[""0.195"",""0.417"",""0.481"",""0.940""]","[1,1,0,1]",0,26,26,26,1,0,0,,,0,FALSE,,,,,,,,,,,,,,,,,,,,,,,,,,,,,,,
,613d25aae4f98b5e481fca50,627c76d165bc5538045da41d,2022-05-11_19h54.26.569,classification_task,2021.2.3,Win32,60.10699044,627c6715c52fd12f31907bd0,,,,,,,,,,,,,,,,,,,,,,,a,0,4.9965,"[""0.056"",""0.727"",""0.538"",""0.764""]","[1,0,1,1]",0,27,27,27,1,1,1,,,0,FALSE,,,,,,,,,,,,,,,,,,,,,,,,,,,,,,,
,613d25aae4f98b5e481fca50,627c76d165bc5538045da41d,2022-05-11_19h54.26.569,classification_task,2021.2.3,Win32,60.10699044,627c6715c52fd12f31907bd0,,,,,,,,,,,,,,,,,,,,,,,l,0,3.6446,"[""0.500"",""0.417"",""0.890"",""0.940""]","[0,1,1,1]",0,28,28,28,1,0,0,,,0,FALSE,,,,,,,,,,,,,,,,,,,,,,,,,,,,,,,
,613d25aae4f98b5e481fca50,627c76d165bc5538045da41d,2022-05-11_19h54.26.569,classification_task,2021.2.3,Win32,60.10699044,627c6715c52fd12f31907bd0,,,,,,,,,,,,,,,,,,,,,,,a,1,4.9227,"[""0.195"",""0.662"",""0.890"",""0.940""]","[1,0,1,1]",0,29,29,29,1,0,0,,,0,FALSE,,,,,,,,,,,,,,,,,,,,,,,,,,,,,,,
,613d25aae4f98b5e481fca50,627c76d165bc5538045da41d,2022-05-11_19h54.26.569,classification_task,2021.2.3,Win32,60.10699044,627c6715c52fd12f31907bd0,,,,,,,,,,,,,,,,,,,,,,,l,0,3.2593,"[""0.236"",""0.365"",""0.590"",""0.721""]","[1,1,1,0]",0,30,30,30,1,0,1,,,0,FALSE,,,,,,,,,,,,,,,,,,,,,,,,,,,,,,,
,613d25aae4f98b5e481fca50,627c76d165bc5538045da41d,2022-05-11_19h54.26.569,classification_task,2021.2.3,Win32,60.10699044,627c6715c52fd12f31907bd0,,,,,,,,,,,,,,,,,,,,,,,l,1,3.4252,"[""0.727"",""0.288"",""0.538"",""0.764""]","[0,1,1,1]",0,31,31,31,1,1,1,,,0,FALSE,,,,,,,,,,,,,,,,,,,,,,,,,,,,,,,
,613d25aae4f98b5e481fca50,627c76d165bc5538045da41d,2022-05-11_19h54.26.569,classification_task,2021.2.3,Win32,60.10699044,627c6715c52fd12f31907bd0,,,,,,,,,,,,,,,,,,,,,,,a,1,3.4269,"[""0.502"",""0.365"",""0.590"",""0.974""]","[0,1,1,1]",0,32,32,32,1,0,1,,,0,FALSE,,,,,,,,,,,,,,,,,,,,,,,,,,,,,,,
,613d25aae4f98b5e481fca50,627c76d165bc5538045da41d,2022-05-11_19h54.26.569,classification_task,2021.2.3,Win32,60.10699044,627c6715c52fd12f31907bd0,,,,,,,,,,,,,,,,,,,,,,,a,0,0.3949,"[""0.502"",""0.142"",""0.628"",""0.826""]","[0,1,1,1]",0,33,33,33,1,1,0,,,0,FALSE,,,,,,,,,,,,,,,,,,,,,,,,,,,,,,,
,613d25aae4f98b5e481fca50,627c76d165bc5538045da41d,2022-05-11_19h54.26.569,classification_task,2021.2.3,Win32,60.10699044,627c6715c52fd12f31907bd0,,,,,,,,,,,,,,,,,,,,,,,a,0,2.5973,"[""0.056"",""0.288"",""0.662"",""0.764""]","[1,1,0,1]",0,34,34,34,1,1,1,,,0,FALSE,,,,,,,,,,,,,,,,,,,,,,,,,,,,,,,
,613d25aae4f98b5e481fca50,627c76d165bc5538045da41d,2022-05-11_19h54.26.569,classification_task,2021.2.3,Win32,60.10699044,627c6715c52fd12f31907bd0,,,,,,,,,,,,,,,,,,,,,,,l,1,1.1471,"[""0.056"",""0.288"",""0.538"",""0.675""]","[1,1,1,0]",0,35,35,35,1,1,1,,,0,FALSE,,,,,,,,,,,,,,,,,,,,,,,,,,,,,,,
,613d25aae4f98b5e481fca50,627c76d165bc5538045da41d,2022-05-11_19h54.26.569,classification_task,2021.2.3,Win32,60.10699044,627c6715c52fd12f31907bd0,,,,,,,,,,,,,,,,,,,,,,,l,0,6.4621,"[""0.195"",""0.500"",""0.890"",""0.940""]","[1,0,1,1]",0,36,36,36,1,0,0,,,0,FALSE,,,,,,,,,,,,,,,,,,,,,,,,,,,,,,,
,613d25aae4f98b5e481fca50,627c76d165bc5538045da41d,2022-05-11_19h54.26.569,classification_task,2021.2.3,Win32,60.10699044,627c6715c52fd12f31907bd0,,,,,,,,,,,,,,,,,,,,,,,a,1,1.2786,"[""0.195"",""0.417"",""0.710"",""0.940""]","[1,1,0,1]",0,37,37,37,1,0,0,,,0,FALSE,,,,,,,,,,,,,,,,,,,,,,,,,,,,,,,
,613d25aae4f98b5e481fca50,627c76d165bc5538045da41d,2022-05-11_19h54.26.569,classification_task,2021.2.3,Win32,60.10699044,627c6715c52fd12f31907bd0,,,,,,,,,,,,,,,,,,,,,,,a,0,4.629,"[""0.094"",""0.142"",""0.628"",""0.675""]","[1,1,1,0]",0,38,38,38,1,1,0,,,0,FALSE,,,,,,,,,,,,,,,,,,,,,,,,,,,,,,,
,613d25aae4f98b5e481fca50,627c76d165bc5538045da41d,2022-05-11_19h54.26.569,classification_task,2021.2.3,Win32,60.10699044,627c6715c52fd12f31907bd0,,,,,,,,,,,,,,,,,,,,,,,l,0,1.2127,"[""0.236"",""0.365"",""0.590"",""0.727""]","[1,1,1,0]",0,39,39,39,1,0,1,,,0,FALSE,,,,,,,,,,,,,,,,,,,,,,,,,,,,,,,
,613d25aae4f98b5e481fca50,627c76d165bc5538045da41d,2022-05-11_19h54.26.569,classification_task,2021.2.3,Win32,60.10699044,627c6715c52fd12f31907bd0,,,,,,,,,,,,,,,,,,,,,,,l,1,0.3298,"[""0.056"",""0.500"",""0.538"",""0.764""]","[1,0,1,1]",0,40,40,40,1,1,1,,,0,FALSE,,,,,,,,,,,,,,,,,,,,,,,,,,,,,,,
,613d25aae4f98b5e481fca50,627c76d165bc5538045da41d,2022-05-11_19h54.26.569,classification_task,2021.2.3,Win32,60.10699044,627c6715c52fd12f31907bd0,,,,,,,,,,,,,,,,,,,,,,,l,0,6.3326,"[""0.236"",""0.458"",""0.590"",""0.974""]","[1,0,1,1]",0,41,41,41,1,0,1,,,0,FALSE,,,,,,,,,,,,,,,,,,,,,,,,,,,,,,,
,613d25aae4f98b5e481fca50,627c76d165bc5538045da41d,2022-05-11_19h54.26.569,classification_task,2021.2.3,Win32,60.10699044,627c6715c52fd12f31907bd0,,,,,,,,,,,,,,,,,,,,,,,l,1,2.6079,"[""0.094"",""0.142"",""0.467"",""0.826""]","[1,1,0,1]",0,42,42,42,1,1,0,,,0,FALSE,,,,,,,,,,,,,,,,,,,,,,,,,,,,,,,
,613d25aae4f98b5e481fca50,627c76d165bc5538045da41d,2022-05-11_19h54.26.569,classification_task,2021.2.3,Win32,60.10699044,627c6715c52fd12f31907bd0,,,,,,,,,,,,,,,,,,,,,,,l,0,6.2473,"[""0.195"",""0.417"",""0.890"",""0.727""]","[1,1,1,0]",0,43,43,43,1,0,0,,,0,FALSE,,,,,,,,,,,,,,,,,,,,,,,,,,,,,,,
,613d25aae4f98b5e481fca50,627c76d165bc5538045da41d,2022-05-11_19h54.26.569,classification_task,2021.2.3,Win32,60.10699044,627c6715c52fd12f31907bd0,,,,,,,,,,,,,,,,,,,,,,,l,1,7.2905,"[""0.703"",""0.288"",""0.538"",""0.764""]","[0,1,1,1]",0,44,44,44,1,1,1,,,0,FALSE,,,,,,,,,,,,,,,,,,,,,,,,,,,,,,,
,613d25aae4f98b5e481fca50,627c76d165bc5538045da41d,2022-05-11_19h54.26.569,classification_task,2021.2.3,Win32,60.10699044,627c6715c52fd12f31907bd0,,,,,,,,,,,,,,,,,,,,,,,a,1,0.9608,"[""0.236"",""0.365"",""0.710"",""0.974""]","[1,1,0,1]",0,45,45,45,1,0,1,,,0,FALSE,,,,,,,,,,,,,,,,,,,,,,,,,,,,,,,
,613d25aae4f98b5e481fca50,627c76d165bc5538045da41d,2022-05-11_19h54.26.569,classification_task,2021.2.3,Win32,60.10699044,627c6715c52fd12f31907bd0,,,,,,,,,,,,,,,,,,,,,,,l,1,0.2812,"[""0.094"",""0.676"",""0.628"",""0.826""]","[1,0,1,1]",0,46,46,46,1,1,0,,,0,FALSE,,,,,,,,,,,,,,,,,,,,,,,,,,,,,,,
,613d25aae4f98b5e481fca50,627c76d165bc5538045da41d,2022-05-11_19h54.26.569,classification_task,2021.2.3,Win32,60.10699044,627c6715c52fd12f31907bd0,,,,,,,,,,,,,,,,,,,,,,,l,0,0.7835,"[""0.703"",""0.417"",""0.890"",""0.940""]","[0,1,1,1]",0,47,47,47,1,0,0,,,0,FALSE,,,,,,,,,,,,,,,,,,,,,,,,,,,,,,,
,613d25aae4f98b5e481fca50,627c76d165bc5538045da41d,2022-05-11_19h54.26.569,classification_task,2021.2.3,Win32,60.10699044,627c6715c52fd12f31907bd0,,,,,,,,,,,,,,,,,,,,,,,l,0,1.4616,"[""0.236"",""0.365"",""0.590"",""0.727""]","[1,1,1,0]",0,48,48,48,1,0,1,,,0,FALSE,,,,,,,,,,,,,,,,,,,,,,,,,,,,,,,
,613d25aae4f98b5e481fca50,627c76d165bc5538045da41d,2022-05-11_19h54.26.569,classification_task,2021.2.3,Win32,60.10699044,627c6715c52fd12f31907bd0,,,,,,,,,,,,,,,,,,,,,,,a,0,2.7311,"[""0.056"",""0.500"",""0.538"",""0.764""]","[1,0,1,1]",0,49,49,49,1,1,1,,,0,FALSE,,,,,,,,,,,,,,,,,,,,,,,,,,,,,,,
,613d25aae4f98b5e481fca50,627c76d165bc5538045da41d,2022-05-11_19h54.26.569,classification_task,2021.2.3,Win32,60.10699044,627c6715c52fd12f31907bd0,,,,,,,,,,,,,,,,,,,,,,,l,1,3.6092,"[""0.056"",""0.288"",""0.538"",""0.703""]","[1,1,1,0]",0,50,50,50,1,1,1,,,0,FALSE,,,,,,,,,,,,,,,,,,,,,,,,,,,,,,,
,613d25aae4f98b5e481fca50,627c76d165bc5538045da41d,2022-05-11_19h54.26.569,classification_task,2021.2.3,Win32,60.10699044,627c6715c52fd12f31907bd0,,,,,,,,,,,,,,,,,,,,,,,a,1,1.5425,"[""0.195"",""0.417"",""0.500"",""0.940""]","[1,1,0,1]",0,51,51,51,1,0,0,,,0,FALSE,,,,,,,,,,,,,,,,,,,,,,,,,,,,,,,
,613d25aae4f98b5e481fca50,627c76d165bc5538045da41d,2022-05-11_19h54.26.569,classification_task,2021.2.3,Win32,60.10699044,627c6715c52fd12f31907bd0,,,,,,,,,,,,,,,,,,,,,,,l,1,0.3473,"[""0.094"",""0.142"",""0.710"",""0.826""]","[1,1,0,1]",0,52,52,52,1,1,0,,,0,FALSE,,,,,,,,,,,,,,,,,,,,,,,,,,,,,,,
,613d25aae4f98b5e481fca50,627c76d165bc5538045da41d,2022-05-11_19h54.26.569,classification_task,2021.2.3,Win32,60.10699044,627c6715c52fd12f31907bd0,,,,,,,,,,,,,,,,,,,,,,,l,0,0.5309,"[""0.195"",""0.467"",""0.890"",""0.940""]","[1,0,1,1]",0,53,53,53,1,0,0,,,0,FALSE,,,,,,,,,,,,,,,,,,,,,,,,,,,,,,,
,613d25aae4f98b5e481fca50,627c76d165bc5538045da41d,2022-05-11_19h54.26.569,classification_task,2021.2.3,Win32,60.10699044,627c6715c52fd12f31907bd0,,,,,,,,,,,,,,,,,,,,,,,l,1,1.4484,"[""0.094"",""0.458"",""0.628"",""0.826""]","[1,0,1,1]",0,54,54,54,1,1,0,,,0,FALSE,,,,,,,,,,,,,,,,,,,,,,,,,,,,,,,
,613d25aae4f98b5e481fca50,627c76d165bc5538045da41d,2022-05-11_19h54.26.569,classification_task,2021.2.3,Win32,60.10699044,627c6715c52fd12f31907bd0,,,,,,,,,,,,,,,,,,,,,,,a,1,0.2823,"[""0.236"",""0.727"",""0.590"",""0.974""]","[1,0,1,1]",0,55,55,55,1,0,1,,,0,FALSE,,,,,,,,,,,,,,,,,,,,,,,,,,,,,,,
,613d25aae4f98b5e481fca50,627c76d165bc5538045da41d,2022-05-11_19h54.26.569,classification_task,2021.2.3,Win32,60.10699044,627c6715c52fd12f31907bd0,,,,,,,,,,,,,,,,,,,,,,,l,0,0.4327,"[""0.195"",""0.417"",""0.890"",""0.488""]","[1,1,1,0]",0,56,56,56,1,0,0,,,0,FALSE,,,,,,,,,,,,,,,,,,,,,,,,,,,,,,,
,613d25aae4f98b5e481fca50,627c76d165bc5538045da41d,2022-05-11_19h54.26.569,classification_task,2021.2.3,Win32,60.10699044,627c6715c52fd12f31907bd0,,,,,,,,,,,,,,,,,,,,,,,l,1,0.8146,"[""0.056"",""0.288"",""0.676"",""0.764""]","[1,1,0,1]",0,57,57,57,1,1,1,,,0,FALSE,,,,,,,,,,,,,,,,,,,,,,,,,,,,,,,
,613d25aae4f98b5e481fca50,627c76d165bc5538045da41d,2022-05-11_19h54.26.569,classification_task,2021.2.3,Win32,60.10699044,627c6715c52fd12f31907bd0,,,,,,,,,,,,,,,,,,,,,,,l,0,0.6321,"[""0.721"",""0.365"",""0.590"",""0.974""]","[0,1,1,1]",0,58,58,58,1,0,1,,,0,FALSE,,,,,,,,,,,,,,,,,,,,,,,,,,,,,,,
,613d25aae4f98b5e481fca50,627c76d165bc5538045da41d,2022-05-11_19h54.26.569,classification_task,2021.2.3,Win32,60.10699044,627c6715c52fd12f31907bd0,,,,,,,,,,,,,,,,,,,,,,,a,1,1.1133,"[""0.458"",""0.417"",""0.890"",""0.940""]","[0,1,1,1]",0,59,59,59,1,0,0,,,0,FALSE,,,,,,,,,,,,,,,,,,,,,,,,,,,,,,,
,613d25aae4f98b5e481fca50,627c76d165bc5538045da41d,2022-05-11_19h54.26.569,classification_task,2021.2.3,Win32,60.10699044,627c6715c52fd12f31907bd0,,,,,,,,,,,,,,,,,,,,,,,l,1,0.9652,"[""0.703"",""0.288"",""0.538"",""0.764""]","[0,1,1,1]",0,60,60,60,1,1,1,,,0,FALSE,,,,,,,,,,,,,,,,,,,,,,,,,,,,,,,
,613d25aae4f98b5e481fca50,627c76d165bc5538045da41d,2022-05-11_19h54.26.569,classification_task,2021.2.3,Win32,60.10699044,627c6715c52fd12f31907bd0,,,,,,,,,,,,,,,,,,,,,,,a,0,1.0651,"[""0.502"",""0.142"",""0.628"",""0.826""]","[0,1,1,1]",0,61,61,61,1,1,0,,,0,FALSE,,,,,,,,,,,,,,,,,,,,,,,,,,,,,,,
,613d25aae4f98b5e481fca50,627c76d165bc5538045da41d,2022-05-11_19h54.26.569,classification_task,2021.2.3,Win32,60.10699044,627c6715c52fd12f31907bd0,,,,,,,,,,,,,,,,,,,,,,,l,0,0.2993,"[""0.236"",""0.365"",""0.502"",""0.974""]","[1,1,0,1]",0,62,62,62,1,0,1,,,0,FALSE,,,,,,,,,,,,,,,,,,,,,,,,,,,,,,,
,613d25aae4f98b5e481fca50,627c76d165bc5538045da41d,2022-05-11_19h54.26.569,classification_task,2021.2.3,Win32,60.10699044,627c6715c52fd12f31907bd0,,,,,,,,,,,,,,,,,,,,,,,l,1,0.2974,"[""0.094"",""0.142"",""0.628"",""0.727""]","[1,1,1,0]",0,63,63,63,1,1,0,,,0,FALSE,,,,,,,,,,,,,,,,,,,,,,,,,,,,,,,
,613d25aae4f98b5e481fca50,627c76d165bc5538045da41d,2022-05-11_19h54.26.569,classification_task,2021.2.3,Win32,60.10699044,627c6715c52fd12f31907bd0,,,,,,,,,,,,,,,,,,,,,,,,,,,,,,,,,,,,,,,0, ,,0,0.763062169,212.3851,0,2,2,2,1,2,3,,,,,,,,,,,,,,,,,,
,613d25aae4f98b5e481fca50,627c76d165bc5538045da41d,2022-05-11_19h54.26.569,classification_task,2021.2.3,Win32,60.10699044,627c6715c52fd12f31907bd0,,,,,,,,,,,,,,,,,,,,,,,,,,,,,,,,,,,,,,,1,  ,,0,8.031305115,214.2769,0,2,2,2,1,2,3,,,,,,,,,,,,,,,,,,
,613d25aae4f98b5e481fca50,627c76d165bc5538045da41d,2022-05-11_19h54.26.569,classification_task,2021.2.3,Win32,60.10699044,627c6715c52fd12f31907bd0,,,,,,,,,,,,,,,,,,,,,,,,,,,,,,,,,,,,,,,2,  ,,0,9.994764109,216.0601,0,2,2,2,1,2,3,,,,,,,,,,,,,,,,,,
,613d25aae4f98b5e481fca50,627c76d165bc5538045da41d,2022-05-11_19h54.26.569,classification_task,2021.2.3,Win32,60.10699044,627c6715c52fd12f31907bd0,,,,,,,,,,,,,,,,,,,,,,,,,,,,,,,,,,,,,,,,,,,,,0,2,2,2,1,,3,,,,,,,,,,,,,,,,,,
,613d25aae4f98b5e481fca50,627c76d165bc5538045da41d,2022-05-11_19h54.26.569,classification_task,2021.2.3,Win32,60.10699044,627c6715c52fd12f31907bd0,,,,,,,,,,,,,,,,,,,,,,,,,,,,,,,,,,,,,,,,,,,,,,,,,,,,,I believe the aid is a competent performer,,0.7,0,3,758.9829,0,0,0,0,1,0,,,,,
,613d25aae4f98b5e481fca50,627c76d165bc5538045da41d,2022-05-11_19h54.26.569,classification_task,2021.2.3,Win32,60.10699044,627c6715c52fd12f31907bd0,,,,,,,,,,,,,,,,,,,,,,,,,,,,,,,,,,,,,,,,,,,,,,,,,,,,,I trust the aid,,0.7,0,2,761.8848,0,0,0,0,1,0,,,,,
,613d25aae4f98b5e481fca50,627c76d165bc5538045da41d,2022-05-11_19h54.26.569,classification_task,2021.2.3,Win32,60.10699044,627c6715c52fd12f31907bd0,,,,,,,,,,,,,,,,,,,,,,,,,,,,,,,,,,,,,,,,,,,,,,,,,,,,,I have confidence in the advice given by the aid,,0.7,0,2,764.7697,0,0,0,0,1,0,,,,,
,613d25aae4f98b5e481fca50,627c76d165bc5538045da41d,2022-05-11_19h54.26.569,classification_task,2021.2.3,Win32,60.10699044,627c6715c52fd12f31907bd0,,,,,,,,,,,,,,,,,,,,,,,,,,,,,,,,,,,,,,,,,,,,,,,,,,,,,I can depend on the aid,,0.7,0,2,765.9487,0,0,0,0,1,0,,,,,
,613d25aae4f98b5e481fca50,627c76d165bc5538045da41d,2022-05-11_19h54.26.569,classification_task,2021.2.3,Win32,60.10699044,627c6715c52fd12f31907bd0,,,,,,,,,,,,,,,,,,,,,,,,,,,,,,,,,,,,,,,,,,,,,,,,,,,,,I can rely on the aid to behave in consistent ways,,0.7,0,2,767.8326,0,0,0,0,1,0,,,,,
,613d25aae4f98b5e481fca50,627c76d165bc5538045da41d,2022-05-11_19h54.26.569,classification_task,2021.2.3,Win32,60.10699044,627c6715c52fd12f31907bd0,,,,,,,,,,,,,,,,,,,,,,,,,,,,,,,,,,,,,,,,,,,,,,,,,,,,,I can rely on the aid to do its best every time I take its advice,,0.7,0,3,786.8528,0,0,0,0,1,0,,,,,
,613d25aae4f98b5e481fca50,627c76d165bc5538045da41d,2022-05-11_19h54.26.569,classification_task,2021.2.3,Win32,60.10699044,627c6715c52fd12f31907bd0,,,,,,,,,,,,,,,,,,,,,,,,,,,,,,,,,,,,,,,,,,,,,,,,,,,,,"On trials you completed with assistance from the aid, how frequently did you think the aid was correct?",,0.7,0,30%,,0,0,0,0,1,0,,,,,
,613d25aae4f98b5e481fca50,627c76d165bc5538045da41d,2022-05-11_19h54.26.569,classification_task,2021.2.3,Win32,60.10699044,627c6715c52fd12f31907bd0,,,,,,,,,,,,,,,,,,,,,,,,,,,,,,,,,,,,,,,,,,,,,,,,,,,,,"On trials you completed without the aid, how frequently did you think you were correct?",,0.7,0,20%,,0,0,0,0,1,0,,,,,
,613d25aae4f98b5e481fca50,627c76d165bc5538045da41d,2022-05-11_19h54.26.569,classification_task,2021.2.3,Win32,60.10699044,627c6715c52fd12f31907bd0,,,,,,,,,,,,,,,,,,,,,,,,,,,,,,,,,,,,,,,,,,,,,,,,,,,,,,,,,,,0,0,0,0,1,,,,,,
,613d25aae4f98b5e481fca50,627c76d165bc5538045da41d,2022-05-11_19h54.26.569,classification_task,2021.2.3,Win32,60.10699044,627c6715c52fd12f31907bd0,,,,,,,,,,,,,,,,,,,,,,,,,,,,,,,,,,,,,,,,,,,,,,,,,,,,,,,,,,,,,,,,,space,8.5794,796.6955,,
,613d25aae4f98b5e481fca50,627c76d165bc5538045da41d,2022-05-11_19h54.26.569,classification_task,2021.2.3,Win32,60.10699044,627c6715c52fd12f31907bd0,,,,,,,,,,,,,,,,,,,,,,,,,,,,,,,,,,,,,,,,,,,,,,,,,,,,,,,,,,,,,,,,,,,,"Mozilla/5.0 (Windows NT 10.0; Win64; x64) AppleWebKit/537.36 (KHTML, like Gecko) Chrome/101.0.4951.54 Safari/537.36",
,613d25aae4f98b5e481fca50,627c76d165bc5538045da41d,2022-05-11_19h54.26.569,classification_task,2021.2.3,Win32,60.10699044,627c6715c52fd12f31907bd0,,,,,,,,,,,,,,,,,,,,,,,,,,,,,,,,,,,,,,,,,,,,,,,,,,,,,,,,,,,,,,,,,,,,,LOWLIGHT
