usingWebGL,participant,session,date,expName,psychopyVersion,OS,frameRate,study_id,signatures_friend,signatures_foe,band_ranges_top,band_ranges_bottom,formitemText,formtype,formundefined,formitemWidth,formindex,formresponse,formrt,key_resp_2.keys,key_resp_2.rt,tute_resp.keys,tute_resp.rt,tutorial.thisRepN,tutorial.thisTrialN,tutorial.thisN,tutorial.thisIndex,tutorial.ran,key_resp_4.keys,key_resp_4.rt,key_resp.keys,key_resp.corr,key_resp.rt,lines_presented,is_signal_presented,trials.thisRepN,trials.thisTrialN,trials.thisN,trials.thisIndex,trials.ran,vessel,active_band,lines,is_signal,supported_pos,catch_trial,debrief_formindex,debrief_formitemText,debrief_formtype,debrief_formitemWidth,debrief_formresponse,debrief_formrt,phases.thisRepN,phases.thisTrialN,phases.thisN,phases.thisIndex,phases.ran,phases.order,phase,key_resp_3.keys,trustitemText,trusttype,trustitemWidth,trustindex,trustresponse,trustrt,support_status.thisRepN,support_status.thisTrialN,support_status.thisN,support_status.thisIndex,support_status.ran,support_status.order,key_resp_5.keys,key_resp_5.rt,globalClockTime,userAgent,manualCondition
TRUE,613e9c281943d22f4b6ed4c6,627c6fbb6863809235f422cf,2022-05-11_21h24.33.281,classification_task,2021.2.3,Win32,60.0024001,627c6715c52fd12f31907bd0,,,,,,,,,,,,,,,,,,,,,,,,,,,,,,,,,,,,,,,,,,,,,,,,,,,,,,,,,,,,,,,,,,,,,
,613e9c281943d22f4b6ed4c6,627c6fbb6863809235f422cf,2022-05-11_21h24.33.281,classification_task,2021.2.3,Win32,60.0024001,627c6715c52fd12f31907bd0,"[[""0.280"",""0.360"",""0.640"",""0.938""],[""0.163"",""0.524"",""0.772"",""0.886""]]","[[""0.084"",""0.414"",""0.587"",""0.688""],[""0.129"",""0.229"",""0.468"",""0.827""]]","[1,10]","[100,1000]",Video game experience,,,0.7,0,,,,,,,,,,,,,,,,,,,,,,,,,,,,,,,,,,,,,,,,,,,,,,,,,,,,,,,,,,,,
,613e9c281943d22f4b6ed4c6,627c6fbb6863809235f422cf,2022-05-11_21h24.33.281,classification_task,2021.2.3,Win32,60.0024001,627c6715c52fd12f31907bd0,,,,,Approximately how many hours did you spend playing video games in the last week?,,,0.7,0,4,,,,,,,,,,,,,,,,,,,,,,,,,,,,,,,,,,,,,,,,,,,,,,,,,,,,,,,,,,,
,613e9c281943d22f4b6ed4c6,627c6fbb6863809235f422cf,2022-05-11_21h24.33.281,classification_task,2021.2.3,Win32,60.0024001,627c6715c52fd12f31907bd0,,,,,"Which game did you play the most this year? (Enter ""None"" if you didn't play any)",,,0.7,0,Call of Duty,,,,,,,,,,,,,,,,,,,,,,,,,,,,,,,,,,,,,,,,,,,,,,,,,,,,,,,,,,,
,613e9c281943d22f4b6ed4c6,627c6fbb6863809235f422cf,2022-05-11_21h24.33.281,classification_task,2021.2.3,Win32,60.0024001,627c6715c52fd12f31907bd0,,,,,Visual perception,,,0.7,0,,,,,,,,,,,,,,,,,,,,,,,,,,,,,,,,,,,,,,,,,,,,,,,,,,,,,,,,,,,,
,613e9c281943d22f4b6ed4c6,627c6fbb6863809235f422cf,2022-05-11_21h24.33.281,classification_task,2021.2.3,Win32,60.0024001,627c6715c52fd12f31907bd0,,,,,Do you have any form of color blindness?,,,0.7,0,No,60.503,,,,,,,,,,,,,,,,,,,,,,,,,,,,,,,,,,,,,,,,,,,,,,,,,,,,,,,,,,
,613e9c281943d22f4b6ed4c6,627c6fbb6863809235f422cf,2022-05-11_21h24.33.281,classification_task,2021.2.3,Win32,60.0024001,627c6715c52fd12f31907bd0,,,,,Do you use software to change the colour temperature of your screen (e.g. f.lux)?,,,0.7,0,No,84.476,,,,,,,,,,,,,,,,,,,,,,,,,,,,,,,,,,,,,,,,,,,,,,,,,,,,,,,,,,
,613e9c281943d22f4b6ed4c6,627c6fbb6863809235f422cf,2022-05-11_21h24.33.281,classification_task,2021.2.3,Win32,60.0024001,627c6715c52fd12f31907bd0,,,,,,,,,,,,space,243.034,space,14.423,0,0,0,0,1,,,,,,,,,,,,,,,,,,,,,,,,,,,,,,,,,,,,,,,,,,,,,,,,,
,613e9c281943d22f4b6ed4c6,627c6fbb6863809235f422cf,2022-05-11_21h24.33.281,classification_task,2021.2.3,Win32,60.0024001,627c6715c52fd12f31907bd0,,,,,,,,,,,,,,space,18.109,1,0,1,0,1,,,,,,,,,,,,,,,,,,,,,,,,,,,,,,,,,,,,,,,,,,,,,,,,,
,613e9c281943d22f4b6ed4c6,627c6fbb6863809235f422cf,2022-05-11_21h24.33.281,classification_task,2021.2.3,Win32,60.0024001,627c6715c52fd12f31907bd0,,,,,,,,,,,,,,space,39.296,2,0,2,0,1,,,,,,,,,,,,,,,,,,,,,,,,,,,,,,,,,,,,,,,,,,,,,,,,,
,613e9c281943d22f4b6ed4c6,627c6fbb6863809235f422cf,2022-05-11_21h24.33.281,classification_task,2021.2.3,Win32,60.0024001,627c6715c52fd12f31907bd0,,,,,,,,,,,,,,space,13.72,3,0,3,0,1,,,,,,,,,,,,,,,,,,,,,,,,,,,,,,,,,,,,,,,,,,,,,,,,,
,613e9c281943d22f4b6ed4c6,627c6fbb6863809235f422cf,2022-05-11_21h24.33.281,classification_task,2021.2.3,Win32,60.0024001,627c6715c52fd12f31907bd0,,,,,,,,,,,,,,space,34.765,4,0,4,0,1,,,,,,,,,,,,,,,,,,,,,,,,,,,,,,,,,,,,,,,,,,,,,,,,,
,613e9c281943d22f4b6ed4c6,627c6fbb6863809235f422cf,2022-05-11_21h24.33.281,classification_task,2021.2.3,Win32,60.0024001,627c6715c52fd12f31907bd0,,,,,,,,,,,,,,,,,,,,,space,68.802,l,1,5.451,"[""0.030"",""0.414"",""0.587"",""0.688""]","[0,1,1,1]",0,0,0,0,1,1,0,,,1,FALSE,,,,,,,,,,,,,,,,,,,,,,,,,,,,,,,
,613e9c281943d22f4b6ed4c6,627c6fbb6863809235f422cf,2022-05-11_21h24.33.281,classification_task,2021.2.3,Win32,60.0024001,627c6715c52fd12f31907bd0,,,,,,,,,,,,,,,,,,,,,,,a,1,3.601,"[""0.280"",""0.723"",""0.640"",""0.938""]","[1,0,1,1]",0,1,1,1,1,0,0,,,1,FALSE,,,,,,,,,,,,,,,,,,,,,,,,,,,,,,,
,613e9c281943d22f4b6ed4c6,627c6fbb6863809235f422cf,2022-05-11_21h24.33.281,classification_task,2021.2.3,Win32,60.0024001,627c6715c52fd12f31907bd0,,,,,,,,,,,,,,,,,,,,,,,a,1,6.053,"[""0.163"",""0.724"",""0.772"",""0.886""]","[1,0,1,1]",0,2,2,2,1,0,1,,,1,FALSE,,,,,,,,,,,,,,,,,,,,,,,,,,,,,,,
,613e9c281943d22f4b6ed4c6,627c6fbb6863809235f422cf,2022-05-11_21h24.33.281,classification_task,2021.2.3,Win32,60.0024001,627c6715c52fd12f31907bd0,,,,,,,,,,,,,,,,,,,,,,,l,1,3.131,"[""0.084"",""0.414"",""0.975"",""0.688""]","[1,1,0,1]",0,3,3,3,1,1,0,,,1,FALSE,,,,,,,,,,,,,,,,,,,,,,,,,,,,,,,
,613e9c281943d22f4b6ed4c6,627c6fbb6863809235f422cf,2022-05-11_21h24.33.281,classification_task,2021.2.3,Win32,60.0024001,627c6715c52fd12f31907bd0,,,,,,,,,,,,,,,,,,,,,,,l,1,9.689,"[""0.129"",""0.229"",""0.050"",""0.827""]","[1,1,0,1]",0,4,4,4,1,1,1,,,1,FALSE,,,,,,,,,,,,,,,,,,,,,,,,,,,,,,,
,613e9c281943d22f4b6ed4c6,627c6fbb6863809235f422cf,2022-05-11_21h24.33.281,classification_task,2021.2.3,Win32,60.0024001,627c6715c52fd12f31907bd0,,,,,,,,,,,,,,,,,,,,,,,l,0,3.087,"[""0.042"",""0.360"",""0.640"",""0.938""]","[0,1,1,1]",0,5,5,5,1,0,0,,,1,FALSE,,,,,,,,,,,,,,,,,,,,,,,,,,,,,,,
,613e9c281943d22f4b6ed4c6,627c6fbb6863809235f422cf,2022-05-11_21h24.33.281,classification_task,2021.2.3,Win32,60.0024001,627c6715c52fd12f31907bd0,,,,,,,,,,,,,,,,,,,,,,,a,1,8.706,"[""0.163"",""0.524"",""0.042"",""0.886""]","[1,1,0,1]",0,6,6,6,1,0,1,,,1,FALSE,,,,,,,,,,,,,,,,,,,,,,,,,,,,,,,
,613e9c281943d22f4b6ed4c6,627c6fbb6863809235f422cf,2022-05-11_21h24.33.281,classification_task,2021.2.3,Win32,60.0024001,627c6715c52fd12f31907bd0,,,,,,,,,,,,,,,,,,,,,,,a,1,5.932,"[""0.280"",""0.360"",""0.732"",""0.938""]","[1,1,0,1]",0,7,7,7,1,0,0,,,1,FALSE,,,,,,,,,,,,,,,,,,,,,,,,,,,,,,,
,613e9c281943d22f4b6ed4c6,627c6fbb6863809235f422cf,2022-05-11_21h24.33.281,classification_task,2021.2.3,Win32,60.0024001,627c6715c52fd12f31907bd0,,,,,,,,,,,,,,,,,,,,,,,l,1,4.155,"[""0.084"",""0.975"",""0.587"",""0.688""]","[1,0,1,1]",0,8,8,8,1,1,0,,,1,FALSE,,,,,,,,,,,,,,,,,,,,,,,,,,,,,,,
,613e9c281943d22f4b6ed4c6,627c6fbb6863809235f422cf,2022-05-11_21h24.33.281,classification_task,2021.2.3,Win32,60.0024001,627c6715c52fd12f31907bd0,,,,,,,,,,,,,,,,,,,,,,,,0,,"[""0.129"",""0.229"",""0.468"",""0.046""]","[1,1,1,0]",0,9,9,9,1,1,1,,,1,FALSE,,,,,,,,,,,,,,,,,,,,,,,,,,,,,,,
,613e9c281943d22f4b6ed4c6,627c6fbb6863809235f422cf,2022-05-11_21h24.33.281,classification_task,2021.2.3,Win32,60.0024001,627c6715c52fd12f31907bd0,,,,,,,,,,,,,,,,,,,,,,,l,1,3.996,"[""0.084"",""0.414"",""0.587"",""0.975""]","[1,1,1,0]",0,10,10,10,1,1,0,,,1,FALSE,,,,,,,,,,,,,,,,,,,,,,,,,,,,,,,
,613e9c281943d22f4b6ed4c6,627c6fbb6863809235f422cf,2022-05-11_21h24.33.281,classification_task,2021.2.3,Win32,60.0024001,627c6715c52fd12f31907bd0,,,,,,,,,,,,,,,,,,,,,,,l,0,2.019,"[""0.280"",""0.360"",""0.640"",""0.046""]","[1,1,1,0]",0,11,11,11,1,0,0,,,1,FALSE,,,,,,,,,,,,,,,,,,,,,,,,,,,,,,,
,613e9c281943d22f4b6ed4c6,627c6fbb6863809235f422cf,2022-05-11_21h24.33.281,classification_task,2021.2.3,Win32,60.0024001,627c6715c52fd12f31907bd0,,,,,,,,,,,,,,,,,,,,,,,a,0,5.862,"[""0.723"",""0.229"",""0.468"",""0.827""]","[0,1,1,1]",0,12,12,12,1,1,1,,,1,FALSE,,,,,,,,,,,,,,,,,,,,,,,,,,,,,,,
,613e9c281943d22f4b6ed4c6,627c6fbb6863809235f422cf,2022-05-11_21h24.33.281,classification_task,2021.2.3,Win32,60.0024001,627c6715c52fd12f31907bd0,,,,,,,,,,,,,,,,,,,,,,,a,1,7.912,"[""0.736"",""0.524"",""0.772"",""0.886""]","[0,1,1,1]",0,13,13,13,1,0,1,,,1,FALSE,,,,,,,,,,,,,,,,,,,,,,,,,,,,,,,
,613e9c281943d22f4b6ed4c6,627c6fbb6863809235f422cf,2022-05-11_21h24.33.281,classification_task,2021.2.3,Win32,60.0024001,627c6715c52fd12f31907bd0,,,,,,,,,,,,,,,,,,,,,,,l,1,7.388,"[""0.129"",""0.046"",""0.468"",""0.827""]","[1,0,1,1]",0,14,14,14,1,1,1,,,1,FALSE,,,,,,,,,,,,,,,,,,,,,,,,,,,,,,,
,613e9c281943d22f4b6ed4c6,627c6fbb6863809235f422cf,2022-05-11_21h24.33.281,classification_task,2021.2.3,Win32,60.0024001,627c6715c52fd12f31907bd0,,,,,,,,,,,,,,,,,,,,,,,a,1,6.986,"[""0.163"",""0.524"",""0.772"",""0.030""]","[1,1,1,0]",0,15,15,15,1,0,1,,,1,FALSE,,,,,,,,,,,,,,,,,,,,,,,,,,,,,,,
,613e9c281943d22f4b6ed4c6,627c6fbb6863809235f422cf,2022-05-11_21h24.33.281,classification_task,2021.2.3,Win32,60.0024001,627c6715c52fd12f31907bd0,,,,,,,,,,,,,,,,,,,,,,,l,0,3.276,"[""0.280"",""0.030"",""0.640"",""0.938""]","[1,0,1,1]",0,16,16,16,1,0,0,,,1,FALSE,,,,,,,,,,,,,,,,,,,,,,,,,,,,,,,
,613e9c281943d22f4b6ed4c6,627c6fbb6863809235f422cf,2022-05-11_21h24.33.281,classification_task,2021.2.3,Win32,60.0024001,627c6715c52fd12f31907bd0,,,,,,,,,,,,,,,,,,,,,,,l,1,4.073,"[""0.129"",""0.229"",""0.723"",""0.827""]","[1,1,0,1]",0,17,17,17,1,1,1,,,1,FALSE,,,,,,,,,,,,,,,,,,,,,,,,,,,,,,,
,613e9c281943d22f4b6ed4c6,627c6fbb6863809235f422cf,2022-05-11_21h24.33.281,classification_task,2021.2.3,Win32,60.0024001,627c6715c52fd12f31907bd0,,,,,,,,,,,,,,,,,,,,,,,l,1,8.107,"[""0.084"",""0.414"",""0.050"",""0.688""]","[1,1,0,1]",0,18,18,18,1,1,0,,,1,FALSE,,,,,,,,,,,,,,,,,,,,,,,,,,,,,,,
,613e9c281943d22f4b6ed4c6,627c6fbb6863809235f422cf,2022-05-11_21h24.33.281,classification_task,2021.2.3,Win32,60.0024001,627c6715c52fd12f31907bd0,,,,,,,,,,,,,,,,,,,,,,,a,1,4.137,"[""0.163"",""0.524"",""0.772"",""0.975""]","[1,1,1,0]",0,19,19,19,1,0,1,,,1,FALSE,,,,,,,,,,,,,,,,,,,,,,,,,,,,,,,
,613e9c281943d22f4b6ed4c6,627c6fbb6863809235f422cf,2022-05-11_21h24.33.281,classification_task,2021.2.3,Win32,60.0024001,627c6715c52fd12f31907bd0,,,,,,,,,,,,,,,,,,,,,,,a,1,8.405,"[""0.163"",""0.524"",""0.050"",""0.886""]","[1,1,0,1]",0,20,20,20,1,0,1,,,1,FALSE,,,,,,,,,,,,,,,,,,,,,,,,,,,,,,,
,613e9c281943d22f4b6ed4c6,627c6fbb6863809235f422cf,2022-05-11_21h24.33.281,classification_task,2021.2.3,Win32,60.0024001,627c6715c52fd12f31907bd0,,,,,,,,,,,,,,,,,,,,,,,a,0,6.003,"[""0.084"",""0.050"",""0.587"",""0.688""]","[1,0,1,1]",0,21,21,21,1,1,0,,,1,FALSE,,,,,,,,,,,,,,,,,,,,,,,,,,,,,,,
,613e9c281943d22f4b6ed4c6,627c6fbb6863809235f422cf,2022-05-11_21h24.33.281,classification_task,2021.2.3,Win32,60.0024001,627c6715c52fd12f31907bd0,,,,,,,,,,,,,,,,,,,,,,,l,1,7.31,"[""0.084"",""0.414"",""0.587"",""0.042""]","[1,1,1,0]",0,22,22,22,1,1,0,,,1,FALSE,,,,,,,,,,,,,,,,,,,,,,,,,,,,,,,
,613e9c281943d22f4b6ed4c6,627c6fbb6863809235f422cf,2022-05-11_21h24.33.281,classification_task,2021.2.3,Win32,60.0024001,627c6715c52fd12f31907bd0,,,,,,,,,,,,,,,,,,,,,,,l,1,3.598,"[""0.129"",""0.723"",""0.468"",""0.827""]","[1,0,1,1]",0,23,23,23,1,1,1,,,1,FALSE,,,,,,,,,,,,,,,,,,,,,,,,,,,,,,,
,613e9c281943d22f4b6ed4c6,627c6fbb6863809235f422cf,2022-05-11_21h24.33.281,classification_task,2021.2.3,Win32,60.0024001,627c6715c52fd12f31907bd0,,,,,,,,,,,,,,,,,,,,,,,l,1,3.735,"[""0.030"",""0.414"",""0.587"",""0.688""]","[0,1,1,1]",0,24,24,24,1,1,0,,,1,FALSE,,,,,,,,,,,,,,,,,,,,,,,,,,,,,,,
,613e9c281943d22f4b6ed4c6,627c6fbb6863809235f422cf,2022-05-11_21h24.33.281,classification_task,2021.2.3,Win32,60.0024001,627c6715c52fd12f31907bd0,,,,,,,,,,,,,,,,,,,,,,,a,1,6.615,"[""0.163"",""0.042"",""0.772"",""0.886""]","[1,0,1,1]",0,25,25,25,1,0,1,,,1,FALSE,,,,,,,,,,,,,,,,,,,,,,,,,,,,,,,
,613e9c281943d22f4b6ed4c6,627c6fbb6863809235f422cf,2022-05-11_21h24.33.281,classification_task,2021.2.3,Win32,60.0024001,627c6715c52fd12f31907bd0,,,,,,,,,,,,,,,,,,,,,,,a,1,7.175,"[""0.030"",""0.360"",""0.640"",""0.938""]","[0,1,1,1]",0,26,26,26,1,0,0,,,1,FALSE,,,,,,,,,,,,,,,,,,,,,,,,,,,,,,,
,613e9c281943d22f4b6ed4c6,627c6fbb6863809235f422cf,2022-05-11_21h24.33.281,classification_task,2021.2.3,Win32,60.0024001,627c6715c52fd12f31907bd0,,,,,,,,,,,,,,,,,,,,,,,l,1,5.228,"[""0.129"",""0.229"",""0.468"",""0.042""]","[1,1,1,0]",0,27,27,27,1,1,1,,,1,FALSE,,,,,,,,,,,,,,,,,,,,,,,,,,,,,,,
,613e9c281943d22f4b6ed4c6,627c6fbb6863809235f422cf,2022-05-11_21h24.33.281,classification_task,2021.2.3,Win32,60.0024001,627c6715c52fd12f31907bd0,,,,,,,,,,,,,,,,,,,,,,,a,1,8.356,"[""0.975"",""0.524"",""0.772"",""0.886""]","[0,1,1,1]",0,28,28,28,1,0,1,,,1,FALSE,,,,,,,,,,,,,,,,,,,,,,,,,,,,,,,
,613e9c281943d22f4b6ed4c6,627c6fbb6863809235f422cf,2022-05-11_21h24.33.281,classification_task,2021.2.3,Win32,60.0024001,627c6715c52fd12f31907bd0,,,,,,,,,,,,,,,,,,,,,,,a,1,4.796,"[""0.280"",""0.360"",""0.732"",""0.938""]","[1,1,0,1]",0,29,29,29,1,0,0,,,1,FALSE,,,,,,,,,,,,,,,,,,,,,,,,,,,,,,,
,613e9c281943d22f4b6ed4c6,627c6fbb6863809235f422cf,2022-05-11_21h24.33.281,classification_task,2021.2.3,Win32,60.0024001,627c6715c52fd12f31907bd0,,,,,,,,,,,,,,,,,,,,,,,a,1,5.747,"[""0.280"",""0.360"",""0.640"",""0.034""]","[1,1,1,0]",0,30,30,30,1,0,0,,,1,FALSE,,,,,,,,,,,,,,,,,,,,,,,,,,,,,,,
,613e9c281943d22f4b6ed4c6,627c6fbb6863809235f422cf,2022-05-11_21h24.33.281,classification_task,2021.2.3,Win32,60.0024001,627c6715c52fd12f31907bd0,,,,,,,,,,,,,,,,,,,,,,,l,1,6.311,"[""0.034"",""0.229"",""0.468"",""0.827""]","[0,1,1,1]",0,31,31,31,1,1,1,,,1,FALSE,,,,,,,,,,,,,,,,,,,,,,,,,,,,,,,
,613e9c281943d22f4b6ed4c6,627c6fbb6863809235f422cf,2022-05-11_21h24.33.281,classification_task,2021.2.3,Win32,60.0024001,627c6715c52fd12f31907bd0,,,,,,,,,,,,,,,,,,,,,,,a,0,5.172,"[""0.084"",""0.414"",""0.587"",""0.325""]","[1,1,1,0]",0,32,32,32,1,1,0,,,1,FALSE,,,,,,,,,,,,,,,,,,,,,,,,,,,,,,,
,613e9c281943d22f4b6ed4c6,627c6fbb6863809235f422cf,2022-05-11_21h24.33.281,classification_task,2021.2.3,Win32,60.0024001,627c6715c52fd12f31907bd0,,,,,,,,,,,,,,,,,,,,,,,l,0,7.05,"[""0.046"",""0.524"",""0.772"",""0.886""]","[0,1,1,1]",0,33,33,33,1,0,1,,,1,FALSE,,,,,,,,,,,,,,,,,,,,,,,,,,,,,,,
,613e9c281943d22f4b6ed4c6,627c6fbb6863809235f422cf,2022-05-11_21h24.33.281,classification_task,2021.2.3,Win32,60.0024001,627c6715c52fd12f31907bd0,,,,,,,,,,,,,,,,,,,,,,,l,0,2.415,"[""0.163"",""0.524"",""0.732"",""0.886""]","[1,1,0,1]",0,34,34,34,1,0,1,,,1,FALSE,,,,,,,,,,,,,,,,,,,,,,,,,,,,,,,
,613e9c281943d22f4b6ed4c6,627c6fbb6863809235f422cf,2022-05-11_21h24.33.281,classification_task,2021.2.3,Win32,60.0024001,627c6715c52fd12f31907bd0,,,,,,,,,,,,,,,,,,,,,,,a,0,3.24,"[""0.046"",""0.414"",""0.587"",""0.688""]","[0,1,1,1]",0,35,35,35,1,1,0,,,1,FALSE,,,,,,,,,,,,,,,,,,,,,,,,,,,,,,,
,613e9c281943d22f4b6ed4c6,627c6fbb6863809235f422cf,2022-05-11_21h24.33.281,classification_task,2021.2.3,Win32,60.0024001,627c6715c52fd12f31907bd0,,,,,,,,,,,,,,,,,,,,,,,a,0,1.783,"[""0.129"",""0.229"",""0.468"",""0.732""]","[1,1,1,0]",0,36,36,36,1,1,1,,,1,FALSE,,,,,,,,,,,,,,,,,,,,,,,,,,,,,,,
,613e9c281943d22f4b6ed4c6,627c6fbb6863809235f422cf,2022-05-11_21h24.33.281,classification_task,2021.2.3,Win32,60.0024001,627c6715c52fd12f31907bd0,,,,,,,,,,,,,,,,,,,,,,,l,1,3.312,"[""0.129"",""0.050"",""0.468"",""0.827""]","[1,0,1,1]",0,37,37,37,1,1,1,,,1,FALSE,,,,,,,,,,,,,,,,,,,,,,,,,,,,,,,
,613e9c281943d22f4b6ed4c6,627c6fbb6863809235f422cf,2022-05-11_21h24.33.281,classification_task,2021.2.3,Win32,60.0024001,627c6715c52fd12f31907bd0,,,,,,,,,,,,,,,,,,,,,,,l,1,2.784,"[""0.738"",""0.229"",""0.468"",""0.827""]","[0,1,1,1]",0,38,38,38,1,1,1,,,1,FALSE,,,,,,,,,,,,,,,,,,,,,,,,,,,,,,,
,613e9c281943d22f4b6ed4c6,627c6fbb6863809235f422cf,2022-05-11_21h24.33.281,classification_task,2021.2.3,Win32,60.0024001,627c6715c52fd12f31907bd0,,,,,,,,,,,,,,,,,,,,,,,a,1,3.762,"[""0.163"",""0.524"",""0.772"",""0.724""]","[1,1,1,0]",0,39,39,39,1,0,1,,,1,FALSE,,,,,,,,,,,,,,,,,,,,,,,,,,,,,,,
,613e9c281943d22f4b6ed4c6,627c6fbb6863809235f422cf,2022-05-11_21h24.33.281,classification_task,2021.2.3,Win32,60.0024001,627c6715c52fd12f31907bd0,,,,,,,,,,,,,,,,,,,,,,,l,0,2.63,"[""0.280"",""0.360"",""0.640"",""0.975""]","[1,1,1,0]",0,40,40,40,1,0,0,,,1,FALSE,,,,,,,,,,,,,,,,,,,,,,,,,,,,,,,
,613e9c281943d22f4b6ed4c6,627c6fbb6863809235f422cf,2022-05-11_21h24.33.281,classification_task,2021.2.3,Win32,60.0024001,627c6715c52fd12f31907bd0,,,,,,,,,,,,,,,,,,,,,,,l,0,1.703,"[""0.280"",""0.975"",""0.640"",""0.938""]","[1,0,1,1]",0,41,41,41,1,0,0,,,1,FALSE,,,,,,,,,,,,,,,,,,,,,,,,,,,,,,,
,613e9c281943d22f4b6ed4c6,627c6fbb6863809235f422cf,2022-05-11_21h24.33.281,classification_task,2021.2.3,Win32,60.0024001,627c6715c52fd12f31907bd0,,,,,,,,,,,,,,,,,,,,,,,l,0,1.359,"[""0.050"",""0.360"",""0.640"",""0.938""]","[0,1,1,1]",0,42,42,42,1,0,0,,,1,FALSE,,,,,,,,,,,,,,,,,,,,,,,,,,,,,,,
,613e9c281943d22f4b6ed4c6,627c6fbb6863809235f422cf,2022-05-11_21h24.33.281,classification_task,2021.2.3,Win32,60.0024001,627c6715c52fd12f31907bd0,,,,,,,,,,,,,,,,,,,,,,,a,0,2.16,"[""0.084"",""0.414"",""0.724"",""0.688""]","[1,1,0,1]",0,43,43,43,1,1,0,,,1,FALSE,,,,,,,,,,,,,,,,,,,,,,,,,,,,,,,
,613e9c281943d22f4b6ed4c6,627c6fbb6863809235f422cf,2022-05-11_21h24.33.281,classification_task,2021.2.3,Win32,60.0024001,627c6715c52fd12f31907bd0,,,,,,,,,,,,,,,,,,,,,,,a,1,1.219,"[""0.280"",""0.360"",""0.046"",""0.938""]","[1,1,0,1]",0,44,44,44,1,0,0,,,1,FALSE,,,,,,,,,,,,,,,,,,,,,,,,,,,,,,,
,613e9c281943d22f4b6ed4c6,627c6fbb6863809235f422cf,2022-05-11_21h24.33.281,classification_task,2021.2.3,Win32,60.0024001,627c6715c52fd12f31907bd0,,,,,,,,,,,,,,,,,,,,,,,a,0,2.072,"[""0.129"",""0.229"",""0.045"",""0.827""]","[1,1,0,1]",0,45,45,45,1,1,1,,,1,FALSE,,,,,,,,,,,,,,,,,,,,,,,,,,,,,,,
,613e9c281943d22f4b6ed4c6,627c6fbb6863809235f422cf,2022-05-11_21h24.33.281,classification_task,2021.2.3,Win32,60.0024001,627c6715c52fd12f31907bd0,,,,,,,,,,,,,,,,,,,,,,,l,1,1.622,"[""0.084"",""0.731"",""0.587"",""0.688""]","[1,0,1,1]",0,46,46,46,1,1,0,,,1,FALSE,,,,,,,,,,,,,,,,,,,,,,,,,,,,,,,
,613e9c281943d22f4b6ed4c6,627c6fbb6863809235f422cf,2022-05-11_21h24.33.281,classification_task,2021.2.3,Win32,60.0024001,627c6715c52fd12f31907bd0,,,,,,,,,,,,,,,,,,,,,,,l,0,3.371,"[""0.163"",""0.724"",""0.772"",""0.886""]","[1,0,1,1]",0,47,47,47,1,0,1,,,1,FALSE,,,,,,,,,,,,,,,,,,,,,,,,,,,,,,,
,613e9c281943d22f4b6ed4c6,627c6fbb6863809235f422cf,2022-05-11_21h24.33.281,classification_task,2021.2.3,Win32,60.0024001,627c6715c52fd12f31907bd0,,,,,,,,,,,,,,,,,,,,,,,a,1,1.24,"[""0.163"",""0.524"",""0.772"",""0.042""]","[1,1,1,0]",0,48,48,48,1,0,1,,,1,FALSE,,,,,,,,,,,,,,,,,,,,,,,,,,,,,,,
,613e9c281943d22f4b6ed4c6,627c6fbb6863809235f422cf,2022-05-11_21h24.33.281,classification_task,2021.2.3,Win32,60.0024001,627c6715c52fd12f31907bd0,,,,,,,,,,,,,,,,,,,,,,,a,1,1.556,"[""0.163"",""0.524"",""0.030"",""0.886""]","[1,1,0,1]",0,49,49,49,1,0,1,,,1,FALSE,,,,,,,,,,,,,,,,,,,,,,,,,,,,,,,
,613e9c281943d22f4b6ed4c6,627c6fbb6863809235f422cf,2022-05-11_21h24.33.281,classification_task,2021.2.3,Win32,60.0024001,627c6715c52fd12f31907bd0,,,,,,,,,,,,,,,,,,,,,,,l,0,1.988,"[""0.731"",""0.524"",""0.772"",""0.886""]","[0,1,1,1]",0,50,50,50,1,0,1,,,1,FALSE,,,,,,,,,,,,,,,,,,,,,,,,,,,,,,,
,613e9c281943d22f4b6ed4c6,627c6fbb6863809235f422cf,2022-05-11_21h24.33.281,classification_task,2021.2.3,Win32,60.0024001,627c6715c52fd12f31907bd0,,,,,,,,,,,,,,,,,,,,,,,a,0,1.83,"[""0.084"",""0.046"",""0.587"",""0.688""]","[1,0,1,1]",0,51,51,51,1,1,0,,,1,FALSE,,,,,,,,,,,,,,,,,,,,,,,,,,,,,,,
,613e9c281943d22f4b6ed4c6,627c6fbb6863809235f422cf,2022-05-11_21h24.33.281,classification_task,2021.2.3,Win32,60.0024001,627c6715c52fd12f31907bd0,,,,,,,,,,,,,,,,,,,,,,,a,0,1.686,"[""0.731"",""0.229"",""0.468"",""0.827""]","[0,1,1,1]",0,52,52,52,1,1,1,,,1,FALSE,,,,,,,,,,,,,,,,,,,,,,,,,,,,,,,
,613e9c281943d22f4b6ed4c6,627c6fbb6863809235f422cf,2022-05-11_21h24.33.281,classification_task,2021.2.3,Win32,60.0024001,627c6715c52fd12f31907bd0,,,,,,,,,,,,,,,,,,,,,,,l,0,1.241,"[""0.280"",""0.733"",""0.640"",""0.938""]","[1,0,1,1]",0,53,53,53,1,0,0,,,1,FALSE,,,,,,,,,,,,,,,,,,,,,,,,,,,,,,,
,613e9c281943d22f4b6ed4c6,627c6fbb6863809235f422cf,2022-05-11_21h24.33.281,classification_task,2021.2.3,Win32,60.0024001,627c6715c52fd12f31907bd0,,,,,,,,,,,,,,,,,,,,,,,l,0,1.502,"[""0.738"",""0.360"",""0.640"",""0.938""]","[0,1,1,1]",0,54,54,54,1,0,0,,,1,FALSE,,,,,,,,,,,,,,,,,,,,,,,,,,,,,,,
,613e9c281943d22f4b6ed4c6,627c6fbb6863809235f422cf,2022-05-11_21h24.33.281,classification_task,2021.2.3,Win32,60.0024001,627c6715c52fd12f31907bd0,,,,,,,,,,,,,,,,,,,,,,,a,1,1.977,"[""0.280"",""0.360"",""0.640"",""0.733""]","[1,1,1,0]",0,55,55,55,1,0,0,,,1,FALSE,,,,,,,,,,,,,,,,,,,,,,,,,,,,,,,
,613e9c281943d22f4b6ed4c6,627c6fbb6863809235f422cf,2022-05-11_21h24.33.281,classification_task,2021.2.3,Win32,60.0024001,627c6715c52fd12f31907bd0,,,,,,,,,,,,,,,,,,,,,,,a,0,1.41,"[""0.732"",""0.414"",""0.587"",""0.688""]","[0,1,1,1]",0,56,56,56,1,1,0,,,1,FALSE,,,,,,,,,,,,,,,,,,,,,,,,,,,,,,,
,613e9c281943d22f4b6ed4c6,627c6fbb6863809235f422cf,2022-05-11_21h24.33.281,classification_task,2021.2.3,Win32,60.0024001,627c6715c52fd12f31907bd0,,,,,,,,,,,,,,,,,,,,,,,a,1,1.171,"[""0.163"",""0.733"",""0.772"",""0.886""]","[1,0,1,1]",0,57,57,57,1,0,1,,,1,FALSE,,,,,,,,,,,,,,,,,,,,,,,,,,,,,,,
,613e9c281943d22f4b6ed4c6,627c6fbb6863809235f422cf,2022-05-11_21h24.33.281,classification_task,2021.2.3,Win32,60.0024001,627c6715c52fd12f31907bd0,,,,,,,,,,,,,,,,,,,,,,,a,0,1.334,"[""0.084"",""0.414"",""0.587"",""0.732""]","[1,1,1,0]",0,58,58,58,1,1,0,,,1,FALSE,,,,,,,,,,,,,,,,,,,,,,,,,,,,,,,
,613e9c281943d22f4b6ed4c6,627c6fbb6863809235f422cf,2022-05-11_21h24.33.281,classification_task,2021.2.3,Win32,60.0024001,627c6715c52fd12f31907bd0,,,,,,,,,,,,,,,,,,,,,,,l,1,1.271,"[""0.084"",""0.414"",""0.045"",""0.688""]","[1,1,0,1]",0,59,59,59,1,1,0,,,1,FALSE,,,,,,,,,,,,,,,,,,,,,,,,,,,,,,,
,613e9c281943d22f4b6ed4c6,627c6fbb6863809235f422cf,2022-05-11_21h24.33.281,classification_task,2021.2.3,Win32,60.0024001,627c6715c52fd12f31907bd0,,,,,,,,,,,,,,,,,,,,,,,l,1,1.534,"[""0.129"",""0.325"",""0.468"",""0.827""]","[1,0,1,1]",0,60,60,60,1,1,1,,,1,FALSE,,,,,,,,,,,,,,,,,,,,,,,,,,,,,,,
,613e9c281943d22f4b6ed4c6,627c6fbb6863809235f422cf,2022-05-11_21h24.33.281,classification_task,2021.2.3,Win32,60.0024001,627c6715c52fd12f31907bd0,,,,,,,,,,,,,,,,,,,,,,,a,1,1.101,"[""0.280"",""0.360"",""0.736"",""0.938""]","[1,1,0,1]",0,61,61,61,1,0,0,,,1,FALSE,,,,,,,,,,,,,,,,,,,,,,,,,,,,,,,
,613e9c281943d22f4b6ed4c6,627c6fbb6863809235f422cf,2022-05-11_21h24.33.281,classification_task,2021.2.3,Win32,60.0024001,627c6715c52fd12f31907bd0,,,,,,,,,,,,,,,,,,,,,,,a,0,1.39,"[""0.129"",""0.229"",""0.736"",""0.827""]","[1,1,0,1]",0,62,62,62,1,1,1,,,1,FALSE,,,,,,,,,,,,,,,,,,,,,,,,,,,,,,,
,613e9c281943d22f4b6ed4c6,627c6fbb6863809235f422cf,2022-05-11_21h24.33.281,classification_task,2021.2.3,Win32,60.0024001,627c6715c52fd12f31907bd0,,,,,,,,,,,,,,,,,,,,,,,a,0,1.752,"[""0.129"",""0.229"",""0.468"",""0.030""]","[1,1,1,0]",0,63,63,63,1,1,1,,,1,FALSE,,,,,,,,,,,,,,,,,,,,,,,,,,,,,,,
,613e9c281943d22f4b6ed4c6,627c6fbb6863809235f422cf,2022-05-11_21h24.33.281,classification_task,2021.2.3,Win32,60.0024001,627c6715c52fd12f31907bd0,,,,,,,,,,,,,,,,,,,,,,,,,,,,,,,,,,,,,,,0, ,,0,10,902.033,0,0,0,0,1,2,1,,,,,,,,,,,,,,,,,,
,613e9c281943d22f4b6ed4c6,627c6fbb6863809235f422cf,2022-05-11_21h24.33.281,classification_task,2021.2.3,Win32,60.0024001,627c6715c52fd12f31907bd0,,,,,,,,,,,,,,,,,,,,,,,,,,,,,,,,,,,,,,,1,  ,,0,4.552193563,894.483,0,0,0,0,1,2,1,,,,,,,,,,,,,,,,,,
,613e9c281943d22f4b6ed4c6,627c6fbb6863809235f422cf,2022-05-11_21h24.33.281,classification_task,2021.2.3,Win32,60.0024001,627c6715c52fd12f31907bd0,,,,,,,,,,,,,,,,,,,,,,,,,,,,,,,,,,,,,,,2,  ,,0,5.861166226,912.528,0,0,0,0,1,2,1,,,,,,,,,,,,,,,,,,
,613e9c281943d22f4b6ed4c6,627c6fbb6863809235f422cf,2022-05-11_21h24.33.281,classification_task,2021.2.3,Win32,60.0024001,627c6715c52fd12f31907bd0,,,,,,,,,,,,,,,,,,,,,,,,,,,,,,,,,,,,,,,,,,,,,0,0,0,0,1,,1,,,,,,,,,,,,,,,,,,
,613e9c281943d22f4b6ed4c6,627c6fbb6863809235f422cf,2022-05-11_21h24.33.281,classification_task,2021.2.3,Win32,60.0024001,627c6715c52fd12f31907bd0,,,,,,,,,,,,,,,,,,,,,space,15.516,l,1,8.414,"[""0.084"",""0.414"",""0.733"",""0.688""]","[1,1,0,1]",0,0,0,0,1,1,0,,,1,FALSE,,,,,,,,,,,,,,,,,,,,,,,,,,,,,,,
,613e9c281943d22f4b6ed4c6,627c6fbb6863809235f422cf,2022-05-11_21h24.33.281,classification_task,2021.2.3,Win32,60.0024001,627c6715c52fd12f31907bd0,,,,,,,,,,,,,,,,,,,,,,,a,1,2.711,"[""0.325"",""0.360"",""0.640"",""0.938""]","[0,1,1,1]",0,1,1,1,1,0,0,,,1,FALSE,,,,,,,,,,,,,,,,,,,,,,,,,,,,,,,
,613e9c281943d22f4b6ed4c6,627c6fbb6863809235f422cf,2022-05-11_21h24.33.281,classification_task,2021.2.3,Win32,60.0024001,627c6715c52fd12f31907bd0,,,,,,,,,,,,,,,,,,,,,,,a,1,2.894,"[""0.280"",""0.360"",""0.046"",""0.938""]","[1,1,0,1]",0,2,2,2,1,0,0,,,1,FALSE,,,,,,,,,,,,,,,,,,,,,,,,,,,,,,,
,613e9c281943d22f4b6ed4c6,627c6fbb6863809235f422cf,2022-05-11_21h24.33.281,classification_task,2021.2.3,Win32,60.0024001,627c6715c52fd12f31907bd0,,,,,,,,,,,,,,,,,,,,,,,l,1,3,"[""0.738"",""0.414"",""0.587"",""0.688""]","[0,1,1,1]",0,3,3,3,1,1,0,,,1,FALSE,,,,,,,,,,,,,,,,,,,,,,,,,,,,,,,
,613e9c281943d22f4b6ed4c6,627c6fbb6863809235f422cf,2022-05-11_21h24.33.281,classification_task,2021.2.3,Win32,60.0024001,627c6715c52fd12f31907bd0,,,,,,,,,,,,,,,,,,,,,,,a,1,2,"[""0.163"",""0.524"",""0.772"",""0.045""]","[1,1,1,0]",0,4,4,4,1,0,1,,,1,FALSE,,,,,,,,,,,,,,,,,,,,,,,,,,,,,,,
,613e9c281943d22f4b6ed4c6,627c6fbb6863809235f422cf,2022-05-11_21h24.33.281,classification_task,2021.2.3,Win32,60.0024001,627c6715c52fd12f31907bd0,,,,,,,,,,,,,,,,,,,,,,,a,1,2.452,"[""0.280"",""0.360"",""0.640"",""0.042""]","[1,1,1,0]",0,5,5,5,1,0,0,,,1,FALSE,,,,,,,,,,,,,,,,,,,,,,,,,,,,,,,
,613e9c281943d22f4b6ed4c6,627c6fbb6863809235f422cf,2022-05-11_21h24.33.281,classification_task,2021.2.3,Win32,60.0024001,627c6715c52fd12f31907bd0,,,,,,,,,,,,,,,,,,,,,,,l,1,1.093,"[""0.738"",""0.229"",""0.468"",""0.827""]","[0,1,1,1]",0,6,6,6,1,1,1,,,1,FALSE,,,,,,,,,,,,,,,,,,,,,,,,,,,,,,,
,613e9c281943d22f4b6ed4c6,627c6fbb6863809235f422cf,2022-05-11_21h24.33.281,classification_task,2021.2.3,Win32,60.0024001,627c6715c52fd12f31907bd0,,,,,,,,,,,,,,,,,,,,,,,a,0,1.953,"[""0.084"",""0.046"",""0.587"",""0.688""]","[1,0,1,1]",0,7,7,7,1,1,0,,,1,FALSE,,,,,,,,,,,,,,,,,,,,,,,,,,,,,,,
,613e9c281943d22f4b6ed4c6,627c6fbb6863809235f422cf,2022-05-11_21h24.33.281,classification_task,2021.2.3,Win32,60.0024001,627c6715c52fd12f31907bd0,,,,,,,,,,,,,,,,,,,,,,,l,1,1.169,"[""0.084"",""0.414"",""0.587"",""0.034""]","[1,1,1,0]",0,8,8,8,1,1,0,,,1,FALSE,,,,,,,,,,,,,,,,,,,,,,,,,,,,,,,
,613e9c281943d22f4b6ed4c6,627c6fbb6863809235f422cf,2022-05-11_21h24.33.281,classification_task,2021.2.3,Win32,60.0024001,627c6715c52fd12f31907bd0,,,,,,,,,,,,,,,,,,,,,,,l,1,0.926,"[""0.129"",""0.229"",""0.468"",""0.045""]","[1,1,1,0]",0,9,9,9,1,1,1,,,1,FALSE,,,,,,,,,,,,,,,,,,,,,,,,,,,,,,,
,613e9c281943d22f4b6ed4c6,627c6fbb6863809235f422cf,2022-05-11_21h24.33.281,classification_task,2021.2.3,Win32,60.0024001,627c6715c52fd12f31907bd0,,,,,,,,,,,,,,,,,,,,,,,a,1,0.921,"[""0.163"",""0.733"",""0.772"",""0.886""]","[1,0,1,1]",0,10,10,10,1,0,1,,,1,FALSE,,,,,,,,,,,,,,,,,,,,,,,,,,,,,,,
,613e9c281943d22f4b6ed4c6,627c6fbb6863809235f422cf,2022-05-11_21h24.33.281,classification_task,2021.2.3,Win32,60.0024001,627c6715c52fd12f31907bd0,,,,,,,,,,,,,,,,,,,,,,,a,1,0.807,"[""0.163"",""0.524"",""0.975"",""0.886""]","[1,1,0,1]",0,11,11,11,1,0,1,,,1,FALSE,,,,,,,,,,,,,,,,,,,,,,,,,,,,,,,
,613e9c281943d22f4b6ed4c6,627c6fbb6863809235f422cf,2022-05-11_21h24.33.281,classification_task,2021.2.3,Win32,60.0024001,627c6715c52fd12f31907bd0,,,,,,,,,,,,,,,,,,,,,,,l,0,1.431,"[""0.280"",""0.732"",""0.640"",""0.938""]","[1,0,1,1]",0,12,12,12,1,0,0,,,1,FALSE,,,,,,,,,,,,,,,,,,,,,,,,,,,,,,,
,613e9c281943d22f4b6ed4c6,627c6fbb6863809235f422cf,2022-05-11_21h24.33.281,classification_task,2021.2.3,Win32,60.0024001,627c6715c52fd12f31907bd0,,,,,,,,,,,,,,,,,,,,,,,a,1,0.706,"[""0.325"",""0.524"",""0.772"",""0.886""]","[0,1,1,1]",0,13,13,13,1,0,1,,,1,FALSE,,,,,,,,,,,,,,,,,,,,,,,,,,,,,,,
,613e9c281943d22f4b6ed4c6,627c6fbb6863809235f422cf,2022-05-11_21h24.33.281,classification_task,2021.2.3,Win32,60.0024001,627c6715c52fd12f31907bd0,,,,,,,,,,,,,,,,,,,,,,,l,1,0.655,"[""0.129"",""0.723"",""0.468"",""0.827""]","[1,0,1,1]",0,14,14,14,1,1,1,,,1,FALSE,,,,,,,,,,,,,,,,,,,,,,,,,,,,,,,
,613e9c281943d22f4b6ed4c6,627c6fbb6863809235f422cf,2022-05-11_21h24.33.281,classification_task,2021.2.3,Win32,60.0024001,627c6715c52fd12f31907bd0,,,,,,,,,,,,,,,,,,,,,,,l,1,0.639,"[""0.129"",""0.229"",""0.045"",""0.827""]","[1,1,0,1]",0,15,15,15,1,1,1,,,1,FALSE,,,,,,,,,,,,,,,,,,,,,,,,,,,,,,,
,613e9c281943d22f4b6ed4c6,627c6fbb6863809235f422cf,2022-05-11_21h24.33.281,classification_task,2021.2.3,Win32,60.0024001,627c6715c52fd12f31907bd0,,,,,,,,,,,,,,,,,,,,,,,l,1,0.561,"[""0.129"",""0.229"",""0.975"",""0.827""]","[1,1,0,1]",0,16,16,16,1,1,1,,,1,FALSE,,,,,,,,,,,,,,,,,,,,,,,,,,,,,,,
,613e9c281943d22f4b6ed4c6,627c6fbb6863809235f422cf,2022-05-11_21h24.33.281,classification_task,2021.2.3,Win32,60.0024001,627c6715c52fd12f31907bd0,,,,,,,,,,,,,,,,,,,,,,,a,1,0.998,"[""0.280"",""0.360"",""0.640"",""0.724""]","[1,1,1,0]",0,17,17,17,1,0,0,,,1,FALSE,,,,,,,,,,,,,,,,,,,,,,,,,,,,,,,
,613e9c281943d22f4b6ed4c6,627c6fbb6863809235f422cf,2022-05-11_21h24.33.281,classification_task,2021.2.3,Win32,60.0024001,627c6715c52fd12f31907bd0,,,,,,,,,,,,,,,,,,,,,,,a,0,0.924,"[""0.084"",""0.414"",""0.723"",""0.688""]","[1,1,0,1]",0,18,18,18,1,1,0,,,1,FALSE,,,,,,,,,,,,,,,,,,,,,,,,,,,,,,,
,613e9c281943d22f4b6ed4c6,627c6fbb6863809235f422cf,2022-05-11_21h24.33.281,classification_task,2021.2.3,Win32,60.0024001,627c6715c52fd12f31907bd0,,,,,,,,,,,,,,,,,,,,,,,l,1,0.717,"[""0.129"",""0.034"",""0.468"",""0.827""]","[1,0,1,1]",0,19,19,19,1,1,1,,,1,FALSE,,,,,,,,,,,,,,,,,,,,,,,,,,,,,,,
,613e9c281943d22f4b6ed4c6,627c6fbb6863809235f422cf,2022-05-11_21h24.33.281,classification_task,2021.2.3,Win32,60.0024001,627c6715c52fd12f31907bd0,,,,,,,,,,,,,,,,,,,,,,,a,1,0.668,"[""0.736"",""0.524"",""0.772"",""0.886""]","[0,1,1,1]",0,20,20,20,1,0,1,,,1,FALSE,,,,,,,,,,,,,,,,,,,,,,,,,,,,,,,
,613e9c281943d22f4b6ed4c6,627c6fbb6863809235f422cf,2022-05-11_21h24.33.281,classification_task,2021.2.3,Win32,60.0024001,627c6715c52fd12f31907bd0,,,,,,,,,,,,,,,,,,,,,,,a,1,0.588,"[""0.163"",""0.524"",""0.738"",""0.886""]","[1,1,0,1]",0,21,21,21,1,0,1,,,1,FALSE,,,,,,,,,,,,,,,,,,,,,,,,,,,,,,,
,613e9c281943d22f4b6ed4c6,627c6fbb6863809235f422cf,2022-05-11_21h24.33.281,classification_task,2021.2.3,Win32,60.0024001,627c6715c52fd12f31907bd0,,,,,,,,,,,,,,,,,,,,,,,a,1,0.757,"[""0.163"",""0.732"",""0.772"",""0.886""]","[1,0,1,1]",0,22,22,22,1,0,1,,,1,FALSE,,,,,,,,,,,,,,,,,,,,,,,,,,,,,,,
,613e9c281943d22f4b6ed4c6,627c6fbb6863809235f422cf,2022-05-11_21h24.33.281,classification_task,2021.2.3,Win32,60.0024001,627c6715c52fd12f31907bd0,,,,,,,,,,,,,,,,,,,,,,,l,0,0.906,"[""0.030"",""0.360"",""0.640"",""0.938""]","[0,1,1,1]",0,23,23,23,1,0,0,,,1,FALSE,,,,,,,,,,,,,,,,,,,,,,,,,,,,,,,
,613e9c281943d22f4b6ed4c6,627c6fbb6863809235f422cf,2022-05-11_21h24.33.281,classification_task,2021.2.3,Win32,60.0024001,627c6715c52fd12f31907bd0,,,,,,,,,,,,,,,,,,,,,,,a,0,0.881,"[""0.723"",""0.414"",""0.587"",""0.688""]","[0,1,1,1]",0,24,24,24,1,1,0,,,1,FALSE,,,,,,,,,,,,,,,,,,,,,,,,,,,,,,,
,613e9c281943d22f4b6ed4c6,627c6fbb6863809235f422cf,2022-05-11_21h24.33.281,classification_task,2021.2.3,Win32,60.0024001,627c6715c52fd12f31907bd0,,,,,,,,,,,,,,,,,,,,,,,a,1,0.76,"[""0.163"",""0.524"",""0.772"",""0.046""]","[1,1,1,0]",0,25,25,25,1,0,1,,,1,FALSE,,,,,,,,,,,,,,,,,,,,,,,,,,,,,,,
,613e9c281943d22f4b6ed4c6,627c6fbb6863809235f422cf,2022-05-11_21h24.33.281,classification_task,2021.2.3,Win32,60.0024001,627c6715c52fd12f31907bd0,,,,,,,,,,,,,,,,,,,,,,,a,1,0.933,"[""0.280"",""0.360"",""0.045"",""0.938""]","[1,1,0,1]",0,26,26,26,1,0,0,,,1,FALSE,,,,,,,,,,,,,,,,,,,,,,,,,,,,,,,
,613e9c281943d22f4b6ed4c6,627c6fbb6863809235f422cf,2022-05-11_21h24.33.281,classification_task,2021.2.3,Win32,60.0024001,627c6715c52fd12f31907bd0,,,,,,,,,,,,,,,,,,,,,,,l,0,1.002,"[""0.280"",""0.045"",""0.640"",""0.938""]","[1,0,1,1]",0,27,27,27,1,0,0,,,1,FALSE,,,,,,,,,,,,,,,,,,,,,,,,,,,,,,,
,613e9c281943d22f4b6ed4c6,627c6fbb6863809235f422cf,2022-05-11_21h24.33.281,classification_task,2021.2.3,Win32,60.0024001,627c6715c52fd12f31907bd0,,,,,,,,,,,,,,,,,,,,,,,a,0,0.764,"[""0.084"",""0.975"",""0.587"",""0.688""]","[1,0,1,1]",0,28,28,28,1,1,0,,,1,FALSE,,,,,,,,,,,,,,,,,,,,,,,,,,,,,,,
,613e9c281943d22f4b6ed4c6,627c6fbb6863809235f422cf,2022-05-11_21h24.33.281,classification_task,2021.2.3,Win32,60.0024001,627c6715c52fd12f31907bd0,,,,,,,,,,,,,,,,,,,,,,,l,1,0.797,"[""0.084"",""0.414"",""0.587"",""0.731""]","[1,1,1,0]",0,29,29,29,1,1,0,,,1,FALSE,,,,,,,,,,,,,,,,,,,,,,,,,,,,,,,
,613e9c281943d22f4b6ed4c6,627c6fbb6863809235f422cf,2022-05-11_21h24.33.281,classification_task,2021.2.3,Win32,60.0024001,627c6715c52fd12f31907bd0,,,,,,,,,,,,,,,,,,,,,,,l,1,0.621,"[""0.129"",""0.229"",""0.468"",""0.050""]","[1,1,1,0]",0,30,30,30,1,1,1,,,1,FALSE,,,,,,,,,,,,,,,,,,,,,,,,,,,,,,,
,613e9c281943d22f4b6ed4c6,627c6fbb6863809235f422cf,2022-05-11_21h24.33.281,classification_task,2021.2.3,Win32,60.0024001,627c6715c52fd12f31907bd0,,,,,,,,,,,,,,,,,,,,,,,l,1,0.702,"[""0.733"",""0.229"",""0.468"",""0.827""]","[0,1,1,1]",0,31,31,31,1,1,1,,,1,FALSE,,,,,,,,,,,,,,,,,,,,,,,,,,,,,,,
,613e9c281943d22f4b6ed4c6,627c6fbb6863809235f422cf,2022-05-11_21h24.33.281,classification_task,2021.2.3,Win32,60.0024001,627c6715c52fd12f31907bd0,,,,,,,,,,,,,,,,,,,,,,,a,1,0.686,"[""0.163"",""0.524"",""0.030"",""0.886""]","[1,1,0,1]",0,32,32,32,1,0,1,,,1,FALSE,,,,,,,,,,,,,,,,,,,,,,,,,,,,,,,
,613e9c281943d22f4b6ed4c6,627c6fbb6863809235f422cf,2022-05-11_21h24.33.281,classification_task,2021.2.3,Win32,60.0024001,627c6715c52fd12f31907bd0,,,,,,,,,,,,,,,,,,,,,,,l,1,0.729,"[""0.129"",""0.229"",""0.468"",""0.050""]","[1,1,1,0]",0,33,33,33,1,1,1,,,1,FALSE,,,,,,,,,,,,,,,,,,,,,,,,,,,,,,,
,613e9c281943d22f4b6ed4c6,627c6fbb6863809235f422cf,2022-05-11_21h24.33.281,classification_task,2021.2.3,Win32,60.0024001,627c6715c52fd12f31907bd0,,,,,,,,,,,,,,,,,,,,,,,l,0,1.064,"[""0.280"",""0.360"",""0.640"",""0.034""]","[1,1,1,0]",0,34,34,34,1,0,0,,,1,FALSE,,,,,,,,,,,,,,,,,,,,,,,,,,,,,,,
,613e9c281943d22f4b6ed4c6,627c6fbb6863809235f422cf,2022-05-11_21h24.33.281,classification_task,2021.2.3,Win32,60.0024001,627c6715c52fd12f31907bd0,,,,,,,,,,,,,,,,,,,,,,,a,1,0.92,"[""0.163"",""0.524"",""0.772"",""0.045""]","[1,1,1,0]",0,35,35,35,1,0,1,,,1,FALSE,,,,,,,,,,,,,,,,,,,,,,,,,,,,,,,
,613e9c281943d22f4b6ed4c6,627c6fbb6863809235f422cf,2022-05-11_21h24.33.281,classification_task,2021.2.3,Win32,60.0024001,627c6715c52fd12f31907bd0,,,,,,,,,,,,,,,,,,,,,,,l,1,1.042,"[""0.736"",""0.229"",""0.468"",""0.827""]","[0,1,1,1]",0,36,36,36,1,1,1,,,1,FALSE,,,,,,,,,,,,,,,,,,,,,,,,,,,,,,,
,613e9c281943d22f4b6ed4c6,627c6fbb6863809235f422cf,2022-05-11_21h24.33.281,classification_task,2021.2.3,Win32,60.0024001,627c6715c52fd12f31907bd0,,,,,,,,,,,,,,,,,,,,,,,a,0,0.884,"[""0.084"",""0.414"",""0.587"",""0.736""]","[1,1,1,0]",0,37,37,37,1,1,0,,,1,FALSE,,,,,,,,,,,,,,,,,,,,,,,,,,,,,,,
,613e9c281943d22f4b6ed4c6,627c6fbb6863809235f422cf,2022-05-11_21h24.33.281,classification_task,2021.2.3,Win32,60.0024001,627c6715c52fd12f31907bd0,,,,,,,,,,,,,,,,,,,,,,,a,1,0.837,"[""0.050"",""0.524"",""0.772"",""0.886""]","[0,1,1,1]",0,38,38,38,1,0,1,,,1,FALSE,,,,,,,,,,,,,,,,,,,,,,,,,,,,,,,
,613e9c281943d22f4b6ed4c6,627c6fbb6863809235f422cf,2022-05-11_21h24.33.281,classification_task,2021.2.3,Win32,60.0024001,627c6715c52fd12f31907bd0,,,,,,,,,,,,,,,,,,,,,,,l,0,1.107,"[""0.325"",""0.360"",""0.640"",""0.938""]","[0,1,1,1]",0,39,39,39,1,0,0,,,1,FALSE,,,,,,,,,,,,,,,,,,,,,,,,,,,,,,,
,613e9c281943d22f4b6ed4c6,627c6fbb6863809235f422cf,2022-05-11_21h24.33.281,classification_task,2021.2.3,Win32,60.0024001,627c6715c52fd12f31907bd0,,,,,,,,,,,,,,,,,,,,,,,l,1,0.781,"[""0.129"",""0.046"",""0.468"",""0.827""]","[1,0,1,1]",0,40,40,40,1,1,1,,,1,FALSE,,,,,,,,,,,,,,,,,,,,,,,,,,,,,,,
,613e9c281943d22f4b6ed4c6,627c6fbb6863809235f422cf,2022-05-11_21h24.33.281,classification_task,2021.2.3,Win32,60.0024001,627c6715c52fd12f31907bd0,,,,,,,,,,,,,,,,,,,,,,,a,0,0.703,"[""0.084"",""0.738"",""0.587"",""0.688""]","[1,0,1,1]",0,41,41,41,1,1,0,,,1,FALSE,,,,,,,,,,,,,,,,,,,,,,,,,,,,,,,
,613e9c281943d22f4b6ed4c6,627c6fbb6863809235f422cf,2022-05-11_21h24.33.281,classification_task,2021.2.3,Win32,60.0024001,627c6715c52fd12f31907bd0,,,,,,,,,,,,,,,,,,,,,,,a,0,0.853,"[""0.724"",""0.414"",""0.587"",""0.688""]","[0,1,1,1]",0,42,42,42,1,1,0,,,1,FALSE,,,,,,,,,,,,,,,,,,,,,,,,,,,,,,,
,613e9c281943d22f4b6ed4c6,627c6fbb6863809235f422cf,2022-05-11_21h24.33.281,classification_task,2021.2.3,Win32,60.0024001,627c6715c52fd12f31907bd0,,,,,,,,,,,,,,,,,,,,,,,l,1,0.719,"[""0.084"",""0.414"",""0.736"",""0.688""]","[1,1,0,1]",0,43,43,43,1,1,0,,,1,FALSE,,,,,,,,,,,,,,,,,,,,,,,,,,,,,,,
,613e9c281943d22f4b6ed4c6,627c6fbb6863809235f422cf,2022-05-11_21h24.33.281,classification_task,2021.2.3,Win32,60.0024001,627c6715c52fd12f31907bd0,,,,,,,,,,,,,,,,,,,,,,,l,0,0.802,"[""0.163"",""0.034"",""0.772"",""0.886""]","[1,0,1,1]",0,44,44,44,1,0,1,,,1,FALSE,,,,,,,,,,,,,,,,,,,,,,,,,,,,,,,
,613e9c281943d22f4b6ed4c6,627c6fbb6863809235f422cf,2022-05-11_21h24.33.281,classification_task,2021.2.3,Win32,60.0024001,627c6715c52fd12f31907bd0,,,,,,,,,,,,,,,,,,,,,,,l,0,0.965,"[""0.280"",""0.360"",""0.046"",""0.938""]","[1,1,0,1]",0,45,45,45,1,0,0,,,1,FALSE,,,,,,,,,,,,,,,,,,,,,,,,,,,,,,,
,613e9c281943d22f4b6ed4c6,627c6fbb6863809235f422cf,2022-05-11_21h24.33.281,classification_task,2021.2.3,Win32,60.0024001,627c6715c52fd12f31907bd0,,,,,,,,,,,,,,,,,,,,,,,l,1,0.758,"[""0.129"",""0.229"",""0.724"",""0.827""]","[1,1,0,1]",0,46,46,46,1,1,1,,,1,FALSE,,,,,,,,,,,,,,,,,,,,,,,,,,,,,,,
,613e9c281943d22f4b6ed4c6,627c6fbb6863809235f422cf,2022-05-11_21h24.33.281,classification_task,2021.2.3,Win32,60.0024001,627c6715c52fd12f31907bd0,,,,,,,,,,,,,,,,,,,,,,,a,1,2.182,"[""0.280"",""0.723"",""0.640"",""0.938""]","[1,0,1,1]",0,47,47,47,1,0,0,,,1,FALSE,,,,,,,,,,,,,,,,,,,,,,,,,,,,,,,
,613e9c281943d22f4b6ed4c6,627c6fbb6863809235f422cf,2022-05-11_21h24.33.281,classification_task,2021.2.3,Win32,60.0024001,627c6715c52fd12f31907bd0,,,,,,,,,,,,,,,,,,,,,,,l,1,0.75,"[""0.733"",""0.229"",""0.468"",""0.827""]","[0,1,1,1]",0,48,48,48,1,1,1,,,1,FALSE,,,,,,,,,,,,,,,,,,,,,,,,,,,,,,,
,613e9c281943d22f4b6ed4c6,627c6fbb6863809235f422cf,2022-05-11_21h24.33.281,classification_task,2021.2.3,Win32,60.0024001,627c6715c52fd12f31907bd0,,,,,,,,,,,,,,,,,,,,,,,a,1,1.429,"[""0.280"",""0.360"",""0.731"",""0.938""]","[1,1,0,1]",0,49,49,49,1,0,0,,,1,FALSE,,,,,,,,,,,,,,,,,,,,,,,,,,,,,,,
,613e9c281943d22f4b6ed4c6,627c6fbb6863809235f422cf,2022-05-11_21h24.33.281,classification_task,2021.2.3,Win32,60.0024001,627c6715c52fd12f31907bd0,,,,,,,,,,,,,,,,,,,,,,,a,1,0.769,"[""0.163"",""0.046"",""0.772"",""0.886""]","[1,0,1,1]",0,50,50,50,1,0,1,,,1,FALSE,,,,,,,,,,,,,,,,,,,,,,,,,,,,,,,
,613e9c281943d22f4b6ed4c6,627c6fbb6863809235f422cf,2022-05-11_21h24.33.281,classification_task,2021.2.3,Win32,60.0024001,627c6715c52fd12f31907bd0,,,,,,,,,,,,,,,,,,,,,,,l,0,1.063,"[""0.046"",""0.360"",""0.640"",""0.938""]","[0,1,1,1]",0,51,51,51,1,0,0,,,1,FALSE,,,,,,,,,,,,,,,,,,,,,,,,,,,,,,,
,613e9c281943d22f4b6ed4c6,627c6fbb6863809235f422cf,2022-05-11_21h24.33.281,classification_task,2021.2.3,Win32,60.0024001,627c6715c52fd12f31907bd0,,,,,,,,,,,,,,,,,,,,,,,a,1,0.57,"[""0.163"",""0.524"",""0.046"",""0.886""]","[1,1,0,1]",0,52,52,52,1,0,1,,,1,FALSE,,,,,,,,,,,,,,,,,,,,,,,,,,,,,,,
,613e9c281943d22f4b6ed4c6,627c6fbb6863809235f422cf,2022-05-11_21h24.33.281,classification_task,2021.2.3,Win32,60.0024001,627c6715c52fd12f31907bd0,,,,,,,,,,,,,,,,,,,,,,,a,0,0.861,"[""0.084"",""0.325"",""0.587"",""0.688""]","[1,0,1,1]",0,53,53,53,1,1,0,,,1,FALSE,,,,,,,,,,,,,,,,,,,,,,,,,,,,,,,
,613e9c281943d22f4b6ed4c6,627c6fbb6863809235f422cf,2022-05-11_21h24.33.281,classification_task,2021.2.3,Win32,60.0024001,627c6715c52fd12f31907bd0,,,,,,,,,,,,,,,,,,,,,,,l,1,0.534,"[""0.129"",""0.045"",""0.468"",""0.827""]","[1,0,1,1]",0,54,54,54,1,1,1,,,1,FALSE,,,,,,,,,,,,,,,,,,,,,,,,,,,,,,,
,613e9c281943d22f4b6ed4c6,627c6fbb6863809235f422cf,2022-05-11_21h24.33.281,classification_task,2021.2.3,Win32,60.0024001,627c6715c52fd12f31907bd0,,,,,,,,,,,,,,,,,,,,,,,l,0,0.855,"[""0.280"",""0.360"",""0.640"",""0.042""]","[1,1,1,0]",0,55,55,55,1,0,0,,,1,FALSE,,,,,,,,,,,,,,,,,,,,,,,,,,,,,,,
,613e9c281943d22f4b6ed4c6,627c6fbb6863809235f422cf,2022-05-11_21h24.33.281,classification_task,2021.2.3,Win32,60.0024001,627c6715c52fd12f31907bd0,,,,,,,,,,,,,,,,,,,,,,,a,1,0.607,"[""0.325"",""0.524"",""0.772"",""0.886""]","[0,1,1,1]",0,56,56,56,1,0,1,,,1,FALSE,,,,,,,,,,,,,,,,,,,,,,,,,,,,,,,
,613e9c281943d22f4b6ed4c6,627c6fbb6863809235f422cf,2022-05-11_21h24.33.281,classification_task,2021.2.3,Win32,60.0024001,627c6715c52fd12f31907bd0,,,,,,,,,,,,,,,,,,,,,,,l,1,0.714,"[""0.129"",""0.229"",""0.030"",""0.827""]","[1,1,0,1]",0,57,57,57,1,1,1,,,1,FALSE,,,,,,,,,,,,,,,,,,,,,,,,,,,,,,,
,613e9c281943d22f4b6ed4c6,627c6fbb6863809235f422cf,2022-05-11_21h24.33.281,classification_task,2021.2.3,Win32,60.0024001,627c6715c52fd12f31907bd0,,,,,,,,,,,,,,,,,,,,,,,a,0,1.128,"[""0.084"",""0.414"",""0.042"",""0.688""]","[1,1,0,1]",0,58,58,58,1,1,0,,,1,FALSE,,,,,,,,,,,,,,,,,,,,,,,,,,,,,,,
,613e9c281943d22f4b6ed4c6,627c6fbb6863809235f422cf,2022-05-11_21h24.33.281,classification_task,2021.2.3,Win32,60.0024001,627c6715c52fd12f31907bd0,,,,,,,,,,,,,,,,,,,,,,,a,0,0.934,"[""0.975"",""0.414"",""0.587"",""0.688""]","[0,1,1,1]",0,59,59,59,1,1,0,,,1,FALSE,,,,,,,,,,,,,,,,,,,,,,,,,,,,,,,
,613e9c281943d22f4b6ed4c6,627c6fbb6863809235f422cf,2022-05-11_21h24.33.281,classification_task,2021.2.3,Win32,60.0024001,627c6715c52fd12f31907bd0,,,,,,,,,,,,,,,,,,,,,,,a,1,0.695,"[""0.163"",""0.524"",""0.772"",""0.046""]","[1,1,1,0]",0,60,60,60,1,0,1,,,1,FALSE,,,,,,,,,,,,,,,,,,,,,,,,,,,,,,,
,613e9c281943d22f4b6ed4c6,627c6fbb6863809235f422cf,2022-05-11_21h24.33.281,classification_task,2021.2.3,Win32,60.0024001,627c6715c52fd12f31907bd0,,,,,,,,,,,,,,,,,,,,,,,l,1,0.938,"[""0.084"",""0.414"",""0.587"",""0.731""]","[1,1,1,0]",0,61,61,61,1,1,0,,,1,FALSE,,,,,,,,,,,,,,,,,,,,,,,,,,,,,,,
,613e9c281943d22f4b6ed4c6,627c6fbb6863809235f422cf,2022-05-11_21h24.33.281,classification_task,2021.2.3,Win32,60.0024001,627c6715c52fd12f31907bd0,,,,,,,,,,,,,,,,,,,,,,,l,1,0.52,"[""0.129"",""0.229"",""0.468"",""0.046""]","[1,1,1,0]",0,62,62,62,1,1,1,,,1,FALSE,,,,,,,,,,,,,,,,,,,,,,,,,,,,,,,
,613e9c281943d22f4b6ed4c6,627c6fbb6863809235f422cf,2022-05-11_21h24.33.281,classification_task,2021.2.3,Win32,60.0024001,627c6715c52fd12f31907bd0,,,,,,,,,,,,,,,,,,,,,,,l,0,1.358,"[""0.280"",""0.325"",""0.640"",""0.938""]","[1,0,1,1]",0,63,63,63,1,0,0,,,1,FALSE,,,,,,,,,,,,,,,,,,,,,,,,,,,,,,,
,613e9c281943d22f4b6ed4c6,627c6fbb6863809235f422cf,2022-05-11_21h24.33.281,classification_task,2021.2.3,Win32,60.0024001,627c6715c52fd12f31907bd0,,,,,,,,,,,,,,,,,,,,,,,,,,,,,,,,,,,,,,,0, ,,0,10,167.048,0,1,1,1,1,2,2,,,,,,,,,,,,,,,,,,
,613e9c281943d22f4b6ed4c6,627c6fbb6863809235f422cf,2022-05-11_21h24.33.281,classification_task,2021.2.3,Win32,60.0024001,627c6715c52fd12f31907bd0,,,,,,,,,,,,,,,,,,,,,,,,,,,,,,,,,,,,,,,1,  ,,0,4.827766755,169.089,0,1,1,1,1,2,2,,,,,,,,,,,,,,,,,,
,613e9c281943d22f4b6ed4c6,627c6fbb6863809235f422cf,2022-05-11_21h24.33.281,classification_task,2021.2.3,Win32,60.0024001,627c6715c52fd12f31907bd0,,,,,,,,,,,,,,,,,,,,,,,,,,,,,,,,,,,,,,,2,  ,,0,6.136739418,170.438,0,1,1,1,1,2,2,,,,,,,,,,,,,,,,,,
,613e9c281943d22f4b6ed4c6,627c6fbb6863809235f422cf,2022-05-11_21h24.33.281,classification_task,2021.2.3,Win32,60.0024001,627c6715c52fd12f31907bd0,,,,,,,,,,,,,,,,,,,,,,,,,,,,,,,,,,,,,,,,,,,,,0,1,1,1,1,,2,,,,,,,,,,,,,,,,,,
,613e9c281943d22f4b6ed4c6,627c6fbb6863809235f422cf,2022-05-11_21h24.33.281,classification_task,2021.2.3,Win32,60.0024001,627c6715c52fd12f31907bd0,,,,,,,,,,,,,,,,,,,,,space,35.684,a,1,1.397,"[""0.046"",""0.524"",""0.772"",""0.886""]","[0,1,1,1]",0,0,0,0,1,0,1,,,1,FALSE,,,,,,,,,,,,,,,,,,,,,,,,,,,,,,,
,613e9c281943d22f4b6ed4c6,627c6fbb6863809235f422cf,2022-05-11_21h24.33.281,classification_task,2021.2.3,Win32,60.0024001,627c6715c52fd12f31907bd0,,,,,,,,,,,,,,,,,,,,,,,l,0,2.429,"[""0.280"",""0.360"",""0.640"",""0.732""]","[1,1,1,0]",0,1,1,1,1,0,0,,,1,FALSE,,,,,,,,,,,,,,,,,,,,,,,,,,,,,,,
,613e9c281943d22f4b6ed4c6,627c6fbb6863809235f422cf,2022-05-11_21h24.33.281,classification_task,2021.2.3,Win32,60.0024001,627c6715c52fd12f31907bd0,,,,,,,,,,,,,,,,,,,,,,,a,0,4.011,"[""0.129"",""0.229"",""0.736"",""0.827""]","[1,1,0,1]",0,2,2,2,1,1,1,,,1,FALSE,,,,,,,,,,,,,,,,,,,,,,,,,,,,,,,
,613e9c281943d22f4b6ed4c6,627c6fbb6863809235f422cf,2022-05-11_21h24.33.281,classification_task,2021.2.3,Win32,60.0024001,627c6715c52fd12f31907bd0,,,,,,,,,,,,,,,,,,,,,,,a,0,4.364,"[""0.084"",""0.414"",""0.738"",""0.688""]","[1,1,0,1]",0,3,3,3,1,1,0,,,1,FALSE,,,,,,,,,,,,,,,,,,,,,,,,,,,,,,,
,613e9c281943d22f4b6ed4c6,627c6fbb6863809235f422cf,2022-05-11_21h24.33.281,classification_task,2021.2.3,Win32,60.0024001,627c6715c52fd12f31907bd0,,,,,,,,,,,,,,,,,,,,,,,l,1,1.497,"[""0.042"",""0.229"",""0.468"",""0.827""]","[0,1,1,1]",0,4,4,4,1,1,1,,,1,FALSE,,,,,,,,,,,,,,,,,,,,,,,,,,,,,,,
,613e9c281943d22f4b6ed4c6,627c6fbb6863809235f422cf,2022-05-11_21h24.33.281,classification_task,2021.2.3,Win32,60.0024001,627c6715c52fd12f31907bd0,,,,,,,,,,,,,,,,,,,,,,,l,0,2.742,"[""0.163"",""0.524"",""0.034"",""0.886""]","[1,1,0,1]",0,5,5,5,1,0,1,,,1,FALSE,,,,,,,,,,,,,,,,,,,,,,,,,,,,,,,
,613e9c281943d22f4b6ed4c6,627c6fbb6863809235f422cf,2022-05-11_21h24.33.281,classification_task,2021.2.3,Win32,60.0024001,627c6715c52fd12f31907bd0,,,,,,,,,,,,,,,,,,,,,,,a,0,1.915,"[""0.084"",""0.046"",""0.587"",""0.688""]","[1,0,1,1]",0,6,6,6,1,1,0,,,1,FALSE,,,,,,,,,,,,,,,,,,,,,,,,,,,,,,,
,613e9c281943d22f4b6ed4c6,627c6fbb6863809235f422cf,2022-05-11_21h24.33.281,classification_task,2021.2.3,Win32,60.0024001,627c6715c52fd12f31907bd0,,,,,,,,,,,,,,,,,,,,,,,a,0,1.461,"[""0.129"",""0.229"",""0.468"",""0.733""]","[1,1,1,0]",0,7,7,7,1,1,1,,,1,FALSE,,,,,,,,,,,,,,,,,,,,,,,,,,,,,,,
,613e9c281943d22f4b6ed4c6,627c6fbb6863809235f422cf,2022-05-11_21h24.33.281,classification_task,2021.2.3,Win32,60.0024001,627c6715c52fd12f31907bd0,,,,,,,,,,,,,,,,,,,,,,,l,1,1.323,"[""0.731"",""0.414"",""0.587"",""0.688""]","[0,1,1,1]",0,8,8,8,1,1,0,,,1,FALSE,,,,,,,,,,,,,,,,,,,,,,,,,,,,,,,
,613e9c281943d22f4b6ed4c6,627c6fbb6863809235f422cf,2022-05-11_21h24.33.281,classification_task,2021.2.3,Win32,60.0024001,627c6715c52fd12f31907bd0,,,,,,,,,,,,,,,,,,,,,,,a,1,2.42,"[""0.280"",""0.975"",""0.640"",""0.938""]","[1,0,1,1]",0,9,9,9,1,0,0,,,1,FALSE,,,,,,,,,,,,,,,,,,,,,,,,,,,,,,,
,613e9c281943d22f4b6ed4c6,627c6fbb6863809235f422cf,2022-05-11_21h24.33.281,classification_task,2021.2.3,Win32,60.0024001,627c6715c52fd12f31907bd0,,,,,,,,,,,,,,,,,,,,,,,l,0,1.89,"[""0.030"",""0.360"",""0.640"",""0.938""]","[0,1,1,1]",0,10,10,10,1,0,0,,,1,FALSE,,,,,,,,,,,,,,,,,,,,,,,,,,,,,,,
,613e9c281943d22f4b6ed4c6,627c6fbb6863809235f422cf,2022-05-11_21h24.33.281,classification_task,2021.2.3,Win32,60.0024001,627c6715c52fd12f31907bd0,,,,,,,,,,,,,,,,,,,,,,,a,0,1.325,"[""0.084"",""0.414"",""0.587"",""0.733""]","[1,1,1,0]",0,11,11,11,1,1,0,,,1,FALSE,,,,,,,,,,,,,,,,,,,,,,,,,,,,,,,
,613e9c281943d22f4b6ed4c6,627c6fbb6863809235f422cf,2022-05-11_21h24.33.281,classification_task,2021.2.3,Win32,60.0024001,627c6715c52fd12f31907bd0,,,,,,,,,,,,,,,,,,,,,,,l,0,2.873,"[""0.280"",""0.360"",""0.736"",""0.938""]","[1,1,0,1]",0,12,12,12,1,0,0,,,1,FALSE,,,,,,,,,,,,,,,,,,,,,,,,,,,,,,,
,613e9c281943d22f4b6ed4c6,627c6fbb6863809235f422cf,2022-05-11_21h24.33.281,classification_task,2021.2.3,Win32,60.0024001,627c6715c52fd12f31907bd0,,,,,,,,,,,,,,,,,,,,,,,a,1,1.284,"[""0.163"",""0.524"",""0.772"",""0.034""]","[1,1,1,0]",0,13,13,13,1,0,1,,,1,FALSE,,,,,,,,,,,,,,,,,,,,,,,,,,,,,,,
,613e9c281943d22f4b6ed4c6,627c6fbb6863809235f422cf,2022-05-11_21h24.33.281,classification_task,2021.2.3,Win32,60.0024001,627c6715c52fd12f31907bd0,,,,,,,,,,,,,,,,,,,,,,,l,0,0.602,"[""0.163"",""0.045"",""0.772"",""0.886""]","[1,0,1,1]",0,14,14,14,1,0,1,,,1,FALSE,,,,,,,,,,,,,,,,,,,,,,,,,,,,,,,
,613e9c281943d22f4b6ed4c6,627c6fbb6863809235f422cf,2022-05-11_21h24.33.281,classification_task,2021.2.3,Win32,60.0024001,627c6715c52fd12f31907bd0,,,,,,,,,,,,,,,,,,,,,,,a,0,1.283,"[""0.129"",""0.733"",""0.468"",""0.827""]","[1,0,1,1]",0,15,15,15,1,1,1,,,1,FALSE,,,,,,,,,,,,,,,,,,,,,,,,,,,,,,,
,613e9c281943d22f4b6ed4c6,627c6fbb6863809235f422cf,2022-05-11_21h24.33.281,classification_task,2021.2.3,Win32,60.0024001,627c6715c52fd12f31907bd0,,,,,,,,,,,,,,,,,,,,,,,a,0,1.344,"[""0.045"",""0.229"",""0.468"",""0.827""]","[0,1,1,1]",0,16,16,16,1,1,1,,,1,FALSE,,,,,,,,,,,,,,,,,,,,,,,,,,,,,,,
,613e9c281943d22f4b6ed4c6,627c6fbb6863809235f422cf,2022-05-11_21h24.33.281,classification_task,2021.2.3,Win32,60.0024001,627c6715c52fd12f31907bd0,,,,,,,,,,,,,,,,,,,,,,,l,0,2.095,"[""0.280"",""0.738"",""0.640"",""0.938""]","[1,0,1,1]",0,17,17,17,1,0,0,,,1,FALSE,,,,,,,,,,,,,,,,,,,,,,,,,,,,,,,
,613e9c281943d22f4b6ed4c6,627c6fbb6863809235f422cf,2022-05-11_21h24.33.281,classification_task,2021.2.3,Win32,60.0024001,627c6715c52fd12f31907bd0,,,,,,,,,,,,,,,,,,,,,,,l,0,1.836,"[""0.280"",""0.360"",""0.046"",""0.938""]","[1,1,0,1]",0,18,18,18,1,0,0,,,1,FALSE,,,,,,,,,,,,,,,,,,,,,,,,,,,,,,,
,613e9c281943d22f4b6ed4c6,627c6fbb6863809235f422cf,2022-05-11_21h24.33.281,classification_task,2021.2.3,Win32,60.0024001,627c6715c52fd12f31907bd0,,,,,,,,,,,,,,,,,,,,,,,l,0,1.775,"[""0.163"",""0.045"",""0.772"",""0.886""]","[1,0,1,1]",0,19,19,19,1,0,1,,,1,FALSE,,,,,,,,,,,,,,,,,,,,,,,,,,,,,,,
,613e9c281943d22f4b6ed4c6,627c6fbb6863809235f422cf,2022-05-11_21h24.33.281,classification_task,2021.2.3,Win32,60.0024001,627c6715c52fd12f31907bd0,,,,,,,,,,,,,,,,,,,,,,,a,0,1.241,"[""0.129"",""0.738"",""0.468"",""0.827""]","[1,0,1,1]",0,20,20,20,1,1,1,,,1,FALSE,,,,,,,,,,,,,,,,,,,,,,,,,,,,,,,
,613e9c281943d22f4b6ed4c6,627c6fbb6863809235f422cf,2022-05-11_21h24.33.281,classification_task,2021.2.3,Win32,60.0024001,627c6715c52fd12f31907bd0,,,,,,,,,,,,,,,,,,,,,,,a,0,1.094,"[""0.129"",""0.229"",""0.030"",""0.827""]","[1,1,0,1]",0,21,21,21,1,1,1,,,1,FALSE,,,,,,,,,,,,,,,,,,,,,,,,,,,,,,,
,613e9c281943d22f4b6ed4c6,627c6fbb6863809235f422cf,2022-05-11_21h24.33.281,classification_task,2021.2.3,Win32,60.0024001,627c6715c52fd12f31907bd0,,,,,,,,,,,,,,,,,,,,,,,l,0,1.825,"[""0.738"",""0.360"",""0.640"",""0.938""]","[0,1,1,1]",0,22,22,22,1,0,0,,,1,FALSE,,,,,,,,,,,,,,,,,,,,,,,,,,,,,,,
,613e9c281943d22f4b6ed4c6,627c6fbb6863809235f422cf,2022-05-11_21h24.33.281,classification_task,2021.2.3,Win32,60.0024001,627c6715c52fd12f31907bd0,,,,,,,,,,,,,,,,,,,,,,,a,0,1.605,"[""0.084"",""0.042"",""0.587"",""0.688""]","[1,0,1,1]",0,23,23,23,1,1,0,,,1,FALSE,,,,,,,,,,,,,,,,,,,,,,,,,,,,,,,
,613e9c281943d22f4b6ed4c6,627c6fbb6863809235f422cf,2022-05-11_21h24.33.281,classification_task,2021.2.3,Win32,60.0024001,627c6715c52fd12f31907bd0,,,,,,,,,,,,,,,,,,,,,,,a,0,2.008,"[""0.084"",""0.414"",""0.587"",""0.975""]","[1,1,1,0]",0,24,24,24,1,1,0,,,1,FALSE,,,,,,,,,,,,,,,,,,,,,,,,,,,,,,,
,613e9c281943d22f4b6ed4c6,627c6fbb6863809235f422cf,2022-05-11_21h24.33.281,classification_task,2021.2.3,Win32,60.0024001,627c6715c52fd12f31907bd0,,,,,,,,,,,,,,,,,,,,,,,l,1,1.23,"[""0.724"",""0.414"",""0.587"",""0.688""]","[0,1,1,1]",0,25,25,25,1,1,0,,,1,FALSE,,,,,,,,,,,,,,,,,,,,,,,,,,,,,,,
,613e9c281943d22f4b6ed4c6,627c6fbb6863809235f422cf,2022-05-11_21h24.33.281,classification_task,2021.2.3,Win32,60.0024001,627c6715c52fd12f31907bd0,,,,,,,,,,,,,,,,,,,,,,,a,0,1.765,"[""0.084"",""0.414"",""0.045"",""0.688""]","[1,1,0,1]",0,26,26,26,1,1,0,,,1,FALSE,,,,,,,,,,,,,,,,,,,,,,,,,,,,,,,
,613e9c281943d22f4b6ed4c6,627c6fbb6863809235f422cf,2022-05-11_21h24.33.281,classification_task,2021.2.3,Win32,60.0024001,627c6715c52fd12f31907bd0,,,,,,,,,,,,,,,,,,,,,,,a,0,2.853,"[""0.129"",""0.229"",""0.468"",""0.030""]","[1,1,1,0]",0,27,27,27,1,1,1,,,1,FALSE,,,,,,,,,,,,,,,,,,,,,,,,,,,,,,,
,613e9c281943d22f4b6ed4c6,627c6fbb6863809235f422cf,2022-05-11_21h24.33.281,classification_task,2021.2.3,Win32,60.0024001,627c6715c52fd12f31907bd0,,,,,,,,,,,,,,,,,,,,,,,l,0,1.46,"[""0.163"",""0.524"",""0.772"",""0.724""]","[1,1,1,0]",0,28,28,28,1,0,1,,,1,FALSE,,,,,,,,,,,,,,,,,,,,,,,,,,,,,,,
,613e9c281943d22f4b6ed4c6,627c6fbb6863809235f422cf,2022-05-11_21h24.33.281,classification_task,2021.2.3,Win32,60.0024001,627c6715c52fd12f31907bd0,,,,,,,,,,,,,,,,,,,,,,,l,0,1.053,"[""0.732"",""0.524"",""0.772"",""0.886""]","[0,1,1,1]",0,29,29,29,1,0,1,,,1,FALSE,,,,,,,,,,,,,,,,,,,,,,,,,,,,,,,
,613e9c281943d22f4b6ed4c6,627c6fbb6863809235f422cf,2022-05-11_21h24.33.281,classification_task,2021.2.3,Win32,60.0024001,627c6715c52fd12f31907bd0,,,,,,,,,,,,,,,,,,,,,,,l,0,1.552,"[""0.163"",""0.524"",""0.046"",""0.886""]","[1,1,0,1]",0,30,30,30,1,0,1,,,1,FALSE,,,,,,,,,,,,,,,,,,,,,,,,,,,,,,,
,613e9c281943d22f4b6ed4c6,627c6fbb6863809235f422cf,2022-05-11_21h24.33.281,classification_task,2021.2.3,Win32,60.0024001,627c6715c52fd12f31907bd0,,,,,,,,,,,,,,,,,,,,,,,a,1,1.1,"[""0.280"",""0.360"",""0.640"",""0.034""]","[1,1,1,0]",0,31,31,31,1,0,0,,,1,FALSE,,,,,,,,,,,,,,,,,,,,,,,,,,,,,,,
,613e9c281943d22f4b6ed4c6,627c6fbb6863809235f422cf,2022-05-11_21h24.33.281,classification_task,2021.2.3,Win32,60.0024001,627c6715c52fd12f31907bd0,,,,,,,,,,,,,,,,,,,,,,,a,1,1.423,"[""0.280"",""0.360"",""0.733"",""0.938""]","[1,1,0,1]",0,32,32,32,1,0,0,,,1,FALSE,,,,,,,,,,,,,,,,,,,,,,,,,,,,,,,
,613e9c281943d22f4b6ed4c6,627c6fbb6863809235f422cf,2022-05-11_21h24.33.281,classification_task,2021.2.3,Win32,60.0024001,627c6715c52fd12f31907bd0,,,,,,,,,,,,,,,,,,,,,,,l,0,1.587,"[""0.045"",""0.360"",""0.640"",""0.938""]","[0,1,1,1]",0,33,33,33,1,0,0,,,1,FALSE,,,,,,,,,,,,,,,,,,,,,,,,,,,,,,,
,613e9c281943d22f4b6ed4c6,627c6fbb6863809235f422cf,2022-05-11_21h24.33.281,classification_task,2021.2.3,Win32,60.0024001,627c6715c52fd12f31907bd0,,,,,,,,,,,,,,,,,,,,,,,a,0,1.378,"[""0.129"",""0.229"",""0.468"",""0.724""]","[1,1,1,0]",0,34,34,34,1,1,1,,,1,FALSE,,,,,,,,,,,,,,,,,,,,,,,,,,,,,,,
,613e9c281943d22f4b6ed4c6,627c6fbb6863809235f422cf,2022-05-11_21h24.33.281,classification_task,2021.2.3,Win32,60.0024001,627c6715c52fd12f31907bd0,,,,,,,,,,,,,,,,,,,,,,,l,0,1.206,"[""0.163"",""0.524"",""0.732"",""0.886""]","[1,1,0,1]",0,35,35,35,1,0,1,,,1,FALSE,,,,,,,,,,,,,,,,,,,,,,,,,,,,,,,
,613e9c281943d22f4b6ed4c6,627c6fbb6863809235f422cf,2022-05-11_21h24.33.281,classification_task,2021.2.3,Win32,60.0024001,627c6715c52fd12f31907bd0,,,,,,,,,,,,,,,,,,,,,,,l,1,1.898,"[""0.045"",""0.229"",""0.468"",""0.827""]","[0,1,1,1]",0,36,36,36,1,1,1,,,1,FALSE,,,,,,,,,,,,,,,,,,,,,,,,,,,,,,,
,613e9c281943d22f4b6ed4c6,627c6fbb6863809235f422cf,2022-05-11_21h24.33.281,classification_task,2021.2.3,Win32,60.0024001,627c6715c52fd12f31907bd0,,,,,,,,,,,,,,,,,,,,,,,l,0,2.181,"[""0.163"",""0.738"",""0.772"",""0.886""]","[1,0,1,1]",0,37,37,37,1,0,1,,,1,FALSE,,,,,,,,,,,,,,,,,,,,,,,,,,,,,,,
,613e9c281943d22f4b6ed4c6,627c6fbb6863809235f422cf,2022-05-11_21h24.33.281,classification_task,2021.2.3,Win32,60.0024001,627c6715c52fd12f31907bd0,,,,,,,,,,,,,,,,,,,,,,,a,0,0.732,"[""0.732"",""0.414"",""0.587"",""0.688""]","[0,1,1,1]",0,38,38,38,1,1,0,,,1,FALSE,,,,,,,,,,,,,,,,,,,,,,,,,,,,,,,
,613e9c281943d22f4b6ed4c6,627c6fbb6863809235f422cf,2022-05-11_21h24.33.281,classification_task,2021.2.3,Win32,60.0024001,627c6715c52fd12f31907bd0,,,,,,,,,,,,,,,,,,,,,,,l,0,1.309,"[""0.280"",""0.360"",""0.640"",""0.975""]","[1,1,1,0]",0,39,39,39,1,0,0,,,1,FALSE,,,,,,,,,,,,,,,,,,,,,,,,,,,,,,,
,613e9c281943d22f4b6ed4c6,627c6fbb6863809235f422cf,2022-05-11_21h24.33.281,classification_task,2021.2.3,Win32,60.0024001,627c6715c52fd12f31907bd0,,,,,,,,,,,,,,,,,,,,,,,a,0,0.869,"[""0.129"",""0.229"",""0.736"",""0.827""]","[1,1,0,1]",0,40,40,40,1,1,1,,,1,FALSE,,,,,,,,,,,,,,,,,,,,,,,,,,,,,,,
,613e9c281943d22f4b6ed4c6,627c6fbb6863809235f422cf,2022-05-11_21h24.33.281,classification_task,2021.2.3,Win32,60.0024001,627c6715c52fd12f31907bd0,,,,,,,,,,,,,,,,,,,,,,,a,1,1.096,"[""0.163"",""0.524"",""0.772"",""0.034""]","[1,1,1,0]",0,41,41,41,1,0,1,,,1,FALSE,,,,,,,,,,,,,,,,,,,,,,,,,,,,,,,
,613e9c281943d22f4b6ed4c6,627c6fbb6863809235f422cf,2022-05-11_21h24.33.281,classification_task,2021.2.3,Win32,60.0024001,627c6715c52fd12f31907bd0,,,,,,,,,,,,,,,,,,,,,,,l,1,3.678,"[""0.084"",""0.731"",""0.587"",""0.688""]","[1,0,1,1]",0,42,42,42,1,1,0,,,1,FALSE,,,,,,,,,,,,,,,,,,,,,,,,,,,,,,,
,613e9c281943d22f4b6ed4c6,627c6fbb6863809235f422cf,2022-05-11_21h24.33.281,classification_task,2021.2.3,Win32,60.0024001,627c6715c52fd12f31907bd0,,,,,,,,,,,,,,,,,,,,,,,a,0,1.265,"[""0.129"",""0.046"",""0.468"",""0.827""]","[1,0,1,1]",0,43,43,43,1,1,1,,,1,FALSE,,,,,,,,,,,,,,,,,,,,,,,,,,,,,,,
,613e9c281943d22f4b6ed4c6,627c6fbb6863809235f422cf,2022-05-11_21h24.33.281,classification_task,2021.2.3,Win32,60.0024001,627c6715c52fd12f31907bd0,,,,,,,,,,,,,,,,,,,,,,,a,1,1.609,"[""0.280"",""0.723"",""0.640"",""0.938""]","[1,0,1,1]",0,44,44,44,1,0,0,,,1,FALSE,,,,,,,,,,,,,,,,,,,,,,,,,,,,,,,
,613e9c281943d22f4b6ed4c6,627c6fbb6863809235f422cf,2022-05-11_21h24.33.281,classification_task,2021.2.3,Win32,60.0024001,627c6715c52fd12f31907bd0,,,,,,,,,,,,,,,,,,,,,,,a,0,2.78,"[""0.084"",""0.414"",""0.736"",""0.688""]","[1,1,0,1]",0,45,45,45,1,1,0,,,1,FALSE,,,,,,,,,,,,,,,,,,,,,,,,,,,,,,,
,613e9c281943d22f4b6ed4c6,627c6fbb6863809235f422cf,2022-05-11_21h24.33.281,classification_task,2021.2.3,Win32,60.0024001,627c6715c52fd12f31907bd0,,,,,,,,,,,,,,,,,,,,,,,l,0,1.354,"[""0.050"",""0.524"",""0.772"",""0.886""]","[0,1,1,1]",0,46,46,46,1,0,1,,,1,FALSE,,,,,,,,,,,,,,,,,,,,,,,,,,,,,,,
,613e9c281943d22f4b6ed4c6,627c6fbb6863809235f422cf,2022-05-11_21h24.33.281,classification_task,2021.2.3,Win32,60.0024001,627c6715c52fd12f31907bd0,,,,,,,,,,,,,,,,,,,,,,,a,0,1.123,"[""0.084"",""0.414"",""0.587"",""0.325""]","[1,1,1,0]",0,47,47,47,1,1,0,,,1,FALSE,,,,,,,,,,,,,,,,,,,,,,,,,,,,,,,
,613e9c281943d22f4b6ed4c6,627c6fbb6863809235f422cf,2022-05-11_21h24.33.281,classification_task,2021.2.3,Win32,60.0024001,627c6715c52fd12f31907bd0,,,,,,,,,,,,,,,,,,,,,,,l,0,0.922,"[""0.163"",""0.524"",""0.731"",""0.886""]","[1,1,0,1]",0,48,48,48,1,0,1,,,1,FALSE,,,,,,,,,,,,,,,,,,,,,,,,,,,,,,,
,613e9c281943d22f4b6ed4c6,627c6fbb6863809235f422cf,2022-05-11_21h24.33.281,classification_task,2021.2.3,Win32,60.0024001,627c6715c52fd12f31907bd0,,,,,,,,,,,,,,,,,,,,,,,l,0,1.071,"[""0.325"",""0.360"",""0.640"",""0.938""]","[0,1,1,1]",0,49,49,49,1,0,0,,,1,FALSE,,,,,,,,,,,,,,,,,,,,,,,,,,,,,,,
,613e9c281943d22f4b6ed4c6,627c6fbb6863809235f422cf,2022-05-11_21h24.33.281,classification_task,2021.2.3,Win32,60.0024001,627c6715c52fd12f31907bd0,,,,,,,,,,,,,,,,,,,,,,,a,0,0.945,"[""0.084"",""0.414"",""0.587"",""0.045""]","[1,1,1,0]",0,50,50,50,1,1,0,,,1,FALSE,,,,,,,,,,,,,,,,,,,,,,,,,,,,,,,
,613e9c281943d22f4b6ed4c6,627c6fbb6863809235f422cf,2022-05-11_21h24.33.281,classification_task,2021.2.3,Win32,60.0024001,627c6715c52fd12f31907bd0,,,,,,,,,,,,,,,,,,,,,,,l,0,1.104,"[""0.723"",""0.524"",""0.772"",""0.886""]","[0,1,1,1]",0,51,51,51,1,0,1,,,1,FALSE,,,,,,,,,,,,,,,,,,,,,,,,,,,,,,,
,613e9c281943d22f4b6ed4c6,627c6fbb6863809235f422cf,2022-05-11_21h24.33.281,classification_task,2021.2.3,Win32,60.0024001,627c6715c52fd12f31907bd0,,,,,,,,,,,,,,,,,,,,,,,a,1,1.737,"[""0.280"",""0.360"",""0.640"",""0.732""]","[1,1,1,0]",0,52,52,52,1,0,0,,,1,FALSE,,,,,,,,,,,,,,,,,,,,,,,,,,,,,,,
,613e9c281943d22f4b6ed4c6,627c6fbb6863809235f422cf,2022-05-11_21h24.33.281,classification_task,2021.2.3,Win32,60.0024001,627c6715c52fd12f31907bd0,,,,,,,,,,,,,,,,,,,,,,,l,1,1.853,"[""0.046"",""0.414"",""0.587"",""0.688""]","[0,1,1,1]",0,53,53,53,1,1,0,,,1,FALSE,,,,,,,,,,,,,,,,,,,,,,,,,,,,,,,
,613e9c281943d22f4b6ed4c6,627c6fbb6863809235f422cf,2022-05-11_21h24.33.281,classification_task,2021.2.3,Win32,60.0024001,627c6715c52fd12f31907bd0,,,,,,,,,,,,,,,,,,,,,,,l,1,4.99,"[""0.084"",""0.731"",""0.587"",""0.688""]","[1,0,1,1]",0,54,54,54,1,1,0,,,1,FALSE,,,,,,,,,,,,,,,,,,,,,,,,,,,,,,,
,613e9c281943d22f4b6ed4c6,627c6fbb6863809235f422cf,2022-05-11_21h24.33.281,classification_task,2021.2.3,Win32,60.0024001,627c6715c52fd12f31907bd0,,,,,,,,,,,,,,,,,,,,,,,a,0,2.333,"[""0.129"",""0.229"",""0.468"",""0.034""]","[1,1,1,0]",0,55,55,55,1,1,1,,,1,FALSE,,,,,,,,,,,,,,,,,,,,,,,,,,,,,,,
,613e9c281943d22f4b6ed4c6,627c6fbb6863809235f422cf,2022-05-11_21h24.33.281,classification_task,2021.2.3,Win32,60.0024001,627c6715c52fd12f31907bd0,,,,,,,,,,,,,,,,,,,,,,,l,0,4.858,"[""0.280"",""0.738"",""0.640"",""0.938""]","[1,0,1,1]",0,56,56,56,1,0,0,,,1,FALSE,,,,,,,,,,,,,,,,,,,,,,,,,,,,,,,
,613e9c281943d22f4b6ed4c6,627c6fbb6863809235f422cf,2022-05-11_21h24.33.281,classification_task,2021.2.3,Win32,60.0024001,627c6715c52fd12f31907bd0,,,,,,,,,,,,,,,,,,,,,,,a,1,2.67,"[""0.163"",""0.524"",""0.772"",""0.034""]","[1,1,1,0]",0,57,57,57,1,0,1,,,1,FALSE,,,,,,,,,,,,,,,,,,,,,,,,,,,,,,,
,613e9c281943d22f4b6ed4c6,627c6fbb6863809235f422cf,2022-05-11_21h24.33.281,classification_task,2021.2.3,Win32,60.0024001,627c6715c52fd12f31907bd0,,,,,,,,,,,,,,,,,,,,,,,a,0,1.831,"[""0.084"",""0.414"",""0.738"",""0.688""]","[1,1,0,1]",0,58,58,58,1,1,0,,,1,FALSE,,,,,,,,,,,,,,,,,,,,,,,,,,,,,,,
,613e9c281943d22f4b6ed4c6,627c6fbb6863809235f422cf,2022-05-11_21h24.33.281,classification_task,2021.2.3,Win32,60.0024001,627c6715c52fd12f31907bd0,,,,,,,,,,,,,,,,,,,,,,,l,1,0.558,"[""0.723"",""0.229"",""0.468"",""0.827""]","[0,1,1,1]",0,59,59,59,1,1,1,,,1,FALSE,,,,,,,,,,,,,,,,,,,,,,,,,,,,,,,
,613e9c281943d22f4b6ed4c6,627c6fbb6863809235f422cf,2022-05-11_21h24.33.281,classification_task,2021.2.3,Win32,60.0024001,627c6715c52fd12f31907bd0,,,,,,,,,,,,,,,,,,,,,,,l,0,1.6,"[""0.163"",""0.738"",""0.772"",""0.886""]","[1,0,1,1]",0,60,60,60,1,0,1,,,1,FALSE,,,,,,,,,,,,,,,,,,,,,,,,,,,,,,,
,613e9c281943d22f4b6ed4c6,627c6fbb6863809235f422cf,2022-05-11_21h24.33.281,classification_task,2021.2.3,Win32,60.0024001,627c6715c52fd12f31907bd0,,,,,,,,,,,,,,,,,,,,,,,a,0,1.396,"[""0.129"",""0.732"",""0.468"",""0.827""]","[1,0,1,1]",0,61,61,61,1,1,1,,,1,FALSE,,,,,,,,,,,,,,,,,,,,,,,,,,,,,,,
,613e9c281943d22f4b6ed4c6,627c6fbb6863809235f422cf,2022-05-11_21h24.33.281,classification_task,2021.2.3,Win32,60.0024001,627c6715c52fd12f31907bd0,,,,,,,,,,,,,,,,,,,,,,,l,0,1.136,"[""0.280"",""0.360"",""0.975"",""0.938""]","[1,1,0,1]",0,62,62,62,1,0,0,,,1,FALSE,,,,,,,,,,,,,,,,,,,,,,,,,,,,,,,
,613e9c281943d22f4b6ed4c6,627c6fbb6863809235f422cf,2022-05-11_21h24.33.281,classification_task,2021.2.3,Win32,60.0024001,627c6715c52fd12f31907bd0,,,,,,,,,,,,,,,,,,,,,,,a,0,1.427,"[""0.129"",""0.229"",""0.738"",""0.827""]","[1,1,0,1]",0,63,63,63,1,1,1,,,1,FALSE,,,,,,,,,,,,,,,,,,,,,,,,,,,,,,,
,613e9c281943d22f4b6ed4c6,627c6fbb6863809235f422cf,2022-05-11_21h24.33.281,classification_task,2021.2.3,Win32,60.0024001,627c6715c52fd12f31907bd0,,,,,,,,,,,,,,,,,,,,,,,,,,,,,,,,,,,,,,,0, ,,0,9.925870811,220.147,0,2,2,2,1,2,3,,,,,,,,,,,,,,,,,,
,613e9c281943d22f4b6ed4c6,627c6fbb6863809235f422cf,2022-05-11_21h24.33.281,classification_task,2021.2.3,Win32,60.0024001,627c6715c52fd12f31907bd0,,,,,,,,,,,,,,,,,,,,,,,,,,,,,,,,,,,,,,,1,  ,,0,3.449900794,225.241,0,2,2,2,1,2,3,,,,,,,,,,,,,,,,,,
,613e9c281943d22f4b6ed4c6,627c6fbb6863809235f422cf,2022-05-11_21h24.33.281,classification_task,2021.2.3,Win32,60.0024001,627c6715c52fd12f31907bd0,,,,,,,,,,,,,,,,,,,,,,,,,,,,,,,,,,,,,,,2,  ,,0,6.550099206,226.331,0,2,2,2,1,2,3,,,,,,,,,,,,,,,,,,
,613e9c281943d22f4b6ed4c6,627c6fbb6863809235f422cf,2022-05-11_21h24.33.281,classification_task,2021.2.3,Win32,60.0024001,627c6715c52fd12f31907bd0,,,,,,,,,,,,,,,,,,,,,,,,,,,,,,,,,,,,,,,,,,,,,0,2,2,2,1,,3,,,,,,,,,,,,,,,,,,
,613e9c281943d22f4b6ed4c6,627c6fbb6863809235f422cf,2022-05-11_21h24.33.281,classification_task,2021.2.3,Win32,60.0024001,627c6715c52fd12f31907bd0,,,,,,,,,,,,,,,,,,,,,,,,,,,,,,,,,,,,,,,,,,,,,,,,,,,,,I believe the aid is a competent performer,,0.7,0,4,1449.403,0,0,0,0,1,0,,,,,
,613e9c281943d22f4b6ed4c6,627c6fbb6863809235f422cf,2022-05-11_21h24.33.281,classification_task,2021.2.3,Win32,60.0024001,627c6715c52fd12f31907bd0,,,,,,,,,,,,,,,,,,,,,,,,,,,,,,,,,,,,,,,,,,,,,,,,,,,,,I trust the aid,,0.7,0,5,1442.744,0,0,0,0,1,0,,,,,
,613e9c281943d22f4b6ed4c6,627c6fbb6863809235f422cf,2022-05-11_21h24.33.281,classification_task,2021.2.3,Win32,60.0024001,627c6715c52fd12f31907bd0,,,,,,,,,,,,,,,,,,,,,,,,,,,,,,,,,,,,,,,,,,,,,,,,,,,,,I have confidence in the advice given by the aid,,0.7,0,5,1447.567,0,0,0,0,1,0,,,,,
,613e9c281943d22f4b6ed4c6,627c6fbb6863809235f422cf,2022-05-11_21h24.33.281,classification_task,2021.2.3,Win32,60.0024001,627c6715c52fd12f31907bd0,,,,,,,,,,,,,,,,,,,,,,,,,,,,,,,,,,,,,,,,,,,,,,,,,,,,,I can depend on the aid,,0.7,0,5,1450.388,0,0,0,0,1,0,,,,,
,613e9c281943d22f4b6ed4c6,627c6fbb6863809235f422cf,2022-05-11_21h24.33.281,classification_task,2021.2.3,Win32,60.0024001,627c6715c52fd12f31907bd0,,,,,,,,,,,,,,,,,,,,,,,,,,,,,,,,,,,,,,,,,,,,,,,,,,,,,I can rely on the aid to behave in consistent ways,,0.7,0,4,1455.026,0,0,0,0,1,0,,,,,
,613e9c281943d22f4b6ed4c6,627c6fbb6863809235f422cf,2022-05-11_21h24.33.281,classification_task,2021.2.3,Win32,60.0024001,627c6715c52fd12f31907bd0,,,,,,,,,,,,,,,,,,,,,,,,,,,,,,,,,,,,,,,,,,,,,,,,,,,,,I can rely on the aid to do its best every time I take its advice,,0.7,0,4,1461.219,0,0,0,0,1,0,,,,,
,613e9c281943d22f4b6ed4c6,627c6fbb6863809235f422cf,2022-05-11_21h24.33.281,classification_task,2021.2.3,Win32,60.0024001,627c6715c52fd12f31907bd0,,,,,,,,,,,,,,,,,,,,,,,,,,,,,,,,,,,,,,,,,,,,,,,,,,,,,"On trials you completed with assistance from the aid, how frequently did you think the aid was correct?",,0.7,0,60%,,0,0,0,0,1,0,,,,,
,613e9c281943d22f4b6ed4c6,627c6fbb6863809235f422cf,2022-05-11_21h24.33.281,classification_task,2021.2.3,Win32,60.0024001,627c6715c52fd12f31907bd0,,,,,,,,,,,,,,,,,,,,,,,,,,,,,,,,,,,,,,,,,,,,,,,,,,,,,"On trials you completed without the aid, how frequently did you think you were correct?",,0.7,0,80%,,0,0,0,0,1,0,,,,,
,613e9c281943d22f4b6ed4c6,627c6fbb6863809235f422cf,2022-05-11_21h24.33.281,classification_task,2021.2.3,Win32,60.0024001,627c6715c52fd12f31907bd0,,,,,,,,,,,,,,,,,,,,,,,,,,,,,,,,,,,,,,,,,,,,,,,,,,,,,,,,,,,0,0,0,0,1,,,,,,
,613e9c281943d22f4b6ed4c6,627c6fbb6863809235f422cf,2022-05-11_21h24.33.281,classification_task,2021.2.3,Win32,60.0024001,627c6715c52fd12f31907bd0,,,,,,,,,,,,,,,,,,,,,,,,,,,,,,,,,,,,,,,,,,,,,,,,,,,,,,,,,,,,,,,,,space,48.808,1534.683,,
,613e9c281943d22f4b6ed4c6,627c6fbb6863809235f422cf,2022-05-11_21h24.33.281,classification_task,2021.2.3,Win32,60.0024001,627c6715c52fd12f31907bd0,,,,,,,,,,,,,,,,,,,,,,,,,,,,,,,,,,,,,,,,,,,,,,,,,,,,,,,,,,,,,,,,,,,,"Mozilla/5.0 (Windows NT 6.1; Win64; x64) AppleWebKit/537.36 (KHTML, like Gecko) Chrome/101.0.4951.64 Safari/537.36",
,613e9c281943d22f4b6ed4c6,627c6fbb6863809235f422cf,2022-05-11_21h24.33.281,classification_task,2021.2.3,Win32,60.0024001,627c6715c52fd12f31907bd0,,,,,,,,,,,,,,,,,,,,,,,,,,,,,,,,,,,,,,,,,,,,,,,,,,,,,,,,,,,,,,,,,,,,,HIGHLIGHT
