usingWebGL,participant,session,date,expName,psychopyVersion,OS,frameRate,PROLIFIC_PID,STUDY_ID,SESSION_ID,signatures_friend,signatures_foe,band_ranges_top,band_ranges_bottom,formitemText,formtype,formundefined,formitemWidth,formindex,formresponse,formrt,key_resp_2.keys,key_resp_2.rt,tute_resp.keys,tute_resp.rt,tutorial.thisRepN,tutorial.thisTrialN,tutorial.thisN,tutorial.thisIndex,tutorial.ran,key_resp_4.keys,key_resp_4.rt,key_resp.keys,key_resp.corr,key_resp.rt,lines_presented,is_signal_presented,trials.thisRepN,trials.thisTrialN,trials.thisN,trials.thisIndex,trials.ran,vessel,active_band,lines,is_signal,supported_pos,catch_trial,debrief_formindex,debrief_formitemText,debrief_formtype,debrief_formitemWidth,debrief_formresponse,debrief_formrt,phases.thisRepN,phases.thisTrialN,phases.thisN,phases.thisIndex,phases.ran,phases.order,phase,key_resp_3.keys,trustitemText,trusttype,trustitemWidth,trustindex,trustresponse,trustrt,support_status.thisRepN,support_status.thisTrialN,support_status.thisN,support_status.thisIndex,support_status.ran,support_status.order,key_resp_5.keys,key_resp_5.rt,globalClockTime,userAgent
TRUE,613e44dd550d01b43a553131,001,2022-04-28_20h21.29.078,classification_task,2021.2.3,Win32,143.9677512,613e44dd550d01b43a553131,626b377229c10585ec392f89,626b3af2f3e4daab5707274b,,,,,,,,,,,,,,,,,,,,,,,,,,,,,,,,,,,,,,,,,,,,,,,,,,,,,,,,,,,,,,,,,,,,
,613e44dd550d01b43a553131,001,2022-04-28_20h21.29.078,classification_task,2021.2.3,Win32,143.9677512,613e44dd550d01b43a553131,626b377229c10585ec392f89,626b3af2f3e4daab5707274b,"[[""0.224"",""0.399"",""0.615"",""0.916""],[""0.323"",""0.435"",""0.853"",""0.956""]]","[[""0.070"",""0.278"",""0.539"",""0.718""],[""0.115"",""0.154"",""0.475"",""0.781""]]","[1,10]","[100,1000]",Video game experience,,,0.7,0,,,,,,,,,,,,,,,,,,,,,,,,,,,,,,,,,,,,,,,,,,,,,,,,,,,,,,,,,,,
,613e44dd550d01b43a553131,001,2022-04-28_20h21.29.078,classification_task,2021.2.3,Win32,143.9677512,613e44dd550d01b43a553131,626b377229c10585ec392f89,626b3af2f3e4daab5707274b,,,,,Approximately how many hours did you spend playing video games in the last week?,,,0.7,0,38,,,,,,,,,,,,,,,,,,,,,,,,,,,,,,,,,,,,,,,,,,,,,,,,,,,,,,,,,,
,613e44dd550d01b43a553131,001,2022-04-28_20h21.29.078,classification_task,2021.2.3,Win32,143.9677512,613e44dd550d01b43a553131,626b377229c10585ec392f89,626b3af2f3e4daab5707274b,,,,,"Which game did you play the most this year? (Enter ""None"" if you didn't play any)",,,0.7,0,Ghost of Tsushima,,,,,,,,,,,,,,,,,,,,,,,,,,,,,,,,,,,,,,,,,,,,,,,,,,,,,,,,,,
,613e44dd550d01b43a553131,001,2022-04-28_20h21.29.078,classification_task,2021.2.3,Win32,143.9677512,613e44dd550d01b43a553131,626b377229c10585ec392f89,626b3af2f3e4daab5707274b,,,,,Visual perception,,,0.7,0,,,,,,,,,,,,,,,,,,,,,,,,,,,,,,,,,,,,,,,,,,,,,,,,,,,,,,,,,,,
,613e44dd550d01b43a553131,001,2022-04-28_20h21.29.078,classification_task,2021.2.3,Win32,143.9677512,613e44dd550d01b43a553131,626b377229c10585ec392f89,626b3af2f3e4daab5707274b,,,,,Do you have any form of color blindness?,,,0.7,0,No,87.6735,,,,,,,,,,,,,,,,,,,,,,,,,,,,,,,,,,,,,,,,,,,,,,,,,,,,,,,,,
,613e44dd550d01b43a553131,001,2022-04-28_20h21.29.078,classification_task,2021.2.3,Win32,143.9677512,613e44dd550d01b43a553131,626b377229c10585ec392f89,626b3af2f3e4daab5707274b,,,,,Do you use software to change the colour temperature of your screen (e.g. f.lux)?,,,0.7,0,No,91.3738,,,,,,,,,,,,,,,,,,,,,,,,,,,,,,,,,,,,,,,,,,,,,,,,,,,,,,,,,
,613e44dd550d01b43a553131,001,2022-04-28_20h21.29.078,classification_task,2021.2.3,Win32,143.9677512,613e44dd550d01b43a553131,626b377229c10585ec392f89,626b3af2f3e4daab5707274b,,,,,,,,,,,,space,29.4266,space,55.815,0,0,0,0,1,,,,,,,,,,,,,,,,,,,,,,,,,,,,,,,,,,,,,,,,,,,,,,,,
,613e44dd550d01b43a553131,001,2022-04-28_20h21.29.078,classification_task,2021.2.3,Win32,143.9677512,613e44dd550d01b43a553131,626b377229c10585ec392f89,626b3af2f3e4daab5707274b,,,,,,,,,,,,,,space,11.6507,1,0,1,0,1,,,,,,,,,,,,,,,,,,,,,,,,,,,,,,,,,,,,,,,,,,,,,,,,
,613e44dd550d01b43a553131,001,2022-04-28_20h21.29.078,classification_task,2021.2.3,Win32,143.9677512,613e44dd550d01b43a553131,626b377229c10585ec392f89,626b3af2f3e4daab5707274b,,,,,,,,,,,,,,space,37.2343,2,0,2,0,1,,,,,,,,,,,,,,,,,,,,,,,,,,,,,,,,,,,,,,,,,,,,,,,,
,613e44dd550d01b43a553131,001,2022-04-28_20h21.29.078,classification_task,2021.2.3,Win32,143.9677512,613e44dd550d01b43a553131,626b377229c10585ec392f89,626b3af2f3e4daab5707274b,,,,,,,,,,,,,,space,9.7089,3,0,3,0,1,,,,,,,,,,,,,,,,,,,,,,,,,,,,,,,,,,,,,,,,,,,,,,,,
,613e44dd550d01b43a553131,001,2022-04-28_20h21.29.078,classification_task,2021.2.3,Win32,143.9677512,613e44dd550d01b43a553131,626b377229c10585ec392f89,626b3af2f3e4daab5707274b,,,,,,,,,,,,,,space,15.0906,4,0,4,0,1,,,,,,,,,,,,,,,,,,,,,,,,,,,,,,,,,,,,,,,,,,,,,,,,
,613e44dd550d01b43a553131,001,2022-04-28_20h21.29.078,classification_task,2021.2.3,Win32,143.9677512,613e44dd550d01b43a553131,626b377229c10585ec392f89,626b3af2f3e4daab5707274b,,,,,,,,,,,,,,,,,,,,,space,18.7624,l,0,9.2585,"[""0.224"",""0.399"",""0.615"",""0.677""]","[1,1,1,0]",0,0,0,0,1,0,0,,,1,FALSE,,,,,,,,,,,,,,,,,,,,,,,,,,,,,,
,613e44dd550d01b43a553131,001,2022-04-28_20h21.29.078,classification_task,2021.2.3,Win32,143.9677512,613e44dd550d01b43a553131,626b377229c10585ec392f89,626b3af2f3e4daab5707274b,,,,,,,,,,,,,,,,,,,,,,,,0,,"[""0.115"",""0.581"",""0.475"",""0.781""]","[1,0,1,1]",0,1,1,1,1,1,1,,,1,FALSE,,,,,,,,,,,,,,,,,,,,,,,,,,,,,,
,613e44dd550d01b43a553131,001,2022-04-28_20h21.29.078,classification_task,2021.2.3,Win32,143.9677512,613e44dd550d01b43a553131,626b377229c10585ec392f89,626b3af2f3e4daab5707274b,,,,,,,,,,,,,,,,,,,,,,,a,1,4.7956,"[""0.323"",""0.435"",""0.657"",""0.956""]","[1,1,0,1]",0,2,2,2,1,0,1,,,1,FALSE,,,,,,,,,,,,,,,,,,,,,,,,,,,,,,
,613e44dd550d01b43a553131,001,2022-04-28_20h21.29.078,classification_task,2021.2.3,Win32,143.9677512,613e44dd550d01b43a553131,626b377229c10585ec392f89,626b3af2f3e4daab5707274b,,,,,,,,,,,,,,,,,,,,,,,a,0,5.8252,"[""0.660"",""0.278"",""0.539"",""0.718""]","[0,1,1,1]",0,3,3,3,1,1,0,,,1,FALSE,,,,,,,,,,,,,,,,,,,,,,,,,,,,,,
,613e44dd550d01b43a553131,001,2022-04-28_20h21.29.078,classification_task,2021.2.3,Win32,143.9677512,613e44dd550d01b43a553131,626b377229c10585ec392f89,626b3af2f3e4daab5707274b,,,,,,,,,,,,,,,,,,,,,,,l,1,4.5152,"[""0.070"",""0.278"",""0.581"",""0.718""]","[1,1,0,1]",0,4,4,4,1,1,0,,,1,FALSE,,,,,,,,,,,,,,,,,,,,,,,,,,,,,,
,613e44dd550d01b43a553131,001,2022-04-28_20h21.29.078,classification_task,2021.2.3,Win32,143.9677512,613e44dd550d01b43a553131,626b377229c10585ec392f89,626b3af2f3e4daab5707274b,,,,,,,,,,,,,,,,,,,,,,,l,1,2.502,"[""0.070"",""0.578"",""0.539"",""0.718""]","[1,0,1,1]",0,5,5,5,1,1,0,,,1,FALSE,,,,,,,,,,,,,,,,,,,,,,,,,,,,,,
,613e44dd550d01b43a553131,001,2022-04-28_20h21.29.078,classification_task,2021.2.3,Win32,143.9677512,613e44dd550d01b43a553131,626b377229c10585ec392f89,626b3af2f3e4daab5707274b,,,,,,,,,,,,,,,,,,,,,,,l,0,6.1247,"[""0.323"",""0.435"",""0.853"",""0.580""]","[1,1,1,0]",0,6,6,6,1,0,1,,,1,FALSE,,,,,,,,,,,,,,,,,,,,,,,,,,,,,,
,613e44dd550d01b43a553131,001,2022-04-28_20h21.29.078,classification_task,2021.2.3,Win32,143.9677512,613e44dd550d01b43a553131,626b377229c10585ec392f89,626b3af2f3e4daab5707274b,,,,,,,,,,,,,,,,,,,,,,,a,1,7.3979,"[""0.224"",""0.399"",""0.657"",""0.916""]","[1,1,0,1]",0,7,7,7,1,0,0,,,1,FALSE,,,,,,,,,,,,,,,,,,,,,,,,,,,,,,
,613e44dd550d01b43a553131,001,2022-04-28_20h21.29.078,classification_task,2021.2.3,Win32,143.9677512,613e44dd550d01b43a553131,626b377229c10585ec392f89,626b3af2f3e4daab5707274b,,,,,,,,,,,,,,,,,,,,,,,l,1,3.8421,"[""0.115"",""0.154"",""0.475"",""0.666""]","[1,1,1,0]",0,8,8,8,1,1,1,,,1,FALSE,,,,,,,,,,,,,,,,,,,,,,,,,,,,,,
,613e44dd550d01b43a553131,001,2022-04-28_20h21.29.078,classification_task,2021.2.3,Win32,143.9677512,613e44dd550d01b43a553131,626b377229c10585ec392f89,626b3af2f3e4daab5707274b,,,,,,,,,,,,,,,,,,,,,,,a,1,6.8502,"[""0.323"",""0.357"",""0.853"",""0.956""]","[1,0,1,1]",0,9,9,9,1,0,1,,,1,FALSE,,,,,,,,,,,,,,,,,,,,,,,,,,,,,,
,613e44dd550d01b43a553131,001,2022-04-28_20h21.29.078,classification_task,2021.2.3,Win32,143.9677512,613e44dd550d01b43a553131,626b377229c10585ec392f89,626b3af2f3e4daab5707274b,,,,,,,,,,,,,,,,,,,,,,,a,1,6.2168,"[""0.357"",""0.435"",""0.853"",""0.956""]","[0,1,1,1]",0,10,10,10,1,0,1,,,1,FALSE,,,,,,,,,,,,,,,,,,,,,,,,,,,,,,
,613e44dd550d01b43a553131,001,2022-04-28_20h21.29.078,classification_task,2021.2.3,Win32,143.9677512,613e44dd550d01b43a553131,626b377229c10585ec392f89,626b3af2f3e4daab5707274b,,,,,,,,,,,,,,,,,,,,,,,l,1,6.7759,"[""0.581"",""0.154"",""0.475"",""0.781""]","[0,1,1,1]",0,11,11,11,1,1,1,,,1,FALSE,,,,,,,,,,,,,,,,,,,,,,,,,,,,,,
,613e44dd550d01b43a553131,001,2022-04-28_20h21.29.078,classification_task,2021.2.3,Win32,143.9677512,613e44dd550d01b43a553131,626b377229c10585ec392f89,626b3af2f3e4daab5707274b,,,,,,,,,,,,,,,,,,,,,,,l,0,2.644,"[""0.224"",""0.031"",""0.615"",""0.916""]","[1,0,1,1]",0,12,12,12,1,0,0,,,1,FALSE,,,,,,,,,,,,,,,,,,,,,,,,,,,,,,
,613e44dd550d01b43a553131,001,2022-04-28_20h21.29.078,classification_task,2021.2.3,Win32,143.9677512,613e44dd550d01b43a553131,626b377229c10585ec392f89,626b3af2f3e4daab5707274b,,,,,,,,,,,,,,,,,,,,,,,l,1,7.1337,"[""0.070"",""0.278"",""0.539"",""0.578""]","[1,1,1,0]",0,13,13,13,1,1,0,,,1,FALSE,,,,,,,,,,,,,,,,,,,,,,,,,,,,,,
,613e44dd550d01b43a553131,001,2022-04-28_20h21.29.078,classification_task,2021.2.3,Win32,143.9677512,613e44dd550d01b43a553131,626b377229c10585ec392f89,626b3af2f3e4daab5707274b,,,,,,,,,,,,,,,,,,,,,,,l,1,2.6601,"[""0.115"",""0.154"",""0.680"",""0.781""]","[1,1,0,1]",0,14,14,14,1,1,1,,,1,FALSE,,,,,,,,,,,,,,,,,,,,,,,,,,,,,,
,613e44dd550d01b43a553131,001,2022-04-28_20h21.29.078,classification_task,2021.2.3,Win32,143.9677512,613e44dd550d01b43a553131,626b377229c10585ec392f89,626b3af2f3e4daab5707274b,,,,,,,,,,,,,,,,,,,,,,,a,1,4.9928,"[""0.573"",""0.399"",""0.615"",""0.916""]","[0,1,1,1]",0,15,15,15,1,0,0,,,1,FALSE,,,,,,,,,,,,,,,,,,,,,,,,,,,,,,
,613e44dd550d01b43a553131,001,2022-04-28_20h21.29.078,classification_task,2021.2.3,Win32,143.9677512,613e44dd550d01b43a553131,626b377229c10585ec392f89,626b3af2f3e4daab5707274b,,,,,,,,,,,,,,,,,,,,,,,l,1,5.9505,"[""0.115"",""0.154"",""0.573"",""0.781""]","[1,1,0,1]",0,16,16,16,1,1,1,,,1,FALSE,,,,,,,,,,,,,,,,,,,,,,,,,,,,,,
,613e44dd550d01b43a553131,001,2022-04-28_20h21.29.078,classification_task,2021.2.3,Win32,143.9677512,613e44dd550d01b43a553131,626b377229c10585ec392f89,626b3af2f3e4daab5707274b,,,,,,,,,,,,,,,,,,,,,,,a,1,3.3533,"[""0.224"",""0.399"",""0.615"",""0.580""]","[1,1,1,0]",0,17,17,17,1,0,0,,,1,FALSE,,,,,,,,,,,,,,,,,,,,,,,,,,,,,,
,613e44dd550d01b43a553131,001,2022-04-28_20h21.29.078,classification_task,2021.2.3,Win32,143.9677512,613e44dd550d01b43a553131,626b377229c10585ec392f89,626b3af2f3e4daab5707274b,,,,,,,,,,,,,,,,,,,,,,,l,1,2.2626,"[""0.657"",""0.154"",""0.475"",""0.781""]","[0,1,1,1]",0,18,18,18,1,1,1,,,1,FALSE,,,,,,,,,,,,,,,,,,,,,,,,,,,,,,
,613e44dd550d01b43a553131,001,2022-04-28_20h21.29.078,classification_task,2021.2.3,Win32,143.9677512,613e44dd550d01b43a553131,626b377229c10585ec392f89,626b3af2f3e4daab5707274b,,,,,,,,,,,,,,,,,,,,,,,a,1,2.5061,"[""0.224"",""0.399"",""0.657"",""0.916""]","[1,1,0,1]",0,19,19,19,1,0,0,,,1,FALSE,,,,,,,,,,,,,,,,,,,,,,,,,,,,,,
,613e44dd550d01b43a553131,001,2022-04-28_20h21.29.078,classification_task,2021.2.3,Win32,143.9677512,613e44dd550d01b43a553131,626b377229c10585ec392f89,626b3af2f3e4daab5707274b,,,,,,,,,,,,,,,,,,,,,,,l,1,1.3902,"[""0.070"",""0.278"",""0.657"",""0.718""]","[1,1,0,1]",0,20,20,20,1,1,0,,,1,FALSE,,,,,,,,,,,,,,,,,,,,,,,,,,,,,,
,613e44dd550d01b43a553131,001,2022-04-28_20h21.29.078,classification_task,2021.2.3,Win32,143.9677512,613e44dd550d01b43a553131,626b377229c10585ec392f89,626b3af2f3e4daab5707274b,,,,,,,,,,,,,,,,,,,,,,,l,1,2.2175,"[""0.070"",""0.278"",""0.539"",""0.653""]","[1,1,1,0]",0,21,21,21,1,1,0,,,1,FALSE,,,,,,,,,,,,,,,,,,,,,,,,,,,,,,
,613e44dd550d01b43a553131,001,2022-04-28_20h21.29.078,classification_task,2021.2.3,Win32,143.9677512,613e44dd550d01b43a553131,626b377229c10585ec392f89,626b3af2f3e4daab5707274b,,,,,,,,,,,,,,,,,,,,,,,a,1,2.3129,"[""0.323"",""0.677"",""0.853"",""0.956""]","[1,0,1,1]",0,22,22,22,1,0,1,,,1,FALSE,,,,,,,,,,,,,,,,,,,,,,,,,,,,,,
,613e44dd550d01b43a553131,001,2022-04-28_20h21.29.078,classification_task,2021.2.3,Win32,143.9677512,613e44dd550d01b43a553131,626b377229c10585ec392f89,626b3af2f3e4daab5707274b,,,,,,,,,,,,,,,,,,,,,,,l,1,1.8337,"[""0.115"",""0.154"",""0.475"",""0.649""]","[1,1,1,0]",0,23,23,23,1,1,1,,,1,FALSE,,,,,,,,,,,,,,,,,,,,,,,,,,,,,,
,613e44dd550d01b43a553131,001,2022-04-28_20h21.29.078,classification_task,2021.2.3,Win32,143.9677512,613e44dd550d01b43a553131,626b377229c10585ec392f89,626b3af2f3e4daab5707274b,,,,,,,,,,,,,,,,,,,,,,,a,1,3.4321,"[""0.224"",""0.667"",""0.615"",""0.916""]","[1,0,1,1]",0,24,24,24,1,0,0,,,1,FALSE,,,,,,,,,,,,,,,,,,,,,,,,,,,,,,
,613e44dd550d01b43a553131,001,2022-04-28_20h21.29.078,classification_task,2021.2.3,Win32,143.9677512,613e44dd550d01b43a553131,626b377229c10585ec392f89,626b3af2f3e4daab5707274b,,,,,,,,,,,,,,,,,,,,,,,a,0,4.8633,"[""0.680"",""0.278"",""0.539"",""0.718""]","[0,1,1,1]",0,25,25,25,1,1,0,,,1,FALSE,,,,,,,,,,,,,,,,,,,,,,,,,,,,,,
,613e44dd550d01b43a553131,001,2022-04-28_20h21.29.078,classification_task,2021.2.3,Win32,143.9677512,613e44dd550d01b43a553131,626b377229c10585ec392f89,626b3af2f3e4daab5707274b,,,,,,,,,,,,,,,,,,,,,,,a,1,6.0828,"[""0.034"",""0.435"",""0.853"",""0.956""]","[0,1,1,1]",0,26,26,26,1,0,1,,,1,FALSE,,,,,,,,,,,,,,,,,,,,,,,,,,,,,,
,613e44dd550d01b43a553131,001,2022-04-28_20h21.29.078,classification_task,2021.2.3,Win32,143.9677512,613e44dd550d01b43a553131,626b377229c10585ec392f89,626b3af2f3e4daab5707274b,,,,,,,,,,,,,,,,,,,,,,,l,1,2.4682,"[""0.115"",""0.649"",""0.475"",""0.781""]","[1,0,1,1]",0,27,27,27,1,1,1,,,1,FALSE,,,,,,,,,,,,,,,,,,,,,,,,,,,,,,
,613e44dd550d01b43a553131,001,2022-04-28_20h21.29.078,classification_task,2021.2.3,Win32,143.9677512,613e44dd550d01b43a553131,626b377229c10585ec392f89,626b3af2f3e4daab5707274b,,,,,,,,,,,,,,,,,,,,,,,a,1,3.9462,"[""0.323"",""0.435"",""0.649"",""0.956""]","[1,1,0,1]",0,28,28,28,1,0,1,,,1,FALSE,,,,,,,,,,,,,,,,,,,,,,,,,,,,,,
,613e44dd550d01b43a553131,001,2022-04-28_20h21.29.078,classification_task,2021.2.3,Win32,143.9677512,613e44dd550d01b43a553131,626b377229c10585ec392f89,626b3af2f3e4daab5707274b,,,,,,,,,,,,,,,,,,,,,,,a,1,3.9375,"[""0.677"",""0.399"",""0.615"",""0.916""]","[0,1,1,1]",0,29,29,29,1,0,0,,,1,FALSE,,,,,,,,,,,,,,,,,,,,,,,,,,,,,,
,613e44dd550d01b43a553131,001,2022-04-28_20h21.29.078,classification_task,2021.2.3,Win32,143.9677512,613e44dd550d01b43a553131,626b377229c10585ec392f89,626b3af2f3e4daab5707274b,,,,,,,,,,,,,,,,,,,,,,,l,1,2.5177,"[""0.070"",""0.660"",""0.539"",""0.718""]","[1,0,1,1]",0,30,30,30,1,1,0,,,1,FALSE,,,,,,,,,,,,,,,,,,,,,,,,,,,,,,
,613e44dd550d01b43a553131,001,2022-04-28_20h21.29.078,classification_task,2021.2.3,Win32,143.9677512,613e44dd550d01b43a553131,626b377229c10585ec392f89,626b3af2f3e4daab5707274b,,,,,,,,,,,,,,,,,,,,,,,a,1,5.8625,"[""0.323"",""0.435"",""0.853"",""0.573""]","[1,1,1,0]",0,31,31,31,1,0,1,,,1,FALSE,,,,,,,,,,,,,,,,,,,,,,,,,,,,,,
,613e44dd550d01b43a553131,001,2022-04-28_20h21.29.078,classification_task,2021.2.3,Win32,143.9677512,613e44dd550d01b43a553131,626b377229c10585ec392f89,626b3af2f3e4daab5707274b,,,,,,,,,,,,,,,,,,,,,,,l,1,2.8686,"[""0.115"",""0.154"",""0.657"",""0.781""]","[1,1,0,1]",0,32,32,32,1,1,1,,,1,FALSE,,,,,,,,,,,,,,,,,,,,,,,,,,,,,,
,613e44dd550d01b43a553131,001,2022-04-28_20h21.29.078,classification_task,2021.2.3,Win32,143.9677512,613e44dd550d01b43a553131,626b377229c10585ec392f89,626b3af2f3e4daab5707274b,,,,,,,,,,,,,,,,,,,,,,,a,0,0.9673,"[""0.357"",""0.154"",""0.475"",""0.781""]","[0,1,1,1]",0,33,33,33,1,1,1,,,1,FALSE,,,,,,,,,,,,,,,,,,,,,,,,,,,,,,
,613e44dd550d01b43a553131,001,2022-04-28_20h21.29.078,classification_task,2021.2.3,Win32,143.9677512,613e44dd550d01b43a553131,626b377229c10585ec392f89,626b3af2f3e4daab5707274b,,,,,,,,,,,,,,,,,,,,,,,l,1,1.3887,"[""0.070"",""0.357"",""0.539"",""0.718""]","[1,0,1,1]",0,34,34,34,1,1,0,,,1,FALSE,,,,,,,,,,,,,,,,,,,,,,,,,,,,,,
,613e44dd550d01b43a553131,001,2022-04-28_20h21.29.078,classification_task,2021.2.3,Win32,143.9677512,613e44dd550d01b43a553131,626b377229c10585ec392f89,626b3af2f3e4daab5707274b,,,,,,,,,,,,,,,,,,,,,,,l,0,1.3436,"[""0.323"",""0.034"",""0.853"",""0.956""]","[1,0,1,1]",0,35,35,35,1,0,1,,,1,FALSE,,,,,,,,,,,,,,,,,,,,,,,,,,,,,,
,613e44dd550d01b43a553131,001,2022-04-28_20h21.29.078,classification_task,2021.2.3,Win32,143.9677512,613e44dd550d01b43a553131,626b377229c10585ec392f89,626b3af2f3e4daab5707274b,,,,,,,,,,,,,,,,,,,,,,,a,1,1.4814,"[""0.224"",""0.399"",""0.615"",""0.660""]","[1,1,1,0]",0,36,36,36,1,0,0,,,1,FALSE,,,,,,,,,,,,,,,,,,,,,,,,,,,,,,
,613e44dd550d01b43a553131,001,2022-04-28_20h21.29.078,classification_task,2021.2.3,Win32,143.9677512,613e44dd550d01b43a553131,626b377229c10585ec392f89,626b3af2f3e4daab5707274b,,,,,,,,,,,,,,,,,,,,,,,a,0,0.8677,"[""0.357"",""0.278"",""0.539"",""0.718""]","[0,1,1,1]",0,37,37,37,1,1,0,,,1,FALSE,,,,,,,,,,,,,,,,,,,,,,,,,,,,,,
,613e44dd550d01b43a553131,001,2022-04-28_20h21.29.078,classification_task,2021.2.3,Win32,143.9677512,613e44dd550d01b43a553131,626b377229c10585ec392f89,626b3af2f3e4daab5707274b,,,,,,,,,,,,,,,,,,,,,,,l,1,1.6939,"[""0.070"",""0.278"",""0.539"",""0.657""]","[1,1,1,0]",0,38,38,38,1,1,0,,,1,FALSE,,,,,,,,,,,,,,,,,,,,,,,,,,,,,,
,613e44dd550d01b43a553131,001,2022-04-28_20h21.29.078,classification_task,2021.2.3,Win32,143.9677512,613e44dd550d01b43a553131,626b377229c10585ec392f89,626b3af2f3e4daab5707274b,,,,,,,,,,,,,,,,,,,,,,,l,0,1.1075,"[""0.323"",""0.435"",""0.031"",""0.956""]","[1,1,0,1]",0,39,39,39,1,0,1,,,1,FALSE,,,,,,,,,,,,,,,,,,,,,,,,,,,,,,
,613e44dd550d01b43a553131,001,2022-04-28_20h21.29.078,classification_task,2021.2.3,Win32,143.9677512,613e44dd550d01b43a553131,626b377229c10585ec392f89,626b3af2f3e4daab5707274b,,,,,,,,,,,,,,,,,,,,,,,l,1,2.4172,"[""0.070"",""0.278"",""0.357"",""0.718""]","[1,1,0,1]",0,40,40,40,1,1,0,,,1,FALSE,,,,,,,,,,,,,,,,,,,,,,,,,,,,,,
,613e44dd550d01b43a553131,001,2022-04-28_20h21.29.078,classification_task,2021.2.3,Win32,143.9677512,613e44dd550d01b43a553131,626b377229c10585ec392f89,626b3af2f3e4daab5707274b,,,,,,,,,,,,,,,,,,,,,,,a,1,1.287,"[""0.680"",""0.435"",""0.853"",""0.956""]","[0,1,1,1]",0,41,41,41,1,0,1,,,1,FALSE,,,,,,,,,,,,,,,,,,,,,,,,,,,,,,
,613e44dd550d01b43a553131,001,2022-04-28_20h21.29.078,classification_task,2021.2.3,Win32,143.9677512,613e44dd550d01b43a553131,626b377229c10585ec392f89,626b3af2f3e4daab5707274b,,,,,,,,,,,,,,,,,,,,,,,a,1,1.7223,"[""0.224"",""0.399"",""0.656"",""0.916""]","[1,1,0,1]",0,42,42,42,1,0,0,,,1,FALSE,,,,,,,,,,,,,,,,,,,,,,,,,,,,,,
,613e44dd550d01b43a553131,001,2022-04-28_20h21.29.078,classification_task,2021.2.3,Win32,143.9677512,613e44dd550d01b43a553131,626b377229c10585ec392f89,626b3af2f3e4daab5707274b,,,,,,,,,,,,,,,,,,,,,,,a,1,1.4792,"[""0.656"",""0.399"",""0.615"",""0.916""]","[0,1,1,1]",0,43,43,43,1,0,0,,,1,FALSE,,,,,,,,,,,,,,,,,,,,,,,,,,,,,,
,613e44dd550d01b43a553131,001,2022-04-28_20h21.29.078,classification_task,2021.2.3,Win32,143.9677512,613e44dd550d01b43a553131,626b377229c10585ec392f89,626b3af2f3e4daab5707274b,,,,,,,,,,,,,,,,,,,,,,,l,1,1.3144,"[""0.115"",""0.154"",""0.475"",""0.680""]","[1,1,1,0]",0,44,44,44,1,1,1,,,1,FALSE,,,,,,,,,,,,,,,,,,,,,,,,,,,,,,
,613e44dd550d01b43a553131,001,2022-04-28_20h21.29.078,classification_task,2021.2.3,Win32,143.9677512,613e44dd550d01b43a553131,626b377229c10585ec392f89,626b3af2f3e4daab5707274b,,,,,,,,,,,,,,,,,,,,,,,a,1,2.5206,"[""0.224"",""0.578"",""0.615"",""0.916""]","[1,0,1,1]",0,45,45,45,1,0,0,,,1,FALSE,,,,,,,,,,,,,,,,,,,,,,,,,,,,,,
,613e44dd550d01b43a553131,001,2022-04-28_20h21.29.078,classification_task,2021.2.3,Win32,143.9677512,613e44dd550d01b43a553131,626b377229c10585ec392f89,626b3af2f3e4daab5707274b,,,,,,,,,,,,,,,,,,,,,,,a,1,2.2311,"[""0.323"",""0.435"",""0.853"",""0.666""]","[1,1,1,0]",0,46,46,46,1,0,1,,,1,FALSE,,,,,,,,,,,,,,,,,,,,,,,,,,,,,,
,613e44dd550d01b43a553131,001,2022-04-28_20h21.29.078,classification_task,2021.2.3,Win32,143.9677512,613e44dd550d01b43a553131,626b377229c10585ec392f89,626b3af2f3e4daab5707274b,,,,,,,,,,,,,,,,,,,,,,,l,1,1.8749,"[""0.115"",""0.660"",""0.475"",""0.781""]","[1,0,1,1]",0,47,47,47,1,1,1,,,1,FALSE,,,,,,,,,,,,,,,,,,,,,,,,,,,,,,
,613e44dd550d01b43a553131,001,2022-04-28_20h21.29.078,classification_task,2021.2.3,Win32,143.9677512,613e44dd550d01b43a553131,626b377229c10585ec392f89,626b3af2f3e4daab5707274b,,,,,,,,,,,,,,,,,,,,,,,l,1,2.8852,"[""0.070"",""0.278"",""0.539"",""0.649""]","[1,1,1,0]",0,48,48,48,1,1,0,,,1,FALSE,,,,,,,,,,,,,,,,,,,,,,,,,,,,,,
,613e44dd550d01b43a553131,001,2022-04-28_20h21.29.078,classification_task,2021.2.3,Win32,143.9677512,613e44dd550d01b43a553131,626b377229c10585ec392f89,626b3af2f3e4daab5707274b,,,,,,,,,,,,,,,,,,,,,,,a,0,1.5849,"[""0.115"",""0.580"",""0.475"",""0.781""]","[1,0,1,1]",0,49,49,49,1,1,1,,,1,FALSE,,,,,,,,,,,,,,,,,,,,,,,,,,,,,,
,613e44dd550d01b43a553131,001,2022-04-28_20h21.29.078,classification_task,2021.2.3,Win32,143.9677512,613e44dd550d01b43a553131,626b377229c10585ec392f89,626b3af2f3e4daab5707274b,,,,,,,,,,,,,,,,,,,,,,,l,1,1.4243,"[""0.070"",""0.657"",""0.539"",""0.718""]","[1,0,1,1]",0,50,50,50,1,1,0,,,1,FALSE,,,,,,,,,,,,,,,,,,,,,,,,,,,,,,
,613e44dd550d01b43a553131,001,2022-04-28_20h21.29.078,classification_task,2021.2.3,Win32,143.9677512,613e44dd550d01b43a553131,626b377229c10585ec392f89,626b3af2f3e4daab5707274b,,,,,,,,,,,,,,,,,,,,,,,l,0,0.966,"[""0.323"",""0.435"",""0.853"",""0.031""]","[1,1,1,0]",0,51,51,51,1,0,1,,,1,FALSE,,,,,,,,,,,,,,,,,,,,,,,,,,,,,,
,613e44dd550d01b43a553131,001,2022-04-28_20h21.29.078,classification_task,2021.2.3,Win32,143.9677512,613e44dd550d01b43a553131,626b377229c10585ec392f89,626b3af2f3e4daab5707274b,,,,,,,,,,,,,,,,,,,,,,,a,1,1.5428,"[""0.224"",""0.399"",""0.657"",""0.916""]","[1,1,0,1]",0,52,52,52,1,0,0,,,1,FALSE,,,,,,,,,,,,,,,,,,,,,,,,,,,,,,
,613e44dd550d01b43a553131,001,2022-04-28_20h21.29.078,classification_task,2021.2.3,Win32,143.9677512,613e44dd550d01b43a553131,626b377229c10585ec392f89,626b3af2f3e4daab5707274b,,,,,,,,,,,,,,,,,,,,,,,l,1,4.4516,"[""0.573"",""0.154"",""0.475"",""0.781""]","[0,1,1,1]",0,53,53,53,1,1,1,,,1,FALSE,,,,,,,,,,,,,,,,,,,,,,,,,,,,,,
,613e44dd550d01b43a553131,001,2022-04-28_20h21.29.078,classification_task,2021.2.3,Win32,143.9677512,613e44dd550d01b43a553131,626b377229c10585ec392f89,626b3af2f3e4daab5707274b,,,,,,,,,,,,,,,,,,,,,,,l,0,0.9827,"[""0.323"",""0.031"",""0.853"",""0.956""]","[1,0,1,1]",0,54,54,54,1,0,1,,,1,FALSE,,,,,,,,,,,,,,,,,,,,,,,,,,,,,,
,613e44dd550d01b43a553131,001,2022-04-28_20h21.29.078,classification_task,2021.2.3,Win32,143.9677512,613e44dd550d01b43a553131,626b377229c10585ec392f89,626b3af2f3e4daab5707274b,,,,,,,,,,,,,,,,,,,,,,,l,1,1.4684,"[""0.115"",""0.154"",""0.666"",""0.781""]","[1,1,0,1]",0,55,55,55,1,1,1,,,1,FALSE,,,,,,,,,,,,,,,,,,,,,,,,,,,,,,
,613e44dd550d01b43a553131,001,2022-04-28_20h21.29.078,classification_task,2021.2.3,Win32,143.9677512,613e44dd550d01b43a553131,626b377229c10585ec392f89,626b3af2f3e4daab5707274b,,,,,,,,,,,,,,,,,,,,,,,a,1,0.8222,"[""0.649"",""0.399"",""0.615"",""0.916""]","[0,1,1,1]",0,56,56,56,1,0,0,,,1,FALSE,,,,,,,,,,,,,,,,,,,,,,,,,,,,,,
,613e44dd550d01b43a553131,001,2022-04-28_20h21.29.078,classification_task,2021.2.3,Win32,143.9677512,613e44dd550d01b43a553131,626b377229c10585ec392f89,626b3af2f3e4daab5707274b,,,,,,,,,,,,,,,,,,,,,,,l,1,2.049,"[""0.115"",""0.154"",""0.475"",""0.578""]","[1,1,1,0]",0,57,57,57,1,1,1,,,1,FALSE,,,,,,,,,,,,,,,,,,,,,,,,,,,,,,
,613e44dd550d01b43a553131,001,2022-04-28_20h21.29.078,classification_task,2021.2.3,Win32,143.9677512,613e44dd550d01b43a553131,626b377229c10585ec392f89,626b3af2f3e4daab5707274b,,,,,,,,,,,,,,,,,,,,,,,a,1,0.9606,"[""0.323"",""0.435"",""0.578"",""0.956""]","[1,1,0,1]",0,58,58,58,1,0,1,,,1,FALSE,,,,,,,,,,,,,,,,,,,,,,,,,,,,,,
,613e44dd550d01b43a553131,001,2022-04-28_20h21.29.078,classification_task,2021.2.3,Win32,143.9677512,613e44dd550d01b43a553131,626b377229c10585ec392f89,626b3af2f3e4daab5707274b,,,,,,,,,,,,,,,,,,,,,,,l,0,0.847,"[""0.224"",""0.399"",""0.615"",""0.034""]","[1,1,1,0]",0,59,59,59,1,0,0,,,1,FALSE,,,,,,,,,,,,,,,,,,,,,,,,,,,,,,
,613e44dd550d01b43a553131,001,2022-04-28_20h21.29.078,classification_task,2021.2.3,Win32,143.9677512,613e44dd550d01b43a553131,626b377229c10585ec392f89,626b3af2f3e4daab5707274b,,,,,,,,,,,,,,,,,,,,,,,a,0,1.1627,"[""0.667"",""0.278"",""0.539"",""0.718""]","[0,1,1,1]",0,60,60,60,1,1,0,,,1,FALSE,,,,,,,,,,,,,,,,,,,,,,,,,,,,,,
,613e44dd550d01b43a553131,001,2022-04-28_20h21.29.078,classification_task,2021.2.3,Win32,143.9677512,613e44dd550d01b43a553131,626b377229c10585ec392f89,626b3af2f3e4daab5707274b,,,,,,,,,,,,,,,,,,,,,,,a,1,2.1249,"[""0.677"",""0.435"",""0.853"",""0.956""]","[0,1,1,1]",0,61,61,61,1,0,1,,,1,FALSE,,,,,,,,,,,,,,,,,,,,,,,,,,,,,,
,613e44dd550d01b43a553131,001,2022-04-28_20h21.29.078,classification_task,2021.2.3,Win32,143.9677512,613e44dd550d01b43a553131,626b377229c10585ec392f89,626b3af2f3e4daab5707274b,,,,,,,,,,,,,,,,,,,,,,,a,1,3.2564,"[""0.224"",""0.666"",""0.615"",""0.916""]","[1,0,1,1]",0,62,62,62,1,0,0,,,1,FALSE,,,,,,,,,,,,,,,,,,,,,,,,,,,,,,
,613e44dd550d01b43a553131,001,2022-04-28_20h21.29.078,classification_task,2021.2.3,Win32,143.9677512,613e44dd550d01b43a553131,626b377229c10585ec392f89,626b3af2f3e4daab5707274b,,,,,,,,,,,,,,,,,,,,,,,l,1,0.7206,"[""0.070"",""0.278"",""0.677"",""0.718""]","[1,1,0,1]",0,63,63,63,1,1,0,,,1,FALSE,,,,,,,,,,,,,,,,,,,,,,,,,,,,,,
,613e44dd550d01b43a553131,001,2022-04-28_20h21.29.078,classification_task,2021.2.3,Win32,143.9677512,613e44dd550d01b43a553131,626b377229c10585ec392f89,626b3af2f3e4daab5707274b,,,,,,,,,,,,,,,,,,,,,,,,,,,,,,,,,,,,,,,0, ,,0,10,585.0861,0,0,0,0,1,2,1,,,,,,,,,,,,,,,,,
,613e44dd550d01b43a553131,001,2022-04-28_20h21.29.078,classification_task,2021.2.3,Win32,143.9677512,613e44dd550d01b43a553131,626b377229c10585ec392f89,626b3af2f3e4daab5707274b,,,,,,,,,,,,,,,,,,,,,,,,,,,,,,,,,,,,,,,1,  ,,0,2.403489639,593.4792,0,0,0,0,1,2,1,,,,,,,,,,,,,,,,,
,613e44dd550d01b43a553131,001,2022-04-28_20h21.29.078,classification_task,2021.2.3,Win32,143.9677512,613e44dd550d01b43a553131,626b377229c10585ec392f89,626b3af2f3e4daab5707274b,,,,,,,,,,,,,,,,,,,,,,,,,,,,,,,,,,,,,,,2,  ,,0,0.223398001,597.6858,0,0,0,0,1,2,1,,,,,,,,,,,,,,,,,
,613e44dd550d01b43a553131,001,2022-04-28_20h21.29.078,classification_task,2021.2.3,Win32,143.9677512,613e44dd550d01b43a553131,626b377229c10585ec392f89,626b3af2f3e4daab5707274b,,,,,,,,,,,,,,,,,,,,,,,,,,,,,,,,,,,,,,,,,,,,,0,0,0,0,1,,1,,,,,,,,,,,,,,,,,
,613e44dd550d01b43a553131,001,2022-04-28_20h21.29.078,classification_task,2021.2.3,Win32,143.9677512,613e44dd550d01b43a553131,626b377229c10585ec392f89,626b3af2f3e4daab5707274b,,,,,,,,,,,,,,,,,,,,,space,14.7536,l,1,2.2104,"[""0.070"",""0.278"",""0.573"",""0.718""]","[1,1,0,1]",0,0,0,0,1,1,0,,,1,FALSE,,,,,,,,,,,,,,,,,,,,,,,,,,,,,,
,613e44dd550d01b43a553131,001,2022-04-28_20h21.29.078,classification_task,2021.2.3,Win32,143.9677512,613e44dd550d01b43a553131,626b377229c10585ec392f89,626b3af2f3e4daab5707274b,,,,,,,,,,,,,,,,,,,,,,,l,1,1.8206,"[""0.070"",""0.278"",""0.539"",""0.031""]","[1,1,1,0]",0,1,1,1,1,1,0,,,1,FALSE,,,,,,,,,,,,,,,,,,,,,,,,,,,,,,
,613e44dd550d01b43a553131,001,2022-04-28_20h21.29.078,classification_task,2021.2.3,Win32,143.9677512,613e44dd550d01b43a553131,626b377229c10585ec392f89,626b3af2f3e4daab5707274b,,,,,,,,,,,,,,,,,,,,,,,a,0,0.9807,"[""0.677"",""0.278"",""0.539"",""0.718""]","[0,1,1,1]",0,2,2,2,1,1,0,,,1,FALSE,,,,,,,,,,,,,,,,,,,,,,,,,,,,,,
,613e44dd550d01b43a553131,001,2022-04-28_20h21.29.078,classification_task,2021.2.3,Win32,143.9677512,613e44dd550d01b43a553131,626b377229c10585ec392f89,626b3af2f3e4daab5707274b,,,,,,,,,,,,,,,,,,,,,,,a,1,3.6152,"[""0.323"",""0.660"",""0.853"",""0.956""]","[1,0,1,1]",0,3,3,3,1,0,1,,,1,FALSE,,,,,,,,,,,,,,,,,,,,,,,,,,,,,,
,613e44dd550d01b43a553131,001,2022-04-28_20h21.29.078,classification_task,2021.2.3,Win32,143.9677512,613e44dd550d01b43a553131,626b377229c10585ec392f89,626b3af2f3e4daab5707274b,,,,,,,,,,,,,,,,,,,,,,,l,1,2.3494,"[""0.115"",""0.154"",""0.660"",""0.781""]","[1,1,0,1]",0,4,4,4,1,1,1,,,1,FALSE,,,,,,,,,,,,,,,,,,,,,,,,,,,,,,
,613e44dd550d01b43a553131,001,2022-04-28_20h21.29.078,classification_task,2021.2.3,Win32,143.9677512,613e44dd550d01b43a553131,626b377229c10585ec392f89,626b3af2f3e4daab5707274b,,,,,,,,,,,,,,,,,,,,,,,a,1,2.3708,"[""0.666"",""0.399"",""0.615"",""0.916""]","[0,1,1,1]",0,5,5,5,1,0,0,,,1,FALSE,,,,,,,,,,,,,,,,,,,,,,,,,,,,,,
,613e44dd550d01b43a553131,001,2022-04-28_20h21.29.078,classification_task,2021.2.3,Win32,143.9677512,613e44dd550d01b43a553131,626b377229c10585ec392f89,626b3af2f3e4daab5707274b,,,,,,,,,,,,,,,,,,,,,,,a,1,2.9504,"[""0.224"",""0.581"",""0.615"",""0.916""]","[1,0,1,1]",0,6,6,6,1,0,0,,,1,FALSE,,,,,,,,,,,,,,,,,,,,,,,,,,,,,,
,613e44dd550d01b43a553131,001,2022-04-28_20h21.29.078,classification_task,2021.2.3,Win32,143.9677512,613e44dd550d01b43a553131,626b377229c10585ec392f89,626b3af2f3e4daab5707274b,,,,,,,,,,,,,,,,,,,,,,,a,1,1.9874,"[""0.224"",""0.399"",""0.615"",""0.656""]","[1,1,1,0]",0,7,7,7,1,0,0,,,1,FALSE,,,,,,,,,,,,,,,,,,,,,,,,,,,,,,
,613e44dd550d01b43a553131,001,2022-04-28_20h21.29.078,classification_task,2021.2.3,Win32,143.9677512,613e44dd550d01b43a553131,626b377229c10585ec392f89,626b3af2f3e4daab5707274b,,,,,,,,,,,,,,,,,,,,,,,a,1,0.9599,"[""0.034"",""0.435"",""0.853"",""0.956""]","[0,1,1,1]",0,8,8,8,1,0,1,,,1,FALSE,,,,,,,,,,,,,,,,,,,,,,,,,,,,,,
,613e44dd550d01b43a553131,001,2022-04-28_20h21.29.078,classification_task,2021.2.3,Win32,143.9677512,613e44dd550d01b43a553131,626b377229c10585ec392f89,626b3af2f3e4daab5707274b,,,,,,,,,,,,,,,,,,,,,,,a,1,2.2154,"[""0.224"",""0.399"",""0.578"",""0.916""]","[1,1,0,1]",0,9,9,9,1,0,0,,,1,FALSE,,,,,,,,,,,,,,,,,,,,,,,,,,,,,,
,613e44dd550d01b43a553131,001,2022-04-28_20h21.29.078,classification_task,2021.2.3,Win32,143.9677512,613e44dd550d01b43a553131,626b377229c10585ec392f89,626b3af2f3e4daab5707274b,,,,,,,,,,,,,,,,,,,,,,,a,1,2.9842,"[""0.323"",""0.435"",""0.853"",""0.034""]","[1,1,1,0]",0,10,10,10,1,0,1,,,1,FALSE,,,,,,,,,,,,,,,,,,,,,,,,,,,,,,
,613e44dd550d01b43a553131,001,2022-04-28_20h21.29.078,classification_task,2021.2.3,Win32,143.9677512,613e44dd550d01b43a553131,626b377229c10585ec392f89,626b3af2f3e4daab5707274b,,,,,,,,,,,,,,,,,,,,,,,l,1,0.7257,"[""0.649"",""0.154"",""0.475"",""0.781""]","[0,1,1,1]",0,11,11,11,1,1,1,,,1,FALSE,,,,,,,,,,,,,,,,,,,,,,,,,,,,,,
,613e44dd550d01b43a553131,001,2022-04-28_20h21.29.078,classification_task,2021.2.3,Win32,143.9677512,613e44dd550d01b43a553131,626b377229c10585ec392f89,626b3af2f3e4daab5707274b,,,,,,,,,,,,,,,,,,,,,,,l,1,1.0763,"[""0.070"",""0.031"",""0.539"",""0.718""]","[1,0,1,1]",0,12,12,12,1,1,0,,,1,FALSE,,,,,,,,,,,,,,,,,,,,,,,,,,,,,,
,613e44dd550d01b43a553131,001,2022-04-28_20h21.29.078,classification_task,2021.2.3,Win32,143.9677512,613e44dd550d01b43a553131,626b377229c10585ec392f89,626b3af2f3e4daab5707274b,,,,,,,,,,,,,,,,,,,,,,,a,1,0.763,"[""0.323"",""0.435"",""0.653"",""0.956""]","[1,1,0,1]",0,13,13,13,1,0,1,,,1,FALSE,,,,,,,,,,,,,,,,,,,,,,,,,,,,,,
,613e44dd550d01b43a553131,001,2022-04-28_20h21.29.078,classification_task,2021.2.3,Win32,143.9677512,613e44dd550d01b43a553131,626b377229c10585ec392f89,626b3af2f3e4daab5707274b,,,,,,,,,,,,,,,,,,,,,,,l,1,0.6449,"[""0.115"",""0.154"",""0.475"",""0.649""]","[1,1,1,0]",0,14,14,14,1,1,1,,,1,FALSE,,,,,,,,,,,,,,,,,,,,,,,,,,,,,,
,613e44dd550d01b43a553131,001,2022-04-28_20h21.29.078,classification_task,2021.2.3,Win32,143.9677512,613e44dd550d01b43a553131,626b377229c10585ec392f89,626b3af2f3e4daab5707274b,,,,,,,,,,,,,,,,,,,,,,,l,1,0.5834,"[""0.115"",""0.581"",""0.475"",""0.781""]","[1,0,1,1]",0,15,15,15,1,1,1,,,1,FALSE,,,,,,,,,,,,,,,,,,,,,,,,,,,,,,
,613e44dd550d01b43a553131,001,2022-04-28_20h21.29.078,classification_task,2021.2.3,Win32,143.9677512,613e44dd550d01b43a553131,626b377229c10585ec392f89,626b3af2f3e4daab5707274b,,,,,,,,,,,,,,,,,,,,,,,l,1,1.5806,"[""0.070"",""0.680"",""0.539"",""0.718""]","[1,0,1,1]",0,16,16,16,1,1,0,,,1,FALSE,,,,,,,,,,,,,,,,,,,,,,,,,,,,,,
,613e44dd550d01b43a553131,001,2022-04-28_20h21.29.078,classification_task,2021.2.3,Win32,143.9677512,613e44dd550d01b43a553131,626b377229c10585ec392f89,626b3af2f3e4daab5707274b,,,,,,,,,,,,,,,,,,,,,,,l,0,0.7934,"[""0.224"",""0.399"",""0.615"",""0.034""]","[1,1,1,0]",0,17,17,17,1,0,0,,,1,FALSE,,,,,,,,,,,,,,,,,,,,,,,,,,,,,,
,613e44dd550d01b43a553131,001,2022-04-28_20h21.29.078,classification_task,2021.2.3,Win32,143.9677512,613e44dd550d01b43a553131,626b377229c10585ec392f89,626b3af2f3e4daab5707274b,,,,,,,,,,,,,,,,,,,,,,,a,0,1.3061,"[""0.070"",""0.278"",""0.539"",""0.657""]","[1,1,1,0]",0,18,18,18,1,1,0,,,1,FALSE,,,,,,,,,,,,,,,,,,,,,,,,,,,,,,
,613e44dd550d01b43a553131,001,2022-04-28_20h21.29.078,classification_task,2021.2.3,Win32,143.9677512,613e44dd550d01b43a553131,626b377229c10585ec392f89,626b3af2f3e4daab5707274b,,,,,,,,,,,,,,,,,,,,,,,l,1,0.6456,"[""0.115"",""0.154"",""0.475"",""0.677""]","[1,1,1,0]",0,19,19,19,1,1,1,,,1,FALSE,,,,,,,,,,,,,,,,,,,,,,,,,,,,,,
,613e44dd550d01b43a553131,001,2022-04-28_20h21.29.078,classification_task,2021.2.3,Win32,143.9677512,613e44dd550d01b43a553131,626b377229c10585ec392f89,626b3af2f3e4daab5707274b,,,,,,,,,,,,,,,,,,,,,,,l,1,1.1366,"[""0.070"",""0.278"",""0.034"",""0.718""]","[1,1,0,1]",0,20,20,20,1,1,0,,,1,FALSE,,,,,,,,,,,,,,,,,,,,,,,,,,,,,,
,613e44dd550d01b43a553131,001,2022-04-28_20h21.29.078,classification_task,2021.2.3,Win32,143.9677512,613e44dd550d01b43a553131,626b377229c10585ec392f89,626b3af2f3e4daab5707274b,,,,,,,,,,,,,,,,,,,,,,,a,1,0.6575,"[""0.323"",""0.653"",""0.853"",""0.956""]","[1,0,1,1]",0,21,21,21,1,0,1,,,1,FALSE,,,,,,,,,,,,,,,,,,,,,,,,,,,,,,
,613e44dd550d01b43a553131,001,2022-04-28_20h21.29.078,classification_task,2021.2.3,Win32,143.9677512,613e44dd550d01b43a553131,626b377229c10585ec392f89,626b3af2f3e4daab5707274b,,,,,,,,,,,,,,,,,,,,,,,l,1,0.577,"[""0.573"",""0.154"",""0.475"",""0.781""]","[0,1,1,1]",0,22,22,22,1,1,1,,,1,FALSE,,,,,,,,,,,,,,,,,,,,,,,,,,,,,,
,613e44dd550d01b43a553131,001,2022-04-28_20h21.29.078,classification_task,2021.2.3,Win32,143.9677512,613e44dd550d01b43a553131,626b377229c10585ec392f89,626b3af2f3e4daab5707274b,,,,,,,,,,,,,,,,,,,,,,,a,1,2.47,"[""0.224"",""0.653"",""0.615"",""0.916""]","[1,0,1,1]",0,23,23,23,1,0,0,,,1,FALSE,,,,,,,,,,,,,,,,,,,,,,,,,,,,,,
,613e44dd550d01b43a553131,001,2022-04-28_20h21.29.078,classification_task,2021.2.3,Win32,143.9677512,613e44dd550d01b43a553131,626b377229c10585ec392f89,626b3af2f3e4daab5707274b,,,,,,,,,,,,,,,,,,,,,,,a,1,1.3678,"[""0.224"",""0.399"",""0.649"",""0.916""]","[1,1,0,1]",0,24,24,24,1,0,0,,,1,FALSE,,,,,,,,,,,,,,,,,,,,,,,,,,,,,,
,613e44dd550d01b43a553131,001,2022-04-28_20h21.29.078,classification_task,2021.2.3,Win32,143.9677512,613e44dd550d01b43a553131,626b377229c10585ec392f89,626b3af2f3e4daab5707274b,,,,,,,,,,,,,,,,,,,,,,,l,1,0.591,"[""0.115"",""0.154"",""0.649"",""0.781""]","[1,1,0,1]",0,25,25,25,1,1,1,,,1,FALSE,,,,,,,,,,,,,,,,,,,,,,,,,,,,,,
,613e44dd550d01b43a553131,001,2022-04-28_20h21.29.078,classification_task,2021.2.3,Win32,143.9677512,613e44dd550d01b43a553131,626b377229c10585ec392f89,626b3af2f3e4daab5707274b,,,,,,,,,,,,,,,,,,,,,,,a,1,2.0835,"[""0.034"",""0.435"",""0.853"",""0.956""]","[0,1,1,1]",0,26,26,26,1,0,1,,,1,FALSE,,,,,,,,,,,,,,,,,,,,,,,,,,,,,,
,613e44dd550d01b43a553131,001,2022-04-28_20h21.29.078,classification_task,2021.2.3,Win32,143.9677512,613e44dd550d01b43a553131,626b377229c10585ec392f89,626b3af2f3e4daab5707274b,,,,,,,,,,,,,,,,,,,,,,,l,1,0.9965,"[""0.115"",""0.657"",""0.475"",""0.781""]","[1,0,1,1]",0,27,27,27,1,1,1,,,1,FALSE,,,,,,,,,,,,,,,,,,,,,,,,,,,,,,
,613e44dd550d01b43a553131,001,2022-04-28_20h21.29.078,classification_task,2021.2.3,Win32,143.9677512,613e44dd550d01b43a553131,626b377229c10585ec392f89,626b3af2f3e4daab5707274b,,,,,,,,,,,,,,,,,,,,,,,a,0,1.1865,"[""0.573"",""0.278"",""0.539"",""0.718""]","[0,1,1,1]",0,28,28,28,1,1,0,,,1,FALSE,,,,,,,,,,,,,,,,,,,,,,,,,,,,,,
,613e44dd550d01b43a553131,001,2022-04-28_20h21.29.078,classification_task,2021.2.3,Win32,143.9677512,613e44dd550d01b43a553131,626b377229c10585ec392f89,626b3af2f3e4daab5707274b,,,,,,,,,,,,,,,,,,,,,,,a,1,0.6019,"[""0.323"",""0.435"",""0.853"",""0.578""]","[1,1,1,0]",0,29,29,29,1,0,1,,,1,FALSE,,,,,,,,,,,,,,,,,,,,,,,,,,,,,,
,613e44dd550d01b43a553131,001,2022-04-28_20h21.29.078,classification_task,2021.2.3,Win32,143.9677512,613e44dd550d01b43a553131,626b377229c10585ec392f89,626b3af2f3e4daab5707274b,,,,,,,,,,,,,,,,,,,,,,,a,1,1.9848,"[""0.657"",""0.399"",""0.615"",""0.916""]","[0,1,1,1]",0,30,30,30,1,0,0,,,1,FALSE,,,,,,,,,,,,,,,,,,,,,,,,,,,,,,
,613e44dd550d01b43a553131,001,2022-04-28_20h21.29.078,classification_task,2021.2.3,Win32,143.9677512,613e44dd550d01b43a553131,626b377229c10585ec392f89,626b3af2f3e4daab5707274b,,,,,,,,,,,,,,,,,,,,,,,a,1,0.6512,"[""0.323"",""0.435"",""0.680"",""0.956""]","[1,1,0,1]",0,31,31,31,1,0,1,,,1,FALSE,,,,,,,,,,,,,,,,,,,,,,,,,,,,,,
,613e44dd550d01b43a553131,001,2022-04-28_20h21.29.078,classification_task,2021.2.3,Win32,143.9677512,613e44dd550d01b43a553131,626b377229c10585ec392f89,626b3af2f3e4daab5707274b,,,,,,,,,,,,,,,,,,,,,,,a,1,1.4009,"[""0.224"",""0.667"",""0.615"",""0.916""]","[1,0,1,1]",0,32,32,32,1,0,0,,,1,FALSE,,,,,,,,,,,,,,,,,,,,,,,,,,,,,,
,613e44dd550d01b43a553131,001,2022-04-28_20h21.29.078,classification_task,2021.2.3,Win32,143.9677512,613e44dd550d01b43a553131,626b377229c10585ec392f89,626b3af2f3e4daab5707274b,,,,,,,,,,,,,,,,,,,,,,,a,0,1.1668,"[""0.357"",""0.278"",""0.539"",""0.718""]","[0,1,1,1]",0,33,33,33,1,1,0,,,1,FALSE,,,,,,,,,,,,,,,,,,,,,,,,,,,,,,
,613e44dd550d01b43a553131,001,2022-04-28_20h21.29.078,classification_task,2021.2.3,Win32,143.9677512,613e44dd550d01b43a553131,626b377229c10585ec392f89,626b3af2f3e4daab5707274b,,,,,,,,,,,,,,,,,,,,,,,l,1,1.461,"[""0.070"",""0.278"",""0.539"",""0.657""]","[1,1,1,0]",0,34,34,34,1,1,0,,,1,FALSE,,,,,,,,,,,,,,,,,,,,,,,,,,,,,,
,613e44dd550d01b43a553131,001,2022-04-28_20h21.29.078,classification_task,2021.2.3,Win32,143.9677512,613e44dd550d01b43a553131,626b377229c10585ec392f89,626b3af2f3e4daab5707274b,,,,,,,,,,,,,,,,,,,,,,,l,1,2.2777,"[""0.115"",""0.677"",""0.475"",""0.781""]","[1,0,1,1]",0,35,35,35,1,1,1,,,1,FALSE,,,,,,,,,,,,,,,,,,,,,,,,,,,,,,
,613e44dd550d01b43a553131,001,2022-04-28_20h21.29.078,classification_task,2021.2.3,Win32,143.9677512,613e44dd550d01b43a553131,626b377229c10585ec392f89,626b3af2f3e4daab5707274b,,,,,,,,,,,,,,,,,,,,,,,l,1,1.2702,"[""0.070"",""0.278"",""0.580"",""0.718""]","[1,1,0,1]",0,36,36,36,1,1,0,,,1,FALSE,,,,,,,,,,,,,,,,,,,,,,,,,,,,,,
,613e44dd550d01b43a553131,001,2022-04-28_20h21.29.078,classification_task,2021.2.3,Win32,143.9677512,613e44dd550d01b43a553131,626b377229c10585ec392f89,626b3af2f3e4daab5707274b,,,,,,,,,,,,,,,,,,,,,,,l,1,0.5967,"[""0.573"",""0.154"",""0.475"",""0.781""]","[0,1,1,1]",0,37,37,37,1,1,1,,,1,FALSE,,,,,,,,,,,,,,,,,,,,,,,,,,,,,,
,613e44dd550d01b43a553131,001,2022-04-28_20h21.29.078,classification_task,2021.2.3,Win32,143.9677512,613e44dd550d01b43a553131,626b377229c10585ec392f89,626b3af2f3e4daab5707274b,,,,,,,,,,,,,,,,,,,,,,,a,1,1.9179,"[""0.666"",""0.399"",""0.615"",""0.916""]","[0,1,1,1]",0,38,38,38,1,0,0,,,1,FALSE,,,,,,,,,,,,,,,,,,,,,,,,,,,,,,
,613e44dd550d01b43a553131,001,2022-04-28_20h21.29.078,classification_task,2021.2.3,Win32,143.9677512,613e44dd550d01b43a553131,626b377229c10585ec392f89,626b3af2f3e4daab5707274b,,,,,,,,,,,,,,,,,,,,,,,l,1,0.8694,"[""0.070"",""0.031"",""0.539"",""0.718""]","[1,0,1,1]",0,39,39,39,1,1,0,,,1,FALSE,,,,,,,,,,,,,,,,,,,,,,,,,,,,,,
,613e44dd550d01b43a553131,001,2022-04-28_20h21.29.078,classification_task,2021.2.3,Win32,143.9677512,613e44dd550d01b43a553131,626b377229c10585ec392f89,626b3af2f3e4daab5707274b,,,,,,,,,,,,,,,,,,,,,,,a,1,0.8244,"[""0.323"",""0.580"",""0.853"",""0.956""]","[1,0,1,1]",0,40,40,40,1,0,1,,,1,FALSE,,,,,,,,,,,,,,,,,,,,,,,,,,,,,,
,613e44dd550d01b43a553131,001,2022-04-28_20h21.29.078,classification_task,2021.2.3,Win32,143.9677512,613e44dd550d01b43a553131,626b377229c10585ec392f89,626b3af2f3e4daab5707274b,,,,,,,,,,,,,,,,,,,,,,,a,1,0.6041,"[""0.657"",""0.435"",""0.853"",""0.956""]","[0,1,1,1]",0,41,41,41,1,0,1,,,1,FALSE,,,,,,,,,,,,,,,,,,,,,,,,,,,,,,
,613e44dd550d01b43a553131,001,2022-04-28_20h21.29.078,classification_task,2021.2.3,Win32,143.9677512,613e44dd550d01b43a553131,626b377229c10585ec392f89,626b3af2f3e4daab5707274b,,,,,,,,,,,,,,,,,,,,,,,l,1,0.5986,"[""0.115"",""0.154"",""0.475"",""0.581""]","[1,1,1,0]",0,42,42,42,1,1,1,,,1,FALSE,,,,,,,,,,,,,,,,,,,,,,,,,,,,,,
,613e44dd550d01b43a553131,001,2022-04-28_20h21.29.078,classification_task,2021.2.3,Win32,143.9677512,613e44dd550d01b43a553131,626b377229c10585ec392f89,626b3af2f3e4daab5707274b,,,,,,,,,,,,,,,,,,,,,,,a,1,0.5091,"[""0.323"",""0.435"",""0.853"",""0.581""]","[1,1,1,0]",0,43,43,43,1,0,1,,,1,FALSE,,,,,,,,,,,,,,,,,,,,,,,,,,,,,,
,613e44dd550d01b43a553131,001,2022-04-28_20h21.29.078,classification_task,2021.2.3,Win32,143.9677512,613e44dd550d01b43a553131,626b377229c10585ec392f89,626b3af2f3e4daab5707274b,,,,,,,,,,,,,,,,,,,,,,,a,1,1.0002,"[""0.323"",""0.435"",""0.573"",""0.956""]","[1,1,0,1]",0,44,44,44,1,0,1,,,1,FALSE,,,,,,,,,,,,,,,,,,,,,,,,,,,,,,
,613e44dd550d01b43a553131,001,2022-04-28_20h21.29.078,classification_task,2021.2.3,Win32,143.9677512,613e44dd550d01b43a553131,626b377229c10585ec392f89,626b3af2f3e4daab5707274b,,,,,,,,,,,,,,,,,,,,,,,a,1,1.2374,"[""0.224"",""0.399"",""0.615"",""0.660""]","[1,1,1,0]",0,45,45,45,1,0,0,,,1,FALSE,,,,,,,,,,,,,,,,,,,,,,,,,,,,,,
,613e44dd550d01b43a553131,001,2022-04-28_20h21.29.078,classification_task,2021.2.3,Win32,143.9677512,613e44dd550d01b43a553131,626b377229c10585ec392f89,626b3af2f3e4daab5707274b,,,,,,,,,,,,,,,,,,,,,,,l,1,0.6298,"[""0.115"",""0.154"",""0.657"",""0.781""]","[1,1,0,1]",0,46,46,46,1,1,1,,,1,FALSE,,,,,,,,,,,,,,,,,,,,,,,,,,,,,,
,613e44dd550d01b43a553131,001,2022-04-28_20h21.29.078,classification_task,2021.2.3,Win32,143.9677512,613e44dd550d01b43a553131,626b377229c10585ec392f89,626b3af2f3e4daab5707274b,,,,,,,,,,,,,,,,,,,,,,,a,1,1.4212,"[""0.224"",""0.399"",""0.581"",""0.916""]","[1,1,0,1]",0,47,47,47,1,0,0,,,1,FALSE,,,,,,,,,,,,,,,,,,,,,,,,,,,,,,
,613e44dd550d01b43a553131,001,2022-04-28_20h21.29.078,classification_task,2021.2.3,Win32,143.9677512,613e44dd550d01b43a553131,626b377229c10585ec392f89,626b3af2f3e4daab5707274b,,,,,,,,,,,,,,,,,,,,,,,a,1,1.1595,"[""0.224"",""0.573"",""0.615"",""0.916""]","[1,0,1,1]",0,48,48,48,1,0,0,,,1,FALSE,,,,,,,,,,,,,,,,,,,,,,,,,,,,,,
,613e44dd550d01b43a553131,001,2022-04-28_20h21.29.078,classification_task,2021.2.3,Win32,143.9677512,613e44dd550d01b43a553131,626b377229c10585ec392f89,626b3af2f3e4daab5707274b,,,,,,,,,,,,,,,,,,,,,,,a,0,1.4931,"[""0.070"",""0.278"",""0.660"",""0.718""]","[1,1,0,1]",0,49,49,49,1,1,0,,,1,FALSE,,,,,,,,,,,,,,,,,,,,,,,,,,,,,,
,613e44dd550d01b43a553131,001,2022-04-28_20h21.29.078,classification_task,2021.2.3,Win32,143.9677512,613e44dd550d01b43a553131,626b377229c10585ec392f89,626b3af2f3e4daab5707274b,,,,,,,,,,,,,,,,,,,,,,,a,1,0.9051,"[""0.667"",""0.399"",""0.615"",""0.916""]","[0,1,1,1]",0,50,50,50,1,0,0,,,1,FALSE,,,,,,,,,,,,,,,,,,,,,,,,,,,,,,
,613e44dd550d01b43a553131,001,2022-04-28_20h21.29.078,classification_task,2021.2.3,Win32,143.9677512,613e44dd550d01b43a553131,626b377229c10585ec392f89,626b3af2f3e4daab5707274b,,,,,,,,,,,,,,,,,,,,,,,l,1,1.0319,"[""0.115"",""0.154"",""0.475"",""0.581""]","[1,1,1,0]",0,51,51,51,1,1,1,,,1,FALSE,,,,,,,,,,,,,,,,,,,,,,,,,,,,,,
,613e44dd550d01b43a553131,001,2022-04-28_20h21.29.078,classification_task,2021.2.3,Win32,143.9677512,613e44dd550d01b43a553131,626b377229c10585ec392f89,626b3af2f3e4daab5707274b,,,,,,,,,,,,,,,,,,,,,,,a,1,1.0228,"[""0.323"",""0.680"",""0.853"",""0.956""]","[1,0,1,1]",0,52,52,52,1,0,1,,,1,FALSE,,,,,,,,,,,,,,,,,,,,,,,,,,,,,,
,613e44dd550d01b43a553131,001,2022-04-28_20h21.29.078,classification_task,2021.2.3,Win32,143.9677512,613e44dd550d01b43a553131,626b377229c10585ec392f89,626b3af2f3e4daab5707274b,,,,,,,,,,,,,,,,,,,,,,,a,0,2.0683,"[""0.070"",""0.666"",""0.539"",""0.718""]","[1,0,1,1]",0,53,53,53,1,1,0,,,1,FALSE,,,,,,,,,,,,,,,,,,,,,,,,,,,,,,
,613e44dd550d01b43a553131,001,2022-04-28_20h21.29.078,classification_task,2021.2.3,Win32,143.9677512,613e44dd550d01b43a553131,626b377229c10585ec392f89,626b3af2f3e4daab5707274b,,,,,,,,,,,,,,,,,,,,,,,a,1,1.3545,"[""0.573"",""0.435"",""0.853"",""0.956""]","[0,1,1,1]",0,54,54,54,1,0,1,,,1,FALSE,,,,,,,,,,,,,,,,,,,,,,,,,,,,,,
,613e44dd550d01b43a553131,001,2022-04-28_20h21.29.078,classification_task,2021.2.3,Win32,143.9677512,613e44dd550d01b43a553131,626b377229c10585ec392f89,626b3af2f3e4daab5707274b,,,,,,,,,,,,,,,,,,,,,,,a,1,0.7641,"[""0.323"",""0.435"",""0.656"",""0.956""]","[1,1,0,1]",0,55,55,55,1,0,1,,,1,FALSE,,,,,,,,,,,,,,,,,,,,,,,,,,,,,,
,613e44dd550d01b43a553131,001,2022-04-28_20h21.29.078,classification_task,2021.2.3,Win32,143.9677512,613e44dd550d01b43a553131,626b377229c10585ec392f89,626b3af2f3e4daab5707274b,,,,,,,,,,,,,,,,,,,,,,,l,1,0.8265,"[""0.667"",""0.154"",""0.475"",""0.781""]","[0,1,1,1]",0,56,56,56,1,1,1,,,1,FALSE,,,,,,,,,,,,,,,,,,,,,,,,,,,,,,
,613e44dd550d01b43a553131,001,2022-04-28_20h21.29.078,classification_task,2021.2.3,Win32,143.9677512,613e44dd550d01b43a553131,626b377229c10585ec392f89,626b3af2f3e4daab5707274b,,,,,,,,,,,,,,,,,,,,,,,l,1,0.9445,"[""0.115"",""0.031"",""0.475"",""0.781""]","[1,0,1,1]",0,57,57,57,1,1,1,,,1,FALSE,,,,,,,,,,,,,,,,,,,,,,,,,,,,,,
,613e44dd550d01b43a553131,001,2022-04-28_20h21.29.078,classification_task,2021.2.3,Win32,143.9677512,613e44dd550d01b43a553131,626b377229c10585ec392f89,626b3af2f3e4daab5707274b,,,,,,,,,,,,,,,,,,,,,,,l,1,1.4167,"[""0.115"",""0.154"",""0.649"",""0.781""]","[1,1,0,1]",0,58,58,58,1,1,1,,,1,FALSE,,,,,,,,,,,,,,,,,,,,,,,,,,,,,,
,613e44dd550d01b43a553131,001,2022-04-28_20h21.29.078,classification_task,2021.2.3,Win32,143.9677512,613e44dd550d01b43a553131,626b377229c10585ec392f89,626b3af2f3e4daab5707274b,,,,,,,,,,,,,,,,,,,,,,,a,1,2.1586,"[""0.224"",""0.399"",""0.357"",""0.916""]","[1,1,0,1]",0,59,59,59,1,0,0,,,1,FALSE,,,,,,,,,,,,,,,,,,,,,,,,,,,,,,
,613e44dd550d01b43a553131,001,2022-04-28_20h21.29.078,classification_task,2021.2.3,Win32,143.9677512,613e44dd550d01b43a553131,626b377229c10585ec392f89,626b3af2f3e4daab5707274b,,,,,,,,,,,,,,,,,,,,,,,a,0,2.8282,"[""0.070"",""0.278"",""0.539"",""0.660""]","[1,1,1,0]",0,60,60,60,1,1,0,,,1,FALSE,,,,,,,,,,,,,,,,,,,,,,,,,,,,,,
,613e44dd550d01b43a553131,001,2022-04-28_20h21.29.078,classification_task,2021.2.3,Win32,143.9677512,613e44dd550d01b43a553131,626b377229c10585ec392f89,626b3af2f3e4daab5707274b,,,,,,,,,,,,,,,,,,,,,,,a,1,0.9206,"[""0.224"",""0.399"",""0.615"",""0.580""]","[1,1,1,0]",0,61,61,61,1,0,0,,,1,FALSE,,,,,,,,,,,,,,,,,,,,,,,,,,,,,,
,613e44dd550d01b43a553131,001,2022-04-28_20h21.29.078,classification_task,2021.2.3,Win32,143.9677512,613e44dd550d01b43a553131,626b377229c10585ec392f89,626b3af2f3e4daab5707274b,,,,,,,,,,,,,,,,,,,,,,,l,1,0.8889,"[""0.034"",""0.278"",""0.539"",""0.718""]","[0,1,1,1]",0,62,62,62,1,1,0,,,1,FALSE,,,,,,,,,,,,,,,,,,,,,,,,,,,,,,
,613e44dd550d01b43a553131,001,2022-04-28_20h21.29.078,classification_task,2021.2.3,Win32,143.9677512,613e44dd550d01b43a553131,626b377229c10585ec392f89,626b3af2f3e4daab5707274b,,,,,,,,,,,,,,,,,,,,,,,a,1,0.9866,"[""0.323"",""0.435"",""0.853"",""0.581""]","[1,1,1,0]",0,63,63,63,1,0,1,,,1,FALSE,,,,,,,,,,,,,,,,,,,,,,,,,,,,,,
,613e44dd550d01b43a553131,001,2022-04-28_20h21.29.078,classification_task,2021.2.3,Win32,143.9677512,613e44dd550d01b43a553131,626b377229c10585ec392f89,626b3af2f3e4daab5707274b,,,,,,,,,,,,,,,,,,,,,,,,,,,,,,,,,,,,,,,0, ,,0,10,180.6235,0,1,1,1,1,2,2,,,,,,,,,,,,,,,,,
,613e44dd550d01b43a553131,001,2022-04-28_20h21.29.078,classification_task,2021.2.3,Win32,143.9677512,613e44dd550d01b43a553131,626b377229c10585ec392f89,626b3af2f3e4daab5707274b,,,,,,,,,,,,,,,,,,,,,,,,,,,,,,,,,,,,,,,1,  ,,0,3.873213331,183.5679,0,1,1,1,1,2,2,,,,,,,,,,,,,,,,,
,613e44dd550d01b43a553131,001,2022-04-28_20h21.29.078,classification_task,2021.2.3,Win32,143.9677512,613e44dd550d01b43a553131,626b377229c10585ec392f89,626b3af2f3e4daab5707274b,,,,,,,,,,,,,,,,,,,,,,,,,,,,,,,,,,,,,,,2,  ,,0,2.427983539,186.3411,0,1,1,1,1,2,2,,,,,,,,,,,,,,,,,
,613e44dd550d01b43a553131,001,2022-04-28_20h21.29.078,classification_task,2021.2.3,Win32,143.9677512,613e44dd550d01b43a553131,626b377229c10585ec392f89,626b3af2f3e4daab5707274b,,,,,,,,,,,,,,,,,,,,,,,,,,,,,,,,,,,,,,,,,,,,,0,1,1,1,1,,2,,,,,,,,,,,,,,,,,
,613e44dd550d01b43a553131,001,2022-04-28_20h21.29.078,classification_task,2021.2.3,Win32,143.9677512,613e44dd550d01b43a553131,626b377229c10585ec392f89,626b3af2f3e4daab5707274b,,,,,,,,,,,,,,,,,,,,,space,8.1951,l,1,2.2815,"[""0.070"",""0.278"",""0.539"",""0.666""]","[1,1,1,0]",0,0,0,0,1,1,0,,,1,FALSE,,,,,,,,,,,,,,,,,,,,,,,,,,,,,,
,613e44dd550d01b43a553131,001,2022-04-28_20h21.29.078,classification_task,2021.2.3,Win32,143.9677512,613e44dd550d01b43a553131,626b377229c10585ec392f89,626b3af2f3e4daab5707274b,,,,,,,,,,,,,,,,,,,,,,,a,1,1.8123,"[""0.224"",""0.357"",""0.615"",""0.916""]","[1,0,1,1]",0,1,1,1,1,0,0,,,1,FALSE,,,,,,,,,,,,,,,,,,,,,,,,,,,,,,
,613e44dd550d01b43a553131,001,2022-04-28_20h21.29.078,classification_task,2021.2.3,Win32,143.9677512,613e44dd550d01b43a553131,626b377229c10585ec392f89,626b3af2f3e4daab5707274b,,,,,,,,,,,,,,,,,,,,,,,a,0,3.9166,"[""0.070"",""0.278"",""0.666"",""0.718""]","[1,1,0,1]",0,2,2,2,1,1,0,,,1,FALSE,,,,,,,,,,,,,,,,,,,,,,,,,,,,,,
,613e44dd550d01b43a553131,001,2022-04-28_20h21.29.078,classification_task,2021.2.3,Win32,143.9677512,613e44dd550d01b43a553131,626b377229c10585ec392f89,626b3af2f3e4daab5707274b,,,,,,,,,,,,,,,,,,,,,,,l,1,2.3405,"[""0.115"",""0.154"",""0.666"",""0.781""]","[1,1,0,1]",0,3,3,3,1,1,1,,,1,FALSE,,,,,,,,,,,,,,,,,,,,,,,,,,,,,,
,613e44dd550d01b43a553131,001,2022-04-28_20h21.29.078,classification_task,2021.2.3,Win32,143.9677512,613e44dd550d01b43a553131,626b377229c10585ec392f89,626b3af2f3e4daab5707274b,,,,,,,,,,,,,,,,,,,,,,,l,1,3.2984,"[""0.115"",""0.357"",""0.475"",""0.781""]","[1,0,1,1]",0,4,4,4,1,1,1,,,1,FALSE,,,,,,,,,,,,,,,,,,,,,,,,,,,,,,
,613e44dd550d01b43a553131,001,2022-04-28_20h21.29.078,classification_task,2021.2.3,Win32,143.9677512,613e44dd550d01b43a553131,626b377229c10585ec392f89,626b3af2f3e4daab5707274b,,,,,,,,,,,,,,,,,,,,,,,a,1,3.1953,"[""0.034"",""0.399"",""0.615"",""0.916""]","[0,1,1,1]",0,5,5,5,1,0,0,,,1,FALSE,,,,,,,,,,,,,,,,,,,,,,,,,,,,,,
,613e44dd550d01b43a553131,001,2022-04-28_20h21.29.078,classification_task,2021.2.3,Win32,143.9677512,613e44dd550d01b43a553131,626b377229c10585ec392f89,626b3af2f3e4daab5707274b,,,,,,,,,,,,,,,,,,,,,,,a,0,1.7777,"[""0.070"",""0.581"",""0.539"",""0.718""]","[1,0,1,1]",0,6,6,6,1,1,0,,,1,FALSE,,,,,,,,,,,,,,,,,,,,,,,,,,,,,,
,613e44dd550d01b43a553131,001,2022-04-28_20h21.29.078,classification_task,2021.2.3,Win32,143.9677512,613e44dd550d01b43a553131,626b377229c10585ec392f89,626b3af2f3e4daab5707274b,,,,,,,,,,,,,,,,,,,,,,,l,1,2.5135,"[""0.115"",""0.154"",""0.475"",""0.677""]","[1,1,1,0]",0,7,7,7,1,1,1,,,1,FALSE,,,,,,,,,,,,,,,,,,,,,,,,,,,,,,
,613e44dd550d01b43a553131,001,2022-04-28_20h21.29.078,classification_task,2021.2.3,Win32,143.9677512,613e44dd550d01b43a553131,626b377229c10585ec392f89,626b3af2f3e4daab5707274b,,,,,,,,,,,,,,,,,,,,,,,l,1,2.4861,"[""0.034"",""0.278"",""0.539"",""0.718""]","[0,1,1,1]",0,8,8,8,1,1,0,,,1,FALSE,,,,,,,,,,,,,,,,,,,,,,,,,,,,,,
,613e44dd550d01b43a553131,001,2022-04-28_20h21.29.078,classification_task,2021.2.3,Win32,143.9677512,613e44dd550d01b43a553131,626b377229c10585ec392f89,626b3af2f3e4daab5707274b,,,,,,,,,,,,,,,,,,,,,,,a,0,2.3267,"[""0.578"",""0.154"",""0.475"",""0.781""]","[0,1,1,1]",0,9,9,9,1,1,1,,,1,FALSE,,,,,,,,,,,,,,,,,,,,,,,,,,,,,,
,613e44dd550d01b43a553131,001,2022-04-28_20h21.29.078,classification_task,2021.2.3,Win32,143.9677512,613e44dd550d01b43a553131,626b377229c10585ec392f89,626b3af2f3e4daab5707274b,,,,,,,,,,,,,,,,,,,,,,,a,1,3.1881,"[""0.323"",""0.680"",""0.853"",""0.956""]","[1,0,1,1]",0,10,10,10,1,0,1,,,1,FALSE,,,,,,,,,,,,,,,,,,,,,,,,,,,,,,
,613e44dd550d01b43a553131,001,2022-04-28_20h21.29.078,classification_task,2021.2.3,Win32,143.9677512,613e44dd550d01b43a553131,626b377229c10585ec392f89,626b3af2f3e4daab5707274b,,,,,,,,,,,,,,,,,,,,,,,a,1,2.1734,"[""0.323"",""0.435"",""0.573"",""0.956""]","[1,1,0,1]",0,11,11,11,1,0,1,,,1,FALSE,,,,,,,,,,,,,,,,,,,,,,,,,,,,,,
,613e44dd550d01b43a553131,001,2022-04-28_20h21.29.078,classification_task,2021.2.3,Win32,143.9677512,613e44dd550d01b43a553131,626b377229c10585ec392f89,626b3af2f3e4daab5707274b,,,,,,,,,,,,,,,,,,,,,,,a,1,1.7151,"[""0.224"",""0.399"",""0.615"",""0.660""]","[1,1,1,0]",0,12,12,12,1,0,0,,,1,FALSE,,,,,,,,,,,,,,,,,,,,,,,,,,,,,,
,613e44dd550d01b43a553131,001,2022-04-28_20h21.29.078,classification_task,2021.2.3,Win32,143.9677512,613e44dd550d01b43a553131,626b377229c10585ec392f89,626b3af2f3e4daab5707274b,,,,,,,,,,,,,,,,,,,,,,,a,1,4.4728,"[""0.224"",""0.399"",""0.666"",""0.916""]","[1,1,0,1]",0,13,13,13,1,0,0,,,1,FALSE,,,,,,,,,,,,,,,,,,,,,,,,,,,,,,
,613e44dd550d01b43a553131,001,2022-04-28_20h21.29.078,classification_task,2021.2.3,Win32,143.9677512,613e44dd550d01b43a553131,626b377229c10585ec392f89,626b3af2f3e4daab5707274b,,,,,,,,,,,,,,,,,,,,,,,l,0,4.0069,"[""0.323"",""0.435"",""0.853"",""0.680""]","[1,1,1,0]",0,14,14,14,1,0,1,,,1,FALSE,,,,,,,,,,,,,,,,,,,,,,,,,,,,,,
,613e44dd550d01b43a553131,001,2022-04-28_20h21.29.078,classification_task,2021.2.3,Win32,143.9677512,613e44dd550d01b43a553131,626b377229c10585ec392f89,626b3af2f3e4daab5707274b,,,,,,,,,,,,,,,,,,,,,,,a,1,4.9936,"[""0.666"",""0.435"",""0.853"",""0.956""]","[0,1,1,1]",0,15,15,15,1,0,1,,,1,FALSE,,,,,,,,,,,,,,,,,,,,,,,,,,,,,,
,613e44dd550d01b43a553131,001,2022-04-28_20h21.29.078,classification_task,2021.2.3,Win32,143.9677512,613e44dd550d01b43a553131,626b377229c10585ec392f89,626b3af2f3e4daab5707274b,,,,,,,,,,,,,,,,,,,,,,,l,1,0.8197,"[""0.115"",""0.154"",""0.475"",""0.581""]","[1,1,1,0]",0,16,16,16,1,1,1,,,1,FALSE,,,,,,,,,,,,,,,,,,,,,,,,,,,,,,
,613e44dd550d01b43a553131,001,2022-04-28_20h21.29.078,classification_task,2021.2.3,Win32,143.9677512,613e44dd550d01b43a553131,626b377229c10585ec392f89,626b3af2f3e4daab5707274b,,,,,,,,,,,,,,,,,,,,,,,l,1,1.1108,"[""0.070"",""0.278"",""0.357"",""0.718""]","[1,1,0,1]",0,17,17,17,1,1,0,,,1,FALSE,,,,,,,,,,,,,,,,,,,,,,,,,,,,,,
,613e44dd550d01b43a553131,001,2022-04-28_20h21.29.078,classification_task,2021.2.3,Win32,143.9677512,613e44dd550d01b43a553131,626b377229c10585ec392f89,626b3af2f3e4daab5707274b,,,,,,,,,,,,,,,,,,,,,,,a,1,5.7153,"[""0.581"",""0.435"",""0.853"",""0.956""]","[0,1,1,1]",0,18,18,18,1,0,1,,,1,FALSE,,,,,,,,,,,,,,,,,,,,,,,,,,,,,,
,613e44dd550d01b43a553131,001,2022-04-28_20h21.29.078,classification_task,2021.2.3,Win32,143.9677512,613e44dd550d01b43a553131,626b377229c10585ec392f89,626b3af2f3e4daab5707274b,,,,,,,,,,,,,,,,,,,,,,,a,1,4.0699,"[""0.224"",""0.399"",""0.649"",""0.916""]","[1,1,0,1]",0,19,19,19,1,0,0,,,1,FALSE,,,,,,,,,,,,,,,,,,,,,,,,,,,,,,
,613e44dd550d01b43a553131,001,2022-04-28_20h21.29.078,classification_task,2021.2.3,Win32,143.9677512,613e44dd550d01b43a553131,626b377229c10585ec392f89,626b3af2f3e4daab5707274b,,,,,,,,,,,,,,,,,,,,,,,a,1,1.4999,"[""0.224"",""0.357"",""0.615"",""0.916""]","[1,0,1,1]",0,20,20,20,1,0,0,,,1,FALSE,,,,,,,,,,,,,,,,,,,,,,,,,,,,,,
,613e44dd550d01b43a553131,001,2022-04-28_20h21.29.078,classification_task,2021.2.3,Win32,143.9677512,613e44dd550d01b43a553131,626b377229c10585ec392f89,626b3af2f3e4daab5707274b,,,,,,,,,,,,,,,,,,,,,,,l,0,2.2426,"[""0.323"",""0.034"",""0.853"",""0.956""]","[1,0,1,1]",0,21,21,21,1,0,1,,,1,FALSE,,,,,,,,,,,,,,,,,,,,,,,,,,,,,,
,613e44dd550d01b43a553131,001,2022-04-28_20h21.29.078,classification_task,2021.2.3,Win32,143.9677512,613e44dd550d01b43a553131,626b377229c10585ec392f89,626b3af2f3e4daab5707274b,,,,,,,,,,,,,,,,,,,,,,,l,0,2.938,"[""0.573"",""0.399"",""0.615"",""0.916""]","[0,1,1,1]",0,22,22,22,1,0,0,,,1,FALSE,,,,,,,,,,,,,,,,,,,,,,,,,,,,,,
,613e44dd550d01b43a553131,001,2022-04-28_20h21.29.078,classification_task,2021.2.3,Win32,143.9677512,613e44dd550d01b43a553131,626b377229c10585ec392f89,626b3af2f3e4daab5707274b,,,,,,,,,,,,,,,,,,,,,,,l,1,3.7363,"[""0.070"",""0.578"",""0.539"",""0.718""]","[1,0,1,1]",0,23,23,23,1,1,0,,,1,FALSE,,,,,,,,,,,,,,,,,,,,,,,,,,,,,,
,613e44dd550d01b43a553131,001,2022-04-28_20h21.29.078,classification_task,2021.2.3,Win32,143.9677512,613e44dd550d01b43a553131,626b377229c10585ec392f89,626b3af2f3e4daab5707274b,,,,,,,,,,,,,,,,,,,,,,,a,1,4.1809,"[""0.323"",""0.435"",""0.031"",""0.956""]","[1,1,0,1]",0,24,24,24,1,0,1,,,1,FALSE,,,,,,,,,,,,,,,,,,,,,,,,,,,,,,
,613e44dd550d01b43a553131,001,2022-04-28_20h21.29.078,classification_task,2021.2.3,Win32,143.9677512,613e44dd550d01b43a553131,626b377229c10585ec392f89,626b3af2f3e4daab5707274b,,,,,,,,,,,,,,,,,,,,,,,a,1,1.5622,"[""0.224"",""0.399"",""0.615"",""0.649""]","[1,1,1,0]",0,25,25,25,1,0,0,,,1,FALSE,,,,,,,,,,,,,,,,,,,,,,,,,,,,,,
,613e44dd550d01b43a553131,001,2022-04-28_20h21.29.078,classification_task,2021.2.3,Win32,143.9677512,613e44dd550d01b43a553131,626b377229c10585ec392f89,626b3af2f3e4daab5707274b,,,,,,,,,,,,,,,,,,,,,,,l,1,0.9521,"[""0.115"",""0.154"",""0.034"",""0.781""]","[1,1,0,1]",0,26,26,26,1,1,1,,,1,FALSE,,,,,,,,,,,,,,,,,,,,,,,,,,,,,,
,613e44dd550d01b43a553131,001,2022-04-28_20h21.29.078,classification_task,2021.2.3,Win32,143.9677512,613e44dd550d01b43a553131,626b377229c10585ec392f89,626b3af2f3e4daab5707274b,,,,,,,,,,,,,,,,,,,,,,,l,1,2.7008,"[""0.115"",""0.031"",""0.475"",""0.781""]","[1,0,1,1]",0,27,27,27,1,1,1,,,1,FALSE,,,,,,,,,,,,,,,,,,,,,,,,,,,,,,
,613e44dd550d01b43a553131,001,2022-04-28_20h21.29.078,classification_task,2021.2.3,Win32,143.9677512,613e44dd550d01b43a553131,626b377229c10585ec392f89,626b3af2f3e4daab5707274b,,,,,,,,,,,,,,,,,,,,,,,l,1,3.3686,"[""0.070"",""0.278"",""0.539"",""0.657""]","[1,1,1,0]",0,28,28,28,1,1,0,,,1,FALSE,,,,,,,,,,,,,,,,,,,,,,,,,,,,,,
,613e44dd550d01b43a553131,001,2022-04-28_20h21.29.078,classification_task,2021.2.3,Win32,143.9677512,613e44dd550d01b43a553131,626b377229c10585ec392f89,626b3af2f3e4daab5707274b,,,,,,,,,,,,,,,,,,,,,,,a,0,1.9168,"[""0.660"",""0.278"",""0.539"",""0.718""]","[0,1,1,1]",0,29,29,29,1,1,0,,,1,FALSE,,,,,,,,,,,,,,,,,,,,,,,,,,,,,,
,613e44dd550d01b43a553131,001,2022-04-28_20h21.29.078,classification_task,2021.2.3,Win32,143.9677512,613e44dd550d01b43a553131,626b377229c10585ec392f89,626b3af2f3e4daab5707274b,,,,,,,,,,,,,,,,,,,,,,,l,1,6.0768,"[""0.667"",""0.154"",""0.475"",""0.781""]","[0,1,1,1]",0,30,30,30,1,1,1,,,1,FALSE,,,,,,,,,,,,,,,,,,,,,,,,,,,,,,
,613e44dd550d01b43a553131,001,2022-04-28_20h21.29.078,classification_task,2021.2.3,Win32,143.9677512,613e44dd550d01b43a553131,626b377229c10585ec392f89,626b3af2f3e4daab5707274b,,,,,,,,,,,,,,,,,,,,,,,a,1,1.8327,"[""0.323"",""0.435"",""0.853"",""0.580""]","[1,1,1,0]",0,31,31,31,1,0,1,,,1,FALSE,,,,,,,,,,,,,,,,,,,,,,,,,,,,,,
,613e44dd550d01b43a553131,001,2022-04-28_20h21.29.078,classification_task,2021.2.3,Win32,143.9677512,613e44dd550d01b43a553131,626b377229c10585ec392f89,626b3af2f3e4daab5707274b,,,,,,,,,,,,,,,,,,,,,,,l,1,1.8334,"[""0.115"",""0.154"",""0.475"",""0.653""]","[1,1,1,0]",0,32,32,32,1,1,1,,,1,FALSE,,,,,,,,,,,,,,,,,,,,,,,,,,,,,,
,613e44dd550d01b43a553131,001,2022-04-28_20h21.29.078,classification_task,2021.2.3,Win32,143.9677512,613e44dd550d01b43a553131,626b377229c10585ec392f89,626b3af2f3e4daab5707274b,,,,,,,,,,,,,,,,,,,,,,,l,1,5.7502,"[""0.573"",""0.154"",""0.475"",""0.781""]","[0,1,1,1]",0,33,33,33,1,1,1,,,1,FALSE,,,,,,,,,,,,,,,,,,,,,,,,,,,,,,
,613e44dd550d01b43a553131,001,2022-04-28_20h21.29.078,classification_task,2021.2.3,Win32,143.9677512,613e44dd550d01b43a553131,626b377229c10585ec392f89,626b3af2f3e4daab5707274b,,,,,,,,,,,,,,,,,,,,,,,a,1,1.6741,"[""0.323"",""0.653"",""0.853"",""0.956""]","[1,0,1,1]",0,34,34,34,1,0,1,,,1,FALSE,,,,,,,,,,,,,,,,,,,,,,,,,,,,,,
,613e44dd550d01b43a553131,001,2022-04-28_20h21.29.078,classification_task,2021.2.3,Win32,143.9677512,613e44dd550d01b43a553131,626b377229c10585ec392f89,626b3af2f3e4daab5707274b,,,,,,,,,,,,,,,,,,,,,,,a,0,2.4441,"[""0.070"",""0.278"",""0.539"",""0.578""]","[1,1,1,0]",0,35,35,35,1,1,0,,,1,FALSE,,,,,,,,,,,,,,,,,,,,,,,,,,,,,,
,613e44dd550d01b43a553131,001,2022-04-28_20h21.29.078,classification_task,2021.2.3,Win32,143.9677512,613e44dd550d01b43a553131,626b377229c10585ec392f89,626b3af2f3e4daab5707274b,,,,,,,,,,,,,,,,,,,,,,,a,1,3.1885,"[""0.224"",""0.399"",""0.666"",""0.916""]","[1,1,0,1]",0,36,36,36,1,0,0,,,1,FALSE,,,,,,,,,,,,,,,,,,,,,,,,,,,,,,
,613e44dd550d01b43a553131,001,2022-04-28_20h21.29.078,classification_task,2021.2.3,Win32,143.9677512,613e44dd550d01b43a553131,626b377229c10585ec392f89,626b3af2f3e4daab5707274b,,,,,,,,,,,,,,,,,,,,,,,a,1,1.958,"[""0.323"",""0.435"",""0.853"",""0.656""]","[1,1,1,0]",0,37,37,37,1,0,1,,,1,FALSE,,,,,,,,,,,,,,,,,,,,,,,,,,,,,,
,613e44dd550d01b43a553131,001,2022-04-28_20h21.29.078,classification_task,2021.2.3,Win32,143.9677512,613e44dd550d01b43a553131,626b377229c10585ec392f89,626b3af2f3e4daab5707274b,,,,,,,,,,,,,,,,,,,,,,,a,1,1.6184,"[""0.323"",""0.435"",""0.653"",""0.956""]","[1,1,0,1]",0,38,38,38,1,0,1,,,1,FALSE,,,,,,,,,,,,,,,,,,,,,,,,,,,,,,
,613e44dd550d01b43a553131,001,2022-04-28_20h21.29.078,classification_task,2021.2.3,Win32,143.9677512,613e44dd550d01b43a553131,626b377229c10585ec392f89,626b3af2f3e4daab5707274b,,,,,,,,,,,,,,,,,,,,,,,l,1,0.8761,"[""0.115"",""0.154"",""0.660"",""0.781""]","[1,1,0,1]",0,39,39,39,1,1,1,,,1,FALSE,,,,,,,,,,,,,,,,,,,,,,,,,,,,,,
,613e44dd550d01b43a553131,001,2022-04-28_20h21.29.078,classification_task,2021.2.3,Win32,143.9677512,613e44dd550d01b43a553131,626b377229c10585ec392f89,626b3af2f3e4daab5707274b,,,,,,,,,,,,,,,,,,,,,,,a,0,1.972,"[""0.573"",""0.278"",""0.539"",""0.718""]","[0,1,1,1]",0,40,40,40,1,1,0,,,1,FALSE,,,,,,,,,,,,,,,,,,,,,,,,,,,,,,
,613e44dd550d01b43a553131,001,2022-04-28_20h21.29.078,classification_task,2021.2.3,Win32,143.9677512,613e44dd550d01b43a553131,626b377229c10585ec392f89,626b3af2f3e4daab5707274b,,,,,,,,,,,,,,,,,,,,,,,l,0,1.4859,"[""0.657"",""0.399"",""0.615"",""0.916""]","[0,1,1,1]",0,41,41,41,1,0,0,,,1,FALSE,,,,,,,,,,,,,,,,,,,,,,,,,,,,,,
,613e44dd550d01b43a553131,001,2022-04-28_20h21.29.078,classification_task,2021.2.3,Win32,143.9677512,613e44dd550d01b43a553131,626b377229c10585ec392f89,626b3af2f3e4daab5707274b,,,,,,,,,,,,,,,,,,,,,,,l,1,2.2714,"[""0.115"",""0.680"",""0.475"",""0.781""]","[1,0,1,1]",0,42,42,42,1,1,1,,,1,FALSE,,,,,,,,,,,,,,,,,,,,,,,,,,,,,,
,613e44dd550d01b43a553131,001,2022-04-28_20h21.29.078,classification_task,2021.2.3,Win32,143.9677512,613e44dd550d01b43a553131,626b377229c10585ec392f89,626b3af2f3e4daab5707274b,,,,,,,,,,,,,,,,,,,,,,,a,1,1.8335,"[""0.224"",""0.399"",""0.615"",""0.573""]","[1,1,1,0]",0,43,43,43,1,0,0,,,1,FALSE,,,,,,,,,,,,,,,,,,,,,,,,,,,,,,
,613e44dd550d01b43a553131,001,2022-04-28_20h21.29.078,classification_task,2021.2.3,Win32,143.9677512,613e44dd550d01b43a553131,626b377229c10585ec392f89,626b3af2f3e4daab5707274b,,,,,,,,,,,,,,,,,,,,,,,l,0,6.5209,"[""0.224"",""0.680"",""0.615"",""0.916""]","[1,0,1,1]",0,44,44,44,1,0,0,,,1,FALSE,,,,,,,,,,,,,,,,,,,,,,,,,,,,,,
,613e44dd550d01b43a553131,001,2022-04-28_20h21.29.078,classification_task,2021.2.3,Win32,143.9677512,613e44dd550d01b43a553131,626b377229c10585ec392f89,626b3af2f3e4daab5707274b,,,,,,,,,,,,,,,,,,,,,,,l,1,0.9589,"[""0.070"",""0.278"",""0.660"",""0.718""]","[1,1,0,1]",0,45,45,45,1,1,0,,,1,FALSE,,,,,,,,,,,,,,,,,,,,,,,,,,,,,,
,613e44dd550d01b43a553131,001,2022-04-28_20h21.29.078,classification_task,2021.2.3,Win32,143.9677512,613e44dd550d01b43a553131,626b377229c10585ec392f89,626b3af2f3e4daab5707274b,,,,,,,,,,,,,,,,,,,,,,,l,0,1.1594,"[""0.580"",""0.435"",""0.853"",""0.956""]","[0,1,1,1]",0,46,46,46,1,0,1,,,1,FALSE,,,,,,,,,,,,,,,,,,,,,,,,,,,,,,
,613e44dd550d01b43a553131,001,2022-04-28_20h21.29.078,classification_task,2021.2.3,Win32,143.9677512,613e44dd550d01b43a553131,626b377229c10585ec392f89,626b3af2f3e4daab5707274b,,,,,,,,,,,,,,,,,,,,,,,l,1,3.0979,"[""0.070"",""0.657"",""0.539"",""0.718""]","[1,0,1,1]",0,47,47,47,1,1,0,,,1,FALSE,,,,,,,,,,,,,,,,,,,,,,,,,,,,,,
,613e44dd550d01b43a553131,001,2022-04-28_20h21.29.078,classification_task,2021.2.3,Win32,143.9677512,613e44dd550d01b43a553131,626b377229c10585ec392f89,626b3af2f3e4daab5707274b,,,,,,,,,,,,,,,,,,,,,,,a,1,1.2216,"[""0.323"",""0.435"",""0.649"",""0.956""]","[1,1,0,1]",0,48,48,48,1,0,1,,,1,FALSE,,,,,,,,,,,,,,,,,,,,,,,,,,,,,,
,613e44dd550d01b43a553131,001,2022-04-28_20h21.29.078,classification_task,2021.2.3,Win32,143.9677512,613e44dd550d01b43a553131,626b377229c10585ec392f89,626b3af2f3e4daab5707274b,,,,,,,,,,,,,,,,,,,,,,,l,0,1.0141,"[""0.323"",""0.435"",""0.853"",""0.031""]","[1,1,1,0]",0,49,49,49,1,0,1,,,1,FALSE,,,,,,,,,,,,,,,,,,,,,,,,,,,,,,
,613e44dd550d01b43a553131,001,2022-04-28_20h21.29.078,classification_task,2021.2.3,Win32,143.9677512,613e44dd550d01b43a553131,626b377229c10585ec392f89,626b3af2f3e4daab5707274b,,,,,,,,,,,,,,,,,,,,,,,a,1,1.4308,"[""0.224"",""0.399"",""0.615"",""0.578""]","[1,1,1,0]",0,50,50,50,1,0,0,,,1,FALSE,,,,,,,,,,,,,,,,,,,,,,,,,,,,,,
,613e44dd550d01b43a553131,001,2022-04-28_20h21.29.078,classification_task,2021.2.3,Win32,143.9677512,613e44dd550d01b43a553131,626b377229c10585ec392f89,626b3af2f3e4daab5707274b,,,,,,,,,,,,,,,,,,,,,,,l,0,1.042,"[""0.031"",""0.399"",""0.615"",""0.916""]","[0,1,1,1]",0,51,51,51,1,0,0,,,1,FALSE,,,,,,,,,,,,,,,,,,,,,,,,,,,,,,
,613e44dd550d01b43a553131,001,2022-04-28_20h21.29.078,classification_task,2021.2.3,Win32,143.9677512,613e44dd550d01b43a553131,626b377229c10585ec392f89,626b3af2f3e4daab5707274b,,,,,,,,,,,,,,,,,,,,,,,a,0,0.9653,"[""0.680"",""0.278"",""0.539"",""0.718""]","[0,1,1,1]",0,52,52,52,1,1,0,,,1,FALSE,,,,,,,,,,,,,,,,,,,,,,,,,,,,,,
,613e44dd550d01b43a553131,001,2022-04-28_20h21.29.078,classification_task,2021.2.3,Win32,143.9677512,613e44dd550d01b43a553131,626b377229c10585ec392f89,626b3af2f3e4daab5707274b,,,,,,,,,,,,,,,,,,,,,,,a,0,3.4031,"[""0.070"",""0.278"",""0.581"",""0.718""]","[1,1,0,1]",0,53,53,53,1,1,0,,,1,FALSE,,,,,,,,,,,,,,,,,,,,,,,,,,,,,,
,613e44dd550d01b43a553131,001,2022-04-28_20h21.29.078,classification_task,2021.2.3,Win32,143.9677512,613e44dd550d01b43a553131,626b377229c10585ec392f89,626b3af2f3e4daab5707274b,,,,,,,,,,,,,,,,,,,,,,,l,0,1.1455,"[""0.653"",""0.435"",""0.853"",""0.956""]","[0,1,1,1]",0,54,54,54,1,0,1,,,1,FALSE,,,,,,,,,,,,,,,,,,,,,,,,,,,,,,
,613e44dd550d01b43a553131,001,2022-04-28_20h21.29.078,classification_task,2021.2.3,Win32,143.9677512,613e44dd550d01b43a553131,626b377229c10585ec392f89,626b3af2f3e4daab5707274b,,,,,,,,,,,,,,,,,,,,,,,l,1,3.4794,"[""0.660"",""0.154"",""0.475"",""0.781""]","[0,1,1,1]",0,55,55,55,1,1,1,,,1,FALSE,,,,,,,,,,,,,,,,,,,,,,,,,,,,,,
,613e44dd550d01b43a553131,001,2022-04-28_20h21.29.078,classification_task,2021.2.3,Win32,143.9677512,613e44dd550d01b43a553131,626b377229c10585ec392f89,626b3af2f3e4daab5707274b,,,,,,,,,,,,,,,,,,,,,,,l,1,1.7224,"[""0.115"",""0.677"",""0.475"",""0.781""]","[1,0,1,1]",0,56,56,56,1,1,1,,,1,FALSE,,,,,,,,,,,,,,,,,,,,,,,,,,,,,,
,613e44dd550d01b43a553131,001,2022-04-28_20h21.29.078,classification_task,2021.2.3,Win32,143.9677512,613e44dd550d01b43a553131,626b377229c10585ec392f89,626b3af2f3e4daab5707274b,,,,,,,,,,,,,,,,,,,,,,,a,1,1.6182,"[""0.323"",""0.656"",""0.853"",""0.956""]","[1,0,1,1]",0,57,57,57,1,0,1,,,1,FALSE,,,,,,,,,,,,,,,,,,,,,,,,,,,,,,
,613e44dd550d01b43a553131,001,2022-04-28_20h21.29.078,classification_task,2021.2.3,Win32,143.9677512,613e44dd550d01b43a553131,626b377229c10585ec392f89,626b3af2f3e4daab5707274b,,,,,,,,,,,,,,,,,,,,,,,a,1,6.9374,"[""0.224"",""0.578"",""0.615"",""0.916""]","[1,0,1,1]",0,58,58,58,1,0,0,,,1,FALSE,,,,,,,,,,,,,,,,,,,,,,,,,,,,,,
,613e44dd550d01b43a553131,001,2022-04-28_20h21.29.078,classification_task,2021.2.3,Win32,143.9677512,613e44dd550d01b43a553131,626b377229c10585ec392f89,626b3af2f3e4daab5707274b,,,,,,,,,,,,,,,,,,,,,,,l,1,0.8057,"[""0.115"",""0.154"",""0.475"",""0.034""]","[1,1,1,0]",0,59,59,59,1,1,1,,,1,FALSE,,,,,,,,,,,,,,,,,,,,,,,,,,,,,,
,613e44dd550d01b43a553131,001,2022-04-28_20h21.29.078,classification_task,2021.2.3,Win32,143.9677512,613e44dd550d01b43a553131,626b377229c10585ec392f89,626b3af2f3e4daab5707274b,,,,,,,,,,,,,,,,,,,,,,,l,1,2.5277,"[""0.070"",""0.667"",""0.539"",""0.718""]","[1,0,1,1]",0,60,60,60,1,1,0,,,1,FALSE,,,,,,,,,,,,,,,,,,,,,,,,,,,,,,
,613e44dd550d01b43a553131,001,2022-04-28_20h21.29.078,classification_task,2021.2.3,Win32,143.9677512,613e44dd550d01b43a553131,626b377229c10585ec392f89,626b3af2f3e4daab5707274b,,,,,,,,,,,,,,,,,,,,,,,l,1,1.9449,"[""0.115"",""0.154"",""0.581"",""0.781""]","[1,1,0,1]",0,61,61,61,1,1,1,,,1,FALSE,,,,,,,,,,,,,,,,,,,,,,,,,,,,,,
,613e44dd550d01b43a553131,001,2022-04-28_20h21.29.078,classification_task,2021.2.3,Win32,143.9677512,613e44dd550d01b43a553131,626b377229c10585ec392f89,626b3af2f3e4daab5707274b,,,,,,,,,,,,,,,,,,,,,,,a,1,1.4581,"[""0.224"",""0.399"",""0.660"",""0.916""]","[1,1,0,1]",0,62,62,62,1,0,0,,,1,FALSE,,,,,,,,,,,,,,,,,,,,,,,,,,,,,,
,613e44dd550d01b43a553131,001,2022-04-28_20h21.29.078,classification_task,2021.2.3,Win32,143.9677512,613e44dd550d01b43a553131,626b377229c10585ec392f89,626b3af2f3e4daab5707274b,,,,,,,,,,,,,,,,,,,,,,,a,0,2.6042,"[""0.070"",""0.278"",""0.539"",""0.580""]","[1,1,1,0]",0,63,63,63,1,1,0,,,1,FALSE,,,,,,,,,,,,,,,,,,,,,,,,,,,,,,
,613e44dd550d01b43a553131,001,2022-04-28_20h21.29.078,classification_task,2021.2.3,Win32,143.9677512,613e44dd550d01b43a553131,626b377229c10585ec392f89,626b3af2f3e4daab5707274b,,,,,,,,,,,,,,,,,,,,,,,,,,,,,,,,,,,,,,,0, ,,0,9.997060553,244.0172,0,2,2,2,1,2,3,,,,,,,,,,,,,,,,,
,613e44dd550d01b43a553131,001,2022-04-28_20h21.29.078,classification_task,2021.2.3,Win32,143.9677512,613e44dd550d01b43a553131,626b377229c10585ec392f89,626b3af2f3e4daab5707274b,,,,,,,,,,,,,,,,,,,,,,,,,,,,,,,,,,,,,,,1,  ,,0,5.367430923,246.8413,0,2,2,2,1,2,3,,,,,,,,,,,,,,,,,
,613e44dd550d01b43a553131,001,2022-04-28_20h21.29.078,classification_task,2021.2.3,Win32,143.9677512,613e44dd550d01b43a553131,626b377229c10585ec392f89,626b3af2f3e4daab5707274b,,,,,,,,,,,,,,,,,,,,,,,,,,,,,,,,,,,,,,,2,  ,,0,1.987066432,252.5108,0,2,2,2,1,2,3,,,,,,,,,,,,,,,,,
,613e44dd550d01b43a553131,001,2022-04-28_20h21.29.078,classification_task,2021.2.3,Win32,143.9677512,613e44dd550d01b43a553131,626b377229c10585ec392f89,626b3af2f3e4daab5707274b,,,,,,,,,,,,,,,,,,,,,,,,,,,,,,,,,,,,,,,,,,,,,0,2,2,2,1,,3,,,,,,,,,,,,,,,,,
,613e44dd550d01b43a553131,001,2022-04-28_20h21.29.078,classification_task,2021.2.3,Win32,143.9677512,613e44dd550d01b43a553131,626b377229c10585ec392f89,626b3af2f3e4daab5707274b,,,,,,,,,,,,,,,,,,,,,,,,,,,,,,,,,,,,,,,,,,,,,,,,,,,,,I believe the aid is a competent performer,,0.7,0,5,1116.2919,0,0,0,0,1,0,,,,
,613e44dd550d01b43a553131,001,2022-04-28_20h21.29.078,classification_task,2021.2.3,Win32,143.9677512,613e44dd550d01b43a553131,626b377229c10585ec392f89,626b3af2f3e4daab5707274b,,,,,,,,,,,,,,,,,,,,,,,,,,,,,,,,,,,,,,,,,,,,,,,,,,,,,I trust the aid,,0.7,0,5,1117.746,0,0,0,0,1,0,,,,
,613e44dd550d01b43a553131,001,2022-04-28_20h21.29.078,classification_task,2021.2.3,Win32,143.9677512,613e44dd550d01b43a553131,626b377229c10585ec392f89,626b3af2f3e4daab5707274b,,,,,,,,,,,,,,,,,,,,,,,,,,,,,,,,,,,,,,,,,,,,,,,,,,,,,I have confidence in the advice given by the aid,,0.7,0,5,1119.7428,0,0,0,0,1,0,,,,
,613e44dd550d01b43a553131,001,2022-04-28_20h21.29.078,classification_task,2021.2.3,Win32,143.9677512,613e44dd550d01b43a553131,626b377229c10585ec392f89,626b3af2f3e4daab5707274b,,,,,,,,,,,,,,,,,,,,,,,,,,,,,,,,,,,,,,,,,,,,,,,,,,,,,I can depend on the aid,,0.7,0,5,1121.0787,0,0,0,0,1,0,,,,
,613e44dd550d01b43a553131,001,2022-04-28_20h21.29.078,classification_task,2021.2.3,Win32,143.9677512,613e44dd550d01b43a553131,626b377229c10585ec392f89,626b3af2f3e4daab5707274b,,,,,,,,,,,,,,,,,,,,,,,,,,,,,,,,,,,,,,,,,,,,,,,,,,,,,I can rely on the aid to behave in consistent ways,,0.7,0,5,1122.7815,0,0,0,0,1,0,,,,
,613e44dd550d01b43a553131,001,2022-04-28_20h21.29.078,classification_task,2021.2.3,Win32,143.9677512,613e44dd550d01b43a553131,626b377229c10585ec392f89,626b3af2f3e4daab5707274b,,,,,,,,,,,,,,,,,,,,,,,,,,,,,,,,,,,,,,,,,,,,,,,,,,,,,I can rely on the aid to do its best every time I take its advice,,0.7,0,5,1126.1085,0,0,0,0,1,0,,,,
,613e44dd550d01b43a553131,001,2022-04-28_20h21.29.078,classification_task,2021.2.3,Win32,143.9677512,613e44dd550d01b43a553131,626b377229c10585ec392f89,626b3af2f3e4daab5707274b,,,,,,,,,,,,,,,,,,,,,,,,,,,,,,,,,,,,,,,,,,,,,,,,,,,,,"On trials you completed with assistance from the aid, how frequently did you think the aid was correct?",,0.7,0,100%,,0,0,0,0,1,0,,,,
,613e44dd550d01b43a553131,001,2022-04-28_20h21.29.078,classification_task,2021.2.3,Win32,143.9677512,613e44dd550d01b43a553131,626b377229c10585ec392f89,626b3af2f3e4daab5707274b,,,,,,,,,,,,,,,,,,,,,,,,,,,,,,,,,,,,,,,,,,,,,,,,,,,,,"On trials you completed without the aid, how frequently did you think you were correct?",,0.7,0,60%,,0,0,0,0,1,0,,,,
,613e44dd550d01b43a553131,001,2022-04-28_20h21.29.078,classification_task,2021.2.3,Win32,143.9677512,613e44dd550d01b43a553131,626b377229c10585ec392f89,626b3af2f3e4daab5707274b,,,,,,,,,,,,,,,,,,,,,,,,,,,,,,,,,,,,,,,,,,,,,,,,,,,,,,,,,,,0,0,0,0,1,,,,,
,613e44dd550d01b43a553131,001,2022-04-28_20h21.29.078,classification_task,2021.2.3,Win32,143.9677512,613e44dd550d01b43a553131,626b377229c10585ec392f89,626b3af2f3e4daab5707274b,,,,,,,,,,,,,,,,,,,,,,,,,,,,,,,,,,,,,,,,,,,,,,,,,,,,,,,,,,,,,,,,,space,8.4419,1158.3997,
,613e44dd550d01b43a553131,001,2022-04-28_20h21.29.078,classification_task,2021.2.3,Win32,143.9677512,613e44dd550d01b43a553131,626b377229c10585ec392f89,626b3af2f3e4daab5707274b,,,,,,,,,,,,,,,,,,,,,,,,,,,,,,,,,,,,,,,,,,,,,,,,,,,,,,,,,,,,,,,,,,,,"Mozilla/5.0 (Windows NT 10.0; Win64; x64) AppleWebKit/537.36 (KHTML, like Gecko) Chrome/100.0.4896.127 Safari/537.36"
