usingWebGL,participant,session,date,expName,psychopyVersion,OS,frameRate,study_id,signatures_friend,signatures_foe,band_ranges_top,band_ranges_bottom,formitemText,formtype,formundefined,formitemWidth,formindex,formresponse,formrt,key_resp_2.keys,key_resp_2.rt,tute_resp.keys,tute_resp.rt,tutorial.thisRepN,tutorial.thisTrialN,tutorial.thisN,tutorial.thisIndex,tutorial.ran,key_resp_4.keys,key_resp_4.rt,key_resp.keys,key_resp.corr,key_resp.rt,lines_presented,is_signal_presented,trials.thisRepN,trials.thisTrialN,trials.thisN,trials.thisIndex,trials.ran,vessel,active_band,lines,is_signal,supported_pos,catch_trial,debrief_formindex,debrief_formitemText,debrief_formtype,debrief_formitemWidth,debrief_formresponse,debrief_formrt,phases.thisRepN,phases.thisTrialN,phases.thisN,phases.thisIndex,phases.ran,phases.order,phase,key_resp_3.keys,trustitemText,trusttype,trustitemWidth,trustindex,trustresponse,trustrt,support_status.thisRepN,support_status.thisTrialN,support_status.thisN,support_status.thisIndex,support_status.ran,support_status.order,key_resp_5.keys,key_resp_5.rt,globalClockTime,userAgent,manualCondition
TRUE,613e9c495a04cf491311066a,627c68e057d29f27ac7693df,2022-05-11_20h55.31.344,classification_task,2021.2.3,Win32,59.72645285,627c6715c52fd12f31907bcf,,,,,,,,,,,,,,,,,,,,,,,,,,,,,,,,,,,,,,,,,,,,,,,,,,,,,,,,,,,,,,,,,,,,,
,613e9c495a04cf491311066a,627c68e057d29f27ac7693df,2022-05-11_20h55.31.344,classification_task,2021.2.3,Win32,59.72645285,627c6715c52fd12f31907bcf,"[[""0.280"",""0.367"",""0.862"",""0.910""],[""0.325"",""0.549"",""0.614"",""0.966""]]","[[""0.050"",""0.404"",""0.475"",""0.707""],[""0.106"",""0.191"",""0.514"",""0.742""]]","[1,10]","[100,1000]",Video game experience,,,0.7,0,,,,,,,,,,,,,,,,,,,,,,,,,,,,,,,,,,,,,,,,,,,,,,,,,,,,,,,,,,,,
,613e9c495a04cf491311066a,627c68e057d29f27ac7693df,2022-05-11_20h55.31.344,classification_task,2021.2.3,Win32,59.72645285,627c6715c52fd12f31907bcf,,,,,Approximately how many hours did you spend playing video games in the last week?,,,0.7,0,2,,,,,,,,,,,,,,,,,,,,,,,,,,,,,,,,,,,,,,,,,,,,,,,,,,,,,,,,,,,
,613e9c495a04cf491311066a,627c68e057d29f27ac7693df,2022-05-11_20h55.31.344,classification_task,2021.2.3,Win32,59.72645285,627c6715c52fd12f31907bcf,,,,,"Which game did you play the most this year? (Enter ""None"" if you didn't play any)",,,0.7,0,Battlefront,,,,,,,,,,,,,,,,,,,,,,,,,,,,,,,,,,,,,,,,,,,,,,,,,,,,,,,,,,,
,613e9c495a04cf491311066a,627c68e057d29f27ac7693df,2022-05-11_20h55.31.344,classification_task,2021.2.3,Win32,59.72645285,627c6715c52fd12f31907bcf,,,,,Visual perception,,,0.7,0,,,,,,,,,,,,,,,,,,,,,,,,,,,,,,,,,,,,,,,,,,,,,,,,,,,,,,,,,,,,
,613e9c495a04cf491311066a,627c68e057d29f27ac7693df,2022-05-11_20h55.31.344,classification_task,2021.2.3,Win32,59.72645285,627c6715c52fd12f31907bcf,,,,,Do you have any form of color blindness?,,,0.7,0,No,46.5563,,,,,,,,,,,,,,,,,,,,,,,,,,,,,,,,,,,,,,,,,,,,,,,,,,,,,,,,,,
,613e9c495a04cf491311066a,627c68e057d29f27ac7693df,2022-05-11_20h55.31.344,classification_task,2021.2.3,Win32,59.72645285,627c6715c52fd12f31907bcf,,,,,Do you use software to change the colour temperature of your screen (e.g. f.lux)?,,,0.7,0,No,52.8475,,,,,,,,,,,,,,,,,,,,,,,,,,,,,,,,,,,,,,,,,,,,,,,,,,,,,,,,,,
,613e9c495a04cf491311066a,627c68e057d29f27ac7693df,2022-05-11_20h55.31.344,classification_task,2021.2.3,Win32,59.72645285,627c6715c52fd12f31907bcf,,,,,,,,,,,,space,48.0626,space,8.3993,0,0,0,0,1,,,,,,,,,,,,,,,,,,,,,,,,,,,,,,,,,,,,,,,,,,,,,,,,,
,613e9c495a04cf491311066a,627c68e057d29f27ac7693df,2022-05-11_20h55.31.344,classification_task,2021.2.3,Win32,59.72645285,627c6715c52fd12f31907bcf,,,,,,,,,,,,,,space,11.417,1,0,1,0,1,,,,,,,,,,,,,,,,,,,,,,,,,,,,,,,,,,,,,,,,,,,,,,,,,
,613e9c495a04cf491311066a,627c68e057d29f27ac7693df,2022-05-11_20h55.31.344,classification_task,2021.2.3,Win32,59.72645285,627c6715c52fd12f31907bcf,,,,,,,,,,,,,,space,32.1557,2,0,2,0,1,,,,,,,,,,,,,,,,,,,,,,,,,,,,,,,,,,,,,,,,,,,,,,,,,
,613e9c495a04cf491311066a,627c68e057d29f27ac7693df,2022-05-11_20h55.31.344,classification_task,2021.2.3,Win32,59.72645285,627c6715c52fd12f31907bcf,,,,,,,,,,,,,,space,48.3739,3,0,3,0,1,,,,,,,,,,,,,,,,,,,,,,,,,,,,,,,,,,,,,,,,,,,,,,,,,
,613e9c495a04cf491311066a,627c68e057d29f27ac7693df,2022-05-11_20h55.31.344,classification_task,2021.2.3,Win32,59.72645285,627c6715c52fd12f31907bcf,,,,,,,,,,,,,,space,71.2787,4,0,4,0,1,,,,,,,,,,,,,,,,,,,,,,,,,,,,,,,,,,,,,,,,,,,,,,,,,
,613e9c495a04cf491311066a,627c68e057d29f27ac7693df,2022-05-11_20h55.31.344,classification_task,2021.2.3,Win32,59.72645285,627c6715c52fd12f31907bcf,,,,,,,,,,,,,,,,,,,,,space,17.104,a,0,6.4949,"[""0.234"",""0.404"",""0.475"",""0.707""]","[0,1,1,1]",0,0,0,0,1,1,0,,,1,FALSE,,,,,,,,,,,,,,,,,,,,,,,,,,,,,,,
,613e9c495a04cf491311066a,627c68e057d29f27ac7693df,2022-05-11_20h55.31.344,classification_task,2021.2.3,Win32,59.72645285,627c6715c52fd12f31907bcf,,,,,,,,,,,,,,,,,,,,,,,l,1,3.4992,"[""0.050"",""0.672"",""0.475"",""0.707""]","[1,0,1,1]",0,1,1,1,1,1,0,,,1,FALSE,,,,,,,,,,,,,,,,,,,,,,,,,,,,,,,
,613e9c495a04cf491311066a,627c68e057d29f27ac7693df,2022-05-11_20h55.31.344,classification_task,2021.2.3,Win32,59.72645285,627c6715c52fd12f31907bcf,,,,,,,,,,,,,,,,,,,,,,,a,1,4.5491,"[""0.325"",""0.549"",""0.665"",""0.966""]","[1,1,0,1]",0,2,2,2,1,0,1,,,1,FALSE,,,,,,,,,,,,,,,,,,,,,,,,,,,,,,,
,613e9c495a04cf491311066a,627c68e057d29f27ac7693df,2022-05-11_20h55.31.344,classification_task,2021.2.3,Win32,59.72645285,627c6715c52fd12f31907bcf,,,,,,,,,,,,,,,,,,,,,,,a,1,4,"[""0.146"",""0.549"",""0.614"",""0.966""]","[0,1,1,1]",0,3,3,3,1,0,1,,,1,FALSE,,,,,,,,,,,,,,,,,,,,,,,,,,,,,,,
,613e9c495a04cf491311066a,627c68e057d29f27ac7693df,2022-05-11_20h55.31.344,classification_task,2021.2.3,Win32,59.72645285,627c6715c52fd12f31907bcf,,,,,,,,,,,,,,,,,,,,,,,a,1,2.5478,"[""0.325"",""0.549"",""0.614"",""0.246""]","[1,1,1,0]",0,4,4,4,1,0,1,,,1,FALSE,,,,,,,,,,,,,,,,,,,,,,,,,,,,,,,
,613e9c495a04cf491311066a,627c68e057d29f27ac7693df,2022-05-11_20h55.31.344,classification_task,2021.2.3,Win32,59.72645285,627c6715c52fd12f31907bcf,,,,,,,,,,,,,,,,,,,,,,,a,1,2.749,"[""0.280"",""0.367"",""0.862"",""0.440""]","[1,1,1,0]",0,5,5,5,1,0,0,,,1,FALSE,,,,,,,,,,,,,,,,,,,,,,,,,,,,,,,
,613e9c495a04cf491311066a,627c68e057d29f27ac7693df,2022-05-11_20h55.31.344,classification_task,2021.2.3,Win32,59.72645285,627c6715c52fd12f31907bcf,,,,,,,,,,,,,,,,,,,,,,,a,1,1.5986,"[""0.280"",""0.234"",""0.862"",""0.910""]","[1,0,1,1]",0,6,6,6,1,0,0,,,1,FALSE,,,,,,,,,,,,,,,,,,,,,,,,,,,,,,,
,613e9c495a04cf491311066a,627c68e057d29f27ac7693df,2022-05-11_20h55.31.344,classification_task,2021.2.3,Win32,59.72645285,627c6715c52fd12f31907bcf,,,,,,,,,,,,,,,,,,,,,,,a,1,1.7941,"[""0.325"",""0.802"",""0.614"",""0.966""]","[1,0,1,1]",0,7,7,7,1,0,1,,,1,FALSE,,,,,,,,,,,,,,,,,,,,,,,,,,,,,,,
,613e9c495a04cf491311066a,627c68e057d29f27ac7693df,2022-05-11_20h55.31.344,classification_task,2021.2.3,Win32,59.72645285,627c6715c52fd12f31907bcf,,,,,,,,,,,,,,,,,,,,,,,a,0,3.0175,"[""0.143"",""0.191"",""0.514"",""0.742""]","[0,1,1,1]",0,8,8,8,1,1,1,,,1,FALSE,,,,,,,,,,,,,,,,,,,,,,,,,,,,,,,
,613e9c495a04cf491311066a,627c68e057d29f27ac7693df,2022-05-11_20h55.31.344,classification_task,2021.2.3,Win32,59.72645285,627c6715c52fd12f31907bcf,,,,,,,,,,,,,,,,,,,,,,,l,1,2.5011,"[""0.106"",""0.828"",""0.514"",""0.742""]","[1,0,1,1]",0,9,9,9,1,1,1,,,1,FALSE,,,,,,,,,,,,,,,,,,,,,,,,,,,,,,,
,613e9c495a04cf491311066a,627c68e057d29f27ac7693df,2022-05-11_20h55.31.344,classification_task,2021.2.3,Win32,59.72645285,627c6715c52fd12f31907bcf,,,,,,,,,,,,,,,,,,,,,,,l,1,2.1475,"[""0.050"",""0.404"",""0.244"",""0.707""]","[1,1,0,1]",0,10,10,10,1,1,0,,,1,FALSE,,,,,,,,,,,,,,,,,,,,,,,,,,,,,,,
,613e9c495a04cf491311066a,627c68e057d29f27ac7693df,2022-05-11_20h55.31.344,classification_task,2021.2.3,Win32,59.72645285,627c6715c52fd12f31907bcf,,,,,,,,,,,,,,,,,,,,,,,l,1,2.4228,"[""0.050"",""0.404"",""0.475"",""0.672""]","[1,1,1,0]",0,11,11,11,1,1,0,,,1,FALSE,,,,,,,,,,,,,,,,,,,,,,,,,,,,,,,
,613e9c495a04cf491311066a,627c68e057d29f27ac7693df,2022-05-11_20h55.31.344,classification_task,2021.2.3,Win32,59.72645285,627c6715c52fd12f31907bcf,,,,,,,,,,,,,,,,,,,,,,,a,1,4.0765,"[""0.244"",""0.367"",""0.862"",""0.910""]","[0,1,1,1]",0,12,12,12,1,0,0,,,1,FALSE,,,,,,,,,,,,,,,,,,,,,,,,,,,,,,,
,613e9c495a04cf491311066a,627c68e057d29f27ac7693df,2022-05-11_20h55.31.344,classification_task,2021.2.3,Win32,59.72645285,627c6715c52fd12f31907bcf,,,,,,,,,,,,,,,,,,,,,,,a,0,3.3962,"[""0.106"",""0.191"",""0.514"",""0.665""]","[1,1,1,0]",0,13,13,13,1,1,1,,,1,FALSE,,,,,,,,,,,,,,,,,,,,,,,,,,,,,,,
,613e9c495a04cf491311066a,627c68e057d29f27ac7693df,2022-05-11_20h55.31.344,classification_task,2021.2.3,Win32,59.72645285,627c6715c52fd12f31907bcf,,,,,,,,,,,,,,,,,,,,,,,a,1,3.1506,"[""0.280"",""0.367"",""0.811"",""0.910""]","[1,1,0,1]",0,14,14,14,1,0,0,,,1,FALSE,,,,,,,,,,,,,,,,,,,,,,,,,,,,,,,
,613e9c495a04cf491311066a,627c68e057d29f27ac7693df,2022-05-11_20h55.31.344,classification_task,2021.2.3,Win32,59.72645285,627c6715c52fd12f31907bcf,,,,,,,,,,,,,,,,,,,,,,,l,1,2.4198,"[""0.106"",""0.191"",""0.820"",""0.742""]","[1,1,0,1]",0,15,15,15,1,1,1,,,1,FALSE,,,,,,,,,,,,,,,,,,,,,,,,,,,,,,,
,613e9c495a04cf491311066a,627c68e057d29f27ac7693df,2022-05-11_20h55.31.344,classification_task,2021.2.3,Win32,59.72645285,627c6715c52fd12f31907bcf,,,,,,,,,,,,,,,,,,,,,,,a,1,4.6855,"[""0.280"",""0.143"",""0.862"",""0.910""]","[1,0,1,1]",0,16,16,16,1,0,0,,,1,FALSE,,,,,,,,,,,,,,,,,,,,,,,,,,,,,,,
,613e9c495a04cf491311066a,627c68e057d29f27ac7693df,2022-05-11_20h55.31.344,classification_task,2021.2.3,Win32,59.72645285,627c6715c52fd12f31907bcf,,,,,,,,,,,,,,,,,,,,,,,a,1,2.0425,"[""0.143"",""0.367"",""0.862"",""0.910""]","[0,1,1,1]",0,17,17,17,1,0,0,,,1,FALSE,,,,,,,,,,,,,,,,,,,,,,,,,,,,,,,
,613e9c495a04cf491311066a,627c68e057d29f27ac7693df,2022-05-11_20h55.31.344,classification_task,2021.2.3,Win32,59.72645285,627c6715c52fd12f31907bcf,,,,,,,,,,,,,,,,,,,,,,,l,1,2.8117,"[""0.106"",""0.191"",""0.663"",""0.742""]","[1,1,0,1]",0,18,18,18,1,1,1,,,1,FALSE,,,,,,,,,,,,,,,,,,,,,,,,,,,,,,,
,613e9c495a04cf491311066a,627c68e057d29f27ac7693df,2022-05-11_20h55.31.344,classification_task,2021.2.3,Win32,59.72645285,627c6715c52fd12f31907bcf,,,,,,,,,,,,,,,,,,,,,,,a,1,7.534,"[""0.820"",""0.549"",""0.614"",""0.966""]","[0,1,1,1]",0,19,19,19,1,0,1,,,1,FALSE,,,,,,,,,,,,,,,,,,,,,,,,,,,,,,,
,613e9c495a04cf491311066a,627c68e057d29f27ac7693df,2022-05-11_20h55.31.344,classification_task,2021.2.3,Win32,59.72645285,627c6715c52fd12f31907bcf,,,,,,,,,,,,,,,,,,,,,,,l,1,3.2053,"[""0.106"",""0.191"",""0.514"",""0.811""]","[1,1,1,0]",0,20,20,20,1,1,1,,,1,FALSE,,,,,,,,,,,,,,,,,,,,,,,,,,,,,,,
,613e9c495a04cf491311066a,627c68e057d29f27ac7693df,2022-05-11_20h55.31.344,classification_task,2021.2.3,Win32,59.72645285,627c6715c52fd12f31907bcf,,,,,,,,,,,,,,,,,,,,,,,a,1,1.9259,"[""0.325"",""0.549"",""0.246"",""0.966""]","[1,1,0,1]",0,21,21,21,1,0,1,,,1,FALSE,,,,,,,,,,,,,,,,,,,,,,,,,,,,,,,
,613e9c495a04cf491311066a,627c68e057d29f27ac7693df,2022-05-11_20h55.31.344,classification_task,2021.2.3,Win32,59.72645285,627c6715c52fd12f31907bcf,,,,,,,,,,,,,,,,,,,,,,,l,1,2.0575,"[""0.050"",""0.404"",""0.820"",""0.707""]","[1,1,0,1]",0,22,22,22,1,1,0,,,1,FALSE,,,,,,,,,,,,,,,,,,,,,,,,,,,,,,,
,613e9c495a04cf491311066a,627c68e057d29f27ac7693df,2022-05-11_20h55.31.344,classification_task,2021.2.3,Win32,59.72645285,627c6715c52fd12f31907bcf,,,,,,,,,,,,,,,,,,,,,,,l,1,1.6722,"[""0.050"",""0.404"",""0.475"",""0.672""]","[1,1,1,0]",0,23,23,23,1,1,0,,,1,FALSE,,,,,,,,,,,,,,,,,,,,,,,,,,,,,,,
,613e9c495a04cf491311066a,627c68e057d29f27ac7693df,2022-05-11_20h55.31.344,classification_task,2021.2.3,Win32,59.72645285,627c6715c52fd12f31907bcf,,,,,,,,,,,,,,,,,,,,,,,a,1,2.4008,"[""0.280"",""0.367"",""0.820"",""0.910""]","[1,1,0,1]",0,24,24,24,1,0,0,,,1,FALSE,,,,,,,,,,,,,,,,,,,,,,,,,,,,,,,
,613e9c495a04cf491311066a,627c68e057d29f27ac7693df,2022-05-11_20h55.31.344,classification_task,2021.2.3,Win32,59.72645285,627c6715c52fd12f31907bcf,,,,,,,,,,,,,,,,,,,,,,,a,1,2.2368,"[""0.325"",""0.549"",""0.614"",""0.440""]","[1,1,1,0]",0,25,25,25,1,0,1,,,1,FALSE,,,,,,,,,,,,,,,,,,,,,,,,,,,,,,,
,613e9c495a04cf491311066a,627c68e057d29f27ac7693df,2022-05-11_20h55.31.344,classification_task,2021.2.3,Win32,59.72645285,627c6715c52fd12f31907bcf,,,,,,,,,,,,,,,,,,,,,,,l,1,3.4302,"[""0.050"",""0.143"",""0.475"",""0.707""]","[1,0,1,1]",0,26,26,26,1,1,0,,,1,FALSE,,,,,,,,,,,,,,,,,,,,,,,,,,,,,,,
,613e9c495a04cf491311066a,627c68e057d29f27ac7693df,2022-05-11_20h55.31.344,classification_task,2021.2.3,Win32,59.72645285,627c6715c52fd12f31907bcf,,,,,,,,,,,,,,,,,,,,,,,l,1,4.2724,"[""0.657"",""0.191"",""0.514"",""0.742""]","[0,1,1,1]",0,27,27,27,1,1,1,,,1,FALSE,,,,,,,,,,,,,,,,,,,,,,,,,,,,,,,
,613e9c495a04cf491311066a,627c68e057d29f27ac7693df,2022-05-11_20h55.31.344,classification_task,2021.2.3,Win32,59.72645285,627c6715c52fd12f31907bcf,,,,,,,,,,,,,,,,,,,,,,,a,0,6.1203,"[""0.143"",""0.404"",""0.475"",""0.707""]","[0,1,1,1]",0,28,28,28,1,1,0,,,1,FALSE,,,,,,,,,,,,,,,,,,,,,,,,,,,,,,,
,613e9c495a04cf491311066a,627c68e057d29f27ac7693df,2022-05-11_20h55.31.344,classification_task,2021.2.3,Win32,59.72645285,627c6715c52fd12f31907bcf,,,,,,,,,,,,,,,,,,,,,,,l,0,5.8679,"[""0.325"",""0.143"",""0.614"",""0.966""]","[1,0,1,1]",0,29,29,29,1,0,1,,,1,FALSE,,,,,,,,,,,,,,,,,,,,,,,,,,,,,,,
,613e9c495a04cf491311066a,627c68e057d29f27ac7693df,2022-05-11_20h55.31.344,classification_task,2021.2.3,Win32,59.72645285,627c6715c52fd12f31907bcf,,,,,,,,,,,,,,,,,,,,,,,l,1,4.5791,"[""0.106"",""0.672"",""0.514"",""0.742""]","[1,0,1,1]",0,30,30,30,1,1,1,,,1,FALSE,,,,,,,,,,,,,,,,,,,,,,,,,,,,,,,
,613e9c495a04cf491311066a,627c68e057d29f27ac7693df,2022-05-11_20h55.31.344,classification_task,2021.2.3,Win32,59.72645285,627c6715c52fd12f31907bcf,,,,,,,,,,,,,,,,,,,,,,,l,0,2.9858,"[""0.280"",""0.367"",""0.862"",""0.143""]","[1,1,1,0]",0,31,31,31,1,0,0,,,1,FALSE,,,,,,,,,,,,,,,,,,,,,,,,,,,,,,,
,613e9c495a04cf491311066a,627c68e057d29f27ac7693df,2022-05-11_20h55.31.344,classification_task,2021.2.3,Win32,59.72645285,627c6715c52fd12f31907bcf,,,,,,,,,,,,,,,,,,,,,,,a,0,4.4875,"[""0.106"",""0.657"",""0.514"",""0.742""]","[1,0,1,1]",0,32,32,32,1,1,1,,,1,FALSE,,,,,,,,,,,,,,,,,,,,,,,,,,,,,,,
,613e9c495a04cf491311066a,627c68e057d29f27ac7693df,2022-05-11_20h55.31.344,classification_task,2021.2.3,Win32,59.72645285,627c6715c52fd12f31907bcf,,,,,,,,,,,,,,,,,,,,,,,a,0,4.9905,"[""0.106"",""0.191"",""0.514"",""0.820""]","[1,1,1,0]",0,33,33,33,1,1,1,,,1,FALSE,,,,,,,,,,,,,,,,,,,,,,,,,,,,,,,
,613e9c495a04cf491311066a,627c68e057d29f27ac7693df,2022-05-11_20h55.31.344,classification_task,2021.2.3,Win32,59.72645285,627c6715c52fd12f31907bcf,,,,,,,,,,,,,,,,,,,,,,,l,0,5.9851,"[""0.280"",""0.367"",""0.793"",""0.910""]","[1,1,0,1]",0,34,34,34,1,0,0,,,1,FALSE,,,,,,,,,,,,,,,,,,,,,,,,,,,,,,,
,613e9c495a04cf491311066a,627c68e057d29f27ac7693df,2022-05-11_20h55.31.344,classification_task,2021.2.3,Win32,59.72645285,627c6715c52fd12f31907bcf,,,,,,,,,,,,,,,,,,,,,,,l,0,1.9481,"[""0.325"",""0.549"",""0.614"",""0.672""]","[1,1,1,0]",0,35,35,35,1,0,1,,,1,FALSE,,,,,,,,,,,,,,,,,,,,,,,,,,,,,,,
,613e9c495a04cf491311066a,627c68e057d29f27ac7693df,2022-05-11_20h55.31.344,classification_task,2021.2.3,Win32,59.72645285,627c6715c52fd12f31907bcf,,,,,,,,,,,,,,,,,,,,,,,l,1,3.5485,"[""0.050"",""0.404"",""0.802"",""0.707""]","[1,1,0,1]",0,36,36,36,1,1,0,,,1,FALSE,,,,,,,,,,,,,,,,,,,,,,,,,,,,,,,
,613e9c495a04cf491311066a,627c68e057d29f27ac7693df,2022-05-11_20h55.31.344,classification_task,2021.2.3,Win32,59.72645285,627c6715c52fd12f31907bcf,,,,,,,,,,,,,,,,,,,,,,,l,1,0.754,"[""0.050"",""0.802"",""0.475"",""0.707""]","[1,0,1,1]",0,37,37,37,1,1,0,,,1,FALSE,,,,,,,,,,,,,,,,,,,,,,,,,,,,,,,
,613e9c495a04cf491311066a,627c68e057d29f27ac7693df,2022-05-11_20h55.31.344,classification_task,2021.2.3,Win32,59.72645285,627c6715c52fd12f31907bcf,,,,,,,,,,,,,,,,,,,,,,,a,1,1.1661,"[""0.280"",""0.245"",""0.862"",""0.910""]","[1,0,1,1]",0,38,38,38,1,0,0,,,1,FALSE,,,,,,,,,,,,,,,,,,,,,,,,,,,,,,,
,613e9c495a04cf491311066a,627c68e057d29f27ac7693df,2022-05-11_20h55.31.344,classification_task,2021.2.3,Win32,59.72645285,627c6715c52fd12f31907bcf,,,,,,,,,,,,,,,,,,,,,,,a,1,1.1434,"[""0.146"",""0.549"",""0.614"",""0.966""]","[0,1,1,1]",0,39,39,39,1,0,1,,,1,FALSE,,,,,,,,,,,,,,,,,,,,,,,,,,,,,,,
,613e9c495a04cf491311066a,627c68e057d29f27ac7693df,2022-05-11_20h55.31.344,classification_task,2021.2.3,Win32,59.72645285,627c6715c52fd12f31907bcf,,,,,,,,,,,,,,,,,,,,,,,a,1,0.9361,"[""0.440"",""0.367"",""0.862"",""0.910""]","[0,1,1,1]",0,40,40,40,1,0,0,,,1,FALSE,,,,,,,,,,,,,,,,,,,,,,,,,,,,,,,
,613e9c495a04cf491311066a,627c68e057d29f27ac7693df,2022-05-11_20h55.31.344,classification_task,2021.2.3,Win32,59.72645285,627c6715c52fd12f31907bcf,,,,,,,,,,,,,,,,,,,,,,,a,1,0.8819,"[""0.280"",""0.367"",""0.862"",""0.811""]","[1,1,1,0]",0,41,41,41,1,0,0,,,1,FALSE,,,,,,,,,,,,,,,,,,,,,,,,,,,,,,,
,613e9c495a04cf491311066a,627c68e057d29f27ac7693df,2022-05-11_20h55.31.344,classification_task,2021.2.3,Win32,59.72645285,627c6715c52fd12f31907bcf,,,,,,,,,,,,,,,,,,,,,,,l,0,1.0494,"[""0.325"",""0.440"",""0.614"",""0.966""]","[1,0,1,1]",0,42,42,42,1,0,1,,,1,FALSE,,,,,,,,,,,,,,,,,,,,,,,,,,,,,,,
,613e9c495a04cf491311066a,627c68e057d29f27ac7693df,2022-05-11_20h55.31.344,classification_task,2021.2.3,Win32,59.72645285,627c6715c52fd12f31907bcf,,,,,,,,,,,,,,,,,,,,,,,l,1,0.9191,"[""0.050"",""0.404"",""0.475"",""0.665""]","[1,1,1,0]",0,43,43,43,1,1,0,,,1,FALSE,,,,,,,,,,,,,,,,,,,,,,,,,,,,,,,
,613e9c495a04cf491311066a,627c68e057d29f27ac7693df,2022-05-11_20h55.31.344,classification_task,2021.2.3,Win32,59.72645285,627c6715c52fd12f31907bcf,,,,,,,,,,,,,,,,,,,,,,,l,1,0.9987,"[""0.811"",""0.191"",""0.514"",""0.742""]","[0,1,1,1]",0,44,44,44,1,1,1,,,1,FALSE,,,,,,,,,,,,,,,,,,,,,,,,,,,,,,,
,613e9c495a04cf491311066a,627c68e057d29f27ac7693df,2022-05-11_20h55.31.344,classification_task,2021.2.3,Win32,59.72645285,627c6715c52fd12f31907bcf,,,,,,,,,,,,,,,,,,,,,,,l,0,0.9699,"[""0.325"",""0.549"",""0.811"",""0.966""]","[1,1,0,1]",0,45,45,45,1,0,1,,,1,FALSE,,,,,,,,,,,,,,,,,,,,,,,,,,,,,,,
,613e9c495a04cf491311066a,627c68e057d29f27ac7693df,2022-05-11_20h55.31.344,classification_task,2021.2.3,Win32,59.72645285,627c6715c52fd12f31907bcf,,,,,,,,,,,,,,,,,,,,,,,a,0,1.9653,"[""0.244"",""0.404"",""0.475"",""0.707""]","[0,1,1,1]",0,46,46,46,1,1,0,,,1,FALSE,,,,,,,,,,,,,,,,,,,,,,,,,,,,,,,
,613e9c495a04cf491311066a,627c68e057d29f27ac7693df,2022-05-11_20h55.31.344,classification_task,2021.2.3,Win32,59.72645285,627c6715c52fd12f31907bcf,,,,,,,,,,,,,,,,,,,,,,,l,1,0.8584,"[""0.106"",""0.191"",""0.802"",""0.742""]","[1,1,0,1]",0,47,47,47,1,1,1,,,1,FALSE,,,,,,,,,,,,,,,,,,,,,,,,,,,,,,,
,613e9c495a04cf491311066a,627c68e057d29f27ac7693df,2022-05-11_20h55.31.344,classification_task,2021.2.3,Win32,59.72645285,627c6715c52fd12f31907bcf,,,,,,,,,,,,,,,,,,,,,,,l,1,1.3387,"[""0.820"",""0.404"",""0.475"",""0.707""]","[0,1,1,1]",0,48,48,48,1,1,0,,,1,FALSE,,,,,,,,,,,,,,,,,,,,,,,,,,,,,,,
,613e9c495a04cf491311066a,627c68e057d29f27ac7693df,2022-05-11_20h55.31.344,classification_task,2021.2.3,Win32,59.72645285,627c6715c52fd12f31907bcf,,,,,,,,,,,,,,,,,,,,,,,a,0,0.9699,"[""0.050"",""0.440"",""0.475"",""0.707""]","[1,0,1,1]",0,49,49,49,1,1,0,,,1,FALSE,,,,,,,,,,,,,,,,,,,,,,,,,,,,,,,
,613e9c495a04cf491311066a,627c68e057d29f27ac7693df,2022-05-11_20h55.31.344,classification_task,2021.2.3,Win32,59.72645285,627c6715c52fd12f31907bcf,,,,,,,,,,,,,,,,,,,,,,,a,1,1.3946,"[""0.280"",""0.367"",""0.862"",""0.245""]","[1,1,1,0]",0,50,50,50,1,0,0,,,1,FALSE,,,,,,,,,,,,,,,,,,,,,,,,,,,,,,,
,613e9c495a04cf491311066a,627c68e057d29f27ac7693df,2022-05-11_20h55.31.344,classification_task,2021.2.3,Win32,59.72645285,627c6715c52fd12f31907bcf,,,,,,,,,,,,,,,,,,,,,,,a,0,1.6353,"[""0.106"",""0.191"",""0.514"",""0.244""]","[1,1,1,0]",0,51,51,51,1,1,1,,,1,FALSE,,,,,,,,,,,,,,,,,,,,,,,,,,,,,,,
,613e9c495a04cf491311066a,627c68e057d29f27ac7693df,2022-05-11_20h55.31.344,classification_task,2021.2.3,Win32,59.72645285,627c6715c52fd12f31907bcf,,,,,,,,,,,,,,,,,,,,,,,a,0,0.9705,"[""0.106"",""0.191"",""0.244"",""0.742""]","[1,1,0,1]",0,52,52,52,1,1,1,,,1,FALSE,,,,,,,,,,,,,,,,,,,,,,,,,,,,,,,
,613e9c495a04cf491311066a,627c68e057d29f27ac7693df,2022-05-11_20h55.31.344,classification_task,2021.2.3,Win32,59.72645285,627c6715c52fd12f31907bcf,,,,,,,,,,,,,,,,,,,,,,,l,0,0.9273,"[""0.325"",""0.146"",""0.614"",""0.966""]","[1,0,1,1]",0,53,53,53,1,0,1,,,1,FALSE,,,,,,,,,,,,,,,,,,,,,,,,,,,,,,,
,613e9c495a04cf491311066a,627c68e057d29f27ac7693df,2022-05-11_20h55.31.344,classification_task,2021.2.3,Win32,59.72645285,627c6715c52fd12f31907bcf,,,,,,,,,,,,,,,,,,,,,,,a,0,1.6185,"[""0.050"",""0.404"",""0.475"",""0.820""]","[1,1,1,0]",0,54,54,54,1,1,0,,,1,FALSE,,,,,,,,,,,,,,,,,,,,,,,,,,,,,,,
,613e9c495a04cf491311066a,627c68e057d29f27ac7693df,2022-05-11_20h55.31.344,classification_task,2021.2.3,Win32,59.72645285,627c6715c52fd12f31907bcf,,,,,,,,,,,,,,,,,,,,,,,a,0,1.8486,"[""0.050"",""0.404"",""0.828"",""0.707""]","[1,1,0,1]",0,55,55,55,1,1,0,,,1,FALSE,,,,,,,,,,,,,,,,,,,,,,,,,,,,,,,
,613e9c495a04cf491311066a,627c68e057d29f27ac7693df,2022-05-11_20h55.31.344,classification_task,2021.2.3,Win32,59.72645285,627c6715c52fd12f31907bcf,,,,,,,,,,,,,,,,,,,,,,,a,1,1.7335,"[""0.665"",""0.549"",""0.614"",""0.966""]","[0,1,1,1]",0,56,56,56,1,0,1,,,1,FALSE,,,,,,,,,,,,,,,,,,,,,,,,,,,,,,,
,613e9c495a04cf491311066a,627c68e057d29f27ac7693df,2022-05-11_20h55.31.344,classification_task,2021.2.3,Win32,59.72645285,627c6715c52fd12f31907bcf,,,,,,,,,,,,,,,,,,,,,,,l,1,1.1106,"[""0.106"",""0.672"",""0.514"",""0.742""]","[1,0,1,1]",0,57,57,57,1,1,1,,,1,FALSE,,,,,,,,,,,,,,,,,,,,,,,,,,,,,,,
,613e9c495a04cf491311066a,627c68e057d29f27ac7693df,2022-05-11_20h55.31.344,classification_task,2021.2.3,Win32,59.72645285,627c6715c52fd12f31907bcf,,,,,,,,,,,,,,,,,,,,,,,a,1,0.9658,"[""0.280"",""0.367"",""0.820"",""0.910""]","[1,1,0,1]",0,58,58,58,1,0,0,,,1,FALSE,,,,,,,,,,,,,,,,,,,,,,,,,,,,,,,
,613e9c495a04cf491311066a,627c68e057d29f27ac7693df,2022-05-11_20h55.31.344,classification_task,2021.2.3,Win32,59.72645285,627c6715c52fd12f31907bcf,,,,,,,,,,,,,,,,,,,,,,,a,1,0.6978,"[""0.280"",""0.793"",""0.862"",""0.910""]","[1,0,1,1]",0,59,59,59,1,0,0,,,1,FALSE,,,,,,,,,,,,,,,,,,,,,,,,,,,,,,,
,613e9c495a04cf491311066a,627c68e057d29f27ac7693df,2022-05-11_20h55.31.344,classification_task,2021.2.3,Win32,59.72645285,627c6715c52fd12f31907bcf,,,,,,,,,,,,,,,,,,,,,,,l,0,0.9689,"[""0.325"",""0.549"",""0.244"",""0.966""]","[1,1,0,1]",0,60,60,60,1,0,1,,,1,FALSE,,,,,,,,,,,,,,,,,,,,,,,,,,,,,,,
,613e9c495a04cf491311066a,627c68e057d29f27ac7693df,2022-05-11_20h55.31.344,classification_task,2021.2.3,Win32,59.72645285,627c6715c52fd12f31907bcf,,,,,,,,,,,,,,,,,,,,,,,l,0,1.0906,"[""0.325"",""0.549"",""0.614"",""0.143""]","[1,1,1,0]",0,61,61,61,1,0,1,,,1,FALSE,,,,,,,,,,,,,,,,,,,,,,,,,,,,,,,
,613e9c495a04cf491311066a,627c68e057d29f27ac7693df,2022-05-11_20h55.31.344,classification_task,2021.2.3,Win32,59.72645285,627c6715c52fd12f31907bcf,,,,,,,,,,,,,,,,,,,,,,,a,0,1.7172,"[""0.665"",""0.191"",""0.514"",""0.742""]","[0,1,1,1]",0,62,62,62,1,1,1,,,1,FALSE,,,,,,,,,,,,,,,,,,,,,,,,,,,,,,,
,613e9c495a04cf491311066a,627c68e057d29f27ac7693df,2022-05-11_20h55.31.344,classification_task,2021.2.3,Win32,59.72645285,627c6715c52fd12f31907bcf,,,,,,,,,,,,,,,,,,,,,,,l,0,1.143,"[""0.146"",""0.367"",""0.862"",""0.910""]","[0,1,1,1]",0,63,63,63,1,0,0,,,1,FALSE,,,,,,,,,,,,,,,,,,,,,,,,,,,,,,,
,613e9c495a04cf491311066a,627c68e057d29f27ac7693df,2022-05-11_20h55.31.344,classification_task,2021.2.3,Win32,59.72645285,627c6715c52fd12f31907bcf,,,,,,,,,,,,,,,,,,,,,,,,,,,,,,,,,,,,,,,0, ,,0,0,539.9865,0,0,0,0,1,2,1,,,,,,,,,,,,,,,,,,
,613e9c495a04cf491311066a,627c68e057d29f27ac7693df,2022-05-11_20h55.31.344,classification_task,2021.2.3,Win32,59.72645285,627c6715c52fd12f31907bcf,,,,,,,,,,,,,,,,,,,,,,,,,,,,,,,,,,,,,,,1,  ,,0,0.969742063,542.9028,0,0,0,0,1,2,1,,,,,,,,,,,,,,,,,,
,613e9c495a04cf491311066a,627c68e057d29f27ac7693df,2022-05-11_20h55.31.344,classification_task,2021.2.3,Win32,59.72645285,627c6715c52fd12f31907bcf,,,,,,,,,,,,,,,,,,,,,,,,,,,,,,,,,,,,,,,2,  ,,0,4.311067019,547.0275,0,0,0,0,1,2,1,,,,,,,,,,,,,,,,,,
,613e9c495a04cf491311066a,627c68e057d29f27ac7693df,2022-05-11_20h55.31.344,classification_task,2021.2.3,Win32,59.72645285,627c6715c52fd12f31907bcf,,,,,,,,,,,,,,,,,,,,,,,,,,,,,,,,,,,,,,,,,,,,,0,0,0,0,1,,1,,,,,,,,,,,,,,,,,,
,613e9c495a04cf491311066a,627c68e057d29f27ac7693df,2022-05-11_20h55.31.344,classification_task,2021.2.3,Win32,59.72645285,627c6715c52fd12f31907bcf,,,,,,,,,,,,,,,,,,,,,space,24.3852,l,0,3.7656,"[""0.280"",""0.367"",""0.440"",""0.910""]","[1,1,0,1]",0,0,0,0,1,0,0,,,1,FALSE,,,,,,,,,,,,,,,,,,,,,,,,,,,,,,,
,613e9c495a04cf491311066a,627c68e057d29f27ac7693df,2022-05-11_20h55.31.344,classification_task,2021.2.3,Win32,59.72645285,627c6715c52fd12f31907bcf,,,,,,,,,,,,,,,,,,,,,,,a,1,4.0862,"[""0.665"",""0.549"",""0.614"",""0.966""]","[0,1,1,1]",0,1,1,1,1,0,1,,,1,FALSE,,,,,,,,,,,,,,,,,,,,,,,,,,,,,,,
,613e9c495a04cf491311066a,627c68e057d29f27ac7693df,2022-05-11_20h55.31.344,classification_task,2021.2.3,Win32,59.72645285,627c6715c52fd12f31907bcf,,,,,,,,,,,,,,,,,,,,,,,a,1,0.7445,"[""0.325"",""0.549"",""0.614"",""0.657""]","[1,1,1,0]",0,2,2,2,1,0,1,,,1,FALSE,,,,,,,,,,,,,,,,,,,,,,,,,,,,,,,
,613e9c495a04cf491311066a,627c68e057d29f27ac7693df,2022-05-11_20h55.31.344,classification_task,2021.2.3,Win32,59.72645285,627c6715c52fd12f31907bcf,,,,,,,,,,,,,,,,,,,,,,,l,1,1.133,"[""0.050"",""0.404"",""0.475"",""0.244""]","[1,1,1,0]",0,3,3,3,1,1,0,,,1,FALSE,,,,,,,,,,,,,,,,,,,,,,,,,,,,,,,
,613e9c495a04cf491311066a,627c68e057d29f27ac7693df,2022-05-11_20h55.31.344,classification_task,2021.2.3,Win32,59.72645285,627c6715c52fd12f31907bcf,,,,,,,,,,,,,,,,,,,,,,,l,1,0.812,"[""0.106"",""0.191"",""0.672"",""0.742""]","[1,1,0,1]",0,4,4,4,1,1,1,,,1,FALSE,,,,,,,,,,,,,,,,,,,,,,,,,,,,,,,
,613e9c495a04cf491311066a,627c68e057d29f27ac7693df,2022-05-11_20h55.31.344,classification_task,2021.2.3,Win32,59.72645285,627c6715c52fd12f31907bcf,,,,,,,,,,,,,,,,,,,,,,,a,1,0.652,"[""0.325"",""0.665"",""0.614"",""0.966""]","[1,0,1,1]",0,5,5,5,1,0,1,,,1,FALSE,,,,,,,,,,,,,,,,,,,,,,,,,,,,,,,
,613e9c495a04cf491311066a,627c68e057d29f27ac7693df,2022-05-11_20h55.31.344,classification_task,2021.2.3,Win32,59.72645285,627c6715c52fd12f31907bcf,,,,,,,,,,,,,,,,,,,,,,,l,0,1.0458,"[""0.280"",""0.367"",""0.862"",""0.234""]","[1,1,1,0]",0,6,6,6,1,0,0,,,1,FALSE,,,,,,,,,,,,,,,,,,,,,,,,,,,,,,,
,613e9c495a04cf491311066a,627c68e057d29f27ac7693df,2022-05-11_20h55.31.344,classification_task,2021.2.3,Win32,59.72645285,627c6715c52fd12f31907bcf,,,,,,,,,,,,,,,,,,,,,,,l,0,1.4464,"[""0.663"",""0.367"",""0.862"",""0.910""]","[0,1,1,1]",0,7,7,7,1,0,0,,,1,FALSE,,,,,,,,,,,,,,,,,,,,,,,,,,,,,,,
,613e9c495a04cf491311066a,627c68e057d29f27ac7693df,2022-05-11_20h55.31.344,classification_task,2021.2.3,Win32,59.72645285,627c6715c52fd12f31907bcf,,,,,,,,,,,,,,,,,,,,,,,a,1,0.8784,"[""0.325"",""0.549"",""0.143"",""0.966""]","[1,1,0,1]",0,8,8,8,1,0,1,,,1,FALSE,,,,,,,,,,,,,,,,,,,,,,,,,,,,,,,
,613e9c495a04cf491311066a,627c68e057d29f27ac7693df,2022-05-11_20h55.31.344,classification_task,2021.2.3,Win32,59.72645285,627c6715c52fd12f31907bcf,,,,,,,,,,,,,,,,,,,,,,,a,0,1.696,"[""0.050"",""0.404"",""0.802"",""0.707""]","[1,1,0,1]",0,9,9,9,1,1,0,,,1,FALSE,,,,,,,,,,,,,,,,,,,,,,,,,,,,,,,
,613e9c495a04cf491311066a,627c68e057d29f27ac7693df,2022-05-11_20h55.31.344,classification_task,2021.2.3,Win32,59.72645285,627c6715c52fd12f31907bcf,,,,,,,,,,,,,,,,,,,,,,,a,0,1.1098,"[""0.657"",""0.404"",""0.475"",""0.707""]","[0,1,1,1]",0,10,10,10,1,1,0,,,1,FALSE,,,,,,,,,,,,,,,,,,,,,,,,,,,,,,,
,613e9c495a04cf491311066a,627c68e057d29f27ac7693df,2022-05-11_20h55.31.344,classification_task,2021.2.3,Win32,59.72645285,627c6715c52fd12f31907bcf,,,,,,,,,,,,,,,,,,,,,,,l,1,0.9323,"[""0.106"",""0.191"",""0.514"",""0.143""]","[1,1,1,0]",0,11,11,11,1,1,1,,,1,FALSE,,,,,,,,,,,,,,,,,,,,,,,,,,,,,,,
,613e9c495a04cf491311066a,627c68e057d29f27ac7693df,2022-05-11_20h55.31.344,classification_task,2021.2.3,Win32,59.72645285,627c6715c52fd12f31907bcf,,,,,,,,,,,,,,,,,,,,,,,l,1,0.8794,"[""0.234"",""0.191"",""0.514"",""0.742""]","[0,1,1,1]",0,12,12,12,1,1,1,,,1,FALSE,,,,,,,,,,,,,,,,,,,,,,,,,,,,,,,
,613e9c495a04cf491311066a,627c68e057d29f27ac7693df,2022-05-11_20h55.31.344,classification_task,2021.2.3,Win32,59.72645285,627c6715c52fd12f31907bcf,,,,,,,,,,,,,,,,,,,,,,,a,1,1.2633,"[""0.280"",""0.246"",""0.862"",""0.910""]","[1,0,1,1]",0,13,13,13,1,0,0,,,1,FALSE,,,,,,,,,,,,,,,,,,,,,,,,,,,,,,,
,613e9c495a04cf491311066a,627c68e057d29f27ac7693df,2022-05-11_20h55.31.344,classification_task,2021.2.3,Win32,59.72645285,627c6715c52fd12f31907bcf,,,,,,,,,,,,,,,,,,,,,,,l,1,1.9806,"[""0.050"",""0.665"",""0.475"",""0.707""]","[1,0,1,1]",0,14,14,14,1,1,0,,,1,FALSE,,,,,,,,,,,,,,,,,,,,,,,,,,,,,,,
,613e9c495a04cf491311066a,627c68e057d29f27ac7693df,2022-05-11_20h55.31.344,classification_task,2021.2.3,Win32,59.72645285,627c6715c52fd12f31907bcf,,,,,,,,,,,,,,,,,,,,,,,l,1,0.805,"[""0.106"",""0.820"",""0.514"",""0.742""]","[1,0,1,1]",0,15,15,15,1,1,1,,,1,FALSE,,,,,,,,,,,,,,,,,,,,,,,,,,,,,,,
,613e9c495a04cf491311066a,627c68e057d29f27ac7693df,2022-05-11_20h55.31.344,classification_task,2021.2.3,Win32,59.72645285,627c6715c52fd12f31907bcf,,,,,,,,,,,,,,,,,,,,,,,l,1,0.7001,"[""0.828"",""0.191"",""0.514"",""0.742""]","[0,1,1,1]",0,16,16,16,1,1,1,,,1,FALSE,,,,,,,,,,,,,,,,,,,,,,,,,,,,,,,
,613e9c495a04cf491311066a,627c68e057d29f27ac7693df,2022-05-11_20h55.31.344,classification_task,2021.2.3,Win32,59.72645285,627c6715c52fd12f31907bcf,,,,,,,,,,,,,,,,,,,,,,,l,1,1.0788,"[""0.050"",""0.404"",""0.793"",""0.707""]","[1,1,0,1]",0,17,17,17,1,1,0,,,1,FALSE,,,,,,,,,,,,,,,,,,,,,,,,,,,,,,,
,613e9c495a04cf491311066a,627c68e057d29f27ac7693df,2022-05-11_20h55.31.344,classification_task,2021.2.3,Win32,59.72645285,627c6715c52fd12f31907bcf,,,,,,,,,,,,,,,,,,,,,,,a,1,1.0798,"[""0.325"",""0.665"",""0.614"",""0.966""]","[1,0,1,1]",0,18,18,18,1,0,1,,,1,FALSE,,,,,,,,,,,,,,,,,,,,,,,,,,,,,,,
,613e9c495a04cf491311066a,627c68e057d29f27ac7693df,2022-05-11_20h55.31.344,classification_task,2021.2.3,Win32,59.72645285,627c6715c52fd12f31907bcf,,,,,,,,,,,,,,,,,,,,,,,l,1,1.3309,"[""0.106"",""0.191"",""0.514"",""0.246""]","[1,1,1,0]",0,19,19,19,1,1,1,,,1,FALSE,,,,,,,,,,,,,,,,,,,,,,,,,,,,,,,
,613e9c495a04cf491311066a,627c68e057d29f27ac7693df,2022-05-11_20h55.31.344,classification_task,2021.2.3,Win32,59.72645285,627c6715c52fd12f31907bcf,,,,,,,,,,,,,,,,,,,,,,,l,1,1.3633,"[""0.820"",""0.404"",""0.475"",""0.707""]","[0,1,1,1]",0,20,20,20,1,1,0,,,1,FALSE,,,,,,,,,,,,,,,,,,,,,,,,,,,,,,,
,613e9c495a04cf491311066a,627c68e057d29f27ac7693df,2022-05-11_20h55.31.344,classification_task,2021.2.3,Win32,59.72645285,627c6715c52fd12f31907bcf,,,,,,,,,,,,,,,,,,,,,,,l,1,0.7577,"[""0.050"",""0.404"",""0.475"",""0.245""]","[1,1,1,0]",0,21,21,21,1,1,0,,,1,FALSE,,,,,,,,,,,,,,,,,,,,,,,,,,,,,,,
,613e9c495a04cf491311066a,627c68e057d29f27ac7693df,2022-05-11_20h55.31.344,classification_task,2021.2.3,Win32,59.72645285,627c6715c52fd12f31907bcf,,,,,,,,,,,,,,,,,,,,,,,a,0,0.9464,"[""0.050"",""0.663"",""0.475"",""0.707""]","[1,0,1,1]",0,22,22,22,1,1,0,,,1,FALSE,,,,,,,,,,,,,,,,,,,,,,,,,,,,,,,
,613e9c495a04cf491311066a,627c68e057d29f27ac7693df,2022-05-11_20h55.31.344,classification_task,2021.2.3,Win32,59.72645285,627c6715c52fd12f31907bcf,,,,,,,,,,,,,,,,,,,,,,,a,1,0.708,"[""0.280"",""0.367"",""0.245"",""0.910""]","[1,1,0,1]",0,23,23,23,1,0,0,,,1,FALSE,,,,,,,,,,,,,,,,,,,,,,,,,,,,,,,
,613e9c495a04cf491311066a,627c68e057d29f27ac7693df,2022-05-11_20h55.31.344,classification_task,2021.2.3,Win32,59.72645285,627c6715c52fd12f31907bcf,,,,,,,,,,,,,,,,,,,,,,,a,1,0.8961,"[""0.280"",""0.367"",""0.862"",""0.665""]","[1,1,1,0]",0,24,24,24,1,0,0,,,1,FALSE,,,,,,,,,,,,,,,,,,,,,,,,,,,,,,,
,613e9c495a04cf491311066a,627c68e057d29f27ac7693df,2022-05-11_20h55.31.344,classification_task,2021.2.3,Win32,59.72645285,627c6715c52fd12f31907bcf,,,,,,,,,,,,,,,,,,,,,,,a,1,0.7607,"[""0.440"",""0.367"",""0.862"",""0.910""]","[0,1,1,1]",0,25,25,25,1,0,0,,,1,FALSE,,,,,,,,,,,,,,,,,,,,,,,,,,,,,,,
,613e9c495a04cf491311066a,627c68e057d29f27ac7693df,2022-05-11_20h55.31.344,classification_task,2021.2.3,Win32,59.72645285,627c6715c52fd12f31907bcf,,,,,,,,,,,,,,,,,,,,,,,a,1,0.8981,"[""0.280"",""0.663"",""0.862"",""0.910""]","[1,0,1,1]",0,26,26,26,1,0,0,,,1,FALSE,,,,,,,,,,,,,,,,,,,,,,,,,,,,,,,
,613e9c495a04cf491311066a,627c68e057d29f27ac7693df,2022-05-11_20h55.31.344,classification_task,2021.2.3,Win32,59.72645285,627c6715c52fd12f31907bcf,,,,,,,,,,,,,,,,,,,,,,,l,1,1.5927,"[""0.106"",""0.191"",""0.663"",""0.742""]","[1,1,0,1]",0,27,27,27,1,1,1,,,1,FALSE,,,,,,,,,,,,,,,,,,,,,,,,,,,,,,,
,613e9c495a04cf491311066a,627c68e057d29f27ac7693df,2022-05-11_20h55.31.344,classification_task,2021.2.3,Win32,59.72645285,627c6715c52fd12f31907bcf,,,,,,,,,,,,,,,,,,,,,,,l,1,0.4737,"[""0.106"",""0.143"",""0.514"",""0.742""]","[1,0,1,1]",0,28,28,28,1,1,1,,,1,FALSE,,,,,,,,,,,,,,,,,,,,,,,,,,,,,,,
,613e9c495a04cf491311066a,627c68e057d29f27ac7693df,2022-05-11_20h55.31.344,classification_task,2021.2.3,Win32,59.72645285,627c6715c52fd12f31907bcf,,,,,,,,,,,,,,,,,,,,,,,a,1,0.5318,"[""0.325"",""0.549"",""0.614"",""0.663""]","[1,1,1,0]",0,29,29,29,1,0,1,,,1,FALSE,,,,,,,,,,,,,,,,,,,,,,,,,,,,,,,
,613e9c495a04cf491311066a,627c68e057d29f27ac7693df,2022-05-11_20h55.31.344,classification_task,2021.2.3,Win32,59.72645285,627c6715c52fd12f31907bcf,,,,,,,,,,,,,,,,,,,,,,,a,1,0.6784,"[""0.325"",""0.549"",""0.672"",""0.966""]","[1,1,0,1]",0,30,30,30,1,0,1,,,1,FALSE,,,,,,,,,,,,,,,,,,,,,,,,,,,,,,,
,613e9c495a04cf491311066a,627c68e057d29f27ac7693df,2022-05-11_20h55.31.344,classification_task,2021.2.3,Win32,59.72645285,627c6715c52fd12f31907bcf,,,,,,,,,,,,,,,,,,,,,,,a,1,0.6136,"[""0.146"",""0.549"",""0.614"",""0.966""]","[0,1,1,1]",0,31,31,31,1,0,1,,,1,FALSE,,,,,,,,,,,,,,,,,,,,,,,,,,,,,,,
,613e9c495a04cf491311066a,627c68e057d29f27ac7693df,2022-05-11_20h55.31.344,classification_task,2021.2.3,Win32,59.72645285,627c6715c52fd12f31907bcf,,,,,,,,,,,,,,,,,,,,,,,l,1,1.8493,"[""0.050"",""0.404"",""0.793"",""0.707""]","[1,1,0,1]",0,32,32,32,1,1,0,,,1,FALSE,,,,,,,,,,,,,,,,,,,,,,,,,,,,,,,
,613e9c495a04cf491311066a,627c68e057d29f27ac7693df,2022-05-11_20h55.31.344,classification_task,2021.2.3,Win32,59.72645285,627c6715c52fd12f31907bcf,,,,,,,,,,,,,,,,,,,,,,,a,1,0.8285,"[""0.280"",""0.367"",""0.862"",""0.440""]","[1,1,1,0]",0,33,33,33,1,0,0,,,1,FALSE,,,,,,,,,,,,,,,,,,,,,,,,,,,,,,,
,613e9c495a04cf491311066a,627c68e057d29f27ac7693df,2022-05-11_20h55.31.344,classification_task,2021.2.3,Win32,59.72645285,627c6715c52fd12f31907bcf,,,,,,,,,,,,,,,,,,,,,,,a,1,1.1276,"[""0.325"",""0.657"",""0.614"",""0.966""]","[1,0,1,1]",0,34,34,34,1,0,1,,,1,FALSE,,,,,,,,,,,,,,,,,,,,,,,,,,,,,,,
,613e9c495a04cf491311066a,627c68e057d29f27ac7693df,2022-05-11_20h55.31.344,classification_task,2021.2.3,Win32,59.72645285,627c6715c52fd12f31907bcf,,,,,,,,,,,,,,,,,,,,,,,l,1,0.7653,"[""0.793"",""0.191"",""0.514"",""0.742""]","[0,1,1,1]",0,35,35,35,1,1,1,,,1,FALSE,,,,,,,,,,,,,,,,,,,,,,,,,,,,,,,
,613e9c495a04cf491311066a,627c68e057d29f27ac7693df,2022-05-11_20h55.31.344,classification_task,2021.2.3,Win32,59.72645285,627c6715c52fd12f31907bcf,,,,,,,,,,,,,,,,,,,,,,,l,1,0.7413,"[""0.106"",""0.191"",""0.246"",""0.742""]","[1,1,0,1]",0,36,36,36,1,1,1,,,1,FALSE,,,,,,,,,,,,,,,,,,,,,,,,,,,,,,,
,613e9c495a04cf491311066a,627c68e057d29f27ac7693df,2022-05-11_20h55.31.344,classification_task,2021.2.3,Win32,59.72645285,627c6715c52fd12f31907bcf,,,,,,,,,,,,,,,,,,,,,,,a,1,0.7131,"[""0.811"",""0.549"",""0.614"",""0.966""]","[0,1,1,1]",0,37,37,37,1,0,1,,,1,FALSE,,,,,,,,,,,,,,,,,,,,,,,,,,,,,,,
,613e9c495a04cf491311066a,627c68e057d29f27ac7693df,2022-05-11_20h55.31.344,classification_task,2021.2.3,Win32,59.72645285,627c6715c52fd12f31907bcf,,,,,,,,,,,,,,,,,,,,,,,l,1,0.9503,"[""0.106"",""0.440"",""0.514"",""0.742""]","[1,0,1,1]",0,38,38,38,1,1,1,,,1,FALSE,,,,,,,,,,,,,,,,,,,,,,,,,,,,,,,
,613e9c495a04cf491311066a,627c68e057d29f27ac7693df,2022-05-11_20h55.31.344,classification_task,2021.2.3,Win32,59.72645285,627c6715c52fd12f31907bcf,,,,,,,,,,,,,,,,,,,,,,,a,0,0.7488,"[""0.050"",""0.404"",""0.475"",""0.793""]","[1,1,1,0]",0,39,39,39,1,1,0,,,1,FALSE,,,,,,,,,,,,,,,,,,,,,,,,,,,,,,,
,613e9c495a04cf491311066a,627c68e057d29f27ac7693df,2022-05-11_20h55.31.344,classification_task,2021.2.3,Win32,59.72645285,627c6715c52fd12f31907bcf,,,,,,,,,,,,,,,,,,,,,,,a,1,1.3986,"[""0.325"",""0.549"",""0.811"",""0.966""]","[1,1,0,1]",0,40,40,40,1,0,1,,,1,FALSE,,,,,,,,,,,,,,,,,,,,,,,,,,,,,,,
,613e9c495a04cf491311066a,627c68e057d29f27ac7693df,2022-05-11_20h55.31.344,classification_task,2021.2.3,Win32,59.72645285,627c6715c52fd12f31907bcf,,,,,,,,,,,,,,,,,,,,,,,l,0,1.6936,"[""0.802"",""0.367"",""0.862"",""0.910""]","[0,1,1,1]",0,41,41,41,1,0,0,,,1,FALSE,,,,,,,,,,,,,,,,,,,,,,,,,,,,,,,
,613e9c495a04cf491311066a,627c68e057d29f27ac7693df,2022-05-11_20h55.31.344,classification_task,2021.2.3,Win32,59.72645285,627c6715c52fd12f31907bcf,,,,,,,,,,,,,,,,,,,,,,,l,1,0.6174,"[""0.106"",""0.191"",""0.514"",""0.793""]","[1,1,1,0]",0,42,42,42,1,1,1,,,1,FALSE,,,,,,,,,,,,,,,,,,,,,,,,,,,,,,,
,613e9c495a04cf491311066a,627c68e057d29f27ac7693df,2022-05-11_20h55.31.344,classification_task,2021.2.3,Win32,59.72645285,627c6715c52fd12f31907bcf,,,,,,,,,,,,,,,,,,,,,,,l,1,0.6469,"[""0.802"",""0.404"",""0.475"",""0.707""]","[0,1,1,1]",0,43,43,43,1,1,0,,,1,FALSE,,,,,,,,,,,,,,,,,,,,,,,,,,,,,,,
,613e9c495a04cf491311066a,627c68e057d29f27ac7693df,2022-05-11_20h55.31.344,classification_task,2021.2.3,Win32,59.72645285,627c6715c52fd12f31907bcf,,,,,,,,,,,,,,,,,,,,,,,a,1,0.7323,"[""0.325"",""0.549"",""0.614"",""0.234""]","[1,1,1,0]",0,44,44,44,1,0,1,,,1,FALSE,,,,,,,,,,,,,,,,,,,,,,,,,,,,,,,
,613e9c495a04cf491311066a,627c68e057d29f27ac7693df,2022-05-11_20h55.31.344,classification_task,2021.2.3,Win32,59.72645285,627c6715c52fd12f31907bcf,,,,,,,,,,,,,,,,,,,,,,,a,0,0.691,"[""0.050"",""0.665"",""0.475"",""0.707""]","[1,0,1,1]",0,45,45,45,1,1,0,,,1,FALSE,,,,,,,,,,,,,,,,,,,,,,,,,,,,,,,
,613e9c495a04cf491311066a,627c68e057d29f27ac7693df,2022-05-11_20h55.31.344,classification_task,2021.2.3,Win32,59.72645285,627c6715c52fd12f31907bcf,,,,,,,,,,,,,,,,,,,,,,,l,0,0.8997,"[""0.280"",""0.663"",""0.862"",""0.910""]","[1,0,1,1]",0,46,46,46,1,0,0,,,1,FALSE,,,,,,,,,,,,,,,,,,,,,,,,,,,,,,,
,613e9c495a04cf491311066a,627c68e057d29f27ac7693df,2022-05-11_20h55.31.344,classification_task,2021.2.3,Win32,59.72645285,627c6715c52fd12f31907bcf,,,,,,,,,,,,,,,,,,,,,,,a,1,1.148,"[""0.280"",""0.367"",""0.146"",""0.910""]","[1,1,0,1]",0,47,47,47,1,0,0,,,1,FALSE,,,,,,,,,,,,,,,,,,,,,,,,,,,,,,,
,613e9c495a04cf491311066a,627c68e057d29f27ac7693df,2022-05-11_20h55.31.344,classification_task,2021.2.3,Win32,59.72645285,627c6715c52fd12f31907bcf,,,,,,,,,,,,,,,,,,,,,,,l,1,1.8043,"[""0.106"",""0.665"",""0.514"",""0.742""]","[1,0,1,1]",0,48,48,48,1,1,1,,,1,FALSE,,,,,,,,,,,,,,,,,,,,,,,,,,,,,,,
,613e9c495a04cf491311066a,627c68e057d29f27ac7693df,2022-05-11_20h55.31.344,classification_task,2021.2.3,Win32,59.72645285,627c6715c52fd12f31907bcf,,,,,,,,,,,,,,,,,,,,,,,a,1,0.9486,"[""0.802"",""0.367"",""0.862"",""0.910""]","[0,1,1,1]",0,49,49,49,1,0,0,,,1,FALSE,,,,,,,,,,,,,,,,,,,,,,,,,,,,,,,
,613e9c495a04cf491311066a,627c68e057d29f27ac7693df,2022-05-11_20h55.31.344,classification_task,2021.2.3,Win32,59.72645285,627c6715c52fd12f31907bcf,,,,,,,,,,,,,,,,,,,,,,,a,1,1.3307,"[""0.325"",""0.549"",""0.234"",""0.966""]","[1,1,0,1]",0,50,50,50,1,0,1,,,1,FALSE,,,,,,,,,,,,,,,,,,,,,,,,,,,,,,,
,613e9c495a04cf491311066a,627c68e057d29f27ac7693df,2022-05-11_20h55.31.344,classification_task,2021.2.3,Win32,59.72645285,627c6715c52fd12f31907bcf,,,,,,,,,,,,,,,,,,,,,,,a,0,0.9458,"[""0.245"",""0.404"",""0.475"",""0.707""]","[0,1,1,1]",0,51,51,51,1,1,0,,,1,FALSE,,,,,,,,,,,,,,,,,,,,,,,,,,,,,,,
,613e9c495a04cf491311066a,627c68e057d29f27ac7693df,2022-05-11_20h55.31.344,classification_task,2021.2.3,Win32,59.72645285,627c6715c52fd12f31907bcf,,,,,,,,,,,,,,,,,,,,,,,l,1,1.2808,"[""0.234"",""0.191"",""0.514"",""0.742""]","[0,1,1,1]",0,52,52,52,1,1,1,,,1,FALSE,,,,,,,,,,,,,,,,,,,,,,,,,,,,,,,
,613e9c495a04cf491311066a,627c68e057d29f27ac7693df,2022-05-11_20h55.31.344,classification_task,2021.2.3,Win32,59.72645285,627c6715c52fd12f31907bcf,,,,,,,,,,,,,,,,,,,,,,,a,1,0.8064,"[""0.280"",""0.367"",""0.820"",""0.910""]","[1,1,0,1]",0,53,53,53,1,0,0,,,1,FALSE,,,,,,,,,,,,,,,,,,,,,,,,,,,,,,,
,613e9c495a04cf491311066a,627c68e057d29f27ac7693df,2022-05-11_20h55.31.344,classification_task,2021.2.3,Win32,59.72645285,627c6715c52fd12f31907bcf,,,,,,,,,,,,,,,,,,,,,,,l,1,0.9783,"[""0.106"",""0.191"",""0.143"",""0.742""]","[1,1,0,1]",0,54,54,54,1,1,1,,,1,FALSE,,,,,,,,,,,,,,,,,,,,,,,,,,,,,,,
,613e9c495a04cf491311066a,627c68e057d29f27ac7693df,2022-05-11_20h55.31.344,classification_task,2021.2.3,Win32,59.72645285,627c6715c52fd12f31907bcf,,,,,,,,,,,,,,,,,,,,,,,l,1,1.8449,"[""0.050"",""0.246"",""0.475"",""0.707""]","[1,0,1,1]",0,55,55,55,1,1,0,,,1,FALSE,,,,,,,,,,,,,,,,,,,,,,,,,,,,,,,
,613e9c495a04cf491311066a,627c68e057d29f27ac7693df,2022-05-11_20h55.31.344,classification_task,2021.2.3,Win32,59.72645285,627c6715c52fd12f31907bcf,,,,,,,,,,,,,,,,,,,,,,,a,1,0.7719,"[""0.234"",""0.549"",""0.614"",""0.966""]","[0,1,1,1]",0,56,56,56,1,0,1,,,1,FALSE,,,,,,,,,,,,,,,,,,,,,,,,,,,,,,,
,613e9c495a04cf491311066a,627c68e057d29f27ac7693df,2022-05-11_20h55.31.344,classification_task,2021.2.3,Win32,59.72645285,627c6715c52fd12f31907bcf,,,,,,,,,,,,,,,,,,,,,,,a,1,1.1772,"[""0.325"",""0.244"",""0.614"",""0.966""]","[1,0,1,1]",0,57,57,57,1,0,1,,,1,FALSE,,,,,,,,,,,,,,,,,,,,,,,,,,,,,,,
,613e9c495a04cf491311066a,627c68e057d29f27ac7693df,2022-05-11_20h55.31.344,classification_task,2021.2.3,Win32,59.72645285,627c6715c52fd12f31907bcf,,,,,,,,,,,,,,,,,,,,,,,l,0,1.3476,"[""0.280"",""0.367"",""0.862"",""0.665""]","[1,1,1,0]",0,58,58,58,1,0,0,,,1,FALSE,,,,,,,,,,,,,,,,,,,,,,,,,,,,,,,
,613e9c495a04cf491311066a,627c68e057d29f27ac7693df,2022-05-11_20h55.31.344,classification_task,2021.2.3,Win32,59.72645285,627c6715c52fd12f31907bcf,,,,,,,,,,,,,,,,,,,,,,,a,1,0.7758,"[""0.325"",""0.549"",""0.614"",""0.143""]","[1,1,1,0]",0,59,59,59,1,0,1,,,1,FALSE,,,,,,,,,,,,,,,,,,,,,,,,,,,,,,,
,613e9c495a04cf491311066a,627c68e057d29f27ac7693df,2022-05-11_20h55.31.344,classification_task,2021.2.3,Win32,59.72645285,627c6715c52fd12f31907bcf,,,,,,,,,,,,,,,,,,,,,,,a,1,1.7628,"[""0.280"",""0.820"",""0.862"",""0.910""]","[1,0,1,1]",0,60,60,60,1,0,0,,,1,FALSE,,,,,,,,,,,,,,,,,,,,,,,,,,,,,,,
,613e9c495a04cf491311066a,627c68e057d29f27ac7693df,2022-05-11_20h55.31.344,classification_task,2021.2.3,Win32,59.72645285,627c6715c52fd12f31907bcf,,,,,,,,,,,,,,,,,,,,,,,a,0,1.5163,"[""0.050"",""0.404"",""0.793"",""0.707""]","[1,1,0,1]",0,61,61,61,1,1,0,,,1,FALSE,,,,,,,,,,,,,,,,,,,,,,,,,,,,,,,
,613e9c495a04cf491311066a,627c68e057d29f27ac7693df,2022-05-11_20h55.31.344,classification_task,2021.2.3,Win32,59.72645285,627c6715c52fd12f31907bcf,,,,,,,,,,,,,,,,,,,,,,,l,1,0.9811,"[""0.050"",""0.404"",""0.475"",""0.811""]","[1,1,1,0]",0,62,62,62,1,1,0,,,1,FALSE,,,,,,,,,,,,,,,,,,,,,,,,,,,,,,,
,613e9c495a04cf491311066a,627c68e057d29f27ac7693df,2022-05-11_20h55.31.344,classification_task,2021.2.3,Win32,59.72645285,627c6715c52fd12f31907bcf,,,,,,,,,,,,,,,,,,,,,,,l,1,0.8889,"[""0.106"",""0.191"",""0.514"",""0.246""]","[1,1,1,0]",0,63,63,63,1,1,1,,,1,FALSE,,,,,,,,,,,,,,,,,,,,,,,,,,,,,,,
,613e9c495a04cf491311066a,627c68e057d29f27ac7693df,2022-05-11_20h55.31.344,classification_task,2021.2.3,Win32,59.72645285,627c6715c52fd12f31907bcf,,,,,,,,,,,,,,,,,,,,,,,,,,,,,,,,,,,,,,,0, ,,0,0,177.4101,0,1,1,1,1,2,2,,,,,,,,,,,,,,,,,,
,613e9c495a04cf491311066a,627c68e057d29f27ac7693df,2022-05-11_20h55.31.344,classification_task,2021.2.3,Win32,59.72645285,627c6715c52fd12f31907bcf,,,,,,,,,,,,,,,,,,,,,,,,,,,,,,,,,,,,,,,1,  ,,0,8.54800485,183.9615,0,1,1,1,1,2,2,,,,,,,,,,,,,,,,,,
,613e9c495a04cf491311066a,627c68e057d29f27ac7693df,2022-05-11_20h55.31.344,classification_task,2021.2.3,Win32,59.72645285,627c6715c52fd12f31907bcf,,,,,,,,,,,,,,,,,,,,,,,,,,,,,,,,,,,,,,,2,  ,,0,4.242173721,195.6438,0,1,1,1,1,2,2,,,,,,,,,,,,,,,,,,
,613e9c495a04cf491311066a,627c68e057d29f27ac7693df,2022-05-11_20h55.31.344,classification_task,2021.2.3,Win32,59.72645285,627c6715c52fd12f31907bcf,,,,,,,,,,,,,,,,,,,,,,,,,,,,,,,,,,,,,,,,,,,,,0,1,1,1,1,,2,,,,,,,,,,,,,,,,,,
,613e9c495a04cf491311066a,627c68e057d29f27ac7693df,2022-05-11_20h55.31.344,classification_task,2021.2.3,Win32,59.72645285,627c6715c52fd12f31907bcf,,,,,,,,,,,,,,,,,,,,,space,67.4706,a,1,3.712,"[""0.280"",""0.440"",""0.862"",""0.910""]","[1,0,1,1]",0,0,0,0,1,0,0,,,1,FALSE,,,,,,,,,,,,,,,,,,,,,,,,,,,,,,,
,613e9c495a04cf491311066a,627c68e057d29f27ac7693df,2022-05-11_20h55.31.344,classification_task,2021.2.3,Win32,59.72645285,627c6715c52fd12f31907bcf,,,,,,,,,,,,,,,,,,,,,,,a,0,2.4366,"[""0.050"",""0.404"",""0.440"",""0.707""]","[1,1,0,1]",0,1,1,1,1,1,0,,,1,FALSE,,,,,,,,,,,,,,,,,,,,,,,,,,,,,,,
,613e9c495a04cf491311066a,627c68e057d29f27ac7693df,2022-05-11_20h55.31.344,classification_task,2021.2.3,Win32,59.72645285,627c6715c52fd12f31907bcf,,,,,,,,,,,,,,,,,,,,,,,l,0,1.988,"[""0.280"",""0.367"",""0.862"",""0.657""]","[1,1,1,0]",0,2,2,2,1,0,0,,,1,FALSE,,,,,,,,,,,,,,,,,,,,,,,,,,,,,,,
,613e9c495a04cf491311066a,627c68e057d29f27ac7693df,2022-05-11_20h55.31.344,classification_task,2021.2.3,Win32,59.72645285,627c6715c52fd12f31907bcf,,,,,,,,,,,,,,,,,,,,,,,l,1,2.602,"[""0.106"",""0.191"",""0.514"",""0.143""]","[1,1,1,0]",0,3,3,3,1,1,1,,,1,FALSE,,,,,,,,,,,,,,,,,,,,,,,,,,,,,,,
,613e9c495a04cf491311066a,627c68e057d29f27ac7693df,2022-05-11_20h55.31.344,classification_task,2021.2.3,Win32,59.72645285,627c6715c52fd12f31907bcf,,,,,,,,,,,,,,,,,,,,,,,a,0,1.2551,"[""0.050"",""0.404"",""0.475"",""0.657""]","[1,1,1,0]",0,4,4,4,1,1,0,,,1,FALSE,,,,,,,,,,,,,,,,,,,,,,,,,,,,,,,
,613e9c495a04cf491311066a,627c68e057d29f27ac7693df,2022-05-11_20h55.31.344,classification_task,2021.2.3,Win32,59.72645285,627c6715c52fd12f31907bcf,,,,,,,,,,,,,,,,,,,,,,,a,1,2.016,"[""0.820"",""0.549"",""0.614"",""0.966""]","[0,1,1,1]",0,5,5,5,1,0,1,,,1,FALSE,,,,,,,,,,,,,,,,,,,,,,,,,,,,,,,
,613e9c495a04cf491311066a,627c68e057d29f27ac7693df,2022-05-11_20h55.31.344,classification_task,2021.2.3,Win32,59.72645285,627c6715c52fd12f31907bcf,,,,,,,,,,,,,,,,,,,,,,,a,1,0.856,"[""0.325"",""0.549"",""0.614"",""0.828""]","[1,1,1,0]",0,6,6,6,1,0,1,,,1,FALSE,,,,,,,,,,,,,,,,,,,,,,,,,,,,,,,
,613e9c495a04cf491311066a,627c68e057d29f27ac7693df,2022-05-11_20h55.31.344,classification_task,2021.2.3,Win32,59.72645285,627c6715c52fd12f31907bcf,,,,,,,,,,,,,,,,,,,,,,,a,1,2.2038,"[""0.325"",""0.549"",""0.245"",""0.966""]","[1,1,0,1]",0,7,7,7,1,0,1,,,1,FALSE,,,,,,,,,,,,,,,,,,,,,,,,,,,,,,,
,613e9c495a04cf491311066a,627c68e057d29f27ac7693df,2022-05-11_20h55.31.344,classification_task,2021.2.3,Win32,59.72645285,627c6715c52fd12f31907bcf,,,,,,,,,,,,,,,,,,,,,,,a,0,0.8992,"[""0.106"",""0.191"",""0.244"",""0.742""]","[1,1,0,1]",0,8,8,8,1,1,1,,,1,FALSE,,,,,,,,,,,,,,,,,,,,,,,,,,,,,,,
,613e9c495a04cf491311066a,627c68e057d29f27ac7693df,2022-05-11_20h55.31.344,classification_task,2021.2.3,Win32,59.72645285,627c6715c52fd12f31907bcf,,,,,,,,,,,,,,,,,,,,,,,l,0,0.8367,"[""0.325"",""0.143"",""0.614"",""0.966""]","[1,0,1,1]",0,9,9,9,1,0,1,,,1,FALSE,,,,,,,,,,,,,,,,,,,,,,,,,,,,,,,
,613e9c495a04cf491311066a,627c68e057d29f27ac7693df,2022-05-11_20h55.31.344,classification_task,2021.2.3,Win32,59.72645285,627c6715c52fd12f31907bcf,,,,,,,,,,,,,,,,,,,,,,,l,0,4.1198,"[""0.280"",""0.367"",""0.234"",""0.910""]","[1,1,0,1]",0,10,10,10,1,0,0,,,1,FALSE,,,,,,,,,,,,,,,,,,,,,,,,,,,,,,,
,613e9c495a04cf491311066a,627c68e057d29f27ac7693df,2022-05-11_20h55.31.344,classification_task,2021.2.3,Win32,59.72645285,627c6715c52fd12f31907bcf,,,,,,,,,,,,,,,,,,,,,,,a,0,1.8843,"[""0.050"",""0.244"",""0.475"",""0.707""]","[1,0,1,1]",0,11,11,11,1,1,0,,,1,FALSE,,,,,,,,,,,,,,,,,,,,,,,,,,,,,,,
,613e9c495a04cf491311066a,627c68e057d29f27ac7693df,2022-05-11_20h55.31.344,classification_task,2021.2.3,Win32,59.72645285,627c6715c52fd12f31907bcf,,,,,,,,,,,,,,,,,,,,,,,a,0,1.1104,"[""0.440"",""0.404"",""0.475"",""0.707""]","[0,1,1,1]",0,12,12,12,1,1,0,,,1,FALSE,,,,,,,,,,,,,,,,,,,,,,,,,,,,,,,
,613e9c495a04cf491311066a,627c68e057d29f27ac7693df,2022-05-11_20h55.31.344,classification_task,2021.2.3,Win32,59.72645285,627c6715c52fd12f31907bcf,,,,,,,,,,,,,,,,,,,,,,,l,1,1.1718,"[""0.665"",""0.191"",""0.514"",""0.742""]","[0,1,1,1]",0,13,13,13,1,1,1,,,1,FALSE,,,,,,,,,,,,,,,,,,,,,,,,,,,,,,,
,613e9c495a04cf491311066a,627c68e057d29f27ac7693df,2022-05-11_20h55.31.344,classification_task,2021.2.3,Win32,59.72645285,627c6715c52fd12f31907bcf,,,,,,,,,,,,,,,,,,,,,,,l,1,0.8216,"[""0.106"",""0.672"",""0.514"",""0.742""]","[1,0,1,1]",0,14,14,14,1,1,1,,,1,FALSE,,,,,,,,,,,,,,,,,,,,,,,,,,,,,,,
,613e9c495a04cf491311066a,627c68e057d29f27ac7693df,2022-05-11_20h55.31.344,classification_task,2021.2.3,Win32,59.72645285,627c6715c52fd12f31907bcf,,,,,,,,,,,,,,,,,,,,,,,l,0,1.0284,"[""0.245"",""0.367"",""0.862"",""0.910""]","[0,1,1,1]",0,15,15,15,1,0,0,,,1,FALSE,,,,,,,,,,,,,,,,,,,,,,,,,,,,,,,
,613e9c495a04cf491311066a,627c68e057d29f27ac7693df,2022-05-11_20h55.31.344,classification_task,2021.2.3,Win32,59.72645285,627c6715c52fd12f31907bcf,,,,,,,,,,,,,,,,,,,,,,,l,0,1.6549,"[""0.325"",""0.549"",""0.614"",""0.245""]","[1,1,1,0]",0,16,16,16,1,0,1,,,1,FALSE,,,,,,,,,,,,,,,,,,,,,,,,,,,,,,,
,613e9c495a04cf491311066a,627c68e057d29f27ac7693df,2022-05-11_20h55.31.344,classification_task,2021.2.3,Win32,59.72645285,627c6715c52fd12f31907bcf,,,,,,,,,,,,,,,,,,,,,,,a,0,1.1317,"[""0.106"",""0.245"",""0.514"",""0.742""]","[1,0,1,1]",0,17,17,17,1,1,1,,,1,FALSE,,,,,,,,,,,,,,,,,,,,,,,,,,,,,,,
,613e9c495a04cf491311066a,627c68e057d29f27ac7693df,2022-05-11_20h55.31.344,classification_task,2021.2.3,Win32,59.72645285,627c6715c52fd12f31907bcf,,,,,,,,,,,,,,,,,,,,,,,l,0,1.184,"[""0.280"",""0.665"",""0.862"",""0.910""]","[1,0,1,1]",0,18,18,18,1,0,0,,,1,FALSE,,,,,,,,,,,,,,,,,,,,,,,,,,,,,,,
,613e9c495a04cf491311066a,627c68e057d29f27ac7693df,2022-05-11_20h55.31.344,classification_task,2021.2.3,Win32,59.72645285,627c6715c52fd12f31907bcf,,,,,,,,,,,,,,,,,,,,,,,a,1,1.4667,"[""0.280"",""0.367"",""0.820"",""0.910""]","[1,1,0,1]",0,19,19,19,1,0,0,,,1,FALSE,,,,,,,,,,,,,,,,,,,,,,,,,,,,,,,
,613e9c495a04cf491311066a,627c68e057d29f27ac7693df,2022-05-11_20h55.31.344,classification_task,2021.2.3,Win32,59.72645285,627c6715c52fd12f31907bcf,,,,,,,,,,,,,,,,,,,,,,,l,0,1.0493,"[""0.280"",""0.367"",""0.862"",""0.146""]","[1,1,1,0]",0,20,20,20,1,0,0,,,1,FALSE,,,,,,,,,,,,,,,,,,,,,,,,,,,,,,,
,613e9c495a04cf491311066a,627c68e057d29f27ac7693df,2022-05-11_20h55.31.344,classification_task,2021.2.3,Win32,59.72645285,627c6715c52fd12f31907bcf,,,,,,,,,,,,,,,,,,,,,,,a,1,2.3585,"[""0.325"",""0.802"",""0.614"",""0.966""]","[1,0,1,1]",0,21,21,21,1,0,1,,,1,FALSE,,,,,,,,,,,,,,,,,,,,,,,,,,,,,,,
,613e9c495a04cf491311066a,627c68e057d29f27ac7693df,2022-05-11_20h55.31.344,classification_task,2021.2.3,Win32,59.72645285,627c6715c52fd12f31907bcf,,,,,,,,,,,,,,,,,,,,,,,a,0,1.3288,"[""0.050"",""0.404"",""0.244"",""0.707""]","[1,1,0,1]",0,22,22,22,1,1,0,,,1,FALSE,,,,,,,,,,,,,,,,,,,,,,,,,,,,,,,
,613e9c495a04cf491311066a,627c68e057d29f27ac7693df,2022-05-11_20h55.31.344,classification_task,2021.2.3,Win32,59.72645285,627c6715c52fd12f31907bcf,,,,,,,,,,,,,,,,,,,,,,,l,1,1.573,"[""0.811"",""0.191"",""0.514"",""0.742""]","[0,1,1,1]",0,23,23,23,1,1,1,,,1,FALSE,,,,,,,,,,,,,,,,,,,,,,,,,,,,,,,
,613e9c495a04cf491311066a,627c68e057d29f27ac7693df,2022-05-11_20h55.31.344,classification_task,2021.2.3,Win32,59.72645285,627c6715c52fd12f31907bcf,,,,,,,,,,,,,,,,,,,,,,,l,1,1.2997,"[""0.106"",""0.191"",""0.514"",""0.657""]","[1,1,1,0]",0,24,24,24,1,1,1,,,1,FALSE,,,,,,,,,,,,,,,,,,,,,,,,,,,,,,,
,613e9c495a04cf491311066a,627c68e057d29f27ac7693df,2022-05-11_20h55.31.344,classification_task,2021.2.3,Win32,59.72645285,627c6715c52fd12f31907bcf,,,,,,,,,,,,,,,,,,,,,,,a,1,2.2644,"[""0.325"",""0.549"",""0.146"",""0.966""]","[1,1,0,1]",0,25,25,25,1,0,1,,,1,FALSE,,,,,,,,,,,,,,,,,,,,,,,,,,,,,,,
,613e9c495a04cf491311066a,627c68e057d29f27ac7693df,2022-05-11_20h55.31.344,classification_task,2021.2.3,Win32,59.72645285,627c6715c52fd12f31907bcf,,,,,,,,,,,,,,,,,,,,,,,l,1,1.3055,"[""0.050"",""0.234"",""0.475"",""0.707""]","[1,0,1,1]",0,26,26,26,1,1,0,,,1,FALSE,,,,,,,,,,,,,,,,,,,,,,,,,,,,,,,
,613e9c495a04cf491311066a,627c68e057d29f27ac7693df,2022-05-11_20h55.31.344,classification_task,2021.2.3,Win32,59.72645285,627c6715c52fd12f31907bcf,,,,,,,,,,,,,,,,,,,,,,,a,0,2.9312,"[""0.106"",""0.191"",""0.245"",""0.742""]","[1,1,0,1]",0,27,27,27,1,1,1,,,1,FALSE,,,,,,,,,,,,,,,,,,,,,,,,,,,,,,,
,613e9c495a04cf491311066a,627c68e057d29f27ac7693df,2022-05-11_20h55.31.344,classification_task,2021.2.3,Win32,59.72645285,627c6715c52fd12f31907bcf,,,,,,,,,,,,,,,,,,,,,,,l,1,0.847,"[""0.050"",""0.404"",""0.475"",""0.234""]","[1,1,1,0]",0,28,28,28,1,1,0,,,1,FALSE,,,,,,,,,,,,,,,,,,,,,,,,,,,,,,,
,613e9c495a04cf491311066a,627c68e057d29f27ac7693df,2022-05-11_20h55.31.344,classification_task,2021.2.3,Win32,59.72645285,627c6715c52fd12f31907bcf,,,,,,,,,,,,,,,,,,,,,,,a,1,1.6305,"[""0.663"",""0.367"",""0.862"",""0.910""]","[0,1,1,1]",0,29,29,29,1,0,0,,,1,FALSE,,,,,,,,,,,,,,,,,,,,,,,,,,,,,,,
,613e9c495a04cf491311066a,627c68e057d29f27ac7693df,2022-05-11_20h55.31.344,classification_task,2021.2.3,Win32,59.72645285,627c6715c52fd12f31907bcf,,,,,,,,,,,,,,,,,,,,,,,a,0,1.2243,"[""0.657"",""0.404"",""0.475"",""0.707""]","[0,1,1,1]",0,30,30,30,1,1,0,,,1,FALSE,,,,,,,,,,,,,,,,,,,,,,,,,,,,,,,
,613e9c495a04cf491311066a,627c68e057d29f27ac7693df,2022-05-11_20h55.31.344,classification_task,2021.2.3,Win32,59.72645285,627c6715c52fd12f31907bcf,,,,,,,,,,,,,,,,,,,,,,,a,1,1.1952,"[""0.811"",""0.549"",""0.614"",""0.966""]","[0,1,1,1]",0,31,31,31,1,0,1,,,1,FALSE,,,,,,,,,,,,,,,,,,,,,,,,,,,,,,,
,613e9c495a04cf491311066a,627c68e057d29f27ac7693df,2022-05-11_20h55.31.344,classification_task,2021.2.3,Win32,59.72645285,627c6715c52fd12f31907bcf,,,,,,,,,,,,,,,,,,,,,,,l,1,2.6811,"[""0.050"",""0.440"",""0.475"",""0.707""]","[1,0,1,1]",0,32,32,32,1,1,0,,,1,FALSE,,,,,,,,,,,,,,,,,,,,,,,,,,,,,,,
,613e9c495a04cf491311066a,627c68e057d29f27ac7693df,2022-05-11_20h55.31.344,classification_task,2021.2.3,Win32,59.72645285,627c6715c52fd12f31907bcf,,,,,,,,,,,,,,,,,,,,,,,a,1,0.7964,"[""0.143"",""0.549"",""0.614"",""0.966""]","[0,1,1,1]",0,33,33,33,1,0,1,,,1,FALSE,,,,,,,,,,,,,,,,,,,,,,,,,,,,,,,
,613e9c495a04cf491311066a,627c68e057d29f27ac7693df,2022-05-11_20h55.31.344,classification_task,2021.2.3,Win32,59.72645285,627c6715c52fd12f31907bcf,,,,,,,,,,,,,,,,,,,,,,,a,0,0.8626,"[""0.050"",""0.404"",""0.475"",""0.811""]","[1,1,1,0]",0,34,34,34,1,1,0,,,1,FALSE,,,,,,,,,,,,,,,,,,,,,,,,,,,,,,,
,613e9c495a04cf491311066a,627c68e057d29f27ac7693df,2022-05-11_20h55.31.344,classification_task,2021.2.3,Win32,59.72645285,627c6715c52fd12f31907bcf,,,,,,,,,,,,,,,,,,,,,,,a,0,0.7679,"[""0.106"",""0.191"",""0.820"",""0.742""]","[1,1,0,1]",0,35,35,35,1,1,1,,,1,FALSE,,,,,,,,,,,,,,,,,,,,,,,,,,,,,,,
,613e9c495a04cf491311066a,627c68e057d29f27ac7693df,2022-05-11_20h55.31.344,classification_task,2021.2.3,Win32,59.72645285,627c6715c52fd12f31907bcf,,,,,,,,,,,,,,,,,,,,,,,a,0,1.1897,"[""0.828"",""0.191"",""0.514"",""0.742""]","[0,1,1,1]",0,36,36,36,1,1,1,,,1,FALSE,,,,,,,,,,,,,,,,,,,,,,,,,,,,,,,
,613e9c495a04cf491311066a,627c68e057d29f27ac7693df,2022-05-11_20h55.31.344,classification_task,2021.2.3,Win32,59.72645285,627c6715c52fd12f31907bcf,,,,,,,,,,,,,,,,,,,,,,,l,0,1.0473,"[""0.325"",""0.549"",""0.245"",""0.966""]","[1,1,0,1]",0,37,37,37,1,0,1,,,1,FALSE,,,,,,,,,,,,,,,,,,,,,,,,,,,,,,,
,613e9c495a04cf491311066a,627c68e057d29f27ac7693df,2022-05-11_20h55.31.344,classification_task,2021.2.3,Win32,59.72645285,627c6715c52fd12f31907bcf,,,,,,,,,,,,,,,,,,,,,,,a,1,1.04,"[""0.280"",""0.367"",""0.672"",""0.910""]","[1,1,0,1]",0,38,38,38,1,0,0,,,1,FALSE,,,,,,,,,,,,,,,,,,,,,,,,,,,,,,,
,613e9c495a04cf491311066a,627c68e057d29f27ac7693df,2022-05-11_20h55.31.344,classification_task,2021.2.3,Win32,59.72645285,627c6715c52fd12f31907bcf,,,,,,,,,,,,,,,,,,,,,,,l,0,1.0953,"[""0.280"",""0.820"",""0.862"",""0.910""]","[1,0,1,1]",0,39,39,39,1,0,0,,,1,FALSE,,,,,,,,,,,,,,,,,,,,,,,,,,,,,,,
,613e9c495a04cf491311066a,627c68e057d29f27ac7693df,2022-05-11_20h55.31.344,classification_task,2021.2.3,Win32,59.72645285,627c6715c52fd12f31907bcf,,,,,,,,,,,,,,,,,,,,,,,a,1,0.9301,"[""0.793"",""0.367"",""0.862"",""0.910""]","[0,1,1,1]",0,40,40,40,1,0,0,,,1,FALSE,,,,,,,,,,,,,,,,,,,,,,,,,,,,,,,
,613e9c495a04cf491311066a,627c68e057d29f27ac7693df,2022-05-11_20h55.31.344,classification_task,2021.2.3,Win32,59.72645285,627c6715c52fd12f31907bcf,,,,,,,,,,,,,,,,,,,,,,,a,0,0.8972,"[""0.106"",""0.672"",""0.514"",""0.742""]","[1,0,1,1]",0,41,41,41,1,1,1,,,1,FALSE,,,,,,,,,,,,,,,,,,,,,,,,,,,,,,,
,613e9c495a04cf491311066a,627c68e057d29f27ac7693df,2022-05-11_20h55.31.344,classification_task,2021.2.3,Win32,59.72645285,627c6715c52fd12f31907bcf,,,,,,,,,,,,,,,,,,,,,,,a,1,1.0762,"[""0.325"",""0.549"",""0.614"",""0.245""]","[1,1,1,0]",0,42,42,42,1,0,1,,,1,FALSE,,,,,,,,,,,,,,,,,,,,,,,,,,,,,,,
,613e9c495a04cf491311066a,627c68e057d29f27ac7693df,2022-05-11_20h55.31.344,classification_task,2021.2.3,Win32,59.72645285,627c6715c52fd12f31907bcf,,,,,,,,,,,,,,,,,,,,,,,a,0,0.6855,"[""0.244"",""0.404"",""0.475"",""0.707""]","[0,1,1,1]",0,43,43,43,1,1,0,,,1,FALSE,,,,,,,,,,,,,,,,,,,,,,,,,,,,,,,
,613e9c495a04cf491311066a,627c68e057d29f27ac7693df,2022-05-11_20h55.31.344,classification_task,2021.2.3,Win32,59.72645285,627c6715c52fd12f31907bcf,,,,,,,,,,,,,,,,,,,,,,,l,0,0.888,"[""0.325"",""0.246"",""0.614"",""0.966""]","[1,0,1,1]",0,44,44,44,1,0,1,,,1,FALSE,,,,,,,,,,,,,,,,,,,,,,,,,,,,,,,
,613e9c495a04cf491311066a,627c68e057d29f27ac7693df,2022-05-11_20h55.31.344,classification_task,2021.2.3,Win32,59.72645285,627c6715c52fd12f31907bcf,,,,,,,,,,,,,,,,,,,,,,,a,1,0.8014,"[""0.280"",""0.367"",""0.862"",""0.657""]","[1,1,1,0]",0,45,45,45,1,0,0,,,1,FALSE,,,,,,,,,,,,,,,,,,,,,,,,,,,,,,,
,613e9c495a04cf491311066a,627c68e057d29f27ac7693df,2022-05-11_20h55.31.344,classification_task,2021.2.3,Win32,59.72645285,627c6715c52fd12f31907bcf,,,,,,,,,,,,,,,,,,,,,,,l,1,1.2725,"[""0.050"",""0.404"",""0.820"",""0.707""]","[1,1,0,1]",0,46,46,46,1,1,0,,,1,FALSE,,,,,,,,,,,,,,,,,,,,,,,,,,,,,,,
,613e9c495a04cf491311066a,627c68e057d29f27ac7693df,2022-05-11_20h55.31.344,classification_task,2021.2.3,Win32,59.72645285,627c6715c52fd12f31907bcf,,,,,,,,,,,,,,,,,,,,,,,a,0,0.9469,"[""0.106"",""0.191"",""0.514"",""0.811""]","[1,1,1,0]",0,47,47,47,1,1,1,,,1,FALSE,,,,,,,,,,,,,,,,,,,,,,,,,,,,,,,
,613e9c495a04cf491311066a,627c68e057d29f27ac7693df,2022-05-11_20h55.31.344,classification_task,2021.2.3,Win32,59.72645285,627c6715c52fd12f31907bcf,,,,,,,,,,,,,,,,,,,,,,,l,1,0.9149,"[""0.811"",""0.404"",""0.475"",""0.707""]","[0,1,1,1]",0,48,48,48,1,1,0,,,1,FALSE,,,,,,,,,,,,,,,,,,,,,,,,,,,,,,,
,613e9c495a04cf491311066a,627c68e057d29f27ac7693df,2022-05-11_20h55.31.344,classification_task,2021.2.3,Win32,59.72645285,627c6715c52fd12f31907bcf,,,,,,,,,,,,,,,,,,,,,,,a,0,0.9271,"[""0.234"",""0.191"",""0.514"",""0.742""]","[0,1,1,1]",0,49,49,49,1,1,1,,,1,FALSE,,,,,,,,,,,,,,,,,,,,,,,,,,,,,,,
,613e9c495a04cf491311066a,627c68e057d29f27ac7693df,2022-05-11_20h55.31.344,classification_task,2021.2.3,Win32,59.72645285,627c6715c52fd12f31907bcf,,,,,,,,,,,,,,,,,,,,,,,a,1,1.0819,"[""0.325"",""0.549"",""0.614"",""0.143""]","[1,1,1,0]",0,50,50,50,1,0,1,,,1,FALSE,,,,,,,,,,,,,,,,,,,,,,,,,,,,,,,
,613e9c495a04cf491311066a,627c68e057d29f27ac7693df,2022-05-11_20h55.31.344,classification_task,2021.2.3,Win32,59.72645285,627c6715c52fd12f31907bcf,,,,,,,,,,,,,,,,,,,,,,,l,1,1.2877,"[""0.106"",""0.663"",""0.514"",""0.742""]","[1,0,1,1]",0,51,51,51,1,1,1,,,1,FALSE,,,,,,,,,,,,,,,,,,,,,,,,,,,,,,,
,613e9c495a04cf491311066a,627c68e057d29f27ac7693df,2022-05-11_20h55.31.344,classification_task,2021.2.3,Win32,59.72645285,627c6715c52fd12f31907bcf,,,,,,,,,,,,,,,,,,,,,,,l,0,0.7135,"[""0.665"",""0.367"",""0.862"",""0.910""]","[0,1,1,1]",0,52,52,52,1,0,0,,,1,FALSE,,,,,,,,,,,,,,,,,,,,,,,,,,,,,,,
,613e9c495a04cf491311066a,627c68e057d29f27ac7693df,2022-05-11_20h55.31.344,classification_task,2021.2.3,Win32,59.72645285,627c6715c52fd12f31907bcf,,,,,,,,,,,,,,,,,,,,,,,l,1,0.8683,"[""0.106"",""0.191"",""0.146"",""0.742""]","[1,1,0,1]",0,53,53,53,1,1,1,,,1,FALSE,,,,,,,,,,,,,,,,,,,,,,,,,,,,,,,
,613e9c495a04cf491311066a,627c68e057d29f27ac7693df,2022-05-11_20h55.31.344,classification_task,2021.2.3,Win32,59.72645285,627c6715c52fd12f31907bcf,,,,,,,,,,,,,,,,,,,,,,,l,1,1.2127,"[""0.050"",""0.404"",""0.475"",""0.440""]","[1,1,1,0]",0,54,54,54,1,1,0,,,1,FALSE,,,,,,,,,,,,,,,,,,,,,,,,,,,,,,,
,613e9c495a04cf491311066a,627c68e057d29f27ac7693df,2022-05-11_20h55.31.344,classification_task,2021.2.3,Win32,59.72645285,627c6715c52fd12f31907bcf,,,,,,,,,,,,,,,,,,,,,,,a,1,0.6823,"[""0.280"",""0.672"",""0.862"",""0.910""]","[1,0,1,1]",0,55,55,55,1,0,0,,,1,FALSE,,,,,,,,,,,,,,,,,,,,,,,,,,,,,,,
,613e9c495a04cf491311066a,627c68e057d29f27ac7693df,2022-05-11_20h55.31.344,classification_task,2021.2.3,Win32,59.72645285,627c6715c52fd12f31907bcf,,,,,,,,,,,,,,,,,,,,,,,l,0,1.0956,"[""0.280"",""0.367"",""0.143"",""0.910""]","[1,1,0,1]",0,56,56,56,1,0,0,,,1,FALSE,,,,,,,,,,,,,,,,,,,,,,,,,,,,,,,
,613e9c495a04cf491311066a,627c68e057d29f27ac7693df,2022-05-11_20h55.31.344,classification_task,2021.2.3,Win32,59.72645285,627c6715c52fd12f31907bcf,,,,,,,,,,,,,,,,,,,,,,,a,1,1.3136,"[""0.244"",""0.549"",""0.614"",""0.966""]","[0,1,1,1]",0,57,57,57,1,0,1,,,1,FALSE,,,,,,,,,,,,,,,,,,,,,,,,,,,,,,,
,613e9c495a04cf491311066a,627c68e057d29f27ac7693df,2022-05-11_20h55.31.344,classification_task,2021.2.3,Win32,59.72645285,627c6715c52fd12f31907bcf,,,,,,,,,,,,,,,,,,,,,,,l,0,1.0157,"[""0.280"",""0.367"",""0.862"",""0.245""]","[1,1,1,0]",0,58,58,58,1,0,0,,,1,FALSE,,,,,,,,,,,,,,,,,,,,,,,,,,,,,,,
,613e9c495a04cf491311066a,627c68e057d29f27ac7693df,2022-05-11_20h55.31.344,classification_task,2021.2.3,Win32,59.72645285,627c6715c52fd12f31907bcf,,,,,,,,,,,,,,,,,,,,,,,a,0,0.7513,"[""0.050"",""0.802"",""0.475"",""0.707""]","[1,0,1,1]",0,59,59,59,1,1,0,,,1,FALSE,,,,,,,,,,,,,,,,,,,,,,,,,,,,,,,
,613e9c495a04cf491311066a,627c68e057d29f27ac7693df,2022-05-11_20h55.31.344,classification_task,2021.2.3,Win32,59.72645285,627c6715c52fd12f31907bcf,,,,,,,,,,,,,,,,,,,,,,,l,1,1.0154,"[""0.050"",""0.404"",""0.245"",""0.707""]","[1,1,0,1]",0,60,60,60,1,1,0,,,1,FALSE,,,,,,,,,,,,,,,,,,,,,,,,,,,,,,,
,613e9c495a04cf491311066a,627c68e057d29f27ac7693df,2022-05-11_20h55.31.344,classification_task,2021.2.3,Win32,59.72645285,627c6715c52fd12f31907bcf,,,,,,,,,,,,,,,,,,,,,,,l,0,1.0885,"[""0.325"",""0.549"",""0.246"",""0.966""]","[1,1,0,1]",0,61,61,61,1,0,1,,,1,FALSE,,,,,,,,,,,,,,,,,,,,,,,,,,,,,,,
,613e9c495a04cf491311066a,627c68e057d29f27ac7693df,2022-05-11_20h55.31.344,classification_task,2021.2.3,Win32,59.72645285,627c6715c52fd12f31907bcf,,,,,,,,,,,,,,,,,,,,,,,l,0,0.8495,"[""0.325"",""0.244"",""0.614"",""0.966""]","[1,0,1,1]",0,62,62,62,1,0,1,,,1,FALSE,,,,,,,,,,,,,,,,,,,,,,,,,,,,,,,
,613e9c495a04cf491311066a,627c68e057d29f27ac7693df,2022-05-11_20h55.31.344,classification_task,2021.2.3,Win32,59.72645285,627c6715c52fd12f31907bcf,,,,,,,,,,,,,,,,,,,,,,,l,1,0.6665,"[""0.106"",""0.191"",""0.514"",""0.828""]","[1,1,1,0]",0,63,63,63,1,1,1,,,1,FALSE,,,,,,,,,,,,,,,,,,,,,,,,,,,,,,,
,613e9c495a04cf491311066a,627c68e057d29f27ac7693df,2022-05-11_20h55.31.344,classification_task,2021.2.3,Win32,59.72645285,627c6715c52fd12f31907bcf,,,,,,,,,,,,,,,,,,,,,,,,,,,,,,,,,,,,,,,0, ,,0,0,222.651,0,2,2,2,1,2,3,,,,,,,,,,,,,,,,,,
,613e9c495a04cf491311066a,627c68e057d29f27ac7693df,2022-05-11_20h55.31.344,classification_task,2021.2.3,Win32,59.72645285,627c6715c52fd12f31907bcf,,,,,,,,,,,,,,,,,,,,,,,,,,,,,,,,,,,,,,,1,  ,,0,10,229.8698,0,2,2,2,1,2,3,,,,,,,,,,,,,,,,,,
,613e9c495a04cf491311066a,627c68e057d29f27ac7693df,2022-05-11_20h55.31.344,classification_task,2021.2.3,Win32,59.72645285,627c6715c52fd12f31907bcf,,,,,,,,,,,,,,,,,,,,,,,,,,,,,,,,,,,,,,,2,  ,,0,6.653439153,239.338,0,2,2,2,1,2,3,,,,,,,,,,,,,,,,,,
,613e9c495a04cf491311066a,627c68e057d29f27ac7693df,2022-05-11_20h55.31.344,classification_task,2021.2.3,Win32,59.72645285,627c6715c52fd12f31907bcf,,,,,,,,,,,,,,,,,,,,,,,,,,,,,,,,,,,,,,,,,,,,,0,2,2,2,1,,3,,,,,,,,,,,,,,,,,,
,613e9c495a04cf491311066a,627c68e057d29f27ac7693df,2022-05-11_20h55.31.344,classification_task,2021.2.3,Win32,59.72645285,627c6715c52fd12f31907bcf,,,,,,,,,,,,,,,,,,,,,,,,,,,,,,,,,,,,,,,,,,,,,,,,,,,,,I believe the aid is a competent performer,,0.7,0,4,1063.009,0,0,0,0,1,0,,,,,
,613e9c495a04cf491311066a,627c68e057d29f27ac7693df,2022-05-11_20h55.31.344,classification_task,2021.2.3,Win32,59.72645285,627c6715c52fd12f31907bcf,,,,,,,,,,,,,,,,,,,,,,,,,,,,,,,,,,,,,,,,,,,,,,,,,,,,,I trust the aid,,0.7,0,5,1064.3113,0,0,0,0,1,0,,,,,
,613e9c495a04cf491311066a,627c68e057d29f27ac7693df,2022-05-11_20h55.31.344,classification_task,2021.2.3,Win32,59.72645285,627c6715c52fd12f31907bcf,,,,,,,,,,,,,,,,,,,,,,,,,,,,,,,,,,,,,,,,,,,,,,,,,,,,,I have confidence in the advice given by the aid,,0.7,0,5,1069.7015,0,0,0,0,1,0,,,,,
,613e9c495a04cf491311066a,627c68e057d29f27ac7693df,2022-05-11_20h55.31.344,classification_task,2021.2.3,Win32,59.72645285,627c6715c52fd12f31907bcf,,,,,,,,,,,,,,,,,,,,,,,,,,,,,,,,,,,,,,,,,,,,,,,,,,,,,I can depend on the aid,,0.7,0,5,1072.9073,0,0,0,0,1,0,,,,,
,613e9c495a04cf491311066a,627c68e057d29f27ac7693df,2022-05-11_20h55.31.344,classification_task,2021.2.3,Win32,59.72645285,627c6715c52fd12f31907bcf,,,,,,,,,,,,,,,,,,,,,,,,,,,,,,,,,,,,,,,,,,,,,,,,,,,,,I can rely on the aid to behave in consistent ways,,0.7,0,4,1079.8169,0,0,0,0,1,0,,,,,
,613e9c495a04cf491311066a,627c68e057d29f27ac7693df,2022-05-11_20h55.31.344,classification_task,2021.2.3,Win32,59.72645285,627c6715c52fd12f31907bcf,,,,,,,,,,,,,,,,,,,,,,,,,,,,,,,,,,,,,,,,,,,,,,,,,,,,,I can rely on the aid to do its best every time I take its advice,,0.7,0,4,1084.714,0,0,0,0,1,0,,,,,
,613e9c495a04cf491311066a,627c68e057d29f27ac7693df,2022-05-11_20h55.31.344,classification_task,2021.2.3,Win32,59.72645285,627c6715c52fd12f31907bcf,,,,,,,,,,,,,,,,,,,,,,,,,,,,,,,,,,,,,,,,,,,,,,,,,,,,,"On trials you completed with assistance from the aid, how frequently did you think the aid was correct?",,0.7,0,100%,,0,0,0,0,1,0,,,,,
,613e9c495a04cf491311066a,627c68e057d29f27ac7693df,2022-05-11_20h55.31.344,classification_task,2021.2.3,Win32,59.72645285,627c6715c52fd12f31907bcf,,,,,,,,,,,,,,,,,,,,,,,,,,,,,,,,,,,,,,,,,,,,,,,,,,,,,"On trials you completed without the aid, how frequently did you think you were correct?",,0.7,0,60%,,0,0,0,0,1,0,,,,,
,613e9c495a04cf491311066a,627c68e057d29f27ac7693df,2022-05-11_20h55.31.344,classification_task,2021.2.3,Win32,59.72645285,627c6715c52fd12f31907bcf,,,,,,,,,,,,,,,,,,,,,,,,,,,,,,,,,,,,,,,,,,,,,,,,,,,,,,,,,,,0,0,0,0,1,,,,,,
,613e9c495a04cf491311066a,627c68e057d29f27ac7693df,2022-05-11_20h55.31.344,classification_task,2021.2.3,Win32,59.72645285,627c6715c52fd12f31907bcf,,,,,,,,,,,,,,,,,,,,,,,,,,,,,,,,,,,,,,,,,,,,,,,,,,,,,,,,,,,,,,,,,space,9.6885,1193.7162,,
,613e9c495a04cf491311066a,627c68e057d29f27ac7693df,2022-05-11_20h55.31.344,classification_task,2021.2.3,Win32,59.72645285,627c6715c52fd12f31907bcf,,,,,,,,,,,,,,,,,,,,,,,,,,,,,,,,,,,,,,,,,,,,,,,,,,,,,,,,,,,,,,,,,,,,"Mozilla/5.0 (Windows NT 10.0; Win64; x64) AppleWebKit/537.36 (KHTML, like Gecko) Chrome/100.0.4896.127 Safari/537.36",
,613e9c495a04cf491311066a,627c68e057d29f27ac7693df,2022-05-11_20h55.31.344,classification_task,2021.2.3,Win32,59.72645285,627c6715c52fd12f31907bcf,,,,,,,,,,,,,,,,,,,,,,,,,,,,,,,,,,,,,,,,,,,,,,,,,,,,,,,,,,,,,,,,,,,,,HIGHLIGHT
