usingWebGL,participant,session,date,expName,psychopyVersion,OS,frameRate,study_id,signatures_friend,signatures_foe,band_ranges_top,band_ranges_bottom,formitemText,formtype,formundefined,formitemWidth,formindex,formresponse,formrt,key_resp_2.keys,key_resp_2.rt,tute_resp.keys,tute_resp.rt,tutorial.thisRepN,tutorial.thisTrialN,tutorial.thisN,tutorial.thisIndex,tutorial.ran,key_resp_4.keys,key_resp_4.rt,key_resp.keys,key_resp.corr,lines_presented,is_signal_presented,trials.thisRepN,trials.thisTrialN,trials.thisN,trials.thisIndex,trials.ran,vessel,active_band,lines,is_signal,supported_pos,catch_trial,key_resp.rt,debrief_formindex,debrief_formitemText,debrief_formtype,debrief_formitemWidth,debrief_formresponse,debrief_formrt,phases.thisRepN,phases.thisTrialN,phases.thisN,phases.thisIndex,phases.ran,phases.order,phase,key_resp_3.keys,trustitemText,trusttype,trustitemWidth,trustindex,trustresponse,trustrt,support_status.thisRepN,support_status.thisTrialN,support_status.thisN,support_status.thisIndex,support_status.ran,support_status.order,key_resp_5.keys,key_resp_5.rt,globalClockTime,userAgent,manualCondition
TRUE,613e47b64838fce3c50627e2,627c67d18064fe9f31d11826,2022-05-11_18h50.44.392,classification_task,2021.2.3,Win32,60.0024001,627c6715c52fd12f31907bd0,,,,,,,,,,,,,,,,,,,,,,,,,,,,,,,,,,,,,,,,,,,,,,,,,,,,,,,,,,,,,,,,,,,,,
,613e47b64838fce3c50627e2,627c67d18064fe9f31d11826,2022-05-11_18h50.44.392,classification_task,2021.2.3,Win32,60.0024001,627c6715c52fd12f31907bd0,"[[""0.238"",""0.511"",""0.858"",""0.901""],[""0.272"",""0.335"",""0.593"",""0.955""]]","[[""0.155"",""0.405"",""0.551"",""0.817""],[""0.100"",""0.197"",""0.453"",""0.730""]]","[1,10]","[100,1000]",Video game experience,,,0.7,0,,,,,,,,,,,,,,,,,,,,,,,,,,,,,,,,,,,,,,,,,,,,,,,,,,,,,,,,,,,,
,613e47b64838fce3c50627e2,627c67d18064fe9f31d11826,2022-05-11_18h50.44.392,classification_task,2021.2.3,Win32,60.0024001,627c6715c52fd12f31907bd0,,,,,Approximately how many hours did you spend playing video games in the last week?,,,0.7,0,0,,,,,,,,,,,,,,,,,,,,,,,,,,,,,,,,,,,,,,,,,,,,,,,,,,,,,,,,,,,
,613e47b64838fce3c50627e2,627c67d18064fe9f31d11826,2022-05-11_18h50.44.392,classification_task,2021.2.3,Win32,60.0024001,627c6715c52fd12f31907bd0,,,,,"Which game did you play the most this year? (Enter ""None"" if you didn't play any)",,,0.7,0,none,,,,,,,,,,,,,,,,,,,,,,,,,,,,,,,,,,,,,,,,,,,,,,,,,,,,,,,,,,,
,613e47b64838fce3c50627e2,627c67d18064fe9f31d11826,2022-05-11_18h50.44.392,classification_task,2021.2.3,Win32,60.0024001,627c6715c52fd12f31907bd0,,,,,Visual perception,,,0.7,0,,,,,,,,,,,,,,,,,,,,,,,,,,,,,,,,,,,,,,,,,,,,,,,,,,,,,,,,,,,,
,613e47b64838fce3c50627e2,627c67d18064fe9f31d11826,2022-05-11_18h50.44.392,classification_task,2021.2.3,Win32,60.0024001,627c6715c52fd12f31907bd0,,,,,Do you have any form of color blindness?,,,0.7,0,No,17.2533,,,,,,,,,,,,,,,,,,,,,,,,,,,,,,,,,,,,,,,,,,,,,,,,,,,,,,,,,,
,613e47b64838fce3c50627e2,627c67d18064fe9f31d11826,2022-05-11_18h50.44.392,classification_task,2021.2.3,Win32,60.0024001,627c6715c52fd12f31907bd0,,,,,Do you use software to change the colour temperature of your screen (e.g. f.lux)?,,,0.7,0,No,20.9071,,,,,,,,,,,,,,,,,,,,,,,,,,,,,,,,,,,,,,,,,,,,,,,,,,,,,,,,,,
,613e47b64838fce3c50627e2,627c67d18064fe9f31d11826,2022-05-11_18h50.44.392,classification_task,2021.2.3,Win32,60.0024001,627c6715c52fd12f31907bd0,,,,,,,,,,,,space,36.0591,space,7.1903,0,0,0,0,1,,,,,,,,,,,,,,,,,,,,,,,,,,,,,,,,,,,,,,,,,,,,,,,,,
,613e47b64838fce3c50627e2,627c67d18064fe9f31d11826,2022-05-11_18h50.44.392,classification_task,2021.2.3,Win32,60.0024001,627c6715c52fd12f31907bd0,,,,,,,,,,,,,,space,19.5233,1,0,1,0,1,,,,,,,,,,,,,,,,,,,,,,,,,,,,,,,,,,,,,,,,,,,,,,,,,
,613e47b64838fce3c50627e2,627c67d18064fe9f31d11826,2022-05-11_18h50.44.392,classification_task,2021.2.3,Win32,60.0024001,627c6715c52fd12f31907bd0,,,,,,,,,,,,,,space,14.3795,2,0,2,0,1,,,,,,,,,,,,,,,,,,,,,,,,,,,,,,,,,,,,,,,,,,,,,,,,,
,613e47b64838fce3c50627e2,627c67d18064fe9f31d11826,2022-05-11_18h50.44.392,classification_task,2021.2.3,Win32,60.0024001,627c6715c52fd12f31907bd0,,,,,,,,,,,,,,space,37.4499,3,0,3,0,1,,,,,,,,,,,,,,,,,,,,,,,,,,,,,,,,,,,,,,,,,,,,,,,,,
,613e47b64838fce3c50627e2,627c67d18064fe9f31d11826,2022-05-11_18h50.44.392,classification_task,2021.2.3,Win32,60.0024001,627c6715c52fd12f31907bd0,,,,,,,,,,,,,,space,43.475,4,0,4,0,1,,,,,,,,,,,,,,,,,,,,,,,,,,,,,,,,,,,,,,,,,,,,,,,,,
,613e47b64838fce3c50627e2,627c67d18064fe9f31d11826,2022-05-11_18h50.44.392,classification_task,2021.2.3,Win32,60.0024001,627c6715c52fd12f31907bd0,,,,,,,,,,,,,,,,,,,,,space,13.8533,,0,"[""0.100"",""0.197"",""0.059"",""0.730""]","[1,1,0,1]",0,0,0,0,1,1,1,,,1,FALSE,,,,,,,,,,,,,,,,,,,,,,,,,,,,,,,,
,613e47b64838fce3c50627e2,627c67d18064fe9f31d11826,2022-05-11_18h50.44.392,classification_task,2021.2.3,Win32,60.0024001,627c6715c52fd12f31907bd0,,,,,,,,,,,,,,,,,,,,,,,a,1,"[""0.238"",""0.511"",""0.781"",""0.901""]","[1,1,0,1]",0,1,1,1,1,0,0,,,1,FALSE,4.9555,,,,,,,,,,,,,,,,,,,,,,,,,,,,,,,
,613e47b64838fce3c50627e2,627c67d18064fe9f31d11826,2022-05-11_18h50.44.392,classification_task,2021.2.3,Win32,60.0024001,627c6715c52fd12f31907bd0,,,,,,,,,,,,,,,,,,,,,,,,0,"[""0.657"",""0.335"",""0.593"",""0.955""]","[0,1,1,1]",0,2,2,2,1,0,1,,,1,FALSE,,,,,,,,,,,,,,,,,,,,,,,,,,,,,,,,
,613e47b64838fce3c50627e2,627c67d18064fe9f31d11826,2022-05-11_18h50.44.392,classification_task,2021.2.3,Win32,60.0024001,627c6715c52fd12f31907bd0,,,,,,,,,,,,,,,,,,,,,,,a,1,"[""0.272"",""0.035"",""0.593"",""0.955""]","[1,0,1,1]",0,3,3,3,1,0,1,,,1,FALSE,5.9831,,,,,,,,,,,,,,,,,,,,,,,,,,,,,,,
,613e47b64838fce3c50627e2,627c67d18064fe9f31d11826,2022-05-11_18h50.44.392,classification_task,2021.2.3,Win32,60.0024001,627c6715c52fd12f31907bd0,,,,,,,,,,,,,,,,,,,,,,,l,1,"[""0.775"",""0.405"",""0.551"",""0.817""]","[0,1,1,1]",0,4,4,4,1,1,0,,,1,FALSE,8.5306,,,,,,,,,,,,,,,,,,,,,,,,,,,,,,,
,613e47b64838fce3c50627e2,627c67d18064fe9f31d11826,2022-05-11_18h50.44.392,classification_task,2021.2.3,Win32,60.0024001,627c6715c52fd12f31907bd0,,,,,,,,,,,,,,,,,,,,,,,a,1,"[""0.272"",""0.335"",""0.773"",""0.955""]","[1,1,0,1]",0,5,5,5,1,0,1,,,1,FALSE,5.1865,,,,,,,,,,,,,,,,,,,,,,,,,,,,,,,
,613e47b64838fce3c50627e2,627c67d18064fe9f31d11826,2022-05-11_18h50.44.392,classification_task,2021.2.3,Win32,60.0024001,627c6715c52fd12f31907bd0,,,,,,,,,,,,,,,,,,,,,,,l,1,"[""0.155"",""0.405"",""0.628"",""0.817""]","[1,1,0,1]",0,6,6,6,1,1,0,,,1,FALSE,5.4874,,,,,,,,,,,,,,,,,,,,,,,,,,,,,,,
,613e47b64838fce3c50627e2,627c67d18064fe9f31d11826,2022-05-11_18h50.44.392,classification_task,2021.2.3,Win32,60.0024001,627c6715c52fd12f31907bd0,,,,,,,,,,,,,,,,,,,,,,,l,0,"[""0.773"",""0.511"",""0.858"",""0.901""]","[0,1,1,1]",0,7,7,7,1,0,0,,,1,FALSE,6.0427,,,,,,,,,,,,,,,,,,,,,,,,,,,,,,,
,613e47b64838fce3c50627e2,627c67d18064fe9f31d11826,2022-05-11_18h50.44.392,classification_task,2021.2.3,Win32,60.0024001,627c6715c52fd12f31907bd0,,,,,,,,,,,,,,,,,,,,,,,l,1,"[""0.155"",""0.405"",""0.551"",""0.695""]","[1,1,1,0]",0,8,8,8,1,1,0,,,1,FALSE,6.1417,,,,,,,,,,,,,,,,,,,,,,,,,,,,,,,
,613e47b64838fce3c50627e2,627c67d18064fe9f31d11826,2022-05-11_18h50.44.392,classification_task,2021.2.3,Win32,60.0024001,627c6715c52fd12f31907bd0,,,,,,,,,,,,,,,,,,,,,,,a,1,"[""0.238"",""0.511"",""0.858"",""0.652""]","[1,1,1,0]",0,9,9,9,1,0,0,,,1,FALSE,4.1427,,,,,,,,,,,,,,,,,,,,,,,,,,,,,,,
,613e47b64838fce3c50627e2,627c67d18064fe9f31d11826,2022-05-11_18h50.44.392,classification_task,2021.2.3,Win32,60.0024001,627c6715c52fd12f31907bd0,,,,,,,,,,,,,,,,,,,,,,,l,1,"[""0.155"",""0.035"",""0.551"",""0.817""]","[1,0,1,1]",0,10,10,10,1,1,0,,,1,FALSE,5.4747,,,,,,,,,,,,,,,,,,,,,,,,,,,,,,,
,613e47b64838fce3c50627e2,627c67d18064fe9f31d11826,2022-05-11_18h50.44.392,classification_task,2021.2.3,Win32,60.0024001,627c6715c52fd12f31907bd0,,,,,,,,,,,,,,,,,,,,,,,a,1,"[""0.272"",""0.335"",""0.593"",""0.630""]","[1,1,1,0]",0,11,11,11,1,0,1,,,1,FALSE,3.5783,,,,,,,,,,,,,,,,,,,,,,,,,,,,,,,
,613e47b64838fce3c50627e2,627c67d18064fe9f31d11826,2022-05-11_18h50.44.392,classification_task,2021.2.3,Win32,60.0024001,627c6715c52fd12f31907bd0,,,,,,,,,,,,,,,,,,,,,,,l,1,"[""0.100"",""0.197"",""0.453"",""0.652""]","[1,1,1,0]",0,12,12,12,1,1,1,,,1,FALSE,6.1069,,,,,,,,,,,,,,,,,,,,,,,,,,,,,,,
,613e47b64838fce3c50627e2,627c67d18064fe9f31d11826,2022-05-11_18h50.44.392,classification_task,2021.2.3,Win32,60.0024001,627c6715c52fd12f31907bd0,,,,,,,,,,,,,,,,,,,,,,,l,1,"[""0.780"",""0.197"",""0.453"",""0.730""]","[0,1,1,1]",0,13,13,13,1,1,1,,,1,FALSE,6.1263,,,,,,,,,,,,,,,,,,,,,,,,,,,,,,,
,613e47b64838fce3c50627e2,627c67d18064fe9f31d11826,2022-05-11_18h50.44.392,classification_task,2021.2.3,Win32,60.0024001,627c6715c52fd12f31907bd0,,,,,,,,,,,,,,,,,,,,,,,l,1,"[""0.100"",""0.657"",""0.453"",""0.730""]","[1,0,1,1]",0,14,14,14,1,1,1,,,1,FALSE,6.5113,,,,,,,,,,,,,,,,,,,,,,,,,,,,,,,
,613e47b64838fce3c50627e2,627c67d18064fe9f31d11826,2022-05-11_18h50.44.392,classification_task,2021.2.3,Win32,60.0024001,627c6715c52fd12f31907bd0,,,,,,,,,,,,,,,,,,,,,,,a,1,"[""0.238"",""0.695"",""0.858"",""0.901""]","[1,0,1,1]",0,15,15,15,1,0,0,,,1,FALSE,9.2103,,,,,,,,,,,,,,,,,,,,,,,,,,,,,,,
,613e47b64838fce3c50627e2,627c67d18064fe9f31d11826,2022-05-11_18h50.44.392,classification_task,2021.2.3,Win32,60.0024001,627c6715c52fd12f31907bd0,,,,,,,,,,,,,,,,,,,,,,,a,1,"[""0.238"",""0.511"",""0.858"",""0.035""]","[1,1,1,0]",0,16,16,16,1,0,0,,,1,FALSE,4.8393,,,,,,,,,,,,,,,,,,,,,,,,,,,,,,,
,613e47b64838fce3c50627e2,627c67d18064fe9f31d11826,2022-05-11_18h50.44.392,classification_task,2021.2.3,Win32,60.0024001,627c6715c52fd12f31907bd0,,,,,,,,,,,,,,,,,,,,,,,a,1,"[""0.238"",""0.511"",""0.773"",""0.901""]","[1,1,0,1]",0,17,17,17,1,0,0,,,1,FALSE,9.1048,,,,,,,,,,,,,,,,,,,,,,,,,,,,,,,
,613e47b64838fce3c50627e2,627c67d18064fe9f31d11826,2022-05-11_18h50.44.392,classification_task,2021.2.3,Win32,60.0024001,627c6715c52fd12f31907bd0,,,,,,,,,,,,,,,,,,,,,,,a,1,"[""0.238"",""0.652"",""0.858"",""0.901""]","[1,0,1,1]",0,18,18,18,1,0,0,,,1,FALSE,7.6601,,,,,,,,,,,,,,,,,,,,,,,,,,,,,,,
,613e47b64838fce3c50627e2,627c67d18064fe9f31d11826,2022-05-11_18h50.44.392,classification_task,2021.2.3,Win32,60.0024001,627c6715c52fd12f31907bd0,,,,,,,,,,,,,,,,,,,,,,,a,1,"[""0.272"",""0.652"",""0.593"",""0.955""]","[1,0,1,1]",0,19,19,19,1,0,1,,,1,FALSE,4.9606,,,,,,,,,,,,,,,,,,,,,,,,,,,,,,,
,613e47b64838fce3c50627e2,627c67d18064fe9f31d11826,2022-05-11_18h50.44.392,classification_task,2021.2.3,Win32,60.0024001,627c6715c52fd12f31907bd0,,,,,,,,,,,,,,,,,,,,,,,l,1,"[""0.100"",""0.197"",""0.453"",""0.657""]","[1,1,1,0]",0,20,20,20,1,1,1,,,1,FALSE,6.5692,,,,,,,,,,,,,,,,,,,,,,,,,,,,,,,
,613e47b64838fce3c50627e2,627c67d18064fe9f31d11826,2022-05-11_18h50.44.392,classification_task,2021.2.3,Win32,60.0024001,627c6715c52fd12f31907bd0,,,,,,,,,,,,,,,,,,,,,,,,0,"[""0.059"",""0.405"",""0.551"",""0.817""]","[0,1,1,1]",0,21,21,21,1,1,0,,,1,FALSE,,,,,,,,,,,,,,,,,,,,,,,,,,,,,,,,
,613e47b64838fce3c50627e2,627c67d18064fe9f31d11826,2022-05-11_18h50.44.392,classification_task,2021.2.3,Win32,60.0024001,627c6715c52fd12f31907bd0,,,,,,,,,,,,,,,,,,,,,,,l,1,"[""0.100"",""0.657"",""0.453"",""0.730""]","[1,0,1,1]",0,22,22,22,1,1,1,,,1,FALSE,4.2528,,,,,,,,,,,,,,,,,,,,,,,,,,,,,,,
,613e47b64838fce3c50627e2,627c67d18064fe9f31d11826,2022-05-11_18h50.44.392,classification_task,2021.2.3,Win32,60.0024001,627c6715c52fd12f31907bd0,,,,,,,,,,,,,,,,,,,,,,,l,1,"[""0.155"",""0.773"",""0.551"",""0.817""]","[1,0,1,1]",0,23,23,23,1,1,0,,,1,FALSE,8.1264,,,,,,,,,,,,,,,,,,,,,,,,,,,,,,,
,613e47b64838fce3c50627e2,627c67d18064fe9f31d11826,2022-05-11_18h50.44.392,classification_task,2021.2.3,Win32,60.0024001,627c6715c52fd12f31907bd0,,,,,,,,,,,,,,,,,,,,,,,l,1,"[""0.100"",""0.197"",""0.630"",""0.730""]","[1,1,0,1]",0,24,24,24,1,1,1,,,1,FALSE,5.6402,,,,,,,,,,,,,,,,,,,,,,,,,,,,,,,
,613e47b64838fce3c50627e2,627c67d18064fe9f31d11826,2022-05-11_18h50.44.392,classification_task,2021.2.3,Win32,60.0024001,627c6715c52fd12f31907bd0,,,,,,,,,,,,,,,,,,,,,,,l,1,"[""0.155"",""0.405"",""0.551"",""0.782""]","[1,1,1,0]",0,25,25,25,1,1,0,,,1,FALSE,4.2873,,,,,,,,,,,,,,,,,,,,,,,,,,,,,,,
,613e47b64838fce3c50627e2,627c67d18064fe9f31d11826,2022-05-11_18h50.44.392,classification_task,2021.2.3,Win32,60.0024001,627c6715c52fd12f31907bd0,,,,,,,,,,,,,,,,,,,,,,,l,0,"[""0.630"",""0.511"",""0.858"",""0.901""]","[0,1,1,1]",0,26,26,26,1,0,0,,,1,FALSE,6.937,,,,,,,,,,,,,,,,,,,,,,,,,,,,,,,
,613e47b64838fce3c50627e2,627c67d18064fe9f31d11826,2022-05-11_18h50.44.392,classification_task,2021.2.3,Win32,60.0024001,627c6715c52fd12f31907bd0,,,,,,,,,,,,,,,,,,,,,,,a,1,"[""0.272"",""0.335"",""0.593"",""0.773""]","[1,1,1,0]",0,27,27,27,1,0,1,,,1,FALSE,6.2518,,,,,,,,,,,,,,,,,,,,,,,,,,,,,,,
,613e47b64838fce3c50627e2,627c67d18064fe9f31d11826,2022-05-11_18h50.44.392,classification_task,2021.2.3,Win32,60.0024001,627c6715c52fd12f31907bd0,,,,,,,,,,,,,,,,,,,,,,,a,1,"[""0.780"",""0.335"",""0.593"",""0.955""]","[0,1,1,1]",0,28,28,28,1,0,1,,,1,FALSE,5.8062,,,,,,,,,,,,,,,,,,,,,,,,,,,,,,,
,613e47b64838fce3c50627e2,627c67d18064fe9f31d11826,2022-05-11_18h50.44.392,classification_task,2021.2.3,Win32,60.0024001,627c6715c52fd12f31907bd0,,,,,,,,,,,,,,,,,,,,,,,a,1,"[""0.272"",""0.335"",""0.035"",""0.955""]","[1,1,0,1]",0,29,29,29,1,0,1,,,1,FALSE,6.1057,,,,,,,,,,,,,,,,,,,,,,,,,,,,,,,
,613e47b64838fce3c50627e2,627c67d18064fe9f31d11826,2022-05-11_18h50.44.392,classification_task,2021.2.3,Win32,60.0024001,627c6715c52fd12f31907bd0,,,,,,,,,,,,,,,,,,,,,,,l,1,"[""0.155"",""0.405"",""0.062"",""0.817""]","[1,1,0,1]",0,30,30,30,1,1,0,,,1,FALSE,4.9689,,,,,,,,,,,,,,,,,,,,,,,,,,,,,,,
,613e47b64838fce3c50627e2,627c67d18064fe9f31d11826,2022-05-11_18h50.44.392,classification_task,2021.2.3,Win32,60.0024001,627c6715c52fd12f31907bd0,,,,,,,,,,,,,,,,,,,,,,,l,1,"[""0.773"",""0.197"",""0.453"",""0.730""]","[0,1,1,1]",0,31,31,31,1,1,1,,,1,FALSE,8.3828,,,,,,,,,,,,,,,,,,,,,,,,,,,,,,,
,613e47b64838fce3c50627e2,627c67d18064fe9f31d11826,2022-05-11_18h50.44.392,classification_task,2021.2.3,Win32,60.0024001,627c6715c52fd12f31907bd0,,,,,,,,,,,,,,,,,,,,,,,l,0,"[""0.628"",""0.335"",""0.593"",""0.955""]","[0,1,1,1]",0,32,32,32,1,0,1,,,1,FALSE,5.659,,,,,,,,,,,,,,,,,,,,,,,,,,,,,,,
,613e47b64838fce3c50627e2,627c67d18064fe9f31d11826,2022-05-11_18h50.44.392,classification_task,2021.2.3,Win32,60.0024001,627c6715c52fd12f31907bd0,,,,,,,,,,,,,,,,,,,,,,,a,1,"[""0.652"",""0.511"",""0.858"",""0.901""]","[0,1,1,1]",0,33,33,33,1,0,0,,,1,FALSE,4.2944,,,,,,,,,,,,,,,,,,,,,,,,,,,,,,,
,613e47b64838fce3c50627e2,627c67d18064fe9f31d11826,2022-05-11_18h50.44.392,classification_task,2021.2.3,Win32,60.0024001,627c6715c52fd12f31907bd0,,,,,,,,,,,,,,,,,,,,,,,l,0,"[""0.238"",""0.695"",""0.858"",""0.901""]","[1,0,1,1]",0,34,34,34,1,0,0,,,1,FALSE,5.5573,,,,,,,,,,,,,,,,,,,,,,,,,,,,,,,
,613e47b64838fce3c50627e2,627c67d18064fe9f31d11826,2022-05-11_18h50.44.392,classification_task,2021.2.3,Win32,60.0024001,627c6715c52fd12f31907bd0,,,,,,,,,,,,,,,,,,,,,,,l,1,"[""0.035"",""0.197"",""0.453"",""0.730""]","[0,1,1,1]",0,35,35,35,1,1,1,,,1,FALSE,4.3243,,,,,,,,,,,,,,,,,,,,,,,,,,,,,,,
,613e47b64838fce3c50627e2,627c67d18064fe9f31d11826,2022-05-11_18h50.44.392,classification_task,2021.2.3,Win32,60.0024001,627c6715c52fd12f31907bd0,,,,,,,,,,,,,,,,,,,,,,,a,0,"[""0.155"",""0.405"",""0.695"",""0.817""]","[1,1,0,1]",0,36,36,36,1,1,0,,,1,FALSE,4.9673,,,,,,,,,,,,,,,,,,,,,,,,,,,,,,,
,613e47b64838fce3c50627e2,627c67d18064fe9f31d11826,2022-05-11_18h50.44.392,classification_task,2021.2.3,Win32,60.0024001,627c6715c52fd12f31907bd0,,,,,,,,,,,,,,,,,,,,,,,l,0,"[""0.272"",""0.775"",""0.593"",""0.955""]","[1,0,1,1]",0,37,37,37,1,0,1,,,1,FALSE,5.4546,,,,,,,,,,,,,,,,,,,,,,,,,,,,,,,
,613e47b64838fce3c50627e2,627c67d18064fe9f31d11826,2022-05-11_18h50.44.392,classification_task,2021.2.3,Win32,60.0024001,627c6715c52fd12f31907bd0,,,,,,,,,,,,,,,,,,,,,,,a,1,"[""0.238"",""0.511"",""0.780"",""0.901""]","[1,1,0,1]",0,38,38,38,1,0,0,,,1,FALSE,1.8426,,,,,,,,,,,,,,,,,,,,,,,,,,,,,,,
,613e47b64838fce3c50627e2,627c67d18064fe9f31d11826,2022-05-11_18h50.44.392,classification_task,2021.2.3,Win32,60.0024001,627c6715c52fd12f31907bd0,,,,,,,,,,,,,,,,,,,,,,,a,1,"[""0.238"",""0.511"",""0.858"",""0.035""]","[1,1,1,0]",0,39,39,39,1,0,0,,,1,FALSE,3.1394,,,,,,,,,,,,,,,,,,,,,,,,,,,,,,,
,613e47b64838fce3c50627e2,627c67d18064fe9f31d11826,2022-05-11_18h50.44.392,classification_task,2021.2.3,Win32,60.0024001,627c6715c52fd12f31907bd0,,,,,,,,,,,,,,,,,,,,,,,l,1,"[""0.782"",""0.405"",""0.551"",""0.817""]","[0,1,1,1]",0,40,40,40,1,1,0,,,1,FALSE,1.3622,,,,,,,,,,,,,,,,,,,,,,,,,,,,,,,
,613e47b64838fce3c50627e2,627c67d18064fe9f31d11826,2022-05-11_18h50.44.392,classification_task,2021.2.3,Win32,60.0024001,627c6715c52fd12f31907bd0,,,,,,,,,,,,,,,,,,,,,,,a,0,"[""0.100"",""0.782"",""0.453"",""0.730""]","[1,0,1,1]",0,41,41,41,1,1,1,,,1,FALSE,1.3427,,,,,,,,,,,,,,,,,,,,,,,,,,,,,,,
,613e47b64838fce3c50627e2,627c67d18064fe9f31d11826,2022-05-11_18h50.44.392,classification_task,2021.2.3,Win32,60.0024001,627c6715c52fd12f31907bd0,,,,,,,,,,,,,,,,,,,,,,,a,1,"[""0.272"",""0.335"",""0.593"",""0.773""]","[1,1,1,0]",0,42,42,42,1,0,1,,,1,FALSE,1.5468,,,,,,,,,,,,,,,,,,,,,,,,,,,,,,,
,613e47b64838fce3c50627e2,627c67d18064fe9f31d11826,2022-05-11_18h50.44.392,classification_task,2021.2.3,Win32,60.0024001,627c6715c52fd12f31907bd0,,,,,,,,,,,,,,,,,,,,,,,a,0,"[""0.100"",""0.197"",""0.453"",""0.773""]","[1,1,1,0]",0,43,43,43,1,1,1,,,1,FALSE,1.2892,,,,,,,,,,,,,,,,,,,,,,,,,,,,,,,
,613e47b64838fce3c50627e2,627c67d18064fe9f31d11826,2022-05-11_18h50.44.392,classification_task,2021.2.3,Win32,60.0024001,627c6715c52fd12f31907bd0,,,,,,,,,,,,,,,,,,,,,,,l,1,"[""0.155"",""0.059"",""0.551"",""0.817""]","[1,0,1,1]",0,44,44,44,1,1,0,,,1,FALSE,1.2738,,,,,,,,,,,,,,,,,,,,,,,,,,,,,,,
,613e47b64838fce3c50627e2,627c67d18064fe9f31d11826,2022-05-11_18h50.44.392,classification_task,2021.2.3,Win32,60.0024001,627c6715c52fd12f31907bd0,,,,,,,,,,,,,,,,,,,,,,,a,0,"[""0.155"",""0.405"",""0.551"",""0.657""]","[1,1,1,0]",0,45,45,45,1,1,0,,,1,FALSE,0.9792,,,,,,,,,,,,,,,,,,,,,,,,,,,,,,,
,613e47b64838fce3c50627e2,627c67d18064fe9f31d11826,2022-05-11_18h50.44.392,classification_task,2021.2.3,Win32,60.0024001,627c6715c52fd12f31907bd0,,,,,,,,,,,,,,,,,,,,,,,l,0,"[""0.272"",""0.335"",""0.775"",""0.955""]","[1,1,0,1]",0,46,46,46,1,0,1,,,1,FALSE,1.3311,,,,,,,,,,,,,,,,,,,,,,,,,,,,,,,
,613e47b64838fce3c50627e2,627c67d18064fe9f31d11826,2022-05-11_18h50.44.392,classification_task,2021.2.3,Win32,60.0024001,627c6715c52fd12f31907bd0,,,,,,,,,,,,,,,,,,,,,,,l,1,"[""0.100"",""0.197"",""0.773"",""0.730""]","[1,1,0,1]",0,47,47,47,1,1,1,,,1,FALSE,1.4478,,,,,,,,,,,,,,,,,,,,,,,,,,,,,,,
,613e47b64838fce3c50627e2,627c67d18064fe9f31d11826,2022-05-11_18h50.44.392,classification_task,2021.2.3,Win32,60.0024001,627c6715c52fd12f31907bd0,,,,,,,,,,,,,,,,,,,,,,,l,0,"[""0.238"",""0.059"",""0.858"",""0.901""]","[1,0,1,1]",0,48,48,48,1,0,0,,,1,FALSE,0.9089,,,,,,,,,,,,,,,,,,,,,,,,,,,,,,,
,613e47b64838fce3c50627e2,627c67d18064fe9f31d11826,2022-05-11_18h50.44.392,classification_task,2021.2.3,Win32,60.0024001,627c6715c52fd12f31907bd0,,,,,,,,,,,,,,,,,,,,,,,a,0,"[""0.780"",""0.197"",""0.453"",""0.730""]","[0,1,1,1]",0,49,49,49,1,1,1,,,1,FALSE,3.6533,,,,,,,,,,,,,,,,,,,,,,,,,,,,,,,
,613e47b64838fce3c50627e2,627c67d18064fe9f31d11826,2022-05-11_18h50.44.392,classification_task,2021.2.3,Win32,60.0024001,627c6715c52fd12f31907bd0,,,,,,,,,,,,,,,,,,,,,,,a,0,"[""0.155"",""0.405"",""0.551"",""0.695""]","[1,1,1,0]",0,50,50,50,1,1,0,,,1,FALSE,4.0675,,,,,,,,,,,,,,,,,,,,,,,,,,,,,,,
,613e47b64838fce3c50627e2,627c67d18064fe9f31d11826,2022-05-11_18h50.44.392,classification_task,2021.2.3,Win32,60.0024001,627c6715c52fd12f31907bd0,,,,,,,,,,,,,,,,,,,,,,,l,0,"[""0.695"",""0.335"",""0.593"",""0.955""]","[0,1,1,1]",0,51,51,51,1,0,1,,,1,FALSE,1.0123,,,,,,,,,,,,,,,,,,,,,,,,,,,,,,,
,613e47b64838fce3c50627e2,627c67d18064fe9f31d11826,2022-05-11_18h50.44.392,classification_task,2021.2.3,Win32,60.0024001,627c6715c52fd12f31907bd0,,,,,,,,,,,,,,,,,,,,,,,l,1,"[""0.100"",""0.197"",""0.773"",""0.730""]","[1,1,0,1]",0,52,52,52,1,1,1,,,1,FALSE,1.1144,,,,,,,,,,,,,,,,,,,,,,,,,,,,,,,
,613e47b64838fce3c50627e2,627c67d18064fe9f31d11826,2022-05-11_18h50.44.392,classification_task,2021.2.3,Win32,60.0024001,627c6715c52fd12f31907bd0,,,,,,,,,,,,,,,,,,,,,,,a,0,"[""0.155"",""0.059"",""0.551"",""0.817""]","[1,0,1,1]",0,53,53,53,1,1,0,,,1,FALSE,1.4628,,,,,,,,,,,,,,,,,,,,,,,,,,,,,,,
,613e47b64838fce3c50627e2,627c67d18064fe9f31d11826,2022-05-11_18h50.44.392,classification_task,2021.2.3,Win32,60.0024001,627c6715c52fd12f31907bd0,,,,,,,,,,,,,,,,,,,,,,,a,1,"[""0.062"",""0.511"",""0.858"",""0.901""]","[0,1,1,1]",0,54,54,54,1,0,0,,,1,FALSE,0.808,,,,,,,,,,,,,,,,,,,,,,,,,,,,,,,
,613e47b64838fce3c50627e2,627c67d18064fe9f31d11826,2022-05-11_18h50.44.392,classification_task,2021.2.3,Win32,60.0024001,627c6715c52fd12f31907bd0,,,,,,,,,,,,,,,,,,,,,,,a,0,"[""0.100"",""0.781"",""0.453"",""0.730""]","[1,0,1,1]",0,55,55,55,1,1,1,,,1,FALSE,2.9737,,,,,,,,,,,,,,,,,,,,,,,,,,,,,,,
,613e47b64838fce3c50627e2,627c67d18064fe9f31d11826,2022-05-11_18h50.44.392,classification_task,2021.2.3,Win32,60.0024001,627c6715c52fd12f31907bd0,,,,,,,,,,,,,,,,,,,,,,,l,0,"[""0.272"",""0.062"",""0.593"",""0.955""]","[1,0,1,1]",0,56,56,56,1,0,1,,,1,FALSE,1.1197,,,,,,,,,,,,,,,,,,,,,,,,,,,,,,,
,613e47b64838fce3c50627e2,627c67d18064fe9f31d11826,2022-05-11_18h50.44.392,classification_task,2021.2.3,Win32,60.0024001,627c6715c52fd12f31907bd0,,,,,,,,,,,,,,,,,,,,,,,l,0,"[""0.272"",""0.335"",""0.676"",""0.955""]","[1,1,0,1]",0,57,57,57,1,0,1,,,1,FALSE,0.8058,,,,,,,,,,,,,,,,,,,,,,,,,,,,,,,
,613e47b64838fce3c50627e2,627c67d18064fe9f31d11826,2022-05-11_18h50.44.392,classification_task,2021.2.3,Win32,60.0024001,627c6715c52fd12f31907bd0,,,,,,,,,,,,,,,,,,,,,,,l,1,"[""0.630"",""0.405"",""0.551"",""0.817""]","[0,1,1,1]",0,58,58,58,1,1,0,,,1,FALSE,0.9569,,,,,,,,,,,,,,,,,,,,,,,,,,,,,,,
,613e47b64838fce3c50627e2,627c67d18064fe9f31d11826,2022-05-11_18h50.44.392,classification_task,2021.2.3,Win32,60.0024001,627c6715c52fd12f31907bd0,,,,,,,,,,,,,,,,,,,,,,,a,0,"[""0.155"",""0.405"",""0.059"",""0.817""]","[1,1,0,1]",0,59,59,59,1,1,0,,,1,FALSE,0.8119,,,,,,,,,,,,,,,,,,,,,,,,,,,,,,,
,613e47b64838fce3c50627e2,627c67d18064fe9f31d11826,2022-05-11_18h50.44.392,classification_task,2021.2.3,Win32,60.0024001,627c6715c52fd12f31907bd0,,,,,,,,,,,,,,,,,,,,,,,a,1,"[""0.272"",""0.335"",""0.593"",""0.781""]","[1,1,1,0]",0,60,60,60,1,0,1,,,1,FALSE,0.874,,,,,,,,,,,,,,,,,,,,,,,,,,,,,,,
,613e47b64838fce3c50627e2,627c67d18064fe9f31d11826,2022-05-11_18h50.44.392,classification_task,2021.2.3,Win32,60.0024001,627c6715c52fd12f31907bd0,,,,,,,,,,,,,,,,,,,,,,,a,1,"[""0.238"",""0.511"",""0.858"",""0.062""]","[1,1,1,0]",0,61,61,61,1,0,0,,,1,FALSE,1.8503,,,,,,,,,,,,,,,,,,,,,,,,,,,,,,,
,613e47b64838fce3c50627e2,627c67d18064fe9f31d11826,2022-05-11_18h50.44.392,classification_task,2021.2.3,Win32,60.0024001,627c6715c52fd12f31907bd0,,,,,,,,,,,,,,,,,,,,,,,l,0,"[""0.238"",""0.511"",""0.695"",""0.901""]","[1,1,0,1]",0,62,62,62,1,0,0,,,1,FALSE,1.138,,,,,,,,,,,,,,,,,,,,,,,,,,,,,,,
,613e47b64838fce3c50627e2,627c67d18064fe9f31d11826,2022-05-11_18h50.44.392,classification_task,2021.2.3,Win32,60.0024001,627c6715c52fd12f31907bd0,,,,,,,,,,,,,,,,,,,,,,,a,0,"[""0.100"",""0.197"",""0.453"",""0.631""]","[1,1,1,0]",0,63,63,63,1,1,1,,,1,FALSE,1.1055,,,,,,,,,,,,,,,,,,,,,,,,,,,,,,,
,613e47b64838fce3c50627e2,627c67d18064fe9f31d11826,2022-05-11_18h50.44.392,classification_task,2021.2.3,Win32,60.0024001,627c6715c52fd12f31907bd0,,,,,,,,,,,,,,,,,,,,,,,,,,,,,,,,,,,,,,,0, ,,0,0,572.0382,0,0,0,0,1,2,1,,,,,,,,,,,,,,,,,,
,613e47b64838fce3c50627e2,627c67d18064fe9f31d11826,2022-05-11_18h50.44.392,classification_task,2021.2.3,Win32,60.0024001,627c6715c52fd12f31907bd0,,,,,,,,,,,,,,,,,,,,,,,,,,,,,,,,,,,,,,,1,  ,,0,4.827766755,580.3064,0,0,0,0,1,2,1,,,,,,,,,,,,,,,,,,
,613e47b64838fce3c50627e2,627c67d18064fe9f31d11826,2022-05-11_18h50.44.392,classification_task,2021.2.3,Win32,60.0024001,627c6715c52fd12f31907bd0,,,,,,,,,,,,,,,,,,,,,,,,,,,,,,,,,,,,,,,2,  ,,0,1.314208554,584.8771,0,0,0,0,1,2,1,,,,,,,,,,,,,,,,,,
,613e47b64838fce3c50627e2,627c67d18064fe9f31d11826,2022-05-11_18h50.44.392,classification_task,2021.2.3,Win32,60.0024001,627c6715c52fd12f31907bd0,,,,,,,,,,,,,,,,,,,,,,,,,,,,,,,,,,,,,,,,,,,,,0,0,0,0,1,,1,,,,,,,,,,,,,,,,,,
,613e47b64838fce3c50627e2,627c67d18064fe9f31d11826,2022-05-11_18h50.44.392,classification_task,2021.2.3,Win32,60.0024001,627c6715c52fd12f31907bd0,,,,,,,,,,,,,,,,,,,,,space,13.5664,l,1,"[""0.155"",""0.657"",""0.551"",""0.817""]","[1,0,1,1]",0,0,0,0,1,1,0,,,1,FALSE,4.1156,,,,,,,,,,,,,,,,,,,,,,,,,,,,,,,
,613e47b64838fce3c50627e2,627c67d18064fe9f31d11826,2022-05-11_18h50.44.392,classification_task,2021.2.3,Win32,60.0024001,627c6715c52fd12f31907bd0,,,,,,,,,,,,,,,,,,,,,,,l,1,"[""0.657"",""0.405"",""0.551"",""0.817""]","[0,1,1,1]",0,1,1,1,1,1,0,,,1,FALSE,2.3525,,,,,,,,,,,,,,,,,,,,,,,,,,,,,,,
,613e47b64838fce3c50627e2,627c67d18064fe9f31d11826,2022-05-11_18h50.44.392,classification_task,2021.2.3,Win32,60.0024001,627c6715c52fd12f31907bd0,,,,,,,,,,,,,,,,,,,,,,,l,0,"[""0.782"",""0.335"",""0.593"",""0.955""]","[0,1,1,1]",0,2,2,2,1,0,1,,,1,FALSE,4.8993,,,,,,,,,,,,,,,,,,,,,,,,,,,,,,,
,613e47b64838fce3c50627e2,627c67d18064fe9f31d11826,2022-05-11_18h50.44.392,classification_task,2021.2.3,Win32,60.0024001,627c6715c52fd12f31907bd0,,,,,,,,,,,,,,,,,,,,,,,a,1,"[""0.272"",""0.335"",""0.593"",""0.630""]","[1,1,1,0]",0,3,3,3,1,0,1,,,1,FALSE,1.5149,,,,,,,,,,,,,,,,,,,,,,,,,,,,,,,
,613e47b64838fce3c50627e2,627c67d18064fe9f31d11826,2022-05-11_18h50.44.392,classification_task,2021.2.3,Win32,60.0024001,627c6715c52fd12f31907bd0,,,,,,,,,,,,,,,,,,,,,,,a,0,"[""0.100"",""0.197"",""0.062"",""0.730""]","[1,1,0,1]",0,4,4,4,1,1,1,,,1,FALSE,1.0226,,,,,,,,,,,,,,,,,,,,,,,,,,,,,,,
,613e47b64838fce3c50627e2,627c67d18064fe9f31d11826,2022-05-11_18h50.44.392,classification_task,2021.2.3,Win32,60.0024001,627c6715c52fd12f31907bd0,,,,,,,,,,,,,,,,,,,,,,,l,1,"[""0.100"",""0.775"",""0.453"",""0.730""]","[1,0,1,1]",0,5,5,5,1,1,1,,,1,FALSE,2.8731,,,,,,,,,,,,,,,,,,,,,,,,,,,,,,,
,613e47b64838fce3c50627e2,627c67d18064fe9f31d11826,2022-05-11_18h50.44.392,classification_task,2021.2.3,Win32,60.0024001,627c6715c52fd12f31907bd0,,,,,,,,,,,,,,,,,,,,,,,a,1,"[""0.238"",""0.511"",""0.858"",""0.630""]","[1,1,1,0]",0,6,6,6,1,0,0,,,1,FALSE,2.271,,,,,,,,,,,,,,,,,,,,,,,,,,,,,,,
,613e47b64838fce3c50627e2,627c67d18064fe9f31d11826,2022-05-11_18h50.44.392,classification_task,2021.2.3,Win32,60.0024001,627c6715c52fd12f31907bd0,,,,,,,,,,,,,,,,,,,,,,,a,0,"[""0.155"",""0.405"",""0.551"",""0.630""]","[1,1,1,0]",0,7,7,7,1,1,0,,,1,FALSE,1.1272,,,,,,,,,,,,,,,,,,,,,,,,,,,,,,,
,613e47b64838fce3c50627e2,627c67d18064fe9f31d11826,2022-05-11_18h50.44.392,classification_task,2021.2.3,Win32,60.0024001,627c6715c52fd12f31907bd0,,,,,,,,,,,,,,,,,,,,,,,a,1,"[""0.238"",""0.511"",""0.657"",""0.901""]","[1,1,0,1]",0,8,8,8,1,0,0,,,1,FALSE,3.3268,,,,,,,,,,,,,,,,,,,,,,,,,,,,,,,
,613e47b64838fce3c50627e2,627c67d18064fe9f31d11826,2022-05-11_18h50.44.392,classification_task,2021.2.3,Win32,60.0024001,627c6715c52fd12f31907bd0,,,,,,,,,,,,,,,,,,,,,,,a,0,"[""0.059"",""0.197"",""0.453"",""0.730""]","[0,1,1,1]",0,9,9,9,1,1,1,,,1,FALSE,1.1449,,,,,,,,,,,,,,,,,,,,,,,,,,,,,,,
,613e47b64838fce3c50627e2,627c67d18064fe9f31d11826,2022-05-11_18h50.44.392,classification_task,2021.2.3,Win32,60.0024001,627c6715c52fd12f31907bd0,,,,,,,,,,,,,,,,,,,,,,,l,0,"[""0.272"",""0.676"",""0.593"",""0.955""]","[1,0,1,1]",0,10,10,10,1,0,1,,,1,FALSE,1.1283,,,,,,,,,,,,,,,,,,,,,,,,,,,,,,,
,613e47b64838fce3c50627e2,627c67d18064fe9f31d11826,2022-05-11_18h50.44.392,classification_task,2021.2.3,Win32,60.0024001,627c6715c52fd12f31907bd0,,,,,,,,,,,,,,,,,,,,,,,a,0,"[""0.155"",""0.405"",""0.062"",""0.817""]","[1,1,0,1]",0,11,11,11,1,1,0,,,1,FALSE,1.5603,,,,,,,,,,,,,,,,,,,,,,,,,,,,,,,
,613e47b64838fce3c50627e2,627c67d18064fe9f31d11826,2022-05-11_18h50.44.392,classification_task,2021.2.3,Win32,60.0024001,627c6715c52fd12f31907bd0,,,,,,,,,,,,,,,,,,,,,,,l,0,"[""0.775"",""0.511"",""0.858"",""0.901""]","[0,1,1,1]",0,12,12,12,1,0,0,,,1,FALSE,2.4464,,,,,,,,,,,,,,,,,,,,,,,,,,,,,,,
,613e47b64838fce3c50627e2,627c67d18064fe9f31d11826,2022-05-11_18h50.44.392,classification_task,2021.2.3,Win32,60.0024001,627c6715c52fd12f31907bd0,,,,,,,,,,,,,,,,,,,,,,,l,0,"[""0.272"",""0.335"",""0.631"",""0.955""]","[1,1,0,1]",0,13,13,13,1,0,1,,,1,FALSE,1.2176,,,,,,,,,,,,,,,,,,,,,,,,,,,,,,,
,613e47b64838fce3c50627e2,627c67d18064fe9f31d11826,2022-05-11_18h50.44.392,classification_task,2021.2.3,Win32,60.0024001,627c6715c52fd12f31907bd0,,,,,,,,,,,,,,,,,,,,,,,l,0,"[""0.238"",""0.631"",""0.858"",""0.901""]","[1,0,1,1]",0,14,14,14,1,0,0,,,1,FALSE,1.7383,,,,,,,,,,,,,,,,,,,,,,,,,,,,,,,
,613e47b64838fce3c50627e2,627c67d18064fe9f31d11826,2022-05-11_18h50.44.392,classification_task,2021.2.3,Win32,60.0024001,627c6715c52fd12f31907bd0,,,,,,,,,,,,,,,,,,,,,,,a,0,"[""0.100"",""0.197"",""0.453"",""0.773""]","[1,1,1,0]",0,15,15,15,1,1,1,,,1,FALSE,1.3845,,,,,,,,,,,,,,,,,,,,,,,,,,,,,,,
,613e47b64838fce3c50627e2,627c67d18064fe9f31d11826,2022-05-11_18h50.44.392,classification_task,2021.2.3,Win32,60.0024001,627c6715c52fd12f31907bd0,,,,,,,,,,,,,,,,,,,,,,,a,0,"[""0.155"",""0.035"",""0.551"",""0.817""]","[1,0,1,1]",0,16,16,16,1,1,0,,,1,FALSE,1.3315,,,,,,,,,,,,,,,,,,,,,,,,,,,,,,,
,613e47b64838fce3c50627e2,627c67d18064fe9f31d11826,2022-05-11_18h50.44.392,classification_task,2021.2.3,Win32,60.0024001,627c6715c52fd12f31907bd0,,,,,,,,,,,,,,,,,,,,,,,a,0,"[""0.100"",""0.197"",""0.059"",""0.730""]","[1,1,0,1]",0,17,17,17,1,1,1,,,1,FALSE,0.9491,,,,,,,,,,,,,,,,,,,,,,,,,,,,,,,
,613e47b64838fce3c50627e2,627c67d18064fe9f31d11826,2022-05-11_18h50.44.392,classification_task,2021.2.3,Win32,60.0024001,627c6715c52fd12f31907bd0,,,,,,,,,,,,,,,,,,,,,,,a,0,"[""0.062"",""0.197"",""0.453"",""0.730""]","[0,1,1,1]",0,18,18,18,1,1,1,,,1,FALSE,1.1509,,,,,,,,,,,,,,,,,,,,,,,,,,,,,,,
,613e47b64838fce3c50627e2,627c67d18064fe9f31d11826,2022-05-11_18h50.44.392,classification_task,2021.2.3,Win32,60.0024001,627c6715c52fd12f31907bd0,,,,,,,,,,,,,,,,,,,,,,,a,0,"[""0.155"",""0.405"",""0.676"",""0.817""]","[1,1,0,1]",0,19,19,19,1,1,0,,,1,FALSE,2.93,,,,,,,,,,,,,,,,,,,,,,,,,,,,,,,
,613e47b64838fce3c50627e2,627c67d18064fe9f31d11826,2022-05-11_18h50.44.392,classification_task,2021.2.3,Win32,60.0024001,627c6715c52fd12f31907bd0,,,,,,,,,,,,,,,,,,,,,,,l,1,"[""0.100"",""0.197"",""0.453"",""0.775""]","[1,1,1,0]",0,20,20,20,1,1,1,,,1,FALSE,0.8982,,,,,,,,,,,,,,,,,,,,,,,,,,,,,,,
,613e47b64838fce3c50627e2,627c67d18064fe9f31d11826,2022-05-11_18h50.44.392,classification_task,2021.2.3,Win32,60.0024001,627c6715c52fd12f31907bd0,,,,,,,,,,,,,,,,,,,,,,,l,0,"[""0.630"",""0.335"",""0.593"",""0.955""]","[0,1,1,1]",0,21,21,21,1,0,1,,,1,FALSE,0.7614,,,,,,,,,,,,,,,,,,,,,,,,,,,,,,,
,613e47b64838fce3c50627e2,627c67d18064fe9f31d11826,2022-05-11_18h50.44.392,classification_task,2021.2.3,Win32,60.0024001,627c6715c52fd12f31907bd0,,,,,,,,,,,,,,,,,,,,,,,l,0,"[""0.238"",""0.773"",""0.858"",""0.901""]","[1,0,1,1]",0,22,22,22,1,0,0,,,1,FALSE,1.047,,,,,,,,,,,,,,,,,,,,,,,,,,,,,,,
,613e47b64838fce3c50627e2,627c67d18064fe9f31d11826,2022-05-11_18h50.44.392,classification_task,2021.2.3,Win32,60.0024001,627c6715c52fd12f31907bd0,,,,,,,,,,,,,,,,,,,,,,,a,0,"[""0.155"",""0.405"",""0.551"",""0.035""]","[1,1,1,0]",0,23,23,23,1,1,0,,,1,FALSE,0.6811,,,,,,,,,,,,,,,,,,,,,,,,,,,,,,,
,613e47b64838fce3c50627e2,627c67d18064fe9f31d11826,2022-05-11_18h50.44.392,classification_task,2021.2.3,Win32,60.0024001,627c6715c52fd12f31907bd0,,,,,,,,,,,,,,,,,,,,,,,a,1,"[""0.630"",""0.511"",""0.858"",""0.901""]","[0,1,1,1]",0,24,24,24,1,0,0,,,1,FALSE,0.5456,,,,,,,,,,,,,,,,,,,,,,,,,,,,,,,
,613e47b64838fce3c50627e2,627c67d18064fe9f31d11826,2022-05-11_18h50.44.392,classification_task,2021.2.3,Win32,60.0024001,627c6715c52fd12f31907bd0,,,,,,,,,,,,,,,,,,,,,,,a,0,"[""0.775"",""0.405"",""0.551"",""0.817""]","[0,1,1,1]",0,25,25,25,1,1,0,,,1,FALSE,0.7964,,,,,,,,,,,,,,,,,,,,,,,,,,,,,,,
,613e47b64838fce3c50627e2,627c67d18064fe9f31d11826,2022-05-11_18h50.44.392,classification_task,2021.2.3,Win32,60.0024001,627c6715c52fd12f31907bd0,,,,,,,,,,,,,,,,,,,,,,,l,0,"[""0.272"",""0.335"",""0.781"",""0.955""]","[1,1,0,1]",0,26,26,26,1,0,1,,,1,FALSE,0.9286,,,,,,,,,,,,,,,,,,,,,,,,,,,,,,,
,613e47b64838fce3c50627e2,627c67d18064fe9f31d11826,2022-05-11_18h50.44.392,classification_task,2021.2.3,Win32,60.0024001,627c6715c52fd12f31907bd0,,,,,,,,,,,,,,,,,,,,,,,a,1,"[""0.238"",""0.511"",""0.773"",""0.901""]","[1,1,0,1]",0,27,27,27,1,0,0,,,1,FALSE,1.1469,,,,,,,,,,,,,,,,,,,,,,,,,,,,,,,
,613e47b64838fce3c50627e2,627c67d18064fe9f31d11826,2022-05-11_18h50.44.392,classification_task,2021.2.3,Win32,60.0024001,627c6715c52fd12f31907bd0,,,,,,,,,,,,,,,,,,,,,,,l,0,"[""0.272"",""0.775"",""0.593"",""0.955""]","[1,0,1,1]",0,28,28,28,1,0,1,,,1,FALSE,1.4618,,,,,,,,,,,,,,,,,,,,,,,,,,,,,,,
,613e47b64838fce3c50627e2,627c67d18064fe9f31d11826,2022-05-11_18h50.44.392,classification_task,2021.2.3,Win32,60.0024001,627c6715c52fd12f31907bd0,,,,,,,,,,,,,,,,,,,,,,,a,1,"[""0.238"",""0.511"",""0.858"",""0.035""]","[1,1,1,0]",0,29,29,29,1,0,0,,,1,FALSE,1.013,,,,,,,,,,,,,,,,,,,,,,,,,,,,,,,
,613e47b64838fce3c50627e2,627c67d18064fe9f31d11826,2022-05-11_18h50.44.392,classification_task,2021.2.3,Win32,60.0024001,627c6715c52fd12f31907bd0,,,,,,,,,,,,,,,,,,,,,,,a,1,"[""0.272"",""0.335"",""0.593"",""0.773""]","[1,1,1,0]",0,30,30,30,1,0,1,,,1,FALSE,1.1361,,,,,,,,,,,,,,,,,,,,,,,,,,,,,,,
,613e47b64838fce3c50627e2,627c67d18064fe9f31d11826,2022-05-11_18h50.44.392,classification_task,2021.2.3,Win32,60.0024001,627c6715c52fd12f31907bd0,,,,,,,,,,,,,,,,,,,,,,,a,0,"[""0.100"",""0.676"",""0.453"",""0.730""]","[1,0,1,1]",0,31,31,31,1,1,1,,,1,FALSE,0.9444,,,,,,,,,,,,,,,,,,,,,,,,,,,,,,,
,613e47b64838fce3c50627e2,627c67d18064fe9f31d11826,2022-05-11_18h50.44.392,classification_task,2021.2.3,Win32,60.0024001,627c6715c52fd12f31907bd0,,,,,,,,,,,,,,,,,,,,,,,a,0,"[""0.100"",""0.197"",""0.062"",""0.730""]","[1,1,0,1]",0,32,32,32,1,1,1,,,1,FALSE,0.7593,,,,,,,,,,,,,,,,,,,,,,,,,,,,,,,
,613e47b64838fce3c50627e2,627c67d18064fe9f31d11826,2022-05-11_18h50.44.392,classification_task,2021.2.3,Win32,60.0024001,627c6715c52fd12f31907bd0,,,,,,,,,,,,,,,,,,,,,,,a,1,"[""0.676"",""0.335"",""0.593"",""0.955""]","[0,1,1,1]",0,33,33,33,1,0,1,,,1,FALSE,0.9577,,,,,,,,,,,,,,,,,,,,,,,,,,,,,,,
,613e47b64838fce3c50627e2,627c67d18064fe9f31d11826,2022-05-11_18h50.44.392,classification_task,2021.2.3,Win32,60.0024001,627c6715c52fd12f31907bd0,,,,,,,,,,,,,,,,,,,,,,,l,1,"[""0.155"",""0.405"",""0.551"",""0.775""]","[1,1,1,0]",0,34,34,34,1,1,0,,,1,FALSE,2.6215,,,,,,,,,,,,,,,,,,,,,,,,,,,,,,,
,613e47b64838fce3c50627e2,627c67d18064fe9f31d11826,2022-05-11_18h50.44.392,classification_task,2021.2.3,Win32,60.0024001,627c6715c52fd12f31907bd0,,,,,,,,,,,,,,,,,,,,,,,a,1,"[""0.272"",""0.059"",""0.593"",""0.955""]","[1,0,1,1]",0,35,35,35,1,0,1,,,1,FALSE,1.0559,,,,,,,,,,,,,,,,,,,,,,,,,,,,,,,
,613e47b64838fce3c50627e2,627c67d18064fe9f31d11826,2022-05-11_18h50.44.392,classification_task,2021.2.3,Win32,60.0024001,627c6715c52fd12f31907bd0,,,,,,,,,,,,,,,,,,,,,,,a,0,"[""0.155"",""0.405"",""0.059"",""0.817""]","[1,1,0,1]",0,36,36,36,1,1,0,,,1,FALSE,1.7405,,,,,,,,,,,,,,,,,,,,,,,,,,,,,,,
,613e47b64838fce3c50627e2,627c67d18064fe9f31d11826,2022-05-11_18h50.44.392,classification_task,2021.2.3,Win32,60.0024001,627c6715c52fd12f31907bd0,,,,,,,,,,,,,,,,,,,,,,,l,0,"[""0.238"",""0.511"",""0.858"",""0.780""]","[1,1,1,0]",0,37,37,37,1,0,0,,,1,FALSE,0.9464,,,,,,,,,,,,,,,,,,,,,,,,,,,,,,,
,613e47b64838fce3c50627e2,627c67d18064fe9f31d11826,2022-05-11_18h50.44.392,classification_task,2021.2.3,Win32,60.0024001,627c6715c52fd12f31907bd0,,,,,,,,,,,,,,,,,,,,,,,l,0,"[""0.628"",""0.511"",""0.858"",""0.901""]","[0,1,1,1]",0,38,38,38,1,0,0,,,1,FALSE,0.6803,,,,,,,,,,,,,,,,,,,,,,,,,,,,,,,
,613e47b64838fce3c50627e2,627c67d18064fe9f31d11826,2022-05-11_18h50.44.392,classification_task,2021.2.3,Win32,60.0024001,627c6715c52fd12f31907bd0,,,,,,,,,,,,,,,,,,,,,,,l,1,"[""0.631"",""0.405"",""0.551"",""0.817""]","[0,1,1,1]",0,39,39,39,1,1,0,,,1,FALSE,0.8138,,,,,,,,,,,,,,,,,,,,,,,,,,,,,,,
,613e47b64838fce3c50627e2,627c67d18064fe9f31d11826,2022-05-11_18h50.44.392,classification_task,2021.2.3,Win32,60.0024001,627c6715c52fd12f31907bd0,,,,,,,,,,,,,,,,,,,,,,,l,0,"[""0.272"",""0.335"",""0.059"",""0.955""]","[1,1,0,1]",0,40,40,40,1,0,1,,,1,FALSE,1.03,,,,,,,,,,,,,,,,,,,,,,,,,,,,,,,
,613e47b64838fce3c50627e2,627c67d18064fe9f31d11826,2022-05-11_18h50.44.392,classification_task,2021.2.3,Win32,60.0024001,627c6715c52fd12f31907bd0,,,,,,,,,,,,,,,,,,,,,,,l,1,"[""0.676"",""0.197"",""0.453"",""0.730""]","[0,1,1,1]",0,41,41,41,1,1,1,,,1,FALSE,0.6656,,,,,,,,,,,,,,,,,,,,,,,,,,,,,,,
,613e47b64838fce3c50627e2,627c67d18064fe9f31d11826,2022-05-11_18h50.44.392,classification_task,2021.2.3,Win32,60.0024001,627c6715c52fd12f31907bd0,,,,,,,,,,,,,,,,,,,,,,,l,1,"[""0.100"",""0.197"",""0.453"",""0.630""]","[1,1,1,0]",0,42,42,42,1,1,1,,,1,FALSE,0.7424,,,,,,,,,,,,,,,,,,,,,,,,,,,,,,,
,613e47b64838fce3c50627e2,627c67d18064fe9f31d11826,2022-05-11_18h50.44.392,classification_task,2021.2.3,Win32,60.0024001,627c6715c52fd12f31907bd0,,,,,,,,,,,,,,,,,,,,,,,a,1,"[""0.272"",""0.335"",""0.593"",""0.059""]","[1,1,1,0]",0,43,43,43,1,0,1,,,1,FALSE,0.9565,,,,,,,,,,,,,,,,,,,,,,,,,,,,,,,
,613e47b64838fce3c50627e2,627c67d18064fe9f31d11826,2022-05-11_18h50.44.392,classification_task,2021.2.3,Win32,60.0024001,627c6715c52fd12f31907bd0,,,,,,,,,,,,,,,,,,,,,,,l,0,"[""0.238"",""0.630"",""0.858"",""0.901""]","[1,0,1,1]",0,44,44,44,1,0,0,,,1,FALSE,1.3454,,,,,,,,,,,,,,,,,,,,,,,,,,,,,,,
,613e47b64838fce3c50627e2,627c67d18064fe9f31d11826,2022-05-11_18h50.44.392,classification_task,2021.2.3,Win32,60.0024001,627c6715c52fd12f31907bd0,,,,,,,,,,,,,,,,,,,,,,,l,1,"[""0.100"",""0.628"",""0.453"",""0.730""]","[1,0,1,1]",0,45,45,45,1,1,1,,,1,FALSE,1.3111,,,,,,,,,,,,,,,,,,,,,,,,,,,,,,,
,613e47b64838fce3c50627e2,627c67d18064fe9f31d11826,2022-05-11_18h50.44.392,classification_task,2021.2.3,Win32,60.0024001,627c6715c52fd12f31907bd0,,,,,,,,,,,,,,,,,,,,,,,l,0,"[""0.238"",""0.511"",""0.631"",""0.901""]","[1,1,0,1]",0,46,46,46,1,0,0,,,1,FALSE,2.0866,,,,,,,,,,,,,,,,,,,,,,,,,,,,,,,
,613e47b64838fce3c50627e2,627c67d18064fe9f31d11826,2022-05-11_18h50.44.392,classification_task,2021.2.3,Win32,60.0024001,627c6715c52fd12f31907bd0,,,,,,,,,,,,,,,,,,,,,,,a,0,"[""0.155"",""0.695"",""0.551"",""0.817""]","[1,0,1,1]",0,47,47,47,1,1,0,,,1,FALSE,1.1251,,,,,,,,,,,,,,,,,,,,,,,,,,,,,,,
,613e47b64838fce3c50627e2,627c67d18064fe9f31d11826,2022-05-11_18h50.44.392,classification_task,2021.2.3,Win32,60.0024001,627c6715c52fd12f31907bd0,,,,,,,,,,,,,,,,,,,,,,,a,0,"[""0.155"",""0.631"",""0.551"",""0.817""]","[1,0,1,1]",0,48,48,48,1,1,0,,,1,FALSE,0.6924,,,,,,,,,,,,,,,,,,,,,,,,,,,,,,,
,613e47b64838fce3c50627e2,627c67d18064fe9f31d11826,2022-05-11_18h50.44.392,classification_task,2021.2.3,Win32,60.0024001,627c6715c52fd12f31907bd0,,,,,,,,,,,,,,,,,,,,,,,a,1,"[""0.238"",""0.511"",""0.775"",""0.901""]","[1,1,0,1]",0,49,49,49,1,0,0,,,1,FALSE,0.6927,,,,,,,,,,,,,,,,,,,,,,,,,,,,,,,
,613e47b64838fce3c50627e2,627c67d18064fe9f31d11826,2022-05-11_18h50.44.392,classification_task,2021.2.3,Win32,60.0024001,627c6715c52fd12f31907bd0,,,,,,,,,,,,,,,,,,,,,,,l,0,"[""0.272"",""0.059"",""0.593"",""0.955""]","[1,0,1,1]",0,50,50,50,1,0,1,,,1,FALSE,0.9582,,,,,,,,,,,,,,,,,,,,,,,,,,,,,,,
,613e47b64838fce3c50627e2,627c67d18064fe9f31d11826,2022-05-11_18h50.44.392,classification_task,2021.2.3,Win32,60.0024001,627c6715c52fd12f31907bd0,,,,,,,,,,,,,,,,,,,,,,,l,1,"[""0.155"",""0.405"",""0.676"",""0.817""]","[1,1,0,1]",0,51,51,51,1,1,0,,,1,FALSE,1.6544,,,,,,,,,,,,,,,,,,,,,,,,,,,,,,,
,613e47b64838fce3c50627e2,627c67d18064fe9f31d11826,2022-05-11_18h50.44.392,classification_task,2021.2.3,Win32,60.0024001,627c6715c52fd12f31907bd0,,,,,,,,,,,,,,,,,,,,,,,l,0,"[""0.238"",""0.511"",""0.858"",""0.657""]","[1,1,1,0]",0,52,52,52,1,0,0,,,1,FALSE,1.4659,,,,,,,,,,,,,,,,,,,,,,,,,,,,,,,
,613e47b64838fce3c50627e2,627c67d18064fe9f31d11826,2022-05-11_18h50.44.392,classification_task,2021.2.3,Win32,60.0024001,627c6715c52fd12f31907bd0,,,,,,,,,,,,,,,,,,,,,,,a,0,"[""0.155"",""0.405"",""0.551"",""0.062""]","[1,1,1,0]",0,53,53,53,1,1,0,,,1,FALSE,0.6098,,,,,,,,,,,,,,,,,,,,,,,,,,,,,,,
,613e47b64838fce3c50627e2,627c67d18064fe9f31d11826,2022-05-11_18h50.44.392,classification_task,2021.2.3,Win32,60.0024001,627c6715c52fd12f31907bd0,,,,,,,,,,,,,,,,,,,,,,,l,1,"[""0.652"",""0.405"",""0.551"",""0.817""]","[0,1,1,1]",0,54,54,54,1,1,0,,,1,FALSE,0.4653,,,,,,,,,,,,,,,,,,,,,,,,,,,,,,,
,613e47b64838fce3c50627e2,627c67d18064fe9f31d11826,2022-05-11_18h50.44.392,classification_task,2021.2.3,Win32,60.0024001,627c6715c52fd12f31907bd0,,,,,,,,,,,,,,,,,,,,,,,l,1,"[""0.775"",""0.197"",""0.453"",""0.730""]","[0,1,1,1]",0,55,55,55,1,1,1,,,1,FALSE,0.8967,,,,,,,,,,,,,,,,,,,,,,,,,,,,,,,
,613e47b64838fce3c50627e2,627c67d18064fe9f31d11826,2022-05-11_18h50.44.392,classification_task,2021.2.3,Win32,60.0024001,627c6715c52fd12f31907bd0,,,,,,,,,,,,,,,,,,,,,,,l,0,"[""0.782"",""0.511"",""0.858"",""0.901""]","[0,1,1,1]",0,56,56,56,1,0,0,,,1,FALSE,1.0168,,,,,,,,,,,,,,,,,,,,,,,,,,,,,,,
,613e47b64838fce3c50627e2,627c67d18064fe9f31d11826,2022-05-11_18h50.44.392,classification_task,2021.2.3,Win32,60.0024001,627c6715c52fd12f31907bd0,,,,,,,,,,,,,,,,,,,,,,,l,0,"[""0.272"",""0.335"",""0.593"",""0.657""]","[1,1,1,0]",0,57,57,57,1,0,1,,,1,FALSE,0.5863,,,,,,,,,,,,,,,,,,,,,,,,,,,,,,,
,613e47b64838fce3c50627e2,627c67d18064fe9f31d11826,2022-05-11_18h50.44.392,classification_task,2021.2.3,Win32,60.0024001,627c6715c52fd12f31907bd0,,,,,,,,,,,,,,,,,,,,,,,l,1,"[""0.100"",""0.197"",""0.630"",""0.730""]","[1,1,0,1]",0,58,58,58,1,1,1,,,1,FALSE,0.7778,,,,,,,,,,,,,,,,,,,,,,,,,,,,,,,
,613e47b64838fce3c50627e2,627c67d18064fe9f31d11826,2022-05-11_18h50.44.392,classification_task,2021.2.3,Win32,60.0024001,627c6715c52fd12f31907bd0,,,,,,,,,,,,,,,,,,,,,,,a,1,"[""0.238"",""0.782"",""0.858"",""0.901""]","[1,0,1,1]",0,59,59,59,1,0,0,,,1,FALSE,3.7709,,,,,,,,,,,,,,,,,,,,,,,,,,,,,,,
,613e47b64838fce3c50627e2,627c67d18064fe9f31d11826,2022-05-11_18h50.44.392,classification_task,2021.2.3,Win32,60.0024001,627c6715c52fd12f31907bd0,,,,,,,,,,,,,,,,,,,,,,,l,1,"[""0.100"",""0.197"",""0.453"",""0.652""]","[1,1,1,0]",0,60,60,60,1,1,1,,,1,FALSE,0.8939,,,,,,,,,,,,,,,,,,,,,,,,,,,,,,,
,613e47b64838fce3c50627e2,627c67d18064fe9f31d11826,2022-05-11_18h50.44.392,classification_task,2021.2.3,Win32,60.0024001,627c6715c52fd12f31907bd0,,,,,,,,,,,,,,,,,,,,,,,a,1,"[""0.272"",""0.335"",""0.059"",""0.955""]","[1,1,0,1]",0,61,61,61,1,0,1,,,1,FALSE,0.8618,,,,,,,,,,,,,,,,,,,,,,,,,,,,,,,
,613e47b64838fce3c50627e2,627c67d18064fe9f31d11826,2022-05-11_18h50.44.392,classification_task,2021.2.3,Win32,60.0024001,627c6715c52fd12f31907bd0,,,,,,,,,,,,,,,,,,,,,,,l,1,"[""0.100"",""0.775"",""0.453"",""0.730""]","[1,0,1,1]",0,62,62,62,1,1,1,,,1,FALSE,0.5451,,,,,,,,,,,,,,,,,,,,,,,,,,,,,,,
,613e47b64838fce3c50627e2,627c67d18064fe9f31d11826,2022-05-11_18h50.44.392,classification_task,2021.2.3,Win32,60.0024001,627c6715c52fd12f31907bd0,,,,,,,,,,,,,,,,,,,,,,,l,0,"[""0.773"",""0.335"",""0.593"",""0.955""]","[0,1,1,1]",0,63,63,63,1,0,1,,,1,FALSE,0.847,,,,,,,,,,,,,,,,,,,,,,,,,,,,,,,
,613e47b64838fce3c50627e2,627c67d18064fe9f31d11826,2022-05-11_18h50.44.392,classification_task,2021.2.3,Win32,60.0024001,627c6715c52fd12f31907bd0,,,,,,,,,,,,,,,,,,,,,,,,,,,,,,,,,,,,,,,0, ,,0,0.797508818,170.4051,0,1,1,1,1,2,2,,,,,,,,,,,,,,,,,,
,613e47b64838fce3c50627e2,627c67d18064fe9f31d11826,2022-05-11_18h50.44.392,classification_task,2021.2.3,Win32,60.0024001,627c6715c52fd12f31907bd0,,,,,,,,,,,,,,,,,,,,,,,,,,,,,,,,,,,,,,,1,  ,,0,3.518794092,173.1883,0,1,1,1,1,2,2,,,,,,,,,,,,,,,,,,
,613e47b64838fce3c50627e2,627c67d18064fe9f31d11826,2022-05-11_18h50.44.392,classification_task,2021.2.3,Win32,60.0024001,627c6715c52fd12f31907bd0,,,,,,,,,,,,,,,,,,,,,,,,,,,,,,,,,,,,,,,2,  ,,0,1.934248236,175.466,0,1,1,1,1,2,2,,,,,,,,,,,,,,,,,,
,613e47b64838fce3c50627e2,627c67d18064fe9f31d11826,2022-05-11_18h50.44.392,classification_task,2021.2.3,Win32,60.0024001,627c6715c52fd12f31907bd0,,,,,,,,,,,,,,,,,,,,,,,,,,,,,,,,,,,,,,,,,,,,,0,1,1,1,1,,2,,,,,,,,,,,,,,,,,,
,613e47b64838fce3c50627e2,627c67d18064fe9f31d11826,2022-05-11_18h50.44.392,classification_task,2021.2.3,Win32,60.0024001,627c6715c52fd12f31907bd0,,,,,,,,,,,,,,,,,,,,,space,11.2752,l,1,"[""0.100"",""0.773"",""0.453"",""0.730""]","[1,0,1,1]",0,0,0,0,1,1,1,,,1,FALSE,2.9165,,,,,,,,,,,,,,,,,,,,,,,,,,,,,,,
,613e47b64838fce3c50627e2,627c67d18064fe9f31d11826,2022-05-11_18h50.44.392,classification_task,2021.2.3,Win32,60.0024001,627c6715c52fd12f31907bd0,,,,,,,,,,,,,,,,,,,,,,,a,1,"[""0.059"",""0.335"",""0.593"",""0.955""]","[0,1,1,1]",0,1,1,1,1,0,1,,,1,FALSE,1.6227,,,,,,,,,,,,,,,,,,,,,,,,,,,,,,,
,613e47b64838fce3c50627e2,627c67d18064fe9f31d11826,2022-05-11_18h50.44.392,classification_task,2021.2.3,Win32,60.0024001,627c6715c52fd12f31907bd0,,,,,,,,,,,,,,,,,,,,,,,l,1,"[""0.773"",""0.197"",""0.453"",""0.730""]","[0,1,1,1]",0,2,2,2,1,1,1,,,1,FALSE,0.777,,,,,,,,,,,,,,,,,,,,,,,,,,,,,,,
,613e47b64838fce3c50627e2,627c67d18064fe9f31d11826,2022-05-11_18h50.44.392,classification_task,2021.2.3,Win32,60.0024001,627c6715c52fd12f31907bd0,,,,,,,,,,,,,,,,,,,,,,,l,1,"[""0.155"",""0.773"",""0.551"",""0.817""]","[1,0,1,1]",0,3,3,3,1,1,0,,,1,FALSE,0.83,,,,,,,,,,,,,,,,,,,,,,,,,,,,,,,
,613e47b64838fce3c50627e2,627c67d18064fe9f31d11826,2022-05-11_18h50.44.392,classification_task,2021.2.3,Win32,60.0024001,627c6715c52fd12f31907bd0,,,,,,,,,,,,,,,,,,,,,,,l,0,"[""0.238"",""0.676"",""0.858"",""0.901""]","[1,0,1,1]",0,4,4,4,1,0,0,,,1,FALSE,0.8974,,,,,,,,,,,,,,,,,,,,,,,,,,,,,,,
,613e47b64838fce3c50627e2,627c67d18064fe9f31d11826,2022-05-11_18h50.44.392,classification_task,2021.2.3,Win32,60.0024001,627c6715c52fd12f31907bd0,,,,,,,,,,,,,,,,,,,,,,,a,0,"[""0.100"",""0.197"",""0.453"",""0.676""]","[1,1,1,0]",0,5,5,5,1,1,1,,,1,FALSE,0.7795,,,,,,,,,,,,,,,,,,,,,,,,,,,,,,,
,613e47b64838fce3c50627e2,627c67d18064fe9f31d11826,2022-05-11_18h50.44.392,classification_task,2021.2.3,Win32,60.0024001,627c6715c52fd12f31907bd0,,,,,,,,,,,,,,,,,,,,,,,a,0,"[""0.155"",""0.405"",""0.059"",""0.817""]","[1,1,0,1]",0,6,6,6,1,1,0,,,1,FALSE,1.694,,,,,,,,,,,,,,,,,,,,,,,,,,,,,,,
,613e47b64838fce3c50627e2,627c67d18064fe9f31d11826,2022-05-11_18h50.44.392,classification_task,2021.2.3,Win32,60.0024001,627c6715c52fd12f31907bd0,,,,,,,,,,,,,,,,,,,,,,,a,1,"[""0.272"",""0.335"",""0.773"",""0.955""]","[1,1,0,1]",0,7,7,7,1,0,1,,,1,FALSE,1.3983,,,,,,,,,,,,,,,,,,,,,,,,,,,,,,,
,613e47b64838fce3c50627e2,627c67d18064fe9f31d11826,2022-05-11_18h50.44.392,classification_task,2021.2.3,Win32,60.0024001,627c6715c52fd12f31907bd0,,,,,,,,,,,,,,,,,,,,,,,l,0,"[""0.272"",""0.335"",""0.593"",""0.062""]","[1,1,1,0]",0,8,8,8,1,0,1,,,1,FALSE,1.4283,,,,,,,,,,,,,,,,,,,,,,,,,,,,,,,
,613e47b64838fce3c50627e2,627c67d18064fe9f31d11826,2022-05-11_18h50.44.392,classification_task,2021.2.3,Win32,60.0024001,627c6715c52fd12f31907bd0,,,,,,,,,,,,,,,,,,,,,,,l,0,"[""0.238"",""0.511"",""0.858"",""0.775""]","[1,1,1,0]",0,9,9,9,1,0,0,,,1,FALSE,0.9959,,,,,,,,,,,,,,,,,,,,,,,,,,,,,,,
,613e47b64838fce3c50627e2,627c67d18064fe9f31d11826,2022-05-11_18h50.44.392,classification_task,2021.2.3,Win32,60.0024001,627c6715c52fd12f31907bd0,,,,,,,,,,,,,,,,,,,,,,,l,1,"[""0.100"",""0.197"",""0.035"",""0.730""]","[1,1,0,1]",0,10,10,10,1,1,1,,,1,FALSE,2.7771,,,,,,,,,,,,,,,,,,,,,,,,,,,,,,,
,613e47b64838fce3c50627e2,627c67d18064fe9f31d11826,2022-05-11_18h50.44.392,classification_task,2021.2.3,Win32,60.0024001,627c6715c52fd12f31907bd0,,,,,,,,,,,,,,,,,,,,,,,a,0,"[""0.155"",""0.405"",""0.551"",""0.657""]","[1,1,1,0]",0,11,11,11,1,1,0,,,1,FALSE,0.8117,,,,,,,,,,,,,,,,,,,,,,,,,,,,,,,
,613e47b64838fce3c50627e2,627c67d18064fe9f31d11826,2022-05-11_18h50.44.392,classification_task,2021.2.3,Win32,60.0024001,627c6715c52fd12f31907bd0,,,,,,,,,,,,,,,,,,,,,,,l,1,"[""0.780"",""0.405"",""0.551"",""0.817""]","[0,1,1,1]",0,12,12,12,1,1,0,,,1,FALSE,1.612,,,,,,,,,,,,,,,,,,,,,,,,,,,,,,,
,613e47b64838fce3c50627e2,627c67d18064fe9f31d11826,2022-05-11_18h50.44.392,classification_task,2021.2.3,Win32,60.0024001,627c6715c52fd12f31907bd0,,,,,,,,,,,,,,,,,,,,,,,l,0,"[""0.631"",""0.511"",""0.858"",""0.901""]","[0,1,1,1]",0,13,13,13,1,0,0,,,1,FALSE,0.6313,,,,,,,,,,,,,,,,,,,,,,,,,,,,,,,
,613e47b64838fce3c50627e2,627c67d18064fe9f31d11826,2022-05-11_18h50.44.392,classification_task,2021.2.3,Win32,60.0024001,627c6715c52fd12f31907bd0,,,,,,,,,,,,,,,,,,,,,,,a,1,"[""0.272"",""0.773"",""0.593"",""0.955""]","[1,0,1,1]",0,14,14,14,1,0,1,,,1,FALSE,1.2804,,,,,,,,,,,,,,,,,,,,,,,,,,,,,,,
,613e47b64838fce3c50627e2,627c67d18064fe9f31d11826,2022-05-11_18h50.44.392,classification_task,2021.2.3,Win32,60.0024001,627c6715c52fd12f31907bd0,,,,,,,,,,,,,,,,,,,,,,,a,1,"[""0.238"",""0.511"",""0.773"",""0.901""]","[1,1,0,1]",0,15,15,15,1,0,0,,,1,FALSE,0.7467,,,,,,,,,,,,,,,,,,,,,,,,,,,,,,,
,613e47b64838fce3c50627e2,627c67d18064fe9f31d11826,2022-05-11_18h50.44.392,classification_task,2021.2.3,Win32,60.0024001,627c6715c52fd12f31907bd0,,,,,,,,,,,,,,,,,,,,,,,l,1,"[""0.773"",""0.197"",""0.453"",""0.730""]","[0,1,1,1]",0,16,16,16,1,1,1,,,1,FALSE,1.1124,,,,,,,,,,,,,,,,,,,,,,,,,,,,,,,
,613e47b64838fce3c50627e2,627c67d18064fe9f31d11826,2022-05-11_18h50.44.392,classification_task,2021.2.3,Win32,60.0024001,627c6715c52fd12f31907bd0,,,,,,,,,,,,,,,,,,,,,,,l,0,"[""0.272"",""0.335"",""0.781"",""0.955""]","[1,1,0,1]",0,17,17,17,1,0,1,,,1,FALSE,2.4089,,,,,,,,,,,,,,,,,,,,,,,,,,,,,,,
,613e47b64838fce3c50627e2,627c67d18064fe9f31d11826,2022-05-11_18h50.44.392,classification_task,2021.2.3,Win32,60.0024001,627c6715c52fd12f31907bd0,,,,,,,,,,,,,,,,,,,,,,,l,0,"[""0.059"",""0.511"",""0.858"",""0.901""]","[0,1,1,1]",0,18,18,18,1,0,0,,,1,FALSE,0.8459,,,,,,,,,,,,,,,,,,,,,,,,,,,,,,,
,613e47b64838fce3c50627e2,627c67d18064fe9f31d11826,2022-05-11_18h50.44.392,classification_task,2021.2.3,Win32,60.0024001,627c6715c52fd12f31907bd0,,,,,,,,,,,,,,,,,,,,,,,l,0,"[""0.238"",""0.652"",""0.858"",""0.901""]","[1,0,1,1]",0,19,19,19,1,0,0,,,1,FALSE,0.9399,,,,,,,,,,,,,,,,,,,,,,,,,,,,,,,
,613e47b64838fce3c50627e2,627c67d18064fe9f31d11826,2022-05-11_18h50.44.392,classification_task,2021.2.3,Win32,60.0024001,627c6715c52fd12f31907bd0,,,,,,,,,,,,,,,,,,,,,,,l,1,"[""0.100"",""0.676"",""0.453"",""0.730""]","[1,0,1,1]",0,20,20,20,1,1,1,,,1,FALSE,1.429,,,,,,,,,,,,,,,,,,,,,,,,,,,,,,,
,613e47b64838fce3c50627e2,627c67d18064fe9f31d11826,2022-05-11_18h50.44.392,classification_task,2021.2.3,Win32,60.0024001,627c6715c52fd12f31907bd0,,,,,,,,,,,,,,,,,,,,,,,a,0,"[""0.100"",""0.197"",""0.628"",""0.730""]","[1,1,0,1]",0,21,21,21,1,1,1,,,1,FALSE,1.508,,,,,,,,,,,,,,,,,,,,,,,,,,,,,,,
,613e47b64838fce3c50627e2,627c67d18064fe9f31d11826,2022-05-11_18h50.44.392,classification_task,2021.2.3,Win32,60.0024001,627c6715c52fd12f31907bd0,,,,,,,,,,,,,,,,,,,,,,,a,0,"[""0.155"",""0.405"",""0.551"",""0.631""]","[1,1,1,0]",0,22,22,22,1,1,0,,,1,FALSE,0.8447,,,,,,,,,,,,,,,,,,,,,,,,,,,,,,,
,613e47b64838fce3c50627e2,627c67d18064fe9f31d11826,2022-05-11_18h50.44.392,classification_task,2021.2.3,Win32,60.0024001,627c6715c52fd12f31907bd0,,,,,,,,,,,,,,,,,,,,,,,a,1,"[""0.238"",""0.511"",""0.695"",""0.901""]","[1,1,0,1]",0,23,23,23,1,0,0,,,1,FALSE,1.1487,,,,,,,,,,,,,,,,,,,,,,,,,,,,,,,
,613e47b64838fce3c50627e2,627c67d18064fe9f31d11826,2022-05-11_18h50.44.392,classification_task,2021.2.3,Win32,60.0024001,627c6715c52fd12f31907bd0,,,,,,,,,,,,,,,,,,,,,,,a,0,"[""0.155"",""0.405"",""0.695"",""0.817""]","[1,1,0,1]",0,24,24,24,1,1,0,,,1,FALSE,1.7254,,,,,,,,,,,,,,,,,,,,,,,,,,,,,,,
,613e47b64838fce3c50627e2,627c67d18064fe9f31d11826,2022-05-11_18h50.44.392,classification_task,2021.2.3,Win32,60.0024001,627c6715c52fd12f31907bd0,,,,,,,,,,,,,,,,,,,,,,,l,1,"[""0.155"",""0.630"",""0.551"",""0.817""]","[1,0,1,1]",0,25,25,25,1,1,0,,,1,FALSE,0.9672,,,,,,,,,,,,,,,,,,,,,,,,,,,,,,,
,613e47b64838fce3c50627e2,627c67d18064fe9f31d11826,2022-05-11_18h50.44.392,classification_task,2021.2.3,Win32,60.0024001,627c6715c52fd12f31907bd0,,,,,,,,,,,,,,,,,,,,,,,l,0,"[""0.238"",""0.511"",""0.858"",""0.781""]","[1,1,1,0]",0,26,26,26,1,0,0,,,1,FALSE,0.8599,,,,,,,,,,,,,,,,,,,,,,,,,,,,,,,
,613e47b64838fce3c50627e2,627c67d18064fe9f31d11826,2022-05-11_18h50.44.392,classification_task,2021.2.3,Win32,60.0024001,627c6715c52fd12f31907bd0,,,,,,,,,,,,,,,,,,,,,,,a,0,"[""0.059"",""0.405"",""0.551"",""0.817""]","[0,1,1,1]",0,27,27,27,1,1,0,,,1,FALSE,1.4061,,,,,,,,,,,,,,,,,,,,,,,,,,,,,,,
,613e47b64838fce3c50627e2,627c67d18064fe9f31d11826,2022-05-11_18h50.44.392,classification_task,2021.2.3,Win32,60.0024001,627c6715c52fd12f31907bd0,,,,,,,,,,,,,,,,,,,,,,,a,0,"[""0.100"",""0.197"",""0.453"",""0.062""]","[1,1,1,0]",0,28,28,28,1,1,1,,,1,FALSE,1.1511,,,,,,,,,,,,,,,,,,,,,,,,,,,,,,,
,613e47b64838fce3c50627e2,627c67d18064fe9f31d11826,2022-05-11_18h50.44.392,classification_task,2021.2.3,Win32,60.0024001,627c6715c52fd12f31907bd0,,,,,,,,,,,,,,,,,,,,,,,l,0,"[""0.272"",""0.676"",""0.593"",""0.955""]","[1,0,1,1]",0,29,29,29,1,0,1,,,1,FALSE,0.581,,,,,,,,,,,,,,,,,,,,,,,,,,,,,,,
,613e47b64838fce3c50627e2,627c67d18064fe9f31d11826,2022-05-11_18h50.44.392,classification_task,2021.2.3,Win32,60.0024001,627c6715c52fd12f31907bd0,,,,,,,,,,,,,,,,,,,,,,,l,0,"[""0.773"",""0.335"",""0.593"",""0.955""]","[0,1,1,1]",0,30,30,30,1,0,1,,,1,FALSE,1.4576,,,,,,,,,,,,,,,,,,,,,,,,,,,,,,,
,613e47b64838fce3c50627e2,627c67d18064fe9f31d11826,2022-05-11_18h50.44.392,classification_task,2021.2.3,Win32,60.0024001,627c6715c52fd12f31907bd0,,,,,,,,,,,,,,,,,,,,,,,a,1,"[""0.272"",""0.335"",""0.593"",""0.062""]","[1,1,1,0]",0,31,31,31,1,0,1,,,1,FALSE,0.708,,,,,,,,,,,,,,,,,,,,,,,,,,,,,,,
,613e47b64838fce3c50627e2,627c67d18064fe9f31d11826,2022-05-11_18h50.44.392,classification_task,2021.2.3,Win32,60.0024001,627c6715c52fd12f31907bd0,,,,,,,,,,,,,,,,,,,,,,,l,0,"[""0.272"",""0.035"",""0.593"",""0.955""]","[1,0,1,1]",0,32,32,32,1,0,1,,,1,FALSE,1.208,,,,,,,,,,,,,,,,,,,,,,,,,,,,,,,
,613e47b64838fce3c50627e2,627c67d18064fe9f31d11826,2022-05-11_18h50.44.392,classification_task,2021.2.3,Win32,60.0024001,627c6715c52fd12f31907bd0,,,,,,,,,,,,,,,,,,,,,,,l,0,"[""0.238"",""0.511"",""0.628"",""0.901""]","[1,1,0,1]",0,33,33,33,1,0,0,,,1,FALSE,0.8907,,,,,,,,,,,,,,,,,,,,,,,,,,,,,,,
,613e47b64838fce3c50627e2,627c67d18064fe9f31d11826,2022-05-11_18h50.44.392,classification_task,2021.2.3,Win32,60.0024001,627c6715c52fd12f31907bd0,,,,,,,,,,,,,,,,,,,,,,,a,0,"[""0.652"",""0.197"",""0.453"",""0.730""]","[0,1,1,1]",0,34,34,34,1,1,1,,,1,FALSE,0.7737,,,,,,,,,,,,,,,,,,,,,,,,,,,,,,,
,613e47b64838fce3c50627e2,627c67d18064fe9f31d11826,2022-05-11_18h50.44.392,classification_task,2021.2.3,Win32,60.0024001,627c6715c52fd12f31907bd0,,,,,,,,,,,,,,,,,,,,,,,a,0,"[""0.155"",""0.405"",""0.551"",""0.630""]","[1,1,1,0]",0,35,35,35,1,1,0,,,1,FALSE,1.2402,,,,,,,,,,,,,,,,,,,,,,,,,,,,,,,
,613e47b64838fce3c50627e2,627c67d18064fe9f31d11826,2022-05-11_18h50.44.392,classification_task,2021.2.3,Win32,60.0024001,627c6715c52fd12f31907bd0,,,,,,,,,,,,,,,,,,,,,,,l,1,"[""0.100"",""0.773"",""0.453"",""0.730""]","[1,0,1,1]",0,36,36,36,1,1,1,,,1,FALSE,0.9896,,,,,,,,,,,,,,,,,,,,,,,,,,,,,,,
,613e47b64838fce3c50627e2,627c67d18064fe9f31d11826,2022-05-11_18h50.44.392,classification_task,2021.2.3,Win32,60.0024001,627c6715c52fd12f31907bd0,,,,,,,,,,,,,,,,,,,,,,,a,0,"[""0.780"",""0.405"",""0.551"",""0.817""]","[0,1,1,1]",0,37,37,37,1,1,0,,,1,FALSE,1.3747,,,,,,,,,,,,,,,,,,,,,,,,,,,,,,,
,613e47b64838fce3c50627e2,627c67d18064fe9f31d11826,2022-05-11_18h50.44.392,classification_task,2021.2.3,Win32,60.0024001,627c6715c52fd12f31907bd0,,,,,,,,,,,,,,,,,,,,,,,a,0,"[""0.155"",""0.775"",""0.551"",""0.817""]","[1,0,1,1]",0,38,38,38,1,1,0,,,1,FALSE,0.6251,,,,,,,,,,,,,,,,,,,,,,,,,,,,,,,
,613e47b64838fce3c50627e2,627c67d18064fe9f31d11826,2022-05-11_18h50.44.392,classification_task,2021.2.3,Win32,60.0024001,627c6715c52fd12f31907bd0,,,,,,,,,,,,,,,,,,,,,,,l,0,"[""0.272"",""0.335"",""0.652"",""0.955""]","[1,1,0,1]",0,39,39,39,1,0,1,,,1,FALSE,0.7075,,,,,,,,,,,,,,,,,,,,,,,,,,,,,,,
,613e47b64838fce3c50627e2,627c67d18064fe9f31d11826,2022-05-11_18h50.44.392,classification_task,2021.2.3,Win32,60.0024001,627c6715c52fd12f31907bd0,,,,,,,,,,,,,,,,,,,,,,,l,0,"[""0.272"",""0.335"",""0.593"",""0.631""]","[1,1,1,0]",0,40,40,40,1,0,1,,,1,FALSE,1.4228,,,,,,,,,,,,,,,,,,,,,,,,,,,,,,,
,613e47b64838fce3c50627e2,627c67d18064fe9f31d11826,2022-05-11_18h50.44.392,classification_task,2021.2.3,Win32,60.0024001,627c6715c52fd12f31907bd0,,,,,,,,,,,,,,,,,,,,,,,a,1,"[""0.630"",""0.335"",""0.593"",""0.955""]","[0,1,1,1]",0,41,41,41,1,0,1,,,1,FALSE,1.2101,,,,,,,,,,,,,,,,,,,,,,,,,,,,,,,
,613e47b64838fce3c50627e2,627c67d18064fe9f31d11826,2022-05-11_18h50.44.392,classification_task,2021.2.3,Win32,60.0024001,627c6715c52fd12f31907bd0,,,,,,,,,,,,,,,,,,,,,,,l,0,"[""0.780"",""0.511"",""0.858"",""0.901""]","[0,1,1,1]",0,42,42,42,1,0,0,,,1,FALSE,1.0572,,,,,,,,,,,,,,,,,,,,,,,,,,,,,,,
,613e47b64838fce3c50627e2,627c67d18064fe9f31d11826,2022-05-11_18h50.44.392,classification_task,2021.2.3,Win32,60.0024001,627c6715c52fd12f31907bd0,,,,,,,,,,,,,,,,,,,,,,,a,0,"[""0.100"",""0.197"",""0.453"",""0.781""]","[1,1,1,0]",0,43,43,43,1,1,1,,,1,FALSE,1.3891,,,,,,,,,,,,,,,,,,,,,,,,,,,,,,,
,613e47b64838fce3c50627e2,627c67d18064fe9f31d11826,2022-05-11_18h50.44.392,classification_task,2021.2.3,Win32,60.0024001,627c6715c52fd12f31907bd0,,,,,,,,,,,,,,,,,,,,,,,l,0,"[""0.238"",""0.775"",""0.858"",""0.901""]","[1,0,1,1]",0,44,44,44,1,0,0,,,1,FALSE,1.1236,,,,,,,,,,,,,,,,,,,,,,,,,,,,,,,
,613e47b64838fce3c50627e2,627c67d18064fe9f31d11826,2022-05-11_18h50.44.392,classification_task,2021.2.3,Win32,60.0024001,627c6715c52fd12f31907bd0,,,,,,,,,,,,,,,,,,,,,,,a,0,"[""0.100"",""0.197"",""0.676"",""0.730""]","[1,1,0,1]",0,45,45,45,1,1,1,,,1,FALSE,1.018,,,,,,,,,,,,,,,,,,,,,,,,,,,,,,,
,613e47b64838fce3c50627e2,627c67d18064fe9f31d11826,2022-05-11_18h50.44.392,classification_task,2021.2.3,Win32,60.0024001,627c6715c52fd12f31907bd0,,,,,,,,,,,,,,,,,,,,,,,a,1,"[""0.238"",""0.511"",""0.858"",""0.695""]","[1,1,1,0]",0,46,46,46,1,0,0,,,1,FALSE,1.1308,,,,,,,,,,,,,,,,,,,,,,,,,,,,,,,
,613e47b64838fce3c50627e2,627c67d18064fe9f31d11826,2022-05-11_18h50.44.392,classification_task,2021.2.3,Win32,60.0024001,627c6715c52fd12f31907bd0,,,,,,,,,,,,,,,,,,,,,,,l,1,"[""0.155"",""0.405"",""0.775"",""0.817""]","[1,1,0,1]",0,47,47,47,1,1,0,,,1,FALSE,0.9234,,,,,,,,,,,,,,,,,,,,,,,,,,,,,,,
,613e47b64838fce3c50627e2,627c67d18064fe9f31d11826,2022-05-11_18h50.44.392,classification_task,2021.2.3,Win32,60.0024001,627c6715c52fd12f31907bd0,,,,,,,,,,,,,,,,,,,,,,,a,0,"[""0.630"",""0.197"",""0.453"",""0.730""]","[0,1,1,1]",0,48,48,48,1,1,1,,,1,FALSE,0.8757,,,,,,,,,,,,,,,,,,,,,,,,,,,,,,,
,613e47b64838fce3c50627e2,627c67d18064fe9f31d11826,2022-05-11_18h50.44.392,classification_task,2021.2.3,Win32,60.0024001,627c6715c52fd12f31907bd0,,,,,,,,,,,,,,,,,,,,,,,l,0,"[""0.062"",""0.511"",""0.858"",""0.901""]","[0,1,1,1]",0,49,49,49,1,0,0,,,1,FALSE,0.7743,,,,,,,,,,,,,,,,,,,,,,,,,,,,,,,
,613e47b64838fce3c50627e2,627c67d18064fe9f31d11826,2022-05-11_18h50.44.392,classification_task,2021.2.3,Win32,60.0024001,627c6715c52fd12f31907bd0,,,,,,,,,,,,,,,,,,,,,,,l,1,"[""0.100"",""0.197"",""0.780"",""0.730""]","[1,1,0,1]",0,50,50,50,1,1,1,,,1,FALSE,1.0912,,,,,,,,,,,,,,,,,,,,,,,,,,,,,,,
,613e47b64838fce3c50627e2,627c67d18064fe9f31d11826,2022-05-11_18h50.44.392,classification_task,2021.2.3,Win32,60.0024001,627c6715c52fd12f31907bd0,,,,,,,,,,,,,,,,,,,,,,,l,1,"[""0.782"",""0.405"",""0.551"",""0.817""]","[0,1,1,1]",0,51,51,51,1,1,0,,,1,FALSE,1.3167,,,,,,,,,,,,,,,,,,,,,,,,,,,,,,,
,613e47b64838fce3c50627e2,627c67d18064fe9f31d11826,2022-05-11_18h50.44.392,classification_task,2021.2.3,Win32,60.0024001,627c6715c52fd12f31907bd0,,,,,,,,,,,,,,,,,,,,,,,a,0,"[""0.155"",""0.405"",""0.652"",""0.817""]","[1,1,0,1]",0,52,52,52,1,1,0,,,1,FALSE,0.9641,,,,,,,,,,,,,,,,,,,,,,,,,,,,,,,
,613e47b64838fce3c50627e2,627c67d18064fe9f31d11826,2022-05-11_18h50.44.392,classification_task,2021.2.3,Win32,60.0024001,627c6715c52fd12f31907bd0,,,,,,,,,,,,,,,,,,,,,,,a,1,"[""0.238"",""0.511"",""0.695"",""0.901""]","[1,1,0,1]",0,53,53,53,1,0,0,,,1,FALSE,1.1915,,,,,,,,,,,,,,,,,,,,,,,,,,,,,,,
,613e47b64838fce3c50627e2,627c67d18064fe9f31d11826,2022-05-11_18h50.44.392,classification_task,2021.2.3,Win32,60.0024001,627c6715c52fd12f31907bd0,,,,,,,,,,,,,,,,,,,,,,,a,0,"[""0.100"",""0.197"",""0.453"",""0.781""]","[1,1,1,0]",0,54,54,54,1,1,1,,,1,FALSE,1.2571,,,,,,,,,,,,,,,,,,,,,,,,,,,,,,,
,613e47b64838fce3c50627e2,627c67d18064fe9f31d11826,2022-05-11_18h50.44.392,classification_task,2021.2.3,Win32,60.0024001,627c6715c52fd12f31907bd0,,,,,,,,,,,,,,,,,,,,,,,l,0,"[""0.272"",""0.335"",""0.593"",""0.782""]","[1,1,1,0]",0,55,55,55,1,0,1,,,1,FALSE,0.7089,,,,,,,,,,,,,,,,,,,,,,,,,,,,,,,
,613e47b64838fce3c50627e2,627c67d18064fe9f31d11826,2022-05-11_18h50.44.392,classification_task,2021.2.3,Win32,60.0024001,627c6715c52fd12f31907bd0,,,,,,,,,,,,,,,,,,,,,,,l,1,"[""0.155"",""0.059"",""0.551"",""0.817""]","[1,0,1,1]",0,56,56,56,1,1,0,,,1,FALSE,0.9775,,,,,,,,,,,,,,,,,,,,,,,,,,,,,,,
,613e47b64838fce3c50627e2,627c67d18064fe9f31d11826,2022-05-11_18h50.44.392,classification_task,2021.2.3,Win32,60.0024001,627c6715c52fd12f31907bd0,,,,,,,,,,,,,,,,,,,,,,,a,1,"[""0.238"",""0.511"",""0.858"",""0.657""]","[1,1,1,0]",0,57,57,57,1,0,0,,,1,FALSE,1.0267,,,,,,,,,,,,,,,,,,,,,,,,,,,,,,,
,613e47b64838fce3c50627e2,627c67d18064fe9f31d11826,2022-05-11_18h50.44.392,classification_task,2021.2.3,Win32,60.0024001,627c6715c52fd12f31907bd0,,,,,,,,,,,,,,,,,,,,,,,a,0,"[""0.100"",""0.773"",""0.453"",""0.730""]","[1,0,1,1]",0,58,58,58,1,1,1,,,1,FALSE,1.4094,,,,,,,,,,,,,,,,,,,,,,,,,,,,,,,
,613e47b64838fce3c50627e2,627c67d18064fe9f31d11826,2022-05-11_18h50.44.392,classification_task,2021.2.3,Win32,60.0024001,627c6715c52fd12f31907bd0,,,,,,,,,,,,,,,,,,,,,,,l,0,"[""0.238"",""0.059"",""0.858"",""0.901""]","[1,0,1,1]",0,59,59,59,1,0,0,,,1,FALSE,0.7937,,,,,,,,,,,,,,,,,,,,,,,,,,,,,,,
,613e47b64838fce3c50627e2,627c67d18064fe9f31d11826,2022-05-11_18h50.44.392,classification_task,2021.2.3,Win32,60.0024001,627c6715c52fd12f31907bd0,,,,,,,,,,,,,,,,,,,,,,,a,0,"[""0.155"",""0.405"",""0.551"",""0.695""]","[1,1,1,0]",0,60,60,60,1,1,0,,,1,FALSE,1.0234,,,,,,,,,,,,,,,,,,,,,,,,,,,,,,,
,613e47b64838fce3c50627e2,627c67d18064fe9f31d11826,2022-05-11_18h50.44.392,classification_task,2021.2.3,Win32,60.0024001,627c6715c52fd12f31907bd0,,,,,,,,,,,,,,,,,,,,,,,l,0,"[""0.272"",""0.781"",""0.593"",""0.955""]","[1,0,1,1]",0,61,61,61,1,0,1,,,1,FALSE,1.5566,,,,,,,,,,,,,,,,,,,,,,,,,,,,,,,
,613e47b64838fce3c50627e2,627c67d18064fe9f31d11826,2022-05-11_18h50.44.392,classification_task,2021.2.3,Win32,60.0024001,627c6715c52fd12f31907bd0,,,,,,,,,,,,,,,,,,,,,,,l,0,"[""0.272"",""0.335"",""0.773"",""0.955""]","[1,1,0,1]",0,62,62,62,1,0,1,,,1,FALSE,1.0098,,,,,,,,,,,,,,,,,,,,,,,,,,,,,,,
,613e47b64838fce3c50627e2,627c67d18064fe9f31d11826,2022-05-11_18h50.44.392,classification_task,2021.2.3,Win32,60.0024001,627c6715c52fd12f31907bd0,,,,,,,,,,,,,,,,,,,,,,,l,0,"[""0.773"",""0.335"",""0.593"",""0.955""]","[0,1,1,1]",0,63,63,63,1,0,1,,,1,FALSE,0.8744,,,,,,,,,,,,,,,,,,,,,,,,,,,,,,,
,613e47b64838fce3c50627e2,627c67d18064fe9f31d11826,2022-05-11_18h50.44.392,classification_task,2021.2.3,Win32,60.0024001,627c6715c52fd12f31907bd0,,,,,,,,,,,,,,,,,,,,,,,,,,,,,,,,,,,,,,,0, ,,0,1.314208554,154.0685,0,2,2,2,1,2,3,,,,,,,,,,,,,,,,,,
,613e47b64838fce3c50627e2,627c67d18064fe9f31d11826,2022-05-11_18h50.44.392,classification_task,2021.2.3,Win32,60.0024001,627c6715c52fd12f31907bd0,,,,,,,,,,,,,,,,,,,,,,,,,,,,,,,,,,,,,,,1,  ,,0,1.762014991,157.0677,0,2,2,2,1,2,3,,,,,,,,,,,,,,,,,,
,613e47b64838fce3c50627e2,627c67d18064fe9f31d11826,2022-05-11_18h50.44.392,classification_task,2021.2.3,Win32,60.0024001,627c6715c52fd12f31907bd0,,,,,,,,,,,,,,,,,,,,,,,,,,,,,,,,,,,,,,,2,  ,,0,2.829861111,159.1038,0,2,2,2,1,2,3,,,,,,,,,,,,,,,,,,
,613e47b64838fce3c50627e2,627c67d18064fe9f31d11826,2022-05-11_18h50.44.392,classification_task,2021.2.3,Win32,60.0024001,627c6715c52fd12f31907bd0,,,,,,,,,,,,,,,,,,,,,,,,,,,,,,,,,,,,,,,,,,,,,0,2,2,2,1,,3,,,,,,,,,,,,,,,,,,
,613e47b64838fce3c50627e2,627c67d18064fe9f31d11826,2022-05-11_18h50.44.392,classification_task,2021.2.3,Win32,60.0024001,627c6715c52fd12f31907bd0,,,,,,,,,,,,,,,,,,,,,,,,,,,,,,,,,,,,,,,,,,,,,,,,,,,,,I believe the aid is a competent performer,,0.7,0,3,946.8181,0,0,0,0,1,0,,,,,
,613e47b64838fce3c50627e2,627c67d18064fe9f31d11826,2022-05-11_18h50.44.392,classification_task,2021.2.3,Win32,60.0024001,627c6715c52fd12f31907bd0,,,,,,,,,,,,,,,,,,,,,,,,,,,,,,,,,,,,,,,,,,,,,,,,,,,,,I trust the aid,,0.7,0,2,949.232,0,0,0,0,1,0,,,,,
,613e47b64838fce3c50627e2,627c67d18064fe9f31d11826,2022-05-11_18h50.44.392,classification_task,2021.2.3,Win32,60.0024001,627c6715c52fd12f31907bd0,,,,,,,,,,,,,,,,,,,,,,,,,,,,,,,,,,,,,,,,,,,,,,,,,,,,,I have confidence in the advice given by the aid,,0.7,0,4,955.0643,0,0,0,0,1,0,,,,,
,613e47b64838fce3c50627e2,627c67d18064fe9f31d11826,2022-05-11_18h50.44.392,classification_task,2021.2.3,Win32,60.0024001,627c6715c52fd12f31907bd0,,,,,,,,,,,,,,,,,,,,,,,,,,,,,,,,,,,,,,,,,,,,,,,,,,,,,I can depend on the aid,,0.7,0,4,958.2478,0,0,0,0,1,0,,,,,
,613e47b64838fce3c50627e2,627c67d18064fe9f31d11826,2022-05-11_18h50.44.392,classification_task,2021.2.3,Win32,60.0024001,627c6715c52fd12f31907bd0,,,,,,,,,,,,,,,,,,,,,,,,,,,,,,,,,,,,,,,,,,,,,,,,,,,,,I can rely on the aid to behave in consistent ways,,0.7,0,4,961.7578,0,0,0,0,1,0,,,,,
,613e47b64838fce3c50627e2,627c67d18064fe9f31d11826,2022-05-11_18h50.44.392,classification_task,2021.2.3,Win32,60.0024001,627c6715c52fd12f31907bd0,,,,,,,,,,,,,,,,,,,,,,,,,,,,,,,,,,,,,,,,,,,,,,,,,,,,,I can rely on the aid to do its best every time I take its advice,,0.7,0,4,966.3607,0,0,0,0,1,0,,,,,
,613e47b64838fce3c50627e2,627c67d18064fe9f31d11826,2022-05-11_18h50.44.392,classification_task,2021.2.3,Win32,60.0024001,627c6715c52fd12f31907bd0,,,,,,,,,,,,,,,,,,,,,,,,,,,,,,,,,,,,,,,,,,,,,,,,,,,,,"On trials you completed with assistance from the aid, how frequently did you think the aid was correct?",,0.7,0,70%,,0,0,0,0,1,0,,,,,
,613e47b64838fce3c50627e2,627c67d18064fe9f31d11826,2022-05-11_18h50.44.392,classification_task,2021.2.3,Win32,60.0024001,627c6715c52fd12f31907bd0,,,,,,,,,,,,,,,,,,,,,,,,,,,,,,,,,,,,,,,,,,,,,,,,,,,,,"On trials you completed without the aid, how frequently did you think you were correct?",,0.7,0,20%,,0,0,0,0,1,0,,,,,
,613e47b64838fce3c50627e2,627c67d18064fe9f31d11826,2022-05-11_18h50.44.392,classification_task,2021.2.3,Win32,60.0024001,627c6715c52fd12f31907bd0,,,,,,,,,,,,,,,,,,,,,,,,,,,,,,,,,,,,,,,,,,,,,,,,,,,,,,,,,,,0,0,0,0,1,,,,,,
,613e47b64838fce3c50627e2,627c67d18064fe9f31d11826,2022-05-11_18h50.44.392,classification_task,2021.2.3,Win32,60.0024001,627c6715c52fd12f31907bd0,,,,,,,,,,,,,,,,,,,,,,,,,,,,,,,,,,,,,,,,,,,,,,,,,,,,,,,,,,,,,,,,,space,11.0632,991.1644,,
,613e47b64838fce3c50627e2,627c67d18064fe9f31d11826,2022-05-11_18h50.44.392,classification_task,2021.2.3,Win32,60.0024001,627c6715c52fd12f31907bd0,,,,,,,,,,,,,,,,,,,,,,,,,,,,,,,,,,,,,,,,,,,,,,,,,,,,,,,,,,,,,,,,,,,,"Mozilla/5.0 (Windows NT 10.0; Win64; x64) AppleWebKit/537.36 (KHTML, like Gecko) Chrome/101.0.4951.54 Safari/537.36",
,613e47b64838fce3c50627e2,627c67d18064fe9f31d11826,2022-05-11_18h50.44.392,classification_task,2021.2.3,Win32,60.0024001,627c6715c52fd12f31907bd0,,,,,,,,,,,,,,,,,,,,,,,,,,,,,,,,,,,,,,,,,,,,,,,,,,,,,,,,,,,,,,,,,,,,,LOWLIGHT
