usingWebGL,participant,session,date,expName,psychopyVersion,OS,frameRate,study_id,signatures_friend,signatures_foe,band_ranges_top,band_ranges_bottom,formitemText,formtype,formundefined,formitemWidth,formindex,formresponse,formrt,key_resp_2.keys,key_resp_2.rt,tute_resp.keys,tute_resp.rt,tutorial.thisRepN,tutorial.thisTrialN,tutorial.thisN,tutorial.thisIndex,tutorial.ran,key_resp_4.keys,key_resp_4.rt,key_resp.keys,key_resp.corr,key_resp.rt,lines_presented,is_signal_presented,trials.thisRepN,trials.thisTrialN,trials.thisN,trials.thisIndex,trials.ran,vessel,active_band,lines,is_signal,supported_pos,catch_trial,debrief_formindex,debrief_formitemText,debrief_formtype,debrief_formitemWidth,debrief_formresponse,debrief_formrt,phases.thisRepN,phases.thisTrialN,phases.thisN,phases.thisIndex,phases.ran,phases.order,phase,key_resp_3.keys,trustitemText,trusttype,trustitemWidth,trustindex,trustresponse,trustrt,support_status.thisRepN,support_status.thisTrialN,support_status.thisN,support_status.thisIndex,support_status.ran,support_status.order,key_resp_5.keys,key_resp_5.rt,globalClockTime,userAgent,manualCondition
TRUE,613eb4f0b0ed6c2ce930bfba,627c7654f06d96c11627c5c6,2022-05-11_21h52.26.501,classification_task,2021.2.3,MacIntel,59.99880002,627c6715c52fd12f31907bd0,,,,,,,,,,,,,,,,,,,,,,,,,,,,,,,,,,,,,,,,,,,,,,,,,,,,,,,,,,,,,,,,,,,,,
,613eb4f0b0ed6c2ce930bfba,627c7654f06d96c11627c5c6,2022-05-11_21h52.26.501,classification_task,2021.2.3,MacIntel,59.99880002,627c6715c52fd12f31907bd0,"[[""0.309"",""0.370"",""0.847"",""0.975""],[""0.212"",""0.556"",""0.881"",""0.915""]]","[[""0.100"",""0.177"",""0.644"",""0.750""],[""0.026"",""0.271"",""0.514"",""0.690""]]","[1,10]","[100,1000]",Video game experience,,,0.7,0,,,,,,,,,,,,,,,,,,,,,,,,,,,,,,,,,,,,,,,,,,,,,,,,,,,,,,,,,,,,
,613eb4f0b0ed6c2ce930bfba,627c7654f06d96c11627c5c6,2022-05-11_21h52.26.501,classification_task,2021.2.3,MacIntel,59.99880002,627c6715c52fd12f31907bd0,,,,,Approximately how many hours did you spend playing video games in the last week?,,,0.7,0,10,,,,,,,,,,,,,,,,,,,,,,,,,,,,,,,,,,,,,,,,,,,,,,,,,,,,,,,,,,,
,613eb4f0b0ed6c2ce930bfba,627c7654f06d96c11627c5c6,2022-05-11_21h52.26.501,classification_task,2021.2.3,MacIntel,59.99880002,627c6715c52fd12f31907bd0,,,,,"Which game did you play the most this year? (Enter ""None"" if you didn't play any)",,,0.7,0,Minecraft,,,,,,,,,,,,,,,,,,,,,,,,,,,,,,,,,,,,,,,,,,,,,,,,,,,,,,,,,,,
,613eb4f0b0ed6c2ce930bfba,627c7654f06d96c11627c5c6,2022-05-11_21h52.26.501,classification_task,2021.2.3,MacIntel,59.99880002,627c6715c52fd12f31907bd0,,,,,Visual perception,,,0.7,0,,,,,,,,,,,,,,,,,,,,,,,,,,,,,,,,,,,,,,,,,,,,,,,,,,,,,,,,,,,,
,613eb4f0b0ed6c2ce930bfba,627c7654f06d96c11627c5c6,2022-05-11_21h52.26.501,classification_task,2021.2.3,MacIntel,59.99880002,627c6715c52fd12f31907bd0,,,,,Do you have any form of color blindness?,,,0.7,0,No,36.349,,,,,,,,,,,,,,,,,,,,,,,,,,,,,,,,,,,,,,,,,,,,,,,,,,,,,,,,,,
,613eb4f0b0ed6c2ce930bfba,627c7654f06d96c11627c5c6,2022-05-11_21h52.26.501,classification_task,2021.2.3,MacIntel,59.99880002,627c6715c52fd12f31907bd0,,,,,Do you use software to change the colour temperature of your screen (e.g. f.lux)?,,,0.7,0,Yes,42.8934,,,,,,,,,,,,,,,,,,,,,,,,,,,,,,,,,,,,,,,,,,,,,,,,,,,,,,,,,,
,613eb4f0b0ed6c2ce930bfba,627c7654f06d96c11627c5c6,2022-05-11_21h52.26.501,classification_task,2021.2.3,MacIntel,59.99880002,627c6715c52fd12f31907bd0,,,,,,,,,,,,space,29.18,space,6.5997,0,0,0,0,1,,,,,,,,,,,,,,,,,,,,,,,,,,,,,,,,,,,,,,,,,,,,,,,,,
,613eb4f0b0ed6c2ce930bfba,627c7654f06d96c11627c5c6,2022-05-11_21h52.26.501,classification_task,2021.2.3,MacIntel,59.99880002,627c6715c52fd12f31907bd0,,,,,,,,,,,,,,space,7.0506,1,0,1,0,1,,,,,,,,,,,,,,,,,,,,,,,,,,,,,,,,,,,,,,,,,,,,,,,,,
,613eb4f0b0ed6c2ce930bfba,627c7654f06d96c11627c5c6,2022-05-11_21h52.26.501,classification_task,2021.2.3,MacIntel,59.99880002,627c6715c52fd12f31907bd0,,,,,,,,,,,,,,space,23.5872,2,0,2,0,1,,,,,,,,,,,,,,,,,,,,,,,,,,,,,,,,,,,,,,,,,,,,,,,,,
,613eb4f0b0ed6c2ce930bfba,627c7654f06d96c11627c5c6,2022-05-11_21h52.26.501,classification_task,2021.2.3,MacIntel,59.99880002,627c6715c52fd12f31907bd0,,,,,,,,,,,,,,space,10.3971,3,0,3,0,1,,,,,,,,,,,,,,,,,,,,,,,,,,,,,,,,,,,,,,,,,,,,,,,,,
,613eb4f0b0ed6c2ce930bfba,627c7654f06d96c11627c5c6,2022-05-11_21h52.26.501,classification_task,2021.2.3,MacIntel,59.99880002,627c6715c52fd12f31907bd0,,,,,,,,,,,,,,space,35.4875,4,0,4,0,1,,,,,,,,,,,,,,,,,,,,,,,,,,,,,,,,,,,,,,,,,,,,,,,,,
,613eb4f0b0ed6c2ce930bfba,627c7654f06d96c11627c5c6,2022-05-11_21h52.26.501,classification_task,2021.2.3,MacIntel,59.99880002,627c6715c52fd12f31907bd0,,,,,,,,,,,,,,,,,,,,,space,10.5879,l,1,3.3356,"[""0.026"",""0.807"",""0.514"",""0.690""]","[1,0,1,1]",0,0,0,0,1,1,1,,,1,FALSE,,,,,,,,,,,,,,,,,,,,,,,,,,,,,,,
,613eb4f0b0ed6c2ce930bfba,627c7654f06d96c11627c5c6,2022-05-11_21h52.26.501,classification_task,2021.2.3,MacIntel,59.99880002,627c6715c52fd12f31907bd0,,,,,,,,,,,,,,,,,,,,,,,a,1,2.3508,"[""0.212"",""0.462"",""0.881"",""0.915""]","[1,0,1,1]",0,1,1,1,1,0,1,,,1,FALSE,,,,,,,,,,,,,,,,,,,,,,,,,,,,,,,
,613eb4f0b0ed6c2ce930bfba,627c7654f06d96c11627c5c6,2022-05-11_21h52.26.501,classification_task,2021.2.3,MacIntel,59.99880002,627c6715c52fd12f31907bd0,,,,,,,,,,,,,,,,,,,,,,,l,0,3.0417,"[""0.309"",""0.061"",""0.847"",""0.975""]","[1,0,1,1]",0,2,2,2,1,0,0,,,1,FALSE,,,,,,,,,,,,,,,,,,,,,,,,,,,,,,,
,613eb4f0b0ed6c2ce930bfba,627c7654f06d96c11627c5c6,2022-05-11_21h52.26.501,classification_task,2021.2.3,MacIntel,59.99880002,627c6715c52fd12f31907bd0,,,,,,,,,,,,,,,,,,,,,,,a,0,4.6025,"[""0.807"",""0.177"",""0.644"",""0.750""]","[0,1,1,1]",0,3,3,3,1,1,0,,,1,FALSE,,,,,,,,,,,,,,,,,,,,,,,,,,,,,,,
,613eb4f0b0ed6c2ce930bfba,627c7654f06d96c11627c5c6,2022-05-11_21h52.26.501,classification_task,2021.2.3,MacIntel,59.99880002,627c6715c52fd12f31907bd0,,,,,,,,,,,,,,,,,,,,,,,,0,,"[""0.407"",""0.370"",""0.847"",""0.975""]","[0,1,1,1]",0,4,4,4,1,0,0,,,1,FALSE,,,,,,,,,,,,,,,,,,,,,,,,,,,,,,,
,613eb4f0b0ed6c2ce930bfba,627c7654f06d96c11627c5c6,2022-05-11_21h52.26.501,classification_task,2021.2.3,MacIntel,59.99880002,627c6715c52fd12f31907bd0,,,,,,,,,,,,,,,,,,,,,,,l,0,2.2321,"[""0.212"",""0.556"",""0.881"",""0.061""]","[1,1,1,0]",0,5,5,5,1,0,1,,,1,FALSE,,,,,,,,,,,,,,,,,,,,,,,,,,,,,,,
,613eb4f0b0ed6c2ce930bfba,627c7654f06d96c11627c5c6,2022-05-11_21h52.26.501,classification_task,2021.2.3,MacIntel,59.99880002,627c6715c52fd12f31907bd0,,,,,,,,,,,,,,,,,,,,,,,a,1,3.8969,"[""0.309"",""0.370"",""0.807"",""0.975""]","[1,1,0,1]",0,6,6,6,1,0,0,,,1,FALSE,,,,,,,,,,,,,,,,,,,,,,,,,,,,,,,
,613eb4f0b0ed6c2ce930bfba,627c7654f06d96c11627c5c6,2022-05-11_21h52.26.501,classification_task,2021.2.3,MacIntel,59.99880002,627c6715c52fd12f31907bd0,,,,,,,,,,,,,,,,,,,,,,,a,1,2.7396,"[""0.309"",""0.370"",""0.847"",""0.479""]","[1,1,1,0]",0,7,7,7,1,0,0,,,1,FALSE,,,,,,,,,,,,,,,,,,,,,,,,,,,,,,,
,613eb4f0b0ed6c2ce930bfba,627c7654f06d96c11627c5c6,2022-05-11_21h52.26.501,classification_task,2021.2.3,MacIntel,59.99880002,627c6715c52fd12f31907bd0,,,,,,,,,,,,,,,,,,,,,,,l,1,2.496,"[""0.026"",""0.271"",""0.514"",""0.593""]","[1,1,1,0]",0,8,8,8,1,1,1,,,1,FALSE,,,,,,,,,,,,,,,,,,,,,,,,,,,,,,,
,613eb4f0b0ed6c2ce930bfba,627c7654f06d96c11627c5c6,2022-05-11_21h52.26.501,classification_task,2021.2.3,MacIntel,59.99880002,627c6715c52fd12f31907bd0,,,,,,,,,,,,,,,,,,,,,,,l,1,3.4454,"[""0.100"",""0.177"",""0.644"",""0.469""]","[1,1,1,0]",0,9,9,9,1,1,0,,,1,FALSE,,,,,,,,,,,,,,,,,,,,,,,,,,,,,,,
,613eb4f0b0ed6c2ce930bfba,627c7654f06d96c11627c5c6,2022-05-11_21h52.26.501,classification_task,2021.2.3,MacIntel,59.99880002,627c6715c52fd12f31907bd0,,,,,,,,,,,,,,,,,,,,,,,a,1,2.168,"[""0.212"",""0.556"",""0.593"",""0.915""]","[1,1,0,1]",0,10,10,10,1,0,1,,,1,FALSE,,,,,,,,,,,,,,,,,,,,,,,,,,,,,,,
,613eb4f0b0ed6c2ce930bfba,627c7654f06d96c11627c5c6,2022-05-11_21h52.26.501,classification_task,2021.2.3,MacIntel,59.99880002,627c6715c52fd12f31907bd0,,,,,,,,,,,,,,,,,,,,,,,l,1,2.6873,"[""0.026"",""0.271"",""0.416"",""0.690""]","[1,1,0,1]",0,11,11,11,1,1,1,,,1,FALSE,,,,,,,,,,,,,,,,,,,,,,,,,,,,,,,
,613eb4f0b0ed6c2ce930bfba,627c7654f06d96c11627c5c6,2022-05-11_21h52.26.501,classification_task,2021.2.3,MacIntel,59.99880002,627c6715c52fd12f31907bd0,,,,,,,,,,,,,,,,,,,,,,,l,1,1.7982,"[""0.100"",""0.177"",""0.420"",""0.750""]","[1,1,0,1]",0,12,12,12,1,1,0,,,1,FALSE,,,,,,,,,,,,,,,,,,,,,,,,,,,,,,,
,613eb4f0b0ed6c2ce930bfba,627c7654f06d96c11627c5c6,2022-05-11_21h52.26.501,classification_task,2021.2.3,MacIntel,59.99880002,627c6715c52fd12f31907bd0,,,,,,,,,,,,,,,,,,,,,,,l,1,4.4869,"[""0.807"",""0.271"",""0.514"",""0.690""]","[0,1,1,1]",0,13,13,13,1,1,1,,,1,FALSE,,,,,,,,,,,,,,,,,,,,,,,,,,,,,,,
,613eb4f0b0ed6c2ce930bfba,627c7654f06d96c11627c5c6,2022-05-11_21h52.26.501,classification_task,2021.2.3,MacIntel,59.99880002,627c6715c52fd12f31907bd0,,,,,,,,,,,,,,,,,,,,,,,l,1,4.0891,"[""0.100"",""0.479"",""0.644"",""0.750""]","[1,0,1,1]",0,14,14,14,1,1,0,,,1,FALSE,,,,,,,,,,,,,,,,,,,,,,,,,,,,,,,
,613eb4f0b0ed6c2ce930bfba,627c7654f06d96c11627c5c6,2022-05-11_21h52.26.501,classification_task,2021.2.3,MacIntel,59.99880002,627c6715c52fd12f31907bd0,,,,,,,,,,,,,,,,,,,,,,,a,1,2.4087,"[""0.807"",""0.556"",""0.881"",""0.915""]","[0,1,1,1]",0,15,15,15,1,0,1,,,1,FALSE,,,,,,,,,,,,,,,,,,,,,,,,,,,,,,,
,613eb4f0b0ed6c2ce930bfba,627c7654f06d96c11627c5c6,2022-05-11_21h52.26.501,classification_task,2021.2.3,MacIntel,59.99880002,627c6715c52fd12f31907bd0,,,,,,,,,,,,,,,,,,,,,,,l,1,3.4496,"[""0.026"",""0.462"",""0.514"",""0.690""]","[1,0,1,1]",0,16,16,16,1,1,1,,,1,FALSE,,,,,,,,,,,,,,,,,,,,,,,,,,,,,,,
,613eb4f0b0ed6c2ce930bfba,627c7654f06d96c11627c5c6,2022-05-11_21h52.26.501,classification_task,2021.2.3,MacIntel,59.99880002,627c6715c52fd12f31907bd0,,,,,,,,,,,,,,,,,,,,,,,a,1,3.7885,"[""0.212"",""0.556"",""0.469"",""0.915""]","[1,1,0,1]",0,17,17,17,1,0,1,,,1,FALSE,,,,,,,,,,,,,,,,,,,,,,,,,,,,,,,
,613eb4f0b0ed6c2ce930bfba,627c7654f06d96c11627c5c6,2022-05-11_21h52.26.501,classification_task,2021.2.3,MacIntel,59.99880002,627c6715c52fd12f31907bd0,,,,,,,,,,,,,,,,,,,,,,,l,1,1.9185,"[""0.100"",""0.177"",""0.644"",""0.595""]","[1,1,1,0]",0,18,18,18,1,1,0,,,1,FALSE,,,,,,,,,,,,,,,,,,,,,,,,,,,,,,,
,613eb4f0b0ed6c2ce930bfba,627c7654f06d96c11627c5c6,2022-05-11_21h52.26.501,classification_task,2021.2.3,MacIntel,59.99880002,627c6715c52fd12f31907bd0,,,,,,,,,,,,,,,,,,,,,,,a,1,2.0511,"[""0.309"",""0.370"",""0.479"",""0.975""]","[1,1,0,1]",0,19,19,19,1,0,0,,,1,FALSE,,,,,,,,,,,,,,,,,,,,,,,,,,,,,,,
,613eb4f0b0ed6c2ce930bfba,627c7654f06d96c11627c5c6,2022-05-11_21h52.26.501,classification_task,2021.2.3,MacIntel,59.99880002,627c6715c52fd12f31907bd0,,,,,,,,,,,,,,,,,,,,,,,a,1,2.1224,"[""0.479"",""0.370"",""0.847"",""0.975""]","[0,1,1,1]",0,20,20,20,1,0,0,,,1,FALSE,,,,,,,,,,,,,,,,,,,,,,,,,,,,,,,
,613eb4f0b0ed6c2ce930bfba,627c7654f06d96c11627c5c6,2022-05-11_21h52.26.501,classification_task,2021.2.3,MacIntel,59.99880002,627c6715c52fd12f31907bd0,,,,,,,,,,,,,,,,,,,,,,,l,0,3.2535,"[""0.212"",""0.556"",""0.881"",""0.061""]","[1,1,1,0]",0,21,21,21,1,0,1,,,1,FALSE,,,,,,,,,,,,,,,,,,,,,,,,,,,,,,,
,613eb4f0b0ed6c2ce930bfba,627c7654f06d96c11627c5c6,2022-05-11_21h52.26.501,classification_task,2021.2.3,MacIntel,59.99880002,627c6715c52fd12f31907bd0,,,,,,,,,,,,,,,,,,,,,,,a,1,5.0728,"[""0.593"",""0.556"",""0.881"",""0.915""]","[0,1,1,1]",0,22,22,22,1,0,1,,,1,FALSE,,,,,,,,,,,,,,,,,,,,,,,,,,,,,,,
,613eb4f0b0ed6c2ce930bfba,627c7654f06d96c11627c5c6,2022-05-11_21h52.26.501,classification_task,2021.2.3,MacIntel,59.99880002,627c6715c52fd12f31907bd0,,,,,,,,,,,,,,,,,,,,,,,l,1,3.2545,"[""0.061"",""0.271"",""0.514"",""0.690""]","[0,1,1,1]",0,23,23,23,1,1,1,,,1,FALSE,,,,,,,,,,,,,,,,,,,,,,,,,,,,,,,
,613eb4f0b0ed6c2ce930bfba,627c7654f06d96c11627c5c6,2022-05-11_21h52.26.501,classification_task,2021.2.3,MacIntel,59.99880002,627c6715c52fd12f31907bd0,,,,,,,,,,,,,,,,,,,,,,,l,1,2.6807,"[""0.100"",""0.177"",""0.412"",""0.750""]","[1,1,0,1]",0,24,24,24,1,1,0,,,1,FALSE,,,,,,,,,,,,,,,,,,,,,,,,,,,,,,,
,613eb4f0b0ed6c2ce930bfba,627c7654f06d96c11627c5c6,2022-05-11_21h52.26.501,classification_task,2021.2.3,MacIntel,59.99880002,627c6715c52fd12f31907bd0,,,,,,,,,,,,,,,,,,,,,,,l,0,2.8866,"[""0.309"",""0.061"",""0.847"",""0.975""]","[1,0,1,1]",0,25,25,25,1,0,0,,,1,FALSE,,,,,,,,,,,,,,,,,,,,,,,,,,,,,,,
,613eb4f0b0ed6c2ce930bfba,627c7654f06d96c11627c5c6,2022-05-11_21h52.26.501,classification_task,2021.2.3,MacIntel,59.99880002,627c6715c52fd12f31907bd0,,,,,,,,,,,,,,,,,,,,,,,l,1,2.1976,"[""0.026"",""0.271"",""0.514"",""0.061""]","[1,1,1,0]",0,26,26,26,1,1,1,,,1,FALSE,,,,,,,,,,,,,,,,,,,,,,,,,,,,,,,
,613eb4f0b0ed6c2ce930bfba,627c7654f06d96c11627c5c6,2022-05-11_21h52.26.501,classification_task,2021.2.3,MacIntel,59.99880002,627c6715c52fd12f31907bd0,,,,,,,,,,,,,,,,,,,,,,,l,1,3.8076,"[""0.462"",""0.177"",""0.644"",""0.750""]","[0,1,1,1]",0,27,27,27,1,1,0,,,1,FALSE,,,,,,,,,,,,,,,,,,,,,,,,,,,,,,,
,613eb4f0b0ed6c2ce930bfba,627c7654f06d96c11627c5c6,2022-05-11_21h52.26.501,classification_task,2021.2.3,MacIntel,59.99880002,627c6715c52fd12f31907bd0,,,,,,,,,,,,,,,,,,,,,,,a,1,2.4345,"[""0.309"",""0.370"",""0.847"",""0.416""]","[1,1,1,0]",0,28,28,28,1,0,0,,,1,FALSE,,,,,,,,,,,,,,,,,,,,,,,,,,,,,,,
,613eb4f0b0ed6c2ce930bfba,627c7654f06d96c11627c5c6,2022-05-11_21h52.26.501,classification_task,2021.2.3,MacIntel,59.99880002,627c6715c52fd12f31907bd0,,,,,,,,,,,,,,,,,,,,,,,l,1,1.982,"[""0.100"",""0.462"",""0.644"",""0.750""]","[1,0,1,1]",0,29,29,29,1,1,0,,,1,FALSE,,,,,,,,,,,,,,,,,,,,,,,,,,,,,,,
,613eb4f0b0ed6c2ce930bfba,627c7654f06d96c11627c5c6,2022-05-11_21h52.26.501,classification_task,2021.2.3,MacIntel,59.99880002,627c6715c52fd12f31907bd0,,,,,,,,,,,,,,,,,,,,,,,l,1,1.9337,"[""0.026"",""0.271"",""0.416"",""0.690""]","[1,1,0,1]",0,30,30,30,1,1,1,,,1,FALSE,,,,,,,,,,,,,,,,,,,,,,,,,,,,,,,
,613eb4f0b0ed6c2ce930bfba,627c7654f06d96c11627c5c6,2022-05-11_21h52.26.501,classification_task,2021.2.3,MacIntel,59.99880002,627c6715c52fd12f31907bd0,,,,,,,,,,,,,,,,,,,,,,,a,1,3.3993,"[""0.212"",""0.807"",""0.881"",""0.915""]","[1,0,1,1]",0,31,31,31,1,0,1,,,1,FALSE,,,,,,,,,,,,,,,,,,,,,,,,,,,,,,,
,613eb4f0b0ed6c2ce930bfba,627c7654f06d96c11627c5c6,2022-05-11_21h52.26.501,classification_task,2021.2.3,MacIntel,59.99880002,627c6715c52fd12f31907bd0,,,,,,,,,,,,,,,,,,,,,,,a,1,4.4321,"[""0.212"",""0.556"",""0.412"",""0.915""]","[1,1,0,1]",0,32,32,32,1,0,1,,,1,FALSE,,,,,,,,,,,,,,,,,,,,,,,,,,,,,,,
,613eb4f0b0ed6c2ce930bfba,627c7654f06d96c11627c5c6,2022-05-11_21h52.26.501,classification_task,2021.2.3,MacIntel,59.99880002,627c6715c52fd12f31907bd0,,,,,,,,,,,,,,,,,,,,,,,l,0,2.2228,"[""0.462"",""0.370"",""0.847"",""0.975""]","[0,1,1,1]",0,33,33,33,1,0,0,,,1,FALSE,,,,,,,,,,,,,,,,,,,,,,,,,,,,,,,
,613eb4f0b0ed6c2ce930bfba,627c7654f06d96c11627c5c6,2022-05-11_21h52.26.501,classification_task,2021.2.3,MacIntel,59.99880002,627c6715c52fd12f31907bd0,,,,,,,,,,,,,,,,,,,,,,,a,0,2.7346,"[""0.100"",""0.791"",""0.644"",""0.750""]","[1,0,1,1]",0,34,34,34,1,1,0,,,1,FALSE,,,,,,,,,,,,,,,,,,,,,,,,,,,,,,,
,613eb4f0b0ed6c2ce930bfba,627c7654f06d96c11627c5c6,2022-05-11_21h52.26.501,classification_task,2021.2.3,MacIntel,59.99880002,627c6715c52fd12f31907bd0,,,,,,,,,,,,,,,,,,,,,,,l,0,2.6359,"[""0.610"",""0.556"",""0.881"",""0.915""]","[0,1,1,1]",0,35,35,35,1,0,1,,,1,FALSE,,,,,,,,,,,,,,,,,,,,,,,,,,,,,,,
,613eb4f0b0ed6c2ce930bfba,627c7654f06d96c11627c5c6,2022-05-11_21h52.26.501,classification_task,2021.2.3,MacIntel,59.99880002,627c6715c52fd12f31907bd0,,,,,,,,,,,,,,,,,,,,,,,a,1,1.805,"[""0.309"",""0.370"",""0.061"",""0.975""]","[1,1,0,1]",0,36,36,36,1,0,0,,,1,FALSE,,,,,,,,,,,,,,,,,,,,,,,,,,,,,,,
,613eb4f0b0ed6c2ce930bfba,627c7654f06d96c11627c5c6,2022-05-11_21h52.26.501,classification_task,2021.2.3,MacIntel,59.99880002,627c6715c52fd12f31907bd0,,,,,,,,,,,,,,,,,,,,,,,a,1,2.108,"[""0.212"",""0.556"",""0.881"",""0.061""]","[1,1,1,0]",0,37,37,37,1,0,1,,,1,FALSE,,,,,,,,,,,,,,,,,,,,,,,,,,,,,,,
,613eb4f0b0ed6c2ce930bfba,627c7654f06d96c11627c5c6,2022-05-11_21h52.26.501,classification_task,2021.2.3,MacIntel,59.99880002,627c6715c52fd12f31907bd0,,,,,,,,,,,,,,,,,,,,,,,l,1,2.9878,"[""0.100"",""0.177"",""0.469"",""0.750""]","[1,1,0,1]",0,38,38,38,1,1,0,,,1,FALSE,,,,,,,,,,,,,,,,,,,,,,,,,,,,,,,
,613eb4f0b0ed6c2ce930bfba,627c7654f06d96c11627c5c6,2022-05-11_21h52.26.501,classification_task,2021.2.3,MacIntel,59.99880002,627c6715c52fd12f31907bd0,,,,,,,,,,,,,,,,,,,,,,,a,0,1.2182,"[""0.026"",""0.271"",""0.514"",""0.416""]","[1,1,1,0]",0,39,39,39,1,1,1,,,1,FALSE,,,,,,,,,,,,,,,,,,,,,,,,,,,,,,,
,613eb4f0b0ed6c2ce930bfba,627c7654f06d96c11627c5c6,2022-05-11_21h52.26.501,classification_task,2021.2.3,MacIntel,59.99880002,627c6715c52fd12f31907bd0,,,,,,,,,,,,,,,,,,,,,,,a,0,2.5323,"[""0.026"",""0.593"",""0.514"",""0.690""]","[1,0,1,1]",0,40,40,40,1,1,1,,,1,FALSE,,,,,,,,,,,,,,,,,,,,,,,,,,,,,,,
,613eb4f0b0ed6c2ce930bfba,627c7654f06d96c11627c5c6,2022-05-11_21h52.26.501,classification_task,2021.2.3,MacIntel,59.99880002,627c6715c52fd12f31907bd0,,,,,,,,,,,,,,,,,,,,,,,l,1,0.9843,"[""0.412"",""0.177"",""0.644"",""0.750""]","[0,1,1,1]",0,41,41,41,1,1,0,,,1,FALSE,,,,,,,,,,,,,,,,,,,,,,,,,,,,,,,
,613eb4f0b0ed6c2ce930bfba,627c7654f06d96c11627c5c6,2022-05-11_21h52.26.501,classification_task,2021.2.3,MacIntel,59.99880002,627c6715c52fd12f31907bd0,,,,,,,,,,,,,,,,,,,,,,,l,0,1.7307,"[""0.309"",""0.370"",""0.847"",""0.061""]","[1,1,1,0]",0,42,42,42,1,0,0,,,1,FALSE,,,,,,,,,,,,,,,,,,,,,,,,,,,,,,,
,613eb4f0b0ed6c2ce930bfba,627c7654f06d96c11627c5c6,2022-05-11_21h52.26.501,classification_task,2021.2.3,MacIntel,59.99880002,627c6715c52fd12f31907bd0,,,,,,,,,,,,,,,,,,,,,,,a,1,0.899,"[""0.309"",""0.610"",""0.847"",""0.975""]","[1,0,1,1]",0,43,43,43,1,0,0,,,1,FALSE,,,,,,,,,,,,,,,,,,,,,,,,,,,,,,,
,613eb4f0b0ed6c2ce930bfba,627c7654f06d96c11627c5c6,2022-05-11_21h52.26.501,classification_task,2021.2.3,MacIntel,59.99880002,627c6715c52fd12f31907bd0,,,,,,,,,,,,,,,,,,,,,,,l,1,2.4852,"[""0.026"",""0.271"",""0.474"",""0.690""]","[1,1,0,1]",0,44,44,44,1,1,1,,,1,FALSE,,,,,,,,,,,,,,,,,,,,,,,,,,,,,,,
,613eb4f0b0ed6c2ce930bfba,627c7654f06d96c11627c5c6,2022-05-11_21h52.26.501,classification_task,2021.2.3,MacIntel,59.99880002,627c6715c52fd12f31907bd0,,,,,,,,,,,,,,,,,,,,,,,a,0,2.523,"[""0.100"",""0.177"",""0.644"",""0.462""]","[1,1,1,0]",0,45,45,45,1,1,0,,,1,FALSE,,,,,,,,,,,,,,,,,,,,,,,,,,,,,,,
,613eb4f0b0ed6c2ce930bfba,627c7654f06d96c11627c5c6,2022-05-11_21h52.26.501,classification_task,2021.2.3,MacIntel,59.99880002,627c6715c52fd12f31907bd0,,,,,,,,,,,,,,,,,,,,,,,l,0,0.9524,"[""0.212"",""0.416"",""0.881"",""0.915""]","[1,0,1,1]",0,46,46,46,1,0,1,,,1,FALSE,,,,,,,,,,,,,,,,,,,,,,,,,,,,,,,
,613eb4f0b0ed6c2ce930bfba,627c7654f06d96c11627c5c6,2022-05-11_21h52.26.501,classification_task,2021.2.3,MacIntel,59.99880002,627c6715c52fd12f31907bd0,,,,,,,,,,,,,,,,,,,,,,,l,1,1.1505,"[""0.412"",""0.271"",""0.514"",""0.690""]","[0,1,1,1]",0,47,47,47,1,1,1,,,1,FALSE,,,,,,,,,,,,,,,,,,,,,,,,,,,,,,,
,613eb4f0b0ed6c2ce930bfba,627c7654f06d96c11627c5c6,2022-05-11_21h52.26.501,classification_task,2021.2.3,MacIntel,59.99880002,627c6715c52fd12f31907bd0,,,,,,,,,,,,,,,,,,,,,,,a,1,0.9645,"[""0.212"",""0.556"",""0.881"",""0.416""]","[1,1,1,0]",0,48,48,48,1,0,1,,,1,FALSE,,,,,,,,,,,,,,,,,,,,,,,,,,,,,,,
,613eb4f0b0ed6c2ce930bfba,627c7654f06d96c11627c5c6,2022-05-11_21h52.26.501,classification_task,2021.2.3,MacIntel,59.99880002,627c6715c52fd12f31907bd0,,,,,,,,,,,,,,,,,,,,,,,l,1,1.4808,"[""0.412"",""0.271"",""0.514"",""0.690""]","[0,1,1,1]",0,49,49,49,1,1,1,,,1,FALSE,,,,,,,,,,,,,,,,,,,,,,,,,,,,,,,
,613eb4f0b0ed6c2ce930bfba,627c7654f06d96c11627c5c6,2022-05-11_21h52.26.501,classification_task,2021.2.3,MacIntel,59.99880002,627c6715c52fd12f31907bd0,,,,,,,,,,,,,,,,,,,,,,,a,0,1.0055,"[""0.100"",""0.177"",""0.644"",""0.479""]","[1,1,1,0]",0,50,50,50,1,1,0,,,1,FALSE,,,,,,,,,,,,,,,,,,,,,,,,,,,,,,,
,613eb4f0b0ed6c2ce930bfba,627c7654f06d96c11627c5c6,2022-05-11_21h52.26.501,classification_task,2021.2.3,MacIntel,59.99880002,627c6715c52fd12f31907bd0,,,,,,,,,,,,,,,,,,,,,,,l,1,1.333,"[""0.026"",""0.271"",""0.469"",""0.690""]","[1,1,0,1]",0,51,51,51,1,1,1,,,1,FALSE,,,,,,,,,,,,,,,,,,,,,,,,,,,,,,,
,613eb4f0b0ed6c2ce930bfba,627c7654f06d96c11627c5c6,2022-05-11_21h52.26.501,classification_task,2021.2.3,MacIntel,59.99880002,627c6715c52fd12f31907bd0,,,,,,,,,,,,,,,,,,,,,,,a,1,2.2835,"[""0.212"",""0.407"",""0.881"",""0.915""]","[1,0,1,1]",0,52,52,52,1,0,1,,,1,FALSE,,,,,,,,,,,,,,,,,,,,,,,,,,,,,,,
,613eb4f0b0ed6c2ce930bfba,627c7654f06d96c11627c5c6,2022-05-11_21h52.26.501,classification_task,2021.2.3,MacIntel,59.99880002,627c6715c52fd12f31907bd0,,,,,,,,,,,,,,,,,,,,,,,a,1,1.3104,"[""0.061"",""0.556"",""0.881"",""0.915""]","[0,1,1,1]",0,53,53,53,1,0,1,,,1,FALSE,,,,,,,,,,,,,,,,,,,,,,,,,,,,,,,
,613eb4f0b0ed6c2ce930bfba,627c7654f06d96c11627c5c6,2022-05-11_21h52.26.501,classification_task,2021.2.3,MacIntel,59.99880002,627c6715c52fd12f31907bd0,,,,,,,,,,,,,,,,,,,,,,,l,1,0.9162,"[""0.100"",""0.593"",""0.644"",""0.750""]","[1,0,1,1]",0,54,54,54,1,1,0,,,1,FALSE,,,,,,,,,,,,,,,,,,,,,,,,,,,,,,,
,613eb4f0b0ed6c2ce930bfba,627c7654f06d96c11627c5c6,2022-05-11_21h52.26.501,classification_task,2021.2.3,MacIntel,59.99880002,627c6715c52fd12f31907bd0,,,,,,,,,,,,,,,,,,,,,,,a,1,2.0149,"[""0.212"",""0.556"",""0.474"",""0.915""]","[1,1,0,1]",0,55,55,55,1,0,1,,,1,FALSE,,,,,,,,,,,,,,,,,,,,,,,,,,,,,,,
,613eb4f0b0ed6c2ce930bfba,627c7654f06d96c11627c5c6,2022-05-11_21h52.26.501,classification_task,2021.2.3,MacIntel,59.99880002,627c6715c52fd12f31907bd0,,,,,,,,,,,,,,,,,,,,,,,l,0,1.8917,"[""0.309"",""0.370"",""0.420"",""0.975""]","[1,1,0,1]",0,56,56,56,1,0,0,,,1,FALSE,,,,,,,,,,,,,,,,,,,,,,,,,,,,,,,
,613eb4f0b0ed6c2ce930bfba,627c7654f06d96c11627c5c6,2022-05-11_21h52.26.501,classification_task,2021.2.3,MacIntel,59.99880002,627c6715c52fd12f31907bd0,,,,,,,,,,,,,,,,,,,,,,,a,0,0.9884,"[""0.100"",""0.177"",""0.807"",""0.750""]","[1,1,0,1]",0,57,57,57,1,1,0,,,1,FALSE,,,,,,,,,,,,,,,,,,,,,,,,,,,,,,,
,613eb4f0b0ed6c2ce930bfba,627c7654f06d96c11627c5c6,2022-05-11_21h52.26.501,classification_task,2021.2.3,MacIntel,59.99880002,627c6715c52fd12f31907bd0,,,,,,,,,,,,,,,,,,,,,,,a,0,0.6149,"[""0.026"",""0.469"",""0.514"",""0.690""]","[1,0,1,1]",0,58,58,58,1,1,1,,,1,FALSE,,,,,,,,,,,,,,,,,,,,,,,,,,,,,,,
,613eb4f0b0ed6c2ce930bfba,627c7654f06d96c11627c5c6,2022-05-11_21h52.26.501,classification_task,2021.2.3,MacIntel,59.99880002,627c6715c52fd12f31907bd0,,,,,,,,,,,,,,,,,,,,,,,a,0,0.9971,"[""0.407"",""0.177"",""0.644"",""0.750""]","[0,1,1,1]",0,59,59,59,1,1,0,,,1,FALSE,,,,,,,,,,,,,,,,,,,,,,,,,,,,,,,
,613eb4f0b0ed6c2ce930bfba,627c7654f06d96c11627c5c6,2022-05-11_21h52.26.501,classification_task,2021.2.3,MacIntel,59.99880002,627c6715c52fd12f31907bd0,,,,,,,,,,,,,,,,,,,,,,,l,0,0.7469,"[""0.791"",""0.370"",""0.847"",""0.975""]","[0,1,1,1]",0,60,60,60,1,0,0,,,1,FALSE,,,,,,,,,,,,,,,,,,,,,,,,,,,,,,,
,613eb4f0b0ed6c2ce930bfba,627c7654f06d96c11627c5c6,2022-05-11_21h52.26.501,classification_task,2021.2.3,MacIntel,59.99880002,627c6715c52fd12f31907bd0,,,,,,,,,,,,,,,,,,,,,,,a,0,2.7167,"[""0.026"",""0.271"",""0.514"",""0.420""]","[1,1,1,0]",0,61,61,61,1,1,1,,,1,FALSE,,,,,,,,,,,,,,,,,,,,,,,,,,,,,,,
,613eb4f0b0ed6c2ce930bfba,627c7654f06d96c11627c5c6,2022-05-11_21h52.26.501,classification_task,2021.2.3,MacIntel,59.99880002,627c6715c52fd12f31907bd0,,,,,,,,,,,,,,,,,,,,,,,l,0,1.6034,"[""0.309"",""0.807"",""0.847"",""0.975""]","[1,0,1,1]",0,62,62,62,1,0,0,,,1,FALSE,,,,,,,,,,,,,,,,,,,,,,,,,,,,,,,
,613eb4f0b0ed6c2ce930bfba,627c7654f06d96c11627c5c6,2022-05-11_21h52.26.501,classification_task,2021.2.3,MacIntel,59.99880002,627c6715c52fd12f31907bd0,,,,,,,,,,,,,,,,,,,,,,,l,0,1.7356,"[""0.309"",""0.370"",""0.847"",""0.807""]","[1,1,1,0]",0,63,63,63,1,0,0,,,1,FALSE,,,,,,,,,,,,,,,,,,,,,,,,,,,,,,,
,613eb4f0b0ed6c2ce930bfba,627c7654f06d96c11627c5c6,2022-05-11_21h52.26.501,classification_task,2021.2.3,MacIntel,59.99880002,627c6715c52fd12f31907bd0,,,,,,,,,,,,,,,,,,,,,,,,,,,,,,,,,,,,,,,0, ,,0,10,408.7516,0,0,0,0,1,2,1,,,,,,,,,,,,,,,,,,
,613eb4f0b0ed6c2ce930bfba,627c7654f06d96c11627c5c6,2022-05-11_21h52.26.501,classification_task,2021.2.3,MacIntel,59.99880002,627c6715c52fd12f31907bd0,,,,,,,,,,,,,,,,,,,,,,,,,,,,,,,,,,,,,,,1,  ,,0,9.158731379,416.1525,0,0,0,0,1,2,1,,,,,,,,,,,,,,,,,,
,613eb4f0b0ed6c2ce930bfba,627c7654f06d96c11627c5c6,2022-05-11_21h52.26.501,classification_task,2021.2.3,MacIntel,59.99880002,627c6715c52fd12f31907bd0,,,,,,,,,,,,,,,,,,,,,,,,,,,,,,,,,,,,,,,2,  ,,0,0.692130778,420.1046,0,0,0,0,1,2,1,,,,,,,,,,,,,,,,,,
,613eb4f0b0ed6c2ce930bfba,627c7654f06d96c11627c5c6,2022-05-11_21h52.26.501,classification_task,2021.2.3,MacIntel,59.99880002,627c6715c52fd12f31907bd0,,,,,,,,,,,,,,,,,,,,,,,,,,,,,,,,,,,,,,,,,,,,,0,0,0,0,1,,1,,,,,,,,,,,,,,,,,,
,613eb4f0b0ed6c2ce930bfba,627c7654f06d96c11627c5c6,2022-05-11_21h52.26.501,classification_task,2021.2.3,MacIntel,59.99880002,627c6715c52fd12f31907bd0,,,,,,,,,,,,,,,,,,,,,space,49.1486,l,1,2.1746,"[""0.100"",""0.479"",""0.644"",""0.750""]","[1,0,1,1]",0,0,0,0,1,1,0,,,1,FALSE,,,,,,,,,,,,,,,,,,,,,,,,,,,,,,,
,613eb4f0b0ed6c2ce930bfba,627c7654f06d96c11627c5c6,2022-05-11_21h52.26.501,classification_task,2021.2.3,MacIntel,59.99880002,627c6715c52fd12f31907bd0,,,,,,,,,,,,,,,,,,,,,,,a,1,1.8205,"[""0.309"",""0.370"",""0.847"",""0.593""]","[1,1,1,0]",0,1,1,1,1,0,0,,,1,FALSE,,,,,,,,,,,,,,,,,,,,,,,,,,,,,,,
,613eb4f0b0ed6c2ce930bfba,627c7654f06d96c11627c5c6,2022-05-11_21h52.26.501,classification_task,2021.2.3,MacIntel,59.99880002,627c6715c52fd12f31907bd0,,,,,,,,,,,,,,,,,,,,,,,l,0,3.2902,"[""0.212"",""0.469"",""0.881"",""0.915""]","[1,0,1,1]",0,2,2,2,1,0,1,,,1,FALSE,,,,,,,,,,,,,,,,,,,,,,,,,,,,,,,
,613eb4f0b0ed6c2ce930bfba,627c7654f06d96c11627c5c6,2022-05-11_21h52.26.501,classification_task,2021.2.3,MacIntel,59.99880002,627c6715c52fd12f31907bd0,,,,,,,,,,,,,,,,,,,,,,,a,0,1.113,"[""0.100"",""0.177"",""0.644"",""0.807""]","[1,1,1,0]",0,3,3,3,1,1,0,,,1,FALSE,,,,,,,,,,,,,,,,,,,,,,,,,,,,,,,
,613eb4f0b0ed6c2ce930bfba,627c7654f06d96c11627c5c6,2022-05-11_21h52.26.501,classification_task,2021.2.3,MacIntel,59.99880002,627c6715c52fd12f31907bd0,,,,,,,,,,,,,,,,,,,,,,,a,0,1.1135,"[""0.610"",""0.177"",""0.644"",""0.750""]","[0,1,1,1]",0,4,4,4,1,1,0,,,1,FALSE,,,,,,,,,,,,,,,,,,,,,,,,,,,,,,,
,613eb4f0b0ed6c2ce930bfba,627c7654f06d96c11627c5c6,2022-05-11_21h52.26.501,classification_task,2021.2.3,MacIntel,59.99880002,627c6715c52fd12f31907bd0,,,,,,,,,,,,,,,,,,,,,,,l,1,2.005,"[""0.807"",""0.271"",""0.514"",""0.690""]","[0,1,1,1]",0,5,5,5,1,1,1,,,1,FALSE,,,,,,,,,,,,,,,,,,,,,,,,,,,,,,,
,613eb4f0b0ed6c2ce930bfba,627c7654f06d96c11627c5c6,2022-05-11_21h52.26.501,classification_task,2021.2.3,MacIntel,59.99880002,627c6715c52fd12f31907bd0,,,,,,,,,,,,,,,,,,,,,,,a,0,0.8806,"[""0.026"",""0.271"",""0.514"",""0.061""]","[1,1,1,0]",0,6,6,6,1,1,1,,,1,FALSE,,,,,,,,,,,,,,,,,,,,,,,,,,,,,,,
,613eb4f0b0ed6c2ce930bfba,627c7654f06d96c11627c5c6,2022-05-11_21h52.26.501,classification_task,2021.2.3,MacIntel,59.99880002,627c6715c52fd12f31907bd0,,,,,,,,,,,,,,,,,,,,,,,a,0,0.9491,"[""0.026"",""0.061"",""0.514"",""0.690""]","[1,0,1,1]",0,7,7,7,1,1,1,,,1,FALSE,,,,,,,,,,,,,,,,,,,,,,,,,,,,,,,
,613eb4f0b0ed6c2ce930bfba,627c7654f06d96c11627c5c6,2022-05-11_21h52.26.501,classification_task,2021.2.3,MacIntel,59.99880002,627c6715c52fd12f31907bd0,,,,,,,,,,,,,,,,,,,,,,,l,0,2.2085,"[""0.309"",""0.370"",""0.807"",""0.975""]","[1,1,0,1]",0,8,8,8,1,0,0,,,1,FALSE,,,,,,,,,,,,,,,,,,,,,,,,,,,,,,,
,613eb4f0b0ed6c2ce930bfba,627c7654f06d96c11627c5c6,2022-05-11_21h52.26.501,classification_task,2021.2.3,MacIntel,59.99880002,627c6715c52fd12f31907bd0,,,,,,,,,,,,,,,,,,,,,,,a,1,2.3351,"[""0.309"",""0.791"",""0.847"",""0.975""]","[1,0,1,1]",0,9,9,9,1,0,0,,,1,FALSE,,,,,,,,,,,,,,,,,,,,,,,,,,,,,,,
,613eb4f0b0ed6c2ce930bfba,627c7654f06d96c11627c5c6,2022-05-11_21h52.26.501,classification_task,2021.2.3,MacIntel,59.99880002,627c6715c52fd12f31907bd0,,,,,,,,,,,,,,,,,,,,,,,l,1,1.4538,"[""0.100"",""0.177"",""0.412"",""0.750""]","[1,1,0,1]",0,10,10,10,1,1,0,,,1,FALSE,,,,,,,,,,,,,,,,,,,,,,,,,,,,,,,
,613eb4f0b0ed6c2ce930bfba,627c7654f06d96c11627c5c6,2022-05-11_21h52.26.501,classification_task,2021.2.3,MacIntel,59.99880002,627c6715c52fd12f31907bd0,,,,,,,,,,,,,,,,,,,,,,,a,1,2.6741,"[""0.212"",""0.556"",""0.881"",""0.412""]","[1,1,1,0]",0,11,11,11,1,0,1,,,1,FALSE,,,,,,,,,,,,,,,,,,,,,,,,,,,,,,,
,613eb4f0b0ed6c2ce930bfba,627c7654f06d96c11627c5c6,2022-05-11_21h52.26.501,classification_task,2021.2.3,MacIntel,59.99880002,627c6715c52fd12f31907bd0,,,,,,,,,,,,,,,,,,,,,,,a,0,2.3551,"[""0.026"",""0.271"",""0.807"",""0.690""]","[1,1,0,1]",0,12,12,12,1,1,1,,,1,FALSE,,,,,,,,,,,,,,,,,,,,,,,,,,,,,,,
,613eb4f0b0ed6c2ce930bfba,627c7654f06d96c11627c5c6,2022-05-11_21h52.26.501,classification_task,2021.2.3,MacIntel,59.99880002,627c6715c52fd12f31907bd0,,,,,,,,,,,,,,,,,,,,,,,l,0,3.8925,"[""0.477"",""0.370"",""0.847"",""0.975""]","[0,1,1,1]",0,13,13,13,1,0,0,,,1,FALSE,,,,,,,,,,,,,,,,,,,,,,,,,,,,,,,
,613eb4f0b0ed6c2ce930bfba,627c7654f06d96c11627c5c6,2022-05-11_21h52.26.501,classification_task,2021.2.3,MacIntel,59.99880002,627c6715c52fd12f31907bd0,,,,,,,,,,,,,,,,,,,,,,,a,1,1.4659,"[""0.212"",""0.556"",""0.416"",""0.915""]","[1,1,0,1]",0,14,14,14,1,0,1,,,1,FALSE,,,,,,,,,,,,,,,,,,,,,,,,,,,,,,,
,613eb4f0b0ed6c2ce930bfba,627c7654f06d96c11627c5c6,2022-05-11_21h52.26.501,classification_task,2021.2.3,MacIntel,59.99880002,627c6715c52fd12f31907bd0,,,,,,,,,,,,,,,,,,,,,,,l,0,1.1962,"[""0.595"",""0.556"",""0.881"",""0.915""]","[0,1,1,1]",0,15,15,15,1,0,1,,,1,FALSE,,,,,,,,,,,,,,,,,,,,,,,,,,,,,,,
,613eb4f0b0ed6c2ce930bfba,627c7654f06d96c11627c5c6,2022-05-11_21h52.26.501,classification_task,2021.2.3,MacIntel,59.99880002,627c6715c52fd12f31907bd0,,,,,,,,,,,,,,,,,,,,,,,a,1,2.7243,"[""0.469"",""0.370"",""0.847"",""0.975""]","[0,1,1,1]",0,16,16,16,1,0,0,,,1,FALSE,,,,,,,,,,,,,,,,,,,,,,,,,,,,,,,
,613eb4f0b0ed6c2ce930bfba,627c7654f06d96c11627c5c6,2022-05-11_21h52.26.501,classification_task,2021.2.3,MacIntel,59.99880002,627c6715c52fd12f31907bd0,,,,,,,,,,,,,,,,,,,,,,,l,0,1.0694,"[""0.309"",""0.807"",""0.847"",""0.975""]","[1,0,1,1]",0,17,17,17,1,0,0,,,1,FALSE,,,,,,,,,,,,,,,,,,,,,,,,,,,,,,,
,613eb4f0b0ed6c2ce930bfba,627c7654f06d96c11627c5c6,2022-05-11_21h52.26.501,classification_task,2021.2.3,MacIntel,59.99880002,627c6715c52fd12f31907bd0,,,,,,,,,,,,,,,,,,,,,,,a,0,1.3158,"[""0.610"",""0.177"",""0.644"",""0.750""]","[0,1,1,1]",0,18,18,18,1,1,0,,,1,FALSE,,,,,,,,,,,,,,,,,,,,,,,,,,,,,,,
,613eb4f0b0ed6c2ce930bfba,627c7654f06d96c11627c5c6,2022-05-11_21h52.26.501,classification_task,2021.2.3,MacIntel,59.99880002,627c6715c52fd12f31907bd0,,,,,,,,,,,,,,,,,,,,,,,a,1,1.8269,"[""0.212"",""0.479"",""0.881"",""0.915""]","[1,0,1,1]",0,19,19,19,1,0,1,,,1,FALSE,,,,,,,,,,,,,,,,,,,,,,,,,,,,,,,
,613eb4f0b0ed6c2ce930bfba,627c7654f06d96c11627c5c6,2022-05-11_21h52.26.501,classification_task,2021.2.3,MacIntel,59.99880002,627c6715c52fd12f31907bd0,,,,,,,,,,,,,,,,,,,,,,,l,1,2.6999,"[""0.100"",""0.412"",""0.644"",""0.750""]","[1,0,1,1]",0,20,20,20,1,1,0,,,1,FALSE,,,,,,,,,,,,,,,,,,,,,,,,,,,,,,,
,613eb4f0b0ed6c2ce930bfba,627c7654f06d96c11627c5c6,2022-05-11_21h52.26.501,classification_task,2021.2.3,MacIntel,59.99880002,627c6715c52fd12f31907bd0,,,,,,,,,,,,,,,,,,,,,,,a,0,1.4998,"[""0.026"",""0.271"",""0.061"",""0.690""]","[1,1,0,1]",0,21,21,21,1,1,1,,,1,FALSE,,,,,,,,,,,,,,,,,,,,,,,,,,,,,,,
,613eb4f0b0ed6c2ce930bfba,627c7654f06d96c11627c5c6,2022-05-11_21h52.26.501,classification_task,2021.2.3,MacIntel,59.99880002,627c6715c52fd12f31907bd0,,,,,,,,,,,,,,,,,,,,,,,a,0,1.7148,"[""0.477"",""0.271"",""0.514"",""0.690""]","[0,1,1,1]",0,22,22,22,1,1,1,,,1,FALSE,,,,,,,,,,,,,,,,,,,,,,,,,,,,,,,
,613eb4f0b0ed6c2ce930bfba,627c7654f06d96c11627c5c6,2022-05-11_21h52.26.501,classification_task,2021.2.3,MacIntel,59.99880002,627c6715c52fd12f31907bd0,,,,,,,,,,,,,,,,,,,,,,,l,0,1.0353,"[""0.212"",""0.556"",""0.061"",""0.915""]","[1,1,0,1]",0,23,23,23,1,0,1,,,1,FALSE,,,,,,,,,,,,,,,,,,,,,,,,,,,,,,,
,613eb4f0b0ed6c2ce930bfba,627c7654f06d96c11627c5c6,2022-05-11_21h52.26.501,classification_task,2021.2.3,MacIntel,59.99880002,627c6715c52fd12f31907bd0,,,,,,,,,,,,,,,,,,,,,,,l,0,2.4925,"[""0.309"",""0.370"",""0.420"",""0.975""]","[1,1,0,1]",0,24,24,24,1,0,0,,,1,FALSE,,,,,,,,,,,,,,,,,,,,,,,,,,,,,,,
,613eb4f0b0ed6c2ce930bfba,627c7654f06d96c11627c5c6,2022-05-11_21h52.26.501,classification_task,2021.2.3,MacIntel,59.99880002,627c6715c52fd12f31907bd0,,,,,,,,,,,,,,,,,,,,,,,a,1,3.9517,"[""0.212"",""0.556"",""0.881"",""0.477""]","[1,1,1,0]",0,25,25,25,1,0,1,,,1,FALSE,,,,,,,,,,,,,,,,,,,,,,,,,,,,,,,
,613eb4f0b0ed6c2ce930bfba,627c7654f06d96c11627c5c6,2022-05-11_21h52.26.501,classification_task,2021.2.3,MacIntel,59.99880002,627c6715c52fd12f31907bd0,,,,,,,,,,,,,,,,,,,,,,,l,0,2.4321,"[""0.309"",""0.370"",""0.847"",""0.469""]","[1,1,1,0]",0,26,26,26,1,0,0,,,1,FALSE,,,,,,,,,,,,,,,,,,,,,,,,,,,,,,,
,613eb4f0b0ed6c2ce930bfba,627c7654f06d96c11627c5c6,2022-05-11_21h52.26.501,classification_task,2021.2.3,MacIntel,59.99880002,627c6715c52fd12f31907bd0,,,,,,,,,,,,,,,,,,,,,,,a,1,1.0964,"[""0.469"",""0.556"",""0.881"",""0.915""]","[0,1,1,1]",0,27,27,27,1,0,1,,,1,FALSE,,,,,,,,,,,,,,,,,,,,,,,,,,,,,,,
,613eb4f0b0ed6c2ce930bfba,627c7654f06d96c11627c5c6,2022-05-11_21h52.26.501,classification_task,2021.2.3,MacIntel,59.99880002,627c6715c52fd12f31907bd0,,,,,,,,,,,,,,,,,,,,,,,l,1,0.7316,"[""0.026"",""0.271"",""0.514"",""0.791""]","[1,1,1,0]",0,28,28,28,1,1,1,,,1,FALSE,,,,,,,,,,,,,,,,,,,,,,,,,,,,,,,
,613eb4f0b0ed6c2ce930bfba,627c7654f06d96c11627c5c6,2022-05-11_21h52.26.501,classification_task,2021.2.3,MacIntel,59.99880002,627c6715c52fd12f31907bd0,,,,,,,,,,,,,,,,,,,,,,,l,1,2.5329,"[""0.026"",""0.469"",""0.514"",""0.690""]","[1,0,1,1]",0,29,29,29,1,1,1,,,1,FALSE,,,,,,,,,,,,,,,,,,,,,,,,,,,,,,,
,613eb4f0b0ed6c2ce930bfba,627c7654f06d96c11627c5c6,2022-05-11_21h52.26.501,classification_task,2021.2.3,MacIntel,59.99880002,627c6715c52fd12f31907bd0,,,,,,,,,,,,,,,,,,,,,,,a,0,1.5134,"[""0.100"",""0.177"",""0.644"",""0.412""]","[1,1,1,0]",0,30,30,30,1,1,0,,,1,FALSE,,,,,,,,,,,,,,,,,,,,,,,,,,,,,,,
,613eb4f0b0ed6c2ce930bfba,627c7654f06d96c11627c5c6,2022-05-11_21h52.26.501,classification_task,2021.2.3,MacIntel,59.99880002,627c6715c52fd12f31907bd0,,,,,,,,,,,,,,,,,,,,,,,l,1,1.0811,"[""0.100"",""0.177"",""0.407"",""0.750""]","[1,1,0,1]",0,31,31,31,1,1,0,,,1,FALSE,,,,,,,,,,,,,,,,,,,,,,,,,,,,,,,
,613eb4f0b0ed6c2ce930bfba,627c7654f06d96c11627c5c6,2022-05-11_21h52.26.501,classification_task,2021.2.3,MacIntel,59.99880002,627c6715c52fd12f31907bd0,,,,,,,,,,,,,,,,,,,,,,,l,1,1.9021,"[""0.026"",""0.610"",""0.514"",""0.690""]","[1,0,1,1]",0,32,32,32,1,1,1,,,1,FALSE,,,,,,,,,,,,,,,,,,,,,,,,,,,,,,,
,613eb4f0b0ed6c2ce930bfba,627c7654f06d96c11627c5c6,2022-05-11_21h52.26.501,classification_task,2021.2.3,MacIntel,59.99880002,627c6715c52fd12f31907bd0,,,,,,,,,,,,,,,,,,,,,,,l,1,1.1226,"[""0.026"",""0.271"",""0.474"",""0.690""]","[1,1,0,1]",0,33,33,33,1,1,1,,,1,FALSE,,,,,,,,,,,,,,,,,,,,,,,,,,,,,,,
,613eb4f0b0ed6c2ce930bfba,627c7654f06d96c11627c5c6,2022-05-11_21h52.26.501,classification_task,2021.2.3,MacIntel,59.99880002,627c6715c52fd12f31907bd0,,,,,,,,,,,,,,,,,,,,,,,a,0,1.3443,"[""0.469"",""0.177"",""0.644"",""0.750""]","[0,1,1,1]",0,34,34,34,1,1,0,,,1,FALSE,,,,,,,,,,,,,,,,,,,,,,,,,,,,,,,
,613eb4f0b0ed6c2ce930bfba,627c7654f06d96c11627c5c6,2022-05-11_21h52.26.501,classification_task,2021.2.3,MacIntel,59.99880002,627c6715c52fd12f31907bd0,,,,,,,,,,,,,,,,,,,,,,,a,0,1.3012,"[""0.100"",""0.177"",""0.644"",""0.469""]","[1,1,1,0]",0,35,35,35,1,1,0,,,1,FALSE,,,,,,,,,,,,,,,,,,,,,,,,,,,,,,,
,613eb4f0b0ed6c2ce930bfba,627c7654f06d96c11627c5c6,2022-05-11_21h52.26.501,classification_task,2021.2.3,MacIntel,59.99880002,627c6715c52fd12f31907bd0,,,,,,,,,,,,,,,,,,,,,,,a,1,1.031,"[""0.212"",""0.061"",""0.881"",""0.915""]","[1,0,1,1]",0,36,36,36,1,0,1,,,1,FALSE,,,,,,,,,,,,,,,,,,,,,,,,,,,,,,,
,613eb4f0b0ed6c2ce930bfba,627c7654f06d96c11627c5c6,2022-05-11_21h52.26.501,classification_task,2021.2.3,MacIntel,59.99880002,627c6715c52fd12f31907bd0,,,,,,,,,,,,,,,,,,,,,,,l,1,1.3947,"[""0.100"",""0.177"",""0.462"",""0.750""]","[1,1,0,1]",0,37,37,37,1,1,0,,,1,FALSE,,,,,,,,,,,,,,,,,,,,,,,,,,,,,,,
,613eb4f0b0ed6c2ce930bfba,627c7654f06d96c11627c5c6,2022-05-11_21h52.26.501,classification_task,2021.2.3,MacIntel,59.99880002,627c6715c52fd12f31907bd0,,,,,,,,,,,,,,,,,,,,,,,a,1,2.5086,"[""0.474"",""0.556"",""0.881"",""0.915""]","[0,1,1,1]",0,38,38,38,1,0,1,,,1,FALSE,,,,,,,,,,,,,,,,,,,,,,,,,,,,,,,
,613eb4f0b0ed6c2ce930bfba,627c7654f06d96c11627c5c6,2022-05-11_21h52.26.501,classification_task,2021.2.3,MacIntel,59.99880002,627c6715c52fd12f31907bd0,,,,,,,,,,,,,,,,,,,,,,,l,0,1.031,"[""0.309"",""0.370"",""0.847"",""0.420""]","[1,1,1,0]",0,39,39,39,1,0,0,,,1,FALSE,,,,,,,,,,,,,,,,,,,,,,,,,,,,,,,
,613eb4f0b0ed6c2ce930bfba,627c7654f06d96c11627c5c6,2022-05-11_21h52.26.501,classification_task,2021.2.3,MacIntel,59.99880002,627c6715c52fd12f31907bd0,,,,,,,,,,,,,,,,,,,,,,,a,1,1.6498,"[""0.791"",""0.370"",""0.847"",""0.975""]","[0,1,1,1]",0,40,40,40,1,0,0,,,1,FALSE,,,,,,,,,,,,,,,,,,,,,,,,,,,,,,,
,613eb4f0b0ed6c2ce930bfba,627c7654f06d96c11627c5c6,2022-05-11_21h52.26.501,classification_task,2021.2.3,MacIntel,59.99880002,627c6715c52fd12f31907bd0,,,,,,,,,,,,,,,,,,,,,,,a,1,2.4177,"[""0.309"",""0.370"",""0.595"",""0.975""]","[1,1,0,1]",0,41,41,41,1,0,0,,,1,FALSE,,,,,,,,,,,,,,,,,,,,,,,,,,,,,,,
,613eb4f0b0ed6c2ce930bfba,627c7654f06d96c11627c5c6,2022-05-11_21h52.26.501,classification_task,2021.2.3,MacIntel,59.99880002,627c6715c52fd12f31907bd0,,,,,,,,,,,,,,,,,,,,,,,l,1,0.8651,"[""0.420"",""0.271"",""0.514"",""0.690""]","[0,1,1,1]",0,42,42,42,1,1,1,,,1,FALSE,,,,,,,,,,,,,,,,,,,,,,,,,,,,,,,
,613eb4f0b0ed6c2ce930bfba,627c7654f06d96c11627c5c6,2022-05-11_21h52.26.501,classification_task,2021.2.3,MacIntel,59.99880002,627c6715c52fd12f31907bd0,,,,,,,,,,,,,,,,,,,,,,,a,0,2.3463,"[""0.100"",""0.479"",""0.644"",""0.750""]","[1,0,1,1]",0,43,43,43,1,1,0,,,1,FALSE,,,,,,,,,,,,,,,,,,,,,,,,,,,,,,,
,613eb4f0b0ed6c2ce930bfba,627c7654f06d96c11627c5c6,2022-05-11_21h52.26.501,classification_task,2021.2.3,MacIntel,59.99880002,627c6715c52fd12f31907bd0,,,,,,,,,,,,,,,,,,,,,,,l,1,0.8157,"[""0.026"",""0.271"",""0.514"",""0.479""]","[1,1,1,0]",0,44,44,44,1,1,1,,,1,FALSE,,,,,,,,,,,,,,,,,,,,,,,,,,,,,,,
,613eb4f0b0ed6c2ce930bfba,627c7654f06d96c11627c5c6,2022-05-11_21h52.26.501,classification_task,2021.2.3,MacIntel,59.99880002,627c6715c52fd12f31907bd0,,,,,,,,,,,,,,,,,,,,,,,l,0,0.9784,"[""0.309"",""0.593"",""0.847"",""0.975""]","[1,0,1,1]",0,45,45,45,1,0,0,,,1,FALSE,,,,,,,,,,,,,,,,,,,,,,,,,,,,,,,
,613eb4f0b0ed6c2ce930bfba,627c7654f06d96c11627c5c6,2022-05-11_21h52.26.501,classification_task,2021.2.3,MacIntel,59.99880002,627c6715c52fd12f31907bd0,,,,,,,,,,,,,,,,,,,,,,,a,1,0.8198,"[""0.212"",""0.556"",""0.420"",""0.915""]","[1,1,0,1]",0,46,46,46,1,0,1,,,1,FALSE,,,,,,,,,,,,,,,,,,,,,,,,,,,,,,,
,613eb4f0b0ed6c2ce930bfba,627c7654f06d96c11627c5c6,2022-05-11_21h52.26.501,classification_task,2021.2.3,MacIntel,59.99880002,627c6715c52fd12f31907bd0,,,,,,,,,,,,,,,,,,,,,,,a,1,0.6399,"[""0.212"",""0.556"",""0.881"",""0.420""]","[1,1,1,0]",0,47,47,47,1,0,1,,,1,FALSE,,,,,,,,,,,,,,,,,,,,,,,,,,,,,,,
,613eb4f0b0ed6c2ce930bfba,627c7654f06d96c11627c5c6,2022-05-11_21h52.26.501,classification_task,2021.2.3,MacIntel,59.99880002,627c6715c52fd12f31907bd0,,,,,,,,,,,,,,,,,,,,,,,a,1,3.5223,"[""0.309"",""0.593"",""0.847"",""0.975""]","[1,0,1,1]",0,48,48,48,1,0,0,,,1,FALSE,,,,,,,,,,,,,,,,,,,,,,,,,,,,,,,
,613eb4f0b0ed6c2ce930bfba,627c7654f06d96c11627c5c6,2022-05-11_21h52.26.501,classification_task,2021.2.3,MacIntel,59.99880002,627c6715c52fd12f31907bd0,,,,,,,,,,,,,,,,,,,,,,,l,0,1.4856,"[""0.309"",""0.370"",""0.807"",""0.975""]","[1,1,0,1]",0,49,49,49,1,0,0,,,1,FALSE,,,,,,,,,,,,,,,,,,,,,,,,,,,,,,,
,613eb4f0b0ed6c2ce930bfba,627c7654f06d96c11627c5c6,2022-05-11_21h52.26.501,classification_task,2021.2.3,MacIntel,59.99880002,627c6715c52fd12f31907bd0,,,,,,,,,,,,,,,,,,,,,,,a,1,1.8791,"[""0.212"",""0.556"",""0.791"",""0.915""]","[1,1,0,1]",0,50,50,50,1,0,1,,,1,FALSE,,,,,,,,,,,,,,,,,,,,,,,,,,,,,,,
,613eb4f0b0ed6c2ce930bfba,627c7654f06d96c11627c5c6,2022-05-11_21h52.26.501,classification_task,2021.2.3,MacIntel,59.99880002,627c6715c52fd12f31907bd0,,,,,,,,,,,,,,,,,,,,,,,l,1,2.2775,"[""0.100"",""0.177"",""0.061"",""0.750""]","[1,1,0,1]",0,51,51,51,1,1,0,,,1,FALSE,,,,,,,,,,,,,,,,,,,,,,,,,,,,,,,
,613eb4f0b0ed6c2ce930bfba,627c7654f06d96c11627c5c6,2022-05-11_21h52.26.501,classification_task,2021.2.3,MacIntel,59.99880002,627c6715c52fd12f31907bd0,,,,,,,,,,,,,,,,,,,,,,,l,1,1.871,"[""0.026"",""0.469"",""0.514"",""0.690""]","[1,0,1,1]",0,52,52,52,1,1,1,,,1,FALSE,,,,,,,,,,,,,,,,,,,,,,,,,,,,,,,
,613eb4f0b0ed6c2ce930bfba,627c7654f06d96c11627c5c6,2022-05-11_21h52.26.501,classification_task,2021.2.3,MacIntel,59.99880002,627c6715c52fd12f31907bd0,,,,,,,,,,,,,,,,,,,,,,,a,1,2.1902,"[""0.791"",""0.370"",""0.847"",""0.975""]","[0,1,1,1]",0,53,53,53,1,0,0,,,1,FALSE,,,,,,,,,,,,,,,,,,,,,,,,,,,,,,,
,613eb4f0b0ed6c2ce930bfba,627c7654f06d96c11627c5c6,2022-05-11_21h52.26.501,classification_task,2021.2.3,MacIntel,59.99880002,627c6715c52fd12f31907bd0,,,,,,,,,,,,,,,,,,,,,,,l,1,2.2029,"[""0.100"",""0.177"",""0.644"",""0.407""]","[1,1,1,0]",0,54,54,54,1,1,0,,,1,FALSE,,,,,,,,,,,,,,,,,,,,,,,,,,,,,,,
,613eb4f0b0ed6c2ce930bfba,627c7654f06d96c11627c5c6,2022-05-11_21h52.26.501,classification_task,2021.2.3,MacIntel,59.99880002,627c6715c52fd12f31907bd0,,,,,,,,,,,,,,,,,,,,,,,a,0,1.3211,"[""0.593"",""0.177"",""0.644"",""0.750""]","[0,1,1,1]",0,55,55,55,1,1,0,,,1,FALSE,,,,,,,,,,,,,,,,,,,,,,,,,,,,,,,
,613eb4f0b0ed6c2ce930bfba,627c7654f06d96c11627c5c6,2022-05-11_21h52.26.501,classification_task,2021.2.3,MacIntel,59.99880002,627c6715c52fd12f31907bd0,,,,,,,,,,,,,,,,,,,,,,,l,1,1.3108,"[""0.420"",""0.271"",""0.514"",""0.690""]","[0,1,1,1]",0,56,56,56,1,1,1,,,1,FALSE,,,,,,,,,,,,,,,,,,,,,,,,,,,,,,,
,613eb4f0b0ed6c2ce930bfba,627c7654f06d96c11627c5c6,2022-05-11_21h52.26.501,classification_task,2021.2.3,MacIntel,59.99880002,627c6715c52fd12f31907bd0,,,,,,,,,,,,,,,,,,,,,,,a,0,2.837,"[""0.100"",""0.610"",""0.644"",""0.750""]","[1,0,1,1]",0,57,57,57,1,1,0,,,1,FALSE,,,,,,,,,,,,,,,,,,,,,,,,,,,,,,,
,613eb4f0b0ed6c2ce930bfba,627c7654f06d96c11627c5c6,2022-05-11_21h52.26.501,classification_task,2021.2.3,MacIntel,59.99880002,627c6715c52fd12f31907bd0,,,,,,,,,,,,,,,,,,,,,,,l,1,1.5663,"[""0.026"",""0.271"",""0.514"",""0.420""]","[1,1,1,0]",0,58,58,58,1,1,1,,,1,FALSE,,,,,,,,,,,,,,,,,,,,,,,,,,,,,,,
,613eb4f0b0ed6c2ce930bfba,627c7654f06d96c11627c5c6,2022-05-11_21h52.26.501,classification_task,2021.2.3,MacIntel,59.99880002,627c6715c52fd12f31907bd0,,,,,,,,,,,,,,,,,,,,,,,a,1,1.2498,"[""0.212"",""0.474"",""0.881"",""0.915""]","[1,0,1,1]",0,59,59,59,1,0,1,,,1,FALSE,,,,,,,,,,,,,,,,,,,,,,,,,,,,,,,
,613eb4f0b0ed6c2ce930bfba,627c7654f06d96c11627c5c6,2022-05-11_21h52.26.501,classification_task,2021.2.3,MacIntel,59.99880002,627c6715c52fd12f31907bd0,,,,,,,,,,,,,,,,,,,,,,,a,1,1.0353,"[""0.212"",""0.556"",""0.881"",""0.593""]","[1,1,1,0]",0,60,60,60,1,0,1,,,1,FALSE,,,,,,,,,,,,,,,,,,,,,,,,,,,,,,,
,613eb4f0b0ed6c2ce930bfba,627c7654f06d96c11627c5c6,2022-05-11_21h52.26.501,classification_task,2021.2.3,MacIntel,59.99880002,627c6715c52fd12f31907bd0,,,,,,,,,,,,,,,,,,,,,,,l,1,0.7514,"[""0.026"",""0.271"",""0.407"",""0.690""]","[1,1,0,1]",0,61,61,61,1,1,1,,,1,FALSE,,,,,,,,,,,,,,,,,,,,,,,,,,,,,,,
,613eb4f0b0ed6c2ce930bfba,627c7654f06d96c11627c5c6,2022-05-11_21h52.26.501,classification_task,2021.2.3,MacIntel,59.99880002,627c6715c52fd12f31907bd0,,,,,,,,,,,,,,,,,,,,,,,a,1,1.7396,"[""0.309"",""0.370"",""0.847"",""0.807""]","[1,1,1,0]",0,62,62,62,1,0,0,,,1,FALSE,,,,,,,,,,,,,,,,,,,,,,,,,,,,,,,
,613eb4f0b0ed6c2ce930bfba,627c7654f06d96c11627c5c6,2022-05-11_21h52.26.501,classification_task,2021.2.3,MacIntel,59.99880002,627c6715c52fd12f31907bd0,,,,,,,,,,,,,,,,,,,,,,,a,1,1.3788,"[""0.462"",""0.556"",""0.881"",""0.915""]","[0,1,1,1]",0,63,63,63,1,0,1,,,1,FALSE,,,,,,,,,,,,,,,,,,,,,,,,,,,,,,,
,613eb4f0b0ed6c2ce930bfba,627c7654f06d96c11627c5c6,2022-05-11_21h52.26.501,classification_task,2021.2.3,MacIntel,59.99880002,627c6715c52fd12f31907bd0,,,,,,,,,,,,,,,,,,,,,,,,,,,,,,,,,,,,,,,0, ,,0,10,232.9076,0,1,1,1,1,2,2,,,,,,,,,,,,,,,,,,
,613eb4f0b0ed6c2ce930bfba,627c7654f06d96c11627c5c6,2022-05-11_21h52.26.501,classification_task,2021.2.3,MacIntel,59.99880002,627c6715c52fd12f31907bd0,,,,,,,,,,,,,,,,,,,,,,,,,,,,,,,,,,,,,,,1,  ,,0,7.496865355,235.1255,0,1,1,1,1,2,2,,,,,,,,,,,,,,,,,,
,613eb4f0b0ed6c2ce930bfba,627c7654f06d96c11627c5c6,2022-05-11_21h52.26.501,classification_task,2021.2.3,MacIntel,59.99880002,627c6715c52fd12f31907bd0,,,,,,,,,,,,,,,,,,,,,,,,,,,,,,,,,,,,,,,2,  ,,0,2.393149365,237.75,0,1,1,1,1,2,2,,,,,,,,,,,,,,,,,,
,613eb4f0b0ed6c2ce930bfba,627c7654f06d96c11627c5c6,2022-05-11_21h52.26.501,classification_task,2021.2.3,MacIntel,59.99880002,627c6715c52fd12f31907bd0,,,,,,,,,,,,,,,,,,,,,,,,,,,,,,,,,,,,,,,,,,,,,0,1,1,1,1,,2,,,,,,,,,,,,,,,,,,
,613eb4f0b0ed6c2ce930bfba,627c7654f06d96c11627c5c6,2022-05-11_21h52.26.501,classification_task,2021.2.3,MacIntel,59.99880002,627c6715c52fd12f31907bd0,,,,,,,,,,,,,,,,,,,,,space,41.0322,a,0,1.8567,"[""0.100"",""0.177"",""0.791"",""0.750""]","[1,1,0,1]",0,0,0,0,1,1,0,,,1,FALSE,,,,,,,,,,,,,,,,,,,,,,,,,,,,,,,
,613eb4f0b0ed6c2ce930bfba,627c7654f06d96c11627c5c6,2022-05-11_21h52.26.501,classification_task,2021.2.3,MacIntel,59.99880002,627c6715c52fd12f31907bd0,,,,,,,,,,,,,,,,,,,,,,,l,1,4.7906,"[""0.026"",""0.479"",""0.514"",""0.690""]","[1,0,1,1]",0,1,1,1,1,1,1,,,1,FALSE,,,,,,,,,,,,,,,,,,,,,,,,,,,,,,,
,613eb4f0b0ed6c2ce930bfba,627c7654f06d96c11627c5c6,2022-05-11_21h52.26.501,classification_task,2021.2.3,MacIntel,59.99880002,627c6715c52fd12f31907bd0,,,,,,,,,,,,,,,,,,,,,,,a,1,2.255,"[""0.469"",""0.556"",""0.881"",""0.915""]","[0,1,1,1]",0,2,2,2,1,0,1,,,1,FALSE,,,,,,,,,,,,,,,,,,,,,,,,,,,,,,,
,613eb4f0b0ed6c2ce930bfba,627c7654f06d96c11627c5c6,2022-05-11_21h52.26.501,classification_task,2021.2.3,MacIntel,59.99880002,627c6715c52fd12f31907bd0,,,,,,,,,,,,,,,,,,,,,,,l,0,2.1012,"[""0.309"",""0.370"",""0.847"",""0.791""]","[1,1,1,0]",0,3,3,3,1,0,0,,,1,FALSE,,,,,,,,,,,,,,,,,,,,,,,,,,,,,,,
,613eb4f0b0ed6c2ce930bfba,627c7654f06d96c11627c5c6,2022-05-11_21h52.26.501,classification_task,2021.2.3,MacIntel,59.99880002,627c6715c52fd12f31907bd0,,,,,,,,,,,,,,,,,,,,,,,a,0,1.7855,"[""0.026"",""0.271"",""0.593"",""0.690""]","[1,1,0,1]",0,4,4,4,1,1,1,,,1,FALSE,,,,,,,,,,,,,,,,,,,,,,,,,,,,,,,
,613eb4f0b0ed6c2ce930bfba,627c7654f06d96c11627c5c6,2022-05-11_21h52.26.501,classification_task,2021.2.3,MacIntel,59.99880002,627c6715c52fd12f31907bd0,,,,,,,,,,,,,,,,,,,,,,,a,1,2.1176,"[""0.212"",""0.479"",""0.881"",""0.915""]","[1,0,1,1]",0,5,5,5,1,0,1,,,1,FALSE,,,,,,,,,,,,,,,,,,,,,,,,,,,,,,,
,613eb4f0b0ed6c2ce930bfba,627c7654f06d96c11627c5c6,2022-05-11_21h52.26.501,classification_task,2021.2.3,MacIntel,59.99880002,627c6715c52fd12f31907bd0,,,,,,,,,,,,,,,,,,,,,,,l,1,2.104,"[""0.061"",""0.177"",""0.644"",""0.750""]","[0,1,1,1]",0,6,6,6,1,1,0,,,1,FALSE,,,,,,,,,,,,,,,,,,,,,,,,,,,,,,,
,613eb4f0b0ed6c2ce930bfba,627c7654f06d96c11627c5c6,2022-05-11_21h52.26.501,classification_task,2021.2.3,MacIntel,59.99880002,627c6715c52fd12f31907bd0,,,,,,,,,,,,,,,,,,,,,,,a,0,3.0656,"[""0.100"",""0.807"",""0.644"",""0.750""]","[1,0,1,1]",0,7,7,7,1,1,0,,,1,FALSE,,,,,,,,,,,,,,,,,,,,,,,,,,,,,,,
,613eb4f0b0ed6c2ce930bfba,627c7654f06d96c11627c5c6,2022-05-11_21h52.26.501,classification_task,2021.2.3,MacIntel,59.99880002,627c6715c52fd12f31907bd0,,,,,,,,,,,,,,,,,,,,,,,l,1,1.1534,"[""0.420"",""0.271"",""0.514"",""0.690""]","[0,1,1,1]",0,8,8,8,1,1,1,,,1,FALSE,,,,,,,,,,,,,,,,,,,,,,,,,,,,,,,
,613eb4f0b0ed6c2ce930bfba,627c7654f06d96c11627c5c6,2022-05-11_21h52.26.501,classification_task,2021.2.3,MacIntel,59.99880002,627c6715c52fd12f31907bd0,,,,,,,,,,,,,,,,,,,,,,,l,0,2.516,"[""0.212"",""0.556"",""0.595"",""0.915""]","[1,1,0,1]",0,9,9,9,1,0,1,,,1,FALSE,,,,,,,,,,,,,,,,,,,,,,,,,,,,,,,
,613eb4f0b0ed6c2ce930bfba,627c7654f06d96c11627c5c6,2022-05-11_21h52.26.501,classification_task,2021.2.3,MacIntel,59.99880002,627c6715c52fd12f31907bd0,,,,,,,,,,,,,,,,,,,,,,,a,1,4.9757,"[""0.807"",""0.370"",""0.847"",""0.975""]","[0,1,1,1]",0,10,10,10,1,0,0,,,1,FALSE,,,,,,,,,,,,,,,,,,,,,,,,,,,,,,,
,613eb4f0b0ed6c2ce930bfba,627c7654f06d96c11627c5c6,2022-05-11_21h52.26.501,classification_task,2021.2.3,MacIntel,59.99880002,627c6715c52fd12f31907bd0,,,,,,,,,,,,,,,,,,,,,,,l,0,4.0873,"[""0.212"",""0.556"",""0.881"",""0.412""]","[1,1,1,0]",0,11,11,11,1,0,1,,,1,FALSE,,,,,,,,,,,,,,,,,,,,,,,,,,,,,,,
,613eb4f0b0ed6c2ce930bfba,627c7654f06d96c11627c5c6,2022-05-11_21h52.26.501,classification_task,2021.2.3,MacIntel,59.99880002,627c6715c52fd12f31907bd0,,,,,,,,,,,,,,,,,,,,,,,a,0,2.1196,"[""0.100"",""0.177"",""0.644"",""0.420""]","[1,1,1,0]",0,12,12,12,1,1,0,,,1,FALSE,,,,,,,,,,,,,,,,,,,,,,,,,,,,,,,
,613eb4f0b0ed6c2ce930bfba,627c7654f06d96c11627c5c6,2022-05-11_21h52.26.501,classification_task,2021.2.3,MacIntel,59.99880002,627c6715c52fd12f31907bd0,,,,,,,,,,,,,,,,,,,,,,,a,0,3.833,"[""0.026"",""0.271"",""0.514"",""0.420""]","[1,1,1,0]",0,13,13,13,1,1,1,,,1,FALSE,,,,,,,,,,,,,,,,,,,,,,,,,,,,,,,
,613eb4f0b0ed6c2ce930bfba,627c7654f06d96c11627c5c6,2022-05-11_21h52.26.501,classification_task,2021.2.3,MacIntel,59.99880002,627c6715c52fd12f31907bd0,,,,,,,,,,,,,,,,,,,,,,,a,1,2.4541,"[""0.309"",""0.370"",""0.416"",""0.975""]","[1,1,0,1]",0,14,14,14,1,0,0,,,1,FALSE,,,,,,,,,,,,,,,,,,,,,,,,,,,,,,,
,613eb4f0b0ed6c2ce930bfba,627c7654f06d96c11627c5c6,2022-05-11_21h52.26.501,classification_task,2021.2.3,MacIntel,59.99880002,627c6715c52fd12f31907bd0,,,,,,,,,,,,,,,,,,,,,,,l,0,0.9316,"[""0.309"",""0.412"",""0.847"",""0.975""]","[1,0,1,1]",0,15,15,15,1,0,0,,,1,FALSE,,,,,,,,,,,,,,,,,,,,,,,,,,,,,,,
,613eb4f0b0ed6c2ce930bfba,627c7654f06d96c11627c5c6,2022-05-11_21h52.26.501,classification_task,2021.2.3,MacIntel,59.99880002,627c6715c52fd12f31907bd0,,,,,,,,,,,,,,,,,,,,,,,l,0,1.5038,"[""0.309"",""0.370"",""0.479"",""0.975""]","[1,1,0,1]",0,16,16,16,1,0,0,,,1,FALSE,,,,,,,,,,,,,,,,,,,,,,,,,,,,,,,
,613eb4f0b0ed6c2ce930bfba,627c7654f06d96c11627c5c6,2022-05-11_21h52.26.501,classification_task,2021.2.3,MacIntel,59.99880002,627c6715c52fd12f31907bd0,,,,,,,,,,,,,,,,,,,,,,,a,0,1.5544,"[""0.420"",""0.177"",""0.644"",""0.750""]","[0,1,1,1]",0,17,17,17,1,1,0,,,1,FALSE,,,,,,,,,,,,,,,,,,,,,,,,,,,,,,,
,613eb4f0b0ed6c2ce930bfba,627c7654f06d96c11627c5c6,2022-05-11_21h52.26.501,classification_task,2021.2.3,MacIntel,59.99880002,627c6715c52fd12f31907bd0,,,,,,,,,,,,,,,,,,,,,,,a,1,2.7817,"[""0.212"",""0.556"",""0.479"",""0.915""]","[1,1,0,1]",0,18,18,18,1,0,1,,,1,FALSE,,,,,,,,,,,,,,,,,,,,,,,,,,,,,,,
,613eb4f0b0ed6c2ce930bfba,627c7654f06d96c11627c5c6,2022-05-11_21h52.26.501,classification_task,2021.2.3,MacIntel,59.99880002,627c6715c52fd12f31907bd0,,,,,,,,,,,,,,,,,,,,,,,l,1,3.322,"[""0.100"",""0.474"",""0.644"",""0.750""]","[1,0,1,1]",0,19,19,19,1,1,0,,,1,FALSE,,,,,,,,,,,,,,,,,,,,,,,,,,,,,,,
,613eb4f0b0ed6c2ce930bfba,627c7654f06d96c11627c5c6,2022-05-11_21h52.26.501,classification_task,2021.2.3,MacIntel,59.99880002,627c6715c52fd12f31907bd0,,,,,,,,,,,,,,,,,,,,,,,a,1,3.4236,"[""0.212"",""0.407"",""0.881"",""0.915""]","[1,0,1,1]",0,20,20,20,1,0,1,,,1,FALSE,,,,,,,,,,,,,,,,,,,,,,,,,,,,,,,
,613eb4f0b0ed6c2ce930bfba,627c7654f06d96c11627c5c6,2022-05-11_21h52.26.501,classification_task,2021.2.3,MacIntel,59.99880002,627c6715c52fd12f31907bd0,,,,,,,,,,,,,,,,,,,,,,,l,1,1.7528,"[""0.026"",""0.271"",""0.791"",""0.690""]","[1,1,0,1]",0,21,21,21,1,1,1,,,1,FALSE,,,,,,,,,,,,,,,,,,,,,,,,,,,,,,,
,613eb4f0b0ed6c2ce930bfba,627c7654f06d96c11627c5c6,2022-05-11_21h52.26.501,classification_task,2021.2.3,MacIntel,59.99880002,627c6715c52fd12f31907bd0,,,,,,,,,,,,,,,,,,,,,,,a,1,1.3382,"[""0.212"",""0.556"",""0.881"",""0.469""]","[1,1,1,0]",0,22,22,22,1,0,1,,,1,FALSE,,,,,,,,,,,,,,,,,,,,,,,,,,,,,,,
,613eb4f0b0ed6c2ce930bfba,627c7654f06d96c11627c5c6,2022-05-11_21h52.26.501,classification_task,2021.2.3,MacIntel,59.99880002,627c6715c52fd12f31907bd0,,,,,,,,,,,,,,,,,,,,,,,l,1,1.2998,"[""0.026"",""0.271"",""0.514"",""0.407""]","[1,1,1,0]",0,23,23,23,1,1,1,,,1,FALSE,,,,,,,,,,,,,,,,,,,,,,,,,,,,,,,
,613eb4f0b0ed6c2ce930bfba,627c7654f06d96c11627c5c6,2022-05-11_21h52.26.501,classification_task,2021.2.3,MacIntel,59.99880002,627c6715c52fd12f31907bd0,,,,,,,,,,,,,,,,,,,,,,,l,1,2.3849,"[""0.026"",""0.469"",""0.514"",""0.690""]","[1,0,1,1]",0,24,24,24,1,1,1,,,1,FALSE,,,,,,,,,,,,,,,,,,,,,,,,,,,,,,,
,613eb4f0b0ed6c2ce930bfba,627c7654f06d96c11627c5c6,2022-05-11_21h52.26.501,classification_task,2021.2.3,MacIntel,59.99880002,627c6715c52fd12f31907bd0,,,,,,,,,,,,,,,,,,,,,,,a,0,2.5847,"[""0.100"",""0.177"",""0.644"",""0.061""]","[1,1,1,0]",0,25,25,25,1,1,0,,,1,FALSE,,,,,,,,,,,,,,,,,,,,,,,,,,,,,,,
,613eb4f0b0ed6c2ce930bfba,627c7654f06d96c11627c5c6,2022-05-11_21h52.26.501,classification_task,2021.2.3,MacIntel,59.99880002,627c6715c52fd12f31907bd0,,,,,,,,,,,,,,,,,,,,,,,l,0,3.1162,"[""0.309"",""0.061"",""0.847"",""0.975""]","[1,0,1,1]",0,26,26,26,1,0,0,,,1,FALSE,,,,,,,,,,,,,,,,,,,,,,,,,,,,,,,
,613eb4f0b0ed6c2ce930bfba,627c7654f06d96c11627c5c6,2022-05-11_21h52.26.501,classification_task,2021.2.3,MacIntel,59.99880002,627c6715c52fd12f31907bd0,,,,,,,,,,,,,,,,,,,,,,,a,0,2.1355,"[""0.477"",""0.271"",""0.514"",""0.690""]","[0,1,1,1]",0,27,27,27,1,1,1,,,1,FALSE,,,,,,,,,,,,,,,,,,,,,,,,,,,,,,,
,613eb4f0b0ed6c2ce930bfba,627c7654f06d96c11627c5c6,2022-05-11_21h52.26.501,classification_task,2021.2.3,MacIntel,59.99880002,627c6715c52fd12f31907bd0,,,,,,,,,,,,,,,,,,,,,,,l,0,3.3515,"[""0.807"",""0.556"",""0.881"",""0.915""]","[0,1,1,1]",0,28,28,28,1,0,1,,,1,FALSE,,,,,,,,,,,,,,,,,,,,,,,,,,,,,,,
,613eb4f0b0ed6c2ce930bfba,627c7654f06d96c11627c5c6,2022-05-11_21h52.26.501,classification_task,2021.2.3,MacIntel,59.99880002,627c6715c52fd12f31907bd0,,,,,,,,,,,,,,,,,,,,,,,a,1,2.488,"[""0.061"",""0.370"",""0.847"",""0.975""]","[0,1,1,1]",0,29,29,29,1,0,0,,,1,FALSE,,,,,,,,,,,,,,,,,,,,,,,,,,,,,,,
,613eb4f0b0ed6c2ce930bfba,627c7654f06d96c11627c5c6,2022-05-11_21h52.26.501,classification_task,2021.2.3,MacIntel,59.99880002,627c6715c52fd12f31907bd0,,,,,,,,,,,,,,,,,,,,,,,l,1,2.7067,"[""0.100"",""0.177"",""0.595"",""0.750""]","[1,1,0,1]",0,30,30,30,1,1,0,,,1,FALSE,,,,,,,,,,,,,,,,,,,,,,,,,,,,,,,
,613eb4f0b0ed6c2ce930bfba,627c7654f06d96c11627c5c6,2022-05-11_21h52.26.501,classification_task,2021.2.3,MacIntel,59.99880002,627c6715c52fd12f31907bd0,,,,,,,,,,,,,,,,,,,,,,,a,1,2.5391,"[""0.309"",""0.370"",""0.847"",""0.807""]","[1,1,1,0]",0,31,31,31,1,0,0,,,1,FALSE,,,,,,,,,,,,,,,,,,,,,,,,,,,,,,,
,613eb4f0b0ed6c2ce930bfba,627c7654f06d96c11627c5c6,2022-05-11_21h52.26.501,classification_task,2021.2.3,MacIntel,59.99880002,627c6715c52fd12f31907bd0,,,,,,,,,,,,,,,,,,,,,,,a,0,1.4899,"[""0.026"",""0.593"",""0.514"",""0.690""]","[1,0,1,1]",0,32,32,32,1,1,1,,,1,FALSE,,,,,,,,,,,,,,,,,,,,,,,,,,,,,,,
,613eb4f0b0ed6c2ce930bfba,627c7654f06d96c11627c5c6,2022-05-11_21h52.26.501,classification_task,2021.2.3,MacIntel,59.99880002,627c6715c52fd12f31907bd0,,,,,,,,,,,,,,,,,,,,,,,l,1,2.5169,"[""0.100"",""0.061"",""0.644"",""0.750""]","[1,0,1,1]",0,33,33,33,1,1,0,,,1,FALSE,,,,,,,,,,,,,,,,,,,,,,,,,,,,,,,
,613eb4f0b0ed6c2ce930bfba,627c7654f06d96c11627c5c6,2022-05-11_21h52.26.501,classification_task,2021.2.3,MacIntel,59.99880002,627c6715c52fd12f31907bd0,,,,,,,,,,,,,,,,,,,,,,,l,0,2.5021,"[""0.807"",""0.370"",""0.847"",""0.975""]","[0,1,1,1]",0,34,34,34,1,0,0,,,1,FALSE,,,,,,,,,,,,,,,,,,,,,,,,,,,,,,,
,613eb4f0b0ed6c2ce930bfba,627c7654f06d96c11627c5c6,2022-05-11_21h52.26.501,classification_task,2021.2.3,MacIntel,59.99880002,627c6715c52fd12f31907bd0,,,,,,,,,,,,,,,,,,,,,,,l,1,2.0655,"[""0.100"",""0.177"",""0.644"",""0.791""]","[1,1,1,0]",0,35,35,35,1,1,0,,,1,FALSE,,,,,,,,,,,,,,,,,,,,,,,,,,,,,,,
,613eb4f0b0ed6c2ce930bfba,627c7654f06d96c11627c5c6,2022-05-11_21h52.26.501,classification_task,2021.2.3,MacIntel,59.99880002,627c6715c52fd12f31907bd0,,,,,,,,,,,,,,,,,,,,,,,a,1,1.3016,"[""0.212"",""0.556"",""0.407"",""0.915""]","[1,1,0,1]",0,36,36,36,1,0,1,,,1,FALSE,,,,,,,,,,,,,,,,,,,,,,,,,,,,,,,
,613eb4f0b0ed6c2ce930bfba,627c7654f06d96c11627c5c6,2022-05-11_21h52.26.501,classification_task,2021.2.3,MacIntel,59.99880002,627c6715c52fd12f31907bd0,,,,,,,,,,,,,,,,,,,,,,,a,0,3.1006,"[""0.100"",""0.177"",""0.593"",""0.750""]","[1,1,0,1]",0,37,37,37,1,1,0,,,1,FALSE,,,,,,,,,,,,,,,,,,,,,,,,,,,,,,,
,613eb4f0b0ed6c2ce930bfba,627c7654f06d96c11627c5c6,2022-05-11_21h52.26.501,classification_task,2021.2.3,MacIntel,59.99880002,627c6715c52fd12f31907bd0,,,,,,,,,,,,,,,,,,,,,,,l,0,1.9222,"[""0.309"",""0.370"",""0.847"",""0.462""]","[1,1,1,0]",0,38,38,38,1,0,0,,,1,FALSE,,,,,,,,,,,,,,,,,,,,,,,,,,,,,,,
,613eb4f0b0ed6c2ce930bfba,627c7654f06d96c11627c5c6,2022-05-11_21h52.26.501,classification_task,2021.2.3,MacIntel,59.99880002,627c6715c52fd12f31907bd0,,,,,,,,,,,,,,,,,,,,,,,a,1,1.4869,"[""0.212"",""0.593"",""0.881"",""0.915""]","[1,0,1,1]",0,39,39,39,1,0,1,,,1,FALSE,,,,,,,,,,,,,,,,,,,,,,,,,,,,,,,
,613eb4f0b0ed6c2ce930bfba,627c7654f06d96c11627c5c6,2022-05-11_21h52.26.501,classification_task,2021.2.3,MacIntel,59.99880002,627c6715c52fd12f31907bd0,,,,,,,,,,,,,,,,,,,,,,,l,0,1.2018,"[""0.061"",""0.556"",""0.881"",""0.915""]","[0,1,1,1]",0,40,40,40,1,0,1,,,1,FALSE,,,,,,,,,,,,,,,,,,,,,,,,,,,,,,,
,613eb4f0b0ed6c2ce930bfba,627c7654f06d96c11627c5c6,2022-05-11_21h52.26.501,classification_task,2021.2.3,MacIntel,59.99880002,627c6715c52fd12f31907bd0,,,,,,,,,,,,,,,,,,,,,,,a,1,6.5029,"[""0.309"",""0.370"",""0.479"",""0.975""]","[1,1,0,1]",0,41,41,41,1,0,0,,,1,FALSE,,,,,,,,,,,,,,,,,,,,,,,,,,,,,,,
,613eb4f0b0ed6c2ce930bfba,627c7654f06d96c11627c5c6,2022-05-11_21h52.26.501,classification_task,2021.2.3,MacIntel,59.99880002,627c6715c52fd12f31907bd0,,,,,,,,,,,,,,,,,,,,,,,l,1,1.97,"[""0.807"",""0.177"",""0.644"",""0.750""]","[0,1,1,1]",0,42,42,42,1,1,0,,,1,FALSE,,,,,,,,,,,,,,,,,,,,,,,,,,,,,,,
,613eb4f0b0ed6c2ce930bfba,627c7654f06d96c11627c5c6,2022-05-11_21h52.26.501,classification_task,2021.2.3,MacIntel,59.99880002,627c6715c52fd12f31907bd0,,,,,,,,,,,,,,,,,,,,,,,l,1,4.2709,"[""0.026"",""0.271"",""0.514"",""0.416""]","[1,1,1,0]",0,43,43,43,1,1,1,,,1,FALSE,,,,,,,,,,,,,,,,,,,,,,,,,,,,,,,
,613eb4f0b0ed6c2ce930bfba,627c7654f06d96c11627c5c6,2022-05-11_21h52.26.501,classification_task,2021.2.3,MacIntel,59.99880002,627c6715c52fd12f31907bd0,,,,,,,,,,,,,,,,,,,,,,,a,1,2.4351,"[""0.212"",""0.556"",""0.881"",""0.791""]","[1,1,1,0]",0,44,44,44,1,0,1,,,1,FALSE,,,,,,,,,,,,,,,,,,,,,,,,,,,,,,,
,613eb4f0b0ed6c2ce930bfba,627c7654f06d96c11627c5c6,2022-05-11_21h52.26.501,classification_task,2021.2.3,MacIntel,59.99880002,627c6715c52fd12f31907bd0,,,,,,,,,,,,,,,,,,,,,,,l,0,3.0514,"[""0.309"",""0.474"",""0.847"",""0.975""]","[1,0,1,1]",0,45,45,45,1,0,0,,,1,FALSE,,,,,,,,,,,,,,,,,,,,,,,,,,,,,,,
,613eb4f0b0ed6c2ce930bfba,627c7654f06d96c11627c5c6,2022-05-11_21h52.26.501,classification_task,2021.2.3,MacIntel,59.99880002,627c6715c52fd12f31907bd0,,,,,,,,,,,,,,,,,,,,,,,l,1,1.6912,"[""0.026"",""0.271"",""0.474"",""0.690""]","[1,1,0,1]",0,46,46,46,1,1,1,,,1,FALSE,,,,,,,,,,,,,,,,,,,,,,,,,,,,,,,
,613eb4f0b0ed6c2ce930bfba,627c7654f06d96c11627c5c6,2022-05-11_21h52.26.501,classification_task,2021.2.3,MacIntel,59.99880002,627c6715c52fd12f31907bd0,,,,,,,,,,,,,,,,,,,,,,,a,0,1.1507,"[""0.477"",""0.271"",""0.514"",""0.690""]","[0,1,1,1]",0,47,47,47,1,1,1,,,1,FALSE,,,,,,,,,,,,,,,,,,,,,,,,,,,,,,,
,613eb4f0b0ed6c2ce930bfba,627c7654f06d96c11627c5c6,2022-05-11_21h52.26.501,classification_task,2021.2.3,MacIntel,59.99880002,627c6715c52fd12f31907bd0,,,,,,,,,,,,,,,,,,,,,,,l,1,1.2355,"[""0.593"",""0.271"",""0.514"",""0.690""]","[0,1,1,1]",0,48,48,48,1,1,1,,,1,FALSE,,,,,,,,,,,,,,,,,,,,,,,,,,,,,,,
,613eb4f0b0ed6c2ce930bfba,627c7654f06d96c11627c5c6,2022-05-11_21h52.26.501,classification_task,2021.2.3,MacIntel,59.99880002,627c6715c52fd12f31907bd0,,,,,,,,,,,,,,,,,,,,,,,a,1,1.6367,"[""0.474"",""0.556"",""0.881"",""0.915""]","[0,1,1,1]",0,49,49,49,1,0,1,,,1,FALSE,,,,,,,,,,,,,,,,,,,,,,,,,,,,,,,
,613eb4f0b0ed6c2ce930bfba,627c7654f06d96c11627c5c6,2022-05-11_21h52.26.501,classification_task,2021.2.3,MacIntel,59.99880002,627c6715c52fd12f31907bd0,,,,,,,,,,,,,,,,,,,,,,,l,0,2.3364,"[""0.407"",""0.370"",""0.847"",""0.975""]","[0,1,1,1]",0,50,50,50,1,0,0,,,1,FALSE,,,,,,,,,,,,,,,,,,,,,,,,,,,,,,,
,613eb4f0b0ed6c2ce930bfba,627c7654f06d96c11627c5c6,2022-05-11_21h52.26.501,classification_task,2021.2.3,MacIntel,59.99880002,627c6715c52fd12f31907bd0,,,,,,,,,,,,,,,,,,,,,,,a,0,1.1149,"[""0.479"",""0.177"",""0.644"",""0.750""]","[0,1,1,1]",0,51,51,51,1,1,0,,,1,FALSE,,,,,,,,,,,,,,,,,,,,,,,,,,,,,,,
,613eb4f0b0ed6c2ce930bfba,627c7654f06d96c11627c5c6,2022-05-11_21h52.26.501,classification_task,2021.2.3,MacIntel,59.99880002,627c6715c52fd12f31907bd0,,,,,,,,,,,,,,,,,,,,,,,l,1,2.748,"[""0.026"",""0.061"",""0.514"",""0.690""]","[1,0,1,1]",0,52,52,52,1,1,1,,,1,FALSE,,,,,,,,,,,,,,,,,,,,,,,,,,,,,,,
,613eb4f0b0ed6c2ce930bfba,627c7654f06d96c11627c5c6,2022-05-11_21h52.26.501,classification_task,2021.2.3,MacIntel,59.99880002,627c6715c52fd12f31907bd0,,,,,,,,,,,,,,,,,,,,,,,a,1,0.8028,"[""0.309"",""0.370"",""0.477"",""0.975""]","[1,1,0,1]",0,53,53,53,1,0,0,,,1,FALSE,,,,,,,,,,,,,,,,,,,,,,,,,,,,,,,
,613eb4f0b0ed6c2ce930bfba,627c7654f06d96c11627c5c6,2022-05-11_21h52.26.501,classification_task,2021.2.3,MacIntel,59.99880002,627c6715c52fd12f31907bd0,,,,,,,,,,,,,,,,,,,,,,,a,1,3.4504,"[""0.309"",""0.370"",""0.847"",""0.061""]","[1,1,1,0]",0,54,54,54,1,0,0,,,1,FALSE,,,,,,,,,,,,,,,,,,,,,,,,,,,,,,,
,613eb4f0b0ed6c2ce930bfba,627c7654f06d96c11627c5c6,2022-05-11_21h52.26.501,classification_task,2021.2.3,MacIntel,59.99880002,627c6715c52fd12f31907bd0,,,,,,,,,,,,,,,,,,,,,,,a,1,3.9034,"[""0.212"",""0.556"",""0.881"",""0.462""]","[1,1,1,0]",0,55,55,55,1,0,1,,,1,FALSE,,,,,,,,,,,,,,,,,,,,,,,,,,,,,,,
,613eb4f0b0ed6c2ce930bfba,627c7654f06d96c11627c5c6,2022-05-11_21h52.26.501,classification_task,2021.2.3,MacIntel,59.99880002,627c6715c52fd12f31907bd0,,,,,,,,,,,,,,,,,,,,,,,a,1,3.3221,"[""0.212"",""0.477"",""0.881"",""0.915""]","[1,0,1,1]",0,56,56,56,1,0,1,,,1,FALSE,,,,,,,,,,,,,,,,,,,,,,,,,,,,,,,
,613eb4f0b0ed6c2ce930bfba,627c7654f06d96c11627c5c6,2022-05-11_21h52.26.501,classification_task,2021.2.3,MacIntel,59.99880002,627c6715c52fd12f31907bd0,,,,,,,,,,,,,,,,,,,,,,,l,0,1.4389,"[""0.212"",""0.556"",""0.791"",""0.915""]","[1,1,0,1]",0,57,57,57,1,0,1,,,1,FALSE,,,,,,,,,,,,,,,,,,,,,,,,,,,,,,,
,613eb4f0b0ed6c2ce930bfba,627c7654f06d96c11627c5c6,2022-05-11_21h52.26.501,classification_task,2021.2.3,MacIntel,59.99880002,627c6715c52fd12f31907bd0,,,,,,,,,,,,,,,,,,,,,,,l,1,4.2652,"[""0.100"",""0.177"",""0.412"",""0.750""]","[1,1,0,1]",0,58,58,58,1,1,0,,,1,FALSE,,,,,,,,,,,,,,,,,,,,,,,,,,,,,,,
,613eb4f0b0ed6c2ce930bfba,627c7654f06d96c11627c5c6,2022-05-11_21h52.26.501,classification_task,2021.2.3,MacIntel,59.99880002,627c6715c52fd12f31907bd0,,,,,,,,,,,,,,,,,,,,,,,a,0,1.2596,"[""0.100"",""0.593"",""0.644"",""0.750""]","[1,0,1,1]",0,59,59,59,1,1,0,,,1,FALSE,,,,,,,,,,,,,,,,,,,,,,,,,,,,,,,
,613eb4f0b0ed6c2ce930bfba,627c7654f06d96c11627c5c6,2022-05-11_21h52.26.501,classification_task,2021.2.3,MacIntel,59.99880002,627c6715c52fd12f31907bd0,,,,,,,,,,,,,,,,,,,,,,,l,1,2.7322,"[""0.026"",""0.271"",""0.474"",""0.690""]","[1,1,0,1]",0,60,60,60,1,1,1,,,1,FALSE,,,,,,,,,,,,,,,,,,,,,,,,,,,,,,,
,613eb4f0b0ed6c2ce930bfba,627c7654f06d96c11627c5c6,2022-05-11_21h52.26.501,classification_task,2021.2.3,MacIntel,59.99880002,627c6715c52fd12f31907bd0,,,,,,,,,,,,,,,,,,,,,,,a,0,1.8701,"[""0.100"",""0.177"",""0.644"",""0.061""]","[1,1,1,0]",0,61,61,61,1,1,0,,,1,FALSE,,,,,,,,,,,,,,,,,,,,,,,,,,,,,,,
,613eb4f0b0ed6c2ce930bfba,627c7654f06d96c11627c5c6,2022-05-11_21h52.26.501,classification_task,2021.2.3,MacIntel,59.99880002,627c6715c52fd12f31907bd0,,,,,,,,,,,,,,,,,,,,,,,l,0,3.0846,"[""0.309"",""0.462"",""0.847"",""0.975""]","[1,0,1,1]",0,62,62,62,1,0,0,,,1,FALSE,,,,,,,,,,,,,,,,,,,,,,,,,,,,,,,
,613eb4f0b0ed6c2ce930bfba,627c7654f06d96c11627c5c6,2022-05-11_21h52.26.501,classification_task,2021.2.3,MacIntel,59.99880002,627c6715c52fd12f31907bd0,,,,,,,,,,,,,,,,,,,,,,,l,1,2.404,"[""0.026"",""0.271"",""0.514"",""0.610""]","[1,1,1,0]",0,63,63,63,1,1,1,,,1,FALSE,,,,,,,,,,,,,,,,,,,,,,,,,,,,,,,
,613eb4f0b0ed6c2ce930bfba,627c7654f06d96c11627c5c6,2022-05-11_21h52.26.501,classification_task,2021.2.3,MacIntel,59.99880002,627c6715c52fd12f31907bd0,,,,,,,,,,,,,,,,,,,,,,,,,,,,,,,,,,,,,,,0, ,,0,10,267.8931,0,2,2,2,1,2,3,,,,,,,,,,,,,,,,,,
,613eb4f0b0ed6c2ce930bfba,627c7654f06d96c11627c5c6,2022-05-11_21h52.26.501,classification_task,2021.2.3,MacIntel,59.99880002,627c6715c52fd12f31907bd0,,,,,,,,,,,,,,,,,,,,,,,,,,,,,,,,,,,,,,,1,  ,,0,10,270.8153,0,2,2,2,1,2,3,,,,,,,,,,,,,,,,,,
,613eb4f0b0ed6c2ce930bfba,627c7654f06d96c11627c5c6,2022-05-11_21h52.26.501,classification_task,2021.2.3,MacIntel,59.99880002,627c6715c52fd12f31907bd0,,,,,,,,,,,,,,,,,,,,,,,,,,,,,,,,,,,,,,,2,  ,,0,0,273.1438,0,2,2,2,1,2,3,,,,,,,,,,,,,,,,,,
,613eb4f0b0ed6c2ce930bfba,627c7654f06d96c11627c5c6,2022-05-11_21h52.26.501,classification_task,2021.2.3,MacIntel,59.99880002,627c6715c52fd12f31907bd0,,,,,,,,,,,,,,,,,,,,,,,,,,,,,,,,,,,,,,,,,,,,,0,2,2,2,1,,3,,,,,,,,,,,,,,,,,,
,613eb4f0b0ed6c2ce930bfba,627c7654f06d96c11627c5c6,2022-05-11_21h52.26.501,classification_task,2021.2.3,MacIntel,59.99880002,627c6715c52fd12f31907bd0,,,,,,,,,,,,,,,,,,,,,,,,,,,,,,,,,,,,,,,,,,,,,,,,,,,,,I believe the aid is a competent performer,,0.7,0,4,946.6519,0,0,0,0,1,0,,,,,
,613eb4f0b0ed6c2ce930bfba,627c7654f06d96c11627c5c6,2022-05-11_21h52.26.501,classification_task,2021.2.3,MacIntel,59.99880002,627c6715c52fd12f31907bd0,,,,,,,,,,,,,,,,,,,,,,,,,,,,,,,,,,,,,,,,,,,,,,,,,,,,,I trust the aid,,0.7,0,5,947.5736,0,0,0,0,1,0,,,,,
,613eb4f0b0ed6c2ce930bfba,627c7654f06d96c11627c5c6,2022-05-11_21h52.26.501,classification_task,2021.2.3,MacIntel,59.99880002,627c6715c52fd12f31907bd0,,,,,,,,,,,,,,,,,,,,,,,,,,,,,,,,,,,,,,,,,,,,,,,,,,,,,I have confidence in the advice given by the aid,,0.7,0,5,949.7207,0,0,0,0,1,0,,,,,
,613eb4f0b0ed6c2ce930bfba,627c7654f06d96c11627c5c6,2022-05-11_21h52.26.501,classification_task,2021.2.3,MacIntel,59.99880002,627c6715c52fd12f31907bd0,,,,,,,,,,,,,,,,,,,,,,,,,,,,,,,,,,,,,,,,,,,,,,,,,,,,,I can depend on the aid,,0.7,0,4,952.3047,0,0,0,0,1,0,,,,,
,613eb4f0b0ed6c2ce930bfba,627c7654f06d96c11627c5c6,2022-05-11_21h52.26.501,classification_task,2021.2.3,MacIntel,59.99880002,627c6715c52fd12f31907bd0,,,,,,,,,,,,,,,,,,,,,,,,,,,,,,,,,,,,,,,,,,,,,,,,,,,,,I can rely on the aid to behave in consistent ways,,0.7,0,5,956.6749,0,0,0,0,1,0,,,,,
,613eb4f0b0ed6c2ce930bfba,627c7654f06d96c11627c5c6,2022-05-11_21h52.26.501,classification_task,2021.2.3,MacIntel,59.99880002,627c6715c52fd12f31907bd0,,,,,,,,,,,,,,,,,,,,,,,,,,,,,,,,,,,,,,,,,,,,,,,,,,,,,I can rely on the aid to do its best every time I take its advice,,0.7,0,5,958.1841,0,0,0,0,1,0,,,,,
,613eb4f0b0ed6c2ce930bfba,627c7654f06d96c11627c5c6,2022-05-11_21h52.26.501,classification_task,2021.2.3,MacIntel,59.99880002,627c6715c52fd12f31907bd0,,,,,,,,,,,,,,,,,,,,,,,,,,,,,,,,,,,,,,,,,,,,,,,,,,,,,"On trials you completed with assistance from the aid, how frequently did you think the aid was correct?",,0.7,0,80,,0,0,0,0,1,0,,,,,
,613eb4f0b0ed6c2ce930bfba,627c7654f06d96c11627c5c6,2022-05-11_21h52.26.501,classification_task,2021.2.3,MacIntel,59.99880002,627c6715c52fd12f31907bd0,,,,,,,,,,,,,,,,,,,,,,,,,,,,,,,,,,,,,,,,,,,,,,,,,,,,,"On trials you completed without the aid, how frequently did you think you were correct?",,0.7,0,20,,0,0,0,0,1,0,,,,,
,613eb4f0b0ed6c2ce930bfba,627c7654f06d96c11627c5c6,2022-05-11_21h52.26.501,classification_task,2021.2.3,MacIntel,59.99880002,627c6715c52fd12f31907bd0,,,,,,,,,,,,,,,,,,,,,,,,,,,,,,,,,,,,,,,,,,,,,,,,,,,,,,,,,,,0,0,0,0,1,,,,,,
,613eb4f0b0ed6c2ce930bfba,627c7654f06d96c11627c5c6,2022-05-11_21h52.26.501,classification_task,2021.2.3,MacIntel,59.99880002,627c6715c52fd12f31907bd0,,,,,,,,,,,,,,,,,,,,,,,,,,,,,,,,,,,,,,,,,,,,,,,,,,,,,,,,,,,,,,,,,space,11.3113,992.0777,,
,613eb4f0b0ed6c2ce930bfba,627c7654f06d96c11627c5c6,2022-05-11_21h52.26.501,classification_task,2021.2.3,MacIntel,59.99880002,627c6715c52fd12f31907bd0,,,,,,,,,,,,,,,,,,,,,,,,,,,,,,,,,,,,,,,,,,,,,,,,,,,,,,,,,,,,,,,,,,,,"Mozilla/5.0 (Macintosh; Intel Mac OS X 10_15_7) AppleWebKit/537.36 (KHTML, like Gecko) Chrome/100.0.4896.127 Safari/537.36",
,613eb4f0b0ed6c2ce930bfba,627c7654f06d96c11627c5c6,2022-05-11_21h52.26.501,classification_task,2021.2.3,MacIntel,59.99880002,627c6715c52fd12f31907bd0,,,,,,,,,,,,,,,,,,,,,,,,,,,,,,,,,,,,,,,,,,,,,,,,,,,,,,,,,,,,,,,,,,,,,FADING
