usingWebGL,participant,session,date,expName,psychopyVersion,OS,frameRate,study_id,signatures_friend,signatures_foe,band_ranges_top,band_ranges_bottom,formitemText,formtype,formundefined,formitemWidth,formindex,formresponse,formrt,key_resp_2.keys,key_resp_2.rt,tute_resp.keys,tute_resp.rt,tutorial.thisRepN,tutorial.thisTrialN,tutorial.thisN,tutorial.thisIndex,tutorial.ran,key_resp_4.keys,key_resp_4.rt,key_resp.keys,key_resp.corr,key_resp.rt,lines_presented,is_signal_presented,trials.thisRepN,trials.thisTrialN,trials.thisN,trials.thisIndex,trials.ran,vessel,active_band,lines,is_signal,supported_pos,catch_trial,debrief_formindex,debrief_formitemText,debrief_formtype,debrief_formitemWidth,debrief_formresponse,debrief_formrt,phases.thisRepN,phases.thisTrialN,phases.thisN,phases.thisIndex,phases.ran,phases.order,phase,key_resp_3.keys,key_resp_3.rt,trustitemText,trusttype,trustitemWidth,trustindex,trustresponse,trustrt,support_status.thisRepN,support_status.thisTrialN,support_status.thisN,support_status.thisIndex,support_status.ran,support_status.order,key_resp_5.keys,key_resp_5.rt,globalClockTime,userAgent,manualCondition
TRUE,613fa83fcb16d5b3ff16b944,627c776757f611317cd97e7f,2022-05-11_21h57.00.844,classification_task,2021.2.3,Win32,60.21919788,627c6715c52fd12f31907bd0,,,,,,,,,,,,,,,,,,,,,,,,,,,,,,,,,,,,,,,,,,,,,,,,,,,,,,,,,,,,,,,,,,,,,,
,613fa83fcb16d5b3ff16b944,627c776757f611317cd97e7f,2022-05-11_21h57.00.844,classification_task,2021.2.3,Win32,60.21919788,627c6715c52fd12f31907bd0,"[[""0.312"",""0.421"",""0.914"",""0.967""],[""0.272"",""0.354"",""0.620"",""0.880""]]","[[""0.092"",""0.178"",""0.474"",""0.782""],[""0.139"",""0.232"",""0.579"",""0.703""]]","[1,10]","[100,1000]",Video game experience,,,0.7,0,,,,,,,,,,,,,,,,,,,,,,,,,,,,,,,,,,,,,,,,,,,,,,,,,,,,,,,,,,,,,
,613fa83fcb16d5b3ff16b944,627c776757f611317cd97e7f,2022-05-11_21h57.00.844,classification_task,2021.2.3,Win32,60.21919788,627c6715c52fd12f31907bd0,,,,,Approximately how many hours did you spend playing video games in the last week?,,,0.7,0,10,,,,,,,,,,,,,,,,,,,,,,,,,,,,,,,,,,,,,,,,,,,,,,,,,,,,,,,,,,,,
,613fa83fcb16d5b3ff16b944,627c776757f611317cd97e7f,2022-05-11_21h57.00.844,classification_task,2021.2.3,Win32,60.21919788,627c6715c52fd12f31907bd0,,,,,"Which game did you play the most this year? (Enter ""None"" if you didn't play any)",,,0.7,0,apex,,,,,,,,,,,,,,,,,,,,,,,,,,,,,,,,,,,,,,,,,,,,,,,,,,,,,,,,,,,,
,613fa83fcb16d5b3ff16b944,627c776757f611317cd97e7f,2022-05-11_21h57.00.844,classification_task,2021.2.3,Win32,60.21919788,627c6715c52fd12f31907bd0,,,,,Visual perception,,,0.7,0,,,,,,,,,,,,,,,,,,,,,,,,,,,,,,,,,,,,,,,,,,,,,,,,,,,,,,,,,,,,,
,613fa83fcb16d5b3ff16b944,627c776757f611317cd97e7f,2022-05-11_21h57.00.844,classification_task,2021.2.3,Win32,60.21919788,627c6715c52fd12f31907bd0,,,,,Do you have any form of color blindness?,,,0.7,0,No,27.6579,,,,,,,,,,,,,,,,,,,,,,,,,,,,,,,,,,,,,,,,,,,,,,,,,,,,,,,,,,,
,613fa83fcb16d5b3ff16b944,627c776757f611317cd97e7f,2022-05-11_21h57.00.844,classification_task,2021.2.3,Win32,60.21919788,627c6715c52fd12f31907bd0,,,,,Do you use software to change the colour temperature of your screen (e.g. f.lux)?,,,0.7,0,No,29.2698,,,,,,,,,,,,,,,,,,,,,,,,,,,,,,,,,,,,,,,,,,,,,,,,,,,,,,,,,,,
,613fa83fcb16d5b3ff16b944,627c776757f611317cd97e7f,2022-05-11_21h57.00.844,classification_task,2021.2.3,Win32,60.21919788,627c6715c52fd12f31907bd0,,,,,,,,,,,,space,25.8003,space,9.7695,0,0,0,0,1,,,,,,,,,,,,,,,,,,,,,,,,,,,,,,,,,,,,,,,,,,,,,,,,,,
,613fa83fcb16d5b3ff16b944,627c776757f611317cd97e7f,2022-05-11_21h57.00.844,classification_task,2021.2.3,Win32,60.21919788,627c6715c52fd12f31907bd0,,,,,,,,,,,,,,space,8.4996,1,0,1,0,1,,,,,,,,,,,,,,,,,,,,,,,,,,,,,,,,,,,,,,,,,,,,,,,,,,
,613fa83fcb16d5b3ff16b944,627c776757f611317cd97e7f,2022-05-11_21h57.00.844,classification_task,2021.2.3,Win32,60.21919788,627c6715c52fd12f31907bd0,,,,,,,,,,,,,,space,16.3863,2,0,2,0,1,,,,,,,,,,,,,,,,,,,,,,,,,,,,,,,,,,,,,,,,,,,,,,,,,,
,613fa83fcb16d5b3ff16b944,627c776757f611317cd97e7f,2022-05-11_21h57.00.844,classification_task,2021.2.3,Win32,60.21919788,627c6715c52fd12f31907bd0,,,,,,,,,,,,,,space,16.2359,3,0,3,0,1,,,,,,,,,,,,,,,,,,,,,,,,,,,,,,,,,,,,,,,,,,,,,,,,,,
,613fa83fcb16d5b3ff16b944,627c776757f611317cd97e7f,2022-05-11_21h57.00.844,classification_task,2021.2.3,Win32,60.21919788,627c6715c52fd12f31907bd0,,,,,,,,,,,,,,space,14.9176,4,0,4,0,1,,,,,,,,,,,,,,,,,,,,,,,,,,,,,,,,,,,,,,,,,,,,,,,,,,
,613fa83fcb16d5b3ff16b944,627c776757f611317cd97e7f,2022-05-11_21h57.00.844,classification_task,2021.2.3,Win32,60.21919788,627c6715c52fd12f31907bd0,,,,,,,,,,,,,,,,,,,,,space,16.9295,a,1,8.3624,"[""0.272"",""0.354"",""0.058"",""0.880""]","[1,1,0,1]",0,0,0,0,1,0,1,,,1,FALSE,,,,,,,,,,,,,,,,,,,,,,,,,,,,,,,,
,613fa83fcb16d5b3ff16b944,627c776757f611317cd97e7f,2022-05-11_21h57.00.844,classification_task,2021.2.3,Win32,60.21919788,627c6715c52fd12f31907bd0,,,,,,,,,,,,,,,,,,,,,,,l,1,5.8134,"[""0.092"",""0.178"",""0.474"",""0.513""]","[1,1,1,0]",0,1,1,1,1,1,0,,,1,FALSE,,,,,,,,,,,,,,,,,,,,,,,,,,,,,,,,
,613fa83fcb16d5b3ff16b944,627c776757f611317cd97e7f,2022-05-11_21h57.00.844,classification_task,2021.2.3,Win32,60.21919788,627c6715c52fd12f31907bd0,,,,,,,,,,,,,,,,,,,,,,,l,1,5.3324,"[""0.139"",""0.232"",""0.528"",""0.703""]","[1,1,0,1]",0,2,2,2,1,1,1,,,1,FALSE,,,,,,,,,,,,,,,,,,,,,,,,,,,,,,,,
,613fa83fcb16d5b3ff16b944,627c776757f611317cd97e7f,2022-05-11_21h57.00.844,classification_task,2021.2.3,Win32,60.21919788,627c6715c52fd12f31907bd0,,,,,,,,,,,,,,,,,,,,,,,a,1,3.5938,"[""0.312"",""0.421"",""0.914"",""0.528""]","[1,1,1,0]",0,3,3,3,1,0,0,,,1,FALSE,,,,,,,,,,,,,,,,,,,,,,,,,,,,,,,,
,613fa83fcb16d5b3ff16b944,627c776757f611317cd97e7f,2022-05-11_21h57.00.844,classification_task,2021.2.3,Win32,60.21919788,627c6715c52fd12f31907bd0,,,,,,,,,,,,,,,,,,,,,,,a,1,3.3145,"[""0.312"",""0.528"",""0.914"",""0.967""]","[1,0,1,1]",0,4,4,4,1,0,0,,,1,FALSE,,,,,,,,,,,,,,,,,,,,,,,,,,,,,,,,
,613fa83fcb16d5b3ff16b944,627c776757f611317cd97e7f,2022-05-11_21h57.00.844,classification_task,2021.2.3,Win32,60.21919788,627c6715c52fd12f31907bd0,,,,,,,,,,,,,,,,,,,,,,,l,1,4.0208,"[""0.139"",""0.660"",""0.579"",""0.703""]","[1,0,1,1]",0,5,5,5,1,1,1,,,1,FALSE,,,,,,,,,,,,,,,,,,,,,,,,,,,,,,,,
,613fa83fcb16d5b3ff16b944,627c776757f611317cd97e7f,2022-05-11_21h57.00.844,classification_task,2021.2.3,Win32,60.21919788,627c6715c52fd12f31907bd0,,,,,,,,,,,,,,,,,,,,,,,l,0,4.1656,"[""0.272"",""0.354"",""0.620"",""0.528""]","[1,1,1,0]",0,6,6,6,1,0,1,,,1,FALSE,,,,,,,,,,,,,,,,,,,,,,,,,,,,,,,,
,613fa83fcb16d5b3ff16b944,627c776757f611317cd97e7f,2022-05-11_21h57.00.844,classification_task,2021.2.3,Win32,60.21919788,627c6715c52fd12f31907bd0,,,,,,,,,,,,,,,,,,,,,,,l,1,6.5454,"[""0.747"",""0.232"",""0.579"",""0.703""]","[0,1,1,1]",0,7,7,7,1,1,1,,,1,FALSE,,,,,,,,,,,,,,,,,,,,,,,,,,,,,,,,
,613fa83fcb16d5b3ff16b944,627c776757f611317cd97e7f,2022-05-11_21h57.00.844,classification_task,2021.2.3,Win32,60.21919788,627c6715c52fd12f31907bd0,,,,,,,,,,,,,,,,,,,,,,,a,1,9.0344,"[""0.027"",""0.421"",""0.914"",""0.967""]","[0,1,1,1]",0,8,8,8,1,0,0,,,1,FALSE,,,,,,,,,,,,,,,,,,,,,,,,,,,,,,,,
,613fa83fcb16d5b3ff16b944,627c776757f611317cd97e7f,2022-05-11_21h57.00.844,classification_task,2021.2.3,Win32,60.21919788,627c6715c52fd12f31907bd0,,,,,,,,,,,,,,,,,,,,,,,a,1,6.8472,"[""0.312"",""0.421"",""0.738"",""0.967""]","[1,1,0,1]",0,9,9,9,1,0,0,,,1,FALSE,,,,,,,,,,,,,,,,,,,,,,,,,,,,,,,,
,613fa83fcb16d5b3ff16b944,627c776757f611317cd97e7f,2022-05-11_21h57.00.844,classification_task,2021.2.3,Win32,60.21919788,627c6715c52fd12f31907bd0,,,,,,,,,,,,,,,,,,,,,,,l,1,3.6648,"[""0.669"",""0.178"",""0.474"",""0.782""]","[0,1,1,1]",0,10,10,10,1,1,0,,,1,FALSE,,,,,,,,,,,,,,,,,,,,,,,,,,,,,,,,
,613fa83fcb16d5b3ff16b944,627c776757f611317cd97e7f,2022-05-11_21h57.00.844,classification_task,2021.2.3,Win32,60.21919788,627c6715c52fd12f31907bd0,,,,,,,,,,,,,,,,,,,,,,,l,1,5.5626,"[""0.139"",""0.232"",""0.579"",""0.669""]","[1,1,1,0]",0,11,11,11,1,1,1,,,1,FALSE,,,,,,,,,,,,,,,,,,,,,,,,,,,,,,,,
,613fa83fcb16d5b3ff16b944,627c776757f611317cd97e7f,2022-05-11_21h57.00.844,classification_task,2021.2.3,Win32,60.21919788,627c6715c52fd12f31907bd0,,,,,,,,,,,,,,,,,,,,,,,l,1,3.9342,"[""0.092"",""0.660"",""0.474"",""0.782""]","[1,0,1,1]",0,12,12,12,1,1,0,,,1,FALSE,,,,,,,,,,,,,,,,,,,,,,,,,,,,,,,,
,613fa83fcb16d5b3ff16b944,627c776757f611317cd97e7f,2022-05-11_21h57.00.844,classification_task,2021.2.3,Win32,60.21919788,627c6715c52fd12f31907bd0,,,,,,,,,,,,,,,,,,,,,,,l,1,2.8648,"[""0.092"",""0.178"",""0.660"",""0.782""]","[1,1,0,1]",0,13,13,13,1,1,0,,,1,FALSE,,,,,,,,,,,,,,,,,,,,,,,,,,,,,,,,
,613fa83fcb16d5b3ff16b944,627c776757f611317cd97e7f,2022-05-11_21h57.00.844,classification_task,2021.2.3,Win32,60.21919788,627c6715c52fd12f31907bd0,,,,,,,,,,,,,,,,,,,,,,,l,0,4.5927,"[""0.272"",""0.528"",""0.620"",""0.880""]","[1,0,1,1]",0,14,14,14,1,0,1,,,1,FALSE,,,,,,,,,,,,,,,,,,,,,,,,,,,,,,,,
,613fa83fcb16d5b3ff16b944,627c776757f611317cd97e7f,2022-05-11_21h57.00.844,classification_task,2021.2.3,Win32,60.21919788,627c6715c52fd12f31907bd0,,,,,,,,,,,,,,,,,,,,,,,l,0,5.0484,"[""0.528"",""0.354"",""0.620"",""0.880""]","[0,1,1,1]",0,15,15,15,1,0,1,,,1,FALSE,,,,,,,,,,,,,,,,,,,,,,,,,,,,,,,,
,613fa83fcb16d5b3ff16b944,627c776757f611317cd97e7f,2022-05-11_21h57.00.844,classification_task,2021.2.3,Win32,60.21919788,627c6715c52fd12f31907bd0,,,,,,,,,,,,,,,,,,,,,,,l,1,5.863,"[""0.139"",""0.232"",""0.579"",""0.660""]","[1,1,1,0]",0,16,16,16,1,1,1,,,1,FALSE,,,,,,,,,,,,,,,,,,,,,,,,,,,,,,,,
,613fa83fcb16d5b3ff16b944,627c776757f611317cd97e7f,2022-05-11_21h57.00.844,classification_task,2021.2.3,Win32,60.21919788,627c6715c52fd12f31907bd0,,,,,,,,,,,,,,,,,,,,,,,l,1,4.5488,"[""0.092"",""0.178"",""0.474"",""0.660""]","[1,1,1,0]",0,17,17,17,1,1,0,,,1,FALSE,,,,,,,,,,,,,,,,,,,,,,,,,,,,,,,,
,613fa83fcb16d5b3ff16b944,627c776757f611317cd97e7f,2022-05-11_21h57.00.844,classification_task,2021.2.3,Win32,60.21919788,627c6715c52fd12f31907bd0,,,,,,,,,,,,,,,,,,,,,,,l,0,7.2334,"[""0.312"",""0.421"",""0.914"",""0.535""]","[1,1,1,0]",0,18,18,18,1,0,0,,,1,FALSE,,,,,,,,,,,,,,,,,,,,,,,,,,,,,,,,
,613fa83fcb16d5b3ff16b944,627c776757f611317cd97e7f,2022-05-11_21h57.00.844,classification_task,2021.2.3,Win32,60.21919788,627c6715c52fd12f31907bd0,,,,,,,,,,,,,,,,,,,,,,,l,1,4.3643,"[""0.092"",""0.660"",""0.474"",""0.782""]","[1,0,1,1]",0,19,19,19,1,1,0,,,1,FALSE,,,,,,,,,,,,,,,,,,,,,,,,,,,,,,,,
,613fa83fcb16d5b3ff16b944,627c776757f611317cd97e7f,2022-05-11_21h57.00.844,classification_task,2021.2.3,Win32,60.21919788,627c6715c52fd12f31907bd0,,,,,,,,,,,,,,,,,,,,,,,a,1,4.5106,"[""0.272"",""0.058"",""0.620"",""0.880""]","[1,0,1,1]",0,20,20,20,1,0,1,,,1,FALSE,,,,,,,,,,,,,,,,,,,,,,,,,,,,,,,,
,613fa83fcb16d5b3ff16b944,627c776757f611317cd97e7f,2022-05-11_21h57.00.844,classification_task,2021.2.3,Win32,60.21919788,627c6715c52fd12f31907bd0,,,,,,,,,,,,,,,,,,,,,,,a,1,4.2487,"[""0.526"",""0.354"",""0.620"",""0.880""]","[0,1,1,1]",0,21,21,21,1,0,1,,,1,FALSE,,,,,,,,,,,,,,,,,,,,,,,,,,,,,,,,
,613fa83fcb16d5b3ff16b944,627c776757f611317cd97e7f,2022-05-11_21h57.00.844,classification_task,2021.2.3,Win32,60.21919788,627c6715c52fd12f31907bd0,,,,,,,,,,,,,,,,,,,,,,,a,1,3.4148,"[""0.272"",""0.354"",""0.526"",""0.880""]","[1,1,0,1]",0,22,22,22,1,0,1,,,1,FALSE,,,,,,,,,,,,,,,,,,,,,,,,,,,,,,,,
,613fa83fcb16d5b3ff16b944,627c776757f611317cd97e7f,2022-05-11_21h57.00.844,classification_task,2021.2.3,Win32,60.21919788,627c6715c52fd12f31907bd0,,,,,,,,,,,,,,,,,,,,,,,l,1,4.1318,"[""0.535"",""0.178"",""0.474"",""0.782""]","[0,1,1,1]",0,23,23,23,1,1,0,,,1,FALSE,,,,,,,,,,,,,,,,,,,,,,,,,,,,,,,,
,613fa83fcb16d5b3ff16b944,627c776757f611317cd97e7f,2022-05-11_21h57.00.844,classification_task,2021.2.3,Win32,60.21919788,627c6715c52fd12f31907bd0,,,,,,,,,,,,,,,,,,,,,,,a,1,3.8479,"[""0.312"",""0.421"",""0.528"",""0.967""]","[1,1,0,1]",0,24,24,24,1,0,0,,,1,FALSE,,,,,,,,,,,,,,,,,,,,,,,,,,,,,,,,
,613fa83fcb16d5b3ff16b944,627c776757f611317cd97e7f,2022-05-11_21h57.00.844,classification_task,2021.2.3,Win32,60.21919788,627c6715c52fd12f31907bd0,,,,,,,,,,,,,,,,,,,,,,,a,1,3.6107,"[""0.312"",""0.039"",""0.914"",""0.967""]","[1,0,1,1]",0,25,25,25,1,0,0,,,1,FALSE,,,,,,,,,,,,,,,,,,,,,,,,,,,,,,,,
,613fa83fcb16d5b3ff16b944,627c776757f611317cd97e7f,2022-05-11_21h57.00.844,classification_task,2021.2.3,Win32,60.21919788,627c6715c52fd12f31907bd0,,,,,,,,,,,,,,,,,,,,,,,l,1,8.0532,"[""0.139"",""0.528"",""0.579"",""0.703""]","[1,0,1,1]",0,26,26,26,1,1,1,,,1,FALSE,,,,,,,,,,,,,,,,,,,,,,,,,,,,,,,,
,613fa83fcb16d5b3ff16b944,627c776757f611317cd97e7f,2022-05-11_21h57.00.844,classification_task,2021.2.3,Win32,60.21919788,627c6715c52fd12f31907bd0,,,,,,,,,,,,,,,,,,,,,,,a,0,4.9768,"[""0.513"",""0.232"",""0.579"",""0.703""]","[0,1,1,1]",0,27,27,27,1,1,1,,,1,FALSE,,,,,,,,,,,,,,,,,,,,,,,,,,,,,,,,
,613fa83fcb16d5b3ff16b944,627c776757f611317cd97e7f,2022-05-11_21h57.00.844,classification_task,2021.2.3,Win32,60.21919788,627c6715c52fd12f31907bd0,,,,,,,,,,,,,,,,,,,,,,,a,1,5.1521,"[""0.660"",""0.421"",""0.914"",""0.967""]","[0,1,1,1]",0,28,28,28,1,0,0,,,1,FALSE,,,,,,,,,,,,,,,,,,,,,,,,,,,,,,,,
,613fa83fcb16d5b3ff16b944,627c776757f611317cd97e7f,2022-05-11_21h57.00.844,classification_task,2021.2.3,Win32,60.21919788,627c6715c52fd12f31907bd0,,,,,,,,,,,,,,,,,,,,,,,,0,,"[""0.272"",""0.354"",""0.620"",""0.058""]","[1,1,1,0]",0,29,29,29,1,0,1,,,1,FALSE,,,,,,,,,,,,,,,,,,,,,,,,,,,,,,,,
,613fa83fcb16d5b3ff16b944,627c776757f611317cd97e7f,2022-05-11_21h57.00.844,classification_task,2021.2.3,Win32,60.21919788,627c6715c52fd12f31907bd0,,,,,,,,,,,,,,,,,,,,,,,l,1,3.0251,"[""0.139"",""0.232"",""0.039"",""0.703""]","[1,1,0,1]",0,30,30,30,1,1,1,,,1,FALSE,,,,,,,,,,,,,,,,,,,,,,,,,,,,,,,,
,613fa83fcb16d5b3ff16b944,627c776757f611317cd97e7f,2022-05-11_21h57.00.844,classification_task,2021.2.3,Win32,60.21919788,627c6715c52fd12f31907bd0,,,,,,,,,,,,,,,,,,,,,,,l,1,4.037,"[""0.092"",""0.178"",""0.660"",""0.782""]","[1,1,0,1]",0,31,31,31,1,1,0,,,1,FALSE,,,,,,,,,,,,,,,,,,,,,,,,,,,,,,,,
,613fa83fcb16d5b3ff16b944,627c776757f611317cd97e7f,2022-05-11_21h57.00.844,classification_task,2021.2.3,Win32,60.21919788,627c6715c52fd12f31907bd0,,,,,,,,,,,,,,,,,,,,,,,a,0,7.9442,"[""0.139"",""0.232"",""0.039"",""0.703""]","[1,1,0,1]",0,32,32,32,1,1,1,,,1,FALSE,,,,,,,,,,,,,,,,,,,,,,,,,,,,,,,,
,613fa83fcb16d5b3ff16b944,627c776757f611317cd97e7f,2022-05-11_21h57.00.844,classification_task,2021.2.3,Win32,60.21919788,627c6715c52fd12f31907bd0,,,,,,,,,,,,,,,,,,,,,,,l,1,3.7967,"[""0.513"",""0.232"",""0.579"",""0.703""]","[0,1,1,1]",0,33,33,33,1,1,1,,,1,FALSE,,,,,,,,,,,,,,,,,,,,,,,,,,,,,,,,
,613fa83fcb16d5b3ff16b944,627c776757f611317cd97e7f,2022-05-11_21h57.00.844,classification_task,2021.2.3,Win32,60.21919788,627c6715c52fd12f31907bd0,,,,,,,,,,,,,,,,,,,,,,,l,1,3.4276,"[""0.092"",""0.178"",""0.747"",""0.782""]","[1,1,0,1]",0,34,34,34,1,1,0,,,1,FALSE,,,,,,,,,,,,,,,,,,,,,,,,,,,,,,,,
,613fa83fcb16d5b3ff16b944,627c776757f611317cd97e7f,2022-05-11_21h57.00.844,classification_task,2021.2.3,Win32,60.21919788,627c6715c52fd12f31907bd0,,,,,,,,,,,,,,,,,,,,,,,a,1,4.4101,"[""0.272"",""0.354"",""0.620"",""0.513""]","[1,1,1,0]",0,35,35,35,1,0,1,,,1,FALSE,,,,,,,,,,,,,,,,,,,,,,,,,,,,,,,,
,613fa83fcb16d5b3ff16b944,627c776757f611317cd97e7f,2022-05-11_21h57.00.844,classification_task,2021.2.3,Win32,60.21919788,627c6715c52fd12f31907bd0,,,,,,,,,,,,,,,,,,,,,,,l,1,0.9869,"[""0.139"",""0.232"",""0.579"",""0.535""]","[1,1,1,0]",0,36,36,36,1,1,1,,,1,FALSE,,,,,,,,,,,,,,,,,,,,,,,,,,,,,,,,
,613fa83fcb16d5b3ff16b944,627c776757f611317cd97e7f,2022-05-11_21h57.00.844,classification_task,2021.2.3,Win32,60.21919788,627c6715c52fd12f31907bd0,,,,,,,,,,,,,,,,,,,,,,,l,0,1.1265,"[""0.312"",""0.747"",""0.914"",""0.967""]","[1,0,1,1]",0,37,37,37,1,0,0,,,1,FALSE,,,,,,,,,,,,,,,,,,,,,,,,,,,,,,,,
,613fa83fcb16d5b3ff16b944,627c776757f611317cd97e7f,2022-05-11_21h57.00.844,classification_task,2021.2.3,Win32,60.21919788,627c6715c52fd12f31907bd0,,,,,,,,,,,,,,,,,,,,,,,a,0,2.0131,"[""0.660"",""0.178"",""0.474"",""0.782""]","[0,1,1,1]",0,38,38,38,1,1,0,,,1,FALSE,,,,,,,,,,,,,,,,,,,,,,,,,,,,,,,,
,613fa83fcb16d5b3ff16b944,627c776757f611317cd97e7f,2022-05-11_21h57.00.844,classification_task,2021.2.3,Win32,60.21919788,627c6715c52fd12f31907bd0,,,,,,,,,,,,,,,,,,,,,,,a,0,1.362,"[""0.139"",""0.058"",""0.579"",""0.703""]","[1,0,1,1]",0,39,39,39,1,1,1,,,1,FALSE,,,,,,,,,,,,,,,,,,,,,,,,,,,,,,,,
,613fa83fcb16d5b3ff16b944,627c776757f611317cd97e7f,2022-05-11_21h57.00.844,classification_task,2021.2.3,Win32,60.21919788,627c6715c52fd12f31907bd0,,,,,,,,,,,,,,,,,,,,,,,l,1,1.9744,"[""0.092"",""0.048"",""0.474"",""0.782""]","[1,0,1,1]",0,40,40,40,1,1,0,,,1,FALSE,,,,,,,,,,,,,,,,,,,,,,,,,,,,,,,,
,613fa83fcb16d5b3ff16b944,627c776757f611317cd97e7f,2022-05-11_21h57.00.844,classification_task,2021.2.3,Win32,60.21919788,627c6715c52fd12f31907bd0,,,,,,,,,,,,,,,,,,,,,,,l,0,0.8238,"[""0.312"",""0.421"",""0.535"",""0.967""]","[1,1,0,1]",0,41,41,41,1,0,0,,,1,FALSE,,,,,,,,,,,,,,,,,,,,,,,,,,,,,,,,
,613fa83fcb16d5b3ff16b944,627c776757f611317cd97e7f,2022-05-11_21h57.00.844,classification_task,2021.2.3,Win32,60.21919788,627c6715c52fd12f31907bd0,,,,,,,,,,,,,,,,,,,,,,,a,1,0.7732,"[""0.312"",""0.421"",""0.914"",""0.027""]","[1,1,1,0]",0,42,42,42,1,0,0,,,1,FALSE,,,,,,,,,,,,,,,,,,,,,,,,,,,,,,,,
,613fa83fcb16d5b3ff16b944,627c776757f611317cd97e7f,2022-05-11_21h57.00.844,classification_task,2021.2.3,Win32,60.21919788,627c6715c52fd12f31907bd0,,,,,,,,,,,,,,,,,,,,,,,a,1,2.947,"[""0.528"",""0.354"",""0.620"",""0.880""]","[0,1,1,1]",0,43,43,43,1,0,1,,,1,FALSE,,,,,,,,,,,,,,,,,,,,,,,,,,,,,,,,
,613fa83fcb16d5b3ff16b944,627c776757f611317cd97e7f,2022-05-11_21h57.00.844,classification_task,2021.2.3,Win32,60.21919788,627c6715c52fd12f31907bd0,,,,,,,,,,,,,,,,,,,,,,,l,1,1.2799,"[""0.092"",""0.178"",""0.474"",""0.027""]","[1,1,1,0]",0,44,44,44,1,1,0,,,1,FALSE,,,,,,,,,,,,,,,,,,,,,,,,,,,,,,,,
,613fa83fcb16d5b3ff16b944,627c776757f611317cd97e7f,2022-05-11_21h57.00.844,classification_task,2021.2.3,Win32,60.21919788,627c6715c52fd12f31907bd0,,,,,,,,,,,,,,,,,,,,,,,a,1,1.4754,"[""0.272"",""0.513"",""0.620"",""0.880""]","[1,0,1,1]",0,45,45,45,1,0,1,,,1,FALSE,,,,,,,,,,,,,,,,,,,,,,,,,,,,,,,,
,613fa83fcb16d5b3ff16b944,627c776757f611317cd97e7f,2022-05-11_21h57.00.844,classification_task,2021.2.3,Win32,60.21919788,627c6715c52fd12f31907bd0,,,,,,,,,,,,,,,,,,,,,,,a,1,2.1287,"[""0.272"",""0.354"",""0.669"",""0.880""]","[1,1,0,1]",0,46,46,46,1,0,1,,,1,FALSE,,,,,,,,,,,,,,,,,,,,,,,,,,,,,,,,
,613fa83fcb16d5b3ff16b944,627c776757f611317cd97e7f,2022-05-11_21h57.00.844,classification_task,2021.2.3,Win32,60.21919788,627c6715c52fd12f31907bd0,,,,,,,,,,,,,,,,,,,,,,,l,0,1.1424,"[""0.048"",""0.421"",""0.914"",""0.967""]","[0,1,1,1]",0,47,47,47,1,0,0,,,1,FALSE,,,,,,,,,,,,,,,,,,,,,,,,,,,,,,,,
,613fa83fcb16d5b3ff16b944,627c776757f611317cd97e7f,2022-05-11_21h57.00.844,classification_task,2021.2.3,Win32,60.21919788,627c6715c52fd12f31907bd0,,,,,,,,,,,,,,,,,,,,,,,l,0,0.8931,"[""0.312"",""0.421"",""0.914"",""0.513""]","[1,1,1,0]",0,48,48,48,1,0,0,,,1,FALSE,,,,,,,,,,,,,,,,,,,,,,,,,,,,,,,,
,613fa83fcb16d5b3ff16b944,627c776757f611317cd97e7f,2022-05-11_21h57.00.844,classification_task,2021.2.3,Win32,60.21919788,627c6715c52fd12f31907bd0,,,,,,,,,,,,,,,,,,,,,,,a,0,0.9363,"[""0.092"",""0.178"",""0.474"",""0.528""]","[1,1,1,0]",0,49,49,49,1,1,0,,,1,FALSE,,,,,,,,,,,,,,,,,,,,,,,,,,,,,,,,
,613fa83fcb16d5b3ff16b944,627c776757f611317cd97e7f,2022-05-11_21h57.00.844,classification_task,2021.2.3,Win32,60.21919788,627c6715c52fd12f31907bd0,,,,,,,,,,,,,,,,,,,,,,,a,1,0.861,"[""0.037"",""0.354"",""0.620"",""0.880""]","[0,1,1,1]",0,50,50,50,1,0,1,,,1,FALSE,,,,,,,,,,,,,,,,,,,,,,,,,,,,,,,,
,613fa83fcb16d5b3ff16b944,627c776757f611317cd97e7f,2022-05-11_21h57.00.844,classification_task,2021.2.3,Win32,60.21919788,627c6715c52fd12f31907bd0,,,,,,,,,,,,,,,,,,,,,,,l,0,0.8533,"[""0.312"",""0.037"",""0.914"",""0.967""]","[1,0,1,1]",0,51,51,51,1,0,0,,,1,FALSE,,,,,,,,,,,,,,,,,,,,,,,,,,,,,,,,
,613fa83fcb16d5b3ff16b944,627c776757f611317cd97e7f,2022-05-11_21h57.00.844,classification_task,2021.2.3,Win32,60.21919788,627c6715c52fd12f31907bd0,,,,,,,,,,,,,,,,,,,,,,,a,1,2.1289,"[""0.535"",""0.421"",""0.914"",""0.967""]","[0,1,1,1]",0,52,52,52,1,0,0,,,1,FALSE,,,,,,,,,,,,,,,,,,,,,,,,,,,,,,,,
,613fa83fcb16d5b3ff16b944,627c776757f611317cd97e7f,2022-05-11_21h57.00.844,classification_task,2021.2.3,Win32,60.21919788,627c6715c52fd12f31907bd0,,,,,,,,,,,,,,,,,,,,,,,a,0,1.1946,"[""0.139"",""0.232"",""0.535"",""0.703""]","[1,1,0,1]",0,53,53,53,1,1,1,,,1,FALSE,,,,,,,,,,,,,,,,,,,,,,,,,,,,,,,,
,613fa83fcb16d5b3ff16b944,627c776757f611317cd97e7f,2022-05-11_21h57.00.844,classification_task,2021.2.3,Win32,60.21919788,627c6715c52fd12f31907bd0,,,,,,,,,,,,,,,,,,,,,,,a,1,0.9292,"[""0.272"",""0.039"",""0.620"",""0.880""]","[1,0,1,1]",0,54,54,54,1,0,1,,,1,FALSE,,,,,,,,,,,,,,,,,,,,,,,,,,,,,,,,
,613fa83fcb16d5b3ff16b944,627c776757f611317cd97e7f,2022-05-11_21h57.00.844,classification_task,2021.2.3,Win32,60.21919788,627c6715c52fd12f31907bd0,,,,,,,,,,,,,,,,,,,,,,,a,0,1.0929,"[""0.528"",""0.178"",""0.474"",""0.782""]","[0,1,1,1]",0,55,55,55,1,1,0,,,1,FALSE,,,,,,,,,,,,,,,,,,,,,,,,,,,,,,,,
,613fa83fcb16d5b3ff16b944,627c776757f611317cd97e7f,2022-05-11_21h57.00.844,classification_task,2021.2.3,Win32,60.21919788,627c6715c52fd12f31907bd0,,,,,,,,,,,,,,,,,,,,,,,a,0,0.9585,"[""0.039"",""0.232"",""0.579"",""0.703""]","[0,1,1,1]",0,56,56,56,1,1,1,,,1,FALSE,,,,,,,,,,,,,,,,,,,,,,,,,,,,,,,,
,613fa83fcb16d5b3ff16b944,627c776757f611317cd97e7f,2022-05-11_21h57.00.844,classification_task,2021.2.3,Win32,60.21919788,627c6715c52fd12f31907bd0,,,,,,,,,,,,,,,,,,,,,,,l,1,0.4773,"[""0.092"",""0.058"",""0.474"",""0.782""]","[1,0,1,1]",0,57,57,57,1,1,0,,,1,FALSE,,,,,,,,,,,,,,,,,,,,,,,,,,,,,,,,
,613fa83fcb16d5b3ff16b944,627c776757f611317cd97e7f,2022-05-11_21h57.00.844,classification_task,2021.2.3,Win32,60.21919788,627c6715c52fd12f31907bd0,,,,,,,,,,,,,,,,,,,,,,,l,0,0.8677,"[""0.312"",""0.421"",""0.526"",""0.967""]","[1,1,0,1]",0,58,58,58,1,0,0,,,1,FALSE,,,,,,,,,,,,,,,,,,,,,,,,,,,,,,,,
,613fa83fcb16d5b3ff16b944,627c776757f611317cd97e7f,2022-05-11_21h57.00.844,classification_task,2021.2.3,Win32,60.21919788,627c6715c52fd12f31907bd0,,,,,,,,,,,,,,,,,,,,,,,a,0,0.5729,"[""0.139"",""0.232"",""0.579"",""0.053""]","[1,1,1,0]",0,59,59,59,1,1,1,,,1,FALSE,,,,,,,,,,,,,,,,,,,,,,,,,,,,,,,,
,613fa83fcb16d5b3ff16b944,627c776757f611317cd97e7f,2022-05-11_21h57.00.844,classification_task,2021.2.3,Win32,60.21919788,627c6715c52fd12f31907bd0,,,,,,,,,,,,,,,,,,,,,,,l,1,0.6428,"[""0.092"",""0.178"",""0.037"",""0.782""]","[1,1,0,1]",0,60,60,60,1,1,0,,,1,FALSE,,,,,,,,,,,,,,,,,,,,,,,,,,,,,,,,
,613fa83fcb16d5b3ff16b944,627c776757f611317cd97e7f,2022-05-11_21h57.00.844,classification_task,2021.2.3,Win32,60.21919788,627c6715c52fd12f31907bd0,,,,,,,,,,,,,,,,,,,,,,,l,0,0.9973,"[""0.272"",""0.354"",""0.620"",""0.058""]","[1,1,1,0]",0,61,61,61,1,0,1,,,1,FALSE,,,,,,,,,,,,,,,,,,,,,,,,,,,,,,,,
,613fa83fcb16d5b3ff16b944,627c776757f611317cd97e7f,2022-05-11_21h57.00.844,classification_task,2021.2.3,Win32,60.21919788,627c6715c52fd12f31907bd0,,,,,,,,,,,,,,,,,,,,,,,a,1,0.9759,"[""0.272"",""0.354"",""0.669"",""0.880""]","[1,1,0,1]",0,62,62,62,1,0,1,,,1,FALSE,,,,,,,,,,,,,,,,,,,,,,,,,,,,,,,,
,613fa83fcb16d5b3ff16b944,627c776757f611317cd97e7f,2022-05-11_21h57.00.844,classification_task,2021.2.3,Win32,60.21919788,627c6715c52fd12f31907bd0,,,,,,,,,,,,,,,,,,,,,,,a,0,1.0591,"[""0.139"",""0.526"",""0.579"",""0.703""]","[1,0,1,1]",0,63,63,63,1,1,1,,,1,FALSE,,,,,,,,,,,,,,,,,,,,,,,,,,,,,,,,
,613fa83fcb16d5b3ff16b944,627c776757f611317cd97e7f,2022-05-11_21h57.00.844,classification_task,2021.2.3,Win32,60.21919788,627c6715c52fd12f31907bd0,,,,,,,,,,,,,,,,,,,,,,,,,,,,,,,,,,,,,,,0, ,,0,,,0,0,0,0,1,2,1,,,,,,,,,,,,,,,,,,,
,613fa83fcb16d5b3ff16b944,627c776757f611317cd97e7f,2022-05-11_21h57.00.844,classification_task,2021.2.3,Win32,60.21919788,627c6715c52fd12f31907bd0,,,,,,,,,,,,,,,,,,,,,,,,,,,,,,,,,,,,,,,1,  ,,0,,,0,0,0,0,1,2,1,,,,,,,,,,,,,,,,,,,
,613fa83fcb16d5b3ff16b944,627c776757f611317cd97e7f,2022-05-11_21h57.00.844,classification_task,2021.2.3,Win32,60.21919788,627c6715c52fd12f31907bd0,,,,,,,,,,,,,,,,,,,,,,,,,,,,,,,,,,,,,,,2,  ,,0,,,0,0,0,0,1,2,1,,,,,,,,,,,,,,,,,,,
,613fa83fcb16d5b3ff16b944,627c776757f611317cd97e7f,2022-05-11_21h57.00.844,classification_task,2021.2.3,Win32,60.21919788,627c6715c52fd12f31907bd0,,,,,,,,,,,,,,,,,,,,,,,,,,,,,,,,,,,,,,,,,,,,,0,0,0,0,1,,1,,,,,,,,,,,,,,,,,,,
,613fa83fcb16d5b3ff16b944,627c776757f611317cd97e7f,2022-05-11_21h57.00.844,classification_task,2021.2.3,Win32,60.21919788,627c6715c52fd12f31907bd0,,,,,,,,,,,,,,,,,,,,,space,21.448,l,0,5.8267,"[""0.312"",""0.528"",""0.914"",""0.967""]","[1,0,1,1]",0,0,0,0,1,0,0,,,1,FALSE,,,,,,,,,,,,,,,,,,,,,,,,,,,,,,,,
,613fa83fcb16d5b3ff16b944,627c776757f611317cd97e7f,2022-05-11_21h57.00.844,classification_task,2021.2.3,Win32,60.21919788,627c6715c52fd12f31907bd0,,,,,,,,,,,,,,,,,,,,,,,a,1,2.0414,"[""0.272"",""0.354"",""0.620"",""0.037""]","[1,1,1,0]",0,1,1,1,1,0,1,,,1,FALSE,,,,,,,,,,,,,,,,,,,,,,,,,,,,,,,,
,613fa83fcb16d5b3ff16b944,627c776757f611317cd97e7f,2022-05-11_21h57.00.844,classification_task,2021.2.3,Win32,60.21919788,627c6715c52fd12f31907bd0,,,,,,,,,,,,,,,,,,,,,,,a,0,2.188,"[""0.092"",""0.178"",""0.474"",""0.526""]","[1,1,1,0]",0,2,2,2,1,1,0,,,1,FALSE,,,,,,,,,,,,,,,,,,,,,,,,,,,,,,,,
,613fa83fcb16d5b3ff16b944,627c776757f611317cd97e7f,2022-05-11_21h57.00.844,classification_task,2021.2.3,Win32,60.21919788,627c6715c52fd12f31907bd0,,,,,,,,,,,,,,,,,,,,,,,a,1,0.8209,"[""0.272"",""0.027"",""0.620"",""0.880""]","[1,0,1,1]",0,3,3,3,1,0,1,,,1,FALSE,,,,,,,,,,,,,,,,,,,,,,,,,,,,,,,,
,613fa83fcb16d5b3ff16b944,627c776757f611317cd97e7f,2022-05-11_21h57.00.844,classification_task,2021.2.3,Win32,60.21919788,627c6715c52fd12f31907bd0,,,,,,,,,,,,,,,,,,,,,,,l,0,0.8207,"[""0.312"",""0.421"",""0.914"",""0.039""]","[1,1,1,0]",0,4,4,4,1,0,0,,,1,FALSE,,,,,,,,,,,,,,,,,,,,,,,,,,,,,,,,
,613fa83fcb16d5b3ff16b944,627c776757f611317cd97e7f,2022-05-11_21h57.00.844,classification_task,2021.2.3,Win32,60.21919788,627c6715c52fd12f31907bd0,,,,,,,,,,,,,,,,,,,,,,,l,1,0.7539,"[""0.139"",""0.738"",""0.579"",""0.703""]","[1,0,1,1]",0,5,5,5,1,1,1,,,1,FALSE,,,,,,,,,,,,,,,,,,,,,,,,,,,,,,,,
,613fa83fcb16d5b3ff16b944,627c776757f611317cd97e7f,2022-05-11_21h57.00.844,classification_task,2021.2.3,Win32,60.21919788,627c6715c52fd12f31907bd0,,,,,,,,,,,,,,,,,,,,,,,a,1,2.2559,"[""0.272"",""0.354"",""0.053"",""0.880""]","[1,1,0,1]",0,6,6,6,1,0,1,,,1,FALSE,,,,,,,,,,,,,,,,,,,,,,,,,,,,,,,,
,613fa83fcb16d5b3ff16b944,627c776757f611317cd97e7f,2022-05-11_21h57.00.844,classification_task,2021.2.3,Win32,60.21919788,627c6715c52fd12f31907bd0,,,,,,,,,,,,,,,,,,,,,,,l,1,0.9123,"[""0.139"",""0.232"",""0.660"",""0.703""]","[1,1,0,1]",0,7,7,7,1,1,1,,,1,FALSE,,,,,,,,,,,,,,,,,,,,,,,,,,,,,,,,
,613fa83fcb16d5b3ff16b944,627c776757f611317cd97e7f,2022-05-11_21h57.00.844,classification_task,2021.2.3,Win32,60.21919788,627c6715c52fd12f31907bd0,,,,,,,,,,,,,,,,,,,,,,,l,1,0.6534,"[""0.053"",""0.232"",""0.579"",""0.703""]","[0,1,1,1]",0,8,8,8,1,1,1,,,1,FALSE,,,,,,,,,,,,,,,,,,,,,,,,,,,,,,,,
,613fa83fcb16d5b3ff16b944,627c776757f611317cd97e7f,2022-05-11_21h57.00.844,classification_task,2021.2.3,Win32,60.21919788,627c6715c52fd12f31907bd0,,,,,,,,,,,,,,,,,,,,,,,a,1,1.3939,"[""0.037"",""0.421"",""0.914"",""0.967""]","[0,1,1,1]",0,9,9,9,1,0,0,,,1,FALSE,,,,,,,,,,,,,,,,,,,,,,,,,,,,,,,,
,613fa83fcb16d5b3ff16b944,627c776757f611317cd97e7f,2022-05-11_21h57.00.844,classification_task,2021.2.3,Win32,60.21919788,627c6715c52fd12f31907bd0,,,,,,,,,,,,,,,,,,,,,,,l,1,0.8342,"[""0.092"",""0.039"",""0.474"",""0.782""]","[1,0,1,1]",0,10,10,10,1,1,0,,,1,FALSE,,,,,,,,,,,,,,,,,,,,,,,,,,,,,,,,
,613fa83fcb16d5b3ff16b944,627c776757f611317cd97e7f,2022-05-11_21h57.00.844,classification_task,2021.2.3,Win32,60.21919788,627c6715c52fd12f31907bd0,,,,,,,,,,,,,,,,,,,,,,,l,1,1.4053,"[""0.139"",""0.232"",""0.579"",""0.037""]","[1,1,1,0]",0,11,11,11,1,1,1,,,1,FALSE,,,,,,,,,,,,,,,,,,,,,,,,,,,,,,,,
,613fa83fcb16d5b3ff16b944,627c776757f611317cd97e7f,2022-05-11_21h57.00.844,classification_task,2021.2.3,Win32,60.21919788,627c6715c52fd12f31907bd0,,,,,,,,,,,,,,,,,,,,,,,a,1,0.7531,"[""0.738"",""0.354"",""0.620"",""0.880""]","[0,1,1,1]",0,12,12,12,1,0,1,,,1,FALSE,,,,,,,,,,,,,,,,,,,,,,,,,,,,,,,,
,613fa83fcb16d5b3ff16b944,627c776757f611317cd97e7f,2022-05-11_21h57.00.844,classification_task,2021.2.3,Win32,60.21919788,627c6715c52fd12f31907bd0,,,,,,,,,,,,,,,,,,,,,,,a,1,1.0479,"[""0.312"",""0.421"",""0.747"",""0.967""]","[1,1,0,1]",0,13,13,13,1,0,0,,,1,FALSE,,,,,,,,,,,,,,,,,,,,,,,,,,,,,,,,
,613fa83fcb16d5b3ff16b944,627c776757f611317cd97e7f,2022-05-11_21h57.00.844,classification_task,2021.2.3,Win32,60.21919788,627c6715c52fd12f31907bd0,,,,,,,,,,,,,,,,,,,,,,,l,1,0.4824,"[""0.092"",""0.178"",""0.027"",""0.782""]","[1,1,0,1]",0,14,14,14,1,1,0,,,1,FALSE,,,,,,,,,,,,,,,,,,,,,,,,,,,,,,,,
,613fa83fcb16d5b3ff16b944,627c776757f611317cd97e7f,2022-05-11_21h57.00.844,classification_task,2021.2.3,Win32,60.21919788,627c6715c52fd12f31907bd0,,,,,,,,,,,,,,,,,,,,,,,l,1,0.8659,"[""0.053"",""0.178"",""0.474"",""0.782""]","[0,1,1,1]",0,15,15,15,1,1,0,,,1,FALSE,,,,,,,,,,,,,,,,,,,,,,,,,,,,,,,,
,613fa83fcb16d5b3ff16b944,627c776757f611317cd97e7f,2022-05-11_21h57.00.844,classification_task,2021.2.3,Win32,60.21919788,627c6715c52fd12f31907bd0,,,,,,,,,,,,,,,,,,,,,,,a,1,1.443,"[""0.312"",""0.421"",""0.048"",""0.967""]","[1,1,0,1]",0,16,16,16,1,0,0,,,1,FALSE,,,,,,,,,,,,,,,,,,,,,,,,,,,,,,,,
,613fa83fcb16d5b3ff16b944,627c776757f611317cd97e7f,2022-05-11_21h57.00.844,classification_task,2021.2.3,Win32,60.21919788,627c6715c52fd12f31907bd0,,,,,,,,,,,,,,,,,,,,,,,a,0,1.0613,"[""0.048"",""0.178"",""0.474"",""0.782""]","[0,1,1,1]",0,17,17,17,1,1,0,,,1,FALSE,,,,,,,,,,,,,,,,,,,,,,,,,,,,,,,,
,613fa83fcb16d5b3ff16b944,627c776757f611317cd97e7f,2022-05-11_21h57.00.844,classification_task,2021.2.3,Win32,60.21919788,627c6715c52fd12f31907bd0,,,,,,,,,,,,,,,,,,,,,,,l,1,0.6639,"[""0.526"",""0.232"",""0.579"",""0.703""]","[0,1,1,1]",0,18,18,18,1,1,1,,,1,FALSE,,,,,,,,,,,,,,,,,,,,,,,,,,,,,,,,
,613fa83fcb16d5b3ff16b944,627c776757f611317cd97e7f,2022-05-11_21h57.00.844,classification_task,2021.2.3,Win32,60.21919788,627c6715c52fd12f31907bd0,,,,,,,,,,,,,,,,,,,,,,,a,1,0.8938,"[""0.312"",""0.660"",""0.914"",""0.967""]","[1,0,1,1]",0,19,19,19,1,0,0,,,1,FALSE,,,,,,,,,,,,,,,,,,,,,,,,,,,,,,,,
,613fa83fcb16d5b3ff16b944,627c776757f611317cd97e7f,2022-05-11_21h57.00.844,classification_task,2021.2.3,Win32,60.21919788,627c6715c52fd12f31907bd0,,,,,,,,,,,,,,,,,,,,,,,l,1,0.6196,"[""0.092"",""0.178"",""0.474"",""0.660""]","[1,1,1,0]",0,20,20,20,1,1,0,,,1,FALSE,,,,,,,,,,,,,,,,,,,,,,,,,,,,,,,,
,613fa83fcb16d5b3ff16b944,627c776757f611317cd97e7f,2022-05-11_21h57.00.844,classification_task,2021.2.3,Win32,60.21919788,627c6715c52fd12f31907bd0,,,,,,,,,,,,,,,,,,,,,,,l,1,0.8554,"[""0.139"",""0.232"",""0.058"",""0.703""]","[1,1,0,1]",0,21,21,21,1,1,1,,,1,FALSE,,,,,,,,,,,,,,,,,,,,,,,,,,,,,,,,
,613fa83fcb16d5b3ff16b944,627c776757f611317cd97e7f,2022-05-11_21h57.00.844,classification_task,2021.2.3,Win32,60.21919788,627c6715c52fd12f31907bd0,,,,,,,,,,,,,,,,,,,,,,,l,1,0.8138,"[""0.139"",""0.232"",""0.579"",""0.027""]","[1,1,1,0]",0,22,22,22,1,1,1,,,1,FALSE,,,,,,,,,,,,,,,,,,,,,,,,,,,,,,,,
,613fa83fcb16d5b3ff16b944,627c776757f611317cd97e7f,2022-05-11_21h57.00.844,classification_task,2021.2.3,Win32,60.21919788,627c6715c52fd12f31907bd0,,,,,,,,,,,,,,,,,,,,,,,l,1,1.2777,"[""0.092"",""0.178"",""0.039"",""0.782""]","[1,1,0,1]",0,23,23,23,1,1,0,,,1,FALSE,,,,,,,,,,,,,,,,,,,,,,,,,,,,,,,,
,613fa83fcb16d5b3ff16b944,627c776757f611317cd97e7f,2022-05-11_21h57.00.844,classification_task,2021.2.3,Win32,60.21919788,627c6715c52fd12f31907bd0,,,,,,,,,,,,,,,,,,,,,,,a,1,0.7612,"[""0.272"",""0.354"",""0.620"",""0.058""]","[1,1,1,0]",0,24,24,24,1,0,1,,,1,FALSE,,,,,,,,,,,,,,,,,,,,,,,,,,,,,,,,
,613fa83fcb16d5b3ff16b944,627c776757f611317cd97e7f,2022-05-11_21h57.00.844,classification_task,2021.2.3,Win32,60.21919788,627c6715c52fd12f31907bd0,,,,,,,,,,,,,,,,,,,,,,,a,1,0.7576,"[""0.272"",""0.354"",""0.669"",""0.880""]","[1,1,0,1]",0,25,25,25,1,0,1,,,1,FALSE,,,,,,,,,,,,,,,,,,,,,,,,,,,,,,,,
,613fa83fcb16d5b3ff16b944,627c776757f611317cd97e7f,2022-05-11_21h57.00.844,classification_task,2021.2.3,Win32,60.21919788,627c6715c52fd12f31907bd0,,,,,,,,,,,,,,,,,,,,,,,a,0,0.8805,"[""0.092"",""0.048"",""0.474"",""0.782""]","[1,0,1,1]",0,26,26,26,1,1,0,,,1,FALSE,,,,,,,,,,,,,,,,,,,,,,,,,,,,,,,,
,613fa83fcb16d5b3ff16b944,627c776757f611317cd97e7f,2022-05-11_21h57.00.844,classification_task,2021.2.3,Win32,60.21919788,627c6715c52fd12f31907bd0,,,,,,,,,,,,,,,,,,,,,,,l,1,0.4185,"[""0.139"",""0.528"",""0.579"",""0.703""]","[1,0,1,1]",0,27,27,27,1,1,1,,,1,FALSE,,,,,,,,,,,,,,,,,,,,,,,,,,,,,,,,
,613fa83fcb16d5b3ff16b944,627c776757f611317cd97e7f,2022-05-11_21h57.00.844,classification_task,2021.2.3,Win32,60.21919788,627c6715c52fd12f31907bd0,,,,,,,,,,,,,,,,,,,,,,,l,0,0.6394,"[""0.039"",""0.421"",""0.914"",""0.967""]","[0,1,1,1]",0,28,28,28,1,0,0,,,1,FALSE,,,,,,,,,,,,,,,,,,,,,,,,,,,,,,,,
,613fa83fcb16d5b3ff16b944,627c776757f611317cd97e7f,2022-05-11_21h57.00.844,classification_task,2021.2.3,Win32,60.21919788,627c6715c52fd12f31907bd0,,,,,,,,,,,,,,,,,,,,,,,a,1,0.5045,"[""0.037"",""0.354"",""0.620"",""0.880""]","[0,1,1,1]",0,29,29,29,1,0,1,,,1,FALSE,,,,,,,,,,,,,,,,,,,,,,,,,,,,,,,,
,613fa83fcb16d5b3ff16b944,627c776757f611317cd97e7f,2022-05-11_21h57.00.844,classification_task,2021.2.3,Win32,60.21919788,627c6715c52fd12f31907bd0,,,,,,,,,,,,,,,,,,,,,,,a,1,0.672,"[""0.272"",""0.528"",""0.620"",""0.880""]","[1,0,1,1]",0,30,30,30,1,0,1,,,1,FALSE,,,,,,,,,,,,,,,,,,,,,,,,,,,,,,,,
,613fa83fcb16d5b3ff16b944,627c776757f611317cd97e7f,2022-05-11_21h57.00.844,classification_task,2021.2.3,Win32,60.21919788,627c6715c52fd12f31907bd0,,,,,,,,,,,,,,,,,,,,,,,a,1,0.6155,"[""0.312"",""0.421"",""0.914"",""0.669""]","[1,1,1,0]",0,31,31,31,1,0,0,,,1,FALSE,,,,,,,,,,,,,,,,,,,,,,,,,,,,,,,,
,613fa83fcb16d5b3ff16b944,627c776757f611317cd97e7f,2022-05-11_21h57.00.844,classification_task,2021.2.3,Win32,60.21919788,627c6715c52fd12f31907bd0,,,,,,,,,,,,,,,,,,,,,,,l,1,0.6623,"[""0.092"",""0.178"",""0.660"",""0.782""]","[1,1,0,1]",0,32,32,32,1,1,0,,,1,FALSE,,,,,,,,,,,,,,,,,,,,,,,,,,,,,,,,
,613fa83fcb16d5b3ff16b944,627c776757f611317cd97e7f,2022-05-11_21h57.00.844,classification_task,2021.2.3,Win32,60.21919788,627c6715c52fd12f31907bd0,,,,,,,,,,,,,,,,,,,,,,,l,1,1.0995,"[""0.037"",""0.232"",""0.579"",""0.703""]","[0,1,1,1]",0,33,33,33,1,1,1,,,1,FALSE,,,,,,,,,,,,,,,,,,,,,,,,,,,,,,,,
,613fa83fcb16d5b3ff16b944,627c776757f611317cd97e7f,2022-05-11_21h57.00.844,classification_task,2021.2.3,Win32,60.21919788,627c6715c52fd12f31907bd0,,,,,,,,,,,,,,,,,,,,,,,a,1,0.6128,"[""0.272"",""0.354"",""0.535"",""0.880""]","[1,1,0,1]",0,34,34,34,1,0,1,,,1,FALSE,,,,,,,,,,,,,,,,,,,,,,,,,,,,,,,,
,613fa83fcb16d5b3ff16b944,627c776757f611317cd97e7f,2022-05-11_21h57.00.844,classification_task,2021.2.3,Win32,60.21919788,627c6715c52fd12f31907bd0,,,,,,,,,,,,,,,,,,,,,,,l,0,0.6577,"[""0.312"",""0.048"",""0.914"",""0.967""]","[1,0,1,1]",0,35,35,35,1,0,0,,,1,FALSE,,,,,,,,,,,,,,,,,,,,,,,,,,,,,,,,
,613fa83fcb16d5b3ff16b944,627c776757f611317cd97e7f,2022-05-11_21h57.00.844,classification_task,2021.2.3,Win32,60.21919788,627c6715c52fd12f31907bd0,,,,,,,,,,,,,,,,,,,,,,,a,1,0.9763,"[""0.528"",""0.354"",""0.620"",""0.880""]","[0,1,1,1]",0,36,36,36,1,0,1,,,1,FALSE,,,,,,,,,,,,,,,,,,,,,,,,,,,,,,,,
,613fa83fcb16d5b3ff16b944,627c776757f611317cd97e7f,2022-05-11_21h57.00.844,classification_task,2021.2.3,Win32,60.21919788,627c6715c52fd12f31907bd0,,,,,,,,,,,,,,,,,,,,,,,l,1,0.6206,"[""0.139"",""0.232"",""0.039"",""0.703""]","[1,1,0,1]",0,37,37,37,1,1,1,,,1,FALSE,,,,,,,,,,,,,,,,,,,,,,,,,,,,,,,,
,613fa83fcb16d5b3ff16b944,627c776757f611317cd97e7f,2022-05-11_21h57.00.844,classification_task,2021.2.3,Win32,60.21919788,627c6715c52fd12f31907bd0,,,,,,,,,,,,,,,,,,,,,,,a,0,0.7176,"[""0.027"",""0.178"",""0.474"",""0.782""]","[0,1,1,1]",0,38,38,38,1,1,0,,,1,FALSE,,,,,,,,,,,,,,,,,,,,,,,,,,,,,,,,
,613fa83fcb16d5b3ff16b944,627c776757f611317cd97e7f,2022-05-11_21h57.00.844,classification_task,2021.2.3,Win32,60.21919788,627c6715c52fd12f31907bd0,,,,,,,,,,,,,,,,,,,,,,,l,1,0.6363,"[""0.139"",""0.660"",""0.579"",""0.703""]","[1,0,1,1]",0,39,39,39,1,1,1,,,1,FALSE,,,,,,,,,,,,,,,,,,,,,,,,,,,,,,,,
,613fa83fcb16d5b3ff16b944,627c776757f611317cd97e7f,2022-05-11_21h57.00.844,classification_task,2021.2.3,Win32,60.21919788,627c6715c52fd12f31907bd0,,,,,,,,,,,,,,,,,,,,,,,a,0,0.6359,"[""0.092"",""0.528"",""0.474"",""0.782""]","[1,0,1,1]",0,40,40,40,1,1,0,,,1,FALSE,,,,,,,,,,,,,,,,,,,,,,,,,,,,,,,,
,613fa83fcb16d5b3ff16b944,627c776757f611317cd97e7f,2022-05-11_21h57.00.844,classification_task,2021.2.3,Win32,60.21919788,627c6715c52fd12f31907bd0,,,,,,,,,,,,,,,,,,,,,,,l,0,1.0176,"[""0.312"",""0.421"",""0.914"",""0.058""]","[1,1,1,0]",0,41,41,41,1,0,0,,,1,FALSE,,,,,,,,,,,,,,,,,,,,,,,,,,,,,,,,
,613fa83fcb16d5b3ff16b944,627c776757f611317cd97e7f,2022-05-11_21h57.00.844,classification_task,2021.2.3,Win32,60.21919788,627c6715c52fd12f31907bd0,,,,,,,,,,,,,,,,,,,,,,,a,1,0.6253,"[""0.272"",""0.354"",""0.620"",""0.528""]","[1,1,1,0]",0,42,42,42,1,0,1,,,1,FALSE,,,,,,,,,,,,,,,,,,,,,,,,,,,,,,,,
,613fa83fcb16d5b3ff16b944,627c776757f611317cd97e7f,2022-05-11_21h57.00.844,classification_task,2021.2.3,Win32,60.21919788,627c6715c52fd12f31907bd0,,,,,,,,,,,,,,,,,,,,,,,l,0,0.5934,"[""0.312"",""0.421"",""0.747"",""0.967""]","[1,1,0,1]",0,43,43,43,1,0,0,,,1,FALSE,,,,,,,,,,,,,,,,,,,,,,,,,,,,,,,,
,613fa83fcb16d5b3ff16b944,627c776757f611317cd97e7f,2022-05-11_21h57.00.844,classification_task,2021.2.3,Win32,60.21919788,627c6715c52fd12f31907bd0,,,,,,,,,,,,,,,,,,,,,,,l,1,0.6105,"[""0.139"",""0.232"",""0.579"",""0.058""]","[1,1,1,0]",0,44,44,44,1,1,1,,,1,FALSE,,,,,,,,,,,,,,,,,,,,,,,,,,,,,,,,
,613fa83fcb16d5b3ff16b944,627c776757f611317cd97e7f,2022-05-11_21h57.00.844,classification_task,2021.2.3,Win32,60.21919788,627c6715c52fd12f31907bd0,,,,,,,,,,,,,,,,,,,,,,,a,0,0.5371,"[""0.092"",""0.178"",""0.474"",""0.528""]","[1,1,1,0]",0,45,45,45,1,1,0,,,1,FALSE,,,,,,,,,,,,,,,,,,,,,,,,,,,,,,,,
,613fa83fcb16d5b3ff16b944,627c776757f611317cd97e7f,2022-05-11_21h57.00.844,classification_task,2021.2.3,Win32,60.21919788,627c6715c52fd12f31907bd0,,,,,,,,,,,,,,,,,,,,,,,l,0,0.6401,"[""0.039"",""0.421"",""0.914"",""0.967""]","[0,1,1,1]",0,46,46,46,1,0,0,,,1,FALSE,,,,,,,,,,,,,,,,,,,,,,,,,,,,,,,,
,613fa83fcb16d5b3ff16b944,627c776757f611317cd97e7f,2022-05-11_21h57.00.844,classification_task,2021.2.3,Win32,60.21919788,627c6715c52fd12f31907bd0,,,,,,,,,,,,,,,,,,,,,,,a,1,0.7021,"[""0.272"",""0.513"",""0.620"",""0.880""]","[1,0,1,1]",0,47,47,47,1,0,1,,,1,FALSE,,,,,,,,,,,,,,,,,,,,,,,,,,,,,,,,
,613fa83fcb16d5b3ff16b944,627c776757f611317cd97e7f,2022-05-11_21h57.00.844,classification_task,2021.2.3,Win32,60.21919788,627c6715c52fd12f31907bd0,,,,,,,,,,,,,,,,,,,,,,,l,0,0.6822,"[""0.048"",""0.421"",""0.914"",""0.967""]","[0,1,1,1]",0,48,48,48,1,0,0,,,1,FALSE,,,,,,,,,,,,,,,,,,,,,,,,,,,,,,,,
,613fa83fcb16d5b3ff16b944,627c776757f611317cd97e7f,2022-05-11_21h57.00.844,classification_task,2021.2.3,Win32,60.21919788,627c6715c52fd12f31907bd0,,,,,,,,,,,,,,,,,,,,,,,a,0,0.5936,"[""0.660"",""0.232"",""0.579"",""0.703""]","[0,1,1,1]",0,49,49,49,1,1,1,,,1,FALSE,,,,,,,,,,,,,,,,,,,,,,,,,,,,,,,,
,613fa83fcb16d5b3ff16b944,627c776757f611317cd97e7f,2022-05-11_21h57.00.844,classification_task,2021.2.3,Win32,60.21919788,627c6715c52fd12f31907bd0,,,,,,,,,,,,,,,,,,,,,,,l,0,0.5056,"[""0.312"",""0.421"",""0.914"",""0.513""]","[1,1,1,0]",0,50,50,50,1,0,0,,,1,FALSE,,,,,,,,,,,,,,,,,,,,,,,,,,,,,,,,
,613fa83fcb16d5b3ff16b944,627c776757f611317cd97e7f,2022-05-11_21h57.00.844,classification_task,2021.2.3,Win32,60.21919788,627c6715c52fd12f31907bd0,,,,,,,,,,,,,,,,,,,,,,,a,1,1.1465,"[""0.272"",""0.526"",""0.620"",""0.880""]","[1,0,1,1]",0,51,51,51,1,0,1,,,1,FALSE,,,,,,,,,,,,,,,,,,,,,,,,,,,,,,,,
,613fa83fcb16d5b3ff16b944,627c776757f611317cd97e7f,2022-05-11_21h57.00.844,classification_task,2021.2.3,Win32,60.21919788,627c6715c52fd12f31907bd0,,,,,,,,,,,,,,,,,,,,,,,a,1,0.836,"[""0.660"",""0.354"",""0.620"",""0.880""]","[0,1,1,1]",0,52,52,52,1,0,1,,,1,FALSE,,,,,,,,,,,,,,,,,,,,,,,,,,,,,,,,
,613fa83fcb16d5b3ff16b944,627c776757f611317cd97e7f,2022-05-11_21h57.00.844,classification_task,2021.2.3,Win32,60.21919788,627c6715c52fd12f31907bd0,,,,,,,,,,,,,,,,,,,,,,,l,0,0.8904,"[""0.272"",""0.354"",""0.620"",""0.039""]","[1,1,1,0]",0,53,53,53,1,0,1,,,1,FALSE,,,,,,,,,,,,,,,,,,,,,,,,,,,,,,,,
,613fa83fcb16d5b3ff16b944,627c776757f611317cd97e7f,2022-05-11_21h57.00.844,classification_task,2021.2.3,Win32,60.21919788,627c6715c52fd12f31907bd0,,,,,,,,,,,,,,,,,,,,,,,a,0,0.7316,"[""0.139"",""0.232"",""0.579"",""0.528""]","[1,1,1,0]",0,54,54,54,1,1,1,,,1,FALSE,,,,,,,,,,,,,,,,,,,,,,,,,,,,,,,,
,613fa83fcb16d5b3ff16b944,627c776757f611317cd97e7f,2022-05-11_21h57.00.844,classification_task,2021.2.3,Win32,60.21919788,627c6715c52fd12f31907bd0,,,,,,,,,,,,,,,,,,,,,,,l,1,0.621,"[""0.092"",""0.669"",""0.474"",""0.782""]","[1,0,1,1]",0,55,55,55,1,1,0,,,1,FALSE,,,,,,,,,,,,,,,,,,,,,,,,,,,,,,,,
,613fa83fcb16d5b3ff16b944,627c776757f611317cd97e7f,2022-05-11_21h57.00.844,classification_task,2021.2.3,Win32,60.21919788,627c6715c52fd12f31907bd0,,,,,,,,,,,,,,,,,,,,,,,a,1,0.6199,"[""0.312"",""0.526"",""0.914"",""0.967""]","[1,0,1,1]",0,56,56,56,1,0,0,,,1,FALSE,,,,,,,,,,,,,,,,,,,,,,,,,,,,,,,,
,613fa83fcb16d5b3ff16b944,627c776757f611317cd97e7f,2022-05-11_21h57.00.844,classification_task,2021.2.3,Win32,60.21919788,627c6715c52fd12f31907bd0,,,,,,,,,,,,,,,,,,,,,,,l,1,0.8733,"[""0.092"",""0.178"",""0.660"",""0.782""]","[1,1,0,1]",0,57,57,57,1,1,0,,,1,FALSE,,,,,,,,,,,,,,,,,,,,,,,,,,,,,,,,
,613fa83fcb16d5b3ff16b944,627c776757f611317cd97e7f,2022-05-11_21h57.00.844,classification_task,2021.2.3,Win32,60.21919788,627c6715c52fd12f31907bd0,,,,,,,,,,,,,,,,,,,,,,,a,0,0.8467,"[""0.139"",""0.528"",""0.579"",""0.703""]","[1,0,1,1]",0,58,58,58,1,1,1,,,1,FALSE,,,,,,,,,,,,,,,,,,,,,,,,,,,,,,,,
,613fa83fcb16d5b3ff16b944,627c776757f611317cd97e7f,2022-05-11_21h57.00.844,classification_task,2021.2.3,Win32,60.21919788,627c6715c52fd12f31907bd0,,,,,,,,,,,,,,,,,,,,,,,l,0,0.8182,"[""0.272"",""0.354"",""0.058"",""0.880""]","[1,1,0,1]",0,59,59,59,1,0,1,,,1,FALSE,,,,,,,,,,,,,,,,,,,,,,,,,,,,,,,,
,613fa83fcb16d5b3ff16b944,627c776757f611317cd97e7f,2022-05-11_21h57.00.844,classification_task,2021.2.3,Win32,60.21919788,627c6715c52fd12f31907bd0,,,,,,,,,,,,,,,,,,,,,,,a,0,0.9133,"[""0.092"",""0.178"",""0.474"",""0.738""]","[1,1,1,0]",0,60,60,60,1,1,0,,,1,FALSE,,,,,,,,,,,,,,,,,,,,,,,,,,,,,,,,
,613fa83fcb16d5b3ff16b944,627c776757f611317cd97e7f,2022-05-11_21h57.00.844,classification_task,2021.2.3,Win32,60.21919788,627c6715c52fd12f31907bd0,,,,,,,,,,,,,,,,,,,,,,,a,0,0.9413,"[""0.528"",""0.178"",""0.474"",""0.782""]","[0,1,1,1]",0,61,61,61,1,1,0,,,1,FALSE,,,,,,,,,,,,,,,,,,,,,,,,,,,,,,,,
,613fa83fcb16d5b3ff16b944,627c776757f611317cd97e7f,2022-05-11_21h57.00.844,classification_task,2021.2.3,Win32,60.21919788,627c6715c52fd12f31907bd0,,,,,,,,,,,,,,,,,,,,,,,a,0,0.6561,"[""0.139"",""0.232"",""0.660"",""0.703""]","[1,1,0,1]",0,62,62,62,1,1,1,,,1,FALSE,,,,,,,,,,,,,,,,,,,,,,,,,,,,,,,,
,613fa83fcb16d5b3ff16b944,627c776757f611317cd97e7f,2022-05-11_21h57.00.844,classification_task,2021.2.3,Win32,60.21919788,627c6715c52fd12f31907bd0,,,,,,,,,,,,,,,,,,,,,,,l,0,0.4965,"[""0.312"",""0.421"",""0.526"",""0.967""]","[1,1,0,1]",0,63,63,63,1,0,0,,,1,FALSE,,,,,,,,,,,,,,,,,,,,,,,,,,,,,,,,
,613fa83fcb16d5b3ff16b944,627c776757f611317cd97e7f,2022-05-11_21h57.00.844,classification_task,2021.2.3,Win32,60.21919788,627c6715c52fd12f31907bd0,,,,,,,,,,,,,,,,,,,,,,,,,,,,,,,,,,,,,,,0, ,,0,,,0,1,1,1,1,2,2,,,,,,,,,,,,,,,,,,,
,613fa83fcb16d5b3ff16b944,627c776757f611317cd97e7f,2022-05-11_21h57.00.844,classification_task,2021.2.3,Win32,60.21919788,627c6715c52fd12f31907bd0,,,,,,,,,,,,,,,,,,,,,,,,,,,,,,,,,,,,,,,1,  ,,0,,,0,1,1,1,1,2,2,,,,,,,,,,,,,,,,,,,
,613fa83fcb16d5b3ff16b944,627c776757f611317cd97e7f,2022-05-11_21h57.00.844,classification_task,2021.2.3,Win32,60.21919788,627c6715c52fd12f31907bd0,,,,,,,,,,,,,,,,,,,,,,,,,,,,,,,,,,,,,,,2,  ,,0,,,0,1,1,1,1,2,2,,,,,,,,,,,,,,,,,,,
,613fa83fcb16d5b3ff16b944,627c776757f611317cd97e7f,2022-05-11_21h57.00.844,classification_task,2021.2.3,Win32,60.21919788,627c6715c52fd12f31907bd0,,,,,,,,,,,,,,,,,,,,,,,,,,,,,,,,,,,,,,,,,,,,,0,1,1,1,1,,2,,,,,,,,,,,,,,,,,,,
,613fa83fcb16d5b3ff16b944,627c776757f611317cd97e7f,2022-05-11_21h57.00.844,classification_task,2021.2.3,Win32,60.21919788,627c6715c52fd12f31907bd0,,,,,,,,,,,,,,,,,,,,,space,16.6392,l,0,1.384,"[""0.312"",""0.421"",""0.914"",""0.660""]","[1,1,1,0]",0,0,0,0,1,0,0,,,1,FALSE,,,,,,,,,,,,,,,,,,,,,,,,,,,,,,,,
,613fa83fcb16d5b3ff16b944,627c776757f611317cd97e7f,2022-05-11_21h57.00.844,classification_task,2021.2.3,Win32,60.21919788,627c6715c52fd12f31907bd0,,,,,,,,,,,,,,,,,,,,,,,a,1,0.9513,"[""0.528"",""0.354"",""0.620"",""0.880""]","[0,1,1,1]",0,1,1,1,1,0,1,,,1,FALSE,,,,,,,,,,,,,,,,,,,,,,,,,,,,,,,,
,613fa83fcb16d5b3ff16b944,627c776757f611317cd97e7f,2022-05-11_21h57.00.844,classification_task,2021.2.3,Win32,60.21919788,627c6715c52fd12f31907bd0,,,,,,,,,,,,,,,,,,,,,,,a,0,2.3267,"[""0.092"",""0.178"",""0.535"",""0.782""]","[1,1,0,1]",0,2,2,2,1,1,0,,,1,FALSE,,,,,,,,,,,,,,,,,,,,,,,,,,,,,,,,
,613fa83fcb16d5b3ff16b944,627c776757f611317cd97e7f,2022-05-11_21h57.00.844,classification_task,2021.2.3,Win32,60.21919788,627c6715c52fd12f31907bd0,,,,,,,,,,,,,,,,,,,,,,,a,1,1.6109,"[""0.312"",""0.048"",""0.914"",""0.967""]","[1,0,1,1]",0,3,3,3,1,0,0,,,1,FALSE,,,,,,,,,,,,,,,,,,,,,,,,,,,,,,,,
,613fa83fcb16d5b3ff16b944,627c776757f611317cd97e7f,2022-05-11_21h57.00.844,classification_task,2021.2.3,Win32,60.21919788,627c6715c52fd12f31907bd0,,,,,,,,,,,,,,,,,,,,,,,l,1,0.9113,"[""0.092"",""0.660"",""0.474"",""0.782""]","[1,0,1,1]",0,4,4,4,1,1,0,,,1,FALSE,,,,,,,,,,,,,,,,,,,,,,,,,,,,,,,,
,613fa83fcb16d5b3ff16b944,627c776757f611317cd97e7f,2022-05-11_21h57.00.844,classification_task,2021.2.3,Win32,60.21919788,627c6715c52fd12f31907bd0,,,,,,,,,,,,,,,,,,,,,,,a,0,0.9616,"[""0.747"",""0.178"",""0.474"",""0.782""]","[0,1,1,1]",0,5,5,5,1,1,0,,,1,FALSE,,,,,,,,,,,,,,,,,,,,,,,,,,,,,,,,
,613fa83fcb16d5b3ff16b944,627c776757f611317cd97e7f,2022-05-11_21h57.00.844,classification_task,2021.2.3,Win32,60.21919788,627c6715c52fd12f31907bd0,,,,,,,,,,,,,,,,,,,,,,,a,0,1.4437,"[""0.139"",""0.669"",""0.579"",""0.703""]","[1,0,1,1]",0,6,6,6,1,1,1,,,1,FALSE,,,,,,,,,,,,,,,,,,,,,,,,,,,,,,,,
,613fa83fcb16d5b3ff16b944,627c776757f611317cd97e7f,2022-05-11_21h57.00.844,classification_task,2021.2.3,Win32,60.21919788,627c6715c52fd12f31907bd0,,,,,,,,,,,,,,,,,,,,,,,a,0,1.1104,"[""0.738"",""0.232"",""0.579"",""0.703""]","[0,1,1,1]",0,7,7,7,1,1,1,,,1,FALSE,,,,,,,,,,,,,,,,,,,,,,,,,,,,,,,,
,613fa83fcb16d5b3ff16b944,627c776757f611317cd97e7f,2022-05-11_21h57.00.844,classification_task,2021.2.3,Win32,60.21919788,627c6715c52fd12f31907bd0,,,,,,,,,,,,,,,,,,,,,,,l,1,1.2767,"[""0.139"",""0.232"",""0.526"",""0.703""]","[1,1,0,1]",0,8,8,8,1,1,1,,,1,FALSE,,,,,,,,,,,,,,,,,,,,,,,,,,,,,,,,
,613fa83fcb16d5b3ff16b944,627c776757f611317cd97e7f,2022-05-11_21h57.00.844,classification_task,2021.2.3,Win32,60.21919788,627c6715c52fd12f31907bd0,,,,,,,,,,,,,,,,,,,,,,,a,1,0.8179,"[""0.272"",""0.528"",""0.620"",""0.880""]","[1,0,1,1]",0,9,9,9,1,0,1,,,1,FALSE,,,,,,,,,,,,,,,,,,,,,,,,,,,,,,,,
,613fa83fcb16d5b3ff16b944,627c776757f611317cd97e7f,2022-05-11_21h57.00.844,classification_task,2021.2.3,Win32,60.21919788,627c6715c52fd12f31907bd0,,,,,,,,,,,,,,,,,,,,,,,l,0,0.9579,"[""0.039"",""0.421"",""0.914"",""0.967""]","[0,1,1,1]",0,10,10,10,1,0,0,,,1,FALSE,,,,,,,,,,,,,,,,,,,,,,,,,,,,,,,,
,613fa83fcb16d5b3ff16b944,627c776757f611317cd97e7f,2022-05-11_21h57.00.844,classification_task,2021.2.3,Win32,60.21919788,627c6715c52fd12f31907bd0,,,,,,,,,,,,,,,,,,,,,,,a,0,0.8856,"[""0.139"",""0.232"",""0.579"",""0.039""]","[1,1,1,0]",0,11,11,11,1,1,1,,,1,FALSE,,,,,,,,,,,,,,,,,,,,,,,,,,,,,,,,
,613fa83fcb16d5b3ff16b944,627c776757f611317cd97e7f,2022-05-11_21h57.00.844,classification_task,2021.2.3,Win32,60.21919788,627c6715c52fd12f31907bd0,,,,,,,,,,,,,,,,,,,,,,,a,1,1.0104,"[""0.272"",""0.354"",""0.747"",""0.880""]","[1,1,0,1]",0,12,12,12,1,0,1,,,1,FALSE,,,,,,,,,,,,,,,,,,,,,,,,,,,,,,,,
,613fa83fcb16d5b3ff16b944,627c776757f611317cd97e7f,2022-05-11_21h57.00.844,classification_task,2021.2.3,Win32,60.21919788,627c6715c52fd12f31907bd0,,,,,,,,,,,,,,,,,,,,,,,l,1,2.0773,"[""0.092"",""0.178"",""0.474"",""0.027""]","[1,1,1,0]",0,13,13,13,1,1,0,,,1,FALSE,,,,,,,,,,,,,,,,,,,,,,,,,,,,,,,,
,613fa83fcb16d5b3ff16b944,627c776757f611317cd97e7f,2022-05-11_21h57.00.844,classification_task,2021.2.3,Win32,60.21919788,627c6715c52fd12f31907bd0,,,,,,,,,,,,,,,,,,,,,,,a,1,0.9103,"[""0.272"",""0.354"",""0.620"",""0.058""]","[1,1,1,0]",0,14,14,14,1,0,1,,,1,FALSE,,,,,,,,,,,,,,,,,,,,,,,,,,,,,,,,
,613fa83fcb16d5b3ff16b944,627c776757f611317cd97e7f,2022-05-11_21h57.00.844,classification_task,2021.2.3,Win32,60.21919788,627c6715c52fd12f31907bd0,,,,,,,,,,,,,,,,,,,,,,,l,0,1.3087,"[""0.312"",""0.421"",""0.037"",""0.967""]","[1,1,0,1]",0,15,15,15,1,0,0,,,1,FALSE,,,,,,,,,,,,,,,,,,,,,,,,,,,,,,,,
,613fa83fcb16d5b3ff16b944,627c776757f611317cd97e7f,2022-05-11_21h57.00.844,classification_task,2021.2.3,Win32,60.21919788,627c6715c52fd12f31907bd0,,,,,,,,,,,,,,,,,,,,,,,l,1,1.1802,"[""0.139"",""0.232"",""0.039"",""0.703""]","[1,1,0,1]",0,16,16,16,1,1,1,,,1,FALSE,,,,,,,,,,,,,,,,,,,,,,,,,,,,,,,,
,613fa83fcb16d5b3ff16b944,627c776757f611317cd97e7f,2022-05-11_21h57.00.844,classification_task,2021.2.3,Win32,60.21919788,627c6715c52fd12f31907bd0,,,,,,,,,,,,,,,,,,,,,,,a,0,0.9093,"[""0.528"",""0.178"",""0.474"",""0.782""]","[0,1,1,1]",0,17,17,17,1,1,0,,,1,FALSE,,,,,,,,,,,,,,,,,,,,,,,,,,,,,,,,
,613fa83fcb16d5b3ff16b944,627c776757f611317cd97e7f,2022-05-11_21h57.00.844,classification_task,2021.2.3,Win32,60.21919788,627c6715c52fd12f31907bd0,,,,,,,,,,,,,,,,,,,,,,,a,1,0.8935,"[""0.312"",""0.421"",""0.747"",""0.967""]","[1,1,0,1]",0,18,18,18,1,0,0,,,1,FALSE,,,,,,,,,,,,,,,,,,,,,,,,,,,,,,,,
,613fa83fcb16d5b3ff16b944,627c776757f611317cd97e7f,2022-05-11_21h57.00.844,classification_task,2021.2.3,Win32,60.21919788,627c6715c52fd12f31907bd0,,,,,,,,,,,,,,,,,,,,,,,l,0,0.6842,"[""0.039"",""0.421"",""0.914"",""0.967""]","[0,1,1,1]",0,19,19,19,1,0,0,,,1,FALSE,,,,,,,,,,,,,,,,,,,,,,,,,,,,,,,,
,613fa83fcb16d5b3ff16b944,627c776757f611317cd97e7f,2022-05-11_21h57.00.844,classification_task,2021.2.3,Win32,60.21919788,627c6715c52fd12f31907bd0,,,,,,,,,,,,,,,,,,,,,,,l,0,0.9927,"[""0.312"",""0.528"",""0.914"",""0.967""]","[1,0,1,1]",0,20,20,20,1,0,0,,,1,FALSE,,,,,,,,,,,,,,,,,,,,,,,,,,,,,,,,
,613fa83fcb16d5b3ff16b944,627c776757f611317cd97e7f,2022-05-11_21h57.00.844,classification_task,2021.2.3,Win32,60.21919788,627c6715c52fd12f31907bd0,,,,,,,,,,,,,,,,,,,,,,,l,0,1.4613,"[""0.272"",""0.738"",""0.620"",""0.880""]","[1,0,1,1]",0,21,21,21,1,0,1,,,1,FALSE,,,,,,,,,,,,,,,,,,,,,,,,,,,,,,,,
,613fa83fcb16d5b3ff16b944,627c776757f611317cd97e7f,2022-05-11_21h57.00.844,classification_task,2021.2.3,Win32,60.21919788,627c6715c52fd12f31907bd0,,,,,,,,,,,,,,,,,,,,,,,a,1,1.0982,"[""0.669"",""0.354"",""0.620"",""0.880""]","[0,1,1,1]",0,22,22,22,1,0,1,,,1,FALSE,,,,,,,,,,,,,,,,,,,,,,,,,,,,,,,,
,613fa83fcb16d5b3ff16b944,627c776757f611317cd97e7f,2022-05-11_21h57.00.844,classification_task,2021.2.3,Win32,60.21919788,627c6715c52fd12f31907bd0,,,,,,,,,,,,,,,,,,,,,,,l,1,0.9114,"[""0.092"",""0.178"",""0.474"",""0.037""]","[1,1,1,0]",0,23,23,23,1,1,0,,,1,FALSE,,,,,,,,,,,,,,,,,,,,,,,,,,,,,,,,
,613fa83fcb16d5b3ff16b944,627c776757f611317cd97e7f,2022-05-11_21h57.00.844,classification_task,2021.2.3,Win32,60.21919788,627c6715c52fd12f31907bd0,,,,,,,,,,,,,,,,,,,,,,,a,1,1.0297,"[""0.272"",""0.354"",""0.620"",""0.660""]","[1,1,1,0]",0,24,24,24,1,0,1,,,1,FALSE,,,,,,,,,,,,,,,,,,,,,,,,,,,,,,,,
,613fa83fcb16d5b3ff16b944,627c776757f611317cd97e7f,2022-05-11_21h57.00.844,classification_task,2021.2.3,Win32,60.21919788,627c6715c52fd12f31907bd0,,,,,,,,,,,,,,,,,,,,,,,a,1,0.9409,"[""0.312"",""0.421"",""0.914"",""0.660""]","[1,1,1,0]",0,25,25,25,1,0,0,,,1,FALSE,,,,,,,,,,,,,,,,,,,,,,,,,,,,,,,,
,613fa83fcb16d5b3ff16b944,627c776757f611317cd97e7f,2022-05-11_21h57.00.844,classification_task,2021.2.3,Win32,60.21919788,627c6715c52fd12f31907bd0,,,,,,,,,,,,,,,,,,,,,,,l,0,0.6347,"[""0.272"",""0.354"",""0.526"",""0.880""]","[1,1,0,1]",0,26,26,26,1,0,1,,,1,FALSE,,,,,,,,,,,,,,,,,,,,,,,,,,,,,,,,
,613fa83fcb16d5b3ff16b944,627c776757f611317cd97e7f,2022-05-11_21h57.00.844,classification_task,2021.2.3,Win32,60.21919788,627c6715c52fd12f31907bd0,,,,,,,,,,,,,,,,,,,,,,,l,1,0.8207,"[""0.139"",""0.660"",""0.579"",""0.703""]","[1,0,1,1]",0,27,27,27,1,1,1,,,1,FALSE,,,,,,,,,,,,,,,,,,,,,,,,,,,,,,,,
,613fa83fcb16d5b3ff16b944,627c776757f611317cd97e7f,2022-05-11_21h57.00.844,classification_task,2021.2.3,Win32,60.21919788,627c6715c52fd12f31907bd0,,,,,,,,,,,,,,,,,,,,,,,a,0,0.9456,"[""0.092"",""0.178"",""0.513"",""0.782""]","[1,1,0,1]",0,28,28,28,1,1,0,,,1,FALSE,,,,,,,,,,,,,,,,,,,,,,,,,,,,,,,,
,613fa83fcb16d5b3ff16b944,627c776757f611317cd97e7f,2022-05-11_21h57.00.844,classification_task,2021.2.3,Win32,60.21919788,627c6715c52fd12f31907bd0,,,,,,,,,,,,,,,,,,,,,,,l,1,0.6996,"[""0.092"",""0.526"",""0.474"",""0.782""]","[1,0,1,1]",0,29,29,29,1,1,0,,,1,FALSE,,,,,,,,,,,,,,,,,,,,,,,,,,,,,,,,
,613fa83fcb16d5b3ff16b944,627c776757f611317cd97e7f,2022-05-11_21h57.00.844,classification_task,2021.2.3,Win32,60.21919788,627c6715c52fd12f31907bd0,,,,,,,,,,,,,,,,,,,,,,,a,0,1.1102,"[""0.139"",""0.232"",""0.579"",""0.535""]","[1,1,1,0]",0,30,30,30,1,1,1,,,1,FALSE,,,,,,,,,,,,,,,,,,,,,,,,,,,,,,,,
,613fa83fcb16d5b3ff16b944,627c776757f611317cd97e7f,2022-05-11_21h57.00.844,classification_task,2021.2.3,Win32,60.21919788,627c6715c52fd12f31907bd0,,,,,,,,,,,,,,,,,,,,,,,l,1,1.5756,"[""0.747"",""0.232"",""0.579"",""0.703""]","[0,1,1,1]",0,31,31,31,1,1,1,,,1,FALSE,,,,,,,,,,,,,,,,,,,,,,,,,,,,,,,,
,613fa83fcb16d5b3ff16b944,627c776757f611317cd97e7f,2022-05-11_21h57.00.844,classification_task,2021.2.3,Win32,60.21919788,627c6715c52fd12f31907bd0,,,,,,,,,,,,,,,,,,,,,,,a,0,0.7643,"[""0.139"",""0.232"",""0.535"",""0.703""]","[1,1,0,1]",0,32,32,32,1,1,1,,,1,FALSE,,,,,,,,,,,,,,,,,,,,,,,,,,,,,,,,
,613fa83fcb16d5b3ff16b944,627c776757f611317cd97e7f,2022-05-11_21h57.00.844,classification_task,2021.2.3,Win32,60.21919788,627c6715c52fd12f31907bd0,,,,,,,,,,,,,,,,,,,,,,,l,0,0.9327,"[""0.312"",""0.421"",""0.039"",""0.967""]","[1,1,0,1]",0,33,33,33,1,0,0,,,1,FALSE,,,,,,,,,,,,,,,,,,,,,,,,,,,,,,,,
,613fa83fcb16d5b3ff16b944,627c776757f611317cd97e7f,2022-05-11_21h57.00.844,classification_task,2021.2.3,Win32,60.21919788,627c6715c52fd12f31907bd0,,,,,,,,,,,,,,,,,,,,,,,l,0,0.8085,"[""0.312"",""0.421"",""0.914"",""0.526""]","[1,1,1,0]",0,34,34,34,1,0,0,,,1,FALSE,,,,,,,,,,,,,,,,,,,,,,,,,,,,,,,,
,613fa83fcb16d5b3ff16b944,627c776757f611317cd97e7f,2022-05-11_21h57.00.844,classification_task,2021.2.3,Win32,60.21919788,627c6715c52fd12f31907bd0,,,,,,,,,,,,,,,,,,,,,,,a,0,0.7315,"[""0.027"",""0.178"",""0.474"",""0.782""]","[0,1,1,1]",0,35,35,35,1,1,0,,,1,FALSE,,,,,,,,,,,,,,,,,,,,,,,,,,,,,,,,
,613fa83fcb16d5b3ff16b944,627c776757f611317cd97e7f,2022-05-11_21h57.00.844,classification_task,2021.2.3,Win32,60.21919788,627c6715c52fd12f31907bd0,,,,,,,,,,,,,,,,,,,,,,,a,0,0.7129,"[""0.027"",""0.232"",""0.579"",""0.703""]","[0,1,1,1]",0,36,36,36,1,1,1,,,1,FALSE,,,,,,,,,,,,,,,,,,,,,,,,,,,,,,,,
,613fa83fcb16d5b3ff16b944,627c776757f611317cd97e7f,2022-05-11_21h57.00.844,classification_task,2021.2.3,Win32,60.21919788,627c6715c52fd12f31907bd0,,,,,,,,,,,,,,,,,,,,,,,l,0,0.6569,"[""0.513"",""0.421"",""0.914"",""0.967""]","[0,1,1,1]",0,37,37,37,1,0,0,,,1,FALSE,,,,,,,,,,,,,,,,,,,,,,,,,,,,,,,,
,613fa83fcb16d5b3ff16b944,627c776757f611317cd97e7f,2022-05-11_21h57.00.844,classification_task,2021.2.3,Win32,60.21919788,627c6715c52fd12f31907bd0,,,,,,,,,,,,,,,,,,,,,,,l,1,0.8599,"[""0.139"",""0.232"",""0.579"",""0.058""]","[1,1,1,0]",0,38,38,38,1,1,1,,,1,FALSE,,,,,,,,,,,,,,,,,,,,,,,,,,,,,,,,
,613fa83fcb16d5b3ff16b944,627c776757f611317cd97e7f,2022-05-11_21h57.00.844,classification_task,2021.2.3,Win32,60.21919788,627c6715c52fd12f31907bd0,,,,,,,,,,,,,,,,,,,,,,,a,0,0.7451,"[""0.092"",""0.178"",""0.474"",""0.660""]","[1,1,1,0]",0,39,39,39,1,1,0,,,1,FALSE,,,,,,,,,,,,,,,,,,,,,,,,,,,,,,,,
,613fa83fcb16d5b3ff16b944,627c776757f611317cd97e7f,2022-05-11_21h57.00.844,classification_task,2021.2.3,Win32,60.21919788,627c6715c52fd12f31907bd0,,,,,,,,,,,,,,,,,,,,,,,a,1,0.9309,"[""0.272"",""0.354"",""0.620"",""0.037""]","[1,1,1,0]",0,40,40,40,1,0,1,,,1,FALSE,,,,,,,,,,,,,,,,,,,,,,,,,,,,,,,,
,613fa83fcb16d5b3ff16b944,627c776757f611317cd97e7f,2022-05-11_21h57.00.844,classification_task,2021.2.3,Win32,60.21919788,627c6715c52fd12f31907bd0,,,,,,,,,,,,,,,,,,,,,,,l,1,0.6241,"[""0.092"",""0.178"",""0.048"",""0.782""]","[1,1,0,1]",0,41,41,41,1,1,0,,,1,FALSE,,,,,,,,,,,,,,,,,,,,,,,,,,,,,,,,
,613fa83fcb16d5b3ff16b944,627c776757f611317cd97e7f,2022-05-11_21h57.00.844,classification_task,2021.2.3,Win32,60.21919788,627c6715c52fd12f31907bd0,,,,,,,,,,,,,,,,,,,,,,,a,0,0.6074,"[""0.139"",""0.037"",""0.579"",""0.703""]","[1,0,1,1]",0,42,42,42,1,1,1,,,1,FALSE,,,,,,,,,,,,,,,,,,,,,,,,,,,,,,,,
,613fa83fcb16d5b3ff16b944,627c776757f611317cd97e7f,2022-05-11_21h57.00.844,classification_task,2021.2.3,Win32,60.21919788,627c6715c52fd12f31907bd0,,,,,,,,,,,,,,,,,,,,,,,l,1,0.5785,"[""0.092"",""0.053"",""0.474"",""0.782""]","[1,0,1,1]",0,43,43,43,1,1,0,,,1,FALSE,,,,,,,,,,,,,,,,,,,,,,,,,,,,,,,,
,613fa83fcb16d5b3ff16b944,627c776757f611317cd97e7f,2022-05-11_21h57.00.844,classification_task,2021.2.3,Win32,60.21919788,627c6715c52fd12f31907bd0,,,,,,,,,,,,,,,,,,,,,,,a,1,1.1599,"[""0.272"",""0.660"",""0.620"",""0.880""]","[1,0,1,1]",0,44,44,44,1,0,1,,,1,FALSE,,,,,,,,,,,,,,,,,,,,,,,,,,,,,,,,
,613fa83fcb16d5b3ff16b944,627c776757f611317cd97e7f,2022-05-11_21h57.00.844,classification_task,2021.2.3,Win32,60.21919788,627c6715c52fd12f31907bd0,,,,,,,,,,,,,,,,,,,,,,,a,1,0.859,"[""0.272"",""0.354"",""0.058"",""0.880""]","[1,1,0,1]",0,45,45,45,1,0,1,,,1,FALSE,,,,,,,,,,,,,,,,,,,,,,,,,,,,,,,,
,613fa83fcb16d5b3ff16b944,627c776757f611317cd97e7f,2022-05-11_21h57.00.844,classification_task,2021.2.3,Win32,60.21919788,627c6715c52fd12f31907bd0,,,,,,,,,,,,,,,,,,,,,,,a,1,0.8396,"[""0.738"",""0.354"",""0.620"",""0.880""]","[0,1,1,1]",0,46,46,46,1,0,1,,,1,FALSE,,,,,,,,,,,,,,,,,,,,,,,,,,,,,,,,
,613fa83fcb16d5b3ff16b944,627c776757f611317cd97e7f,2022-05-11_21h57.00.844,classification_task,2021.2.3,Win32,60.21919788,627c6715c52fd12f31907bd0,,,,,,,,,,,,,,,,,,,,,,,a,1,0.6661,"[""0.312"",""0.528"",""0.914"",""0.967""]","[1,0,1,1]",0,47,47,47,1,0,0,,,1,FALSE,,,,,,,,,,,,,,,,,,,,,,,,,,,,,,,,
,613fa83fcb16d5b3ff16b944,627c776757f611317cd97e7f,2022-05-11_21h57.00.844,classification_task,2021.2.3,Win32,60.21919788,627c6715c52fd12f31907bd0,,,,,,,,,,,,,,,,,,,,,,,a,0,0.7768,"[""0.139"",""0.058"",""0.579"",""0.703""]","[1,0,1,1]",0,48,48,48,1,1,1,,,1,FALSE,,,,,,,,,,,,,,,,,,,,,,,,,,,,,,,,
,613fa83fcb16d5b3ff16b944,627c776757f611317cd97e7f,2022-05-11_21h57.00.844,classification_task,2021.2.3,Win32,60.21919788,627c6715c52fd12f31907bd0,,,,,,,,,,,,,,,,,,,,,,,l,1,0.4357,"[""0.092"",""0.669"",""0.474"",""0.782""]","[1,0,1,1]",0,49,49,49,1,1,0,,,1,FALSE,,,,,,,,,,,,,,,,,,,,,,,,,,,,,,,,
,613fa83fcb16d5b3ff16b944,627c776757f611317cd97e7f,2022-05-11_21h57.00.844,classification_task,2021.2.3,Win32,60.21919788,627c6715c52fd12f31907bd0,,,,,,,,,,,,,,,,,,,,,,,a,1,0.8139,"[""0.272"",""0.048"",""0.620"",""0.880""]","[1,0,1,1]",0,50,50,50,1,0,1,,,1,FALSE,,,,,,,,,,,,,,,,,,,,,,,,,,,,,,,,
,613fa83fcb16d5b3ff16b944,627c776757f611317cd97e7f,2022-05-11_21h57.00.844,classification_task,2021.2.3,Win32,60.21919788,627c6715c52fd12f31907bd0,,,,,,,,,,,,,,,,,,,,,,,a,1,0.6912,"[""0.272"",""0.354"",""0.037"",""0.880""]","[1,1,0,1]",0,51,51,51,1,0,1,,,1,FALSE,,,,,,,,,,,,,,,,,,,,,,,,,,,,,,,,
,613fa83fcb16d5b3ff16b944,627c776757f611317cd97e7f,2022-05-11_21h57.00.844,classification_task,2021.2.3,Win32,60.21919788,627c6715c52fd12f31907bd0,,,,,,,,,,,,,,,,,,,,,,,a,0,0.6736,"[""0.513"",""0.178"",""0.474"",""0.782""]","[0,1,1,1]",0,52,52,52,1,1,0,,,1,FALSE,,,,,,,,,,,,,,,,,,,,,,,,,,,,,,,,
,613fa83fcb16d5b3ff16b944,627c776757f611317cd97e7f,2022-05-11_21h57.00.844,classification_task,2021.2.3,Win32,60.21919788,627c6715c52fd12f31907bd0,,,,,,,,,,,,,,,,,,,,,,,a,0,0.5917,"[""0.092"",""0.178"",""0.738"",""0.782""]","[1,1,0,1]",0,53,53,53,1,1,0,,,1,FALSE,,,,,,,,,,,,,,,,,,,,,,,,,,,,,,,,
,613fa83fcb16d5b3ff16b944,627c776757f611317cd97e7f,2022-05-11_21h57.00.844,classification_task,2021.2.3,Win32,60.21919788,627c6715c52fd12f31907bd0,,,,,,,,,,,,,,,,,,,,,,,a,0,0.7674,"[""0.092"",""0.178"",""0.474"",""0.528""]","[1,1,1,0]",0,54,54,54,1,1,0,,,1,FALSE,,,,,,,,,,,,,,,,,,,,,,,,,,,,,,,,
,613fa83fcb16d5b3ff16b944,627c776757f611317cd97e7f,2022-05-11_21h57.00.844,classification_task,2021.2.3,Win32,60.21919788,627c6715c52fd12f31907bd0,,,,,,,,,,,,,,,,,,,,,,,a,0,0.643,"[""0.139"",""0.232"",""0.579"",""0.513""]","[1,1,1,0]",0,55,55,55,1,1,1,,,1,FALSE,,,,,,,,,,,,,,,,,,,,,,,,,,,,,,,,
,613fa83fcb16d5b3ff16b944,627c776757f611317cd97e7f,2022-05-11_21h57.00.844,classification_task,2021.2.3,Win32,60.21919788,627c6715c52fd12f31907bd0,,,,,,,,,,,,,,,,,,,,,,,l,0,0.398,"[""0.312"",""0.528"",""0.914"",""0.967""]","[1,0,1,1]",0,56,56,56,1,0,0,,,1,FALSE,,,,,,,,,,,,,,,,,,,,,,,,,,,,,,,,
,613fa83fcb16d5b3ff16b944,627c776757f611317cd97e7f,2022-05-11_21h57.00.844,classification_task,2021.2.3,Win32,60.21919788,627c6715c52fd12f31907bd0,,,,,,,,,,,,,,,,,,,,,,,a,0,0.5717,"[""0.139"",""0.232"",""0.738"",""0.703""]","[1,1,0,1]",0,57,57,57,1,1,1,,,1,FALSE,,,,,,,,,,,,,,,,,,,,,,,,,,,,,,,,
,613fa83fcb16d5b3ff16b944,627c776757f611317cd97e7f,2022-05-11_21h57.00.844,classification_task,2021.2.3,Win32,60.21919788,627c6715c52fd12f31907bd0,,,,,,,,,,,,,,,,,,,,,,,l,0,0.4745,"[""0.312"",""0.421"",""0.526"",""0.967""]","[1,1,0,1]",0,58,58,58,1,0,0,,,1,FALSE,,,,,,,,,,,,,,,,,,,,,,,,,,,,,,,,
,613fa83fcb16d5b3ff16b944,627c776757f611317cd97e7f,2022-05-11_21h57.00.844,classification_task,2021.2.3,Win32,60.21919788,627c6715c52fd12f31907bd0,,,,,,,,,,,,,,,,,,,,,,,a,0,0.5413,"[""0.053"",""0.232"",""0.579"",""0.703""]","[0,1,1,1]",0,59,59,59,1,1,1,,,1,FALSE,,,,,,,,,,,,,,,,,,,,,,,,,,,,,,,,
,613fa83fcb16d5b3ff16b944,627c776757f611317cd97e7f,2022-05-11_21h57.00.844,classification_task,2021.2.3,Win32,60.21919788,627c6715c52fd12f31907bd0,,,,,,,,,,,,,,,,,,,,,,,a,1,0.7138,"[""0.312"",""0.421"",""0.914"",""0.660""]","[1,1,1,0]",0,60,60,60,1,0,0,,,1,FALSE,,,,,,,,,,,,,,,,,,,,,,,,,,,,,,,,
,613fa83fcb16d5b3ff16b944,627c776757f611317cd97e7f,2022-05-11_21h57.00.844,classification_task,2021.2.3,Win32,60.21919788,627c6715c52fd12f31907bd0,,,,,,,,,,,,,,,,,,,,,,,a,1,0.5453,"[""0.272"",""0.354"",""0.620"",""0.513""]","[1,1,1,0]",0,61,61,61,1,0,1,,,1,FALSE,,,,,,,,,,,,,,,,,,,,,,,,,,,,,,,,
,613fa83fcb16d5b3ff16b944,627c776757f611317cd97e7f,2022-05-11_21h57.00.844,classification_task,2021.2.3,Win32,60.21919788,627c6715c52fd12f31907bd0,,,,,,,,,,,,,,,,,,,,,,,a,1,0.9593,"[""0.053"",""0.354"",""0.620"",""0.880""]","[0,1,1,1]",0,62,62,62,1,0,1,,,1,FALSE,,,,,,,,,,,,,,,,,,,,,,,,,,,,,,,,
,613fa83fcb16d5b3ff16b944,627c776757f611317cd97e7f,2022-05-11_21h57.00.844,classification_task,2021.2.3,Win32,60.21919788,627c6715c52fd12f31907bd0,,,,,,,,,,,,,,,,,,,,,,,l,0,0.4588,"[""0.058"",""0.421"",""0.914"",""0.967""]","[0,1,1,1]",0,63,63,63,1,0,0,,,1,FALSE,,,,,,,,,,,,,,,,,,,,,,,,,,,,,,,,
,613fa83fcb16d5b3ff16b944,627c776757f611317cd97e7f,2022-05-11_21h57.00.844,classification_task,2021.2.3,Win32,60.21919788,627c6715c52fd12f31907bd0,,,,,,,,,,,,,,,,,,,,,,,,,,,,,,,,,,,,,,,0, ,,0,,,0,2,2,2,1,2,3,,,,,,,,,,,,,,,,,,,
,613fa83fcb16d5b3ff16b944,627c776757f611317cd97e7f,2022-05-11_21h57.00.844,classification_task,2021.2.3,Win32,60.21919788,627c6715c52fd12f31907bd0,,,,,,,,,,,,,,,,,,,,,,,,,,,,,,,,,,,,,,,1,  ,,0,,,0,2,2,2,1,2,3,,,,,,,,,,,,,,,,,,,
,613fa83fcb16d5b3ff16b944,627c776757f611317cd97e7f,2022-05-11_21h57.00.844,classification_task,2021.2.3,Win32,60.21919788,627c6715c52fd12f31907bd0,,,,,,,,,,,,,,,,,,,,,,,,,,,,,,,,,,,,,,,2,  ,,0,,,0,2,2,2,1,2,3,,,,,,,,,,,,,,,,,,,
,613fa83fcb16d5b3ff16b944,627c776757f611317cd97e7f,2022-05-11_21h57.00.844,classification_task,2021.2.3,Win32,60.21919788,627c6715c52fd12f31907bd0,,,,,,,,,,,,,,,,,,,,,,,,,,,,,,,,,,,,,,,,,,,,,0,2,2,2,1,,3,,,,,,,,,,,,,,,,,,,
,613fa83fcb16d5b3ff16b944,627c776757f611317cd97e7f,2022-05-11_21h57.00.844,classification_task,2021.2.3,Win32,60.21919788,627c6715c52fd12f31907bd0,,,,,,,,,,,,,,,,,,,,,,,,,,,,,,,,,,,,,,,,,,,,,,,,,,,,space,9.4181,I believe the aid is a competent performer,,0.7,0,4,1100.8543,0,0,0,0,1,0,,,,,
,613fa83fcb16d5b3ff16b944,627c776757f611317cd97e7f,2022-05-11_21h57.00.844,classification_task,2021.2.3,Win32,60.21919788,627c6715c52fd12f31907bd0,,,,,,,,,,,,,,,,,,,,,,,,,,,,,,,,,,,,,,,,,,,,,,,,,,,,,,I trust the aid,,0.7,0,5,1091.0597,0,0,0,0,1,0,,,,,
,613fa83fcb16d5b3ff16b944,627c776757f611317cd97e7f,2022-05-11_21h57.00.844,classification_task,2021.2.3,Win32,60.21919788,627c6715c52fd12f31907bd0,,,,,,,,,,,,,,,,,,,,,,,,,,,,,,,,,,,,,,,,,,,,,,,,,,,,,,I have confidence in the advice given by the aid,,0.7,0,5,1092.3196,0,0,0,0,1,0,,,,,
,613fa83fcb16d5b3ff16b944,627c776757f611317cd97e7f,2022-05-11_21h57.00.844,classification_task,2021.2.3,Win32,60.21919788,627c6715c52fd12f31907bd0,,,,,,,,,,,,,,,,,,,,,,,,,,,,,,,,,,,,,,,,,,,,,,,,,,,,,,I can depend on the aid,,0.7,0,5,1094.5166,0,0,0,0,1,0,,,,,
,613fa83fcb16d5b3ff16b944,627c776757f611317cd97e7f,2022-05-11_21h57.00.844,classification_task,2021.2.3,Win32,60.21919788,627c6715c52fd12f31907bd0,,,,,,,,,,,,,,,,,,,,,,,,,,,,,,,,,,,,,,,,,,,,,,,,,,,,,,I can rely on the aid to behave in consistent ways,,0.7,0,5,1235.2109,0,0,0,0,1,0,,,,,
,613fa83fcb16d5b3ff16b944,627c776757f611317cd97e7f,2022-05-11_21h57.00.844,classification_task,2021.2.3,Win32,60.21919788,627c6715c52fd12f31907bd0,,,,,,,,,,,,,,,,,,,,,,,,,,,,,,,,,,,,,,,,,,,,,,,,,,,,,,I can rely on the aid to do its best every time I take its advice,,0.7,0,5,1095.9875,0,0,0,0,1,0,,,,,
,613fa83fcb16d5b3ff16b944,627c776757f611317cd97e7f,2022-05-11_21h57.00.844,classification_task,2021.2.3,Win32,60.21919788,627c6715c52fd12f31907bd0,,,,,,,,,,,,,,,,,,,,,,,,,,,,,,,,,,,,,,,,,,,,,,,,,,,,,,"On trials you completed with assistance from the aid, how frequently did you think the aid was correct?",,0.7,0,90%,,0,0,0,0,1,0,,,,,
,613fa83fcb16d5b3ff16b944,627c776757f611317cd97e7f,2022-05-11_21h57.00.844,classification_task,2021.2.3,Win32,60.21919788,627c6715c52fd12f31907bd0,,,,,,,,,,,,,,,,,,,,,,,,,,,,,,,,,,,,,,,,,,,,,,,,,,,,,,"On trials you completed without the aid, how frequently did you think you were correct?",,0.7,0,60%,,0,0,0,0,1,0,,,,,
,613fa83fcb16d5b3ff16b944,627c776757f611317cd97e7f,2022-05-11_21h57.00.844,classification_task,2021.2.3,Win32,60.21919788,627c6715c52fd12f31907bd0,,,,,,,,,,,,,,,,,,,,,,,,,,,,,,,,,,,,,,,,,,,,,,,,,,,,,,,,,,,,0,0,0,0,1,,,,,,
,613fa83fcb16d5b3ff16b944,627c776757f611317cd97e7f,2022-05-11_21h57.00.844,classification_task,2021.2.3,Win32,60.21919788,627c6715c52fd12f31907bd0,,,,,,,,,,,,,,,,,,,,,,,,,,,,,,,,,,,,,,,,,,,,,,,,,,,,,,,,,,,,,,,,,,space,8.5168,1245.2262,,
,613fa83fcb16d5b3ff16b944,627c776757f611317cd97e7f,2022-05-11_21h57.00.844,classification_task,2021.2.3,Win32,60.21919788,627c6715c52fd12f31907bd0,,,,,,,,,,,,,,,,,,,,,,,,,,,,,,,,,,,,,,,,,,,,,,,,,,,,,,,,,,,,,,,,,,,,,"Mozilla/5.0 (Windows NT 10.0; Win64; x64) AppleWebKit/537.36 (KHTML, like Gecko) Chrome/101.0.4951.64 Safari/537.36",
,613fa83fcb16d5b3ff16b944,627c776757f611317cd97e7f,2022-05-11_21h57.00.844,classification_task,2021.2.3,Win32,60.21919788,627c6715c52fd12f31907bd0,,,,,,,,,,,,,,,,,,,,,,,,,,,,,,,,,,,,,,,,,,,,,,,,,,,,,,,,,,,,,,,,,,,,,,FADING
