usingWebGL,participant,session,date,expName,psychopyVersion,OS,frameRate,study_id,signatures_friend,signatures_foe,band_ranges_top,band_ranges_bottom,formitemText,formtype,formundefined,formitemWidth,formindex,formresponse,formrt,key_resp_2.keys,key_resp_2.rt,tute_resp.keys,tute_resp.rt,tutorial.thisRepN,tutorial.thisTrialN,tutorial.thisN,tutorial.thisIndex,tutorial.ran,key_resp_4.keys,key_resp_4.rt,key_resp.keys,key_resp.corr,key_resp.rt,lines_presented,is_signal_presented,trials.thisRepN,trials.thisTrialN,trials.thisN,trials.thisIndex,trials.ran,vessel,active_band,lines,is_signal,supported_pos,catch_trial,debrief_formindex,debrief_formitemText,debrief_formtype,debrief_formitemWidth,debrief_formresponse,debrief_formrt,phases.thisRepN,phases.thisTrialN,phases.thisN,phases.thisIndex,phases.ran,phases.order,phase,key_resp_3.keys,trustitemText,trusttype,trustitemWidth,trustindex,trustresponse,trustrt,support_status.thisRepN,support_status.thisTrialN,support_status.thisN,support_status.thisIndex,support_status.ran,support_status.order,key_resp_5.keys,key_resp_5.rt,globalClockTime,userAgent,manualCondition
TRUE,613f79a17525776c2cbc04a6,627c6fbf8453bbb11a714fdf,2022-05-11_21h24.38.230,classification_task,2021.2.3,Win32,59.07372401,627c6715c52fd12f31907bd0,,,,,,,,,,,,,,,,,,,,,,,,,,,,,,,,,,,,,,,,,,,,,,,,,,,,,,,,,,,,,,,,,,,,,
,613f79a17525776c2cbc04a6,627c6fbf8453bbb11a714fdf,2022-05-11_21h24.38.230,classification_task,2021.2.3,Win32,59.07372401,627c6715c52fd12f31907bd0,"[[""0.199"",""0.445"",""0.926"",""0.963""],[""0.303"",""0.544"",""0.829"",""0.867""]]","[[""0.032"",""0.250"",""0.505"",""0.743""],[""0.117"",""0.411"",""0.643"",""0.686""]]","[1,10]","[100,1000]",Video game experience,,,0.7,0,,,,,,,,,,,,,,,,,,,,,,,,,,,,,,,,,,,,,,,,,,,,,,,,,,,,,,,,,,,,
,613f79a17525776c2cbc04a6,627c6fbf8453bbb11a714fdf,2022-05-11_21h24.38.230,classification_task,2021.2.3,Win32,59.07372401,627c6715c52fd12f31907bd0,,,,,Approximately how many hours did you spend playing video games in the last week?,,,0.7,0,3,,,,,,,,,,,,,,,,,,,,,,,,,,,,,,,,,,,,,,,,,,,,,,,,,,,,,,,,,,,
,613f79a17525776c2cbc04a6,627c6fbf8453bbb11a714fdf,2022-05-11_21h24.38.230,classification_task,2021.2.3,Win32,59.07372401,627c6715c52fd12f31907bd0,,,,,"Which game did you play the most this year? (Enter ""None"" if you didn't play any)",,,0.7,0,Mario Kart,,,,,,,,,,,,,,,,,,,,,,,,,,,,,,,,,,,,,,,,,,,,,,,,,,,,,,,,,,,
,613f79a17525776c2cbc04a6,627c6fbf8453bbb11a714fdf,2022-05-11_21h24.38.230,classification_task,2021.2.3,Win32,59.07372401,627c6715c52fd12f31907bd0,,,,,Visual perception,,,0.7,0,,,,,,,,,,,,,,,,,,,,,,,,,,,,,,,,,,,,,,,,,,,,,,,,,,,,,,,,,,,,
,613f79a17525776c2cbc04a6,627c6fbf8453bbb11a714fdf,2022-05-11_21h24.38.230,classification_task,2021.2.3,Win32,59.07372401,627c6715c52fd12f31907bd0,,,,,Do you have any form of color blindness?,,,0.7,0,No,36.3606,,,,,,,,,,,,,,,,,,,,,,,,,,,,,,,,,,,,,,,,,,,,,,,,,,,,,,,,,,
,613f79a17525776c2cbc04a6,627c6fbf8453bbb11a714fdf,2022-05-11_21h24.38.230,classification_task,2021.2.3,Win32,59.07372401,627c6715c52fd12f31907bd0,,,,,Do you use software to change the colour temperature of your screen (e.g. f.lux)?,,,0.7,0,No,40.4234,,,,,,,,,,,,,,,,,,,,,,,,,,,,,,,,,,,,,,,,,,,,,,,,,,,,,,,,,,
,613f79a17525776c2cbc04a6,627c6fbf8453bbb11a714fdf,2022-05-11_21h24.38.230,classification_task,2021.2.3,Win32,59.07372401,627c6715c52fd12f31907bd0,,,,,,,,,,,,space,45.4648,space,8.5789,0,0,0,0,1,,,,,,,,,,,,,,,,,,,,,,,,,,,,,,,,,,,,,,,,,,,,,,,,,
,613f79a17525776c2cbc04a6,627c6fbf8453bbb11a714fdf,2022-05-11_21h24.38.230,classification_task,2021.2.3,Win32,59.07372401,627c6715c52fd12f31907bd0,,,,,,,,,,,,,,space,13.8157,1,0,1,0,1,,,,,,,,,,,,,,,,,,,,,,,,,,,,,,,,,,,,,,,,,,,,,,,,,
,613f79a17525776c2cbc04a6,627c6fbf8453bbb11a714fdf,2022-05-11_21h24.38.230,classification_task,2021.2.3,Win32,59.07372401,627c6715c52fd12f31907bd0,,,,,,,,,,,,,,space,20.3309,2,0,2,0,1,,,,,,,,,,,,,,,,,,,,,,,,,,,,,,,,,,,,,,,,,,,,,,,,,
,613f79a17525776c2cbc04a6,627c6fbf8453bbb11a714fdf,2022-05-11_21h24.38.230,classification_task,2021.2.3,Win32,59.07372401,627c6715c52fd12f31907bd0,,,,,,,,,,,,,,space,9.4973,3,0,3,0,1,,,,,,,,,,,,,,,,,,,,,,,,,,,,,,,,,,,,,,,,,,,,,,,,,
,613f79a17525776c2cbc04a6,627c6fbf8453bbb11a714fdf,2022-05-11_21h24.38.230,classification_task,2021.2.3,Win32,59.07372401,627c6715c52fd12f31907bd0,,,,,,,,,,,,,,space,12.5288,4,0,4,0,1,,,,,,,,,,,,,,,,,,,,,,,,,,,,,,,,,,,,,,,,,,,,,,,,,
,613f79a17525776c2cbc04a6,627c6fbf8453bbb11a714fdf,2022-05-11_21h24.38.230,classification_task,2021.2.3,Win32,59.07372401,627c6715c52fd12f31907bd0,,,,,,,,,,,,,,,,,,,,,space,16.8844,a,0,2.6283,"[""0.084"",""0.250"",""0.505"",""0.743""]","[0,1,1,1]",0,0,0,0,1,1,0,,,1,FALSE,,,,,,,,,,,,,,,,,,,,,,,,,,,,,,,
,613f79a17525776c2cbc04a6,627c6fbf8453bbb11a714fdf,2022-05-11_21h24.38.230,classification_task,2021.2.3,Win32,59.07372401,627c6715c52fd12f31907bd0,,,,,,,,,,,,,,,,,,,,,,,a,1,1.2284,"[""0.303"",""0.544"",""0.829"",""0.076""]","[1,1,1,0]",0,1,1,1,1,0,1,,,1,FALSE,,,,,,,,,,,,,,,,,,,,,,,,,,,,,,,
,613f79a17525776c2cbc04a6,627c6fbf8453bbb11a714fdf,2022-05-11_21h24.38.230,classification_task,2021.2.3,Win32,59.07372401,627c6715c52fd12f31907bd0,,,,,,,,,,,,,,,,,,,,,,,l,1,1.4207,"[""0.354"",""0.411"",""0.643"",""0.686""]","[0,1,1,1]",0,2,2,2,1,1,1,,,1,FALSE,,,,,,,,,,,,,,,,,,,,,,,,,,,,,,,
,613f79a17525776c2cbc04a6,627c6fbf8453bbb11a714fdf,2022-05-11_21h24.38.230,classification_task,2021.2.3,Win32,59.07372401,627c6715c52fd12f31907bd0,,,,,,,,,,,,,,,,,,,,,,,l,0,1.1227,"[""0.351"",""0.544"",""0.829"",""0.867""]","[0,1,1,1]",0,3,3,3,1,0,1,,,1,FALSE,,,,,,,,,,,,,,,,,,,,,,,,,,,,,,,
,613f79a17525776c2cbc04a6,627c6fbf8453bbb11a714fdf,2022-05-11_21h24.38.230,classification_task,2021.2.3,Win32,59.07372401,627c6715c52fd12f31907bd0,,,,,,,,,,,,,,,,,,,,,,,l,1,1.5464,"[""0.032"",""0.250"",""0.354"",""0.743""]","[1,1,0,1]",0,4,4,4,1,1,0,,,1,FALSE,,,,,,,,,,,,,,,,,,,,,,,,,,,,,,,
,613f79a17525776c2cbc04a6,627c6fbf8453bbb11a714fdf,2022-05-11_21h24.38.230,classification_task,2021.2.3,Win32,59.07372401,627c6715c52fd12f31907bd0,,,,,,,,,,,,,,,,,,,,,,,a,0,1.966,"[""0.032"",""0.250"",""0.505"",""0.346""]","[1,1,1,0]",0,5,5,5,1,1,0,,,1,FALSE,,,,,,,,,,,,,,,,,,,,,,,,,,,,,,,
,613f79a17525776c2cbc04a6,627c6fbf8453bbb11a714fdf,2022-05-11_21h24.38.230,classification_task,2021.2.3,Win32,59.07372401,627c6715c52fd12f31907bd0,,,,,,,,,,,,,,,,,,,,,,,l,1,1.2821,"[""0.117"",""0.376"",""0.643"",""0.686""]","[1,0,1,1]",0,6,6,6,1,1,1,,,1,FALSE,,,,,,,,,,,,,,,,,,,,,,,,,,,,,,,
,613f79a17525776c2cbc04a6,627c6fbf8453bbb11a714fdf,2022-05-11_21h24.38.230,classification_task,2021.2.3,Win32,59.07372401,627c6715c52fd12f31907bd0,,,,,,,,,,,,,,,,,,,,,,,a,0,2.9506,"[""0.117"",""0.411"",""0.643"",""0.354""]","[1,1,1,0]",0,7,7,7,1,1,1,,,1,FALSE,,,,,,,,,,,,,,,,,,,,,,,,,,,,,,,
,613f79a17525776c2cbc04a6,627c6fbf8453bbb11a714fdf,2022-05-11_21h24.38.230,classification_task,2021.2.3,Win32,59.07372401,627c6715c52fd12f31907bd0,,,,,,,,,,,,,,,,,,,,,,,a,1,1.0972,"[""0.199"",""0.445"",""0.608"",""0.963""]","[1,1,0,1]",0,8,8,8,1,0,0,,,1,FALSE,,,,,,,,,,,,,,,,,,,,,,,,,,,,,,,
,613f79a17525776c2cbc04a6,627c6fbf8453bbb11a714fdf,2022-05-11_21h24.38.230,classification_task,2021.2.3,Win32,59.07372401,627c6715c52fd12f31907bd0,,,,,,,,,,,,,,,,,,,,,,,a,1,1.1111,"[""0.303"",""0.544"",""0.076"",""0.867""]","[1,1,0,1]",0,9,9,9,1,0,1,,,1,FALSE,,,,,,,,,,,,,,,,,,,,,,,,,,,,,,,
,613f79a17525776c2cbc04a6,627c6fbf8453bbb11a714fdf,2022-05-11_21h24.38.230,classification_task,2021.2.3,Win32,59.07372401,627c6715c52fd12f31907bd0,,,,,,,,,,,,,,,,,,,,,,,l,0,1.1789,"[""0.199"",""0.445"",""0.926"",""0.589""]","[1,1,1,0]",0,10,10,10,1,0,0,,,1,FALSE,,,,,,,,,,,,,,,,,,,,,,,,,,,,,,,
,613f79a17525776c2cbc04a6,627c6fbf8453bbb11a714fdf,2022-05-11_21h24.38.230,classification_task,2021.2.3,Win32,59.07372401,627c6715c52fd12f31907bd0,,,,,,,,,,,,,,,,,,,,,,,a,1,1.1669,"[""0.199"",""0.165"",""0.926"",""0.963""]","[1,0,1,1]",0,11,11,11,1,0,0,,,1,FALSE,,,,,,,,,,,,,,,,,,,,,,,,,,,,,,,
,613f79a17525776c2cbc04a6,627c6fbf8453bbb11a714fdf,2022-05-11_21h24.38.230,classification_task,2021.2.3,Win32,59.07372401,627c6715c52fd12f31907bd0,,,,,,,,,,,,,,,,,,,,,,,l,1,1.6291,"[""0.117"",""0.411"",""0.354"",""0.686""]","[1,1,0,1]",0,12,12,12,1,1,1,,,1,FALSE,,,,,,,,,,,,,,,,,,,,,,,,,,,,,,,
,613f79a17525776c2cbc04a6,627c6fbf8453bbb11a714fdf,2022-05-11_21h24.38.230,classification_task,2021.2.3,Win32,59.07372401,627c6715c52fd12f31907bd0,,,,,,,,,,,,,,,,,,,,,,,l,1,2.6433,"[""0.032"",""0.084"",""0.505"",""0.743""]","[1,0,1,1]",0,13,13,13,1,1,0,,,1,FALSE,,,,,,,,,,,,,,,,,,,,,,,,,,,,,,,
,613f79a17525776c2cbc04a6,627c6fbf8453bbb11a714fdf,2022-05-11_21h24.38.230,classification_task,2021.2.3,Win32,59.07372401,627c6715c52fd12f31907bd0,,,,,,,,,,,,,,,,,,,,,,,l,0,1.3587,"[""0.357"",""0.445"",""0.926"",""0.963""]","[0,1,1,1]",0,14,14,14,1,0,0,,,1,FALSE,,,,,,,,,,,,,,,,,,,,,,,,,,,,,,,
,613f79a17525776c2cbc04a6,627c6fbf8453bbb11a714fdf,2022-05-11_21h24.38.230,classification_task,2021.2.3,Win32,59.07372401,627c6715c52fd12f31907bd0,,,,,,,,,,,,,,,,,,,,,,,a,1,1.6089,"[""0.303"",""0.076"",""0.829"",""0.867""]","[1,0,1,1]",0,15,15,15,1,0,1,,,1,FALSE,,,,,,,,,,,,,,,,,,,,,,,,,,,,,,,
,613f79a17525776c2cbc04a6,627c6fbf8453bbb11a714fdf,2022-05-11_21h24.38.230,classification_task,2021.2.3,Win32,59.07372401,627c6715c52fd12f31907bd0,,,,,,,,,,,,,,,,,,,,,,,l,0,1.5918,"[""0.155"",""0.544"",""0.829"",""0.867""]","[0,1,1,1]",0,16,16,16,1,0,1,,,1,FALSE,,,,,,,,,,,,,,,,,,,,,,,,,,,,,,,
,613f79a17525776c2cbc04a6,627c6fbf8453bbb11a714fdf,2022-05-11_21h24.38.230,classification_task,2021.2.3,Win32,59.07372401,627c6715c52fd12f31907bd0,,,,,,,,,,,,,,,,,,,,,,,l,1,1.6711,"[""0.340"",""0.411"",""0.643"",""0.686""]","[0,1,1,1]",0,17,17,17,1,1,1,,,1,FALSE,,,,,,,,,,,,,,,,,,,,,,,,,,,,,,,
,613f79a17525776c2cbc04a6,627c6fbf8453bbb11a714fdf,2022-05-11_21h24.38.230,classification_task,2021.2.3,Win32,59.07372401,627c6715c52fd12f31907bd0,,,,,,,,,,,,,,,,,,,,,,,a,1,1.8335,"[""0.303"",""0.544"",""0.829"",""0.354""]","[1,1,1,0]",0,18,18,18,1,0,1,,,1,FALSE,,,,,,,,,,,,,,,,,,,,,,,,,,,,,,,
,613f79a17525776c2cbc04a6,627c6fbf8453bbb11a714fdf,2022-05-11_21h24.38.230,classification_task,2021.2.3,Win32,59.07372401,627c6715c52fd12f31907bd0,,,,,,,,,,,,,,,,,,,,,,,a,1,1.9039,"[""0.357"",""0.445"",""0.926"",""0.963""]","[0,1,1,1]",0,19,19,19,1,0,0,,,1,FALSE,,,,,,,,,,,,,,,,,,,,,,,,,,,,,,,
,613f79a17525776c2cbc04a6,627c6fbf8453bbb11a714fdf,2022-05-11_21h24.38.230,classification_task,2021.2.3,Win32,59.07372401,627c6715c52fd12f31907bd0,,,,,,,,,,,,,,,,,,,,,,,a,1,2.9631,"[""0.303"",""0.544"",""0.165"",""0.867""]","[1,1,0,1]",0,20,20,20,1,0,1,,,1,FALSE,,,,,,,,,,,,,,,,,,,,,,,,,,,,,,,
,613f79a17525776c2cbc04a6,627c6fbf8453bbb11a714fdf,2022-05-11_21h24.38.230,classification_task,2021.2.3,Win32,59.07372401,627c6715c52fd12f31907bd0,,,,,,,,,,,,,,,,,,,,,,,l,1,1.9371,"[""0.032"",""0.250"",""0.505"",""0.357""]","[1,1,1,0]",0,21,21,21,1,1,0,,,1,FALSE,,,,,,,,,,,,,,,,,,,,,,,,,,,,,,,
,613f79a17525776c2cbc04a6,627c6fbf8453bbb11a714fdf,2022-05-11_21h24.38.230,classification_task,2021.2.3,Win32,59.07372401,627c6715c52fd12f31907bd0,,,,,,,,,,,,,,,,,,,,,,,a,1,2.0712,"[""0.303"",""0.155"",""0.829"",""0.867""]","[1,0,1,1]",0,22,22,22,1,0,1,,,1,FALSE,,,,,,,,,,,,,,,,,,,,,,,,,,,,,,,
,613f79a17525776c2cbc04a6,627c6fbf8453bbb11a714fdf,2022-05-11_21h24.38.230,classification_task,2021.2.3,Win32,59.07372401,627c6715c52fd12f31907bd0,,,,,,,,,,,,,,,,,,,,,,,l,1,1.5295,"[""0.032"",""0.250"",""0.160"",""0.743""]","[1,1,0,1]",0,23,23,23,1,1,0,,,1,FALSE,,,,,,,,,,,,,,,,,,,,,,,,,,,,,,,
,613f79a17525776c2cbc04a6,627c6fbf8453bbb11a714fdf,2022-05-11_21h24.38.230,classification_task,2021.2.3,Win32,59.07372401,627c6715c52fd12f31907bd0,,,,,,,,,,,,,,,,,,,,,,,a,1,1.8998,"[""0.199"",""0.084"",""0.926"",""0.963""]","[1,0,1,1]",0,24,24,24,1,0,0,,,1,FALSE,,,,,,,,,,,,,,,,,,,,,,,,,,,,,,,
,613f79a17525776c2cbc04a6,627c6fbf8453bbb11a714fdf,2022-05-11_21h24.38.230,classification_task,2021.2.3,Win32,59.07372401,627c6715c52fd12f31907bd0,,,,,,,,,,,,,,,,,,,,,,,l,1,1.597,"[""0.117"",""0.593"",""0.643"",""0.686""]","[1,0,1,1]",0,25,25,25,1,1,1,,,1,FALSE,,,,,,,,,,,,,,,,,,,,,,,,,,,,,,,
,613f79a17525776c2cbc04a6,627c6fbf8453bbb11a714fdf,2022-05-11_21h24.38.230,classification_task,2021.2.3,Win32,59.07372401,627c6715c52fd12f31907bd0,,,,,,,,,,,,,,,,,,,,,,,l,0,1.6989,"[""0.199"",""0.445"",""0.354"",""0.963""]","[1,1,0,1]",0,26,26,26,1,0,0,,,1,FALSE,,,,,,,,,,,,,,,,,,,,,,,,,,,,,,,
,613f79a17525776c2cbc04a6,627c6fbf8453bbb11a714fdf,2022-05-11_21h24.38.230,classification_task,2021.2.3,Win32,59.07372401,627c6715c52fd12f31907bd0,,,,,,,,,,,,,,,,,,,,,,,l,0,1.6665,"[""0.199"",""0.445"",""0.926"",""0.608""]","[1,1,1,0]",0,27,27,27,1,0,0,,,1,FALSE,,,,,,,,,,,,,,,,,,,,,,,,,,,,,,,
,613f79a17525776c2cbc04a6,627c6fbf8453bbb11a714fdf,2022-05-11_21h24.38.230,classification_task,2021.2.3,Win32,59.07372401,627c6715c52fd12f31907bd0,,,,,,,,,,,,,,,,,,,,,,,l,1,2.0641,"[""0.117"",""0.411"",""0.590"",""0.686""]","[1,1,0,1]",0,28,28,28,1,1,1,,,1,FALSE,,,,,,,,,,,,,,,,,,,,,,,,,,,,,,,
,613f79a17525776c2cbc04a6,627c6fbf8453bbb11a714fdf,2022-05-11_21h24.38.230,classification_task,2021.2.3,Win32,59.07372401,627c6715c52fd12f31907bd0,,,,,,,,,,,,,,,,,,,,,,,a,0,1.2506,"[""0.117"",""0.411"",""0.643"",""0.351""]","[1,1,1,0]",0,29,29,29,1,1,1,,,1,FALSE,,,,,,,,,,,,,,,,,,,,,,,,,,,,,,,
,613f79a17525776c2cbc04a6,627c6fbf8453bbb11a714fdf,2022-05-11_21h24.38.230,classification_task,2021.2.3,Win32,59.07372401,627c6715c52fd12f31907bd0,,,,,,,,,,,,,,,,,,,,,,,l,1,1.3801,"[""0.351"",""0.250"",""0.505"",""0.743""]","[0,1,1,1]",0,30,30,30,1,1,0,,,1,FALSE,,,,,,,,,,,,,,,,,,,,,,,,,,,,,,,
,613f79a17525776c2cbc04a6,627c6fbf8453bbb11a714fdf,2022-05-11_21h24.38.230,classification_task,2021.2.3,Win32,59.07372401,627c6715c52fd12f31907bd0,,,,,,,,,,,,,,,,,,,,,,,l,1,1.3671,"[""0.032"",""0.354"",""0.505"",""0.743""]","[1,0,1,1]",0,31,31,31,1,1,0,,,1,FALSE,,,,,,,,,,,,,,,,,,,,,,,,,,,,,,,
,613f79a17525776c2cbc04a6,627c6fbf8453bbb11a714fdf,2022-05-11_21h24.38.230,classification_task,2021.2.3,Win32,59.07372401,627c6715c52fd12f31907bd0,,,,,,,,,,,,,,,,,,,,,,,a,1,1.5156,"[""0.199"",""0.445"",""0.165"",""0.963""]","[1,1,0,1]",0,32,32,32,1,0,0,,,1,FALSE,,,,,,,,,,,,,,,,,,,,,,,,,,,,,,,
,613f79a17525776c2cbc04a6,627c6fbf8453bbb11a714fdf,2022-05-11_21h24.38.230,classification_task,2021.2.3,Win32,59.07372401,627c6715c52fd12f31907bd0,,,,,,,,,,,,,,,,,,,,,,,a,1,1.6502,"[""0.354"",""0.445"",""0.926"",""0.963""]","[0,1,1,1]",0,33,33,33,1,0,0,,,1,FALSE,,,,,,,,,,,,,,,,,,,,,,,,,,,,,,,
,613f79a17525776c2cbc04a6,627c6fbf8453bbb11a714fdf,2022-05-11_21h24.38.230,classification_task,2021.2.3,Win32,59.07372401,627c6715c52fd12f31907bd0,,,,,,,,,,,,,,,,,,,,,,,l,0,1.6662,"[""0.303"",""0.354"",""0.829"",""0.867""]","[1,0,1,1]",0,34,34,34,1,0,1,,,1,FALSE,,,,,,,,,,,,,,,,,,,,,,,,,,,,,,,
,613f79a17525776c2cbc04a6,627c6fbf8453bbb11a714fdf,2022-05-11_21h24.38.230,classification_task,2021.2.3,Win32,59.07372401,627c6715c52fd12f31907bd0,,,,,,,,,,,,,,,,,,,,,,,a,1,2.3683,"[""0.303"",""0.544"",""0.829"",""0.376""]","[1,1,1,0]",0,35,35,35,1,0,1,,,1,FALSE,,,,,,,,,,,,,,,,,,,,,,,,,,,,,,,
,613f79a17525776c2cbc04a6,627c6fbf8453bbb11a714fdf,2022-05-11_21h24.38.230,classification_task,2021.2.3,Win32,59.07372401,627c6715c52fd12f31907bd0,,,,,,,,,,,,,,,,,,,,,,,l,0,2.2819,"[""0.303"",""0.544"",""0.076"",""0.867""]","[1,1,0,1]",0,36,36,36,1,0,1,,,1,FALSE,,,,,,,,,,,,,,,,,,,,,,,,,,,,,,,
,613f79a17525776c2cbc04a6,627c6fbf8453bbb11a714fdf,2022-05-11_21h24.38.230,classification_task,2021.2.3,Win32,59.07372401,627c6715c52fd12f31907bd0,,,,,,,,,,,,,,,,,,,,,,,a,0,1.7838,"[""0.117"",""0.411"",""0.165"",""0.686""]","[1,1,0,1]",0,37,37,37,1,1,1,,,1,FALSE,,,,,,,,,,,,,,,,,,,,,,,,,,,,,,,
,613f79a17525776c2cbc04a6,627c6fbf8453bbb11a714fdf,2022-05-11_21h24.38.230,classification_task,2021.2.3,Win32,59.07372401,627c6715c52fd12f31907bd0,,,,,,,,,,,,,,,,,,,,,,,l,1,2.6697,"[""0.593"",""0.250"",""0.505"",""0.743""]","[0,1,1,1]",0,38,38,38,1,1,0,,,1,FALSE,,,,,,,,,,,,,,,,,,,,,,,,,,,,,,,
,613f79a17525776c2cbc04a6,627c6fbf8453bbb11a714fdf,2022-05-11_21h24.38.230,classification_task,2021.2.3,Win32,59.07372401,627c6715c52fd12f31907bd0,,,,,,,,,,,,,,,,,,,,,,,a,0,1.7503,"[""0.117"",""0.411"",""0.643"",""0.084""]","[1,1,1,0]",0,39,39,39,1,1,1,,,1,FALSE,,,,,,,,,,,,,,,,,,,,,,,,,,,,,,,
,613f79a17525776c2cbc04a6,627c6fbf8453bbb11a714fdf,2022-05-11_21h24.38.230,classification_task,2021.2.3,Win32,59.07372401,627c6715c52fd12f31907bd0,,,,,,,,,,,,,,,,,,,,,,,a,1,1.5575,"[""0.199"",""0.351"",""0.926"",""0.963""]","[1,0,1,1]",0,40,40,40,1,0,0,,,1,FALSE,,,,,,,,,,,,,,,,,,,,,,,,,,,,,,,
,613f79a17525776c2cbc04a6,627c6fbf8453bbb11a714fdf,2022-05-11_21h24.38.230,classification_task,2021.2.3,Win32,59.07372401,627c6715c52fd12f31907bd0,,,,,,,,,,,,,,,,,,,,,,,l,1,1.0871,"[""0.032"",""0.250"",""0.505"",""0.340""]","[1,1,1,0]",0,41,41,41,1,1,0,,,1,FALSE,,,,,,,,,,,,,,,,,,,,,,,,,,,,,,,
,613f79a17525776c2cbc04a6,627c6fbf8453bbb11a714fdf,2022-05-11_21h24.38.230,classification_task,2021.2.3,Win32,59.07372401,627c6715c52fd12f31907bd0,,,,,,,,,,,,,,,,,,,,,,,a,0,2.2346,"[""0.032"",""0.250"",""0.076"",""0.743""]","[1,1,0,1]",0,42,42,42,1,1,0,,,1,FALSE,,,,,,,,,,,,,,,,,,,,,,,,,,,,,,,
,613f79a17525776c2cbc04a6,627c6fbf8453bbb11a714fdf,2022-05-11_21h24.38.230,classification_task,2021.2.3,Win32,59.07372401,627c6715c52fd12f31907bd0,,,,,,,,,,,,,,,,,,,,,,,a,0,1.2409,"[""0.351"",""0.411"",""0.643"",""0.686""]","[0,1,1,1]",0,43,43,43,1,1,1,,,1,FALSE,,,,,,,,,,,,,,,,,,,,,,,,,,,,,,,
,613f79a17525776c2cbc04a6,627c6fbf8453bbb11a714fdf,2022-05-11_21h24.38.230,classification_task,2021.2.3,Win32,59.07372401,627c6715c52fd12f31907bd0,,,,,,,,,,,,,,,,,,,,,,,a,1,1.116,"[""0.354"",""0.544"",""0.829"",""0.867""]","[0,1,1,1]",0,44,44,44,1,0,1,,,1,FALSE,,,,,,,,,,,,,,,,,,,,,,,,,,,,,,,
,613f79a17525776c2cbc04a6,627c6fbf8453bbb11a714fdf,2022-05-11_21h24.38.230,classification_task,2021.2.3,Win32,59.07372401,627c6715c52fd12f31907bd0,,,,,,,,,,,,,,,,,,,,,,,l,1,1.6685,"[""0.032"",""0.354"",""0.505"",""0.743""]","[1,0,1,1]",0,45,45,45,1,1,0,,,1,FALSE,,,,,,,,,,,,,,,,,,,,,,,,,,,,,,,
,613f79a17525776c2cbc04a6,627c6fbf8453bbb11a714fdf,2022-05-11_21h24.38.230,classification_task,2021.2.3,Win32,59.07372401,627c6715c52fd12f31907bd0,,,,,,,,,,,,,,,,,,,,,,,l,1,1.101,"[""0.117"",""0.608"",""0.643"",""0.686""]","[1,0,1,1]",0,46,46,46,1,1,1,,,1,FALSE,,,,,,,,,,,,,,,,,,,,,,,,,,,,,,,
,613f79a17525776c2cbc04a6,627c6fbf8453bbb11a714fdf,2022-05-11_21h24.38.230,classification_task,2021.2.3,Win32,59.07372401,627c6715c52fd12f31907bd0,,,,,,,,,,,,,,,,,,,,,,,l,0,2.4328,"[""0.199"",""0.445"",""0.926"",""0.590""]","[1,1,1,0]",0,47,47,47,1,0,0,,,1,FALSE,,,,,,,,,,,,,,,,,,,,,,,,,,,,,,,
,613f79a17525776c2cbc04a6,627c6fbf8453bbb11a714fdf,2022-05-11_21h24.38.230,classification_task,2021.2.3,Win32,59.07372401,627c6715c52fd12f31907bd0,,,,,,,,,,,,,,,,,,,,,,,a,1,1.4244,"[""0.303"",""0.589"",""0.829"",""0.867""]","[1,0,1,1]",0,48,48,48,1,0,1,,,1,FALSE,,,,,,,,,,,,,,,,,,,,,,,,,,,,,,,
,613f79a17525776c2cbc04a6,627c6fbf8453bbb11a714fdf,2022-05-11_21h24.38.230,classification_task,2021.2.3,Win32,59.07372401,627c6715c52fd12f31907bd0,,,,,,,,,,,,,,,,,,,,,,,a,1,1.8669,"[""0.303"",""0.544"",""0.354"",""0.867""]","[1,1,0,1]",0,49,49,49,1,0,1,,,1,FALSE,,,,,,,,,,,,,,,,,,,,,,,,,,,,,,,
,613f79a17525776c2cbc04a6,627c6fbf8453bbb11a714fdf,2022-05-11_21h24.38.230,classification_task,2021.2.3,Win32,59.07372401,627c6715c52fd12f31907bd0,,,,,,,,,,,,,,,,,,,,,,,l,0,1.724,"[""0.199"",""0.445"",""0.926"",""0.593""]","[1,1,1,0]",0,50,50,50,1,0,0,,,1,FALSE,,,,,,,,,,,,,,,,,,,,,,,,,,,,,,,
,613f79a17525776c2cbc04a6,627c6fbf8453bbb11a714fdf,2022-05-11_21h24.38.230,classification_task,2021.2.3,Win32,59.07372401,627c6715c52fd12f31907bd0,,,,,,,,,,,,,,,,,,,,,,,a,0,1.5334,"[""0.117"",""0.411"",""0.643"",""0.165""]","[1,1,1,0]",0,51,51,51,1,1,1,,,1,FALSE,,,,,,,,,,,,,,,,,,,,,,,,,,,,,,,
,613f79a17525776c2cbc04a6,627c6fbf8453bbb11a714fdf,2022-05-11_21h24.38.230,classification_task,2021.2.3,Win32,59.07372401,627c6715c52fd12f31907bd0,,,,,,,,,,,,,,,,,,,,,,,l,1,1.1505,"[""0.354"",""0.411"",""0.643"",""0.686""]","[0,1,1,1]",0,52,52,52,1,1,1,,,1,FALSE,,,,,,,,,,,,,,,,,,,,,,,,,,,,,,,
,613f79a17525776c2cbc04a6,627c6fbf8453bbb11a714fdf,2022-05-11_21h24.38.230,classification_task,2021.2.3,Win32,59.07372401,627c6715c52fd12f31907bd0,,,,,,,,,,,,,,,,,,,,,,,l,1,1.6827,"[""0.032"",""0.250"",""0.593"",""0.743""]","[1,1,0,1]",0,53,53,53,1,1,0,,,1,FALSE,,,,,,,,,,,,,,,,,,,,,,,,,,,,,,,
,613f79a17525776c2cbc04a6,627c6fbf8453bbb11a714fdf,2022-05-11_21h24.38.230,classification_task,2021.2.3,Win32,59.07372401,627c6715c52fd12f31907bd0,,,,,,,,,,,,,,,,,,,,,,,l,1,1.1505,"[""0.117"",""0.084"",""0.643"",""0.686""]","[1,0,1,1]",0,54,54,54,1,1,1,,,1,FALSE,,,,,,,,,,,,,,,,,,,,,,,,,,,,,,,
,613f79a17525776c2cbc04a6,627c6fbf8453bbb11a714fdf,2022-05-11_21h24.38.230,classification_task,2021.2.3,Win32,59.07372401,627c6715c52fd12f31907bd0,,,,,,,,,,,,,,,,,,,,,,,a,1,3.2673,"[""0.357"",""0.544"",""0.829"",""0.867""]","[0,1,1,1]",0,55,55,55,1,0,1,,,1,FALSE,,,,,,,,,,,,,,,,,,,,,,,,,,,,,,,
,613f79a17525776c2cbc04a6,627c6fbf8453bbb11a714fdf,2022-05-11_21h24.38.230,classification_task,2021.2.3,Win32,59.07372401,627c6715c52fd12f31907bd0,,,,,,,,,,,,,,,,,,,,,,,a,1,1.6003,"[""0.076"",""0.445"",""0.926"",""0.963""]","[0,1,1,1]",0,56,56,56,1,0,0,,,1,FALSE,,,,,,,,,,,,,,,,,,,,,,,,,,,,,,,
,613f79a17525776c2cbc04a6,627c6fbf8453bbb11a714fdf,2022-05-11_21h24.38.230,classification_task,2021.2.3,Win32,59.07372401,627c6715c52fd12f31907bd0,,,,,,,,,,,,,,,,,,,,,,,a,1,1.3505,"[""0.199"",""0.357"",""0.926"",""0.963""]","[1,0,1,1]",0,57,57,57,1,0,0,,,1,FALSE,,,,,,,,,,,,,,,,,,,,,,,,,,,,,,,
,613f79a17525776c2cbc04a6,627c6fbf8453bbb11a714fdf,2022-05-11_21h24.38.230,classification_task,2021.2.3,Win32,59.07372401,627c6715c52fd12f31907bd0,,,,,,,,,,,,,,,,,,,,,,,l,1,1.0837,"[""0.032"",""0.250"",""0.505"",""0.165""]","[1,1,1,0]",0,58,58,58,1,1,0,,,1,FALSE,,,,,,,,,,,,,,,,,,,,,,,,,,,,,,,
,613f79a17525776c2cbc04a6,627c6fbf8453bbb11a714fdf,2022-05-11_21h24.38.230,classification_task,2021.2.3,Win32,59.07372401,627c6715c52fd12f31907bd0,,,,,,,,,,,,,,,,,,,,,,,a,0,1.5834,"[""0.117"",""0.411"",""0.354"",""0.686""]","[1,1,0,1]",0,59,59,59,1,1,1,,,1,FALSE,,,,,,,,,,,,,,,,,,,,,,,,,,,,,,,
,613f79a17525776c2cbc04a6,627c6fbf8453bbb11a714fdf,2022-05-11_21h24.38.230,classification_task,2021.2.3,Win32,59.07372401,627c6715c52fd12f31907bd0,,,,,,,,,,,,,,,,,,,,,,,l,1,1.9173,"[""0.032"",""0.346"",""0.505"",""0.743""]","[1,0,1,1]",0,60,60,60,1,1,0,,,1,FALSE,,,,,,,,,,,,,,,,,,,,,,,,,,,,,,,
,613f79a17525776c2cbc04a6,627c6fbf8453bbb11a714fdf,2022-05-11_21h24.38.230,classification_task,2021.2.3,Win32,59.07372401,627c6715c52fd12f31907bd0,,,,,,,,,,,,,,,,,,,,,,,a,0,1.6515,"[""0.155"",""0.250"",""0.505"",""0.743""]","[0,1,1,1]",0,61,61,61,1,1,0,,,1,FALSE,,,,,,,,,,,,,,,,,,,,,,,,,,,,,,,
,613f79a17525776c2cbc04a6,627c6fbf8453bbb11a714fdf,2022-05-11_21h24.38.230,classification_task,2021.2.3,Win32,59.07372401,627c6715c52fd12f31907bd0,,,,,,,,,,,,,,,,,,,,,,,l,0,1.0252,"[""0.199"",""0.445"",""0.351"",""0.963""]","[1,1,0,1]",0,62,62,62,1,0,0,,,1,FALSE,,,,,,,,,,,,,,,,,,,,,,,,,,,,,,,
,613f79a17525776c2cbc04a6,627c6fbf8453bbb11a714fdf,2022-05-11_21h24.38.230,classification_task,2021.2.3,Win32,59.07372401,627c6715c52fd12f31907bd0,,,,,,,,,,,,,,,,,,,,,,,a,1,1.367,"[""0.303"",""0.544"",""0.829"",""0.590""]","[1,1,1,0]",0,63,63,63,1,0,1,,,1,FALSE,,,,,,,,,,,,,,,,,,,,,,,,,,,,,,,
,613f79a17525776c2cbc04a6,627c6fbf8453bbb11a714fdf,2022-05-11_21h24.38.230,classification_task,2021.2.3,Win32,59.07372401,627c6715c52fd12f31907bd0,,,,,,,,,,,,,,,,,,,,,,,,,,,,,,,,,,,,,,,0, ,,0,2.347608025,381.4235,0,0,0,0,1,2,1,,,,,,,,,,,,,,,,,,
,613f79a17525776c2cbc04a6,627c6fbf8453bbb11a714fdf,2022-05-11_21h24.38.230,classification_task,2021.2.3,Win32,59.07372401,627c6715c52fd12f31907bd0,,,,,,,,,,,,,,,,,,,,,,,,,,,,,,,,,,,,,,,1,  ,,0,9.064704586,371.8099,0,0,0,0,1,2,1,,,,,,,,,,,,,,,,,,
,613f79a17525776c2cbc04a6,627c6fbf8453bbb11a714fdf,2022-05-11_21h24.38.230,classification_task,2021.2.3,Win32,59.07372401,627c6715c52fd12f31907bd0,,,,,,,,,,,,,,,,,,,,,,,,,,,,,,,,,,,,,,,2,  ,,0,8.341324956,389.3602,0,0,0,0,1,2,1,,,,,,,,,,,,,,,,,,
,613f79a17525776c2cbc04a6,627c6fbf8453bbb11a714fdf,2022-05-11_21h24.38.230,classification_task,2021.2.3,Win32,59.07372401,627c6715c52fd12f31907bd0,,,,,,,,,,,,,,,,,,,,,,,,,,,,,,,,,,,,,,,,,,,,,0,0,0,0,1,,1,,,,,,,,,,,,,,,,,,
,613f79a17525776c2cbc04a6,627c6fbf8453bbb11a714fdf,2022-05-11_21h24.38.230,classification_task,2021.2.3,Win32,59.07372401,627c6715c52fd12f31907bd0,,,,,,,,,,,,,,,,,,,,,space,14.0464,a,0,5.2662,"[""0.117"",""0.354"",""0.643"",""0.686""]","[1,0,1,1]",0,0,0,0,1,1,1,,,1,FALSE,,,,,,,,,,,,,,,,,,,,,,,,,,,,,,,
,613f79a17525776c2cbc04a6,627c6fbf8453bbb11a714fdf,2022-05-11_21h24.38.230,classification_task,2021.2.3,Win32,59.07372401,627c6715c52fd12f31907bd0,,,,,,,,,,,,,,,,,,,,,,,a,1,2.9746,"[""0.303"",""0.544"",""0.160"",""0.867""]","[1,1,0,1]",0,1,1,1,1,0,1,,,1,FALSE,,,,,,,,,,,,,,,,,,,,,,,,,,,,,,,
,613f79a17525776c2cbc04a6,627c6fbf8453bbb11a714fdf,2022-05-11_21h24.38.230,classification_task,2021.2.3,Win32,59.07372401,627c6715c52fd12f31907bd0,,,,,,,,,,,,,,,,,,,,,,,a,1,2.2092,"[""0.303"",""0.165"",""0.829"",""0.867""]","[1,0,1,1]",0,2,2,2,1,0,1,,,1,FALSE,,,,,,,,,,,,,,,,,,,,,,,,,,,,,,,
,613f79a17525776c2cbc04a6,627c6fbf8453bbb11a714fdf,2022-05-11_21h24.38.230,classification_task,2021.2.3,Win32,59.07372401,627c6715c52fd12f31907bd0,,,,,,,,,,,,,,,,,,,,,,,a,1,2.3365,"[""0.084"",""0.544"",""0.829"",""0.867""]","[0,1,1,1]",0,3,3,3,1,0,1,,,1,FALSE,,,,,,,,,,,,,,,,,,,,,,,,,,,,,,,
,613f79a17525776c2cbc04a6,627c6fbf8453bbb11a714fdf,2022-05-11_21h24.38.230,classification_task,2021.2.3,Win32,59.07372401,627c6715c52fd12f31907bd0,,,,,,,,,,,,,,,,,,,,,,,l,0,1.541,"[""0.199"",""0.445"",""0.084"",""0.963""]","[1,1,0,1]",0,4,4,4,1,0,0,,,1,FALSE,,,,,,,,,,,,,,,,,,,,,,,,,,,,,,,
,613f79a17525776c2cbc04a6,627c6fbf8453bbb11a714fdf,2022-05-11_21h24.38.230,classification_task,2021.2.3,Win32,59.07372401,627c6715c52fd12f31907bd0,,,,,,,,,,,,,,,,,,,,,,,l,1,2.8836,"[""0.032"",""0.250"",""0.376"",""0.743""]","[1,1,0,1]",0,5,5,5,1,1,0,,,1,FALSE,,,,,,,,,,,,,,,,,,,,,,,,,,,,,,,
,613f79a17525776c2cbc04a6,627c6fbf8453bbb11a714fdf,2022-05-11_21h24.38.230,classification_task,2021.2.3,Win32,59.07372401,627c6715c52fd12f31907bd0,,,,,,,,,,,,,,,,,,,,,,,a,1,1.2583,"[""0.354"",""0.445"",""0.926"",""0.963""]","[0,1,1,1]",0,6,6,6,1,0,0,,,1,FALSE,,,,,,,,,,,,,,,,,,,,,,,,,,,,,,,
,613f79a17525776c2cbc04a6,627c6fbf8453bbb11a714fdf,2022-05-11_21h24.38.230,classification_task,2021.2.3,Win32,59.07372401,627c6715c52fd12f31907bd0,,,,,,,,,,,,,,,,,,,,,,,a,0,1.8005,"[""0.117"",""0.411"",""0.643"",""0.351""]","[1,1,1,0]",0,7,7,7,1,1,1,,,1,FALSE,,,,,,,,,,,,,,,,,,,,,,,,,,,,,,,
,613f79a17525776c2cbc04a6,627c6fbf8453bbb11a714fdf,2022-05-11_21h24.38.230,classification_task,2021.2.3,Win32,59.07372401,627c6715c52fd12f31907bd0,,,,,,,,,,,,,,,,,,,,,,,l,1,1.3742,"[""0.340"",""0.250"",""0.505"",""0.743""]","[0,1,1,1]",0,8,8,8,1,1,0,,,1,FALSE,,,,,,,,,,,,,,,,,,,,,,,,,,,,,,,
,613f79a17525776c2cbc04a6,627c6fbf8453bbb11a714fdf,2022-05-11_21h24.38.230,classification_task,2021.2.3,Win32,59.07372401,627c6715c52fd12f31907bd0,,,,,,,,,,,,,,,,,,,,,,,a,1,1.0329,"[""0.303"",""0.544"",""0.829"",""0.076""]","[1,1,1,0]",0,9,9,9,1,0,1,,,1,FALSE,,,,,,,,,,,,,,,,,,,,,,,,,,,,,,,
,613f79a17525776c2cbc04a6,627c6fbf8453bbb11a714fdf,2022-05-11_21h24.38.230,classification_task,2021.2.3,Win32,59.07372401,627c6715c52fd12f31907bd0,,,,,,,,,,,,,,,,,,,,,,,l,1,1.3008,"[""0.032"",""0.165"",""0.505"",""0.743""]","[1,0,1,1]",0,10,10,10,1,1,0,,,1,FALSE,,,,,,,,,,,,,,,,,,,,,,,,,,,,,,,
,613f79a17525776c2cbc04a6,627c6fbf8453bbb11a714fdf,2022-05-11_21h24.38.230,classification_task,2021.2.3,Win32,59.07372401,627c6715c52fd12f31907bd0,,,,,,,,,,,,,,,,,,,,,,,a,0,1.5167,"[""0.346"",""0.411"",""0.643"",""0.686""]","[0,1,1,1]",0,11,11,11,1,1,1,,,1,FALSE,,,,,,,,,,,,,,,,,,,,,,,,,,,,,,,
,613f79a17525776c2cbc04a6,627c6fbf8453bbb11a714fdf,2022-05-11_21h24.38.230,classification_task,2021.2.3,Win32,59.07372401,627c6715c52fd12f31907bd0,,,,,,,,,,,,,,,,,,,,,,,a,1,1.5504,"[""0.199"",""0.076"",""0.926"",""0.963""]","[1,0,1,1]",0,12,12,12,1,0,0,,,1,FALSE,,,,,,,,,,,,,,,,,,,,,,,,,,,,,,,
,613f79a17525776c2cbc04a6,627c6fbf8453bbb11a714fdf,2022-05-11_21h24.38.230,classification_task,2021.2.3,Win32,59.07372401,627c6715c52fd12f31907bd0,,,,,,,,,,,,,,,,,,,,,,,a,0,1.4916,"[""0.117"",""0.411"",""0.076"",""0.686""]","[1,1,0,1]",0,13,13,13,1,1,1,,,1,FALSE,,,,,,,,,,,,,,,,,,,,,,,,,,,,,,,
,613f79a17525776c2cbc04a6,627c6fbf8453bbb11a714fdf,2022-05-11_21h24.38.230,classification_task,2021.2.3,Win32,59.07372401,627c6715c52fd12f31907bd0,,,,,,,,,,,,,,,,,,,,,,,l,0,1.4502,"[""0.199"",""0.445"",""0.926"",""0.590""]","[1,1,1,0]",0,14,14,14,1,0,0,,,1,FALSE,,,,,,,,,,,,,,,,,,,,,,,,,,,,,,,
,613f79a17525776c2cbc04a6,627c6fbf8453bbb11a714fdf,2022-05-11_21h24.38.230,classification_task,2021.2.3,Win32,59.07372401,627c6715c52fd12f31907bd0,,,,,,,,,,,,,,,,,,,,,,,l,1,1.2172,"[""0.032"",""0.250"",""0.505"",""0.351""]","[1,1,1,0]",0,15,15,15,1,1,0,,,1,FALSE,,,,,,,,,,,,,,,,,,,,,,,,,,,,,,,
,613f79a17525776c2cbc04a6,627c6fbf8453bbb11a714fdf,2022-05-11_21h24.38.230,classification_task,2021.2.3,Win32,59.07372401,627c6715c52fd12f31907bd0,,,,,,,,,,,,,,,,,,,,,,,a,1,1.1148,"[""0.340"",""0.544"",""0.829"",""0.867""]","[0,1,1,1]",0,16,16,16,1,0,1,,,1,FALSE,,,,,,,,,,,,,,,,,,,,,,,,,,,,,,,
,613f79a17525776c2cbc04a6,627c6fbf8453bbb11a714fdf,2022-05-11_21h24.38.230,classification_task,2021.2.3,Win32,59.07372401,627c6715c52fd12f31907bd0,,,,,,,,,,,,,,,,,,,,,,,l,0,1.317,"[""0.199"",""0.445"",""0.608"",""0.963""]","[1,1,0,1]",0,17,17,17,1,0,0,,,1,FALSE,,,,,,,,,,,,,,,,,,,,,,,,,,,,,,,
,613f79a17525776c2cbc04a6,627c6fbf8453bbb11a714fdf,2022-05-11_21h24.38.230,classification_task,2021.2.3,Win32,59.07372401,627c6715c52fd12f31907bd0,,,,,,,,,,,,,,,,,,,,,,,l,1,1.7522,"[""0.032"",""0.250"",""0.505"",""0.155""]","[1,1,1,0]",0,18,18,18,1,1,0,,,1,FALSE,,,,,,,,,,,,,,,,,,,,,,,,,,,,,,,
,613f79a17525776c2cbc04a6,627c6fbf8453bbb11a714fdf,2022-05-11_21h24.38.230,classification_task,2021.2.3,Win32,59.07372401,627c6715c52fd12f31907bd0,,,,,,,,,,,,,,,,,,,,,,,a,1,1.141,"[""0.303"",""0.544"",""0.829"",""0.593""]","[1,1,1,0]",0,19,19,19,1,0,1,,,1,FALSE,,,,,,,,,,,,,,,,,,,,,,,,,,,,,,,
,613f79a17525776c2cbc04a6,627c6fbf8453bbb11a714fdf,2022-05-11_21h24.38.230,classification_task,2021.2.3,Win32,59.07372401,627c6715c52fd12f31907bd0,,,,,,,,,,,,,,,,,,,,,,,l,1,0.4342,"[""0.032"",""0.250"",""0.165"",""0.743""]","[1,1,0,1]",0,20,20,20,1,1,0,,,1,FALSE,,,,,,,,,,,,,,,,,,,,,,,,,,,,,,,
,613f79a17525776c2cbc04a6,627c6fbf8453bbb11a714fdf,2022-05-11_21h24.38.230,classification_task,2021.2.3,Win32,59.07372401,627c6715c52fd12f31907bd0,,,,,,,,,,,,,,,,,,,,,,,l,0,2.5498,"[""0.303"",""0.544"",""0.357"",""0.867""]","[1,1,0,1]",0,21,21,21,1,0,1,,,1,FALSE,,,,,,,,,,,,,,,,,,,,,,,,,,,,,,,
,613f79a17525776c2cbc04a6,627c6fbf8453bbb11a714fdf,2022-05-11_21h24.38.230,classification_task,2021.2.3,Win32,59.07372401,627c6715c52fd12f31907bd0,,,,,,,,,,,,,,,,,,,,,,,l,0,1.2337,"[""0.199"",""0.445"",""0.926"",""0.589""]","[1,1,1,0]",0,22,22,22,1,0,0,,,1,FALSE,,,,,,,,,,,,,,,,,,,,,,,,,,,,,,,
,613f79a17525776c2cbc04a6,627c6fbf8453bbb11a714fdf,2022-05-11_21h24.38.230,classification_task,2021.2.3,Win32,59.07372401,627c6715c52fd12f31907bd0,,,,,,,,,,,,,,,,,,,,,,,a,1,0.7906,"[""0.199"",""0.165"",""0.926"",""0.963""]","[1,0,1,1]",0,23,23,23,1,0,0,,,1,FALSE,,,,,,,,,,,,,,,,,,,,,,,,,,,,,,,
,613f79a17525776c2cbc04a6,627c6fbf8453bbb11a714fdf,2022-05-11_21h24.38.230,classification_task,2021.2.3,Win32,59.07372401,627c6715c52fd12f31907bd0,,,,,,,,,,,,,,,,,,,,,,,a,0,1.3702,"[""0.117"",""0.354"",""0.643"",""0.686""]","[1,0,1,1]",0,24,24,24,1,1,1,,,1,FALSE,,,,,,,,,,,,,,,,,,,,,,,,,,,,,,,
,613f79a17525776c2cbc04a6,627c6fbf8453bbb11a714fdf,2022-05-11_21h24.38.230,classification_task,2021.2.3,Win32,59.07372401,627c6715c52fd12f31907bd0,,,,,,,,,,,,,,,,,,,,,,,a,1,1.0567,"[""0.354"",""0.445"",""0.926"",""0.963""]","[0,1,1,1]",0,25,25,25,1,0,0,,,1,FALSE,,,,,,,,,,,,,,,,,,,,,,,,,,,,,,,
,613f79a17525776c2cbc04a6,627c6fbf8453bbb11a714fdf,2022-05-11_21h24.38.230,classification_task,2021.2.3,Win32,59.07372401,627c6715c52fd12f31907bd0,,,,,,,,,,,,,,,,,,,,,,,l,1,0.9333,"[""0.032"",""0.346"",""0.505"",""0.743""]","[1,0,1,1]",0,26,26,26,1,1,0,,,1,FALSE,,,,,,,,,,,,,,,,,,,,,,,,,,,,,,,
,613f79a17525776c2cbc04a6,627c6fbf8453bbb11a714fdf,2022-05-11_21h24.38.230,classification_task,2021.2.3,Win32,59.07372401,627c6715c52fd12f31907bd0,,,,,,,,,,,,,,,,,,,,,,,l,1,2.2666,"[""0.590"",""0.411"",""0.643"",""0.686""]","[0,1,1,1]",0,27,27,27,1,1,1,,,1,FALSE,,,,,,,,,,,,,,,,,,,,,,,,,,,,,,,
,613f79a17525776c2cbc04a6,627c6fbf8453bbb11a714fdf,2022-05-11_21h24.38.230,classification_task,2021.2.3,Win32,59.07372401,627c6715c52fd12f31907bd0,,,,,,,,,,,,,,,,,,,,,,,l,1,1.4019,"[""0.608"",""0.250"",""0.505"",""0.743""]","[0,1,1,1]",0,28,28,28,1,1,0,,,1,FALSE,,,,,,,,,,,,,,,,,,,,,,,,,,,,,,,
,613f79a17525776c2cbc04a6,627c6fbf8453bbb11a714fdf,2022-05-11_21h24.38.230,classification_task,2021.2.3,Win32,59.07372401,627c6715c52fd12f31907bd0,,,,,,,,,,,,,,,,,,,,,,,a,0,1.124,"[""0.117"",""0.411"",""0.643"",""0.354""]","[1,1,1,0]",0,29,29,29,1,1,1,,,1,FALSE,,,,,,,,,,,,,,,,,,,,,,,,,,,,,,,
,613f79a17525776c2cbc04a6,627c6fbf8453bbb11a714fdf,2022-05-11_21h24.38.230,classification_task,2021.2.3,Win32,59.07372401,627c6715c52fd12f31907bd0,,,,,,,,,,,,,,,,,,,,,,,a,0,0.8007,"[""0.117"",""0.411"",""0.357"",""0.686""]","[1,1,0,1]",0,30,30,30,1,1,1,,,1,FALSE,,,,,,,,,,,,,,,,,,,,,,,,,,,,,,,
,613f79a17525776c2cbc04a6,627c6fbf8453bbb11a714fdf,2022-05-11_21h24.38.230,classification_task,2021.2.3,Win32,59.07372401,627c6715c52fd12f31907bd0,,,,,,,,,,,,,,,,,,,,,,,a,1,1.5843,"[""0.303"",""0.608"",""0.829"",""0.867""]","[1,0,1,1]",0,31,31,31,1,0,1,,,1,FALSE,,,,,,,,,,,,,,,,,,,,,,,,,,,,,,,
,613f79a17525776c2cbc04a6,627c6fbf8453bbb11a714fdf,2022-05-11_21h24.38.230,classification_task,2021.2.3,Win32,59.07372401,627c6715c52fd12f31907bd0,,,,,,,,,,,,,,,,,,,,,,,l,0,1.1242,"[""0.199"",""0.445"",""0.346"",""0.963""]","[1,1,0,1]",0,32,32,32,1,0,0,,,1,FALSE,,,,,,,,,,,,,,,,,,,,,,,,,,,,,,,
,613f79a17525776c2cbc04a6,627c6fbf8453bbb11a714fdf,2022-05-11_21h24.38.230,classification_task,2021.2.3,Win32,59.07372401,627c6715c52fd12f31907bd0,,,,,,,,,,,,,,,,,,,,,,,a,1,0.9503,"[""0.346"",""0.544"",""0.829"",""0.867""]","[0,1,1,1]",0,33,33,33,1,0,1,,,1,FALSE,,,,,,,,,,,,,,,,,,,,,,,,,,,,,,,
,613f79a17525776c2cbc04a6,627c6fbf8453bbb11a714fdf,2022-05-11_21h24.38.230,classification_task,2021.2.3,Win32,59.07372401,627c6715c52fd12f31907bd0,,,,,,,,,,,,,,,,,,,,,,,l,1,1.1657,"[""0.032"",""0.590"",""0.505"",""0.743""]","[1,0,1,1]",0,34,34,34,1,1,0,,,1,FALSE,,,,,,,,,,,,,,,,,,,,,,,,,,,,,,,
,613f79a17525776c2cbc04a6,627c6fbf8453bbb11a714fdf,2022-05-11_21h24.38.230,classification_task,2021.2.3,Win32,59.07372401,627c6715c52fd12f31907bd0,,,,,,,,,,,,,,,,,,,,,,,a,1,0.9038,"[""0.199"",""0.165"",""0.926"",""0.963""]","[1,0,1,1]",0,35,35,35,1,0,0,,,1,FALSE,,,,,,,,,,,,,,,,,,,,,,,,,,,,,,,
,613f79a17525776c2cbc04a6,627c6fbf8453bbb11a714fdf,2022-05-11_21h24.38.230,classification_task,2021.2.3,Win32,59.07372401,627c6715c52fd12f31907bd0,,,,,,,,,,,,,,,,,,,,,,,a,0,1.9334,"[""0.032"",""0.250"",""0.505"",""0.155""]","[1,1,1,0]",0,36,36,36,1,1,0,,,1,FALSE,,,,,,,,,,,,,,,,,,,,,,,,,,,,,,,
,613f79a17525776c2cbc04a6,627c6fbf8453bbb11a714fdf,2022-05-11_21h24.38.230,classification_task,2021.2.3,Win32,59.07372401,627c6715c52fd12f31907bd0,,,,,,,,,,,,,,,,,,,,,,,a,1,0.9175,"[""0.303"",""0.544"",""0.829"",""0.084""]","[1,1,1,0]",0,37,37,37,1,0,1,,,1,FALSE,,,,,,,,,,,,,,,,,,,,,,,,,,,,,,,
,613f79a17525776c2cbc04a6,627c6fbf8453bbb11a714fdf,2022-05-11_21h24.38.230,classification_task,2021.2.3,Win32,59.07372401,627c6715c52fd12f31907bd0,,,,,,,,,,,,,,,,,,,,,,,a,1,0.8172,"[""0.303"",""0.376"",""0.829"",""0.867""]","[1,0,1,1]",0,38,38,38,1,0,1,,,1,FALSE,,,,,,,,,,,,,,,,,,,,,,,,,,,,,,,
,613f79a17525776c2cbc04a6,627c6fbf8453bbb11a714fdf,2022-05-11_21h24.38.230,classification_task,2021.2.3,Win32,59.07372401,627c6715c52fd12f31907bd0,,,,,,,,,,,,,,,,,,,,,,,l,1,1.2175,"[""0.032"",""0.250"",""0.589"",""0.743""]","[1,1,0,1]",0,39,39,39,1,1,0,,,1,FALSE,,,,,,,,,,,,,,,,,,,,,,,,,,,,,,,
,613f79a17525776c2cbc04a6,627c6fbf8453bbb11a714fdf,2022-05-11_21h24.38.230,classification_task,2021.2.3,Win32,59.07372401,627c6715c52fd12f31907bd0,,,,,,,,,,,,,,,,,,,,,,,a,0,0.9999,"[""0.155"",""0.411"",""0.643"",""0.686""]","[0,1,1,1]",0,40,40,40,1,1,1,,,1,FALSE,,,,,,,,,,,,,,,,,,,,,,,,,,,,,,,
,613f79a17525776c2cbc04a6,627c6fbf8453bbb11a714fdf,2022-05-11_21h24.38.230,classification_task,2021.2.3,Win32,59.07372401,627c6715c52fd12f31907bd0,,,,,,,,,,,,,,,,,,,,,,,a,0,0.7172,"[""0.117"",""0.354"",""0.643"",""0.686""]","[1,0,1,1]",0,41,41,41,1,1,1,,,1,FALSE,,,,,,,,,,,,,,,,,,,,,,,,,,,,,,,
,613f79a17525776c2cbc04a6,627c6fbf8453bbb11a714fdf,2022-05-11_21h24.38.230,classification_task,2021.2.3,Win32,59.07372401,627c6715c52fd12f31907bd0,,,,,,,,,,,,,,,,,,,,,,,a,1,1.9865,"[""0.346"",""0.445"",""0.926"",""0.963""]","[0,1,1,1]",0,42,42,42,1,0,0,,,1,FALSE,,,,,,,,,,,,,,,,,,,,,,,,,,,,,,,
,613f79a17525776c2cbc04a6,627c6fbf8453bbb11a714fdf,2022-05-11_21h24.38.230,classification_task,2021.2.3,Win32,59.07372401,627c6715c52fd12f31907bd0,,,,,,,,,,,,,,,,,,,,,,,l,1,1.2875,"[""0.117"",""0.411"",""0.340"",""0.686""]","[1,1,0,1]",0,43,43,43,1,1,1,,,1,FALSE,,,,,,,,,,,,,,,,,,,,,,,,,,,,,,,
,613f79a17525776c2cbc04a6,627c6fbf8453bbb11a714fdf,2022-05-11_21h24.38.230,classification_task,2021.2.3,Win32,59.07372401,627c6715c52fd12f31907bd0,,,,,,,,,,,,,,,,,,,,,,,a,1,1.4997,"[""0.199"",""0.445"",""0.926"",""0.165""]","[1,1,1,0]",0,44,44,44,1,0,0,,,1,FALSE,,,,,,,,,,,,,,,,,,,,,,,,,,,,,,,
,613f79a17525776c2cbc04a6,627c6fbf8453bbb11a714fdf,2022-05-11_21h24.38.230,classification_task,2021.2.3,Win32,59.07372401,627c6715c52fd12f31907bd0,,,,,,,,,,,,,,,,,,,,,,,l,1,1.0529,"[""0.354"",""0.250"",""0.505"",""0.743""]","[0,1,1,1]",0,45,45,45,1,1,0,,,1,FALSE,,,,,,,,,,,,,,,,,,,,,,,,,,,,,,,
,613f79a17525776c2cbc04a6,627c6fbf8453bbb11a714fdf,2022-05-11_21h24.38.230,classification_task,2021.2.3,Win32,59.07372401,627c6715c52fd12f31907bd0,,,,,,,,,,,,,,,,,,,,,,,l,1,1.0515,"[""0.117"",""0.411"",""0.643"",""0.351""]","[1,1,1,0]",0,46,46,46,1,1,1,,,1,FALSE,,,,,,,,,,,,,,,,,,,,,,,,,,,,,,,
,613f79a17525776c2cbc04a6,627c6fbf8453bbb11a714fdf,2022-05-11_21h24.38.230,classification_task,2021.2.3,Win32,59.07372401,627c6715c52fd12f31907bd0,,,,,,,,,,,,,,,,,,,,,,,l,0,3.4776,"[""0.303"",""0.544"",""0.340"",""0.867""]","[1,1,0,1]",0,47,47,47,1,0,1,,,1,FALSE,,,,,,,,,,,,,,,,,,,,,,,,,,,,,,,
,613f79a17525776c2cbc04a6,627c6fbf8453bbb11a714fdf,2022-05-11_21h24.38.230,classification_task,2021.2.3,Win32,59.07372401,627c6715c52fd12f31907bd0,,,,,,,,,,,,,,,,,,,,,,,a,0,1.018,"[""0.340"",""0.411"",""0.643"",""0.686""]","[0,1,1,1]",0,48,48,48,1,1,1,,,1,FALSE,,,,,,,,,,,,,,,,,,,,,,,,,,,,,,,
,613f79a17525776c2cbc04a6,627c6fbf8453bbb11a714fdf,2022-05-11_21h24.38.230,classification_task,2021.2.3,Win32,59.07372401,627c6715c52fd12f31907bd0,,,,,,,,,,,,,,,,,,,,,,,a,1,0.9174,"[""0.303"",""0.544"",""0.829"",""0.076""]","[1,1,1,0]",0,49,49,49,1,0,1,,,1,FALSE,,,,,,,,,,,,,,,,,,,,,,,,,,,,,,,
,613f79a17525776c2cbc04a6,627c6fbf8453bbb11a714fdf,2022-05-11_21h24.38.230,classification_task,2021.2.3,Win32,59.07372401,627c6715c52fd12f31907bd0,,,,,,,,,,,,,,,,,,,,,,,a,1,1.6858,"[""0.199"",""0.445"",""0.165"",""0.963""]","[1,1,0,1]",0,50,50,50,1,0,0,,,1,FALSE,,,,,,,,,,,,,,,,,,,,,,,,,,,,,,,
,613f79a17525776c2cbc04a6,627c6fbf8453bbb11a714fdf,2022-05-11_21h24.38.230,classification_task,2021.2.3,Win32,59.07372401,627c6715c52fd12f31907bd0,,,,,,,,,,,,,,,,,,,,,,,a,1,1.2397,"[""0.076"",""0.445"",""0.926"",""0.963""]","[0,1,1,1]",0,51,51,51,1,0,0,,,1,FALSE,,,,,,,,,,,,,,,,,,,,,,,,,,,,,,,
,613f79a17525776c2cbc04a6,627c6fbf8453bbb11a714fdf,2022-05-11_21h24.38.230,classification_task,2021.2.3,Win32,59.07372401,627c6715c52fd12f31907bd0,,,,,,,,,,,,,,,,,,,,,,,a,0,1.3478,"[""0.032"",""0.250"",""0.505"",""0.590""]","[1,1,1,0]",0,52,52,52,1,1,0,,,1,FALSE,,,,,,,,,,,,,,,,,,,,,,,,,,,,,,,
,613f79a17525776c2cbc04a6,627c6fbf8453bbb11a714fdf,2022-05-11_21h24.38.230,classification_task,2021.2.3,Win32,59.07372401,627c6715c52fd12f31907bd0,,,,,,,,,,,,,,,,,,,,,,,a,0,1.3987,"[""0.117"",""0.411"",""0.643"",""0.354""]","[1,1,1,0]",0,53,53,53,1,1,1,,,1,FALSE,,,,,,,,,,,,,,,,,,,,,,,,,,,,,,,
,613f79a17525776c2cbc04a6,627c6fbf8453bbb11a714fdf,2022-05-11_21h24.38.230,classification_task,2021.2.3,Win32,59.07372401,627c6715c52fd12f31907bd0,,,,,,,,,,,,,,,,,,,,,,,l,1,1.1001,"[""0.032"",""0.340"",""0.505"",""0.743""]","[1,0,1,1]",0,54,54,54,1,1,0,,,1,FALSE,,,,,,,,,,,,,,,,,,,,,,,,,,,,,,,
,613f79a17525776c2cbc04a6,627c6fbf8453bbb11a714fdf,2022-05-11_21h24.38.230,classification_task,2021.2.3,Win32,59.07372401,627c6715c52fd12f31907bd0,,,,,,,,,,,,,,,,,,,,,,,a,1,1.1834,"[""0.303"",""0.165"",""0.829"",""0.867""]","[1,0,1,1]",0,55,55,55,1,0,1,,,1,FALSE,,,,,,,,,,,,,,,,,,,,,,,,,,,,,,,
,613f79a17525776c2cbc04a6,627c6fbf8453bbb11a714fdf,2022-05-11_21h24.38.230,classification_task,2021.2.3,Win32,59.07372401,627c6715c52fd12f31907bd0,,,,,,,,,,,,,,,,,,,,,,,l,1,1.3502,"[""0.032"",""0.250"",""0.589"",""0.743""]","[1,1,0,1]",0,56,56,56,1,1,0,,,1,FALSE,,,,,,,,,,,,,,,,,,,,,,,,,,,,,,,
,613f79a17525776c2cbc04a6,627c6fbf8453bbb11a714fdf,2022-05-11_21h24.38.230,classification_task,2021.2.3,Win32,59.07372401,627c6715c52fd12f31907bd0,,,,,,,,,,,,,,,,,,,,,,,l,1,1.4071,"[""0.589"",""0.250"",""0.505"",""0.743""]","[0,1,1,1]",0,57,57,57,1,1,0,,,1,FALSE,,,,,,,,,,,,,,,,,,,,,,,,,,,,,,,
,613f79a17525776c2cbc04a6,627c6fbf8453bbb11a714fdf,2022-05-11_21h24.38.230,classification_task,2021.2.3,Win32,59.07372401,627c6715c52fd12f31907bd0,,,,,,,,,,,,,,,,,,,,,,,l,0,1.3525,"[""0.199"",""0.445"",""0.926"",""0.376""]","[1,1,1,0]",0,58,58,58,1,0,0,,,1,FALSE,,,,,,,,,,,,,,,,,,,,,,,,,,,,,,,
,613f79a17525776c2cbc04a6,627c6fbf8453bbb11a714fdf,2022-05-11_21h24.38.230,classification_task,2021.2.3,Win32,59.07372401,627c6715c52fd12f31907bd0,,,,,,,,,,,,,,,,,,,,,,,a,1,1.0505,"[""0.357"",""0.544"",""0.829"",""0.867""]","[0,1,1,1]",0,59,59,59,1,0,1,,,1,FALSE,,,,,,,,,,,,,,,,,,,,,,,,,,,,,,,
,613f79a17525776c2cbc04a6,627c6fbf8453bbb11a714fdf,2022-05-11_21h24.38.230,classification_task,2021.2.3,Win32,59.07372401,627c6715c52fd12f31907bd0,,,,,,,,,,,,,,,,,,,,,,,l,1,1.0171,"[""0.117"",""0.411"",""0.608"",""0.686""]","[1,1,0,1]",0,60,60,60,1,1,1,,,1,FALSE,,,,,,,,,,,,,,,,,,,,,,,,,,,,,,,
,613f79a17525776c2cbc04a6,627c6fbf8453bbb11a714fdf,2022-05-11_21h24.38.230,classification_task,2021.2.3,Win32,59.07372401,627c6715c52fd12f31907bd0,,,,,,,,,,,,,,,,,,,,,,,l,0,1.5811,"[""0.303"",""0.544"",""0.160"",""0.867""]","[1,1,0,1]",0,61,61,61,1,0,1,,,1,FALSE,,,,,,,,,,,,,,,,,,,,,,,,,,,,,,,
,613f79a17525776c2cbc04a6,627c6fbf8453bbb11a714fdf,2022-05-11_21h24.38.230,classification_task,2021.2.3,Win32,59.07372401,627c6715c52fd12f31907bd0,,,,,,,,,,,,,,,,,,,,,,,a,1,1.4506,"[""0.199"",""0.593"",""0.926"",""0.963""]","[1,0,1,1]",0,62,62,62,1,0,0,,,1,FALSE,,,,,,,,,,,,,,,,,,,,,,,,,,,,,,,
,613f79a17525776c2cbc04a6,627c6fbf8453bbb11a714fdf,2022-05-11_21h24.38.230,classification_task,2021.2.3,Win32,59.07372401,627c6715c52fd12f31907bd0,,,,,,,,,,,,,,,,,,,,,,,a,0,1.7025,"[""0.117"",""0.340"",""0.643"",""0.686""]","[1,0,1,1]",0,63,63,63,1,1,1,,,1,FALSE,,,,,,,,,,,,,,,,,,,,,,,,,,,,,,,
,613f79a17525776c2cbc04a6,627c6fbf8453bbb11a714fdf,2022-05-11_21h24.38.230,classification_task,2021.2.3,Win32,59.07372401,627c6715c52fd12f31907bd0,,,,,,,,,,,,,,,,,,,,,,,,,,,,,,,,,,,,,,,0, ,,0,8.065751764,186.5608,0,1,1,1,1,2,2,,,,,,,,,,,,,,,,,,
,613f79a17525776c2cbc04a6,627c6fbf8453bbb11a714fdf,2022-05-11_21h24.38.230,classification_task,2021.2.3,Win32,59.07372401,627c6715c52fd12f31907bd0,,,,,,,,,,,,,,,,,,,,,,,,,,,,,,,,,,,,,,,1,  ,,0,7.617945326,190.9414,0,1,1,1,1,2,2,,,,,,,,,,,,,,,,,,
,613f79a17525776c2cbc04a6,627c6fbf8453bbb11a714fdf,2022-05-11_21h24.38.230,classification_task,2021.2.3,Win32,59.07372401,627c6715c52fd12f31907bd0,,,,,,,,,,,,,,,,,,,,,,,,,,,,,,,,,,,,,,,2,  ,,0,5.206679894,196.4585,0,1,1,1,1,2,2,,,,,,,,,,,,,,,,,,
,613f79a17525776c2cbc04a6,627c6fbf8453bbb11a714fdf,2022-05-11_21h24.38.230,classification_task,2021.2.3,Win32,59.07372401,627c6715c52fd12f31907bd0,,,,,,,,,,,,,,,,,,,,,,,,,,,,,,,,,,,,,,,,,,,,,0,1,1,1,1,,2,,,,,,,,,,,,,,,,,,
,613f79a17525776c2cbc04a6,627c6fbf8453bbb11a714fdf,2022-05-11_21h24.38.230,classification_task,2021.2.3,Win32,59.07372401,627c6715c52fd12f31907bd0,,,,,,,,,,,,,,,,,,,,,space,12.9654,a,0,2.2812,"[""0.590"",""0.411"",""0.643"",""0.686""]","[0,1,1,1]",0,0,0,0,1,1,1,,,1,FALSE,,,,,,,,,,,,,,,,,,,,,,,,,,,,,,,
,613f79a17525776c2cbc04a6,627c6fbf8453bbb11a714fdf,2022-05-11_21h24.38.230,classification_task,2021.2.3,Win32,59.07372401,627c6715c52fd12f31907bd0,,,,,,,,,,,,,,,,,,,,,,,a,1,1.9174,"[""0.199"",""0.590"",""0.926"",""0.963""]","[1,0,1,1]",0,1,1,1,1,0,0,,,1,FALSE,,,,,,,,,,,,,,,,,,,,,,,,,,,,,,,
,613f79a17525776c2cbc04a6,627c6fbf8453bbb11a714fdf,2022-05-11_21h24.38.230,classification_task,2021.2.3,Win32,59.07372401,627c6715c52fd12f31907bd0,,,,,,,,,,,,,,,,,,,,,,,l,0,1.4975,"[""0.199"",""0.445"",""0.926"",""0.076""]","[1,1,1,0]",0,2,2,2,1,0,0,,,1,FALSE,,,,,,,,,,,,,,,,,,,,,,,,,,,,,,,
,613f79a17525776c2cbc04a6,627c6fbf8453bbb11a714fdf,2022-05-11_21h24.38.230,classification_task,2021.2.3,Win32,59.07372401,627c6715c52fd12f31907bd0,,,,,,,,,,,,,,,,,,,,,,,a,0,1.9333,"[""0.032"",""0.250"",""0.608"",""0.743""]","[1,1,0,1]",0,3,3,3,1,1,0,,,1,FALSE,,,,,,,,,,,,,,,,,,,,,,,,,,,,,,,
,613f79a17525776c2cbc04a6,627c6fbf8453bbb11a714fdf,2022-05-11_21h24.38.230,classification_task,2021.2.3,Win32,59.07372401,627c6715c52fd12f31907bd0,,,,,,,,,,,,,,,,,,,,,,,a,1,1.1308,"[""0.303"",""0.354"",""0.829"",""0.867""]","[1,0,1,1]",0,4,4,4,1,0,1,,,1,FALSE,,,,,,,,,,,,,,,,,,,,,,,,,,,,,,,
,613f79a17525776c2cbc04a6,627c6fbf8453bbb11a714fdf,2022-05-11_21h24.38.230,classification_task,2021.2.3,Win32,59.07372401,627c6715c52fd12f31907bd0,,,,,,,,,,,,,,,,,,,,,,,a,0,2.118,"[""0.117"",""0.411"",""0.643"",""0.357""]","[1,1,1,0]",0,5,5,5,1,1,1,,,1,FALSE,,,,,,,,,,,,,,,,,,,,,,,,,,,,,,,
,613f79a17525776c2cbc04a6,627c6fbf8453bbb11a714fdf,2022-05-11_21h24.38.230,classification_task,2021.2.3,Win32,59.07372401,627c6715c52fd12f31907bd0,,,,,,,,,,,,,,,,,,,,,,,a,0,1.0403,"[""0.117"",""0.165"",""0.643"",""0.686""]","[1,0,1,1]",0,6,6,6,1,1,1,,,1,FALSE,,,,,,,,,,,,,,,,,,,,,,,,,,,,,,,
,613f79a17525776c2cbc04a6,627c6fbf8453bbb11a714fdf,2022-05-11_21h24.38.230,classification_task,2021.2.3,Win32,59.07372401,627c6715c52fd12f31907bd0,,,,,,,,,,,,,,,,,,,,,,,l,1,1.1364,"[""0.032"",""0.160"",""0.505"",""0.743""]","[1,0,1,1]",0,7,7,7,1,1,0,,,1,FALSE,,,,,,,,,,,,,,,,,,,,,,,,,,,,,,,
,613f79a17525776c2cbc04a6,627c6fbf8453bbb11a714fdf,2022-05-11_21h24.38.230,classification_task,2021.2.3,Win32,59.07372401,627c6715c52fd12f31907bd0,,,,,,,,,,,,,,,,,,,,,,,l,0,1.0152,"[""0.303"",""0.544"",""0.155"",""0.867""]","[1,1,0,1]",0,8,8,8,1,0,1,,,1,FALSE,,,,,,,,,,,,,,,,,,,,,,,,,,,,,,,
,613f79a17525776c2cbc04a6,627c6fbf8453bbb11a714fdf,2022-05-11_21h24.38.230,classification_task,2021.2.3,Win32,59.07372401,627c6715c52fd12f31907bd0,,,,,,,,,,,,,,,,,,,,,,,l,1,1.35,"[""0.608"",""0.250"",""0.505"",""0.743""]","[0,1,1,1]",0,9,9,9,1,1,0,,,1,FALSE,,,,,,,,,,,,,,,,,,,,,,,,,,,,,,,
,613f79a17525776c2cbc04a6,627c6fbf8453bbb11a714fdf,2022-05-11_21h24.38.230,classification_task,2021.2.3,Win32,59.07372401,627c6715c52fd12f31907bd0,,,,,,,,,,,,,,,,,,,,,,,a,0,1.2664,"[""0.117"",""0.411"",""0.357"",""0.686""]","[1,1,0,1]",0,10,10,10,1,1,1,,,1,FALSE,,,,,,,,,,,,,,,,,,,,,,,,,,,,,,,
,613f79a17525776c2cbc04a6,627c6fbf8453bbb11a714fdf,2022-05-11_21h24.38.230,classification_task,2021.2.3,Win32,59.07372401,627c6715c52fd12f31907bd0,,,,,,,,,,,,,,,,,,,,,,,a,1,2.8173,"[""0.303"",""0.544"",""0.829"",""0.357""]","[1,1,1,0]",0,11,11,11,1,0,1,,,1,FALSE,,,,,,,,,,,,,,,,,,,,,,,,,,,,,,,
,613f79a17525776c2cbc04a6,627c6fbf8453bbb11a714fdf,2022-05-11_21h24.38.230,classification_task,2021.2.3,Win32,59.07372401,627c6715c52fd12f31907bd0,,,,,,,,,,,,,,,,,,,,,,,a,1,1.1075,"[""0.357"",""0.445"",""0.926"",""0.963""]","[0,1,1,1]",0,12,12,12,1,0,0,,,1,FALSE,,,,,,,,,,,,,,,,,,,,,,,,,,,,,,,
,613f79a17525776c2cbc04a6,627c6fbf8453bbb11a714fdf,2022-05-11_21h24.38.230,classification_task,2021.2.3,Win32,59.07372401,627c6715c52fd12f31907bd0,,,,,,,,,,,,,,,,,,,,,,,a,1,1.0507,"[""0.608"",""0.544"",""0.829"",""0.867""]","[0,1,1,1]",0,13,13,13,1,0,1,,,1,FALSE,,,,,,,,,,,,,,,,,,,,,,,,,,,,,,,
,613f79a17525776c2cbc04a6,627c6fbf8453bbb11a714fdf,2022-05-11_21h24.38.230,classification_task,2021.2.3,Win32,59.07372401,627c6715c52fd12f31907bd0,,,,,,,,,,,,,,,,,,,,,,,l,1,0.9545,"[""0.032"",""0.250"",""0.505"",""0.351""]","[1,1,1,0]",0,14,14,14,1,1,0,,,1,FALSE,,,,,,,,,,,,,,,,,,,,,,,,,,,,,,,
,613f79a17525776c2cbc04a6,627c6fbf8453bbb11a714fdf,2022-05-11_21h24.38.230,classification_task,2021.2.3,Win32,59.07372401,627c6715c52fd12f31907bd0,,,,,,,,,,,,,,,,,,,,,,,l,0,0.9674,"[""0.199"",""0.445"",""0.589"",""0.963""]","[1,1,0,1]",0,15,15,15,1,0,0,,,1,FALSE,,,,,,,,,,,,,,,,,,,,,,,,,,,,,,,
,613f79a17525776c2cbc04a6,627c6fbf8453bbb11a714fdf,2022-05-11_21h24.38.230,classification_task,2021.2.3,Win32,59.07372401,627c6715c52fd12f31907bd0,,,,,,,,,,,,,,,,,,,,,,,a,1,0.8989,"[""0.303"",""0.346"",""0.829"",""0.867""]","[1,0,1,1]",0,16,16,16,1,0,1,,,1,FALSE,,,,,,,,,,,,,,,,,,,,,,,,,,,,,,,
,613f79a17525776c2cbc04a6,627c6fbf8453bbb11a714fdf,2022-05-11_21h24.38.230,classification_task,2021.2.3,Win32,59.07372401,627c6715c52fd12f31907bd0,,,,,,,,,,,,,,,,,,,,,,,l,1,0.9825,"[""0.032"",""0.608"",""0.505"",""0.743""]","[1,0,1,1]",0,17,17,17,1,1,0,,,1,FALSE,,,,,,,,,,,,,,,,,,,,,,,,,,,,,,,
,613f79a17525776c2cbc04a6,627c6fbf8453bbb11a714fdf,2022-05-11_21h24.38.230,classification_task,2021.2.3,Win32,59.07372401,627c6715c52fd12f31907bd0,,,,,,,,,,,,,,,,,,,,,,,a,0,3.1366,"[""0.351"",""0.250"",""0.505"",""0.743""]","[0,1,1,1]",0,18,18,18,1,1,0,,,1,FALSE,,,,,,,,,,,,,,,,,,,,,,,,,,,,,,,
,613f79a17525776c2cbc04a6,627c6fbf8453bbb11a714fdf,2022-05-11_21h24.38.230,classification_task,2021.2.3,Win32,59.07372401,627c6715c52fd12f31907bd0,,,,,,,,,,,,,,,,,,,,,,,l,0,2.7896,"[""0.303"",""0.544"",""0.829"",""0.076""]","[1,1,1,0]",0,19,19,19,1,0,1,,,1,FALSE,,,,,,,,,,,,,,,,,,,,,,,,,,,,,,,
,613f79a17525776c2cbc04a6,627c6fbf8453bbb11a714fdf,2022-05-11_21h24.38.230,classification_task,2021.2.3,Win32,59.07372401,627c6715c52fd12f31907bd0,,,,,,,,,,,,,,,,,,,,,,,l,0,1.5566,"[""0.199"",""0.445"",""0.608"",""0.963""]","[1,1,0,1]",0,20,20,20,1,0,0,,,1,FALSE,,,,,,,,,,,,,,,,,,,,,,,,,,,,,,,
,613f79a17525776c2cbc04a6,627c6fbf8453bbb11a714fdf,2022-05-11_21h24.38.230,classification_task,2021.2.3,Win32,59.07372401,627c6715c52fd12f31907bd0,,,,,,,,,,,,,,,,,,,,,,,a,0,0.937,"[""0.117"",""0.354"",""0.643"",""0.686""]","[1,0,1,1]",0,21,21,21,1,1,1,,,1,FALSE,,,,,,,,,,,,,,,,,,,,,,,,,,,,,,,
,613f79a17525776c2cbc04a6,627c6fbf8453bbb11a714fdf,2022-05-11_21h24.38.230,classification_task,2021.2.3,Win32,59.07372401,627c6715c52fd12f31907bd0,,,,,,,,,,,,,,,,,,,,,,,l,1,1.4824,"[""0.589"",""0.411"",""0.643"",""0.686""]","[0,1,1,1]",0,22,22,22,1,1,1,,,1,FALSE,,,,,,,,,,,,,,,,,,,,,,,,,,,,,,,
,613f79a17525776c2cbc04a6,627c6fbf8453bbb11a714fdf,2022-05-11_21h24.38.230,classification_task,2021.2.3,Win32,59.07372401,627c6715c52fd12f31907bd0,,,,,,,,,,,,,,,,,,,,,,,a,1,2.5176,"[""0.303"",""0.544"",""0.340"",""0.867""]","[1,1,0,1]",0,23,23,23,1,0,1,,,1,FALSE,,,,,,,,,,,,,,,,,,,,,,,,,,,,,,,
,613f79a17525776c2cbc04a6,627c6fbf8453bbb11a714fdf,2022-05-11_21h24.38.230,classification_task,2021.2.3,Win32,59.07372401,627c6715c52fd12f31907bd0,,,,,,,,,,,,,,,,,,,,,,,a,1,1.7238,"[""0.376"",""0.445"",""0.926"",""0.963""]","[0,1,1,1]",0,24,24,24,1,0,0,,,1,FALSE,,,,,,,,,,,,,,,,,,,,,,,,,,,,,,,
,613f79a17525776c2cbc04a6,627c6fbf8453bbb11a714fdf,2022-05-11_21h24.38.230,classification_task,2021.2.3,Win32,59.07372401,627c6715c52fd12f31907bd0,,,,,,,,,,,,,,,,,,,,,,,l,1,1.434,"[""0.032"",""0.250"",""0.608"",""0.743""]","[1,1,0,1]",0,25,25,25,1,1,0,,,1,FALSE,,,,,,,,,,,,,,,,,,,,,,,,,,,,,,,
,613f79a17525776c2cbc04a6,627c6fbf8453bbb11a714fdf,2022-05-11_21h24.38.230,classification_task,2021.2.3,Win32,59.07372401,627c6715c52fd12f31907bd0,,,,,,,,,,,,,,,,,,,,,,,a,1,1.637,"[""0.199"",""0.354"",""0.926"",""0.963""]","[1,0,1,1]",0,26,26,26,1,0,0,,,1,FALSE,,,,,,,,,,,,,,,,,,,,,,,,,,,,,,,
,613f79a17525776c2cbc04a6,627c6fbf8453bbb11a714fdf,2022-05-11_21h24.38.230,classification_task,2021.2.3,Win32,59.07372401,627c6715c52fd12f31907bd0,,,,,,,,,,,,,,,,,,,,,,,a,0,1.2832,"[""0.117"",""0.411"",""0.643"",""0.084""]","[1,1,1,0]",0,27,27,27,1,1,1,,,1,FALSE,,,,,,,,,,,,,,,,,,,,,,,,,,,,,,,
,613f79a17525776c2cbc04a6,627c6fbf8453bbb11a714fdf,2022-05-11_21h24.38.230,classification_task,2021.2.3,Win32,59.07372401,627c6715c52fd12f31907bd0,,,,,,,,,,,,,,,,,,,,,,,a,0,1.0413,"[""0.117"",""0.411"",""0.155"",""0.686""]","[1,1,0,1]",0,28,28,28,1,1,1,,,1,FALSE,,,,,,,,,,,,,,,,,,,,,,,,,,,,,,,
,613f79a17525776c2cbc04a6,627c6fbf8453bbb11a714fdf,2022-05-11_21h24.38.230,classification_task,2021.2.3,Win32,59.07372401,627c6715c52fd12f31907bd0,,,,,,,,,,,,,,,,,,,,,,,l,0,1.0162,"[""0.199"",""0.445"",""0.926"",""0.354""]","[1,1,1,0]",0,29,29,29,1,0,0,,,1,FALSE,,,,,,,,,,,,,,,,,,,,,,,,,,,,,,,
,613f79a17525776c2cbc04a6,627c6fbf8453bbb11a714fdf,2022-05-11_21h24.38.230,classification_task,2021.2.3,Win32,59.07372401,627c6715c52fd12f31907bd0,,,,,,,,,,,,,,,,,,,,,,,a,1,1.7162,"[""0.340"",""0.544"",""0.829"",""0.867""]","[0,1,1,1]",0,30,30,30,1,0,1,,,1,FALSE,,,,,,,,,,,,,,,,,,,,,,,,,,,,,,,
,613f79a17525776c2cbc04a6,627c6fbf8453bbb11a714fdf,2022-05-11_21h24.38.230,classification_task,2021.2.3,Win32,59.07372401,627c6715c52fd12f31907bd0,,,,,,,,,,,,,,,,,,,,,,,l,1,0.8334,"[""0.032"",""0.250"",""0.505"",""0.376""]","[1,1,1,0]",0,31,31,31,1,1,0,,,1,FALSE,,,,,,,,,,,,,,,,,,,,,,,,,,,,,,,
,613f79a17525776c2cbc04a6,627c6fbf8453bbb11a714fdf,2022-05-11_21h24.38.230,classification_task,2021.2.3,Win32,59.07372401,627c6715c52fd12f31907bd0,,,,,,,,,,,,,,,,,,,,,,,a,1,1.1007,"[""0.303"",""0.165"",""0.829"",""0.867""]","[1,0,1,1]",0,32,32,32,1,0,1,,,1,FALSE,,,,,,,,,,,,,,,,,,,,,,,,,,,,,,,
,613f79a17525776c2cbc04a6,627c6fbf8453bbb11a714fdf,2022-05-11_21h24.38.230,classification_task,2021.2.3,Win32,59.07372401,627c6715c52fd12f31907bd0,,,,,,,,,,,,,,,,,,,,,,,a,1,0.9015,"[""0.608"",""0.544"",""0.829"",""0.867""]","[0,1,1,1]",0,33,33,33,1,0,1,,,1,FALSE,,,,,,,,,,,,,,,,,,,,,,,,,,,,,,,
,613f79a17525776c2cbc04a6,627c6fbf8453bbb11a714fdf,2022-05-11_21h24.38.230,classification_task,2021.2.3,Win32,59.07372401,627c6715c52fd12f31907bd0,,,,,,,,,,,,,,,,,,,,,,,l,0,0.8666,"[""0.303"",""0.544"",""0.376"",""0.867""]","[1,1,0,1]",0,34,34,34,1,0,1,,,1,FALSE,,,,,,,,,,,,,,,,,,,,,,,,,,,,,,,
,613f79a17525776c2cbc04a6,627c6fbf8453bbb11a714fdf,2022-05-11_21h24.38.230,classification_task,2021.2.3,Win32,59.07372401,627c6715c52fd12f31907bd0,,,,,,,,,,,,,,,,,,,,,,,a,1,1.6184,"[""0.357"",""0.445"",""0.926"",""0.963""]","[0,1,1,1]",0,35,35,35,1,0,0,,,1,FALSE,,,,,,,,,,,,,,,,,,,,,,,,,,,,,,,
,613f79a17525776c2cbc04a6,627c6fbf8453bbb11a714fdf,2022-05-11_21h24.38.230,classification_task,2021.2.3,Win32,59.07372401,627c6715c52fd12f31907bd0,,,,,,,,,,,,,,,,,,,,,,,l,0,2.216,"[""0.303"",""0.544"",""0.829"",""0.076""]","[1,1,1,0]",0,36,36,36,1,0,1,,,1,FALSE,,,,,,,,,,,,,,,,,,,,,,,,,,,,,,,
,613f79a17525776c2cbc04a6,627c6fbf8453bbb11a714fdf,2022-05-11_21h24.38.230,classification_task,2021.2.3,Win32,59.07372401,627c6715c52fd12f31907bd0,,,,,,,,,,,,,,,,,,,,,,,a,1,1.2075,"[""0.199"",""0.589"",""0.926"",""0.963""]","[1,0,1,1]",0,37,37,37,1,0,0,,,1,FALSE,,,,,,,,,,,,,,,,,,,,,,,,,,,,,,,
,613f79a17525776c2cbc04a6,627c6fbf8453bbb11a714fdf,2022-05-11_21h24.38.230,classification_task,2021.2.3,Win32,59.07372401,627c6715c52fd12f31907bd0,,,,,,,,,,,,,,,,,,,,,,,l,1,0.8332,"[""0.032"",""0.250"",""0.376"",""0.743""]","[1,1,0,1]",0,38,38,38,1,1,0,,,1,FALSE,,,,,,,,,,,,,,,,,,,,,,,,,,,,,,,
,613f79a17525776c2cbc04a6,627c6fbf8453bbb11a714fdf,2022-05-11_21h24.38.230,classification_task,2021.2.3,Win32,59.07372401,627c6715c52fd12f31907bd0,,,,,,,,,,,,,,,,,,,,,,,l,1,0.9341,"[""0.032"",""0.250"",""0.505"",""0.165""]","[1,1,1,0]",0,39,39,39,1,1,0,,,1,FALSE,,,,,,,,,,,,,,,,,,,,,,,,,,,,,,,
,613f79a17525776c2cbc04a6,627c6fbf8453bbb11a714fdf,2022-05-11_21h24.38.230,classification_task,2021.2.3,Win32,59.07372401,627c6715c52fd12f31907bd0,,,,,,,,,,,,,,,,,,,,,,,a,0,0.9366,"[""0.354"",""0.411"",""0.643"",""0.686""]","[0,1,1,1]",0,40,40,40,1,1,1,,,1,FALSE,,,,,,,,,,,,,,,,,,,,,,,,,,,,,,,
,613f79a17525776c2cbc04a6,627c6fbf8453bbb11a714fdf,2022-05-11_21h24.38.230,classification_task,2021.2.3,Win32,59.07372401,627c6715c52fd12f31907bd0,,,,,,,,,,,,,,,,,,,,,,,l,0,1.6669,"[""0.199"",""0.445"",""0.926"",""0.340""]","[1,1,1,0]",0,41,41,41,1,0,0,,,1,FALSE,,,,,,,,,,,,,,,,,,,,,,,,,,,,,,,
,613f79a17525776c2cbc04a6,627c6fbf8453bbb11a714fdf,2022-05-11_21h24.38.230,classification_task,2021.2.3,Win32,59.07372401,627c6715c52fd12f31907bd0,,,,,,,,,,,,,,,,,,,,,,,a,0,4.5497,"[""0.117"",""0.376"",""0.643"",""0.686""]","[1,0,1,1]",0,42,42,42,1,1,1,,,1,FALSE,,,,,,,,,,,,,,,,,,,,,,,,,,,,,,,
,613f79a17525776c2cbc04a6,627c6fbf8453bbb11a714fdf,2022-05-11_21h24.38.230,classification_task,2021.2.3,Win32,59.07372401,627c6715c52fd12f31907bd0,,,,,,,,,,,,,,,,,,,,,,,l,1,2.891,"[""0.117"",""0.411"",""0.346"",""0.686""]","[1,1,0,1]",0,43,43,43,1,1,1,,,1,FALSE,,,,,,,,,,,,,,,,,,,,,,,,,,,,,,,
,613f79a17525776c2cbc04a6,627c6fbf8453bbb11a714fdf,2022-05-11_21h24.38.230,classification_task,2021.2.3,Win32,59.07372401,627c6715c52fd12f31907bd0,,,,,,,,,,,,,,,,,,,,,,,l,0,1.077,"[""0.199"",""0.445"",""0.165"",""0.963""]","[1,1,0,1]",0,44,44,44,1,0,0,,,1,FALSE,,,,,,,,,,,,,,,,,,,,,,,,,,,,,,,
,613f79a17525776c2cbc04a6,627c6fbf8453bbb11a714fdf,2022-05-11_21h24.38.230,classification_task,2021.2.3,Win32,59.07372401,627c6715c52fd12f31907bd0,,,,,,,,,,,,,,,,,,,,,,,a,0,1.3173,"[""0.117"",""0.411"",""0.643"",""0.608""]","[1,1,1,0]",0,45,45,45,1,1,1,,,1,FALSE,,,,,,,,,,,,,,,,,,,,,,,,,,,,,,,
,613f79a17525776c2cbc04a6,627c6fbf8453bbb11a714fdf,2022-05-11_21h24.38.230,classification_task,2021.2.3,Win32,59.07372401,627c6715c52fd12f31907bd0,,,,,,,,,,,,,,,,,,,,,,,l,1,1.2998,"[""0.032"",""0.084"",""0.505"",""0.743""]","[1,0,1,1]",0,46,46,46,1,1,0,,,1,FALSE,,,,,,,,,,,,,,,,,,,,,,,,,,,,,,,
,613f79a17525776c2cbc04a6,627c6fbf8453bbb11a714fdf,2022-05-11_21h24.38.230,classification_task,2021.2.3,Win32,59.07372401,627c6715c52fd12f31907bd0,,,,,,,,,,,,,,,,,,,,,,,a,0,2.4046,"[""0.155"",""0.250"",""0.505"",""0.743""]","[0,1,1,1]",0,47,47,47,1,1,0,,,1,FALSE,,,,,,,,,,,,,,,,,,,,,,,,,,,,,,,
,613f79a17525776c2cbc04a6,627c6fbf8453bbb11a714fdf,2022-05-11_21h24.38.230,classification_task,2021.2.3,Win32,59.07372401,627c6715c52fd12f31907bd0,,,,,,,,,,,,,,,,,,,,,,,a,0,0.9403,"[""0.155"",""0.250"",""0.505"",""0.743""]","[0,1,1,1]",0,48,48,48,1,1,0,,,1,FALSE,,,,,,,,,,,,,,,,,,,,,,,,,,,,,,,
,613f79a17525776c2cbc04a6,627c6fbf8453bbb11a714fdf,2022-05-11_21h24.38.230,classification_task,2021.2.3,Win32,59.07372401,627c6715c52fd12f31907bd0,,,,,,,,,,,,,,,,,,,,,,,a,1,1.4493,"[""0.076"",""0.445"",""0.926"",""0.963""]","[0,1,1,1]",0,49,49,49,1,0,0,,,1,FALSE,,,,,,,,,,,,,,,,,,,,,,,,,,,,,,,
,613f79a17525776c2cbc04a6,627c6fbf8453bbb11a714fdf,2022-05-11_21h24.38.230,classification_task,2021.2.3,Win32,59.07372401,627c6715c52fd12f31907bd0,,,,,,,,,,,,,,,,,,,,,,,l,0,1.0861,"[""0.303"",""0.544"",""0.829"",""0.608""]","[1,1,1,0]",0,50,50,50,1,0,1,,,1,FALSE,,,,,,,,,,,,,,,,,,,,,,,,,,,,,,,
,613f79a17525776c2cbc04a6,627c6fbf8453bbb11a714fdf,2022-05-11_21h24.38.230,classification_task,2021.2.3,Win32,59.07372401,627c6715c52fd12f31907bd0,,,,,,,,,,,,,,,,,,,,,,,l,1,0.9842,"[""0.117"",""0.411"",""0.346"",""0.686""]","[1,1,0,1]",0,51,51,51,1,1,1,,,1,FALSE,,,,,,,,,,,,,,,,,,,,,,,,,,,,,,,
,613f79a17525776c2cbc04a6,627c6fbf8453bbb11a714fdf,2022-05-11_21h24.38.230,classification_task,2021.2.3,Win32,59.07372401,627c6715c52fd12f31907bd0,,,,,,,,,,,,,,,,,,,,,,,a,1,0.9186,"[""0.303"",""0.155"",""0.829"",""0.867""]","[1,0,1,1]",0,52,52,52,1,0,1,,,1,FALSE,,,,,,,,,,,,,,,,,,,,,,,,,,,,,,,
,613f79a17525776c2cbc04a6,627c6fbf8453bbb11a714fdf,2022-05-11_21h24.38.230,classification_task,2021.2.3,Win32,59.07372401,627c6715c52fd12f31907bd0,,,,,,,,,,,,,,,,,,,,,,,l,1,0.8502,"[""0.032"",""0.376"",""0.505"",""0.743""]","[1,0,1,1]",0,53,53,53,1,1,0,,,1,FALSE,,,,,,,,,,,,,,,,,,,,,,,,,,,,,,,
,613f79a17525776c2cbc04a6,627c6fbf8453bbb11a714fdf,2022-05-11_21h24.38.230,classification_task,2021.2.3,Win32,59.07372401,627c6715c52fd12f31907bd0,,,,,,,,,,,,,,,,,,,,,,,a,0,0.986,"[""0.076"",""0.411"",""0.643"",""0.686""]","[0,1,1,1]",0,54,54,54,1,1,1,,,1,FALSE,,,,,,,,,,,,,,,,,,,,,,,,,,,,,,,
,613f79a17525776c2cbc04a6,627c6fbf8453bbb11a714fdf,2022-05-11_21h24.38.230,classification_task,2021.2.3,Win32,59.07372401,627c6715c52fd12f31907bd0,,,,,,,,,,,,,,,,,,,,,,,a,1,0.9336,"[""0.155"",""0.544"",""0.829"",""0.867""]","[0,1,1,1]",0,55,55,55,1,0,1,,,1,FALSE,,,,,,,,,,,,,,,,,,,,,,,,,,,,,,,
,613f79a17525776c2cbc04a6,627c6fbf8453bbb11a714fdf,2022-05-11_21h24.38.230,classification_task,2021.2.3,Win32,59.07372401,627c6715c52fd12f31907bd0,,,,,,,,,,,,,,,,,,,,,,,l,1,2.2829,"[""0.117"",""0.411"",""0.643"",""0.165""]","[1,1,1,0]",0,56,56,56,1,1,1,,,1,FALSE,,,,,,,,,,,,,,,,,,,,,,,,,,,,,,,
,613f79a17525776c2cbc04a6,627c6fbf8453bbb11a714fdf,2022-05-11_21h24.38.230,classification_task,2021.2.3,Win32,59.07372401,627c6715c52fd12f31907bd0,,,,,,,,,,,,,,,,,,,,,,,l,1,1.0937,"[""0.032"",""0.250"",""0.351"",""0.743""]","[1,1,0,1]",0,57,57,57,1,1,0,,,1,FALSE,,,,,,,,,,,,,,,,,,,,,,,,,,,,,,,
,613f79a17525776c2cbc04a6,627c6fbf8453bbb11a714fdf,2022-05-11_21h24.38.230,classification_task,2021.2.3,Win32,59.07372401,627c6715c52fd12f31907bd0,,,,,,,,,,,,,,,,,,,,,,,l,0,1.3679,"[""0.199"",""0.445"",""0.351"",""0.963""]","[1,1,0,1]",0,58,58,58,1,0,0,,,1,FALSE,,,,,,,,,,,,,,,,,,,,,,,,,,,,,,,
,613f79a17525776c2cbc04a6,627c6fbf8453bbb11a714fdf,2022-05-11_21h24.38.230,classification_task,2021.2.3,Win32,59.07372401,627c6715c52fd12f31907bd0,,,,,,,,,,,,,,,,,,,,,,,l,0,2.2835,"[""0.303"",""0.544"",""0.351"",""0.867""]","[1,1,0,1]",0,59,59,59,1,0,1,,,1,FALSE,,,,,,,,,,,,,,,,,,,,,,,,,,,,,,,
,613f79a17525776c2cbc04a6,627c6fbf8453bbb11a714fdf,2022-05-11_21h24.38.230,classification_task,2021.2.3,Win32,59.07372401,627c6715c52fd12f31907bd0,,,,,,,,,,,,,,,,,,,,,,,a,1,0.6225,"[""0.199"",""0.165"",""0.926"",""0.963""]","[1,0,1,1]",0,60,60,60,1,0,0,,,1,FALSE,,,,,,,,,,,,,,,,,,,,,,,,,,,,,,,
,613f79a17525776c2cbc04a6,627c6fbf8453bbb11a714fdf,2022-05-11_21h24.38.230,classification_task,2021.2.3,Win32,59.07372401,627c6715c52fd12f31907bd0,,,,,,,,,,,,,,,,,,,,,,,l,1,0.9494,"[""0.032"",""0.250"",""0.505"",""0.346""]","[1,1,1,0]",0,61,61,61,1,1,0,,,1,FALSE,,,,,,,,,,,,,,,,,,,,,,,,,,,,,,,
,613f79a17525776c2cbc04a6,627c6fbf8453bbb11a714fdf,2022-05-11_21h24.38.230,classification_task,2021.2.3,Win32,59.07372401,627c6715c52fd12f31907bd0,,,,,,,,,,,,,,,,,,,,,,,l,0,1.8667,"[""0.199"",""0.445"",""0.926"",""0.340""]","[1,1,1,0]",0,62,62,62,1,0,0,,,1,FALSE,,,,,,,,,,,,,,,,,,,,,,,,,,,,,,,
,613f79a17525776c2cbc04a6,627c6fbf8453bbb11a714fdf,2022-05-11_21h24.38.230,classification_task,2021.2.3,Win32,59.07372401,627c6715c52fd12f31907bd0,,,,,,,,,,,,,,,,,,,,,,,l,1,1.773,"[""0.117"",""0.589"",""0.643"",""0.686""]","[1,0,1,1]",0,63,63,63,1,1,1,,,1,FALSE,,,,,,,,,,,,,,,,,,,,,,,,,,,,,,,
,613f79a17525776c2cbc04a6,627c6fbf8453bbb11a714fdf,2022-05-11_21h24.38.230,classification_task,2021.2.3,Win32,59.07372401,627c6715c52fd12f31907bd0,,,,,,,,,,,,,,,,,,,,,,,,,,,,,,,,,,,,,,,0, ,,0,6.171186067,180.1021,0,2,2,2,1,2,3,,,,,,,,,,,,,,,,,,
,613f79a17525776c2cbc04a6,627c6fbf8453bbb11a714fdf,2022-05-11_21h24.38.230,classification_task,2021.2.3,Win32,59.07372401,627c6715c52fd12f31907bd0,,,,,,,,,,,,,,,,,,,,,,,,,,,,,,,,,,,,,,,1,  ,,0,6.584545855,181.9249,0,2,2,2,1,2,3,,,,,,,,,,,,,,,,,,
,613f79a17525776c2cbc04a6,627c6fbf8453bbb11a714fdf,2022-05-11_21h24.38.230,classification_task,2021.2.3,Win32,59.07372401,627c6715c52fd12f31907bd0,,,,,,,,,,,,,,,,,,,,,,,,,,,,,,,,,,,,,,,2,  ,,0,6.825672399,183.2587,0,2,2,2,1,2,3,,,,,,,,,,,,,,,,,,
,613f79a17525776c2cbc04a6,627c6fbf8453bbb11a714fdf,2022-05-11_21h24.38.230,classification_task,2021.2.3,Win32,59.07372401,627c6715c52fd12f31907bd0,,,,,,,,,,,,,,,,,,,,,,,,,,,,,,,,,,,,,,,,,,,,,0,2,2,2,1,,3,,,,,,,,,,,,,,,,,,
,613f79a17525776c2cbc04a6,627c6fbf8453bbb11a714fdf,2022-05-11_21h24.38.230,classification_task,2021.2.3,Win32,59.07372401,627c6715c52fd12f31907bd0,,,,,,,,,,,,,,,,,,,,,,,,,,,,,,,,,,,,,,,,,,,,,,,,,,,,,I believe the aid is a competent performer,,0.7,0,4,861.1556,0,0,0,0,1,0,,,,,
,613f79a17525776c2cbc04a6,627c6fbf8453bbb11a714fdf,2022-05-11_21h24.38.230,classification_task,2021.2.3,Win32,59.07372401,627c6715c52fd12f31907bd0,,,,,,,,,,,,,,,,,,,,,,,,,,,,,,,,,,,,,,,,,,,,,,,,,,,,,I trust the aid,,0.7,0,3,867.7062,0,0,0,0,1,0,,,,,
,613f79a17525776c2cbc04a6,627c6fbf8453bbb11a714fdf,2022-05-11_21h24.38.230,classification_task,2021.2.3,Win32,59.07372401,627c6715c52fd12f31907bd0,,,,,,,,,,,,,,,,,,,,,,,,,,,,,,,,,,,,,,,,,,,,,,,,,,,,,I have confidence in the advice given by the aid,,0.7,0,4,867.2015,0,0,0,0,1,0,,,,,
,613f79a17525776c2cbc04a6,627c6fbf8453bbb11a714fdf,2022-05-11_21h24.38.230,classification_task,2021.2.3,Win32,59.07372401,627c6715c52fd12f31907bd0,,,,,,,,,,,,,,,,,,,,,,,,,,,,,,,,,,,,,,,,,,,,,,,,,,,,,I can depend on the aid,,0.7,0,3,873.8008,0,0,0,0,1,0,,,,,
,613f79a17525776c2cbc04a6,627c6fbf8453bbb11a714fdf,2022-05-11_21h24.38.230,classification_task,2021.2.3,Win32,59.07372401,627c6715c52fd12f31907bd0,,,,,,,,,,,,,,,,,,,,,,,,,,,,,,,,,,,,,,,,,,,,,,,,,,,,,I can rely on the aid to behave in consistent ways,,0.7,0,3,872.7741,0,0,0,0,1,0,,,,,
,613f79a17525776c2cbc04a6,627c6fbf8453bbb11a714fdf,2022-05-11_21h24.38.230,classification_task,2021.2.3,Win32,59.07372401,627c6715c52fd12f31907bd0,,,,,,,,,,,,,,,,,,,,,,,,,,,,,,,,,,,,,,,,,,,,,,,,,,,,,I can rely on the aid to do its best every time I take its advice,,0.7,0,4,882.022,0,0,0,0,1,0,,,,,
,613f79a17525776c2cbc04a6,627c6fbf8453bbb11a714fdf,2022-05-11_21h24.38.230,classification_task,2021.2.3,Win32,59.07372401,627c6715c52fd12f31907bd0,,,,,,,,,,,,,,,,,,,,,,,,,,,,,,,,,,,,,,,,,,,,,,,,,,,,,"On trials you completed with assistance from the aid, how frequently did you think the aid was correct?",,0.7,0,80%,,0,0,0,0,1,0,,,,,
,613f79a17525776c2cbc04a6,627c6fbf8453bbb11a714fdf,2022-05-11_21h24.38.230,classification_task,2021.2.3,Win32,59.07372401,627c6715c52fd12f31907bd0,,,,,,,,,,,,,,,,,,,,,,,,,,,,,,,,,,,,,,,,,,,,,,,,,,,,,"On trials you completed without the aid, how frequently did you think you were correct?",,0.7,0,60%,,0,0,0,0,1,0,,,,,
,613f79a17525776c2cbc04a6,627c6fbf8453bbb11a714fdf,2022-05-11_21h24.38.230,classification_task,2021.2.3,Win32,59.07372401,627c6715c52fd12f31907bd0,,,,,,,,,,,,,,,,,,,,,,,,,,,,,,,,,,,,,,,,,,,,,,,,,,,,,,,,,,,0,0,0,0,1,,,,,,
,613f79a17525776c2cbc04a6,627c6fbf8453bbb11a714fdf,2022-05-11_21h24.38.230,classification_task,2021.2.3,Win32,59.07372401,627c6715c52fd12f31907bd0,,,,,,,,,,,,,,,,,,,,,,,,,,,,,,,,,,,,,,,,,,,,,,,,,,,,,,,,,,,,,,,,,space,13.9908,916.0405,,
,613f79a17525776c2cbc04a6,627c6fbf8453bbb11a714fdf,2022-05-11_21h24.38.230,classification_task,2021.2.3,Win32,59.07372401,627c6715c52fd12f31907bd0,,,,,,,,,,,,,,,,,,,,,,,,,,,,,,,,,,,,,,,,,,,,,,,,,,,,,,,,,,,,,,,,,,,,"Mozilla/5.0 (Windows NT 10.0; Win64; x64) AppleWebKit/537.36 (KHTML, like Gecko) Chrome/101.0.4951.54 Safari/537.36",
,613f79a17525776c2cbc04a6,627c6fbf8453bbb11a714fdf,2022-05-11_21h24.38.230,classification_task,2021.2.3,Win32,59.07372401,627c6715c52fd12f31907bd0,,,,,,,,,,,,,,,,,,,,,,,,,,,,,,,,,,,,,,,,,,,,,,,,,,,,,,,,,,,,,,,,,,,,,LOWLIGHT
