usingWebGL,participant,session,date,expName,psychopyVersion,OS,frameRate,study_id,signatures_friend,signatures_foe,band_ranges_top,band_ranges_bottom,formitemText,formtype,formundefined,formitemWidth,formindex,formresponse,formrt,key_resp_2.keys,key_resp_2.rt,tute_resp.keys,tute_resp.rt,tutorial.thisRepN,tutorial.thisTrialN,tutorial.thisN,tutorial.thisIndex,tutorial.ran,key_resp_4.keys,key_resp_4.rt,key_resp.keys,key_resp.corr,lines_presented,is_signal_presented,trials.thisRepN,trials.thisTrialN,trials.thisN,trials.thisIndex,trials.ran,vessel,active_band,lines,is_signal,supported_pos,catch_trial,key_resp.rt,debrief_formindex,debrief_formitemText,debrief_formtype,debrief_formitemWidth,debrief_formresponse,debrief_formrt,phases.thisRepN,phases.thisTrialN,phases.thisN,phases.thisIndex,phases.ran,phases.order,phase,key_resp_3.keys,trustitemText,trusttype,trustitemWidth,trustindex,trustresponse,trustrt,support_status.thisRepN,support_status.thisTrialN,support_status.thisN,support_status.thisIndex,support_status.ran,support_status.order,key_resp_5.keys,key_resp_5.rt,globalClockTime,userAgent,manualCondition
TRUE,613fb1f6fc794e7fc4059b8f,627c6fcbc97af1b5a3f18d90,2022-05-11_21h25.24.739,classification_task,2021.2.3,Win32,59.70862193,627c6715c52fd12f31907bd0,,,,,,,,,,,,,,,,,,,,,,,,,,,,,,,,,,,,,,,,,,,,,,,,,,,,,,,,,,,,,,,,,,,,,
,613fb1f6fc794e7fc4059b8f,627c6fcbc97af1b5a3f18d90,2022-05-11_21h25.24.739,classification_task,2021.2.3,Win32,59.70862193,627c6715c52fd12f31907bd0,"[[""0.251"",""0.527"",""0.878"",""0.949""],[""0.200"",""0.421"",""0.671"",""0.913""]]","[[""0.085"",""0.289"",""0.619"",""0.739""],[""0.027"",""0.360"",""0.470"",""0.813""]]","[1,10]","[100,1000]",Video game experience,,,0.7,0,,,,,,,,,,,,,,,,,,,,,,,,,,,,,,,,,,,,,,,,,,,,,,,,,,,,,,,,,,,,
,613fb1f6fc794e7fc4059b8f,627c6fcbc97af1b5a3f18d90,2022-05-11_21h25.24.739,classification_task,2021.2.3,Win32,59.70862193,627c6715c52fd12f31907bd0,,,,,Approximately how many hours did you spend playing video games in the last week?,,,0.7,0,3,,,,,,,,,,,,,,,,,,,,,,,,,,,,,,,,,,,,,,,,,,,,,,,,,,,,,,,,,,,
,613fb1f6fc794e7fc4059b8f,627c6fcbc97af1b5a3f18d90,2022-05-11_21h25.24.739,classification_task,2021.2.3,Win32,59.70862193,627c6715c52fd12f31907bd0,,,,,"Which game did you play the most this year? (Enter ""None"" if you didn't play any)",,,0.7,0,minecraft,,,,,,,,,,,,,,,,,,,,,,,,,,,,,,,,,,,,,,,,,,,,,,,,,,,,,,,,,,,
,613fb1f6fc794e7fc4059b8f,627c6fcbc97af1b5a3f18d90,2022-05-11_21h25.24.739,classification_task,2021.2.3,Win32,59.70862193,627c6715c52fd12f31907bd0,,,,,Visual perception,,,0.7,0,,,,,,,,,,,,,,,,,,,,,,,,,,,,,,,,,,,,,,,,,,,,,,,,,,,,,,,,,,,,
,613fb1f6fc794e7fc4059b8f,627c6fcbc97af1b5a3f18d90,2022-05-11_21h25.24.739,classification_task,2021.2.3,Win32,59.70862193,627c6715c52fd12f31907bd0,,,,,Do you have any form of color blindness?,,,0.7,0,No,64.4218,,,,,,,,,,,,,,,,,,,,,,,,,,,,,,,,,,,,,,,,,,,,,,,,,,,,,,,,,,
,613fb1f6fc794e7fc4059b8f,627c6fcbc97af1b5a3f18d90,2022-05-11_21h25.24.739,classification_task,2021.2.3,Win32,59.70862193,627c6715c52fd12f31907bd0,,,,,Do you use software to change the colour temperature of your screen (e.g. f.lux)?,,,0.7,0,No,67.3361,,,,,,,,,,,,,,,,,,,,,,,,,,,,,,,,,,,,,,,,,,,,,,,,,,,,,,,,,,
,613fb1f6fc794e7fc4059b8f,627c6fcbc97af1b5a3f18d90,2022-05-11_21h25.24.739,classification_task,2021.2.3,Win32,59.70862193,627c6715c52fd12f31907bd0,,,,,,,,,,,,space,73.0062,space,10.5268,0,0,0,0,1,,,,,,,,,,,,,,,,,,,,,,,,,,,,,,,,,,,,,,,,,,,,,,,,,
,613fb1f6fc794e7fc4059b8f,627c6fcbc97af1b5a3f18d90,2022-05-11_21h25.24.739,classification_task,2021.2.3,Win32,59.70862193,627c6715c52fd12f31907bd0,,,,,,,,,,,,,,space,19.2637,1,0,1,0,1,,,,,,,,,,,,,,,,,,,,,,,,,,,,,,,,,,,,,,,,,,,,,,,,,
,613fb1f6fc794e7fc4059b8f,627c6fcbc97af1b5a3f18d90,2022-05-11_21h25.24.739,classification_task,2021.2.3,Win32,59.70862193,627c6715c52fd12f31907bd0,,,,,,,,,,,,,,space,55.2564,2,0,2,0,1,,,,,,,,,,,,,,,,,,,,,,,,,,,,,,,,,,,,,,,,,,,,,,,,,
,613fb1f6fc794e7fc4059b8f,627c6fcbc97af1b5a3f18d90,2022-05-11_21h25.24.739,classification_task,2021.2.3,Win32,59.70862193,627c6715c52fd12f31907bd0,,,,,,,,,,,,,,space,9.9676,3,0,3,0,1,,,,,,,,,,,,,,,,,,,,,,,,,,,,,,,,,,,,,,,,,,,,,,,,,
,613fb1f6fc794e7fc4059b8f,627c6fcbc97af1b5a3f18d90,2022-05-11_21h25.24.739,classification_task,2021.2.3,Win32,59.70862193,627c6715c52fd12f31907bd0,,,,,,,,,,,,,,space,12.9416,4,0,4,0,1,,,,,,,,,,,,,,,,,,,,,,,,,,,,,,,,,,,,,,,,,,,,,,,,,
,613fb1f6fc794e7fc4059b8f,627c6fcbc97af1b5a3f18d90,2022-05-11_21h25.24.739,classification_task,2021.2.3,Win32,59.70862193,627c6715c52fd12f31907bd0,,,,,,,,,,,,,,,,,,,,,space,15.5825,,0,"[""0.200"",""0.421"",""0.132"",""0.913""]","[1,1,0,1]",0,0,0,0,1,0,1,,,0,FALSE,,,,,,,,,,,,,,,,,,,,,,,,,,,,,,,,
,613fb1f6fc794e7fc4059b8f,627c6fcbc97af1b5a3f18d90,2022-05-11_21h25.24.739,classification_task,2021.2.3,Win32,59.70862193,627c6715c52fd12f31907bd0,,,,,,,,,,,,,,,,,,,,,,,,0,"[""0.251"",""0.527"",""0.147"",""0.949""]","[1,1,0,1]",0,1,1,1,1,0,0,,,0,FALSE,,,,,,,,,,,,,,,,,,,,,,,,,,,,,,,,
,613fb1f6fc794e7fc4059b8f,627c6fcbc97af1b5a3f18d90,2022-05-11_21h25.24.739,classification_task,2021.2.3,Win32,59.70862193,627c6715c52fd12f31907bd0,,,,,,,,,,,,,,,,,,,,,,,a,1,"[""0.251"",""0.527"",""0.878"",""0.122""]","[1,1,1,0]",0,2,2,2,1,0,0,,,0,FALSE,3.8577,,,,,,,,,,,,,,,,,,,,,,,,,,,,,,,
,613fb1f6fc794e7fc4059b8f,627c6fcbc97af1b5a3f18d90,2022-05-11_21h25.24.739,classification_task,2021.2.3,Win32,59.70862193,627c6715c52fd12f31907bd0,,,,,,,,,,,,,,,,,,,,,,,l,1,"[""0.085"",""0.563"",""0.619"",""0.739""]","[1,0,1,1]",0,3,3,3,1,1,0,,,0,FALSE,6.1082,,,,,,,,,,,,,,,,,,,,,,,,,,,,,,,
,613fb1f6fc794e7fc4059b8f,627c6fcbc97af1b5a3f18d90,2022-05-11_21h25.24.739,classification_task,2021.2.3,Win32,59.70862193,627c6715c52fd12f31907bd0,,,,,,,,,,,,,,,,,,,,,,,l,1,"[""0.085"",""0.289"",""0.619"",""0.146""]","[1,1,1,0]",0,4,4,4,1,1,0,,,0,FALSE,4.9645,,,,,,,,,,,,,,,,,,,,,,,,,,,,,,,
,613fb1f6fc794e7fc4059b8f,627c6fcbc97af1b5a3f18d90,2022-05-11_21h25.24.739,classification_task,2021.2.3,Win32,59.70862193,627c6715c52fd12f31907bd0,,,,,,,,,,,,,,,,,,,,,,,l,1,"[""0.569"",""0.360"",""0.470"",""0.813""]","[0,1,1,1]",0,5,5,5,1,1,1,,,0,FALSE,6.9781,,,,,,,,,,,,,,,,,,,,,,,,,,,,,,,
,613fb1f6fc794e7fc4059b8f,627c6fcbc97af1b5a3f18d90,2022-05-11_21h25.24.739,classification_task,2021.2.3,Win32,59.70862193,627c6715c52fd12f31907bd0,,,,,,,,,,,,,,,,,,,,,,,l,1,"[""0.027"",""0.568"",""0.470"",""0.813""]","[1,0,1,1]",0,6,6,6,1,1,1,,,0,FALSE,4.8751,,,,,,,,,,,,,,,,,,,,,,,,,,,,,,,
,613fb1f6fc794e7fc4059b8f,627c6fcbc97af1b5a3f18d90,2022-05-11_21h25.24.739,classification_task,2021.2.3,Win32,59.70862193,627c6715c52fd12f31907bd0,,,,,,,,,,,,,,,,,,,,,,,a,1,"[""0.200"",""0.777"",""0.671"",""0.913""]","[1,0,1,1]",0,7,7,7,1,0,1,,,0,FALSE,7.2738,,,,,,,,,,,,,,,,,,,,,,,,,,,,,,,
,613fb1f6fc794e7fc4059b8f,627c6fcbc97af1b5a3f18d90,2022-05-11_21h25.24.739,classification_task,2021.2.3,Win32,59.70862193,627c6715c52fd12f31907bd0,,,,,,,,,,,,,,,,,,,,,,,a,1,"[""0.200"",""0.421"",""0.671"",""0.146""]","[1,1,1,0]",0,8,8,8,1,0,1,,,0,FALSE,8.9255,,,,,,,,,,,,,,,,,,,,,,,,,,,,,,,
,613fb1f6fc794e7fc4059b8f,627c6fcbc97af1b5a3f18d90,2022-05-11_21h25.24.739,classification_task,2021.2.3,Win32,59.70862193,627c6715c52fd12f31907bd0,,,,,,,,,,,,,,,,,,,,,,,a,1,"[""0.130"",""0.527"",""0.878"",""0.949""]","[0,1,1,1]",0,9,9,9,1,0,0,,,0,FALSE,8.4506,,,,,,,,,,,,,,,,,,,,,,,,,,,,,,,
,613fb1f6fc794e7fc4059b8f,627c6fcbc97af1b5a3f18d90,2022-05-11_21h25.24.739,classification_task,2021.2.3,Win32,59.70862193,627c6715c52fd12f31907bd0,,,,,,,,,,,,,,,,,,,,,,,a,1,"[""0.563"",""0.421"",""0.671"",""0.913""]","[0,1,1,1]",0,10,10,10,1,0,1,,,0,FALSE,5.5513,,,,,,,,,,,,,,,,,,,,,,,,,,,,,,,
,613fb1f6fc794e7fc4059b8f,627c6fcbc97af1b5a3f18d90,2022-05-11_21h25.24.739,classification_task,2021.2.3,Win32,59.70862193,627c6715c52fd12f31907bd0,,,,,,,,,,,,,,,,,,,,,,,l,1,"[""0.122"",""0.289"",""0.619"",""0.739""]","[0,1,1,1]",0,11,11,11,1,1,0,,,0,FALSE,6.0682,,,,,,,,,,,,,,,,,,,,,,,,,,,,,,,
,613fb1f6fc794e7fc4059b8f,627c6fcbc97af1b5a3f18d90,2022-05-11_21h25.24.739,classification_task,2021.2.3,Win32,59.70862193,627c6715c52fd12f31907bd0,,,,,,,,,,,,,,,,,,,,,,,l,1,"[""0.027"",""0.360"",""0.777"",""0.813""]","[1,1,0,1]",0,12,12,12,1,1,1,,,0,FALSE,6.2354,,,,,,,,,,,,,,,,,,,,,,,,,,,,,,,
,613fb1f6fc794e7fc4059b8f,627c6fcbc97af1b5a3f18d90,2022-05-11_21h25.24.739,classification_task,2021.2.3,Win32,59.70862193,627c6715c52fd12f31907bd0,,,,,,,,,,,,,,,,,,,,,,,,0,"[""0.027"",""0.360"",""0.470"",""0.571""]","[1,1,1,0]",0,13,13,13,1,1,1,,,0,FALSE,,,,,,,,,,,,,,,,,,,,,,,,,,,,,,,,
,613fb1f6fc794e7fc4059b8f,627c6fcbc97af1b5a3f18d90,2022-05-11_21h25.24.739,classification_task,2021.2.3,Win32,59.70862193,627c6715c52fd12f31907bd0,,,,,,,,,,,,,,,,,,,,,,,a,1,"[""0.251"",""0.563"",""0.878"",""0.949""]","[1,0,1,1]",0,14,14,14,1,0,0,,,0,FALSE,3.0767,,,,,,,,,,,,,,,,,,,,,,,,,,,,,,,
,613fb1f6fc794e7fc4059b8f,627c6fcbc97af1b5a3f18d90,2022-05-11_21h25.24.739,classification_task,2021.2.3,Win32,59.70862193,627c6715c52fd12f31907bd0,,,,,,,,,,,,,,,,,,,,,,,l,1,"[""0.085"",""0.289"",""0.122"",""0.739""]","[1,1,0,1]",0,15,15,15,1,1,0,,,0,FALSE,2.3308,,,,,,,,,,,,,,,,,,,,,,,,,,,,,,,
,613fb1f6fc794e7fc4059b8f,627c6fcbc97af1b5a3f18d90,2022-05-11_21h25.24.739,classification_task,2021.2.3,Win32,59.70862193,627c6715c52fd12f31907bd0,,,,,,,,,,,,,,,,,,,,,,,l,1,"[""0.085"",""0.289"",""0.568"",""0.739""]","[1,1,0,1]",0,16,16,16,1,1,0,,,0,FALSE,3.3158,,,,,,,,,,,,,,,,,,,,,,,,,,,,,,,
,613fb1f6fc794e7fc4059b8f,627c6fcbc97af1b5a3f18d90,2022-05-11_21h25.24.739,classification_task,2021.2.3,Win32,59.70862193,627c6715c52fd12f31907bd0,,,,,,,,,,,,,,,,,,,,,,,a,1,"[""0.777"",""0.527"",""0.878"",""0.949""]","[0,1,1,1]",0,17,17,17,1,0,0,,,0,FALSE,2.9434,,,,,,,,,,,,,,,,,,,,,,,,,,,,,,,
,613fb1f6fc794e7fc4059b8f,627c6fcbc97af1b5a3f18d90,2022-05-11_21h25.24.739,classification_task,2021.2.3,Win32,59.70862193,627c6715c52fd12f31907bd0,,,,,,,,,,,,,,,,,,,,,,,a,1,"[""0.251"",""0.568"",""0.878"",""0.949""]","[1,0,1,1]",0,18,18,18,1,0,0,,,0,FALSE,3.6451,,,,,,,,,,,,,,,,,,,,,,,,,,,,,,,
,613fb1f6fc794e7fc4059b8f,627c6fcbc97af1b5a3f18d90,2022-05-11_21h25.24.739,classification_task,2021.2.3,Win32,59.70862193,627c6715c52fd12f31907bd0,,,,,,,,,,,,,,,,,,,,,,,a,0,"[""0.027"",""0.568"",""0.470"",""0.813""]","[1,0,1,1]",0,19,19,19,1,1,1,,,0,FALSE,3.3231,,,,,,,,,,,,,,,,,,,,,,,,,,,,,,,
,613fb1f6fc794e7fc4059b8f,627c6fcbc97af1b5a3f18d90,2022-05-11_21h25.24.739,classification_task,2021.2.3,Win32,59.70862193,627c6715c52fd12f31907bd0,,,,,,,,,,,,,,,,,,,,,,,a,1,"[""0.251"",""0.527"",""0.146"",""0.949""]","[1,1,0,1]",0,20,20,20,1,0,0,,,0,FALSE,4.1253,,,,,,,,,,,,,,,,,,,,,,,,,,,,,,,
,613fb1f6fc794e7fc4059b8f,627c6fcbc97af1b5a3f18d90,2022-05-11_21h25.24.739,classification_task,2021.2.3,Win32,59.70862193,627c6715c52fd12f31907bd0,,,,,,,,,,,,,,,,,,,,,,,l,1,"[""0.146"",""0.360"",""0.470"",""0.813""]","[0,1,1,1]",0,21,21,21,1,1,1,,,0,FALSE,3.333,,,,,,,,,,,,,,,,,,,,,,,,,,,,,,,
,613fb1f6fc794e7fc4059b8f,627c6fcbc97af1b5a3f18d90,2022-05-11_21h25.24.739,classification_task,2021.2.3,Win32,59.70862193,627c6715c52fd12f31907bd0,,,,,,,,,,,,,,,,,,,,,,,a,1,"[""0.200"",""0.421"",""0.671"",""0.132""]","[1,1,1,0]",0,22,22,22,1,0,1,,,0,FALSE,5.928,,,,,,,,,,,,,,,,,,,,,,,,,,,,,,,
,613fb1f6fc794e7fc4059b8f,627c6fcbc97af1b5a3f18d90,2022-05-11_21h25.24.739,classification_task,2021.2.3,Win32,59.70862193,627c6715c52fd12f31907bd0,,,,,,,,,,,,,,,,,,,,,,,a,1,"[""0.251"",""0.527"",""0.878"",""0.777""]","[1,1,1,0]",0,23,23,23,1,0,0,,,0,FALSE,2.9388,,,,,,,,,,,,,,,,,,,,,,,,,,,,,,,
,613fb1f6fc794e7fc4059b8f,627c6fcbc97af1b5a3f18d90,2022-05-11_21h25.24.739,classification_task,2021.2.3,Win32,59.70862193,627c6715c52fd12f31907bd0,,,,,,,,,,,,,,,,,,,,,,,a,0,"[""0.027"",""0.360"",""0.470"",""0.777""]","[1,1,1,0]",0,24,24,24,1,1,1,,,0,FALSE,9.1043,,,,,,,,,,,,,,,,,,,,,,,,,,,,,,,
,613fb1f6fc794e7fc4059b8f,627c6fcbc97af1b5a3f18d90,2022-05-11_21h25.24.739,classification_task,2021.2.3,Win32,59.70862193,627c6715c52fd12f31907bd0,,,,,,,,,,,,,,,,,,,,,,,l,1,"[""0.085"",""0.146"",""0.619"",""0.739""]","[1,0,1,1]",0,25,25,25,1,1,0,,,0,FALSE,4.6655,,,,,,,,,,,,,,,,,,,,,,,,,,,,,,,
,613fb1f6fc794e7fc4059b8f,627c6fcbc97af1b5a3f18d90,2022-05-11_21h25.24.739,classification_task,2021.2.3,Win32,59.70862193,627c6715c52fd12f31907bd0,,,,,,,,,,,,,,,,,,,,,,,l,1,"[""0.027"",""0.360"",""0.146"",""0.813""]","[1,1,0,1]",0,26,26,26,1,1,1,,,0,FALSE,3.939,,,,,,,,,,,,,,,,,,,,,,,,,,,,,,,
,613fb1f6fc794e7fc4059b8f,627c6fcbc97af1b5a3f18d90,2022-05-11_21h25.24.739,classification_task,2021.2.3,Win32,59.70862193,627c6715c52fd12f31907bd0,,,,,,,,,,,,,,,,,,,,,,,l,0,"[""0.200"",""0.421"",""0.132"",""0.913""]","[1,1,0,1]",0,27,27,27,1,0,1,,,0,FALSE,7.0022,,,,,,,,,,,,,,,,,,,,,,,,,,,,,,,
,613fb1f6fc794e7fc4059b8f,627c6fcbc97af1b5a3f18d90,2022-05-11_21h25.24.739,classification_task,2021.2.3,Win32,59.70862193,627c6715c52fd12f31907bd0,,,,,,,,,,,,,,,,,,,,,,,a,1,"[""0.200"",""0.569"",""0.671"",""0.913""]","[1,0,1,1]",0,28,28,28,1,0,1,,,0,FALSE,3.3004,,,,,,,,,,,,,,,,,,,,,,,,,,,,,,,
,613fb1f6fc794e7fc4059b8f,627c6fcbc97af1b5a3f18d90,2022-05-11_21h25.24.739,classification_task,2021.2.3,Win32,59.70862193,627c6715c52fd12f31907bd0,,,,,,,,,,,,,,,,,,,,,,,a,0,"[""0.085"",""0.289"",""0.619"",""0.777""]","[1,1,1,0]",0,29,29,29,1,1,0,,,0,FALSE,3.8622,,,,,,,,,,,,,,,,,,,,,,,,,,,,,,,
,613fb1f6fc794e7fc4059b8f,627c6fcbc97af1b5a3f18d90,2022-05-11_21h25.24.739,classification_task,2021.2.3,Win32,59.70862193,627c6715c52fd12f31907bd0,,,,,,,,,,,,,,,,,,,,,,,a,0,"[""0.130"",""0.289"",""0.619"",""0.739""]","[0,1,1,1]",0,30,30,30,1,1,0,,,0,FALSE,6.0093,,,,,,,,,,,,,,,,,,,,,,,,,,,,,,,
,613fb1f6fc794e7fc4059b8f,627c6fcbc97af1b5a3f18d90,2022-05-11_21h25.24.739,classification_task,2021.2.3,Win32,59.70862193,627c6715c52fd12f31907bd0,,,,,,,,,,,,,,,,,,,,,,,a,1,"[""0.147"",""0.421"",""0.671"",""0.913""]","[0,1,1,1]",0,31,31,31,1,0,1,,,0,FALSE,3.6045,,,,,,,,,,,,,,,,,,,,,,,,,,,,,,,
,613fb1f6fc794e7fc4059b8f,627c6fcbc97af1b5a3f18d90,2022-05-11_21h25.24.739,classification_task,2021.2.3,Win32,59.70862193,627c6715c52fd12f31907bd0,,,,,,,,,,,,,,,,,,,,,,,l,0,"[""0.200"",""0.421"",""0.147"",""0.913""]","[1,1,0,1]",0,32,32,32,1,0,1,,,0,FALSE,6.9721,,,,,,,,,,,,,,,,,,,,,,,,,,,,,,,
,613fb1f6fc794e7fc4059b8f,627c6fcbc97af1b5a3f18d90,2022-05-11_21h25.24.739,classification_task,2021.2.3,Win32,59.70862193,627c6715c52fd12f31907bd0,,,,,,,,,,,,,,,,,,,,,,,a,0,"[""0.085"",""0.569"",""0.619"",""0.739""]","[1,0,1,1]",0,33,33,33,1,1,0,,,0,FALSE,5.2283,,,,,,,,,,,,,,,,,,,,,,,,,,,,,,,
,613fb1f6fc794e7fc4059b8f,627c6fcbc97af1b5a3f18d90,2022-05-11_21h25.24.739,classification_task,2021.2.3,Win32,59.70862193,627c6715c52fd12f31907bd0,,,,,,,,,,,,,,,,,,,,,,,a,1,"[""0.251"",""0.157"",""0.878"",""0.949""]","[1,0,1,1]",0,34,34,34,1,0,0,,,0,FALSE,3.0433,,,,,,,,,,,,,,,,,,,,,,,,,,,,,,,
,613fb1f6fc794e7fc4059b8f,627c6fcbc97af1b5a3f18d90,2022-05-11_21h25.24.739,classification_task,2021.2.3,Win32,59.70862193,627c6715c52fd12f31907bd0,,,,,,,,,,,,,,,,,,,,,,,a,0,"[""0.027"",""0.130"",""0.470"",""0.813""]","[1,0,1,1]",0,35,35,35,1,1,1,,,0,FALSE,5.3589,,,,,,,,,,,,,,,,,,,,,,,,,,,,,,,
,613fb1f6fc794e7fc4059b8f,627c6fcbc97af1b5a3f18d90,2022-05-11_21h25.24.739,classification_task,2021.2.3,Win32,59.70862193,627c6715c52fd12f31907bd0,,,,,,,,,,,,,,,,,,,,,,,l,0,"[""0.200"",""0.421"",""0.671"",""0.573""]","[1,1,1,0]",0,36,36,36,1,0,1,,,0,FALSE,3.6111,,,,,,,,,,,,,,,,,,,,,,,,,,,,,,,
,613fb1f6fc794e7fc4059b8f,627c6fcbc97af1b5a3f18d90,2022-05-11_21h25.24.739,classification_task,2021.2.3,Win32,59.70862193,627c6715c52fd12f31907bd0,,,,,,,,,,,,,,,,,,,,,,,a,0,"[""0.085"",""0.289"",""0.777"",""0.739""]","[1,1,0,1]",0,37,37,37,1,1,0,,,0,FALSE,2.4953,,,,,,,,,,,,,,,,,,,,,,,,,,,,,,,
,613fb1f6fc794e7fc4059b8f,627c6fcbc97af1b5a3f18d90,2022-05-11_21h25.24.739,classification_task,2021.2.3,Win32,59.70862193,627c6715c52fd12f31907bd0,,,,,,,,,,,,,,,,,,,,,,,a,1,"[""0.777"",""0.421"",""0.671"",""0.913""]","[0,1,1,1]",0,38,38,38,1,0,1,,,0,FALSE,3.7604,,,,,,,,,,,,,,,,,,,,,,,,,,,,,,,
,613fb1f6fc794e7fc4059b8f,627c6fcbc97af1b5a3f18d90,2022-05-11_21h25.24.739,classification_task,2021.2.3,Win32,59.70862193,627c6715c52fd12f31907bd0,,,,,,,,,,,,,,,,,,,,,,,a,1,"[""0.157"",""0.527"",""0.878"",""0.949""]","[0,1,1,1]",0,39,39,39,1,0,0,,,0,FALSE,2.545,,,,,,,,,,,,,,,,,,,,,,,,,,,,,,,
,613fb1f6fc794e7fc4059b8f,627c6fcbc97af1b5a3f18d90,2022-05-11_21h25.24.739,classification_task,2021.2.3,Win32,59.70862193,627c6715c52fd12f31907bd0,,,,,,,,,,,,,,,,,,,,,,,l,0,"[""0.251"",""0.527"",""0.878"",""0.122""]","[1,1,1,0]",0,40,40,40,1,0,0,,,0,FALSE,2.3416,,,,,,,,,,,,,,,,,,,,,,,,,,,,,,,
,613fb1f6fc794e7fc4059b8f,627c6fcbc97af1b5a3f18d90,2022-05-11_21h25.24.739,classification_task,2021.2.3,Win32,59.70862193,627c6715c52fd12f31907bd0,,,,,,,,,,,,,,,,,,,,,,,l,0,"[""0.200"",""0.777"",""0.671"",""0.913""]","[1,0,1,1]",0,41,41,41,1,0,1,,,0,FALSE,2.2485,,,,,,,,,,,,,,,,,,,,,,,,,,,,,,,
,613fb1f6fc794e7fc4059b8f,627c6fcbc97af1b5a3f18d90,2022-05-11_21h25.24.739,classification_task,2021.2.3,Win32,59.70862193,627c6715c52fd12f31907bd0,,,,,,,,,,,,,,,,,,,,,,,a,0,"[""0.027"",""0.360"",""0.132"",""0.813""]","[1,1,0,1]",0,42,42,42,1,1,1,,,0,FALSE,2.3764,,,,,,,,,,,,,,,,,,,,,,,,,,,,,,,
,613fb1f6fc794e7fc4059b8f,627c6fcbc97af1b5a3f18d90,2022-05-11_21h25.24.739,classification_task,2021.2.3,Win32,59.70862193,627c6715c52fd12f31907bd0,,,,,,,,,,,,,,,,,,,,,,,l,1,"[""0.085"",""0.289"",""0.619"",""0.126""]","[1,1,1,0]",0,43,43,43,1,1,0,,,0,FALSE,2.4152,,,,,,,,,,,,,,,,,,,,,,,,,,,,,,,
,613fb1f6fc794e7fc4059b8f,627c6fcbc97af1b5a3f18d90,2022-05-11_21h25.24.739,classification_task,2021.2.3,Win32,59.70862193,627c6715c52fd12f31907bd0,,,,,,,,,,,,,,,,,,,,,,,l,0,"[""0.251"",""0.527"",""0.122"",""0.949""]","[1,1,0,1]",0,44,44,44,1,0,0,,,0,FALSE,4.8795,,,,,,,,,,,,,,,,,,,,,,,,,,,,,,,
,613fb1f6fc794e7fc4059b8f,627c6fcbc97af1b5a3f18d90,2022-05-11_21h25.24.739,classification_task,2021.2.3,Win32,59.70862193,627c6715c52fd12f31907bd0,,,,,,,,,,,,,,,,,,,,,,,l,1,"[""0.130"",""0.289"",""0.619"",""0.739""]","[0,1,1,1]",0,45,45,45,1,1,0,,,0,FALSE,1.6665,,,,,,,,,,,,,,,,,,,,,,,,,,,,,,,
,613fb1f6fc794e7fc4059b8f,627c6fcbc97af1b5a3f18d90,2022-05-11_21h25.24.739,classification_task,2021.2.3,Win32,59.70862193,627c6715c52fd12f31907bd0,,,,,,,,,,,,,,,,,,,,,,,l,1,"[""0.027"",""0.360"",""0.470"",""0.569""]","[1,1,1,0]",0,46,46,46,1,1,1,,,0,FALSE,4.2141,,,,,,,,,,,,,,,,,,,,,,,,,,,,,,,
,613fb1f6fc794e7fc4059b8f,627c6fcbc97af1b5a3f18d90,2022-05-11_21h25.24.739,classification_task,2021.2.3,Win32,59.70862193,627c6715c52fd12f31907bd0,,,,,,,,,,,,,,,,,,,,,,,a,0,"[""0.130"",""0.360"",""0.470"",""0.813""]","[0,1,1,1]",0,47,47,47,1,1,1,,,0,FALSE,2.1471,,,,,,,,,,,,,,,,,,,,,,,,,,,,,,,
,613fb1f6fc794e7fc4059b8f,627c6fcbc97af1b5a3f18d90,2022-05-11_21h25.24.739,classification_task,2021.2.3,Win32,59.70862193,627c6715c52fd12f31907bd0,,,,,,,,,,,,,,,,,,,,,,,l,1,"[""0.122"",""0.360"",""0.470"",""0.813""]","[0,1,1,1]",0,48,48,48,1,1,1,,,0,FALSE,1.1832,,,,,,,,,,,,,,,,,,,,,,,,,,,,,,,
,613fb1f6fc794e7fc4059b8f,627c6fcbc97af1b5a3f18d90,2022-05-11_21h25.24.739,classification_task,2021.2.3,Win32,59.70862193,627c6715c52fd12f31907bd0,,,,,,,,,,,,,,,,,,,,,,,a,1,"[""0.200"",""0.421"",""0.671"",""0.157""]","[1,1,1,0]",0,49,49,49,1,0,1,,,0,FALSE,3.4975,,,,,,,,,,,,,,,,,,,,,,,,,,,,,,,
,613fb1f6fc794e7fc4059b8f,627c6fcbc97af1b5a3f18d90,2022-05-11_21h25.24.739,classification_task,2021.2.3,Win32,59.70862193,627c6715c52fd12f31907bd0,,,,,,,,,,,,,,,,,,,,,,,l,0,"[""0.251"",""0.527"",""0.569"",""0.949""]","[1,1,0,1]",0,50,50,50,1,0,0,,,0,FALSE,3.7947,,,,,,,,,,,,,,,,,,,,,,,,,,,,,,,
,613fb1f6fc794e7fc4059b8f,627c6fcbc97af1b5a3f18d90,2022-05-11_21h25.24.739,classification_task,2021.2.3,Win32,59.70862193,627c6715c52fd12f31907bd0,,,,,,,,,,,,,,,,,,,,,,,l,1,"[""0.085"",""0.568"",""0.619"",""0.739""]","[1,0,1,1]",0,51,51,51,1,1,0,,,0,FALSE,2.5632,,,,,,,,,,,,,,,,,,,,,,,,,,,,,,,
,613fb1f6fc794e7fc4059b8f,627c6fcbc97af1b5a3f18d90,2022-05-11_21h25.24.739,classification_task,2021.2.3,Win32,59.70862193,627c6715c52fd12f31907bd0,,,,,,,,,,,,,,,,,,,,,,,a,1,"[""0.130"",""0.527"",""0.878"",""0.949""]","[0,1,1,1]",0,52,52,52,1,0,0,,,0,FALSE,0.8436,,,,,,,,,,,,,,,,,,,,,,,,,,,,,,,
,613fb1f6fc794e7fc4059b8f,627c6fcbc97af1b5a3f18d90,2022-05-11_21h25.24.739,classification_task,2021.2.3,Win32,59.70862193,627c6715c52fd12f31907bd0,,,,,,,,,,,,,,,,,,,,,,,l,1,"[""0.085"",""0.289"",""0.573"",""0.739""]","[1,1,0,1]",0,53,53,53,1,1,0,,,0,FALSE,3.5982,,,,,,,,,,,,,,,,,,,,,,,,,,,,,,,
,613fb1f6fc794e7fc4059b8f,627c6fcbc97af1b5a3f18d90,2022-05-11_21h25.24.739,classification_task,2021.2.3,Win32,59.70862193,627c6715c52fd12f31907bd0,,,,,,,,,,,,,,,,,,,,,,,l,0,"[""0.251"",""0.527"",""0.878"",""0.777""]","[1,1,1,0]",0,54,54,54,1,0,0,,,0,FALSE,3.9436,,,,,,,,,,,,,,,,,,,,,,,,,,,,,,,
,613fb1f6fc794e7fc4059b8f,627c6fcbc97af1b5a3f18d90,2022-05-11_21h25.24.739,classification_task,2021.2.3,Win32,59.70862193,627c6715c52fd12f31907bd0,,,,,,,,,,,,,,,,,,,,,,,a,1,"[""0.200"",""0.421"",""0.571"",""0.913""]","[1,1,0,1]",0,55,55,55,1,0,1,,,0,FALSE,1.6938,,,,,,,,,,,,,,,,,,,,,,,,,,,,,,,
,613fb1f6fc794e7fc4059b8f,627c6fcbc97af1b5a3f18d90,2022-05-11_21h25.24.739,classification_task,2021.2.3,Win32,59.70862193,627c6715c52fd12f31907bd0,,,,,,,,,,,,,,,,,,,,,,,l,0,"[""0.200"",""0.122"",""0.671"",""0.913""]","[1,0,1,1]",0,56,56,56,1,0,1,,,0,FALSE,2.244,,,,,,,,,,,,,,,,,,,,,,,,,,,,,,,
,613fb1f6fc794e7fc4059b8f,627c6fcbc97af1b5a3f18d90,2022-05-11_21h25.24.739,classification_task,2021.2.3,Win32,59.70862193,627c6715c52fd12f31907bd0,,,,,,,,,,,,,,,,,,,,,,,l,1,"[""0.027"",""0.360"",""0.147"",""0.813""]","[1,1,0,1]",0,57,57,57,1,1,1,,,0,FALSE,1.8169,,,,,,,,,,,,,,,,,,,,,,,,,,,,,,,
,613fb1f6fc794e7fc4059b8f,627c6fcbc97af1b5a3f18d90,2022-05-11_21h25.24.739,classification_task,2021.2.3,Win32,59.70862193,627c6715c52fd12f31907bd0,,,,,,,,,,,,,,,,,,,,,,,a,1,"[""0.146"",""0.421"",""0.671"",""0.913""]","[0,1,1,1]",0,58,58,58,1,0,1,,,0,FALSE,0.961,,,,,,,,,,,,,,,,,,,,,,,,,,,,,,,
,613fb1f6fc794e7fc4059b8f,627c6fcbc97af1b5a3f18d90,2022-05-11_21h25.24.739,classification_task,2021.2.3,Win32,59.70862193,627c6715c52fd12f31907bd0,,,,,,,,,,,,,,,,,,,,,,,a,0,"[""0.085"",""0.289"",""0.619"",""0.126""]","[1,1,1,0]",0,59,59,59,1,1,0,,,0,FALSE,1.9655,,,,,,,,,,,,,,,,,,,,,,,,,,,,,,,
,613fb1f6fc794e7fc4059b8f,627c6fcbc97af1b5a3f18d90,2022-05-11_21h25.24.739,classification_task,2021.2.3,Win32,59.70862193,627c6715c52fd12f31907bd0,,,,,,,,,,,,,,,,,,,,,,,a,0,"[""0.027"",""0.360"",""0.470"",""0.157""]","[1,1,1,0]",0,60,60,60,1,1,1,,,0,FALSE,2.3741,,,,,,,,,,,,,,,,,,,,,,,,,,,,,,,
,613fb1f6fc794e7fc4059b8f,627c6fcbc97af1b5a3f18d90,2022-05-11_21h25.24.739,classification_task,2021.2.3,Win32,59.70862193,627c6715c52fd12f31907bd0,,,,,,,,,,,,,,,,,,,,,,,l,1,"[""0.146"",""0.289"",""0.619"",""0.739""]","[0,1,1,1]",0,61,61,61,1,1,0,,,0,FALSE,1.3991,,,,,,,,,,,,,,,,,,,,,,,,,,,,,,,
,613fb1f6fc794e7fc4059b8f,627c6fcbc97af1b5a3f18d90,2022-05-11_21h25.24.739,classification_task,2021.2.3,Win32,59.70862193,627c6715c52fd12f31907bd0,,,,,,,,,,,,,,,,,,,,,,,l,1,"[""0.027"",""0.573"",""0.470"",""0.813""]","[1,0,1,1]",0,62,62,62,1,1,1,,,0,FALSE,1.0504,,,,,,,,,,,,,,,,,,,,,,,,,,,,,,,
,613fb1f6fc794e7fc4059b8f,627c6fcbc97af1b5a3f18d90,2022-05-11_21h25.24.739,classification_task,2021.2.3,Win32,59.70862193,627c6715c52fd12f31907bd0,,,,,,,,,,,,,,,,,,,,,,,l,0,"[""0.251"",""0.573"",""0.878"",""0.949""]","[1,0,1,1]",0,63,63,63,1,0,0,,,0,FALSE,4.3845,,,,,,,,,,,,,,,,,,,,,,,,,,,,,,,
,613fb1f6fc794e7fc4059b8f,627c6fcbc97af1b5a3f18d90,2022-05-11_21h25.24.739,classification_task,2021.2.3,Win32,59.70862193,627c6715c52fd12f31907bd0,,,,,,,,,,,,,,,,,,,,,,,,,,,,,,,,,,,,,,,0, ,,0,7.351557907,632.5329,0,0,0,0,1,2,1,,,,,,,,,,,,,,,,,,
,613fb1f6fc794e7fc4059b8f,627c6fcbc97af1b5a3f18d90,2022-05-11_21h25.24.739,classification_task,2021.2.3,Win32,59.70862193,627c6715c52fd12f31907bd0,,,,,,,,,,,,,,,,,,,,,,,,,,,,,,,,,,,,,,,1,  ,,0,6.984126984,636.5307,0,0,0,0,1,2,1,,,,,,,,,,,,,,,,,,
,613fb1f6fc794e7fc4059b8f,627c6fcbc97af1b5a3f18d90,2022-05-11_21h25.24.739,classification_task,2021.2.3,Win32,59.70862193,627c6715c52fd12f31907bd0,,,,,,,,,,,,,,,,,,,,,,,,,,,,,,,,,,,,,,,2,  ,,0,7.865961199,639.8006,0,0,0,0,1,2,1,,,,,,,,,,,,,,,,,,
,613fb1f6fc794e7fc4059b8f,627c6fcbc97af1b5a3f18d90,2022-05-11_21h25.24.739,classification_task,2021.2.3,Win32,59.70862193,627c6715c52fd12f31907bd0,,,,,,,,,,,,,,,,,,,,,,,,,,,,,,,,,,,,,,,,,,,,,0,0,0,0,1,,1,,,,,,,,,,,,,,,,,,
,613fb1f6fc794e7fc4059b8f,627c6fcbc97af1b5a3f18d90,2022-05-11_21h25.24.739,classification_task,2021.2.3,Win32,59.70862193,627c6715c52fd12f31907bd0,,,,,,,,,,,,,,,,,,,,,space,13.0749,a,0,"[""0.027"",""0.130"",""0.470"",""0.813""]","[1,0,1,1]",0,0,0,0,1,1,1,,,0,FALSE,3.8631,,,,,,,,,,,,,,,,,,,,,,,,,,,,,,,
,613fb1f6fc794e7fc4059b8f,627c6fcbc97af1b5a3f18d90,2022-05-11_21h25.24.739,classification_task,2021.2.3,Win32,59.70862193,627c6715c52fd12f31907bd0,,,,,,,,,,,,,,,,,,,,,,,l,1,"[""0.085"",""0.289"",""0.571"",""0.739""]","[1,1,0,1]",0,1,1,1,1,1,0,,,0,FALSE,3.7488,,,,,,,,,,,,,,,,,,,,,,,,,,,,,,,
,613fb1f6fc794e7fc4059b8f,627c6fcbc97af1b5a3f18d90,2022-05-11_21h25.24.739,classification_task,2021.2.3,Win32,59.70862193,627c6715c52fd12f31907bd0,,,,,,,,,,,,,,,,,,,,,,,a,1,"[""0.200"",""0.421"",""0.671"",""0.777""]","[1,1,1,0]",0,2,2,2,1,0,1,,,0,FALSE,6.8313,,,,,,,,,,,,,,,,,,,,,,,,,,,,,,,
,613fb1f6fc794e7fc4059b8f,627c6fcbc97af1b5a3f18d90,2022-05-11_21h25.24.739,classification_task,2021.2.3,Win32,59.70862193,627c6715c52fd12f31907bd0,,,,,,,,,,,,,,,,,,,,,,,l,0,"[""0.165"",""0.527"",""0.878"",""0.949""]","[0,1,1,1]",0,3,3,3,1,0,0,,,0,FALSE,5.0334,,,,,,,,,,,,,,,,,,,,,,,,,,,,,,,
,613fb1f6fc794e7fc4059b8f,627c6fcbc97af1b5a3f18d90,2022-05-11_21h25.24.739,classification_task,2021.2.3,Win32,59.70862193,627c6715c52fd12f31907bd0,,,,,,,,,,,,,,,,,,,,,,,a,0,"[""0.027"",""0.360"",""0.777"",""0.813""]","[1,1,0,1]",0,4,4,4,1,1,1,,,0,FALSE,3.6816,,,,,,,,,,,,,,,,,,,,,,,,,,,,,,,
,613fb1f6fc794e7fc4059b8f,627c6fcbc97af1b5a3f18d90,2022-05-11_21h25.24.739,classification_task,2021.2.3,Win32,59.70862193,627c6715c52fd12f31907bd0,,,,,,,,,,,,,,,,,,,,,,,l,0,"[""0.200"",""0.146"",""0.671"",""0.913""]","[1,0,1,1]",0,5,5,5,1,0,1,,,0,FALSE,4.3493,,,,,,,,,,,,,,,,,,,,,,,,,,,,,,,
,613fb1f6fc794e7fc4059b8f,627c6fcbc97af1b5a3f18d90,2022-05-11_21h25.24.739,classification_task,2021.2.3,Win32,59.70862193,627c6715c52fd12f31907bd0,,,,,,,,,,,,,,,,,,,,,,,a,0,"[""0.147"",""0.289"",""0.619"",""0.739""]","[0,1,1,1]",0,6,6,6,1,1,0,,,0,FALSE,3.5841,,,,,,,,,,,,,,,,,,,,,,,,,,,,,,,
,613fb1f6fc794e7fc4059b8f,627c6fcbc97af1b5a3f18d90,2022-05-11_21h25.24.739,classification_task,2021.2.3,Win32,59.70862193,627c6715c52fd12f31907bd0,,,,,,,,,,,,,,,,,,,,,,,l,0,"[""0.147"",""0.421"",""0.671"",""0.913""]","[0,1,1,1]",0,7,7,7,1,0,1,,,0,FALSE,4.0001,,,,,,,,,,,,,,,,,,,,,,,,,,,,,,,
,613fb1f6fc794e7fc4059b8f,627c6fcbc97af1b5a3f18d90,2022-05-11_21h25.24.739,classification_task,2021.2.3,Win32,59.70862193,627c6715c52fd12f31907bd0,,,,,,,,,,,,,,,,,,,,,,,a,0,"[""0.085"",""0.563"",""0.619"",""0.739""]","[1,0,1,1]",0,8,8,8,1,1,0,,,0,FALSE,0.8333,,,,,,,,,,,,,,,,,,,,,,,,,,,,,,,
,613fb1f6fc794e7fc4059b8f,627c6fcbc97af1b5a3f18d90,2022-05-11_21h25.24.739,classification_task,2021.2.3,Win32,59.70862193,627c6715c52fd12f31907bd0,,,,,,,,,,,,,,,,,,,,,,,l,1,"[""0.027"",""0.360"",""0.470"",""0.126""]","[1,1,1,0]",0,9,9,9,1,1,1,,,0,FALSE,5.7151,,,,,,,,,,,,,,,,,,,,,,,,,,,,,,,
,613fb1f6fc794e7fc4059b8f,627c6fcbc97af1b5a3f18d90,2022-05-11_21h25.24.739,classification_task,2021.2.3,Win32,59.70862193,627c6715c52fd12f31907bd0,,,,,,,,,,,,,,,,,,,,,,,a,1,"[""0.251"",""0.527"",""0.777"",""0.949""]","[1,1,0,1]",0,10,10,10,1,0,0,,,0,FALSE,2.7487,,,,,,,,,,,,,,,,,,,,,,,,,,,,,,,
,613fb1f6fc794e7fc4059b8f,627c6fcbc97af1b5a3f18d90,2022-05-11_21h25.24.739,classification_task,2021.2.3,Win32,59.70862193,627c6715c52fd12f31907bd0,,,,,,,,,,,,,,,,,,,,,,,a,0,"[""0.569"",""0.360"",""0.470"",""0.813""]","[0,1,1,1]",0,11,11,11,1,1,1,,,0,FALSE,3.8659,,,,,,,,,,,,,,,,,,,,,,,,,,,,,,,
,613fb1f6fc794e7fc4059b8f,627c6fcbc97af1b5a3f18d90,2022-05-11_21h25.24.739,classification_task,2021.2.3,Win32,59.70862193,627c6715c52fd12f31907bd0,,,,,,,,,,,,,,,,,,,,,,,a,1,"[""0.251"",""0.527"",""0.878"",""0.130""]","[1,1,1,0]",0,12,12,12,1,0,0,,,0,FALSE,4.0992,,,,,,,,,,,,,,,,,,,,,,,,,,,,,,,
,613fb1f6fc794e7fc4059b8f,627c6fcbc97af1b5a3f18d90,2022-05-11_21h25.24.739,classification_task,2021.2.3,Win32,59.70862193,627c6715c52fd12f31907bd0,,,,,,,,,,,,,,,,,,,,,,,a,0,"[""0.085"",""0.289"",""0.619"",""0.777""]","[1,1,1,0]",0,13,13,13,1,1,0,,,0,FALSE,3.2001,,,,,,,,,,,,,,,,,,,,,,,,,,,,,,,
,613fb1f6fc794e7fc4059b8f,627c6fcbc97af1b5a3f18d90,2022-05-11_21h25.24.739,classification_task,2021.2.3,Win32,59.70862193,627c6715c52fd12f31907bd0,,,,,,,,,,,,,,,,,,,,,,,l,0,"[""0.200"",""0.421"",""0.130"",""0.913""]","[1,1,0,1]",0,14,14,14,1,0,1,,,0,FALSE,3.0667,,,,,,,,,,,,,,,,,,,,,,,,,,,,,,,
,613fb1f6fc794e7fc4059b8f,627c6fcbc97af1b5a3f18d90,2022-05-11_21h25.24.739,classification_task,2021.2.3,Win32,59.70862193,627c6715c52fd12f31907bd0,,,,,,,,,,,,,,,,,,,,,,,a,1,"[""0.251"",""0.569"",""0.878"",""0.949""]","[1,0,1,1]",0,15,15,15,1,0,0,,,0,FALSE,4.5339,,,,,,,,,,,,,,,,,,,,,,,,,,,,,,,
,613fb1f6fc794e7fc4059b8f,627c6fcbc97af1b5a3f18d90,2022-05-11_21h25.24.739,classification_task,2021.2.3,Win32,59.70862193,627c6715c52fd12f31907bd0,,,,,,,,,,,,,,,,,,,,,,,l,0,"[""0.200"",""0.421"",""0.671"",""0.122""]","[1,1,1,0]",0,16,16,16,1,0,1,,,0,FALSE,4.7651,,,,,,,,,,,,,,,,,,,,,,,,,,,,,,,
,613fb1f6fc794e7fc4059b8f,627c6fcbc97af1b5a3f18d90,2022-05-11_21h25.24.739,classification_task,2021.2.3,Win32,59.70862193,627c6715c52fd12f31907bd0,,,,,,,,,,,,,,,,,,,,,,,l,1,"[""0.027"",""0.360"",""0.571"",""0.813""]","[1,1,0,1]",0,17,17,17,1,1,1,,,0,FALSE,1.3826,,,,,,,,,,,,,,,,,,,,,,,,,,,,,,,
,613fb1f6fc794e7fc4059b8f,627c6fcbc97af1b5a3f18d90,2022-05-11_21h25.24.739,classification_task,2021.2.3,Win32,59.70862193,627c6715c52fd12f31907bd0,,,,,,,,,,,,,,,,,,,,,,,a,0,"[""0.573"",""0.360"",""0.470"",""0.813""]","[0,1,1,1]",0,18,18,18,1,1,1,,,0,FALSE,4.5622,,,,,,,,,,,,,,,,,,,,,,,,,,,,,,,
,613fb1f6fc794e7fc4059b8f,627c6fcbc97af1b5a3f18d90,2022-05-11_21h25.24.739,classification_task,2021.2.3,Win32,59.70862193,627c6715c52fd12f31907bd0,,,,,,,,,,,,,,,,,,,,,,,l,1,"[""0.027"",""0.130"",""0.470"",""0.813""]","[1,0,1,1]",0,19,19,19,1,1,1,,,0,FALSE,4.6178,,,,,,,,,,,,,,,,,,,,,,,,,,,,,,,
,613fb1f6fc794e7fc4059b8f,627c6fcbc97af1b5a3f18d90,2022-05-11_21h25.24.739,classification_task,2021.2.3,Win32,59.70862193,627c6715c52fd12f31907bd0,,,,,,,,,,,,,,,,,,,,,,,l,1,"[""0.027"",""0.360"",""0.470"",""0.571""]","[1,1,1,0]",0,20,20,20,1,1,1,,,0,FALSE,4.7496,,,,,,,,,,,,,,,,,,,,,,,,,,,,,,,
,613fb1f6fc794e7fc4059b8f,627c6fcbc97af1b5a3f18d90,2022-05-11_21h25.24.739,classification_task,2021.2.3,Win32,59.70862193,627c6715c52fd12f31907bd0,,,,,,,,,,,,,,,,,,,,,,,a,0,"[""0.085"",""0.289"",""0.619"",""0.132""]","[1,1,1,0]",0,21,21,21,1,1,0,,,0,FALSE,4.8175,,,,,,,,,,,,,,,,,,,,,,,,,,,,,,,
,613fb1f6fc794e7fc4059b8f,627c6fcbc97af1b5a3f18d90,2022-05-11_21h25.24.739,classification_task,2021.2.3,Win32,59.70862193,627c6715c52fd12f31907bd0,,,,,,,,,,,,,,,,,,,,,,,l,0,"[""0.200"",""0.573"",""0.671"",""0.913""]","[1,0,1,1]",0,22,22,22,1,0,1,,,0,FALSE,3.0333,,,,,,,,,,,,,,,,,,,,,,,,,,,,,,,
,613fb1f6fc794e7fc4059b8f,627c6fcbc97af1b5a3f18d90,2022-05-11_21h25.24.739,classification_task,2021.2.3,Win32,59.70862193,627c6715c52fd12f31907bd0,,,,,,,,,,,,,,,,,,,,,,,a,1,"[""0.251"",""0.569"",""0.878"",""0.949""]","[1,0,1,1]",0,23,23,23,1,0,0,,,0,FALSE,1.6329,,,,,,,,,,,,,,,,,,,,,,,,,,,,,,,
,613fb1f6fc794e7fc4059b8f,627c6fcbc97af1b5a3f18d90,2022-05-11_21h25.24.739,classification_task,2021.2.3,Win32,59.70862193,627c6715c52fd12f31907bd0,,,,,,,,,,,,,,,,,,,,,,,a,0,"[""0.085"",""0.289"",""0.132"",""0.739""]","[1,1,0,1]",0,24,24,24,1,1,0,,,0,FALSE,3.7178,,,,,,,,,,,,,,,,,,,,,,,,,,,,,,,
,613fb1f6fc794e7fc4059b8f,627c6fcbc97af1b5a3f18d90,2022-05-11_21h25.24.739,classification_task,2021.2.3,Win32,59.70862193,627c6715c52fd12f31907bd0,,,,,,,,,,,,,,,,,,,,,,,a,0,"[""0.130"",""0.289"",""0.619"",""0.739""]","[0,1,1,1]",0,25,25,25,1,1,0,,,0,FALSE,2.6165,,,,,,,,,,,,,,,,,,,,,,,,,,,,,,,
,613fb1f6fc794e7fc4059b8f,627c6fcbc97af1b5a3f18d90,2022-05-11_21h25.24.739,classification_task,2021.2.3,Win32,59.70862193,627c6715c52fd12f31907bd0,,,,,,,,,,,,,,,,,,,,,,,l,0,"[""0.777"",""0.421"",""0.671"",""0.913""]","[0,1,1,1]",0,26,26,26,1,0,1,,,0,FALSE,1.3511,,,,,,,,,,,,,,,,,,,,,,,,,,,,,,,
,613fb1f6fc794e7fc4059b8f,627c6fcbc97af1b5a3f18d90,2022-05-11_21h25.24.739,classification_task,2021.2.3,Win32,59.70862193,627c6715c52fd12f31907bd0,,,,,,,,,,,,,,,,,,,,,,,l,1,"[""0.085"",""0.573"",""0.619"",""0.739""]","[1,0,1,1]",0,27,27,27,1,1,0,,,0,FALSE,1.0318,,,,,,,,,,,,,,,,,,,,,,,,,,,,,,,
,613fb1f6fc794e7fc4059b8f,627c6fcbc97af1b5a3f18d90,2022-05-11_21h25.24.739,classification_task,2021.2.3,Win32,59.70862193,627c6715c52fd12f31907bd0,,,,,,,,,,,,,,,,,,,,,,,a,1,"[""0.146"",""0.527"",""0.878"",""0.949""]","[0,1,1,1]",0,28,28,28,1,0,0,,,0,FALSE,3.5311,,,,,,,,,,,,,,,,,,,,,,,,,,,,,,,
,613fb1f6fc794e7fc4059b8f,627c6fcbc97af1b5a3f18d90,2022-05-11_21h25.24.739,classification_task,2021.2.3,Win32,59.70862193,627c6715c52fd12f31907bd0,,,,,,,,,,,,,,,,,,,,,,,l,0,"[""0.200"",""0.421"",""0.165"",""0.913""]","[1,1,0,1]",0,29,29,29,1,0,1,,,0,FALSE,4.8164,,,,,,,,,,,,,,,,,,,,,,,,,,,,,,,
,613fb1f6fc794e7fc4059b8f,627c6fcbc97af1b5a3f18d90,2022-05-11_21h25.24.739,classification_task,2021.2.3,Win32,59.70862193,627c6715c52fd12f31907bd0,,,,,,,,,,,,,,,,,,,,,,,l,0,"[""0.251"",""0.527"",""0.165"",""0.949""]","[1,1,0,1]",0,30,30,30,1,0,0,,,0,FALSE,2.4159,,,,,,,,,,,,,,,,,,,,,,,,,,,,,,,
,613fb1f6fc794e7fc4059b8f,627c6fcbc97af1b5a3f18d90,2022-05-11_21h25.24.739,classification_task,2021.2.3,Win32,59.70862193,627c6715c52fd12f31907bd0,,,,,,,,,,,,,,,,,,,,,,,a,1,"[""0.251"",""0.527"",""0.878"",""0.122""]","[1,1,1,0]",0,31,31,31,1,0,0,,,0,FALSE,0.5655,,,,,,,,,,,,,,,,,,,,,,,,,,,,,,,
,613fb1f6fc794e7fc4059b8f,627c6fcbc97af1b5a3f18d90,2022-05-11_21h25.24.739,classification_task,2021.2.3,Win32,59.70862193,627c6715c52fd12f31907bd0,,,,,,,,,,,,,,,,,,,,,,,a,1,"[""0.251"",""0.573"",""0.878"",""0.949""]","[1,0,1,1]",0,32,32,32,1,0,0,,,0,FALSE,1.5988,,,,,,,,,,,,,,,,,,,,,,,,,,,,,,,
,613fb1f6fc794e7fc4059b8f,627c6fcbc97af1b5a3f18d90,2022-05-11_21h25.24.739,classification_task,2021.2.3,Win32,59.70862193,627c6715c52fd12f31907bd0,,,,,,,,,,,,,,,,,,,,,,,a,1,"[""0.200"",""0.421"",""0.671"",""0.132""]","[1,1,1,0]",0,33,33,33,1,0,1,,,0,FALSE,1.814,,,,,,,,,,,,,,,,,,,,,,,,,,,,,,,
,613fb1f6fc794e7fc4059b8f,627c6fcbc97af1b5a3f18d90,2022-05-11_21h25.24.739,classification_task,2021.2.3,Win32,59.70862193,627c6715c52fd12f31907bd0,,,,,,,,,,,,,,,,,,,,,,,a,1,"[""0.130"",""0.421"",""0.671"",""0.913""]","[0,1,1,1]",0,34,34,34,1,0,1,,,0,FALSE,2.9136,,,,,,,,,,,,,,,,,,,,,,,,,,,,,,,
,613fb1f6fc794e7fc4059b8f,627c6fcbc97af1b5a3f18d90,2022-05-11_21h25.24.739,classification_task,2021.2.3,Win32,59.70862193,627c6715c52fd12f31907bd0,,,,,,,,,,,,,,,,,,,,,,,a,1,"[""0.251"",""0.527"",""0.569"",""0.949""]","[1,1,0,1]",0,35,35,35,1,0,0,,,0,FALSE,1.966,,,,,,,,,,,,,,,,,,,,,,,,,,,,,,,
,613fb1f6fc794e7fc4059b8f,627c6fcbc97af1b5a3f18d90,2022-05-11_21h25.24.739,classification_task,2021.2.3,Win32,59.70862193,627c6715c52fd12f31907bd0,,,,,,,,,,,,,,,,,,,,,,,l,0,"[""0.777"",""0.527"",""0.878"",""0.949""]","[0,1,1,1]",0,36,36,36,1,0,0,,,0,FALSE,2.3495,,,,,,,,,,,,,,,,,,,,,,,,,,,,,,,
,613fb1f6fc794e7fc4059b8f,627c6fcbc97af1b5a3f18d90,2022-05-11_21h25.24.739,classification_task,2021.2.3,Win32,59.70862193,627c6715c52fd12f31907bd0,,,,,,,,,,,,,,,,,,,,,,,a,1,"[""0.251"",""0.527"",""0.878"",""0.130""]","[1,1,1,0]",0,37,37,37,1,0,0,,,0,FALSE,1.5978,,,,,,,,,,,,,,,,,,,,,,,,,,,,,,,
,613fb1f6fc794e7fc4059b8f,627c6fcbc97af1b5a3f18d90,2022-05-11_21h25.24.739,classification_task,2021.2.3,Win32,59.70862193,627c6715c52fd12f31907bd0,,,,,,,,,,,,,,,,,,,,,,,a,0,"[""0.027"",""0.360"",""0.470"",""0.165""]","[1,1,1,0]",0,38,38,38,1,1,1,,,0,FALSE,1.318,,,,,,,,,,,,,,,,,,,,,,,,,,,,,,,
,613fb1f6fc794e7fc4059b8f,627c6fcbc97af1b5a3f18d90,2022-05-11_21h25.24.739,classification_task,2021.2.3,Win32,59.70862193,627c6715c52fd12f31907bd0,,,,,,,,,,,,,,,,,,,,,,,l,0,"[""0.200"",""0.421"",""0.157"",""0.913""]","[1,1,0,1]",0,39,39,39,1,0,1,,,0,FALSE,1.5649,,,,,,,,,,,,,,,,,,,,,,,,,,,,,,,
,613fb1f6fc794e7fc4059b8f,627c6fcbc97af1b5a3f18d90,2022-05-11_21h25.24.739,classification_task,2021.2.3,Win32,59.70862193,627c6715c52fd12f31907bd0,,,,,,,,,,,,,,,,,,,,,,,a,0,"[""0.085"",""0.568"",""0.619"",""0.739""]","[1,0,1,1]",0,40,40,40,1,1,0,,,0,FALSE,1.5656,,,,,,,,,,,,,,,,,,,,,,,,,,,,,,,
,613fb1f6fc794e7fc4059b8f,627c6fcbc97af1b5a3f18d90,2022-05-11_21h25.24.739,classification_task,2021.2.3,Win32,59.70862193,627c6715c52fd12f31907bd0,,,,,,,,,,,,,,,,,,,,,,,a,0,"[""0.027"",""0.360"",""0.130"",""0.813""]","[1,1,0,1]",0,41,41,41,1,1,1,,,0,FALSE,2.6301,,,,,,,,,,,,,,,,,,,,,,,,,,,,,,,
,613fb1f6fc794e7fc4059b8f,627c6fcbc97af1b5a3f18d90,2022-05-11_21h25.24.739,classification_task,2021.2.3,Win32,59.70862193,627c6715c52fd12f31907bd0,,,,,,,,,,,,,,,,,,,,,,,l,1,"[""0.085"",""0.289"",""0.619"",""0.130""]","[1,1,1,0]",0,42,42,42,1,1,0,,,0,FALSE,1.0453,,,,,,,,,,,,,,,,,,,,,,,,,,,,,,,
,613fb1f6fc794e7fc4059b8f,627c6fcbc97af1b5a3f18d90,2022-05-11_21h25.24.739,classification_task,2021.2.3,Win32,59.70862193,627c6715c52fd12f31907bd0,,,,,,,,,,,,,,,,,,,,,,,l,1,"[""0.563"",""0.360"",""0.470"",""0.813""]","[0,1,1,1]",0,43,43,43,1,1,1,,,0,FALSE,0.6474,,,,,,,,,,,,,,,,,,,,,,,,,,,,,,,
,613fb1f6fc794e7fc4059b8f,627c6fcbc97af1b5a3f18d90,2022-05-11_21h25.24.739,classification_task,2021.2.3,Win32,59.70862193,627c6715c52fd12f31907bd0,,,,,,,,,,,,,,,,,,,,,,,l,0,"[""0.200"",""0.563"",""0.671"",""0.913""]","[1,0,1,1]",0,44,44,44,1,0,1,,,0,FALSE,1.8796,,,,,,,,,,,,,,,,,,,,,,,,,,,,,,,
,613fb1f6fc794e7fc4059b8f,627c6fcbc97af1b5a3f18d90,2022-05-11_21h25.24.739,classification_task,2021.2.3,Win32,59.70862193,627c6715c52fd12f31907bd0,,,,,,,,,,,,,,,,,,,,,,,a,0,"[""0.147"",""0.289"",""0.619"",""0.739""]","[0,1,1,1]",0,45,45,45,1,1,0,,,0,FALSE,2.6172,,,,,,,,,,,,,,,,,,,,,,,,,,,,,,,
,613fb1f6fc794e7fc4059b8f,627c6fcbc97af1b5a3f18d90,2022-05-11_21h25.24.739,classification_task,2021.2.3,Win32,59.70862193,627c6715c52fd12f31907bd0,,,,,,,,,,,,,,,,,,,,,,,l,1,"[""0.085"",""0.289"",""0.568"",""0.739""]","[1,1,0,1]",0,46,46,46,1,1,0,,,0,FALSE,0.5173,,,,,,,,,,,,,,,,,,,,,,,,,,,,,,,
,613fb1f6fc794e7fc4059b8f,627c6fcbc97af1b5a3f18d90,2022-05-11_21h25.24.739,classification_task,2021.2.3,Win32,59.70862193,627c6715c52fd12f31907bd0,,,,,,,,,,,,,,,,,,,,,,,l,1,"[""0.027"",""0.569"",""0.470"",""0.813""]","[1,0,1,1]",0,47,47,47,1,1,1,,,0,FALSE,0.8971,,,,,,,,,,,,,,,,,,,,,,,,,,,,,,,
,613fb1f6fc794e7fc4059b8f,627c6fcbc97af1b5a3f18d90,2022-05-11_21h25.24.739,classification_task,2021.2.3,Win32,59.70862193,627c6715c52fd12f31907bd0,,,,,,,,,,,,,,,,,,,,,,,l,1,"[""0.027"",""0.777"",""0.470"",""0.813""]","[1,0,1,1]",0,48,48,48,1,1,1,,,0,FALSE,1.2643,,,,,,,,,,,,,,,,,,,,,,,,,,,,,,,
,613fb1f6fc794e7fc4059b8f,627c6fcbc97af1b5a3f18d90,2022-05-11_21h25.24.739,classification_task,2021.2.3,Win32,59.70862193,627c6715c52fd12f31907bd0,,,,,,,,,,,,,,,,,,,,,,,l,0,"[""0.568"",""0.421"",""0.671"",""0.913""]","[0,1,1,1]",0,49,49,49,1,0,1,,,0,FALSE,1.414,,,,,,,,,,,,,,,,,,,,,,,,,,,,,,,
,613fb1f6fc794e7fc4059b8f,627c6fcbc97af1b5a3f18d90,2022-05-11_21h25.24.739,classification_task,2021.2.3,Win32,59.70862193,627c6715c52fd12f31907bd0,,,,,,,,,,,,,,,,,,,,,,,a,0,"[""0.027"",""0.360"",""0.470"",""0.130""]","[1,1,1,0]",0,50,50,50,1,1,1,,,0,FALSE,2.2472,,,,,,,,,,,,,,,,,,,,,,,,,,,,,,,
,613fb1f6fc794e7fc4059b8f,627c6fcbc97af1b5a3f18d90,2022-05-11_21h25.24.739,classification_task,2021.2.3,Win32,59.70862193,627c6715c52fd12f31907bd0,,,,,,,,,,,,,,,,,,,,,,,l,0,"[""0.200"",""0.563"",""0.671"",""0.913""]","[1,0,1,1]",0,51,51,51,1,0,1,,,0,FALSE,0.7183,,,,,,,,,,,,,,,,,,,,,,,,,,,,,,,
,613fb1f6fc794e7fc4059b8f,627c6fcbc97af1b5a3f18d90,2022-05-11_21h25.24.739,classification_task,2021.2.3,Win32,59.70862193,627c6715c52fd12f31907bd0,,,,,,,,,,,,,,,,,,,,,,,l,0,"[""0.200"",""0.421"",""0.165"",""0.913""]","[1,1,0,1]",0,52,52,52,1,0,1,,,0,FALSE,1.7965,,,,,,,,,,,,,,,,,,,,,,,,,,,,,,,
,613fb1f6fc794e7fc4059b8f,627c6fcbc97af1b5a3f18d90,2022-05-11_21h25.24.739,classification_task,2021.2.3,Win32,59.70862193,627c6715c52fd12f31907bd0,,,,,,,,,,,,,,,,,,,,,,,a,0,"[""0.085"",""0.126"",""0.619"",""0.739""]","[1,0,1,1]",0,53,53,53,1,1,0,,,0,FALSE,0.8635,,,,,,,,,,,,,,,,,,,,,,,,,,,,,,,
,613fb1f6fc794e7fc4059b8f,627c6fcbc97af1b5a3f18d90,2022-05-11_21h25.24.739,classification_task,2021.2.3,Win32,59.70862193,627c6715c52fd12f31907bd0,,,,,,,,,,,,,,,,,,,,,,,l,1,"[""0.130"",""0.360"",""0.470"",""0.813""]","[0,1,1,1]",0,54,54,54,1,1,1,,,0,FALSE,1.0651,,,,,,,,,,,,,,,,,,,,,,,,,,,,,,,
,613fb1f6fc794e7fc4059b8f,627c6fcbc97af1b5a3f18d90,2022-05-11_21h25.24.739,classification_task,2021.2.3,Win32,59.70862193,627c6715c52fd12f31907bd0,,,,,,,,,,,,,,,,,,,,,,,l,1,"[""0.085"",""0.289"",""0.619"",""0.130""]","[1,1,1,0]",0,55,55,55,1,1,0,,,0,FALSE,2.2477,,,,,,,,,,,,,,,,,,,,,,,,,,,,,,,
,613fb1f6fc794e7fc4059b8f,627c6fcbc97af1b5a3f18d90,2022-05-11_21h25.24.739,classification_task,2021.2.3,Win32,59.70862193,627c6715c52fd12f31907bd0,,,,,,,,,,,,,,,,,,,,,,,l,0,"[""0.251"",""0.527"",""0.563"",""0.949""]","[1,1,0,1]",0,56,56,56,1,0,0,,,0,FALSE,1.9661,,,,,,,,,,,,,,,,,,,,,,,,,,,,,,,
,613fb1f6fc794e7fc4059b8f,627c6fcbc97af1b5a3f18d90,2022-05-11_21h25.24.739,classification_task,2021.2.3,Win32,59.70862193,627c6715c52fd12f31907bd0,,,,,,,,,,,,,,,,,,,,,,,l,0,"[""0.251"",""0.527"",""0.878"",""0.157""]","[1,1,1,0]",0,57,57,57,1,0,0,,,0,FALSE,1.0639,,,,,,,,,,,,,,,,,,,,,,,,,,,,,,,
,613fb1f6fc794e7fc4059b8f,627c6fcbc97af1b5a3f18d90,2022-05-11_21h25.24.739,classification_task,2021.2.3,Win32,59.70862193,627c6715c52fd12f31907bd0,,,,,,,,,,,,,,,,,,,,,,,a,0,"[""0.027"",""0.360"",""0.130"",""0.813""]","[1,1,0,1]",0,58,58,58,1,1,1,,,0,FALSE,1.7484,,,,,,,,,,,,,,,,,,,,,,,,,,,,,,,
,613fb1f6fc794e7fc4059b8f,627c6fcbc97af1b5a3f18d90,2022-05-11_21h25.24.739,classification_task,2021.2.3,Win32,59.70862193,627c6715c52fd12f31907bd0,,,,,,,,,,,,,,,,,,,,,,,l,0,"[""0.200"",""0.421"",""0.671"",""0.132""]","[1,1,1,0]",0,59,59,59,1,0,1,,,0,FALSE,0.6331,,,,,,,,,,,,,,,,,,,,,,,,,,,,,,,
,613fb1f6fc794e7fc4059b8f,627c6fcbc97af1b5a3f18d90,2022-05-11_21h25.24.739,classification_task,2021.2.3,Win32,59.70862193,627c6715c52fd12f31907bd0,,,,,,,,,,,,,,,,,,,,,,,l,0,"[""0.251"",""0.146"",""0.878"",""0.949""]","[1,0,1,1]",0,60,60,60,1,0,0,,,0,FALSE,0.3795,,,,,,,,,,,,,,,,,,,,,,,,,,,,,,,
,613fb1f6fc794e7fc4059b8f,627c6fcbc97af1b5a3f18d90,2022-05-11_21h25.24.739,classification_task,2021.2.3,Win32,59.70862193,627c6715c52fd12f31907bd0,,,,,,,,,,,,,,,,,,,,,,,a,0,"[""0.568"",""0.289"",""0.619"",""0.739""]","[0,1,1,1]",0,61,61,61,1,1,0,,,0,FALSE,0.3804,,,,,,,,,,,,,,,,,,,,,,,,,,,,,,,
,613fb1f6fc794e7fc4059b8f,627c6fcbc97af1b5a3f18d90,2022-05-11_21h25.24.739,classification_task,2021.2.3,Win32,59.70862193,627c6715c52fd12f31907bd0,,,,,,,,,,,,,,,,,,,,,,,a,1,"[""0.571"",""0.527"",""0.878"",""0.949""]","[0,1,1,1]",0,62,62,62,1,0,0,,,0,FALSE,1.5139,,,,,,,,,,,,,,,,,,,,,,,,,,,,,,,
,613fb1f6fc794e7fc4059b8f,627c6fcbc97af1b5a3f18d90,2022-05-11_21h25.24.739,classification_task,2021.2.3,Win32,59.70862193,627c6715c52fd12f31907bd0,,,,,,,,,,,,,,,,,,,,,,,l,1,"[""0.085"",""0.289"",""0.130"",""0.739""]","[1,1,0,1]",0,63,63,63,1,1,0,,,0,FALSE,4.3468,,,,,,,,,,,,,,,,,,,,,,,,,,,,,,,
,613fb1f6fc794e7fc4059b8f,627c6fcbc97af1b5a3f18d90,2022-05-11_21h25.24.739,classification_task,2021.2.3,Win32,59.70862193,627c6715c52fd12f31907bd0,,,,,,,,,,,,,,,,,,,,,,,,,,,,,,,,,,,,,,,0, ,,0,8.527336861,250.3995,0,1,1,1,1,2,2,,,,,,,,,,,,,,,,,,
,613fb1f6fc794e7fc4059b8f,627c6fcbc97af1b5a3f18d90,2022-05-11_21h25.24.739,classification_task,2021.2.3,Win32,59.70862193,627c6715c52fd12f31907bd0,,,,,,,,,,,,,,,,,,,,,,,,,,,,,,,,,,,,,,,1,  ,,0,9.899080468,253.6396,0,1,1,1,1,2,2,,,,,,,,,,,,,,,,,,
,613fb1f6fc794e7fc4059b8f,627c6fcbc97af1b5a3f18d90,2022-05-11_21h25.24.739,classification_task,2021.2.3,Win32,59.70862193,627c6715c52fd12f31907bd0,,,,,,,,,,,,,,,,,,,,,,,,,,,,,,,,,,,,,,,2,  ,,0,9.801098141,255.1168,0,1,1,1,1,2,2,,,,,,,,,,,,,,,,,,
,613fb1f6fc794e7fc4059b8f,627c6fcbc97af1b5a3f18d90,2022-05-11_21h25.24.739,classification_task,2021.2.3,Win32,59.70862193,627c6715c52fd12f31907bd0,,,,,,,,,,,,,,,,,,,,,,,,,,,,,,,,,,,,,,,,,,,,,0,1,1,1,1,,2,,,,,,,,,,,,,,,,,,
,613fb1f6fc794e7fc4059b8f,627c6fcbc97af1b5a3f18d90,2022-05-11_21h25.24.739,classification_task,2021.2.3,Win32,59.70862193,627c6715c52fd12f31907bd0,,,,,,,,,,,,,,,,,,,,,space,26.0629,l,0,"[""0.200"",""0.421"",""0.147"",""0.913""]","[1,1,0,1]",0,0,0,0,1,0,1,,,0,FALSE,7.2098,,,,,,,,,,,,,,,,,,,,,,,,,,,,,,,
,613fb1f6fc794e7fc4059b8f,627c6fcbc97af1b5a3f18d90,2022-05-11_21h25.24.739,classification_task,2021.2.3,Win32,59.70862193,627c6715c52fd12f31907bd0,,,,,,,,,,,,,,,,,,,,,,,a,1,"[""0.200"",""0.573"",""0.671"",""0.913""]","[1,0,1,1]",0,1,1,1,1,0,1,,,0,FALSE,3.9774,,,,,,,,,,,,,,,,,,,,,,,,,,,,,,,
,613fb1f6fc794e7fc4059b8f,627c6fcbc97af1b5a3f18d90,2022-05-11_21h25.24.739,classification_task,2021.2.3,Win32,59.70862193,627c6715c52fd12f31907bd0,,,,,,,,,,,,,,,,,,,,,,,a,1,"[""0.251"",""0.527"",""0.878"",""0.130""]","[1,1,1,0]",0,2,2,2,1,0,0,,,0,FALSE,3.8837,,,,,,,,,,,,,,,,,,,,,,,,,,,,,,,
,613fb1f6fc794e7fc4059b8f,627c6fcbc97af1b5a3f18d90,2022-05-11_21h25.24.739,classification_task,2021.2.3,Win32,59.70862193,627c6715c52fd12f31907bd0,,,,,,,,,,,,,,,,,,,,,,,l,0,"[""0.777"",""0.527"",""0.878"",""0.949""]","[0,1,1,1]",0,3,3,3,1,0,0,,,0,FALSE,5.2144,,,,,,,,,,,,,,,,,,,,,,,,,,,,,,,
,613fb1f6fc794e7fc4059b8f,627c6fcbc97af1b5a3f18d90,2022-05-11_21h25.24.739,classification_task,2021.2.3,Win32,59.70862193,627c6715c52fd12f31907bd0,,,,,,,,,,,,,,,,,,,,,,,a,0,"[""0.777"",""0.289"",""0.619"",""0.739""]","[0,1,1,1]",0,4,4,4,1,1,0,,,0,FALSE,7.2156,,,,,,,,,,,,,,,,,,,,,,,,,,,,,,,
,613fb1f6fc794e7fc4059b8f,627c6fcbc97af1b5a3f18d90,2022-05-11_21h25.24.739,classification_task,2021.2.3,Win32,59.70862193,627c6715c52fd12f31907bd0,,,,,,,,,,,,,,,,,,,,,,,l,1,"[""0.027"",""0.130"",""0.470"",""0.813""]","[1,0,1,1]",0,5,5,5,1,1,1,,,0,FALSE,2.266,,,,,,,,,,,,,,,,,,,,,,,,,,,,,,,
,613fb1f6fc794e7fc4059b8f,627c6fcbc97af1b5a3f18d90,2022-05-11_21h25.24.739,classification_task,2021.2.3,Win32,59.70862193,627c6715c52fd12f31907bd0,,,,,,,,,,,,,,,,,,,,,,,l,1,"[""0.132"",""0.360"",""0.470"",""0.813""]","[0,1,1,1]",0,6,6,6,1,1,1,,,0,FALSE,7.4633,,,,,,,,,,,,,,,,,,,,,,,,,,,,,,,
,613fb1f6fc794e7fc4059b8f,627c6fcbc97af1b5a3f18d90,2022-05-11_21h25.24.739,classification_task,2021.2.3,Win32,59.70862193,627c6715c52fd12f31907bd0,,,,,,,,,,,,,,,,,,,,,,,a,0,"[""0.027"",""0.360"",""0.132"",""0.813""]","[1,1,0,1]",0,7,7,7,1,1,1,,,0,FALSE,2.6512,,,,,,,,,,,,,,,,,,,,,,,,,,,,,,,
,613fb1f6fc794e7fc4059b8f,627c6fcbc97af1b5a3f18d90,2022-05-11_21h25.24.739,classification_task,2021.2.3,Win32,59.70862193,627c6715c52fd12f31907bd0,,,,,,,,,,,,,,,,,,,,,,,a,1,"[""0.200"",""0.421"",""0.671"",""0.126""]","[1,1,1,0]",0,8,8,8,1,0,1,,,0,FALSE,1.6985,,,,,,,,,,,,,,,,,,,,,,,,,,,,,,,
,613fb1f6fc794e7fc4059b8f,627c6fcbc97af1b5a3f18d90,2022-05-11_21h25.24.739,classification_task,2021.2.3,Win32,59.70862193,627c6715c52fd12f31907bd0,,,,,,,,,,,,,,,,,,,,,,,l,0,"[""0.165"",""0.421"",""0.671"",""0.913""]","[0,1,1,1]",0,9,9,9,1,0,1,,,0,FALSE,2.182,,,,,,,,,,,,,,,,,,,,,,,,,,,,,,,
,613fb1f6fc794e7fc4059b8f,627c6fcbc97af1b5a3f18d90,2022-05-11_21h25.24.739,classification_task,2021.2.3,Win32,59.70862193,627c6715c52fd12f31907bd0,,,,,,,,,,,,,,,,,,,,,,,a,0,"[""0.027"",""0.360"",""0.470"",""0.777""]","[1,1,1,0]",0,10,10,10,1,1,1,,,0,FALSE,2.8326,,,,,,,,,,,,,,,,,,,,,,,,,,,,,,,
,613fb1f6fc794e7fc4059b8f,627c6fcbc97af1b5a3f18d90,2022-05-11_21h25.24.739,classification_task,2021.2.3,Win32,59.70862193,627c6715c52fd12f31907bd0,,,,,,,,,,,,,,,,,,,,,,,a,0,"[""0.085"",""0.289"",""0.563"",""0.739""]","[1,1,0,1]",0,11,11,11,1,1,0,,,0,FALSE,2.6498,,,,,,,,,,,,,,,,,,,,,,,,,,,,,,,
,613fb1f6fc794e7fc4059b8f,627c6fcbc97af1b5a3f18d90,2022-05-11_21h25.24.739,classification_task,2021.2.3,Win32,59.70862193,627c6715c52fd12f31907bd0,,,,,,,,,,,,,,,,,,,,,,,l,0,"[""0.251"",""0.527"",""0.573"",""0.949""]","[1,1,0,1]",0,12,12,12,1,0,0,,,0,FALSE,1.9487,,,,,,,,,,,,,,,,,,,,,,,,,,,,,,,
,613fb1f6fc794e7fc4059b8f,627c6fcbc97af1b5a3f18d90,2022-05-11_21h25.24.739,classification_task,2021.2.3,Win32,59.70862193,627c6715c52fd12f31907bd0,,,,,,,,,,,,,,,,,,,,,,,l,1,"[""0.085"",""0.289"",""0.619"",""0.130""]","[1,1,1,0]",0,13,13,13,1,1,0,,,0,FALSE,2.247,,,,,,,,,,,,,,,,,,,,,,,,,,,,,,,
,613fb1f6fc794e7fc4059b8f,627c6fcbc97af1b5a3f18d90,2022-05-11_21h25.24.739,classification_task,2021.2.3,Win32,59.70862193,627c6715c52fd12f31907bd0,,,,,,,,,,,,,,,,,,,,,,,l,0,"[""0.251"",""0.571"",""0.878"",""0.949""]","[1,0,1,1]",0,14,14,14,1,0,0,,,0,FALSE,2.0158,,,,,,,,,,,,,,,,,,,,,,,,,,,,,,,
,613fb1f6fc794e7fc4059b8f,627c6fcbc97af1b5a3f18d90,2022-05-11_21h25.24.739,classification_task,2021.2.3,Win32,59.70862193,627c6715c52fd12f31907bd0,,,,,,,,,,,,,,,,,,,,,,,a,0,"[""0.085"",""0.569"",""0.619"",""0.739""]","[1,0,1,1]",0,15,15,15,1,1,0,,,0,FALSE,1.7006,,,,,,,,,,,,,,,,,,,,,,,,,,,,,,,
,613fb1f6fc794e7fc4059b8f,627c6fcbc97af1b5a3f18d90,2022-05-11_21h25.24.739,classification_task,2021.2.3,Win32,59.70862193,627c6715c52fd12f31907bd0,,,,,,,,,,,,,,,,,,,,,,,a,0,"[""0.085"",""0.289"",""0.619"",""0.122""]","[1,1,1,0]",0,16,16,16,1,1,0,,,0,FALSE,1.7153,,,,,,,,,,,,,,,,,,,,,,,,,,,,,,,
,613fb1f6fc794e7fc4059b8f,627c6fcbc97af1b5a3f18d90,2022-05-11_21h25.24.739,classification_task,2021.2.3,Win32,59.70862193,627c6715c52fd12f31907bd0,,,,,,,,,,,,,,,,,,,,,,,a,0,"[""0.569"",""0.360"",""0.470"",""0.813""]","[0,1,1,1]",0,17,17,17,1,1,1,,,0,FALSE,4.0816,,,,,,,,,,,,,,,,,,,,,,,,,,,,,,,
,613fb1f6fc794e7fc4059b8f,627c6fcbc97af1b5a3f18d90,2022-05-11_21h25.24.739,classification_task,2021.2.3,Win32,59.70862193,627c6715c52fd12f31907bd0,,,,,,,,,,,,,,,,,,,,,,,l,0,"[""0.200"",""0.421"",""0.671"",""0.568""]","[1,1,1,0]",0,18,18,18,1,0,1,,,0,FALSE,4.8146,,,,,,,,,,,,,,,,,,,,,,,,,,,,,,,
,613fb1f6fc794e7fc4059b8f,627c6fcbc97af1b5a3f18d90,2022-05-11_21h25.24.739,classification_task,2021.2.3,Win32,59.70862193,627c6715c52fd12f31907bd0,,,,,,,,,,,,,,,,,,,,,,,l,1,"[""0.569"",""0.289"",""0.619"",""0.739""]","[0,1,1,1]",0,19,19,19,1,1,0,,,0,FALSE,2.7822,,,,,,,,,,,,,,,,,,,,,,,,,,,,,,,
,613fb1f6fc794e7fc4059b8f,627c6fcbc97af1b5a3f18d90,2022-05-11_21h25.24.739,classification_task,2021.2.3,Win32,59.70862193,627c6715c52fd12f31907bd0,,,,,,,,,,,,,,,,,,,,,,,a,1,"[""0.165"",""0.421"",""0.671"",""0.913""]","[0,1,1,1]",0,20,20,20,1,0,1,,,0,FALSE,2.0335,,,,,,,,,,,,,,,,,,,,,,,,,,,,,,,
,613fb1f6fc794e7fc4059b8f,627c6fcbc97af1b5a3f18d90,2022-05-11_21h25.24.739,classification_task,2021.2.3,Win32,59.70862193,627c6715c52fd12f31907bd0,,,,,,,,,,,,,,,,,,,,,,,l,1,"[""0.027"",""0.360"",""0.573"",""0.813""]","[1,1,0,1]",0,21,21,21,1,1,1,,,0,FALSE,1.4798,,,,,,,,,,,,,,,,,,,,,,,,,,,,,,,
,613fb1f6fc794e7fc4059b8f,627c6fcbc97af1b5a3f18d90,2022-05-11_21h25.24.739,classification_task,2021.2.3,Win32,59.70862193,627c6715c52fd12f31907bd0,,,,,,,,,,,,,,,,,,,,,,,l,1,"[""0.085"",""0.147"",""0.619"",""0.739""]","[1,0,1,1]",0,22,22,22,1,1,0,,,0,FALSE,1.4808,,,,,,,,,,,,,,,,,,,,,,,,,,,,,,,
,613fb1f6fc794e7fc4059b8f,627c6fcbc97af1b5a3f18d90,2022-05-11_21h25.24.739,classification_task,2021.2.3,Win32,59.70862193,627c6715c52fd12f31907bd0,,,,,,,,,,,,,,,,,,,,,,,l,0,"[""0.251"",""0.527"",""0.878"",""0.132""]","[1,1,1,0]",0,23,23,23,1,0,0,,,0,FALSE,4.0829,,,,,,,,,,,,,,,,,,,,,,,,,,,,,,,
,613fb1f6fc794e7fc4059b8f,627c6fcbc97af1b5a3f18d90,2022-05-11_21h25.24.739,classification_task,2021.2.3,Win32,59.70862193,627c6715c52fd12f31907bd0,,,,,,,,,,,,,,,,,,,,,,,a,1,"[""0.251"",""0.130"",""0.878"",""0.949""]","[1,0,1,1]",0,24,24,24,1,0,0,,,0,FALSE,3.0833,,,,,,,,,,,,,,,,,,,,,,,,,,,,,,,
,613fb1f6fc794e7fc4059b8f,627c6fcbc97af1b5a3f18d90,2022-05-11_21h25.24.739,classification_task,2021.2.3,Win32,59.70862193,627c6715c52fd12f31907bd0,,,,,,,,,,,,,,,,,,,,,,,a,1,"[""0.251"",""0.527"",""0.130"",""0.949""]","[1,1,0,1]",0,25,25,25,1,0,0,,,0,FALSE,2.7501,,,,,,,,,,,,,,,,,,,,,,,,,,,,,,,
,613fb1f6fc794e7fc4059b8f,627c6fcbc97af1b5a3f18d90,2022-05-11_21h25.24.739,classification_task,2021.2.3,Win32,59.70862193,627c6715c52fd12f31907bd0,,,,,,,,,,,,,,,,,,,,,,,l,1,"[""0.027"",""0.573"",""0.470"",""0.813""]","[1,0,1,1]",0,26,26,26,1,1,1,,,0,FALSE,2.1999,,,,,,,,,,,,,,,,,,,,,,,,,,,,,,,
,613fb1f6fc794e7fc4059b8f,627c6fcbc97af1b5a3f18d90,2022-05-11_21h25.24.739,classification_task,2021.2.3,Win32,59.70862193,627c6715c52fd12f31907bd0,,,,,,,,,,,,,,,,,,,,,,,l,0,"[""0.200"",""0.421"",""0.563"",""0.913""]","[1,1,0,1]",0,27,27,27,1,0,1,,,0,FALSE,3.2664,,,,,,,,,,,,,,,,,,,,,,,,,,,,,,,
,613fb1f6fc794e7fc4059b8f,627c6fcbc97af1b5a3f18d90,2022-05-11_21h25.24.739,classification_task,2021.2.3,Win32,59.70862193,627c6715c52fd12f31907bd0,,,,,,,,,,,,,,,,,,,,,,,a,1,"[""0.130"",""0.527"",""0.878"",""0.949""]","[0,1,1,1]",0,28,28,28,1,0,0,,,0,FALSE,1.4178,,,,,,,,,,,,,,,,,,,,,,,,,,,,,,,
,613fb1f6fc794e7fc4059b8f,627c6fcbc97af1b5a3f18d90,2022-05-11_21h25.24.739,classification_task,2021.2.3,Win32,59.70862193,627c6715c52fd12f31907bd0,,,,,,,,,,,,,,,,,,,,,,,l,1,"[""0.085"",""0.289"",""0.126"",""0.739""]","[1,1,0,1]",0,29,29,29,1,1,0,,,0,FALSE,2.1804,,,,,,,,,,,,,,,,,,,,,,,,,,,,,,,
,613fb1f6fc794e7fc4059b8f,627c6fcbc97af1b5a3f18d90,2022-05-11_21h25.24.739,classification_task,2021.2.3,Win32,59.70862193,627c6715c52fd12f31907bd0,,,,,,,,,,,,,,,,,,,,,,,a,1,"[""0.200"",""0.165"",""0.671"",""0.913""]","[1,0,1,1]",0,30,30,30,1,0,1,,,0,FALSE,5.0341,,,,,,,,,,,,,,,,,,,,,,,,,,,,,,,
,613fb1f6fc794e7fc4059b8f,627c6fcbc97af1b5a3f18d90,2022-05-11_21h25.24.739,classification_task,2021.2.3,Win32,59.70862193,627c6715c52fd12f31907bd0,,,,,,,,,,,,,,,,,,,,,,,l,1,"[""0.027"",""0.360"",""0.470"",""0.130""]","[1,1,1,0]",0,31,31,31,1,1,1,,,0,FALSE,4.1497,,,,,,,,,,,,,,,,,,,,,,,,,,,,,,,
,613fb1f6fc794e7fc4059b8f,627c6fcbc97af1b5a3f18d90,2022-05-11_21h25.24.739,classification_task,2021.2.3,Win32,59.70862193,627c6715c52fd12f31907bd0,,,,,,,,,,,,,,,,,,,,,,,l,1,"[""0.085"",""0.289"",""0.569"",""0.739""]","[1,1,0,1]",0,32,32,32,1,1,0,,,0,FALSE,4.9153,,,,,,,,,,,,,,,,,,,,,,,,,,,,,,,
,613fb1f6fc794e7fc4059b8f,627c6fcbc97af1b5a3f18d90,2022-05-11_21h25.24.739,classification_task,2021.2.3,Win32,59.70862193,627c6715c52fd12f31907bd0,,,,,,,,,,,,,,,,,,,,,,,a,1,"[""0.568"",""0.527"",""0.878"",""0.949""]","[0,1,1,1]",0,33,33,33,1,0,0,,,0,FALSE,4.585,,,,,,,,,,,,,,,,,,,,,,,,,,,,,,,
,613fb1f6fc794e7fc4059b8f,627c6fcbc97af1b5a3f18d90,2022-05-11_21h25.24.739,classification_task,2021.2.3,Win32,59.70862193,627c6715c52fd12f31907bd0,,,,,,,,,,,,,,,,,,,,,,,l,0,"[""0.200"",""0.421"",""0.568"",""0.913""]","[1,1,0,1]",0,34,34,34,1,0,1,,,0,FALSE,4.9951,,,,,,,,,,,,,,,,,,,,,,,,,,,,,,,
,613fb1f6fc794e7fc4059b8f,627c6fcbc97af1b5a3f18d90,2022-05-11_21h25.24.739,classification_task,2021.2.3,Win32,59.70862193,627c6715c52fd12f31907bd0,,,,,,,,,,,,,,,,,,,,,,,l,1,"[""0.027"",""0.360"",""0.470"",""0.569""]","[1,1,1,0]",0,35,35,35,1,1,1,,,0,FALSE,2.8176,,,,,,,,,,,,,,,,,,,,,,,,,,,,,,,
,613fb1f6fc794e7fc4059b8f,627c6fcbc97af1b5a3f18d90,2022-05-11_21h25.24.739,classification_task,2021.2.3,Win32,59.70862193,627c6715c52fd12f31907bd0,,,,,,,,,,,,,,,,,,,,,,,a,1,"[""0.200"",""0.569"",""0.671"",""0.913""]","[1,0,1,1]",0,36,36,36,1,0,1,,,0,FALSE,2.0444,,,,,,,,,,,,,,,,,,,,,,,,,,,,,,,
,613fb1f6fc794e7fc4059b8f,627c6fcbc97af1b5a3f18d90,2022-05-11_21h25.24.739,classification_task,2021.2.3,Win32,59.70862193,627c6715c52fd12f31907bd0,,,,,,,,,,,,,,,,,,,,,,,a,1,"[""0.251"",""0.527"",""0.146"",""0.949""]","[1,1,0,1]",0,37,37,37,1,0,0,,,0,FALSE,2.6463,,,,,,,,,,,,,,,,,,,,,,,,,,,,,,,
,613fb1f6fc794e7fc4059b8f,627c6fcbc97af1b5a3f18d90,2022-05-11_21h25.24.739,classification_task,2021.2.3,Win32,59.70862193,627c6715c52fd12f31907bd0,,,,,,,,,,,,,,,,,,,,,,,a,1,"[""0.251"",""0.130"",""0.878"",""0.949""]","[1,0,1,1]",0,38,38,38,1,0,0,,,0,FALSE,4.0844,,,,,,,,,,,,,,,,,,,,,,,,,,,,,,,
,613fb1f6fc794e7fc4059b8f,627c6fcbc97af1b5a3f18d90,2022-05-11_21h25.24.739,classification_task,2021.2.3,Win32,59.70862193,627c6715c52fd12f31907bd0,,,,,,,,,,,,,,,,,,,,,,,l,1,"[""0.027"",""0.569"",""0.470"",""0.813""]","[1,0,1,1]",0,39,39,39,1,1,1,,,0,FALSE,3.7174,,,,,,,,,,,,,,,,,,,,,,,,,,,,,,,
,613fb1f6fc794e7fc4059b8f,627c6fcbc97af1b5a3f18d90,2022-05-11_21h25.24.739,classification_task,2021.2.3,Win32,59.70862193,627c6715c52fd12f31907bd0,,,,,,,,,,,,,,,,,,,,,,,l,0,"[""0.130"",""0.421"",""0.671"",""0.913""]","[0,1,1,1]",0,40,40,40,1,0,1,,,0,FALSE,1.9834,,,,,,,,,,,,,,,,,,,,,,,,,,,,,,,
,613fb1f6fc794e7fc4059b8f,627c6fcbc97af1b5a3f18d90,2022-05-11_21h25.24.739,classification_task,2021.2.3,Win32,59.70862193,627c6715c52fd12f31907bd0,,,,,,,,,,,,,,,,,,,,,,,l,0,"[""0.200"",""0.421"",""0.671"",""0.573""]","[1,1,1,0]",0,41,41,41,1,0,1,,,0,FALSE,2.9842,,,,,,,,,,,,,,,,,,,,,,,,,,,,,,,
,613fb1f6fc794e7fc4059b8f,627c6fcbc97af1b5a3f18d90,2022-05-11_21h25.24.739,classification_task,2021.2.3,Win32,59.70862193,627c6715c52fd12f31907bd0,,,,,,,,,,,,,,,,,,,,,,,a,0,"[""0.027"",""0.360"",""0.126"",""0.813""]","[1,1,0,1]",0,42,42,42,1,1,1,,,0,FALSE,0.9674,,,,,,,,,,,,,,,,,,,,,,,,,,,,,,,
,613fb1f6fc794e7fc4059b8f,627c6fcbc97af1b5a3f18d90,2022-05-11_21h25.24.739,classification_task,2021.2.3,Win32,59.70862193,627c6715c52fd12f31907bd0,,,,,,,,,,,,,,,,,,,,,,,l,0,"[""0.251"",""0.527"",""0.878"",""0.569""]","[1,1,1,0]",0,43,43,43,1,0,0,,,0,FALSE,3.5334,,,,,,,,,,,,,,,,,,,,,,,,,,,,,,,
,613fb1f6fc794e7fc4059b8f,627c6fcbc97af1b5a3f18d90,2022-05-11_21h25.24.739,classification_task,2021.2.3,Win32,59.70862193,627c6715c52fd12f31907bd0,,,,,,,,,,,,,,,,,,,,,,,a,0,"[""0.085"",""0.289"",""0.619"",""0.147""]","[1,1,1,0]",0,44,44,44,1,1,0,,,0,FALSE,2.2495,,,,,,,,,,,,,,,,,,,,,,,,,,,,,,,
,613fb1f6fc794e7fc4059b8f,627c6fcbc97af1b5a3f18d90,2022-05-11_21h25.24.739,classification_task,2021.2.3,Win32,59.70862193,627c6715c52fd12f31907bd0,,,,,,,,,,,,,,,,,,,,,,,l,1,"[""0.085"",""0.777"",""0.619"",""0.739""]","[1,0,1,1]",0,45,45,45,1,1,0,,,0,FALSE,3.0488,,,,,,,,,,,,,,,,,,,,,,,,,,,,,,,
,613fb1f6fc794e7fc4059b8f,627c6fcbc97af1b5a3f18d90,2022-05-11_21h25.24.739,classification_task,2021.2.3,Win32,59.70862193,627c6715c52fd12f31907bd0,,,,,,,,,,,,,,,,,,,,,,,l,1,"[""0.126"",""0.360"",""0.470"",""0.813""]","[0,1,1,1]",0,46,46,46,1,1,1,,,0,FALSE,3.3005,,,,,,,,,,,,,,,,,,,,,,,,,,,,,,,
,613fb1f6fc794e7fc4059b8f,627c6fcbc97af1b5a3f18d90,2022-05-11_21h25.24.739,classification_task,2021.2.3,Win32,59.70862193,627c6715c52fd12f31907bd0,,,,,,,,,,,,,,,,,,,,,,,a,0,"[""0.571"",""0.289"",""0.619"",""0.739""]","[0,1,1,1]",0,47,47,47,1,1,0,,,0,FALSE,1.7982,,,,,,,,,,,,,,,,,,,,,,,,,,,,,,,
,613fb1f6fc794e7fc4059b8f,627c6fcbc97af1b5a3f18d90,2022-05-11_21h25.24.739,classification_task,2021.2.3,Win32,59.70862193,627c6715c52fd12f31907bd0,,,,,,,,,,,,,,,,,,,,,,,a,0,"[""0.085"",""0.573"",""0.619"",""0.739""]","[1,0,1,1]",0,48,48,48,1,1,0,,,0,FALSE,2.4992,,,,,,,,,,,,,,,,,,,,,,,,,,,,,,,
,613fb1f6fc794e7fc4059b8f,627c6fcbc97af1b5a3f18d90,2022-05-11_21h25.24.739,classification_task,2021.2.3,Win32,59.70862193,627c6715c52fd12f31907bd0,,,,,,,,,,,,,,,,,,,,,,,a,0,"[""0.085"",""0.289"",""0.146"",""0.739""]","[1,1,0,1]",0,49,49,49,1,1,0,,,0,FALSE,1.7343,,,,,,,,,,,,,,,,,,,,,,,,,,,,,,,
,613fb1f6fc794e7fc4059b8f,627c6fcbc97af1b5a3f18d90,2022-05-11_21h25.24.739,classification_task,2021.2.3,Win32,59.70862193,627c6715c52fd12f31907bd0,,,,,,,,,,,,,,,,,,,,,,,l,1,"[""0.085"",""0.289"",""0.619"",""0.571""]","[1,1,1,0]",0,50,50,50,1,1,0,,,0,FALSE,2.9639,,,,,,,,,,,,,,,,,,,,,,,,,,,,,,,
,613fb1f6fc794e7fc4059b8f,627c6fcbc97af1b5a3f18d90,2022-05-11_21h25.24.739,classification_task,2021.2.3,Win32,59.70862193,627c6715c52fd12f31907bd0,,,,,,,,,,,,,,,,,,,,,,,l,0,"[""0.200"",""0.421"",""0.132"",""0.913""]","[1,1,0,1]",0,51,51,51,1,0,1,,,0,FALSE,2.2152,,,,,,,,,,,,,,,,,,,,,,,,,,,,,,,
,613fb1f6fc794e7fc4059b8f,627c6fcbc97af1b5a3f18d90,2022-05-11_21h25.24.739,classification_task,2021.2.3,Win32,59.70862193,627c6715c52fd12f31907bd0,,,,,,,,,,,,,,,,,,,,,,,a,0,"[""0.027"",""0.146"",""0.470"",""0.813""]","[1,0,1,1]",0,52,52,52,1,1,1,,,0,FALSE,2.1149,,,,,,,,,,,,,,,,,,,,,,,,,,,,,,,
,613fb1f6fc794e7fc4059b8f,627c6fcbc97af1b5a3f18d90,2022-05-11_21h25.24.739,classification_task,2021.2.3,Win32,59.70862193,627c6715c52fd12f31907bd0,,,,,,,,,,,,,,,,,,,,,,,a,0,"[""0.027"",""0.360"",""0.132"",""0.813""]","[1,1,0,1]",0,53,53,53,1,1,1,,,0,FALSE,1.9667,,,,,,,,,,,,,,,,,,,,,,,,,,,,,,,
,613fb1f6fc794e7fc4059b8f,627c6fcbc97af1b5a3f18d90,2022-05-11_21h25.24.739,classification_task,2021.2.3,Win32,59.70862193,627c6715c52fd12f31907bd0,,,,,,,,,,,,,,,,,,,,,,,a,0,"[""0.165"",""0.289"",""0.619"",""0.739""]","[0,1,1,1]",0,54,54,54,1,1,0,,,0,FALSE,4.7835,,,,,,,,,,,,,,,,,,,,,,,,,,,,,,,
,613fb1f6fc794e7fc4059b8f,627c6fcbc97af1b5a3f18d90,2022-05-11_21h25.24.739,classification_task,2021.2.3,Win32,59.70862193,627c6715c52fd12f31907bd0,,,,,,,,,,,,,,,,,,,,,,,l,1,"[""0.130"",""0.360"",""0.470"",""0.813""]","[0,1,1,1]",0,55,55,55,1,1,1,,,0,FALSE,1.0509,,,,,,,,,,,,,,,,,,,,,,,,,,,,,,,
,613fb1f6fc794e7fc4059b8f,627c6fcbc97af1b5a3f18d90,2022-05-11_21h25.24.739,classification_task,2021.2.3,Win32,59.70862193,627c6715c52fd12f31907bd0,,,,,,,,,,,,,,,,,,,,,,,l,1,"[""0.027"",""0.360"",""0.470"",""0.126""]","[1,1,1,0]",0,56,56,56,1,1,1,,,0,FALSE,2.2804,,,,,,,,,,,,,,,,,,,,,,,,,,,,,,,
,613fb1f6fc794e7fc4059b8f,627c6fcbc97af1b5a3f18d90,2022-05-11_21h25.24.739,classification_task,2021.2.3,Win32,59.70862193,627c6715c52fd12f31907bd0,,,,,,,,,,,,,,,,,,,,,,,a,1,"[""0.147"",""0.527"",""0.878"",""0.949""]","[0,1,1,1]",0,57,57,57,1,0,0,,,0,FALSE,2.8177,,,,,,,,,,,,,,,,,,,,,,,,,,,,,,,
,613fb1f6fc794e7fc4059b8f,627c6fcbc97af1b5a3f18d90,2022-05-11_21h25.24.739,classification_task,2021.2.3,Win32,59.70862193,627c6715c52fd12f31907bd0,,,,,,,,,,,,,,,,,,,,,,,l,0,"[""0.251"",""0.527"",""0.878"",""0.122""]","[1,1,1,0]",0,58,58,58,1,0,0,,,0,FALSE,2.3828,,,,,,,,,,,,,,,,,,,,,,,,,,,,,,,
,613fb1f6fc794e7fc4059b8f,627c6fcbc97af1b5a3f18d90,2022-05-11_21h25.24.739,classification_task,2021.2.3,Win32,59.70862193,627c6715c52fd12f31907bd0,,,,,,,,,,,,,,,,,,,,,,,a,1,"[""0.251"",""0.573"",""0.878"",""0.949""]","[1,0,1,1]",0,59,59,59,1,0,0,,,0,FALSE,3.9825,,,,,,,,,,,,,,,,,,,,,,,,,,,,,,,
,613fb1f6fc794e7fc4059b8f,627c6fcbc97af1b5a3f18d90,2022-05-11_21h25.24.739,classification_task,2021.2.3,Win32,59.70862193,627c6715c52fd12f31907bd0,,,,,,,,,,,,,,,,,,,,,,,l,0,"[""0.200"",""0.421"",""0.671"",""0.571""]","[1,1,1,0]",0,60,60,60,1,0,1,,,0,FALSE,4.8988,,,,,,,,,,,,,,,,,,,,,,,,,,,,,,,
,613fb1f6fc794e7fc4059b8f,627c6fcbc97af1b5a3f18d90,2022-05-11_21h25.24.739,classification_task,2021.2.3,Win32,59.70862193,627c6715c52fd12f31907bd0,,,,,,,,,,,,,,,,,,,,,,,a,1,"[""0.777"",""0.421"",""0.671"",""0.913""]","[0,1,1,1]",0,61,61,61,1,0,1,,,0,FALSE,1.6154,,,,,,,,,,,,,,,,,,,,,,,,,,,,,,,
,613fb1f6fc794e7fc4059b8f,627c6fcbc97af1b5a3f18d90,2022-05-11_21h25.24.739,classification_task,2021.2.3,Win32,59.70862193,627c6715c52fd12f31907bd0,,,,,,,,,,,,,,,,,,,,,,,a,1,"[""0.251"",""0.527"",""0.146"",""0.949""]","[1,1,0,1]",0,62,62,62,1,0,0,,,0,FALSE,1.0652,,,,,,,,,,,,,,,,,,,,,,,,,,,,,,,
,613fb1f6fc794e7fc4059b8f,627c6fcbc97af1b5a3f18d90,2022-05-11_21h25.24.739,classification_task,2021.2.3,Win32,59.70862193,627c6715c52fd12f31907bd0,,,,,,,,,,,,,,,,,,,,,,,a,1,"[""0.200"",""0.157"",""0.671"",""0.913""]","[1,0,1,1]",0,63,63,63,1,0,1,,,0,FALSE,1.9971,,,,,,,,,,,,,,,,,,,,,,,,,,,,,,,
,613fb1f6fc794e7fc4059b8f,627c6fcbc97af1b5a3f18d90,2022-05-11_21h25.24.739,classification_task,2021.2.3,Win32,59.70862193,627c6715c52fd12f31907bd0,,,,,,,,,,,,,,,,,,,,,,,,,,,,,,,,,,,,,,,0, ,,0,10,290.5907,0,2,2,2,1,2,3,,,,,,,,,,,,,,,,,,
,613fb1f6fc794e7fc4059b8f,627c6fcbc97af1b5a3f18d90,2022-05-11_21h25.24.739,classification_task,2021.2.3,Win32,59.70862193,627c6715c52fd12f31907bd0,,,,,,,,,,,,,,,,,,,,,,,,,,,,,,,,,,,,,,,1,  ,,0,9.654125772,292.6151,0,2,2,2,1,2,3,,,,,,,,,,,,,,,,,,
,613fb1f6fc794e7fc4059b8f,627c6fcbc97af1b5a3f18d90,2022-05-11_21h25.24.739,classification_task,2021.2.3,Win32,59.70862193,627c6715c52fd12f31907bd0,,,,,,,,,,,,,,,,,,,,,,,,,,,,,,,,,,,,,,,2,  ,,0,9.60513573,294.2976,0,2,2,2,1,2,3,,,,,,,,,,,,,,,,,,
,613fb1f6fc794e7fc4059b8f,627c6fcbc97af1b5a3f18d90,2022-05-11_21h25.24.739,classification_task,2021.2.3,Win32,59.70862193,627c6715c52fd12f31907bd0,,,,,,,,,,,,,,,,,,,,,,,,,,,,,,,,,,,,,,,,,,,,,0,2,2,2,1,,3,,,,,,,,,,,,,,,,,,
,613fb1f6fc794e7fc4059b8f,627c6fcbc97af1b5a3f18d90,2022-05-11_21h25.24.739,classification_task,2021.2.3,Win32,59.70862193,627c6715c52fd12f31907bd0,,,,,,,,,,,,,,,,,,,,,,,,,,,,,,,,,,,,,,,,,,,,,,,,,,,,,I believe the aid is a competent performer,,0.7,0,4,1316.6676,0,0,0,0,1,0,,,,,
,613fb1f6fc794e7fc4059b8f,627c6fcbc97af1b5a3f18d90,2022-05-11_21h25.24.739,classification_task,2021.2.3,Win32,59.70862193,627c6715c52fd12f31907bd0,,,,,,,,,,,,,,,,,,,,,,,,,,,,,,,,,,,,,,,,,,,,,,,,,,,,,I trust the aid,,0.7,0,4,1319.7966,0,0,0,0,1,0,,,,,
,613fb1f6fc794e7fc4059b8f,627c6fcbc97af1b5a3f18d90,2022-05-11_21h25.24.739,classification_task,2021.2.3,Win32,59.70862193,627c6715c52fd12f31907bd0,,,,,,,,,,,,,,,,,,,,,,,,,,,,,,,,,,,,,,,,,,,,,,,,,,,,,I have confidence in the advice given by the aid,,0.7,0,4,1322.9489,0,0,0,0,1,0,,,,,
,613fb1f6fc794e7fc4059b8f,627c6fcbc97af1b5a3f18d90,2022-05-11_21h25.24.739,classification_task,2021.2.3,Win32,59.70862193,627c6715c52fd12f31907bd0,,,,,,,,,,,,,,,,,,,,,,,,,,,,,,,,,,,,,,,,,,,,,,,,,,,,,I can depend on the aid,,0.7,0,5,1373.0182,0,0,0,0,1,0,,,,,
,613fb1f6fc794e7fc4059b8f,627c6fcbc97af1b5a3f18d90,2022-05-11_21h25.24.739,classification_task,2021.2.3,Win32,59.70862193,627c6715c52fd12f31907bd0,,,,,,,,,,,,,,,,,,,,,,,,,,,,,,,,,,,,,,,,,,,,,,,,,,,,,I can rely on the aid to behave in consistent ways,,0.7,0,5,1376.2118,0,0,0,0,1,0,,,,,
,613fb1f6fc794e7fc4059b8f,627c6fcbc97af1b5a3f18d90,2022-05-11_21h25.24.739,classification_task,2021.2.3,Win32,59.70862193,627c6715c52fd12f31907bd0,,,,,,,,,,,,,,,,,,,,,,,,,,,,,,,,,,,,,,,,,,,,,,,,,,,,,I can rely on the aid to do its best every time I take its advice,,0.7,0,4,1330.3415,0,0,0,0,1,0,,,,,
,613fb1f6fc794e7fc4059b8f,627c6fcbc97af1b5a3f18d90,2022-05-11_21h25.24.739,classification_task,2021.2.3,Win32,59.70862193,627c6715c52fd12f31907bd0,,,,,,,,,,,,,,,,,,,,,,,,,,,,,,,,,,,,,,,,,,,,,,,,,,,,,"On trials you completed with assistance from the aid, how frequently did you think the aid was correct?",,0.7,0,75%,,0,0,0,0,1,0,,,,,
,613fb1f6fc794e7fc4059b8f,627c6fcbc97af1b5a3f18d90,2022-05-11_21h25.24.739,classification_task,2021.2.3,Win32,59.70862193,627c6715c52fd12f31907bd0,,,,,,,,,,,,,,,,,,,,,,,,,,,,,,,,,,,,,,,,,,,,,,,,,,,,,"On trials you completed without the aid, how frequently did you think you were correct?",,0.7,0,45%,,0,0,0,0,1,0,,,,,
,613fb1f6fc794e7fc4059b8f,627c6fcbc97af1b5a3f18d90,2022-05-11_21h25.24.739,classification_task,2021.2.3,Win32,59.70862193,627c6715c52fd12f31907bd0,,,,,,,,,,,,,,,,,,,,,,,,,,,,,,,,,,,,,,,,,,,,,,,,,,,,,,,,,,,0,0,0,0,1,,,,,,
,613fb1f6fc794e7fc4059b8f,627c6fcbc97af1b5a3f18d90,2022-05-11_21h25.24.739,classification_task,2021.2.3,Win32,59.70862193,627c6715c52fd12f31907bd0,,,,,,,,,,,,,,,,,,,,,,,,,,,,,,,,,,,,,,,,,,,,,,,,,,,,,,,,,,,,,,,,,space,27.7612,1406.1508,,
,613fb1f6fc794e7fc4059b8f,627c6fcbc97af1b5a3f18d90,2022-05-11_21h25.24.739,classification_task,2021.2.3,Win32,59.70862193,627c6715c52fd12f31907bd0,,,,,,,,,,,,,,,,,,,,,,,,,,,,,,,,,,,,,,,,,,,,,,,,,,,,,,,,,,,,,,,,,,,,"Mozilla/5.0 (Windows NT 10.0; Win64; x64) AppleWebKit/537.36 (KHTML, like Gecko) Chrome/101.0.4951.54 Safari/537.36",
,613fb1f6fc794e7fc4059b8f,627c6fcbc97af1b5a3f18d90,2022-05-11_21h25.24.739,classification_task,2021.2.3,Win32,59.70862193,627c6715c52fd12f31907bd0,,,,,,,,,,,,,,,,,,,,,,,,,,,,,,,,,,,,,,,,,,,,,,,,,,,,,,,,,,,,,,,,,,,,,LOWLIGHT
