usingWebGL,participant,session,date,expName,psychopyVersion,OS,frameRate,PROLIFIC_PID,STUDY_ID,SESSION_ID,signatures_friend,signatures_foe,band_ranges_top,band_ranges_bottom,formitemText,formtype,formundefined,formitemWidth,formindex,formresponse,formrt,key_resp_2.keys,key_resp_2.rt,tute_resp.keys,tute_resp.rt,tutorial.thisRepN,tutorial.thisTrialN,tutorial.thisN,tutorial.thisIndex,tutorial.ran,key_resp_4.keys,key_resp_4.rt,key_resp.keys,key_resp.corr,lines_presented,is_signal_presented,trials.thisRepN,trials.thisTrialN,trials.thisN,trials.thisIndex,trials.ran,vessel,active_band,lines,is_signal,supported_pos,catch_trial,key_resp.rt,debrief_formindex,debrief_formitemText,debrief_formtype,debrief_formitemWidth,debrief_formresponse,debrief_formrt,phases.thisRepN,phases.thisTrialN,phases.thisN,phases.thisIndex,phases.ran,phases.order,phase,key_resp_3.keys,trustitemText,trusttype,trustitemWidth,trustindex,trustresponse,trustrt,support_status.thisRepN,support_status.thisTrialN,support_status.thisN,support_status.thisIndex,support_status.ran,support_status.order,key_resp_5.keys,key_resp_5.rt,globalClockTime,userAgent
TRUE,614014b19c0f71d80ec584a0,001,2022-04-28_20h12.53.333,classification_task,2021.2.3,MacIntel,59.99880002,614014b19c0f71d80ec584a0,626b377229c10585ec392f8a,626b3b2e23c37665762c8ff4,,,,,,,,,,,,,,,,,,,,,,,,,,,,,,,,,,,,,,,,,,,,,,,,,,,,,,,,,,,,,,,,,,,,
,614014b19c0f71d80ec584a0,001,2022-04-28_20h12.53.333,classification_task,2021.2.3,MacIntel,59.99880002,614014b19c0f71d80ec584a0,626b377229c10585ec392f8a,626b3b2e23c37665762c8ff4,"[[""0.192"",""0.430"",""0.619"",""0.893""],[""0.235"",""0.520"",""0.848"",""0.974""]]","[[""0.123"",""0.360"",""0.480"",""0.813""],[""0.041"",""0.316"",""0.560"",""0.727""]]","[1,10]","[100,1000]",Video game experience,,,0.7,0,,,,,,,,,,,,,,,,,,,,,,,,,,,,,,,,,,,,,,,,,,,,,,,,,,,,,,,,,,,
,614014b19c0f71d80ec584a0,001,2022-04-28_20h12.53.333,classification_task,2021.2.3,MacIntel,59.99880002,614014b19c0f71d80ec584a0,626b377229c10585ec392f8a,626b3b2e23c37665762c8ff4,,,,,Approximately how many hours did you spend playing video games in the last week?,,,0.7,0,5,,,,,,,,,,,,,,,,,,,,,,,,,,,,,,,,,,,,,,,,,,,,,,,,,,,,,,,,,,
,614014b19c0f71d80ec584a0,001,2022-04-28_20h12.53.333,classification_task,2021.2.3,MacIntel,59.99880002,614014b19c0f71d80ec584a0,626b377229c10585ec392f8a,626b3b2e23c37665762c8ff4,,,,,"Which game did you play the most this year? (Enter ""None"" if you didn't play any)",,,0.7,0,league of legends,,,,,,,,,,,,,,,,,,,,,,,,,,,,,,,,,,,,,,,,,,,,,,,,,,,,,,,,,,
,614014b19c0f71d80ec584a0,001,2022-04-28_20h12.53.333,classification_task,2021.2.3,MacIntel,59.99880002,614014b19c0f71d80ec584a0,626b377229c10585ec392f8a,626b3b2e23c37665762c8ff4,,,,,Visual perception,,,0.7,0,,,,,,,,,,,,,,,,,,,,,,,,,,,,,,,,,,,,,,,,,,,,,,,,,,,,,,,,,,,
,614014b19c0f71d80ec584a0,001,2022-04-28_20h12.53.333,classification_task,2021.2.3,MacIntel,59.99880002,614014b19c0f71d80ec584a0,626b377229c10585ec392f8a,626b3b2e23c37665762c8ff4,,,,,Do you have any form of color blindness?,,,0.7,0,No,19.6511,,,,,,,,,,,,,,,,,,,,,,,,,,,,,,,,,,,,,,,,,,,,,,,,,,,,,,,,,
,614014b19c0f71d80ec584a0,001,2022-04-28_20h12.53.333,classification_task,2021.2.3,MacIntel,59.99880002,614014b19c0f71d80ec584a0,626b377229c10585ec392f8a,626b3b2e23c37665762c8ff4,,,,,Do you use software to change the colour temperature of your screen (e.g. f.lux)?,,,0.7,0,No,21.7332,,,,,,,,,,,,,,,,,,,,,,,,,,,,,,,,,,,,,,,,,,,,,,,,,,,,,,,,,
,614014b19c0f71d80ec584a0,001,2022-04-28_20h12.53.333,classification_task,2021.2.3,MacIntel,59.99880002,614014b19c0f71d80ec584a0,626b377229c10585ec392f8a,626b3b2e23c37665762c8ff4,,,,,,,,,,,,space,49.5141,space,7.2273,0,0,0,0,1,,,,,,,,,,,,,,,,,,,,,,,,,,,,,,,,,,,,,,,,,,,,,,,,
,614014b19c0f71d80ec584a0,001,2022-04-28_20h12.53.333,classification_task,2021.2.3,MacIntel,59.99880002,614014b19c0f71d80ec584a0,626b377229c10585ec392f8a,626b3b2e23c37665762c8ff4,,,,,,,,,,,,,,space,13.135,1,0,1,0,1,,,,,,,,,,,,,,,,,,,,,,,,,,,,,,,,,,,,,,,,,,,,,,,,
,614014b19c0f71d80ec584a0,001,2022-04-28_20h12.53.333,classification_task,2021.2.3,MacIntel,59.99880002,614014b19c0f71d80ec584a0,626b377229c10585ec392f8a,626b3b2e23c37665762c8ff4,,,,,,,,,,,,,,space,12.6338,2,0,2,0,1,,,,,,,,,,,,,,,,,,,,,,,,,,,,,,,,,,,,,,,,,,,,,,,,
,614014b19c0f71d80ec584a0,001,2022-04-28_20h12.53.333,classification_task,2021.2.3,MacIntel,59.99880002,614014b19c0f71d80ec584a0,626b377229c10585ec392f8a,626b3b2e23c37665762c8ff4,,,,,,,,,,,,,,space,14.9995,3,0,3,0,1,,,,,,,,,,,,,,,,,,,,,,,,,,,,,,,,,,,,,,,,,,,,,,,,
,614014b19c0f71d80ec584a0,001,2022-04-28_20h12.53.333,classification_task,2021.2.3,MacIntel,59.99880002,614014b19c0f71d80ec584a0,626b377229c10585ec392f8a,626b3b2e23c37665762c8ff4,,,,,,,,,,,,,,space,13.4625,4,0,4,0,1,,,,,,,,,,,,,,,,,,,,,,,,,,,,,,,,,,,,,,,,,,,,,,,,
,614014b19c0f71d80ec584a0,001,2022-04-28_20h12.53.333,classification_task,2021.2.3,MacIntel,59.99880002,614014b19c0f71d80ec584a0,626b377229c10585ec392f8a,626b3b2e23c37665762c8ff4,,,,,,,,,,,,,,,,,,,,,space,6.6413,,0,"[""0.192"",""0.430"",""0.085"",""0.893""]","[1,1,0,1]",0,0,0,0,1,0,0,,,1,FALSE,,,,,,,,,,,,,,,,,,,,,,,,,,,,,,,
,614014b19c0f71d80ec584a0,001,2022-04-28_20h12.53.333,classification_task,2021.2.3,MacIntel,59.99880002,614014b19c0f71d80ec584a0,626b377229c10585ec392f8a,626b3b2e23c37665762c8ff4,,,,,,,,,,,,,,,,,,,,,,,l,1,"[""0.123"",""0.689"",""0.480"",""0.813""]","[1,0,1,1]",0,1,1,1,1,1,0,,,1,FALSE,2.6422,,,,,,,,,,,,,,,,,,,,,,,,,,,,,,
,614014b19c0f71d80ec584a0,001,2022-04-28_20h12.53.333,classification_task,2021.2.3,MacIntel,59.99880002,614014b19c0f71d80ec584a0,626b377229c10585ec392f8a,626b3b2e23c37665762c8ff4,,,,,,,,,,,,,,,,,,,,,,,l,1,"[""0.041"",""0.665"",""0.560"",""0.727""]","[1,0,1,1]",0,2,2,2,1,1,1,,,1,FALSE,2.833,,,,,,,,,,,,,,,,,,,,,,,,,,,,,,
,614014b19c0f71d80ec584a0,001,2022-04-28_20h12.53.333,classification_task,2021.2.3,MacIntel,59.99880002,614014b19c0f71d80ec584a0,626b377229c10585ec392f8a,626b3b2e23c37665762c8ff4,,,,,,,,,,,,,,,,,,,,,,,a,1,"[""0.235"",""0.665"",""0.848"",""0.974""]","[1,0,1,1]",0,3,3,3,1,0,1,,,1,FALSE,2.6575,,,,,,,,,,,,,,,,,,,,,,,,,,,,,,
,614014b19c0f71d80ec584a0,001,2022-04-28_20h12.53.333,classification_task,2021.2.3,MacIntel,59.99880002,614014b19c0f71d80ec584a0,626b377229c10585ec392f8a,626b3b2e23c37665762c8ff4,,,,,,,,,,,,,,,,,,,,,,,l,1,"[""0.940"",""0.360"",""0.480"",""0.813""]","[0,1,1,1]",0,4,4,4,1,1,0,,,1,FALSE,3.7367,,,,,,,,,,,,,,,,,,,,,,,,,,,,,,
,614014b19c0f71d80ec584a0,001,2022-04-28_20h12.53.333,classification_task,2021.2.3,MacIntel,59.99880002,614014b19c0f71d80ec584a0,626b377229c10585ec392f8a,626b3b2e23c37665762c8ff4,,,,,,,,,,,,,,,,,,,,,,,a,1,"[""0.235"",""0.520"",""0.848"",""0.940""]","[1,1,1,0]",0,5,5,5,1,0,1,,,1,FALSE,2.5357,,,,,,,,,,,,,,,,,,,,,,,,,,,,,,
,614014b19c0f71d80ec584a0,001,2022-04-28_20h12.53.333,classification_task,2021.2.3,MacIntel,59.99880002,614014b19c0f71d80ec584a0,626b377229c10585ec392f8a,626b3b2e23c37665762c8ff4,,,,,,,,,,,,,,,,,,,,,,,a,0,"[""0.123"",""0.360"",""0.480"",""0.090""]","[1,1,1,0]",0,6,6,6,1,1,0,,,1,FALSE,3.4492,,,,,,,,,,,,,,,,,,,,,,,,,,,,,,
,614014b19c0f71d80ec584a0,001,2022-04-28_20h12.53.333,classification_task,2021.2.3,MacIntel,59.99880002,614014b19c0f71d80ec584a0,626b377229c10585ec392f8a,626b3b2e23c37665762c8ff4,,,,,,,,,,,,,,,,,,,,,,,l,1,"[""0.123"",""0.360"",""0.669"",""0.813""]","[1,1,0,1]",0,7,7,7,1,1,0,,,1,FALSE,1.6646,,,,,,,,,,,,,,,,,,,,,,,,,,,,,,
,614014b19c0f71d80ec584a0,001,2022-04-28_20h12.53.333,classification_task,2021.2.3,MacIntel,59.99880002,614014b19c0f71d80ec584a0,626b377229c10585ec392f8a,626b3b2e23c37665762c8ff4,,,,,,,,,,,,,,,,,,,,,,,a,1,"[""0.940"",""0.430"",""0.619"",""0.893""]","[0,1,1,1]",0,8,8,8,1,0,0,,,1,FALSE,4.254,,,,,,,,,,,,,,,,,,,,,,,,,,,,,,
,614014b19c0f71d80ec584a0,001,2022-04-28_20h12.53.333,classification_task,2021.2.3,MacIntel,59.99880002,614014b19c0f71d80ec584a0,626b377229c10585ec392f8a,626b3b2e23c37665762c8ff4,,,,,,,,,,,,,,,,,,,,,,,l,1,"[""0.041"",""0.316"",""0.560"",""0.689""]","[1,1,1,0]",0,9,9,9,1,1,1,,,1,FALSE,1.9314,,,,,,,,,,,,,,,,,,,,,,,,,,,,,,
,614014b19c0f71d80ec584a0,001,2022-04-28_20h12.53.333,classification_task,2021.2.3,MacIntel,59.99880002,614014b19c0f71d80ec584a0,626b377229c10585ec392f8a,626b3b2e23c37665762c8ff4,,,,,,,,,,,,,,,,,,,,,,,a,1,"[""0.192"",""0.940"",""0.619"",""0.893""]","[1,0,1,1]",0,10,10,10,1,0,0,,,1,FALSE,3.2605,,,,,,,,,,,,,,,,,,,,,,,,,,,,,,
,614014b19c0f71d80ec584a0,001,2022-04-28_20h12.53.333,classification_task,2021.2.3,MacIntel,59.99880002,614014b19c0f71d80ec584a0,626b377229c10585ec392f8a,626b3b2e23c37665762c8ff4,,,,,,,,,,,,,,,,,,,,,,,l,1,"[""0.041"",""0.316"",""0.685"",""0.727""]","[1,1,0,1]",0,11,11,11,1,1,1,,,1,FALSE,2.5006,,,,,,,,,,,,,,,,,,,,,,,,,,,,,,
,614014b19c0f71d80ec584a0,001,2022-04-28_20h12.53.333,classification_task,2021.2.3,MacIntel,59.99880002,614014b19c0f71d80ec584a0,626b377229c10585ec392f8a,626b3b2e23c37665762c8ff4,,,,,,,,,,,,,,,,,,,,,,,l,0,"[""0.192"",""0.430"",""0.619"",""0.689""]","[1,1,1,0]",0,12,12,12,1,0,0,,,1,FALSE,2.0293,,,,,,,,,,,,,,,,,,,,,,,,,,,,,,
,614014b19c0f71d80ec584a0,001,2022-04-28_20h12.53.333,classification_task,2021.2.3,MacIntel,59.99880002,614014b19c0f71d80ec584a0,626b377229c10585ec392f8a,626b3b2e23c37665762c8ff4,,,,,,,,,,,,,,,,,,,,,,,l,1,"[""0.770"",""0.316"",""0.560"",""0.727""]","[0,1,1,1]",0,13,13,13,1,1,1,,,1,FALSE,4.2663,,,,,,,,,,,,,,,,,,,,,,,,,,,,,,
,614014b19c0f71d80ec584a0,001,2022-04-28_20h12.53.333,classification_task,2021.2.3,MacIntel,59.99880002,614014b19c0f71d80ec584a0,626b377229c10585ec392f8a,626b3b2e23c37665762c8ff4,,,,,,,,,,,,,,,,,,,,,,,a,1,"[""0.235"",""0.520"",""0.685"",""0.974""]","[1,1,0,1]",0,14,14,14,1,0,1,,,1,FALSE,1.454,,,,,,,,,,,,,,,,,,,,,,,,,,,,,,
,614014b19c0f71d80ec584a0,001,2022-04-28_20h12.53.333,classification_task,2021.2.3,MacIntel,59.99880002,614014b19c0f71d80ec584a0,626b377229c10585ec392f8a,626b3b2e23c37665762c8ff4,,,,,,,,,,,,,,,,,,,,,,,l,0,"[""0.654"",""0.520"",""0.848"",""0.974""]","[0,1,1,1]",0,15,15,15,1,0,1,,,1,FALSE,0.9683,,,,,,,,,,,,,,,,,,,,,,,,,,,,,,
,614014b19c0f71d80ec584a0,001,2022-04-28_20h12.53.333,classification_task,2021.2.3,MacIntel,59.99880002,614014b19c0f71d80ec584a0,626b377229c10585ec392f8a,626b3b2e23c37665762c8ff4,,,,,,,,,,,,,,,,,,,,,,,l,1,"[""0.123"",""0.669"",""0.480"",""0.813""]","[1,0,1,1]",0,16,16,16,1,1,0,,,1,FALSE,3.7929,,,,,,,,,,,,,,,,,,,,,,,,,,,,,,
,614014b19c0f71d80ec584a0,001,2022-04-28_20h12.53.333,classification_task,2021.2.3,MacIntel,59.99880002,614014b19c0f71d80ec584a0,626b377229c10585ec392f8a,626b3b2e23c37665762c8ff4,,,,,,,,,,,,,,,,,,,,,,,l,1,"[""0.654"",""0.316"",""0.560"",""0.727""]","[0,1,1,1]",0,17,17,17,1,1,1,,,1,FALSE,3.7237,,,,,,,,,,,,,,,,,,,,,,,,,,,,,,
,614014b19c0f71d80ec584a0,001,2022-04-28_20h12.53.333,classification_task,2021.2.3,MacIntel,59.99880002,614014b19c0f71d80ec584a0,626b377229c10585ec392f8a,626b3b2e23c37665762c8ff4,,,,,,,,,,,,,,,,,,,,,,,a,1,"[""0.192"",""0.430"",""0.619"",""0.665""]","[1,1,1,0]",0,18,18,18,1,0,0,,,1,FALSE,3.8683,,,,,,,,,,,,,,,,,,,,,,,,,,,,,,
,614014b19c0f71d80ec584a0,001,2022-04-28_20h12.53.333,classification_task,2021.2.3,MacIntel,59.99880002,614014b19c0f71d80ec584a0,626b377229c10585ec392f8a,626b3b2e23c37665762c8ff4,,,,,,,,,,,,,,,,,,,,,,,l,1,"[""0.123"",""0.360"",""0.480"",""0.938""]","[1,1,1,0]",0,19,19,19,1,1,0,,,1,FALSE,1.8076,,,,,,,,,,,,,,,,,,,,,,,,,,,,,,
,614014b19c0f71d80ec584a0,001,2022-04-28_20h12.53.333,classification_task,2021.2.3,MacIntel,59.99880002,614014b19c0f71d80ec584a0,626b377229c10585ec392f8a,626b3b2e23c37665762c8ff4,,,,,,,,,,,,,,,,,,,,,,,a,1,"[""0.940"",""0.520"",""0.848"",""0.974""]","[0,1,1,1]",0,20,20,20,1,0,1,,,1,FALSE,2.8436,,,,,,,,,,,,,,,,,,,,,,,,,,,,,,
,614014b19c0f71d80ec584a0,001,2022-04-28_20h12.53.333,classification_task,2021.2.3,MacIntel,59.99880002,614014b19c0f71d80ec584a0,626b377229c10585ec392f8a,626b3b2e23c37665762c8ff4,,,,,,,,,,,,,,,,,,,,,,,a,1,"[""0.931"",""0.430"",""0.619"",""0.893""]","[0,1,1,1]",0,21,21,21,1,0,0,,,1,FALSE,2.9287,,,,,,,,,,,,,,,,,,,,,,,,,,,,,,
,614014b19c0f71d80ec584a0,001,2022-04-28_20h12.53.333,classification_task,2021.2.3,MacIntel,59.99880002,614014b19c0f71d80ec584a0,626b377229c10585ec392f8a,626b3b2e23c37665762c8ff4,,,,,,,,,,,,,,,,,,,,,,,l,1,"[""0.940"",""0.360"",""0.480"",""0.813""]","[0,1,1,1]",0,22,22,22,1,1,0,,,1,FALSE,1.7226,,,,,,,,,,,,,,,,,,,,,,,,,,,,,,
,614014b19c0f71d80ec584a0,001,2022-04-28_20h12.53.333,classification_task,2021.2.3,MacIntel,59.99880002,614014b19c0f71d80ec584a0,626b377229c10585ec392f8a,626b3b2e23c37665762c8ff4,,,,,,,,,,,,,,,,,,,,,,,l,1,"[""0.041"",""0.316"",""0.778"",""0.727""]","[1,1,0,1]",0,23,23,23,1,1,1,,,1,FALSE,2.8675,,,,,,,,,,,,,,,,,,,,,,,,,,,,,,
,614014b19c0f71d80ec584a0,001,2022-04-28_20h12.53.333,classification_task,2021.2.3,MacIntel,59.99880002,614014b19c0f71d80ec584a0,626b377229c10585ec392f8a,626b3b2e23c37665762c8ff4,,,,,,,,,,,,,,,,,,,,,,,l,1,"[""0.041"",""0.316"",""0.560"",""0.672""]","[1,1,1,0]",0,24,24,24,1,1,1,,,1,FALSE,1.6733,,,,,,,,,,,,,,,,,,,,,,,,,,,,,,
,614014b19c0f71d80ec584a0,001,2022-04-28_20h12.53.333,classification_task,2021.2.3,MacIntel,59.99880002,614014b19c0f71d80ec584a0,626b377229c10585ec392f8a,626b3b2e23c37665762c8ff4,,,,,,,,,,,,,,,,,,,,,,,a,1,"[""0.192"",""0.938"",""0.619"",""0.893""]","[1,0,1,1]",0,25,25,25,1,0,0,,,1,FALSE,3.6264,,,,,,,,,,,,,,,,,,,,,,,,,,,,,,
,614014b19c0f71d80ec584a0,001,2022-04-28_20h12.53.333,classification_task,2021.2.3,MacIntel,59.99880002,614014b19c0f71d80ec584a0,626b377229c10585ec392f8a,626b3b2e23c37665762c8ff4,,,,,,,,,,,,,,,,,,,,,,,a,1,"[""0.235"",""0.520"",""0.848"",""0.672""]","[1,1,1,0]",0,26,26,26,1,0,1,,,1,FALSE,2.684,,,,,,,,,,,,,,,,,,,,,,,,,,,,,,
,614014b19c0f71d80ec584a0,001,2022-04-28_20h12.53.333,classification_task,2021.2.3,MacIntel,59.99880002,614014b19c0f71d80ec584a0,626b377229c10585ec392f8a,626b3b2e23c37665762c8ff4,,,,,,,,,,,,,,,,,,,,,,,a,1,"[""0.192"",""0.430"",""0.672"",""0.893""]","[1,1,0,1]",0,27,27,27,1,0,0,,,1,FALSE,3.4016,,,,,,,,,,,,,,,,,,,,,,,,,,,,,,
,614014b19c0f71d80ec584a0,001,2022-04-28_20h12.53.333,classification_task,2021.2.3,MacIntel,59.99880002,614014b19c0f71d80ec584a0,626b377229c10585ec392f8a,626b3b2e23c37665762c8ff4,,,,,,,,,,,,,,,,,,,,,,,l,1,"[""0.041"",""0.778"",""0.560"",""0.727""]","[1,0,1,1]",0,28,28,28,1,1,1,,,1,FALSE,3.033,,,,,,,,,,,,,,,,,,,,,,,,,,,,,,
,614014b19c0f71d80ec584a0,001,2022-04-28_20h12.53.333,classification_task,2021.2.3,MacIntel,59.99880002,614014b19c0f71d80ec584a0,626b377229c10585ec392f8a,626b3b2e23c37665762c8ff4,,,,,,,,,,,,,,,,,,,,,,,a,1,"[""0.235"",""0.938"",""0.848"",""0.974""]","[1,0,1,1]",0,29,29,29,1,0,1,,,1,FALSE,2.8898,,,,,,,,,,,,,,,,,,,,,,,,,,,,,,
,614014b19c0f71d80ec584a0,001,2022-04-28_20h12.53.333,classification_task,2021.2.3,MacIntel,59.99880002,614014b19c0f71d80ec584a0,626b377229c10585ec392f8a,626b3b2e23c37665762c8ff4,,,,,,,,,,,,,,,,,,,,,,,l,1,"[""0.123"",""0.360"",""0.085"",""0.813""]","[1,1,0,1]",0,30,30,30,1,1,0,,,1,FALSE,5.9695,,,,,,,,,,,,,,,,,,,,,,,,,,,,,,
,614014b19c0f71d80ec584a0,001,2022-04-28_20h12.53.333,classification_task,2021.2.3,MacIntel,59.99880002,614014b19c0f71d80ec584a0,626b377229c10585ec392f8a,626b3b2e23c37665762c8ff4,,,,,,,,,,,,,,,,,,,,,,,a,1,"[""0.235"",""0.520"",""0.694"",""0.974""]","[1,1,0,1]",0,31,31,31,1,0,1,,,1,FALSE,1.5338,,,,,,,,,,,,,,,,,,,,,,,,,,,,,,
,614014b19c0f71d80ec584a0,001,2022-04-28_20h12.53.333,classification_task,2021.2.3,MacIntel,59.99880002,614014b19c0f71d80ec584a0,626b377229c10585ec392f8a,626b3b2e23c37665762c8ff4,,,,,,,,,,,,,,,,,,,,,,,a,0,"[""0.679"",""0.360"",""0.480"",""0.813""]","[0,1,1,1]",0,32,32,32,1,1,0,,,1,FALSE,3.8949,,,,,,,,,,,,,,,,,,,,,,,,,,,,,,
,614014b19c0f71d80ec584a0,001,2022-04-28_20h12.53.333,classification_task,2021.2.3,MacIntel,59.99880002,614014b19c0f71d80ec584a0,626b377229c10585ec392f8a,626b3b2e23c37665762c8ff4,,,,,,,,,,,,,,,,,,,,,,,l,0,"[""0.192"",""0.430"",""0.085"",""0.893""]","[1,1,0,1]",0,33,33,33,1,0,0,,,1,FALSE,1.4024,,,,,,,,,,,,,,,,,,,,,,,,,,,,,,
,614014b19c0f71d80ec584a0,001,2022-04-28_20h12.53.333,classification_task,2021.2.3,MacIntel,59.99880002,614014b19c0f71d80ec584a0,626b377229c10585ec392f8a,626b3b2e23c37665762c8ff4,,,,,,,,,,,,,,,,,,,,,,,l,1,"[""0.090"",""0.316"",""0.560"",""0.727""]","[0,1,1,1]",0,34,34,34,1,1,1,,,1,FALSE,1.233,,,,,,,,,,,,,,,,,,,,,,,,,,,,,,
,614014b19c0f71d80ec584a0,001,2022-04-28_20h12.53.333,classification_task,2021.2.3,MacIntel,59.99880002,614014b19c0f71d80ec584a0,626b377229c10585ec392f8a,626b3b2e23c37665762c8ff4,,,,,,,,,,,,,,,,,,,,,,,a,0,"[""0.041"",""0.656"",""0.560"",""0.727""]","[1,0,1,1]",0,35,35,35,1,1,1,,,1,FALSE,2.4552,,,,,,,,,,,,,,,,,,,,,,,,,,,,,,
,614014b19c0f71d80ec584a0,001,2022-04-28_20h12.53.333,classification_task,2021.2.3,MacIntel,59.99880002,614014b19c0f71d80ec584a0,626b377229c10585ec392f8a,626b3b2e23c37665762c8ff4,,,,,,,,,,,,,,,,,,,,,,,a,1,"[""0.235"",""0.520"",""0.848"",""0.085""]","[1,1,1,0]",0,36,36,36,1,0,1,,,1,FALSE,1.0506,,,,,,,,,,,,,,,,,,,,,,,,,,,,,,
,614014b19c0f71d80ec584a0,001,2022-04-28_20h12.53.333,classification_task,2021.2.3,MacIntel,59.99880002,614014b19c0f71d80ec584a0,626b377229c10585ec392f8a,626b3b2e23c37665762c8ff4,,,,,,,,,,,,,,,,,,,,,,,a,1,"[""0.192"",""0.430"",""0.619"",""0.656""]","[1,1,1,0]",0,37,37,37,1,0,0,,,1,FALSE,1.4217,,,,,,,,,,,,,,,,,,,,,,,,,,,,,,
,614014b19c0f71d80ec584a0,001,2022-04-28_20h12.53.333,classification_task,2021.2.3,MacIntel,59.99880002,614014b19c0f71d80ec584a0,626b377229c10585ec392f8a,626b3b2e23c37665762c8ff4,,,,,,,,,,,,,,,,,,,,,,,l,1,"[""0.041"",""0.316"",""0.090"",""0.727""]","[1,1,0,1]",0,38,38,38,1,1,1,,,1,FALSE,1.5736,,,,,,,,,,,,,,,,,,,,,,,,,,,,,,
,614014b19c0f71d80ec584a0,001,2022-04-28_20h12.53.333,classification_task,2021.2.3,MacIntel,59.99880002,614014b19c0f71d80ec584a0,626b377229c10585ec392f8a,626b3b2e23c37665762c8ff4,,,,,,,,,,,,,,,,,,,,,,,a,1,"[""0.235"",""0.520"",""0.656"",""0.974""]","[1,1,0,1]",0,39,39,39,1,0,1,,,1,FALSE,1.2544,,,,,,,,,,,,,,,,,,,,,,,,,,,,,,
,614014b19c0f71d80ec584a0,001,2022-04-28_20h12.53.333,classification_task,2021.2.3,MacIntel,59.99880002,614014b19c0f71d80ec584a0,626b377229c10585ec392f8a,626b3b2e23c37665762c8ff4,,,,,,,,,,,,,,,,,,,,,,,a,0,"[""0.123"",""0.672"",""0.480"",""0.813""]","[1,0,1,1]",0,40,40,40,1,1,0,,,1,FALSE,2.1501,,,,,,,,,,,,,,,,,,,,,,,,,,,,,,
,614014b19c0f71d80ec584a0,001,2022-04-28_20h12.53.333,classification_task,2021.2.3,MacIntel,59.99880002,614014b19c0f71d80ec584a0,626b377229c10585ec392f8a,626b3b2e23c37665762c8ff4,,,,,,,,,,,,,,,,,,,,,,,l,0,"[""0.770"",""0.520"",""0.848"",""0.974""]","[0,1,1,1]",0,41,41,41,1,0,1,,,1,FALSE,1.788,,,,,,,,,,,,,,,,,,,,,,,,,,,,,,
,614014b19c0f71d80ec584a0,001,2022-04-28_20h12.53.333,classification_task,2021.2.3,MacIntel,59.99880002,614014b19c0f71d80ec584a0,626b377229c10585ec392f8a,626b3b2e23c37665762c8ff4,,,,,,,,,,,,,,,,,,,,,,,a,0,"[""0.041"",""0.316"",""0.560"",""0.665""]","[1,1,1,0]",0,42,42,42,1,1,1,,,1,FALSE,1.9499,,,,,,,,,,,,,,,,,,,,,,,,,,,,,,
,614014b19c0f71d80ec584a0,001,2022-04-28_20h12.53.333,classification_task,2021.2.3,MacIntel,59.99880002,614014b19c0f71d80ec584a0,626b377229c10585ec392f8a,626b3b2e23c37665762c8ff4,,,,,,,,,,,,,,,,,,,,,,,a,0,"[""0.123"",""0.360"",""0.654"",""0.813""]","[1,1,0,1]",0,43,43,43,1,1,0,,,1,FALSE,1.1144,,,,,,,,,,,,,,,,,,,,,,,,,,,,,,
,614014b19c0f71d80ec584a0,001,2022-04-28_20h12.53.333,classification_task,2021.2.3,MacIntel,59.99880002,614014b19c0f71d80ec584a0,626b377229c10585ec392f8a,626b3b2e23c37665762c8ff4,,,,,,,,,,,,,,,,,,,,,,,a,1,"[""0.235"",""0.770"",""0.848"",""0.974""]","[1,0,1,1]",0,44,44,44,1,0,1,,,1,FALSE,1.4558,,,,,,,,,,,,,,,,,,,,,,,,,,,,,,
,614014b19c0f71d80ec584a0,001,2022-04-28_20h12.53.333,classification_task,2021.2.3,MacIntel,59.99880002,614014b19c0f71d80ec584a0,626b377229c10585ec392f8a,626b3b2e23c37665762c8ff4,,,,,,,,,,,,,,,,,,,,,,,a,1,"[""0.192"",""0.778"",""0.619"",""0.893""]","[1,0,1,1]",0,45,45,45,1,0,0,,,1,FALSE,1.8008,,,,,,,,,,,,,,,,,,,,,,,,,,,,,,
,614014b19c0f71d80ec584a0,001,2022-04-28_20h12.53.333,classification_task,2021.2.3,MacIntel,59.99880002,614014b19c0f71d80ec584a0,626b377229c10585ec392f8a,626b3b2e23c37665762c8ff4,,,,,,,,,,,,,,,,,,,,,,,l,0,"[""0.770"",""0.430"",""0.619"",""0.893""]","[0,1,1,1]",0,46,46,46,1,0,0,,,1,FALSE,1.0856,,,,,,,,,,,,,,,,,,,,,,,,,,,,,,
,614014b19c0f71d80ec584a0,001,2022-04-28_20h12.53.333,classification_task,2021.2.3,MacIntel,59.99880002,614014b19c0f71d80ec584a0,626b377229c10585ec392f8a,626b3b2e23c37665762c8ff4,,,,,,,,,,,,,,,,,,,,,,,a,0,"[""0.123"",""0.360"",""0.480"",""0.656""]","[1,1,1,0]",0,47,47,47,1,1,0,,,1,FALSE,1.2002,,,,,,,,,,,,,,,,,,,,,,,,,,,,,,
,614014b19c0f71d80ec584a0,001,2022-04-28_20h12.53.333,classification_task,2021.2.3,MacIntel,59.99880002,614014b19c0f71d80ec584a0,626b377229c10585ec392f8a,626b3b2e23c37665762c8ff4,,,,,,,,,,,,,,,,,,,,,,,l,0,"[""0.235"",""0.672"",""0.848"",""0.974""]","[1,0,1,1]",0,48,48,48,1,0,1,,,1,FALSE,1.1658,,,,,,,,,,,,,,,,,,,,,,,,,,,,,,
,614014b19c0f71d80ec584a0,001,2022-04-28_20h12.53.333,classification_task,2021.2.3,MacIntel,59.99880002,614014b19c0f71d80ec584a0,626b377229c10585ec392f8a,626b3b2e23c37665762c8ff4,,,,,,,,,,,,,,,,,,,,,,,l,1,"[""0.041"",""0.316"",""0.560"",""0.931""]","[1,1,1,0]",0,49,49,49,1,1,1,,,1,FALSE,1.7545,,,,,,,,,,,,,,,,,,,,,,,,,,,,,,
,614014b19c0f71d80ec584a0,001,2022-04-28_20h12.53.333,classification_task,2021.2.3,MacIntel,59.99880002,614014b19c0f71d80ec584a0,626b377229c10585ec392f8a,626b3b2e23c37665762c8ff4,,,,,,,,,,,,,,,,,,,,,,,a,0,"[""0.123"",""0.360"",""0.685"",""0.813""]","[1,1,0,1]",0,50,50,50,1,1,0,,,1,FALSE,1.5215,,,,,,,,,,,,,,,,,,,,,,,,,,,,,,
,614014b19c0f71d80ec584a0,001,2022-04-28_20h12.53.333,classification_task,2021.2.3,MacIntel,59.99880002,614014b19c0f71d80ec584a0,626b377229c10585ec392f8a,626b3b2e23c37665762c8ff4,,,,,,,,,,,,,,,,,,,,,,,a,1,"[""0.931"",""0.430"",""0.619"",""0.893""]","[0,1,1,1]",0,51,51,51,1,0,0,,,1,FALSE,1.4189,,,,,,,,,,,,,,,,,,,,,,,,,,,,,,
,614014b19c0f71d80ec584a0,001,2022-04-28_20h12.53.333,classification_task,2021.2.3,MacIntel,59.99880002,614014b19c0f71d80ec584a0,626b377229c10585ec392f8a,626b3b2e23c37665762c8ff4,,,,,,,,,,,,,,,,,,,,,,,a,0,"[""0.123"",""0.685"",""0.480"",""0.813""]","[1,0,1,1]",0,52,52,52,1,1,0,,,1,FALSE,1.6197,,,,,,,,,,,,,,,,,,,,,,,,,,,,,,
,614014b19c0f71d80ec584a0,001,2022-04-28_20h12.53.333,classification_task,2021.2.3,MacIntel,59.99880002,614014b19c0f71d80ec584a0,626b377229c10585ec392f8a,626b3b2e23c37665762c8ff4,,,,,,,,,,,,,,,,,,,,,,,l,1,"[""0.041"",""0.931"",""0.560"",""0.727""]","[1,0,1,1]",0,53,53,53,1,1,1,,,1,FALSE,1.5421,,,,,,,,,,,,,,,,,,,,,,,,,,,,,,
,614014b19c0f71d80ec584a0,001,2022-04-28_20h12.53.333,classification_task,2021.2.3,MacIntel,59.99880002,614014b19c0f71d80ec584a0,626b377229c10585ec392f8a,626b3b2e23c37665762c8ff4,,,,,,,,,,,,,,,,,,,,,,,l,1,"[""0.041"",""0.316"",""0.665"",""0.727""]","[1,1,0,1]",0,54,54,54,1,1,1,,,1,FALSE,1.8817,,,,,,,,,,,,,,,,,,,,,,,,,,,,,,
,614014b19c0f71d80ec584a0,001,2022-04-28_20h12.53.333,classification_task,2021.2.3,MacIntel,59.99880002,614014b19c0f71d80ec584a0,626b377229c10585ec392f8a,626b3b2e23c37665762c8ff4,,,,,,,,,,,,,,,,,,,,,,,a,1,"[""0.192"",""0.430"",""0.931"",""0.893""]","[1,1,0,1]",0,55,55,55,1,0,0,,,1,FALSE,1.7685,,,,,,,,,,,,,,,,,,,,,,,,,,,,,,
,614014b19c0f71d80ec584a0,001,2022-04-28_20h12.53.333,classification_task,2021.2.3,MacIntel,59.99880002,614014b19c0f71d80ec584a0,626b377229c10585ec392f8a,626b3b2e23c37665762c8ff4,,,,,,,,,,,,,,,,,,,,,,,a,1,"[""0.235"",""0.520"",""0.848"",""0.665""]","[1,1,1,0]",0,56,56,56,1,0,1,,,1,FALSE,1.0219,,,,,,,,,,,,,,,,,,,,,,,,,,,,,,
,614014b19c0f71d80ec584a0,001,2022-04-28_20h12.53.333,classification_task,2021.2.3,MacIntel,59.99880002,614014b19c0f71d80ec584a0,626b377229c10585ec392f8a,626b3b2e23c37665762c8ff4,,,,,,,,,,,,,,,,,,,,,,,l,1,"[""0.123"",""0.360"",""0.480"",""0.694""]","[1,1,1,0]",0,57,57,57,1,1,0,,,1,FALSE,3.3152,,,,,,,,,,,,,,,,,,,,,,,,,,,,,,
,614014b19c0f71d80ec584a0,001,2022-04-28_20h12.53.333,classification_task,2021.2.3,MacIntel,59.99880002,614014b19c0f71d80ec584a0,626b377229c10585ec392f8a,626b3b2e23c37665762c8ff4,,,,,,,,,,,,,,,,,,,,,,,l,0,"[""0.685"",""0.520"",""0.848"",""0.974""]","[0,1,1,1]",0,58,58,58,1,0,1,,,1,FALSE,1.09,,,,,,,,,,,,,,,,,,,,,,,,,,,,,,
,614014b19c0f71d80ec584a0,001,2022-04-28_20h12.53.333,classification_task,2021.2.3,MacIntel,59.99880002,614014b19c0f71d80ec584a0,626b377229c10585ec392f8a,626b3b2e23c37665762c8ff4,,,,,,,,,,,,,,,,,,,,,,,a,1,"[""0.235"",""0.520"",""0.778"",""0.974""]","[1,1,0,1]",0,59,59,59,1,0,1,,,1,FALSE,1.4839,,,,,,,,,,,,,,,,,,,,,,,,,,,,,,
,614014b19c0f71d80ec584a0,001,2022-04-28_20h12.53.333,classification_task,2021.2.3,MacIntel,59.99880002,614014b19c0f71d80ec584a0,626b377229c10585ec392f8a,626b3b2e23c37665762c8ff4,,,,,,,,,,,,,,,,,,,,,,,l,1,"[""0.656"",""0.316"",""0.560"",""0.727""]","[0,1,1,1]",0,60,60,60,1,1,1,,,1,FALSE,1.5014,,,,,,,,,,,,,,,,,,,,,,,,,,,,,,
,614014b19c0f71d80ec584a0,001,2022-04-28_20h12.53.333,classification_task,2021.2.3,MacIntel,59.99880002,614014b19c0f71d80ec584a0,626b377229c10585ec392f8a,626b3b2e23c37665762c8ff4,,,,,,,,,,,,,,,,,,,,,,,l,0,"[""0.192"",""0.770"",""0.619"",""0.893""]","[1,0,1,1]",0,61,61,61,1,0,0,,,1,FALSE,1.4513,,,,,,,,,,,,,,,,,,,,,,,,,,,,,,
,614014b19c0f71d80ec584a0,001,2022-04-28_20h12.53.333,classification_task,2021.2.3,MacIntel,59.99880002,614014b19c0f71d80ec584a0,626b377229c10585ec392f8a,626b3b2e23c37665762c8ff4,,,,,,,,,,,,,,,,,,,,,,,a,0,"[""0.938"",""0.360"",""0.480"",""0.813""]","[0,1,1,1]",0,62,62,62,1,1,0,,,1,FALSE,1.4539,,,,,,,,,,,,,,,,,,,,,,,,,,,,,,
,614014b19c0f71d80ec584a0,001,2022-04-28_20h12.53.333,classification_task,2021.2.3,MacIntel,59.99880002,614014b19c0f71d80ec584a0,626b377229c10585ec392f8a,626b3b2e23c37665762c8ff4,,,,,,,,,,,,,,,,,,,,,,,a,1,"[""0.192"",""0.430"",""0.619"",""0.665""]","[1,1,1,0]",0,63,63,63,1,0,0,,,1,FALSE,1.5685,,,,,,,,,,,,,,,,,,,,,,,,,,,,,,
,614014b19c0f71d80ec584a0,001,2022-04-28_20h12.53.333,classification_task,2021.2.3,MacIntel,59.99880002,614014b19c0f71d80ec584a0,626b377229c10585ec392f8a,626b3b2e23c37665762c8ff4,,,,,,,,,,,,,,,,,,,,,,,,,,,,,,,,,,,,,,,0, ,,0,2.606488945,378.5415,0,0,0,0,1,2,1,,,,,,,,,,,,,,,,,
,614014b19c0f71d80ec584a0,001,2022-04-28_20h12.53.333,classification_task,2021.2.3,MacIntel,59.99880002,614014b19c0f71d80ec584a0,626b377229c10585ec392f8a,626b3b2e23c37665762c8ff4,,,,,,,,,,,,,,,,,,,,,,,,,,,,,,,,,,,,,,,1,  ,,0,7.700376875,390.2728,0,0,0,0,1,2,1,,,,,,,,,,,,,,,,,
,614014b19c0f71d80ec584a0,001,2022-04-28_20h12.53.333,classification_task,2021.2.3,MacIntel,59.99880002,614014b19c0f71d80ec584a0,626b377229c10585ec392f8a,626b3b2e23c37665762c8ff4,,,,,,,,,,,,,,,,,,,,,,,,,,,,,,,,,,,,,,,2,  ,,0,4.72842226,394.7054,0,0,0,0,1,2,1,,,,,,,,,,,,,,,,,
,614014b19c0f71d80ec584a0,001,2022-04-28_20h12.53.333,classification_task,2021.2.3,MacIntel,59.99880002,614014b19c0f71d80ec584a0,626b377229c10585ec392f8a,626b3b2e23c37665762c8ff4,,,,,,,,,,,,,,,,,,,,,,,,,,,,,,,,,,,,,,,,,,,,,0,0,0,0,1,,1,,,,,,,,,,,,,,,,,
,614014b19c0f71d80ec584a0,001,2022-04-28_20h12.53.333,classification_task,2021.2.3,MacIntel,59.99880002,614014b19c0f71d80ec584a0,626b377229c10585ec392f8a,626b3b2e23c37665762c8ff4,,,,,,,,,,,,,,,,,,,,,space,5.795,a,0,"[""0.123"",""0.360"",""0.480"",""0.679""]","[1,1,1,0]",0,0,0,0,1,1,0,,,1,FALSE,1.9071,,,,,,,,,,,,,,,,,,,,,,,,,,,,,,
,614014b19c0f71d80ec584a0,001,2022-04-28_20h12.53.333,classification_task,2021.2.3,MacIntel,59.99880002,614014b19c0f71d80ec584a0,626b377229c10585ec392f8a,626b3b2e23c37665762c8ff4,,,,,,,,,,,,,,,,,,,,,,,a,0,"[""0.041"",""0.316"",""0.560"",""0.679""]","[1,1,1,0]",0,1,1,1,1,1,1,,,1,FALSE,1.8489,,,,,,,,,,,,,,,,,,,,,,,,,,,,,,
,614014b19c0f71d80ec584a0,001,2022-04-28_20h12.53.333,classification_task,2021.2.3,MacIntel,59.99880002,614014b19c0f71d80ec584a0,626b377229c10585ec392f8a,626b3b2e23c37665762c8ff4,,,,,,,,,,,,,,,,,,,,,,,l,0,"[""0.192"",""0.669"",""0.619"",""0.893""]","[1,0,1,1]",0,2,2,2,1,0,0,,,1,FALSE,2.1777,,,,,,,,,,,,,,,,,,,,,,,,,,,,,,
,614014b19c0f71d80ec584a0,001,2022-04-28_20h12.53.333,classification_task,2021.2.3,MacIntel,59.99880002,614014b19c0f71d80ec584a0,626b377229c10585ec392f8a,626b3b2e23c37665762c8ff4,,,,,,,,,,,,,,,,,,,,,,,l,0,"[""0.665"",""0.430"",""0.619"",""0.893""]","[0,1,1,1]",0,3,3,3,1,0,0,,,1,FALSE,0.9703,,,,,,,,,,,,,,,,,,,,,,,,,,,,,,
,614014b19c0f71d80ec584a0,001,2022-04-28_20h12.53.333,classification_task,2021.2.3,MacIntel,59.99880002,614014b19c0f71d80ec584a0,626b377229c10585ec392f8a,626b3b2e23c37665762c8ff4,,,,,,,,,,,,,,,,,,,,,,,l,0,"[""0.192"",""0.430"",""0.619"",""0.940""]","[1,1,1,0]",0,4,4,4,1,0,0,,,1,FALSE,1.1655,,,,,,,,,,,,,,,,,,,,,,,,,,,,,,
,614014b19c0f71d80ec584a0,001,2022-04-28_20h12.53.333,classification_task,2021.2.3,MacIntel,59.99880002,614014b19c0f71d80ec584a0,626b377229c10585ec392f8a,626b3b2e23c37665762c8ff4,,,,,,,,,,,,,,,,,,,,,,,a,1,"[""0.235"",""0.520"",""0.848"",""0.656""]","[1,1,1,0]",0,5,5,5,1,0,1,,,1,FALSE,2.0293,,,,,,,,,,,,,,,,,,,,,,,,,,,,,,
,614014b19c0f71d80ec584a0,001,2022-04-28_20h12.53.333,classification_task,2021.2.3,MacIntel,59.99880002,614014b19c0f71d80ec584a0,626b377229c10585ec392f8a,626b3b2e23c37665762c8ff4,,,,,,,,,,,,,,,,,,,,,,,a,1,"[""0.685"",""0.520"",""0.848"",""0.974""]","[0,1,1,1]",0,6,6,6,1,0,1,,,1,FALSE,0.7493,,,,,,,,,,,,,,,,,,,,,,,,,,,,,,
,614014b19c0f71d80ec584a0,001,2022-04-28_20h12.53.333,classification_task,2021.2.3,MacIntel,59.99880002,614014b19c0f71d80ec584a0,626b377229c10585ec392f8a,626b3b2e23c37665762c8ff4,,,,,,,,,,,,,,,,,,,,,,,l,1,"[""0.041"",""0.931"",""0.560"",""0.727""]","[1,0,1,1]",0,7,7,7,1,1,1,,,1,FALSE,0.5818,,,,,,,,,,,,,,,,,,,,,,,,,,,,,,
,614014b19c0f71d80ec584a0,001,2022-04-28_20h12.53.333,classification_task,2021.2.3,MacIntel,59.99880002,614014b19c0f71d80ec584a0,626b377229c10585ec392f8a,626b3b2e23c37665762c8ff4,,,,,,,,,,,,,,,,,,,,,,,a,1,"[""0.235"",""0.520"",""0.656"",""0.974""]","[1,1,0,1]",0,8,8,8,1,0,1,,,1,FALSE,0.5508,,,,,,,,,,,,,,,,,,,,,,,,,,,,,,
,614014b19c0f71d80ec584a0,001,2022-04-28_20h12.53.333,classification_task,2021.2.3,MacIntel,59.99880002,614014b19c0f71d80ec584a0,626b377229c10585ec392f8a,626b3b2e23c37665762c8ff4,,,,,,,,,,,,,,,,,,,,,,,l,1,"[""0.123"",""0.360"",""0.679"",""0.813""]","[1,1,0,1]",0,9,9,9,1,1,0,,,1,FALSE,1.2608,,,,,,,,,,,,,,,,,,,,,,,,,,,,,,
,614014b19c0f71d80ec584a0,001,2022-04-28_20h12.53.333,classification_task,2021.2.3,MacIntel,59.99880002,614014b19c0f71d80ec584a0,626b377229c10585ec392f8a,626b3b2e23c37665762c8ff4,,,,,,,,,,,,,,,,,,,,,,,l,0,"[""0.192"",""0.430"",""0.669"",""0.893""]","[1,1,0,1]",0,10,10,10,1,0,0,,,1,FALSE,0.6808,,,,,,,,,,,,,,,,,,,,,,,,,,,,,,
,614014b19c0f71d80ec584a0,001,2022-04-28_20h12.53.333,classification_task,2021.2.3,MacIntel,59.99880002,614014b19c0f71d80ec584a0,626b377229c10585ec392f8a,626b3b2e23c37665762c8ff4,,,,,,,,,,,,,,,,,,,,,,,l,1,"[""0.931"",""0.360"",""0.480"",""0.813""]","[0,1,1,1]",0,11,11,11,1,1,0,,,1,FALSE,1.2642,,,,,,,,,,,,,,,,,,,,,,,,,,,,,,
,614014b19c0f71d80ec584a0,001,2022-04-28_20h12.53.333,classification_task,2021.2.3,MacIntel,59.99880002,614014b19c0f71d80ec584a0,626b377229c10585ec392f8a,626b3b2e23c37665762c8ff4,,,,,,,,,,,,,,,,,,,,,,,a,0,"[""0.123"",""0.778"",""0.480"",""0.813""]","[1,0,1,1]",0,12,12,12,1,1,0,,,1,FALSE,0.9689,,,,,,,,,,,,,,,,,,,,,,,,,,,,,,
,614014b19c0f71d80ec584a0,001,2022-04-28_20h12.53.333,classification_task,2021.2.3,MacIntel,59.99880002,614014b19c0f71d80ec584a0,626b377229c10585ec392f8a,626b3b2e23c37665762c8ff4,,,,,,,,,,,,,,,,,,,,,,,a,0,"[""0.041"",""0.316"",""0.669"",""0.727""]","[1,1,0,1]",0,13,13,13,1,1,1,,,1,FALSE,0.7276,,,,,,,,,,,,,,,,,,,,,,,,,,,,,,
,614014b19c0f71d80ec584a0,001,2022-04-28_20h12.53.333,classification_task,2021.2.3,MacIntel,59.99880002,614014b19c0f71d80ec584a0,626b377229c10585ec392f8a,626b3b2e23c37665762c8ff4,,,,,,,,,,,,,,,,,,,,,,,a,1,"[""0.235"",""0.940"",""0.848"",""0.974""]","[1,0,1,1]",0,14,14,14,1,0,1,,,1,FALSE,0.5495,,,,,,,,,,,,,,,,,,,,,,,,,,,,,,
,614014b19c0f71d80ec584a0,001,2022-04-28_20h12.53.333,classification_task,2021.2.3,MacIntel,59.99880002,614014b19c0f71d80ec584a0,626b377229c10585ec392f8a,626b3b2e23c37665762c8ff4,,,,,,,,,,,,,,,,,,,,,,,l,1,"[""0.656"",""0.316"",""0.560"",""0.727""]","[0,1,1,1]",0,15,15,15,1,1,1,,,1,FALSE,0.4507,,,,,,,,,,,,,,,,,,,,,,,,,,,,,,
,614014b19c0f71d80ec584a0,001,2022-04-28_20h12.53.333,classification_task,2021.2.3,MacIntel,59.99880002,614014b19c0f71d80ec584a0,626b377229c10585ec392f8a,626b3b2e23c37665762c8ff4,,,,,,,,,,,,,,,,,,,,,,,a,1,"[""0.235"",""0.520"",""0.848"",""0.770""]","[1,1,1,0]",0,16,16,16,1,0,1,,,1,FALSE,0.8325,,,,,,,,,,,,,,,,,,,,,,,,,,,,,,
,614014b19c0f71d80ec584a0,001,2022-04-28_20h12.53.333,classification_task,2021.2.3,MacIntel,59.99880002,614014b19c0f71d80ec584a0,626b377229c10585ec392f8a,626b3b2e23c37665762c8ff4,,,,,,,,,,,,,,,,,,,,,,,a,0,"[""0.685"",""0.360"",""0.480"",""0.813""]","[0,1,1,1]",0,17,17,17,1,1,0,,,1,FALSE,1.2641,,,,,,,,,,,,,,,,,,,,,,,,,,,,,,
,614014b19c0f71d80ec584a0,001,2022-04-28_20h12.53.333,classification_task,2021.2.3,MacIntel,59.99880002,614014b19c0f71d80ec584a0,626b377229c10585ec392f8a,626b3b2e23c37665762c8ff4,,,,,,,,,,,,,,,,,,,,,,,a,1,"[""0.235"",""0.694"",""0.848"",""0.974""]","[1,0,1,1]",0,18,18,18,1,0,1,,,1,FALSE,0.9264,,,,,,,,,,,,,,,,,,,,,,,,,,,,,,
,614014b19c0f71d80ec584a0,001,2022-04-28_20h12.53.333,classification_task,2021.2.3,MacIntel,59.99880002,614014b19c0f71d80ec584a0,626b377229c10585ec392f8a,626b3b2e23c37665762c8ff4,,,,,,,,,,,,,,,,,,,,,,,l,1,"[""0.041"",""0.931"",""0.560"",""0.727""]","[1,0,1,1]",0,19,19,19,1,1,1,,,1,FALSE,0.5325,,,,,,,,,,,,,,,,,,,,,,,,,,,,,,
,614014b19c0f71d80ec584a0,001,2022-04-28_20h12.53.333,classification_task,2021.2.3,MacIntel,59.99880002,614014b19c0f71d80ec584a0,626b377229c10585ec392f8a,626b3b2e23c37665762c8ff4,,,,,,,,,,,,,,,,,,,,,,,a,1,"[""0.770"",""0.520"",""0.848"",""0.974""]","[0,1,1,1]",0,20,20,20,1,0,1,,,1,FALSE,0.603,,,,,,,,,,,,,,,,,,,,,,,,,,,,,,
,614014b19c0f71d80ec584a0,001,2022-04-28_20h12.53.333,classification_task,2021.2.3,MacIntel,59.99880002,614014b19c0f71d80ec584a0,626b377229c10585ec392f8a,626b3b2e23c37665762c8ff4,,,,,,,,,,,,,,,,,,,,,,,l,1,"[""0.123"",""0.931"",""0.480"",""0.813""]","[1,0,1,1]",0,21,21,21,1,1,0,,,1,FALSE,1.027,,,,,,,,,,,,,,,,,,,,,,,,,,,,,,
,614014b19c0f71d80ec584a0,001,2022-04-28_20h12.53.333,classification_task,2021.2.3,MacIntel,59.99880002,614014b19c0f71d80ec584a0,626b377229c10585ec392f8a,626b3b2e23c37665762c8ff4,,,,,,,,,,,,,,,,,,,,,,,a,1,"[""0.940"",""0.430"",""0.619"",""0.893""]","[0,1,1,1]",0,22,22,22,1,0,0,,,1,FALSE,0.6474,,,,,,,,,,,,,,,,,,,,,,,,,,,,,,
,614014b19c0f71d80ec584a0,001,2022-04-28_20h12.53.333,classification_task,2021.2.3,MacIntel,59.99880002,614014b19c0f71d80ec584a0,626b377229c10585ec392f8a,626b3b2e23c37665762c8ff4,,,,,,,,,,,,,,,,,,,,,,,l,1,"[""0.041"",""0.316"",""0.689"",""0.727""]","[1,1,0,1]",0,23,23,23,1,1,1,,,1,FALSE,1.3253,,,,,,,,,,,,,,,,,,,,,,,,,,,,,,
,614014b19c0f71d80ec584a0,001,2022-04-28_20h12.53.333,classification_task,2021.2.3,MacIntel,59.99880002,614014b19c0f71d80ec584a0,626b377229c10585ec392f8a,626b3b2e23c37665762c8ff4,,,,,,,,,,,,,,,,,,,,,,,a,0,"[""0.123"",""0.360"",""0.480"",""0.085""]","[1,1,1,0]",0,24,24,24,1,1,0,,,1,FALSE,1.0984,,,,,,,,,,,,,,,,,,,,,,,,,,,,,,
,614014b19c0f71d80ec584a0,001,2022-04-28_20h12.53.333,classification_task,2021.2.3,MacIntel,59.99880002,614014b19c0f71d80ec584a0,626b377229c10585ec392f8a,626b3b2e23c37665762c8ff4,,,,,,,,,,,,,,,,,,,,,,,a,1,"[""0.192"",""0.694"",""0.619"",""0.893""]","[1,0,1,1]",0,25,25,25,1,0,0,,,1,FALSE,1.4145,,,,,,,,,,,,,,,,,,,,,,,,,,,,,,
,614014b19c0f71d80ec584a0,001,2022-04-28_20h12.53.333,classification_task,2021.2.3,MacIntel,59.99880002,614014b19c0f71d80ec584a0,626b377229c10585ec392f8a,626b3b2e23c37665762c8ff4,,,,,,,,,,,,,,,,,,,,,,,l,1,"[""0.090"",""0.316"",""0.560"",""0.727""]","[0,1,1,1]",0,26,26,26,1,1,1,,,1,FALSE,0.6903,,,,,,,,,,,,,,,,,,,,,,,,,,,,,,
,614014b19c0f71d80ec584a0,001,2022-04-28_20h12.53.333,classification_task,2021.2.3,MacIntel,59.99880002,614014b19c0f71d80ec584a0,626b377229c10585ec392f8a,626b3b2e23c37665762c8ff4,,,,,,,,,,,,,,,,,,,,,,,l,1,"[""0.123"",""0.360"",""0.085"",""0.813""]","[1,1,0,1]",0,27,27,27,1,1,0,,,1,FALSE,1.1464,,,,,,,,,,,,,,,,,,,,,,,,,,,,,,
,614014b19c0f71d80ec584a0,001,2022-04-28_20h12.53.333,classification_task,2021.2.3,MacIntel,59.99880002,614014b19c0f71d80ec584a0,626b377229c10585ec392f8a,626b3b2e23c37665762c8ff4,,,,,,,,,,,,,,,,,,,,,,,a,1,"[""0.235"",""0.520"",""0.940"",""0.974""]","[1,1,0,1]",0,28,28,28,1,0,1,,,1,FALSE,2.0748,,,,,,,,,,,,,,,,,,,,,,,,,,,,,,
,614014b19c0f71d80ec584a0,001,2022-04-28_20h12.53.333,classification_task,2021.2.3,MacIntel,59.99880002,614014b19c0f71d80ec584a0,626b377229c10585ec392f8a,626b3b2e23c37665762c8ff4,,,,,,,,,,,,,,,,,,,,,,,a,1,"[""0.192"",""0.430"",""0.619"",""0.656""]","[1,1,1,0]",0,29,29,29,1,0,0,,,1,FALSE,0.9856,,,,,,,,,,,,,,,,,,,,,,,,,,,,,,
,614014b19c0f71d80ec584a0,001,2022-04-28_20h12.53.333,classification_task,2021.2.3,MacIntel,59.99880002,614014b19c0f71d80ec584a0,626b377229c10585ec392f8a,626b3b2e23c37665762c8ff4,,,,,,,,,,,,,,,,,,,,,,,l,1,"[""0.041"",""0.316"",""0.560"",""0.085""]","[1,1,1,0]",0,30,30,30,1,1,1,,,1,FALSE,0.9013,,,,,,,,,,,,,,,,,,,,,,,,,,,,,,
,614014b19c0f71d80ec584a0,001,2022-04-28_20h12.53.333,classification_task,2021.2.3,MacIntel,59.99880002,614014b19c0f71d80ec584a0,626b377229c10585ec392f8a,626b3b2e23c37665762c8ff4,,,,,,,,,,,,,,,,,,,,,,,l,0,"[""0.192"",""0.430"",""0.669"",""0.893""]","[1,1,0,1]",0,31,31,31,1,0,0,,,1,FALSE,1.1439,,,,,,,,,,,,,,,,,,,,,,,,,,,,,,
,614014b19c0f71d80ec584a0,001,2022-04-28_20h12.53.333,classification_task,2021.2.3,MacIntel,59.99880002,614014b19c0f71d80ec584a0,626b377229c10585ec392f8a,626b3b2e23c37665762c8ff4,,,,,,,,,,,,,,,,,,,,,,,a,1,"[""0.192"",""0.679"",""0.619"",""0.893""]","[1,0,1,1]",0,32,32,32,1,0,0,,,1,FALSE,1.9379,,,,,,,,,,,,,,,,,,,,,,,,,,,,,,
,614014b19c0f71d80ec584a0,001,2022-04-28_20h12.53.333,classification_task,2021.2.3,MacIntel,59.99880002,614014b19c0f71d80ec584a0,626b377229c10585ec392f8a,626b3b2e23c37665762c8ff4,,,,,,,,,,,,,,,,,,,,,,,a,1,"[""0.694"",""0.430"",""0.619"",""0.893""]","[0,1,1,1]",0,33,33,33,1,0,0,,,1,FALSE,1.1188,,,,,,,,,,,,,,,,,,,,,,,,,,,,,,
,614014b19c0f71d80ec584a0,001,2022-04-28_20h12.53.333,classification_task,2021.2.3,MacIntel,59.99880002,614014b19c0f71d80ec584a0,626b377229c10585ec392f8a,626b3b2e23c37665762c8ff4,,,,,,,,,,,,,,,,,,,,,,,a,0,"[""0.123"",""0.694"",""0.480"",""0.813""]","[1,0,1,1]",0,34,34,34,1,1,0,,,1,FALSE,0.9179,,,,,,,,,,,,,,,,,,,,,,,,,,,,,,
,614014b19c0f71d80ec584a0,001,2022-04-28_20h12.53.333,classification_task,2021.2.3,MacIntel,59.99880002,614014b19c0f71d80ec584a0,626b377229c10585ec392f8a,626b3b2e23c37665762c8ff4,,,,,,,,,,,,,,,,,,,,,,,a,0,"[""0.123"",""0.360"",""0.090"",""0.813""]","[1,1,0,1]",0,35,35,35,1,1,0,,,1,FALSE,1.3178,,,,,,,,,,,,,,,,,,,,,,,,,,,,,,
,614014b19c0f71d80ec584a0,001,2022-04-28_20h12.53.333,classification_task,2021.2.3,MacIntel,59.99880002,614014b19c0f71d80ec584a0,626b377229c10585ec392f8a,626b3b2e23c37665762c8ff4,,,,,,,,,,,,,,,,,,,,,,,l,1,"[""0.041"",""0.316"",""0.665"",""0.727""]","[1,1,0,1]",0,36,36,36,1,1,1,,,1,FALSE,1.1752,,,,,,,,,,,,,,,,,,,,,,,,,,,,,,
,614014b19c0f71d80ec584a0,001,2022-04-28_20h12.53.333,classification_task,2021.2.3,MacIntel,59.99880002,614014b19c0f71d80ec584a0,626b377229c10585ec392f8a,626b3b2e23c37665762c8ff4,,,,,,,,,,,,,,,,,,,,,,,a,1,"[""0.235"",""0.694"",""0.848"",""0.974""]","[1,0,1,1]",0,37,37,37,1,0,1,,,1,FALSE,0.854,,,,,,,,,,,,,,,,,,,,,,,,,,,,,,
,614014b19c0f71d80ec584a0,001,2022-04-28_20h12.53.333,classification_task,2021.2.3,MacIntel,59.99880002,614014b19c0f71d80ec584a0,626b377229c10585ec392f8a,626b3b2e23c37665762c8ff4,,,,,,,,,,,,,,,,,,,,,,,a,1,"[""0.235"",""0.520"",""0.848"",""0.669""]","[1,1,1,0]",0,38,38,38,1,0,1,,,1,FALSE,0.7176,,,,,,,,,,,,,,,,,,,,,,,,,,,,,,
,614014b19c0f71d80ec584a0,001,2022-04-28_20h12.53.333,classification_task,2021.2.3,MacIntel,59.99880002,614014b19c0f71d80ec584a0,626b377229c10585ec392f8a,626b3b2e23c37665762c8ff4,,,,,,,,,,,,,,,,,,,,,,,a,1,"[""0.192"",""0.430"",""0.619"",""0.778""]","[1,1,1,0]",0,39,39,39,1,0,0,,,1,FALSE,0.8952,,,,,,,,,,,,,,,,,,,,,,,,,,,,,,
,614014b19c0f71d80ec584a0,001,2022-04-28_20h12.53.333,classification_task,2021.2.3,MacIntel,59.99880002,614014b19c0f71d80ec584a0,626b377229c10585ec392f8a,626b3b2e23c37665762c8ff4,,,,,,,,,,,,,,,,,,,,,,,a,0,"[""0.665"",""0.360"",""0.480"",""0.813""]","[0,1,1,1]",0,40,40,40,1,1,0,,,1,FALSE,0.686,,,,,,,,,,,,,,,,,,,,,,,,,,,,,,
,614014b19c0f71d80ec584a0,001,2022-04-28_20h12.53.333,classification_task,2021.2.3,MacIntel,59.99880002,614014b19c0f71d80ec584a0,626b377229c10585ec392f8a,626b3b2e23c37665762c8ff4,,,,,,,,,,,,,,,,,,,,,,,l,1,"[""0.931"",""0.316"",""0.560"",""0.727""]","[0,1,1,1]",0,41,41,41,1,1,1,,,1,FALSE,0.8412,,,,,,,,,,,,,,,,,,,,,,,,,,,,,,
,614014b19c0f71d80ec584a0,001,2022-04-28_20h12.53.333,classification_task,2021.2.3,MacIntel,59.99880002,614014b19c0f71d80ec584a0,626b377229c10585ec392f8a,626b3b2e23c37665762c8ff4,,,,,,,,,,,,,,,,,,,,,,,l,1,"[""0.041"",""0.316"",""0.560"",""0.940""]","[1,1,1,0]",0,42,42,42,1,1,1,,,1,FALSE,0.7154,,,,,,,,,,,,,,,,,,,,,,,,,,,,,,
,614014b19c0f71d80ec584a0,001,2022-04-28_20h12.53.333,classification_task,2021.2.3,MacIntel,59.99880002,614014b19c0f71d80ec584a0,626b377229c10585ec392f8a,626b3b2e23c37665762c8ff4,,,,,,,,,,,,,,,,,,,,,,,a,1,"[""0.235"",""0.520"",""0.656"",""0.974""]","[1,1,0,1]",0,43,43,43,1,0,1,,,1,FALSE,0.7559,,,,,,,,,,,,,,,,,,,,,,,,,,,,,,
,614014b19c0f71d80ec584a0,001,2022-04-28_20h12.53.333,classification_task,2021.2.3,MacIntel,59.99880002,614014b19c0f71d80ec584a0,626b377229c10585ec392f8a,626b3b2e23c37665762c8ff4,,,,,,,,,,,,,,,,,,,,,,,a,0,"[""0.041"",""0.689"",""0.560"",""0.727""]","[1,0,1,1]",0,44,44,44,1,1,1,,,1,FALSE,0.8669,,,,,,,,,,,,,,,,,,,,,,,,,,,,,,
,614014b19c0f71d80ec584a0,001,2022-04-28_20h12.53.333,classification_task,2021.2.3,MacIntel,59.99880002,614014b19c0f71d80ec584a0,626b377229c10585ec392f8a,626b3b2e23c37665762c8ff4,,,,,,,,,,,,,,,,,,,,,,,a,1,"[""0.654"",""0.520"",""0.848"",""0.974""]","[0,1,1,1]",0,45,45,45,1,0,1,,,1,FALSE,1.1491,,,,,,,,,,,,,,,,,,,,,,,,,,,,,,
,614014b19c0f71d80ec584a0,001,2022-04-28_20h12.53.333,classification_task,2021.2.3,MacIntel,59.99880002,614014b19c0f71d80ec584a0,626b377229c10585ec392f8a,626b3b2e23c37665762c8ff4,,,,,,,,,,,,,,,,,,,,,,,a,0,"[""0.123"",""0.360"",""0.480"",""0.654""]","[1,1,1,0]",0,46,46,46,1,1,0,,,1,FALSE,1.4316,,,,,,,,,,,,,,,,,,,,,,,,,,,,,,
,614014b19c0f71d80ec584a0,001,2022-04-28_20h12.53.333,classification_task,2021.2.3,MacIntel,59.99880002,614014b19c0f71d80ec584a0,626b377229c10585ec392f8a,626b3b2e23c37665762c8ff4,,,,,,,,,,,,,,,,,,,,,,,l,0,"[""0.192"",""0.430"",""0.778"",""0.893""]","[1,1,0,1]",0,47,47,47,1,0,0,,,1,FALSE,0.7339,,,,,,,,,,,,,,,,,,,,,,,,,,,,,,
,614014b19c0f71d80ec584a0,001,2022-04-28_20h12.53.333,classification_task,2021.2.3,MacIntel,59.99880002,614014b19c0f71d80ec584a0,626b377229c10585ec392f8a,626b3b2e23c37665762c8ff4,,,,,,,,,,,,,,,,,,,,,,,l,1,"[""0.123"",""0.360"",""0.480"",""0.679""]","[1,1,1,0]",0,48,48,48,1,1,0,,,1,FALSE,0.3491,,,,,,,,,,,,,,,,,,,,,,,,,,,,,,
,614014b19c0f71d80ec584a0,001,2022-04-28_20h12.53.333,classification_task,2021.2.3,MacIntel,59.99880002,614014b19c0f71d80ec584a0,626b377229c10585ec392f8a,626b3b2e23c37665762c8ff4,,,,,,,,,,,,,,,,,,,,,,,a,1,"[""0.192"",""0.430"",""0.940"",""0.893""]","[1,1,0,1]",0,49,49,49,1,0,0,,,1,FALSE,0.4308,,,,,,,,,,,,,,,,,,,,,,,,,,,,,,
,614014b19c0f71d80ec584a0,001,2022-04-28_20h12.53.333,classification_task,2021.2.3,MacIntel,59.99880002,614014b19c0f71d80ec584a0,626b377229c10585ec392f8a,626b3b2e23c37665762c8ff4,,,,,,,,,,,,,,,,,,,,,,,a,1,"[""0.192"",""0.090"",""0.619"",""0.893""]","[1,0,1,1]",0,50,50,50,1,0,0,,,1,FALSE,1.3987,,,,,,,,,,,,,,,,,,,,,,,,,,,,,,
,614014b19c0f71d80ec584a0,001,2022-04-28_20h12.53.333,classification_task,2021.2.3,MacIntel,59.99880002,614014b19c0f71d80ec584a0,626b377229c10585ec392f8a,626b3b2e23c37665762c8ff4,,,,,,,,,,,,,,,,,,,,,,,a,0,"[""0.123"",""0.654"",""0.480"",""0.813""]","[1,0,1,1]",0,51,51,51,1,1,0,,,1,FALSE,0.7329,,,,,,,,,,,,,,,,,,,,,,,,,,,,,,
,614014b19c0f71d80ec584a0,001,2022-04-28_20h12.53.333,classification_task,2021.2.3,MacIntel,59.99880002,614014b19c0f71d80ec584a0,626b377229c10585ec392f8a,626b3b2e23c37665762c8ff4,,,,,,,,,,,,,,,,,,,,,,,a,1,"[""0.235"",""0.520"",""0.090"",""0.974""]","[1,1,0,1]",0,52,52,52,1,0,1,,,1,FALSE,0.5755,,,,,,,,,,,,,,,,,,,,,,,,,,,,,,
,614014b19c0f71d80ec584a0,001,2022-04-28_20h12.53.333,classification_task,2021.2.3,MacIntel,59.99880002,614014b19c0f71d80ec584a0,626b377229c10585ec392f8a,626b3b2e23c37665762c8ff4,,,,,,,,,,,,,,,,,,,,,,,l,0,"[""0.694"",""0.430"",""0.619"",""0.893""]","[0,1,1,1]",0,53,53,53,1,0,0,,,1,FALSE,1.4247,,,,,,,,,,,,,,,,,,,,,,,,,,,,,,
,614014b19c0f71d80ec584a0,001,2022-04-28_20h12.53.333,classification_task,2021.2.3,MacIntel,59.99880002,614014b19c0f71d80ec584a0,626b377229c10585ec392f8a,626b3b2e23c37665762c8ff4,,,,,,,,,,,,,,,,,,,,,,,l,1,"[""0.041"",""0.672"",""0.560"",""0.727""]","[1,0,1,1]",0,54,54,54,1,1,1,,,1,FALSE,0.6832,,,,,,,,,,,,,,,,,,,,,,,,,,,,,,
,614014b19c0f71d80ec584a0,001,2022-04-28_20h12.53.333,classification_task,2021.2.3,MacIntel,59.99880002,614014b19c0f71d80ec584a0,626b377229c10585ec392f8a,626b3b2e23c37665762c8ff4,,,,,,,,,,,,,,,,,,,,,,,l,1,"[""0.123"",""0.360"",""0.770"",""0.813""]","[1,1,0,1]",0,55,55,55,1,1,0,,,1,FALSE,1.2748,,,,,,,,,,,,,,,,,,,,,,,,,,,,,,
,614014b19c0f71d80ec584a0,001,2022-04-28_20h12.53.333,classification_task,2021.2.3,MacIntel,59.99880002,614014b19c0f71d80ec584a0,626b377229c10585ec392f8a,626b3b2e23c37665762c8ff4,,,,,,,,,,,,,,,,,,,,,,,a,1,"[""0.235"",""0.520"",""0.848"",""0.689""]","[1,1,1,0]",0,56,56,56,1,0,1,,,1,FALSE,0.404,,,,,,,,,,,,,,,,,,,,,,,,,,,,,,
,614014b19c0f71d80ec584a0,001,2022-04-28_20h12.53.333,classification_task,2021.2.3,MacIntel,59.99880002,614014b19c0f71d80ec584a0,626b377229c10585ec392f8a,626b3b2e23c37665762c8ff4,,,,,,,,,,,,,,,,,,,,,,,a,1,"[""0.192"",""0.430"",""0.619"",""0.085""]","[1,1,1,0]",0,57,57,57,1,0,0,,,1,FALSE,0.311,,,,,,,,,,,,,,,,,,,,,,,,,,,,,,
,614014b19c0f71d80ec584a0,001,2022-04-28_20h12.53.333,classification_task,2021.2.3,MacIntel,59.99880002,614014b19c0f71d80ec584a0,626b377229c10585ec392f8a,626b3b2e23c37665762c8ff4,,,,,,,,,,,,,,,,,,,,,,,l,1,"[""0.770"",""0.316"",""0.560"",""0.727""]","[0,1,1,1]",0,58,58,58,1,1,1,,,1,FALSE,0.3899,,,,,,,,,,,,,,,,,,,,,,,,,,,,,,
,614014b19c0f71d80ec584a0,001,2022-04-28_20h12.53.333,classification_task,2021.2.3,MacIntel,59.99880002,614014b19c0f71d80ec584a0,626b377229c10585ec392f8a,626b3b2e23c37665762c8ff4,,,,,,,,,,,,,,,,,,,,,,,l,0,"[""0.694"",""0.520"",""0.848"",""0.974""]","[0,1,1,1]",0,59,59,59,1,0,1,,,1,FALSE,0.5983,,,,,,,,,,,,,,,,,,,,,,,,,,,,,,
,614014b19c0f71d80ec584a0,001,2022-04-28_20h12.53.333,classification_task,2021.2.3,MacIntel,59.99880002,614014b19c0f71d80ec584a0,626b377229c10585ec392f8a,626b3b2e23c37665762c8ff4,,,,,,,,,,,,,,,,,,,,,,,l,1,"[""0.041"",""0.316"",""0.560"",""0.085""]","[1,1,1,0]",0,60,60,60,1,1,1,,,1,FALSE,0.9003,,,,,,,,,,,,,,,,,,,,,,,,,,,,,,
,614014b19c0f71d80ec584a0,001,2022-04-28_20h12.53.333,classification_task,2021.2.3,MacIntel,59.99880002,614014b19c0f71d80ec584a0,626b377229c10585ec392f8a,626b3b2e23c37665762c8ff4,,,,,,,,,,,,,,,,,,,,,,,l,1,"[""0.685"",""0.360"",""0.480"",""0.813""]","[0,1,1,1]",0,61,61,61,1,1,0,,,1,FALSE,1.0627,,,,,,,,,,,,,,,,,,,,,,,,,,,,,,
,614014b19c0f71d80ec584a0,001,2022-04-28_20h12.53.333,classification_task,2021.2.3,MacIntel,59.99880002,614014b19c0f71d80ec584a0,626b377229c10585ec392f8a,626b3b2e23c37665762c8ff4,,,,,,,,,,,,,,,,,,,,,,,l,1,"[""0.041"",""0.316"",""0.694"",""0.727""]","[1,1,0,1]",0,62,62,62,1,1,1,,,1,FALSE,1.2749,,,,,,,,,,,,,,,,,,,,,,,,,,,,,,
,614014b19c0f71d80ec584a0,001,2022-04-28_20h12.53.333,classification_task,2021.2.3,MacIntel,59.99880002,614014b19c0f71d80ec584a0,626b377229c10585ec392f8a,626b3b2e23c37665762c8ff4,,,,,,,,,,,,,,,,,,,,,,,a,1,"[""0.235"",""0.685"",""0.848"",""0.974""]","[1,0,1,1]",0,63,63,63,1,0,1,,,1,FALSE,0.4993,,,,,,,,,,,,,,,,,,,,,,,,,,,,,,
,614014b19c0f71d80ec584a0,001,2022-04-28_20h12.53.333,classification_task,2021.2.3,MacIntel,59.99880002,614014b19c0f71d80ec584a0,626b377229c10585ec392f8a,626b3b2e23c37665762c8ff4,,,,,,,,,,,,,,,,,,,,,,,,,,,,,,,,,,,,,,,0, ,,0,4.75946192,142.0132,0,1,1,1,1,2,2,,,,,,,,,,,,,,,,,
,614014b19c0f71d80ec584a0,001,2022-04-28_20h12.53.333,classification_task,2021.2.3,MacIntel,59.99880002,614014b19c0f71d80ec584a0,626b377229c10585ec392f8a,626b3b2e23c37665762c8ff4,,,,,,,,,,,,,,,,,,,,,,,,,,,,,,,,,,,,,,,1,  ,,0,7.753038984,145.2245,0,1,1,1,1,2,2,,,,,,,,,,,,,,,,,
,614014b19c0f71d80ec584a0,001,2022-04-28_20h12.53.333,classification_task,2021.2.3,MacIntel,59.99880002,614014b19c0f71d80ec584a0,626b377229c10585ec392f8a,626b3b2e23c37665762c8ff4,,,,,,,,,,,,,,,,,,,,,,,,,,,,,,,,,,,,,,,2,  ,,0,4.77804517,146.7678,0,1,1,1,1,2,2,,,,,,,,,,,,,,,,,
,614014b19c0f71d80ec584a0,001,2022-04-28_20h12.53.333,classification_task,2021.2.3,MacIntel,59.99880002,614014b19c0f71d80ec584a0,626b377229c10585ec392f8a,626b3b2e23c37665762c8ff4,,,,,,,,,,,,,,,,,,,,,,,,,,,,,,,,,,,,,,,,,,,,,0,1,1,1,1,,2,,,,,,,,,,,,,,,,,
,614014b19c0f71d80ec584a0,001,2022-04-28_20h12.53.333,classification_task,2021.2.3,MacIntel,59.99880002,614014b19c0f71d80ec584a0,626b377229c10585ec392f8a,626b3b2e23c37665762c8ff4,,,,,,,,,,,,,,,,,,,,,space,10.9666,l,0,"[""0.235"",""0.520"",""0.665"",""0.974""]","[1,1,0,1]",0,0,0,0,1,0,1,,,1,FALSE,0.9495,,,,,,,,,,,,,,,,,,,,,,,,,,,,,,
,614014b19c0f71d80ec584a0,001,2022-04-28_20h12.53.333,classification_task,2021.2.3,MacIntel,59.99880002,614014b19c0f71d80ec584a0,626b377229c10585ec392f8a,626b3b2e23c37665762c8ff4,,,,,,,,,,,,,,,,,,,,,,,l,1,"[""0.041"",""0.316"",""0.685"",""0.727""]","[1,1,0,1]",0,1,1,1,1,1,1,,,1,FALSE,1.0673,,,,,,,,,,,,,,,,,,,,,,,,,,,,,,
,614014b19c0f71d80ec584a0,001,2022-04-28_20h12.53.333,classification_task,2021.2.3,MacIntel,59.99880002,614014b19c0f71d80ec584a0,626b377229c10585ec392f8a,626b3b2e23c37665762c8ff4,,,,,,,,,,,,,,,,,,,,,,,a,0,"[""0.123"",""0.360"",""0.480"",""0.931""]","[1,1,1,0]",0,2,2,2,1,1,0,,,1,FALSE,0.7032,,,,,,,,,,,,,,,,,,,,,,,,,,,,,,
,614014b19c0f71d80ec584a0,001,2022-04-28_20h12.53.333,classification_task,2021.2.3,MacIntel,59.99880002,614014b19c0f71d80ec584a0,626b377229c10585ec392f8a,626b3b2e23c37665762c8ff4,,,,,,,,,,,,,,,,,,,,,,,a,0,"[""0.940"",""0.360"",""0.480"",""0.813""]","[0,1,1,1]",0,3,3,3,1,1,0,,,1,FALSE,0.7825,,,,,,,,,,,,,,,,,,,,,,,,,,,,,,
,614014b19c0f71d80ec584a0,001,2022-04-28_20h12.53.333,classification_task,2021.2.3,MacIntel,59.99880002,614014b19c0f71d80ec584a0,626b377229c10585ec392f8a,626b3b2e23c37665762c8ff4,,,,,,,,,,,,,,,,,,,,,,,l,0,"[""0.192"",""0.430"",""0.931"",""0.893""]","[1,1,0,1]",0,4,4,4,1,0,0,,,1,FALSE,1.1508,,,,,,,,,,,,,,,,,,,,,,,,,,,,,,
,614014b19c0f71d80ec584a0,001,2022-04-28_20h12.53.333,classification_task,2021.2.3,MacIntel,59.99880002,614014b19c0f71d80ec584a0,626b377229c10585ec392f8a,626b3b2e23c37665762c8ff4,,,,,,,,,,,,,,,,,,,,,,,l,1,"[""0.041"",""0.770"",""0.560"",""0.727""]","[1,0,1,1]",0,5,5,5,1,1,1,,,1,FALSE,1.4334,,,,,,,,,,,,,,,,,,,,,,,,,,,,,,
,614014b19c0f71d80ec584a0,001,2022-04-28_20h12.53.333,classification_task,2021.2.3,MacIntel,59.99880002,614014b19c0f71d80ec584a0,626b377229c10585ec392f8a,626b3b2e23c37665762c8ff4,,,,,,,,,,,,,,,,,,,,,,,a,1,"[""0.665"",""0.430"",""0.619"",""0.893""]","[0,1,1,1]",0,6,6,6,1,0,0,,,1,FALSE,0.992,,,,,,,,,,,,,,,,,,,,,,,,,,,,,,
,614014b19c0f71d80ec584a0,001,2022-04-28_20h12.53.333,classification_task,2021.2.3,MacIntel,59.99880002,614014b19c0f71d80ec584a0,626b377229c10585ec392f8a,626b3b2e23c37665762c8ff4,,,,,,,,,,,,,,,,,,,,,,,a,1,"[""0.192"",""0.430"",""0.619"",""0.085""]","[1,1,1,0]",0,7,7,7,1,0,0,,,1,FALSE,0.7469,,,,,,,,,,,,,,,,,,,,,,,,,,,,,,
,614014b19c0f71d80ec584a0,001,2022-04-28_20h12.53.333,classification_task,2021.2.3,MacIntel,59.99880002,614014b19c0f71d80ec584a0,626b377229c10585ec392f8a,626b3b2e23c37665762c8ff4,,,,,,,,,,,,,,,,,,,,,,,l,0,"[""0.235"",""0.665"",""0.848"",""0.974""]","[1,0,1,1]",0,8,8,8,1,0,1,,,1,FALSE,0.8002,,,,,,,,,,,,,,,,,,,,,,,,,,,,,,
,614014b19c0f71d80ec584a0,001,2022-04-28_20h12.53.333,classification_task,2021.2.3,MacIntel,59.99880002,614014b19c0f71d80ec584a0,626b377229c10585ec392f8a,626b3b2e23c37665762c8ff4,,,,,,,,,,,,,,,,,,,,,,,a,1,"[""0.192"",""0.085"",""0.619"",""0.893""]","[1,0,1,1]",0,9,9,9,1,0,0,,,1,FALSE,2.0997,,,,,,,,,,,,,,,,,,,,,,,,,,,,,,
,614014b19c0f71d80ec584a0,001,2022-04-28_20h12.53.333,classification_task,2021.2.3,MacIntel,59.99880002,614014b19c0f71d80ec584a0,626b377229c10585ec392f8a,626b3b2e23c37665762c8ff4,,,,,,,,,,,,,,,,,,,,,,,l,1,"[""0.041"",""0.316"",""0.560"",""0.694""]","[1,1,1,0]",0,10,10,10,1,1,1,,,1,FALSE,1.274,,,,,,,,,,,,,,,,,,,,,,,,,,,,,,
,614014b19c0f71d80ec584a0,001,2022-04-28_20h12.53.333,classification_task,2021.2.3,MacIntel,59.99880002,614014b19c0f71d80ec584a0,626b377229c10585ec392f8a,626b3b2e23c37665762c8ff4,,,,,,,,,,,,,,,,,,,,,,,l,1,"[""0.123"",""0.360"",""0.694"",""0.813""]","[1,1,0,1]",0,11,11,11,1,1,0,,,1,FALSE,1.1824,,,,,,,,,,,,,,,,,,,,,,,,,,,,,,
,614014b19c0f71d80ec584a0,001,2022-04-28_20h12.53.333,classification_task,2021.2.3,MacIntel,59.99880002,614014b19c0f71d80ec584a0,626b377229c10585ec392f8a,626b3b2e23c37665762c8ff4,,,,,,,,,,,,,,,,,,,,,,,a,0,"[""0.679"",""0.316"",""0.560"",""0.727""]","[0,1,1,1]",0,12,12,12,1,1,1,,,1,FALSE,1.0199,,,,,,,,,,,,,,,,,,,,,,,,,,,,,,
,614014b19c0f71d80ec584a0,001,2022-04-28_20h12.53.333,classification_task,2021.2.3,MacIntel,59.99880002,614014b19c0f71d80ec584a0,626b377229c10585ec392f8a,626b3b2e23c37665762c8ff4,,,,,,,,,,,,,,,,,,,,,,,l,1,"[""0.123"",""0.665"",""0.480"",""0.813""]","[1,0,1,1]",0,13,13,13,1,1,0,,,1,FALSE,1.935,,,,,,,,,,,,,,,,,,,,,,,,,,,,,,
,614014b19c0f71d80ec584a0,001,2022-04-28_20h12.53.333,classification_task,2021.2.3,MacIntel,59.99880002,614014b19c0f71d80ec584a0,626b377229c10585ec392f8a,626b3b2e23c37665762c8ff4,,,,,,,,,,,,,,,,,,,,,,,a,1,"[""0.235"",""0.520"",""0.848"",""0.778""]","[1,1,1,0]",0,14,14,14,1,0,1,,,1,FALSE,1.5065,,,,,,,,,,,,,,,,,,,,,,,,,,,,,,
,614014b19c0f71d80ec584a0,001,2022-04-28_20h12.53.333,classification_task,2021.2.3,MacIntel,59.99880002,614014b19c0f71d80ec584a0,626b377229c10585ec392f8a,626b3b2e23c37665762c8ff4,,,,,,,,,,,,,,,,,,,,,,,l,0,"[""0.090"",""0.520"",""0.848"",""0.974""]","[0,1,1,1]",0,15,15,15,1,0,1,,,1,FALSE,0.5518,,,,,,,,,,,,,,,,,,,,,,,,,,,,,,
,614014b19c0f71d80ec584a0,001,2022-04-28_20h12.53.333,classification_task,2021.2.3,MacIntel,59.99880002,614014b19c0f71d80ec584a0,626b377229c10585ec392f8a,626b3b2e23c37665762c8ff4,,,,,,,,,,,,,,,,,,,,,,,l,0,"[""0.192"",""0.430"",""0.770"",""0.893""]","[1,1,0,1]",0,16,16,16,1,0,0,,,1,FALSE,0.8325,,,,,,,,,,,,,,,,,,,,,,,,,,,,,,
,614014b19c0f71d80ec584a0,001,2022-04-28_20h12.53.333,classification_task,2021.2.3,MacIntel,59.99880002,614014b19c0f71d80ec584a0,626b377229c10585ec392f8a,626b3b2e23c37665762c8ff4,,,,,,,,,,,,,,,,,,,,,,,a,0,"[""0.041"",""0.316"",""0.654"",""0.727""]","[1,1,0,1]",0,17,17,17,1,1,1,,,1,FALSE,1.6987,,,,,,,,,,,,,,,,,,,,,,,,,,,,,,
,614014b19c0f71d80ec584a0,001,2022-04-28_20h12.53.333,classification_task,2021.2.3,MacIntel,59.99880002,614014b19c0f71d80ec584a0,626b377229c10585ec392f8a,626b3b2e23c37665762c8ff4,,,,,,,,,,,,,,,,,,,,,,,l,1,"[""0.770"",""0.316"",""0.560"",""0.727""]","[0,1,1,1]",0,18,18,18,1,1,1,,,1,FALSE,1.3158,,,,,,,,,,,,,,,,,,,,,,,,,,,,,,
,614014b19c0f71d80ec584a0,001,2022-04-28_20h12.53.333,classification_task,2021.2.3,MacIntel,59.99880002,614014b19c0f71d80ec584a0,626b377229c10585ec392f8a,626b3b2e23c37665762c8ff4,,,,,,,,,,,,,,,,,,,,,,,l,0,"[""0.235"",""0.938"",""0.848"",""0.974""]","[1,0,1,1]",0,19,19,19,1,0,1,,,1,FALSE,1.1994,,,,,,,,,,,,,,,,,,,,,,,,,,,,,,
,614014b19c0f71d80ec584a0,001,2022-04-28_20h12.53.333,classification_task,2021.2.3,MacIntel,59.99880002,614014b19c0f71d80ec584a0,626b377229c10585ec392f8a,626b3b2e23c37665762c8ff4,,,,,,,,,,,,,,,,,,,,,,,l,0,"[""0.192"",""0.931"",""0.619"",""0.893""]","[1,0,1,1]",0,20,20,20,1,0,0,,,1,FALSE,0.9332,,,,,,,,,,,,,,,,,,,,,,,,,,,,,,
,614014b19c0f71d80ec584a0,001,2022-04-28_20h12.53.333,classification_task,2021.2.3,MacIntel,59.99880002,614014b19c0f71d80ec584a0,626b377229c10585ec392f8a,626b3b2e23c37665762c8ff4,,,,,,,,,,,,,,,,,,,,,,,a,1,"[""0.192"",""0.430"",""0.619"",""0.090""]","[1,1,1,0]",0,21,21,21,1,0,0,,,1,FALSE,0.655,,,,,,,,,,,,,,,,,,,,,,,,,,,,,,
,614014b19c0f71d80ec584a0,001,2022-04-28_20h12.53.333,classification_task,2021.2.3,MacIntel,59.99880002,614014b19c0f71d80ec584a0,626b377229c10585ec392f8a,626b3b2e23c37665762c8ff4,,,,,,,,,,,,,,,,,,,,,,,a,0,"[""0.123"",""0.689"",""0.480"",""0.813""]","[1,0,1,1]",0,22,22,22,1,1,0,,,1,FALSE,1.3043,,,,,,,,,,,,,,,,,,,,,,,,,,,,,,
,614014b19c0f71d80ec584a0,001,2022-04-28_20h12.53.333,classification_task,2021.2.3,MacIntel,59.99880002,614014b19c0f71d80ec584a0,626b377229c10585ec392f8a,626b3b2e23c37665762c8ff4,,,,,,,,,,,,,,,,,,,,,,,l,1,"[""0.123"",""0.360"",""0.480"",""0.665""]","[1,1,1,0]",0,23,23,23,1,1,0,,,1,FALSE,0.6359,,,,,,,,,,,,,,,,,,,,,,,,,,,,,,
,614014b19c0f71d80ec584a0,001,2022-04-28_20h12.53.333,classification_task,2021.2.3,MacIntel,59.99880002,614014b19c0f71d80ec584a0,626b377229c10585ec392f8a,626b3b2e23c37665762c8ff4,,,,,,,,,,,,,,,,,,,,,,,l,0,"[""0.672"",""0.520"",""0.848"",""0.974""]","[0,1,1,1]",0,24,24,24,1,0,1,,,1,FALSE,1.0845,,,,,,,,,,,,,,,,,,,,,,,,,,,,,,
,614014b19c0f71d80ec584a0,001,2022-04-28_20h12.53.333,classification_task,2021.2.3,MacIntel,59.99880002,614014b19c0f71d80ec584a0,626b377229c10585ec392f8a,626b3b2e23c37665762c8ff4,,,,,,,,,,,,,,,,,,,,,,,a,0,"[""0.041"",""0.316"",""0.560"",""0.672""]","[1,1,1,0]",0,25,25,25,1,1,1,,,1,FALSE,1.0315,,,,,,,,,,,,,,,,,,,,,,,,,,,,,,
,614014b19c0f71d80ec584a0,001,2022-04-28_20h12.53.333,classification_task,2021.2.3,MacIntel,59.99880002,614014b19c0f71d80ec584a0,626b377229c10585ec392f8a,626b3b2e23c37665762c8ff4,,,,,,,,,,,,,,,,,,,,,,,a,1,"[""0.235"",""0.520"",""0.848"",""0.669""]","[1,1,1,0]",0,26,26,26,1,0,1,,,1,FALSE,1.5029,,,,,,,,,,,,,,,,,,,,,,,,,,,,,,
,614014b19c0f71d80ec584a0,001,2022-04-28_20h12.53.333,classification_task,2021.2.3,MacIntel,59.99880002,614014b19c0f71d80ec584a0,626b377229c10585ec392f8a,626b3b2e23c37665762c8ff4,,,,,,,,,,,,,,,,,,,,,,,l,0,"[""0.085"",""0.430"",""0.619"",""0.893""]","[0,1,1,1]",0,27,27,27,1,0,0,,,1,FALSE,1.9823,,,,,,,,,,,,,,,,,,,,,,,,,,,,,,
,614014b19c0f71d80ec584a0,001,2022-04-28_20h12.53.333,classification_task,2021.2.3,MacIntel,59.99880002,614014b19c0f71d80ec584a0,626b377229c10585ec392f8a,626b3b2e23c37665762c8ff4,,,,,,,,,,,,,,,,,,,,,,,l,0,"[""0.235"",""0.520"",""0.679"",""0.974""]","[1,1,0,1]",0,28,28,28,1,0,1,,,1,FALSE,1.0748,,,,,,,,,,,,,,,,,,,,,,,,,,,,,,
,614014b19c0f71d80ec584a0,001,2022-04-28_20h12.53.333,classification_task,2021.2.3,MacIntel,59.99880002,614014b19c0f71d80ec584a0,626b377229c10585ec392f8a,626b3b2e23c37665762c8ff4,,,,,,,,,,,,,,,,,,,,,,,a,0,"[""0.041"",""0.656"",""0.560"",""0.727""]","[1,0,1,1]",0,29,29,29,1,1,1,,,1,FALSE,1.0664,,,,,,,,,,,,,,,,,,,,,,,,,,,,,,
,614014b19c0f71d80ec584a0,001,2022-04-28_20h12.53.333,classification_task,2021.2.3,MacIntel,59.99880002,614014b19c0f71d80ec584a0,626b377229c10585ec392f8a,626b3b2e23c37665762c8ff4,,,,,,,,,,,,,,,,,,,,,,,l,1,"[""0.123"",""0.360"",""0.672"",""0.813""]","[1,1,0,1]",0,30,30,30,1,1,0,,,1,FALSE,0.9531,,,,,,,,,,,,,,,,,,,,,,,,,,,,,,
,614014b19c0f71d80ec584a0,001,2022-04-28_20h12.53.333,classification_task,2021.2.3,MacIntel,59.99880002,614014b19c0f71d80ec584a0,626b377229c10585ec392f8a,626b3b2e23c37665762c8ff4,,,,,,,,,,,,,,,,,,,,,,,l,1,"[""0.694"",""0.360"",""0.480"",""0.813""]","[0,1,1,1]",0,31,31,31,1,1,0,,,1,FALSE,0.8674,,,,,,,,,,,,,,,,,,,,,,,,,,,,,,
,614014b19c0f71d80ec584a0,001,2022-04-28_20h12.53.333,classification_task,2021.2.3,MacIntel,59.99880002,614014b19c0f71d80ec584a0,626b377229c10585ec392f8a,626b3b2e23c37665762c8ff4,,,,,,,,,,,,,,,,,,,,,,,a,0,"[""0.123"",""0.360"",""0.689"",""0.813""]","[1,1,0,1]",0,32,32,32,1,1,0,,,1,FALSE,1.5211,,,,,,,,,,,,,,,,,,,,,,,,,,,,,,
,614014b19c0f71d80ec584a0,001,2022-04-28_20h12.53.333,classification_task,2021.2.3,MacIntel,59.99880002,614014b19c0f71d80ec584a0,626b377229c10585ec392f8a,626b3b2e23c37665762c8ff4,,,,,,,,,,,,,,,,,,,,,,,l,1,"[""0.041"",""0.316"",""0.560"",""0.085""]","[1,1,1,0]",0,33,33,33,1,1,1,,,1,FALSE,0.9519,,,,,,,,,,,,,,,,,,,,,,,,,,,,,,
,614014b19c0f71d80ec584a0,001,2022-04-28_20h12.53.333,classification_task,2021.2.3,MacIntel,59.99880002,614014b19c0f71d80ec584a0,626b377229c10585ec392f8a,626b3b2e23c37665762c8ff4,,,,,,,,,,,,,,,,,,,,,,,l,0,"[""0.192"",""0.430"",""0.619"",""0.770""]","[1,1,1,0]",0,34,34,34,1,0,0,,,1,FALSE,1.0849,,,,,,,,,,,,,,,,,,,,,,,,,,,,,,
,614014b19c0f71d80ec584a0,001,2022-04-28_20h12.53.333,classification_task,2021.2.3,MacIntel,59.99880002,614014b19c0f71d80ec584a0,626b377229c10585ec392f8a,626b3b2e23c37665762c8ff4,,,,,,,,,,,,,,,,,,,,,,,a,1,"[""0.192"",""0.654"",""0.619"",""0.893""]","[1,0,1,1]",0,35,35,35,1,0,0,,,1,FALSE,1.5016,,,,,,,,,,,,,,,,,,,,,,,,,,,,,,
,614014b19c0f71d80ec584a0,001,2022-04-28_20h12.53.333,classification_task,2021.2.3,MacIntel,59.99880002,614014b19c0f71d80ec584a0,626b377229c10585ec392f8a,626b3b2e23c37665762c8ff4,,,,,,,,,,,,,,,,,,,,,,,l,0,"[""0.085"",""0.520"",""0.848"",""0.974""]","[0,1,1,1]",0,36,36,36,1,0,1,,,1,FALSE,1.3853,,,,,,,,,,,,,,,,,,,,,,,,,,,,,,
,614014b19c0f71d80ec584a0,001,2022-04-28_20h12.53.333,classification_task,2021.2.3,MacIntel,59.99880002,614014b19c0f71d80ec584a0,626b377229c10585ec392f8a,626b3b2e23c37665762c8ff4,,,,,,,,,,,,,,,,,,,,,,,l,0,"[""0.192"",""0.430"",""0.931"",""0.893""]","[1,1,0,1]",0,37,37,37,1,0,0,,,1,FALSE,1.7566,,,,,,,,,,,,,,,,,,,,,,,,,,,,,,
,614014b19c0f71d80ec584a0,001,2022-04-28_20h12.53.333,classification_task,2021.2.3,MacIntel,59.99880002,614014b19c0f71d80ec584a0,626b377229c10585ec392f8a,626b3b2e23c37665762c8ff4,,,,,,,,,,,,,,,,,,,,,,,a,1,"[""0.654"",""0.430"",""0.619"",""0.893""]","[0,1,1,1]",0,38,38,38,1,0,0,,,1,FALSE,1.0028,,,,,,,,,,,,,,,,,,,,,,,,,,,,,,
,614014b19c0f71d80ec584a0,001,2022-04-28_20h12.53.333,classification_task,2021.2.3,MacIntel,59.99880002,614014b19c0f71d80ec584a0,626b377229c10585ec392f8a,626b3b2e23c37665762c8ff4,,,,,,,,,,,,,,,,,,,,,,,l,1,"[""0.041"",""0.316"",""0.665"",""0.727""]","[1,1,0,1]",0,39,39,39,1,1,1,,,1,FALSE,1.8998,,,,,,,,,,,,,,,,,,,,,,,,,,,,,,
,614014b19c0f71d80ec584a0,001,2022-04-28_20h12.53.333,classification_task,2021.2.3,MacIntel,59.99880002,614014b19c0f71d80ec584a0,626b377229c10585ec392f8a,626b3b2e23c37665762c8ff4,,,,,,,,,,,,,,,,,,,,,,,a,0,"[""0.123"",""0.689"",""0.480"",""0.813""]","[1,0,1,1]",0,40,40,40,1,1,0,,,1,FALSE,0.8884,,,,,,,,,,,,,,,,,,,,,,,,,,,,,,
,614014b19c0f71d80ec584a0,001,2022-04-28_20h12.53.333,classification_task,2021.2.3,MacIntel,59.99880002,614014b19c0f71d80ec584a0,626b377229c10585ec392f8a,626b3b2e23c37665762c8ff4,,,,,,,,,,,,,,,,,,,,,,,l,1,"[""0.679"",""0.360"",""0.480"",""0.813""]","[0,1,1,1]",0,41,41,41,1,1,0,,,1,FALSE,0.9019,,,,,,,,,,,,,,,,,,,,,,,,,,,,,,
,614014b19c0f71d80ec584a0,001,2022-04-28_20h12.53.333,classification_task,2021.2.3,MacIntel,59.99880002,614014b19c0f71d80ec584a0,626b377229c10585ec392f8a,626b3b2e23c37665762c8ff4,,,,,,,,,,,,,,,,,,,,,,,l,0,"[""0.235"",""0.520"",""0.848"",""0.940""]","[1,1,1,0]",0,42,42,42,1,0,1,,,1,FALSE,0.7488,,,,,,,,,,,,,,,,,,,,,,,,,,,,,,
,614014b19c0f71d80ec584a0,001,2022-04-28_20h12.53.333,classification_task,2021.2.3,MacIntel,59.99880002,614014b19c0f71d80ec584a0,626b377229c10585ec392f8a,626b3b2e23c37665762c8ff4,,,,,,,,,,,,,,,,,,,,,,,a,0,"[""0.123"",""0.360"",""0.480"",""0.090""]","[1,1,1,0]",0,43,43,43,1,1,0,,,1,FALSE,1.017,,,,,,,,,,,,,,,,,,,,,,,,,,,,,,
,614014b19c0f71d80ec584a0,001,2022-04-28_20h12.53.333,classification_task,2021.2.3,MacIntel,59.99880002,614014b19c0f71d80ec584a0,626b377229c10585ec392f8a,626b3b2e23c37665762c8ff4,,,,,,,,,,,,,,,,,,,,,,,l,0,"[""0.235"",""0.520"",""0.090"",""0.974""]","[1,1,0,1]",0,44,44,44,1,0,1,,,1,FALSE,1.4687,,,,,,,,,,,,,,,,,,,,,,,,,,,,,,
,614014b19c0f71d80ec584a0,001,2022-04-28_20h12.53.333,classification_task,2021.2.3,MacIntel,59.99880002,614014b19c0f71d80ec584a0,626b377229c10585ec392f8a,626b3b2e23c37665762c8ff4,,,,,,,,,,,,,,,,,,,,,,,a,0,"[""0.041"",""0.689"",""0.560"",""0.727""]","[1,0,1,1]",0,45,45,45,1,1,1,,,1,FALSE,0.8558,,,,,,,,,,,,,,,,,,,,,,,,,,,,,,
,614014b19c0f71d80ec584a0,001,2022-04-28_20h12.53.333,classification_task,2021.2.3,MacIntel,59.99880002,614014b19c0f71d80ec584a0,626b377229c10585ec392f8a,626b3b2e23c37665762c8ff4,,,,,,,,,,,,,,,,,,,,,,,a,1,"[""0.235"",""0.931"",""0.848"",""0.974""]","[1,0,1,1]",0,46,46,46,1,0,1,,,1,FALSE,0.7666,,,,,,,,,,,,,,,,,,,,,,,,,,,,,,
,614014b19c0f71d80ec584a0,001,2022-04-28_20h12.53.333,classification_task,2021.2.3,MacIntel,59.99880002,614014b19c0f71d80ec584a0,626b377229c10585ec392f8a,626b3b2e23c37665762c8ff4,,,,,,,,,,,,,,,,,,,,,,,l,1,"[""0.672"",""0.316"",""0.560"",""0.727""]","[0,1,1,1]",0,47,47,47,1,1,1,,,1,FALSE,0.9017,,,,,,,,,,,,,,,,,,,,,,,,,,,,,,
,614014b19c0f71d80ec584a0,001,2022-04-28_20h12.53.333,classification_task,2021.2.3,MacIntel,59.99880002,614014b19c0f71d80ec584a0,626b377229c10585ec392f8a,626b3b2e23c37665762c8ff4,,,,,,,,,,,,,,,,,,,,,,,l,1,"[""0.041"",""0.931"",""0.560"",""0.727""]","[1,0,1,1]",0,48,48,48,1,1,1,,,1,FALSE,2.7209,,,,,,,,,,,,,,,,,,,,,,,,,,,,,,
,614014b19c0f71d80ec584a0,001,2022-04-28_20h12.53.333,classification_task,2021.2.3,MacIntel,59.99880002,614014b19c0f71d80ec584a0,626b377229c10585ec392f8a,626b3b2e23c37665762c8ff4,,,,,,,,,,,,,,,,,,,,,,,l,0,"[""0.235"",""0.520"",""0.848"",""0.940""]","[1,1,1,0]",0,49,49,49,1,0,1,,,1,FALSE,2.0727,,,,,,,,,,,,,,,,,,,,,,,,,,,,,,
,614014b19c0f71d80ec584a0,001,2022-04-28_20h12.53.333,classification_task,2021.2.3,MacIntel,59.99880002,614014b19c0f71d80ec584a0,626b377229c10585ec392f8a,626b3b2e23c37665762c8ff4,,,,,,,,,,,,,,,,,,,,,,,a,1,"[""0.235"",""0.520"",""0.778"",""0.974""]","[1,1,0,1]",0,50,50,50,1,0,1,,,1,FALSE,1.6211,,,,,,,,,,,,,,,,,,,,,,,,,,,,,,
,614014b19c0f71d80ec584a0,001,2022-04-28_20h12.53.333,classification_task,2021.2.3,MacIntel,59.99880002,614014b19c0f71d80ec584a0,626b377229c10585ec392f8a,626b3b2e23c37665762c8ff4,,,,,,,,,,,,,,,,,,,,,,,a,1,"[""0.085"",""0.520"",""0.848"",""0.974""]","[0,1,1,1]",0,51,51,51,1,0,1,,,1,FALSE,2.5864,,,,,,,,,,,,,,,,,,,,,,,,,,,,,,
,614014b19c0f71d80ec584a0,001,2022-04-28_20h12.53.333,classification_task,2021.2.3,MacIntel,59.99880002,614014b19c0f71d80ec584a0,626b377229c10585ec392f8a,626b3b2e23c37665762c8ff4,,,,,,,,,,,,,,,,,,,,,,,l,1,"[""0.041"",""0.316"",""0.689"",""0.727""]","[1,1,0,1]",0,52,52,52,1,1,1,,,1,FALSE,2.6691,,,,,,,,,,,,,,,,,,,,,,,,,,,,,,
,614014b19c0f71d80ec584a0,001,2022-04-28_20h12.53.333,classification_task,2021.2.3,MacIntel,59.99880002,614014b19c0f71d80ec584a0,626b377229c10585ec392f8a,626b3b2e23c37665762c8ff4,,,,,,,,,,,,,,,,,,,,,,,l,1,"[""0.778"",""0.316"",""0.560"",""0.727""]","[0,1,1,1]",0,53,53,53,1,1,1,,,1,FALSE,1.4245,,,,,,,,,,,,,,,,,,,,,,,,,,,,,,
,614014b19c0f71d80ec584a0,001,2022-04-28_20h12.53.333,classification_task,2021.2.3,MacIntel,59.99880002,614014b19c0f71d80ec584a0,626b377229c10585ec392f8a,626b3b2e23c37665762c8ff4,,,,,,,,,,,,,,,,,,,,,,,a,0,"[""0.123"",""0.694"",""0.480"",""0.813""]","[1,0,1,1]",0,54,54,54,1,1,0,,,1,FALSE,2.0343,,,,,,,,,,,,,,,,,,,,,,,,,,,,,,
,614014b19c0f71d80ec584a0,001,2022-04-28_20h12.53.333,classification_task,2021.2.3,MacIntel,59.99880002,614014b19c0f71d80ec584a0,626b377229c10585ec392f8a,626b3b2e23c37665762c8ff4,,,,,,,,,,,,,,,,,,,,,,,l,0,"[""0.192"",""0.430"",""0.778"",""0.893""]","[1,1,0,1]",0,55,55,55,1,0,0,,,1,FALSE,2.7636,,,,,,,,,,,,,,,,,,,,,,,,,,,,,,
,614014b19c0f71d80ec584a0,001,2022-04-28_20h12.53.333,classification_task,2021.2.3,MacIntel,59.99880002,614014b19c0f71d80ec584a0,626b377229c10585ec392f8a,626b3b2e23c37665762c8ff4,,,,,,,,,,,,,,,,,,,,,,,a,1,"[""0.665"",""0.430"",""0.619"",""0.893""]","[0,1,1,1]",0,56,56,56,1,0,0,,,1,FALSE,1.5914,,,,,,,,,,,,,,,,,,,,,,,,,,,,,,
,614014b19c0f71d80ec584a0,001,2022-04-28_20h12.53.333,classification_task,2021.2.3,MacIntel,59.99880002,614014b19c0f71d80ec584a0,626b377229c10585ec392f8a,626b3b2e23c37665762c8ff4,,,,,,,,,,,,,,,,,,,,,,,l,0,"[""0.235"",""0.672"",""0.848"",""0.974""]","[1,0,1,1]",0,57,57,57,1,0,1,,,1,FALSE,0.9905,,,,,,,,,,,,,,,,,,,,,,,,,,,,,,
,614014b19c0f71d80ec584a0,001,2022-04-28_20h12.53.333,classification_task,2021.2.3,MacIntel,59.99880002,614014b19c0f71d80ec584a0,626b377229c10585ec392f8a,626b3b2e23c37665762c8ff4,,,,,,,,,,,,,,,,,,,,,,,l,1,"[""0.041"",""0.316"",""0.560"",""0.938""]","[1,1,1,0]",0,58,58,58,1,1,1,,,1,FALSE,1.4687,,,,,,,,,,,,,,,,,,,,,,,,,,,,,,
,614014b19c0f71d80ec584a0,001,2022-04-28_20h12.53.333,classification_task,2021.2.3,MacIntel,59.99880002,614014b19c0f71d80ec584a0,626b377229c10585ec392f8a,626b3b2e23c37665762c8ff4,,,,,,,,,,,,,,,,,,,,,,,a,0,"[""0.123"",""0.360"",""0.480"",""0.778""]","[1,1,1,0]",0,59,59,59,1,1,0,,,1,FALSE,1.169,,,,,,,,,,,,,,,,,,,,,,,,,,,,,,
,614014b19c0f71d80ec584a0,001,2022-04-28_20h12.53.333,classification_task,2021.2.3,MacIntel,59.99880002,614014b19c0f71d80ec584a0,626b377229c10585ec392f8a,626b3b2e23c37665762c8ff4,,,,,,,,,,,,,,,,,,,,,,,l,1,"[""0.694"",""0.360"",""0.480"",""0.813""]","[0,1,1,1]",0,60,60,60,1,1,0,,,1,FALSE,1.5175,,,,,,,,,,,,,,,,,,,,,,,,,,,,,,
,614014b19c0f71d80ec584a0,001,2022-04-28_20h12.53.333,classification_task,2021.2.3,MacIntel,59.99880002,614014b19c0f71d80ec584a0,626b377229c10585ec392f8a,626b3b2e23c37665762c8ff4,,,,,,,,,,,,,,,,,,,,,,,a,0,"[""0.123"",""0.360"",""0.770"",""0.813""]","[1,1,0,1]",0,61,61,61,1,1,0,,,1,FALSE,0.9335,,,,,,,,,,,,,,,,,,,,,,,,,,,,,,
,614014b19c0f71d80ec584a0,001,2022-04-28_20h12.53.333,classification_task,2021.2.3,MacIntel,59.99880002,614014b19c0f71d80ec584a0,626b377229c10585ec392f8a,626b3b2e23c37665762c8ff4,,,,,,,,,,,,,,,,,,,,,,,l,0,"[""0.192"",""0.672"",""0.619"",""0.893""]","[1,0,1,1]",0,62,62,62,1,0,0,,,1,FALSE,2.8675,,,,,,,,,,,,,,,,,,,,,,,,,,,,,,
,614014b19c0f71d80ec584a0,001,2022-04-28_20h12.53.333,classification_task,2021.2.3,MacIntel,59.99880002,614014b19c0f71d80ec584a0,626b377229c10585ec392f8a,626b3b2e23c37665762c8ff4,,,,,,,,,,,,,,,,,,,,,,,a,1,"[""0.192"",""0.430"",""0.619"",""0.931""]","[1,1,1,0]",0,63,63,63,1,0,0,,,1,FALSE,1.5556,,,,,,,,,,,,,,,,,,,,,,,,,,,,,,
,614014b19c0f71d80ec584a0,001,2022-04-28_20h12.53.333,classification_task,2021.2.3,MacIntel,59.99880002,614014b19c0f71d80ec584a0,626b377229c10585ec392f8a,626b3b2e23c37665762c8ff4,,,,,,,,,,,,,,,,,,,,,,,,,,,,,,,,,,,,,,,0, ,,0,4.873760208,169.9217,0,2,2,2,1,2,3,,,,,,,,,,,,,,,,,
,614014b19c0f71d80ec584a0,001,2022-04-28_20h12.53.333,classification_task,2021.2.3,MacIntel,59.99880002,614014b19c0f71d80ec584a0,626b377229c10585ec392f8a,626b3b2e23c37665762c8ff4,,,,,,,,,,,,,,,,,,,,,,,,,,,,,,,,,,,,,,,1,  ,,0,10,173.6228,0,2,2,2,1,2,3,,,,,,,,,,,,,,,,,
,614014b19c0f71d80ec584a0,001,2022-04-28_20h12.53.333,classification_task,2021.2.3,MacIntel,59.99880002,614014b19c0f71d80ec584a0,626b377229c10585ec392f8a,626b3b2e23c37665762c8ff4,,,,,,,,,,,,,,,,,,,,,,,,,,,,,,,,,,,,,,,2,  ,,0,10,176.4849,0,2,2,2,1,2,3,,,,,,,,,,,,,,,,,
,614014b19c0f71d80ec584a0,001,2022-04-28_20h12.53.333,classification_task,2021.2.3,MacIntel,59.99880002,614014b19c0f71d80ec584a0,626b377229c10585ec392f8a,626b3b2e23c37665762c8ff4,,,,,,,,,,,,,,,,,,,,,,,,,,,,,,,,,,,,,,,,,,,,,0,2,2,2,1,,3,,,,,,,,,,,,,,,,,
,614014b19c0f71d80ec584a0,001,2022-04-28_20h12.53.333,classification_task,2021.2.3,MacIntel,59.99880002,614014b19c0f71d80ec584a0,626b377229c10585ec392f8a,626b3b2e23c37665762c8ff4,,,,,,,,,,,,,,,,,,,,,,,,,,,,,,,,,,,,,,,,,,,,,,,,,,,,,I believe the aid is a competent performer,,0.7,0,3,737.1323,0,0,0,0,1,0,,,,
,614014b19c0f71d80ec584a0,001,2022-04-28_20h12.53.333,classification_task,2021.2.3,MacIntel,59.99880002,614014b19c0f71d80ec584a0,626b377229c10585ec392f8a,626b3b2e23c37665762c8ff4,,,,,,,,,,,,,,,,,,,,,,,,,,,,,,,,,,,,,,,,,,,,,,,,,,,,,I trust the aid,,0.7,0,4,739.3559,0,0,0,0,1,0,,,,
,614014b19c0f71d80ec584a0,001,2022-04-28_20h12.53.333,classification_task,2021.2.3,MacIntel,59.99880002,614014b19c0f71d80ec584a0,626b377229c10585ec392f8a,626b3b2e23c37665762c8ff4,,,,,,,,,,,,,,,,,,,,,,,,,,,,,,,,,,,,,,,,,,,,,,,,,,,,,I have confidence in the advice given by the aid,,0.7,0,5,741.7694,0,0,0,0,1,0,,,,
,614014b19c0f71d80ec584a0,001,2022-04-28_20h12.53.333,classification_task,2021.2.3,MacIntel,59.99880002,614014b19c0f71d80ec584a0,626b377229c10585ec392f8a,626b3b2e23c37665762c8ff4,,,,,,,,,,,,,,,,,,,,,,,,,,,,,,,,,,,,,,,,,,,,,,,,,,,,,I can depend on the aid,,0.7,0,5,743.6803,0,0,0,0,1,0,,,,
,614014b19c0f71d80ec584a0,001,2022-04-28_20h12.53.333,classification_task,2021.2.3,MacIntel,59.99880002,614014b19c0f71d80ec584a0,626b377229c10585ec392f8a,626b3b2e23c37665762c8ff4,,,,,,,,,,,,,,,,,,,,,,,,,,,,,,,,,,,,,,,,,,,,,,,,,,,,,I can rely on the aid to behave in consistent ways,,0.7,0,5,746.2316,0,0,0,0,1,0,,,,
,614014b19c0f71d80ec584a0,001,2022-04-28_20h12.53.333,classification_task,2021.2.3,MacIntel,59.99880002,614014b19c0f71d80ec584a0,626b377229c10585ec392f8a,626b3b2e23c37665762c8ff4,,,,,,,,,,,,,,,,,,,,,,,,,,,,,,,,,,,,,,,,,,,,,,,,,,,,,I can rely on the aid to do its best every time I take its advice,,0.7,0,4,749.556,0,0,0,0,1,0,,,,
,614014b19c0f71d80ec584a0,001,2022-04-28_20h12.53.333,classification_task,2021.2.3,MacIntel,59.99880002,614014b19c0f71d80ec584a0,626b377229c10585ec392f8a,626b3b2e23c37665762c8ff4,,,,,,,,,,,,,,,,,,,,,,,,,,,,,,,,,,,,,,,,,,,,,,,,,,,,,"On trials you completed with assistance from the aid, how frequently did you think the aid was correct?",,0.7,0,100%,,0,0,0,0,1,0,,,,
,614014b19c0f71d80ec584a0,001,2022-04-28_20h12.53.333,classification_task,2021.2.3,MacIntel,59.99880002,614014b19c0f71d80ec584a0,626b377229c10585ec392f8a,626b3b2e23c37665762c8ff4,,,,,,,,,,,,,,,,,,,,,,,,,,,,,,,,,,,,,,,,,,,,,,,,,,,,,"On trials you completed without the aid, how frequently did you think you were correct?",,0.7,0,20%,,0,0,0,0,1,0,,,,
,614014b19c0f71d80ec584a0,001,2022-04-28_20h12.53.333,classification_task,2021.2.3,MacIntel,59.99880002,614014b19c0f71d80ec584a0,626b377229c10585ec392f8a,626b3b2e23c37665762c8ff4,,,,,,,,,,,,,,,,,,,,,,,,,,,,,,,,,,,,,,,,,,,,,,,,,,,,,,,,,,,0,0,0,0,1,,,,,
,614014b19c0f71d80ec584a0,001,2022-04-28_20h12.53.333,classification_task,2021.2.3,MacIntel,59.99880002,614014b19c0f71d80ec584a0,626b377229c10585ec392f8a,626b3b2e23c37665762c8ff4,,,,,,,,,,,,,,,,,,,,,,,,,,,,,,,,,,,,,,,,,,,,,,,,,,,,,,,,,,,,,,,,,space,9.1631,779.8549,
,614014b19c0f71d80ec584a0,001,2022-04-28_20h12.53.333,classification_task,2021.2.3,MacIntel,59.99880002,614014b19c0f71d80ec584a0,626b377229c10585ec392f8a,626b3b2e23c37665762c8ff4,,,,,,,,,,,,,,,,,,,,,,,,,,,,,,,,,,,,,,,,,,,,,,,,,,,,,,,,,,,,,,,,,,,,"Mozilla/5.0 (Macintosh; Intel Mac OS X 10_15_7) AppleWebKit/537.36 (KHTML, like Gecko) Chrome/100.0.4896.127 Safari/537.36"
