usingWebGL,participant,session,date,expName,psychopyVersion,OS,frameRate,PROLIFIC_PID,STUDY_ID,SESSION_ID,signatures_friend,signatures_foe,band_ranges_top,band_ranges_bottom,formitemText,formtype,formundefined,formitemWidth,formindex,formresponse,formrt,key_resp_2.keys,key_resp_2.rt,tute_resp.keys,tute_resp.rt,tutorial.thisRepN,tutorial.thisTrialN,tutorial.thisN,tutorial.thisIndex,tutorial.ran,key_resp_4.keys,key_resp_4.rt,key_resp.keys,key_resp.corr,key_resp.rt,lines_presented,is_signal_presented,trials.thisRepN,trials.thisTrialN,trials.thisN,trials.thisIndex,trials.ran,vessel,active_band,lines,is_signal,supported_pos,catch_trial,debrief_formindex,debrief_formitemText,debrief_formtype,debrief_formitemWidth,debrief_formresponse,debrief_formrt,phases.thisRepN,phases.thisTrialN,phases.thisN,phases.thisIndex,phases.ran,phases.order,phase,key_resp_3.keys,trustitemText,trusttype,trustitemWidth,trustindex,trustresponse,trustrt,support_status.thisRepN,support_status.thisTrialN,support_status.thisN,support_status.thisIndex,support_status.ran,support_status.order,key_resp_5.keys,key_resp_5.rt,globalClockTime,userAgent
TRUE,6140b1340293f5c279c5eec1,001,2022-04-28_19h03.11.440,classification_task,2021.2.3,Win32,60.0240096,6140b1340293f5c279c5eec1,626b377229c10585ec392f8a,626b393c856ab59e38b0bad6,,,,,,,,,,,,,,,,,,,,,,,,,,,,,,,,,,,,,,,,,,,,,,,,,,,,,,,,,,,,,,,,,,,,
,6140b1340293f5c279c5eec1,001,2022-04-28_19h03.11.440,classification_task,2021.2.3,Win32,60.0240096,6140b1340293f5c279c5eec1,626b377229c10585ec392f8a,626b393c856ab59e38b0bad6,"[[""0.308"",""0.495"",""0.838"",""0.931""],[""0.231"",""0.534"",""0.884"",""0.969""]]","[[""0.128"",""0.266"",""0.617"",""0.790""],[""0.082"",""0.192"",""0.665"",""0.699""]]","[1,10]","[100,1000]",Video game experience,,,0.7,0,,,,,,,,,,,,,,,,,,,,,,,,,,,,,,,,,,,,,,,,,,,,,,,,,,,,,,,,,,,
,6140b1340293f5c279c5eec1,001,2022-04-28_19h03.11.440,classification_task,2021.2.3,Win32,60.0240096,6140b1340293f5c279c5eec1,626b377229c10585ec392f8a,626b393c856ab59e38b0bad6,,,,,Approximately how many hours did you spend playing video games in the last week?,,,0.7,0,0,,,,,,,,,,,,,,,,,,,,,,,,,,,,,,,,,,,,,,,,,,,,,,,,,,,,,,,,,,
,6140b1340293f5c279c5eec1,001,2022-04-28_19h03.11.440,classification_task,2021.2.3,Win32,60.0240096,6140b1340293f5c279c5eec1,626b377229c10585ec392f8a,626b393c856ab59e38b0bad6,,,,,"Which game did you play the most this year? (Enter ""None"" if you didn't play any)",,,0.7,0,NONE,,,,,,,,,,,,,,,,,,,,,,,,,,,,,,,,,,,,,,,,,,,,,,,,,,,,,,,,,,
,6140b1340293f5c279c5eec1,001,2022-04-28_19h03.11.440,classification_task,2021.2.3,Win32,60.0240096,6140b1340293f5c279c5eec1,626b377229c10585ec392f8a,626b393c856ab59e38b0bad6,,,,,Visual perception,,,0.7,0,,,,,,,,,,,,,,,,,,,,,,,,,,,,,,,,,,,,,,,,,,,,,,,,,,,,,,,,,,,
,6140b1340293f5c279c5eec1,001,2022-04-28_19h03.11.440,classification_task,2021.2.3,Win32,60.0240096,6140b1340293f5c279c5eec1,626b377229c10585ec392f8a,626b393c856ab59e38b0bad6,,,,,Do you have any form of color blindness?,,,0.7,0,No,43.8815,,,,,,,,,,,,,,,,,,,,,,,,,,,,,,,,,,,,,,,,,,,,,,,,,,,,,,,,,
,6140b1340293f5c279c5eec1,001,2022-04-28_19h03.11.440,classification_task,2021.2.3,Win32,60.0240096,6140b1340293f5c279c5eec1,626b377229c10585ec392f8a,626b393c856ab59e38b0bad6,,,,,Do you use software to change the colour temperature of your screen (e.g. f.lux)?,,,0.7,0,No,47.3124,,,,,,,,,,,,,,,,,,,,,,,,,,,,,,,,,,,,,,,,,,,,,,,,,,,,,,,,,
,6140b1340293f5c279c5eec1,001,2022-04-28_19h03.11.440,classification_task,2021.2.3,Win32,60.0240096,6140b1340293f5c279c5eec1,626b377229c10585ec392f8a,626b393c856ab59e38b0bad6,,,,,,,,,,,,space,28.6058,space,8.017,0,0,0,0,1,,,,,,,,,,,,,,,,,,,,,,,,,,,,,,,,,,,,,,,,,,,,,,,,
,6140b1340293f5c279c5eec1,001,2022-04-28_19h03.11.440,classification_task,2021.2.3,Win32,60.0240096,6140b1340293f5c279c5eec1,626b377229c10585ec392f8a,626b393c856ab59e38b0bad6,,,,,,,,,,,,,,space,9.7176,1,0,1,0,1,,,,,,,,,,,,,,,,,,,,,,,,,,,,,,,,,,,,,,,,,,,,,,,,
,6140b1340293f5c279c5eec1,001,2022-04-28_19h03.11.440,classification_task,2021.2.3,Win32,60.0240096,6140b1340293f5c279c5eec1,626b377229c10585ec392f8a,626b393c856ab59e38b0bad6,,,,,,,,,,,,,,space,14.6549,2,0,2,0,1,,,,,,,,,,,,,,,,,,,,,,,,,,,,,,,,,,,,,,,,,,,,,,,,
,6140b1340293f5c279c5eec1,001,2022-04-28_19h03.11.440,classification_task,2021.2.3,Win32,60.0240096,6140b1340293f5c279c5eec1,626b377229c10585ec392f8a,626b393c856ab59e38b0bad6,,,,,,,,,,,,,,space,12.1006,3,0,3,0,1,,,,,,,,,,,,,,,,,,,,,,,,,,,,,,,,,,,,,,,,,,,,,,,,
,6140b1340293f5c279c5eec1,001,2022-04-28_19h03.11.440,classification_task,2021.2.3,Win32,60.0240096,6140b1340293f5c279c5eec1,626b377229c10585ec392f8a,626b393c856ab59e38b0bad6,,,,,,,,,,,,,,space,14.1548,4,0,4,0,1,,,,,,,,,,,,,,,,,,,,,,,,,,,,,,,,,,,,,,,,,,,,,,,,
,6140b1340293f5c279c5eec1,001,2022-04-28_19h03.11.440,classification_task,2021.2.3,Win32,60.0240096,6140b1340293f5c279c5eec1,626b377229c10585ec392f8a,626b393c856ab59e38b0bad6,,,,,,,,,,,,,,,,,,,,,space,9.0642,a,1,7.1868,"[""0.231"",""0.534"",""0.416"",""0.969""]","[1,1,0,1]",0,0,0,0,1,0,1,,,0,FALSE,,,,,,,,,,,,,,,,,,,,,,,,,,,,,,
,6140b1340293f5c279c5eec1,001,2022-04-28_19h03.11.440,classification_task,2021.2.3,Win32,60.0240096,6140b1340293f5c279c5eec1,626b377229c10585ec392f8a,626b393c856ab59e38b0bad6,,,,,,,,,,,,,,,,,,,,,,,a,1,9.9537,"[""0.308"",""0.495"",""0.373"",""0.931""]","[1,1,0,1]",0,1,1,1,1,0,0,,,0,FALSE,,,,,,,,,,,,,,,,,,,,,,,,,,,,,,
,6140b1340293f5c279c5eec1,001,2022-04-28_19h03.11.440,classification_task,2021.2.3,Win32,60.0240096,6140b1340293f5c279c5eec1,626b377229c10585ec392f8a,626b393c856ab59e38b0bad6,,,,,,,,,,,,,,,,,,,,,,,a,1,3.6455,"[""0.308"",""0.347"",""0.838"",""0.931""]","[1,0,1,1]",0,2,2,2,1,0,0,,,0,FALSE,,,,,,,,,,,,,,,,,,,,,,,,,,,,,,
,6140b1340293f5c279c5eec1,001,2022-04-28_19h03.11.440,classification_task,2021.2.3,Win32,60.0240096,6140b1340293f5c279c5eec1,626b377229c10585ec392f8a,626b393c856ab59e38b0bad6,,,,,,,,,,,,,,,,,,,,,,,a,1,8.3203,"[""0.231"",""0.534"",""0.884"",""0.740""]","[1,1,1,0]",0,3,3,3,1,0,1,,,0,FALSE,,,,,,,,,,,,,,,,,,,,,,,,,,,,,,
,6140b1340293f5c279c5eec1,001,2022-04-28_19h03.11.440,classification_task,2021.2.3,Win32,60.0240096,6140b1340293f5c279c5eec1,626b377229c10585ec392f8a,626b393c856ab59e38b0bad6,,,,,,,,,,,,,,,,,,,,,,,l,1,5.3097,"[""0.082"",""0.192"",""0.665"",""0.452""]","[1,1,1,0]",0,4,4,4,1,1,1,,,0,FALSE,,,,,,,,,,,,,,,,,,,,,,,,,,,,,,
,6140b1340293f5c279c5eec1,001,2022-04-28_19h03.11.440,classification_task,2021.2.3,Win32,60.0240096,6140b1340293f5c279c5eec1,626b377229c10585ec392f8a,626b393c856ab59e38b0bad6,,,,,,,,,,,,,,,,,,,,,,,l,1,6.0611,"[""0.082"",""0.026"",""0.665"",""0.699""]","[1,0,1,1]",0,5,5,5,1,1,1,,,0,FALSE,,,,,,,,,,,,,,,,,,,,,,,,,,,,,,
,6140b1340293f5c279c5eec1,001,2022-04-28_19h03.11.440,classification_task,2021.2.3,Win32,60.0240096,6140b1340293f5c279c5eec1,626b377229c10585ec392f8a,626b393c856ab59e38b0bad6,,,,,,,,,,,,,,,,,,,,,,,l,1,1.7278,"[""0.128"",""0.026"",""0.617"",""0.790""]","[1,0,1,1]",0,6,6,6,1,1,0,,,0,FALSE,,,,,,,,,,,,,,,,,,,,,,,,,,,,,,
,6140b1340293f5c279c5eec1,001,2022-04-28_19h03.11.440,classification_task,2021.2.3,Win32,60.0240096,6140b1340293f5c279c5eec1,626b377229c10585ec392f8a,626b393c856ab59e38b0bad6,,,,,,,,,,,,,,,,,,,,,,,a,1,5.5943,"[""0.452"",""0.495"",""0.838"",""0.931""]","[0,1,1,1]",0,7,7,7,1,0,0,,,0,FALSE,,,,,,,,,,,,,,,,,,,,,,,,,,,,,,
,6140b1340293f5c279c5eec1,001,2022-04-28_19h03.11.440,classification_task,2021.2.3,Win32,60.0240096,6140b1340293f5c279c5eec1,626b377229c10585ec392f8a,626b393c856ab59e38b0bad6,,,,,,,,,,,,,,,,,,,,,,,l,1,3.0114,"[""0.128"",""0.266"",""0.617"",""0.416""]","[1,1,1,0]",0,8,8,8,1,1,0,,,0,FALSE,,,,,,,,,,,,,,,,,,,,,,,,,,,,,,
,6140b1340293f5c279c5eec1,001,2022-04-28_19h03.11.440,classification_task,2021.2.3,Win32,60.0240096,6140b1340293f5c279c5eec1,626b377229c10585ec392f8a,626b393c856ab59e38b0bad6,,,,,,,,,,,,,,,,,,,,,,,a,1,3.1279,"[""0.231"",""0.445"",""0.884"",""0.969""]","[1,0,1,1]",0,9,9,9,1,0,1,,,0,FALSE,,,,,,,,,,,,,,,,,,,,,,,,,,,,,,
,6140b1340293f5c279c5eec1,001,2022-04-28_19h03.11.440,classification_task,2021.2.3,Win32,60.0240096,6140b1340293f5c279c5eec1,626b377229c10585ec392f8a,626b393c856ab59e38b0bad6,,,,,,,,,,,,,,,,,,,,,,,a,1,2.6926,"[""0.308"",""0.495"",""0.838"",""0.740""]","[1,1,1,0]",0,10,10,10,1,0,0,,,0,FALSE,,,,,,,,,,,,,,,,,,,,,,,,,,,,,,
,6140b1340293f5c279c5eec1,001,2022-04-28_19h03.11.440,classification_task,2021.2.3,Win32,60.0240096,6140b1340293f5c279c5eec1,626b377229c10585ec392f8a,626b393c856ab59e38b0bad6,,,,,,,,,,,,,,,,,,,,,,,l,1,2.8617,"[""0.128"",""0.266"",""0.416"",""0.790""]","[1,1,0,1]",0,11,11,11,1,1,0,,,0,FALSE,,,,,,,,,,,,,,,,,,,,,,,,,,,,,,
,6140b1340293f5c279c5eec1,001,2022-04-28_19h03.11.440,classification_task,2021.2.3,Win32,60.0240096,6140b1340293f5c279c5eec1,626b377229c10585ec392f8a,626b393c856ab59e38b0bad6,,,,,,,,,,,,,,,,,,,,,,,l,1,3.2796,"[""0.417"",""0.266"",""0.617"",""0.790""]","[0,1,1,1]",0,12,12,12,1,1,0,,,0,FALSE,,,,,,,,,,,,,,,,,,,,,,,,,,,,,,
,6140b1340293f5c279c5eec1,001,2022-04-28_19h03.11.440,classification_task,2021.2.3,Win32,60.0240096,6140b1340293f5c279c5eec1,626b377229c10585ec392f8a,626b393c856ab59e38b0bad6,,,,,,,,,,,,,,,,,,,,,,,l,1,3.1098,"[""0.452"",""0.192"",""0.665"",""0.699""]","[0,1,1,1]",0,13,13,13,1,1,1,,,0,FALSE,,,,,,,,,,,,,,,,,,,,,,,,,,,,,,
,6140b1340293f5c279c5eec1,001,2022-04-28_19h03.11.440,classification_task,2021.2.3,Win32,60.0240096,6140b1340293f5c279c5eec1,626b377229c10585ec392f8a,626b393c856ab59e38b0bad6,,,,,,,,,,,,,,,,,,,,,,,l,1,2.579,"[""0.082"",""0.192"",""0.043"",""0.699""]","[1,1,0,1]",0,14,14,14,1,1,1,,,0,FALSE,,,,,,,,,,,,,,,,,,,,,,,,,,,,,,
,6140b1340293f5c279c5eec1,001,2022-04-28_19h03.11.440,classification_task,2021.2.3,Win32,60.0240096,6140b1340293f5c279c5eec1,626b377229c10585ec392f8a,626b393c856ab59e38b0bad6,,,,,,,,,,,,,,,,,,,,,,,l,0,1.3117,"[""0.043"",""0.534"",""0.884"",""0.969""]","[0,1,1,1]",0,15,15,15,1,0,1,,,0,FALSE,,,,,,,,,,,,,,,,,,,,,,,,,,,,,,
,6140b1340293f5c279c5eec1,001,2022-04-28_19h03.11.440,classification_task,2021.2.3,Win32,60.0240096,6140b1340293f5c279c5eec1,626b377229c10585ec392f8a,626b393c856ab59e38b0bad6,,,,,,,,,,,,,,,,,,,,,,,l,1,2.7373,"[""0.400"",""0.192"",""0.665"",""0.699""]","[0,1,1,1]",0,16,16,16,1,1,1,,,0,FALSE,,,,,,,,,,,,,,,,,,,,,,,,,,,,,,
,6140b1340293f5c279c5eec1,001,2022-04-28_19h03.11.440,classification_task,2021.2.3,Win32,60.0240096,6140b1340293f5c279c5eec1,626b377229c10585ec392f8a,626b393c856ab59e38b0bad6,,,,,,,,,,,,,,,,,,,,,,,l,1,3.2118,"[""0.082"",""0.445"",""0.665"",""0.699""]","[1,0,1,1]",0,17,17,17,1,1,1,,,0,FALSE,,,,,,,,,,,,,,,,,,,,,,,,,,,,,,
,6140b1340293f5c279c5eec1,001,2022-04-28_19h03.11.440,classification_task,2021.2.3,Win32,60.0240096,6140b1340293f5c279c5eec1,626b377229c10585ec392f8a,626b393c856ab59e38b0bad6,,,,,,,,,,,,,,,,,,,,,,,a,1,4.2871,"[""0.308"",""0.495"",""0.838"",""0.438""]","[1,1,1,0]",0,18,18,18,1,0,0,,,0,FALSE,,,,,,,,,,,,,,,,,,,,,,,,,,,,,,
,6140b1340293f5c279c5eec1,001,2022-04-28_19h03.11.440,classification_task,2021.2.3,Win32,60.0240096,6140b1340293f5c279c5eec1,626b377229c10585ec392f8a,626b393c856ab59e38b0bad6,,,,,,,,,,,,,,,,,,,,,,,l,1,2.2454,"[""0.128"",""0.755"",""0.617"",""0.790""]","[1,0,1,1]",0,19,19,19,1,1,0,,,0,FALSE,,,,,,,,,,,,,,,,,,,,,,,,,,,,,,
,6140b1340293f5c279c5eec1,001,2022-04-28_19h03.11.440,classification_task,2021.2.3,Win32,60.0240096,6140b1340293f5c279c5eec1,626b377229c10585ec392f8a,626b393c856ab59e38b0bad6,,,,,,,,,,,,,,,,,,,,,,,l,1,2.1865,"[""0.082"",""0.192"",""0.416"",""0.699""]","[1,1,0,1]",0,20,20,20,1,1,1,,,0,FALSE,,,,,,,,,,,,,,,,,,,,,,,,,,,,,,
,6140b1340293f5c279c5eec1,001,2022-04-28_19h03.11.440,classification_task,2021.2.3,Win32,60.0240096,6140b1340293f5c279c5eec1,626b377229c10585ec392f8a,626b393c856ab59e38b0bad6,,,,,,,,,,,,,,,,,,,,,,,,0,,"[""0.351"",""0.495"",""0.838"",""0.931""]","[0,1,1,1]",0,21,21,21,1,0,0,,,0,FALSE,,,,,,,,,,,,,,,,,,,,,,,,,,,,,,
,6140b1340293f5c279c5eec1,001,2022-04-28_19h03.11.440,classification_task,2021.2.3,Win32,60.0240096,6140b1340293f5c279c5eec1,626b377229c10585ec392f8a,626b393c856ab59e38b0bad6,,,,,,,,,,,,,,,,,,,,,,,a,1,2.262,"[""0.308"",""0.495"",""0.740"",""0.931""]","[1,1,0,1]",0,22,22,22,1,0,0,,,0,FALSE,,,,,,,,,,,,,,,,,,,,,,,,,,,,,,
,6140b1340293f5c279c5eec1,001,2022-04-28_19h03.11.440,classification_task,2021.2.3,Win32,60.0240096,6140b1340293f5c279c5eec1,626b377229c10585ec392f8a,626b393c856ab59e38b0bad6,,,,,,,,,,,,,,,,,,,,,,,l,1,2.154,"[""0.128"",""0.266"",""0.351"",""0.790""]","[1,1,0,1]",0,23,23,23,1,1,0,,,0,FALSE,,,,,,,,,,,,,,,,,,,,,,,,,,,,,,
,6140b1340293f5c279c5eec1,001,2022-04-28_19h03.11.440,classification_task,2021.2.3,Win32,60.0240096,6140b1340293f5c279c5eec1,626b377229c10585ec392f8a,626b393c856ab59e38b0bad6,,,,,,,,,,,,,,,,,,,,,,,a,1,2.362,"[""0.308"",""0.416"",""0.838"",""0.931""]","[1,0,1,1]",0,24,24,24,1,0,0,,,0,FALSE,,,,,,,,,,,,,,,,,,,,,,,,,,,,,,
,6140b1340293f5c279c5eec1,001,2022-04-28_19h03.11.440,classification_task,2021.2.3,Win32,60.0240096,6140b1340293f5c279c5eec1,626b377229c10585ec392f8a,626b393c856ab59e38b0bad6,,,,,,,,,,,,,,,,,,,,,,,a,0,1.1011,"[""0.347"",""0.266"",""0.617"",""0.790""]","[0,1,1,1]",0,25,25,25,1,1,0,,,0,FALSE,,,,,,,,,,,,,,,,,,,,,,,,,,,,,,
,6140b1340293f5c279c5eec1,001,2022-04-28_19h03.11.440,classification_task,2021.2.3,Win32,60.0240096,6140b1340293f5c279c5eec1,626b377229c10585ec392f8a,626b393c856ab59e38b0bad6,,,,,,,,,,,,,,,,,,,,,,,a,1,2.1541,"[""0.231"",""0.534"",""0.445"",""0.969""]","[1,1,0,1]",0,26,26,26,1,0,1,,,0,FALSE,,,,,,,,,,,,,,,,,,,,,,,,,,,,,,
,6140b1340293f5c279c5eec1,001,2022-04-28_19h03.11.440,classification_task,2021.2.3,Win32,60.0240096,6140b1340293f5c279c5eec1,626b377229c10585ec392f8a,626b393c856ab59e38b0bad6,,,,,,,,,,,,,,,,,,,,,,,l,1,2.8429,"[""0.082"",""0.192"",""0.665"",""0.400""]","[1,1,1,0]",0,27,27,27,1,1,1,,,0,FALSE,,,,,,,,,,,,,,,,,,,,,,,,,,,,,,
,6140b1340293f5c279c5eec1,001,2022-04-28_19h03.11.440,classification_task,2021.2.3,Win32,60.0240096,6140b1340293f5c279c5eec1,626b377229c10585ec392f8a,626b393c856ab59e38b0bad6,,,,,,,,,,,,,,,,,,,,,,,a,1,4.7536,"[""0.231"",""0.026"",""0.884"",""0.969""]","[1,0,1,1]",0,28,28,28,1,0,1,,,0,FALSE,,,,,,,,,,,,,,,,,,,,,,,,,,,,,,
,6140b1340293f5c279c5eec1,001,2022-04-28_19h03.11.440,classification_task,2021.2.3,Win32,60.0240096,6140b1340293f5c279c5eec1,626b377229c10585ec392f8a,626b393c856ab59e38b0bad6,,,,,,,,,,,,,,,,,,,,,,,a,1,1.7704,"[""0.231"",""0.534"",""0.884"",""0.043""]","[1,1,1,0]",0,29,29,29,1,0,1,,,0,FALSE,,,,,,,,,,,,,,,,,,,,,,,,,,,,,,
,6140b1340293f5c279c5eec1,001,2022-04-28_19h03.11.440,classification_task,2021.2.3,Win32,60.0240096,6140b1340293f5c279c5eec1,626b377229c10585ec392f8a,626b393c856ab59e38b0bad6,,,,,,,,,,,,,,,,,,,,,,,l,1,2.2009,"[""0.128"",""0.266"",""0.617"",""0.026""]","[1,1,1,0]",0,30,30,30,1,1,0,,,0,FALSE,,,,,,,,,,,,,,,,,,,,,,,,,,,,,,
,6140b1340293f5c279c5eec1,001,2022-04-28_19h03.11.440,classification_task,2021.2.3,Win32,60.0240096,6140b1340293f5c279c5eec1,626b377229c10585ec392f8a,626b393c856ab59e38b0bad6,,,,,,,,,,,,,,,,,,,,,,,a,1,5.9431,"[""0.347"",""0.534"",""0.884"",""0.969""]","[0,1,1,1]",0,31,31,31,1,0,1,,,0,FALSE,,,,,,,,,,,,,,,,,,,,,,,,,,,,,,
,6140b1340293f5c279c5eec1,001,2022-04-28_19h03.11.440,classification_task,2021.2.3,Win32,60.0240096,6140b1340293f5c279c5eec1,626b377229c10585ec392f8a,626b393c856ab59e38b0bad6,,,,,,,,,,,,,,,,,,,,,,,a,1,4.2428,"[""0.308"",""0.495"",""0.838"",""0.452""]","[1,1,1,0]",0,32,32,32,1,0,0,,,0,FALSE,,,,,,,,,,,,,,,,,,,,,,,,,,,,,,
,6140b1340293f5c279c5eec1,001,2022-04-28_19h03.11.440,classification_task,2021.2.3,Win32,60.0240096,6140b1340293f5c279c5eec1,626b377229c10585ec392f8a,626b393c856ab59e38b0bad6,,,,,,,,,,,,,,,,,,,,,,,a,1,1.9288,"[""0.231"",""0.534"",""0.884"",""0.351""]","[1,1,1,0]",0,33,33,33,1,0,1,,,0,FALSE,,,,,,,,,,,,,,,,,,,,,,,,,,,,,,
,6140b1340293f5c279c5eec1,001,2022-04-28_19h03.11.440,classification_task,2021.2.3,Win32,60.0240096,6140b1340293f5c279c5eec1,626b377229c10585ec392f8a,626b393c856ab59e38b0bad6,,,,,,,,,,,,,,,,,,,,,,,a,1,1.3674,"[""0.231"",""0.445"",""0.884"",""0.969""]","[1,0,1,1]",0,34,34,34,1,0,1,,,0,FALSE,,,,,,,,,,,,,,,,,,,,,,,,,,,,,,
,6140b1340293f5c279c5eec1,001,2022-04-28_19h03.11.440,classification_task,2021.2.3,Win32,60.0240096,6140b1340293f5c279c5eec1,626b377229c10585ec392f8a,626b393c856ab59e38b0bad6,,,,,,,,,,,,,,,,,,,,,,,a,1,1.8785,"[""0.308"",""0.416"",""0.838"",""0.931""]","[1,0,1,1]",0,35,35,35,1,0,0,,,0,FALSE,,,,,,,,,,,,,,,,,,,,,,,,,,,,,,
,6140b1340293f5c279c5eec1,001,2022-04-28_19h03.11.440,classification_task,2021.2.3,Win32,60.0240096,6140b1340293f5c279c5eec1,626b377229c10585ec392f8a,626b393c856ab59e38b0bad6,,,,,,,,,,,,,,,,,,,,,,,l,1,1.4179,"[""0.082"",""0.400"",""0.665"",""0.699""]","[1,0,1,1]",0,36,36,36,1,1,1,,,0,FALSE,,,,,,,,,,,,,,,,,,,,,,,,,,,,,,
,6140b1340293f5c279c5eec1,001,2022-04-28_19h03.11.440,classification_task,2021.2.3,Win32,60.0240096,6140b1340293f5c279c5eec1,626b377229c10585ec392f8a,626b393c856ab59e38b0bad6,,,,,,,,,,,,,,,,,,,,,,,a,1,1.101,"[""0.231"",""0.534"",""0.417"",""0.969""]","[1,1,0,1]",0,37,37,37,1,0,1,,,0,FALSE,,,,,,,,,,,,,,,,,,,,,,,,,,,,,,
,6140b1340293f5c279c5eec1,001,2022-04-28_19h03.11.440,classification_task,2021.2.3,Win32,60.0240096,6140b1340293f5c279c5eec1,626b377229c10585ec392f8a,626b393c856ab59e38b0bad6,,,,,,,,,,,,,,,,,,,,,,,a,1,1.9176,"[""0.452"",""0.534"",""0.884"",""0.969""]","[0,1,1,1]",0,38,38,38,1,0,1,,,0,FALSE,,,,,,,,,,,,,,,,,,,,,,,,,,,,,,
,6140b1340293f5c279c5eec1,001,2022-04-28_19h03.11.440,classification_task,2021.2.3,Win32,60.0240096,6140b1340293f5c279c5eec1,626b377229c10585ec392f8a,626b393c856ab59e38b0bad6,,,,,,,,,,,,,,,,,,,,,,,l,0,1.0872,"[""0.043"",""0.495"",""0.838"",""0.931""]","[0,1,1,1]",0,39,39,39,1,0,0,,,0,FALSE,,,,,,,,,,,,,,,,,,,,,,,,,,,,,,
,6140b1340293f5c279c5eec1,001,2022-04-28_19h03.11.440,classification_task,2021.2.3,Win32,60.0240096,6140b1340293f5c279c5eec1,626b377229c10585ec392f8a,626b393c856ab59e38b0bad6,,,,,,,,,,,,,,,,,,,,,,,l,1,1.4015,"[""0.082"",""0.192"",""0.740"",""0.699""]","[1,1,0,1]",0,40,40,40,1,1,1,,,0,FALSE,,,,,,,,,,,,,,,,,,,,,,,,,,,,,,
,6140b1340293f5c279c5eec1,001,2022-04-28_19h03.11.440,classification_task,2021.2.3,Win32,60.0240096,6140b1340293f5c279c5eec1,626b377229c10585ec392f8a,626b393c856ab59e38b0bad6,,,,,,,,,,,,,,,,,,,,,,,l,1,1.817,"[""0.128"",""0.266"",""0.347"",""0.790""]","[1,1,0,1]",0,41,41,41,1,1,0,,,0,FALSE,,,,,,,,,,,,,,,,,,,,,,,,,,,,,,
,6140b1340293f5c279c5eec1,001,2022-04-28_19h03.11.440,classification_task,2021.2.3,Win32,60.0240096,6140b1340293f5c279c5eec1,626b377229c10585ec392f8a,626b393c856ab59e38b0bad6,,,,,,,,,,,,,,,,,,,,,,,l,1,2.2341,"[""0.082"",""0.192"",""0.665"",""0.452""]","[1,1,1,0]",0,42,42,42,1,1,1,,,0,FALSE,,,,,,,,,,,,,,,,,,,,,,,,,,,,,,
,6140b1340293f5c279c5eec1,001,2022-04-28_19h03.11.440,classification_task,2021.2.3,Win32,60.0240096,6140b1340293f5c279c5eec1,626b377229c10585ec392f8a,626b393c856ab59e38b0bad6,,,,,,,,,,,,,,,,,,,,,,,l,0,1.3454,"[""0.308"",""0.495"",""0.026"",""0.931""]","[1,1,0,1]",0,43,43,43,1,0,0,,,0,FALSE,,,,,,,,,,,,,,,,,,,,,,,,,,,,,,
,6140b1340293f5c279c5eec1,001,2022-04-28_19h03.11.440,classification_task,2021.2.3,Win32,60.0240096,6140b1340293f5c279c5eec1,626b377229c10585ec392f8a,626b393c856ab59e38b0bad6,,,,,,,,,,,,,,,,,,,,,,,l,1,1.0842,"[""0.128"",""0.266"",""0.617"",""0.755""]","[1,1,1,0]",0,44,44,44,1,1,0,,,0,FALSE,,,,,,,,,,,,,,,,,,,,,,,,,,,,,,
,6140b1340293f5c279c5eec1,001,2022-04-28_19h03.11.440,classification_task,2021.2.3,Win32,60.0240096,6140b1340293f5c279c5eec1,626b377229c10585ec392f8a,626b393c856ab59e38b0bad6,,,,,,,,,,,,,,,,,,,,,,,l,1,0.8676,"[""0.128"",""0.737"",""0.617"",""0.790""]","[1,0,1,1]",0,45,45,45,1,1,0,,,0,FALSE,,,,,,,,,,,,,,,,,,,,,,,,,,,,,,
,6140b1340293f5c279c5eec1,001,2022-04-28_19h03.11.440,classification_task,2021.2.3,Win32,60.0240096,6140b1340293f5c279c5eec1,626b377229c10585ec392f8a,626b393c856ab59e38b0bad6,,,,,,,,,,,,,,,,,,,,,,,l,1,1.8675,"[""0.452"",""0.192"",""0.665"",""0.699""]","[0,1,1,1]",0,46,46,46,1,1,1,,,0,FALSE,,,,,,,,,,,,,,,,,,,,,,,,,,,,,,
,6140b1340293f5c279c5eec1,001,2022-04-28_19h03.11.440,classification_task,2021.2.3,Win32,60.0240096,6140b1340293f5c279c5eec1,626b377229c10585ec392f8a,626b393c856ab59e38b0bad6,,,,,,,,,,,,,,,,,,,,,,,a,0,2.9626,"[""0.026"",""0.266"",""0.617"",""0.790""]","[0,1,1,1]",0,47,47,47,1,1,0,,,0,FALSE,,,,,,,,,,,,,,,,,,,,,,,,,,,,,,
,6140b1340293f5c279c5eec1,001,2022-04-28_19h03.11.440,classification_task,2021.2.3,Win32,60.0240096,6140b1340293f5c279c5eec1,626b377229c10585ec392f8a,626b393c856ab59e38b0bad6,,,,,,,,,,,,,,,,,,,,,,,l,1,0.9462,"[""0.128"",""0.266"",""0.617"",""0.351""]","[1,1,1,0]",0,48,48,48,1,1,0,,,0,FALSE,,,,,,,,,,,,,,,,,,,,,,,,,,,,,,
,6140b1340293f5c279c5eec1,001,2022-04-28_19h03.11.440,classification_task,2021.2.3,Win32,60.0240096,6140b1340293f5c279c5eec1,626b377229c10585ec392f8a,626b393c856ab59e38b0bad6,,,,,,,,,,,,,,,,,,,,,,,a,1,4.8206,"[""0.347"",""0.534"",""0.884"",""0.969""]","[0,1,1,1]",0,49,49,49,1,0,1,,,0,FALSE,,,,,,,,,,,,,,,,,,,,,,,,,,,,,,
,6140b1340293f5c279c5eec1,001,2022-04-28_19h03.11.440,classification_task,2021.2.3,Win32,60.0240096,6140b1340293f5c279c5eec1,626b377229c10585ec392f8a,626b393c856ab59e38b0bad6,,,,,,,,,,,,,,,,,,,,,,,a,1,1.5457,"[""0.231"",""0.026"",""0.884"",""0.969""]","[1,0,1,1]",0,50,50,50,1,0,1,,,0,FALSE,,,,,,,,,,,,,,,,,,,,,,,,,,,,,,
,6140b1340293f5c279c5eec1,001,2022-04-28_19h03.11.440,classification_task,2021.2.3,Win32,60.0240096,6140b1340293f5c279c5eec1,626b377229c10585ec392f8a,626b393c856ab59e38b0bad6,,,,,,,,,,,,,,,,,,,,,,,a,1,1.5787,"[""0.308"",""0.755"",""0.838"",""0.931""]","[1,0,1,1]",0,51,51,51,1,0,0,,,0,FALSE,,,,,,,,,,,,,,,,,,,,,,,,,,,,,,
,6140b1340293f5c279c5eec1,001,2022-04-28_19h03.11.440,classification_task,2021.2.3,Win32,60.0240096,6140b1340293f5c279c5eec1,626b377229c10585ec392f8a,626b393c856ab59e38b0bad6,,,,,,,,,,,,,,,,,,,,,,,l,1,1.834,"[""0.128"",""0.266"",""0.740"",""0.790""]","[1,1,0,1]",0,52,52,52,1,1,0,,,0,FALSE,,,,,,,,,,,,,,,,,,,,,,,,,,,,,,
,6140b1340293f5c279c5eec1,001,2022-04-28_19h03.11.440,classification_task,2021.2.3,Win32,60.0240096,6140b1340293f5c279c5eec1,626b377229c10585ec392f8a,626b393c856ab59e38b0bad6,,,,,,,,,,,,,,,,,,,,,,,l,0,1.3176,"[""0.308"",""0.495"",""0.026"",""0.931""]","[1,1,0,1]",0,53,53,53,1,0,0,,,0,FALSE,,,,,,,,,,,,,,,,,,,,,,,,,,,,,,
,6140b1340293f5c279c5eec1,001,2022-04-28_19h03.11.440,classification_task,2021.2.3,Win32,60.0240096,6140b1340293f5c279c5eec1,626b377229c10585ec392f8a,626b393c856ab59e38b0bad6,,,,,,,,,,,,,,,,,,,,,,,l,1,1.4295,"[""0.082"",""0.192"",""0.417"",""0.699""]","[1,1,0,1]",0,54,54,54,1,1,1,,,0,FALSE,,,,,,,,,,,,,,,,,,,,,,,,,,,,,,
,6140b1340293f5c279c5eec1,001,2022-04-28_19h03.11.440,classification_task,2021.2.3,Win32,60.0240096,6140b1340293f5c279c5eec1,626b377229c10585ec392f8a,626b393c856ab59e38b0bad6,,,,,,,,,,,,,,,,,,,,,,,l,1,4.3248,"[""0.740"",""0.266"",""0.617"",""0.790""]","[0,1,1,1]",0,55,55,55,1,1,0,,,0,FALSE,,,,,,,,,,,,,,,,,,,,,,,,,,,,,,
,6140b1340293f5c279c5eec1,001,2022-04-28_19h03.11.440,classification_task,2021.2.3,Win32,60.0240096,6140b1340293f5c279c5eec1,626b377229c10585ec392f8a,626b393c856ab59e38b0bad6,,,,,,,,,,,,,,,,,,,,,,,a,1,1.3039,"[""0.308"",""0.495"",""0.838"",""0.417""]","[1,1,1,0]",0,56,56,56,1,0,0,,,0,FALSE,,,,,,,,,,,,,,,,,,,,,,,,,,,,,,
,6140b1340293f5c279c5eec1,001,2022-04-28_19h03.11.440,classification_task,2021.2.3,Win32,60.0240096,6140b1340293f5c279c5eec1,626b377229c10585ec392f8a,626b393c856ab59e38b0bad6,,,,,,,,,,,,,,,,,,,,,,,l,1,1.5511,"[""0.082"",""0.452"",""0.665"",""0.699""]","[1,0,1,1]",0,57,57,57,1,1,1,,,0,FALSE,,,,,,,,,,,,,,,,,,,,,,,,,,,,,,
,6140b1340293f5c279c5eec1,001,2022-04-28_19h03.11.440,classification_task,2021.2.3,Win32,60.0240096,6140b1340293f5c279c5eec1,626b377229c10585ec392f8a,626b393c856ab59e38b0bad6,,,,,,,,,,,,,,,,,,,,,,,l,0,2.5509,"[""0.043"",""0.495"",""0.838"",""0.931""]","[0,1,1,1]",0,58,58,58,1,0,0,,,0,FALSE,,,,,,,,,,,,,,,,,,,,,,,,,,,,,,
,6140b1340293f5c279c5eec1,001,2022-04-28_19h03.11.440,classification_task,2021.2.3,Win32,60.0240096,6140b1340293f5c279c5eec1,626b377229c10585ec392f8a,626b393c856ab59e38b0bad6,,,,,,,,,,,,,,,,,,,,,,,l,1,1.6788,"[""0.082"",""0.192"",""0.665"",""0.043""]","[1,1,1,0]",0,59,59,59,1,1,1,,,0,FALSE,,,,,,,,,,,,,,,,,,,,,,,,,,,,,,
,6140b1340293f5c279c5eec1,001,2022-04-28_19h03.11.440,classification_task,2021.2.3,Win32,60.0240096,6140b1340293f5c279c5eec1,626b377229c10585ec392f8a,626b393c856ab59e38b0bad6,,,,,,,,,,,,,,,,,,,,,,,l,1,1.5345,"[""0.755"",""0.192"",""0.665"",""0.699""]","[0,1,1,1]",0,60,60,60,1,1,1,,,0,FALSE,,,,,,,,,,,,,,,,,,,,,,,,,,,,,,
,6140b1340293f5c279c5eec1,001,2022-04-28_19h03.11.440,classification_task,2021.2.3,Win32,60.0240096,6140b1340293f5c279c5eec1,626b377229c10585ec392f8a,626b393c856ab59e38b0bad6,,,,,,,,,,,,,,,,,,,,,,,l,1,1.0515,"[""0.128"",""0.400"",""0.617"",""0.790""]","[1,0,1,1]",0,61,61,61,1,1,0,,,0,FALSE,,,,,,,,,,,,,,,,,,,,,,,,,,,,,,
,6140b1340293f5c279c5eec1,001,2022-04-28_19h03.11.440,classification_task,2021.2.3,Win32,60.0240096,6140b1340293f5c279c5eec1,626b377229c10585ec392f8a,626b393c856ab59e38b0bad6,,,,,,,,,,,,,,,,,,,,,,,l,0,2.4206,"[""0.231"",""0.534"",""0.884"",""0.416""]","[1,1,1,0]",0,62,62,62,1,0,1,,,0,FALSE,,,,,,,,,,,,,,,,,,,,,,,,,,,,,,
,6140b1340293f5c279c5eec1,001,2022-04-28_19h03.11.440,classification_task,2021.2.3,Win32,60.0240096,6140b1340293f5c279c5eec1,626b377229c10585ec392f8a,626b393c856ab59e38b0bad6,,,,,,,,,,,,,,,,,,,,,,,a,1,1.0291,"[""0.231"",""0.534"",""0.452"",""0.969""]","[1,1,0,1]",0,63,63,63,1,0,1,,,0,FALSE,,,,,,,,,,,,,,,,,,,,,,,,,,,,,,
,6140b1340293f5c279c5eec1,001,2022-04-28_19h03.11.440,classification_task,2021.2.3,Win32,60.0240096,6140b1340293f5c279c5eec1,626b377229c10585ec392f8a,626b393c856ab59e38b0bad6,,,,,,,,,,,,,,,,,,,,,,,,,,,,,,,,,,,,,,,0, ,,0,8.845776994,425.2764,0,0,0,0,1,2,1,,,,,,,,,,,,,,,,,
,6140b1340293f5c279c5eec1,001,2022-04-28_19h03.11.440,classification_task,2021.2.3,Win32,60.0240096,6140b1340293f5c279c5eec1,626b377229c10585ec392f8a,626b393c856ab59e38b0bad6,,,,,,,,,,,,,,,,,,,,,,,,,,,,,,,,,,,,,,,1,  ,,0,7.621007251,426.6737,0,0,0,0,1,2,1,,,,,,,,,,,,,,,,,
,6140b1340293f5c279c5eec1,001,2022-04-28_19h03.11.440,classification_task,2021.2.3,Win32,60.0240096,6140b1340293f5c279c5eec1,626b377229c10585ec392f8a,626b393c856ab59e38b0bad6,,,,,,,,,,,,,,,,,,,,,,,,,,,,,,,,,,,,,,,2,  ,,0,2.574955908,439.8558,0,0,0,0,1,2,1,,,,,,,,,,,,,,,,,
,6140b1340293f5c279c5eec1,001,2022-04-28_19h03.11.440,classification_task,2021.2.3,Win32,60.0240096,6140b1340293f5c279c5eec1,626b377229c10585ec392f8a,626b393c856ab59e38b0bad6,,,,,,,,,,,,,,,,,,,,,,,,,,,,,,,,,,,,,,,,,,,,,0,0,0,0,1,,1,,,,,,,,,,,,,,,,,
,6140b1340293f5c279c5eec1,001,2022-04-28_19h03.11.440,classification_task,2021.2.3,Win32,60.0240096,6140b1340293f5c279c5eec1,626b377229c10585ec392f8a,626b393c856ab59e38b0bad6,,,,,,,,,,,,,,,,,,,,,space,10.4074,,0,,"[""0.308"",""0.495"",""0.740"",""0.931""]","[1,1,0,1]",0,0,0,0,1,0,0,,,0,FALSE,,,,,,,,,,,,,,,,,,,,,,,,,,,,,,
,6140b1340293f5c279c5eec1,001,2022-04-28_19h03.11.440,classification_task,2021.2.3,Win32,60.0240096,6140b1340293f5c279c5eec1,626b377229c10585ec392f8a,626b393c856ab59e38b0bad6,,,,,,,,,,,,,,,,,,,,,,,a,1,2.3096,"[""0.308"",""0.495"",""0.838"",""0.452""]","[1,1,1,0]",0,1,1,1,1,0,0,,,0,FALSE,,,,,,,,,,,,,,,,,,,,,,,,,,,,,,
,6140b1340293f5c279c5eec1,001,2022-04-28_19h03.11.440,classification_task,2021.2.3,Win32,60.0240096,6140b1340293f5c279c5eec1,626b377229c10585ec392f8a,626b393c856ab59e38b0bad6,,,,,,,,,,,,,,,,,,,,,,,a,1,2.9178,"[""0.740"",""0.495"",""0.838"",""0.931""]","[0,1,1,1]",0,2,2,2,1,0,0,,,0,FALSE,,,,,,,,,,,,,,,,,,,,,,,,,,,,,,
,6140b1340293f5c279c5eec1,001,2022-04-28_19h03.11.440,classification_task,2021.2.3,Win32,60.0240096,6140b1340293f5c279c5eec1,626b377229c10585ec392f8a,626b393c856ab59e38b0bad6,,,,,,,,,,,,,,,,,,,,,,,l,1,1.5591,"[""0.082"",""0.192"",""0.438"",""0.699""]","[1,1,0,1]",0,3,3,3,1,1,1,,,0,FALSE,,,,,,,,,,,,,,,,,,,,,,,,,,,,,,
,6140b1340293f5c279c5eec1,001,2022-04-28_19h03.11.440,classification_task,2021.2.3,Win32,60.0240096,6140b1340293f5c279c5eec1,626b377229c10585ec392f8a,626b393c856ab59e38b0bad6,,,,,,,,,,,,,,,,,,,,,,,l,1,1.4332,"[""0.082"",""0.347"",""0.665"",""0.699""]","[1,0,1,1]",0,4,4,4,1,1,1,,,0,FALSE,,,,,,,,,,,,,,,,,,,,,,,,,,,,,,
,6140b1340293f5c279c5eec1,001,2022-04-28_19h03.11.440,classification_task,2021.2.3,Win32,60.0240096,6140b1340293f5c279c5eec1,626b377229c10585ec392f8a,626b393c856ab59e38b0bad6,,,,,,,,,,,,,,,,,,,,,,,l,0,2.8942,"[""0.231"",""0.755"",""0.884"",""0.969""]","[1,0,1,1]",0,5,5,5,1,0,1,,,0,FALSE,,,,,,,,,,,,,,,,,,,,,,,,,,,,,,
,6140b1340293f5c279c5eec1,001,2022-04-28_19h03.11.440,classification_task,2021.2.3,Win32,60.0240096,6140b1340293f5c279c5eec1,626b377229c10585ec392f8a,626b393c856ab59e38b0bad6,,,,,,,,,,,,,,,,,,,,,,,l,1,2.6039,"[""0.452"",""0.266"",""0.617"",""0.790""]","[0,1,1,1]",0,6,6,6,1,1,0,,,0,FALSE,,,,,,,,,,,,,,,,,,,,,,,,,,,,,,
,6140b1340293f5c279c5eec1,001,2022-04-28_19h03.11.440,classification_task,2021.2.3,Win32,60.0240096,6140b1340293f5c279c5eec1,626b377229c10585ec392f8a,626b393c856ab59e38b0bad6,,,,,,,,,,,,,,,,,,,,,,,l,1,0.6674,"[""0.128"",""0.452"",""0.617"",""0.790""]","[1,0,1,1]",0,7,7,7,1,1,0,,,0,FALSE,,,,,,,,,,,,,,,,,,,,,,,,,,,,,,
,6140b1340293f5c279c5eec1,001,2022-04-28_19h03.11.440,classification_task,2021.2.3,Win32,60.0240096,6140b1340293f5c279c5eec1,626b377229c10585ec392f8a,626b393c856ab59e38b0bad6,,,,,,,,,,,,,,,,,,,,,,,l,1,1.9004,"[""0.417"",""0.192"",""0.665"",""0.699""]","[0,1,1,1]",0,8,8,8,1,1,1,,,0,FALSE,,,,,,,,,,,,,,,,,,,,,,,,,,,,,,
,6140b1340293f5c279c5eec1,001,2022-04-28_19h03.11.440,classification_task,2021.2.3,Win32,60.0240096,6140b1340293f5c279c5eec1,626b377229c10585ec392f8a,626b393c856ab59e38b0bad6,,,,,,,,,,,,,,,,,,,,,,,a,1,2.9203,"[""0.452"",""0.534"",""0.884"",""0.969""]","[0,1,1,1]",0,9,9,9,1,0,1,,,0,FALSE,,,,,,,,,,,,,,,,,,,,,,,,,,,,,,
,6140b1340293f5c279c5eec1,001,2022-04-28_19h03.11.440,classification_task,2021.2.3,Win32,60.0240096,6140b1340293f5c279c5eec1,626b377229c10585ec392f8a,626b393c856ab59e38b0bad6,,,,,,,,,,,,,,,,,,,,,,,l,1,1.6763,"[""0.128"",""0.266"",""0.617"",""0.438""]","[1,1,1,0]",0,10,10,10,1,1,0,,,0,FALSE,,,,,,,,,,,,,,,,,,,,,,,,,,,,,,
,6140b1340293f5c279c5eec1,001,2022-04-28_19h03.11.440,classification_task,2021.2.3,Win32,60.0240096,6140b1340293f5c279c5eec1,626b377229c10585ec392f8a,626b393c856ab59e38b0bad6,,,,,,,,,,,,,,,,,,,,,,,l,0,2.2334,"[""0.231"",""0.534"",""0.755"",""0.969""]","[1,1,0,1]",0,11,11,11,1,0,1,,,0,FALSE,,,,,,,,,,,,,,,,,,,,,,,,,,,,,,
,6140b1340293f5c279c5eec1,001,2022-04-28_19h03.11.440,classification_task,2021.2.3,Win32,60.0240096,6140b1340293f5c279c5eec1,626b377229c10585ec392f8a,626b393c856ab59e38b0bad6,,,,,,,,,,,,,,,,,,,,,,,a,1,1.3117,"[""0.231"",""0.534"",""0.884"",""0.438""]","[1,1,1,0]",0,12,12,12,1,0,1,,,0,FALSE,,,,,,,,,,,,,,,,,,,,,,,,,,,,,,
,6140b1340293f5c279c5eec1,001,2022-04-28_19h03.11.440,classification_task,2021.2.3,Win32,60.0240096,6140b1340293f5c279c5eec1,626b377229c10585ec392f8a,626b393c856ab59e38b0bad6,,,,,,,,,,,,,,,,,,,,,,,l,1,1.0338,"[""0.082"",""0.192"",""0.665"",""0.043""]","[1,1,1,0]",0,13,13,13,1,1,1,,,0,FALSE,,,,,,,,,,,,,,,,,,,,,,,,,,,,,,
,6140b1340293f5c279c5eec1,001,2022-04-28_19h03.11.440,classification_task,2021.2.3,Win32,60.0240096,6140b1340293f5c279c5eec1,626b377229c10585ec392f8a,626b393c856ab59e38b0bad6,,,,,,,,,,,,,,,,,,,,,,,l,1,1.2841,"[""0.128"",""0.266"",""0.755"",""0.790""]","[1,1,0,1]",0,14,14,14,1,1,0,,,0,FALSE,,,,,,,,,,,,,,,,,,,,,,,,,,,,,,
,6140b1340293f5c279c5eec1,001,2022-04-28_19h03.11.440,classification_task,2021.2.3,Win32,60.0240096,6140b1340293f5c279c5eec1,626b377229c10585ec392f8a,626b393c856ab59e38b0bad6,,,,,,,,,,,,,,,,,,,,,,,a,1,1.7179,"[""0.308"",""0.367"",""0.838"",""0.931""]","[1,0,1,1]",0,15,15,15,1,0,0,,,0,FALSE,,,,,,,,,,,,,,,,,,,,,,,,,,,,,,
,6140b1340293f5c279c5eec1,001,2022-04-28_19h03.11.440,classification_task,2021.2.3,Win32,60.0240096,6140b1340293f5c279c5eec1,626b377229c10585ec392f8a,626b393c856ab59e38b0bad6,,,,,,,,,,,,,,,,,,,,,,,l,1,1.1341,"[""0.082"",""0.192"",""0.026"",""0.699""]","[1,1,0,1]",0,16,16,16,1,1,1,,,0,FALSE,,,,,,,,,,,,,,,,,,,,,,,,,,,,,,
,6140b1340293f5c279c5eec1,001,2022-04-28_19h03.11.440,classification_task,2021.2.3,Win32,60.0240096,6140b1340293f5c279c5eec1,626b377229c10585ec392f8a,626b393c856ab59e38b0bad6,,,,,,,,,,,,,,,,,,,,,,,a,1,2.2538,"[""0.347"",""0.534"",""0.884"",""0.969""]","[0,1,1,1]",0,17,17,17,1,0,1,,,0,FALSE,,,,,,,,,,,,,,,,,,,,,,,,,,,,,,
,6140b1340293f5c279c5eec1,001,2022-04-28_19h03.11.440,classification_task,2021.2.3,Win32,60.0240096,6140b1340293f5c279c5eec1,626b377229c10585ec392f8a,626b393c856ab59e38b0bad6,,,,,,,,,,,,,,,,,,,,,,,a,1,1.3772,"[""0.231"",""0.534"",""0.884"",""0.452""]","[1,1,1,0]",0,18,18,18,1,0,1,,,0,FALSE,,,,,,,,,,,,,,,,,,,,,,,,,,,,,,
,6140b1340293f5c279c5eec1,001,2022-04-28_19h03.11.440,classification_task,2021.2.3,Win32,60.0240096,6140b1340293f5c279c5eec1,626b377229c10585ec392f8a,626b393c856ab59e38b0bad6,,,,,,,,,,,,,,,,,,,,,,,l,1,0.7841,"[""0.128"",""0.266"",""0.617"",""0.445""]","[1,1,1,0]",0,19,19,19,1,1,0,,,0,FALSE,,,,,,,,,,,,,,,,,,,,,,,,,,,,,,
,6140b1340293f5c279c5eec1,001,2022-04-28_19h03.11.440,classification_task,2021.2.3,Win32,60.0240096,6140b1340293f5c279c5eec1,626b377229c10585ec392f8a,626b393c856ab59e38b0bad6,,,,,,,,,,,,,,,,,,,,,,,a,1,1.0347,"[""0.308"",""0.417"",""0.838"",""0.931""]","[1,0,1,1]",0,20,20,20,1,0,0,,,0,FALSE,,,,,,,,,,,,,,,,,,,,,,,,,,,,,,
,6140b1340293f5c279c5eec1,001,2022-04-28_19h03.11.440,classification_task,2021.2.3,Win32,60.0240096,6140b1340293f5c279c5eec1,626b377229c10585ec392f8a,626b393c856ab59e38b0bad6,,,,,,,,,,,,,,,,,,,,,,,l,1,0.7174,"[""0.128"",""0.266"",""0.043"",""0.790""]","[1,1,0,1]",0,21,21,21,1,1,0,,,0,FALSE,,,,,,,,,,,,,,,,,,,,,,,,,,,,,,
,6140b1340293f5c279c5eec1,001,2022-04-28_19h03.11.440,classification_task,2021.2.3,Win32,60.0240096,6140b1340293f5c279c5eec1,626b377229c10585ec392f8a,626b393c856ab59e38b0bad6,,,,,,,,,,,,,,,,,,,,,,,l,1,1.1843,"[""0.128"",""0.755"",""0.617"",""0.790""]","[1,0,1,1]",0,22,22,22,1,1,0,,,0,FALSE,,,,,,,,,,,,,,,,,,,,,,,,,,,,,,
,6140b1340293f5c279c5eec1,001,2022-04-28_19h03.11.440,classification_task,2021.2.3,Win32,60.0240096,6140b1340293f5c279c5eec1,626b377229c10585ec392f8a,626b393c856ab59e38b0bad6,,,,,,,,,,,,,,,,,,,,,,,a,1,0.7342,"[""0.308"",""0.495"",""0.838"",""0.737""]","[1,1,1,0]",0,23,23,23,1,0,0,,,0,FALSE,,,,,,,,,,,,,,,,,,,,,,,,,,,,,,
,6140b1340293f5c279c5eec1,001,2022-04-28_19h03.11.440,classification_task,2021.2.3,Win32,60.0240096,6140b1340293f5c279c5eec1,626b377229c10585ec392f8a,626b393c856ab59e38b0bad6,,,,,,,,,,,,,,,,,,,,,,,a,1,1.1848,"[""0.308"",""0.495"",""0.373"",""0.931""]","[1,1,0,1]",0,24,24,24,1,0,0,,,0,FALSE,,,,,,,,,,,,,,,,,,,,,,,,,,,,,,
,6140b1340293f5c279c5eec1,001,2022-04-28_19h03.11.440,classification_task,2021.2.3,Win32,60.0240096,6140b1340293f5c279c5eec1,626b377229c10585ec392f8a,626b393c856ab59e38b0bad6,,,,,,,,,,,,,,,,,,,,,,,l,1,1.184,"[""0.082"",""0.351"",""0.665"",""0.699""]","[1,0,1,1]",0,25,25,25,1,1,1,,,0,FALSE,,,,,,,,,,,,,,,,,,,,,,,,,,,,,,
,6140b1340293f5c279c5eec1,001,2022-04-28_19h03.11.440,classification_task,2021.2.3,Win32,60.0240096,6140b1340293f5c279c5eec1,626b377229c10585ec392f8a,626b393c856ab59e38b0bad6,,,,,,,,,,,,,,,,,,,,,,,l,1,2.8841,"[""0.082"",""0.192"",""0.665"",""0.417""]","[1,1,1,0]",0,26,26,26,1,1,1,,,0,FALSE,,,,,,,,,,,,,,,,,,,,,,,,,,,,,,
,6140b1340293f5c279c5eec1,001,2022-04-28_19h03.11.440,classification_task,2021.2.3,Win32,60.0240096,6140b1340293f5c279c5eec1,626b377229c10585ec392f8a,626b393c856ab59e38b0bad6,,,,,,,,,,,,,,,,,,,,,,,l,1,0.7095,"[""0.417"",""0.266"",""0.617"",""0.790""]","[0,1,1,1]",0,27,27,27,1,1,0,,,0,FALSE,,,,,,,,,,,,,,,,,,,,,,,,,,,,,,
,6140b1340293f5c279c5eec1,001,2022-04-28_19h03.11.440,classification_task,2021.2.3,Win32,60.0240096,6140b1340293f5c279c5eec1,626b377229c10585ec392f8a,626b393c856ab59e38b0bad6,,,,,,,,,,,,,,,,,,,,,,,a,1,1.2173,"[""0.231"",""0.367"",""0.884"",""0.969""]","[1,0,1,1]",0,28,28,28,1,0,1,,,0,FALSE,,,,,,,,,,,,,,,,,,,,,,,,,,,,,,
,6140b1340293f5c279c5eec1,001,2022-04-28_19h03.11.440,classification_task,2021.2.3,Win32,60.0240096,6140b1340293f5c279c5eec1,626b377229c10585ec392f8a,626b393c856ab59e38b0bad6,,,,,,,,,,,,,,,,,,,,,,,l,0,1.3506,"[""0.231"",""0.534"",""0.026"",""0.969""]","[1,1,0,1]",0,29,29,29,1,0,1,,,0,FALSE,,,,,,,,,,,,,,,,,,,,,,,,,,,,,,
,6140b1340293f5c279c5eec1,001,2022-04-28_19h03.11.440,classification_task,2021.2.3,Win32,60.0240096,6140b1340293f5c279c5eec1,626b377229c10585ec392f8a,626b393c856ab59e38b0bad6,,,,,,,,,,,,,,,,,,,,,,,a,1,0.8509,"[""0.347"",""0.495"",""0.838"",""0.931""]","[0,1,1,1]",0,30,30,30,1,0,0,,,0,FALSE,,,,,,,,,,,,,,,,,,,,,,,,,,,,,,
,6140b1340293f5c279c5eec1,001,2022-04-28_19h03.11.440,classification_task,2021.2.3,Win32,60.0240096,6140b1340293f5c279c5eec1,626b377229c10585ec392f8a,626b393c856ab59e38b0bad6,,,,,,,,,,,,,,,,,,,,,,,l,1,1.3509,"[""0.452"",""0.192"",""0.665"",""0.699""]","[0,1,1,1]",0,31,31,31,1,1,1,,,0,FALSE,,,,,,,,,,,,,,,,,,,,,,,,,,,,,,
,6140b1340293f5c279c5eec1,001,2022-04-28_19h03.11.440,classification_task,2021.2.3,Win32,60.0240096,6140b1340293f5c279c5eec1,626b377229c10585ec392f8a,626b393c856ab59e38b0bad6,,,,,,,,,,,,,,,,,,,,,,,a,1,0.9338,"[""0.308"",""0.495"",""0.416"",""0.931""]","[1,1,0,1]",0,32,32,32,1,0,0,,,0,FALSE,,,,,,,,,,,,,,,,,,,,,,,,,,,,,,
,6140b1340293f5c279c5eec1,001,2022-04-28_19h03.11.440,classification_task,2021.2.3,Win32,60.0240096,6140b1340293f5c279c5eec1,626b377229c10585ec392f8a,626b393c856ab59e38b0bad6,,,,,,,,,,,,,,,,,,,,,,,l,0,3.733,"[""0.367"",""0.534"",""0.884"",""0.969""]","[0,1,1,1]",0,33,33,33,1,0,1,,,0,FALSE,,,,,,,,,,,,,,,,,,,,,,,,,,,,,,
,6140b1340293f5c279c5eec1,001,2022-04-28_19h03.11.440,classification_task,2021.2.3,Win32,60.0240096,6140b1340293f5c279c5eec1,626b377229c10585ec392f8a,626b393c856ab59e38b0bad6,,,,,,,,,,,,,,,,,,,,,,,a,1,1.3434,"[""0.231"",""0.740"",""0.884"",""0.969""]","[1,0,1,1]",0,34,34,34,1,0,1,,,0,FALSE,,,,,,,,,,,,,,,,,,,,,,,,,,,,,,
,6140b1340293f5c279c5eec1,001,2022-04-28_19h03.11.440,classification_task,2021.2.3,Win32,60.0240096,6140b1340293f5c279c5eec1,626b377229c10585ec392f8a,626b393c856ab59e38b0bad6,,,,,,,,,,,,,,,,,,,,,,,l,1,0.9674,"[""0.128"",""0.266"",""0.617"",""0.737""]","[1,1,1,0]",0,35,35,35,1,1,0,,,0,FALSE,,,,,,,,,,,,,,,,,,,,,,,,,,,,,,
,6140b1340293f5c279c5eec1,001,2022-04-28_19h03.11.440,classification_task,2021.2.3,Win32,60.0240096,6140b1340293f5c279c5eec1,626b377229c10585ec392f8a,626b393c856ab59e38b0bad6,,,,,,,,,,,,,,,,,,,,,,,a,1,0.8844,"[""0.308"",""0.438"",""0.838"",""0.931""]","[1,0,1,1]",0,36,36,36,1,0,0,,,0,FALSE,,,,,,,,,,,,,,,,,,,,,,,,,,,,,,
,6140b1340293f5c279c5eec1,001,2022-04-28_19h03.11.440,classification_task,2021.2.3,Win32,60.0240096,6140b1340293f5c279c5eec1,626b377229c10585ec392f8a,626b393c856ab59e38b0bad6,,,,,,,,,,,,,,,,,,,,,,,l,1,1.1506,"[""0.082"",""0.192"",""0.665"",""0.445""]","[1,1,1,0]",0,37,37,37,1,1,1,,,0,FALSE,,,,,,,,,,,,,,,,,,,,,,,,,,,,,,
,6140b1340293f5c279c5eec1,001,2022-04-28_19h03.11.440,classification_task,2021.2.3,Win32,60.0240096,6140b1340293f5c279c5eec1,626b377229c10585ec392f8a,626b393c856ab59e38b0bad6,,,,,,,,,,,,,,,,,,,,,,,a,1,1.3504,"[""0.740"",""0.495"",""0.838"",""0.931""]","[0,1,1,1]",0,38,38,38,1,0,0,,,0,FALSE,,,,,,,,,,,,,,,,,,,,,,,,,,,,,,
,6140b1340293f5c279c5eec1,001,2022-04-28_19h03.11.440,classification_task,2021.2.3,Win32,60.0240096,6140b1340293f5c279c5eec1,626b377229c10585ec392f8a,626b393c856ab59e38b0bad6,,,,,,,,,,,,,,,,,,,,,,,l,1,1.3844,"[""0.367"",""0.192"",""0.665"",""0.699""]","[0,1,1,1]",0,39,39,39,1,1,1,,,0,FALSE,,,,,,,,,,,,,,,,,,,,,,,,,,,,,,
,6140b1340293f5c279c5eec1,001,2022-04-28_19h03.11.440,classification_task,2021.2.3,Win32,60.0240096,6140b1340293f5c279c5eec1,626b377229c10585ec392f8a,626b393c856ab59e38b0bad6,,,,,,,,,,,,,,,,,,,,,,,a,1,0.9677,"[""0.231"",""0.534"",""0.884"",""0.755""]","[1,1,1,0]",0,40,40,40,1,0,1,,,0,FALSE,,,,,,,,,,,,,,,,,,,,,,,,,,,,,,
,6140b1340293f5c279c5eec1,001,2022-04-28_19h03.11.440,classification_task,2021.2.3,Win32,60.0240096,6140b1340293f5c279c5eec1,626b377229c10585ec392f8a,626b393c856ab59e38b0bad6,,,,,,,,,,,,,,,,,,,,,,,l,1,0.9702,"[""0.128"",""0.416"",""0.617"",""0.790""]","[1,0,1,1]",0,41,41,41,1,1,0,,,0,FALSE,,,,,,,,,,,,,,,,,,,,,,,,,,,,,,
,6140b1340293f5c279c5eec1,001,2022-04-28_19h03.11.440,classification_task,2021.2.3,Win32,60.0240096,6140b1340293f5c279c5eec1,626b377229c10585ec392f8a,626b393c856ab59e38b0bad6,,,,,,,,,,,,,,,,,,,,,,,a,1,1.204,"[""0.308"",""0.495"",""0.838"",""0.347""]","[1,1,1,0]",0,42,42,42,1,0,0,,,0,FALSE,,,,,,,,,,,,,,,,,,,,,,,,,,,,,,
,6140b1340293f5c279c5eec1,001,2022-04-28_19h03.11.440,classification_task,2021.2.3,Win32,60.0240096,6140b1340293f5c279c5eec1,626b377229c10585ec392f8a,626b393c856ab59e38b0bad6,,,,,,,,,,,,,,,,,,,,,,,l,1,0.5844,"[""0.737"",""0.266"",""0.617"",""0.790""]","[0,1,1,1]",0,43,43,43,1,1,0,,,0,FALSE,,,,,,,,,,,,,,,,,,,,,,,,,,,,,,
,6140b1340293f5c279c5eec1,001,2022-04-28_19h03.11.440,classification_task,2021.2.3,Win32,60.0240096,6140b1340293f5c279c5eec1,626b377229c10585ec392f8a,626b393c856ab59e38b0bad6,,,,,,,,,,,,,,,,,,,,,,,a,1,0.8539,"[""0.231"",""0.534"",""0.737"",""0.969""]","[1,1,0,1]",0,44,44,44,1,0,1,,,0,FALSE,,,,,,,,,,,,,,,,,,,,,,,,,,,,,,
,6140b1340293f5c279c5eec1,001,2022-04-28_19h03.11.440,classification_task,2021.2.3,Win32,60.0240096,6140b1340293f5c279c5eec1,626b377229c10585ec392f8a,626b393c856ab59e38b0bad6,,,,,,,,,,,,,,,,,,,,,,,l,1,0.9371,"[""0.082"",""0.400"",""0.665"",""0.699""]","[1,0,1,1]",0,45,45,45,1,1,1,,,0,FALSE,,,,,,,,,,,,,,,,,,,,,,,,,,,,,,
,6140b1340293f5c279c5eec1,001,2022-04-28_19h03.11.440,classification_task,2021.2.3,Win32,60.0240096,6140b1340293f5c279c5eec1,626b377229c10585ec392f8a,626b393c856ab59e38b0bad6,,,,,,,,,,,,,,,,,,,,,,,l,1,0.7471,"[""0.128"",""0.266"",""0.373"",""0.790""]","[1,1,0,1]",0,46,46,46,1,1,0,,,0,FALSE,,,,,,,,,,,,,,,,,,,,,,,,,,,,,,
,6140b1340293f5c279c5eec1,001,2022-04-28_19h03.11.440,classification_task,2021.2.3,Win32,60.0240096,6140b1340293f5c279c5eec1,626b377229c10585ec392f8a,626b393c856ab59e38b0bad6,,,,,,,,,,,,,,,,,,,,,,,l,1,1.82,"[""0.082"",""0.192"",""0.737"",""0.699""]","[1,1,0,1]",0,47,47,47,1,1,1,,,0,FALSE,,,,,,,,,,,,,,,,,,,,,,,,,,,,,,
,6140b1340293f5c279c5eec1,001,2022-04-28_19h03.11.440,classification_task,2021.2.3,Win32,60.0240096,6140b1340293f5c279c5eec1,626b377229c10585ec392f8a,626b393c856ab59e38b0bad6,,,,,,,,,,,,,,,,,,,,,,,l,1,1.1539,"[""0.043"",""0.192"",""0.665"",""0.699""]","[0,1,1,1]",0,48,48,48,1,1,1,,,0,FALSE,,,,,,,,,,,,,,,,,,,,,,,,,,,,,,
,6140b1340293f5c279c5eec1,001,2022-04-28_19h03.11.440,classification_task,2021.2.3,Win32,60.0240096,6140b1340293f5c279c5eec1,626b377229c10585ec392f8a,626b393c856ab59e38b0bad6,,,,,,,,,,,,,,,,,,,,,,,l,1,1.0176,"[""0.128"",""0.266"",""0.617"",""0.026""]","[1,1,1,0]",0,49,49,49,1,1,0,,,0,FALSE,,,,,,,,,,,,,,,,,,,,,,,,,,,,,,
,6140b1340293f5c279c5eec1,001,2022-04-28_19h03.11.440,classification_task,2021.2.3,Win32,60.0240096,6140b1340293f5c279c5eec1,626b377229c10585ec392f8a,626b393c856ab59e38b0bad6,,,,,,,,,,,,,,,,,,,,,,,l,1,0.551,"[""0.740"",""0.266"",""0.617"",""0.790""]","[0,1,1,1]",0,50,50,50,1,1,0,,,0,FALSE,,,,,,,,,,,,,,,,,,,,,,,,,,,,,,
,6140b1340293f5c279c5eec1,001,2022-04-28_19h03.11.440,classification_task,2021.2.3,Win32,60.0240096,6140b1340293f5c279c5eec1,626b377229c10585ec392f8a,626b393c856ab59e38b0bad6,,,,,,,,,,,,,,,,,,,,,,,l,1,1.3507,"[""0.082"",""0.452"",""0.665"",""0.699""]","[1,0,1,1]",0,51,51,51,1,1,1,,,0,FALSE,,,,,,,,,,,,,,,,,,,,,,,,,,,,,,
,6140b1340293f5c279c5eec1,001,2022-04-28_19h03.11.440,classification_task,2021.2.3,Win32,60.0240096,6140b1340293f5c279c5eec1,626b377229c10585ec392f8a,626b393c856ab59e38b0bad6,,,,,,,,,,,,,,,,,,,,,,,a,1,0.7841,"[""0.308"",""0.495"",""0.838"",""0.373""]","[1,1,1,0]",0,52,52,52,1,0,0,,,0,FALSE,,,,,,,,,,,,,,,,,,,,,,,,,,,,,,
,6140b1340293f5c279c5eec1,001,2022-04-28_19h03.11.440,classification_task,2021.2.3,Win32,60.0240096,6140b1340293f5c279c5eec1,626b377229c10585ec392f8a,626b393c856ab59e38b0bad6,,,,,,,,,,,,,,,,,,,,,,,l,1,1.1177,"[""0.082"",""0.192"",""0.452"",""0.699""]","[1,1,0,1]",0,53,53,53,1,1,1,,,0,FALSE,,,,,,,,,,,,,,,,,,,,,,,,,,,,,,
,6140b1340293f5c279c5eec1,001,2022-04-28_19h03.11.440,classification_task,2021.2.3,Win32,60.0240096,6140b1340293f5c279c5eec1,626b377229c10585ec392f8a,626b393c856ab59e38b0bad6,,,,,,,,,,,,,,,,,,,,,,,l,1,1.254,"[""0.082"",""0.192"",""0.665"",""0.026""]","[1,1,1,0]",0,54,54,54,1,1,1,,,0,FALSE,,,,,,,,,,,,,,,,,,,,,,,,,,,,,,
,6140b1340293f5c279c5eec1,001,2022-04-28_19h03.11.440,classification_task,2021.2.3,Win32,60.0240096,6140b1340293f5c279c5eec1,626b377229c10585ec392f8a,626b393c856ab59e38b0bad6,,,,,,,,,,,,,,,,,,,,,,,l,1,0.8676,"[""0.128"",""0.445"",""0.617"",""0.790""]","[1,0,1,1]",0,55,55,55,1,1,0,,,0,FALSE,,,,,,,,,,,,,,,,,,,,,,,,,,,,,,
,6140b1340293f5c279c5eec1,001,2022-04-28_19h03.11.440,classification_task,2021.2.3,Win32,60.0240096,6140b1340293f5c279c5eec1,626b377229c10585ec392f8a,626b393c856ab59e38b0bad6,,,,,,,,,,,,,,,,,,,,,,,a,1,1.7033,"[""0.438"",""0.534"",""0.884"",""0.969""]","[0,1,1,1]",0,56,56,56,1,0,1,,,0,FALSE,,,,,,,,,,,,,,,,,,,,,,,,,,,,,,
,6140b1340293f5c279c5eec1,001,2022-04-28_19h03.11.440,classification_task,2021.2.3,Win32,60.0240096,6140b1340293f5c279c5eec1,626b377229c10585ec392f8a,626b393c856ab59e38b0bad6,,,,,,,,,,,,,,,,,,,,,,,a,1,1.0261,"[""0.351"",""0.495"",""0.838"",""0.931""]","[0,1,1,1]",0,57,57,57,1,0,0,,,0,FALSE,,,,,,,,,,,,,,,,,,,,,,,,,,,,,,
,6140b1340293f5c279c5eec1,001,2022-04-28_19h03.11.440,classification_task,2021.2.3,Win32,60.0240096,6140b1340293f5c279c5eec1,626b377229c10585ec392f8a,626b393c856ab59e38b0bad6,,,,,,,,,,,,,,,,,,,,,,,a,1,1.1035,"[""0.231"",""0.452"",""0.884"",""0.969""]","[1,0,1,1]",0,58,58,58,1,0,1,,,0,FALSE,,,,,,,,,,,,,,,,,,,,,,,,,,,,,,
,6140b1340293f5c279c5eec1,001,2022-04-28_19h03.11.440,classification_task,2021.2.3,Win32,60.0240096,6140b1340293f5c279c5eec1,626b377229c10585ec392f8a,626b393c856ab59e38b0bad6,,,,,,,,,,,,,,,,,,,,,,,l,1,0.6342,"[""0.128"",""0.266"",""0.452"",""0.790""]","[1,1,0,1]",0,59,59,59,1,1,0,,,0,FALSE,,,,,,,,,,,,,,,,,,,,,,,,,,,,,,
,6140b1340293f5c279c5eec1,001,2022-04-28_19h03.11.440,classification_task,2021.2.3,Win32,60.0240096,6140b1340293f5c279c5eec1,626b377229c10585ec392f8a,626b393c856ab59e38b0bad6,,,,,,,,,,,,,,,,,,,,,,,a,1,0.8011,"[""0.231"",""0.534"",""0.884"",""0.740""]","[1,1,1,0]",0,60,60,60,1,0,1,,,0,FALSE,,,,,,,,,,,,,,,,,,,,,,,,,,,,,,
,6140b1340293f5c279c5eec1,001,2022-04-28_19h03.11.440,classification_task,2021.2.3,Win32,60.0240096,6140b1340293f5c279c5eec1,626b377229c10585ec392f8a,626b393c856ab59e38b0bad6,,,,,,,,,,,,,,,,,,,,,,,a,1,2.4373,"[""0.308"",""0.495"",""0.043"",""0.931""]","[1,1,0,1]",0,61,61,61,1,0,0,,,0,FALSE,,,,,,,,,,,,,,,,,,,,,,,,,,,,,,
,6140b1340293f5c279c5eec1,001,2022-04-28_19h03.11.440,classification_task,2021.2.3,Win32,60.0240096,6140b1340293f5c279c5eec1,626b377229c10585ec392f8a,626b393c856ab59e38b0bad6,,,,,,,,,,,,,,,,,,,,,,,a,1,0.8342,"[""0.308"",""0.367"",""0.838"",""0.931""]","[1,0,1,1]",0,62,62,62,1,0,0,,,0,FALSE,,,,,,,,,,,,,,,,,,,,,,,,,,,,,,
,6140b1340293f5c279c5eec1,001,2022-04-28_19h03.11.440,classification_task,2021.2.3,Win32,60.0240096,6140b1340293f5c279c5eec1,626b377229c10585ec392f8a,626b393c856ab59e38b0bad6,,,,,,,,,,,,,,,,,,,,,,,a,1,1.0505,"[""0.231"",""0.534"",""0.452"",""0.969""]","[1,1,0,1]",0,63,63,63,1,0,1,,,0,FALSE,,,,,,,,,,,,,,,,,,,,,,,,,,,,,,
,6140b1340293f5c279c5eec1,001,2022-04-28_19h03.11.440,classification_task,2021.2.3,Win32,60.0240096,6140b1340293f5c279c5eec1,626b377229c10585ec392f8a,626b393c856ab59e38b0bad6,,,,,,,,,,,,,,,,,,,,,,,,,,,,,,,,,,,,,,,0, ,,0,10,177.3884,0,1,1,1,1,2,2,,,,,,,,,,,,,,,,,
,6140b1340293f5c279c5eec1,001,2022-04-28_19h03.11.440,classification_task,2021.2.3,Win32,60.0240096,6140b1340293f5c279c5eec1,626b377229c10585ec392f8a,626b393c856ab59e38b0bad6,,,,,,,,,,,,,,,,,,,,,,,,,,,,,,,,,,,,,,,1,  ,,0,10,178.7554,0,1,1,1,1,2,2,,,,,,,,,,,,,,,,,
,6140b1340293f5c279c5eec1,001,2022-04-28_19h03.11.440,classification_task,2021.2.3,Win32,60.0240096,6140b1340293f5c279c5eec1,626b377229c10585ec392f8a,626b393c856ab59e38b0bad6,,,,,,,,,,,,,,,,,,,,,,,,,,,,,,,,,,,,,,,2,  ,,0,0,184.7045,0,1,1,1,1,2,2,,,,,,,,,,,,,,,,,
,6140b1340293f5c279c5eec1,001,2022-04-28_19h03.11.440,classification_task,2021.2.3,Win32,60.0240096,6140b1340293f5c279c5eec1,626b377229c10585ec392f8a,626b393c856ab59e38b0bad6,,,,,,,,,,,,,,,,,,,,,,,,,,,,,,,,,,,,,,,,,,,,,0,1,1,1,1,,2,,,,,,,,,,,,,,,,,
,6140b1340293f5c279c5eec1,001,2022-04-28_19h03.11.440,classification_task,2021.2.3,Win32,60.0240096,6140b1340293f5c279c5eec1,626b377229c10585ec392f8a,626b393c856ab59e38b0bad6,,,,,,,,,,,,,,,,,,,,,space,9.3498,l,0,3.2205,"[""0.351"",""0.495"",""0.838"",""0.931""]","[0,1,1,1]",0,0,0,0,1,0,0,,,0,FALSE,,,,,,,,,,,,,,,,,,,,,,,,,,,,,,
,6140b1340293f5c279c5eec1,001,2022-04-28_19h03.11.440,classification_task,2021.2.3,Win32,60.0240096,6140b1340293f5c279c5eec1,626b377229c10585ec392f8a,626b393c856ab59e38b0bad6,,,,,,,,,,,,,,,,,,,,,,,l,1,1.8205,"[""0.082"",""0.192"",""0.665"",""0.737""]","[1,1,1,0]",0,1,1,1,1,1,1,,,0,FALSE,,,,,,,,,,,,,,,,,,,,,,,,,,,,,,
,6140b1340293f5c279c5eec1,001,2022-04-28_19h03.11.440,classification_task,2021.2.3,Win32,60.0240096,6140b1340293f5c279c5eec1,626b377229c10585ec392f8a,626b393c856ab59e38b0bad6,,,,,,,,,,,,,,,,,,,,,,,l,1,1.6843,"[""0.452"",""0.192"",""0.665"",""0.699""]","[0,1,1,1]",0,2,2,2,1,1,1,,,0,FALSE,,,,,,,,,,,,,,,,,,,,,,,,,,,,,,
,6140b1340293f5c279c5eec1,001,2022-04-28_19h03.11.440,classification_task,2021.2.3,Win32,60.0240096,6140b1340293f5c279c5eec1,626b377229c10585ec392f8a,626b393c856ab59e38b0bad6,,,,,,,,,,,,,,,,,,,,,,,l,1,1.6013,"[""0.128"",""0.266"",""0.617"",""0.755""]","[1,1,1,0]",0,3,3,3,1,1,0,,,0,FALSE,,,,,,,,,,,,,,,,,,,,,,,,,,,,,,
,6140b1340293f5c279c5eec1,001,2022-04-28_19h03.11.440,classification_task,2021.2.3,Win32,60.0240096,6140b1340293f5c279c5eec1,626b377229c10585ec392f8a,626b393c856ab59e38b0bad6,,,,,,,,,,,,,,,,,,,,,,,a,1,1.3286,"[""0.308"",""0.495"",""0.838"",""0.737""]","[1,1,1,0]",0,4,4,4,1,0,0,,,0,FALSE,,,,,,,,,,,,,,,,,,,,,,,,,,,,,,
,6140b1340293f5c279c5eec1,001,2022-04-28_19h03.11.440,classification_task,2021.2.3,Win32,60.0240096,6140b1340293f5c279c5eec1,626b377229c10585ec392f8a,626b393c856ab59e38b0bad6,,,,,,,,,,,,,,,,,,,,,,,a,0,1.1511,"[""0.737"",""0.266"",""0.617"",""0.790""]","[0,1,1,1]",0,5,5,5,1,1,0,,,0,FALSE,,,,,,,,,,,,,,,,,,,,,,,,,,,,,,
,6140b1340293f5c279c5eec1,001,2022-04-28_19h03.11.440,classification_task,2021.2.3,Win32,60.0240096,6140b1340293f5c279c5eec1,626b377229c10585ec392f8a,626b393c856ab59e38b0bad6,,,,,,,,,,,,,,,,,,,,,,,l,1,1.7179,"[""0.128"",""0.026"",""0.617"",""0.790""]","[1,0,1,1]",0,6,6,6,1,1,0,,,0,FALSE,,,,,,,,,,,,,,,,,,,,,,,,,,,,,,
,6140b1340293f5c279c5eec1,001,2022-04-28_19h03.11.440,classification_task,2021.2.3,Win32,60.0240096,6140b1340293f5c279c5eec1,626b377229c10585ec392f8a,626b393c856ab59e38b0bad6,,,,,,,,,,,,,,,,,,,,,,,l,1,0.7013,"[""0.128"",""0.266"",""0.373"",""0.790""]","[1,1,0,1]",0,7,7,7,1,1,0,,,0,FALSE,,,,,,,,,,,,,,,,,,,,,,,,,,,,,,
,6140b1340293f5c279c5eec1,001,2022-04-28_19h03.11.440,classification_task,2021.2.3,Win32,60.0240096,6140b1340293f5c279c5eec1,626b377229c10585ec392f8a,626b393c856ab59e38b0bad6,,,,,,,,,,,,,,,,,,,,,,,a,1,1.2347,"[""0.231"",""0.534"",""0.884"",""0.351""]","[1,1,1,0]",0,8,8,8,1,0,1,,,0,FALSE,,,,,,,,,,,,,,,,,,,,,,,,,,,,,,
,6140b1340293f5c279c5eec1,001,2022-04-28_19h03.11.440,classification_task,2021.2.3,Win32,60.0240096,6140b1340293f5c279c5eec1,626b377229c10585ec392f8a,626b393c856ab59e38b0bad6,,,,,,,,,,,,,,,,,,,,,,,l,1,0.8837,"[""0.082"",""0.438"",""0.665"",""0.699""]","[1,0,1,1]",0,9,9,9,1,1,1,,,0,FALSE,,,,,,,,,,,,,,,,,,,,,,,,,,,,,,
,6140b1340293f5c279c5eec1,001,2022-04-28_19h03.11.440,classification_task,2021.2.3,Win32,60.0240096,6140b1340293f5c279c5eec1,626b377229c10585ec392f8a,626b393c856ab59e38b0bad6,,,,,,,,,,,,,,,,,,,,,,,a,1,1.1512,"[""0.231"",""0.400"",""0.884"",""0.969""]","[1,0,1,1]",0,10,10,10,1,0,1,,,0,FALSE,,,,,,,,,,,,,,,,,,,,,,,,,,,,,,
,6140b1340293f5c279c5eec1,001,2022-04-28_19h03.11.440,classification_task,2021.2.3,Win32,60.0240096,6140b1340293f5c279c5eec1,626b377229c10585ec392f8a,626b393c856ab59e38b0bad6,,,,,,,,,,,,,,,,,,,,,,,l,0,1.7508,"[""0.737"",""0.534"",""0.884"",""0.969""]","[0,1,1,1]",0,11,11,11,1,0,1,,,0,FALSE,,,,,,,,,,,,,,,,,,,,,,,,,,,,,,
,6140b1340293f5c279c5eec1,001,2022-04-28_19h03.11.440,classification_task,2021.2.3,Win32,60.0240096,6140b1340293f5c279c5eec1,626b377229c10585ec392f8a,626b393c856ab59e38b0bad6,,,,,,,,,,,,,,,,,,,,,,,a,1,1.829,"[""0.308"",""0.351"",""0.838"",""0.931""]","[1,0,1,1]",0,12,12,12,1,0,0,,,0,FALSE,,,,,,,,,,,,,,,,,,,,,,,,,,,,,,
,6140b1340293f5c279c5eec1,001,2022-04-28_19h03.11.440,classification_task,2021.2.3,Win32,60.0240096,6140b1340293f5c279c5eec1,626b377229c10585ec392f8a,626b393c856ab59e38b0bad6,,,,,,,,,,,,,,,,,,,,,,,a,1,0.9348,"[""0.308"",""0.495"",""0.438"",""0.931""]","[1,1,0,1]",0,13,13,13,1,0,0,,,0,FALSE,,,,,,,,,,,,,,,,,,,,,,,,,,,,,,
,6140b1340293f5c279c5eec1,001,2022-04-28_19h03.11.440,classification_task,2021.2.3,Win32,60.0240096,6140b1340293f5c279c5eec1,626b377229c10585ec392f8a,626b393c856ab59e38b0bad6,,,,,,,,,,,,,,,,,,,,,,,a,1,1.0679,"[""0.231"",""0.534"",""0.737"",""0.969""]","[1,1,0,1]",0,14,14,14,1,0,1,,,0,FALSE,,,,,,,,,,,,,,,,,,,,,,,,,,,,,,
,6140b1340293f5c279c5eec1,001,2022-04-28_19h03.11.440,classification_task,2021.2.3,Win32,60.0240096,6140b1340293f5c279c5eec1,626b377229c10585ec392f8a,626b393c856ab59e38b0bad6,,,,,,,,,,,,,,,,,,,,,,,l,1,0.9514,"[""0.082"",""0.192"",""0.400"",""0.699""]","[1,1,0,1]",0,15,15,15,1,1,1,,,0,FALSE,,,,,,,,,,,,,,,,,,,,,,,,,,,,,,
,6140b1340293f5c279c5eec1,001,2022-04-28_19h03.11.440,classification_task,2021.2.3,Win32,60.0240096,6140b1340293f5c279c5eec1,626b377229c10585ec392f8a,626b393c856ab59e38b0bad6,,,,,,,,,,,,,,,,,,,,,,,l,1,1.501,"[""0.128"",""0.351"",""0.617"",""0.790""]","[1,0,1,1]",0,16,16,16,1,1,0,,,0,FALSE,,,,,,,,,,,,,,,,,,,,,,,,,,,,,,
,6140b1340293f5c279c5eec1,001,2022-04-28_19h03.11.440,classification_task,2021.2.3,Win32,60.0240096,6140b1340293f5c279c5eec1,626b377229c10585ec392f8a,626b393c856ab59e38b0bad6,,,,,,,,,,,,,,,,,,,,,,,l,1,0.6014,"[""0.128"",""0.266"",""0.452"",""0.790""]","[1,1,0,1]",0,17,17,17,1,1,0,,,0,FALSE,,,,,,,,,,,,,,,,,,,,,,,,,,,,,,
,6140b1340293f5c279c5eec1,001,2022-04-28_19h03.11.440,classification_task,2021.2.3,Win32,60.0240096,6140b1340293f5c279c5eec1,626b377229c10585ec392f8a,626b393c856ab59e38b0bad6,,,,,,,,,,,,,,,,,,,,,,,l,1,0.9509,"[""0.128"",""0.266"",""0.617"",""0.347""]","[1,1,1,0]",0,18,18,18,1,1,0,,,0,FALSE,,,,,,,,,,,,,,,,,,,,,,,,,,,,,,
,6140b1340293f5c279c5eec1,001,2022-04-28_19h03.11.440,classification_task,2021.2.3,Win32,60.0240096,6140b1340293f5c279c5eec1,626b377229c10585ec392f8a,626b393c856ab59e38b0bad6,,,,,,,,,,,,,,,,,,,,,,,a,1,1.6508,"[""0.452"",""0.495"",""0.838"",""0.931""]","[0,1,1,1]",0,19,19,19,1,0,0,,,0,FALSE,,,,,,,,,,,,,,,,,,,,,,,,,,,,,,
,6140b1340293f5c279c5eec1,001,2022-04-28_19h03.11.440,classification_task,2021.2.3,Win32,60.0240096,6140b1340293f5c279c5eec1,626b377229c10585ec392f8a,626b393c856ab59e38b0bad6,,,,,,,,,,,,,,,,,,,,,,,l,1,1.5014,"[""0.740"",""0.192"",""0.665"",""0.699""]","[0,1,1,1]",0,20,20,20,1,1,1,,,0,FALSE,,,,,,,,,,,,,,,,,,,,,,,,,,,,,,
,6140b1340293f5c279c5eec1,001,2022-04-28_19h03.11.440,classification_task,2021.2.3,Win32,60.0240096,6140b1340293f5c279c5eec1,626b377229c10585ec392f8a,626b393c856ab59e38b0bad6,,,,,,,,,,,,,,,,,,,,,,,l,1,2.9951,"[""0.438"",""0.266"",""0.617"",""0.790""]","[0,1,1,1]",0,21,21,21,1,1,0,,,0,FALSE,,,,,,,,,,,,,,,,,,,,,,,,,,,,,,
,6140b1340293f5c279c5eec1,001,2022-04-28_19h03.11.440,classification_task,2021.2.3,Win32,60.0240096,6140b1340293f5c279c5eec1,626b377229c10585ec392f8a,626b393c856ab59e38b0bad6,,,,,,,,,,,,,,,,,,,,,,,l,1,1.1119,"[""0.082"",""0.445"",""0.665"",""0.699""]","[1,0,1,1]",0,22,22,22,1,1,1,,,0,FALSE,,,,,,,,,,,,,,,,,,,,,,,,,,,,,,
,6140b1340293f5c279c5eec1,001,2022-04-28_19h03.11.440,classification_task,2021.2.3,Win32,60.0240096,6140b1340293f5c279c5eec1,626b377229c10585ec392f8a,626b393c856ab59e38b0bad6,,,,,,,,,,,,,,,,,,,,,,,l,1,1.0847,"[""0.082"",""0.192"",""0.665"",""0.452""]","[1,1,1,0]",0,23,23,23,1,1,1,,,0,FALSE,,,,,,,,,,,,,,,,,,,,,,,,,,,,,,
,6140b1340293f5c279c5eec1,001,2022-04-28_19h03.11.440,classification_task,2021.2.3,Win32,60.0240096,6140b1340293f5c279c5eec1,626b377229c10585ec392f8a,626b393c856ab59e38b0bad6,,,,,,,,,,,,,,,,,,,,,,,a,1,1.051,"[""0.308"",""0.495"",""0.838"",""0.755""]","[1,1,1,0]",0,24,24,24,1,0,0,,,0,FALSE,,,,,,,,,,,,,,,,,,,,,,,,,,,,,,
,6140b1340293f5c279c5eec1,001,2022-04-28_19h03.11.440,classification_task,2021.2.3,Win32,60.0240096,6140b1340293f5c279c5eec1,626b377229c10585ec392f8a,626b393c856ab59e38b0bad6,,,,,,,,,,,,,,,,,,,,,,,a,1,1.1705,"[""0.231"",""0.534"",""0.884"",""0.416""]","[1,1,1,0]",0,25,25,25,1,0,1,,,0,FALSE,,,,,,,,,,,,,,,,,,,,,,,,,,,,,,
,6140b1340293f5c279c5eec1,001,2022-04-28_19h03.11.440,classification_task,2021.2.3,Win32,60.0240096,6140b1340293f5c279c5eec1,626b377229c10585ec392f8a,626b393c856ab59e38b0bad6,,,,,,,,,,,,,,,,,,,,,,,a,1,0.8179,"[""0.231"",""0.534"",""0.417"",""0.969""]","[1,1,0,1]",0,26,26,26,1,0,1,,,0,FALSE,,,,,,,,,,,,,,,,,,,,,,,,,,,,,,
,6140b1340293f5c279c5eec1,001,2022-04-28_19h03.11.440,classification_task,2021.2.3,Win32,60.0240096,6140b1340293f5c279c5eec1,626b377229c10585ec392f8a,626b393c856ab59e38b0bad6,,,,,,,,,,,,,,,,,,,,,,,a,1,0.6347,"[""0.231"",""0.417"",""0.884"",""0.969""]","[1,0,1,1]",0,27,27,27,1,0,1,,,0,FALSE,,,,,,,,,,,,,,,,,,,,,,,,,,,,,,
,6140b1340293f5c279c5eec1,001,2022-04-28_19h03.11.440,classification_task,2021.2.3,Win32,60.0240096,6140b1340293f5c279c5eec1,626b377229c10585ec392f8a,626b393c856ab59e38b0bad6,,,,,,,,,,,,,,,,,,,,,,,a,1,1.2042,"[""0.308"",""0.495"",""0.452"",""0.931""]","[1,1,0,1]",0,28,28,28,1,0,0,,,0,FALSE,,,,,,,,,,,,,,,,,,,,,,,,,,,,,,
,6140b1340293f5c279c5eec1,001,2022-04-28_19h03.11.440,classification_task,2021.2.3,Win32,60.0240096,6140b1340293f5c279c5eec1,626b377229c10585ec392f8a,626b393c856ab59e38b0bad6,,,,,,,,,,,,,,,,,,,,,,,l,1,0.8676,"[""0.082"",""0.192"",""0.445"",""0.699""]","[1,1,0,1]",0,29,29,29,1,1,1,,,0,FALSE,,,,,,,,,,,,,,,,,,,,,,,,,,,,,,
,6140b1340293f5c279c5eec1,001,2022-04-28_19h03.11.440,classification_task,2021.2.3,Win32,60.0240096,6140b1340293f5c279c5eec1,626b377229c10585ec392f8a,626b393c856ab59e38b0bad6,,,,,,,,,,,,,,,,,,,,,,,a,1,1.118,"[""0.308"",""0.373"",""0.838"",""0.931""]","[1,0,1,1]",0,30,30,30,1,0,0,,,0,FALSE,,,,,,,,,,,,,,,,,,,,,,,,,,,,,,
,6140b1340293f5c279c5eec1,001,2022-04-28_19h03.11.440,classification_task,2021.2.3,Win32,60.0240096,6140b1340293f5c279c5eec1,626b377229c10585ec392f8a,626b393c856ab59e38b0bad6,,,,,,,,,,,,,,,,,,,,,,,l,0,1.8177,"[""0.367"",""0.534"",""0.884"",""0.969""]","[0,1,1,1]",0,31,31,31,1,0,1,,,0,FALSE,,,,,,,,,,,,,,,,,,,,,,,,,,,,,,
,6140b1340293f5c279c5eec1,001,2022-04-28_19h03.11.440,classification_task,2021.2.3,Win32,60.0240096,6140b1340293f5c279c5eec1,626b377229c10585ec392f8a,626b393c856ab59e38b0bad6,,,,,,,,,,,,,,,,,,,,,,,l,1,1.2875,"[""0.128"",""0.266"",""0.400"",""0.790""]","[1,1,0,1]",0,32,32,32,1,1,0,,,0,FALSE,,,,,,,,,,,,,,,,,,,,,,,,,,,,,,
,6140b1340293f5c279c5eec1,001,2022-04-28_19h03.11.440,classification_task,2021.2.3,Win32,60.0240096,6140b1340293f5c279c5eec1,626b377229c10585ec392f8a,626b393c856ab59e38b0bad6,,,,,,,,,,,,,,,,,,,,,,,l,1,0.568,"[""0.128"",""0.266"",""0.617"",""0.737""]","[1,1,1,0]",0,33,33,33,1,1,0,,,0,FALSE,,,,,,,,,,,,,,,,,,,,,,,,,,,,,,
,6140b1340293f5c279c5eec1,001,2022-04-28_19h03.11.440,classification_task,2021.2.3,Win32,60.0240096,6140b1340293f5c279c5eec1,626b377229c10585ec392f8a,626b393c856ab59e38b0bad6,,,,,,,,,,,,,,,,,,,,,,,l,1,0.8844,"[""0.082"",""0.192"",""0.665"",""0.438""]","[1,1,1,0]",0,34,34,34,1,1,1,,,0,FALSE,,,,,,,,,,,,,,,,,,,,,,,,,,,,,,
,6140b1340293f5c279c5eec1,001,2022-04-28_19h03.11.440,classification_task,2021.2.3,Win32,60.0240096,6140b1340293f5c279c5eec1,626b377229c10585ec392f8a,626b393c856ab59e38b0bad6,,,,,,,,,,,,,,,,,,,,,,,a,1,2.1679,"[""0.026"",""0.495"",""0.838"",""0.931""]","[0,1,1,1]",0,35,35,35,1,0,0,,,0,FALSE,,,,,,,,,,,,,,,,,,,,,,,,,,,,,,
,6140b1340293f5c279c5eec1,001,2022-04-28_19h03.11.440,classification_task,2021.2.3,Win32,60.0240096,6140b1340293f5c279c5eec1,626b377229c10585ec392f8a,626b393c856ab59e38b0bad6,,,,,,,,,,,,,,,,,,,,,,,l,1,1.2039,"[""0.755"",""0.192"",""0.665"",""0.699""]","[0,1,1,1]",0,36,36,36,1,1,1,,,0,FALSE,,,,,,,,,,,,,,,,,,,,,,,,,,,,,,
,6140b1340293f5c279c5eec1,001,2022-04-28_19h03.11.440,classification_task,2021.2.3,Win32,60.0240096,6140b1340293f5c279c5eec1,626b377229c10585ec392f8a,626b393c856ab59e38b0bad6,,,,,,,,,,,,,,,,,,,,,,,a,1,1.2179,"[""0.308"",""0.495"",""0.400"",""0.931""]","[1,1,0,1]",0,37,37,37,1,0,0,,,0,FALSE,,,,,,,,,,,,,,,,,,,,,,,,,,,,,,
,6140b1340293f5c279c5eec1,001,2022-04-28_19h03.11.440,classification_task,2021.2.3,Win32,60.0240096,6140b1340293f5c279c5eec1,626b377229c10585ec392f8a,626b393c856ab59e38b0bad6,,,,,,,,,,,,,,,,,,,,,,,a,1,1.0039,"[""0.231"",""0.534"",""0.445"",""0.969""]","[1,1,0,1]",0,38,38,38,1,0,1,,,0,FALSE,,,,,,,,,,,,,,,,,,,,,,,,,,,,,,
,6140b1340293f5c279c5eec1,001,2022-04-28_19h03.11.440,classification_task,2021.2.3,Win32,60.0240096,6140b1340293f5c279c5eec1,626b377229c10585ec392f8a,626b393c856ab59e38b0bad6,,,,,,,,,,,,,,,,,,,,,,,l,1,1.5504,"[""0.082"",""0.416"",""0.665"",""0.699""]","[1,0,1,1]",0,39,39,39,1,1,1,,,0,FALSE,,,,,,,,,,,,,,,,,,,,,,,,,,,,,,
,6140b1340293f5c279c5eec1,001,2022-04-28_19h03.11.440,classification_task,2021.2.3,Win32,60.0240096,6140b1340293f5c279c5eec1,626b377229c10585ec392f8a,626b393c856ab59e38b0bad6,,,,,,,,,,,,,,,,,,,,,,,l,0,1.2343,"[""0.308"",""0.043"",""0.838"",""0.931""]","[1,0,1,1]",0,40,40,40,1,0,0,,,0,FALSE,,,,,,,,,,,,,,,,,,,,,,,,,,,,,,
,6140b1340293f5c279c5eec1,001,2022-04-28_19h03.11.440,classification_task,2021.2.3,Win32,60.0240096,6140b1340293f5c279c5eec1,626b377229c10585ec392f8a,626b393c856ab59e38b0bad6,,,,,,,,,,,,,,,,,,,,,,,l,1,1.1175,"[""0.082"",""0.192"",""0.740"",""0.699""]","[1,1,0,1]",0,41,41,41,1,1,1,,,0,FALSE,,,,,,,,,,,,,,,,,,,,,,,,,,,,,,
,6140b1340293f5c279c5eec1,001,2022-04-28_19h03.11.440,classification_task,2021.2.3,Win32,60.0240096,6140b1340293f5c279c5eec1,626b377229c10585ec392f8a,626b393c856ab59e38b0bad6,,,,,,,,,,,,,,,,,,,,,,,a,1,1.5178,"[""0.755"",""0.534"",""0.884"",""0.969""]","[0,1,1,1]",0,42,42,42,1,0,1,,,0,FALSE,,,,,,,,,,,,,,,,,,,,,,,,,,,,,,
,6140b1340293f5c279c5eec1,001,2022-04-28_19h03.11.440,classification_task,2021.2.3,Win32,60.0240096,6140b1340293f5c279c5eec1,626b377229c10585ec392f8a,626b393c856ab59e38b0bad6,,,,,,,,,,,,,,,,,,,,,,,a,1,1.2785,"[""0.231"",""0.534"",""0.884"",""0.400""]","[1,1,1,0]",0,43,43,43,1,0,1,,,0,FALSE,,,,,,,,,,,,,,,,,,,,,,,,,,,,,,
,6140b1340293f5c279c5eec1,001,2022-04-28_19h03.11.440,classification_task,2021.2.3,Win32,60.0240096,6140b1340293f5c279c5eec1,626b377229c10585ec392f8a,626b393c856ab59e38b0bad6,,,,,,,,,,,,,,,,,,,,,,,l,1,1.3679,"[""0.128"",""0.417"",""0.617"",""0.790""]","[1,0,1,1]",0,44,44,44,1,1,0,,,0,FALSE,,,,,,,,,,,,,,,,,,,,,,,,,,,,,,
,6140b1340293f5c279c5eec1,001,2022-04-28_19h03.11.440,classification_task,2021.2.3,Win32,60.0240096,6140b1340293f5c279c5eec1,626b377229c10585ec392f8a,626b393c856ab59e38b0bad6,,,,,,,,,,,,,,,,,,,,,,,a,1,1.034,"[""0.231"",""0.367"",""0.884"",""0.969""]","[1,0,1,1]",0,45,45,45,1,0,1,,,0,FALSE,,,,,,,,,,,,,,,,,,,,,,,,,,,,,,
,6140b1340293f5c279c5eec1,001,2022-04-28_19h03.11.440,classification_task,2021.2.3,Win32,60.0240096,6140b1340293f5c279c5eec1,626b377229c10585ec392f8a,626b393c856ab59e38b0bad6,,,,,,,,,,,,,,,,,,,,,,,l,1,1.4669,"[""0.452"",""0.266"",""0.617"",""0.790""]","[0,1,1,1]",0,46,46,46,1,1,0,,,0,FALSE,,,,,,,,,,,,,,,,,,,,,,,,,,,,,,
,6140b1340293f5c279c5eec1,001,2022-04-28_19h03.11.440,classification_task,2021.2.3,Win32,60.0240096,6140b1340293f5c279c5eec1,626b377229c10585ec392f8a,626b393c856ab59e38b0bad6,,,,,,,,,,,,,,,,,,,,,,,a,1,1.7179,"[""0.308"",""0.495"",""0.838"",""0.043""]","[1,1,1,0]",0,47,47,47,1,0,0,,,0,FALSE,,,,,,,,,,,,,,,,,,,,,,,,,,,,,,
,6140b1340293f5c279c5eec1,001,2022-04-28_19h03.11.440,classification_task,2021.2.3,Win32,60.0240096,6140b1340293f5c279c5eec1,626b377229c10585ec392f8a,626b393c856ab59e38b0bad6,,,,,,,,,,,,,,,,,,,,,,,l,1,1.3801,"[""0.128"",""0.266"",""0.617"",""0.755""]","[1,1,1,0]",0,48,48,48,1,1,0,,,0,FALSE,,,,,,,,,,,,,,,,,,,,,,,,,,,,,,
,6140b1340293f5c279c5eec1,001,2022-04-28_19h03.11.440,classification_task,2021.2.3,Win32,60.0240096,6140b1340293f5c279c5eec1,626b377229c10585ec392f8a,626b393c856ab59e38b0bad6,,,,,,,,,,,,,,,,,,,,,,,a,1,1.0843,"[""0.231"",""0.534"",""0.417"",""0.969""]","[1,1,0,1]",0,49,49,49,1,0,1,,,0,FALSE,,,,,,,,,,,,,,,,,,,,,,,,,,,,,,
,6140b1340293f5c279c5eec1,001,2022-04-28_19h03.11.440,classification_task,2021.2.3,Win32,60.0240096,6140b1340293f5c279c5eec1,626b377229c10585ec392f8a,626b393c856ab59e38b0bad6,,,,,,,,,,,,,,,,,,,,,,,a,1,1.2678,"[""0.308"",""0.495"",""0.347"",""0.931""]","[1,1,0,1]",0,50,50,50,1,0,0,,,0,FALSE,,,,,,,,,,,,,,,,,,,,,,,,,,,,,,
,6140b1340293f5c279c5eec1,001,2022-04-28_19h03.11.440,classification_task,2021.2.3,Win32,60.0240096,6140b1340293f5c279c5eec1,626b377229c10585ec392f8a,626b393c856ab59e38b0bad6,,,,,,,,,,,,,,,,,,,,,,,l,1,1.2013,"[""0.128"",""0.266"",""0.737"",""0.790""]","[1,1,0,1]",0,51,51,51,1,1,0,,,0,FALSE,,,,,,,,,,,,,,,,,,,,,,,,,,,,,,
,6140b1340293f5c279c5eec1,001,2022-04-28_19h03.11.440,classification_task,2021.2.3,Win32,60.0240096,6140b1340293f5c279c5eec1,626b377229c10585ec392f8a,626b393c856ab59e38b0bad6,,,,,,,,,,,,,,,,,,,,,,,a,1,1.1552,"[""0.308"",""0.755"",""0.838"",""0.931""]","[1,0,1,1]",0,52,52,52,1,0,0,,,0,FALSE,,,,,,,,,,,,,,,,,,,,,,,,,,,,,,
,6140b1340293f5c279c5eec1,001,2022-04-28_19h03.11.440,classification_task,2021.2.3,Win32,60.0240096,6140b1340293f5c279c5eec1,626b377229c10585ec392f8a,626b393c856ab59e38b0bad6,,,,,,,,,,,,,,,,,,,,,,,a,1,1.0844,"[""0.231"",""0.737"",""0.884"",""0.969""]","[1,0,1,1]",0,53,53,53,1,0,1,,,0,FALSE,,,,,,,,,,,,,,,,,,,,,,,,,,,,,,
,6140b1340293f5c279c5eec1,001,2022-04-28_19h03.11.440,classification_task,2021.2.3,Win32,60.0240096,6140b1340293f5c279c5eec1,626b377229c10585ec392f8a,626b393c856ab59e38b0bad6,,,,,,,,,,,,,,,,,,,,,,,a,1,1.1508,"[""0.308"",""0.495"",""0.838"",""0.740""]","[1,1,1,0]",0,54,54,54,1,0,0,,,0,FALSE,,,,,,,,,,,,,,,,,,,,,,,,,,,,,,
,6140b1340293f5c279c5eec1,001,2022-04-28_19h03.11.440,classification_task,2021.2.3,Win32,60.0240096,6140b1340293f5c279c5eec1,626b377229c10585ec392f8a,626b393c856ab59e38b0bad6,,,,,,,,,,,,,,,,,,,,,,,l,1,1.651,"[""0.082"",""0.192"",""0.740"",""0.699""]","[1,1,0,1]",0,55,55,55,1,1,1,,,0,FALSE,,,,,,,,,,,,,,,,,,,,,,,,,,,,,,
,6140b1340293f5c279c5eec1,001,2022-04-28_19h03.11.440,classification_task,2021.2.3,Win32,60.0240096,6140b1340293f5c279c5eec1,626b377229c10585ec392f8a,626b393c856ab59e38b0bad6,,,,,,,,,,,,,,,,,,,,,,,l,1,1.5122,"[""0.082"",""0.367"",""0.665"",""0.699""]","[1,0,1,1]",0,56,56,56,1,1,1,,,0,FALSE,,,,,,,,,,,,,,,,,,,,,,,,,,,,,,
,6140b1340293f5c279c5eec1,001,2022-04-28_19h03.11.440,classification_task,2021.2.3,Win32,60.0240096,6140b1340293f5c279c5eec1,626b377229c10585ec392f8a,626b393c856ab59e38b0bad6,,,,,,,,,,,,,,,,,,,,,,,a,1,1.434,"[""0.452"",""0.534"",""0.884"",""0.969""]","[0,1,1,1]",0,57,57,57,1,0,1,,,0,FALSE,,,,,,,,,,,,,,,,,,,,,,,,,,,,,,
,6140b1340293f5c279c5eec1,001,2022-04-28_19h03.11.440,classification_task,2021.2.3,Win32,60.0240096,6140b1340293f5c279c5eec1,626b377229c10585ec392f8a,626b393c856ab59e38b0bad6,,,,,,,,,,,,,,,,,,,,,,,l,1,1.1841,"[""0.452"",""0.266"",""0.617"",""0.790""]","[0,1,1,1]",0,58,58,58,1,1,0,,,0,FALSE,,,,,,,,,,,,,,,,,,,,,,,,,,,,,,
,6140b1340293f5c279c5eec1,001,2022-04-28_19h03.11.440,classification_task,2021.2.3,Win32,60.0240096,6140b1340293f5c279c5eec1,626b377229c10585ec392f8a,626b393c856ab59e38b0bad6,,,,,,,,,,,,,,,,,,,,,,,l,1,1.9345,"[""0.082"",""0.192"",""0.665"",""0.043""]","[1,1,1,0]",0,59,59,59,1,1,1,,,0,FALSE,,,,,,,,,,,,,,,,,,,,,,,,,,,,,,
,6140b1340293f5c279c5eec1,001,2022-04-28_19h03.11.440,classification_task,2021.2.3,Win32,60.0240096,6140b1340293f5c279c5eec1,626b377229c10585ec392f8a,626b393c856ab59e38b0bad6,,,,,,,,,,,,,,,,,,,,,,,l,1,1.3705,"[""0.128"",""0.400"",""0.617"",""0.790""]","[1,0,1,1]",0,60,60,60,1,1,0,,,0,FALSE,,,,,,,,,,,,,,,,,,,,,,,,,,,,,,
,6140b1340293f5c279c5eec1,001,2022-04-28_19h03.11.440,classification_task,2021.2.3,Win32,60.0240096,6140b1340293f5c279c5eec1,626b377229c10585ec392f8a,626b393c856ab59e38b0bad6,,,,,,,,,,,,,,,,,,,,,,,a,1,1.0537,"[""0.231"",""0.534"",""0.884"",""0.351""]","[1,1,1,0]",0,61,61,61,1,0,1,,,0,FALSE,,,,,,,,,,,,,,,,,,,,,,,,,,,,,,
,6140b1340293f5c279c5eec1,001,2022-04-28_19h03.11.440,classification_task,2021.2.3,Win32,60.0240096,6140b1340293f5c279c5eec1,626b377229c10585ec392f8a,626b393c856ab59e38b0bad6,,,,,,,,,,,,,,,,,,,,,,,l,0,2.384,"[""0.367"",""0.495"",""0.838"",""0.931""]","[0,1,1,1]",0,62,62,62,1,0,0,,,0,FALSE,,,,,,,,,,,,,,,,,,,,,,,,,,,,,,
,6140b1340293f5c279c5eec1,001,2022-04-28_19h03.11.440,classification_task,2021.2.3,Win32,60.0240096,6140b1340293f5c279c5eec1,626b377229c10585ec392f8a,626b393c856ab59e38b0bad6,,,,,,,,,,,,,,,,,,,,,,,l,1,1.9703,"[""0.438"",""0.192"",""0.665"",""0.699""]","[0,1,1,1]",0,63,63,63,1,1,1,,,0,FALSE,,,,,,,,,,,,,,,,,,,,,,,,,,,,,,
,6140b1340293f5c279c5eec1,001,2022-04-28_19h03.11.440,classification_task,2021.2.3,Win32,60.0240096,6140b1340293f5c279c5eec1,626b377229c10585ec392f8a,626b393c856ab59e38b0bad6,,,,,,,,,,,,,,,,,,,,,,,,,,,,,,,,,,,,,,,0, ,,0,9.458161866,164.0875,0,2,2,2,1,2,3,,,,,,,,,,,,,,,,,
,6140b1340293f5c279c5eec1,001,2022-04-28_19h03.11.440,classification_task,2021.2.3,Win32,60.0240096,6140b1340293f5c279c5eec1,626b377229c10585ec392f8a,626b393c856ab59e38b0bad6,,,,,,,,,,,,,,,,,,,,,,,,,,,,,,,,,,,,,,,1,  ,,0,9.066235548,165.4812,0,2,2,2,1,2,3,,,,,,,,,,,,,,,,,
,6140b1340293f5c279c5eec1,001,2022-04-28_19h03.11.440,classification_task,2021.2.3,Win32,60.0240096,6140b1340293f5c279c5eec1,626b377229c10585ec392f8a,626b393c856ab59e38b0bad6,,,,,,,,,,,,,,,,,,,,,,,,,,,,,,,,,,,,,,,2,  ,,0,5,168.1806,0,2,2,2,1,2,3,,,,,,,,,,,,,,,,,
,6140b1340293f5c279c5eec1,001,2022-04-28_19h03.11.440,classification_task,2021.2.3,Win32,60.0240096,6140b1340293f5c279c5eec1,626b377229c10585ec392f8a,626b393c856ab59e38b0bad6,,,,,,,,,,,,,,,,,,,,,,,,,,,,,,,,,,,,,,,,,,,,,0,2,2,2,1,,3,,,,,,,,,,,,,,,,,
,6140b1340293f5c279c5eec1,001,2022-04-28_19h03.11.440,classification_task,2021.2.3,Win32,60.0240096,6140b1340293f5c279c5eec1,626b377229c10585ec392f8a,626b393c856ab59e38b0bad6,,,,,,,,,,,,,,,,,,,,,,,,,,,,,,,,,,,,,,,,,,,,,,,,,,,,,I believe the aid is a competent performer,,0.7,0,3,821.5487,0,0,0,0,1,0,,,,
,6140b1340293f5c279c5eec1,001,2022-04-28_19h03.11.440,classification_task,2021.2.3,Win32,60.0240096,6140b1340293f5c279c5eec1,626b377229c10585ec392f8a,626b393c856ab59e38b0bad6,,,,,,,,,,,,,,,,,,,,,,,,,,,,,,,,,,,,,,,,,,,,,,,,,,,,,I trust the aid,,0.7,0,3,833.2718,0,0,0,0,1,0,,,,
,6140b1340293f5c279c5eec1,001,2022-04-28_19h03.11.440,classification_task,2021.2.3,Win32,60.0240096,6140b1340293f5c279c5eec1,626b377229c10585ec392f8a,626b393c856ab59e38b0bad6,,,,,,,,,,,,,,,,,,,,,,,,,,,,,,,,,,,,,,,,,,,,,,,,,,,,,I have confidence in the advice given by the aid,,0.7,0,3,831.6535,0,0,0,0,1,0,,,,
,6140b1340293f5c279c5eec1,001,2022-04-28_19h03.11.440,classification_task,2021.2.3,Win32,60.0240096,6140b1340293f5c279c5eec1,626b377229c10585ec392f8a,626b393c856ab59e38b0bad6,,,,,,,,,,,,,,,,,,,,,,,,,,,,,,,,,,,,,,,,,,,,,,,,,,,,,I can depend on the aid,,0.7,0,4,840.7859,0,0,0,0,1,0,,,,
,6140b1340293f5c279c5eec1,001,2022-04-28_19h03.11.440,classification_task,2021.2.3,Win32,60.0240096,6140b1340293f5c279c5eec1,626b377229c10585ec392f8a,626b393c856ab59e38b0bad6,,,,,,,,,,,,,,,,,,,,,,,,,,,,,,,,,,,,,,,,,,,,,,,,,,,,,I can rely on the aid to behave in consistent ways,,0.7,0,4,840.1921,0,0,0,0,1,0,,,,
,6140b1340293f5c279c5eec1,001,2022-04-28_19h03.11.440,classification_task,2021.2.3,Win32,60.0240096,6140b1340293f5c279c5eec1,626b377229c10585ec392f8a,626b393c856ab59e38b0bad6,,,,,,,,,,,,,,,,,,,,,,,,,,,,,,,,,,,,,,,,,,,,,,,,,,,,,I can rely on the aid to do its best every time I take its advice,,0.7,0,3,843.5495,0,0,0,0,1,0,,,,
,6140b1340293f5c279c5eec1,001,2022-04-28_19h03.11.440,classification_task,2021.2.3,Win32,60.0240096,6140b1340293f5c279c5eec1,626b377229c10585ec392f8a,626b393c856ab59e38b0bad6,,,,,,,,,,,,,,,,,,,,,,,,,,,,,,,,,,,,,,,,,,,,,,,,,,,,,"On trials you completed with assistance from the aid, how frequently did you think the aid was correct?",,0.7,0,70%,,0,0,0,0,1,0,,,,
,6140b1340293f5c279c5eec1,001,2022-04-28_19h03.11.440,classification_task,2021.2.3,Win32,60.0240096,6140b1340293f5c279c5eec1,626b377229c10585ec392f8a,626b393c856ab59e38b0bad6,,,,,,,,,,,,,,,,,,,,,,,,,,,,,,,,,,,,,,,,,,,,,,,,,,,,,"On trials you completed without the aid, how frequently did you think you were correct?",,0.7,0,50%,,0,0,0,0,1,0,,,,
,6140b1340293f5c279c5eec1,001,2022-04-28_19h03.11.440,classification_task,2021.2.3,Win32,60.0240096,6140b1340293f5c279c5eec1,626b377229c10585ec392f8a,626b393c856ab59e38b0bad6,,,,,,,,,,,,,,,,,,,,,,,,,,,,,,,,,,,,,,,,,,,,,,,,,,,,,,,,,,,0,0,0,0,1,,,,,
,6140b1340293f5c279c5eec1,001,2022-04-28_19h03.11.440,classification_task,2021.2.3,Win32,60.0240096,6140b1340293f5c279c5eec1,626b377229c10585ec392f8a,626b393c856ab59e38b0bad6,,,,,,,,,,,,,,,,,,,,,,,,,,,,,,,,,,,,,,,,,,,,,,,,,,,,,,,,,,,,,,,,,space,15.9877,880.0587,
,6140b1340293f5c279c5eec1,001,2022-04-28_19h03.11.440,classification_task,2021.2.3,Win32,60.0240096,6140b1340293f5c279c5eec1,626b377229c10585ec392f8a,626b393c856ab59e38b0bad6,,,,,,,,,,,,,,,,,,,,,,,,,,,,,,,,,,,,,,,,,,,,,,,,,,,,,,,,,,,,,,,,,,,,"Mozilla/5.0 (Windows NT 10.0; Win64; x64) AppleWebKit/537.36 (KHTML, like Gecko) Chrome/100.0.4896.127 Safari/537.36"
