usingWebGL,participant,session,date,expName,psychopyVersion,OS,frameRate,study_id,signatures_friend,signatures_foe,band_ranges_top,band_ranges_bottom,formitemText,formtype,formundefined,formitemWidth,formindex,formresponse,formrt,key_resp_2.keys,key_resp_2.rt,tute_resp.keys,tute_resp.rt,tutorial.thisRepN,tutorial.thisTrialN,tutorial.thisN,tutorial.thisIndex,tutorial.ran,key_resp_4.keys,key_resp_4.rt,key_resp.keys,key_resp.corr,lines_presented,is_signal_presented,trials.thisRepN,trials.thisTrialN,trials.thisN,trials.thisIndex,trials.ran,vessel,active_band,lines,is_signal,supported_pos,catch_trial,key_resp.rt,debrief_formindex,debrief_formitemText,debrief_formtype,debrief_formitemWidth,debrief_formresponse,debrief_formrt,phases.thisRepN,phases.thisTrialN,phases.thisN,phases.thisIndex,phases.ran,phases.order,phase,key_resp_3.keys,trustitemText,trusttype,trustitemWidth,trustindex,trustresponse,trustrt,support_status.thisRepN,support_status.thisTrialN,support_status.thisN,support_status.thisIndex,support_status.ran,support_status.order,key_resp_5.keys,key_resp_5.rt,globalClockTime,userAgent,manualCondition
TRUE,61400425790ab5dbef568393,627c70350eb3f1ceba2920d6,2022-05-11_21h26.30.542,classification_task,2021.2.3,Win32,59.95922773,627c6715c52fd12f31907bd0,,,,,,,,,,,,,,,,,,,,,,,,,,,,,,,,,,,,,,,,,,,,,,,,,,,,,,,,,,,,,,,,,,,,,
,61400425790ab5dbef568393,627c70350eb3f1ceba2920d6,2022-05-11_21h26.30.542,classification_task,2021.2.3,Win32,59.95922773,627c6715c52fd12f31907bd0,"[[""0.192"",""0.473"",""0.845"",""0.902""],[""0.305"",""0.357"",""0.938"",""0.974""]]","[[""0.092"",""0.271"",""0.555"",""0.690""],[""0.031"",""0.411"",""0.645"",""0.790""]]","[1,10]","[100,1000]",Video game experience,,,0.7,0,,,,,,,,,,,,,,,,,,,,,,,,,,,,,,,,,,,,,,,,,,,,,,,,,,,,,,,,,,,,
,61400425790ab5dbef568393,627c70350eb3f1ceba2920d6,2022-05-11_21h26.30.542,classification_task,2021.2.3,Win32,59.95922773,627c6715c52fd12f31907bd0,,,,,Approximately how many hours did you spend playing video games in the last week?,,,0.7,0,2,,,,,,,,,,,,,,,,,,,,,,,,,,,,,,,,,,,,,,,,,,,,,,,,,,,,,,,,,,,
,61400425790ab5dbef568393,627c70350eb3f1ceba2920d6,2022-05-11_21h26.30.542,classification_task,2021.2.3,Win32,59.95922773,627c6715c52fd12f31907bd0,,,,,"Which game did you play the most this year? (Enter ""None"" if you didn't play any)",,,0.7,0,Detroit: Become Human,,,,,,,,,,,,,,,,,,,,,,,,,,,,,,,,,,,,,,,,,,,,,,,,,,,,,,,,,,,
,61400425790ab5dbef568393,627c70350eb3f1ceba2920d6,2022-05-11_21h26.30.542,classification_task,2021.2.3,Win32,59.95922773,627c6715c52fd12f31907bd0,,,,,Visual perception,,,0.7,0,,,,,,,,,,,,,,,,,,,,,,,,,,,,,,,,,,,,,,,,,,,,,,,,,,,,,,,,,,,,
,61400425790ab5dbef568393,627c70350eb3f1ceba2920d6,2022-05-11_21h26.30.542,classification_task,2021.2.3,Win32,59.95922773,627c6715c52fd12f31907bd0,,,,,Do you have any form of color blindness?,,,0.7,0,No,175.0024,,,,,,,,,,,,,,,,,,,,,,,,,,,,,,,,,,,,,,,,,,,,,,,,,,,,,,,,,,
,61400425790ab5dbef568393,627c70350eb3f1ceba2920d6,2022-05-11_21h26.30.542,classification_task,2021.2.3,Win32,59.95922773,627c6715c52fd12f31907bd0,,,,,Do you use software to change the colour temperature of your screen (e.g. f.lux)?,,,0.7,0,No,178.3171,,,,,,,,,,,,,,,,,,,,,,,,,,,,,,,,,,,,,,,,,,,,,,,,,,,,,,,,,,
,61400425790ab5dbef568393,627c70350eb3f1ceba2920d6,2022-05-11_21h26.30.542,classification_task,2021.2.3,Win32,59.95922773,627c6715c52fd12f31907bd0,,,,,,,,,,,,space,36.6205,space,16.2117,0,0,0,0,1,,,,,,,,,,,,,,,,,,,,,,,,,,,,,,,,,,,,,,,,,,,,,,,,,
,61400425790ab5dbef568393,627c70350eb3f1ceba2920d6,2022-05-11_21h26.30.542,classification_task,2021.2.3,Win32,59.95922773,627c6715c52fd12f31907bd0,,,,,,,,,,,,,,space,10.5121,1,0,1,0,1,,,,,,,,,,,,,,,,,,,,,,,,,,,,,,,,,,,,,,,,,,,,,,,,,
,61400425790ab5dbef568393,627c70350eb3f1ceba2920d6,2022-05-11_21h26.30.542,classification_task,2021.2.3,Win32,59.95922773,627c6715c52fd12f31907bd0,,,,,,,,,,,,,,space,50.1595,2,0,2,0,1,,,,,,,,,,,,,,,,,,,,,,,,,,,,,,,,,,,,,,,,,,,,,,,,,
,61400425790ab5dbef568393,627c70350eb3f1ceba2920d6,2022-05-11_21h26.30.542,classification_task,2021.2.3,Win32,59.95922773,627c6715c52fd12f31907bd0,,,,,,,,,,,,,,space,17.3634,3,0,3,0,1,,,,,,,,,,,,,,,,,,,,,,,,,,,,,,,,,,,,,,,,,,,,,,,,,
,61400425790ab5dbef568393,627c70350eb3f1ceba2920d6,2022-05-11_21h26.30.542,classification_task,2021.2.3,Win32,59.95922773,627c6715c52fd12f31907bd0,,,,,,,,,,,,,,space,21.0627,4,0,4,0,1,,,,,,,,,,,,,,,,,,,,,,,,,,,,,,,,,,,,,,,,,,,,,,,,,
,61400425790ab5dbef568393,627c70350eb3f1ceba2920d6,2022-05-11_21h26.30.542,classification_task,2021.2.3,Win32,59.95922773,627c6715c52fd12f31907bd0,,,,,,,,,,,,,,,,,,,,,space,62.4091,,0,"[""0.305"",""0.357"",""0.938"",""0.151""]","[1,1,1,0]",0,0,0,0,1,0,1,,,0,FALSE,,,,,,,,,,,,,,,,,,,,,,,,,,,,,,,,
,61400425790ab5dbef568393,627c70350eb3f1ceba2920d6,2022-05-11_21h26.30.542,classification_task,2021.2.3,Win32,59.95922773,627c6715c52fd12f31907bd0,,,,,,,,,,,,,,,,,,,,,,,l,1,"[""0.031"",""0.411"",""0.645"",""0.589""]","[1,1,1,0]",0,1,1,1,1,1,1,,,0,FALSE,5.2839,,,,,,,,,,,,,,,,,,,,,,,,,,,,,,,
,61400425790ab5dbef568393,627c70350eb3f1ceba2920d6,2022-05-11_21h26.30.542,classification_task,2021.2.3,Win32,59.95922773,627c6715c52fd12f31907bd0,,,,,,,,,,,,,,,,,,,,,,,a,1,"[""0.192"",""0.516"",""0.845"",""0.902""]","[1,0,1,1]",0,2,2,2,1,0,0,,,0,FALSE,4.639,,,,,,,,,,,,,,,,,,,,,,,,,,,,,,,
,61400425790ab5dbef568393,627c70350eb3f1ceba2920d6,2022-05-11_21h26.30.542,classification_task,2021.2.3,Win32,59.95922773,627c6715c52fd12f31907bd0,,,,,,,,,,,,,,,,,,,,,,,a,0,"[""0.143"",""0.271"",""0.555"",""0.690""]","[0,1,1,1]",0,3,3,3,1,1,0,,,0,FALSE,7.2076,,,,,,,,,,,,,,,,,,,,,,,,,,,,,,,
,61400425790ab5dbef568393,627c70350eb3f1ceba2920d6,2022-05-11_21h26.30.542,classification_task,2021.2.3,Win32,59.95922773,627c6715c52fd12f31907bd0,,,,,,,,,,,,,,,,,,,,,,,a,1,"[""0.192"",""0.473"",""0.516"",""0.902""]","[1,1,0,1]",0,4,4,4,1,0,0,,,0,FALSE,4.2227,,,,,,,,,,,,,,,,,,,,,,,,,,,,,,,
,61400425790ab5dbef568393,627c70350eb3f1ceba2920d6,2022-05-11_21h26.30.542,classification_task,2021.2.3,Win32,59.95922773,627c6715c52fd12f31907bd0,,,,,,,,,,,,,,,,,,,,,,,l,1,"[""0.031"",""0.589"",""0.645"",""0.790""]","[1,0,1,1]",0,5,5,5,1,1,1,,,0,FALSE,6.7712,,,,,,,,,,,,,,,,,,,,,,,,,,,,,,,
,61400425790ab5dbef568393,627c70350eb3f1ceba2920d6,2022-05-11_21h26.30.542,classification_task,2021.2.3,Win32,59.95922773,627c6715c52fd12f31907bd0,,,,,,,,,,,,,,,,,,,,,,,l,1,"[""0.092"",""0.271"",""0.729"",""0.690""]","[1,1,0,1]",0,6,6,6,1,1,0,,,0,FALSE,5.6355,,,,,,,,,,,,,,,,,,,,,,,,,,,,,,,
,61400425790ab5dbef568393,627c70350eb3f1ceba2920d6,2022-05-11_21h26.30.542,classification_task,2021.2.3,Win32,59.95922773,627c6715c52fd12f31907bd0,,,,,,,,,,,,,,,,,,,,,,,,0,"[""0.508"",""0.357"",""0.938"",""0.974""]","[0,1,1,1]",0,7,7,7,1,0,1,,,0,FALSE,,,,,,,,,,,,,,,,,,,,,,,,,,,,,,,,
,61400425790ab5dbef568393,627c70350eb3f1ceba2920d6,2022-05-11_21h26.30.542,classification_task,2021.2.3,Win32,59.95922773,627c6715c52fd12f31907bd0,,,,,,,,,,,,,,,,,,,,,,,l,1,"[""0.092"",""0.141"",""0.555"",""0.690""]","[1,0,1,1]",0,8,8,8,1,1,0,,,0,FALSE,7.2931,,,,,,,,,,,,,,,,,,,,,,,,,,,,,,,
,61400425790ab5dbef568393,627c70350eb3f1ceba2920d6,2022-05-11_21h26.30.542,classification_task,2021.2.3,Win32,59.95922773,627c6715c52fd12f31907bd0,,,,,,,,,,,,,,,,,,,,,,,a,1,"[""0.192"",""0.473"",""0.845"",""0.151""]","[1,1,1,0]",0,9,9,9,1,0,0,,,0,FALSE,6.6507,,,,,,,,,,,,,,,,,,,,,,,,,,,,,,,
,61400425790ab5dbef568393,627c70350eb3f1ceba2920d6,2022-05-11_21h26.30.542,classification_task,2021.2.3,Win32,59.95922773,627c6715c52fd12f31907bd0,,,,,,,,,,,,,,,,,,,,,,,l,1,"[""0.092"",""0.271"",""0.555"",""0.592""]","[1,1,1,0]",0,10,10,10,1,1,0,,,0,FALSE,5.2698,,,,,,,,,,,,,,,,,,,,,,,,,,,,,,,
,61400425790ab5dbef568393,627c70350eb3f1ceba2920d6,2022-05-11_21h26.30.542,classification_task,2021.2.3,Win32,59.95922773,627c6715c52fd12f31907bd0,,,,,,,,,,,,,,,,,,,,,,,a,1,"[""0.143"",""0.473"",""0.845"",""0.902""]","[0,1,1,1]",0,11,11,11,1,0,0,,,0,FALSE,6.561,,,,,,,,,,,,,,,,,,,,,,,,,,,,,,,
,61400425790ab5dbef568393,627c70350eb3f1ceba2920d6,2022-05-11_21h26.30.542,classification_task,2021.2.3,Win32,59.95922773,627c6715c52fd12f31907bd0,,,,,,,,,,,,,,,,,,,,,,,l,1,"[""0.519"",""0.411"",""0.645"",""0.790""]","[0,1,1,1]",0,12,12,12,1,1,1,,,0,FALSE,8.453,,,,,,,,,,,,,,,,,,,,,,,,,,,,,,,
,61400425790ab5dbef568393,627c70350eb3f1ceba2920d6,2022-05-11_21h26.30.542,classification_task,2021.2.3,Win32,59.95922773,627c6715c52fd12f31907bd0,,,,,,,,,,,,,,,,,,,,,,,a,1,"[""0.305"",""0.357"",""0.592"",""0.974""]","[1,1,0,1]",0,13,13,13,1,0,1,,,0,FALSE,4.6891,,,,,,,,,,,,,,,,,,,,,,,,,,,,,,,
,61400425790ab5dbef568393,627c70350eb3f1ceba2920d6,2022-05-11_21h26.30.542,classification_task,2021.2.3,Win32,59.95922773,627c6715c52fd12f31907bd0,,,,,,,,,,,,,,,,,,,,,,,l,1,"[""0.031"",""0.411"",""0.131"",""0.790""]","[1,1,0,1]",0,14,14,14,1,1,1,,,0,FALSE,6.7987,,,,,,,,,,,,,,,,,,,,,,,,,,,,,,,
,61400425790ab5dbef568393,627c70350eb3f1ceba2920d6,2022-05-11_21h26.30.542,classification_task,2021.2.3,Win32,59.95922773,627c6715c52fd12f31907bd0,,,,,,,,,,,,,,,,,,,,,,,a,1,"[""0.305"",""0.516"",""0.938"",""0.974""]","[1,0,1,1]",0,15,15,15,1,0,1,,,0,FALSE,7.1188,,,,,,,,,,,,,,,,,,,,,,,,,,,,,,,
,61400425790ab5dbef568393,627c70350eb3f1ceba2920d6,2022-05-11_21h26.30.542,classification_task,2021.2.3,Win32,59.95922773,627c6715c52fd12f31907bd0,,,,,,,,,,,,,,,,,,,,,,,l,1,"[""0.031"",""0.508"",""0.645"",""0.790""]","[1,0,1,1]",0,16,16,16,1,1,1,,,0,FALSE,5.4298,,,,,,,,,,,,,,,,,,,,,,,,,,,,,,,
,61400425790ab5dbef568393,627c70350eb3f1ceba2920d6,2022-05-11_21h26.30.542,classification_task,2021.2.3,Win32,59.95922773,627c6715c52fd12f31907bd0,,,,,,,,,,,,,,,,,,,,,,,l,1,"[""0.031"",""0.411"",""0.589"",""0.790""]","[1,1,0,1]",0,17,17,17,1,1,1,,,0,FALSE,3.7108,,,,,,,,,,,,,,,,,,,,,,,,,,,,,,,
,61400425790ab5dbef568393,627c70350eb3f1ceba2920d6,2022-05-11_21h26.30.542,classification_task,2021.2.3,Win32,59.95922773,627c6715c52fd12f31907bd0,,,,,,,,,,,,,,,,,,,,,,,a,1,"[""0.305"",""0.357"",""0.938"",""0.508""]","[1,1,1,0]",0,18,18,18,1,0,1,,,0,FALSE,4.0972,,,,,,,,,,,,,,,,,,,,,,,,,,,,,,,
,61400425790ab5dbef568393,627c70350eb3f1ceba2920d6,2022-05-11_21h26.30.542,classification_task,2021.2.3,Win32,59.95922773,627c6715c52fd12f31907bd0,,,,,,,,,,,,,,,,,,,,,,,l,1,"[""0.508"",""0.271"",""0.555"",""0.690""]","[0,1,1,1]",0,19,19,19,1,1,0,,,0,FALSE,5.323,,,,,,,,,,,,,,,,,,,,,,,,,,,,,,,
,61400425790ab5dbef568393,627c70350eb3f1ceba2920d6,2022-05-11_21h26.30.542,classification_task,2021.2.3,Win32,59.95922773,627c6715c52fd12f31907bd0,,,,,,,,,,,,,,,,,,,,,,,l,1,"[""0.031"",""0.411"",""0.645"",""0.756""]","[1,1,1,0]",0,20,20,20,1,1,1,,,0,FALSE,7.1,,,,,,,,,,,,,,,,,,,,,,,,,,,,,,,
,61400425790ab5dbef568393,627c70350eb3f1ceba2920d6,2022-05-11_21h26.30.542,classification_task,2021.2.3,Win32,59.95922773,627c6715c52fd12f31907bd0,,,,,,,,,,,,,,,,,,,,,,,a,1,"[""0.305"",""0.357"",""0.756"",""0.974""]","[1,1,0,1]",0,21,21,21,1,0,1,,,0,FALSE,3.1967,,,,,,,,,,,,,,,,,,,,,,,,,,,,,,,
,61400425790ab5dbef568393,627c70350eb3f1ceba2920d6,2022-05-11_21h26.30.542,classification_task,2021.2.3,Win32,59.95922773,627c6715c52fd12f31907bd0,,,,,,,,,,,,,,,,,,,,,,,a,1,"[""0.305"",""0.519"",""0.938"",""0.974""]","[1,0,1,1]",0,22,22,22,1,0,1,,,0,FALSE,6.6134,,,,,,,,,,,,,,,,,,,,,,,,,,,,,,,
,61400425790ab5dbef568393,627c70350eb3f1ceba2920d6,2022-05-11_21h26.30.542,classification_task,2021.2.3,Win32,59.95922773,627c6715c52fd12f31907bd0,,,,,,,,,,,,,,,,,,,,,,,l,1,"[""0.131"",""0.411"",""0.645"",""0.790""]","[0,1,1,1]",0,23,23,23,1,1,1,,,0,FALSE,5.4445,,,,,,,,,,,,,,,,,,,,,,,,,,,,,,,
,61400425790ab5dbef568393,627c70350eb3f1ceba2920d6,2022-05-11_21h26.30.542,classification_task,2021.2.3,Win32,59.95922773,627c6715c52fd12f31907bd0,,,,,,,,,,,,,,,,,,,,,,,a,1,"[""0.192"",""0.473"",""0.845"",""0.141""]","[1,1,1,0]",0,24,24,24,1,0,0,,,0,FALSE,4.6037,,,,,,,,,,,,,,,,,,,,,,,,,,,,,,,
,61400425790ab5dbef568393,627c70350eb3f1ceba2920d6,2022-05-11_21h26.30.542,classification_task,2021.2.3,Win32,59.95922773,627c6715c52fd12f31907bd0,,,,,,,,,,,,,,,,,,,,,,,l,1,"[""0.092"",""0.271"",""0.589"",""0.690""]","[1,1,0,1]",0,25,25,25,1,1,0,,,0,FALSE,3.2907,,,,,,,,,,,,,,,,,,,,,,,,,,,,,,,
,61400425790ab5dbef568393,627c70350eb3f1ceba2920d6,2022-05-11_21h26.30.542,classification_task,2021.2.3,Win32,59.95922773,627c6715c52fd12f31907bd0,,,,,,,,,,,,,,,,,,,,,,,l,1,"[""0.092"",""0.271"",""0.555"",""0.139""]","[1,1,1,0]",0,26,26,26,1,1,0,,,0,FALSE,5.3736,,,,,,,,,,,,,,,,,,,,,,,,,,,,,,,
,61400425790ab5dbef568393,627c70350eb3f1ceba2920d6,2022-05-11_21h26.30.542,classification_task,2021.2.3,Win32,59.95922773,627c6715c52fd12f31907bd0,,,,,,,,,,,,,,,,,,,,,,,a,1,"[""0.756"",""0.473"",""0.845"",""0.902""]","[0,1,1,1]",0,27,27,27,1,0,0,,,0,FALSE,7.6412,,,,,,,,,,,,,,,,,,,,,,,,,,,,,,,
,61400425790ab5dbef568393,627c70350eb3f1ceba2920d6,2022-05-11_21h26.30.542,classification_task,2021.2.3,Win32,59.95922773,627c6715c52fd12f31907bd0,,,,,,,,,,,,,,,,,,,,,,,a,1,"[""0.192"",""0.473"",""0.143"",""0.902""]","[1,1,0,1]",0,28,28,28,1,0,0,,,0,FALSE,5.6486,,,,,,,,,,,,,,,,,,,,,,,,,,,,,,,
,61400425790ab5dbef568393,627c70350eb3f1ceba2920d6,2022-05-11_21h26.30.542,classification_task,2021.2.3,Win32,59.95922773,627c6715c52fd12f31907bd0,,,,,,,,,,,,,,,,,,,,,,,a,1,"[""0.756"",""0.357"",""0.938"",""0.974""]","[0,1,1,1]",0,29,29,29,1,0,1,,,0,FALSE,8.0083,,,,,,,,,,,,,,,,,,,,,,,,,,,,,,,
,61400425790ab5dbef568393,627c70350eb3f1ceba2920d6,2022-05-11_21h26.30.542,classification_task,2021.2.3,Win32,59.95922773,627c6715c52fd12f31907bd0,,,,,,,,,,,,,,,,,,,,,,,l,1,"[""0.092"",""0.141"",""0.555"",""0.690""]","[1,0,1,1]",0,30,30,30,1,1,0,,,0,FALSE,7.0699,,,,,,,,,,,,,,,,,,,,,,,,,,,,,,,
,61400425790ab5dbef568393,627c70350eb3f1ceba2920d6,2022-05-11_21h26.30.542,classification_task,2021.2.3,Win32,59.95922773,627c6715c52fd12f31907bd0,,,,,,,,,,,,,,,,,,,,,,,a,1,"[""0.192"",""0.756"",""0.845"",""0.902""]","[1,0,1,1]",0,31,31,31,1,0,0,,,0,FALSE,6.1977,,,,,,,,,,,,,,,,,,,,,,,,,,,,,,,
,61400425790ab5dbef568393,627c70350eb3f1ceba2920d6,2022-05-11_21h26.30.542,classification_task,2021.2.3,Win32,59.95922773,627c6715c52fd12f31907bd0,,,,,,,,,,,,,,,,,,,,,,,a,1,"[""0.305"",""0.600"",""0.938"",""0.974""]","[1,0,1,1]",0,32,32,32,1,0,1,,,0,FALSE,7.3767,,,,,,,,,,,,,,,,,,,,,,,,,,,,,,,
,61400425790ab5dbef568393,627c70350eb3f1ceba2920d6,2022-05-11_21h26.30.542,classification_task,2021.2.3,Win32,59.95922773,627c6715c52fd12f31907bd0,,,,,,,,,,,,,,,,,,,,,,,l,1,"[""0.031"",""0.411"",""0.645"",""0.756""]","[1,1,1,0]",0,33,33,33,1,1,1,,,0,FALSE,3.923,,,,,,,,,,,,,,,,,,,,,,,,,,,,,,,
,61400425790ab5dbef568393,627c70350eb3f1ceba2920d6,2022-05-11_21h26.30.542,classification_task,2021.2.3,Win32,59.95922773,627c6715c52fd12f31907bd0,,,,,,,,,,,,,,,,,,,,,,,l,1,"[""0.729"",""0.271"",""0.555"",""0.690""]","[0,1,1,1]",0,34,34,34,1,1,0,,,0,FALSE,3.6398,,,,,,,,,,,,,,,,,,,,,,,,,,,,,,,
,61400425790ab5dbef568393,627c70350eb3f1ceba2920d6,2022-05-11_21h26.30.542,classification_task,2021.2.3,Win32,59.95922773,627c6715c52fd12f31907bd0,,,,,,,,,,,,,,,,,,,,,,,l,1,"[""0.092"",""0.143"",""0.555"",""0.690""]","[1,0,1,1]",0,35,35,35,1,1,0,,,0,FALSE,2.6074,,,,,,,,,,,,,,,,,,,,,,,,,,,,,,,
,61400425790ab5dbef568393,627c70350eb3f1ceba2920d6,2022-05-11_21h26.30.542,classification_task,2021.2.3,Win32,59.95922773,627c6715c52fd12f31907bd0,,,,,,,,,,,,,,,,,,,,,,,l,1,"[""0.031"",""0.411"",""0.756"",""0.790""]","[1,1,0,1]",0,36,36,36,1,1,1,,,0,FALSE,4.1893,,,,,,,,,,,,,,,,,,,,,,,,,,,,,,,
,61400425790ab5dbef568393,627c70350eb3f1ceba2920d6,2022-05-11_21h26.30.542,classification_task,2021.2.3,Win32,59.95922773,627c6715c52fd12f31907bd0,,,,,,,,,,,,,,,,,,,,,,,l,0,"[""0.305"",""0.357"",""0.756"",""0.974""]","[1,1,0,1]",0,37,37,37,1,0,1,,,0,FALSE,4.1955,,,,,,,,,,,,,,,,,,,,,,,,,,,,,,,
,61400425790ab5dbef568393,627c70350eb3f1ceba2920d6,2022-05-11_21h26.30.542,classification_task,2021.2.3,Win32,59.95922773,627c6715c52fd12f31907bd0,,,,,,,,,,,,,,,,,,,,,,,l,0,"[""0.305"",""0.357"",""0.938"",""0.138""]","[1,1,1,0]",0,38,38,38,1,0,1,,,0,FALSE,3.2401,,,,,,,,,,,,,,,,,,,,,,,,,,,,,,,
,61400425790ab5dbef568393,627c70350eb3f1ceba2920d6,2022-05-11_21h26.30.542,classification_task,2021.2.3,Win32,59.95922773,627c6715c52fd12f31907bd0,,,,,,,,,,,,,,,,,,,,,,,a,1,"[""0.192"",""0.473"",""0.845"",""0.519""]","[1,1,1,0]",0,39,39,39,1,0,0,,,0,FALSE,3.8893,,,,,,,,,,,,,,,,,,,,,,,,,,,,,,,
,61400425790ab5dbef568393,627c70350eb3f1ceba2920d6,2022-05-11_21h26.30.542,classification_task,2021.2.3,Win32,59.95922773,627c6715c52fd12f31907bd0,,,,,,,,,,,,,,,,,,,,,,,l,0,"[""0.192"",""0.473"",""0.151"",""0.902""]","[1,1,0,1]",0,40,40,40,1,0,0,,,0,FALSE,4.168,,,,,,,,,,,,,,,,,,,,,,,,,,,,,,,
,61400425790ab5dbef568393,627c70350eb3f1ceba2920d6,2022-05-11_21h26.30.542,classification_task,2021.2.3,Win32,59.95922773,627c6715c52fd12f31907bd0,,,,,,,,,,,,,,,,,,,,,,,l,1,"[""0.031"",""0.151"",""0.645"",""0.790""]","[1,0,1,1]",0,41,41,41,1,1,1,,,0,FALSE,3.239,,,,,,,,,,,,,,,,,,,,,,,,,,,,,,,
,61400425790ab5dbef568393,627c70350eb3f1ceba2920d6,2022-05-11_21h26.30.542,classification_task,2021.2.3,Win32,59.95922773,627c6715c52fd12f31907bd0,,,,,,,,,,,,,,,,,,,,,,,a,1,"[""0.139"",""0.473"",""0.845"",""0.902""]","[0,1,1,1]",0,42,42,42,1,0,0,,,0,FALSE,4.5075,,,,,,,,,,,,,,,,,,,,,,,,,,,,,,,
,61400425790ab5dbef568393,627c70350eb3f1ceba2920d6,2022-05-11_21h26.30.542,classification_task,2021.2.3,Win32,59.95922773,627c6715c52fd12f31907bd0,,,,,,,,,,,,,,,,,,,,,,,a,0,"[""0.092"",""0.271"",""0.139"",""0.690""]","[1,1,0,1]",0,43,43,43,1,1,0,,,0,FALSE,5.0248,,,,,,,,,,,,,,,,,,,,,,,,,,,,,,,
,61400425790ab5dbef568393,627c70350eb3f1ceba2920d6,2022-05-11_21h26.30.542,classification_task,2021.2.3,Win32,59.95922773,627c6715c52fd12f31907bd0,,,,,,,,,,,,,,,,,,,,,,,a,1,"[""0.192"",""0.729"",""0.845"",""0.902""]","[1,0,1,1]",0,44,44,44,1,0,0,,,0,FALSE,3.4908,,,,,,,,,,,,,,,,,,,,,,,,,,,,,,,
,61400425790ab5dbef568393,627c70350eb3f1ceba2920d6,2022-05-11_21h26.30.542,classification_task,2021.2.3,Win32,59.95922773,627c6715c52fd12f31907bd0,,,,,,,,,,,,,,,,,,,,,,,l,1,"[""0.092"",""0.271"",""0.555"",""0.743""]","[1,1,1,0]",0,45,45,45,1,1,0,,,0,FALSE,3.0401,,,,,,,,,,,,,,,,,,,,,,,,,,,,,,,
,61400425790ab5dbef568393,627c70350eb3f1ceba2920d6,2022-05-11_21h26.30.542,classification_task,2021.2.3,Win32,59.95922773,627c6715c52fd12f31907bd0,,,,,,,,,,,,,,,,,,,,,,,a,1,"[""0.592"",""0.357"",""0.938"",""0.974""]","[0,1,1,1]",0,46,46,46,1,0,1,,,0,FALSE,3.706,,,,,,,,,,,,,,,,,,,,,,,,,,,,,,,
,61400425790ab5dbef568393,627c70350eb3f1ceba2920d6,2022-05-11_21h26.30.542,classification_task,2021.2.3,Win32,59.95922773,627c6715c52fd12f31907bd0,,,,,,,,,,,,,,,,,,,,,,,l,1,"[""0.141"",""0.411"",""0.645"",""0.790""]","[0,1,1,1]",0,47,47,47,1,1,1,,,0,FALSE,5.6741,,,,,,,,,,,,,,,,,,,,,,,,,,,,,,,
,61400425790ab5dbef568393,627c70350eb3f1ceba2920d6,2022-05-11_21h26.30.542,classification_task,2021.2.3,Win32,59.95922773,627c6715c52fd12f31907bd0,,,,,,,,,,,,,,,,,,,,,,,l,1,"[""0.031"",""0.131"",""0.645"",""0.790""]","[1,0,1,1]",0,48,48,48,1,1,1,,,0,FALSE,3.5735,,,,,,,,,,,,,,,,,,,,,,,,,,,,,,,
,61400425790ab5dbef568393,627c70350eb3f1ceba2920d6,2022-05-11_21h26.30.542,classification_task,2021.2.3,Win32,59.95922773,627c6715c52fd12f31907bd0,,,,,,,,,,,,,,,,,,,,,,,a,1,"[""0.192"",""0.153"",""0.845"",""0.902""]","[1,0,1,1]",0,49,49,49,1,0,0,,,0,FALSE,3.0563,,,,,,,,,,,,,,,,,,,,,,,,,,,,,,,
,61400425790ab5dbef568393,627c70350eb3f1ceba2920d6,2022-05-11_21h26.30.542,classification_task,2021.2.3,Win32,59.95922773,627c6715c52fd12f31907bd0,,,,,,,,,,,,,,,,,,,,,,,l,0,"[""0.305"",""0.357"",""0.938"",""0.519""]","[1,1,1,0]",0,50,50,50,1,0,1,,,0,FALSE,6.3063,,,,,,,,,,,,,,,,,,,,,,,,,,,,,,,
,61400425790ab5dbef568393,627c70350eb3f1ceba2920d6,2022-05-11_21h26.30.542,classification_task,2021.2.3,Win32,59.95922773,627c6715c52fd12f31907bd0,,,,,,,,,,,,,,,,,,,,,,,a,1,"[""0.153"",""0.357"",""0.938"",""0.974""]","[0,1,1,1]",0,51,51,51,1,0,1,,,0,FALSE,1.6393,,,,,,,,,,,,,,,,,,,,,,,,,,,,,,,
,61400425790ab5dbef568393,627c70350eb3f1ceba2920d6,2022-05-11_21h26.30.542,classification_task,2021.2.3,Win32,59.95922773,627c6715c52fd12f31907bd0,,,,,,,,,,,,,,,,,,,,,,,a,1,"[""0.153"",""0.473"",""0.845"",""0.902""]","[0,1,1,1]",0,52,52,52,1,0,0,,,0,FALSE,2.1504,,,,,,,,,,,,,,,,,,,,,,,,,,,,,,,
,61400425790ab5dbef568393,627c70350eb3f1ceba2920d6,2022-05-11_21h26.30.542,classification_task,2021.2.3,Win32,59.95922773,627c6715c52fd12f31907bd0,,,,,,,,,,,,,,,,,,,,,,,l,1,"[""0.031"",""0.411"",""0.729"",""0.790""]","[1,1,0,1]",0,53,53,53,1,1,1,,,0,FALSE,1.6003,,,,,,,,,,,,,,,,,,,,,,,,,,,,,,,
,61400425790ab5dbef568393,627c70350eb3f1ceba2920d6,2022-05-11_21h26.30.542,classification_task,2021.2.3,Win32,59.95922773,627c6715c52fd12f31907bd0,,,,,,,,,,,,,,,,,,,,,,,a,1,"[""0.305"",""0.357"",""0.589"",""0.974""]","[1,1,0,1]",0,54,54,54,1,0,1,,,0,FALSE,2.3898,,,,,,,,,,,,,,,,,,,,,,,,,,,,,,,
,61400425790ab5dbef568393,627c70350eb3f1ceba2920d6,2022-05-11_21h26.30.542,classification_task,2021.2.3,Win32,59.95922773,627c6715c52fd12f31907bd0,,,,,,,,,,,,,,,,,,,,,,,a,0,"[""0.143"",""0.271"",""0.555"",""0.690""]","[0,1,1,1]",0,55,55,55,1,1,0,,,0,FALSE,1.6669,,,,,,,,,,,,,,,,,,,,,,,,,,,,,,,
,61400425790ab5dbef568393,627c70350eb3f1ceba2920d6,2022-05-11_21h26.30.542,classification_task,2021.2.3,Win32,59.95922773,627c6715c52fd12f31907bd0,,,,,,,,,,,,,,,,,,,,,,,l,1,"[""0.092"",""0.516"",""0.555"",""0.690""]","[1,0,1,1]",0,56,56,56,1,1,0,,,0,FALSE,1.6897,,,,,,,,,,,,,,,,,,,,,,,,,,,,,,,
,61400425790ab5dbef568393,627c70350eb3f1ceba2920d6,2022-05-11_21h26.30.542,classification_task,2021.2.3,Win32,59.95922773,627c6715c52fd12f31907bd0,,,,,,,,,,,,,,,,,,,,,,,l,1,"[""0.589"",""0.411"",""0.645"",""0.790""]","[0,1,1,1]",0,57,57,57,1,1,1,,,0,FALSE,2.6834,,,,,,,,,,,,,,,,,,,,,,,,,,,,,,,
,61400425790ab5dbef568393,627c70350eb3f1ceba2920d6,2022-05-11_21h26.30.542,classification_task,2021.2.3,Win32,59.95922773,627c6715c52fd12f31907bd0,,,,,,,,,,,,,,,,,,,,,,,a,1,"[""0.305"",""0.729"",""0.938"",""0.974""]","[1,0,1,1]",0,58,58,58,1,0,1,,,0,FALSE,1.857,,,,,,,,,,,,,,,,,,,,,,,,,,,,,,,
,61400425790ab5dbef568393,627c70350eb3f1ceba2920d6,2022-05-11_21h26.30.542,classification_task,2021.2.3,Win32,59.95922773,627c6715c52fd12f31907bd0,,,,,,,,,,,,,,,,,,,,,,,l,1,"[""0.092"",""0.271"",""0.555"",""0.138""]","[1,1,1,0]",0,59,59,59,1,1,0,,,0,FALSE,3.3332,,,,,,,,,,,,,,,,,,,,,,,,,,,,,,,
,61400425790ab5dbef568393,627c70350eb3f1ceba2920d6,2022-05-11_21h26.30.542,classification_task,2021.2.3,Win32,59.95922773,627c6715c52fd12f31907bd0,,,,,,,,,,,,,,,,,,,,,,,l,1,"[""0.031"",""0.411"",""0.645"",""0.516""]","[1,1,1,0]",0,60,60,60,1,1,1,,,0,FALSE,2.2393,,,,,,,,,,,,,,,,,,,,,,,,,,,,,,,
,61400425790ab5dbef568393,627c70350eb3f1ceba2920d6,2022-05-11_21h26.30.542,classification_task,2021.2.3,Win32,59.95922773,627c6715c52fd12f31907bd0,,,,,,,,,,,,,,,,,,,,,,,l,1,"[""0.092"",""0.271"",""0.743"",""0.690""]","[1,1,0,1]",0,61,61,61,1,1,0,,,0,FALSE,1.801,,,,,,,,,,,,,,,,,,,,,,,,,,,,,,,
,61400425790ab5dbef568393,627c70350eb3f1ceba2920d6,2022-05-11_21h26.30.542,classification_task,2021.2.3,Win32,59.95922773,627c6715c52fd12f31907bd0,,,,,,,,,,,,,,,,,,,,,,,a,1,"[""0.192"",""0.473"",""0.516"",""0.902""]","[1,1,0,1]",0,62,62,62,1,0,0,,,0,FALSE,1.9063,,,,,,,,,,,,,,,,,,,,,,,,,,,,,,,
,61400425790ab5dbef568393,627c70350eb3f1ceba2920d6,2022-05-11_21h26.30.542,classification_task,2021.2.3,Win32,59.95922773,627c6715c52fd12f31907bd0,,,,,,,,,,,,,,,,,,,,,,,a,1,"[""0.192"",""0.473"",""0.845"",""0.153""]","[1,1,1,0]",0,63,63,63,1,0,0,,,0,FALSE,1.7334,,,,,,,,,,,,,,,,,,,,,,,,,,,,,,,
,61400425790ab5dbef568393,627c70350eb3f1ceba2920d6,2022-05-11_21h26.30.542,classification_task,2021.2.3,Win32,59.95922773,627c6715c52fd12f31907bd0,,,,,,,,,,,,,,,,,,,,,,,,,,,,,,,,,,,,,,,0, ,,0,7.425044092,806.8741,0,0,0,0,1,2,1,,,,,,,,,,,,,,,,,,
,61400425790ab5dbef568393,627c70350eb3f1ceba2920d6,2022-05-11_21h26.30.542,classification_task,2021.2.3,Win32,59.95922773,627c6715c52fd12f31907bd0,,,,,,,,,,,,,,,,,,,,,,,,,,,,,,,,,,,,,,,1,  ,,0,6.347246718,798.1567,0,0,0,0,1,2,1,,,,,,,,,,,,,,,,,,
,61400425790ab5dbef568393,627c70350eb3f1ceba2920d6,2022-05-11_21h26.30.542,classification_task,2021.2.3,Win32,59.95922773,627c6715c52fd12f31907bd0,,,,,,,,,,,,,,,,,,,,,,,,,,,,,,,,,,,,,,,2,  ,,0,1.791103273,808.9922,0,0,0,0,1,2,1,,,,,,,,,,,,,,,,,,
,61400425790ab5dbef568393,627c70350eb3f1ceba2920d6,2022-05-11_21h26.30.542,classification_task,2021.2.3,Win32,59.95922773,627c6715c52fd12f31907bd0,,,,,,,,,,,,,,,,,,,,,,,,,,,,,,,,,,,,,,,,,,,,,0,0,0,0,1,,1,,,,,,,,,,,,,,,,,,
,61400425790ab5dbef568393,627c70350eb3f1ceba2920d6,2022-05-11_21h26.30.542,classification_task,2021.2.3,Win32,59.95922773,627c6715c52fd12f31907bd0,,,,,,,,,,,,,,,,,,,,,space,65.6138,a,1,"[""0.138"",""0.357"",""0.938"",""0.974""]","[0,1,1,1]",0,0,0,0,1,0,1,,,0,FALSE,6.633,,,,,,,,,,,,,,,,,,,,,,,,,,,,,,,
,61400425790ab5dbef568393,627c70350eb3f1ceba2920d6,2022-05-11_21h26.30.542,classification_task,2021.2.3,Win32,59.95922773,627c6715c52fd12f31907bd0,,,,,,,,,,,,,,,,,,,,,,,l,1,"[""0.092"",""0.271"",""0.508"",""0.690""]","[1,1,0,1]",0,1,1,1,1,1,0,,,0,FALSE,5.0715,,,,,,,,,,,,,,,,,,,,,,,,,,,,,,,
,61400425790ab5dbef568393,627c70350eb3f1ceba2920d6,2022-05-11_21h26.30.542,classification_task,2021.2.3,Win32,59.95922773,627c6715c52fd12f31907bd0,,,,,,,,,,,,,,,,,,,,,,,l,1,"[""0.031"",""0.411"",""0.645"",""0.141""]","[1,1,1,0]",0,2,2,2,1,1,1,,,0,FALSE,4.4045,,,,,,,,,,,,,,,,,,,,,,,,,,,,,,,
,61400425790ab5dbef568393,627c70350eb3f1ceba2920d6,2022-05-11_21h26.30.542,classification_task,2021.2.3,Win32,59.95922773,627c6715c52fd12f31907bd0,,,,,,,,,,,,,,,,,,,,,,,l,1,"[""0.031"",""0.411"",""0.519"",""0.790""]","[1,1,0,1]",0,3,3,3,1,1,1,,,0,FALSE,2.4725,,,,,,,,,,,,,,,,,,,,,,,,,,,,,,,
,61400425790ab5dbef568393,627c70350eb3f1ceba2920d6,2022-05-11_21h26.30.542,classification_task,2021.2.3,Win32,59.95922773,627c6715c52fd12f31907bd0,,,,,,,,,,,,,,,,,,,,,,,l,1,"[""0.600"",""0.271"",""0.555"",""0.690""]","[0,1,1,1]",0,4,4,4,1,1,0,,,0,FALSE,4.6126,,,,,,,,,,,,,,,,,,,,,,,,,,,,,,,
,61400425790ab5dbef568393,627c70350eb3f1ceba2920d6,2022-05-11_21h26.30.542,classification_task,2021.2.3,Win32,59.95922773,627c6715c52fd12f31907bd0,,,,,,,,,,,,,,,,,,,,,,,l,1,"[""0.031"",""0.139"",""0.645"",""0.790""]","[1,0,1,1]",0,5,5,5,1,1,1,,,0,FALSE,1.5922,,,,,,,,,,,,,,,,,,,,,,,,,,,,,,,
,61400425790ab5dbef568393,627c70350eb3f1ceba2920d6,2022-05-11_21h26.30.542,classification_task,2021.2.3,Win32,59.95922773,627c6715c52fd12f31907bd0,,,,,,,,,,,,,,,,,,,,,,,l,1,"[""0.592"",""0.411"",""0.645"",""0.790""]","[0,1,1,1]",0,6,6,6,1,1,1,,,0,FALSE,3.0155,,,,,,,,,,,,,,,,,,,,,,,,,,,,,,,
,61400425790ab5dbef568393,627c70350eb3f1ceba2920d6,2022-05-11_21h26.30.542,classification_task,2021.2.3,Win32,59.95922773,627c6715c52fd12f31907bd0,,,,,,,,,,,,,,,,,,,,,,,a,1,"[""0.192"",""0.473"",""0.845"",""0.729""]","[1,1,1,0]",0,7,7,7,1,0,0,,,0,FALSE,4.0543,,,,,,,,,,,,,,,,,,,,,,,,,,,,,,,
,61400425790ab5dbef568393,627c70350eb3f1ceba2920d6,2022-05-11_21h26.30.542,classification_task,2021.2.3,Win32,59.95922773,627c6715c52fd12f31907bd0,,,,,,,,,,,,,,,,,,,,,,,a,1,"[""0.192"",""0.473"",""0.131"",""0.902""]","[1,1,0,1]",0,8,8,8,1,0,0,,,0,FALSE,3.6943,,,,,,,,,,,,,,,,,,,,,,,,,,,,,,,
,61400425790ab5dbef568393,627c70350eb3f1ceba2920d6,2022-05-11_21h26.30.542,classification_task,2021.2.3,Win32,59.95922773,627c6715c52fd12f31907bd0,,,,,,,,,,,,,,,,,,,,,,,l,0,"[""0.305"",""0.357"",""0.938"",""0.516""]","[1,1,1,0]",0,9,9,9,1,0,1,,,0,FALSE,2.1231,,,,,,,,,,,,,,,,,,,,,,,,,,,,,,,
,61400425790ab5dbef568393,627c70350eb3f1ceba2920d6,2022-05-11_21h26.30.542,classification_task,2021.2.3,Win32,59.95922773,627c6715c52fd12f31907bd0,,,,,,,,,,,,,,,,,,,,,,,a,1,"[""0.305"",""0.357"",""0.743"",""0.974""]","[1,1,0,1]",0,10,10,10,1,0,1,,,0,FALSE,2.0321,,,,,,,,,,,,,,,,,,,,,,,,,,,,,,,
,61400425790ab5dbef568393,627c70350eb3f1ceba2920d6,2022-05-11_21h26.30.542,classification_task,2021.2.3,Win32,59.95922773,627c6715c52fd12f31907bd0,,,,,,,,,,,,,,,,,,,,,,,a,1,"[""0.729"",""0.473"",""0.845"",""0.902""]","[0,1,1,1]",0,11,11,11,1,0,0,,,0,FALSE,3.4539,,,,,,,,,,,,,,,,,,,,,,,,,,,,,,,
,61400425790ab5dbef568393,627c70350eb3f1ceba2920d6,2022-05-11_21h26.30.542,classification_task,2021.2.3,Win32,59.95922773,627c6715c52fd12f31907bd0,,,,,,,,,,,,,,,,,,,,,,,a,1,"[""0.192"",""0.743"",""0.845"",""0.902""]","[1,0,1,1]",0,12,12,12,1,0,0,,,0,FALSE,2.756,,,,,,,,,,,,,,,,,,,,,,,,,,,,,,,
,61400425790ab5dbef568393,627c70350eb3f1ceba2920d6,2022-05-11_21h26.30.542,classification_task,2021.2.3,Win32,59.95922773,627c6715c52fd12f31907bd0,,,,,,,,,,,,,,,,,,,,,,,l,1,"[""0.092"",""0.271"",""0.555"",""0.589""]","[1,1,1,0]",0,13,13,13,1,1,0,,,0,FALSE,3.4088,,,,,,,,,,,,,,,,,,,,,,,,,,,,,,,
,61400425790ab5dbef568393,627c70350eb3f1ceba2920d6,2022-05-11_21h26.30.542,classification_task,2021.2.3,Win32,59.95922773,627c6715c52fd12f31907bd0,,,,,,,,,,,,,,,,,,,,,,,a,1,"[""0.305"",""0.153"",""0.938"",""0.974""]","[1,0,1,1]",0,14,14,14,1,0,1,,,0,FALSE,3.3626,,,,,,,,,,,,,,,,,,,,,,,,,,,,,,,
,61400425790ab5dbef568393,627c70350eb3f1ceba2920d6,2022-05-11_21h26.30.542,classification_task,2021.2.3,Win32,59.95922773,627c6715c52fd12f31907bd0,,,,,,,,,,,,,,,,,,,,,,,l,1,"[""0.092"",""0.141"",""0.555"",""0.690""]","[1,0,1,1]",0,15,15,15,1,1,0,,,0,FALSE,3.5533,,,,,,,,,,,,,,,,,,,,,,,,,,,,,,,
,61400425790ab5dbef568393,627c70350eb3f1ceba2920d6,2022-05-11_21h26.30.542,classification_task,2021.2.3,Win32,59.95922773,627c6715c52fd12f31907bd0,,,,,,,,,,,,,,,,,,,,,,,a,1,"[""0.141"",""0.357"",""0.938"",""0.974""]","[0,1,1,1]",0,16,16,16,1,0,1,,,0,FALSE,5.7275,,,,,,,,,,,,,,,,,,,,,,,,,,,,,,,
,61400425790ab5dbef568393,627c70350eb3f1ceba2920d6,2022-05-11_21h26.30.542,classification_task,2021.2.3,Win32,59.95922773,627c6715c52fd12f31907bd0,,,,,,,,,,,,,,,,,,,,,,,l,1,"[""0.519"",""0.271"",""0.555"",""0.690""]","[0,1,1,1]",0,17,17,17,1,1,0,,,0,FALSE,3.3891,,,,,,,,,,,,,,,,,,,,,,,,,,,,,,,
,61400425790ab5dbef568393,627c70350eb3f1ceba2920d6,2022-05-11_21h26.30.542,classification_task,2021.2.3,Win32,59.95922773,627c6715c52fd12f31907bd0,,,,,,,,,,,,,,,,,,,,,,,a,1,"[""0.192"",""0.589"",""0.845"",""0.902""]","[1,0,1,1]",0,18,18,18,1,0,0,,,0,FALSE,2.5936,,,,,,,,,,,,,,,,,,,,,,,,,,,,,,,
,61400425790ab5dbef568393,627c70350eb3f1ceba2920d6,2022-05-11_21h26.30.542,classification_task,2021.2.3,Win32,59.95922773,627c6715c52fd12f31907bd0,,,,,,,,,,,,,,,,,,,,,,,a,1,"[""0.192"",""0.473"",""0.845"",""0.519""]","[1,1,1,0]",0,19,19,19,1,0,0,,,0,FALSE,3.2501,,,,,,,,,,,,,,,,,,,,,,,,,,,,,,,
,61400425790ab5dbef568393,627c70350eb3f1ceba2920d6,2022-05-11_21h26.30.542,classification_task,2021.2.3,Win32,59.95922773,627c6715c52fd12f31907bd0,,,,,,,,,,,,,,,,,,,,,,,l,1,"[""0.031"",""0.411"",""0.645"",""0.519""]","[1,1,1,0]",0,20,20,20,1,1,1,,,0,FALSE,1.8195,,,,,,,,,,,,,,,,,,,,,,,,,,,,,,,
,61400425790ab5dbef568393,627c70350eb3f1ceba2920d6,2022-05-11_21h26.30.542,classification_task,2021.2.3,Win32,59.95922773,627c6715c52fd12f31907bd0,,,,,,,,,,,,,,,,,,,,,,,a,1,"[""0.305"",""0.357"",""0.131"",""0.974""]","[1,1,0,1]",0,21,21,21,1,0,1,,,0,FALSE,1.9109,,,,,,,,,,,,,,,,,,,,,,,,,,,,,,,
,61400425790ab5dbef568393,627c70350eb3f1ceba2920d6,2022-05-11_21h26.30.542,classification_task,2021.2.3,Win32,59.95922773,627c6715c52fd12f31907bd0,,,,,,,,,,,,,,,,,,,,,,,l,1,"[""0.031"",""0.138"",""0.645"",""0.790""]","[1,0,1,1]",0,22,22,22,1,1,1,,,0,FALSE,1.4209,,,,,,,,,,,,,,,,,,,,,,,,,,,,,,,
,61400425790ab5dbef568393,627c70350eb3f1ceba2920d6,2022-05-11_21h26.30.542,classification_task,2021.2.3,Win32,59.95922773,627c6715c52fd12f31907bd0,,,,,,,,,,,,,,,,,,,,,,,l,1,"[""0.031"",""0.411"",""0.592"",""0.790""]","[1,1,0,1]",0,23,23,23,1,1,1,,,0,FALSE,1.5826,,,,,,,,,,,,,,,,,,,,,,,,,,,,,,,
,61400425790ab5dbef568393,627c70350eb3f1ceba2920d6,2022-05-11_21h26.30.542,classification_task,2021.2.3,Win32,59.95922773,627c6715c52fd12f31907bd0,,,,,,,,,,,,,,,,,,,,,,,a,0,"[""0.139"",""0.411"",""0.645"",""0.790""]","[0,1,1,1]",0,24,24,24,1,1,1,,,0,FALSE,3.9228,,,,,,,,,,,,,,,,,,,,,,,,,,,,,,,
,61400425790ab5dbef568393,627c70350eb3f1ceba2920d6,2022-05-11_21h26.30.542,classification_task,2021.2.3,Win32,59.95922773,627c6715c52fd12f31907bd0,,,,,,,,,,,,,,,,,,,,,,,a,1,"[""0.139"",""0.473"",""0.845"",""0.902""]","[0,1,1,1]",0,25,25,25,1,0,0,,,0,FALSE,3.1537,,,,,,,,,,,,,,,,,,,,,,,,,,,,,,,
,61400425790ab5dbef568393,627c70350eb3f1ceba2920d6,2022-05-11_21h26.30.542,classification_task,2021.2.3,Win32,59.95922773,627c6715c52fd12f31907bd0,,,,,,,,,,,,,,,,,,,,,,,a,1,"[""0.192"",""0.473"",""0.131"",""0.902""]","[1,1,0,1]",0,26,26,26,1,0,0,,,0,FALSE,2.7604,,,,,,,,,,,,,,,,,,,,,,,,,,,,,,,
,61400425790ab5dbef568393,627c70350eb3f1ceba2920d6,2022-05-11_21h26.30.542,classification_task,2021.2.3,Win32,59.95922773,627c6715c52fd12f31907bd0,,,,,,,,,,,,,,,,,,,,,,,l,1,"[""0.092"",""0.592"",""0.555"",""0.690""]","[1,0,1,1]",0,27,27,27,1,1,0,,,0,FALSE,1.6838,,,,,,,,,,,,,,,,,,,,,,,,,,,,,,,
,61400425790ab5dbef568393,627c70350eb3f1ceba2920d6,2022-05-11_21h26.30.542,classification_task,2021.2.3,Win32,59.95922773,627c6715c52fd12f31907bd0,,,,,,,,,,,,,,,,,,,,,,,,0,"[""0.092"",""0.271"",""0.592"",""0.690""]","[1,1,0,1]",0,28,28,28,1,1,0,,,0,FALSE,,,,,,,,,,,,,,,,,,,,,,,,,,,,,,,,
,61400425790ab5dbef568393,627c70350eb3f1ceba2920d6,2022-05-11_21h26.30.542,classification_task,2021.2.3,Win32,59.95922773,627c6715c52fd12f31907bd0,,,,,,,,,,,,,,,,,,,,,,,l,0,"[""0.305"",""0.357"",""0.938"",""0.589""]","[1,1,1,0]",0,29,29,29,1,0,1,,,0,FALSE,3.6862,,,,,,,,,,,,,,,,,,,,,,,,,,,,,,,
,61400425790ab5dbef568393,627c70350eb3f1ceba2920d6,2022-05-11_21h26.30.542,classification_task,2021.2.3,Win32,59.95922773,627c6715c52fd12f31907bd0,,,,,,,,,,,,,,,,,,,,,,,l,1,"[""0.092"",""0.271"",""0.555"",""0.519""]","[1,1,1,0]",0,30,30,30,1,1,0,,,0,FALSE,2.3917,,,,,,,,,,,,,,,,,,,,,,,,,,,,,,,
,61400425790ab5dbef568393,627c70350eb3f1ceba2920d6,2022-05-11_21h26.30.542,classification_task,2021.2.3,Win32,59.95922773,627c6715c52fd12f31907bd0,,,,,,,,,,,,,,,,,,,,,,,a,1,"[""0.305"",""0.141"",""0.938"",""0.974""]","[1,0,1,1]",0,31,31,31,1,0,1,,,0,FALSE,3.238,,,,,,,,,,,,,,,,,,,,,,,,,,,,,,,
,61400425790ab5dbef568393,627c70350eb3f1ceba2920d6,2022-05-11_21h26.30.542,classification_task,2021.2.3,Win32,59.95922773,627c6715c52fd12f31907bd0,,,,,,,,,,,,,,,,,,,,,,,l,1,"[""0.092"",""0.271"",""0.555"",""0.516""]","[1,1,1,0]",0,32,32,32,1,1,0,,,0,FALSE,2.7435,,,,,,,,,,,,,,,,,,,,,,,,,,,,,,,
,61400425790ab5dbef568393,627c70350eb3f1ceba2920d6,2022-05-11_21h26.30.542,classification_task,2021.2.3,Win32,59.95922773,627c6715c52fd12f31907bd0,,,,,,,,,,,,,,,,,,,,,,,l,1,"[""0.031"",""0.516"",""0.645"",""0.790""]","[1,0,1,1]",0,33,33,33,1,1,1,,,0,FALSE,1.2222,,,,,,,,,,,,,,,,,,,,,,,,,,,,,,,
,61400425790ab5dbef568393,627c70350eb3f1ceba2920d6,2022-05-11_21h26.30.542,classification_task,2021.2.3,Win32,59.95922773,627c6715c52fd12f31907bd0,,,,,,,,,,,,,,,,,,,,,,,a,1,"[""0.192"",""0.473"",""0.845"",""0.743""]","[1,1,1,0]",0,34,34,34,1,0,0,,,0,FALSE,2.7767,,,,,,,,,,,,,,,,,,,,,,,,,,,,,,,
,61400425790ab5dbef568393,627c70350eb3f1ceba2920d6,2022-05-11_21h26.30.542,classification_task,2021.2.3,Win32,59.95922773,627c6715c52fd12f31907bd0,,,,,,,,,,,,,,,,,,,,,,,a,1,"[""0.743"",""0.473"",""0.845"",""0.902""]","[0,1,1,1]",0,35,35,35,1,0,0,,,0,FALSE,3.1273,,,,,,,,,,,,,,,,,,,,,,,,,,,,,,,
,61400425790ab5dbef568393,627c70350eb3f1ceba2920d6,2022-05-11_21h26.30.542,classification_task,2021.2.3,Win32,59.95922773,627c6715c52fd12f31907bd0,,,,,,,,,,,,,,,,,,,,,,,l,1,"[""0.092"",""0.271"",""0.519"",""0.690""]","[1,1,0,1]",0,36,36,36,1,1,0,,,0,FALSE,0.9594,,,,,,,,,,,,,,,,,,,,,,,,,,,,,,,
,61400425790ab5dbef568393,627c70350eb3f1ceba2920d6,2022-05-11_21h26.30.542,classification_task,2021.2.3,Win32,59.95922773,627c6715c52fd12f31907bd0,,,,,,,,,,,,,,,,,,,,,,,l,1,"[""0.031"",""0.411"",""0.589"",""0.790""]","[1,1,0,1]",0,37,37,37,1,1,1,,,0,FALSE,1.1438,,,,,,,,,,,,,,,,,,,,,,,,,,,,,,,
,61400425790ab5dbef568393,627c70350eb3f1ceba2920d6,2022-05-11_21h26.30.542,classification_task,2021.2.3,Win32,59.95922773,627c6715c52fd12f31907bd0,,,,,,,,,,,,,,,,,,,,,,,a,1,"[""0.729"",""0.357"",""0.938"",""0.974""]","[0,1,1,1]",0,38,38,38,1,0,1,,,0,FALSE,1.3373,,,,,,,,,,,,,,,,,,,,,,,,,,,,,,,
,61400425790ab5dbef568393,627c70350eb3f1ceba2920d6,2022-05-11_21h26.30.542,classification_task,2021.2.3,Win32,59.95922773,627c6715c52fd12f31907bd0,,,,,,,,,,,,,,,,,,,,,,,a,1,"[""0.305"",""0.600"",""0.938"",""0.974""]","[1,0,1,1]",0,39,39,39,1,0,1,,,0,FALSE,0.9328,,,,,,,,,,,,,,,,,,,,,,,,,,,,,,,
,61400425790ab5dbef568393,627c70350eb3f1ceba2920d6,2022-05-11_21h26.30.542,classification_task,2021.2.3,Win32,59.95922773,627c6715c52fd12f31907bd0,,,,,,,,,,,,,,,,,,,,,,,l,1,"[""0.756"",""0.271"",""0.555"",""0.690""]","[0,1,1,1]",0,40,40,40,1,1,0,,,0,FALSE,1.7951,,,,,,,,,,,,,,,,,,,,,,,,,,,,,,,
,61400425790ab5dbef568393,627c70350eb3f1ceba2920d6,2022-05-11_21h26.30.542,classification_task,2021.2.3,Win32,59.95922773,627c6715c52fd12f31907bd0,,,,,,,,,,,,,,,,,,,,,,,a,0,"[""0.153"",""0.411"",""0.645"",""0.790""]","[0,1,1,1]",0,41,41,41,1,1,1,,,0,FALSE,2.8803,,,,,,,,,,,,,,,,,,,,,,,,,,,,,,,
,61400425790ab5dbef568393,627c70350eb3f1ceba2920d6,2022-05-11_21h26.30.542,classification_task,2021.2.3,Win32,59.95922773,627c6715c52fd12f31907bd0,,,,,,,,,,,,,,,,,,,,,,,l,0,"[""0.305"",""0.357"",""0.143"",""0.974""]","[1,1,0,1]",0,42,42,42,1,0,1,,,0,FALSE,1.3722,,,,,,,,,,,,,,,,,,,,,,,,,,,,,,,
,61400425790ab5dbef568393,627c70350eb3f1ceba2920d6,2022-05-11_21h26.30.542,classification_task,2021.2.3,Win32,59.95922773,627c6715c52fd12f31907bd0,,,,,,,,,,,,,,,,,,,,,,,a,1,"[""0.192"",""0.473"",""0.743"",""0.902""]","[1,1,0,1]",0,43,43,43,1,0,0,,,0,FALSE,2.7505,,,,,,,,,,,,,,,,,,,,,,,,,,,,,,,
,61400425790ab5dbef568393,627c70350eb3f1ceba2920d6,2022-05-11_21h26.30.542,classification_task,2021.2.3,Win32,59.95922773,627c6715c52fd12f31907bd0,,,,,,,,,,,,,,,,,,,,,,,a,1,"[""0.192"",""0.729"",""0.845"",""0.902""]","[1,0,1,1]",0,44,44,44,1,0,0,,,0,FALSE,1.4766,,,,,,,,,,,,,,,,,,,,,,,,,,,,,,,
,61400425790ab5dbef568393,627c70350eb3f1ceba2920d6,2022-05-11_21h26.30.542,classification_task,2021.2.3,Win32,59.95922773,627c6715c52fd12f31907bd0,,,,,,,,,,,,,,,,,,,,,,,l,1,"[""0.031"",""0.411"",""0.645"",""0.516""]","[1,1,1,0]",0,45,45,45,1,1,1,,,0,FALSE,0.8963,,,,,,,,,,,,,,,,,,,,,,,,,,,,,,,
,61400425790ab5dbef568393,627c70350eb3f1ceba2920d6,2022-05-11_21h26.30.542,classification_task,2021.2.3,Win32,59.95922773,627c6715c52fd12f31907bd0,,,,,,,,,,,,,,,,,,,,,,,l,0,"[""0.305"",""0.357"",""0.938"",""0.508""]","[1,1,1,0]",0,46,46,46,1,0,1,,,0,FALSE,3.6,,,,,,,,,,,,,,,,,,,,,,,,,,,,,,,
,61400425790ab5dbef568393,627c70350eb3f1ceba2920d6,2022-05-11_21h26.30.542,classification_task,2021.2.3,Win32,59.95922773,627c6715c52fd12f31907bd0,,,,,,,,,,,,,,,,,,,,,,,l,1,"[""0.092"",""0.508"",""0.555"",""0.690""]","[1,0,1,1]",0,47,47,47,1,1,0,,,0,FALSE,2.6365,,,,,,,,,,,,,,,,,,,,,,,,,,,,,,,
,61400425790ab5dbef568393,627c70350eb3f1ceba2920d6,2022-05-11_21h26.30.542,classification_task,2021.2.3,Win32,59.95922773,627c6715c52fd12f31907bd0,,,,,,,,,,,,,,,,,,,,,,,a,1,"[""0.305"",""0.357"",""0.938"",""0.600""]","[1,1,1,0]",0,48,48,48,1,0,1,,,0,FALSE,1.5896,,,,,,,,,,,,,,,,,,,,,,,,,,,,,,,
,61400425790ab5dbef568393,627c70350eb3f1ceba2920d6,2022-05-11_21h26.30.542,classification_task,2021.2.3,Win32,59.95922773,627c6715c52fd12f31907bd0,,,,,,,,,,,,,,,,,,,,,,,l,1,"[""0.031"",""0.411"",""0.645"",""0.508""]","[1,1,1,0]",0,49,49,49,1,1,1,,,0,FALSE,1.6319,,,,,,,,,,,,,,,,,,,,,,,,,,,,,,,
,61400425790ab5dbef568393,627c70350eb3f1ceba2920d6,2022-05-11_21h26.30.542,classification_task,2021.2.3,Win32,59.95922773,627c6715c52fd12f31907bd0,,,,,,,,,,,,,,,,,,,,,,,l,1,"[""0.092"",""0.271"",""0.592"",""0.690""]","[1,1,0,1]",0,50,50,50,1,1,0,,,0,FALSE,4.342,,,,,,,,,,,,,,,,,,,,,,,,,,,,,,,
,61400425790ab5dbef568393,627c70350eb3f1ceba2920d6,2022-05-11_21h26.30.542,classification_task,2021.2.3,Win32,59.95922773,627c6715c52fd12f31907bd0,,,,,,,,,,,,,,,,,,,,,,,a,1,"[""0.192"",""0.473"",""0.845"",""0.756""]","[1,1,1,0]",0,51,51,51,1,0,0,,,0,FALSE,2.9731,,,,,,,,,,,,,,,,,,,,,,,,,,,,,,,
,61400425790ab5dbef568393,627c70350eb3f1ceba2920d6,2022-05-11_21h26.30.542,classification_task,2021.2.3,Win32,59.95922773,627c6715c52fd12f31907bd0,,,,,,,,,,,,,,,,,,,,,,,a,1,"[""0.305"",""0.729"",""0.938"",""0.974""]","[1,0,1,1]",0,52,52,52,1,0,1,,,0,FALSE,1.2061,,,,,,,,,,,,,,,,,,,,,,,,,,,,,,,
,61400425790ab5dbef568393,627c70350eb3f1ceba2920d6,2022-05-11_21h26.30.542,classification_task,2021.2.3,Win32,59.95922773,627c6715c52fd12f31907bd0,,,,,,,,,,,,,,,,,,,,,,,l,1,"[""0.092"",""0.131"",""0.555"",""0.690""]","[1,0,1,1]",0,53,53,53,1,1,0,,,0,FALSE,1.4654,,,,,,,,,,,,,,,,,,,,,,,,,,,,,,,
,61400425790ab5dbef568393,627c70350eb3f1ceba2920d6,2022-05-11_21h26.30.542,classification_task,2021.2.3,Win32,59.95922773,627c6715c52fd12f31907bd0,,,,,,,,,,,,,,,,,,,,,,,a,1,"[""0.141"",""0.473"",""0.845"",""0.902""]","[0,1,1,1]",0,54,54,54,1,0,0,,,0,FALSE,3.0661,,,,,,,,,,,,,,,,,,,,,,,,,,,,,,,
,61400425790ab5dbef568393,627c70350eb3f1ceba2920d6,2022-05-11_21h26.30.542,classification_task,2021.2.3,Win32,59.95922773,627c6715c52fd12f31907bd0,,,,,,,,,,,,,,,,,,,,,,,l,1,"[""0.031"",""0.411"",""0.729"",""0.790""]","[1,1,0,1]",0,55,55,55,1,1,1,,,0,FALSE,3.0881,,,,,,,,,,,,,,,,,,,,,,,,,,,,,,,
,61400425790ab5dbef568393,627c70350eb3f1ceba2920d6,2022-05-11_21h26.30.542,classification_task,2021.2.3,Win32,59.95922773,627c6715c52fd12f31907bd0,,,,,,,,,,,,,,,,,,,,,,,a,1,"[""0.141"",""0.357"",""0.938"",""0.974""]","[0,1,1,1]",0,56,56,56,1,0,1,,,0,FALSE,1.5833,,,,,,,,,,,,,,,,,,,,,,,,,,,,,,,
,61400425790ab5dbef568393,627c70350eb3f1ceba2920d6,2022-05-11_21h26.30.542,classification_task,2021.2.3,Win32,59.95922773,627c6715c52fd12f31907bd0,,,,,,,,,,,,,,,,,,,,,,,a,1,"[""0.305"",""0.357"",""0.153"",""0.974""]","[1,1,0,1]",0,57,57,57,1,0,1,,,0,FALSE,2.4442,,,,,,,,,,,,,,,,,,,,,,,,,,,,,,,
,61400425790ab5dbef568393,627c70350eb3f1ceba2920d6,2022-05-11_21h26.30.542,classification_task,2021.2.3,Win32,59.95922773,627c6715c52fd12f31907bd0,,,,,,,,,,,,,,,,,,,,,,,a,1,"[""0.192"",""0.589"",""0.845"",""0.902""]","[1,0,1,1]",0,58,58,58,1,0,0,,,0,FALSE,4.0064,,,,,,,,,,,,,,,,,,,,,,,,,,,,,,,
,61400425790ab5dbef568393,627c70350eb3f1ceba2920d6,2022-05-11_21h26.30.542,classification_task,2021.2.3,Win32,59.95922773,627c6715c52fd12f31907bd0,,,,,,,,,,,,,,,,,,,,,,,l,1,"[""0.589"",""0.411"",""0.645"",""0.790""]","[0,1,1,1]",0,59,59,59,1,1,1,,,0,FALSE,1.5265,,,,,,,,,,,,,,,,,,,,,,,,,,,,,,,
,61400425790ab5dbef568393,627c70350eb3f1ceba2920d6,2022-05-11_21h26.30.542,classification_task,2021.2.3,Win32,59.95922773,627c6715c52fd12f31907bd0,,,,,,,,,,,,,,,,,,,,,,,l,0,"[""0.192"",""0.473"",""0.729"",""0.902""]","[1,1,0,1]",0,60,60,60,1,0,0,,,0,FALSE,2.9068,,,,,,,,,,,,,,,,,,,,,,,,,,,,,,,
,61400425790ab5dbef568393,627c70350eb3f1ceba2920d6,2022-05-11_21h26.30.542,classification_task,2021.2.3,Win32,59.95922773,627c6715c52fd12f31907bd0,,,,,,,,,,,,,,,,,,,,,,,l,1,"[""0.151"",""0.271"",""0.555"",""0.690""]","[0,1,1,1]",0,61,61,61,1,1,0,,,0,FALSE,3.9994,,,,,,,,,,,,,,,,,,,,,,,,,,,,,,,
,61400425790ab5dbef568393,627c70350eb3f1ceba2920d6,2022-05-11_21h26.30.542,classification_task,2021.2.3,Win32,59.95922773,627c6715c52fd12f31907bd0,,,,,,,,,,,,,,,,,,,,,,,l,1,"[""0.092"",""0.271"",""0.555"",""0.131""]","[1,1,1,0]",0,62,62,62,1,1,0,,,0,FALSE,1.0604,,,,,,,,,,,,,,,,,,,,,,,,,,,,,,,
,61400425790ab5dbef568393,627c70350eb3f1ceba2920d6,2022-05-11_21h26.30.542,classification_task,2021.2.3,Win32,59.95922773,627c6715c52fd12f31907bd0,,,,,,,,,,,,,,,,,,,,,,,l,1,"[""0.031"",""0.508"",""0.645"",""0.790""]","[1,0,1,1]",0,63,63,63,1,1,1,,,0,FALSE,1.9931,,,,,,,,,,,,,,,,,,,,,,,,,,,,,,,
,61400425790ab5dbef568393,627c70350eb3f1ceba2920d6,2022-05-11_21h26.30.542,classification_task,2021.2.3,Win32,59.95922773,627c6715c52fd12f31907bd0,,,,,,,,,,,,,,,,,,,,,,,,,,,,,,,,,,,,,,,0, ,,0,8.233392122,323.5937,0,1,1,1,1,2,2,,,,,,,,,,,,,,,,,,
,61400425790ab5dbef568393,627c70350eb3f1ceba2920d6,2022-05-11_21h26.30.542,classification_task,2021.2.3,Win32,59.95922773,627c6715c52fd12f31907bd0,,,,,,,,,,,,,,,,,,,,,,,,,,,,,,,,,,,,,,,1,  ,,0,7.082108564,328.6902,0,1,1,1,1,2,2,,,,,,,,,,,,,,,,,,
,61400425790ab5dbef568393,627c70350eb3f1ceba2920d6,2022-05-11_21h26.30.542,classification_task,2021.2.3,Win32,59.95922773,627c6715c52fd12f31907bd0,,,,,,,,,,,,,,,,,,,,,,,,,,,,,,,,,,,,,,,2,  ,,0,2.134038801,331.1422,0,1,1,1,1,2,2,,,,,,,,,,,,,,,,,,
,61400425790ab5dbef568393,627c70350eb3f1ceba2920d6,2022-05-11_21h26.30.542,classification_task,2021.2.3,Win32,59.95922773,627c6715c52fd12f31907bd0,,,,,,,,,,,,,,,,,,,,,,,,,,,,,,,,,,,,,,,,,,,,,0,1,1,1,1,,2,,,,,,,,,,,,,,,,,,
,61400425790ab5dbef568393,627c70350eb3f1ceba2920d6,2022-05-11_21h26.30.542,classification_task,2021.2.3,Win32,59.95922773,627c6715c52fd12f31907bd0,,,,,,,,,,,,,,,,,,,,,space,31.778,a,1,"[""0.192"",""0.131"",""0.845"",""0.902""]","[1,0,1,1]",0,0,0,0,1,0,0,,,0,FALSE,3.4565,,,,,,,,,,,,,,,,,,,,,,,,,,,,,,,
,61400425790ab5dbef568393,627c70350eb3f1ceba2920d6,2022-05-11_21h26.30.542,classification_task,2021.2.3,Win32,59.95922773,627c6715c52fd12f31907bd0,,,,,,,,,,,,,,,,,,,,,,,a,1,"[""0.305"",""0.516"",""0.938"",""0.974""]","[1,0,1,1]",0,1,1,1,1,0,1,,,0,FALSE,1.5223,,,,,,,,,,,,,,,,,,,,,,,,,,,,,,,
,61400425790ab5dbef568393,627c70350eb3f1ceba2920d6,2022-05-11_21h26.30.542,classification_task,2021.2.3,Win32,59.95922773,627c6715c52fd12f31907bd0,,,,,,,,,,,,,,,,,,,,,,,a,0,"[""0.151"",""0.411"",""0.645"",""0.790""]","[0,1,1,1]",0,2,2,2,1,1,1,,,0,FALSE,4.3175,,,,,,,,,,,,,,,,,,,,,,,,,,,,,,,
,61400425790ab5dbef568393,627c70350eb3f1ceba2920d6,2022-05-11_21h26.30.542,classification_task,2021.2.3,Win32,59.95922773,627c6715c52fd12f31907bd0,,,,,,,,,,,,,,,,,,,,,,,a,1,"[""0.600"",""0.357"",""0.938"",""0.974""]","[0,1,1,1]",0,3,3,3,1,0,1,,,0,FALSE,1.0736,,,,,,,,,,,,,,,,,,,,,,,,,,,,,,,
,61400425790ab5dbef568393,627c70350eb3f1ceba2920d6,2022-05-11_21h26.30.542,classification_task,2021.2.3,Win32,59.95922773,627c6715c52fd12f31907bd0,,,,,,,,,,,,,,,,,,,,,,,l,1,"[""0.031"",""0.411"",""0.151"",""0.790""]","[1,1,0,1]",0,4,4,4,1,1,1,,,0,FALSE,0.9165,,,,,,,,,,,,,,,,,,,,,,,,,,,,,,,
,61400425790ab5dbef568393,627c70350eb3f1ceba2920d6,2022-05-11_21h26.30.542,classification_task,2021.2.3,Win32,59.95922773,627c6715c52fd12f31907bd0,,,,,,,,,,,,,,,,,,,,,,,l,1,"[""0.031"",""0.592"",""0.645"",""0.790""]","[1,0,1,1]",0,5,5,5,1,1,1,,,0,FALSE,1.1337,,,,,,,,,,,,,,,,,,,,,,,,,,,,,,,
,61400425790ab5dbef568393,627c70350eb3f1ceba2920d6,2022-05-11_21h26.30.542,classification_task,2021.2.3,Win32,59.95922773,627c6715c52fd12f31907bd0,,,,,,,,,,,,,,,,,,,,,,,l,1,"[""0.092"",""0.271"",""0.555"",""0.151""]","[1,1,1,0]",0,6,6,6,1,1,0,,,0,FALSE,2.0672,,,,,,,,,,,,,,,,,,,,,,,,,,,,,,,
,61400425790ab5dbef568393,627c70350eb3f1ceba2920d6,2022-05-11_21h26.30.542,classification_task,2021.2.3,Win32,59.95922773,627c6715c52fd12f31907bd0,,,,,,,,,,,,,,,,,,,,,,,l,0,"[""0.305"",""0.357"",""0.938"",""0.600""]","[1,1,1,0]",0,7,7,7,1,0,1,,,0,FALSE,5.001,,,,,,,,,,,,,,,,,,,,,,,,,,,,,,,
,61400425790ab5dbef568393,627c70350eb3f1ceba2920d6,2022-05-11_21h26.30.542,classification_task,2021.2.3,Win32,59.95922773,627c6715c52fd12f31907bd0,,,,,,,,,,,,,,,,,,,,,,,l,0,"[""0.305"",""0.357"",""0.756"",""0.974""]","[1,1,0,1]",0,8,8,8,1,0,1,,,0,FALSE,1.3733,,,,,,,,,,,,,,,,,,,,,,,,,,,,,,,
,61400425790ab5dbef568393,627c70350eb3f1ceba2920d6,2022-05-11_21h26.30.542,classification_task,2021.2.3,Win32,59.95922773,627c6715c52fd12f31907bd0,,,,,,,,,,,,,,,,,,,,,,,l,1,"[""0.139"",""0.271"",""0.555"",""0.690""]","[0,1,1,1]",0,9,9,9,1,1,0,,,0,FALSE,1.917,,,,,,,,,,,,,,,,,,,,,,,,,,,,,,,
,61400425790ab5dbef568393,627c70350eb3f1ceba2920d6,2022-05-11_21h26.30.542,classification_task,2021.2.3,Win32,59.95922773,627c6715c52fd12f31907bd0,,,,,,,,,,,,,,,,,,,,,,,l,1,"[""0.031"",""0.411"",""0.645"",""0.516""]","[1,1,1,0]",0,10,10,10,1,1,1,,,0,FALSE,1.2398,,,,,,,,,,,,,,,,,,,,,,,,,,,,,,,
,61400425790ab5dbef568393,627c70350eb3f1ceba2920d6,2022-05-11_21h26.30.542,classification_task,2021.2.3,Win32,59.95922773,627c6715c52fd12f31907bd0,,,,,,,,,,,,,,,,,,,,,,,l,1,"[""0.092"",""0.271"",""0.153"",""0.690""]","[1,1,0,1]",0,11,11,11,1,1,0,,,0,FALSE,3.1002,,,,,,,,,,,,,,,,,,,,,,,,,,,,,,,
,61400425790ab5dbef568393,627c70350eb3f1ceba2920d6,2022-05-11_21h26.30.542,classification_task,2021.2.3,Win32,59.95922773,627c6715c52fd12f31907bd0,,,,,,,,,,,,,,,,,,,,,,,a,1,"[""0.192"",""0.473"",""0.845"",""0.589""]","[1,1,1,0]",0,12,12,12,1,0,0,,,0,FALSE,6.6408,,,,,,,,,,,,,,,,,,,,,,,,,,,,,,,
,61400425790ab5dbef568393,627c70350eb3f1ceba2920d6,2022-05-11_21h26.30.542,classification_task,2021.2.3,Win32,59.95922773,627c6715c52fd12f31907bd0,,,,,,,,,,,,,,,,,,,,,,,a,1,"[""0.192"",""0.473"",""0.138"",""0.902""]","[1,1,0,1]",0,13,13,13,1,0,0,,,0,FALSE,1.3572,,,,,,,,,,,,,,,,,,,,,,,,,,,,,,,
,61400425790ab5dbef568393,627c70350eb3f1ceba2920d6,2022-05-11_21h26.30.542,classification_task,2021.2.3,Win32,59.95922773,627c6715c52fd12f31907bd0,,,,,,,,,,,,,,,,,,,,,,,l,1,"[""0.092"",""0.153"",""0.555"",""0.690""]","[1,0,1,1]",0,14,14,14,1,1,0,,,0,FALSE,1.0003,,,,,,,,,,,,,,,,,,,,,,,,,,,,,,,
,61400425790ab5dbef568393,627c70350eb3f1ceba2920d6,2022-05-11_21h26.30.542,classification_task,2021.2.3,Win32,59.95922773,627c6715c52fd12f31907bd0,,,,,,,,,,,,,,,,,,,,,,,a,1,"[""0.729"",""0.473"",""0.845"",""0.902""]","[0,1,1,1]",0,15,15,15,1,0,0,,,0,FALSE,4.1171,,,,,,,,,,,,,,,,,,,,,,,,,,,,,,,
,61400425790ab5dbef568393,627c70350eb3f1ceba2920d6,2022-05-11_21h26.30.542,classification_task,2021.2.3,Win32,59.95922773,627c6715c52fd12f31907bd0,,,,,,,,,,,,,,,,,,,,,,,l,1,"[""0.092"",""0.729"",""0.555"",""0.690""]","[1,0,1,1]",0,16,16,16,1,1,0,,,0,FALSE,1.3909,,,,,,,,,,,,,,,,,,,,,,,,,,,,,,,
,61400425790ab5dbef568393,627c70350eb3f1ceba2920d6,2022-05-11_21h26.30.542,classification_task,2021.2.3,Win32,59.95922773,627c6715c52fd12f31907bd0,,,,,,,,,,,,,,,,,,,,,,,a,1,"[""0.729"",""0.357"",""0.938"",""0.974""]","[0,1,1,1]",0,17,17,17,1,0,1,,,0,FALSE,1.4839,,,,,,,,,,,,,,,,,,,,,,,,,,,,,,,
,61400425790ab5dbef568393,627c70350eb3f1ceba2920d6,2022-05-11_21h26.30.542,classification_task,2021.2.3,Win32,59.95922773,627c6715c52fd12f31907bd0,,,,,,,,,,,,,,,,,,,,,,,l,1,"[""0.592"",""0.411"",""0.645"",""0.790""]","[0,1,1,1]",0,18,18,18,1,1,1,,,0,FALSE,1.7668,,,,,,,,,,,,,,,,,,,,,,,,,,,,,,,
,61400425790ab5dbef568393,627c70350eb3f1ceba2920d6,2022-05-11_21h26.30.542,classification_task,2021.2.3,Win32,59.95922773,627c6715c52fd12f31907bd0,,,,,,,,,,,,,,,,,,,,,,,l,1,"[""0.031"",""0.411"",""0.508"",""0.790""]","[1,1,0,1]",0,19,19,19,1,1,1,,,0,FALSE,1.0171,,,,,,,,,,,,,,,,,,,,,,,,,,,,,,,
,61400425790ab5dbef568393,627c70350eb3f1ceba2920d6,2022-05-11_21h26.30.542,classification_task,2021.2.3,Win32,59.95922773,627c6715c52fd12f31907bd0,,,,,,,,,,,,,,,,,,,,,,,a,1,"[""0.305"",""0.756"",""0.938"",""0.974""]","[1,0,1,1]",0,20,20,20,1,0,1,,,0,FALSE,1.5664,,,,,,,,,,,,,,,,,,,,,,,,,,,,,,,
,61400425790ab5dbef568393,627c70350eb3f1ceba2920d6,2022-05-11_21h26.30.542,classification_task,2021.2.3,Win32,59.95922773,627c6715c52fd12f31907bd0,,,,,,,,,,,,,,,,,,,,,,,a,1,"[""0.151"",""0.473"",""0.845"",""0.902""]","[0,1,1,1]",0,21,21,21,1,0,0,,,0,FALSE,2.8065,,,,,,,,,,,,,,,,,,,,,,,,,,,,,,,
,61400425790ab5dbef568393,627c70350eb3f1ceba2920d6,2022-05-11_21h26.30.542,classification_task,2021.2.3,Win32,59.95922773,627c6715c52fd12f31907bd0,,,,,,,,,,,,,,,,,,,,,,,l,1,"[""0.092"",""0.271"",""0.555"",""0.143""]","[1,1,1,0]",0,22,22,22,1,1,0,,,0,FALSE,1.2387,,,,,,,,,,,,,,,,,,,,,,,,,,,,,,,
,61400425790ab5dbef568393,627c70350eb3f1ceba2920d6,2022-05-11_21h26.30.542,classification_task,2021.2.3,Win32,59.95922773,627c6715c52fd12f31907bd0,,,,,,,,,,,,,,,,,,,,,,,a,1,"[""0.192"",""0.473"",""0.516"",""0.902""]","[1,1,0,1]",0,23,23,23,1,0,0,,,0,FALSE,1.4,,,,,,,,,,,,,,,,,,,,,,,,,,,,,,,
,61400425790ab5dbef568393,627c70350eb3f1ceba2920d6,2022-05-11_21h26.30.542,classification_task,2021.2.3,Win32,59.95922773,627c6715c52fd12f31907bd0,,,,,,,,,,,,,,,,,,,,,,,a,1,"[""0.192"",""0.473"",""0.845"",""0.592""]","[1,1,1,0]",0,24,24,24,1,0,0,,,0,FALSE,1.3837,,,,,,,,,,,,,,,,,,,,,,,,,,,,,,,
,61400425790ab5dbef568393,627c70350eb3f1ceba2920d6,2022-05-11_21h26.30.542,classification_task,2021.2.3,Win32,59.95922773,627c6715c52fd12f31907bd0,,,,,,,,,,,,,,,,,,,,,,,l,1,"[""0.092"",""0.271"",""0.138"",""0.690""]","[1,1,0,1]",0,25,25,25,1,1,0,,,0,FALSE,1.2333,,,,,,,,,,,,,,,,,,,,,,,,,,,,,,,
,61400425790ab5dbef568393,627c70350eb3f1ceba2920d6,2022-05-11_21h26.30.542,classification_task,2021.2.3,Win32,59.95922773,627c6715c52fd12f31907bd0,,,,,,,,,,,,,,,,,,,,,,,a,1,"[""0.305"",""0.357"",""0.600"",""0.974""]","[1,1,0,1]",0,26,26,26,1,0,1,,,0,FALSE,4.5,,,,,,,,,,,,,,,,,,,,,,,,,,,,,,,
,61400425790ab5dbef568393,627c70350eb3f1ceba2920d6,2022-05-11_21h26.30.542,classification_task,2021.2.3,Win32,59.95922773,627c6715c52fd12f31907bd0,,,,,,,,,,,,,,,,,,,,,,,a,0,"[""0.139"",""0.271"",""0.555"",""0.690""]","[0,1,1,1]",0,27,27,27,1,1,0,,,0,FALSE,3.4342,,,,,,,,,,,,,,,,,,,,,,,,,,,,,,,
,61400425790ab5dbef568393,627c70350eb3f1ceba2920d6,2022-05-11_21h26.30.542,classification_task,2021.2.3,Win32,59.95922773,627c6715c52fd12f31907bd0,,,,,,,,,,,,,,,,,,,,,,,a,1,"[""0.192"",""0.729"",""0.845"",""0.902""]","[1,0,1,1]",0,28,28,28,1,0,0,,,0,FALSE,1.7233,,,,,,,,,,,,,,,,,,,,,,,,,,,,,,,
,61400425790ab5dbef568393,627c70350eb3f1ceba2920d6,2022-05-11_21h26.30.542,classification_task,2021.2.3,Win32,59.95922773,627c6715c52fd12f31907bd0,,,,,,,,,,,,,,,,,,,,,,,l,1,"[""0.031"",""0.411"",""0.645"",""0.151""]","[1,1,1,0]",0,29,29,29,1,1,1,,,0,FALSE,1.0675,,,,,,,,,,,,,,,,,,,,,,,,,,,,,,,
,61400425790ab5dbef568393,627c70350eb3f1ceba2920d6,2022-05-11_21h26.30.542,classification_task,2021.2.3,Win32,59.95922773,627c6715c52fd12f31907bd0,,,,,,,,,,,,,,,,,,,,,,,a,1,"[""0.305"",""0.357"",""0.938"",""0.143""]","[1,1,1,0]",0,30,30,30,1,0,1,,,0,FALSE,1.749,,,,,,,,,,,,,,,,,,,,,,,,,,,,,,,
,61400425790ab5dbef568393,627c70350eb3f1ceba2920d6,2022-05-11_21h26.30.542,classification_task,2021.2.3,Win32,59.95922773,627c6715c52fd12f31907bd0,,,,,,,,,,,,,,,,,,,,,,,l,1,"[""0.031"",""0.743"",""0.645"",""0.790""]","[1,0,1,1]",0,31,31,31,1,1,1,,,0,FALSE,0.8497,,,,,,,,,,,,,,,,,,,,,,,,,,,,,,,
,61400425790ab5dbef568393,627c70350eb3f1ceba2920d6,2022-05-11_21h26.30.542,classification_task,2021.2.3,Win32,59.95922773,627c6715c52fd12f31907bd0,,,,,,,,,,,,,,,,,,,,,,,a,1,"[""0.139"",""0.473"",""0.845"",""0.902""]","[0,1,1,1]",0,32,32,32,1,0,0,,,0,FALSE,1.9323,,,,,,,,,,,,,,,,,,,,,,,,,,,,,,,
,61400425790ab5dbef568393,627c70350eb3f1ceba2920d6,2022-05-11_21h26.30.542,classification_task,2021.2.3,Win32,59.95922773,627c6715c52fd12f31907bd0,,,,,,,,,,,,,,,,,,,,,,,a,0,"[""0.153"",""0.411"",""0.645"",""0.790""]","[0,1,1,1]",0,33,33,33,1,1,1,,,0,FALSE,2.0069,,,,,,,,,,,,,,,,,,,,,,,,,,,,,,,
,61400425790ab5dbef568393,627c70350eb3f1ceba2920d6,2022-05-11_21h26.30.542,classification_task,2021.2.3,Win32,59.95922773,627c6715c52fd12f31907bd0,,,,,,,,,,,,,,,,,,,,,,,l,1,"[""0.031"",""0.143"",""0.645"",""0.790""]","[1,0,1,1]",0,34,34,34,1,1,1,,,0,FALSE,0.8953,,,,,,,,,,,,,,,,,,,,,,,,,,,,,,,
,61400425790ab5dbef568393,627c70350eb3f1ceba2920d6,2022-05-11_21h26.30.542,classification_task,2021.2.3,Win32,59.95922773,627c6715c52fd12f31907bd0,,,,,,,,,,,,,,,,,,,,,,,a,1,"[""0.600"",""0.357"",""0.938"",""0.974""]","[0,1,1,1]",0,35,35,35,1,0,1,,,0,FALSE,1.2495,,,,,,,,,,,,,,,,,,,,,,,,,,,,,,,
,61400425790ab5dbef568393,627c70350eb3f1ceba2920d6,2022-05-11_21h26.30.542,classification_task,2021.2.3,Win32,59.95922773,627c6715c52fd12f31907bd0,,,,,,,,,,,,,,,,,,,,,,,a,1,"[""0.305"",""0.357"",""0.508"",""0.974""]","[1,1,0,1]",0,36,36,36,1,0,1,,,0,FALSE,1.5398,,,,,,,,,,,,,,,,,,,,,,,,,,,,,,,
,61400425790ab5dbef568393,627c70350eb3f1ceba2920d6,2022-05-11_21h26.30.542,classification_task,2021.2.3,Win32,59.95922773,627c6715c52fd12f31907bd0,,,,,,,,,,,,,,,,,,,,,,,a,1,"[""0.305"",""0.357"",""0.938"",""0.131""]","[1,1,1,0]",0,37,37,37,1,0,1,,,0,FALSE,1.9999,,,,,,,,,,,,,,,,,,,,,,,,,,,,,,,
,61400425790ab5dbef568393,627c70350eb3f1ceba2920d6,2022-05-11_21h26.30.542,classification_task,2021.2.3,Win32,59.95922773,627c6715c52fd12f31907bd0,,,,,,,,,,,,,,,,,,,,,,,l,1,"[""0.031"",""0.411"",""0.645"",""0.153""]","[1,1,1,0]",0,38,38,38,1,1,1,,,0,FALSE,0.8117,,,,,,,,,,,,,,,,,,,,,,,,,,,,,,,
,61400425790ab5dbef568393,627c70350eb3f1ceba2920d6,2022-05-11_21h26.30.542,classification_task,2021.2.3,Win32,59.95922773,627c6715c52fd12f31907bd0,,,,,,,,,,,,,,,,,,,,,,,a,1,"[""0.192"",""0.473"",""0.138"",""0.902""]","[1,1,0,1]",0,39,39,39,1,0,0,,,0,FALSE,3.1813,,,,,,,,,,,,,,,,,,,,,,,,,,,,,,,
,61400425790ab5dbef568393,627c70350eb3f1ceba2920d6,2022-05-11_21h26.30.542,classification_task,2021.2.3,Win32,59.95922773,627c6715c52fd12f31907bd0,,,,,,,,,,,,,,,,,,,,,,,l,1,"[""0.031"",""0.411"",""0.600"",""0.790""]","[1,1,0,1]",0,40,40,40,1,1,1,,,0,FALSE,0.8444,,,,,,,,,,,,,,,,,,,,,,,,,,,,,,,
,61400425790ab5dbef568393,627c70350eb3f1ceba2920d6,2022-05-11_21h26.30.542,classification_task,2021.2.3,Win32,59.95922773,627c6715c52fd12f31907bd0,,,,,,,,,,,,,,,,,,,,,,,a,0,"[""0.143"",""0.271"",""0.555"",""0.690""]","[0,1,1,1]",0,41,41,41,1,1,0,,,0,FALSE,4.8493,,,,,,,,,,,,,,,,,,,,,,,,,,,,,,,
,61400425790ab5dbef568393,627c70350eb3f1ceba2920d6,2022-05-11_21h26.30.542,classification_task,2021.2.3,Win32,59.95922773,627c6715c52fd12f31907bd0,,,,,,,,,,,,,,,,,,,,,,,a,1,"[""0.192"",""0.139"",""0.845"",""0.902""]","[1,0,1,1]",0,42,42,42,1,0,0,,,0,FALSE,1.2283,,,,,,,,,,,,,,,,,,,,,,,,,,,,,,,
,61400425790ab5dbef568393,627c70350eb3f1ceba2920d6,2022-05-11_21h26.30.542,classification_task,2021.2.3,Win32,59.95922773,627c6715c52fd12f31907bd0,,,,,,,,,,,,,,,,,,,,,,,l,1,"[""0.092"",""0.271"",""0.555"",""0.600""]","[1,1,1,0]",0,43,43,43,1,1,0,,,0,FALSE,1.0912,,,,,,,,,,,,,,,,,,,,,,,,,,,,,,,
,61400425790ab5dbef568393,627c70350eb3f1ceba2920d6,2022-05-11_21h26.30.542,classification_task,2021.2.3,Win32,59.95922773,627c6715c52fd12f31907bd0,,,,,,,,,,,,,,,,,,,,,,,l,1,"[""0.092"",""0.151"",""0.555"",""0.690""]","[1,0,1,1]",0,44,44,44,1,1,0,,,0,FALSE,0.8664,,,,,,,,,,,,,,,,,,,,,,,,,,,,,,,
,61400425790ab5dbef568393,627c70350eb3f1ceba2920d6,2022-05-11_21h26.30.542,classification_task,2021.2.3,Win32,59.95922773,627c6715c52fd12f31907bd0,,,,,,,,,,,,,,,,,,,,,,,a,1,"[""0.305"",""0.516"",""0.938"",""0.974""]","[1,0,1,1]",0,45,45,45,1,0,1,,,0,FALSE,1.2532,,,,,,,,,,,,,,,,,,,,,,,,,,,,,,,
,61400425790ab5dbef568393,627c70350eb3f1ceba2920d6,2022-05-11_21h26.30.542,classification_task,2021.2.3,Win32,59.95922773,627c6715c52fd12f31907bd0,,,,,,,,,,,,,,,,,,,,,,,l,1,"[""0.092"",""0.271"",""0.138"",""0.690""]","[1,1,0,1]",0,46,46,46,1,1,0,,,0,FALSE,1.3169,,,,,,,,,,,,,,,,,,,,,,,,,,,,,,,
,61400425790ab5dbef568393,627c70350eb3f1ceba2920d6,2022-05-11_21h26.30.542,classification_task,2021.2.3,Win32,59.95922773,627c6715c52fd12f31907bd0,,,,,,,,,,,,,,,,,,,,,,,a,1,"[""0.192"",""0.473"",""0.845"",""0.138""]","[1,1,1,0]",0,47,47,47,1,0,0,,,0,FALSE,1.385,,,,,,,,,,,,,,,,,,,,,,,,,,,,,,,
,61400425790ab5dbef568393,627c70350eb3f1ceba2920d6,2022-05-11_21h26.30.542,classification_task,2021.2.3,Win32,59.95922773,627c6715c52fd12f31907bd0,,,,,,,,,,,,,,,,,,,,,,,a,1,"[""0.192"",""0.139"",""0.845"",""0.902""]","[1,0,1,1]",0,48,48,48,1,0,0,,,0,FALSE,0.6663,,,,,,,,,,,,,,,,,,,,,,,,,,,,,,,
,61400425790ab5dbef568393,627c70350eb3f1ceba2920d6,2022-05-11_21h26.30.542,classification_task,2021.2.3,Win32,59.95922773,627c6715c52fd12f31907bd0,,,,,,,,,,,,,,,,,,,,,,,a,1,"[""0.305"",""0.357"",""0.938"",""0.743""]","[1,1,1,0]",0,49,49,49,1,0,1,,,0,FALSE,2.9076,,,,,,,,,,,,,,,,,,,,,,,,,,,,,,,
,61400425790ab5dbef568393,627c70350eb3f1ceba2920d6,2022-05-11_21h26.30.542,classification_task,2021.2.3,Win32,59.95922773,627c6715c52fd12f31907bd0,,,,,,,,,,,,,,,,,,,,,,,a,1,"[""0.305"",""0.508"",""0.938"",""0.974""]","[1,0,1,1]",0,50,50,50,1,0,1,,,0,FALSE,0.978,,,,,,,,,,,,,,,,,,,,,,,,,,,,,,,
,61400425790ab5dbef568393,627c70350eb3f1ceba2920d6,2022-05-11_21h26.30.542,classification_task,2021.2.3,Win32,59.95922773,627c6715c52fd12f31907bd0,,,,,,,,,,,,,,,,,,,,,,,a,1,"[""0.592"",""0.357"",""0.938"",""0.974""]","[0,1,1,1]",0,51,51,51,1,0,1,,,0,FALSE,0.9993,,,,,,,,,,,,,,,,,,,,,,,,,,,,,,,
,61400425790ab5dbef568393,627c70350eb3f1ceba2920d6,2022-05-11_21h26.30.542,classification_task,2021.2.3,Win32,59.95922773,627c6715c52fd12f31907bd0,,,,,,,,,,,,,,,,,,,,,,,l,1,"[""0.031"",""0.411"",""0.143"",""0.790""]","[1,1,0,1]",0,52,52,52,1,1,1,,,0,FALSE,1.1839,,,,,,,,,,,,,,,,,,,,,,,,,,,,,,,
,61400425790ab5dbef568393,627c70350eb3f1ceba2920d6,2022-05-11_21h26.30.542,classification_task,2021.2.3,Win32,59.95922773,627c6715c52fd12f31907bd0,,,,,,,,,,,,,,,,,,,,,,,l,1,"[""0.092"",""0.271"",""0.555"",""0.139""]","[1,1,1,0]",0,53,53,53,1,1,0,,,0,FALSE,2.3537,,,,,,,,,,,,,,,,,,,,,,,,,,,,,,,
,61400425790ab5dbef568393,627c70350eb3f1ceba2920d6,2022-05-11_21h26.30.542,classification_task,2021.2.3,Win32,59.95922773,627c6715c52fd12f31907bd0,,,,,,,,,,,,,,,,,,,,,,,l,0,"[""0.141"",""0.473"",""0.845"",""0.902""]","[0,1,1,1]",0,54,54,54,1,0,0,,,0,FALSE,3.7948,,,,,,,,,,,,,,,,,,,,,,,,,,,,,,,
,61400425790ab5dbef568393,627c70350eb3f1ceba2920d6,2022-05-11_21h26.30.542,classification_task,2021.2.3,Win32,59.95922773,627c6715c52fd12f31907bd0,,,,,,,,,,,,,,,,,,,,,,,l,1,"[""0.092"",""0.756"",""0.555"",""0.690""]","[1,0,1,1]",0,55,55,55,1,1,0,,,0,FALSE,0.9453,,,,,,,,,,,,,,,,,,,,,,,,,,,,,,,
,61400425790ab5dbef568393,627c70350eb3f1ceba2920d6,2022-05-11_21h26.30.542,classification_task,2021.2.3,Win32,59.95922773,627c6715c52fd12f31907bd0,,,,,,,,,,,,,,,,,,,,,,,l,0,"[""0.192"",""0.473"",""0.845"",""0.600""]","[1,1,1,0]",0,56,56,56,1,0,0,,,0,FALSE,2.2162,,,,,,,,,,,,,,,,,,,,,,,,,,,,,,,
,61400425790ab5dbef568393,627c70350eb3f1ceba2920d6,2022-05-11_21h26.30.542,classification_task,2021.2.3,Win32,59.95922773,627c6715c52fd12f31907bd0,,,,,,,,,,,,,,,,,,,,,,,l,1,"[""0.092"",""0.271"",""0.729"",""0.690""]","[1,1,0,1]",0,57,57,57,1,1,0,,,0,FALSE,2.4358,,,,,,,,,,,,,,,,,,,,,,,,,,,,,,,
,61400425790ab5dbef568393,627c70350eb3f1ceba2920d6,2022-05-11_21h26.30.542,classification_task,2021.2.3,Win32,59.95922773,627c6715c52fd12f31907bd0,,,,,,,,,,,,,,,,,,,,,,,a,1,"[""0.192"",""0.473"",""0.600"",""0.902""]","[1,1,0,1]",0,58,58,58,1,0,0,,,0,FALSE,1.6117,,,,,,,,,,,,,,,,,,,,,,,,,,,,,,,
,61400425790ab5dbef568393,627c70350eb3f1ceba2920d6,2022-05-11_21h26.30.542,classification_task,2021.2.3,Win32,59.95922773,627c6715c52fd12f31907bd0,,,,,,,,,,,,,,,,,,,,,,,l,1,"[""0.031"",""0.589"",""0.645"",""0.790""]","[1,0,1,1]",0,59,59,59,1,1,1,,,0,FALSE,1.2154,,,,,,,,,,,,,,,,,,,,,,,,,,,,,,,
,61400425790ab5dbef568393,627c70350eb3f1ceba2920d6,2022-05-11_21h26.30.542,classification_task,2021.2.3,Win32,59.95922773,627c6715c52fd12f31907bd0,,,,,,,,,,,,,,,,,,,,,,,l,1,"[""0.031"",""0.411"",""0.645"",""0.153""]","[1,1,1,0]",0,60,60,60,1,1,1,,,0,FALSE,1.0384,,,,,,,,,,,,,,,,,,,,,,,,,,,,,,,
,61400425790ab5dbef568393,627c70350eb3f1ceba2920d6,2022-05-11_21h26.30.542,classification_task,2021.2.3,Win32,59.95922773,627c6715c52fd12f31907bd0,,,,,,,,,,,,,,,,,,,,,,,a,0,"[""0.139"",""0.411"",""0.645"",""0.790""]","[0,1,1,1]",0,61,61,61,1,1,1,,,0,FALSE,3.6168,,,,,,,,,,,,,,,,,,,,,,,,,,,,,,,
,61400425790ab5dbef568393,627c70350eb3f1ceba2920d6,2022-05-11_21h26.30.542,classification_task,2021.2.3,Win32,59.95922773,627c6715c52fd12f31907bd0,,,,,,,,,,,,,,,,,,,,,,,l,1,"[""0.756"",""0.271"",""0.555"",""0.690""]","[0,1,1,1]",0,62,62,62,1,1,0,,,0,FALSE,2.1942,,,,,,,,,,,,,,,,,,,,,,,,,,,,,,,
,61400425790ab5dbef568393,627c70350eb3f1ceba2920d6,2022-05-11_21h26.30.542,classification_task,2021.2.3,Win32,59.95922773,627c6715c52fd12f31907bd0,,,,,,,,,,,,,,,,,,,,,,,a,1,"[""0.305"",""0.357"",""0.519"",""0.974""]","[1,1,0,1]",0,63,63,63,1,0,1,,,0,FALSE,1.5822,,,,,,,,,,,,,,,,,,,,,,,,,,,,,,,
,61400425790ab5dbef568393,627c70350eb3f1ceba2920d6,2022-05-11_21h26.30.542,classification_task,2021.2.3,Win32,59.95922773,627c6715c52fd12f31907bd0,,,,,,,,,,,,,,,,,,,,,,,,,,,,,,,,,,,,,,,0, ,,0,7.376053302,226.662,0,2,2,2,1,2,3,,,,,,,,,,,,,,,,,,
,61400425790ab5dbef568393,627c70350eb3f1ceba2920d6,2022-05-11_21h26.30.542,classification_task,2021.2.3,Win32,59.95922773,627c6715c52fd12f31907bd0,,,,,,,,,,,,,,,,,,,,,,,,,,,,,,,,,,,,,,,1,  ,,0,9.262198707,229.2181,0,2,2,2,1,2,3,,,,,,,,,,,,,,,,,,
,61400425790ab5dbef568393,627c70350eb3f1ceba2920d6,2022-05-11_21h26.30.542,classification_task,2021.2.3,Win32,59.95922773,627c6715c52fd12f31907bd0,,,,,,,,,,,,,,,,,,,,,,,,,,,,,,,,,,,,,,,2,  ,,0,1.105232216,230.1223,0,2,2,2,1,2,3,,,,,,,,,,,,,,,,,,
,61400425790ab5dbef568393,627c70350eb3f1ceba2920d6,2022-05-11_21h26.30.542,classification_task,2021.2.3,Win32,59.95922773,627c6715c52fd12f31907bd0,,,,,,,,,,,,,,,,,,,,,,,,,,,,,,,,,,,,,,,,,,,,,0,2,2,2,1,,3,,,,,,,,,,,,,,,,,,
,61400425790ab5dbef568393,627c70350eb3f1ceba2920d6,2022-05-11_21h26.30.542,classification_task,2021.2.3,Win32,59.95922773,627c6715c52fd12f31907bd0,,,,,,,,,,,,,,,,,,,,,,,,,,,,,,,,,,,,,,,,,,,,,,,,,,,,,I believe the aid is a competent performer,,0.7,0,3,1422.7427,0,0,0,0,1,0,,,,,
,61400425790ab5dbef568393,627c70350eb3f1ceba2920d6,2022-05-11_21h26.30.542,classification_task,2021.2.3,Win32,59.95922773,627c6715c52fd12f31907bd0,,,,,,,,,,,,,,,,,,,,,,,,,,,,,,,,,,,,,,,,,,,,,,,,,,,,,I trust the aid,,0.7,0,5,1426.149,0,0,0,0,1,0,,,,,
,61400425790ab5dbef568393,627c70350eb3f1ceba2920d6,2022-05-11_21h26.30.542,classification_task,2021.2.3,Win32,59.95922773,627c6715c52fd12f31907bd0,,,,,,,,,,,,,,,,,,,,,,,,,,,,,,,,,,,,,,,,,,,,,,,,,,,,,I have confidence in the advice given by the aid,,0.7,0,5,1429.0822,0,0,0,0,1,0,,,,,
,61400425790ab5dbef568393,627c70350eb3f1ceba2920d6,2022-05-11_21h26.30.542,classification_task,2021.2.3,Win32,59.95922773,627c6715c52fd12f31907bd0,,,,,,,,,,,,,,,,,,,,,,,,,,,,,,,,,,,,,,,,,,,,,,,,,,,,,I can depend on the aid,,0.7,0,4,1429.4235,0,0,0,0,1,0,,,,,
,61400425790ab5dbef568393,627c70350eb3f1ceba2920d6,2022-05-11_21h26.30.542,classification_task,2021.2.3,Win32,59.95922773,627c6715c52fd12f31907bd0,,,,,,,,,,,,,,,,,,,,,,,,,,,,,,,,,,,,,,,,,,,,,,,,,,,,,I can rely on the aid to behave in consistent ways,,0.7,0,4,1432.324,0,0,0,0,1,0,,,,,
,61400425790ab5dbef568393,627c70350eb3f1ceba2920d6,2022-05-11_21h26.30.542,classification_task,2021.2.3,Win32,59.95922773,627c6715c52fd12f31907bd0,,,,,,,,,,,,,,,,,,,,,,,,,,,,,,,,,,,,,,,,,,,,,,,,,,,,,I can rely on the aid to do its best every time I take its advice,,0.7,0,5,1435.8228,0,0,0,0,1,0,,,,,
,61400425790ab5dbef568393,627c70350eb3f1ceba2920d6,2022-05-11_21h26.30.542,classification_task,2021.2.3,Win32,59.95922773,627c6715c52fd12f31907bd0,,,,,,,,,,,,,,,,,,,,,,,,,,,,,,,,,,,,,,,,,,,,,,,,,,,,,"On trials you completed with assistance from the aid, how frequently did you think the aid was correct?",,0.7,0,90,,0,0,0,0,1,0,,,,,
,61400425790ab5dbef568393,627c70350eb3f1ceba2920d6,2022-05-11_21h26.30.542,classification_task,2021.2.3,Win32,59.95922773,627c6715c52fd12f31907bd0,,,,,,,,,,,,,,,,,,,,,,,,,,,,,,,,,,,,,,,,,,,,,,,,,,,,,"On trials you completed without the aid, how frequently did you think you were correct?",,0.7,0,75,,0,0,0,0,1,0,,,,,
,61400425790ab5dbef568393,627c70350eb3f1ceba2920d6,2022-05-11_21h26.30.542,classification_task,2021.2.3,Win32,59.95922773,627c6715c52fd12f31907bd0,,,,,,,,,,,,,,,,,,,,,,,,,,,,,,,,,,,,,,,,,,,,,,,,,,,,,,,,,,,0,0,0,0,1,,,,,,
,61400425790ab5dbef568393,627c70350eb3f1ceba2920d6,2022-05-11_21h26.30.542,classification_task,2021.2.3,Win32,59.95922773,627c6715c52fd12f31907bd0,,,,,,,,,,,,,,,,,,,,,,,,,,,,,,,,,,,,,,,,,,,,,,,,,,,,,,,,,,,,,,,,,space,27.0135,1484.2939,,
,61400425790ab5dbef568393,627c70350eb3f1ceba2920d6,2022-05-11_21h26.30.542,classification_task,2021.2.3,Win32,59.95922773,627c6715c52fd12f31907bd0,,,,,,,,,,,,,,,,,,,,,,,,,,,,,,,,,,,,,,,,,,,,,,,,,,,,,,,,,,,,,,,,,,,,"Mozilla/5.0 (Windows NT 10.0; Win64; x64) AppleWebKit/537.36 (KHTML, like Gecko) Chrome/101.0.4951.54 Safari/537.36",
,61400425790ab5dbef568393,627c70350eb3f1ceba2920d6,2022-05-11_21h26.30.542,classification_task,2021.2.3,Win32,59.95922773,627c6715c52fd12f31907bd0,,,,,,,,,,,,,,,,,,,,,,,,,,,,,,,,,,,,,,,,,,,,,,,,,,,,,,,,,,,,,,,,,,,,,FADING
