usingWebGL,participant,session,date,expName,psychopyVersion,OS,frameRate,study_id,signatures_friend,signatures_foe,band_ranges_top,band_ranges_bottom,formitemText,formtype,formundefined,formitemWidth,formindex,formresponse,formrt,key_resp_2.keys,key_resp_2.rt,tute_resp.keys,tute_resp.rt,tutorial.thisRepN,tutorial.thisTrialN,tutorial.thisN,tutorial.thisIndex,tutorial.ran,key_resp_4.keys,key_resp_4.rt,key_resp.keys,key_resp.corr,key_resp.rt,lines_presented,is_signal_presented,trials.thisRepN,trials.thisTrialN,trials.thisN,trials.thisIndex,trials.ran,vessel,active_band,lines,is_signal,supported_pos,catch_trial,debrief_formindex,debrief_formitemText,debrief_formtype,debrief_formitemWidth,debrief_formresponse,debrief_formrt,phases.thisRepN,phases.thisTrialN,phases.thisN,phases.thisIndex,phases.ran,phases.order,phase,key_resp_3.keys,trustitemText,trusttype,trustitemWidth,trustindex,trustresponse,trustrt,support_status.thisRepN,support_status.thisTrialN,support_status.thisN,support_status.thisIndex,support_status.ran,support_status.order,key_resp_5.keys,key_resp_5.rt,globalClockTime,userAgent,manualCondition
TRUE,6140b5b201e55201433c2383,627c6f87be43ac8ecac5d732,2022-05-12_03h23.21.098,classification_task,2021.2.3,Win32,143.9263097,627c6715c52fd12f31907bcf,,,,,,,,,,,,,,,,,,,,,,,,,,,,,,,,,,,,,,,,,,,,,,,,,,,,,,,,,,,,,,,,,,,,,
,6140b5b201e55201433c2383,627c6f87be43ac8ecac5d732,2022-05-12_03h23.21.098,classification_task,2021.2.3,Win32,143.9263097,627c6715c52fd12f31907bcf,"[[""0.271"",""0.442"",""0.894"",""0.931""],[""0.309"",""0.548"",""0.854"",""0.970""]]","[[""0.047"",""0.370"",""0.672"",""0.820""],[""0.091"",""0.201"",""0.500"",""0.768""]]","[1,10]","[100,1000]",Video game experience,,,0.7,0,,,,,,,,,,,,,,,,,,,,,,,,,,,,,,,,,,,,,,,,,,,,,,,,,,,,,,,,,,,,
,6140b5b201e55201433c2383,627c6f87be43ac8ecac5d732,2022-05-12_03h23.21.098,classification_task,2021.2.3,Win32,143.9263097,627c6715c52fd12f31907bcf,,,,,Approximately how many hours did you spend playing video games in the last week?,,,0.7,0,15,,,,,,,,,,,,,,,,,,,,,,,,,,,,,,,,,,,,,,,,,,,,,,,,,,,,,,,,,,,
,6140b5b201e55201433c2383,627c6f87be43ac8ecac5d732,2022-05-12_03h23.21.098,classification_task,2021.2.3,Win32,143.9263097,627c6715c52fd12f31907bcf,,,,,"Which game did you play the most this year? (Enter ""None"" if you didn't play any)",,,0.7,0,Rust,,,,,,,,,,,,,,,,,,,,,,,,,,,,,,,,,,,,,,,,,,,,,,,,,,,,,,,,,,,
,6140b5b201e55201433c2383,627c6f87be43ac8ecac5d732,2022-05-12_03h23.21.098,classification_task,2021.2.3,Win32,143.9263097,627c6715c52fd12f31907bcf,,,,,Visual perception,,,0.7,0,,,,,,,,,,,,,,,,,,,,,,,,,,,,,,,,,,,,,,,,,,,,,,,,,,,,,,,,,,,,
,6140b5b201e55201433c2383,627c6f87be43ac8ecac5d732,2022-05-12_03h23.21.098,classification_task,2021.2.3,Win32,143.9263097,627c6715c52fd12f31907bcf,,,,,Do you have any form of color blindness?,,,0.7,0,No,37.6871,,,,,,,,,,,,,,,,,,,,,,,,,,,,,,,,,,,,,,,,,,,,,,,,,,,,,,,,,,
,6140b5b201e55201433c2383,627c6f87be43ac8ecac5d732,2022-05-12_03h23.21.098,classification_task,2021.2.3,Win32,143.9263097,627c6715c52fd12f31907bcf,,,,,Do you use software to change the colour temperature of your screen (e.g. f.lux)?,,,0.7,0,Yes,43.02,,,,,,,,,,,,,,,,,,,,,,,,,,,,,,,,,,,,,,,,,,,,,,,,,,,,,,,,,,
,6140b5b201e55201433c2383,627c6f87be43ac8ecac5d732,2022-05-12_03h23.21.098,classification_task,2021.2.3,Win32,143.9263097,627c6715c52fd12f31907bcf,,,,,,,,,,,,space,44.8544,space,12.0746,0,0,0,0,1,,,,,,,,,,,,,,,,,,,,,,,,,,,,,,,,,,,,,,,,,,,,,,,,,
,6140b5b201e55201433c2383,627c6f87be43ac8ecac5d732,2022-05-12_03h23.21.098,classification_task,2021.2.3,Win32,143.9263097,627c6715c52fd12f31907bcf,,,,,,,,,,,,,,space,12.367,1,0,1,0,1,,,,,,,,,,,,,,,,,,,,,,,,,,,,,,,,,,,,,,,,,,,,,,,,,
,6140b5b201e55201433c2383,627c6f87be43ac8ecac5d732,2022-05-12_03h23.21.098,classification_task,2021.2.3,Win32,143.9263097,627c6715c52fd12f31907bcf,,,,,,,,,,,,,,space,18.037,2,0,2,0,1,,,,,,,,,,,,,,,,,,,,,,,,,,,,,,,,,,,,,,,,,,,,,,,,,
,6140b5b201e55201433c2383,627c6f87be43ac8ecac5d732,2022-05-12_03h23.21.098,classification_task,2021.2.3,Win32,143.9263097,627c6715c52fd12f31907bcf,,,,,,,,,,,,,,space,20.0159,3,0,3,0,1,,,,,,,,,,,,,,,,,,,,,,,,,,,,,,,,,,,,,,,,,,,,,,,,,
,6140b5b201e55201433c2383,627c6f87be43ac8ecac5d732,2022-05-12_03h23.21.098,classification_task,2021.2.3,Win32,143.9263097,627c6715c52fd12f31907bcf,,,,,,,,,,,,,,space,32.1836,4,0,4,0,1,,,,,,,,,,,,,,,,,,,,,,,,,,,,,,,,,,,,,,,,,,,,,,,,,
,6140b5b201e55201433c2383,627c6f87be43ac8ecac5d732,2022-05-12_03h23.21.098,classification_task,2021.2.3,Win32,143.9263097,627c6715c52fd12f31907bcf,,,,,,,,,,,,,,,,,,,,,space,23.673,l,1,2.7744,"[""0.091"",""0.127"",""0.500"",""0.768""]","[1,0,1,1]",0,0,0,0,1,1,1,,,0,FALSE,,,,,,,,,,,,,,,,,,,,,,,,,,,,,,,
,6140b5b201e55201433c2383,627c6f87be43ac8ecac5d732,2022-05-12_03h23.21.098,classification_task,2021.2.3,Win32,143.9263097,627c6715c52fd12f31907bcf,,,,,,,,,,,,,,,,,,,,,,,l,0,2.9759,"[""0.271"",""0.442"",""0.894"",""0.130""]","[1,1,1,0]",0,1,1,1,1,0,0,,,0,FALSE,,,,,,,,,,,,,,,,,,,,,,,,,,,,,,,
,6140b5b201e55201433c2383,627c6f87be43ac8ecac5d732,2022-05-12_03h23.21.098,classification_task,2021.2.3,Win32,143.9263097,627c6715c52fd12f31907bcf,,,,,,,,,,,,,,,,,,,,,,,a,1,8.2478,"[""0.309"",""0.548"",""0.127"",""0.970""]","[1,1,0,1]",0,2,2,2,1,0,1,,,0,FALSE,,,,,,,,,,,,,,,,,,,,,,,,,,,,,,,
,6140b5b201e55201433c2383,627c6f87be43ac8ecac5d732,2022-05-12_03h23.21.098,classification_task,2021.2.3,Win32,143.9263097,627c6715c52fd12f31907bcf,,,,,,,,,,,,,,,,,,,,,,,a,1,3.2408,"[""0.271"",""0.442"",""0.407"",""0.931""]","[1,1,0,1]",0,3,3,3,1,0,0,,,0,FALSE,,,,,,,,,,,,,,,,,,,,,,,,,,,,,,,
,6140b5b201e55201433c2383,627c6f87be43ac8ecac5d732,2022-05-12_03h23.21.098,classification_task,2021.2.3,Win32,143.9263097,627c6715c52fd12f31907bcf,,,,,,,,,,,,,,,,,,,,,,,l,1,4.4377,"[""0.091"",""0.201"",""0.500"",""0.706""]","[1,1,1,0]",0,4,4,4,1,1,1,,,0,FALSE,,,,,,,,,,,,,,,,,,,,,,,,,,,,,,,
,6140b5b201e55201433c2383,627c6f87be43ac8ecac5d732,2022-05-12_03h23.21.098,classification_task,2021.2.3,Win32,143.9263097,627c6715c52fd12f31907bcf,,,,,,,,,,,,,,,,,,,,,,,l,1,2.8422,"[""0.047"",""0.407"",""0.672"",""0.820""]","[1,0,1,1]",0,5,5,5,1,1,0,,,0,FALSE,,,,,,,,,,,,,,,,,,,,,,,,,,,,,,,
,6140b5b201e55201433c2383,627c6f87be43ac8ecac5d732,2022-05-12_03h23.21.098,classification_task,2021.2.3,Win32,143.9263097,627c6715c52fd12f31907bcf,,,,,,,,,,,,,,,,,,,,,,,l,0,8.8453,"[""0.309"",""0.130"",""0.854"",""0.970""]","[1,0,1,1]",0,6,6,6,1,0,1,,,0,FALSE,,,,,,,,,,,,,,,,,,,,,,,,,,,,,,,
,6140b5b201e55201433c2383,627c6f87be43ac8ecac5d732,2022-05-12_03h23.21.098,classification_task,2021.2.3,Win32,143.9263097,627c6715c52fd12f31907bcf,,,,,,,,,,,,,,,,,,,,,,,a,1,8.519,"[""0.603"",""0.442"",""0.894"",""0.931""]","[0,1,1,1]",0,7,7,7,1,0,0,,,0,FALSE,,,,,,,,,,,,,,,,,,,,,,,,,,,,,,,
,6140b5b201e55201433c2383,627c6f87be43ac8ecac5d732,2022-05-12_03h23.21.098,classification_task,2021.2.3,Win32,143.9263097,627c6715c52fd12f31907bcf,,,,,,,,,,,,,,,,,,,,,,,l,1,5.2731,"[""0.127"",""0.370"",""0.672"",""0.820""]","[0,1,1,1]",0,8,8,8,1,1,0,,,0,FALSE,,,,,,,,,,,,,,,,,,,,,,,,,,,,,,,
,6140b5b201e55201433c2383,627c6f87be43ac8ecac5d732,2022-05-12_03h23.21.098,classification_task,2021.2.3,Win32,143.9263097,627c6715c52fd12f31907bcf,,,,,,,,,,,,,,,,,,,,,,,a,1,5.8976,"[""0.309"",""0.548"",""0.854"",""0.407""]","[1,1,1,0]",0,9,9,9,1,0,1,,,0,FALSE,,,,,,,,,,,,,,,,,,,,,,,,,,,,,,,
,6140b5b201e55201433c2383,627c6f87be43ac8ecac5d732,2022-05-12_03h23.21.098,classification_task,2021.2.3,Win32,143.9263097,627c6715c52fd12f31907bcf,,,,,,,,,,,,,,,,,,,,,,,a,1,6.651,"[""0.271"",""0.728"",""0.894"",""0.931""]","[1,0,1,1]",0,10,10,10,1,0,0,,,0,FALSE,,,,,,,,,,,,,,,,,,,,,,,,,,,,,,,
,6140b5b201e55201433c2383,627c6f87be43ac8ecac5d732,2022-05-12_03h23.21.098,classification_task,2021.2.3,Win32,143.9263097,627c6715c52fd12f31907bcf,,,,,,,,,,,,,,,,,,,,,,,a,0,7.8806,"[""0.091"",""0.201"",""0.726"",""0.768""]","[1,1,0,1]",0,11,11,11,1,1,1,,,0,FALSE,,,,,,,,,,,,,,,,,,,,,,,,,,,,,,,
,6140b5b201e55201433c2383,627c6f87be43ac8ecac5d732,2022-05-12_03h23.21.098,classification_task,2021.2.3,Win32,143.9263097,627c6715c52fd12f31907bcf,,,,,,,,,,,,,,,,,,,,,,,l,1,4.8075,"[""0.047"",""0.370"",""0.149"",""0.820""]","[1,1,0,1]",0,12,12,12,1,1,0,,,0,FALSE,,,,,,,,,,,,,,,,,,,,,,,,,,,,,,,
,6140b5b201e55201433c2383,627c6f87be43ac8ecac5d732,2022-05-12_03h23.21.098,classification_task,2021.2.3,Win32,143.9263097,627c6715c52fd12f31907bcf,,,,,,,,,,,,,,,,,,,,,,,l,1,5.6207,"[""0.127"",""0.201"",""0.500"",""0.768""]","[0,1,1,1]",0,13,13,13,1,1,1,,,0,FALSE,,,,,,,,,,,,,,,,,,,,,,,,,,,,,,,
,6140b5b201e55201433c2383,627c6f87be43ac8ecac5d732,2022-05-12_03h23.21.098,classification_task,2021.2.3,Win32,143.9263097,627c6715c52fd12f31907bcf,,,,,,,,,,,,,,,,,,,,,,,l,1,3.6127,"[""0.047"",""0.370"",""0.672"",""0.134""]","[1,1,1,0]",0,14,14,14,1,1,0,,,0,FALSE,,,,,,,,,,,,,,,,,,,,,,,,,,,,,,,
,6140b5b201e55201433c2383,627c6f87be43ac8ecac5d732,2022-05-12_03h23.21.098,classification_task,2021.2.3,Win32,143.9263097,627c6715c52fd12f31907bcf,,,,,,,,,,,,,,,,,,,,,,,a,1,3.4111,"[""0.126"",""0.548"",""0.854"",""0.970""]","[0,1,1,1]",0,15,15,15,1,0,1,,,0,FALSE,,,,,,,,,,,,,,,,,,,,,,,,,,,,,,,
,6140b5b201e55201433c2383,627c6f87be43ac8ecac5d732,2022-05-12_03h23.21.098,classification_task,2021.2.3,Win32,143.9263097,627c6715c52fd12f31907bcf,,,,,,,,,,,,,,,,,,,,,,,a,1,2.3075,"[""0.130"",""0.442"",""0.894"",""0.931""]","[0,1,1,1]",0,16,16,16,1,0,0,,,0,FALSE,,,,,,,,,,,,,,,,,,,,,,,,,,,,,,,
,6140b5b201e55201433c2383,627c6f87be43ac8ecac5d732,2022-05-12_03h23.21.098,classification_task,2021.2.3,Win32,143.9263097,627c6715c52fd12f31907bcf,,,,,,,,,,,,,,,,,,,,,,,l,1,4.3396,"[""0.632"",""0.201"",""0.500"",""0.768""]","[0,1,1,1]",0,17,17,17,1,1,1,,,0,FALSE,,,,,,,,,,,,,,,,,,,,,,,,,,,,,,,
,6140b5b201e55201433c2383,627c6f87be43ac8ecac5d732,2022-05-12_03h23.21.098,classification_task,2021.2.3,Win32,143.9263097,627c6715c52fd12f31907bcf,,,,,,,,,,,,,,,,,,,,,,,l,1,2.5688,"[""0.047"",""0.632"",""0.672"",""0.820""]","[1,0,1,1]",0,18,18,18,1,1,0,,,0,FALSE,,,,,,,,,,,,,,,,,,,,,,,,,,,,,,,
,6140b5b201e55201433c2383,627c6f87be43ac8ecac5d732,2022-05-12_03h23.21.098,classification_task,2021.2.3,Win32,143.9263097,627c6715c52fd12f31907bcf,,,,,,,,,,,,,,,,,,,,,,,a,1,7.06,"[""0.271"",""0.606"",""0.894"",""0.931""]","[1,0,1,1]",0,19,19,19,1,0,0,,,0,FALSE,,,,,,,,,,,,,,,,,,,,,,,,,,,,,,,
,6140b5b201e55201433c2383,627c6f87be43ac8ecac5d732,2022-05-12_03h23.21.098,classification_task,2021.2.3,Win32,143.9263097,627c6715c52fd12f31907bcf,,,,,,,,,,,,,,,,,,,,,,,l,1,5.1977,"[""0.130"",""0.370"",""0.672"",""0.820""]","[0,1,1,1]",0,20,20,20,1,1,0,,,0,FALSE,,,,,,,,,,,,,,,,,,,,,,,,,,,,,,,
,6140b5b201e55201433c2383,627c6f87be43ac8ecac5d732,2022-05-12_03h23.21.098,classification_task,2021.2.3,Win32,143.9263097,627c6715c52fd12f31907bcf,,,,,,,,,,,,,,,,,,,,,,,l,1,3.0043,"[""0.091"",""0.130"",""0.500"",""0.768""]","[1,0,1,1]",0,21,21,21,1,1,1,,,0,FALSE,,,,,,,,,,,,,,,,,,,,,,,,,,,,,,,
,6140b5b201e55201433c2383,627c6f87be43ac8ecac5d732,2022-05-12_03h23.21.098,classification_task,2021.2.3,Win32,143.9263097,627c6715c52fd12f31907bcf,,,,,,,,,,,,,,,,,,,,,,,a,1,3.9044,"[""0.146"",""0.548"",""0.854"",""0.970""]","[0,1,1,1]",0,22,22,22,1,0,1,,,0,FALSE,,,,,,,,,,,,,,,,,,,,,,,,,,,,,,,
,6140b5b201e55201433c2383,627c6f87be43ac8ecac5d732,2022-05-12_03h23.21.098,classification_task,2021.2.3,Win32,143.9263097,627c6715c52fd12f31907bcf,,,,,,,,,,,,,,,,,,,,,,,l,1,4.2759,"[""0.091"",""0.201"",""0.500"",""0.585""]","[1,1,1,0]",0,23,23,23,1,1,1,,,0,FALSE,,,,,,,,,,,,,,,,,,,,,,,,,,,,,,,
,6140b5b201e55201433c2383,627c6f87be43ac8ecac5d732,2022-05-12_03h23.21.098,classification_task,2021.2.3,Win32,143.9263097,627c6715c52fd12f31907bcf,,,,,,,,,,,,,,,,,,,,,,,a,1,2.2064,"[""0.309"",""0.632"",""0.854"",""0.970""]","[1,0,1,1]",0,24,24,24,1,0,1,,,0,FALSE,,,,,,,,,,,,,,,,,,,,,,,,,,,,,,,
,6140b5b201e55201433c2383,627c6f87be43ac8ecac5d732,2022-05-12_03h23.21.098,classification_task,2021.2.3,Win32,143.9263097,627c6715c52fd12f31907bcf,,,,,,,,,,,,,,,,,,,,,,,a,1,4.1349,"[""0.309"",""0.548"",""0.407"",""0.970""]","[1,1,0,1]",0,25,25,25,1,0,1,,,0,FALSE,,,,,,,,,,,,,,,,,,,,,,,,,,,,,,,
,6140b5b201e55201433c2383,627c6f87be43ac8ecac5d732,2022-05-12_03h23.21.098,classification_task,2021.2.3,Win32,143.9263097,627c6715c52fd12f31907bcf,,,,,,,,,,,,,,,,,,,,,,,l,1,2.4525,"[""0.091"",""0.201"",""0.407"",""0.768""]","[1,1,0,1]",0,26,26,26,1,1,1,,,0,FALSE,,,,,,,,,,,,,,,,,,,,,,,,,,,,,,,
,6140b5b201e55201433c2383,627c6f87be43ac8ecac5d732,2022-05-12_03h23.21.098,classification_task,2021.2.3,Win32,143.9263097,627c6715c52fd12f31907bcf,,,,,,,,,,,,,,,,,,,,,,,l,1,4.5286,"[""0.047"",""0.370"",""0.632"",""0.820""]","[1,1,0,1]",0,27,27,27,1,1,0,,,0,FALSE,,,,,,,,,,,,,,,,,,,,,,,,,,,,,,,
,6140b5b201e55201433c2383,627c6f87be43ac8ecac5d732,2022-05-12_03h23.21.098,classification_task,2021.2.3,Win32,143.9263097,627c6715c52fd12f31907bcf,,,,,,,,,,,,,,,,,,,,,,,a,1,2.6442,"[""0.309"",""0.548"",""0.854"",""0.149""]","[1,1,1,0]",0,28,28,28,1,0,1,,,0,FALSE,,,,,,,,,,,,,,,,,,,,,,,,,,,,,,,
,6140b5b201e55201433c2383,627c6f87be43ac8ecac5d732,2022-05-12_03h23.21.098,classification_task,2021.2.3,Win32,143.9263097,627c6715c52fd12f31907bcf,,,,,,,,,,,,,,,,,,,,,,,a,1,2.7993,"[""0.271"",""0.442"",""0.894"",""0.585""]","[1,1,1,0]",0,29,29,29,1,0,0,,,0,FALSE,,,,,,,,,,,,,,,,,,,,,,,,,,,,,,,
,6140b5b201e55201433c2383,627c6f87be43ac8ecac5d732,2022-05-12_03h23.21.098,classification_task,2021.2.3,Win32,143.9263097,627c6715c52fd12f31907bcf,,,,,,,,,,,,,,,,,,,,,,,l,1,4.542,"[""0.047"",""0.370"",""0.672"",""0.726""]","[1,1,1,0]",0,30,30,30,1,1,0,,,0,FALSE,,,,,,,,,,,,,,,,,,,,,,,,,,,,,,,
,6140b5b201e55201433c2383,627c6f87be43ac8ecac5d732,2022-05-12_03h23.21.098,classification_task,2021.2.3,Win32,143.9263097,627c6715c52fd12f31907bcf,,,,,,,,,,,,,,,,,,,,,,,a,1,3.553,"[""0.271"",""0.442"",""0.407"",""0.931""]","[1,1,0,1]",0,31,31,31,1,0,0,,,0,FALSE,,,,,,,,,,,,,,,,,,,,,,,,,,,,,,,
,6140b5b201e55201433c2383,627c6f87be43ac8ecac5d732,2022-05-12_03h23.21.098,classification_task,2021.2.3,Win32,143.9263097,627c6715c52fd12f31907bcf,,,,,,,,,,,,,,,,,,,,,,,a,1,4.7964,"[""0.309"",""0.548"",""0.854"",""0.149""]","[1,1,1,0]",0,32,32,32,1,0,1,,,0,FALSE,,,,,,,,,,,,,,,,,,,,,,,,,,,,,,,
,6140b5b201e55201433c2383,627c6f87be43ac8ecac5d732,2022-05-12_03h23.21.098,classification_task,2021.2.3,Win32,143.9263097,627c6715c52fd12f31907bcf,,,,,,,,,,,,,,,,,,,,,,,l,0,3.3208,"[""0.309"",""0.548"",""0.606"",""0.970""]","[1,1,0,1]",0,33,33,33,1,0,1,,,0,FALSE,,,,,,,,,,,,,,,,,,,,,,,,,,,,,,,
,6140b5b201e55201433c2383,627c6f87be43ac8ecac5d732,2022-05-12_03h23.21.098,classification_task,2021.2.3,Win32,143.9263097,627c6715c52fd12f31907bcf,,,,,,,,,,,,,,,,,,,,,,,l,0,1.8756,"[""0.309"",""0.130"",""0.854"",""0.970""]","[1,0,1,1]",0,34,34,34,1,0,1,,,0,FALSE,,,,,,,,,,,,,,,,,,,,,,,,,,,,,,,
,6140b5b201e55201433c2383,627c6f87be43ac8ecac5d732,2022-05-12_03h23.21.098,classification_task,2021.2.3,Win32,143.9263097,627c6715c52fd12f31907bcf,,,,,,,,,,,,,,,,,,,,,,,l,1,4.3684,"[""0.047"",""0.370"",""0.130"",""0.820""]","[1,1,0,1]",0,35,35,35,1,1,0,,,0,FALSE,,,,,,,,,,,,,,,,,,,,,,,,,,,,,,,
,6140b5b201e55201433c2383,627c6f87be43ac8ecac5d732,2022-05-12_03h23.21.098,classification_task,2021.2.3,Win32,143.9263097,627c6715c52fd12f31907bcf,,,,,,,,,,,,,,,,,,,,,,,l,1,3.7232,"[""0.091"",""0.137"",""0.500"",""0.768""]","[1,0,1,1]",0,36,36,36,1,1,1,,,0,FALSE,,,,,,,,,,,,,,,,,,,,,,,,,,,,,,,
,6140b5b201e55201433c2383,627c6f87be43ac8ecac5d732,2022-05-12_03h23.21.098,classification_task,2021.2.3,Win32,143.9263097,627c6715c52fd12f31907bcf,,,,,,,,,,,,,,,,,,,,,,,a,0,3.5224,"[""0.047"",""0.370"",""0.672"",""0.606""]","[1,1,1,0]",0,37,37,37,1,1,0,,,0,FALSE,,,,,,,,,,,,,,,,,,,,,,,,,,,,,,,
,6140b5b201e55201433c2383,627c6f87be43ac8ecac5d732,2022-05-12_03h23.21.098,classification_task,2021.2.3,Win32,143.9263097,627c6715c52fd12f31907bcf,,,,,,,,,,,,,,,,,,,,,,,a,0,2.6837,"[""0.407"",""0.201"",""0.500"",""0.768""]","[0,1,1,1]",0,38,38,38,1,1,1,,,0,FALSE,,,,,,,,,,,,,,,,,,,,,,,,,,,,,,,
,6140b5b201e55201433c2383,627c6f87be43ac8ecac5d732,2022-05-12_03h23.21.098,classification_task,2021.2.3,Win32,143.9263097,627c6715c52fd12f31907bcf,,,,,,,,,,,,,,,,,,,,,,,a,0,4.4032,"[""0.047"",""0.615"",""0.672"",""0.820""]","[1,0,1,1]",0,39,39,39,1,1,0,,,0,FALSE,,,,,,,,,,,,,,,,,,,,,,,,,,,,,,,
,6140b5b201e55201433c2383,627c6f87be43ac8ecac5d732,2022-05-12_03h23.21.098,classification_task,2021.2.3,Win32,143.9263097,627c6715c52fd12f31907bcf,,,,,,,,,,,,,,,,,,,,,,,a,1,3.1323,"[""0.271"",""0.442"",""0.894"",""0.134""]","[1,1,1,0]",0,40,40,40,1,0,0,,,0,FALSE,,,,,,,,,,,,,,,,,,,,,,,,,,,,,,,
,6140b5b201e55201433c2383,627c6f87be43ac8ecac5d732,2022-05-12_03h23.21.098,classification_task,2021.2.3,Win32,143.9263097,627c6715c52fd12f31907bcf,,,,,,,,,,,,,,,,,,,,,,,l,0,1.7528,"[""0.271"",""0.149"",""0.894"",""0.931""]","[1,0,1,1]",0,41,41,41,1,0,0,,,0,FALSE,,,,,,,,,,,,,,,,,,,,,,,,,,,,,,,
,6140b5b201e55201433c2383,627c6f87be43ac8ecac5d732,2022-05-12_03h23.21.098,classification_task,2021.2.3,Win32,143.9263097,627c6715c52fd12f31907bcf,,,,,,,,,,,,,,,,,,,,,,,a,1,2.7171,"[""0.127"",""0.548"",""0.854"",""0.970""]","[0,1,1,1]",0,42,42,42,1,0,1,,,0,FALSE,,,,,,,,,,,,,,,,,,,,,,,,,,,,,,,
,6140b5b201e55201433c2383,627c6f87be43ac8ecac5d732,2022-05-12_03h23.21.098,classification_task,2021.2.3,Win32,143.9263097,627c6715c52fd12f31907bcf,,,,,,,,,,,,,,,,,,,,,,,a,0,3.7462,"[""0.632"",""0.370"",""0.672"",""0.820""]","[0,1,1,1]",0,43,43,43,1,1,0,,,0,FALSE,,,,,,,,,,,,,,,,,,,,,,,,,,,,,,,
,6140b5b201e55201433c2383,627c6f87be43ac8ecac5d732,2022-05-12_03h23.21.098,classification_task,2021.2.3,Win32,143.9263097,627c6715c52fd12f31907bcf,,,,,,,,,,,,,,,,,,,,,,,l,1,3.133,"[""0.091"",""0.201"",""0.127"",""0.768""]","[1,1,0,1]",0,44,44,44,1,1,1,,,0,FALSE,,,,,,,,,,,,,,,,,,,,,,,,,,,,,,,
,6140b5b201e55201433c2383,627c6f87be43ac8ecac5d732,2022-05-12_03h23.21.098,classification_task,2021.2.3,Win32,143.9263097,627c6715c52fd12f31907bcf,,,,,,,,,,,,,,,,,,,,,,,l,0,2.6531,"[""0.271"",""0.442"",""0.134"",""0.931""]","[1,1,0,1]",0,45,45,45,1,0,0,,,0,FALSE,,,,,,,,,,,,,,,,,,,,,,,,,,,,,,,
,6140b5b201e55201433c2383,627c6f87be43ac8ecac5d732,2022-05-12_03h23.21.098,classification_task,2021.2.3,Win32,143.9263097,627c6715c52fd12f31907bcf,,,,,,,,,,,,,,,,,,,,,,,l,1,2.7366,"[""0.091"",""0.201"",""0.500"",""0.585""]","[1,1,1,0]",0,46,46,46,1,1,1,,,0,FALSE,,,,,,,,,,,,,,,,,,,,,,,,,,,,,,,
,6140b5b201e55201433c2383,627c6f87be43ac8ecac5d732,2022-05-12_03h23.21.098,classification_task,2021.2.3,Win32,143.9263097,627c6715c52fd12f31907bcf,,,,,,,,,,,,,,,,,,,,,,,a,1,2.0975,"[""0.130"",""0.442"",""0.894"",""0.931""]","[0,1,1,1]",0,47,47,47,1,0,0,,,0,FALSE,,,,,,,,,,,,,,,,,,,,,,,,,,,,,,,
,6140b5b201e55201433c2383,627c6f87be43ac8ecac5d732,2022-05-12_03h23.21.098,classification_task,2021.2.3,Win32,143.9263097,627c6715c52fd12f31907bcf,,,,,,,,,,,,,,,,,,,,,,,l,1,2.5773,"[""0.615"",""0.201"",""0.500"",""0.768""]","[0,1,1,1]",0,48,48,48,1,1,1,,,0,FALSE,,,,,,,,,,,,,,,,,,,,,,,,,,,,,,,
,6140b5b201e55201433c2383,627c6f87be43ac8ecac5d732,2022-05-12_03h23.21.098,classification_task,2021.2.3,Win32,143.9263097,627c6715c52fd12f31907bcf,,,,,,,,,,,,,,,,,,,,,,,l,1,2.7393,"[""0.091"",""0.615"",""0.500"",""0.768""]","[1,0,1,1]",0,49,49,49,1,1,1,,,0,FALSE,,,,,,,,,,,,,,,,,,,,,,,,,,,,,,,
,6140b5b201e55201433c2383,627c6f87be43ac8ecac5d732,2022-05-12_03h23.21.098,classification_task,2021.2.3,Win32,143.9263097,627c6715c52fd12f31907bcf,,,,,,,,,,,,,,,,,,,,,,,a,1,1.8208,"[""0.271"",""0.442"",""0.894"",""0.407""]","[1,1,1,0]",0,50,50,50,1,0,0,,,0,FALSE,,,,,,,,,,,,,,,,,,,,,,,,,,,,,,,
,6140b5b201e55201433c2383,627c6f87be43ac8ecac5d732,2022-05-12_03h23.21.098,classification_task,2021.2.3,Win32,143.9263097,627c6715c52fd12f31907bcf,,,,,,,,,,,,,,,,,,,,,,,l,1,2.0764,"[""0.047"",""0.370"",""0.672"",""0.137""]","[1,1,1,0]",0,51,51,51,1,1,0,,,0,FALSE,,,,,,,,,,,,,,,,,,,,,,,,,,,,,,,
,6140b5b201e55201433c2383,627c6f87be43ac8ecac5d732,2022-05-12_03h23.21.098,classification_task,2021.2.3,Win32,143.9263097,627c6715c52fd12f31907bcf,,,,,,,,,,,,,,,,,,,,,,,a,1,1.5998,"[""0.271"",""0.442"",""0.407"",""0.931""]","[1,1,0,1]",0,52,52,52,1,0,0,,,0,FALSE,,,,,,,,,,,,,,,,,,,,,,,,,,,,,,,
,6140b5b201e55201433c2383,627c6f87be43ac8ecac5d732,2022-05-12_03h23.21.098,classification_task,2021.2.3,Win32,143.9263097,627c6715c52fd12f31907bcf,,,,,,,,,,,,,,,,,,,,,,,a,1,1.2514,"[""0.726"",""0.442"",""0.894"",""0.931""]","[0,1,1,1]",0,53,53,53,1,0,0,,,0,FALSE,,,,,,,,,,,,,,,,,,,,,,,,,,,,,,,
,6140b5b201e55201433c2383,627c6f87be43ac8ecac5d732,2022-05-12_03h23.21.098,classification_task,2021.2.3,Win32,143.9263097,627c6715c52fd12f31907bcf,,,,,,,,,,,,,,,,,,,,,,,a,0,0.8193,"[""0.091"",""0.201"",""0.500"",""0.146""]","[1,1,1,0]",0,54,54,54,1,1,1,,,0,FALSE,,,,,,,,,,,,,,,,,,,,,,,,,,,,,,,
,6140b5b201e55201433c2383,627c6f87be43ac8ecac5d732,2022-05-12_03h23.21.098,classification_task,2021.2.3,Win32,143.9263097,627c6715c52fd12f31907bcf,,,,,,,,,,,,,,,,,,,,,,,l,0,2.2239,"[""0.309"",""0.548"",""0.407"",""0.970""]","[1,1,0,1]",0,55,55,55,1,0,1,,,0,FALSE,,,,,,,,,,,,,,,,,,,,,,,,,,,,,,,
,6140b5b201e55201433c2383,627c6f87be43ac8ecac5d732,2022-05-12_03h23.21.098,classification_task,2021.2.3,Win32,143.9263097,627c6715c52fd12f31907bcf,,,,,,,,,,,,,,,,,,,,,,,a,1,1.3795,"[""0.309"",""0.146"",""0.854"",""0.970""]","[1,0,1,1]",0,56,56,56,1,0,1,,,0,FALSE,,,,,,,,,,,,,,,,,,,,,,,,,,,,,,,
,6140b5b201e55201433c2383,627c6f87be43ac8ecac5d732,2022-05-12_03h23.21.098,classification_task,2021.2.3,Win32,143.9263097,627c6715c52fd12f31907bcf,,,,,,,,,,,,,,,,,,,,,,,a,1,1.6049,"[""0.271"",""0.130"",""0.894"",""0.931""]","[1,0,1,1]",0,57,57,57,1,0,0,,,0,FALSE,,,,,,,,,,,,,,,,,,,,,,,,,,,,,,,
,6140b5b201e55201433c2383,627c6f87be43ac8ecac5d732,2022-05-12_03h23.21.098,classification_task,2021.2.3,Win32,143.9263097,627c6715c52fd12f31907bcf,,,,,,,,,,,,,,,,,,,,,,,l,1,1.0903,"[""0.047"",""0.370"",""0.126"",""0.820""]","[1,1,0,1]",0,58,58,58,1,1,0,,,0,FALSE,,,,,,,,,,,,,,,,,,,,,,,,,,,,,,,
,6140b5b201e55201433c2383,627c6f87be43ac8ecac5d732,2022-05-12_03h23.21.098,classification_task,2021.2.3,Win32,143.9263097,627c6715c52fd12f31907bcf,,,,,,,,,,,,,,,,,,,,,,,a,1,1.8167,"[""0.309"",""0.548"",""0.854"",""0.134""]","[1,1,1,0]",0,59,59,59,1,0,1,,,0,FALSE,,,,,,,,,,,,,,,,,,,,,,,,,,,,,,,
,6140b5b201e55201433c2383,627c6f87be43ac8ecac5d732,2022-05-12_03h23.21.098,classification_task,2021.2.3,Win32,143.9263097,627c6715c52fd12f31907bcf,,,,,,,,,,,,,,,,,,,,,,,a,1,0.952,"[""0.149"",""0.548"",""0.854"",""0.970""]","[0,1,1,1]",0,60,60,60,1,0,1,,,0,FALSE,,,,,,,,,,,,,,,,,,,,,,,,,,,,,,,
,6140b5b201e55201433c2383,627c6f87be43ac8ecac5d732,2022-05-12_03h23.21.098,classification_task,2021.2.3,Win32,143.9263097,627c6715c52fd12f31907bcf,,,,,,,,,,,,,,,,,,,,,,,l,1,0.7784,"[""0.091"",""0.201"",""0.149"",""0.768""]","[1,1,0,1]",0,61,61,61,1,1,1,,,0,FALSE,,,,,,,,,,,,,,,,,,,,,,,,,,,,,,,
,6140b5b201e55201433c2383,627c6f87be43ac8ecac5d732,2022-05-12_03h23.21.098,classification_task,2021.2.3,Win32,143.9263097,627c6715c52fd12f31907bcf,,,,,,,,,,,,,,,,,,,,,,,l,1,1.0556,"[""0.606"",""0.370"",""0.672"",""0.820""]","[0,1,1,1]",0,62,62,62,1,1,0,,,0,FALSE,,,,,,,,,,,,,,,,,,,,,,,,,,,,,,,
,6140b5b201e55201433c2383,627c6f87be43ac8ecac5d732,2022-05-12_03h23.21.098,classification_task,2021.2.3,Win32,143.9263097,627c6715c52fd12f31907bcf,,,,,,,,,,,,,,,,,,,,,,,a,0,1.3614,"[""0.047"",""0.134"",""0.672"",""0.820""]","[1,0,1,1]",0,63,63,63,1,1,0,,,0,FALSE,,,,,,,,,,,,,,,,,,,,,,,,,,,,,,,
,6140b5b201e55201433c2383,627c6f87be43ac8ecac5d732,2022-05-12_03h23.21.098,classification_task,2021.2.3,Win32,143.9263097,627c6715c52fd12f31907bcf,,,,,,,,,,,,,,,,,,,,,,,,,,,,,,,,,,,,,,,0, ,,0,2.942386831,512.147,0,0,0,0,1,2,1,,,,,,,,,,,,,,,,,,
,6140b5b201e55201433c2383,627c6f87be43ac8ecac5d732,2022-05-12_03h23.21.098,classification_task,2021.2.3,Win32,143.9263097,627c6715c52fd12f31907bcf,,,,,,,,,,,,,,,,,,,,,,,,,,,,,,,,,,,,,,,1,  ,,0,7.449539487,517.4451,0,0,0,0,1,2,1,,,,,,,,,,,,,,,,,,
,6140b5b201e55201433c2383,627c6f87be43ac8ecac5d732,2022-05-12_03h23.21.098,classification_task,2021.2.3,Win32,143.9263097,627c6715c52fd12f31907bcf,,,,,,,,,,,,,,,,,,,,,,,,,,,,,,,,,,,,,,,2,  ,,0,5.661375661,521.7361,0,0,0,0,1,2,1,,,,,,,,,,,,,,,,,,
,6140b5b201e55201433c2383,627c6f87be43ac8ecac5d732,2022-05-12_03h23.21.098,classification_task,2021.2.3,Win32,143.9263097,627c6715c52fd12f31907bcf,,,,,,,,,,,,,,,,,,,,,,,,,,,,,,,,,,,,,,,,,,,,,0,0,0,0,1,,1,,,,,,,,,,,,,,,,,,
,6140b5b201e55201433c2383,627c6f87be43ac8ecac5d732,2022-05-12_03h23.21.098,classification_task,2021.2.3,Win32,143.9263097,627c6715c52fd12f31907bcf,,,,,,,,,,,,,,,,,,,,,space,13.4975,a,1,2.5603,"[""0.271"",""0.442"",""0.127"",""0.931""]","[1,1,0,1]",0,0,0,0,1,0,0,,,0,FALSE,,,,,,,,,,,,,,,,,,,,,,,,,,,,,,,
,6140b5b201e55201433c2383,627c6f87be43ac8ecac5d732,2022-05-12_03h23.21.098,classification_task,2021.2.3,Win32,143.9263097,627c6715c52fd12f31907bcf,,,,,,,,,,,,,,,,,,,,,,,l,0,0.8095,"[""0.149"",""0.442"",""0.894"",""0.931""]","[0,1,1,1]",0,1,1,1,1,0,0,,,0,FALSE,,,,,,,,,,,,,,,,,,,,,,,,,,,,,,,
,6140b5b201e55201433c2383,627c6f87be43ac8ecac5d732,2022-05-12_03h23.21.098,classification_task,2021.2.3,Win32,143.9263097,627c6715c52fd12f31907bcf,,,,,,,,,,,,,,,,,,,,,,,l,1,2.5798,"[""0.047"",""0.706"",""0.672"",""0.820""]","[1,0,1,1]",0,2,2,2,1,1,0,,,0,FALSE,,,,,,,,,,,,,,,,,,,,,,,,,,,,,,,
,6140b5b201e55201433c2383,627c6f87be43ac8ecac5d732,2022-05-12_03h23.21.098,classification_task,2021.2.3,Win32,143.9263097,627c6715c52fd12f31907bcf,,,,,,,,,,,,,,,,,,,,,,,a,0,2.799,"[""0.728"",""0.201"",""0.500"",""0.768""]","[0,1,1,1]",0,3,3,3,1,1,1,,,0,FALSE,,,,,,,,,,,,,,,,,,,,,,,,,,,,,,,
,6140b5b201e55201433c2383,627c6f87be43ac8ecac5d732,2022-05-12_03h23.21.098,classification_task,2021.2.3,Win32,143.9263097,627c6715c52fd12f31907bcf,,,,,,,,,,,,,,,,,,,,,,,l,1,1.1134,"[""0.091"",""0.728"",""0.500"",""0.768""]","[1,0,1,1]",0,4,4,4,1,1,1,,,0,FALSE,,,,,,,,,,,,,,,,,,,,,,,,,,,,,,,
,6140b5b201e55201433c2383,627c6f87be43ac8ecac5d732,2022-05-12_03h23.21.098,classification_task,2021.2.3,Win32,143.9263097,627c6715c52fd12f31907bcf,,,,,,,,,,,,,,,,,,,,,,,a,1,1.2752,"[""0.309"",""0.585"",""0.854"",""0.970""]","[1,0,1,1]",0,5,5,5,1,0,1,,,0,FALSE,,,,,,,,,,,,,,,,,,,,,,,,,,,,,,,
,6140b5b201e55201433c2383,627c6f87be43ac8ecac5d732,2022-05-12_03h23.21.098,classification_task,2021.2.3,Win32,143.9263097,627c6715c52fd12f31907bcf,,,,,,,,,,,,,,,,,,,,,,,a,0,0.869,"[""0.091"",""0.201"",""0.606"",""0.768""]","[1,1,0,1]",0,6,6,6,1,1,1,,,0,FALSE,,,,,,,,,,,,,,,,,,,,,,,,,,,,,,,
,6140b5b201e55201433c2383,627c6f87be43ac8ecac5d732,2022-05-12_03h23.21.098,classification_task,2021.2.3,Win32,143.9263097,627c6715c52fd12f31907bcf,,,,,,,,,,,,,,,,,,,,,,,l,1,1.0491,"[""0.091"",""0.201"",""0.500"",""0.632""]","[1,1,1,0]",0,7,7,7,1,1,1,,,0,FALSE,,,,,,,,,,,,,,,,,,,,,,,,,,,,,,,
,6140b5b201e55201433c2383,627c6f87be43ac8ecac5d732,2022-05-12_03h23.21.098,classification_task,2021.2.3,Win32,143.9263097,627c6715c52fd12f31907bcf,,,,,,,,,,,,,,,,,,,,,,,a,1,1.2746,"[""0.309"",""0.548"",""0.854"",""0.149""]","[1,1,1,0]",0,8,8,8,1,0,1,,,0,FALSE,,,,,,,,,,,,,,,,,,,,,,,,,,,,,,,
,6140b5b201e55201433c2383,627c6f87be43ac8ecac5d732,2022-05-12_03h23.21.098,classification_task,2021.2.3,Win32,143.9263097,627c6715c52fd12f31907bcf,,,,,,,,,,,,,,,,,,,,,,,a,1,1.2601,"[""0.309"",""0.548"",""0.134"",""0.970""]","[1,1,0,1]",0,9,9,9,1,0,1,,,0,FALSE,,,,,,,,,,,,,,,,,,,,,,,,,,,,,,,
,6140b5b201e55201433c2383,627c6f87be43ac8ecac5d732,2022-05-12_03h23.21.098,classification_task,2021.2.3,Win32,143.9263097,627c6715c52fd12f31907bcf,,,,,,,,,,,,,,,,,,,,,,,a,0,2.2599,"[""0.130"",""0.370"",""0.672"",""0.820""]","[0,1,1,1]",0,10,10,10,1,1,0,,,0,FALSE,,,,,,,,,,,,,,,,,,,,,,,,,,,,,,,
,6140b5b201e55201433c2383,627c6f87be43ac8ecac5d732,2022-05-12_03h23.21.098,classification_task,2021.2.3,Win32,143.9263097,627c6715c52fd12f31907bcf,,,,,,,,,,,,,,,,,,,,,,,l,0,1.5735,"[""0.271"",""0.442"",""0.894"",""0.632""]","[1,1,1,0]",0,11,11,11,1,0,0,,,0,FALSE,,,,,,,,,,,,,,,,,,,,,,,,,,,,,,,
,6140b5b201e55201433c2383,627c6f87be43ac8ecac5d732,2022-05-12_03h23.21.098,classification_task,2021.2.3,Win32,143.9263097,627c6715c52fd12f31907bcf,,,,,,,,,,,,,,,,,,,,,,,l,1,2.3818,"[""0.047"",""0.370"",""0.672"",""0.728""]","[1,1,1,0]",0,12,12,12,1,1,0,,,0,FALSE,,,,,,,,,,,,,,,,,,,,,,,,,,,,,,,
,6140b5b201e55201433c2383,627c6f87be43ac8ecac5d732,2022-05-12_03h23.21.098,classification_task,2021.2.3,Win32,143.9263097,627c6715c52fd12f31907bcf,,,,,,,,,,,,,,,,,,,,,,,a,0,1.8971,"[""0.047"",""0.370"",""0.606"",""0.820""]","[1,1,0,1]",0,13,13,13,1,1,0,,,0,FALSE,,,,,,,,,,,,,,,,,,,,,,,,,,,,,,,
,6140b5b201e55201433c2383,627c6f87be43ac8ecac5d732,2022-05-12_03h23.21.098,classification_task,2021.2.3,Win32,143.9263097,627c6715c52fd12f31907bcf,,,,,,,,,,,,,,,,,,,,,,,a,1,1.9454,"[""0.271"",""0.603"",""0.894"",""0.931""]","[1,0,1,1]",0,14,14,14,1,0,0,,,0,FALSE,,,,,,,,,,,,,,,,,,,,,,,,,,,,,,,
,6140b5b201e55201433c2383,627c6f87be43ac8ecac5d732,2022-05-12_03h23.21.098,classification_task,2021.2.3,Win32,143.9263097,627c6715c52fd12f31907bcf,,,,,,,,,,,,,,,,,,,,,,,a,1,2.7015,"[""0.127"",""0.548"",""0.854"",""0.970""]","[0,1,1,1]",0,15,15,15,1,0,1,,,0,FALSE,,,,,,,,,,,,,,,,,,,,,,,,,,,,,,,
,6140b5b201e55201433c2383,627c6f87be43ac8ecac5d732,2022-05-12_03h23.21.098,classification_task,2021.2.3,Win32,143.9263097,627c6715c52fd12f31907bcf,,,,,,,,,,,,,,,,,,,,,,,a,0,1.9933,"[""0.606"",""0.370"",""0.672"",""0.820""]","[0,1,1,1]",0,16,16,16,1,1,0,,,0,FALSE,,,,,,,,,,,,,,,,,,,,,,,,,,,,,,,
,6140b5b201e55201433c2383,627c6f87be43ac8ecac5d732,2022-05-12_03h23.21.098,classification_task,2021.2.3,Win32,143.9263097,627c6715c52fd12f31907bcf,,,,,,,,,,,,,,,,,,,,,,,l,1,1.7772,"[""0.091"",""0.201"",""0.500"",""0.615""]","[1,1,1,0]",0,17,17,17,1,1,1,,,0,FALSE,,,,,,,,,,,,,,,,,,,,,,,,,,,,,,,
,6140b5b201e55201433c2383,627c6f87be43ac8ecac5d732,2022-05-12_03h23.21.098,classification_task,2021.2.3,Win32,143.9263097,627c6715c52fd12f31907bcf,,,,,,,,,,,,,,,,,,,,,,,l,0,2.1047,"[""0.149"",""0.442"",""0.894"",""0.931""]","[0,1,1,1]",0,18,18,18,1,0,0,,,0,FALSE,,,,,,,,,,,,,,,,,,,,,,,,,,,,,,,
,6140b5b201e55201433c2383,627c6f87be43ac8ecac5d732,2022-05-12_03h23.21.098,classification_task,2021.2.3,Win32,143.9263097,627c6715c52fd12f31907bcf,,,,,,,,,,,,,,,,,,,,,,,a,1,2.2646,"[""0.309"",""0.548"",""0.126"",""0.970""]","[1,1,0,1]",0,19,19,19,1,0,1,,,0,FALSE,,,,,,,,,,,,,,,,,,,,,,,,,,,,,,,
,6140b5b201e55201433c2383,627c6f87be43ac8ecac5d732,2022-05-12_03h23.21.098,classification_task,2021.2.3,Win32,143.9263097,627c6715c52fd12f31907bcf,,,,,,,,,,,,,,,,,,,,,,,l,0,0.6915,"[""0.606"",""0.548"",""0.854"",""0.970""]","[0,1,1,1]",0,20,20,20,1,0,1,,,0,FALSE,,,,,,,,,,,,,,,,,,,,,,,,,,,,,,,
,6140b5b201e55201433c2383,627c6f87be43ac8ecac5d732,2022-05-12_03h23.21.098,classification_task,2021.2.3,Win32,143.9263097,627c6715c52fd12f31907bcf,,,,,,,,,,,,,,,,,,,,,,,a,1,1.94,"[""0.271"",""0.137"",""0.894"",""0.931""]","[1,0,1,1]",0,21,21,21,1,0,0,,,0,FALSE,,,,,,,,,,,,,,,,,,,,,,,,,,,,,,,
,6140b5b201e55201433c2383,627c6f87be43ac8ecac5d732,2022-05-12_03h23.21.098,classification_task,2021.2.3,Win32,143.9263097,627c6715c52fd12f31907bcf,,,,,,,,,,,,,,,,,,,,,,,l,0,2.3632,"[""0.309"",""0.606"",""0.854"",""0.970""]","[1,0,1,1]",0,22,22,22,1,0,1,,,0,FALSE,,,,,,,,,,,,,,,,,,,,,,,,,,,,,,,
,6140b5b201e55201433c2383,627c6f87be43ac8ecac5d732,2022-05-12_03h23.21.098,classification_task,2021.2.3,Win32,143.9263097,627c6715c52fd12f31907bcf,,,,,,,,,,,,,,,,,,,,,,,a,1,2.724,"[""0.271"",""0.442"",""0.134"",""0.931""]","[1,1,0,1]",0,23,23,23,1,0,0,,,0,FALSE,,,,,,,,,,,,,,,,,,,,,,,,,,,,,,,
,6140b5b201e55201433c2383,627c6f87be43ac8ecac5d732,2022-05-12_03h23.21.098,classification_task,2021.2.3,Win32,143.9263097,627c6715c52fd12f31907bcf,,,,,,,,,,,,,,,,,,,,,,,a,0,1.7014,"[""0.091"",""0.201"",""0.706"",""0.768""]","[1,1,0,1]",0,24,24,24,1,1,1,,,0,FALSE,,,,,,,,,,,,,,,,,,,,,,,,,,,,,,,
,6140b5b201e55201433c2383,627c6f87be43ac8ecac5d732,2022-05-12_03h23.21.098,classification_task,2021.2.3,Win32,143.9263097,627c6715c52fd12f31907bcf,,,,,,,,,,,,,,,,,,,,,,,l,1,0.8236,"[""0.407"",""0.201"",""0.500"",""0.768""]","[0,1,1,1]",0,25,25,25,1,1,1,,,0,FALSE,,,,,,,,,,,,,,,,,,,,,,,,,,,,,,,
,6140b5b201e55201433c2383,627c6f87be43ac8ecac5d732,2022-05-12_03h23.21.098,classification_task,2021.2.3,Win32,143.9263097,627c6715c52fd12f31907bcf,,,,,,,,,,,,,,,,,,,,,,,l,1,0.8772,"[""0.091"",""0.615"",""0.500"",""0.768""]","[1,0,1,1]",0,26,26,26,1,1,1,,,0,FALSE,,,,,,,,,,,,,,,,,,,,,,,,,,,,,,,
,6140b5b201e55201433c2383,627c6f87be43ac8ecac5d732,2022-05-12_03h23.21.098,classification_task,2021.2.3,Win32,143.9263097,627c6715c52fd12f31907bcf,,,,,,,,,,,,,,,,,,,,,,,a,1,0.6431,"[""0.309"",""0.548"",""0.854"",""0.126""]","[1,1,1,0]",0,27,27,27,1,0,1,,,0,FALSE,,,,,,,,,,,,,,,,,,,,,,,,,,,,,,,
,6140b5b201e55201433c2383,627c6f87be43ac8ecac5d732,2022-05-12_03h23.21.098,classification_task,2021.2.3,Win32,143.9263097,627c6715c52fd12f31907bcf,,,,,,,,,,,,,,,,,,,,,,,a,0,1.3086,"[""0.047"",""0.370"",""0.672"",""0.134""]","[1,1,1,0]",0,28,28,28,1,1,0,,,0,FALSE,,,,,,,,,,,,,,,,,,,,,,,,,,,,,,,
,6140b5b201e55201433c2383,627c6f87be43ac8ecac5d732,2022-05-12_03h23.21.098,classification_task,2021.2.3,Win32,143.9263097,627c6715c52fd12f31907bcf,,,,,,,,,,,,,,,,,,,,,,,l,1,1.6277,"[""0.047"",""0.146"",""0.672"",""0.820""]","[1,0,1,1]",0,29,29,29,1,1,0,,,0,FALSE,,,,,,,,,,,,,,,,,,,,,,,,,,,,,,,
,6140b5b201e55201433c2383,627c6f87be43ac8ecac5d732,2022-05-12_03h23.21.098,classification_task,2021.2.3,Win32,143.9263097,627c6715c52fd12f31907bcf,,,,,,,,,,,,,,,,,,,,,,,a,0,1.6041,"[""0.047"",""0.370"",""0.585"",""0.820""]","[1,1,0,1]",0,30,30,30,1,1,0,,,0,FALSE,,,,,,,,,,,,,,,,,,,,,,,,,,,,,,,
,6140b5b201e55201433c2383,627c6f87be43ac8ecac5d732,2022-05-12_03h23.21.098,classification_task,2021.2.3,Win32,143.9263097,627c6715c52fd12f31907bcf,,,,,,,,,,,,,,,,,,,,,,,a,1,1.1392,"[""0.271"",""0.442"",""0.894"",""0.407""]","[1,1,1,0]",0,31,31,31,1,0,0,,,0,FALSE,,,,,,,,,,,,,,,,,,,,,,,,,,,,,,,
,6140b5b201e55201433c2383,627c6f87be43ac8ecac5d732,2022-05-12_03h23.21.098,classification_task,2021.2.3,Win32,143.9263097,627c6715c52fd12f31907bcf,,,,,,,,,,,,,,,,,,,,,,,l,1,1.8158,"[""0.091"",""0.201"",""0.146"",""0.768""]","[1,1,0,1]",0,32,32,32,1,1,1,,,0,FALSE,,,,,,,,,,,,,,,,,,,,,,,,,,,,,,,
,6140b5b201e55201433c2383,627c6f87be43ac8ecac5d732,2022-05-12_03h23.21.098,classification_task,2021.2.3,Win32,143.9263097,627c6715c52fd12f31907bcf,,,,,,,,,,,,,,,,,,,,,,,l,1,1.0842,"[""0.091"",""0.201"",""0.500"",""0.137""]","[1,1,1,0]",0,33,33,33,1,1,1,,,0,FALSE,,,,,,,,,,,,,,,,,,,,,,,,,,,,,,,
,6140b5b201e55201433c2383,627c6f87be43ac8ecac5d732,2022-05-12_03h23.21.098,classification_task,2021.2.3,Win32,143.9263097,627c6715c52fd12f31907bcf,,,,,,,,,,,,,,,,,,,,,,,l,1,1.6738,"[""0.047"",""0.149"",""0.672"",""0.820""]","[1,0,1,1]",0,34,34,34,1,1,0,,,0,FALSE,,,,,,,,,,,,,,,,,,,,,,,,,,,,,,,
,6140b5b201e55201433c2383,627c6f87be43ac8ecac5d732,2022-05-12_03h23.21.098,classification_task,2021.2.3,Win32,143.9263097,627c6715c52fd12f31907bcf,,,,,,,,,,,,,,,,,,,,,,,a,1,0.8965,"[""0.271"",""0.442"",""0.894"",""0.134""]","[1,1,1,0]",0,35,35,35,1,0,0,,,0,FALSE,,,,,,,,,,,,,,,,,,,,,,,,,,,,,,,
,6140b5b201e55201433c2383,627c6f87be43ac8ecac5d732,2022-05-12_03h23.21.098,classification_task,2021.2.3,Win32,143.9263097,627c6715c52fd12f31907bcf,,,,,,,,,,,,,,,,,,,,,,,a,1,0.6423,"[""0.271"",""0.137"",""0.894"",""0.931""]","[1,0,1,1]",0,36,36,36,1,0,0,,,0,FALSE,,,,,,,,,,,,,,,,,,,,,,,,,,,,,,,
,6140b5b201e55201433c2383,627c6f87be43ac8ecac5d732,2022-05-12_03h23.21.098,classification_task,2021.2.3,Win32,143.9263097,627c6715c52fd12f31907bcf,,,,,,,,,,,,,,,,,,,,,,,l,1,1.1734,"[""0.149"",""0.201"",""0.500"",""0.768""]","[0,1,1,1]",0,37,37,37,1,1,1,,,0,FALSE,,,,,,,,,,,,,,,,,,,,,,,,,,,,,,,
,6140b5b201e55201433c2383,627c6f87be43ac8ecac5d732,2022-05-12_03h23.21.098,classification_task,2021.2.3,Win32,143.9263097,627c6715c52fd12f31907bcf,,,,,,,,,,,,,,,,,,,,,,,a,1,0.6479,"[""0.309"",""0.548"",""0.149"",""0.970""]","[1,1,0,1]",0,38,38,38,1,0,1,,,0,FALSE,,,,,,,,,,,,,,,,,,,,,,,,,,,,,,,
,6140b5b201e55201433c2383,627c6f87be43ac8ecac5d732,2022-05-12_03h23.21.098,classification_task,2021.2.3,Win32,143.9263097,627c6715c52fd12f31907bcf,,,,,,,,,,,,,,,,,,,,,,,l,1,1.1872,"[""0.047"",""0.370"",""0.137"",""0.820""]","[1,1,0,1]",0,39,39,39,1,1,0,,,0,FALSE,,,,,,,,,,,,,,,,,,,,,,,,,,,,,,,
,6140b5b201e55201433c2383,627c6f87be43ac8ecac5d732,2022-05-12_03h23.21.098,classification_task,2021.2.3,Win32,143.9263097,627c6715c52fd12f31907bcf,,,,,,,,,,,,,,,,,,,,,,,l,0,1.24,"[""0.309"",""0.127"",""0.854"",""0.970""]","[1,0,1,1]",0,40,40,40,1,0,1,,,0,FALSE,,,,,,,,,,,,,,,,,,,,,,,,,,,,,,,
,6140b5b201e55201433c2383,627c6f87be43ac8ecac5d732,2022-05-12_03h23.21.098,classification_task,2021.2.3,Win32,143.9263097,627c6715c52fd12f31907bcf,,,,,,,,,,,,,,,,,,,,,,,a,1,1.3014,"[""0.271"",""0.442"",""0.706"",""0.931""]","[1,1,0,1]",0,41,41,41,1,0,0,,,0,FALSE,,,,,,,,,,,,,,,,,,,,,,,,,,,,,,,
,6140b5b201e55201433c2383,627c6f87be43ac8ecac5d732,2022-05-12_03h23.21.098,classification_task,2021.2.3,Win32,143.9263097,627c6715c52fd12f31907bcf,,,,,,,,,,,,,,,,,,,,,,,l,1,1.3474,"[""0.726"",""0.370"",""0.672"",""0.820""]","[0,1,1,1]",0,42,42,42,1,1,0,,,0,FALSE,,,,,,,,,,,,,,,,,,,,,,,,,,,,,,,
,6140b5b201e55201433c2383,627c6f87be43ac8ecac5d732,2022-05-12_03h23.21.098,classification_task,2021.2.3,Win32,143.9263097,627c6715c52fd12f31907bcf,,,,,,,,,,,,,,,,,,,,,,,a,1,0.7546,"[""0.130"",""0.442"",""0.894"",""0.931""]","[0,1,1,1]",0,43,43,43,1,0,0,,,0,FALSE,,,,,,,,,,,,,,,,,,,,,,,,,,,,,,,
,6140b5b201e55201433c2383,627c6f87be43ac8ecac5d732,2022-05-12_03h23.21.098,classification_task,2021.2.3,Win32,143.9263097,627c6715c52fd12f31907bcf,,,,,,,,,,,,,,,,,,,,,,,l,0,1.4789,"[""0.309"",""0.548"",""0.854"",""0.615""]","[1,1,1,0]",0,44,44,44,1,0,1,,,0,FALSE,,,,,,,,,,,,,,,,,,,,,,,,,,,,,,,
,6140b5b201e55201433c2383,627c6f87be43ac8ecac5d732,2022-05-12_03h23.21.098,classification_task,2021.2.3,Win32,143.9263097,627c6715c52fd12f31907bcf,,,,,,,,,,,,,,,,,,,,,,,a,1,1.1845,"[""0.126"",""0.548"",""0.854"",""0.970""]","[0,1,1,1]",0,45,45,45,1,0,1,,,0,FALSE,,,,,,,,,,,,,,,,,,,,,,,,,,,,,,,
,6140b5b201e55201433c2383,627c6f87be43ac8ecac5d732,2022-05-12_03h23.21.098,classification_task,2021.2.3,Win32,143.9263097,627c6715c52fd12f31907bcf,,,,,,,,,,,,,,,,,,,,,,,l,1,1.2844,"[""0.047"",""0.370"",""0.672"",""0.126""]","[1,1,1,0]",0,46,46,46,1,1,0,,,0,FALSE,,,,,,,,,,,,,,,,,,,,,,,,,,,,,,,
,6140b5b201e55201433c2383,627c6f87be43ac8ecac5d732,2022-05-12_03h23.21.098,classification_task,2021.2.3,Win32,143.9263097,627c6715c52fd12f31907bcf,,,,,,,,,,,,,,,,,,,,,,,l,1,1.4325,"[""0.091"",""0.130"",""0.500"",""0.768""]","[1,0,1,1]",0,47,47,47,1,1,1,,,0,FALSE,,,,,,,,,,,,,,,,,,,,,,,,,,,,,,,
,6140b5b201e55201433c2383,627c6f87be43ac8ecac5d732,2022-05-12_03h23.21.098,classification_task,2021.2.3,Win32,143.9263097,627c6715c52fd12f31907bcf,,,,,,,,,,,,,,,,,,,,,,,l,1,0.8828,"[""0.091"",""0.407"",""0.500"",""0.768""]","[1,0,1,1]",0,48,48,48,1,1,1,,,0,FALSE,,,,,,,,,,,,,,,,,,,,,,,,,,,,,,,
,6140b5b201e55201433c2383,627c6f87be43ac8ecac5d732,2022-05-12_03h23.21.098,classification_task,2021.2.3,Win32,143.9263097,627c6715c52fd12f31907bcf,,,,,,,,,,,,,,,,,,,,,,,a,0,1.0497,"[""0.130"",""0.370"",""0.672"",""0.820""]","[0,1,1,1]",0,49,49,49,1,1,0,,,0,FALSE,,,,,,,,,,,,,,,,,,,,,,,,,,,,,,,
,6140b5b201e55201433c2383,627c6f87be43ac8ecac5d732,2022-05-12_03h23.21.098,classification_task,2021.2.3,Win32,143.9263097,627c6715c52fd12f31907bcf,,,,,,,,,,,,,,,,,,,,,,,a,1,0.9456,"[""0.309"",""0.548"",""0.854"",""0.137""]","[1,1,1,0]",0,50,50,50,1,0,1,,,0,FALSE,,,,,,,,,,,,,,,,,,,,,,,,,,,,,,,
,6140b5b201e55201433c2383,627c6f87be43ac8ecac5d732,2022-05-12_03h23.21.098,classification_task,2021.2.3,Win32,143.9263097,627c6715c52fd12f31907bcf,,,,,,,,,,,,,,,,,,,,,,,l,1,0.9165,"[""0.615"",""0.201"",""0.500"",""0.768""]","[0,1,1,1]",0,51,51,51,1,1,1,,,0,FALSE,,,,,,,,,,,,,,,,,,,,,,,,,,,,,,,
,6140b5b201e55201433c2383,627c6f87be43ac8ecac5d732,2022-05-12_03h23.21.098,classification_task,2021.2.3,Win32,143.9263097,627c6715c52fd12f31907bcf,,,,,,,,,,,,,,,,,,,,,,,a,1,1.663,"[""0.271"",""0.442"",""0.894"",""0.706""]","[1,1,1,0]",0,52,52,52,1,0,0,,,0,FALSE,,,,,,,,,,,,,,,,,,,,,,,,,,,,,,,
,6140b5b201e55201433c2383,627c6f87be43ac8ecac5d732,2022-05-12_03h23.21.098,classification_task,2021.2.3,Win32,143.9263097,627c6715c52fd12f31907bcf,,,,,,,,,,,,,,,,,,,,,,,l,1,0.9651,"[""0.047"",""0.134"",""0.672"",""0.820""]","[1,0,1,1]",0,53,53,53,1,1,0,,,0,FALSE,,,,,,,,,,,,,,,,,,,,,,,,,,,,,,,
,6140b5b201e55201433c2383,627c6f87be43ac8ecac5d732,2022-05-12_03h23.21.098,classification_task,2021.2.3,Win32,143.9263097,627c6715c52fd12f31907bcf,,,,,,,,,,,,,,,,,,,,,,,l,0,1.0076,"[""0.309"",""0.548"",""0.606"",""0.970""]","[1,1,0,1]",0,54,54,54,1,0,1,,,0,FALSE,,,,,,,,,,,,,,,,,,,,,,,,,,,,,,,
,6140b5b201e55201433c2383,627c6f87be43ac8ecac5d732,2022-05-12_03h23.21.098,classification_task,2021.2.3,Win32,143.9263097,627c6715c52fd12f31907bcf,,,,,,,,,,,,,,,,,,,,,,,a,1,1.5297,"[""0.134"",""0.442"",""0.894"",""0.931""]","[0,1,1,1]",0,55,55,55,1,0,0,,,0,FALSE,,,,,,,,,,,,,,,,,,,,,,,,,,,,,,,
,6140b5b201e55201433c2383,627c6f87be43ac8ecac5d732,2022-05-12_03h23.21.098,classification_task,2021.2.3,Win32,143.9263097,627c6715c52fd12f31907bcf,,,,,,,,,,,,,,,,,,,,,,,l,0,1.2294,"[""0.309"",""0.606"",""0.854"",""0.970""]","[1,0,1,1]",0,56,56,56,1,0,1,,,0,FALSE,,,,,,,,,,,,,,,,,,,,,,,,,,,,,,,
,6140b5b201e55201433c2383,627c6f87be43ac8ecac5d732,2022-05-12_03h23.21.098,classification_task,2021.2.3,Win32,143.9263097,627c6715c52fd12f31907bcf,,,,,,,,,,,,,,,,,,,,,,,l,1,1.0716,"[""0.047"",""0.370"",""0.149"",""0.820""]","[1,1,0,1]",0,57,57,57,1,1,0,,,0,FALSE,,,,,,,,,,,,,,,,,,,,,,,,,,,,,,,
,6140b5b201e55201433c2383,627c6f87be43ac8ecac5d732,2022-05-12_03h23.21.098,classification_task,2021.2.3,Win32,143.9263097,627c6715c52fd12f31907bcf,,,,,,,,,,,,,,,,,,,,,,,l,0,1.2914,"[""0.615"",""0.548"",""0.854"",""0.970""]","[0,1,1,1]",0,58,58,58,1,0,1,,,0,FALSE,,,,,,,,,,,,,,,,,,,,,,,,,,,,,,,
,6140b5b201e55201433c2383,627c6f87be43ac8ecac5d732,2022-05-12_03h23.21.098,classification_task,2021.2.3,Win32,143.9263097,627c6715c52fd12f31907bcf,,,,,,,,,,,,,,,,,,,,,,,l,1,1.5843,"[""0.091"",""0.201"",""0.137"",""0.768""]","[1,1,0,1]",0,59,59,59,1,1,1,,,0,FALSE,,,,,,,,,,,,,,,,,,,,,,,,,,,,,,,
,6140b5b201e55201433c2383,627c6f87be43ac8ecac5d732,2022-05-12_03h23.21.098,classification_task,2021.2.3,Win32,143.9263097,627c6715c52fd12f31907bcf,,,,,,,,,,,,,,,,,,,,,,,l,1,1.2179,"[""0.091"",""0.201"",""0.500"",""0.603""]","[1,1,1,0]",0,60,60,60,1,1,1,,,0,FALSE,,,,,,,,,,,,,,,,,,,,,,,,,,,,,,,
,6140b5b201e55201433c2383,627c6f87be43ac8ecac5d732,2022-05-12_03h23.21.098,classification_task,2021.2.3,Win32,143.9263097,627c6715c52fd12f31907bcf,,,,,,,,,,,,,,,,,,,,,,,l,1,1.2117,"[""0.047"",""0.370"",""0.672"",""0.137""]","[1,1,1,0]",0,61,61,61,1,1,0,,,0,FALSE,,,,,,,,,,,,,,,,,,,,,,,,,,,,,,,
,6140b5b201e55201433c2383,627c6f87be43ac8ecac5d732,2022-05-12_03h23.21.098,classification_task,2021.2.3,Win32,143.9263097,627c6715c52fd12f31907bcf,,,,,,,,,,,,,,,,,,,,,,,a,1,0.6878,"[""0.271"",""0.442"",""0.127"",""0.931""]","[1,1,0,1]",0,62,62,62,1,0,0,,,0,FALSE,,,,,,,,,,,,,,,,,,,,,,,,,,,,,,,
,6140b5b201e55201433c2383,627c6f87be43ac8ecac5d732,2022-05-12_03h23.21.098,classification_task,2021.2.3,Win32,143.9263097,627c6715c52fd12f31907bcf,,,,,,,,,,,,,,,,,,,,,,,a,1,1.1911,"[""0.271"",""0.728"",""0.894"",""0.931""]","[1,0,1,1]",0,63,63,63,1,0,0,,,0,FALSE,,,,,,,,,,,,,,,,,,,,,,,,,,,,,,,
,6140b5b201e55201433c2383,627c6f87be43ac8ecac5d732,2022-05-12_03h23.21.098,classification_task,2021.2.3,Win32,143.9263097,627c6715c52fd12f31907bcf,,,,,,,,,,,,,,,,,,,,,,,,,,,,,,,,,,,,,,,0, ,,0,1.791103273,175.7961,0,1,1,1,1,2,2,,,,,,,,,,,,,,,,,,
,6140b5b201e55201433c2383,627c6f87be43ac8ecac5d732,2022-05-12_03h23.21.098,classification_task,2021.2.3,Win32,143.9263097,627c6715c52fd12f31907bcf,,,,,,,,,,,,,,,,,,,,,,,,,,,,,,,,,,,,,,,1,  ,,0,8.257887517,181.5413,0,1,1,1,1,2,2,,,,,,,,,,,,,,,,,,
,6140b5b201e55201433c2383,627c6f87be43ac8ecac5d732,2022-05-12_03h23.21.098,classification_task,2021.2.3,Win32,143.9263097,627c6715c52fd12f31907bcf,,,,,,,,,,,,,,,,,,,,,,,,,,,,,,,,,,,,,,,2,  ,,0,6.592200666,183.5501,0,1,1,1,1,2,2,,,,,,,,,,,,,,,,,,
,6140b5b201e55201433c2383,627c6f87be43ac8ecac5d732,2022-05-12_03h23.21.098,classification_task,2021.2.3,Win32,143.9263097,627c6715c52fd12f31907bcf,,,,,,,,,,,,,,,,,,,,,,,,,,,,,,,,,,,,,,,,,,,,,0,1,1,1,1,,2,,,,,,,,,,,,,,,,,,
,6140b5b201e55201433c2383,627c6f87be43ac8ecac5d732,2022-05-12_03h23.21.098,classification_task,2021.2.3,Win32,143.9263097,627c6715c52fd12f31907bcf,,,,,,,,,,,,,,,,,,,,,space,1.7782,a,0,2.9857,"[""0.706"",""0.370"",""0.672"",""0.820""]","[0,1,1,1]",0,0,0,0,1,1,0,,,0,FALSE,,,,,,,,,,,,,,,,,,,,,,,,,,,,,,,
,6140b5b201e55201433c2383,627c6f87be43ac8ecac5d732,2022-05-12_03h23.21.098,classification_task,2021.2.3,Win32,143.9263097,627c6715c52fd12f31907bcf,,,,,,,,,,,,,,,,,,,,,,,l,1,4.6114,"[""0.091"",""0.201"",""0.500"",""0.407""]","[1,1,1,0]",0,1,1,1,1,1,1,,,0,FALSE,,,,,,,,,,,,,,,,,,,,,,,,,,,,,,,
,6140b5b201e55201433c2383,627c6f87be43ac8ecac5d732,2022-05-12_03h23.21.098,classification_task,2021.2.3,Win32,143.9263097,627c6715c52fd12f31907bcf,,,,,,,,,,,,,,,,,,,,,,,l,1,0.8586,"[""0.091"",""0.201"",""0.726"",""0.768""]","[1,1,0,1]",0,2,2,2,1,1,1,,,0,FALSE,,,,,,,,,,,,,,,,,,,,,,,,,,,,,,,
,6140b5b201e55201433c2383,627c6f87be43ac8ecac5d732,2022-05-12_03h23.21.098,classification_task,2021.2.3,Win32,143.9263097,627c6715c52fd12f31907bcf,,,,,,,,,,,,,,,,,,,,,,,l,0,0.9099,"[""0.632"",""0.548"",""0.854"",""0.970""]","[0,1,1,1]",0,3,3,3,1,0,1,,,0,FALSE,,,,,,,,,,,,,,,,,,,,,,,,,,,,,,,
,6140b5b201e55201433c2383,627c6f87be43ac8ecac5d732,2022-05-12_03h23.21.098,classification_task,2021.2.3,Win32,143.9263097,627c6715c52fd12f31907bcf,,,,,,,,,,,,,,,,,,,,,,,l,0,0.6323,"[""0.309"",""0.548"",""0.407"",""0.970""]","[1,1,0,1]",0,4,4,4,1,0,1,,,0,FALSE,,,,,,,,,,,,,,,,,,,,,,,,,,,,,,,
,6140b5b201e55201433c2383,627c6f87be43ac8ecac5d732,2022-05-12_03h23.21.098,classification_task,2021.2.3,Win32,143.9263097,627c6715c52fd12f31907bcf,,,,,,,,,,,,,,,,,,,,,,,a,1,2.3055,"[""0.271"",""0.127"",""0.894"",""0.931""]","[1,0,1,1]",0,5,5,5,1,0,0,,,0,FALSE,,,,,,,,,,,,,,,,,,,,,,,,,,,,,,,
,6140b5b201e55201433c2383,627c6f87be43ac8ecac5d732,2022-05-12_03h23.21.098,classification_task,2021.2.3,Win32,143.9263097,627c6715c52fd12f31907bcf,,,,,,,,,,,,,,,,,,,,,,,a,0,1.1616,"[""0.047"",""0.370"",""0.127"",""0.820""]","[1,1,0,1]",0,6,6,6,1,1,0,,,0,FALSE,,,,,,,,,,,,,,,,,,,,,,,,,,,,,,,
,6140b5b201e55201433c2383,627c6f87be43ac8ecac5d732,2022-05-12_03h23.21.098,classification_task,2021.2.3,Win32,143.9263097,627c6715c52fd12f31907bcf,,,,,,,,,,,,,,,,,,,,,,,a,1,1.7225,"[""0.585"",""0.442"",""0.894"",""0.931""]","[0,1,1,1]",0,7,7,7,1,0,0,,,0,FALSE,,,,,,,,,,,,,,,,,,,,,,,,,,,,,,,
,6140b5b201e55201433c2383,627c6f87be43ac8ecac5d732,2022-05-12_03h23.21.098,classification_task,2021.2.3,Win32,143.9263097,627c6715c52fd12f31907bcf,,,,,,,,,,,,,,,,,,,,,,,l,1,1.3371,"[""0.091"",""0.585"",""0.500"",""0.768""]","[1,0,1,1]",0,8,8,8,1,1,1,,,0,FALSE,,,,,,,,,,,,,,,,,,,,,,,,,,,,,,,
,6140b5b201e55201433c2383,627c6f87be43ac8ecac5d732,2022-05-12_03h23.21.098,classification_task,2021.2.3,Win32,143.9263097,627c6715c52fd12f31907bcf,,,,,,,,,,,,,,,,,,,,,,,l,0,2.0047,"[""0.271"",""0.442"",""0.585"",""0.931""]","[1,1,0,1]",0,9,9,9,1,0,0,,,0,FALSE,,,,,,,,,,,,,,,,,,,,,,,,,,,,,,,
,6140b5b201e55201433c2383,627c6f87be43ac8ecac5d732,2022-05-12_03h23.21.098,classification_task,2021.2.3,Win32,143.9263097,627c6715c52fd12f31907bcf,,,,,,,,,,,,,,,,,,,,,,,a,1,1.3029,"[""0.309"",""0.728"",""0.854"",""0.970""]","[1,0,1,1]",0,10,10,10,1,0,1,,,0,FALSE,,,,,,,,,,,,,,,,,,,,,,,,,,,,,,,
,6140b5b201e55201433c2383,627c6f87be43ac8ecac5d732,2022-05-12_03h23.21.098,classification_task,2021.2.3,Win32,143.9263097,627c6715c52fd12f31907bcf,,,,,,,,,,,,,,,,,,,,,,,l,1,0.973,"[""0.615"",""0.201"",""0.500"",""0.768""]","[0,1,1,1]",0,11,11,11,1,1,1,,,0,FALSE,,,,,,,,,,,,,,,,,,,,,,,,,,,,,,,
,6140b5b201e55201433c2383,627c6f87be43ac8ecac5d732,2022-05-12_03h23.21.098,classification_task,2021.2.3,Win32,143.9263097,627c6715c52fd12f31907bcf,,,,,,,,,,,,,,,,,,,,,,,a,0,1.6666,"[""0.047"",""0.146"",""0.672"",""0.820""]","[1,0,1,1]",0,12,12,12,1,1,0,,,0,FALSE,,,,,,,,,,,,,,,,,,,,,,,,,,,,,,,
,6140b5b201e55201433c2383,627c6f87be43ac8ecac5d732,2022-05-12_03h23.21.098,classification_task,2021.2.3,Win32,143.9263097,627c6715c52fd12f31907bcf,,,,,,,,,,,,,,,,,,,,,,,l,0,1.1759,"[""0.309"",""0.548"",""0.854"",""0.615""]","[1,1,1,0]",0,13,13,13,1,0,1,,,0,FALSE,,,,,,,,,,,,,,,,,,,,,,,,,,,,,,,
,6140b5b201e55201433c2383,627c6f87be43ac8ecac5d732,2022-05-12_03h23.21.098,classification_task,2021.2.3,Win32,143.9263097,627c6715c52fd12f31907bcf,,,,,,,,,,,,,,,,,,,,,,,a,0,0.9961,"[""0.047"",""0.370"",""0.672"",""0.127""]","[1,1,1,0]",0,14,14,14,1,1,0,,,0,FALSE,,,,,,,,,,,,,,,,,,,,,,,,,,,,,,,
,6140b5b201e55201433c2383,627c6f87be43ac8ecac5d732,2022-05-12_03h23.21.098,classification_task,2021.2.3,Win32,143.9263097,627c6715c52fd12f31907bcf,,,,,,,,,,,,,,,,,,,,,,,a,1,0.9653,"[""0.271"",""0.442"",""0.894"",""0.632""]","[1,1,1,0]",0,15,15,15,1,0,0,,,0,FALSE,,,,,,,,,,,,,,,,,,,,,,,,,,,,,,,
,6140b5b201e55201433c2383,627c6f87be43ac8ecac5d732,2022-05-12_03h23.21.098,classification_task,2021.2.3,Win32,143.9263097,627c6715c52fd12f31907bcf,,,,,,,,,,,,,,,,,,,,,,,l,0,1.488,"[""0.271"",""0.137"",""0.894"",""0.931""]","[1,0,1,1]",0,16,16,16,1,0,0,,,0,FALSE,,,,,,,,,,,,,,,,,,,,,,,,,,,,,,,
,6140b5b201e55201433c2383,627c6f87be43ac8ecac5d732,2022-05-12_03h23.21.098,classification_task,2021.2.3,Win32,143.9263097,627c6715c52fd12f31907bcf,,,,,,,,,,,,,,,,,,,,,,,l,1,1.7882,"[""0.726"",""0.201"",""0.500"",""0.768""]","[0,1,1,1]",0,17,17,17,1,1,1,,,0,FALSE,,,,,,,,,,,,,,,,,,,,,,,,,,,,,,,
,6140b5b201e55201433c2383,627c6f87be43ac8ecac5d732,2022-05-12_03h23.21.098,classification_task,2021.2.3,Win32,143.9263097,627c6715c52fd12f31907bcf,,,,,,,,,,,,,,,,,,,,,,,l,1,0.7089,"[""0.091"",""0.201"",""0.728"",""0.768""]","[1,1,0,1]",0,18,18,18,1,1,1,,,0,FALSE,,,,,,,,,,,,,,,,,,,,,,,,,,,,,,,
,6140b5b201e55201433c2383,627c6f87be43ac8ecac5d732,2022-05-12_03h23.21.098,classification_task,2021.2.3,Win32,143.9263097,627c6715c52fd12f31907bcf,,,,,,,,,,,,,,,,,,,,,,,l,0,1.857,"[""0.309"",""0.548"",""0.407"",""0.970""]","[1,1,0,1]",0,19,19,19,1,0,1,,,0,FALSE,,,,,,,,,,,,,,,,,,,,,,,,,,,,,,,
,6140b5b201e55201433c2383,627c6f87be43ac8ecac5d732,2022-05-12_03h23.21.098,classification_task,2021.2.3,Win32,143.9263097,627c6715c52fd12f31907bcf,,,,,,,,,,,,,,,,,,,,,,,a,1,1.5633,"[""0.309"",""0.726"",""0.854"",""0.970""]","[1,0,1,1]",0,20,20,20,1,0,1,,,0,FALSE,,,,,,,,,,,,,,,,,,,,,,,,,,,,,,,
,6140b5b201e55201433c2383,627c6f87be43ac8ecac5d732,2022-05-12_03h23.21.098,classification_task,2021.2.3,Win32,143.9263097,627c6715c52fd12f31907bcf,,,,,,,,,,,,,,,,,,,,,,,a,0,1.5629,"[""0.047"",""0.370"",""0.672"",""0.615""]","[1,1,1,0]",0,21,21,21,1,1,0,,,0,FALSE,,,,,,,,,,,,,,,,,,,,,,,,,,,,,,,
,6140b5b201e55201433c2383,627c6f87be43ac8ecac5d732,2022-05-12_03h23.21.098,classification_task,2021.2.3,Win32,143.9263097,627c6715c52fd12f31907bcf,,,,,,,,,,,,,,,,,,,,,,,a,0,0.9693,"[""0.047"",""0.706"",""0.672"",""0.820""]","[1,0,1,1]",0,22,22,22,1,1,0,,,0,FALSE,,,,,,,,,,,,,,,,,,,,,,,,,,,,,,,
,6140b5b201e55201433c2383,627c6f87be43ac8ecac5d732,2022-05-12_03h23.21.098,classification_task,2021.2.3,Win32,143.9263097,627c6715c52fd12f31907bcf,,,,,,,,,,,,,,,,,,,,,,,l,1,1.0138,"[""0.091"",""0.201"",""0.500"",""0.149""]","[1,1,1,0]",0,23,23,23,1,1,1,,,0,FALSE,,,,,,,,,,,,,,,,,,,,,,,,,,,,,,,
,6140b5b201e55201433c2383,627c6f87be43ac8ecac5d732,2022-05-12_03h23.21.098,classification_task,2021.2.3,Win32,143.9263097,627c6715c52fd12f31907bcf,,,,,,,,,,,,,,,,,,,,,,,l,1,1.0078,"[""0.091"",""0.130"",""0.500"",""0.768""]","[1,0,1,1]",0,24,24,24,1,1,1,,,0,FALSE,,,,,,,,,,,,,,,,,,,,,,,,,,,,,,,
,6140b5b201e55201433c2383,627c6f87be43ac8ecac5d732,2022-05-12_03h23.21.098,classification_task,2021.2.3,Win32,143.9263097,627c6715c52fd12f31907bcf,,,,,,,,,,,,,,,,,,,,,,,a,1,0.7292,"[""0.271"",""0.442"",""0.606"",""0.931""]","[1,1,0,1]",0,25,25,25,1,0,0,,,0,FALSE,,,,,,,,,,,,,,,,,,,,,,,,,,,,,,,
,6140b5b201e55201433c2383,627c6f87be43ac8ecac5d732,2022-05-12_03h23.21.098,classification_task,2021.2.3,Win32,143.9263097,627c6715c52fd12f31907bcf,,,,,,,,,,,,,,,,,,,,,,,l,1,1.3213,"[""0.047"",""0.370"",""0.134"",""0.820""]","[1,1,0,1]",0,26,26,26,1,1,0,,,0,FALSE,,,,,,,,,,,,,,,,,,,,,,,,,,,,,,,
,6140b5b201e55201433c2383,627c6f87be43ac8ecac5d732,2022-05-12_03h23.21.098,classification_task,2021.2.3,Win32,143.9263097,627c6715c52fd12f31907bcf,,,,,,,,,,,,,,,,,,,,,,,l,0,1.0507,"[""0.309"",""0.548"",""0.854"",""0.615""]","[1,1,1,0]",0,27,27,27,1,0,1,,,0,FALSE,,,,,,,,,,,,,,,,,,,,,,,,,,,,,,,
,6140b5b201e55201433c2383,627c6f87be43ac8ecac5d732,2022-05-12_03h23.21.098,classification_task,2021.2.3,Win32,143.9263097,627c6715c52fd12f31907bcf,,,,,,,,,,,,,,,,,,,,,,,a,1,1.0207,"[""0.632"",""0.442"",""0.894"",""0.931""]","[0,1,1,1]",0,28,28,28,1,0,0,,,0,FALSE,,,,,,,,,,,,,,,,,,,,,,,,,,,,,,,
,6140b5b201e55201433c2383,627c6f87be43ac8ecac5d732,2022-05-12_03h23.21.098,classification_task,2021.2.3,Win32,143.9263097,627c6715c52fd12f31907bcf,,,,,,,,,,,,,,,,,,,,,,,a,0,0.8959,"[""0.615"",""0.370"",""0.672"",""0.820""]","[0,1,1,1]",0,29,29,29,1,1,0,,,0,FALSE,,,,,,,,,,,,,,,,,,,,,,,,,,,,,,,
,6140b5b201e55201433c2383,627c6f87be43ac8ecac5d732,2022-05-12_03h23.21.098,classification_task,2021.2.3,Win32,143.9263097,627c6715c52fd12f31907bcf,,,,,,,,,,,,,,,,,,,,,,,l,0,1.0166,"[""0.271"",""0.442"",""0.894"",""0.603""]","[1,1,1,0]",0,30,30,30,1,0,0,,,0,FALSE,,,,,,,,,,,,,,,,,,,,,,,,,,,,,,,
,6140b5b201e55201433c2383,627c6f87be43ac8ecac5d732,2022-05-12_03h23.21.098,classification_task,2021.2.3,Win32,143.9263097,627c6715c52fd12f31907bcf,,,,,,,,,,,,,,,,,,,,,,,a,1,1.1873,"[""0.127"",""0.548"",""0.854"",""0.970""]","[0,1,1,1]",0,31,31,31,1,0,1,,,0,FALSE,,,,,,,,,,,,,,,,,,,,,,,,,,,,,,,
,6140b5b201e55201433c2383,627c6f87be43ac8ecac5d732,2022-05-12_03h23.21.098,classification_task,2021.2.3,Win32,143.9263097,627c6715c52fd12f31907bcf,,,,,,,,,,,,,,,,,,,,,,,l,1,1.0811,"[""0.047"",""0.370"",""0.672"",""0.603""]","[1,1,1,0]",0,32,32,32,1,1,0,,,0,FALSE,,,,,,,,,,,,,,,,,,,,,,,,,,,,,,,
,6140b5b201e55201433c2383,627c6f87be43ac8ecac5d732,2022-05-12_03h23.21.098,classification_task,2021.2.3,Win32,143.9263097,627c6715c52fd12f31907bcf,,,,,,,,,,,,,,,,,,,,,,,l,1,1.31,"[""0.047"",""0.137"",""0.672"",""0.820""]","[1,0,1,1]",0,33,33,33,1,1,0,,,0,FALSE,,,,,,,,,,,,,,,,,,,,,,,,,,,,,,,
,6140b5b201e55201433c2383,627c6f87be43ac8ecac5d732,2022-05-12_03h23.21.098,classification_task,2021.2.3,Win32,143.9263097,627c6715c52fd12f31907bcf,,,,,,,,,,,,,,,,,,,,,,,a,1,1.0847,"[""0.309"",""0.548"",""0.127"",""0.970""]","[1,1,0,1]",0,34,34,34,1,0,1,,,0,FALSE,,,,,,,,,,,,,,,,,,,,,,,,,,,,,,,
,6140b5b201e55201433c2383,627c6f87be43ac8ecac5d732,2022-05-12_03h23.21.098,classification_task,2021.2.3,Win32,143.9263097,627c6715c52fd12f31907bcf,,,,,,,,,,,,,,,,,,,,,,,l,1,0.7385,"[""0.706"",""0.201"",""0.500"",""0.768""]","[0,1,1,1]",0,35,35,35,1,1,1,,,0,FALSE,,,,,,,,,,,,,,,,,,,,,,,,,,,,,,,
,6140b5b201e55201433c2383,627c6f87be43ac8ecac5d732,2022-05-12_03h23.21.098,classification_task,2021.2.3,Win32,143.9263097,627c6715c52fd12f31907bcf,,,,,,,,,,,,,,,,,,,,,,,a,1,1.5873,"[""0.271"",""0.728"",""0.894"",""0.931""]","[1,0,1,1]",0,36,36,36,1,0,0,,,0,FALSE,,,,,,,,,,,,,,,,,,,,,,,,,,,,,,,
,6140b5b201e55201433c2383,627c6f87be43ac8ecac5d732,2022-05-12_03h23.21.098,classification_task,2021.2.3,Win32,143.9263097,627c6715c52fd12f31907bcf,,,,,,,,,,,,,,,,,,,,,,,a,0,2.2062,"[""0.091"",""0.632"",""0.500"",""0.768""]","[1,0,1,1]",0,37,37,37,1,1,1,,,0,FALSE,,,,,,,,,,,,,,,,,,,,,,,,,,,,,,,
,6140b5b201e55201433c2383,627c6f87be43ac8ecac5d732,2022-05-12_03h23.21.098,classification_task,2021.2.3,Win32,143.9263097,627c6715c52fd12f31907bcf,,,,,,,,,,,,,,,,,,,,,,,l,0,0.8614,"[""0.271"",""0.442"",""0.726"",""0.931""]","[1,1,0,1]",0,38,38,38,1,0,0,,,0,FALSE,,,,,,,,,,,,,,,,,,,,,,,,,,,,,,,
,6140b5b201e55201433c2383,627c6f87be43ac8ecac5d732,2022-05-12_03h23.21.098,classification_task,2021.2.3,Win32,143.9263097,627c6715c52fd12f31907bcf,,,,,,,,,,,,,,,,,,,,,,,a,1,0.9306,"[""0.134"",""0.548"",""0.854"",""0.970""]","[0,1,1,1]",0,39,39,39,1,0,1,,,0,FALSE,,,,,,,,,,,,,,,,,,,,,,,,,,,,,,,
,6140b5b201e55201433c2383,627c6f87be43ac8ecac5d732,2022-05-12_03h23.21.098,classification_task,2021.2.3,Win32,143.9263097,627c6715c52fd12f31907bcf,,,,,,,,,,,,,,,,,,,,,,,a,1,0.7294,"[""0.309"",""0.726"",""0.854"",""0.970""]","[1,0,1,1]",0,40,40,40,1,0,1,,,0,FALSE,,,,,,,,,,,,,,,,,,,,,,,,,,,,,,,
,6140b5b201e55201433c2383,627c6f87be43ac8ecac5d732,2022-05-12_03h23.21.098,classification_task,2021.2.3,Win32,143.9263097,627c6715c52fd12f31907bcf,,,,,,,,,,,,,,,,,,,,,,,l,1,1.5279,"[""0.091"",""0.201"",""0.500"",""0.632""]","[1,1,1,0]",0,41,41,41,1,1,1,,,0,FALSE,,,,,,,,,,,,,,,,,,,,,,,,,,,,,,,
,6140b5b201e55201433c2383,627c6f87be43ac8ecac5d732,2022-05-12_03h23.21.098,classification_task,2021.2.3,Win32,143.9263097,627c6715c52fd12f31907bcf,,,,,,,,,,,,,,,,,,,,,,,a,0,0.9306,"[""0.091"",""0.201"",""0.606"",""0.768""]","[1,1,0,1]",0,42,42,42,1,1,1,,,0,FALSE,,,,,,,,,,,,,,,,,,,,,,,,,,,,,,,
,6140b5b201e55201433c2383,627c6f87be43ac8ecac5d732,2022-05-12_03h23.21.098,classification_task,2021.2.3,Win32,143.9263097,627c6715c52fd12f31907bcf,,,,,,,,,,,,,,,,,,,,,,,a,0,2.4389,"[""0.632"",""0.370"",""0.672"",""0.820""]","[0,1,1,1]",0,43,43,43,1,1,0,,,0,FALSE,,,,,,,,,,,,,,,,,,,,,,,,,,,,,,,
,6140b5b201e55201433c2383,627c6f87be43ac8ecac5d732,2022-05-12_03h23.21.098,classification_task,2021.2.3,Win32,143.9263097,627c6715c52fd12f31907bcf,,,,,,,,,,,,,,,,,,,,,,,a,1,0.6996,"[""0.130"",""0.442"",""0.894"",""0.931""]","[0,1,1,1]",0,44,44,44,1,0,0,,,0,FALSE,,,,,,,,,,,,,,,,,,,,,,,,,,,,,,,
,6140b5b201e55201433c2383,627c6f87be43ac8ecac5d732,2022-05-12_03h23.21.098,classification_task,2021.2.3,Win32,143.9263097,627c6715c52fd12f31907bcf,,,,,,,,,,,,,,,,,,,,,,,a,0,0.7181,"[""0.047"",""0.370"",""0.126"",""0.820""]","[1,1,0,1]",0,45,45,45,1,1,0,,,0,FALSE,,,,,,,,,,,,,,,,,,,,,,,,,,,,,,,
,6140b5b201e55201433c2383,627c6f87be43ac8ecac5d732,2022-05-12_03h23.21.098,classification_task,2021.2.3,Win32,143.9263097,627c6715c52fd12f31907bcf,,,,,,,,,,,,,,,,,,,,,,,l,0,0.7956,"[""0.309"",""0.548"",""0.854"",""0.632""]","[1,1,1,0]",0,46,46,46,1,0,1,,,0,FALSE,,,,,,,,,,,,,,,,,,,,,,,,,,,,,,,
,6140b5b201e55201433c2383,627c6f87be43ac8ecac5d732,2022-05-12_03h23.21.098,classification_task,2021.2.3,Win32,143.9263097,627c6715c52fd12f31907bcf,,,,,,,,,,,,,,,,,,,,,,,l,0,1.1482,"[""0.271"",""0.442"",""0.894"",""0.606""]","[1,1,1,0]",0,47,47,47,1,0,0,,,0,FALSE,,,,,,,,,,,,,,,,,,,,,,,,,,,,,,,
,6140b5b201e55201433c2383,627c6f87be43ac8ecac5d732,2022-05-12_03h23.21.098,classification_task,2021.2.3,Win32,143.9263097,627c6715c52fd12f31907bcf,,,,,,,,,,,,,,,,,,,,,,,l,0,0.6778,"[""0.271"",""0.442"",""0.894"",""0.149""]","[1,1,1,0]",0,48,48,48,1,0,0,,,0,FALSE,,,,,,,,,,,,,,,,,,,,,,,,,,,,,,,
,6140b5b201e55201433c2383,627c6f87be43ac8ecac5d732,2022-05-12_03h23.21.098,classification_task,2021.2.3,Win32,143.9263097,627c6715c52fd12f31907bcf,,,,,,,,,,,,,,,,,,,,,,,a,1,1.0445,"[""0.130"",""0.548"",""0.854"",""0.970""]","[0,1,1,1]",0,49,49,49,1,0,1,,,0,FALSE,,,,,,,,,,,,,,,,,,,,,,,,,,,,,,,
,6140b5b201e55201433c2383,627c6f87be43ac8ecac5d732,2022-05-12_03h23.21.098,classification_task,2021.2.3,Win32,143.9263097,627c6715c52fd12f31907bcf,,,,,,,,,,,,,,,,,,,,,,,a,1,1.931,"[""0.585"",""0.442"",""0.894"",""0.931""]","[0,1,1,1]",0,50,50,50,1,0,0,,,0,FALSE,,,,,,,,,,,,,,,,,,,,,,,,,,,,,,,
,6140b5b201e55201433c2383,627c6f87be43ac8ecac5d732,2022-05-12_03h23.21.098,classification_task,2021.2.3,Win32,143.9263097,627c6715c52fd12f31907bcf,,,,,,,,,,,,,,,,,,,,,,,l,1,1.0034,"[""0.091"",""0.127"",""0.500"",""0.768""]","[1,0,1,1]",0,51,51,51,1,1,1,,,0,FALSE,,,,,,,,,,,,,,,,,,,,,,,,,,,,,,,
,6140b5b201e55201433c2383,627c6f87be43ac8ecac5d732,2022-05-12_03h23.21.098,classification_task,2021.2.3,Win32,143.9263097,627c6715c52fd12f31907bcf,,,,,,,,,,,,,,,,,,,,,,,a,1,1.108,"[""0.271"",""0.137"",""0.894"",""0.931""]","[1,0,1,1]",0,52,52,52,1,0,0,,,0,FALSE,,,,,,,,,,,,,,,,,,,,,,,,,,,,,,,
,6140b5b201e55201433c2383,627c6f87be43ac8ecac5d732,2022-05-12_03h23.21.098,classification_task,2021.2.3,Win32,143.9263097,627c6715c52fd12f31907bcf,,,,,,,,,,,,,,,,,,,,,,,a,1,1.4046,"[""0.309"",""0.126"",""0.854"",""0.970""]","[1,0,1,1]",0,53,53,53,1,0,1,,,0,FALSE,,,,,,,,,,,,,,,,,,,,,,,,,,,,,,,
,6140b5b201e55201433c2383,627c6f87be43ac8ecac5d732,2022-05-12_03h23.21.098,classification_task,2021.2.3,Win32,143.9263097,627c6715c52fd12f31907bcf,,,,,,,,,,,,,,,,,,,,,,,l,1,0.8122,"[""0.127"",""0.370"",""0.672"",""0.820""]","[0,1,1,1]",0,54,54,54,1,1,0,,,0,FALSE,,,,,,,,,,,,,,,,,,,,,,,,,,,,,,,
,6140b5b201e55201433c2383,627c6f87be43ac8ecac5d732,2022-05-12_03h23.21.098,classification_task,2021.2.3,Win32,143.9263097,627c6715c52fd12f31907bcf,,,,,,,,,,,,,,,,,,,,,,,a,1,1.3832,"[""0.309"",""0.548"",""0.407"",""0.970""]","[1,1,0,1]",0,55,55,55,1,0,1,,,0,FALSE,,,,,,,,,,,,,,,,,,,,,,,,,,,,,,,
,6140b5b201e55201433c2383,627c6f87be43ac8ecac5d732,2022-05-12_03h23.21.098,classification_task,2021.2.3,Win32,143.9263097,627c6715c52fd12f31907bcf,,,,,,,,,,,,,,,,,,,,,,,l,1,1.0665,"[""0.126"",""0.201"",""0.500"",""0.768""]","[0,1,1,1]",0,56,56,56,1,1,1,,,0,FALSE,,,,,,,,,,,,,,,,,,,,,,,,,,,,,,,
,6140b5b201e55201433c2383,627c6f87be43ac8ecac5d732,2022-05-12_03h23.21.098,classification_task,2021.2.3,Win32,143.9263097,627c6715c52fd12f31907bcf,,,,,,,,,,,,,,,,,,,,,,,a,0,0.8928,"[""0.091"",""0.201"",""0.606"",""0.768""]","[1,1,0,1]",0,57,57,57,1,1,1,,,0,FALSE,,,,,,,,,,,,,,,,,,,,,,,,,,,,,,,
,6140b5b201e55201433c2383,627c6f87be43ac8ecac5d732,2022-05-12_03h23.21.098,classification_task,2021.2.3,Win32,143.9263097,627c6715c52fd12f31907bcf,,,,,,,,,,,,,,,,,,,,,,,l,0,0.9579,"[""0.271"",""0.442"",""0.127"",""0.931""]","[1,1,0,1]",0,58,58,58,1,0,0,,,0,FALSE,,,,,,,,,,,,,,,,,,,,,,,,,,,,,,,
,6140b5b201e55201433c2383,627c6f87be43ac8ecac5d732,2022-05-12_03h23.21.098,classification_task,2021.2.3,Win32,143.9263097,627c6715c52fd12f31907bcf,,,,,,,,,,,,,,,,,,,,,,,l,1,2.5112,"[""0.091"",""0.201"",""0.500"",""0.726""]","[1,1,1,0]",0,59,59,59,1,1,1,,,0,FALSE,,,,,,,,,,,,,,,,,,,,,,,,,,,,,,,
,6140b5b201e55201433c2383,627c6f87be43ac8ecac5d732,2022-05-12_03h23.21.098,classification_task,2021.2.3,Win32,143.9263097,627c6715c52fd12f31907bcf,,,,,,,,,,,,,,,,,,,,,,,a,0,1.6324,"[""0.047"",""0.370"",""0.137"",""0.820""]","[1,1,0,1]",0,60,60,60,1,1,0,,,0,FALSE,,,,,,,,,,,,,,,,,,,,,,,,,,,,,,,
,6140b5b201e55201433c2383,627c6f87be43ac8ecac5d732,2022-05-12_03h23.21.098,classification_task,2021.2.3,Win32,143.9263097,627c6715c52fd12f31907bcf,,,,,,,,,,,,,,,,,,,,,,,a,0,0.7363,"[""0.047"",""0.606"",""0.672"",""0.820""]","[1,0,1,1]",0,61,61,61,1,1,0,,,0,FALSE,,,,,,,,,,,,,,,,,,,,,,,,,,,,,,,
,6140b5b201e55201433c2383,627c6f87be43ac8ecac5d732,2022-05-12_03h23.21.098,classification_task,2021.2.3,Win32,143.9263097,627c6715c52fd12f31907bcf,,,,,,,,,,,,,,,,,,,,,,,l,0,0.8718,"[""0.309"",""0.548"",""0.854"",""0.606""]","[1,1,1,0]",0,62,62,62,1,0,1,,,0,FALSE,,,,,,,,,,,,,,,,,,,,,,,,,,,,,,,
,6140b5b201e55201433c2383,627c6f87be43ac8ecac5d732,2022-05-12_03h23.21.098,classification_task,2021.2.3,Win32,143.9263097,627c6715c52fd12f31907bcf,,,,,,,,,,,,,,,,,,,,,,,a,0,1.2369,"[""0.047"",""0.370"",""0.672"",""0.146""]","[1,1,1,0]",0,63,63,63,1,1,0,,,0,FALSE,,,,,,,,,,,,,,,,,,,,,,,,,,,,,,,
,6140b5b201e55201433c2383,627c6f87be43ac8ecac5d732,2022-05-12_03h23.21.098,classification_task,2021.2.3,Win32,143.9263097,627c6715c52fd12f31907bcf,,,,,,,,,,,,,,,,,,,,,,,,,,,,,,,,,,,,,,,0, ,,0,3.579267098,153.0744,0,2,2,2,1,2,3,,,,,,,,,,,,,,,,,,
,6140b5b201e55201433c2383,627c6f87be43ac8ecac5d732,2022-05-12_03h23.21.098,classification_task,2021.2.3,Win32,143.9263097,627c6715c52fd12f31907bcf,,,,,,,,,,,,,,,,,,,,,,,,,,,,,,,,,,,,,,,1,  ,,0,8.453850676,155.2262,0,2,2,2,1,2,3,,,,,,,,,,,,,,,,,,
,6140b5b201e55201433c2383,627c6f87be43ac8ecac5d732,2022-05-12_03h23.21.098,classification_task,2021.2.3,Win32,143.9263097,627c6715c52fd12f31907bcf,,,,,,,,,,,,,,,,,,,,,,,,,,,,,,,,,,,,,,,2,  ,,0,7.645502646,156.7124,0,2,2,2,1,2,3,,,,,,,,,,,,,,,,,,
,6140b5b201e55201433c2383,627c6f87be43ac8ecac5d732,2022-05-12_03h23.21.098,classification_task,2021.2.3,Win32,143.9263097,627c6715c52fd12f31907bcf,,,,,,,,,,,,,,,,,,,,,,,,,,,,,,,,,,,,,,,,,,,,,0,2,2,2,1,,3,,,,,,,,,,,,,,,,,,
,6140b5b201e55201433c2383,627c6f87be43ac8ecac5d732,2022-05-12_03h23.21.098,classification_task,2021.2.3,Win32,143.9263097,627c6715c52fd12f31907bcf,,,,,,,,,,,,,,,,,,,,,,,,,,,,,,,,,,,,,,,,,,,,,,,,,,,,,I believe the aid is a competent performer,,0.7,0,4,877.6812,0,0,0,0,1,0,,,,,
,6140b5b201e55201433c2383,627c6f87be43ac8ecac5d732,2022-05-12_03h23.21.098,classification_task,2021.2.3,Win32,143.9263097,627c6715c52fd12f31907bcf,,,,,,,,,,,,,,,,,,,,,,,,,,,,,,,,,,,,,,,,,,,,,,,,,,,,,I trust the aid,,0.7,0,3,879.4888,0,0,0,0,1,0,,,,,
,6140b5b201e55201433c2383,627c6f87be43ac8ecac5d732,2022-05-12_03h23.21.098,classification_task,2021.2.3,Win32,143.9263097,627c6715c52fd12f31907bcf,,,,,,,,,,,,,,,,,,,,,,,,,,,,,,,,,,,,,,,,,,,,,,,,,,,,,I have confidence in the advice given by the aid,,0.7,0,4,883.6808,0,0,0,0,1,0,,,,,
,6140b5b201e55201433c2383,627c6f87be43ac8ecac5d732,2022-05-12_03h23.21.098,classification_task,2021.2.3,Win32,143.9263097,627c6715c52fd12f31907bcf,,,,,,,,,,,,,,,,,,,,,,,,,,,,,,,,,,,,,,,,,,,,,,,,,,,,,I can depend on the aid,,0.7,0,3,886.5341,0,0,0,0,1,0,,,,,
,6140b5b201e55201433c2383,627c6f87be43ac8ecac5d732,2022-05-12_03h23.21.098,classification_task,2021.2.3,Win32,143.9263097,627c6715c52fd12f31907bcf,,,,,,,,,,,,,,,,,,,,,,,,,,,,,,,,,,,,,,,,,,,,,,,,,,,,,I can rely on the aid to behave in consistent ways,,0.7,0,4,890.3988,0,0,0,0,1,0,,,,,
,6140b5b201e55201433c2383,627c6f87be43ac8ecac5d732,2022-05-12_03h23.21.098,classification_task,2021.2.3,Win32,143.9263097,627c6715c52fd12f31907bcf,,,,,,,,,,,,,,,,,,,,,,,,,,,,,,,,,,,,,,,,,,,,,,,,,,,,,I can rely on the aid to do its best every time I take its advice,,0.7,0,3,900.5696,0,0,0,0,1,0,,,,,
,6140b5b201e55201433c2383,627c6f87be43ac8ecac5d732,2022-05-12_03h23.21.098,classification_task,2021.2.3,Win32,143.9263097,627c6715c52fd12f31907bcf,,,,,,,,,,,,,,,,,,,,,,,,,,,,,,,,,,,,,,,,,,,,,,,,,,,,,"On trials you completed with assistance from the aid, how frequently did you think the aid was correct?",,0.7,0,90,,0,0,0,0,1,0,,,,,
,6140b5b201e55201433c2383,627c6f87be43ac8ecac5d732,2022-05-12_03h23.21.098,classification_task,2021.2.3,Win32,143.9263097,627c6715c52fd12f31907bcf,,,,,,,,,,,,,,,,,,,,,,,,,,,,,,,,,,,,,,,,,,,,,,,,,,,,,"On trials you completed without the aid, how frequently did you think you were correct?",,0.7,0,70,,0,0,0,0,1,0,,,,,
,6140b5b201e55201433c2383,627c6f87be43ac8ecac5d732,2022-05-12_03h23.21.098,classification_task,2021.2.3,Win32,143.9263097,627c6715c52fd12f31907bcf,,,,,,,,,,,,,,,,,,,,,,,,,,,,,,,,,,,,,,,,,,,,,,,,,,,,,,,,,,,0,0,0,0,1,,,,,,
,6140b5b201e55201433c2383,627c6f87be43ac8ecac5d732,2022-05-12_03h23.21.098,classification_task,2021.2.3,Win32,143.9263097,627c6715c52fd12f31907bcf,,,,,,,,,,,,,,,,,,,,,,,,,,,,,,,,,,,,,,,,,,,,,,,,,,,,,,,,,,,,,,,,,space,2.542,937.2554,,
,6140b5b201e55201433c2383,627c6f87be43ac8ecac5d732,2022-05-12_03h23.21.098,classification_task,2021.2.3,Win32,143.9263097,627c6715c52fd12f31907bcf,,,,,,,,,,,,,,,,,,,,,,,,,,,,,,,,,,,,,,,,,,,,,,,,,,,,,,,,,,,,,,,,,,,,"Mozilla/5.0 (Windows NT 10.0; Win64; x64) AppleWebKit/537.36 (KHTML, like Gecko) Chrome/101.0.4951.54 Safari/537.36",
,6140b5b201e55201433c2383,627c6f87be43ac8ecac5d732,2022-05-12_03h23.21.098,classification_task,2021.2.3,Win32,143.9263097,627c6715c52fd12f31907bcf,,,,,,,,,,,,,,,,,,,,,,,,,,,,,,,,,,,,,,,,,,,,,,,,,,,,,,,,,,,,,,,,,,,,,LOWLIGHT
