usingWebGL,participant,session,date,expName,psychopyVersion,OS,frameRate,PROLIFIC_PID,STUDY_ID,SESSION_ID,signatures_friend,signatures_foe,band_ranges_top,band_ranges_bottom,formitemText,formtype,formundefined,formitemWidth,formindex,formresponse,formrt,key_resp_2.keys,key_resp_2.rt,tute_resp.keys,tute_resp.rt,tutorial.thisRepN,tutorial.thisTrialN,tutorial.thisN,tutorial.thisIndex,tutorial.ran,key_resp_4.keys,key_resp_4.rt,key_resp.keys,key_resp.corr,lines_presented,is_signal_presented,trials.thisRepN,trials.thisTrialN,trials.thisN,trials.thisIndex,trials.ran,vessel,active_band,lines,is_signal,supported_pos,catch_trial,key_resp.rt,debrief_formindex,debrief_formitemText,debrief_formtype,debrief_formitemWidth,debrief_formresponse,debrief_formrt,phases.thisRepN,phases.thisTrialN,phases.thisN,phases.thisIndex,phases.ran,phases.order,phase,key_resp_3.keys,trustitemText,trusttype,trustitemWidth,trustindex,trustresponse,trustrt,support_status.thisRepN,support_status.thisTrialN,support_status.thisN,support_status.thisIndex,support_status.ran,support_status.order,key_resp_5.keys,key_resp_5.rt,globalClockTime,userAgent
TRUE,61416d1911219594f9a148ec,001,2022-04-28_20h02.09.774,classification_task,2021.2.3,Win32,74.92881762,61416d1911219594f9a148ec,626b377229c10585ec392f8a,626b38fe4e7d9da64f0db350,,,,,,,,,,,,,,,,,,,,,,,,,,,,,,,,,,,,,,,,,,,,,,,,,,,,,,,,,,,,,,,,,,,,
,61416d1911219594f9a148ec,001,2022-04-28_20h02.09.774,classification_task,2021.2.3,Win32,74.92881762,61416d1911219594f9a148ec,626b377229c10585ec392f8a,626b38fe4e7d9da64f0db350,"[[""0.219"",""0.395"",""0.635"",""0.940""],[""0.272"",""0.443"",""0.869"",""0.974""]]","[[""0.121"",""0.308"",""0.495"",""0.694""],[""0.085"",""0.359"",""0.558"",""0.737""]]","[1,10]","[100,1000]",Video game experience,,,0.7,0,,,,,,,,,,,,,,,,,,,,,,,,,,,,,,,,,,,,,,,,,,,,,,,,,,,,,,,,,,,
,61416d1911219594f9a148ec,001,2022-04-28_20h02.09.774,classification_task,2021.2.3,Win32,74.92881762,61416d1911219594f9a148ec,626b377229c10585ec392f8a,626b38fe4e7d9da64f0db350,,,,,Approximately how many hours did you spend playing video games in the last week?,,,0.7,0,0,,,,,,,,,,,,,,,,,,,,,,,,,,,,,,,,,,,,,,,,,,,,,,,,,,,,,,,,,,
,61416d1911219594f9a148ec,001,2022-04-28_20h02.09.774,classification_task,2021.2.3,Win32,74.92881762,61416d1911219594f9a148ec,626b377229c10585ec392f8a,626b38fe4e7d9da64f0db350,,,,,"Which game did you play the most this year? (Enter ""None"" if you didn't play any)",,,0.7,0,Smash,,,,,,,,,,,,,,,,,,,,,,,,,,,,,,,,,,,,,,,,,,,,,,,,,,,,,,,,,,
,61416d1911219594f9a148ec,001,2022-04-28_20h02.09.774,classification_task,2021.2.3,Win32,74.92881762,61416d1911219594f9a148ec,626b377229c10585ec392f8a,626b38fe4e7d9da64f0db350,,,,,Visual perception,,,0.7,0,,,,,,,,,,,,,,,,,,,,,,,,,,,,,,,,,,,,,,,,,,,,,,,,,,,,,,,,,,,
,61416d1911219594f9a148ec,001,2022-04-28_20h02.09.774,classification_task,2021.2.3,Win32,74.92881762,61416d1911219594f9a148ec,626b377229c10585ec392f8a,626b38fe4e7d9da64f0db350,,,,,Do you have any form of color blindness?,,,0.7,0,No,27.0015,,,,,,,,,,,,,,,,,,,,,,,,,,,,,,,,,,,,,,,,,,,,,,,,,,,,,,,,,
,61416d1911219594f9a148ec,001,2022-04-28_20h02.09.774,classification_task,2021.2.3,Win32,74.92881762,61416d1911219594f9a148ec,626b377229c10585ec392f8a,626b38fe4e7d9da64f0db350,,,,,Do you use software to change the colour temperature of your screen (e.g. f.lux)?,,,0.7,0,No,30.2647,,,,,,,,,,,,,,,,,,,,,,,,,,,,,,,,,,,,,,,,,,,,,,,,,,,,,,,,,
,61416d1911219594f9a148ec,001,2022-04-28_20h02.09.774,classification_task,2021.2.3,Win32,74.92881762,61416d1911219594f9a148ec,626b377229c10585ec392f8a,626b38fe4e7d9da64f0db350,,,,,,,,,,,,space,517.7753,space,5.1611,0,0,0,0,1,,,,,,,,,,,,,,,,,,,,,,,,,,,,,,,,,,,,,,,,,,,,,,,,
,61416d1911219594f9a148ec,001,2022-04-28_20h02.09.774,classification_task,2021.2.3,Win32,74.92881762,61416d1911219594f9a148ec,626b377229c10585ec392f8a,626b38fe4e7d9da64f0db350,,,,,,,,,,,,,,space,5.453,1,0,1,0,1,,,,,,,,,,,,,,,,,,,,,,,,,,,,,,,,,,,,,,,,,,,,,,,,
,61416d1911219594f9a148ec,001,2022-04-28_20h02.09.774,classification_task,2021.2.3,Win32,74.92881762,61416d1911219594f9a148ec,626b377229c10585ec392f8a,626b38fe4e7d9da64f0db350,,,,,,,,,,,,,,space,5.0849,2,0,2,0,1,,,,,,,,,,,,,,,,,,,,,,,,,,,,,,,,,,,,,,,,,,,,,,,,
,61416d1911219594f9a148ec,001,2022-04-28_20h02.09.774,classification_task,2021.2.3,Win32,74.92881762,61416d1911219594f9a148ec,626b377229c10585ec392f8a,626b38fe4e7d9da64f0db350,,,,,,,,,,,,,,space,7.0027,3,0,3,0,1,,,,,,,,,,,,,,,,,,,,,,,,,,,,,,,,,,,,,,,,,,,,,,,,
,61416d1911219594f9a148ec,001,2022-04-28_20h02.09.774,classification_task,2021.2.3,Win32,74.92881762,61416d1911219594f9a148ec,626b377229c10585ec392f8a,626b38fe4e7d9da64f0db350,,,,,,,,,,,,,,space,6.5899,4,0,4,0,1,,,,,,,,,,,,,,,,,,,,,,,,,,,,,,,,,,,,,,,,,,,,,,,,
,61416d1911219594f9a148ec,001,2022-04-28_20h02.09.774,classification_task,2021.2.3,Win32,74.92881762,61416d1911219594f9a148ec,626b377229c10585ec392f8a,626b38fe4e7d9da64f0db350,,,,,,,,,,,,,,,,,,,,,space,23.3303,,0,"[""0.121"",""0.308"",""0.495"",""0.176""]","[1,1,1,0]",0,0,0,0,1,1,0,,,1,FALSE,,,,,,,,,,,,,,,,,,,,,,,,,,,,,,,
,61416d1911219594f9a148ec,001,2022-04-28_20h02.09.774,classification_task,2021.2.3,Win32,74.92881762,61416d1911219594f9a148ec,626b377229c10585ec392f8a,626b38fe4e7d9da64f0db350,,,,,,,,,,,,,,,,,,,,,,,a,1,"[""0.272"",""0.793"",""0.869"",""0.974""]","[1,0,1,1]",0,1,1,1,1,0,1,,,1,FALSE,2.9884,,,,,,,,,,,,,,,,,,,,,,,,,,,,,,
,61416d1911219594f9a148ec,001,2022-04-28_20h02.09.774,classification_task,2021.2.3,Win32,74.92881762,61416d1911219594f9a148ec,626b377229c10585ec392f8a,626b38fe4e7d9da64f0db350,,,,,,,,,,,,,,,,,,,,,,,l,1,"[""0.085"",""0.050"",""0.558"",""0.737""]","[1,0,1,1]",0,2,2,2,1,1,1,,,1,FALSE,2.6821,,,,,,,,,,,,,,,,,,,,,,,,,,,,,,
,61416d1911219594f9a148ec,001,2022-04-28_20h02.09.774,classification_task,2021.2.3,Win32,74.92881762,61416d1911219594f9a148ec,626b377229c10585ec392f8a,626b38fe4e7d9da64f0db350,,,,,,,,,,,,,,,,,,,,,,,l,0,"[""0.035"",""0.395"",""0.635"",""0.940""]","[0,1,1,1]",0,3,3,3,1,0,0,,,1,FALSE,3.4684,,,,,,,,,,,,,,,,,,,,,,,,,,,,,,
,61416d1911219594f9a148ec,001,2022-04-28_20h02.09.774,classification_task,2021.2.3,Win32,74.92881762,61416d1911219594f9a148ec,626b377229c10585ec392f8a,626b38fe4e7d9da64f0db350,,,,,,,,,,,,,,,,,,,,,,,a,1,"[""0.219"",""0.395"",""0.172"",""0.940""]","[1,1,0,1]",0,4,4,4,1,0,0,,,1,FALSE,2.5887,,,,,,,,,,,,,,,,,,,,,,,,,,,,,,
,61416d1911219594f9a148ec,001,2022-04-28_20h02.09.774,classification_task,2021.2.3,Win32,74.92881762,61416d1911219594f9a148ec,626b377229c10585ec392f8a,626b38fe4e7d9da64f0db350,,,,,,,,,,,,,,,,,,,,,,,l,1,"[""0.085"",""0.359"",""0.558"",""0.186""]","[1,1,1,0]",0,5,5,5,1,1,1,,,1,FALSE,3.6687,,,,,,,,,,,,,,,,,,,,,,,,,,,,,,
,61416d1911219594f9a148ec,001,2022-04-28_20h02.09.774,classification_task,2021.2.3,Win32,74.92881762,61416d1911219594f9a148ec,626b377229c10585ec392f8a,626b38fe4e7d9da64f0db350,,,,,,,,,,,,,,,,,,,,,,,l,1,"[""0.085"",""0.359"",""0.822"",""0.737""]","[1,1,0,1]",0,6,6,6,1,1,1,,,1,FALSE,3.3759,,,,,,,,,,,,,,,,,,,,,,,,,,,,,,
,61416d1911219594f9a148ec,001,2022-04-28_20h02.09.774,classification_task,2021.2.3,Win32,74.92881762,61416d1911219594f9a148ec,626b377229c10585ec392f8a,626b38fe4e7d9da64f0db350,,,,,,,,,,,,,,,,,,,,,,,a,1,"[""0.272"",""0.443"",""0.869"",""0.176""]","[1,1,1,0]",0,7,7,7,1,0,1,,,1,FALSE,3.8957,,,,,,,,,,,,,,,,,,,,,,,,,,,,,,
,61416d1911219594f9a148ec,001,2022-04-28_20h02.09.774,classification_task,2021.2.3,Win32,74.92881762,61416d1911219594f9a148ec,626b377229c10585ec392f8a,626b38fe4e7d9da64f0db350,,,,,,,,,,,,,,,,,,,,,,,a,1,"[""0.172"",""0.443"",""0.869"",""0.974""]","[0,1,1,1]",0,8,8,8,1,0,1,,,1,FALSE,4.1493,,,,,,,,,,,,,,,,,,,,,,,,,,,,,,
,61416d1911219594f9a148ec,001,2022-04-28_20h02.09.774,classification_task,2021.2.3,Win32,74.92881762,61416d1911219594f9a148ec,626b377229c10585ec392f8a,626b38fe4e7d9da64f0db350,,,,,,,,,,,,,,,,,,,,,,,l,1,"[""0.041"",""0.308"",""0.495"",""0.694""]","[0,1,1,1]",0,9,9,9,1,1,0,,,1,FALSE,4.2549,,,,,,,,,,,,,,,,,,,,,,,,,,,,,,
,61416d1911219594f9a148ec,001,2022-04-28_20h02.09.774,classification_task,2021.2.3,Win32,74.92881762,61416d1911219594f9a148ec,626b377229c10585ec392f8a,626b38fe4e7d9da64f0db350,,,,,,,,,,,,,,,,,,,,,,,l,1,"[""0.038"",""0.359"",""0.558"",""0.737""]","[0,1,1,1]",0,10,10,10,1,1,1,,,1,FALSE,3.1355,,,,,,,,,,,,,,,,,,,,,,,,,,,,,,
,61416d1911219594f9a148ec,001,2022-04-28_20h02.09.774,classification_task,2021.2.3,Win32,74.92881762,61416d1911219594f9a148ec,626b377229c10585ec392f8a,626b38fe4e7d9da64f0db350,,,,,,,,,,,,,,,,,,,,,,,a,1,"[""0.272"",""0.443"",""0.788"",""0.974""]","[1,1,0,1]",0,11,11,11,1,0,1,,,1,FALSE,3.3488,,,,,,,,,,,,,,,,,,,,,,,,,,,,,,
,61416d1911219594f9a148ec,001,2022-04-28_20h02.09.774,classification_task,2021.2.3,Win32,74.92881762,61416d1911219594f9a148ec,626b377229c10585ec392f8a,626b38fe4e7d9da64f0db350,,,,,,,,,,,,,,,,,,,,,,,a,0,"[""0.121"",""0.308"",""0.041"",""0.694""]","[1,1,0,1]",0,12,12,12,1,1,0,,,1,FALSE,3.8828,,,,,,,,,,,,,,,,,,,,,,,,,,,,,,
,61416d1911219594f9a148ec,001,2022-04-28_20h02.09.774,classification_task,2021.2.3,Win32,74.92881762,61416d1911219594f9a148ec,626b377229c10585ec392f8a,626b38fe4e7d9da64f0db350,,,,,,,,,,,,,,,,,,,,,,,a,1,"[""0.219"",""0.395"",""0.635"",""0.824""]","[1,1,1,0]",0,13,13,13,1,0,0,,,1,FALSE,3.6289,,,,,,,,,,,,,,,,,,,,,,,,,,,,,,
,61416d1911219594f9a148ec,001,2022-04-28_20h02.09.774,classification_task,2021.2.3,Win32,74.92881762,61416d1911219594f9a148ec,626b377229c10585ec392f8a,626b38fe4e7d9da64f0db350,,,,,,,,,,,,,,,,,,,,,,,l,1,"[""0.121"",""0.824"",""0.495"",""0.694""]","[1,0,1,1]",0,14,14,14,1,1,0,,,1,FALSE,2.589,,,,,,,,,,,,,,,,,,,,,,,,,,,,,,
,61416d1911219594f9a148ec,001,2022-04-28_20h02.09.774,classification_task,2021.2.3,Win32,74.92881762,61416d1911219594f9a148ec,626b377229c10585ec392f8a,626b38fe4e7d9da64f0db350,,,,,,,,,,,,,,,,,,,,,,,l,0,"[""0.219"",""0.186"",""0.635"",""0.940""]","[1,0,1,1]",0,15,15,15,1,0,0,,,1,FALSE,2.5354,,,,,,,,,,,,,,,,,,,,,,,,,,,,,,
,61416d1911219594f9a148ec,001,2022-04-28_20h02.09.774,classification_task,2021.2.3,Win32,74.92881762,61416d1911219594f9a148ec,626b377229c10585ec392f8a,626b38fe4e7d9da64f0db350,,,,,,,,,,,,,,,,,,,,,,,a,1,"[""0.219"",""0.395"",""0.635"",""0.180""]","[1,1,1,0]",0,16,16,16,1,0,0,,,1,FALSE,2.9757,,,,,,,,,,,,,,,,,,,,,,,,,,,,,,
,61416d1911219594f9a148ec,001,2022-04-28_20h02.09.774,classification_task,2021.2.3,Win32,74.92881762,61416d1911219594f9a148ec,626b377229c10585ec392f8a,626b38fe4e7d9da64f0db350,,,,,,,,,,,,,,,,,,,,,,,l,1,"[""0.121"",""0.788"",""0.495"",""0.694""]","[1,0,1,1]",0,17,17,17,1,1,0,,,1,FALSE,3.6416,,,,,,,,,,,,,,,,,,,,,,,,,,,,,,
,61416d1911219594f9a148ec,001,2022-04-28_20h02.09.774,classification_task,2021.2.3,Win32,74.92881762,61416d1911219594f9a148ec,626b377229c10585ec392f8a,626b38fe4e7d9da64f0db350,,,,,,,,,,,,,,,,,,,,,,,a,1,"[""0.050"",""0.443"",""0.869"",""0.974""]","[0,1,1,1]",0,18,18,18,1,0,1,,,1,FALSE,3.4154,,,,,,,,,,,,,,,,,,,,,,,,,,,,,,
,61416d1911219594f9a148ec,001,2022-04-28_20h02.09.774,classification_task,2021.2.3,Win32,74.92881762,61416d1911219594f9a148ec,626b377229c10585ec392f8a,626b38fe4e7d9da64f0db350,,,,,,,,,,,,,,,,,,,,,,,l,1,"[""0.085"",""0.186"",""0.558"",""0.737""]","[1,0,1,1]",0,19,19,19,1,1,1,,,1,FALSE,2.9612,,,,,,,,,,,,,,,,,,,,,,,,,,,,,,
,61416d1911219594f9a148ec,001,2022-04-28_20h02.09.774,classification_task,2021.2.3,Win32,74.92881762,61416d1911219594f9a148ec,626b377229c10585ec392f8a,626b38fe4e7d9da64f0db350,,,,,,,,,,,,,,,,,,,,,,,a,1,"[""0.038"",""0.395"",""0.635"",""0.940""]","[0,1,1,1]",0,20,20,20,1,0,0,,,1,FALSE,3.3488,,,,,,,,,,,,,,,,,,,,,,,,,,,,,,
,61416d1911219594f9a148ec,001,2022-04-28_20h02.09.774,classification_task,2021.2.3,Win32,74.92881762,61416d1911219594f9a148ec,626b377229c10585ec392f8a,626b38fe4e7d9da64f0db350,,,,,,,,,,,,,,,,,,,,,,,l,1,"[""0.824"",""0.359"",""0.558"",""0.737""]","[0,1,1,1]",0,21,21,21,1,1,1,,,1,FALSE,2.3084,,,,,,,,,,,,,,,,,,,,,,,,,,,,,,
,61416d1911219594f9a148ec,001,2022-04-28_20h02.09.774,classification_task,2021.2.3,Win32,74.92881762,61416d1911219594f9a148ec,626b377229c10585ec392f8a,626b38fe4e7d9da64f0db350,,,,,,,,,,,,,,,,,,,,,,,l,1,"[""0.085"",""0.359"",""0.558"",""0.186""]","[1,1,1,0]",0,22,22,22,1,1,1,,,1,FALSE,2.5753,,,,,,,,,,,,,,,,,,,,,,,,,,,,,,
,61416d1911219594f9a148ec,001,2022-04-28_20h02.09.774,classification_task,2021.2.3,Win32,74.92881762,61416d1911219594f9a148ec,626b377229c10585ec392f8a,626b38fe4e7d9da64f0db350,,,,,,,,,,,,,,,,,,,,,,,l,1,"[""0.121"",""0.308"",""0.593"",""0.694""]","[1,1,0,1]",0,23,23,23,1,1,0,,,1,FALSE,3.2957,,,,,,,,,,,,,,,,,,,,,,,,,,,,,,
,61416d1911219594f9a148ec,001,2022-04-28_20h02.09.774,classification_task,2021.2.3,Win32,74.92881762,61416d1911219594f9a148ec,626b377229c10585ec392f8a,626b38fe4e7d9da64f0db350,,,,,,,,,,,,,,,,,,,,,,,l,1,"[""0.176"",""0.308"",""0.495"",""0.694""]","[0,1,1,1]",0,24,24,24,1,1,0,,,1,FALSE,2.7079,,,,,,,,,,,,,,,,,,,,,,,,,,,,,,
,61416d1911219594f9a148ec,001,2022-04-28_20h02.09.774,classification_task,2021.2.3,Win32,74.92881762,61416d1911219594f9a148ec,626b377229c10585ec392f8a,626b38fe4e7d9da64f0db350,,,,,,,,,,,,,,,,,,,,,,,l,0,"[""0.219"",""0.186"",""0.635"",""0.940""]","[1,0,1,1]",0,25,25,25,1,0,0,,,1,FALSE,3.9764,,,,,,,,,,,,,,,,,,,,,,,,,,,,,,
,61416d1911219594f9a148ec,001,2022-04-28_20h02.09.774,classification_task,2021.2.3,Win32,74.92881762,61416d1911219594f9a148ec,626b377229c10585ec392f8a,626b38fe4e7d9da64f0db350,,,,,,,,,,,,,,,,,,,,,,,l,0,"[""0.219"",""0.395"",""0.180"",""0.940""]","[1,1,0,1]",0,26,26,26,1,0,0,,,1,FALSE,2.9349,,,,,,,,,,,,,,,,,,,,,,,,,,,,,,
,61416d1911219594f9a148ec,001,2022-04-28_20h02.09.774,classification_task,2021.2.3,Win32,74.92881762,61416d1911219594f9a148ec,626b377229c10585ec392f8a,626b38fe4e7d9da64f0db350,,,,,,,,,,,,,,,,,,,,,,,a,1,"[""0.272"",""0.443"",""0.869"",""0.175""]","[1,1,1,0]",0,27,27,27,1,0,1,,,1,FALSE,3.0422,,,,,,,,,,,,,,,,,,,,,,,,,,,,,,
,61416d1911219594f9a148ec,001,2022-04-28_20h02.09.774,classification_task,2021.2.3,Win32,74.92881762,61416d1911219594f9a148ec,626b377229c10585ec392f8a,626b38fe4e7d9da64f0db350,,,,,,,,,,,,,,,,,,,,,,,l,1,"[""0.085"",""0.359"",""0.822"",""0.737""]","[1,1,0,1]",0,28,28,28,1,1,1,,,1,FALSE,3.5089,,,,,,,,,,,,,,,,,,,,,,,,,,,,,,
,61416d1911219594f9a148ec,001,2022-04-28_20h02.09.774,classification_task,2021.2.3,Win32,74.92881762,61416d1911219594f9a148ec,626b377229c10585ec392f8a,626b38fe4e7d9da64f0db350,,,,,,,,,,,,,,,,,,,,,,,a,1,"[""0.272"",""0.443"",""0.834"",""0.974""]","[1,1,0,1]",0,29,29,29,1,0,1,,,1,FALSE,4.1356,,,,,,,,,,,,,,,,,,,,,,,,,,,,,,
,61416d1911219594f9a148ec,001,2022-04-28_20h02.09.774,classification_task,2021.2.3,Win32,74.92881762,61416d1911219594f9a148ec,626b377229c10585ec392f8a,626b38fe4e7d9da64f0db350,,,,,,,,,,,,,,,,,,,,,,,a,1,"[""0.272"",""0.172"",""0.869"",""0.974""]","[1,0,1,1]",0,30,30,30,1,0,1,,,1,FALSE,3.9092,,,,,,,,,,,,,,,,,,,,,,,,,,,,,,
,61416d1911219594f9a148ec,001,2022-04-28_20h02.09.774,classification_task,2021.2.3,Win32,74.92881762,61416d1911219594f9a148ec,626b377229c10585ec392f8a,626b38fe4e7d9da64f0db350,,,,,,,,,,,,,,,,,,,,,,,l,1,"[""0.121"",""0.308"",""0.495"",""0.038""]","[1,1,1,0]",0,31,31,31,1,1,0,,,1,FALSE,3.0411,,,,,,,,,,,,,,,,,,,,,,,,,,,,,,
,61416d1911219594f9a148ec,001,2022-04-28_20h02.09.774,classification_task,2021.2.3,Win32,74.92881762,61416d1911219594f9a148ec,626b377229c10585ec392f8a,626b38fe4e7d9da64f0db350,,,,,,,,,,,,,,,,,,,,,,,a,1,"[""0.175"",""0.395"",""0.635"",""0.940""]","[0,1,1,1]",0,32,32,32,1,0,0,,,1,FALSE,4.7226,,,,,,,,,,,,,,,,,,,,,,,,,,,,,,
,61416d1911219594f9a148ec,001,2022-04-28_20h02.09.774,classification_task,2021.2.3,Win32,74.92881762,61416d1911219594f9a148ec,626b377229c10585ec392f8a,626b38fe4e7d9da64f0db350,,,,,,,,,,,,,,,,,,,,,,,l,0,"[""0.793"",""0.443"",""0.869"",""0.974""]","[0,1,1,1]",0,33,33,33,1,0,1,,,1,FALSE,2.5882,,,,,,,,,,,,,,,,,,,,,,,,,,,,,,
,61416d1911219594f9a148ec,001,2022-04-28_20h02.09.774,classification_task,2021.2.3,Win32,74.92881762,61416d1911219594f9a148ec,626b377229c10585ec392f8a,626b38fe4e7d9da64f0db350,,,,,,,,,,,,,,,,,,,,,,,l,1,"[""0.121"",""0.050"",""0.495"",""0.694""]","[1,0,1,1]",0,34,34,34,1,1,0,,,1,FALSE,2.8819,,,,,,,,,,,,,,,,,,,,,,,,,,,,,,
,61416d1911219594f9a148ec,001,2022-04-28_20h02.09.774,classification_task,2021.2.3,Win32,74.92881762,61416d1911219594f9a148ec,626b377229c10585ec392f8a,626b38fe4e7d9da64f0db350,,,,,,,,,,,,,,,,,,,,,,,a,0,"[""0.788"",""0.359"",""0.558"",""0.737""]","[0,1,1,1]",0,35,35,35,1,1,1,,,1,FALSE,1.6813,,,,,,,,,,,,,,,,,,,,,,,,,,,,,,
,61416d1911219594f9a148ec,001,2022-04-28_20h02.09.774,classification_task,2021.2.3,Win32,74.92881762,61416d1911219594f9a148ec,626b377229c10585ec392f8a,626b38fe4e7d9da64f0db350,,,,,,,,,,,,,,,,,,,,,,,l,1,"[""0.121"",""0.308"",""0.495"",""0.038""]","[1,1,1,0]",0,36,36,36,1,1,0,,,1,FALSE,2.3348,,,,,,,,,,,,,,,,,,,,,,,,,,,,,,
,61416d1911219594f9a148ec,001,2022-04-28_20h02.09.774,classification_task,2021.2.3,Win32,74.92881762,61416d1911219594f9a148ec,626b377229c10585ec392f8a,626b38fe4e7d9da64f0db350,,,,,,,,,,,,,,,,,,,,,,,a,1,"[""0.219"",""0.395"",""0.050"",""0.940""]","[1,1,0,1]",0,37,37,37,1,0,0,,,1,FALSE,1.3081,,,,,,,,,,,,,,,,,,,,,,,,,,,,,,
,61416d1911219594f9a148ec,001,2022-04-28_20h02.09.774,classification_task,2021.2.3,Win32,74.92881762,61416d1911219594f9a148ec,626b377229c10585ec392f8a,626b38fe4e7d9da64f0db350,,,,,,,,,,,,,,,,,,,,,,,a,0,"[""0.085"",""0.593"",""0.558"",""0.737""]","[1,0,1,1]",0,38,38,38,1,1,1,,,1,FALSE,2.602,,,,,,,,,,,,,,,,,,,,,,,,,,,,,,
,61416d1911219594f9a148ec,001,2022-04-28_20h02.09.774,classification_task,2021.2.3,Win32,74.92881762,61416d1911219594f9a148ec,626b377229c10585ec392f8a,626b38fe4e7d9da64f0db350,,,,,,,,,,,,,,,,,,,,,,,l,1,"[""0.085"",""0.359"",""0.558"",""0.161""]","[1,1,1,0]",0,39,39,39,1,1,1,,,1,FALSE,1.8018,,,,,,,,,,,,,,,,,,,,,,,,,,,,,,
,61416d1911219594f9a148ec,001,2022-04-28_20h02.09.774,classification_task,2021.2.3,Win32,74.92881762,61416d1911219594f9a148ec,626b377229c10585ec392f8a,626b38fe4e7d9da64f0db350,,,,,,,,,,,,,,,,,,,,,,,a,1,"[""0.272"",""0.788"",""0.869"",""0.974""]","[1,0,1,1]",0,40,40,40,1,0,1,,,1,FALSE,1.6411,,,,,,,,,,,,,,,,,,,,,,,,,,,,,,
,61416d1911219594f9a148ec,001,2022-04-28_20h02.09.774,classification_task,2021.2.3,Win32,74.92881762,61416d1911219594f9a148ec,626b377229c10585ec392f8a,626b38fe4e7d9da64f0db350,,,,,,,,,,,,,,,,,,,,,,,a,1,"[""0.219"",""0.395"",""0.635"",""0.161""]","[1,1,1,0]",0,41,41,41,1,0,0,,,1,FALSE,2.4016,,,,,,,,,,,,,,,,,,,,,,,,,,,,,,
,61416d1911219594f9a148ec,001,2022-04-28_20h02.09.774,classification_task,2021.2.3,Win32,74.92881762,61416d1911219594f9a148ec,626b377229c10585ec392f8a,626b38fe4e7d9da64f0db350,,,,,,,,,,,,,,,,,,,,,,,l,0,"[""0.219"",""0.161"",""0.635"",""0.940""]","[1,0,1,1]",0,42,42,42,1,0,0,,,1,FALSE,1.0278,,,,,,,,,,,,,,,,,,,,,,,,,,,,,,
,61416d1911219594f9a148ec,001,2022-04-28_20h02.09.774,classification_task,2021.2.3,Win32,74.92881762,61416d1911219594f9a148ec,626b377229c10585ec392f8a,626b38fe4e7d9da64f0db350,,,,,,,,,,,,,,,,,,,,,,,a,0,"[""0.121"",""0.308"",""0.593"",""0.694""]","[1,1,0,1]",0,43,43,43,1,1,0,,,1,FALSE,1.4015,,,,,,,,,,,,,,,,,,,,,,,,,,,,,,
,61416d1911219594f9a148ec,001,2022-04-28_20h02.09.774,classification_task,2021.2.3,Win32,74.92881762,61416d1911219594f9a148ec,626b377229c10585ec392f8a,626b38fe4e7d9da64f0db350,,,,,,,,,,,,,,,,,,,,,,,a,1,"[""0.272"",""0.443"",""0.869"",""0.035""]","[1,1,1,0]",0,44,44,44,1,0,1,,,1,FALSE,0.9078,,,,,,,,,,,,,,,,,,,,,,,,,,,,,,
,61416d1911219594f9a148ec,001,2022-04-28_20h02.09.774,classification_task,2021.2.3,Win32,74.92881762,61416d1911219594f9a148ec,626b377229c10585ec392f8a,626b38fe4e7d9da64f0db350,,,,,,,,,,,,,,,,,,,,,,,l,1,"[""0.180"",""0.308"",""0.495"",""0.694""]","[0,1,1,1]",0,45,45,45,1,1,0,,,1,FALSE,1.3879,,,,,,,,,,,,,,,,,,,,,,,,,,,,,,
,61416d1911219594f9a148ec,001,2022-04-28_20h02.09.774,classification_task,2021.2.3,Win32,74.92881762,61416d1911219594f9a148ec,626b377229c10585ec392f8a,626b38fe4e7d9da64f0db350,,,,,,,,,,,,,,,,,,,,,,,l,0,"[""0.272"",""0.443"",""0.050"",""0.974""]","[1,1,0,1]",0,46,46,46,1,0,1,,,1,FALSE,1.7737,,,,,,,,,,,,,,,,,,,,,,,,,,,,,,
,61416d1911219594f9a148ec,001,2022-04-28_20h02.09.774,classification_task,2021.2.3,Win32,74.92881762,61416d1911219594f9a148ec,626b377229c10585ec392f8a,626b38fe4e7d9da64f0db350,,,,,,,,,,,,,,,,,,,,,,,l,1,"[""0.085"",""0.359"",""0.793"",""0.737""]","[1,1,0,1]",0,47,47,47,1,1,1,,,1,FALSE,1.5477,,,,,,,,,,,,,,,,,,,,,,,,,,,,,,
,61416d1911219594f9a148ec,001,2022-04-28_20h02.09.774,classification_task,2021.2.3,Win32,74.92881762,61416d1911219594f9a148ec,626b377229c10585ec392f8a,626b38fe4e7d9da64f0db350,,,,,,,,,,,,,,,,,,,,,,,a,1,"[""0.272"",""0.824"",""0.869"",""0.974""]","[1,0,1,1]",0,48,48,48,1,0,1,,,1,FALSE,1.8147,,,,,,,,,,,,,,,,,,,,,,,,,,,,,,
,61416d1911219594f9a148ec,001,2022-04-28_20h02.09.774,classification_task,2021.2.3,Win32,74.92881762,61416d1911219594f9a148ec,626b377229c10585ec392f8a,626b38fe4e7d9da64f0db350,,,,,,,,,,,,,,,,,,,,,,,a,1,"[""0.219"",""0.395"",""0.635"",""0.035""]","[1,1,1,0]",0,49,49,49,1,0,0,,,1,FALSE,1.4681,,,,,,,,,,,,,,,,,,,,,,,,,,,,,,
,61416d1911219594f9a148ec,001,2022-04-28_20h02.09.774,classification_task,2021.2.3,Win32,74.92881762,61416d1911219594f9a148ec,626b377229c10585ec392f8a,626b38fe4e7d9da64f0db350,,,,,,,,,,,,,,,,,,,,,,,l,1,"[""0.793"",""0.359"",""0.558"",""0.737""]","[0,1,1,1]",0,50,50,50,1,1,1,,,1,FALSE,1.9872,,,,,,,,,,,,,,,,,,,,,,,,,,,,,,
,61416d1911219594f9a148ec,001,2022-04-28_20h02.09.774,classification_task,2021.2.3,Win32,74.92881762,61416d1911219594f9a148ec,626b377229c10585ec392f8a,626b38fe4e7d9da64f0db350,,,,,,,,,,,,,,,,,,,,,,,a,1,"[""0.593"",""0.395"",""0.635"",""0.940""]","[0,1,1,1]",0,51,51,51,1,0,0,,,1,FALSE,1.735,,,,,,,,,,,,,,,,,,,,,,,,,,,,,,
,61416d1911219594f9a148ec,001,2022-04-28_20h02.09.774,classification_task,2021.2.3,Win32,74.92881762,61416d1911219594f9a148ec,626b377229c10585ec392f8a,626b38fe4e7d9da64f0db350,,,,,,,,,,,,,,,,,,,,,,,l,0,"[""0.272"",""0.443"",""0.869"",""0.793""]","[1,1,1,0]",0,52,52,52,1,0,1,,,1,FALSE,1.8817,,,,,,,,,,,,,,,,,,,,,,,,,,,,,,
,61416d1911219594f9a148ec,001,2022-04-28_20h02.09.774,classification_task,2021.2.3,Win32,74.92881762,61416d1911219594f9a148ec,626b377229c10585ec392f8a,626b38fe4e7d9da64f0db350,,,,,,,,,,,,,,,,,,,,,,,l,0,"[""0.219"",""0.180"",""0.635"",""0.940""]","[1,0,1,1]",0,53,53,53,1,0,0,,,1,FALSE,1.6141,,,,,,,,,,,,,,,,,,,,,,,,,,,,,,
,61416d1911219594f9a148ec,001,2022-04-28_20h02.09.774,classification_task,2021.2.3,Win32,74.92881762,61416d1911219594f9a148ec,626b377229c10585ec392f8a,626b38fe4e7d9da64f0db350,,,,,,,,,,,,,,,,,,,,,,,l,1,"[""0.085"",""0.359"",""0.558"",""0.834""]","[1,1,1,0]",0,54,54,54,1,1,1,,,1,FALSE,1.0946,,,,,,,,,,,,,,,,,,,,,,,,,,,,,,
,61416d1911219594f9a148ec,001,2022-04-28_20h02.09.774,classification_task,2021.2.3,Win32,74.92881762,61416d1911219594f9a148ec,626b377229c10585ec392f8a,626b38fe4e7d9da64f0db350,,,,,,,,,,,,,,,,,,,,,,,a,0,"[""0.085"",""0.172"",""0.558"",""0.737""]","[1,0,1,1]",0,55,55,55,1,1,1,,,1,FALSE,1.1877,,,,,,,,,,,,,,,,,,,,,,,,,,,,,,
,61416d1911219594f9a148ec,001,2022-04-28_20h02.09.774,classification_task,2021.2.3,Win32,74.92881762,61416d1911219594f9a148ec,626b377229c10585ec392f8a,626b38fe4e7d9da64f0db350,,,,,,,,,,,,,,,,,,,,,,,a,0,"[""0.176"",""0.308"",""0.495"",""0.694""]","[0,1,1,1]",0,56,56,56,1,1,0,,,1,FALSE,1.0677,,,,,,,,,,,,,,,,,,,,,,,,,,,,,,
,61416d1911219594f9a148ec,001,2022-04-28_20h02.09.774,classification_task,2021.2.3,Win32,74.92881762,61416d1911219594f9a148ec,626b377229c10585ec392f8a,626b38fe4e7d9da64f0db350,,,,,,,,,,,,,,,,,,,,,,,l,0,"[""0.219"",""0.395"",""0.176"",""0.940""]","[1,1,0,1]",0,57,57,57,1,0,0,,,1,FALSE,1.1743,,,,,,,,,,,,,,,,,,,,,,,,,,,,,,
,61416d1911219594f9a148ec,001,2022-04-28_20h02.09.774,classification_task,2021.2.3,Win32,74.92881762,61416d1911219594f9a148ec,626b377229c10585ec392f8a,626b38fe4e7d9da64f0db350,,,,,,,,,,,,,,,,,,,,,,,l,1,"[""0.121"",""0.308"",""0.038"",""0.694""]","[1,1,0,1]",0,58,58,58,1,1,0,,,1,FALSE,1.2677,,,,,,,,,,,,,,,,,,,,,,,,,,,,,,
,61416d1911219594f9a148ec,001,2022-04-28_20h02.09.774,classification_task,2021.2.3,Win32,74.92881762,61416d1911219594f9a148ec,626b377229c10585ec392f8a,626b38fe4e7d9da64f0db350,,,,,,,,,,,,,,,,,,,,,,,a,0,"[""0.085"",""0.359"",""0.041"",""0.737""]","[1,1,0,1]",0,59,59,59,1,1,1,,,1,FALSE,1.3214,,,,,,,,,,,,,,,,,,,,,,,,,,,,,,
,61416d1911219594f9a148ec,001,2022-04-28_20h02.09.774,classification_task,2021.2.3,Win32,74.92881762,61416d1911219594f9a148ec,626b377229c10585ec392f8a,626b38fe4e7d9da64f0db350,,,,,,,,,,,,,,,,,,,,,,,a,1,"[""0.180"",""0.443"",""0.869"",""0.974""]","[0,1,1,1]",0,60,60,60,1,0,1,,,1,FALSE,1.0409,,,,,,,,,,,,,,,,,,,,,,,,,,,,,,
,61416d1911219594f9a148ec,001,2022-04-28_20h02.09.774,classification_task,2021.2.3,Win32,74.92881762,61416d1911219594f9a148ec,626b377229c10585ec392f8a,626b38fe4e7d9da64f0db350,,,,,,,,,,,,,,,,,,,,,,,a,0,"[""0.121"",""0.186"",""0.495"",""0.694""]","[1,0,1,1]",0,61,61,61,1,1,0,,,1,FALSE,1.4281,,,,,,,,,,,,,,,,,,,,,,,,,,,,,,
,61416d1911219594f9a148ec,001,2022-04-28_20h02.09.774,classification_task,2021.2.3,Win32,74.92881762,61416d1911219594f9a148ec,626b377229c10585ec392f8a,626b38fe4e7d9da64f0db350,,,,,,,,,,,,,,,,,,,,,,,l,0,"[""0.272"",""0.443"",""0.038"",""0.974""]","[1,1,0,1]",0,62,62,62,1,0,1,,,1,FALSE,1.0543,,,,,,,,,,,,,,,,,,,,,,,,,,,,,,
,61416d1911219594f9a148ec,001,2022-04-28_20h02.09.774,classification_task,2021.2.3,Win32,74.92881762,61416d1911219594f9a148ec,626b377229c10585ec392f8a,626b38fe4e7d9da64f0db350,,,,,,,,,,,,,,,,,,,,,,,l,1,"[""0.121"",""0.308"",""0.495"",""0.161""]","[1,1,1,0]",0,63,63,63,1,1,0,,,1,FALSE,1.4408,,,,,,,,,,,,,,,,,,,,,,,,,,,,,,
,61416d1911219594f9a148ec,001,2022-04-28_20h02.09.774,classification_task,2021.2.3,Win32,74.92881762,61416d1911219594f9a148ec,626b377229c10585ec392f8a,626b38fe4e7d9da64f0db350,,,,,,,,,,,,,,,,,,,,,,,,,,,,,,,,,,,,,,,0, ,,0,,,0,0,0,0,1,2,1,,,,,,,,,,,,,,,,,
,61416d1911219594f9a148ec,001,2022-04-28_20h02.09.774,classification_task,2021.2.3,Win32,74.92881762,61416d1911219594f9a148ec,626b377229c10585ec392f8a,626b38fe4e7d9da64f0db350,,,,,,,,,,,,,,,,,,,,,,,,,,,,,,,,,,,,,,,1,  ,,0,,,0,0,0,0,1,2,1,,,,,,,,,,,,,,,,,
,61416d1911219594f9a148ec,001,2022-04-28_20h02.09.774,classification_task,2021.2.3,Win32,74.92881762,61416d1911219594f9a148ec,626b377229c10585ec392f8a,626b38fe4e7d9da64f0db350,,,,,,,,,,,,,,,,,,,,,,,,,,,,,,,,,,,,,,,2,  ,,0,,,0,0,0,0,1,2,1,,,,,,,,,,,,,,,,,
,61416d1911219594f9a148ec,001,2022-04-28_20h02.09.774,classification_task,2021.2.3,Win32,74.92881762,61416d1911219594f9a148ec,626b377229c10585ec392f8a,626b38fe4e7d9da64f0db350,,,,,,,,,,,,,,,,,,,,,,,,,,,,,,,,,,,,,,,,,,,,,0,0,0,0,1,,1,,,,,,,,,,,,,,,,,
,61416d1911219594f9a148ec,001,2022-04-28_20h02.09.774,classification_task,2021.2.3,Win32,74.92881762,61416d1911219594f9a148ec,626b377229c10585ec392f8a,626b38fe4e7d9da64f0db350,,,,,,,,,,,,,,,,,,,,,space,8.4024,l,0,"[""0.219"",""0.395"",""0.635"",""0.180""]","[1,1,1,0]",0,0,0,0,1,0,0,,,1,FALSE,2.5129,,,,,,,,,,,,,,,,,,,,,,,,,,,,,,
,61416d1911219594f9a148ec,001,2022-04-28_20h02.09.774,classification_task,2021.2.3,Win32,74.92881762,61416d1911219594f9a148ec,626b377229c10585ec392f8a,626b38fe4e7d9da64f0db350,,,,,,,,,,,,,,,,,,,,,,,l,0,"[""0.272"",""0.443"",""0.050"",""0.974""]","[1,1,0,1]",0,1,1,1,1,0,1,,,1,FALSE,3.2339,,,,,,,,,,,,,,,,,,,,,,,,,,,,,,
,61416d1911219594f9a148ec,001,2022-04-28_20h02.09.774,classification_task,2021.2.3,Win32,74.92881762,61416d1911219594f9a148ec,626b377229c10585ec392f8a,626b38fe4e7d9da64f0db350,,,,,,,,,,,,,,,,,,,,,,,l,1,"[""0.121"",""0.308"",""0.495"",""0.041""]","[1,1,1,0]",0,2,2,2,1,1,0,,,1,FALSE,2.4129,,,,,,,,,,,,,,,,,,,,,,,,,,,,,,
,61416d1911219594f9a148ec,001,2022-04-28_20h02.09.774,classification_task,2021.2.3,Win32,74.92881762,61416d1911219594f9a148ec,626b377229c10585ec392f8a,626b38fe4e7d9da64f0db350,,,,,,,,,,,,,,,,,,,,,,,a,0,"[""0.085"",""0.359"",""0.180"",""0.737""]","[1,1,0,1]",0,3,3,3,1,1,1,,,1,FALSE,1.9891,,,,,,,,,,,,,,,,,,,,,,,,,,,,,,
,61416d1911219594f9a148ec,001,2022-04-28_20h02.09.774,classification_task,2021.2.3,Win32,74.92881762,61416d1911219594f9a148ec,626b377229c10585ec392f8a,626b38fe4e7d9da64f0db350,,,,,,,,,,,,,,,,,,,,,,,a,0,"[""0.050"",""0.359"",""0.558"",""0.737""]","[0,1,1,1]",0,4,4,4,1,1,1,,,1,FALSE,1.0261,,,,,,,,,,,,,,,,,,,,,,,,,,,,,,
,61416d1911219594f9a148ec,001,2022-04-28_20h02.09.774,classification_task,2021.2.3,Win32,74.92881762,61416d1911219594f9a148ec,626b377229c10585ec392f8a,626b38fe4e7d9da64f0db350,,,,,,,,,,,,,,,,,,,,,,,a,0,"[""0.085"",""0.359"",""0.558"",""0.176""]","[1,1,1,0]",0,5,5,5,1,1,1,,,1,FALSE,1.3885,,,,,,,,,,,,,,,,,,,,,,,,,,,,,,
,61416d1911219594f9a148ec,001,2022-04-28_20h02.09.774,classification_task,2021.2.3,Win32,74.92881762,61416d1911219594f9a148ec,626b377229c10585ec392f8a,626b38fe4e7d9da64f0db350,,,,,,,,,,,,,,,,,,,,,,,l,1,"[""0.824"",""0.308"",""0.495"",""0.694""]","[0,1,1,1]",0,6,6,6,1,1,0,,,1,FALSE,1.3621,,,,,,,,,,,,,,,,,,,,,,,,,,,,,,
,61416d1911219594f9a148ec,001,2022-04-28_20h02.09.774,classification_task,2021.2.3,Win32,74.92881762,61416d1911219594f9a148ec,626b377229c10585ec392f8a,626b38fe4e7d9da64f0db350,,,,,,,,,,,,,,,,,,,,,,,l,0,"[""0.272"",""0.161"",""0.869"",""0.974""]","[1,0,1,1]",0,7,7,7,1,0,1,,,1,FALSE,0.9087,,,,,,,,,,,,,,,,,,,,,,,,,,,,,,
,61416d1911219594f9a148ec,001,2022-04-28_20h02.09.774,classification_task,2021.2.3,Win32,74.92881762,61416d1911219594f9a148ec,626b377229c10585ec392f8a,626b38fe4e7d9da64f0db350,,,,,,,,,,,,,,,,,,,,,,,l,1,"[""0.085"",""0.788"",""0.558"",""0.737""]","[1,0,1,1]",0,8,8,8,1,1,1,,,1,FALSE,1.5781,,,,,,,,,,,,,,,,,,,,,,,,,,,,,,
,61416d1911219594f9a148ec,001,2022-04-28_20h02.09.774,classification_task,2021.2.3,Win32,74.92881762,61416d1911219594f9a148ec,626b377229c10585ec392f8a,626b38fe4e7d9da64f0db350,,,,,,,,,,,,,,,,,,,,,,,a,1,"[""0.822"",""0.443"",""0.869"",""0.974""]","[0,1,1,1]",0,9,9,9,1,0,1,,,1,FALSE,1.3355,,,,,,,,,,,,,,,,,,,,,,,,,,,,,,
,61416d1911219594f9a148ec,001,2022-04-28_20h02.09.774,classification_task,2021.2.3,Win32,74.92881762,61416d1911219594f9a148ec,626b377229c10585ec392f8a,626b38fe4e7d9da64f0db350,,,,,,,,,,,,,,,,,,,,,,,a,0,"[""0.121"",""0.308"",""0.035"",""0.694""]","[1,1,0,1]",0,10,10,10,1,1,0,,,1,FALSE,1.3061,,,,,,,,,,,,,,,,,,,,,,,,,,,,,,
,61416d1911219594f9a148ec,001,2022-04-28_20h02.09.774,classification_task,2021.2.3,Win32,74.92881762,61416d1911219594f9a148ec,626b377229c10585ec392f8a,626b38fe4e7d9da64f0db350,,,,,,,,,,,,,,,,,,,,,,,a,1,"[""0.272"",""0.443"",""0.869"",""0.161""]","[1,1,1,0]",0,11,11,11,1,0,1,,,1,FALSE,0.6979,,,,,,,,,,,,,,,,,,,,,,,,,,,,,,
,61416d1911219594f9a148ec,001,2022-04-28_20h02.09.774,classification_task,2021.2.3,Win32,74.92881762,61416d1911219594f9a148ec,626b377229c10585ec392f8a,626b38fe4e7d9da64f0db350,,,,,,,,,,,,,,,,,,,,,,,l,0,"[""0.219"",""0.395"",""0.172"",""0.940""]","[1,1,0,1]",0,12,12,12,1,0,0,,,1,FALSE,1.4154,,,,,,,,,,,,,,,,,,,,,,,,,,,,,,
,61416d1911219594f9a148ec,001,2022-04-28_20h02.09.774,classification_task,2021.2.3,Win32,74.92881762,61416d1911219594f9a148ec,626b377229c10585ec392f8a,626b38fe4e7d9da64f0db350,,,,,,,,,,,,,,,,,,,,,,,l,1,"[""0.121"",""0.035"",""0.495"",""0.694""]","[1,0,1,1]",0,13,13,13,1,1,0,,,1,FALSE,0.4833,,,,,,,,,,,,,,,,,,,,,,,,,,,,,,
,61416d1911219594f9a148ec,001,2022-04-28_20h02.09.774,classification_task,2021.2.3,Win32,74.92881762,61416d1911219594f9a148ec,626b377229c10585ec392f8a,626b38fe4e7d9da64f0db350,,,,,,,,,,,,,,,,,,,,,,,a,1,"[""0.822"",""0.395"",""0.635"",""0.940""]","[0,1,1,1]",0,14,14,14,1,0,0,,,1,FALSE,1.2955,,,,,,,,,,,,,,,,,,,,,,,,,,,,,,
,61416d1911219594f9a148ec,001,2022-04-28_20h02.09.774,classification_task,2021.2.3,Win32,74.92881762,61416d1911219594f9a148ec,626b377229c10585ec392f8a,626b38fe4e7d9da64f0db350,,,,,,,,,,,,,,,,,,,,,,,l,0,"[""0.219"",""0.041"",""0.635"",""0.940""]","[1,0,1,1]",0,15,15,15,1,0,0,,,1,FALSE,1.8021,,,,,,,,,,,,,,,,,,,,,,,,,,,,,,
,61416d1911219594f9a148ec,001,2022-04-28_20h02.09.774,classification_task,2021.2.3,Win32,74.92881762,61416d1911219594f9a148ec,626b377229c10585ec392f8a,626b38fe4e7d9da64f0db350,,,,,,,,,,,,,,,,,,,,,,,l,1,"[""0.822"",""0.308"",""0.495"",""0.694""]","[0,1,1,1]",0,16,16,16,1,1,0,,,1,FALSE,0.9633,,,,,,,,,,,,,,,,,,,,,,,,,,,,,,
,61416d1911219594f9a148ec,001,2022-04-28_20h02.09.774,classification_task,2021.2.3,Win32,74.92881762,61416d1911219594f9a148ec,626b377229c10585ec392f8a,626b38fe4e7d9da64f0db350,,,,,,,,,,,,,,,,,,,,,,,a,0,"[""0.085"",""0.359"",""0.558"",""0.172""]","[1,1,1,0]",0,17,17,17,1,1,1,,,1,FALSE,0.8552,,,,,,,,,,,,,,,,,,,,,,,,,,,,,,
,61416d1911219594f9a148ec,001,2022-04-28_20h02.09.774,classification_task,2021.2.3,Win32,74.92881762,61416d1911219594f9a148ec,626b377229c10585ec392f8a,626b38fe4e7d9da64f0db350,,,,,,,,,,,,,,,,,,,,,,,l,1,"[""0.050"",""0.359"",""0.558"",""0.737""]","[0,1,1,1]",0,18,18,18,1,1,1,,,1,FALSE,0.7619,,,,,,,,,,,,,,,,,,,,,,,,,,,,,,
,61416d1911219594f9a148ec,001,2022-04-28_20h02.09.774,classification_task,2021.2.3,Win32,74.92881762,61416d1911219594f9a148ec,626b377229c10585ec392f8a,626b38fe4e7d9da64f0db350,,,,,,,,,,,,,,,,,,,,,,,a,1,"[""0.272"",""0.443"",""0.593"",""0.974""]","[1,1,0,1]",0,19,19,19,1,0,1,,,1,FALSE,1.0417,,,,,,,,,,,,,,,,,,,,,,,,,,,,,,
,61416d1911219594f9a148ec,001,2022-04-28_20h02.09.774,classification_task,2021.2.3,Win32,74.92881762,61416d1911219594f9a148ec,626b377229c10585ec392f8a,626b38fe4e7d9da64f0db350,,,,,,,,,,,,,,,,,,,,,,,a,1,"[""0.219"",""0.050"",""0.635"",""0.940""]","[1,0,1,1]",0,20,20,20,1,0,0,,,1,FALSE,1.2019,,,,,,,,,,,,,,,,,,,,,,,,,,,,,,
,61416d1911219594f9a148ec,001,2022-04-28_20h02.09.774,classification_task,2021.2.3,Win32,74.92881762,61416d1911219594f9a148ec,626b377229c10585ec392f8a,626b38fe4e7d9da64f0db350,,,,,,,,,,,,,,,,,,,,,,,a,0,"[""0.121"",""0.308"",""0.035"",""0.694""]","[1,1,0,1]",0,21,21,21,1,1,0,,,1,FALSE,1.2016,,,,,,,,,,,,,,,,,,,,,,,,,,,,,,
,61416d1911219594f9a148ec,001,2022-04-28_20h02.09.774,classification_task,2021.2.3,Win32,74.92881762,61416d1911219594f9a148ec,626b377229c10585ec392f8a,626b38fe4e7d9da64f0db350,,,,,,,,,,,,,,,,,,,,,,,l,0,"[""0.219"",""0.395"",""0.635"",""0.175""]","[1,1,1,0]",0,22,22,22,1,0,0,,,1,FALSE,1.3221,,,,,,,,,,,,,,,,,,,,,,,,,,,,,,
,61416d1911219594f9a148ec,001,2022-04-28_20h02.09.774,classification_task,2021.2.3,Win32,74.92881762,61416d1911219594f9a148ec,626b377229c10585ec392f8a,626b38fe4e7d9da64f0db350,,,,,,,,,,,,,,,,,,,,,,,l,1,"[""0.121"",""0.308"",""0.495"",""0.834""]","[1,1,1,0]",0,23,23,23,1,1,0,,,1,FALSE,0.5484,,,,,,,,,,,,,,,,,,,,,,,,,,,,,,
,61416d1911219594f9a148ec,001,2022-04-28_20h02.09.774,classification_task,2021.2.3,Win32,74.92881762,61416d1911219594f9a148ec,626b377229c10585ec392f8a,626b38fe4e7d9da64f0db350,,,,,,,,,,,,,,,,,,,,,,,a,0,"[""0.121"",""0.822"",""0.495"",""0.694""]","[1,0,1,1]",0,24,24,24,1,1,0,,,1,FALSE,1.0184,,,,,,,,,,,,,,,,,,,,,,,,,,,,,,
,61416d1911219594f9a148ec,001,2022-04-28_20h02.09.774,classification_task,2021.2.3,Win32,74.92881762,61416d1911219594f9a148ec,626b377229c10585ec392f8a,626b38fe4e7d9da64f0db350,,,,,,,,,,,,,,,,,,,,,,,l,1,"[""0.085"",""0.041"",""0.558"",""0.737""]","[1,0,1,1]",0,25,25,25,1,1,1,,,1,FALSE,1.3109,,,,,,,,,,,,,,,,,,,,,,,,,,,,,,
,61416d1911219594f9a148ec,001,2022-04-28_20h02.09.774,classification_task,2021.2.3,Win32,74.92881762,61416d1911219594f9a148ec,626b377229c10585ec392f8a,626b38fe4e7d9da64f0db350,,,,,,,,,,,,,,,,,,,,,,,a,0,"[""0.085"",""0.359"",""0.035"",""0.737""]","[1,1,0,1]",0,26,26,26,1,1,1,,,1,FALSE,1.3088,,,,,,,,,,,,,,,,,,,,,,,,,,,,,,
,61416d1911219594f9a148ec,001,2022-04-28_20h02.09.774,classification_task,2021.2.3,Win32,74.92881762,61416d1911219594f9a148ec,626b377229c10585ec392f8a,626b38fe4e7d9da64f0db350,,,,,,,,,,,,,,,,,,,,,,,a,1,"[""0.272"",""0.834"",""0.869"",""0.974""]","[1,0,1,1]",0,27,27,27,1,0,1,,,1,FALSE,1.5471,,,,,,,,,,,,,,,,,,,,,,,,,,,,,,
,61416d1911219594f9a148ec,001,2022-04-28_20h02.09.774,classification_task,2021.2.3,Win32,74.92881762,61416d1911219594f9a148ec,626b377229c10585ec392f8a,626b38fe4e7d9da64f0db350,,,,,,,,,,,,,,,,,,,,,,,l,0,"[""0.161"",""0.443"",""0.869"",""0.974""]","[0,1,1,1]",0,28,28,28,1,0,1,,,1,FALSE,1.2023,,,,,,,,,,,,,,,,,,,,,,,,,,,,,,
,61416d1911219594f9a148ec,001,2022-04-28_20h02.09.774,classification_task,2021.2.3,Win32,74.92881762,61416d1911219594f9a148ec,626b377229c10585ec392f8a,626b38fe4e7d9da64f0db350,,,,,,,,,,,,,,,,,,,,,,,a,1,"[""0.272"",""0.443"",""0.869"",""0.180""]","[1,1,1,0]",0,29,29,29,1,0,1,,,1,FALSE,1.5354,,,,,,,,,,,,,,,,,,,,,,,,,,,,,,
,61416d1911219594f9a148ec,001,2022-04-28_20h02.09.774,classification_task,2021.2.3,Win32,74.92881762,61416d1911219594f9a148ec,626b377229c10585ec392f8a,626b38fe4e7d9da64f0db350,,,,,,,,,,,,,,,,,,,,,,,a,1,"[""0.172"",""0.395"",""0.635"",""0.940""]","[0,1,1,1]",0,30,30,30,1,0,0,,,1,FALSE,2.8582,,,,,,,,,,,,,,,,,,,,,,,,,,,,,,
,61416d1911219594f9a148ec,001,2022-04-28_20h02.09.774,classification_task,2021.2.3,Win32,74.92881762,61416d1911219594f9a148ec,626b377229c10585ec392f8a,626b38fe4e7d9da64f0db350,,,,,,,,,,,,,,,,,,,,,,,l,0,"[""0.219"",""0.395"",""0.180"",""0.940""]","[1,1,0,1]",0,31,31,31,1,0,0,,,1,FALSE,1.7467,,,,,,,,,,,,,,,,,,,,,,,,,,,,,,
,61416d1911219594f9a148ec,001,2022-04-28_20h02.09.774,classification_task,2021.2.3,Win32,74.92881762,61416d1911219594f9a148ec,626b377229c10585ec392f8a,626b38fe4e7d9da64f0db350,,,,,,,,,,,,,,,,,,,,,,,l,0,"[""0.035"",""0.443"",""0.869"",""0.974""]","[0,1,1,1]",0,32,32,32,1,0,1,,,1,FALSE,2.4376,,,,,,,,,,,,,,,,,,,,,,,,,,,,,,
,61416d1911219594f9a148ec,001,2022-04-28_20h02.09.774,classification_task,2021.2.3,Win32,74.92881762,61416d1911219594f9a148ec,626b377229c10585ec392f8a,626b38fe4e7d9da64f0db350,,,,,,,,,,,,,,,,,,,,,,,l,1,"[""0.793"",""0.308"",""0.495"",""0.694""]","[0,1,1,1]",0,33,33,33,1,1,0,,,1,FALSE,1.1474,,,,,,,,,,,,,,,,,,,,,,,,,,,,,,
,61416d1911219594f9a148ec,001,2022-04-28_20h02.09.774,classification_task,2021.2.3,Win32,74.92881762,61416d1911219594f9a148ec,626b377229c10585ec392f8a,626b38fe4e7d9da64f0db350,,,,,,,,,,,,,,,,,,,,,,,a,1,"[""0.038"",""0.395"",""0.635"",""0.940""]","[0,1,1,1]",0,34,34,34,1,0,0,,,1,FALSE,2.5613,,,,,,,,,,,,,,,,,,,,,,,,,,,,,,
,61416d1911219594f9a148ec,001,2022-04-28_20h02.09.774,classification_task,2021.2.3,Win32,74.92881762,61416d1911219594f9a148ec,626b377229c10585ec392f8a,626b38fe4e7d9da64f0db350,,,,,,,,,,,,,,,,,,,,,,,l,1,"[""0.121"",""0.593"",""0.495"",""0.694""]","[1,0,1,1]",0,35,35,35,1,1,0,,,1,FALSE,3.296,,,,,,,,,,,,,,,,,,,,,,,,,,,,,,
,61416d1911219594f9a148ec,001,2022-04-28_20h02.09.774,classification_task,2021.2.3,Win32,74.92881762,61416d1911219594f9a148ec,626b377229c10585ec392f8a,626b38fe4e7d9da64f0db350,,,,,,,,,,,,,,,,,,,,,,,a,0,"[""0.161"",""0.359"",""0.558"",""0.737""]","[0,1,1,1]",0,36,36,36,1,1,1,,,1,FALSE,2.708,,,,,,,,,,,,,,,,,,,,,,,,,,,,,,
,61416d1911219594f9a148ec,001,2022-04-28_20h02.09.774,classification_task,2021.2.3,Win32,74.92881762,61416d1911219594f9a148ec,626b377229c10585ec392f8a,626b38fe4e7d9da64f0db350,,,,,,,,,,,,,,,,,,,,,,,l,0,"[""0.219"",""0.793"",""0.635"",""0.940""]","[1,0,1,1]",0,37,37,37,1,0,0,,,1,FALSE,2.1752,,,,,,,,,,,,,,,,,,,,,,,,,,,,,,
,61416d1911219594f9a148ec,001,2022-04-28_20h02.09.774,classification_task,2021.2.3,Win32,74.92881762,61416d1911219594f9a148ec,626b377229c10585ec392f8a,626b38fe4e7d9da64f0db350,,,,,,,,,,,,,,,,,,,,,,,l,0,"[""0.219"",""0.395"",""0.788"",""0.940""]","[1,1,0,1]",0,38,38,38,1,0,0,,,1,FALSE,0.3341,,,,,,,,,,,,,,,,,,,,,,,,,,,,,,
,61416d1911219594f9a148ec,001,2022-04-28_20h02.09.774,classification_task,2021.2.3,Win32,74.92881762,61416d1911219594f9a148ec,626b377229c10585ec392f8a,626b38fe4e7d9da64f0db350,,,,,,,,,,,,,,,,,,,,,,,l,1,"[""0.085"",""0.359"",""0.822"",""0.737""]","[1,1,0,1]",0,39,39,39,1,1,1,,,1,FALSE,0.3203,,,,,,,,,,,,,,,,,,,,,,,,,,,,,,
,61416d1911219594f9a148ec,001,2022-04-28_20h02.09.774,classification_task,2021.2.3,Win32,74.92881762,61416d1911219594f9a148ec,626b377229c10585ec392f8a,626b38fe4e7d9da64f0db350,,,,,,,,,,,,,,,,,,,,,,,l,0,"[""0.272"",""0.824"",""0.869"",""0.974""]","[1,0,1,1]",0,40,40,40,1,0,1,,,1,FALSE,2.9882,,,,,,,,,,,,,,,,,,,,,,,,,,,,,,
,61416d1911219594f9a148ec,001,2022-04-28_20h02.09.774,classification_task,2021.2.3,Win32,74.92881762,61416d1911219594f9a148ec,626b377229c10585ec392f8a,626b38fe4e7d9da64f0db350,,,,,,,,,,,,,,,,,,,,,,,a,0,"[""0.085"",""0.788"",""0.558"",""0.737""]","[1,0,1,1]",0,41,41,41,1,1,1,,,1,FALSE,0.6814,,,,,,,,,,,,,,,,,,,,,,,,,,,,,,
,61416d1911219594f9a148ec,001,2022-04-28_20h02.09.774,classification_task,2021.2.3,Win32,74.92881762,61416d1911219594f9a148ec,626b377229c10585ec392f8a,626b38fe4e7d9da64f0db350,,,,,,,,,,,,,,,,,,,,,,,a,1,"[""0.272"",""0.443"",""0.793"",""0.974""]","[1,1,0,1]",0,42,42,42,1,0,1,,,1,FALSE,0.5472,,,,,,,,,,,,,,,,,,,,,,,,,,,,,,
,61416d1911219594f9a148ec,001,2022-04-28_20h02.09.774,classification_task,2021.2.3,Win32,74.92881762,61416d1911219594f9a148ec,626b377229c10585ec392f8a,626b38fe4e7d9da64f0db350,,,,,,,,,,,,,,,,,,,,,,,a,0,"[""0.121"",""0.308"",""0.495"",""0.041""]","[1,1,1,0]",0,43,43,43,1,1,0,,,1,FALSE,3.4689,,,,,,,,,,,,,,,,,,,,,,,,,,,,,,
,61416d1911219594f9a148ec,001,2022-04-28_20h02.09.774,classification_task,2021.2.3,Win32,74.92881762,61416d1911219594f9a148ec,626b377229c10585ec392f8a,626b38fe4e7d9da64f0db350,,,,,,,,,,,,,,,,,,,,,,,l,0,"[""0.219"",""0.395"",""0.635"",""0.050""]","[1,1,1,0]",0,44,44,44,1,0,0,,,1,FALSE,0.2939,,,,,,,,,,,,,,,,,,,,,,,,,,,,,,
,61416d1911219594f9a148ec,001,2022-04-28_20h02.09.774,classification_task,2021.2.3,Win32,74.92881762,61416d1911219594f9a148ec,626b377229c10585ec392f8a,626b38fe4e7d9da64f0db350,,,,,,,,,,,,,,,,,,,,,,,l,0,"[""0.272"",""0.443"",""0.869"",""0.593""]","[1,1,1,0]",0,45,45,45,1,0,1,,,1,FALSE,0.2943,,,,,,,,,,,,,,,,,,,,,,,,,,,,,,
,61416d1911219594f9a148ec,001,2022-04-28_20h02.09.774,classification_task,2021.2.3,Win32,74.92881762,61416d1911219594f9a148ec,626b377229c10585ec392f8a,626b38fe4e7d9da64f0db350,,,,,,,,,,,,,,,,,,,,,,,l,1,"[""0.085"",""0.359"",""0.558"",""0.172""]","[1,1,1,0]",0,46,46,46,1,1,1,,,1,FALSE,1.6012,,,,,,,,,,,,,,,,,,,,,,,,,,,,,,
,61416d1911219594f9a148ec,001,2022-04-28_20h02.09.774,classification_task,2021.2.3,Win32,74.92881762,61416d1911219594f9a148ec,626b377229c10585ec392f8a,626b38fe4e7d9da64f0db350,,,,,,,,,,,,,,,,,,,,,,,l,1,"[""0.121"",""0.308"",""0.793"",""0.694""]","[1,1,0,1]",0,47,47,47,1,1,0,,,1,FALSE,2.0543,,,,,,,,,,,,,,,,,,,,,,,,,,,,,,
,61416d1911219594f9a148ec,001,2022-04-28_20h02.09.774,classification_task,2021.2.3,Win32,74.92881762,61416d1911219594f9a148ec,626b377229c10585ec392f8a,626b38fe4e7d9da64f0db350,,,,,,,,,,,,,,,,,,,,,,,a,1,"[""0.272"",""0.443"",""0.869"",""0.180""]","[1,1,1,0]",0,48,48,48,1,0,1,,,1,FALSE,6.2086,,,,,,,,,,,,,,,,,,,,,,,,,,,,,,
,61416d1911219594f9a148ec,001,2022-04-28_20h02.09.774,classification_task,2021.2.3,Win32,74.92881762,61416d1911219594f9a148ec,626b377229c10585ec392f8a,626b38fe4e7d9da64f0db350,,,,,,,,,,,,,,,,,,,,,,,a,0,"[""0.121"",""0.308"",""0.495"",""0.824""]","[1,1,1,0]",0,49,49,49,1,1,0,,,1,FALSE,3.0158,,,,,,,,,,,,,,,,,,,,,,,,,,,,,,
,61416d1911219594f9a148ec,001,2022-04-28_20h02.09.774,classification_task,2021.2.3,Win32,74.92881762,61416d1911219594f9a148ec,626b377229c10585ec392f8a,626b38fe4e7d9da64f0db350,,,,,,,,,,,,,,,,,,,,,,,a,0,"[""0.121"",""0.308"",""0.788"",""0.694""]","[1,1,0,1]",0,50,50,50,1,1,0,,,1,FALSE,0.6257,,,,,,,,,,,,,,,,,,,,,,,,,,,,,,
,61416d1911219594f9a148ec,001,2022-04-28_20h02.09.774,classification_task,2021.2.3,Win32,74.92881762,61416d1911219594f9a148ec,626b377229c10585ec392f8a,626b38fe4e7d9da64f0db350,,,,,,,,,,,,,,,,,,,,,,,a,1,"[""0.219"",""0.395"",""0.834"",""0.940""]","[1,1,0,1]",0,51,51,51,1,0,0,,,1,FALSE,0.6061,,,,,,,,,,,,,,,,,,,,,,,,,,,,,,
,61416d1911219594f9a148ec,001,2022-04-28_20h02.09.774,classification_task,2021.2.3,Win32,74.92881762,61416d1911219594f9a148ec,626b377229c10585ec392f8a,626b38fe4e7d9da64f0db350,,,,,,,,,,,,,,,,,,,,,,,l,1,"[""0.085"",""0.593"",""0.558"",""0.737""]","[1,0,1,1]",0,52,52,52,1,1,1,,,1,FALSE,2.8696,,,,,,,,,,,,,,,,,,,,,,,,,,,,,,
,61416d1911219594f9a148ec,001,2022-04-28_20h02.09.774,classification_task,2021.2.3,Win32,74.92881762,61416d1911219594f9a148ec,626b377229c10585ec392f8a,626b38fe4e7d9da64f0db350,,,,,,,,,,,,,,,,,,,,,,,l,1,"[""0.041"",""0.359"",""0.558"",""0.737""]","[0,1,1,1]",0,53,53,53,1,1,1,,,1,FALSE,2.853,,,,,,,,,,,,,,,,,,,,,,,,,,,,,,
,61416d1911219594f9a148ec,001,2022-04-28_20h02.09.774,classification_task,2021.2.3,Win32,74.92881762,61416d1911219594f9a148ec,626b377229c10585ec392f8a,626b38fe4e7d9da64f0db350,,,,,,,,,,,,,,,,,,,,,,,l,1,"[""0.035"",""0.308"",""0.495"",""0.694""]","[0,1,1,1]",0,54,54,54,1,1,0,,,1,FALSE,3.2531,,,,,,,,,,,,,,,,,,,,,,,,,,,,,,
,61416d1911219594f9a148ec,001,2022-04-28_20h02.09.774,classification_task,2021.2.3,Win32,74.92881762,61416d1911219594f9a148ec,626b377229c10585ec392f8a,626b38fe4e7d9da64f0db350,,,,,,,,,,,,,,,,,,,,,,,l,0,"[""0.272"",""0.186"",""0.869"",""0.974""]","[1,0,1,1]",0,55,55,55,1,0,1,,,1,FALSE,2.0268,,,,,,,,,,,,,,,,,,,,,,,,,,,,,,
,61416d1911219594f9a148ec,001,2022-04-28_20h02.09.774,classification_task,2021.2.3,Win32,74.92881762,61416d1911219594f9a148ec,626b377229c10585ec392f8a,626b38fe4e7d9da64f0db350,,,,,,,,,,,,,,,,,,,,,,,a,1,"[""0.219"",""0.172"",""0.635"",""0.940""]","[1,0,1,1]",0,56,56,56,1,0,0,,,1,FALSE,0.319,,,,,,,,,,,,,,,,,,,,,,,,,,,,,,
,61416d1911219594f9a148ec,001,2022-04-28_20h02.09.774,classification_task,2021.2.3,Win32,74.92881762,61416d1911219594f9a148ec,626b377229c10585ec392f8a,626b38fe4e7d9da64f0db350,,,,,,,,,,,,,,,,,,,,,,,l,0,"[""0.161"",""0.395"",""0.635"",""0.940""]","[0,1,1,1]",0,57,57,57,1,0,0,,,1,FALSE,3.4028,,,,,,,,,,,,,,,,,,,,,,,,,,,,,,
,61416d1911219594f9a148ec,001,2022-04-28_20h02.09.774,classification_task,2021.2.3,Win32,74.92881762,61416d1911219594f9a148ec,626b377229c10585ec392f8a,626b38fe4e7d9da64f0db350,,,,,,,,,,,,,,,,,,,,,,,a,1,"[""0.219"",""0.395"",""0.635"",""0.180""]","[1,1,1,0]",0,58,58,58,1,0,0,,,1,FALSE,2.2668,,,,,,,,,,,,,,,,,,,,,,,,,,,,,,
,61416d1911219594f9a148ec,001,2022-04-28_20h02.09.774,classification_task,2021.2.3,Win32,74.92881762,61416d1911219594f9a148ec,626b377229c10585ec392f8a,626b38fe4e7d9da64f0db350,,,,,,,,,,,,,,,,,,,,,,,a,0,"[""0.085"",""0.359"",""0.161"",""0.737""]","[1,1,0,1]",0,59,59,59,1,1,1,,,1,FALSE,1.6153,,,,,,,,,,,,,,,,,,,,,,,,,,,,,,
,61416d1911219594f9a148ec,001,2022-04-28_20h02.09.774,classification_task,2021.2.3,Win32,74.92881762,61416d1911219594f9a148ec,626b377229c10585ec392f8a,626b38fe4e7d9da64f0db350,,,,,,,,,,,,,,,,,,,,,,,l,0,"[""0.272"",""0.443"",""0.793"",""0.974""]","[1,1,0,1]",0,60,60,60,1,0,1,,,1,FALSE,0.6961,,,,,,,,,,,,,,,,,,,,,,,,,,,,,,
,61416d1911219594f9a148ec,001,2022-04-28_20h02.09.774,classification_task,2021.2.3,Win32,74.92881762,61416d1911219594f9a148ec,626b377229c10585ec392f8a,626b38fe4e7d9da64f0db350,,,,,,,,,,,,,,,,,,,,,,,l,1,"[""0.085"",""0.359"",""0.558"",""0.035""]","[1,1,1,0]",0,61,61,61,1,1,1,,,1,FALSE,0.4951,,,,,,,,,,,,,,,,,,,,,,,,,,,,,,
,61416d1911219594f9a148ec,001,2022-04-28_20h02.09.774,classification_task,2021.2.3,Win32,74.92881762,61416d1911219594f9a148ec,626b377229c10585ec392f8a,626b38fe4e7d9da64f0db350,,,,,,,,,,,,,,,,,,,,,,,a,0,"[""0.121"",""0.593"",""0.495"",""0.694""]","[1,0,1,1]",0,62,62,62,1,1,0,,,1,FALSE,0.6686,,,,,,,,,,,,,,,,,,,,,,,,,,,,,,
,61416d1911219594f9a148ec,001,2022-04-28_20h02.09.774,classification_task,2021.2.3,Win32,74.92881762,61416d1911219594f9a148ec,626b377229c10585ec392f8a,626b38fe4e7d9da64f0db350,,,,,,,,,,,,,,,,,,,,,,,a,1,"[""0.186"",""0.443"",""0.869"",""0.974""]","[0,1,1,1]",0,63,63,63,1,0,1,,,1,FALSE,0.7233,,,,,,,,,,,,,,,,,,,,,,,,,,,,,,
,61416d1911219594f9a148ec,001,2022-04-28_20h02.09.774,classification_task,2021.2.3,Win32,74.92881762,61416d1911219594f9a148ec,626b377229c10585ec392f8a,626b38fe4e7d9da64f0db350,,,,,,,,,,,,,,,,,,,,,,,,,,,,,,,,,,,,,,,0, ,,0,,,0,1,1,1,1,2,2,,,,,,,,,,,,,,,,,
,61416d1911219594f9a148ec,001,2022-04-28_20h02.09.774,classification_task,2021.2.3,Win32,74.92881762,61416d1911219594f9a148ec,626b377229c10585ec392f8a,626b38fe4e7d9da64f0db350,,,,,,,,,,,,,,,,,,,,,,,,,,,,,,,,,,,,,,,1,  ,,0,,,0,1,1,1,1,2,2,,,,,,,,,,,,,,,,,
,61416d1911219594f9a148ec,001,2022-04-28_20h02.09.774,classification_task,2021.2.3,Win32,74.92881762,61416d1911219594f9a148ec,626b377229c10585ec392f8a,626b38fe4e7d9da64f0db350,,,,,,,,,,,,,,,,,,,,,,,,,,,,,,,,,,,,,,,2,  ,,0,,,0,1,1,1,1,2,2,,,,,,,,,,,,,,,,,
,61416d1911219594f9a148ec,001,2022-04-28_20h02.09.774,classification_task,2021.2.3,Win32,74.92881762,61416d1911219594f9a148ec,626b377229c10585ec392f8a,626b38fe4e7d9da64f0db350,,,,,,,,,,,,,,,,,,,,,,,,,,,,,,,,,,,,,,,,,,,,,0,1,1,1,1,,2,,,,,,,,,,,,,,,,,
,61416d1911219594f9a148ec,001,2022-04-28_20h02.09.774,classification_task,2021.2.3,Win32,74.92881762,61416d1911219594f9a148ec,626b377229c10585ec392f8a,626b38fe4e7d9da64f0db350,,,,,,,,,,,,,,,,,,,,,space,3.0676,l,1,"[""0.085"",""0.359"",""0.180"",""0.737""]","[1,1,0,1]",0,0,0,0,1,1,1,,,1,FALSE,2.0117,,,,,,,,,,,,,,,,,,,,,,,,,,,,,,
,61416d1911219594f9a148ec,001,2022-04-28_20h02.09.774,classification_task,2021.2.3,Win32,74.92881762,61416d1911219594f9a148ec,626b377229c10585ec392f8a,626b38fe4e7d9da64f0db350,,,,,,,,,,,,,,,,,,,,,,,a,0,"[""0.050"",""0.308"",""0.495"",""0.694""]","[0,1,1,1]",0,1,1,1,1,1,0,,,1,FALSE,1.9755,,,,,,,,,,,,,,,,,,,,,,,,,,,,,,
,61416d1911219594f9a148ec,001,2022-04-28_20h02.09.774,classification_task,2021.2.3,Win32,74.92881762,61416d1911219594f9a148ec,626b377229c10585ec392f8a,626b38fe4e7d9da64f0db350,,,,,,,,,,,,,,,,,,,,,,,a,1,"[""0.219"",""0.395"",""0.635"",""0.822""]","[1,1,1,0]",0,2,2,2,1,0,0,,,1,FALSE,1.5366,,,,,,,,,,,,,,,,,,,,,,,,,,,,,,
,61416d1911219594f9a148ec,001,2022-04-28_20h02.09.774,classification_task,2021.2.3,Win32,74.92881762,61416d1911219594f9a148ec,626b377229c10585ec392f8a,626b38fe4e7d9da64f0db350,,,,,,,,,,,,,,,,,,,,,,,l,0,"[""0.219"",""0.395"",""0.035"",""0.940""]","[1,1,0,1]",0,3,3,3,1,0,0,,,1,FALSE,1.9488,,,,,,,,,,,,,,,,,,,,,,,,,,,,,,
,61416d1911219594f9a148ec,001,2022-04-28_20h02.09.774,classification_task,2021.2.3,Win32,74.92881762,61416d1911219594f9a148ec,626b377229c10585ec392f8a,626b38fe4e7d9da64f0db350,,,,,,,,,,,,,,,,,,,,,,,l,1,"[""0.121"",""0.308"",""0.495"",""0.038""]","[1,1,1,0]",0,4,4,4,1,1,0,,,1,FALSE,1.6069,,,,,,,,,,,,,,,,,,,,,,,,,,,,,,
,61416d1911219594f9a148ec,001,2022-04-28_20h02.09.774,classification_task,2021.2.3,Win32,74.92881762,61416d1911219594f9a148ec,626b377229c10585ec392f8a,626b38fe4e7d9da64f0db350,,,,,,,,,,,,,,,,,,,,,,,a,1,"[""0.272"",""0.443"",""0.869"",""0.175""]","[1,1,1,0]",0,5,5,5,1,0,1,,,1,FALSE,0.893,,,,,,,,,,,,,,,,,,,,,,,,,,,,,,
,61416d1911219594f9a148ec,001,2022-04-28_20h02.09.774,classification_task,2021.2.3,Win32,74.92881762,61416d1911219594f9a148ec,626b377229c10585ec392f8a,626b38fe4e7d9da64f0db350,,,,,,,,,,,,,,,,,,,,,,,l,1,"[""0.834"",""0.359"",""0.558"",""0.737""]","[0,1,1,1]",0,6,6,6,1,1,1,,,1,FALSE,0.7752,,,,,,,,,,,,,,,,,,,,,,,,,,,,,,
,61416d1911219594f9a148ec,001,2022-04-28_20h02.09.774,classification_task,2021.2.3,Win32,74.92881762,61416d1911219594f9a148ec,626b377229c10585ec392f8a,626b38fe4e7d9da64f0db350,,,,,,,,,,,,,,,,,,,,,,,a,1,"[""0.041"",""0.395"",""0.635"",""0.940""]","[0,1,1,1]",0,7,7,7,1,0,0,,,1,FALSE,1.3622,,,,,,,,,,,,,,,,,,,,,,,,,,,,,,
,61416d1911219594f9a148ec,001,2022-04-28_20h02.09.774,classification_task,2021.2.3,Win32,74.92881762,61416d1911219594f9a148ec,626b377229c10585ec392f8a,626b38fe4e7d9da64f0db350,,,,,,,,,,,,,,,,,,,,,,,l,0,"[""0.272"",""0.443"",""0.176"",""0.974""]","[1,1,0,1]",0,8,8,8,1,0,1,,,1,FALSE,1.3389,,,,,,,,,,,,,,,,,,,,,,,,,,,,,,
,61416d1911219594f9a148ec,001,2022-04-28_20h02.09.774,classification_task,2021.2.3,Win32,74.92881762,61416d1911219594f9a148ec,626b377229c10585ec392f8a,626b38fe4e7d9da64f0db350,,,,,,,,,,,,,,,,,,,,,,,l,0,"[""0.272"",""0.050"",""0.869"",""0.974""]","[1,0,1,1]",0,9,9,9,1,0,1,,,1,FALSE,1.1891,,,,,,,,,,,,,,,,,,,,,,,,,,,,,,
,61416d1911219594f9a148ec,001,2022-04-28_20h02.09.774,classification_task,2021.2.3,Win32,74.92881762,61416d1911219594f9a148ec,626b377229c10585ec392f8a,626b38fe4e7d9da64f0db350,,,,,,,,,,,,,,,,,,,,,,,a,1,"[""0.219"",""0.176"",""0.635"",""0.940""]","[1,0,1,1]",0,10,10,10,1,0,0,,,1,FALSE,0.5217,,,,,,,,,,,,,,,,,,,,,,,,,,,,,,
,61416d1911219594f9a148ec,001,2022-04-28_20h02.09.774,classification_task,2021.2.3,Win32,74.92881762,61416d1911219594f9a148ec,626b377229c10585ec392f8a,626b38fe4e7d9da64f0db350,,,,,,,,,,,,,,,,,,,,,,,l,1,"[""0.085"",""0.593"",""0.558"",""0.737""]","[1,0,1,1]",0,11,11,11,1,1,1,,,1,FALSE,0.4153,,,,,,,,,,,,,,,,,,,,,,,,,,,,,,
,61416d1911219594f9a148ec,001,2022-04-28_20h02.09.774,classification_task,2021.2.3,Win32,74.92881762,61416d1911219594f9a148ec,626b377229c10585ec392f8a,626b38fe4e7d9da64f0db350,,,,,,,,,,,,,,,,,,,,,,,l,1,"[""0.121"",""0.035"",""0.495"",""0.694""]","[1,0,1,1]",0,12,12,12,1,1,0,,,1,FALSE,0.9651,,,,,,,,,,,,,,,,,,,,,,,,,,,,,,
,61416d1911219594f9a148ec,001,2022-04-28_20h02.09.774,classification_task,2021.2.3,Win32,74.92881762,61416d1911219594f9a148ec,626b377229c10585ec392f8a,626b38fe4e7d9da64f0db350,,,,,,,,,,,,,,,,,,,,,,,l,0,"[""0.824"",""0.443"",""0.869"",""0.974""]","[0,1,1,1]",0,13,13,13,1,0,1,,,1,FALSE,1.8293,,,,,,,,,,,,,,,,,,,,,,,,,,,,,,
,61416d1911219594f9a148ec,001,2022-04-28_20h02.09.774,classification_task,2021.2.3,Win32,74.92881762,61416d1911219594f9a148ec,626b377229c10585ec392f8a,626b38fe4e7d9da64f0db350,,,,,,,,,,,,,,,,,,,,,,,a,0,"[""0.121"",""0.308"",""0.050"",""0.694""]","[1,1,0,1]",0,14,14,14,1,1,0,,,1,FALSE,1.1486,,,,,,,,,,,,,,,,,,,,,,,,,,,,,,
,61416d1911219594f9a148ec,001,2022-04-28_20h02.09.774,classification_task,2021.2.3,Win32,74.92881762,61416d1911219594f9a148ec,626b377229c10585ec392f8a,626b38fe4e7d9da64f0db350,,,,,,,,,,,,,,,,,,,,,,,l,1,"[""0.085"",""0.359"",""0.558"",""0.822""]","[1,1,1,0]",0,15,15,15,1,1,1,,,1,FALSE,0.7351,,,,,,,,,,,,,,,,,,,,,,,,,,,,,,
,61416d1911219594f9a148ec,001,2022-04-28_20h02.09.774,classification_task,2021.2.3,Win32,74.92881762,61416d1911219594f9a148ec,626b377229c10585ec392f8a,626b38fe4e7d9da64f0db350,,,,,,,,,,,,,,,,,,,,,,,l,0,"[""0.822"",""0.395"",""0.635"",""0.940""]","[0,1,1,1]",0,16,16,16,1,0,0,,,1,FALSE,1.2873,,,,,,,,,,,,,,,,,,,,,,,,,,,,,,
,61416d1911219594f9a148ec,001,2022-04-28_20h02.09.774,classification_task,2021.2.3,Win32,74.92881762,61416d1911219594f9a148ec,626b377229c10585ec392f8a,626b38fe4e7d9da64f0db350,,,,,,,,,,,,,,,,,,,,,,,l,1,"[""0.121"",""0.308"",""0.495"",""0.788""]","[1,1,1,0]",0,17,17,17,1,1,0,,,1,FALSE,0.8536,,,,,,,,,,,,,,,,,,,,,,,,,,,,,,
,61416d1911219594f9a148ec,001,2022-04-28_20h02.09.774,classification_task,2021.2.3,Win32,74.92881762,61416d1911219594f9a148ec,626b377229c10585ec392f8a,626b38fe4e7d9da64f0db350,,,,,,,,,,,,,,,,,,,,,,,a,0,"[""0.085"",""0.175"",""0.558"",""0.737""]","[1,0,1,1]",0,18,18,18,1,1,1,,,1,FALSE,0.987,,,,,,,,,,,,,,,,,,,,,,,,,,,,,,
,61416d1911219594f9a148ec,001,2022-04-28_20h02.09.774,classification_task,2021.2.3,Win32,74.92881762,61416d1911219594f9a148ec,626b377229c10585ec392f8a,626b38fe4e7d9da64f0db350,,,,,,,,,,,,,,,,,,,,,,,l,0,"[""0.272"",""0.443"",""0.175"",""0.974""]","[1,1,0,1]",0,19,19,19,1,0,1,,,1,FALSE,0.8138,,,,,,,,,,,,,,,,,,,,,,,,,,,,,,
,61416d1911219594f9a148ec,001,2022-04-28_20h02.09.774,classification_task,2021.2.3,Win32,74.92881762,61416d1911219594f9a148ec,626b377229c10585ec392f8a,626b38fe4e7d9da64f0db350,,,,,,,,,,,,,,,,,,,,,,,l,1,"[""0.121"",""0.308"",""0.050"",""0.694""]","[1,1,0,1]",0,20,20,20,1,1,0,,,1,FALSE,0.7893,,,,,,,,,,,,,,,,,,,,,,,,,,,,,,
,61416d1911219594f9a148ec,001,2022-04-28_20h02.09.774,classification_task,2021.2.3,Win32,74.92881762,61416d1911219594f9a148ec,626b377229c10585ec392f8a,626b38fe4e7d9da64f0db350,,,,,,,,,,,,,,,,,,,,,,,a,1,"[""0.219"",""0.035"",""0.635"",""0.940""]","[1,0,1,1]",0,21,21,21,1,0,0,,,1,FALSE,0.7203,,,,,,,,,,,,,,,,,,,,,,,,,,,,,,
,61416d1911219594f9a148ec,001,2022-04-28_20h02.09.774,classification_task,2021.2.3,Win32,74.92881762,61416d1911219594f9a148ec,626b377229c10585ec392f8a,626b38fe4e7d9da64f0db350,,,,,,,,,,,,,,,,,,,,,,,l,1,"[""0.085"",""0.359"",""0.180"",""0.737""]","[1,1,0,1]",0,22,22,22,1,1,1,,,1,FALSE,1.1336,,,,,,,,,,,,,,,,,,,,,,,,,,,,,,
,61416d1911219594f9a148ec,001,2022-04-28_20h02.09.774,classification_task,2021.2.3,Win32,74.92881762,61416d1911219594f9a148ec,626b377229c10585ec392f8a,626b38fe4e7d9da64f0db350,,,,,,,,,,,,,,,,,,,,,,,l,1,"[""0.121"",""0.041"",""0.495"",""0.694""]","[1,0,1,1]",0,23,23,23,1,1,0,,,1,FALSE,0.8407,,,,,,,,,,,,,,,,,,,,,,,,,,,,,,
,61416d1911219594f9a148ec,001,2022-04-28_20h02.09.774,classification_task,2021.2.3,Win32,74.92881762,61416d1911219594f9a148ec,626b377229c10585ec392f8a,626b38fe4e7d9da64f0db350,,,,,,,,,,,,,,,,,,,,,,,l,0,"[""0.272"",""0.038"",""0.869"",""0.974""]","[1,0,1,1]",0,24,24,24,1,0,1,,,1,FALSE,0.7605,,,,,,,,,,,,,,,,,,,,,,,,,,,,,,
,61416d1911219594f9a148ec,001,2022-04-28_20h02.09.774,classification_task,2021.2.3,Win32,74.92881762,61416d1911219594f9a148ec,626b377229c10585ec392f8a,626b38fe4e7d9da64f0db350,,,,,,,,,,,,,,,,,,,,,,,l,1,"[""0.085"",""0.359"",""0.558"",""0.822""]","[1,1,1,0]",0,25,25,25,1,1,1,,,1,FALSE,1.214,,,,,,,,,,,,,,,,,,,,,,,,,,,,,,
,61416d1911219594f9a148ec,001,2022-04-28_20h02.09.774,classification_task,2021.2.3,Win32,74.92881762,61416d1911219594f9a148ec,626b377229c10585ec392f8a,626b38fe4e7d9da64f0db350,,,,,,,,,,,,,,,,,,,,,,,a,1,"[""0.219"",""0.395"",""0.038"",""0.940""]","[1,1,0,1]",0,26,26,26,1,0,0,,,1,FALSE,1.1607,,,,,,,,,,,,,,,,,,,,,,,,,,,,,,
,61416d1911219594f9a148ec,001,2022-04-28_20h02.09.774,classification_task,2021.2.3,Win32,74.92881762,61416d1911219594f9a148ec,626b377229c10585ec392f8a,626b38fe4e7d9da64f0db350,,,,,,,,,,,,,,,,,,,,,,,l,1,"[""0.172"",""0.359"",""0.558"",""0.737""]","[0,1,1,1]",0,27,27,27,1,1,1,,,1,FALSE,1.3076,,,,,,,,,,,,,,,,,,,,,,,,,,,,,,
,61416d1911219594f9a148ec,001,2022-04-28_20h02.09.774,classification_task,2021.2.3,Win32,74.92881762,61416d1911219594f9a148ec,626b377229c10585ec392f8a,626b38fe4e7d9da64f0db350,,,,,,,,,,,,,,,,,,,,,,,l,0,"[""0.161"",""0.443"",""0.869"",""0.974""]","[0,1,1,1]",0,28,28,28,1,0,1,,,1,FALSE,1.361,,,,,,,,,,,,,,,,,,,,,,,,,,,,,,
,61416d1911219594f9a148ec,001,2022-04-28_20h02.09.774,classification_task,2021.2.3,Win32,74.92881762,61416d1911219594f9a148ec,626b377229c10585ec392f8a,626b38fe4e7d9da64f0db350,,,,,,,,,,,,,,,,,,,,,,,l,0,"[""0.219"",""0.395"",""0.635"",""0.186""]","[1,1,1,0]",0,29,29,29,1,0,0,,,1,FALSE,1.508,,,,,,,,,,,,,,,,,,,,,,,,,,,,,,
,61416d1911219594f9a148ec,001,2022-04-28_20h02.09.774,classification_task,2021.2.3,Win32,74.92881762,61416d1911219594f9a148ec,626b377229c10585ec392f8a,626b38fe4e7d9da64f0db350,,,,,,,,,,,,,,,,,,,,,,,a,0,"[""0.834"",""0.308"",""0.495"",""0.694""]","[0,1,1,1]",0,30,30,30,1,1,0,,,1,FALSE,0.7743,,,,,,,,,,,,,,,,,,,,,,,,,,,,,,
,61416d1911219594f9a148ec,001,2022-04-28_20h02.09.774,classification_task,2021.2.3,Win32,74.92881762,61416d1911219594f9a148ec,626b377229c10585ec392f8a,626b38fe4e7d9da64f0db350,,,,,,,,,,,,,,,,,,,,,,,a,1,"[""0.272"",""0.443"",""0.869"",""0.593""]","[1,1,1,0]",0,31,31,31,1,0,1,,,1,FALSE,1.0938,,,,,,,,,,,,,,,,,,,,,,,,,,,,,,
,61416d1911219594f9a148ec,001,2022-04-28_20h02.09.774,classification_task,2021.2.3,Win32,74.92881762,61416d1911219594f9a148ec,626b377229c10585ec392f8a,626b38fe4e7d9da64f0db350,,,,,,,,,,,,,,,,,,,,,,,l,0,"[""0.175"",""0.395"",""0.635"",""0.940""]","[0,1,1,1]",0,32,32,32,1,0,0,,,1,FALSE,0.6275,,,,,,,,,,,,,,,,,,,,,,,,,,,,,,
,61416d1911219594f9a148ec,001,2022-04-28_20h02.09.774,classification_task,2021.2.3,Win32,74.92881762,61416d1911219594f9a148ec,626b377229c10585ec392f8a,626b38fe4e7d9da64f0db350,,,,,,,,,,,,,,,,,,,,,,,a,1,"[""0.272"",""0.443"",""0.869"",""0.172""]","[1,1,1,0]",0,33,33,33,1,0,1,,,1,FALSE,1.1872,,,,,,,,,,,,,,,,,,,,,,,,,,,,,,
,61416d1911219594f9a148ec,001,2022-04-28_20h02.09.774,classification_task,2021.2.3,Win32,74.92881762,61416d1911219594f9a148ec,626b377229c10585ec392f8a,626b38fe4e7d9da64f0db350,,,,,,,,,,,,,,,,,,,,,,,a,1,"[""0.219"",""0.822"",""0.635"",""0.940""]","[1,0,1,1]",0,34,34,34,1,0,0,,,1,FALSE,1.0801,,,,,,,,,,,,,,,,,,,,,,,,,,,,,,
,61416d1911219594f9a148ec,001,2022-04-28_20h02.09.774,classification_task,2021.2.3,Win32,74.92881762,61416d1911219594f9a148ec,626b377229c10585ec392f8a,626b38fe4e7d9da64f0db350,,,,,,,,,,,,,,,,,,,,,,,l,1,"[""0.121"",""0.308"",""0.495"",""0.593""]","[1,1,1,0]",0,35,35,35,1,1,0,,,1,FALSE,0.9341,,,,,,,,,,,,,,,,,,,,,,,,,,,,,,
,61416d1911219594f9a148ec,001,2022-04-28_20h02.09.774,classification_task,2021.2.3,Win32,74.92881762,61416d1911219594f9a148ec,626b377229c10585ec392f8a,626b38fe4e7d9da64f0db350,,,,,,,,,,,,,,,,,,,,,,,l,0,"[""0.219"",""0.395"",""0.635"",""0.834""]","[1,1,1,0]",0,36,36,36,1,0,0,,,1,FALSE,0.9738,,,,,,,,,,,,,,,,,,,,,,,,,,,,,,
,61416d1911219594f9a148ec,001,2022-04-28_20h02.09.774,classification_task,2021.2.3,Win32,74.92881762,61416d1911219594f9a148ec,626b377229c10585ec392f8a,626b38fe4e7d9da64f0db350,,,,,,,,,,,,,,,,,,,,,,,l,0,"[""0.272"",""0.443"",""0.824"",""0.974""]","[1,1,0,1]",0,37,37,37,1,0,1,,,1,FALSE,0.467,,,,,,,,,,,,,,,,,,,,,,,,,,,,,,
,61416d1911219594f9a148ec,001,2022-04-28_20h02.09.774,classification_task,2021.2.3,Win32,74.92881762,61416d1911219594f9a148ec,626b377229c10585ec392f8a,626b38fe4e7d9da64f0db350,,,,,,,,,,,,,,,,,,,,,,,l,0,"[""0.219"",""0.395"",""0.176"",""0.940""]","[1,1,0,1]",0,38,38,38,1,0,0,,,1,FALSE,0.4402,,,,,,,,,,,,,,,,,,,,,,,,,,,,,,
,61416d1911219594f9a148ec,001,2022-04-28_20h02.09.774,classification_task,2021.2.3,Win32,74.92881762,61416d1911219594f9a148ec,626b377229c10585ec392f8a,626b38fe4e7d9da64f0db350,,,,,,,,,,,,,,,,,,,,,,,l,1,"[""0.121"",""0.308"",""0.793"",""0.694""]","[1,1,0,1]",0,39,39,39,1,1,0,,,1,FALSE,1.2406,,,,,,,,,,,,,,,,,,,,,,,,,,,,,,
,61416d1911219594f9a148ec,001,2022-04-28_20h02.09.774,classification_task,2021.2.3,Win32,74.92881762,61416d1911219594f9a148ec,626b377229c10585ec392f8a,626b38fe4e7d9da64f0db350,,,,,,,,,,,,,,,,,,,,,,,l,1,"[""0.085"",""0.359"",""0.824"",""0.737""]","[1,1,0,1]",0,40,40,40,1,1,1,,,1,FALSE,0.5346,,,,,,,,,,,,,,,,,,,,,,,,,,,,,,
,61416d1911219594f9a148ec,001,2022-04-28_20h02.09.774,classification_task,2021.2.3,Win32,74.92881762,61416d1911219594f9a148ec,626b377229c10585ec392f8a,626b38fe4e7d9da64f0db350,,,,,,,,,,,,,,,,,,,,,,,l,0,"[""0.161"",""0.443"",""0.869"",""0.974""]","[0,1,1,1]",0,41,41,41,1,0,1,,,1,FALSE,0.8009,,,,,,,,,,,,,,,,,,,,,,,,,,,,,,
,61416d1911219594f9a148ec,001,2022-04-28_20h02.09.774,classification_task,2021.2.3,Win32,74.92881762,61416d1911219594f9a148ec,626b377229c10585ec392f8a,626b38fe4e7d9da64f0db350,,,,,,,,,,,,,,,,,,,,,,,l,1,"[""0.041"",""0.308"",""0.495"",""0.694""]","[0,1,1,1]",0,42,42,42,1,1,0,,,1,FALSE,0.8539,,,,,,,,,,,,,,,,,,,,,,,,,,,,,,
,61416d1911219594f9a148ec,001,2022-04-28_20h02.09.774,classification_task,2021.2.3,Win32,74.92881762,61416d1911219594f9a148ec,626b377229c10585ec392f8a,626b38fe4e7d9da64f0db350,,,,,,,,,,,,,,,,,,,,,,,l,1,"[""0.822"",""0.359"",""0.558"",""0.737""]","[0,1,1,1]",0,43,43,43,1,1,1,,,1,FALSE,0.5068,,,,,,,,,,,,,,,,,,,,,,,,,,,,,,
,61416d1911219594f9a148ec,001,2022-04-28_20h02.09.774,classification_task,2021.2.3,Win32,74.92881762,61416d1911219594f9a148ec,626b377229c10585ec392f8a,626b38fe4e7d9da64f0db350,,,,,,,,,,,,,,,,,,,,,,,l,1,"[""0.085"",""0.038"",""0.558"",""0.737""]","[1,0,1,1]",0,44,44,44,1,1,1,,,1,FALSE,1.6945,,,,,,,,,,,,,,,,,,,,,,,,,,,,,,
,61416d1911219594f9a148ec,001,2022-04-28_20h02.09.774,classification_task,2021.2.3,Win32,74.92881762,61416d1911219594f9a148ec,626b377229c10585ec392f8a,626b38fe4e7d9da64f0db350,,,,,,,,,,,,,,,,,,,,,,,l,1,"[""0.085"",""0.359"",""0.558"",""0.186""]","[1,1,1,0]",0,45,45,45,1,1,1,,,1,FALSE,0.614,,,,,,,,,,,,,,,,,,,,,,,,,,,,,,
,61416d1911219594f9a148ec,001,2022-04-28_20h02.09.774,classification_task,2021.2.3,Win32,74.92881762,61416d1911219594f9a148ec,626b377229c10585ec392f8a,626b38fe4e7d9da64f0db350,,,,,,,,,,,,,,,,,,,,,,,a,0,"[""0.121"",""0.172"",""0.495"",""0.694""]","[1,0,1,1]",0,46,46,46,1,1,0,,,1,FALSE,0.4413,,,,,,,,,,,,,,,,,,,,,,,,,,,,,,
,61416d1911219594f9a148ec,001,2022-04-28_20h02.09.774,classification_task,2021.2.3,Win32,74.92881762,61416d1911219594f9a148ec,626b377229c10585ec392f8a,626b38fe4e7d9da64f0db350,,,,,,,,,,,,,,,,,,,,,,,a,1,"[""0.272"",""0.050"",""0.869"",""0.974""]","[1,0,1,1]",0,47,47,47,1,0,1,,,1,FALSE,0.9347,,,,,,,,,,,,,,,,,,,,,,,,,,,,,,
,61416d1911219594f9a148ec,001,2022-04-28_20h02.09.774,classification_task,2021.2.3,Win32,74.92881762,61416d1911219594f9a148ec,626b377229c10585ec392f8a,626b38fe4e7d9da64f0db350,,,,,,,,,,,,,,,,,,,,,,,a,1,"[""0.219"",""0.395"",""0.635"",""0.035""]","[1,1,1,0]",0,48,48,48,1,0,0,,,1,FALSE,0.9202,,,,,,,,,,,,,,,,,,,,,,,,,,,,,,
,61416d1911219594f9a148ec,001,2022-04-28_20h02.09.774,classification_task,2021.2.3,Win32,74.92881762,61416d1911219594f9a148ec,626b377229c10585ec392f8a,626b38fe4e7d9da64f0db350,,,,,,,,,,,,,,,,,,,,,,,l,0,"[""0.272"",""0.443"",""0.869"",""0.186""]","[1,1,1,0]",0,49,49,49,1,0,1,,,1,FALSE,1.1339,,,,,,,,,,,,,,,,,,,,,,,,,,,,,,
,61416d1911219594f9a148ec,001,2022-04-28_20h02.09.774,classification_task,2021.2.3,Win32,74.92881762,61416d1911219594f9a148ec,626b377229c10585ec392f8a,626b38fe4e7d9da64f0db350,,,,,,,,,,,,,,,,,,,,,,,l,1,"[""0.121"",""0.308"",""0.495"",""0.161""]","[1,1,1,0]",0,50,50,50,1,1,0,,,1,FALSE,1.0803,,,,,,,,,,,,,,,,,,,,,,,,,,,,,,
,61416d1911219594f9a148ec,001,2022-04-28_20h02.09.774,classification_task,2021.2.3,Win32,74.92881762,61416d1911219594f9a148ec,626b377229c10585ec392f8a,626b38fe4e7d9da64f0db350,,,,,,,,,,,,,,,,,,,,,,,l,0,"[""0.219"",""0.395"",""0.186"",""0.940""]","[1,1,0,1]",0,51,51,51,1,0,0,,,1,FALSE,1.2012,,,,,,,,,,,,,,,,,,,,,,,,,,,,,,
,61416d1911219594f9a148ec,001,2022-04-28_20h02.09.774,classification_task,2021.2.3,Win32,74.92881762,61416d1911219594f9a148ec,626b377229c10585ec392f8a,626b38fe4e7d9da64f0db350,,,,,,,,,,,,,,,,,,,,,,,a,0,"[""0.121"",""0.308"",""0.788"",""0.694""]","[1,1,0,1]",0,52,52,52,1,1,0,,,1,FALSE,0.7341,,,,,,,,,,,,,,,,,,,,,,,,,,,,,,
,61416d1911219594f9a148ec,001,2022-04-28_20h02.09.774,classification_task,2021.2.3,Win32,74.92881762,61416d1911219594f9a148ec,626b377229c10585ec392f8a,626b38fe4e7d9da64f0db350,,,,,,,,,,,,,,,,,,,,,,,a,0,"[""0.085"",""0.359"",""0.558"",""0.175""]","[1,1,1,0]",0,53,53,53,1,1,1,,,1,FALSE,0.9878,,,,,,,,,,,,,,,,,,,,,,,,,,,,,,
,61416d1911219594f9a148ec,001,2022-04-28_20h02.09.774,classification_task,2021.2.3,Win32,74.92881762,61416d1911219594f9a148ec,626b377229c10585ec392f8a,626b38fe4e7d9da64f0db350,,,,,,,,,,,,,,,,,,,,,,,l,1,"[""0.085"",""0.172"",""0.558"",""0.737""]","[1,0,1,1]",0,54,54,54,1,1,1,,,1,FALSE,0.8147,,,,,,,,,,,,,,,,,,,,,,,,,,,,,,
,61416d1911219594f9a148ec,001,2022-04-28_20h02.09.774,classification_task,2021.2.3,Win32,74.92881762,61416d1911219594f9a148ec,626b377229c10585ec392f8a,626b38fe4e7d9da64f0db350,,,,,,,,,,,,,,,,,,,,,,,l,0,"[""0.593"",""0.395"",""0.635"",""0.940""]","[0,1,1,1]",0,55,55,55,1,0,0,,,1,FALSE,1.3208,,,,,,,,,,,,,,,,,,,,,,,,,,,,,,
,61416d1911219594f9a148ec,001,2022-04-28_20h02.09.774,classification_task,2021.2.3,Win32,74.92881762,61416d1911219594f9a148ec,626b377229c10585ec392f8a,626b38fe4e7d9da64f0db350,,,,,,,,,,,,,,,,,,,,,,,l,1,"[""0.085"",""0.359"",""0.834"",""0.737""]","[1,1,0,1]",0,56,56,56,1,1,1,,,1,FALSE,1.4142,,,,,,,,,,,,,,,,,,,,,,,,,,,,,,
,61416d1911219594f9a148ec,001,2022-04-28_20h02.09.774,classification_task,2021.2.3,Win32,74.92881762,61416d1911219594f9a148ec,626b377229c10585ec392f8a,626b38fe4e7d9da64f0db350,,,,,,,,,,,,,,,,,,,,,,,a,0,"[""0.121"",""0.186"",""0.495"",""0.694""]","[1,0,1,1]",0,57,57,57,1,1,0,,,1,FALSE,0.9337,,,,,,,,,,,,,,,,,,,,,,,,,,,,,,
,61416d1911219594f9a148ec,001,2022-04-28_20h02.09.774,classification_task,2021.2.3,Win32,74.92881762,61416d1911219594f9a148ec,626b377229c10585ec392f8a,626b38fe4e7d9da64f0db350,,,,,,,,,,,,,,,,,,,,,,,a,0,"[""0.186"",""0.359"",""0.558"",""0.737""]","[0,1,1,1]",0,58,58,58,1,1,1,,,1,FALSE,0.8415,,,,,,,,,,,,,,,,,,,,,,,,,,,,,,
,61416d1911219594f9a148ec,001,2022-04-28_20h02.09.774,classification_task,2021.2.3,Win32,74.92881762,61416d1911219594f9a148ec,626b377229c10585ec392f8a,626b38fe4e7d9da64f0db350,,,,,,,,,,,,,,,,,,,,,,,l,1,"[""0.593"",""0.308"",""0.495"",""0.694""]","[0,1,1,1]",0,59,59,59,1,1,0,,,1,FALSE,0.7073,,,,,,,,,,,,,,,,,,,,,,,,,,,,,,
,61416d1911219594f9a148ec,001,2022-04-28_20h02.09.774,classification_task,2021.2.3,Win32,74.92881762,61416d1911219594f9a148ec,626b377229c10585ec392f8a,626b38fe4e7d9da64f0db350,,,,,,,,,,,,,,,,,,,,,,,a,1,"[""0.219"",""0.041"",""0.635"",""0.940""]","[1,0,1,1]",0,60,60,60,1,0,0,,,1,FALSE,0.7597,,,,,,,,,,,,,,,,,,,,,,,,,,,,,,
,61416d1911219594f9a148ec,001,2022-04-28_20h02.09.774,classification_task,2021.2.3,Win32,74.92881762,61416d1911219594f9a148ec,626b377229c10585ec392f8a,626b38fe4e7d9da64f0db350,,,,,,,,,,,,,,,,,,,,,,,l,0,"[""0.272"",""0.443"",""0.050"",""0.974""]","[1,1,0,1]",0,61,61,61,1,0,1,,,1,FALSE,1.1749,,,,,,,,,,,,,,,,,,,,,,,,,,,,,,
,61416d1911219594f9a148ec,001,2022-04-28_20h02.09.774,classification_task,2021.2.3,Win32,74.92881762,61416d1911219594f9a148ec,626b377229c10585ec392f8a,626b38fe4e7d9da64f0db350,,,,,,,,,,,,,,,,,,,,,,,l,0,"[""0.272"",""0.172"",""0.869"",""0.974""]","[1,0,1,1]",0,62,62,62,1,0,1,,,1,FALSE,1.3076,,,,,,,,,,,,,,,,,,,,,,,,,,,,,,
,61416d1911219594f9a148ec,001,2022-04-28_20h02.09.774,classification_task,2021.2.3,Win32,74.92881762,61416d1911219594f9a148ec,626b377229c10585ec392f8a,626b38fe4e7d9da64f0db350,,,,,,,,,,,,,,,,,,,,,,,a,1,"[""0.824"",""0.443"",""0.869"",""0.974""]","[0,1,1,1]",0,63,63,63,1,0,1,,,1,FALSE,0.6539,,,,,,,,,,,,,,,,,,,,,,,,,,,,,,
,61416d1911219594f9a148ec,001,2022-04-28_20h02.09.774,classification_task,2021.2.3,Win32,74.92881762,61416d1911219594f9a148ec,626b377229c10585ec392f8a,626b38fe4e7d9da64f0db350,,,,,,,,,,,,,,,,,,,,,,,,,,,,,,,,,,,,,,,0, ,,0,2.346027229,171.173,0,2,2,2,1,2,3,,,,,,,,,,,,,,,,,
,61416d1911219594f9a148ec,001,2022-04-28_20h02.09.774,classification_task,2021.2.3,Win32,74.92881762,61416d1911219594f9a148ec,626b377229c10585ec392f8a,626b38fe4e7d9da64f0db350,,,,,,,,,,,,,,,,,,,,,,,,,,,,,,,,,,,,,,,1,  ,,0,0,157.8876,0,2,2,2,1,2,3,,,,,,,,,,,,,,,,,
,61416d1911219594f9a148ec,001,2022-04-28_20h02.09.774,classification_task,2021.2.3,Win32,74.92881762,61416d1911219594f9a148ec,626b377229c10585ec392f8a,626b38fe4e7d9da64f0db350,,,,,,,,,,,,,,,,,,,,,,,,,,,,,,,,,,,,,,,2,  ,,0,0,152.7258,0,2,2,2,1,2,3,,,,,,,,,,,,,,,,,
,61416d1911219594f9a148ec,001,2022-04-28_20h02.09.774,classification_task,2021.2.3,Win32,74.92881762,61416d1911219594f9a148ec,626b377229c10585ec392f8a,626b38fe4e7d9da64f0db350,,,,,,,,,,,,,,,,,,,,,,,,,,,,,,,,,,,,,,,,,,,,,0,2,2,2,1,,3,,,,,,,,,,,,,,,,,
,61416d1911219594f9a148ec,001,2022-04-28_20h02.09.774,classification_task,2021.2.3,Win32,74.92881762,61416d1911219594f9a148ec,626b377229c10585ec392f8a,626b38fe4e7d9da64f0db350,,,,,,,,,,,,,,,,,,,,,,,,,,,,,,,,,,,,,,,,,,,,,,,,,,,,,I believe the aid is a competent performer,,0.7,0,5,1313.3096,0,0,0,0,1,0,,,,
,61416d1911219594f9a148ec,001,2022-04-28_20h02.09.774,classification_task,2021.2.3,Win32,74.92881762,61416d1911219594f9a148ec,626b377229c10585ec392f8a,626b38fe4e7d9da64f0db350,,,,,,,,,,,,,,,,,,,,,,,,,,,,,,,,,,,,,,,,,,,,,,,,,,,,,I trust the aid,,0.7,0,5,1316.0694,0,0,0,0,1,0,,,,
,61416d1911219594f9a148ec,001,2022-04-28_20h02.09.774,classification_task,2021.2.3,Win32,74.92881762,61416d1911219594f9a148ec,626b377229c10585ec392f8a,626b38fe4e7d9da64f0db350,,,,,,,,,,,,,,,,,,,,,,,,,,,,,,,,,,,,,,,,,,,,,,,,,,,,,I have confidence in the advice given by the aid,,0.7,0,5,1317.8275,0,0,0,0,1,0,,,,
,61416d1911219594f9a148ec,001,2022-04-28_20h02.09.774,classification_task,2021.2.3,Win32,74.92881762,61416d1911219594f9a148ec,626b377229c10585ec392f8a,626b38fe4e7d9da64f0db350,,,,,,,,,,,,,,,,,,,,,,,,,,,,,,,,,,,,,,,,,,,,,,,,,,,,,I can depend on the aid,,0.7,0,4,1319.3788,0,0,0,0,1,0,,,,
,61416d1911219594f9a148ec,001,2022-04-28_20h02.09.774,classification_task,2021.2.3,Win32,74.92881762,61416d1911219594f9a148ec,626b377229c10585ec392f8a,626b38fe4e7d9da64f0db350,,,,,,,,,,,,,,,,,,,,,,,,,,,,,,,,,,,,,,,,,,,,,,,,,,,,,I can rely on the aid to behave in consistent ways,,0.7,0,4,1323.6258,0,0,0,0,1,0,,,,
,61416d1911219594f9a148ec,001,2022-04-28_20h02.09.774,classification_task,2021.2.3,Win32,74.92881762,61416d1911219594f9a148ec,626b377229c10585ec392f8a,626b38fe4e7d9da64f0db350,,,,,,,,,,,,,,,,,,,,,,,,,,,,,,,,,,,,,,,,,,,,,,,,,,,,,I can rely on the aid to do its best every time I take its advice,,0.7,0,4,1326.287,0,0,0,0,1,0,,,,
,61416d1911219594f9a148ec,001,2022-04-28_20h02.09.774,classification_task,2021.2.3,Win32,74.92881762,61416d1911219594f9a148ec,626b377229c10585ec392f8a,626b38fe4e7d9da64f0db350,,,,,,,,,,,,,,,,,,,,,,,,,,,,,,,,,,,,,,,,,,,,,,,,,,,,,"On trials you completed with assistance from the aid, how frequently did you think the aid was correct?",,0.7,0,90,,0,0,0,0,1,0,,,,
,61416d1911219594f9a148ec,001,2022-04-28_20h02.09.774,classification_task,2021.2.3,Win32,74.92881762,61416d1911219594f9a148ec,626b377229c10585ec392f8a,626b38fe4e7d9da64f0db350,,,,,,,,,,,,,,,,,,,,,,,,,,,,,,,,,,,,,,,,,,,,,,,,,,,,,"On trials you completed without the aid, how frequently did you think you were correct?",,0.7,0,10,,0,0,0,0,1,0,,,,
,61416d1911219594f9a148ec,001,2022-04-28_20h02.09.774,classification_task,2021.2.3,Win32,74.92881762,61416d1911219594f9a148ec,626b377229c10585ec392f8a,626b38fe4e7d9da64f0db350,,,,,,,,,,,,,,,,,,,,,,,,,,,,,,,,,,,,,,,,,,,,,,,,,,,,,,,,,,,0,0,0,0,1,,,,,
,61416d1911219594f9a148ec,001,2022-04-28_20h02.09.774,classification_task,2021.2.3,Win32,74.92881762,61416d1911219594f9a148ec,626b377229c10585ec392f8a,626b38fe4e7d9da64f0db350,,,,,,,,,,,,,,,,,,,,,,,,,,,,,,,,,,,,,,,,,,,,,,,,,,,,,,,,,,,,,,,,,num_5,6.5123,1440.2648,
,61416d1911219594f9a148ec,001,2022-04-28_20h02.09.774,classification_task,2021.2.3,Win32,74.92881762,61416d1911219594f9a148ec,626b377229c10585ec392f8a,626b38fe4e7d9da64f0db350,,,,,,,,,,,,,,,,,,,,,,,,,,,,,,,,,,,,,,,,,,,,,,,,,,,,,,,,,,,,,,,,,,,,"Mozilla/5.0 (Windows NT 10.0; Win64; x64) AppleWebKit/537.36 (KHTML, like Gecko) Chrome/101.0.4951.41 Safari/537.36"
