usingWebGL,participant,session,date,expName,psychopyVersion,OS,frameRate,PROLIFIC_PID,STUDY_ID,SESSION_ID,signatures_friend,signatures_foe,band_ranges_top,band_ranges_bottom,formitemText,formtype,formundefined,formitemWidth,formindex,formresponse,formrt,key_resp_2.keys,key_resp_2.rt,tute_resp.keys,tute_resp.rt,tutorial.thisRepN,tutorial.thisTrialN,tutorial.thisN,tutorial.thisIndex,tutorial.ran,key_resp_4.keys,key_resp_4.rt,key_resp.keys,key_resp.corr,key_resp.rt,lines_presented,is_signal_presented,trials.thisRepN,trials.thisTrialN,trials.thisN,trials.thisIndex,trials.ran,vessel,active_band,lines,is_signal,supported_pos,catch_trial,debrief_formindex,debrief_formitemText,debrief_formtype,debrief_formitemWidth,debrief_formresponse,debrief_formrt,phases.thisRepN,phases.thisTrialN,phases.thisN,phases.thisIndex,phases.ran,phases.order,phase,key_resp_3.keys,trustitemText,trusttype,trustitemWidth,trustindex,trustresponse,trustrt,support_status.thisRepN,support_status.thisTrialN,support_status.thisN,support_status.thisIndex,support_status.ran,support_status.order,key_resp_5.keys,key_resp_5.rt,globalClockTime,userAgent
TRUE,6142b61f68aa336c417a4619,001,2022-04-28_20h09.11.299,classification_task,2021.2.3,Win32,59.99520038,6142b61f68aa336c417a4619,626b377229c10585ec392f89,626b3a8950afaf53d34bcfad,,,,,,,,,,,,,,,,,,,,,,,,,,,,,,,,,,,,,,,,,,,,,,,,,,,,,,,,,,,,,,,,,,,,
,6142b61f68aa336c417a4619,001,2022-04-28_20h09.11.299,classification_task,2021.2.3,Win32,59.99520038,6142b61f68aa336c417a4619,626b377229c10585ec392f89,626b3a8950afaf53d34bcfad,"[[""0.256"",""0.352"",""0.864"",""0.938""],[""0.213"",""0.521"",""0.825"",""0.972""]]","[[""0.106"",""0.176"",""0.618"",""0.739""],[""0.028"",""0.304"",""0.470"",""0.678""]]","[1,10]","[100,1000]",Video game experience,,,0.7,0,,,,,,,,,,,,,,,,,,,,,,,,,,,,,,,,,,,,,,,,,,,,,,,,,,,,,,,,,,,
,6142b61f68aa336c417a4619,001,2022-04-28_20h09.11.299,classification_task,2021.2.3,Win32,59.99520038,6142b61f68aa336c417a4619,626b377229c10585ec392f89,626b3a8950afaf53d34bcfad,,,,,Approximately how many hours did you spend playing video games in the last week?,,,0.7,0,10,,,,,,,,,,,,,,,,,,,,,,,,,,,,,,,,,,,,,,,,,,,,,,,,,,,,,,,,,,
,6142b61f68aa336c417a4619,001,2022-04-28_20h09.11.299,classification_task,2021.2.3,Win32,59.99520038,6142b61f68aa336c417a4619,626b377229c10585ec392f89,626b3a8950afaf53d34bcfad,,,,,"Which game did you play the most this year? (Enter ""None"" if you didn't play any)",,,0.7,0,F1 2021,,,,,,,,,,,,,,,,,,,,,,,,,,,,,,,,,,,,,,,,,,,,,,,,,,,,,,,,,,
,6142b61f68aa336c417a4619,001,2022-04-28_20h09.11.299,classification_task,2021.2.3,Win32,59.99520038,6142b61f68aa336c417a4619,626b377229c10585ec392f89,626b3a8950afaf53d34bcfad,,,,,Visual perception,,,0.7,0,,,,,,,,,,,,,,,,,,,,,,,,,,,,,,,,,,,,,,,,,,,,,,,,,,,,,,,,,,,
,6142b61f68aa336c417a4619,001,2022-04-28_20h09.11.299,classification_task,2021.2.3,Win32,59.99520038,6142b61f68aa336c417a4619,626b377229c10585ec392f89,626b3a8950afaf53d34bcfad,,,,,Do you have any form of color blindness?,,,0.7,0,No,28.6884,,,,,,,,,,,,,,,,,,,,,,,,,,,,,,,,,,,,,,,,,,,,,,,,,,,,,,,,,
,6142b61f68aa336c417a4619,001,2022-04-28_20h09.11.299,classification_task,2021.2.3,Win32,59.99520038,6142b61f68aa336c417a4619,626b377229c10585ec392f89,626b3a8950afaf53d34bcfad,,,,,Do you use software to change the colour temperature of your screen (e.g. f.lux)?,,,0.7,0,No,30.0301,,,,,,,,,,,,,,,,,,,,,,,,,,,,,,,,,,,,,,,,,,,,,,,,,,,,,,,,,
,6142b61f68aa336c417a4619,001,2022-04-28_20h09.11.299,classification_task,2021.2.3,Win32,59.99520038,6142b61f68aa336c417a4619,626b377229c10585ec392f89,626b3a8950afaf53d34bcfad,,,,,,,,,,,,space,18.5944,space,5.9009,0,0,0,0,1,,,,,,,,,,,,,,,,,,,,,,,,,,,,,,,,,,,,,,,,,,,,,,,,
,6142b61f68aa336c417a4619,001,2022-04-28_20h09.11.299,classification_task,2021.2.3,Win32,59.99520038,6142b61f68aa336c417a4619,626b377229c10585ec392f89,626b3a8950afaf53d34bcfad,,,,,,,,,,,,,,space,7.3035,1,0,1,0,1,,,,,,,,,,,,,,,,,,,,,,,,,,,,,,,,,,,,,,,,,,,,,,,,
,6142b61f68aa336c417a4619,001,2022-04-28_20h09.11.299,classification_task,2021.2.3,Win32,59.99520038,6142b61f68aa336c417a4619,626b377229c10585ec392f89,626b3a8950afaf53d34bcfad,,,,,,,,,,,,,,space,23.5347,2,0,2,0,1,,,,,,,,,,,,,,,,,,,,,,,,,,,,,,,,,,,,,,,,,,,,,,,,
,6142b61f68aa336c417a4619,001,2022-04-28_20h09.11.299,classification_task,2021.2.3,Win32,59.99520038,6142b61f68aa336c417a4619,626b377229c10585ec392f89,626b3a8950afaf53d34bcfad,,,,,,,,,,,,,,space,10.3374,3,0,3,0,1,,,,,,,,,,,,,,,,,,,,,,,,,,,,,,,,,,,,,,,,,,,,,,,,
,6142b61f68aa336c417a4619,001,2022-04-28_20h09.11.299,classification_task,2021.2.3,Win32,59.99520038,6142b61f68aa336c417a4619,626b377229c10585ec392f89,626b3a8950afaf53d34bcfad,,,,,,,,,,,,,,space,18.2036,4,0,4,0,1,,,,,,,,,,,,,,,,,,,,,,,,,,,,,,,,,,,,,,,,,,,,,,,,
,6142b61f68aa336c417a4619,001,2022-04-28_20h09.11.299,classification_task,2021.2.3,Win32,59.99520038,6142b61f68aa336c417a4619,626b377229c10585ec392f89,626b3a8950afaf53d34bcfad,,,,,,,,,,,,,,,,,,,,,space,13.698,a,0,9.3794,"[""0.555"",""0.304"",""0.470"",""0.678""]","[0,1,1,1]",0,0,0,0,1,1,1,,,1,FALSE,,,,,,,,,,,,,,,,,,,,,,,,,,,,,,
,6142b61f68aa336c417a4619,001,2022-04-28_20h09.11.299,classification_task,2021.2.3,Win32,59.99520038,6142b61f68aa336c417a4619,626b377229c10585ec392f89,626b3a8950afaf53d34bcfad,,,,,,,,,,,,,,,,,,,,,,,,0,,"[""0.213"",""0.521"",""0.825"",""0.777""]","[1,1,1,0]",0,1,1,1,1,0,1,,,1,FALSE,,,,,,,,,,,,,,,,,,,,,,,,,,,,,,
,6142b61f68aa336c417a4619,001,2022-04-28_20h09.11.299,classification_task,2021.2.3,Win32,59.99520038,6142b61f68aa336c417a4619,626b377229c10585ec392f89,626b3a8950afaf53d34bcfad,,,,,,,,,,,,,,,,,,,,,,,a,1,5.9207,"[""0.256"",""0.352"",""0.864"",""0.773""]","[1,1,1,0]",0,2,2,2,1,0,0,,,1,FALSE,,,,,,,,,,,,,,,,,,,,,,,,,,,,,,
,6142b61f68aa336c417a4619,001,2022-04-28_20h09.11.299,classification_task,2021.2.3,Win32,59.99520038,6142b61f68aa336c417a4619,626b377229c10585ec392f89,626b3a8950afaf53d34bcfad,,,,,,,,,,,,,,,,,,,,,,,a,1,2.5954,"[""0.256"",""0.386"",""0.864"",""0.938""]","[1,0,1,1]",0,3,3,3,1,0,0,,,1,FALSE,,,,,,,,,,,,,,,,,,,,,,,,,,,,,,
,6142b61f68aa336c417a4619,001,2022-04-28_20h09.11.299,classification_task,2021.2.3,Win32,59.99520038,6142b61f68aa336c417a4619,626b377229c10585ec392f89,626b3a8950afaf53d34bcfad,,,,,,,,,,,,,,,,,,,,,,,l,1,5.5023,"[""0.397"",""0.176"",""0.618"",""0.739""]","[0,1,1,1]",0,4,4,4,1,1,0,,,1,FALSE,,,,,,,,,,,,,,,,,,,,,,,,,,,,,,
,6142b61f68aa336c417a4619,001,2022-04-28_20h09.11.299,classification_task,2021.2.3,Win32,59.99520038,6142b61f68aa336c417a4619,626b377229c10585ec392f89,626b3a8950afaf53d34bcfad,,,,,,,,,,,,,,,,,,,,,,,a,1,3.4185,"[""0.213"",""0.555"",""0.825"",""0.972""]","[1,0,1,1]",0,5,5,5,1,0,1,,,1,FALSE,,,,,,,,,,,,,,,,,,,,,,,,,,,,,,
,6142b61f68aa336c417a4619,001,2022-04-28_20h09.11.299,classification_task,2021.2.3,Win32,59.99520038,6142b61f68aa336c417a4619,626b377229c10585ec392f89,626b3a8950afaf53d34bcfad,,,,,,,,,,,,,,,,,,,,,,,l,0,5.5385,"[""0.555"",""0.352"",""0.864"",""0.938""]","[0,1,1,1]",0,6,6,6,1,0,0,,,1,FALSE,,,,,,,,,,,,,,,,,,,,,,,,,,,,,,
,6142b61f68aa336c417a4619,001,2022-04-28_20h09.11.299,classification_task,2021.2.3,Win32,59.99520038,6142b61f68aa336c417a4619,626b377229c10585ec392f89,626b3a8950afaf53d34bcfad,,,,,,,,,,,,,,,,,,,,,,,l,1,3.1918,"[""0.106"",""0.777"",""0.618"",""0.739""]","[1,0,1,1]",0,7,7,7,1,1,0,,,1,FALSE,,,,,,,,,,,,,,,,,,,,,,,,,,,,,,
,6142b61f68aa336c417a4619,001,2022-04-28_20h09.11.299,classification_task,2021.2.3,Win32,59.99520038,6142b61f68aa336c417a4619,626b377229c10585ec392f89,626b3a8950afaf53d34bcfad,,,,,,,,,,,,,,,,,,,,,,,l,1,3.181,"[""0.028"",""0.783"",""0.470"",""0.678""]","[1,0,1,1]",0,8,8,8,1,1,1,,,1,FALSE,,,,,,,,,,,,,,,,,,,,,,,,,,,,,,
,6142b61f68aa336c417a4619,001,2022-04-28_20h09.11.299,classification_task,2021.2.3,Win32,59.99520038,6142b61f68aa336c417a4619,626b377229c10585ec392f89,626b3a8950afaf53d34bcfad,,,,,,,,,,,,,,,,,,,,,,,a,1,4.3753,"[""0.213"",""0.521"",""0.783"",""0.972""]","[1,1,0,1]",0,9,9,9,1,0,1,,,1,FALSE,,,,,,,,,,,,,,,,,,,,,,,,,,,,,,
,6142b61f68aa336c417a4619,001,2022-04-28_20h09.11.299,classification_task,2021.2.3,Win32,59.99520038,6142b61f68aa336c417a4619,626b377229c10585ec392f89,626b3a8950afaf53d34bcfad,,,,,,,,,,,,,,,,,,,,,,,l,1,2.4275,"[""0.028"",""0.304"",""0.563"",""0.678""]","[1,1,0,1]",0,10,10,10,1,1,1,,,1,FALSE,,,,,,,,,,,,,,,,,,,,,,,,,,,,,,
,6142b61f68aa336c417a4619,001,2022-04-28_20h09.11.299,classification_task,2021.2.3,Win32,59.99520038,6142b61f68aa336c417a4619,626b377229c10585ec392f89,626b3a8950afaf53d34bcfad,,,,,,,,,,,,,,,,,,,,,,,l,1,5.8738,"[""0.106"",""0.176"",""0.397"",""0.739""]","[1,1,0,1]",0,11,11,11,1,1,0,,,1,FALSE,,,,,,,,,,,,,,,,,,,,,,,,,,,,,,
,6142b61f68aa336c417a4619,001,2022-04-28_20h09.11.299,classification_task,2021.2.3,Win32,59.99520038,6142b61f68aa336c417a4619,626b377229c10585ec392f89,626b3a8950afaf53d34bcfad,,,,,,,,,,,,,,,,,,,,,,,a,1,3.4996,"[""0.256"",""0.352"",""0.435"",""0.938""]","[1,1,0,1]",0,12,12,12,1,0,0,,,1,FALSE,,,,,,,,,,,,,,,,,,,,,,,,,,,,,,
,6142b61f68aa336c417a4619,001,2022-04-28_20h09.11.299,classification_task,2021.2.3,Win32,59.99520038,6142b61f68aa336c417a4619,626b377229c10585ec392f89,626b3a8950afaf53d34bcfad,,,,,,,,,,,,,,,,,,,,,,,a,1,4.3875,"[""0.789"",""0.521"",""0.825"",""0.972""]","[0,1,1,1]",0,13,13,13,1,0,1,,,1,FALSE,,,,,,,,,,,,,,,,,,,,,,,,,,,,,,
,6142b61f68aa336c417a4619,001,2022-04-28_20h09.11.299,classification_task,2021.2.3,Win32,59.99520038,6142b61f68aa336c417a4619,626b377229c10585ec392f89,626b3a8950afaf53d34bcfad,,,,,,,,,,,,,,,,,,,,,,,l,1,3.8315,"[""0.106"",""0.176"",""0.618"",""0.789""]","[1,1,1,0]",0,14,14,14,1,1,0,,,1,FALSE,,,,,,,,,,,,,,,,,,,,,,,,,,,,,,
,6142b61f68aa336c417a4619,001,2022-04-28_20h09.11.299,classification_task,2021.2.3,Win32,59.99520038,6142b61f68aa336c417a4619,626b377229c10585ec392f89,626b3a8950afaf53d34bcfad,,,,,,,,,,,,,,,,,,,,,,,l,1,2.9684,"[""0.028"",""0.304"",""0.470"",""0.391""]","[1,1,1,0]",0,15,15,15,1,1,1,,,1,FALSE,,,,,,,,,,,,,,,,,,,,,,,,,,,,,,
,6142b61f68aa336c417a4619,001,2022-04-28_20h09.11.299,classification_task,2021.2.3,Win32,59.99520038,6142b61f68aa336c417a4619,626b377229c10585ec392f89,626b3a8950afaf53d34bcfad,,,,,,,,,,,,,,,,,,,,,,,l,1,2.9059,"[""0.555"",""0.176"",""0.618"",""0.739""]","[0,1,1,1]",0,16,16,16,1,1,0,,,1,FALSE,,,,,,,,,,,,,,,,,,,,,,,,,,,,,,
,6142b61f68aa336c417a4619,001,2022-04-28_20h09.11.299,classification_task,2021.2.3,Win32,59.99520038,6142b61f68aa336c417a4619,626b377229c10585ec392f89,626b3a8950afaf53d34bcfad,,,,,,,,,,,,,,,,,,,,,,,l,1,1.6431,"[""0.028"",""0.304"",""0.424"",""0.678""]","[1,1,0,1]",0,17,17,17,1,1,1,,,1,FALSE,,,,,,,,,,,,,,,,,,,,,,,,,,,,,,
,6142b61f68aa336c417a4619,001,2022-04-28_20h09.11.299,classification_task,2021.2.3,Win32,59.99520038,6142b61f68aa336c417a4619,626b377229c10585ec392f89,626b3a8950afaf53d34bcfad,,,,,,,,,,,,,,,,,,,,,,,a,1,2.1384,"[""0.435"",""0.352"",""0.864"",""0.938""]","[0,1,1,1]",0,18,18,18,1,0,0,,,1,FALSE,,,,,,,,,,,,,,,,,,,,,,,,,,,,,,
,6142b61f68aa336c417a4619,001,2022-04-28_20h09.11.299,classification_task,2021.2.3,Win32,59.99520038,6142b61f68aa336c417a4619,626b377229c10585ec392f89,626b3a8950afaf53d34bcfad,,,,,,,,,,,,,,,,,,,,,,,l,1,2.6963,"[""0.773"",""0.304"",""0.470"",""0.678""]","[0,1,1,1]",0,19,19,19,1,1,1,,,1,FALSE,,,,,,,,,,,,,,,,,,,,,,,,,,,,,,
,6142b61f68aa336c417a4619,001,2022-04-28_20h09.11.299,classification_task,2021.2.3,Win32,59.99520038,6142b61f68aa336c417a4619,626b377229c10585ec392f89,626b3a8950afaf53d34bcfad,,,,,,,,,,,,,,,,,,,,,,,l,1,1.8219,"[""0.028"",""0.391"",""0.470"",""0.678""]","[1,0,1,1]",0,20,20,20,1,1,1,,,1,FALSE,,,,,,,,,,,,,,,,,,,,,,,,,,,,,,
,6142b61f68aa336c417a4619,001,2022-04-28_20h09.11.299,classification_task,2021.2.3,Win32,59.99520038,6142b61f68aa336c417a4619,626b377229c10585ec392f89,626b3a8950afaf53d34bcfad,,,,,,,,,,,,,,,,,,,,,,,a,1,2.3236,"[""0.213"",""0.777"",""0.825"",""0.972""]","[1,0,1,1]",0,21,21,21,1,0,1,,,1,FALSE,,,,,,,,,,,,,,,,,,,,,,,,,,,,,,
,6142b61f68aa336c417a4619,001,2022-04-28_20h09.11.299,classification_task,2021.2.3,Win32,59.99520038,6142b61f68aa336c417a4619,626b377229c10585ec392f89,626b3a8950afaf53d34bcfad,,,,,,,,,,,,,,,,,,,,,,,l,0,2.5007,"[""0.397"",""0.521"",""0.825"",""0.972""]","[0,1,1,1]",0,22,22,22,1,0,1,,,1,FALSE,,,,,,,,,,,,,,,,,,,,,,,,,,,,,,
,6142b61f68aa336c417a4619,001,2022-04-28_20h09.11.299,classification_task,2021.2.3,Win32,59.99520038,6142b61f68aa336c417a4619,626b377229c10585ec392f89,626b3a8950afaf53d34bcfad,,,,,,,,,,,,,,,,,,,,,,,l,1,2.1851,"[""0.106"",""0.555"",""0.618"",""0.739""]","[1,0,1,1]",0,23,23,23,1,1,0,,,1,FALSE,,,,,,,,,,,,,,,,,,,,,,,,,,,,,,
,6142b61f68aa336c417a4619,001,2022-04-28_20h09.11.299,classification_task,2021.2.3,Win32,59.99520038,6142b61f68aa336c417a4619,626b377229c10585ec392f89,626b3a8950afaf53d34bcfad,,,,,,,,,,,,,,,,,,,,,,,l,1,1.8531,"[""0.106"",""0.176"",""0.618"",""0.391""]","[1,1,1,0]",0,24,24,24,1,1,0,,,1,FALSE,,,,,,,,,,,,,,,,,,,,,,,,,,,,,,
,6142b61f68aa336c417a4619,001,2022-04-28_20h09.11.299,classification_task,2021.2.3,Win32,59.99520038,6142b61f68aa336c417a4619,626b377229c10585ec392f89,626b3a8950afaf53d34bcfad,,,,,,,,,,,,,,,,,,,,,,,a,1,3.0915,"[""0.213"",""0.521"",""0.903"",""0.972""]","[1,1,0,1]",0,25,25,25,1,0,1,,,1,FALSE,,,,,,,,,,,,,,,,,,,,,,,,,,,,,,
,6142b61f68aa336c417a4619,001,2022-04-28_20h09.11.299,classification_task,2021.2.3,Win32,59.99520038,6142b61f68aa336c417a4619,626b377229c10585ec392f89,626b3a8950afaf53d34bcfad,,,,,,,,,,,,,,,,,,,,,,,a,1,3.0068,"[""0.256"",""0.352"",""0.864"",""0.790""]","[1,1,1,0]",0,26,26,26,1,0,0,,,1,FALSE,,,,,,,,,,,,,,,,,,,,,,,,,,,,,,
,6142b61f68aa336c417a4619,001,2022-04-28_20h09.11.299,classification_task,2021.2.3,Win32,59.99520038,6142b61f68aa336c417a4619,626b377229c10585ec392f89,626b3a8950afaf53d34bcfad,,,,,,,,,,,,,,,,,,,,,,,a,1,2.0981,"[""0.213"",""0.521"",""0.825"",""0.773""]","[1,1,1,0]",0,27,27,27,1,0,1,,,1,FALSE,,,,,,,,,,,,,,,,,,,,,,,,,,,,,,
,6142b61f68aa336c417a4619,001,2022-04-28_20h09.11.299,classification_task,2021.2.3,Win32,59.99520038,6142b61f68aa336c417a4619,626b377229c10585ec392f89,626b3a8950afaf53d34bcfad,,,,,,,,,,,,,,,,,,,,,,,l,1,2.0455,"[""0.106"",""0.176"",""0.397"",""0.739""]","[1,1,0,1]",0,28,28,28,1,1,0,,,1,FALSE,,,,,,,,,,,,,,,,,,,,,,,,,,,,,,
,6142b61f68aa336c417a4619,001,2022-04-28_20h09.11.299,classification_task,2021.2.3,Win32,59.99520038,6142b61f68aa336c417a4619,626b377229c10585ec392f89,626b3a8950afaf53d34bcfad,,,,,,,,,,,,,,,,,,,,,,,a,1,1.5015,"[""0.256"",""0.352"",""0.577"",""0.938""]","[1,1,0,1]",0,29,29,29,1,0,0,,,1,FALSE,,,,,,,,,,,,,,,,,,,,,,,,,,,,,,
,6142b61f68aa336c417a4619,001,2022-04-28_20h09.11.299,classification_task,2021.2.3,Win32,59.99520038,6142b61f68aa336c417a4619,626b377229c10585ec392f89,626b3a8950afaf53d34bcfad,,,,,,,,,,,,,,,,,,,,,,,a,1,2.1959,"[""0.256"",""0.903"",""0.864"",""0.938""]","[1,0,1,1]",0,30,30,30,1,0,0,,,1,FALSE,,,,,,,,,,,,,,,,,,,,,,,,,,,,,,
,6142b61f68aa336c417a4619,001,2022-04-28_20h09.11.299,classification_task,2021.2.3,Win32,59.99520038,6142b61f68aa336c417a4619,626b377229c10585ec392f89,626b3a8950afaf53d34bcfad,,,,,,,,,,,,,,,,,,,,,,,l,1,2.5562,"[""0.028"",""0.304"",""0.470"",""0.564""]","[1,1,1,0]",0,31,31,31,1,1,1,,,1,FALSE,,,,,,,,,,,,,,,,,,,,,,,,,,,,,,
,6142b61f68aa336c417a4619,001,2022-04-28_20h09.11.299,classification_task,2021.2.3,Win32,59.99520038,6142b61f68aa336c417a4619,626b377229c10585ec392f89,626b3a8950afaf53d34bcfad,,,,,,,,,,,,,,,,,,,,,,,a,0,4.0946,"[""0.106"",""0.176"",""0.563"",""0.739""]","[1,1,0,1]",0,32,32,32,1,1,0,,,1,FALSE,,,,,,,,,,,,,,,,,,,,,,,,,,,,,,
,6142b61f68aa336c417a4619,001,2022-04-28_20h09.11.299,classification_task,2021.2.3,Win32,59.99520038,6142b61f68aa336c417a4619,626b377229c10585ec392f89,626b3a8950afaf53d34bcfad,,,,,,,,,,,,,,,,,,,,,,,l,0,2.9084,"[""0.213"",""0.903"",""0.825"",""0.972""]","[1,0,1,1]",0,33,33,33,1,0,1,,,1,FALSE,,,,,,,,,,,,,,,,,,,,,,,,,,,,,,
,6142b61f68aa336c417a4619,001,2022-04-28_20h09.11.299,classification_task,2021.2.3,Win32,59.99520038,6142b61f68aa336c417a4619,626b377229c10585ec392f89,626b3a8950afaf53d34bcfad,,,,,,,,,,,,,,,,,,,,,,,l,0,0.5822,"[""0.256"",""0.352"",""0.864"",""0.903""]","[1,1,1,0]",0,34,34,34,1,0,0,,,1,FALSE,,,,,,,,,,,,,,,,,,,,,,,,,,,,,,
,6142b61f68aa336c417a4619,001,2022-04-28_20h09.11.299,classification_task,2021.2.3,Win32,59.99520038,6142b61f68aa336c417a4619,626b377229c10585ec392f89,626b3a8950afaf53d34bcfad,,,,,,,,,,,,,,,,,,,,,,,a,0,1.139,"[""0.790"",""0.304"",""0.470"",""0.678""]","[0,1,1,1]",0,35,35,35,1,1,1,,,1,FALSE,,,,,,,,,,,,,,,,,,,,,,,,,,,,,,
,6142b61f68aa336c417a4619,001,2022-04-28_20h09.11.299,classification_task,2021.2.3,Win32,59.99520038,6142b61f68aa336c417a4619,626b377229c10585ec392f89,626b3a8950afaf53d34bcfad,,,,,,,,,,,,,,,,,,,,,,,a,1,0.2445,"[""0.256"",""0.563"",""0.864"",""0.938""]","[1,0,1,1]",0,36,36,36,1,0,0,,,1,FALSE,,,,,,,,,,,,,,,,,,,,,,,,,,,,,,
,6142b61f68aa336c417a4619,001,2022-04-28_20h09.11.299,classification_task,2021.2.3,Win32,59.99520038,6142b61f68aa336c417a4619,626b377229c10585ec392f89,626b3a8950afaf53d34bcfad,,,,,,,,,,,,,,,,,,,,,,,l,1,3.6793,"[""0.424"",""0.176"",""0.618"",""0.739""]","[0,1,1,1]",0,37,37,37,1,1,0,,,1,FALSE,,,,,,,,,,,,,,,,,,,,,,,,,,,,,,
,6142b61f68aa336c417a4619,001,2022-04-28_20h09.11.299,classification_task,2021.2.3,Win32,59.99520038,6142b61f68aa336c417a4619,626b377229c10585ec392f89,626b3a8950afaf53d34bcfad,,,,,,,,,,,,,,,,,,,,,,,l,1,1.6978,"[""0.106"",""0.176"",""0.618"",""0.577""]","[1,1,1,0]",0,38,38,38,1,1,0,,,1,FALSE,,,,,,,,,,,,,,,,,,,,,,,,,,,,,,
,6142b61f68aa336c417a4619,001,2022-04-28_20h09.11.299,classification_task,2021.2.3,Win32,59.99520038,6142b61f68aa336c417a4619,626b377229c10585ec392f89,626b3a8950afaf53d34bcfad,,,,,,,,,,,,,,,,,,,,,,,a,1,2.2346,"[""0.903"",""0.521"",""0.825"",""0.972""]","[0,1,1,1]",0,39,39,39,1,0,1,,,1,FALSE,,,,,,,,,,,,,,,,,,,,,,,,,,,,,,
,6142b61f68aa336c417a4619,001,2022-04-28_20h09.11.299,classification_task,2021.2.3,Win32,59.99520038,6142b61f68aa336c417a4619,626b377229c10585ec392f89,626b3a8950afaf53d34bcfad,,,,,,,,,,,,,,,,,,,,,,,a,1,1.7449,"[""0.213"",""0.521"",""0.825"",""0.391""]","[1,1,1,0]",0,40,40,40,1,0,1,,,1,FALSE,,,,,,,,,,,,,,,,,,,,,,,,,,,,,,
,6142b61f68aa336c417a4619,001,2022-04-28_20h09.11.299,classification_task,2021.2.3,Win32,59.99520038,6142b61f68aa336c417a4619,626b377229c10585ec392f89,626b3a8950afaf53d34bcfad,,,,,,,,,,,,,,,,,,,,,,,l,1,1.2221,"[""0.028"",""0.304"",""0.470"",""0.903""]","[1,1,1,0]",0,41,41,41,1,1,1,,,1,FALSE,,,,,,,,,,,,,,,,,,,,,,,,,,,,,,
,6142b61f68aa336c417a4619,001,2022-04-28_20h09.11.299,classification_task,2021.2.3,Win32,59.99520038,6142b61f68aa336c417a4619,626b377229c10585ec392f89,626b3a8950afaf53d34bcfad,,,,,,,,,,,,,,,,,,,,,,,a,1,3.463,"[""0.435"",""0.352"",""0.864"",""0.938""]","[0,1,1,1]",0,42,42,42,1,0,0,,,1,FALSE,,,,,,,,,,,,,,,,,,,,,,,,,,,,,,
,6142b61f68aa336c417a4619,001,2022-04-28_20h09.11.299,classification_task,2021.2.3,Win32,59.99520038,6142b61f68aa336c417a4619,626b377229c10585ec392f89,626b3a8950afaf53d34bcfad,,,,,,,,,,,,,,,,,,,,,,,a,0,3.1495,"[""0.028"",""0.304"",""0.577"",""0.678""]","[1,1,0,1]",0,43,43,43,1,1,1,,,1,FALSE,,,,,,,,,,,,,,,,,,,,,,,,,,,,,,
,6142b61f68aa336c417a4619,001,2022-04-28_20h09.11.299,classification_task,2021.2.3,Win32,59.99520038,6142b61f68aa336c417a4619,626b377229c10585ec392f89,626b3a8950afaf53d34bcfad,,,,,,,,,,,,,,,,,,,,,,,l,1,1.0494,"[""0.028"",""0.783"",""0.470"",""0.678""]","[1,0,1,1]",0,44,44,44,1,1,1,,,1,FALSE,,,,,,,,,,,,,,,,,,,,,,,,,,,,,,
,6142b61f68aa336c417a4619,001,2022-04-28_20h09.11.299,classification_task,2021.2.3,Win32,59.99520038,6142b61f68aa336c417a4619,626b377229c10585ec392f89,626b3a8950afaf53d34bcfad,,,,,,,,,,,,,,,,,,,,,,,a,1,2.3214,"[""0.256"",""0.352"",""0.417"",""0.938""]","[1,1,0,1]",0,45,45,45,1,0,0,,,1,FALSE,,,,,,,,,,,,,,,,,,,,,,,,,,,,,,
,6142b61f68aa336c417a4619,001,2022-04-28_20h09.11.299,classification_task,2021.2.3,Win32,59.99520038,6142b61f68aa336c417a4619,626b377229c10585ec392f89,626b3a8950afaf53d34bcfad,,,,,,,,,,,,,,,,,,,,,,,a,1,1.6648,"[""0.213"",""0.521"",""0.903"",""0.972""]","[1,1,0,1]",0,46,46,46,1,0,1,,,1,FALSE,,,,,,,,,,,,,,,,,,,,,,,,,,,,,,
,6142b61f68aa336c417a4619,001,2022-04-28_20h09.11.299,classification_task,2021.2.3,Win32,59.99520038,6142b61f68aa336c417a4619,626b377229c10585ec392f89,626b3a8950afaf53d34bcfad,,,,,,,,,,,,,,,,,,,,,,,a,0,1.9752,"[""0.106"",""0.391"",""0.618"",""0.739""]","[1,0,1,1]",0,47,47,47,1,1,0,,,1,FALSE,,,,,,,,,,,,,,,,,,,,,,,,,,,,,,
,6142b61f68aa336c417a4619,001,2022-04-28_20h09.11.299,classification_task,2021.2.3,Win32,59.99520038,6142b61f68aa336c417a4619,626b377229c10585ec392f89,626b3a8950afaf53d34bcfad,,,,,,,,,,,,,,,,,,,,,,,a,1,1.7851,"[""0.213"",""0.521"",""0.563"",""0.972""]","[1,1,0,1]",0,48,48,48,1,0,1,,,1,FALSE,,,,,,,,,,,,,,,,,,,,,,,,,,,,,,
,6142b61f68aa336c417a4619,001,2022-04-28_20h09.11.299,classification_task,2021.2.3,Win32,59.99520038,6142b61f68aa336c417a4619,626b377229c10585ec392f89,626b3a8950afaf53d34bcfad,,,,,,,,,,,,,,,,,,,,,,,a,1,0.9584,"[""0.213"",""0.521"",""0.825"",""0.577""]","[1,1,1,0]",0,49,49,49,1,0,1,,,1,FALSE,,,,,,,,,,,,,,,,,,,,,,,,,,,,,,
,6142b61f68aa336c417a4619,001,2022-04-28_20h09.11.299,classification_task,2021.2.3,Win32,59.99520038,6142b61f68aa336c417a4619,626b377229c10585ec392f89,626b3a8950afaf53d34bcfad,,,,,,,,,,,,,,,,,,,,,,,l,1,2.0231,"[""0.424"",""0.176"",""0.618"",""0.739""]","[0,1,1,1]",0,50,50,50,1,1,0,,,1,FALSE,,,,,,,,,,,,,,,,,,,,,,,,,,,,,,
,6142b61f68aa336c417a4619,001,2022-04-28_20h09.11.299,classification_task,2021.2.3,Win32,59.99520038,6142b61f68aa336c417a4619,626b377229c10585ec392f89,626b3a8950afaf53d34bcfad,,,,,,,,,,,,,,,,,,,,,,,l,0,1.8264,"[""0.256"",""0.352"",""0.777"",""0.938""]","[1,1,0,1]",0,51,51,51,1,0,0,,,1,FALSE,,,,,,,,,,,,,,,,,,,,,,,,,,,,,,
,6142b61f68aa336c417a4619,001,2022-04-28_20h09.11.299,classification_task,2021.2.3,Win32,59.99520038,6142b61f68aa336c417a4619,626b377229c10585ec392f89,626b3a8950afaf53d34bcfad,,,,,,,,,,,,,,,,,,,,,,,a,1,0.7665,"[""0.256"",""0.352"",""0.864"",""0.424""]","[1,1,1,0]",0,52,52,52,1,0,0,,,1,FALSE,,,,,,,,,,,,,,,,,,,,,,,,,,,,,,
,6142b61f68aa336c417a4619,001,2022-04-28_20h09.11.299,classification_task,2021.2.3,Win32,59.99520038,6142b61f68aa336c417a4619,626b377229c10585ec392f89,626b3a8950afaf53d34bcfad,,,,,,,,,,,,,,,,,,,,,,,a,1,2.8727,"[""0.789"",""0.352"",""0.864"",""0.938""]","[0,1,1,1]",0,53,53,53,1,0,0,,,1,FALSE,,,,,,,,,,,,,,,,,,,,,,,,,,,,,,
,6142b61f68aa336c417a4619,001,2022-04-28_20h09.11.299,classification_task,2021.2.3,Win32,59.99520038,6142b61f68aa336c417a4619,626b377229c10585ec392f89,626b3a8950afaf53d34bcfad,,,,,,,,,,,,,,,,,,,,,,,a,1,2.006,"[""0.256"",""0.789"",""0.864"",""0.938""]","[1,0,1,1]",0,54,54,54,1,0,0,,,1,FALSE,,,,,,,,,,,,,,,,,,,,,,,,,,,,,,
,6142b61f68aa336c417a4619,001,2022-04-28_20h09.11.299,classification_task,2021.2.3,Win32,59.99520038,6142b61f68aa336c417a4619,626b377229c10585ec392f89,626b3a8950afaf53d34bcfad,,,,,,,,,,,,,,,,,,,,,,,l,1,2.2442,"[""0.106"",""0.555"",""0.618"",""0.739""]","[1,0,1,1]",0,55,55,55,1,1,0,,,1,FALSE,,,,,,,,,,,,,,,,,,,,,,,,,,,,,,
,6142b61f68aa336c417a4619,001,2022-04-28_20h09.11.299,classification_task,2021.2.3,Win32,59.99520038,6142b61f68aa336c417a4619,626b377229c10585ec392f89,626b3a8950afaf53d34bcfad,,,,,,,,,,,,,,,,,,,,,,,l,1,1.27,"[""0.028"",""0.783"",""0.470"",""0.678""]","[1,0,1,1]",0,56,56,56,1,1,1,,,1,FALSE,,,,,,,,,,,,,,,,,,,,,,,,,,,,,,
,6142b61f68aa336c417a4619,001,2022-04-28_20h09.11.299,classification_task,2021.2.3,Win32,59.99520038,6142b61f68aa336c417a4619,626b377229c10585ec392f89,626b3a8950afaf53d34bcfad,,,,,,,,,,,,,,,,,,,,,,,a,1,3.3852,"[""0.435"",""0.521"",""0.825"",""0.972""]","[0,1,1,1]",0,57,57,57,1,0,1,,,1,FALSE,,,,,,,,,,,,,,,,,,,,,,,,,,,,,,
,6142b61f68aa336c417a4619,001,2022-04-28_20h09.11.299,classification_task,2021.2.3,Win32,59.99520038,6142b61f68aa336c417a4619,626b377229c10585ec392f89,626b3a8950afaf53d34bcfad,,,,,,,,,,,,,,,,,,,,,,,l,1,1.1654,"[""0.028"",""0.304"",""0.789"",""0.678""]","[1,1,0,1]",0,58,58,58,1,1,1,,,1,FALSE,,,,,,,,,,,,,,,,,,,,,,,,,,,,,,
,6142b61f68aa336c417a4619,001,2022-04-28_20h09.11.299,classification_task,2021.2.3,Win32,59.99520038,6142b61f68aa336c417a4619,626b377229c10585ec392f89,626b3a8950afaf53d34bcfad,,,,,,,,,,,,,,,,,,,,,,,a,0,2.7166,"[""0.106"",""0.176"",""0.618"",""0.397""]","[1,1,1,0]",0,59,59,59,1,1,0,,,1,FALSE,,,,,,,,,,,,,,,,,,,,,,,,,,,,,,
,6142b61f68aa336c417a4619,001,2022-04-28_20h09.11.299,classification_task,2021.2.3,Win32,59.99520038,6142b61f68aa336c417a4619,626b377229c10585ec392f89,626b3a8950afaf53d34bcfad,,,,,,,,,,,,,,,,,,,,,,,l,1,1.1711,"[""0.106"",""0.176"",""0.563"",""0.739""]","[1,1,0,1]",0,60,60,60,1,1,0,,,1,FALSE,,,,,,,,,,,,,,,,,,,,,,,,,,,,,,
,6142b61f68aa336c417a4619,001,2022-04-28_20h09.11.299,classification_task,2021.2.3,Win32,59.99520038,6142b61f68aa336c417a4619,626b377229c10585ec392f89,626b3a8950afaf53d34bcfad,,,,,,,,,,,,,,,,,,,,,,,a,1,2.7434,"[""0.213"",""0.563"",""0.825"",""0.972""]","[1,0,1,1]",0,61,61,61,1,0,1,,,1,FALSE,,,,,,,,,,,,,,,,,,,,,,,,,,,,,,
,6142b61f68aa336c417a4619,001,2022-04-28_20h09.11.299,classification_task,2021.2.3,Win32,59.99520038,6142b61f68aa336c417a4619,626b377229c10585ec392f89,626b3a8950afaf53d34bcfad,,,,,,,,,,,,,,,,,,,,,,,l,1,2.968,"[""0.397"",""0.304"",""0.470"",""0.678""]","[0,1,1,1]",0,62,62,62,1,1,1,,,1,FALSE,,,,,,,,,,,,,,,,,,,,,,,,,,,,,,
,6142b61f68aa336c417a4619,001,2022-04-28_20h09.11.299,classification_task,2021.2.3,Win32,59.99520038,6142b61f68aa336c417a4619,626b377229c10585ec392f89,626b3a8950afaf53d34bcfad,,,,,,,,,,,,,,,,,,,,,,,l,1,1.4336,"[""0.028"",""0.304"",""0.470"",""0.563""]","[1,1,1,0]",0,63,63,63,1,1,1,,,1,FALSE,,,,,,,,,,,,,,,,,,,,,,,,,,,,,,
,6142b61f68aa336c417a4619,001,2022-04-28_20h09.11.299,classification_task,2021.2.3,Win32,59.99520038,6142b61f68aa336c417a4619,626b377229c10585ec392f89,626b3a8950afaf53d34bcfad,,,,,,,,,,,,,,,,,,,,,,,,,,,,,,,,,,,,,,,0, ,,0,2.060552616,390.5256,0,0,0,0,1,2,1,,,,,,,,,,,,,,,,,
,6142b61f68aa336c417a4619,001,2022-04-28_20h09.11.299,classification_task,2021.2.3,Win32,59.99520038,6142b61f68aa336c417a4619,626b377229c10585ec392f89,626b3a8950afaf53d34bcfad,,,,,,,,,,,,,,,,,,,,,,,,,,,,,,,,,,,,,,,1,  ,,0,9.348771472,395.5813,0,0,0,0,1,2,1,,,,,,,,,,,,,,,,,
,6142b61f68aa336c417a4619,001,2022-04-28_20h09.11.299,classification_task,2021.2.3,Win32,59.99520038,6142b61f68aa336c417a4619,626b377229c10585ec392f89,626b3a8950afaf53d34bcfad,,,,,,,,,,,,,,,,,,,,,,,,,,,,,,,,,,,,,,,2,  ,,0,1.577355786,403.3571,0,0,0,0,1,2,1,,,,,,,,,,,,,,,,,
,6142b61f68aa336c417a4619,001,2022-04-28_20h09.11.299,classification_task,2021.2.3,Win32,59.99520038,6142b61f68aa336c417a4619,626b377229c10585ec392f89,626b3a8950afaf53d34bcfad,,,,,,,,,,,,,,,,,,,,,,,,,,,,,,,,,,,,,,,,,,,,,0,0,0,0,1,,1,,,,,,,,,,,,,,,,,
,6142b61f68aa336c417a4619,001,2022-04-28_20h09.11.299,classification_task,2021.2.3,Win32,59.99520038,6142b61f68aa336c417a4619,626b377229c10585ec392f89,626b3a8950afaf53d34bcfad,,,,,,,,,,,,,,,,,,,,,space,5.435,l,1,4.6243,"[""0.773"",""0.304"",""0.470"",""0.678""]","[0,1,1,1]",0,0,0,0,1,1,1,,,1,FALSE,,,,,,,,,,,,,,,,,,,,,,,,,,,,,,
,6142b61f68aa336c417a4619,001,2022-04-28_20h09.11.299,classification_task,2021.2.3,Win32,59.99520038,6142b61f68aa336c417a4619,626b377229c10585ec392f89,626b3a8950afaf53d34bcfad,,,,,,,,,,,,,,,,,,,,,,,a,1,4.3426,"[""0.213"",""0.521"",""0.903"",""0.972""]","[1,1,0,1]",0,1,1,1,1,0,1,,,1,FALSE,,,,,,,,,,,,,,,,,,,,,,,,,,,,,,
,6142b61f68aa336c417a4619,001,2022-04-28_20h09.11.299,classification_task,2021.2.3,Win32,59.99520038,6142b61f68aa336c417a4619,626b377229c10585ec392f89,626b3a8950afaf53d34bcfad,,,,,,,,,,,,,,,,,,,,,,,l,0,5.1006,"[""0.256"",""0.903"",""0.864"",""0.938""]","[1,0,1,1]",0,2,2,2,1,0,0,,,1,FALSE,,,,,,,,,,,,,,,,,,,,,,,,,,,,,,
,6142b61f68aa336c417a4619,001,2022-04-28_20h09.11.299,classification_task,2021.2.3,Win32,59.99520038,6142b61f68aa336c417a4619,626b377229c10585ec392f89,626b3a8950afaf53d34bcfad,,,,,,,,,,,,,,,,,,,,,,,l,0,1.6883,"[""0.213"",""0.435"",""0.825"",""0.972""]","[1,0,1,1]",0,3,3,3,1,0,1,,,1,FALSE,,,,,,,,,,,,,,,,,,,,,,,,,,,,,,
,6142b61f68aa336c417a4619,001,2022-04-28_20h09.11.299,classification_task,2021.2.3,Win32,59.99520038,6142b61f68aa336c417a4619,626b377229c10585ec392f89,626b3a8950afaf53d34bcfad,,,,,,,,,,,,,,,,,,,,,,,l,0,1.7026,"[""0.256"",""0.352"",""0.864"",""0.424""]","[1,1,1,0]",0,4,4,4,1,0,0,,,1,FALSE,,,,,,,,,,,,,,,,,,,,,,,,,,,,,,
,6142b61f68aa336c417a4619,001,2022-04-28_20h09.11.299,classification_task,2021.2.3,Win32,59.99520038,6142b61f68aa336c417a4619,626b377229c10585ec392f89,626b3a8950afaf53d34bcfad,,,,,,,,,,,,,,,,,,,,,,,l,1,2.9762,"[""0.028"",""0.564"",""0.470"",""0.678""]","[1,0,1,1]",0,5,5,5,1,1,1,,,1,FALSE,,,,,,,,,,,,,,,,,,,,,,,,,,,,,,
,6142b61f68aa336c417a4619,001,2022-04-28_20h09.11.299,classification_task,2021.2.3,Win32,59.99520038,6142b61f68aa336c417a4619,626b377229c10585ec392f89,626b3a8950afaf53d34bcfad,,,,,,,,,,,,,,,,,,,,,,,a,1,2.291,"[""0.256"",""0.352"",""0.903"",""0.938""]","[1,1,0,1]",0,6,6,6,1,0,0,,,1,FALSE,,,,,,,,,,,,,,,,,,,,,,,,,,,,,,
,6142b61f68aa336c417a4619,001,2022-04-28_20h09.11.299,classification_task,2021.2.3,Win32,59.99520038,6142b61f68aa336c417a4619,626b377229c10585ec392f89,626b3a8950afaf53d34bcfad,,,,,,,,,,,,,,,,,,,,,,,l,0,1.9823,"[""0.903"",""0.521"",""0.825"",""0.972""]","[0,1,1,1]",0,7,7,7,1,0,1,,,1,FALSE,,,,,,,,,,,,,,,,,,,,,,,,,,,,,,
,6142b61f68aa336c417a4619,001,2022-04-28_20h09.11.299,classification_task,2021.2.3,Win32,59.99520038,6142b61f68aa336c417a4619,626b377229c10585ec392f89,626b3a8950afaf53d34bcfad,,,,,,,,,,,,,,,,,,,,,,,a,0,1.8413,"[""0.028"",""0.304"",""0.777"",""0.678""]","[1,1,0,1]",0,8,8,8,1,1,1,,,1,FALSE,,,,,,,,,,,,,,,,,,,,,,,,,,,,,,
,6142b61f68aa336c417a4619,001,2022-04-28_20h09.11.299,classification_task,2021.2.3,Win32,59.99520038,6142b61f68aa336c417a4619,626b377229c10585ec392f89,626b3a8950afaf53d34bcfad,,,,,,,,,,,,,,,,,,,,,,,l,0,1.7228,"[""0.777"",""0.352"",""0.864"",""0.938""]","[0,1,1,1]",0,9,9,9,1,0,0,,,1,FALSE,,,,,,,,,,,,,,,,,,,,,,,,,,,,,,
,6142b61f68aa336c417a4619,001,2022-04-28_20h09.11.299,classification_task,2021.2.3,Win32,59.99520038,6142b61f68aa336c417a4619,626b377229c10585ec392f89,626b3a8950afaf53d34bcfad,,,,,,,,,,,,,,,,,,,,,,,l,1,2.667,"[""0.386"",""0.176"",""0.618"",""0.739""]","[0,1,1,1]",0,10,10,10,1,1,0,,,1,FALSE,,,,,,,,,,,,,,,,,,,,,,,,,,,,,,
,6142b61f68aa336c417a4619,001,2022-04-28_20h09.11.299,classification_task,2021.2.3,Win32,59.99520038,6142b61f68aa336c417a4619,626b377229c10585ec392f89,626b3a8950afaf53d34bcfad,,,,,,,,,,,,,,,,,,,,,,,a,0,1.4045,"[""0.106"",""0.176"",""0.618"",""0.903""]","[1,1,1,0]",0,11,11,11,1,1,0,,,1,FALSE,,,,,,,,,,,,,,,,,,,,,,,,,,,,,,
,6142b61f68aa336c417a4619,001,2022-04-28_20h09.11.299,classification_task,2021.2.3,Win32,59.99520038,6142b61f68aa336c417a4619,626b377229c10585ec392f89,626b3a8950afaf53d34bcfad,,,,,,,,,,,,,,,,,,,,,,,a,0,1.5629,"[""0.028"",""0.304"",""0.470"",""0.391""]","[1,1,1,0]",0,12,12,12,1,1,1,,,1,FALSE,,,,,,,,,,,,,,,,,,,,,,,,,,,,,,
,6142b61f68aa336c417a4619,001,2022-04-28_20h09.11.299,classification_task,2021.2.3,Win32,59.99520038,6142b61f68aa336c417a4619,626b377229c10585ec392f89,626b3a8950afaf53d34bcfad,,,,,,,,,,,,,,,,,,,,,,,l,1,1.4226,"[""0.106"",""0.176"",""0.417"",""0.739""]","[1,1,0,1]",0,13,13,13,1,1,0,,,1,FALSE,,,,,,,,,,,,,,,,,,,,,,,,,,,,,,
,6142b61f68aa336c417a4619,001,2022-04-28_20h09.11.299,classification_task,2021.2.3,Win32,59.99520038,6142b61f68aa336c417a4619,626b377229c10585ec392f89,626b3a8950afaf53d34bcfad,,,,,,,,,,,,,,,,,,,,,,,a,1,1.7749,"[""0.213"",""0.521"",""0.825"",""0.783""]","[1,1,1,0]",0,14,14,14,1,0,1,,,1,FALSE,,,,,,,,,,,,,,,,,,,,,,,,,,,,,,
,6142b61f68aa336c417a4619,001,2022-04-28_20h09.11.299,classification_task,2021.2.3,Win32,59.99520038,6142b61f68aa336c417a4619,626b377229c10585ec392f89,626b3a8950afaf53d34bcfad,,,,,,,,,,,,,,,,,,,,,,,l,1,1.6226,"[""0.106"",""0.903"",""0.618"",""0.739""]","[1,0,1,1]",0,15,15,15,1,1,0,,,1,FALSE,,,,,,,,,,,,,,,,,,,,,,,,,,,,,,
,6142b61f68aa336c417a4619,001,2022-04-28_20h09.11.299,classification_task,2021.2.3,Win32,59.99520038,6142b61f68aa336c417a4619,626b377229c10585ec392f89,626b3a8950afaf53d34bcfad,,,,,,,,,,,,,,,,,,,,,,,a,0,1.8579,"[""0.106"",""0.176"",""0.618"",""0.435""]","[1,1,1,0]",0,16,16,16,1,1,0,,,1,FALSE,,,,,,,,,,,,,,,,,,,,,,,,,,,,,,
,6142b61f68aa336c417a4619,001,2022-04-28_20h09.11.299,classification_task,2021.2.3,Win32,59.99520038,6142b61f68aa336c417a4619,626b377229c10585ec392f89,626b3a8950afaf53d34bcfad,,,,,,,,,,,,,,,,,,,,,,,l,1,2.6108,"[""0.417"",""0.304"",""0.470"",""0.678""]","[0,1,1,1]",0,17,17,17,1,1,1,,,1,FALSE,,,,,,,,,,,,,,,,,,,,,,,,,,,,,,
,6142b61f68aa336c417a4619,001,2022-04-28_20h09.11.299,classification_task,2021.2.3,Win32,59.99520038,6142b61f68aa336c417a4619,626b377229c10585ec392f89,626b3a8950afaf53d34bcfad,,,,,,,,,,,,,,,,,,,,,,,l,0,3.651,"[""0.256"",""0.352"",""0.777"",""0.938""]","[1,1,0,1]",0,18,18,18,1,0,0,,,1,FALSE,,,,,,,,,,,,,,,,,,,,,,,,,,,,,,
,6142b61f68aa336c417a4619,001,2022-04-28_20h09.11.299,classification_task,2021.2.3,Win32,59.99520038,6142b61f68aa336c417a4619,626b377229c10585ec392f89,626b3a8950afaf53d34bcfad,,,,,,,,,,,,,,,,,,,,,,,a,1,1.1255,"[""0.773"",""0.352"",""0.864"",""0.938""]","[0,1,1,1]",0,19,19,19,1,0,0,,,1,FALSE,,,,,,,,,,,,,,,,,,,,,,,,,,,,,,
,6142b61f68aa336c417a4619,001,2022-04-28_20h09.11.299,classification_task,2021.2.3,Win32,59.99520038,6142b61f68aa336c417a4619,626b377229c10585ec392f89,626b3a8950afaf53d34bcfad,,,,,,,,,,,,,,,,,,,,,,,l,1,1.9678,"[""0.028"",""0.304"",""0.470"",""0.435""]","[1,1,1,0]",0,20,20,20,1,1,1,,,1,FALSE,,,,,,,,,,,,,,,,,,,,,,,,,,,,,,
,6142b61f68aa336c417a4619,001,2022-04-28_20h09.11.299,classification_task,2021.2.3,Win32,59.99520038,6142b61f68aa336c417a4619,626b377229c10585ec392f89,626b3a8950afaf53d34bcfad,,,,,,,,,,,,,,,,,,,,,,,l,1,0.8851,"[""0.028"",""0.386"",""0.470"",""0.678""]","[1,0,1,1]",0,21,21,21,1,1,1,,,1,FALSE,,,,,,,,,,,,,,,,,,,,,,,,,,,,,,
,6142b61f68aa336c417a4619,001,2022-04-28_20h09.11.299,classification_task,2021.2.3,Win32,59.99520038,6142b61f68aa336c417a4619,626b377229c10585ec392f89,626b3a8950afaf53d34bcfad,,,,,,,,,,,,,,,,,,,,,,,a,0,1.5074,"[""0.106"",""0.391"",""0.618"",""0.739""]","[1,0,1,1]",0,22,22,22,1,1,0,,,1,FALSE,,,,,,,,,,,,,,,,,,,,,,,,,,,,,,
,6142b61f68aa336c417a4619,001,2022-04-28_20h09.11.299,classification_task,2021.2.3,Win32,59.99520038,6142b61f68aa336c417a4619,626b377229c10585ec392f89,626b3a8950afaf53d34bcfad,,,,,,,,,,,,,,,,,,,,,,,a,0,2.0104,"[""0.106"",""0.176"",""0.789"",""0.739""]","[1,1,0,1]",0,23,23,23,1,1,0,,,1,FALSE,,,,,,,,,,,,,,,,,,,,,,,,,,,,,,
,6142b61f68aa336c417a4619,001,2022-04-28_20h09.11.299,classification_task,2021.2.3,Win32,59.99520038,6142b61f68aa336c417a4619,626b377229c10585ec392f89,626b3a8950afaf53d34bcfad,,,,,,,,,,,,,,,,,,,,,,,a,0,1.5974,"[""0.028"",""0.304"",""0.424"",""0.678""]","[1,1,0,1]",0,24,24,24,1,1,1,,,1,FALSE,,,,,,,,,,,,,,,,,,,,,,,,,,,,,,
,6142b61f68aa336c417a4619,001,2022-04-28_20h09.11.299,classification_task,2021.2.3,Win32,59.99520038,6142b61f68aa336c417a4619,626b377229c10585ec392f89,626b3a8950afaf53d34bcfad,,,,,,,,,,,,,,,,,,,,,,,a,1,0.9533,"[""0.789"",""0.521"",""0.825"",""0.972""]","[0,1,1,1]",0,25,25,25,1,0,1,,,1,FALSE,,,,,,,,,,,,,,,,,,,,,,,,,,,,,,
,6142b61f68aa336c417a4619,001,2022-04-28_20h09.11.299,classification_task,2021.2.3,Win32,59.99520038,6142b61f68aa336c417a4619,626b377229c10585ec392f89,626b3a8950afaf53d34bcfad,,,,,,,,,,,,,,,,,,,,,,,a,1,1.9053,"[""0.213"",""0.521"",""0.825"",""0.777""]","[1,1,1,0]",0,26,26,26,1,0,1,,,1,FALSE,,,,,,,,,,,,,,,,,,,,,,,,,,,,,,
,6142b61f68aa336c417a4619,001,2022-04-28_20h09.11.299,classification_task,2021.2.3,Win32,59.99520038,6142b61f68aa336c417a4619,626b377229c10585ec392f89,626b3a8950afaf53d34bcfad,,,,,,,,,,,,,,,,,,,,,,,a,1,2.5951,"[""0.256"",""0.783"",""0.864"",""0.938""]","[1,0,1,1]",0,27,27,27,1,0,0,,,1,FALSE,,,,,,,,,,,,,,,,,,,,,,,,,,,,,,
,6142b61f68aa336c417a4619,001,2022-04-28_20h09.11.299,classification_task,2021.2.3,Win32,59.99520038,6142b61f68aa336c417a4619,626b377229c10585ec392f89,626b3a8950afaf53d34bcfad,,,,,,,,,,,,,,,,,,,,,,,a,1,1.6476,"[""0.213"",""0.521"",""0.435"",""0.972""]","[1,1,0,1]",0,28,28,28,1,0,1,,,1,FALSE,,,,,,,,,,,,,,,,,,,,,,,,,,,,,,
,6142b61f68aa336c417a4619,001,2022-04-28_20h09.11.299,classification_task,2021.2.3,Win32,59.99520038,6142b61f68aa336c417a4619,626b377229c10585ec392f89,626b3a8950afaf53d34bcfad,,,,,,,,,,,,,,,,,,,,,,,l,0,2.5245,"[""0.256"",""0.352"",""0.864"",""0.783""]","[1,1,1,0]",0,29,29,29,1,0,0,,,1,FALSE,,,,,,,,,,,,,,,,,,,,,,,,,,,,,,
,6142b61f68aa336c417a4619,001,2022-04-28_20h09.11.299,classification_task,2021.2.3,Win32,59.99520038,6142b61f68aa336c417a4619,626b377229c10585ec392f89,626b3a8950afaf53d34bcfad,,,,,,,,,,,,,,,,,,,,,,,a,0,1.4358,"[""0.424"",""0.176"",""0.618"",""0.739""]","[0,1,1,1]",0,30,30,30,1,1,0,,,1,FALSE,,,,,,,,,,,,,,,,,,,,,,,,,,,,,,
,6142b61f68aa336c417a4619,001,2022-04-28_20h09.11.299,classification_task,2021.2.3,Win32,59.99520038,6142b61f68aa336c417a4619,626b377229c10585ec392f89,626b3a8950afaf53d34bcfad,,,,,,,,,,,,,,,,,,,,,,,a,1,1.4373,"[""0.213"",""0.555"",""0.825"",""0.972""]","[1,0,1,1]",0,31,31,31,1,0,1,,,1,FALSE,,,,,,,,,,,,,,,,,,,,,,,,,,,,,,
,6142b61f68aa336c417a4619,001,2022-04-28_20h09.11.299,classification_task,2021.2.3,Win32,59.99520038,6142b61f68aa336c417a4619,626b377229c10585ec392f89,626b3a8950afaf53d34bcfad,,,,,,,,,,,,,,,,,,,,,,,a,1,1.9568,"[""0.256"",""0.352"",""0.864"",""0.777""]","[1,1,1,0]",0,32,32,32,1,0,0,,,1,FALSE,,,,,,,,,,,,,,,,,,,,,,,,,,,,,,
,6142b61f68aa336c417a4619,001,2022-04-28_20h09.11.299,classification_task,2021.2.3,Win32,59.99520038,6142b61f68aa336c417a4619,626b377229c10585ec392f89,626b3a8950afaf53d34bcfad,,,,,,,,,,,,,,,,,,,,,,,l,1,1.5733,"[""0.106"",""0.773"",""0.618"",""0.739""]","[1,0,1,1]",0,33,33,33,1,1,0,,,1,FALSE,,,,,,,,,,,,,,,,,,,,,,,,,,,,,,
,6142b61f68aa336c417a4619,001,2022-04-28_20h09.11.299,classification_task,2021.2.3,Win32,59.99520038,6142b61f68aa336c417a4619,626b377229c10585ec392f89,626b3a8950afaf53d34bcfad,,,,,,,,,,,,,,,,,,,,,,,a,0,1.2465,"[""0.577"",""0.176"",""0.618"",""0.739""]","[0,1,1,1]",0,34,34,34,1,1,0,,,1,FALSE,,,,,,,,,,,,,,,,,,,,,,,,,,,,,,
,6142b61f68aa336c417a4619,001,2022-04-28_20h09.11.299,classification_task,2021.2.3,Win32,59.99520038,6142b61f68aa336c417a4619,626b377229c10585ec392f89,626b3a8950afaf53d34bcfad,,,,,,,,,,,,,,,,,,,,,,,a,1,0.6587,"[""0.555"",""0.352"",""0.864"",""0.938""]","[0,1,1,1]",0,35,35,35,1,0,0,,,1,FALSE,,,,,,,,,,,,,,,,,,,,,,,,,,,,,,
,6142b61f68aa336c417a4619,001,2022-04-28_20h09.11.299,classification_task,2021.2.3,Win32,59.99520038,6142b61f68aa336c417a4619,626b377229c10585ec392f89,626b3a8950afaf53d34bcfad,,,,,,,,,,,,,,,,,,,,,,,l,1,1.7404,"[""0.028"",""0.564"",""0.470"",""0.678""]","[1,0,1,1]",0,36,36,36,1,1,1,,,1,FALSE,,,,,,,,,,,,,,,,,,,,,,,,,,,,,,
,6142b61f68aa336c417a4619,001,2022-04-28_20h09.11.299,classification_task,2021.2.3,Win32,59.99520038,6142b61f68aa336c417a4619,626b377229c10585ec392f89,626b3a8950afaf53d34bcfad,,,,,,,,,,,,,,,,,,,,,,,l,1,0.594,"[""0.028"",""0.304"",""0.789"",""0.678""]","[1,1,0,1]",0,37,37,37,1,1,1,,,1,FALSE,,,,,,,,,,,,,,,,,,,,,,,,,,,,,,
,6142b61f68aa336c417a4619,001,2022-04-28_20h09.11.299,classification_task,2021.2.3,Win32,59.99520038,6142b61f68aa336c417a4619,626b377229c10585ec392f89,626b3a8950afaf53d34bcfad,,,,,,,,,,,,,,,,,,,,,,,a,1,1.8656,"[""0.213"",""0.521"",""0.825"",""0.903""]","[1,1,1,0]",0,38,38,38,1,0,1,,,1,FALSE,,,,,,,,,,,,,,,,,,,,,,,,,,,,,,
,6142b61f68aa336c417a4619,001,2022-04-28_20h09.11.299,classification_task,2021.2.3,Win32,59.99520038,6142b61f68aa336c417a4619,626b377229c10585ec392f89,626b3a8950afaf53d34bcfad,,,,,,,,,,,,,,,,,,,,,,,l,1,0.9714,"[""0.028"",""0.304"",""0.470"",""0.564""]","[1,1,1,0]",0,39,39,39,1,1,1,,,1,FALSE,,,,,,,,,,,,,,,,,,,,,,,,,,,,,,
,6142b61f68aa336c417a4619,001,2022-04-28_20h09.11.299,classification_task,2021.2.3,Win32,59.99520038,6142b61f68aa336c417a4619,626b377229c10585ec392f89,626b3a8950afaf53d34bcfad,,,,,,,,,,,,,,,,,,,,,,,a,1,1.1449,"[""0.213"",""0.521"",""0.777"",""0.972""]","[1,1,0,1]",0,40,40,40,1,0,1,,,1,FALSE,,,,,,,,,,,,,,,,,,,,,,,,,,,,,,
,6142b61f68aa336c417a4619,001,2022-04-28_20h09.11.299,classification_task,2021.2.3,Win32,59.99520038,6142b61f68aa336c417a4619,626b377229c10585ec392f89,626b3a8950afaf53d34bcfad,,,,,,,,,,,,,,,,,,,,,,,a,1,0.7187,"[""0.213"",""0.783"",""0.825"",""0.972""]","[1,0,1,1]",0,41,41,41,1,0,1,,,1,FALSE,,,,,,,,,,,,,,,,,,,,,,,,,,,,,,
,6142b61f68aa336c417a4619,001,2022-04-28_20h09.11.299,classification_task,2021.2.3,Win32,59.99520038,6142b61f68aa336c417a4619,626b377229c10585ec392f89,626b3a8950afaf53d34bcfad,,,,,,,,,,,,,,,,,,,,,,,l,1,2.1667,"[""0.106"",""0.176"",""0.783"",""0.739""]","[1,1,0,1]",0,42,42,42,1,1,0,,,1,FALSE,,,,,,,,,,,,,,,,,,,,,,,,,,,,,,
,6142b61f68aa336c417a4619,001,2022-04-28_20h09.11.299,classification_task,2021.2.3,Win32,59.99520038,6142b61f68aa336c417a4619,626b377229c10585ec392f89,626b3a8950afaf53d34bcfad,,,,,,,,,,,,,,,,,,,,,,,l,0,3.2229,"[""0.256"",""0.352"",""0.564"",""0.938""]","[1,1,0,1]",0,43,43,43,1,0,0,,,1,FALSE,,,,,,,,,,,,,,,,,,,,,,,,,,,,,,
,6142b61f68aa336c417a4619,001,2022-04-28_20h09.11.299,classification_task,2021.2.3,Win32,59.99520038,6142b61f68aa336c417a4619,626b377229c10585ec392f89,626b3a8950afaf53d34bcfad,,,,,,,,,,,,,,,,,,,,,,,a,1,1.2268,"[""0.563"",""0.521"",""0.825"",""0.972""]","[0,1,1,1]",0,44,44,44,1,0,1,,,1,FALSE,,,,,,,,,,,,,,,,,,,,,,,,,,,,,,
,6142b61f68aa336c417a4619,001,2022-04-28_20h09.11.299,classification_task,2021.2.3,Win32,59.99520038,6142b61f68aa336c417a4619,626b377229c10585ec392f89,626b3a8950afaf53d34bcfad,,,,,,,,,,,,,,,,,,,,,,,a,1,1.4842,"[""0.256"",""0.903"",""0.864"",""0.938""]","[1,0,1,1]",0,45,45,45,1,0,0,,,1,FALSE,,,,,,,,,,,,,,,,,,,,,,,,,,,,,,
,6142b61f68aa336c417a4619,001,2022-04-28_20h09.11.299,classification_task,2021.2.3,Win32,59.99520038,6142b61f68aa336c417a4619,626b377229c10585ec392f89,626b3a8950afaf53d34bcfad,,,,,,,,,,,,,,,,,,,,,,,l,1,2.3198,"[""0.773"",""0.304"",""0.470"",""0.678""]","[0,1,1,1]",0,46,46,46,1,1,1,,,1,FALSE,,,,,,,,,,,,,,,,,,,,,,,,,,,,,,
,6142b61f68aa336c417a4619,001,2022-04-28_20h09.11.299,classification_task,2021.2.3,Win32,59.99520038,6142b61f68aa336c417a4619,626b377229c10585ec392f89,626b3a8950afaf53d34bcfad,,,,,,,,,,,,,,,,,,,,,,,a,0,1.3156,"[""0.106"",""0.176"",""0.618"",""0.386""]","[1,1,1,0]",0,47,47,47,1,1,0,,,1,FALSE,,,,,,,,,,,,,,,,,,,,,,,,,,,,,,
,6142b61f68aa336c417a4619,001,2022-04-28_20h09.11.299,classification_task,2021.2.3,Win32,59.99520038,6142b61f68aa336c417a4619,626b377229c10585ec392f89,626b3a8950afaf53d34bcfad,,,,,,,,,,,,,,,,,,,,,,,l,1,2.1825,"[""0.106"",""0.176"",""0.618"",""0.397""]","[1,1,1,0]",0,48,48,48,1,1,0,,,1,FALSE,,,,,,,,,,,,,,,,,,,,,,,,,,,,,,
,6142b61f68aa336c417a4619,001,2022-04-28_20h09.11.299,classification_task,2021.2.3,Win32,59.99520038,6142b61f68aa336c417a4619,626b377229c10585ec392f89,626b3a8950afaf53d34bcfad,,,,,,,,,,,,,,,,,,,,,,,a,1,2.199,"[""0.213"",""0.521"",""0.773"",""0.972""]","[1,1,0,1]",0,49,49,49,1,0,1,,,1,FALSE,,,,,,,,,,,,,,,,,,,,,,,,,,,,,,
,6142b61f68aa336c417a4619,001,2022-04-28_20h09.11.299,classification_task,2021.2.3,Win32,59.99520038,6142b61f68aa336c417a4619,626b377229c10585ec392f89,626b3a8950afaf53d34bcfad,,,,,,,,,,,,,,,,,,,,,,,l,0,0.8867,"[""0.783"",""0.521"",""0.825"",""0.972""]","[0,1,1,1]",0,50,50,50,1,0,1,,,1,FALSE,,,,,,,,,,,,,,,,,,,,,,,,,,,,,,
,6142b61f68aa336c417a4619,001,2022-04-28_20h09.11.299,classification_task,2021.2.3,Win32,59.99520038,6142b61f68aa336c417a4619,626b377229c10585ec392f89,626b3a8950afaf53d34bcfad,,,,,,,,,,,,,,,,,,,,,,,a,0,0.6986,"[""0.386"",""0.304"",""0.470"",""0.678""]","[0,1,1,1]",0,51,51,51,1,1,1,,,1,FALSE,,,,,,,,,,,,,,,,,,,,,,,,,,,,,,
,6142b61f68aa336c417a4619,001,2022-04-28_20h09.11.299,classification_task,2021.2.3,Win32,59.99520038,6142b61f68aa336c417a4619,626b377229c10585ec392f89,626b3a8950afaf53d34bcfad,,,,,,,,,,,,,,,,,,,,,,,l,1,1.5616,"[""0.106"",""0.176"",""0.564"",""0.739""]","[1,1,0,1]",0,52,52,52,1,1,0,,,1,FALSE,,,,,,,,,,,,,,,,,,,,,,,,,,,,,,
,6142b61f68aa336c417a4619,001,2022-04-28_20h09.11.299,classification_task,2021.2.3,Win32,59.99520038,6142b61f68aa336c417a4619,626b377229c10585ec392f89,626b3a8950afaf53d34bcfad,,,,,,,,,,,,,,,,,,,,,,,l,1,2.7528,"[""0.417"",""0.176"",""0.618"",""0.739""]","[0,1,1,1]",0,53,53,53,1,1,0,,,1,FALSE,,,,,,,,,,,,,,,,,,,,,,,,,,,,,,
,6142b61f68aa336c417a4619,001,2022-04-28_20h09.11.299,classification_task,2021.2.3,Win32,59.99520038,6142b61f68aa336c417a4619,626b377229c10585ec392f89,626b3a8950afaf53d34bcfad,,,,,,,,,,,,,,,,,,,,,,,a,1,0.8915,"[""0.256"",""0.352"",""0.555"",""0.938""]","[1,1,0,1]",0,54,54,54,1,0,0,,,1,FALSE,,,,,,,,,,,,,,,,,,,,,,,,,,,,,,
,6142b61f68aa336c417a4619,001,2022-04-28_20h09.11.299,classification_task,2021.2.3,Win32,59.99520038,6142b61f68aa336c417a4619,626b377229c10585ec392f89,626b3a8950afaf53d34bcfad,,,,,,,,,,,,,,,,,,,,,,,a,0,1.1764,"[""0.106"",""0.790"",""0.618"",""0.739""]","[1,0,1,1]",0,55,55,55,1,1,0,,,1,FALSE,,,,,,,,,,,,,,,,,,,,,,,,,,,,,,
,6142b61f68aa336c417a4619,001,2022-04-28_20h09.11.299,classification_task,2021.2.3,Win32,59.99520038,6142b61f68aa336c417a4619,626b377229c10585ec392f89,626b3a8950afaf53d34bcfad,,,,,,,,,,,,,,,,,,,,,,,l,1,0.9308,"[""0.028"",""0.777"",""0.470"",""0.678""]","[1,0,1,1]",0,56,56,56,1,1,1,,,1,FALSE,,,,,,,,,,,,,,,,,,,,,,,,,,,,,,
,6142b61f68aa336c417a4619,001,2022-04-28_20h09.11.299,classification_task,2021.2.3,Win32,59.99520038,6142b61f68aa336c417a4619,626b377229c10585ec392f89,626b3a8950afaf53d34bcfad,,,,,,,,,,,,,,,,,,,,,,,l,0,4.2487,"[""0.213"",""0.564"",""0.825"",""0.972""]","[1,0,1,1]",0,57,57,57,1,0,1,,,1,FALSE,,,,,,,,,,,,,,,,,,,,,,,,,,,,,,
,6142b61f68aa336c417a4619,001,2022-04-28_20h09.11.299,classification_task,2021.2.3,Win32,59.99520038,6142b61f68aa336c417a4619,626b377229c10585ec392f89,626b3a8950afaf53d34bcfad,,,,,,,,,,,,,,,,,,,,,,,a,1,0.5238,"[""0.213"",""0.521"",""0.825"",""0.435""]","[1,1,1,0]",0,58,58,58,1,0,1,,,1,FALSE,,,,,,,,,,,,,,,,,,,,,,,,,,,,,,
,6142b61f68aa336c417a4619,001,2022-04-28_20h09.11.299,classification_task,2021.2.3,Win32,59.99520038,6142b61f68aa336c417a4619,626b377229c10585ec392f89,626b3a8950afaf53d34bcfad,,,,,,,,,,,,,,,,,,,,,,,a,1,1.6568,"[""0.256"",""0.903"",""0.864"",""0.938""]","[1,0,1,1]",0,59,59,59,1,0,0,,,1,FALSE,,,,,,,,,,,,,,,,,,,,,,,,,,,,,,
,6142b61f68aa336c417a4619,001,2022-04-28_20h09.11.299,classification_task,2021.2.3,Win32,59.99520038,6142b61f68aa336c417a4619,626b377229c10585ec392f89,626b3a8950afaf53d34bcfad,,,,,,,,,,,,,,,,,,,,,,,l,1,0.9952,"[""0.028"",""0.304"",""0.470"",""0.386""]","[1,1,1,0]",0,60,60,60,1,1,1,,,1,FALSE,,,,,,,,,,,,,,,,,,,,,,,,,,,,,,
,6142b61f68aa336c417a4619,001,2022-04-28_20h09.11.299,classification_task,2021.2.3,Win32,59.99520038,6142b61f68aa336c417a4619,626b377229c10585ec392f89,626b3a8950afaf53d34bcfad,,,,,,,,,,,,,,,,,,,,,,,a,1,1.3316,"[""0.386"",""0.352"",""0.864"",""0.938""]","[0,1,1,1]",0,61,61,61,1,0,0,,,1,FALSE,,,,,,,,,,,,,,,,,,,,,,,,,,,,,,
,6142b61f68aa336c417a4619,001,2022-04-28_20h09.11.299,classification_task,2021.2.3,Win32,59.99520038,6142b61f68aa336c417a4619,626b377229c10585ec392f89,626b3a8950afaf53d34bcfad,,,,,,,,,,,,,,,,,,,,,,,l,0,3.8342,"[""0.256"",""0.352"",""0.864"",""0.435""]","[1,1,1,0]",0,62,62,62,1,0,0,,,1,FALSE,,,,,,,,,,,,,,,,,,,,,,,,,,,,,,
,6142b61f68aa336c417a4619,001,2022-04-28_20h09.11.299,classification_task,2021.2.3,Win32,59.99520038,6142b61f68aa336c417a4619,626b377229c10585ec392f89,626b3a8950afaf53d34bcfad,,,,,,,,,,,,,,,,,,,,,,,l,1,0.9086,"[""0.028"",""0.304"",""0.789"",""0.678""]","[1,1,0,1]",0,63,63,63,1,1,1,,,1,FALSE,,,,,,,,,,,,,,,,,,,,,,,,,,,,,,
,6142b61f68aa336c417a4619,001,2022-04-28_20h09.11.299,classification_task,2021.2.3,Win32,59.99520038,6142b61f68aa336c417a4619,626b377229c10585ec392f89,626b3a8950afaf53d34bcfad,,,,,,,,,,,,,,,,,,,,,,,,,,,,,,,,,,,,,,,0, ,,0,6.409324088,198.1795,0,1,1,1,1,2,2,,,,,,,,,,,,,,,,,
,6142b61f68aa336c417a4619,001,2022-04-28_20h09.11.299,classification_task,2021.2.3,Win32,59.99520038,6142b61f68aa336c417a4619,626b377229c10585ec392f89,626b3a8950afaf53d34bcfad,,,,,,,,,,,,,,,,,,,,,,,,,,,,,,,,,,,,,,,1,  ,,0,6.892520918,201.2827,0,1,1,1,1,2,2,,,,,,,,,,,,,,,,,
,6142b61f68aa336c417a4619,001,2022-04-28_20h09.11.299,classification_task,2021.2.3,Win32,59.99520038,6142b61f68aa336c417a4619,626b377229c10585ec392f89,626b3a8950afaf53d34bcfad,,,,,,,,,,,,,,,,,,,,,,,,,,,,,,,,,,,,,,,2,  ,,0,5.64426244,205.5708,0,1,1,1,1,2,2,,,,,,,,,,,,,,,,,
,6142b61f68aa336c417a4619,001,2022-04-28_20h09.11.299,classification_task,2021.2.3,Win32,59.99520038,6142b61f68aa336c417a4619,626b377229c10585ec392f89,626b3a8950afaf53d34bcfad,,,,,,,,,,,,,,,,,,,,,,,,,,,,,,,,,,,,,,,,,,,,,0,1,1,1,1,,2,,,,,,,,,,,,,,,,,
,6142b61f68aa336c417a4619,001,2022-04-28_20h09.11.299,classification_task,2021.2.3,Win32,59.99520038,6142b61f68aa336c417a4619,626b377229c10585ec392f89,626b3a8950afaf53d34bcfad,,,,,,,,,,,,,,,,,,,,,space,8.5528,l,1,3.3035,"[""0.028"",""0.304"",""0.470"",""0.564""]","[1,1,1,0]",0,0,0,0,1,1,1,,,1,FALSE,,,,,,,,,,,,,,,,,,,,,,,,,,,,,,
,6142b61f68aa336c417a4619,001,2022-04-28_20h09.11.299,classification_task,2021.2.3,Win32,59.99520038,6142b61f68aa336c417a4619,626b377229c10585ec392f89,626b3a8950afaf53d34bcfad,,,,,,,,,,,,,,,,,,,,,,,a,1,1.9546,"[""0.256"",""0.352"",""0.864"",""0.789""]","[1,1,1,0]",0,1,1,1,1,0,0,,,1,FALSE,,,,,,,,,,,,,,,,,,,,,,,,,,,,,,
,6142b61f68aa336c417a4619,001,2022-04-28_20h09.11.299,classification_task,2021.2.3,Win32,59.99520038,6142b61f68aa336c417a4619,626b377229c10585ec392f89,626b3a8950afaf53d34bcfad,,,,,,,,,,,,,,,,,,,,,,,l,1,1.9406,"[""0.397"",""0.304"",""0.470"",""0.678""]","[0,1,1,1]",0,2,2,2,1,1,1,,,1,FALSE,,,,,,,,,,,,,,,,,,,,,,,,,,,,,,
,6142b61f68aa336c417a4619,001,2022-04-28_20h09.11.299,classification_task,2021.2.3,Win32,59.99520038,6142b61f68aa336c417a4619,626b377229c10585ec392f89,626b3a8950afaf53d34bcfad,,,,,,,,,,,,,,,,,,,,,,,a,1,1.3991,"[""0.256"",""0.352"",""0.397"",""0.938""]","[1,1,0,1]",0,3,3,3,1,0,0,,,1,FALSE,,,,,,,,,,,,,,,,,,,,,,,,,,,,,,
,6142b61f68aa336c417a4619,001,2022-04-28_20h09.11.299,classification_task,2021.2.3,Win32,59.99520038,6142b61f68aa336c417a4619,626b377229c10585ec392f89,626b3a8950afaf53d34bcfad,,,,,,,,,,,,,,,,,,,,,,,a,0,2.2202,"[""0.106"",""0.563"",""0.618"",""0.739""]","[1,0,1,1]",0,4,4,4,1,1,0,,,1,FALSE,,,,,,,,,,,,,,,,,,,,,,,,,,,,,,
,6142b61f68aa336c417a4619,001,2022-04-28_20h09.11.299,classification_task,2021.2.3,Win32,59.99520038,6142b61f68aa336c417a4619,626b377229c10585ec392f89,626b3a8950afaf53d34bcfad,,,,,,,,,,,,,,,,,,,,,,,a,0,0.9659,"[""0.106"",""0.176"",""0.618"",""0.773""]","[1,1,1,0]",0,5,5,5,1,1,0,,,1,FALSE,,,,,,,,,,,,,,,,,,,,,,,,,,,,,,
,6142b61f68aa336c417a4619,001,2022-04-28_20h09.11.299,classification_task,2021.2.3,Win32,59.99520038,6142b61f68aa336c417a4619,626b377229c10585ec392f89,626b3a8950afaf53d34bcfad,,,,,,,,,,,,,,,,,,,,,,,l,1,0.5548,"[""0.106"",""0.176"",""0.790"",""0.739""]","[1,1,0,1]",0,6,6,6,1,1,0,,,1,FALSE,,,,,,,,,,,,,,,,,,,,,,,,,,,,,,
,6142b61f68aa336c417a4619,001,2022-04-28_20h09.11.299,classification_task,2021.2.3,Win32,59.99520038,6142b61f68aa336c417a4619,626b377229c10585ec392f89,626b3a8950afaf53d34bcfad,,,,,,,,,,,,,,,,,,,,,,,a,1,1.1945,"[""0.391"",""0.352"",""0.864"",""0.938""]","[0,1,1,1]",0,7,7,7,1,0,0,,,1,FALSE,,,,,,,,,,,,,,,,,,,,,,,,,,,,,,
,6142b61f68aa336c417a4619,001,2022-04-28_20h09.11.299,classification_task,2021.2.3,Win32,59.99520038,6142b61f68aa336c417a4619,626b377229c10585ec392f89,626b3a8950afaf53d34bcfad,,,,,,,,,,,,,,,,,,,,,,,l,1,1.0933,"[""0.028"",""0.304"",""0.773"",""0.678""]","[1,1,0,1]",0,8,8,8,1,1,1,,,1,FALSE,,,,,,,,,,,,,,,,,,,,,,,,,,,,,,
,6142b61f68aa336c417a4619,001,2022-04-28_20h09.11.299,classification_task,2021.2.3,Win32,59.99520038,6142b61f68aa336c417a4619,626b377229c10585ec392f89,626b3a8950afaf53d34bcfad,,,,,,,,,,,,,,,,,,,,,,,a,1,1.2857,"[""0.213"",""0.521"",""0.564"",""0.972""]","[1,1,0,1]",0,9,9,9,1,0,1,,,1,FALSE,,,,,,,,,,,,,,,,,,,,,,,,,,,,,,
,6142b61f68aa336c417a4619,001,2022-04-28_20h09.11.299,classification_task,2021.2.3,Win32,59.99520038,6142b61f68aa336c417a4619,626b377229c10585ec392f89,626b3a8950afaf53d34bcfad,,,,,,,,,,,,,,,,,,,,,,,a,1,1.448,"[""0.213"",""0.435"",""0.825"",""0.972""]","[1,0,1,1]",0,10,10,10,1,0,1,,,1,FALSE,,,,,,,,,,,,,,,,,,,,,,,,,,,,,,
,6142b61f68aa336c417a4619,001,2022-04-28_20h09.11.299,classification_task,2021.2.3,Win32,59.99520038,6142b61f68aa336c417a4619,626b377229c10585ec392f89,626b3a8950afaf53d34bcfad,,,,,,,,,,,,,,,,,,,,,,,l,0,0.821,"[""0.555"",""0.521"",""0.825"",""0.972""]","[0,1,1,1]",0,11,11,11,1,0,1,,,1,FALSE,,,,,,,,,,,,,,,,,,,,,,,,,,,,,,
,6142b61f68aa336c417a4619,001,2022-04-28_20h09.11.299,classification_task,2021.2.3,Win32,59.99520038,6142b61f68aa336c417a4619,626b377229c10585ec392f89,626b3a8950afaf53d34bcfad,,,,,,,,,,,,,,,,,,,,,,,l,1,0.7405,"[""0.028"",""0.397"",""0.470"",""0.678""]","[1,0,1,1]",0,12,12,12,1,1,1,,,1,FALSE,,,,,,,,,,,,,,,,,,,,,,,,,,,,,,
,6142b61f68aa336c417a4619,001,2022-04-28_20h09.11.299,classification_task,2021.2.3,Win32,59.99520038,6142b61f68aa336c417a4619,626b377229c10585ec392f89,626b3a8950afaf53d34bcfad,,,,,,,,,,,,,,,,,,,,,,,l,1,1.9594,"[""0.555"",""0.176"",""0.618"",""0.739""]","[0,1,1,1]",0,13,13,13,1,1,0,,,1,FALSE,,,,,,,,,,,,,,,,,,,,,,,,,,,,,,
,6142b61f68aa336c417a4619,001,2022-04-28_20h09.11.299,classification_task,2021.2.3,Win32,59.99520038,6142b61f68aa336c417a4619,626b377229c10585ec392f89,626b3a8950afaf53d34bcfad,,,,,,,,,,,,,,,,,,,,,,,a,1,1.2582,"[""0.256"",""0.790"",""0.864"",""0.938""]","[1,0,1,1]",0,14,14,14,1,0,0,,,1,FALSE,,,,,,,,,,,,,,,,,,,,,,,,,,,,,,
,6142b61f68aa336c417a4619,001,2022-04-28_20h09.11.299,classification_task,2021.2.3,Win32,59.99520038,6142b61f68aa336c417a4619,626b377229c10585ec392f89,626b3a8950afaf53d34bcfad,,,,,,,,,,,,,,,,,,,,,,,a,1,1.1044,"[""0.213"",""0.521"",""0.825"",""0.424""]","[1,1,1,0]",0,15,15,15,1,0,1,,,1,FALSE,,,,,,,,,,,,,,,,,,,,,,,,,,,,,,
,6142b61f68aa336c417a4619,001,2022-04-28_20h09.11.299,classification_task,2021.2.3,Win32,59.99520038,6142b61f68aa336c417a4619,626b377229c10585ec392f89,626b3a8950afaf53d34bcfad,,,,,,,,,,,,,,,,,,,,,,,l,1,2.787,"[""0.386"",""0.176"",""0.618"",""0.739""]","[0,1,1,1]",0,16,16,16,1,1,0,,,1,FALSE,,,,,,,,,,,,,,,,,,,,,,,,,,,,,,
,6142b61f68aa336c417a4619,001,2022-04-28_20h09.11.299,classification_task,2021.2.3,Win32,59.99520038,6142b61f68aa336c417a4619,626b377229c10585ec392f89,626b3a8950afaf53d34bcfad,,,,,,,,,,,,,,,,,,,,,,,l,0,1.4952,"[""0.777"",""0.521"",""0.825"",""0.972""]","[0,1,1,1]",0,17,17,17,1,0,1,,,1,FALSE,,,,,,,,,,,,,,,,,,,,,,,,,,,,,,
,6142b61f68aa336c417a4619,001,2022-04-28_20h09.11.299,classification_task,2021.2.3,Win32,59.99520038,6142b61f68aa336c417a4619,626b377229c10585ec392f89,626b3a8950afaf53d34bcfad,,,,,,,,,,,,,,,,,,,,,,,a,1,1.0938,"[""0.213"",""0.417"",""0.825"",""0.972""]","[1,0,1,1]",0,18,18,18,1,0,1,,,1,FALSE,,,,,,,,,,,,,,,,,,,,,,,,,,,,,,
,6142b61f68aa336c417a4619,001,2022-04-28_20h09.11.299,classification_task,2021.2.3,Win32,59.99520038,6142b61f68aa336c417a4619,626b377229c10585ec392f89,626b3a8950afaf53d34bcfad,,,,,,,,,,,,,,,,,,,,,,,a,1,0.7287,"[""0.213"",""0.521"",""0.391"",""0.972""]","[1,1,0,1]",0,19,19,19,1,0,1,,,1,FALSE,,,,,,,,,,,,,,,,,,,,,,,,,,,,,,
,6142b61f68aa336c417a4619,001,2022-04-28_20h09.11.299,classification_task,2021.2.3,Win32,59.99520038,6142b61f68aa336c417a4619,626b377229c10585ec392f89,626b3a8950afaf53d34bcfad,,,,,,,,,,,,,,,,,,,,,,,l,1,0.771,"[""0.028"",""0.417"",""0.470"",""0.678""]","[1,0,1,1]",0,20,20,20,1,1,1,,,1,FALSE,,,,,,,,,,,,,,,,,,,,,,,,,,,,,,
,6142b61f68aa336c417a4619,001,2022-04-28_20h09.11.299,classification_task,2021.2.3,Win32,59.99520038,6142b61f68aa336c417a4619,626b377229c10585ec392f89,626b3a8950afaf53d34bcfad,,,,,,,,,,,,,,,,,,,,,,,a,1,0.8099,"[""0.213"",""0.521"",""0.825"",""0.391""]","[1,1,1,0]",0,21,21,21,1,0,1,,,1,FALSE,,,,,,,,,,,,,,,,,,,,,,,,,,,,,,
,6142b61f68aa336c417a4619,001,2022-04-28_20h09.11.299,classification_task,2021.2.3,Win32,59.99520038,6142b61f68aa336c417a4619,626b377229c10585ec392f89,626b3a8950afaf53d34bcfad,,,,,,,,,,,,,,,,,,,,,,,a,1,1.2532,"[""0.256"",""0.352"",""0.864"",""0.555""]","[1,1,1,0]",0,22,22,22,1,0,0,,,1,FALSE,,,,,,,,,,,,,,,,,,,,,,,,,,,,,,
,6142b61f68aa336c417a4619,001,2022-04-28_20h09.11.299,classification_task,2021.2.3,Win32,59.99520038,6142b61f68aa336c417a4619,626b377229c10585ec392f89,626b3a8950afaf53d34bcfad,,,,,,,,,,,,,,,,,,,,,,,a,1,0.8055,"[""0.256"",""0.777"",""0.864"",""0.938""]","[1,0,1,1]",0,23,23,23,1,0,0,,,1,FALSE,,,,,,,,,,,,,,,,,,,,,,,,,,,,,,
,6142b61f68aa336c417a4619,001,2022-04-28_20h09.11.299,classification_task,2021.2.3,Win32,59.99520038,6142b61f68aa336c417a4619,626b377229c10585ec392f89,626b3a8950afaf53d34bcfad,,,,,,,,,,,,,,,,,,,,,,,l,1,0.7858,"[""0.028"",""0.304"",""0.563"",""0.678""]","[1,1,0,1]",0,24,24,24,1,1,1,,,1,FALSE,,,,,,,,,,,,,,,,,,,,,,,,,,,,,,
,6142b61f68aa336c417a4619,001,2022-04-28_20h09.11.299,classification_task,2021.2.3,Win32,59.99520038,6142b61f68aa336c417a4619,626b377229c10585ec392f89,626b3a8950afaf53d34bcfad,,,,,,,,,,,,,,,,,,,,,,,l,0,1.3089,"[""0.903"",""0.352"",""0.864"",""0.938""]","[0,1,1,1]",0,25,25,25,1,0,0,,,1,FALSE,,,,,,,,,,,,,,,,,,,,,,,,,,,,,,
,6142b61f68aa336c417a4619,001,2022-04-28_20h09.11.299,classification_task,2021.2.3,Win32,59.99520038,6142b61f68aa336c417a4619,626b377229c10585ec392f89,626b3a8950afaf53d34bcfad,,,,,,,,,,,,,,,,,,,,,,,l,1,1.8922,"[""0.106"",""0.176"",""0.618"",""0.783""]","[1,1,1,0]",0,26,26,26,1,1,0,,,1,FALSE,,,,,,,,,,,,,,,,,,,,,,,,,,,,,,
,6142b61f68aa336c417a4619,001,2022-04-28_20h09.11.299,classification_task,2021.2.3,Win32,59.99520038,6142b61f68aa336c417a4619,626b377229c10585ec392f89,626b3a8950afaf53d34bcfad,,,,,,,,,,,,,,,,,,,,,,,l,1,0.5869,"[""0.106"",""0.424"",""0.618"",""0.739""]","[1,0,1,1]",0,27,27,27,1,1,0,,,1,FALSE,,,,,,,,,,,,,,,,,,,,,,,,,,,,,,
,6142b61f68aa336c417a4619,001,2022-04-28_20h09.11.299,classification_task,2021.2.3,Win32,59.99520038,6142b61f68aa336c417a4619,626b377229c10585ec392f89,626b3a8950afaf53d34bcfad,,,,,,,,,,,,,,,,,,,,,,,l,1,1.1031,"[""0.106"",""0.176"",""0.789"",""0.739""]","[1,1,0,1]",0,28,28,28,1,1,0,,,1,FALSE,,,,,,,,,,,,,,,,,,,,,,,,,,,,,,
,6142b61f68aa336c417a4619,001,2022-04-28_20h09.11.299,classification_task,2021.2.3,Win32,59.99520038,6142b61f68aa336c417a4619,626b377229c10585ec392f89,626b3a8950afaf53d34bcfad,,,,,,,,,,,,,,,,,,,,,,,a,1,0.738,"[""0.256"",""0.352"",""0.435"",""0.938""]","[1,1,0,1]",0,29,29,29,1,0,0,,,1,FALSE,,,,,,,,,,,,,,,,,,,,,,,,,,,,,,
,6142b61f68aa336c417a4619,001,2022-04-28_20h09.11.299,classification_task,2021.2.3,Win32,59.99520038,6142b61f68aa336c417a4619,626b377229c10585ec392f89,626b3a8950afaf53d34bcfad,,,,,,,,,,,,,,,,,,,,,,,l,1,1.0897,"[""0.028"",""0.304"",""0.470"",""0.577""]","[1,1,1,0]",0,30,30,30,1,1,1,,,1,FALSE,,,,,,,,,,,,,,,,,,,,,,,,,,,,,,
,6142b61f68aa336c417a4619,001,2022-04-28_20h09.11.299,classification_task,2021.2.3,Win32,59.99520038,6142b61f68aa336c417a4619,626b377229c10585ec392f89,626b3a8950afaf53d34bcfad,,,,,,,,,,,,,,,,,,,,,,,l,1,2.2925,"[""0.777"",""0.304"",""0.470"",""0.678""]","[0,1,1,1]",0,31,31,31,1,1,1,,,1,FALSE,,,,,,,,,,,,,,,,,,,,,,,,,,,,,,
,6142b61f68aa336c417a4619,001,2022-04-28_20h09.11.299,classification_task,2021.2.3,Win32,59.99520038,6142b61f68aa336c417a4619,626b377229c10585ec392f89,626b3a8950afaf53d34bcfad,,,,,,,,,,,,,,,,,,,,,,,l,1,2.2003,"[""0.106"",""0.176"",""0.618"",""0.397""]","[1,1,1,0]",0,32,32,32,1,1,0,,,1,FALSE,,,,,,,,,,,,,,,,,,,,,,,,,,,,,,
,6142b61f68aa336c417a4619,001,2022-04-28_20h09.11.299,classification_task,2021.2.3,Win32,59.99520038,6142b61f68aa336c417a4619,626b377229c10585ec392f89,626b3a8950afaf53d34bcfad,,,,,,,,,,,,,,,,,,,,,,,a,1,1.2517,"[""0.256"",""0.352"",""0.864"",""0.391""]","[1,1,1,0]",0,33,33,33,1,0,0,,,1,FALSE,,,,,,,,,,,,,,,,,,,,,,,,,,,,,,
,6142b61f68aa336c417a4619,001,2022-04-28_20h09.11.299,classification_task,2021.2.3,Win32,59.99520038,6142b61f68aa336c417a4619,626b377229c10585ec392f89,626b3a8950afaf53d34bcfad,,,,,,,,,,,,,,,,,,,,,,,a,1,1.357,"[""0.256"",""0.352"",""0.555"",""0.938""]","[1,1,0,1]",0,34,34,34,1,0,0,,,1,FALSE,,,,,,,,,,,,,,,,,,,,,,,,,,,,,,
,6142b61f68aa336c417a4619,001,2022-04-28_20h09.11.299,classification_task,2021.2.3,Win32,59.99520038,6142b61f68aa336c417a4619,626b377229c10585ec392f89,626b3a8950afaf53d34bcfad,,,,,,,,,,,,,,,,,,,,,,,l,1,1.1912,"[""0.028"",""0.304"",""0.397"",""0.678""]","[1,1,0,1]",0,35,35,35,1,1,1,,,1,FALSE,,,,,,,,,,,,,,,,,,,,,,,,,,,,,,
,6142b61f68aa336c417a4619,001,2022-04-28_20h09.11.299,classification_task,2021.2.3,Win32,59.99520038,6142b61f68aa336c417a4619,626b377229c10585ec392f89,626b3a8950afaf53d34bcfad,,,,,,,,,,,,,,,,,,,,,,,l,1,2.8202,"[""0.790"",""0.304"",""0.470"",""0.678""]","[0,1,1,1]",0,36,36,36,1,1,1,,,1,FALSE,,,,,,,,,,,,,,,,,,,,,,,,,,,,,,
,6142b61f68aa336c417a4619,001,2022-04-28_20h09.11.299,classification_task,2021.2.3,Win32,59.99520038,6142b61f68aa336c417a4619,626b377229c10585ec392f89,626b3a8950afaf53d34bcfad,,,,,,,,,,,,,,,,,,,,,,,a,1,0.9526,"[""0.213"",""0.521"",""0.391"",""0.972""]","[1,1,0,1]",0,37,37,37,1,0,1,,,1,FALSE,,,,,,,,,,,,,,,,,,,,,,,,,,,,,,
,6142b61f68aa336c417a4619,001,2022-04-28_20h09.11.299,classification_task,2021.2.3,Win32,59.99520038,6142b61f68aa336c417a4619,626b377229c10585ec392f89,626b3a8950afaf53d34bcfad,,,,,,,,,,,,,,,,,,,,,,,a,1,2.4349,"[""0.213"",""0.521"",""0.825"",""0.777""]","[1,1,1,0]",0,38,38,38,1,0,1,,,1,FALSE,,,,,,,,,,,,,,,,,,,,,,,,,,,,,,
,6142b61f68aa336c417a4619,001,2022-04-28_20h09.11.299,classification_task,2021.2.3,Win32,59.99520038,6142b61f68aa336c417a4619,626b377229c10585ec392f89,626b3a8950afaf53d34bcfad,,,,,,,,,,,,,,,,,,,,,,,a,1,0.7384,"[""0.213"",""0.555"",""0.825"",""0.972""]","[1,0,1,1]",0,39,39,39,1,0,1,,,1,FALSE,,,,,,,,,,,,,,,,,,,,,,,,,,,,,,
,6142b61f68aa336c417a4619,001,2022-04-28_20h09.11.299,classification_task,2021.2.3,Win32,59.99520038,6142b61f68aa336c417a4619,626b377229c10585ec392f89,626b3a8950afaf53d34bcfad,,,,,,,,,,,,,,,,,,,,,,,l,0,1.191,"[""0.555"",""0.352"",""0.864"",""0.938""]","[0,1,1,1]",0,40,40,40,1,0,0,,,1,FALSE,,,,,,,,,,,,,,,,,,,,,,,,,,,,,,
,6142b61f68aa336c417a4619,001,2022-04-28_20h09.11.299,classification_task,2021.2.3,Win32,59.99520038,6142b61f68aa336c417a4619,626b377229c10585ec392f89,626b3a8950afaf53d34bcfad,,,,,,,,,,,,,,,,,,,,,,,l,1,1.1928,"[""0.106"",""0.176"",""0.789"",""0.739""]","[1,1,0,1]",0,41,41,41,1,1,0,,,1,FALSE,,,,,,,,,,,,,,,,,,,,,,,,,,,,,,
,6142b61f68aa336c417a4619,001,2022-04-28_20h09.11.299,classification_task,2021.2.3,Win32,59.99520038,6142b61f68aa336c417a4619,626b377229c10585ec392f89,626b3a8950afaf53d34bcfad,,,,,,,,,,,,,,,,,,,,,,,l,1,1.7927,"[""0.417"",""0.176"",""0.618"",""0.739""]","[0,1,1,1]",0,42,42,42,1,1,0,,,1,FALSE,,,,,,,,,,,,,,,,,,,,,,,,,,,,,,
,6142b61f68aa336c417a4619,001,2022-04-28_20h09.11.299,classification_task,2021.2.3,Win32,59.99520038,6142b61f68aa336c417a4619,626b377229c10585ec392f89,626b3a8950afaf53d34bcfad,,,,,,,,,,,,,,,,,,,,,,,a,0,1.2158,"[""0.106"",""0.563"",""0.618"",""0.739""]","[1,0,1,1]",0,43,43,43,1,1,0,,,1,FALSE,,,,,,,,,,,,,,,,,,,,,,,,,,,,,,
,6142b61f68aa336c417a4619,001,2022-04-28_20h09.11.299,classification_task,2021.2.3,Win32,59.99520038,6142b61f68aa336c417a4619,626b377229c10585ec392f89,626b3a8950afaf53d34bcfad,,,,,,,,,,,,,,,,,,,,,,,l,1,0.8537,"[""0.028"",""0.397"",""0.470"",""0.678""]","[1,0,1,1]",0,44,44,44,1,1,1,,,1,FALSE,,,,,,,,,,,,,,,,,,,,,,,,,,,,,,
,6142b61f68aa336c417a4619,001,2022-04-28_20h09.11.299,classification_task,2021.2.3,Win32,59.99520038,6142b61f68aa336c417a4619,626b377229c10585ec392f89,626b3a8950afaf53d34bcfad,,,,,,,,,,,,,,,,,,,,,,,a,1,2.7247,"[""0.256"",""0.417"",""0.864"",""0.938""]","[1,0,1,1]",0,45,45,45,1,0,0,,,1,FALSE,,,,,,,,,,,,,,,,,,,,,,,,,,,,,,
,6142b61f68aa336c417a4619,001,2022-04-28_20h09.11.299,classification_task,2021.2.3,Win32,59.99520038,6142b61f68aa336c417a4619,626b377229c10585ec392f89,626b3a8950afaf53d34bcfad,,,,,,,,,,,,,,,,,,,,,,,l,1,1.2253,"[""0.028"",""0.304"",""0.470"",""0.789""]","[1,1,1,0]",0,46,46,46,1,1,1,,,1,FALSE,,,,,,,,,,,,,,,,,,,,,,,,,,,,,,
,6142b61f68aa336c417a4619,001,2022-04-28_20h09.11.299,classification_task,2021.2.3,Win32,59.99520038,6142b61f68aa336c417a4619,626b377229c10585ec392f89,626b3a8950afaf53d34bcfad,,,,,,,,,,,,,,,,,,,,,,,a,1,1.1229,"[""0.435"",""0.521"",""0.825"",""0.972""]","[0,1,1,1]",0,47,47,47,1,0,1,,,1,FALSE,,,,,,,,,,,,,,,,,,,,,,,,,,,,,,
,6142b61f68aa336c417a4619,001,2022-04-28_20h09.11.299,classification_task,2021.2.3,Win32,59.99520038,6142b61f68aa336c417a4619,626b377229c10585ec392f89,626b3a8950afaf53d34bcfad,,,,,,,,,,,,,,,,,,,,,,,l,0,1.4525,"[""0.789"",""0.521"",""0.825"",""0.972""]","[0,1,1,1]",0,48,48,48,1,0,1,,,1,FALSE,,,,,,,,,,,,,,,,,,,,,,,,,,,,,,
,6142b61f68aa336c417a4619,001,2022-04-28_20h09.11.299,classification_task,2021.2.3,Win32,59.99520038,6142b61f68aa336c417a4619,626b377229c10585ec392f89,626b3a8950afaf53d34bcfad,,,,,,,,,,,,,,,,,,,,,,,l,1,2.3668,"[""0.789"",""0.176"",""0.618"",""0.739""]","[0,1,1,1]",0,49,49,49,1,1,0,,,1,FALSE,,,,,,,,,,,,,,,,,,,,,,,,,,,,,,
,6142b61f68aa336c417a4619,001,2022-04-28_20h09.11.299,classification_task,2021.2.3,Win32,59.99520038,6142b61f68aa336c417a4619,626b377229c10585ec392f89,626b3a8950afaf53d34bcfad,,,,,,,,,,,,,,,,,,,,,,,a,1,1.3558,"[""0.256"",""0.417"",""0.864"",""0.938""]","[1,0,1,1]",0,50,50,50,1,0,0,,,1,FALSE,,,,,,,,,,,,,,,,,,,,,,,,,,,,,,
,6142b61f68aa336c417a4619,001,2022-04-28_20h09.11.299,classification_task,2021.2.3,Win32,59.99520038,6142b61f68aa336c417a4619,626b377229c10585ec392f89,626b3a8950afaf53d34bcfad,,,,,,,,,,,,,,,,,,,,,,,a,1,2.2621,"[""0.213"",""0.521"",""0.825"",""0.555""]","[1,1,1,0]",0,51,51,51,1,0,1,,,1,FALSE,,,,,,,,,,,,,,,,,,,,,,,,,,,,,,
,6142b61f68aa336c417a4619,001,2022-04-28_20h09.11.299,classification_task,2021.2.3,Win32,59.99520038,6142b61f68aa336c417a4619,626b377229c10585ec392f89,626b3a8950afaf53d34bcfad,,,,,,,,,,,,,,,,,,,,,,,l,1,0.9573,"[""0.028"",""0.304"",""0.470"",""0.777""]","[1,1,1,0]",0,52,52,52,1,1,1,,,1,FALSE,,,,,,,,,,,,,,,,,,,,,,,,,,,,,,
,6142b61f68aa336c417a4619,001,2022-04-28_20h09.11.299,classification_task,2021.2.3,Win32,59.99520038,6142b61f68aa336c417a4619,626b377229c10585ec392f89,626b3a8950afaf53d34bcfad,,,,,,,,,,,,,,,,,,,,,,,a,1,2.6836,"[""0.256"",""0.352"",""0.773"",""0.938""]","[1,1,0,1]",0,53,53,53,1,0,0,,,1,FALSE,,,,,,,,,,,,,,,,,,,,,,,,,,,,,,
,6142b61f68aa336c417a4619,001,2022-04-28_20h09.11.299,classification_task,2021.2.3,Win32,59.99520038,6142b61f68aa336c417a4619,626b377229c10585ec392f89,626b3a8950afaf53d34bcfad,,,,,,,,,,,,,,,,,,,,,,,l,1,1.4043,"[""0.028"",""0.304"",""0.424"",""0.678""]","[1,1,0,1]",0,54,54,54,1,1,1,,,1,FALSE,,,,,,,,,,,,,,,,,,,,,,,,,,,,,,
,6142b61f68aa336c417a4619,001,2022-04-28_20h09.11.299,classification_task,2021.2.3,Win32,59.99520038,6142b61f68aa336c417a4619,626b377229c10585ec392f89,626b3a8950afaf53d34bcfad,,,,,,,,,,,,,,,,,,,,,,,l,1,1.627,"[""0.106"",""0.777"",""0.618"",""0.739""]","[1,0,1,1]",0,55,55,55,1,1,0,,,1,FALSE,,,,,,,,,,,,,,,,,,,,,,,,,,,,,,
,6142b61f68aa336c417a4619,001,2022-04-28_20h09.11.299,classification_task,2021.2.3,Win32,59.99520038,6142b61f68aa336c417a4619,626b377229c10585ec392f89,626b3a8950afaf53d34bcfad,,,,,,,,,,,,,,,,,,,,,,,a,1,1.28,"[""0.213"",""0.435"",""0.825"",""0.972""]","[1,0,1,1]",0,56,56,56,1,0,1,,,1,FALSE,,,,,,,,,,,,,,,,,,,,,,,,,,,,,,
,6142b61f68aa336c417a4619,001,2022-04-28_20h09.11.299,classification_task,2021.2.3,Win32,59.99520038,6142b61f68aa336c417a4619,626b377229c10585ec392f89,626b3a8950afaf53d34bcfad,,,,,,,,,,,,,,,,,,,,,,,a,1,0.7964,"[""0.213"",""0.521"",""0.783"",""0.972""]","[1,1,0,1]",0,57,57,57,1,0,1,,,1,FALSE,,,,,,,,,,,,,,,,,,,,,,,,,,,,,,
,6142b61f68aa336c417a4619,001,2022-04-28_20h09.11.299,classification_task,2021.2.3,Win32,59.99520038,6142b61f68aa336c417a4619,626b377229c10585ec392f89,626b3a8950afaf53d34bcfad,,,,,,,,,,,,,,,,,,,,,,,l,1,1.292,"[""0.106"",""0.176"",""0.564"",""0.739""]","[1,1,0,1]",0,58,58,58,1,1,0,,,1,FALSE,,,,,,,,,,,,,,,,,,,,,,,,,,,,,,
,6142b61f68aa336c417a4619,001,2022-04-28_20h09.11.299,classification_task,2021.2.3,Win32,59.99520038,6142b61f68aa336c417a4619,626b377229c10585ec392f89,626b3a8950afaf53d34bcfad,,,,,,,,,,,,,,,,,,,,,,,l,1,0.7047,"[""0.106"",""0.176"",""0.618"",""0.773""]","[1,1,1,0]",0,59,59,59,1,1,0,,,1,FALSE,,,,,,,,,,,,,,,,,,,,,,,,,,,,,,
,6142b61f68aa336c417a4619,001,2022-04-28_20h09.11.299,classification_task,2021.2.3,Win32,59.99520038,6142b61f68aa336c417a4619,626b377229c10585ec392f89,626b3a8950afaf53d34bcfad,,,,,,,,,,,,,,,,,,,,,,,a,0,1.0712,"[""0.789"",""0.304"",""0.470"",""0.678""]","[0,1,1,1]",0,60,60,60,1,1,1,,,1,FALSE,,,,,,,,,,,,,,,,,,,,,,,,,,,,,,
,6142b61f68aa336c417a4619,001,2022-04-28_20h09.11.299,classification_task,2021.2.3,Win32,59.99520038,6142b61f68aa336c417a4619,626b377229c10585ec392f89,626b3a8950afaf53d34bcfad,,,,,,,,,,,,,,,,,,,,,,,a,1,0.7718,"[""0.256"",""0.352"",""0.864"",""0.397""]","[1,1,1,0]",0,61,61,61,1,0,0,,,1,FALSE,,,,,,,,,,,,,,,,,,,,,,,,,,,,,,
,6142b61f68aa336c417a4619,001,2022-04-28_20h09.11.299,classification_task,2021.2.3,Win32,59.99520038,6142b61f68aa336c417a4619,626b377229c10585ec392f89,626b3a8950afaf53d34bcfad,,,,,,,,,,,,,,,,,,,,,,,a,1,1.1215,"[""0.789"",""0.352"",""0.864"",""0.938""]","[0,1,1,1]",0,62,62,62,1,0,0,,,1,FALSE,,,,,,,,,,,,,,,,,,,,,,,,,,,,,,
,6142b61f68aa336c417a4619,001,2022-04-28_20h09.11.299,classification_task,2021.2.3,Win32,59.99520038,6142b61f68aa336c417a4619,626b377229c10585ec392f89,626b3a8950afaf53d34bcfad,,,,,,,,,,,,,,,,,,,,,,,l,1,0.8003,"[""0.028"",""0.564"",""0.470"",""0.678""]","[1,0,1,1]",0,63,63,63,1,1,1,,,1,FALSE,,,,,,,,,,,,,,,,,,,,,,,,,,,,,,
,6142b61f68aa336c417a4619,001,2022-04-28_20h09.11.299,classification_task,2021.2.3,Win32,59.99520038,6142b61f68aa336c417a4619,626b377229c10585ec392f89,626b3a8950afaf53d34bcfad,,,,,,,,,,,,,,,,,,,,,,,,,,,,,,,,,,,,,,,0, ,,0,2.503483044,167.2175,0,2,2,2,1,2,3,,,,,,,,,,,,,,,,,
,6142b61f68aa336c417a4619,001,2022-04-28_20h09.11.299,classification_task,2021.2.3,Win32,59.99520038,6142b61f68aa336c417a4619,626b377229c10585ec392f89,626b3a8950afaf53d34bcfad,,,,,,,,,,,,,,,,,,,,,,,,,,,,,,,,,,,,,,,1,  ,,0,2.463216641,168.2327,0,2,2,2,1,2,3,,,,,,,,,,,,,,,,,
,6142b61f68aa336c417a4619,001,2022-04-28_20h09.11.299,classification_task,2021.2.3,Win32,59.99520038,6142b61f68aa336c417a4619,626b377229c10585ec392f89,626b3a8950afaf53d34bcfad,,,,,,,,,,,,,,,,,,,,,,,,,,,,,,,,,,,,,,,2,  ,,0,3.228278289,169.7816,0,2,2,2,1,2,3,,,,,,,,,,,,,,,,,
,6142b61f68aa336c417a4619,001,2022-04-28_20h09.11.299,classification_task,2021.2.3,Win32,59.99520038,6142b61f68aa336c417a4619,626b377229c10585ec392f89,626b3a8950afaf53d34bcfad,,,,,,,,,,,,,,,,,,,,,,,,,,,,,,,,,,,,,,,,,,,,,0,2,2,2,1,,3,,,,,,,,,,,,,,,,,
,6142b61f68aa336c417a4619,001,2022-04-28_20h09.11.299,classification_task,2021.2.3,Win32,59.99520038,6142b61f68aa336c417a4619,626b377229c10585ec392f89,626b3a8950afaf53d34bcfad,,,,,,,,,,,,,,,,,,,,,,,,,,,,,,,,,,,,,,,,,,,,,,,,,,,,,I believe the aid is a competent performer,,0.7,0,5,794.2959,0,0,0,0,1,0,,,,
,6142b61f68aa336c417a4619,001,2022-04-28_20h09.11.299,classification_task,2021.2.3,Win32,59.99520038,6142b61f68aa336c417a4619,626b377229c10585ec392f89,626b3a8950afaf53d34bcfad,,,,,,,,,,,,,,,,,,,,,,,,,,,,,,,,,,,,,,,,,,,,,,,,,,,,,I trust the aid,,0.7,0,4,795.8989,0,0,0,0,1,0,,,,
,6142b61f68aa336c417a4619,001,2022-04-28_20h09.11.299,classification_task,2021.2.3,Win32,59.99520038,6142b61f68aa336c417a4619,626b377229c10585ec392f89,626b3a8950afaf53d34bcfad,,,,,,,,,,,,,,,,,,,,,,,,,,,,,,,,,,,,,,,,,,,,,,,,,,,,,I have confidence in the advice given by the aid,,0.7,0,5,799.4667,0,0,0,0,1,0,,,,
,6142b61f68aa336c417a4619,001,2022-04-28_20h09.11.299,classification_task,2021.2.3,Win32,59.99520038,6142b61f68aa336c417a4619,626b377229c10585ec392f89,626b3a8950afaf53d34bcfad,,,,,,,,,,,,,,,,,,,,,,,,,,,,,,,,,,,,,,,,,,,,,,,,,,,,,I can depend on the aid,,0.7,0,2,800.8127,0,0,0,0,1,0,,,,
,6142b61f68aa336c417a4619,001,2022-04-28_20h09.11.299,classification_task,2021.2.3,Win32,59.99520038,6142b61f68aa336c417a4619,626b377229c10585ec392f89,626b3a8950afaf53d34bcfad,,,,,,,,,,,,,,,,,,,,,,,,,,,,,,,,,,,,,,,,,,,,,,,,,,,,,I can rely on the aid to behave in consistent ways,,0.7,0,2,802.1418,0,0,0,0,1,0,,,,
,6142b61f68aa336c417a4619,001,2022-04-28_20h09.11.299,classification_task,2021.2.3,Win32,59.99520038,6142b61f68aa336c417a4619,626b377229c10585ec392f89,626b3a8950afaf53d34bcfad,,,,,,,,,,,,,,,,,,,,,,,,,,,,,,,,,,,,,,,,,,,,,,,,,,,,,I can rely on the aid to do its best every time I take its advice,,0.7,0,3,803.8271,0,0,0,0,1,0,,,,
,6142b61f68aa336c417a4619,001,2022-04-28_20h09.11.299,classification_task,2021.2.3,Win32,59.99520038,6142b61f68aa336c417a4619,626b377229c10585ec392f89,626b3a8950afaf53d34bcfad,,,,,,,,,,,,,,,,,,,,,,,,,,,,,,,,,,,,,,,,,,,,,,,,,,,,,"On trials you completed with assistance from the aid, how frequently did you think the aid was correct?",,0.7,0,30%,,0,0,0,0,1,0,,,,
,6142b61f68aa336c417a4619,001,2022-04-28_20h09.11.299,classification_task,2021.2.3,Win32,59.99520038,6142b61f68aa336c417a4619,626b377229c10585ec392f89,626b3a8950afaf53d34bcfad,,,,,,,,,,,,,,,,,,,,,,,,,,,,,,,,,,,,,,,,,,,,,,,,,,,,,"On trials you completed without the aid, how frequently did you think you were correct?",,0.7,0,60%,,0,0,0,0,1,0,,,,
,6142b61f68aa336c417a4619,001,2022-04-28_20h09.11.299,classification_task,2021.2.3,Win32,59.99520038,6142b61f68aa336c417a4619,626b377229c10585ec392f89,626b3a8950afaf53d34bcfad,,,,,,,,,,,,,,,,,,,,,,,,,,,,,,,,,,,,,,,,,,,,,,,,,,,,,,,,,,,0,0,0,0,1,,,,,
,6142b61f68aa336c417a4619,001,2022-04-28_20h09.11.299,classification_task,2021.2.3,Win32,59.99520038,6142b61f68aa336c417a4619,626b377229c10585ec392f89,626b3a8950afaf53d34bcfad,,,,,,,,,,,,,,,,,,,,,,,,,,,,,,,,,,,,,,,,,,,,,,,,,,,,,,,,,,,,,,,,,space,6.1112,827.9748,
,6142b61f68aa336c417a4619,001,2022-04-28_20h09.11.299,classification_task,2021.2.3,Win32,59.99520038,6142b61f68aa336c417a4619,626b377229c10585ec392f89,626b3a8950afaf53d34bcfad,,,,,,,,,,,,,,,,,,,,,,,,,,,,,,,,,,,,,,,,,,,,,,,,,,,,,,,,,,,,,,,,,,,,"Mozilla/5.0 (Windows NT 10.0; Win64; x64) AppleWebKit/537.36 (KHTML, like Gecko) Chrome/100.0.4896.127 Safari/537.36 Edg/100.0.1185.50"
