usingWebGL,participant,session,date,expName,psychopyVersion,OS,frameRate,study_id,signatures_friend,signatures_foe,band_ranges_top,band_ranges_bottom,formitemText,formtype,formundefined,formitemWidth,formindex,formresponse,formrt,key_resp_2.keys,key_resp_2.rt,tute_resp.keys,tute_resp.rt,tutorial.thisRepN,tutorial.thisTrialN,tutorial.thisN,tutorial.thisIndex,tutorial.ran,key_resp_4.keys,key_resp_4.rt,key_resp.keys,key_resp.corr,key_resp.rt,lines_presented,is_signal_presented,trials.thisRepN,trials.thisTrialN,trials.thisN,trials.thisIndex,trials.ran,vessel,active_band,lines,is_signal,supported_pos,catch_trial,debrief_formindex,debrief_formitemText,debrief_formtype,debrief_formitemWidth,debrief_formresponse,debrief_formrt,phases.thisRepN,phases.thisTrialN,phases.thisN,phases.thisIndex,phases.ran,phases.order,phase,key_resp_3.keys,key_resp_3.rt,trustitemText,trusttype,trustitemWidth,trustindex,trustresponse,trustrt,support_status.thisRepN,support_status.thisTrialN,support_status.thisN,support_status.thisIndex,support_status.ran,support_status.order,key_resp_5.keys,key_resp_5.rt,globalClockTime,userAgent,manualCondition
TRUE,61428986257808bc16da05c6,627c6f8e3fdc241f4fe27458,2022-05-11_21h25.33.676,classification_task,2021.2.3,Win32,59.31549914,627c6715c52fd12f31907bcf,,,,,,,,,,,,,,,,,,,,,,,,,,,,,,,,,,,,,,,,,,,,,,,,,,,,,,,,,,,,,,,,,,,,,,
,61428986257808bc16da05c6,627c6f8e3fdc241f4fe27458,2022-05-11_21h25.33.676,classification_task,2021.2.3,Win32,59.31549914,627c6715c52fd12f31907bcf,"[[""0.180"",""0.450"",""0.924"",""0.968""],[""0.325"",""0.416"",""0.687"",""0.883""]]","[[""0.141"",""0.231"",""0.517"",""0.841""],[""0.027"",""0.280"",""0.631"",""0.755""]]","[1,10]","[100,1000]",Video game experience,,,0.7,0,,,,,,,,,,,,,,,,,,,,,,,,,,,,,,,,,,,,,,,,,,,,,,,,,,,,,,,,,,,,,
,61428986257808bc16da05c6,627c6f8e3fdc241f4fe27458,2022-05-11_21h25.33.676,classification_task,2021.2.3,Win32,59.31549914,627c6715c52fd12f31907bcf,,,,,Approximately how many hours did you spend playing video games in the last week?,,,0.7,0,10,,,,,,,,,,,,,,,,,,,,,,,,,,,,,,,,,,,,,,,,,,,,,,,,,,,,,,,,,,,,
,61428986257808bc16da05c6,627c6f8e3fdc241f4fe27458,2022-05-11_21h25.33.676,classification_task,2021.2.3,Win32,59.31549914,627c6715c52fd12f31907bcf,,,,,"Which game did you play the most this year? (Enter ""None"" if you didn't play any)",,,0.7,0,Rocket League,,,,,,,,,,,,,,,,,,,,,,,,,,,,,,,,,,,,,,,,,,,,,,,,,,,,,,,,,,,,
,61428986257808bc16da05c6,627c6f8e3fdc241f4fe27458,2022-05-11_21h25.33.676,classification_task,2021.2.3,Win32,59.31549914,627c6715c52fd12f31907bcf,,,,,Visual perception,,,0.7,0,,,,,,,,,,,,,,,,,,,,,,,,,,,,,,,,,,,,,,,,,,,,,,,,,,,,,,,,,,,,,
,61428986257808bc16da05c6,627c6f8e3fdc241f4fe27458,2022-05-11_21h25.33.676,classification_task,2021.2.3,Win32,59.31549914,627c6715c52fd12f31907bcf,,,,,Do you have any form of color blindness?,,,0.7,0,No,82.9166,,,,,,,,,,,,,,,,,,,,,,,,,,,,,,,,,,,,,,,,,,,,,,,,,,,,,,,,,,,
,61428986257808bc16da05c6,627c6f8e3fdc241f4fe27458,2022-05-11_21h25.33.676,classification_task,2021.2.3,Win32,59.31549914,627c6715c52fd12f31907bcf,,,,,Do you use software to change the colour temperature of your screen (e.g. f.lux)?,,,0.7,0,No,84.638,,,,,,,,,,,,,,,,,,,,,,,,,,,,,,,,,,,,,,,,,,,,,,,,,,,,,,,,,,,
,61428986257808bc16da05c6,627c6f8e3fdc241f4fe27458,2022-05-11_21h25.33.676,classification_task,2021.2.3,Win32,59.31549914,627c6715c52fd12f31907bcf,,,,,,,,,,,,space,227.7633,space,8.0934,0,0,0,0,1,,,,,,,,,,,,,,,,,,,,,,,,,,,,,,,,,,,,,,,,,,,,,,,,,,
,61428986257808bc16da05c6,627c6f8e3fdc241f4fe27458,2022-05-11_21h25.33.676,classification_task,2021.2.3,Win32,59.31549914,627c6715c52fd12f31907bcf,,,,,,,,,,,,,,space,8.0628,1,0,1,0,1,,,,,,,,,,,,,,,,,,,,,,,,,,,,,,,,,,,,,,,,,,,,,,,,,,
,61428986257808bc16da05c6,627c6f8e3fdc241f4fe27458,2022-05-11_21h25.33.676,classification_task,2021.2.3,Win32,59.31549914,627c6715c52fd12f31907bcf,,,,,,,,,,,,,,space,13.893,2,0,2,0,1,,,,,,,,,,,,,,,,,,,,,,,,,,,,,,,,,,,,,,,,,,,,,,,,,,
,61428986257808bc16da05c6,627c6f8e3fdc241f4fe27458,2022-05-11_21h25.33.676,classification_task,2021.2.3,Win32,59.31549914,627c6715c52fd12f31907bcf,,,,,,,,,,,,,,space,12.6835,3,0,3,0,1,,,,,,,,,,,,,,,,,,,,,,,,,,,,,,,,,,,,,,,,,,,,,,,,,,
,61428986257808bc16da05c6,627c6f8e3fdc241f4fe27458,2022-05-11_21h25.33.676,classification_task,2021.2.3,Win32,59.31549914,627c6715c52fd12f31907bcf,,,,,,,,,,,,,,space,10.611,4,0,4,0,1,,,,,,,,,,,,,,,,,,,,,,,,,,,,,,,,,,,,,,,,,,,,,,,,,,
,61428986257808bc16da05c6,627c6f8e3fdc241f4fe27458,2022-05-11_21h25.33.676,classification_task,2021.2.3,Win32,59.31549914,627c6715c52fd12f31907bcf,,,,,,,,,,,,,,,,,,,,,space,14.956,l,1,6.975,"[""0.070"",""0.231"",""0.517"",""0.841""]","[0,1,1,1]",0,0,0,0,1,1,0,,,1,FALSE,,,,,,,,,,,,,,,,,,,,,,,,,,,,,,,,
,61428986257808bc16da05c6,627c6f8e3fdc241f4fe27458,2022-05-11_21h25.33.676,classification_task,2021.2.3,Win32,59.31549914,627c6715c52fd12f31907bcf,,,,,,,,,,,,,,,,,,,,,,,l,1,2.2603,"[""0.027"",""0.280"",""0.631"",""0.563""]","[1,1,1,0]",0,1,1,1,1,1,1,,,1,FALSE,,,,,,,,,,,,,,,,,,,,,,,,,,,,,,,,
,61428986257808bc16da05c6,627c6f8e3fdc241f4fe27458,2022-05-11_21h25.33.676,classification_task,2021.2.3,Win32,59.31549914,627c6715c52fd12f31907bcf,,,,,,,,,,,,,,,,,,,,,,,a,1,1.6668,"[""0.325"",""0.416"",""0.687"",""0.807""]","[1,1,1,0]",0,2,2,2,1,0,1,,,1,FALSE,,,,,,,,,,,,,,,,,,,,,,,,,,,,,,,,
,61428986257808bc16da05c6,627c6f8e3fdc241f4fe27458,2022-05-11_21h25.33.676,classification_task,2021.2.3,Win32,59.31549914,627c6715c52fd12f31907bcf,,,,,,,,,,,,,,,,,,,,,,,l,1,3.511,"[""0.141"",""0.231"",""0.517"",""0.807""]","[1,1,1,0]",0,3,3,3,1,1,0,,,1,FALSE,,,,,,,,,,,,,,,,,,,,,,,,,,,,,,,,
,61428986257808bc16da05c6,627c6f8e3fdc241f4fe27458,2022-05-11_21h25.33.676,classification_task,2021.2.3,Win32,59.31549914,627c6715c52fd12f31907bcf,,,,,,,,,,,,,,,,,,,,,,,a,1,6.4281,"[""0.180"",""0.374"",""0.924"",""0.968""]","[1,0,1,1]",0,4,4,4,1,0,0,,,1,FALSE,,,,,,,,,,,,,,,,,,,,,,,,,,,,,,,,
,61428986257808bc16da05c6,627c6f8e3fdc241f4fe27458,2022-05-11_21h25.33.676,classification_task,2021.2.3,Win32,59.31549914,627c6715c52fd12f31907bcf,,,,,,,,,,,,,,,,,,,,,,,a,1,5.9256,"[""0.180"",""0.450"",""0.924"",""0.070""]","[1,1,1,0]",0,5,5,5,1,0,0,,,1,FALSE,,,,,,,,,,,,,,,,,,,,,,,,,,,,,,,,
,61428986257808bc16da05c6,627c6f8e3fdc241f4fe27458,2022-05-11_21h25.33.676,classification_task,2021.2.3,Win32,59.31549914,627c6715c52fd12f31907bcf,,,,,,,,,,,,,,,,,,,,,,,l,1,5.4928,"[""0.799"",""0.280"",""0.631"",""0.755""]","[0,1,1,1]",0,6,6,6,1,1,1,,,1,FALSE,,,,,,,,,,,,,,,,,,,,,,,,,,,,,,,,
,61428986257808bc16da05c6,627c6f8e3fdc241f4fe27458,2022-05-11_21h25.33.676,classification_task,2021.2.3,Win32,59.31549914,627c6715c52fd12f31907bcf,,,,,,,,,,,,,,,,,,,,,,,a,1,5.4211,"[""0.180"",""0.450"",""0.076"",""0.968""]","[1,1,0,1]",0,7,7,7,1,0,0,,,1,FALSE,,,,,,,,,,,,,,,,,,,,,,,,,,,,,,,,
,61428986257808bc16da05c6,627c6f8e3fdc241f4fe27458,2022-05-11_21h25.33.676,classification_task,2021.2.3,Win32,59.31549914,627c6715c52fd12f31907bcf,,,,,,,,,,,,,,,,,,,,,,,l,1,2.7049,"[""0.027"",""0.788"",""0.631"",""0.755""]","[1,0,1,1]",0,8,8,8,1,1,1,,,1,FALSE,,,,,,,,,,,,,,,,,,,,,,,,,,,,,,,,
,61428986257808bc16da05c6,627c6f8e3fdc241f4fe27458,2022-05-11_21h25.33.676,classification_task,2021.2.3,Win32,59.31549914,627c6715c52fd12f31907bcf,,,,,,,,,,,,,,,,,,,,,,,a,1,3.2559,"[""0.325"",""0.807"",""0.687"",""0.883""]","[1,0,1,1]",0,9,9,9,1,0,1,,,1,FALSE,,,,,,,,,,,,,,,,,,,,,,,,,,,,,,,,
,61428986257808bc16da05c6,627c6f8e3fdc241f4fe27458,2022-05-11_21h25.33.676,classification_task,2021.2.3,Win32,59.31549914,627c6715c52fd12f31907bcf,,,,,,,,,,,,,,,,,,,,,,,l,1,4.0745,"[""0.141"",""0.231"",""0.371"",""0.841""]","[1,1,0,1]",0,10,10,10,1,1,0,,,1,FALSE,,,,,,,,,,,,,,,,,,,,,,,,,,,,,,,,
,61428986257808bc16da05c6,627c6f8e3fdc241f4fe27458,2022-05-11_21h25.33.676,classification_task,2021.2.3,Win32,59.31549914,627c6715c52fd12f31907bcf,,,,,,,,,,,,,,,,,,,,,,,l,1,5.4884,"[""0.141"",""0.070"",""0.517"",""0.841""]","[1,0,1,1]",0,11,11,11,1,1,0,,,1,FALSE,,,,,,,,,,,,,,,,,,,,,,,,,,,,,,,,
,61428986257808bc16da05c6,627c6f8e3fdc241f4fe27458,2022-05-11_21h25.33.676,classification_task,2021.2.3,Win32,59.31549914,627c6715c52fd12f31907bcf,,,,,,,,,,,,,,,,,,,,,,,a,1,5.5665,"[""0.563"",""0.416"",""0.687"",""0.883""]","[0,1,1,1]",0,12,12,12,1,0,1,,,1,FALSE,,,,,,,,,,,,,,,,,,,,,,,,,,,,,,,,
,61428986257808bc16da05c6,627c6f8e3fdc241f4fe27458,2022-05-11_21h25.33.676,classification_task,2021.2.3,Win32,59.31549914,627c6715c52fd12f31907bcf,,,,,,,,,,,,,,,,,,,,,,,a,1,5.3565,"[""0.325"",""0.416"",""0.372"",""0.883""]","[1,1,0,1]",0,13,13,13,1,0,1,,,1,FALSE,,,,,,,,,,,,,,,,,,,,,,,,,,,,,,,,
,61428986257808bc16da05c6,627c6f8e3fdc241f4fe27458,2022-05-11_21h25.33.676,classification_task,2021.2.3,Win32,59.31549914,627c6715c52fd12f31907bcf,,,,,,,,,,,,,,,,,,,,,,,a,1,5.5228,"[""0.372"",""0.450"",""0.924"",""0.968""]","[0,1,1,1]",0,14,14,14,1,0,0,,,1,FALSE,,,,,,,,,,,,,,,,,,,,,,,,,,,,,,,,
,61428986257808bc16da05c6,627c6f8e3fdc241f4fe27458,2022-05-11_21h25.33.676,classification_task,2021.2.3,Win32,59.31549914,627c6715c52fd12f31907bcf,,,,,,,,,,,,,,,,,,,,,,,l,1,2.9059,"[""0.027"",""0.280"",""0.563"",""0.755""]","[1,1,0,1]",0,15,15,15,1,1,1,,,1,FALSE,,,,,,,,,,,,,,,,,,,,,,,,,,,,,,,,
,61428986257808bc16da05c6,627c6f8e3fdc241f4fe27458,2022-05-11_21h25.33.676,classification_task,2021.2.3,Win32,59.31549914,627c6715c52fd12f31907bcf,,,,,,,,,,,,,,,,,,,,,,,l,1,4.2707,"[""0.141"",""0.231"",""0.789"",""0.841""]","[1,1,0,1]",0,16,16,16,1,1,0,,,1,FALSE,,,,,,,,,,,,,,,,,,,,,,,,,,,,,,,,
,61428986257808bc16da05c6,627c6f8e3fdc241f4fe27458,2022-05-11_21h25.33.676,classification_task,2021.2.3,Win32,59.31549914,627c6715c52fd12f31907bcf,,,,,,,,,,,,,,,,,,,,,,,a,1,4.9376,"[""0.325"",""0.416"",""0.687"",""0.082""]","[1,1,1,0]",0,17,17,17,1,0,1,,,1,FALSE,,,,,,,,,,,,,,,,,,,,,,,,,,,,,,,,
,61428986257808bc16da05c6,627c6f8e3fdc241f4fe27458,2022-05-11_21h25.33.676,classification_task,2021.2.3,Win32,59.31549914,627c6715c52fd12f31907bcf,,,,,,,,,,,,,,,,,,,,,,,l,1,3.5788,"[""0.027"",""0.374"",""0.631"",""0.755""]","[1,0,1,1]",0,18,18,18,1,1,1,,,1,FALSE,,,,,,,,,,,,,,,,,,,,,,,,,,,,,,,,
,61428986257808bc16da05c6,627c6f8e3fdc241f4fe27458,2022-05-11_21h25.33.676,classification_task,2021.2.3,Win32,59.31549914,627c6715c52fd12f31907bcf,,,,,,,,,,,,,,,,,,,,,,,a,1,5.9313,"[""0.788"",""0.416"",""0.687"",""0.883""]","[0,1,1,1]",0,19,19,19,1,0,1,,,1,FALSE,,,,,,,,,,,,,,,,,,,,,,,,,,,,,,,,
,61428986257808bc16da05c6,627c6f8e3fdc241f4fe27458,2022-05-11_21h25.33.676,classification_task,2021.2.3,Win32,59.31549914,627c6715c52fd12f31907bcf,,,,,,,,,,,,,,,,,,,,,,,l,1,5.5522,"[""0.788"",""0.280"",""0.631"",""0.755""]","[0,1,1,1]",0,20,20,20,1,1,1,,,1,FALSE,,,,,,,,,,,,,,,,,,,,,,,,,,,,,,,,
,61428986257808bc16da05c6,627c6f8e3fdc241f4fe27458,2022-05-11_21h25.33.676,classification_task,2021.2.3,Win32,59.31549914,627c6715c52fd12f31907bcf,,,,,,,,,,,,,,,,,,,,,,,a,1,3.928,"[""0.180"",""0.082"",""0.924"",""0.968""]","[1,0,1,1]",0,21,21,21,1,0,0,,,1,FALSE,,,,,,,,,,,,,,,,,,,,,,,,,,,,,,,,
,61428986257808bc16da05c6,627c6f8e3fdc241f4fe27458,2022-05-11_21h25.33.676,classification_task,2021.2.3,Win32,59.31549914,627c6715c52fd12f31907bcf,,,,,,,,,,,,,,,,,,,,,,,l,1,3.5717,"[""0.027"",""0.280"",""0.807"",""0.755""]","[1,1,0,1]",0,22,22,22,1,1,1,,,1,FALSE,,,,,,,,,,,,,,,,,,,,,,,,,,,,,,,,
,61428986257808bc16da05c6,627c6f8e3fdc241f4fe27458,2022-05-11_21h25.33.676,classification_task,2021.2.3,Win32,59.31549914,627c6715c52fd12f31907bcf,,,,,,,,,,,,,,,,,,,,,,,l,0,4.2082,"[""0.325"",""0.090"",""0.687"",""0.883""]","[1,0,1,1]",0,23,23,23,1,0,1,,,1,FALSE,,,,,,,,,,,,,,,,,,,,,,,,,,,,,,,,
,61428986257808bc16da05c6,627c6f8e3fdc241f4fe27458,2022-05-11_21h25.33.676,classification_task,2021.2.3,Win32,59.31549914,627c6715c52fd12f31907bcf,,,,,,,,,,,,,,,,,,,,,,,l,1,3.4548,"[""0.141"",""0.231"",""0.517"",""0.106""]","[1,1,1,0]",0,24,24,24,1,1,0,,,1,FALSE,,,,,,,,,,,,,,,,,,,,,,,,,,,,,,,,
,61428986257808bc16da05c6,627c6f8e3fdc241f4fe27458,2022-05-11_21h25.33.676,classification_task,2021.2.3,Win32,59.31549914,627c6715c52fd12f31907bcf,,,,,,,,,,,,,,,,,,,,,,,a,1,4.2552,"[""0.180"",""0.450"",""0.924"",""0.799""]","[1,1,1,0]",0,25,25,25,1,0,0,,,1,FALSE,,,,,,,,,,,,,,,,,,,,,,,,,,,,,,,,
,61428986257808bc16da05c6,627c6f8e3fdc241f4fe27458,2022-05-11_21h25.33.676,classification_task,2021.2.3,Win32,59.31549914,627c6715c52fd12f31907bcf,,,,,,,,,,,,,,,,,,,,,,,l,1,3.1435,"[""0.807"",""0.231"",""0.517"",""0.841""]","[0,1,1,1]",0,26,26,26,1,1,0,,,1,FALSE,,,,,,,,,,,,,,,,,,,,,,,,,,,,,,,,
,61428986257808bc16da05c6,627c6f8e3fdc241f4fe27458,2022-05-11_21h25.33.676,classification_task,2021.2.3,Win32,59.31549914,627c6715c52fd12f31907bcf,,,,,,,,,,,,,,,,,,,,,,,l,1,3.0752,"[""0.141"",""0.076"",""0.517"",""0.841""]","[1,0,1,1]",0,27,27,27,1,1,0,,,1,FALSE,,,,,,,,,,,,,,,,,,,,,,,,,,,,,,,,
,61428986257808bc16da05c6,627c6f8e3fdc241f4fe27458,2022-05-11_21h25.33.676,classification_task,2021.2.3,Win32,59.31549914,627c6715c52fd12f31907bcf,,,,,,,,,,,,,,,,,,,,,,,a,1,4.274,"[""0.325"",""0.416"",""0.070"",""0.883""]","[1,1,0,1]",0,28,28,28,1,0,1,,,1,FALSE,,,,,,,,,,,,,,,,,,,,,,,,,,,,,,,,
,61428986257808bc16da05c6,627c6f8e3fdc241f4fe27458,2022-05-11_21h25.33.676,classification_task,2021.2.3,Win32,59.31549914,627c6715c52fd12f31907bcf,,,,,,,,,,,,,,,,,,,,,,,l,1,2.5654,"[""0.027"",""0.280"",""0.631"",""0.082""]","[1,1,1,0]",0,29,29,29,1,1,1,,,1,FALSE,,,,,,,,,,,,,,,,,,,,,,,,,,,,,,,,
,61428986257808bc16da05c6,627c6f8e3fdc241f4fe27458,2022-05-11_21h25.33.676,classification_task,2021.2.3,Win32,59.31549914,627c6715c52fd12f31907bcf,,,,,,,,,,,,,,,,,,,,,,,a,1,4.0764,"[""0.180"",""0.450"",""0.799"",""0.968""]","[1,1,0,1]",0,30,30,30,1,0,0,,,1,FALSE,,,,,,,,,,,,,,,,,,,,,,,,,,,,,,,,
,61428986257808bc16da05c6,627c6f8e3fdc241f4fe27458,2022-05-11_21h25.33.676,classification_task,2021.2.3,Win32,59.31549914,627c6715c52fd12f31907bcf,,,,,,,,,,,,,,,,,,,,,,,a,1,4.7915,"[""0.788"",""0.450"",""0.924"",""0.968""]","[0,1,1,1]",0,31,31,31,1,0,0,,,1,FALSE,,,,,,,,,,,,,,,,,,,,,,,,,,,,,,,,
,61428986257808bc16da05c6,627c6f8e3fdc241f4fe27458,2022-05-11_21h25.33.676,classification_task,2021.2.3,Win32,59.31549914,627c6715c52fd12f31907bcf,,,,,,,,,,,,,,,,,,,,,,,a,0,4.3372,"[""0.070"",""0.280"",""0.631"",""0.755""]","[0,1,1,1]",0,32,32,32,1,1,1,,,1,FALSE,,,,,,,,,,,,,,,,,,,,,,,,,,,,,,,,
,61428986257808bc16da05c6,627c6f8e3fdc241f4fe27458,2022-05-11_21h25.33.676,classification_task,2021.2.3,Win32,59.31549914,627c6715c52fd12f31907bcf,,,,,,,,,,,,,,,,,,,,,,,a,1,3.942,"[""0.325"",""0.416"",""0.789"",""0.883""]","[1,1,0,1]",0,33,33,33,1,0,1,,,1,FALSE,,,,,,,,,,,,,,,,,,,,,,,,,,,,,,,,
,61428986257808bc16da05c6,627c6f8e3fdc241f4fe27458,2022-05-11_21h25.33.676,classification_task,2021.2.3,Win32,59.31549914,627c6715c52fd12f31907bcf,,,,,,,,,,,,,,,,,,,,,,,l,1,1.7765,"[""0.141"",""0.789"",""0.517"",""0.841""]","[1,0,1,1]",0,34,34,34,1,1,0,,,1,FALSE,,,,,,,,,,,,,,,,,,,,,,,,,,,,,,,,
,61428986257808bc16da05c6,627c6f8e3fdc241f4fe27458,2022-05-11_21h25.33.676,classification_task,2021.2.3,Win32,59.31549914,627c6715c52fd12f31907bcf,,,,,,,,,,,,,,,,,,,,,,,a,0,1.5983,"[""0.076"",""0.231"",""0.517"",""0.841""]","[0,1,1,1]",0,35,35,35,1,1,0,,,1,FALSE,,,,,,,,,,,,,,,,,,,,,,,,,,,,,,,,
,61428986257808bc16da05c6,627c6f8e3fdc241f4fe27458,2022-05-11_21h25.33.676,classification_task,2021.2.3,Win32,59.31549914,627c6715c52fd12f31907bcf,,,,,,,,,,,,,,,,,,,,,,,l,0,1.0258,"[""0.325"",""0.380"",""0.687"",""0.883""]","[1,0,1,1]",0,36,36,36,1,0,1,,,1,FALSE,,,,,,,,,,,,,,,,,,,,,,,,,,,,,,,,
,61428986257808bc16da05c6,627c6f8e3fdc241f4fe27458,2022-05-11_21h25.33.676,classification_task,2021.2.3,Win32,59.31549914,627c6715c52fd12f31907bcf,,,,,,,,,,,,,,,,,,,,,,,l,0,1.0053,"[""0.090"",""0.416"",""0.687"",""0.883""]","[0,1,1,1]",0,37,37,37,1,0,1,,,1,FALSE,,,,,,,,,,,,,,,,,,,,,,,,,,,,,,,,
,61428986257808bc16da05c6,627c6f8e3fdc241f4fe27458,2022-05-11_21h25.33.676,classification_task,2021.2.3,Win32,59.31549914,627c6715c52fd12f31907bcf,,,,,,,,,,,,,,,,,,,,,,,a,1,1.315,"[""0.180"",""0.372"",""0.924"",""0.968""]","[1,0,1,1]",0,38,38,38,1,0,0,,,1,FALSE,,,,,,,,,,,,,,,,,,,,,,,,,,,,,,,,
,61428986257808bc16da05c6,627c6f8e3fdc241f4fe27458,2022-05-11_21h25.33.676,classification_task,2021.2.3,Win32,59.31549914,627c6715c52fd12f31907bcf,,,,,,,,,,,,,,,,,,,,,,,a,0,1.3839,"[""0.027"",""0.280"",""0.807"",""0.755""]","[1,1,0,1]",0,39,39,39,1,1,1,,,1,FALSE,,,,,,,,,,,,,,,,,,,,,,,,,,,,,,,,
,61428986257808bc16da05c6,627c6f8e3fdc241f4fe27458,2022-05-11_21h25.33.676,classification_task,2021.2.3,Win32,59.31549914,627c6715c52fd12f31907bcf,,,,,,,,,,,,,,,,,,,,,,,a,1,1.0007,"[""0.325"",""0.416"",""0.687"",""0.563""]","[1,1,1,0]",0,40,40,40,1,0,1,,,1,FALSE,,,,,,,,,,,,,,,,,,,,,,,,,,,,,,,,
,61428986257808bc16da05c6,627c6f8e3fdc241f4fe27458,2022-05-11_21h25.33.676,classification_task,2021.2.3,Win32,59.31549914,627c6715c52fd12f31907bcf,,,,,,,,,,,,,,,,,,,,,,,l,0,1.968,"[""0.180"",""0.450"",""0.924"",""0.788""]","[1,1,1,0]",0,41,41,41,1,0,0,,,1,FALSE,,,,,,,,,,,,,,,,,,,,,,,,,,,,,,,,
,61428986257808bc16da05c6,627c6f8e3fdc241f4fe27458,2022-05-11_21h25.33.676,classification_task,2021.2.3,Win32,59.31549914,627c6715c52fd12f31907bcf,,,,,,,,,,,,,,,,,,,,,,,l,0,0.9098,"[""0.380"",""0.450"",""0.924"",""0.968""]","[0,1,1,1]",0,42,42,42,1,0,0,,,1,FALSE,,,,,,,,,,,,,,,,,,,,,,,,,,,,,,,,
,61428986257808bc16da05c6,627c6f8e3fdc241f4fe27458,2022-05-11_21h25.33.676,classification_task,2021.2.3,Win32,59.31549914,627c6715c52fd12f31907bcf,,,,,,,,,,,,,,,,,,,,,,,a,0,0.9671,"[""0.027"",""0.799"",""0.631"",""0.755""]","[1,0,1,1]",0,43,43,43,1,1,1,,,1,FALSE,,,,,,,,,,,,,,,,,,,,,,,,,,,,,,,,
,61428986257808bc16da05c6,627c6f8e3fdc241f4fe27458,2022-05-11_21h25.33.676,classification_task,2021.2.3,Win32,59.31549914,627c6715c52fd12f31907bcf,,,,,,,,,,,,,,,,,,,,,,,a,0,0.6552,"[""0.027"",""0.280"",""0.631"",""0.371""]","[1,1,1,0]",0,44,44,44,1,1,1,,,1,FALSE,,,,,,,,,,,,,,,,,,,,,,,,,,,,,,,,
,61428986257808bc16da05c6,627c6f8e3fdc241f4fe27458,2022-05-11_21h25.33.676,classification_task,2021.2.3,Win32,59.31549914,627c6715c52fd12f31907bcf,,,,,,,,,,,,,,,,,,,,,,,a,0,0.6053,"[""0.141"",""0.231"",""0.517"",""0.071""]","[1,1,1,0]",0,45,45,45,1,1,0,,,1,FALSE,,,,,,,,,,,,,,,,,,,,,,,,,,,,,,,,
,61428986257808bc16da05c6,627c6f8e3fdc241f4fe27458,2022-05-11_21h25.33.676,classification_task,2021.2.3,Win32,59.31549914,627c6715c52fd12f31907bcf,,,,,,,,,,,,,,,,,,,,,,,a,0,0.3011,"[""0.141"",""0.231"",""0.090"",""0.841""]","[1,1,0,1]",0,46,46,46,1,1,0,,,1,FALSE,,,,,,,,,,,,,,,,,,,,,,,,,,,,,,,,
,61428986257808bc16da05c6,627c6f8e3fdc241f4fe27458,2022-05-11_21h25.33.676,classification_task,2021.2.3,Win32,59.31549914,627c6715c52fd12f31907bcf,,,,,,,,,,,,,,,,,,,,,,,a,1,0.3845,"[""0.180"",""0.450"",""0.807"",""0.968""]","[1,1,0,1]",0,47,47,47,1,0,0,,,1,FALSE,,,,,,,,,,,,,,,,,,,,,,,,,,,,,,,,
,61428986257808bc16da05c6,627c6f8e3fdc241f4fe27458,2022-05-11_21h25.33.676,classification_task,2021.2.3,Win32,59.31549914,627c6715c52fd12f31907bcf,,,,,,,,,,,,,,,,,,,,,,,l,1,0.6487,"[""0.141"",""0.231"",""0.071"",""0.841""]","[1,1,0,1]",0,48,48,48,1,1,0,,,1,FALSE,,,,,,,,,,,,,,,,,,,,,,,,,,,,,,,,
,61428986257808bc16da05c6,627c6f8e3fdc241f4fe27458,2022-05-11_21h25.33.676,classification_task,2021.2.3,Win32,59.31549914,627c6715c52fd12f31907bcf,,,,,,,,,,,,,,,,,,,,,,,l,1,0.9152,"[""0.027"",""0.280"",""0.374"",""0.755""]","[1,1,0,1]",0,49,49,49,1,1,1,,,1,FALSE,,,,,,,,,,,,,,,,,,,,,,,,,,,,,,,,
,61428986257808bc16da05c6,627c6f8e3fdc241f4fe27458,2022-05-11_21h25.33.676,classification_task,2021.2.3,Win32,59.31549914,627c6715c52fd12f31907bcf,,,,,,,,,,,,,,,,,,,,,,,a,0,1.2503,"[""0.141"",""0.231"",""0.517"",""0.090""]","[1,1,1,0]",0,50,50,50,1,1,0,,,1,FALSE,,,,,,,,,,,,,,,,,,,,,,,,,,,,,,,,
,61428986257808bc16da05c6,627c6f8e3fdc241f4fe27458,2022-05-11_21h25.33.676,classification_task,2021.2.3,Win32,59.31549914,627c6715c52fd12f31907bcf,,,,,,,,,,,,,,,,,,,,,,,l,0,1.3773,"[""0.325"",""0.416"",""0.687"",""0.380""]","[1,1,1,0]",0,51,51,51,1,0,1,,,1,FALSE,,,,,,,,,,,,,,,,,,,,,,,,,,,,,,,,
,61428986257808bc16da05c6,627c6f8e3fdc241f4fe27458,2022-05-11_21h25.33.676,classification_task,2021.2.3,Win32,59.31549914,627c6715c52fd12f31907bcf,,,,,,,,,,,,,,,,,,,,,,,a,0,0.8283,"[""0.027"",""0.280"",""0.631"",""0.563""]","[1,1,1,0]",0,52,52,52,1,1,1,,,1,FALSE,,,,,,,,,,,,,,,,,,,,,,,,,,,,,,,,
,61428986257808bc16da05c6,627c6f8e3fdc241f4fe27458,2022-05-11_21h25.33.676,classification_task,2021.2.3,Win32,59.31549914,627c6715c52fd12f31907bcf,,,,,,,,,,,,,,,,,,,,,,,a,1,1.2236,"[""0.325"",""0.371"",""0.687"",""0.883""]","[1,0,1,1]",0,53,53,53,1,0,1,,,1,FALSE,,,,,,,,,,,,,,,,,,,,,,,,,,,,,,,,
,61428986257808bc16da05c6,627c6f8e3fdc241f4fe27458,2022-05-11_21h25.33.676,classification_task,2021.2.3,Win32,59.31549914,627c6715c52fd12f31907bcf,,,,,,,,,,,,,,,,,,,,,,,l,1,1.188,"[""0.141"",""0.380"",""0.517"",""0.841""]","[1,0,1,1]",0,54,54,54,1,1,0,,,1,FALSE,,,,,,,,,,,,,,,,,,,,,,,,,,,,,,,,
,61428986257808bc16da05c6,627c6f8e3fdc241f4fe27458,2022-05-11_21h25.33.676,classification_task,2021.2.3,Win32,59.31549914,627c6715c52fd12f31907bcf,,,,,,,,,,,,,,,,,,,,,,,a,1,0.9407,"[""0.563"",""0.450"",""0.924"",""0.968""]","[0,1,1,1]",0,55,55,55,1,0,0,,,1,FALSE,,,,,,,,,,,,,,,,,,,,,,,,,,,,,,,,
,61428986257808bc16da05c6,627c6f8e3fdc241f4fe27458,2022-05-11_21h25.33.676,classification_task,2021.2.3,Win32,59.31549914,627c6715c52fd12f31907bcf,,,,,,,,,,,,,,,,,,,,,,,a,1,1.2224,"[""0.380"",""0.416"",""0.687"",""0.883""]","[0,1,1,1]",0,56,56,56,1,0,1,,,1,FALSE,,,,,,,,,,,,,,,,,,,,,,,,,,,,,,,,
,61428986257808bc16da05c6,627c6f8e3fdc241f4fe27458,2022-05-11_21h25.33.676,classification_task,2021.2.3,Win32,59.31549914,627c6715c52fd12f31907bcf,,,,,,,,,,,,,,,,,,,,,,,a,1,0.9988,"[""0.325"",""0.416"",""0.082"",""0.883""]","[1,1,0,1]",0,57,57,57,1,0,1,,,1,FALSE,,,,,,,,,,,,,,,,,,,,,,,,,,,,,,,,
,61428986257808bc16da05c6,627c6f8e3fdc241f4fe27458,2022-05-11_21h25.33.676,classification_task,2021.2.3,Win32,59.31549914,627c6715c52fd12f31907bcf,,,,,,,,,,,,,,,,,,,,,,,l,0,1.4573,"[""0.180"",""0.450"",""0.924"",""0.799""]","[1,1,1,0]",0,58,58,58,1,0,0,,,1,FALSE,,,,,,,,,,,,,,,,,,,,,,,,,,,,,,,,
,61428986257808bc16da05c6,627c6f8e3fdc241f4fe27458,2022-05-11_21h25.33.676,classification_task,2021.2.3,Win32,59.31549914,627c6715c52fd12f31907bcf,,,,,,,,,,,,,,,,,,,,,,,a,0,1.6214,"[""0.372"",""0.280"",""0.631"",""0.755""]","[0,1,1,1]",0,59,59,59,1,1,1,,,1,FALSE,,,,,,,,,,,,,,,,,,,,,,,,,,,,,,,,
,61428986257808bc16da05c6,627c6f8e3fdc241f4fe27458,2022-05-11_21h25.33.676,classification_task,2021.2.3,Win32,59.31549914,627c6715c52fd12f31907bcf,,,,,,,,,,,,,,,,,,,,,,,a,0,0.6729,"[""0.027"",""0.788"",""0.631"",""0.755""]","[1,0,1,1]",0,60,60,60,1,1,1,,,1,FALSE,,,,,,,,,,,,,,,,,,,,,,,,,,,,,,,,
,61428986257808bc16da05c6,627c6f8e3fdc241f4fe27458,2022-05-11_21h25.33.676,classification_task,2021.2.3,Win32,59.31549914,627c6715c52fd12f31907bcf,,,,,,,,,,,,,,,,,,,,,,,l,0,1.2501,"[""0.180"",""0.090"",""0.924"",""0.968""]","[1,0,1,1]",0,61,61,61,1,0,0,,,1,FALSE,,,,,,,,,,,,,,,,,,,,,,,,,,,,,,,,
,61428986257808bc16da05c6,627c6f8e3fdc241f4fe27458,2022-05-11_21h25.33.676,classification_task,2021.2.3,Win32,59.31549914,627c6715c52fd12f31907bcf,,,,,,,,,,,,,,,,,,,,,,,a,0,0.6784,"[""0.799"",""0.231"",""0.517"",""0.841""]","[0,1,1,1]",0,62,62,62,1,1,0,,,1,FALSE,,,,,,,,,,,,,,,,,,,,,,,,,,,,,,,,
,61428986257808bc16da05c6,627c6f8e3fdc241f4fe27458,2022-05-11_21h25.33.676,classification_task,2021.2.3,Win32,59.31549914,627c6715c52fd12f31907bcf,,,,,,,,,,,,,,,,,,,,,,,a,1,0.5017,"[""0.180"",""0.450"",""0.799"",""0.968""]","[1,1,0,1]",0,63,63,63,1,0,0,,,1,FALSE,,,,,,,,,,,,,,,,,,,,,,,,,,,,,,,,
,61428986257808bc16da05c6,627c6f8e3fdc241f4fe27458,2022-05-11_21h25.33.676,classification_task,2021.2.3,Win32,59.31549914,627c6715c52fd12f31907bcf,,,,,,,,,,,,,,,,,,,,,,,,,,,,,,,,,,,,,,,0, ,,0,6.421957672,658.6484,0,0,0,0,1,2,1,,,,,,,,,,,,,,,,,,,
,61428986257808bc16da05c6,627c6f8e3fdc241f4fe27458,2022-05-11_21h25.33.676,classification_task,2021.2.3,Win32,59.31549914,627c6715c52fd12f31907bcf,,,,,,,,,,,,,,,,,,,,,,,,,,,,,,,,,,,,,,,1,  ,,0,4.669312169,652.5827,0,0,0,0,1,2,1,,,,,,,,,,,,,,,,,,,
,61428986257808bc16da05c6,627c6f8e3fdc241f4fe27458,2022-05-11_21h25.33.676,classification_task,2021.2.3,Win32,59.31549914,627c6715c52fd12f31907bcf,,,,,,,,,,,,,,,,,,,,,,,,,,,,,,,,,,,,,,,2,  ,,0,5.033068783,663.6649,0,0,0,0,1,2,1,,,,,,,,,,,,,,,,,,,
,61428986257808bc16da05c6,627c6f8e3fdc241f4fe27458,2022-05-11_21h25.33.676,classification_task,2021.2.3,Win32,59.31549914,627c6715c52fd12f31907bcf,,,,,,,,,,,,,,,,,,,,,,,,,,,,,,,,,,,,,,,,,,,,,0,0,0,0,1,,1,,,,,,,,,,,,,,,,,,,
,61428986257808bc16da05c6,627c6f8e3fdc241f4fe27458,2022-05-11_21h25.33.676,classification_task,2021.2.3,Win32,59.31549914,627c6715c52fd12f31907bcf,,,,,,,,,,,,,,,,,,,,,space,14.8559,l,1,1.333,"[""0.027"",""0.106"",""0.631"",""0.755""]","[1,0,1,1]",0,0,0,0,1,1,1,,,1,FALSE,,,,,,,,,,,,,,,,,,,,,,,,,,,,,,,,
,61428986257808bc16da05c6,627c6f8e3fdc241f4fe27458,2022-05-11_21h25.33.676,classification_task,2021.2.3,Win32,59.31549914,627c6715c52fd12f31907bcf,,,,,,,,,,,,,,,,,,,,,,,l,1,0.6683,"[""0.090"",""0.280"",""0.631"",""0.755""]","[0,1,1,1]",0,1,1,1,1,1,1,,,1,FALSE,,,,,,,,,,,,,,,,,,,,,,,,,,,,,,,,
,61428986257808bc16da05c6,627c6f8e3fdc241f4fe27458,2022-05-11_21h25.33.676,classification_task,2021.2.3,Win32,59.31549914,627c6715c52fd12f31907bcf,,,,,,,,,,,,,,,,,,,,,,,a,0,2.8473,"[""0.141"",""0.231"",""0.082"",""0.841""]","[1,1,0,1]",0,2,2,2,1,1,0,,,1,FALSE,,,,,,,,,,,,,,,,,,,,,,,,,,,,,,,,
,61428986257808bc16da05c6,627c6f8e3fdc241f4fe27458,2022-05-11_21h25.33.676,classification_task,2021.2.3,Win32,59.31549914,627c6715c52fd12f31907bcf,,,,,,,,,,,,,,,,,,,,,,,a,1,0.9358,"[""0.180"",""0.450"",""0.799"",""0.968""]","[1,1,0,1]",0,3,3,3,1,0,0,,,1,FALSE,,,,,,,,,,,,,,,,,,,,,,,,,,,,,,,,
,61428986257808bc16da05c6,627c6f8e3fdc241f4fe27458,2022-05-11_21h25.33.676,classification_task,2021.2.3,Win32,59.31549914,627c6715c52fd12f31907bcf,,,,,,,,,,,,,,,,,,,,,,,l,1,1.9127,"[""0.027"",""0.280"",""0.371"",""0.755""]","[1,1,0,1]",0,4,4,4,1,1,1,,,1,FALSE,,,,,,,,,,,,,,,,,,,,,,,,,,,,,,,,
,61428986257808bc16da05c6,627c6f8e3fdc241f4fe27458,2022-05-11_21h25.33.676,classification_task,2021.2.3,Win32,59.31549914,627c6715c52fd12f31907bcf,,,,,,,,,,,,,,,,,,,,,,,a,0,1.2071,"[""0.374"",""0.231"",""0.517"",""0.841""]","[0,1,1,1]",0,5,5,5,1,1,0,,,1,FALSE,,,,,,,,,,,,,,,,,,,,,,,,,,,,,,,,
,61428986257808bc16da05c6,627c6f8e3fdc241f4fe27458,2022-05-11_21h25.33.676,classification_task,2021.2.3,Win32,59.31549914,627c6715c52fd12f31907bcf,,,,,,,,,,,,,,,,,,,,,,,l,1,0.9841,"[""0.141"",""0.106"",""0.517"",""0.841""]","[1,0,1,1]",0,6,6,6,1,1,0,,,1,FALSE,,,,,,,,,,,,,,,,,,,,,,,,,,,,,,,,
,61428986257808bc16da05c6,627c6f8e3fdc241f4fe27458,2022-05-11_21h25.33.676,classification_task,2021.2.3,Win32,59.31549914,627c6715c52fd12f31907bcf,,,,,,,,,,,,,,,,,,,,,,,l,1,1.2109,"[""0.141"",""0.231"",""0.517"",""0.071""]","[1,1,1,0]",0,7,7,7,1,1,0,,,1,FALSE,,,,,,,,,,,,,,,,,,,,,,,,,,,,,,,,
,61428986257808bc16da05c6,627c6f8e3fdc241f4fe27458,2022-05-11_21h25.33.676,classification_task,2021.2.3,Win32,59.31549914,627c6715c52fd12f31907bcf,,,,,,,,,,,,,,,,,,,,,,,a,1,1.0229,"[""0.325"",""0.416"",""0.687"",""0.382""]","[1,1,1,0]",0,8,8,8,1,0,1,,,1,FALSE,,,,,,,,,,,,,,,,,,,,,,,,,,,,,,,,
,61428986257808bc16da05c6,627c6f8e3fdc241f4fe27458,2022-05-11_21h25.33.676,classification_task,2021.2.3,Win32,59.31549914,627c6715c52fd12f31907bcf,,,,,,,,,,,,,,,,,,,,,,,a,1,0.8985,"[""0.070"",""0.450"",""0.924"",""0.968""]","[0,1,1,1]",0,9,9,9,1,0,0,,,1,FALSE,,,,,,,,,,,,,,,,,,,,,,,,,,,,,,,,
,61428986257808bc16da05c6,627c6f8e3fdc241f4fe27458,2022-05-11_21h25.33.676,classification_task,2021.2.3,Win32,59.31549914,627c6715c52fd12f31907bcf,,,,,,,,,,,,,,,,,,,,,,,a,1,1.481,"[""0.325"",""0.374"",""0.687"",""0.883""]","[1,0,1,1]",0,10,10,10,1,0,1,,,1,FALSE,,,,,,,,,,,,,,,,,,,,,,,,,,,,,,,,
,61428986257808bc16da05c6,627c6f8e3fdc241f4fe27458,2022-05-11_21h25.33.676,classification_task,2021.2.3,Win32,59.31549914,627c6715c52fd12f31907bcf,,,,,,,,,,,,,,,,,,,,,,,l,0,0.9153,"[""0.180"",""0.450"",""0.924"",""0.788""]","[1,1,1,0]",0,11,11,11,1,0,0,,,1,FALSE,,,,,,,,,,,,,,,,,,,,,,,,,,,,,,,,
,61428986257808bc16da05c6,627c6f8e3fdc241f4fe27458,2022-05-11_21h25.33.676,classification_task,2021.2.3,Win32,59.31549914,627c6715c52fd12f31907bcf,,,,,,,,,,,,,,,,,,,,,,,l,1,0.7158,"[""0.027"",""0.280"",""0.631"",""0.807""]","[1,1,1,0]",0,12,12,12,1,1,1,,,1,FALSE,,,,,,,,,,,,,,,,,,,,,,,,,,,,,,,,
,61428986257808bc16da05c6,627c6f8e3fdc241f4fe27458,2022-05-11_21h25.33.676,classification_task,2021.2.3,Win32,59.31549914,627c6715c52fd12f31907bcf,,,,,,,,,,,,,,,,,,,,,,,a,1,0.5837,"[""0.325"",""0.416"",""0.799"",""0.883""]","[1,1,0,1]",0,13,13,13,1,0,1,,,1,FALSE,,,,,,,,,,,,,,,,,,,,,,,,,,,,,,,,
,61428986257808bc16da05c6,627c6f8e3fdc241f4fe27458,2022-05-11_21h25.33.676,classification_task,2021.2.3,Win32,59.31549914,627c6715c52fd12f31907bcf,,,,,,,,,,,,,,,,,,,,,,,a,1,0.6497,"[""0.382"",""0.416"",""0.687"",""0.883""]","[0,1,1,1]",0,14,14,14,1,0,1,,,1,FALSE,,,,,,,,,,,,,,,,,,,,,,,,,,,,,,,,
,61428986257808bc16da05c6,627c6f8e3fdc241f4fe27458,2022-05-11_21h25.33.676,classification_task,2021.2.3,Win32,59.31549914,627c6715c52fd12f31907bcf,,,,,,,,,,,,,,,,,,,,,,,a,1,1.1321,"[""0.180"",""0.082"",""0.924"",""0.968""]","[1,0,1,1]",0,15,15,15,1,0,0,,,1,FALSE,,,,,,,,,,,,,,,,,,,,,,,,,,,,,,,,
,61428986257808bc16da05c6,627c6f8e3fdc241f4fe27458,2022-05-11_21h25.33.676,classification_task,2021.2.3,Win32,59.31549914,627c6715c52fd12f31907bcf,,,,,,,,,,,,,,,,,,,,,,,l,1,0.7489,"[""0.076"",""0.231"",""0.517"",""0.841""]","[0,1,1,1]",0,16,16,16,1,1,0,,,1,FALSE,,,,,,,,,,,,,,,,,,,,,,,,,,,,,,,,
,61428986257808bc16da05c6,627c6f8e3fdc241f4fe27458,2022-05-11_21h25.33.676,classification_task,2021.2.3,Win32,59.31549914,627c6715c52fd12f31907bcf,,,,,,,,,,,,,,,,,,,,,,,l,1,0.7118,"[""0.027"",""0.280"",""0.371"",""0.755""]","[1,1,0,1]",0,17,17,17,1,1,1,,,1,FALSE,,,,,,,,,,,,,,,,,,,,,,,,,,,,,,,,
,61428986257808bc16da05c6,627c6f8e3fdc241f4fe27458,2022-05-11_21h25.33.676,classification_task,2021.2.3,Win32,59.31549914,627c6715c52fd12f31907bcf,,,,,,,,,,,,,,,,,,,,,,,a,1,1.0168,"[""0.090"",""0.416"",""0.687"",""0.883""]","[0,1,1,1]",0,18,18,18,1,0,1,,,1,FALSE,,,,,,,,,,,,,,,,,,,,,,,,,,,,,,,,
,61428986257808bc16da05c6,627c6f8e3fdc241f4fe27458,2022-05-11_21h25.33.676,classification_task,2021.2.3,Win32,59.31549914,627c6715c52fd12f31907bcf,,,,,,,,,,,,,,,,,,,,,,,a,1,0.501,"[""0.325"",""0.416"",""0.687"",""0.563""]","[1,1,1,0]",0,19,19,19,1,0,1,,,1,FALSE,,,,,,,,,,,,,,,,,,,,,,,,,,,,,,,,
,61428986257808bc16da05c6,627c6f8e3fdc241f4fe27458,2022-05-11_21h25.33.676,classification_task,2021.2.3,Win32,59.31549914,627c6715c52fd12f31907bcf,,,,,,,,,,,,,,,,,,,,,,,a,0,0.8513,"[""0.141"",""0.380"",""0.517"",""0.841""]","[1,0,1,1]",0,20,20,20,1,1,0,,,1,FALSE,,,,,,,,,,,,,,,,,,,,,,,,,,,,,,,,
,61428986257808bc16da05c6,627c6f8e3fdc241f4fe27458,2022-05-11_21h25.33.676,classification_task,2021.2.3,Win32,59.31549914,627c6715c52fd12f31907bcf,,,,,,,,,,,,,,,,,,,,,,,l,1,0.7483,"[""0.027"",""0.280"",""0.631"",""0.807""]","[1,1,1,0]",0,21,21,21,1,1,1,,,1,FALSE,,,,,,,,,,,,,,,,,,,,,,,,,,,,,,,,
,61428986257808bc16da05c6,627c6f8e3fdc241f4fe27458,2022-05-11_21h25.33.676,classification_task,2021.2.3,Win32,59.31549914,627c6715c52fd12f31907bcf,,,,,,,,,,,,,,,,,,,,,,,l,1,0.8142,"[""0.141"",""0.231"",""0.517"",""0.788""]","[1,1,1,0]",0,22,22,22,1,1,0,,,1,FALSE,,,,,,,,,,,,,,,,,,,,,,,,,,,,,,,,
,61428986257808bc16da05c6,627c6f8e3fdc241f4fe27458,2022-05-11_21h25.33.676,classification_task,2021.2.3,Win32,59.31549914,627c6715c52fd12f31907bcf,,,,,,,,,,,,,,,,,,,,,,,l,0,0.7169,"[""0.180"",""0.090"",""0.924"",""0.968""]","[1,0,1,1]",0,23,23,23,1,0,0,,,1,FALSE,,,,,,,,,,,,,,,,,,,,,,,,,,,,,,,,
,61428986257808bc16da05c6,627c6f8e3fdc241f4fe27458,2022-05-11_21h25.33.676,classification_task,2021.2.3,Win32,59.31549914,627c6715c52fd12f31907bcf,,,,,,,,,,,,,,,,,,,,,,,l,1,1.0326,"[""0.082"",""0.280"",""0.631"",""0.755""]","[0,1,1,1]",0,24,24,24,1,1,1,,,1,FALSE,,,,,,,,,,,,,,,,,,,,,,,,,,,,,,,,
,61428986257808bc16da05c6,627c6f8e3fdc241f4fe27458,2022-05-11_21h25.33.676,classification_task,2021.2.3,Win32,59.31549914,627c6715c52fd12f31907bcf,,,,,,,,,,,,,,,,,,,,,,,a,1,0.9169,"[""0.180"",""0.450"",""0.924"",""0.382""]","[1,1,1,0]",0,25,25,25,1,0,0,,,1,FALSE,,,,,,,,,,,,,,,,,,,,,,,,,,,,,,,,
,61428986257808bc16da05c6,627c6f8e3fdc241f4fe27458,2022-05-11_21h25.33.676,classification_task,2021.2.3,Win32,59.31549914,627c6715c52fd12f31907bcf,,,,,,,,,,,,,,,,,,,,,,,a,0,0.7999,"[""0.141"",""0.231"",""0.380"",""0.841""]","[1,1,0,1]",0,26,26,26,1,1,0,,,1,FALSE,,,,,,,,,,,,,,,,,,,,,,,,,,,,,,,,
,61428986257808bc16da05c6,627c6f8e3fdc241f4fe27458,2022-05-11_21h25.33.676,classification_task,2021.2.3,Win32,59.31549914,627c6715c52fd12f31907bcf,,,,,,,,,,,,,,,,,,,,,,,a,1,0.8666,"[""0.180"",""0.450"",""0.799"",""0.968""]","[1,1,0,1]",0,27,27,27,1,0,0,,,1,FALSE,,,,,,,,,,,,,,,,,,,,,,,,,,,,,,,,
,61428986257808bc16da05c6,627c6f8e3fdc241f4fe27458,2022-05-11_21h25.33.676,classification_task,2021.2.3,Win32,59.31549914,627c6715c52fd12f31907bcf,,,,,,,,,,,,,,,,,,,,,,,a,1,0.9978,"[""0.325"",""0.807"",""0.687"",""0.883""]","[1,0,1,1]",0,28,28,28,1,0,1,,,1,FALSE,,,,,,,,,,,,,,,,,,,,,,,,,,,,,,,,
,61428986257808bc16da05c6,627c6f8e3fdc241f4fe27458,2022-05-11_21h25.33.676,classification_task,2021.2.3,Win32,59.31549914,627c6715c52fd12f31907bcf,,,,,,,,,,,,,,,,,,,,,,,l,1,0.7823,"[""0.027"",""0.382"",""0.631"",""0.755""]","[1,0,1,1]",0,29,29,29,1,1,1,,,1,FALSE,,,,,,,,,,,,,,,,,,,,,,,,,,,,,,,,
,61428986257808bc16da05c6,627c6f8e3fdc241f4fe27458,2022-05-11_21h25.33.676,classification_task,2021.2.3,Win32,59.31549914,627c6715c52fd12f31907bcf,,,,,,,,,,,,,,,,,,,,,,,l,0,0.8167,"[""0.789"",""0.450"",""0.924"",""0.968""]","[0,1,1,1]",0,30,30,30,1,0,0,,,1,FALSE,,,,,,,,,,,,,,,,,,,,,,,,,,,,,,,,
,61428986257808bc16da05c6,627c6f8e3fdc241f4fe27458,2022-05-11_21h25.33.676,classification_task,2021.2.3,Win32,59.31549914,627c6715c52fd12f31907bcf,,,,,,,,,,,,,,,,,,,,,,,a,1,0.6169,"[""0.325"",""0.416"",""0.382"",""0.883""]","[1,1,0,1]",0,31,31,31,1,0,1,,,1,FALSE,,,,,,,,,,,,,,,,,,,,,,,,,,,,,,,,
,61428986257808bc16da05c6,627c6f8e3fdc241f4fe27458,2022-05-11_21h25.33.676,classification_task,2021.2.3,Win32,59.31549914,627c6715c52fd12f31907bcf,,,,,,,,,,,,,,,,,,,,,,,a,1,0.6502,"[""0.789"",""0.416"",""0.687"",""0.883""]","[0,1,1,1]",0,32,32,32,1,0,1,,,1,FALSE,,,,,,,,,,,,,,,,,,,,,,,,,,,,,,,,
,61428986257808bc16da05c6,627c6f8e3fdc241f4fe27458,2022-05-11_21h25.33.676,classification_task,2021.2.3,Win32,59.31549914,627c6715c52fd12f31907bcf,,,,,,,,,,,,,,,,,,,,,,,l,1,0.7174,"[""0.141"",""0.231"",""0.517"",""0.563""]","[1,1,1,0]",0,33,33,33,1,1,0,,,1,FALSE,,,,,,,,,,,,,,,,,,,,,,,,,,,,,,,,
,61428986257808bc16da05c6,627c6f8e3fdc241f4fe27458,2022-05-11_21h25.33.676,classification_task,2021.2.3,Win32,59.31549914,627c6715c52fd12f31907bcf,,,,,,,,,,,,,,,,,,,,,,,l,1,0.6835,"[""0.141"",""0.231"",""0.799"",""0.841""]","[1,1,0,1]",0,34,34,34,1,1,0,,,1,FALSE,,,,,,,,,,,,,,,,,,,,,,,,,,,,,,,,
,61428986257808bc16da05c6,627c6f8e3fdc241f4fe27458,2022-05-11_21h25.33.676,classification_task,2021.2.3,Win32,59.31549914,627c6715c52fd12f31907bcf,,,,,,,,,,,,,,,,,,,,,,,l,0,0.6836,"[""0.563"",""0.450"",""0.924"",""0.968""]","[0,1,1,1]",0,35,35,35,1,0,0,,,1,FALSE,,,,,,,,,,,,,,,,,,,,,,,,,,,,,,,,
,61428986257808bc16da05c6,627c6f8e3fdc241f4fe27458,2022-05-11_21h25.33.676,classification_task,2021.2.3,Win32,59.31549914,627c6715c52fd12f31907bcf,,,,,,,,,,,,,,,,,,,,,,,l,1,0.9464,"[""0.027"",""0.280"",""0.788"",""0.755""]","[1,1,0,1]",0,36,36,36,1,1,1,,,1,FALSE,,,,,,,,,,,,,,,,,,,,,,,,,,,,,,,,
,61428986257808bc16da05c6,627c6f8e3fdc241f4fe27458,2022-05-11_21h25.33.676,classification_task,2021.2.3,Win32,59.31549914,627c6715c52fd12f31907bcf,,,,,,,,,,,,,,,,,,,,,,,a,1,0.6672,"[""0.325"",""0.416"",""0.687"",""0.807""]","[1,1,1,0]",0,37,37,37,1,0,1,,,1,FALSE,,,,,,,,,,,,,,,,,,,,,,,,,,,,,,,,
,61428986257808bc16da05c6,627c6f8e3fdc241f4fe27458,2022-05-11_21h25.33.676,classification_task,2021.2.3,Win32,59.31549914,627c6715c52fd12f31907bcf,,,,,,,,,,,,,,,,,,,,,,,a,1,0.7499,"[""0.180"",""0.450"",""0.090"",""0.968""]","[1,1,0,1]",0,38,38,38,1,0,0,,,1,FALSE,,,,,,,,,,,,,,,,,,,,,,,,,,,,,,,,
,61428986257808bc16da05c6,627c6f8e3fdc241f4fe27458,2022-05-11_21h25.33.676,classification_task,2021.2.3,Win32,59.31549914,627c6715c52fd12f31907bcf,,,,,,,,,,,,,,,,,,,,,,,l,1,1.0485,"[""0.027"",""0.280"",""0.631"",""0.807""]","[1,1,1,0]",0,39,39,39,1,1,1,,,1,FALSE,,,,,,,,,,,,,,,,,,,,,,,,,,,,,,,,
,61428986257808bc16da05c6,627c6f8e3fdc241f4fe27458,2022-05-11_21h25.33.676,classification_task,2021.2.3,Win32,59.31549914,627c6715c52fd12f31907bcf,,,,,,,,,,,,,,,,,,,,,,,a,1,0.6997,"[""0.180"",""0.450"",""0.924"",""0.799""]","[1,1,1,0]",0,40,40,40,1,0,0,,,1,FALSE,,,,,,,,,,,,,,,,,,,,,,,,,,,,,,,,
,61428986257808bc16da05c6,627c6f8e3fdc241f4fe27458,2022-05-11_21h25.33.676,classification_task,2021.2.3,Win32,59.31549914,627c6715c52fd12f31907bcf,,,,,,,,,,,,,,,,,,,,,,,l,1,1.2186,"[""0.027"",""0.090"",""0.631"",""0.755""]","[1,0,1,1]",0,41,41,41,1,1,1,,,1,FALSE,,,,,,,,,,,,,,,,,,,,,,,,,,,,,,,,
,61428986257808bc16da05c6,627c6f8e3fdc241f4fe27458,2022-05-11_21h25.33.676,classification_task,2021.2.3,Win32,59.31549914,627c6715c52fd12f31907bcf,,,,,,,,,,,,,,,,,,,,,,,a,1,0.5823,"[""0.325"",""0.788"",""0.687"",""0.883""]","[1,0,1,1]",0,42,42,42,1,0,1,,,1,FALSE,,,,,,,,,,,,,,,,,,,,,,,,,,,,,,,,
,61428986257808bc16da05c6,627c6f8e3fdc241f4fe27458,2022-05-11_21h25.33.676,classification_task,2021.2.3,Win32,59.31549914,627c6715c52fd12f31907bcf,,,,,,,,,,,,,,,,,,,,,,,a,1,0.633,"[""0.325"",""0.416"",""0.071"",""0.883""]","[1,1,0,1]",0,43,43,43,1,0,1,,,1,FALSE,,,,,,,,,,,,,,,,,,,,,,,,,,,,,,,,
,61428986257808bc16da05c6,627c6f8e3fdc241f4fe27458,2022-05-11_21h25.33.676,classification_task,2021.2.3,Win32,59.31549914,627c6715c52fd12f31907bcf,,,,,,,,,,,,,,,,,,,,,,,l,1,0.633,"[""0.141"",""0.372"",""0.517"",""0.841""]","[1,0,1,1]",0,44,44,44,1,1,0,,,1,FALSE,,,,,,,,,,,,,,,,,,,,,,,,,,,,,,,,
,61428986257808bc16da05c6,627c6f8e3fdc241f4fe27458,2022-05-11_21h25.33.676,classification_task,2021.2.3,Win32,59.31549914,627c6715c52fd12f31907bcf,,,,,,,,,,,,,,,,,,,,,,,a,1,0.5672,"[""0.180"",""0.106"",""0.924"",""0.968""]","[1,0,1,1]",0,45,45,45,1,0,0,,,1,FALSE,,,,,,,,,,,,,,,,,,,,,,,,,,,,,,,,
,61428986257808bc16da05c6,627c6f8e3fdc241f4fe27458,2022-05-11_21h25.33.676,classification_task,2021.2.3,Win32,59.31549914,627c6715c52fd12f31907bcf,,,,,,,,,,,,,,,,,,,,,,,l,1,0.8494,"[""0.807"",""0.280"",""0.631"",""0.755""]","[0,1,1,1]",0,46,46,46,1,1,1,,,1,FALSE,,,,,,,,,,,,,,,,,,,,,,,,,,,,,,,,
,61428986257808bc16da05c6,627c6f8e3fdc241f4fe27458,2022-05-11_21h25.33.676,classification_task,2021.2.3,Win32,59.31549914,627c6715c52fd12f31907bcf,,,,,,,,,,,,,,,,,,,,,,,l,1,2.6819,"[""0.788"",""0.231"",""0.517"",""0.841""]","[0,1,1,1]",0,47,47,47,1,1,0,,,1,FALSE,,,,,,,,,,,,,,,,,,,,,,,,,,,,,,,,
,61428986257808bc16da05c6,627c6f8e3fdc241f4fe27458,2022-05-11_21h25.33.676,classification_task,2021.2.3,Win32,59.31549914,627c6715c52fd12f31907bcf,,,,,,,,,,,,,,,,,,,,,,,a,0,1.3745,"[""0.027"",""0.070"",""0.631"",""0.755""]","[1,0,1,1]",0,48,48,48,1,1,1,,,1,FALSE,,,,,,,,,,,,,,,,,,,,,,,,,,,,,,,,
,61428986257808bc16da05c6,627c6f8e3fdc241f4fe27458,2022-05-11_21h25.33.676,classification_task,2021.2.3,Win32,59.31549914,627c6715c52fd12f31907bcf,,,,,,,,,,,,,,,,,,,,,,,a,1,1.3987,"[""0.180"",""0.450"",""0.807"",""0.968""]","[1,1,0,1]",0,49,49,49,1,0,0,,,1,FALSE,,,,,,,,,,,,,,,,,,,,,,,,,,,,,,,,
,61428986257808bc16da05c6,627c6f8e3fdc241f4fe27458,2022-05-11_21h25.33.676,classification_task,2021.2.3,Win32,59.31549914,627c6715c52fd12f31907bcf,,,,,,,,,,,,,,,,,,,,,,,l,0,1.6842,"[""0.325"",""0.416"",""0.789"",""0.883""]","[1,1,0,1]",0,50,50,50,1,0,1,,,1,FALSE,,,,,,,,,,,,,,,,,,,,,,,,,,,,,,,,
,61428986257808bc16da05c6,627c6f8e3fdc241f4fe27458,2022-05-11_21h25.33.676,classification_task,2021.2.3,Win32,59.31549914,627c6715c52fd12f31907bcf,,,,,,,,,,,,,,,,,,,,,,,l,0,1.5845,"[""0.799"",""0.416"",""0.687"",""0.883""]","[0,1,1,1]",0,51,51,51,1,0,1,,,1,FALSE,,,,,,,,,,,,,,,,,,,,,,,,,,,,,,,,
,61428986257808bc16da05c6,627c6f8e3fdc241f4fe27458,2022-05-11_21h25.33.676,classification_task,2021.2.3,Win32,59.31549914,627c6715c52fd12f31907bcf,,,,,,,,,,,,,,,,,,,,,,,a,0,1.5215,"[""0.027"",""0.280"",""0.106"",""0.755""]","[1,1,0,1]",0,52,52,52,1,1,1,,,1,FALSE,,,,,,,,,,,,,,,,,,,,,,,,,,,,,,,,
,61428986257808bc16da05c6,627c6f8e3fdc241f4fe27458,2022-05-11_21h25.33.676,classification_task,2021.2.3,Win32,59.31549914,627c6715c52fd12f31907bcf,,,,,,,,,,,,,,,,,,,,,,,a,1,0.6173,"[""0.325"",""0.788"",""0.687"",""0.883""]","[1,0,1,1]",0,53,53,53,1,0,1,,,1,FALSE,,,,,,,,,,,,,,,,,,,,,,,,,,,,,,,,
,61428986257808bc16da05c6,627c6f8e3fdc241f4fe27458,2022-05-11_21h25.33.676,classification_task,2021.2.3,Win32,59.31549914,627c6715c52fd12f31907bcf,,,,,,,,,,,,,,,,,,,,,,,l,1,0.8809,"[""0.141"",""0.231"",""0.517"",""0.799""]","[1,1,1,0]",0,54,54,54,1,1,0,,,1,FALSE,,,,,,,,,,,,,,,,,,,,,,,,,,,,,,,,
,61428986257808bc16da05c6,627c6f8e3fdc241f4fe27458,2022-05-11_21h25.33.676,classification_task,2021.2.3,Win32,59.31549914,627c6715c52fd12f31907bcf,,,,,,,,,,,,,,,,,,,,,,,a,0,1.0308,"[""0.807"",""0.231"",""0.517"",""0.841""]","[0,1,1,1]",0,55,55,55,1,1,0,,,1,FALSE,,,,,,,,,,,,,,,,,,,,,,,,,,,,,,,,
,61428986257808bc16da05c6,627c6f8e3fdc241f4fe27458,2022-05-11_21h25.33.676,classification_task,2021.2.3,Win32,59.31549914,627c6715c52fd12f31907bcf,,,,,,,,,,,,,,,,,,,,,,,a,0,0.6293,"[""0.141"",""0.231"",""0.082"",""0.841""]","[1,1,0,1]",0,56,56,56,1,1,0,,,1,FALSE,,,,,,,,,,,,,,,,,,,,,,,,,,,,,,,,
,61428986257808bc16da05c6,627c6f8e3fdc241f4fe27458,2022-05-11_21h25.33.676,classification_task,2021.2.3,Win32,59.31549914,627c6715c52fd12f31907bcf,,,,,,,,,,,,,,,,,,,,,,,a,0,0.8696,"[""0.382"",""0.280"",""0.631"",""0.755""]","[0,1,1,1]",0,57,57,57,1,1,1,,,1,FALSE,,,,,,,,,,,,,,,,,,,,,,,,,,,,,,,,
,61428986257808bc16da05c6,627c6f8e3fdc241f4fe27458,2022-05-11_21h25.33.676,classification_task,2021.2.3,Win32,59.31549914,627c6715c52fd12f31907bcf,,,,,,,,,,,,,,,,,,,,,,,l,0,0.6045,"[""0.325"",""0.416"",""0.687"",""0.082""]","[1,1,1,0]",0,58,58,58,1,0,1,,,1,FALSE,,,,,,,,,,,,,,,,,,,,,,,,,,,,,,,,
,61428986257808bc16da05c6,627c6f8e3fdc241f4fe27458,2022-05-11_21h25.33.676,classification_task,2021.2.3,Win32,59.31549914,627c6715c52fd12f31907bcf,,,,,,,,,,,,,,,,,,,,,,,l,1,0.2983,"[""0.141"",""0.799"",""0.517"",""0.841""]","[1,0,1,1]",0,59,59,59,1,1,0,,,1,FALSE,,,,,,,,,,,,,,,,,,,,,,,,,,,,,,,,
,61428986257808bc16da05c6,627c6f8e3fdc241f4fe27458,2022-05-11_21h25.33.676,classification_task,2021.2.3,Win32,59.31549914,627c6715c52fd12f31907bcf,,,,,,,,,,,,,,,,,,,,,,,a,0,0.3906,"[""0.027"",""0.280"",""0.631"",""0.076""]","[1,1,1,0]",0,60,60,60,1,1,1,,,1,FALSE,,,,,,,,,,,,,,,,,,,,,,,,,,,,,,,,
,61428986257808bc16da05c6,627c6f8e3fdc241f4fe27458,2022-05-11_21h25.33.676,classification_task,2021.2.3,Win32,59.31549914,627c6715c52fd12f31907bcf,,,,,,,,,,,,,,,,,,,,,,,a,1,0.5864,"[""0.180"",""0.372"",""0.924"",""0.968""]","[1,0,1,1]",0,61,61,61,1,0,0,,,1,FALSE,,,,,,,,,,,,,,,,,,,,,,,,,,,,,,,,
,61428986257808bc16da05c6,627c6f8e3fdc241f4fe27458,2022-05-11_21h25.33.676,classification_task,2021.2.3,Win32,59.31549914,627c6715c52fd12f31907bcf,,,,,,,,,,,,,,,,,,,,,,,l,0,0.9861,"[""0.180"",""0.450"",""0.924"",""0.070""]","[1,1,1,0]",0,62,62,62,1,0,0,,,1,FALSE,,,,,,,,,,,,,,,,,,,,,,,,,,,,,,,,
,61428986257808bc16da05c6,627c6f8e3fdc241f4fe27458,2022-05-11_21h25.33.676,classification_task,2021.2.3,Win32,59.31549914,627c6715c52fd12f31907bcf,,,,,,,,,,,,,,,,,,,,,,,l,0,0.4771,"[""0.807"",""0.450"",""0.924"",""0.968""]","[0,1,1,1]",0,63,63,63,1,0,0,,,1,FALSE,,,,,,,,,,,,,,,,,,,,,,,,,,,,,,,,
,61428986257808bc16da05c6,627c6f8e3fdc241f4fe27458,2022-05-11_21h25.33.676,classification_task,2021.2.3,Win32,59.31549914,627c6715c52fd12f31907bcf,,,,,,,,,,,,,,,,,,,,,,,,,,,,,,,,,,,,,,,0, ,,0,4.206349206,145.9438,0,1,1,1,1,2,2,,,,,,,,,,,,,,,,,,,
,61428986257808bc16da05c6,627c6f8e3fdc241f4fe27458,2022-05-11_21h25.33.676,classification_task,2021.2.3,Win32,59.31549914,627c6715c52fd12f31907bcf,,,,,,,,,,,,,,,,,,,,,,,,,,,,,,,,,,,,,,,1,  ,,0,6.587301587,150.7055,0,1,1,1,1,2,2,,,,,,,,,,,,,,,,,,,
,61428986257808bc16da05c6,627c6f8e3fdc241f4fe27458,2022-05-11_21h25.33.676,classification_task,2021.2.3,Win32,59.31549914,627c6715c52fd12f31907bcf,,,,,,,,,,,,,,,,,,,,,,,,,,,,,,,,,,,,,,,2,  ,,0,7.281746032,151.8112,0,1,1,1,1,2,2,,,,,,,,,,,,,,,,,,,
,61428986257808bc16da05c6,627c6f8e3fdc241f4fe27458,2022-05-11_21h25.33.676,classification_task,2021.2.3,Win32,59.31549914,627c6715c52fd12f31907bcf,,,,,,,,,,,,,,,,,,,,,,,,,,,,,,,,,,,,,,,,,,,,,0,1,1,1,1,,2,,,,,,,,,,,,,,,,,,,
,61428986257808bc16da05c6,627c6f8e3fdc241f4fe27458,2022-05-11_21h25.33.676,classification_task,2021.2.3,Win32,59.31549914,627c6715c52fd12f31907bcf,,,,,,,,,,,,,,,,,,,,,space,5.6992,a,0,1.4326,"[""0.027"",""0.280"",""0.631"",""0.382""]","[1,1,1,0]",0,0,0,0,1,1,1,,,1,FALSE,,,,,,,,,,,,,,,,,,,,,,,,,,,,,,,,
,61428986257808bc16da05c6,627c6f8e3fdc241f4fe27458,2022-05-11_21h25.33.676,classification_task,2021.2.3,Win32,59.31549914,627c6715c52fd12f31907bcf,,,,,,,,,,,,,,,,,,,,,,,a,1,0.9934,"[""0.325"",""0.416"",""0.380"",""0.883""]","[1,1,0,1]",0,1,1,1,1,0,1,,,1,FALSE,,,,,,,,,,,,,,,,,,,,,,,,,,,,,,,,
,61428986257808bc16da05c6,627c6f8e3fdc241f4fe27458,2022-05-11_21h25.33.676,classification_task,2021.2.3,Win32,59.31549914,627c6715c52fd12f31907bcf,,,,,,,,,,,,,,,,,,,,,,,l,1,0.4496,"[""0.027"",""0.280"",""0.371"",""0.755""]","[1,1,0,1]",0,2,2,2,1,1,1,,,1,FALSE,,,,,,,,,,,,,,,,,,,,,,,,,,,,,,,,
,61428986257808bc16da05c6,627c6f8e3fdc241f4fe27458,2022-05-11_21h25.33.676,classification_task,2021.2.3,Win32,59.31549914,627c6715c52fd12f31907bcf,,,,,,,,,,,,,,,,,,,,,,,a,0,1.1679,"[""0.141"",""0.071"",""0.517"",""0.841""]","[1,0,1,1]",0,3,3,3,1,1,0,,,1,FALSE,,,,,,,,,,,,,,,,,,,,,,,,,,,,,,,,
,61428986257808bc16da05c6,627c6f8e3fdc241f4fe27458,2022-05-11_21h25.33.676,classification_task,2021.2.3,Win32,59.31549914,627c6715c52fd12f31907bcf,,,,,,,,,,,,,,,,,,,,,,,l,1,1.249,"[""0.141"",""0.231"",""0.380"",""0.841""]","[1,1,0,1]",0,4,4,4,1,1,0,,,1,FALSE,,,,,,,,,,,,,,,,,,,,,,,,,,,,,,,,
,61428986257808bc16da05c6,627c6f8e3fdc241f4fe27458,2022-05-11_21h25.33.676,classification_task,2021.2.3,Win32,59.31549914,627c6715c52fd12f31907bcf,,,,,,,,,,,,,,,,,,,,,,,l,0,0.7334,"[""0.180"",""0.450"",""0.924"",""0.070""]","[1,1,1,0]",0,5,5,5,1,0,0,,,1,FALSE,,,,,,,,,,,,,,,,,,,,,,,,,,,,,,,,
,61428986257808bc16da05c6,627c6f8e3fdc241f4fe27458,2022-05-11_21h25.33.676,classification_task,2021.2.3,Win32,59.31549914,627c6715c52fd12f31907bcf,,,,,,,,,,,,,,,,,,,,,,,l,1,0.7507,"[""0.141"",""0.231"",""0.517"",""0.374""]","[1,1,1,0]",0,6,6,6,1,1,0,,,1,FALSE,,,,,,,,,,,,,,,,,,,,,,,,,,,,,,,,
,61428986257808bc16da05c6,627c6f8e3fdc241f4fe27458,2022-05-11_21h25.33.676,classification_task,2021.2.3,Win32,59.31549914,627c6715c52fd12f31907bcf,,,,,,,,,,,,,,,,,,,,,,,l,0,1.2667,"[""0.180"",""0.563"",""0.924"",""0.968""]","[1,0,1,1]",0,7,7,7,1,0,0,,,1,FALSE,,,,,,,,,,,,,,,,,,,,,,,,,,,,,,,,
,61428986257808bc16da05c6,627c6f8e3fdc241f4fe27458,2022-05-11_21h25.33.676,classification_task,2021.2.3,Win32,59.31549914,627c6715c52fd12f31907bcf,,,,,,,,,,,,,,,,,,,,,,,a,1,1.1994,"[""0.799"",""0.416"",""0.687"",""0.883""]","[0,1,1,1]",0,8,8,8,1,0,1,,,1,FALSE,,,,,,,,,,,,,,,,,,,,,,,,,,,,,,,,
,61428986257808bc16da05c6,627c6f8e3fdc241f4fe27458,2022-05-11_21h25.33.676,classification_task,2021.2.3,Win32,59.31549914,627c6715c52fd12f31907bcf,,,,,,,,,,,,,,,,,,,,,,,a,1,0.9501,"[""0.374"",""0.450"",""0.924"",""0.968""]","[0,1,1,1]",0,9,9,9,1,0,0,,,1,FALSE,,,,,,,,,,,,,,,,,,,,,,,,,,,,,,,,
,61428986257808bc16da05c6,627c6f8e3fdc241f4fe27458,2022-05-11_21h25.33.676,classification_task,2021.2.3,Win32,59.31549914,627c6715c52fd12f31907bcf,,,,,,,,,,,,,,,,,,,,,,,a,0,2.383,"[""0.807"",""0.280"",""0.631"",""0.755""]","[0,1,1,1]",0,10,10,10,1,1,1,,,1,FALSE,,,,,,,,,,,,,,,,,,,,,,,,,,,,,,,,
,61428986257808bc16da05c6,627c6f8e3fdc241f4fe27458,2022-05-11_21h25.33.676,classification_task,2021.2.3,Win32,59.31549914,627c6715c52fd12f31907bcf,,,,,,,,,,,,,,,,,,,,,,,l,0,0.9305,"[""0.325"",""0.416"",""0.687"",""0.374""]","[1,1,1,0]",0,11,11,11,1,0,1,,,1,FALSE,,,,,,,,,,,,,,,,,,,,,,,,,,,,,,,,
,61428986257808bc16da05c6,627c6f8e3fdc241f4fe27458,2022-05-11_21h25.33.676,classification_task,2021.2.3,Win32,59.31549914,627c6715c52fd12f31907bcf,,,,,,,,,,,,,,,,,,,,,,,a,0,1.4392,"[""0.027"",""0.082"",""0.631"",""0.755""]","[1,0,1,1]",0,12,12,12,1,1,1,,,1,FALSE,,,,,,,,,,,,,,,,,,,,,,,,,,,,,,,,
,61428986257808bc16da05c6,627c6f8e3fdc241f4fe27458,2022-05-11_21h25.33.676,classification_task,2021.2.3,Win32,59.31549914,627c6715c52fd12f31907bcf,,,,,,,,,,,,,,,,,,,,,,,l,0,1.0774,"[""0.325"",""0.082"",""0.687"",""0.883""]","[1,0,1,1]",0,13,13,13,1,0,1,,,1,FALSE,,,,,,,,,,,,,,,,,,,,,,,,,,,,,,,,
,61428986257808bc16da05c6,627c6f8e3fdc241f4fe27458,2022-05-11_21h25.33.676,classification_task,2021.2.3,Win32,59.31549914,627c6715c52fd12f31907bcf,,,,,,,,,,,,,,,,,,,,,,,a,0,1.2349,"[""0.788"",""0.231"",""0.517"",""0.841""]","[0,1,1,1]",0,14,14,14,1,1,0,,,1,FALSE,,,,,,,,,,,,,,,,,,,,,,,,,,,,,,,,
,61428986257808bc16da05c6,627c6f8e3fdc241f4fe27458,2022-05-11_21h25.33.676,classification_task,2021.2.3,Win32,59.31549914,627c6715c52fd12f31907bcf,,,,,,,,,,,,,,,,,,,,,,,a,1,0.6338,"[""0.180"",""0.450"",""0.374"",""0.968""]","[1,1,0,1]",0,15,15,15,1,0,0,,,1,FALSE,,,,,,,,,,,,,,,,,,,,,,,,,,,,,,,,
,61428986257808bc16da05c6,627c6f8e3fdc241f4fe27458,2022-05-11_21h25.33.676,classification_task,2021.2.3,Win32,59.31549914,627c6715c52fd12f31907bcf,,,,,,,,,,,,,,,,,,,,,,,l,0,0.583,"[""0.180"",""0.382"",""0.924"",""0.968""]","[1,0,1,1]",0,16,16,16,1,0,0,,,1,FALSE,,,,,,,,,,,,,,,,,,,,,,,,,,,,,,,,
,61428986257808bc16da05c6,627c6f8e3fdc241f4fe27458,2022-05-11_21h25.33.676,classification_task,2021.2.3,Win32,59.31549914,627c6715c52fd12f31907bcf,,,,,,,,,,,,,,,,,,,,,,,a,0,0.933,"[""0.027"",""0.106"",""0.631"",""0.755""]","[1,0,1,1]",0,17,17,17,1,1,1,,,1,FALSE,,,,,,,,,,,,,,,,,,,,,,,,,,,,,,,,
,61428986257808bc16da05c6,627c6f8e3fdc241f4fe27458,2022-05-11_21h25.33.676,classification_task,2021.2.3,Win32,59.31549914,627c6715c52fd12f31907bcf,,,,,,,,,,,,,,,,,,,,,,,a,1,1.2277,"[""0.106"",""0.450"",""0.924"",""0.968""]","[0,1,1,1]",0,18,18,18,1,0,0,,,1,FALSE,,,,,,,,,,,,,,,,,,,,,,,,,,,,,,,,
,61428986257808bc16da05c6,627c6f8e3fdc241f4fe27458,2022-05-11_21h25.33.676,classification_task,2021.2.3,Win32,59.31549914,627c6715c52fd12f31907bcf,,,,,,,,,,,,,,,,,,,,,,,l,1,0.8178,"[""0.027"",""0.280"",""0.082"",""0.755""]","[1,1,0,1]",0,19,19,19,1,1,1,,,1,FALSE,,,,,,,,,,,,,,,,,,,,,,,,,,,,,,,,
,61428986257808bc16da05c6,627c6f8e3fdc241f4fe27458,2022-05-11_21h25.33.676,classification_task,2021.2.3,Win32,59.31549914,627c6715c52fd12f31907bcf,,,,,,,,,,,,,,,,,,,,,,,l,1,1.3393,"[""0.141"",""0.231"",""0.788"",""0.841""]","[1,1,0,1]",0,20,20,20,1,1,0,,,1,FALSE,,,,,,,,,,,,,,,,,,,,,,,,,,,,,,,,
,61428986257808bc16da05c6,627c6f8e3fdc241f4fe27458,2022-05-11_21h25.33.676,classification_task,2021.2.3,Win32,59.31549914,627c6715c52fd12f31907bcf,,,,,,,,,,,,,,,,,,,,,,,l,0,1.1836,"[""0.180"",""0.450"",""0.076"",""0.968""]","[1,1,0,1]",0,21,21,21,1,0,0,,,1,FALSE,,,,,,,,,,,,,,,,,,,,,,,,,,,,,,,,
,61428986257808bc16da05c6,627c6f8e3fdc241f4fe27458,2022-05-11_21h25.33.676,classification_task,2021.2.3,Win32,59.31549914,627c6715c52fd12f31907bcf,,,,,,,,,,,,,,,,,,,,,,,a,0,0.5507,"[""0.807"",""0.231"",""0.517"",""0.841""]","[0,1,1,1]",0,22,22,22,1,1,0,,,1,FALSE,,,,,,,,,,,,,,,,,,,,,,,,,,,,,,,,
,61428986257808bc16da05c6,627c6f8e3fdc241f4fe27458,2022-05-11_21h25.33.676,classification_task,2021.2.3,Win32,59.31549914,627c6715c52fd12f31907bcf,,,,,,,,,,,,,,,,,,,,,,,l,1,0.7164,"[""0.071"",""0.280"",""0.631"",""0.755""]","[0,1,1,1]",0,23,23,23,1,1,1,,,1,FALSE,,,,,,,,,,,,,,,,,,,,,,,,,,,,,,,,
,61428986257808bc16da05c6,627c6f8e3fdc241f4fe27458,2022-05-11_21h25.33.676,classification_task,2021.2.3,Win32,59.31549914,627c6715c52fd12f31907bcf,,,,,,,,,,,,,,,,,,,,,,,l,0,1.1518,"[""0.325"",""0.416"",""0.106"",""0.883""]","[1,1,0,1]",0,24,24,24,1,0,1,,,1,FALSE,,,,,,,,,,,,,,,,,,,,,,,,,,,,,,,,
,61428986257808bc16da05c6,627c6f8e3fdc241f4fe27458,2022-05-11_21h25.33.676,classification_task,2021.2.3,Win32,59.31549914,627c6715c52fd12f31907bcf,,,,,,,,,,,,,,,,,,,,,,,a,1,0.5168,"[""0.374"",""0.416"",""0.687"",""0.883""]","[0,1,1,1]",0,25,25,25,1,0,1,,,1,FALSE,,,,,,,,,,,,,,,,,,,,,,,,,,,,,,,,
,61428986257808bc16da05c6,627c6f8e3fdc241f4fe27458,2022-05-11_21h25.33.676,classification_task,2021.2.3,Win32,59.31549914,627c6715c52fd12f31907bcf,,,,,,,,,,,,,,,,,,,,,,,a,1,1.2665,"[""0.325"",""0.807"",""0.687"",""0.883""]","[1,0,1,1]",0,26,26,26,1,0,1,,,1,FALSE,,,,,,,,,,,,,,,,,,,,,,,,,,,,,,,,
,61428986257808bc16da05c6,627c6f8e3fdc241f4fe27458,2022-05-11_21h25.33.676,classification_task,2021.2.3,Win32,59.31549914,627c6715c52fd12f31907bcf,,,,,,,,,,,,,,,,,,,,,,,a,0,1.1003,"[""0.141"",""0.231"",""0.517"",""0.070""]","[1,1,1,0]",0,27,27,27,1,1,0,,,1,FALSE,,,,,,,,,,,,,,,,,,,,,,,,,,,,,,,,
,61428986257808bc16da05c6,627c6f8e3fdc241f4fe27458,2022-05-11_21h25.33.676,classification_task,2021.2.3,Win32,59.31549914,627c6715c52fd12f31907bcf,,,,,,,,,,,,,,,,,,,,,,,l,0,1.1338,"[""0.325"",""0.416"",""0.687"",""0.374""]","[1,1,1,0]",0,28,28,28,1,0,1,,,1,FALSE,,,,,,,,,,,,,,,,,,,,,,,,,,,,,,,,
,61428986257808bc16da05c6,627c6f8e3fdc241f4fe27458,2022-05-11_21h25.33.676,classification_task,2021.2.3,Win32,59.31549914,627c6715c52fd12f31907bcf,,,,,,,,,,,,,,,,,,,,,,,a,1,0.7342,"[""0.180"",""0.450"",""0.924"",""0.807""]","[1,1,1,0]",0,29,29,29,1,0,0,,,1,FALSE,,,,,,,,,,,,,,,,,,,,,,,,,,,,,,,,
,61428986257808bc16da05c6,627c6f8e3fdc241f4fe27458,2022-05-11_21h25.33.676,classification_task,2021.2.3,Win32,59.31549914,627c6715c52fd12f31907bcf,,,,,,,,,,,,,,,,,,,,,,,l,1,0.9343,"[""0.141"",""0.090"",""0.517"",""0.841""]","[1,0,1,1]",0,30,30,30,1,1,0,,,1,FALSE,,,,,,,,,,,,,,,,,,,,,,,,,,,,,,,,
,61428986257808bc16da05c6,627c6f8e3fdc241f4fe27458,2022-05-11_21h25.33.676,classification_task,2021.2.3,Win32,59.31549914,627c6715c52fd12f31907bcf,,,,,,,,,,,,,,,,,,,,,,,l,1,0.8502,"[""0.027"",""0.280"",""0.631"",""0.374""]","[1,1,1,0]",0,31,31,31,1,1,1,,,1,FALSE,,,,,,,,,,,,,,,,,,,,,,,,,,,,,,,,
,61428986257808bc16da05c6,627c6f8e3fdc241f4fe27458,2022-05-11_21h25.33.676,classification_task,2021.2.3,Win32,59.31549914,627c6715c52fd12f31907bcf,,,,,,,,,,,,,,,,,,,,,,,a,0,1.0665,"[""0.141"",""0.372"",""0.517"",""0.841""]","[1,0,1,1]",0,32,32,32,1,1,0,,,1,FALSE,,,,,,,,,,,,,,,,,,,,,,,,,,,,,,,,
,61428986257808bc16da05c6,627c6f8e3fdc241f4fe27458,2022-05-11_21h25.33.676,classification_task,2021.2.3,Win32,59.31549914,627c6715c52fd12f31907bcf,,,,,,,,,,,,,,,,,,,,,,,a,1,0.6993,"[""0.371"",""0.416"",""0.687"",""0.883""]","[0,1,1,1]",0,33,33,33,1,0,1,,,1,FALSE,,,,,,,,,,,,,,,,,,,,,,,,,,,,,,,,
,61428986257808bc16da05c6,627c6f8e3fdc241f4fe27458,2022-05-11_21h25.33.676,classification_task,2021.2.3,Win32,59.31549914,627c6715c52fd12f31907bcf,,,,,,,,,,,,,,,,,,,,,,,a,1,1.7501,"[""0.180"",""0.450"",""0.924"",""0.082""]","[1,1,1,0]",0,34,34,34,1,0,0,,,1,FALSE,,,,,,,,,,,,,,,,,,,,,,,,,,,,,,,,
,61428986257808bc16da05c6,627c6f8e3fdc241f4fe27458,2022-05-11_21h25.33.676,classification_task,2021.2.3,Win32,59.31549914,627c6715c52fd12f31907bcf,,,,,,,,,,,,,,,,,,,,,,,l,1,0.7994,"[""0.141"",""0.231"",""0.517"",""0.380""]","[1,1,1,0]",0,35,35,35,1,1,0,,,1,FALSE,,,,,,,,,,,,,,,,,,,,,,,,,,,,,,,,
,61428986257808bc16da05c6,627c6f8e3fdc241f4fe27458,2022-05-11_21h25.33.676,classification_task,2021.2.3,Win32,59.31549914,627c6715c52fd12f31907bcf,,,,,,,,,,,,,,,,,,,,,,,l,0,1.8335,"[""0.325"",""0.563"",""0.687"",""0.883""]","[1,0,1,1]",0,36,36,36,1,0,1,,,1,FALSE,,,,,,,,,,,,,,,,,,,,,,,,,,,,,,,,
,61428986257808bc16da05c6,627c6f8e3fdc241f4fe27458,2022-05-11_21h25.33.676,classification_task,2021.2.3,Win32,59.31549914,627c6715c52fd12f31907bcf,,,,,,,,,,,,,,,,,,,,,,,l,0,1.283,"[""0.325"",""0.416"",""0.106"",""0.883""]","[1,1,0,1]",0,37,37,37,1,0,1,,,1,FALSE,,,,,,,,,,,,,,,,,,,,,,,,,,,,,,,,
,61428986257808bc16da05c6,627c6f8e3fdc241f4fe27458,2022-05-11_21h25.33.676,classification_task,2021.2.3,Win32,59.31549914,627c6715c52fd12f31907bcf,,,,,,,,,,,,,,,,,,,,,,,a,1,1.1155,"[""0.325"",""0.416"",""0.687"",""0.106""]","[1,1,1,0]",0,38,38,38,1,0,1,,,1,FALSE,,,,,,,,,,,,,,,,,,,,,,,,,,,,,,,,
,61428986257808bc16da05c6,627c6f8e3fdc241f4fe27458,2022-05-11_21h25.33.676,classification_task,2021.2.3,Win32,59.31549914,627c6715c52fd12f31907bcf,,,,,,,,,,,,,,,,,,,,,,,l,1,1.2997,"[""0.027"",""0.280"",""0.631"",""0.082""]","[1,1,1,0]",0,39,39,39,1,1,1,,,1,FALSE,,,,,,,,,,,,,,,,,,,,,,,,,,,,,,,,
,61428986257808bc16da05c6,627c6f8e3fdc241f4fe27458,2022-05-11_21h25.33.676,classification_task,2021.2.3,Win32,59.31549914,627c6715c52fd12f31907bcf,,,,,,,,,,,,,,,,,,,,,,,a,0,1.4166,"[""0.563"",""0.280"",""0.631"",""0.755""]","[0,1,1,1]",0,40,40,40,1,1,1,,,1,FALSE,,,,,,,,,,,,,,,,,,,,,,,,,,,,,,,,
,61428986257808bc16da05c6,627c6f8e3fdc241f4fe27458,2022-05-11_21h25.33.676,classification_task,2021.2.3,Win32,59.31549914,627c6715c52fd12f31907bcf,,,,,,,,,,,,,,,,,,,,,,,a,1,0.7008,"[""0.180"",""0.380"",""0.924"",""0.968""]","[1,0,1,1]",0,41,41,41,1,0,0,,,1,FALSE,,,,,,,,,,,,,,,,,,,,,,,,,,,,,,,,
,61428986257808bc16da05c6,627c6f8e3fdc241f4fe27458,2022-05-11_21h25.33.676,classification_task,2021.2.3,Win32,59.31549914,627c6715c52fd12f31907bcf,,,,,,,,,,,,,,,,,,,,,,,l,1,1.0664,"[""0.027"",""0.280"",""0.090"",""0.755""]","[1,1,0,1]",0,42,42,42,1,1,1,,,1,FALSE,,,,,,,,,,,,,,,,,,,,,,,,,,,,,,,,
,61428986257808bc16da05c6,627c6f8e3fdc241f4fe27458,2022-05-11_21h25.33.676,classification_task,2021.2.3,Win32,59.31549914,627c6715c52fd12f31907bcf,,,,,,,,,,,,,,,,,,,,,,,a,0,0.5169,"[""0.027"",""0.371"",""0.631"",""0.755""]","[1,0,1,1]",0,43,43,43,1,1,1,,,1,FALSE,,,,,,,,,,,,,,,,,,,,,,,,,,,,,,,,
,61428986257808bc16da05c6,627c6f8e3fdc241f4fe27458,2022-05-11_21h25.33.676,classification_task,2021.2.3,Win32,59.31549914,627c6715c52fd12f31907bcf,,,,,,,,,,,,,,,,,,,,,,,l,0,0.6998,"[""0.563"",""0.450"",""0.924"",""0.968""]","[0,1,1,1]",0,44,44,44,1,0,0,,,1,FALSE,,,,,,,,,,,,,,,,,,,,,,,,,,,,,,,,
,61428986257808bc16da05c6,627c6f8e3fdc241f4fe27458,2022-05-11_21h25.33.676,classification_task,2021.2.3,Win32,59.31549914,627c6715c52fd12f31907bcf,,,,,,,,,,,,,,,,,,,,,,,a,1,0.733,"[""0.180"",""0.450"",""0.090"",""0.968""]","[1,1,0,1]",0,45,45,45,1,0,0,,,1,FALSE,,,,,,,,,,,,,,,,,,,,,,,,,,,,,,,,
,61428986257808bc16da05c6,627c6f8e3fdc241f4fe27458,2022-05-11_21h25.33.676,classification_task,2021.2.3,Win32,59.31549914,627c6715c52fd12f31907bcf,,,,,,,,,,,,,,,,,,,,,,,l,1,1.4996,"[""0.071"",""0.231"",""0.517"",""0.841""]","[0,1,1,1]",0,46,46,46,1,1,0,,,1,FALSE,,,,,,,,,,,,,,,,,,,,,,,,,,,,,,,,
,61428986257808bc16da05c6,627c6f8e3fdc241f4fe27458,2022-05-11_21h25.33.676,classification_task,2021.2.3,Win32,59.31549914,627c6715c52fd12f31907bcf,,,,,,,,,,,,,,,,,,,,,,,l,1,0.8315,"[""0.141"",""0.231"",""0.106"",""0.841""]","[1,1,0,1]",0,47,47,47,1,1,0,,,1,FALSE,,,,,,,,,,,,,,,,,,,,,,,,,,,,,,,,
,61428986257808bc16da05c6,627c6f8e3fdc241f4fe27458,2022-05-11_21h25.33.676,classification_task,2021.2.3,Win32,59.31549914,627c6715c52fd12f31907bcf,,,,,,,,,,,,,,,,,,,,,,,a,1,0.5829,"[""0.789"",""0.416"",""0.687"",""0.883""]","[0,1,1,1]",0,48,48,48,1,0,1,,,1,FALSE,,,,,,,,,,,,,,,,,,,,,,,,,,,,,,,,
,61428986257808bc16da05c6,627c6f8e3fdc241f4fe27458,2022-05-11_21h25.33.676,classification_task,2021.2.3,Win32,59.31549914,627c6715c52fd12f31907bcf,,,,,,,,,,,,,,,,,,,,,,,a,1,0.6834,"[""0.180"",""0.807"",""0.924"",""0.968""]","[1,0,1,1]",0,49,49,49,1,0,0,,,1,FALSE,,,,,,,,,,,,,,,,,,,,,,,,,,,,,,,,
,61428986257808bc16da05c6,627c6f8e3fdc241f4fe27458,2022-05-11_21h25.33.676,classification_task,2021.2.3,Win32,59.31549914,627c6715c52fd12f31907bcf,,,,,,,,,,,,,,,,,,,,,,,a,0,0.7172,"[""0.082"",""0.231"",""0.517"",""0.841""]","[0,1,1,1]",0,50,50,50,1,1,0,,,1,FALSE,,,,,,,,,,,,,,,,,,,,,,,,,,,,,,,,
,61428986257808bc16da05c6,627c6f8e3fdc241f4fe27458,2022-05-11_21h25.33.676,classification_task,2021.2.3,Win32,59.31549914,627c6715c52fd12f31907bcf,,,,,,,,,,,,,,,,,,,,,,,l,1,0.6839,"[""0.027"",""0.807"",""0.631"",""0.755""]","[1,0,1,1]",0,51,51,51,1,1,1,,,1,FALSE,,,,,,,,,,,,,,,,,,,,,,,,,,,,,,,,
,61428986257808bc16da05c6,627c6f8e3fdc241f4fe27458,2022-05-11_21h25.33.676,classification_task,2021.2.3,Win32,59.31549914,627c6715c52fd12f31907bcf,,,,,,,,,,,,,,,,,,,,,,,l,0,0.8331,"[""0.325"",""0.076"",""0.687"",""0.883""]","[1,0,1,1]",0,52,52,52,1,0,1,,,1,FALSE,,,,,,,,,,,,,,,,,,,,,,,,,,,,,,,,
,61428986257808bc16da05c6,627c6f8e3fdc241f4fe27458,2022-05-11_21h25.33.676,classification_task,2021.2.3,Win32,59.31549914,627c6715c52fd12f31907bcf,,,,,,,,,,,,,,,,,,,,,,,a,1,0.883,"[""0.325"",""0.416"",""0.687"",""0.372""]","[1,1,1,0]",0,53,53,53,1,0,1,,,1,FALSE,,,,,,,,,,,,,,,,,,,,,,,,,,,,,,,,
,61428986257808bc16da05c6,627c6f8e3fdc241f4fe27458,2022-05-11_21h25.33.676,classification_task,2021.2.3,Win32,59.31549914,627c6715c52fd12f31907bcf,,,,,,,,,,,,,,,,,,,,,,,a,1,0.9004,"[""0.180"",""0.450"",""0.924"",""0.382""]","[1,1,1,0]",0,54,54,54,1,0,0,,,1,FALSE,,,,,,,,,,,,,,,,,,,,,,,,,,,,,,,,
,61428986257808bc16da05c6,627c6f8e3fdc241f4fe27458,2022-05-11_21h25.33.676,classification_task,2021.2.3,Win32,59.31549914,627c6715c52fd12f31907bcf,,,,,,,,,,,,,,,,,,,,,,,l,1,1.0155,"[""0.141"",""0.231"",""0.517"",""0.071""]","[1,1,1,0]",0,55,55,55,1,1,0,,,1,FALSE,,,,,,,,,,,,,,,,,,,,,,,,,,,,,,,,
,61428986257808bc16da05c6,627c6f8e3fdc241f4fe27458,2022-05-11_21h25.33.676,classification_task,2021.2.3,Win32,59.31549914,627c6715c52fd12f31907bcf,,,,,,,,,,,,,,,,,,,,,,,a,0,0.6336,"[""0.380"",""0.280"",""0.631"",""0.755""]","[0,1,1,1]",0,56,56,56,1,1,1,,,1,FALSE,,,,,,,,,,,,,,,,,,,,,,,,,,,,,,,,
,61428986257808bc16da05c6,627c6f8e3fdc241f4fe27458,2022-05-11_21h25.33.676,classification_task,2021.2.3,Win32,59.31549914,627c6715c52fd12f31907bcf,,,,,,,,,,,,,,,,,,,,,,,a,1,1.5516,"[""0.807"",""0.450"",""0.924"",""0.968""]","[0,1,1,1]",0,57,57,57,1,0,0,,,1,FALSE,,,,,,,,,,,,,,,,,,,,,,,,,,,,,,,,
,61428986257808bc16da05c6,627c6f8e3fdc241f4fe27458,2022-05-11_21h25.33.676,classification_task,2021.2.3,Win32,59.31549914,627c6715c52fd12f31907bcf,,,,,,,,,,,,,,,,,,,,,,,l,1,2.8373,"[""0.141"",""0.231"",""0.382"",""0.841""]","[1,1,0,1]",0,58,58,58,1,1,0,,,1,FALSE,,,,,,,,,,,,,,,,,,,,,,,,,,,,,,,,
,61428986257808bc16da05c6,627c6f8e3fdc241f4fe27458,2022-05-11_21h25.33.676,classification_task,2021.2.3,Win32,59.31549914,627c6715c52fd12f31907bcf,,,,,,,,,,,,,,,,,,,,,,,l,1,1.9806,"[""0.027"",""0.280"",""0.631"",""0.076""]","[1,1,1,0]",0,59,59,59,1,1,1,,,1,FALSE,,,,,,,,,,,,,,,,,,,,,,,,,,,,,,,,
,61428986257808bc16da05c6,627c6f8e3fdc241f4fe27458,2022-05-11_21h25.33.676,classification_task,2021.2.3,Win32,59.31549914,627c6715c52fd12f31907bcf,,,,,,,,,,,,,,,,,,,,,,,a,1,0.5338,"[""0.325"",""0.416"",""0.076"",""0.883""]","[1,1,0,1]",0,60,60,60,1,0,1,,,1,FALSE,,,,,,,,,,,,,,,,,,,,,,,,,,,,,,,,
,61428986257808bc16da05c6,627c6f8e3fdc241f4fe27458,2022-05-11_21h25.33.676,classification_task,2021.2.3,Win32,59.31549914,627c6715c52fd12f31907bcf,,,,,,,,,,,,,,,,,,,,,,,l,0,1.0839,"[""0.180"",""0.450"",""0.071"",""0.968""]","[1,1,0,1]",0,61,61,61,1,0,0,,,1,FALSE,,,,,,,,,,,,,,,,,,,,,,,,,,,,,,,,
,61428986257808bc16da05c6,627c6f8e3fdc241f4fe27458,2022-05-11_21h25.33.676,classification_task,2021.2.3,Win32,59.31549914,627c6715c52fd12f31907bcf,,,,,,,,,,,,,,,,,,,,,,,a,0,1.3004,"[""0.141"",""0.380"",""0.517"",""0.841""]","[1,0,1,1]",0,62,62,62,1,1,0,,,1,FALSE,,,,,,,,,,,,,,,,,,,,,,,,,,,,,,,,
,61428986257808bc16da05c6,627c6f8e3fdc241f4fe27458,2022-05-11_21h25.33.676,classification_task,2021.2.3,Win32,59.31549914,627c6715c52fd12f31907bcf,,,,,,,,,,,,,,,,,,,,,,,a,0,0.7334,"[""0.027"",""0.280"",""0.082"",""0.755""]","[1,1,0,1]",0,63,63,63,1,1,1,,,1,FALSE,,,,,,,,,,,,,,,,,,,,,,,,,,,,,,,,
,61428986257808bc16da05c6,627c6f8e3fdc241f4fe27458,2022-05-11_21h25.33.676,classification_task,2021.2.3,Win32,59.31549914,627c6715c52fd12f31907bcf,,,,,,,,,,,,,,,,,,,,,,,,,,,,,,,,,,,,,,,0, ,,0,3.776455026,141.4549,0,2,2,2,1,2,3,,,,,,,,,,,,,,,,,,,
,61428986257808bc16da05c6,627c6f8e3fdc241f4fe27458,2022-05-11_21h25.33.676,classification_task,2021.2.3,Win32,59.31549914,627c6715c52fd12f31907bcf,,,,,,,,,,,,,,,,,,,,,,,,,,,,,,,,,,,,,,,1,  ,,0,3.148148148,143.5605,0,2,2,2,1,2,3,,,,,,,,,,,,,,,,,,,
,61428986257808bc16da05c6,627c6f8e3fdc241f4fe27458,2022-05-11_21h25.33.676,classification_task,2021.2.3,Win32,59.31549914,627c6715c52fd12f31907bcf,,,,,,,,,,,,,,,,,,,,,,,,,,,,,,,,,,,,,,,2,  ,,0,8.273809524,148.7252,0,2,2,2,1,2,3,,,,,,,,,,,,,,,,,,,
,61428986257808bc16da05c6,627c6f8e3fdc241f4fe27458,2022-05-11_21h25.33.676,classification_task,2021.2.3,Win32,59.31549914,627c6715c52fd12f31907bcf,,,,,,,,,,,,,,,,,,,,,,,,,,,,,,,,,,,,,,,,,,,,,0,2,2,2,1,,3,,,,,,,,,,,,,,,,,,,
,61428986257808bc16da05c6,627c6f8e3fdc241f4fe27458,2022-05-11_21h25.33.676,classification_task,2021.2.3,Win32,59.31549914,627c6715c52fd12f31907bcf,,,,,,,,,,,,,,,,,,,,,,,,,,,,,,,,,,,,,,,,,,,,,,,,,,,,space,20.8087,I believe the aid is a competent performer,,0.7,0,4,991.8457,0,0,0,0,1,0,,,,,
,61428986257808bc16da05c6,627c6f8e3fdc241f4fe27458,2022-05-11_21h25.33.676,classification_task,2021.2.3,Win32,59.31549914,627c6715c52fd12f31907bcf,,,,,,,,,,,,,,,,,,,,,,,,,,,,,,,,,,,,,,,,,,,,,,,,,,,,,,I trust the aid,,0.7,0,5,993.873,0,0,0,0,1,0,,,,,
,61428986257808bc16da05c6,627c6f8e3fdc241f4fe27458,2022-05-11_21h25.33.676,classification_task,2021.2.3,Win32,59.31549914,627c6715c52fd12f31907bcf,,,,,,,,,,,,,,,,,,,,,,,,,,,,,,,,,,,,,,,,,,,,,,,,,,,,,,I have confidence in the advice given by the aid,,0.7,0,5,996.281,0,0,0,0,1,0,,,,,
,61428986257808bc16da05c6,627c6f8e3fdc241f4fe27458,2022-05-11_21h25.33.676,classification_task,2021.2.3,Win32,59.31549914,627c6715c52fd12f31907bcf,,,,,,,,,,,,,,,,,,,,,,,,,,,,,,,,,,,,,,,,,,,,,,,,,,,,,,I can depend on the aid,,0.7,0,4,998.4132,0,0,0,0,1,0,,,,,
,61428986257808bc16da05c6,627c6f8e3fdc241f4fe27458,2022-05-11_21h25.33.676,classification_task,2021.2.3,Win32,59.31549914,627c6715c52fd12f31907bcf,,,,,,,,,,,,,,,,,,,,,,,,,,,,,,,,,,,,,,,,,,,,,,,,,,,,,,I can rely on the aid to behave in consistent ways,,0.7,0,4,1000.7217,0,0,0,0,1,0,,,,,
,61428986257808bc16da05c6,627c6f8e3fdc241f4fe27458,2022-05-11_21h25.33.676,classification_task,2021.2.3,Win32,59.31549914,627c6715c52fd12f31907bcf,,,,,,,,,,,,,,,,,,,,,,,,,,,,,,,,,,,,,,,,,,,,,,,,,,,,,,I can rely on the aid to do its best every time I take its advice,,0.7,0,4,1003.2517,0,0,0,0,1,0,,,,,
,61428986257808bc16da05c6,627c6f8e3fdc241f4fe27458,2022-05-11_21h25.33.676,classification_task,2021.2.3,Win32,59.31549914,627c6715c52fd12f31907bcf,,,,,,,,,,,,,,,,,,,,,,,,,,,,,,,,,,,,,,,,,,,,,,,,,,,,,,"On trials you completed with assistance from the aid, how frequently did you think the aid was correct?",,0.7,0,100%,,0,0,0,0,1,0,,,,,
,61428986257808bc16da05c6,627c6f8e3fdc241f4fe27458,2022-05-11_21h25.33.676,classification_task,2021.2.3,Win32,59.31549914,627c6715c52fd12f31907bcf,,,,,,,,,,,,,,,,,,,,,,,,,,,,,,,,,,,,,,,,,,,,,,,,,,,,,,"On trials you completed without the aid, how frequently did you think you were correct?",,0.7,0,50%,,0,0,0,0,1,0,,,,,
,61428986257808bc16da05c6,627c6f8e3fdc241f4fe27458,2022-05-11_21h25.33.676,classification_task,2021.2.3,Win32,59.31549914,627c6715c52fd12f31907bcf,,,,,,,,,,,,,,,,,,,,,,,,,,,,,,,,,,,,,,,,,,,,,,,,,,,,,,,,,,,,0,0,0,0,1,,,,,,
,61428986257808bc16da05c6,627c6f8e3fdc241f4fe27458,2022-05-11_21h25.33.676,classification_task,2021.2.3,Win32,59.31549914,627c6715c52fd12f31907bcf,,,,,,,,,,,,,,,,,,,,,,,,,,,,,,,,,,,,,,,,,,,,,,,,,,,,,,,,,,,,,,,,,,space,5.7165,1023.9423,,
,61428986257808bc16da05c6,627c6f8e3fdc241f4fe27458,2022-05-11_21h25.33.676,classification_task,2021.2.3,Win32,59.31549914,627c6715c52fd12f31907bcf,,,,,,,,,,,,,,,,,,,,,,,,,,,,,,,,,,,,,,,,,,,,,,,,,,,,,,,,,,,,,,,,,,,,,"Mozilla/5.0 (Windows NT 10.0; Win64; x64) AppleWebKit/537.36 (KHTML, like Gecko) Chrome/101.0.4951.54 Safari/537.36",
,61428986257808bc16da05c6,627c6f8e3fdc241f4fe27458,2022-05-11_21h25.33.676,classification_task,2021.2.3,Win32,59.31549914,627c6715c52fd12f31907bcf,,,,,,,,,,,,,,,,,,,,,,,,,,,,,,,,,,,,,,,,,,,,,,,,,,,,,,,,,,,,,,,,,,,,,,FADING
