usingWebGL,participant,session,date,expName,psychopyVersion,OS,frameRate,study_id,signatures_friend,signatures_foe,band_ranges_top,band_ranges_bottom,formitemText,formtype,formundefined,formitemWidth,formindex,formresponse,formrt,key_resp_2.keys,key_resp_2.rt,tute_resp.keys,tute_resp.rt,tutorial.thisRepN,tutorial.thisTrialN,tutorial.thisN,tutorial.thisIndex,tutorial.ran,key_resp_4.keys,key_resp_4.rt,key_resp.keys,key_resp.corr,lines_presented,is_signal_presented,trials.thisRepN,trials.thisTrialN,trials.thisN,trials.thisIndex,trials.ran,vessel,active_band,lines,is_signal,supported_pos,catch_trial,key_resp.rt,debrief_formindex,debrief_formitemText,debrief_formtype,debrief_formitemWidth,debrief_formresponse,debrief_formrt,phases.thisRepN,phases.thisTrialN,phases.thisN,phases.thisIndex,phases.ran,phases.order,phase,key_resp_3.keys,trustitemText,trusttype,trustitemWidth,trustindex,trustresponse,trustrt,support_status.thisRepN,support_status.thisTrialN,support_status.thisN,support_status.thisIndex,support_status.ran,support_status.order,key_resp_5.keys,key_resp_5.rt,globalClockTime,userAgent,manualCondition
TRUE,614399341d2f0bcb5fe49a91,627c674c603f29916a438aef,2022-05-11_20h48.19.147,classification_task,2021.2.3,Win32,144.7178003,627c6715c52fd12f31907bcf,,,,,,,,,,,,,,,,,,,,,,,,,,,,,,,,,,,,,,,,,,,,,,,,,,,,,,,,,,,,,,,,,,,,,
,614399341d2f0bcb5fe49a91,627c674c603f29916a438aef,2022-05-11_20h48.19.147,classification_task,2021.2.3,Win32,144.7178003,627c6715c52fd12f31907bcf,"[[""0.311"",""0.433"",""0.754"",""0.960""],[""0.220"",""0.379"",""0.874"",""0.925""]]","[[""0.040"",""0.274"",""0.485"",""0.805""],[""0.113"",""0.147"",""0.608"",""0.700""]]","[1,10]","[100,1000]",Video game experience,,,0.7,0,,,,,,,,,,,,,,,,,,,,,,,,,,,,,,,,,,,,,,,,,,,,,,,,,,,,,,,,,,,,
,614399341d2f0bcb5fe49a91,627c674c603f29916a438aef,2022-05-11_20h48.19.147,classification_task,2021.2.3,Win32,144.7178003,627c6715c52fd12f31907bcf,,,,,Approximately how many hours did you spend playing video games in the last week?,,,0.7,0,24,,,,,,,,,,,,,,,,,,,,,,,,,,,,,,,,,,,,,,,,,,,,,,,,,,,,,,,,,,,
,614399341d2f0bcb5fe49a91,627c674c603f29916a438aef,2022-05-11_20h48.19.147,classification_task,2021.2.3,Win32,144.7178003,627c6715c52fd12f31907bcf,,,,,"Which game did you play the most this year? (Enter ""None"" if you didn't play any)",,,0.7,0,Call of Duty Modern Warfare,,,,,,,,,,,,,,,,,,,,,,,,,,,,,,,,,,,,,,,,,,,,,,,,,,,,,,,,,,,
,614399341d2f0bcb5fe49a91,627c674c603f29916a438aef,2022-05-11_20h48.19.147,classification_task,2021.2.3,Win32,144.7178003,627c6715c52fd12f31907bcf,,,,,Visual perception,,,0.7,0,,,,,,,,,,,,,,,,,,,,,,,,,,,,,,,,,,,,,,,,,,,,,,,,,,,,,,,,,,,,
,614399341d2f0bcb5fe49a91,627c674c603f29916a438aef,2022-05-11_20h48.19.147,classification_task,2021.2.3,Win32,144.7178003,627c6715c52fd12f31907bcf,,,,,Do you have any form of color blindness?,,,0.7,0,No,55.2482,,,,,,,,,,,,,,,,,,,,,,,,,,,,,,,,,,,,,,,,,,,,,,,,,,,,,,,,,,
,614399341d2f0bcb5fe49a91,627c674c603f29916a438aef,2022-05-11_20h48.19.147,classification_task,2021.2.3,Win32,144.7178003,627c6715c52fd12f31907bcf,,,,,Do you use software to change the colour temperature of your screen (e.g. f.lux)?,,,0.7,0,No,60.8434,,,,,,,,,,,,,,,,,,,,,,,,,,,,,,,,,,,,,,,,,,,,,,,,,,,,,,,,,,
,614399341d2f0bcb5fe49a91,627c674c603f29916a438aef,2022-05-11_20h48.19.147,classification_task,2021.2.3,Win32,144.7178003,627c6715c52fd12f31907bcf,,,,,,,,,,,,space,45.2849,space,8.2314,0,0,0,0,1,,,,,,,,,,,,,,,,,,,,,,,,,,,,,,,,,,,,,,,,,,,,,,,,,
,614399341d2f0bcb5fe49a91,627c674c603f29916a438aef,2022-05-11_20h48.19.147,classification_task,2021.2.3,Win32,144.7178003,627c6715c52fd12f31907bcf,,,,,,,,,,,,,,space,10.0661,1,0,1,0,1,,,,,,,,,,,,,,,,,,,,,,,,,,,,,,,,,,,,,,,,,,,,,,,,,
,614399341d2f0bcb5fe49a91,627c674c603f29916a438aef,2022-05-11_20h48.19.147,classification_task,2021.2.3,Win32,144.7178003,627c6715c52fd12f31907bcf,,,,,,,,,,,,,,space,15.6638,2,0,2,0,1,,,,,,,,,,,,,,,,,,,,,,,,,,,,,,,,,,,,,,,,,,,,,,,,,
,614399341d2f0bcb5fe49a91,627c674c603f29916a438aef,2022-05-11_20h48.19.147,classification_task,2021.2.3,Win32,144.7178003,627c6715c52fd12f31907bcf,,,,,,,,,,,,,,space,52.6619,3,0,3,0,1,,,,,,,,,,,,,,,,,,,,,,,,,,,,,,,,,,,,,,,,,,,,,,,,,
,614399341d2f0bcb5fe49a91,627c674c603f29916a438aef,2022-05-11_20h48.19.147,classification_task,2021.2.3,Win32,144.7178003,627c6715c52fd12f31907bcf,,,,,,,,,,,,,,space,14.3032,4,0,4,0,1,,,,,,,,,,,,,,,,,,,,,,,,,,,,,,,,,,,,,,,,,,,,,,,,,
,614399341d2f0bcb5fe49a91,627c674c603f29916a438aef,2022-05-11_20h48.19.147,classification_task,2021.2.3,Win32,144.7178003,627c6715c52fd12f31907bcf,,,,,,,,,,,,,,,,,,,,,space,16.3696,,0,"[""0.113"",""0.651"",""0.608"",""0.700""]","[1,0,1,1]",0,0,0,0,1,1,1,,,0,FALSE,,,,,,,,,,,,,,,,,,,,,,,,,,,,,,,,
,614399341d2f0bcb5fe49a91,627c674c603f29916a438aef,2022-05-11_20h48.19.147,classification_task,2021.2.3,Win32,144.7178003,627c6715c52fd12f31907bcf,,,,,,,,,,,,,,,,,,,,,,,a,1,"[""0.220"",""0.526"",""0.874"",""0.925""]","[1,0,1,1]",0,1,1,1,1,0,1,,,0,FALSE,4.9014,,,,,,,,,,,,,,,,,,,,,,,,,,,,,,,
,614399341d2f0bcb5fe49a91,627c674c603f29916a438aef,2022-05-11_20h48.19.147,classification_task,2021.2.3,Win32,144.7178003,627c6715c52fd12f31907bcf,,,,,,,,,,,,,,,,,,,,,,,l,1,"[""0.040"",""0.274"",""0.485"",""0.530""]","[1,1,1,0]",0,2,2,2,1,1,0,,,0,FALSE,7.7262,,,,,,,,,,,,,,,,,,,,,,,,,,,,,,,
,614399341d2f0bcb5fe49a91,627c674c603f29916a438aef,2022-05-11_20h48.19.147,classification_task,2021.2.3,Win32,144.7178003,627c6715c52fd12f31907bcf,,,,,,,,,,,,,,,,,,,,,,,a,1,"[""0.220"",""0.379"",""0.534"",""0.925""]","[1,1,0,1]",0,3,3,3,1,0,1,,,0,FALSE,3.8877,,,,,,,,,,,,,,,,,,,,,,,,,,,,,,,
,614399341d2f0bcb5fe49a91,627c674c603f29916a438aef,2022-05-11_20h48.19.147,classification_task,2021.2.3,Win32,144.7178003,627c6715c52fd12f31907bcf,,,,,,,,,,,,,,,,,,,,,,,a,1,"[""0.220"",""0.379"",""0.874"",""0.186""]","[1,1,1,0]",0,4,4,4,1,0,1,,,0,FALSE,4.3148,,,,,,,,,,,,,,,,,,,,,,,,,,,,,,,
,614399341d2f0bcb5fe49a91,627c674c603f29916a438aef,2022-05-11_20h48.19.147,classification_task,2021.2.3,Win32,144.7178003,627c6715c52fd12f31907bcf,,,,,,,,,,,,,,,,,,,,,,,a,1,"[""0.571"",""0.433"",""0.754"",""0.960""]","[0,1,1,1]",0,5,5,5,1,0,0,,,0,FALSE,5.7537,,,,,,,,,,,,,,,,,,,,,,,,,,,,,,,
,614399341d2f0bcb5fe49a91,627c674c603f29916a438aef,2022-05-11_20h48.19.147,classification_task,2021.2.3,Win32,144.7178003,627c6715c52fd12f31907bcf,,,,,,,,,,,,,,,,,,,,,,,l,1,"[""0.536"",""0.274"",""0.485"",""0.805""]","[0,1,1,1]",0,6,6,6,1,1,0,,,0,FALSE,6.3083,,,,,,,,,,,,,,,,,,,,,,,,,,,,,,,
,614399341d2f0bcb5fe49a91,627c674c603f29916a438aef,2022-05-11_20h48.19.147,classification_task,2021.2.3,Win32,144.7178003,627c6715c52fd12f31907bcf,,,,,,,,,,,,,,,,,,,,,,,l,1,"[""0.542"",""0.147"",""0.608"",""0.700""]","[0,1,1,1]",0,7,7,7,1,1,1,,,0,FALSE,5.7466,,,,,,,,,,,,,,,,,,,,,,,,,,,,,,,
,614399341d2f0bcb5fe49a91,627c674c603f29916a438aef,2022-05-11_20h48.19.147,classification_task,2021.2.3,Win32,144.7178003,627c6715c52fd12f31907bcf,,,,,,,,,,,,,,,,,,,,,,,l,1,"[""0.040"",""0.274"",""0.646"",""0.805""]","[1,1,0,1]",0,8,8,8,1,1,0,,,0,FALSE,4.7416,,,,,,,,,,,,,,,,,,,,,,,,,,,,,,,
,614399341d2f0bcb5fe49a91,627c674c603f29916a438aef,2022-05-11_20h48.19.147,classification_task,2021.2.3,Win32,144.7178003,627c6715c52fd12f31907bcf,,,,,,,,,,,,,,,,,,,,,,,a,1,"[""0.183"",""0.379"",""0.874"",""0.925""]","[0,1,1,1]",0,9,9,9,1,0,1,,,0,FALSE,7.5457,,,,,,,,,,,,,,,,,,,,,,,,,,,,,,,
,614399341d2f0bcb5fe49a91,627c674c603f29916a438aef,2022-05-11_20h48.19.147,classification_task,2021.2.3,Win32,144.7178003,627c6715c52fd12f31907bcf,,,,,,,,,,,,,,,,,,,,,,,a,1,"[""0.311"",""0.433"",""0.754"",""0.651""]","[1,1,1,0]",0,10,10,10,1,0,0,,,0,FALSE,5.3731,,,,,,,,,,,,,,,,,,,,,,,,,,,,,,,
,614399341d2f0bcb5fe49a91,627c674c603f29916a438aef,2022-05-11_20h48.19.147,classification_task,2021.2.3,Win32,144.7178003,627c6715c52fd12f31907bcf,,,,,,,,,,,,,,,,,,,,,,,l,1,"[""0.040"",""0.536"",""0.485"",""0.805""]","[1,0,1,1]",0,11,11,11,1,1,0,,,0,FALSE,1.8406,,,,,,,,,,,,,,,,,,,,,,,,,,,,,,,
,614399341d2f0bcb5fe49a91,627c674c603f29916a438aef,2022-05-11_20h48.19.147,classification_task,2021.2.3,Win32,144.7178003,627c6715c52fd12f31907bcf,,,,,,,,,,,,,,,,,,,,,,,a,1,"[""0.311"",""0.571"",""0.754"",""0.960""]","[1,0,1,1]",0,12,12,12,1,0,0,,,0,FALSE,4.0235,,,,,,,,,,,,,,,,,,,,,,,,,,,,,,,
,614399341d2f0bcb5fe49a91,627c674c603f29916a438aef,2022-05-11_20h48.19.147,classification_task,2021.2.3,Win32,144.7178003,627c6715c52fd12f31907bcf,,,,,,,,,,,,,,,,,,,,,,,l,1,"[""0.113"",""0.147"",""0.608"",""0.186""]","[1,1,1,0]",0,13,13,13,1,1,1,,,0,FALSE,4.7189,,,,,,,,,,,,,,,,,,,,,,,,,,,,,,,
,614399341d2f0bcb5fe49a91,627c674c603f29916a438aef,2022-05-11_20h48.19.147,classification_task,2021.2.3,Win32,144.7178003,627c6715c52fd12f31907bcf,,,,,,,,,,,,,,,,,,,,,,,a,1,"[""0.311"",""0.433"",""0.534"",""0.960""]","[1,1,0,1]",0,14,14,14,1,0,0,,,0,FALSE,2.9572,,,,,,,,,,,,,,,,,,,,,,,,,,,,,,,
,614399341d2f0bcb5fe49a91,627c674c603f29916a438aef,2022-05-11_20h48.19.147,classification_task,2021.2.3,Win32,144.7178003,627c6715c52fd12f31907bcf,,,,,,,,,,,,,,,,,,,,,,,l,1,"[""0.113"",""0.147"",""0.186"",""0.700""]","[1,1,0,1]",0,15,15,15,1,1,1,,,0,FALSE,4.1032,,,,,,,,,,,,,,,,,,,,,,,,,,,,,,,
,614399341d2f0bcb5fe49a91,627c674c603f29916a438aef,2022-05-11_20h48.19.147,classification_task,2021.2.3,Win32,144.7178003,627c6715c52fd12f31907bcf,,,,,,,,,,,,,,,,,,,,,,,l,1,"[""0.186"",""0.147"",""0.608"",""0.700""]","[0,1,1,1]",0,16,16,16,1,1,1,,,0,FALSE,3.2497,,,,,,,,,,,,,,,,,,,,,,,,,,,,,,,
,614399341d2f0bcb5fe49a91,627c674c603f29916a438aef,2022-05-11_20h48.19.147,classification_task,2021.2.3,Win32,144.7178003,627c6715c52fd12f31907bcf,,,,,,,,,,,,,,,,,,,,,,,l,1,"[""0.536"",""0.274"",""0.485"",""0.805""]","[0,1,1,1]",0,17,17,17,1,1,0,,,0,FALSE,4.9425,,,,,,,,,,,,,,,,,,,,,,,,,,,,,,,
,614399341d2f0bcb5fe49a91,627c674c603f29916a438aef,2022-05-11_20h48.19.147,classification_task,2021.2.3,Win32,144.7178003,627c6715c52fd12f31907bcf,,,,,,,,,,,,,,,,,,,,,,,a,1,"[""0.220"",""0.379"",""0.571"",""0.925""]","[1,1,0,1]",0,18,18,18,1,0,1,,,0,FALSE,4.1645,,,,,,,,,,,,,,,,,,,,,,,,,,,,,,,
,614399341d2f0bcb5fe49a91,627c674c603f29916a438aef,2022-05-11_20h48.19.147,classification_task,2021.2.3,Win32,144.7178003,627c6715c52fd12f31907bcf,,,,,,,,,,,,,,,,,,,,,,,l,1,"[""0.113"",""0.530"",""0.608"",""0.700""]","[1,0,1,1]",0,19,19,19,1,1,1,,,0,FALSE,1.9732,,,,,,,,,,,,,,,,,,,,,,,,,,,,,,,
,614399341d2f0bcb5fe49a91,627c674c603f29916a438aef,2022-05-11_20h48.19.147,classification_task,2021.2.3,Win32,144.7178003,627c6715c52fd12f31907bcf,,,,,,,,,,,,,,,,,,,,,,,l,1,"[""0.113"",""0.147"",""0.651"",""0.700""]","[1,1,0,1]",0,20,20,20,1,1,1,,,0,FALSE,5.7353,,,,,,,,,,,,,,,,,,,,,,,,,,,,,,,
,614399341d2f0bcb5fe49a91,627c674c603f29916a438aef,2022-05-11_20h48.19.147,classification_task,2021.2.3,Win32,144.7178003,627c6715c52fd12f31907bcf,,,,,,,,,,,,,,,,,,,,,,,a,1,"[""0.220"",""0.536"",""0.874"",""0.925""]","[1,0,1,1]",0,21,21,21,1,0,1,,,0,FALSE,2.2364,,,,,,,,,,,,,,,,,,,,,,,,,,,,,,,
,614399341d2f0bcb5fe49a91,627c674c603f29916a438aef,2022-05-11_20h48.19.147,classification_task,2021.2.3,Win32,144.7178003,627c6715c52fd12f31907bcf,,,,,,,,,,,,,,,,,,,,,,,a,1,"[""0.311"",""0.183"",""0.754"",""0.960""]","[1,0,1,1]",0,22,22,22,1,0,0,,,0,FALSE,5.3322,,,,,,,,,,,,,,,,,,,,,,,,,,,,,,,
,614399341d2f0bcb5fe49a91,627c674c603f29916a438aef,2022-05-11_20h48.19.147,classification_task,2021.2.3,Win32,144.7178003,627c6715c52fd12f31907bcf,,,,,,,,,,,,,,,,,,,,,,,l,1,"[""0.040"",""0.186"",""0.485"",""0.805""]","[1,0,1,1]",0,23,23,23,1,1,0,,,0,FALSE,2.6453,,,,,,,,,,,,,,,,,,,,,,,,,,,,,,,
,614399341d2f0bcb5fe49a91,627c674c603f29916a438aef,2022-05-11_20h48.19.147,classification_task,2021.2.3,Win32,144.7178003,627c6715c52fd12f31907bcf,,,,,,,,,,,,,,,,,,,,,,,a,1,"[""0.311"",""0.433"",""0.754"",""0.542""]","[1,1,1,0]",0,24,24,24,1,0,0,,,0,FALSE,4.4169,,,,,,,,,,,,,,,,,,,,,,,,,,,,,,,
,614399341d2f0bcb5fe49a91,627c674c603f29916a438aef,2022-05-11_20h48.19.147,classification_task,2021.2.3,Win32,144.7178003,627c6715c52fd12f31907bcf,,,,,,,,,,,,,,,,,,,,,,,a,1,"[""0.530"",""0.433"",""0.754"",""0.960""]","[0,1,1,1]",0,25,25,25,1,0,0,,,0,FALSE,3.4779,,,,,,,,,,,,,,,,,,,,,,,,,,,,,,,
,614399341d2f0bcb5fe49a91,627c674c603f29916a438aef,2022-05-11_20h48.19.147,classification_task,2021.2.3,Win32,144.7178003,627c6715c52fd12f31907bcf,,,,,,,,,,,,,,,,,,,,,,,a,1,"[""0.220"",""0.379"",""0.874"",""0.542""]","[1,1,1,0]",0,26,26,26,1,0,1,,,0,FALSE,2.8128,,,,,,,,,,,,,,,,,,,,,,,,,,,,,,,
,614399341d2f0bcb5fe49a91,627c674c603f29916a438aef,2022-05-11_20h48.19.147,classification_task,2021.2.3,Win32,144.7178003,627c6715c52fd12f31907bcf,,,,,,,,,,,,,,,,,,,,,,,a,1,"[""0.660"",""0.379"",""0.874"",""0.925""]","[0,1,1,1]",0,27,27,27,1,0,1,,,0,FALSE,5.8185,,,,,,,,,,,,,,,,,,,,,,,,,,,,,,,
,614399341d2f0bcb5fe49a91,627c674c603f29916a438aef,2022-05-11_20h48.19.147,classification_task,2021.2.3,Win32,144.7178003,627c6715c52fd12f31907bcf,,,,,,,,,,,,,,,,,,,,,,,l,1,"[""0.040"",""0.274"",""0.646"",""0.805""]","[1,1,0,1]",0,28,28,28,1,1,0,,,0,FALSE,1.9709,,,,,,,,,,,,,,,,,,,,,,,,,,,,,,,
,614399341d2f0bcb5fe49a91,627c674c603f29916a438aef,2022-05-11_20h48.19.147,classification_task,2021.2.3,Win32,144.7178003,627c6715c52fd12f31907bcf,,,,,,,,,,,,,,,,,,,,,,,l,1,"[""0.040"",""0.274"",""0.485"",""0.530""]","[1,1,1,0]",0,29,29,29,1,1,0,,,0,FALSE,1.9099,,,,,,,,,,,,,,,,,,,,,,,,,,,,,,,
,614399341d2f0bcb5fe49a91,627c674c603f29916a438aef,2022-05-11_20h48.19.147,classification_task,2021.2.3,Win32,144.7178003,627c6715c52fd12f31907bcf,,,,,,,,,,,,,,,,,,,,,,,l,1,"[""0.113"",""0.147"",""0.608"",""0.526""]","[1,1,1,0]",0,30,30,30,1,1,1,,,0,FALSE,4.1868,,,,,,,,,,,,,,,,,,,,,,,,,,,,,,,
,614399341d2f0bcb5fe49a91,627c674c603f29916a438aef,2022-05-11_20h48.19.147,classification_task,2021.2.3,Win32,144.7178003,627c6715c52fd12f31907bcf,,,,,,,,,,,,,,,,,,,,,,,,0,"[""0.311"",""0.433"",""0.186"",""0.960""]","[1,1,0,1]",0,31,31,31,1,0,0,,,0,FALSE,,,,,,,,,,,,,,,,,,,,,,,,,,,,,,,,
,614399341d2f0bcb5fe49a91,627c674c603f29916a438aef,2022-05-11_20h48.19.147,classification_task,2021.2.3,Win32,144.7178003,627c6715c52fd12f31907bcf,,,,,,,,,,,,,,,,,,,,,,,l,1,"[""0.646"",""0.147"",""0.608"",""0.700""]","[0,1,1,1]",0,32,32,32,1,1,1,,,0,FALSE,4.636,,,,,,,,,,,,,,,,,,,,,,,,,,,,,,,
,614399341d2f0bcb5fe49a91,627c674c603f29916a438aef,2022-05-11_20h48.19.147,classification_task,2021.2.3,Win32,144.7178003,627c6715c52fd12f31907bcf,,,,,,,,,,,,,,,,,,,,,,,a,1,"[""0.660"",""0.379"",""0.874"",""0.925""]","[0,1,1,1]",0,33,33,33,1,0,1,,,0,FALSE,4.8049,,,,,,,,,,,,,,,,,,,,,,,,,,,,,,,
,614399341d2f0bcb5fe49a91,627c674c603f29916a438aef,2022-05-11_20h48.19.147,classification_task,2021.2.3,Win32,144.7178003,627c6715c52fd12f31907bcf,,,,,,,,,,,,,,,,,,,,,,,a,0,"[""0.040"",""0.542"",""0.485"",""0.805""]","[1,0,1,1]",0,34,34,34,1,1,0,,,0,FALSE,1.6325,,,,,,,,,,,,,,,,,,,,,,,,,,,,,,,
,614399341d2f0bcb5fe49a91,627c674c603f29916a438aef,2022-05-11_20h48.19.147,classification_task,2021.2.3,Win32,144.7178003,627c6715c52fd12f31907bcf,,,,,,,,,,,,,,,,,,,,,,,a,1,"[""0.220"",""0.379"",""0.874"",""0.540""]","[1,1,1,0]",0,35,35,35,1,0,1,,,0,FALSE,0.7779,,,,,,,,,,,,,,,,,,,,,,,,,,,,,,,
,614399341d2f0bcb5fe49a91,627c674c603f29916a438aef,2022-05-11_20h48.19.147,classification_task,2021.2.3,Win32,144.7178003,627c6715c52fd12f31907bcf,,,,,,,,,,,,,,,,,,,,,,,a,0,"[""0.040"",""0.274"",""0.646"",""0.805""]","[1,1,0,1]",0,36,36,36,1,1,0,,,0,FALSE,1.1526,,,,,,,,,,,,,,,,,,,,,,,,,,,,,,,
,614399341d2f0bcb5fe49a91,627c674c603f29916a438aef,2022-05-11_20h48.19.147,classification_task,2021.2.3,Win32,144.7178003,627c6715c52fd12f31907bcf,,,,,,,,,,,,,,,,,,,,,,,l,1,"[""0.040"",""0.274"",""0.485"",""0.530""]","[1,1,1,0]",0,37,37,37,1,1,0,,,0,FALSE,0.6389,,,,,,,,,,,,,,,,,,,,,,,,,,,,,,,
,614399341d2f0bcb5fe49a91,627c674c603f29916a438aef,2022-05-11_20h48.19.147,classification_task,2021.2.3,Win32,144.7178003,627c6715c52fd12f31907bcf,,,,,,,,,,,,,,,,,,,,,,,l,0,"[""0.311"",""0.433"",""0.754"",""0.540""]","[1,1,1,0]",0,38,38,38,1,0,0,,,0,FALSE,2.007,,,,,,,,,,,,,,,,,,,,,,,,,,,,,,,
,614399341d2f0bcb5fe49a91,627c674c603f29916a438aef,2022-05-11_20h48.19.147,classification_task,2021.2.3,Win32,144.7178003,627c6715c52fd12f31907bcf,,,,,,,,,,,,,,,,,,,,,,,a,0,"[""0.646"",""0.274"",""0.485"",""0.805""]","[0,1,1,1]",0,39,39,39,1,1,0,,,0,FALSE,0.6453,,,,,,,,,,,,,,,,,,,,,,,,,,,,,,,
,614399341d2f0bcb5fe49a91,627c674c603f29916a438aef,2022-05-11_20h48.19.147,classification_task,2021.2.3,Win32,144.7178003,627c6715c52fd12f31907bcf,,,,,,,,,,,,,,,,,,,,,,,l,0,"[""0.311"",""0.433"",""0.518"",""0.960""]","[1,1,0,1]",0,40,40,40,1,0,0,,,0,FALSE,2.2222,,,,,,,,,,,,,,,,,,,,,,,,,,,,,,,
,614399341d2f0bcb5fe49a91,627c674c603f29916a438aef,2022-05-11_20h48.19.147,classification_task,2021.2.3,Win32,144.7178003,627c6715c52fd12f31907bcf,,,,,,,,,,,,,,,,,,,,,,,l,1,"[""0.113"",""0.147"",""0.540"",""0.700""]","[1,1,0,1]",0,41,41,41,1,1,1,,,0,FALSE,1.5003,,,,,,,,,,,,,,,,,,,,,,,,,,,,,,,
,614399341d2f0bcb5fe49a91,627c674c603f29916a438aef,2022-05-11_20h48.19.147,classification_task,2021.2.3,Win32,144.7178003,627c6715c52fd12f31907bcf,,,,,,,,,,,,,,,,,,,,,,,a,1,"[""0.220"",""0.186"",""0.874"",""0.925""]","[1,0,1,1]",0,42,42,42,1,0,1,,,0,FALSE,1.0422,,,,,,,,,,,,,,,,,,,,,,,,,,,,,,,
,614399341d2f0bcb5fe49a91,627c674c603f29916a438aef,2022-05-11_20h48.19.147,classification_task,2021.2.3,Win32,144.7178003,627c6715c52fd12f31907bcf,,,,,,,,,,,,,,,,,,,,,,,a,0,"[""0.113"",""0.186"",""0.608"",""0.700""]","[1,0,1,1]",0,43,43,43,1,1,1,,,0,FALSE,0.8343,,,,,,,,,,,,,,,,,,,,,,,,,,,,,,,
,614399341d2f0bcb5fe49a91,627c674c603f29916a438aef,2022-05-11_20h48.19.147,classification_task,2021.2.3,Win32,144.7178003,627c6715c52fd12f31907bcf,,,,,,,,,,,,,,,,,,,,,,,a,1,"[""0.311"",""0.534"",""0.754"",""0.960""]","[1,0,1,1]",0,44,44,44,1,0,0,,,0,FALSE,1.7221,,,,,,,,,,,,,,,,,,,,,,,,,,,,,,,
,614399341d2f0bcb5fe49a91,627c674c603f29916a438aef,2022-05-11_20h48.19.147,classification_task,2021.2.3,Win32,144.7178003,627c6715c52fd12f31907bcf,,,,,,,,,,,,,,,,,,,,,,,l,1,"[""0.113"",""0.147"",""0.608"",""0.186""]","[1,1,1,0]",0,45,45,45,1,1,1,,,0,FALSE,0.9653,,,,,,,,,,,,,,,,,,,,,,,,,,,,,,,
,614399341d2f0bcb5fe49a91,627c674c603f29916a438aef,2022-05-11_20h48.19.147,classification_task,2021.2.3,Win32,144.7178003,627c6715c52fd12f31907bcf,,,,,,,,,,,,,,,,,,,,,,,l,0,"[""0.534"",""0.433"",""0.754"",""0.960""]","[0,1,1,1]",0,46,46,46,1,0,0,,,0,FALSE,1.7709,,,,,,,,,,,,,,,,,,,,,,,,,,,,,,,
,614399341d2f0bcb5fe49a91,627c674c603f29916a438aef,2022-05-11_20h48.19.147,classification_task,2021.2.3,Win32,144.7178003,627c6715c52fd12f31907bcf,,,,,,,,,,,,,,,,,,,,,,,l,0,"[""0.220"",""0.379"",""0.183"",""0.925""]","[1,1,0,1]",0,47,47,47,1,0,1,,,0,FALSE,1.5421,,,,,,,,,,,,,,,,,,,,,,,,,,,,,,,
,614399341d2f0bcb5fe49a91,627c674c603f29916a438aef,2022-05-11_20h48.19.147,classification_task,2021.2.3,Win32,144.7178003,627c6715c52fd12f31907bcf,,,,,,,,,,,,,,,,,,,,,,,a,1,"[""0.311"",""0.526"",""0.754"",""0.960""]","[1,0,1,1]",0,48,48,48,1,0,0,,,0,FALSE,1.0421,,,,,,,,,,,,,,,,,,,,,,,,,,,,,,,
,614399341d2f0bcb5fe49a91,627c674c603f29916a438aef,2022-05-11_20h48.19.147,classification_task,2021.2.3,Win32,144.7178003,627c6715c52fd12f31907bcf,,,,,,,,,,,,,,,,,,,,,,,l,0,"[""0.186"",""0.379"",""0.874"",""0.925""]","[0,1,1,1]",0,49,49,49,1,0,1,,,0,FALSE,1.1388,,,,,,,,,,,,,,,,,,,,,,,,,,,,,,,
,614399341d2f0bcb5fe49a91,627c674c603f29916a438aef,2022-05-11_20h48.19.147,classification_task,2021.2.3,Win32,144.7178003,627c6715c52fd12f31907bcf,,,,,,,,,,,,,,,,,,,,,,,a,1,"[""0.186"",""0.433"",""0.754"",""0.960""]","[0,1,1,1]",0,50,50,50,1,0,0,,,0,FALSE,1.8057,,,,,,,,,,,,,,,,,,,,,,,,,,,,,,,
,614399341d2f0bcb5fe49a91,627c674c603f29916a438aef,2022-05-11_20h48.19.147,classification_task,2021.2.3,Win32,144.7178003,627c6715c52fd12f31907bcf,,,,,,,,,,,,,,,,,,,,,,,l,0,"[""0.220"",""0.542"",""0.874"",""0.925""]","[1,0,1,1]",0,51,51,51,1,0,1,,,0,FALSE,5.506,,,,,,,,,,,,,,,,,,,,,,,,,,,,,,,
,614399341d2f0bcb5fe49a91,627c674c603f29916a438aef,2022-05-11_20h48.19.147,classification_task,2021.2.3,Win32,144.7178003,627c6715c52fd12f31907bcf,,,,,,,,,,,,,,,,,,,,,,,a,0,"[""0.040"",""0.274"",""0.485"",""0.186""]","[1,1,1,0]",0,52,52,52,1,1,0,,,0,FALSE,1.3404,,,,,,,,,,,,,,,,,,,,,,,,,,,,,,,
,614399341d2f0bcb5fe49a91,627c674c603f29916a438aef,2022-05-11_20h48.19.147,classification_task,2021.2.3,Win32,144.7178003,627c6715c52fd12f31907bcf,,,,,,,,,,,,,,,,,,,,,,,l,0,"[""0.220"",""0.379"",""0.874"",""0.540""]","[1,1,1,0]",0,53,53,53,1,0,1,,,0,FALSE,4.1243,,,,,,,,,,,,,,,,,,,,,,,,,,,,,,,
,614399341d2f0bcb5fe49a91,627c674c603f29916a438aef,2022-05-11_20h48.19.147,classification_task,2021.2.3,Win32,144.7178003,627c6715c52fd12f31907bcf,,,,,,,,,,,,,,,,,,,,,,,l,1,"[""0.040"",""0.534"",""0.485"",""0.805""]","[1,0,1,1]",0,54,54,54,1,1,0,,,0,FALSE,4.562,,,,,,,,,,,,,,,,,,,,,,,,,,,,,,,
,614399341d2f0bcb5fe49a91,627c674c603f29916a438aef,2022-05-11_20h48.19.147,classification_task,2021.2.3,Win32,144.7178003,627c6715c52fd12f31907bcf,,,,,,,,,,,,,,,,,,,,,,,a,0,"[""0.113"",""0.147"",""0.608"",""0.660""]","[1,1,1,0]",0,55,55,55,1,1,1,,,0,FALSE,1.2432,,,,,,,,,,,,,,,,,,,,,,,,,,,,,,,
,614399341d2f0bcb5fe49a91,627c674c603f29916a438aef,2022-05-11_20h48.19.147,classification_task,2021.2.3,Win32,144.7178003,627c6715c52fd12f31907bcf,,,,,,,,,,,,,,,,,,,,,,,l,0,"[""0.220"",""0.379"",""0.536"",""0.925""]","[1,1,0,1]",0,56,56,56,1,0,1,,,0,FALSE,4.7635,,,,,,,,,,,,,,,,,,,,,,,,,,,,,,,
,614399341d2f0bcb5fe49a91,627c674c603f29916a438aef,2022-05-11_20h48.19.147,classification_task,2021.2.3,Win32,144.7178003,627c6715c52fd12f31907bcf,,,,,,,,,,,,,,,,,,,,,,,l,1,"[""0.113"",""0.530"",""0.608"",""0.700""]","[1,0,1,1]",0,57,57,57,1,1,1,,,0,FALSE,0.9439,,,,,,,,,,,,,,,,,,,,,,,,,,,,,,,
,614399341d2f0bcb5fe49a91,627c674c603f29916a438aef,2022-05-11_20h48.19.147,classification_task,2021.2.3,Win32,144.7178003,627c6715c52fd12f31907bcf,,,,,,,,,,,,,,,,,,,,,,,a,0,"[""0.040"",""0.274"",""0.186"",""0.805""]","[1,1,0,1]",0,58,58,58,1,1,0,,,0,FALSE,3.4721,,,,,,,,,,,,,,,,,,,,,,,,,,,,,,,
,614399341d2f0bcb5fe49a91,627c674c603f29916a438aef,2022-05-11_20h48.19.147,classification_task,2021.2.3,Win32,144.7178003,627c6715c52fd12f31907bcf,,,,,,,,,,,,,,,,,,,,,,,a,0,"[""0.646"",""0.274"",""0.485"",""0.805""]","[0,1,1,1]",0,59,59,59,1,1,0,,,0,FALSE,1.8263,,,,,,,,,,,,,,,,,,,,,,,,,,,,,,,
,614399341d2f0bcb5fe49a91,627c674c603f29916a438aef,2022-05-11_20h48.19.147,classification_task,2021.2.3,Win32,144.7178003,627c6715c52fd12f31907bcf,,,,,,,,,,,,,,,,,,,,,,,l,0,"[""0.311"",""0.433"",""0.754"",""0.183""]","[1,1,1,0]",0,60,60,60,1,0,0,,,0,FALSE,1.3057,,,,,,,,,,,,,,,,,,,,,,,,,,,,,,,
,614399341d2f0bcb5fe49a91,627c674c603f29916a438aef,2022-05-11_20h48.19.147,classification_task,2021.2.3,Win32,144.7178003,627c6715c52fd12f31907bcf,,,,,,,,,,,,,,,,,,,,,,,a,0,"[""0.113"",""0.147"",""0.542"",""0.700""]","[1,1,0,1]",0,61,61,61,1,1,1,,,0,FALSE,7.3945,,,,,,,,,,,,,,,,,,,,,,,,,,,,,,,
,614399341d2f0bcb5fe49a91,627c674c603f29916a438aef,2022-05-11_20h48.19.147,classification_task,2021.2.3,Win32,144.7178003,627c6715c52fd12f31907bcf,,,,,,,,,,,,,,,,,,,,,,,l,0,"[""0.311"",""0.433"",""0.534"",""0.960""]","[1,1,0,1]",0,62,62,62,1,0,0,,,0,FALSE,2.3122,,,,,,,,,,,,,,,,,,,,,,,,,,,,,,,
,614399341d2f0bcb5fe49a91,627c674c603f29916a438aef,2022-05-11_20h48.19.147,classification_task,2021.2.3,Win32,144.7178003,627c6715c52fd12f31907bcf,,,,,,,,,,,,,,,,,,,,,,,l,1,"[""0.534"",""0.147"",""0.608"",""0.700""]","[0,1,1,1]",0,63,63,63,1,1,1,,,0,FALSE,2.1807,,,,,,,,,,,,,,,,,,,,,,,,,,,,,,,
,614399341d2f0bcb5fe49a91,627c674c603f29916a438aef,2022-05-11_20h48.19.147,classification_task,2021.2.3,Win32,144.7178003,627c6715c52fd12f31907bcf,,,,,,,,,,,,,,,,,,,,,,,,,,,,,,,,,,,,,,,0, ,,0,10,569.2765,0,0,0,0,1,2,1,,,,,,,,,,,,,,,,,,
,614399341d2f0bcb5fe49a91,627c674c603f29916a438aef,2022-05-11_20h48.19.147,classification_task,2021.2.3,Win32,144.7178003,627c6715c52fd12f31907bcf,,,,,,,,,,,,,,,,,,,,,,,,,,,,,,,,,,,,,,,1,  ,,0,10,574.3002,0,0,0,0,1,2,1,,,,,,,,,,,,,,,,,,
,614399341d2f0bcb5fe49a91,627c674c603f29916a438aef,2022-05-11_20h48.19.147,classification_task,2021.2.3,Win32,144.7178003,627c6715c52fd12f31907bcf,,,,,,,,,,,,,,,,,,,,,,,,,,,,,,,,,,,,,,,2,  ,,0,9.237703312,580.4031,0,0,0,0,1,2,1,,,,,,,,,,,,,,,,,,
,614399341d2f0bcb5fe49a91,627c674c603f29916a438aef,2022-05-11_20h48.19.147,classification_task,2021.2.3,Win32,144.7178003,627c6715c52fd12f31907bcf,,,,,,,,,,,,,,,,,,,,,,,,,,,,,,,,,,,,,,,,,,,,,0,0,0,0,1,,1,,,,,,,,,,,,,,,,,,
,614399341d2f0bcb5fe49a91,627c674c603f29916a438aef,2022-05-11_20h48.19.147,classification_task,2021.2.3,Win32,144.7178003,627c6715c52fd12f31907bcf,,,,,,,,,,,,,,,,,,,,,space,31.4838,a,0,"[""0.113"",""0.147"",""0.608"",""0.651""]","[1,1,1,0]",0,0,0,0,1,1,1,,,0,FALSE,6.2913,,,,,,,,,,,,,,,,,,,,,,,,,,,,,,,
,614399341d2f0bcb5fe49a91,627c674c603f29916a438aef,2022-05-11_20h48.19.147,classification_task,2021.2.3,Win32,144.7178003,627c6715c52fd12f31907bcf,,,,,,,,,,,,,,,,,,,,,,,l,1,"[""0.113"",""0.147"",""0.518"",""0.700""]","[1,1,0,1]",0,1,1,1,1,1,1,,,0,FALSE,1.0584,,,,,,,,,,,,,,,,,,,,,,,,,,,,,,,
,614399341d2f0bcb5fe49a91,627c674c603f29916a438aef,2022-05-11_20h48.19.147,classification_task,2021.2.3,Win32,144.7178003,627c6715c52fd12f31907bcf,,,,,,,,,,,,,,,,,,,,,,,l,1,"[""0.651"",""0.147"",""0.608"",""0.700""]","[0,1,1,1]",0,2,2,2,1,1,1,,,0,FALSE,2.4117,,,,,,,,,,,,,,,,,,,,,,,,,,,,,,,
,614399341d2f0bcb5fe49a91,627c674c603f29916a438aef,2022-05-11_20h48.19.147,classification_task,2021.2.3,Win32,144.7178003,627c6715c52fd12f31907bcf,,,,,,,,,,,,,,,,,,,,,,,l,0,"[""0.311"",""0.433"",""0.542"",""0.960""]","[1,1,0,1]",0,3,3,3,1,0,0,,,0,FALSE,5.8442,,,,,,,,,,,,,,,,,,,,,,,,,,,,,,,
,614399341d2f0bcb5fe49a91,627c674c603f29916a438aef,2022-05-11_20h48.19.147,classification_task,2021.2.3,Win32,144.7178003,627c6715c52fd12f31907bcf,,,,,,,,,,,,,,,,,,,,,,,l,1,"[""0.040"",""0.274"",""0.485"",""0.526""]","[1,1,1,0]",0,4,4,4,1,1,0,,,0,FALSE,0.952,,,,,,,,,,,,,,,,,,,,,,,,,,,,,,,
,614399341d2f0bcb5fe49a91,627c674c603f29916a438aef,2022-05-11_20h48.19.147,classification_task,2021.2.3,Win32,144.7178003,627c6715c52fd12f31907bcf,,,,,,,,,,,,,,,,,,,,,,,l,1,"[""0.040"",""0.274"",""0.571"",""0.805""]","[1,1,0,1]",0,5,5,5,1,1,0,,,0,FALSE,1.5486,,,,,,,,,,,,,,,,,,,,,,,,,,,,,,,
,614399341d2f0bcb5fe49a91,627c674c603f29916a438aef,2022-05-11_20h48.19.147,classification_task,2021.2.3,Win32,144.7178003,627c6715c52fd12f31907bcf,,,,,,,,,,,,,,,,,,,,,,,l,1,"[""0.040"",""0.534"",""0.485"",""0.805""]","[1,0,1,1]",0,6,6,6,1,1,0,,,0,FALSE,0.5237,,,,,,,,,,,,,,,,,,,,,,,,,,,,,,,
,614399341d2f0bcb5fe49a91,627c674c603f29916a438aef,2022-05-11_20h48.19.147,classification_task,2021.2.3,Win32,144.7178003,627c6715c52fd12f31907bcf,,,,,,,,,,,,,,,,,,,,,,,a,1,"[""0.311"",""0.433"",""0.754"",""0.186""]","[1,1,1,0]",0,7,7,7,1,0,0,,,0,FALSE,0.4928,,,,,,,,,,,,,,,,,,,,,,,,,,,,,,,
,614399341d2f0bcb5fe49a91,627c674c603f29916a438aef,2022-05-11_20h48.19.147,classification_task,2021.2.3,Win32,144.7178003,627c6715c52fd12f31907bcf,,,,,,,,,,,,,,,,,,,,,,,l,0,"[""0.220"",""0.651"",""0.874"",""0.925""]","[1,0,1,1]",0,8,8,8,1,0,1,,,0,FALSE,2.5632,,,,,,,,,,,,,,,,,,,,,,,,,,,,,,,
,614399341d2f0bcb5fe49a91,627c674c603f29916a438aef,2022-05-11_20h48.19.147,classification_task,2021.2.3,Win32,144.7178003,627c6715c52fd12f31907bcf,,,,,,,,,,,,,,,,,,,,,,,l,1,"[""0.564"",""0.274"",""0.485"",""0.805""]","[0,1,1,1]",0,9,9,9,1,1,0,,,0,FALSE,2.1808,,,,,,,,,,,,,,,,,,,,,,,,,,,,,,,
,614399341d2f0bcb5fe49a91,627c674c603f29916a438aef,2022-05-11_20h48.19.147,classification_task,2021.2.3,Win32,144.7178003,627c6715c52fd12f31907bcf,,,,,,,,,,,,,,,,,,,,,,,a,1,"[""0.660"",""0.379"",""0.874"",""0.925""]","[0,1,1,1]",0,10,10,10,1,0,1,,,0,FALSE,1.8276,,,,,,,,,,,,,,,,,,,,,,,,,,,,,,,
,614399341d2f0bcb5fe49a91,627c674c603f29916a438aef,2022-05-11_20h48.19.147,classification_task,2021.2.3,Win32,144.7178003,627c6715c52fd12f31907bcf,,,,,,,,,,,,,,,,,,,,,,,a,1,"[""0.186"",""0.433"",""0.754"",""0.960""]","[0,1,1,1]",0,11,11,11,1,0,0,,,0,FALSE,2.1377,,,,,,,,,,,,,,,,,,,,,,,,,,,,,,,
,614399341d2f0bcb5fe49a91,627c674c603f29916a438aef,2022-05-11_20h48.19.147,classification_task,2021.2.3,Win32,144.7178003,627c6715c52fd12f31907bcf,,,,,,,,,,,,,,,,,,,,,,,a,1,"[""0.220"",""0.379"",""0.564"",""0.925""]","[1,1,0,1]",0,12,12,12,1,0,1,,,0,FALSE,1.8731,,,,,,,,,,,,,,,,,,,,,,,,,,,,,,,
,614399341d2f0bcb5fe49a91,627c674c603f29916a438aef,2022-05-11_20h48.19.147,classification_task,2021.2.3,Win32,144.7178003,627c6715c52fd12f31907bcf,,,,,,,,,,,,,,,,,,,,,,,a,0,"[""0.113"",""0.542"",""0.608"",""0.700""]","[1,0,1,1]",0,13,13,13,1,1,1,,,0,FALSE,0.8925,,,,,,,,,,,,,,,,,,,,,,,,,,,,,,,
,614399341d2f0bcb5fe49a91,627c674c603f29916a438aef,2022-05-11_20h48.19.147,classification_task,2021.2.3,Win32,144.7178003,627c6715c52fd12f31907bcf,,,,,,,,,,,,,,,,,,,,,,,a,1,"[""0.311"",""0.530"",""0.754"",""0.960""]","[1,0,1,1]",0,14,14,14,1,0,0,,,0,FALSE,1.54,,,,,,,,,,,,,,,,,,,,,,,,,,,,,,,
,614399341d2f0bcb5fe49a91,627c674c603f29916a438aef,2022-05-11_20h48.19.147,classification_task,2021.2.3,Win32,144.7178003,627c6715c52fd12f31907bcf,,,,,,,,,,,,,,,,,,,,,,,a,1,"[""0.220"",""0.379"",""0.874"",""0.571""]","[1,1,1,0]",0,15,15,15,1,0,1,,,0,FALSE,1.0365,,,,,,,,,,,,,,,,,,,,,,,,,,,,,,,
,614399341d2f0bcb5fe49a91,627c674c603f29916a438aef,2022-05-11_20h48.19.147,classification_task,2021.2.3,Win32,144.7178003,627c6715c52fd12f31907bcf,,,,,,,,,,,,,,,,,,,,,,,l,0,"[""0.220"",""0.379"",""0.183"",""0.925""]","[1,1,0,1]",0,16,16,16,1,0,1,,,0,FALSE,1.1747,,,,,,,,,,,,,,,,,,,,,,,,,,,,,,,
,614399341d2f0bcb5fe49a91,627c674c603f29916a438aef,2022-05-11_20h48.19.147,classification_task,2021.2.3,Win32,144.7178003,627c6715c52fd12f31907bcf,,,,,,,,,,,,,,,,,,,,,,,l,1,"[""0.660"",""0.274"",""0.485"",""0.805""]","[0,1,1,1]",0,17,17,17,1,1,0,,,0,FALSE,0.7334,,,,,,,,,,,,,,,,,,,,,,,,,,,,,,,
,614399341d2f0bcb5fe49a91,627c674c603f29916a438aef,2022-05-11_20h48.19.147,classification_task,2021.2.3,Win32,144.7178003,627c6715c52fd12f31907bcf,,,,,,,,,,,,,,,,,,,,,,,l,0,"[""0.220"",""0.379"",""0.874"",""0.571""]","[1,1,1,0]",0,18,18,18,1,0,1,,,0,FALSE,0.6374,,,,,,,,,,,,,,,,,,,,,,,,,,,,,,,
,614399341d2f0bcb5fe49a91,627c674c603f29916a438aef,2022-05-11_20h48.19.147,classification_task,2021.2.3,Win32,144.7178003,627c6715c52fd12f31907bcf,,,,,,,,,,,,,,,,,,,,,,,a,1,"[""0.311"",""0.433"",""0.540"",""0.960""]","[1,1,0,1]",0,19,19,19,1,0,0,,,0,FALSE,1.5689,,,,,,,,,,,,,,,,,,,,,,,,,,,,,,,
,614399341d2f0bcb5fe49a91,627c674c603f29916a438aef,2022-05-11_20h48.19.147,classification_task,2021.2.3,Win32,144.7178003,627c6715c52fd12f31907bcf,,,,,,,,,,,,,,,,,,,,,,,a,1,"[""0.311"",""0.433"",""0.754"",""0.542""]","[1,1,1,0]",0,20,20,20,1,0,0,,,0,FALSE,0.4736,,,,,,,,,,,,,,,,,,,,,,,,,,,,,,,
,614399341d2f0bcb5fe49a91,627c674c603f29916a438aef,2022-05-11_20h48.19.147,classification_task,2021.2.3,Win32,144.7178003,627c6715c52fd12f31907bcf,,,,,,,,,,,,,,,,,,,,,,,l,1,"[""0.040"",""0.274"",""0.485"",""0.186""]","[1,1,1,0]",0,21,21,21,1,1,0,,,0,FALSE,0.5281,,,,,,,,,,,,,,,,,,,,,,,,,,,,,,,
,614399341d2f0bcb5fe49a91,627c674c603f29916a438aef,2022-05-11_20h48.19.147,classification_task,2021.2.3,Win32,144.7178003,627c6715c52fd12f31907bcf,,,,,,,,,,,,,,,,,,,,,,,l,0,"[""0.220"",""0.534"",""0.874"",""0.925""]","[1,0,1,1]",0,22,22,22,1,0,1,,,0,FALSE,0.8179,,,,,,,,,,,,,,,,,,,,,,,,,,,,,,,
,614399341d2f0bcb5fe49a91,627c674c603f29916a438aef,2022-05-11_20h48.19.147,classification_task,2021.2.3,Win32,144.7178003,627c6715c52fd12f31907bcf,,,,,,,,,,,,,,,,,,,,,,,l,1,"[""0.040"",""0.518"",""0.485"",""0.805""]","[1,0,1,1]",0,23,23,23,1,1,0,,,0,FALSE,0.6255,,,,,,,,,,,,,,,,,,,,,,,,,,,,,,,
,614399341d2f0bcb5fe49a91,627c674c603f29916a438aef,2022-05-11_20h48.19.147,classification_task,2021.2.3,Win32,144.7178003,627c6715c52fd12f31907bcf,,,,,,,,,,,,,,,,,,,,,,,a,0,"[""0.113"",""0.183"",""0.608"",""0.700""]","[1,0,1,1]",0,24,24,24,1,1,1,,,0,FALSE,1.2016,,,,,,,,,,,,,,,,,,,,,,,,,,,,,,,
,614399341d2f0bcb5fe49a91,627c674c603f29916a438aef,2022-05-11_20h48.19.147,classification_task,2021.2.3,Win32,144.7178003,627c6715c52fd12f31907bcf,,,,,,,,,,,,,,,,,,,,,,,a,0,"[""0.113"",""0.147"",""0.534"",""0.700""]","[1,1,0,1]",0,25,25,25,1,1,1,,,0,FALSE,0.7578,,,,,,,,,,,,,,,,,,,,,,,,,,,,,,,
,614399341d2f0bcb5fe49a91,627c674c603f29916a438aef,2022-05-11_20h48.19.147,classification_task,2021.2.3,Win32,144.7178003,627c6715c52fd12f31907bcf,,,,,,,,,,,,,,,,,,,,,,,a,1,"[""0.651"",""0.433"",""0.754"",""0.960""]","[0,1,1,1]",0,26,26,26,1,0,0,,,0,FALSE,0.6853,,,,,,,,,,,,,,,,,,,,,,,,,,,,,,,
,614399341d2f0bcb5fe49a91,627c674c603f29916a438aef,2022-05-11_20h48.19.147,classification_task,2021.2.3,Win32,144.7178003,627c6715c52fd12f31907bcf,,,,,,,,,,,,,,,,,,,,,,,l,0,"[""0.186"",""0.379"",""0.874"",""0.925""]","[0,1,1,1]",0,27,27,27,1,0,1,,,0,FALSE,0.7068,,,,,,,,,,,,,,,,,,,,,,,,,,,,,,,
,614399341d2f0bcb5fe49a91,627c674c603f29916a438aef,2022-05-11_20h48.19.147,classification_task,2021.2.3,Win32,144.7178003,627c6715c52fd12f31907bcf,,,,,,,,,,,,,,,,,,,,,,,a,1,"[""0.311"",""0.534"",""0.754"",""0.960""]","[1,0,1,1]",0,28,28,28,1,0,0,,,0,FALSE,1.054,,,,,,,,,,,,,,,,,,,,,,,,,,,,,,,
,614399341d2f0bcb5fe49a91,627c674c603f29916a438aef,2022-05-11_20h48.19.147,classification_task,2021.2.3,Win32,144.7178003,627c6715c52fd12f31907bcf,,,,,,,,,,,,,,,,,,,,,,,l,1,"[""0.040"",""0.274"",""0.530"",""0.805""]","[1,1,0,1]",0,29,29,29,1,1,0,,,0,FALSE,0.5972,,,,,,,,,,,,,,,,,,,,,,,,,,,,,,,
,614399341d2f0bcb5fe49a91,627c674c603f29916a438aef,2022-05-11_20h48.19.147,classification_task,2021.2.3,Win32,144.7178003,627c6715c52fd12f31907bcf,,,,,,,,,,,,,,,,,,,,,,,l,1,"[""0.542"",""0.147"",""0.608"",""0.700""]","[0,1,1,1]",0,30,30,30,1,1,1,,,0,FALSE,0.8966,,,,,,,,,,,,,,,,,,,,,,,,,,,,,,,
,614399341d2f0bcb5fe49a91,627c674c603f29916a438aef,2022-05-11_20h48.19.147,classification_task,2021.2.3,Win32,144.7178003,627c6715c52fd12f31907bcf,,,,,,,,,,,,,,,,,,,,,,,a,0,"[""0.113"",""0.147"",""0.608"",""0.651""]","[1,1,1,0]",0,31,31,31,1,1,1,,,0,FALSE,1.0707,,,,,,,,,,,,,,,,,,,,,,,,,,,,,,,
,614399341d2f0bcb5fe49a91,627c674c603f29916a438aef,2022-05-11_20h48.19.147,classification_task,2021.2.3,Win32,144.7178003,627c6715c52fd12f31907bcf,,,,,,,,,,,,,,,,,,,,,,,a,1,"[""0.311"",""0.433"",""0.530"",""0.960""]","[1,1,0,1]",0,32,32,32,1,0,0,,,0,FALSE,0.6929,,,,,,,,,,,,,,,,,,,,,,,,,,,,,,,
,614399341d2f0bcb5fe49a91,627c674c603f29916a438aef,2022-05-11_20h48.19.147,classification_task,2021.2.3,Win32,144.7178003,627c6715c52fd12f31907bcf,,,,,,,,,,,,,,,,,,,,,,,l,1,"[""0.040"",""0.274"",""0.485"",""0.534""]","[1,1,1,0]",0,33,33,33,1,1,0,,,0,FALSE,0.6601,,,,,,,,,,,,,,,,,,,,,,,,,,,,,,,
,614399341d2f0bcb5fe49a91,627c674c603f29916a438aef,2022-05-11_20h48.19.147,classification_task,2021.2.3,Win32,144.7178003,627c6715c52fd12f31907bcf,,,,,,,,,,,,,,,,,,,,,,,l,0,"[""0.220"",""0.379"",""0.874"",""0.530""]","[1,1,1,0]",0,34,34,34,1,0,1,,,0,FALSE,1.2967,,,,,,,,,,,,,,,,,,,,,,,,,,,,,,,
,614399341d2f0bcb5fe49a91,627c674c603f29916a438aef,2022-05-11_20h48.19.147,classification_task,2021.2.3,Win32,144.7178003,627c6715c52fd12f31907bcf,,,,,,,,,,,,,,,,,,,,,,,a,1,"[""0.311"",""0.660"",""0.754"",""0.960""]","[1,0,1,1]",0,35,35,35,1,0,0,,,0,FALSE,1.103,,,,,,,,,,,,,,,,,,,,,,,,,,,,,,,
,614399341d2f0bcb5fe49a91,627c674c603f29916a438aef,2022-05-11_20h48.19.147,classification_task,2021.2.3,Win32,144.7178003,627c6715c52fd12f31907bcf,,,,,,,,,,,,,,,,,,,,,,,l,1,"[""0.183"",""0.274"",""0.485"",""0.805""]","[0,1,1,1]",0,36,36,36,1,1,0,,,0,FALSE,1.9021,,,,,,,,,,,,,,,,,,,,,,,,,,,,,,,
,614399341d2f0bcb5fe49a91,627c674c603f29916a438aef,2022-05-11_20h48.19.147,classification_task,2021.2.3,Win32,144.7178003,627c6715c52fd12f31907bcf,,,,,,,,,,,,,,,,,,,,,,,a,0,"[""0.113"",""0.147"",""0.608"",""0.534""]","[1,1,1,0]",0,37,37,37,1,1,1,,,0,FALSE,1.1787,,,,,,,,,,,,,,,,,,,,,,,,,,,,,,,
,614399341d2f0bcb5fe49a91,627c674c603f29916a438aef,2022-05-11_20h48.19.147,classification_task,2021.2.3,Win32,144.7178003,627c6715c52fd12f31907bcf,,,,,,,,,,,,,,,,,,,,,,,a,1,"[""0.536"",""0.433"",""0.754"",""0.960""]","[0,1,1,1]",0,38,38,38,1,0,0,,,0,FALSE,1.2921,,,,,,,,,,,,,,,,,,,,,,,,,,,,,,,
,614399341d2f0bcb5fe49a91,627c674c603f29916a438aef,2022-05-11_20h48.19.147,classification_task,2021.2.3,Win32,144.7178003,627c6715c52fd12f31907bcf,,,,,,,,,,,,,,,,,,,,,,,l,1,"[""0.113"",""0.534"",""0.608"",""0.700""]","[1,0,1,1]",0,39,39,39,1,1,1,,,0,FALSE,0.7227,,,,,,,,,,,,,,,,,,,,,,,,,,,,,,,
,614399341d2f0bcb5fe49a91,627c674c603f29916a438aef,2022-05-11_20h48.19.147,classification_task,2021.2.3,Win32,144.7178003,627c6715c52fd12f31907bcf,,,,,,,,,,,,,,,,,,,,,,,a,1,"[""0.542"",""0.379"",""0.874"",""0.925""]","[0,1,1,1]",0,40,40,40,1,0,1,,,0,FALSE,1.5156,,,,,,,,,,,,,,,,,,,,,,,,,,,,,,,
,614399341d2f0bcb5fe49a91,627c674c603f29916a438aef,2022-05-11_20h48.19.147,classification_task,2021.2.3,Win32,144.7178003,627c6715c52fd12f31907bcf,,,,,,,,,,,,,,,,,,,,,,,l,1,"[""0.040"",""0.274"",""0.534"",""0.805""]","[1,1,0,1]",0,41,41,41,1,1,0,,,0,FALSE,0.742,,,,,,,,,,,,,,,,,,,,,,,,,,,,,,,
,614399341d2f0bcb5fe49a91,627c674c603f29916a438aef,2022-05-11_20h48.19.147,classification_task,2021.2.3,Win32,144.7178003,627c6715c52fd12f31907bcf,,,,,,,,,,,,,,,,,,,,,,,a,1,"[""0.311"",""0.433"",""0.754"",""0.571""]","[1,1,1,0]",0,42,42,42,1,0,0,,,0,FALSE,0.66,,,,,,,,,,,,,,,,,,,,,,,,,,,,,,,
,614399341d2f0bcb5fe49a91,627c674c603f29916a438aef,2022-05-11_20h48.19.147,classification_task,2021.2.3,Win32,144.7178003,627c6715c52fd12f31907bcf,,,,,,,,,,,,,,,,,,,,,,,a,1,"[""0.220"",""0.379"",""0.534"",""0.925""]","[1,1,0,1]",0,43,43,43,1,0,1,,,0,FALSE,0.7624,,,,,,,,,,,,,,,,,,,,,,,,,,,,,,,
,614399341d2f0bcb5fe49a91,627c674c603f29916a438aef,2022-05-11_20h48.19.147,classification_task,2021.2.3,Win32,144.7178003,627c6715c52fd12f31907bcf,,,,,,,,,,,,,,,,,,,,,,,l,1,"[""0.040"",""0.186"",""0.485"",""0.805""]","[1,0,1,1]",0,44,44,44,1,1,0,,,0,FALSE,0.9432,,,,,,,,,,,,,,,,,,,,,,,,,,,,,,,
,614399341d2f0bcb5fe49a91,627c674c603f29916a438aef,2022-05-11_20h48.19.147,classification_task,2021.2.3,Win32,144.7178003,627c6715c52fd12f31907bcf,,,,,,,,,,,,,,,,,,,,,,,l,1,"[""0.660"",""0.147"",""0.608"",""0.700""]","[0,1,1,1]",0,45,45,45,1,1,1,,,0,FALSE,2.7829,,,,,,,,,,,,,,,,,,,,,,,,,,,,,,,
,614399341d2f0bcb5fe49a91,627c674c603f29916a438aef,2022-05-11_20h48.19.147,classification_task,2021.2.3,Win32,144.7178003,627c6715c52fd12f31907bcf,,,,,,,,,,,,,,,,,,,,,,,a,0,"[""0.113"",""0.147"",""0.571"",""0.700""]","[1,1,0,1]",0,46,46,46,1,1,1,,,0,FALSE,3.1548,,,,,,,,,,,,,,,,,,,,,,,,,,,,,,,
,614399341d2f0bcb5fe49a91,627c674c603f29916a438aef,2022-05-11_20h48.19.147,classification_task,2021.2.3,Win32,144.7178003,627c6715c52fd12f31907bcf,,,,,,,,,,,,,,,,,,,,,,,a,1,"[""0.220"",""0.186"",""0.874"",""0.925""]","[1,0,1,1]",0,47,47,47,1,0,1,,,0,FALSE,0.8351,,,,,,,,,,,,,,,,,,,,,,,,,,,,,,,
,614399341d2f0bcb5fe49a91,627c674c603f29916a438aef,2022-05-11_20h48.19.147,classification_task,2021.2.3,Win32,144.7178003,627c6715c52fd12f31907bcf,,,,,,,,,,,,,,,,,,,,,,,l,1,"[""0.040"",""0.186"",""0.485"",""0.805""]","[1,0,1,1]",0,48,48,48,1,1,0,,,0,FALSE,0.7281,,,,,,,,,,,,,,,,,,,,,,,,,,,,,,,
,614399341d2f0bcb5fe49a91,627c674c603f29916a438aef,2022-05-11_20h48.19.147,classification_task,2021.2.3,Win32,144.7178003,627c6715c52fd12f31907bcf,,,,,,,,,,,,,,,,,,,,,,,l,1,"[""0.113"",""0.147"",""0.651"",""0.700""]","[1,1,0,1]",0,49,49,49,1,1,1,,,0,FALSE,1.5266,,,,,,,,,,,,,,,,,,,,,,,,,,,,,,,
,614399341d2f0bcb5fe49a91,627c674c603f29916a438aef,2022-05-11_20h48.19.147,classification_task,2021.2.3,Win32,144.7178003,627c6715c52fd12f31907bcf,,,,,,,,,,,,,,,,,,,,,,,l,1,"[""0.113"",""0.646"",""0.608"",""0.700""]","[1,0,1,1]",0,50,50,50,1,1,1,,,0,FALSE,1.2076,,,,,,,,,,,,,,,,,,,,,,,,,,,,,,,
,614399341d2f0bcb5fe49a91,627c674c603f29916a438aef,2022-05-11_20h48.19.147,classification_task,2021.2.3,Win32,144.7178003,627c6715c52fd12f31907bcf,,,,,,,,,,,,,,,,,,,,,,,a,1,"[""0.220"",""0.379"",""0.874"",""0.660""]","[1,1,1,0]",0,51,51,51,1,0,1,,,0,FALSE,1.7512,,,,,,,,,,,,,,,,,,,,,,,,,,,,,,,
,614399341d2f0bcb5fe49a91,627c674c603f29916a438aef,2022-05-11_20h48.19.147,classification_task,2021.2.3,Win32,144.7178003,627c6715c52fd12f31907bcf,,,,,,,,,,,,,,,,,,,,,,,a,1,"[""0.220"",""0.534"",""0.874"",""0.925""]","[1,0,1,1]",0,52,52,52,1,0,1,,,0,FALSE,1.1002,,,,,,,,,,,,,,,,,,,,,,,,,,,,,,,
,614399341d2f0bcb5fe49a91,627c674c603f29916a438aef,2022-05-11_20h48.19.147,classification_task,2021.2.3,Win32,144.7178003,627c6715c52fd12f31907bcf,,,,,,,,,,,,,,,,,,,,,,,a,1,"[""0.311"",""0.433"",""0.754"",""0.536""]","[1,1,1,0]",0,53,53,53,1,0,0,,,0,FALSE,1.1041,,,,,,,,,,,,,,,,,,,,,,,,,,,,,,,
,614399341d2f0bcb5fe49a91,627c674c603f29916a438aef,2022-05-11_20h48.19.147,classification_task,2021.2.3,Win32,144.7178003,627c6715c52fd12f31907bcf,,,,,,,,,,,,,,,,,,,,,,,a,1,"[""0.311"",""0.433"",""0.530"",""0.960""]","[1,1,0,1]",0,54,54,54,1,0,0,,,0,FALSE,0.4514,,,,,,,,,,,,,,,,,,,,,,,,,,,,,,,
,614399341d2f0bcb5fe49a91,627c674c603f29916a438aef,2022-05-11_20h48.19.147,classification_task,2021.2.3,Win32,144.7178003,627c6715c52fd12f31907bcf,,,,,,,,,,,,,,,,,,,,,,,l,1,"[""0.040"",""0.274"",""0.485"",""0.646""]","[1,1,1,0]",0,55,55,55,1,1,0,,,0,FALSE,0.6873,,,,,,,,,,,,,,,,,,,,,,,,,,,,,,,
,614399341d2f0bcb5fe49a91,627c674c603f29916a438aef,2022-05-11_20h48.19.147,classification_task,2021.2.3,Win32,144.7178003,627c6715c52fd12f31907bcf,,,,,,,,,,,,,,,,,,,,,,,a,1,"[""0.311"",""0.518"",""0.754"",""0.960""]","[1,0,1,1]",0,56,56,56,1,0,0,,,0,FALSE,0.9181,,,,,,,,,,,,,,,,,,,,,,,,,,,,,,,
,614399341d2f0bcb5fe49a91,627c674c603f29916a438aef,2022-05-11_20h48.19.147,classification_task,2021.2.3,Win32,144.7178003,627c6715c52fd12f31907bcf,,,,,,,,,,,,,,,,,,,,,,,a,0,"[""0.113"",""0.147"",""0.608"",""0.660""]","[1,1,1,0]",0,57,57,57,1,1,1,,,0,FALSE,1.3806,,,,,,,,,,,,,,,,,,,,,,,,,,,,,,,
,614399341d2f0bcb5fe49a91,627c674c603f29916a438aef,2022-05-11_20h48.19.147,classification_task,2021.2.3,Win32,144.7178003,627c6715c52fd12f31907bcf,,,,,,,,,,,,,,,,,,,,,,,l,1,"[""0.040"",""0.274"",""0.518"",""0.805""]","[1,1,0,1]",0,58,58,58,1,1,0,,,0,FALSE,0.7777,,,,,,,,,,,,,,,,,,,,,,,,,,,,,,,
,614399341d2f0bcb5fe49a91,627c674c603f29916a438aef,2022-05-11_20h48.19.147,classification_task,2021.2.3,Win32,144.7178003,627c6715c52fd12f31907bcf,,,,,,,,,,,,,,,,,,,,,,,a,1,"[""0.536"",""0.379"",""0.874"",""0.925""]","[0,1,1,1]",0,59,59,59,1,0,1,,,0,FALSE,2.1371,,,,,,,,,,,,,,,,,,,,,,,,,,,,,,,
,614399341d2f0bcb5fe49a91,627c674c603f29916a438aef,2022-05-11_20h48.19.147,classification_task,2021.2.3,Win32,144.7178003,627c6715c52fd12f31907bcf,,,,,,,,,,,,,,,,,,,,,,,a,1,"[""0.518"",""0.433"",""0.754"",""0.960""]","[0,1,1,1]",0,60,60,60,1,0,0,,,0,FALSE,0.8009,,,,,,,,,,,,,,,,,,,,,,,,,,,,,,,
,614399341d2f0bcb5fe49a91,627c674c603f29916a438aef,2022-05-11_20h48.19.147,classification_task,2021.2.3,Win32,144.7178003,627c6715c52fd12f31907bcf,,,,,,,,,,,,,,,,,,,,,,,l,0,"[""0.220"",""0.379"",""0.530"",""0.925""]","[1,1,0,1]",0,61,61,61,1,0,1,,,0,FALSE,0.7229,,,,,,,,,,,,,,,,,,,,,,,,,,,,,,,
,614399341d2f0bcb5fe49a91,627c674c603f29916a438aef,2022-05-11_20h48.19.147,classification_task,2021.2.3,Win32,144.7178003,627c6715c52fd12f31907bcf,,,,,,,,,,,,,,,,,,,,,,,l,1,"[""0.534"",""0.274"",""0.485"",""0.805""]","[0,1,1,1]",0,62,62,62,1,1,0,,,0,FALSE,0.5897,,,,,,,,,,,,,,,,,,,,,,,,,,,,,,,
,614399341d2f0bcb5fe49a91,627c674c603f29916a438aef,2022-05-11_20h48.19.147,classification_task,2021.2.3,Win32,144.7178003,627c6715c52fd12f31907bcf,,,,,,,,,,,,,,,,,,,,,,,l,1,"[""0.646"",""0.147"",""0.608"",""0.700""]","[0,1,1,1]",0,63,63,63,1,1,1,,,0,FALSE,1.9144,,,,,,,,,,,,,,,,,,,,,,,,,,,,,,,
,614399341d2f0bcb5fe49a91,627c674c603f29916a438aef,2022-05-11_20h48.19.147,classification_task,2021.2.3,Win32,144.7178003,627c6715c52fd12f31907bcf,,,,,,,,,,,,,,,,,,,,,,,,,,,,,,,,,,,,,,,0, ,,0,6.886145405,209.6894,0,1,1,1,1,2,2,,,,,,,,,,,,,,,,,,
,614399341d2f0bcb5fe49a91,627c674c603f29916a438aef,2022-05-11_20h48.19.147,classification_task,2021.2.3,Win32,144.7178003,627c6715c52fd12f31907bcf,,,,,,,,,,,,,,,,,,,,,,,,,,,,,,,,,,,,,,,1,  ,,0,9.286694102,214.6702,0,1,1,1,1,2,2,,,,,,,,,,,,,,,,,,
,614399341d2f0bcb5fe49a91,627c674c603f29916a438aef,2022-05-11_20h48.19.147,classification_task,2021.2.3,Win32,144.7178003,627c6715c52fd12f31907bcf,,,,,,,,,,,,,,,,,,,,,,,,,,,,,,,,,,,,,,,2,  ,,0,8.821281599,219.0778,0,1,1,1,1,2,2,,,,,,,,,,,,,,,,,,
,614399341d2f0bcb5fe49a91,627c674c603f29916a438aef,2022-05-11_20h48.19.147,classification_task,2021.2.3,Win32,144.7178003,627c6715c52fd12f31907bcf,,,,,,,,,,,,,,,,,,,,,,,,,,,,,,,,,,,,,,,,,,,,,0,1,1,1,1,,2,,,,,,,,,,,,,,,,,,
,614399341d2f0bcb5fe49a91,627c674c603f29916a438aef,2022-05-11_20h48.19.147,classification_task,2021.2.3,Win32,144.7178003,627c6715c52fd12f31907bcf,,,,,,,,,,,,,,,,,,,,,space,14.4913,a,1,"[""0.311"",""0.526"",""0.754"",""0.960""]","[1,0,1,1]",0,0,0,0,1,0,0,,,0,FALSE,1.5525,,,,,,,,,,,,,,,,,,,,,,,,,,,,,,,
,614399341d2f0bcb5fe49a91,627c674c603f29916a438aef,2022-05-11_20h48.19.147,classification_task,2021.2.3,Win32,144.7178003,627c6715c52fd12f31907bcf,,,,,,,,,,,,,,,,,,,,,,,a,1,"[""0.311"",""0.433"",""0.651"",""0.960""]","[1,1,0,1]",0,1,1,1,1,0,0,,,0,FALSE,3.5082,,,,,,,,,,,,,,,,,,,,,,,,,,,,,,,
,614399341d2f0bcb5fe49a91,627c674c603f29916a438aef,2022-05-11_20h48.19.147,classification_task,2021.2.3,Win32,144.7178003,627c6715c52fd12f31907bcf,,,,,,,,,,,,,,,,,,,,,,,a,0,"[""0.040"",""0.274"",""0.526"",""0.805""]","[1,1,0,1]",0,2,2,2,1,1,0,,,0,FALSE,1.4946,,,,,,,,,,,,,,,,,,,,,,,,,,,,,,,
,614399341d2f0bcb5fe49a91,627c674c603f29916a438aef,2022-05-11_20h48.19.147,classification_task,2021.2.3,Win32,144.7178003,627c6715c52fd12f31907bcf,,,,,,,,,,,,,,,,,,,,,,,a,0,"[""0.040"",""0.274"",""0.485"",""0.186""]","[1,1,1,0]",0,3,3,3,1,1,0,,,0,FALSE,2.5228,,,,,,,,,,,,,,,,,,,,,,,,,,,,,,,
,614399341d2f0bcb5fe49a91,627c674c603f29916a438aef,2022-05-11_20h48.19.147,classification_task,2021.2.3,Win32,144.7178003,627c6715c52fd12f31907bcf,,,,,,,,,,,,,,,,,,,,,,,l,1,"[""0.113"",""0.186"",""0.608"",""0.700""]","[1,0,1,1]",0,4,4,4,1,1,1,,,0,FALSE,1.5153,,,,,,,,,,,,,,,,,,,,,,,,,,,,,,,
,614399341d2f0bcb5fe49a91,627c674c603f29916a438aef,2022-05-11_20h48.19.147,classification_task,2021.2.3,Win32,144.7178003,627c6715c52fd12f31907bcf,,,,,,,,,,,,,,,,,,,,,,,l,0,"[""0.311"",""0.433"",""0.754"",""0.540""]","[1,1,1,0]",0,5,5,5,1,0,0,,,0,FALSE,1.0276,,,,,,,,,,,,,,,,,,,,,,,,,,,,,,,
,614399341d2f0bcb5fe49a91,627c674c603f29916a438aef,2022-05-11_20h48.19.147,classification_task,2021.2.3,Win32,144.7178003,627c6715c52fd12f31907bcf,,,,,,,,,,,,,,,,,,,,,,,a,0,"[""0.113"",""0.147"",""0.608"",""0.530""]","[1,1,1,0]",0,6,6,6,1,1,1,,,0,FALSE,1.2854,,,,,,,,,,,,,,,,,,,,,,,,,,,,,,,
,614399341d2f0bcb5fe49a91,627c674c603f29916a438aef,2022-05-11_20h48.19.147,classification_task,2021.2.3,Win32,144.7178003,627c6715c52fd12f31907bcf,,,,,,,,,,,,,,,,,,,,,,,l,1,"[""0.040"",""0.564"",""0.485"",""0.805""]","[1,0,1,1]",0,7,7,7,1,1,0,,,0,FALSE,1.1874,,,,,,,,,,,,,,,,,,,,,,,,,,,,,,,
,614399341d2f0bcb5fe49a91,627c674c603f29916a438aef,2022-05-11_20h48.19.147,classification_task,2021.2.3,Win32,144.7178003,627c6715c52fd12f31907bcf,,,,,,,,,,,,,,,,,,,,,,,a,1,"[""0.220"",""0.379"",""0.874"",""0.651""]","[1,1,1,0]",0,8,8,8,1,0,1,,,0,FALSE,1.732,,,,,,,,,,,,,,,,,,,,,,,,,,,,,,,
,614399341d2f0bcb5fe49a91,627c674c603f29916a438aef,2022-05-11_20h48.19.147,classification_task,2021.2.3,Win32,144.7178003,627c6715c52fd12f31907bcf,,,,,,,,,,,,,,,,,,,,,,,l,0,"[""0.534"",""0.433"",""0.754"",""0.960""]","[0,1,1,1]",0,9,9,9,1,0,0,,,0,FALSE,4.7216,,,,,,,,,,,,,,,,,,,,,,,,,,,,,,,
,614399341d2f0bcb5fe49a91,627c674c603f29916a438aef,2022-05-11_20h48.19.147,classification_task,2021.2.3,Win32,144.7178003,627c6715c52fd12f31907bcf,,,,,,,,,,,,,,,,,,,,,,,l,0,"[""0.220"",""0.379"",""0.542"",""0.925""]","[1,1,0,1]",0,10,10,10,1,0,1,,,0,FALSE,1.5364,,,,,,,,,,,,,,,,,,,,,,,,,,,,,,,
,614399341d2f0bcb5fe49a91,627c674c603f29916a438aef,2022-05-11_20h48.19.147,classification_task,2021.2.3,Win32,144.7178003,627c6715c52fd12f31907bcf,,,,,,,,,,,,,,,,,,,,,,,a,1,"[""0.526"",""0.379"",""0.874"",""0.925""]","[0,1,1,1]",0,11,11,11,1,0,1,,,0,FALSE,0.9238,,,,,,,,,,,,,,,,,,,,,,,,,,,,,,,
,614399341d2f0bcb5fe49a91,627c674c603f29916a438aef,2022-05-11_20h48.19.147,classification_task,2021.2.3,Win32,144.7178003,627c6715c52fd12f31907bcf,,,,,,,,,,,,,,,,,,,,,,,l,1,"[""0.113"",""0.147"",""0.540"",""0.700""]","[1,1,0,1]",0,12,12,12,1,1,1,,,0,FALSE,2.6599,,,,,,,,,,,,,,,,,,,,,,,,,,,,,,,
,614399341d2f0bcb5fe49a91,627c674c603f29916a438aef,2022-05-11_20h48.19.147,classification_task,2021.2.3,Win32,144.7178003,627c6715c52fd12f31907bcf,,,,,,,,,,,,,,,,,,,,,,,a,1,"[""0.220"",""0.540"",""0.874"",""0.925""]","[1,0,1,1]",0,13,13,13,1,0,1,,,0,FALSE,1.176,,,,,,,,,,,,,,,,,,,,,,,,,,,,,,,
,614399341d2f0bcb5fe49a91,627c674c603f29916a438aef,2022-05-11_20h48.19.147,classification_task,2021.2.3,Win32,144.7178003,627c6715c52fd12f31907bcf,,,,,,,,,,,,,,,,,,,,,,,l,1,"[""0.660"",""0.147"",""0.608"",""0.700""]","[0,1,1,1]",0,14,14,14,1,1,1,,,0,FALSE,1.3393,,,,,,,,,,,,,,,,,,,,,,,,,,,,,,,
,614399341d2f0bcb5fe49a91,627c674c603f29916a438aef,2022-05-11_20h48.19.147,classification_task,2021.2.3,Win32,144.7178003,627c6715c52fd12f31907bcf,,,,,,,,,,,,,,,,,,,,,,,a,0,"[""0.542"",""0.274"",""0.485"",""0.805""]","[0,1,1,1]",0,15,15,15,1,1,0,,,0,FALSE,1.9858,,,,,,,,,,,,,,,,,,,,,,,,,,,,,,,
,614399341d2f0bcb5fe49a91,627c674c603f29916a438aef,2022-05-11_20h48.19.147,classification_task,2021.2.3,Win32,144.7178003,627c6715c52fd12f31907bcf,,,,,,,,,,,,,,,,,,,,,,,a,0,"[""0.040"",""0.564"",""0.485"",""0.805""]","[1,0,1,1]",0,16,16,16,1,1,0,,,0,FALSE,3.1674,,,,,,,,,,,,,,,,,,,,,,,,,,,,,,,
,614399341d2f0bcb5fe49a91,627c674c603f29916a438aef,2022-05-11_20h48.19.147,classification_task,2021.2.3,Win32,144.7178003,627c6715c52fd12f31907bcf,,,,,,,,,,,,,,,,,,,,,,,a,1,"[""0.220"",""0.379"",""0.660"",""0.925""]","[1,1,0,1]",0,17,17,17,1,0,1,,,0,FALSE,0.758,,,,,,,,,,,,,,,,,,,,,,,,,,,,,,,
,614399341d2f0bcb5fe49a91,627c674c603f29916a438aef,2022-05-11_20h48.19.147,classification_task,2021.2.3,Win32,144.7178003,627c6715c52fd12f31907bcf,,,,,,,,,,,,,,,,,,,,,,,a,1,"[""0.311"",""0.526"",""0.754"",""0.960""]","[1,0,1,1]",0,18,18,18,1,0,0,,,0,FALSE,0.7774,,,,,,,,,,,,,,,,,,,,,,,,,,,,,,,
,614399341d2f0bcb5fe49a91,627c674c603f29916a438aef,2022-05-11_20h48.19.147,classification_task,2021.2.3,Win32,144.7178003,627c6715c52fd12f31907bcf,,,,,,,,,,,,,,,,,,,,,,,l,1,"[""0.113"",""0.147"",""0.660"",""0.700""]","[1,1,0,1]",0,19,19,19,1,1,1,,,0,FALSE,1.029,,,,,,,,,,,,,,,,,,,,,,,,,,,,,,,
,614399341d2f0bcb5fe49a91,627c674c603f29916a438aef,2022-05-11_20h48.19.147,classification_task,2021.2.3,Win32,144.7178003,627c6715c52fd12f31907bcf,,,,,,,,,,,,,,,,,,,,,,,a,0,"[""0.040"",""0.274"",""0.564"",""0.805""]","[1,1,0,1]",0,20,20,20,1,1,0,,,0,FALSE,1.2083,,,,,,,,,,,,,,,,,,,,,,,,,,,,,,,
,614399341d2f0bcb5fe49a91,627c674c603f29916a438aef,2022-05-11_20h48.19.147,classification_task,2021.2.3,Win32,144.7178003,627c6715c52fd12f31907bcf,,,,,,,,,,,,,,,,,,,,,,,a,1,"[""0.311"",""0.433"",""0.754"",""0.646""]","[1,1,1,0]",0,21,21,21,1,0,0,,,0,FALSE,0.7032,,,,,,,,,,,,,,,,,,,,,,,,,,,,,,,
,614399341d2f0bcb5fe49a91,627c674c603f29916a438aef,2022-05-11_20h48.19.147,classification_task,2021.2.3,Win32,144.7178003,627c6715c52fd12f31907bcf,,,,,,,,,,,,,,,,,,,,,,,a,1,"[""0.536"",""0.433"",""0.754"",""0.960""]","[0,1,1,1]",0,22,22,22,1,0,0,,,0,FALSE,0.5978,,,,,,,,,,,,,,,,,,,,,,,,,,,,,,,
,614399341d2f0bcb5fe49a91,627c674c603f29916a438aef,2022-05-11_20h48.19.147,classification_task,2021.2.3,Win32,144.7178003,627c6715c52fd12f31907bcf,,,,,,,,,,,,,,,,,,,,,,,a,1,"[""0.220"",""0.379"",""0.874"",""0.660""]","[1,1,1,0]",0,23,23,23,1,0,1,,,0,FALSE,1.0627,,,,,,,,,,,,,,,,,,,,,,,,,,,,,,,
,614399341d2f0bcb5fe49a91,627c674c603f29916a438aef,2022-05-11_20h48.19.147,classification_task,2021.2.3,Win32,144.7178003,627c6715c52fd12f31907bcf,,,,,,,,,,,,,,,,,,,,,,,l,1,"[""0.530"",""0.147"",""0.608"",""0.700""]","[0,1,1,1]",0,24,24,24,1,1,1,,,0,FALSE,1.2709,,,,,,,,,,,,,,,,,,,,,,,,,,,,,,,
,614399341d2f0bcb5fe49a91,627c674c603f29916a438aef,2022-05-11_20h48.19.147,classification_task,2021.2.3,Win32,144.7178003,627c6715c52fd12f31907bcf,,,,,,,,,,,,,,,,,,,,,,,l,1,"[""0.113"",""0.147"",""0.608"",""0.564""]","[1,1,1,0]",0,25,25,25,1,1,1,,,0,FALSE,1.2847,,,,,,,,,,,,,,,,,,,,,,,,,,,,,,,
,614399341d2f0bcb5fe49a91,627c674c603f29916a438aef,2022-05-11_20h48.19.147,classification_task,2021.2.3,Win32,144.7178003,627c6715c52fd12f31907bcf,,,,,,,,,,,,,,,,,,,,,,,l,1,"[""0.040"",""0.274"",""0.485"",""0.183""]","[1,1,1,0]",0,26,26,26,1,1,0,,,0,FALSE,1.1329,,,,,,,,,,,,,,,,,,,,,,,,,,,,,,,
,614399341d2f0bcb5fe49a91,627c674c603f29916a438aef,2022-05-11_20h48.19.147,classification_task,2021.2.3,Win32,144.7178003,627c6715c52fd12f31907bcf,,,,,,,,,,,,,,,,,,,,,,,l,1,"[""0.186"",""0.274"",""0.485"",""0.805""]","[0,1,1,1]",0,27,27,27,1,1,0,,,0,FALSE,1.335,,,,,,,,,,,,,,,,,,,,,,,,,,,,,,,
,614399341d2f0bcb5fe49a91,627c674c603f29916a438aef,2022-05-11_20h48.19.147,classification_task,2021.2.3,Win32,144.7178003,627c6715c52fd12f31907bcf,,,,,,,,,,,,,,,,,,,,,,,l,0,"[""0.311"",""0.433"",""0.540"",""0.960""]","[1,1,0,1]",0,28,28,28,1,0,0,,,0,FALSE,0.8189,,,,,,,,,,,,,,,,,,,,,,,,,,,,,,,
,614399341d2f0bcb5fe49a91,627c674c603f29916a438aef,2022-05-11_20h48.19.147,classification_task,2021.2.3,Win32,144.7178003,627c6715c52fd12f31907bcf,,,,,,,,,,,,,,,,,,,,,,,l,0,"[""0.518"",""0.379"",""0.874"",""0.925""]","[0,1,1,1]",0,29,29,29,1,0,1,,,0,FALSE,1.5148,,,,,,,,,,,,,,,,,,,,,,,,,,,,,,,
,614399341d2f0bcb5fe49a91,627c674c603f29916a438aef,2022-05-11_20h48.19.147,classification_task,2021.2.3,Win32,144.7178003,627c6715c52fd12f31907bcf,,,,,,,,,,,,,,,,,,,,,,,l,0,"[""0.220"",""0.536"",""0.874"",""0.925""]","[1,0,1,1]",0,30,30,30,1,0,1,,,0,FALSE,1.5862,,,,,,,,,,,,,,,,,,,,,,,,,,,,,,,
,614399341d2f0bcb5fe49a91,627c674c603f29916a438aef,2022-05-11_20h48.19.147,classification_task,2021.2.3,Win32,144.7178003,627c6715c52fd12f31907bcf,,,,,,,,,,,,,,,,,,,,,,,a,0,"[""0.113"",""0.186"",""0.608"",""0.700""]","[1,0,1,1]",0,31,31,31,1,1,1,,,0,FALSE,0.7015,,,,,,,,,,,,,,,,,,,,,,,,,,,,,,,
,614399341d2f0bcb5fe49a91,627c674c603f29916a438aef,2022-05-11_20h48.19.147,classification_task,2021.2.3,Win32,144.7178003,627c6715c52fd12f31907bcf,,,,,,,,,,,,,,,,,,,,,,,a,1,"[""0.311"",""0.571"",""0.754"",""0.960""]","[1,0,1,1]",0,32,32,32,1,0,0,,,0,FALSE,0.8983,,,,,,,,,,,,,,,,,,,,,,,,,,,,,,,
,614399341d2f0bcb5fe49a91,627c674c603f29916a438aef,2022-05-11_20h48.19.147,classification_task,2021.2.3,Win32,144.7178003,627c6715c52fd12f31907bcf,,,,,,,,,,,,,,,,,,,,,,,l,1,"[""0.113"",""0.147"",""0.608"",""0.534""]","[1,1,1,0]",0,33,33,33,1,1,1,,,0,FALSE,1.0615,,,,,,,,,,,,,,,,,,,,,,,,,,,,,,,
,614399341d2f0bcb5fe49a91,627c674c603f29916a438aef,2022-05-11_20h48.19.147,classification_task,2021.2.3,Win32,144.7178003,627c6715c52fd12f31907bcf,,,,,,,,,,,,,,,,,,,,,,,l,1,"[""0.040"",""0.530"",""0.485"",""0.805""]","[1,0,1,1]",0,34,34,34,1,1,0,,,0,FALSE,0.9723,,,,,,,,,,,,,,,,,,,,,,,,,,,,,,,
,614399341d2f0bcb5fe49a91,627c674c603f29916a438aef,2022-05-11_20h48.19.147,classification_task,2021.2.3,Win32,144.7178003,627c6715c52fd12f31907bcf,,,,,,,,,,,,,,,,,,,,,,,a,0,"[""0.040"",""0.274"",""0.571"",""0.805""]","[1,1,0,1]",0,35,35,35,1,1,0,,,0,FALSE,0.7649,,,,,,,,,,,,,,,,,,,,,,,,,,,,,,,
,614399341d2f0bcb5fe49a91,627c674c603f29916a438aef,2022-05-11_20h48.19.147,classification_task,2021.2.3,Win32,144.7178003,627c6715c52fd12f31907bcf,,,,,,,,,,,,,,,,,,,,,,,a,1,"[""0.183"",""0.433"",""0.754"",""0.960""]","[0,1,1,1]",0,36,36,36,1,0,0,,,0,FALSE,0.9059,,,,,,,,,,,,,,,,,,,,,,,,,,,,,,,
,614399341d2f0bcb5fe49a91,627c674c603f29916a438aef,2022-05-11_20h48.19.147,classification_task,2021.2.3,Win32,144.7178003,627c6715c52fd12f31907bcf,,,,,,,,,,,,,,,,,,,,,,,l,0,"[""0.311"",""0.433"",""0.754"",""0.534""]","[1,1,1,0]",0,37,37,37,1,0,0,,,0,FALSE,4.9811,,,,,,,,,,,,,,,,,,,,,,,,,,,,,,,
,614399341d2f0bcb5fe49a91,627c674c603f29916a438aef,2022-05-11_20h48.19.147,classification_task,2021.2.3,Win32,144.7178003,627c6715c52fd12f31907bcf,,,,,,,,,,,,,,,,,,,,,,,l,0,"[""0.220"",""0.379"",""0.534"",""0.925""]","[1,1,0,1]",0,38,38,38,1,0,1,,,0,FALSE,1.2234,,,,,,,,,,,,,,,,,,,,,,,,,,,,,,,
,614399341d2f0bcb5fe49a91,627c674c603f29916a438aef,2022-05-11_20h48.19.147,classification_task,2021.2.3,Win32,144.7178003,627c6715c52fd12f31907bcf,,,,,,,,,,,,,,,,,,,,,,,l,0,"[""0.311"",""0.433"",""0.660"",""0.960""]","[1,1,0,1]",0,39,39,39,1,0,0,,,0,FALSE,0.9461,,,,,,,,,,,,,,,,,,,,,,,,,,,,,,,
,614399341d2f0bcb5fe49a91,627c674c603f29916a438aef,2022-05-11_20h48.19.147,classification_task,2021.2.3,Win32,144.7178003,627c6715c52fd12f31907bcf,,,,,,,,,,,,,,,,,,,,,,,a,0,"[""0.542"",""0.274"",""0.485"",""0.805""]","[0,1,1,1]",0,40,40,40,1,1,0,,,0,FALSE,2.2986,,,,,,,,,,,,,,,,,,,,,,,,,,,,,,,
,614399341d2f0bcb5fe49a91,627c674c603f29916a438aef,2022-05-11_20h48.19.147,classification_task,2021.2.3,Win32,144.7178003,627c6715c52fd12f31907bcf,,,,,,,,,,,,,,,,,,,,,,,a,0,"[""0.040"",""0.274"",""0.485"",""0.186""]","[1,1,1,0]",0,41,41,41,1,1,0,,,0,FALSE,1.2444,,,,,,,,,,,,,,,,,,,,,,,,,,,,,,,
,614399341d2f0bcb5fe49a91,627c674c603f29916a438aef,2022-05-11_20h48.19.147,classification_task,2021.2.3,Win32,144.7178003,627c6715c52fd12f31907bcf,,,,,,,,,,,,,,,,,,,,,,,l,0,"[""0.220"",""0.379"",""0.874"",""0.534""]","[1,1,1,0]",0,42,42,42,1,0,1,,,0,FALSE,1.3222,,,,,,,,,,,,,,,,,,,,,,,,,,,,,,,
,614399341d2f0bcb5fe49a91,627c674c603f29916a438aef,2022-05-11_20h48.19.147,classification_task,2021.2.3,Win32,144.7178003,627c6715c52fd12f31907bcf,,,,,,,,,,,,,,,,,,,,,,,l,1,"[""0.571"",""0.147"",""0.608"",""0.700""]","[0,1,1,1]",0,43,43,43,1,1,1,,,0,FALSE,1.0516,,,,,,,,,,,,,,,,,,,,,,,,,,,,,,,
,614399341d2f0bcb5fe49a91,627c674c603f29916a438aef,2022-05-11_20h48.19.147,classification_task,2021.2.3,Win32,144.7178003,627c6715c52fd12f31907bcf,,,,,,,,,,,,,,,,,,,,,,,a,0,"[""0.113"",""0.660"",""0.608"",""0.700""]","[1,0,1,1]",0,44,44,44,1,1,1,,,0,FALSE,1.736,,,,,,,,,,,,,,,,,,,,,,,,,,,,,,,
,614399341d2f0bcb5fe49a91,627c674c603f29916a438aef,2022-05-11_20h48.19.147,classification_task,2021.2.3,Win32,144.7178003,627c6715c52fd12f31907bcf,,,,,,,,,,,,,,,,,,,,,,,l,1,"[""0.113"",""0.147"",""0.542"",""0.700""]","[1,1,0,1]",0,45,45,45,1,1,1,,,0,FALSE,0.7936,,,,,,,,,,,,,,,,,,,,,,,,,,,,,,,
,614399341d2f0bcb5fe49a91,627c674c603f29916a438aef,2022-05-11_20h48.19.147,classification_task,2021.2.3,Win32,144.7178003,627c6715c52fd12f31907bcf,,,,,,,,,,,,,,,,,,,,,,,l,0,"[""0.220"",""0.571"",""0.874"",""0.925""]","[1,0,1,1]",0,46,46,46,1,0,1,,,0,FALSE,0.7432,,,,,,,,,,,,,,,,,,,,,,,,,,,,,,,
,614399341d2f0bcb5fe49a91,627c674c603f29916a438aef,2022-05-11_20h48.19.147,classification_task,2021.2.3,Win32,144.7178003,627c6715c52fd12f31907bcf,,,,,,,,,,,,,,,,,,,,,,,l,0,"[""0.530"",""0.379"",""0.874"",""0.925""]","[0,1,1,1]",0,47,47,47,1,0,1,,,0,FALSE,0.8681,,,,,,,,,,,,,,,,,,,,,,,,,,,,,,,
,614399341d2f0bcb5fe49a91,627c674c603f29916a438aef,2022-05-11_20h48.19.147,classification_task,2021.2.3,Win32,144.7178003,627c6715c52fd12f31907bcf,,,,,,,,,,,,,,,,,,,,,,,a,1,"[""0.311"",""0.433"",""0.754"",""0.536""]","[1,1,1,0]",0,48,48,48,1,0,0,,,0,FALSE,1.9514,,,,,,,,,,,,,,,,,,,,,,,,,,,,,,,
,614399341d2f0bcb5fe49a91,627c674c603f29916a438aef,2022-05-11_20h48.19.147,classification_task,2021.2.3,Win32,144.7178003,627c6715c52fd12f31907bcf,,,,,,,,,,,,,,,,,,,,,,,a,0,"[""0.040"",""0.274"",""0.536"",""0.805""]","[1,1,0,1]",0,49,49,49,1,1,0,,,0,FALSE,3.5488,,,,,,,,,,,,,,,,,,,,,,,,,,,,,,,
,614399341d2f0bcb5fe49a91,627c674c603f29916a438aef,2022-05-11_20h48.19.147,classification_task,2021.2.3,Win32,144.7178003,627c6715c52fd12f31907bcf,,,,,,,,,,,,,,,,,,,,,,,l,1,"[""0.113"",""0.147"",""0.660"",""0.700""]","[1,1,0,1]",0,50,50,50,1,1,1,,,0,FALSE,0.8484,,,,,,,,,,,,,,,,,,,,,,,,,,,,,,,
,614399341d2f0bcb5fe49a91,627c674c603f29916a438aef,2022-05-11_20h48.19.147,classification_task,2021.2.3,Win32,144.7178003,627c6715c52fd12f31907bcf,,,,,,,,,,,,,,,,,,,,,,,a,1,"[""0.534"",""0.433"",""0.754"",""0.960""]","[0,1,1,1]",0,51,51,51,1,0,0,,,0,FALSE,2.1529,,,,,,,,,,,,,,,,,,,,,,,,,,,,,,,
,614399341d2f0bcb5fe49a91,627c674c603f29916a438aef,2022-05-11_20h48.19.147,classification_task,2021.2.3,Win32,144.7178003,627c6715c52fd12f31907bcf,,,,,,,,,,,,,,,,,,,,,,,l,1,"[""0.040"",""0.274"",""0.485"",""0.534""]","[1,1,1,0]",0,52,52,52,1,1,0,,,0,FALSE,0.6954,,,,,,,,,,,,,,,,,,,,,,,,,,,,,,,
,614399341d2f0bcb5fe49a91,627c674c603f29916a438aef,2022-05-11_20h48.19.147,classification_task,2021.2.3,Win32,144.7178003,627c6715c52fd12f31907bcf,,,,,,,,,,,,,,,,,,,,,,,l,0,"[""0.311"",""0.186"",""0.754"",""0.960""]","[1,0,1,1]",0,53,53,53,1,0,0,,,0,FALSE,0.8892,,,,,,,,,,,,,,,,,,,,,,,,,,,,,,,
,614399341d2f0bcb5fe49a91,627c674c603f29916a438aef,2022-05-11_20h48.19.147,classification_task,2021.2.3,Win32,144.7178003,627c6715c52fd12f31907bcf,,,,,,,,,,,,,,,,,,,,,,,l,1,"[""0.113"",""0.147"",""0.608"",""0.186""]","[1,1,1,0]",0,54,54,54,1,1,1,,,0,FALSE,0.8692,,,,,,,,,,,,,,,,,,,,,,,,,,,,,,,
,614399341d2f0bcb5fe49a91,627c674c603f29916a438aef,2022-05-11_20h48.19.147,classification_task,2021.2.3,Win32,144.7178003,627c6715c52fd12f31907bcf,,,,,,,,,,,,,,,,,,,,,,,l,0,"[""0.220"",""0.379"",""0.874"",""0.542""]","[1,1,1,0]",0,55,55,55,1,0,1,,,0,FALSE,0.9328,,,,,,,,,,,,,,,,,,,,,,,,,,,,,,,
,614399341d2f0bcb5fe49a91,627c674c603f29916a438aef,2022-05-11_20h48.19.147,classification_task,2021.2.3,Win32,144.7178003,627c6715c52fd12f31907bcf,,,,,,,,,,,,,,,,,,,,,,,l,1,"[""0.113"",""0.571"",""0.608"",""0.700""]","[1,0,1,1]",0,56,56,56,1,1,1,,,0,FALSE,0.7934,,,,,,,,,,,,,,,,,,,,,,,,,,,,,,,
,614399341d2f0bcb5fe49a91,627c674c603f29916a438aef,2022-05-11_20h48.19.147,classification_task,2021.2.3,Win32,144.7178003,627c6715c52fd12f31907bcf,,,,,,,,,,,,,,,,,,,,,,,l,0,"[""0.311"",""0.433"",""0.660"",""0.960""]","[1,1,0,1]",0,57,57,57,1,0,0,,,0,FALSE,0.7367,,,,,,,,,,,,,,,,,,,,,,,,,,,,,,,
,614399341d2f0bcb5fe49a91,627c674c603f29916a438aef,2022-05-11_20h48.19.147,classification_task,2021.2.3,Win32,144.7178003,627c6715c52fd12f31907bcf,,,,,,,,,,,,,,,,,,,,,,,l,1,"[""0.183"",""0.147"",""0.608"",""0.700""]","[0,1,1,1]",0,58,58,58,1,1,1,,,0,FALSE,0.708,,,,,,,,,,,,,,,,,,,,,,,,,,,,,,,
,614399341d2f0bcb5fe49a91,627c674c603f29916a438aef,2022-05-11_20h48.19.147,classification_task,2021.2.3,Win32,144.7178003,627c6715c52fd12f31907bcf,,,,,,,,,,,,,,,,,,,,,,,l,0,"[""0.564"",""0.379"",""0.874"",""0.925""]","[0,1,1,1]",0,59,59,59,1,0,1,,,0,FALSE,0.9462,,,,,,,,,,,,,,,,,,,,,,,,,,,,,,,
,614399341d2f0bcb5fe49a91,627c674c603f29916a438aef,2022-05-11_20h48.19.147,classification_task,2021.2.3,Win32,144.7178003,627c6715c52fd12f31907bcf,,,,,,,,,,,,,,,,,,,,,,,l,1,"[""0.040"",""0.660"",""0.485"",""0.805""]","[1,0,1,1]",0,60,60,60,1,1,0,,,0,FALSE,1.5623,,,,,,,,,,,,,,,,,,,,,,,,,,,,,,,
,614399341d2f0bcb5fe49a91,627c674c603f29916a438aef,2022-05-11_20h48.19.147,classification_task,2021.2.3,Win32,144.7178003,627c6715c52fd12f31907bcf,,,,,,,,,,,,,,,,,,,,,,,l,0,"[""0.220"",""0.186"",""0.874"",""0.925""]","[1,0,1,1]",0,61,61,61,1,0,1,,,0,FALSE,0.6459,,,,,,,,,,,,,,,,,,,,,,,,,,,,,,,
,614399341d2f0bcb5fe49a91,627c674c603f29916a438aef,2022-05-11_20h48.19.147,classification_task,2021.2.3,Win32,144.7178003,627c6715c52fd12f31907bcf,,,,,,,,,,,,,,,,,,,,,,,a,0,"[""0.646"",""0.274"",""0.485"",""0.805""]","[0,1,1,1]",0,62,62,62,1,1,0,,,0,FALSE,1.2709,,,,,,,,,,,,,,,,,,,,,,,,,,,,,,,
,614399341d2f0bcb5fe49a91,627c674c603f29916a438aef,2022-05-11_20h48.19.147,classification_task,2021.2.3,Win32,144.7178003,627c6715c52fd12f31907bcf,,,,,,,,,,,,,,,,,,,,,,,l,0,"[""0.220"",""0.379"",""0.526"",""0.925""]","[1,1,0,1]",0,63,63,63,1,0,1,,,0,FALSE,1.0901,,,,,,,,,,,,,,,,,,,,,,,,,,,,,,,
,614399341d2f0bcb5fe49a91,627c674c603f29916a438aef,2022-05-11_20h48.19.147,classification_task,2021.2.3,Win32,144.7178003,627c6715c52fd12f31907bcf,,,,,,,,,,,,,,,,,,,,,,,,,,,,,,,,,,,,,,,0, ,,0,6.567705271,195.3965,0,2,2,2,1,2,3,,,,,,,,,,,,,,,,,,
,614399341d2f0bcb5fe49a91,627c674c603f29916a438aef,2022-05-11_20h48.19.147,classification_task,2021.2.3,Win32,144.7178003,627c6715c52fd12f31907bcf,,,,,,,,,,,,,,,,,,,,,,,,,,,,,,,,,,,,,,,1,  ,,0,10,198.6362,0,2,2,2,1,2,3,,,,,,,,,,,,,,,,,,
,614399341d2f0bcb5fe49a91,627c674c603f29916a438aef,2022-05-11_20h48.19.147,classification_task,2021.2.3,Win32,144.7178003,627c6715c52fd12f31907bcf,,,,,,,,,,,,,,,,,,,,,,,,,,,,,,,,,,,,,,,2,  ,,0,9.972565158,201.9943,0,2,2,2,1,2,3,,,,,,,,,,,,,,,,,,
,614399341d2f0bcb5fe49a91,627c674c603f29916a438aef,2022-05-11_20h48.19.147,classification_task,2021.2.3,Win32,144.7178003,627c6715c52fd12f31907bcf,,,,,,,,,,,,,,,,,,,,,,,,,,,,,,,,,,,,,,,,,,,,,0,2,2,2,1,,3,,,,,,,,,,,,,,,,,,
,614399341d2f0bcb5fe49a91,627c674c603f29916a438aef,2022-05-11_20h48.19.147,classification_task,2021.2.3,Win32,144.7178003,627c6715c52fd12f31907bcf,,,,,,,,,,,,,,,,,,,,,,,,,,,,,,,,,,,,,,,,,,,,,,,,,,,,,I believe the aid is a competent performer,,0.7,0,3,1097.7047,0,0,0,0,1,0,,,,,
,614399341d2f0bcb5fe49a91,627c674c603f29916a438aef,2022-05-11_20h48.19.147,classification_task,2021.2.3,Win32,144.7178003,627c6715c52fd12f31907bcf,,,,,,,,,,,,,,,,,,,,,,,,,,,,,,,,,,,,,,,,,,,,,,,,,,,,,I trust the aid,,0.7,0,3,1101.019,0,0,0,0,1,0,,,,,
,614399341d2f0bcb5fe49a91,627c674c603f29916a438aef,2022-05-11_20h48.19.147,classification_task,2021.2.3,Win32,144.7178003,627c6715c52fd12f31907bcf,,,,,,,,,,,,,,,,,,,,,,,,,,,,,,,,,,,,,,,,,,,,,,,,,,,,,I have confidence in the advice given by the aid,,0.7,0,4,1235.0168,0,0,0,0,1,0,,,,,
,614399341d2f0bcb5fe49a91,627c674c603f29916a438aef,2022-05-11_20h48.19.147,classification_task,2021.2.3,Win32,144.7178003,627c6715c52fd12f31907bcf,,,,,,,,,,,,,,,,,,,,,,,,,,,,,,,,,,,,,,,,,,,,,,,,,,,,,I can depend on the aid,,0.7,0,4,1239.2289,0,0,0,0,1,0,,,,,
,614399341d2f0bcb5fe49a91,627c674c603f29916a438aef,2022-05-11_20h48.19.147,classification_task,2021.2.3,Win32,144.7178003,627c6715c52fd12f31907bcf,,,,,,,,,,,,,,,,,,,,,,,,,,,,,,,,,,,,,,,,,,,,,,,,,,,,,I can rely on the aid to behave in consistent ways,,0.7,0,4,1244.8121,0,0,0,0,1,0,,,,,
,614399341d2f0bcb5fe49a91,627c674c603f29916a438aef,2022-05-11_20h48.19.147,classification_task,2021.2.3,Win32,144.7178003,627c6715c52fd12f31907bcf,,,,,,,,,,,,,,,,,,,,,,,,,,,,,,,,,,,,,,,,,,,,,,,,,,,,,I can rely on the aid to do its best every time I take its advice,,0.7,0,5,1251.3469,0,0,0,0,1,0,,,,,
,614399341d2f0bcb5fe49a91,627c674c603f29916a438aef,2022-05-11_20h48.19.147,classification_task,2021.2.3,Win32,144.7178003,627c6715c52fd12f31907bcf,,,,,,,,,,,,,,,,,,,,,,,,,,,,,,,,,,,,,,,,,,,,,,,,,,,,,"On trials you completed with assistance from the aid, how frequently did you think the aid was correct?",,0.7,0,95%,,0,0,0,0,1,0,,,,,
,614399341d2f0bcb5fe49a91,627c674c603f29916a438aef,2022-05-11_20h48.19.147,classification_task,2021.2.3,Win32,144.7178003,627c6715c52fd12f31907bcf,,,,,,,,,,,,,,,,,,,,,,,,,,,,,,,,,,,,,,,,,,,,,,,,,,,,,"On trials you completed without the aid, how frequently did you think you were correct?",,0.7,0,40%,,0,0,0,0,1,0,,,,,
,614399341d2f0bcb5fe49a91,627c674c603f29916a438aef,2022-05-11_20h48.19.147,classification_task,2021.2.3,Win32,144.7178003,627c6715c52fd12f31907bcf,,,,,,,,,,,,,,,,,,,,,,,,,,,,,,,,,,,,,,,,,,,,,,,,,,,,,,,,,,,0,0,0,0,1,,,,,,
,614399341d2f0bcb5fe49a91,627c674c603f29916a438aef,2022-05-11_20h48.19.147,classification_task,2021.2.3,Win32,144.7178003,627c6715c52fd12f31907bcf,,,,,,,,,,,,,,,,,,,,,,,,,,,,,,,,,,,,,,,,,,,,,,,,,,,,,,,,,,,,,,,,,space,11.4214,1294.8883,,
,614399341d2f0bcb5fe49a91,627c674c603f29916a438aef,2022-05-11_20h48.19.147,classification_task,2021.2.3,Win32,144.7178003,627c6715c52fd12f31907bcf,,,,,,,,,,,,,,,,,,,,,,,,,,,,,,,,,,,,,,,,,,,,,,,,,,,,,,,,,,,,,,,,,,,,"Mozilla/5.0 (Windows NT 10.0; Win64; x64) AppleWebKit/537.36 (KHTML, like Gecko) Chrome/101.0.4951.54 Safari/537.36",
,614399341d2f0bcb5fe49a91,627c674c603f29916a438aef,2022-05-11_20h48.19.147,classification_task,2021.2.3,Win32,144.7178003,627c6715c52fd12f31907bcf,,,,,,,,,,,,,,,,,,,,,,,,,,,,,,,,,,,,,,,,,,,,,,,,,,,,,,,,,,,,,,,,,,,,,HIGHLIGHT
