usingWebGL,participant,session,date,expName,psychopyVersion,OS,frameRate,PROLIFIC_PID,STUDY_ID,SESSION_ID,signatures_friend,signatures_foe,band_ranges_top,band_ranges_bottom,formitemText,formtype,formundefined,formitemWidth,formindex,formresponse,formrt,key_resp_2.keys,key_resp_2.rt,tute_resp.keys,tute_resp.rt,tutorial.thisRepN,tutorial.thisTrialN,tutorial.thisN,tutorial.thisIndex,tutorial.ran,key_resp_4.keys,key_resp_4.rt,key_resp.keys,key_resp.corr,lines_presented,is_signal_presented,trials.thisRepN,trials.thisTrialN,trials.thisN,trials.thisIndex,trials.ran,vessel,active_band,lines,is_signal,supported_pos,catch_trial,key_resp.rt,debrief_formindex,debrief_formitemText,debrief_formtype,debrief_formitemWidth,debrief_formresponse,debrief_formrt,phases.thisRepN,phases.thisTrialN,phases.thisN,phases.thisIndex,phases.ran,phases.order,phase,key_resp_3.keys,trustitemText,trusttype,trustitemWidth,trustindex,trustresponse,trustrt,support_status.thisRepN,support_status.thisTrialN,support_status.thisN,support_status.thisIndex,support_status.ran,support_status.order,key_resp_5.keys,key_resp_5.rt,globalClockTime,userAgent
TRUE,6146803aa756e3ec52f64a89,001,2022-04-28_19h14.25.569,classification_task,2021.2.3,Win32,59.68367651,6146803aa756e3ec52f64a89,626b377229c10585ec392f8a,626b3b64e3fbd43542785a36,,,,,,,,,,,,,,,,,,,,,,,,,,,,,,,,,,,,,,,,,,,,,,,,,,,,,,,,,,,,,,,,,,,,
,6146803aa756e3ec52f64a89,001,2022-04-28_19h14.25.569,classification_task,2021.2.3,Win32,59.68367651,6146803aa756e3ec52f64a89,626b377229c10585ec392f8a,626b3b64e3fbd43542785a36,"[[""0.309"",""0.542"",""0.683"",""0.846""],[""0.266"",""0.380"",""0.903"",""0.958""]]","[[""0.049"",""0.137"",""0.503"",""0.728""],[""0.093"",""0.206"",""0.465"",""0.800""]]","[1,10]","[100,1000]",Video game experience,,,0.7,0,,,,,,,,,,,,,,,,,,,,,,,,,,,,,,,,,,,,,,,,,,,,,,,,,,,,,,,,,,,
,6146803aa756e3ec52f64a89,001,2022-04-28_19h14.25.569,classification_task,2021.2.3,Win32,59.68367651,6146803aa756e3ec52f64a89,626b377229c10585ec392f8a,626b3b64e3fbd43542785a36,,,,,Approximately how many hours did you spend playing video games in the last week?,,,0.7,0,0,,,,,,,,,,,,,,,,,,,,,,,,,,,,,,,,,,,,,,,,,,,,,,,,,,,,,,,,,,
,6146803aa756e3ec52f64a89,001,2022-04-28_19h14.25.569,classification_task,2021.2.3,Win32,59.68367651,6146803aa756e3ec52f64a89,626b377229c10585ec392f8a,626b3b64e3fbd43542785a36,,,,,"Which game did you play the most this year? (Enter ""None"" if you didn't play any)",,,0.7,0,none,,,,,,,,,,,,,,,,,,,,,,,,,,,,,,,,,,,,,,,,,,,,,,,,,,,,,,,,,,
,6146803aa756e3ec52f64a89,001,2022-04-28_19h14.25.569,classification_task,2021.2.3,Win32,59.68367651,6146803aa756e3ec52f64a89,626b377229c10585ec392f8a,626b3b64e3fbd43542785a36,,,,,Visual perception,,,0.7,0,,,,,,,,,,,,,,,,,,,,,,,,,,,,,,,,,,,,,,,,,,,,,,,,,,,,,,,,,,,
,6146803aa756e3ec52f64a89,001,2022-04-28_19h14.25.569,classification_task,2021.2.3,Win32,59.68367651,6146803aa756e3ec52f64a89,626b377229c10585ec392f8a,626b3b64e3fbd43542785a36,,,,,Do you have any form of color blindness?,,,0.7,0,No,34.9705,,,,,,,,,,,,,,,,,,,,,,,,,,,,,,,,,,,,,,,,,,,,,,,,,,,,,,,,,
,6146803aa756e3ec52f64a89,001,2022-04-28_19h14.25.569,classification_task,2021.2.3,Win32,59.68367651,6146803aa756e3ec52f64a89,626b377229c10585ec392f8a,626b3b64e3fbd43542785a36,,,,,Do you use software to change the colour temperature of your screen (e.g. f.lux)?,,,0.7,0,No,41.5154,,,,,,,,,,,,,,,,,,,,,,,,,,,,,,,,,,,,,,,,,,,,,,,,,,,,,,,,,
,6146803aa756e3ec52f64a89,001,2022-04-28_19h14.25.569,classification_task,2021.2.3,Win32,59.68367651,6146803aa756e3ec52f64a89,626b377229c10585ec392f8a,626b3b64e3fbd43542785a36,,,,,,,,,,,,space,38.7225,space,19.4923,0,0,0,0,1,,,,,,,,,,,,,,,,,,,,,,,,,,,,,,,,,,,,,,,,,,,,,,,,
,6146803aa756e3ec52f64a89,001,2022-04-28_19h14.25.569,classification_task,2021.2.3,Win32,59.68367651,6146803aa756e3ec52f64a89,626b377229c10585ec392f8a,626b3b64e3fbd43542785a36,,,,,,,,,,,,,,space,9.8279,1,0,1,0,1,,,,,,,,,,,,,,,,,,,,,,,,,,,,,,,,,,,,,,,,,,,,,,,,
,6146803aa756e3ec52f64a89,001,2022-04-28_19h14.25.569,classification_task,2021.2.3,Win32,59.68367651,6146803aa756e3ec52f64a89,626b377229c10585ec392f8a,626b3b64e3fbd43542785a36,,,,,,,,,,,,,,space,25.39,2,0,2,0,1,,,,,,,,,,,,,,,,,,,,,,,,,,,,,,,,,,,,,,,,,,,,,,,,
,6146803aa756e3ec52f64a89,001,2022-04-28_19h14.25.569,classification_task,2021.2.3,Win32,59.68367651,6146803aa756e3ec52f64a89,626b377229c10585ec392f8a,626b3b64e3fbd43542785a36,,,,,,,,,,,,,,space,37.0514,3,0,3,0,1,,,,,,,,,,,,,,,,,,,,,,,,,,,,,,,,,,,,,,,,,,,,,,,,
,6146803aa756e3ec52f64a89,001,2022-04-28_19h14.25.569,classification_task,2021.2.3,Win32,59.68367651,6146803aa756e3ec52f64a89,626b377229c10585ec392f8a,626b3b64e3fbd43542785a36,,,,,,,,,,,,,,space,15.7961,4,0,4,0,1,,,,,,,,,,,,,,,,,,,,,,,,,,,,,,,,,,,,,,,,,,,,,,,,
,6146803aa756e3ec52f64a89,001,2022-04-28_19h14.25.569,classification_task,2021.2.3,Win32,59.68367651,6146803aa756e3ec52f64a89,626b377229c10585ec392f8a,626b3b64e3fbd43542785a36,,,,,,,,,,,,,,,,,,,,,space,19.3674,,0,"[""0.581"",""0.380"",""0.903"",""0.958""]","[0,1,1,1]",0,0,0,0,1,0,1,,,1,FALSE,,,,,,,,,,,,,,,,,,,,,,,,,,,,,,,
,6146803aa756e3ec52f64a89,001,2022-04-28_19h14.25.569,classification_task,2021.2.3,Win32,59.68367651,6146803aa756e3ec52f64a89,626b377229c10585ec392f8a,626b3b64e3fbd43542785a36,,,,,,,,,,,,,,,,,,,,,,,a,1,"[""0.309"",""0.542"",""0.637"",""0.846""]","[1,1,0,1]",0,1,1,1,1,0,0,,,1,FALSE,4.6485,,,,,,,,,,,,,,,,,,,,,,,,,,,,,,
,6146803aa756e3ec52f64a89,001,2022-04-28_19h14.25.569,classification_task,2021.2.3,Win32,59.68367651,6146803aa756e3ec52f64a89,626b377229c10585ec392f8a,626b3b64e3fbd43542785a36,,,,,,,,,,,,,,,,,,,,,,,a,1,"[""0.266"",""0.380"",""0.903"",""0.429""]","[1,1,1,0]",0,2,2,2,1,0,1,,,1,FALSE,5.4325,,,,,,,,,,,,,,,,,,,,,,,,,,,,,,
,6146803aa756e3ec52f64a89,001,2022-04-28_19h14.25.569,classification_task,2021.2.3,Win32,59.68367651,6146803aa756e3ec52f64a89,626b377229c10585ec392f8a,626b3b64e3fbd43542785a36,,,,,,,,,,,,,,,,,,,,,,,l,0,"[""0.266"",""0.380"",""0.420"",""0.958""]","[1,1,0,1]",0,3,3,3,1,0,1,,,1,FALSE,3.6428,,,,,,,,,,,,,,,,,,,,,,,,,,,,,,
,6146803aa756e3ec52f64a89,001,2022-04-28_19h14.25.569,classification_task,2021.2.3,Win32,59.68367651,6146803aa756e3ec52f64a89,626b377229c10585ec392f8a,626b3b64e3fbd43542785a36,,,,,,,,,,,,,,,,,,,,,,,l,1,"[""0.093"",""0.206"",""0.465"",""0.764""]","[1,1,1,0]",0,4,4,4,1,1,1,,,1,FALSE,5.0569,,,,,,,,,,,,,,,,,,,,,,,,,,,,,,
,6146803aa756e3ec52f64a89,001,2022-04-28_19h14.25.569,classification_task,2021.2.3,Win32,59.68367651,6146803aa756e3ec52f64a89,626b377229c10585ec392f8a,626b3b64e3fbd43542785a36,,,,,,,,,,,,,,,,,,,,,,,l,1,"[""0.765"",""0.206"",""0.465"",""0.800""]","[0,1,1,1]",0,5,5,5,1,1,1,,,1,FALSE,4.256,,,,,,,,,,,,,,,,,,,,,,,,,,,,,,
,6146803aa756e3ec52f64a89,001,2022-04-28_19h14.25.569,classification_task,2021.2.3,Win32,59.68367651,6146803aa756e3ec52f64a89,626b377229c10585ec392f8a,626b3b64e3fbd43542785a36,,,,,,,,,,,,,,,,,,,,,,,l,1,"[""0.093"",""0.206"",""0.583"",""0.800""]","[1,1,0,1]",0,6,6,6,1,1,1,,,1,FALSE,3.745,,,,,,,,,,,,,,,,,,,,,,,,,,,,,,
,6146803aa756e3ec52f64a89,001,2022-04-28_19h14.25.569,classification_task,2021.2.3,Win32,59.68367651,6146803aa756e3ec52f64a89,626b377229c10585ec392f8a,626b3b64e3fbd43542785a36,,,,,,,,,,,,,,,,,,,,,,,l,0,"[""0.309"",""0.581"",""0.683"",""0.846""]","[1,0,1,1]",0,7,7,7,1,0,0,,,1,FALSE,3.7888,,,,,,,,,,,,,,,,,,,,,,,,,,,,,,
,6146803aa756e3ec52f64a89,001,2022-04-28_19h14.25.569,classification_task,2021.2.3,Win32,59.68367651,6146803aa756e3ec52f64a89,626b377229c10585ec392f8a,626b3b64e3fbd43542785a36,,,,,,,,,,,,,,,,,,,,,,,l,0,"[""0.429"",""0.542"",""0.683"",""0.846""]","[0,1,1,1]",0,8,8,8,1,0,0,,,1,FALSE,4.8631,,,,,,,,,,,,,,,,,,,,,,,,,,,,,,
,6146803aa756e3ec52f64a89,001,2022-04-28_19h14.25.569,classification_task,2021.2.3,Win32,59.68367651,6146803aa756e3ec52f64a89,626b377229c10585ec392f8a,626b3b64e3fbd43542785a36,,,,,,,,,,,,,,,,,,,,,,,l,0,"[""0.266"",""0.624"",""0.903"",""0.958""]","[1,0,1,1]",0,9,9,9,1,0,1,,,1,FALSE,4.5544,,,,,,,,,,,,,,,,,,,,,,,,,,,,,,
,6146803aa756e3ec52f64a89,001,2022-04-28_19h14.25.569,classification_task,2021.2.3,Win32,59.68367651,6146803aa756e3ec52f64a89,626b377229c10585ec392f8a,626b3b64e3fbd43542785a36,,,,,,,,,,,,,,,,,,,,,,,a,1,"[""0.309"",""0.542"",""0.683"",""0.583""]","[1,1,1,0]",0,10,10,10,1,0,0,,,1,FALSE,1.6489,,,,,,,,,,,,,,,,,,,,,,,,,,,,,,
,6146803aa756e3ec52f64a89,001,2022-04-28_19h14.25.569,classification_task,2021.2.3,Win32,59.68367651,6146803aa756e3ec52f64a89,626b377229c10585ec392f8a,626b3b64e3fbd43542785a36,,,,,,,,,,,,,,,,,,,,,,,a,0,"[""0.049"",""0.635"",""0.503"",""0.728""]","[1,0,1,1]",0,11,11,11,1,1,0,,,1,FALSE,2.1507,,,,,,,,,,,,,,,,,,,,,,,,,,,,,,
,6146803aa756e3ec52f64a89,001,2022-04-28_19h14.25.569,classification_task,2021.2.3,Win32,59.68367651,6146803aa756e3ec52f64a89,626b377229c10585ec392f8a,626b3b64e3fbd43542785a36,,,,,,,,,,,,,,,,,,,,,,,l,1,"[""0.049"",""0.137"",""0.503"",""0.765""]","[1,1,1,0]",0,12,12,12,1,1,0,,,1,FALSE,2.7554,,,,,,,,,,,,,,,,,,,,,,,,,,,,,,
,6146803aa756e3ec52f64a89,001,2022-04-28_19h14.25.569,classification_task,2021.2.3,Win32,59.68367651,6146803aa756e3ec52f64a89,626b377229c10585ec392f8a,626b3b64e3fbd43542785a36,,,,,,,,,,,,,,,,,,,,,,,l,1,"[""0.093"",""0.429"",""0.465"",""0.800""]","[1,0,1,1]",0,13,13,13,1,1,1,,,1,FALSE,2.5897,,,,,,,,,,,,,,,,,,,,,,,,,,,,,,
,6146803aa756e3ec52f64a89,001,2022-04-28_19h14.25.569,classification_task,2021.2.3,Win32,59.68367651,6146803aa756e3ec52f64a89,626b377229c10585ec392f8a,626b3b64e3fbd43542785a36,,,,,,,,,,,,,,,,,,,,,,,a,0,"[""0.420"",""0.137"",""0.503"",""0.728""]","[0,1,1,1]",0,14,14,14,1,1,0,,,1,FALSE,3.5856,,,,,,,,,,,,,,,,,,,,,,,,,,,,,,
,6146803aa756e3ec52f64a89,001,2022-04-28_19h14.25.569,classification_task,2021.2.3,Win32,59.68367651,6146803aa756e3ec52f64a89,626b377229c10585ec392f8a,626b3b64e3fbd43542785a36,,,,,,,,,,,,,,,,,,,,,,,l,1,"[""0.049"",""0.137"",""0.635"",""0.728""]","[1,1,0,1]",0,15,15,15,1,1,0,,,1,FALSE,2.0725,,,,,,,,,,,,,,,,,,,,,,,,,,,,,,
,6146803aa756e3ec52f64a89,001,2022-04-28_19h14.25.569,classification_task,2021.2.3,Win32,59.68367651,6146803aa756e3ec52f64a89,626b377229c10585ec392f8a,626b3b64e3fbd43542785a36,,,,,,,,,,,,,,,,,,,,,,,l,1,"[""0.093"",""0.206"",""0.765"",""0.800""]","[1,1,0,1]",0,16,16,16,1,1,1,,,1,FALSE,1.6046,,,,,,,,,,,,,,,,,,,,,,,,,,,,,,
,6146803aa756e3ec52f64a89,001,2022-04-28_19h14.25.569,classification_task,2021.2.3,Win32,59.68367651,6146803aa756e3ec52f64a89,626b377229c10585ec392f8a,626b3b64e3fbd43542785a36,,,,,,,,,,,,,,,,,,,,,,,l,1,"[""0.093"",""0.605"",""0.465"",""0.800""]","[1,0,1,1]",0,17,17,17,1,1,1,,,1,FALSE,2.5314,,,,,,,,,,,,,,,,,,,,,,,,,,,,,,
,6146803aa756e3ec52f64a89,001,2022-04-28_19h14.25.569,classification_task,2021.2.3,Win32,59.68367651,6146803aa756e3ec52f64a89,626b377229c10585ec392f8a,626b3b64e3fbd43542785a36,,,,,,,,,,,,,,,,,,,,,,,a,1,"[""0.309"",""0.632"",""0.683"",""0.846""]","[1,0,1,1]",0,18,18,18,1,0,0,,,1,FALSE,2.9057,,,,,,,,,,,,,,,,,,,,,,,,,,,,,,
,6146803aa756e3ec52f64a89,001,2022-04-28_19h14.25.569,classification_task,2021.2.3,Win32,59.68367651,6146803aa756e3ec52f64a89,626b377229c10585ec392f8a,626b3b64e3fbd43542785a36,,,,,,,,,,,,,,,,,,,,,,,l,1,"[""0.049"",""0.420"",""0.503"",""0.728""]","[1,0,1,1]",0,19,19,19,1,1,0,,,1,FALSE,2.7825,,,,,,,,,,,,,,,,,,,,,,,,,,,,,,
,6146803aa756e3ec52f64a89,001,2022-04-28_19h14.25.569,classification_task,2021.2.3,Win32,59.68367651,6146803aa756e3ec52f64a89,626b377229c10585ec392f8a,626b3b64e3fbd43542785a36,,,,,,,,,,,,,,,,,,,,,,,l,0,"[""0.762"",""0.542"",""0.683"",""0.846""]","[0,1,1,1]",0,20,20,20,1,0,0,,,1,FALSE,2.9444,,,,,,,,,,,,,,,,,,,,,,,,,,,,,,
,6146803aa756e3ec52f64a89,001,2022-04-28_19h14.25.569,classification_task,2021.2.3,Win32,59.68367651,6146803aa756e3ec52f64a89,626b377229c10585ec392f8a,626b3b64e3fbd43542785a36,,,,,,,,,,,,,,,,,,,,,,,l,1,"[""0.624"",""0.206"",""0.465"",""0.800""]","[0,1,1,1]",0,21,21,21,1,1,1,,,1,FALSE,2.3713,,,,,,,,,,,,,,,,,,,,,,,,,,,,,,
,6146803aa756e3ec52f64a89,001,2022-04-28_19h14.25.569,classification_task,2021.2.3,Win32,59.68367651,6146803aa756e3ec52f64a89,626b377229c10585ec392f8a,626b3b64e3fbd43542785a36,,,,,,,,,,,,,,,,,,,,,,,a,0,"[""0.049"",""0.137"",""0.632"",""0.728""]","[1,1,0,1]",0,22,22,22,1,1,0,,,1,FALSE,2.1714,,,,,,,,,,,,,,,,,,,,,,,,,,,,,,
,6146803aa756e3ec52f64a89,001,2022-04-28_19h14.25.569,classification_task,2021.2.3,Win32,59.68367651,6146803aa756e3ec52f64a89,626b377229c10585ec392f8a,626b3b64e3fbd43542785a36,,,,,,,,,,,,,,,,,,,,,,,l,0,"[""0.309"",""0.542"",""0.637"",""0.846""]","[1,1,0,1]",0,23,23,23,1,0,0,,,1,FALSE,3.2958,,,,,,,,,,,,,,,,,,,,,,,,,,,,,,
,6146803aa756e3ec52f64a89,001,2022-04-28_19h14.25.569,classification_task,2021.2.3,Win32,59.68367651,6146803aa756e3ec52f64a89,626b377229c10585ec392f8a,626b3b64e3fbd43542785a36,,,,,,,,,,,,,,,,,,,,,,,a,1,"[""0.309"",""0.542"",""0.683"",""0.583""]","[1,1,1,0]",0,24,24,24,1,0,0,,,1,FALSE,2.2618,,,,,,,,,,,,,,,,,,,,,,,,,,,,,,
,6146803aa756e3ec52f64a89,001,2022-04-28_19h14.25.569,classification_task,2021.2.3,Win32,59.68367651,6146803aa756e3ec52f64a89,626b377229c10585ec392f8a,626b3b64e3fbd43542785a36,,,,,,,,,,,,,,,,,,,,,,,l,0,"[""0.613"",""0.380"",""0.903"",""0.958""]","[0,1,1,1]",0,25,25,25,1,0,1,,,1,FALSE,2.5223,,,,,,,,,,,,,,,,,,,,,,,,,,,,,,
,6146803aa756e3ec52f64a89,001,2022-04-28_19h14.25.569,classification_task,2021.2.3,Win32,59.68367651,6146803aa756e3ec52f64a89,626b377229c10585ec392f8a,626b3b64e3fbd43542785a36,,,,,,,,,,,,,,,,,,,,,,,l,0,"[""0.266"",""0.380"",""0.762"",""0.958""]","[1,1,0,1]",0,26,26,26,1,0,1,,,1,FALSE,2.7944,,,,,,,,,,,,,,,,,,,,,,,,,,,,,,
,6146803aa756e3ec52f64a89,001,2022-04-28_19h14.25.569,classification_task,2021.2.3,Win32,59.68367651,6146803aa756e3ec52f64a89,626b377229c10585ec392f8a,626b3b64e3fbd43542785a36,,,,,,,,,,,,,,,,,,,,,,,a,0,"[""0.093"",""0.206"",""0.465"",""0.629""]","[1,1,1,0]",0,27,27,27,1,1,1,,,1,FALSE,1.8455,,,,,,,,,,,,,,,,,,,,,,,,,,,,,,
,6146803aa756e3ec52f64a89,001,2022-04-28_19h14.25.569,classification_task,2021.2.3,Win32,59.68367651,6146803aa756e3ec52f64a89,626b377229c10585ec392f8a,626b3b64e3fbd43542785a36,,,,,,,,,,,,,,,,,,,,,,,l,0,"[""0.266"",""0.380"",""0.903"",""0.632""]","[1,1,1,0]",0,28,28,28,1,0,1,,,1,FALSE,2.0294,,,,,,,,,,,,,,,,,,,,,,,,,,,,,,
,6146803aa756e3ec52f64a89,001,2022-04-28_19h14.25.569,classification_task,2021.2.3,Win32,59.68367651,6146803aa756e3ec52f64a89,626b377229c10585ec392f8a,626b3b64e3fbd43542785a36,,,,,,,,,,,,,,,,,,,,,,,l,0,"[""0.266"",""0.624"",""0.903"",""0.958""]","[1,0,1,1]",0,29,29,29,1,0,1,,,1,FALSE,1.8291,,,,,,,,,,,,,,,,,,,,,,,,,,,,,,
,6146803aa756e3ec52f64a89,001,2022-04-28_19h14.25.569,classification_task,2021.2.3,Win32,59.68367651,6146803aa756e3ec52f64a89,626b377229c10585ec392f8a,626b3b64e3fbd43542785a36,,,,,,,,,,,,,,,,,,,,,,,a,0,"[""0.049"",""0.137"",""0.503"",""0.611""]","[1,1,1,0]",0,30,30,30,1,1,0,,,1,FALSE,1.3334,,,,,,,,,,,,,,,,,,,,,,,,,,,,,,
,6146803aa756e3ec52f64a89,001,2022-04-28_19h14.25.569,classification_task,2021.2.3,Win32,59.68367651,6146803aa756e3ec52f64a89,626b377229c10585ec392f8a,626b3b64e3fbd43542785a36,,,,,,,,,,,,,,,,,,,,,,,l,1,"[""0.762"",""0.137"",""0.503"",""0.728""]","[0,1,1,1]",0,31,31,31,1,1,0,,,1,FALSE,3.4501,,,,,,,,,,,,,,,,,,,,,,,,,,,,,,
,6146803aa756e3ec52f64a89,001,2022-04-28_19h14.25.569,classification_task,2021.2.3,Win32,59.68367651,6146803aa756e3ec52f64a89,626b377229c10585ec392f8a,626b3b64e3fbd43542785a36,,,,,,,,,,,,,,,,,,,,,,,l,1,"[""0.093"",""0.624"",""0.465"",""0.800""]","[1,0,1,1]",0,32,32,32,1,1,1,,,1,FALSE,3.187,,,,,,,,,,,,,,,,,,,,,,,,,,,,,,
,6146803aa756e3ec52f64a89,001,2022-04-28_19h14.25.569,classification_task,2021.2.3,Win32,59.68367651,6146803aa756e3ec52f64a89,626b377229c10585ec392f8a,626b3b64e3fbd43542785a36,,,,,,,,,,,,,,,,,,,,,,,a,1,"[""0.581"",""0.380"",""0.903"",""0.958""]","[0,1,1,1]",0,33,33,33,1,0,1,,,1,FALSE,2.08,,,,,,,,,,,,,,,,,,,,,,,,,,,,,,
,6146803aa756e3ec52f64a89,001,2022-04-28_19h14.25.569,classification_task,2021.2.3,Win32,59.68367651,6146803aa756e3ec52f64a89,626b377229c10585ec392f8a,626b3b64e3fbd43542785a36,,,,,,,,,,,,,,,,,,,,,,,l,1,"[""0.635"",""0.206"",""0.465"",""0.800""]","[0,1,1,1]",0,34,34,34,1,1,1,,,1,FALSE,1.9795,,,,,,,,,,,,,,,,,,,,,,,,,,,,,,
,6146803aa756e3ec52f64a89,001,2022-04-28_19h14.25.569,classification_task,2021.2.3,Win32,59.68367651,6146803aa756e3ec52f64a89,626b377229c10585ec392f8a,626b3b64e3fbd43542785a36,,,,,,,,,,,,,,,,,,,,,,,a,1,"[""0.266"",""0.380"",""0.765"",""0.958""]","[1,1,0,1]",0,35,35,35,1,0,1,,,1,FALSE,1.7292,,,,,,,,,,,,,,,,,,,,,,,,,,,,,,
,6146803aa756e3ec52f64a89,001,2022-04-28_19h14.25.569,classification_task,2021.2.3,Win32,59.68367651,6146803aa756e3ec52f64a89,626b377229c10585ec392f8a,626b3b64e3fbd43542785a36,,,,,,,,,,,,,,,,,,,,,,,a,0,"[""0.049"",""0.137"",""0.503"",""0.645""]","[1,1,1,0]",0,36,36,36,1,1,0,,,1,FALSE,1.9308,,,,,,,,,,,,,,,,,,,,,,,,,,,,,,
,6146803aa756e3ec52f64a89,001,2022-04-28_19h14.25.569,classification_task,2021.2.3,Win32,59.68367651,6146803aa756e3ec52f64a89,626b377229c10585ec392f8a,626b3b64e3fbd43542785a36,,,,,,,,,,,,,,,,,,,,,,,l,0,"[""0.266"",""0.637"",""0.903"",""0.958""]","[1,0,1,1]",0,37,37,37,1,0,1,,,1,FALSE,1.3939,,,,,,,,,,,,,,,,,,,,,,,,,,,,,,
,6146803aa756e3ec52f64a89,001,2022-04-28_19h14.25.569,classification_task,2021.2.3,Win32,59.68367651,6146803aa756e3ec52f64a89,626b377229c10585ec392f8a,626b3b64e3fbd43542785a36,,,,,,,,,,,,,,,,,,,,,,,l,0,"[""0.266"",""0.380"",""0.903"",""0.637""]","[1,1,1,0]",0,38,38,38,1,0,1,,,1,FALSE,1.6136,,,,,,,,,,,,,,,,,,,,,,,,,,,,,,
,6146803aa756e3ec52f64a89,001,2022-04-28_19h14.25.569,classification_task,2021.2.3,Win32,59.68367651,6146803aa756e3ec52f64a89,626b377229c10585ec392f8a,626b3b64e3fbd43542785a36,,,,,,,,,,,,,,,,,,,,,,,a,0,"[""0.093"",""0.206"",""0.611"",""0.800""]","[1,1,0,1]",0,39,39,39,1,1,1,,,1,FALSE,0.9954,,,,,,,,,,,,,,,,,,,,,,,,,,,,,,
,6146803aa756e3ec52f64a89,001,2022-04-28_19h14.25.569,classification_task,2021.2.3,Win32,59.68367651,6146803aa756e3ec52f64a89,626b377229c10585ec392f8a,626b3b64e3fbd43542785a36,,,,,,,,,,,,,,,,,,,,,,,l,1,"[""0.764"",""0.137"",""0.503"",""0.728""]","[0,1,1,1]",0,40,40,40,1,1,0,,,1,FALSE,2.4278,,,,,,,,,,,,,,,,,,,,,,,,,,,,,,
,6146803aa756e3ec52f64a89,001,2022-04-28_19h14.25.569,classification_task,2021.2.3,Win32,59.68367651,6146803aa756e3ec52f64a89,626b377229c10585ec392f8a,626b3b64e3fbd43542785a36,,,,,,,,,,,,,,,,,,,,,,,a,1,"[""0.309"",""0.542"",""0.429"",""0.846""]","[1,1,0,1]",0,41,41,41,1,0,0,,,1,FALSE,1.4667,,,,,,,,,,,,,,,,,,,,,,,,,,,,,,
,6146803aa756e3ec52f64a89,001,2022-04-28_19h14.25.569,classification_task,2021.2.3,Win32,59.68367651,6146803aa756e3ec52f64a89,626b377229c10585ec392f8a,626b3b64e3fbd43542785a36,,,,,,,,,,,,,,,,,,,,,,,l,0,"[""0.624"",""0.542"",""0.683"",""0.846""]","[0,1,1,1]",0,42,42,42,1,0,0,,,1,FALSE,2.2796,,,,,,,,,,,,,,,,,,,,,,,,,,,,,,
,6146803aa756e3ec52f64a89,001,2022-04-28_19h14.25.569,classification_task,2021.2.3,Win32,59.68367651,6146803aa756e3ec52f64a89,626b377229c10585ec392f8a,626b3b64e3fbd43542785a36,,,,,,,,,,,,,,,,,,,,,,,l,1,"[""0.049"",""0.137"",""0.429"",""0.728""]","[1,1,0,1]",0,43,43,43,1,1,0,,,1,FALSE,1.7741,,,,,,,,,,,,,,,,,,,,,,,,,,,,,,
,6146803aa756e3ec52f64a89,001,2022-04-28_19h14.25.569,classification_task,2021.2.3,Win32,59.68367651,6146803aa756e3ec52f64a89,626b377229c10585ec392f8a,626b3b64e3fbd43542785a36,,,,,,,,,,,,,,,,,,,,,,,l,1,"[""0.049"",""0.429"",""0.503"",""0.728""]","[1,0,1,1]",0,44,44,44,1,1,0,,,1,FALSE,1.745,,,,,,,,,,,,,,,,,,,,,,,,,,,,,,
,6146803aa756e3ec52f64a89,001,2022-04-28_19h14.25.569,classification_task,2021.2.3,Win32,59.68367651,6146803aa756e3ec52f64a89,626b377229c10585ec392f8a,626b3b64e3fbd43542785a36,,,,,,,,,,,,,,,,,,,,,,,a,0,"[""0.093"",""0.206"",""0.465"",""0.645""]","[1,1,1,0]",0,45,45,45,1,1,1,,,1,FALSE,1.6963,,,,,,,,,,,,,,,,,,,,,,,,,,,,,,
,6146803aa756e3ec52f64a89,001,2022-04-28_19h14.25.569,classification_task,2021.2.3,Win32,59.68367651,6146803aa756e3ec52f64a89,626b377229c10585ec392f8a,626b3b64e3fbd43542785a36,,,,,,,,,,,,,,,,,,,,,,,l,0,"[""0.309"",""0.542"",""0.683"",""0.611""]","[1,1,1,0]",0,46,46,46,1,0,0,,,1,FALSE,1.6297,,,,,,,,,,,,,,,,,,,,,,,,,,,,,,
,6146803aa756e3ec52f64a89,001,2022-04-28_19h14.25.569,classification_task,2021.2.3,Win32,59.68367651,6146803aa756e3ec52f64a89,626b377229c10585ec392f8a,626b3b64e3fbd43542785a36,,,,,,,,,,,,,,,,,,,,,,,a,1,"[""0.309"",""0.611"",""0.683"",""0.846""]","[1,0,1,1]",0,47,47,47,1,0,0,,,1,FALSE,1.6281,,,,,,,,,,,,,,,,,,,,,,,,,,,,,,
,6146803aa756e3ec52f64a89,001,2022-04-28_19h14.25.569,classification_task,2021.2.3,Win32,59.68367651,6146803aa756e3ec52f64a89,626b377229c10585ec392f8a,626b3b64e3fbd43542785a36,,,,,,,,,,,,,,,,,,,,,,,l,1,"[""0.624"",""0.206"",""0.465"",""0.800""]","[0,1,1,1]",0,48,48,48,1,1,1,,,1,FALSE,1.6285,,,,,,,,,,,,,,,,,,,,,,,,,,,,,,
,6146803aa756e3ec52f64a89,001,2022-04-28_19h14.25.569,classification_task,2021.2.3,Win32,59.68367651,6146803aa756e3ec52f64a89,626b377229c10585ec392f8a,626b3b64e3fbd43542785a36,,,,,,,,,,,,,,,,,,,,,,,a,1,"[""0.611"",""0.380"",""0.903"",""0.958""]","[0,1,1,1]",0,49,49,49,1,0,1,,,1,FALSE,1.4287,,,,,,,,,,,,,,,,,,,,,,,,,,,,,,
,6146803aa756e3ec52f64a89,001,2022-04-28_19h14.25.569,classification_task,2021.2.3,Win32,59.68367651,6146803aa756e3ec52f64a89,626b377229c10585ec392f8a,626b3b64e3fbd43542785a36,,,,,,,,,,,,,,,,,,,,,,,a,0,"[""0.093"",""0.206"",""0.581"",""0.800""]","[1,1,0,1]",0,50,50,50,1,1,1,,,1,FALSE,1.3968,,,,,,,,,,,,,,,,,,,,,,,,,,,,,,
,6146803aa756e3ec52f64a89,001,2022-04-28_19h14.25.569,classification_task,2021.2.3,Win32,59.68367651,6146803aa756e3ec52f64a89,626b377229c10585ec392f8a,626b3b64e3fbd43542785a36,,,,,,,,,,,,,,,,,,,,,,,a,1,"[""0.637"",""0.542"",""0.683"",""0.846""]","[0,1,1,1]",0,51,51,51,1,0,0,,,1,FALSE,1.2291,,,,,,,,,,,,,,,,,,,,,,,,,,,,,,
,6146803aa756e3ec52f64a89,001,2022-04-28_19h14.25.569,classification_task,2021.2.3,Win32,59.68367651,6146803aa756e3ec52f64a89,626b377229c10585ec392f8a,626b3b64e3fbd43542785a36,,,,,,,,,,,,,,,,,,,,,,,l,0,"[""0.309"",""0.645"",""0.683"",""0.846""]","[1,0,1,1]",0,52,52,52,1,0,0,,,1,FALSE,1.7501,,,,,,,,,,,,,,,,,,,,,,,,,,,,,,
,6146803aa756e3ec52f64a89,001,2022-04-28_19h14.25.569,classification_task,2021.2.3,Win32,59.68367651,6146803aa756e3ec52f64a89,626b377229c10585ec392f8a,626b3b64e3fbd43542785a36,,,,,,,,,,,,,,,,,,,,,,,a,0,"[""0.093"",""0.206"",""0.465"",""0.635""]","[1,1,1,0]",0,53,53,53,1,1,1,,,1,FALSE,1.1649,,,,,,,,,,,,,,,,,,,,,,,,,,,,,,
,6146803aa756e3ec52f64a89,001,2022-04-28_19h14.25.569,classification_task,2021.2.3,Win32,59.68367651,6146803aa756e3ec52f64a89,626b377229c10585ec392f8a,626b3b64e3fbd43542785a36,,,,,,,,,,,,,,,,,,,,,,,l,0,"[""0.266"",""0.380"",""0.629"",""0.958""]","[1,1,0,1]",0,54,54,54,1,0,1,,,1,FALSE,1.0478,,,,,,,,,,,,,,,,,,,,,,,,,,,,,,
,6146803aa756e3ec52f64a89,001,2022-04-28_19h14.25.569,classification_task,2021.2.3,Win32,59.68367651,6146803aa756e3ec52f64a89,626b377229c10585ec392f8a,626b3b64e3fbd43542785a36,,,,,,,,,,,,,,,,,,,,,,,a,0,"[""0.420"",""0.137"",""0.503"",""0.728""]","[0,1,1,1]",0,55,55,55,1,1,0,,,1,FALSE,0.7152,,,,,,,,,,,,,,,,,,,,,,,,,,,,,,
,6146803aa756e3ec52f64a89,001,2022-04-28_19h14.25.569,classification_task,2021.2.3,Win32,59.68367651,6146803aa756e3ec52f64a89,626b377229c10585ec392f8a,626b3b64e3fbd43542785a36,,,,,,,,,,,,,,,,,,,,,,,l,1,"[""0.049"",""0.137"",""0.503"",""0.583""]","[1,1,1,0]",0,56,56,56,1,1,0,,,1,FALSE,0.8293,,,,,,,,,,,,,,,,,,,,,,,,,,,,,,
,6146803aa756e3ec52f64a89,001,2022-04-28_19h14.25.569,classification_task,2021.2.3,Win32,59.68367651,6146803aa756e3ec52f64a89,626b377229c10585ec392f8a,626b3b64e3fbd43542785a36,,,,,,,,,,,,,,,,,,,,,,,l,0,"[""0.309"",""0.542"",""0.611"",""0.846""]","[1,1,0,1]",0,57,57,57,1,0,0,,,1,FALSE,1.0785,,,,,,,,,,,,,,,,,,,,,,,,,,,,,,
,6146803aa756e3ec52f64a89,001,2022-04-28_19h14.25.569,classification_task,2021.2.3,Win32,59.68367651,6146803aa756e3ec52f64a89,626b377229c10585ec392f8a,626b3b64e3fbd43542785a36,,,,,,,,,,,,,,,,,,,,,,,l,0,"[""0.266"",""0.613"",""0.903"",""0.958""]","[1,0,1,1]",0,58,58,58,1,0,1,,,1,FALSE,1.0463,,,,,,,,,,,,,,,,,,,,,,,,,,,,,,
,6146803aa756e3ec52f64a89,001,2022-04-28_19h14.25.569,classification_task,2021.2.3,Win32,59.68367651,6146803aa756e3ec52f64a89,626b377229c10585ec392f8a,626b3b64e3fbd43542785a36,,,,,,,,,,,,,,,,,,,,,,,a,0,"[""0.049"",""0.137"",""0.764"",""0.728""]","[1,1,0,1]",0,59,59,59,1,1,0,,,1,FALSE,2.2606,,,,,,,,,,,,,,,,,,,,,,,,,,,,,,
,6146803aa756e3ec52f64a89,001,2022-04-28_19h14.25.569,classification_task,2021.2.3,Win32,59.68367651,6146803aa756e3ec52f64a89,626b377229c10585ec392f8a,626b3b64e3fbd43542785a36,,,,,,,,,,,,,,,,,,,,,,,l,0,"[""0.309"",""0.542"",""0.683"",""0.583""]","[1,1,1,0]",0,60,60,60,1,0,0,,,1,FALSE,0.612,,,,,,,,,,,,,,,,,,,,,,,,,,,,,,
,6146803aa756e3ec52f64a89,001,2022-04-28_19h14.25.569,classification_task,2021.2.3,Win32,59.68367651,6146803aa756e3ec52f64a89,626b377229c10585ec392f8a,626b3b64e3fbd43542785a36,,,,,,,,,,,,,,,,,,,,,,,a,1,"[""0.266"",""0.380"",""0.903"",""0.629""]","[1,1,1,0]",0,61,61,61,1,0,1,,,1,FALSE,0.7451,,,,,,,,,,,,,,,,,,,,,,,,,,,,,,
,6146803aa756e3ec52f64a89,001,2022-04-28_19h14.25.569,classification_task,2021.2.3,Win32,59.68367651,6146803aa756e3ec52f64a89,626b377229c10585ec392f8a,626b3b64e3fbd43542785a36,,,,,,,,,,,,,,,,,,,,,,,a,0,"[""0.093"",""0.429"",""0.465"",""0.800""]","[1,0,1,1]",0,62,62,62,1,1,1,,,1,FALSE,2.0829,,,,,,,,,,,,,,,,,,,,,,,,,,,,,,
,6146803aa756e3ec52f64a89,001,2022-04-28_19h14.25.569,classification_task,2021.2.3,Win32,59.68367651,6146803aa756e3ec52f64a89,626b377229c10585ec392f8a,626b3b64e3fbd43542785a36,,,,,,,,,,,,,,,,,,,,,,,l,1,"[""0.049"",""0.583"",""0.503"",""0.728""]","[1,0,1,1]",0,63,63,63,1,1,0,,,1,FALSE,0.7253,,,,,,,,,,,,,,,,,,,,,,,,,,,,,,
,6146803aa756e3ec52f64a89,001,2022-04-28_19h14.25.569,classification_task,2021.2.3,Win32,59.68367651,6146803aa756e3ec52f64a89,626b377229c10585ec392f8a,626b3b64e3fbd43542785a36,,,,,,,,,,,,,,,,,,,,,,,,,,,,,,,,,,,,,,,0, ,,0,4.965553351,450.8023,0,0,0,0,1,2,1,,,,,,,,,,,,,,,,,
,6146803aa756e3ec52f64a89,001,2022-04-28_19h14.25.569,classification_task,2021.2.3,Win32,59.68367651,6146803aa756e3ec52f64a89,626b377229c10585ec392f8a,626b3b64e3fbd43542785a36,,,,,,,,,,,,,,,,,,,,,,,,,,,,,,,,,,,,,,,1,  ,,0,10,456.4652,0,0,0,0,1,2,1,,,,,,,,,,,,,,,,,
,6146803aa756e3ec52f64a89,001,2022-04-28_19h14.25.569,classification_task,2021.2.3,Win32,59.68367651,6146803aa756e3ec52f64a89,626b377229c10585ec392f8a,626b3b64e3fbd43542785a36,,,,,,,,,,,,,,,,,,,,,,,,,,,,,,,,,,,,,,,2,  ,,0,6.308972663,461.1428,0,0,0,0,1,2,1,,,,,,,,,,,,,,,,,
,6146803aa756e3ec52f64a89,001,2022-04-28_19h14.25.569,classification_task,2021.2.3,Win32,59.68367651,6146803aa756e3ec52f64a89,626b377229c10585ec392f8a,626b3b64e3fbd43542785a36,,,,,,,,,,,,,,,,,,,,,,,,,,,,,,,,,,,,,,,,,,,,,0,0,0,0,1,,1,,,,,,,,,,,,,,,,,
,6146803aa756e3ec52f64a89,001,2022-04-28_19h14.25.569,classification_task,2021.2.3,Win32,59.68367651,6146803aa756e3ec52f64a89,626b377229c10585ec392f8a,626b3b64e3fbd43542785a36,,,,,,,,,,,,,,,,,,,,,space,11.2033,l,1,"[""0.049"",""0.137"",""0.503"",""0.429""]","[1,1,1,0]",0,0,0,0,1,1,0,,,1,FALSE,3.1132,,,,,,,,,,,,,,,,,,,,,,,,,,,,,,
,6146803aa756e3ec52f64a89,001,2022-04-28_19h14.25.569,classification_task,2021.2.3,Win32,59.68367651,6146803aa756e3ec52f64a89,626b377229c10585ec392f8a,626b3b64e3fbd43542785a36,,,,,,,,,,,,,,,,,,,,,,,l,1,"[""0.093"",""0.206"",""0.611"",""0.800""]","[1,1,0,1]",0,1,1,1,1,1,1,,,1,FALSE,4.1303,,,,,,,,,,,,,,,,,,,,,,,,,,,,,,
,6146803aa756e3ec52f64a89,001,2022-04-28_19h14.25.569,classification_task,2021.2.3,Win32,59.68367651,6146803aa756e3ec52f64a89,626b377229c10585ec392f8a,626b3b64e3fbd43542785a36,,,,,,,,,,,,,,,,,,,,,,,l,1,"[""0.581"",""0.206"",""0.465"",""0.800""]","[0,1,1,1]",0,2,2,2,1,1,1,,,1,FALSE,6.5226,,,,,,,,,,,,,,,,,,,,,,,,,,,,,,
,6146803aa756e3ec52f64a89,001,2022-04-28_19h14.25.569,classification_task,2021.2.3,Win32,59.68367651,6146803aa756e3ec52f64a89,626b377229c10585ec392f8a,626b3b64e3fbd43542785a36,,,,,,,,,,,,,,,,,,,,,,,a,1,"[""0.309"",""0.542"",""0.683"",""0.645""]","[1,1,1,0]",0,3,3,3,1,0,0,,,1,FALSE,3.27,,,,,,,,,,,,,,,,,,,,,,,,,,,,,,
,6146803aa756e3ec52f64a89,001,2022-04-28_19h14.25.569,classification_task,2021.2.3,Win32,59.68367651,6146803aa756e3ec52f64a89,626b377229c10585ec392f8a,626b3b64e3fbd43542785a36,,,,,,,,,,,,,,,,,,,,,,,a,1,"[""0.632"",""0.380"",""0.903"",""0.958""]","[0,1,1,1]",0,4,4,4,1,0,1,,,1,FALSE,3.1151,,,,,,,,,,,,,,,,,,,,,,,,,,,,,,
,6146803aa756e3ec52f64a89,001,2022-04-28_19h14.25.569,classification_task,2021.2.3,Win32,59.68367651,6146803aa756e3ec52f64a89,626b377229c10585ec392f8a,626b3b64e3fbd43542785a36,,,,,,,,,,,,,,,,,,,,,,,a,0,"[""0.049"",""0.137"",""0.581"",""0.728""]","[1,1,0,1]",0,5,5,5,1,1,0,,,1,FALSE,4.255,,,,,,,,,,,,,,,,,,,,,,,,,,,,,,
,6146803aa756e3ec52f64a89,001,2022-04-28_19h14.25.569,classification_task,2021.2.3,Win32,59.68367651,6146803aa756e3ec52f64a89,626b377229c10585ec392f8a,626b3b64e3fbd43542785a36,,,,,,,,,,,,,,,,,,,,,,,l,0,"[""0.309"",""0.605"",""0.683"",""0.846""]","[1,0,1,1]",0,6,6,6,1,0,0,,,1,FALSE,1.6282,,,,,,,,,,,,,,,,,,,,,,,,,,,,,,
,6146803aa756e3ec52f64a89,001,2022-04-28_19h14.25.569,classification_task,2021.2.3,Win32,59.68367651,6146803aa756e3ec52f64a89,626b377229c10585ec392f8a,626b3b64e3fbd43542785a36,,,,,,,,,,,,,,,,,,,,,,,a,1,"[""0.309"",""0.542"",""0.764"",""0.846""]","[1,1,0,1]",0,7,7,7,1,0,0,,,1,FALSE,1.3797,,,,,,,,,,,,,,,,,,,,,,,,,,,,,,
,6146803aa756e3ec52f64a89,001,2022-04-28_19h14.25.569,classification_task,2021.2.3,Win32,59.68367651,6146803aa756e3ec52f64a89,626b377229c10585ec392f8a,626b3b64e3fbd43542785a36,,,,,,,,,,,,,,,,,,,,,,,a,1,"[""0.266"",""0.762"",""0.903"",""0.958""]","[1,0,1,1]",0,8,8,8,1,0,1,,,1,FALSE,2.671,,,,,,,,,,,,,,,,,,,,,,,,,,,,,,
,6146803aa756e3ec52f64a89,001,2022-04-28_19h14.25.569,classification_task,2021.2.3,Win32,59.68367651,6146803aa756e3ec52f64a89,626b377229c10585ec392f8a,626b3b64e3fbd43542785a36,,,,,,,,,,,,,,,,,,,,,,,a,0,"[""0.049"",""0.765"",""0.503"",""0.728""]","[1,0,1,1]",0,9,9,9,1,1,0,,,1,FALSE,2.5754,,,,,,,,,,,,,,,,,,,,,,,,,,,,,,
,6146803aa756e3ec52f64a89,001,2022-04-28_19h14.25.569,classification_task,2021.2.3,Win32,59.68367651,6146803aa756e3ec52f64a89,626b377229c10585ec392f8a,626b3b64e3fbd43542785a36,,,,,,,,,,,,,,,,,,,,,,,l,1,"[""0.762"",""0.137"",""0.503"",""0.728""]","[0,1,1,1]",0,10,10,10,1,1,0,,,1,FALSE,1.0112,,,,,,,,,,,,,,,,,,,,,,,,,,,,,,
,6146803aa756e3ec52f64a89,001,2022-04-28_19h14.25.569,classification_task,2021.2.3,Win32,59.68367651,6146803aa756e3ec52f64a89,626b377229c10585ec392f8a,626b3b64e3fbd43542785a36,,,,,,,,,,,,,,,,,,,,,,,a,1,"[""0.611"",""0.542"",""0.683"",""0.846""]","[0,1,1,1]",0,11,11,11,1,0,0,,,1,FALSE,1.7444,,,,,,,,,,,,,,,,,,,,,,,,,,,,,,
,6146803aa756e3ec52f64a89,001,2022-04-28_19h14.25.569,classification_task,2021.2.3,Win32,59.68367651,6146803aa756e3ec52f64a89,626b377229c10585ec392f8a,626b3b64e3fbd43542785a36,,,,,,,,,,,,,,,,,,,,,,,a,1,"[""0.266"",""0.380"",""0.764"",""0.958""]","[1,1,0,1]",0,12,12,12,1,0,1,,,1,FALSE,2.1385,,,,,,,,,,,,,,,,,,,,,,,,,,,,,,
,6146803aa756e3ec52f64a89,001,2022-04-28_19h14.25.569,classification_task,2021.2.3,Win32,59.68367651,6146803aa756e3ec52f64a89,626b377229c10585ec392f8a,626b3b64e3fbd43542785a36,,,,,,,,,,,,,,,,,,,,,,,l,1,"[""0.093"",""0.581"",""0.465"",""0.800""]","[1,0,1,1]",0,13,13,13,1,1,1,,,1,FALSE,2.7117,,,,,,,,,,,,,,,,,,,,,,,,,,,,,,
,6146803aa756e3ec52f64a89,001,2022-04-28_19h14.25.569,classification_task,2021.2.3,Win32,59.68367651,6146803aa756e3ec52f64a89,626b377229c10585ec392f8a,626b3b64e3fbd43542785a36,,,,,,,,,,,,,,,,,,,,,,,a,1,"[""0.266"",""0.380"",""0.903"",""0.624""]","[1,1,1,0]",0,14,14,14,1,0,1,,,1,FALSE,1.5116,,,,,,,,,,,,,,,,,,,,,,,,,,,,,,
,6146803aa756e3ec52f64a89,001,2022-04-28_19h14.25.569,classification_task,2021.2.3,Win32,59.68367651,6146803aa756e3ec52f64a89,626b377229c10585ec392f8a,626b3b64e3fbd43542785a36,,,,,,,,,,,,,,,,,,,,,,,l,1,"[""0.093"",""0.206"",""0.465"",""0.420""]","[1,1,1,0]",0,15,15,15,1,1,1,,,1,FALSE,3.1934,,,,,,,,,,,,,,,,,,,,,,,,,,,,,,
,6146803aa756e3ec52f64a89,001,2022-04-28_19h14.25.569,classification_task,2021.2.3,Win32,59.68367651,6146803aa756e3ec52f64a89,626b377229c10585ec392f8a,626b3b64e3fbd43542785a36,,,,,,,,,,,,,,,,,,,,,,,l,0,"[""0.309"",""0.542"",""0.683"",""0.637""]","[1,1,1,0]",0,16,16,16,1,0,0,,,1,FALSE,1.5601,,,,,,,,,,,,,,,,,,,,,,,,,,,,,,
,6146803aa756e3ec52f64a89,001,2022-04-28_19h14.25.569,classification_task,2021.2.3,Win32,59.68367651,6146803aa756e3ec52f64a89,626b377229c10585ec392f8a,626b3b64e3fbd43542785a36,,,,,,,,,,,,,,,,,,,,,,,a,1,"[""0.637"",""0.380"",""0.903"",""0.958""]","[0,1,1,1]",0,17,17,17,1,0,1,,,1,FALSE,1.4364,,,,,,,,,,,,,,,,,,,,,,,,,,,,,,
,6146803aa756e3ec52f64a89,001,2022-04-28_19h14.25.569,classification_task,2021.2.3,Win32,59.68367651,6146803aa756e3ec52f64a89,626b377229c10585ec392f8a,626b3b64e3fbd43542785a36,,,,,,,,,,,,,,,,,,,,,,,a,1,"[""0.309"",""0.542"",""0.583"",""0.846""]","[1,1,0,1]",0,18,18,18,1,0,0,,,1,FALSE,1.352,,,,,,,,,,,,,,,,,,,,,,,,,,,,,,
,6146803aa756e3ec52f64a89,001,2022-04-28_19h14.25.569,classification_task,2021.2.3,Win32,59.68367651,6146803aa756e3ec52f64a89,626b377229c10585ec392f8a,626b3b64e3fbd43542785a36,,,,,,,,,,,,,,,,,,,,,,,a,1,"[""0.635"",""0.542"",""0.683"",""0.846""]","[0,1,1,1]",0,19,19,19,1,0,0,,,1,FALSE,1.5275,,,,,,,,,,,,,,,,,,,,,,,,,,,,,,
,6146803aa756e3ec52f64a89,001,2022-04-28_19h14.25.569,classification_task,2021.2.3,Win32,59.68367651,6146803aa756e3ec52f64a89,626b377229c10585ec392f8a,626b3b64e3fbd43542785a36,,,,,,,,,,,,,,,,,,,,,,,l,1,"[""0.049"",""0.137"",""0.635"",""0.728""]","[1,1,0,1]",0,20,20,20,1,1,0,,,1,FALSE,1.5608,,,,,,,,,,,,,,,,,,,,,,,,,,,,,,
,6146803aa756e3ec52f64a89,001,2022-04-28_19h14.25.569,classification_task,2021.2.3,Win32,59.68367651,6146803aa756e3ec52f64a89,626b377229c10585ec392f8a,626b3b64e3fbd43542785a36,,,,,,,,,,,,,,,,,,,,,,,a,1,"[""0.266"",""0.380"",""0.903"",""0.613""]","[1,1,1,0]",0,21,21,21,1,0,1,,,1,FALSE,1.5743,,,,,,,,,,,,,,,,,,,,,,,,,,,,,,
,6146803aa756e3ec52f64a89,001,2022-04-28_19h14.25.569,classification_task,2021.2.3,Win32,59.68367651,6146803aa756e3ec52f64a89,626b377229c10585ec392f8a,626b3b64e3fbd43542785a36,,,,,,,,,,,,,,,,,,,,,,,l,1,"[""0.093"",""0.581"",""0.465"",""0.800""]","[1,0,1,1]",0,22,22,22,1,1,1,,,1,FALSE,1.5607,,,,,,,,,,,,,,,,,,,,,,,,,,,,,,
,6146803aa756e3ec52f64a89,001,2022-04-28_19h14.25.569,classification_task,2021.2.3,Win32,59.68367651,6146803aa756e3ec52f64a89,626b377229c10585ec392f8a,626b3b64e3fbd43542785a36,,,,,,,,,,,,,,,,,,,,,,,l,0,"[""0.309"",""0.429"",""0.683"",""0.846""]","[1,0,1,1]",0,23,23,23,1,0,0,,,1,FALSE,1.5226,,,,,,,,,,,,,,,,,,,,,,,,,,,,,,
,6146803aa756e3ec52f64a89,001,2022-04-28_19h14.25.569,classification_task,2021.2.3,Win32,59.68367651,6146803aa756e3ec52f64a89,626b377229c10585ec392f8a,626b3b64e3fbd43542785a36,,,,,,,,,,,,,,,,,,,,,,,l,1,"[""0.093"",""0.206"",""0.465"",""0.605""]","[1,1,1,0]",0,24,24,24,1,1,1,,,1,FALSE,1.5284,,,,,,,,,,,,,,,,,,,,,,,,,,,,,,
,6146803aa756e3ec52f64a89,001,2022-04-28_19h14.25.569,classification_task,2021.2.3,Win32,59.68367651,6146803aa756e3ec52f64a89,626b377229c10585ec392f8a,626b3b64e3fbd43542785a36,,,,,,,,,,,,,,,,,,,,,,,a,1,"[""0.266"",""0.380"",""0.624"",""0.958""]","[1,1,0,1]",0,25,25,25,1,0,1,,,1,FALSE,1.7095,,,,,,,,,,,,,,,,,,,,,,,,,,,,,,
,6146803aa756e3ec52f64a89,001,2022-04-28_19h14.25.569,classification_task,2021.2.3,Win32,59.68367651,6146803aa756e3ec52f64a89,626b377229c10585ec392f8a,626b3b64e3fbd43542785a36,,,,,,,,,,,,,,,,,,,,,,,a,1,"[""0.266"",""0.765"",""0.903"",""0.958""]","[1,0,1,1]",0,26,26,26,1,0,1,,,1,FALSE,1.6112,,,,,,,,,,,,,,,,,,,,,,,,,,,,,,
,6146803aa756e3ec52f64a89,001,2022-04-28_19h14.25.569,classification_task,2021.2.3,Win32,59.68367651,6146803aa756e3ec52f64a89,626b377229c10585ec392f8a,626b3b64e3fbd43542785a36,,,,,,,,,,,,,,,,,,,,,,,l,1,"[""0.605"",""0.206"",""0.465"",""0.800""]","[0,1,1,1]",0,27,27,27,1,1,1,,,1,FALSE,1.6802,,,,,,,,,,,,,,,,,,,,,,,,,,,,,,
,6146803aa756e3ec52f64a89,001,2022-04-28_19h14.25.569,classification_task,2021.2.3,Win32,59.68367651,6146803aa756e3ec52f64a89,626b377229c10585ec392f8a,626b3b64e3fbd43542785a36,,,,,,,,,,,,,,,,,,,,,,,l,1,"[""0.632"",""0.137"",""0.503"",""0.728""]","[0,1,1,1]",0,28,28,28,1,1,0,,,1,FALSE,1.7866,,,,,,,,,,,,,,,,,,,,,,,,,,,,,,
,6146803aa756e3ec52f64a89,001,2022-04-28_19h14.25.569,classification_task,2021.2.3,Win32,59.68367651,6146803aa756e3ec52f64a89,626b377229c10585ec392f8a,626b3b64e3fbd43542785a36,,,,,,,,,,,,,,,,,,,,,,,l,1,"[""0.049"",""0.624"",""0.503"",""0.728""]","[1,0,1,1]",0,29,29,29,1,1,0,,,1,FALSE,1.7608,,,,,,,,,,,,,,,,,,,,,,,,,,,,,,
,6146803aa756e3ec52f64a89,001,2022-04-28_19h14.25.569,classification_task,2021.2.3,Win32,59.68367651,6146803aa756e3ec52f64a89,626b377229c10585ec392f8a,626b3b64e3fbd43542785a36,,,,,,,,,,,,,,,,,,,,,,,l,1,"[""0.093"",""0.206"",""0.611"",""0.800""]","[1,1,0,1]",0,30,30,30,1,1,1,,,1,FALSE,1.8373,,,,,,,,,,,,,,,,,,,,,,,,,,,,,,
,6146803aa756e3ec52f64a89,001,2022-04-28_19h14.25.569,classification_task,2021.2.3,Win32,59.68367651,6146803aa756e3ec52f64a89,626b377229c10585ec392f8a,626b3b64e3fbd43542785a36,,,,,,,,,,,,,,,,,,,,,,,a,0,"[""0.049"",""0.137"",""0.503"",""0.624""]","[1,1,1,0]",0,31,31,31,1,1,0,,,1,FALSE,1.5198,,,,,,,,,,,,,,,,,,,,,,,,,,,,,,
,6146803aa756e3ec52f64a89,001,2022-04-28_19h14.25.569,classification_task,2021.2.3,Win32,59.68367651,6146803aa756e3ec52f64a89,626b377229c10585ec392f8a,626b3b64e3fbd43542785a36,,,,,,,,,,,,,,,,,,,,,,,l,1,"[""0.049"",""0.765"",""0.503"",""0.728""]","[1,0,1,1]",0,32,32,32,1,1,0,,,1,FALSE,1.7436,,,,,,,,,,,,,,,,,,,,,,,,,,,,,,
,6146803aa756e3ec52f64a89,001,2022-04-28_19h14.25.569,classification_task,2021.2.3,Win32,59.68367651,6146803aa756e3ec52f64a89,626b377229c10585ec392f8a,626b3b64e3fbd43542785a36,,,,,,,,,,,,,,,,,,,,,,,l,1,"[""0.049"",""0.137"",""0.503"",""0.583""]","[1,1,1,0]",0,33,33,33,1,1,0,,,1,FALSE,1.682,,,,,,,,,,,,,,,,,,,,,,,,,,,,,,
,6146803aa756e3ec52f64a89,001,2022-04-28_19h14.25.569,classification_task,2021.2.3,Win32,59.68367651,6146803aa756e3ec52f64a89,626b377229c10585ec392f8a,626b3b64e3fbd43542785a36,,,,,,,,,,,,,,,,,,,,,,,a,1,"[""0.266"",""0.380"",""0.420"",""0.958""]","[1,1,0,1]",0,34,34,34,1,0,1,,,1,FALSE,1.8484,,,,,,,,,,,,,,,,,,,,,,,,,,,,,,
,6146803aa756e3ec52f64a89,001,2022-04-28_19h14.25.569,classification_task,2021.2.3,Win32,59.68367651,6146803aa756e3ec52f64a89,626b377229c10585ec392f8a,626b3b64e3fbd43542785a36,,,,,,,,,,,,,,,,,,,,,,,l,1,"[""0.093"",""0.206"",""0.465"",""0.762""]","[1,1,1,0]",0,35,35,35,1,1,1,,,1,FALSE,2.4469,,,,,,,,,,,,,,,,,,,,,,,,,,,,,,
,6146803aa756e3ec52f64a89,001,2022-04-28_19h14.25.569,classification_task,2021.2.3,Win32,59.68367651,6146803aa756e3ec52f64a89,626b377229c10585ec392f8a,626b3b64e3fbd43542785a36,,,,,,,,,,,,,,,,,,,,,,,l,1,"[""0.632"",""0.206"",""0.465"",""0.800""]","[0,1,1,1]",0,36,36,36,1,1,1,,,1,FALSE,2.6486,,,,,,,,,,,,,,,,,,,,,,,,,,,,,,
,6146803aa756e3ec52f64a89,001,2022-04-28_19h14.25.569,classification_task,2021.2.3,Win32,59.68367651,6146803aa756e3ec52f64a89,626b377229c10585ec392f8a,626b3b64e3fbd43542785a36,,,,,,,,,,,,,,,,,,,,,,,a,1,"[""0.635"",""0.380"",""0.903"",""0.958""]","[0,1,1,1]",0,37,37,37,1,0,1,,,1,FALSE,1.7141,,,,,,,,,,,,,,,,,,,,,,,,,,,,,,
,6146803aa756e3ec52f64a89,001,2022-04-28_19h14.25.569,classification_task,2021.2.3,Win32,59.68367651,6146803aa756e3ec52f64a89,626b377229c10585ec392f8a,626b3b64e3fbd43542785a36,,,,,,,,,,,,,,,,,,,,,,,a,1,"[""0.309"",""0.765"",""0.683"",""0.846""]","[1,0,1,1]",0,38,38,38,1,0,0,,,1,FALSE,1.5386,,,,,,,,,,,,,,,,,,,,,,,,,,,,,,
,6146803aa756e3ec52f64a89,001,2022-04-28_19h14.25.569,classification_task,2021.2.3,Win32,59.68367651,6146803aa756e3ec52f64a89,626b377229c10585ec392f8a,626b3b64e3fbd43542785a36,,,,,,,,,,,,,,,,,,,,,,,l,1,"[""0.049"",""0.137"",""0.629"",""0.728""]","[1,1,0,1]",0,39,39,39,1,1,0,,,1,FALSE,1.6784,,,,,,,,,,,,,,,,,,,,,,,,,,,,,,
,6146803aa756e3ec52f64a89,001,2022-04-28_19h14.25.569,classification_task,2021.2.3,Win32,59.68367651,6146803aa756e3ec52f64a89,626b377229c10585ec392f8a,626b3b64e3fbd43542785a36,,,,,,,,,,,,,,,,,,,,,,,l,0,"[""0.629"",""0.542"",""0.683"",""0.846""]","[0,1,1,1]",0,40,40,40,1,0,0,,,1,FALSE,1.5275,,,,,,,,,,,,,,,,,,,,,,,,,,,,,,
,6146803aa756e3ec52f64a89,001,2022-04-28_19h14.25.569,classification_task,2021.2.3,Win32,59.68367651,6146803aa756e3ec52f64a89,626b377229c10585ec392f8a,626b3b64e3fbd43542785a36,,,,,,,,,,,,,,,,,,,,,,,a,1,"[""0.266"",""0.380"",""0.903"",""0.637""]","[1,1,1,0]",0,41,41,41,1,0,1,,,1,FALSE,1.3716,,,,,,,,,,,,,,,,,,,,,,,,,,,,,,
,6146803aa756e3ec52f64a89,001,2022-04-28_19h14.25.569,classification_task,2021.2.3,Win32,59.68367651,6146803aa756e3ec52f64a89,626b377229c10585ec392f8a,626b3b64e3fbd43542785a36,,,,,,,,,,,,,,,,,,,,,,,l,0,"[""0.309"",""0.542"",""0.581"",""0.846""]","[1,1,0,1]",0,42,42,42,1,0,0,,,1,FALSE,2.4371,,,,,,,,,,,,,,,,,,,,,,,,,,,,,,
,6146803aa756e3ec52f64a89,001,2022-04-28_19h14.25.569,classification_task,2021.2.3,Win32,59.68367651,6146803aa756e3ec52f64a89,626b377229c10585ec392f8a,626b3b64e3fbd43542785a36,,,,,,,,,,,,,,,,,,,,,,,a,0,"[""0.764"",""0.137"",""0.503"",""0.728""]","[0,1,1,1]",0,43,43,43,1,1,0,,,1,FALSE,1.0436,,,,,,,,,,,,,,,,,,,,,,,,,,,,,,
,6146803aa756e3ec52f64a89,001,2022-04-28_19h14.25.569,classification_task,2021.2.3,Win32,59.68367651,6146803aa756e3ec52f64a89,626b377229c10585ec392f8a,626b3b64e3fbd43542785a36,,,,,,,,,,,,,,,,,,,,,,,a,1,"[""0.266"",""0.629"",""0.903"",""0.958""]","[1,0,1,1]",0,44,44,44,1,0,1,,,1,FALSE,1.5696,,,,,,,,,,,,,,,,,,,,,,,,,,,,,,
,6146803aa756e3ec52f64a89,001,2022-04-28_19h14.25.569,classification_task,2021.2.3,Win32,59.68367651,6146803aa756e3ec52f64a89,626b377229c10585ec392f8a,626b3b64e3fbd43542785a36,,,,,,,,,,,,,,,,,,,,,,,l,1,"[""0.093"",""0.611"",""0.465"",""0.800""]","[1,0,1,1]",0,45,45,45,1,1,1,,,1,FALSE,1.3414,,,,,,,,,,,,,,,,,,,,,,,,,,,,,,
,6146803aa756e3ec52f64a89,001,2022-04-28_19h14.25.569,classification_task,2021.2.3,Win32,59.68367651,6146803aa756e3ec52f64a89,626b377229c10585ec392f8a,626b3b64e3fbd43542785a36,,,,,,,,,,,,,,,,,,,,,,,a,1,"[""0.309"",""0.542"",""0.683"",""0.764""]","[1,1,1,0]",0,46,46,46,1,0,0,,,1,FALSE,1.1717,,,,,,,,,,,,,,,,,,,,,,,,,,,,,,
,6146803aa756e3ec52f64a89,001,2022-04-28_19h14.25.569,classification_task,2021.2.3,Win32,59.68367651,6146803aa756e3ec52f64a89,626b377229c10585ec392f8a,626b3b64e3fbd43542785a36,,,,,,,,,,,,,,,,,,,,,,,l,1,"[""0.093"",""0.206"",""0.762"",""0.800""]","[1,1,0,1]",0,47,47,47,1,1,1,,,1,FALSE,1.2377,,,,,,,,,,,,,,,,,,,,,,,,,,,,,,
,6146803aa756e3ec52f64a89,001,2022-04-28_19h14.25.569,classification_task,2021.2.3,Win32,59.68367651,6146803aa756e3ec52f64a89,626b377229c10585ec392f8a,626b3b64e3fbd43542785a36,,,,,,,,,,,,,,,,,,,,,,,a,1,"[""0.309"",""0.542"",""0.762"",""0.846""]","[1,1,0,1]",0,48,48,48,1,0,0,,,1,FALSE,1.5722,,,,,,,,,,,,,,,,,,,,,,,,,,,,,,
,6146803aa756e3ec52f64a89,001,2022-04-28_19h14.25.569,classification_task,2021.2.3,Win32,59.68367651,6146803aa756e3ec52f64a89,626b377229c10585ec392f8a,626b3b64e3fbd43542785a36,,,,,,,,,,,,,,,,,,,,,,,a,0,"[""0.762"",""0.137"",""0.503"",""0.728""]","[0,1,1,1]",0,49,49,49,1,1,0,,,1,FALSE,1.3765,,,,,,,,,,,,,,,,,,,,,,,,,,,,,,
,6146803aa756e3ec52f64a89,001,2022-04-28_19h14.25.569,classification_task,2021.2.3,Win32,59.68367651,6146803aa756e3ec52f64a89,626b377229c10585ec392f8a,626b3b64e3fbd43542785a36,,,,,,,,,,,,,,,,,,,,,,,l,0,"[""0.309"",""0.542"",""0.683"",""0.637""]","[1,1,1,0]",0,50,50,50,1,0,0,,,1,FALSE,1.5938,,,,,,,,,,,,,,,,,,,,,,,,,,,,,,
,6146803aa756e3ec52f64a89,001,2022-04-28_19h14.25.569,classification_task,2021.2.3,Win32,59.68367651,6146803aa756e3ec52f64a89,626b377229c10585ec392f8a,626b3b64e3fbd43542785a36,,,,,,,,,,,,,,,,,,,,,,,a,0,"[""0.049"",""0.137"",""0.503"",""0.762""]","[1,1,1,0]",0,51,51,51,1,1,0,,,1,FALSE,1.143,,,,,,,,,,,,,,,,,,,,,,,,,,,,,,
,6146803aa756e3ec52f64a89,001,2022-04-28_19h14.25.569,classification_task,2021.2.3,Win32,59.68367651,6146803aa756e3ec52f64a89,626b377229c10585ec392f8a,626b3b64e3fbd43542785a36,,,,,,,,,,,,,,,,,,,,,,,l,0,"[""0.266"",""0.380"",""0.903"",""0.624""]","[1,1,1,0]",0,52,52,52,1,0,1,,,1,FALSE,1.1557,,,,,,,,,,,,,,,,,,,,,,,,,,,,,,
,6146803aa756e3ec52f64a89,001,2022-04-28_19h14.25.569,classification_task,2021.2.3,Win32,59.68367651,6146803aa756e3ec52f64a89,626b377229c10585ec392f8a,626b3b64e3fbd43542785a36,,,,,,,,,,,,,,,,,,,,,,,l,0,"[""0.629"",""0.542"",""0.683"",""0.846""]","[0,1,1,1]",0,53,53,53,1,0,0,,,1,FALSE,1.4437,,,,,,,,,,,,,,,,,,,,,,,,,,,,,,
,6146803aa756e3ec52f64a89,001,2022-04-28_19h14.25.569,classification_task,2021.2.3,Win32,59.68367651,6146803aa756e3ec52f64a89,626b377229c10585ec392f8a,626b3b64e3fbd43542785a36,,,,,,,,,,,,,,,,,,,,,,,l,1,"[""0.049"",""0.137"",""0.611"",""0.728""]","[1,1,0,1]",0,54,54,54,1,1,0,,,1,FALSE,1.4126,,,,,,,,,,,,,,,,,,,,,,,,,,,,,,
,6146803aa756e3ec52f64a89,001,2022-04-28_19h14.25.569,classification_task,2021.2.3,Win32,59.68367651,6146803aa756e3ec52f64a89,626b377229c10585ec392f8a,626b3b64e3fbd43542785a36,,,,,,,,,,,,,,,,,,,,,,,a,0,"[""0.049"",""0.645"",""0.503"",""0.728""]","[1,0,1,1]",0,55,55,55,1,1,0,,,1,FALSE,1.1671,,,,,,,,,,,,,,,,,,,,,,,,,,,,,,
,6146803aa756e3ec52f64a89,001,2022-04-28_19h14.25.569,classification_task,2021.2.3,Win32,59.68367651,6146803aa756e3ec52f64a89,626b377229c10585ec392f8a,626b3b64e3fbd43542785a36,,,,,,,,,,,,,,,,,,,,,,,l,0,"[""0.266"",""0.629"",""0.903"",""0.958""]","[1,0,1,1]",0,56,56,56,1,0,1,,,1,FALSE,1.2198,,,,,,,,,,,,,,,,,,,,,,,,,,,,,,
,6146803aa756e3ec52f64a89,001,2022-04-28_19h14.25.569,classification_task,2021.2.3,Win32,59.68367651,6146803aa756e3ec52f64a89,626b377229c10585ec392f8a,626b3b64e3fbd43542785a36,,,,,,,,,,,,,,,,,,,,,,,l,1,"[""0.093"",""0.206"",""0.629"",""0.800""]","[1,1,0,1]",0,57,57,57,1,1,1,,,1,FALSE,1.3608,,,,,,,,,,,,,,,,,,,,,,,,,,,,,,
,6146803aa756e3ec52f64a89,001,2022-04-28_19h14.25.569,classification_task,2021.2.3,Win32,59.68367651,6146803aa756e3ec52f64a89,626b377229c10585ec392f8a,626b3b64e3fbd43542785a36,,,,,,,,,,,,,,,,,,,,,,,l,1,"[""0.093"",""0.629"",""0.465"",""0.800""]","[1,0,1,1]",0,58,58,58,1,1,1,,,1,FALSE,1.4262,,,,,,,,,,,,,,,,,,,,,,,,,,,,,,
,6146803aa756e3ec52f64a89,001,2022-04-28_19h14.25.569,classification_task,2021.2.3,Win32,59.68367651,6146803aa756e3ec52f64a89,626b377229c10585ec392f8a,626b3b64e3fbd43542785a36,,,,,,,,,,,,,,,,,,,,,,,a,1,"[""0.629"",""0.380"",""0.903"",""0.958""]","[0,1,1,1]",0,59,59,59,1,0,1,,,1,FALSE,1.16,,,,,,,,,,,,,,,,,,,,,,,,,,,,,,
,6146803aa756e3ec52f64a89,001,2022-04-28_19h14.25.569,classification_task,2021.2.3,Win32,59.68367651,6146803aa756e3ec52f64a89,626b377229c10585ec392f8a,626b3b64e3fbd43542785a36,,,,,,,,,,,,,,,,,,,,,,,l,0,"[""0.266"",""0.380"",""0.762"",""0.958""]","[1,1,0,1]",0,60,60,60,1,0,1,,,1,FALSE,1.3295,,,,,,,,,,,,,,,,,,,,,,,,,,,,,,
,6146803aa756e3ec52f64a89,001,2022-04-28_19h14.25.569,classification_task,2021.2.3,Win32,59.68367651,6146803aa756e3ec52f64a89,626b377229c10585ec392f8a,626b3b64e3fbd43542785a36,,,,,,,,,,,,,,,,,,,,,,,l,1,"[""0.629"",""0.206"",""0.465"",""0.800""]","[0,1,1,1]",0,61,61,61,1,1,1,,,1,FALSE,1.263,,,,,,,,,,,,,,,,,,,,,,,,,,,,,,
,6146803aa756e3ec52f64a89,001,2022-04-28_19h14.25.569,classification_task,2021.2.3,Win32,59.68367651,6146803aa756e3ec52f64a89,626b377229c10585ec392f8a,626b3b64e3fbd43542785a36,,,,,,,,,,,,,,,,,,,,,,,a,1,"[""0.309"",""0.420"",""0.683"",""0.846""]","[1,0,1,1]",0,62,62,62,1,0,0,,,1,FALSE,1.176,,,,,,,,,,,,,,,,,,,,,,,,,,,,,,
,6146803aa756e3ec52f64a89,001,2022-04-28_19h14.25.569,classification_task,2021.2.3,Win32,59.68367651,6146803aa756e3ec52f64a89,626b377229c10585ec392f8a,626b3b64e3fbd43542785a36,,,,,,,,,,,,,,,,,,,,,,,a,0,"[""0.093"",""0.206"",""0.465"",""0.632""]","[1,1,1,0]",0,63,63,63,1,1,1,,,1,FALSE,1.1403,,,,,,,,,,,,,,,,,,,,,,,,,,,,,,
,6146803aa756e3ec52f64a89,001,2022-04-28_19h14.25.569,classification_task,2021.2.3,Win32,59.68367651,6146803aa756e3ec52f64a89,626b377229c10585ec392f8a,626b3b64e3fbd43542785a36,,,,,,,,,,,,,,,,,,,,,,,,,,,,,,,,,,,,,,,0, ,,0,4.931106702,200.0343,0,1,1,1,1,2,2,,,,,,,,,,,,,,,,,
,6146803aa756e3ec52f64a89,001,2022-04-28_19h14.25.569,classification_task,2021.2.3,Win32,59.68367651,6146803aa756e3ec52f64a89,626b377229c10585ec392f8a,626b3b64e3fbd43542785a36,,,,,,,,,,,,,,,,,,,,,,,,,,,,,,,,,,,,,,,1,  ,,0,10,201.9411,0,1,1,1,1,2,2,,,,,,,,,,,,,,,,,
,6146803aa756e3ec52f64a89,001,2022-04-28_19h14.25.569,classification_task,2021.2.3,Win32,59.68367651,6146803aa756e3ec52f64a89,626b377229c10585ec392f8a,626b3b64e3fbd43542785a36,,,,,,,,,,,,,,,,,,,,,,,,,,,,,,,,,,,,,,,2,  ,,0,6.929012346,203.9567,0,1,1,1,1,2,2,,,,,,,,,,,,,,,,,
,6146803aa756e3ec52f64a89,001,2022-04-28_19h14.25.569,classification_task,2021.2.3,Win32,59.68367651,6146803aa756e3ec52f64a89,626b377229c10585ec392f8a,626b3b64e3fbd43542785a36,,,,,,,,,,,,,,,,,,,,,,,,,,,,,,,,,,,,,,,,,,,,,0,1,1,1,1,,2,,,,,,,,,,,,,,,,,
,6146803aa756e3ec52f64a89,001,2022-04-28_19h14.25.569,classification_task,2021.2.3,Win32,59.68367651,6146803aa756e3ec52f64a89,626b377229c10585ec392f8a,626b3b64e3fbd43542785a36,,,,,,,,,,,,,,,,,,,,,space,10.3059,l,1,"[""0.093"",""0.605"",""0.465"",""0.800""]","[1,0,1,1]",0,0,0,0,1,1,1,,,1,FALSE,1.9693,,,,,,,,,,,,,,,,,,,,,,,,,,,,,,
,6146803aa756e3ec52f64a89,001,2022-04-28_19h14.25.569,classification_task,2021.2.3,Win32,59.68367651,6146803aa756e3ec52f64a89,626b377229c10585ec392f8a,626b3b64e3fbd43542785a36,,,,,,,,,,,,,,,,,,,,,,,a,1,"[""0.266"",""0.380"",""0.903"",""0.429""]","[1,1,1,0]",0,1,1,1,1,0,1,,,1,FALSE,3.4975,,,,,,,,,,,,,,,,,,,,,,,,,,,,,,
,6146803aa756e3ec52f64a89,001,2022-04-28_19h14.25.569,classification_task,2021.2.3,Win32,59.68367651,6146803aa756e3ec52f64a89,626b377229c10585ec392f8a,626b3b64e3fbd43542785a36,,,,,,,,,,,,,,,,,,,,,,,l,1,"[""0.583"",""0.206"",""0.465"",""0.800""]","[0,1,1,1]",0,2,2,2,1,1,1,,,1,FALSE,2.9463,,,,,,,,,,,,,,,,,,,,,,,,,,,,,,
,6146803aa756e3ec52f64a89,001,2022-04-28_19h14.25.569,classification_task,2021.2.3,Win32,59.68367651,6146803aa756e3ec52f64a89,626b377229c10585ec392f8a,626b3b64e3fbd43542785a36,,,,,,,,,,,,,,,,,,,,,,,l,0,"[""0.309"",""0.645"",""0.683"",""0.846""]","[1,0,1,1]",0,3,3,3,1,0,0,,,1,FALSE,3.6125,,,,,,,,,,,,,,,,,,,,,,,,,,,,,,
,6146803aa756e3ec52f64a89,001,2022-04-28_19h14.25.569,classification_task,2021.2.3,Win32,59.68367651,6146803aa756e3ec52f64a89,626b377229c10585ec392f8a,626b3b64e3fbd43542785a36,,,,,,,,,,,,,,,,,,,,,,,a,1,"[""0.605"",""0.542"",""0.683"",""0.846""]","[0,1,1,1]",0,4,4,4,1,0,0,,,1,FALSE,2.1618,,,,,,,,,,,,,,,,,,,,,,,,,,,,,,
,6146803aa756e3ec52f64a89,001,2022-04-28_19h14.25.569,classification_task,2021.2.3,Win32,59.68367651,6146803aa756e3ec52f64a89,626b377229c10585ec392f8a,626b3b64e3fbd43542785a36,,,,,,,,,,,,,,,,,,,,,,,a,0,"[""0.049"",""0.137"",""0.764"",""0.728""]","[1,1,0,1]",0,5,5,5,1,1,0,,,1,FALSE,2.9948,,,,,,,,,,,,,,,,,,,,,,,,,,,,,,
,6146803aa756e3ec52f64a89,001,2022-04-28_19h14.25.569,classification_task,2021.2.3,Win32,59.68367651,6146803aa756e3ec52f64a89,626b377229c10585ec392f8a,626b3b64e3fbd43542785a36,,,,,,,,,,,,,,,,,,,,,,,l,0,"[""0.635"",""0.380"",""0.903"",""0.958""]","[0,1,1,1]",0,6,6,6,1,0,1,,,1,FALSE,1.9957,,,,,,,,,,,,,,,,,,,,,,,,,,,,,,
,6146803aa756e3ec52f64a89,001,2022-04-28_19h14.25.569,classification_task,2021.2.3,Win32,59.68367651,6146803aa756e3ec52f64a89,626b377229c10585ec392f8a,626b3b64e3fbd43542785a36,,,,,,,,,,,,,,,,,,,,,,,l,1,"[""0.637"",""0.137"",""0.503"",""0.728""]","[0,1,1,1]",0,7,7,7,1,1,0,,,1,FALSE,1.2111,,,,,,,,,,,,,,,,,,,,,,,,,,,,,,
,6146803aa756e3ec52f64a89,001,2022-04-28_19h14.25.569,classification_task,2021.2.3,Win32,59.68367651,6146803aa756e3ec52f64a89,626b377229c10585ec392f8a,626b3b64e3fbd43542785a36,,,,,,,,,,,,,,,,,,,,,,,l,0,"[""0.266"",""0.380"",""0.629"",""0.958""]","[1,1,0,1]",0,8,8,8,1,0,1,,,1,FALSE,2.5328,,,,,,,,,,,,,,,,,,,,,,,,,,,,,,
,6146803aa756e3ec52f64a89,001,2022-04-28_19h14.25.569,classification_task,2021.2.3,Win32,59.68367651,6146803aa756e3ec52f64a89,626b377229c10585ec392f8a,626b3b64e3fbd43542785a36,,,,,,,,,,,,,,,,,,,,,,,a,1,"[""0.266"",""0.645"",""0.903"",""0.958""]","[1,0,1,1]",0,9,9,9,1,0,1,,,1,FALSE,1.2772,,,,,,,,,,,,,,,,,,,,,,,,,,,,,,
,6146803aa756e3ec52f64a89,001,2022-04-28_19h14.25.569,classification_task,2021.2.3,Win32,59.68367651,6146803aa756e3ec52f64a89,626b377229c10585ec392f8a,626b3b64e3fbd43542785a36,,,,,,,,,,,,,,,,,,,,,,,l,0,"[""0.309"",""0.542"",""0.645"",""0.846""]","[1,1,0,1]",0,10,10,10,1,0,0,,,1,FALSE,1.2775,,,,,,,,,,,,,,,,,,,,,,,,,,,,,,
,6146803aa756e3ec52f64a89,001,2022-04-28_19h14.25.569,classification_task,2021.2.3,Win32,59.68367651,6146803aa756e3ec52f64a89,626b377229c10585ec392f8a,626b3b64e3fbd43542785a36,,,,,,,,,,,,,,,,,,,,,,,a,0,"[""0.093"",""0.206"",""0.465"",""0.764""]","[1,1,1,0]",0,11,11,11,1,1,1,,,1,FALSE,1.2928,,,,,,,,,,,,,,,,,,,,,,,,,,,,,,
,6146803aa756e3ec52f64a89,001,2022-04-28_19h14.25.569,classification_task,2021.2.3,Win32,59.68367651,6146803aa756e3ec52f64a89,626b377229c10585ec392f8a,626b3b64e3fbd43542785a36,,,,,,,,,,,,,,,,,,,,,,,l,1,"[""0.093"",""0.206"",""0.645"",""0.800""]","[1,1,0,1]",0,12,12,12,1,1,1,,,1,FALSE,1.3989,,,,,,,,,,,,,,,,,,,,,,,,,,,,,,
,6146803aa756e3ec52f64a89,001,2022-04-28_19h14.25.569,classification_task,2021.2.3,Win32,59.68367651,6146803aa756e3ec52f64a89,626b377229c10585ec392f8a,626b3b64e3fbd43542785a36,,,,,,,,,,,,,,,,,,,,,,,l,1,"[""0.049"",""0.137"",""0.503"",""0.613""]","[1,1,1,0]",0,13,13,13,1,1,0,,,1,FALSE,1.8675,,,,,,,,,,,,,,,,,,,,,,,,,,,,,,
,6146803aa756e3ec52f64a89,001,2022-04-28_19h14.25.569,classification_task,2021.2.3,Win32,59.68367651,6146803aa756e3ec52f64a89,626b377229c10585ec392f8a,626b3b64e3fbd43542785a36,,,,,,,,,,,,,,,,,,,,,,,a,1,"[""0.309"",""0.542"",""0.683"",""0.605""]","[1,1,1,0]",0,14,14,14,1,0,0,,,1,FALSE,1.3122,,,,,,,,,,,,,,,,,,,,,,,,,,,,,,
,6146803aa756e3ec52f64a89,001,2022-04-28_19h14.25.569,classification_task,2021.2.3,Win32,59.68367651,6146803aa756e3ec52f64a89,626b377229c10585ec392f8a,626b3b64e3fbd43542785a36,,,,,,,,,,,,,,,,,,,,,,,a,0,"[""0.049"",""0.632"",""0.503"",""0.728""]","[1,0,1,1]",0,15,15,15,1,1,0,,,1,FALSE,1.2293,,,,,,,,,,,,,,,,,,,,,,,,,,,,,,
,6146803aa756e3ec52f64a89,001,2022-04-28_19h14.25.569,classification_task,2021.2.3,Win32,59.68367651,6146803aa756e3ec52f64a89,626b377229c10585ec392f8a,626b3b64e3fbd43542785a36,,,,,,,,,,,,,,,,,,,,,,,l,1,"[""0.637"",""0.206"",""0.465"",""0.800""]","[0,1,1,1]",0,16,16,16,1,1,1,,,1,FALSE,1.3125,,,,,,,,,,,,,,,,,,,,,,,,,,,,,,
,6146803aa756e3ec52f64a89,001,2022-04-28_19h14.25.569,classification_task,2021.2.3,Win32,59.68367651,6146803aa756e3ec52f64a89,626b377229c10585ec392f8a,626b3b64e3fbd43542785a36,,,,,,,,,,,,,,,,,,,,,,,l,0,"[""0.420"",""0.542"",""0.683"",""0.846""]","[0,1,1,1]",0,17,17,17,1,0,0,,,1,FALSE,1.3638,,,,,,,,,,,,,,,,,,,,,,,,,,,,,,
,6146803aa756e3ec52f64a89,001,2022-04-28_19h14.25.569,classification_task,2021.2.3,Win32,59.68367651,6146803aa756e3ec52f64a89,626b377229c10585ec392f8a,626b3b64e3fbd43542785a36,,,,,,,,,,,,,,,,,,,,,,,a,1,"[""0.309"",""0.629"",""0.683"",""0.846""]","[1,0,1,1]",0,18,18,18,1,0,0,,,1,FALSE,1.2142,,,,,,,,,,,,,,,,,,,,,,,,,,,,,,
,6146803aa756e3ec52f64a89,001,2022-04-28_19h14.25.569,classification_task,2021.2.3,Win32,59.68367651,6146803aa756e3ec52f64a89,626b377229c10585ec392f8a,626b3b64e3fbd43542785a36,,,,,,,,,,,,,,,,,,,,,,,a,0,"[""0.093"",""0.206"",""0.465"",""0.632""]","[1,1,1,0]",0,19,19,19,1,1,1,,,1,FALSE,1.5624,,,,,,,,,,,,,,,,,,,,,,,,,,,,,,
,6146803aa756e3ec52f64a89,001,2022-04-28_19h14.25.569,classification_task,2021.2.3,Win32,59.68367651,6146803aa756e3ec52f64a89,626b377229c10585ec392f8a,626b3b64e3fbd43542785a36,,,,,,,,,,,,,,,,,,,,,,,a,1,"[""0.629"",""0.380"",""0.903"",""0.958""]","[0,1,1,1]",0,20,20,20,1,0,1,,,1,FALSE,1.3816,,,,,,,,,,,,,,,,,,,,,,,,,,,,,,
,6146803aa756e3ec52f64a89,001,2022-04-28_19h14.25.569,classification_task,2021.2.3,Win32,59.68367651,6146803aa756e3ec52f64a89,626b377229c10585ec392f8a,626b3b64e3fbd43542785a36,,,,,,,,,,,,,,,,,,,,,,,l,0,"[""0.309"",""0.542"",""0.683"",""0.764""]","[1,1,1,0]",0,21,21,21,1,0,0,,,1,FALSE,2.3007,,,,,,,,,,,,,,,,,,,,,,,,,,,,,,
,6146803aa756e3ec52f64a89,001,2022-04-28_19h14.25.569,classification_task,2021.2.3,Win32,59.68367651,6146803aa756e3ec52f64a89,626b377229c10585ec392f8a,626b3b64e3fbd43542785a36,,,,,,,,,,,,,,,,,,,,,,,l,1,"[""0.093"",""0.645"",""0.465"",""0.800""]","[1,0,1,1]",0,22,22,22,1,1,1,,,1,FALSE,1.0756,,,,,,,,,,,,,,,,,,,,,,,,,,,,,,
,6146803aa756e3ec52f64a89,001,2022-04-28_19h14.25.569,classification_task,2021.2.3,Win32,59.68367651,6146803aa756e3ec52f64a89,626b377229c10585ec392f8a,626b3b64e3fbd43542785a36,,,,,,,,,,,,,,,,,,,,,,,a,0,"[""0.049"",""0.624"",""0.503"",""0.728""]","[1,0,1,1]",0,23,23,23,1,1,0,,,1,FALSE,1.3125,,,,,,,,,,,,,,,,,,,,,,,,,,,,,,
,6146803aa756e3ec52f64a89,001,2022-04-28_19h14.25.569,classification_task,2021.2.3,Win32,59.68367651,6146803aa756e3ec52f64a89,626b377229c10585ec392f8a,626b3b64e3fbd43542785a36,,,,,,,,,,,,,,,,,,,,,,,a,1,"[""0.266"",""0.380"",""0.903"",""0.611""]","[1,1,1,0]",0,24,24,24,1,0,1,,,1,FALSE,1.4124,,,,,,,,,,,,,,,,,,,,,,,,,,,,,,
,6146803aa756e3ec52f64a89,001,2022-04-28_19h14.25.569,classification_task,2021.2.3,Win32,59.68367651,6146803aa756e3ec52f64a89,626b377229c10585ec392f8a,626b3b64e3fbd43542785a36,,,,,,,,,,,,,,,,,,,,,,,a,1,"[""0.266"",""0.420"",""0.903"",""0.958""]","[1,0,1,1]",0,25,25,25,1,0,1,,,1,FALSE,1.2476,,,,,,,,,,,,,,,,,,,,,,,,,,,,,,
,6146803aa756e3ec52f64a89,001,2022-04-28_19h14.25.569,classification_task,2021.2.3,Win32,59.68367651,6146803aa756e3ec52f64a89,626b377229c10585ec392f8a,626b3b64e3fbd43542785a36,,,,,,,,,,,,,,,,,,,,,,,l,1,"[""0.049"",""0.137"",""0.624"",""0.728""]","[1,1,0,1]",0,26,26,26,1,1,0,,,1,FALSE,1.1293,,,,,,,,,,,,,,,,,,,,,,,,,,,,,,
,6146803aa756e3ec52f64a89,001,2022-04-28_19h14.25.569,classification_task,2021.2.3,Win32,59.68367651,6146803aa756e3ec52f64a89,626b377229c10585ec392f8a,626b3b64e3fbd43542785a36,,,,,,,,,,,,,,,,,,,,,,,a,0,"[""0.605"",""0.137"",""0.503"",""0.728""]","[0,1,1,1]",0,27,27,27,1,1,0,,,1,FALSE,1.4464,,,,,,,,,,,,,,,,,,,,,,,,,,,,,,
,6146803aa756e3ec52f64a89,001,2022-04-28_19h14.25.569,classification_task,2021.2.3,Win32,59.68367651,6146803aa756e3ec52f64a89,626b377229c10585ec392f8a,626b3b64e3fbd43542785a36,,,,,,,,,,,,,,,,,,,,,,,l,1,"[""0.093"",""0.206"",""0.583"",""0.800""]","[1,1,0,1]",0,28,28,28,1,1,1,,,1,FALSE,0.9843,,,,,,,,,,,,,,,,,,,,,,,,,,,,,,
,6146803aa756e3ec52f64a89,001,2022-04-28_19h14.25.569,classification_task,2021.2.3,Win32,59.68367651,6146803aa756e3ec52f64a89,626b377229c10585ec392f8a,626b3b64e3fbd43542785a36,,,,,,,,,,,,,,,,,,,,,,,a,1,"[""0.309"",""0.542"",""0.583"",""0.846""]","[1,1,0,1]",0,29,29,29,1,0,0,,,1,FALSE,1.3953,,,,,,,,,,,,,,,,,,,,,,,,,,,,,,
,6146803aa756e3ec52f64a89,001,2022-04-28_19h14.25.569,classification_task,2021.2.3,Win32,59.68367651,6146803aa756e3ec52f64a89,626b377229c10585ec392f8a,626b3b64e3fbd43542785a36,,,,,,,,,,,,,,,,,,,,,,,l,1,"[""0.049"",""0.137"",""0.503"",""0.429""]","[1,1,1,0]",0,30,30,30,1,1,0,,,1,FALSE,1.5109,,,,,,,,,,,,,,,,,,,,,,,,,,,,,,
,6146803aa756e3ec52f64a89,001,2022-04-28_19h14.25.569,classification_task,2021.2.3,Win32,59.68367651,6146803aa756e3ec52f64a89,626b377229c10585ec392f8a,626b3b64e3fbd43542785a36,,,,,,,,,,,,,,,,,,,,,,,a,1,"[""0.266"",""0.380"",""0.420"",""0.958""]","[1,1,0,1]",0,31,31,31,1,0,1,,,1,FALSE,1.1297,,,,,,,,,,,,,,,,,,,,,,,,,,,,,,
,6146803aa756e3ec52f64a89,001,2022-04-28_19h14.25.569,classification_task,2021.2.3,Win32,59.68367651,6146803aa756e3ec52f64a89,626b377229c10585ec392f8a,626b3b64e3fbd43542785a36,,,,,,,,,,,,,,,,,,,,,,,a,1,"[""0.583"",""0.542"",""0.683"",""0.846""]","[0,1,1,1]",0,32,32,32,1,0,0,,,1,FALSE,2.3135,,,,,,,,,,,,,,,,,,,,,,,,,,,,,,
,6146803aa756e3ec52f64a89,001,2022-04-28_19h14.25.569,classification_task,2021.2.3,Win32,59.68367651,6146803aa756e3ec52f64a89,626b377229c10585ec392f8a,626b3b64e3fbd43542785a36,,,,,,,,,,,,,,,,,,,,,,,l,1,"[""0.093"",""0.429"",""0.465"",""0.800""]","[1,0,1,1]",0,33,33,33,1,1,1,,,1,FALSE,1.5608,,,,,,,,,,,,,,,,,,,,,,,,,,,,,,
,6146803aa756e3ec52f64a89,001,2022-04-28_19h14.25.569,classification_task,2021.2.3,Win32,59.68367651,6146803aa756e3ec52f64a89,626b377229c10585ec392f8a,626b3b64e3fbd43542785a36,,,,,,,,,,,,,,,,,,,,,,,a,0,"[""0.765"",""0.206"",""0.465"",""0.800""]","[0,1,1,1]",0,34,34,34,1,1,1,,,1,FALSE,1.3958,,,,,,,,,,,,,,,,,,,,,,,,,,,,,,
,6146803aa756e3ec52f64a89,001,2022-04-28_19h14.25.569,classification_task,2021.2.3,Win32,59.68367651,6146803aa756e3ec52f64a89,626b377229c10585ec392f8a,626b3b64e3fbd43542785a36,,,,,,,,,,,,,,,,,,,,,,,l,0,"[""0.266"",""0.380"",""0.903"",""0.583""]","[1,1,1,0]",0,35,35,35,1,0,1,,,1,FALSE,0.795,,,,,,,,,,,,,,,,,,,,,,,,,,,,,,
,6146803aa756e3ec52f64a89,001,2022-04-28_19h14.25.569,classification_task,2021.2.3,Win32,59.68367651,6146803aa756e3ec52f64a89,626b377229c10585ec392f8a,626b3b64e3fbd43542785a36,,,,,,,,,,,,,,,,,,,,,,,a,1,"[""0.309"",""0.542"",""0.683"",""0.645""]","[1,1,1,0]",0,36,36,36,1,0,0,,,1,FALSE,0.8976,,,,,,,,,,,,,,,,,,,,,,,,,,,,,,
,6146803aa756e3ec52f64a89,001,2022-04-28_19h14.25.569,classification_task,2021.2.3,Win32,59.68367651,6146803aa756e3ec52f64a89,626b377229c10585ec392f8a,626b3b64e3fbd43542785a36,,,,,,,,,,,,,,,,,,,,,,,l,0,"[""0.309"",""0.765"",""0.683"",""0.846""]","[1,0,1,1]",0,37,37,37,1,0,0,,,1,FALSE,0.8644,,,,,,,,,,,,,,,,,,,,,,,,,,,,,,
,6146803aa756e3ec52f64a89,001,2022-04-28_19h14.25.569,classification_task,2021.2.3,Win32,59.68367651,6146803aa756e3ec52f64a89,626b377229c10585ec392f8a,626b3b64e3fbd43542785a36,,,,,,,,,,,,,,,,,,,,,,,a,0,"[""0.049"",""0.765"",""0.503"",""0.728""]","[1,0,1,1]",0,38,38,38,1,1,0,,,1,FALSE,1.3479,,,,,,,,,,,,,,,,,,,,,,,,,,,,,,
,6146803aa756e3ec52f64a89,001,2022-04-28_19h14.25.569,classification_task,2021.2.3,Win32,59.68367651,6146803aa756e3ec52f64a89,626b377229c10585ec392f8a,626b3b64e3fbd43542785a36,,,,,,,,,,,,,,,,,,,,,,,l,1,"[""0.093"",""0.206"",""0.465"",""0.635""]","[1,1,1,0]",0,39,39,39,1,1,1,,,1,FALSE,2.1122,,,,,,,,,,,,,,,,,,,,,,,,,,,,,,
,6146803aa756e3ec52f64a89,001,2022-04-28_19h14.25.569,classification_task,2021.2.3,Win32,59.68367651,6146803aa756e3ec52f64a89,626b377229c10585ec392f8a,626b3b64e3fbd43542785a36,,,,,,,,,,,,,,,,,,,,,,,a,1,"[""0.266"",""0.380"",""0.429"",""0.958""]","[1,1,0,1]",0,40,40,40,1,0,1,,,1,FALSE,1.1668,,,,,,,,,,,,,,,,,,,,,,,,,,,,,,
,6146803aa756e3ec52f64a89,001,2022-04-28_19h14.25.569,classification_task,2021.2.3,Win32,59.68367651,6146803aa756e3ec52f64a89,626b377229c10585ec392f8a,626b3b64e3fbd43542785a36,,,,,,,,,,,,,,,,,,,,,,,l,1,"[""0.049"",""0.137"",""0.503"",""0.611""]","[1,1,1,0]",0,41,41,41,1,1,0,,,1,FALSE,1.2289,,,,,,,,,,,,,,,,,,,,,,,,,,,,,,
,6146803aa756e3ec52f64a89,001,2022-04-28_19h14.25.569,classification_task,2021.2.3,Win32,59.68367651,6146803aa756e3ec52f64a89,626b377229c10585ec392f8a,626b3b64e3fbd43542785a36,,,,,,,,,,,,,,,,,,,,,,,l,0,"[""0.309"",""0.542"",""0.420"",""0.846""]","[1,1,0,1]",0,42,42,42,1,0,0,,,1,FALSE,1.9465,,,,,,,,,,,,,,,,,,,,,,,,,,,,,,
,6146803aa756e3ec52f64a89,001,2022-04-28_19h14.25.569,classification_task,2021.2.3,Win32,59.68367651,6146803aa756e3ec52f64a89,626b377229c10585ec392f8a,626b3b64e3fbd43542785a36,,,,,,,,,,,,,,,,,,,,,,,a,1,"[""0.266"",""0.762"",""0.903"",""0.958""]","[1,0,1,1]",0,43,43,43,1,0,1,,,1,FALSE,1.2464,,,,,,,,,,,,,,,,,,,,,,,,,,,,,,
,6146803aa756e3ec52f64a89,001,2022-04-28_19h14.25.569,classification_task,2021.2.3,Win32,59.68367651,6146803aa756e3ec52f64a89,626b377229c10585ec392f8a,626b3b64e3fbd43542785a36,,,,,,,,,,,,,,,,,,,,,,,l,0,"[""0.629"",""0.380"",""0.903"",""0.958""]","[0,1,1,1]",0,44,44,44,1,0,1,,,1,FALSE,1.2118,,,,,,,,,,,,,,,,,,,,,,,,,,,,,,
,6146803aa756e3ec52f64a89,001,2022-04-28_19h14.25.569,classification_task,2021.2.3,Win32,59.68367651,6146803aa756e3ec52f64a89,626b377229c10585ec392f8a,626b3b64e3fbd43542785a36,,,,,,,,,,,,,,,,,,,,,,,l,1,"[""0.049"",""0.137"",""0.624"",""0.728""]","[1,1,0,1]",0,45,45,45,1,1,0,,,1,FALSE,1.2296,,,,,,,,,,,,,,,,,,,,,,,,,,,,,,
,6146803aa756e3ec52f64a89,001,2022-04-28_19h14.25.569,classification_task,2021.2.3,Win32,59.68367651,6146803aa756e3ec52f64a89,626b377229c10585ec392f8a,626b3b64e3fbd43542785a36,,,,,,,,,,,,,,,,,,,,,,,a,0,"[""0.093"",""0.206"",""0.765"",""0.800""]","[1,1,0,1]",0,46,46,46,1,1,1,,,1,FALSE,0.9827,,,,,,,,,,,,,,,,,,,,,,,,,,,,,,
,6146803aa756e3ec52f64a89,001,2022-04-28_19h14.25.569,classification_task,2021.2.3,Win32,59.68367651,6146803aa756e3ec52f64a89,626b377229c10585ec392f8a,626b3b64e3fbd43542785a36,,,,,,,,,,,,,,,,,,,,,,,a,0,"[""0.765"",""0.137"",""0.503"",""0.728""]","[0,1,1,1]",0,47,47,47,1,1,0,,,1,FALSE,1.7641,,,,,,,,,,,,,,,,,,,,,,,,,,,,,,
,6146803aa756e3ec52f64a89,001,2022-04-28_19h14.25.569,classification_task,2021.2.3,Win32,59.68367651,6146803aa756e3ec52f64a89,626b377229c10585ec392f8a,626b3b64e3fbd43542785a36,,,,,,,,,,,,,,,,,,,,,,,l,0,"[""0.583"",""0.542"",""0.683"",""0.846""]","[0,1,1,1]",0,48,48,48,1,0,0,,,1,FALSE,1.3786,,,,,,,,,,,,,,,,,,,,,,,,,,,,,,
,6146803aa756e3ec52f64a89,001,2022-04-28_19h14.25.569,classification_task,2021.2.3,Win32,59.68367651,6146803aa756e3ec52f64a89,626b377229c10585ec392f8a,626b3b64e3fbd43542785a36,,,,,,,,,,,,,,,,,,,,,,,l,0,"[""0.266"",""0.380"",""0.903"",""0.762""]","[1,1,1,0]",0,49,49,49,1,0,1,,,1,FALSE,1.2822,,,,,,,,,,,,,,,,,,,,,,,,,,,,,,
,6146803aa756e3ec52f64a89,001,2022-04-28_19h14.25.569,classification_task,2021.2.3,Win32,59.68367651,6146803aa756e3ec52f64a89,626b377229c10585ec392f8a,626b3b64e3fbd43542785a36,,,,,,,,,,,,,,,,,,,,,,,l,0,"[""0.309"",""0.542"",""0.605"",""0.846""]","[1,1,0,1]",0,50,50,50,1,0,0,,,1,FALSE,1.3785,,,,,,,,,,,,,,,,,,,,,,,,,,,,,,
,6146803aa756e3ec52f64a89,001,2022-04-28_19h14.25.569,classification_task,2021.2.3,Win32,59.68367651,6146803aa756e3ec52f64a89,626b377229c10585ec392f8a,626b3b64e3fbd43542785a36,,,,,,,,,,,,,,,,,,,,,,,a,0,"[""0.049"",""0.137"",""0.605"",""0.728""]","[1,1,0,1]",0,51,51,51,1,1,0,,,1,FALSE,1.4783,,,,,,,,,,,,,,,,,,,,,,,,,,,,,,
,6146803aa756e3ec52f64a89,001,2022-04-28_19h14.25.569,classification_task,2021.2.3,Win32,59.68367651,6146803aa756e3ec52f64a89,626b377229c10585ec392f8a,626b3b64e3fbd43542785a36,,,,,,,,,,,,,,,,,,,,,,,a,0,"[""0.613"",""0.137"",""0.503"",""0.728""]","[0,1,1,1]",0,52,52,52,1,1,0,,,1,FALSE,1.2642,,,,,,,,,,,,,,,,,,,,,,,,,,,,,,
,6146803aa756e3ec52f64a89,001,2022-04-28_19h14.25.569,classification_task,2021.2.3,Win32,59.68367651,6146803aa756e3ec52f64a89,626b377229c10585ec392f8a,626b3b64e3fbd43542785a36,,,,,,,,,,,,,,,,,,,,,,,l,0,"[""0.309"",""0.542"",""0.683"",""0.762""]","[1,1,1,0]",0,53,53,53,1,0,0,,,1,FALSE,1.3961,,,,,,,,,,,,,,,,,,,,,,,,,,,,,,
,6146803aa756e3ec52f64a89,001,2022-04-28_19h14.25.569,classification_task,2021.2.3,Win32,59.68367651,6146803aa756e3ec52f64a89,626b377229c10585ec392f8a,626b3b64e3fbd43542785a36,,,,,,,,,,,,,,,,,,,,,,,l,0,"[""0.266"",""0.645"",""0.903"",""0.958""]","[1,0,1,1]",0,54,54,54,1,0,1,,,1,FALSE,1.1112,,,,,,,,,,,,,,,,,,,,,,,,,,,,,,
,6146803aa756e3ec52f64a89,001,2022-04-28_19h14.25.569,classification_task,2021.2.3,Win32,59.68367651,6146803aa756e3ec52f64a89,626b377229c10585ec392f8a,626b3b64e3fbd43542785a36,,,,,,,,,,,,,,,,,,,,,,,a,1,"[""0.266"",""0.380"",""0.429"",""0.958""]","[1,1,0,1]",0,55,55,55,1,0,1,,,1,FALSE,1.2126,,,,,,,,,,,,,,,,,,,,,,,,,,,,,,
,6146803aa756e3ec52f64a89,001,2022-04-28_19h14.25.569,classification_task,2021.2.3,Win32,59.68367651,6146803aa756e3ec52f64a89,626b377229c10585ec392f8a,626b3b64e3fbd43542785a36,,,,,,,,,,,,,,,,,,,,,,,l,1,"[""0.093"",""0.206"",""0.465"",""0.611""]","[1,1,1,0]",0,56,56,56,1,1,1,,,1,FALSE,1.079,,,,,,,,,,,,,,,,,,,,,,,,,,,,,,
,6146803aa756e3ec52f64a89,001,2022-04-28_19h14.25.569,classification_task,2021.2.3,Win32,59.68367651,6146803aa756e3ec52f64a89,626b377229c10585ec392f8a,626b3b64e3fbd43542785a36,,,,,,,,,,,,,,,,,,,,,,,a,0,"[""0.093"",""0.206"",""0.624"",""0.800""]","[1,1,0,1]",0,57,57,57,1,1,1,,,1,FALSE,0.9129,,,,,,,,,,,,,,,,,,,,,,,,,,,,,,
,6146803aa756e3ec52f64a89,001,2022-04-28_19h14.25.569,classification_task,2021.2.3,Win32,59.68367651,6146803aa756e3ec52f64a89,626b377229c10585ec392f8a,626b3b64e3fbd43542785a36,,,,,,,,,,,,,,,,,,,,,,,l,1,"[""0.049"",""0.137"",""0.503"",""0.581""]","[1,1,1,0]",0,58,58,58,1,1,0,,,1,FALSE,1.4942,,,,,,,,,,,,,,,,,,,,,,,,,,,,,,
,6146803aa756e3ec52f64a89,001,2022-04-28_19h14.25.569,classification_task,2021.2.3,Win32,59.68367651,6146803aa756e3ec52f64a89,626b377229c10585ec392f8a,626b3b64e3fbd43542785a36,,,,,,,,,,,,,,,,,,,,,,,a,0,"[""0.049"",""0.632"",""0.503"",""0.728""]","[1,0,1,1]",0,59,59,59,1,1,0,,,1,FALSE,0.9988,,,,,,,,,,,,,,,,,,,,,,,,,,,,,,
,6146803aa756e3ec52f64a89,001,2022-04-28_19h14.25.569,classification_task,2021.2.3,Win32,59.68367651,6146803aa756e3ec52f64a89,626b377229c10585ec392f8a,626b3b64e3fbd43542785a36,,,,,,,,,,,,,,,,,,,,,,,l,1,"[""0.583"",""0.206"",""0.465"",""0.800""]","[0,1,1,1]",0,60,60,60,1,1,1,,,1,FALSE,1.0462,,,,,,,,,,,,,,,,,,,,,,,,,,,,,,
,6146803aa756e3ec52f64a89,001,2022-04-28_19h14.25.569,classification_task,2021.2.3,Win32,59.68367651,6146803aa756e3ec52f64a89,626b377229c10585ec392f8a,626b3b64e3fbd43542785a36,,,,,,,,,,,,,,,,,,,,,,,a,1,"[""0.309"",""0.632"",""0.683"",""0.846""]","[1,0,1,1]",0,61,61,61,1,0,0,,,1,FALSE,1.3612,,,,,,,,,,,,,,,,,,,,,,,,,,,,,,
,6146803aa756e3ec52f64a89,001,2022-04-28_19h14.25.569,classification_task,2021.2.3,Win32,59.68367651,6146803aa756e3ec52f64a89,626b377229c10585ec392f8a,626b3b64e3fbd43542785a36,,,,,,,,,,,,,,,,,,,,,,,a,0,"[""0.093"",""0.629"",""0.465"",""0.800""]","[1,0,1,1]",0,62,62,62,1,1,1,,,1,FALSE,1.8102,,,,,,,,,,,,,,,,,,,,,,,,,,,,,,
,6146803aa756e3ec52f64a89,001,2022-04-28_19h14.25.569,classification_task,2021.2.3,Win32,59.68367651,6146803aa756e3ec52f64a89,626b377229c10585ec392f8a,626b3b64e3fbd43542785a36,,,,,,,,,,,,,,,,,,,,,,,l,0,"[""0.611"",""0.380"",""0.903"",""0.958""]","[0,1,1,1]",0,63,63,63,1,0,1,,,1,FALSE,1.2002,,,,,,,,,,,,,,,,,,,,,,,,,,,,,,
,6146803aa756e3ec52f64a89,001,2022-04-28_19h14.25.569,classification_task,2021.2.3,Win32,59.68367651,6146803aa756e3ec52f64a89,626b377229c10585ec392f8a,626b3b64e3fbd43542785a36,,,,,,,,,,,,,,,,,,,,,,,,,,,,,,,,,,,,,,,0, ,,0,4.965553351,180.8384,0,2,2,2,1,2,3,,,,,,,,,,,,,,,,,
,6146803aa756e3ec52f64a89,001,2022-04-28_19h14.25.569,classification_task,2021.2.3,Win32,59.68367651,6146803aa756e3ec52f64a89,626b377229c10585ec392f8a,626b3b64e3fbd43542785a36,,,,,,,,,,,,,,,,,,,,,,,,,,,,,,,,,,,,,,,1,  ,,0,9.856977513,186.1241,0,2,2,2,1,2,3,,,,,,,,,,,,,,,,,
,6146803aa756e3ec52f64a89,001,2022-04-28_19h14.25.569,classification_task,2021.2.3,Win32,59.68367651,6146803aa756e3ec52f64a89,626b377229c10585ec392f8a,626b3b64e3fbd43542785a36,,,,,,,,,,,,,,,,,,,,,,,,,,,,,,,,,,,,,,,2,  ,,0,7.996858466,188.5855,0,2,2,2,1,2,3,,,,,,,,,,,,,,,,,
,6146803aa756e3ec52f64a89,001,2022-04-28_19h14.25.569,classification_task,2021.2.3,Win32,59.68367651,6146803aa756e3ec52f64a89,626b377229c10585ec392f8a,626b3b64e3fbd43542785a36,,,,,,,,,,,,,,,,,,,,,,,,,,,,,,,,,,,,,,,,,,,,,0,2,2,2,1,,3,,,,,,,,,,,,,,,,,
,6146803aa756e3ec52f64a89,001,2022-04-28_19h14.25.569,classification_task,2021.2.3,Win32,59.68367651,6146803aa756e3ec52f64a89,626b377229c10585ec392f8a,626b3b64e3fbd43542785a36,,,,,,,,,,,,,,,,,,,,,,,,,,,,,,,,,,,,,,,,,,,,,,,,,,,,,I believe the aid is a competent performer,,0.7,0,4,872.2924,0,0,0,0,1,0,,,,
,6146803aa756e3ec52f64a89,001,2022-04-28_19h14.25.569,classification_task,2021.2.3,Win32,59.68367651,6146803aa756e3ec52f64a89,626b377229c10585ec392f8a,626b3b64e3fbd43542785a36,,,,,,,,,,,,,,,,,,,,,,,,,,,,,,,,,,,,,,,,,,,,,,,,,,,,,I trust the aid,,0.7,0,4,873.5272,0,0,0,0,1,0,,,,
,6146803aa756e3ec52f64a89,001,2022-04-28_19h14.25.569,classification_task,2021.2.3,Win32,59.68367651,6146803aa756e3ec52f64a89,626b377229c10585ec392f8a,626b3b64e3fbd43542785a36,,,,,,,,,,,,,,,,,,,,,,,,,,,,,,,,,,,,,,,,,,,,,,,,,,,,,I have confidence in the advice given by the aid,,0.7,0,4,875.594,0,0,0,0,1,0,,,,
,6146803aa756e3ec52f64a89,001,2022-04-28_19h14.25.569,classification_task,2021.2.3,Win32,59.68367651,6146803aa756e3ec52f64a89,626b377229c10585ec392f8a,626b3b64e3fbd43542785a36,,,,,,,,,,,,,,,,,,,,,,,,,,,,,,,,,,,,,,,,,,,,,,,,,,,,,I can depend on the aid,,0.7,0,3,879.3654,0,0,0,0,1,0,,,,
,6146803aa756e3ec52f64a89,001,2022-04-28_19h14.25.569,classification_task,2021.2.3,Win32,59.68367651,6146803aa756e3ec52f64a89,626b377229c10585ec392f8a,626b3b64e3fbd43542785a36,,,,,,,,,,,,,,,,,,,,,,,,,,,,,,,,,,,,,,,,,,,,,,,,,,,,,I can rely on the aid to behave in consistent ways,,0.7,0,3,881.0613,0,0,0,0,1,0,,,,
,6146803aa756e3ec52f64a89,001,2022-04-28_19h14.25.569,classification_task,2021.2.3,Win32,59.68367651,6146803aa756e3ec52f64a89,626b377229c10585ec392f8a,626b3b64e3fbd43542785a36,,,,,,,,,,,,,,,,,,,,,,,,,,,,,,,,,,,,,,,,,,,,,,,,,,,,,I can rely on the aid to do its best every time I take its advice,,0.7,0,3,883.0405,0,0,0,0,1,0,,,,
,6146803aa756e3ec52f64a89,001,2022-04-28_19h14.25.569,classification_task,2021.2.3,Win32,59.68367651,6146803aa756e3ec52f64a89,626b377229c10585ec392f8a,626b3b64e3fbd43542785a36,,,,,,,,,,,,,,,,,,,,,,,,,,,,,,,,,,,,,,,,,,,,,,,,,,,,,"On trials you completed with assistance from the aid, how frequently did you think the aid was correct?",,0.7,0,very frequently,,0,0,0,0,1,0,,,,
,6146803aa756e3ec52f64a89,001,2022-04-28_19h14.25.569,classification_task,2021.2.3,Win32,59.68367651,6146803aa756e3ec52f64a89,626b377229c10585ec392f8a,626b3b64e3fbd43542785a36,,,,,,,,,,,,,,,,,,,,,,,,,,,,,,,,,,,,,,,,,,,,,,,,,,,,,"On trials you completed without the aid, how frequently did you think you were correct?",,0.7,0,much less frequent,,0,0,0,0,1,0,,,,
,6146803aa756e3ec52f64a89,001,2022-04-28_19h14.25.569,classification_task,2021.2.3,Win32,59.68367651,6146803aa756e3ec52f64a89,626b377229c10585ec392f8a,626b3b64e3fbd43542785a36,,,,,,,,,,,,,,,,,,,,,,,,,,,,,,,,,,,,,,,,,,,,,,,,,,,,,,,,,,,0,0,0,0,1,,,,,
,6146803aa756e3ec52f64a89,001,2022-04-28_19h14.25.569,classification_task,2021.2.3,Win32,59.68367651,6146803aa756e3ec52f64a89,626b377229c10585ec392f8a,626b3b64e3fbd43542785a36,,,,,,,,,,,,,,,,,,,,,,,,,,,,,,,,,,,,,,,,,,,,,,,,,,,,,,,,,,,,,,,,,space,8.4701,919.9347,
,6146803aa756e3ec52f64a89,001,2022-04-28_19h14.25.569,classification_task,2021.2.3,Win32,59.68367651,6146803aa756e3ec52f64a89,626b377229c10585ec392f8a,626b3b64e3fbd43542785a36,,,,,,,,,,,,,,,,,,,,,,,,,,,,,,,,,,,,,,,,,,,,,,,,,,,,,,,,,,,,,,,,,,,,"Mozilla/5.0 (Windows NT 10.0; Win64; x64) AppleWebKit/537.36 (KHTML, like Gecko) Chrome/101.0.4951.41 Safari/537.36"
