usingWebGL,participant,session,date,expName,psychopyVersion,OS,frameRate,PROLIFIC_PID,STUDY_ID,SESSION_ID,signatures_friend,signatures_foe,band_ranges_top,band_ranges_bottom,formitemText,formtype,formundefined,formitemWidth,formindex,formresponse,formrt,key_resp_2.keys,key_resp_2.rt,tute_resp.keys,tute_resp.rt,tutorial.thisRepN,tutorial.thisTrialN,tutorial.thisN,tutorial.thisIndex,tutorial.ran,key_resp_4.keys,key_resp_4.rt,key_resp.keys,key_resp.corr,key_resp.rt,lines_presented,is_signal_presented,trials.thisRepN,trials.thisTrialN,trials.thisN,trials.thisIndex,trials.ran,vessel,active_band,lines,is_signal,supported_pos,catch_trial,debrief_formindex,debrief_formitemText,debrief_formtype,debrief_formitemWidth,debrief_formresponse,debrief_formrt,phases.thisRepN,phases.thisTrialN,phases.thisN,phases.thisIndex,phases.ran,phases.order,phase,key_resp_3.keys,trustitemText,trusttype,trustitemWidth,trustindex,trustresponse,trustrt,support_status.thisRepN,support_status.thisTrialN,support_status.thisN,support_status.thisIndex,support_status.ran,support_status.order,key_resp_5.keys,key_resp_5.rt,globalClockTime,userAgent
TRUE,6147974c3f998d226b9a11be,001,2022-04-28_20h12.41.000,classification_task,2021.2.3,MacIntel,60.0024001,6147974c3f998d226b9a11be,626b377229c10585ec392f8a,626b3b681008a24f06614200,,,,,,,,,,,,,,,,,,,,,,,,,,,,,,,,,,,,,,,,,,,,,,,,,,,,,,,,,,,,,,,,,,,,
,6147974c3f998d226b9a11be,001,2022-04-28_20h12.41.000,classification_task,2021.2.3,MacIntel,60.0024001,6147974c3f998d226b9a11be,626b377229c10585ec392f8a,626b3b681008a24f06614200,"[[""0.186"",""0.398"",""0.624"",""0.933""],[""0.233"",""0.476"",""0.721"",""0.972""]]","[[""0.150"",""0.354"",""0.534"",""0.785""],[""0.082"",""0.309"",""0.588"",""0.841""]]","[1,10]","[100,1000]",Video game experience,,,0.7,0,,,,,,,,,,,,,,,,,,,,,,,,,,,,,,,,,,,,,,,,,,,,,,,,,,,,,,,,,,,
,6147974c3f998d226b9a11be,001,2022-04-28_20h12.41.000,classification_task,2021.2.3,MacIntel,60.0024001,6147974c3f998d226b9a11be,626b377229c10585ec392f8a,626b3b681008a24f06614200,,,,,Approximately how many hours did you spend playing video games in the last week?,,,0.7,0,0,,,,,,,,,,,,,,,,,,,,,,,,,,,,,,,,,,,,,,,,,,,,,,,,,,,,,,,,,,
,6147974c3f998d226b9a11be,001,2022-04-28_20h12.41.000,classification_task,2021.2.3,MacIntel,60.0024001,6147974c3f998d226b9a11be,626b377229c10585ec392f8a,626b3b681008a24f06614200,,,,,"Which game did you play the most this year? (Enter ""None"" if you didn't play any)",,,0.7,0,none,,,,,,,,,,,,,,,,,,,,,,,,,,,,,,,,,,,,,,,,,,,,,,,,,,,,,,,,,,
,6147974c3f998d226b9a11be,001,2022-04-28_20h12.41.000,classification_task,2021.2.3,MacIntel,60.0024001,6147974c3f998d226b9a11be,626b377229c10585ec392f8a,626b3b681008a24f06614200,,,,,Visual perception,,,0.7,0,,,,,,,,,,,,,,,,,,,,,,,,,,,,,,,,,,,,,,,,,,,,,,,,,,,,,,,,,,,
,6147974c3f998d226b9a11be,001,2022-04-28_20h12.41.000,classification_task,2021.2.3,MacIntel,60.0024001,6147974c3f998d226b9a11be,626b377229c10585ec392f8a,626b3b681008a24f06614200,,,,,Do you have any form of color blindness?,,,0.7,0,No,19.1025,,,,,,,,,,,,,,,,,,,,,,,,,,,,,,,,,,,,,,,,,,,,,,,,,,,,,,,,,
,6147974c3f998d226b9a11be,001,2022-04-28_20h12.41.000,classification_task,2021.2.3,MacIntel,60.0024001,6147974c3f998d226b9a11be,626b377229c10585ec392f8a,626b3b681008a24f06614200,,,,,Do you use software to change the colour temperature of your screen (e.g. f.lux)?,,,0.7,0,No,24.835,,,,,,,,,,,,,,,,,,,,,,,,,,,,,,,,,,,,,,,,,,,,,,,,,,,,,,,,,
,6147974c3f998d226b9a11be,001,2022-04-28_20h12.41.000,classification_task,2021.2.3,MacIntel,60.0024001,6147974c3f998d226b9a11be,626b377229c10585ec392f8a,626b3b681008a24f06614200,,,,,,,,,,,,space,27.3378,space,7.3626,0,0,0,0,1,,,,,,,,,,,,,,,,,,,,,,,,,,,,,,,,,,,,,,,,,,,,,,,,
,6147974c3f998d226b9a11be,001,2022-04-28_20h12.41.000,classification_task,2021.2.3,MacIntel,60.0024001,6147974c3f998d226b9a11be,626b377229c10585ec392f8a,626b3b681008a24f06614200,,,,,,,,,,,,,,space,5.5005,1,0,1,0,1,,,,,,,,,,,,,,,,,,,,,,,,,,,,,,,,,,,,,,,,,,,,,,,,
,6147974c3f998d226b9a11be,001,2022-04-28_20h12.41.000,classification_task,2021.2.3,MacIntel,60.0024001,6147974c3f998d226b9a11be,626b377229c10585ec392f8a,626b3b681008a24f06614200,,,,,,,,,,,,,,space,29.5812,2,0,2,0,1,,,,,,,,,,,,,,,,,,,,,,,,,,,,,,,,,,,,,,,,,,,,,,,,
,6147974c3f998d226b9a11be,001,2022-04-28_20h12.41.000,classification_task,2021.2.3,MacIntel,60.0024001,6147974c3f998d226b9a11be,626b377229c10585ec392f8a,626b3b681008a24f06614200,,,,,,,,,,,,,,space,17.5623,3,0,3,0,1,,,,,,,,,,,,,,,,,,,,,,,,,,,,,,,,,,,,,,,,,,,,,,,,
,6147974c3f998d226b9a11be,001,2022-04-28_20h12.41.000,classification_task,2021.2.3,MacIntel,60.0024001,6147974c3f998d226b9a11be,626b377229c10585ec392f8a,626b3b681008a24f06614200,,,,,,,,,,,,,,space,10.5867,4,0,4,0,1,,,,,,,,,,,,,,,,,,,,,,,,,,,,,,,,,,,,,,,,,,,,,,,,
,6147974c3f998d226b9a11be,001,2022-04-28_20h12.41.000,classification_task,2021.2.3,MacIntel,60.0024001,6147974c3f998d226b9a11be,626b377229c10585ec392f8a,626b3b681008a24f06614200,,,,,,,,,,,,,,,,,,,,,space,13.805,a,1,3.0431,"[""0.233"",""0.660"",""0.721"",""0.972""]","[1,0,1,1]",0,0,0,0,1,0,1,,,0,FALSE,,,,,,,,,,,,,,,,,,,,,,,,,,,,,,
,6147974c3f998d226b9a11be,001,2022-04-28_20h12.41.000,classification_task,2021.2.3,MacIntel,60.0024001,6147974c3f998d226b9a11be,626b377229c10585ec392f8a,626b3b681008a24f06614200,,,,,,,,,,,,,,,,,,,,,,,l,1,5.5537,"[""0.150"",""0.354"",""0.432"",""0.785""]","[1,1,0,1]",0,1,1,1,1,1,0,,,0,FALSE,,,,,,,,,,,,,,,,,,,,,,,,,,,,,,
,6147974c3f998d226b9a11be,001,2022-04-28_20h12.41.000,classification_task,2021.2.3,MacIntel,60.0024001,6147974c3f998d226b9a11be,626b377229c10585ec392f8a,626b3b681008a24f06614200,,,,,,,,,,,,,,,,,,,,,,,l,1,4.3277,"[""0.082"",""0.309"",""0.588"",""0.432""]","[1,1,1,0]",0,2,2,2,1,1,1,,,0,FALSE,,,,,,,,,,,,,,,,,,,,,,,,,,,,,,
,6147974c3f998d226b9a11be,001,2022-04-28_20h12.41.000,classification_task,2021.2.3,MacIntel,60.0024001,6147974c3f998d226b9a11be,626b377229c10585ec392f8a,626b3b681008a24f06614200,,,,,,,,,,,,,,,,,,,,,,,,0,,"[""0.186"",""0.660"",""0.624"",""0.933""]","[1,0,1,1]",0,3,3,3,1,0,0,,,0,FALSE,,,,,,,,,,,,,,,,,,,,,,,,,,,,,,
,6147974c3f998d226b9a11be,001,2022-04-28_20h12.41.000,classification_task,2021.2.3,MacIntel,60.0024001,6147974c3f998d226b9a11be,626b377229c10585ec392f8a,626b3b681008a24f06614200,,,,,,,,,,,,,,,,,,,,,,,l,1,3.6246,"[""0.890"",""0.354"",""0.534"",""0.785""]","[0,1,1,1]",0,4,4,4,1,1,0,,,0,FALSE,,,,,,,,,,,,,,,,,,,,,,,,,,,,,,
,6147974c3f998d226b9a11be,001,2022-04-28_20h12.41.000,classification_task,2021.2.3,MacIntel,60.0024001,6147974c3f998d226b9a11be,626b377229c10585ec392f8a,626b3b681008a24f06614200,,,,,,,,,,,,,,,,,,,,,,,l,0,2.905,"[""0.040"",""0.476"",""0.721"",""0.972""]","[0,1,1,1]",0,5,5,5,1,0,1,,,0,FALSE,,,,,,,,,,,,,,,,,,,,,,,,,,,,,,
,6147974c3f998d226b9a11be,001,2022-04-28_20h12.41.000,classification_task,2021.2.3,MacIntel,60.0024001,6147974c3f998d226b9a11be,626b377229c10585ec392f8a,626b3b681008a24f06614200,,,,,,,,,,,,,,,,,,,,,,,l,1,5.1285,"[""0.082"",""0.040"",""0.588"",""0.841""]","[1,0,1,1]",0,6,6,6,1,1,1,,,0,FALSE,,,,,,,,,,,,,,,,,,,,,,,,,,,,,,
,6147974c3f998d226b9a11be,001,2022-04-28_20h12.41.000,classification_task,2021.2.3,MacIntel,60.0024001,6147974c3f998d226b9a11be,626b377229c10585ec392f8a,626b3b681008a24f06614200,,,,,,,,,,,,,,,,,,,,,,,l,1,5.2904,"[""0.150"",""0.354"",""0.534"",""0.881""]","[1,1,1,0]",0,7,7,7,1,1,0,,,0,FALSE,,,,,,,,,,,,,,,,,,,,,,,,,,,,,,
,6147974c3f998d226b9a11be,001,2022-04-28_20h12.41.000,classification_task,2021.2.3,MacIntel,60.0024001,6147974c3f998d226b9a11be,626b377229c10585ec392f8a,626b3b681008a24f06614200,,,,,,,,,,,,,,,,,,,,,,,l,1,2.3199,"[""0.082"",""0.309"",""0.660"",""0.841""]","[1,1,0,1]",0,8,8,8,1,1,1,,,0,FALSE,,,,,,,,,,,,,,,,,,,,,,,,,,,,,,
,6147974c3f998d226b9a11be,001,2022-04-28_20h12.41.000,classification_task,2021.2.3,MacIntel,60.0024001,6147974c3f998d226b9a11be,626b377229c10585ec392f8a,626b3b681008a24f06614200,,,,,,,,,,,,,,,,,,,,,,,a,0,5.4047,"[""0.150"",""0.890"",""0.534"",""0.785""]","[1,0,1,1]",0,9,9,9,1,1,0,,,0,FALSE,,,,,,,,,,,,,,,,,,,,,,,,,,,,,,
,6147974c3f998d226b9a11be,001,2022-04-28_20h12.41.000,classification_task,2021.2.3,MacIntel,60.0024001,6147974c3f998d226b9a11be,626b377229c10585ec392f8a,626b3b681008a24f06614200,,,,,,,,,,,,,,,,,,,,,,,l,1,9.7117,"[""0.881"",""0.309"",""0.588"",""0.841""]","[0,1,1,1]",0,10,10,10,1,1,1,,,0,FALSE,,,,,,,,,,,,,,,,,,,,,,,,,,,,,,
,6147974c3f998d226b9a11be,001,2022-04-28_20h12.41.000,classification_task,2021.2.3,MacIntel,60.0024001,6147974c3f998d226b9a11be,626b377229c10585ec392f8a,626b3b681008a24f06614200,,,,,,,,,,,,,,,,,,,,,,,l,0,5.7796,"[""0.233"",""0.476"",""0.721"",""0.432""]","[1,1,1,0]",0,11,11,11,1,0,1,,,0,FALSE,,,,,,,,,,,,,,,,,,,,,,,,,,,,,,
,6147974c3f998d226b9a11be,001,2022-04-28_20h12.41.000,classification_task,2021.2.3,MacIntel,60.0024001,6147974c3f998d226b9a11be,626b377229c10585ec392f8a,626b3b681008a24f06614200,,,,,,,,,,,,,,,,,,,,,,,a,1,8.8253,"[""0.186"",""0.398"",""0.890"",""0.933""]","[1,1,0,1]",0,12,12,12,1,0,0,,,0,FALSE,,,,,,,,,,,,,,,,,,,,,,,,,,,,,,
,6147974c3f998d226b9a11be,001,2022-04-28_20h12.41.000,classification_task,2021.2.3,MacIntel,60.0024001,6147974c3f998d226b9a11be,626b377229c10585ec392f8a,626b3b681008a24f06614200,,,,,,,,,,,,,,,,,,,,,,,a,1,5.9096,"[""0.434"",""0.398"",""0.624"",""0.933""]","[0,1,1,1]",0,13,13,13,1,0,0,,,0,FALSE,,,,,,,,,,,,,,,,,,,,,,,,,,,,,,
,6147974c3f998d226b9a11be,001,2022-04-28_20h12.41.000,classification_task,2021.2.3,MacIntel,60.0024001,6147974c3f998d226b9a11be,626b377229c10585ec392f8a,626b3b681008a24f06614200,,,,,,,,,,,,,,,,,,,,,,,a,1,2.2173,"[""0.233"",""0.476"",""0.270"",""0.972""]","[1,1,0,1]",0,14,14,14,1,0,1,,,0,FALSE,,,,,,,,,,,,,,,,,,,,,,,,,,,,,,
,6147974c3f998d226b9a11be,001,2022-04-28_20h12.41.000,classification_task,2021.2.3,MacIntel,60.0024001,6147974c3f998d226b9a11be,626b377229c10585ec392f8a,626b3b681008a24f06614200,,,,,,,,,,,,,,,,,,,,,,,a,1,2.6372,"[""0.186"",""0.398"",""0.624"",""0.432""]","[1,1,1,0]",0,15,15,15,1,0,0,,,0,FALSE,,,,,,,,,,,,,,,,,,,,,,,,,,,,,,
,6147974c3f998d226b9a11be,001,2022-04-28_20h12.41.000,classification_task,2021.2.3,MacIntel,60.0024001,6147974c3f998d226b9a11be,626b377229c10585ec392f8a,626b3b681008a24f06614200,,,,,,,,,,,,,,,,,,,,,,,l,1,2.0722,"[""0.150"",""0.354"",""0.432"",""0.785""]","[1,1,0,1]",0,16,16,16,1,1,0,,,0,FALSE,,,,,,,,,,,,,,,,,,,,,,,,,,,,,,
,6147974c3f998d226b9a11be,001,2022-04-28_20h12.41.000,classification_task,2021.2.3,MacIntel,60.0024001,6147974c3f998d226b9a11be,626b377229c10585ec392f8a,626b3b681008a24f06614200,,,,,,,,,,,,,,,,,,,,,,,a,0,3.7811,"[""0.082"",""0.309"",""0.660"",""0.841""]","[1,1,0,1]",0,17,17,17,1,1,1,,,0,FALSE,,,,,,,,,,,,,,,,,,,,,,,,,,,,,,
,6147974c3f998d226b9a11be,001,2022-04-28_20h12.41.000,classification_task,2021.2.3,MacIntel,60.0024001,6147974c3f998d226b9a11be,626b377229c10585ec392f8a,626b3b681008a24f06614200,,,,,,,,,,,,,,,,,,,,,,,l,1,3.6413,"[""0.432"",""0.309"",""0.588"",""0.841""]","[0,1,1,1]",0,18,18,18,1,1,1,,,0,FALSE,,,,,,,,,,,,,,,,,,,,,,,,,,,,,,
,6147974c3f998d226b9a11be,001,2022-04-28_20h12.41.000,classification_task,2021.2.3,MacIntel,60.0024001,6147974c3f998d226b9a11be,626b377229c10585ec392f8a,626b3b681008a24f06614200,,,,,,,,,,,,,,,,,,,,,,,l,1,2.6924,"[""0.270"",""0.354"",""0.534"",""0.785""]","[0,1,1,1]",0,19,19,19,1,1,0,,,0,FALSE,,,,,,,,,,,,,,,,,,,,,,,,,,,,,,
,6147974c3f998d226b9a11be,001,2022-04-28_20h12.41.000,classification_task,2021.2.3,MacIntel,60.0024001,6147974c3f998d226b9a11be,626b377229c10585ec392f8a,626b3b681008a24f06614200,,,,,,,,,,,,,,,,,,,,,,,a,1,2.9961,"[""0.233"",""0.476"",""0.432"",""0.972""]","[1,1,0,1]",0,20,20,20,1,0,1,,,0,FALSE,,,,,,,,,,,,,,,,,,,,,,,,,,,,,,
,6147974c3f998d226b9a11be,001,2022-04-28_20h12.41.000,classification_task,2021.2.3,MacIntel,60.0024001,6147974c3f998d226b9a11be,626b377229c10585ec392f8a,626b3b681008a24f06614200,,,,,,,,,,,,,,,,,,,,,,,l,1,2.8951,"[""0.082"",""0.040"",""0.588"",""0.841""]","[1,0,1,1]",0,21,21,21,1,1,1,,,0,FALSE,,,,,,,,,,,,,,,,,,,,,,,,,,,,,,
,6147974c3f998d226b9a11be,001,2022-04-28_20h12.41.000,classification_task,2021.2.3,MacIntel,60.0024001,6147974c3f998d226b9a11be,626b377229c10585ec392f8a,626b3b681008a24f06614200,,,,,,,,,,,,,,,,,,,,,,,a,1,3.9519,"[""0.186"",""0.398"",""0.888"",""0.933""]","[1,1,0,1]",0,22,22,22,1,0,0,,,0,FALSE,,,,,,,,,,,,,,,,,,,,,,,,,,,,,,
,6147974c3f998d226b9a11be,001,2022-04-28_20h12.41.000,classification_task,2021.2.3,MacIntel,60.0024001,6147974c3f998d226b9a11be,626b377229c10585ec392f8a,626b3b681008a24f06614200,,,,,,,,,,,,,,,,,,,,,,,a,1,2.8694,"[""0.233"",""0.885"",""0.721"",""0.972""]","[1,0,1,1]",0,23,23,23,1,0,1,,,0,FALSE,,,,,,,,,,,,,,,,,,,,,,,,,,,,,,
,6147974c3f998d226b9a11be,001,2022-04-28_20h12.41.000,classification_task,2021.2.3,MacIntel,60.0024001,6147974c3f998d226b9a11be,626b377229c10585ec392f8a,626b3b681008a24f06614200,,,,,,,,,,,,,,,,,,,,,,,a,1,1.8665,"[""0.660"",""0.476"",""0.721"",""0.972""]","[0,1,1,1]",0,24,24,24,1,0,1,,,0,FALSE,,,,,,,,,,,,,,,,,,,,,,,,,,,,,,
,6147974c3f998d226b9a11be,001,2022-04-28_20h12.41.000,classification_task,2021.2.3,MacIntel,60.0024001,6147974c3f998d226b9a11be,626b377229c10585ec392f8a,626b3b681008a24f06614200,,,,,,,,,,,,,,,,,,,,,,,l,1,5.2479,"[""0.082"",""0.309"",""0.588"",""0.890""]","[1,1,1,0]",0,25,25,25,1,1,1,,,0,FALSE,,,,,,,,,,,,,,,,,,,,,,,,,,,,,,
,6147974c3f998d226b9a11be,001,2022-04-28_20h12.41.000,classification_task,2021.2.3,MacIntel,60.0024001,6147974c3f998d226b9a11be,626b377229c10585ec392f8a,626b3b681008a24f06614200,,,,,,,,,,,,,,,,,,,,,,,l,1,2.3662,"[""0.150"",""0.434"",""0.534"",""0.785""]","[1,0,1,1]",0,26,26,26,1,1,0,,,0,FALSE,,,,,,,,,,,,,,,,,,,,,,,,,,,,,,
,6147974c3f998d226b9a11be,001,2022-04-28_20h12.41.000,classification_task,2021.2.3,MacIntel,60.0024001,6147974c3f998d226b9a11be,626b377229c10585ec392f8a,626b3b681008a24f06614200,,,,,,,,,,,,,,,,,,,,,,,a,1,2.7331,"[""0.892"",""0.398"",""0.624"",""0.933""]","[0,1,1,1]",0,27,27,27,1,0,0,,,0,FALSE,,,,,,,,,,,,,,,,,,,,,,,,,,,,,,
,6147974c3f998d226b9a11be,001,2022-04-28_20h12.41.000,classification_task,2021.2.3,MacIntel,60.0024001,6147974c3f998d226b9a11be,626b377229c10585ec392f8a,626b3b681008a24f06614200,,,,,,,,,,,,,,,,,,,,,,,a,1,2.0597,"[""0.186"",""0.040"",""0.624"",""0.933""]","[1,0,1,1]",0,28,28,28,1,0,0,,,0,FALSE,,,,,,,,,,,,,,,,,,,,,,,,,,,,,,
,6147974c3f998d226b9a11be,001,2022-04-28_20h12.41.000,classification_task,2021.2.3,MacIntel,60.0024001,6147974c3f998d226b9a11be,626b377229c10585ec392f8a,626b3b681008a24f06614200,,,,,,,,,,,,,,,,,,,,,,,l,1,2.3543,"[""0.150"",""0.354"",""0.534"",""0.032""]","[1,1,1,0]",0,29,29,29,1,1,0,,,0,FALSE,,,,,,,,,,,,,,,,,,,,,,,,,,,,,,
,6147974c3f998d226b9a11be,001,2022-04-28_20h12.41.000,classification_task,2021.2.3,MacIntel,60.0024001,6147974c3f998d226b9a11be,626b377229c10585ec392f8a,626b3b681008a24f06614200,,,,,,,,,,,,,,,,,,,,,,,l,0,6.3565,"[""0.233"",""0.476"",""0.721"",""0.892""]","[1,1,1,0]",0,30,30,30,1,0,1,,,0,FALSE,,,,,,,,,,,,,,,,,,,,,,,,,,,,,,
,6147974c3f998d226b9a11be,001,2022-04-28_20h12.41.000,classification_task,2021.2.3,MacIntel,60.0024001,6147974c3f998d226b9a11be,626b377229c10585ec392f8a,626b3b681008a24f06614200,,,,,,,,,,,,,,,,,,,,,,,a,1,7.4319,"[""0.186"",""0.398"",""0.624"",""0.665""]","[1,1,1,0]",0,31,31,31,1,0,0,,,0,FALSE,,,,,,,,,,,,,,,,,,,,,,,,,,,,,,
,6147974c3f998d226b9a11be,001,2022-04-28_20h12.41.000,classification_task,2021.2.3,MacIntel,60.0024001,6147974c3f998d226b9a11be,626b377229c10585ec392f8a,626b3b681008a24f06614200,,,,,,,,,,,,,,,,,,,,,,,a,1,4.0327,"[""0.233"",""0.476"",""0.721"",""0.892""]","[1,1,1,0]",0,32,32,32,1,0,1,,,0,FALSE,,,,,,,,,,,,,,,,,,,,,,,,,,,,,,
,6147974c3f998d226b9a11be,001,2022-04-28_20h12.41.000,classification_task,2021.2.3,MacIntel,60.0024001,6147974c3f998d226b9a11be,626b377229c10585ec392f8a,626b3b681008a24f06614200,,,,,,,,,,,,,,,,,,,,,,,a,1,2.3811,"[""0.186"",""0.398"",""0.046"",""0.933""]","[1,1,0,1]",0,33,33,33,1,0,0,,,0,FALSE,,,,,,,,,,,,,,,,,,,,,,,,,,,,,,
,6147974c3f998d226b9a11be,001,2022-04-28_20h12.41.000,classification_task,2021.2.3,MacIntel,60.0024001,6147974c3f998d226b9a11be,626b377229c10585ec392f8a,626b3b681008a24f06614200,,,,,,,,,,,,,,,,,,,,,,,l,0,1.3434,"[""0.233"",""0.476"",""0.432"",""0.972""]","[1,1,0,1]",0,34,34,34,1,0,1,,,0,FALSE,,,,,,,,,,,,,,,,,,,,,,,,,,,,,,
,6147974c3f998d226b9a11be,001,2022-04-28_20h12.41.000,classification_task,2021.2.3,MacIntel,60.0024001,6147974c3f998d226b9a11be,626b377229c10585ec392f8a,626b3b681008a24f06614200,,,,,,,,,,,,,,,,,,,,,,,a,0,1.05,"[""0.082"",""0.309"",""0.588"",""0.890""]","[1,1,1,0]",0,35,35,35,1,1,1,,,0,FALSE,,,,,,,,,,,,,,,,,,,,,,,,,,,,,,
,6147974c3f998d226b9a11be,001,2022-04-28_20h12.41.000,classification_task,2021.2.3,MacIntel,60.0024001,6147974c3f998d226b9a11be,626b377229c10585ec392f8a,626b3b681008a24f06614200,,,,,,,,,,,,,,,,,,,,,,,l,1,1.3462,"[""0.660"",""0.354"",""0.534"",""0.785""]","[0,1,1,1]",0,36,36,36,1,1,0,,,0,FALSE,,,,,,,,,,,,,,,,,,,,,,,,,,,,,,
,6147974c3f998d226b9a11be,001,2022-04-28_20h12.41.000,classification_task,2021.2.3,MacIntel,60.0024001,6147974c3f998d226b9a11be,626b377229c10585ec392f8a,626b3b681008a24f06614200,,,,,,,,,,,,,,,,,,,,,,,a,1,1.549,"[""0.270"",""0.476"",""0.721"",""0.972""]","[0,1,1,1]",0,37,37,37,1,0,1,,,0,FALSE,,,,,,,,,,,,,,,,,,,,,,,,,,,,,,
,6147974c3f998d226b9a11be,001,2022-04-28_20h12.41.000,classification_task,2021.2.3,MacIntel,60.0024001,6147974c3f998d226b9a11be,626b377229c10585ec392f8a,626b3b681008a24f06614200,,,,,,,,,,,,,,,,,,,,,,,a,0,1.8609,"[""0.434"",""0.309"",""0.588"",""0.841""]","[0,1,1,1]",0,38,38,38,1,1,1,,,0,FALSE,,,,,,,,,,,,,,,,,,,,,,,,,,,,,,
,6147974c3f998d226b9a11be,001,2022-04-28_20h12.41.000,classification_task,2021.2.3,MacIntel,60.0024001,6147974c3f998d226b9a11be,626b377229c10585ec392f8a,626b3b681008a24f06614200,,,,,,,,,,,,,,,,,,,,,,,a,0,2.2251,"[""0.150"",""0.354"",""0.046"",""0.785""]","[1,1,0,1]",0,39,39,39,1,1,0,,,0,FALSE,,,,,,,,,,,,,,,,,,,,,,,,,,,,,,
,6147974c3f998d226b9a11be,001,2022-04-28_20h12.41.000,classification_task,2021.2.3,MacIntel,60.0024001,6147974c3f998d226b9a11be,626b377229c10585ec392f8a,626b3b681008a24f06614200,,,,,,,,,,,,,,,,,,,,,,,a,0,1.6467,"[""0.082"",""0.309"",""0.674"",""0.841""]","[1,1,0,1]",0,40,40,40,1,1,1,,,0,FALSE,,,,,,,,,,,,,,,,,,,,,,,,,,,,,,
,6147974c3f998d226b9a11be,001,2022-04-28_20h12.41.000,classification_task,2021.2.3,MacIntel,60.0024001,6147974c3f998d226b9a11be,626b377229c10585ec392f8a,626b3b681008a24f06614200,,,,,,,,,,,,,,,,,,,,,,,l,0,1.4538,"[""0.186"",""0.398"",""0.624"",""0.888""]","[1,1,1,0]",0,41,41,41,1,0,0,,,0,FALSE,,,,,,,,,,,,,,,,,,,,,,,,,,,,,,
,6147974c3f998d226b9a11be,001,2022-04-28_20h12.41.000,classification_task,2021.2.3,MacIntel,60.0024001,6147974c3f998d226b9a11be,626b377229c10585ec392f8a,626b3b681008a24f06614200,,,,,,,,,,,,,,,,,,,,,,,a,1,1.5689,"[""0.888"",""0.398"",""0.624"",""0.933""]","[0,1,1,1]",0,42,42,42,1,0,0,,,0,FALSE,,,,,,,,,,,,,,,,,,,,,,,,,,,,,,
,6147974c3f998d226b9a11be,001,2022-04-28_20h12.41.000,classification_task,2021.2.3,MacIntel,60.0024001,6147974c3f998d226b9a11be,626b377229c10585ec392f8a,626b3b681008a24f06614200,,,,,,,,,,,,,,,,,,,,,,,a,1,1.7023,"[""0.233"",""0.665"",""0.721"",""0.972""]","[1,0,1,1]",0,43,43,43,1,0,1,,,0,FALSE,,,,,,,,,,,,,,,,,,,,,,,,,,,,,,
,6147974c3f998d226b9a11be,001,2022-04-28_20h12.41.000,classification_task,2021.2.3,MacIntel,60.0024001,6147974c3f998d226b9a11be,626b377229c10585ec392f8a,626b3b681008a24f06614200,,,,,,,,,,,,,,,,,,,,,,,a,1,1.2907,"[""0.186"",""0.881"",""0.624"",""0.933""]","[1,0,1,1]",0,44,44,44,1,0,0,,,0,FALSE,,,,,,,,,,,,,,,,,,,,,,,,,,,,,,
,6147974c3f998d226b9a11be,001,2022-04-28_20h12.41.000,classification_task,2021.2.3,MacIntel,60.0024001,6147974c3f998d226b9a11be,626b377229c10585ec392f8a,626b3b681008a24f06614200,,,,,,,,,,,,,,,,,,,,,,,a,0,1.4591,"[""0.082"",""0.032"",""0.588"",""0.841""]","[1,0,1,1]",0,45,45,45,1,1,1,,,0,FALSE,,,,,,,,,,,,,,,,,,,,,,,,,,,,,,
,6147974c3f998d226b9a11be,001,2022-04-28_20h12.41.000,classification_task,2021.2.3,MacIntel,60.0024001,6147974c3f998d226b9a11be,626b377229c10585ec392f8a,626b3b681008a24f06614200,,,,,,,,,,,,,,,,,,,,,,,l,1,1.1507,"[""0.150"",""0.270"",""0.534"",""0.785""]","[1,0,1,1]",0,46,46,46,1,1,0,,,0,FALSE,,,,,,,,,,,,,,,,,,,,,,,,,,,,,,
,6147974c3f998d226b9a11be,001,2022-04-28_20h12.41.000,classification_task,2021.2.3,MacIntel,60.0024001,6147974c3f998d226b9a11be,626b377229c10585ec392f8a,626b3b681008a24f06614200,,,,,,,,,,,,,,,,,,,,,,,l,1,1.0645,"[""0.150"",""0.354"",""0.534"",""0.032""]","[1,1,1,0]",0,47,47,47,1,1,0,,,0,FALSE,,,,,,,,,,,,,,,,,,,,,,,,,,,,,,
,6147974c3f998d226b9a11be,001,2022-04-28_20h12.41.000,classification_task,2021.2.3,MacIntel,60.0024001,6147974c3f998d226b9a11be,626b377229c10585ec392f8a,626b3b681008a24f06614200,,,,,,,,,,,,,,,,,,,,,,,l,0,2.0212,"[""0.233"",""0.476"",""0.721"",""0.046""]","[1,1,1,0]",0,48,48,48,1,0,1,,,0,FALSE,,,,,,,,,,,,,,,,,,,,,,,,,,,,,,
,6147974c3f998d226b9a11be,001,2022-04-28_20h12.41.000,classification_task,2021.2.3,MacIntel,60.0024001,6147974c3f998d226b9a11be,626b377229c10585ec392f8a,626b3b681008a24f06614200,,,,,,,,,,,,,,,,,,,,,,,a,1,0.9104,"[""0.186"",""0.032"",""0.624"",""0.933""]","[1,0,1,1]",0,49,49,49,1,0,0,,,0,FALSE,,,,,,,,,,,,,,,,,,,,,,,,,,,,,,
,6147974c3f998d226b9a11be,001,2022-04-28_20h12.41.000,classification_task,2021.2.3,MacIntel,60.0024001,6147974c3f998d226b9a11be,626b377229c10585ec392f8a,626b3b681008a24f06614200,,,,,,,,,,,,,,,,,,,,,,,a,0,1.1655,"[""0.150"",""0.354"",""0.885"",""0.785""]","[1,1,0,1]",0,50,50,50,1,1,0,,,0,FALSE,,,,,,,,,,,,,,,,,,,,,,,,,,,,,,
,6147974c3f998d226b9a11be,001,2022-04-28_20h12.41.000,classification_task,2021.2.3,MacIntel,60.0024001,6147974c3f998d226b9a11be,626b377229c10585ec392f8a,626b3b681008a24f06614200,,,,,,,,,,,,,,,,,,,,,,,l,1,0.884,"[""0.082"",""0.309"",""0.588"",""0.434""]","[1,1,1,0]",0,51,51,51,1,1,1,,,0,FALSE,,,,,,,,,,,,,,,,,,,,,,,,,,,,,,
,6147974c3f998d226b9a11be,001,2022-04-28_20h12.41.000,classification_task,2021.2.3,MacIntel,60.0024001,6147974c3f998d226b9a11be,626b377229c10585ec392f8a,626b3b681008a24f06614200,,,,,,,,,,,,,,,,,,,,,,,l,1,0.8663,"[""0.082"",""0.660"",""0.588"",""0.841""]","[1,0,1,1]",0,52,52,52,1,1,1,,,0,FALSE,,,,,,,,,,,,,,,,,,,,,,,,,,,,,,
,6147974c3f998d226b9a11be,001,2022-04-28_20h12.41.000,classification_task,2021.2.3,MacIntel,60.0024001,6147974c3f998d226b9a11be,626b377229c10585ec392f8a,626b3b681008a24f06614200,,,,,,,,,,,,,,,,,,,,,,,l,1,0.6817,"[""0.665"",""0.309"",""0.588"",""0.841""]","[0,1,1,1]",0,53,53,53,1,1,1,,,0,FALSE,,,,,,,,,,,,,,,,,,,,,,,,,,,,,,
,6147974c3f998d226b9a11be,001,2022-04-28_20h12.41.000,classification_task,2021.2.3,MacIntel,60.0024001,6147974c3f998d226b9a11be,626b377229c10585ec392f8a,626b3b681008a24f06614200,,,,,,,,,,,,,,,,,,,,,,,l,1,0.9607,"[""0.892"",""0.354"",""0.534"",""0.785""]","[0,1,1,1]",0,54,54,54,1,1,0,,,0,FALSE,,,,,,,,,,,,,,,,,,,,,,,,,,,,,,
,6147974c3f998d226b9a11be,001,2022-04-28_20h12.41.000,classification_task,2021.2.3,MacIntel,60.0024001,6147974c3f998d226b9a11be,626b377229c10585ec392f8a,626b3b681008a24f06614200,,,,,,,,,,,,,,,,,,,,,,,l,0,0.6307,"[""0.186"",""0.398"",""0.660"",""0.933""]","[1,1,0,1]",0,55,55,55,1,0,0,,,0,FALSE,,,,,,,,,,,,,,,,,,,,,,,,,,,,,,
,6147974c3f998d226b9a11be,001,2022-04-28_20h12.41.000,classification_task,2021.2.3,MacIntel,60.0024001,6147974c3f998d226b9a11be,626b377229c10585ec392f8a,626b3b681008a24f06614200,,,,,,,,,,,,,,,,,,,,,,,a,1,1.5533,"[""0.885"",""0.476"",""0.721"",""0.972""]","[0,1,1,1]",0,56,56,56,1,0,1,,,0,FALSE,,,,,,,,,,,,,,,,,,,,,,,,,,,,,,
,6147974c3f998d226b9a11be,001,2022-04-28_20h12.41.000,classification_task,2021.2.3,MacIntel,60.0024001,6147974c3f998d226b9a11be,626b377229c10585ec392f8a,626b3b681008a24f06614200,,,,,,,,,,,,,,,,,,,,,,,a,1,2.5313,"[""0.186"",""0.398"",""0.624"",""0.660""]","[1,1,1,0]",0,57,57,57,1,0,0,,,0,FALSE,,,,,,,,,,,,,,,,,,,,,,,,,,,,,,
,6147974c3f998d226b9a11be,001,2022-04-28_20h12.41.000,classification_task,2021.2.3,MacIntel,60.0024001,6147974c3f998d226b9a11be,626b377229c10585ec392f8a,626b3b681008a24f06614200,,,,,,,,,,,,,,,,,,,,,,,a,1,1.5888,"[""0.233"",""0.660"",""0.721"",""0.972""]","[1,0,1,1]",0,58,58,58,1,0,1,,,0,FALSE,,,,,,,,,,,,,,,,,,,,,,,,,,,,,,
,6147974c3f998d226b9a11be,001,2022-04-28_20h12.41.000,classification_task,2021.2.3,MacIntel,60.0024001,6147974c3f998d226b9a11be,626b377229c10585ec392f8a,626b3b681008a24f06614200,,,,,,,,,,,,,,,,,,,,,,,a,0,1.1132,"[""0.150"",""0.354"",""0.534"",""0.665""]","[1,1,1,0]",0,59,59,59,1,1,0,,,0,FALSE,,,,,,,,,,,,,,,,,,,,,,,,,,,,,,
,6147974c3f998d226b9a11be,001,2022-04-28_20h12.41.000,classification_task,2021.2.3,MacIntel,60.0024001,6147974c3f998d226b9a11be,626b377229c10585ec392f8a,626b3b681008a24f06614200,,,,,,,,,,,,,,,,,,,,,,,l,0,1.0054,"[""0.674"",""0.398"",""0.624"",""0.933""]","[0,1,1,1]",0,60,60,60,1,0,0,,,0,FALSE,,,,,,,,,,,,,,,,,,,,,,,,,,,,,,
,6147974c3f998d226b9a11be,001,2022-04-28_20h12.41.000,classification_task,2021.2.3,MacIntel,60.0024001,6147974c3f998d226b9a11be,626b377229c10585ec392f8a,626b3b681008a24f06614200,,,,,,,,,,,,,,,,,,,,,,,l,1,0.9513,"[""0.150"",""0.046"",""0.534"",""0.785""]","[1,0,1,1]",0,61,61,61,1,1,0,,,0,FALSE,,,,,,,,,,,,,,,,,,,,,,,,,,,,,,
,6147974c3f998d226b9a11be,001,2022-04-28_20h12.41.000,classification_task,2021.2.3,MacIntel,60.0024001,6147974c3f998d226b9a11be,626b377229c10585ec392f8a,626b3b681008a24f06614200,,,,,,,,,,,,,,,,,,,,,,,a,1,1.4951,"[""0.233"",""0.476"",""0.674"",""0.972""]","[1,1,0,1]",0,62,62,62,1,0,1,,,0,FALSE,,,,,,,,,,,,,,,,,,,,,,,,,,,,,,
,6147974c3f998d226b9a11be,001,2022-04-28_20h12.41.000,classification_task,2021.2.3,MacIntel,60.0024001,6147974c3f998d226b9a11be,626b377229c10585ec392f8a,626b3b681008a24f06614200,,,,,,,,,,,,,,,,,,,,,,,a,0,1.413,"[""0.082"",""0.309"",""0.888"",""0.841""]","[1,1,0,1]",0,63,63,63,1,1,1,,,0,FALSE,,,,,,,,,,,,,,,,,,,,,,,,,,,,,,
,6147974c3f998d226b9a11be,001,2022-04-28_20h12.41.000,classification_task,2021.2.3,MacIntel,60.0024001,6147974c3f998d226b9a11be,626b377229c10585ec392f8a,626b3b681008a24f06614200,,,,,,,,,,,,,,,,,,,,,,,,,,,,,,,,,,,,,,,0, ,,0,10,413.6756,0,0,0,0,1,2,1,,,,,,,,,,,,,,,,,
,6147974c3f998d226b9a11be,001,2022-04-28_20h12.41.000,classification_task,2021.2.3,MacIntel,60.0024001,6147974c3f998d226b9a11be,626b377229c10585ec392f8a,626b3b681008a24f06614200,,,,,,,,,,,,,,,,,,,,,,,,,,,,,,,,,,,,,,,1,  ,,0,9.217742794,428.0376,0,0,0,0,1,2,1,,,,,,,,,,,,,,,,,
,6147974c3f998d226b9a11be,001,2022-04-28_20h12.41.000,classification_task,2021.2.3,MacIntel,60.0024001,6147974c3f998d226b9a11be,626b377229c10585ec392f8a,626b3b681008a24f06614200,,,,,,,,,,,,,,,,,,,,,,,,,,,,,,,,,,,,,,,2,  ,,0,7.873874958,435.565,0,0,0,0,1,2,1,,,,,,,,,,,,,,,,,
,6147974c3f998d226b9a11be,001,2022-04-28_20h12.41.000,classification_task,2021.2.3,MacIntel,60.0024001,6147974c3f998d226b9a11be,626b377229c10585ec392f8a,626b3b681008a24f06614200,,,,,,,,,,,,,,,,,,,,,,,,,,,,,,,,,,,,,,,,,,,,,0,0,0,0,1,,1,,,,,,,,,,,,,,,,,
,6147974c3f998d226b9a11be,001,2022-04-28_20h12.41.000,classification_task,2021.2.3,MacIntel,60.0024001,6147974c3f998d226b9a11be,626b377229c10585ec392f8a,626b3b681008a24f06614200,,,,,,,,,,,,,,,,,,,,,space,302.8875,a,1,5.1952,"[""0.186"",""0.398"",""0.270"",""0.933""]","[1,1,0,1]",0,0,0,0,1,0,0,,,0,FALSE,,,,,,,,,,,,,,,,,,,,,,,,,,,,,,
,6147974c3f998d226b9a11be,001,2022-04-28_20h12.41.000,classification_task,2021.2.3,MacIntel,60.0024001,6147974c3f998d226b9a11be,626b377229c10585ec392f8a,626b3b681008a24f06614200,,,,,,,,,,,,,,,,,,,,,,,l,0,2.1282,"[""0.233"",""0.888"",""0.721"",""0.972""]","[1,0,1,1]",0,1,1,1,1,0,1,,,0,FALSE,,,,,,,,,,,,,,,,,,,,,,,,,,,,,,
,6147974c3f998d226b9a11be,001,2022-04-28_20h12.41.000,classification_task,2021.2.3,MacIntel,60.0024001,6147974c3f998d226b9a11be,626b377229c10585ec392f8a,626b3b681008a24f06614200,,,,,,,,,,,,,,,,,,,,,,,l,1,1.6136,"[""0.150"",""0.354"",""0.534"",""0.434""]","[1,1,1,0]",0,2,2,2,1,1,0,,,0,FALSE,,,,,,,,,,,,,,,,,,,,,,,,,,,,,,
,6147974c3f998d226b9a11be,001,2022-04-28_20h12.41.000,classification_task,2021.2.3,MacIntel,60.0024001,6147974c3f998d226b9a11be,626b377229c10585ec392f8a,626b3b681008a24f06614200,,,,,,,,,,,,,,,,,,,,,,,a,1,0.9173,"[""0.186"",""0.040"",""0.624"",""0.933""]","[1,0,1,1]",0,3,3,3,1,0,0,,,0,FALSE,,,,,,,,,,,,,,,,,,,,,,,,,,,,,,
,6147974c3f998d226b9a11be,001,2022-04-28_20h12.41.000,classification_task,2021.2.3,MacIntel,60.0024001,6147974c3f998d226b9a11be,626b377229c10585ec392f8a,626b3b681008a24f06614200,,,,,,,,,,,,,,,,,,,,,,,l,0,6.0711,"[""0.233"",""0.476"",""0.665"",""0.972""]","[1,1,0,1]",0,4,4,4,1,0,1,,,0,FALSE,,,,,,,,,,,,,,,,,,,,,,,,,,,,,,
,6147974c3f998d226b9a11be,001,2022-04-28_20h12.41.000,classification_task,2021.2.3,MacIntel,60.0024001,6147974c3f998d226b9a11be,626b377229c10585ec392f8a,626b3b681008a24f06614200,,,,,,,,,,,,,,,,,,,,,,,a,1,1.1935,"[""0.046"",""0.398"",""0.624"",""0.933""]","[0,1,1,1]",0,5,5,5,1,0,0,,,0,FALSE,,,,,,,,,,,,,,,,,,,,,,,,,,,,,,
,6147974c3f998d226b9a11be,001,2022-04-28_20h12.41.000,classification_task,2021.2.3,MacIntel,60.0024001,6147974c3f998d226b9a11be,626b377229c10585ec392f8a,626b3b681008a24f06614200,,,,,,,,,,,,,,,,,,,,,,,a,0,5.1059,"[""0.082"",""0.890"",""0.588"",""0.841""]","[1,0,1,1]",0,6,6,6,1,1,1,,,0,FALSE,,,,,,,,,,,,,,,,,,,,,,,,,,,,,,
,6147974c3f998d226b9a11be,001,2022-04-28_20h12.41.000,classification_task,2021.2.3,MacIntel,60.0024001,6147974c3f998d226b9a11be,626b377229c10585ec392f8a,626b3b681008a24f06614200,,,,,,,,,,,,,,,,,,,,,,,l,0,1.2265,"[""0.674"",""0.476"",""0.721"",""0.972""]","[0,1,1,1]",0,7,7,7,1,0,1,,,0,FALSE,,,,,,,,,,,,,,,,,,,,,,,,,,,,,,
,6147974c3f998d226b9a11be,001,2022-04-28_20h12.41.000,classification_task,2021.2.3,MacIntel,60.0024001,6147974c3f998d226b9a11be,626b377229c10585ec392f8a,626b3b681008a24f06614200,,,,,,,,,,,,,,,,,,,,,,,a,1,1.6646,"[""0.233"",""0.476"",""0.721"",""0.885""]","[1,1,1,0]",0,8,8,8,1,0,1,,,0,FALSE,,,,,,,,,,,,,,,,,,,,,,,,,,,,,,
,6147974c3f998d226b9a11be,001,2022-04-28_20h12.41.000,classification_task,2021.2.3,MacIntel,60.0024001,6147974c3f998d226b9a11be,626b377229c10585ec392f8a,626b3b681008a24f06614200,,,,,,,,,,,,,,,,,,,,,,,l,1,1.5899,"[""0.150"",""0.665"",""0.534"",""0.785""]","[1,0,1,1]",0,9,9,9,1,1,0,,,0,FALSE,,,,,,,,,,,,,,,,,,,,,,,,,,,,,,
,6147974c3f998d226b9a11be,001,2022-04-28_20h12.41.000,classification_task,2021.2.3,MacIntel,60.0024001,6147974c3f998d226b9a11be,626b377229c10585ec392f8a,626b3b681008a24f06614200,,,,,,,,,,,,,,,,,,,,,,,a,0,2.6726,"[""0.082"",""0.309"",""0.588"",""0.032""]","[1,1,1,0]",0,10,10,10,1,1,1,,,0,FALSE,,,,,,,,,,,,,,,,,,,,,,,,,,,,,,
,6147974c3f998d226b9a11be,001,2022-04-28_20h12.41.000,classification_task,2021.2.3,MacIntel,60.0024001,6147974c3f998d226b9a11be,626b377229c10585ec392f8a,626b3b681008a24f06614200,,,,,,,,,,,,,,,,,,,,,,,l,1,1.6975,"[""0.674"",""0.354"",""0.534"",""0.785""]","[0,1,1,1]",0,11,11,11,1,1,0,,,0,FALSE,,,,,,,,,,,,,,,,,,,,,,,,,,,,,,
,6147974c3f998d226b9a11be,001,2022-04-28_20h12.41.000,classification_task,2021.2.3,MacIntel,60.0024001,6147974c3f998d226b9a11be,626b377229c10585ec392f8a,626b3b681008a24f06614200,,,,,,,,,,,,,,,,,,,,,,,a,1,0.9569,"[""0.186"",""0.398"",""0.624"",""0.665""]","[1,1,1,0]",0,12,12,12,1,0,0,,,0,FALSE,,,,,,,,,,,,,,,,,,,,,,,,,,,,,,
,6147974c3f998d226b9a11be,001,2022-04-28_20h12.41.000,classification_task,2021.2.3,MacIntel,60.0024001,6147974c3f998d226b9a11be,626b377229c10585ec392f8a,626b3b681008a24f06614200,,,,,,,,,,,,,,,,,,,,,,,a,0,2.2772,"[""0.082"",""0.309"",""0.665"",""0.841""]","[1,1,0,1]",0,13,13,13,1,1,1,,,0,FALSE,,,,,,,,,,,,,,,,,,,,,,,,,,,,,,
,6147974c3f998d226b9a11be,001,2022-04-28_20h12.41.000,classification_task,2021.2.3,MacIntel,60.0024001,6147974c3f998d226b9a11be,626b377229c10585ec392f8a,626b3b681008a24f06614200,,,,,,,,,,,,,,,,,,,,,,,l,1,1.4959,"[""0.432"",""0.309"",""0.588"",""0.841""]","[0,1,1,1]",0,14,14,14,1,1,1,,,0,FALSE,,,,,,,,,,,,,,,,,,,,,,,,,,,,,,
,6147974c3f998d226b9a11be,001,2022-04-28_20h12.41.000,classification_task,2021.2.3,MacIntel,60.0024001,6147974c3f998d226b9a11be,626b377229c10585ec392f8a,626b3b681008a24f06614200,,,,,,,,,,,,,,,,,,,,,,,l,1,1.2203,"[""0.150"",""0.354"",""0.432"",""0.785""]","[1,1,0,1]",0,15,15,15,1,1,0,,,0,FALSE,,,,,,,,,,,,,,,,,,,,,,,,,,,,,,
,6147974c3f998d226b9a11be,001,2022-04-28_20h12.41.000,classification_task,2021.2.3,MacIntel,60.0024001,6147974c3f998d226b9a11be,626b377229c10585ec392f8a,626b3b681008a24f06614200,,,,,,,,,,,,,,,,,,,,,,,l,1,0.9246,"[""0.150"",""0.892"",""0.534"",""0.785""]","[1,0,1,1]",0,16,16,16,1,1,0,,,0,FALSE,,,,,,,,,,,,,,,,,,,,,,,,,,,,,,
,6147974c3f998d226b9a11be,001,2022-04-28_20h12.41.000,classification_task,2021.2.3,MacIntel,60.0024001,6147974c3f998d226b9a11be,626b377229c10585ec392f8a,626b3b681008a24f06614200,,,,,,,,,,,,,,,,,,,,,,,l,1,0.6293,"[""0.150"",""0.354"",""0.534"",""0.041""]","[1,1,1,0]",0,17,17,17,1,1,0,,,0,FALSE,,,,,,,,,,,,,,,,,,,,,,,,,,,,,,
,6147974c3f998d226b9a11be,001,2022-04-28_20h12.41.000,classification_task,2021.2.3,MacIntel,60.0024001,6147974c3f998d226b9a11be,626b377229c10585ec392f8a,626b3b681008a24f06614200,,,,,,,,,,,,,,,,,,,,,,,a,1,3.2533,"[""0.032"",""0.398"",""0.624"",""0.933""]","[0,1,1,1]",0,18,18,18,1,0,0,,,0,FALSE,,,,,,,,,,,,,,,,,,,,,,,,,,,,,,
,6147974c3f998d226b9a11be,001,2022-04-28_20h12.41.000,classification_task,2021.2.3,MacIntel,60.0024001,6147974c3f998d226b9a11be,626b377229c10585ec392f8a,626b3b681008a24f06614200,,,,,,,,,,,,,,,,,,,,,,,a,1,1.1048,"[""0.186"",""0.398"",""0.624"",""0.892""]","[1,1,1,0]",0,19,19,19,1,0,0,,,0,FALSE,,,,,,,,,,,,,,,,,,,,,,,,,,,,,,
,6147974c3f998d226b9a11be,001,2022-04-28_20h12.41.000,classification_task,2021.2.3,MacIntel,60.0024001,6147974c3f998d226b9a11be,626b377229c10585ec392f8a,626b3b681008a24f06614200,,,,,,,,,,,,,,,,,,,,,,,l,1,3.3108,"[""0.082"",""0.665"",""0.588"",""0.841""]","[1,0,1,1]",0,20,20,20,1,1,1,,,0,FALSE,,,,,,,,,,,,,,,,,,,,,,,,,,,,,,
,6147974c3f998d226b9a11be,001,2022-04-28_20h12.41.000,classification_task,2021.2.3,MacIntel,60.0024001,6147974c3f998d226b9a11be,626b377229c10585ec392f8a,626b3b681008a24f06614200,,,,,,,,,,,,,,,,,,,,,,,l,0,3.2748,"[""0.233"",""0.892"",""0.721"",""0.972""]","[1,0,1,1]",0,21,21,21,1,0,1,,,0,FALSE,,,,,,,,,,,,,,,,,,,,,,,,,,,,,,
,6147974c3f998d226b9a11be,001,2022-04-28_20h12.41.000,classification_task,2021.2.3,MacIntel,60.0024001,6147974c3f998d226b9a11be,626b377229c10585ec392f8a,626b3b681008a24f06614200,,,,,,,,,,,,,,,,,,,,,,,l,0,2.1958,"[""0.233"",""0.476"",""0.721"",""0.432""]","[1,1,1,0]",0,22,22,22,1,0,1,,,0,FALSE,,,,,,,,,,,,,,,,,,,,,,,,,,,,,,
,6147974c3f998d226b9a11be,001,2022-04-28_20h12.41.000,classification_task,2021.2.3,MacIntel,60.0024001,6147974c3f998d226b9a11be,626b377229c10585ec392f8a,626b3b681008a24f06614200,,,,,,,,,,,,,,,,,,,,,,,a,0,2.0094,"[""0.082"",""0.309"",""0.660"",""0.841""]","[1,1,0,1]",0,23,23,23,1,1,1,,,0,FALSE,,,,,,,,,,,,,,,,,,,,,,,,,,,,,,
,6147974c3f998d226b9a11be,001,2022-04-28_20h12.41.000,classification_task,2021.2.3,MacIntel,60.0024001,6147974c3f998d226b9a11be,626b377229c10585ec392f8a,626b3b681008a24f06614200,,,,,,,,,,,,,,,,,,,,,,,a,1,1.6338,"[""0.890"",""0.476"",""0.721"",""0.972""]","[0,1,1,1]",0,24,24,24,1,0,1,,,0,FALSE,,,,,,,,,,,,,,,,,,,,,,,,,,,,,,
,6147974c3f998d226b9a11be,001,2022-04-28_20h12.41.000,classification_task,2021.2.3,MacIntel,60.0024001,6147974c3f998d226b9a11be,626b377229c10585ec392f8a,626b3b681008a24f06614200,,,,,,,,,,,,,,,,,,,,,,,a,1,0.9567,"[""0.186"",""0.888"",""0.624"",""0.933""]","[1,0,1,1]",0,25,25,25,1,0,0,,,0,FALSE,,,,,,,,,,,,,,,,,,,,,,,,,,,,,,
,6147974c3f998d226b9a11be,001,2022-04-28_20h12.41.000,classification_task,2021.2.3,MacIntel,60.0024001,6147974c3f998d226b9a11be,626b377229c10585ec392f8a,626b3b681008a24f06614200,,,,,,,,,,,,,,,,,,,,,,,l,1,0.4963,"[""0.150"",""0.354"",""0.885"",""0.785""]","[1,1,0,1]",0,26,26,26,1,1,0,,,0,FALSE,,,,,,,,,,,,,,,,,,,,,,,,,,,,,,
,6147974c3f998d226b9a11be,001,2022-04-28_20h12.41.000,classification_task,2021.2.3,MacIntel,60.0024001,6147974c3f998d226b9a11be,626b377229c10585ec392f8a,626b3b681008a24f06614200,,,,,,,,,,,,,,,,,,,,,,,a,0,1.0369,"[""0.888"",""0.309"",""0.588"",""0.841""]","[0,1,1,1]",0,27,27,27,1,1,1,,,0,FALSE,,,,,,,,,,,,,,,,,,,,,,,,,,,,,,
,6147974c3f998d226b9a11be,001,2022-04-28_20h12.41.000,classification_task,2021.2.3,MacIntel,60.0024001,6147974c3f998d226b9a11be,626b377229c10585ec392f8a,626b3b681008a24f06614200,,,,,,,,,,,,,,,,,,,,,,,a,0,0.6727,"[""0.082"",""0.309"",""0.588"",""0.432""]","[1,1,1,0]",0,28,28,28,1,1,1,,,0,FALSE,,,,,,,,,,,,,,,,,,,,,,,,,,,,,,
,6147974c3f998d226b9a11be,001,2022-04-28_20h12.41.000,classification_task,2021.2.3,MacIntel,60.0024001,6147974c3f998d226b9a11be,626b377229c10585ec392f8a,626b3b681008a24f06614200,,,,,,,,,,,,,,,,,,,,,,,a,1,0.8192,"[""0.233"",""0.476"",""0.434"",""0.972""]","[1,1,0,1]",0,29,29,29,1,0,1,,,0,FALSE,,,,,,,,,,,,,,,,,,,,,,,,,,,,,,
,6147974c3f998d226b9a11be,001,2022-04-28_20h12.41.000,classification_task,2021.2.3,MacIntel,60.0024001,6147974c3f998d226b9a11be,626b377229c10585ec392f8a,626b3b681008a24f06614200,,,,,,,,,,,,,,,,,,,,,,,l,1,1.233,"[""0.885"",""0.354"",""0.534"",""0.785""]","[0,1,1,1]",0,30,30,30,1,1,0,,,0,FALSE,,,,,,,,,,,,,,,,,,,,,,,,,,,,,,
,6147974c3f998d226b9a11be,001,2022-04-28_20h12.41.000,classification_task,2021.2.3,MacIntel,60.0024001,6147974c3f998d226b9a11be,626b377229c10585ec392f8a,626b3b681008a24f06614200,,,,,,,,,,,,,,,,,,,,,,,a,1,0.7186,"[""0.186"",""0.398"",""0.432"",""0.933""]","[1,1,0,1]",0,31,31,31,1,0,0,,,0,FALSE,,,,,,,,,,,,,,,,,,,,,,,,,,,,,,
,6147974c3f998d226b9a11be,001,2022-04-28_20h12.41.000,classification_task,2021.2.3,MacIntel,60.0024001,6147974c3f998d226b9a11be,626b377229c10585ec392f8a,626b3b681008a24f06614200,,,,,,,,,,,,,,,,,,,,,,,l,1,0.7628,"[""0.150"",""0.354"",""0.534"",""0.046""]","[1,1,1,0]",0,32,32,32,1,1,0,,,0,FALSE,,,,,,,,,,,,,,,,,,,,,,,,,,,,,,
,6147974c3f998d226b9a11be,001,2022-04-28_20h12.41.000,classification_task,2021.2.3,MacIntel,60.0024001,6147974c3f998d226b9a11be,626b377229c10585ec392f8a,626b3b681008a24f06614200,,,,,,,,,,,,,,,,,,,,,,,a,1,1.0271,"[""0.041"",""0.476"",""0.721"",""0.972""]","[0,1,1,1]",0,33,33,33,1,0,1,,,0,FALSE,,,,,,,,,,,,,,,,,,,,,,,,,,,,,,
,6147974c3f998d226b9a11be,001,2022-04-28_20h12.41.000,classification_task,2021.2.3,MacIntel,60.0024001,6147974c3f998d226b9a11be,626b377229c10585ec392f8a,626b3b681008a24f06614200,,,,,,,,,,,,,,,,,,,,,,,a,0,1.0848,"[""0.150"",""0.354"",""0.881"",""0.785""]","[1,1,0,1]",0,34,34,34,1,1,0,,,0,FALSE,,,,,,,,,,,,,,,,,,,,,,,,,,,,,,
,6147974c3f998d226b9a11be,001,2022-04-28_20h12.41.000,classification_task,2021.2.3,MacIntel,60.0024001,6147974c3f998d226b9a11be,626b377229c10585ec392f8a,626b3b681008a24f06614200,,,,,,,,,,,,,,,,,,,,,,,a,1,0.9548,"[""0.233"",""0.476"",""0.892"",""0.972""]","[1,1,0,1]",0,35,35,35,1,0,1,,,0,FALSE,,,,,,,,,,,,,,,,,,,,,,,,,,,,,,
,6147974c3f998d226b9a11be,001,2022-04-28_20h12.41.000,classification_task,2021.2.3,MacIntel,60.0024001,6147974c3f998d226b9a11be,626b377229c10585ec392f8a,626b3b681008a24f06614200,,,,,,,,,,,,,,,,,,,,,,,a,1,0.7589,"[""0.186"",""0.398"",""0.881"",""0.933""]","[1,1,0,1]",0,36,36,36,1,0,0,,,0,FALSE,,,,,,,,,,,,,,,,,,,,,,,,,,,,,,
,6147974c3f998d226b9a11be,001,2022-04-28_20h12.41.000,classification_task,2021.2.3,MacIntel,60.0024001,6147974c3f998d226b9a11be,626b377229c10585ec392f8a,626b3b681008a24f06614200,,,,,,,,,,,,,,,,,,,,,,,l,1,0.5485,"[""0.150"",""0.674"",""0.534"",""0.785""]","[1,0,1,1]",0,37,37,37,1,1,0,,,0,FALSE,,,,,,,,,,,,,,,,,,,,,,,,,,,,,,
,6147974c3f998d226b9a11be,001,2022-04-28_20h12.41.000,classification_task,2021.2.3,MacIntel,60.0024001,6147974c3f998d226b9a11be,626b377229c10585ec392f8a,626b3b681008a24f06614200,,,,,,,,,,,,,,,,,,,,,,,l,1,0.4094,"[""0.432"",""0.354"",""0.534"",""0.785""]","[0,1,1,1]",0,38,38,38,1,1,0,,,0,FALSE,,,,,,,,,,,,,,,,,,,,,,,,,,,,,,
,6147974c3f998d226b9a11be,001,2022-04-28_20h12.41.000,classification_task,2021.2.3,MacIntel,60.0024001,6147974c3f998d226b9a11be,626b377229c10585ec392f8a,626b3b681008a24f06614200,,,,,,,,,,,,,,,,,,,,,,,l,1,2.5602,"[""0.082"",""0.309"",""0.881"",""0.841""]","[1,1,0,1]",0,39,39,39,1,1,1,,,0,FALSE,,,,,,,,,,,,,,,,,,,,,,,,,,,,,,
,6147974c3f998d226b9a11be,001,2022-04-28_20h12.41.000,classification_task,2021.2.3,MacIntel,60.0024001,6147974c3f998d226b9a11be,626b377229c10585ec392f8a,626b3b681008a24f06614200,,,,,,,,,,,,,,,,,,,,,,,a,1,1.0245,"[""0.186"",""0.398"",""0.624"",""0.434""]","[1,1,1,0]",0,40,40,40,1,0,0,,,0,FALSE,,,,,,,,,,,,,,,,,,,,,,,,,,,,,,
,6147974c3f998d226b9a11be,001,2022-04-28_20h12.41.000,classification_task,2021.2.3,MacIntel,60.0024001,6147974c3f998d226b9a11be,626b377229c10585ec392f8a,626b3b681008a24f06614200,,,,,,,,,,,,,,,,,,,,,,,a,1,0.5088,"[""0.660"",""0.398"",""0.624"",""0.933""]","[0,1,1,1]",0,41,41,41,1,0,0,,,0,FALSE,,,,,,,,,,,,,,,,,,,,,,,,,,,,,,
,6147974c3f998d226b9a11be,001,2022-04-28_20h12.41.000,classification_task,2021.2.3,MacIntel,60.0024001,6147974c3f998d226b9a11be,626b377229c10585ec392f8a,626b3b681008a24f06614200,,,,,,,,,,,,,,,,,,,,,,,l,0,2.4927,"[""0.233"",""0.674"",""0.721"",""0.972""]","[1,0,1,1]",0,42,42,42,1,0,1,,,0,FALSE,,,,,,,,,,,,,,,,,,,,,,,,,,,,,,
,6147974c3f998d226b9a11be,001,2022-04-28_20h12.41.000,classification_task,2021.2.3,MacIntel,60.0024001,6147974c3f998d226b9a11be,626b377229c10585ec392f8a,626b3b681008a24f06614200,,,,,,,,,,,,,,,,,,,,,,,a,1,1.6708,"[""0.233"",""0.476"",""0.721"",""0.890""]","[1,1,1,0]",0,43,43,43,1,0,1,,,0,FALSE,,,,,,,,,,,,,,,,,,,,,,,,,,,,,,
,6147974c3f998d226b9a11be,001,2022-04-28_20h12.41.000,classification_task,2021.2.3,MacIntel,60.0024001,6147974c3f998d226b9a11be,626b377229c10585ec392f8a,626b3b681008a24f06614200,,,,,,,,,,,,,,,,,,,,,,,a,0,1.4983,"[""0.082"",""0.309"",""0.588"",""0.046""]","[1,1,1,0]",0,44,44,44,1,1,1,,,0,FALSE,,,,,,,,,,,,,,,,,,,,,,,,,,,,,,
,6147974c3f998d226b9a11be,001,2022-04-28_20h12.41.000,classification_task,2021.2.3,MacIntel,60.0024001,6147974c3f998d226b9a11be,626b377229c10585ec392f8a,626b3b681008a24f06614200,,,,,,,,,,,,,,,,,,,,,,,a,1,0.638,"[""0.186"",""0.890"",""0.624"",""0.933""]","[1,0,1,1]",0,45,45,45,1,0,0,,,0,FALSE,,,,,,,,,,,,,,,,,,,,,,,,,,,,,,
,6147974c3f998d226b9a11be,001,2022-04-28_20h12.41.000,classification_task,2021.2.3,MacIntel,60.0024001,6147974c3f998d226b9a11be,626b377229c10585ec392f8a,626b3b681008a24f06614200,,,,,,,,,,,,,,,,,,,,,,,a,0,0.9838,"[""0.082"",""0.270"",""0.588"",""0.841""]","[1,0,1,1]",0,46,46,46,1,1,1,,,0,FALSE,,,,,,,,,,,,,,,,,,,,,,,,,,,,,,
,6147974c3f998d226b9a11be,001,2022-04-28_20h12.41.000,classification_task,2021.2.3,MacIntel,60.0024001,6147974c3f998d226b9a11be,626b377229c10585ec392f8a,626b3b681008a24f06614200,,,,,,,,,,,,,,,,,,,,,,,l,1,1.9946,"[""0.881"",""0.309"",""0.588"",""0.841""]","[0,1,1,1]",0,47,47,47,1,1,1,,,0,FALSE,,,,,,,,,,,,,,,,,,,,,,,,,,,,,,
,6147974c3f998d226b9a11be,001,2022-04-28_20h12.41.000,classification_task,2021.2.3,MacIntel,60.0024001,6147974c3f998d226b9a11be,626b377229c10585ec392f8a,626b3b681008a24f06614200,,,,,,,,,,,,,,,,,,,,,,,a,0,1.299,"[""0.082"",""0.309"",""0.588"",""0.892""]","[1,1,1,0]",0,48,48,48,1,1,1,,,0,FALSE,,,,,,,,,,,,,,,,,,,,,,,,,,,,,,
,6147974c3f998d226b9a11be,001,2022-04-28_20h12.41.000,classification_task,2021.2.3,MacIntel,60.0024001,6147974c3f998d226b9a11be,626b377229c10585ec392f8a,626b3b681008a24f06614200,,,,,,,,,,,,,,,,,,,,,,,l,1,1.176,"[""0.150"",""0.674"",""0.534"",""0.785""]","[1,0,1,1]",0,49,49,49,1,1,0,,,0,FALSE,,,,,,,,,,,,,,,,,,,,,,,,,,,,,,
,6147974c3f998d226b9a11be,001,2022-04-28_20h12.41.000,classification_task,2021.2.3,MacIntel,60.0024001,6147974c3f998d226b9a11be,626b377229c10585ec392f8a,626b3b681008a24f06614200,,,,,,,,,,,,,,,,,,,,,,,a,0,1.1765,"[""0.432"",""0.309"",""0.588"",""0.841""]","[0,1,1,1]",0,50,50,50,1,1,1,,,0,FALSE,,,,,,,,,,,,,,,,,,,,,,,,,,,,,,
,6147974c3f998d226b9a11be,001,2022-04-28_20h12.41.000,classification_task,2021.2.3,MacIntel,60.0024001,6147974c3f998d226b9a11be,626b377229c10585ec392f8a,626b3b681008a24f06614200,,,,,,,,,,,,,,,,,,,,,,,l,1,1.0077,"[""0.150"",""0.354"",""0.046"",""0.785""]","[1,1,0,1]",0,51,51,51,1,1,0,,,0,FALSE,,,,,,,,,,,,,,,,,,,,,,,,,,,,,,
,6147974c3f998d226b9a11be,001,2022-04-28_20h12.41.000,classification_task,2021.2.3,MacIntel,60.0024001,6147974c3f998d226b9a11be,626b377229c10585ec392f8a,626b3b681008a24f06614200,,,,,,,,,,,,,,,,,,,,,,,a,0,0.8478,"[""0.082"",""0.309"",""0.674"",""0.841""]","[1,1,0,1]",0,52,52,52,1,1,1,,,0,FALSE,,,,,,,,,,,,,,,,,,,,,,,,,,,,,,
,6147974c3f998d226b9a11be,001,2022-04-28_20h12.41.000,classification_task,2021.2.3,MacIntel,60.0024001,6147974c3f998d226b9a11be,626b377229c10585ec392f8a,626b3b681008a24f06614200,,,,,,,,,,,,,,,,,,,,,,,a,0,0.6841,"[""0.082"",""0.674"",""0.588"",""0.841""]","[1,0,1,1]",0,53,53,53,1,1,1,,,0,FALSE,,,,,,,,,,,,,,,,,,,,,,,,,,,,,,
,6147974c3f998d226b9a11be,001,2022-04-28_20h12.41.000,classification_task,2021.2.3,MacIntel,60.0024001,6147974c3f998d226b9a11be,626b377229c10585ec392f8a,626b3b681008a24f06614200,,,,,,,,,,,,,,,,,,,,,,,a,1,0.9145,"[""0.186"",""0.398"",""0.665"",""0.933""]","[1,1,0,1]",0,54,54,54,1,0,0,,,0,FALSE,,,,,,,,,,,,,,,,,,,,,,,,,,,,,,
,6147974c3f998d226b9a11be,001,2022-04-28_20h12.41.000,classification_task,2021.2.3,MacIntel,60.0024001,6147974c3f998d226b9a11be,626b377229c10585ec392f8a,626b3b681008a24f06614200,,,,,,,,,,,,,,,,,,,,,,,l,1,1.4429,"[""0.046"",""0.354"",""0.534"",""0.785""]","[0,1,1,1]",0,55,55,55,1,1,0,,,0,FALSE,,,,,,,,,,,,,,,,,,,,,,,,,,,,,,
,6147974c3f998d226b9a11be,001,2022-04-28_20h12.41.000,classification_task,2021.2.3,MacIntel,60.0024001,6147974c3f998d226b9a11be,626b377229c10585ec392f8a,626b3b681008a24f06614200,,,,,,,,,,,,,,,,,,,,,,,l,0,4.3983,"[""0.233"",""0.660"",""0.721"",""0.972""]","[1,0,1,1]",0,56,56,56,1,0,1,,,0,FALSE,,,,,,,,,,,,,,,,,,,,,,,,,,,,,,
,6147974c3f998d226b9a11be,001,2022-04-28_20h12.41.000,classification_task,2021.2.3,MacIntel,60.0024001,6147974c3f998d226b9a11be,626b377229c10585ec392f8a,626b3b681008a24f06614200,,,,,,,,,,,,,,,,,,,,,,,l,1,1.1707,"[""0.150"",""0.354"",""0.534"",""0.892""]","[1,1,1,0]",0,57,57,57,1,1,0,,,0,FALSE,,,,,,,,,,,,,,,,,,,,,,,,,,,,,,
,6147974c3f998d226b9a11be,001,2022-04-28_20h12.41.000,classification_task,2021.2.3,MacIntel,60.0024001,6147974c3f998d226b9a11be,626b377229c10585ec392f8a,626b3b681008a24f06614200,,,,,,,,,,,,,,,,,,,,,,,a,1,0.9369,"[""0.432"",""0.398"",""0.624"",""0.933""]","[0,1,1,1]",0,58,58,58,1,0,0,,,0,FALSE,,,,,,,,,,,,,,,,,,,,,,,,,,,,,,
,6147974c3f998d226b9a11be,001,2022-04-28_20h12.41.000,classification_task,2021.2.3,MacIntel,60.0024001,6147974c3f998d226b9a11be,626b377229c10585ec392f8a,626b3b681008a24f06614200,,,,,,,,,,,,,,,,,,,,,,,a,1,0.8177,"[""0.233"",""0.476"",""0.721"",""0.665""]","[1,1,1,0]",0,59,59,59,1,0,1,,,0,FALSE,,,,,,,,,,,,,,,,,,,,,,,,,,,,,,
,6147974c3f998d226b9a11be,001,2022-04-28_20h12.41.000,classification_task,2021.2.3,MacIntel,60.0024001,6147974c3f998d226b9a11be,626b377229c10585ec392f8a,626b3b681008a24f06614200,,,,,,,,,,,,,,,,,,,,,,,a,1,0.6274,"[""0.186"",""0.398"",""0.624"",""0.434""]","[1,1,1,0]",0,60,60,60,1,0,0,,,0,FALSE,,,,,,,,,,,,,,,,,,,,,,,,,,,,,,
,6147974c3f998d226b9a11be,001,2022-04-28_20h12.41.000,classification_task,2021.2.3,MacIntel,60.0024001,6147974c3f998d226b9a11be,626b377229c10585ec392f8a,626b3b681008a24f06614200,,,,,,,,,,,,,,,,,,,,,,,a,1,0.5575,"[""0.233"",""0.476"",""0.432"",""0.972""]","[1,1,0,1]",0,61,61,61,1,0,1,,,0,FALSE,,,,,,,,,,,,,,,,,,,,,,,,,,,,,,
,6147974c3f998d226b9a11be,001,2022-04-28_20h12.41.000,classification_task,2021.2.3,MacIntel,60.0024001,6147974c3f998d226b9a11be,626b377229c10585ec392f8a,626b3b681008a24f06614200,,,,,,,,,,,,,,,,,,,,,,,a,1,0.4155,"[""0.186"",""0.665"",""0.624"",""0.933""]","[1,0,1,1]",0,62,62,62,1,0,0,,,0,FALSE,,,,,,,,,,,,,,,,,,,,,,,,,,,,,,
,6147974c3f998d226b9a11be,001,2022-04-28_20h12.41.000,classification_task,2021.2.3,MacIntel,60.0024001,6147974c3f998d226b9a11be,626b377229c10585ec392f8a,626b3b681008a24f06614200,,,,,,,,,,,,,,,,,,,,,,,a,1,0.9702,"[""0.032"",""0.476"",""0.721"",""0.972""]","[0,1,1,1]",0,63,63,63,1,0,1,,,0,FALSE,,,,,,,,,,,,,,,,,,,,,,,,,,,,,,
,6147974c3f998d226b9a11be,001,2022-04-28_20h12.41.000,classification_task,2021.2.3,MacIntel,60.0024001,6147974c3f998d226b9a11be,626b377229c10585ec392f8a,626b3b681008a24f06614200,,,,,,,,,,,,,,,,,,,,,,,,,,,,,,,,,,,,,,,0, ,,0,9.546446355,474.3453,0,1,1,1,1,2,2,,,,,,,,,,,,,,,,,
,6147974c3f998d226b9a11be,001,2022-04-28_20h12.41.000,classification_task,2021.2.3,MacIntel,60.0024001,6147974c3f998d226b9a11be,626b377229c10585ec392f8a,626b3b681008a24f06614200,,,,,,,,,,,,,,,,,,,,,,,,,,,,,,,,,,,,,,,1,  ,,0,9.165931087,475.9088,0,1,1,1,1,2,2,,,,,,,,,,,,,,,,,
,6147974c3f998d226b9a11be,001,2022-04-28_20h12.41.000,classification_task,2021.2.3,MacIntel,60.0024001,6147974c3f998d226b9a11be,626b377229c10585ec392f8a,626b3b681008a24f06614200,,,,,,,,,,,,,,,,,,,,,,,,,,,,,,,,,,,,,,,2,  ,,0,9.17145511,477.2108,0,1,1,1,1,2,2,,,,,,,,,,,,,,,,,
,6147974c3f998d226b9a11be,001,2022-04-28_20h12.41.000,classification_task,2021.2.3,MacIntel,60.0024001,6147974c3f998d226b9a11be,626b377229c10585ec392f8a,626b3b681008a24f06614200,,,,,,,,,,,,,,,,,,,,,,,,,,,,,,,,,,,,,,,,,,,,,0,1,1,1,1,,2,,,,,,,,,,,,,,,,,
,6147974c3f998d226b9a11be,001,2022-04-28_20h12.41.000,classification_task,2021.2.3,MacIntel,60.0024001,6147974c3f998d226b9a11be,626b377229c10585ec392f8a,626b3b681008a24f06614200,,,,,,,,,,,,,,,,,,,,,space,11.9995,a,0,3.0867,"[""0.046"",""0.354"",""0.534"",""0.785""]","[0,1,1,1]",0,0,0,0,1,1,0,,,0,FALSE,,,,,,,,,,,,,,,,,,,,,,,,,,,,,,
,6147974c3f998d226b9a11be,001,2022-04-28_20h12.41.000,classification_task,2021.2.3,MacIntel,60.0024001,6147974c3f998d226b9a11be,626b377229c10585ec392f8a,626b3b681008a24f06614200,,,,,,,,,,,,,,,,,,,,,,,l,0,4.7622,"[""0.186"",""0.398"",""0.624"",""0.432""]","[1,1,1,0]",0,1,1,1,1,0,0,,,0,FALSE,,,,,,,,,,,,,,,,,,,,,,,,,,,,,,
,6147974c3f998d226b9a11be,001,2022-04-28_20h12.41.000,classification_task,2021.2.3,MacIntel,60.0024001,6147974c3f998d226b9a11be,626b377229c10585ec392f8a,626b3b681008a24f06614200,,,,,,,,,,,,,,,,,,,,,,,a,0,3.241,"[""0.082"",""0.309"",""0.588"",""0.665""]","[1,1,1,0]",0,2,2,2,1,1,1,,,0,FALSE,,,,,,,,,,,,,,,,,,,,,,,,,,,,,,
,6147974c3f998d226b9a11be,001,2022-04-28_20h12.41.000,classification_task,2021.2.3,MacIntel,60.0024001,6147974c3f998d226b9a11be,626b377229c10585ec392f8a,626b3b681008a24f06614200,,,,,,,,,,,,,,,,,,,,,,,l,0,1.4573,"[""0.674"",""0.398"",""0.624"",""0.933""]","[0,1,1,1]",0,3,3,3,1,0,0,,,0,FALSE,,,,,,,,,,,,,,,,,,,,,,,,,,,,,,
,6147974c3f998d226b9a11be,001,2022-04-28_20h12.41.000,classification_task,2021.2.3,MacIntel,60.0024001,6147974c3f998d226b9a11be,626b377229c10585ec392f8a,626b3b681008a24f06614200,,,,,,,,,,,,,,,,,,,,,,,a,1,1.9087,"[""0.233"",""0.476"",""0.270"",""0.972""]","[1,1,0,1]",0,4,4,4,1,0,1,,,0,FALSE,,,,,,,,,,,,,,,,,,,,,,,,,,,,,,
,6147974c3f998d226b9a11be,001,2022-04-28_20h12.41.000,classification_task,2021.2.3,MacIntel,60.0024001,6147974c3f998d226b9a11be,626b377229c10585ec392f8a,626b3b681008a24f06614200,,,,,,,,,,,,,,,,,,,,,,,l,0,1.6376,"[""0.233"",""0.476"",""0.721"",""0.890""]","[1,1,1,0]",0,5,5,5,1,0,1,,,0,FALSE,,,,,,,,,,,,,,,,,,,,,,,,,,,,,,
,6147974c3f998d226b9a11be,001,2022-04-28_20h12.41.000,classification_task,2021.2.3,MacIntel,60.0024001,6147974c3f998d226b9a11be,626b377229c10585ec392f8a,626b3b681008a24f06614200,,,,,,,,,,,,,,,,,,,,,,,l,1,2.5234,"[""0.432"",""0.309"",""0.588"",""0.841""]","[0,1,1,1]",0,6,6,6,1,1,1,,,0,FALSE,,,,,,,,,,,,,,,,,,,,,,,,,,,,,,
,6147974c3f998d226b9a11be,001,2022-04-28_20h12.41.000,classification_task,2021.2.3,MacIntel,60.0024001,6147974c3f998d226b9a11be,626b377229c10585ec392f8a,626b3b681008a24f06614200,,,,,,,,,,,,,,,,,,,,,,,a,0,2.1585,"[""0.150"",""0.432"",""0.534"",""0.785""]","[1,0,1,1]",0,7,7,7,1,1,0,,,0,FALSE,,,,,,,,,,,,,,,,,,,,,,,,,,,,,,
,6147974c3f998d226b9a11be,001,2022-04-28_20h12.41.000,classification_task,2021.2.3,MacIntel,60.0024001,6147974c3f998d226b9a11be,626b377229c10585ec392f8a,626b3b681008a24f06614200,,,,,,,,,,,,,,,,,,,,,,,l,0,1.5931,"[""0.186"",""0.674"",""0.624"",""0.933""]","[1,0,1,1]",0,8,8,8,1,0,0,,,0,FALSE,,,,,,,,,,,,,,,,,,,,,,,,,,,,,,
,6147974c3f998d226b9a11be,001,2022-04-28_20h12.41.000,classification_task,2021.2.3,MacIntel,60.0024001,6147974c3f998d226b9a11be,626b377229c10585ec392f8a,626b3b681008a24f06614200,,,,,,,,,,,,,,,,,,,,,,,a,0,1.2725,"[""0.150"",""0.354"",""0.434"",""0.785""]","[1,1,0,1]",0,9,9,9,1,1,0,,,0,FALSE,,,,,,,,,,,,,,,,,,,,,,,,,,,,,,
,6147974c3f998d226b9a11be,001,2022-04-28_20h12.41.000,classification_task,2021.2.3,MacIntel,60.0024001,6147974c3f998d226b9a11be,626b377229c10585ec392f8a,626b3b681008a24f06614200,,,,,,,,,,,,,,,,,,,,,,,a,1,0.8608,"[""0.186"",""0.398"",""0.890"",""0.933""]","[1,1,0,1]",0,10,10,10,1,0,0,,,0,FALSE,,,,,,,,,,,,,,,,,,,,,,,,,,,,,,
,6147974c3f998d226b9a11be,001,2022-04-28_20h12.41.000,classification_task,2021.2.3,MacIntel,60.0024001,6147974c3f998d226b9a11be,626b377229c10585ec392f8a,626b3b681008a24f06614200,,,,,,,,,,,,,,,,,,,,,,,a,0,3.845,"[""0.082"",""0.432"",""0.588"",""0.841""]","[1,0,1,1]",0,11,11,11,1,1,1,,,0,FALSE,,,,,,,,,,,,,,,,,,,,,,,,,,,,,,
,6147974c3f998d226b9a11be,001,2022-04-28_20h12.41.000,classification_task,2021.2.3,MacIntel,60.0024001,6147974c3f998d226b9a11be,626b377229c10585ec392f8a,626b3b681008a24f06614200,,,,,,,,,,,,,,,,,,,,,,,l,1,2.1875,"[""0.150"",""0.354"",""0.534"",""0.270""]","[1,1,1,0]",0,12,12,12,1,1,0,,,0,FALSE,,,,,,,,,,,,,,,,,,,,,,,,,,,,,,
,6147974c3f998d226b9a11be,001,2022-04-28_20h12.41.000,classification_task,2021.2.3,MacIntel,60.0024001,6147974c3f998d226b9a11be,626b377229c10585ec392f8a,626b3b681008a24f06614200,,,,,,,,,,,,,,,,,,,,,,,l,1,2.5647,"[""0.082"",""0.309"",""0.032"",""0.841""]","[1,1,0,1]",0,13,13,13,1,1,1,,,0,FALSE,,,,,,,,,,,,,,,,,,,,,,,,,,,,,,
,6147974c3f998d226b9a11be,001,2022-04-28_20h12.41.000,classification_task,2021.2.3,MacIntel,60.0024001,6147974c3f998d226b9a11be,626b377229c10585ec392f8a,626b3b681008a24f06614200,,,,,,,,,,,,,,,,,,,,,,,a,1,2.0649,"[""0.432"",""0.476"",""0.721"",""0.972""]","[0,1,1,1]",0,14,14,14,1,0,1,,,0,FALSE,,,,,,,,,,,,,,,,,,,,,,,,,,,,,,
,6147974c3f998d226b9a11be,001,2022-04-28_20h12.41.000,classification_task,2021.2.3,MacIntel,60.0024001,6147974c3f998d226b9a11be,626b377229c10585ec392f8a,626b3b681008a24f06614200,,,,,,,,,,,,,,,,,,,,,,,a,1,1.1129,"[""0.233"",""0.040"",""0.721"",""0.972""]","[1,0,1,1]",0,15,15,15,1,0,1,,,0,FALSE,,,,,,,,,,,,,,,,,,,,,,,,,,,,,,
,6147974c3f998d226b9a11be,001,2022-04-28_20h12.41.000,classification_task,2021.2.3,MacIntel,60.0024001,6147974c3f998d226b9a11be,626b377229c10585ec392f8a,626b3b681008a24f06614200,,,,,,,,,,,,,,,,,,,,,,,a,1,2.5055,"[""0.233"",""0.476"",""0.885"",""0.972""]","[1,1,0,1]",0,16,16,16,1,0,1,,,0,FALSE,,,,,,,,,,,,,,,,,,,,,,,,,,,,,,
,6147974c3f998d226b9a11be,001,2022-04-28_20h12.41.000,classification_task,2021.2.3,MacIntel,60.0024001,6147974c3f998d226b9a11be,626b377229c10585ec392f8a,626b3b681008a24f06614200,,,,,,,,,,,,,,,,,,,,,,,l,1,1.5177,"[""0.082"",""0.309"",""0.041"",""0.841""]","[1,1,0,1]",0,17,17,17,1,1,1,,,0,FALSE,,,,,,,,,,,,,,,,,,,,,,,,,,,,,,
,6147974c3f998d226b9a11be,001,2022-04-28_20h12.41.000,classification_task,2021.2.3,MacIntel,60.0024001,6147974c3f998d226b9a11be,626b377229c10585ec392f8a,626b3b681008a24f06614200,,,,,,,,,,,,,,,,,,,,,,,l,0,2.0831,"[""0.233"",""0.476"",""0.721"",""0.434""]","[1,1,1,0]",0,18,18,18,1,0,1,,,0,FALSE,,,,,,,,,,,,,,,,,,,,,,,,,,,,,,
,6147974c3f998d226b9a11be,001,2022-04-28_20h12.41.000,classification_task,2021.2.3,MacIntel,60.0024001,6147974c3f998d226b9a11be,626b377229c10585ec392f8a,626b3b681008a24f06614200,,,,,,,,,,,,,,,,,,,,,,,l,0,1.3852,"[""0.186"",""0.398"",""0.624"",""0.888""]","[1,1,1,0]",0,19,19,19,1,0,0,,,0,FALSE,,,,,,,,,,,,,,,,,,,,,,,,,,,,,,
,6147974c3f998d226b9a11be,001,2022-04-28_20h12.41.000,classification_task,2021.2.3,MacIntel,60.0024001,6147974c3f998d226b9a11be,626b377229c10585ec392f8a,626b3b681008a24f06614200,,,,,,,,,,,,,,,,,,,,,,,l,1,1.959,"[""0.888"",""0.309"",""0.588"",""0.841""]","[0,1,1,1]",0,20,20,20,1,1,1,,,0,FALSE,,,,,,,,,,,,,,,,,,,,,,,,,,,,,,
,6147974c3f998d226b9a11be,001,2022-04-28_20h12.41.000,classification_task,2021.2.3,MacIntel,60.0024001,6147974c3f998d226b9a11be,626b377229c10585ec392f8a,626b3b681008a24f06614200,,,,,,,,,,,,,,,,,,,,,,,a,0,2.9819,"[""0.082"",""0.309"",""0.588"",""0.032""]","[1,1,1,0]",0,21,21,21,1,1,1,,,0,FALSE,,,,,,,,,,,,,,,,,,,,,,,,,,,,,,
,6147974c3f998d226b9a11be,001,2022-04-28_20h12.41.000,classification_task,2021.2.3,MacIntel,60.0024001,6147974c3f998d226b9a11be,626b377229c10585ec392f8a,626b3b681008a24f06614200,,,,,,,,,,,,,,,,,,,,,,,a,0,1.141,"[""0.881"",""0.354"",""0.534"",""0.785""]","[0,1,1,1]",0,22,22,22,1,1,0,,,0,FALSE,,,,,,,,,,,,,,,,,,,,,,,,,,,,,,
,6147974c3f998d226b9a11be,001,2022-04-28_20h12.41.000,classification_task,2021.2.3,MacIntel,60.0024001,6147974c3f998d226b9a11be,626b377229c10585ec392f8a,626b3b681008a24f06614200,,,,,,,,,,,,,,,,,,,,,,,l,1,1.3599,"[""0.150"",""0.270"",""0.534"",""0.785""]","[1,0,1,1]",0,23,23,23,1,1,0,,,0,FALSE,,,,,,,,,,,,,,,,,,,,,,,,,,,,,,
,6147974c3f998d226b9a11be,001,2022-04-28_20h12.41.000,classification_task,2021.2.3,MacIntel,60.0024001,6147974c3f998d226b9a11be,626b377229c10585ec392f8a,626b3b681008a24f06614200,,,,,,,,,,,,,,,,,,,,,,,l,0,1.1388,"[""0.186"",""0.270"",""0.624"",""0.933""]","[1,0,1,1]",0,24,24,24,1,0,0,,,0,FALSE,,,,,,,,,,,,,,,,,,,,,,,,,,,,,,
,6147974c3f998d226b9a11be,001,2022-04-28_20h12.41.000,classification_task,2021.2.3,MacIntel,60.0024001,6147974c3f998d226b9a11be,626b377229c10585ec392f8a,626b3b681008a24f06614200,,,,,,,,,,,,,,,,,,,,,,,l,1,1.7664,"[""0.082"",""0.890"",""0.588"",""0.841""]","[1,0,1,1]",0,25,25,25,1,1,1,,,0,FALSE,,,,,,,,,,,,,,,,,,,,,,,,,,,,,,
,6147974c3f998d226b9a11be,001,2022-04-28_20h12.41.000,classification_task,2021.2.3,MacIntel,60.0024001,6147974c3f998d226b9a11be,626b377229c10585ec392f8a,626b3b681008a24f06614200,,,,,,,,,,,,,,,,,,,,,,,l,0,2.6636,"[""0.032"",""0.398"",""0.624"",""0.933""]","[0,1,1,1]",0,26,26,26,1,0,0,,,0,FALSE,,,,,,,,,,,,,,,,,,,,,,,,,,,,,,
,6147974c3f998d226b9a11be,001,2022-04-28_20h12.41.000,classification_task,2021.2.3,MacIntel,60.0024001,6147974c3f998d226b9a11be,626b377229c10585ec392f8a,626b3b681008a24f06614200,,,,,,,,,,,,,,,,,,,,,,,l,1,3.2224,"[""0.150"",""0.354"",""0.432"",""0.785""]","[1,1,0,1]",0,27,27,27,1,1,0,,,0,FALSE,,,,,,,,,,,,,,,,,,,,,,,,,,,,,,
,6147974c3f998d226b9a11be,001,2022-04-28_20h12.41.000,classification_task,2021.2.3,MacIntel,60.0024001,6147974c3f998d226b9a11be,626b377229c10585ec392f8a,626b3b681008a24f06614200,,,,,,,,,,,,,,,,,,,,,,,l,0,3.8133,"[""0.233"",""0.032"",""0.721"",""0.972""]","[1,0,1,1]",0,28,28,28,1,0,1,,,0,FALSE,,,,,,,,,,,,,,,,,,,,,,,,,,,,,,
,6147974c3f998d226b9a11be,001,2022-04-28_20h12.41.000,classification_task,2021.2.3,MacIntel,60.0024001,6147974c3f998d226b9a11be,626b377229c10585ec392f8a,626b3b681008a24f06614200,,,,,,,,,,,,,,,,,,,,,,,l,0,2.5656,"[""0.186"",""0.398"",""0.434"",""0.933""]","[1,1,0,1]",0,29,29,29,1,0,0,,,0,FALSE,,,,,,,,,,,,,,,,,,,,,,,,,,,,,,
,6147974c3f998d226b9a11be,001,2022-04-28_20h12.41.000,classification_task,2021.2.3,MacIntel,60.0024001,6147974c3f998d226b9a11be,626b377229c10585ec392f8a,626b3b681008a24f06614200,,,,,,,,,,,,,,,,,,,,,,,a,1,1.7346,"[""0.434"",""0.476"",""0.721"",""0.972""]","[0,1,1,1]",0,30,30,30,1,0,1,,,0,FALSE,,,,,,,,,,,,,,,,,,,,,,,,,,,,,,
,6147974c3f998d226b9a11be,001,2022-04-28_20h12.41.000,classification_task,2021.2.3,MacIntel,60.0024001,6147974c3f998d226b9a11be,626b377229c10585ec392f8a,626b3b681008a24f06614200,,,,,,,,,,,,,,,,,,,,,,,a,0,6.9415,"[""0.150"",""0.354"",""0.534"",""0.270""]","[1,1,1,0]",0,31,31,31,1,1,0,,,0,FALSE,,,,,,,,,,,,,,,,,,,,,,,,,,,,,,
,6147974c3f998d226b9a11be,001,2022-04-28_20h12.41.000,classification_task,2021.2.3,MacIntel,60.0024001,6147974c3f998d226b9a11be,626b377229c10585ec392f8a,626b3b681008a24f06614200,,,,,,,,,,,,,,,,,,,,,,,a,0,1.4401,"[""0.082"",""0.309"",""0.888"",""0.841""]","[1,1,0,1]",0,32,32,32,1,1,1,,,0,FALSE,,,,,,,,,,,,,,,,,,,,,,,,,,,,,,
,6147974c3f998d226b9a11be,001,2022-04-28_20h12.41.000,classification_task,2021.2.3,MacIntel,60.0024001,6147974c3f998d226b9a11be,626b377229c10585ec392f8a,626b3b681008a24f06614200,,,,,,,,,,,,,,,,,,,,,,,l,0,1.5535,"[""0.186"",""0.398"",""0.890"",""0.933""]","[1,1,0,1]",0,33,33,33,1,0,0,,,0,FALSE,,,,,,,,,,,,,,,,,,,,,,,,,,,,,,
,6147974c3f998d226b9a11be,001,2022-04-28_20h12.41.000,classification_task,2021.2.3,MacIntel,60.0024001,6147974c3f998d226b9a11be,626b377229c10585ec392f8a,626b3b681008a24f06614200,,,,,,,,,,,,,,,,,,,,,,,l,0,2.0724,"[""0.233"",""0.432"",""0.721"",""0.972""]","[1,0,1,1]",0,34,34,34,1,0,1,,,0,FALSE,,,,,,,,,,,,,,,,,,,,,,,,,,,,,,
,6147974c3f998d226b9a11be,001,2022-04-28_20h12.41.000,classification_task,2021.2.3,MacIntel,60.0024001,6147974c3f998d226b9a11be,626b377229c10585ec392f8a,626b3b681008a24f06614200,,,,,,,,,,,,,,,,,,,,,,,l,1,0.9466,"[""0.150"",""0.354"",""0.041"",""0.785""]","[1,1,0,1]",0,35,35,35,1,1,0,,,0,FALSE,,,,,,,,,,,,,,,,,,,,,,,,,,,,,,
,6147974c3f998d226b9a11be,001,2022-04-28_20h12.41.000,classification_task,2021.2.3,MacIntel,60.0024001,6147974c3f998d226b9a11be,626b377229c10585ec392f8a,626b3b681008a24f06614200,,,,,,,,,,,,,,,,,,,,,,,l,1,0.9658,"[""0.150"",""0.354"",""0.534"",""0.881""]","[1,1,1,0]",0,36,36,36,1,1,0,,,0,FALSE,,,,,,,,,,,,,,,,,,,,,,,,,,,,,,
,6147974c3f998d226b9a11be,001,2022-04-28_20h12.41.000,classification_task,2021.2.3,MacIntel,60.0024001,6147974c3f998d226b9a11be,626b377229c10585ec392f8a,626b3b681008a24f06614200,,,,,,,,,,,,,,,,,,,,,,,l,1,0.7056,"[""0.150"",""0.881"",""0.534"",""0.785""]","[1,0,1,1]",0,37,37,37,1,1,0,,,0,FALSE,,,,,,,,,,,,,,,,,,,,,,,,,,,,,,
,6147974c3f998d226b9a11be,001,2022-04-28_20h12.41.000,classification_task,2021.2.3,MacIntel,60.0024001,6147974c3f998d226b9a11be,626b377229c10585ec392f8a,626b3b681008a24f06614200,,,,,,,,,,,,,,,,,,,,,,,a,0,1.6586,"[""0.660"",""0.309"",""0.588"",""0.841""]","[0,1,1,1]",0,38,38,38,1,1,1,,,0,FALSE,,,,,,,,,,,,,,,,,,,,,,,,,,,,,,
,6147974c3f998d226b9a11be,001,2022-04-28_20h12.41.000,classification_task,2021.2.3,MacIntel,60.0024001,6147974c3f998d226b9a11be,626b377229c10585ec392f8a,626b3b681008a24f06614200,,,,,,,,,,,,,,,,,,,,,,,l,0,1.6944,"[""0.186"",""0.398"",""0.624"",""0.888""]","[1,1,1,0]",0,39,39,39,1,0,0,,,0,FALSE,,,,,,,,,,,,,,,,,,,,,,,,,,,,,,
,6147974c3f998d226b9a11be,001,2022-04-28_20h12.41.000,classification_task,2021.2.3,MacIntel,60.0024001,6147974c3f998d226b9a11be,626b377229c10585ec392f8a,626b3b681008a24f06614200,,,,,,,,,,,,,,,,,,,,,,,l,1,2.4224,"[""0.082"",""0.270"",""0.588"",""0.841""]","[1,0,1,1]",0,40,40,40,1,1,1,,,0,FALSE,,,,,,,,,,,,,,,,,,,,,,,,,,,,,,
,6147974c3f998d226b9a11be,001,2022-04-28_20h12.41.000,classification_task,2021.2.3,MacIntel,60.0024001,6147974c3f998d226b9a11be,626b377229c10585ec392f8a,626b3b681008a24f06614200,,,,,,,,,,,,,,,,,,,,,,,l,0,1.0622,"[""0.233"",""0.476"",""0.721"",""0.881""]","[1,1,1,0]",0,41,41,41,1,0,1,,,0,FALSE,,,,,,,,,,,,,,,,,,,,,,,,,,,,,,
,6147974c3f998d226b9a11be,001,2022-04-28_20h12.41.000,classification_task,2021.2.3,MacIntel,60.0024001,6147974c3f998d226b9a11be,626b377229c10585ec392f8a,626b3b681008a24f06614200,,,,,,,,,,,,,,,,,,,,,,,l,0,1.127,"[""0.046"",""0.398"",""0.624"",""0.933""]","[0,1,1,1]",0,42,42,42,1,0,0,,,0,FALSE,,,,,,,,,,,,,,,,,,,,,,,,,,,,,,
,6147974c3f998d226b9a11be,001,2022-04-28_20h12.41.000,classification_task,2021.2.3,MacIntel,60.0024001,6147974c3f998d226b9a11be,626b377229c10585ec392f8a,626b3b681008a24f06614200,,,,,,,,,,,,,,,,,,,,,,,a,1,1.627,"[""0.233"",""0.476"",""0.041"",""0.972""]","[1,1,0,1]",0,43,43,43,1,0,1,,,0,FALSE,,,,,,,,,,,,,,,,,,,,,,,,,,,,,,
,6147974c3f998d226b9a11be,001,2022-04-28_20h12.41.000,classification_task,2021.2.3,MacIntel,60.0024001,6147974c3f998d226b9a11be,626b377229c10585ec392f8a,626b3b681008a24f06614200,,,,,,,,,,,,,,,,,,,,,,,a,1,2.3677,"[""0.186"",""0.890"",""0.624"",""0.933""]","[1,0,1,1]",0,44,44,44,1,0,0,,,0,FALSE,,,,,,,,,,,,,,,,,,,,,,,,,,,,,,
,6147974c3f998d226b9a11be,001,2022-04-28_20h12.41.000,classification_task,2021.2.3,MacIntel,60.0024001,6147974c3f998d226b9a11be,626b377229c10585ec392f8a,626b3b681008a24f06614200,,,,,,,,,,,,,,,,,,,,,,,a,0,2.2424,"[""0.082"",""0.309"",""0.588"",""0.674""]","[1,1,1,0]",0,45,45,45,1,1,1,,,0,FALSE,,,,,,,,,,,,,,,,,,,,,,,,,,,,,,
,6147974c3f998d226b9a11be,001,2022-04-28_20h12.41.000,classification_task,2021.2.3,MacIntel,60.0024001,6147974c3f998d226b9a11be,626b377229c10585ec392f8a,626b3b681008a24f06614200,,,,,,,,,,,,,,,,,,,,,,,l,0,1.2177,"[""0.881"",""0.476"",""0.721"",""0.972""]","[0,1,1,1]",0,46,46,46,1,0,1,,,0,FALSE,,,,,,,,,,,,,,,,,,,,,,,,,,,,,,
,6147974c3f998d226b9a11be,001,2022-04-28_20h12.41.000,classification_task,2021.2.3,MacIntel,60.0024001,6147974c3f998d226b9a11be,626b377229c10585ec392f8a,626b3b681008a24f06614200,,,,,,,,,,,,,,,,,,,,,,,l,1,0.8194,"[""0.888"",""0.354"",""0.534"",""0.785""]","[0,1,1,1]",0,47,47,47,1,1,0,,,0,FALSE,,,,,,,,,,,,,,,,,,,,,,,,,,,,,,
,6147974c3f998d226b9a11be,001,2022-04-28_20h12.41.000,classification_task,2021.2.3,MacIntel,60.0024001,6147974c3f998d226b9a11be,626b377229c10585ec392f8a,626b3b681008a24f06614200,,,,,,,,,,,,,,,,,,,,,,,l,0,1.4942,"[""0.233"",""0.476"",""0.721"",""0.888""]","[1,1,1,0]",0,48,48,48,1,0,1,,,0,FALSE,,,,,,,,,,,,,,,,,,,,,,,,,,,,,,
,6147974c3f998d226b9a11be,001,2022-04-28_20h12.41.000,classification_task,2021.2.3,MacIntel,60.0024001,6147974c3f998d226b9a11be,626b377229c10585ec392f8a,626b3b681008a24f06614200,,,,,,,,,,,,,,,,,,,,,,,a,1,2.8301,"[""0.233"",""0.476"",""0.432"",""0.972""]","[1,1,0,1]",0,49,49,49,1,0,1,,,0,FALSE,,,,,,,,,,,,,,,,,,,,,,,,,,,,,,
,6147974c3f998d226b9a11be,001,2022-04-28_20h12.41.000,classification_task,2021.2.3,MacIntel,60.0024001,6147974c3f998d226b9a11be,626b377229c10585ec392f8a,626b3b681008a24f06614200,,,,,,,,,,,,,,,,,,,,,,,a,0,0.7064,"[""0.082"",""0.309"",""0.588"",""0.270""]","[1,1,1,0]",0,50,50,50,1,1,1,,,0,FALSE,,,,,,,,,,,,,,,,,,,,,,,,,,,,,,
,6147974c3f998d226b9a11be,001,2022-04-28_20h12.41.000,classification_task,2021.2.3,MacIntel,60.0024001,6147974c3f998d226b9a11be,626b377229c10585ec392f8a,626b3b681008a24f06614200,,,,,,,,,,,,,,,,,,,,,,,l,1,1.8244,"[""0.150"",""0.354"",""0.432"",""0.785""]","[1,1,0,1]",0,51,51,51,1,1,0,,,0,FALSE,,,,,,,,,,,,,,,,,,,,,,,,,,,,,,
,6147974c3f998d226b9a11be,001,2022-04-28_20h12.41.000,classification_task,2021.2.3,MacIntel,60.0024001,6147974c3f998d226b9a11be,626b377229c10585ec392f8a,626b3b681008a24f06614200,,,,,,,,,,,,,,,,,,,,,,,l,1,1.644,"[""0.665"",""0.354"",""0.534"",""0.785""]","[0,1,1,1]",0,52,52,52,1,1,0,,,0,FALSE,,,,,,,,,,,,,,,,,,,,,,,,,,,,,,
,6147974c3f998d226b9a11be,001,2022-04-28_20h12.41.000,classification_task,2021.2.3,MacIntel,60.0024001,6147974c3f998d226b9a11be,626b377229c10585ec392f8a,626b3b681008a24f06614200,,,,,,,,,,,,,,,,,,,,,,,l,1,1.2799,"[""0.150"",""0.032"",""0.534"",""0.785""]","[1,0,1,1]",0,53,53,53,1,1,0,,,0,FALSE,,,,,,,,,,,,,,,,,,,,,,,,,,,,,,
,6147974c3f998d226b9a11be,001,2022-04-28_20h12.41.000,classification_task,2021.2.3,MacIntel,60.0024001,6147974c3f998d226b9a11be,626b377229c10585ec392f8a,626b3b681008a24f06614200,,,,,,,,,,,,,,,,,,,,,,,l,0,0.8497,"[""0.041"",""0.398"",""0.624"",""0.933""]","[0,1,1,1]",0,54,54,54,1,0,0,,,0,FALSE,,,,,,,,,,,,,,,,,,,,,,,,,,,,,,
,6147974c3f998d226b9a11be,001,2022-04-28_20h12.41.000,classification_task,2021.2.3,MacIntel,60.0024001,6147974c3f998d226b9a11be,626b377229c10585ec392f8a,626b3b681008a24f06614200,,,,,,,,,,,,,,,,,,,,,,,l,1,1.0224,"[""0.082"",""0.309"",""0.890"",""0.841""]","[1,1,0,1]",0,55,55,55,1,1,1,,,0,FALSE,,,,,,,,,,,,,,,,,,,,,,,,,,,,,,
,6147974c3f998d226b9a11be,001,2022-04-28_20h12.41.000,classification_task,2021.2.3,MacIntel,60.0024001,6147974c3f998d226b9a11be,626b377229c10585ec392f8a,626b3b681008a24f06614200,,,,,,,,,,,,,,,,,,,,,,,l,0,1.2237,"[""0.233"",""0.660"",""0.721"",""0.972""]","[1,0,1,1]",0,56,56,56,1,0,1,,,0,FALSE,,,,,,,,,,,,,,,,,,,,,,,,,,,,,,
,6147974c3f998d226b9a11be,001,2022-04-28_20h12.41.000,classification_task,2021.2.3,MacIntel,60.0024001,6147974c3f998d226b9a11be,626b377229c10585ec392f8a,626b3b681008a24f06614200,,,,,,,,,,,,,,,,,,,,,,,l,0,1.4784,"[""0.186"",""0.398"",""0.892"",""0.933""]","[1,1,0,1]",0,57,57,57,1,0,0,,,0,FALSE,,,,,,,,,,,,,,,,,,,,,,,,,,,,,,
,6147974c3f998d226b9a11be,001,2022-04-28_20h12.41.000,classification_task,2021.2.3,MacIntel,60.0024001,6147974c3f998d226b9a11be,626b377229c10585ec392f8a,626b3b681008a24f06614200,,,,,,,,,,,,,,,,,,,,,,,a,0,1.1118,"[""0.150"",""0.354"",""0.534"",""0.432""]","[1,1,1,0]",0,58,58,58,1,1,0,,,0,FALSE,,,,,,,,,,,,,,,,,,,,,,,,,,,,,,
,6147974c3f998d226b9a11be,001,2022-04-28_20h12.41.000,classification_task,2021.2.3,MacIntel,60.0024001,6147974c3f998d226b9a11be,626b377229c10585ec392f8a,626b3b681008a24f06614200,,,,,,,,,,,,,,,,,,,,,,,a,0,1.9727,"[""0.041"",""0.309"",""0.588"",""0.841""]","[0,1,1,1]",0,59,59,59,1,1,1,,,0,FALSE,,,,,,,,,,,,,,,,,,,,,,,,,,,,,,
,6147974c3f998d226b9a11be,001,2022-04-28_20h12.41.000,classification_task,2021.2.3,MacIntel,60.0024001,6147974c3f998d226b9a11be,626b377229c10585ec392f8a,626b3b681008a24f06614200,,,,,,,,,,,,,,,,,,,,,,,a,0,1.2914,"[""0.082"",""0.892"",""0.588"",""0.841""]","[1,0,1,1]",0,60,60,60,1,1,1,,,0,FALSE,,,,,,,,,,,,,,,,,,,,,,,,,,,,,,
,6147974c3f998d226b9a11be,001,2022-04-28_20h12.41.000,classification_task,2021.2.3,MacIntel,60.0024001,6147974c3f998d226b9a11be,626b377229c10585ec392f8a,626b3b681008a24f06614200,,,,,,,,,,,,,,,,,,,,,,,l,0,1.197,"[""0.032"",""0.476"",""0.721"",""0.972""]","[0,1,1,1]",0,61,61,61,1,0,1,,,0,FALSE,,,,,,,,,,,,,,,,,,,,,,,,,,,,,,
,6147974c3f998d226b9a11be,001,2022-04-28_20h12.41.000,classification_task,2021.2.3,MacIntel,60.0024001,6147974c3f998d226b9a11be,626b377229c10585ec392f8a,626b3b681008a24f06614200,,,,,,,,,,,,,,,,,,,,,,,l,0,1.5015,"[""0.186"",""0.892"",""0.624"",""0.933""]","[1,0,1,1]",0,62,62,62,1,0,0,,,0,FALSE,,,,,,,,,,,,,,,,,,,,,,,,,,,,,,
,6147974c3f998d226b9a11be,001,2022-04-28_20h12.41.000,classification_task,2021.2.3,MacIntel,60.0024001,6147974c3f998d226b9a11be,626b377229c10585ec392f8a,626b3b681008a24f06614200,,,,,,,,,,,,,,,,,,,,,,,l,0,0.7482,"[""0.186"",""0.398"",""0.624"",""0.890""]","[1,1,1,0]",0,63,63,63,1,0,0,,,0,FALSE,,,,,,,,,,,,,,,,,,,,,,,,,,,,,,
,6147974c3f998d226b9a11be,001,2022-04-28_20h12.41.000,classification_task,2021.2.3,MacIntel,60.0024001,6147974c3f998d226b9a11be,626b377229c10585ec392f8a,626b3b681008a24f06614200,,,,,,,,,,,,,,,,,,,,,,,,,,,,,,,,,,,,,,,0, ,,0,8.952336746,202.5282,0,2,2,2,1,2,3,,,,,,,,,,,,,,,,,
,6147974c3f998d226b9a11be,001,2022-04-28_20h12.41.000,classification_task,2021.2.3,MacIntel,60.0024001,6147974c3f998d226b9a11be,626b377229c10585ec392f8a,626b3b681008a24f06614200,,,,,,,,,,,,,,,,,,,,,,,,,,,,,,,,,,,,,,,1,  ,,0,5.700422373,205.8642,0,2,2,2,1,2,3,,,,,,,,,,,,,,,,,
,6147974c3f998d226b9a11be,001,2022-04-28_20h12.41.000,classification_task,2021.2.3,MacIntel,60.0024001,6147974c3f998d226b9a11be,626b377229c10585ec392f8a,626b3b681008a24f06614200,,,,,,,,,,,,,,,,,,,,,,,,,,,,,,,,,,,,,,,2,  ,,0,2.275618116,207.6678,0,2,2,2,1,2,3,,,,,,,,,,,,,,,,,
,6147974c3f998d226b9a11be,001,2022-04-28_20h12.41.000,classification_task,2021.2.3,MacIntel,60.0024001,6147974c3f998d226b9a11be,626b377229c10585ec392f8a,626b3b681008a24f06614200,,,,,,,,,,,,,,,,,,,,,,,,,,,,,,,,,,,,,,,,,,,,,0,2,2,2,1,,3,,,,,,,,,,,,,,,,,
,6147974c3f998d226b9a11be,001,2022-04-28_20h12.41.000,classification_task,2021.2.3,MacIntel,60.0024001,6147974c3f998d226b9a11be,626b377229c10585ec392f8a,626b3b681008a24f06614200,,,,,,,,,,,,,,,,,,,,,,,,,,,,,,,,,,,,,,,,,,,,,,,,,,,,,I believe the aid is a competent performer,,0.7,0,4,1140.5544,0,0,0,0,1,0,,,,
,6147974c3f998d226b9a11be,001,2022-04-28_20h12.41.000,classification_task,2021.2.3,MacIntel,60.0024001,6147974c3f998d226b9a11be,626b377229c10585ec392f8a,626b3b681008a24f06614200,,,,,,,,,,,,,,,,,,,,,,,,,,,,,,,,,,,,,,,,,,,,,,,,,,,,,I trust the aid,,0.7,0,5,1142.4984,0,0,0,0,1,0,,,,
,6147974c3f998d226b9a11be,001,2022-04-28_20h12.41.000,classification_task,2021.2.3,MacIntel,60.0024001,6147974c3f998d226b9a11be,626b377229c10585ec392f8a,626b3b681008a24f06614200,,,,,,,,,,,,,,,,,,,,,,,,,,,,,,,,,,,,,,,,,,,,,,,,,,,,,I have confidence in the advice given by the aid,,0.7,0,5,1144.0777,0,0,0,0,1,0,,,,
,6147974c3f998d226b9a11be,001,2022-04-28_20h12.41.000,classification_task,2021.2.3,MacIntel,60.0024001,6147974c3f998d226b9a11be,626b377229c10585ec392f8a,626b3b681008a24f06614200,,,,,,,,,,,,,,,,,,,,,,,,,,,,,,,,,,,,,,,,,,,,,,,,,,,,,I can depend on the aid,,0.7,0,5,1145.9134,0,0,0,0,1,0,,,,
,6147974c3f998d226b9a11be,001,2022-04-28_20h12.41.000,classification_task,2021.2.3,MacIntel,60.0024001,6147974c3f998d226b9a11be,626b377229c10585ec392f8a,626b3b681008a24f06614200,,,,,,,,,,,,,,,,,,,,,,,,,,,,,,,,,,,,,,,,,,,,,,,,,,,,,I can rely on the aid to behave in consistent ways,,0.7,0,4,1152.5486,0,0,0,0,1,0,,,,
,6147974c3f998d226b9a11be,001,2022-04-28_20h12.41.000,classification_task,2021.2.3,MacIntel,60.0024001,6147974c3f998d226b9a11be,626b377229c10585ec392f8a,626b3b681008a24f06614200,,,,,,,,,,,,,,,,,,,,,,,,,,,,,,,,,,,,,,,,,,,,,,,,,,,,,I can rely on the aid to do its best every time I take its advice,,0.7,0,5,1158.1098,0,0,0,0,1,0,,,,
,6147974c3f998d226b9a11be,001,2022-04-28_20h12.41.000,classification_task,2021.2.3,MacIntel,60.0024001,6147974c3f998d226b9a11be,626b377229c10585ec392f8a,626b3b681008a24f06614200,,,,,,,,,,,,,,,,,,,,,,,,,,,,,,,,,,,,,,,,,,,,,,,,,,,,,"On trials you completed with assistance from the aid, how frequently did you think the aid was correct?",,0.7,0,100%,,0,0,0,0,1,0,,,,
,6147974c3f998d226b9a11be,001,2022-04-28_20h12.41.000,classification_task,2021.2.3,MacIntel,60.0024001,6147974c3f998d226b9a11be,626b377229c10585ec392f8a,626b3b681008a24f06614200,,,,,,,,,,,,,,,,,,,,,,,,,,,,,,,,,,,,,,,,,,,,,,,,,,,,,"On trials you completed without the aid, how frequently did you think you were correct?",,0.7,0,40%,,0,0,0,0,1,0,,,,
,6147974c3f998d226b9a11be,001,2022-04-28_20h12.41.000,classification_task,2021.2.3,MacIntel,60.0024001,6147974c3f998d226b9a11be,626b377229c10585ec392f8a,626b3b681008a24f06614200,,,,,,,,,,,,,,,,,,,,,,,,,,,,,,,,,,,,,,,,,,,,,,,,,,,,,,,,,,,0,0,0,0,1,,,,,
,6147974c3f998d226b9a11be,001,2022-04-28_20h12.41.000,classification_task,2021.2.3,MacIntel,60.0024001,6147974c3f998d226b9a11be,626b377229c10585ec392f8a,626b3b681008a24f06614200,,,,,,,,,,,,,,,,,,,,,,,,,,,,,,,,,,,,,,,,,,,,,,,,,,,,,,,,,,,,,,,,,space,10.2552,1189.583,
,6147974c3f998d226b9a11be,001,2022-04-28_20h12.41.000,classification_task,2021.2.3,MacIntel,60.0024001,6147974c3f998d226b9a11be,626b377229c10585ec392f8a,626b3b681008a24f06614200,,,,,,,,,,,,,,,,,,,,,,,,,,,,,,,,,,,,,,,,,,,,,,,,,,,,,,,,,,,,,,,,,,,,"Mozilla/5.0 (Macintosh; Intel Mac OS X 10_15_7) AppleWebKit/537.36 (KHTML, like Gecko) Chrome/100.0.4896.127 Safari/537.36"
