usingWebGL,participant,session,date,expName,psychopyVersion,OS,frameRate,study_id,signatures_friend,signatures_foe,band_ranges_top,band_ranges_bottom,formitemText,formtype,formundefined,formitemWidth,formindex,formresponse,formrt,key_resp_2.keys,key_resp_2.rt,tute_resp.keys,tute_resp.rt,tutorial.thisRepN,tutorial.thisTrialN,tutorial.thisN,tutorial.thisIndex,tutorial.ran,key_resp_4.keys,key_resp_4.rt,key_resp.keys,key_resp.corr,lines_presented,is_signal_presented,trials.thisRepN,trials.thisTrialN,trials.thisN,trials.thisIndex,trials.ran,vessel,active_band,lines,is_signal,supported_pos,catch_trial,key_resp.rt,debrief_formindex,debrief_formitemText,debrief_formtype,debrief_formitemWidth,debrief_formresponse,debrief_formrt,phases.thisRepN,phases.thisTrialN,phases.thisN,phases.thisIndex,phases.ran,phases.order,phase,key_resp_3.keys,trustitemText,trusttype,trustitemWidth,trustindex,trustresponse,trustrt,support_status.thisRepN,support_status.thisTrialN,support_status.thisN,support_status.thisIndex,support_status.ran,support_status.order,key_resp_5.keys,key_resp_5.rt,globalClockTime,userAgent,manualCondition
TRUE,61474637ab0ca7e2f61eca1b,627c67dd48e5dba52a8068ce,2022-05-12_03h52.43.216,classification_task,2021.2.3,Win32,60.00960154,627c6715c52fd12f31907bcf,,,,,,,,,,,,,,,,,,,,,,,,,,,,,,,,,,,,,,,,,,,,,,,,,,,,,,,,,,,,,,,,,,,,,
,61474637ab0ca7e2f61eca1b,627c67dd48e5dba52a8068ce,2022-05-12_03h52.43.216,classification_task,2021.2.3,Win32,60.00960154,627c6715c52fd12f31907bcf,"[[""0.286"",""0.390"",""0.844"",""0.919""],[""0.321"",""0.553"",""0.709"",""0.971""]]","[[""0.061"",""0.205"",""0.452"",""0.751""],[""0.125"",""0.243"",""0.502"",""0.786""]]","[1,10]","[100,1000]",Video game experience,,,0.7,0,,,,,,,,,,,,,,,,,,,,,,,,,,,,,,,,,,,,,,,,,,,,,,,,,,,,,,,,,,,,
,61474637ab0ca7e2f61eca1b,627c67dd48e5dba52a8068ce,2022-05-12_03h52.43.216,classification_task,2021.2.3,Win32,60.00960154,627c6715c52fd12f31907bcf,,,,,Approximately how many hours did you spend playing video games in the last week?,,,0.7,0,2,,,,,,,,,,,,,,,,,,,,,,,,,,,,,,,,,,,,,,,,,,,,,,,,,,,,,,,,,,,
,61474637ab0ca7e2f61eca1b,627c67dd48e5dba52a8068ce,2022-05-12_03h52.43.216,classification_task,2021.2.3,Win32,60.00960154,627c6715c52fd12f31907bcf,,,,,"Which game did you play the most this year? (Enter ""None"" if you didn't play any)",,,0.7,0,CALL OF DUTY,,,,,,,,,,,,,,,,,,,,,,,,,,,,,,,,,,,,,,,,,,,,,,,,,,,,,,,,,,,
,61474637ab0ca7e2f61eca1b,627c67dd48e5dba52a8068ce,2022-05-12_03h52.43.216,classification_task,2021.2.3,Win32,60.00960154,627c6715c52fd12f31907bcf,,,,,Visual perception,,,0.7,0,,,,,,,,,,,,,,,,,,,,,,,,,,,,,,,,,,,,,,,,,,,,,,,,,,,,,,,,,,,,
,61474637ab0ca7e2f61eca1b,627c67dd48e5dba52a8068ce,2022-05-12_03h52.43.216,classification_task,2021.2.3,Win32,60.00960154,627c6715c52fd12f31907bcf,,,,,Do you have any form of color blindness?,,,0.7,0,No,67.7856,,,,,,,,,,,,,,,,,,,,,,,,,,,,,,,,,,,,,,,,,,,,,,,,,,,,,,,,,,
,61474637ab0ca7e2f61eca1b,627c67dd48e5dba52a8068ce,2022-05-12_03h52.43.216,classification_task,2021.2.3,Win32,60.00960154,627c6715c52fd12f31907bcf,,,,,Do you use software to change the colour temperature of your screen (e.g. f.lux)?,,,0.7,0,No,72.0261,,,,,,,,,,,,,,,,,,,,,,,,,,,,,,,,,,,,,,,,,,,,,,,,,,,,,,,,,,
,61474637ab0ca7e2f61eca1b,627c67dd48e5dba52a8068ce,2022-05-12_03h52.43.216,classification_task,2021.2.3,Win32,60.00960154,627c6715c52fd12f31907bcf,,,,,,,,,,,,space,52.1414,space,15.2172,0,0,0,0,1,,,,,,,,,,,,,,,,,,,,,,,,,,,,,,,,,,,,,,,,,,,,,,,,,
,61474637ab0ca7e2f61eca1b,627c67dd48e5dba52a8068ce,2022-05-12_03h52.43.216,classification_task,2021.2.3,Win32,60.00960154,627c6715c52fd12f31907bcf,,,,,,,,,,,,,,space,29.661,1,0,1,0,1,,,,,,,,,,,,,,,,,,,,,,,,,,,,,,,,,,,,,,,,,,,,,,,,,
,61474637ab0ca7e2f61eca1b,627c67dd48e5dba52a8068ce,2022-05-12_03h52.43.216,classification_task,2021.2.3,Win32,60.00960154,627c6715c52fd12f31907bcf,,,,,,,,,,,,,,space,91.1705,2,0,2,0,1,,,,,,,,,,,,,,,,,,,,,,,,,,,,,,,,,,,,,,,,,,,,,,,,,
,61474637ab0ca7e2f61eca1b,627c67dd48e5dba52a8068ce,2022-05-12_03h52.43.216,classification_task,2021.2.3,Win32,60.00960154,627c6715c52fd12f31907bcf,,,,,,,,,,,,,,space,17.2647,3,0,3,0,1,,,,,,,,,,,,,,,,,,,,,,,,,,,,,,,,,,,,,,,,,,,,,,,,,
,61474637ab0ca7e2f61eca1b,627c67dd48e5dba52a8068ce,2022-05-12_03h52.43.216,classification_task,2021.2.3,Win32,60.00960154,627c6715c52fd12f31907bcf,,,,,,,,,,,,,,space,19.8039,4,0,4,0,1,,,,,,,,,,,,,,,,,,,,,,,,,,,,,,,,,,,,,,,,,,,,,,,,,
,61474637ab0ca7e2f61eca1b,627c67dd48e5dba52a8068ce,2022-05-12_03h52.43.216,classification_task,2021.2.3,Win32,60.00960154,627c6715c52fd12f31907bcf,,,,,,,,,,,,,,,,,,,,,space,31.2966,,0,"[""0.125"",""0.601"",""0.502"",""0.786""]","[1,0,1,1]",0,0,0,0,1,1,1,,,0,FALSE,,,,,,,,,,,,,,,,,,,,,,,,,,,,,,,,
,61474637ab0ca7e2f61eca1b,627c67dd48e5dba52a8068ce,2022-05-12_03h52.43.216,classification_task,2021.2.3,Win32,60.00960154,627c6715c52fd12f31907bcf,,,,,,,,,,,,,,,,,,,,,,,a,1,"[""0.321"",""0.609"",""0.709"",""0.971""]","[1,0,1,1]",0,1,1,1,1,0,1,,,0,FALSE,4.9862,,,,,,,,,,,,,,,,,,,,,,,,,,,,,,,
,61474637ab0ca7e2f61eca1b,627c67dd48e5dba52a8068ce,2022-05-12_03h52.43.216,classification_task,2021.2.3,Win32,60.00960154,627c6715c52fd12f31907bcf,,,,,,,,,,,,,,,,,,,,,,,l,1,"[""0.620"",""0.243"",""0.502"",""0.786""]","[0,1,1,1]",0,2,2,2,1,1,1,,,0,FALSE,7.8483,,,,,,,,,,,,,,,,,,,,,,,,,,,,,,,
,61474637ab0ca7e2f61eca1b,627c67dd48e5dba52a8068ce,2022-05-12_03h52.43.216,classification_task,2021.2.3,Win32,60.00960154,627c6715c52fd12f31907bcf,,,,,,,,,,,,,,,,,,,,,,,a,1,"[""0.286"",""0.390"",""0.600"",""0.919""]","[1,1,0,1]",0,3,3,3,1,0,0,,,0,FALSE,9.1475,,,,,,,,,,,,,,,,,,,,,,,,,,,,,,,
,61474637ab0ca7e2f61eca1b,627c67dd48e5dba52a8068ce,2022-05-12_03h52.43.216,classification_task,2021.2.3,Win32,60.00960154,627c6715c52fd12f31907bcf,,,,,,,,,,,,,,,,,,,,,,,l,1,"[""0.061"",""0.205"",""0.452"",""0.614""]","[1,1,1,0]",0,4,4,4,1,1,0,,,0,FALSE,5.9154,,,,,,,,,,,,,,,,,,,,,,,,,,,,,,,
,61474637ab0ca7e2f61eca1b,627c67dd48e5dba52a8068ce,2022-05-12_03h52.43.216,classification_task,2021.2.3,Win32,60.00960154,627c6715c52fd12f31907bcf,,,,,,,,,,,,,,,,,,,,,,,l,1,"[""0.061"",""0.205"",""0.590"",""0.751""]","[1,1,0,1]",0,5,5,5,1,1,0,,,0,FALSE,3.6759,,,,,,,,,,,,,,,,,,,,,,,,,,,,,,,
,61474637ab0ca7e2f61eca1b,627c67dd48e5dba52a8068ce,2022-05-12_03h52.43.216,classification_task,2021.2.3,Win32,60.00960154,627c6715c52fd12f31907bcf,,,,,,,,,,,,,,,,,,,,,,,l,1,"[""0.125"",""0.243"",""0.027"",""0.786""]","[1,1,0,1]",0,6,6,6,1,1,1,,,0,FALSE,5.8092,,,,,,,,,,,,,,,,,,,,,,,,,,,,,,,
,61474637ab0ca7e2f61eca1b,627c67dd48e5dba52a8068ce,2022-05-12_03h52.43.216,classification_task,2021.2.3,Win32,60.00960154,627c6715c52fd12f31907bcf,,,,,,,,,,,,,,,,,,,,,,,l,1,"[""0.125"",""0.243"",""0.502"",""0.620""]","[1,1,1,0]",0,7,7,7,1,1,1,,,0,FALSE,5.1515,,,,,,,,,,,,,,,,,,,,,,,,,,,,,,,
,61474637ab0ca7e2f61eca1b,627c67dd48e5dba52a8068ce,2022-05-12_03h52.43.216,classification_task,2021.2.3,Win32,60.00960154,627c6715c52fd12f31907bcf,,,,,,,,,,,,,,,,,,,,,,,a,1,"[""0.321"",""0.553"",""0.709"",""0.609""]","[1,1,1,0]",0,8,8,8,1,0,1,,,0,FALSE,3.0433,,,,,,,,,,,,,,,,,,,,,,,,,,,,,,,
,61474637ab0ca7e2f61eca1b,627c67dd48e5dba52a8068ce,2022-05-12_03h52.43.216,classification_task,2021.2.3,Win32,60.00960154,627c6715c52fd12f31907bcf,,,,,,,,,,,,,,,,,,,,,,,l,1,"[""0.061"",""0.629"",""0.452"",""0.751""]","[1,0,1,1]",0,9,9,9,1,1,0,,,0,FALSE,4.6036,,,,,,,,,,,,,,,,,,,,,,,,,,,,,,,
,61474637ab0ca7e2f61eca1b,627c67dd48e5dba52a8068ce,2022-05-12_03h52.43.216,classification_task,2021.2.3,Win32,60.00960154,627c6715c52fd12f31907bcf,,,,,,,,,,,,,,,,,,,,,,,l,0,"[""0.620"",""0.553"",""0.709"",""0.971""]","[0,1,1,1]",0,10,10,10,1,0,1,,,0,FALSE,6.9281,,,,,,,,,,,,,,,,,,,,,,,,,,,,,,,
,61474637ab0ca7e2f61eca1b,627c67dd48e5dba52a8068ce,2022-05-12_03h52.43.216,classification_task,2021.2.3,Win32,60.00960154,627c6715c52fd12f31907bcf,,,,,,,,,,,,,,,,,,,,,,,l,0,"[""0.620"",""0.390"",""0.844"",""0.919""]","[0,1,1,1]",0,11,11,11,1,0,0,,,0,FALSE,6.5103,,,,,,,,,,,,,,,,,,,,,,,,,,,,,,,
,61474637ab0ca7e2f61eca1b,627c67dd48e5dba52a8068ce,2022-05-12_03h52.43.216,classification_task,2021.2.3,Win32,60.00960154,627c6715c52fd12f31907bcf,,,,,,,,,,,,,,,,,,,,,,,l,1,"[""0.601"",""0.205"",""0.452"",""0.751""]","[0,1,1,1]",0,12,12,12,1,1,0,,,0,FALSE,3.9769,,,,,,,,,,,,,,,,,,,,,,,,,,,,,,,
,61474637ab0ca7e2f61eca1b,627c67dd48e5dba52a8068ce,2022-05-12_03h52.43.216,classification_task,2021.2.3,Win32,60.00960154,627c6715c52fd12f31907bcf,,,,,,,,,,,,,,,,,,,,,,,a,1,"[""0.286"",""0.609"",""0.844"",""0.919""]","[1,0,1,1]",0,13,13,13,1,0,0,,,0,FALSE,2.9594,,,,,,,,,,,,,,,,,,,,,,,,,,,,,,,
,61474637ab0ca7e2f61eca1b,627c67dd48e5dba52a8068ce,2022-05-12_03h52.43.216,classification_task,2021.2.3,Win32,60.00960154,627c6715c52fd12f31907bcf,,,,,,,,,,,,,,,,,,,,,,,a,1,"[""0.321"",""0.553"",""0.620"",""0.971""]","[1,1,0,1]",0,14,14,14,1,0,1,,,0,FALSE,0.0265,,,,,,,,,,,,,,,,,,,,,,,,,,,,,,,
,61474637ab0ca7e2f61eca1b,627c67dd48e5dba52a8068ce,2022-05-12_03h52.43.216,classification_task,2021.2.3,Win32,60.00960154,627c6715c52fd12f31907bcf,,,,,,,,,,,,,,,,,,,,,,,a,1,"[""0.286"",""0.390"",""0.844"",""0.027""]","[1,1,1,0]",0,15,15,15,1,0,0,,,0,FALSE,2.374,,,,,,,,,,,,,,,,,,,,,,,,,,,,,,,
,61474637ab0ca7e2f61eca1b,627c67dd48e5dba52a8068ce,2022-05-12_03h52.43.216,classification_task,2021.2.3,Win32,60.00960154,627c6715c52fd12f31907bcf,,,,,,,,,,,,,,,,,,,,,,,l,1,"[""0.125"",""0.243"",""0.502"",""0.608""]","[1,1,1,0]",0,16,16,16,1,1,1,,,0,FALSE,2.6823,,,,,,,,,,,,,,,,,,,,,,,,,,,,,,,
,61474637ab0ca7e2f61eca1b,627c67dd48e5dba52a8068ce,2022-05-12_03h52.43.216,classification_task,2021.2.3,Win32,60.00960154,627c6715c52fd12f31907bcf,,,,,,,,,,,,,,,,,,,,,,,l,0,"[""0.600"",""0.553"",""0.709"",""0.971""]","[0,1,1,1]",0,17,17,17,1,0,1,,,0,FALSE,3.2686,,,,,,,,,,,,,,,,,,,,,,,,,,,,,,,
,61474637ab0ca7e2f61eca1b,627c67dd48e5dba52a8068ce,2022-05-12_03h52.43.216,classification_task,2021.2.3,Win32,60.00960154,627c6715c52fd12f31907bcf,,,,,,,,,,,,,,,,,,,,,,,l,1,"[""0.061"",""0.205"",""0.674"",""0.751""]","[1,1,0,1]",0,18,18,18,1,1,0,,,0,FALSE,2.0821,,,,,,,,,,,,,,,,,,,,,,,,,,,,,,,
,61474637ab0ca7e2f61eca1b,627c67dd48e5dba52a8068ce,2022-05-12_03h52.43.216,classification_task,2021.2.3,Win32,60.00960154,627c6715c52fd12f31907bcf,,,,,,,,,,,,,,,,,,,,,,,l,1,"[""0.160"",""0.243"",""0.502"",""0.786""]","[0,1,1,1]",0,19,19,19,1,1,1,,,0,FALSE,5.3355,,,,,,,,,,,,,,,,,,,,,,,,,,,,,,,
,61474637ab0ca7e2f61eca1b,627c67dd48e5dba52a8068ce,2022-05-12_03h52.43.216,classification_task,2021.2.3,Win32,60.00960154,627c6715c52fd12f31907bcf,,,,,,,,,,,,,,,,,,,,,,,l,1,"[""0.125"",""0.243"",""0.629"",""0.786""]","[1,1,0,1]",0,20,20,20,1,1,1,,,0,FALSE,3.9477,,,,,,,,,,,,,,,,,,,,,,,,,,,,,,,
,61474637ab0ca7e2f61eca1b,627c67dd48e5dba52a8068ce,2022-05-12_03h52.43.216,classification_task,2021.2.3,Win32,60.00960154,627c6715c52fd12f31907bcf,,,,,,,,,,,,,,,,,,,,,,,l,0,"[""0.286"",""0.390"",""0.027"",""0.919""]","[1,1,0,1]",0,21,21,21,1,0,0,,,0,FALSE,5.7876,,,,,,,,,,,,,,,,,,,,,,,,,,,,,,,
,61474637ab0ca7e2f61eca1b,627c67dd48e5dba52a8068ce,2022-05-12_03h52.43.216,classification_task,2021.2.3,Win32,60.00960154,627c6715c52fd12f31907bcf,,,,,,,,,,,,,,,,,,,,,,,l,1,"[""0.125"",""0.605"",""0.502"",""0.786""]","[1,0,1,1]",0,22,22,22,1,1,1,,,0,FALSE,3.5099,,,,,,,,,,,,,,,,,,,,,,,,,,,,,,,
,61474637ab0ca7e2f61eca1b,627c67dd48e5dba52a8068ce,2022-05-12_03h52.43.216,classification_task,2021.2.3,Win32,60.00960154,627c6715c52fd12f31907bcf,,,,,,,,,,,,,,,,,,,,,,,a,1,"[""0.321"",""0.553"",""0.620"",""0.971""]","[1,1,0,1]",0,23,23,23,1,0,1,,,0,FALSE,3.519,,,,,,,,,,,,,,,,,,,,,,,,,,,,,,,
,61474637ab0ca7e2f61eca1b,627c67dd48e5dba52a8068ce,2022-05-12_03h52.43.216,classification_task,2021.2.3,Win32,60.00960154,627c6715c52fd12f31907bcf,,,,,,,,,,,,,,,,,,,,,,,l,1,"[""0.061"",""0.205"",""0.452"",""0.619""]","[1,1,1,0]",0,24,24,24,1,1,0,,,0,FALSE,3.7132,,,,,,,,,,,,,,,,,,,,,,,,,,,,,,,
,61474637ab0ca7e2f61eca1b,627c67dd48e5dba52a8068ce,2022-05-12_03h52.43.216,classification_task,2021.2.3,Win32,60.00960154,627c6715c52fd12f31907bcf,,,,,,,,,,,,,,,,,,,,,,,a,1,"[""0.286"",""0.390"",""0.844"",""0.605""]","[1,1,1,0]",0,25,25,25,1,0,0,,,0,FALSE,3.2342,,,,,,,,,,,,,,,,,,,,,,,,,,,,,,,
,61474637ab0ca7e2f61eca1b,627c67dd48e5dba52a8068ce,2022-05-12_03h52.43.216,classification_task,2021.2.3,Win32,60.00960154,627c6715c52fd12f31907bcf,,,,,,,,,,,,,,,,,,,,,,,a,1,"[""0.321"",""0.553"",""0.709"",""0.601""]","[1,1,1,0]",0,26,26,26,1,0,1,,,0,FALSE,3.5414,,,,,,,,,,,,,,,,,,,,,,,,,,,,,,,
,61474637ab0ca7e2f61eca1b,627c67dd48e5dba52a8068ce,2022-05-12_03h52.43.216,classification_task,2021.2.3,Win32,60.00960154,627c6715c52fd12f31907bcf,,,,,,,,,,,,,,,,,,,,,,,l,1,"[""0.653"",""0.205"",""0.452"",""0.751""]","[0,1,1,1]",0,27,27,27,1,1,0,,,0,FALSE,4.589,,,,,,,,,,,,,,,,,,,,,,,,,,,,,,,
,61474637ab0ca7e2f61eca1b,627c67dd48e5dba52a8068ce,2022-05-12_03h52.43.216,classification_task,2021.2.3,Win32,60.00960154,627c6715c52fd12f31907bcf,,,,,,,,,,,,,,,,,,,,,,,a,1,"[""0.629"",""0.390"",""0.844"",""0.919""]","[0,1,1,1]",0,28,28,28,1,0,0,,,0,FALSE,3.3282,,,,,,,,,,,,,,,,,,,,,,,,,,,,,,,
,61474637ab0ca7e2f61eca1b,627c67dd48e5dba52a8068ce,2022-05-12_03h52.43.216,classification_task,2021.2.3,Win32,60.00960154,627c6715c52fd12f31907bcf,,,,,,,,,,,,,,,,,,,,,,,l,0,"[""0.286"",""0.601"",""0.844"",""0.919""]","[1,0,1,1]",0,29,29,29,1,0,0,,,0,FALSE,5.7531,,,,,,,,,,,,,,,,,,,,,,,,,,,,,,,
,61474637ab0ca7e2f61eca1b,627c67dd48e5dba52a8068ce,2022-05-12_03h52.43.216,classification_task,2021.2.3,Win32,60.00960154,627c6715c52fd12f31907bcf,,,,,,,,,,,,,,,,,,,,,,,a,1,"[""0.321"",""0.590"",""0.709"",""0.971""]","[1,0,1,1]",0,30,30,30,1,0,1,,,0,FALSE,4.2802,,,,,,,,,,,,,,,,,,,,,,,,,,,,,,,
,61474637ab0ca7e2f61eca1b,627c67dd48e5dba52a8068ce,2022-05-12_03h52.43.216,classification_task,2021.2.3,Win32,60.00960154,627c6715c52fd12f31907bcf,,,,,,,,,,,,,,,,,,,,,,,l,1,"[""0.061"",""0.608"",""0.452"",""0.751""]","[1,0,1,1]",0,31,31,31,1,1,0,,,0,FALSE,4.3976,,,,,,,,,,,,,,,,,,,,,,,,,,,,,,,
,61474637ab0ca7e2f61eca1b,627c67dd48e5dba52a8068ce,2022-05-12_03h52.43.216,classification_task,2021.2.3,Win32,60.00960154,627c6715c52fd12f31907bcf,,,,,,,,,,,,,,,,,,,,,,,a,1,"[""0.321"",""0.553"",""0.600"",""0.971""]","[1,1,0,1]",0,32,32,32,1,0,1,,,0,FALSE,9.5208,,,,,,,,,,,,,,,,,,,,,,,,,,,,,,,
,61474637ab0ca7e2f61eca1b,627c67dd48e5dba52a8068ce,2022-05-12_03h52.43.216,classification_task,2021.2.3,Win32,60.00960154,627c6715c52fd12f31907bcf,,,,,,,,,,,,,,,,,,,,,,,l,0,"[""0.600"",""0.553"",""0.709"",""0.971""]","[0,1,1,1]",0,33,33,33,1,0,1,,,0,FALSE,5.1833,,,,,,,,,,,,,,,,,,,,,,,,,,,,,,,
,61474637ab0ca7e2f61eca1b,627c67dd48e5dba52a8068ce,2022-05-12_03h52.43.216,classification_task,2021.2.3,Win32,60.00960154,627c6715c52fd12f31907bcf,,,,,,,,,,,,,,,,,,,,,,,a,0,"[""0.125"",""0.243"",""0.502"",""0.605""]","[1,1,1,0]",0,34,34,34,1,1,1,,,0,FALSE,2.1962,,,,,,,,,,,,,,,,,,,,,,,,,,,,,,,
,61474637ab0ca7e2f61eca1b,627c67dd48e5dba52a8068ce,2022-05-12_03h52.43.216,classification_task,2021.2.3,Win32,60.00960154,627c6715c52fd12f31907bcf,,,,,,,,,,,,,,,,,,,,,,,l,0,"[""0.286"",""0.390"",""0.614"",""0.919""]","[1,1,0,1]",0,35,35,35,1,0,0,,,0,FALSE,1.7263,,,,,,,,,,,,,,,,,,,,,,,,,,,,,,,
,61474637ab0ca7e2f61eca1b,627c67dd48e5dba52a8068ce,2022-05-12_03h52.43.216,classification_task,2021.2.3,Win32,60.00960154,627c6715c52fd12f31907bcf,,,,,,,,,,,,,,,,,,,,,,,a,0,"[""0.125"",""0.620"",""0.502"",""0.786""]","[1,0,1,1]",0,36,36,36,1,1,1,,,0,FALSE,1.6243,,,,,,,,,,,,,,,,,,,,,,,,,,,,,,,
,61474637ab0ca7e2f61eca1b,627c67dd48e5dba52a8068ce,2022-05-12_03h52.43.216,classification_task,2021.2.3,Win32,60.00960154,627c6715c52fd12f31907bcf,,,,,,,,,,,,,,,,,,,,,,,a,0,"[""0.061"",""0.205"",""0.160"",""0.751""]","[1,1,0,1]",0,37,37,37,1,1,0,,,0,FALSE,1.3666,,,,,,,,,,,,,,,,,,,,,,,,,,,,,,,
,61474637ab0ca7e2f61eca1b,627c67dd48e5dba52a8068ce,2022-05-12_03h52.43.216,classification_task,2021.2.3,Win32,60.00960154,627c6715c52fd12f31907bcf,,,,,,,,,,,,,,,,,,,,,,,l,1,"[""0.061"",""0.590"",""0.452"",""0.751""]","[1,0,1,1]",0,38,38,38,1,1,0,,,0,FALSE,0.8826,,,,,,,,,,,,,,,,,,,,,,,,,,,,,,,
,61474637ab0ca7e2f61eca1b,627c67dd48e5dba52a8068ce,2022-05-12_03h52.43.216,classification_task,2021.2.3,Win32,60.00960154,627c6715c52fd12f31907bcf,,,,,,,,,,,,,,,,,,,,,,,l,1,"[""0.061"",""0.205"",""0.452"",""0.605""]","[1,1,1,0]",0,39,39,39,1,1,0,,,0,FALSE,1.2614,,,,,,,,,,,,,,,,,,,,,,,,,,,,,,,
,61474637ab0ca7e2f61eca1b,627c67dd48e5dba52a8068ce,2022-05-12_03h52.43.216,classification_task,2021.2.3,Win32,60.00960154,627c6715c52fd12f31907bcf,,,,,,,,,,,,,,,,,,,,,,,a,0,"[""0.125"",""0.243"",""0.609"",""0.786""]","[1,1,0,1]",0,40,40,40,1,1,1,,,0,FALSE,3.7485,,,,,,,,,,,,,,,,,,,,,,,,,,,,,,,
,61474637ab0ca7e2f61eca1b,627c67dd48e5dba52a8068ce,2022-05-12_03h52.43.216,classification_task,2021.2.3,Win32,60.00960154,627c6715c52fd12f31907bcf,,,,,,,,,,,,,,,,,,,,,,,l,0,"[""0.600"",""0.390"",""0.844"",""0.919""]","[0,1,1,1]",0,41,41,41,1,0,0,,,0,FALSE,1.9584,,,,,,,,,,,,,,,,,,,,,,,,,,,,,,,
,61474637ab0ca7e2f61eca1b,627c67dd48e5dba52a8068ce,2022-05-12_03h52.43.216,classification_task,2021.2.3,Win32,60.00960154,627c6715c52fd12f31907bcf,,,,,,,,,,,,,,,,,,,,,,,l,0,"[""0.286"",""0.653"",""0.844"",""0.919""]","[1,0,1,1]",0,42,42,42,1,0,0,,,0,FALSE,1.3577,,,,,,,,,,,,,,,,,,,,,,,,,,,,,,,
,61474637ab0ca7e2f61eca1b,627c67dd48e5dba52a8068ce,2022-05-12_03h52.43.216,classification_task,2021.2.3,Win32,60.00960154,627c6715c52fd12f31907bcf,,,,,,,,,,,,,,,,,,,,,,,a,1,"[""0.286"",""0.390"",""0.844"",""0.600""]","[1,1,1,0]",0,43,43,43,1,0,0,,,0,FALSE,0.7656,,,,,,,,,,,,,,,,,,,,,,,,,,,,,,,
,61474637ab0ca7e2f61eca1b,627c67dd48e5dba52a8068ce,2022-05-12_03h52.43.216,classification_task,2021.2.3,Win32,60.00960154,627c6715c52fd12f31907bcf,,,,,,,,,,,,,,,,,,,,,,,a,0,"[""0.600"",""0.205"",""0.452"",""0.751""]","[0,1,1,1]",0,44,44,44,1,1,0,,,0,FALSE,2.9806,,,,,,,,,,,,,,,,,,,,,,,,,,,,,,,
,61474637ab0ca7e2f61eca1b,627c67dd48e5dba52a8068ce,2022-05-12_03h52.43.216,classification_task,2021.2.3,Win32,60.00960154,627c6715c52fd12f31907bcf,,,,,,,,,,,,,,,,,,,,,,,l,1,"[""0.605"",""0.243"",""0.502"",""0.786""]","[0,1,1,1]",0,45,45,45,1,1,1,,,0,FALSE,2.262,,,,,,,,,,,,,,,,,,,,,,,,,,,,,,,
,61474637ab0ca7e2f61eca1b,627c67dd48e5dba52a8068ce,2022-05-12_03h52.43.216,classification_task,2021.2.3,Win32,60.00960154,627c6715c52fd12f31907bcf,,,,,,,,,,,,,,,,,,,,,,,l,0,"[""0.321"",""0.553"",""0.709"",""0.629""]","[1,1,1,0]",0,46,46,46,1,0,1,,,0,FALSE,1.9492,,,,,,,,,,,,,,,,,,,,,,,,,,,,,,,
,61474637ab0ca7e2f61eca1b,627c67dd48e5dba52a8068ce,2022-05-12_03h52.43.216,classification_task,2021.2.3,Win32,60.00960154,627c6715c52fd12f31907bcf,,,,,,,,,,,,,,,,,,,,,,,a,1,"[""0.321"",""0.601"",""0.709"",""0.971""]","[1,0,1,1]",0,47,47,47,1,0,1,,,0,FALSE,1.0907,,,,,,,,,,,,,,,,,,,,,,,,,,,,,,,
,61474637ab0ca7e2f61eca1b,627c67dd48e5dba52a8068ce,2022-05-12_03h52.43.216,classification_task,2021.2.3,Win32,60.00960154,627c6715c52fd12f31907bcf,,,,,,,,,,,,,,,,,,,,,,,a,1,"[""0.321"",""0.553"",""0.590"",""0.971""]","[1,1,0,1]",0,48,48,48,1,0,1,,,0,FALSE,1.4219,,,,,,,,,,,,,,,,,,,,,,,,,,,,,,,
,61474637ab0ca7e2f61eca1b,627c67dd48e5dba52a8068ce,2022-05-12_03h52.43.216,classification_task,2021.2.3,Win32,60.00960154,627c6715c52fd12f31907bcf,,,,,,,,,,,,,,,,,,,,,,,l,0,"[""0.286"",""0.390"",""0.844"",""0.605""]","[1,1,1,0]",0,49,49,49,1,0,0,,,0,FALSE,1.4161,,,,,,,,,,,,,,,,,,,,,,,,,,,,,,,
,61474637ab0ca7e2f61eca1b,627c67dd48e5dba52a8068ce,2022-05-12_03h52.43.216,classification_task,2021.2.3,Win32,60.00960154,627c6715c52fd12f31907bcf,,,,,,,,,,,,,,,,,,,,,,,a,0,"[""0.061"",""0.205"",""0.614"",""0.751""]","[1,1,0,1]",0,50,50,50,1,1,0,,,0,FALSE,1.485,,,,,,,,,,,,,,,,,,,,,,,,,,,,,,,
,61474637ab0ca7e2f61eca1b,627c67dd48e5dba52a8068ce,2022-05-12_03h52.43.216,classification_task,2021.2.3,Win32,60.00960154,627c6715c52fd12f31907bcf,,,,,,,,,,,,,,,,,,,,,,,l,0,"[""0.286"",""0.390"",""0.160"",""0.919""]","[1,1,0,1]",0,51,51,51,1,0,0,,,0,FALSE,0.8077,,,,,,,,,,,,,,,,,,,,,,,,,,,,,,,
,61474637ab0ca7e2f61eca1b,627c67dd48e5dba52a8068ce,2022-05-12_03h52.43.216,classification_task,2021.2.3,Win32,60.00960154,627c6715c52fd12f31907bcf,,,,,,,,,,,,,,,,,,,,,,,a,0,"[""0.027"",""0.205"",""0.452"",""0.751""]","[0,1,1,1]",0,52,52,52,1,1,0,,,0,FALSE,0.5491,,,,,,,,,,,,,,,,,,,,,,,,,,,,,,,
,61474637ab0ca7e2f61eca1b,627c67dd48e5dba52a8068ce,2022-05-12_03h52.43.216,classification_task,2021.2.3,Win32,60.00960154,627c6715c52fd12f31907bcf,,,,,,,,,,,,,,,,,,,,,,,l,1,"[""0.061"",""0.629"",""0.452"",""0.751""]","[1,0,1,1]",0,53,53,53,1,1,0,,,0,FALSE,0.8044,,,,,,,,,,,,,,,,,,,,,,,,,,,,,,,
,61474637ab0ca7e2f61eca1b,627c67dd48e5dba52a8068ce,2022-05-12_03h52.43.216,classification_task,2021.2.3,Win32,60.00960154,627c6715c52fd12f31907bcf,,,,,,,,,,,,,,,,,,,,,,,l,1,"[""0.125"",""0.243"",""0.502"",""0.609""]","[1,1,1,0]",0,54,54,54,1,1,1,,,0,FALSE,1.6967,,,,,,,,,,,,,,,,,,,,,,,,,,,,,,,
,61474637ab0ca7e2f61eca1b,627c67dd48e5dba52a8068ce,2022-05-12_03h52.43.216,classification_task,2021.2.3,Win32,60.00960154,627c6715c52fd12f31907bcf,,,,,,,,,,,,,,,,,,,,,,,l,0,"[""0.321"",""0.619"",""0.709"",""0.971""]","[1,0,1,1]",0,55,55,55,1,0,1,,,0,FALSE,1.6517,,,,,,,,,,,,,,,,,,,,,,,,,,,,,,,
,61474637ab0ca7e2f61eca1b,627c67dd48e5dba52a8068ce,2022-05-12_03h52.43.216,classification_task,2021.2.3,Win32,60.00960154,627c6715c52fd12f31907bcf,,,,,,,,,,,,,,,,,,,,,,,a,1,"[""0.286"",""0.601"",""0.844"",""0.919""]","[1,0,1,1]",0,56,56,56,1,0,0,,,0,FALSE,0.8169,,,,,,,,,,,,,,,,,,,,,,,,,,,,,,,
,61474637ab0ca7e2f61eca1b,627c67dd48e5dba52a8068ce,2022-05-12_03h52.43.216,classification_task,2021.2.3,Win32,60.00960154,627c6715c52fd12f31907bcf,,,,,,,,,,,,,,,,,,,,,,,a,0,"[""0.061"",""0.205"",""0.452"",""0.620""]","[1,1,1,0]",0,57,57,57,1,1,0,,,0,FALSE,1.313,,,,,,,,,,,,,,,,,,,,,,,,,,,,,,,
,61474637ab0ca7e2f61eca1b,627c67dd48e5dba52a8068ce,2022-05-12_03h52.43.216,classification_task,2021.2.3,Win32,60.00960154,627c6715c52fd12f31907bcf,,,,,,,,,,,,,,,,,,,,,,,l,1,"[""0.601"",""0.243"",""0.502"",""0.786""]","[0,1,1,1]",0,58,58,58,1,1,1,,,0,FALSE,1.0928,,,,,,,,,,,,,,,,,,,,,,,,,,,,,,,
,61474637ab0ca7e2f61eca1b,627c67dd48e5dba52a8068ce,2022-05-12_03h52.43.216,classification_task,2021.2.3,Win32,60.00960154,627c6715c52fd12f31907bcf,,,,,,,,,,,,,,,,,,,,,,,l,1,"[""0.125"",""0.243"",""0.619"",""0.786""]","[1,1,0,1]",0,59,59,59,1,1,1,,,0,FALSE,1.2222,,,,,,,,,,,,,,,,,,,,,,,,,,,,,,,
,61474637ab0ca7e2f61eca1b,627c67dd48e5dba52a8068ce,2022-05-12_03h52.43.216,classification_task,2021.2.3,Win32,60.00960154,627c6715c52fd12f31907bcf,,,,,,,,,,,,,,,,,,,,,,,l,0,"[""0.614"",""0.553"",""0.709"",""0.971""]","[0,1,1,1]",0,60,60,60,1,0,1,,,0,FALSE,1.7482,,,,,,,,,,,,,,,,,,,,,,,,,,,,,,,
,61474637ab0ca7e2f61eca1b,627c67dd48e5dba52a8068ce,2022-05-12_03h52.43.216,classification_task,2021.2.3,Win32,60.00960154,627c6715c52fd12f31907bcf,,,,,,,,,,,,,,,,,,,,,,,a,1,"[""0.653"",""0.390"",""0.844"",""0.919""]","[0,1,1,1]",0,61,61,61,1,0,0,,,0,FALSE,1.121,,,,,,,,,,,,,,,,,,,,,,,,,,,,,,,
,61474637ab0ca7e2f61eca1b,627c67dd48e5dba52a8068ce,2022-05-12_03h52.43.216,classification_task,2021.2.3,Win32,60.00960154,627c6715c52fd12f31907bcf,,,,,,,,,,,,,,,,,,,,,,,l,0,"[""0.321"",""0.553"",""0.709"",""0.601""]","[1,1,1,0]",0,62,62,62,1,0,1,,,0,FALSE,1.7103,,,,,,,,,,,,,,,,,,,,,,,,,,,,,,,
,61474637ab0ca7e2f61eca1b,627c67dd48e5dba52a8068ce,2022-05-12_03h52.43.216,classification_task,2021.2.3,Win32,60.00960154,627c6715c52fd12f31907bcf,,,,,,,,,,,,,,,,,,,,,,,a,0,"[""0.125"",""0.160"",""0.502"",""0.786""]","[1,0,1,1]",0,63,63,63,1,1,1,,,0,FALSE,0.4523,,,,,,,,,,,,,,,,,,,,,,,,,,,,,,,
,61474637ab0ca7e2f61eca1b,627c67dd48e5dba52a8068ce,2022-05-12_03h52.43.216,classification_task,2021.2.3,Win32,60.00960154,627c6715c52fd12f31907bcf,,,,,,,,,,,,,,,,,,,,,,,,,,,,,,,,,,,,,,,0, ,,0,5.378913139,637.6809,0,0,0,0,1,2,1,,,,,,,,,,,,,,,,,,
,61474637ab0ca7e2f61eca1b,627c67dd48e5dba52a8068ce,2022-05-12_03h52.43.216,classification_task,2021.2.3,Win32,60.00960154,627c6715c52fd12f31907bcf,,,,,,,,,,,,,,,,,,,,,,,,,,,,,,,,,,,,,,,1,  ,,0,5,636.3631,0,0,0,0,1,2,1,,,,,,,,,,,,,,,,,,
,61474637ab0ca7e2f61eca1b,627c67dd48e5dba52a8068ce,2022-05-12_03h52.43.216,classification_task,2021.2.3,Win32,60.00960154,627c6715c52fd12f31907bcf,,,,,,,,,,,,,,,,,,,,,,,,,,,,,,,,,,,,,,,2,  ,,0,6.929012346,640.1339,0,0,0,0,1,2,1,,,,,,,,,,,,,,,,,,
,61474637ab0ca7e2f61eca1b,627c67dd48e5dba52a8068ce,2022-05-12_03h52.43.216,classification_task,2021.2.3,Win32,60.00960154,627c6715c52fd12f31907bcf,,,,,,,,,,,,,,,,,,,,,,,,,,,,,,,,,,,,,,,,,,,,,0,0,0,0,1,,1,,,,,,,,,,,,,,,,,,
,61474637ab0ca7e2f61eca1b,627c67dd48e5dba52a8068ce,2022-05-12_03h52.43.216,classification_task,2021.2.3,Win32,60.00960154,627c6715c52fd12f31907bcf,,,,,,,,,,,,,,,,,,,,,space,26.1615,l,0,"[""0.321"",""0.553"",""0.709"",""0.653""]","[1,1,1,0]",0,0,0,0,1,0,1,,,0,FALSE,6.1984,,,,,,,,,,,,,,,,,,,,,,,,,,,,,,,
,61474637ab0ca7e2f61eca1b,627c67dd48e5dba52a8068ce,2022-05-12_03h52.43.216,classification_task,2021.2.3,Win32,60.00960154,627c6715c52fd12f31907bcf,,,,,,,,,,,,,,,,,,,,,,,a,0,"[""0.125"",""0.243"",""0.601"",""0.786""]","[1,1,0,1]",0,1,1,1,1,1,1,,,0,FALSE,1.8355,,,,,,,,,,,,,,,,,,,,,,,,,,,,,,,
,61474637ab0ca7e2f61eca1b,627c67dd48e5dba52a8068ce,2022-05-12_03h52.43.216,classification_task,2021.2.3,Win32,60.00960154,627c6715c52fd12f31907bcf,,,,,,,,,,,,,,,,,,,,,,,a,1,"[""0.027"",""0.390"",""0.844"",""0.919""]","[0,1,1,1]",0,2,2,2,1,0,0,,,0,FALSE,8.5748,,,,,,,,,,,,,,,,,,,,,,,,,,,,,,,
,61474637ab0ca7e2f61eca1b,627c67dd48e5dba52a8068ce,2022-05-12_03h52.43.216,classification_task,2021.2.3,Win32,60.00960154,627c6715c52fd12f31907bcf,,,,,,,,,,,,,,,,,,,,,,,a,1,"[""0.286"",""0.605"",""0.844"",""0.919""]","[1,0,1,1]",0,3,3,3,1,0,0,,,0,FALSE,1.3472,,,,,,,,,,,,,,,,,,,,,,,,,,,,,,,
,61474637ab0ca7e2f61eca1b,627c67dd48e5dba52a8068ce,2022-05-12_03h52.43.216,classification_task,2021.2.3,Win32,60.00960154,627c6715c52fd12f31907bcf,,,,,,,,,,,,,,,,,,,,,,,l,1,"[""0.061"",""0.205"",""0.609"",""0.751""]","[1,1,0,1]",0,4,4,4,1,1,0,,,0,FALSE,1.4269,,,,,,,,,,,,,,,,,,,,,,,,,,,,,,,
,61474637ab0ca7e2f61eca1b,627c67dd48e5dba52a8068ce,2022-05-12_03h52.43.216,classification_task,2021.2.3,Win32,60.00960154,627c6715c52fd12f31907bcf,,,,,,,,,,,,,,,,,,,,,,,l,1,"[""0.061"",""0.160"",""0.452"",""0.751""]","[1,0,1,1]",0,5,5,5,1,1,0,,,0,FALSE,6.4748,,,,,,,,,,,,,,,,,,,,,,,,,,,,,,,
,61474637ab0ca7e2f61eca1b,627c67dd48e5dba52a8068ce,2022-05-12_03h52.43.216,classification_task,2021.2.3,Win32,60.00960154,627c6715c52fd12f31907bcf,,,,,,,,,,,,,,,,,,,,,,,a,0,"[""0.125"",""0.243"",""0.502"",""0.620""]","[1,1,1,0]",0,6,6,6,1,1,1,,,0,FALSE,2.124,,,,,,,,,,,,,,,,,,,,,,,,,,,,,,,
,61474637ab0ca7e2f61eca1b,627c67dd48e5dba52a8068ce,2022-05-12_03h52.43.216,classification_task,2021.2.3,Win32,60.00960154,627c6715c52fd12f31907bcf,,,,,,,,,,,,,,,,,,,,,,,a,1,"[""0.321"",""0.027"",""0.709"",""0.971""]","[1,0,1,1]",0,7,7,7,1,0,1,,,0,FALSE,1.1835,,,,,,,,,,,,,,,,,,,,,,,,,,,,,,,
,61474637ab0ca7e2f61eca1b,627c67dd48e5dba52a8068ce,2022-05-12_03h52.43.216,classification_task,2021.2.3,Win32,60.00960154,627c6715c52fd12f31907bcf,,,,,,,,,,,,,,,,,,,,,,,l,1,"[""0.605"",""0.243"",""0.502"",""0.786""]","[0,1,1,1]",0,8,8,8,1,1,1,,,0,FALSE,0.8179,,,,,,,,,,,,,,,,,,,,,,,,,,,,,,,
,61474637ab0ca7e2f61eca1b,627c67dd48e5dba52a8068ce,2022-05-12_03h52.43.216,classification_task,2021.2.3,Win32,60.00960154,627c6715c52fd12f31907bcf,,,,,,,,,,,,,,,,,,,,,,,l,1,"[""0.125"",""0.160"",""0.502"",""0.786""]","[1,0,1,1]",0,9,9,9,1,1,1,,,0,FALSE,1.2924,,,,,,,,,,,,,,,,,,,,,,,,,,,,,,,
,61474637ab0ca7e2f61eca1b,627c67dd48e5dba52a8068ce,2022-05-12_03h52.43.216,classification_task,2021.2.3,Win32,60.00960154,627c6715c52fd12f31907bcf,,,,,,,,,,,,,,,,,,,,,,,l,0,"[""0.321"",""0.553"",""0.609"",""0.971""]","[1,1,0,1]",0,10,10,10,1,0,1,,,0,FALSE,0.8813,,,,,,,,,,,,,,,,,,,,,,,,,,,,,,,
,61474637ab0ca7e2f61eca1b,627c67dd48e5dba52a8068ce,2022-05-12_03h52.43.216,classification_task,2021.2.3,Win32,60.00960154,627c6715c52fd12f31907bcf,,,,,,,,,,,,,,,,,,,,,,,l,0,"[""0.629"",""0.553"",""0.709"",""0.971""]","[0,1,1,1]",0,11,11,11,1,0,1,,,0,FALSE,0.8573,,,,,,,,,,,,,,,,,,,,,,,,,,,,,,,
,61474637ab0ca7e2f61eca1b,627c67dd48e5dba52a8068ce,2022-05-12_03h52.43.216,classification_task,2021.2.3,Win32,60.00960154,627c6715c52fd12f31907bcf,,,,,,,,,,,,,,,,,,,,,,,l,1,"[""0.061"",""0.205"",""0.452"",""0.027""]","[1,1,1,0]",0,12,12,12,1,1,0,,,0,FALSE,0.8344,,,,,,,,,,,,,,,,,,,,,,,,,,,,,,,
,61474637ab0ca7e2f61eca1b,627c67dd48e5dba52a8068ce,2022-05-12_03h52.43.216,classification_task,2021.2.3,Win32,60.00960154,627c6715c52fd12f31907bcf,,,,,,,,,,,,,,,,,,,,,,,a,1,"[""0.286"",""0.390"",""0.844"",""0.674""]","[1,1,1,0]",0,13,13,13,1,0,0,,,0,FALSE,0.9015,,,,,,,,,,,,,,,,,,,,,,,,,,,,,,,
,61474637ab0ca7e2f61eca1b,627c67dd48e5dba52a8068ce,2022-05-12_03h52.43.216,classification_task,2021.2.3,Win32,60.00960154,627c6715c52fd12f31907bcf,,,,,,,,,,,,,,,,,,,,,,,a,0,"[""0.608"",""0.205"",""0.452"",""0.751""]","[0,1,1,1]",0,14,14,14,1,1,0,,,0,FALSE,2.998,,,,,,,,,,,,,,,,,,,,,,,,,,,,,,,
,61474637ab0ca7e2f61eca1b,627c67dd48e5dba52a8068ce,2022-05-12_03h52.43.216,classification_task,2021.2.3,Win32,60.00960154,627c6715c52fd12f31907bcf,,,,,,,,,,,,,,,,,,,,,,,a,1,"[""0.286"",""0.390"",""0.614"",""0.919""]","[1,1,0,1]",0,15,15,15,1,0,0,,,0,FALSE,1.3003,,,,,,,,,,,,,,,,,,,,,,,,,,,,,,,
,61474637ab0ca7e2f61eca1b,627c67dd48e5dba52a8068ce,2022-05-12_03h52.43.216,classification_task,2021.2.3,Win32,60.00960154,627c6715c52fd12f31907bcf,,,,,,,,,,,,,,,,,,,,,,,a,0,"[""0.125"",""0.243"",""0.502"",""0.608""]","[1,1,1,0]",0,16,16,16,1,1,1,,,0,FALSE,1.1034,,,,,,,,,,,,,,,,,,,,,,,,,,,,,,,
,61474637ab0ca7e2f61eca1b,627c67dd48e5dba52a8068ce,2022-05-12_03h52.43.216,classification_task,2021.2.3,Win32,60.00960154,627c6715c52fd12f31907bcf,,,,,,,,,,,,,,,,,,,,,,,l,1,"[""0.601"",""0.205"",""0.452"",""0.751""]","[0,1,1,1]",0,17,17,17,1,1,0,,,0,FALSE,2.2902,,,,,,,,,,,,,,,,,,,,,,,,,,,,,,,
,61474637ab0ca7e2f61eca1b,627c67dd48e5dba52a8068ce,2022-05-12_03h52.43.216,classification_task,2021.2.3,Win32,60.00960154,627c6715c52fd12f31907bcf,,,,,,,,,,,,,,,,,,,,,,,a,1,"[""0.600"",""0.390"",""0.844"",""0.919""]","[0,1,1,1]",0,18,18,18,1,0,0,,,0,FALSE,3.3655,,,,,,,,,,,,,,,,,,,,,,,,,,,,,,,
,61474637ab0ca7e2f61eca1b,627c67dd48e5dba52a8068ce,2022-05-12_03h52.43.216,classification_task,2021.2.3,Win32,60.00960154,627c6715c52fd12f31907bcf,,,,,,,,,,,,,,,,,,,,,,,l,1,"[""0.620"",""0.243"",""0.502"",""0.786""]","[0,1,1,1]",0,19,19,19,1,1,1,,,0,FALSE,1.0703,,,,,,,,,,,,,,,,,,,,,,,,,,,,,,,
,61474637ab0ca7e2f61eca1b,627c67dd48e5dba52a8068ce,2022-05-12_03h52.43.216,classification_task,2021.2.3,Win32,60.00960154,627c6715c52fd12f31907bcf,,,,,,,,,,,,,,,,,,,,,,,a,1,"[""0.321"",""0.608"",""0.709"",""0.971""]","[1,0,1,1]",0,20,20,20,1,0,1,,,0,FALSE,1.8235,,,,,,,,,,,,,,,,,,,,,,,,,,,,,,,
,61474637ab0ca7e2f61eca1b,627c67dd48e5dba52a8068ce,2022-05-12_03h52.43.216,classification_task,2021.2.3,Win32,60.00960154,627c6715c52fd12f31907bcf,,,,,,,,,,,,,,,,,,,,,,,a,1,"[""0.286"",""0.390"",""0.674"",""0.919""]","[1,1,0,1]",0,21,21,21,1,0,0,,,0,FALSE,7.1799,,,,,,,,,,,,,,,,,,,,,,,,,,,,,,,
,61474637ab0ca7e2f61eca1b,627c67dd48e5dba52a8068ce,2022-05-12_03h52.43.216,classification_task,2021.2.3,Win32,60.00960154,627c6715c52fd12f31907bcf,,,,,,,,,,,,,,,,,,,,,,,l,0,"[""0.321"",""0.553"",""0.709"",""0.027""]","[1,1,1,0]",0,22,22,22,1,0,1,,,0,FALSE,1.4089,,,,,,,,,,,,,,,,,,,,,,,,,,,,,,,
,61474637ab0ca7e2f61eca1b,627c67dd48e5dba52a8068ce,2022-05-12_03h52.43.216,classification_task,2021.2.3,Win32,60.00960154,627c6715c52fd12f31907bcf,,,,,,,,,,,,,,,,,,,,,,,l,1,"[""0.061"",""0.674"",""0.452"",""0.751""]","[1,0,1,1]",0,23,23,23,1,1,0,,,0,FALSE,1.0265,,,,,,,,,,,,,,,,,,,,,,,,,,,,,,,
,61474637ab0ca7e2f61eca1b,627c67dd48e5dba52a8068ce,2022-05-12_03h52.43.216,classification_task,2021.2.3,Win32,60.00960154,627c6715c52fd12f31907bcf,,,,,,,,,,,,,,,,,,,,,,,a,1,"[""0.286"",""0.674"",""0.844"",""0.919""]","[1,0,1,1]",0,24,24,24,1,0,0,,,0,FALSE,0.8182,,,,,,,,,,,,,,,,,,,,,,,,,,,,,,,
,61474637ab0ca7e2f61eca1b,627c67dd48e5dba52a8068ce,2022-05-12_03h52.43.216,classification_task,2021.2.3,Win32,60.00960154,627c6715c52fd12f31907bcf,,,,,,,,,,,,,,,,,,,,,,,a,1,"[""0.286"",""0.390"",""0.844"",""0.620""]","[1,1,1,0]",0,25,25,25,1,0,0,,,0,FALSE,0.886,,,,,,,,,,,,,,,,,,,,,,,,,,,,,,,
,61474637ab0ca7e2f61eca1b,627c67dd48e5dba52a8068ce,2022-05-12_03h52.43.216,classification_task,2021.2.3,Win32,60.00960154,627c6715c52fd12f31907bcf,,,,,,,,,,,,,,,,,,,,,,,a,0,"[""0.125"",""0.590"",""0.502"",""0.786""]","[1,0,1,1]",0,26,26,26,1,1,1,,,0,FALSE,1.0428,,,,,,,,,,,,,,,,,,,,,,,,,,,,,,,
,61474637ab0ca7e2f61eca1b,627c67dd48e5dba52a8068ce,2022-05-12_03h52.43.216,classification_task,2021.2.3,Win32,60.00960154,627c6715c52fd12f31907bcf,,,,,,,,,,,,,,,,,,,,,,,l,1,"[""0.061"",""0.205"",""0.452"",""0.027""]","[1,1,1,0]",0,27,27,27,1,1,0,,,0,FALSE,3.9159,,,,,,,,,,,,,,,,,,,,,,,,,,,,,,,
,61474637ab0ca7e2f61eca1b,627c67dd48e5dba52a8068ce,2022-05-12_03h52.43.216,classification_task,2021.2.3,Win32,60.00960154,627c6715c52fd12f31907bcf,,,,,,,,,,,,,,,,,,,,,,,l,0,"[""0.321"",""0.553"",""0.614"",""0.971""]","[1,1,0,1]",0,28,28,28,1,0,1,,,0,FALSE,0.8211,,,,,,,,,,,,,,,,,,,,,,,,,,,,,,,
,61474637ab0ca7e2f61eca1b,627c67dd48e5dba52a8068ce,2022-05-12_03h52.43.216,classification_task,2021.2.3,Win32,60.00960154,627c6715c52fd12f31907bcf,,,,,,,,,,,,,,,,,,,,,,,a,0,"[""0.125"",""0.243"",""0.674"",""0.786""]","[1,1,0,1]",0,29,29,29,1,1,1,,,0,FALSE,0.7665,,,,,,,,,,,,,,,,,,,,,,,,,,,,,,,
,61474637ab0ca7e2f61eca1b,627c67dd48e5dba52a8068ce,2022-05-12_03h52.43.216,classification_task,2021.2.3,Win32,60.00960154,627c6715c52fd12f31907bcf,,,,,,,,,,,,,,,,,,,,,,,a,1,"[""0.027"",""0.553"",""0.709"",""0.971""]","[0,1,1,1]",0,30,30,30,1,0,1,,,0,FALSE,3.9467,,,,,,,,,,,,,,,,,,,,,,,,,,,,,,,
,61474637ab0ca7e2f61eca1b,627c67dd48e5dba52a8068ce,2022-05-12_03h52.43.216,classification_task,2021.2.3,Win32,60.00960154,627c6715c52fd12f31907bcf,,,,,,,,,,,,,,,,,,,,,,,l,1,"[""0.061"",""0.205"",""0.605"",""0.751""]","[1,1,0,1]",0,31,31,31,1,1,0,,,0,FALSE,0.825,,,,,,,,,,,,,,,,,,,,,,,,,,,,,,,
,61474637ab0ca7e2f61eca1b,627c67dd48e5dba52a8068ce,2022-05-12_03h52.43.216,classification_task,2021.2.3,Win32,60.00960154,627c6715c52fd12f31907bcf,,,,,,,,,,,,,,,,,,,,,,,a,1,"[""0.620"",""0.390"",""0.844"",""0.919""]","[0,1,1,1]",0,32,32,32,1,0,0,,,0,FALSE,1.3313,,,,,,,,,,,,,,,,,,,,,,,,,,,,,,,
,61474637ab0ca7e2f61eca1b,627c67dd48e5dba52a8068ce,2022-05-12_03h52.43.216,classification_task,2021.2.3,Win32,60.00960154,627c6715c52fd12f31907bcf,,,,,,,,,,,,,,,,,,,,,,,a,1,"[""0.321"",""0.619"",""0.709"",""0.971""]","[1,0,1,1]",0,33,33,33,1,0,1,,,0,FALSE,2.3802,,,,,,,,,,,,,,,,,,,,,,,,,,,,,,,
,61474637ab0ca7e2f61eca1b,627c67dd48e5dba52a8068ce,2022-05-12_03h52.43.216,classification_task,2021.2.3,Win32,60.00960154,627c6715c52fd12f31907bcf,,,,,,,,,,,,,,,,,,,,,,,l,0,"[""0.605"",""0.553"",""0.709"",""0.971""]","[0,1,1,1]",0,34,34,34,1,0,1,,,0,FALSE,2.106,,,,,,,,,,,,,,,,,,,,,,,,,,,,,,,
,61474637ab0ca7e2f61eca1b,627c67dd48e5dba52a8068ce,2022-05-12_03h52.43.216,classification_task,2021.2.3,Win32,60.00960154,627c6715c52fd12f31907bcf,,,,,,,,,,,,,,,,,,,,,,,l,1,"[""0.061"",""0.205"",""0.452"",""0.027""]","[1,1,1,0]",0,35,35,35,1,1,0,,,0,FALSE,0.7704,,,,,,,,,,,,,,,,,,,,,,,,,,,,,,,
,61474637ab0ca7e2f61eca1b,627c67dd48e5dba52a8068ce,2022-05-12_03h52.43.216,classification_task,2021.2.3,Win32,60.00960154,627c6715c52fd12f31907bcf,,,,,,,,,,,,,,,,,,,,,,,a,1,"[""0.321"",""0.553"",""0.653"",""0.971""]","[1,1,0,1]",0,36,36,36,1,0,1,,,0,FALSE,1.3453,,,,,,,,,,,,,,,,,,,,,,,,,,,,,,,
,61474637ab0ca7e2f61eca1b,627c67dd48e5dba52a8068ce,2022-05-12_03h52.43.216,classification_task,2021.2.3,Win32,60.00960154,627c6715c52fd12f31907bcf,,,,,,,,,,,,,,,,,,,,,,,l,1,"[""0.601"",""0.205"",""0.452"",""0.751""]","[0,1,1,1]",0,37,37,37,1,1,0,,,0,FALSE,0.9332,,,,,,,,,,,,,,,,,,,,,,,,,,,,,,,
,61474637ab0ca7e2f61eca1b,627c67dd48e5dba52a8068ce,2022-05-12_03h52.43.216,classification_task,2021.2.3,Win32,60.00960154,627c6715c52fd12f31907bcf,,,,,,,,,,,,,,,,,,,,,,,a,1,"[""0.286"",""0.390"",""0.160"",""0.919""]","[1,1,0,1]",0,38,38,38,1,0,0,,,0,FALSE,0.7437,,,,,,,,,,,,,,,,,,,,,,,,,,,,,,,
,61474637ab0ca7e2f61eca1b,627c67dd48e5dba52a8068ce,2022-05-12_03h52.43.216,classification_task,2021.2.3,Win32,60.00960154,627c6715c52fd12f31907bcf,,,,,,,,,,,,,,,,,,,,,,,l,1,"[""0.125"",""0.601"",""0.502"",""0.786""]","[1,0,1,1]",0,39,39,39,1,1,1,,,0,FALSE,1.2848,,,,,,,,,,,,,,,,,,,,,,,,,,,,,,,
,61474637ab0ca7e2f61eca1b,627c67dd48e5dba52a8068ce,2022-05-12_03h52.43.216,classification_task,2021.2.3,Win32,60.00960154,627c6715c52fd12f31907bcf,,,,,,,,,,,,,,,,,,,,,,,a,1,"[""0.321"",""0.553"",""0.709"",""0.653""]","[1,1,1,0]",0,40,40,40,1,0,1,,,0,FALSE,1.2292,,,,,,,,,,,,,,,,,,,,,,,,,,,,,,,
,61474637ab0ca7e2f61eca1b,627c67dd48e5dba52a8068ce,2022-05-12_03h52.43.216,classification_task,2021.2.3,Win32,60.00960154,627c6715c52fd12f31907bcf,,,,,,,,,,,,,,,,,,,,,,,l,1,"[""0.061"",""0.653"",""0.452"",""0.751""]","[1,0,1,1]",0,41,41,41,1,1,0,,,0,FALSE,0.9692,,,,,,,,,,,,,,,,,,,,,,,,,,,,,,,
,61474637ab0ca7e2f61eca1b,627c67dd48e5dba52a8068ce,2022-05-12_03h52.43.216,classification_task,2021.2.3,Win32,60.00960154,627c6715c52fd12f31907bcf,,,,,,,,,,,,,,,,,,,,,,,a,0,"[""0.125"",""0.243"",""0.674"",""0.786""]","[1,1,0,1]",0,42,42,42,1,1,1,,,0,FALSE,1.6202,,,,,,,,,,,,,,,,,,,,,,,,,,,,,,,
,61474637ab0ca7e2f61eca1b,627c67dd48e5dba52a8068ce,2022-05-12_03h52.43.216,classification_task,2021.2.3,Win32,60.00960154,627c6715c52fd12f31907bcf,,,,,,,,,,,,,,,,,,,,,,,a,0,"[""0.061"",""0.205"",""0.601"",""0.751""]","[1,1,0,1]",0,43,43,43,1,1,0,,,0,FALSE,0.6418,,,,,,,,,,,,,,,,,,,,,,,,,,,,,,,
,61474637ab0ca7e2f61eca1b,627c67dd48e5dba52a8068ce,2022-05-12_03h52.43.216,classification_task,2021.2.3,Win32,60.00960154,627c6715c52fd12f31907bcf,,,,,,,,,,,,,,,,,,,,,,,a,0,"[""0.125"",""0.243"",""0.502"",""0.619""]","[1,1,1,0]",0,44,44,44,1,1,1,,,0,FALSE,0.7326,,,,,,,,,,,,,,,,,,,,,,,,,,,,,,,
,61474637ab0ca7e2f61eca1b,627c67dd48e5dba52a8068ce,2022-05-12_03h52.43.216,classification_task,2021.2.3,Win32,60.00960154,627c6715c52fd12f31907bcf,,,,,,,,,,,,,,,,,,,,,,,l,1,"[""0.653"",""0.243"",""0.502"",""0.786""]","[0,1,1,1]",0,45,45,45,1,1,1,,,0,FALSE,0.6885,,,,,,,,,,,,,,,,,,,,,,,,,,,,,,,
,61474637ab0ca7e2f61eca1b,627c67dd48e5dba52a8068ce,2022-05-12_03h52.43.216,classification_task,2021.2.3,Win32,60.00960154,627c6715c52fd12f31907bcf,,,,,,,,,,,,,,,,,,,,,,,a,1,"[""0.286"",""0.629"",""0.844"",""0.919""]","[1,0,1,1]",0,46,46,46,1,0,0,,,0,FALSE,0.8982,,,,,,,,,,,,,,,,,,,,,,,,,,,,,,,
,61474637ab0ca7e2f61eca1b,627c67dd48e5dba52a8068ce,2022-05-12_03h52.43.216,classification_task,2021.2.3,Win32,60.00960154,627c6715c52fd12f31907bcf,,,,,,,,,,,,,,,,,,,,,,,a,1,"[""0.286"",""0.390"",""0.844"",""0.608""]","[1,1,1,0]",0,47,47,47,1,0,0,,,0,FALSE,0.6018,,,,,,,,,,,,,,,,,,,,,,,,,,,,,,,
,61474637ab0ca7e2f61eca1b,627c67dd48e5dba52a8068ce,2022-05-12_03h52.43.216,classification_task,2021.2.3,Win32,60.00960154,627c6715c52fd12f31907bcf,,,,,,,,,,,,,,,,,,,,,,,l,1,"[""0.608"",""0.243"",""0.502"",""0.786""]","[0,1,1,1]",0,48,48,48,1,1,1,,,0,FALSE,0.7817,,,,,,,,,,,,,,,,,,,,,,,,,,,,,,,
,61474637ab0ca7e2f61eca1b,627c67dd48e5dba52a8068ce,2022-05-12_03h52.43.216,classification_task,2021.2.3,Win32,60.00960154,627c6715c52fd12f31907bcf,,,,,,,,,,,,,,,,,,,,,,,a,1,"[""0.321"",""0.553"",""0.709"",""0.629""]","[1,1,1,0]",0,49,49,49,1,0,1,,,0,FALSE,5.553,,,,,,,,,,,,,,,,,,,,,,,,,,,,,,,
,61474637ab0ca7e2f61eca1b,627c67dd48e5dba52a8068ce,2022-05-12_03h52.43.216,classification_task,2021.2.3,Win32,60.00960154,627c6715c52fd12f31907bcf,,,,,,,,,,,,,,,,,,,,,,,a,1,"[""0.027"",""0.390"",""0.844"",""0.919""]","[0,1,1,1]",0,50,50,50,1,0,0,,,0,FALSE,2.9508,,,,,,,,,,,,,,,,,,,,,,,,,,,,,,,
,61474637ab0ca7e2f61eca1b,627c67dd48e5dba52a8068ce,2022-05-12_03h52.43.216,classification_task,2021.2.3,Win32,60.00960154,627c6715c52fd12f31907bcf,,,,,,,,,,,,,,,,,,,,,,,l,1,"[""0.125"",""0.243"",""0.629"",""0.786""]","[1,1,0,1]",0,51,51,51,1,1,1,,,0,FALSE,1.1069,,,,,,,,,,,,,,,,,,,,,,,,,,,,,,,
,61474637ab0ca7e2f61eca1b,627c67dd48e5dba52a8068ce,2022-05-12_03h52.43.216,classification_task,2021.2.3,Win32,60.00960154,627c6715c52fd12f31907bcf,,,,,,,,,,,,,,,,,,,,,,,a,1,"[""0.286"",""0.614"",""0.844"",""0.919""]","[1,0,1,1]",0,52,52,52,1,0,0,,,0,FALSE,0.7524,,,,,,,,,,,,,,,,,,,,,,,,,,,,,,,
,61474637ab0ca7e2f61eca1b,627c67dd48e5dba52a8068ce,2022-05-12_03h52.43.216,classification_task,2021.2.3,Win32,60.00960154,627c6715c52fd12f31907bcf,,,,,,,,,,,,,,,,,,,,,,,a,1,"[""0.286"",""0.390"",""0.601"",""0.919""]","[1,1,0,1]",0,53,53,53,1,0,0,,,0,FALSE,0.6595,,,,,,,,,,,,,,,,,,,,,,,,,,,,,,,
,61474637ab0ca7e2f61eca1b,627c67dd48e5dba52a8068ce,2022-05-12_03h52.43.216,classification_task,2021.2.3,Win32,60.00960154,627c6715c52fd12f31907bcf,,,,,,,,,,,,,,,,,,,,,,,l,1,"[""0.061"",""0.629"",""0.452"",""0.751""]","[1,0,1,1]",0,54,54,54,1,1,0,,,0,FALSE,0.684,,,,,,,,,,,,,,,,,,,,,,,,,,,,,,,
,61474637ab0ca7e2f61eca1b,627c67dd48e5dba52a8068ce,2022-05-12_03h52.43.216,classification_task,2021.2.3,Win32,60.00960154,627c6715c52fd12f31907bcf,,,,,,,,,,,,,,,,,,,,,,,l,1,"[""0.061"",""0.205"",""0.674"",""0.751""]","[1,1,0,1]",0,55,55,55,1,1,0,,,0,FALSE,1.3472,,,,,,,,,,,,,,,,,,,,,,,,,,,,,,,
,61474637ab0ca7e2f61eca1b,627c67dd48e5dba52a8068ce,2022-05-12_03h52.43.216,classification_task,2021.2.3,Win32,60.00960154,627c6715c52fd12f31907bcf,,,,,,,,,,,,,,,,,,,,,,,l,1,"[""0.061"",""0.205"",""0.452"",""0.590""]","[1,1,1,0]",0,56,56,56,1,1,0,,,0,FALSE,1.5453,,,,,,,,,,,,,,,,,,,,,,,,,,,,,,,
,61474637ab0ca7e2f61eca1b,627c67dd48e5dba52a8068ce,2022-05-12_03h52.43.216,classification_task,2021.2.3,Win32,60.00960154,627c6715c52fd12f31907bcf,,,,,,,,,,,,,,,,,,,,,,,a,0,"[""0.125"",""0.243"",""0.502"",""0.160""]","[1,1,1,0]",0,57,57,57,1,1,1,,,0,FALSE,3.3407,,,,,,,,,,,,,,,,,,,,,,,,,,,,,,,
,61474637ab0ca7e2f61eca1b,627c67dd48e5dba52a8068ce,2022-05-12_03h52.43.216,classification_task,2021.2.3,Win32,60.00960154,627c6715c52fd12f31907bcf,,,,,,,,,,,,,,,,,,,,,,,l,0,"[""0.321"",""0.553"",""0.605"",""0.971""]","[1,1,0,1]",0,58,58,58,1,0,1,,,0,FALSE,0.615,,,,,,,,,,,,,,,,,,,,,,,,,,,,,,,
,61474637ab0ca7e2f61eca1b,627c67dd48e5dba52a8068ce,2022-05-12_03h52.43.216,classification_task,2021.2.3,Win32,60.00960154,627c6715c52fd12f31907bcf,,,,,,,,,,,,,,,,,,,,,,,a,0,"[""0.125"",""0.619"",""0.502"",""0.786""]","[1,0,1,1]",0,59,59,59,1,1,1,,,0,FALSE,0.4638,,,,,,,,,,,,,,,,,,,,,,,,,,,,,,,
,61474637ab0ca7e2f61eca1b,627c67dd48e5dba52a8068ce,2022-05-12_03h52.43.216,classification_task,2021.2.3,Win32,60.00960154,627c6715c52fd12f31907bcf,,,,,,,,,,,,,,,,,,,,,,,a,1,"[""0.321"",""0.600"",""0.709"",""0.971""]","[1,0,1,1]",0,60,60,60,1,0,1,,,0,FALSE,0.8493,,,,,,,,,,,,,,,,,,,,,,,,,,,,,,,
,61474637ab0ca7e2f61eca1b,627c67dd48e5dba52a8068ce,2022-05-12_03h52.43.216,classification_task,2021.2.3,Win32,60.00960154,627c6715c52fd12f31907bcf,,,,,,,,,,,,,,,,,,,,,,,l,0,"[""0.027"",""0.553"",""0.709"",""0.971""]","[0,1,1,1]",0,61,61,61,1,0,1,,,0,FALSE,0.8533,,,,,,,,,,,,,,,,,,,,,,,,,,,,,,,
,61474637ab0ca7e2f61eca1b,627c67dd48e5dba52a8068ce,2022-05-12_03h52.43.216,classification_task,2021.2.3,Win32,60.00960154,627c6715c52fd12f31907bcf,,,,,,,,,,,,,,,,,,,,,,,a,1,"[""0.286"",""0.390"",""0.844"",""0.609""]","[1,1,1,0]",0,62,62,62,1,0,0,,,0,FALSE,0.947,,,,,,,,,,,,,,,,,,,,,,,,,,,,,,,
,61474637ab0ca7e2f61eca1b,627c67dd48e5dba52a8068ce,2022-05-12_03h52.43.216,classification_task,2021.2.3,Win32,60.00960154,627c6715c52fd12f31907bcf,,,,,,,,,,,,,,,,,,,,,,,a,0,"[""0.620"",""0.205"",""0.452"",""0.751""]","[0,1,1,1]",0,63,63,63,1,1,0,,,0,FALSE,0.7353,,,,,,,,,,,,,,,,,,,,,,,,,,,,,,,
,61474637ab0ca7e2f61eca1b,627c67dd48e5dba52a8068ce,2022-05-12_03h52.43.216,classification_task,2021.2.3,Win32,60.00960154,627c6715c52fd12f31907bcf,,,,,,,,,,,,,,,,,,,,,,,,,,,,,,,,,,,,,,,0, ,,0,9.478064374,210.5474,0,1,1,1,1,2,2,,,,,,,,,,,,,,,,,,
,61474637ab0ca7e2f61eca1b,627c67dd48e5dba52a8068ce,2022-05-12_03h52.43.216,classification_task,2021.2.3,Win32,60.00960154,627c6715c52fd12f31907bcf,,,,,,,,,,,,,,,,,,,,,,,,,,,,,,,,,,,,,,,1,  ,,0,8.375771605,213.0161,0,1,1,1,1,2,2,,,,,,,,,,,,,,,,,,
,61474637ab0ca7e2f61eca1b,627c67dd48e5dba52a8068ce,2022-05-12_03h52.43.216,classification_task,2021.2.3,Win32,60.00960154,627c6715c52fd12f31907bcf,,,,,,,,,,,,,,,,,,,,,,,,,,,,,,,,,,,,,,,2,  ,,0,1.176421958,215.1616,0,1,1,1,1,2,2,,,,,,,,,,,,,,,,,,
,61474637ab0ca7e2f61eca1b,627c67dd48e5dba52a8068ce,2022-05-12_03h52.43.216,classification_task,2021.2.3,Win32,60.00960154,627c6715c52fd12f31907bcf,,,,,,,,,,,,,,,,,,,,,,,,,,,,,,,,,,,,,,,,,,,,,0,1,1,1,1,,2,,,,,,,,,,,,,,,,,,
,61474637ab0ca7e2f61eca1b,627c67dd48e5dba52a8068ce,2022-05-12_03h52.43.216,classification_task,2021.2.3,Win32,60.00960154,627c6715c52fd12f31907bcf,,,,,,,,,,,,,,,,,,,,,space,18.3771,a,0,"[""0.125"",""0.590"",""0.502"",""0.786""]","[1,0,1,1]",0,0,0,0,1,1,1,,,0,FALSE,1.9159,,,,,,,,,,,,,,,,,,,,,,,,,,,,,,,
,61474637ab0ca7e2f61eca1b,627c67dd48e5dba52a8068ce,2022-05-12_03h52.43.216,classification_task,2021.2.3,Win32,60.00960154,627c6715c52fd12f31907bcf,,,,,,,,,,,,,,,,,,,,,,,l,0,"[""0.160"",""0.553"",""0.709"",""0.971""]","[0,1,1,1]",0,1,1,1,1,0,1,,,0,FALSE,3.6643,,,,,,,,,,,,,,,,,,,,,,,,,,,,,,,
,61474637ab0ca7e2f61eca1b,627c67dd48e5dba52a8068ce,2022-05-12_03h52.43.216,classification_task,2021.2.3,Win32,60.00960154,627c6715c52fd12f31907bcf,,,,,,,,,,,,,,,,,,,,,,,a,0,"[""0.674"",""0.243"",""0.502"",""0.786""]","[0,1,1,1]",0,2,2,2,1,1,1,,,0,FALSE,2.7342,,,,,,,,,,,,,,,,,,,,,,,,,,,,,,,
,61474637ab0ca7e2f61eca1b,627c67dd48e5dba52a8068ce,2022-05-12_03h52.43.216,classification_task,2021.2.3,Win32,60.00960154,627c6715c52fd12f31907bcf,,,,,,,,,,,,,,,,,,,,,,,a,0,"[""0.125"",""0.243"",""0.502"",""0.629""]","[1,1,1,0]",0,3,3,3,1,1,1,,,0,FALSE,2.913,,,,,,,,,,,,,,,,,,,,,,,,,,,,,,,
,61474637ab0ca7e2f61eca1b,627c67dd48e5dba52a8068ce,2022-05-12_03h52.43.216,classification_task,2021.2.3,Win32,60.00960154,627c6715c52fd12f31907bcf,,,,,,,,,,,,,,,,,,,,,,,l,0,"[""0.321"",""0.553"",""0.709"",""0.620""]","[1,1,1,0]",0,4,4,4,1,0,1,,,0,FALSE,1.5165,,,,,,,,,,,,,,,,,,,,,,,,,,,,,,,
,61474637ab0ca7e2f61eca1b,627c67dd48e5dba52a8068ce,2022-05-12_03h52.43.216,classification_task,2021.2.3,Win32,60.00960154,627c6715c52fd12f31907bcf,,,,,,,,,,,,,,,,,,,,,,,l,1,"[""0.061"",""0.205"",""0.452"",""0.600""]","[1,1,1,0]",0,5,5,5,1,1,0,,,0,FALSE,1.9779,,,,,,,,,,,,,,,,,,,,,,,,,,,,,,,
,61474637ab0ca7e2f61eca1b,627c67dd48e5dba52a8068ce,2022-05-12_03h52.43.216,classification_task,2021.2.3,Win32,60.00960154,627c6715c52fd12f31907bcf,,,,,,,,,,,,,,,,,,,,,,,a,1,"[""0.286"",""0.390"",""0.844"",""0.674""]","[1,1,1,0]",0,6,6,6,1,0,0,,,0,FALSE,1.0598,,,,,,,,,,,,,,,,,,,,,,,,,,,,,,,
,61474637ab0ca7e2f61eca1b,627c67dd48e5dba52a8068ce,2022-05-12_03h52.43.216,classification_task,2021.2.3,Win32,60.00960154,627c6715c52fd12f31907bcf,,,,,,,,,,,,,,,,,,,,,,,l,0,"[""0.286"",""0.390"",""0.609"",""0.919""]","[1,1,0,1]",0,7,7,7,1,0,0,,,0,FALSE,1.4647,,,,,,,,,,,,,,,,,,,,,,,,,,,,,,,
,61474637ab0ca7e2f61eca1b,627c67dd48e5dba52a8068ce,2022-05-12_03h52.43.216,classification_task,2021.2.3,Win32,60.00960154,627c6715c52fd12f31907bcf,,,,,,,,,,,,,,,,,,,,,,,a,0,"[""0.125"",""0.243"",""0.027"",""0.786""]","[1,1,0,1]",0,8,8,8,1,1,1,,,0,FALSE,1.2933,,,,,,,,,,,,,,,,,,,,,,,,,,,,,,,
,61474637ab0ca7e2f61eca1b,627c67dd48e5dba52a8068ce,2022-05-12_03h52.43.216,classification_task,2021.2.3,Win32,60.00960154,627c6715c52fd12f31907bcf,,,,,,,,,,,,,,,,,,,,,,,l,0,"[""0.620"",""0.390"",""0.844"",""0.919""]","[0,1,1,1]",0,9,9,9,1,0,0,,,0,FALSE,0.9033,,,,,,,,,,,,,,,,,,,,,,,,,,,,,,,
,61474637ab0ca7e2f61eca1b,627c67dd48e5dba52a8068ce,2022-05-12_03h52.43.216,classification_task,2021.2.3,Win32,60.00960154,627c6715c52fd12f31907bcf,,,,,,,,,,,,,,,,,,,,,,,a,1,"[""0.321"",""0.609"",""0.709"",""0.971""]","[1,0,1,1]",0,10,10,10,1,0,1,,,0,FALSE,0.9936,,,,,,,,,,,,,,,,,,,,,,,,,,,,,,,
,61474637ab0ca7e2f61eca1b,627c67dd48e5dba52a8068ce,2022-05-12_03h52.43.216,classification_task,2021.2.3,Win32,60.00960154,627c6715c52fd12f31907bcf,,,,,,,,,,,,,,,,,,,,,,,l,0,"[""0.321"",""0.553"",""0.614"",""0.971""]","[1,1,0,1]",0,11,11,11,1,0,1,,,0,FALSE,1.0122,,,,,,,,,,,,,,,,,,,,,,,,,,,,,,,
,61474637ab0ca7e2f61eca1b,627c67dd48e5dba52a8068ce,2022-05-12_03h52.43.216,classification_task,2021.2.3,Win32,60.00960154,627c6715c52fd12f31907bcf,,,,,,,,,,,,,,,,,,,,,,,a,1,"[""0.286"",""0.605"",""0.844"",""0.919""]","[1,0,1,1]",0,12,12,12,1,0,0,,,0,FALSE,1.8973,,,,,,,,,,,,,,,,,,,,,,,,,,,,,,,
,61474637ab0ca7e2f61eca1b,627c67dd48e5dba52a8068ce,2022-05-12_03h52.43.216,classification_task,2021.2.3,Win32,60.00960154,627c6715c52fd12f31907bcf,,,,,,,,,,,,,,,,,,,,,,,a,0,"[""0.601"",""0.205"",""0.452"",""0.751""]","[0,1,1,1]",0,13,13,13,1,1,0,,,0,FALSE,1.6323,,,,,,,,,,,,,,,,,,,,,,,,,,,,,,,
,61474637ab0ca7e2f61eca1b,627c67dd48e5dba52a8068ce,2022-05-12_03h52.43.216,classification_task,2021.2.3,Win32,60.00960154,627c6715c52fd12f31907bcf,,,,,,,,,,,,,,,,,,,,,,,l,1,"[""0.061"",""0.205"",""0.601"",""0.751""]","[1,1,0,1]",0,14,14,14,1,1,0,,,0,FALSE,2.0726,,,,,,,,,,,,,,,,,,,,,,,,,,,,,,,
,61474637ab0ca7e2f61eca1b,627c67dd48e5dba52a8068ce,2022-05-12_03h52.43.216,classification_task,2021.2.3,Win32,60.00960154,627c6715c52fd12f31907bcf,,,,,,,,,,,,,,,,,,,,,,,a,0,"[""0.061"",""0.608"",""0.452"",""0.751""]","[1,0,1,1]",0,15,15,15,1,1,0,,,0,FALSE,0.8514,,,,,,,,,,,,,,,,,,,,,,,,,,,,,,,
,61474637ab0ca7e2f61eca1b,627c67dd48e5dba52a8068ce,2022-05-12_03h52.43.216,classification_task,2021.2.3,Win32,60.00960154,627c6715c52fd12f31907bcf,,,,,,,,,,,,,,,,,,,,,,,l,1,"[""0.061"",""0.205"",""0.674"",""0.751""]","[1,1,0,1]",0,16,16,16,1,1,0,,,0,FALSE,1.2589,,,,,,,,,,,,,,,,,,,,,,,,,,,,,,,
,61474637ab0ca7e2f61eca1b,627c67dd48e5dba52a8068ce,2022-05-12_03h52.43.216,classification_task,2021.2.3,Win32,60.00960154,627c6715c52fd12f31907bcf,,,,,,,,,,,,,,,,,,,,,,,a,1,"[""0.321"",""0.553"",""0.709"",""0.027""]","[1,1,1,0]",0,17,17,17,1,0,1,,,0,FALSE,3.2412,,,,,,,,,,,,,,,,,,,,,,,,,,,,,,,
,61474637ab0ca7e2f61eca1b,627c67dd48e5dba52a8068ce,2022-05-12_03h52.43.216,classification_task,2021.2.3,Win32,60.00960154,627c6715c52fd12f31907bcf,,,,,,,,,,,,,,,,,,,,,,,a,0,"[""0.614"",""0.205"",""0.452"",""0.751""]","[0,1,1,1]",0,18,18,18,1,1,0,,,0,FALSE,2.6236,,,,,,,,,,,,,,,,,,,,,,,,,,,,,,,
,61474637ab0ca7e2f61eca1b,627c67dd48e5dba52a8068ce,2022-05-12_03h52.43.216,classification_task,2021.2.3,Win32,60.00960154,627c6715c52fd12f31907bcf,,,,,,,,,,,,,,,,,,,,,,,a,0,"[""0.125"",""0.614"",""0.502"",""0.786""]","[1,0,1,1]",0,19,19,19,1,1,1,,,0,FALSE,2.2886,,,,,,,,,,,,,,,,,,,,,,,,,,,,,,,
,61474637ab0ca7e2f61eca1b,627c67dd48e5dba52a8068ce,2022-05-12_03h52.43.216,classification_task,2021.2.3,Win32,60.00960154,627c6715c52fd12f31907bcf,,,,,,,,,,,,,,,,,,,,,,,l,0,"[""0.653"",""0.390"",""0.844"",""0.919""]","[0,1,1,1]",0,20,20,20,1,0,0,,,0,FALSE,1.0771,,,,,,,,,,,,,,,,,,,,,,,,,,,,,,,
,61474637ab0ca7e2f61eca1b,627c67dd48e5dba52a8068ce,2022-05-12_03h52.43.216,classification_task,2021.2.3,Win32,60.00960154,627c6715c52fd12f31907bcf,,,,,,,,,,,,,,,,,,,,,,,l,1,"[""0.620"",""0.243"",""0.502"",""0.786""]","[0,1,1,1]",0,21,21,21,1,1,1,,,0,FALSE,2.3335,,,,,,,,,,,,,,,,,,,,,,,,,,,,,,,
,61474637ab0ca7e2f61eca1b,627c67dd48e5dba52a8068ce,2022-05-12_03h52.43.216,classification_task,2021.2.3,Win32,60.00960154,627c6715c52fd12f31907bcf,,,,,,,,,,,,,,,,,,,,,,,a,1,"[""0.321"",""0.674"",""0.709"",""0.971""]","[1,0,1,1]",0,22,22,22,1,0,1,,,0,FALSE,5.5986,,,,,,,,,,,,,,,,,,,,,,,,,,,,,,,
,61474637ab0ca7e2f61eca1b,627c67dd48e5dba52a8068ce,2022-05-12_03h52.43.216,classification_task,2021.2.3,Win32,60.00960154,627c6715c52fd12f31907bcf,,,,,,,,,,,,,,,,,,,,,,,a,0,"[""0.061"",""0.629"",""0.452"",""0.751""]","[1,0,1,1]",0,23,23,23,1,1,0,,,0,FALSE,1.4784,,,,,,,,,,,,,,,,,,,,,,,,,,,,,,,
,61474637ab0ca7e2f61eca1b,627c67dd48e5dba52a8068ce,2022-05-12_03h52.43.216,classification_task,2021.2.3,Win32,60.00960154,627c6715c52fd12f31907bcf,,,,,,,,,,,,,,,,,,,,,,,l,0,"[""0.286"",""0.390"",""0.620"",""0.919""]","[1,1,0,1]",0,24,24,24,1,0,0,,,0,FALSE,0.6872,,,,,,,,,,,,,,,,,,,,,,,,,,,,,,,
,61474637ab0ca7e2f61eca1b,627c67dd48e5dba52a8068ce,2022-05-12_03h52.43.216,classification_task,2021.2.3,Win32,60.00960154,627c6715c52fd12f31907bcf,,,,,,,,,,,,,,,,,,,,,,,l,0,"[""0.321"",""0.553"",""0.619"",""0.971""]","[1,1,0,1]",0,25,25,25,1,0,1,,,0,FALSE,2.8516,,,,,,,,,,,,,,,,,,,,,,,,,,,,,,,
,61474637ab0ca7e2f61eca1b,627c67dd48e5dba52a8068ce,2022-05-12_03h52.43.216,classification_task,2021.2.3,Win32,60.00960154,627c6715c52fd12f31907bcf,,,,,,,,,,,,,,,,,,,,,,,a,0,"[""0.061"",""0.205"",""0.452"",""0.608""]","[1,1,1,0]",0,26,26,26,1,1,0,,,0,FALSE,0.944,,,,,,,,,,,,,,,,,,,,,,,,,,,,,,,
,61474637ab0ca7e2f61eca1b,627c67dd48e5dba52a8068ce,2022-05-12_03h52.43.216,classification_task,2021.2.3,Win32,60.00960154,627c6715c52fd12f31907bcf,,,,,,,,,,,,,,,,,,,,,,,l,1,"[""0.125"",""0.243"",""0.620"",""0.786""]","[1,1,0,1]",0,27,27,27,1,1,1,,,0,FALSE,0.9608,,,,,,,,,,,,,,,,,,,,,,,,,,,,,,,
,61474637ab0ca7e2f61eca1b,627c67dd48e5dba52a8068ce,2022-05-12_03h52.43.216,classification_task,2021.2.3,Win32,60.00960154,627c6715c52fd12f31907bcf,,,,,,,,,,,,,,,,,,,,,,,a,0,"[""0.125"",""0.243"",""0.502"",""0.653""]","[1,1,1,0]",0,28,28,28,1,1,1,,,0,FALSE,0.9824,,,,,,,,,,,,,,,,,,,,,,,,,,,,,,,
,61474637ab0ca7e2f61eca1b,627c67dd48e5dba52a8068ce,2022-05-12_03h52.43.216,classification_task,2021.2.3,Win32,60.00960154,627c6715c52fd12f31907bcf,,,,,,,,,,,,,,,,,,,,,,,l,0,"[""0.286"",""0.390"",""0.844"",""0.605""]","[1,1,1,0]",0,29,29,29,1,0,0,,,0,FALSE,1.5186,,,,,,,,,,,,,,,,,,,,,,,,,,,,,,,
,61474637ab0ca7e2f61eca1b,627c67dd48e5dba52a8068ce,2022-05-12_03h52.43.216,classification_task,2021.2.3,Win32,60.00960154,627c6715c52fd12f31907bcf,,,,,,,,,,,,,,,,,,,,,,,a,1,"[""0.286"",""0.027"",""0.844"",""0.919""]","[1,0,1,1]",0,30,30,30,1,0,0,,,0,FALSE,0.7609,,,,,,,,,,,,,,,,,,,,,,,,,,,,,,,
,61474637ab0ca7e2f61eca1b,627c67dd48e5dba52a8068ce,2022-05-12_03h52.43.216,classification_task,2021.2.3,Win32,60.00960154,627c6715c52fd12f31907bcf,,,,,,,,,,,,,,,,,,,,,,,l,0,"[""0.614"",""0.553"",""0.709"",""0.971""]","[0,1,1,1]",0,31,31,31,1,0,1,,,0,FALSE,1.3146,,,,,,,,,,,,,,,,,,,,,,,,,,,,,,,
,61474637ab0ca7e2f61eca1b,627c67dd48e5dba52a8068ce,2022-05-12_03h52.43.216,classification_task,2021.2.3,Win32,60.00960154,627c6715c52fd12f31907bcf,,,,,,,,,,,,,,,,,,,,,,,l,0,"[""0.286"",""0.390"",""0.601"",""0.919""]","[1,1,0,1]",0,32,32,32,1,0,0,,,0,FALSE,1.7665,,,,,,,,,,,,,,,,,,,,,,,,,,,,,,,
,61474637ab0ca7e2f61eca1b,627c67dd48e5dba52a8068ce,2022-05-12_03h52.43.216,classification_task,2021.2.3,Win32,60.00960154,627c6715c52fd12f31907bcf,,,,,,,,,,,,,,,,,,,,,,,l,0,"[""0.321"",""0.553"",""0.160"",""0.971""]","[1,1,0,1]",0,33,33,33,1,0,1,,,0,FALSE,1.9394,,,,,,,,,,,,,,,,,,,,,,,,,,,,,,,
,61474637ab0ca7e2f61eca1b,627c67dd48e5dba52a8068ce,2022-05-12_03h52.43.216,classification_task,2021.2.3,Win32,60.00960154,627c6715c52fd12f31907bcf,,,,,,,,,,,,,,,,,,,,,,,a,0,"[""0.061"",""0.205"",""0.452"",""0.601""]","[1,1,1,0]",0,34,34,34,1,1,0,,,0,FALSE,1.9889,,,,,,,,,,,,,,,,,,,,,,,,,,,,,,,
,61474637ab0ca7e2f61eca1b,627c67dd48e5dba52a8068ce,2022-05-12_03h52.43.216,classification_task,2021.2.3,Win32,60.00960154,627c6715c52fd12f31907bcf,,,,,,,,,,,,,,,,,,,,,,,l,0,"[""0.629"",""0.553"",""0.709"",""0.971""]","[0,1,1,1]",0,35,35,35,1,0,1,,,0,FALSE,0.551,,,,,,,,,,,,,,,,,,,,,,,,,,,,,,,
,61474637ab0ca7e2f61eca1b,627c67dd48e5dba52a8068ce,2022-05-12_03h52.43.216,classification_task,2021.2.3,Win32,60.00960154,627c6715c52fd12f31907bcf,,,,,,,,,,,,,,,,,,,,,,,a,0,"[""0.600"",""0.205"",""0.452"",""0.751""]","[0,1,1,1]",0,36,36,36,1,1,0,,,0,FALSE,0.946,,,,,,,,,,,,,,,,,,,,,,,,,,,,,,,
,61474637ab0ca7e2f61eca1b,627c67dd48e5dba52a8068ce,2022-05-12_03h52.43.216,classification_task,2021.2.3,Win32,60.00960154,627c6715c52fd12f31907bcf,,,,,,,,,,,,,,,,,,,,,,,l,0,"[""0.620"",""0.390"",""0.844"",""0.919""]","[0,1,1,1]",0,37,37,37,1,0,0,,,0,FALSE,3.6919,,,,,,,,,,,,,,,,,,,,,,,,,,,,,,,
,61474637ab0ca7e2f61eca1b,627c67dd48e5dba52a8068ce,2022-05-12_03h52.43.216,classification_task,2021.2.3,Win32,60.00960154,627c6715c52fd12f31907bcf,,,,,,,,,,,,,,,,,,,,,,,a,1,"[""0.321"",""0.553"",""0.709"",""0.653""]","[1,1,1,0]",0,38,38,38,1,0,1,,,0,FALSE,1.7168,,,,,,,,,,,,,,,,,,,,,,,,,,,,,,,
,61474637ab0ca7e2f61eca1b,627c67dd48e5dba52a8068ce,2022-05-12_03h52.43.216,classification_task,2021.2.3,Win32,60.00960154,627c6715c52fd12f31907bcf,,,,,,,,,,,,,,,,,,,,,,,l,1,"[""0.061"",""0.674"",""0.452"",""0.751""]","[1,0,1,1]",0,39,39,39,1,1,0,,,0,FALSE,2.6151,,,,,,,,,,,,,,,,,,,,,,,,,,,,,,,
,61474637ab0ca7e2f61eca1b,627c67dd48e5dba52a8068ce,2022-05-12_03h52.43.216,classification_task,2021.2.3,Win32,60.00960154,627c6715c52fd12f31907bcf,,,,,,,,,,,,,,,,,,,,,,,a,0,"[""0.061"",""0.205"",""0.609"",""0.751""]","[1,1,0,1]",0,40,40,40,1,1,0,,,0,FALSE,1.1012,,,,,,,,,,,,,,,,,,,,,,,,,,,,,,,
,61474637ab0ca7e2f61eca1b,627c67dd48e5dba52a8068ce,2022-05-12_03h52.43.216,classification_task,2021.2.3,Win32,60.00960154,627c6715c52fd12f31907bcf,,,,,,,,,,,,,,,,,,,,,,,l,0,"[""0.286"",""0.160"",""0.844"",""0.919""]","[1,0,1,1]",0,41,41,41,1,0,0,,,0,FALSE,2.245,,,,,,,,,,,,,,,,,,,,,,,,,,,,,,,
,61474637ab0ca7e2f61eca1b,627c67dd48e5dba52a8068ce,2022-05-12_03h52.43.216,classification_task,2021.2.3,Win32,60.00960154,627c6715c52fd12f31907bcf,,,,,,,,,,,,,,,,,,,,,,,a,0,"[""0.609"",""0.243"",""0.502"",""0.786""]","[0,1,1,1]",0,42,42,42,1,1,1,,,0,FALSE,0.9179,,,,,,,,,,,,,,,,,,,,,,,,,,,,,,,
,61474637ab0ca7e2f61eca1b,627c67dd48e5dba52a8068ce,2022-05-12_03h52.43.216,classification_task,2021.2.3,Win32,60.00960154,627c6715c52fd12f31907bcf,,,,,,,,,,,,,,,,,,,,,,,l,1,"[""0.125"",""0.243"",""0.590"",""0.786""]","[1,1,0,1]",0,43,43,43,1,1,1,,,0,FALSE,0.4861,,,,,,,,,,,,,,,,,,,,,,,,,,,,,,,
,61474637ab0ca7e2f61eca1b,627c67dd48e5dba52a8068ce,2022-05-12_03h52.43.216,classification_task,2021.2.3,Win32,60.00960154,627c6715c52fd12f31907bcf,,,,,,,,,,,,,,,,,,,,,,,a,0,"[""0.125"",""0.243"",""0.502"",""0.027""]","[1,1,1,0]",0,44,44,44,1,1,1,,,0,FALSE,3.7982,,,,,,,,,,,,,,,,,,,,,,,,,,,,,,,
,61474637ab0ca7e2f61eca1b,627c67dd48e5dba52a8068ce,2022-05-12_03h52.43.216,classification_task,2021.2.3,Win32,60.00960154,627c6715c52fd12f31907bcf,,,,,,,,,,,,,,,,,,,,,,,a,0,"[""0.125"",""0.619"",""0.502"",""0.786""]","[1,0,1,1]",0,45,45,45,1,1,1,,,0,FALSE,4.312,,,,,,,,,,,,,,,,,,,,,,,,,,,,,,,
,61474637ab0ca7e2f61eca1b,627c67dd48e5dba52a8068ce,2022-05-12_03h52.43.216,classification_task,2021.2.3,Win32,60.00960154,627c6715c52fd12f31907bcf,,,,,,,,,,,,,,,,,,,,,,,l,0,"[""0.286"",""0.390"",""0.844"",""0.601""]","[1,1,1,0]",0,46,46,46,1,0,0,,,0,FALSE,0.9477,,,,,,,,,,,,,,,,,,,,,,,,,,,,,,,
,61474637ab0ca7e2f61eca1b,627c67dd48e5dba52a8068ce,2022-05-12_03h52.43.216,classification_task,2021.2.3,Win32,60.00960154,627c6715c52fd12f31907bcf,,,,,,,,,,,,,,,,,,,,,,,a,1,"[""0.321"",""0.619"",""0.709"",""0.971""]","[1,0,1,1]",0,47,47,47,1,0,1,,,0,FALSE,2.0001,,,,,,,,,,,,,,,,,,,,,,,,,,,,,,,
,61474637ab0ca7e2f61eca1b,627c67dd48e5dba52a8068ce,2022-05-12_03h52.43.216,classification_task,2021.2.3,Win32,60.00960154,627c6715c52fd12f31907bcf,,,,,,,,,,,,,,,,,,,,,,,a,1,"[""0.286"",""0.160"",""0.844"",""0.919""]","[1,0,1,1]",0,48,48,48,1,0,0,,,0,FALSE,2.0372,,,,,,,,,,,,,,,,,,,,,,,,,,,,,,,
,61474637ab0ca7e2f61eca1b,627c67dd48e5dba52a8068ce,2022-05-12_03h52.43.216,classification_task,2021.2.3,Win32,60.00960154,627c6715c52fd12f31907bcf,,,,,,,,,,,,,,,,,,,,,,,a,0,"[""0.061"",""0.205"",""0.452"",""0.674""]","[1,1,1,0]",0,49,49,49,1,1,0,,,0,FALSE,2.9623,,,,,,,,,,,,,,,,,,,,,,,,,,,,,,,
,61474637ab0ca7e2f61eca1b,627c67dd48e5dba52a8068ce,2022-05-12_03h52.43.216,classification_task,2021.2.3,Win32,60.00960154,627c6715c52fd12f31907bcf,,,,,,,,,,,,,,,,,,,,,,,l,1,"[""0.061"",""0.205"",""0.600"",""0.751""]","[1,1,0,1]",0,50,50,50,1,1,0,,,0,FALSE,1.4705,,,,,,,,,,,,,,,,,,,,,,,,,,,,,,,
,61474637ab0ca7e2f61eca1b,627c67dd48e5dba52a8068ce,2022-05-12_03h52.43.216,classification_task,2021.2.3,Win32,60.00960154,627c6715c52fd12f31907bcf,,,,,,,,,,,,,,,,,,,,,,,l,0,"[""0.286"",""0.390"",""0.653"",""0.919""]","[1,1,0,1]",0,51,51,51,1,0,0,,,0,FALSE,1.2654,,,,,,,,,,,,,,,,,,,,,,,,,,,,,,,
,61474637ab0ca7e2f61eca1b,627c67dd48e5dba52a8068ce,2022-05-12_03h52.43.216,classification_task,2021.2.3,Win32,60.00960154,627c6715c52fd12f31907bcf,,,,,,,,,,,,,,,,,,,,,,,l,1,"[""0.125"",""0.243"",""0.160"",""0.786""]","[1,1,0,1]",0,52,52,52,1,1,1,,,0,FALSE,2.0287,,,,,,,,,,,,,,,,,,,,,,,,,,,,,,,
,61474637ab0ca7e2f61eca1b,627c67dd48e5dba52a8068ce,2022-05-12_03h52.43.216,classification_task,2021.2.3,Win32,60.00960154,627c6715c52fd12f31907bcf,,,,,,,,,,,,,,,,,,,,,,,a,1,"[""0.321"",""0.027"",""0.709"",""0.971""]","[1,0,1,1]",0,53,53,53,1,0,1,,,0,FALSE,3.2098,,,,,,,,,,,,,,,,,,,,,,,,,,,,,,,
,61474637ab0ca7e2f61eca1b,627c67dd48e5dba52a8068ce,2022-05-12_03h52.43.216,classification_task,2021.2.3,Win32,60.00960154,627c6715c52fd12f31907bcf,,,,,,,,,,,,,,,,,,,,,,,l,0,"[""0.321"",""0.553"",""0.709"",""0.605""]","[1,1,1,0]",0,54,54,54,1,0,1,,,0,FALSE,1.2754,,,,,,,,,,,,,,,,,,,,,,,,,,,,,,,
,61474637ab0ca7e2f61eca1b,627c67dd48e5dba52a8068ce,2022-05-12_03h52.43.216,classification_task,2021.2.3,Win32,60.00960154,627c6715c52fd12f31907bcf,,,,,,,,,,,,,,,,,,,,,,,a,0,"[""0.125"",""0.243"",""0.502"",""0.600""]","[1,1,1,0]",0,55,55,55,1,1,1,,,0,FALSE,1.2236,,,,,,,,,,,,,,,,,,,,,,,,,,,,,,,
,61474637ab0ca7e2f61eca1b,627c67dd48e5dba52a8068ce,2022-05-12_03h52.43.216,classification_task,2021.2.3,Win32,60.00960154,627c6715c52fd12f31907bcf,,,,,,,,,,,,,,,,,,,,,,,l,1,"[""0.608"",""0.243"",""0.502"",""0.786""]","[0,1,1,1]",0,56,56,56,1,1,1,,,0,FALSE,0.7189,,,,,,,,,,,,,,,,,,,,,,,,,,,,,,,
,61474637ab0ca7e2f61eca1b,627c67dd48e5dba52a8068ce,2022-05-12_03h52.43.216,classification_task,2021.2.3,Win32,60.00960154,627c6715c52fd12f31907bcf,,,,,,,,,,,,,,,,,,,,,,,a,1,"[""0.601"",""0.553"",""0.709"",""0.971""]","[0,1,1,1]",0,57,57,57,1,0,1,,,0,FALSE,0.8036,,,,,,,,,,,,,,,,,,,,,,,,,,,,,,,
,61474637ab0ca7e2f61eca1b,627c67dd48e5dba52a8068ce,2022-05-12_03h52.43.216,classification_task,2021.2.3,Win32,60.00960154,627c6715c52fd12f31907bcf,,,,,,,,,,,,,,,,,,,,,,,l,1,"[""0.125"",""0.653"",""0.502"",""0.786""]","[1,0,1,1]",0,58,58,58,1,1,1,,,0,FALSE,1.1995,,,,,,,,,,,,,,,,,,,,,,,,,,,,,,,
,61474637ab0ca7e2f61eca1b,627c67dd48e5dba52a8068ce,2022-05-12_03h52.43.216,classification_task,2021.2.3,Win32,60.00960154,627c6715c52fd12f31907bcf,,,,,,,,,,,,,,,,,,,,,,,a,0,"[""0.601"",""0.205"",""0.452"",""0.751""]","[0,1,1,1]",0,59,59,59,1,1,0,,,0,FALSE,1.0667,,,,,,,,,,,,,,,,,,,,,,,,,,,,,,,
,61474637ab0ca7e2f61eca1b,627c67dd48e5dba52a8068ce,2022-05-12_03h52.43.216,classification_task,2021.2.3,Win32,60.00960154,627c6715c52fd12f31907bcf,,,,,,,,,,,,,,,,,,,,,,,a,1,"[""0.620"",""0.390"",""0.844"",""0.919""]","[0,1,1,1]",0,60,60,60,1,0,0,,,0,FALSE,2.4485,,,,,,,,,,,,,,,,,,,,,,,,,,,,,,,
,61474637ab0ca7e2f61eca1b,627c67dd48e5dba52a8068ce,2022-05-12_03h52.43.216,classification_task,2021.2.3,Win32,60.00960154,627c6715c52fd12f31907bcf,,,,,,,,,,,,,,,,,,,,,,,l,0,"[""0.321"",""0.553"",""0.027"",""0.971""]","[1,1,0,1]",0,61,61,61,1,0,1,,,0,FALSE,1.5049,,,,,,,,,,,,,,,,,,,,,,,,,,,,,,,
,61474637ab0ca7e2f61eca1b,627c67dd48e5dba52a8068ce,2022-05-12_03h52.43.216,classification_task,2021.2.3,Win32,60.00960154,627c6715c52fd12f31907bcf,,,,,,,,,,,,,,,,,,,,,,,a,0,"[""0.061"",""0.620"",""0.452"",""0.751""]","[1,0,1,1]",0,62,62,62,1,1,0,,,0,FALSE,1.5102,,,,,,,,,,,,,,,,,,,,,,,,,,,,,,,
,61474637ab0ca7e2f61eca1b,627c67dd48e5dba52a8068ce,2022-05-12_03h52.43.216,classification_task,2021.2.3,Win32,60.00960154,627c6715c52fd12f31907bcf,,,,,,,,,,,,,,,,,,,,,,,l,0,"[""0.286"",""0.390"",""0.844"",""0.614""]","[1,1,1,0]",0,63,63,63,1,0,0,,,0,FALSE,0.7329,,,,,,,,,,,,,,,,,,,,,,,,,,,,,,,
,61474637ab0ca7e2f61eca1b,627c67dd48e5dba52a8068ce,2022-05-12_03h52.43.216,classification_task,2021.2.3,Win32,60.00960154,627c6715c52fd12f31907bcf,,,,,,,,,,,,,,,,,,,,,,,,,,,,,,,,,,,,,,,0, ,,0,8.479111552,206.8943,0,2,2,2,1,2,3,,,,,,,,,,,,,,,,,,
,61474637ab0ca7e2f61eca1b,627c67dd48e5dba52a8068ce,2022-05-12_03h52.43.216,classification_task,2021.2.3,Win32,60.00960154,627c6715c52fd12f31907bcf,,,,,,,,,,,,,,,,,,,,,,,,,,,,,,,,,,,,,,,1,  ,,0,9.374724427,209.4337,0,2,2,2,1,2,3,,,,,,,,,,,,,,,,,,
,61474637ab0ca7e2f61eca1b,627c67dd48e5dba52a8068ce,2022-05-12_03h52.43.216,classification_task,2021.2.3,Win32,60.00960154,627c6715c52fd12f31907bcf,,,,,,,,,,,,,,,,,,,,,,,,,,,,,,,,,,,,,,,2,  ,,0,8.995811287,213.6402,0,2,2,2,1,2,3,,,,,,,,,,,,,,,,,,
,61474637ab0ca7e2f61eca1b,627c67dd48e5dba52a8068ce,2022-05-12_03h52.43.216,classification_task,2021.2.3,Win32,60.00960154,627c6715c52fd12f31907bcf,,,,,,,,,,,,,,,,,,,,,,,,,,,,,,,,,,,,,,,,,,,,,0,2,2,2,1,,3,,,,,,,,,,,,,,,,,,
,61474637ab0ca7e2f61eca1b,627c67dd48e5dba52a8068ce,2022-05-12_03h52.43.216,classification_task,2021.2.3,Win32,60.00960154,627c6715c52fd12f31907bcf,,,,,,,,,,,,,,,,,,,,,,,,,,,,,,,,,,,,,,,,,,,,,,,,,,,,,I believe the aid is a competent performer,,0.7,0,3,1115.1301,0,0,0,0,1,0,,,,,
,61474637ab0ca7e2f61eca1b,627c67dd48e5dba52a8068ce,2022-05-12_03h52.43.216,classification_task,2021.2.3,Win32,60.00960154,627c6715c52fd12f31907bcf,,,,,,,,,,,,,,,,,,,,,,,,,,,,,,,,,,,,,,,,,,,,,,,,,,,,,I trust the aid,,0.7,0,4,1116.2704,0,0,0,0,1,0,,,,,
,61474637ab0ca7e2f61eca1b,627c67dd48e5dba52a8068ce,2022-05-12_03h52.43.216,classification_task,2021.2.3,Win32,60.00960154,627c6715c52fd12f31907bcf,,,,,,,,,,,,,,,,,,,,,,,,,,,,,,,,,,,,,,,,,,,,,,,,,,,,,I have confidence in the advice given by the aid,,0.7,0,4,1120.4211,0,0,0,0,1,0,,,,,
,61474637ab0ca7e2f61eca1b,627c67dd48e5dba52a8068ce,2022-05-12_03h52.43.216,classification_task,2021.2.3,Win32,60.00960154,627c6715c52fd12f31907bcf,,,,,,,,,,,,,,,,,,,,,,,,,,,,,,,,,,,,,,,,,,,,,,,,,,,,,I can depend on the aid,,0.7,0,2,1122.8741,0,0,0,0,1,0,,,,,
,61474637ab0ca7e2f61eca1b,627c67dd48e5dba52a8068ce,2022-05-12_03h52.43.216,classification_task,2021.2.3,Win32,60.00960154,627c6715c52fd12f31907bcf,,,,,,,,,,,,,,,,,,,,,,,,,,,,,,,,,,,,,,,,,,,,,,,,,,,,,I can rely on the aid to behave in consistent ways,,0.7,0,3,1130.8423,0,0,0,0,1,0,,,,,
,61474637ab0ca7e2f61eca1b,627c67dd48e5dba52a8068ce,2022-05-12_03h52.43.216,classification_task,2021.2.3,Win32,60.00960154,627c6715c52fd12f31907bcf,,,,,,,,,,,,,,,,,,,,,,,,,,,,,,,,,,,,,,,,,,,,,,,,,,,,,I can rely on the aid to do its best every time I take its advice,,0.7,0,4,1140.5035,0,0,0,0,1,0,,,,,
,61474637ab0ca7e2f61eca1b,627c67dd48e5dba52a8068ce,2022-05-12_03h52.43.216,classification_task,2021.2.3,Win32,60.00960154,627c6715c52fd12f31907bcf,,,,,,,,,,,,,,,,,,,,,,,,,,,,,,,,,,,,,,,,,,,,,,,,,,,,,"On trials you completed with assistance from the aid, how frequently did you think the aid was correct?",,0.7,0,60,,0,0,0,0,1,0,,,,,
,61474637ab0ca7e2f61eca1b,627c67dd48e5dba52a8068ce,2022-05-12_03h52.43.216,classification_task,2021.2.3,Win32,60.00960154,627c6715c52fd12f31907bcf,,,,,,,,,,,,,,,,,,,,,,,,,,,,,,,,,,,,,,,,,,,,,,,,,,,,,"On trials you completed without the aid, how frequently did you think you were correct?",,0.7,0,40,,0,0,0,0,1,0,,,,,
,61474637ab0ca7e2f61eca1b,627c67dd48e5dba52a8068ce,2022-05-12_03h52.43.216,classification_task,2021.2.3,Win32,60.00960154,627c6715c52fd12f31907bcf,,,,,,,,,,,,,,,,,,,,,,,,,,,,,,,,,,,,,,,,,,,,,,,,,,,,,,,,,,,0,0,0,0,1,,,,,,
,61474637ab0ca7e2f61eca1b,627c67dd48e5dba52a8068ce,2022-05-12_03h52.43.216,classification_task,2021.2.3,Win32,60.00960154,627c6715c52fd12f31907bcf,,,,,,,,,,,,,,,,,,,,,,,,,,,,,,,,,,,,,,,,,,,,,,,,,,,,,,,,,,,,,,,,,space,17.5978,1189.8649,,
,61474637ab0ca7e2f61eca1b,627c67dd48e5dba52a8068ce,2022-05-12_03h52.43.216,classification_task,2021.2.3,Win32,60.00960154,627c6715c52fd12f31907bcf,,,,,,,,,,,,,,,,,,,,,,,,,,,,,,,,,,,,,,,,,,,,,,,,,,,,,,,,,,,,,,,,,,,,"Mozilla/5.0 (Windows NT 10.0; WOW64) AppleWebKit/537.36 (KHTML, like Gecko) Chrome/101.0.4951.54 Safari/537.36",
,61474637ab0ca7e2f61eca1b,627c67dd48e5dba52a8068ce,2022-05-12_03h52.43.216,classification_task,2021.2.3,Win32,60.00960154,627c6715c52fd12f31907bcf,,,,,,,,,,,,,,,,,,,,,,,,,,,,,,,,,,,,,,,,,,,,,,,,,,,,,,,,,,,,,,,,,,,,,HIGHLIGHT
