usingWebGL,participant,session,date,expName,psychopyVersion,OS,frameRate,PROLIFIC_PID,STUDY_ID,SESSION_ID,signatures_friend,signatures_foe,band_ranges_top,band_ranges_bottom,formitemText,formtype,formundefined,formitemWidth,formindex,formresponse,formrt,key_resp_2.keys,key_resp_2.rt,tute_resp.keys,tute_resp.rt,tutorial.thisRepN,tutorial.thisTrialN,tutorial.thisN,tutorial.thisIndex,tutorial.ran,key_resp_4.keys,key_resp_4.rt,key_resp.keys,key_resp.corr,lines_presented,is_signal_presented,trials.thisRepN,trials.thisTrialN,trials.thisN,trials.thisIndex,trials.ran,vessel,active_band,lines,is_signal,supported_pos,catch_trial,key_resp.rt,debrief_formindex,debrief_formitemText,debrief_formtype,debrief_formitemWidth,debrief_formresponse,debrief_formrt,phases.thisRepN,phases.thisTrialN,phases.thisN,phases.thisIndex,phases.ran,phases.order,phase,key_resp_3.keys,trustitemText,trusttype,trustitemWidth,trustindex,trustresponse,trustrt,support_status.thisRepN,support_status.thisTrialN,support_status.thisN,support_status.thisIndex,support_status.ran,support_status.order,key_resp_5.keys,key_resp_5.rt,globalClockTime,userAgent
TRUE,61490a83dfe0ffe854d06164,001,2022-04-28_20h18.25.227,classification_task,2021.2.3,Win32,60.04202942,61490a83dfe0ffe854d06164,626b377229c10585ec392f8a,626b3c67d3e1600b9db094c6,,,,,,,,,,,,,,,,,,,,,,,,,,,,,,,,,,,,,,,,,,,,,,,,,,,,,,,,,,,,,,,,,,,,
,61490a83dfe0ffe854d06164,001,2022-04-28_20h18.25.227,classification_task,2021.2.3,Win32,60.04202942,61490a83dfe0ffe854d06164,626b377229c10585ec392f8a,626b3c67d3e1600b9db094c6,"[[""0.248"",""0.430"",""0.770"",""0.919""],[""0.205"",""0.391"",""0.872"",""0.967""]]","[[""0.143"",""0.337"",""0.471"",""0.822""],[""0.097"",""0.290"",""0.515"",""0.730""]]","[1,10]","[100,1000]",Video game experience,,,0.7,0,,,,,,,,,,,,,,,,,,,,,,,,,,,,,,,,,,,,,,,,,,,,,,,,,,,,,,,,,,,
,61490a83dfe0ffe854d06164,001,2022-04-28_20h18.25.227,classification_task,2021.2.3,Win32,60.04202942,61490a83dfe0ffe854d06164,626b377229c10585ec392f8a,626b3c67d3e1600b9db094c6,,,,,Approximately how many hours did you spend playing video games in the last week?,,,0.7,0, 8,,,,,,,,,,,,,,,,,,,,,,,,,,,,,,,,,,,,,,,,,,,,,,,,,,,,,,,,,,
,61490a83dfe0ffe854d06164,001,2022-04-28_20h18.25.227,classification_task,2021.2.3,Win32,60.04202942,61490a83dfe0ffe854d06164,626b377229c10585ec392f8a,626b3c67d3e1600b9db094c6,,,,,"Which game did you play the most this year? (Enter ""None"" if you didn't play any)",,,0.7,0, Valorant,,,,,,,,,,,,,,,,,,,,,,,,,,,,,,,,,,,,,,,,,,,,,,,,,,,,,,,,,,
,61490a83dfe0ffe854d06164,001,2022-04-28_20h18.25.227,classification_task,2021.2.3,Win32,60.04202942,61490a83dfe0ffe854d06164,626b377229c10585ec392f8a,626b3c67d3e1600b9db094c6,,,,,Visual perception,,,0.7,0,,,,,,,,,,,,,,,,,,,,,,,,,,,,,,,,,,,,,,,,,,,,,,,,,,,,,,,,,,,
,61490a83dfe0ffe854d06164,001,2022-04-28_20h18.25.227,classification_task,2021.2.3,Win32,60.04202942,61490a83dfe0ffe854d06164,626b377229c10585ec392f8a,626b3c67d3e1600b9db094c6,,,,,Do you have any form of color blindness?,,,0.7,0,No,175.1923,,,,,,,,,,,,,,,,,,,,,,,,,,,,,,,,,,,,,,,,,,,,,,,,,,,,,,,,,
,61490a83dfe0ffe854d06164,001,2022-04-28_20h18.25.227,classification_task,2021.2.3,Win32,60.04202942,61490a83dfe0ffe854d06164,626b377229c10585ec392f8a,626b3c67d3e1600b9db094c6,,,,,Do you use software to change the colour temperature of your screen (e.g. f.lux)?,,,0.7,0,No,281.9396,,,,,,,,,,,,,,,,,,,,,,,,,,,,,,,,,,,,,,,,,,,,,,,,,,,,,,,,,
,61490a83dfe0ffe854d06164,001,2022-04-28_20h18.25.227,classification_task,2021.2.3,Win32,60.04202942,61490a83dfe0ffe854d06164,626b377229c10585ec392f8a,626b3c67d3e1600b9db094c6,,,,,,,,,,,,space,28.0301,space,265.5144,0,0,0,0,1,,,,,,,,,,,,,,,,,,,,,,,,,,,,,,,,,,,,,,,,,,,,,,,,
,61490a83dfe0ffe854d06164,001,2022-04-28_20h18.25.227,classification_task,2021.2.3,Win32,60.04202942,61490a83dfe0ffe854d06164,626b377229c10585ec392f8a,626b3c67d3e1600b9db094c6,,,,,,,,,,,,,,space,38.4861,1,0,1,0,1,,,,,,,,,,,,,,,,,,,,,,,,,,,,,,,,,,,,,,,,,,,,,,,,
,61490a83dfe0ffe854d06164,001,2022-04-28_20h18.25.227,classification_task,2021.2.3,Win32,60.04202942,61490a83dfe0ffe854d06164,626b377229c10585ec392f8a,626b3c67d3e1600b9db094c6,,,,,,,,,,,,,,space,24.8586,2,0,2,0,1,,,,,,,,,,,,,,,,,,,,,,,,,,,,,,,,,,,,,,,,,,,,,,,,
,61490a83dfe0ffe854d06164,001,2022-04-28_20h18.25.227,classification_task,2021.2.3,Win32,60.04202942,61490a83dfe0ffe854d06164,626b377229c10585ec392f8a,626b3c67d3e1600b9db094c6,,,,,,,,,,,,,,space,31.5407,3,0,3,0,1,,,,,,,,,,,,,,,,,,,,,,,,,,,,,,,,,,,,,,,,,,,,,,,,
,61490a83dfe0ffe854d06164,001,2022-04-28_20h18.25.227,classification_task,2021.2.3,Win32,60.04202942,61490a83dfe0ffe854d06164,626b377229c10585ec392f8a,626b3c67d3e1600b9db094c6,,,,,,,,,,,,,,space,36.9682,4,0,4,0,1,,,,,,,,,,,,,,,,,,,,,,,,,,,,,,,,,,,,,,,,,,,,,,,,
,61490a83dfe0ffe854d06164,001,2022-04-28_20h18.25.227,classification_task,2021.2.3,Win32,60.04202942,61490a83dfe0ffe854d06164,626b377229c10585ec392f8a,626b3c67d3e1600b9db094c6,,,,,,,,,,,,,,,,,,,,,space,82.6719,,0,"[""0.143"",""0.337"",""0.628"",""0.822""]","[1,1,0,1]",0,0,0,0,1,1,0,,,0,FALSE,,,,,,,,,,,,,,,,,,,,,,,,,,,,,,,
,61490a83dfe0ffe854d06164,001,2022-04-28_20h18.25.227,classification_task,2021.2.3,Win32,60.04202942,61490a83dfe0ffe854d06164,626b377229c10585ec392f8a,626b3c67d3e1600b9db094c6,,,,,,,,,,,,,,,,,,,,,,,l,1,"[""0.143"",""0.337"",""0.471"",""0.682""]","[1,1,1,0]",0,1,1,1,1,1,0,,,0,FALSE,4.0133,,,,,,,,,,,,,,,,,,,,,,,,,,,,,,
,61490a83dfe0ffe854d06164,001,2022-04-28_20h18.25.227,classification_task,2021.2.3,Win32,60.04202942,61490a83dfe0ffe854d06164,626b377229c10585ec392f8a,626b3c67d3e1600b9db094c6,,,,,,,,,,,,,,,,,,,,,,,l,0,"[""0.248"",""0.616"",""0.770"",""0.919""]","[1,0,1,1]",0,2,2,2,1,0,0,,,0,FALSE,1.317,,,,,,,,,,,,,,,,,,,,,,,,,,,,,,
,61490a83dfe0ffe854d06164,001,2022-04-28_20h18.25.227,classification_task,2021.2.3,Win32,60.04202942,61490a83dfe0ffe854d06164,626b377229c10585ec392f8a,626b3c67d3e1600b9db094c6,,,,,,,,,,,,,,,,,,,,,,,l,0,"[""0.248"",""0.430"",""0.596"",""0.919""]","[1,1,0,1]",0,3,3,3,1,0,0,,,0,FALSE,1.3498,,,,,,,,,,,,,,,,,,,,,,,,,,,,,,
,61490a83dfe0ffe854d06164,001,2022-04-28_20h18.25.227,classification_task,2021.2.3,Win32,60.04202942,61490a83dfe0ffe854d06164,626b377229c10585ec392f8a,626b3c67d3e1600b9db094c6,,,,,,,,,,,,,,,,,,,,,,,a,1,"[""0.248"",""0.430"",""0.770"",""0.059""]","[1,1,1,0]",0,4,4,4,1,0,0,,,0,FALSE,0.8923,,,,,,,,,,,,,,,,,,,,,,,,,,,,,,
,61490a83dfe0ffe854d06164,001,2022-04-28_20h18.25.227,classification_task,2021.2.3,Win32,60.04202942,61490a83dfe0ffe854d06164,626b377229c10585ec392f8a,626b3c67d3e1600b9db094c6,,,,,,,,,,,,,,,,,,,,,,,l,1,"[""0.097"",""0.629"",""0.515"",""0.730""]","[1,0,1,1]",0,5,5,5,1,1,1,,,0,FALSE,2.016,,,,,,,,,,,,,,,,,,,,,,,,,,,,,,
,61490a83dfe0ffe854d06164,001,2022-04-28_20h18.25.227,classification_task,2021.2.3,Win32,60.04202942,61490a83dfe0ffe854d06164,626b377229c10585ec392f8a,626b3c67d3e1600b9db094c6,,,,,,,,,,,,,,,,,,,,,,,l,0,"[""0.655"",""0.430"",""0.770"",""0.919""]","[0,1,1,1]",0,6,6,6,1,0,0,,,0,FALSE,1.5274,,,,,,,,,,,,,,,,,,,,,,,,,,,,,,
,61490a83dfe0ffe854d06164,001,2022-04-28_20h18.25.227,classification_task,2021.2.3,Win32,60.04202942,61490a83dfe0ffe854d06164,626b377229c10585ec392f8a,626b3c67d3e1600b9db094c6,,,,,,,,,,,,,,,,,,,,,,,l,1,"[""0.097"",""0.290"",""0.515"",""0.555""]","[1,1,1,0]",0,7,7,7,1,1,1,,,0,FALSE,0.7185,,,,,,,,,,,,,,,,,,,,,,,,,,,,,,
,61490a83dfe0ffe854d06164,001,2022-04-28_20h18.25.227,classification_task,2021.2.3,Win32,60.04202942,61490a83dfe0ffe854d06164,626b377229c10585ec392f8a,626b3c67d3e1600b9db094c6,,,,,,,,,,,,,,,,,,,,,,,a,0,"[""0.097"",""0.290"",""0.026"",""0.730""]","[1,1,0,1]",0,8,8,8,1,1,1,,,0,FALSE,2.4621,,,,,,,,,,,,,,,,,,,,,,,,,,,,,,
,61490a83dfe0ffe854d06164,001,2022-04-28_20h18.25.227,classification_task,2021.2.3,Win32,60.04202942,61490a83dfe0ffe854d06164,626b377229c10585ec392f8a,626b3c67d3e1600b9db094c6,,,,,,,,,,,,,,,,,,,,,,,a,1,"[""0.205"",""0.391"",""0.628"",""0.967""]","[1,1,0,1]",0,9,9,9,1,0,1,,,0,FALSE,1.0993,,,,,,,,,,,,,,,,,,,,,,,,,,,,,,
,61490a83dfe0ffe854d06164,001,2022-04-28_20h18.25.227,classification_task,2021.2.3,Win32,60.04202942,61490a83dfe0ffe854d06164,626b377229c10585ec392f8a,626b3c67d3e1600b9db094c6,,,,,,,,,,,,,,,,,,,,,,,a,0,"[""0.026"",""0.337"",""0.471"",""0.822""]","[0,1,1,1]",0,10,10,10,1,1,0,,,0,FALSE,1.8757,,,,,,,,,,,,,,,,,,,,,,,,,,,,,,
,61490a83dfe0ffe854d06164,001,2022-04-28_20h18.25.227,classification_task,2021.2.3,Win32,60.04202942,61490a83dfe0ffe854d06164,626b377229c10585ec392f8a,626b3c67d3e1600b9db094c6,,,,,,,,,,,,,,,,,,,,,,,a,1,"[""0.592"",""0.391"",""0.872"",""0.967""]","[0,1,1,1]",0,11,11,11,1,0,1,,,0,FALSE,1.5419,,,,,,,,,,,,,,,,,,,,,,,,,,,,,,
,61490a83dfe0ffe854d06164,001,2022-04-28_20h18.25.227,classification_task,2021.2.3,Win32,60.04202942,61490a83dfe0ffe854d06164,626b377229c10585ec392f8a,626b3c67d3e1600b9db094c6,,,,,,,,,,,,,,,,,,,,,,,l,1,"[""0.652"",""0.290"",""0.515"",""0.730""]","[0,1,1,1]",0,12,12,12,1,1,1,,,0,FALSE,1.227,,,,,,,,,,,,,,,,,,,,,,,,,,,,,,
,61490a83dfe0ffe854d06164,001,2022-04-28_20h18.25.227,classification_task,2021.2.3,Win32,60.04202942,61490a83dfe0ffe854d06164,626b377229c10585ec392f8a,626b3c67d3e1600b9db094c6,,,,,,,,,,,,,,,,,,,,,,,a,1,"[""0.205"",""0.391"",""0.872"",""0.657""]","[1,1,1,0]",0,13,13,13,1,0,1,,,0,FALSE,1.1473,,,,,,,,,,,,,,,,,,,,,,,,,,,,,,
,61490a83dfe0ffe854d06164,001,2022-04-28_20h18.25.227,classification_task,2021.2.3,Win32,60.04202942,61490a83dfe0ffe854d06164,626b377229c10585ec392f8a,626b3c67d3e1600b9db094c6,,,,,,,,,,,,,,,,,,,,,,,l,1,"[""0.143"",""0.639"",""0.471"",""0.822""]","[1,0,1,1]",0,14,14,14,1,1,0,,,0,FALSE,1.0785,,,,,,,,,,,,,,,,,,,,,,,,,,,,,,
,61490a83dfe0ffe854d06164,001,2022-04-28_20h18.25.227,classification_task,2021.2.3,Win32,60.04202942,61490a83dfe0ffe854d06164,626b377229c10585ec392f8a,626b3c67d3e1600b9db094c6,,,,,,,,,,,,,,,,,,,,,,,l,0,"[""0.205"",""0.592"",""0.872"",""0.967""]","[1,0,1,1]",0,15,15,15,1,0,1,,,0,FALSE,0.8523,,,,,,,,,,,,,,,,,,,,,,,,,,,,,,
,61490a83dfe0ffe854d06164,001,2022-04-28_20h18.25.227,classification_task,2021.2.3,Win32,60.04202942,61490a83dfe0ffe854d06164,626b377229c10585ec392f8a,626b3c67d3e1600b9db094c6,,,,,,,,,,,,,,,,,,,,,,,a,0,"[""0.097"",""0.628"",""0.515"",""0.730""]","[1,0,1,1]",0,16,16,16,1,1,1,,,0,FALSE,0.8813,,,,,,,,,,,,,,,,,,,,,,,,,,,,,,
,61490a83dfe0ffe854d06164,001,2022-04-28_20h18.25.227,classification_task,2021.2.3,Win32,60.04202942,61490a83dfe0ffe854d06164,626b377229c10585ec392f8a,626b3c67d3e1600b9db094c6,,,,,,,,,,,,,,,,,,,,,,,a,1,"[""0.248"",""0.430"",""0.770"",""0.567""]","[1,1,1,0]",0,17,17,17,1,0,0,,,0,FALSE,0.9546,,,,,,,,,,,,,,,,,,,,,,,,,,,,,,
,61490a83dfe0ffe854d06164,001,2022-04-28_20h18.25.227,classification_task,2021.2.3,Win32,60.04202942,61490a83dfe0ffe854d06164,626b377229c10585ec392f8a,626b3c67d3e1600b9db094c6,,,,,,,,,,,,,,,,,,,,,,,a,0,"[""0.097"",""0.290"",""0.515"",""0.628""]","[1,1,1,0]",0,18,18,18,1,1,1,,,0,FALSE,0.8551,,,,,,,,,,,,,,,,,,,,,,,,,,,,,,
,61490a83dfe0ffe854d06164,001,2022-04-28_20h18.25.227,classification_task,2021.2.3,Win32,60.04202942,61490a83dfe0ffe854d06164,626b377229c10585ec392f8a,626b3c67d3e1600b9db094c6,,,,,,,,,,,,,,,,,,,,,,,a,1,"[""0.248"",""0.430"",""0.026"",""0.919""]","[1,1,0,1]",0,19,19,19,1,0,0,,,0,FALSE,0.7301,,,,,,,,,,,,,,,,,,,,,,,,,,,,,,
,61490a83dfe0ffe854d06164,001,2022-04-28_20h18.25.227,classification_task,2021.2.3,Win32,60.04202942,61490a83dfe0ffe854d06164,626b377229c10585ec392f8a,626b3c67d3e1600b9db094c6,,,,,,,,,,,,,,,,,,,,,,,a,0,"[""0.143"",""0.337"",""0.471"",""0.026""]","[1,1,1,0]",0,20,20,20,1,1,0,,,0,FALSE,0.55,,,,,,,,,,,,,,,,,,,,,,,,,,,,,,
,61490a83dfe0ffe854d06164,001,2022-04-28_20h18.25.227,classification_task,2021.2.3,Win32,60.04202942,61490a83dfe0ffe854d06164,626b377229c10585ec392f8a,626b3c67d3e1600b9db094c6,,,,,,,,,,,,,,,,,,,,,,,l,0,"[""0.248"",""0.628"",""0.770"",""0.919""]","[1,0,1,1]",0,21,21,21,1,0,0,,,0,FALSE,0.5868,,,,,,,,,,,,,,,,,,,,,,,,,,,,,,
,61490a83dfe0ffe854d06164,001,2022-04-28_20h18.25.227,classification_task,2021.2.3,Win32,60.04202942,61490a83dfe0ffe854d06164,626b377229c10585ec392f8a,626b3c67d3e1600b9db094c6,,,,,,,,,,,,,,,,,,,,,,,l,1,"[""0.143"",""0.652"",""0.471"",""0.822""]","[1,0,1,1]",0,22,22,22,1,1,0,,,0,FALSE,1.3392,,,,,,,,,,,,,,,,,,,,,,,,,,,,,,
,61490a83dfe0ffe854d06164,001,2022-04-28_20h18.25.227,classification_task,2021.2.3,Win32,60.04202942,61490a83dfe0ffe854d06164,626b377229c10585ec392f8a,626b3c67d3e1600b9db094c6,,,,,,,,,,,,,,,,,,,,,,,l,0,"[""0.639"",""0.430"",""0.770"",""0.919""]","[0,1,1,1]",0,23,23,23,1,0,0,,,0,FALSE,0.7113,,,,,,,,,,,,,,,,,,,,,,,,,,,,,,
,61490a83dfe0ffe854d06164,001,2022-04-28_20h18.25.227,classification_task,2021.2.3,Win32,60.04202942,61490a83dfe0ffe854d06164,626b377229c10585ec392f8a,626b3c67d3e1600b9db094c6,,,,,,,,,,,,,,,,,,,,,,,a,1,"[""0.205"",""0.616"",""0.872"",""0.967""]","[1,0,1,1]",0,24,24,24,1,0,1,,,0,FALSE,2.4044,,,,,,,,,,,,,,,,,,,,,,,,,,,,,,
,61490a83dfe0ffe854d06164,001,2022-04-28_20h18.25.227,classification_task,2021.2.3,Win32,60.04202942,61490a83dfe0ffe854d06164,626b377229c10585ec392f8a,626b3c67d3e1600b9db094c6,,,,,,,,,,,,,,,,,,,,,,,a,1,"[""0.205"",""0.391"",""0.639"",""0.967""]","[1,1,0,1]",0,25,25,25,1,0,1,,,0,FALSE,2.2523,,,,,,,,,,,,,,,,,,,,,,,,,,,,,,
,61490a83dfe0ffe854d06164,001,2022-04-28_20h18.25.227,classification_task,2021.2.3,Win32,60.04202942,61490a83dfe0ffe854d06164,626b377229c10585ec392f8a,626b3c67d3e1600b9db094c6,,,,,,,,,,,,,,,,,,,,,,,a,0,"[""0.097"",""0.290"",""0.629"",""0.730""]","[1,1,0,1]",0,26,26,26,1,1,1,,,0,FALSE,1.5296,,,,,,,,,,,,,,,,,,,,,,,,,,,,,,
,61490a83dfe0ffe854d06164,001,2022-04-28_20h18.25.227,classification_task,2021.2.3,Win32,60.04202942,61490a83dfe0ffe854d06164,626b377229c10585ec392f8a,626b3c67d3e1600b9db094c6,,,,,,,,,,,,,,,,,,,,,,,l,1,"[""0.662"",""0.290"",""0.515"",""0.730""]","[0,1,1,1]",0,27,27,27,1,1,1,,,0,FALSE,1.734,,,,,,,,,,,,,,,,,,,,,,,,,,,,,,
,61490a83dfe0ffe854d06164,001,2022-04-28_20h18.25.227,classification_task,2021.2.3,Win32,60.04202942,61490a83dfe0ffe854d06164,626b377229c10585ec392f8a,626b3c67d3e1600b9db094c6,,,,,,,,,,,,,,,,,,,,,,,a,1,"[""0.205"",""0.391"",""0.872"",""0.592""]","[1,1,1,0]",0,28,28,28,1,0,1,,,0,FALSE,1.1295,,,,,,,,,,,,,,,,,,,,,,,,,,,,,,
,61490a83dfe0ffe854d06164,001,2022-04-28_20h18.25.227,classification_task,2021.2.3,Win32,60.04202942,61490a83dfe0ffe854d06164,626b377229c10585ec392f8a,626b3c67d3e1600b9db094c6,,,,,,,,,,,,,,,,,,,,,,,l,1,"[""0.143"",""0.337"",""0.062"",""0.822""]","[1,1,0,1]",0,29,29,29,1,1,0,,,0,FALSE,1.1921,,,,,,,,,,,,,,,,,,,,,,,,,,,,,,
,61490a83dfe0ffe854d06164,001,2022-04-28_20h18.25.227,classification_task,2021.2.3,Win32,60.04202942,61490a83dfe0ffe854d06164,626b377229c10585ec392f8a,626b3c67d3e1600b9db094c6,,,,,,,,,,,,,,,,,,,,,,,a,1,"[""0.596"",""0.391"",""0.872"",""0.967""]","[0,1,1,1]",0,30,30,30,1,0,1,,,0,FALSE,2.0879,,,,,,,,,,,,,,,,,,,,,,,,,,,,,,
,61490a83dfe0ffe854d06164,001,2022-04-28_20h18.25.227,classification_task,2021.2.3,Win32,60.04202942,61490a83dfe0ffe854d06164,626b377229c10585ec392f8a,626b3c67d3e1600b9db094c6,,,,,,,,,,,,,,,,,,,,,,,l,1,"[""0.596"",""0.337"",""0.471"",""0.822""]","[0,1,1,1]",0,31,31,31,1,1,0,,,0,FALSE,1.5747,,,,,,,,,,,,,,,,,,,,,,,,,,,,,,
,61490a83dfe0ffe854d06164,001,2022-04-28_20h18.25.227,classification_task,2021.2.3,Win32,60.04202942,61490a83dfe0ffe854d06164,626b377229c10585ec392f8a,626b3c67d3e1600b9db094c6,,,,,,,,,,,,,,,,,,,,,,,l,1,"[""0.097"",""0.616"",""0.515"",""0.730""]","[1,0,1,1]",0,32,32,32,1,1,1,,,0,FALSE,1.3013,,,,,,,,,,,,,,,,,,,,,,,,,,,,,,
,61490a83dfe0ffe854d06164,001,2022-04-28_20h18.25.227,classification_task,2021.2.3,Win32,60.04202942,61490a83dfe0ffe854d06164,626b377229c10585ec392f8a,626b3c67d3e1600b9db094c6,,,,,,,,,,,,,,,,,,,,,,,l,0,"[""0.248"",""0.639"",""0.770"",""0.919""]","[1,0,1,1]",0,33,33,33,1,0,0,,,0,FALSE,0.903,,,,,,,,,,,,,,,,,,,,,,,,,,,,,,
,61490a83dfe0ffe854d06164,001,2022-04-28_20h18.25.227,classification_task,2021.2.3,Win32,60.04202942,61490a83dfe0ffe854d06164,626b377229c10585ec392f8a,626b3c67d3e1600b9db094c6,,,,,,,,,,,,,,,,,,,,,,,a,0,"[""0.143"",""0.337"",""0.471"",""0.567""]","[1,1,1,0]",0,34,34,34,1,1,0,,,0,FALSE,0.7679,,,,,,,,,,,,,,,,,,,,,,,,,,,,,,
,61490a83dfe0ffe854d06164,001,2022-04-28_20h18.25.227,classification_task,2021.2.3,Win32,60.04202942,61490a83dfe0ffe854d06164,626b377229c10585ec392f8a,626b3c67d3e1600b9db094c6,,,,,,,,,,,,,,,,,,,,,,,l,1,"[""0.143"",""0.337"",""0.592"",""0.822""]","[1,1,0,1]",0,35,35,35,1,1,0,,,0,FALSE,0.732,,,,,,,,,,,,,,,,,,,,,,,,,,,,,,
,61490a83dfe0ffe854d06164,001,2022-04-28_20h18.25.227,classification_task,2021.2.3,Win32,60.04202942,61490a83dfe0ffe854d06164,626b377229c10585ec392f8a,626b3c67d3e1600b9db094c6,,,,,,,,,,,,,,,,,,,,,,,l,1,"[""0.097"",""0.290"",""0.592"",""0.730""]","[1,1,0,1]",0,36,36,36,1,1,1,,,0,FALSE,0.765,,,,,,,,,,,,,,,,,,,,,,,,,,,,,,
,61490a83dfe0ffe854d06164,001,2022-04-28_20h18.25.227,classification_task,2021.2.3,Win32,60.04202942,61490a83dfe0ffe854d06164,626b377229c10585ec392f8a,626b3c67d3e1600b9db094c6,,,,,,,,,,,,,,,,,,,,,,,l,0,"[""0.205"",""0.662"",""0.872"",""0.967""]","[1,0,1,1]",0,37,37,37,1,0,1,,,0,FALSE,0.5337,,,,,,,,,,,,,,,,,,,,,,,,,,,,,,
,61490a83dfe0ffe854d06164,001,2022-04-28_20h18.25.227,classification_task,2021.2.3,Win32,60.04202942,61490a83dfe0ffe854d06164,626b377229c10585ec392f8a,626b3c67d3e1600b9db094c6,,,,,,,,,,,,,,,,,,,,,,,l,0,"[""0.248"",""0.430"",""0.652"",""0.919""]","[1,1,0,1]",0,38,38,38,1,0,0,,,0,FALSE,4.2809,,,,,,,,,,,,,,,,,,,,,,,,,,,,,,
,61490a83dfe0ffe854d06164,001,2022-04-28_20h18.25.227,classification_task,2021.2.3,Win32,60.04202942,61490a83dfe0ffe854d06164,626b377229c10585ec392f8a,626b3c67d3e1600b9db094c6,,,,,,,,,,,,,,,,,,,,,,,,0,"[""0.248"",""0.430"",""0.770"",""0.628""]","[1,1,1,0]",0,39,39,39,1,0,0,,,0,FALSE,,,,,,,,,,,,,,,,,,,,,,,,,,,,,,,
,61490a83dfe0ffe854d06164,001,2022-04-28_20h18.25.227,classification_task,2021.2.3,Win32,60.04202942,61490a83dfe0ffe854d06164,626b377229c10585ec392f8a,626b3c67d3e1600b9db094c6,,,,,,,,,,,,,,,,,,,,,,,l,1,"[""0.143"",""0.555"",""0.471"",""0.822""]","[1,0,1,1]",0,40,40,40,1,1,0,,,0,FALSE,1.8489,,,,,,,,,,,,,,,,,,,,,,,,,,,,,,
,61490a83dfe0ffe854d06164,001,2022-04-28_20h18.25.227,classification_task,2021.2.3,Win32,60.04202942,61490a83dfe0ffe854d06164,626b377229c10585ec392f8a,626b3c67d3e1600b9db094c6,,,,,,,,,,,,,,,,,,,,,,,l,0,"[""0.629"",""0.391"",""0.872"",""0.967""]","[0,1,1,1]",0,41,41,41,1,0,1,,,0,FALSE,0.9865,,,,,,,,,,,,,,,,,,,,,,,,,,,,,,
,61490a83dfe0ffe854d06164,001,2022-04-28_20h18.25.227,classification_task,2021.2.3,Win32,60.04202942,61490a83dfe0ffe854d06164,626b377229c10585ec392f8a,626b3c67d3e1600b9db094c6,,,,,,,,,,,,,,,,,,,,,,,l,1,"[""0.097"",""0.290"",""0.515"",""0.567""]","[1,1,1,0]",0,42,42,42,1,1,1,,,0,FALSE,0.7219,,,,,,,,,,,,,,,,,,,,,,,,,,,,,,
,61490a83dfe0ffe854d06164,001,2022-04-28_20h18.25.227,classification_task,2021.2.3,Win32,60.04202942,61490a83dfe0ffe854d06164,626b377229c10585ec392f8a,626b3c67d3e1600b9db094c6,,,,,,,,,,,,,,,,,,,,,,,l,1,"[""0.662"",""0.337"",""0.471"",""0.822""]","[0,1,1,1]",0,43,43,43,1,1,0,,,0,FALSE,0.7971,,,,,,,,,,,,,,,,,,,,,,,,,,,,,,
,61490a83dfe0ffe854d06164,001,2022-04-28_20h18.25.227,classification_task,2021.2.3,Win32,60.04202942,61490a83dfe0ffe854d06164,626b377229c10585ec392f8a,626b3c67d3e1600b9db094c6,,,,,,,,,,,,,,,,,,,,,,,a,1,"[""0.062"",""0.430"",""0.770"",""0.919""]","[0,1,1,1]",0,44,44,44,1,0,0,,,0,FALSE,0.4421,,,,,,,,,,,,,,,,,,,,,,,,,,,,,,
,61490a83dfe0ffe854d06164,001,2022-04-28_20h18.25.227,classification_task,2021.2.3,Win32,60.04202942,61490a83dfe0ffe854d06164,626b377229c10585ec392f8a,626b3c67d3e1600b9db094c6,,,,,,,,,,,,,,,,,,,,,,,l,1,"[""0.555"",""0.290"",""0.515"",""0.730""]","[0,1,1,1]",0,45,45,45,1,1,1,,,0,FALSE,0.5964,,,,,,,,,,,,,,,,,,,,,,,,,,,,,,
,61490a83dfe0ffe854d06164,001,2022-04-28_20h18.25.227,classification_task,2021.2.3,Win32,60.04202942,61490a83dfe0ffe854d06164,626b377229c10585ec392f8a,626b3c67d3e1600b9db094c6,,,,,,,,,,,,,,,,,,,,,,,a,1,"[""0.205"",""0.391"",""0.872"",""0.059""]","[1,1,1,0]",0,46,46,46,1,0,1,,,0,FALSE,0.5125,,,,,,,,,,,,,,,,,,,,,,,,,,,,,,
,61490a83dfe0ffe854d06164,001,2022-04-28_20h18.25.227,classification_task,2021.2.3,Win32,60.04202942,61490a83dfe0ffe854d06164,626b377229c10585ec392f8a,626b3c67d3e1600b9db094c6,,,,,,,,,,,,,,,,,,,,,,,l,0,"[""0.205"",""0.391"",""0.062"",""0.967""]","[1,1,0,1]",0,47,47,47,1,0,1,,,0,FALSE,0.5449,,,,,,,,,,,,,,,,,,,,,,,,,,,,,,
,61490a83dfe0ffe854d06164,001,2022-04-28_20h18.25.227,classification_task,2021.2.3,Win32,60.04202942,61490a83dfe0ffe854d06164,626b377229c10585ec392f8a,626b3c67d3e1600b9db094c6,,,,,,,,,,,,,,,,,,,,,,,l,0,"[""0.205"",""0.391"",""0.872"",""0.592""]","[1,1,1,0]",0,48,48,48,1,0,1,,,0,FALSE,0.6151,,,,,,,,,,,,,,,,,,,,,,,,,,,,,,
,61490a83dfe0ffe854d06164,001,2022-04-28_20h18.25.227,classification_task,2021.2.3,Win32,60.04202942,61490a83dfe0ffe854d06164,626b377229c10585ec392f8a,626b3c67d3e1600b9db094c6,,,,,,,,,,,,,,,,,,,,,,,l,0,"[""0.248"",""0.430"",""0.770"",""0.026""]","[1,1,1,0]",0,49,49,49,1,0,0,,,0,FALSE,0.5149,,,,,,,,,,,,,,,,,,,,,,,,,,,,,,
,61490a83dfe0ffe854d06164,001,2022-04-28_20h18.25.227,classification_task,2021.2.3,Win32,60.04202942,61490a83dfe0ffe854d06164,626b377229c10585ec392f8a,626b3c67d3e1600b9db094c6,,,,,,,,,,,,,,,,,,,,,,,l,1,"[""0.097"",""0.290"",""0.628"",""0.730""]","[1,1,0,1]",0,50,50,50,1,1,1,,,0,FALSE,0.6849,,,,,,,,,,,,,,,,,,,,,,,,,,,,,,
,61490a83dfe0ffe854d06164,001,2022-04-28_20h18.25.227,classification_task,2021.2.3,Win32,60.04202942,61490a83dfe0ffe854d06164,626b377229c10585ec392f8a,626b3c67d3e1600b9db094c6,,,,,,,,,,,,,,,,,,,,,,,l,1,"[""0.143"",""0.337"",""0.471"",""0.596""]","[1,1,1,0]",0,51,51,51,1,1,0,,,0,FALSE,0.6653,,,,,,,,,,,,,,,,,,,,,,,,,,,,,,
,61490a83dfe0ffe854d06164,001,2022-04-28_20h18.25.227,classification_task,2021.2.3,Win32,60.04202942,61490a83dfe0ffe854d06164,626b377229c10585ec392f8a,626b3c67d3e1600b9db094c6,,,,,,,,,,,,,,,,,,,,,,,a,1,"[""0.248"",""0.629"",""0.770"",""0.919""]","[1,0,1,1]",0,52,52,52,1,0,0,,,0,FALSE,0.3963,,,,,,,,,,,,,,,,,,,,,,,,,,,,,,
,61490a83dfe0ffe854d06164,001,2022-04-28_20h18.25.227,classification_task,2021.2.3,Win32,60.04202942,61490a83dfe0ffe854d06164,626b377229c10585ec392f8a,626b3c67d3e1600b9db094c6,,,,,,,,,,,,,,,,,,,,,,,a,0,"[""0.616"",""0.337"",""0.471"",""0.822""]","[0,1,1,1]",0,53,53,53,1,1,0,,,0,FALSE,0.6888,,,,,,,,,,,,,,,,,,,,,,,,,,,,,,
,61490a83dfe0ffe854d06164,001,2022-04-28_20h18.25.227,classification_task,2021.2.3,Win32,60.04202942,61490a83dfe0ffe854d06164,626b377229c10585ec392f8a,626b3c67d3e1600b9db094c6,,,,,,,,,,,,,,,,,,,,,,,l,0,"[""0.639"",""0.430"",""0.770"",""0.919""]","[0,1,1,1]",0,54,54,54,1,0,0,,,0,FALSE,0.3671,,,,,,,,,,,,,,,,,,,,,,,,,,,,,,
,61490a83dfe0ffe854d06164,001,2022-04-28_20h18.25.227,classification_task,2021.2.3,Win32,60.04202942,61490a83dfe0ffe854d06164,626b377229c10585ec392f8a,626b3c67d3e1600b9db094c6,,,,,,,,,,,,,,,,,,,,,,,a,1,"[""0.205"",""0.391"",""0.592"",""0.967""]","[1,1,0,1]",0,55,55,55,1,0,1,,,0,FALSE,0.551,,,,,,,,,,,,,,,,,,,,,,,,,,,,,,
,61490a83dfe0ffe854d06164,001,2022-04-28_20h18.25.227,classification_task,2021.2.3,Win32,60.04202942,61490a83dfe0ffe854d06164,626b377229c10585ec392f8a,626b3c67d3e1600b9db094c6,,,,,,,,,,,,,,,,,,,,,,,l,1,"[""0.143"",""0.337"",""0.657"",""0.822""]","[1,1,0,1]",0,56,56,56,1,1,0,,,0,FALSE,0.6056,,,,,,,,,,,,,,,,,,,,,,,,,,,,,,
,61490a83dfe0ffe854d06164,001,2022-04-28_20h18.25.227,classification_task,2021.2.3,Win32,60.04202942,61490a83dfe0ffe854d06164,626b377229c10585ec392f8a,626b3c67d3e1600b9db094c6,,,,,,,,,,,,,,,,,,,,,,,a,0,"[""0.097"",""0.567"",""0.515"",""0.730""]","[1,0,1,1]",0,57,57,57,1,1,1,,,0,FALSE,0.3352,,,,,,,,,,,,,,,,,,,,,,,,,,,,,,
,61490a83dfe0ffe854d06164,001,2022-04-28_20h18.25.227,classification_task,2021.2.3,Win32,60.04202942,61490a83dfe0ffe854d06164,626b377229c10585ec392f8a,626b3c67d3e1600b9db094c6,,,,,,,,,,,,,,,,,,,,,,,l,1,"[""0.143"",""0.682"",""0.471"",""0.822""]","[1,0,1,1]",0,58,58,58,1,1,0,,,0,FALSE,0.3892,,,,,,,,,,,,,,,,,,,,,,,,,,,,,,
,61490a83dfe0ffe854d06164,001,2022-04-28_20h18.25.227,classification_task,2021.2.3,Win32,60.04202942,61490a83dfe0ffe854d06164,626b377229c10585ec392f8a,626b3c67d3e1600b9db094c6,,,,,,,,,,,,,,,,,,,,,,,a,0,"[""0.097"",""0.290"",""0.515"",""0.059""]","[1,1,1,0]",0,59,59,59,1,1,1,,,0,FALSE,0.8456,,,,,,,,,,,,,,,,,,,,,,,,,,,,,,
,61490a83dfe0ffe854d06164,001,2022-04-28_20h18.25.227,classification_task,2021.2.3,Win32,60.04202942,61490a83dfe0ffe854d06164,626b377229c10585ec392f8a,626b3c67d3e1600b9db094c6,,,,,,,,,,,,,,,,,,,,,,,a,0,"[""0.596"",""0.290"",""0.515"",""0.730""]","[0,1,1,1]",0,60,60,60,1,1,1,,,0,FALSE,0.2024,,,,,,,,,,,,,,,,,,,,,,,,,,,,,,
,61490a83dfe0ffe854d06164,001,2022-04-28_20h18.25.227,classification_task,2021.2.3,Win32,60.04202942,61490a83dfe0ffe854d06164,626b377229c10585ec392f8a,626b3c67d3e1600b9db094c6,,,,,,,,,,,,,,,,,,,,,,,l,0,"[""0.205"",""0.592"",""0.872"",""0.967""]","[1,0,1,1]",0,61,61,61,1,0,1,,,0,FALSE,0.4476,,,,,,,,,,,,,,,,,,,,,,,,,,,,,,
,61490a83dfe0ffe854d06164,001,2022-04-28_20h18.25.227,classification_task,2021.2.3,Win32,60.04202942,61490a83dfe0ffe854d06164,626b377229c10585ec392f8a,626b3c67d3e1600b9db094c6,,,,,,,,,,,,,,,,,,,,,,,l,0,"[""0.248"",""0.430"",""0.655"",""0.919""]","[1,1,0,1]",0,62,62,62,1,0,0,,,0,FALSE,0.4646,,,,,,,,,,,,,,,,,,,,,,,,,,,,,,
,61490a83dfe0ffe854d06164,001,2022-04-28_20h18.25.227,classification_task,2021.2.3,Win32,60.04202942,61490a83dfe0ffe854d06164,626b377229c10585ec392f8a,626b3c67d3e1600b9db094c6,,,,,,,,,,,,,,,,,,,,,,,l,0,"[""0.062"",""0.391"",""0.872"",""0.967""]","[0,1,1,1]",0,63,63,63,1,0,1,,,0,FALSE,0.4161,,,,,,,,,,,,,,,,,,,,,,,,,,,,,,
,61490a83dfe0ffe854d06164,001,2022-04-28_20h18.25.227,classification_task,2021.2.3,Win32,60.04202942,61490a83dfe0ffe854d06164,626b377229c10585ec392f8a,626b3c67d3e1600b9db094c6,,,,,,,,,,,,,,,,,,,,,,,,,,,,,,,,,,,,,,,0, ,,0,6.817410361,1143.5387,0,0,0,0,1,2,1,,,,,,,,,,,,,,,,,
,61490a83dfe0ffe854d06164,001,2022-04-28_20h18.25.227,classification_task,2021.2.3,Win32,60.04202942,61490a83dfe0ffe854d06164,626b377229c10585ec392f8a,626b3c67d3e1600b9db094c6,,,,,,,,,,,,,,,,,,,,,,,,,,,,,,,,,,,,,,,1,  ,,0,,,0,0,0,0,1,2,1,,,,,,,,,,,,,,,,,
,61490a83dfe0ffe854d06164,001,2022-04-28_20h18.25.227,classification_task,2021.2.3,Win32,60.04202942,61490a83dfe0ffe854d06164,626b377229c10585ec392f8a,626b3c67d3e1600b9db094c6,,,,,,,,,,,,,,,,,,,,,,,,,,,,,,,,,,,,,,,2,  ,,0,,,0,0,0,0,1,2,1,,,,,,,,,,,,,,,,,
,61490a83dfe0ffe854d06164,001,2022-04-28_20h18.25.227,classification_task,2021.2.3,Win32,60.04202942,61490a83dfe0ffe854d06164,626b377229c10585ec392f8a,626b3c67d3e1600b9db094c6,,,,,,,,,,,,,,,,,,,,,,,,,,,,,,,,,,,,,,,,,,,,,0,0,0,0,1,,1,,,,,,,,,,,,,,,,,
,61490a83dfe0ffe854d06164,001,2022-04-28_20h18.25.227,classification_task,2021.2.3,Win32,60.04202942,61490a83dfe0ffe854d06164,626b377229c10585ec392f8a,626b3c67d3e1600b9db094c6,,,,,,,,,,,,,,,,,,,,,space,53.3357,a,0,"[""0.097"",""0.290"",""0.515"",""0.628""]","[1,1,1,0]",0,0,0,0,1,1,1,,,0,FALSE,2.6183,,,,,,,,,,,,,,,,,,,,,,,,,,,,,,
,61490a83dfe0ffe854d06164,001,2022-04-28_20h18.25.227,classification_task,2021.2.3,Win32,60.04202942,61490a83dfe0ffe854d06164,626b377229c10585ec392f8a,626b3c67d3e1600b9db094c6,,,,,,,,,,,,,,,,,,,,,,,a,1,"[""0.248"",""0.430"",""0.770"",""0.567""]","[1,1,1,0]",0,1,1,1,1,0,0,,,0,FALSE,1.6473,,,,,,,,,,,,,,,,,,,,,,,,,,,,,,
,61490a83dfe0ffe854d06164,001,2022-04-28_20h18.25.227,classification_task,2021.2.3,Win32,60.04202942,61490a83dfe0ffe854d06164,626b377229c10585ec392f8a,626b3c67d3e1600b9db094c6,,,,,,,,,,,,,,,,,,,,,,,l,1,"[""0.097"",""0.290"",""0.662"",""0.730""]","[1,1,0,1]",0,2,2,2,1,1,1,,,0,FALSE,1.7999,,,,,,,,,,,,,,,,,,,,,,,,,,,,,,
,61490a83dfe0ffe854d06164,001,2022-04-28_20h18.25.227,classification_task,2021.2.3,Win32,60.04202942,61490a83dfe0ffe854d06164,626b377229c10585ec392f8a,626b3c67d3e1600b9db094c6,,,,,,,,,,,,,,,,,,,,,,,l,0,"[""0.248"",""0.430"",""0.555"",""0.919""]","[1,1,0,1]",0,3,3,3,1,0,0,,,0,FALSE,1.4132,,,,,,,,,,,,,,,,,,,,,,,,,,,,,,
,61490a83dfe0ffe854d06164,001,2022-04-28_20h18.25.227,classification_task,2021.2.3,Win32,60.04202942,61490a83dfe0ffe854d06164,626b377229c10585ec392f8a,626b3c67d3e1600b9db094c6,,,,,,,,,,,,,,,,,,,,,,,a,0,"[""0.143"",""0.337"",""0.471"",""0.062""]","[1,1,1,0]",0,4,4,4,1,1,0,,,0,FALSE,1.8761,,,,,,,,,,,,,,,,,,,,,,,,,,,,,,
,61490a83dfe0ffe854d06164,001,2022-04-28_20h18.25.227,classification_task,2021.2.3,Win32,60.04202942,61490a83dfe0ffe854d06164,626b377229c10585ec392f8a,626b3c67d3e1600b9db094c6,,,,,,,,,,,,,,,,,,,,,,,a,0,"[""0.143"",""0.652"",""0.471"",""0.822""]","[1,0,1,1]",0,5,5,5,1,1,0,,,0,FALSE,1.0035,,,,,,,,,,,,,,,,,,,,,,,,,,,,,,
,61490a83dfe0ffe854d06164,001,2022-04-28_20h18.25.227,classification_task,2021.2.3,Win32,60.04202942,61490a83dfe0ffe854d06164,626b377229c10585ec392f8a,626b3c67d3e1600b9db094c6,,,,,,,,,,,,,,,,,,,,,,,a,0,"[""0.596"",""0.337"",""0.471"",""0.822""]","[0,1,1,1]",0,6,6,6,1,1,0,,,0,FALSE,0.748,,,,,,,,,,,,,,,,,,,,,,,,,,,,,,
,61490a83dfe0ffe854d06164,001,2022-04-28_20h18.25.227,classification_task,2021.2.3,Win32,60.04202942,61490a83dfe0ffe854d06164,626b377229c10585ec392f8a,626b3c67d3e1600b9db094c6,,,,,,,,,,,,,,,,,,,,,,,a,1,"[""0.205"",""0.391"",""0.592"",""0.967""]","[1,1,0,1]",0,7,7,7,1,0,1,,,0,FALSE,0.6657,,,,,,,,,,,,,,,,,,,,,,,,,,,,,,
,61490a83dfe0ffe854d06164,001,2022-04-28_20h18.25.227,classification_task,2021.2.3,Win32,60.04202942,61490a83dfe0ffe854d06164,626b377229c10585ec392f8a,626b3c67d3e1600b9db094c6,,,,,,,,,,,,,,,,,,,,,,,a,1,"[""0.205"",""0.596"",""0.872"",""0.967""]","[1,0,1,1]",0,8,8,8,1,0,1,,,0,FALSE,0.8665,,,,,,,,,,,,,,,,,,,,,,,,,,,,,,
,61490a83dfe0ffe854d06164,001,2022-04-28_20h18.25.227,classification_task,2021.2.3,Win32,60.04202942,61490a83dfe0ffe854d06164,626b377229c10585ec392f8a,626b3c67d3e1600b9db094c6,,,,,,,,,,,,,,,,,,,,,,,l,1,"[""0.143"",""0.337"",""0.567"",""0.822""]","[1,1,0,1]",0,9,9,9,1,1,0,,,0,FALSE,0.4669,,,,,,,,,,,,,,,,,,,,,,,,,,,,,,
,61490a83dfe0ffe854d06164,001,2022-04-28_20h18.25.227,classification_task,2021.2.3,Win32,60.04202942,61490a83dfe0ffe854d06164,626b377229c10585ec392f8a,626b3c67d3e1600b9db094c6,,,,,,,,,,,,,,,,,,,,,,,l,0,"[""0.248"",""0.662"",""0.770"",""0.919""]","[1,0,1,1]",0,10,10,10,1,0,0,,,0,FALSE,0.4332,,,,,,,,,,,,,,,,,,,,,,,,,,,,,,
,61490a83dfe0ffe854d06164,001,2022-04-28_20h18.25.227,classification_task,2021.2.3,Win32,60.04202942,61490a83dfe0ffe854d06164,626b377229c10585ec392f8a,626b3c67d3e1600b9db094c6,,,,,,,,,,,,,,,,,,,,,,,l,1,"[""0.662"",""0.290"",""0.515"",""0.730""]","[0,1,1,1]",0,11,11,11,1,1,1,,,0,FALSE,0.3287,,,,,,,,,,,,,,,,,,,,,,,,,,,,,,
,61490a83dfe0ffe854d06164,001,2022-04-28_20h18.25.227,classification_task,2021.2.3,Win32,60.04202942,61490a83dfe0ffe854d06164,626b377229c10585ec392f8a,626b3c67d3e1600b9db094c6,,,,,,,,,,,,,,,,,,,,,,,a,1,"[""0.205"",""0.391"",""0.872"",""0.592""]","[1,1,1,0]",0,12,12,12,1,0,1,,,0,FALSE,0.3913,,,,,,,,,,,,,,,,,,,,,,,,,,,,,,
,61490a83dfe0ffe854d06164,001,2022-04-28_20h18.25.227,classification_task,2021.2.3,Win32,60.04202942,61490a83dfe0ffe854d06164,626b377229c10585ec392f8a,626b3c67d3e1600b9db094c6,,,,,,,,,,,,,,,,,,,,,,,l,0,"[""0.026"",""0.391"",""0.872"",""0.967""]","[0,1,1,1]",0,13,13,13,1,0,1,,,0,FALSE,1.024,,,,,,,,,,,,,,,,,,,,,,,,,,,,,,
,61490a83dfe0ffe854d06164,001,2022-04-28_20h18.25.227,classification_task,2021.2.3,Win32,60.04202942,61490a83dfe0ffe854d06164,626b377229c10585ec392f8a,626b3c67d3e1600b9db094c6,,,,,,,,,,,,,,,,,,,,,,,a,1,"[""0.555"",""0.430"",""0.770"",""0.919""]","[0,1,1,1]",0,14,14,14,1,0,0,,,0,FALSE,2.6859,,,,,,,,,,,,,,,,,,,,,,,,,,,,,,
,61490a83dfe0ffe854d06164,001,2022-04-28_20h18.25.227,classification_task,2021.2.3,Win32,60.04202942,61490a83dfe0ffe854d06164,626b377229c10585ec392f8a,626b3c67d3e1600b9db094c6,,,,,,,,,,,,,,,,,,,,,,,a,0,"[""0.097"",""0.629"",""0.515"",""0.730""]","[1,0,1,1]",0,15,15,15,1,1,1,,,0,FALSE,0.9116,,,,,,,,,,,,,,,,,,,,,,,,,,,,,,
,61490a83dfe0ffe854d06164,001,2022-04-28_20h18.25.227,classification_task,2021.2.3,Win32,60.04202942,61490a83dfe0ffe854d06164,626b377229c10585ec392f8a,626b3c67d3e1600b9db094c6,,,,,,,,,,,,,,,,,,,,,,,a,1,"[""0.248"",""0.430"",""0.770"",""0.639""]","[1,1,1,0]",0,16,16,16,1,0,0,,,0,FALSE,0.3381,,,,,,,,,,,,,,,,,,,,,,,,,,,,,,
,61490a83dfe0ffe854d06164,001,2022-04-28_20h18.25.227,classification_task,2021.2.3,Win32,60.04202942,61490a83dfe0ffe854d06164,626b377229c10585ec392f8a,626b3c67d3e1600b9db094c6,,,,,,,,,,,,,,,,,,,,,,,l,1,"[""0.097"",""0.062"",""0.515"",""0.730""]","[1,0,1,1]",0,17,17,17,1,1,1,,,0,FALSE,0.9585,,,,,,,,,,,,,,,,,,,,,,,,,,,,,,
,61490a83dfe0ffe854d06164,001,2022-04-28_20h18.25.227,classification_task,2021.2.3,Win32,60.04202942,61490a83dfe0ffe854d06164,626b377229c10585ec392f8a,626b3c67d3e1600b9db094c6,,,,,,,,,,,,,,,,,,,,,,,a,1,"[""0.205"",""0.592"",""0.872"",""0.967""]","[1,0,1,1]",0,18,18,18,1,0,1,,,0,FALSE,0.5977,,,,,,,,,,,,,,,,,,,,,,,,,,,,,,
,61490a83dfe0ffe854d06164,001,2022-04-28_20h18.25.227,classification_task,2021.2.3,Win32,60.04202942,61490a83dfe0ffe854d06164,626b377229c10585ec392f8a,626b3c67d3e1600b9db094c6,,,,,,,,,,,,,,,,,,,,,,,a,0,"[""0.097"",""0.290"",""0.555"",""0.730""]","[1,1,0,1]",0,19,19,19,1,1,1,,,0,FALSE,0.6181,,,,,,,,,,,,,,,,,,,,,,,,,,,,,,
,61490a83dfe0ffe854d06164,001,2022-04-28_20h18.25.227,classification_task,2021.2.3,Win32,60.04202942,61490a83dfe0ffe854d06164,626b377229c10585ec392f8a,626b3c67d3e1600b9db094c6,,,,,,,,,,,,,,,,,,,,,,,l,1,"[""0.682"",""0.290"",""0.515"",""0.730""]","[0,1,1,1]",0,20,20,20,1,1,1,,,0,FALSE,0.3901,,,,,,,,,,,,,,,,,,,,,,,,,,,,,,
,61490a83dfe0ffe854d06164,001,2022-04-28_20h18.25.227,classification_task,2021.2.3,Win32,60.04202942,61490a83dfe0ffe854d06164,626b377229c10585ec392f8a,626b3c67d3e1600b9db094c6,,,,,,,,,,,,,,,,,,,,,,,l,1,"[""0.097"",""0.290"",""0.515"",""0.616""]","[1,1,1,0]",0,21,21,21,1,1,1,,,0,FALSE,0.4515,,,,,,,,,,,,,,,,,,,,,,,,,,,,,,
,61490a83dfe0ffe854d06164,001,2022-04-28_20h18.25.227,classification_task,2021.2.3,Win32,60.04202942,61490a83dfe0ffe854d06164,626b377229c10585ec392f8a,626b3c67d3e1600b9db094c6,,,,,,,,,,,,,,,,,,,,,,,l,0,"[""0.652"",""0.391"",""0.872"",""0.967""]","[0,1,1,1]",0,22,22,22,1,0,1,,,0,FALSE,0.5959,,,,,,,,,,,,,,,,,,,,,,,,,,,,,,
,61490a83dfe0ffe854d06164,001,2022-04-28_20h18.25.227,classification_task,2021.2.3,Win32,60.04202942,61490a83dfe0ffe854d06164,626b377229c10585ec392f8a,626b3c67d3e1600b9db094c6,,,,,,,,,,,,,,,,,,,,,,,l,0,"[""0.248"",""0.430"",""0.655"",""0.919""]","[1,1,0,1]",0,23,23,23,1,0,0,,,0,FALSE,0.3881,,,,,,,,,,,,,,,,,,,,,,,,,,,,,,
,61490a83dfe0ffe854d06164,001,2022-04-28_20h18.25.227,classification_task,2021.2.3,Win32,60.04202942,61490a83dfe0ffe854d06164,626b377229c10585ec392f8a,626b3c67d3e1600b9db094c6,,,,,,,,,,,,,,,,,,,,,,,l,0,"[""0.248"",""0.629"",""0.770"",""0.919""]","[1,0,1,1]",0,24,24,24,1,0,0,,,0,FALSE,0.5249,,,,,,,,,,,,,,,,,,,,,,,,,,,,,,
,61490a83dfe0ffe854d06164,001,2022-04-28_20h18.25.227,classification_task,2021.2.3,Win32,60.04202942,61490a83dfe0ffe854d06164,626b377229c10585ec392f8a,626b3c67d3e1600b9db094c6,,,,,,,,,,,,,,,,,,,,,,,l,1,"[""0.143"",""0.337"",""0.471"",""0.596""]","[1,1,1,0]",0,25,25,25,1,1,0,,,0,FALSE,0.552,,,,,,,,,,,,,,,,,,,,,,,,,,,,,,
,61490a83dfe0ffe854d06164,001,2022-04-28_20h18.25.227,classification_task,2021.2.3,Win32,60.04202942,61490a83dfe0ffe854d06164,626b377229c10585ec392f8a,626b3c67d3e1600b9db094c6,,,,,,,,,,,,,,,,,,,,,,,l,1,"[""0.143"",""0.337"",""0.652"",""0.822""]","[1,1,0,1]",0,26,26,26,1,1,0,,,0,FALSE,0.6882,,,,,,,,,,,,,,,,,,,,,,,,,,,,,,
,61490a83dfe0ffe854d06164,001,2022-04-28_20h18.25.227,classification_task,2021.2.3,Win32,60.04202942,61490a83dfe0ffe854d06164,626b377229c10585ec392f8a,626b3c67d3e1600b9db094c6,,,,,,,,,,,,,,,,,,,,,,,l,1,"[""0.059"",""0.337"",""0.471"",""0.822""]","[0,1,1,1]",0,27,27,27,1,1,0,,,0,FALSE,0.5147,,,,,,,,,,,,,,,,,,,,,,,,,,,,,,
,61490a83dfe0ffe854d06164,001,2022-04-28_20h18.25.227,classification_task,2021.2.3,Win32,60.04202942,61490a83dfe0ffe854d06164,626b377229c10585ec392f8a,626b3c67d3e1600b9db094c6,,,,,,,,,,,,,,,,,,,,,,,l,0,"[""0.682"",""0.430"",""0.770"",""0.919""]","[0,1,1,1]",0,28,28,28,1,0,0,,,0,FALSE,0.7358,,,,,,,,,,,,,,,,,,,,,,,,,,,,,,
,61490a83dfe0ffe854d06164,001,2022-04-28_20h18.25.227,classification_task,2021.2.3,Win32,60.04202942,61490a83dfe0ffe854d06164,626b377229c10585ec392f8a,626b3c67d3e1600b9db094c6,,,,,,,,,,,,,,,,,,,,,,,l,1,"[""0.143"",""0.026"",""0.471"",""0.822""]","[1,0,1,1]",0,29,29,29,1,1,0,,,0,FALSE,1.1708,,,,,,,,,,,,,,,,,,,,,,,,,,,,,,
,61490a83dfe0ffe854d06164,001,2022-04-28_20h18.25.227,classification_task,2021.2.3,Win32,60.04202942,61490a83dfe0ffe854d06164,626b377229c10585ec392f8a,626b3c67d3e1600b9db094c6,,,,,,,,,,,,,,,,,,,,,,,a,1,"[""0.205"",""0.391"",""0.872"",""0.639""]","[1,1,1,0]",0,30,30,30,1,0,1,,,0,FALSE,0.5981,,,,,,,,,,,,,,,,,,,,,,,,,,,,,,
,61490a83dfe0ffe854d06164,001,2022-04-28_20h18.25.227,classification_task,2021.2.3,Win32,60.04202942,61490a83dfe0ffe854d06164,626b377229c10585ec392f8a,626b3c67d3e1600b9db094c6,,,,,,,,,,,,,,,,,,,,,,,a,1,"[""0.205"",""0.391"",""0.629"",""0.967""]","[1,1,0,1]",0,31,31,31,1,0,1,,,0,FALSE,1.2111,,,,,,,,,,,,,,,,,,,,,,,,,,,,,,
,61490a83dfe0ffe854d06164,001,2022-04-28_20h18.25.227,classification_task,2021.2.3,Win32,60.04202942,61490a83dfe0ffe854d06164,626b377229c10585ec392f8a,626b3c67d3e1600b9db094c6,,,,,,,,,,,,,,,,,,,,,,,a,1,"[""0.205"",""0.059"",""0.872"",""0.967""]","[1,0,1,1]",0,32,32,32,1,0,1,,,0,FALSE,0.6511,,,,,,,,,,,,,,,,,,,,,,,,,,,,,,
,61490a83dfe0ffe854d06164,001,2022-04-28_20h18.25.227,classification_task,2021.2.3,Win32,60.04202942,61490a83dfe0ffe854d06164,626b377229c10585ec392f8a,626b3c67d3e1600b9db094c6,,,,,,,,,,,,,,,,,,,,,,,a,1,"[""0.205"",""0.391"",""0.872"",""0.062""]","[1,1,1,0]",0,33,33,33,1,0,1,,,0,FALSE,0.7022,,,,,,,,,,,,,,,,,,,,,,,,,,,,,,
,61490a83dfe0ffe854d06164,001,2022-04-28_20h18.25.227,classification_task,2021.2.3,Win32,60.04202942,61490a83dfe0ffe854d06164,626b377229c10585ec392f8a,626b3c67d3e1600b9db094c6,,,,,,,,,,,,,,,,,,,,,,,l,0,"[""0.248"",""0.662"",""0.770"",""0.919""]","[1,0,1,1]",0,34,34,34,1,0,0,,,0,FALSE,0.4301,,,,,,,,,,,,,,,,,,,,,,,,,,,,,,
,61490a83dfe0ffe854d06164,001,2022-04-28_20h18.25.227,classification_task,2021.2.3,Win32,60.04202942,61490a83dfe0ffe854d06164,626b377229c10585ec392f8a,626b3c67d3e1600b9db094c6,,,,,,,,,,,,,,,,,,,,,,,l,0,"[""0.248"",""0.430"",""0.770"",""0.628""]","[1,1,1,0]",0,35,35,35,1,0,0,,,0,FALSE,0.3869,,,,,,,,,,,,,,,,,,,,,,,,,,,,,,
,61490a83dfe0ffe854d06164,001,2022-04-28_20h18.25.227,classification_task,2021.2.3,Win32,60.04202942,61490a83dfe0ffe854d06164,626b377229c10585ec392f8a,626b3c67d3e1600b9db094c6,,,,,,,,,,,,,,,,,,,,,,,l,1,"[""0.143"",""0.337"",""0.628"",""0.822""]","[1,1,0,1]",0,36,36,36,1,1,0,,,0,FALSE,0.45,,,,,,,,,,,,,,,,,,,,,,,,,,,,,,
,61490a83dfe0ffe854d06164,001,2022-04-28_20h18.25.227,classification_task,2021.2.3,Win32,60.04202942,61490a83dfe0ffe854d06164,626b377229c10585ec392f8a,626b3c67d3e1600b9db094c6,,,,,,,,,,,,,,,,,,,,,,,l,1,"[""0.629"",""0.290"",""0.515"",""0.730""]","[0,1,1,1]",0,37,37,37,1,1,1,,,0,FALSE,0.3601,,,,,,,,,,,,,,,,,,,,,,,,,,,,,,
,61490a83dfe0ffe854d06164,001,2022-04-28_20h18.25.227,classification_task,2021.2.3,Win32,60.04202942,61490a83dfe0ffe854d06164,626b377229c10585ec392f8a,626b3c67d3e1600b9db094c6,,,,,,,,,,,,,,,,,,,,,,,l,1,"[""0.097"",""0.567"",""0.515"",""0.730""]","[1,0,1,1]",0,38,38,38,1,1,1,,,0,FALSE,0.7003,,,,,,,,,,,,,,,,,,,,,,,,,,,,,,
,61490a83dfe0ffe854d06164,001,2022-04-28_20h18.25.227,classification_task,2021.2.3,Win32,60.04202942,61490a83dfe0ffe854d06164,626b377229c10585ec392f8a,626b3c67d3e1600b9db094c6,,,,,,,,,,,,,,,,,,,,,,,a,0,"[""0.097"",""0.290"",""0.515"",""0.062""]","[1,1,1,0]",0,39,39,39,1,1,1,,,0,FALSE,0.684,,,,,,,,,,,,,,,,,,,,,,,,,,,,,,
,61490a83dfe0ffe854d06164,001,2022-04-28_20h18.25.227,classification_task,2021.2.3,Win32,60.04202942,61490a83dfe0ffe854d06164,626b377229c10585ec392f8a,626b3c67d3e1600b9db094c6,,,,,,,,,,,,,,,,,,,,,,,l,0,"[""0.592"",""0.391"",""0.872"",""0.967""]","[0,1,1,1]",0,40,40,40,1,0,1,,,0,FALSE,0.4369,,,,,,,,,,,,,,,,,,,,,,,,,,,,,,
,61490a83dfe0ffe854d06164,001,2022-04-28_20h18.25.227,classification_task,2021.2.3,Win32,60.04202942,61490a83dfe0ffe854d06164,626b377229c10585ec392f8a,626b3c67d3e1600b9db094c6,,,,,,,,,,,,,,,,,,,,,,,l,0,"[""0.596"",""0.430"",""0.770"",""0.919""]","[0,1,1,1]",0,41,41,41,1,0,0,,,0,FALSE,0.5267,,,,,,,,,,,,,,,,,,,,,,,,,,,,,,
,61490a83dfe0ffe854d06164,001,2022-04-28_20h18.25.227,classification_task,2021.2.3,Win32,60.04202942,61490a83dfe0ffe854d06164,626b377229c10585ec392f8a,626b3c67d3e1600b9db094c6,,,,,,,,,,,,,,,,,,,,,,,l,1,"[""0.143"",""0.337"",""0.471"",""0.652""]","[1,1,1,0]",0,42,42,42,1,1,0,,,0,FALSE,0.7232,,,,,,,,,,,,,,,,,,,,,,,,,,,,,,
,61490a83dfe0ffe854d06164,001,2022-04-28_20h18.25.227,classification_task,2021.2.3,Win32,60.04202942,61490a83dfe0ffe854d06164,626b377229c10585ec392f8a,626b3c67d3e1600b9db094c6,,,,,,,,,,,,,,,,,,,,,,,l,0,"[""0.205"",""0.391"",""0.629"",""0.967""]","[1,1,0,1]",0,43,43,43,1,0,1,,,0,FALSE,1.557,,,,,,,,,,,,,,,,,,,,,,,,,,,,,,
,61490a83dfe0ffe854d06164,001,2022-04-28_20h18.25.227,classification_task,2021.2.3,Win32,60.04202942,61490a83dfe0ffe854d06164,626b377229c10585ec392f8a,626b3c67d3e1600b9db094c6,,,,,,,,,,,,,,,,,,,,,,,l,1,"[""0.143"",""0.629"",""0.471"",""0.822""]","[1,0,1,1]",0,44,44,44,1,1,0,,,0,FALSE,0.6904,,,,,,,,,,,,,,,,,,,,,,,,,,,,,,
,61490a83dfe0ffe854d06164,001,2022-04-28_20h18.25.227,classification_task,2021.2.3,Win32,60.04202942,61490a83dfe0ffe854d06164,626b377229c10585ec392f8a,626b3c67d3e1600b9db094c6,,,,,,,,,,,,,,,,,,,,,,,l,1,"[""0.555"",""0.337"",""0.471"",""0.822""]","[0,1,1,1]",0,45,45,45,1,1,0,,,0,FALSE,0.47,,,,,,,,,,,,,,,,,,,,,,,,,,,,,,
,61490a83dfe0ffe854d06164,001,2022-04-28_20h18.25.227,classification_task,2021.2.3,Win32,60.04202942,61490a83dfe0ffe854d06164,626b377229c10585ec392f8a,626b3c67d3e1600b9db094c6,,,,,,,,,,,,,,,,,,,,,,,l,1,"[""0.097"",""0.290"",""0.062"",""0.730""]","[1,1,0,1]",0,46,46,46,1,1,1,,,0,FALSE,0.5877,,,,,,,,,,,,,,,,,,,,,,,,,,,,,,
,61490a83dfe0ffe854d06164,001,2022-04-28_20h18.25.227,classification_task,2021.2.3,Win32,60.04202942,61490a83dfe0ffe854d06164,626b377229c10585ec392f8a,626b3c67d3e1600b9db094c6,,,,,,,,,,,,,,,,,,,,,,,l,0,"[""0.248"",""0.430"",""0.655"",""0.919""]","[1,1,0,1]",0,47,47,47,1,0,0,,,0,FALSE,0.051,,,,,,,,,,,,,,,,,,,,,,,,,,,,,,
,61490a83dfe0ffe854d06164,001,2022-04-28_20h18.25.227,classification_task,2021.2.3,Win32,60.04202942,61490a83dfe0ffe854d06164,626b377229c10585ec392f8a,626b3c67d3e1600b9db094c6,,,,,,,,,,,,,,,,,,,,,,,l,1,"[""0.143"",""0.337"",""0.682"",""0.822""]","[1,1,0,1]",0,48,48,48,1,1,0,,,0,FALSE,0.5354,,,,,,,,,,,,,,,,,,,,,,,,,,,,,,
,61490a83dfe0ffe854d06164,001,2022-04-28_20h18.25.227,classification_task,2021.2.3,Win32,60.04202942,61490a83dfe0ffe854d06164,626b377229c10585ec392f8a,626b3c67d3e1600b9db094c6,,,,,,,,,,,,,,,,,,,,,,,l,0,"[""0.248"",""0.430"",""0.567"",""0.919""]","[1,1,0,1]",0,49,49,49,1,0,0,,,0,FALSE,0.2568,,,,,,,,,,,,,,,,,,,,,,,,,,,,,,
,61490a83dfe0ffe854d06164,001,2022-04-28_20h18.25.227,classification_task,2021.2.3,Win32,60.04202942,61490a83dfe0ffe854d06164,626b377229c10585ec392f8a,626b3c67d3e1600b9db094c6,,,,,,,,,,,,,,,,,,,,,,,l,1,"[""0.059"",""0.290"",""0.515"",""0.730""]","[0,1,1,1]",0,50,50,50,1,1,1,,,0,FALSE,0.683,,,,,,,,,,,,,,,,,,,,,,,,,,,,,,
,61490a83dfe0ffe854d06164,001,2022-04-28_20h18.25.227,classification_task,2021.2.3,Win32,60.04202942,61490a83dfe0ffe854d06164,626b377229c10585ec392f8a,626b3c67d3e1600b9db094c6,,,,,,,,,,,,,,,,,,,,,,,l,0,"[""0.205"",""0.391"",""0.059"",""0.967""]","[1,1,0,1]",0,51,51,51,1,0,1,,,0,FALSE,0.2312,,,,,,,,,,,,,,,,,,,,,,,,,,,,,,
,61490a83dfe0ffe854d06164,001,2022-04-28_20h18.25.227,classification_task,2021.2.3,Win32,60.04202942,61490a83dfe0ffe854d06164,626b377229c10585ec392f8a,626b3c67d3e1600b9db094c6,,,,,,,,,,,,,,,,,,,,,,,l,1,"[""0.143"",""0.337"",""0.471"",""0.567""]","[1,1,1,0]",0,52,52,52,1,1,0,,,0,FALSE,0.3133,,,,,,,,,,,,,,,,,,,,,,,,,,,,,,
,61490a83dfe0ffe854d06164,001,2022-04-28_20h18.25.227,classification_task,2021.2.3,Win32,60.04202942,61490a83dfe0ffe854d06164,626b377229c10585ec392f8a,626b3c67d3e1600b9db094c6,,,,,,,,,,,,,,,,,,,,,,,l,0,"[""0.248"",""0.430"",""0.770"",""0.629""]","[1,1,1,0]",0,53,53,53,1,0,0,,,0,FALSE,0.5497,,,,,,,,,,,,,,,,,,,,,,,,,,,,,,
,61490a83dfe0ffe854d06164,001,2022-04-28_20h18.25.227,classification_task,2021.2.3,Win32,60.04202942,61490a83dfe0ffe854d06164,626b377229c10585ec392f8a,626b3c67d3e1600b9db094c6,,,,,,,,,,,,,,,,,,,,,,,l,1,"[""0.097"",""0.062"",""0.515"",""0.730""]","[1,0,1,1]",0,54,54,54,1,1,1,,,0,FALSE,0.5207,,,,,,,,,,,,,,,,,,,,,,,,,,,,,,
,61490a83dfe0ffe854d06164,001,2022-04-28_20h18.25.227,classification_task,2021.2.3,Win32,60.04202942,61490a83dfe0ffe854d06164,626b377229c10585ec392f8a,626b3c67d3e1600b9db094c6,,,,,,,,,,,,,,,,,,,,,,,l,0,"[""0.657"",""0.430"",""0.770"",""0.919""]","[0,1,1,1]",0,55,55,55,1,0,0,,,0,FALSE,0.1565,,,,,,,,,,,,,,,,,,,,,,,,,,,,,,
,61490a83dfe0ffe854d06164,001,2022-04-28_20h18.25.227,classification_task,2021.2.3,Win32,60.04202942,61490a83dfe0ffe854d06164,626b377229c10585ec392f8a,626b3c67d3e1600b9db094c6,,,,,,,,,,,,,,,,,,,,,,,a,0,"[""0.616"",""0.337"",""0.471"",""0.822""]","[0,1,1,1]",0,56,56,56,1,1,0,,,0,FALSE,1.2587,,,,,,,,,,,,,,,,,,,,,,,,,,,,,,
,61490a83dfe0ffe854d06164,001,2022-04-28_20h18.25.227,classification_task,2021.2.3,Win32,60.04202942,61490a83dfe0ffe854d06164,626b377229c10585ec392f8a,626b3c67d3e1600b9db094c6,,,,,,,,,,,,,,,,,,,,,,,a,1,"[""0.248"",""0.629"",""0.770"",""0.919""]","[1,0,1,1]",0,57,57,57,1,0,0,,,0,FALSE,0.3676,,,,,,,,,,,,,,,,,,,,,,,,,,,,,,
,61490a83dfe0ffe854d06164,001,2022-04-28_20h18.25.227,classification_task,2021.2.3,Win32,60.04202942,61490a83dfe0ffe854d06164,626b377229c10585ec392f8a,626b3c67d3e1600b9db094c6,,,,,,,,,,,,,,,,,,,,,,,l,0,"[""0.205"",""0.391"",""0.872"",""0.592""]","[1,1,1,0]",0,58,58,58,1,0,1,,,0,FALSE,0.5593,,,,,,,,,,,,,,,,,,,,,,,,,,,,,,
,61490a83dfe0ffe854d06164,001,2022-04-28_20h18.25.227,classification_task,2021.2.3,Win32,60.04202942,61490a83dfe0ffe854d06164,626b377229c10585ec392f8a,626b3c67d3e1600b9db094c6,,,,,,,,,,,,,,,,,,,,,,,l,0,"[""0.629"",""0.391"",""0.872"",""0.967""]","[0,1,1,1]",0,59,59,59,1,0,1,,,0,FALSE,0.8414,,,,,,,,,,,,,,,,,,,,,,,,,,,,,,
,61490a83dfe0ffe854d06164,001,2022-04-28_20h18.25.227,classification_task,2021.2.3,Win32,60.04202942,61490a83dfe0ffe854d06164,626b377229c10585ec392f8a,626b3c67d3e1600b9db094c6,,,,,,,,,,,,,,,,,,,,,,,a,1,"[""0.205"",""0.059"",""0.872"",""0.967""]","[1,0,1,1]",0,60,60,60,1,0,1,,,0,FALSE,0.2969,,,,,,,,,,,,,,,,,,,,,,,,,,,,,,
,61490a83dfe0ffe854d06164,001,2022-04-28_20h18.25.227,classification_task,2021.2.3,Win32,60.04202942,61490a83dfe0ffe854d06164,626b377229c10585ec392f8a,626b3c67d3e1600b9db094c6,,,,,,,,,,,,,,,,,,,,,,,a,0,"[""0.097"",""0.290"",""0.682"",""0.730""]","[1,1,0,1]",0,61,61,61,1,1,1,,,0,FALSE,0.4013,,,,,,,,,,,,,,,,,,,,,,,,,,,,,,
,61490a83dfe0ffe854d06164,001,2022-04-28_20h18.25.227,classification_task,2021.2.3,Win32,60.04202942,61490a83dfe0ffe854d06164,626b377229c10585ec392f8a,626b3c67d3e1600b9db094c6,,,,,,,,,,,,,,,,,,,,,,,a,0,"[""0.143"",""0.596"",""0.471"",""0.822""]","[1,0,1,1]",0,62,62,62,1,1,0,,,0,FALSE,0.4542,,,,,,,,,,,,,,,,,,,,,,,,,,,,,,
,61490a83dfe0ffe854d06164,001,2022-04-28_20h18.25.227,classification_task,2021.2.3,Win32,60.04202942,61490a83dfe0ffe854d06164,626b377229c10585ec392f8a,626b3c67d3e1600b9db094c6,,,,,,,,,,,,,,,,,,,,,,,a,0,"[""0.097"",""0.290"",""0.515"",""0.555""]","[1,1,1,0]",0,63,63,63,1,1,1,,,0,FALSE,0.3189,,,,,,,,,,,,,,,,,,,,,,,,,,,,,,
,61490a83dfe0ffe854d06164,001,2022-04-28_20h18.25.227,classification_task,2021.2.3,Win32,60.04202942,61490a83dfe0ffe854d06164,626b377229c10585ec392f8a,626b3c67d3e1600b9db094c6,,,,,,,,,,,,,,,,,,,,,,,,,,,,,,,,,,,,,,,0, ,,0,7.57954918,241.9982,0,1,1,1,1,2,2,,,,,,,,,,,,,,,,,
,61490a83dfe0ffe854d06164,001,2022-04-28_20h18.25.227,classification_task,2021.2.3,Win32,60.04202942,61490a83dfe0ffe854d06164,626b377229c10585ec392f8a,626b3c67d3e1600b9db094c6,,,,,,,,,,,,,,,,,,,,,,,,,,,,,,,,,,,,,,,1,  ,,0,10,215.3494,0,1,1,1,1,2,2,,,,,,,,,,,,,,,,,
,61490a83dfe0ffe854d06164,001,2022-04-28_20h18.25.227,classification_task,2021.2.3,Win32,60.04202942,61490a83dfe0ffe854d06164,626b377229c10585ec392f8a,626b3c67d3e1600b9db094c6,,,,,,,,,,,,,,,,,,,,,,,,,,,,,,,,,,,,,,,2,  ,,0,5.381070528,213.0812,0,1,1,1,1,2,2,,,,,,,,,,,,,,,,,
,61490a83dfe0ffe854d06164,001,2022-04-28_20h18.25.227,classification_task,2021.2.3,Win32,60.04202942,61490a83dfe0ffe854d06164,626b377229c10585ec392f8a,626b3c67d3e1600b9db094c6,,,,,,,,,,,,,,,,,,,,,,,,,,,,,,,,,,,,,,,,,,,,,0,1,1,1,1,,2,,,,,,,,,,,,,,,,,
,61490a83dfe0ffe854d06164,001,2022-04-28_20h18.25.227,classification_task,2021.2.3,Win32,60.04202942,61490a83dfe0ffe854d06164,626b377229c10585ec392f8a,626b3c67d3e1600b9db094c6,,,,,,,,,,,,,,,,,,,,,space,21.8047,l,0,"[""0.555"",""0.391"",""0.872"",""0.967""]","[0,1,1,1]",0,0,0,0,1,0,1,,,0,FALSE,1.858,,,,,,,,,,,,,,,,,,,,,,,,,,,,,,
,61490a83dfe0ffe854d06164,001,2022-04-28_20h18.25.227,classification_task,2021.2.3,Win32,60.04202942,61490a83dfe0ffe854d06164,626b377229c10585ec392f8a,626b3c67d3e1600b9db094c6,,,,,,,,,,,,,,,,,,,,,,,a,1,"[""0.205"",""0.391"",""0.026"",""0.967""]","[1,1,0,1]",0,1,1,1,1,0,1,,,0,FALSE,2.7564,,,,,,,,,,,,,,,,,,,,,,,,,,,,,,
,61490a83dfe0ffe854d06164,001,2022-04-28_20h18.25.227,classification_task,2021.2.3,Win32,60.04202942,61490a83dfe0ffe854d06164,626b377229c10585ec392f8a,626b3c67d3e1600b9db094c6,,,,,,,,,,,,,,,,,,,,,,,a,1,"[""0.205"",""0.391"",""0.872"",""0.616""]","[1,1,1,0]",0,2,2,2,1,0,1,,,0,FALSE,0.8953,,,,,,,,,,,,,,,,,,,,,,,,,,,,,,
,61490a83dfe0ffe854d06164,001,2022-04-28_20h18.25.227,classification_task,2021.2.3,Win32,60.04202942,61490a83dfe0ffe854d06164,626b377229c10585ec392f8a,626b3c67d3e1600b9db094c6,,,,,,,,,,,,,,,,,,,,,,,a,1,"[""0.248"",""0.062"",""0.770"",""0.919""]","[1,0,1,1]",0,3,3,3,1,0,0,,,0,FALSE,1.1198,,,,,,,,,,,,,,,,,,,,,,,,,,,,,,
,61490a83dfe0ffe854d06164,001,2022-04-28_20h18.25.227,classification_task,2021.2.3,Win32,60.04202942,61490a83dfe0ffe854d06164,626b377229c10585ec392f8a,626b3c67d3e1600b9db094c6,,,,,,,,,,,,,,,,,,,,,,,a,0,"[""0.143"",""0.337"",""0.662"",""0.822""]","[1,1,0,1]",0,4,4,4,1,1,0,,,0,FALSE,1.2576,,,,,,,,,,,,,,,,,,,,,,,,,,,,,,
,61490a83dfe0ffe854d06164,001,2022-04-28_20h18.25.227,classification_task,2021.2.3,Win32,60.04202942,61490a83dfe0ffe854d06164,626b377229c10585ec392f8a,626b3c67d3e1600b9db094c6,,,,,,,,,,,,,,,,,,,,,,,a,1,"[""0.248"",""0.430"",""0.655"",""0.919""]","[1,1,0,1]",0,5,5,5,1,0,0,,,0,FALSE,1.5153,,,,,,,,,,,,,,,,,,,,,,,,,,,,,,
,61490a83dfe0ffe854d06164,001,2022-04-28_20h18.25.227,classification_task,2021.2.3,Win32,60.04202942,61490a83dfe0ffe854d06164,626b377229c10585ec392f8a,626b3c67d3e1600b9db094c6,,,,,,,,,,,,,,,,,,,,,,,l,0,"[""0.205"",""0.616"",""0.872"",""0.967""]","[1,0,1,1]",0,6,6,6,1,0,1,,,0,FALSE,1.0267,,,,,,,,,,,,,,,,,,,,,,,,,,,,,,
,61490a83dfe0ffe854d06164,001,2022-04-28_20h18.25.227,classification_task,2021.2.3,Win32,60.04202942,61490a83dfe0ffe854d06164,626b377229c10585ec392f8a,626b3c67d3e1600b9db094c6,,,,,,,,,,,,,,,,,,,,,,,a,1,"[""0.248"",""0.430"",""0.770"",""0.652""]","[1,1,1,0]",0,7,7,7,1,0,0,,,0,FALSE,1.3889,,,,,,,,,,,,,,,,,,,,,,,,,,,,,,
,61490a83dfe0ffe854d06164,001,2022-04-28_20h18.25.227,classification_task,2021.2.3,Win32,60.04202942,61490a83dfe0ffe854d06164,626b377229c10585ec392f8a,626b3c67d3e1600b9db094c6,,,,,,,,,,,,,,,,,,,,,,,a,0,"[""0.596"",""0.290"",""0.515"",""0.730""]","[0,1,1,1]",0,8,8,8,1,1,1,,,0,FALSE,1.4476,,,,,,,,,,,,,,,,,,,,,,,,,,,,,,
,61490a83dfe0ffe854d06164,001,2022-04-28_20h18.25.227,classification_task,2021.2.3,Win32,60.04202942,61490a83dfe0ffe854d06164,626b377229c10585ec392f8a,626b3c67d3e1600b9db094c6,,,,,,,,,,,,,,,,,,,,,,,a,0,"[""0.026"",""0.337"",""0.471"",""0.822""]","[0,1,1,1]",0,9,9,9,1,1,0,,,0,FALSE,1.5111,,,,,,,,,,,,,,,,,,,,,,,,,,,,,,
,61490a83dfe0ffe854d06164,001,2022-04-28_20h18.25.227,classification_task,2021.2.3,Win32,60.04202942,61490a83dfe0ffe854d06164,626b377229c10585ec392f8a,626b3c67d3e1600b9db094c6,,,,,,,,,,,,,,,,,,,,,,,l,1,"[""0.097"",""0.290"",""0.657"",""0.730""]","[1,1,0,1]",0,10,10,10,1,1,1,,,0,FALSE,0.8115,,,,,,,,,,,,,,,,,,,,,,,,,,,,,,
,61490a83dfe0ffe854d06164,001,2022-04-28_20h18.25.227,classification_task,2021.2.3,Win32,60.04202942,61490a83dfe0ffe854d06164,626b377229c10585ec392f8a,626b3c67d3e1600b9db094c6,,,,,,,,,,,,,,,,,,,,,,,l,1,"[""0.143"",""0.628"",""0.471"",""0.822""]","[1,0,1,1]",0,11,11,11,1,1,0,,,0,FALSE,1.2166,,,,,,,,,,,,,,,,,,,,,,,,,,,,,,
,61490a83dfe0ffe854d06164,001,2022-04-28_20h18.25.227,classification_task,2021.2.3,Win32,60.04202942,61490a83dfe0ffe854d06164,626b377229c10585ec392f8a,626b3c67d3e1600b9db094c6,,,,,,,,,,,,,,,,,,,,,,,l,1,"[""0.143"",""0.337"",""0.471"",""0.555""]","[1,1,1,0]",0,12,12,12,1,1,0,,,0,FALSE,1.032,,,,,,,,,,,,,,,,,,,,,,,,,,,,,,
,61490a83dfe0ffe854d06164,001,2022-04-28_20h18.25.227,classification_task,2021.2.3,Win32,60.04202942,61490a83dfe0ffe854d06164,626b377229c10585ec392f8a,626b3c67d3e1600b9db094c6,,,,,,,,,,,,,,,,,,,,,,,a,0,"[""0.097"",""0.290"",""0.515"",""0.628""]","[1,1,1,0]",0,13,13,13,1,1,1,,,0,FALSE,0.9359,,,,,,,,,,,,,,,,,,,,,,,,,,,,,,
,61490a83dfe0ffe854d06164,001,2022-04-28_20h18.25.227,classification_task,2021.2.3,Win32,60.04202942,61490a83dfe0ffe854d06164,626b377229c10585ec392f8a,626b3c67d3e1600b9db094c6,,,,,,,,,,,,,,,,,,,,,,,l,1,"[""0.097"",""0.657"",""0.515"",""0.730""]","[1,0,1,1]",0,14,14,14,1,1,1,,,0,FALSE,2.0246,,,,,,,,,,,,,,,,,,,,,,,,,,,,,,
,61490a83dfe0ffe854d06164,001,2022-04-28_20h18.25.227,classification_task,2021.2.3,Win32,60.04202942,61490a83dfe0ffe854d06164,626b377229c10585ec392f8a,626b3c67d3e1600b9db094c6,,,,,,,,,,,,,,,,,,,,,,,a,1,"[""0.596"",""0.430"",""0.770"",""0.919""]","[0,1,1,1]",0,15,15,15,1,0,0,,,0,FALSE,1.2347,,,,,,,,,,,,,,,,,,,,,,,,,,,,,,
,61490a83dfe0ffe854d06164,001,2022-04-28_20h18.25.227,classification_task,2021.2.3,Win32,60.04202942,61490a83dfe0ffe854d06164,626b377229c10585ec392f8a,626b3c67d3e1600b9db094c6,,,,,,,,,,,,,,,,,,,,,,,l,0,"[""0.205"",""0.391"",""0.872"",""0.026""]","[1,1,1,0]",0,16,16,16,1,0,1,,,0,FALSE,1.0618,,,,,,,,,,,,,,,,,,,,,,,,,,,,,,
,61490a83dfe0ffe854d06164,001,2022-04-28_20h18.25.227,classification_task,2021.2.3,Win32,60.04202942,61490a83dfe0ffe854d06164,626b377229c10585ec392f8a,626b3c67d3e1600b9db094c6,,,,,,,,,,,,,,,,,,,,,,,a,0,"[""0.143"",""0.628"",""0.471"",""0.822""]","[1,0,1,1]",0,17,17,17,1,1,0,,,0,FALSE,0.9333,,,,,,,,,,,,,,,,,,,,,,,,,,,,,,
,61490a83dfe0ffe854d06164,001,2022-04-28_20h18.25.227,classification_task,2021.2.3,Win32,60.04202942,61490a83dfe0ffe854d06164,626b377229c10585ec392f8a,626b3c67d3e1600b9db094c6,,,,,,,,,,,,,,,,,,,,,,,a,0,"[""0.097"",""0.290"",""0.515"",""0.639""]","[1,1,1,0]",0,18,18,18,1,1,1,,,0,FALSE,1.3662,,,,,,,,,,,,,,,,,,,,,,,,,,,,,,
,61490a83dfe0ffe854d06164,001,2022-04-28_20h18.25.227,classification_task,2021.2.3,Win32,60.04202942,61490a83dfe0ffe854d06164,626b377229c10585ec392f8a,626b3c67d3e1600b9db094c6,,,,,,,,,,,,,,,,,,,,,,,a,1,"[""0.682"",""0.430"",""0.770"",""0.919""]","[0,1,1,1]",0,19,19,19,1,0,0,,,0,FALSE,0.6862,,,,,,,,,,,,,,,,,,,,,,,,,,,,,,
,61490a83dfe0ffe854d06164,001,2022-04-28_20h18.25.227,classification_task,2021.2.3,Win32,60.04202942,61490a83dfe0ffe854d06164,626b377229c10585ec392f8a,626b3c67d3e1600b9db094c6,,,,,,,,,,,,,,,,,,,,,,,a,0,"[""0.616"",""0.290"",""0.515"",""0.730""]","[0,1,1,1]",0,20,20,20,1,1,1,,,0,FALSE,1.0034,,,,,,,,,,,,,,,,,,,,,,,,,,,,,,
,61490a83dfe0ffe854d06164,001,2022-04-28_20h18.25.227,classification_task,2021.2.3,Win32,60.04202942,61490a83dfe0ffe854d06164,626b377229c10585ec392f8a,626b3c67d3e1600b9db094c6,,,,,,,,,,,,,,,,,,,,,,,a,0,"[""0.143"",""0.337"",""0.471"",""0.596""]","[1,1,1,0]",0,21,21,21,1,1,0,,,0,FALSE,0.7932,,,,,,,,,,,,,,,,,,,,,,,,,,,,,,
,61490a83dfe0ffe854d06164,001,2022-04-28_20h18.25.227,classification_task,2021.2.3,Win32,60.04202942,61490a83dfe0ffe854d06164,626b377229c10585ec392f8a,626b3c67d3e1600b9db094c6,,,,,,,,,,,,,,,,,,,,,,,a,0,"[""0.097"",""0.290"",""0.555"",""0.730""]","[1,1,0,1]",0,22,22,22,1,1,1,,,0,FALSE,0.6754,,,,,,,,,,,,,,,,,,,,,,,,,,,,,,
,61490a83dfe0ffe854d06164,001,2022-04-28_20h18.25.227,classification_task,2021.2.3,Win32,60.04202942,61490a83dfe0ffe854d06164,626b377229c10585ec392f8a,626b3c67d3e1600b9db094c6,,,,,,,,,,,,,,,,,,,,,,,l,1,"[""0.097"",""0.662"",""0.515"",""0.730""]","[1,0,1,1]",0,23,23,23,1,1,1,,,0,FALSE,0.5034,,,,,,,,,,,,,,,,,,,,,,,,,,,,,,
,61490a83dfe0ffe854d06164,001,2022-04-28_20h18.25.227,classification_task,2021.2.3,Win32,60.04202942,61490a83dfe0ffe854d06164,626b377229c10585ec392f8a,626b3c67d3e1600b9db094c6,,,,,,,,,,,,,,,,,,,,,,,l,1,"[""0.143"",""0.337"",""0.652"",""0.822""]","[1,1,0,1]",0,24,24,24,1,1,0,,,0,FALSE,0.4586,,,,,,,,,,,,,,,,,,,,,,,,,,,,,,
,61490a83dfe0ffe854d06164,001,2022-04-28_20h18.25.227,classification_task,2021.2.3,Win32,60.04202942,61490a83dfe0ffe854d06164,626b377229c10585ec392f8a,626b3c67d3e1600b9db094c6,,,,,,,,,,,,,,,,,,,,,,,l,0,"[""0.248"",""0.430"",""0.062"",""0.919""]","[1,1,0,1]",0,25,25,25,1,0,0,,,0,FALSE,0.4362,,,,,,,,,,,,,,,,,,,,,,,,,,,,,,
,61490a83dfe0ffe854d06164,001,2022-04-28_20h18.25.227,classification_task,2021.2.3,Win32,60.04202942,61490a83dfe0ffe854d06164,626b377229c10585ec392f8a,626b3c67d3e1600b9db094c6,,,,,,,,,,,,,,,,,,,,,,,a,1,"[""0.248"",""0.430"",""0.770"",""0.629""]","[1,1,1,0]",0,26,26,26,1,0,0,,,0,FALSE,1.2653,,,,,,,,,,,,,,,,,,,,,,,,,,,,,,
,61490a83dfe0ffe854d06164,001,2022-04-28_20h18.25.227,classification_task,2021.2.3,Win32,60.04202942,61490a83dfe0ffe854d06164,626b377229c10585ec392f8a,626b3c67d3e1600b9db094c6,,,,,,,,,,,,,,,,,,,,,,,l,1,"[""0.555"",""0.337"",""0.471"",""0.822""]","[0,1,1,1]",0,27,27,27,1,1,0,,,0,FALSE,0.925,,,,,,,,,,,,,,,,,,,,,,,,,,,,,,
,61490a83dfe0ffe854d06164,001,2022-04-28_20h18.25.227,classification_task,2021.2.3,Win32,60.04202942,61490a83dfe0ffe854d06164,626b377229c10585ec392f8a,626b3c67d3e1600b9db094c6,,,,,,,,,,,,,,,,,,,,,,,a,1,"[""0.205"",""0.026"",""0.872"",""0.967""]","[1,0,1,1]",0,28,28,28,1,0,1,,,0,FALSE,0.9929,,,,,,,,,,,,,,,,,,,,,,,,,,,,,,
,61490a83dfe0ffe854d06164,001,2022-04-28_20h18.25.227,classification_task,2021.2.3,Win32,60.04202942,61490a83dfe0ffe854d06164,626b377229c10585ec392f8a,626b3c67d3e1600b9db094c6,,,,,,,,,,,,,,,,,,,,,,,l,0,"[""0.205"",""0.391"",""0.682"",""0.967""]","[1,1,0,1]",0,29,29,29,1,0,1,,,0,FALSE,0.4547,,,,,,,,,,,,,,,,,,,,,,,,,,,,,,
,61490a83dfe0ffe854d06164,001,2022-04-28_20h18.25.227,classification_task,2021.2.3,Win32,60.04202942,61490a83dfe0ffe854d06164,626b377229c10585ec392f8a,626b3c67d3e1600b9db094c6,,,,,,,,,,,,,,,,,,,,,,,l,0,"[""0.592"",""0.391"",""0.872"",""0.967""]","[0,1,1,1]",0,30,30,30,1,0,1,,,0,FALSE,0.523,,,,,,,,,,,,,,,,,,,,,,,,,,,,,,
,61490a83dfe0ffe854d06164,001,2022-04-28_20h18.25.227,classification_task,2021.2.3,Win32,60.04202942,61490a83dfe0ffe854d06164,626b377229c10585ec392f8a,626b3c67d3e1600b9db094c6,,,,,,,,,,,,,,,,,,,,,,,l,0,"[""0.248"",""0.628"",""0.770"",""0.919""]","[1,0,1,1]",0,31,31,31,1,0,0,,,0,FALSE,0.9184,,,,,,,,,,,,,,,,,,,,,,,,,,,,,,
,61490a83dfe0ffe854d06164,001,2022-04-28_20h18.25.227,classification_task,2021.2.3,Win32,60.04202942,61490a83dfe0ffe854d06164,626b377229c10585ec392f8a,626b3c67d3e1600b9db094c6,,,,,,,,,,,,,,,,,,,,,,,a,1,"[""0.248"",""0.026"",""0.770"",""0.919""]","[1,0,1,1]",0,32,32,32,1,0,0,,,0,FALSE,0.4628,,,,,,,,,,,,,,,,,,,,,,,,,,,,,,
,61490a83dfe0ffe854d06164,001,2022-04-28_20h18.25.227,classification_task,2021.2.3,Win32,60.04202942,61490a83dfe0ffe854d06164,626b377229c10585ec392f8a,626b3c67d3e1600b9db094c6,,,,,,,,,,,,,,,,,,,,,,,a,0,"[""0.143"",""0.337"",""0.652"",""0.822""]","[1,1,0,1]",0,33,33,33,1,1,0,,,0,FALSE,0.6965,,,,,,,,,,,,,,,,,,,,,,,,,,,,,,
,61490a83dfe0ffe854d06164,001,2022-04-28_20h18.25.227,classification_task,2021.2.3,Win32,60.04202942,61490a83dfe0ffe854d06164,626b377229c10585ec392f8a,626b3c67d3e1600b9db094c6,,,,,,,,,,,,,,,,,,,,,,,a,0,"[""0.097"",""0.652"",""0.515"",""0.730""]","[1,0,1,1]",0,34,34,34,1,1,1,,,0,FALSE,0.4279,,,,,,,,,,,,,,,,,,,,,,,,,,,,,,
,61490a83dfe0ffe854d06164,001,2022-04-28_20h18.25.227,classification_task,2021.2.3,Win32,60.04202942,61490a83dfe0ffe854d06164,626b377229c10585ec392f8a,626b3c67d3e1600b9db094c6,,,,,,,,,,,,,,,,,,,,,,,a,1,"[""0.205"",""0.629"",""0.872"",""0.967""]","[1,0,1,1]",0,35,35,35,1,0,1,,,0,FALSE,0.596,,,,,,,,,,,,,,,,,,,,,,,,,,,,,,
,61490a83dfe0ffe854d06164,001,2022-04-28_20h18.25.227,classification_task,2021.2.3,Win32,60.04202942,61490a83dfe0ffe854d06164,626b377229c10585ec392f8a,626b3c67d3e1600b9db094c6,,,,,,,,,,,,,,,,,,,,,,,a,1,"[""0.205"",""0.391"",""0.059"",""0.967""]","[1,1,0,1]",0,36,36,36,1,0,1,,,0,FALSE,0.7275,,,,,,,,,,,,,,,,,,,,,,,,,,,,,,
,61490a83dfe0ffe854d06164,001,2022-04-28_20h18.25.227,classification_task,2021.2.3,Win32,60.04202942,61490a83dfe0ffe854d06164,626b377229c10585ec392f8a,626b3c67d3e1600b9db094c6,,,,,,,,,,,,,,,,,,,,,,,a,0,"[""0.097"",""0.290"",""0.515"",""0.682""]","[1,1,1,0]",0,37,37,37,1,1,1,,,0,FALSE,0.5542,,,,,,,,,,,,,,,,,,,,,,,,,,,,,,
,61490a83dfe0ffe854d06164,001,2022-04-28_20h18.25.227,classification_task,2021.2.3,Win32,60.04202942,61490a83dfe0ffe854d06164,626b377229c10585ec392f8a,626b3c67d3e1600b9db094c6,,,,,,,,,,,,,,,,,,,,,,,a,1,"[""0.205"",""0.391"",""0.872"",""0.629""]","[1,1,1,0]",0,38,38,38,1,0,1,,,0,FALSE,1.0019,,,,,,,,,,,,,,,,,,,,,,,,,,,,,,
,61490a83dfe0ffe854d06164,001,2022-04-28_20h18.25.227,classification_task,2021.2.3,Win32,60.04202942,61490a83dfe0ffe854d06164,626b377229c10585ec392f8a,626b3c67d3e1600b9db094c6,,,,,,,,,,,,,,,,,,,,,,,a,0,"[""0.062"",""0.290"",""0.515"",""0.730""]","[0,1,1,1]",0,39,39,39,1,1,1,,,0,FALSE,0.6749,,,,,,,,,,,,,,,,,,,,,,,,,,,,,,
,61490a83dfe0ffe854d06164,001,2022-04-28_20h18.25.227,classification_task,2021.2.3,Win32,60.04202942,61490a83dfe0ffe854d06164,626b377229c10585ec392f8a,626b3c67d3e1600b9db094c6,,,,,,,,,,,,,,,,,,,,,,,l,1,"[""0.097"",""0.290"",""0.596"",""0.730""]","[1,1,0,1]",0,40,40,40,1,1,1,,,0,FALSE,0.4895,,,,,,,,,,,,,,,,,,,,,,,,,,,,,,
,61490a83dfe0ffe854d06164,001,2022-04-28_20h18.25.227,classification_task,2021.2.3,Win32,60.04202942,61490a83dfe0ffe854d06164,626b377229c10585ec392f8a,626b3c67d3e1600b9db094c6,,,,,,,,,,,,,,,,,,,,,,,l,1,"[""0.592"",""0.337"",""0.471"",""0.822""]","[0,1,1,1]",0,41,41,41,1,1,0,,,0,FALSE,0.4872,,,,,,,,,,,,,,,,,,,,,,,,,,,,,,
,61490a83dfe0ffe854d06164,001,2022-04-28_20h18.25.227,classification_task,2021.2.3,Win32,60.04202942,61490a83dfe0ffe854d06164,626b377229c10585ec392f8a,626b3c67d3e1600b9db094c6,,,,,,,,,,,,,,,,,,,,,,,l,0,"[""0.662"",""0.391"",""0.872"",""0.967""]","[0,1,1,1]",0,42,42,42,1,0,1,,,0,FALSE,0.688,,,,,,,,,,,,,,,,,,,,,,,,,,,,,,
,61490a83dfe0ffe854d06164,001,2022-04-28_20h18.25.227,classification_task,2021.2.3,Win32,60.04202942,61490a83dfe0ffe854d06164,626b377229c10585ec392f8a,626b3c67d3e1600b9db094c6,,,,,,,,,,,,,,,,,,,,,,,l,0,"[""0.248"",""0.430"",""0.770"",""0.628""]","[1,1,1,0]",0,43,43,43,1,0,0,,,0,FALSE,0.5608,,,,,,,,,,,,,,,,,,,,,,,,,,,,,,
,61490a83dfe0ffe854d06164,001,2022-04-28_20h18.25.227,classification_task,2021.2.3,Win32,60.04202942,61490a83dfe0ffe854d06164,626b377229c10585ec392f8a,626b3c67d3e1600b9db094c6,,,,,,,,,,,,,,,,,,,,,,,a,1,"[""0.059"",""0.430"",""0.770"",""0.919""]","[0,1,1,1]",0,44,44,44,1,0,0,,,0,FALSE,0.5061,,,,,,,,,,,,,,,,,,,,,,,,,,,,,,
,61490a83dfe0ffe854d06164,001,2022-04-28_20h18.25.227,classification_task,2021.2.3,Win32,60.04202942,61490a83dfe0ffe854d06164,626b377229c10585ec392f8a,626b3c67d3e1600b9db094c6,,,,,,,,,,,,,,,,,,,,,,,a,0,"[""0.143"",""0.616"",""0.471"",""0.822""]","[1,0,1,1]",0,45,45,45,1,1,0,,,0,FALSE,0.8923,,,,,,,,,,,,,,,,,,,,,,,,,,,,,,
,61490a83dfe0ffe854d06164,001,2022-04-28_20h18.25.227,classification_task,2021.2.3,Win32,60.04202942,61490a83dfe0ffe854d06164,626b377229c10585ec392f8a,626b3c67d3e1600b9db094c6,,,,,,,,,,,,,,,,,,,,,,,a,1,"[""0.248"",""0.430"",""0.655"",""0.919""]","[1,1,0,1]",0,46,46,46,1,0,0,,,0,FALSE,0.7866,,,,,,,,,,,,,,,,,,,,,,,,,,,,,,
,61490a83dfe0ffe854d06164,001,2022-04-28_20h18.25.227,classification_task,2021.2.3,Win32,60.04202942,61490a83dfe0ffe854d06164,626b377229c10585ec392f8a,626b3c67d3e1600b9db094c6,,,,,,,,,,,,,,,,,,,,,,,a,0,"[""0.143"",""0.337"",""0.471"",""0.555""]","[1,1,1,0]",0,47,47,47,1,1,0,,,0,FALSE,1.1849,,,,,,,,,,,,,,,,,,,,,,,,,,,,,,
,61490a83dfe0ffe854d06164,001,2022-04-28_20h18.25.227,classification_task,2021.2.3,Win32,60.04202942,61490a83dfe0ffe854d06164,626b377229c10585ec392f8a,626b3c67d3e1600b9db094c6,,,,,,,,,,,,,,,,,,,,,,,a,0,"[""0.097"",""0.290"",""0.628"",""0.730""]","[1,1,0,1]",0,48,48,48,1,1,1,,,0,FALSE,1.0678,,,,,,,,,,,,,,,,,,,,,,,,,,,,,,
,61490a83dfe0ffe854d06164,001,2022-04-28_20h18.25.227,classification_task,2021.2.3,Win32,60.04202942,61490a83dfe0ffe854d06164,626b377229c10585ec392f8a,626b3c67d3e1600b9db094c6,,,,,,,,,,,,,,,,,,,,,,,l,0,"[""0.628"",""0.391"",""0.872"",""0.967""]","[0,1,1,1]",0,49,49,49,1,0,1,,,0,FALSE,0.8455,,,,,,,,,,,,,,,,,,,,,,,,,,,,,,
,61490a83dfe0ffe854d06164,001,2022-04-28_20h18.25.227,classification_task,2021.2.3,Win32,60.04202942,61490a83dfe0ffe854d06164,626b377229c10585ec392f8a,626b3c67d3e1600b9db094c6,,,,,,,,,,,,,,,,,,,,,,,l,0,"[""0.205"",""0.629"",""0.872"",""0.967""]","[1,0,1,1]",0,50,50,50,1,0,1,,,0,FALSE,0.8801,,,,,,,,,,,,,,,,,,,,,,,,,,,,,,
,61490a83dfe0ffe854d06164,001,2022-04-28_20h18.25.227,classification_task,2021.2.3,Win32,60.04202942,61490a83dfe0ffe854d06164,626b377229c10585ec392f8a,626b3c67d3e1600b9db094c6,,,,,,,,,,,,,,,,,,,,,,,a,1,"[""0.248"",""0.430"",""0.652"",""0.919""]","[1,1,0,1]",0,51,51,51,1,0,0,,,0,FALSE,0.8481,,,,,,,,,,,,,,,,,,,,,,,,,,,,,,
,61490a83dfe0ffe854d06164,001,2022-04-28_20h18.25.227,classification_task,2021.2.3,Win32,60.04202942,61490a83dfe0ffe854d06164,626b377229c10585ec392f8a,626b3c67d3e1600b9db094c6,,,,,,,,,,,,,,,,,,,,,,,a,1,"[""0.205"",""0.391"",""0.629"",""0.967""]","[1,1,0,1]",0,52,52,52,1,0,1,,,0,FALSE,2.7345,,,,,,,,,,,,,,,,,,,,,,,,,,,,,,
,61490a83dfe0ffe854d06164,001,2022-04-28_20h18.25.227,classification_task,2021.2.3,Win32,60.04202942,61490a83dfe0ffe854d06164,626b377229c10585ec392f8a,626b3c67d3e1600b9db094c6,,,,,,,,,,,,,,,,,,,,,,,a,1,"[""0.248"",""0.430"",""0.770"",""0.592""]","[1,1,1,0]",0,53,53,53,1,0,0,,,0,FALSE,2.5068,,,,,,,,,,,,,,,,,,,,,,,,,,,,,,
,61490a83dfe0ffe854d06164,001,2022-04-28_20h18.25.227,classification_task,2021.2.3,Win32,60.04202942,61490a83dfe0ffe854d06164,626b377229c10585ec392f8a,626b3c67d3e1600b9db094c6,,,,,,,,,,,,,,,,,,,,,,,a,1,"[""0.248"",""0.629"",""0.770"",""0.919""]","[1,0,1,1]",0,54,54,54,1,0,0,,,0,FALSE,2.4303,,,,,,,,,,,,,,,,,,,,,,,,,,,,,,
,61490a83dfe0ffe854d06164,001,2022-04-28_20h18.25.227,classification_task,2021.2.3,Win32,60.04202942,61490a83dfe0ffe854d06164,626b377229c10585ec392f8a,626b3c67d3e1600b9db094c6,,,,,,,,,,,,,,,,,,,,,,,l,1,"[""0.143"",""0.596"",""0.471"",""0.822""]","[1,0,1,1]",0,55,55,55,1,1,0,,,0,FALSE,0.3164,,,,,,,,,,,,,,,,,,,,,,,,,,,,,,
,61490a83dfe0ffe854d06164,001,2022-04-28_20h18.25.227,classification_task,2021.2.3,Win32,60.04202942,61490a83dfe0ffe854d06164,626b377229c10585ec392f8a,626b3c67d3e1600b9db094c6,,,,,,,,,,,,,,,,,,,,,,,a,1,"[""0.662"",""0.430"",""0.770"",""0.919""]","[0,1,1,1]",0,56,56,56,1,0,0,,,0,FALSE,2.0061,,,,,,,,,,,,,,,,,,,,,,,,,,,,,,
,61490a83dfe0ffe854d06164,001,2022-04-28_20h18.25.227,classification_task,2021.2.3,Win32,60.04202942,61490a83dfe0ffe854d06164,626b377229c10585ec392f8a,626b3c67d3e1600b9db094c6,,,,,,,,,,,,,,,,,,,,,,,a,0,"[""0.097"",""0.682"",""0.515"",""0.730""]","[1,0,1,1]",0,57,57,57,1,1,1,,,0,FALSE,2.7985,,,,,,,,,,,,,,,,,,,,,,,,,,,,,,
,61490a83dfe0ffe854d06164,001,2022-04-28_20h18.25.227,classification_task,2021.2.3,Win32,60.04202942,61490a83dfe0ffe854d06164,626b377229c10585ec392f8a,626b3c67d3e1600b9db094c6,,,,,,,,,,,,,,,,,,,,,,,a,1,"[""0.205"",""0.391"",""0.872"",""0.652""]","[1,1,1,0]",0,58,58,58,1,0,1,,,0,FALSE,1.0781,,,,,,,,,,,,,,,,,,,,,,,,,,,,,,
,61490a83dfe0ffe854d06164,001,2022-04-28_20h18.25.227,classification_task,2021.2.3,Win32,60.04202942,61490a83dfe0ffe854d06164,626b377229c10585ec392f8a,626b3c67d3e1600b9db094c6,,,,,,,,,,,,,,,,,,,,,,,l,1,"[""0.097"",""0.290"",""0.515"",""0.026""]","[1,1,1,0]",0,59,59,59,1,1,1,,,0,FALSE,0.7563,,,,,,,,,,,,,,,,,,,,,,,,,,,,,,
,61490a83dfe0ffe854d06164,001,2022-04-28_20h18.25.227,classification_task,2021.2.3,Win32,60.04202942,61490a83dfe0ffe854d06164,626b377229c10585ec392f8a,626b3c67d3e1600b9db094c6,,,,,,,,,,,,,,,,,,,,,,,l,1,"[""0.628"",""0.337"",""0.471"",""0.822""]","[0,1,1,1]",0,60,60,60,1,1,0,,,0,FALSE,0.8069,,,,,,,,,,,,,,,,,,,,,,,,,,,,,,
,61490a83dfe0ffe854d06164,001,2022-04-28_20h18.25.227,classification_task,2021.2.3,Win32,60.04202942,61490a83dfe0ffe854d06164,626b377229c10585ec392f8a,626b3c67d3e1600b9db094c6,,,,,,,,,,,,,,,,,,,,,,,l,1,"[""0.596"",""0.290"",""0.515"",""0.730""]","[0,1,1,1]",0,61,61,61,1,1,1,,,0,FALSE,0.8173,,,,,,,,,,,,,,,,,,,,,,,,,,,,,,
,61490a83dfe0ffe854d06164,001,2022-04-28_20h18.25.227,classification_task,2021.2.3,Win32,60.04202942,61490a83dfe0ffe854d06164,626b377229c10585ec392f8a,626b3c67d3e1600b9db094c6,,,,,,,,,,,,,,,,,,,,,,,a,0,"[""0.143"",""0.337"",""0.655"",""0.822""]","[1,1,0,1]",0,62,62,62,1,1,0,,,0,FALSE,0.9637,,,,,,,,,,,,,,,,,,,,,,,,,,,,,,
,61490a83dfe0ffe854d06164,001,2022-04-28_20h18.25.227,classification_task,2021.2.3,Win32,60.04202942,61490a83dfe0ffe854d06164,626b377229c10585ec392f8a,626b3c67d3e1600b9db094c6,,,,,,,,,,,,,,,,,,,,,,,a,0,"[""0.143"",""0.337"",""0.471"",""0.682""]","[1,1,1,0]",0,63,63,63,1,1,0,,,0,FALSE,0.765,,,,,,,,,,,,,,,,,,,,,,,,,,,,,,
,61490a83dfe0ffe854d06164,001,2022-04-28_20h18.25.227,classification_task,2021.2.3,Win32,60.04202942,61490a83dfe0ffe854d06164,626b377229c10585ec392f8a,626b3c67d3e1600b9db094c6,,,,,,,,,,,,,,,,,,,,,,,,,,,,,,,,,,,,,,,0, ,,0,5.586260974,158.7598,0,2,2,2,1,2,3,,,,,,,,,,,,,,,,,
,61490a83dfe0ffe854d06164,001,2022-04-28_20h18.25.227,classification_task,2021.2.3,Win32,60.04202942,61490a83dfe0ffe854d06164,626b377229c10585ec392f8a,626b3c67d3e1600b9db094c6,,,,,,,,,,,,,,,,,,,,,,,,,,,,,,,,,,,,,,,1,  ,,0,10,161.6404,0,2,2,2,1,2,3,,,,,,,,,,,,,,,,,
,61490a83dfe0ffe854d06164,001,2022-04-28_20h18.25.227,classification_task,2021.2.3,Win32,60.04202942,61490a83dfe0ffe854d06164,626b377229c10585ec392f8a,626b3c67d3e1600b9db094c6,,,,,,,,,,,,,,,,,,,,,,,,,,,,,,,,,,,,,,,2,  ,,0,8.019244911,168.5187,0,2,2,2,1,2,3,,,,,,,,,,,,,,,,,
,61490a83dfe0ffe854d06164,001,2022-04-28_20h18.25.227,classification_task,2021.2.3,Win32,60.04202942,61490a83dfe0ffe854d06164,626b377229c10585ec392f8a,626b3c67d3e1600b9db094c6,,,,,,,,,,,,,,,,,,,,,,,,,,,,,,,,,,,,,,,,,,,,,0,2,2,2,1,,3,,,,,,,,,,,,,,,,,
,61490a83dfe0ffe854d06164,001,2022-04-28_20h18.25.227,classification_task,2021.2.3,Win32,60.04202942,61490a83dfe0ffe854d06164,626b377229c10585ec392f8a,626b3c67d3e1600b9db094c6,,,,,,,,,,,,,,,,,,,,,,,,,,,,,,,,,,,,,,,,,,,,,,,,,,,,,I believe the aid is a competent performer,,0.7,0,3,1687.1826,0,0,0,0,1,0,,,,
,61490a83dfe0ffe854d06164,001,2022-04-28_20h18.25.227,classification_task,2021.2.3,Win32,60.04202942,61490a83dfe0ffe854d06164,626b377229c10585ec392f8a,626b3c67d3e1600b9db094c6,,,,,,,,,,,,,,,,,,,,,,,,,,,,,,,,,,,,,,,,,,,,,,,,,,,,,I trust the aid,,0.7,0,4,1688.7487,0,0,0,0,1,0,,,,
,61490a83dfe0ffe854d06164,001,2022-04-28_20h18.25.227,classification_task,2021.2.3,Win32,60.04202942,61490a83dfe0ffe854d06164,626b377229c10585ec392f8a,626b3c67d3e1600b9db094c6,,,,,,,,,,,,,,,,,,,,,,,,,,,,,,,,,,,,,,,,,,,,,,,,,,,,,I have confidence in the advice given by the aid,,0.7,0,4,1691.2768,0,0,0,0,1,0,,,,
,61490a83dfe0ffe854d06164,001,2022-04-28_20h18.25.227,classification_task,2021.2.3,Win32,60.04202942,61490a83dfe0ffe854d06164,626b377229c10585ec392f8a,626b3c67d3e1600b9db094c6,,,,,,,,,,,,,,,,,,,,,,,,,,,,,,,,,,,,,,,,,,,,,,,,,,,,,I can depend on the aid,,0.7,0,2,1694.4731,0,0,0,0,1,0,,,,
,61490a83dfe0ffe854d06164,001,2022-04-28_20h18.25.227,classification_task,2021.2.3,Win32,60.04202942,61490a83dfe0ffe854d06164,626b377229c10585ec392f8a,626b3c67d3e1600b9db094c6,,,,,,,,,,,,,,,,,,,,,,,,,,,,,,,,,,,,,,,,,,,,,,,,,,,,,I can rely on the aid to behave in consistent ways,,0.7,0,3,1740.5167,0,0,0,0,1,0,,,,
,61490a83dfe0ffe854d06164,001,2022-04-28_20h18.25.227,classification_task,2021.2.3,Win32,60.04202942,61490a83dfe0ffe854d06164,626b377229c10585ec392f8a,626b3c67d3e1600b9db094c6,,,,,,,,,,,,,,,,,,,,,,,,,,,,,,,,,,,,,,,,,,,,,,,,,,,,,I can rely on the aid to do its best every time I take its advice,,0.7,0,3,1758.6747,0,0,0,0,1,0,,,,
,61490a83dfe0ffe854d06164,001,2022-04-28_20h18.25.227,classification_task,2021.2.3,Win32,60.04202942,61490a83dfe0ffe854d06164,626b377229c10585ec392f8a,626b3c67d3e1600b9db094c6,,,,,,,,,,,,,,,,,,,,,,,,,,,,,,,,,,,,,,,,,,,,,,,,,,,,,"On trials you completed with assistance from the aid, how frequently did you think the aid was correct?",,0.7,0, 50%,,0,0,0,0,1,0,,,,
,61490a83dfe0ffe854d06164,001,2022-04-28_20h18.25.227,classification_task,2021.2.3,Win32,60.04202942,61490a83dfe0ffe854d06164,626b377229c10585ec392f8a,626b3c67d3e1600b9db094c6,,,,,,,,,,,,,,,,,,,,,,,,,,,,,,,,,,,,,,,,,,,,,,,,,,,,,"On trials you completed without the aid, how frequently did you think you were correct?",,0.7,0, 50%,,0,0,0,0,1,0,,,,
,61490a83dfe0ffe854d06164,001,2022-04-28_20h18.25.227,classification_task,2021.2.3,Win32,60.04202942,61490a83dfe0ffe854d06164,626b377229c10585ec392f8a,626b3c67d3e1600b9db094c6,,,,,,,,,,,,,,,,,,,,,,,,,,,,,,,,,,,,,,,,,,,,,,,,,,,,,,,,,,,0,0,0,0,1,,,,,
,61490a83dfe0ffe854d06164,001,2022-04-28_20h18.25.227,classification_task,2021.2.3,Win32,60.04202942,61490a83dfe0ffe854d06164,626b377229c10585ec392f8a,626b3c67d3e1600b9db094c6,,,,,,,,,,,,,,,,,,,,,,,,,,,,,,,,,,,,,,,,,,,,,,,,,,,,,,,,,,,,,,,,,space,19.5449,1856.9832,
,61490a83dfe0ffe854d06164,001,2022-04-28_20h18.25.227,classification_task,2021.2.3,Win32,60.04202942,61490a83dfe0ffe854d06164,626b377229c10585ec392f8a,626b3c67d3e1600b9db094c6,,,,,,,,,,,,,,,,,,,,,,,,,,,,,,,,,,,,,,,,,,,,,,,,,,,,,,,,,,,,,,,,,,,,"Mozilla/5.0 (Windows NT 10.0; Win64; x64) AppleWebKit/537.36 (KHTML, like Gecko) Chrome/100.0.4896.127 Safari/537.36"
