usingWebGL,participant,session,date,expName,psychopyVersion,OS,frameRate,PROLIFIC_PID,STUDY_ID,SESSION_ID,signatures_friend,signatures_foe,band_ranges_top,band_ranges_bottom,formitemText,formtype,formundefined,formitemWidth,formindex,formresponse,formrt,key_resp_2.keys,key_resp_2.rt,tute_resp.keys,tute_resp.rt,tutorial.thisRepN,tutorial.thisTrialN,tutorial.thisN,tutorial.thisIndex,tutorial.ran,key_resp_4.keys,key_resp_4.rt,key_resp.keys,key_resp.corr,key_resp.rt,lines_presented,is_signal_presented,trials.thisRepN,trials.thisTrialN,trials.thisN,trials.thisIndex,trials.ran,vessel,active_band,lines,is_signal,supported_pos,catch_trial,debrief_formindex,debrief_formitemText,debrief_formtype,debrief_formitemWidth,debrief_formresponse,debrief_formrt,phases.thisRepN,phases.thisTrialN,phases.thisN,phases.thisIndex,phases.ran,phases.order,phase,key_resp_3.keys,trustitemText,trusttype,trustitemWidth,trustindex,trustresponse,trustrt,support_status.thisRepN,support_status.thisTrialN,support_status.thisN,support_status.thisIndex,support_status.ran,support_status.order,key_resp_5.keys,key_resp_5.rt,globalClockTime,userAgent
TRUE,614a7b0e7bf360668da0617b,001,2022-04-28_20h59.59.488,classification_task,2021.2.3,MacIntel,59.93407252,614a7b0e7bf360668da0617b,626b377229c10585ec392f89,626b3b7ec53fd646788231b4,,,,,,,,,,,,,,,,,,,,,,,,,,,,,,,,,,,,,,,,,,,,,,,,,,,,,,,,,,,,,,,,,,,,
,614a7b0e7bf360668da0617b,001,2022-04-28_20h59.59.488,classification_task,2021.2.3,MacIntel,59.93407252,614a7b0e7bf360668da0617b,626b377229c10585ec392f89,626b3b7ec53fd646788231b4,"[[""0.220"",""0.493"",""0.794"",""0.954""],[""0.326"",""0.360"",""0.873"",""0.913""]]","[[""0.072"",""0.279"",""0.558"",""0.750""],[""0.131"",""0.397"",""0.453"",""0.838""]]","[1,10]","[100,1000]",Video game experience,,,0.7,0,,,,,,,,,,,,,,,,,,,,,,,,,,,,,,,,,,,,,,,,,,,,,,,,,,,,,,,,,,,
,614a7b0e7bf360668da0617b,001,2022-04-28_20h59.59.488,classification_task,2021.2.3,MacIntel,59.93407252,614a7b0e7bf360668da0617b,626b377229c10585ec392f89,626b3b7ec53fd646788231b4,,,,,Approximately how many hours did you spend playing video games in the last week?,,,0.7,0,5,,,,,,,,,,,,,,,,,,,,,,,,,,,,,,,,,,,,,,,,,,,,,,,,,,,,,,,,,,
,614a7b0e7bf360668da0617b,001,2022-04-28_20h59.59.488,classification_task,2021.2.3,MacIntel,59.93407252,614a7b0e7bf360668da0617b,626b377229c10585ec392f89,626b3b7ec53fd646788231b4,,,,,"Which game did you play the most this year? (Enter ""None"" if you didn't play any)",,,0.7,0,Agar.io,,,,,,,,,,,,,,,,,,,,,,,,,,,,,,,,,,,,,,,,,,,,,,,,,,,,,,,,,,
,614a7b0e7bf360668da0617b,001,2022-04-28_20h59.59.488,classification_task,2021.2.3,MacIntel,59.93407252,614a7b0e7bf360668da0617b,626b377229c10585ec392f89,626b3b7ec53fd646788231b4,,,,,Visual perception,,,0.7,0,,,,,,,,,,,,,,,,,,,,,,,,,,,,,,,,,,,,,,,,,,,,,,,,,,,,,,,,,,,
,614a7b0e7bf360668da0617b,001,2022-04-28_20h59.59.488,classification_task,2021.2.3,MacIntel,59.93407252,614a7b0e7bf360668da0617b,626b377229c10585ec392f89,626b3b7ec53fd646788231b4,,,,,Do you have any form of color blindness?,,,0.7,0,No,16.3014,,,,,,,,,,,,,,,,,,,,,,,,,,,,,,,,,,,,,,,,,,,,,,,,,,,,,,,,,
,614a7b0e7bf360668da0617b,001,2022-04-28_20h59.59.488,classification_task,2021.2.3,MacIntel,59.93407252,614a7b0e7bf360668da0617b,626b377229c10585ec392f89,626b3b7ec53fd646788231b4,,,,,Do you use software to change the colour temperature of your screen (e.g. f.lux)?,,,0.7,0,No,19.4922,,,,,,,,,,,,,,,,,,,,,,,,,,,,,,,,,,,,,,,,,,,,,,,,,,,,,,,,,
,614a7b0e7bf360668da0617b,001,2022-04-28_20h59.59.488,classification_task,2021.2.3,MacIntel,59.93407252,614a7b0e7bf360668da0617b,626b377229c10585ec392f89,626b3b7ec53fd646788231b4,,,,,,,,,,,,space,28.0228,space,14.4333,0,0,0,0,1,,,,,,,,,,,,,,,,,,,,,,,,,,,,,,,,,,,,,,,,,,,,,,,,
,614a7b0e7bf360668da0617b,001,2022-04-28_20h59.59.488,classification_task,2021.2.3,MacIntel,59.93407252,614a7b0e7bf360668da0617b,626b377229c10585ec392f89,626b3b7ec53fd646788231b4,,,,,,,,,,,,,,space,4.2388,1,0,1,0,1,,,,,,,,,,,,,,,,,,,,,,,,,,,,,,,,,,,,,,,,,,,,,,,,
,614a7b0e7bf360668da0617b,001,2022-04-28_20h59.59.488,classification_task,2021.2.3,MacIntel,59.93407252,614a7b0e7bf360668da0617b,626b377229c10585ec392f89,626b3b7ec53fd646788231b4,,,,,,,,,,,,,,space,9.7274,2,0,2,0,1,,,,,,,,,,,,,,,,,,,,,,,,,,,,,,,,,,,,,,,,,,,,,,,,
,614a7b0e7bf360668da0617b,001,2022-04-28_20h59.59.488,classification_task,2021.2.3,MacIntel,59.93407252,614a7b0e7bf360668da0617b,626b377229c10585ec392f89,626b3b7ec53fd646788231b4,,,,,,,,,,,,,,space,16.6685,3,0,3,0,1,,,,,,,,,,,,,,,,,,,,,,,,,,,,,,,,,,,,,,,,,,,,,,,,
,614a7b0e7bf360668da0617b,001,2022-04-28_20h59.59.488,classification_task,2021.2.3,MacIntel,59.93407252,614a7b0e7bf360668da0617b,626b377229c10585ec392f89,626b3b7ec53fd646788231b4,,,,,,,,,,,,,,space,20.8231,4,0,4,0,1,,,,,,,,,,,,,,,,,,,,,,,,,,,,,,,,,,,,,,,,,,,,,,,,
,614a7b0e7bf360668da0617b,001,2022-04-28_20h59.59.488,classification_task,2021.2.3,MacIntel,59.93407252,614a7b0e7bf360668da0617b,626b377229c10585ec392f89,626b3b7ec53fd646788231b4,,,,,,,,,,,,,,,,,,,,,space,16.0566,l,1,7.6914,"[""0.131"",""0.029"",""0.453"",""0.838""]","[1,0,1,1]",0,0,0,0,1,1,1,,,0,FALSE,,,,,,,,,,,,,,,,,,,,,,,,,,,,,,
,614a7b0e7bf360668da0617b,001,2022-04-28_20h59.59.488,classification_task,2021.2.3,MacIntel,59.93407252,614a7b0e7bf360668da0617b,626b377229c10585ec392f89,626b3b7ec53fd646788231b4,,,,,,,,,,,,,,,,,,,,,,,a,1,6.9917,"[""0.326"",""0.360"",""0.184"",""0.913""]","[1,1,0,1]",0,1,1,1,1,0,1,,,0,FALSE,,,,,,,,,,,,,,,,,,,,,,,,,,,,,,
,614a7b0e7bf360668da0617b,001,2022-04-28_20h59.59.488,classification_task,2021.2.3,MacIntel,59.93407252,614a7b0e7bf360668da0617b,626b377229c10585ec392f89,626b3b7ec53fd646788231b4,,,,,,,,,,,,,,,,,,,,,,,l,1,8.927,"[""0.620"",""0.279"",""0.558"",""0.750""]","[0,1,1,1]",0,2,2,2,1,1,0,,,0,FALSE,,,,,,,,,,,,,,,,,,,,,,,,,,,,,,
,614a7b0e7bf360668da0617b,001,2022-04-28_20h59.59.488,classification_task,2021.2.3,MacIntel,59.93407252,614a7b0e7bf360668da0617b,626b377229c10585ec392f89,626b3b7ec53fd646788231b4,,,,,,,,,,,,,,,,,,,,,,,l,1,5.4526,"[""0.072"",""0.279"",""0.558"",""0.620""]","[1,1,1,0]",0,3,3,3,1,1,0,,,0,FALSE,,,,,,,,,,,,,,,,,,,,,,,,,,,,,,
,614a7b0e7bf360668da0617b,001,2022-04-28_20h59.59.488,classification_task,2021.2.3,MacIntel,59.93407252,614a7b0e7bf360668da0617b,626b377229c10585ec392f89,626b3b7ec53fd646788231b4,,,,,,,,,,,,,,,,,,,,,,,l,0,7.8196,"[""0.220"",""0.493"",""0.794"",""0.029""]","[1,1,1,0]",0,4,4,4,1,0,0,,,0,FALSE,,,,,,,,,,,,,,,,,,,,,,,,,,,,,,
,614a7b0e7bf360668da0617b,001,2022-04-28_20h59.59.488,classification_task,2021.2.3,MacIntel,59.93407252,614a7b0e7bf360668da0617b,626b377229c10585ec392f89,626b3b7ec53fd646788231b4,,,,,,,,,,,,,,,,,,,,,,,a,1,8.2484,"[""0.326"",""0.360"",""0.873"",""0.616""]","[1,1,1,0]",0,5,5,5,1,0,1,,,0,FALSE,,,,,,,,,,,,,,,,,,,,,,,,,,,,,,
,614a7b0e7bf360668da0617b,001,2022-04-28_20h59.59.488,classification_task,2021.2.3,MacIntel,59.93407252,614a7b0e7bf360668da0617b,626b377229c10585ec392f89,626b3b7ec53fd646788231b4,,,,,,,,,,,,,,,,,,,,,,,l,1,7.9178,"[""0.131"",""0.397"",""0.453"",""0.616""]","[1,1,1,0]",0,6,6,6,1,1,1,,,0,FALSE,,,,,,,,,,,,,,,,,,,,,,,,,,,,,,
,614a7b0e7bf360668da0617b,001,2022-04-28_20h59.59.488,classification_task,2021.2.3,MacIntel,59.93407252,614a7b0e7bf360668da0617b,626b377229c10585ec392f89,626b3b7ec53fd646788231b4,,,,,,,,,,,,,,,,,,,,,,,,0,,"[""0.220"",""0.646"",""0.794"",""0.954""]","[1,0,1,1]",0,7,7,7,1,0,0,,,0,FALSE,,,,,,,,,,,,,,,,,,,,,,,,,,,,,,
,614a7b0e7bf360668da0617b,001,2022-04-28_20h59.59.488,classification_task,2021.2.3,MacIntel,59.93407252,614a7b0e7bf360668da0617b,626b377229c10585ec392f89,626b3b7ec53fd646788231b4,,,,,,,,,,,,,,,,,,,,,,,a,1,4.8221,"[""0.326"",""0.610"",""0.873"",""0.913""]","[1,0,1,1]",0,8,8,8,1,0,1,,,0,FALSE,,,,,,,,,,,,,,,,,,,,,,,,,,,,,,
,614a7b0e7bf360668da0617b,001,2022-04-28_20h59.59.488,classification_task,2021.2.3,MacIntel,59.93407252,614a7b0e7bf360668da0617b,626b377229c10585ec392f89,626b3b7ec53fd646788231b4,,,,,,,,,,,,,,,,,,,,,,,a,1,3.5387,"[""0.657"",""0.493"",""0.794"",""0.954""]","[0,1,1,1]",0,9,9,9,1,0,0,,,0,FALSE,,,,,,,,,,,,,,,,,,,,,,,,,,,,,,
,614a7b0e7bf360668da0617b,001,2022-04-28_20h59.59.488,classification_task,2021.2.3,MacIntel,59.93407252,614a7b0e7bf360668da0617b,626b377229c10585ec392f89,626b3b7ec53fd646788231b4,,,,,,,,,,,,,,,,,,,,,,,l,1,8.794,"[""0.620"",""0.397"",""0.453"",""0.838""]","[0,1,1,1]",0,10,10,10,1,1,1,,,0,FALSE,,,,,,,,,,,,,,,,,,,,,,,,,,,,,,
,614a7b0e7bf360668da0617b,001,2022-04-28_20h59.59.488,classification_task,2021.2.3,MacIntel,59.93407252,614a7b0e7bf360668da0617b,626b377229c10585ec392f89,626b3b7ec53fd646788231b4,,,,,,,,,,,,,,,,,,,,,,,l,1,4.3391,"[""0.072"",""0.610"",""0.558"",""0.750""]","[1,0,1,1]",0,11,11,11,1,1,0,,,0,FALSE,,,,,,,,,,,,,,,,,,,,,,,,,,,,,,
,614a7b0e7bf360668da0617b,001,2022-04-28_20h59.59.488,classification_task,2021.2.3,MacIntel,59.93407252,614a7b0e7bf360668da0617b,626b377229c10585ec392f89,626b3b7ec53fd646788231b4,,,,,,,,,,,,,,,,,,,,,,,a,1,3.168,"[""0.220"",""0.493"",""0.709"",""0.954""]","[1,1,0,1]",0,12,12,12,1,0,0,,,0,FALSE,,,,,,,,,,,,,,,,,,,,,,,,,,,,,,
,614a7b0e7bf360668da0617b,001,2022-04-28_20h59.59.488,classification_task,2021.2.3,MacIntel,59.93407252,614a7b0e7bf360668da0617b,626b377229c10585ec392f89,626b3b7ec53fd646788231b4,,,,,,,,,,,,,,,,,,,,,,,a,0,7.1179,"[""0.072"",""0.279"",""0.652"",""0.750""]","[1,1,0,1]",0,13,13,13,1,1,0,,,0,FALSE,,,,,,,,,,,,,,,,,,,,,,,,,,,,,,
,614a7b0e7bf360668da0617b,001,2022-04-28_20h59.59.488,classification_task,2021.2.3,MacIntel,59.93407252,614a7b0e7bf360668da0617b,626b377229c10585ec392f89,626b3b7ec53fd646788231b4,,,,,,,,,,,,,,,,,,,,,,,a,1,4.2553,"[""0.714"",""0.360"",""0.873"",""0.913""]","[0,1,1,1]",0,14,14,14,1,0,1,,,0,FALSE,,,,,,,,,,,,,,,,,,,,,,,,,,,,,,
,614a7b0e7bf360668da0617b,001,2022-04-28_20h59.59.488,classification_task,2021.2.3,MacIntel,59.93407252,614a7b0e7bf360668da0617b,626b377229c10585ec392f89,626b3b7ec53fd646788231b4,,,,,,,,,,,,,,,,,,,,,,,l,1,4.3981,"[""0.131"",""0.397"",""0.029"",""0.838""]","[1,1,0,1]",0,15,15,15,1,1,1,,,0,FALSE,,,,,,,,,,,,,,,,,,,,,,,,,,,,,,
,614a7b0e7bf360668da0617b,001,2022-04-28_20h59.59.488,classification_task,2021.2.3,MacIntel,59.93407252,614a7b0e7bf360668da0617b,626b377229c10585ec392f89,626b3b7ec53fd646788231b4,,,,,,,,,,,,,,,,,,,,,,,l,1,5.1957,"[""0.184"",""0.279"",""0.558"",""0.750""]","[0,1,1,1]",0,16,16,16,1,1,0,,,0,FALSE,,,,,,,,,,,,,,,,,,,,,,,,,,,,,,
,614a7b0e7bf360668da0617b,001,2022-04-28_20h59.59.488,classification_task,2021.2.3,MacIntel,59.93407252,614a7b0e7bf360668da0617b,626b377229c10585ec392f89,626b3b7ec53fd646788231b4,,,,,,,,,,,,,,,,,,,,,,,l,1,2.2874,"[""0.131"",""0.709"",""0.453"",""0.838""]","[1,0,1,1]",0,17,17,17,1,1,1,,,0,FALSE,,,,,,,,,,,,,,,,,,,,,,,,,,,,,,
,614a7b0e7bf360668da0617b,001,2022-04-28_20h59.59.488,classification_task,2021.2.3,MacIntel,59.93407252,614a7b0e7bf360668da0617b,626b377229c10585ec392f89,626b3b7ec53fd646788231b4,,,,,,,,,,,,,,,,,,,,,,,a,0,7.5813,"[""0.131"",""0.397"",""0.453"",""0.602""]","[1,1,1,0]",0,18,18,18,1,1,1,,,0,FALSE,,,,,,,,,,,,,,,,,,,,,,,,,,,,,,
,614a7b0e7bf360668da0617b,001,2022-04-28_20h59.59.488,classification_task,2021.2.3,MacIntel,59.93407252,614a7b0e7bf360668da0617b,626b377229c10585ec392f89,626b3b7ec53fd646788231b4,,,,,,,,,,,,,,,,,,,,,,,l,1,3.986,"[""0.131"",""0.397"",""0.715"",""0.838""]","[1,1,0,1]",0,19,19,19,1,1,1,,,0,FALSE,,,,,,,,,,,,,,,,,,,,,,,,,,,,,,
,614a7b0e7bf360668da0617b,001,2022-04-28_20h59.59.488,classification_task,2021.2.3,MacIntel,59.93407252,614a7b0e7bf360668da0617b,626b377229c10585ec392f89,626b3b7ec53fd646788231b4,,,,,,,,,,,,,,,,,,,,,,,a,1,6.1582,"[""0.220"",""0.646"",""0.794"",""0.954""]","[1,0,1,1]",0,20,20,20,1,0,0,,,0,FALSE,,,,,,,,,,,,,,,,,,,,,,,,,,,,,,
,614a7b0e7bf360668da0617b,001,2022-04-28_20h59.59.488,classification_task,2021.2.3,MacIntel,59.93407252,614a7b0e7bf360668da0617b,626b377229c10585ec392f89,626b3b7ec53fd646788231b4,,,,,,,,,,,,,,,,,,,,,,,a,1,6.4229,"[""0.326"",""0.174"",""0.873"",""0.913""]","[1,0,1,1]",0,21,21,21,1,0,1,,,0,FALSE,,,,,,,,,,,,,,,,,,,,,,,,,,,,,,
,614a7b0e7bf360668da0617b,001,2022-04-28_20h59.59.488,classification_task,2021.2.3,MacIntel,59.93407252,614a7b0e7bf360668da0617b,626b377229c10585ec392f89,626b3b7ec53fd646788231b4,,,,,,,,,,,,,,,,,,,,,,,l,1,4.6892,"[""0.072"",""0.279"",""0.620"",""0.750""]","[1,1,0,1]",0,22,22,22,1,1,0,,,0,FALSE,,,,,,,,,,,,,,,,,,,,,,,,,,,,,,
,614a7b0e7bf360668da0617b,001,2022-04-28_20h59.59.488,classification_task,2021.2.3,MacIntel,59.93407252,614a7b0e7bf360668da0617b,626b377229c10585ec392f89,626b3b7ec53fd646788231b4,,,,,,,,,,,,,,,,,,,,,,,l,0,7.8925,"[""0.715"",""0.360"",""0.873"",""0.913""]","[0,1,1,1]",0,23,23,23,1,0,1,,,0,FALSE,,,,,,,,,,,,,,,,,,,,,,,,,,,,,,
,614a7b0e7bf360668da0617b,001,2022-04-28_20h59.59.488,classification_task,2021.2.3,MacIntel,59.93407252,614a7b0e7bf360668da0617b,626b377229c10585ec392f89,626b3b7ec53fd646788231b4,,,,,,,,,,,,,,,,,,,,,,,a,1,2.3129,"[""0.326"",""0.360"",""0.610"",""0.913""]","[1,1,0,1]",0,24,24,24,1,0,1,,,0,FALSE,,,,,,,,,,,,,,,,,,,,,,,,,,,,,,
,614a7b0e7bf360668da0617b,001,2022-04-28_20h59.59.488,classification_task,2021.2.3,MacIntel,59.93407252,614a7b0e7bf360668da0617b,626b377229c10585ec392f89,626b3b7ec53fd646788231b4,,,,,,,,,,,,,,,,,,,,,,,l,1,5.205,"[""0.072"",""0.279"",""0.558"",""0.184""]","[1,1,1,0]",0,25,25,25,1,1,0,,,0,FALSE,,,,,,,,,,,,,,,,,,,,,,,,,,,,,,
,614a7b0e7bf360668da0617b,001,2022-04-28_20h59.59.488,classification_task,2021.2.3,MacIntel,59.93407252,614a7b0e7bf360668da0617b,626b377229c10585ec392f89,626b3b7ec53fd646788231b4,,,,,,,,,,,,,,,,,,,,,,,a,1,6.2079,"[""0.326"",""0.360"",""0.873"",""0.709""]","[1,1,1,0]",0,26,26,26,1,0,1,,,0,FALSE,,,,,,,,,,,,,,,,,,,,,,,,,,,,,,
,614a7b0e7bf360668da0617b,001,2022-04-28_20h59.59.488,classification_task,2021.2.3,MacIntel,59.93407252,614a7b0e7bf360668da0617b,626b377229c10585ec392f89,626b3b7ec53fd646788231b4,,,,,,,,,,,,,,,,,,,,,,,a,1,5.743,"[""0.220"",""0.493"",""0.794"",""0.029""]","[1,1,1,0]",0,27,27,27,1,0,0,,,0,FALSE,,,,,,,,,,,,,,,,,,,,,,,,,,,,,,
,614a7b0e7bf360668da0617b,001,2022-04-28_20h59.59.488,classification_task,2021.2.3,MacIntel,59.93407252,614a7b0e7bf360668da0617b,626b377229c10585ec392f89,626b3b7ec53fd646788231b4,,,,,,,,,,,,,,,,,,,,,,,l,1,5.1532,"[""0.072"",""0.616"",""0.558"",""0.750""]","[1,0,1,1]",0,28,28,28,1,1,0,,,0,FALSE,,,,,,,,,,,,,,,,,,,,,,,,,,,,,,
,614a7b0e7bf360668da0617b,001,2022-04-28_20h59.59.488,classification_task,2021.2.3,MacIntel,59.93407252,614a7b0e7bf360668da0617b,626b377229c10585ec392f89,626b3b7ec53fd646788231b4,,,,,,,,,,,,,,,,,,,,,,,l,1,3.0038,"[""0.709"",""0.397"",""0.453"",""0.838""]","[0,1,1,1]",0,29,29,29,1,1,1,,,0,FALSE,,,,,,,,,,,,,,,,,,,,,,,,,,,,,,
,614a7b0e7bf360668da0617b,001,2022-04-28_20h59.59.488,classification_task,2021.2.3,MacIntel,59.93407252,614a7b0e7bf360668da0617b,626b377229c10585ec392f89,626b3b7ec53fd646788231b4,,,,,,,,,,,,,,,,,,,,,,,a,1,2.9876,"[""0.220"",""0.493"",""0.602"",""0.954""]","[1,1,0,1]",0,30,30,30,1,0,0,,,0,FALSE,,,,,,,,,,,,,,,,,,,,,,,,,,,,,,
,614a7b0e7bf360668da0617b,001,2022-04-28_20h59.59.488,classification_task,2021.2.3,MacIntel,59.93407252,614a7b0e7bf360668da0617b,626b377229c10585ec392f89,626b3b7ec53fd646788231b4,,,,,,,,,,,,,,,,,,,,,,,a,1,7.202,"[""0.029"",""0.493"",""0.794"",""0.954""]","[0,1,1,1]",0,31,31,31,1,0,0,,,0,FALSE,,,,,,,,,,,,,,,,,,,,,,,,,,,,,,
,614a7b0e7bf360668da0617b,001,2022-04-28_20h59.59.488,classification_task,2021.2.3,MacIntel,59.93407252,614a7b0e7bf360668da0617b,626b377229c10585ec392f89,626b3b7ec53fd646788231b4,,,,,,,,,,,,,,,,,,,,,,,a,0,5.1748,"[""0.072"",""0.279"",""0.558"",""0.616""]","[1,1,1,0]",0,32,32,32,1,1,0,,,0,FALSE,,,,,,,,,,,,,,,,,,,,,,,,,,,,,,
,614a7b0e7bf360668da0617b,001,2022-04-28_20h59.59.488,classification_task,2021.2.3,MacIntel,59.93407252,614a7b0e7bf360668da0617b,626b377229c10585ec392f89,626b3b7ec53fd646788231b4,,,,,,,,,,,,,,,,,,,,,,,l,0,2.3458,"[""0.220"",""0.493"",""0.794"",""0.173""]","[1,1,1,0]",0,33,33,33,1,0,0,,,0,FALSE,,,,,,,,,,,,,,,,,,,,,,,,,,,,,,
,614a7b0e7bf360668da0617b,001,2022-04-28_20h59.59.488,classification_task,2021.2.3,MacIntel,59.93407252,614a7b0e7bf360668da0617b,626b377229c10585ec392f89,626b3b7ec53fd646788231b4,,,,,,,,,,,,,,,,,,,,,,,a,0,1.9864,"[""0.131"",""0.397"",""0.453"",""0.697""]","[1,1,1,0]",0,34,34,34,1,1,1,,,0,FALSE,,,,,,,,,,,,,,,,,,,,,,,,,,,,,,
,614a7b0e7bf360668da0617b,001,2022-04-28_20h59.59.488,classification_task,2021.2.3,MacIntel,59.93407252,614a7b0e7bf360668da0617b,626b377229c10585ec392f89,626b3b7ec53fd646788231b4,,,,,,,,,,,,,,,,,,,,,,,a,1,1.0934,"[""0.326"",""0.360"",""0.873"",""0.709""]","[1,1,1,0]",0,35,35,35,1,0,1,,,0,FALSE,,,,,,,,,,,,,,,,,,,,,,,,,,,,,,
,614a7b0e7bf360668da0617b,001,2022-04-28_20h59.59.488,classification_task,2021.2.3,MacIntel,59.93407252,614a7b0e7bf360668da0617b,626b377229c10585ec392f89,626b3b7ec53fd646788231b4,,,,,,,,,,,,,,,,,,,,,,,l,1,1.3524,"[""0.072"",""0.620"",""0.558"",""0.750""]","[1,0,1,1]",0,36,36,36,1,1,0,,,0,FALSE,,,,,,,,,,,,,,,,,,,,,,,,,,,,,,
,614a7b0e7bf360668da0617b,001,2022-04-28_20h59.59.488,classification_task,2021.2.3,MacIntel,59.93407252,614a7b0e7bf360668da0617b,626b377229c10585ec392f89,626b3b7ec53fd646788231b4,,,,,,,,,,,,,,,,,,,,,,,l,0,1.2878,"[""0.602"",""0.360"",""0.873"",""0.913""]","[0,1,1,1]",0,37,37,37,1,0,1,,,0,FALSE,,,,,,,,,,,,,,,,,,,,,,,,,,,,,,
,614a7b0e7bf360668da0617b,001,2022-04-28_20h59.59.488,classification_task,2021.2.3,MacIntel,59.93407252,614a7b0e7bf360668da0617b,626b377229c10585ec392f89,626b3b7ec53fd646788231b4,,,,,,,,,,,,,,,,,,,,,,,a,0,0.9856,"[""0.184"",""0.397"",""0.453"",""0.838""]","[0,1,1,1]",0,38,38,38,1,1,1,,,0,FALSE,,,,,,,,,,,,,,,,,,,,,,,,,,,,,,
,614a7b0e7bf360668da0617b,001,2022-04-28_20h59.59.488,classification_task,2021.2.3,MacIntel,59.93407252,614a7b0e7bf360668da0617b,626b377229c10585ec392f89,626b3b7ec53fd646788231b4,,,,,,,,,,,,,,,,,,,,,,,l,0,1.1354,"[""0.326"",""0.360"",""0.610"",""0.913""]","[1,1,0,1]",0,39,39,39,1,0,1,,,0,FALSE,,,,,,,,,,,,,,,,,,,,,,,,,,,,,,
,614a7b0e7bf360668da0617b,001,2022-04-28_20h59.59.488,classification_task,2021.2.3,MacIntel,59.93407252,614a7b0e7bf360668da0617b,626b377229c10585ec392f89,626b3b7ec53fd646788231b4,,,,,,,,,,,,,,,,,,,,,,,a,1,2.8683,"[""0.220"",""0.493"",""0.029"",""0.954""]","[1,1,0,1]",0,40,40,40,1,0,0,,,0,FALSE,,,,,,,,,,,,,,,,,,,,,,,,,,,,,,
,614a7b0e7bf360668da0617b,001,2022-04-28_20h59.59.488,classification_task,2021.2.3,MacIntel,59.93407252,614a7b0e7bf360668da0617b,626b377229c10585ec392f89,626b3b7ec53fd646788231b4,,,,,,,,,,,,,,,,,,,,,,,l,0,1.6856,"[""0.326"",""0.715"",""0.873"",""0.913""]","[1,0,1,1]",0,41,41,41,1,0,1,,,0,FALSE,,,,,,,,,,,,,,,,,,,,,,,,,,,,,,
,614a7b0e7bf360668da0617b,001,2022-04-28_20h59.59.488,classification_task,2021.2.3,MacIntel,59.93407252,614a7b0e7bf360668da0617b,626b377229c10585ec392f89,626b3b7ec53fd646788231b4,,,,,,,,,,,,,,,,,,,,,,,a,1,1.5102,"[""0.646"",""0.493"",""0.794"",""0.954""]","[0,1,1,1]",0,42,42,42,1,0,0,,,0,FALSE,,,,,,,,,,,,,,,,,,,,,,,,,,,,,,
,614a7b0e7bf360668da0617b,001,2022-04-28_20h59.59.488,classification_task,2021.2.3,MacIntel,59.93407252,614a7b0e7bf360668da0617b,626b377229c10585ec392f89,626b3b7ec53fd646788231b4,,,,,,,,,,,,,,,,,,,,,,,l,1,1.9532,"[""0.131"",""0.397"",""0.657"",""0.838""]","[1,1,0,1]",0,43,43,43,1,1,1,,,0,FALSE,,,,,,,,,,,,,,,,,,,,,,,,,,,,,,
,614a7b0e7bf360668da0617b,001,2022-04-28_20h59.59.488,classification_task,2021.2.3,MacIntel,59.93407252,614a7b0e7bf360668da0617b,626b377229c10585ec392f89,626b3b7ec53fd646788231b4,,,,,,,,,,,,,,,,,,,,,,,l,0,1.7697,"[""0.220"",""0.610"",""0.794"",""0.954""]","[1,0,1,1]",0,44,44,44,1,0,0,,,0,FALSE,,,,,,,,,,,,,,,,,,,,,,,,,,,,,,
,614a7b0e7bf360668da0617b,001,2022-04-28_20h59.59.488,classification_task,2021.2.3,MacIntel,59.93407252,614a7b0e7bf360668da0617b,626b377229c10585ec392f89,626b3b7ec53fd646788231b4,,,,,,,,,,,,,,,,,,,,,,,a,0,0.7441,"[""0.072"",""0.279"",""0.174"",""0.750""]","[1,1,0,1]",0,45,45,45,1,1,0,,,0,FALSE,,,,,,,,,,,,,,,,,,,,,,,,,,,,,,
,614a7b0e7bf360668da0617b,001,2022-04-28_20h59.59.488,classification_task,2021.2.3,MacIntel,59.93407252,614a7b0e7bf360668da0617b,626b377229c10585ec392f89,626b3b7ec53fd646788231b4,,,,,,,,,,,,,,,,,,,,,,,l,1,0.818,"[""0.131"",""0.657"",""0.453"",""0.838""]","[1,0,1,1]",0,46,46,46,1,1,1,,,0,FALSE,,,,,,,,,,,,,,,,,,,,,,,,,,,,,,
,614a7b0e7bf360668da0617b,001,2022-04-28_20h59.59.488,classification_task,2021.2.3,MacIntel,59.93407252,614a7b0e7bf360668da0617b,626b377229c10585ec392f89,626b3b7ec53fd646788231b4,,,,,,,,,,,,,,,,,,,,,,,l,1,2.2535,"[""0.616"",""0.279"",""0.558"",""0.750""]","[0,1,1,1]",0,47,47,47,1,1,0,,,0,FALSE,,,,,,,,,,,,,,,,,,,,,,,,,,,,,,
,614a7b0e7bf360668da0617b,001,2022-04-28_20h59.59.488,classification_task,2021.2.3,MacIntel,59.93407252,614a7b0e7bf360668da0617b,626b377229c10585ec392f89,626b3b7ec53fd646788231b4,,,,,,,,,,,,,,,,,,,,,,,a,1,1.0276,"[""0.657"",""0.493"",""0.794"",""0.954""]","[0,1,1,1]",0,48,48,48,1,0,0,,,0,FALSE,,,,,,,,,,,,,,,,,,,,,,,,,,,,,,
,614a7b0e7bf360668da0617b,001,2022-04-28_20h59.59.488,classification_task,2021.2.3,MacIntel,59.93407252,614a7b0e7bf360668da0617b,626b377229c10585ec392f89,626b3b7ec53fd646788231b4,,,,,,,,,,,,,,,,,,,,,,,l,0,1.9404,"[""0.220"",""0.493"",""0.029"",""0.954""]","[1,1,0,1]",0,49,49,49,1,0,0,,,0,FALSE,,,,,,,,,,,,,,,,,,,,,,,,,,,,,,
,614a7b0e7bf360668da0617b,001,2022-04-28_20h59.59.488,classification_task,2021.2.3,MacIntel,59.93407252,614a7b0e7bf360668da0617b,626b377229c10585ec392f89,626b3b7ec53fd646788231b4,,,,,,,,,,,,,,,,,,,,,,,l,0,1.1757,"[""0.326"",""0.715"",""0.873"",""0.913""]","[1,0,1,1]",0,50,50,50,1,0,1,,,0,FALSE,,,,,,,,,,,,,,,,,,,,,,,,,,,,,,
,614a7b0e7bf360668da0617b,001,2022-04-28_20h59.59.488,classification_task,2021.2.3,MacIntel,59.93407252,614a7b0e7bf360668da0617b,626b377229c10585ec392f89,626b3b7ec53fd646788231b4,,,,,,,,,,,,,,,,,,,,,,,a,1,0.8847,"[""0.652"",""0.360"",""0.873"",""0.913""]","[0,1,1,1]",0,51,51,51,1,0,1,,,0,FALSE,,,,,,,,,,,,,,,,,,,,,,,,,,,,,,
,614a7b0e7bf360668da0617b,001,2022-04-28_20h59.59.488,classification_task,2021.2.3,MacIntel,59.93407252,614a7b0e7bf360668da0617b,626b377229c10585ec392f89,626b3b7ec53fd646788231b4,,,,,,,,,,,,,,,,,,,,,,,a,1,0.9517,"[""0.326"",""0.360"",""0.184"",""0.913""]","[1,1,0,1]",0,52,52,52,1,0,1,,,0,FALSE,,,,,,,,,,,,,,,,,,,,,,,,,,,,,,
,614a7b0e7bf360668da0617b,001,2022-04-28_20h59.59.488,classification_task,2021.2.3,MacIntel,59.93407252,614a7b0e7bf360668da0617b,626b377229c10585ec392f89,626b3b7ec53fd646788231b4,,,,,,,,,,,,,,,,,,,,,,,a,1,0.8686,"[""0.220"",""0.174"",""0.794"",""0.954""]","[1,0,1,1]",0,53,53,53,1,0,0,,,0,FALSE,,,,,,,,,,,,,,,,,,,,,,,,,,,,,,
,614a7b0e7bf360668da0617b,001,2022-04-28_20h59.59.488,classification_task,2021.2.3,MacIntel,59.93407252,614a7b0e7bf360668da0617b,626b377229c10585ec392f89,626b3b7ec53fd646788231b4,,,,,,,,,,,,,,,,,,,,,,,a,0,0.8518,"[""0.072"",""0.652"",""0.558"",""0.750""]","[1,0,1,1]",0,54,54,54,1,1,0,,,0,FALSE,,,,,,,,,,,,,,,,,,,,,,,,,,,,,,
,614a7b0e7bf360668da0617b,001,2022-04-28_20h59.59.488,classification_task,2021.2.3,MacIntel,59.93407252,614a7b0e7bf360668da0617b,626b377229c10585ec392f89,626b3b7ec53fd646788231b4,,,,,,,,,,,,,,,,,,,,,,,a,1,0.8184,"[""0.326"",""0.360"",""0.873"",""0.646""]","[1,1,1,0]",0,55,55,55,1,0,1,,,0,FALSE,,,,,,,,,,,,,,,,,,,,,,,,,,,,,,
,614a7b0e7bf360668da0617b,001,2022-04-28_20h59.59.488,classification_task,2021.2.3,MacIntel,59.93407252,614a7b0e7bf360668da0617b,626b377229c10585ec392f89,626b3b7ec53fd646788231b4,,,,,,,,,,,,,,,,,,,,,,,a,0,0.9351,"[""0.610"",""0.397"",""0.453"",""0.838""]","[0,1,1,1]",0,56,56,56,1,1,1,,,0,FALSE,,,,,,,,,,,,,,,,,,,,,,,,,,,,,,
,614a7b0e7bf360668da0617b,001,2022-04-28_20h59.59.488,classification_task,2021.2.3,MacIntel,59.93407252,614a7b0e7bf360668da0617b,626b377229c10585ec392f89,626b3b7ec53fd646788231b4,,,,,,,,,,,,,,,,,,,,,,,l,1,1.0851,"[""0.131"",""0.397"",""0.714"",""0.838""]","[1,1,0,1]",0,57,57,57,1,1,1,,,0,FALSE,,,,,,,,,,,,,,,,,,,,,,,,,,,,,,
,614a7b0e7bf360668da0617b,001,2022-04-28_20h59.59.488,classification_task,2021.2.3,MacIntel,59.93407252,614a7b0e7bf360668da0617b,626b377229c10585ec392f89,626b3b7ec53fd646788231b4,,,,,,,,,,,,,,,,,,,,,,,l,0,0.8352,"[""0.220"",""0.493"",""0.794"",""0.620""]","[1,1,1,0]",0,58,58,58,1,0,0,,,0,FALSE,,,,,,,,,,,,,,,,,,,,,,,,,,,,,,
,614a7b0e7bf360668da0617b,001,2022-04-28_20h59.59.488,classification_task,2021.2.3,MacIntel,59.93407252,614a7b0e7bf360668da0617b,626b377229c10585ec392f89,626b3b7ec53fd646788231b4,,,,,,,,,,,,,,,,,,,,,,,a,0,0.8699,"[""0.072"",""0.279"",""0.697"",""0.750""]","[1,1,0,1]",0,59,59,59,1,1,0,,,0,FALSE,,,,,,,,,,,,,,,,,,,,,,,,,,,,,,
,614a7b0e7bf360668da0617b,001,2022-04-28_20h59.59.488,classification_task,2021.2.3,MacIntel,59.93407252,614a7b0e7bf360668da0617b,626b377229c10585ec392f89,626b3b7ec53fd646788231b4,,,,,,,,,,,,,,,,,,,,,,,l,1,0.8852,"[""0.072"",""0.279"",""0.558"",""0.174""]","[1,1,1,0]",0,60,60,60,1,1,0,,,0,FALSE,,,,,,,,,,,,,,,,,,,,,,,,,,,,,,
,614a7b0e7bf360668da0617b,001,2022-04-28_20h59.59.488,classification_task,2021.2.3,MacIntel,59.93407252,614a7b0e7bf360668da0617b,626b377229c10585ec392f89,626b3b7ec53fd646788231b4,,,,,,,,,,,,,,,,,,,,,,,l,1,0.9875,"[""0.029"",""0.279"",""0.558"",""0.750""]","[0,1,1,1]",0,61,61,61,1,1,0,,,0,FALSE,,,,,,,,,,,,,,,,,,,,,,,,,,,,,,
,614a7b0e7bf360668da0617b,001,2022-04-28_20h59.59.488,classification_task,2021.2.3,MacIntel,59.93407252,614a7b0e7bf360668da0617b,626b377229c10585ec392f89,626b3b7ec53fd646788231b4,,,,,,,,,,,,,,,,,,,,,,,a,0,1.1186,"[""0.131"",""0.173"",""0.453"",""0.838""]","[1,0,1,1]",0,62,62,62,1,1,1,,,0,FALSE,,,,,,,,,,,,,,,,,,,,,,,,,,,,,,
,614a7b0e7bf360668da0617b,001,2022-04-28_20h59.59.488,classification_task,2021.2.3,MacIntel,59.93407252,614a7b0e7bf360668da0617b,626b377229c10585ec392f89,626b3b7ec53fd646788231b4,,,,,,,,,,,,,,,,,,,,,,,l,1,0.7179,"[""0.131"",""0.397"",""0.453"",""0.715""]","[1,1,1,0]",0,63,63,63,1,1,1,,,0,FALSE,,,,,,,,,,,,,,,,,,,,,,,,,,,,,,
,614a7b0e7bf360668da0617b,001,2022-04-28_20h59.59.488,classification_task,2021.2.3,MacIntel,59.93407252,614a7b0e7bf360668da0617b,626b377229c10585ec392f89,626b3b7ec53fd646788231b4,,,,,,,,,,,,,,,,,,,,,,,,,,,,,,,,,,,,,,,0, ,,0,3.137748033,457.7608,0,0,0,0,1,2,1,,,,,,,,,,,,,,,,,
,614a7b0e7bf360668da0617b,001,2022-04-28_20h59.59.488,classification_task,2021.2.3,MacIntel,59.93407252,614a7b0e7bf360668da0617b,626b377229c10585ec392f89,626b3b7ec53fd646788231b4,,,,,,,,,,,,,,,,,,,,,,,,,,,,,,,,,,,,,,,1,  ,,0,6.694177915,475.9784,0,0,0,0,1,2,1,,,,,,,,,,,,,,,,,
,614a7b0e7bf360668da0617b,001,2022-04-28_20h59.59.488,classification_task,2021.2.3,MacIntel,59.93407252,614a7b0e7bf360668da0617b,626b377229c10585ec392f89,626b3b7ec53fd646788231b4,,,,,,,,,,,,,,,,,,,,,,,,,,,,,,,,,,,,,,,2,  ,,0,1.776838781,480.1465,0,0,0,0,1,2,1,,,,,,,,,,,,,,,,,
,614a7b0e7bf360668da0617b,001,2022-04-28_20h59.59.488,classification_task,2021.2.3,MacIntel,59.93407252,614a7b0e7bf360668da0617b,626b377229c10585ec392f89,626b3b7ec53fd646788231b4,,,,,,,,,,,,,,,,,,,,,,,,,,,,,,,,,,,,,,,,,,,,,0,0,0,0,1,,1,,,,,,,,,,,,,,,,,
,614a7b0e7bf360668da0617b,001,2022-04-28_20h59.59.488,classification_task,2021.2.3,MacIntel,59.93407252,614a7b0e7bf360668da0617b,626b377229c10585ec392f89,626b3b7ec53fd646788231b4,,,,,,,,,,,,,,,,,,,,,space,9.6764,a,1,7.5964,"[""0.326"",""0.652"",""0.873"",""0.913""]","[1,0,1,1]",0,0,0,0,1,0,1,,,0,FALSE,,,,,,,,,,,,,,,,,,,,,,,,,,,,,,
,614a7b0e7bf360668da0617b,001,2022-04-28_20h59.59.488,classification_task,2021.2.3,MacIntel,59.93407252,614a7b0e7bf360668da0617b,626b377229c10585ec392f89,626b3b7ec53fd646788231b4,,,,,,,,,,,,,,,,,,,,,,,a,0,2.2107,"[""0.709"",""0.397"",""0.453"",""0.838""]","[0,1,1,1]",0,1,1,1,1,1,1,,,0,FALSE,,,,,,,,,,,,,,,,,,,,,,,,,,,,,,
,614a7b0e7bf360668da0617b,001,2022-04-28_20h59.59.488,classification_task,2021.2.3,MacIntel,59.93407252,614a7b0e7bf360668da0617b,626b377229c10585ec392f89,626b3b7ec53fd646788231b4,,,,,,,,,,,,,,,,,,,,,,,l,1,3.4213,"[""0.131"",""0.397"",""0.173"",""0.838""]","[1,1,0,1]",0,2,2,2,1,1,1,,,0,FALSE,,,,,,,,,,,,,,,,,,,,,,,,,,,,,,
,614a7b0e7bf360668da0617b,001,2022-04-28_20h59.59.488,classification_task,2021.2.3,MacIntel,59.93407252,614a7b0e7bf360668da0617b,626b377229c10585ec392f89,626b3b7ec53fd646788231b4,,,,,,,,,,,,,,,,,,,,,,,l,1,1.9107,"[""0.131"",""0.715"",""0.453"",""0.838""]","[1,0,1,1]",0,3,3,3,1,1,1,,,0,FALSE,,,,,,,,,,,,,,,,,,,,,,,,,,,,,,
,614a7b0e7bf360668da0617b,001,2022-04-28_20h59.59.488,classification_task,2021.2.3,MacIntel,59.93407252,614a7b0e7bf360668da0617b,626b377229c10585ec392f89,626b3b7ec53fd646788231b4,,,,,,,,,,,,,,,,,,,,,,,a,0,0.7847,"[""0.131"",""0.397"",""0.453"",""0.620""]","[1,1,1,0]",0,4,4,4,1,1,1,,,0,FALSE,,,,,,,,,,,,,,,,,,,,,,,,,,,,,,
,614a7b0e7bf360668da0617b,001,2022-04-28_20h59.59.488,classification_task,2021.2.3,MacIntel,59.93407252,614a7b0e7bf360668da0617b,626b377229c10585ec392f89,626b3b7ec53fd646788231b4,,,,,,,,,,,,,,,,,,,,,,,a,1,6.7749,"[""0.174"",""0.493"",""0.794"",""0.954""]","[0,1,1,1]",0,5,5,5,1,0,0,,,0,FALSE,,,,,,,,,,,,,,,,,,,,,,,,,,,,,,
,614a7b0e7bf360668da0617b,001,2022-04-28_20h59.59.488,classification_task,2021.2.3,MacIntel,59.93407252,614a7b0e7bf360668da0617b,626b377229c10585ec392f89,626b3b7ec53fd646788231b4,,,,,,,,,,,,,,,,,,,,,,,l,1,3.0787,"[""0.072"",""0.657"",""0.558"",""0.750""]","[1,0,1,1]",0,6,6,6,1,1,0,,,0,FALSE,,,,,,,,,,,,,,,,,,,,,,,,,,,,,,
,614a7b0e7bf360668da0617b,001,2022-04-28_20h59.59.488,classification_task,2021.2.3,MacIntel,59.93407252,614a7b0e7bf360668da0617b,626b377229c10585ec392f89,626b3b7ec53fd646788231b4,,,,,,,,,,,,,,,,,,,,,,,a,1,2.3093,"[""0.610"",""0.360"",""0.873"",""0.913""]","[0,1,1,1]",0,7,7,7,1,0,1,,,0,FALSE,,,,,,,,,,,,,,,,,,,,,,,,,,,,,,
,614a7b0e7bf360668da0617b,001,2022-04-28_20h59.59.488,classification_task,2021.2.3,MacIntel,59.93407252,614a7b0e7bf360668da0617b,626b377229c10585ec392f89,626b3b7ec53fd646788231b4,,,,,,,,,,,,,,,,,,,,,,,l,1,1.8409,"[""0.715"",""0.279"",""0.558"",""0.750""]","[0,1,1,1]",0,8,8,8,1,1,0,,,0,FALSE,,,,,,,,,,,,,,,,,,,,,,,,,,,,,,
,614a7b0e7bf360668da0617b,001,2022-04-28_20h59.59.488,classification_task,2021.2.3,MacIntel,59.93407252,614a7b0e7bf360668da0617b,626b377229c10585ec392f89,626b3b7ec53fd646788231b4,,,,,,,,,,,,,,,,,,,,,,,a,1,0.9567,"[""0.220"",""0.493"",""0.173"",""0.954""]","[1,1,0,1]",0,9,9,9,1,0,0,,,0,FALSE,,,,,,,,,,,,,,,,,,,,,,,,,,,,,,
,614a7b0e7bf360668da0617b,001,2022-04-28_20h59.59.488,classification_task,2021.2.3,MacIntel,59.93407252,614a7b0e7bf360668da0617b,626b377229c10585ec392f89,626b3b7ec53fd646788231b4,,,,,,,,,,,,,,,,,,,,,,,a,1,1.1331,"[""0.326"",""0.360"",""0.873"",""0.620""]","[1,1,1,0]",0,10,10,10,1,0,1,,,0,FALSE,,,,,,,,,,,,,,,,,,,,,,,,,,,,,,
,614a7b0e7bf360668da0617b,001,2022-04-28_20h59.59.488,classification_task,2021.2.3,MacIntel,59.93407252,614a7b0e7bf360668da0617b,626b377229c10585ec392f89,626b3b7ec53fd646788231b4,,,,,,,,,,,,,,,,,,,,,,,a,1,0.9191,"[""0.326"",""0.360"",""0.715"",""0.913""]","[1,1,0,1]",0,11,11,11,1,0,1,,,0,FALSE,,,,,,,,,,,,,,,,,,,,,,,,,,,,,,
,614a7b0e7bf360668da0617b,001,2022-04-28_20h59.59.488,classification_task,2021.2.3,MacIntel,59.93407252,614a7b0e7bf360668da0617b,626b377229c10585ec392f89,626b3b7ec53fd646788231b4,,,,,,,,,,,,,,,,,,,,,,,l,1,1.0999,"[""0.072"",""0.279"",""0.558"",""0.610""]","[1,1,1,0]",0,12,12,12,1,1,0,,,0,FALSE,,,,,,,,,,,,,,,,,,,,,,,,,,,,,,
,614a7b0e7bf360668da0617b,001,2022-04-28_20h59.59.488,classification_task,2021.2.3,MacIntel,59.93407252,614a7b0e7bf360668da0617b,626b377229c10585ec392f89,626b3b7ec53fd646788231b4,,,,,,,,,,,,,,,,,,,,,,,l,1,2.1695,"[""0.072"",""0.279"",""0.697"",""0.750""]","[1,1,0,1]",0,13,13,13,1,1,0,,,0,FALSE,,,,,,,,,,,,,,,,,,,,,,,,,,,,,,
,614a7b0e7bf360668da0617b,001,2022-04-28_20h59.59.488,classification_task,2021.2.3,MacIntel,59.93407252,614a7b0e7bf360668da0617b,626b377229c10585ec392f89,626b3b7ec53fd646788231b4,,,,,,,,,,,,,,,,,,,,,,,a,1,1.0161,"[""0.220"",""0.493"",""0.794"",""0.657""]","[1,1,1,0]",0,14,14,14,1,0,0,,,0,FALSE,,,,,,,,,,,,,,,,,,,,,,,,,,,,,,
,614a7b0e7bf360668da0617b,001,2022-04-28_20h59.59.488,classification_task,2021.2.3,MacIntel,59.93407252,614a7b0e7bf360668da0617b,626b377229c10585ec392f89,626b3b7ec53fd646788231b4,,,,,,,,,,,,,,,,,,,,,,,a,1,2.5871,"[""0.220"",""0.697"",""0.794"",""0.954""]","[1,0,1,1]",0,15,15,15,1,0,0,,,0,FALSE,,,,,,,,,,,,,,,,,,,,,,,,,,,,,,
,614a7b0e7bf360668da0617b,001,2022-04-28_20h59.59.488,classification_task,2021.2.3,MacIntel,59.93407252,614a7b0e7bf360668da0617b,626b377229c10585ec392f89,626b3b7ec53fd646788231b4,,,,,,,,,,,,,,,,,,,,,,,l,1,1.1179,"[""0.131"",""0.715"",""0.453"",""0.838""]","[1,0,1,1]",0,16,16,16,1,1,1,,,0,FALSE,,,,,,,,,,,,,,,,,,,,,,,,,,,,,,
,614a7b0e7bf360668da0617b,001,2022-04-28_20h59.59.488,classification_task,2021.2.3,MacIntel,59.93407252,614a7b0e7bf360668da0617b,626b377229c10585ec392f89,626b3b7ec53fd646788231b4,,,,,,,,,,,,,,,,,,,,,,,a,0,1.3856,"[""0.131"",""0.397"",""0.453"",""0.029""]","[1,1,1,0]",0,17,17,17,1,1,1,,,0,FALSE,,,,,,,,,,,,,,,,,,,,,,,,,,,,,,
,614a7b0e7bf360668da0617b,001,2022-04-28_20h59.59.488,classification_task,2021.2.3,MacIntel,59.93407252,614a7b0e7bf360668da0617b,626b377229c10585ec392f89,626b3b7ec53fd646788231b4,,,,,,,,,,,,,,,,,,,,,,,l,1,1.1833,"[""0.072"",""0.173"",""0.558"",""0.750""]","[1,0,1,1]",0,18,18,18,1,1,0,,,0,FALSE,,,,,,,,,,,,,,,,,,,,,,,,,,,,,,
,614a7b0e7bf360668da0617b,001,2022-04-28_20h59.59.488,classification_task,2021.2.3,MacIntel,59.93407252,614a7b0e7bf360668da0617b,626b377229c10585ec392f89,626b3b7ec53fd646788231b4,,,,,,,,,,,,,,,,,,,,,,,l,1,2.6511,"[""0.184"",""0.397"",""0.453"",""0.838""]","[0,1,1,1]",0,19,19,19,1,1,1,,,0,FALSE,,,,,,,,,,,,,,,,,,,,,,,,,,,,,,
,614a7b0e7bf360668da0617b,001,2022-04-28_20h59.59.488,classification_task,2021.2.3,MacIntel,59.93407252,614a7b0e7bf360668da0617b,626b377229c10585ec392f89,626b3b7ec53fd646788231b4,,,,,,,,,,,,,,,,,,,,,,,a,1,1.0606,"[""0.184"",""0.360"",""0.873"",""0.913""]","[0,1,1,1]",0,20,20,20,1,0,1,,,0,FALSE,,,,,,,,,,,,,,,,,,,,,,,,,,,,,,
,614a7b0e7bf360668da0617b,001,2022-04-28_20h59.59.488,classification_task,2021.2.3,MacIntel,59.93407252,614a7b0e7bf360668da0617b,626b377229c10585ec392f89,626b3b7ec53fd646788231b4,,,,,,,,,,,,,,,,,,,,,,,l,1,2.5683,"[""0.072"",""0.279"",""0.616"",""0.750""]","[1,1,0,1]",0,21,21,21,1,1,0,,,0,FALSE,,,,,,,,,,,,,,,,,,,,,,,,,,,,,,
,614a7b0e7bf360668da0617b,001,2022-04-28_20h59.59.488,classification_task,2021.2.3,MacIntel,59.93407252,614a7b0e7bf360668da0617b,626b377229c10585ec392f89,626b3b7ec53fd646788231b4,,,,,,,,,,,,,,,,,,,,,,,a,1,1.0938,"[""0.220"",""0.616"",""0.794"",""0.954""]","[1,0,1,1]",0,22,22,22,1,0,0,,,0,FALSE,,,,,,,,,,,,,,,,,,,,,,,,,,,,,,
,614a7b0e7bf360668da0617b,001,2022-04-28_20h59.59.488,classification_task,2021.2.3,MacIntel,59.93407252,614a7b0e7bf360668da0617b,626b377229c10585ec392f89,626b3b7ec53fd646788231b4,,,,,,,,,,,,,,,,,,,,,,,a,0,2.2676,"[""0.131"",""0.397"",""0.173"",""0.838""]","[1,1,0,1]",0,23,23,23,1,1,1,,,0,FALSE,,,,,,,,,,,,,,,,,,,,,,,,,,,,,,
,614a7b0e7bf360668da0617b,001,2022-04-28_20h59.59.488,classification_task,2021.2.3,MacIntel,59.93407252,614a7b0e7bf360668da0617b,626b377229c10585ec392f89,626b3b7ec53fd646788231b4,,,,,,,,,,,,,,,,,,,,,,,l,0,1.5169,"[""0.715"",""0.493"",""0.794"",""0.954""]","[0,1,1,1]",0,24,24,24,1,0,0,,,0,FALSE,,,,,,,,,,,,,,,,,,,,,,,,,,,,,,
,614a7b0e7bf360668da0617b,001,2022-04-28_20h59.59.488,classification_task,2021.2.3,MacIntel,59.93407252,614a7b0e7bf360668da0617b,626b377229c10585ec392f89,626b3b7ec53fd646788231b4,,,,,,,,,,,,,,,,,,,,,,,a,1,1.202,"[""0.326"",""0.657"",""0.873"",""0.913""]","[1,0,1,1]",0,25,25,25,1,0,1,,,0,FALSE,,,,,,,,,,,,,,,,,,,,,,,,,,,,,,
,614a7b0e7bf360668da0617b,001,2022-04-28_20h59.59.488,classification_task,2021.2.3,MacIntel,59.93407252,614a7b0e7bf360668da0617b,626b377229c10585ec392f89,626b3b7ec53fd646788231b4,,,,,,,,,,,,,,,,,,,,,,,l,0,0.851,"[""0.220"",""0.493"",""0.652"",""0.954""]","[1,1,0,1]",0,26,26,26,1,0,0,,,0,FALSE,,,,,,,,,,,,,,,,,,,,,,,,,,,,,,
,614a7b0e7bf360668da0617b,001,2022-04-28_20h59.59.488,classification_task,2021.2.3,MacIntel,59.93407252,614a7b0e7bf360668da0617b,626b377229c10585ec392f89,626b3b7ec53fd646788231b4,,,,,,,,,,,,,,,,,,,,,,,l,0,1.2832,"[""0.326"",""0.360"",""0.873"",""0.646""]","[1,1,1,0]",0,27,27,27,1,0,1,,,0,FALSE,,,,,,,,,,,,,,,,,,,,,,,,,,,,,,
,614a7b0e7bf360668da0617b,001,2022-04-28_20h59.59.488,classification_task,2021.2.3,MacIntel,59.93407252,614a7b0e7bf360668da0617b,626b377229c10585ec392f89,626b3b7ec53fd646788231b4,,,,,,,,,,,,,,,,,,,,,,,l,1,0.9828,"[""0.072"",""0.279"",""0.558"",""0.714""]","[1,1,1,0]",0,28,28,28,1,1,0,,,0,FALSE,,,,,,,,,,,,,,,,,,,,,,,,,,,,,,
,614a7b0e7bf360668da0617b,001,2022-04-28_20h59.59.488,classification_task,2021.2.3,MacIntel,59.93407252,614a7b0e7bf360668da0617b,626b377229c10585ec392f89,626b3b7ec53fd646788231b4,,,,,,,,,,,,,,,,,,,,,,,l,0,2.3175,"[""0.326"",""0.360"",""0.184"",""0.913""]","[1,1,0,1]",0,29,29,29,1,0,1,,,0,FALSE,,,,,,,,,,,,,,,,,,,,,,,,,,,,,,
,614a7b0e7bf360668da0617b,001,2022-04-28_20h59.59.488,classification_task,2021.2.3,MacIntel,59.93407252,614a7b0e7bf360668da0617b,626b377229c10585ec392f89,626b3b7ec53fd646788231b4,,,,,,,,,,,,,,,,,,,,,,,l,1,0.7829,"[""0.714"",""0.279"",""0.558"",""0.750""]","[0,1,1,1]",0,30,30,30,1,1,0,,,0,FALSE,,,,,,,,,,,,,,,,,,,,,,,,,,,,,,
,614a7b0e7bf360668da0617b,001,2022-04-28_20h59.59.488,classification_task,2021.2.3,MacIntel,59.93407252,614a7b0e7bf360668da0617b,626b377229c10585ec392f89,626b3b7ec53fd646788231b4,,,,,,,,,,,,,,,,,,,,,,,a,1,0.7018,"[""0.220"",""0.493"",""0.794"",""0.610""]","[1,1,1,0]",0,31,31,31,1,0,0,,,0,FALSE,,,,,,,,,,,,,,,,,,,,,,,,,,,,,,
,614a7b0e7bf360668da0617b,001,2022-04-28_20h59.59.488,classification_task,2021.2.3,MacIntel,59.93407252,614a7b0e7bf360668da0617b,626b377229c10585ec392f89,626b3b7ec53fd646788231b4,,,,,,,,,,,,,,,,,,,,,,,l,1,1.0019,"[""0.714"",""0.279"",""0.558"",""0.750""]","[0,1,1,1]",0,32,32,32,1,1,0,,,0,FALSE,,,,,,,,,,,,,,,,,,,,,,,,,,,,,,
,614a7b0e7bf360668da0617b,001,2022-04-28_20h59.59.488,classification_task,2021.2.3,MacIntel,59.93407252,614a7b0e7bf360668da0617b,626b377229c10585ec392f89,626b3b7ec53fd646788231b4,,,,,,,,,,,,,,,,,,,,,,,l,1,0.785,"[""0.072"",""0.279"",""0.610"",""0.750""]","[1,1,0,1]",0,33,33,33,1,1,0,,,0,FALSE,,,,,,,,,,,,,,,,,,,,,,,,,,,,,,
,614a7b0e7bf360668da0617b,001,2022-04-28_20h59.59.488,classification_task,2021.2.3,MacIntel,59.93407252,614a7b0e7bf360668da0617b,626b377229c10585ec392f89,626b3b7ec53fd646788231b4,,,,,,,,,,,,,,,,,,,,,,,l,1,0.9353,"[""0.072"",""0.184"",""0.558"",""0.750""]","[1,0,1,1]",0,34,34,34,1,1,0,,,0,FALSE,,,,,,,,,,,,,,,,,,,,,,,,,,,,,,
,614a7b0e7bf360668da0617b,001,2022-04-28_20h59.59.488,classification_task,2021.2.3,MacIntel,59.93407252,614a7b0e7bf360668da0617b,626b377229c10585ec392f89,626b3b7ec53fd646788231b4,,,,,,,,,,,,,,,,,,,,,,,a,0,2.5013,"[""0.131"",""0.397"",""0.697"",""0.838""]","[1,1,0,1]",0,35,35,35,1,1,1,,,0,FALSE,,,,,,,,,,,,,,,,,,,,,,,,,,,,,,
,614a7b0e7bf360668da0617b,001,2022-04-28_20h59.59.488,classification_task,2021.2.3,MacIntel,59.93407252,614a7b0e7bf360668da0617b,626b377229c10585ec392f89,626b3b7ec53fd646788231b4,,,,,,,,,,,,,,,,,,,,,,,a,1,0.9767,"[""0.326"",""0.697"",""0.873"",""0.913""]","[1,0,1,1]",0,36,36,36,1,0,1,,,0,FALSE,,,,,,,,,,,,,,,,,,,,,,,,,,,,,,
,614a7b0e7bf360668da0617b,001,2022-04-28_20h59.59.488,classification_task,2021.2.3,MacIntel,59.93407252,614a7b0e7bf360668da0617b,626b377229c10585ec392f89,626b3b7ec53fd646788231b4,,,,,,,,,,,,,,,,,,,,,,,a,1,1.1335,"[""0.220"",""0.616"",""0.794"",""0.954""]","[1,0,1,1]",0,37,37,37,1,0,0,,,0,FALSE,,,,,,,,,,,,,,,,,,,,,,,,,,,,,,
,614a7b0e7bf360668da0617b,001,2022-04-28_20h59.59.488,classification_task,2021.2.3,MacIntel,59.93407252,614a7b0e7bf360668da0617b,626b377229c10585ec392f89,626b3b7ec53fd646788231b4,,,,,,,,,,,,,,,,,,,,,,,l,1,0.9852,"[""0.072"",""0.279"",""0.558"",""0.714""]","[1,1,1,0]",0,38,38,38,1,1,0,,,0,FALSE,,,,,,,,,,,,,,,,,,,,,,,,,,,,,,
,614a7b0e7bf360668da0617b,001,2022-04-28_20h59.59.488,classification_task,2021.2.3,MacIntel,59.93407252,614a7b0e7bf360668da0617b,626b377229c10585ec392f89,626b3b7ec53fd646788231b4,,,,,,,,,,,,,,,,,,,,,,,a,1,2.2729,"[""0.029"",""0.360"",""0.873"",""0.913""]","[0,1,1,1]",0,39,39,39,1,0,1,,,0,FALSE,,,,,,,,,,,,,,,,,,,,,,,,,,,,,,
,614a7b0e7bf360668da0617b,001,2022-04-28_20h59.59.488,classification_task,2021.2.3,MacIntel,59.93407252,614a7b0e7bf360668da0617b,626b377229c10585ec392f89,626b3b7ec53fd646788231b4,,,,,,,,,,,,,,,,,,,,,,,l,1,1.5609,"[""0.131"",""0.652"",""0.453"",""0.838""]","[1,0,1,1]",0,40,40,40,1,1,1,,,0,FALSE,,,,,,,,,,,,,,,,,,,,,,,,,,,,,,
,614a7b0e7bf360668da0617b,001,2022-04-28_20h59.59.488,classification_task,2021.2.3,MacIntel,59.93407252,614a7b0e7bf360668da0617b,626b377229c10585ec392f89,626b3b7ec53fd646788231b4,,,,,,,,,,,,,,,,,,,,,,,a,1,2.1849,"[""0.616"",""0.493"",""0.794"",""0.954""]","[0,1,1,1]",0,41,41,41,1,0,0,,,0,FALSE,,,,,,,,,,,,,,,,,,,,,,,,,,,,,,
,614a7b0e7bf360668da0617b,001,2022-04-28_20h59.59.488,classification_task,2021.2.3,MacIntel,59.93407252,614a7b0e7bf360668da0617b,626b377229c10585ec392f89,626b3b7ec53fd646788231b4,,,,,,,,,,,,,,,,,,,,,,,a,1,1.319,"[""0.220"",""0.493"",""0.794"",""0.652""]","[1,1,1,0]",0,42,42,42,1,0,0,,,0,FALSE,,,,,,,,,,,,,,,,,,,,,,,,,,,,,,
,614a7b0e7bf360668da0617b,001,2022-04-28_20h59.59.488,classification_task,2021.2.3,MacIntel,59.93407252,614a7b0e7bf360668da0617b,626b377229c10585ec392f89,626b3b7ec53fd646788231b4,,,,,,,,,,,,,,,,,,,,,,,l,1,3.39,"[""0.131"",""0.397"",""0.453"",""0.184""]","[1,1,1,0]",0,43,43,43,1,1,1,,,0,FALSE,,,,,,,,,,,,,,,,,,,,,,,,,,,,,,
,614a7b0e7bf360668da0617b,001,2022-04-28_20h59.59.488,classification_task,2021.2.3,MacIntel,59.93407252,614a7b0e7bf360668da0617b,626b377229c10585ec392f89,626b3b7ec53fd646788231b4,,,,,,,,,,,,,,,,,,,,,,,a,0,2.6003,"[""0.610"",""0.397"",""0.453"",""0.838""]","[0,1,1,1]",0,44,44,44,1,1,1,,,0,FALSE,,,,,,,,,,,,,,,,,,,,,,,,,,,,,,
,614a7b0e7bf360668da0617b,001,2022-04-28_20h59.59.488,classification_task,2021.2.3,MacIntel,59.93407252,614a7b0e7bf360668da0617b,626b377229c10585ec392f89,626b3b7ec53fd646788231b4,,,,,,,,,,,,,,,,,,,,,,,a,1,1.7126,"[""0.326"",""0.360"",""0.173"",""0.913""]","[1,1,0,1]",0,45,45,45,1,0,1,,,0,FALSE,,,,,,,,,,,,,,,,,,,,,,,,,,,,,,
,614a7b0e7bf360668da0617b,001,2022-04-28_20h59.59.488,classification_task,2021.2.3,MacIntel,59.93407252,614a7b0e7bf360668da0617b,626b377229c10585ec392f89,626b3b7ec53fd646788231b4,,,,,,,,,,,,,,,,,,,,,,,a,1,4.7543,"[""0.220"",""0.493"",""0.620"",""0.954""]","[1,1,0,1]",0,46,46,46,1,0,0,,,0,FALSE,,,,,,,,,,,,,,,,,,,,,,,,,,,,,,
,614a7b0e7bf360668da0617b,001,2022-04-28_20h59.59.488,classification_task,2021.2.3,MacIntel,59.93407252,614a7b0e7bf360668da0617b,626b377229c10585ec392f89,626b3b7ec53fd646788231b4,,,,,,,,,,,,,,,,,,,,,,,a,1,1.6692,"[""0.326"",""0.360"",""0.873"",""0.029""]","[1,1,1,0]",0,47,47,47,1,0,1,,,0,FALSE,,,,,,,,,,,,,,,,,,,,,,,,,,,,,,
,614a7b0e7bf360668da0617b,001,2022-04-28_20h59.59.488,classification_task,2021.2.3,MacIntel,59.93407252,614a7b0e7bf360668da0617b,626b377229c10585ec392f89,626b3b7ec53fd646788231b4,,,,,,,,,,,,,,,,,,,,,,,a,1,1.6918,"[""0.326"",""0.620"",""0.873"",""0.913""]","[1,0,1,1]",0,48,48,48,1,0,1,,,0,FALSE,,,,,,,,,,,,,,,,,,,,,,,,,,,,,,
,614a7b0e7bf360668da0617b,001,2022-04-28_20h59.59.488,classification_task,2021.2.3,MacIntel,59.93407252,614a7b0e7bf360668da0617b,626b377229c10585ec392f89,626b3b7ec53fd646788231b4,,,,,,,,,,,,,,,,,,,,,,,a,1,0.7147,"[""0.657"",""0.360"",""0.873"",""0.913""]","[0,1,1,1]",0,49,49,49,1,0,1,,,0,FALSE,,,,,,,,,,,,,,,,,,,,,,,,,,,,,,
,614a7b0e7bf360668da0617b,001,2022-04-28_20h59.59.488,classification_task,2021.2.3,MacIntel,59.93407252,614a7b0e7bf360668da0617b,626b377229c10585ec392f89,626b3b7ec53fd646788231b4,,,,,,,,,,,,,,,,,,,,,,,l,1,1.9693,"[""0.131"",""0.397"",""0.610"",""0.838""]","[1,1,0,1]",0,50,50,50,1,1,1,,,0,FALSE,,,,,,,,,,,,,,,,,,,,,,,,,,,,,,
,614a7b0e7bf360668da0617b,001,2022-04-28_20h59.59.488,classification_task,2021.2.3,MacIntel,59.93407252,614a7b0e7bf360668da0617b,626b377229c10585ec392f89,626b3b7ec53fd646788231b4,,,,,,,,,,,,,,,,,,,,,,,a,0,1.2258,"[""0.131"",""0.397"",""0.453"",""0.652""]","[1,1,1,0]",0,51,51,51,1,1,1,,,0,FALSE,,,,,,,,,,,,,,,,,,,,,,,,,,,,,,
,614a7b0e7bf360668da0617b,001,2022-04-28_20h59.59.488,classification_task,2021.2.3,MacIntel,59.93407252,614a7b0e7bf360668da0617b,626b377229c10585ec392f89,626b3b7ec53fd646788231b4,,,,,,,,,,,,,,,,,,,,,,,l,1,2.1738,"[""0.714"",""0.397"",""0.453"",""0.838""]","[0,1,1,1]",0,52,52,52,1,1,1,,,0,FALSE,,,,,,,,,,,,,,,,,,,,,,,,,,,,,,
,614a7b0e7bf360668da0617b,001,2022-04-28_20h59.59.488,classification_task,2021.2.3,MacIntel,59.93407252,614a7b0e7bf360668da0617b,626b377229c10585ec392f89,626b3b7ec53fd646788231b4,,,,,,,,,,,,,,,,,,,,,,,l,1,1.0685,"[""0.697"",""0.279"",""0.558"",""0.750""]","[0,1,1,1]",0,53,53,53,1,1,0,,,0,FALSE,,,,,,,,,,,,,,,,,,,,,,,,,,,,,,
,614a7b0e7bf360668da0617b,001,2022-04-28_20h59.59.488,classification_task,2021.2.3,MacIntel,59.93407252,614a7b0e7bf360668da0617b,626b377229c10585ec392f89,626b3b7ec53fd646788231b4,,,,,,,,,,,,,,,,,,,,,,,a,1,1.5357,"[""0.616"",""0.493"",""0.794"",""0.954""]","[0,1,1,1]",0,54,54,54,1,0,0,,,0,FALSE,,,,,,,,,,,,,,,,,,,,,,,,,,,,,,
,614a7b0e7bf360668da0617b,001,2022-04-28_20h59.59.488,classification_task,2021.2.3,MacIntel,59.93407252,614a7b0e7bf360668da0617b,626b377229c10585ec392f89,626b3b7ec53fd646788231b4,,,,,,,,,,,,,,,,,,,,,,,a,1,3.1404,"[""0.326"",""0.360"",""0.873"",""0.173""]","[1,1,1,0]",0,55,55,55,1,0,1,,,0,FALSE,,,,,,,,,,,,,,,,,,,,,,,,,,,,,,
,614a7b0e7bf360668da0617b,001,2022-04-28_20h59.59.488,classification_task,2021.2.3,MacIntel,59.93407252,614a7b0e7bf360668da0617b,626b377229c10585ec392f89,626b3b7ec53fd646788231b4,,,,,,,,,,,,,,,,,,,,,,,l,1,1.9036,"[""0.072"",""0.279"",""0.646"",""0.750""]","[1,1,0,1]",0,56,56,56,1,1,0,,,0,FALSE,,,,,,,,,,,,,,,,,,,,,,,,,,,,,,
,614a7b0e7bf360668da0617b,001,2022-04-28_20h59.59.488,classification_task,2021.2.3,MacIntel,59.93407252,614a7b0e7bf360668da0617b,626b377229c10585ec392f89,626b3b7ec53fd646788231b4,,,,,,,,,,,,,,,,,,,,,,,a,1,3.4744,"[""0.220"",""0.493"",""0.794"",""0.715""]","[1,1,1,0]",0,57,57,57,1,0,0,,,0,FALSE,,,,,,,,,,,,,,,,,,,,,,,,,,,,,,
,614a7b0e7bf360668da0617b,001,2022-04-28_20h59.59.488,classification_task,2021.2.3,MacIntel,59.93407252,614a7b0e7bf360668da0617b,626b377229c10585ec392f89,626b3b7ec53fd646788231b4,,,,,,,,,,,,,,,,,,,,,,,l,0,3.7384,"[""0.326"",""0.360"",""0.029"",""0.913""]","[1,1,0,1]",0,58,58,58,1,0,1,,,0,FALSE,,,,,,,,,,,,,,,,,,,,,,,,,,,,,,
,614a7b0e7bf360668da0617b,001,2022-04-28_20h59.59.488,classification_task,2021.2.3,MacIntel,59.93407252,614a7b0e7bf360668da0617b,626b377229c10585ec392f89,626b3b7ec53fd646788231b4,,,,,,,,,,,,,,,,,,,,,,,a,1,2.6703,"[""0.220"",""0.493"",""0.029"",""0.954""]","[1,1,0,1]",0,59,59,59,1,0,0,,,0,FALSE,,,,,,,,,,,,,,,,,,,,,,,,,,,,,,
,614a7b0e7bf360668da0617b,001,2022-04-28_20h59.59.488,classification_task,2021.2.3,MacIntel,59.93407252,614a7b0e7bf360668da0617b,626b377229c10585ec392f89,626b3b7ec53fd646788231b4,,,,,,,,,,,,,,,,,,,,,,,l,1,1.3798,"[""0.072"",""0.279"",""0.558"",""0.173""]","[1,1,1,0]",0,60,60,60,1,1,0,,,0,FALSE,,,,,,,,,,,,,,,,,,,,,,,,,,,,,,
,614a7b0e7bf360668da0617b,001,2022-04-28_20h59.59.488,classification_task,2021.2.3,MacIntel,59.93407252,614a7b0e7bf360668da0617b,626b377229c10585ec392f89,626b3b7ec53fd646788231b4,,,,,,,,,,,,,,,,,,,,,,,a,1,2.153,"[""0.220"",""0.620"",""0.794"",""0.954""]","[1,0,1,1]",0,61,61,61,1,0,0,,,0,FALSE,,,,,,,,,,,,,,,,,,,,,,,,,,,,,,
,614a7b0e7bf360668da0617b,001,2022-04-28_20h59.59.488,classification_task,2021.2.3,MacIntel,59.93407252,614a7b0e7bf360668da0617b,626b377229c10585ec392f89,626b3b7ec53fd646788231b4,,,,,,,,,,,,,,,,,,,,,,,a,0,1.2687,"[""0.131"",""0.616"",""0.453"",""0.838""]","[1,0,1,1]",0,62,62,62,1,1,1,,,0,FALSE,,,,,,,,,,,,,,,,,,,,,,,,,,,,,,
,614a7b0e7bf360668da0617b,001,2022-04-28_20h59.59.488,classification_task,2021.2.3,MacIntel,59.93407252,614a7b0e7bf360668da0617b,626b377229c10585ec392f89,626b3b7ec53fd646788231b4,,,,,,,,,,,,,,,,,,,,,,,l,1,1.7172,"[""0.072"",""0.714"",""0.558"",""0.750""]","[1,0,1,1]",0,63,63,63,1,1,0,,,0,FALSE,,,,,,,,,,,,,,,,,,,,,,,,,,,,,,
,614a7b0e7bf360668da0617b,001,2022-04-28_20h59.59.488,classification_task,2021.2.3,MacIntel,59.93407252,614a7b0e7bf360668da0617b,626b377229c10585ec392f89,626b3b7ec53fd646788231b4,,,,,,,,,,,,,,,,,,,,,,,,,,,,,,,,,,,,,,,0, ,,0,2.348141255,206.2892,0,1,1,1,1,2,2,,,,,,,,,,,,,,,,,
,614a7b0e7bf360668da0617b,001,2022-04-28_20h59.59.488,classification_task,2021.2.3,MacIntel,59.93407252,614a7b0e7bf360668da0617b,626b377229c10585ec392f89,626b3b7ec53fd646788231b4,,,,,,,,,,,,,,,,,,,,,,,,,,,,,,,,,,,,,,,1,  ,,0,6.473420752,211.0671,0,1,1,1,1,2,2,,,,,,,,,,,,,,,,,
,614a7b0e7bf360668da0617b,001,2022-04-28_20h59.59.488,classification_task,2021.2.3,MacIntel,59.93407252,614a7b0e7bf360668da0617b,626b377229c10585ec392f89,626b3b7ec53fd646788231b4,,,,,,,,,,,,,,,,,,,,,,,,,,,,,,,,,,,,,,,2,  ,,0,1.074361762,216.8339,0,1,1,1,1,2,2,,,,,,,,,,,,,,,,,
,614a7b0e7bf360668da0617b,001,2022-04-28_20h59.59.488,classification_task,2021.2.3,MacIntel,59.93407252,614a7b0e7bf360668da0617b,626b377229c10585ec392f89,626b3b7ec53fd646788231b4,,,,,,,,,,,,,,,,,,,,,,,,,,,,,,,,,,,,,,,,,,,,,0,1,1,1,1,,2,,,,,,,,,,,,,,,,,
,614a7b0e7bf360668da0617b,001,2022-04-28_20h59.59.488,classification_task,2021.2.3,MacIntel,59.93407252,614a7b0e7bf360668da0617b,626b377229c10585ec392f89,626b3b7ec53fd646788231b4,,,,,,,,,,,,,,,,,,,,,space,11.3436,l,0,3.2042,"[""0.220"",""0.493"",""0.652"",""0.954""]","[1,1,0,1]",0,0,0,0,1,0,0,,,0,FALSE,,,,,,,,,,,,,,,,,,,,,,,,,,,,,,
,614a7b0e7bf360668da0617b,001,2022-04-28_20h59.59.488,classification_task,2021.2.3,MacIntel,59.93407252,614a7b0e7bf360668da0617b,626b377229c10585ec392f89,626b3b7ec53fd646788231b4,,,,,,,,,,,,,,,,,,,,,,,l,0,4.2202,"[""0.602"",""0.493"",""0.794"",""0.954""]","[0,1,1,1]",0,1,1,1,1,0,0,,,0,FALSE,,,,,,,,,,,,,,,,,,,,,,,,,,,,,,
,614a7b0e7bf360668da0617b,001,2022-04-28_20h59.59.488,classification_task,2021.2.3,MacIntel,59.93407252,614a7b0e7bf360668da0617b,626b377229c10585ec392f89,626b3b7ec53fd646788231b4,,,,,,,,,,,,,,,,,,,,,,,a,1,2.2778,"[""0.326"",""0.697"",""0.873"",""0.913""]","[1,0,1,1]",0,2,2,2,1,0,1,,,0,FALSE,,,,,,,,,,,,,,,,,,,,,,,,,,,,,,
,614a7b0e7bf360668da0617b,001,2022-04-28_20h59.59.488,classification_task,2021.2.3,MacIntel,59.93407252,614a7b0e7bf360668da0617b,626b377229c10585ec392f89,626b3b7ec53fd646788231b4,,,,,,,,,,,,,,,,,,,,,,,l,1,2.4959,"[""0.072"",""0.279"",""0.558"",""0.697""]","[1,1,1,0]",0,3,3,3,1,1,0,,,0,FALSE,,,,,,,,,,,,,,,,,,,,,,,,,,,,,,
,614a7b0e7bf360668da0617b,001,2022-04-28_20h59.59.488,classification_task,2021.2.3,MacIntel,59.93407252,614a7b0e7bf360668da0617b,626b377229c10585ec392f89,626b3b7ec53fd646788231b4,,,,,,,,,,,,,,,,,,,,,,,l,0,1.2449,"[""0.220"",""0.029"",""0.794"",""0.954""]","[1,0,1,1]",0,4,4,4,1,0,0,,,0,FALSE,,,,,,,,,,,,,,,,,,,,,,,,,,,,,,
,614a7b0e7bf360668da0617b,001,2022-04-28_20h59.59.488,classification_task,2021.2.3,MacIntel,59.93407252,614a7b0e7bf360668da0617b,626b377229c10585ec392f89,626b3b7ec53fd646788231b4,,,,,,,,,,,,,,,,,,,,,,,a,0,3.7091,"[""0.072"",""0.279"",""0.657"",""0.750""]","[1,1,0,1]",0,5,5,5,1,1,0,,,0,FALSE,,,,,,,,,,,,,,,,,,,,,,,,,,,,,,
,614a7b0e7bf360668da0617b,001,2022-04-28_20h59.59.488,classification_task,2021.2.3,MacIntel,59.93407252,614a7b0e7bf360668da0617b,626b377229c10585ec392f89,626b3b7ec53fd646788231b4,,,,,,,,,,,,,,,,,,,,,,,l,0,1.529,"[""0.220"",""0.493"",""0.794"",""0.610""]","[1,1,1,0]",0,6,6,6,1,0,0,,,0,FALSE,,,,,,,,,,,,,,,,,,,,,,,,,,,,,,
,614a7b0e7bf360668da0617b,001,2022-04-28_20h59.59.488,classification_task,2021.2.3,MacIntel,59.93407252,614a7b0e7bf360668da0617b,626b377229c10585ec392f89,626b3b7ec53fd646788231b4,,,,,,,,,,,,,,,,,,,,,,,a,1,2.4533,"[""0.326"",""0.360"",""0.873"",""0.184""]","[1,1,1,0]",0,7,7,7,1,0,1,,,0,FALSE,,,,,,,,,,,,,,,,,,,,,,,,,,,,,,
,614a7b0e7bf360668da0617b,001,2022-04-28_20h59.59.488,classification_task,2021.2.3,MacIntel,59.93407252,614a7b0e7bf360668da0617b,626b377229c10585ec392f89,626b3b7ec53fd646788231b4,,,,,,,,,,,,,,,,,,,,,,,l,1,2.4448,"[""0.715"",""0.397"",""0.453"",""0.838""]","[0,1,1,1]",0,8,8,8,1,1,1,,,0,FALSE,,,,,,,,,,,,,,,,,,,,,,,,,,,,,,
,614a7b0e7bf360668da0617b,001,2022-04-28_20h59.59.488,classification_task,2021.2.3,MacIntel,59.93407252,614a7b0e7bf360668da0617b,626b377229c10585ec392f89,626b3b7ec53fd646788231b4,,,,,,,,,,,,,,,,,,,,,,,l,1,3.6634,"[""0.646"",""0.279"",""0.558"",""0.750""]","[0,1,1,1]",0,9,9,9,1,1,0,,,0,FALSE,,,,,,,,,,,,,,,,,,,,,,,,,,,,,,
,614a7b0e7bf360668da0617b,001,2022-04-28_20h59.59.488,classification_task,2021.2.3,MacIntel,59.93407252,614a7b0e7bf360668da0617b,626b377229c10585ec392f89,626b3b7ec53fd646788231b4,,,,,,,,,,,,,,,,,,,,,,,a,0,3.0672,"[""0.072"",""0.029"",""0.558"",""0.750""]","[1,0,1,1]",0,10,10,10,1,1,0,,,0,FALSE,,,,,,,,,,,,,,,,,,,,,,,,,,,,,,
,614a7b0e7bf360668da0617b,001,2022-04-28_20h59.59.488,classification_task,2021.2.3,MacIntel,59.93407252,614a7b0e7bf360668da0617b,626b377229c10585ec392f89,626b3b7ec53fd646788231b4,,,,,,,,,,,,,,,,,,,,,,,l,1,4.8155,"[""0.131"",""0.657"",""0.453"",""0.838""]","[1,0,1,1]",0,11,11,11,1,1,1,,,0,FALSE,,,,,,,,,,,,,,,,,,,,,,,,,,,,,,
,614a7b0e7bf360668da0617b,001,2022-04-28_20h59.59.488,classification_task,2021.2.3,MacIntel,59.93407252,614a7b0e7bf360668da0617b,626b377229c10585ec392f89,626b3b7ec53fd646788231b4,,,,,,,,,,,,,,,,,,,,,,,a,0,5.249,"[""0.131"",""0.397"",""0.453"",""0.620""]","[1,1,1,0]",0,12,12,12,1,1,1,,,0,FALSE,,,,,,,,,,,,,,,,,,,,,,,,,,,,,,
,614a7b0e7bf360668da0617b,001,2022-04-28_20h59.59.488,classification_task,2021.2.3,MacIntel,59.93407252,614a7b0e7bf360668da0617b,626b377229c10585ec392f89,626b3b7ec53fd646788231b4,,,,,,,,,,,,,,,,,,,,,,,a,1,1.2349,"[""0.616"",""0.360"",""0.873"",""0.913""]","[0,1,1,1]",0,13,13,13,1,0,1,,,0,FALSE,,,,,,,,,,,,,,,,,,,,,,,,,,,,,,
,614a7b0e7bf360668da0617b,001,2022-04-28_20h59.59.488,classification_task,2021.2.3,MacIntel,59.93407252,614a7b0e7bf360668da0617b,626b377229c10585ec392f89,626b3b7ec53fd646788231b4,,,,,,,,,,,,,,,,,,,,,,,a,1,0.9229,"[""0.326"",""0.360"",""0.610"",""0.913""]","[1,1,0,1]",0,14,14,14,1,0,1,,,0,FALSE,,,,,,,,,,,,,,,,,,,,,,,,,,,,,,
,614a7b0e7bf360668da0617b,001,2022-04-28_20h59.59.488,classification_task,2021.2.3,MacIntel,59.93407252,614a7b0e7bf360668da0617b,626b377229c10585ec392f89,626b3b7ec53fd646788231b4,,,,,,,,,,,,,,,,,,,,,,,l,1,0.9684,"[""0.131"",""0.397"",""0.714"",""0.838""]","[1,1,0,1]",0,15,15,15,1,1,1,,,0,FALSE,,,,,,,,,,,,,,,,,,,,,,,,,,,,,,
,614a7b0e7bf360668da0617b,001,2022-04-28_20h59.59.488,classification_task,2021.2.3,MacIntel,59.93407252,614a7b0e7bf360668da0617b,626b377229c10585ec392f89,626b3b7ec53fd646788231b4,,,,,,,,,,,,,,,,,,,,,,,l,1,1.4253,"[""0.072"",""0.279"",""0.558"",""0.714""]","[1,1,1,0]",0,16,16,16,1,1,0,,,0,FALSE,,,,,,,,,,,,,,,,,,,,,,,,,,,,,,
,614a7b0e7bf360668da0617b,001,2022-04-28_20h59.59.488,classification_task,2021.2.3,MacIntel,59.93407252,614a7b0e7bf360668da0617b,626b377229c10585ec392f89,626b3b7ec53fd646788231b4,,,,,,,,,,,,,,,,,,,,,,,l,1,4.5486,"[""0.652"",""0.279"",""0.558"",""0.750""]","[0,1,1,1]",0,17,17,17,1,1,0,,,0,FALSE,,,,,,,,,,,,,,,,,,,,,,,,,,,,,,
,614a7b0e7bf360668da0617b,001,2022-04-28_20h59.59.488,classification_task,2021.2.3,MacIntel,59.93407252,614a7b0e7bf360668da0617b,626b377229c10585ec392f89,626b3b7ec53fd646788231b4,,,,,,,,,,,,,,,,,,,,,,,l,0,1.3112,"[""0.610"",""0.493"",""0.794"",""0.954""]","[0,1,1,1]",0,18,18,18,1,0,0,,,0,FALSE,,,,,,,,,,,,,,,,,,,,,,,,,,,,,,
,614a7b0e7bf360668da0617b,001,2022-04-28_20h59.59.488,classification_task,2021.2.3,MacIntel,59.93407252,614a7b0e7bf360668da0617b,626b377229c10585ec392f89,626b3b7ec53fd646788231b4,,,,,,,,,,,,,,,,,,,,,,,l,0,2.6112,"[""0.220"",""0.029"",""0.794"",""0.954""]","[1,0,1,1]",0,19,19,19,1,0,0,,,0,FALSE,,,,,,,,,,,,,,,,,,,,,,,,,,,,,,
,614a7b0e7bf360668da0617b,001,2022-04-28_20h59.59.488,classification_task,2021.2.3,MacIntel,59.93407252,614a7b0e7bf360668da0617b,626b377229c10585ec392f89,626b3b7ec53fd646788231b4,,,,,,,,,,,,,,,,,,,,,,,a,0,1.2902,"[""0.072"",""0.616"",""0.558"",""0.750""]","[1,0,1,1]",0,20,20,20,1,1,0,,,0,FALSE,,,,,,,,,,,,,,,,,,,,,,,,,,,,,,
,614a7b0e7bf360668da0617b,001,2022-04-28_20h59.59.488,classification_task,2021.2.3,MacIntel,59.93407252,614a7b0e7bf360668da0617b,626b377229c10585ec392f89,626b3b7ec53fd646788231b4,,,,,,,,,,,,,,,,,,,,,,,l,1,5.015,"[""0.072"",""0.279"",""0.620"",""0.750""]","[1,1,0,1]",0,21,21,21,1,1,0,,,0,FALSE,,,,,,,,,,,,,,,,,,,,,,,,,,,,,,
,614a7b0e7bf360668da0617b,001,2022-04-28_20h59.59.488,classification_task,2021.2.3,MacIntel,59.93407252,614a7b0e7bf360668da0617b,626b377229c10585ec392f89,626b3b7ec53fd646788231b4,,,,,,,,,,,,,,,,,,,,,,,a,0,4.4822,"[""0.131"",""0.397"",""0.453"",""0.173""]","[1,1,1,0]",0,22,22,22,1,1,1,,,0,FALSE,,,,,,,,,,,,,,,,,,,,,,,,,,,,,,
,614a7b0e7bf360668da0617b,001,2022-04-28_20h59.59.488,classification_task,2021.2.3,MacIntel,59.93407252,614a7b0e7bf360668da0617b,626b377229c10585ec392f89,626b3b7ec53fd646788231b4,,,,,,,,,,,,,,,,,,,,,,,a,0,2.2974,"[""0.131"",""0.174"",""0.453"",""0.838""]","[1,0,1,1]",0,23,23,23,1,1,1,,,0,FALSE,,,,,,,,,,,,,,,,,,,,,,,,,,,,,,
,614a7b0e7bf360668da0617b,001,2022-04-28_20h59.59.488,classification_task,2021.2.3,MacIntel,59.93407252,614a7b0e7bf360668da0617b,626b377229c10585ec392f89,626b3b7ec53fd646788231b4,,,,,,,,,,,,,,,,,,,,,,,a,1,2.3597,"[""0.326"",""0.360"",""0.873"",""0.173""]","[1,1,1,0]",0,24,24,24,1,0,1,,,0,FALSE,,,,,,,,,,,,,,,,,,,,,,,,,,,,,,
,614a7b0e7bf360668da0617b,001,2022-04-28_20h59.59.488,classification_task,2021.2.3,MacIntel,59.93407252,614a7b0e7bf360668da0617b,626b377229c10585ec392f89,626b3b7ec53fd646788231b4,,,,,,,,,,,,,,,,,,,,,,,l,0,1.8121,"[""0.220"",""0.493"",""0.794"",""0.173""]","[1,1,1,0]",0,25,25,25,1,0,0,,,0,FALSE,,,,,,,,,,,,,,,,,,,,,,,,,,,,,,
,614a7b0e7bf360668da0617b,001,2022-04-28_20h59.59.488,classification_task,2021.2.3,MacIntel,59.93407252,614a7b0e7bf360668da0617b,626b377229c10585ec392f89,626b3b7ec53fd646788231b4,,,,,,,,,,,,,,,,,,,,,,,a,0,0.9851,"[""0.131"",""0.397"",""0.173"",""0.838""]","[1,1,0,1]",0,26,26,26,1,1,1,,,0,FALSE,,,,,,,,,,,,,,,,,,,,,,,,,,,,,,
,614a7b0e7bf360668da0617b,001,2022-04-28_20h59.59.488,classification_task,2021.2.3,MacIntel,59.93407252,614a7b0e7bf360668da0617b,626b377229c10585ec392f89,626b3b7ec53fd646788231b4,,,,,,,,,,,,,,,,,,,,,,,a,1,1.9757,"[""0.326"",""0.360"",""0.610"",""0.913""]","[1,1,0,1]",0,27,27,27,1,0,1,,,0,FALSE,,,,,,,,,,,,,,,,,,,,,,,,,,,,,,
,614a7b0e7bf360668da0617b,001,2022-04-28_20h59.59.488,classification_task,2021.2.3,MacIntel,59.93407252,614a7b0e7bf360668da0617b,626b377229c10585ec392f89,626b3b7ec53fd646788231b4,,,,,,,,,,,,,,,,,,,,,,,l,0,1.4114,"[""0.220"",""0.493"",""0.616"",""0.954""]","[1,1,0,1]",0,28,28,28,1,0,0,,,0,FALSE,,,,,,,,,,,,,,,,,,,,,,,,,,,,,,
,614a7b0e7bf360668da0617b,001,2022-04-28_20h59.59.488,classification_task,2021.2.3,MacIntel,59.93407252,614a7b0e7bf360668da0617b,626b377229c10585ec392f89,626b3b7ec53fd646788231b4,,,,,,,,,,,,,,,,,,,,,,,a,1,1.2314,"[""0.652"",""0.360"",""0.873"",""0.913""]","[0,1,1,1]",0,29,29,29,1,0,1,,,0,FALSE,,,,,,,,,,,,,,,,,,,,,,,,,,,,,,
,614a7b0e7bf360668da0617b,001,2022-04-28_20h59.59.488,classification_task,2021.2.3,MacIntel,59.93407252,614a7b0e7bf360668da0617b,626b377229c10585ec392f89,626b3b7ec53fd646788231b4,,,,,,,,,,,,,,,,,,,,,,,l,0,1.0712,"[""0.326"",""0.610"",""0.873"",""0.913""]","[1,0,1,1]",0,30,30,30,1,0,1,,,0,FALSE,,,,,,,,,,,,,,,,,,,,,,,,,,,,,,
,614a7b0e7bf360668da0617b,001,2022-04-28_20h59.59.488,classification_task,2021.2.3,MacIntel,59.93407252,614a7b0e7bf360668da0617b,626b377229c10585ec392f89,626b3b7ec53fd646788231b4,,,,,,,,,,,,,,,,,,,,,,,l,1,1.5692,"[""0.652"",""0.397"",""0.453"",""0.838""]","[0,1,1,1]",0,31,31,31,1,1,1,,,0,FALSE,,,,,,,,,,,,,,,,,,,,,,,,,,,,,,
,614a7b0e7bf360668da0617b,001,2022-04-28_20h59.59.488,classification_task,2021.2.3,MacIntel,59.93407252,614a7b0e7bf360668da0617b,626b377229c10585ec392f89,626b3b7ec53fd646788231b4,,,,,,,,,,,,,,,,,,,,,,,l,0,1.6532,"[""0.220"",""0.697"",""0.794"",""0.954""]","[1,0,1,1]",0,32,32,32,1,0,0,,,0,FALSE,,,,,,,,,,,,,,,,,,,,,,,,,,,,,,
,614a7b0e7bf360668da0617b,001,2022-04-28_20h59.59.488,classification_task,2021.2.3,MacIntel,59.93407252,614a7b0e7bf360668da0617b,626b377229c10585ec392f89,626b3b7ec53fd646788231b4,,,,,,,,,,,,,,,,,,,,,,,a,0,1.2441,"[""0.131"",""0.397"",""0.610"",""0.838""]","[1,1,0,1]",0,33,33,33,1,1,1,,,0,FALSE,,,,,,,,,,,,,,,,,,,,,,,,,,,,,,
,614a7b0e7bf360668da0617b,001,2022-04-28_20h59.59.488,classification_task,2021.2.3,MacIntel,59.93407252,614a7b0e7bf360668da0617b,626b377229c10585ec392f89,626b3b7ec53fd646788231b4,,,,,,,,,,,,,,,,,,,,,,,a,1,1.7197,"[""0.220"",""0.493"",""0.173"",""0.954""]","[1,1,0,1]",0,34,34,34,1,0,0,,,0,FALSE,,,,,,,,,,,,,,,,,,,,,,,,,,,,,,
,614a7b0e7bf360668da0617b,001,2022-04-28_20h59.59.488,classification_task,2021.2.3,MacIntel,59.93407252,614a7b0e7bf360668da0617b,626b377229c10585ec392f89,626b3b7ec53fd646788231b4,,,,,,,,,,,,,,,,,,,,,,,l,1,1.0205,"[""0.131"",""0.029"",""0.453"",""0.838""]","[1,0,1,1]",0,35,35,35,1,1,1,,,0,FALSE,,,,,,,,,,,,,,,,,,,,,,,,,,,,,,
,614a7b0e7bf360668da0617b,001,2022-04-28_20h59.59.488,classification_task,2021.2.3,MacIntel,59.93407252,614a7b0e7bf360668da0617b,626b377229c10585ec392f89,626b3b7ec53fd646788231b4,,,,,,,,,,,,,,,,,,,,,,,a,0,2.1915,"[""0.131"",""0.397"",""0.453"",""0.610""]","[1,1,1,0]",0,36,36,36,1,1,1,,,0,FALSE,,,,,,,,,,,,,,,,,,,,,,,,,,,,,,
,614a7b0e7bf360668da0617b,001,2022-04-28_20h59.59.488,classification_task,2021.2.3,MacIntel,59.93407252,614a7b0e7bf360668da0617b,626b377229c10585ec392f89,626b3b7ec53fd646788231b4,,,,,,,,,,,,,,,,,,,,,,,a,1,2.8631,"[""0.326"",""0.184"",""0.873"",""0.913""]","[1,0,1,1]",0,37,37,37,1,0,1,,,0,FALSE,,,,,,,,,,,,,,,,,,,,,,,,,,,,,,
,614a7b0e7bf360668da0617b,001,2022-04-28_20h59.59.488,classification_task,2021.2.3,MacIntel,59.93407252,614a7b0e7bf360668da0617b,626b377229c10585ec392f89,626b3b7ec53fd646788231b4,,,,,,,,,,,,,,,,,,,,,,,l,0,1.0609,"[""0.610"",""0.360"",""0.873"",""0.913""]","[0,1,1,1]",0,38,38,38,1,0,1,,,0,FALSE,,,,,,,,,,,,,,,,,,,,,,,,,,,,,,
,614a7b0e7bf360668da0617b,001,2022-04-28_20h59.59.488,classification_task,2021.2.3,MacIntel,59.93407252,614a7b0e7bf360668da0617b,626b377229c10585ec392f89,626b3b7ec53fd646788231b4,,,,,,,,,,,,,,,,,,,,,,,l,0,4.0081,"[""0.326"",""0.360"",""0.873"",""0.714""]","[1,1,1,0]",0,39,39,39,1,0,1,,,0,FALSE,,,,,,,,,,,,,,,,,,,,,,,,,,,,,,
,614a7b0e7bf360668da0617b,001,2022-04-28_20h59.59.488,classification_task,2021.2.3,MacIntel,59.93407252,614a7b0e7bf360668da0617b,626b377229c10585ec392f89,626b3b7ec53fd646788231b4,,,,,,,,,,,,,,,,,,,,,,,l,0,1.545,"[""0.173"",""0.493"",""0.794"",""0.954""]","[0,1,1,1]",0,40,40,40,1,0,0,,,0,FALSE,,,,,,,,,,,,,,,,,,,,,,,,,,,,,,
,614a7b0e7bf360668da0617b,001,2022-04-28_20h59.59.488,classification_task,2021.2.3,MacIntel,59.93407252,614a7b0e7bf360668da0617b,626b377229c10585ec392f89,626b3b7ec53fd646788231b4,,,,,,,,,,,,,,,,,,,,,,,a,1,1.6029,"[""0.220"",""0.493"",""0.794"",""0.714""]","[1,1,1,0]",0,41,41,41,1,0,0,,,0,FALSE,,,,,,,,,,,,,,,,,,,,,,,,,,,,,,
,614a7b0e7bf360668da0617b,001,2022-04-28_20h59.59.488,classification_task,2021.2.3,MacIntel,59.93407252,614a7b0e7bf360668da0617b,626b377229c10585ec392f89,626b3b7ec53fd646788231b4,,,,,,,,,,,,,,,,,,,,,,,l,1,0.6945,"[""0.715"",""0.397"",""0.453"",""0.838""]","[0,1,1,1]",0,42,42,42,1,1,1,,,0,FALSE,,,,,,,,,,,,,,,,,,,,,,,,,,,,,,
,614a7b0e7bf360668da0617b,001,2022-04-28_20h59.59.488,classification_task,2021.2.3,MacIntel,59.93407252,614a7b0e7bf360668da0617b,626b377229c10585ec392f89,626b3b7ec53fd646788231b4,,,,,,,,,,,,,,,,,,,,,,,l,1,1.7761,"[""0.697"",""0.279"",""0.558"",""0.750""]","[0,1,1,1]",0,43,43,43,1,1,0,,,0,FALSE,,,,,,,,,,,,,,,,,,,,,,,,,,,,,,
,614a7b0e7bf360668da0617b,001,2022-04-28_20h59.59.488,classification_task,2021.2.3,MacIntel,59.93407252,614a7b0e7bf360668da0617b,626b377229c10585ec392f89,626b3b7ec53fd646788231b4,,,,,,,,,,,,,,,,,,,,,,,l,1,2.1603,"[""0.072"",""0.279"",""0.657"",""0.750""]","[1,1,0,1]",0,44,44,44,1,1,0,,,0,FALSE,,,,,,,,,,,,,,,,,,,,,,,,,,,,,,
,614a7b0e7bf360668da0617b,001,2022-04-28_20h59.59.488,classification_task,2021.2.3,MacIntel,59.93407252,614a7b0e7bf360668da0617b,626b377229c10585ec392f89,626b3b7ec53fd646788231b4,,,,,,,,,,,,,,,,,,,,,,,a,1,1.367,"[""0.326"",""0.360"",""0.646"",""0.913""]","[1,1,0,1]",0,45,45,45,1,0,1,,,0,FALSE,,,,,,,,,,,,,,,,,,,,,,,,,,,,,,
,614a7b0e7bf360668da0617b,001,2022-04-28_20h59.59.488,classification_task,2021.2.3,MacIntel,59.93407252,614a7b0e7bf360668da0617b,626b377229c10585ec392f89,626b3b7ec53fd646788231b4,,,,,,,,,,,,,,,,,,,,,,,l,1,0.7855,"[""0.072"",""0.173"",""0.558"",""0.750""]","[1,0,1,1]",0,46,46,46,1,1,0,,,0,FALSE,,,,,,,,,,,,,,,,,,,,,,,,,,,,,,
,614a7b0e7bf360668da0617b,001,2022-04-28_20h59.59.488,classification_task,2021.2.3,MacIntel,59.93407252,614a7b0e7bf360668da0617b,626b377229c10585ec392f89,626b3b7ec53fd646788231b4,,,,,,,,,,,,,,,,,,,,,,,a,0,1.2193,"[""0.072"",""0.279"",""0.558"",""0.714""]","[1,1,1,0]",0,47,47,47,1,1,0,,,0,FALSE,,,,,,,,,,,,,,,,,,,,,,,,,,,,,,
,614a7b0e7bf360668da0617b,001,2022-04-28_20h59.59.488,classification_task,2021.2.3,MacIntel,59.93407252,614a7b0e7bf360668da0617b,626b377229c10585ec392f89,626b3b7ec53fd646788231b4,,,,,,,,,,,,,,,,,,,,,,,a,1,2.2038,"[""0.220"",""0.184"",""0.794"",""0.954""]","[1,0,1,1]",0,48,48,48,1,0,0,,,0,FALSE,,,,,,,,,,,,,,,,,,,,,,,,,,,,,,
,614a7b0e7bf360668da0617b,001,2022-04-28_20h59.59.488,classification_task,2021.2.3,MacIntel,59.93407252,614a7b0e7bf360668da0617b,626b377229c10585ec392f89,626b3b7ec53fd646788231b4,,,,,,,,,,,,,,,,,,,,,,,l,0,2.0866,"[""0.657"",""0.493"",""0.794"",""0.954""]","[0,1,1,1]",0,49,49,49,1,0,0,,,0,FALSE,,,,,,,,,,,,,,,,,,,,,,,,,,,,,,
,614a7b0e7bf360668da0617b,001,2022-04-28_20h59.59.488,classification_task,2021.2.3,MacIntel,59.93407252,614a7b0e7bf360668da0617b,626b377229c10585ec392f89,626b3b7ec53fd646788231b4,,,,,,,,,,,,,,,,,,,,,,,a,0,1.5765,"[""0.131"",""0.602"",""0.453"",""0.838""]","[1,0,1,1]",0,50,50,50,1,1,1,,,0,FALSE,,,,,,,,,,,,,,,,,,,,,,,,,,,,,,
,614a7b0e7bf360668da0617b,001,2022-04-28_20h59.59.488,classification_task,2021.2.3,MacIntel,59.93407252,614a7b0e7bf360668da0617b,626b377229c10585ec392f89,626b3b7ec53fd646788231b4,,,,,,,,,,,,,,,,,,,,,,,a,1,1.0687,"[""0.220"",""0.493"",""0.610"",""0.954""]","[1,1,0,1]",0,51,51,51,1,0,0,,,0,FALSE,,,,,,,,,,,,,,,,,,,,,,,,,,,,,,
,614a7b0e7bf360668da0617b,001,2022-04-28_20h59.59.488,classification_task,2021.2.3,MacIntel,59.93407252,614a7b0e7bf360668da0617b,626b377229c10585ec392f89,626b3b7ec53fd646788231b4,,,,,,,,,,,,,,,,,,,,,,,l,1,1.2197,"[""0.072"",""0.173"",""0.558"",""0.750""]","[1,0,1,1]",0,52,52,52,1,1,0,,,0,FALSE,,,,,,,,,,,,,,,,,,,,,,,,,,,,,,
,614a7b0e7bf360668da0617b,001,2022-04-28_20h59.59.488,classification_task,2021.2.3,MacIntel,59.93407252,614a7b0e7bf360668da0617b,626b377229c10585ec392f89,626b3b7ec53fd646788231b4,,,,,,,,,,,,,,,,,,,,,,,l,1,3.1043,"[""0.184"",""0.279"",""0.558"",""0.750""]","[0,1,1,1]",0,53,53,53,1,1,0,,,0,FALSE,,,,,,,,,,,,,,,,,,,,,,,,,,,,,,
,614a7b0e7bf360668da0617b,001,2022-04-28_20h59.59.488,classification_task,2021.2.3,MacIntel,59.93407252,614a7b0e7bf360668da0617b,626b377229c10585ec392f89,626b3b7ec53fd646788231b4,,,,,,,,,,,,,,,,,,,,,,,a,1,3.1671,"[""0.326"",""0.360"",""0.873"",""0.184""]","[1,1,1,0]",0,54,54,54,1,0,1,,,0,FALSE,,,,,,,,,,,,,,,,,,,,,,,,,,,,,,
,614a7b0e7bf360668da0617b,001,2022-04-28_20h59.59.488,classification_task,2021.2.3,MacIntel,59.93407252,614a7b0e7bf360668da0617b,626b377229c10585ec392f89,626b3b7ec53fd646788231b4,,,,,,,,,,,,,,,,,,,,,,,a,1,1.0931,"[""0.220"",""0.493"",""0.794"",""0.173""]","[1,1,1,0]",0,55,55,55,1,0,0,,,0,FALSE,,,,,,,,,,,,,,,,,,,,,,,,,,,,,,
,614a7b0e7bf360668da0617b,001,2022-04-28_20h59.59.488,classification_task,2021.2.3,MacIntel,59.93407252,614a7b0e7bf360668da0617b,626b377229c10585ec392f89,626b3b7ec53fd646788231b4,,,,,,,,,,,,,,,,,,,,,,,a,1,1.2235,"[""0.326"",""0.184"",""0.873"",""0.913""]","[1,0,1,1]",0,56,56,56,1,0,1,,,0,FALSE,,,,,,,,,,,,,,,,,,,,,,,,,,,,,,
,614a7b0e7bf360668da0617b,001,2022-04-28_20h59.59.488,classification_task,2021.2.3,MacIntel,59.93407252,614a7b0e7bf360668da0617b,626b377229c10585ec392f89,626b3b7ec53fd646788231b4,,,,,,,,,,,,,,,,,,,,,,,l,1,1.7198,"[""0.072"",""0.279"",""0.602"",""0.750""]","[1,1,0,1]",0,57,57,57,1,1,0,,,0,FALSE,,,,,,,,,,,,,,,,,,,,,,,,,,,,,,
,614a7b0e7bf360668da0617b,001,2022-04-28_20h59.59.488,classification_task,2021.2.3,MacIntel,59.93407252,614a7b0e7bf360668da0617b,626b377229c10585ec392f89,626b3b7ec53fd646788231b4,,,,,,,,,,,,,,,,,,,,,,,l,1,1.957,"[""0.184"",""0.397"",""0.453"",""0.838""]","[0,1,1,1]",0,58,58,58,1,1,1,,,0,FALSE,,,,,,,,,,,,,,,,,,,,,,,,,,,,,,
,614a7b0e7bf360668da0617b,001,2022-04-28_20h59.59.488,classification_task,2021.2.3,MacIntel,59.93407252,614a7b0e7bf360668da0617b,626b377229c10585ec392f89,626b3b7ec53fd646788231b4,,,,,,,,,,,,,,,,,,,,,,,l,1,1.077,"[""0.131"",""0.397"",""0.453"",""0.646""]","[1,1,1,0]",0,59,59,59,1,1,1,,,0,FALSE,,,,,,,,,,,,,,,,,,,,,,,,,,,,,,
,614a7b0e7bf360668da0617b,001,2022-04-28_20h59.59.488,classification_task,2021.2.3,MacIntel,59.93407252,614a7b0e7bf360668da0617b,626b377229c10585ec392f89,626b3b7ec53fd646788231b4,,,,,,,,,,,,,,,,,,,,,,,a,1,1.1188,"[""0.326"",""0.360"",""0.709"",""0.913""]","[1,1,0,1]",0,60,60,60,1,0,1,,,0,FALSE,,,,,,,,,,,,,,,,,,,,,,,,,,,,,,
,614a7b0e7bf360668da0617b,001,2022-04-28_20h59.59.488,classification_task,2021.2.3,MacIntel,59.93407252,614a7b0e7bf360668da0617b,626b377229c10585ec392f89,626b3b7ec53fd646788231b4,,,,,,,,,,,,,,,,,,,,,,,a,0,3.2381,"[""0.072"",""0.279"",""0.558"",""0.709""]","[1,1,1,0]",0,61,61,61,1,1,0,,,0,FALSE,,,,,,,,,,,,,,,,,,,,,,,,,,,,,,
,614a7b0e7bf360668da0617b,001,2022-04-28_20h59.59.488,classification_task,2021.2.3,MacIntel,59.93407252,614a7b0e7bf360668da0617b,626b377229c10585ec392f89,626b3b7ec53fd646788231b4,,,,,,,,,,,,,,,,,,,,,,,l,1,1.1933,"[""0.131"",""0.397"",""0.616"",""0.838""]","[1,1,0,1]",0,62,62,62,1,1,1,,,0,FALSE,,,,,,,,,,,,,,,,,,,,,,,,,,,,,,
,614a7b0e7bf360668da0617b,001,2022-04-28_20h59.59.488,classification_task,2021.2.3,MacIntel,59.93407252,614a7b0e7bf360668da0617b,626b377229c10585ec392f89,626b3b7ec53fd646788231b4,,,,,,,,,,,,,,,,,,,,,,,a,1,1.605,"[""0.029"",""0.360"",""0.873"",""0.913""]","[0,1,1,1]",0,63,63,63,1,0,1,,,0,FALSE,,,,,,,,,,,,,,,,,,,,,,,,,,,,,,
,614a7b0e7bf360668da0617b,001,2022-04-28_20h59.59.488,classification_task,2021.2.3,MacIntel,59.93407252,614a7b0e7bf360668da0617b,626b377229c10585ec392f89,626b3b7ec53fd646788231b4,,,,,,,,,,,,,,,,,,,,,,,,,,,,,,,,,,,,,,,0, ,,0,4.258597201,214.7939,0,2,2,2,1,2,3,,,,,,,,,,,,,,,,,
,614a7b0e7bf360668da0617b,001,2022-04-28_20h59.59.488,classification_task,2021.2.3,MacIntel,59.93407252,614a7b0e7bf360668da0617b,626b377229c10585ec392f89,626b3b7ec53fd646788231b4,,,,,,,,,,,,,,,,,,,,,,,,,,,,,,,,,,,,,,,1,  ,,0,8.201618732,224.8764,0,2,2,2,1,2,3,,,,,,,,,,,,,,,,,
,614a7b0e7bf360668da0617b,001,2022-04-28_20h59.59.488,classification_task,2021.2.3,MacIntel,59.93407252,614a7b0e7bf360668da0617b,626b377229c10585ec392f89,626b3b7ec53fd646788231b4,,,,,,,,,,,,,,,,,,,,,,,,,,,,,,,,,,,,,,,2,  ,,0,7.759144594,226.8118,0,2,2,2,1,2,3,,,,,,,,,,,,,,,,,
,614a7b0e7bf360668da0617b,001,2022-04-28_20h59.59.488,classification_task,2021.2.3,MacIntel,59.93407252,614a7b0e7bf360668da0617b,626b377229c10585ec392f89,626b3b7ec53fd646788231b4,,,,,,,,,,,,,,,,,,,,,,,,,,,,,,,,,,,,,,,,,,,,,0,2,2,2,1,,3,,,,,,,,,,,,,,,,,
,614a7b0e7bf360668da0617b,001,2022-04-28_20h59.59.488,classification_task,2021.2.3,MacIntel,59.93407252,614a7b0e7bf360668da0617b,626b377229c10585ec392f89,626b3b7ec53fd646788231b4,,,,,,,,,,,,,,,,,,,,,,,,,,,,,,,,,,,,,,,,,,,,,,,,,,,,,I believe the aid is a competent performer,,0.7,0,3,938.986,0,0,0,0,1,0,,,,
,614a7b0e7bf360668da0617b,001,2022-04-28_20h59.59.488,classification_task,2021.2.3,MacIntel,59.93407252,614a7b0e7bf360668da0617b,626b377229c10585ec392f89,626b3b7ec53fd646788231b4,,,,,,,,,,,,,,,,,,,,,,,,,,,,,,,,,,,,,,,,,,,,,,,,,,,,,I trust the aid,,0.7,0,5,941.3745,0,0,0,0,1,0,,,,
,614a7b0e7bf360668da0617b,001,2022-04-28_20h59.59.488,classification_task,2021.2.3,MacIntel,59.93407252,614a7b0e7bf360668da0617b,626b377229c10585ec392f89,626b3b7ec53fd646788231b4,,,,,,,,,,,,,,,,,,,,,,,,,,,,,,,,,,,,,,,,,,,,,,,,,,,,,I have confidence in the advice given by the aid,,0.7,0,5,943.2702,0,0,0,0,1,0,,,,
,614a7b0e7bf360668da0617b,001,2022-04-28_20h59.59.488,classification_task,2021.2.3,MacIntel,59.93407252,614a7b0e7bf360668da0617b,626b377229c10585ec392f89,626b3b7ec53fd646788231b4,,,,,,,,,,,,,,,,,,,,,,,,,,,,,,,,,,,,,,,,,,,,,,,,,,,,,I can depend on the aid,,0.7,0,4,947.3885,0,0,0,0,1,0,,,,
,614a7b0e7bf360668da0617b,001,2022-04-28_20h59.59.488,classification_task,2021.2.3,MacIntel,59.93407252,614a7b0e7bf360668da0617b,626b377229c10585ec392f89,626b3b7ec53fd646788231b4,,,,,,,,,,,,,,,,,,,,,,,,,,,,,,,,,,,,,,,,,,,,,,,,,,,,,I can rely on the aid to behave in consistent ways,,0.7,0,4,949.4911,0,0,0,0,1,0,,,,
,614a7b0e7bf360668da0617b,001,2022-04-28_20h59.59.488,classification_task,2021.2.3,MacIntel,59.93407252,614a7b0e7bf360668da0617b,626b377229c10585ec392f89,626b3b7ec53fd646788231b4,,,,,,,,,,,,,,,,,,,,,,,,,,,,,,,,,,,,,,,,,,,,,,,,,,,,,I can rely on the aid to do its best every time I take its advice,,0.7,0,3,955.5691,0,0,0,0,1,0,,,,
,614a7b0e7bf360668da0617b,001,2022-04-28_20h59.59.488,classification_task,2021.2.3,MacIntel,59.93407252,614a7b0e7bf360668da0617b,626b377229c10585ec392f89,626b3b7ec53fd646788231b4,,,,,,,,,,,,,,,,,,,,,,,,,,,,,,,,,,,,,,,,,,,,,,,,,,,,,"On trials you completed with assistance from the aid, how frequently did you think the aid was correct?",,0.7,0,90%,,0,0,0,0,1,0,,,,
,614a7b0e7bf360668da0617b,001,2022-04-28_20h59.59.488,classification_task,2021.2.3,MacIntel,59.93407252,614a7b0e7bf360668da0617b,626b377229c10585ec392f89,626b3b7ec53fd646788231b4,,,,,,,,,,,,,,,,,,,,,,,,,,,,,,,,,,,,,,,,,,,,,,,,,,,,,"On trials you completed without the aid, how frequently did you think you were correct?",,0.7,0,35%,,0,0,0,0,1,0,,,,
,614a7b0e7bf360668da0617b,001,2022-04-28_20h59.59.488,classification_task,2021.2.3,MacIntel,59.93407252,614a7b0e7bf360668da0617b,626b377229c10585ec392f89,626b3b7ec53fd646788231b4,,,,,,,,,,,,,,,,,,,,,,,,,,,,,,,,,,,,,,,,,,,,,,,,,,,,,,,,,,,0,0,0,0,1,,,,,
,614a7b0e7bf360668da0617b,001,2022-04-28_20h59.59.488,classification_task,2021.2.3,MacIntel,59.93407252,614a7b0e7bf360668da0617b,626b377229c10585ec392f89,626b3b7ec53fd646788231b4,,,,,,,,,,,,,,,,,,,,,,,,,,,,,,,,,,,,,,,,,,,,,,,,,,,,,,,,,,,,,,,,,space,8.2312,996.1978,
,614a7b0e7bf360668da0617b,001,2022-04-28_20h59.59.488,classification_task,2021.2.3,MacIntel,59.93407252,614a7b0e7bf360668da0617b,626b377229c10585ec392f89,626b3b7ec53fd646788231b4,,,,,,,,,,,,,,,,,,,,,,,,,,,,,,,,,,,,,,,,,,,,,,,,,,,,,,,,,,,,,,,,,,,,"Mozilla/5.0 (Macintosh; Intel Mac OS X 10_15_7) AppleWebKit/537.36 (KHTML, like Gecko) Chrome/101.0.4951.41 Safari/537.36"
