usingWebGL,participant,session,date,expName,psychopyVersion,OS,frameRate,study_id,signatures_friend,signatures_foe,band_ranges_top,band_ranges_bottom,formitemText,formtype,formundefined,formitemWidth,formindex,formresponse,formrt,key_resp_2.keys,key_resp_2.rt,tute_resp.keys,tute_resp.rt,tutorial.thisRepN,tutorial.thisTrialN,tutorial.thisN,tutorial.thisIndex,tutorial.ran,key_resp_4.keys,key_resp_4.rt,key_resp.keys,key_resp.corr,key_resp.rt,lines_presented,is_signal_presented,trials.thisRepN,trials.thisTrialN,trials.thisN,trials.thisIndex,trials.ran,vessel,active_band,lines,is_signal,supported_pos,catch_trial,debrief_formindex,debrief_formitemText,debrief_formtype,debrief_formitemWidth,debrief_formresponse,debrief_formrt,phases.thisRepN,phases.thisTrialN,phases.thisN,phases.thisIndex,phases.ran,phases.order,phase,key_resp_3.keys,trustitemText,trusttype,trustitemWidth,trustindex,trustresponse,trustrt,support_status.thisRepN,support_status.thisTrialN,support_status.thisN,support_status.thisIndex,support_status.ran,support_status.order,key_resp_5.keys,key_resp_5.rt,globalClockTime,userAgent,manualCondition
TRUE,614a6f434102c490f34f99e3,627c6f95b368a87425bdae66,2022-05-11_21h24.10.749,classification_task,2021.2.3,MacIntel,59.84082341,627c6715c52fd12f31907bd0,,,,,,,,,,,,,,,,,,,,,,,,,,,,,,,,,,,,,,,,,,,,,,,,,,,,,,,,,,,,,,,,,,,,,
,614a6f434102c490f34f99e3,627c6f95b368a87425bdae66,2022-05-11_21h24.10.749,classification_task,2021.2.3,MacIntel,59.84082341,627c6715c52fd12f31907bd0,"[[""0.197"",""0.472"",""0.910"",""0.969""],[""0.240"",""0.349"",""0.703"",""0.849""]]","[[""0.050"",""0.387"",""0.663"",""0.771""],[""0.156"",""0.285"",""0.547"",""0.809""]]","[1,10]","[100,1000]",Video game experience,,,0.7,0,,,,,,,,,,,,,,,,,,,,,,,,,,,,,,,,,,,,,,,,,,,,,,,,,,,,,,,,,,,,
,614a6f434102c490f34f99e3,627c6f95b368a87425bdae66,2022-05-11_21h24.10.749,classification_task,2021.2.3,MacIntel,59.84082341,627c6715c52fd12f31907bd0,,,,,Approximately how many hours did you spend playing video games in the last week?,,,0.7,0,0,,,,,,,,,,,,,,,,,,,,,,,,,,,,,,,,,,,,,,,,,,,,,,,,,,,,,,,,,,,
,614a6f434102c490f34f99e3,627c6f95b368a87425bdae66,2022-05-11_21h24.10.749,classification_task,2021.2.3,MacIntel,59.84082341,627c6715c52fd12f31907bd0,,,,,"Which game did you play the most this year? (Enter ""None"" if you didn't play any)",,,0.7,0,The Sims,,,,,,,,,,,,,,,,,,,,,,,,,,,,,,,,,,,,,,,,,,,,,,,,,,,,,,,,,,,
,614a6f434102c490f34f99e3,627c6f95b368a87425bdae66,2022-05-11_21h24.10.749,classification_task,2021.2.3,MacIntel,59.84082341,627c6715c52fd12f31907bd0,,,,,Visual perception,,,0.7,0,,,,,,,,,,,,,,,,,,,,,,,,,,,,,,,,,,,,,,,,,,,,,,,,,,,,,,,,,,,,
,614a6f434102c490f34f99e3,627c6f95b368a87425bdae66,2022-05-11_21h24.10.749,classification_task,2021.2.3,MacIntel,59.84082341,627c6715c52fd12f31907bd0,,,,,Do you have any form of color blindness?,,,0.7,0,No,20.8419,,,,,,,,,,,,,,,,,,,,,,,,,,,,,,,,,,,,,,,,,,,,,,,,,,,,,,,,,,
,614a6f434102c490f34f99e3,627c6f95b368a87425bdae66,2022-05-11_21h24.10.749,classification_task,2021.2.3,MacIntel,59.84082341,627c6715c52fd12f31907bd0,,,,,Do you use software to change the colour temperature of your screen (e.g. f.lux)?,,,0.7,0,No,23.4529,,,,,,,,,,,,,,,,,,,,,,,,,,,,,,,,,,,,,,,,,,,,,,,,,,,,,,,,,,
,614a6f434102c490f34f99e3,627c6f95b368a87425bdae66,2022-05-11_21h24.10.749,classification_task,2021.2.3,MacIntel,59.84082341,627c6715c52fd12f31907bd0,,,,,,,,,,,,space,30.4238,space,6.9333,0,0,0,0,1,,,,,,,,,,,,,,,,,,,,,,,,,,,,,,,,,,,,,,,,,,,,,,,,,
,614a6f434102c490f34f99e3,627c6f95b368a87425bdae66,2022-05-11_21h24.10.749,classification_task,2021.2.3,MacIntel,59.84082341,627c6715c52fd12f31907bd0,,,,,,,,,,,,,,space,8.0567,1,0,1,0,1,,,,,,,,,,,,,,,,,,,,,,,,,,,,,,,,,,,,,,,,,,,,,,,,,
,614a6f434102c490f34f99e3,627c6f95b368a87425bdae66,2022-05-11_21h24.10.749,classification_task,2021.2.3,MacIntel,59.84082341,627c6715c52fd12f31907bd0,,,,,,,,,,,,,,space,11.8837,2,0,2,0,1,,,,,,,,,,,,,,,,,,,,,,,,,,,,,,,,,,,,,,,,,,,,,,,,,
,614a6f434102c490f34f99e3,627c6f95b368a87425bdae66,2022-05-11_21h24.10.749,classification_task,2021.2.3,MacIntel,59.84082341,627c6715c52fd12f31907bd0,,,,,,,,,,,,,,space,21.8125,3,0,3,0,1,,,,,,,,,,,,,,,,,,,,,,,,,,,,,,,,,,,,,,,,,,,,,,,,,
,614a6f434102c490f34f99e3,627c6f95b368a87425bdae66,2022-05-11_21h24.10.749,classification_task,2021.2.3,MacIntel,59.84082341,627c6715c52fd12f31907bd0,,,,,,,,,,,,,,space,13.7861,4,0,4,0,1,,,,,,,,,,,,,,,,,,,,,,,,,,,,,,,,,,,,,,,,,,,,,,,,,
,614a6f434102c490f34f99e3,627c6f95b368a87425bdae66,2022-05-11_21h24.10.749,classification_task,2021.2.3,MacIntel,59.84082341,627c6715c52fd12f31907bd0,,,,,,,,,,,,,,,,,,,,,space,12.8704,l,1,3.743,"[""0.050"",""0.387"",""0.663"",""0.597""]","[1,1,1,0]",0,0,0,0,1,1,0,,,1,FALSE,,,,,,,,,,,,,,,,,,,,,,,,,,,,,,,
,614a6f434102c490f34f99e3,627c6f95b368a87425bdae66,2022-05-11_21h24.10.749,classification_task,2021.2.3,MacIntel,59.84082341,627c6715c52fd12f31907bd0,,,,,,,,,,,,,,,,,,,,,,,a,1,2.9883,"[""0.240"",""0.349"",""0.703"",""0.581""]","[1,1,1,0]",0,1,1,1,1,0,1,,,1,FALSE,,,,,,,,,,,,,,,,,,,,,,,,,,,,,,,
,614a6f434102c490f34f99e3,627c6f95b368a87425bdae66,2022-05-11_21h24.10.749,classification_task,2021.2.3,MacIntel,59.84082341,627c6715c52fd12f31907bd0,,,,,,,,,,,,,,,,,,,,,,,l,1,3.163,"[""0.050"",""0.387"",""0.110"",""0.771""]","[1,1,0,1]",0,2,2,2,1,1,0,,,1,FALSE,,,,,,,,,,,,,,,,,,,,,,,,,,,,,,,
,614a6f434102c490f34f99e3,627c6f95b368a87425bdae66,2022-05-11_21h24.10.749,classification_task,2021.2.3,MacIntel,59.84082341,627c6715c52fd12f31907bd0,,,,,,,,,,,,,,,,,,,,,,,a,1,3.5779,"[""0.240"",""0.581"",""0.703"",""0.849""]","[1,0,1,1]",0,3,3,3,1,0,1,,,1,FALSE,,,,,,,,,,,,,,,,,,,,,,,,,,,,,,,
,614a6f434102c490f34f99e3,627c6f95b368a87425bdae66,2022-05-11_21h24.10.749,classification_task,2021.2.3,MacIntel,59.84082341,627c6715c52fd12f31907bd0,,,,,,,,,,,,,,,,,,,,,,,l,0,2.4434,"[""0.197"",""0.093"",""0.910"",""0.969""]","[1,0,1,1]",0,4,4,4,1,0,0,,,1,FALSE,,,,,,,,,,,,,,,,,,,,,,,,,,,,,,,
,614a6f434102c490f34f99e3,627c6f95b368a87425bdae66,2022-05-11_21h24.10.749,classification_task,2021.2.3,MacIntel,59.84082341,627c6715c52fd12f31907bd0,,,,,,,,,,,,,,,,,,,,,,,a,0,2.7293,"[""0.112"",""0.387"",""0.663"",""0.771""]","[0,1,1,1]",0,5,5,5,1,1,0,,,1,FALSE,,,,,,,,,,,,,,,,,,,,,,,,,,,,,,,
,614a6f434102c490f34f99e3,627c6f95b368a87425bdae66,2022-05-11_21h24.10.749,classification_task,2021.2.3,MacIntel,59.84082341,627c6715c52fd12f31907bd0,,,,,,,,,,,,,,,,,,,,,,,l,1,3.4457,"[""0.156"",""0.594"",""0.547"",""0.809""]","[1,0,1,1]",0,6,6,6,1,1,1,,,1,FALSE,,,,,,,,,,,,,,,,,,,,,,,,,,,,,,,
,614a6f434102c490f34f99e3,627c6f95b368a87425bdae66,2022-05-11_21h24.10.749,classification_task,2021.2.3,MacIntel,59.84082341,627c6715c52fd12f31907bd0,,,,,,,,,,,,,,,,,,,,,,,a,1,3.1992,"[""0.240"",""0.349"",""0.611"",""0.849""]","[1,1,0,1]",0,7,7,7,1,0,1,,,1,FALSE,,,,,,,,,,,,,,,,,,,,,,,,,,,,,,,
,614a6f434102c490f34f99e3,627c6f95b368a87425bdae66,2022-05-11_21h24.10.749,classification_task,2021.2.3,MacIntel,59.84082341,627c6715c52fd12f31907bd0,,,,,,,,,,,,,,,,,,,,,,,a,1,2.9424,"[""0.197"",""0.472"",""0.431"",""0.969""]","[1,1,0,1]",0,8,8,8,1,0,0,,,1,FALSE,,,,,,,,,,,,,,,,,,,,,,,,,,,,,,,
,614a6f434102c490f34f99e3,627c6f95b368a87425bdae66,2022-05-11_21h24.10.749,classification_task,2021.2.3,MacIntel,59.84082341,627c6715c52fd12f31907bd0,,,,,,,,,,,,,,,,,,,,,,,a,1,2.2278,"[""0.197"",""0.472"",""0.910"",""0.114""]","[1,1,1,0]",0,9,9,9,1,0,0,,,1,FALSE,,,,,,,,,,,,,,,,,,,,,,,,,,,,,,,
,614a6f434102c490f34f99e3,627c6f95b368a87425bdae66,2022-05-11_21h24.10.749,classification_task,2021.2.3,MacIntel,59.84082341,627c6715c52fd12f31907bd0,,,,,,,,,,,,,,,,,,,,,,,a,1,2.7257,"[""0.431"",""0.349"",""0.703"",""0.849""]","[0,1,1,1]",0,10,10,10,1,0,1,,,1,FALSE,,,,,,,,,,,,,,,,,,,,,,,,,,,,,,,
,614a6f434102c490f34f99e3,627c6f95b368a87425bdae66,2022-05-11_21h24.10.749,classification_task,2021.2.3,MacIntel,59.84082341,627c6715c52fd12f31907bd0,,,,,,,,,,,,,,,,,,,,,,,a,0,2.7775,"[""0.434"",""0.285"",""0.547"",""0.809""]","[0,1,1,1]",0,11,11,11,1,1,1,,,1,FALSE,,,,,,,,,,,,,,,,,,,,,,,,,,,,,,,
,614a6f434102c490f34f99e3,627c6f95b368a87425bdae66,2022-05-11_21h24.10.749,classification_task,2021.2.3,MacIntel,59.84082341,627c6715c52fd12f31907bd0,,,,,,,,,,,,,,,,,,,,,,,l,1,2.3724,"[""0.156"",""0.285"",""0.626"",""0.809""]","[1,1,0,1]",0,12,12,12,1,1,1,,,1,FALSE,,,,,,,,,,,,,,,,,,,,,,,,,,,,,,,
,614a6f434102c490f34f99e3,627c6f95b368a87425bdae66,2022-05-11_21h24.10.749,classification_task,2021.2.3,MacIntel,59.84082341,627c6715c52fd12f31907bd0,,,,,,,,,,,,,,,,,,,,,,,l,1,3.5263,"[""0.050"",""0.114"",""0.663"",""0.771""]","[1,0,1,1]",0,13,13,13,1,1,0,,,1,FALSE,,,,,,,,,,,,,,,,,,,,,,,,,,,,,,,
,614a6f434102c490f34f99e3,627c6f95b368a87425bdae66,2022-05-11_21h24.10.749,classification_task,2021.2.3,MacIntel,59.84082341,627c6715c52fd12f31907bd0,,,,,,,,,,,,,,,,,,,,,,,a,1,4.1338,"[""0.581"",""0.472"",""0.910"",""0.969""]","[0,1,1,1]",0,14,14,14,1,0,0,,,1,FALSE,,,,,,,,,,,,,,,,,,,,,,,,,,,,,,,
,614a6f434102c490f34f99e3,627c6f95b368a87425bdae66,2022-05-11_21h24.10.749,classification_task,2021.2.3,MacIntel,59.84082341,627c6715c52fd12f31907bd0,,,,,,,,,,,,,,,,,,,,,,,a,0,3.0948,"[""0.156"",""0.285"",""0.547"",""0.121""]","[1,1,1,0]",0,15,15,15,1,1,1,,,1,FALSE,,,,,,,,,,,,,,,,,,,,,,,,,,,,,,,
,614a6f434102c490f34f99e3,627c6f95b368a87425bdae66,2022-05-11_21h24.10.749,classification_task,2021.2.3,MacIntel,59.84082341,627c6715c52fd12f31907bd0,,,,,,,,,,,,,,,,,,,,,,,l,1,3.3981,"[""0.050"",""0.431"",""0.663"",""0.771""]","[1,0,1,1]",0,16,16,16,1,1,0,,,1,FALSE,,,,,,,,,,,,,,,,,,,,,,,,,,,,,,,
,614a6f434102c490f34f99e3,627c6f95b368a87425bdae66,2022-05-11_21h24.10.749,classification_task,2021.2.3,MacIntel,59.84082341,627c6715c52fd12f31907bd0,,,,,,,,,,,,,,,,,,,,,,,l,1,2.1781,"[""0.156"",""0.285"",""0.114"",""0.809""]","[1,1,0,1]",0,17,17,17,1,1,1,,,1,FALSE,,,,,,,,,,,,,,,,,,,,,,,,,,,,,,,
,614a6f434102c490f34f99e3,627c6f95b368a87425bdae66,2022-05-11_21h24.10.749,classification_task,2021.2.3,MacIntel,59.84082341,627c6715c52fd12f31907bd0,,,,,,,,,,,,,,,,,,,,,,,l,0,2.0034,"[""0.240"",""0.349"",""0.112"",""0.849""]","[1,1,0,1]",0,18,18,18,1,0,1,,,1,FALSE,,,,,,,,,,,,,,,,,,,,,,,,,,,,,,,
,614a6f434102c490f34f99e3,627c6f95b368a87425bdae66,2022-05-11_21h24.10.749,classification_task,2021.2.3,MacIntel,59.84082341,627c6715c52fd12f31907bd0,,,,,,,,,,,,,,,,,,,,,,,a,0,2.2283,"[""0.093"",""0.285"",""0.547"",""0.809""]","[0,1,1,1]",0,19,19,19,1,1,1,,,1,FALSE,,,,,,,,,,,,,,,,,,,,,,,,,,,,,,,
,614a6f434102c490f34f99e3,627c6f95b368a87425bdae66,2022-05-11_21h24.10.749,classification_task,2021.2.3,MacIntel,59.84082341,627c6715c52fd12f31907bd0,,,,,,,,,,,,,,,,,,,,,,,a,1,2.7696,"[""0.197"",""0.472"",""0.594"",""0.969""]","[1,1,0,1]",0,20,20,20,1,0,0,,,1,FALSE,,,,,,,,,,,,,,,,,,,,,,,,,,,,,,,
,614a6f434102c490f34f99e3,627c6f95b368a87425bdae66,2022-05-11_21h24.10.749,classification_task,2021.2.3,MacIntel,59.84082341,627c6715c52fd12f31907bd0,,,,,,,,,,,,,,,,,,,,,,,a,1,2.0098,"[""0.112"",""0.472"",""0.910"",""0.969""]","[0,1,1,1]",0,21,21,21,1,0,0,,,1,FALSE,,,,,,,,,,,,,,,,,,,,,,,,,,,,,,,
,614a6f434102c490f34f99e3,627c6f95b368a87425bdae66,2022-05-11_21h24.10.749,classification_task,2021.2.3,MacIntel,59.84082341,627c6715c52fd12f31907bd0,,,,,,,,,,,,,,,,,,,,,,,l,0,2.5225,"[""0.112"",""0.349"",""0.703"",""0.849""]","[0,1,1,1]",0,22,22,22,1,0,1,,,1,FALSE,,,,,,,,,,,,,,,,,,,,,,,,,,,,,,,
,614a6f434102c490f34f99e3,627c6f95b368a87425bdae66,2022-05-11_21h24.10.749,classification_task,2021.2.3,MacIntel,59.84082341,627c6715c52fd12f31907bd0,,,,,,,,,,,,,,,,,,,,,,,l,1,2.4103,"[""0.156"",""0.597"",""0.547"",""0.809""]","[1,0,1,1]",0,23,23,23,1,1,1,,,1,FALSE,,,,,,,,,,,,,,,,,,,,,,,,,,,,,,,
,614a6f434102c490f34f99e3,627c6f95b368a87425bdae66,2022-05-11_21h24.10.749,classification_task,2021.2.3,MacIntel,59.84082341,627c6715c52fd12f31907bd0,,,,,,,,,,,,,,,,,,,,,,,a,1,3.0937,"[""0.197"",""0.472"",""0.910"",""0.594""]","[1,1,1,0]",0,24,24,24,1,0,0,,,1,FALSE,,,,,,,,,,,,,,,,,,,,,,,,,,,,,,,
,614a6f434102c490f34f99e3,627c6f95b368a87425bdae66,2022-05-11_21h24.10.749,classification_task,2021.2.3,MacIntel,59.84082341,627c6715c52fd12f31907bd0,,,,,,,,,,,,,,,,,,,,,,,l,1,1.8609,"[""0.093"",""0.387"",""0.663"",""0.771""]","[0,1,1,1]",0,25,25,25,1,1,0,,,1,FALSE,,,,,,,,,,,,,,,,,,,,,,,,,,,,,,,
,614a6f434102c490f34f99e3,627c6f95b368a87425bdae66,2022-05-11_21h24.10.749,classification_task,2021.2.3,MacIntel,59.84082341,627c6715c52fd12f31907bd0,,,,,,,,,,,,,,,,,,,,,,,a,1,2.1247,"[""0.240"",""0.428"",""0.703"",""0.849""]","[1,0,1,1]",0,26,26,26,1,0,1,,,1,FALSE,,,,,,,,,,,,,,,,,,,,,,,,,,,,,,,
,614a6f434102c490f34f99e3,627c6f95b368a87425bdae66,2022-05-11_21h24.10.749,classification_task,2021.2.3,MacIntel,59.84082341,627c6715c52fd12f31907bd0,,,,,,,,,,,,,,,,,,,,,,,l,1,2.9357,"[""0.050"",""0.387"",""0.110"",""0.771""]","[1,1,0,1]",0,27,27,27,1,1,0,,,1,FALSE,,,,,,,,,,,,,,,,,,,,,,,,,,,,,,,
,614a6f434102c490f34f99e3,627c6f95b368a87425bdae66,2022-05-11_21h24.10.749,classification_task,2021.2.3,MacIntel,59.84082341,627c6715c52fd12f31907bd0,,,,,,,,,,,,,,,,,,,,,,,a,1,2.3733,"[""0.197"",""0.112"",""0.910"",""0.969""]","[1,0,1,1]",0,28,28,28,1,0,0,,,1,FALSE,,,,,,,,,,,,,,,,,,,,,,,,,,,,,,,
,614a6f434102c490f34f99e3,627c6f95b368a87425bdae66,2022-05-11_21h24.10.749,classification_task,2021.2.3,MacIntel,59.84082341,627c6715c52fd12f31907bd0,,,,,,,,,,,,,,,,,,,,,,,l,1,2.8224,"[""0.156"",""0.285"",""0.547"",""0.611""]","[1,1,1,0]",0,29,29,29,1,1,1,,,1,FALSE,,,,,,,,,,,,,,,,,,,,,,,,,,,,,,,
,614a6f434102c490f34f99e3,627c6f95b368a87425bdae66,2022-05-11_21h24.10.749,classification_task,2021.2.3,MacIntel,59.84082341,627c6715c52fd12f31907bd0,,,,,,,,,,,,,,,,,,,,,,,a,1,1.9086,"[""0.240"",""0.349"",""0.703"",""0.612""]","[1,1,1,0]",0,30,30,30,1,0,1,,,1,FALSE,,,,,,,,,,,,,,,,,,,,,,,,,,,,,,,
,614a6f434102c490f34f99e3,627c6f95b368a87425bdae66,2022-05-11_21h24.10.749,classification_task,2021.2.3,MacIntel,59.84082341,627c6715c52fd12f31907bd0,,,,,,,,,,,,,,,,,,,,,,,l,1,1.7661,"[""0.050"",""0.387"",""0.663"",""0.611""]","[1,1,1,0]",0,31,31,31,1,1,0,,,1,FALSE,,,,,,,,,,,,,,,,,,,,,,,,,,,,,,,
,614a6f434102c490f34f99e3,627c6f95b368a87425bdae66,2022-05-11_21h24.10.749,classification_task,2021.2.3,MacIntel,59.84082341,627c6715c52fd12f31907bd0,,,,,,,,,,,,,,,,,,,,,,,l,1,2.3755,"[""0.050"",""0.387"",""0.663"",""0.581""]","[1,1,1,0]",0,32,32,32,1,1,0,,,1,FALSE,,,,,,,,,,,,,,,,,,,,,,,,,,,,,,,
,614a6f434102c490f34f99e3,627c6f95b368a87425bdae66,2022-05-11_21h24.10.749,classification_task,2021.2.3,MacIntel,59.84082341,627c6715c52fd12f31907bd0,,,,,,,,,,,,,,,,,,,,,,,a,1,1.7612,"[""0.197"",""0.472"",""0.112"",""0.969""]","[1,1,0,1]",0,33,33,33,1,0,0,,,1,FALSE,,,,,,,,,,,,,,,,,,,,,,,,,,,,,,,
,614a6f434102c490f34f99e3,627c6f95b368a87425bdae66,2022-05-11_21h24.10.749,classification_task,2021.2.3,MacIntel,59.84082341,627c6715c52fd12f31907bd0,,,,,,,,,,,,,,,,,,,,,,,a,0,1.8397,"[""0.612"",""0.387"",""0.663"",""0.771""]","[0,1,1,1]",0,34,34,34,1,1,0,,,1,FALSE,,,,,,,,,,,,,,,,,,,,,,,,,,,,,,,
,614a6f434102c490f34f99e3,627c6f95b368a87425bdae66,2022-05-11_21h24.10.749,classification_task,2021.2.3,MacIntel,59.84082341,627c6715c52fd12f31907bd0,,,,,,,,,,,,,,,,,,,,,,,l,0,1.4864,"[""0.110"",""0.472"",""0.910"",""0.969""]","[0,1,1,1]",0,35,35,35,1,0,0,,,1,FALSE,,,,,,,,,,,,,,,,,,,,,,,,,,,,,,,
,614a6f434102c490f34f99e3,627c6f95b368a87425bdae66,2022-05-11_21h24.10.749,classification_task,2021.2.3,MacIntel,59.84082341,627c6715c52fd12f31907bd0,,,,,,,,,,,,,,,,,,,,,,,a,0,1.0383,"[""0.050"",""0.428"",""0.663"",""0.771""]","[1,0,1,1]",0,36,36,36,1,1,0,,,1,FALSE,,,,,,,,,,,,,,,,,,,,,,,,,,,,,,,
,614a6f434102c490f34f99e3,627c6f95b368a87425bdae66,2022-05-11_21h24.10.749,classification_task,2021.2.3,MacIntel,59.84082341,627c6715c52fd12f31907bd0,,,,,,,,,,,,,,,,,,,,,,,l,0,2.859,"[""0.197"",""0.428"",""0.910"",""0.969""]","[1,0,1,1]",0,37,37,37,1,0,0,,,1,FALSE,,,,,,,,,,,,,,,,,,,,,,,,,,,,,,,
,614a6f434102c490f34f99e3,627c6f95b368a87425bdae66,2022-05-11_21h24.10.749,classification_task,2021.2.3,MacIntel,59.84082341,627c6715c52fd12f31907bd0,,,,,,,,,,,,,,,,,,,,,,,l,1,1.8771,"[""0.050"",""0.387"",""0.112"",""0.771""]","[1,1,0,1]",0,38,38,38,1,1,0,,,1,FALSE,,,,,,,,,,,,,,,,,,,,,,,,,,,,,,,
,614a6f434102c490f34f99e3,627c6f95b368a87425bdae66,2022-05-11_21h24.10.749,classification_task,2021.2.3,MacIntel,59.84082341,627c6715c52fd12f31907bd0,,,,,,,,,,,,,,,,,,,,,,,l,1,1.5409,"[""0.156"",""0.285"",""0.114"",""0.809""]","[1,1,0,1]",0,39,39,39,1,1,1,,,1,FALSE,,,,,,,,,,,,,,,,,,,,,,,,,,,,,,,
,614a6f434102c490f34f99e3,627c6f95b368a87425bdae66,2022-05-11_21h24.10.749,classification_task,2021.2.3,MacIntel,59.84082341,627c6715c52fd12f31907bd0,,,,,,,,,,,,,,,,,,,,,,,a,1,1.0905,"[""0.428"",""0.349"",""0.703"",""0.849""]","[0,1,1,1]",0,40,40,40,1,0,1,,,1,FALSE,,,,,,,,,,,,,,,,,,,,,,,,,,,,,,,
,614a6f434102c490f34f99e3,627c6f95b368a87425bdae66,2022-05-11_21h24.10.749,classification_task,2021.2.3,MacIntel,59.84082341,627c6715c52fd12f31907bd0,,,,,,,,,,,,,,,,,,,,,,,l,0,1.8265,"[""0.240"",""0.349"",""0.428"",""0.849""]","[1,1,0,1]",0,41,41,41,1,0,1,,,1,FALSE,,,,,,,,,,,,,,,,,,,,,,,,,,,,,,,
,614a6f434102c490f34f99e3,627c6f95b368a87425bdae66,2022-05-11_21h24.10.749,classification_task,2021.2.3,MacIntel,59.84082341,627c6715c52fd12f31907bd0,,,,,,,,,,,,,,,,,,,,,,,a,0,0.8721,"[""0.121"",""0.285"",""0.547"",""0.809""]","[0,1,1,1]",0,42,42,42,1,1,1,,,1,FALSE,,,,,,,,,,,,,,,,,,,,,,,,,,,,,,,
,614a6f434102c490f34f99e3,627c6f95b368a87425bdae66,2022-05-11_21h24.10.749,classification_task,2021.2.3,MacIntel,59.84082341,627c6715c52fd12f31907bd0,,,,,,,,,,,,,,,,,,,,,,,l,0,1.528,"[""0.197"",""0.472"",""0.910"",""0.093""]","[1,1,1,0]",0,43,43,43,1,0,0,,,1,FALSE,,,,,,,,,,,,,,,,,,,,,,,,,,,,,,,
,614a6f434102c490f34f99e3,627c6f95b368a87425bdae66,2022-05-11_21h24.10.749,classification_task,2021.2.3,MacIntel,59.84082341,627c6715c52fd12f31907bd0,,,,,,,,,,,,,,,,,,,,,,,l,1,1.3119,"[""0.156"",""0.285"",""0.547"",""0.121""]","[1,1,1,0]",0,44,44,44,1,1,1,,,1,FALSE,,,,,,,,,,,,,,,,,,,,,,,,,,,,,,,
,614a6f434102c490f34f99e3,627c6f95b368a87425bdae66,2022-05-11_21h24.10.749,classification_task,2021.2.3,MacIntel,59.84082341,627c6715c52fd12f31907bd0,,,,,,,,,,,,,,,,,,,,,,,l,0,1.838,"[""0.240"",""0.597"",""0.703"",""0.849""]","[1,0,1,1]",0,45,45,45,1,0,1,,,1,FALSE,,,,,,,,,,,,,,,,,,,,,,,,,,,,,,,
,614a6f434102c490f34f99e3,627c6f95b368a87425bdae66,2022-05-11_21h24.10.749,classification_task,2021.2.3,MacIntel,59.84082341,627c6715c52fd12f31907bd0,,,,,,,,,,,,,,,,,,,,,,,a,1,1.3764,"[""0.240"",""0.349"",""0.703"",""0.612""]","[1,1,1,0]",0,46,46,46,1,0,1,,,1,FALSE,,,,,,,,,,,,,,,,,,,,,,,,,,,,,,,
,614a6f434102c490f34f99e3,627c6f95b368a87425bdae66,2022-05-11_21h24.10.749,classification_task,2021.2.3,MacIntel,59.84082341,627c6715c52fd12f31907bd0,,,,,,,,,,,,,,,,,,,,,,,l,1,1.5881,"[""0.156"",""0.597"",""0.547"",""0.809""]","[1,0,1,1]",0,47,47,47,1,1,1,,,1,FALSE,,,,,,,,,,,,,,,,,,,,,,,,,,,,,,,
,614a6f434102c490f34f99e3,627c6f95b368a87425bdae66,2022-05-11_21h24.10.749,classification_task,2021.2.3,MacIntel,59.84082341,627c6715c52fd12f31907bd0,,,,,,,,,,,,,,,,,,,,,,,l,0,1.648,"[""0.581"",""0.349"",""0.703"",""0.849""]","[0,1,1,1]",0,48,48,48,1,0,1,,,1,FALSE,,,,,,,,,,,,,,,,,,,,,,,,,,,,,,,
,614a6f434102c490f34f99e3,627c6f95b368a87425bdae66,2022-05-11_21h24.10.749,classification_task,2021.2.3,MacIntel,59.84082341,627c6715c52fd12f31907bd0,,,,,,,,,,,,,,,,,,,,,,,l,0,0.9038,"[""0.240"",""0.349"",""0.703"",""0.112""]","[1,1,1,0]",0,49,49,49,1,0,1,,,1,FALSE,,,,,,,,,,,,,,,,,,,,,,,,,,,,,,,
,614a6f434102c490f34f99e3,627c6f95b368a87425bdae66,2022-05-11_21h24.10.749,classification_task,2021.2.3,MacIntel,59.84082341,627c6715c52fd12f31907bd0,,,,,,,,,,,,,,,,,,,,,,,a,0,0.7031,"[""0.156"",""0.285"",""0.547"",""0.597""]","[1,1,1,0]",0,50,50,50,1,1,1,,,1,FALSE,,,,,,,,,,,,,,,,,,,,,,,,,,,,,,,
,614a6f434102c490f34f99e3,627c6f95b368a87425bdae66,2022-05-11_21h24.10.749,classification_task,2021.2.3,MacIntel,59.84082341,627c6715c52fd12f31907bd0,,,,,,,,,,,,,,,,,,,,,,,l,1,0.7027,"[""0.626"",""0.387"",""0.663"",""0.771""]","[0,1,1,1]",0,51,51,51,1,1,0,,,1,FALSE,,,,,,,,,,,,,,,,,,,,,,,,,,,,,,,
,614a6f434102c490f34f99e3,627c6f95b368a87425bdae66,2022-05-11_21h24.10.749,classification_task,2021.2.3,MacIntel,59.84082341,627c6715c52fd12f31907bd0,,,,,,,,,,,,,,,,,,,,,,,a,1,2.0425,"[""0.428"",""0.472"",""0.910"",""0.969""]","[0,1,1,1]",0,52,52,52,1,0,0,,,1,FALSE,,,,,,,,,,,,,,,,,,,,,,,,,,,,,,,
,614a6f434102c490f34f99e3,627c6f95b368a87425bdae66,2022-05-11_21h24.10.749,classification_task,2021.2.3,MacIntel,59.84082341,627c6715c52fd12f31907bd0,,,,,,,,,,,,,,,,,,,,,,,l,1,1.4736,"[""0.050"",""0.387"",""0.612"",""0.771""]","[1,1,0,1]",0,53,53,53,1,1,0,,,1,FALSE,,,,,,,,,,,,,,,,,,,,,,,,,,,,,,,
,614a6f434102c490f34f99e3,627c6f95b368a87425bdae66,2022-05-11_21h24.10.749,classification_task,2021.2.3,MacIntel,59.84082341,627c6715c52fd12f31907bd0,,,,,,,,,,,,,,,,,,,,,,,l,0,1.3751,"[""0.197"",""0.472"",""0.910"",""0.112""]","[1,1,1,0]",0,54,54,54,1,0,0,,,1,FALSE,,,,,,,,,,,,,,,,,,,,,,,,,,,,,,,
,614a6f434102c490f34f99e3,627c6f95b368a87425bdae66,2022-05-11_21h24.10.749,classification_task,2021.2.3,MacIntel,59.84082341,627c6715c52fd12f31907bd0,,,,,,,,,,,,,,,,,,,,,,,a,0,1.3215,"[""0.050"",""0.626"",""0.663"",""0.771""]","[1,0,1,1]",0,55,55,55,1,1,0,,,1,FALSE,,,,,,,,,,,,,,,,,,,,,,,,,,,,,,,
,614a6f434102c490f34f99e3,627c6f95b368a87425bdae66,2022-05-11_21h24.10.749,classification_task,2021.2.3,MacIntel,59.84082341,627c6715c52fd12f31907bd0,,,,,,,,,,,,,,,,,,,,,,,l,0,1.475,"[""0.240"",""0.626"",""0.703"",""0.849""]","[1,0,1,1]",0,56,56,56,1,0,1,,,1,FALSE,,,,,,,,,,,,,,,,,,,,,,,,,,,,,,,
,614a6f434102c490f34f99e3,627c6f95b368a87425bdae66,2022-05-11_21h24.10.749,classification_task,2021.2.3,MacIntel,59.84082341,627c6715c52fd12f31907bd0,,,,,,,,,,,,,,,,,,,,,,,a,0,1.5897,"[""0.581"",""0.285"",""0.547"",""0.809""]","[0,1,1,1]",0,57,57,57,1,1,1,,,1,FALSE,,,,,,,,,,,,,,,,,,,,,,,,,,,,,,,
,614a6f434102c490f34f99e3,627c6f95b368a87425bdae66,2022-05-11_21h24.10.749,classification_task,2021.2.3,MacIntel,59.84082341,627c6715c52fd12f31907bd0,,,,,,,,,,,,,,,,,,,,,,,l,0,1.5922,"[""0.197"",""0.472"",""0.112"",""0.969""]","[1,1,0,1]",0,58,58,58,1,0,0,,,1,FALSE,,,,,,,,,,,,,,,,,,,,,,,,,,,,,,,
,614a6f434102c490f34f99e3,627c6f95b368a87425bdae66,2022-05-11_21h24.10.749,classification_task,2021.2.3,MacIntel,59.84082341,627c6715c52fd12f31907bd0,,,,,,,,,,,,,,,,,,,,,,,a,0,1.5209,"[""0.050"",""0.387"",""0.663"",""0.434""]","[1,1,1,0]",0,59,59,59,1,1,0,,,1,FALSE,,,,,,,,,,,,,,,,,,,,,,,,,,,,,,,
,614a6f434102c490f34f99e3,627c6f95b368a87425bdae66,2022-05-11_21h24.10.749,classification_task,2021.2.3,MacIntel,59.84082341,627c6715c52fd12f31907bd0,,,,,,,,,,,,,,,,,,,,,,,a,1,1.6942,"[""0.197"",""0.597"",""0.910"",""0.969""]","[1,0,1,1]",0,60,60,60,1,0,0,,,1,FALSE,,,,,,,,,,,,,,,,,,,,,,,,,,,,,,,
,614a6f434102c490f34f99e3,627c6f95b368a87425bdae66,2022-05-11_21h24.10.749,classification_task,2021.2.3,MacIntel,59.84082341,627c6715c52fd12f31907bd0,,,,,,,,,,,,,,,,,,,,,,,l,1,1.1734,"[""0.156"",""0.285"",""0.100"",""0.809""]","[1,1,0,1]",0,61,61,61,1,1,1,,,1,FALSE,,,,,,,,,,,,,,,,,,,,,,,,,,,,,,,
,614a6f434102c490f34f99e3,627c6f95b368a87425bdae66,2022-05-11_21h24.10.749,classification_task,2021.2.3,MacIntel,59.84082341,627c6715c52fd12f31907bd0,,,,,,,,,,,,,,,,,,,,,,,l,1,1.5898,"[""0.156"",""0.110"",""0.547"",""0.809""]","[1,0,1,1]",0,62,62,62,1,1,1,,,1,FALSE,,,,,,,,,,,,,,,,,,,,,,,,,,,,,,,
,614a6f434102c490f34f99e3,627c6f95b368a87425bdae66,2022-05-11_21h24.10.749,classification_task,2021.2.3,MacIntel,59.84082341,627c6715c52fd12f31907bd0,,,,,,,,,,,,,,,,,,,,,,,a,1,1.2895,"[""0.240"",""0.349"",""0.434"",""0.849""]","[1,1,0,1]",0,63,63,63,1,0,1,,,1,FALSE,,,,,,,,,,,,,,,,,,,,,,,,,,,,,,,
,614a6f434102c490f34f99e3,627c6f95b368a87425bdae66,2022-05-11_21h24.10.749,classification_task,2021.2.3,MacIntel,59.84082341,627c6715c52fd12f31907bd0,,,,,,,,,,,,,,,,,,,,,,,,,,,,,,,,,,,,,,,0, ,,0,4.250785384,352.5895,0,0,0,0,1,2,1,,,,,,,,,,,,,,,,,,
,614a6f434102c490f34f99e3,627c6f95b368a87425bdae66,2022-05-11_21h24.10.749,classification_task,2021.2.3,MacIntel,59.84082341,627c6715c52fd12f31907bd0,,,,,,,,,,,,,,,,,,,,,,,,,,,,,,,,,,,,,,,1,  ,,0,2.43441358,363.6783,0,0,0,0,1,2,1,,,,,,,,,,,,,,,,,,
,614a6f434102c490f34f99e3,627c6f95b368a87425bdae66,2022-05-11_21h24.10.749,classification_task,2021.2.3,MacIntel,59.84082341,627c6715c52fd12f31907bd0,,,,,,,,,,,,,,,,,,,,,,,,,,,,,,,,,,,,,,,2,  ,,0,0,372.9505,0,0,0,0,1,2,1,,,,,,,,,,,,,,,,,,
,614a6f434102c490f34f99e3,627c6f95b368a87425bdae66,2022-05-11_21h24.10.749,classification_task,2021.2.3,MacIntel,59.84082341,627c6715c52fd12f31907bd0,,,,,,,,,,,,,,,,,,,,,,,,,,,,,,,,,,,,,,,,,,,,,0,0,0,0,1,,1,,,,,,,,,,,,,,,,,,
,614a6f434102c490f34f99e3,627c6f95b368a87425bdae66,2022-05-11_21h24.10.749,classification_task,2021.2.3,MacIntel,59.84082341,627c6715c52fd12f31907bd0,,,,,,,,,,,,,,,,,,,,,space,13.8806,l,1,2.6113,"[""0.156"",""0.285"",""0.112"",""0.809""]","[1,1,0,1]",0,0,0,0,1,1,1,,,1,FALSE,,,,,,,,,,,,,,,,,,,,,,,,,,,,,,,
,614a6f434102c490f34f99e3,627c6f95b368a87425bdae66,2022-05-11_21h24.10.749,classification_task,2021.2.3,MacIntel,59.84082341,627c6715c52fd12f31907bd0,,,,,,,,,,,,,,,,,,,,,,,a,0,1.1707,"[""0.050"",""0.387"",""0.114"",""0.771""]","[1,1,0,1]",0,1,1,1,1,1,0,,,1,FALSE,,,,,,,,,,,,,,,,,,,,,,,,,,,,,,,
,614a6f434102c490f34f99e3,627c6f95b368a87425bdae66,2022-05-11_21h24.10.749,classification_task,2021.2.3,MacIntel,59.84082341,627c6715c52fd12f31907bd0,,,,,,,,,,,,,,,,,,,,,,,l,1,2.4419,"[""0.597"",""0.387"",""0.663"",""0.771""]","[0,1,1,1]",0,2,2,2,1,1,0,,,1,FALSE,,,,,,,,,,,,,,,,,,,,,,,,,,,,,,,
,614a6f434102c490f34f99e3,627c6f95b368a87425bdae66,2022-05-11_21h24.10.749,classification_task,2021.2.3,MacIntel,59.84082341,627c6715c52fd12f31907bd0,,,,,,,,,,,,,,,,,,,,,,,a,0,1.409,"[""0.156"",""0.285"",""0.547"",""0.431""]","[1,1,1,0]",0,3,3,3,1,1,1,,,1,FALSE,,,,,,,,,,,,,,,,,,,,,,,,,,,,,,,
,614a6f434102c490f34f99e3,627c6f95b368a87425bdae66,2022-05-11_21h24.10.749,classification_task,2021.2.3,MacIntel,59.84082341,627c6715c52fd12f31907bd0,,,,,,,,,,,,,,,,,,,,,,,a,1,1.0546,"[""0.240"",""0.110"",""0.703"",""0.849""]","[1,0,1,1]",0,4,4,4,1,0,1,,,1,FALSE,,,,,,,,,,,,,,,,,,,,,,,,,,,,,,,
,614a6f434102c490f34f99e3,627c6f95b368a87425bdae66,2022-05-11_21h24.10.749,classification_task,2021.2.3,MacIntel,59.84082341,627c6715c52fd12f31907bd0,,,,,,,,,,,,,,,,,,,,,,,a,1,0.9351,"[""0.197"",""0.100"",""0.910"",""0.969""]","[1,0,1,1]",0,5,5,5,1,0,0,,,1,FALSE,,,,,,,,,,,,,,,,,,,,,,,,,,,,,,,
,614a6f434102c490f34f99e3,627c6f95b368a87425bdae66,2022-05-11_21h24.10.749,classification_task,2021.2.3,MacIntel,59.84082341,627c6715c52fd12f31907bd0,,,,,,,,,,,,,,,,,,,,,,,l,0,1.1508,"[""0.240"",""0.349"",""0.703"",""0.626""]","[1,1,1,0]",0,6,6,6,1,0,1,,,1,FALSE,,,,,,,,,,,,,,,,,,,,,,,,,,,,,,,
,614a6f434102c490f34f99e3,627c6f95b368a87425bdae66,2022-05-11_21h24.10.749,classification_task,2021.2.3,MacIntel,59.84082341,627c6715c52fd12f31907bd0,,,,,,,,,,,,,,,,,,,,,,,l,1,1.6686,"[""0.050"",""0.387"",""0.663"",""0.121""]","[1,1,1,0]",0,7,7,7,1,1,0,,,1,FALSE,,,,,,,,,,,,,,,,,,,,,,,,,,,,,,,
,614a6f434102c490f34f99e3,627c6f95b368a87425bdae66,2022-05-11_21h24.10.749,classification_task,2021.2.3,MacIntel,59.84082341,627c6715c52fd12f31907bd0,,,,,,,,,,,,,,,,,,,,,,,l,0,0.8261,"[""0.197"",""0.472"",""0.910"",""0.112""]","[1,1,1,0]",0,8,8,8,1,0,0,,,1,FALSE,,,,,,,,,,,,,,,,,,,,,,,,,,,,,,,
,614a6f434102c490f34f99e3,627c6f95b368a87425bdae66,2022-05-11_21h24.10.749,classification_task,2021.2.3,MacIntel,59.84082341,627c6715c52fd12f31907bd0,,,,,,,,,,,,,,,,,,,,,,,a,1,1.1852,"[""0.611"",""0.472"",""0.910"",""0.969""]","[0,1,1,1]",0,9,9,9,1,0,0,,,1,FALSE,,,,,,,,,,,,,,,,,,,,,,,,,,,,,,,
,614a6f434102c490f34f99e3,627c6f95b368a87425bdae66,2022-05-11_21h24.10.749,classification_task,2021.2.3,MacIntel,59.84082341,627c6715c52fd12f31907bd0,,,,,,,,,,,,,,,,,,,,,,,l,1,1.3393,"[""0.110"",""0.285"",""0.547"",""0.809""]","[0,1,1,1]",0,10,10,10,1,1,1,,,1,FALSE,,,,,,,,,,,,,,,,,,,,,,,,,,,,,,,
,614a6f434102c490f34f99e3,627c6f95b368a87425bdae66,2022-05-11_21h24.10.749,classification_task,2021.2.3,MacIntel,59.84082341,627c6715c52fd12f31907bd0,,,,,,,,,,,,,,,,,,,,,,,a,1,1.5383,"[""0.197"",""0.472"",""0.431"",""0.969""]","[1,1,0,1]",0,11,11,11,1,0,0,,,1,FALSE,,,,,,,,,,,,,,,,,,,,,,,,,,,,,,,
,614a6f434102c490f34f99e3,627c6f95b368a87425bdae66,2022-05-11_21h24.10.749,classification_task,2021.2.3,MacIntel,59.84082341,627c6715c52fd12f31907bd0,,,,,,,,,,,,,,,,,,,,,,,l,0,1.146,"[""0.594"",""0.349"",""0.703"",""0.849""]","[0,1,1,1]",0,12,12,12,1,0,1,,,1,FALSE,,,,,,,,,,,,,,,,,,,,,,,,,,,,,,,
,614a6f434102c490f34f99e3,627c6f95b368a87425bdae66,2022-05-11_21h24.10.749,classification_task,2021.2.3,MacIntel,59.84082341,627c6715c52fd12f31907bd0,,,,,,,,,,,,,,,,,,,,,,,l,0,0.9699,"[""0.240"",""0.349"",""0.597"",""0.849""]","[1,1,0,1]",0,13,13,13,1,0,1,,,1,FALSE,,,,,,,,,,,,,,,,,,,,,,,,,,,,,,,
,614a6f434102c490f34f99e3,627c6f95b368a87425bdae66,2022-05-11_21h24.10.749,classification_task,2021.2.3,MacIntel,59.84082341,627c6715c52fd12f31907bd0,,,,,,,,,,,,,,,,,,,,,,,l,1,0.871,"[""0.156"",""0.431"",""0.547"",""0.809""]","[1,0,1,1]",0,14,14,14,1,1,1,,,1,FALSE,,,,,,,,,,,,,,,,,,,,,,,,,,,,,,,
,614a6f434102c490f34f99e3,627c6f95b368a87425bdae66,2022-05-11_21h24.10.749,classification_task,2021.2.3,MacIntel,59.84082341,627c6715c52fd12f31907bd0,,,,,,,,,,,,,,,,,,,,,,,a,0,0.9217,"[""0.050"",""0.626"",""0.663"",""0.771""]","[1,0,1,1]",0,15,15,15,1,1,0,,,1,FALSE,,,,,,,,,,,,,,,,,,,,,,,,,,,,,,,
,614a6f434102c490f34f99e3,627c6f95b368a87425bdae66,2022-05-11_21h24.10.749,classification_task,2021.2.3,MacIntel,59.84082341,627c6715c52fd12f31907bd0,,,,,,,,,,,,,,,,,,,,,,,l,1,0.9937,"[""0.050"",""0.387"",""0.100"",""0.771""]","[1,1,0,1]",0,16,16,16,1,1,0,,,1,FALSE,,,,,,,,,,,,,,,,,,,,,,,,,,,,,,,
,614a6f434102c490f34f99e3,627c6f95b368a87425bdae66,2022-05-11_21h24.10.749,classification_task,2021.2.3,MacIntel,59.84082341,627c6715c52fd12f31907bd0,,,,,,,,,,,,,,,,,,,,,,,l,0,1.0888,"[""0.240"",""0.581"",""0.703"",""0.849""]","[1,0,1,1]",0,17,17,17,1,0,1,,,1,FALSE,,,,,,,,,,,,,,,,,,,,,,,,,,,,,,,
,614a6f434102c490f34f99e3,627c6f95b368a87425bdae66,2022-05-11_21h24.10.749,classification_task,2021.2.3,MacIntel,59.84082341,627c6715c52fd12f31907bd0,,,,,,,,,,,,,,,,,,,,,,,a,1,0.7253,"[""0.240"",""0.349"",""0.703"",""0.114""]","[1,1,1,0]",0,18,18,18,1,0,1,,,1,FALSE,,,,,,,,,,,,,,,,,,,,,,,,,,,,,,,
,614a6f434102c490f34f99e3,627c6f95b368a87425bdae66,2022-05-11_21h24.10.749,classification_task,2021.2.3,MacIntel,59.84082341,627c6715c52fd12f31907bd0,,,,,,,,,,,,,,,,,,,,,,,l,0,1.1385,"[""0.626"",""0.349"",""0.703"",""0.849""]","[0,1,1,1]",0,19,19,19,1,0,1,,,1,FALSE,,,,,,,,,,,,,,,,,,,,,,,,,,,,,,,
,614a6f434102c490f34f99e3,627c6f95b368a87425bdae66,2022-05-11_21h24.10.749,classification_task,2021.2.3,MacIntel,59.84082341,627c6715c52fd12f31907bd0,,,,,,,,,,,,,,,,,,,,,,,a,0,0.6743,"[""0.156"",""0.285"",""0.547"",""0.114""]","[1,1,1,0]",0,20,20,20,1,1,1,,,1,FALSE,,,,,,,,,,,,,,,,,,,,,,,,,,,,,,,
,614a6f434102c490f34f99e3,627c6f95b368a87425bdae66,2022-05-11_21h24.10.749,classification_task,2021.2.3,MacIntel,59.84082341,627c6715c52fd12f31907bd0,,,,,,,,,,,,,,,,,,,,,,,l,0,1.7883,"[""0.197"",""0.472"",""0.112"",""0.969""]","[1,1,0,1]",0,21,21,21,1,0,0,,,1,FALSE,,,,,,,,,,,,,,,,,,,,,,,,,,,,,,,
,614a6f434102c490f34f99e3,627c6f95b368a87425bdae66,2022-05-11_21h24.10.749,classification_task,2021.2.3,MacIntel,59.84082341,627c6715c52fd12f31907bd0,,,,,,,,,,,,,,,,,,,,,,,l,0,0.8189,"[""0.197"",""0.581"",""0.910"",""0.969""]","[1,0,1,1]",0,22,22,22,1,0,0,,,1,FALSE,,,,,,,,,,,,,,,,,,,,,,,,,,,,,,,
,614a6f434102c490f34f99e3,627c6f95b368a87425bdae66,2022-05-11_21h24.10.749,classification_task,2021.2.3,MacIntel,59.84082341,627c6715c52fd12f31907bd0,,,,,,,,,,,,,,,,,,,,,,,a,0,0.4843,"[""0.050"",""0.387"",""0.663"",""0.431""]","[1,1,1,0]",0,23,23,23,1,1,0,,,1,FALSE,,,,,,,,,,,,,,,,,,,,,,,,,,,,,,,
,614a6f434102c490f34f99e3,627c6f95b368a87425bdae66,2022-05-11_21h24.10.749,classification_task,2021.2.3,MacIntel,59.84082341,627c6715c52fd12f31907bd0,,,,,,,,,,,,,,,,,,,,,,,l,1,2.1743,"[""0.594"",""0.387"",""0.663"",""0.771""]","[0,1,1,1]",0,24,24,24,1,1,0,,,1,FALSE,,,,,,,,,,,,,,,,,,,,,,,,,,,,,,,
,614a6f434102c490f34f99e3,627c6f95b368a87425bdae66,2022-05-11_21h24.10.749,classification_task,2021.2.3,MacIntel,59.84082341,627c6715c52fd12f31907bd0,,,,,,,,,,,,,,,,,,,,,,,l,0,1.5756,"[""0.197"",""0.472"",""0.910"",""0.093""]","[1,1,1,0]",0,25,25,25,1,0,0,,,1,FALSE,,,,,,,,,,,,,,,,,,,,,,,,,,,,,,,
,614a6f434102c490f34f99e3,627c6f95b368a87425bdae66,2022-05-11_21h24.10.749,classification_task,2021.2.3,MacIntel,59.84082341,627c6715c52fd12f31907bd0,,,,,,,,,,,,,,,,,,,,,,,a,0,0.854,"[""0.156"",""0.285"",""0.612"",""0.809""]","[1,1,0,1]",0,26,26,26,1,1,1,,,1,FALSE,,,,,,,,,,,,,,,,,,,,,,,,,,,,,,,
,614a6f434102c490f34f99e3,627c6f95b368a87425bdae66,2022-05-11_21h24.10.749,classification_task,2021.2.3,MacIntel,59.84082341,627c6715c52fd12f31907bd0,,,,,,,,,,,,,,,,,,,,,,,a,0,1.0374,"[""0.050"",""0.093"",""0.663"",""0.771""]","[1,0,1,1]",0,27,27,27,1,1,0,,,1,FALSE,,,,,,,,,,,,,,,,,,,,,,,,,,,,,,,
,614a6f434102c490f34f99e3,627c6f95b368a87425bdae66,2022-05-11_21h24.10.749,classification_task,2021.2.3,MacIntel,59.84082341,627c6715c52fd12f31907bd0,,,,,,,,,,,,,,,,,,,,,,,l,1,1.1874,"[""0.156"",""0.428"",""0.547"",""0.809""]","[1,0,1,1]",0,28,28,28,1,1,1,,,1,FALSE,,,,,,,,,,,,,,,,,,,,,,,,,,,,,,,
,614a6f434102c490f34f99e3,627c6f95b368a87425bdae66,2022-05-11_21h24.10.749,classification_task,2021.2.3,MacIntel,59.84082341,627c6715c52fd12f31907bd0,,,,,,,,,,,,,,,,,,,,,,,l,1,0.7703,"[""0.112"",""0.285"",""0.547"",""0.809""]","[0,1,1,1]",0,29,29,29,1,1,1,,,1,FALSE,,,,,,,,,,,,,,,,,,,,,,,,,,,,,,,
,614a6f434102c490f34f99e3,627c6f95b368a87425bdae66,2022-05-11_21h24.10.749,classification_task,2021.2.3,MacIntel,59.84082341,627c6715c52fd12f31907bd0,,,,,,,,,,,,,,,,,,,,,,,l,0,0.8684,"[""0.240"",""0.349"",""0.597"",""0.849""]","[1,1,0,1]",0,30,30,30,1,0,1,,,1,FALSE,,,,,,,,,,,,,,,,,,,,,,,,,,,,,,,
,614a6f434102c490f34f99e3,627c6f95b368a87425bdae66,2022-05-11_21h24.10.749,classification_task,2021.2.3,MacIntel,59.84082341,627c6715c52fd12f31907bd0,,,,,,,,,,,,,,,,,,,,,,,a,1,1.003,"[""0.114"",""0.472"",""0.910"",""0.969""]","[0,1,1,1]",0,31,31,31,1,0,0,,,1,FALSE,,,,,,,,,,,,,,,,,,,,,,,,,,,,,,,
,614a6f434102c490f34f99e3,627c6f95b368a87425bdae66,2022-05-11_21h24.10.749,classification_task,2021.2.3,MacIntel,59.84082341,627c6715c52fd12f31907bd0,,,,,,,,,,,,,,,,,,,,,,,a,0,0.7348,"[""0.612"",""0.387"",""0.663"",""0.771""]","[0,1,1,1]",0,32,32,32,1,1,0,,,1,FALSE,,,,,,,,,,,,,,,,,,,,,,,,,,,,,,,
,614a6f434102c490f34f99e3,627c6f95b368a87425bdae66,2022-05-11_21h24.10.749,classification_task,2021.2.3,MacIntel,59.84082341,627c6715c52fd12f31907bd0,,,,,,,,,,,,,,,,,,,,,,,l,1,1.1562,"[""0.050"",""0.387"",""0.626"",""0.771""]","[1,1,0,1]",0,33,33,33,1,1,0,,,1,FALSE,,,,,,,,,,,,,,,,,,,,,,,,,,,,,,,
,614a6f434102c490f34f99e3,627c6f95b368a87425bdae66,2022-05-11_21h24.10.749,classification_task,2021.2.3,MacIntel,59.84082341,627c6715c52fd12f31907bd0,,,,,,,,,,,,,,,,,,,,,,,l,0,1.8546,"[""0.240"",""0.349"",""0.626"",""0.849""]","[1,1,0,1]",0,34,34,34,1,0,1,,,1,FALSE,,,,,,,,,,,,,,,,,,,,,,,,,,,,,,,
,614a6f434102c490f34f99e3,627c6f95b368a87425bdae66,2022-05-11_21h24.10.749,classification_task,2021.2.3,MacIntel,59.84082341,627c6715c52fd12f31907bd0,,,,,,,,,,,,,,,,,,,,,,,a,0,0.7519,"[""0.050"",""0.112"",""0.663"",""0.771""]","[1,0,1,1]",0,35,35,35,1,1,0,,,1,FALSE,,,,,,,,,,,,,,,,,,,,,,,,,,,,,,,
,614a6f434102c490f34f99e3,627c6f95b368a87425bdae66,2022-05-11_21h24.10.749,classification_task,2021.2.3,MacIntel,59.84082341,627c6715c52fd12f31907bd0,,,,,,,,,,,,,,,,,,,,,,,a,0,1.3571,"[""0.434"",""0.285"",""0.547"",""0.809""]","[0,1,1,1]",0,36,36,36,1,1,1,,,1,FALSE,,,,,,,,,,,,,,,,,,,,,,,,,,,,,,,
,614a6f434102c490f34f99e3,627c6f95b368a87425bdae66,2022-05-11_21h24.10.749,classification_task,2021.2.3,MacIntel,59.84082341,627c6715c52fd12f31907bd0,,,,,,,,,,,,,,,,,,,,,,,l,0,0.5691,"[""0.197"",""0.472"",""0.611"",""0.969""]","[1,1,0,1]",0,37,37,37,1,0,0,,,1,FALSE,,,,,,,,,,,,,,,,,,,,,,,,,,,,,,,
,614a6f434102c490f34f99e3,627c6f95b368a87425bdae66,2022-05-11_21h24.10.749,classification_task,2021.2.3,MacIntel,59.84082341,627c6715c52fd12f31907bd0,,,,,,,,,,,,,,,,,,,,,,,l,0,1.8222,"[""0.597"",""0.349"",""0.703"",""0.849""]","[0,1,1,1]",0,38,38,38,1,0,1,,,1,FALSE,,,,,,,,,,,,,,,,,,,,,,,,,,,,,,,
,614a6f434102c490f34f99e3,627c6f95b368a87425bdae66,2022-05-11_21h24.10.749,classification_task,2021.2.3,MacIntel,59.84082341,627c6715c52fd12f31907bd0,,,,,,,,,,,,,,,,,,,,,,,a,0,0.4771,"[""0.050"",""0.387"",""0.663"",""0.431""]","[1,1,1,0]",0,39,39,39,1,1,0,,,1,FALSE,,,,,,,,,,,,,,,,,,,,,,,,,,,,,,,
,614a6f434102c490f34f99e3,627c6f95b368a87425bdae66,2022-05-11_21h24.10.749,classification_task,2021.2.3,MacIntel,59.84082341,627c6715c52fd12f31907bd0,,,,,,,,,,,,,,,,,,,,,,,l,0,2.6718,"[""0.197"",""0.472"",""0.910"",""0.581""]","[1,1,1,0]",0,40,40,40,1,0,0,,,1,FALSE,,,,,,,,,,,,,,,,,,,,,,,,,,,,,,,
,614a6f434102c490f34f99e3,627c6f95b368a87425bdae66,2022-05-11_21h24.10.749,classification_task,2021.2.3,MacIntel,59.84082341,627c6715c52fd12f31907bd0,,,,,,,,,,,,,,,,,,,,,,,a,1,1.1564,"[""0.240"",""0.121"",""0.703"",""0.849""]","[1,0,1,1]",0,41,41,41,1,0,1,,,1,FALSE,,,,,,,,,,,,,,,,,,,,,,,,,,,,,,,
,614a6f434102c490f34f99e3,627c6f95b368a87425bdae66,2022-05-11_21h24.10.749,classification_task,2021.2.3,MacIntel,59.84082341,627c6715c52fd12f31907bd0,,,,,,,,,,,,,,,,,,,,,,,a,0,1.32,"[""0.156"",""0.612"",""0.547"",""0.809""]","[1,0,1,1]",0,42,42,42,1,1,1,,,1,FALSE,,,,,,,,,,,,,,,,,,,,,,,,,,,,,,,
,614a6f434102c490f34f99e3,627c6f95b368a87425bdae66,2022-05-11_21h24.10.749,classification_task,2021.2.3,MacIntel,59.84082341,627c6715c52fd12f31907bd0,,,,,,,,,,,,,,,,,,,,,,,a,0,0.6056,"[""0.156"",""0.285"",""0.547"",""0.112""]","[1,1,1,0]",0,43,43,43,1,1,1,,,1,FALSE,,,,,,,,,,,,,,,,,,,,,,,,,,,,,,,
,614a6f434102c490f34f99e3,627c6f95b368a87425bdae66,2022-05-11_21h24.10.749,classification_task,2021.2.3,MacIntel,59.84082341,627c6715c52fd12f31907bd0,,,,,,,,,,,,,,,,,,,,,,,l,0,0.603,"[""0.240"",""0.349"",""0.703"",""0.428""]","[1,1,1,0]",0,44,44,44,1,0,1,,,1,FALSE,,,,,,,,,,,,,,,,,,,,,,,,,,,,,,,
,614a6f434102c490f34f99e3,627c6f95b368a87425bdae66,2022-05-11_21h24.10.749,classification_task,2021.2.3,MacIntel,59.84082341,627c6715c52fd12f31907bd0,,,,,,,,,,,,,,,,,,,,,,,l,1,3.3094,"[""0.156"",""0.285"",""0.112"",""0.809""]","[1,1,0,1]",0,45,45,45,1,1,1,,,1,FALSE,,,,,,,,,,,,,,,,,,,,,,,,,,,,,,,
,614a6f434102c490f34f99e3,627c6f95b368a87425bdae66,2022-05-11_21h24.10.749,classification_task,2021.2.3,MacIntel,59.84082341,627c6715c52fd12f31907bd0,,,,,,,,,,,,,,,,,,,,,,,l,0,1.6732,"[""0.110"",""0.472"",""0.910"",""0.969""]","[0,1,1,1]",0,46,46,46,1,0,0,,,1,FALSE,,,,,,,,,,,,,,,,,,,,,,,,,,,,,,,
,614a6f434102c490f34f99e3,627c6f95b368a87425bdae66,2022-05-11_21h24.10.749,classification_task,2021.2.3,MacIntel,59.84082341,627c6715c52fd12f31907bd0,,,,,,,,,,,,,,,,,,,,,,,a,1,0.9408,"[""0.197"",""0.597"",""0.910"",""0.969""]","[1,0,1,1]",0,47,47,47,1,0,0,,,1,FALSE,,,,,,,,,,,,,,,,,,,,,,,,,,,,,,,
,614a6f434102c490f34f99e3,627c6f95b368a87425bdae66,2022-05-11_21h24.10.749,classification_task,2021.2.3,MacIntel,59.84082341,627c6715c52fd12f31907bd0,,,,,,,,,,,,,,,,,,,,,,,a,1,1.089,"[""0.197"",""0.472"",""0.100"",""0.969""]","[1,1,0,1]",0,48,48,48,1,0,0,,,1,FALSE,,,,,,,,,,,,,,,,,,,,,,,,,,,,,,,
,614a6f434102c490f34f99e3,627c6f95b368a87425bdae66,2022-05-11_21h24.10.749,classification_task,2021.2.3,MacIntel,59.84082341,627c6715c52fd12f31907bd0,,,,,,,,,,,,,,,,,,,,,,,a,1,1.2875,"[""0.240"",""0.093"",""0.703"",""0.849""]","[1,0,1,1]",0,49,49,49,1,0,1,,,1,FALSE,,,,,,,,,,,,,,,,,,,,,,,,,,,,,,,
,614a6f434102c490f34f99e3,627c6f95b368a87425bdae66,2022-05-11_21h24.10.749,classification_task,2021.2.3,MacIntel,59.84082341,627c6715c52fd12f31907bd0,,,,,,,,,,,,,,,,,,,,,,,l,1,0.8188,"[""0.156"",""0.114"",""0.547"",""0.809""]","[1,0,1,1]",0,50,50,50,1,1,1,,,1,FALSE,,,,,,,,,,,,,,,,,,,,,,,,,,,,,,,
,614a6f434102c490f34f99e3,627c6f95b368a87425bdae66,2022-05-11_21h24.10.749,classification_task,2021.2.3,MacIntel,59.84082341,627c6715c52fd12f31907bd0,,,,,,,,,,,,,,,,,,,,,,,a,0,1.2199,"[""0.050"",""0.428"",""0.663"",""0.771""]","[1,0,1,1]",0,51,51,51,1,1,0,,,1,FALSE,,,,,,,,,,,,,,,,,,,,,,,,,,,,,,,
,614a6f434102c490f34f99e3,627c6f95b368a87425bdae66,2022-05-11_21h24.10.749,classification_task,2021.2.3,MacIntel,59.84082341,627c6715c52fd12f31907bd0,,,,,,,,,,,,,,,,,,,,,,,a,0,1.288,"[""0.431"",""0.387"",""0.663"",""0.771""]","[0,1,1,1]",0,52,52,52,1,1,0,,,1,FALSE,,,,,,,,,,,,,,,,,,,,,,,,,,,,,,,
,614a6f434102c490f34f99e3,627c6f95b368a87425bdae66,2022-05-11_21h24.10.749,classification_task,2021.2.3,MacIntel,59.84082341,627c6715c52fd12f31907bd0,,,,,,,,,,,,,,,,,,,,,,,l,0,0.8938,"[""0.240"",""0.349"",""0.703"",""0.434""]","[1,1,1,0]",0,53,53,53,1,0,1,,,1,FALSE,,,,,,,,,,,,,,,,,,,,,,,,,,,,,,,
,614a6f434102c490f34f99e3,627c6f95b368a87425bdae66,2022-05-11_21h24.10.749,classification_task,2021.2.3,MacIntel,59.84082341,627c6715c52fd12f31907bd0,,,,,,,,,,,,,,,,,,,,,,,a,1,0.8749,"[""0.240"",""0.349"",""0.597"",""0.849""]","[1,1,0,1]",0,54,54,54,1,0,1,,,1,FALSE,,,,,,,,,,,,,,,,,,,,,,,,,,,,,,,
,614a6f434102c490f34f99e3,627c6f95b368a87425bdae66,2022-05-11_21h24.10.749,classification_task,2021.2.3,MacIntel,59.84082341,627c6715c52fd12f31907bd0,,,,,,,,,,,,,,,,,,,,,,,l,1,1.7052,"[""0.100"",""0.285"",""0.547"",""0.809""]","[0,1,1,1]",0,55,55,55,1,1,1,,,1,FALSE,,,,,,,,,,,,,,,,,,,,,,,,,,,,,,,
,614a6f434102c490f34f99e3,627c6f95b368a87425bdae66,2022-05-11_21h24.10.749,classification_task,2021.2.3,MacIntel,59.84082341,627c6715c52fd12f31907bd0,,,,,,,,,,,,,,,,,,,,,,,l,0,1.1386,"[""0.197"",""0.110"",""0.910"",""0.969""]","[1,0,1,1]",0,56,56,56,1,0,0,,,1,FALSE,,,,,,,,,,,,,,,,,,,,,,,,,,,,,,,
,614a6f434102c490f34f99e3,627c6f95b368a87425bdae66,2022-05-11_21h24.10.749,classification_task,2021.2.3,MacIntel,59.84082341,627c6715c52fd12f31907bd0,,,,,,,,,,,,,,,,,,,,,,,a,1,0.7099,"[""0.626"",""0.472"",""0.910"",""0.969""]","[0,1,1,1]",0,57,57,57,1,0,0,,,1,FALSE,,,,,,,,,,,,,,,,,,,,,,,,,,,,,,,
,614a6f434102c490f34f99e3,627c6f95b368a87425bdae66,2022-05-11_21h24.10.749,classification_task,2021.2.3,MacIntel,59.84082341,627c6715c52fd12f31907bd0,,,,,,,,,,,,,,,,,,,,,,,l,0,0.9156,"[""0.197"",""0.472"",""0.910"",""0.612""]","[1,1,1,0]",0,58,58,58,1,0,0,,,1,FALSE,,,,,,,,,,,,,,,,,,,,,,,,,,,,,,,
,614a6f434102c490f34f99e3,627c6f95b368a87425bdae66,2022-05-11_21h24.10.749,classification_task,2021.2.3,MacIntel,59.84082341,627c6715c52fd12f31907bd0,,,,,,,,,,,,,,,,,,,,,,,a,0,0.9739,"[""0.050"",""0.387"",""0.663"",""0.431""]","[1,1,1,0]",0,59,59,59,1,1,0,,,1,FALSE,,,,,,,,,,,,,,,,,,,,,,,,,,,,,,,
,614a6f434102c490f34f99e3,627c6f95b368a87425bdae66,2022-05-11_21h24.10.749,classification_task,2021.2.3,MacIntel,59.84082341,627c6715c52fd12f31907bd0,,,,,,,,,,,,,,,,,,,,,,,l,0,0.7699,"[""0.112"",""0.349"",""0.703"",""0.849""]","[0,1,1,1]",0,60,60,60,1,0,1,,,1,FALSE,,,,,,,,,,,,,,,,,,,,,,,,,,,,,,,
,614a6f434102c490f34f99e3,627c6f95b368a87425bdae66,2022-05-11_21h24.10.749,classification_task,2021.2.3,MacIntel,59.84082341,627c6715c52fd12f31907bd0,,,,,,,,,,,,,,,,,,,,,,,a,0,0.801,"[""0.156"",""0.285"",""0.547"",""0.100""]","[1,1,1,0]",0,61,61,61,1,1,1,,,1,FALSE,,,,,,,,,,,,,,,,,,,,,,,,,,,,,,,
,614a6f434102c490f34f99e3,627c6f95b368a87425bdae66,2022-05-11_21h24.10.749,classification_task,2021.2.3,MacIntel,59.84082341,627c6715c52fd12f31907bd0,,,,,,,,,,,,,,,,,,,,,,,l,1,0.9178,"[""0.156"",""0.285"",""0.100"",""0.809""]","[1,1,0,1]",0,62,62,62,1,1,1,,,1,FALSE,,,,,,,,,,,,,,,,,,,,,,,,,,,,,,,
,614a6f434102c490f34f99e3,627c6f95b368a87425bdae66,2022-05-11_21h24.10.749,classification_task,2021.2.3,MacIntel,59.84082341,627c6715c52fd12f31907bd0,,,,,,,,,,,,,,,,,,,,,,,l,1,1.805,"[""0.050"",""0.387"",""0.112"",""0.771""]","[1,1,0,1]",0,63,63,63,1,1,0,,,1,FALSE,,,,,,,,,,,,,,,,,,,,,,,,,,,,,,,
,614a6f434102c490f34f99e3,627c6f95b368a87425bdae66,2022-05-11_21h24.10.749,classification_task,2021.2.3,MacIntel,59.84082341,627c6715c52fd12f31907bd0,,,,,,,,,,,,,,,,,,,,,,,,,,,,,,,,,,,,,,,0, ,,0,1.89463459,164.2776,0,1,1,1,1,2,2,,,,,,,,,,,,,,,,,,
,614a6f434102c490f34f99e3,627c6f95b368a87425bdae66,2022-05-11_21h24.10.749,classification_task,2021.2.3,MacIntel,59.84082341,627c6715c52fd12f31907bd0,,,,,,,,,,,,,,,,,,,,,,,,,,,,,,,,,,,,,,,1,  ,,0,4.097268151,167.1686,0,1,1,1,1,2,2,,,,,,,,,,,,,,,,,,
,614a6f434102c490f34f99e3,627c6f95b368a87425bdae66,2022-05-11_21h24.10.749,classification_task,2021.2.3,MacIntel,59.84082341,627c6715c52fd12f31907bd0,,,,,,,,,,,,,,,,,,,,,,,,,,,,,,,,,,,,,,,2,  ,,0,2.578170929,169.3228,0,1,1,1,1,2,2,,,,,,,,,,,,,,,,,,
,614a6f434102c490f34f99e3,627c6f95b368a87425bdae66,2022-05-11_21h24.10.749,classification_task,2021.2.3,MacIntel,59.84082341,627c6715c52fd12f31907bd0,,,,,,,,,,,,,,,,,,,,,,,,,,,,,,,,,,,,,,,,,,,,,0,1,1,1,1,,2,,,,,,,,,,,,,,,,,,
,614a6f434102c490f34f99e3,627c6f95b368a87425bdae66,2022-05-11_21h24.10.749,classification_task,2021.2.3,MacIntel,59.84082341,627c6715c52fd12f31907bd0,,,,,,,,,,,,,,,,,,,,,space,9.7955,a,0,2.3164,"[""0.156"",""0.285"",""0.547"",""0.100""]","[1,1,1,0]",0,0,0,0,1,1,1,,,1,FALSE,,,,,,,,,,,,,,,,,,,,,,,,,,,,,,,
,614a6f434102c490f34f99e3,627c6f95b368a87425bdae66,2022-05-11_21h24.10.749,classification_task,2021.2.3,MacIntel,59.84082341,627c6715c52fd12f31907bd0,,,,,,,,,,,,,,,,,,,,,,,a,0,2.204,"[""0.156"",""0.285"",""0.110"",""0.809""]","[1,1,0,1]",0,1,1,1,1,1,1,,,1,FALSE,,,,,,,,,,,,,,,,,,,,,,,,,,,,,,,
,614a6f434102c490f34f99e3,627c6f95b368a87425bdae66,2022-05-11_21h24.10.749,classification_task,2021.2.3,MacIntel,59.84082341,627c6715c52fd12f31907bd0,,,,,,,,,,,,,,,,,,,,,,,l,1,1.1861,"[""0.050"",""0.387"",""0.093"",""0.771""]","[1,1,0,1]",0,2,2,2,1,1,0,,,1,FALSE,,,,,,,,,,,,,,,,,,,,,,,,,,,,,,,
,614a6f434102c490f34f99e3,627c6f95b368a87425bdae66,2022-05-11_21h24.10.749,classification_task,2021.2.3,MacIntel,59.84082341,627c6715c52fd12f31907bd0,,,,,,,,,,,,,,,,,,,,,,,l,0,1.54,"[""0.240"",""0.349"",""0.112"",""0.849""]","[1,1,0,1]",0,3,3,3,1,0,1,,,1,FALSE,,,,,,,,,,,,,,,,,,,,,,,,,,,,,,,
,614a6f434102c490f34f99e3,627c6f95b368a87425bdae66,2022-05-11_21h24.10.749,classification_task,2021.2.3,MacIntel,59.84082341,627c6715c52fd12f31907bd0,,,,,,,,,,,,,,,,,,,,,,,a,1,1.1051,"[""0.197"",""0.472"",""0.910"",""0.093""]","[1,1,1,0]",0,4,4,4,1,0,0,,,1,FALSE,,,,,,,,,,,,,,,,,,,,,,,,,,,,,,,
,614a6f434102c490f34f99e3,627c6f95b368a87425bdae66,2022-05-11_21h24.10.749,classification_task,2021.2.3,MacIntel,59.84082341,627c6715c52fd12f31907bd0,,,,,,,,,,,,,,,,,,,,,,,l,0,1.5374,"[""0.240"",""0.112"",""0.703"",""0.849""]","[1,0,1,1]",0,5,5,5,1,0,1,,,1,FALSE,,,,,,,,,,,,,,,,,,,,,,,,,,,,,,,
,614a6f434102c490f34f99e3,627c6f95b368a87425bdae66,2022-05-11_21h24.10.749,classification_task,2021.2.3,MacIntel,59.84082341,627c6715c52fd12f31907bd0,,,,,,,,,,,,,,,,,,,,,,,a,1,1.7566,"[""0.240"",""0.349"",""0.703"",""0.100""]","[1,1,1,0]",0,6,6,6,1,0,1,,,1,FALSE,,,,,,,,,,,,,,,,,,,,,,,,,,,,,,,
,614a6f434102c490f34f99e3,627c6f95b368a87425bdae66,2022-05-11_21h24.10.749,classification_task,2021.2.3,MacIntel,59.84082341,627c6715c52fd12f31907bd0,,,,,,,,,,,,,,,,,,,,,,,l,1,1.1399,"[""0.050"",""0.100"",""0.663"",""0.771""]","[1,0,1,1]",0,7,7,7,1,1,0,,,1,FALSE,,,,,,,,,,,,,,,,,,,,,,,,,,,,,,,
,614a6f434102c490f34f99e3,627c6f95b368a87425bdae66,2022-05-11_21h24.10.749,classification_task,2021.2.3,MacIntel,59.84082341,627c6715c52fd12f31907bd0,,,,,,,,,,,,,,,,,,,,,,,l,1,1.9367,"[""0.121"",""0.285"",""0.547"",""0.809""]","[0,1,1,1]",0,8,8,8,1,1,1,,,1,FALSE,,,,,,,,,,,,,,,,,,,,,,,,,,,,,,,
,614a6f434102c490f34f99e3,627c6f95b368a87425bdae66,2022-05-11_21h24.10.749,classification_task,2021.2.3,MacIntel,59.84082341,627c6715c52fd12f31907bd0,,,,,,,,,,,,,,,,,,,,,,,a,1,0.8688,"[""0.197"",""0.472"",""0.112"",""0.969""]","[1,1,0,1]",0,9,9,9,1,0,0,,,1,FALSE,,,,,,,,,,,,,,,,,,,,,,,,,,,,,,,
,614a6f434102c490f34f99e3,627c6f95b368a87425bdae66,2022-05-11_21h24.10.749,classification_task,2021.2.3,MacIntel,59.84082341,627c6715c52fd12f31907bd0,,,,,,,,,,,,,,,,,,,,,,,a,0,1.1366,"[""0.156"",""0.612"",""0.547"",""0.809""]","[1,0,1,1]",0,10,10,10,1,1,1,,,1,FALSE,,,,,,,,,,,,,,,,,,,,,,,,,,,,,,,
,614a6f434102c490f34f99e3,627c6f95b368a87425bdae66,2022-05-11_21h24.10.749,classification_task,2021.2.3,MacIntel,59.84082341,627c6715c52fd12f31907bd0,,,,,,,,,,,,,,,,,,,,,,,l,0,1.2385,"[""0.112"",""0.349"",""0.703"",""0.849""]","[0,1,1,1]",0,11,11,11,1,0,1,,,1,FALSE,,,,,,,,,,,,,,,,,,,,,,,,,,,,,,,
,614a6f434102c490f34f99e3,627c6f95b368a87425bdae66,2022-05-11_21h24.10.749,classification_task,2021.2.3,MacIntel,59.84082341,627c6715c52fd12f31907bd0,,,,,,,,,,,,,,,,,,,,,,,a,1,0.8734,"[""0.197"",""0.100"",""0.910"",""0.969""]","[1,0,1,1]",0,12,12,12,1,0,0,,,1,FALSE,,,,,,,,,,,,,,,,,,,,,,,,,,,,,,,
,614a6f434102c490f34f99e3,627c6f95b368a87425bdae66,2022-05-11_21h24.10.749,classification_task,2021.2.3,MacIntel,59.84082341,627c6715c52fd12f31907bd0,,,,,,,,,,,,,,,,,,,,,,,l,0,0.8231,"[""0.093"",""0.472"",""0.910"",""0.969""]","[0,1,1,1]",0,13,13,13,1,0,0,,,1,FALSE,,,,,,,,,,,,,,,,,,,,,,,,,,,,,,,
,614a6f434102c490f34f99e3,627c6f95b368a87425bdae66,2022-05-11_21h24.10.749,classification_task,2021.2.3,MacIntel,59.84082341,627c6715c52fd12f31907bd0,,,,,,,,,,,,,,,,,,,,,,,l,1,1.515,"[""0.121"",""0.387"",""0.663"",""0.771""]","[0,1,1,1]",0,14,14,14,1,1,0,,,1,FALSE,,,,,,,,,,,,,,,,,,,,,,,,,,,,,,,
,614a6f434102c490f34f99e3,627c6f95b368a87425bdae66,2022-05-11_21h24.10.749,classification_task,2021.2.3,MacIntel,59.84082341,627c6715c52fd12f31907bd0,,,,,,,,,,,,,,,,,,,,,,,a,0,0.771,"[""0.050"",""0.387"",""0.663"",""0.612""]","[1,1,1,0]",0,15,15,15,1,1,0,,,1,FALSE,,,,,,,,,,,,,,,,,,,,,,,,,,,,,,,
,614a6f434102c490f34f99e3,627c6f95b368a87425bdae66,2022-05-11_21h24.10.749,classification_task,2021.2.3,MacIntel,59.84082341,627c6715c52fd12f31907bd0,,,,,,,,,,,,,,,,,,,,,,,l,1,1.076,"[""0.581"",""0.387"",""0.663"",""0.771""]","[0,1,1,1]",0,16,16,16,1,1,0,,,1,FALSE,,,,,,,,,,,,,,,,,,,,,,,,,,,,,,,
,614a6f434102c490f34f99e3,627c6f95b368a87425bdae66,2022-05-11_21h24.10.749,classification_task,2021.2.3,MacIntel,59.84082341,627c6715c52fd12f31907bd0,,,,,,,,,,,,,,,,,,,,,,,l,1,1.3734,"[""0.156"",""0.285"",""0.434"",""0.809""]","[1,1,0,1]",0,17,17,17,1,1,1,,,1,FALSE,,,,,,,,,,,,,,,,,,,,,,,,,,,,,,,
,614a6f434102c490f34f99e3,627c6f95b368a87425bdae66,2022-05-11_21h24.10.749,classification_task,2021.2.3,MacIntel,59.84082341,627c6715c52fd12f31907bd0,,,,,,,,,,,,,,,,,,,,,,,a,0,0.8901,"[""0.431"",""0.285"",""0.547"",""0.809""]","[0,1,1,1]",0,18,18,18,1,1,1,,,1,FALSE,,,,,,,,,,,,,,,,,,,,,,,,,,,,,,,
,614a6f434102c490f34f99e3,627c6f95b368a87425bdae66,2022-05-11_21h24.10.749,classification_task,2021.2.3,MacIntel,59.84082341,627c6715c52fd12f31907bd0,,,,,,,,,,,,,,,,,,,,,,,a,1,0.8248,"[""0.112"",""0.349"",""0.703"",""0.849""]","[0,1,1,1]",0,19,19,19,1,0,1,,,1,FALSE,,,,,,,,,,,,,,,,,,,,,,,,,,,,,,,
,614a6f434102c490f34f99e3,627c6f95b368a87425bdae66,2022-05-11_21h24.10.749,classification_task,2021.2.3,MacIntel,59.84082341,627c6715c52fd12f31907bd0,,,,,,,,,,,,,,,,,,,,,,,l,0,0.9704,"[""0.093"",""0.472"",""0.910"",""0.969""]","[0,1,1,1]",0,20,20,20,1,0,0,,,1,FALSE,,,,,,,,,,,,,,,,,,,,,,,,,,,,,,,
,614a6f434102c490f34f99e3,627c6f95b368a87425bdae66,2022-05-11_21h24.10.749,classification_task,2021.2.3,MacIntel,59.84082341,627c6715c52fd12f31907bd0,,,,,,,,,,,,,,,,,,,,,,,a,0,1.2849,"[""0.156"",""0.285"",""0.547"",""0.112""]","[1,1,1,0]",0,21,21,21,1,1,1,,,1,FALSE,,,,,,,,,,,,,,,,,,,,,,,,,,,,,,,
,614a6f434102c490f34f99e3,627c6f95b368a87425bdae66,2022-05-11_21h24.10.749,classification_task,2021.2.3,MacIntel,59.84082341,627c6715c52fd12f31907bd0,,,,,,,,,,,,,,,,,,,,,,,l,0,1.0256,"[""0.197"",""0.472"",""0.910"",""0.612""]","[1,1,1,0]",0,22,22,22,1,0,0,,,1,FALSE,,,,,,,,,,,,,,,,,,,,,,,,,,,,,,,
,614a6f434102c490f34f99e3,627c6f95b368a87425bdae66,2022-05-11_21h24.10.749,classification_task,2021.2.3,MacIntel,59.84082341,627c6715c52fd12f31907bd0,,,,,,,,,,,,,,,,,,,,,,,l,0,1.1882,"[""0.240"",""0.349"",""0.703"",""0.100""]","[1,1,1,0]",0,23,23,23,1,0,1,,,1,FALSE,,,,,,,,,,,,,,,,,,,,,,,,,,,,,,,
,614a6f434102c490f34f99e3,627c6f95b368a87425bdae66,2022-05-11_21h24.10.749,classification_task,2021.2.3,MacIntel,59.84082341,627c6715c52fd12f31907bd0,,,,,,,,,,,,,,,,,,,,,,,a,1,0.7212,"[""0.197"",""0.472"",""0.611"",""0.969""]","[1,1,0,1]",0,24,24,24,1,0,0,,,1,FALSE,,,,,,,,,,,,,,,,,,,,,,,,,,,,,,,
,614a6f434102c490f34f99e3,627c6f95b368a87425bdae66,2022-05-11_21h24.10.749,classification_task,2021.2.3,MacIntel,59.84082341,627c6715c52fd12f31907bd0,,,,,,,,,,,,,,,,,,,,,,,a,0,1.3386,"[""0.050"",""0.387"",""0.663"",""0.434""]","[1,1,1,0]",0,25,25,25,1,1,0,,,1,FALSE,,,,,,,,,,,,,,,,,,,,,,,,,,,,,,,
,614a6f434102c490f34f99e3,627c6f95b368a87425bdae66,2022-05-11_21h24.10.749,classification_task,2021.2.3,MacIntel,59.84082341,627c6715c52fd12f31907bd0,,,,,,,,,,,,,,,,,,,,,,,l,0,0.6874,"[""0.197"",""0.434"",""0.910"",""0.969""]","[1,0,1,1]",0,26,26,26,1,0,0,,,1,FALSE,,,,,,,,,,,,,,,,,,,,,,,,,,,,,,,
,614a6f434102c490f34f99e3,627c6f95b368a87425bdae66,2022-05-11_21h24.10.749,classification_task,2021.2.3,MacIntel,59.84082341,627c6715c52fd12f31907bd0,,,,,,,,,,,,,,,,,,,,,,,l,0,1.1937,"[""0.240"",""0.349"",""0.114"",""0.849""]","[1,1,0,1]",0,27,27,27,1,0,1,,,1,FALSE,,,,,,,,,,,,,,,,,,,,,,,,,,,,,,,
,614a6f434102c490f34f99e3,627c6f95b368a87425bdae66,2022-05-11_21h24.10.749,classification_task,2021.2.3,MacIntel,59.84082341,627c6715c52fd12f31907bd0,,,,,,,,,,,,,,,,,,,,,,,a,0,0.7814,"[""0.050"",""0.387"",""0.434"",""0.771""]","[1,1,0,1]",0,28,28,28,1,1,0,,,1,FALSE,,,,,,,,,,,,,,,,,,,,,,,,,,,,,,,
,614a6f434102c490f34f99e3,627c6f95b368a87425bdae66,2022-05-11_21h24.10.749,classification_task,2021.2.3,MacIntel,59.84082341,627c6715c52fd12f31907bd0,,,,,,,,,,,,,,,,,,,,,,,a,0,0.8228,"[""0.050"",""0.112"",""0.663"",""0.771""]","[1,0,1,1]",0,29,29,29,1,1,0,,,1,FALSE,,,,,,,,,,,,,,,,,,,,,,,,,,,,,,,
,614a6f434102c490f34f99e3,627c6f95b368a87425bdae66,2022-05-11_21h24.10.749,classification_task,2021.2.3,MacIntel,59.84082341,627c6715c52fd12f31907bd0,,,,,,,,,,,,,,,,,,,,,,,l,1,0.8581,"[""0.156"",""0.431"",""0.547"",""0.809""]","[1,0,1,1]",0,30,30,30,1,1,1,,,1,FALSE,,,,,,,,,,,,,,,,,,,,,,,,,,,,,,,
,614a6f434102c490f34f99e3,627c6f95b368a87425bdae66,2022-05-11_21h24.10.749,classification_task,2021.2.3,MacIntel,59.84082341,627c6715c52fd12f31907bd0,,,,,,,,,,,,,,,,,,,,,,,a,1,0.8204,"[""0.240"",""0.112"",""0.703"",""0.849""]","[1,0,1,1]",0,31,31,31,1,0,1,,,1,FALSE,,,,,,,,,,,,,,,,,,,,,,,,,,,,,,,
,614a6f434102c490f34f99e3,627c6f95b368a87425bdae66,2022-05-11_21h24.10.749,classification_task,2021.2.3,MacIntel,59.84082341,627c6715c52fd12f31907bd0,,,,,,,,,,,,,,,,,,,,,,,l,0,0.8355,"[""0.110"",""0.472"",""0.910"",""0.969""]","[0,1,1,1]",0,32,32,32,1,0,0,,,1,FALSE,,,,,,,,,,,,,,,,,,,,,,,,,,,,,,,
,614a6f434102c490f34f99e3,627c6f95b368a87425bdae66,2022-05-11_21h24.10.749,classification_task,2021.2.3,MacIntel,59.84082341,627c6715c52fd12f31907bd0,,,,,,,,,,,,,,,,,,,,,,,l,1,1.0434,"[""0.112"",""0.387"",""0.663"",""0.771""]","[0,1,1,1]",0,33,33,33,1,1,0,,,1,FALSE,,,,,,,,,,,,,,,,,,,,,,,,,,,,,,,
,614a6f434102c490f34f99e3,627c6f95b368a87425bdae66,2022-05-11_21h24.10.749,classification_task,2021.2.3,MacIntel,59.84082341,627c6715c52fd12f31907bd0,,,,,,,,,,,,,,,,,,,,,,,l,1,1.7244,"[""0.594"",""0.285"",""0.547"",""0.809""]","[0,1,1,1]",0,34,34,34,1,1,1,,,1,FALSE,,,,,,,,,,,,,,,,,,,,,,,,,,,,,,,
,614a6f434102c490f34f99e3,627c6f95b368a87425bdae66,2022-05-11_21h24.10.749,classification_task,2021.2.3,MacIntel,59.84082341,627c6715c52fd12f31907bd0,,,,,,,,,,,,,,,,,,,,,,,a,0,1.4561,"[""0.156"",""0.285"",""0.547"",""0.121""]","[1,1,1,0]",0,35,35,35,1,1,1,,,1,FALSE,,,,,,,,,,,,,,,,,,,,,,,,,,,,,,,
,614a6f434102c490f34f99e3,627c6f95b368a87425bdae66,2022-05-11_21h24.10.749,classification_task,2021.2.3,MacIntel,59.84082341,627c6715c52fd12f31907bd0,,,,,,,,,,,,,,,,,,,,,,,l,0,1.8822,"[""0.240"",""0.597"",""0.703"",""0.849""]","[1,0,1,1]",0,36,36,36,1,0,1,,,1,FALSE,,,,,,,,,,,,,,,,,,,,,,,,,,,,,,,
,614a6f434102c490f34f99e3,627c6f95b368a87425bdae66,2022-05-11_21h24.10.749,classification_task,2021.2.3,MacIntel,59.84082341,627c6715c52fd12f31907bd0,,,,,,,,,,,,,,,,,,,,,,,a,1,0.5564,"[""0.240"",""0.349"",""0.703"",""0.112""]","[1,1,1,0]",0,37,37,37,1,0,1,,,1,FALSE,,,,,,,,,,,,,,,,,,,,,,,,,,,,,,,
,614a6f434102c490f34f99e3,627c6f95b368a87425bdae66,2022-05-11_21h24.10.749,classification_task,2021.2.3,MacIntel,59.84082341,627c6715c52fd12f31907bd0,,,,,,,,,,,,,,,,,,,,,,,a,1,1.6236,"[""0.114"",""0.349"",""0.703"",""0.849""]","[0,1,1,1]",0,38,38,38,1,0,1,,,1,FALSE,,,,,,,,,,,,,,,,,,,,,,,,,,,,,,,
,614a6f434102c490f34f99e3,627c6f95b368a87425bdae66,2022-05-11_21h24.10.749,classification_task,2021.2.3,MacIntel,59.84082341,627c6715c52fd12f31907bd0,,,,,,,,,,,,,,,,,,,,,,,a,1,1.5072,"[""0.197"",""0.472"",""0.110"",""0.969""]","[1,1,0,1]",0,39,39,39,1,0,0,,,1,FALSE,,,,,,,,,,,,,,,,,,,,,,,,,,,,,,,
,614a6f434102c490f34f99e3,627c6f95b368a87425bdae66,2022-05-11_21h24.10.749,classification_task,2021.2.3,MacIntel,59.84082341,627c6715c52fd12f31907bd0,,,,,,,,,,,,,,,,,,,,,,,a,1,1.0528,"[""0.197"",""0.472"",""0.910"",""0.434""]","[1,1,1,0]",0,40,40,40,1,0,0,,,1,FALSE,,,,,,,,,,,,,,,,,,,,,,,,,,,,,,,
,614a6f434102c490f34f99e3,627c6f95b368a87425bdae66,2022-05-11_21h24.10.749,classification_task,2021.2.3,MacIntel,59.84082341,627c6715c52fd12f31907bd0,,,,,,,,,,,,,,,,,,,,,,,l,1,0.4894,"[""0.050"",""0.387"",""0.663"",""0.594""]","[1,1,1,0]",0,41,41,41,1,1,0,,,1,FALSE,,,,,,,,,,,,,,,,,,,,,,,,,,,,,,,
,614a6f434102c490f34f99e3,627c6f95b368a87425bdae66,2022-05-11_21h24.10.749,classification_task,2021.2.3,MacIntel,59.84082341,627c6715c52fd12f31907bd0,,,,,,,,,,,,,,,,,,,,,,,l,1,1.074,"[""0.156"",""0.285"",""0.121"",""0.809""]","[1,1,0,1]",0,42,42,42,1,1,1,,,1,FALSE,,,,,,,,,,,,,,,,,,,,,,,,,,,,,,,
,614a6f434102c490f34f99e3,627c6f95b368a87425bdae66,2022-05-11_21h24.10.749,classification_task,2021.2.3,MacIntel,59.84082341,627c6715c52fd12f31907bd0,,,,,,,,,,,,,,,,,,,,,,,a,0,0.946,"[""0.050"",""0.121"",""0.663"",""0.771""]","[1,0,1,1]",0,43,43,43,1,1,0,,,1,FALSE,,,,,,,,,,,,,,,,,,,,,,,,,,,,,,,
,614a6f434102c490f34f99e3,627c6f95b368a87425bdae66,2022-05-11_21h24.10.749,classification_task,2021.2.3,MacIntel,59.84082341,627c6715c52fd12f31907bd0,,,,,,,,,,,,,,,,,,,,,,,l,0,1.6864,"[""0.240"",""0.349"",""0.093"",""0.849""]","[1,1,0,1]",0,44,44,44,1,0,1,,,1,FALSE,,,,,,,,,,,,,,,,,,,,,,,,,,,,,,,
,614a6f434102c490f34f99e3,627c6f95b368a87425bdae66,2022-05-11_21h24.10.749,classification_task,2021.2.3,MacIntel,59.84082341,627c6715c52fd12f31907bd0,,,,,,,,,,,,,,,,,,,,,,,a,1,1.6526,"[""0.197"",""0.594"",""0.910"",""0.969""]","[1,0,1,1]",0,45,45,45,1,0,0,,,1,FALSE,,,,,,,,,,,,,,,,,,,,,,,,,,,,,,,
,614a6f434102c490f34f99e3,627c6f95b368a87425bdae66,2022-05-11_21h24.10.749,classification_task,2021.2.3,MacIntel,59.84082341,627c6715c52fd12f31907bd0,,,,,,,,,,,,,,,,,,,,,,,a,0,0.8902,"[""0.050"",""0.387"",""0.114"",""0.771""]","[1,1,0,1]",0,46,46,46,1,1,0,,,1,FALSE,,,,,,,,,,,,,,,,,,,,,,,,,,,,,,,
,614a6f434102c490f34f99e3,627c6f95b368a87425bdae66,2022-05-11_21h24.10.749,classification_task,2021.2.3,MacIntel,59.84082341,627c6715c52fd12f31907bd0,,,,,,,,,,,,,,,,,,,,,,,l,1,1.1399,"[""0.156"",""0.611"",""0.547"",""0.809""]","[1,0,1,1]",0,47,47,47,1,1,1,,,1,FALSE,,,,,,,,,,,,,,,,,,,,,,,,,,,,,,,
,614a6f434102c490f34f99e3,627c6f95b368a87425bdae66,2022-05-11_21h24.10.749,classification_task,2021.2.3,MacIntel,59.84082341,627c6715c52fd12f31907bd0,,,,,,,,,,,,,,,,,,,,,,,l,1,1.0882,"[""0.112"",""0.387"",""0.663"",""0.771""]","[0,1,1,1]",0,48,48,48,1,1,0,,,1,FALSE,,,,,,,,,,,,,,,,,,,,,,,,,,,,,,,
,614a6f434102c490f34f99e3,627c6f95b368a87425bdae66,2022-05-11_21h24.10.749,classification_task,2021.2.3,MacIntel,59.84082341,627c6715c52fd12f31907bd0,,,,,,,,,,,,,,,,,,,,,,,l,1,1.3021,"[""0.434"",""0.285"",""0.547"",""0.809""]","[0,1,1,1]",0,49,49,49,1,1,1,,,1,FALSE,,,,,,,,,,,,,,,,,,,,,,,,,,,,,,,
,614a6f434102c490f34f99e3,627c6f95b368a87425bdae66,2022-05-11_21h24.10.749,classification_task,2021.2.3,MacIntel,59.84082341,627c6715c52fd12f31907bd0,,,,,,,,,,,,,,,,,,,,,,,a,1,0.853,"[""0.197"",""0.472"",""0.910"",""0.626""]","[1,1,1,0]",0,50,50,50,1,0,0,,,1,FALSE,,,,,,,,,,,,,,,,,,,,,,,,,,,,,,,
,614a6f434102c490f34f99e3,627c6f95b368a87425bdae66,2022-05-11_21h24.10.749,classification_task,2021.2.3,MacIntel,59.84082341,627c6715c52fd12f31907bd0,,,,,,,,,,,,,,,,,,,,,,,l,0,1.2047,"[""0.612"",""0.349"",""0.703"",""0.849""]","[0,1,1,1]",0,51,51,51,1,0,1,,,1,FALSE,,,,,,,,,,,,,,,,,,,,,,,,,,,,,,,
,614a6f434102c490f34f99e3,627c6f95b368a87425bdae66,2022-05-11_21h24.10.749,classification_task,2021.2.3,MacIntel,59.84082341,627c6715c52fd12f31907bd0,,,,,,,,,,,,,,,,,,,,,,,a,0,0.9732,"[""0.156"",""0.285"",""0.547"",""0.114""]","[1,1,1,0]",0,52,52,52,1,1,1,,,1,FALSE,,,,,,,,,,,,,,,,,,,,,,,,,,,,,,,
,614a6f434102c490f34f99e3,627c6f95b368a87425bdae66,2022-05-11_21h24.10.749,classification_task,2021.2.3,MacIntel,59.84082341,627c6715c52fd12f31907bd0,,,,,,,,,,,,,,,,,,,,,,,a,0,0.8769,"[""0.156"",""0.285"",""0.112"",""0.809""]","[1,1,0,1]",0,53,53,53,1,1,1,,,1,FALSE,,,,,,,,,,,,,,,,,,,,,,,,,,,,,,,
,614a6f434102c490f34f99e3,627c6f95b368a87425bdae66,2022-05-11_21h24.10.749,classification_task,2021.2.3,MacIntel,59.84082341,627c6715c52fd12f31907bd0,,,,,,,,,,,,,,,,,,,,,,,l,0,0.8041,"[""0.121"",""0.472"",""0.910"",""0.969""]","[0,1,1,1]",0,54,54,54,1,0,0,,,1,FALSE,,,,,,,,,,,,,,,,,,,,,,,,,,,,,,,
,614a6f434102c490f34f99e3,627c6f95b368a87425bdae66,2022-05-11_21h24.10.749,classification_task,2021.2.3,MacIntel,59.84082341,627c6715c52fd12f31907bd0,,,,,,,,,,,,,,,,,,,,,,,l,0,0.8284,"[""0.240"",""0.349"",""0.703"",""0.611""]","[1,1,1,0]",0,55,55,55,1,0,1,,,1,FALSE,,,,,,,,,,,,,,,,,,,,,,,,,,,,,,,
,614a6f434102c490f34f99e3,627c6f95b368a87425bdae66,2022-05-11_21h24.10.749,classification_task,2021.2.3,MacIntel,59.84082341,627c6715c52fd12f31907bd0,,,,,,,,,,,,,,,,,,,,,,,a,1,1.0221,"[""0.240"",""0.349"",""0.093"",""0.849""]","[1,1,0,1]",0,56,56,56,1,0,1,,,1,FALSE,,,,,,,,,,,,,,,,,,,,,,,,,,,,,,,
,614a6f434102c490f34f99e3,627c6f95b368a87425bdae66,2022-05-11_21h24.10.749,classification_task,2021.2.3,MacIntel,59.84082341,627c6715c52fd12f31907bd0,,,,,,,,,,,,,,,,,,,,,,,a,0,1.7764,"[""0.050"",""0.387"",""0.663"",""0.093""]","[1,1,1,0]",0,57,57,57,1,1,0,,,1,FALSE,,,,,,,,,,,,,,,,,,,,,,,,,,,,,,,
,614a6f434102c490f34f99e3,627c6f95b368a87425bdae66,2022-05-11_21h24.10.749,classification_task,2021.2.3,MacIntel,59.84082341,627c6715c52fd12f31907bd0,,,,,,,,,,,,,,,,,,,,,,,l,0,1.2266,"[""0.197"",""0.612"",""0.910"",""0.969""]","[1,0,1,1]",0,58,58,58,1,0,0,,,1,FALSE,,,,,,,,,,,,,,,,,,,,,,,,,,,,,,,
,614a6f434102c490f34f99e3,627c6f95b368a87425bdae66,2022-05-11_21h24.10.749,classification_task,2021.2.3,MacIntel,59.84082341,627c6715c52fd12f31907bd0,,,,,,,,,,,,,,,,,,,,,,,a,0,0.6882,"[""0.050"",""0.387"",""0.100"",""0.771""]","[1,1,0,1]",0,59,59,59,1,1,0,,,1,FALSE,,,,,,,,,,,,,,,,,,,,,,,,,,,,,,,
,614a6f434102c490f34f99e3,627c6f95b368a87425bdae66,2022-05-11_21h24.10.749,classification_task,2021.2.3,MacIntel,59.84082341,627c6715c52fd12f31907bd0,,,,,,,,,,,,,,,,,,,,,,,l,1,0.7624,"[""0.156"",""0.626"",""0.547"",""0.809""]","[1,0,1,1]",0,60,60,60,1,1,1,,,1,FALSE,,,,,,,,,,,,,,,,,,,,,,,,,,,,,,,
,614a6f434102c490f34f99e3,627c6f95b368a87425bdae66,2022-05-11_21h24.10.749,classification_task,2021.2.3,MacIntel,59.84082341,627c6715c52fd12f31907bd0,,,,,,,,,,,,,,,,,,,,,,,a,1,0.8502,"[""0.240"",""0.431"",""0.703"",""0.849""]","[1,0,1,1]",0,61,61,61,1,0,1,,,1,FALSE,,,,,,,,,,,,,,,,,,,,,,,,,,,,,,,
,614a6f434102c490f34f99e3,627c6f95b368a87425bdae66,2022-05-11_21h24.10.749,classification_task,2021.2.3,MacIntel,59.84082341,627c6715c52fd12f31907bd0,,,,,,,,,,,,,,,,,,,,,,,l,1,0.9034,"[""0.050"",""0.121"",""0.663"",""0.771""]","[1,0,1,1]",0,62,62,62,1,1,0,,,1,FALSE,,,,,,,,,,,,,,,,,,,,,,,,,,,,,,,
,614a6f434102c490f34f99e3,627c6f95b368a87425bdae66,2022-05-11_21h24.10.749,classification_task,2021.2.3,MacIntel,59.84082341,627c6715c52fd12f31907bd0,,,,,,,,,,,,,,,,,,,,,,,l,0,0.9738,"[""0.197"",""0.472"",""0.431"",""0.969""]","[1,1,0,1]",0,63,63,63,1,0,0,,,1,FALSE,,,,,,,,,,,,,,,,,,,,,,,,,,,,,,,
,614a6f434102c490f34f99e3,627c6f95b368a87425bdae66,2022-05-11_21h24.10.749,classification_task,2021.2.3,MacIntel,59.84082341,627c6715c52fd12f31907bd0,,,,,,,,,,,,,,,,,,,,,,,,,,,,,,,,,,,,,,,0, ,,0,2.854662698,152.5168,0,2,2,2,1,2,3,,,,,,,,,,,,,,,,,,
,614a6f434102c490f34f99e3,627c6f95b368a87425bdae66,2022-05-11_21h24.10.749,classification_task,2021.2.3,MacIntel,59.84082341,627c6715c52fd12f31907bd0,,,,,,,,,,,,,,,,,,,,,,,,,,,,,,,,,,,,,,,1,  ,,0,5.333558385,157.7975,0,2,2,2,1,2,3,,,,,,,,,,,,,,,,,,
,614a6f434102c490f34f99e3,627c6f95b368a87425bdae66,2022-05-11_21h24.10.749,classification_task,2021.2.3,MacIntel,59.84082341,627c6715c52fd12f31907bd0,,,,,,,,,,,,,,,,,,,,,,,,,,,,,,,,,,,,,,,2,  ,,0,7.987443048,163.0104,0,2,2,2,1,2,3,,,,,,,,,,,,,,,,,,
,614a6f434102c490f34f99e3,627c6f95b368a87425bdae66,2022-05-11_21h24.10.749,classification_task,2021.2.3,MacIntel,59.84082341,627c6715c52fd12f31907bd0,,,,,,,,,,,,,,,,,,,,,,,,,,,,,,,,,,,,,,,,,,,,,0,2,2,2,1,,3,,,,,,,,,,,,,,,,,,
,614a6f434102c490f34f99e3,627c6f95b368a87425bdae66,2022-05-11_21h24.10.749,classification_task,2021.2.3,MacIntel,59.84082341,627c6715c52fd12f31907bd0,,,,,,,,,,,,,,,,,,,,,,,,,,,,,,,,,,,,,,,,,,,,,,,,,,,,,I believe the aid is a competent performer,,0.7,0,4,725.3513,0,0,0,0,1,0,,,,,
,614a6f434102c490f34f99e3,627c6f95b368a87425bdae66,2022-05-11_21h24.10.749,classification_task,2021.2.3,MacIntel,59.84082341,627c6715c52fd12f31907bd0,,,,,,,,,,,,,,,,,,,,,,,,,,,,,,,,,,,,,,,,,,,,,,,,,,,,,I trust the aid,,0.7,0,3,731.6839,0,0,0,0,1,0,,,,,
,614a6f434102c490f34f99e3,627c6f95b368a87425bdae66,2022-05-11_21h24.10.749,classification_task,2021.2.3,MacIntel,59.84082341,627c6715c52fd12f31907bd0,,,,,,,,,,,,,,,,,,,,,,,,,,,,,,,,,,,,,,,,,,,,,,,,,,,,,I have confidence in the advice given by the aid,,0.7,0,2,734.0544,0,0,0,0,1,0,,,,,
,614a6f434102c490f34f99e3,627c6f95b368a87425bdae66,2022-05-11_21h24.10.749,classification_task,2021.2.3,MacIntel,59.84082341,627c6715c52fd12f31907bd0,,,,,,,,,,,,,,,,,,,,,,,,,,,,,,,,,,,,,,,,,,,,,,,,,,,,,I can depend on the aid,,0.7,0,4,736.9439,0,0,0,0,1,0,,,,,
,614a6f434102c490f34f99e3,627c6f95b368a87425bdae66,2022-05-11_21h24.10.749,classification_task,2021.2.3,MacIntel,59.84082341,627c6715c52fd12f31907bd0,,,,,,,,,,,,,,,,,,,,,,,,,,,,,,,,,,,,,,,,,,,,,,,,,,,,,I can rely on the aid to behave in consistent ways,,0.7,0,3,739.4429,0,0,0,0,1,0,,,,,
,614a6f434102c490f34f99e3,627c6f95b368a87425bdae66,2022-05-11_21h24.10.749,classification_task,2021.2.3,MacIntel,59.84082341,627c6715c52fd12f31907bd0,,,,,,,,,,,,,,,,,,,,,,,,,,,,,,,,,,,,,,,,,,,,,,,,,,,,,I can rely on the aid to do its best every time I take its advice,,0.7,0,4,744.0693,0,0,0,0,1,0,,,,,
,614a6f434102c490f34f99e3,627c6f95b368a87425bdae66,2022-05-11_21h24.10.749,classification_task,2021.2.3,MacIntel,59.84082341,627c6715c52fd12f31907bd0,,,,,,,,,,,,,,,,,,,,,,,,,,,,,,,,,,,,,,,,,,,,,,,,,,,,,"On trials you completed with assistance from the aid, how frequently did you think the aid was correct?",,0.7,0,70,,0,0,0,0,1,0,,,,,
,614a6f434102c490f34f99e3,627c6f95b368a87425bdae66,2022-05-11_21h24.10.749,classification_task,2021.2.3,MacIntel,59.84082341,627c6715c52fd12f31907bd0,,,,,,,,,,,,,,,,,,,,,,,,,,,,,,,,,,,,,,,,,,,,,,,,,,,,,"On trials you completed without the aid, how frequently did you think you were correct?",,0.7,0,20,,0,0,0,0,1,0,,,,,
,614a6f434102c490f34f99e3,627c6f95b368a87425bdae66,2022-05-11_21h24.10.749,classification_task,2021.2.3,MacIntel,59.84082341,627c6715c52fd12f31907bd0,,,,,,,,,,,,,,,,,,,,,,,,,,,,,,,,,,,,,,,,,,,,,,,,,,,,,,,,,,,0,0,0,0,1,,,,,,
,614a6f434102c490f34f99e3,627c6f95b368a87425bdae66,2022-05-11_21h24.10.749,classification_task,2021.2.3,MacIntel,59.84082341,627c6715c52fd12f31907bd0,,,,,,,,,,,,,,,,,,,,,,,,,,,,,,,,,,,,,,,,,,,,,,,,,,,,,,,,,,,,,,,,,space,8.4575,773.0891,,
,614a6f434102c490f34f99e3,627c6f95b368a87425bdae66,2022-05-11_21h24.10.749,classification_task,2021.2.3,MacIntel,59.84082341,627c6715c52fd12f31907bd0,,,,,,,,,,,,,,,,,,,,,,,,,,,,,,,,,,,,,,,,,,,,,,,,,,,,,,,,,,,,,,,,,,,,"Mozilla/5.0 (Macintosh; Intel Mac OS X 10_15_7) AppleWebKit/537.36 (KHTML, like Gecko) Chrome/101.0.4951.54 Safari/537.36",
,614a6f434102c490f34f99e3,627c6f95b368a87425bdae66,2022-05-11_21h24.10.749,classification_task,2021.2.3,MacIntel,59.84082341,627c6715c52fd12f31907bd0,,,,,,,,,,,,,,,,,,,,,,,,,,,,,,,,,,,,,,,,,,,,,,,,,,,,,,,,,,,,,,,,,,,,,LOWLIGHT
