usingWebGL,participant,session,date,expName,psychopyVersion,OS,frameRate,PROLIFIC_PID,STUDY_ID,SESSION_ID,signatures_friend,signatures_foe,band_ranges_top,band_ranges_bottom,formitemText,formtype,formundefined,formitemWidth,formindex,formresponse,formrt,key_resp_2.keys,key_resp_2.rt,tute_resp.keys,tute_resp.rt,tutorial.thisRepN,tutorial.thisTrialN,tutorial.thisN,tutorial.thisIndex,tutorial.ran,key_resp_4.keys,key_resp_4.rt,key_resp.keys,key_resp.corr,lines_presented,is_signal_presented,trials.thisRepN,trials.thisTrialN,trials.thisN,trials.thisIndex,trials.ran,vessel,active_band,lines,is_signal,supported_pos,catch_trial,key_resp.rt,debrief_formindex,debrief_formitemText,debrief_formtype,debrief_formitemWidth,debrief_formresponse,debrief_formrt,phases.thisRepN,phases.thisTrialN,phases.thisN,phases.thisIndex,phases.ran,phases.order,phase,key_resp_3.keys,trustitemText,trusttype,trustitemWidth,trustindex,trustresponse,trustrt,support_status.thisRepN,support_status.thisTrialN,support_status.thisN,support_status.thisIndex,support_status.ran,support_status.order,key_resp_5.keys,key_resp_5.rt,globalClockTime,userAgent
TRUE,614c5568b8da906b118c158e,001,2022-04-29_03h06.38.828,classification_task,2021.2.3,Win32,20.02242512,614c5568b8da906b118c158e,626b377229c10585ec392f8a,626b39031ce2c60a76cb44b6,,,,,,,,,,,,,,,,,,,,,,,,,,,,,,,,,,,,,,,,,,,,,,,,,,,,,,,,,,,,,,,,,,,,
,614c5568b8da906b118c158e,001,2022-04-29_03h06.38.828,classification_task,2021.2.3,Win32,20.02242512,614c5568b8da906b118c158e,626b377229c10585ec392f8a,626b39031ce2c60a76cb44b6,"[[""0.279"",""0.397"",""0.799"",""0.877""],[""0.179"",""0.522"",""0.918"",""0.967""]]","[[""0.060"",""0.220"",""0.565"",""0.696""],[""0.145"",""0.347"",""0.652"",""0.757""]]","[1,10]","[100,1000]",Video game experience,,,0.7,0,,,,,,,,,,,,,,,,,,,,,,,,,,,,,,,,,,,,,,,,,,,,,,,,,,,,,,,,,,,
,614c5568b8da906b118c158e,001,2022-04-29_03h06.38.828,classification_task,2021.2.3,Win32,20.02242512,614c5568b8da906b118c158e,626b377229c10585ec392f8a,626b39031ce2c60a76cb44b6,,,,,Approximately how many hours did you spend playing video games in the last week?,,,0.7,0,5,,,,,,,,,,,,,,,,,,,,,,,,,,,,,,,,,,,,,,,,,,,,,,,,,,,,,,,,,,
,614c5568b8da906b118c158e,001,2022-04-29_03h06.38.828,classification_task,2021.2.3,Win32,20.02242512,614c5568b8da906b118c158e,626b377229c10585ec392f8a,626b39031ce2c60a76cb44b6,,,,,"Which game did you play the most this year? (Enter ""None"" if you didn't play any)",,,0.7,0,FIFA,,,,,,,,,,,,,,,,,,,,,,,,,,,,,,,,,,,,,,,,,,,,,,,,,,,,,,,,,,
,614c5568b8da906b118c158e,001,2022-04-29_03h06.38.828,classification_task,2021.2.3,Win32,20.02242512,614c5568b8da906b118c158e,626b377229c10585ec392f8a,626b39031ce2c60a76cb44b6,,,,,Visual perception,,,0.7,0,,,,,,,,,,,,,,,,,,,,,,,,,,,,,,,,,,,,,,,,,,,,,,,,,,,,,,,,,,,
,614c5568b8da906b118c158e,001,2022-04-29_03h06.38.828,classification_task,2021.2.3,Win32,20.02242512,614c5568b8da906b118c158e,626b377229c10585ec392f8a,626b39031ce2c60a76cb44b6,,,,,Do you have any form of color blindness?,,,0.7,0,No,64.032,,,,,,,,,,,,,,,,,,,,,,,,,,,,,,,,,,,,,,,,,,,,,,,,,,,,,,,,,
,614c5568b8da906b118c158e,001,2022-04-29_03h06.38.828,classification_task,2021.2.3,Win32,20.02242512,614c5568b8da906b118c158e,626b377229c10585ec392f8a,626b39031ce2c60a76cb44b6,,,,,Do you use software to change the colour temperature of your screen (e.g. f.lux)?,,,0.7,0,No,70.1074,,,,,,,,,,,,,,,,,,,,,,,,,,,,,,,,,,,,,,,,,,,,,,,,,,,,,,,,,
,614c5568b8da906b118c158e,001,2022-04-29_03h06.38.828,classification_task,2021.2.3,Win32,20.02242512,614c5568b8da906b118c158e,626b377229c10585ec392f8a,626b39031ce2c60a76cb44b6,,,,,,,,,,,,space,81.3357,space,15.8351,0,0,0,0,1,,,,,,,,,,,,,,,,,,,,,,,,,,,,,,,,,,,,,,,,,,,,,,,,
,614c5568b8da906b118c158e,001,2022-04-29_03h06.38.828,classification_task,2021.2.3,Win32,20.02242512,614c5568b8da906b118c158e,626b377229c10585ec392f8a,626b39031ce2c60a76cb44b6,,,,,,,,,,,,,,space,11.9167,1,0,1,0,1,,,,,,,,,,,,,,,,,,,,,,,,,,,,,,,,,,,,,,,,,,,,,,,,
,614c5568b8da906b118c158e,001,2022-04-29_03h06.38.828,classification_task,2021.2.3,Win32,20.02242512,614c5568b8da906b118c158e,626b377229c10585ec392f8a,626b39031ce2c60a76cb44b6,,,,,,,,,,,,,,space,70.5518,2,0,2,0,1,,,,,,,,,,,,,,,,,,,,,,,,,,,,,,,,,,,,,,,,,,,,,,,,
,614c5568b8da906b118c158e,001,2022-04-29_03h06.38.828,classification_task,2021.2.3,Win32,20.02242512,614c5568b8da906b118c158e,626b377229c10585ec392f8a,626b39031ce2c60a76cb44b6,,,,,,,,,,,,,,space,14.8971,3,0,3,0,1,,,,,,,,,,,,,,,,,,,,,,,,,,,,,,,,,,,,,,,,,,,,,,,,
,614c5568b8da906b118c158e,001,2022-04-29_03h06.38.828,classification_task,2021.2.3,Win32,20.02242512,614c5568b8da906b118c158e,626b377229c10585ec392f8a,626b39031ce2c60a76cb44b6,,,,,,,,,,,,,,space,27.81,4,0,4,0,1,,,,,,,,,,,,,,,,,,,,,,,,,,,,,,,,,,,,,,,,,,,,,,,,
,614c5568b8da906b118c158e,001,2022-04-29_03h06.38.828,classification_task,2021.2.3,Win32,20.02242512,614c5568b8da906b118c158e,626b377229c10585ec392f8a,626b39031ce2c60a76cb44b6,,,,,,,,,,,,,,,,,,,,,space,18.2456,,0,"[""0.145"",""0.347"",""0.652"",""0.095""]","[1,1,1,0]",0,0,0,0,1,1,1,,,1,FALSE,,,,,,,,,,,,,,,,,,,,,,,,,,,,,,,
,614c5568b8da906b118c158e,001,2022-04-29_03h06.38.828,classification_task,2021.2.3,Win32,20.02242512,614c5568b8da906b118c158e,626b377229c10585ec392f8a,626b39031ce2c60a76cb44b6,,,,,,,,,,,,,,,,,,,,,,,l,1,"[""0.145"",""0.347"",""0.445"",""0.757""]","[1,1,0,1]",0,1,1,1,1,1,1,,,1,FALSE,5.5391,,,,,,,,,,,,,,,,,,,,,,,,,,,,,,
,614c5568b8da906b118c158e,001,2022-04-29_03h06.38.828,classification_task,2021.2.3,Win32,20.02242512,614c5568b8da906b118c158e,626b377229c10585ec392f8a,626b39031ce2c60a76cb44b6,,,,,,,,,,,,,,,,,,,,,,,a,1,"[""0.279"",""0.397"",""0.799"",""0.602""]","[1,1,1,0]",0,2,2,2,1,0,0,,,1,FALSE,8.4686,,,,,,,,,,,,,,,,,,,,,,,,,,,,,,
,614c5568b8da906b118c158e,001,2022-04-29_03h06.38.828,classification_task,2021.2.3,Win32,20.02242512,614c5568b8da906b118c158e,626b377229c10585ec392f8a,626b39031ce2c60a76cb44b6,,,,,,,,,,,,,,,,,,,,,,,a,1,"[""0.279"",""0.606"",""0.799"",""0.877""]","[1,0,1,1]",0,3,3,3,1,0,0,,,1,FALSE,8.2521,,,,,,,,,,,,,,,,,,,,,,,,,,,,,,
,614c5568b8da906b118c158e,001,2022-04-29_03h06.38.828,classification_task,2021.2.3,Win32,20.02242512,614c5568b8da906b118c158e,626b377229c10585ec392f8a,626b39031ce2c60a76cb44b6,,,,,,,,,,,,,,,,,,,,,,,a,1,"[""0.179"",""0.095"",""0.918"",""0.967""]","[1,0,1,1]",0,4,4,4,1,0,1,,,1,FALSE,5.5568,,,,,,,,,,,,,,,,,,,,,,,,,,,,,,
,614c5568b8da906b118c158e,001,2022-04-29_03h06.38.828,classification_task,2021.2.3,Win32,20.02242512,614c5568b8da906b118c158e,626b377229c10585ec392f8a,626b39031ce2c60a76cb44b6,,,,,,,,,,,,,,,,,,,,,,,l,1,"[""0.145"",""0.453"",""0.652"",""0.757""]","[1,0,1,1]",0,5,5,5,1,1,1,,,1,FALSE,4.3767,,,,,,,,,,,,,,,,,,,,,,,,,,,,,,
,614c5568b8da906b118c158e,001,2022-04-29_03h06.38.828,classification_task,2021.2.3,Win32,20.02242512,614c5568b8da906b118c158e,626b377229c10585ec392f8a,626b39031ce2c60a76cb44b6,,,,,,,,,,,,,,,,,,,,,,,a,0,"[""0.060"",""0.220"",""0.565"",""0.438""]","[1,1,1,0]",0,6,6,6,1,1,0,,,1,FALSE,7.0073,,,,,,,,,,,,,,,,,,,,,,,,,,,,,,
,614c5568b8da906b118c158e,001,2022-04-29_03h06.38.828,classification_task,2021.2.3,Win32,20.02242512,614c5568b8da906b118c158e,626b377229c10585ec392f8a,626b39031ce2c60a76cb44b6,,,,,,,,,,,,,,,,,,,,,,,l,0,"[""0.279"",""0.397"",""0.603"",""0.877""]","[1,1,0,1]",0,7,7,7,1,0,0,,,1,FALSE,5.0912,,,,,,,,,,,,,,,,,,,,,,,,,,,,,,
,614c5568b8da906b118c158e,001,2022-04-29_03h06.38.828,classification_task,2021.2.3,Win32,20.02242512,614c5568b8da906b118c158e,626b377229c10585ec392f8a,626b39031ce2c60a76cb44b6,,,,,,,,,,,,,,,,,,,,,,,a,1,"[""0.179"",""0.522"",""0.918"",""0.095""]","[1,1,1,0]",0,8,8,8,1,0,1,,,1,FALSE,5.8943,,,,,,,,,,,,,,,,,,,,,,,,,,,,,,
,614c5568b8da906b118c158e,001,2022-04-29_03h06.38.828,classification_task,2021.2.3,Win32,20.02242512,614c5568b8da906b118c158e,626b377229c10585ec392f8a,626b39031ce2c60a76cb44b6,,,,,,,,,,,,,,,,,,,,,,,l,1,"[""0.060"",""0.220"",""0.603"",""0.696""]","[1,1,0,1]",0,9,9,9,1,1,0,,,1,FALSE,5.8946,,,,,,,,,,,,,,,,,,,,,,,,,,,,,,
,614c5568b8da906b118c158e,001,2022-04-29_03h06.38.828,classification_task,2021.2.3,Win32,20.02242512,614c5568b8da906b118c158e,626b377229c10585ec392f8a,626b39031ce2c60a76cb44b6,,,,,,,,,,,,,,,,,,,,,,,l,0,"[""0.461"",""0.522"",""0.918"",""0.967""]","[0,1,1,1]",0,10,10,10,1,0,1,,,1,FALSE,6.4809,,,,,,,,,,,,,,,,,,,,,,,,,,,,,,
,614c5568b8da906b118c158e,001,2022-04-29_03h06.38.828,classification_task,2021.2.3,Win32,20.02242512,614c5568b8da906b118c158e,626b377229c10585ec392f8a,626b39031ce2c60a76cb44b6,,,,,,,,,,,,,,,,,,,,,,,a,1,"[""0.461"",""0.397"",""0.799"",""0.877""]","[0,1,1,1]",0,11,11,11,1,0,0,,,1,FALSE,5.3102,,,,,,,,,,,,,,,,,,,,,,,,,,,,,,
,614c5568b8da906b118c158e,001,2022-04-29_03h06.38.828,classification_task,2021.2.3,Win32,20.02242512,614c5568b8da906b118c158e,626b377229c10585ec392f8a,626b39031ce2c60a76cb44b6,,,,,,,,,,,,,,,,,,,,,,,l,1,"[""0.437"",""0.347"",""0.652"",""0.757""]","[0,1,1,1]",0,12,12,12,1,1,1,,,1,FALSE,5.5049,,,,,,,,,,,,,,,,,,,,,,,,,,,,,,
,614c5568b8da906b118c158e,001,2022-04-29_03h06.38.828,classification_task,2021.2.3,Win32,20.02242512,614c5568b8da906b118c158e,626b377229c10585ec392f8a,626b39031ce2c60a76cb44b6,,,,,,,,,,,,,,,,,,,,,,,l,1,"[""0.060"",""0.441"",""0.565"",""0.696""]","[1,0,1,1]",0,13,13,13,1,1,0,,,1,FALSE,7.0283,,,,,,,,,,,,,,,,,,,,,,,,,,,,,,
,614c5568b8da906b118c158e,001,2022-04-29_03h06.38.828,classification_task,2021.2.3,Win32,20.02242512,614c5568b8da906b118c158e,626b377229c10585ec392f8a,626b39031ce2c60a76cb44b6,,,,,,,,,,,,,,,,,,,,,,,l,1,"[""0.461"",""0.220"",""0.565"",""0.696""]","[0,1,1,1]",0,14,14,14,1,1,0,,,1,FALSE,5.5965,,,,,,,,,,,,,,,,,,,,,,,,,,,,,,
,614c5568b8da906b118c158e,001,2022-04-29_03h06.38.828,classification_task,2021.2.3,Win32,20.02242512,614c5568b8da906b118c158e,626b377229c10585ec392f8a,626b39031ce2c60a76cb44b6,,,,,,,,,,,,,,,,,,,,,,,a,1,"[""0.179"",""0.522"",""0.461"",""0.967""]","[1,1,0,1]",0,15,15,15,1,0,1,,,1,FALSE,8.056,,,,,,,,,,,,,,,,,,,,,,,,,,,,,,
,614c5568b8da906b118c158e,001,2022-04-29_03h06.38.828,classification_task,2021.2.3,Win32,20.02242512,614c5568b8da906b118c158e,626b377229c10585ec392f8a,626b39031ce2c60a76cb44b6,,,,,,,,,,,,,,,,,,,,,,,a,0,"[""0.095"",""0.220"",""0.565"",""0.696""]","[0,1,1,1]",0,16,16,16,1,1,0,,,1,FALSE,2.5847,,,,,,,,,,,,,,,,,,,,,,,,,,,,,,
,614c5568b8da906b118c158e,001,2022-04-29_03h06.38.828,classification_task,2021.2.3,Win32,20.02242512,614c5568b8da906b118c158e,626b377229c10585ec392f8a,626b39031ce2c60a76cb44b6,,,,,,,,,,,,,,,,,,,,,,,l,0,"[""0.437"",""0.522"",""0.918"",""0.967""]","[0,1,1,1]",0,17,17,17,1,0,1,,,1,FALSE,6.8022,,,,,,,,,,,,,,,,,,,,,,,,,,,,,,
,614c5568b8da906b118c158e,001,2022-04-29_03h06.38.828,classification_task,2021.2.3,Win32,20.02242512,614c5568b8da906b118c158e,626b377229c10585ec392f8a,626b39031ce2c60a76cb44b6,,,,,,,,,,,,,,,,,,,,,,,l,0,"[""0.279"",""0.397"",""0.451"",""0.877""]","[1,1,0,1]",0,18,18,18,1,0,0,,,1,FALSE,7.5006,,,,,,,,,,,,,,,,,,,,,,,,,,,,,,
,614c5568b8da906b118c158e,001,2022-04-29_03h06.38.828,classification_task,2021.2.3,Win32,20.02242512,614c5568b8da906b118c158e,626b377229c10585ec392f8a,626b39031ce2c60a76cb44b6,,,,,,,,,,,,,,,,,,,,,,,l,1,"[""0.060"",""0.220"",""0.565"",""0.441""]","[1,1,1,0]",0,19,19,19,1,1,0,,,1,FALSE,2.8773,,,,,,,,,,,,,,,,,,,,,,,,,,,,,,
,614c5568b8da906b118c158e,001,2022-04-29_03h06.38.828,classification_task,2021.2.3,Win32,20.02242512,614c5568b8da906b118c158e,626b377229c10585ec392f8a,626b39031ce2c60a76cb44b6,,,,,,,,,,,,,,,,,,,,,,,l,1,"[""0.145"",""0.347"",""0.438"",""0.757""]","[1,1,0,1]",0,20,20,20,1,1,1,,,1,FALSE,5.8787,,,,,,,,,,,,,,,,,,,,,,,,,,,,,,
,614c5568b8da906b118c158e,001,2022-04-29_03h06.38.828,classification_task,2021.2.3,Win32,20.02242512,614c5568b8da906b118c158e,626b377229c10585ec392f8a,626b39031ce2c60a76cb44b6,,,,,,,,,,,,,,,,,,,,,,,l,1,"[""0.145"",""0.347"",""0.652"",""0.438""]","[1,1,1,0]",0,21,21,21,1,1,1,,,1,FALSE,5.8581,,,,,,,,,,,,,,,,,,,,,,,,,,,,,,
,614c5568b8da906b118c158e,001,2022-04-29_03h06.38.828,classification_task,2021.2.3,Win32,20.02242512,614c5568b8da906b118c158e,626b377229c10585ec392f8a,626b39031ce2c60a76cb44b6,,,,,,,,,,,,,,,,,,,,,,,l,1,"[""0.060"",""0.603"",""0.565"",""0.696""]","[1,0,1,1]",0,22,22,22,1,1,0,,,1,FALSE,6.8672,,,,,,,,,,,,,,,,,,,,,,,,,,,,,,
,614c5568b8da906b118c158e,001,2022-04-29_03h06.38.828,classification_task,2021.2.3,Win32,20.02242512,614c5568b8da906b118c158e,626b377229c10585ec392f8a,626b39031ce2c60a76cb44b6,,,,,,,,,,,,,,,,,,,,,,,a,0,"[""0.060"",""0.220"",""0.437"",""0.696""]","[1,1,0,1]",0,23,23,23,1,1,0,,,1,FALSE,7.2359,,,,,,,,,,,,,,,,,,,,,,,,,,,,,,
,614c5568b8da906b118c158e,001,2022-04-29_03h06.38.828,classification_task,2021.2.3,Win32,20.02242512,614c5568b8da906b118c158e,626b377229c10585ec392f8a,626b39031ce2c60a76cb44b6,,,,,,,,,,,,,,,,,,,,,,,a,1,"[""0.279"",""0.397"",""0.799"",""0.603""]","[1,1,1,0]",0,24,24,24,1,0,0,,,1,FALSE,7.7654,,,,,,,,,,,,,,,,,,,,,,,,,,,,,,
,614c5568b8da906b118c158e,001,2022-04-29_03h06.38.828,classification_task,2021.2.3,Win32,20.02242512,614c5568b8da906b118c158e,626b377229c10585ec392f8a,626b39031ce2c60a76cb44b6,,,,,,,,,,,,,,,,,,,,,,,a,1,"[""0.179"",""0.095"",""0.918"",""0.967""]","[1,0,1,1]",0,25,25,25,1,0,1,,,1,FALSE,6.8366,,,,,,,,,,,,,,,,,,,,,,,,,,,,,,
,614c5568b8da906b118c158e,001,2022-04-29_03h06.38.828,classification_task,2021.2.3,Win32,20.02242512,614c5568b8da906b118c158e,626b377229c10585ec392f8a,626b39031ce2c60a76cb44b6,,,,,,,,,,,,,,,,,,,,,,,l,1,"[""0.476"",""0.347"",""0.652"",""0.757""]","[0,1,1,1]",0,26,26,26,1,1,1,,,1,FALSE,8.1425,,,,,,,,,,,,,,,,,,,,,,,,,,,,,,
,614c5568b8da906b118c158e,001,2022-04-29_03h06.38.828,classification_task,2021.2.3,Win32,20.02242512,614c5568b8da906b118c158e,626b377229c10585ec392f8a,626b39031ce2c60a76cb44b6,,,,,,,,,,,,,,,,,,,,,,,l,0,"[""0.179"",""0.522"",""0.918"",""0.603""]","[1,1,1,0]",0,27,27,27,1,0,1,,,1,FALSE,3.1494,,,,,,,,,,,,,,,,,,,,,,,,,,,,,,
,614c5568b8da906b118c158e,001,2022-04-29_03h06.38.828,classification_task,2021.2.3,Win32,20.02242512,614c5568b8da906b118c158e,626b377229c10585ec392f8a,626b39031ce2c60a76cb44b6,,,,,,,,,,,,,,,,,,,,,,,,0,"[""0.095"",""0.397"",""0.799"",""0.877""]","[0,1,1,1]",0,28,28,28,1,0,0,,,1,FALSE,,,,,,,,,,,,,,,,,,,,,,,,,,,,,,,
,614c5568b8da906b118c158e,001,2022-04-29_03h06.38.828,classification_task,2021.2.3,Win32,20.02242512,614c5568b8da906b118c158e,626b377229c10585ec392f8a,626b39031ce2c60a76cb44b6,,,,,,,,,,,,,,,,,,,,,,,l,1,"[""0.145"",""0.603"",""0.652"",""0.757""]","[1,0,1,1]",0,29,29,29,1,1,1,,,1,FALSE,5.7974,,,,,,,,,,,,,,,,,,,,,,,,,,,,,,
,614c5568b8da906b118c158e,001,2022-04-29_03h06.38.828,classification_task,2021.2.3,Win32,20.02242512,614c5568b8da906b118c158e,626b377229c10585ec392f8a,626b39031ce2c60a76cb44b6,,,,,,,,,,,,,,,,,,,,,,,a,1,"[""0.179"",""0.522"",""0.606"",""0.967""]","[1,1,0,1]",0,30,30,30,1,0,1,,,1,FALSE,5.5454,,,,,,,,,,,,,,,,,,,,,,,,,,,,,,
,614c5568b8da906b118c158e,001,2022-04-29_03h06.38.828,classification_task,2021.2.3,Win32,20.02242512,614c5568b8da906b118c158e,626b377229c10585ec392f8a,626b39031ce2c60a76cb44b6,,,,,,,,,,,,,,,,,,,,,,,a,1,"[""0.279"",""0.603"",""0.799"",""0.877""]","[1,0,1,1]",0,31,31,31,1,0,0,,,1,FALSE,7.4083,,,,,,,,,,,,,,,,,,,,,,,,,,,,,,
,614c5568b8da906b118c158e,001,2022-04-29_03h06.38.828,classification_task,2021.2.3,Win32,20.02242512,614c5568b8da906b118c158e,626b377229c10585ec392f8a,626b39031ce2c60a76cb44b6,,,,,,,,,,,,,,,,,,,,,,,,0,"[""0.179"",""0.522"",""0.437"",""0.967""]","[1,1,0,1]",0,32,32,32,1,0,1,,,1,FALSE,,,,,,,,,,,,,,,,,,,,,,,,,,,,,,,
,614c5568b8da906b118c158e,001,2022-04-29_03h06.38.828,classification_task,2021.2.3,Win32,20.02242512,614c5568b8da906b118c158e,626b377229c10585ec392f8a,626b39031ce2c60a76cb44b6,,,,,,,,,,,,,,,,,,,,,,,a,0,"[""0.437"",""0.220"",""0.565"",""0.696""]","[0,1,1,1]",0,33,33,33,1,1,0,,,1,FALSE,4.3729,,,,,,,,,,,,,,,,,,,,,,,,,,,,,,
,614c5568b8da906b118c158e,001,2022-04-29_03h06.38.828,classification_task,2021.2.3,Win32,20.02242512,614c5568b8da906b118c158e,626b377229c10585ec392f8a,626b39031ce2c60a76cb44b6,,,,,,,,,,,,,,,,,,,,,,,a,1,"[""0.445"",""0.522"",""0.918"",""0.967""]","[0,1,1,1]",0,34,34,34,1,0,1,,,1,FALSE,7.6398,,,,,,,,,,,,,,,,,,,,,,,,,,,,,,
,614c5568b8da906b118c158e,001,2022-04-29_03h06.38.828,classification_task,2021.2.3,Win32,20.02242512,614c5568b8da906b118c158e,626b377229c10585ec392f8a,626b39031ce2c60a76cb44b6,,,,,,,,,,,,,,,,,,,,,,,a,0,"[""0.145"",""0.347"",""0.437"",""0.757""]","[1,1,0,1]",0,35,35,35,1,1,1,,,1,FALSE,4.9601,,,,,,,,,,,,,,,,,,,,,,,,,,,,,,
,614c5568b8da906b118c158e,001,2022-04-29_03h06.38.828,classification_task,2021.2.3,Win32,20.02242512,614c5568b8da906b118c158e,626b377229c10585ec392f8a,626b39031ce2c60a76cb44b6,,,,,,,,,,,,,,,,,,,,,,,l,1,"[""0.145"",""0.438"",""0.652"",""0.757""]","[1,0,1,1]",0,36,36,36,1,1,1,,,1,FALSE,1.9258,,,,,,,,,,,,,,,,,,,,,,,,,,,,,,
,614c5568b8da906b118c158e,001,2022-04-29_03h06.38.828,classification_task,2021.2.3,Win32,20.02242512,614c5568b8da906b118c158e,626b377229c10585ec392f8a,626b39031ce2c60a76cb44b6,,,,,,,,,,,,,,,,,,,,,,,l,0,"[""0.279"",""0.397"",""0.799"",""0.602""]","[1,1,1,0]",0,37,37,37,1,0,0,,,1,FALSE,3.5573,,,,,,,,,,,,,,,,,,,,,,,,,,,,,,
,614c5568b8da906b118c158e,001,2022-04-29_03h06.38.828,classification_task,2021.2.3,Win32,20.02242512,614c5568b8da906b118c158e,626b377229c10585ec392f8a,626b39031ce2c60a76cb44b6,,,,,,,,,,,,,,,,,,,,,,,l,0,"[""0.179"",""0.451"",""0.918"",""0.967""]","[1,0,1,1]",0,38,38,38,1,0,1,,,1,FALSE,3.6342,,,,,,,,,,,,,,,,,,,,,,,,,,,,,,
,614c5568b8da906b118c158e,001,2022-04-29_03h06.38.828,classification_task,2021.2.3,Win32,20.02242512,614c5568b8da906b118c158e,626b377229c10585ec392f8a,626b39031ce2c60a76cb44b6,,,,,,,,,,,,,,,,,,,,,,,a,1,"[""0.279"",""0.095"",""0.799"",""0.877""]","[1,0,1,1]",0,39,39,39,1,0,0,,,1,FALSE,2.1345,,,,,,,,,,,,,,,,,,,,,,,,,,,,,,
,614c5568b8da906b118c158e,001,2022-04-29_03h06.38.828,classification_task,2021.2.3,Win32,20.02242512,614c5568b8da906b118c158e,626b377229c10585ec392f8a,626b39031ce2c60a76cb44b6,,,,,,,,,,,,,,,,,,,,,,,a,1,"[""0.603"",""0.397"",""0.799"",""0.877""]","[0,1,1,1]",0,40,40,40,1,0,0,,,1,FALSE,2.8962,,,,,,,,,,,,,,,,,,,,,,,,,,,,,,
,614c5568b8da906b118c158e,001,2022-04-29_03h06.38.828,classification_task,2021.2.3,Win32,20.02242512,614c5568b8da906b118c158e,626b377229c10585ec392f8a,626b39031ce2c60a76cb44b6,,,,,,,,,,,,,,,,,,,,,,,a,0,"[""0.145"",""0.347"",""0.652"",""0.603""]","[1,1,1,0]",0,41,41,41,1,1,1,,,1,FALSE,2.906,,,,,,,,,,,,,,,,,,,,,,,,,,,,,,
,614c5568b8da906b118c158e,001,2022-04-29_03h06.38.828,classification_task,2021.2.3,Win32,20.02242512,614c5568b8da906b118c158e,626b377229c10585ec392f8a,626b39031ce2c60a76cb44b6,,,,,,,,,,,,,,,,,,,,,,,a,1,"[""0.179"",""0.522"",""0.918"",""0.095""]","[1,1,1,0]",0,42,42,42,1,0,1,,,1,FALSE,2.8901,,,,,,,,,,,,,,,,,,,,,,,,,,,,,,
,614c5568b8da906b118c158e,001,2022-04-29_03h06.38.828,classification_task,2021.2.3,Win32,20.02242512,614c5568b8da906b118c158e,626b377229c10585ec392f8a,626b39031ce2c60a76cb44b6,,,,,,,,,,,,,,,,,,,,,,,l,1,"[""0.060"",""0.220"",""0.453"",""0.696""]","[1,1,0,1]",0,43,43,43,1,1,0,,,1,FALSE,3.255,,,,,,,,,,,,,,,,,,,,,,,,,,,,,,
,614c5568b8da906b118c158e,001,2022-04-29_03h06.38.828,classification_task,2021.2.3,Win32,20.02242512,614c5568b8da906b118c158e,626b377229c10585ec392f8a,626b39031ce2c60a76cb44b6,,,,,,,,,,,,,,,,,,,,,,,l,1,"[""0.060"",""0.602"",""0.565"",""0.696""]","[1,0,1,1]",0,44,44,44,1,1,0,,,1,FALSE,2.4618,,,,,,,,,,,,,,,,,,,,,,,,,,,,,,
,614c5568b8da906b118c158e,001,2022-04-29_03h06.38.828,classification_task,2021.2.3,Win32,20.02242512,614c5568b8da906b118c158e,626b377229c10585ec392f8a,626b39031ce2c60a76cb44b6,,,,,,,,,,,,,,,,,,,,,,,l,1,"[""0.606"",""0.347"",""0.652"",""0.757""]","[0,1,1,1]",0,45,45,45,1,1,1,,,1,FALSE,2.1392,,,,,,,,,,,,,,,,,,,,,,,,,,,,,,
,614c5568b8da906b118c158e,001,2022-04-29_03h06.38.828,classification_task,2021.2.3,Win32,20.02242512,614c5568b8da906b118c158e,626b377229c10585ec392f8a,626b39031ce2c60a76cb44b6,,,,,,,,,,,,,,,,,,,,,,,a,1,"[""0.279"",""0.397"",""0.437"",""0.877""]","[1,1,0,1]",0,46,46,46,1,0,0,,,1,FALSE,2.1722,,,,,,,,,,,,,,,,,,,,,,,,,,,,,,
,614c5568b8da906b118c158e,001,2022-04-29_03h06.38.828,classification_task,2021.2.3,Win32,20.02242512,614c5568b8da906b118c158e,626b377229c10585ec392f8a,626b39031ce2c60a76cb44b6,,,,,,,,,,,,,,,,,,,,,,,l,1,"[""0.060"",""0.220"",""0.565"",""0.438""]","[1,1,1,0]",0,47,47,47,1,1,0,,,1,FALSE,2.1384,,,,,,,,,,,,,,,,,,,,,,,,,,,,,,
,614c5568b8da906b118c158e,001,2022-04-29_03h06.38.828,classification_task,2021.2.3,Win32,20.02242512,614c5568b8da906b118c158e,626b377229c10585ec392f8a,626b39031ce2c60a76cb44b6,,,,,,,,,,,,,,,,,,,,,,,a,1,"[""0.279"",""0.397"",""0.437"",""0.877""]","[1,1,0,1]",0,48,48,48,1,0,0,,,1,FALSE,2.5751,,,,,,,,,,,,,,,,,,,,,,,,,,,,,,
,614c5568b8da906b118c158e,001,2022-04-29_03h06.38.828,classification_task,2021.2.3,Win32,20.02242512,614c5568b8da906b118c158e,626b377229c10585ec392f8a,626b39031ce2c60a76cb44b6,,,,,,,,,,,,,,,,,,,,,,,l,1,"[""0.060"",""0.437"",""0.565"",""0.696""]","[1,0,1,1]",0,49,49,49,1,1,0,,,1,FALSE,2.8445,,,,,,,,,,,,,,,,,,,,,,,,,,,,,,
,614c5568b8da906b118c158e,001,2022-04-29_03h06.38.828,classification_task,2021.2.3,Win32,20.02242512,614c5568b8da906b118c158e,626b377229c10585ec392f8a,626b39031ce2c60a76cb44b6,,,,,,,,,,,,,,,,,,,,,,,l,0,"[""0.179"",""0.522"",""0.918"",""0.461""]","[1,1,1,0]",0,50,50,50,1,0,1,,,1,FALSE,2.8698,,,,,,,,,,,,,,,,,,,,,,,,,,,,,,
,614c5568b8da906b118c158e,001,2022-04-29_03h06.38.828,classification_task,2021.2.3,Win32,20.02242512,614c5568b8da906b118c158e,626b377229c10585ec392f8a,626b39031ce2c60a76cb44b6,,,,,,,,,,,,,,,,,,,,,,,l,1,"[""0.437"",""0.347"",""0.652"",""0.757""]","[0,1,1,1]",0,51,51,51,1,1,1,,,1,FALSE,2.2406,,,,,,,,,,,,,,,,,,,,,,,,,,,,,,
,614c5568b8da906b118c158e,001,2022-04-29_03h06.38.828,classification_task,2021.2.3,Win32,20.02242512,614c5568b8da906b118c158e,626b377229c10585ec392f8a,626b39031ce2c60a76cb44b6,,,,,,,,,,,,,,,,,,,,,,,a,1,"[""0.279"",""0.602"",""0.799"",""0.877""]","[1,0,1,1]",0,52,52,52,1,0,0,,,1,FALSE,2.8629,,,,,,,,,,,,,,,,,,,,,,,,,,,,,,
,614c5568b8da906b118c158e,001,2022-04-29_03h06.38.828,classification_task,2021.2.3,Win32,20.02242512,614c5568b8da906b118c158e,626b377229c10585ec392f8a,626b39031ce2c60a76cb44b6,,,,,,,,,,,,,,,,,,,,,,,a,0,"[""0.145"",""0.445"",""0.652"",""0.757""]","[1,0,1,1]",0,53,53,53,1,1,1,,,1,FALSE,4.0678,,,,,,,,,,,,,,,,,,,,,,,,,,,,,,
,614c5568b8da906b118c158e,001,2022-04-29_03h06.38.828,classification_task,2021.2.3,Win32,20.02242512,614c5568b8da906b118c158e,626b377229c10585ec392f8a,626b39031ce2c60a76cb44b6,,,,,,,,,,,,,,,,,,,,,,,a,1,"[""0.179"",""0.437"",""0.918"",""0.967""]","[1,0,1,1]",0,54,54,54,1,0,1,,,1,FALSE,1.8045,,,,,,,,,,,,,,,,,,,,,,,,,,,,,,
,614c5568b8da906b118c158e,001,2022-04-29_03h06.38.828,classification_task,2021.2.3,Win32,20.02242512,614c5568b8da906b118c158e,626b377229c10585ec392f8a,626b39031ce2c60a76cb44b6,,,,,,,,,,,,,,,,,,,,,,,a,0,"[""0.060"",""0.220"",""0.441"",""0.696""]","[1,1,0,1]",0,55,55,55,1,1,0,,,1,FALSE,3.949,,,,,,,,,,,,,,,,,,,,,,,,,,,,,,
,614c5568b8da906b118c158e,001,2022-04-29_03h06.38.828,classification_task,2021.2.3,Win32,20.02242512,614c5568b8da906b118c158e,626b377229c10585ec392f8a,626b39031ce2c60a76cb44b6,,,,,,,,,,,,,,,,,,,,,,,a,0,"[""0.145"",""0.347"",""0.437"",""0.757""]","[1,1,0,1]",0,56,56,56,1,1,1,,,1,FALSE,3.2557,,,,,,,,,,,,,,,,,,,,,,,,,,,,,,
,614c5568b8da906b118c158e,001,2022-04-29_03h06.38.828,classification_task,2021.2.3,Win32,20.02242512,614c5568b8da906b118c158e,626b377229c10585ec392f8a,626b39031ce2c60a76cb44b6,,,,,,,,,,,,,,,,,,,,,,,a,1,"[""0.437"",""0.397"",""0.799"",""0.877""]","[0,1,1,1]",0,57,57,57,1,0,0,,,1,FALSE,1.7991,,,,,,,,,,,,,,,,,,,,,,,,,,,,,,
,614c5568b8da906b118c158e,001,2022-04-29_03h06.38.828,classification_task,2021.2.3,Win32,20.02242512,614c5568b8da906b118c158e,626b377229c10585ec392f8a,626b39031ce2c60a76cb44b6,,,,,,,,,,,,,,,,,,,,,,,l,1,"[""0.476"",""0.220"",""0.565"",""0.696""]","[0,1,1,1]",0,58,58,58,1,1,0,,,1,FALSE,1.4544,,,,,,,,,,,,,,,,,,,,,,,,,,,,,,
,614c5568b8da906b118c158e,001,2022-04-29_03h06.38.828,classification_task,2021.2.3,Win32,20.02242512,614c5568b8da906b118c158e,626b377229c10585ec392f8a,626b39031ce2c60a76cb44b6,,,,,,,,,,,,,,,,,,,,,,,l,1,"[""0.145"",""0.347"",""0.652"",""0.438""]","[1,1,1,0]",0,59,59,59,1,1,1,,,1,FALSE,1.824,,,,,,,,,,,,,,,,,,,,,,,,,,,,,,
,614c5568b8da906b118c158e,001,2022-04-29_03h06.38.828,classification_task,2021.2.3,Win32,20.02242512,614c5568b8da906b118c158e,626b377229c10585ec392f8a,626b39031ce2c60a76cb44b6,,,,,,,,,,,,,,,,,,,,,,,a,1,"[""0.179"",""0.522"",""0.461"",""0.967""]","[1,1,0,1]",0,60,60,60,1,0,1,,,1,FALSE,1.8143,,,,,,,,,,,,,,,,,,,,,,,,,,,,,,
,614c5568b8da906b118c158e,001,2022-04-29_03h06.38.828,classification_task,2021.2.3,Win32,20.02242512,614c5568b8da906b118c158e,626b377229c10585ec392f8a,626b39031ce2c60a76cb44b6,,,,,,,,,,,,,,,,,,,,,,,a,1,"[""0.279"",""0.397"",""0.799"",""0.476""]","[1,1,1,0]",0,61,61,61,1,0,0,,,1,FALSE,2.2132,,,,,,,,,,,,,,,,,,,,,,,,,,,,,,
,614c5568b8da906b118c158e,001,2022-04-29_03h06.38.828,classification_task,2021.2.3,Win32,20.02242512,614c5568b8da906b118c158e,626b377229c10585ec392f8a,626b39031ce2c60a76cb44b6,,,,,,,,,,,,,,,,,,,,,,,l,1,"[""0.060"",""0.220"",""0.565"",""0.603""]","[1,1,1,0]",0,62,62,62,1,1,0,,,1,FALSE,1.4253,,,,,,,,,,,,,,,,,,,,,,,,,,,,,,
,614c5568b8da906b118c158e,001,2022-04-29_03h06.38.828,classification_task,2021.2.3,Win32,20.02242512,614c5568b8da906b118c158e,626b377229c10585ec392f8a,626b39031ce2c60a76cb44b6,,,,,,,,,,,,,,,,,,,,,,,a,1,"[""0.095"",""0.522"",""0.918"",""0.967""]","[0,1,1,1]",0,63,63,63,1,0,1,,,1,FALSE,1.8097,,,,,,,,,,,,,,,,,,,,,,,,,,,,,,
,614c5568b8da906b118c158e,001,2022-04-29_03h06.38.828,classification_task,2021.2.3,Win32,20.02242512,614c5568b8da906b118c158e,626b377229c10585ec392f8a,626b39031ce2c60a76cb44b6,,,,,,,,,,,,,,,,,,,,,,,,,,,,,,,,,,,,,,,0, ,,0,5.515076496,748.044,0,0,0,0,1,2,1,,,,,,,,,,,,,,,,,
,614c5568b8da906b118c158e,001,2022-04-29_03h06.38.828,classification_task,2021.2.3,Win32,20.02242512,614c5568b8da906b118c158e,626b377229c10585ec392f8a,626b39031ce2c60a76cb44b6,,,,,,,,,,,,,,,,,,,,,,,,,,,,,,,,,,,,,,,1,  ,,0,9.33955242,753.914,0,0,0,0,1,2,1,,,,,,,,,,,,,,,,,
,614c5568b8da906b118c158e,001,2022-04-29_03h06.38.828,classification_task,2021.2.3,Win32,20.02242512,614c5568b8da906b118c158e,626b377229c10585ec392f8a,626b39031ce2c60a76cb44b6,,,,,,,,,,,,,,,,,,,,,,,,,,,,,,,,,,,,,,,2,  ,,0,7.648732742,762.9849,0,0,0,0,1,2,1,,,,,,,,,,,,,,,,,
,614c5568b8da906b118c158e,001,2022-04-29_03h06.38.828,classification_task,2021.2.3,Win32,20.02242512,614c5568b8da906b118c158e,626b377229c10585ec392f8a,626b39031ce2c60a76cb44b6,,,,,,,,,,,,,,,,,,,,,,,,,,,,,,,,,,,,,,,,,,,,,0,0,0,0,1,,1,,,,,,,,,,,,,,,,,
,614c5568b8da906b118c158e,001,2022-04-29_03h06.38.828,classification_task,2021.2.3,Win32,20.02242512,614c5568b8da906b118c158e,626b377229c10585ec392f8a,626b39031ce2c60a76cb44b6,,,,,,,,,,,,,,,,,,,,,space,23.1331,a,1,"[""0.179"",""0.522"",""0.918"",""0.095""]","[1,1,1,0]",0,0,0,0,1,0,1,,,1,FALSE,7.9872,,,,,,,,,,,,,,,,,,,,,,,,,,,,,,
,614c5568b8da906b118c158e,001,2022-04-29_03h06.38.828,classification_task,2021.2.3,Win32,20.02242512,614c5568b8da906b118c158e,626b377229c10585ec392f8a,626b39031ce2c60a76cb44b6,,,,,,,,,,,,,,,,,,,,,,,l,1,"[""0.145"",""0.347"",""0.445"",""0.757""]","[1,1,0,1]",0,1,1,1,1,1,1,,,1,FALSE,5.2689,,,,,,,,,,,,,,,,,,,,,,,,,,,,,,
,614c5568b8da906b118c158e,001,2022-04-29_03h06.38.828,classification_task,2021.2.3,Win32,20.02242512,614c5568b8da906b118c158e,626b377229c10585ec392f8a,626b39031ce2c60a76cb44b6,,,,,,,,,,,,,,,,,,,,,,,a,0,"[""0.060"",""0.220"",""0.476"",""0.696""]","[1,1,0,1]",0,2,2,2,1,1,0,,,1,FALSE,2.5589,,,,,,,,,,,,,,,,,,,,,,,,,,,,,,
,614c5568b8da906b118c158e,001,2022-04-29_03h06.38.828,classification_task,2021.2.3,Win32,20.02242512,614c5568b8da906b118c158e,626b377229c10585ec392f8a,626b39031ce2c60a76cb44b6,,,,,,,,,,,,,,,,,,,,,,,,0,"[""0.145"",""0.347"",""0.652"",""0.453""]","[1,1,1,0]",0,3,3,3,1,1,1,,,1,FALSE,,,,,,,,,,,,,,,,,,,,,,,,,,,,,,,
,614c5568b8da906b118c158e,001,2022-04-29_03h06.38.828,classification_task,2021.2.3,Win32,20.02242512,614c5568b8da906b118c158e,626b377229c10585ec392f8a,626b39031ce2c60a76cb44b6,,,,,,,,,,,,,,,,,,,,,,,l,1,"[""0.145"",""0.451"",""0.652"",""0.757""]","[1,0,1,1]",0,4,4,4,1,1,1,,,1,FALSE,1.4907,,,,,,,,,,,,,,,,,,,,,,,,,,,,,,
,614c5568b8da906b118c158e,001,2022-04-29_03h06.38.828,classification_task,2021.2.3,Win32,20.02242512,614c5568b8da906b118c158e,626b377229c10585ec392f8a,626b39031ce2c60a76cb44b6,,,,,,,,,,,,,,,,,,,,,,,a,1,"[""0.279"",""0.603"",""0.799"",""0.877""]","[1,0,1,1]",0,5,5,5,1,0,0,,,1,FALSE,2.6702,,,,,,,,,,,,,,,,,,,,,,,,,,,,,,
,614c5568b8da906b118c158e,001,2022-04-29_03h06.38.828,classification_task,2021.2.3,Win32,20.02242512,614c5568b8da906b118c158e,626b377229c10585ec392f8a,626b39031ce2c60a76cb44b6,,,,,,,,,,,,,,,,,,,,,,,l,0,"[""0.279"",""0.397"",""0.438"",""0.877""]","[1,1,0,1]",0,6,6,6,1,0,0,,,1,FALSE,1.8418,,,,,,,,,,,,,,,,,,,,,,,,,,,,,,
,614c5568b8da906b118c158e,001,2022-04-29_03h06.38.828,classification_task,2021.2.3,Win32,20.02242512,614c5568b8da906b118c158e,626b377229c10585ec392f8a,626b39031ce2c60a76cb44b6,,,,,,,,,,,,,,,,,,,,,,,a,1,"[""0.279"",""0.397"",""0.799"",""0.602""]","[1,1,1,0]",0,7,7,7,1,0,0,,,1,FALSE,1.8558,,,,,,,,,,,,,,,,,,,,,,,,,,,,,,
,614c5568b8da906b118c158e,001,2022-04-29_03h06.38.828,classification_task,2021.2.3,Win32,20.02242512,614c5568b8da906b118c158e,626b377229c10585ec392f8a,626b39031ce2c60a76cb44b6,,,,,,,,,,,,,,,,,,,,,,,l,1,"[""0.603"",""0.347"",""0.652"",""0.757""]","[0,1,1,1]",0,8,8,8,1,1,1,,,1,FALSE,1.1095,,,,,,,,,,,,,,,,,,,,,,,,,,,,,,
,614c5568b8da906b118c158e,001,2022-04-29_03h06.38.828,classification_task,2021.2.3,Win32,20.02242512,614c5568b8da906b118c158e,626b377229c10585ec392f8a,626b39031ce2c60a76cb44b6,,,,,,,,,,,,,,,,,,,,,,,a,0,"[""0.060"",""0.437"",""0.565"",""0.696""]","[1,0,1,1]",0,9,9,9,1,1,0,,,1,FALSE,1.8296,,,,,,,,,,,,,,,,,,,,,,,,,,,,,,
,614c5568b8da906b118c158e,001,2022-04-29_03h06.38.828,classification_task,2021.2.3,Win32,20.02242512,614c5568b8da906b118c158e,626b377229c10585ec392f8a,626b39031ce2c60a76cb44b6,,,,,,,,,,,,,,,,,,,,,,,a,0,"[""0.060"",""0.220"",""0.565"",""0.461""]","[1,1,1,0]",0,10,10,10,1,1,0,,,1,FALSE,1.5382,,,,,,,,,,,,,,,,,,,,,,,,,,,,,,
,614c5568b8da906b118c158e,001,2022-04-29_03h06.38.828,classification_task,2021.2.3,Win32,20.02242512,614c5568b8da906b118c158e,626b377229c10585ec392f8a,626b39031ce2c60a76cb44b6,,,,,,,,,,,,,,,,,,,,,,,a,1,"[""0.095"",""0.397"",""0.799"",""0.877""]","[0,1,1,1]",0,11,11,11,1,0,0,,,1,FALSE,1.1063,,,,,,,,,,,,,,,,,,,,,,,,,,,,,,
,614c5568b8da906b118c158e,001,2022-04-29_03h06.38.828,classification_task,2021.2.3,Win32,20.02242512,614c5568b8da906b118c158e,626b377229c10585ec392f8a,626b39031ce2c60a76cb44b6,,,,,,,,,,,,,,,,,,,,,,,l,1,"[""0.438"",""0.220"",""0.565"",""0.696""]","[0,1,1,1]",0,12,12,12,1,1,0,,,1,FALSE,1.5502,,,,,,,,,,,,,,,,,,,,,,,,,,,,,,
,614c5568b8da906b118c158e,001,2022-04-29_03h06.38.828,classification_task,2021.2.3,Win32,20.02242512,614c5568b8da906b118c158e,626b377229c10585ec392f8a,626b39031ce2c60a76cb44b6,,,,,,,,,,,,,,,,,,,,,,,a,1,"[""0.461"",""0.522"",""0.918"",""0.967""]","[0,1,1,1]",0,13,13,13,1,0,1,,,1,FALSE,1.1795,,,,,,,,,,,,,,,,,,,,,,,,,,,,,,
,614c5568b8da906b118c158e,001,2022-04-29_03h06.38.828,classification_task,2021.2.3,Win32,20.02242512,614c5568b8da906b118c158e,626b377229c10585ec392f8a,626b39031ce2c60a76cb44b6,,,,,,,,,,,,,,,,,,,,,,,a,1,"[""0.179"",""0.522"",""0.437"",""0.967""]","[1,1,0,1]",0,14,14,14,1,0,1,,,1,FALSE,0.7479,,,,,,,,,,,,,,,,,,,,,,,,,,,,,,
,614c5568b8da906b118c158e,001,2022-04-29_03h06.38.828,classification_task,2021.2.3,Win32,20.02242512,614c5568b8da906b118c158e,626b377229c10585ec392f8a,626b39031ce2c60a76cb44b6,,,,,,,,,,,,,,,,,,,,,,,a,1,"[""0.179"",""0.603"",""0.918"",""0.967""]","[1,0,1,1]",0,15,15,15,1,0,1,,,1,FALSE,1.1068,,,,,,,,,,,,,,,,,,,,,,,,,,,,,,
,614c5568b8da906b118c158e,001,2022-04-29_03h06.38.828,classification_task,2021.2.3,Win32,20.02242512,614c5568b8da906b118c158e,626b377229c10585ec392f8a,626b39031ce2c60a76cb44b6,,,,,,,,,,,,,,,,,,,,,,,l,0,"[""0.279"",""0.397"",""0.799"",""0.445""]","[1,1,1,0]",0,16,16,16,1,0,0,,,1,FALSE,3.664,,,,,,,,,,,,,,,,,,,,,,,,,,,,,,
,614c5568b8da906b118c158e,001,2022-04-29_03h06.38.828,classification_task,2021.2.3,Win32,20.02242512,614c5568b8da906b118c158e,626b377229c10585ec392f8a,626b39031ce2c60a76cb44b6,,,,,,,,,,,,,,,,,,,,,,,l,1,"[""0.060"",""0.220"",""0.565"",""0.437""]","[1,1,1,0]",0,17,17,17,1,1,0,,,1,FALSE,2.6315,,,,,,,,,,,,,,,,,,,,,,,,,,,,,,
,614c5568b8da906b118c158e,001,2022-04-29_03h06.38.828,classification_task,2021.2.3,Win32,20.02242512,614c5568b8da906b118c158e,626b377229c10585ec392f8a,626b39031ce2c60a76cb44b6,,,,,,,,,,,,,,,,,,,,,,,l,1,"[""0.145"",""0.347"",""0.652"",""0.437""]","[1,1,1,0]",0,18,18,18,1,1,1,,,1,FALSE,2.2959,,,,,,,,,,,,,,,,,,,,,,,,,,,,,,
,614c5568b8da906b118c158e,001,2022-04-29_03h06.38.828,classification_task,2021.2.3,Win32,20.02242512,614c5568b8da906b118c158e,626b377229c10585ec392f8a,626b39031ce2c60a76cb44b6,,,,,,,,,,,,,,,,,,,,,,,l,1,"[""0.145"",""0.347"",""0.602"",""0.757""]","[1,1,0,1]",0,19,19,19,1,1,1,,,1,FALSE,1.7844,,,,,,,,,,,,,,,,,,,,,,,,,,,,,,
,614c5568b8da906b118c158e,001,2022-04-29_03h06.38.828,classification_task,2021.2.3,Win32,20.02242512,614c5568b8da906b118c158e,626b377229c10585ec392f8a,626b39031ce2c60a76cb44b6,,,,,,,,,,,,,,,,,,,,,,,a,0,"[""0.060"",""0.220"",""0.438"",""0.696""]","[1,1,0,1]",0,20,20,20,1,1,0,,,1,FALSE,2.4453,,,,,,,,,,,,,,,,,,,,,,,,,,,,,,
,614c5568b8da906b118c158e,001,2022-04-29_03h06.38.828,classification_task,2021.2.3,Win32,20.02242512,614c5568b8da906b118c158e,626b377229c10585ec392f8a,626b39031ce2c60a76cb44b6,,,,,,,,,,,,,,,,,,,,,,,a,1,"[""0.179"",""0.522"",""0.441"",""0.967""]","[1,1,0,1]",0,21,21,21,1,0,1,,,1,FALSE,1.5117,,,,,,,,,,,,,,,,,,,,,,,,,,,,,,
,614c5568b8da906b118c158e,001,2022-04-29_03h06.38.828,classification_task,2021.2.3,Win32,20.02242512,614c5568b8da906b118c158e,626b377229c10585ec392f8a,626b39031ce2c60a76cb44b6,,,,,,,,,,,,,,,,,,,,,,,a,1,"[""0.179"",""0.522"",""0.918"",""0.453""]","[1,1,1,0]",0,22,22,22,1,0,1,,,1,FALSE,1.5153,,,,,,,,,,,,,,,,,,,,,,,,,,,,,,
,614c5568b8da906b118c158e,001,2022-04-29_03h06.38.828,classification_task,2021.2.3,Win32,20.02242512,614c5568b8da906b118c158e,626b377229c10585ec392f8a,626b39031ce2c60a76cb44b6,,,,,,,,,,,,,,,,,,,,,,,a,1,"[""0.095"",""0.397"",""0.799"",""0.877""]","[0,1,1,1]",0,23,23,23,1,0,0,,,1,FALSE,2.5583,,,,,,,,,,,,,,,,,,,,,,,,,,,,,,
,614c5568b8da906b118c158e,001,2022-04-29_03h06.38.828,classification_task,2021.2.3,Win32,20.02242512,614c5568b8da906b118c158e,626b377229c10585ec392f8a,626b39031ce2c60a76cb44b6,,,,,,,,,,,,,,,,,,,,,,,l,1,"[""0.145"",""0.095"",""0.652"",""0.757""]","[1,0,1,1]",0,24,24,24,1,1,1,,,1,FALSE,2.6086,,,,,,,,,,,,,,,,,,,,,,,,,,,,,,
,614c5568b8da906b118c158e,001,2022-04-29_03h06.38.828,classification_task,2021.2.3,Win32,20.02242512,614c5568b8da906b118c158e,626b377229c10585ec392f8a,626b39031ce2c60a76cb44b6,,,,,,,,,,,,,,,,,,,,,,,a,1,"[""0.179"",""0.461"",""0.918"",""0.967""]","[1,0,1,1]",0,25,25,25,1,0,1,,,1,FALSE,1.1404,,,,,,,,,,,,,,,,,,,,,,,,,,,,,,
,614c5568b8da906b118c158e,001,2022-04-29_03h06.38.828,classification_task,2021.2.3,Win32,20.02242512,614c5568b8da906b118c158e,626b377229c10585ec392f8a,626b39031ce2c60a76cb44b6,,,,,,,,,,,,,,,,,,,,,,,l,1,"[""0.602"",""0.220"",""0.565"",""0.696""]","[0,1,1,1]",0,26,26,26,1,1,0,,,1,FALSE,1.8725,,,,,,,,,,,,,,,,,,,,,,,,,,,,,,
,614c5568b8da906b118c158e,001,2022-04-29_03h06.38.828,classification_task,2021.2.3,Win32,20.02242512,614c5568b8da906b118c158e,626b377229c10585ec392f8a,626b39031ce2c60a76cb44b6,,,,,,,,,,,,,,,,,,,,,,,a,1,"[""0.279"",""0.441"",""0.799"",""0.877""]","[1,0,1,1]",0,27,27,27,1,0,0,,,1,FALSE,1.1606,,,,,,,,,,,,,,,,,,,,,,,,,,,,,,
,614c5568b8da906b118c158e,001,2022-04-29_03h06.38.828,classification_task,2021.2.3,Win32,20.02242512,614c5568b8da906b118c158e,626b377229c10585ec392f8a,626b39031ce2c60a76cb44b6,,,,,,,,,,,,,,,,,,,,,,,l,1,"[""0.451"",""0.347"",""0.652"",""0.757""]","[0,1,1,1]",0,28,28,28,1,1,1,,,1,FALSE,1.464,,,,,,,,,,,,,,,,,,,,,,,,,,,,,,
,614c5568b8da906b118c158e,001,2022-04-29_03h06.38.828,classification_task,2021.2.3,Win32,20.02242512,614c5568b8da906b118c158e,626b377229c10585ec392f8a,626b39031ce2c60a76cb44b6,,,,,,,,,,,,,,,,,,,,,,,a,0,"[""0.060"",""0.461"",""0.565"",""0.696""]","[1,0,1,1]",0,29,29,29,1,1,0,,,1,FALSE,1.8867,,,,,,,,,,,,,,,,,,,,,,,,,,,,,,
,614c5568b8da906b118c158e,001,2022-04-29_03h06.38.828,classification_task,2021.2.3,Win32,20.02242512,614c5568b8da906b118c158e,626b377229c10585ec392f8a,626b39031ce2c60a76cb44b6,,,,,,,,,,,,,,,,,,,,,,,a,1,"[""0.279"",""0.397"",""0.461"",""0.877""]","[1,1,0,1]",0,30,30,30,1,0,0,,,1,FALSE,1.8402,,,,,,,,,,,,,,,,,,,,,,,,,,,,,,
,614c5568b8da906b118c158e,001,2022-04-29_03h06.38.828,classification_task,2021.2.3,Win32,20.02242512,614c5568b8da906b118c158e,626b377229c10585ec392f8a,626b39031ce2c60a76cb44b6,,,,,,,,,,,,,,,,,,,,,,,l,0,"[""0.437"",""0.522"",""0.918"",""0.967""]","[0,1,1,1]",0,31,31,31,1,0,1,,,1,FALSE,1.1209,,,,,,,,,,,,,,,,,,,,,,,,,,,,,,
,614c5568b8da906b118c158e,001,2022-04-29_03h06.38.828,classification_task,2021.2.3,Win32,20.02242512,614c5568b8da906b118c158e,626b377229c10585ec392f8a,626b39031ce2c60a76cb44b6,,,,,,,,,,,,,,,,,,,,,,,l,1,"[""0.145"",""0.347"",""0.453"",""0.757""]","[1,1,0,1]",0,32,32,32,1,1,1,,,1,FALSE,3.7575,,,,,,,,,,,,,,,,,,,,,,,,,,,,,,
,614c5568b8da906b118c158e,001,2022-04-29_03h06.38.828,classification_task,2021.2.3,Win32,20.02242512,614c5568b8da906b118c158e,626b377229c10585ec392f8a,626b39031ce2c60a76cb44b6,,,,,,,,,,,,,,,,,,,,,,,a,1,"[""0.279"",""0.438"",""0.799"",""0.877""]","[1,0,1,1]",0,33,33,33,1,0,0,,,1,FALSE,1.5108,,,,,,,,,,,,,,,,,,,,,,,,,,,,,,
,614c5568b8da906b118c158e,001,2022-04-29_03h06.38.828,classification_task,2021.2.3,Win32,20.02242512,614c5568b8da906b118c158e,626b377229c10585ec392f8a,626b39031ce2c60a76cb44b6,,,,,,,,,,,,,,,,,,,,,,,l,1,"[""0.145"",""0.437"",""0.652"",""0.757""]","[1,0,1,1]",0,34,34,34,1,1,1,,,1,FALSE,2.5609,,,,,,,,,,,,,,,,,,,,,,,,,,,,,,
,614c5568b8da906b118c158e,001,2022-04-29_03h06.38.828,classification_task,2021.2.3,Win32,20.02242512,614c5568b8da906b118c158e,626b377229c10585ec392f8a,626b39031ce2c60a76cb44b6,,,,,,,,,,,,,,,,,,,,,,,a,1,"[""0.179"",""0.522"",""0.918"",""0.602""]","[1,1,1,0]",0,35,35,35,1,0,1,,,1,FALSE,1.526,,,,,,,,,,,,,,,,,,,,,,,,,,,,,,
,614c5568b8da906b118c158e,001,2022-04-29_03h06.38.828,classification_task,2021.2.3,Win32,20.02242512,614c5568b8da906b118c158e,626b377229c10585ec392f8a,626b39031ce2c60a76cb44b6,,,,,,,,,,,,,,,,,,,,,,,a,1,"[""0.279"",""0.397"",""0.606"",""0.877""]","[1,1,0,1]",0,36,36,36,1,0,0,,,1,FALSE,1.5002,,,,,,,,,,,,,,,,,,,,,,,,,,,,,,
,614c5568b8da906b118c158e,001,2022-04-29_03h06.38.828,classification_task,2021.2.3,Win32,20.02242512,614c5568b8da906b118c158e,626b377229c10585ec392f8a,626b39031ce2c60a76cb44b6,,,,,,,,,,,,,,,,,,,,,,,l,1,"[""0.603"",""0.347"",""0.652"",""0.757""]","[0,1,1,1]",0,37,37,37,1,1,1,,,1,FALSE,1.8303,,,,,,,,,,,,,,,,,,,,,,,,,,,,,,
,614c5568b8da906b118c158e,001,2022-04-29_03h06.38.828,classification_task,2021.2.3,Win32,20.02242512,614c5568b8da906b118c158e,626b377229c10585ec392f8a,626b39031ce2c60a76cb44b6,,,,,,,,,,,,,,,,,,,,,,,l,1,"[""0.145"",""0.347"",""0.652"",""0.437""]","[1,1,1,0]",0,38,38,38,1,1,1,,,1,FALSE,2.3158,,,,,,,,,,,,,,,,,,,,,,,,,,,,,,
,614c5568b8da906b118c158e,001,2022-04-29_03h06.38.828,classification_task,2021.2.3,Win32,20.02242512,614c5568b8da906b118c158e,626b377229c10585ec392f8a,626b39031ce2c60a76cb44b6,,,,,,,,,,,,,,,,,,,,,,,l,1,"[""0.060"",""0.220"",""0.461"",""0.696""]","[1,1,0,1]",0,39,39,39,1,1,0,,,1,FALSE,1.2791,,,,,,,,,,,,,,,,,,,,,,,,,,,,,,
,614c5568b8da906b118c158e,001,2022-04-29_03h06.38.828,classification_task,2021.2.3,Win32,20.02242512,614c5568b8da906b118c158e,626b377229c10585ec392f8a,626b39031ce2c60a76cb44b6,,,,,,,,,,,,,,,,,,,,,,,a,1,"[""0.602"",""0.397"",""0.799"",""0.877""]","[0,1,1,1]",0,40,40,40,1,0,0,,,1,FALSE,1.2317,,,,,,,,,,,,,,,,,,,,,,,,,,,,,,
,614c5568b8da906b118c158e,001,2022-04-29_03h06.38.828,classification_task,2021.2.3,Win32,20.02242512,614c5568b8da906b118c158e,626b377229c10585ec392f8a,626b39031ce2c60a76cb44b6,,,,,,,,,,,,,,,,,,,,,,,a,1,"[""0.179"",""0.453"",""0.918"",""0.967""]","[1,0,1,1]",0,41,41,41,1,0,1,,,1,FALSE,1.5521,,,,,,,,,,,,,,,,,,,,,,,,,,,,,,
,614c5568b8da906b118c158e,001,2022-04-29_03h06.38.828,classification_task,2021.2.3,Win32,20.02242512,614c5568b8da906b118c158e,626b377229c10585ec392f8a,626b39031ce2c60a76cb44b6,,,,,,,,,,,,,,,,,,,,,,,a,0,"[""0.060"",""0.437"",""0.565"",""0.696""]","[1,0,1,1]",0,42,42,42,1,1,0,,,1,FALSE,1.4504,,,,,,,,,,,,,,,,,,,,,,,,,,,,,,
,614c5568b8da906b118c158e,001,2022-04-29_03h06.38.828,classification_task,2021.2.3,Win32,20.02242512,614c5568b8da906b118c158e,626b377229c10585ec392f8a,626b39031ce2c60a76cb44b6,,,,,,,,,,,,,,,,,,,,,,,a,1,"[""0.179"",""0.522"",""0.437"",""0.967""]","[1,1,0,1]",0,43,43,43,1,0,1,,,1,FALSE,1.8883,,,,,,,,,,,,,,,,,,,,,,,,,,,,,,
,614c5568b8da906b118c158e,001,2022-04-29_03h06.38.828,classification_task,2021.2.3,Win32,20.02242512,614c5568b8da906b118c158e,626b377229c10585ec392f8a,626b39031ce2c60a76cb44b6,,,,,,,,,,,,,,,,,,,,,,,a,1,"[""0.437"",""0.522"",""0.918"",""0.967""]","[0,1,1,1]",0,44,44,44,1,0,1,,,1,FALSE,1.4747,,,,,,,,,,,,,,,,,,,,,,,,,,,,,,
,614c5568b8da906b118c158e,001,2022-04-29_03h06.38.828,classification_task,2021.2.3,Win32,20.02242512,614c5568b8da906b118c158e,626b377229c10585ec392f8a,626b39031ce2c60a76cb44b6,,,,,,,,,,,,,,,,,,,,,,,a,0,"[""0.461"",""0.220"",""0.565"",""0.696""]","[0,1,1,1]",0,45,45,45,1,1,0,,,1,FALSE,1.888,,,,,,,,,,,,,,,,,,,,,,,,,,,,,,
,614c5568b8da906b118c158e,001,2022-04-29_03h06.38.828,classification_task,2021.2.3,Win32,20.02242512,614c5568b8da906b118c158e,626b377229c10585ec392f8a,626b39031ce2c60a76cb44b6,,,,,,,,,,,,,,,,,,,,,,,l,0,"[""0.279"",""0.397"",""0.799"",""0.451""]","[1,1,1,0]",0,46,46,46,1,0,0,,,1,FALSE,3.3554,,,,,,,,,,,,,,,,,,,,,,,,,,,,,,
,614c5568b8da906b118c158e,001,2022-04-29_03h06.38.828,classification_task,2021.2.3,Win32,20.02242512,614c5568b8da906b118c158e,626b377229c10585ec392f8a,626b39031ce2c60a76cb44b6,,,,,,,,,,,,,,,,,,,,,,,a,0,"[""0.060"",""0.220"",""0.565"",""0.461""]","[1,1,1,0]",0,47,47,47,1,1,0,,,1,FALSE,1.9003,,,,,,,,,,,,,,,,,,,,,,,,,,,,,,
,614c5568b8da906b118c158e,001,2022-04-29_03h06.38.828,classification_task,2021.2.3,Win32,20.02242512,614c5568b8da906b118c158e,626b377229c10585ec392f8a,626b39031ce2c60a76cb44b6,,,,,,,,,,,,,,,,,,,,,,,a,1,"[""0.179"",""0.522"",""0.437"",""0.967""]","[1,1,0,1]",0,48,48,48,1,0,1,,,1,FALSE,1.1293,,,,,,,,,,,,,,,,,,,,,,,,,,,,,,
,614c5568b8da906b118c158e,001,2022-04-29_03h06.38.828,classification_task,2021.2.3,Win32,20.02242512,614c5568b8da906b118c158e,626b377229c10585ec392f8a,626b39031ce2c60a76cb44b6,,,,,,,,,,,,,,,,,,,,,,,l,1,"[""0.453"",""0.347"",""0.652"",""0.757""]","[0,1,1,1]",0,49,49,49,1,1,1,,,1,FALSE,1.9138,,,,,,,,,,,,,,,,,,,,,,,,,,,,,,
,614c5568b8da906b118c158e,001,2022-04-29_03h06.38.828,classification_task,2021.2.3,Win32,20.02242512,614c5568b8da906b118c158e,626b377229c10585ec392f8a,626b39031ce2c60a76cb44b6,,,,,,,,,,,,,,,,,,,,,,,l,1,"[""0.441"",""0.220"",""0.565"",""0.696""]","[0,1,1,1]",0,50,50,50,1,1,0,,,1,FALSE,1.878,,,,,,,,,,,,,,,,,,,,,,,,,,,,,,
,614c5568b8da906b118c158e,001,2022-04-29_03h06.38.828,classification_task,2021.2.3,Win32,20.02242512,614c5568b8da906b118c158e,626b377229c10585ec392f8a,626b39031ce2c60a76cb44b6,,,,,,,,,,,,,,,,,,,,,,,a,1,"[""0.476"",""0.397"",""0.799"",""0.877""]","[0,1,1,1]",0,51,51,51,1,0,0,,,1,FALSE,1.1287,,,,,,,,,,,,,,,,,,,,,,,,,,,,,,
,614c5568b8da906b118c158e,001,2022-04-29_03h06.38.828,classification_task,2021.2.3,Win32,20.02242512,614c5568b8da906b118c158e,626b377229c10585ec392f8a,626b39031ce2c60a76cb44b6,,,,,,,,,,,,,,,,,,,,,,,a,1,"[""0.279"",""0.461"",""0.799"",""0.877""]","[1,0,1,1]",0,52,52,52,1,0,0,,,1,FALSE,1.5295,,,,,,,,,,,,,,,,,,,,,,,,,,,,,,
,614c5568b8da906b118c158e,001,2022-04-29_03h06.38.828,classification_task,2021.2.3,Win32,20.02242512,614c5568b8da906b118c158e,626b377229c10585ec392f8a,626b39031ce2c60a76cb44b6,,,,,,,,,,,,,,,,,,,,,,,a,1,"[""0.279"",""0.397"",""0.437"",""0.877""]","[1,1,0,1]",0,53,53,53,1,0,0,,,1,FALSE,1.1403,,,,,,,,,,,,,,,,,,,,,,,,,,,,,,
,614c5568b8da906b118c158e,001,2022-04-29_03h06.38.828,classification_task,2021.2.3,Win32,20.02242512,614c5568b8da906b118c158e,626b377229c10585ec392f8a,626b39031ce2c60a76cb44b6,,,,,,,,,,,,,,,,,,,,,,,a,1,"[""0.179"",""0.606"",""0.918"",""0.967""]","[1,0,1,1]",0,54,54,54,1,0,1,,,1,FALSE,1.9184,,,,,,,,,,,,,,,,,,,,,,,,,,,,,,
,614c5568b8da906b118c158e,001,2022-04-29_03h06.38.828,classification_task,2021.2.3,Win32,20.02242512,614c5568b8da906b118c158e,626b377229c10585ec392f8a,626b39031ce2c60a76cb44b6,,,,,,,,,,,,,,,,,,,,,,,a,1,"[""0.179"",""0.522"",""0.918"",""0.095""]","[1,1,1,0]",0,55,55,55,1,0,1,,,1,FALSE,1.5226,,,,,,,,,,,,,,,,,,,,,,,,,,,,,,
,614c5568b8da906b118c158e,001,2022-04-29_03h06.38.828,classification_task,2021.2.3,Win32,20.02242512,614c5568b8da906b118c158e,626b377229c10585ec392f8a,626b39031ce2c60a76cb44b6,,,,,,,,,,,,,,,,,,,,,,,l,0,"[""0.279"",""0.397"",""0.799"",""0.603""]","[1,1,1,0]",0,56,56,56,1,0,0,,,1,FALSE,1.4979,,,,,,,,,,,,,,,,,,,,,,,,,,,,,,
,614c5568b8da906b118c158e,001,2022-04-29_03h06.38.828,classification_task,2021.2.3,Win32,20.02242512,614c5568b8da906b118c158e,626b377229c10585ec392f8a,626b39031ce2c60a76cb44b6,,,,,,,,,,,,,,,,,,,,,,,l,1,"[""0.060"",""0.437"",""0.565"",""0.696""]","[1,0,1,1]",0,57,57,57,1,1,0,,,1,FALSE,2.226,,,,,,,,,,,,,,,,,,,,,,,,,,,,,,
,614c5568b8da906b118c158e,001,2022-04-29_03h06.38.828,classification_task,2021.2.3,Win32,20.02242512,614c5568b8da906b118c158e,626b377229c10585ec392f8a,626b39031ce2c60a76cb44b6,,,,,,,,,,,,,,,,,,,,,,,a,1,"[""0.453"",""0.522"",""0.918"",""0.967""]","[0,1,1,1]",0,58,58,58,1,0,1,,,1,FALSE,1.5104,,,,,,,,,,,,,,,,,,,,,,,,,,,,,,
,614c5568b8da906b118c158e,001,2022-04-29_03h06.38.828,classification_task,2021.2.3,Win32,20.02242512,614c5568b8da906b118c158e,626b377229c10585ec392f8a,626b39031ce2c60a76cb44b6,,,,,,,,,,,,,,,,,,,,,,,l,1,"[""0.060"",""0.220"",""0.438"",""0.696""]","[1,1,0,1]",0,59,59,59,1,1,0,,,1,FALSE,1.5736,,,,,,,,,,,,,,,,,,,,,,,,,,,,,,
,614c5568b8da906b118c158e,001,2022-04-29_03h06.38.828,classification_task,2021.2.3,Win32,20.02242512,614c5568b8da906b118c158e,626b377229c10585ec392f8a,626b39031ce2c60a76cb44b6,,,,,,,,,,,,,,,,,,,,,,,l,1,"[""0.145"",""0.441"",""0.652"",""0.757""]","[1,0,1,1]",0,60,60,60,1,1,1,,,1,FALSE,1.5028,,,,,,,,,,,,,,,,,,,,,,,,,,,,,,
,614c5568b8da906b118c158e,001,2022-04-29_03h06.38.828,classification_task,2021.2.3,Win32,20.02242512,614c5568b8da906b118c158e,626b377229c10585ec392f8a,626b39031ce2c60a76cb44b6,,,,,,,,,,,,,,,,,,,,,,,l,1,"[""0.145"",""0.347"",""0.652"",""0.095""]","[1,1,1,0]",0,61,61,61,1,1,1,,,1,FALSE,1.112,,,,,,,,,,,,,,,,,,,,,,,,,,,,,,
,614c5568b8da906b118c158e,001,2022-04-29_03h06.38.828,classification_task,2021.2.3,Win32,20.02242512,614c5568b8da906b118c158e,626b377229c10585ec392f8a,626b39031ce2c60a76cb44b6,,,,,,,,,,,,,,,,,,,,,,,l,1,"[""0.145"",""0.347"",""0.441"",""0.757""]","[1,1,0,1]",0,62,62,62,1,1,1,,,1,FALSE,1.9531,,,,,,,,,,,,,,,,,,,,,,,,,,,,,,
,614c5568b8da906b118c158e,001,2022-04-29_03h06.38.828,classification_task,2021.2.3,Win32,20.02242512,614c5568b8da906b118c158e,626b377229c10585ec392f8a,626b39031ce2c60a76cb44b6,,,,,,,,,,,,,,,,,,,,,,,l,1,"[""0.060"",""0.220"",""0.565"",""0.438""]","[1,1,1,0]",0,63,63,63,1,1,0,,,1,FALSE,1.8506,,,,,,,,,,,,,,,,,,,,,,,,,,,,,,
,614c5568b8da906b118c158e,001,2022-04-29_03h06.38.828,classification_task,2021.2.3,Win32,20.02242512,614c5568b8da906b118c158e,626b377229c10585ec392f8a,626b39031ce2c60a76cb44b6,,,,,,,,,,,,,,,,,,,,,,,,,,,,,,,,,,,,,,,0, ,,0,4.669666657,255.5055,0,1,1,1,1,2,2,,,,,,,,,,,,,,,,,
,614c5568b8da906b118c158e,001,2022-04-29_03h06.38.828,classification_task,2021.2.3,Win32,20.02242512,614c5568b8da906b118c158e,626b377229c10585ec392f8a,626b39031ce2c60a76cb44b6,,,,,,,,,,,,,,,,,,,,,,,,,,,,,,,,,,,,,,,1,  ,,0,10,260.6816,0,1,1,1,1,2,2,,,,,,,,,,,,,,,,,
,614c5568b8da906b118c158e,001,2022-04-29_03h06.38.828,classification_task,2021.2.3,Win32,20.02242512,614c5568b8da906b118c158e,626b377229c10585ec392f8a,626b39031ce2c60a76cb44b6,,,,,,,,,,,,,,,,,,,,,,,,,,,,,,,,,,,,,,,2,  ,,0,6.924095106,275.8193,0,1,1,1,1,2,2,,,,,,,,,,,,,,,,,
,614c5568b8da906b118c158e,001,2022-04-29_03h06.38.828,classification_task,2021.2.3,Win32,20.02242512,614c5568b8da906b118c158e,626b377229c10585ec392f8a,626b39031ce2c60a76cb44b6,,,,,,,,,,,,,,,,,,,,,,,,,,,,,,,,,,,,,,,,,,,,,0,1,1,1,1,,2,,,,,,,,,,,,,,,,,
,614c5568b8da906b118c158e,001,2022-04-29_03h06.38.828,classification_task,2021.2.3,Win32,20.02242512,614c5568b8da906b118c158e,626b377229c10585ec392f8a,626b39031ce2c60a76cb44b6,,,,,,,,,,,,,,,,,,,,,space,18.6312,a,0,"[""0.145"",""0.603"",""0.652"",""0.757""]","[1,0,1,1]",0,0,0,0,1,1,1,,,1,FALSE,3.6798,,,,,,,,,,,,,,,,,,,,,,,,,,,,,,
,614c5568b8da906b118c158e,001,2022-04-29_03h06.38.828,classification_task,2021.2.3,Win32,20.02242512,614c5568b8da906b118c158e,626b377229c10585ec392f8a,626b39031ce2c60a76cb44b6,,,,,,,,,,,,,,,,,,,,,,,l,1,"[""0.060"",""0.438"",""0.565"",""0.696""]","[1,0,1,1]",0,1,1,1,1,1,0,,,1,FALSE,3.1603,,,,,,,,,,,,,,,,,,,,,,,,,,,,,,
,614c5568b8da906b118c158e,001,2022-04-29_03h06.38.828,classification_task,2021.2.3,Win32,20.02242512,614c5568b8da906b118c158e,626b377229c10585ec392f8a,626b39031ce2c60a76cb44b6,,,,,,,,,,,,,,,,,,,,,,,a,1,"[""0.279"",""0.397"",""0.095"",""0.877""]","[1,1,0,1]",0,2,2,2,1,0,0,,,1,FALSE,1.562,,,,,,,,,,,,,,,,,,,,,,,,,,,,,,
,614c5568b8da906b118c158e,001,2022-04-29_03h06.38.828,classification_task,2021.2.3,Win32,20.02242512,614c5568b8da906b118c158e,626b377229c10585ec392f8a,626b39031ce2c60a76cb44b6,,,,,,,,,,,,,,,,,,,,,,,l,1,"[""0.145"",""0.347"",""0.476"",""0.757""]","[1,1,0,1]",0,3,3,3,1,1,1,,,1,FALSE,6.351,,,,,,,,,,,,,,,,,,,,,,,,,,,,,,
,614c5568b8da906b118c158e,001,2022-04-29_03h06.38.828,classification_task,2021.2.3,Win32,20.02242512,614c5568b8da906b118c158e,626b377229c10585ec392f8a,626b39031ce2c60a76cb44b6,,,,,,,,,,,,,,,,,,,,,,,l,1,"[""0.060"",""0.220"",""0.603"",""0.696""]","[1,1,0,1]",0,4,4,4,1,1,0,,,1,FALSE,1.2178,,,,,,,,,,,,,,,,,,,,,,,,,,,,,,
,614c5568b8da906b118c158e,001,2022-04-29_03h06.38.828,classification_task,2021.2.3,Win32,20.02242512,614c5568b8da906b118c158e,626b377229c10585ec392f8a,626b39031ce2c60a76cb44b6,,,,,,,,,,,,,,,,,,,,,,,a,1,"[""0.279"",""0.602"",""0.799"",""0.877""]","[1,0,1,1]",0,5,5,5,1,0,0,,,1,FALSE,1.2265,,,,,,,,,,,,,,,,,,,,,,,,,,,,,,
,614c5568b8da906b118c158e,001,2022-04-29_03h06.38.828,classification_task,2021.2.3,Win32,20.02242512,614c5568b8da906b118c158e,626b377229c10585ec392f8a,626b39031ce2c60a76cb44b6,,,,,,,,,,,,,,,,,,,,,,,l,1,"[""0.060"",""0.220"",""0.565"",""0.453""]","[1,1,1,0]",0,6,6,6,1,1,0,,,1,FALSE,1.2344,,,,,,,,,,,,,,,,,,,,,,,,,,,,,,
,614c5568b8da906b118c158e,001,2022-04-29_03h06.38.828,classification_task,2021.2.3,Win32,20.02242512,614c5568b8da906b118c158e,626b377229c10585ec392f8a,626b39031ce2c60a76cb44b6,,,,,,,,,,,,,,,,,,,,,,,a,1,"[""0.179"",""0.522"",""0.918"",""0.445""]","[1,1,1,0]",0,7,7,7,1,0,1,,,1,FALSE,2.6537,,,,,,,,,,,,,,,,,,,,,,,,,,,,,,
,614c5568b8da906b118c158e,001,2022-04-29_03h06.38.828,classification_task,2021.2.3,Win32,20.02242512,614c5568b8da906b118c158e,626b377229c10585ec392f8a,626b39031ce2c60a76cb44b6,,,,,,,,,,,,,,,,,,,,,,,a,1,"[""0.179"",""0.522"",""0.453"",""0.967""]","[1,1,0,1]",0,8,8,8,1,0,1,,,1,FALSE,1.6158,,,,,,,,,,,,,,,,,,,,,,,,,,,,,,
,614c5568b8da906b118c158e,001,2022-04-29_03h06.38.828,classification_task,2021.2.3,Win32,20.02242512,614c5568b8da906b118c158e,626b377229c10585ec392f8a,626b39031ce2c60a76cb44b6,,,,,,,,,,,,,,,,,,,,,,,a,1,"[""0.279"",""0.397"",""0.799"",""0.453""]","[1,1,1,0]",0,9,9,9,1,0,0,,,1,FALSE,3.0688,,,,,,,,,,,,,,,,,,,,,,,,,,,,,,
,614c5568b8da906b118c158e,001,2022-04-29_03h06.38.828,classification_task,2021.2.3,Win32,20.02242512,614c5568b8da906b118c158e,626b377229c10585ec392f8a,626b39031ce2c60a76cb44b6,,,,,,,,,,,,,,,,,,,,,,,l,1,"[""0.145"",""0.347"",""0.652"",""0.437""]","[1,1,1,0]",0,10,10,10,1,1,1,,,1,FALSE,1.5489,,,,,,,,,,,,,,,,,,,,,,,,,,,,,,
,614c5568b8da906b118c158e,001,2022-04-29_03h06.38.828,classification_task,2021.2.3,Win32,20.02242512,614c5568b8da906b118c158e,626b377229c10585ec392f8a,626b39031ce2c60a76cb44b6,,,,,,,,,,,,,,,,,,,,,,,l,1,"[""0.437"",""0.347"",""0.652"",""0.757""]","[0,1,1,1]",0,11,11,11,1,1,1,,,1,FALSE,1.6007,,,,,,,,,,,,,,,,,,,,,,,,,,,,,,
,614c5568b8da906b118c158e,001,2022-04-29_03h06.38.828,classification_task,2021.2.3,Win32,20.02242512,614c5568b8da906b118c158e,626b377229c10585ec392f8a,626b39031ce2c60a76cb44b6,,,,,,,,,,,,,,,,,,,,,,,l,1,"[""0.476"",""0.220"",""0.565"",""0.696""]","[0,1,1,1]",0,12,12,12,1,1,0,,,1,FALSE,3.4181,,,,,,,,,,,,,,,,,,,,,,,,,,,,,,
,614c5568b8da906b118c158e,001,2022-04-29_03h06.38.828,classification_task,2021.2.3,Win32,20.02242512,614c5568b8da906b118c158e,626b377229c10585ec392f8a,626b39031ce2c60a76cb44b6,,,,,,,,,,,,,,,,,,,,,,,a,1,"[""0.437"",""0.397"",""0.799"",""0.877""]","[0,1,1,1]",0,13,13,13,1,0,0,,,1,FALSE,1.1974,,,,,,,,,,,,,,,,,,,,,,,,,,,,,,
,614c5568b8da906b118c158e,001,2022-04-29_03h06.38.828,classification_task,2021.2.3,Win32,20.02242512,614c5568b8da906b118c158e,626b377229c10585ec392f8a,626b39031ce2c60a76cb44b6,,,,,,,,,,,,,,,,,,,,,,,a,1,"[""0.602"",""0.522"",""0.918"",""0.967""]","[0,1,1,1]",0,14,14,14,1,0,1,,,1,FALSE,2.6001,,,,,,,,,,,,,,,,,,,,,,,,,,,,,,
,614c5568b8da906b118c158e,001,2022-04-29_03h06.38.828,classification_task,2021.2.3,Win32,20.02242512,614c5568b8da906b118c158e,626b377229c10585ec392f8a,626b39031ce2c60a76cb44b6,,,,,,,,,,,,,,,,,,,,,,,a,1,"[""0.179"",""0.437"",""0.918"",""0.967""]","[1,0,1,1]",0,15,15,15,1,0,1,,,1,FALSE,1.5733,,,,,,,,,,,,,,,,,,,,,,,,,,,,,,
,614c5568b8da906b118c158e,001,2022-04-29_03h06.38.828,classification_task,2021.2.3,Win32,20.02242512,614c5568b8da906b118c158e,626b377229c10585ec392f8a,626b39031ce2c60a76cb44b6,,,,,,,,,,,,,,,,,,,,,,,l,1,"[""0.145"",""0.095"",""0.652"",""0.757""]","[1,0,1,1]",0,16,16,16,1,1,1,,,1,FALSE,1.5112,,,,,,,,,,,,,,,,,,,,,,,,,,,,,,
,614c5568b8da906b118c158e,001,2022-04-29_03h06.38.828,classification_task,2021.2.3,Win32,20.02242512,614c5568b8da906b118c158e,626b377229c10585ec392f8a,626b39031ce2c60a76cb44b6,,,,,,,,,,,,,,,,,,,,,,,l,1,"[""0.145"",""0.347"",""0.652"",""0.451""]","[1,1,1,0]",0,17,17,17,1,1,1,,,1,FALSE,2.3177,,,,,,,,,,,,,,,,,,,,,,,,,,,,,,
,614c5568b8da906b118c158e,001,2022-04-29_03h06.38.828,classification_task,2021.2.3,Win32,20.02242512,614c5568b8da906b118c158e,626b377229c10585ec392f8a,626b39031ce2c60a76cb44b6,,,,,,,,,,,,,,,,,,,,,,,l,1,"[""0.060"",""0.220"",""0.603"",""0.696""]","[1,1,0,1]",0,18,18,18,1,1,0,,,1,FALSE,2.7082,,,,,,,,,,,,,,,,,,,,,,,,,,,,,,
,614c5568b8da906b118c158e,001,2022-04-29_03h06.38.828,classification_task,2021.2.3,Win32,20.02242512,614c5568b8da906b118c158e,626b377229c10585ec392f8a,626b39031ce2c60a76cb44b6,,,,,,,,,,,,,,,,,,,,,,,a,1,"[""0.279"",""0.397"",""0.437"",""0.877""]","[1,1,0,1]",0,19,19,19,1,0,0,,,1,FALSE,1.1374,,,,,,,,,,,,,,,,,,,,,,,,,,,,,,
,614c5568b8da906b118c158e,001,2022-04-29_03h06.38.828,classification_task,2021.2.3,Win32,20.02242512,614c5568b8da906b118c158e,626b377229c10585ec392f8a,626b39031ce2c60a76cb44b6,,,,,,,,,,,,,,,,,,,,,,,l,1,"[""0.060"",""0.220"",""0.565"",""0.476""]","[1,1,1,0]",0,20,20,20,1,1,0,,,1,FALSE,1.1513,,,,,,,,,,,,,,,,,,,,,,,,,,,,,,
,614c5568b8da906b118c158e,001,2022-04-29_03h06.38.828,classification_task,2021.2.3,Win32,20.02242512,614c5568b8da906b118c158e,626b377229c10585ec392f8a,626b39031ce2c60a76cb44b6,,,,,,,,,,,,,,,,,,,,,,,a,1,"[""0.437"",""0.522"",""0.918"",""0.967""]","[0,1,1,1]",0,21,21,21,1,0,1,,,1,FALSE,1.3147,,,,,,,,,,,,,,,,,,,,,,,,,,,,,,
,614c5568b8da906b118c158e,001,2022-04-29_03h06.38.828,classification_task,2021.2.3,Win32,20.02242512,614c5568b8da906b118c158e,626b377229c10585ec392f8a,626b39031ce2c60a76cb44b6,,,,,,,,,,,,,,,,,,,,,,,a,1,"[""0.279"",""0.461"",""0.799"",""0.877""]","[1,0,1,1]",0,22,22,22,1,0,0,,,1,FALSE,1.2326,,,,,,,,,,,,,,,,,,,,,,,,,,,,,,
,614c5568b8da906b118c158e,001,2022-04-29_03h06.38.828,classification_task,2021.2.3,Win32,20.02242512,614c5568b8da906b118c158e,626b377229c10585ec392f8a,626b39031ce2c60a76cb44b6,,,,,,,,,,,,,,,,,,,,,,,l,1,"[""0.441"",""0.220"",""0.565"",""0.696""]","[0,1,1,1]",0,23,23,23,1,1,0,,,1,FALSE,1.9212,,,,,,,,,,,,,,,,,,,,,,,,,,,,,,
,614c5568b8da906b118c158e,001,2022-04-29_03h06.38.828,classification_task,2021.2.3,Win32,20.02242512,614c5568b8da906b118c158e,626b377229c10585ec392f8a,626b39031ce2c60a76cb44b6,,,,,,,,,,,,,,,,,,,,,,,l,1,"[""0.145"",""0.347"",""0.437"",""0.757""]","[1,1,0,1]",0,24,24,24,1,1,1,,,1,FALSE,4.1866,,,,,,,,,,,,,,,,,,,,,,,,,,,,,,
,614c5568b8da906b118c158e,001,2022-04-29_03h06.38.828,classification_task,2021.2.3,Win32,20.02242512,614c5568b8da906b118c158e,626b377229c10585ec392f8a,626b39031ce2c60a76cb44b6,,,,,,,,,,,,,,,,,,,,,,,l,1,"[""0.095"",""0.347"",""0.652"",""0.757""]","[0,1,1,1]",0,25,25,25,1,1,1,,,1,FALSE,1.9142,,,,,,,,,,,,,,,,,,,,,,,,,,,,,,
,614c5568b8da906b118c158e,001,2022-04-29_03h06.38.828,classification_task,2021.2.3,Win32,20.02242512,614c5568b8da906b118c158e,626b377229c10585ec392f8a,626b39031ce2c60a76cb44b6,,,,,,,,,,,,,,,,,,,,,,,a,1,"[""0.179"",""0.603"",""0.918"",""0.967""]","[1,0,1,1]",0,26,26,26,1,0,1,,,1,FALSE,1.0846,,,,,,,,,,,,,,,,,,,,,,,,,,,,,,
,614c5568b8da906b118c158e,001,2022-04-29_03h06.38.828,classification_task,2021.2.3,Win32,20.02242512,614c5568b8da906b118c158e,626b377229c10585ec392f8a,626b39031ce2c60a76cb44b6,,,,,,,,,,,,,,,,,,,,,,,a,1,"[""0.279"",""0.397"",""0.799"",""0.437""]","[1,1,1,0]",0,27,27,27,1,0,0,,,1,FALSE,2.9414,,,,,,,,,,,,,,,,,,,,,,,,,,,,,,
,614c5568b8da906b118c158e,001,2022-04-29_03h06.38.828,classification_task,2021.2.3,Win32,20.02242512,614c5568b8da906b118c158e,626b377229c10585ec392f8a,626b39031ce2c60a76cb44b6,,,,,,,,,,,,,,,,,,,,,,,l,1,"[""0.060"",""0.437"",""0.565"",""0.696""]","[1,0,1,1]",0,28,28,28,1,1,0,,,1,FALSE,1.8157,,,,,,,,,,,,,,,,,,,,,,,,,,,,,,
,614c5568b8da906b118c158e,001,2022-04-29_03h06.38.828,classification_task,2021.2.3,Win32,20.02242512,614c5568b8da906b118c158e,626b377229c10585ec392f8a,626b39031ce2c60a76cb44b6,,,,,,,,,,,,,,,,,,,,,,,a,1,"[""0.179"",""0.522"",""0.603"",""0.967""]","[1,1,0,1]",0,29,29,29,1,0,1,,,1,FALSE,1.1587,,,,,,,,,,,,,,,,,,,,,,,,,,,,,,
,614c5568b8da906b118c158e,001,2022-04-29_03h06.38.828,classification_task,2021.2.3,Win32,20.02242512,614c5568b8da906b118c158e,626b377229c10585ec392f8a,626b39031ce2c60a76cb44b6,,,,,,,,,,,,,,,,,,,,,,,a,1,"[""0.437"",""0.397"",""0.799"",""0.877""]","[0,1,1,1]",0,30,30,30,1,0,0,,,1,FALSE,1.4868,,,,,,,,,,,,,,,,,,,,,,,,,,,,,,
,614c5568b8da906b118c158e,001,2022-04-29_03h06.38.828,classification_task,2021.2.3,Win32,20.02242512,614c5568b8da906b118c158e,626b377229c10585ec392f8a,626b39031ce2c60a76cb44b6,,,,,,,,,,,,,,,,,,,,,,,a,1,"[""0.179"",""0.522"",""0.918"",""0.437""]","[1,1,1,0]",0,31,31,31,1,0,1,,,1,FALSE,1.8428,,,,,,,,,,,,,,,,,,,,,,,,,,,,,,
,614c5568b8da906b118c158e,001,2022-04-29_03h06.38.828,classification_task,2021.2.3,Win32,20.02242512,614c5568b8da906b118c158e,626b377229c10585ec392f8a,626b39031ce2c60a76cb44b6,,,,,,,,,,,,,,,,,,,,,,,l,1,"[""0.145"",""0.451"",""0.652"",""0.757""]","[1,0,1,1]",0,32,32,32,1,1,1,,,1,FALSE,1.5313,,,,,,,,,,,,,,,,,,,,,,,,,,,,,,
,614c5568b8da906b118c158e,001,2022-04-29_03h06.38.828,classification_task,2021.2.3,Win32,20.02242512,614c5568b8da906b118c158e,626b377229c10585ec392f8a,626b39031ce2c60a76cb44b6,,,,,,,,,,,,,,,,,,,,,,,a,1,"[""0.179"",""0.522"",""0.437"",""0.967""]","[1,1,0,1]",0,33,33,33,1,0,1,,,1,FALSE,1.1471,,,,,,,,,,,,,,,,,,,,,,,,,,,,,,
,614c5568b8da906b118c158e,001,2022-04-29_03h06.38.828,classification_task,2021.2.3,Win32,20.02242512,614c5568b8da906b118c158e,626b377229c10585ec392f8a,626b39031ce2c60a76cb44b6,,,,,,,,,,,,,,,,,,,,,,,l,1,"[""0.437"",""0.220"",""0.565"",""0.696""]","[0,1,1,1]",0,34,34,34,1,1,0,,,1,FALSE,1.5776,,,,,,,,,,,,,,,,,,,,,,,,,,,,,,
,614c5568b8da906b118c158e,001,2022-04-29_03h06.38.828,classification_task,2021.2.3,Win32,20.02242512,614c5568b8da906b118c158e,626b377229c10585ec392f8a,626b39031ce2c60a76cb44b6,,,,,,,,,,,,,,,,,,,,,,,l,1,"[""0.060"",""0.437"",""0.565"",""0.696""]","[1,0,1,1]",0,35,35,35,1,1,0,,,1,FALSE,1.2013,,,,,,,,,,,,,,,,,,,,,,,,,,,,,,
,614c5568b8da906b118c158e,001,2022-04-29_03h06.38.828,classification_task,2021.2.3,Win32,20.02242512,614c5568b8da906b118c158e,626b377229c10585ec392f8a,626b39031ce2c60a76cb44b6,,,,,,,,,,,,,,,,,,,,,,,l,1,"[""0.461"",""0.347"",""0.652"",""0.757""]","[0,1,1,1]",0,36,36,36,1,1,1,,,1,FALSE,1.5524,,,,,,,,,,,,,,,,,,,,,,,,,,,,,,
,614c5568b8da906b118c158e,001,2022-04-29_03h06.38.828,classification_task,2021.2.3,Win32,20.02242512,614c5568b8da906b118c158e,626b377229c10585ec392f8a,626b39031ce2c60a76cb44b6,,,,,,,,,,,,,,,,,,,,,,,a,1,"[""0.603"",""0.397"",""0.799"",""0.877""]","[0,1,1,1]",0,37,37,37,1,0,0,,,1,FALSE,1.5636,,,,,,,,,,,,,,,,,,,,,,,,,,,,,,
,614c5568b8da906b118c158e,001,2022-04-29_03h06.38.828,classification_task,2021.2.3,Win32,20.02242512,614c5568b8da906b118c158e,626b377229c10585ec392f8a,626b39031ce2c60a76cb44b6,,,,,,,,,,,,,,,,,,,,,,,a,1,"[""0.279"",""0.397"",""0.799"",""0.606""]","[1,1,1,0]",0,38,38,38,1,0,0,,,1,FALSE,3.912,,,,,,,,,,,,,,,,,,,,,,,,,,,,,,
,614c5568b8da906b118c158e,001,2022-04-29_03h06.38.828,classification_task,2021.2.3,Win32,20.02242512,614c5568b8da906b118c158e,626b377229c10585ec392f8a,626b39031ce2c60a76cb44b6,,,,,,,,,,,,,,,,,,,,,,,a,1,"[""0.603"",""0.522"",""0.918"",""0.967""]","[0,1,1,1]",0,39,39,39,1,0,1,,,1,FALSE,1.1158,,,,,,,,,,,,,,,,,,,,,,,,,,,,,,
,614c5568b8da906b118c158e,001,2022-04-29_03h06.38.828,classification_task,2021.2.3,Win32,20.02242512,614c5568b8da906b118c158e,626b377229c10585ec392f8a,626b39031ce2c60a76cb44b6,,,,,,,,,,,,,,,,,,,,,,,a,1,"[""0.179"",""0.602"",""0.918"",""0.967""]","[1,0,1,1]",0,40,40,40,1,0,1,,,1,FALSE,1.0916,,,,,,,,,,,,,,,,,,,,,,,,,,,,,,
,614c5568b8da906b118c158e,001,2022-04-29_03h06.38.828,classification_task,2021.2.3,Win32,20.02242512,614c5568b8da906b118c158e,626b377229c10585ec392f8a,626b39031ce2c60a76cb44b6,,,,,,,,,,,,,,,,,,,,,,,a,1,"[""0.279"",""0.461"",""0.799"",""0.877""]","[1,0,1,1]",0,41,41,41,1,0,0,,,1,FALSE,1.4508,,,,,,,,,,,,,,,,,,,,,,,,,,,,,,
,614c5568b8da906b118c158e,001,2022-04-29_03h06.38.828,classification_task,2021.2.3,Win32,20.02242512,614c5568b8da906b118c158e,626b377229c10585ec392f8a,626b39031ce2c60a76cb44b6,,,,,,,,,,,,,,,,,,,,,,,l,1,"[""0.145"",""0.347"",""0.652"",""0.451""]","[1,1,1,0]",0,42,42,42,1,1,1,,,1,FALSE,2.8634,,,,,,,,,,,,,,,,,,,,,,,,,,,,,,
,614c5568b8da906b118c158e,001,2022-04-29_03h06.38.828,classification_task,2021.2.3,Win32,20.02242512,614c5568b8da906b118c158e,626b377229c10585ec392f8a,626b39031ce2c60a76cb44b6,,,,,,,,,,,,,,,,,,,,,,,a,1,"[""0.279"",""0.397"",""0.476"",""0.877""]","[1,1,0,1]",0,43,43,43,1,0,0,,,1,FALSE,1.175,,,,,,,,,,,,,,,,,,,,,,,,,,,,,,
,614c5568b8da906b118c158e,001,2022-04-29_03h06.38.828,classification_task,2021.2.3,Win32,20.02242512,614c5568b8da906b118c158e,626b377229c10585ec392f8a,626b39031ce2c60a76cb44b6,,,,,,,,,,,,,,,,,,,,,,,l,1,"[""0.145"",""0.347"",""0.095"",""0.757""]","[1,1,0,1]",0,44,44,44,1,1,1,,,1,FALSE,1.5551,,,,,,,,,,,,,,,,,,,,,,,,,,,,,,
,614c5568b8da906b118c158e,001,2022-04-29_03h06.38.828,classification_task,2021.2.3,Win32,20.02242512,614c5568b8da906b118c158e,626b377229c10585ec392f8a,626b39031ce2c60a76cb44b6,,,,,,,,,,,,,,,,,,,,,,,l,1,"[""0.060"",""0.220"",""0.565"",""0.451""]","[1,1,1,0]",0,45,45,45,1,1,0,,,1,FALSE,1.6159,,,,,,,,,,,,,,,,,,,,,,,,,,,,,,
,614c5568b8da906b118c158e,001,2022-04-29_03h06.38.828,classification_task,2021.2.3,Win32,20.02242512,614c5568b8da906b118c158e,626b377229c10585ec392f8a,626b39031ce2c60a76cb44b6,,,,,,,,,,,,,,,,,,,,,,,a,1,"[""0.179"",""0.522"",""0.918"",""0.602""]","[1,1,1,0]",0,46,46,46,1,0,1,,,1,FALSE,1.164,,,,,,,,,,,,,,,,,,,,,,,,,,,,,,
,614c5568b8da906b118c158e,001,2022-04-29_03h06.38.828,classification_task,2021.2.3,Win32,20.02242512,614c5568b8da906b118c158e,626b377229c10585ec392f8a,626b39031ce2c60a76cb44b6,,,,,,,,,,,,,,,,,,,,,,,l,1,"[""0.060"",""0.220"",""0.461"",""0.696""]","[1,1,0,1]",0,47,47,47,1,1,0,,,1,FALSE,1.6222,,,,,,,,,,,,,,,,,,,,,,,,,,,,,,
,614c5568b8da906b118c158e,001,2022-04-29_03h06.38.828,classification_task,2021.2.3,Win32,20.02242512,614c5568b8da906b118c158e,626b377229c10585ec392f8a,626b39031ce2c60a76cb44b6,,,,,,,,,,,,,,,,,,,,,,,a,1,"[""0.279"",""0.397"",""0.799"",""0.438""]","[1,1,1,0]",0,48,48,48,1,0,0,,,1,FALSE,1.6267,,,,,,,,,,,,,,,,,,,,,,,,,,,,,,
,614c5568b8da906b118c158e,001,2022-04-29_03h06.38.828,classification_task,2021.2.3,Win32,20.02242512,614c5568b8da906b118c158e,626b377229c10585ec392f8a,626b39031ce2c60a76cb44b6,,,,,,,,,,,,,,,,,,,,,,,l,1,"[""0.060"",""0.437"",""0.565"",""0.696""]","[1,0,1,1]",0,49,49,49,1,1,0,,,1,FALSE,1.1582,,,,,,,,,,,,,,,,,,,,,,,,,,,,,,
,614c5568b8da906b118c158e,001,2022-04-29_03h06.38.828,classification_task,2021.2.3,Win32,20.02242512,614c5568b8da906b118c158e,626b377229c10585ec392f8a,626b39031ce2c60a76cb44b6,,,,,,,,,,,,,,,,,,,,,,,l,1,"[""0.461"",""0.220"",""0.565"",""0.696""]","[0,1,1,1]",0,50,50,50,1,1,0,,,1,FALSE,1.1293,,,,,,,,,,,,,,,,,,,,,,,,,,,,,,
,614c5568b8da906b118c158e,001,2022-04-29_03h06.38.828,classification_task,2021.2.3,Win32,20.02242512,614c5568b8da906b118c158e,626b377229c10585ec392f8a,626b39031ce2c60a76cb44b6,,,,,,,,,,,,,,,,,,,,,,,l,1,"[""0.145"",""0.347"",""0.476"",""0.757""]","[1,1,0,1]",0,51,51,51,1,1,1,,,1,FALSE,1.6866,,,,,,,,,,,,,,,,,,,,,,,,,,,,,,
,614c5568b8da906b118c158e,001,2022-04-29_03h06.38.828,classification_task,2021.2.3,Win32,20.02242512,614c5568b8da906b118c158e,626b377229c10585ec392f8a,626b39031ce2c60a76cb44b6,,,,,,,,,,,,,,,,,,,,,,,l,1,"[""0.445"",""0.347"",""0.652"",""0.757""]","[0,1,1,1]",0,52,52,52,1,1,1,,,1,FALSE,1.5244,,,,,,,,,,,,,,,,,,,,,,,,,,,,,,
,614c5568b8da906b118c158e,001,2022-04-29_03h06.38.828,classification_task,2021.2.3,Win32,20.02242512,614c5568b8da906b118c158e,626b377229c10585ec392f8a,626b39031ce2c60a76cb44b6,,,,,,,,,,,,,,,,,,,,,,,l,1,"[""0.060"",""0.220"",""0.565"",""0.441""]","[1,1,1,0]",0,53,53,53,1,1,0,,,1,FALSE,1.1944,,,,,,,,,,,,,,,,,,,,,,,,,,,,,,
,614c5568b8da906b118c158e,001,2022-04-29_03h06.38.828,classification_task,2021.2.3,Win32,20.02242512,614c5568b8da906b118c158e,626b377229c10585ec392f8a,626b39031ce2c60a76cb44b6,,,,,,,,,,,,,,,,,,,,,,,a,1,"[""0.279"",""0.602"",""0.799"",""0.877""]","[1,0,1,1]",0,54,54,54,1,0,0,,,1,FALSE,0.8395,,,,,,,,,,,,,,,,,,,,,,,,,,,,,,
,614c5568b8da906b118c158e,001,2022-04-29_03h06.38.828,classification_task,2021.2.3,Win32,20.02242512,614c5568b8da906b118c158e,626b377229c10585ec392f8a,626b39031ce2c60a76cb44b6,,,,,,,,,,,,,,,,,,,,,,,a,1,"[""0.179"",""0.522"",""0.453"",""0.967""]","[1,1,0,1]",0,55,55,55,1,0,1,,,1,FALSE,1.55,,,,,,,,,,,,,,,,,,,,,,,,,,,,,,
,614c5568b8da906b118c158e,001,2022-04-29_03h06.38.828,classification_task,2021.2.3,Win32,20.02242512,614c5568b8da906b118c158e,626b377229c10585ec392f8a,626b39031ce2c60a76cb44b6,,,,,,,,,,,,,,,,,,,,,,,a,1,"[""0.437"",""0.397"",""0.799"",""0.877""]","[0,1,1,1]",0,56,56,56,1,0,0,,,1,FALSE,1.5958,,,,,,,,,,,,,,,,,,,,,,,,,,,,,,
,614c5568b8da906b118c158e,001,2022-04-29_03h06.38.828,classification_task,2021.2.3,Win32,20.02242512,614c5568b8da906b118c158e,626b377229c10585ec392f8a,626b39031ce2c60a76cb44b6,,,,,,,,,,,,,,,,,,,,,,,l,1,"[""0.145"",""0.347"",""0.652"",""0.602""]","[1,1,1,0]",0,57,57,57,1,1,1,,,1,FALSE,1.4616,,,,,,,,,,,,,,,,,,,,,,,,,,,,,,
,614c5568b8da906b118c158e,001,2022-04-29_03h06.38.828,classification_task,2021.2.3,Win32,20.02242512,614c5568b8da906b118c158e,626b377229c10585ec392f8a,626b39031ce2c60a76cb44b6,,,,,,,,,,,,,,,,,,,,,,,a,1,"[""0.279"",""0.397"",""0.451"",""0.877""]","[1,1,0,1]",0,58,58,58,1,0,0,,,1,FALSE,1.4978,,,,,,,,,,,,,,,,,,,,,,,,,,,,,,
,614c5568b8da906b118c158e,001,2022-04-29_03h06.38.828,classification_task,2021.2.3,Win32,20.02242512,614c5568b8da906b118c158e,626b377229c10585ec392f8a,626b39031ce2c60a76cb44b6,,,,,,,,,,,,,,,,,,,,,,,l,1,"[""0.145"",""0.451"",""0.652"",""0.757""]","[1,0,1,1]",0,59,59,59,1,1,1,,,1,FALSE,2.3464,,,,,,,,,,,,,,,,,,,,,,,,,,,,,,
,614c5568b8da906b118c158e,001,2022-04-29_03h06.38.828,classification_task,2021.2.3,Win32,20.02242512,614c5568b8da906b118c158e,626b377229c10585ec392f8a,626b39031ce2c60a76cb44b6,,,,,,,,,,,,,,,,,,,,,,,a,1,"[""0.453"",""0.522"",""0.918"",""0.967""]","[0,1,1,1]",0,60,60,60,1,0,1,,,1,FALSE,1.1856,,,,,,,,,,,,,,,,,,,,,,,,,,,,,,
,614c5568b8da906b118c158e,001,2022-04-29_03h06.38.828,classification_task,2021.2.3,Win32,20.02242512,614c5568b8da906b118c158e,626b377229c10585ec392f8a,626b39031ce2c60a76cb44b6,,,,,,,,,,,,,,,,,,,,,,,a,1,"[""0.179"",""0.461"",""0.918"",""0.967""]","[1,0,1,1]",0,61,61,61,1,0,1,,,1,FALSE,1.1998,,,,,,,,,,,,,,,,,,,,,,,,,,,,,,
,614c5568b8da906b118c158e,001,2022-04-29_03h06.38.828,classification_task,2021.2.3,Win32,20.02242512,614c5568b8da906b118c158e,626b377229c10585ec392f8a,626b39031ce2c60a76cb44b6,,,,,,,,,,,,,,,,,,,,,,,l,1,"[""0.060"",""0.220"",""0.437"",""0.696""]","[1,1,0,1]",0,62,62,62,1,1,0,,,1,FALSE,1.9355,,,,,,,,,,,,,,,,,,,,,,,,,,,,,,
,614c5568b8da906b118c158e,001,2022-04-29_03h06.38.828,classification_task,2021.2.3,Win32,20.02242512,614c5568b8da906b118c158e,626b377229c10585ec392f8a,626b39031ce2c60a76cb44b6,,,,,,,,,,,,,,,,,,,,,,,a,1,"[""0.179"",""0.522"",""0.918"",""0.445""]","[1,1,1,0]",0,63,63,63,1,0,1,,,1,FALSE,2.3001,,,,,,,,,,,,,,,,,,,,,,,,,,,,,,
,614c5568b8da906b118c158e,001,2022-04-29_03h06.38.828,classification_task,2021.2.3,Win32,20.02242512,614c5568b8da906b118c158e,626b377229c10585ec392f8a,626b39031ce2c60a76cb44b6,,,,,,,,,,,,,,,,,,,,,,,,,,,,,,,,,,,,,,,0, ,,0,7.326670588,238.7387,0,2,2,2,1,2,3,,,,,,,,,,,,,,,,,
,614c5568b8da906b118c158e,001,2022-04-29_03h06.38.828,classification_task,2021.2.3,Win32,20.02242512,614c5568b8da906b118c158e,626b377229c10585ec392f8a,626b39031ce2c60a76cb44b6,,,,,,,,,,,,,,,,,,,,,,,,,,,,,,,,,,,,,,,1,  ,,0,10,243.9045,0,2,2,2,1,2,3,,,,,,,,,,,,,,,,,
,614c5568b8da906b118c158e,001,2022-04-29_03h06.38.828,classification_task,2021.2.3,Win32,20.02242512,614c5568b8da906b118c158e,626b377229c10585ec392f8a,626b39031ce2c60a76cb44b6,,,,,,,,,,,,,,,,,,,,,,,,,,,,,,,,,,,,,,,2,  ,,0,9.540842372,247.5561,0,2,2,2,1,2,3,,,,,,,,,,,,,,,,,
,614c5568b8da906b118c158e,001,2022-04-29_03h06.38.828,classification_task,2021.2.3,Win32,20.02242512,614c5568b8da906b118c158e,626b377229c10585ec392f8a,626b39031ce2c60a76cb44b6,,,,,,,,,,,,,,,,,,,,,,,,,,,,,,,,,,,,,,,,,,,,,0,2,2,2,1,,3,,,,,,,,,,,,,,,,,
,614c5568b8da906b118c158e,001,2022-04-29_03h06.38.828,classification_task,2021.2.3,Win32,20.02242512,614c5568b8da906b118c158e,626b377229c10585ec392f8a,626b39031ce2c60a76cb44b6,,,,,,,,,,,,,,,,,,,,,,,,,,,,,,,,,,,,,,,,,,,,,,,,,,,,,I believe the aid is a competent performer,,0.7,0,4,1346.8548,0,0,0,0,1,0,,,,
,614c5568b8da906b118c158e,001,2022-04-29_03h06.38.828,classification_task,2021.2.3,Win32,20.02242512,614c5568b8da906b118c158e,626b377229c10585ec392f8a,626b39031ce2c60a76cb44b6,,,,,,,,,,,,,,,,,,,,,,,,,,,,,,,,,,,,,,,,,,,,,,,,,,,,,I trust the aid,,0.7,0,5,1351.5187,0,0,0,0,1,0,,,,
,614c5568b8da906b118c158e,001,2022-04-29_03h06.38.828,classification_task,2021.2.3,Win32,20.02242512,614c5568b8da906b118c158e,626b377229c10585ec392f8a,626b39031ce2c60a76cb44b6,,,,,,,,,,,,,,,,,,,,,,,,,,,,,,,,,,,,,,,,,,,,,,,,,,,,,I have confidence in the advice given by the aid,,0.7,0,5,1357.4257,0,0,0,0,1,0,,,,
,614c5568b8da906b118c158e,001,2022-04-29_03h06.38.828,classification_task,2021.2.3,Win32,20.02242512,614c5568b8da906b118c158e,626b377229c10585ec392f8a,626b39031ce2c60a76cb44b6,,,,,,,,,,,,,,,,,,,,,,,,,,,,,,,,,,,,,,,,,,,,,,,,,,,,,I can depend on the aid,,0.7,0,5,1360.4131,0,0,0,0,1,0,,,,
,614c5568b8da906b118c158e,001,2022-04-29_03h06.38.828,classification_task,2021.2.3,Win32,20.02242512,614c5568b8da906b118c158e,626b377229c10585ec392f8a,626b39031ce2c60a76cb44b6,,,,,,,,,,,,,,,,,,,,,,,,,,,,,,,,,,,,,,,,,,,,,,,,,,,,,I can rely on the aid to behave in consistent ways,,0.7,0,4,1367.36,0,0,0,0,1,0,,,,
,614c5568b8da906b118c158e,001,2022-04-29_03h06.38.828,classification_task,2021.2.3,Win32,20.02242512,614c5568b8da906b118c158e,626b377229c10585ec392f8a,626b39031ce2c60a76cb44b6,,,,,,,,,,,,,,,,,,,,,,,,,,,,,,,,,,,,,,,,,,,,,,,,,,,,,I can rely on the aid to do its best every time I take its advice,,0.7,0,4,1384.228,0,0,0,0,1,0,,,,
,614c5568b8da906b118c158e,001,2022-04-29_03h06.38.828,classification_task,2021.2.3,Win32,20.02242512,614c5568b8da906b118c158e,626b377229c10585ec392f8a,626b39031ce2c60a76cb44b6,,,,,,,,,,,,,,,,,,,,,,,,,,,,,,,,,,,,,,,,,,,,,,,,,,,,,"On trials you completed with assistance from the aid, how frequently did you think the aid was correct?",,0.7,0,90,,0,0,0,0,1,0,,,,
,614c5568b8da906b118c158e,001,2022-04-29_03h06.38.828,classification_task,2021.2.3,Win32,20.02242512,614c5568b8da906b118c158e,626b377229c10585ec392f8a,626b39031ce2c60a76cb44b6,,,,,,,,,,,,,,,,,,,,,,,,,,,,,,,,,,,,,,,,,,,,,,,,,,,,,"On trials you completed without the aid, how frequently did you think you were correct?",,0.7,0,50,,0,0,0,0,1,0,,,,
,614c5568b8da906b118c158e,001,2022-04-29_03h06.38.828,classification_task,2021.2.3,Win32,20.02242512,614c5568b8da906b118c158e,626b377229c10585ec392f8a,626b39031ce2c60a76cb44b6,,,,,,,,,,,,,,,,,,,,,,,,,,,,,,,,,,,,,,,,,,,,,,,,,,,,,,,,,,,0,0,0,0,1,,,,,
,614c5568b8da906b118c158e,001,2022-04-29_03h06.38.828,classification_task,2021.2.3,Win32,20.02242512,614c5568b8da906b118c158e,626b377229c10585ec392f8a,626b39031ce2c60a76cb44b6,,,,,,,,,,,,,,,,,,,,,,,,,,,,,,,,,,,,,,,,,,,,,,,,,,,,,,,,,,,,,,,,,n,17.0354,1446.7081,
,614c5568b8da906b118c158e,001,2022-04-29_03h06.38.828,classification_task,2021.2.3,Win32,20.02242512,614c5568b8da906b118c158e,626b377229c10585ec392f8a,626b39031ce2c60a76cb44b6,,,,,,,,,,,,,,,,,,,,,,,,,,,,,,,,,,,,,,,,,,,,,,,,,,,,,,,,,,,,,,,,,,,,"Mozilla/5.0 (Windows NT 10.0) AppleWebKit/537.36 (KHTML, like Gecko) Chrome/100.0.4896.127 Safari/537.36 Edg/100.0.1185.44"
