usingWebGL,participant,session,date,expName,psychopyVersion,OS,frameRate,PROLIFIC_PID,STUDY_ID,SESSION_ID,signatures_friend,signatures_foe,band_ranges_top,band_ranges_bottom,formitemText,formtype,formundefined,formitemWidth,formindex,formresponse,formrt,key_resp_2.keys,key_resp_2.rt,tute_resp.keys,tute_resp.rt,tutorial.thisRepN,tutorial.thisTrialN,tutorial.thisN,tutorial.thisIndex,tutorial.ran,key_resp_4.keys,key_resp_4.rt,key_resp.keys,key_resp.corr,key_resp.rt,lines_presented,is_signal_presented,trials.thisRepN,trials.thisTrialN,trials.thisN,trials.thisIndex,trials.ran,vessel,active_band,lines,is_signal,supported_pos,catch_trial,debrief_formindex,debrief_formitemText,debrief_formtype,debrief_formitemWidth,debrief_formresponse,debrief_formrt,phases.thisRepN,phases.thisTrialN,phases.thisN,phases.thisIndex,phases.ran,phases.order,phase,key_resp_3.keys,trustitemText,trusttype,trustitemWidth,trustindex,trustresponse,trustrt,support_status.thisRepN,support_status.thisTrialN,support_status.thisN,support_status.thisIndex,support_status.ran,support_status.order,key_resp_5.keys,key_resp_5.rt,globalClockTime,userAgent
TRUE,614d950731d144ef2a82902f,001,2022-04-29_03h08.59,classification_task,2021.2.3,Win32,60.01680471,614d950731d144ef2a82902f,626b377229c10585ec392f8a,626b3a6ab635dd57debdebf1,,,,,,,,,,,,,,,,,,,,,,,,,,,,,,,,,,,,,,,,,,,,,,,,,,,,,,,,,,,,,,,,,,,,
,614d950731d144ef2a82902f,001,2022-04-29_03h08.59,classification_task,2021.2.3,Win32,60.01680471,614d950731d144ef2a82902f,626b377229c10585ec392f8a,626b3a6ab635dd57debdebf1,"[[""0.293"",""0.387"",""0.884"",""0.930""],[""0.188"",""0.481"",""0.596"",""0.972""]]","[[""0.036"",""0.151"",""0.445"",""0.700""],[""0.111"",""0.223"",""0.543"",""0.770""]]","[1,10]","[100,1000]",Video game experience,,,0.7,0,,,,,,,,,,,,,,,,,,,,,,,,,,,,,,,,,,,,,,,,,,,,,,,,,,,,,,,,,,,
,614d950731d144ef2a82902f,001,2022-04-29_03h08.59,classification_task,2021.2.3,Win32,60.01680471,614d950731d144ef2a82902f,626b377229c10585ec392f8a,626b3a6ab635dd57debdebf1,,,,,Approximately how many hours did you spend playing video games in the last week?,,,0.7,0,2,,,,,,,,,,,,,,,,,,,,,,,,,,,,,,,,,,,,,,,,,,,,,,,,,,,,,,,,,,
,614d950731d144ef2a82902f,001,2022-04-29_03h08.59,classification_task,2021.2.3,Win32,60.01680471,614d950731d144ef2a82902f,626b377229c10585ec392f8a,626b3a6ab635dd57debdebf1,,,,,"Which game did you play the most this year? (Enter ""None"" if you didn't play any)",,,0.7,0,none,,,,,,,,,,,,,,,,,,,,,,,,,,,,,,,,,,,,,,,,,,,,,,,,,,,,,,,,,,
,614d950731d144ef2a82902f,001,2022-04-29_03h08.59,classification_task,2021.2.3,Win32,60.01680471,614d950731d144ef2a82902f,626b377229c10585ec392f8a,626b3a6ab635dd57debdebf1,,,,,Visual perception,,,0.7,0,,,,,,,,,,,,,,,,,,,,,,,,,,,,,,,,,,,,,,,,,,,,,,,,,,,,,,,,,,,
,614d950731d144ef2a82902f,001,2022-04-29_03h08.59,classification_task,2021.2.3,Win32,60.01680471,614d950731d144ef2a82902f,626b377229c10585ec392f8a,626b3a6ab635dd57debdebf1,,,,,Do you have any form of color blindness?,,,0.7,0,No,26.589745,,,,,,,,,,,,,,,,,,,,,,,,,,,,,,,,,,,,,,,,,,,,,,,,,,,,,,,,,
,614d950731d144ef2a82902f,001,2022-04-29_03h08.59,classification_task,2021.2.3,Win32,60.01680471,614d950731d144ef2a82902f,626b377229c10585ec392f8a,626b3a6ab635dd57debdebf1,,,,,Do you use software to change the colour temperature of your screen (e.g. f.lux)?,,,0.7,0,No,35.36975,,,,,,,,,,,,,,,,,,,,,,,,,,,,,,,,,,,,,,,,,,,,,,,,,,,,,,,,,
,614d950731d144ef2a82902f,001,2022-04-29_03h08.59,classification_task,2021.2.3,Win32,60.01680471,614d950731d144ef2a82902f,626b377229c10585ec392f8a,626b3a6ab635dd57debdebf1,,,,,,,,,,,,space,122.530855,space,14.77867,0,0,0,0,1,,,,,,,,,,,,,,,,,,,,,,,,,,,,,,,,,,,,,,,,,,,,,,,,
,614d950731d144ef2a82902f,001,2022-04-29_03h08.59,classification_task,2021.2.3,Win32,60.01680471,614d950731d144ef2a82902f,626b377229c10585ec392f8a,626b3a6ab635dd57debdebf1,,,,,,,,,,,,,,space,12.575805,1,0,1,0,1,,,,,,,,,,,,,,,,,,,,,,,,,,,,,,,,,,,,,,,,,,,,,,,,
,614d950731d144ef2a82902f,001,2022-04-29_03h08.59,classification_task,2021.2.3,Win32,60.01680471,614d950731d144ef2a82902f,626b377229c10585ec392f8a,626b3a6ab635dd57debdebf1,,,,,,,,,,,,,,space,25.764,2,0,2,0,1,,,,,,,,,,,,,,,,,,,,,,,,,,,,,,,,,,,,,,,,,,,,,,,,
,614d950731d144ef2a82902f,001,2022-04-29_03h08.59,classification_task,2021.2.3,Win32,60.01680471,614d950731d144ef2a82902f,626b377229c10585ec392f8a,626b3a6ab635dd57debdebf1,,,,,,,,,,,,,,space,24.36404,3,0,3,0,1,,,,,,,,,,,,,,,,,,,,,,,,,,,,,,,,,,,,,,,,,,,,,,,,
,614d950731d144ef2a82902f,001,2022-04-29_03h08.59,classification_task,2021.2.3,Win32,60.01680471,614d950731d144ef2a82902f,626b377229c10585ec392f8a,626b3a6ab635dd57debdebf1,,,,,,,,,,,,,,space,23.01901,4,0,4,0,1,,,,,,,,,,,,,,,,,,,,,,,,,,,,,,,,,,,,,,,,,,,,,,,,
,614d950731d144ef2a82902f,001,2022-04-29_03h08.59,classification_task,2021.2.3,Win32,60.01680471,614d950731d144ef2a82902f,626b377229c10585ec392f8a,626b3a6ab635dd57debdebf1,,,,,,,,,,,,,,,,,,,,,space,20.806245,a,1,3.11044,"[""0.188"",""0.822"",""0.596"",""0.972""]","[1,0,1,1]",0,0,0,0,1,0,1,,,1,FALSE,,,,,,,,,,,,,,,,,,,,,,,,,,,,,,
,614d950731d144ef2a82902f,001,2022-04-29_03h08.59,classification_task,2021.2.3,Win32,60.01680471,614d950731d144ef2a82902f,626b377229c10585ec392f8a,626b3a6ab635dd57debdebf1,,,,,,,,,,,,,,,,,,,,,,,l,0,2.113385,"[""0.293"",""0.387"",""0.884"",""0.641""]","[1,1,1,0]",0,1,1,1,1,0,0,,,1,FALSE,,,,,,,,,,,,,,,,,,,,,,,,,,,,,,
,614d950731d144ef2a82902f,001,2022-04-29_03h08.59,classification_task,2021.2.3,Win32,60.01680471,614d950731d144ef2a82902f,626b377229c10585ec392f8a,626b3a6ab635dd57debdebf1,,,,,,,,,,,,,,,,,,,,,,,l,0,1.31889,"[""0.822"",""0.481"",""0.596"",""0.972""]","[0,1,1,1]",0,2,2,2,1,0,1,,,1,FALSE,,,,,,,,,,,,,,,,,,,,,,,,,,,,,,
,614d950731d144ef2a82902f,001,2022-04-29_03h08.59,classification_task,2021.2.3,Win32,60.01680471,614d950731d144ef2a82902f,626b377229c10585ec392f8a,626b3a6ab635dd57debdebf1,,,,,,,,,,,,,,,,,,,,,,,l,1,1.80804,"[""0.036"",""0.151"",""0.445"",""0.650""]","[1,1,1,0]",0,3,3,3,1,1,0,,,1,FALSE,,,,,,,,,,,,,,,,,,,,,,,,,,,,,,
,614d950731d144ef2a82902f,001,2022-04-29_03h08.59,classification_task,2021.2.3,Win32,60.01680471,614d950731d144ef2a82902f,626b377229c10585ec392f8a,626b3a6ab635dd57debdebf1,,,,,,,,,,,,,,,,,,,,,,,a,0,1.31034,"[""0.832"",""0.151"",""0.445"",""0.700""]","[0,1,1,1]",0,4,4,4,1,1,0,,,1,FALSE,,,,,,,,,,,,,,,,,,,,,,,,,,,,,,
,614d950731d144ef2a82902f,001,2022-04-29_03h08.59,classification_task,2021.2.3,Win32,60.01680471,614d950731d144ef2a82902f,626b377229c10585ec392f8a,626b3a6ab635dd57debdebf1,,,,,,,,,,,,,,,,,,,,,,,a,0,1.3622,"[""0.036"",""0.151"",""0.822"",""0.700""]","[1,1,0,1]",0,5,5,5,1,1,0,,,1,FALSE,,,,,,,,,,,,,,,,,,,,,,,,,,,,,,
,614d950731d144ef2a82902f,001,2022-04-29_03h08.59,classification_task,2021.2.3,Win32,60.01680471,614d950731d144ef2a82902f,626b377229c10585ec392f8a,626b3a6ab635dd57debdebf1,,,,,,,,,,,,,,,,,,,,,,,l,0,1.305325,"[""0.832"",""0.387"",""0.884"",""0.930""]","[0,1,1,1]",0,6,6,6,1,0,0,,,1,FALSE,,,,,,,,,,,,,,,,,,,,,,,,,,,,,,
,614d950731d144ef2a82902f,001,2022-04-29_03h08.59,classification_task,2021.2.3,Win32,60.01680471,614d950731d144ef2a82902f,626b377229c10585ec392f8a,626b3a6ab635dd57debdebf1,,,,,,,,,,,,,,,,,,,,,,,a,1,1.075805,"[""0.188"",""0.481"",""0.596"",""0.644""]","[1,1,1,0]",0,7,7,7,1,0,1,,,1,FALSE,,,,,,,,,,,,,,,,,,,,,,,,,,,,,,
,614d950731d144ef2a82902f,001,2022-04-29_03h08.59,classification_task,2021.2.3,Win32,60.01680471,614d950731d144ef2a82902f,626b377229c10585ec392f8a,626b3a6ab635dd57debdebf1,,,,,,,,,,,,,,,,,,,,,,,a,0,1.35483,"[""0.111"",""0.657"",""0.543"",""0.770""]","[1,0,1,1]",0,8,8,8,1,1,1,,,1,FALSE,,,,,,,,,,,,,,,,,,,,,,,,,,,,,,
,614d950731d144ef2a82902f,001,2022-04-29_03h08.59,classification_task,2021.2.3,Win32,60.01680471,614d950731d144ef2a82902f,626b377229c10585ec392f8a,626b3a6ab635dd57debdebf1,,,,,,,,,,,,,,,,,,,,,,,a,1,1.597755,"[""0.293"",""0.387"",""0.650"",""0.930""]","[1,1,0,1]",0,9,9,9,1,0,0,,,1,FALSE,,,,,,,,,,,,,,,,,,,,,,,,,,,,,,
,614d950731d144ef2a82902f,001,2022-04-29_03h08.59,classification_task,2021.2.3,Win32,60.01680471,614d950731d144ef2a82902f,626b377229c10585ec392f8a,626b3a6ab635dd57debdebf1,,,,,,,,,,,,,,,,,,,,,,,l,0,1.3959,"[""0.293"",""0.663"",""0.884"",""0.930""]","[1,0,1,1]",0,10,10,10,1,0,0,,,1,FALSE,,,,,,,,,,,,,,,,,,,,,,,,,,,,,,
,614d950731d144ef2a82902f,001,2022-04-29_03h08.59,classification_task,2021.2.3,Win32,60.01680471,614d950731d144ef2a82902f,626b377229c10585ec392f8a,626b3a6ab635dd57debdebf1,,,,,,,,,,,,,,,,,,,,,,,a,0,1.14385,"[""0.036"",""0.836"",""0.445"",""0.700""]","[1,0,1,1]",0,11,11,11,1,1,0,,,1,FALSE,,,,,,,,,,,,,,,,,,,,,,,,,,,,,,
,614d950731d144ef2a82902f,001,2022-04-29_03h08.59,classification_task,2021.2.3,Win32,60.01680471,614d950731d144ef2a82902f,626b377229c10585ec392f8a,626b3a6ab635dd57debdebf1,,,,,,,,,,,,,,,,,,,,,,,a,1,1.23509,"[""0.188"",""0.481"",""0.643"",""0.972""]","[1,1,0,1]",0,12,12,12,1,0,1,,,1,FALSE,,,,,,,,,,,,,,,,,,,,,,,,,,,,,,
,614d950731d144ef2a82902f,001,2022-04-29_03h08.59,classification_task,2021.2.3,Win32,60.01680471,614d950731d144ef2a82902f,626b377229c10585ec392f8a,626b3a6ab635dd57debdebf1,,,,,,,,,,,,,,,,,,,,,,,a,0,1.31779,"[""0.111"",""0.223"",""0.543"",""0.657""]","[1,1,1,0]",0,13,13,13,1,1,1,,,1,FALSE,,,,,,,,,,,,,,,,,,,,,,,,,,,,,,
,614d950731d144ef2a82902f,001,2022-04-29_03h08.59,classification_task,2021.2.3,Win32,60.01680471,614d950731d144ef2a82902f,626b377229c10585ec392f8a,626b3a6ab635dd57debdebf1,,,,,,,,,,,,,,,,,,,,,,,l,1,1.121505,"[""0.111"",""0.223"",""0.650"",""0.770""]","[1,1,0,1]",0,14,14,14,1,1,1,,,1,FALSE,,,,,,,,,,,,,,,,,,,,,,,,,,,,,,
,614d950731d144ef2a82902f,001,2022-04-29_03h08.59,classification_task,2021.2.3,Win32,60.01680471,614d950731d144ef2a82902f,626b377229c10585ec392f8a,626b3a6ab635dd57debdebf1,,,,,,,,,,,,,,,,,,,,,,,l,1,1.19208,"[""0.654"",""0.223"",""0.543"",""0.770""]","[0,1,1,1]",0,15,15,15,1,1,1,,,1,FALSE,,,,,,,,,,,,,,,,,,,,,,,,,,,,,,
,614d950731d144ef2a82902f,001,2022-04-29_03h08.59,classification_task,2021.2.3,Win32,60.01680471,614d950731d144ef2a82902f,626b377229c10585ec392f8a,626b3a6ab635dd57debdebf1,,,,,,,,,,,,,,,,,,,,,,,a,1,1.436295,"[""0.644"",""0.387"",""0.884"",""0.930""]","[0,1,1,1]",0,16,16,16,1,0,0,,,1,FALSE,,,,,,,,,,,,,,,,,,,,,,,,,,,,,,
,614d950731d144ef2a82902f,001,2022-04-29_03h08.59,classification_task,2021.2.3,Win32,60.01680471,614d950731d144ef2a82902f,626b377229c10585ec392f8a,626b3a6ab635dd57debdebf1,,,,,,,,,,,,,,,,,,,,,,,a,1,1.491355,"[""0.188"",""0.643"",""0.596"",""0.972""]","[1,0,1,1]",0,17,17,17,1,0,1,,,1,FALSE,,,,,,,,,,,,,,,,,,,,,,,,,,,,,,
,614d950731d144ef2a82902f,001,2022-04-29_03h08.59,classification_task,2021.2.3,Win32,60.01680471,614d950731d144ef2a82902f,626b377229c10585ec392f8a,626b3a6ab635dd57debdebf1,,,,,,,,,,,,,,,,,,,,,,,l,1,1.06015,"[""0.111"",""0.223"",""0.832"",""0.770""]","[1,1,0,1]",0,18,18,18,1,1,1,,,1,FALSE,,,,,,,,,,,,,,,,,,,,,,,,,,,,,,
,614d950731d144ef2a82902f,001,2022-04-29_03h08.59,classification_task,2021.2.3,Win32,60.01680471,614d950731d144ef2a82902f,626b377229c10585ec392f8a,626b3a6ab635dd57debdebf1,,,,,,,,,,,,,,,,,,,,,,,a,0,1.049385,"[""0.036"",""0.151"",""0.644"",""0.700""]","[1,1,0,1]",0,19,19,19,1,1,0,,,1,FALSE,,,,,,,,,,,,,,,,,,,,,,,,,,,,,,
,614d950731d144ef2a82902f,001,2022-04-29_03h08.59,classification_task,2021.2.3,Win32,60.01680471,614d950731d144ef2a82902f,626b377229c10585ec392f8a,626b3a6ab635dd57debdebf1,,,,,,,,,,,,,,,,,,,,,,,l,1,1.21736,"[""0.111"",""0.643"",""0.543"",""0.770""]","[1,0,1,1]",0,20,20,20,1,1,1,,,1,FALSE,,,,,,,,,,,,,,,,,,,,,,,,,,,,,,
,614d950731d144ef2a82902f,001,2022-04-29_03h08.59,classification_task,2021.2.3,Win32,60.01680471,614d950731d144ef2a82902f,626b377229c10585ec392f8a,626b3a6ab635dd57debdebf1,,,,,,,,,,,,,,,,,,,,,,,a,1,1.507485,"[""0.293"",""0.836"",""0.884"",""0.930""]","[1,0,1,1]",0,21,21,21,1,0,0,,,1,FALSE,,,,,,,,,,,,,,,,,,,,,,,,,,,,,,
,614d950731d144ef2a82902f,001,2022-04-29_03h08.59,classification_task,2021.2.3,Win32,60.01680471,614d950731d144ef2a82902f,626b377229c10585ec392f8a,626b3a6ab635dd57debdebf1,,,,,,,,,,,,,,,,,,,,,,,a,0,1.729475,"[""0.814"",""0.151"",""0.445"",""0.700""]","[0,1,1,1]",0,22,22,22,1,1,0,,,1,FALSE,,,,,,,,,,,,,,,,,,,,,,,,,,,,,,
,614d950731d144ef2a82902f,001,2022-04-29_03h08.59,classification_task,2021.2.3,Win32,60.01680471,614d950731d144ef2a82902f,626b377229c10585ec392f8a,626b3a6ab635dd57debdebf1,,,,,,,,,,,,,,,,,,,,,,,l,0,1.775185,"[""0.188"",""0.481"",""0.596"",""0.836""]","[1,1,1,0]",0,23,23,23,1,0,1,,,1,FALSE,,,,,,,,,,,,,,,,,,,,,,,,,,,,,,
,614d950731d144ef2a82902f,001,2022-04-29_03h08.59,classification_task,2021.2.3,Win32,60.01680471,614d950731d144ef2a82902f,626b377229c10585ec392f8a,626b3a6ab635dd57debdebf1,,,,,,,,,,,,,,,,,,,,,,,a,1,1.14957,"[""0.188"",""0.481"",""0.643"",""0.972""]","[1,1,0,1]",0,24,24,24,1,0,1,,,1,FALSE,,,,,,,,,,,,,,,,,,,,,,,,,,,,,,
,614d950731d144ef2a82902f,001,2022-04-29_03h08.59,classification_task,2021.2.3,Win32,60.01680471,614d950731d144ef2a82902f,626b377229c10585ec392f8a,626b3a6ab635dd57debdebf1,,,,,,,,,,,,,,,,,,,,,,,a,1,1.620895,"[""0.293"",""0.387"",""0.884"",""0.650""]","[1,1,1,0]",0,25,25,25,1,0,0,,,1,FALSE,,,,,,,,,,,,,,,,,,,,,,,,,,,,,,
,614d950731d144ef2a82902f,001,2022-04-29_03h08.59,classification_task,2021.2.3,Win32,60.01680471,614d950731d144ef2a82902f,626b377229c10585ec392f8a,626b3a6ab635dd57debdebf1,,,,,,,,,,,,,,,,,,,,,,,a,1,1.219565,"[""0.293"",""0.387"",""0.643"",""0.930""]","[1,1,0,1]",0,26,26,26,1,0,0,,,1,FALSE,,,,,,,,,,,,,,,,,,,,,,,,,,,,,,
,614d950731d144ef2a82902f,001,2022-04-29_03h08.59,classification_task,2021.2.3,Win32,60.01680471,614d950731d144ef2a82902f,626b377229c10585ec392f8a,626b3a6ab635dd57debdebf1,,,,,,,,,,,,,,,,,,,,,,,a,0,1.856785,"[""0.663"",""0.223"",""0.543"",""0.770""]","[0,1,1,1]",0,27,27,27,1,1,1,,,1,FALSE,,,,,,,,,,,,,,,,,,,,,,,,,,,,,,
,614d950731d144ef2a82902f,001,2022-04-29_03h08.59,classification_task,2021.2.3,Win32,60.01680471,614d950731d144ef2a82902f,626b377229c10585ec392f8a,626b3a6ab635dd57debdebf1,,,,,,,,,,,,,,,,,,,,,,,l,1,1.3315,"[""0.036"",""0.151"",""0.445"",""0.832""]","[1,1,1,0]",0,28,28,28,1,1,0,,,1,FALSE,,,,,,,,,,,,,,,,,,,,,,,,,,,,,,
,614d950731d144ef2a82902f,001,2022-04-29_03h08.59,classification_task,2021.2.3,Win32,60.01680471,614d950731d144ef2a82902f,626b377229c10585ec392f8a,626b3a6ab635dd57debdebf1,,,,,,,,,,,,,,,,,,,,,,,a,0,1.484775,"[""0.036"",""0.814"",""0.445"",""0.700""]","[1,0,1,1]",0,29,29,29,1,1,0,,,1,FALSE,,,,,,,,,,,,,,,,,,,,,,,,,,,,,,
,614d950731d144ef2a82902f,001,2022-04-29_03h08.59,classification_task,2021.2.3,Win32,60.01680471,614d950731d144ef2a82902f,626b377229c10585ec392f8a,626b3a6ab635dd57debdebf1,,,,,,,,,,,,,,,,,,,,,,,l,0,1.433185,"[""0.822"",""0.481"",""0.596"",""0.972""]","[0,1,1,1]",0,30,30,30,1,0,1,,,1,FALSE,,,,,,,,,,,,,,,,,,,,,,,,,,,,,,
,614d950731d144ef2a82902f,001,2022-04-29_03h08.59,classification_task,2021.2.3,Win32,60.01680471,614d950731d144ef2a82902f,626b377229c10585ec392f8a,626b3a6ab635dd57debdebf1,,,,,,,,,,,,,,,,,,,,,,,a,0,1.423685,"[""0.111"",""0.223"",""0.543"",""0.811""]","[1,1,1,0]",0,31,31,31,1,1,1,,,1,FALSE,,,,,,,,,,,,,,,,,,,,,,,,,,,,,,
,614d950731d144ef2a82902f,001,2022-04-29_03h08.59,classification_task,2021.2.3,Win32,60.01680471,614d950731d144ef2a82902f,626b377229c10585ec392f8a,626b3a6ab635dd57debdebf1,,,,,,,,,,,,,,,,,,,,,,,a,0,2.09356,"[""0.036"",""0.644"",""0.445"",""0.700""]","[1,0,1,1]",0,32,32,32,1,1,0,,,1,FALSE,,,,,,,,,,,,,,,,,,,,,,,,,,,,,,
,614d950731d144ef2a82902f,001,2022-04-29_03h08.59,classification_task,2021.2.3,Win32,60.01680471,614d950731d144ef2a82902f,626b377229c10585ec392f8a,626b3a6ab635dd57debdebf1,,,,,,,,,,,,,,,,,,,,,,,l,0,2.80398,"[""0.188"",""0.481"",""0.596"",""0.843""]","[1,1,1,0]",0,33,33,33,1,0,1,,,1,FALSE,,,,,,,,,,,,,,,,,,,,,,,,,,,,,,
,614d950731d144ef2a82902f,001,2022-04-29_03h08.59,classification_task,2021.2.3,Win32,60.01680471,614d950731d144ef2a82902f,626b377229c10585ec392f8a,626b3a6ab635dd57debdebf1,,,,,,,,,,,,,,,,,,,,,,,l,0,2.66145,"[""0.188"",""0.481"",""0.814"",""0.972""]","[1,1,0,1]",0,34,34,34,1,0,1,,,1,FALSE,,,,,,,,,,,,,,,,,,,,,,,,,,,,,,
,614d950731d144ef2a82902f,001,2022-04-29_03h08.59,classification_task,2021.2.3,Win32,60.01680471,614d950731d144ef2a82902f,626b377229c10585ec392f8a,626b3a6ab635dd57debdebf1,,,,,,,,,,,,,,,,,,,,,,,l,0,3.61675,"[""0.650"",""0.481"",""0.596"",""0.972""]","[0,1,1,1]",0,35,35,35,1,0,1,,,1,FALSE,,,,,,,,,,,,,,,,,,,,,,,,,,,,,,
,614d950731d144ef2a82902f,001,2022-04-29_03h08.59,classification_task,2021.2.3,Win32,60.01680471,614d950731d144ef2a82902f,626b377229c10585ec392f8a,626b3a6ab635dd57debdebf1,,,,,,,,,,,,,,,,,,,,,,,a,1,4.030895,"[""0.293"",""0.387"",""0.639"",""0.930""]","[1,1,0,1]",0,36,36,36,1,0,0,,,1,FALSE,,,,,,,,,,,,,,,,,,,,,,,,,,,,,,
,614d950731d144ef2a82902f,001,2022-04-29_03h08.59,classification_task,2021.2.3,Win32,60.01680471,614d950731d144ef2a82902f,626b377229c10585ec392f8a,626b3a6ab635dd57debdebf1,,,,,,,,,,,,,,,,,,,,,,,a,1,2.12838,"[""0.663"",""0.387"",""0.884"",""0.930""]","[0,1,1,1]",0,37,37,37,1,0,0,,,1,FALSE,,,,,,,,,,,,,,,,,,,,,,,,,,,,,,
,614d950731d144ef2a82902f,001,2022-04-29_03h08.59,classification_task,2021.2.3,Win32,60.01680471,614d950731d144ef2a82902f,626b377229c10585ec392f8a,626b3a6ab635dd57debdebf1,,,,,,,,,,,,,,,,,,,,,,,a,0,3.043375,"[""0.111"",""0.223"",""0.543"",""0.832""]","[1,1,1,0]",0,38,38,38,1,1,1,,,1,FALSE,,,,,,,,,,,,,,,,,,,,,,,,,,,,,,
,614d950731d144ef2a82902f,001,2022-04-29_03h08.59,classification_task,2021.2.3,Win32,60.01680471,614d950731d144ef2a82902f,626b377229c10585ec392f8a,626b3a6ab635dd57debdebf1,,,,,,,,,,,,,,,,,,,,,,,l,1,4.58305,"[""0.036"",""0.151"",""0.663"",""0.700""]","[1,1,0,1]",0,39,39,39,1,1,0,,,1,FALSE,,,,,,,,,,,,,,,,,,,,,,,,,,,,,,
,614d950731d144ef2a82902f,001,2022-04-29_03h08.59,classification_task,2021.2.3,Win32,60.01680471,614d950731d144ef2a82902f,626b377229c10585ec392f8a,626b3a6ab635dd57debdebf1,,,,,,,,,,,,,,,,,,,,,,,a,0,2.664255,"[""0.036"",""0.151"",""0.445"",""0.666""]","[1,1,1,0]",0,40,40,40,1,1,0,,,1,FALSE,,,,,,,,,,,,,,,,,,,,,,,,,,,,,,
,614d950731d144ef2a82902f,001,2022-04-29_03h08.59,classification_task,2021.2.3,Win32,60.01680471,614d950731d144ef2a82902f,626b377229c10585ec392f8a,626b3a6ab635dd57debdebf1,,,,,,,,,,,,,,,,,,,,,,,a,0,3.11275,"[""0.111"",""0.223"",""0.641"",""0.770""]","[1,1,0,1]",0,41,41,41,1,1,1,,,1,FALSE,,,,,,,,,,,,,,,,,,,,,,,,,,,,,,
,614d950731d144ef2a82902f,001,2022-04-29_03h08.59,classification_task,2021.2.3,Win32,60.01680471,614d950731d144ef2a82902f,626b377229c10585ec392f8a,626b3a6ab635dd57debdebf1,,,,,,,,,,,,,,,,,,,,,,,a,1,1.75156,"[""0.293"",""0.641"",""0.884"",""0.930""]","[1,0,1,1]",0,42,42,42,1,0,0,,,1,FALSE,,,,,,,,,,,,,,,,,,,,,,,,,,,,,,
,614d950731d144ef2a82902f,001,2022-04-29_03h08.59,classification_task,2021.2.3,Win32,60.01680471,614d950731d144ef2a82902f,626b377229c10585ec392f8a,626b3a6ab635dd57debdebf1,,,,,,,,,,,,,,,,,,,,,,,l,1,1.061585,"[""0.111"",""0.811"",""0.543"",""0.770""]","[1,0,1,1]",0,43,43,43,1,1,1,,,1,FALSE,,,,,,,,,,,,,,,,,,,,,,,,,,,,,,
,614d950731d144ef2a82902f,001,2022-04-29_03h08.59,classification_task,2021.2.3,Win32,60.01680471,614d950731d144ef2a82902f,626b377229c10585ec392f8a,626b3a6ab635dd57debdebf1,,,,,,,,,,,,,,,,,,,,,,,l,1,1.17759,"[""0.822"",""0.223"",""0.543"",""0.770""]","[0,1,1,1]",0,44,44,44,1,1,1,,,1,FALSE,,,,,,,,,,,,,,,,,,,,,,,,,,,,,,
,614d950731d144ef2a82902f,001,2022-04-29_03h08.59,classification_task,2021.2.3,Win32,60.01680471,614d950731d144ef2a82902f,626b377229c10585ec392f8a,626b3a6ab635dd57debdebf1,,,,,,,,,,,,,,,,,,,,,,,a,1,4.8902,"[""0.293"",""0.387"",""0.884"",""0.843""]","[1,1,1,0]",0,45,45,45,1,0,0,,,1,FALSE,,,,,,,,,,,,,,,,,,,,,,,,,,,,,,
,614d950731d144ef2a82902f,001,2022-04-29_03h08.59,classification_task,2021.2.3,Win32,60.01680471,614d950731d144ef2a82902f,626b377229c10585ec392f8a,626b3a6ab635dd57debdebf1,,,,,,,,,,,,,,,,,,,,,,,l,0,1.92064,"[""0.188"",""0.843"",""0.596"",""0.972""]","[1,0,1,1]",0,46,46,46,1,0,1,,,1,FALSE,,,,,,,,,,,,,,,,,,,,,,,,,,,,,,
,614d950731d144ef2a82902f,001,2022-04-29_03h08.59,classification_task,2021.2.3,Win32,60.01680471,614d950731d144ef2a82902f,626b377229c10585ec392f8a,626b3a6ab635dd57debdebf1,,,,,,,,,,,,,,,,,,,,,,,a,0,3.30045,"[""0.843"",""0.151"",""0.445"",""0.700""]","[0,1,1,1]",0,47,47,47,1,1,0,,,1,FALSE,,,,,,,,,,,,,,,,,,,,,,,,,,,,,,
,614d950731d144ef2a82902f,001,2022-04-29_03h08.59,classification_task,2021.2.3,Win32,60.01680471,614d950731d144ef2a82902f,626b377229c10585ec392f8a,626b3a6ab635dd57debdebf1,,,,,,,,,,,,,,,,,,,,,,,l,0,1.71684,"[""0.188"",""0.836"",""0.596"",""0.972""]","[1,0,1,1]",0,48,48,48,1,0,1,,,1,FALSE,,,,,,,,,,,,,,,,,,,,,,,,,,,,,,
,614d950731d144ef2a82902f,001,2022-04-29_03h08.59,classification_task,2021.2.3,Win32,60.01680471,614d950731d144ef2a82902f,626b377229c10585ec392f8a,626b3a6ab635dd57debdebf1,,,,,,,,,,,,,,,,,,,,,,,l,1,2.439495,"[""0.643"",""0.223"",""0.543"",""0.770""]","[0,1,1,1]",0,49,49,49,1,1,1,,,1,FALSE,,,,,,,,,,,,,,,,,,,,,,,,,,,,,,
,614d950731d144ef2a82902f,001,2022-04-29_03h08.59,classification_task,2021.2.3,Win32,60.01680471,614d950731d144ef2a82902f,626b377229c10585ec392f8a,626b3a6ab635dd57debdebf1,,,,,,,,,,,,,,,,,,,,,,,a,0,2.04184,"[""0.111"",""0.223"",""0.543"",""0.644""]","[1,1,1,0]",0,50,50,50,1,1,1,,,1,FALSE,,,,,,,,,,,,,,,,,,,,,,,,,,,,,,
,614d950731d144ef2a82902f,001,2022-04-29_03h08.59,classification_task,2021.2.3,Win32,60.01680471,614d950731d144ef2a82902f,626b377229c10585ec392f8a,626b3a6ab635dd57debdebf1,,,,,,,,,,,,,,,,,,,,,,,a,0,1.544745,"[""0.822"",""0.151"",""0.445"",""0.700""]","[0,1,1,1]",0,51,51,51,1,1,0,,,1,FALSE,,,,,,,,,,,,,,,,,,,,,,,,,,,,,,
,614d950731d144ef2a82902f,001,2022-04-29_03h08.59,classification_task,2021.2.3,Win32,60.01680471,614d950731d144ef2a82902f,626b377229c10585ec392f8a,626b3a6ab635dd57debdebf1,,,,,,,,,,,,,,,,,,,,,,,a,1,0.98179,"[""0.293"",""0.387"",""0.884"",""0.832""]","[1,1,1,0]",0,52,52,52,1,0,0,,,1,FALSE,,,,,,,,,,,,,,,,,,,,,,,,,,,,,,
,614d950731d144ef2a82902f,001,2022-04-29_03h08.59,classification_task,2021.2.3,Win32,60.01680471,614d950731d144ef2a82902f,626b377229c10585ec392f8a,626b3a6ab635dd57debdebf1,,,,,,,,,,,,,,,,,,,,,,,a,1,1.129295,"[""0.293"",""0.387"",""0.811"",""0.930""]","[1,1,0,1]",0,53,53,53,1,0,0,,,1,FALSE,,,,,,,,,,,,,,,,,,,,,,,,,,,,,,
,614d950731d144ef2a82902f,001,2022-04-29_03h08.59,classification_task,2021.2.3,Win32,60.01680471,614d950731d144ef2a82902f,626b377229c10585ec392f8a,626b3a6ab635dd57debdebf1,,,,,,,,,,,,,,,,,,,,,,,l,1,0.92852,"[""0.111"",""0.843"",""0.543"",""0.770""]","[1,0,1,1]",0,54,54,54,1,1,1,,,1,FALSE,,,,,,,,,,,,,,,,,,,,,,,,,,,,,,
,614d950731d144ef2a82902f,001,2022-04-29_03h08.59,classification_task,2021.2.3,Win32,60.01680471,614d950731d144ef2a82902f,626b377229c10585ec392f8a,626b3a6ab635dd57debdebf1,,,,,,,,,,,,,,,,,,,,,,,a,1,1.127375,"[""0.644"",""0.387"",""0.884"",""0.930""]","[0,1,1,1]",0,55,55,55,1,0,0,,,1,FALSE,,,,,,,,,,,,,,,,,,,,,,,,,,,,,,
,614d950731d144ef2a82902f,001,2022-04-29_03h08.59,classification_task,2021.2.3,Win32,60.01680471,614d950731d144ef2a82902f,626b377229c10585ec392f8a,626b3a6ab635dd57debdebf1,,,,,,,,,,,,,,,,,,,,,,,l,1,1.050965,"[""0.111"",""0.223"",""0.663"",""0.770""]","[1,1,0,1]",0,56,56,56,1,1,1,,,1,FALSE,,,,,,,,,,,,,,,,,,,,,,,,,,,,,,
,614d950731d144ef2a82902f,001,2022-04-29_03h08.59,classification_task,2021.2.3,Win32,60.01680471,614d950731d144ef2a82902f,626b377229c10585ec392f8a,626b3a6ab635dd57debdebf1,,,,,,,,,,,,,,,,,,,,,,,l,1,1.742245,"[""0.036"",""0.151"",""0.639"",""0.700""]","[1,1,0,1]",0,57,57,57,1,1,0,,,1,FALSE,,,,,,,,,,,,,,,,,,,,,,,,,,,,,,
,614d950731d144ef2a82902f,001,2022-04-29_03h08.59,classification_task,2021.2.3,Win32,60.01680471,614d950731d144ef2a82902f,626b377229c10585ec392f8a,626b3a6ab635dd57debdebf1,,,,,,,,,,,,,,,,,,,,,,,a,1,3.456265,"[""0.188"",""0.481"",""0.596"",""0.650""]","[1,1,1,0]",0,58,58,58,1,0,1,,,1,FALSE,,,,,,,,,,,,,,,,,,,,,,,,,,,,,,
,614d950731d144ef2a82902f,001,2022-04-29_03h08.59,classification_task,2021.2.3,Win32,60.01680471,614d950731d144ef2a82902f,626b377229c10585ec392f8a,626b3a6ab635dd57debdebf1,,,,,,,,,,,,,,,,,,,,,,,a,0,1.4838,"[""0.036"",""0.644"",""0.445"",""0.700""]","[1,0,1,1]",0,59,59,59,1,1,0,,,1,FALSE,,,,,,,,,,,,,,,,,,,,,,,,,,,,,,
,614d950731d144ef2a82902f,001,2022-04-29_03h08.59,classification_task,2021.2.3,Win32,60.01680471,614d950731d144ef2a82902f,626b377229c10585ec392f8a,626b3a6ab635dd57debdebf1,,,,,,,,,,,,,,,,,,,,,,,l,0,1.42244,"[""0.832"",""0.481"",""0.596"",""0.972""]","[0,1,1,1]",0,60,60,60,1,0,1,,,1,FALSE,,,,,,,,,,,,,,,,,,,,,,,,,,,,,,
,614d950731d144ef2a82902f,001,2022-04-29_03h08.59,classification_task,2021.2.3,Win32,60.01680471,614d950731d144ef2a82902f,626b377229c10585ec392f8a,626b3a6ab635dd57debdebf1,,,,,,,,,,,,,,,,,,,,,,,a,1,1.091715,"[""0.293"",""0.811"",""0.884"",""0.930""]","[1,0,1,1]",0,61,61,61,1,0,0,,,1,FALSE,,,,,,,,,,,,,,,,,,,,,,,,,,,,,,
,614d950731d144ef2a82902f,001,2022-04-29_03h08.59,classification_task,2021.2.3,Win32,60.01680471,614d950731d144ef2a82902f,626b377229c10585ec392f8a,626b3a6ab635dd57debdebf1,,,,,,,,,,,,,,,,,,,,,,,a,0,1.139585,"[""0.036"",""0.151"",""0.445"",""0.843""]","[1,1,1,0]",0,62,62,62,1,1,0,,,1,FALSE,,,,,,,,,,,,,,,,,,,,,,,,,,,,,,
,614d950731d144ef2a82902f,001,2022-04-29_03h08.59,classification_task,2021.2.3,Win32,60.01680471,614d950731d144ef2a82902f,626b377229c10585ec392f8a,626b3a6ab635dd57debdebf1,,,,,,,,,,,,,,,,,,,,,,,l,0,1.37397,"[""0.188"",""0.481"",""0.663"",""0.972""]","[1,1,0,1]",0,63,63,63,1,0,1,,,1,FALSE,,,,,,,,,,,,,,,,,,,,,,,,,,,,,,
,614d950731d144ef2a82902f,001,2022-04-29_03h08.59,classification_task,2021.2.3,Win32,60.01680471,614d950731d144ef2a82902f,626b377229c10585ec392f8a,626b3a6ab635dd57debdebf1,,,,,,,,,,,,,,,,,,,,,,,,,,,,,,,,,,,,,,,0, ,,0,3.93215388,482.44455,0,0,0,0,1,2,1,,,,,,,,,,,,,,,,,
,614d950731d144ef2a82902f,001,2022-04-29_03h08.59,classification_task,2021.2.3,Win32,60.01680471,614d950731d144ef2a82902f,626b377229c10585ec392f8a,626b3a6ab635dd57debdebf1,,,,,,,,,,,,,,,,,,,,,,,,,,,,,,,,,,,,,,,1,  ,,0,8.169091711,487.64575,0,0,0,0,1,2,1,,,,,,,,,,,,,,,,,
,614d950731d144ef2a82902f,001,2022-04-29_03h08.59,classification_task,2021.2.3,Win32,60.01680471,614d950731d144ef2a82902f,626b377229c10585ec392f8a,626b3a6ab635dd57debdebf1,,,,,,,,,,,,,,,,,,,,,,,,,,,,,,,,,,,,,,,2,  ,,0,4.896660053,493.537645,0,0,0,0,1,2,1,,,,,,,,,,,,,,,,,
,614d950731d144ef2a82902f,001,2022-04-29_03h08.59,classification_task,2021.2.3,Win32,60.01680471,614d950731d144ef2a82902f,626b377229c10585ec392f8a,626b3a6ab635dd57debdebf1,,,,,,,,,,,,,,,,,,,,,,,,,,,,,,,,,,,,,,,,,,,,,0,0,0,0,1,,1,,,,,,,,,,,,,,,,,
,614d950731d144ef2a82902f,001,2022-04-29_03h08.59,classification_task,2021.2.3,Win32,60.01680471,614d950731d144ef2a82902f,626b377229c10585ec392f8a,626b3a6ab635dd57debdebf1,,,,,,,,,,,,,,,,,,,,,space,7.91293,l,0,3.28184,"[""0.188"",""0.639"",""0.596"",""0.972""]","[1,0,1,1]",0,0,0,0,1,0,1,,,1,FALSE,,,,,,,,,,,,,,,,,,,,,,,,,,,,,,
,614d950731d144ef2a82902f,001,2022-04-29_03h08.59,classification_task,2021.2.3,Win32,60.01680471,614d950731d144ef2a82902f,626b377229c10585ec392f8a,626b3a6ab635dd57debdebf1,,,,,,,,,,,,,,,,,,,,,,,l,1,1.65748,"[""0.666"",""0.223"",""0.543"",""0.770""]","[0,1,1,1]",0,1,1,1,1,1,1,,,1,FALSE,,,,,,,,,,,,,,,,,,,,,,,,,,,,,,
,614d950731d144ef2a82902f,001,2022-04-29_03h08.59,classification_task,2021.2.3,Win32,60.01680471,614d950731d144ef2a82902f,626b377229c10585ec392f8a,626b3a6ab635dd57debdebf1,,,,,,,,,,,,,,,,,,,,,,,a,0,1.27599,"[""0.036"",""0.843"",""0.445"",""0.700""]","[1,0,1,1]",0,2,2,2,1,1,0,,,1,FALSE,,,,,,,,,,,,,,,,,,,,,,,,,,,,,,
,614d950731d144ef2a82902f,001,2022-04-29_03h08.59,classification_task,2021.2.3,Win32,60.01680471,614d950731d144ef2a82902f,626b377229c10585ec392f8a,626b3a6ab635dd57debdebf1,,,,,,,,,,,,,,,,,,,,,,,a,1,0.864715,"[""0.814"",""0.387"",""0.884"",""0.930""]","[0,1,1,1]",0,3,3,3,1,0,0,,,1,FALSE,,,,,,,,,,,,,,,,,,,,,,,,,,,,,,
,614d950731d144ef2a82902f,001,2022-04-29_03h08.59,classification_task,2021.2.3,Win32,60.01680471,614d950731d144ef2a82902f,626b377229c10585ec392f8a,626b3a6ab635dd57debdebf1,,,,,,,,,,,,,,,,,,,,,,,l,0,2.018485,"[""0.188"",""0.481"",""0.596"",""0.822""]","[1,1,1,0]",0,4,4,4,1,0,1,,,1,FALSE,,,,,,,,,,,,,,,,,,,,,,,,,,,,,,
,614d950731d144ef2a82902f,001,2022-04-29_03h08.59,classification_task,2021.2.3,Win32,60.01680471,614d950731d144ef2a82902f,626b377229c10585ec392f8a,626b3a6ab635dd57debdebf1,,,,,,,,,,,,,,,,,,,,,,,a,0,1.021325,"[""0.111"",""0.223"",""0.543"",""0.822""]","[1,1,1,0]",0,5,5,5,1,1,1,,,1,FALSE,,,,,,,,,,,,,,,,,,,,,,,,,,,,,,
,614d950731d144ef2a82902f,001,2022-04-29_03h08.59,classification_task,2021.2.3,Win32,60.01680471,614d950731d144ef2a82902f,626b377229c10585ec392f8a,626b3a6ab635dd57debdebf1,,,,,,,,,,,,,,,,,,,,,,,a,1,0.82063,"[""0.822"",""0.481"",""0.596"",""0.972""]","[0,1,1,1]",0,6,6,6,1,0,1,,,1,FALSE,,,,,,,,,,,,,,,,,,,,,,,,,,,,,,
,614d950731d144ef2a82902f,001,2022-04-29_03h08.59,classification_task,2021.2.3,Win32,60.01680471,614d950731d144ef2a82902f,626b377229c10585ec392f8a,626b3a6ab635dd57debdebf1,,,,,,,,,,,,,,,,,,,,,,,l,0,1.34732,"[""0.293"",""0.387"",""0.832"",""0.930""]","[1,1,0,1]",0,7,7,7,1,0,0,,,1,FALSE,,,,,,,,,,,,,,,,,,,,,,,,,,,,,,
,614d950731d144ef2a82902f,001,2022-04-29_03h08.59,classification_task,2021.2.3,Win32,60.01680471,614d950731d144ef2a82902f,626b377229c10585ec392f8a,626b3a6ab635dd57debdebf1,,,,,,,,,,,,,,,,,,,,,,,l,0,1.106215,"[""0.293"",""0.654"",""0.884"",""0.930""]","[1,0,1,1]",0,8,8,8,1,0,0,,,1,FALSE,,,,,,,,,,,,,,,,,,,,,,,,,,,,,,
,614d950731d144ef2a82902f,001,2022-04-29_03h08.59,classification_task,2021.2.3,Win32,60.01680471,614d950731d144ef2a82902f,626b377229c10585ec392f8a,626b3a6ab635dd57debdebf1,,,,,,,,,,,,,,,,,,,,,,,a,0,1.158965,"[""0.111"",""0.644"",""0.543"",""0.770""]","[1,0,1,1]",0,9,9,9,1,1,1,,,1,FALSE,,,,,,,,,,,,,,,,,,,,,,,,,,,,,,
,614d950731d144ef2a82902f,001,2022-04-29_03h08.59,classification_task,2021.2.3,Win32,60.01680471,614d950731d144ef2a82902f,626b377229c10585ec392f8a,626b3a6ab635dd57debdebf1,,,,,,,,,,,,,,,,,,,,,,,a,0,0.82029,"[""0.111"",""0.223"",""0.832"",""0.770""]","[1,1,0,1]",0,10,10,10,1,1,1,,,1,FALSE,,,,,,,,,,,,,,,,,,,,,,,,,,,,,,
,614d950731d144ef2a82902f,001,2022-04-29_03h08.59,classification_task,2021.2.3,Win32,60.01680471,614d950731d144ef2a82902f,626b377229c10585ec392f8a,626b3a6ab635dd57debdebf1,,,,,,,,,,,,,,,,,,,,,,,a,1,0.983815,"[""0.293"",""0.387"",""0.884"",""0.650""]","[1,1,1,0]",0,11,11,11,1,0,0,,,1,FALSE,,,,,,,,,,,,,,,,,,,,,,,,,,,,,,
,614d950731d144ef2a82902f,001,2022-04-29_03h08.59,classification_task,2021.2.3,Win32,60.01680471,614d950731d144ef2a82902f,626b377229c10585ec392f8a,626b3a6ab635dd57debdebf1,,,,,,,,,,,,,,,,,,,,,,,l,1,1.223855,"[""0.036"",""0.151"",""0.836"",""0.700""]","[1,1,0,1]",0,12,12,12,1,1,0,,,1,FALSE,,,,,,,,,,,,,,,,,,,,,,,,,,,,,,
,614d950731d144ef2a82902f,001,2022-04-29_03h08.59,classification_task,2021.2.3,Win32,60.01680471,614d950731d144ef2a82902f,626b377229c10585ec392f8a,626b3a6ab635dd57debdebf1,,,,,,,,,,,,,,,,,,,,,,,l,1,1.517035,"[""0.036"",""0.151"",""0.445"",""0.644""]","[1,1,1,0]",0,13,13,13,1,1,0,,,1,FALSE,,,,,,,,,,,,,,,,,,,,,,,,,,,,,,
,614d950731d144ef2a82902f,001,2022-04-29_03h08.59,classification_task,2021.2.3,Win32,60.01680471,614d950731d144ef2a82902f,626b377229c10585ec392f8a,626b3a6ab635dd57debdebf1,,,,,,,,,,,,,,,,,,,,,,,a,0,1.51881,"[""0.639"",""0.151"",""0.445"",""0.700""]","[0,1,1,1]",0,14,14,14,1,1,0,,,1,FALSE,,,,,,,,,,,,,,,,,,,,,,,,,,,,,,
,614d950731d144ef2a82902f,001,2022-04-29_03h08.59,classification_task,2021.2.3,Win32,60.01680471,614d950731d144ef2a82902f,626b377229c10585ec392f8a,626b3a6ab635dd57debdebf1,,,,,,,,,,,,,,,,,,,,,,,a,1,1.58681,"[""0.188"",""0.481"",""0.832"",""0.972""]","[1,1,0,1]",0,15,15,15,1,0,1,,,1,FALSE,,,,,,,,,,,,,,,,,,,,,,,,,,,,,,
,614d950731d144ef2a82902f,001,2022-04-29_03h08.59,classification_task,2021.2.3,Win32,60.01680471,614d950731d144ef2a82902f,626b377229c10585ec392f8a,626b3a6ab635dd57debdebf1,,,,,,,,,,,,,,,,,,,,,,,l,0,1.302105,"[""0.293"",""0.822"",""0.884"",""0.930""]","[1,0,1,1]",0,16,16,16,1,0,0,,,1,FALSE,,,,,,,,,,,,,,,,,,,,,,,,,,,,,,
,614d950731d144ef2a82902f,001,2022-04-29_03h08.59,classification_task,2021.2.3,Win32,60.01680471,614d950731d144ef2a82902f,626b377229c10585ec392f8a,626b3a6ab635dd57debdebf1,,,,,,,,,,,,,,,,,,,,,,,a,0,2.27298,"[""0.111"",""0.663"",""0.543"",""0.770""]","[1,0,1,1]",0,17,17,17,1,1,1,,,1,FALSE,,,,,,,,,,,,,,,,,,,,,,,,,,,,,,
,614d950731d144ef2a82902f,001,2022-04-29_03h08.59,classification_task,2021.2.3,Win32,60.01680471,614d950731d144ef2a82902f,626b377229c10585ec392f8a,626b3a6ab635dd57debdebf1,,,,,,,,,,,,,,,,,,,,,,,l,1,0.773405,"[""0.111"",""0.223"",""0.822"",""0.770""]","[1,1,0,1]",0,18,18,18,1,1,1,,,1,FALSE,,,,,,,,,,,,,,,,,,,,,,,,,,,,,,
,614d950731d144ef2a82902f,001,2022-04-29_03h08.59,classification_task,2021.2.3,Win32,60.01680471,614d950731d144ef2a82902f,626b377229c10585ec392f8a,626b3a6ab635dd57debdebf1,,,,,,,,,,,,,,,,,,,,,,,a,0,1.018225,"[""0.036"",""0.151"",""0.639"",""0.700""]","[1,1,0,1]",0,19,19,19,1,1,0,,,1,FALSE,,,,,,,,,,,,,,,,,,,,,,,,,,,,,,
,614d950731d144ef2a82902f,001,2022-04-29_03h08.59,classification_task,2021.2.3,Win32,60.01680471,614d950731d144ef2a82902f,626b377229c10585ec392f8a,626b3a6ab635dd57debdebf1,,,,,,,,,,,,,,,,,,,,,,,l,0,0.80608,"[""0.293"",""0.387"",""0.641"",""0.930""]","[1,1,0,1]",0,20,20,20,1,0,0,,,1,FALSE,,,,,,,,,,,,,,,,,,,,,,,,,,,,,,
,614d950731d144ef2a82902f,001,2022-04-29_03h08.59,classification_task,2021.2.3,Win32,60.01680471,614d950731d144ef2a82902f,626b377229c10585ec392f8a,626b3a6ab635dd57debdebf1,,,,,,,,,,,,,,,,,,,,,,,a,0,0.5667,"[""0.036"",""0.151"",""0.445"",""0.663""]","[1,1,1,0]",0,21,21,21,1,1,0,,,1,FALSE,,,,,,,,,,,,,,,,,,,,,,,,,,,,,,
,614d950731d144ef2a82902f,001,2022-04-29_03h08.59,classification_task,2021.2.3,Win32,60.01680471,614d950731d144ef2a82902f,626b377229c10585ec392f8a,626b3a6ab635dd57debdebf1,,,,,,,,,,,,,,,,,,,,,,,a,1,1.107095,"[""0.822"",""0.481"",""0.596"",""0.972""]","[0,1,1,1]",0,22,22,22,1,0,1,,,1,FALSE,,,,,,,,,,,,,,,,,,,,,,,,,,,,,,
,614d950731d144ef2a82902f,001,2022-04-29_03h08.59,classification_task,2021.2.3,Win32,60.01680471,614d950731d144ef2a82902f,626b377229c10585ec392f8a,626b3a6ab635dd57debdebf1,,,,,,,,,,,,,,,,,,,,,,,a,1,0.928755,"[""0.293"",""0.387"",""0.884"",""0.822""]","[1,1,1,0]",0,23,23,23,1,0,0,,,1,FALSE,,,,,,,,,,,,,,,,,,,,,,,,,,,,,,
,614d950731d144ef2a82902f,001,2022-04-29_03h08.59,classification_task,2021.2.3,Win32,60.01680471,614d950731d144ef2a82902f,626b377229c10585ec392f8a,626b3a6ab635dd57debdebf1,,,,,,,,,,,,,,,,,,,,,,,l,1,0.735425,"[""0.036"",""0.666"",""0.445"",""0.700""]","[1,0,1,1]",0,24,24,24,1,1,0,,,1,FALSE,,,,,,,,,,,,,,,,,,,,,,,,,,,,,,
,614d950731d144ef2a82902f,001,2022-04-29_03h08.59,classification_task,2021.2.3,Win32,60.01680471,614d950731d144ef2a82902f,626b377229c10585ec392f8a,626b3a6ab635dd57debdebf1,,,,,,,,,,,,,,,,,,,,,,,l,0,0.851425,"[""0.188"",""0.481"",""0.843"",""0.972""]","[1,1,0,1]",0,25,25,25,1,0,1,,,1,FALSE,,,,,,,,,,,,,,,,,,,,,,,,,,,,,,
,614d950731d144ef2a82902f,001,2022-04-29_03h08.59,classification_task,2021.2.3,Win32,60.01680471,614d950731d144ef2a82902f,626b377229c10585ec392f8a,626b3a6ab635dd57debdebf1,,,,,,,,,,,,,,,,,,,,,,,l,0,0.927825,"[""0.814"",""0.387"",""0.884"",""0.930""]","[0,1,1,1]",0,26,26,26,1,0,0,,,1,FALSE,,,,,,,,,,,,,,,,,,,,,,,,,,,,,,
,614d950731d144ef2a82902f,001,2022-04-29_03h08.59,classification_task,2021.2.3,Win32,60.01680471,614d950731d144ef2a82902f,626b377229c10585ec392f8a,626b3a6ab635dd57debdebf1,,,,,,,,,,,,,,,,,,,,,,,a,0,0.890315,"[""0.111"",""0.223"",""0.543"",""0.657""]","[1,1,1,0]",0,27,27,27,1,1,1,,,1,FALSE,,,,,,,,,,,,,,,,,,,,,,,,,,,,,,
,614d950731d144ef2a82902f,001,2022-04-29_03h08.59,classification_task,2021.2.3,Win32,60.01680471,614d950731d144ef2a82902f,626b377229c10585ec392f8a,626b3a6ab635dd57debdebf1,,,,,,,,,,,,,,,,,,,,,,,a,1,0.693165,"[""0.188"",""0.832"",""0.596"",""0.972""]","[1,0,1,1]",0,28,28,28,1,0,1,,,1,FALSE,,,,,,,,,,,,,,,,,,,,,,,,,,,,,,
,614d950731d144ef2a82902f,001,2022-04-29_03h08.59,classification_task,2021.2.3,Win32,60.01680471,614d950731d144ef2a82902f,626b377229c10585ec392f8a,626b3a6ab635dd57debdebf1,,,,,,,,,,,,,,,,,,,,,,,l,1,0.94592,"[""0.832"",""0.223"",""0.543"",""0.770""]","[0,1,1,1]",0,29,29,29,1,1,1,,,1,FALSE,,,,,,,,,,,,,,,,,,,,,,,,,,,,,,
,614d950731d144ef2a82902f,001,2022-04-29_03h08.59,classification_task,2021.2.3,Win32,60.01680471,614d950731d144ef2a82902f,626b377229c10585ec392f8a,626b3a6ab635dd57debdebf1,,,,,,,,,,,,,,,,,,,,,,,a,0,0.725405,"[""0.836"",""0.151"",""0.445"",""0.700""]","[0,1,1,1]",0,30,30,30,1,1,0,,,1,FALSE,,,,,,,,,,,,,,,,,,,,,,,,,,,,,,
,614d950731d144ef2a82902f,001,2022-04-29_03h08.59,classification_task,2021.2.3,Win32,60.01680471,614d950731d144ef2a82902f,626b377229c10585ec392f8a,626b3a6ab635dd57debdebf1,,,,,,,,,,,,,,,,,,,,,,,a,1,1.068935,"[""0.188"",""0.481"",""0.596"",""0.836""]","[1,1,1,0]",0,31,31,31,1,0,1,,,1,FALSE,,,,,,,,,,,,,,,,,,,,,,,,,,,,,,
,614d950731d144ef2a82902f,001,2022-04-29_03h08.59,classification_task,2021.2.3,Win32,60.01680471,614d950731d144ef2a82902f,626b377229c10585ec392f8a,626b3a6ab635dd57debdebf1,,,,,,,,,,,,,,,,,,,,,,,l,0,0.61508,"[""0.293"",""0.654"",""0.884"",""0.930""]","[1,0,1,1]",0,32,32,32,1,0,0,,,1,FALSE,,,,,,,,,,,,,,,,,,,,,,,,,,,,,,
,614d950731d144ef2a82902f,001,2022-04-29_03h08.59,classification_task,2021.2.3,Win32,60.01680471,614d950731d144ef2a82902f,626b377229c10585ec392f8a,626b3a6ab635dd57debdebf1,,,,,,,,,,,,,,,,,,,,,,,a,1,0.55766,"[""0.188"",""0.481"",""0.843"",""0.972""]","[1,1,0,1]",0,33,33,33,1,0,1,,,1,FALSE,,,,,,,,,,,,,,,,,,,,,,,,,,,,,,
,614d950731d144ef2a82902f,001,2022-04-29_03h08.59,classification_task,2021.2.3,Win32,60.01680471,614d950731d144ef2a82902f,626b377229c10585ec392f8a,626b3a6ab635dd57debdebf1,,,,,,,,,,,,,,,,,,,,,,,a,1,0.64814,"[""0.293"",""0.387"",""0.654"",""0.930""]","[1,1,0,1]",0,34,34,34,1,0,0,,,1,FALSE,,,,,,,,,,,,,,,,,,,,,,,,,,,,,,
,614d950731d144ef2a82902f,001,2022-04-29_03h08.59,classification_task,2021.2.3,Win32,60.01680471,614d950731d144ef2a82902f,626b377229c10585ec392f8a,626b3a6ab635dd57debdebf1,,,,,,,,,,,,,,,,,,,,,,,l,1,1.26593,"[""0.036"",""0.814"",""0.445"",""0.700""]","[1,0,1,1]",0,35,35,35,1,1,0,,,1,FALSE,,,,,,,,,,,,,,,,,,,,,,,,,,,,,,
,614d950731d144ef2a82902f,001,2022-04-29_03h08.59,classification_task,2021.2.3,Win32,60.01680471,614d950731d144ef2a82902f,626b377229c10585ec392f8a,626b3a6ab635dd57debdebf1,,,,,,,,,,,,,,,,,,,,,,,a,0,0.977745,"[""0.036"",""0.151"",""0.843"",""0.700""]","[1,1,0,1]",0,36,36,36,1,1,0,,,1,FALSE,,,,,,,,,,,,,,,,,,,,,,,,,,,,,,
,614d950731d144ef2a82902f,001,2022-04-29_03h08.59,classification_task,2021.2.3,Win32,60.01680471,614d950731d144ef2a82902f,626b377229c10585ec392f8a,626b3a6ab635dd57debdebf1,,,,,,,,,,,,,,,,,,,,,,,a,0,1.10904,"[""0.111"",""0.223"",""0.543"",""0.822""]","[1,1,1,0]",0,37,37,37,1,1,1,,,1,FALSE,,,,,,,,,,,,,,,,,,,,,,,,,,,,,,
,614d950731d144ef2a82902f,001,2022-04-29_03h08.59,classification_task,2021.2.3,Win32,60.01680471,614d950731d144ef2a82902f,626b377229c10585ec392f8a,626b3a6ab635dd57debdebf1,,,,,,,,,,,,,,,,,,,,,,,l,1,0.556375,"[""0.111"",""0.639"",""0.543"",""0.770""]","[1,0,1,1]",0,38,38,38,1,1,1,,,1,FALSE,,,,,,,,,,,,,,,,,,,,,,,,,,,,,,
,614d950731d144ef2a82902f,001,2022-04-29_03h08.59,classification_task,2021.2.3,Win32,60.01680471,614d950731d144ef2a82902f,626b377229c10585ec392f8a,626b3a6ab635dd57debdebf1,,,,,,,,,,,,,,,,,,,,,,,l,1,1.182725,"[""0.643"",""0.223"",""0.543"",""0.770""]","[0,1,1,1]",0,39,39,39,1,1,1,,,1,FALSE,,,,,,,,,,,,,,,,,,,,,,,,,,,,,,
,614d950731d144ef2a82902f,001,2022-04-29_03h08.59,classification_task,2021.2.3,Win32,60.01680471,614d950731d144ef2a82902f,626b377229c10585ec392f8a,626b3a6ab635dd57debdebf1,,,,,,,,,,,,,,,,,,,,,,,a,1,1.149165,"[""0.188"",""0.481"",""0.596"",""0.639""]","[1,1,1,0]",0,40,40,40,1,0,1,,,1,FALSE,,,,,,,,,,,,,,,,,,,,,,,,,,,,,,
,614d950731d144ef2a82902f,001,2022-04-29_03h08.59,classification_task,2021.2.3,Win32,60.01680471,614d950731d144ef2a82902f,626b377229c10585ec392f8a,626b3a6ab635dd57debdebf1,,,,,,,,,,,,,,,,,,,,,,,a,1,0.989855,"[""0.188"",""0.822"",""0.596"",""0.972""]","[1,0,1,1]",0,41,41,41,1,0,1,,,1,FALSE,,,,,,,,,,,,,,,,,,,,,,,,,,,,,,
,614d950731d144ef2a82902f,001,2022-04-29_03h08.59,classification_task,2021.2.3,Win32,60.01680471,614d950731d144ef2a82902f,626b377229c10585ec392f8a,626b3a6ab635dd57debdebf1,,,,,,,,,,,,,,,,,,,,,,,l,0,0.979805,"[""0.293"",""0.387"",""0.884"",""0.814""]","[1,1,1,0]",0,42,42,42,1,0,0,,,1,FALSE,,,,,,,,,,,,,,,,,,,,,,,,,,,,,,
,614d950731d144ef2a82902f,001,2022-04-29_03h08.59,classification_task,2021.2.3,Win32,60.01680471,614d950731d144ef2a82902f,626b377229c10585ec392f8a,626b3a6ab635dd57debdebf1,,,,,,,,,,,,,,,,,,,,,,,a,1,0.775375,"[""0.654"",""0.387"",""0.884"",""0.930""]","[0,1,1,1]",0,43,43,43,1,0,0,,,1,FALSE,,,,,,,,,,,,,,,,,,,,,,,,,,,,,,
,614d950731d144ef2a82902f,001,2022-04-29_03h08.59,classification_task,2021.2.3,Win32,60.01680471,614d950731d144ef2a82902f,626b377229c10585ec392f8a,626b3a6ab635dd57debdebf1,,,,,,,,,,,,,,,,,,,,,,,l,1,1.353625,"[""0.111"",""0.223"",""0.654"",""0.770""]","[1,1,0,1]",0,44,44,44,1,1,1,,,1,FALSE,,,,,,,,,,,,,,,,,,,,,,,,,,,,,,
,614d950731d144ef2a82902f,001,2022-04-29_03h08.59,classification_task,2021.2.3,Win32,60.01680471,614d950731d144ef2a82902f,626b377229c10585ec392f8a,626b3a6ab635dd57debdebf1,,,,,,,,,,,,,,,,,,,,,,,a,1,1.1099,"[""0.641"",""0.481"",""0.596"",""0.972""]","[0,1,1,1]",0,45,45,45,1,0,1,,,1,FALSE,,,,,,,,,,,,,,,,,,,,,,,,,,,,,,
,614d950731d144ef2a82902f,001,2022-04-29_03h08.59,classification_task,2021.2.3,Win32,60.01680471,614d950731d144ef2a82902f,626b377229c10585ec392f8a,626b3a6ab635dd57debdebf1,,,,,,,,,,,,,,,,,,,,,,,l,1,1.09634,"[""0.832"",""0.151"",""0.445"",""0.700""]","[0,1,1,1]",0,46,46,46,1,1,0,,,1,FALSE,,,,,,,,,,,,,,,,,,,,,,,,,,,,,,
,614d950731d144ef2a82902f,001,2022-04-29_03h08.59,classification_task,2021.2.3,Win32,60.01680471,614d950731d144ef2a82902f,626b377229c10585ec392f8a,626b3a6ab635dd57debdebf1,,,,,,,,,,,,,,,,,,,,,,,a,0,0.94647,"[""0.036"",""0.151"",""0.445"",""0.650""]","[1,1,1,0]",0,47,47,47,1,1,0,,,1,FALSE,,,,,,,,,,,,,,,,,,,,,,,,,,,,,,
,614d950731d144ef2a82902f,001,2022-04-29_03h08.59,classification_task,2021.2.3,Win32,60.01680471,614d950731d144ef2a82902f,626b377229c10585ec392f8a,626b3a6ab635dd57debdebf1,,,,,,,,,,,,,,,,,,,,,,,l,1,0.596145,"[""0.036"",""0.151"",""0.445"",""0.644""]","[1,1,1,0]",0,48,48,48,1,1,0,,,1,FALSE,,,,,,,,,,,,,,,,,,,,,,,,,,,,,,
,614d950731d144ef2a82902f,001,2022-04-29_03h08.59,classification_task,2021.2.3,Win32,60.01680471,614d950731d144ef2a82902f,626b377229c10585ec392f8a,626b3a6ab635dd57debdebf1,,,,,,,,,,,,,,,,,,,,,,,a,0,0.97796,"[""0.111"",""0.822"",""0.543"",""0.770""]","[1,0,1,1]",0,49,49,49,1,1,1,,,1,FALSE,,,,,,,,,,,,,,,,,,,,,,,,,,,,,,
,614d950731d144ef2a82902f,001,2022-04-29_03h08.59,classification_task,2021.2.3,Win32,60.01680471,614d950731d144ef2a82902f,626b377229c10585ec392f8a,626b3a6ab635dd57debdebf1,,,,,,,,,,,,,,,,,,,,,,,l,1,0.47904,"[""0.111"",""0.223"",""0.822"",""0.770""]","[1,1,0,1]",0,50,50,50,1,1,1,,,1,FALSE,,,,,,,,,,,,,,,,,,,,,,,,,,,,,,
,614d950731d144ef2a82902f,001,2022-04-29_03h08.59,classification_task,2021.2.3,Win32,60.01680471,614d950731d144ef2a82902f,626b377229c10585ec392f8a,626b3a6ab635dd57debdebf1,,,,,,,,,,,,,,,,,,,,,,,a,0,0.979045,"[""0.111"",""0.223"",""0.543"",""0.663""]","[1,1,1,0]",0,51,51,51,1,1,1,,,1,FALSE,,,,,,,,,,,,,,,,,,,,,,,,,,,,,,
,614d950731d144ef2a82902f,001,2022-04-29_03h08.59,classification_task,2021.2.3,Win32,60.01680471,614d950731d144ef2a82902f,626b377229c10585ec392f8a,626b3a6ab635dd57debdebf1,,,,,,,,,,,,,,,,,,,,,,,l,0,0.568505,"[""0.188"",""0.481"",""0.596"",""0.650""]","[1,1,1,0]",0,52,52,52,1,0,1,,,1,FALSE,,,,,,,,,,,,,,,,,,,,,,,,,,,,,,
,614d950731d144ef2a82902f,001,2022-04-29_03h08.59,classification_task,2021.2.3,Win32,60.01680471,614d950731d144ef2a82902f,626b377229c10585ec392f8a,626b3a6ab635dd57debdebf1,,,,,,,,,,,,,,,,,,,,,,,l,0,0.766235,"[""0.293"",""0.657"",""0.884"",""0.930""]","[1,0,1,1]",0,53,53,53,1,0,0,,,1,FALSE,,,,,,,,,,,,,,,,,,,,,,,,,,,,,,
,614d950731d144ef2a82902f,001,2022-04-29_03h08.59,classification_task,2021.2.3,Win32,60.01680471,614d950731d144ef2a82902f,626b377229c10585ec392f8a,626b3a6ab635dd57debdebf1,,,,,,,,,,,,,,,,,,,,,,,a,1,0.46543,"[""0.188"",""0.639"",""0.596"",""0.972""]","[1,0,1,1]",0,54,54,54,1,0,1,,,1,FALSE,,,,,,,,,,,,,,,,,,,,,,,,,,,,,,
,614d950731d144ef2a82902f,001,2022-04-29_03h08.59,classification_task,2021.2.3,Win32,60.01680471,614d950731d144ef2a82902f,626b377229c10585ec392f8a,626b3a6ab635dd57debdebf1,,,,,,,,,,,,,,,,,,,,,,,l,1,0.812345,"[""0.822"",""0.223"",""0.543"",""0.770""]","[0,1,1,1]",0,55,55,55,1,1,1,,,1,FALSE,,,,,,,,,,,,,,,,,,,,,,,,,,,,,,
,614d950731d144ef2a82902f,001,2022-04-29_03h08.59,classification_task,2021.2.3,Win32,60.01680471,614d950731d144ef2a82902f,626b377229c10585ec392f8a,626b3a6ab635dd57debdebf1,,,,,,,,,,,,,,,,,,,,,,,a,1,0.94441,"[""0.293"",""0.387"",""0.639"",""0.930""]","[1,1,0,1]",0,56,56,56,1,0,0,,,1,FALSE,,,,,,,,,,,,,,,,,,,,,,,,,,,,,,
,614d950731d144ef2a82902f,001,2022-04-29_03h08.59,classification_task,2021.2.3,Win32,60.01680471,614d950731d144ef2a82902f,626b377229c10585ec392f8a,626b3a6ab635dd57debdebf1,,,,,,,,,,,,,,,,,,,,,,,l,0,0.694975,"[""0.639"",""0.387"",""0.884"",""0.930""]","[0,1,1,1]",0,57,57,57,1,0,0,,,1,FALSE,,,,,,,,,,,,,,,,,,,,,,,,,,,,,,
,614d950731d144ef2a82902f,001,2022-04-29_03h08.59,classification_task,2021.2.3,Win32,60.01680471,614d950731d144ef2a82902f,626b377229c10585ec392f8a,626b3a6ab635dd57debdebf1,,,,,,,,,,,,,,,,,,,,,,,a,0,0.64058,"[""0.036"",""0.151"",""0.639"",""0.700""]","[1,1,0,1]",0,58,58,58,1,1,0,,,1,FALSE,,,,,,,,,,,,,,,,,,,,,,,,,,,,,,
,614d950731d144ef2a82902f,001,2022-04-29_03h08.59,classification_task,2021.2.3,Win32,60.01680471,614d950731d144ef2a82902f,626b377229c10585ec392f8a,626b3a6ab635dd57debdebf1,,,,,,,,,,,,,,,,,,,,,,,l,0,0.6949,"[""0.657"",""0.481"",""0.596"",""0.972""]","[0,1,1,1]",0,59,59,59,1,0,1,,,1,FALSE,,,,,,,,,,,,,,,,,,,,,,,,,,,,,,
,614d950731d144ef2a82902f,001,2022-04-29_03h08.59,classification_task,2021.2.3,Win32,60.01680471,614d950731d144ef2a82902f,626b377229c10585ec392f8a,626b3a6ab635dd57debdebf1,,,,,,,,,,,,,,,,,,,,,,,a,0,0.78036,"[""0.036"",""0.639"",""0.445"",""0.700""]","[1,0,1,1]",0,60,60,60,1,1,0,,,1,FALSE,,,,,,,,,,,,,,,,,,,,,,,,,,,,,,
,614d950731d144ef2a82902f,001,2022-04-29_03h08.59,classification_task,2021.2.3,Win32,60.01680471,614d950731d144ef2a82902f,626b377229c10585ec392f8a,626b3a6ab635dd57debdebf1,,,,,,,,,,,,,,,,,,,,,,,l,0,0.47475,"[""0.293"",""0.387"",""0.884"",""0.832""]","[1,1,1,0]",0,61,61,61,1,0,0,,,1,FALSE,,,,,,,,,,,,,,,,,,,,,,,,,,,,,,
,614d950731d144ef2a82902f,001,2022-04-29_03h08.59,classification_task,2021.2.3,Win32,60.01680471,614d950731d144ef2a82902f,626b377229c10585ec392f8a,626b3a6ab635dd57debdebf1,,,,,,,,,,,,,,,,,,,,,,,l,0,0.578345,"[""0.188"",""0.481"",""0.639"",""0.972""]","[1,1,0,1]",0,62,62,62,1,0,1,,,1,FALSE,,,,,,,,,,,,,,,,,,,,,,,,,,,,,,
,614d950731d144ef2a82902f,001,2022-04-29_03h08.59,classification_task,2021.2.3,Win32,60.01680471,614d950731d144ef2a82902f,626b377229c10585ec392f8a,626b3a6ab635dd57debdebf1,,,,,,,,,,,,,,,,,,,,,,,l,1,0.50755,"[""0.639"",""0.151"",""0.445"",""0.700""]","[0,1,1,1]",0,63,63,63,1,1,0,,,1,FALSE,,,,,,,,,,,,,,,,,,,,,,,,,,,,,,
,614d950731d144ef2a82902f,001,2022-04-29_03h08.59,classification_task,2021.2.3,Win32,60.01680471,614d950731d144ef2a82902f,626b377229c10585ec392f8a,626b3a6ab635dd57debdebf1,,,,,,,,,,,,,,,,,,,,,,,,,,,,,,,,,,,,,,,0, ,,0,2.898754409,142.591465,0,1,1,1,1,2,2,,,,,,,,,,,,,,,,,
,614d950731d144ef2a82902f,001,2022-04-29_03h08.59,classification_task,2021.2.3,Win32,60.01680471,614d950731d144ef2a82902f,626b377229c10585ec392f8a,626b3a6ab635dd57debdebf1,,,,,,,,,,,,,,,,,,,,,,,,,,,,,,,,,,,,,,,1,  ,,0,9.340277778,145.307255,0,1,1,1,1,2,2,,,,,,,,,,,,,,,,,
,614d950731d144ef2a82902f,001,2022-04-29_03h08.59,classification_task,2021.2.3,Win32,60.01680471,614d950731d144ef2a82902f,626b377229c10585ec392f8a,626b3a6ab635dd57debdebf1,,,,,,,,,,,,,,,,,,,,,,,,,,,,,,,,,,,,,,,2,  ,,0,9.064704586,147.360045,0,1,1,1,1,2,2,,,,,,,,,,,,,,,,,
,614d950731d144ef2a82902f,001,2022-04-29_03h08.59,classification_task,2021.2.3,Win32,60.01680471,614d950731d144ef2a82902f,626b377229c10585ec392f8a,626b3a6ab635dd57debdebf1,,,,,,,,,,,,,,,,,,,,,,,,,,,,,,,,,,,,,,,,,,,,,0,1,1,1,1,,2,,,,,,,,,,,,,,,,,
,614d950731d144ef2a82902f,001,2022-04-29_03h08.59,classification_task,2021.2.3,Win32,60.01680471,614d950731d144ef2a82902f,626b377229c10585ec392f8a,626b3a6ab635dd57debdebf1,,,,,,,,,,,,,,,,,,,,,space,1.470855,a,1,2.301045,"[""0.644"",""0.387"",""0.884"",""0.930""]","[0,1,1,1]",0,0,0,0,1,0,0,,,1,FALSE,,,,,,,,,,,,,,,,,,,,,,,,,,,,,,
,614d950731d144ef2a82902f,001,2022-04-29_03h08.59,classification_task,2021.2.3,Win32,60.01680471,614d950731d144ef2a82902f,626b377229c10585ec392f8a,626b3a6ab635dd57debdebf1,,,,,,,,,,,,,,,,,,,,,,,a,0,1.7571,"[""0.036"",""0.151"",""0.654"",""0.700""]","[1,1,0,1]",0,1,1,1,1,1,0,,,1,FALSE,,,,,,,,,,,,,,,,,,,,,,,,,,,,,,
,614d950731d144ef2a82902f,001,2022-04-29_03h08.59,classification_task,2021.2.3,Win32,60.01680471,614d950731d144ef2a82902f,626b377229c10585ec392f8a,626b3a6ab635dd57debdebf1,,,,,,,,,,,,,,,,,,,,,,,l,1,1.459775,"[""0.111"",""0.223"",""0.639"",""0.770""]","[1,1,0,1]",0,2,2,2,1,1,1,,,1,FALSE,,,,,,,,,,,,,,,,,,,,,,,,,,,,,,
,614d950731d144ef2a82902f,001,2022-04-29_03h08.59,classification_task,2021.2.3,Win32,60.01680471,614d950731d144ef2a82902f,626b377229c10585ec392f8a,626b3a6ab635dd57debdebf1,,,,,,,,,,,,,,,,,,,,,,,a,0,0.97233,"[""0.111"",""0.223"",""0.543"",""0.639""]","[1,1,1,0]",0,3,3,3,1,1,1,,,1,FALSE,,,,,,,,,,,,,,,,,,,,,,,,,,,,,,
,614d950731d144ef2a82902f,001,2022-04-29_03h08.59,classification_task,2021.2.3,Win32,60.01680471,614d950731d144ef2a82902f,626b377229c10585ec392f8a,626b3a6ab635dd57debdebf1,,,,,,,,,,,,,,,,,,,,,,,l,1,2.04011,"[""0.822"",""0.151"",""0.445"",""0.700""]","[0,1,1,1]",0,4,4,4,1,1,0,,,1,FALSE,,,,,,,,,,,,,,,,,,,,,,,,,,,,,,
,614d950731d144ef2a82902f,001,2022-04-29_03h08.59,classification_task,2021.2.3,Win32,60.01680471,614d950731d144ef2a82902f,626b377229c10585ec392f8a,626b3a6ab635dd57debdebf1,,,,,,,,,,,,,,,,,,,,,,,l,1,1.46626,"[""0.036"",""0.151"",""0.445"",""0.663""]","[1,1,1,0]",0,5,5,5,1,1,0,,,1,FALSE,,,,,,,,,,,,,,,,,,,,,,,,,,,,,,
,614d950731d144ef2a82902f,001,2022-04-29_03h08.59,classification_task,2021.2.3,Win32,60.01680471,614d950731d144ef2a82902f,626b377229c10585ec392f8a,626b3a6ab635dd57debdebf1,,,,,,,,,,,,,,,,,,,,,,,a,1,1.511845,"[""0.293"",""0.843"",""0.884"",""0.930""]","[1,0,1,1]",0,6,6,6,1,0,0,,,1,FALSE,,,,,,,,,,,,,,,,,,,,,,,,,,,,,,
,614d950731d144ef2a82902f,001,2022-04-29_03h08.59,classification_task,2021.2.3,Win32,60.01680471,614d950731d144ef2a82902f,626b377229c10585ec392f8a,626b3a6ab635dd57debdebf1,,,,,,,,,,,,,,,,,,,,,,,l,0,1.81173,"[""0.293"",""0.387"",""0.657"",""0.930""]","[1,1,0,1]",0,7,7,7,1,0,0,,,1,FALSE,,,,,,,,,,,,,,,,,,,,,,,,,,,,,,
,614d950731d144ef2a82902f,001,2022-04-29_03h08.59,classification_task,2021.2.3,Win32,60.01680471,614d950731d144ef2a82902f,626b377229c10585ec392f8a,626b3a6ab635dd57debdebf1,,,,,,,,,,,,,,,,,,,,,,,a,1,1.145855,"[""0.811"",""0.481"",""0.596"",""0.972""]","[0,1,1,1]",0,8,8,8,1,0,1,,,1,FALSE,,,,,,,,,,,,,,,,,,,,,,,,,,,,,,
,614d950731d144ef2a82902f,001,2022-04-29_03h08.59,classification_task,2021.2.3,Win32,60.01680471,614d950731d144ef2a82902f,626b377229c10585ec392f8a,626b3a6ab635dd57debdebf1,,,,,,,,,,,,,,,,,,,,,,,a,1,1.053035,"[""0.188"",""0.481"",""0.822"",""0.972""]","[1,1,0,1]",0,9,9,9,1,0,1,,,1,FALSE,,,,,,,,,,,,,,,,,,,,,,,,,,,,,,
,614d950731d144ef2a82902f,001,2022-04-29_03h08.59,classification_task,2021.2.3,Win32,60.01680471,614d950731d144ef2a82902f,626b377229c10585ec392f8a,626b3a6ab635dd57debdebf1,,,,,,,,,,,,,,,,,,,,,,,l,1,1.30959,"[""0.036"",""0.650"",""0.445"",""0.700""]","[1,0,1,1]",0,10,10,10,1,1,0,,,1,FALSE,,,,,,,,,,,,,,,,,,,,,,,,,,,,,,
,614d950731d144ef2a82902f,001,2022-04-29_03h08.59,classification_task,2021.2.3,Win32,60.01680471,614d950731d144ef2a82902f,626b377229c10585ec392f8a,626b3a6ab635dd57debdebf1,,,,,,,,,,,,,,,,,,,,,,,l,1,1.04983,"[""0.836"",""0.223"",""0.543"",""0.770""]","[0,1,1,1]",0,11,11,11,1,1,1,,,1,FALSE,,,,,,,,,,,,,,,,,,,,,,,,,,,,,,
,614d950731d144ef2a82902f,001,2022-04-29_03h08.59,classification_task,2021.2.3,Win32,60.01680471,614d950731d144ef2a82902f,626b377229c10585ec392f8a,626b3a6ab635dd57debdebf1,,,,,,,,,,,,,,,,,,,,,,,l,0,0.739615,"[""0.188"",""0.663"",""0.596"",""0.972""]","[1,0,1,1]",0,12,12,12,1,0,1,,,1,FALSE,,,,,,,,,,,,,,,,,,,,,,,,,,,,,,
,614d950731d144ef2a82902f,001,2022-04-29_03h08.59,classification_task,2021.2.3,Win32,60.01680471,614d950731d144ef2a82902f,626b377229c10585ec392f8a,626b3a6ab635dd57debdebf1,,,,,,,,,,,,,,,,,,,,,,,a,0,0.556035,"[""0.111"",""0.666"",""0.543"",""0.770""]","[1,0,1,1]",0,13,13,13,1,1,1,,,1,FALSE,,,,,,,,,,,,,,,,,,,,,,,,,,,,,,
,614d950731d144ef2a82902f,001,2022-04-29_03h08.59,classification_task,2021.2.3,Win32,60.01680471,614d950731d144ef2a82902f,626b377229c10585ec392f8a,626b3a6ab635dd57debdebf1,,,,,,,,,,,,,,,,,,,,,,,a,1,0.520445,"[""0.188"",""0.481"",""0.596"",""0.641""]","[1,1,1,0]",0,14,14,14,1,0,1,,,1,FALSE,,,,,,,,,,,,,,,,,,,,,,,,,,,,,,
,614d950731d144ef2a82902f,001,2022-04-29_03h08.59,classification_task,2021.2.3,Win32,60.01680471,614d950731d144ef2a82902f,626b377229c10585ec392f8a,626b3a6ab635dd57debdebf1,,,,,,,,,,,,,,,,,,,,,,,a,1,0.96499,"[""0.293"",""0.387"",""0.884"",""0.822""]","[1,1,1,0]",0,15,15,15,1,0,0,,,1,FALSE,,,,,,,,,,,,,,,,,,,,,,,,,,,,,,
,614d950731d144ef2a82902f,001,2022-04-29_03h08.59,classification_task,2021.2.3,Win32,60.01680471,614d950731d144ef2a82902f,626b377229c10585ec392f8a,626b3a6ab635dd57debdebf1,,,,,,,,,,,,,,,,,,,,,,,a,0,0.809795,"[""0.111"",""0.223"",""0.644"",""0.770""]","[1,1,0,1]",0,16,16,16,1,1,1,,,1,FALSE,,,,,,,,,,,,,,,,,,,,,,,,,,,,,,
,614d950731d144ef2a82902f,001,2022-04-29_03h08.59,classification_task,2021.2.3,Win32,60.01680471,614d950731d144ef2a82902f,626b377229c10585ec392f8a,626b3a6ab635dd57debdebf1,,,,,,,,,,,,,,,,,,,,,,,l,0,0.933385,"[""0.188"",""0.663"",""0.596"",""0.972""]","[1,0,1,1]",0,17,17,17,1,0,1,,,1,FALSE,,,,,,,,,,,,,,,,,,,,,,,,,,,,,,
,614d950731d144ef2a82902f,001,2022-04-29_03h08.59,classification_task,2021.2.3,Win32,60.01680471,614d950731d144ef2a82902f,626b377229c10585ec392f8a,626b3a6ab635dd57debdebf1,,,,,,,,,,,,,,,,,,,,,,,l,0,1.217635,"[""0.822"",""0.387"",""0.884"",""0.930""]","[0,1,1,1]",0,18,18,18,1,0,0,,,1,FALSE,,,,,,,,,,,,,,,,,,,,,,,,,,,,,,
,614d950731d144ef2a82902f,001,2022-04-29_03h08.59,classification_task,2021.2.3,Win32,60.01680471,614d950731d144ef2a82902f,626b377229c10585ec392f8a,626b3a6ab635dd57debdebf1,,,,,,,,,,,,,,,,,,,,,,,a,1,0.84404,"[""0.293"",""0.387"",""0.884"",""0.836""]","[1,1,1,0]",0,19,19,19,1,0,0,,,1,FALSE,,,,,,,,,,,,,,,,,,,,,,,,,,,,,,
,614d950731d144ef2a82902f,001,2022-04-29_03h08.59,classification_task,2021.2.3,Win32,60.01680471,614d950731d144ef2a82902f,626b377229c10585ec392f8a,626b3a6ab635dd57debdebf1,,,,,,,,,,,,,,,,,,,,,,,l,1,0.591125,"[""0.036"",""0.822"",""0.445"",""0.700""]","[1,0,1,1]",0,20,20,20,1,1,0,,,1,FALSE,,,,,,,,,,,,,,,,,,,,,,,,,,,,,,
,614d950731d144ef2a82902f,001,2022-04-29_03h08.59,classification_task,2021.2.3,Win32,60.01680471,614d950731d144ef2a82902f,626b377229c10585ec392f8a,626b3a6ab635dd57debdebf1,,,,,,,,,,,,,,,,,,,,,,,l,0,1.388995,"[""0.293"",""0.387"",""0.641"",""0.930""]","[1,1,0,1]",0,21,21,21,1,0,0,,,1,FALSE,,,,,,,,,,,,,,,,,,,,,,,,,,,,,,
,614d950731d144ef2a82902f,001,2022-04-29_03h08.59,classification_task,2021.2.3,Win32,60.01680471,614d950731d144ef2a82902f,626b377229c10585ec392f8a,626b3a6ab635dd57debdebf1,,,,,,,,,,,,,,,,,,,,,,,a,0,0.845235,"[""0.036"",""0.151"",""0.663"",""0.700""]","[1,1,0,1]",0,22,22,22,1,1,0,,,1,FALSE,,,,,,,,,,,,,,,,,,,,,,,,,,,,,,
,614d950731d144ef2a82902f,001,2022-04-29_03h08.59,classification_task,2021.2.3,Win32,60.01680471,614d950731d144ef2a82902f,626b377229c10585ec392f8a,626b3a6ab635dd57debdebf1,,,,,,,,,,,,,,,,,,,,,,,a,0,0.929225,"[""0.036"",""0.151"",""0.445"",""0.641""]","[1,1,1,0]",0,23,23,23,1,1,0,,,1,FALSE,,,,,,,,,,,,,,,,,,,,,,,,,,,,,,
,614d950731d144ef2a82902f,001,2022-04-29_03h08.59,classification_task,2021.2.3,Win32,60.01680471,614d950731d144ef2a82902f,626b377229c10585ec392f8a,626b3a6ab635dd57debdebf1,,,,,,,,,,,,,,,,,,,,,,,l,0,0.884805,"[""0.293"",""0.843"",""0.884"",""0.930""]","[1,0,1,1]",0,24,24,24,1,0,0,,,1,FALSE,,,,,,,,,,,,,,,,,,,,,,,,,,,,,,
,614d950731d144ef2a82902f,001,2022-04-29_03h08.59,classification_task,2021.2.3,Win32,60.01680471,614d950731d144ef2a82902f,626b377229c10585ec392f8a,626b3a6ab635dd57debdebf1,,,,,,,,,,,,,,,,,,,,,,,l,0,0.97243,"[""0.188"",""0.481"",""0.596"",""0.836""]","[1,1,1,0]",0,25,25,25,1,0,1,,,1,FALSE,,,,,,,,,,,,,,,,,,,,,,,,,,,,,,
,614d950731d144ef2a82902f,001,2022-04-29_03h08.59,classification_task,2021.2.3,Win32,60.01680471,614d950731d144ef2a82902f,626b377229c10585ec392f8a,626b3a6ab635dd57debdebf1,,,,,,,,,,,,,,,,,,,,,,,a,0,0.632435,"[""0.641"",""0.151"",""0.445"",""0.700""]","[0,1,1,1]",0,26,26,26,1,1,0,,,1,FALSE,,,,,,,,,,,,,,,,,,,,,,,,,,,,,,
,614d950731d144ef2a82902f,001,2022-04-29_03h08.59,classification_task,2021.2.3,Win32,60.01680471,614d950731d144ef2a82902f,626b377229c10585ec392f8a,626b3a6ab635dd57debdebf1,,,,,,,,,,,,,,,,,,,,,,,a,1,0.56577,"[""0.188"",""0.481"",""0.663"",""0.972""]","[1,1,0,1]",0,27,27,27,1,0,1,,,1,FALSE,,,,,,,,,,,,,,,,,,,,,,,,,,,,,,
,614d950731d144ef2a82902f,001,2022-04-29_03h08.59,classification_task,2021.2.3,Win32,60.01680471,614d950731d144ef2a82902f,626b377229c10585ec392f8a,626b3a6ab635dd57debdebf1,,,,,,,,,,,,,,,,,,,,,,,l,1,0.470245,"[""0.111"",""0.223"",""0.543"",""0.654""]","[1,1,1,0]",0,28,28,28,1,1,1,,,1,FALSE,,,,,,,,,,,,,,,,,,,,,,,,,,,,,,
,614d950731d144ef2a82902f,001,2022-04-29_03h08.59,classification_task,2021.2.3,Win32,60.01680471,614d950731d144ef2a82902f,626b377229c10585ec392f8a,626b3a6ab635dd57debdebf1,,,,,,,,,,,,,,,,,,,,,,,l,1,0.6852,"[""0.111"",""0.644"",""0.543"",""0.770""]","[1,0,1,1]",0,29,29,29,1,1,1,,,1,FALSE,,,,,,,,,,,,,,,,,,,,,,,,,,,,,,
,614d950731d144ef2a82902f,001,2022-04-29_03h08.59,classification_task,2021.2.3,Win32,60.01680471,614d950731d144ef2a82902f,626b377229c10585ec392f8a,626b3a6ab635dd57debdebf1,,,,,,,,,,,,,,,,,,,,,,,a,0,0.679435,"[""0.832"",""0.223"",""0.543"",""0.770""]","[0,1,1,1]",0,30,30,30,1,1,1,,,1,FALSE,,,,,,,,,,,,,,,,,,,,,,,,,,,,,,
,614d950731d144ef2a82902f,001,2022-04-29_03h08.59,classification_task,2021.2.3,Win32,60.01680471,614d950731d144ef2a82902f,626b377229c10585ec392f8a,626b3a6ab635dd57debdebf1,,,,,,,,,,,,,,,,,,,,,,,l,0,0.385785,"[""0.639"",""0.481"",""0.596"",""0.972""]","[0,1,1,1]",0,31,31,31,1,0,1,,,1,FALSE,,,,,,,,,,,,,,,,,,,,,,,,,,,,,,
,614d950731d144ef2a82902f,001,2022-04-29_03h08.59,classification_task,2021.2.3,Win32,60.01680471,614d950731d144ef2a82902f,626b377229c10585ec392f8a,626b3a6ab635dd57debdebf1,,,,,,,,,,,,,,,,,,,,,,,l,0,0.478125,"[""0.188"",""0.481"",""0.596"",""0.822""]","[1,1,1,0]",0,32,32,32,1,0,1,,,1,FALSE,,,,,,,,,,,,,,,,,,,,,,,,,,,,,,
,614d950731d144ef2a82902f,001,2022-04-29_03h08.59,classification_task,2021.2.3,Win32,60.01680471,614d950731d144ef2a82902f,626b377229c10585ec392f8a,626b3a6ab635dd57debdebf1,,,,,,,,,,,,,,,,,,,,,,,l,1,0.59436,"[""0.822"",""0.223"",""0.543"",""0.770""]","[0,1,1,1]",0,33,33,33,1,1,1,,,1,FALSE,,,,,,,,,,,,,,,,,,,,,,,,,,,,,,
,614d950731d144ef2a82902f,001,2022-04-29_03h08.59,classification_task,2021.2.3,Win32,60.01680471,614d950731d144ef2a82902f,626b377229c10585ec392f8a,626b3a6ab635dd57debdebf1,,,,,,,,,,,,,,,,,,,,,,,a,1,0.404055,"[""0.293"",""0.387"",""0.884"",""0.657""]","[1,1,1,0]",0,34,34,34,1,0,0,,,1,FALSE,,,,,,,,,,,,,,,,,,,,,,,,,,,,,,
,614d950731d144ef2a82902f,001,2022-04-29_03h08.59,classification_task,2021.2.3,Win32,60.01680471,614d950731d144ef2a82902f,626b377229c10585ec392f8a,626b3a6ab635dd57debdebf1,,,,,,,,,,,,,,,,,,,,,,,l,0,0.633405,"[""0.822"",""0.481"",""0.596"",""0.972""]","[0,1,1,1]",0,35,35,35,1,0,1,,,1,FALSE,,,,,,,,,,,,,,,,,,,,,,,,,,,,,,
,614d950731d144ef2a82902f,001,2022-04-29_03h08.59,classification_task,2021.2.3,Win32,60.01680471,614d950731d144ef2a82902f,626b377229c10585ec392f8a,626b3a6ab635dd57debdebf1,,,,,,,,,,,,,,,,,,,,,,,a,1,0.480025,"[""0.188"",""0.481"",""0.643"",""0.972""]","[1,1,0,1]",0,36,36,36,1,0,1,,,1,FALSE,,,,,,,,,,,,,,,,,,,,,,,,,,,,,,
,614d950731d144ef2a82902f,001,2022-04-29_03h08.59,classification_task,2021.2.3,Win32,60.01680471,614d950731d144ef2a82902f,626b377229c10585ec392f8a,626b3a6ab635dd57debdebf1,,,,,,,,,,,,,,,,,,,,,,,a,0,0.72185,"[""0.641"",""0.151"",""0.445"",""0.700""]","[0,1,1,1]",0,37,37,37,1,1,0,,,1,FALSE,,,,,,,,,,,,,,,,,,,,,,,,,,,,,,
,614d950731d144ef2a82902f,001,2022-04-29_03h08.59,classification_task,2021.2.3,Win32,60.01680471,614d950731d144ef2a82902f,626b377229c10585ec392f8a,626b3a6ab635dd57debdebf1,,,,,,,,,,,,,,,,,,,,,,,a,1,0.73077,"[""0.293"",""0.811"",""0.884"",""0.930""]","[1,0,1,1]",0,38,38,38,1,0,0,,,1,FALSE,,,,,,,,,,,,,,,,,,,,,,,,,,,,,,
,614d950731d144ef2a82902f,001,2022-04-29_03h08.59,classification_task,2021.2.3,Win32,60.01680471,614d950731d144ef2a82902f,626b377229c10585ec392f8a,626b3a6ab635dd57debdebf1,,,,,,,,,,,,,,,,,,,,,,,l,1,0.52093,"[""0.036"",""0.843"",""0.445"",""0.700""]","[1,0,1,1]",0,39,39,39,1,1,0,,,1,FALSE,,,,,,,,,,,,,,,,,,,,,,,,,,,,,,
,614d950731d144ef2a82902f,001,2022-04-29_03h08.59,classification_task,2021.2.3,Win32,60.01680471,614d950731d144ef2a82902f,626b377229c10585ec392f8a,626b3a6ab635dd57debdebf1,,,,,,,,,,,,,,,,,,,,,,,l,0,0.64545,"[""0.293"",""0.387"",""0.639"",""0.930""]","[1,1,0,1]",0,40,40,40,1,0,0,,,1,FALSE,,,,,,,,,,,,,,,,,,,,,,,,,,,,,,
,614d950731d144ef2a82902f,001,2022-04-29_03h08.59,classification_task,2021.2.3,Win32,60.01680471,614d950731d144ef2a82902f,626b377229c10585ec392f8a,626b3a6ab635dd57debdebf1,,,,,,,,,,,,,,,,,,,,,,,a,0,0.59607,"[""0.036"",""0.151"",""0.650"",""0.700""]","[1,1,0,1]",0,41,41,41,1,1,0,,,1,FALSE,,,,,,,,,,,,,,,,,,,,,,,,,,,,,,
,614d950731d144ef2a82902f,001,2022-04-29_03h08.59,classification_task,2021.2.3,Win32,60.01680471,614d950731d144ef2a82902f,626b377229c10585ec392f8a,626b3a6ab635dd57debdebf1,,,,,,,,,,,,,,,,,,,,,,,a,0,0.475285,"[""0.036"",""0.151"",""0.445"",""0.836""]","[1,1,1,0]",0,42,42,42,1,1,0,,,1,FALSE,,,,,,,,,,,,,,,,,,,,,,,,,,,,,,
,614d950731d144ef2a82902f,001,2022-04-29_03h08.59,classification_task,2021.2.3,Win32,60.01680471,614d950731d144ef2a82902f,626b377229c10585ec392f8a,626b3a6ab635dd57debdebf1,,,,,,,,,,,,,,,,,,,,,,,l,1,0.710135,"[""0.111"",""0.223"",""0.657"",""0.770""]","[1,1,0,1]",0,43,43,43,1,1,1,,,1,FALSE,,,,,,,,,,,,,,,,,,,,,,,,,,,,,,
,614d950731d144ef2a82902f,001,2022-04-29_03h08.59,classification_task,2021.2.3,Win32,60.01680471,614d950731d144ef2a82902f,626b377229c10585ec392f8a,626b3a6ab635dd57debdebf1,,,,,,,,,,,,,,,,,,,,,,,a,1,0.72793,"[""0.654"",""0.387"",""0.884"",""0.930""]","[0,1,1,1]",0,44,44,44,1,0,0,,,1,FALSE,,,,,,,,,,,,,,,,,,,,,,,,,,,,,,
,614d950731d144ef2a82902f,001,2022-04-29_03h08.59,classification_task,2021.2.3,Win32,60.01680471,614d950731d144ef2a82902f,626b377229c10585ec392f8a,626b3a6ab635dd57debdebf1,,,,,,,,,,,,,,,,,,,,,,,l,1,0.717095,"[""0.111"",""0.223"",""0.543"",""0.666""]","[1,1,1,0]",0,45,45,45,1,1,1,,,1,FALSE,,,,,,,,,,,,,,,,,,,,,,,,,,,,,,
,614d950731d144ef2a82902f,001,2022-04-29_03h08.59,classification_task,2021.2.3,Win32,60.01680471,614d950731d144ef2a82902f,626b377229c10585ec392f8a,626b3a6ab635dd57debdebf1,,,,,,,,,,,,,,,,,,,,,,,a,0,0.6733,"[""0.111"",""0.814"",""0.543"",""0.770""]","[1,0,1,1]",0,46,46,46,1,1,1,,,1,FALSE,,,,,,,,,,,,,,,,,,,,,,,,,,,,,,
,614d950731d144ef2a82902f,001,2022-04-29_03h08.59,classification_task,2021.2.3,Win32,60.01680471,614d950731d144ef2a82902f,626b377229c10585ec392f8a,626b3a6ab635dd57debdebf1,,,,,,,,,,,,,,,,,,,,,,,l,0,0.47362,"[""0.188"",""0.822"",""0.596"",""0.972""]","[1,0,1,1]",0,47,47,47,1,0,1,,,1,FALSE,,,,,,,,,,,,,,,,,,,,,,,,,,,,,,
,614d950731d144ef2a82902f,001,2022-04-29_03h08.59,classification_task,2021.2.3,Win32,60.01680471,614d950731d144ef2a82902f,626b377229c10585ec392f8a,626b3a6ab635dd57debdebf1,,,,,,,,,,,,,,,,,,,,,,,l,1,0.44165,"[""0.036"",""0.639"",""0.445"",""0.700""]","[1,0,1,1]",0,48,48,48,1,1,0,,,1,FALSE,,,,,,,,,,,,,,,,,,,,,,,,,,,,,,
,614d950731d144ef2a82902f,001,2022-04-29_03h08.59,classification_task,2021.2.3,Win32,60.01680471,614d950731d144ef2a82902f,626b377229c10585ec392f8a,626b3a6ab635dd57debdebf1,,,,,,,,,,,,,,,,,,,,,,,a,1,0.41803,"[""0.293"",""0.387"",""0.822"",""0.930""]","[1,1,0,1]",0,49,49,49,1,0,0,,,1,FALSE,,,,,,,,,,,,,,,,,,,,,,,,,,,,,,
,614d950731d144ef2a82902f,001,2022-04-29_03h08.59,classification_task,2021.2.3,Win32,60.01680471,614d950731d144ef2a82902f,626b377229c10585ec392f8a,626b3a6ab635dd57debdebf1,,,,,,,,,,,,,,,,,,,,,,,l,0,0.604745,"[""0.188"",""0.481"",""0.644"",""0.972""]","[1,1,0,1]",0,50,50,50,1,0,1,,,1,FALSE,,,,,,,,,,,,,,,,,,,,,,,,,,,,,,
,614d950731d144ef2a82902f,001,2022-04-29_03h08.59,classification_task,2021.2.3,Win32,60.01680471,614d950731d144ef2a82902f,626b377229c10585ec392f8a,626b3a6ab635dd57debdebf1,,,,,,,,,,,,,,,,,,,,,,,a,0,0.79894,"[""0.111"",""0.843"",""0.543"",""0.770""]","[1,0,1,1]",0,51,51,51,1,1,1,,,1,FALSE,,,,,,,,,,,,,,,,,,,,,,,,,,,,,,
,614d950731d144ef2a82902f,001,2022-04-29_03h08.59,classification_task,2021.2.3,Win32,60.01680471,614d950731d144ef2a82902f,626b377229c10585ec392f8a,626b3a6ab635dd57debdebf1,,,,,,,,,,,,,,,,,,,,,,,l,1,2.253185,"[""0.036"",""0.151"",""0.644"",""0.700""]","[1,1,0,1]",0,52,52,52,1,1,0,,,1,FALSE,,,,,,,,,,,,,,,,,,,,,,,,,,,,,,
,614d950731d144ef2a82902f,001,2022-04-29_03h08.59,classification_task,2021.2.3,Win32,60.01680471,614d950731d144ef2a82902f,626b377229c10585ec392f8a,626b3a6ab635dd57debdebf1,,,,,,,,,,,,,,,,,,,,,,,a,1,0.69303,"[""0.188"",""0.481"",""0.596"",""0.836""]","[1,1,1,0]",0,53,53,53,1,0,1,,,1,FALSE,,,,,,,,,,,,,,,,,,,,,,,,,,,,,,
,614d950731d144ef2a82902f,001,2022-04-29_03h08.59,classification_task,2021.2.3,Win32,60.01680471,614d950731d144ef2a82902f,626b377229c10585ec392f8a,626b3a6ab635dd57debdebf1,,,,,,,,,,,,,,,,,,,,,,,a,1,0.723565,"[""0.293"",""0.387"",""0.884"",""0.811""]","[1,1,1,0]",0,54,54,54,1,0,0,,,1,FALSE,,,,,,,,,,,,,,,,,,,,,,,,,,,,,,
,614d950731d144ef2a82902f,001,2022-04-29_03h08.59,classification_task,2021.2.3,Win32,60.01680471,614d950731d144ef2a82902f,626b377229c10585ec392f8a,626b3a6ab635dd57debdebf1,,,,,,,,,,,,,,,,,,,,,,,l,0,0.959505,"[""0.293"",""0.641"",""0.884"",""0.930""]","[1,0,1,1]",0,55,55,55,1,0,0,,,1,FALSE,,,,,,,,,,,,,,,,,,,,,,,,,,,,,,
,614d950731d144ef2a82902f,001,2022-04-29_03h08.59,classification_task,2021.2.3,Win32,60.01680471,614d950731d144ef2a82902f,626b377229c10585ec392f8a,626b3a6ab635dd57debdebf1,,,,,,,,,,,,,,,,,,,,,,,l,0,0.926265,"[""0.188"",""0.822"",""0.596"",""0.972""]","[1,0,1,1]",0,56,56,56,1,0,1,,,1,FALSE,,,,,,,,,,,,,,,,,,,,,,,,,,,,,,
,614d950731d144ef2a82902f,001,2022-04-29_03h08.59,classification_task,2021.2.3,Win32,60.01680471,614d950731d144ef2a82902f,626b377229c10585ec392f8a,626b3a6ab635dd57debdebf1,,,,,,,,,,,,,,,,,,,,,,,a,0,0.645675,"[""0.111"",""0.223"",""0.543"",""0.639""]","[1,1,1,0]",0,57,57,57,1,1,1,,,1,FALSE,,,,,,,,,,,,,,,,,,,,,,,,,,,,,,
,614d950731d144ef2a82902f,001,2022-04-29_03h08.59,classification_task,2021.2.3,Win32,60.01680471,614d950731d144ef2a82902f,626b377229c10585ec392f8a,626b3a6ab635dd57debdebf1,,,,,,,,,,,,,,,,,,,,,,,a,0,0.84494,"[""0.644"",""0.223"",""0.543"",""0.770""]","[0,1,1,1]",0,58,58,58,1,1,1,,,1,FALSE,,,,,,,,,,,,,,,,,,,,,,,,,,,,,,
,614d950731d144ef2a82902f,001,2022-04-29_03h08.59,classification_task,2021.2.3,Win32,60.01680471,614d950731d144ef2a82902f,626b377229c10585ec392f8a,626b3a6ab635dd57debdebf1,,,,,,,,,,,,,,,,,,,,,,,l,1,1.08956,"[""0.111"",""0.223"",""0.639"",""0.770""]","[1,1,0,1]",0,59,59,59,1,1,1,,,1,FALSE,,,,,,,,,,,,,,,,,,,,,,,,,,,,,,
,614d950731d144ef2a82902f,001,2022-04-29_03h08.59,classification_task,2021.2.3,Win32,60.01680471,614d950731d144ef2a82902f,626b377229c10585ec392f8a,626b3a6ab635dd57debdebf1,,,,,,,,,,,,,,,,,,,,,,,a,1,1.21925,"[""0.639"",""0.481"",""0.596"",""0.972""]","[0,1,1,1]",0,60,60,60,1,0,1,,,1,FALSE,,,,,,,,,,,,,,,,,,,,,,,,,,,,,,
,614d950731d144ef2a82902f,001,2022-04-29_03h08.59,classification_task,2021.2.3,Win32,60.01680471,614d950731d144ef2a82902f,626b377229c10585ec392f8a,626b3a6ab635dd57debdebf1,,,,,,,,,,,,,,,,,,,,,,,l,1,0.843295,"[""0.644"",""0.151"",""0.445"",""0.700""]","[0,1,1,1]",0,61,61,61,1,1,0,,,1,FALSE,,,,,,,,,,,,,,,,,,,,,,,,,,,,,,
,614d950731d144ef2a82902f,001,2022-04-29_03h08.59,classification_task,2021.2.3,Win32,60.01680471,614d950731d144ef2a82902f,626b377229c10585ec392f8a,626b3a6ab635dd57debdebf1,,,,,,,,,,,,,,,,,,,,,,,l,0,1.450885,"[""0.666"",""0.387"",""0.884"",""0.930""]","[0,1,1,1]",0,62,62,62,1,0,0,,,1,FALSE,,,,,,,,,,,,,,,,,,,,,,,,,,,,,,
,614d950731d144ef2a82902f,001,2022-04-29_03h08.59,classification_task,2021.2.3,Win32,60.01680471,614d950731d144ef2a82902f,626b377229c10585ec392f8a,626b3a6ab635dd57debdebf1,,,,,,,,,,,,,,,,,,,,,,,l,1,2.255185,"[""0.036"",""0.151"",""0.445"",""0.832""]","[1,1,1,0]",0,63,63,63,1,1,0,,,1,FALSE,,,,,,,,,,,,,,,,,,,,,,,,,,,,,,
,614d950731d144ef2a82902f,001,2022-04-29_03h08.59,classification_task,2021.2.3,Win32,60.01680471,614d950731d144ef2a82902f,626b377229c10585ec392f8a,626b3a6ab635dd57debdebf1,,,,,,,,,,,,,,,,,,,,,,,,,,,,,,,,,,,,,,,0, ,,0,1.520888448,133.07093,0,2,2,2,1,2,3,,,,,,,,,,,,,,,,,
,614d950731d144ef2a82902f,001,2022-04-29_03h08.59,classification_task,2021.2.3,Win32,60.01680471,614d950731d144ef2a82902f,626b377229c10585ec392f8a,626b3a6ab635dd57debdebf1,,,,,,,,,,,,,,,,,,,,,,,,,,,,,,,,,,,,,,,1,  ,,0,8.754684744,135.380005,0,2,2,2,1,2,3,,,,,,,,,,,,,,,,,
,614d950731d144ef2a82902f,001,2022-04-29_03h08.59,classification_task,2021.2.3,Win32,60.01680471,614d950731d144ef2a82902f,626b377229c10585ec392f8a,626b3a6ab635dd57debdebf1,,,,,,,,,,,,,,,,,,,,,,,,,,,,,,,,,,,,,,,2,  ,,0,9.822530864,136.862425,0,2,2,2,1,2,3,,,,,,,,,,,,,,,,,
,614d950731d144ef2a82902f,001,2022-04-29_03h08.59,classification_task,2021.2.3,Win32,60.01680471,614d950731d144ef2a82902f,626b377229c10585ec392f8a,626b3a6ab635dd57debdebf1,,,,,,,,,,,,,,,,,,,,,,,,,,,,,,,,,,,,,,,,,,,,,0,2,2,2,1,,3,,,,,,,,,,,,,,,,,
,614d950731d144ef2a82902f,001,2022-04-29_03h08.59,classification_task,2021.2.3,Win32,60.01680471,614d950731d144ef2a82902f,626b377229c10585ec392f8a,626b3a6ab635dd57debdebf1,,,,,,,,,,,,,,,,,,,,,,,,,,,,,,,,,,,,,,,,,,,,,,,,,,,,,I believe the aid is a competent performer,,0.7,0,3,805.503095,0,0,0,0,1,0,,,,
,614d950731d144ef2a82902f,001,2022-04-29_03h08.59,classification_task,2021.2.3,Win32,60.01680471,614d950731d144ef2a82902f,626b377229c10585ec392f8a,626b3a6ab635dd57debdebf1,,,,,,,,,,,,,,,,,,,,,,,,,,,,,,,,,,,,,,,,,,,,,,,,,,,,,I trust the aid,,0.7,0,4,807.3142,0,0,0,0,1,0,,,,
,614d950731d144ef2a82902f,001,2022-04-29_03h08.59,classification_task,2021.2.3,Win32,60.01680471,614d950731d144ef2a82902f,626b377229c10585ec392f8a,626b3a6ab635dd57debdebf1,,,,,,,,,,,,,,,,,,,,,,,,,,,,,,,,,,,,,,,,,,,,,,,,,,,,,I have confidence in the advice given by the aid,,0.7,0,5,810.36551,0,0,0,0,1,0,,,,
,614d950731d144ef2a82902f,001,2022-04-29_03h08.59,classification_task,2021.2.3,Win32,60.01680471,614d950731d144ef2a82902f,626b377229c10585ec392f8a,626b3a6ab635dd57debdebf1,,,,,,,,,,,,,,,,,,,,,,,,,,,,,,,,,,,,,,,,,,,,,,,,,,,,,I can depend on the aid,,0.7,0,4,814.630025,0,0,0,0,1,0,,,,
,614d950731d144ef2a82902f,001,2022-04-29_03h08.59,classification_task,2021.2.3,Win32,60.01680471,614d950731d144ef2a82902f,626b377229c10585ec392f8a,626b3a6ab635dd57debdebf1,,,,,,,,,,,,,,,,,,,,,,,,,,,,,,,,,,,,,,,,,,,,,,,,,,,,,I can rely on the aid to behave in consistent ways,,0.7,0,3,818.94851,0,0,0,0,1,0,,,,
,614d950731d144ef2a82902f,001,2022-04-29_03h08.59,classification_task,2021.2.3,Win32,60.01680471,614d950731d144ef2a82902f,626b377229c10585ec392f8a,626b3a6ab635dd57debdebf1,,,,,,,,,,,,,,,,,,,,,,,,,,,,,,,,,,,,,,,,,,,,,,,,,,,,,I can rely on the aid to do its best every time I take its advice,,0.7,0,4,824.095155,0,0,0,0,1,0,,,,
,614d950731d144ef2a82902f,001,2022-04-29_03h08.59,classification_task,2021.2.3,Win32,60.01680471,614d950731d144ef2a82902f,626b377229c10585ec392f8a,626b3a6ab635dd57debdebf1,,,,,,,,,,,,,,,,,,,,,,,,,,,,,,,,,,,,,,,,,,,,,,,,,,,,,"On trials you completed with assistance from the aid, how frequently did you think the aid was correct?",,0.7,0,50,,0,0,0,0,1,0,,,,
,614d950731d144ef2a82902f,001,2022-04-29_03h08.59,classification_task,2021.2.3,Win32,60.01680471,614d950731d144ef2a82902f,626b377229c10585ec392f8a,626b3a6ab635dd57debdebf1,,,,,,,,,,,,,,,,,,,,,,,,,,,,,,,,,,,,,,,,,,,,,,,,,,,,,"On trials you completed without the aid, how frequently did you think you were correct?",,0.7,0,50,,0,0,0,0,1,0,,,,
,614d950731d144ef2a82902f,001,2022-04-29_03h08.59,classification_task,2021.2.3,Win32,60.01680471,614d950731d144ef2a82902f,626b377229c10585ec392f8a,626b3a6ab635dd57debdebf1,,,,,,,,,,,,,,,,,,,,,,,,,,,,,,,,,,,,,,,,,,,,,,,,,,,,,,,,,,,0,0,0,0,1,,,,,
,614d950731d144ef2a82902f,001,2022-04-29_03h08.59,classification_task,2021.2.3,Win32,60.01680471,614d950731d144ef2a82902f,626b377229c10585ec392f8a,626b3a6ab635dd57debdebf1,,,,,,,,,,,,,,,,,,,,,,,,,,,,,,,,,,,,,,,,,,,,,,,,,,,,,,,,,,,,,,,,,space,9.15627,850.034855,
,614d950731d144ef2a82902f,001,2022-04-29_03h08.59,classification_task,2021.2.3,Win32,60.01680471,614d950731d144ef2a82902f,626b377229c10585ec392f8a,626b3a6ab635dd57debdebf1,,,,,,,,,,,,,,,,,,,,,,,,,,,,,,,,,,,,,,,,,,,,,,,,,,,,,,,,,,,,,,,,,,,,"Mozilla/5.0 (Windows NT 10.0; WOW64) AppleWebKit/537.36 (KHTML, like Gecko) Chrome/79.0.3945.0 Safari/537.36"
