usingWebGL,participant,session,date,expName,psychopyVersion,OS,frameRate,study_id,signatures_friend,signatures_foe,band_ranges_top,band_ranges_bottom,formitemText,formtype,formundefined,formitemWidth,formindex,formresponse,formrt,key_resp_2.keys,key_resp_2.rt,tute_resp.keys,tute_resp.rt,tutorial.thisRepN,tutorial.thisTrialN,tutorial.thisN,tutorial.thisIndex,tutorial.ran,key_resp_4.keys,key_resp_4.rt,key_resp.keys,key_resp.corr,key_resp.rt,lines_presented,is_signal_presented,trials.thisRepN,trials.thisTrialN,trials.thisN,trials.thisIndex,trials.ran,vessel,active_band,lines,is_signal,supported_pos,catch_trial,debrief_formindex,debrief_formitemText,debrief_formtype,debrief_formitemWidth,debrief_formresponse,debrief_formrt,phases.thisRepN,phases.thisTrialN,phases.thisN,phases.thisIndex,phases.ran,phases.order,phase,key_resp_3.keys,trustitemText,trusttype,trustitemWidth,trustindex,trustresponse,trustrt,support_status.thisRepN,support_status.thisTrialN,support_status.thisN,support_status.thisIndex,support_status.ran,support_status.order,key_resp_5.keys,key_resp_5.rt,globalClockTime,userAgent,manualCondition
TRUE,614e8000c429207c056429a2,627c6df6b0561b42c028cb17,2022-05-11_21h16.33.790,classification_task,2021.2.3,Win32,60.28090904,627c6715c52fd12f31907bcf,,,,,,,,,,,,,,,,,,,,,,,,,,,,,,,,,,,,,,,,,,,,,,,,,,,,,,,,,,,,,,,,,,,,,
,614e8000c429207c056429a2,627c6df6b0561b42c028cb17,2022-05-11_21h16.33.790,classification_task,2021.2.3,Win32,60.28090904,627c6715c52fd12f31907bcf,"[[""0.271"",""0.362"",""0.770"",""0.871""],[""0.229"",""0.396"",""0.913"",""0.948""]]","[[""0.120"",""0.187"",""0.645"",""0.713""],[""0.061"",""0.432"",""0.524"",""0.837""]]","[1,10]","[100,1000]",Video game experience,,,0.7,0,,,,,,,,,,,,,,,,,,,,,,,,,,,,,,,,,,,,,,,,,,,,,,,,,,,,,,,,,,,,
,614e8000c429207c056429a2,627c6df6b0561b42c028cb17,2022-05-11_21h16.33.790,classification_task,2021.2.3,Win32,60.28090904,627c6715c52fd12f31907bcf,,,,,Approximately how many hours did you spend playing video games in the last week?,,,0.7,0,20,,,,,,,,,,,,,,,,,,,,,,,,,,,,,,,,,,,,,,,,,,,,,,,,,,,,,,,,,,,
,614e8000c429207c056429a2,627c6df6b0561b42c028cb17,2022-05-11_21h16.33.790,classification_task,2021.2.3,Win32,60.28090904,627c6715c52fd12f31907bcf,,,,,"Which game did you play the most this year? (Enter ""None"" if you didn't play any)",,,0.7,0,valorant,,,,,,,,,,,,,,,,,,,,,,,,,,,,,,,,,,,,,,,,,,,,,,,,,,,,,,,,,,,
,614e8000c429207c056429a2,627c6df6b0561b42c028cb17,2022-05-11_21h16.33.790,classification_task,2021.2.3,Win32,60.28090904,627c6715c52fd12f31907bcf,,,,,Visual perception,,,0.7,0,,,,,,,,,,,,,,,,,,,,,,,,,,,,,,,,,,,,,,,,,,,,,,,,,,,,,,,,,,,,
,614e8000c429207c056429a2,627c6df6b0561b42c028cb17,2022-05-11_21h16.33.790,classification_task,2021.2.3,Win32,60.28090904,627c6715c52fd12f31907bcf,,,,,Do you have any form of color blindness?,,,0.7,0,No,26.3057,,,,,,,,,,,,,,,,,,,,,,,,,,,,,,,,,,,,,,,,,,,,,,,,,,,,,,,,,,
,614e8000c429207c056429a2,627c6df6b0561b42c028cb17,2022-05-11_21h16.33.790,classification_task,2021.2.3,Win32,60.28090904,627c6715c52fd12f31907bcf,,,,,Do you use software to change the colour temperature of your screen (e.g. f.lux)?,,,0.7,0,No,30.0827,,,,,,,,,,,,,,,,,,,,,,,,,,,,,,,,,,,,,,,,,,,,,,,,,,,,,,,,,,
,614e8000c429207c056429a2,627c6df6b0561b42c028cb17,2022-05-11_21h16.33.790,classification_task,2021.2.3,Win32,60.28090904,627c6715c52fd12f31907bcf,,,,,,,,,,,,space,20.8083,space,15.1252,0,0,0,0,1,,,,,,,,,,,,,,,,,,,,,,,,,,,,,,,,,,,,,,,,,,,,,,,,,
,614e8000c429207c056429a2,627c6df6b0561b42c028cb17,2022-05-11_21h16.33.790,classification_task,2021.2.3,Win32,60.28090904,627c6715c52fd12f31907bcf,,,,,,,,,,,,,,space,9.3255,1,0,1,0,1,,,,,,,,,,,,,,,,,,,,,,,,,,,,,,,,,,,,,,,,,,,,,,,,,
,614e8000c429207c056429a2,627c6df6b0561b42c028cb17,2022-05-11_21h16.33.790,classification_task,2021.2.3,Win32,60.28090904,627c6715c52fd12f31907bcf,,,,,,,,,,,,,,space,14.0398,2,0,2,0,1,,,,,,,,,,,,,,,,,,,,,,,,,,,,,,,,,,,,,,,,,,,,,,,,,
,614e8000c429207c056429a2,627c6df6b0561b42c028cb17,2022-05-11_21h16.33.790,classification_task,2021.2.3,Win32,60.28090904,627c6715c52fd12f31907bcf,,,,,,,,,,,,,,space,11.9942,3,0,3,0,1,,,,,,,,,,,,,,,,,,,,,,,,,,,,,,,,,,,,,,,,,,,,,,,,,
,614e8000c429207c056429a2,627c6df6b0561b42c028cb17,2022-05-11_21h16.33.790,classification_task,2021.2.3,Win32,60.28090904,627c6715c52fd12f31907bcf,,,,,,,,,,,,,,space,23.8266,4,0,4,0,1,,,,,,,,,,,,,,,,,,,,,,,,,,,,,,,,,,,,,,,,,,,,,,,,,
,614e8000c429207c056429a2,627c6df6b0561b42c028cb17,2022-05-11_21h16.33.790,classification_task,2021.2.3,Win32,60.28090904,627c6715c52fd12f31907bcf,,,,,,,,,,,,,,,,,,,,,space,15.512,l,1,2.4853,"[""0.489"",""0.432"",""0.524"",""0.837""]","[0,1,1,1]",0,0,0,0,1,1,1,,,1,FALSE,,,,,,,,,,,,,,,,,,,,,,,,,,,,,,,
,614e8000c429207c056429a2,627c6df6b0561b42c028cb17,2022-05-11_21h16.33.790,classification_task,2021.2.3,Win32,60.28090904,627c6715c52fd12f31907bcf,,,,,,,,,,,,,,,,,,,,,,,a,0,2.364,"[""0.120"",""0.187"",""0.568"",""0.713""]","[1,1,0,1]",0,1,1,1,1,1,0,,,1,FALSE,,,,,,,,,,,,,,,,,,,,,,,,,,,,,,,
,614e8000c429207c056429a2,627c6df6b0561b42c028cb17,2022-05-11_21h16.33.790,classification_task,2021.2.3,Win32,60.28090904,627c6715c52fd12f31907bcf,,,,,,,,,,,,,,,,,,,,,,,l,0,1.24,"[""0.574"",""0.396"",""0.913"",""0.948""]","[0,1,1,1]",0,2,2,2,1,0,1,,,1,FALSE,,,,,,,,,,,,,,,,,,,,,,,,,,,,,,,
,614e8000c429207c056429a2,627c6df6b0561b42c028cb17,2022-05-11_21h16.33.790,classification_task,2021.2.3,Win32,60.28090904,627c6715c52fd12f31907bcf,,,,,,,,,,,,,,,,,,,,,,,a,1,1.5764,"[""0.229"",""0.396"",""0.574"",""0.948""]","[1,1,0,1]",0,3,3,3,1,0,1,,,1,FALSE,,,,,,,,,,,,,,,,,,,,,,,,,,,,,,,
,614e8000c429207c056429a2,627c6df6b0561b42c028cb17,2022-05-11_21h16.33.790,classification_task,2021.2.3,Win32,60.28090904,627c6715c52fd12f31907bcf,,,,,,,,,,,,,,,,,,,,,,,a,0,2.514,"[""0.061"",""0.432"",""0.524"",""0.570""]","[1,1,1,0]",0,4,4,4,1,1,1,,,1,FALSE,,,,,,,,,,,,,,,,,,,,,,,,,,,,,,,
,614e8000c429207c056429a2,627c6df6b0561b42c028cb17,2022-05-11_21h16.33.790,classification_task,2021.2.3,Win32,60.28090904,627c6715c52fd12f31907bcf,,,,,,,,,,,,,,,,,,,,,,,a,0,1.4043,"[""0.120"",""0.486"",""0.645"",""0.713""]","[1,0,1,1]",0,5,5,5,1,1,0,,,1,FALSE,,,,,,,,,,,,,,,,,,,,,,,,,,,,,,,
,614e8000c429207c056429a2,627c6df6b0561b42c028cb17,2022-05-11_21h16.33.790,classification_task,2021.2.3,Win32,60.28090904,627c6715c52fd12f31907bcf,,,,,,,,,,,,,,,,,,,,,,,l,1,1.2541,"[""0.061"",""0.432"",""0.486"",""0.837""]","[1,1,0,1]",0,6,6,6,1,1,1,,,1,FALSE,,,,,,,,,,,,,,,,,,,,,,,,,,,,,,,
,614e8000c429207c056429a2,627c6df6b0561b42c028cb17,2022-05-11_21h16.33.790,classification_task,2021.2.3,Win32,60.28090904,627c6715c52fd12f31907bcf,,,,,,,,,,,,,,,,,,,,,,,,0,,"[""0.229"",""0.486"",""0.913"",""0.948""]","[1,0,1,1]",0,7,7,7,1,0,1,,,1,FALSE,,,,,,,,,,,,,,,,,,,,,,,,,,,,,,,
,614e8000c429207c056429a2,627c6df6b0561b42c028cb17,2022-05-11_21h16.33.790,classification_task,2021.2.3,Win32,60.28090904,627c6715c52fd12f31907bcf,,,,,,,,,,,,,,,,,,,,,,,a,1,5.1094,"[""0.229"",""0.396"",""0.913"",""0.592""]","[1,1,1,0]",0,8,8,8,1,0,1,,,1,FALSE,,,,,,,,,,,,,,,,,,,,,,,,,,,,,,,
,614e8000c429207c056429a2,627c6df6b0561b42c028cb17,2022-05-11_21h16.33.790,classification_task,2021.2.3,Win32,60.28090904,627c6715c52fd12f31907bcf,,,,,,,,,,,,,,,,,,,,,,,l,1,2.9841,"[""0.061"",""0.585"",""0.524"",""0.837""]","[1,0,1,1]",0,9,9,9,1,1,1,,,1,FALSE,,,,,,,,,,,,,,,,,,,,,,,,,,,,,,,
,614e8000c429207c056429a2,627c6df6b0561b42c028cb17,2022-05-11_21h16.33.790,classification_task,2021.2.3,Win32,60.28090904,627c6715c52fd12f31907bcf,,,,,,,,,,,,,,,,,,,,,,,a,1,3.4807,"[""0.271"",""0.585"",""0.770"",""0.871""]","[1,0,1,1]",0,10,10,10,1,0,0,,,1,FALSE,,,,,,,,,,,,,,,,,,,,,,,,,,,,,,,
,614e8000c429207c056429a2,627c6df6b0561b42c028cb17,2022-05-11_21h16.33.790,classification_task,2021.2.3,Win32,60.28090904,627c6715c52fd12f31907bcf,,,,,,,,,,,,,,,,,,,,,,,l,1,4.481,"[""0.574"",""0.187"",""0.645"",""0.713""]","[0,1,1,1]",0,11,11,11,1,1,0,,,1,FALSE,,,,,,,,,,,,,,,,,,,,,,,,,,,,,,,
,614e8000c429207c056429a2,627c6df6b0561b42c028cb17,2022-05-11_21h16.33.790,classification_task,2021.2.3,Win32,60.28090904,627c6715c52fd12f31907bcf,,,,,,,,,,,,,,,,,,,,,,,a,1,1.8201,"[""0.271"",""0.362"",""0.770"",""0.585""]","[1,1,1,0]",0,12,12,12,1,0,0,,,1,FALSE,,,,,,,,,,,,,,,,,,,,,,,,,,,,,,,
,614e8000c429207c056429a2,627c6df6b0561b42c028cb17,2022-05-11_21h16.33.790,classification_task,2021.2.3,Win32,60.28090904,627c6715c52fd12f31907bcf,,,,,,,,,,,,,,,,,,,,,,,l,1,1.7824,"[""0.120"",""0.187"",""0.645"",""0.585""]","[1,1,1,0]",0,13,13,13,1,1,0,,,1,FALSE,,,,,,,,,,,,,,,,,,,,,,,,,,,,,,,
,614e8000c429207c056429a2,627c6df6b0561b42c028cb17,2022-05-11_21h16.33.790,classification_task,2021.2.3,Win32,60.28090904,627c6715c52fd12f31907bcf,,,,,,,,,,,,,,,,,,,,,,,a,1,1.7081,"[""0.271"",""0.362"",""0.560"",""0.871""]","[1,1,0,1]",0,14,14,14,1,0,0,,,1,FALSE,,,,,,,,,,,,,,,,,,,,,,,,,,,,,,,
,614e8000c429207c056429a2,627c6df6b0561b42c028cb17,2022-05-11_21h16.33.790,classification_task,2021.2.3,Win32,60.28090904,627c6715c52fd12f31907bcf,,,,,,,,,,,,,,,,,,,,,,,a,1,1.5243,"[""0.585"",""0.362"",""0.770"",""0.871""]","[0,1,1,1]",0,15,15,15,1,0,0,,,1,FALSE,,,,,,,,,,,,,,,,,,,,,,,,,,,,,,,
,614e8000c429207c056429a2,627c6df6b0561b42c028cb17,2022-05-11_21h16.33.790,classification_task,2021.2.3,Win32,60.28090904,627c6715c52fd12f31907bcf,,,,,,,,,,,,,,,,,,,,,,,l,1,1.0516,"[""0.489"",""0.187"",""0.645"",""0.713""]","[0,1,1,1]",0,16,16,16,1,1,0,,,1,FALSE,,,,,,,,,,,,,,,,,,,,,,,,,,,,,,,
,614e8000c429207c056429a2,627c6df6b0561b42c028cb17,2022-05-11_21h16.33.790,classification_task,2021.2.3,Win32,60.28090904,627c6715c52fd12f31907bcf,,,,,,,,,,,,,,,,,,,,,,,l,1,2.4536,"[""0.061"",""0.307"",""0.524"",""0.837""]","[1,0,1,1]",0,17,17,17,1,1,1,,,1,FALSE,,,,,,,,,,,,,,,,,,,,,,,,,,,,,,,
,614e8000c429207c056429a2,627c6df6b0561b42c028cb17,2022-05-11_21h16.33.790,classification_task,2021.2.3,Win32,60.28090904,627c6715c52fd12f31907bcf,,,,,,,,,,,,,,,,,,,,,,,a,1,1.015,"[""0.468"",""0.362"",""0.770"",""0.871""]","[0,1,1,1]",0,18,18,18,1,0,0,,,1,FALSE,,,,,,,,,,,,,,,,,,,,,,,,,,,,,,,
,614e8000c429207c056429a2,627c6df6b0561b42c028cb17,2022-05-11_21h16.33.790,classification_task,2021.2.3,Win32,60.28090904,627c6715c52fd12f31907bcf,,,,,,,,,,,,,,,,,,,,,,,l,1,1.7964,"[""0.061"",""0.432"",""0.486"",""0.837""]","[1,1,0,1]",0,19,19,19,1,1,1,,,1,FALSE,,,,,,,,,,,,,,,,,,,,,,,,,,,,,,,
,614e8000c429207c056429a2,627c6df6b0561b42c028cb17,2022-05-11_21h16.33.790,classification_task,2021.2.3,Win32,60.28090904,627c6715c52fd12f31907bcf,,,,,,,,,,,,,,,,,,,,,,,a,1,1.125,"[""0.271"",""0.362"",""0.307"",""0.871""]","[1,1,0,1]",0,20,20,20,1,0,0,,,1,FALSE,,,,,,,,,,,,,,,,,,,,,,,,,,,,,,,
,614e8000c429207c056429a2,627c6df6b0561b42c028cb17,2022-05-11_21h16.33.790,classification_task,2021.2.3,Win32,60.28090904,627c6715c52fd12f31907bcf,,,,,,,,,,,,,,,,,,,,,,,l,1,1.198,"[""0.120"",""0.187"",""0.645"",""0.307""]","[1,1,1,0]",0,21,21,21,1,1,0,,,1,FALSE,,,,,,,,,,,,,,,,,,,,,,,,,,,,,,,
,614e8000c429207c056429a2,627c6df6b0561b42c028cb17,2022-05-11_21h16.33.790,classification_task,2021.2.3,Win32,60.28090904,627c6715c52fd12f31907bcf,,,,,,,,,,,,,,,,,,,,,,,a,1,1.6453,"[""0.475"",""0.396"",""0.913"",""0.948""]","[0,1,1,1]",0,22,22,22,1,0,1,,,1,FALSE,,,,,,,,,,,,,,,,,,,,,,,,,,,,,,,
,614e8000c429207c056429a2,627c6df6b0561b42c028cb17,2022-05-11_21h16.33.790,classification_task,2021.2.3,Win32,60.28090904,627c6715c52fd12f31907bcf,,,,,,,,,,,,,,,,,,,,,,,l,1,1.6061,"[""0.120"",""0.187"",""0.324"",""0.713""]","[1,1,0,1]",0,23,23,23,1,1,0,,,1,FALSE,,,,,,,,,,,,,,,,,,,,,,,,,,,,,,,
,614e8000c429207c056429a2,627c6df6b0561b42c028cb17,2022-05-11_21h16.33.790,classification_task,2021.2.3,Win32,60.28090904,627c6715c52fd12f31907bcf,,,,,,,,,,,,,,,,,,,,,,,a,1,1.529,"[""0.229"",""0.396"",""0.913"",""0.592""]","[1,1,1,0]",0,24,24,24,1,0,1,,,1,FALSE,,,,,,,,,,,,,,,,,,,,,,,,,,,,,,,
,614e8000c429207c056429a2,627c6df6b0561b42c028cb17,2022-05-11_21h16.33.790,classification_task,2021.2.3,Win32,60.28090904,627c6715c52fd12f31907bcf,,,,,,,,,,,,,,,,,,,,,,,a,1,0.8361,"[""0.229"",""0.396"",""0.568"",""0.948""]","[1,1,0,1]",0,25,25,25,1,0,1,,,1,FALSE,,,,,,,,,,,,,,,,,,,,,,,,,,,,,,,
,614e8000c429207c056429a2,627c6df6b0561b42c028cb17,2022-05-11_21h16.33.790,classification_task,2021.2.3,Win32,60.28090904,627c6715c52fd12f31907bcf,,,,,,,,,,,,,,,,,,,,,,,a,1,0.6404,"[""0.229"",""0.567"",""0.913"",""0.948""]","[1,0,1,1]",0,26,26,26,1,0,1,,,1,FALSE,,,,,,,,,,,,,,,,,,,,,,,,,,,,,,,
,614e8000c429207c056429a2,627c6df6b0561b42c028cb17,2022-05-11_21h16.33.790,classification_task,2021.2.3,Win32,60.28090904,627c6715c52fd12f31907bcf,,,,,,,,,,,,,,,,,,,,,,,l,1,0.8816,"[""0.061"",""0.432"",""0.524"",""0.567""]","[1,1,1,0]",0,27,27,27,1,1,1,,,1,FALSE,,,,,,,,,,,,,,,,,,,,,,,,,,,,,,,
,614e8000c429207c056429a2,627c6df6b0561b42c028cb17,2022-05-11_21h16.33.790,classification_task,2021.2.3,Win32,60.28090904,627c6715c52fd12f31907bcf,,,,,,,,,,,,,,,,,,,,,,,a,0,1.2825,"[""0.592"",""0.432"",""0.524"",""0.837""]","[0,1,1,1]",0,28,28,28,1,1,1,,,1,FALSE,,,,,,,,,,,,,,,,,,,,,,,,,,,,,,,
,614e8000c429207c056429a2,627c6df6b0561b42c028cb17,2022-05-11_21h16.33.790,classification_task,2021.2.3,Win32,60.28090904,627c6715c52fd12f31907bcf,,,,,,,,,,,,,,,,,,,,,,,a,1,2.6324,"[""0.271"",""0.362"",""0.770"",""0.324""]","[1,1,1,0]",0,29,29,29,1,0,0,,,1,FALSE,,,,,,,,,,,,,,,,,,,,,,,,,,,,,,,
,614e8000c429207c056429a2,627c6df6b0561b42c028cb17,2022-05-11_21h16.33.790,classification_task,2021.2.3,Win32,60.28090904,627c6715c52fd12f31907bcf,,,,,,,,,,,,,,,,,,,,,,,a,1,0.9763,"[""0.271"",""0.574"",""0.770"",""0.871""]","[1,0,1,1]",0,30,30,30,1,0,0,,,1,FALSE,,,,,,,,,,,,,,,,,,,,,,,,,,,,,,,
,614e8000c429207c056429a2,627c6df6b0561b42c028cb17,2022-05-11_21h16.33.790,classification_task,2021.2.3,Win32,60.28090904,627c6715c52fd12f31907bcf,,,,,,,,,,,,,,,,,,,,,,,l,1,0.867,"[""0.120"",""0.592"",""0.645"",""0.713""]","[1,0,1,1]",0,31,31,31,1,1,0,,,1,FALSE,,,,,,,,,,,,,,,,,,,,,,,,,,,,,,,
,614e8000c429207c056429a2,627c6df6b0561b42c028cb17,2022-05-11_21h16.33.790,classification_task,2021.2.3,Win32,60.28090904,627c6715c52fd12f31907bcf,,,,,,,,,,,,,,,,,,,,,,,l,1,2.3328,"[""0.061"",""0.432"",""0.524"",""0.610""]","[1,1,1,0]",0,32,32,32,1,1,1,,,1,FALSE,,,,,,,,,,,,,,,,,,,,,,,,,,,,,,,
,614e8000c429207c056429a2,627c6df6b0561b42c028cb17,2022-05-11_21h16.33.790,classification_task,2021.2.3,Win32,60.28090904,627c6715c52fd12f31907bcf,,,,,,,,,,,,,,,,,,,,,,,a,1,1.7608,"[""0.271"",""0.321"",""0.770"",""0.871""]","[1,0,1,1]",0,33,33,33,1,0,0,,,1,FALSE,,,,,,,,,,,,,,,,,,,,,,,,,,,,,,,
,614e8000c429207c056429a2,627c6df6b0561b42c028cb17,2022-05-11_21h16.33.790,classification_task,2021.2.3,Win32,60.28090904,627c6715c52fd12f31907bcf,,,,,,,,,,,,,,,,,,,,,,,l,1,0.965,"[""0.120"",""0.187"",""0.645"",""0.321""]","[1,1,1,0]",0,34,34,34,1,1,0,,,1,FALSE,,,,,,,,,,,,,,,,,,,,,,,,,,,,,,,
,614e8000c429207c056429a2,627c6df6b0561b42c028cb17,2022-05-11_21h16.33.790,classification_task,2021.2.3,Win32,60.28090904,627c6715c52fd12f31907bcf,,,,,,,,,,,,,,,,,,,,,,,l,1,0.7517,"[""0.120"",""0.187"",""0.574"",""0.713""]","[1,1,0,1]",0,35,35,35,1,1,0,,,1,FALSE,,,,,,,,,,,,,,,,,,,,,,,,,,,,,,,
,614e8000c429207c056429a2,627c6df6b0561b42c028cb17,2022-05-11_21h16.33.790,classification_task,2021.2.3,Win32,60.28090904,627c6715c52fd12f31907bcf,,,,,,,,,,,,,,,,,,,,,,,a,1,1.0725,"[""0.229"",""0.574"",""0.913"",""0.948""]","[1,0,1,1]",0,36,36,36,1,0,1,,,1,FALSE,,,,,,,,,,,,,,,,,,,,,,,,,,,,,,,
,614e8000c429207c056429a2,627c6df6b0561b42c028cb17,2022-05-11_21h16.33.790,classification_task,2021.2.3,Win32,60.28090904,627c6715c52fd12f31907bcf,,,,,,,,,,,,,,,,,,,,,,,a,1,1.9614,"[""0.271"",""0.362"",""0.770"",""0.486""]","[1,1,1,0]",0,37,37,37,1,0,0,,,1,FALSE,,,,,,,,,,,,,,,,,,,,,,,,,,,,,,,
,614e8000c429207c056429a2,627c6df6b0561b42c028cb17,2022-05-11_21h16.33.790,classification_task,2021.2.3,Win32,60.28090904,627c6715c52fd12f31907bcf,,,,,,,,,,,,,,,,,,,,,,,l,1,0.783,"[""0.489"",""0.187"",""0.645"",""0.713""]","[0,1,1,1]",0,38,38,38,1,1,0,,,1,FALSE,,,,,,,,,,,,,,,,,,,,,,,,,,,,,,,
,614e8000c429207c056429a2,627c6df6b0561b42c028cb17,2022-05-11_21h16.33.790,classification_task,2021.2.3,Win32,60.28090904,627c6715c52fd12f31907bcf,,,,,,,,,,,,,,,,,,,,,,,a,1,0.9149,"[""0.271"",""0.362"",""0.307"",""0.871""]","[1,1,0,1]",0,39,39,39,1,0,0,,,1,FALSE,,,,,,,,,,,,,,,,,,,,,,,,,,,,,,,
,614e8000c429207c056429a2,627c6df6b0561b42c028cb17,2022-05-11_21h16.33.790,classification_task,2021.2.3,Win32,60.28090904,627c6715c52fd12f31907bcf,,,,,,,,,,,,,,,,,,,,,,,l,1,1.2008,"[""0.061"",""0.585"",""0.524"",""0.837""]","[1,0,1,1]",0,40,40,40,1,1,1,,,1,FALSE,,,,,,,,,,,,,,,,,,,,,,,,,,,,,,,
,614e8000c429207c056429a2,627c6df6b0561b42c028cb17,2022-05-11_21h16.33.790,classification_task,2021.2.3,Win32,60.28090904,627c6715c52fd12f31907bcf,,,,,,,,,,,,,,,,,,,,,,,a,1,1.1239,"[""0.475"",""0.396"",""0.913"",""0.948""]","[0,1,1,1]",0,41,41,41,1,0,1,,,1,FALSE,,,,,,,,,,,,,,,,,,,,,,,,,,,,,,,
,614e8000c429207c056429a2,627c6df6b0561b42c028cb17,2022-05-11_21h16.33.790,classification_task,2021.2.3,Win32,60.28090904,627c6715c52fd12f31907bcf,,,,,,,,,,,,,,,,,,,,,,,a,1,3.3618,"[""0.229"",""0.396"",""0.913"",""0.486""]","[1,1,1,0]",0,42,42,42,1,0,1,,,1,FALSE,,,,,,,,,,,,,,,,,,,,,,,,,,,,,,,
,614e8000c429207c056429a2,627c6df6b0561b42c028cb17,2022-05-11_21h16.33.790,classification_task,2021.2.3,Win32,60.28090904,627c6715c52fd12f31907bcf,,,,,,,,,,,,,,,,,,,,,,,l,1,1.2264,"[""0.120"",""0.468"",""0.645"",""0.713""]","[1,0,1,1]",0,43,43,43,1,1,0,,,1,FALSE,,,,,,,,,,,,,,,,,,,,,,,,,,,,,,,
,614e8000c429207c056429a2,627c6df6b0561b42c028cb17,2022-05-11_21h16.33.790,classification_task,2021.2.3,Win32,60.28090904,627c6715c52fd12f31907bcf,,,,,,,,,,,,,,,,,,,,,,,a,0,1.205,"[""0.585"",""0.432"",""0.524"",""0.837""]","[0,1,1,1]",0,44,44,44,1,1,1,,,1,FALSE,,,,,,,,,,,,,,,,,,,,,,,,,,,,,,,
,614e8000c429207c056429a2,627c6df6b0561b42c028cb17,2022-05-11_21h16.33.790,classification_task,2021.2.3,Win32,60.28090904,627c6715c52fd12f31907bcf,,,,,,,,,,,,,,,,,,,,,,,l,1,1.1809,"[""0.061"",""0.432"",""0.574"",""0.837""]","[1,1,0,1]",0,45,45,45,1,1,1,,,1,FALSE,,,,,,,,,,,,,,,,,,,,,,,,,,,,,,,
,614e8000c429207c056429a2,627c6df6b0561b42c028cb17,2022-05-11_21h16.33.790,classification_task,2021.2.3,Win32,60.28090904,627c6715c52fd12f31907bcf,,,,,,,,,,,,,,,,,,,,,,,a,1,1.1099,"[""0.229"",""0.396"",""0.570"",""0.948""]","[1,1,0,1]",0,46,46,46,1,0,1,,,1,FALSE,,,,,,,,,,,,,,,,,,,,,,,,,,,,,,,
,614e8000c429207c056429a2,627c6df6b0561b42c028cb17,2022-05-11_21h16.33.790,classification_task,2021.2.3,Win32,60.28090904,627c6715c52fd12f31907bcf,,,,,,,,,,,,,,,,,,,,,,,a,1,1.3529,"[""0.486"",""0.362"",""0.770"",""0.871""]","[0,1,1,1]",0,47,47,47,1,0,0,,,1,FALSE,,,,,,,,,,,,,,,,,,,,,,,,,,,,,,,
,614e8000c429207c056429a2,627c6df6b0561b42c028cb17,2022-05-11_21h16.33.790,classification_task,2021.2.3,Win32,60.28090904,627c6715c52fd12f31907bcf,,,,,,,,,,,,,,,,,,,,,,,l,1,1.2413,"[""0.560"",""0.432"",""0.524"",""0.837""]","[0,1,1,1]",0,48,48,48,1,1,1,,,1,FALSE,,,,,,,,,,,,,,,,,,,,,,,,,,,,,,,
,614e8000c429207c056429a2,627c6df6b0561b42c028cb17,2022-05-11_21h16.33.790,classification_task,2021.2.3,Win32,60.28090904,627c6715c52fd12f31907bcf,,,,,,,,,,,,,,,,,,,,,,,l,1,1.4335,"[""0.120"",""0.567"",""0.645"",""0.713""]","[1,0,1,1]",0,49,49,49,1,1,0,,,1,FALSE,,,,,,,,,,,,,,,,,,,,,,,,,,,,,,,
,614e8000c429207c056429a2,627c6df6b0561b42c028cb17,2022-05-11_21h16.33.790,classification_task,2021.2.3,Win32,60.28090904,627c6715c52fd12f31907bcf,,,,,,,,,,,,,,,,,,,,,,,l,1,1.1775,"[""0.061"",""0.432"",""0.489"",""0.837""]","[1,1,0,1]",0,50,50,50,1,1,1,,,1,FALSE,,,,,,,,,,,,,,,,,,,,,,,,,,,,,,,
,614e8000c429207c056429a2,627c6df6b0561b42c028cb17,2022-05-11_21h16.33.790,classification_task,2021.2.3,Win32,60.28090904,627c6715c52fd12f31907bcf,,,,,,,,,,,,,,,,,,,,,,,l,1,0.8799,"[""0.120"",""0.187"",""0.645"",""0.489""]","[1,1,1,0]",0,51,51,51,1,1,0,,,1,FALSE,,,,,,,,,,,,,,,,,,,,,,,,,,,,,,,
,614e8000c429207c056429a2,627c6df6b0561b42c028cb17,2022-05-11_21h16.33.790,classification_task,2021.2.3,Win32,60.28090904,627c6715c52fd12f31907bcf,,,,,,,,,,,,,,,,,,,,,,,l,1,0.6719,"[""0.120"",""0.187"",""0.585"",""0.713""]","[1,1,0,1]",0,52,52,52,1,1,0,,,1,FALSE,,,,,,,,,,,,,,,,,,,,,,,,,,,,,,,
,614e8000c429207c056429a2,627c6df6b0561b42c028cb17,2022-05-11_21h16.33.790,classification_task,2021.2.3,Win32,60.28090904,627c6715c52fd12f31907bcf,,,,,,,,,,,,,,,,,,,,,,,a,1,1.1005,"[""0.324"",""0.396"",""0.913"",""0.948""]","[0,1,1,1]",0,53,53,53,1,0,1,,,1,FALSE,,,,,,,,,,,,,,,,,,,,,,,,,,,,,,,
,614e8000c429207c056429a2,627c6df6b0561b42c028cb17,2022-05-11_21h16.33.790,classification_task,2021.2.3,Win32,60.28090904,627c6715c52fd12f31907bcf,,,,,,,,,,,,,,,,,,,,,,,l,1,1.273,"[""0.061"",""0.307"",""0.524"",""0.837""]","[1,0,1,1]",0,54,54,54,1,1,1,,,1,FALSE,,,,,,,,,,,,,,,,,,,,,,,,,,,,,,,
,614e8000c429207c056429a2,627c6df6b0561b42c028cb17,2022-05-11_21h16.33.790,classification_task,2021.2.3,Win32,60.28090904,627c6715c52fd12f31907bcf,,,,,,,,,,,,,,,,,,,,,,,a,1,0.9676,"[""0.271"",""0.570"",""0.770"",""0.871""]","[1,0,1,1]",0,55,55,55,1,0,0,,,1,FALSE,,,,,,,,,,,,,,,,,,,,,,,,,,,,,,,
,614e8000c429207c056429a2,627c6df6b0561b42c028cb17,2022-05-11_21h16.33.790,classification_task,2021.2.3,Win32,60.28090904,627c6715c52fd12f31907bcf,,,,,,,,,,,,,,,,,,,,,,,a,1,1.1944,"[""0.229"",""0.396"",""0.913"",""0.568""]","[1,1,1,0]",0,56,56,56,1,0,1,,,1,FALSE,,,,,,,,,,,,,,,,,,,,,,,,,,,,,,,
,614e8000c429207c056429a2,627c6df6b0561b42c028cb17,2022-05-11_21h16.33.790,classification_task,2021.2.3,Win32,60.28090904,627c6715c52fd12f31907bcf,,,,,,,,,,,,,,,,,,,,,,,a,1,0.5898,"[""0.229"",""0.396"",""0.307"",""0.948""]","[1,1,0,1]",0,57,57,57,1,0,1,,,1,FALSE,,,,,,,,,,,,,,,,,,,,,,,,,,,,,,,
,614e8000c429207c056429a2,627c6df6b0561b42c028cb17,2022-05-11_21h16.33.790,classification_task,2021.2.3,Win32,60.28090904,627c6715c52fd12f31907bcf,,,,,,,,,,,,,,,,,,,,,,,l,1,0.8637,"[""0.061"",""0.432"",""0.524"",""0.489""]","[1,1,1,0]",0,58,58,58,1,1,1,,,1,FALSE,,,,,,,,,,,,,,,,,,,,,,,,,,,,,,,
,614e8000c429207c056429a2,627c6df6b0561b42c028cb17,2022-05-11_21h16.33.790,classification_task,2021.2.3,Win32,60.28090904,627c6715c52fd12f31907bcf,,,,,,,,,,,,,,,,,,,,,,,l,1,1.5078,"[""0.585"",""0.187"",""0.645"",""0.713""]","[0,1,1,1]",0,59,59,59,1,1,0,,,1,FALSE,,,,,,,,,,,,,,,,,,,,,,,,,,,,,,,
,614e8000c429207c056429a2,627c6df6b0561b42c028cb17,2022-05-11_21h16.33.790,classification_task,2021.2.3,Win32,60.28090904,627c6715c52fd12f31907bcf,,,,,,,,,,,,,,,,,,,,,,,a,1,0.795,"[""0.271"",""0.362"",""0.770"",""0.610""]","[1,1,1,0]",0,60,60,60,1,0,0,,,1,FALSE,,,,,,,,,,,,,,,,,,,,,,,,,,,,,,,
,614e8000c429207c056429a2,627c6df6b0561b42c028cb17,2022-05-11_21h16.33.790,classification_task,2021.2.3,Win32,60.28090904,627c6715c52fd12f31907bcf,,,,,,,,,,,,,,,,,,,,,,,a,1,0.8282,"[""0.271"",""0.362"",""0.466"",""0.871""]","[1,1,0,1]",0,61,61,61,1,0,0,,,1,FALSE,,,,,,,,,,,,,,,,,,,,,,,,,,,,,,,
,614e8000c429207c056429a2,627c6df6b0561b42c028cb17,2022-05-11_21h16.33.790,classification_task,2021.2.3,Win32,60.28090904,627c6715c52fd12f31907bcf,,,,,,,,,,,,,,,,,,,,,,,a,1,0.9077,"[""0.229"",""0.321"",""0.913"",""0.948""]","[1,0,1,1]",0,62,62,62,1,0,1,,,1,FALSE,,,,,,,,,,,,,,,,,,,,,,,,,,,,,,,
,614e8000c429207c056429a2,627c6df6b0561b42c028cb17,2022-05-11_21h16.33.790,classification_task,2021.2.3,Win32,60.28090904,627c6715c52fd12f31907bcf,,,,,,,,,,,,,,,,,,,,,,,a,1,2.5273,"[""0.307"",""0.362"",""0.770"",""0.871""]","[0,1,1,1]",0,63,63,63,1,0,0,,,1,FALSE,,,,,,,,,,,,,,,,,,,,,,,,,,,,,,,
,614e8000c429207c056429a2,627c6df6b0561b42c028cb17,2022-05-11_21h16.33.790,classification_task,2021.2.3,Win32,60.28090904,627c6715c52fd12f31907bcf,,,,,,,,,,,,,,,,,,,,,,,,,,,,,,,,,,,,,,,0, ,,0,8.019058539,341.7829,0,0,0,0,1,2,1,,,,,,,,,,,,,,,,,,
,614e8000c429207c056429a2,627c6df6b0561b42c028cb17,2022-05-11_21h16.33.790,classification_task,2021.2.3,Win32,60.28090904,627c6715c52fd12f31907bcf,,,,,,,,,,,,,,,,,,,,,,,,,,,,,,,,,,,,,,,1,  ,,0,4.883647248,344.7637,0,0,0,0,1,2,1,,,,,,,,,,,,,,,,,,
,614e8000c429207c056429a2,627c6df6b0561b42c028cb17,2022-05-11_21h16.33.790,classification_task,2021.2.3,Win32,60.28090904,627c6715c52fd12f31907bcf,,,,,,,,,,,,,,,,,,,,,,,,,,,,,,,,,,,,,,,2,  ,,0,1.723740937,353.7493,0,0,0,0,1,2,1,,,,,,,,,,,,,,,,,,
,614e8000c429207c056429a2,627c6df6b0561b42c028cb17,2022-05-11_21h16.33.790,classification_task,2021.2.3,Win32,60.28090904,627c6715c52fd12f31907bcf,,,,,,,,,,,,,,,,,,,,,,,,,,,,,,,,,,,,,,,,,,,,,0,0,0,0,1,,1,,,,,,,,,,,,,,,,,,
,614e8000c429207c056429a2,627c6df6b0561b42c028cb17,2022-05-11_21h16.33.790,classification_task,2021.2.3,Win32,60.28090904,627c6715c52fd12f31907bcf,,,,,,,,,,,,,,,,,,,,,space,2.4077,a,1,2.3695,"[""0.229"",""0.396"",""0.567"",""0.948""]","[1,1,0,1]",0,0,0,0,1,0,1,,,1,FALSE,,,,,,,,,,,,,,,,,,,,,,,,,,,,,,,
,614e8000c429207c056429a2,627c6df6b0561b42c028cb17,2022-05-11_21h16.33.790,classification_task,2021.2.3,Win32,60.28090904,627c6715c52fd12f31907bcf,,,,,,,,,,,,,,,,,,,,,,,a,1,1.5435,"[""0.271"",""0.610"",""0.770"",""0.871""]","[1,0,1,1]",0,1,1,1,1,0,0,,,1,FALSE,,,,,,,,,,,,,,,,,,,,,,,,,,,,,,,
,614e8000c429207c056429a2,627c6df6b0561b42c028cb17,2022-05-11_21h16.33.790,classification_task,2021.2.3,Win32,60.28090904,627c6715c52fd12f31907bcf,,,,,,,,,,,,,,,,,,,,,,,l,1,1.1057,"[""0.061"",""0.432"",""0.524"",""0.468""]","[1,1,1,0]",0,2,2,2,1,1,1,,,1,FALSE,,,,,,,,,,,,,,,,,,,,,,,,,,,,,,,
,614e8000c429207c056429a2,627c6df6b0561b42c028cb17,2022-05-11_21h16.33.790,classification_task,2021.2.3,Win32,60.28090904,627c6715c52fd12f31907bcf,,,,,,,,,,,,,,,,,,,,,,,l,0,1.2171,"[""0.574"",""0.396"",""0.913"",""0.948""]","[0,1,1,1]",0,3,3,3,1,0,1,,,1,FALSE,,,,,,,,,,,,,,,,,,,,,,,,,,,,,,,
,614e8000c429207c056429a2,627c6df6b0561b42c028cb17,2022-05-11_21h16.33.790,classification_task,2021.2.3,Win32,60.28090904,627c6715c52fd12f31907bcf,,,,,,,,,,,,,,,,,,,,,,,a,0,0.9067,"[""0.567"",""0.432"",""0.524"",""0.837""]","[0,1,1,1]",0,4,4,4,1,1,1,,,1,FALSE,,,,,,,,,,,,,,,,,,,,,,,,,,,,,,,
,614e8000c429207c056429a2,627c6df6b0561b42c028cb17,2022-05-11_21h16.33.790,classification_task,2021.2.3,Win32,60.28090904,627c6715c52fd12f31907bcf,,,,,,,,,,,,,,,,,,,,,,,l,1,1.3391,"[""0.120"",""0.486"",""0.645"",""0.713""]","[1,0,1,1]",0,5,5,5,1,1,0,,,1,FALSE,,,,,,,,,,,,,,,,,,,,,,,,,,,,,,,
,614e8000c429207c056429a2,627c6df6b0561b42c028cb17,2022-05-11_21h16.33.790,classification_task,2021.2.3,Win32,60.28090904,627c6715c52fd12f31907bcf,,,,,,,,,,,,,,,,,,,,,,,l,1,1.1172,"[""0.061"",""0.321"",""0.524"",""0.837""]","[1,0,1,1]",0,6,6,6,1,1,1,,,1,FALSE,,,,,,,,,,,,,,,,,,,,,,,,,,,,,,,
,614e8000c429207c056429a2,627c6df6b0561b42c028cb17,2022-05-11_21h16.33.790,classification_task,2021.2.3,Win32,60.28090904,627c6715c52fd12f31907bcf,,,,,,,,,,,,,,,,,,,,,,,l,1,1.2472,"[""0.486"",""0.187"",""0.645"",""0.713""]","[0,1,1,1]",0,7,7,7,1,1,0,,,1,FALSE,,,,,,,,,,,,,,,,,,,,,,,,,,,,,,,
,614e8000c429207c056429a2,627c6df6b0561b42c028cb17,2022-05-11_21h16.33.790,classification_task,2021.2.3,Win32,60.28090904,627c6715c52fd12f31907bcf,,,,,,,,,,,,,,,,,,,,,,,a,1,0.973,"[""0.229"",""0.574"",""0.913"",""0.948""]","[1,0,1,1]",0,8,8,8,1,0,1,,,1,FALSE,,,,,,,,,,,,,,,,,,,,,,,,,,,,,,,
,614e8000c429207c056429a2,627c6df6b0561b42c028cb17,2022-05-11_21h16.33.790,classification_task,2021.2.3,Win32,60.28090904,627c6715c52fd12f31907bcf,,,,,,,,,,,,,,,,,,,,,,,l,1,1.0124,"[""0.120"",""0.187"",""0.468"",""0.713""]","[1,1,0,1]",0,9,9,9,1,1,0,,,1,FALSE,,,,,,,,,,,,,,,,,,,,,,,,,,,,,,,
,614e8000c429207c056429a2,627c6df6b0561b42c028cb17,2022-05-11_21h16.33.790,classification_task,2021.2.3,Win32,60.28090904,627c6715c52fd12f31907bcf,,,,,,,,,,,,,,,,,,,,,,,a,1,1.6614,"[""0.229"",""0.396"",""0.913"",""0.307""]","[1,1,1,0]",0,10,10,10,1,0,1,,,1,FALSE,,,,,,,,,,,,,,,,,,,,,,,,,,,,,,,
,614e8000c429207c056429a2,627c6df6b0561b42c028cb17,2022-05-11_21h16.33.790,classification_task,2021.2.3,Win32,60.28090904,627c6715c52fd12f31907bcf,,,,,,,,,,,,,,,,,,,,,,,a,1,1.2249,"[""0.271"",""0.362"",""0.770"",""0.321""]","[1,1,1,0]",0,11,11,11,1,0,0,,,1,FALSE,,,,,,,,,,,,,,,,,,,,,,,,,,,,,,,
,614e8000c429207c056429a2,627c6df6b0561b42c028cb17,2022-05-11_21h16.33.790,classification_task,2021.2.3,Win32,60.28090904,627c6715c52fd12f31907bcf,,,,,,,,,,,,,,,,,,,,,,,l,1,1.1143,"[""0.061"",""0.432"",""0.468"",""0.837""]","[1,1,0,1]",0,12,12,12,1,1,1,,,1,FALSE,,,,,,,,,,,,,,,,,,,,,,,,,,,,,,,
,614e8000c429207c056429a2,627c6df6b0561b42c028cb17,2022-05-11_21h16.33.790,classification_task,2021.2.3,Win32,60.28090904,627c6715c52fd12f31907bcf,,,,,,,,,,,,,,,,,,,,,,,a,1,1.3994,"[""0.570"",""0.362"",""0.770"",""0.871""]","[0,1,1,1]",0,13,13,13,1,0,0,,,1,FALSE,,,,,,,,,,,,,,,,,,,,,,,,,,,,,,,
,614e8000c429207c056429a2,627c6df6b0561b42c028cb17,2022-05-11_21h16.33.790,classification_task,2021.2.3,Win32,60.28090904,627c6715c52fd12f31907bcf,,,,,,,,,,,,,,,,,,,,,,,a,1,0.9123,"[""0.271"",""0.362"",""0.468"",""0.871""]","[1,1,0,1]",0,14,14,14,1,0,0,,,1,FALSE,,,,,,,,,,,,,,,,,,,,,,,,,,,,,,,
,614e8000c429207c056429a2,627c6df6b0561b42c028cb17,2022-05-11_21h16.33.790,classification_task,2021.2.3,Win32,60.28090904,627c6715c52fd12f31907bcf,,,,,,,,,,,,,,,,,,,,,,,a,0,0.6757,"[""0.120"",""0.187"",""0.645"",""0.568""]","[1,1,1,0]",0,15,15,15,1,1,0,,,1,FALSE,,,,,,,,,,,,,,,,,,,,,,,,,,,,,,,
,614e8000c429207c056429a2,627c6df6b0561b42c028cb17,2022-05-11_21h16.33.790,classification_task,2021.2.3,Win32,60.28090904,627c6715c52fd12f31907bcf,,,,,,,,,,,,,,,,,,,,,,,l,1,0.8997,"[""0.061"",""0.432"",""0.466"",""0.837""]","[1,1,0,1]",0,16,16,16,1,1,1,,,1,FALSE,,,,,,,,,,,,,,,,,,,,,,,,,,,,,,,
,614e8000c429207c056429a2,627c6df6b0561b42c028cb17,2022-05-11_21h16.33.790,classification_task,2021.2.3,Win32,60.28090904,627c6715c52fd12f31907bcf,,,,,,,,,,,,,,,,,,,,,,,l,1,0.8288,"[""0.120"",""0.187"",""0.468"",""0.713""]","[1,1,0,1]",0,17,17,17,1,1,0,,,1,FALSE,,,,,,,,,,,,,,,,,,,,,,,,,,,,,,,
,614e8000c429207c056429a2,627c6df6b0561b42c028cb17,2022-05-11_21h16.33.790,classification_task,2021.2.3,Win32,60.28090904,627c6715c52fd12f31907bcf,,,,,,,,,,,,,,,,,,,,,,,a,1,0.9076,"[""0.468"",""0.362"",""0.770"",""0.871""]","[0,1,1,1]",0,18,18,18,1,0,0,,,1,FALSE,,,,,,,,,,,,,,,,,,,,,,,,,,,,,,,
,614e8000c429207c056429a2,627c6df6b0561b42c028cb17,2022-05-11_21h16.33.790,classification_task,2021.2.3,Win32,60.28090904,627c6715c52fd12f31907bcf,,,,,,,,,,,,,,,,,,,,,,,a,1,1.1726,"[""0.229"",""0.396"",""0.570"",""0.948""]","[1,1,0,1]",0,19,19,19,1,0,1,,,1,FALSE,,,,,,,,,,,,,,,,,,,,,,,,,,,,,,,
,614e8000c429207c056429a2,627c6df6b0561b42c028cb17,2022-05-11_21h16.33.790,classification_task,2021.2.3,Win32,60.28090904,627c6715c52fd12f31907bcf,,,,,,,,,,,,,,,,,,,,,,,l,1,1.2317,"[""0.120"",""0.592"",""0.645"",""0.713""]","[1,0,1,1]",0,20,20,20,1,1,0,,,1,FALSE,,,,,,,,,,,,,,,,,,,,,,,,,,,,,,,
,614e8000c429207c056429a2,627c6df6b0561b42c028cb17,2022-05-11_21h16.33.790,classification_task,2021.2.3,Win32,60.28090904,627c6715c52fd12f31907bcf,,,,,,,,,,,,,,,,,,,,,,,l,1,1.2527,"[""0.061"",""0.468"",""0.524"",""0.837""]","[1,0,1,1]",0,21,21,21,1,1,1,,,1,FALSE,,,,,,,,,,,,,,,,,,,,,,,,,,,,,,,
,614e8000c429207c056429a2,627c6df6b0561b42c028cb17,2022-05-11_21h16.33.790,classification_task,2021.2.3,Win32,60.28090904,627c6715c52fd12f31907bcf,,,,,,,,,,,,,,,,,,,,,,,a,1,0.9964,"[""0.229"",""0.396"",""0.913"",""0.321""]","[1,1,1,0]",0,22,22,22,1,0,1,,,1,FALSE,,,,,,,,,,,,,,,,,,,,,,,,,,,,,,,
,614e8000c429207c056429a2,627c6df6b0561b42c028cb17,2022-05-11_21h16.33.790,classification_task,2021.2.3,Win32,60.28090904,627c6715c52fd12f31907bcf,,,,,,,,,,,,,,,,,,,,,,,l,1,2.4281,"[""0.560"",""0.432"",""0.524"",""0.837""]","[0,1,1,1]",0,23,23,23,1,1,1,,,1,FALSE,,,,,,,,,,,,,,,,,,,,,,,,,,,,,,,
,614e8000c429207c056429a2,627c6df6b0561b42c028cb17,2022-05-11_21h16.33.790,classification_task,2021.2.3,Win32,60.28090904,627c6715c52fd12f31907bcf,,,,,,,,,,,,,,,,,,,,,,,l,1,1.1389,"[""0.061"",""0.432"",""0.524"",""0.321""]","[1,1,1,0]",0,24,24,24,1,1,1,,,1,FALSE,,,,,,,,,,,,,,,,,,,,,,,,,,,,,,,
,614e8000c429207c056429a2,627c6df6b0561b42c028cb17,2022-05-11_21h16.33.790,classification_task,2021.2.3,Win32,60.28090904,627c6715c52fd12f31907bcf,,,,,,,,,,,,,,,,,,,,,,,a,1,3.7565,"[""0.568"",""0.396"",""0.913"",""0.948""]","[0,1,1,1]",0,25,25,25,1,0,1,,,1,FALSE,,,,,,,,,,,,,,,,,,,,,,,,,,,,,,,
,614e8000c429207c056429a2,627c6df6b0561b42c028cb17,2022-05-11_21h16.33.790,classification_task,2021.2.3,Win32,60.28090904,627c6715c52fd12f31907bcf,,,,,,,,,,,,,,,,,,,,,,,a,1,1.6696,"[""0.271"",""0.567"",""0.770"",""0.871""]","[1,0,1,1]",0,26,26,26,1,0,0,,,1,FALSE,,,,,,,,,,,,,,,,,,,,,,,,,,,,,,,
,614e8000c429207c056429a2,627c6df6b0561b42c028cb17,2022-05-11_21h16.33.790,classification_task,2021.2.3,Win32,60.28090904,627c6715c52fd12f31907bcf,,,,,,,,,,,,,,,,,,,,,,,l,1,0.9634,"[""0.486"",""0.187"",""0.645"",""0.713""]","[0,1,1,1]",0,27,27,27,1,1,0,,,1,FALSE,,,,,,,,,,,,,,,,,,,,,,,,,,,,,,,
,614e8000c429207c056429a2,627c6df6b0561b42c028cb17,2022-05-11_21h16.33.790,classification_task,2021.2.3,Win32,60.28090904,627c6715c52fd12f31907bcf,,,,,,,,,,,,,,,,,,,,,,,a,1,1.7058,"[""0.271"",""0.362"",""0.770"",""0.568""]","[1,1,1,0]",0,28,28,28,1,0,0,,,1,FALSE,,,,,,,,,,,,,,,,,,,,,,,,,,,,,,,
,614e8000c429207c056429a2,627c6df6b0561b42c028cb17,2022-05-11_21h16.33.790,classification_task,2021.2.3,Win32,60.28090904,627c6715c52fd12f31907bcf,,,,,,,,,,,,,,,,,,,,,,,a,1,0.7876,"[""0.271"",""0.362"",""0.486"",""0.871""]","[1,1,0,1]",0,29,29,29,1,0,0,,,1,FALSE,,,,,,,,,,,,,,,,,,,,,,,,,,,,,,,
,614e8000c429207c056429a2,627c6df6b0561b42c028cb17,2022-05-11_21h16.33.790,classification_task,2021.2.3,Win32,60.28090904,627c6715c52fd12f31907bcf,,,,,,,,,,,,,,,,,,,,,,,a,1,0.9952,"[""0.229"",""0.486"",""0.913"",""0.948""]","[1,0,1,1]",0,30,30,30,1,0,1,,,1,FALSE,,,,,,,,,,,,,,,,,,,,,,,,,,,,,,,
,614e8000c429207c056429a2,627c6df6b0561b42c028cb17,2022-05-11_21h16.33.790,classification_task,2021.2.3,Win32,60.28090904,627c6715c52fd12f31907bcf,,,,,,,,,,,,,,,,,,,,,,,l,1,0.9091,"[""0.120"",""0.187"",""0.645"",""0.486""]","[1,1,1,0]",0,31,31,31,1,1,0,,,1,FALSE,,,,,,,,,,,,,,,,,,,,,,,,,,,,,,,
,614e8000c429207c056429a2,627c6df6b0561b42c028cb17,2022-05-11_21h16.33.790,classification_task,2021.2.3,Win32,60.28090904,627c6715c52fd12f31907bcf,,,,,,,,,,,,,,,,,,,,,,,a,1,0.7581,"[""0.271"",""0.362"",""0.770"",""0.560""]","[1,1,1,0]",0,32,32,32,1,0,0,,,1,FALSE,,,,,,,,,,,,,,,,,,,,,,,,,,,,,,,
,614e8000c429207c056429a2,627c6df6b0561b42c028cb17,2022-05-11_21h16.33.790,classification_task,2021.2.3,Win32,60.28090904,627c6715c52fd12f31907bcf,,,,,,,,,,,,,,,,,,,,,,,l,1,0.7922,"[""0.120"",""0.187"",""0.645"",""0.568""]","[1,1,1,0]",0,33,33,33,1,1,0,,,1,FALSE,,,,,,,,,,,,,,,,,,,,,,,,,,,,,,,
,614e8000c429207c056429a2,627c6df6b0561b42c028cb17,2022-05-11_21h16.33.790,classification_task,2021.2.3,Win32,60.28090904,627c6715c52fd12f31907bcf,,,,,,,,,,,,,,,,,,,,,,,a,1,1.2162,"[""0.568"",""0.396"",""0.913"",""0.948""]","[0,1,1,1]",0,34,34,34,1,0,1,,,1,FALSE,,,,,,,,,,,,,,,,,,,,,,,,,,,,,,,
,614e8000c429207c056429a2,627c6df6b0561b42c028cb17,2022-05-11_21h16.33.790,classification_task,2021.2.3,Win32,60.28090904,627c6715c52fd12f31907bcf,,,,,,,,,,,,,,,,,,,,,,,a,1,1.105,"[""0.229"",""0.466"",""0.913"",""0.948""]","[1,0,1,1]",0,35,35,35,1,0,1,,,1,FALSE,,,,,,,,,,,,,,,,,,,,,,,,,,,,,,,
,614e8000c429207c056429a2,627c6df6b0561b42c028cb17,2022-05-11_21h16.33.790,classification_task,2021.2.3,Win32,60.28090904,627c6715c52fd12f31907bcf,,,,,,,,,,,,,,,,,,,,,,,l,1,0.9756,"[""0.061"",""0.585"",""0.524"",""0.837""]","[1,0,1,1]",0,36,36,36,1,1,1,,,1,FALSE,,,,,,,,,,,,,,,,,,,,,,,,,,,,,,,
,614e8000c429207c056429a2,627c6df6b0561b42c028cb17,2022-05-11_21h16.33.790,classification_task,2021.2.3,Win32,60.28090904,627c6715c52fd12f31907bcf,,,,,,,,,,,,,,,,,,,,,,,a,1,1.2277,"[""0.321"",""0.362"",""0.770"",""0.871""]","[0,1,1,1]",0,37,37,37,1,0,0,,,1,FALSE,,,,,,,,,,,,,,,,,,,,,,,,,,,,,,,
,614e8000c429207c056429a2,627c6df6b0561b42c028cb17,2022-05-11_21h16.33.790,classification_task,2021.2.3,Win32,60.28090904,627c6715c52fd12f31907bcf,,,,,,,,,,,,,,,,,,,,,,,l,1,0.8403,"[""0.120"",""0.187"",""0.324"",""0.713""]","[1,1,0,1]",0,38,38,38,1,1,0,,,1,FALSE,,,,,,,,,,,,,,,,,,,,,,,,,,,,,,,
,614e8000c429207c056429a2,627c6df6b0561b42c028cb17,2022-05-11_21h16.33.790,classification_task,2021.2.3,Win32,60.28090904,627c6715c52fd12f31907bcf,,,,,,,,,,,,,,,,,,,,,,,a,1,0.8735,"[""0.271"",""0.362"",""0.489"",""0.871""]","[1,1,0,1]",0,39,39,39,1,0,0,,,1,FALSE,,,,,,,,,,,,,,,,,,,,,,,,,,,,,,,
,614e8000c429207c056429a2,627c6df6b0561b42c028cb17,2022-05-11_21h16.33.790,classification_task,2021.2.3,Win32,60.28090904,627c6715c52fd12f31907bcf,,,,,,,,,,,,,,,,,,,,,,,l,1,1.341,"[""0.324"",""0.432"",""0.524"",""0.837""]","[0,1,1,1]",0,40,40,40,1,1,1,,,1,FALSE,,,,,,,,,,,,,,,,,,,,,,,,,,,,,,,
,614e8000c429207c056429a2,627c6df6b0561b42c028cb17,2022-05-11_21h16.33.790,classification_task,2021.2.3,Win32,60.28090904,627c6715c52fd12f31907bcf,,,,,,,,,,,,,,,,,,,,,,,a,1,0.8238,"[""0.229"",""0.396"",""0.913"",""0.307""]","[1,1,1,0]",0,41,41,41,1,0,1,,,1,FALSE,,,,,,,,,,,,,,,,,,,,,,,,,,,,,,,
,614e8000c429207c056429a2,627c6df6b0561b42c028cb17,2022-05-11_21h16.33.790,classification_task,2021.2.3,Win32,60.28090904,627c6715c52fd12f31907bcf,,,,,,,,,,,,,,,,,,,,,,,l,1,1.3393,"[""0.120"",""0.489"",""0.645"",""0.713""]","[1,0,1,1]",0,42,42,42,1,1,0,,,1,FALSE,,,,,,,,,,,,,,,,,,,,,,,,,,,,,,,
,614e8000c429207c056429a2,627c6df6b0561b42c028cb17,2022-05-11_21h16.33.790,classification_task,2021.2.3,Win32,60.28090904,627c6715c52fd12f31907bcf,,,,,,,,,,,,,,,,,,,,,,,a,1,1.0511,"[""0.271"",""0.466"",""0.770"",""0.871""]","[1,0,1,1]",0,43,43,43,1,0,0,,,1,FALSE,,,,,,,,,,,,,,,,,,,,,,,,,,,,,,,
,614e8000c429207c056429a2,627c6df6b0561b42c028cb17,2022-05-11_21h16.33.790,classification_task,2021.2.3,Win32,60.28090904,627c6715c52fd12f31907bcf,,,,,,,,,,,,,,,,,,,,,,,l,1,1.8878,"[""0.061"",""0.432"",""0.570"",""0.837""]","[1,1,0,1]",0,44,44,44,1,1,1,,,1,FALSE,,,,,,,,,,,,,,,,,,,,,,,,,,,,,,,
,614e8000c429207c056429a2,627c6df6b0561b42c028cb17,2022-05-11_21h16.33.790,classification_task,2021.2.3,Win32,60.28090904,627c6715c52fd12f31907bcf,,,,,,,,,,,,,,,,,,,,,,,l,1,1.2782,"[""0.061"",""0.432"",""0.524"",""0.560""]","[1,1,1,0]",0,45,45,45,1,1,1,,,1,FALSE,,,,,,,,,,,,,,,,,,,,,,,,,,,,,,,
,614e8000c429207c056429a2,627c6df6b0561b42c028cb17,2022-05-11_21h16.33.790,classification_task,2021.2.3,Win32,60.28090904,627c6715c52fd12f31907bcf,,,,,,,,,,,,,,,,,,,,,,,l,1,1.1225,"[""0.574"",""0.187"",""0.645"",""0.713""]","[0,1,1,1]",0,46,46,46,1,1,0,,,1,FALSE,,,,,,,,,,,,,,,,,,,,,,,,,,,,,,,
,614e8000c429207c056429a2,627c6df6b0561b42c028cb17,2022-05-11_21h16.33.790,classification_task,2021.2.3,Win32,60.28090904,627c6715c52fd12f31907bcf,,,,,,,,,,,,,,,,,,,,,,,a,1,1.3317,"[""0.229"",""0.396"",""0.486"",""0.948""]","[1,1,0,1]",0,47,47,47,1,0,1,,,1,FALSE,,,,,,,,,,,,,,,,,,,,,,,,,,,,,,,
,614e8000c429207c056429a2,627c6df6b0561b42c028cb17,2022-05-11_21h16.33.790,classification_task,2021.2.3,Win32,60.28090904,627c6715c52fd12f31907bcf,,,,,,,,,,,,,,,,,,,,,,,l,1,0.7935,"[""0.061"",""0.432"",""0.524"",""0.568""]","[1,1,1,0]",0,48,48,48,1,1,1,,,1,FALSE,,,,,,,,,,,,,,,,,,,,,,,,,,,,,,,
,614e8000c429207c056429a2,627c6df6b0561b42c028cb17,2022-05-11_21h16.33.790,classification_task,2021.2.3,Win32,60.28090904,627c6715c52fd12f31907bcf,,,,,,,,,,,,,,,,,,,,,,,a,1,2.6101,"[""0.271"",""0.489"",""0.770"",""0.871""]","[1,0,1,1]",0,49,49,49,1,0,0,,,1,FALSE,,,,,,,,,,,,,,,,,,,,,,,,,,,,,,,
,614e8000c429207c056429a2,627c6df6b0561b42c028cb17,2022-05-11_21h16.33.790,classification_task,2021.2.3,Win32,60.28090904,627c6715c52fd12f31907bcf,,,,,,,,,,,,,,,,,,,,,,,l,0,1.6821,"[""0.610"",""0.362"",""0.770"",""0.871""]","[0,1,1,1]",0,50,50,50,1,0,0,,,1,FALSE,,,,,,,,,,,,,,,,,,,,,,,,,,,,,,,
,614e8000c429207c056429a2,627c6df6b0561b42c028cb17,2022-05-11_21h16.33.790,classification_task,2021.2.3,Win32,60.28090904,627c6715c52fd12f31907bcf,,,,,,,,,,,,,,,,,,,,,,,l,0,1.0011,"[""0.475"",""0.396"",""0.913"",""0.948""]","[0,1,1,1]",0,51,51,51,1,0,1,,,1,FALSE,,,,,,,,,,,,,,,,,,,,,,,,,,,,,,,
,614e8000c429207c056429a2,627c6df6b0561b42c028cb17,2022-05-11_21h16.33.790,classification_task,2021.2.3,Win32,60.28090904,627c6715c52fd12f31907bcf,,,,,,,,,,,,,,,,,,,,,,,l,1,0.8003,"[""0.061"",""0.432"",""0.610"",""0.837""]","[1,1,0,1]",0,52,52,52,1,1,1,,,1,FALSE,,,,,,,,,,,,,,,,,,,,,,,,,,,,,,,
,614e8000c429207c056429a2,627c6df6b0561b42c028cb17,2022-05-11_21h16.33.790,classification_task,2021.2.3,Win32,60.28090904,627c6715c52fd12f31907bcf,,,,,,,,,,,,,,,,,,,,,,,l,1,1.0462,"[""0.585"",""0.187"",""0.645"",""0.713""]","[0,1,1,1]",0,53,53,53,1,1,0,,,1,FALSE,,,,,,,,,,,,,,,,,,,,,,,,,,,,,,,
,614e8000c429207c056429a2,627c6df6b0561b42c028cb17,2022-05-11_21h16.33.790,classification_task,2021.2.3,Win32,60.28090904,627c6715c52fd12f31907bcf,,,,,,,,,,,,,,,,,,,,,,,l,1,1.0438,"[""0.120"",""0.560"",""0.645"",""0.713""]","[1,0,1,1]",0,54,54,54,1,1,0,,,1,FALSE,,,,,,,,,,,,,,,,,,,,,,,,,,,,,,,
,614e8000c429207c056429a2,627c6df6b0561b42c028cb17,2022-05-11_21h16.33.790,classification_task,2021.2.3,Win32,60.28090904,627c6715c52fd12f31907bcf,,,,,,,,,,,,,,,,,,,,,,,l,1,0.9824,"[""0.061"",""0.489"",""0.524"",""0.837""]","[1,0,1,1]",0,55,55,55,1,1,1,,,1,FALSE,,,,,,,,,,,,,,,,,,,,,,,,,,,,,,,
,614e8000c429207c056429a2,627c6df6b0561b42c028cb17,2022-05-11_21h16.33.790,classification_task,2021.2.3,Win32,60.28090904,627c6715c52fd12f31907bcf,,,,,,,,,,,,,,,,,,,,,,,a,1,0.5519,"[""0.271"",""0.362"",""0.770"",""0.567""]","[1,1,1,0]",0,56,56,56,1,0,0,,,1,FALSE,,,,,,,,,,,,,,,,,,,,,,,,,,,,,,,
,614e8000c429207c056429a2,627c6df6b0561b42c028cb17,2022-05-11_21h16.33.790,classification_task,2021.2.3,Win32,60.28090904,627c6715c52fd12f31907bcf,,,,,,,,,,,,,,,,,,,,,,,a,1,0.9514,"[""0.229"",""0.610"",""0.913"",""0.948""]","[1,0,1,1]",0,57,57,57,1,0,1,,,1,FALSE,,,,,,,,,,,,,,,,,,,,,,,,,,,,,,,
,614e8000c429207c056429a2,627c6df6b0561b42c028cb17,2022-05-11_21h16.33.790,classification_task,2021.2.3,Win32,60.28090904,627c6715c52fd12f31907bcf,,,,,,,,,,,,,,,,,,,,,,,a,1,0.9562,"[""0.271"",""0.362"",""0.585"",""0.871""]","[1,1,0,1]",0,58,58,58,1,0,0,,,1,FALSE,,,,,,,,,,,,,,,,,,,,,,,,,,,,,,,
,614e8000c429207c056429a2,627c6df6b0561b42c028cb17,2022-05-11_21h16.33.790,classification_task,2021.2.3,Win32,60.28090904,627c6715c52fd12f31907bcf,,,,,,,,,,,,,,,,,,,,,,,a,1,1.3072,"[""0.229"",""0.396"",""0.913"",""0.570""]","[1,1,1,0]",0,59,59,59,1,0,1,,,1,FALSE,,,,,,,,,,,,,,,,,,,,,,,,,,,,,,,
,614e8000c429207c056429a2,627c6df6b0561b42c028cb17,2022-05-11_21h16.33.790,classification_task,2021.2.3,Win32,60.28090904,627c6715c52fd12f31907bcf,,,,,,,,,,,,,,,,,,,,,,,a,1,0.6898,"[""0.229"",""0.396"",""0.567"",""0.948""]","[1,1,0,1]",0,60,60,60,1,0,1,,,1,FALSE,,,,,,,,,,,,,,,,,,,,,,,,,,,,,,,
,614e8000c429207c056429a2,627c6df6b0561b42c028cb17,2022-05-11_21h16.33.790,classification_task,2021.2.3,Win32,60.28090904,627c6715c52fd12f31907bcf,,,,,,,,,,,,,,,,,,,,,,,l,1,1.0036,"[""0.120"",""0.187"",""0.324"",""0.713""]","[1,1,0,1]",0,61,61,61,1,1,0,,,1,FALSE,,,,,,,,,,,,,,,,,,,,,,,,,,,,,,,
,614e8000c429207c056429a2,627c6df6b0561b42c028cb17,2022-05-11_21h16.33.790,classification_task,2021.2.3,Win32,60.28090904,627c6715c52fd12f31907bcf,,,,,,,,,,,,,,,,,,,,,,,l,1,0.6128,"[""0.120"",""0.187"",""0.645"",""0.610""]","[1,1,1,0]",0,62,62,62,1,1,0,,,1,FALSE,,,,,,,,,,,,,,,,,,,,,,,,,,,,,,,
,614e8000c429207c056429a2,627c6df6b0561b42c028cb17,2022-05-11_21h16.33.790,classification_task,2021.2.3,Win32,60.28090904,627c6715c52fd12f31907bcf,,,,,,,,,,,,,,,,,,,,,,,l,1,2.1952,"[""0.610"",""0.432"",""0.524"",""0.837""]","[0,1,1,1]",0,63,63,63,1,1,1,,,1,FALSE,,,,,,,,,,,,,,,,,,,,,,,,,,,,,,,
,614e8000c429207c056429a2,627c6df6b0561b42c028cb17,2022-05-11_21h16.33.790,classification_task,2021.2.3,Win32,60.28090904,627c6715c52fd12f31907bcf,,,,,,,,,,,,,,,,,,,,,,,,,,,,,,,,,,,,,,,0, ,,0,2.532089715,156.0565,0,1,1,1,1,2,2,,,,,,,,,,,,,,,,,,
,614e8000c429207c056429a2,627c6df6b0561b42c028cb17,2022-05-11_21h16.33.790,classification_task,2021.2.3,Win32,60.28090904,627c6715c52fd12f31907bcf,,,,,,,,,,,,,,,,,,,,,,,,,,,,,,,,,,,,,,,1,  ,,0,5.373555145,156.9829,0,1,1,1,1,2,2,,,,,,,,,,,,,,,,,,
,614e8000c429207c056429a2,627c6df6b0561b42c028cb17,2022-05-11_21h16.33.790,classification_task,2021.2.3,Win32,60.28090904,627c6715c52fd12f31907bcf,,,,,,,,,,,,,,,,,,,,,,,,,,,,,,,,,,,,,,,2,  ,,0,1.576768941,157.9188,0,1,1,1,1,2,2,,,,,,,,,,,,,,,,,,
,614e8000c429207c056429a2,627c6df6b0561b42c028cb17,2022-05-11_21h16.33.790,classification_task,2021.2.3,Win32,60.28090904,627c6715c52fd12f31907bcf,,,,,,,,,,,,,,,,,,,,,,,,,,,,,,,,,,,,,,,,,,,,,0,1,1,1,1,,2,,,,,,,,,,,,,,,,,,
,614e8000c429207c056429a2,627c6df6b0561b42c028cb17,2022-05-11_21h16.33.790,classification_task,2021.2.3,Win32,60.28090904,627c6715c52fd12f31907bcf,,,,,,,,,,,,,,,,,,,,,space,1.8029,a,1,3.2794,"[""0.229"",""0.396"",""0.913"",""0.475""]","[1,1,1,0]",0,0,0,0,1,0,1,,,1,FALSE,,,,,,,,,,,,,,,,,,,,,,,,,,,,,,,
,614e8000c429207c056429a2,627c6df6b0561b42c028cb17,2022-05-11_21h16.33.790,classification_task,2021.2.3,Win32,60.28090904,627c6715c52fd12f31907bcf,,,,,,,,,,,,,,,,,,,,,,,l,1,1.4948,"[""0.061"",""0.432"",""0.524"",""0.307""]","[1,1,1,0]",0,1,1,1,1,1,1,,,1,FALSE,,,,,,,,,,,,,,,,,,,,,,,,,,,,,,,
,614e8000c429207c056429a2,627c6df6b0561b42c028cb17,2022-05-11_21h16.33.790,classification_task,2021.2.3,Win32,60.28090904,627c6715c52fd12f31907bcf,,,,,,,,,,,,,,,,,,,,,,,a,1,1.1058,"[""0.271"",""0.560"",""0.770"",""0.871""]","[1,0,1,1]",0,2,2,2,1,0,0,,,1,FALSE,,,,,,,,,,,,,,,,,,,,,,,,,,,,,,,
,614e8000c429207c056429a2,627c6df6b0561b42c028cb17,2022-05-11_21h16.33.790,classification_task,2021.2.3,Win32,60.28090904,627c6715c52fd12f31907bcf,,,,,,,,,,,,,,,,,,,,,,,l,1,0.873,"[""0.061"",""0.432"",""0.567"",""0.837""]","[1,1,0,1]",0,3,3,3,1,1,1,,,1,FALSE,,,,,,,,,,,,,,,,,,,,,,,,,,,,,,,
,614e8000c429207c056429a2,627c6df6b0561b42c028cb17,2022-05-11_21h16.33.790,classification_task,2021.2.3,Win32,60.28090904,627c6715c52fd12f31907bcf,,,,,,,,,,,,,,,,,,,,,,,l,1,1.216,"[""0.120"",""0.567"",""0.645"",""0.713""]","[1,0,1,1]",0,4,4,4,1,1,0,,,1,FALSE,,,,,,,,,,,,,,,,,,,,,,,,,,,,,,,
,614e8000c429207c056429a2,627c6df6b0561b42c028cb17,2022-05-11_21h16.33.790,classification_task,2021.2.3,Win32,60.28090904,627c6715c52fd12f31907bcf,,,,,,,,,,,,,,,,,,,,,,,l,1,1.8138,"[""0.486"",""0.187"",""0.645"",""0.713""]","[0,1,1,1]",0,5,5,5,1,1,0,,,1,FALSE,,,,,,,,,,,,,,,,,,,,,,,,,,,,,,,
,614e8000c429207c056429a2,627c6df6b0561b42c028cb17,2022-05-11_21h16.33.790,classification_task,2021.2.3,Win32,60.28090904,627c6715c52fd12f31907bcf,,,,,,,,,,,,,,,,,,,,,,,l,1,1.0886,"[""0.120"",""0.187"",""0.645"",""0.570""]","[1,1,1,0]",0,6,6,6,1,1,0,,,1,FALSE,,,,,,,,,,,,,,,,,,,,,,,,,,,,,,,
,614e8000c429207c056429a2,627c6df6b0561b42c028cb17,2022-05-11_21h16.33.790,classification_task,2021.2.3,Win32,60.28090904,627c6715c52fd12f31907bcf,,,,,,,,,,,,,,,,,,,,,,,a,1,1.1058,"[""0.229"",""0.321"",""0.913"",""0.948""]","[1,0,1,1]",0,7,7,7,1,0,1,,,1,FALSE,,,,,,,,,,,,,,,,,,,,,,,,,,,,,,,
,614e8000c429207c056429a2,627c6df6b0561b42c028cb17,2022-05-11_21h16.33.790,classification_task,2021.2.3,Win32,60.28090904,627c6715c52fd12f31907bcf,,,,,,,,,,,,,,,,,,,,,,,a,1,0.9522,"[""0.271"",""0.362"",""0.770"",""0.585""]","[1,1,1,0]",0,8,8,8,1,0,0,,,1,FALSE,,,,,,,,,,,,,,,,,,,,,,,,,,,,,,,
,614e8000c429207c056429a2,627c6df6b0561b42c028cb17,2022-05-11_21h16.33.790,classification_task,2021.2.3,Win32,60.28090904,627c6715c52fd12f31907bcf,,,,,,,,,,,,,,,,,,,,,,,a,1,0.67,"[""0.271"",""0.362"",""0.570"",""0.871""]","[1,1,0,1]",0,9,9,9,1,0,0,,,1,FALSE,,,,,,,,,,,,,,,,,,,,,,,,,,,,,,,
,614e8000c429207c056429a2,627c6df6b0561b42c028cb17,2022-05-11_21h16.33.790,classification_task,2021.2.3,Win32,60.28090904,627c6715c52fd12f31907bcf,,,,,,,,,,,,,,,,,,,,,,,l,1,1.7812,"[""0.610"",""0.432"",""0.524"",""0.837""]","[0,1,1,1]",0,10,10,10,1,1,1,,,1,FALSE,,,,,,,,,,,,,,,,,,,,,,,,,,,,,,,
,614e8000c429207c056429a2,627c6df6b0561b42c028cb17,2022-05-11_21h16.33.790,classification_task,2021.2.3,Win32,60.28090904,627c6715c52fd12f31907bcf,,,,,,,,,,,,,,,,,,,,,,,l,0,0.9628,"[""0.567"",""0.362"",""0.770"",""0.871""]","[0,1,1,1]",0,11,11,11,1,0,0,,,1,FALSE,,,,,,,,,,,,,,,,,,,,,,,,,,,,,,,
,614e8000c429207c056429a2,627c6df6b0561b42c028cb17,2022-05-11_21h16.33.790,classification_task,2021.2.3,Win32,60.28090904,627c6715c52fd12f31907bcf,,,,,,,,,,,,,,,,,,,,,,,l,1,0.8705,"[""0.120"",""0.187"",""0.475"",""0.713""]","[1,1,0,1]",0,12,12,12,1,1,0,,,1,FALSE,,,,,,,,,,,,,,,,,,,,,,,,,,,,,,,
,614e8000c429207c056429a2,627c6df6b0561b42c028cb17,2022-05-11_21h16.33.790,classification_task,2021.2.3,Win32,60.28090904,627c6715c52fd12f31907bcf,,,,,,,,,,,,,,,,,,,,,,,a,1,1.469,"[""0.585"",""0.396"",""0.913"",""0.948""]","[0,1,1,1]",0,13,13,13,1,0,1,,,1,FALSE,,,,,,,,,,,,,,,,,,,,,,,,,,,,,,,
,614e8000c429207c056429a2,627c6df6b0561b42c028cb17,2022-05-11_21h16.33.790,classification_task,2021.2.3,Win32,60.28090904,627c6715c52fd12f31907bcf,,,,,,,,,,,,,,,,,,,,,,,l,1,1.0101,"[""0.061"",""0.324"",""0.524"",""0.837""]","[1,0,1,1]",0,14,14,14,1,1,1,,,1,FALSE,,,,,,,,,,,,,,,,,,,,,,,,,,,,,,,
,614e8000c429207c056429a2,627c6df6b0561b42c028cb17,2022-05-11_21h16.33.790,classification_task,2021.2.3,Win32,60.28090904,627c6715c52fd12f31907bcf,,,,,,,,,,,,,,,,,,,,,,,a,1,1.0727,"[""0.229"",""0.396"",""0.486"",""0.948""]","[1,1,0,1]",0,15,15,15,1,0,1,,,1,FALSE,,,,,,,,,,,,,,,,,,,,,,,,,,,,,,,
,614e8000c429207c056429a2,627c6df6b0561b42c028cb17,2022-05-11_21h16.33.790,classification_task,2021.2.3,Win32,60.28090904,627c6715c52fd12f31907bcf,,,,,,,,,,,,,,,,,,,,,,,a,1,1.7298,"[""0.271"",""0.362"",""0.770"",""0.486""]","[1,1,1,0]",0,16,16,16,1,0,0,,,1,FALSE,,,,,,,,,,,,,,,,,,,,,,,,,,,,,,,
,614e8000c429207c056429a2,627c6df6b0561b42c028cb17,2022-05-11_21h16.33.790,classification_task,2021.2.3,Win32,60.28090904,627c6715c52fd12f31907bcf,,,,,,,,,,,,,,,,,,,,,,,l,1,0.9507,"[""0.120"",""0.187"",""0.645"",""0.489""]","[1,1,1,0]",0,17,17,17,1,1,0,,,1,FALSE,,,,,,,,,,,,,,,,,,,,,,,,,,,,,,,
,614e8000c429207c056429a2,627c6df6b0561b42c028cb17,2022-05-11_21h16.33.790,classification_task,2021.2.3,Win32,60.28090904,627c6715c52fd12f31907bcf,,,,,,,,,,,,,,,,,,,,,,,l,1,1.1171,"[""0.061"",""0.432"",""0.475"",""0.837""]","[1,1,0,1]",0,18,18,18,1,1,1,,,1,FALSE,,,,,,,,,,,,,,,,,,,,,,,,,,,,,,,
,614e8000c429207c056429a2,627c6df6b0561b42c028cb17,2022-05-11_21h16.33.790,classification_task,2021.2.3,Win32,60.28090904,627c6715c52fd12f31907bcf,,,,,,,,,,,,,,,,,,,,,,,l,1,2.0445,"[""0.120"",""0.187"",""0.592"",""0.713""]","[1,1,0,1]",0,19,19,19,1,1,0,,,1,FALSE,,,,,,,,,,,,,,,,,,,,,,,,,,,,,,,
,614e8000c429207c056429a2,627c6df6b0561b42c028cb17,2022-05-11_21h16.33.790,classification_task,2021.2.3,Win32,60.28090904,627c6715c52fd12f31907bcf,,,,,,,,,,,,,,,,,,,,,,,l,1,0.8765,"[""0.061"",""0.567"",""0.524"",""0.837""]","[1,0,1,1]",0,20,20,20,1,1,1,,,1,FALSE,,,,,,,,,,,,,,,,,,,,,,,,,,,,,,,
,614e8000c429207c056429a2,627c6df6b0561b42c028cb17,2022-05-11_21h16.33.790,classification_task,2021.2.3,Win32,60.28090904,627c6715c52fd12f31907bcf,,,,,,,,,,,,,,,,,,,,,,,a,1,0.9979,"[""0.229"",""0.307"",""0.913"",""0.948""]","[1,0,1,1]",0,21,21,21,1,0,1,,,1,FALSE,,,,,,,,,,,,,,,,,,,,,,,,,,,,,,,
,614e8000c429207c056429a2,627c6df6b0561b42c028cb17,2022-05-11_21h16.33.790,classification_task,2021.2.3,Win32,60.28090904,627c6715c52fd12f31907bcf,,,,,,,,,,,,,,,,,,,,,,,a,1,1.1653,"[""0.229"",""0.396"",""0.570"",""0.948""]","[1,1,0,1]",0,22,22,22,1,0,1,,,1,FALSE,,,,,,,,,,,,,,,,,,,,,,,,,,,,,,,
,614e8000c429207c056429a2,627c6df6b0561b42c028cb17,2022-05-11_21h16.33.790,classification_task,2021.2.3,Win32,60.28090904,627c6715c52fd12f31907bcf,,,,,,,,,,,,,,,,,,,,,,,l,1,1.0671,"[""0.568"",""0.432"",""0.524"",""0.837""]","[0,1,1,1]",0,23,23,23,1,1,1,,,1,FALSE,,,,,,,,,,,,,,,,,,,,,,,,,,,,,,,
,614e8000c429207c056429a2,627c6df6b0561b42c028cb17,2022-05-11_21h16.33.790,classification_task,2021.2.3,Win32,60.28090904,627c6715c52fd12f31907bcf,,,,,,,,,,,,,,,,,,,,,,,l,1,1.3096,"[""0.466"",""0.187"",""0.645"",""0.713""]","[0,1,1,1]",0,24,24,24,1,1,0,,,1,FALSE,,,,,,,,,,,,,,,,,,,,,,,,,,,,,,,
,614e8000c429207c056429a2,627c6df6b0561b42c028cb17,2022-05-11_21h16.33.790,classification_task,2021.2.3,Win32,60.28090904,627c6715c52fd12f31907bcf,,,,,,,,,,,,,,,,,,,,,,,l,1,0.7183,"[""0.120"",""0.567"",""0.645"",""0.713""]","[1,0,1,1]",0,25,25,25,1,1,0,,,1,FALSE,,,,,,,,,,,,,,,,,,,,,,,,,,,,,,,
,614e8000c429207c056429a2,627c6df6b0561b42c028cb17,2022-05-11_21h16.33.790,classification_task,2021.2.3,Win32,60.28090904,627c6715c52fd12f31907bcf,,,,,,,,,,,,,,,,,,,,,,,a,1,0.8285,"[""0.229"",""0.396"",""0.913"",""0.568""]","[1,1,1,0]",0,26,26,26,1,0,1,,,1,FALSE,,,,,,,,,,,,,,,,,,,,,,,,,,,,,,,
,614e8000c429207c056429a2,627c6df6b0561b42c028cb17,2022-05-11_21h16.33.790,classification_task,2021.2.3,Win32,60.28090904,627c6715c52fd12f31907bcf,,,,,,,,,,,,,,,,,,,,,,,a,1,1.0088,"[""0.271"",""0.362"",""0.560"",""0.871""]","[1,1,0,1]",0,27,27,27,1,0,0,,,1,FALSE,,,,,,,,,,,,,,,,,,,,,,,,,,,,,,,
,614e8000c429207c056429a2,627c6df6b0561b42c028cb17,2022-05-11_21h16.33.790,classification_task,2021.2.3,Win32,60.28090904,627c6715c52fd12f31907bcf,,,,,,,,,,,,,,,,,,,,,,,a,1,0.7675,"[""0.271"",""0.610"",""0.770"",""0.871""]","[1,0,1,1]",0,28,28,28,1,0,0,,,1,FALSE,,,,,,,,,,,,,,,,,,,,,,,,,,,,,,,
,614e8000c429207c056429a2,627c6df6b0561b42c028cb17,2022-05-11_21h16.33.790,classification_task,2021.2.3,Win32,60.28090904,627c6715c52fd12f31907bcf,,,,,,,,,,,,,,,,,,,,,,,l,1,0.9835,"[""0.061"",""0.432"",""0.524"",""0.489""]","[1,1,1,0]",0,29,29,29,1,1,1,,,1,FALSE,,,,,,,,,,,,,,,,,,,,,,,,,,,,,,,
,614e8000c429207c056429a2,627c6df6b0561b42c028cb17,2022-05-11_21h16.33.790,classification_task,2021.2.3,Win32,60.28090904,627c6715c52fd12f31907bcf,,,,,,,,,,,,,,,,,,,,,,,l,0,2.2363,"[""0.466"",""0.396"",""0.913"",""0.948""]","[0,1,1,1]",0,30,30,30,1,0,1,,,1,FALSE,,,,,,,,,,,,,,,,,,,,,,,,,,,,,,,
,614e8000c429207c056429a2,627c6df6b0561b42c028cb17,2022-05-11_21h16.33.790,classification_task,2021.2.3,Win32,60.28090904,627c6715c52fd12f31907bcf,,,,,,,,,,,,,,,,,,,,,,,a,1,1.3539,"[""0.574"",""0.362"",""0.770"",""0.871""]","[0,1,1,1]",0,31,31,31,1,0,0,,,1,FALSE,,,,,,,,,,,,,,,,,,,,,,,,,,,,,,,
,614e8000c429207c056429a2,627c6df6b0561b42c028cb17,2022-05-11_21h16.33.790,classification_task,2021.2.3,Win32,60.28090904,627c6715c52fd12f31907bcf,,,,,,,,,,,,,,,,,,,,,,,a,1,0.7994,"[""0.307"",""0.362"",""0.770"",""0.871""]","[0,1,1,1]",0,32,32,32,1,0,0,,,1,FALSE,,,,,,,,,,,,,,,,,,,,,,,,,,,,,,,
,614e8000c429207c056429a2,627c6df6b0561b42c028cb17,2022-05-11_21h16.33.790,classification_task,2021.2.3,Win32,60.28090904,627c6715c52fd12f31907bcf,,,,,,,,,,,,,,,,,,,,,,,l,1,1.0781,"[""0.585"",""0.187"",""0.645"",""0.713""]","[0,1,1,1]",0,33,33,33,1,1,0,,,1,FALSE,,,,,,,,,,,,,,,,,,,,,,,,,,,,,,,
,614e8000c429207c056429a2,627c6df6b0561b42c028cb17,2022-05-11_21h16.33.790,classification_task,2021.2.3,Win32,60.28090904,627c6715c52fd12f31907bcf,,,,,,,,,,,,,,,,,,,,,,,a,1,1.1144,"[""0.229"",""0.568"",""0.913"",""0.948""]","[1,0,1,1]",0,34,34,34,1,0,1,,,1,FALSE,,,,,,,,,,,,,,,,,,,,,,,,,,,,,,,
,614e8000c429207c056429a2,627c6df6b0561b42c028cb17,2022-05-11_21h16.33.790,classification_task,2021.2.3,Win32,60.28090904,627c6715c52fd12f31907bcf,,,,,,,,,,,,,,,,,,,,,,,a,1,1.4066,"[""0.271"",""0.321"",""0.770"",""0.871""]","[1,0,1,1]",0,35,35,35,1,0,0,,,1,FALSE,,,,,,,,,,,,,,,,,,,,,,,,,,,,,,,
,614e8000c429207c056429a2,627c6df6b0561b42c028cb17,2022-05-11_21h16.33.790,classification_task,2021.2.3,Win32,60.28090904,627c6715c52fd12f31907bcf,,,,,,,,,,,,,,,,,,,,,,,l,1,0.8093,"[""0.061"",""0.475"",""0.524"",""0.837""]","[1,0,1,1]",0,36,36,36,1,1,1,,,1,FALSE,,,,,,,,,,,,,,,,,,,,,,,,,,,,,,,
,614e8000c429207c056429a2,627c6df6b0561b42c028cb17,2022-05-11_21h16.33.790,classification_task,2021.2.3,Win32,60.28090904,627c6715c52fd12f31907bcf,,,,,,,,,,,,,,,,,,,,,,,a,1,1.2211,"[""0.229"",""0.396"",""0.486"",""0.948""]","[1,1,0,1]",0,37,37,37,1,0,1,,,1,FALSE,,,,,,,,,,,,,,,,,,,,,,,,,,,,,,,
,614e8000c429207c056429a2,627c6df6b0561b42c028cb17,2022-05-11_21h16.33.790,classification_task,2021.2.3,Win32,60.28090904,627c6715c52fd12f31907bcf,,,,,,,,,,,,,,,,,,,,,,,l,1,1.0713,"[""0.120"",""0.187"",""0.645"",""0.468""]","[1,1,1,0]",0,38,38,38,1,1,0,,,1,FALSE,,,,,,,,,,,,,,,,,,,,,,,,,,,,,,,
,614e8000c429207c056429a2,627c6df6b0561b42c028cb17,2022-05-11_21h16.33.790,classification_task,2021.2.3,Win32,60.28090904,627c6715c52fd12f31907bcf,,,,,,,,,,,,,,,,,,,,,,,a,1,1.3432,"[""0.610"",""0.396"",""0.913"",""0.948""]","[0,1,1,1]",0,39,39,39,1,0,1,,,1,FALSE,,,,,,,,,,,,,,,,,,,,,,,,,,,,,,,
,614e8000c429207c056429a2,627c6df6b0561b42c028cb17,2022-05-11_21h16.33.790,classification_task,2021.2.3,Win32,60.28090904,627c6715c52fd12f31907bcf,,,,,,,,,,,,,,,,,,,,,,,a,0,4.2538,"[""0.321"",""0.432"",""0.524"",""0.837""]","[0,1,1,1]",0,40,40,40,1,1,1,,,1,FALSE,,,,,,,,,,,,,,,,,,,,,,,,,,,,,,,
,614e8000c429207c056429a2,627c6df6b0561b42c028cb17,2022-05-11_21h16.33.790,classification_task,2021.2.3,Win32,60.28090904,627c6715c52fd12f31907bcf,,,,,,,,,,,,,,,,,,,,,,,a,1,1.0003,"[""0.271"",""0.362"",""0.592"",""0.871""]","[1,1,0,1]",0,41,41,41,1,0,0,,,1,FALSE,,,,,,,,,,,,,,,,,,,,,,,,,,,,,,,
,614e8000c429207c056429a2,627c6df6b0561b42c028cb17,2022-05-11_21h16.33.790,classification_task,2021.2.3,Win32,60.28090904,627c6715c52fd12f31907bcf,,,,,,,,,,,,,,,,,,,,,,,l,1,0.9363,"[""0.120"",""0.187"",""0.475"",""0.713""]","[1,1,0,1]",0,42,42,42,1,1,0,,,1,FALSE,,,,,,,,,,,,,,,,,,,,,,,,,,,,,,,
,614e8000c429207c056429a2,627c6df6b0561b42c028cb17,2022-05-11_21h16.33.790,classification_task,2021.2.3,Win32,60.28090904,627c6715c52fd12f31907bcf,,,,,,,,,,,,,,,,,,,,,,,l,1,1.4124,"[""0.061"",""0.432"",""0.560"",""0.837""]","[1,1,0,1]",0,43,43,43,1,1,1,,,1,FALSE,,,,,,,,,,,,,,,,,,,,,,,,,,,,,,,
,614e8000c429207c056429a2,627c6df6b0561b42c028cb17,2022-05-11_21h16.33.790,classification_task,2021.2.3,Win32,60.28090904,627c6715c52fd12f31907bcf,,,,,,,,,,,,,,,,,,,,,,,a,1,0.905,"[""0.229"",""0.396"",""0.913"",""0.321""]","[1,1,1,0]",0,44,44,44,1,0,1,,,1,FALSE,,,,,,,,,,,,,,,,,,,,,,,,,,,,,,,
,614e8000c429207c056429a2,627c6df6b0561b42c028cb17,2022-05-11_21h16.33.790,classification_task,2021.2.3,Win32,60.28090904,627c6715c52fd12f31907bcf,,,,,,,,,,,,,,,,,,,,,,,a,1,1,"[""0.271"",""0.362"",""0.770"",""0.574""]","[1,1,1,0]",0,45,45,45,1,0,0,,,1,FALSE,,,,,,,,,,,,,,,,,,,,,,,,,,,,,,,
,614e8000c429207c056429a2,627c6df6b0561b42c028cb17,2022-05-11_21h16.33.790,classification_task,2021.2.3,Win32,60.28090904,627c6715c52fd12f31907bcf,,,,,,,,,,,,,,,,,,,,,,,l,1,0.8397,"[""0.120"",""0.468"",""0.645"",""0.713""]","[1,0,1,1]",0,46,46,46,1,1,0,,,1,FALSE,,,,,,,,,,,,,,,,,,,,,,,,,,,,,,,
,614e8000c429207c056429a2,627c6df6b0561b42c028cb17,2022-05-11_21h16.33.790,classification_task,2021.2.3,Win32,60.28090904,627c6715c52fd12f31907bcf,,,,,,,,,,,,,,,,,,,,,,,l,1,0.8822,"[""0.061"",""0.432"",""0.524"",""0.568""]","[1,1,1,0]",0,47,47,47,1,1,1,,,1,FALSE,,,,,,,,,,,,,,,,,,,,,,,,,,,,,,,
,614e8000c429207c056429a2,627c6df6b0561b42c028cb17,2022-05-11_21h16.33.790,classification_task,2021.2.3,Win32,60.28090904,627c6715c52fd12f31907bcf,,,,,,,,,,,,,,,,,,,,,,,a,1,0.8737,"[""0.229"",""0.396"",""0.610"",""0.948""]","[1,1,0,1]",0,48,48,48,1,0,1,,,1,FALSE,,,,,,,,,,,,,,,,,,,,,,,,,,,,,,,
,614e8000c429207c056429a2,627c6df6b0561b42c028cb17,2022-05-11_21h16.33.790,classification_task,2021.2.3,Win32,60.28090904,627c6715c52fd12f31907bcf,,,,,,,,,,,,,,,,,,,,,,,a,1,0.7696,"[""0.229"",""0.396"",""0.913"",""0.489""]","[1,1,1,0]",0,49,49,49,1,0,1,,,1,FALSE,,,,,,,,,,,,,,,,,,,,,,,,,,,,,,,
,614e8000c429207c056429a2,627c6df6b0561b42c028cb17,2022-05-11_21h16.33.790,classification_task,2021.2.3,Win32,60.28090904,627c6715c52fd12f31907bcf,,,,,,,,,,,,,,,,,,,,,,,l,1,1.3807,"[""0.570"",""0.187"",""0.645"",""0.713""]","[0,1,1,1]",0,50,50,50,1,1,0,,,1,FALSE,,,,,,,,,,,,,,,,,,,,,,,,,,,,,,,
,614e8000c429207c056429a2,627c6df6b0561b42c028cb17,2022-05-11_21h16.33.790,classification_task,2021.2.3,Win32,60.28090904,627c6715c52fd12f31907bcf,,,,,,,,,,,,,,,,,,,,,,,l,1,0.9148,"[""0.061"",""0.468"",""0.524"",""0.837""]","[1,0,1,1]",0,51,51,51,1,1,1,,,1,FALSE,,,,,,,,,,,,,,,,,,,,,,,,,,,,,,,
,614e8000c429207c056429a2,627c6df6b0561b42c028cb17,2022-05-11_21h16.33.790,classification_task,2021.2.3,Win32,60.28090904,627c6715c52fd12f31907bcf,,,,,,,,,,,,,,,,,,,,,,,a,1,1.2343,"[""0.307"",""0.396"",""0.913"",""0.948""]","[0,1,1,1]",0,52,52,52,1,0,1,,,1,FALSE,,,,,,,,,,,,,,,,,,,,,,,,,,,,,,,
,614e8000c429207c056429a2,627c6df6b0561b42c028cb17,2022-05-11_21h16.33.790,classification_task,2021.2.3,Win32,60.28090904,627c6715c52fd12f31907bcf,,,,,,,,,,,,,,,,,,,,,,,a,1,1.2258,"[""0.271"",""0.362"",""0.770"",""0.574""]","[1,1,1,0]",0,53,53,53,1,0,0,,,1,FALSE,,,,,,,,,,,,,,,,,,,,,,,,,,,,,,,
,614e8000c429207c056429a2,627c6df6b0561b42c028cb17,2022-05-11_21h16.33.790,classification_task,2021.2.3,Win32,60.28090904,627c6715c52fd12f31907bcf,,,,,,,,,,,,,,,,,,,,,,,l,1,1.0854,"[""0.061"",""0.432"",""0.307"",""0.837""]","[1,1,0,1]",0,54,54,54,1,1,1,,,1,FALSE,,,,,,,,,,,,,,,,,,,,,,,,,,,,,,,
,614e8000c429207c056429a2,627c6df6b0561b42c028cb17,2022-05-11_21h16.33.790,classification_task,2021.2.3,Win32,60.28090904,627c6715c52fd12f31907bcf,,,,,,,,,,,,,,,,,,,,,,,a,1,1.6407,"[""0.271"",""0.592"",""0.770"",""0.871""]","[1,0,1,1]",0,55,55,55,1,0,0,,,1,FALSE,,,,,,,,,,,,,,,,,,,,,,,,,,,,,,,
,614e8000c429207c056429a2,627c6df6b0561b42c028cb17,2022-05-11_21h16.33.790,classification_task,2021.2.3,Win32,60.28090904,627c6715c52fd12f31907bcf,,,,,,,,,,,,,,,,,,,,,,,l,1,0.7672,"[""0.570"",""0.432"",""0.524"",""0.837""]","[0,1,1,1]",0,56,56,56,1,1,1,,,1,FALSE,,,,,,,,,,,,,,,,,,,,,,,,,,,,,,,
,614e8000c429207c056429a2,627c6df6b0561b42c028cb17,2022-05-11_21h16.33.790,classification_task,2021.2.3,Win32,60.28090904,627c6715c52fd12f31907bcf,,,,,,,,,,,,,,,,,,,,,,,a,1,0.7842,"[""0.229"",""0.486"",""0.913"",""0.948""]","[1,0,1,1]",0,57,57,57,1,0,1,,,1,FALSE,,,,,,,,,,,,,,,,,,,,,,,,,,,,,,,
,614e8000c429207c056429a2,627c6df6b0561b42c028cb17,2022-05-11_21h16.33.790,classification_task,2021.2.3,Win32,60.28090904,627c6715c52fd12f31907bcf,,,,,,,,,,,,,,,,,,,,,,,a,1,1.4862,"[""0.307"",""0.362"",""0.770"",""0.871""]","[0,1,1,1]",0,58,58,58,1,0,0,,,1,FALSE,,,,,,,,,,,,,,,,,,,,,,,,,,,,,,,
,614e8000c429207c056429a2,627c6df6b0561b42c028cb17,2022-05-11_21h16.33.790,classification_task,2021.2.3,Win32,60.28090904,627c6715c52fd12f31907bcf,,,,,,,,,,,,,,,,,,,,,,,l,1,1.0419,"[""0.120"",""0.187"",""0.645"",""0.307""]","[1,1,1,0]",0,59,59,59,1,1,0,,,1,FALSE,,,,,,,,,,,,,,,,,,,,,,,,,,,,,,,
,614e8000c429207c056429a2,627c6df6b0561b42c028cb17,2022-05-11_21h16.33.790,classification_task,2021.2.3,Win32,60.28090904,627c6715c52fd12f31907bcf,,,,,,,,,,,,,,,,,,,,,,,a,1,1.3561,"[""0.271"",""0.362"",""0.324"",""0.871""]","[1,1,0,1]",0,60,60,60,1,0,0,,,1,FALSE,,,,,,,,,,,,,,,,,,,,,,,,,,,,,,,
,614e8000c429207c056429a2,627c6df6b0561b42c028cb17,2022-05-11_21h16.33.790,classification_task,2021.2.3,Win32,60.28090904,627c6715c52fd12f31907bcf,,,,,,,,,,,,,,,,,,,,,,,l,1,0.954,"[""0.061"",""0.432"",""0.524"",""0.475""]","[1,1,1,0]",0,61,61,61,1,1,1,,,1,FALSE,,,,,,,,,,,,,,,,,,,,,,,,,,,,,,,
,614e8000c429207c056429a2,627c6df6b0561b42c028cb17,2022-05-11_21h16.33.790,classification_task,2021.2.3,Win32,60.28090904,627c6715c52fd12f31907bcf,,,,,,,,,,,,,,,,,,,,,,,l,1,1.1233,"[""0.120"",""0.475"",""0.645"",""0.713""]","[1,0,1,1]",0,62,62,62,1,1,0,,,1,FALSE,,,,,,,,,,,,,,,,,,,,,,,,,,,,,,,
,614e8000c429207c056429a2,627c6df6b0561b42c028cb17,2022-05-11_21h16.33.790,classification_task,2021.2.3,Win32,60.28090904,627c6715c52fd12f31907bcf,,,,,,,,,,,,,,,,,,,,,,,l,1,0.9499,"[""0.120"",""0.187"",""0.560"",""0.713""]","[1,1,0,1]",0,63,63,63,1,1,0,,,1,FALSE,,,,,,,,,,,,,,,,,,,,,,,,,,,,,,,
,614e8000c429207c056429a2,627c6df6b0561b42c028cb17,2022-05-11_21h16.33.790,classification_task,2021.2.3,Win32,60.28090904,627c6715c52fd12f31907bcf,,,,,,,,,,,,,,,,,,,,,,,,,,,,,,,,,,,,,,,0, ,,0,1.527778899,147.8111,0,2,2,2,1,2,3,,,,,,,,,,,,,,,,,,
,614e8000c429207c056429a2,627c6df6b0561b42c028cb17,2022-05-11_21h16.33.790,classification_task,2021.2.3,Win32,60.28090904,627c6715c52fd12f31907bcf,,,,,,,,,,,,,,,,,,,,,,,,,,,,,,,,,,,,,,,1,  ,,0,4.393739351,148.6083,0,2,2,2,1,2,3,,,,,,,,,,,,,,,,,,
,614e8000c429207c056429a2,627c6df6b0561b42c028cb17,2022-05-11_21h16.33.790,classification_task,2021.2.3,Win32,60.28090904,627c6715c52fd12f31907bcf,,,,,,,,,,,,,,,,,,,,,,,,,,,,,,,,,,,,,,,2,  ,,0,1.503282009,149.5893,0,2,2,2,1,2,3,,,,,,,,,,,,,,,,,,
,614e8000c429207c056429a2,627c6df6b0561b42c028cb17,2022-05-11_21h16.33.790,classification_task,2021.2.3,Win32,60.28090904,627c6715c52fd12f31907bcf,,,,,,,,,,,,,,,,,,,,,,,,,,,,,,,,,,,,,,,,,,,,,0,2,2,2,1,,3,,,,,,,,,,,,,,,,,,
,614e8000c429207c056429a2,627c6df6b0561b42c028cb17,2022-05-11_21h16.33.790,classification_task,2021.2.3,Win32,60.28090904,627c6715c52fd12f31907bcf,,,,,,,,,,,,,,,,,,,,,,,,,,,,,,,,,,,,,,,,,,,,,,,,,,,,,I believe the aid is a competent performer,,0.7,0,4,685.5272,0,0,0,0,1,0,,,,,
,614e8000c429207c056429a2,627c6df6b0561b42c028cb17,2022-05-11_21h16.33.790,classification_task,2021.2.3,Win32,60.28090904,627c6715c52fd12f31907bcf,,,,,,,,,,,,,,,,,,,,,,,,,,,,,,,,,,,,,,,,,,,,,,,,,,,,,I trust the aid,,0.7,0,3,689.1119,0,0,0,0,1,0,,,,,
,614e8000c429207c056429a2,627c6df6b0561b42c028cb17,2022-05-11_21h16.33.790,classification_task,2021.2.3,Win32,60.28090904,627c6715c52fd12f31907bcf,,,,,,,,,,,,,,,,,,,,,,,,,,,,,,,,,,,,,,,,,,,,,,,,,,,,,I have confidence in the advice given by the aid,,0.7,0,4,690.3822,0,0,0,0,1,0,,,,,
,614e8000c429207c056429a2,627c6df6b0561b42c028cb17,2022-05-11_21h16.33.790,classification_task,2021.2.3,Win32,60.28090904,627c6715c52fd12f31907bcf,,,,,,,,,,,,,,,,,,,,,,,,,,,,,,,,,,,,,,,,,,,,,,,,,,,,,I can depend on the aid,,0.7,0,3,691.9447,0,0,0,0,1,0,,,,,
,614e8000c429207c056429a2,627c6df6b0561b42c028cb17,2022-05-11_21h16.33.790,classification_task,2021.2.3,Win32,60.28090904,627c6715c52fd12f31907bcf,,,,,,,,,,,,,,,,,,,,,,,,,,,,,,,,,,,,,,,,,,,,,,,,,,,,,I can rely on the aid to behave in consistent ways,,0.7,0,4,694.9924,0,0,0,0,1,0,,,,,
,614e8000c429207c056429a2,627c6df6b0561b42c028cb17,2022-05-11_21h16.33.790,classification_task,2021.2.3,Win32,60.28090904,627c6715c52fd12f31907bcf,,,,,,,,,,,,,,,,,,,,,,,,,,,,,,,,,,,,,,,,,,,,,,,,,,,,,I can rely on the aid to do its best every time I take its advice,,0.7,0,4,697.2389,0,0,0,0,1,0,,,,,
,614e8000c429207c056429a2,627c6df6b0561b42c028cb17,2022-05-11_21h16.33.790,classification_task,2021.2.3,Win32,60.28090904,627c6715c52fd12f31907bcf,,,,,,,,,,,,,,,,,,,,,,,,,,,,,,,,,,,,,,,,,,,,,,,,,,,,,"On trials you completed with assistance from the aid, how frequently did you think the aid was correct?",,0.7,0,75%,,0,0,0,0,1,0,,,,,
,614e8000c429207c056429a2,627c6df6b0561b42c028cb17,2022-05-11_21h16.33.790,classification_task,2021.2.3,Win32,60.28090904,627c6715c52fd12f31907bcf,,,,,,,,,,,,,,,,,,,,,,,,,,,,,,,,,,,,,,,,,,,,,,,,,,,,,"On trials you completed without the aid, how frequently did you think you were correct?",,0.7,0,65%,,0,0,0,0,1,0,,,,,
,614e8000c429207c056429a2,627c6df6b0561b42c028cb17,2022-05-11_21h16.33.790,classification_task,2021.2.3,Win32,60.28090904,627c6715c52fd12f31907bcf,,,,,,,,,,,,,,,,,,,,,,,,,,,,,,,,,,,,,,,,,,,,,,,,,,,,,,,,,,,0,0,0,0,1,,,,,,
,614e8000c429207c056429a2,627c6df6b0561b42c028cb17,2022-05-11_21h16.33.790,classification_task,2021.2.3,Win32,60.28090904,627c6715c52fd12f31907bcf,,,,,,,,,,,,,,,,,,,,,,,,,,,,,,,,,,,,,,,,,,,,,,,,,,,,,,,,,,,,,,,,,space,13.41,741.6629,,
,614e8000c429207c056429a2,627c6df6b0561b42c028cb17,2022-05-11_21h16.33.790,classification_task,2021.2.3,Win32,60.28090904,627c6715c52fd12f31907bcf,,,,,,,,,,,,,,,,,,,,,,,,,,,,,,,,,,,,,,,,,,,,,,,,,,,,,,,,,,,,,,,,,,,,"Mozilla/5.0 (Windows NT 10.0; Win64; x64) AppleWebKit/537.36 (KHTML, like Gecko) Chrome/99.0.4844.84 Safari/537.36 OPR/85.0.4341.79",
,614e8000c429207c056429a2,627c6df6b0561b42c028cb17,2022-05-11_21h16.33.790,classification_task,2021.2.3,Win32,60.28090904,627c6715c52fd12f31907bcf,,,,,,,,,,,,,,,,,,,,,,,,,,,,,,,,,,,,,,,,,,,,,,,,,,,,,,,,,,,,,,,,,,,,,LOWLIGHT
