usingWebGL,participant,session,date,expName,psychopyVersion,OS,frameRate,PROLIFIC_PID,STUDY_ID,SESSION_ID,signatures_friend,signatures_foe,band_ranges_top,band_ranges_bottom,formitemText,formtype,formundefined,formitemWidth,formindex,formresponse,formrt,key_resp_2.keys,key_resp_2.rt,tute_resp.keys,tute_resp.rt,tutorial.thisRepN,tutorial.thisTrialN,tutorial.thisN,tutorial.thisIndex,tutorial.ran,key_resp_4.keys,key_resp_4.rt,key_resp.keys,key_resp.corr,key_resp.rt,lines_presented,is_signal_presented,trials.thisRepN,trials.thisTrialN,trials.thisN,trials.thisIndex,trials.ran,vessel,active_band,lines,is_signal,supported_pos,catch_trial,debrief_formindex,debrief_formitemText,debrief_formtype,debrief_formitemWidth,debrief_formresponse,debrief_formrt,phases.thisRepN,phases.thisTrialN,phases.thisN,phases.thisIndex,phases.ran,phases.order,phase,key_resp_3.keys,trustitemText,trusttype,trustitemWidth,trustindex,trustresponse,trustrt,support_status.thisRepN,support_status.thisTrialN,support_status.thisN,support_status.thisIndex,support_status.ran,support_status.order,key_resp_5.keys,key_resp_5.rt,globalClockTime,userAgent
TRUE,614e72b4805ce58a5835427d,001,2022-04-29_02h07.10.719,classification_task,2021.2.3,Win32,60.0060006,614e72b4805ce58a5835427d,626b377229c10585ec392f89,626b3a2c9ed5246871e533fb,,,,,,,,,,,,,,,,,,,,,,,,,,,,,,,,,,,,,,,,,,,,,,,,,,,,,,,,,,,,,,,,,,,,
,614e72b4805ce58a5835427d,001,2022-04-29_02h07.10.719,classification_task,2021.2.3,Win32,60.0060006,614e72b4805ce58a5835427d,626b377229c10585ec392f89,626b3a2c9ed5246871e533fb,"[[""0.236"",""0.376"",""0.828"",""0.880""],[""0.293"",""0.434"",""0.591"",""0.920""]]","[[""0.078"",""0.111"",""0.626"",""0.778""],[""0.026"",""0.338"",""0.537"",""0.695""]]","[1,10]","[100,1000]",Video game experience,,,0.7,0,,,,,,,,,,,,,,,,,,,,,,,,,,,,,,,,,,,,,,,,,,,,,,,,,,,,,,,,,,,
,614e72b4805ce58a5835427d,001,2022-04-29_02h07.10.719,classification_task,2021.2.3,Win32,60.0060006,614e72b4805ce58a5835427d,626b377229c10585ec392f89,626b3a2c9ed5246871e533fb,,,,,Approximately how many hours did you spend playing video games in the last week?,,,0.7,0,4,,,,,,,,,,,,,,,,,,,,,,,,,,,,,,,,,,,,,,,,,,,,,,,,,,,,,,,,,,
,614e72b4805ce58a5835427d,001,2022-04-29_02h07.10.719,classification_task,2021.2.3,Win32,60.0060006,614e72b4805ce58a5835427d,626b377229c10585ec392f89,626b3a2c9ed5246871e533fb,,,,,"Which game did you play the most this year? (Enter ""None"" if you didn't play any)",,,0.7,0,FIFA,,,,,,,,,,,,,,,,,,,,,,,,,,,,,,,,,,,,,,,,,,,,,,,,,,,,,,,,,,
,614e72b4805ce58a5835427d,001,2022-04-29_02h07.10.719,classification_task,2021.2.3,Win32,60.0060006,614e72b4805ce58a5835427d,626b377229c10585ec392f89,626b3a2c9ed5246871e533fb,,,,,Visual perception,,,0.7,0,,,,,,,,,,,,,,,,,,,,,,,,,,,,,,,,,,,,,,,,,,,,,,,,,,,,,,,,,,,
,614e72b4805ce58a5835427d,001,2022-04-29_02h07.10.719,classification_task,2021.2.3,Win32,60.0060006,614e72b4805ce58a5835427d,626b377229c10585ec392f89,626b3a2c9ed5246871e533fb,,,,,Do you have any form of color blindness?,,,0.7,0,No,24.9193,,,,,,,,,,,,,,,,,,,,,,,,,,,,,,,,,,,,,,,,,,,,,,,,,,,,,,,,,
,614e72b4805ce58a5835427d,001,2022-04-29_02h07.10.719,classification_task,2021.2.3,Win32,60.0060006,614e72b4805ce58a5835427d,626b377229c10585ec392f89,626b3a2c9ed5246871e533fb,,,,,Do you use software to change the colour temperature of your screen (e.g. f.lux)?,,,0.7,0,No,27.5837,,,,,,,,,,,,,,,,,,,,,,,,,,,,,,,,,,,,,,,,,,,,,,,,,,,,,,,,,
,614e72b4805ce58a5835427d,001,2022-04-29_02h07.10.719,classification_task,2021.2.3,Win32,60.0060006,614e72b4805ce58a5835427d,626b377229c10585ec392f89,626b3a2c9ed5246871e533fb,,,,,,,,,,,,space,26.9457,space,8.2156,0,0,0,0,1,,,,,,,,,,,,,,,,,,,,,,,,,,,,,,,,,,,,,,,,,,,,,,,,
,614e72b4805ce58a5835427d,001,2022-04-29_02h07.10.719,classification_task,2021.2.3,Win32,60.0060006,614e72b4805ce58a5835427d,626b377229c10585ec392f89,626b3a2c9ed5246871e533fb,,,,,,,,,,,,,,space,9.7069,1,0,1,0,1,,,,,,,,,,,,,,,,,,,,,,,,,,,,,,,,,,,,,,,,,,,,,,,,
,614e72b4805ce58a5835427d,001,2022-04-29_02h07.10.719,classification_task,2021.2.3,Win32,60.0060006,614e72b4805ce58a5835427d,626b377229c10585ec392f89,626b3a2c9ed5246871e533fb,,,,,,,,,,,,,,space,17.289,2,0,2,0,1,,,,,,,,,,,,,,,,,,,,,,,,,,,,,,,,,,,,,,,,,,,,,,,,
,614e72b4805ce58a5835427d,001,2022-04-29_02h07.10.719,classification_task,2021.2.3,Win32,60.0060006,614e72b4805ce58a5835427d,626b377229c10585ec392f89,626b3a2c9ed5246871e533fb,,,,,,,,,,,,,,space,26.3428,3,0,3,0,1,,,,,,,,,,,,,,,,,,,,,,,,,,,,,,,,,,,,,,,,,,,,,,,,
,614e72b4805ce58a5835427d,001,2022-04-29_02h07.10.719,classification_task,2021.2.3,Win32,60.0060006,614e72b4805ce58a5835427d,626b377229c10585ec392f89,626b3a2c9ed5246871e533fb,,,,,,,,,,,,,,space,5.7988,4,0,4,0,1,,,,,,,,,,,,,,,,,,,,,,,,,,,,,,,,,,,,,,,,,,,,,,,,
,614e72b4805ce58a5835427d,001,2022-04-29_02h07.10.719,classification_task,2021.2.3,Win32,60.0060006,614e72b4805ce58a5835427d,626b377229c10585ec392f89,626b3a2c9ed5246871e533fb,,,,,,,,,,,,,,,,,,,,,space,15.1456,l,1,7.1274,"[""0.078"",""0.111"",""0.152"",""0.778""]","[1,1,0,1]",0,0,0,0,1,1,0,,,0,FALSE,,,,,,,,,,,,,,,,,,,,,,,,,,,,,,
,614e72b4805ce58a5835427d,001,2022-04-29_02h07.10.719,classification_task,2021.2.3,Win32,60.0060006,614e72b4805ce58a5835427d,626b377229c10585ec392f89,626b3a2c9ed5246871e533fb,,,,,,,,,,,,,,,,,,,,,,,l,1,3.4308,"[""0.026"",""0.338"",""0.537"",""0.484""]","[1,1,1,0]",0,1,1,1,1,1,1,,,0,FALSE,,,,,,,,,,,,,,,,,,,,,,,,,,,,,,
,614e72b4805ce58a5835427d,001,2022-04-29_02h07.10.719,classification_task,2021.2.3,Win32,60.0060006,614e72b4805ce58a5835427d,626b377229c10585ec392f89,626b3a2c9ed5246871e533fb,,,,,,,,,,,,,,,,,,,,,,,a,1,2.4586,"[""0.192"",""0.376"",""0.828"",""0.880""]","[0,1,1,1]",0,2,2,2,1,0,0,,,0,FALSE,,,,,,,,,,,,,,,,,,,,,,,,,,,,,,
,614e72b4805ce58a5835427d,001,2022-04-29_02h07.10.719,classification_task,2021.2.3,Win32,60.0060006,614e72b4805ce58a5835427d,626b377229c10585ec392f89,626b3a2c9ed5246871e533fb,,,,,,,,,,,,,,,,,,,,,,,l,0,2.9453,"[""0.236"",""0.159"",""0.828"",""0.880""]","[1,0,1,1]",0,3,3,3,1,0,0,,,0,FALSE,,,,,,,,,,,,,,,,,,,,,,,,,,,,,,
,614e72b4805ce58a5835427d,001,2022-04-29_02h07.10.719,classification_task,2021.2.3,Win32,60.0060006,614e72b4805ce58a5835427d,626b377229c10585ec392f89,626b3a2c9ed5246871e533fb,,,,,,,,,,,,,,,,,,,,,,,a,1,4.6751,"[""0.152"",""0.434"",""0.591"",""0.920""]","[0,1,1,1]",0,4,4,4,1,0,1,,,0,FALSE,,,,,,,,,,,,,,,,,,,,,,,,,,,,,,
,614e72b4805ce58a5835427d,001,2022-04-29_02h07.10.719,classification_task,2021.2.3,Win32,60.0060006,614e72b4805ce58a5835427d,626b377229c10585ec392f89,626b3a2c9ed5246871e533fb,,,,,,,,,,,,,,,,,,,,,,,a,1,2.9121,"[""0.293"",""0.434"",""0.591"",""0.491""]","[1,1,1,0]",0,5,5,5,1,0,1,,,0,FALSE,,,,,,,,,,,,,,,,,,,,,,,,,,,,,,
,614e72b4805ce58a5835427d,001,2022-04-29_02h07.10.719,classification_task,2021.2.3,Win32,60.0060006,614e72b4805ce58a5835427d,626b377229c10585ec392f89,626b3a2c9ed5246871e533fb,,,,,,,,,,,,,,,,,,,,,,,l,0,5.0759,"[""0.236"",""0.376"",""0.192"",""0.880""]","[1,1,0,1]",0,6,6,6,1,0,0,,,0,FALSE,,,,,,,,,,,,,,,,,,,,,,,,,,,,,,
,614e72b4805ce58a5835427d,001,2022-04-29_02h07.10.719,classification_task,2021.2.3,Win32,60.0060006,614e72b4805ce58a5835427d,626b377229c10585ec392f89,626b3a2c9ed5246871e533fb,,,,,,,,,,,,,,,,,,,,,,,a,1,2.4949,"[""0.236"",""0.376"",""0.828"",""0.732""]","[1,1,1,0]",0,7,7,7,1,0,0,,,0,FALSE,,,,,,,,,,,,,,,,,,,,,,,,,,,,,,
,614e72b4805ce58a5835427d,001,2022-04-29_02h07.10.719,classification_task,2021.2.3,Win32,60.0060006,614e72b4805ce58a5835427d,626b377229c10585ec392f89,626b3a2c9ed5246871e533fb,,,,,,,,,,,,,,,,,,,,,,,l,1,2.5946,"[""0.190"",""0.111"",""0.626"",""0.778""]","[0,1,1,1]",0,8,8,8,1,1,0,,,0,FALSE,,,,,,,,,,,,,,,,,,,,,,,,,,,,,,
,614e72b4805ce58a5835427d,001,2022-04-29_02h07.10.719,classification_task,2021.2.3,Win32,60.0060006,614e72b4805ce58a5835427d,626b377229c10585ec392f89,626b3a2c9ed5246871e533fb,,,,,,,,,,,,,,,,,,,,,,,l,1,1.712,"[""0.078"",""0.111"",""0.626"",""0.491""]","[1,1,1,0]",0,9,9,9,1,1,0,,,0,FALSE,,,,,,,,,,,,,,,,,,,,,,,,,,,,,,
,614e72b4805ce58a5835427d,001,2022-04-29_02h07.10.719,classification_task,2021.2.3,Win32,60.0060006,614e72b4805ce58a5835427d,626b377229c10585ec392f89,626b3a2c9ed5246871e533fb,,,,,,,,,,,,,,,,,,,,,,,l,1,1.6467,"[""0.026"",""0.338"",""0.484"",""0.695""]","[1,1,0,1]",0,10,10,10,1,1,1,,,0,FALSE,,,,,,,,,,,,,,,,,,,,,,,,,,,,,,
,614e72b4805ce58a5835427d,001,2022-04-29_02h07.10.719,classification_task,2021.2.3,Win32,60.0060006,614e72b4805ce58a5835427d,626b377229c10585ec392f89,626b3a2c9ed5246871e533fb,,,,,,,,,,,,,,,,,,,,,,,l,1,2.1302,"[""0.078"",""0.732"",""0.626"",""0.778""]","[1,0,1,1]",0,11,11,11,1,1,0,,,0,FALSE,,,,,,,,,,,,,,,,,,,,,,,,,,,,,,
,614e72b4805ce58a5835427d,001,2022-04-29_02h07.10.719,classification_task,2021.2.3,Win32,60.0060006,614e72b4805ce58a5835427d,626b377229c10585ec392f89,626b3a2c9ed5246871e533fb,,,,,,,,,,,,,,,,,,,,,,,l,1,1.9311,"[""0.026"",""0.190"",""0.537"",""0.695""]","[1,0,1,1]",0,12,12,12,1,1,1,,,0,FALSE,,,,,,,,,,,,,,,,,,,,,,,,,,,,,,
,614e72b4805ce58a5835427d,001,2022-04-29_02h07.10.719,classification_task,2021.2.3,Win32,60.0060006,614e72b4805ce58a5835427d,626b377229c10585ec392f89,626b3a2c9ed5246871e533fb,,,,,,,,,,,,,,,,,,,,,,,a,1,1.8007,"[""0.293"",""0.732"",""0.591"",""0.920""]","[1,0,1,1]",0,13,13,13,1,0,1,,,0,FALSE,,,,,,,,,,,,,,,,,,,,,,,,,,,,,,
,614e72b4805ce58a5835427d,001,2022-04-29_02h07.10.719,classification_task,2021.2.3,Win32,60.0060006,614e72b4805ce58a5835427d,626b377229c10585ec392f89,626b3a2c9ed5246871e533fb,,,,,,,,,,,,,,,,,,,,,,,a,0,5.4378,"[""0.503"",""0.338"",""0.537"",""0.695""]","[0,1,1,1]",0,14,14,14,1,1,1,,,0,FALSE,,,,,,,,,,,,,,,,,,,,,,,,,,,,,,
,614e72b4805ce58a5835427d,001,2022-04-29_02h07.10.719,classification_task,2021.2.3,Win32,60.0060006,614e72b4805ce58a5835427d,626b377229c10585ec392f89,626b3a2c9ed5246871e533fb,,,,,,,,,,,,,,,,,,,,,,,a,1,1.668,"[""0.293"",""0.434"",""0.472"",""0.920""]","[1,1,0,1]",0,15,15,15,1,0,1,,,0,FALSE,,,,,,,,,,,,,,,,,,,,,,,,,,,,,,
,614e72b4805ce58a5835427d,001,2022-04-29_02h07.10.719,classification_task,2021.2.3,Win32,60.0060006,614e72b4805ce58a5835427d,626b377229c10585ec392f89,626b3a2c9ed5246871e533fb,,,,,,,,,,,,,,,,,,,,,,,l,1,1.9734,"[""0.485"",""0.111"",""0.626"",""0.778""]","[0,1,1,1]",0,16,16,16,1,1,0,,,0,FALSE,,,,,,,,,,,,,,,,,,,,,,,,,,,,,,
,614e72b4805ce58a5835427d,001,2022-04-29_02h07.10.719,classification_task,2021.2.3,Win32,60.0060006,614e72b4805ce58a5835427d,626b377229c10585ec392f89,626b3a2c9ed5246871e533fb,,,,,,,,,,,,,,,,,,,,,,,l,1,1.8044,"[""0.026"",""0.338"",""0.732"",""0.695""]","[1,1,0,1]",0,17,17,17,1,1,1,,,0,FALSE,,,,,,,,,,,,,,,,,,,,,,,,,,,,,,
,614e72b4805ce58a5835427d,001,2022-04-29_02h07.10.719,classification_task,2021.2.3,Win32,60.0060006,614e72b4805ce58a5835427d,626b377229c10585ec392f89,626b3a2c9ed5246871e533fb,,,,,,,,,,,,,,,,,,,,,,,l,1,2.6918,"[""0.078"",""0.485"",""0.626"",""0.778""]","[1,0,1,1]",0,18,18,18,1,1,0,,,0,FALSE,,,,,,,,,,,,,,,,,,,,,,,,,,,,,,
,614e72b4805ce58a5835427d,001,2022-04-29_02h07.10.719,classification_task,2021.2.3,Win32,60.0060006,614e72b4805ce58a5835427d,626b377229c10585ec392f89,626b3a2c9ed5246871e533fb,,,,,,,,,,,,,,,,,,,,,,,a,1,1.4171,"[""0.236"",""0.376"",""0.485"",""0.880""]","[1,1,0,1]",0,19,19,19,1,0,0,,,0,FALSE,,,,,,,,,,,,,,,,,,,,,,,,,,,,,,
,614e72b4805ce58a5835427d,001,2022-04-29_02h07.10.719,classification_task,2021.2.3,Win32,60.0060006,614e72b4805ce58a5835427d,626b377229c10585ec392f89,626b3a2c9ed5246871e533fb,,,,,,,,,,,,,,,,,,,,,,,l,1,1.6123,"[""0.078"",""0.111"",""0.626"",""0.157""]","[1,1,1,0]",0,20,20,20,1,1,0,,,0,FALSE,,,,,,,,,,,,,,,,,,,,,,,,,,,,,,
,614e72b4805ce58a5835427d,001,2022-04-29_02h07.10.719,classification_task,2021.2.3,Win32,60.0060006,614e72b4805ce58a5835427d,626b377229c10585ec392f89,626b3a2c9ed5246871e533fb,,,,,,,,,,,,,,,,,,,,,,,a,1,2.2544,"[""0.236"",""0.376"",""0.828"",""0.170""]","[1,1,1,0]",0,21,21,21,1,0,0,,,0,FALSE,,,,,,,,,,,,,,,,,,,,,,,,,,,,,,
,614e72b4805ce58a5835427d,001,2022-04-29_02h07.10.719,classification_task,2021.2.3,Win32,60.0060006,614e72b4805ce58a5835427d,626b377229c10585ec392f89,626b3a2c9ed5246871e533fb,,,,,,,,,,,,,,,,,,,,,,,l,1,1.6251,"[""0.026"",""0.159"",""0.537"",""0.695""]","[1,0,1,1]",0,22,22,22,1,1,1,,,0,FALSE,,,,,,,,,,,,,,,,,,,,,,,,,,,,,,
,614e72b4805ce58a5835427d,001,2022-04-29_02h07.10.719,classification_task,2021.2.3,Win32,60.0060006,614e72b4805ce58a5835427d,626b377229c10585ec392f89,626b3a2c9ed5246871e533fb,,,,,,,,,,,,,,,,,,,,,,,l,0,7.8384,"[""0.732"",""0.376"",""0.828"",""0.880""]","[0,1,1,1]",0,23,23,23,1,0,0,,,0,FALSE,,,,,,,,,,,,,,,,,,,,,,,,,,,,,,
,614e72b4805ce58a5835427d,001,2022-04-29_02h07.10.719,classification_task,2021.2.3,Win32,60.0060006,614e72b4805ce58a5835427d,626b377229c10585ec392f89,626b3a2c9ed5246871e533fb,,,,,,,,,,,,,,,,,,,,,,,a,1,3.058,"[""0.293"",""0.485"",""0.591"",""0.920""]","[1,0,1,1]",0,24,24,24,1,0,1,,,0,FALSE,,,,,,,,,,,,,,,,,,,,,,,,,,,,,,
,614e72b4805ce58a5835427d,001,2022-04-29_02h07.10.719,classification_task,2021.2.3,Win32,60.0060006,614e72b4805ce58a5835427d,626b377229c10585ec392f89,626b3a2c9ed5246871e533fb,,,,,,,,,,,,,,,,,,,,,,,a,1,2.4135,"[""0.293"",""0.434"",""0.491"",""0.920""]","[1,1,0,1]",0,25,25,25,1,0,1,,,0,FALSE,,,,,,,,,,,,,,,,,,,,,,,,,,,,,,
,614e72b4805ce58a5835427d,001,2022-04-29_02h07.10.719,classification_task,2021.2.3,Win32,60.0060006,614e72b4805ce58a5835427d,626b377229c10585ec392f89,626b3a2c9ed5246871e533fb,,,,,,,,,,,,,,,,,,,,,,,l,1,2.0587,"[""0.078"",""0.111"",""0.503"",""0.778""]","[1,1,0,1]",0,26,26,26,1,1,0,,,0,FALSE,,,,,,,,,,,,,,,,,,,,,,,,,,,,,,
,614e72b4805ce58a5835427d,001,2022-04-29_02h07.10.719,classification_task,2021.2.3,Win32,60.0060006,614e72b4805ce58a5835427d,626b377229c10585ec392f89,626b3a2c9ed5246871e533fb,,,,,,,,,,,,,,,,,,,,,,,a,1,4.3339,"[""0.484"",""0.434"",""0.591"",""0.920""]","[0,1,1,1]",0,27,27,27,1,0,1,,,0,FALSE,,,,,,,,,,,,,,,,,,,,,,,,,,,,,,
,614e72b4805ce58a5835427d,001,2022-04-29_02h07.10.719,classification_task,2021.2.3,Win32,60.0060006,614e72b4805ce58a5835427d,626b377229c10585ec392f89,626b3a2c9ed5246871e533fb,,,,,,,,,,,,,,,,,,,,,,,l,1,1.645,"[""0.026"",""0.338"",""0.537"",""0.190""]","[1,1,1,0]",0,28,28,28,1,1,1,,,0,FALSE,,,,,,,,,,,,,,,,,,,,,,,,,,,,,,
,614e72b4805ce58a5835427d,001,2022-04-29_02h07.10.719,classification_task,2021.2.3,Win32,60.0060006,614e72b4805ce58a5835427d,626b377229c10585ec392f89,626b3a2c9ed5246871e533fb,,,,,,,,,,,,,,,,,,,,,,,a,1,2.1992,"[""0.293"",""0.434"",""0.591"",""0.491""]","[1,1,1,0]",0,29,29,29,1,0,1,,,0,FALSE,,,,,,,,,,,,,,,,,,,,,,,,,,,,,,
,614e72b4805ce58a5835427d,001,2022-04-29_02h07.10.719,classification_task,2021.2.3,Win32,60.0060006,614e72b4805ce58a5835427d,626b377229c10585ec392f89,626b3a2c9ed5246871e533fb,,,,,,,,,,,,,,,,,,,,,,,a,1,2.7317,"[""0.236"",""0.192"",""0.828"",""0.880""]","[1,0,1,1]",0,30,30,30,1,0,0,,,0,FALSE,,,,,,,,,,,,,,,,,,,,,,,,,,,,,,
,614e72b4805ce58a5835427d,001,2022-04-29_02h07.10.719,classification_task,2021.2.3,Win32,60.0060006,614e72b4805ce58a5835427d,626b377229c10585ec392f89,626b3a2c9ed5246871e533fb,,,,,,,,,,,,,,,,,,,,,,,a,0,3.7755,"[""0.485"",""0.338"",""0.537"",""0.695""]","[0,1,1,1]",0,31,31,31,1,1,1,,,0,FALSE,,,,,,,,,,,,,,,,,,,,,,,,,,,,,,
,614e72b4805ce58a5835427d,001,2022-04-29_02h07.10.719,classification_task,2021.2.3,Win32,60.0060006,614e72b4805ce58a5835427d,626b377229c10585ec392f89,626b3a2c9ed5246871e533fb,,,,,,,,,,,,,,,,,,,,,,,a,1,5.7646,"[""0.293"",""0.434"",""0.591"",""0.484""]","[1,1,1,0]",0,32,32,32,1,0,1,,,0,FALSE,,,,,,,,,,,,,,,,,,,,,,,,,,,,,,
,614e72b4805ce58a5835427d,001,2022-04-29_02h07.10.719,classification_task,2021.2.3,Win32,60.0060006,614e72b4805ce58a5835427d,626b377229c10585ec392f89,626b3a2c9ed5246871e533fb,,,,,,,,,,,,,,,,,,,,,,,a,0,4.3685,"[""0.026"",""0.503"",""0.537"",""0.695""]","[1,0,1,1]",0,33,33,33,1,1,1,,,0,FALSE,,,,,,,,,,,,,,,,,,,,,,,,,,,,,,
,614e72b4805ce58a5835427d,001,2022-04-29_02h07.10.719,classification_task,2021.2.3,Win32,60.0060006,614e72b4805ce58a5835427d,626b377229c10585ec392f89,626b3a2c9ed5246871e533fb,,,,,,,,,,,,,,,,,,,,,,,a,0,3.4287,"[""0.162"",""0.338"",""0.537"",""0.695""]","[0,1,1,1]",0,34,34,34,1,1,1,,,0,FALSE,,,,,,,,,,,,,,,,,,,,,,,,,,,,,,
,614e72b4805ce58a5835427d,001,2022-04-29_02h07.10.719,classification_task,2021.2.3,Win32,60.0060006,614e72b4805ce58a5835427d,626b377229c10585ec392f89,626b3a2c9ed5246871e533fb,,,,,,,,,,,,,,,,,,,,,,,l,1,3.4123,"[""0.078"",""0.111"",""0.162"",""0.778""]","[1,1,0,1]",0,35,35,35,1,1,0,,,0,FALSE,,,,,,,,,,,,,,,,,,,,,,,,,,,,,,
,614e72b4805ce58a5835427d,001,2022-04-29_02h07.10.719,classification_task,2021.2.3,Win32,60.0060006,614e72b4805ce58a5835427d,626b377229c10585ec392f89,626b3a2c9ed5246871e533fb,,,,,,,,,,,,,,,,,,,,,,,l,0,1.6362,"[""0.293"",""0.190"",""0.591"",""0.920""]","[1,0,1,1]",0,36,36,36,1,0,1,,,0,FALSE,,,,,,,,,,,,,,,,,,,,,,,,,,,,,,
,614e72b4805ce58a5835427d,001,2022-04-29_02h07.10.719,classification_task,2021.2.3,Win32,60.0060006,614e72b4805ce58a5835427d,626b377229c10585ec392f89,626b3a2c9ed5246871e533fb,,,,,,,,,,,,,,,,,,,,,,,l,0,0.8177,"[""0.236"",""0.376"",""0.491"",""0.880""]","[1,1,0,1]",0,37,37,37,1,0,0,,,0,FALSE,,,,,,,,,,,,,,,,,,,,,,,,,,,,,,
,614e72b4805ce58a5835427d,001,2022-04-29_02h07.10.719,classification_task,2021.2.3,Win32,60.0060006,614e72b4805ce58a5835427d,626b377229c10585ec392f89,626b3a2c9ed5246871e533fb,,,,,,,,,,,,,,,,,,,,,,,l,0,1.238,"[""0.732"",""0.376"",""0.828"",""0.880""]","[0,1,1,1]",0,38,38,38,1,0,0,,,0,FALSE,,,,,,,,,,,,,,,,,,,,,,,,,,,,,,
,614e72b4805ce58a5835427d,001,2022-04-29_02h07.10.719,classification_task,2021.2.3,Win32,60.0060006,614e72b4805ce58a5835427d,626b377229c10585ec392f89,626b3a2c9ed5246871e533fb,,,,,,,,,,,,,,,,,,,,,,,l,1,2.5558,"[""0.078"",""0.111"",""0.626"",""0.484""]","[1,1,1,0]",0,39,39,39,1,1,0,,,0,FALSE,,,,,,,,,,,,,,,,,,,,,,,,,,,,,,
,614e72b4805ce58a5835427d,001,2022-04-29_02h07.10.719,classification_task,2021.2.3,Win32,60.0060006,614e72b4805ce58a5835427d,626b377229c10585ec392f89,626b3a2c9ed5246871e533fb,,,,,,,,,,,,,,,,,,,,,,,l,1,1.0158,"[""0.484"",""0.111"",""0.626"",""0.778""]","[0,1,1,1]",0,40,40,40,1,1,0,,,0,FALSE,,,,,,,,,,,,,,,,,,,,,,,,,,,,,,
,614e72b4805ce58a5835427d,001,2022-04-29_02h07.10.719,classification_task,2021.2.3,Win32,60.0060006,614e72b4805ce58a5835427d,626b377229c10585ec392f89,626b3a2c9ed5246871e533fb,,,,,,,,,,,,,,,,,,,,,,,a,1,1.1079,"[""0.293"",""0.434"",""0.485"",""0.920""]","[1,1,0,1]",0,41,41,41,1,0,1,,,0,FALSE,,,,,,,,,,,,,,,,,,,,,,,,,,,,,,
,614e72b4805ce58a5835427d,001,2022-04-29_02h07.10.719,classification_task,2021.2.3,Win32,60.0060006,614e72b4805ce58a5835427d,626b377229c10585ec392f89,626b3a2c9ed5246871e533fb,,,,,,,,,,,,,,,,,,,,,,,a,1,0.9907,"[""0.162"",""0.434"",""0.591"",""0.920""]","[0,1,1,1]",0,42,42,42,1,0,1,,,0,FALSE,,,,,,,,,,,,,,,,,,,,,,,,,,,,,,
,614e72b4805ce58a5835427d,001,2022-04-29_02h07.10.719,classification_task,2021.2.3,Win32,60.0060006,614e72b4805ce58a5835427d,626b377229c10585ec392f89,626b3a2c9ed5246871e533fb,,,,,,,,,,,,,,,,,,,,,,,a,1,1.0338,"[""0.236"",""0.376"",""0.828"",""0.162""]","[1,1,1,0]",0,43,43,43,1,0,0,,,0,FALSE,,,,,,,,,,,,,,,,,,,,,,,,,,,,,,
,614e72b4805ce58a5835427d,001,2022-04-29_02h07.10.719,classification_task,2021.2.3,Win32,60.0060006,614e72b4805ce58a5835427d,626b377229c10585ec392f89,626b3a2c9ed5246871e533fb,,,,,,,,,,,,,,,,,,,,,,,a,1,2.3667,"[""0.236"",""0.484"",""0.828"",""0.880""]","[1,0,1,1]",0,44,44,44,1,0,0,,,0,FALSE,,,,,,,,,,,,,,,,,,,,,,,,,,,,,,
,614e72b4805ce58a5835427d,001,2022-04-29_02h07.10.719,classification_task,2021.2.3,Win32,60.0060006,614e72b4805ce58a5835427d,626b377229c10585ec392f89,626b3a2c9ed5246871e533fb,,,,,,,,,,,,,,,,,,,,,,,a,0,0.479,"[""0.026"",""0.338"",""0.537"",""0.503""]","[1,1,1,0]",0,45,45,45,1,1,1,,,0,FALSE,,,,,,,,,,,,,,,,,,,,,,,,,,,,,,
,614e72b4805ce58a5835427d,001,2022-04-29_02h07.10.719,classification_task,2021.2.3,Win32,60.0060006,614e72b4805ce58a5835427d,626b377229c10585ec392f89,626b3a2c9ed5246871e533fb,,,,,,,,,,,,,,,,,,,,,,,l,1,1.105,"[""0.078"",""0.742"",""0.626"",""0.778""]","[1,0,1,1]",0,46,46,46,1,1,0,,,0,FALSE,,,,,,,,,,,,,,,,,,,,,,,,,,,,,,
,614e72b4805ce58a5835427d,001,2022-04-29_02h07.10.719,classification_task,2021.2.3,Win32,60.0060006,614e72b4805ce58a5835427d,626b377229c10585ec392f89,626b3a2c9ed5246871e533fb,,,,,,,,,,,,,,,,,,,,,,,l,1,1.484,"[""0.026"",""0.338"",""0.732"",""0.695""]","[1,1,0,1]",0,47,47,47,1,1,1,,,0,FALSE,,,,,,,,,,,,,,,,,,,,,,,,,,,,,,
,614e72b4805ce58a5835427d,001,2022-04-29_02h07.10.719,classification_task,2021.2.3,Win32,60.0060006,614e72b4805ce58a5835427d,626b377229c10585ec392f89,626b3a2c9ed5246871e533fb,,,,,,,,,,,,,,,,,,,,,,,l,1,1.4342,"[""0.078"",""0.111"",""0.626"",""0.192""]","[1,1,1,0]",0,48,48,48,1,1,0,,,0,FALSE,,,,,,,,,,,,,,,,,,,,,,,,,,,,,,
,614e72b4805ce58a5835427d,001,2022-04-29_02h07.10.719,classification_task,2021.2.3,Win32,60.0060006,614e72b4805ce58a5835427d,626b377229c10585ec392f89,626b3a2c9ed5246871e533fb,,,,,,,,,,,,,,,,,,,,,,,l,1,2.5172,"[""0.026"",""0.338"",""0.732"",""0.695""]","[1,1,0,1]",0,49,49,49,1,1,1,,,0,FALSE,,,,,,,,,,,,,,,,,,,,,,,,,,,,,,
,614e72b4805ce58a5835427d,001,2022-04-29_02h07.10.719,classification_task,2021.2.3,Win32,60.0060006,614e72b4805ce58a5835427d,626b377229c10585ec392f89,626b3a2c9ed5246871e533fb,,,,,,,,,,,,,,,,,,,,,,,a,1,0.2664,"[""0.491"",""0.434"",""0.591"",""0.920""]","[0,1,1,1]",0,50,50,50,1,0,1,,,0,FALSE,,,,,,,,,,,,,,,,,,,,,,,,,,,,,,
,614e72b4805ce58a5835427d,001,2022-04-29_02h07.10.719,classification_task,2021.2.3,Win32,60.0060006,614e72b4805ce58a5835427d,626b377229c10585ec392f89,626b3a2c9ed5246871e533fb,,,,,,,,,,,,,,,,,,,,,,,a,0,2.309,"[""0.162"",""0.111"",""0.626"",""0.778""]","[0,1,1,1]",0,51,51,51,1,1,0,,,0,FALSE,,,,,,,,,,,,,,,,,,,,,,,,,,,,,,
,614e72b4805ce58a5835427d,001,2022-04-29_02h07.10.719,classification_task,2021.2.3,Win32,60.0060006,614e72b4805ce58a5835427d,626b377229c10585ec392f89,626b3a2c9ed5246871e533fb,,,,,,,,,,,,,,,,,,,,,,,l,1,1.6231,"[""0.159"",""0.338"",""0.537"",""0.695""]","[0,1,1,1]",0,52,52,52,1,1,1,,,0,FALSE,,,,,,,,,,,,,,,,,,,,,,,,,,,,,,
,614e72b4805ce58a5835427d,001,2022-04-29_02h07.10.719,classification_task,2021.2.3,Win32,60.0060006,614e72b4805ce58a5835427d,626b377229c10585ec392f89,626b3a2c9ed5246871e533fb,,,,,,,,,,,,,,,,,,,,,,,l,0,3.1523,"[""0.236"",""0.376"",""0.484"",""0.880""]","[1,1,0,1]",0,53,53,53,1,0,0,,,0,FALSE,,,,,,,,,,,,,,,,,,,,,,,,,,,,,,
,614e72b4805ce58a5835427d,001,2022-04-29_02h07.10.719,classification_task,2021.2.3,Win32,60.0060006,614e72b4805ce58a5835427d,626b377229c10585ec392f89,626b3a2c9ed5246871e533fb,,,,,,,,,,,,,,,,,,,,,,,l,0,1.3788,"[""0.236"",""0.376"",""0.828"",""0.152""]","[1,1,1,0]",0,54,54,54,1,0,0,,,0,FALSE,,,,,,,,,,,,,,,,,,,,,,,,,,,,,,
,614e72b4805ce58a5835427d,001,2022-04-29_02h07.10.719,classification_task,2021.2.3,Win32,60.0060006,614e72b4805ce58a5835427d,626b377229c10585ec392f89,626b3a2c9ed5246871e533fb,,,,,,,,,,,,,,,,,,,,,,,l,0,0.375,"[""0.293"",""0.434"",""0.591"",""0.157""]","[1,1,1,0]",0,55,55,55,1,0,1,,,0,FALSE,,,,,,,,,,,,,,,,,,,,,,,,,,,,,,
,614e72b4805ce58a5835427d,001,2022-04-29_02h07.10.719,classification_task,2021.2.3,Win32,60.0060006,614e72b4805ce58a5835427d,626b377229c10585ec392f89,626b3a2c9ed5246871e533fb,,,,,,,,,,,,,,,,,,,,,,,l,0,0.267,"[""0.491"",""0.376"",""0.828"",""0.880""]","[0,1,1,1]",0,56,56,56,1,0,0,,,0,FALSE,,,,,,,,,,,,,,,,,,,,,,,,,,,,,,
,614e72b4805ce58a5835427d,001,2022-04-29_02h07.10.719,classification_task,2021.2.3,Win32,60.0060006,614e72b4805ce58a5835427d,626b377229c10585ec392f89,626b3a2c9ed5246871e533fb,,,,,,,,,,,,,,,,,,,,,,,l,1,0.3559,"[""0.078"",""0.111"",""0.157"",""0.778""]","[1,1,0,1]",0,57,57,57,1,1,0,,,0,FALSE,,,,,,,,,,,,,,,,,,,,,,,,,,,,,,
,614e72b4805ce58a5835427d,001,2022-04-29_02h07.10.719,classification_task,2021.2.3,Win32,60.0060006,614e72b4805ce58a5835427d,626b377229c10585ec392f89,626b3a2c9ed5246871e533fb,,,,,,,,,,,,,,,,,,,,,,,l,0,0.3173,"[""0.293"",""0.434"",""0.484"",""0.920""]","[1,1,0,1]",0,58,58,58,1,0,1,,,0,FALSE,,,,,,,,,,,,,,,,,,,,,,,,,,,,,,
,614e72b4805ce58a5835427d,001,2022-04-29_02h07.10.719,classification_task,2021.2.3,Win32,60.0060006,614e72b4805ce58a5835427d,626b377229c10585ec392f89,626b3a2c9ed5246871e533fb,,,,,,,,,,,,,,,,,,,,,,,a,1,0.7759,"[""0.293"",""0.503"",""0.591"",""0.920""]","[1,0,1,1]",0,59,59,59,1,0,1,,,0,FALSE,,,,,,,,,,,,,,,,,,,,,,,,,,,,,,
,614e72b4805ce58a5835427d,001,2022-04-29_02h07.10.719,classification_task,2021.2.3,Win32,60.0060006,614e72b4805ce58a5835427d,626b377229c10585ec392f89,626b3a2c9ed5246871e533fb,,,,,,,,,,,,,,,,,,,,,,,a,0,1.2507,"[""0.078"",""0.152"",""0.626"",""0.778""]","[1,0,1,1]",0,60,60,60,1,1,0,,,0,FALSE,,,,,,,,,,,,,,,,,,,,,,,,,,,,,,
,614e72b4805ce58a5835427d,001,2022-04-29_02h07.10.719,classification_task,2021.2.3,Win32,60.0060006,614e72b4805ce58a5835427d,626b377229c10585ec392f89,626b3a2c9ed5246871e533fb,,,,,,,,,,,,,,,,,,,,,,,a,1,1.438,"[""0.236"",""0.732"",""0.828"",""0.880""]","[1,0,1,1]",0,61,61,61,1,0,0,,,0,FALSE,,,,,,,,,,,,,,,,,,,,,,,,,,,,,,
,614e72b4805ce58a5835427d,001,2022-04-29_02h07.10.719,classification_task,2021.2.3,Win32,60.0060006,614e72b4805ce58a5835427d,626b377229c10585ec392f89,626b3a2c9ed5246871e533fb,,,,,,,,,,,,,,,,,,,,,,,a,0,1.1668,"[""0.026"",""0.338"",""0.537"",""0.472""]","[1,1,1,0]",0,62,62,62,1,1,1,,,0,FALSE,,,,,,,,,,,,,,,,,,,,,,,,,,,,,,
,614e72b4805ce58a5835427d,001,2022-04-29_02h07.10.719,classification_task,2021.2.3,Win32,60.0060006,614e72b4805ce58a5835427d,626b377229c10585ec392f89,626b3a2c9ed5246871e533fb,,,,,,,,,,,,,,,,,,,,,,,a,0,0.6503,"[""0.026"",""0.162"",""0.537"",""0.695""]","[1,0,1,1]",0,63,63,63,1,1,1,,,0,FALSE,,,,,,,,,,,,,,,,,,,,,,,,,,,,,,
,614e72b4805ce58a5835427d,001,2022-04-29_02h07.10.719,classification_task,2021.2.3,Win32,60.0060006,614e72b4805ce58a5835427d,626b377229c10585ec392f89,626b3a2c9ed5246871e533fb,,,,,,,,,,,,,,,,,,,,,,,,,,,,,,,,,,,,,,,0, ,,0,,,0,0,0,0,1,2,1,,,,,,,,,,,,,,,,,
,614e72b4805ce58a5835427d,001,2022-04-29_02h07.10.719,classification_task,2021.2.3,Win32,60.0060006,614e72b4805ce58a5835427d,626b377229c10585ec392f89,626b3a2c9ed5246871e533fb,,,,,,,,,,,,,,,,,,,,,,,,,,,,,,,,,,,,,,,1,  ,,0,,,0,0,0,0,1,2,1,,,,,,,,,,,,,,,,,
,614e72b4805ce58a5835427d,001,2022-04-29_02h07.10.719,classification_task,2021.2.3,Win32,60.0060006,614e72b4805ce58a5835427d,626b377229c10585ec392f89,626b3a2c9ed5246871e533fb,,,,,,,,,,,,,,,,,,,,,,,,,,,,,,,,,,,,,,,2,  ,,0,,,0,0,0,0,1,2,1,,,,,,,,,,,,,,,,,
,614e72b4805ce58a5835427d,001,2022-04-29_02h07.10.719,classification_task,2021.2.3,Win32,60.0060006,614e72b4805ce58a5835427d,626b377229c10585ec392f89,626b3a2c9ed5246871e533fb,,,,,,,,,,,,,,,,,,,,,,,,,,,,,,,,,,,,,,,,,,,,,0,0,0,0,1,,1,,,,,,,,,,,,,,,,,
,614e72b4805ce58a5835427d,001,2022-04-29_02h07.10.719,classification_task,2021.2.3,Win32,60.0060006,614e72b4805ce58a5835427d,626b377229c10585ec392f89,626b3a2c9ed5246871e533fb,,,,,,,,,,,,,,,,,,,,,space,11.0872,a,1,4.1917,"[""0.190"",""0.434"",""0.591"",""0.920""]","[0,1,1,1]",0,0,0,0,1,0,1,,,0,FALSE,,,,,,,,,,,,,,,,,,,,,,,,,,,,,,
,614e72b4805ce58a5835427d,001,2022-04-29_02h07.10.719,classification_task,2021.2.3,Win32,60.0060006,614e72b4805ce58a5835427d,626b377229c10585ec392f89,626b3a2c9ed5246871e533fb,,,,,,,,,,,,,,,,,,,,,,,l,1,2.7171,"[""0.078"",""0.190"",""0.626"",""0.778""]","[1,0,1,1]",0,1,1,1,1,1,0,,,0,FALSE,,,,,,,,,,,,,,,,,,,,,,,,,,,,,,
,614e72b4805ce58a5835427d,001,2022-04-29_02h07.10.719,classification_task,2021.2.3,Win32,60.0060006,614e72b4805ce58a5835427d,626b377229c10585ec392f89,626b3a2c9ed5246871e533fb,,,,,,,,,,,,,,,,,,,,,,,l,1,1.1273,"[""0.078"",""0.111"",""0.626"",""0.190""]","[1,1,1,0]",0,2,2,2,1,1,0,,,0,FALSE,,,,,,,,,,,,,,,,,,,,,,,,,,,,,,
,614e72b4805ce58a5835427d,001,2022-04-29_02h07.10.719,classification_task,2021.2.3,Win32,60.0060006,614e72b4805ce58a5835427d,626b377229c10585ec392f89,626b3a2c9ed5246871e533fb,,,,,,,,,,,,,,,,,,,,,,,a,1,1.1837,"[""0.192"",""0.376"",""0.828"",""0.880""]","[0,1,1,1]",0,3,3,3,1,0,0,,,0,FALSE,,,,,,,,,,,,,,,,,,,,,,,,,,,,,,
,614e72b4805ce58a5835427d,001,2022-04-29_02h07.10.719,classification_task,2021.2.3,Win32,60.0060006,614e72b4805ce58a5835427d,626b377229c10585ec392f89,626b3a2c9ed5246871e533fb,,,,,,,,,,,,,,,,,,,,,,,a,0,1.4479,"[""0.152"",""0.338"",""0.537"",""0.695""]","[0,1,1,1]",0,4,4,4,1,1,1,,,0,FALSE,,,,,,,,,,,,,,,,,,,,,,,,,,,,,,
,614e72b4805ce58a5835427d,001,2022-04-29_02h07.10.719,classification_task,2021.2.3,Win32,60.0060006,614e72b4805ce58a5835427d,626b377229c10585ec392f89,626b3a2c9ed5246871e533fb,,,,,,,,,,,,,,,,,,,,,,,a,1,0.9673,"[""0.236"",""0.376"",""0.828"",""0.170""]","[1,1,1,0]",0,5,5,5,1,0,0,,,0,FALSE,,,,,,,,,,,,,,,,,,,,,,,,,,,,,,
,614e72b4805ce58a5835427d,001,2022-04-29_02h07.10.719,classification_task,2021.2.3,Win32,60.0060006,614e72b4805ce58a5835427d,626b377229c10585ec392f89,626b3a2c9ed5246871e533fb,,,,,,,,,,,,,,,,,,,,,,,a,1,1.6717,"[""0.293"",""0.742"",""0.591"",""0.920""]","[1,0,1,1]",0,6,6,6,1,0,1,,,0,FALSE,,,,,,,,,,,,,,,,,,,,,,,,,,,,,,
,614e72b4805ce58a5835427d,001,2022-04-29_02h07.10.719,classification_task,2021.2.3,Win32,60.0060006,614e72b4805ce58a5835427d,626b377229c10585ec392f89,626b3a2c9ed5246871e533fb,,,,,,,,,,,,,,,,,,,,,,,a,1,0.8648,"[""0.293"",""0.434"",""0.152"",""0.920""]","[1,1,0,1]",0,7,7,7,1,0,1,,,0,FALSE,,,,,,,,,,,,,,,,,,,,,,,,,,,,,,
,614e72b4805ce58a5835427d,001,2022-04-29_02h07.10.719,classification_task,2021.2.3,Win32,60.0060006,614e72b4805ce58a5835427d,626b377229c10585ec392f89,626b3a2c9ed5246871e533fb,,,,,,,,,,,,,,,,,,,,,,,l,0,0.7171,"[""0.293"",""0.434"",""0.591"",""0.484""]","[1,1,1,0]",0,8,8,8,1,0,1,,,0,FALSE,,,,,,,,,,,,,,,,,,,,,,,,,,,,,,
,614e72b4805ce58a5835427d,001,2022-04-29_02h07.10.719,classification_task,2021.2.3,Win32,60.0060006,614e72b4805ce58a5835427d,626b377229c10585ec392f89,626b3a2c9ed5246871e533fb,,,,,,,,,,,,,,,,,,,,,,,a,1,1.215,"[""0.236"",""0.157"",""0.828"",""0.880""]","[1,0,1,1]",0,9,9,9,1,0,0,,,0,FALSE,,,,,,,,,,,,,,,,,,,,,,,,,,,,,,
,614e72b4805ce58a5835427d,001,2022-04-29_02h07.10.719,classification_task,2021.2.3,Win32,60.0060006,614e72b4805ce58a5835427d,626b377229c10585ec392f89,626b3a2c9ed5246871e533fb,,,,,,,,,,,,,,,,,,,,,,,a,0,3.1856,"[""0.026"",""0.338"",""0.537"",""0.159""]","[1,1,1,0]",0,10,10,10,1,1,1,,,0,FALSE,,,,,,,,,,,,,,,,,,,,,,,,,,,,,,
,614e72b4805ce58a5835427d,001,2022-04-29_02h07.10.719,classification_task,2021.2.3,Win32,60.0060006,614e72b4805ce58a5835427d,626b377229c10585ec392f89,626b3a2c9ed5246871e533fb,,,,,,,,,,,,,,,,,,,,,,,a,0,0.9948,"[""0.026"",""0.162"",""0.537"",""0.695""]","[1,0,1,1]",0,11,11,11,1,1,1,,,0,FALSE,,,,,,,,,,,,,,,,,,,,,,,,,,,,,,
,614e72b4805ce58a5835427d,001,2022-04-29_02h07.10.719,classification_task,2021.2.3,Win32,60.0060006,614e72b4805ce58a5835427d,626b377229c10585ec392f89,626b3a2c9ed5246871e533fb,,,,,,,,,,,,,,,,,,,,,,,a,0,0.4187,"[""0.026"",""0.338"",""0.732"",""0.695""]","[1,1,0,1]",0,12,12,12,1,1,1,,,0,FALSE,,,,,,,,,,,,,,,,,,,,,,,,,,,,,,
,614e72b4805ce58a5835427d,001,2022-04-29_02h07.10.719,classification_task,2021.2.3,Win32,60.0060006,614e72b4805ce58a5835427d,626b377229c10585ec392f89,626b3a2c9ed5246871e533fb,,,,,,,,,,,,,,,,,,,,,,,l,1,1.0551,"[""0.484"",""0.111"",""0.626"",""0.778""]","[0,1,1,1]",0,13,13,13,1,1,0,,,0,FALSE,,,,,,,,,,,,,,,,,,,,,,,,,,,,,,
,614e72b4805ce58a5835427d,001,2022-04-29_02h07.10.719,classification_task,2021.2.3,Win32,60.0060006,614e72b4805ce58a5835427d,626b377229c10585ec392f89,626b3a2c9ed5246871e533fb,,,,,,,,,,,,,,,,,,,,,,,a,1,1.1169,"[""0.236"",""0.376"",""0.159"",""0.880""]","[1,1,0,1]",0,14,14,14,1,0,0,,,0,FALSE,,,,,,,,,,,,,,,,,,,,,,,,,,,,,,
,614e72b4805ce58a5835427d,001,2022-04-29_02h07.10.719,classification_task,2021.2.3,Win32,60.0060006,614e72b4805ce58a5835427d,626b377229c10585ec392f89,626b3a2c9ed5246871e533fb,,,,,,,,,,,,,,,,,,,,,,,l,1,0.6774,"[""0.078"",""0.111"",""0.484"",""0.778""]","[1,1,0,1]",0,15,15,15,1,1,0,,,0,FALSE,,,,,,,,,,,,,,,,,,,,,,,,,,,,,,
,614e72b4805ce58a5835427d,001,2022-04-29_02h07.10.719,classification_task,2021.2.3,Win32,60.0060006,614e72b4805ce58a5835427d,626b377229c10585ec392f89,626b3a2c9ed5246871e533fb,,,,,,,,,,,,,,,,,,,,,,,a,1,0.5409,"[""0.236"",""0.192"",""0.828"",""0.880""]","[1,0,1,1]",0,16,16,16,1,0,0,,,0,FALSE,,,,,,,,,,,,,,,,,,,,,,,,,,,,,,
,614e72b4805ce58a5835427d,001,2022-04-29_02h07.10.719,classification_task,2021.2.3,Win32,60.0060006,614e72b4805ce58a5835427d,626b377229c10585ec392f89,626b3a2c9ed5246871e533fb,,,,,,,,,,,,,,,,,,,,,,,l,1,0.6174,"[""0.078"",""0.192"",""0.626"",""0.778""]","[1,0,1,1]",0,17,17,17,1,1,0,,,0,FALSE,,,,,,,,,,,,,,,,,,,,,,,,,,,,,,
,614e72b4805ce58a5835427d,001,2022-04-29_02h07.10.719,classification_task,2021.2.3,Win32,60.0060006,614e72b4805ce58a5835427d,626b377229c10585ec392f89,626b3a2c9ed5246871e533fb,,,,,,,,,,,,,,,,,,,,,,,l,1,0.7072,"[""0.026"",""0.338"",""0.485"",""0.695""]","[1,1,0,1]",0,18,18,18,1,1,1,,,0,FALSE,,,,,,,,,,,,,,,,,,,,,,,,,,,,,,
,614e72b4805ce58a5835427d,001,2022-04-29_02h07.10.719,classification_task,2021.2.3,Win32,60.0060006,614e72b4805ce58a5835427d,626b377229c10585ec392f89,626b3a2c9ed5246871e533fb,,,,,,,,,,,,,,,,,,,,,,,l,0,0.4505,"[""0.293"",""0.434"",""0.503"",""0.920""]","[1,1,0,1]",0,19,19,19,1,0,1,,,0,FALSE,,,,,,,,,,,,,,,,,,,,,,,,,,,,,,
,614e72b4805ce58a5835427d,001,2022-04-29_02h07.10.719,classification_task,2021.2.3,Win32,60.0060006,614e72b4805ce58a5835427d,626b377229c10585ec392f89,626b3a2c9ed5246871e533fb,,,,,,,,,,,,,,,,,,,,,,,l,1,1.0197,"[""0.078"",""0.111"",""0.742"",""0.778""]","[1,1,0,1]",0,20,20,20,1,1,0,,,0,FALSE,,,,,,,,,,,,,,,,,,,,,,,,,,,,,,
,614e72b4805ce58a5835427d,001,2022-04-29_02h07.10.719,classification_task,2021.2.3,Win32,60.0060006,614e72b4805ce58a5835427d,626b377229c10585ec392f89,626b3a2c9ed5246871e533fb,,,,,,,,,,,,,,,,,,,,,,,a,1,0.4504,"[""0.491"",""0.376"",""0.828"",""0.880""]","[0,1,1,1]",0,21,21,21,1,0,0,,,0,FALSE,,,,,,,,,,,,,,,,,,,,,,,,,,,,,,
,614e72b4805ce58a5835427d,001,2022-04-29_02h07.10.719,classification_task,2021.2.3,Win32,60.0060006,614e72b4805ce58a5835427d,626b377229c10585ec392f89,626b3a2c9ed5246871e533fb,,,,,,,,,,,,,,,,,,,,,,,l,0,0.7022,"[""0.491"",""0.434"",""0.591"",""0.920""]","[0,1,1,1]",0,22,22,22,1,0,1,,,0,FALSE,,,,,,,,,,,,,,,,,,,,,,,,,,,,,,
,614e72b4805ce58a5835427d,001,2022-04-29_02h07.10.719,classification_task,2021.2.3,Win32,60.0060006,614e72b4805ce58a5835427d,626b377229c10585ec392f89,626b3a2c9ed5246871e533fb,,,,,,,,,,,,,,,,,,,,,,,l,1,0.9655,"[""0.152"",""0.111"",""0.626"",""0.778""]","[0,1,1,1]",0,23,23,23,1,1,0,,,0,FALSE,,,,,,,,,,,,,,,,,,,,,,,,,,,,,,
,614e72b4805ce58a5835427d,001,2022-04-29_02h07.10.719,classification_task,2021.2.3,Win32,60.0060006,614e72b4805ce58a5835427d,626b377229c10585ec392f89,626b3a2c9ed5246871e533fb,,,,,,,,,,,,,,,,,,,,,,,l,0,0.771,"[""0.293"",""0.192"",""0.591"",""0.920""]","[1,0,1,1]",0,24,24,24,1,0,1,,,0,FALSE,,,,,,,,,,,,,,,,,,,,,,,,,,,,,,
,614e72b4805ce58a5835427d,001,2022-04-29_02h07.10.719,classification_task,2021.2.3,Win32,60.0060006,614e72b4805ce58a5835427d,626b377229c10585ec392f89,626b3a2c9ed5246871e533fb,,,,,,,,,,,,,,,,,,,,,,,a,1,0.6038,"[""0.236"",""0.376"",""0.828"",""0.742""]","[1,1,1,0]",0,25,25,25,1,0,0,,,0,FALSE,,,,,,,,,,,,,,,,,,,,,,,,,,,,,,
,614e72b4805ce58a5835427d,001,2022-04-29_02h07.10.719,classification_task,2021.2.3,Win32,60.0060006,614e72b4805ce58a5835427d,626b377229c10585ec392f89,626b3a2c9ed5246871e533fb,,,,,,,,,,,,,,,,,,,,,,,l,1,0.7869,"[""0.026"",""0.338"",""0.537"",""0.491""]","[1,1,1,0]",0,26,26,26,1,1,1,,,0,FALSE,,,,,,,,,,,,,,,,,,,,,,,,,,,,,,
,614e72b4805ce58a5835427d,001,2022-04-29_02h07.10.719,classification_task,2021.2.3,Win32,60.0060006,614e72b4805ce58a5835427d,626b377229c10585ec392f89,626b3a2c9ed5246871e533fb,,,,,,,,,,,,,,,,,,,,,,,l,0,0.6204,"[""0.293"",""0.434"",""0.591"",""0.192""]","[1,1,1,0]",0,27,27,27,1,0,1,,,0,FALSE,,,,,,,,,,,,,,,,,,,,,,,,,,,,,,
,614e72b4805ce58a5835427d,001,2022-04-29_02h07.10.719,classification_task,2021.2.3,Win32,60.0060006,614e72b4805ce58a5835427d,626b377229c10585ec392f89,626b3a2c9ed5246871e533fb,,,,,,,,,,,,,,,,,,,,,,,l,1,0.4753,"[""0.491"",""0.338"",""0.537"",""0.695""]","[0,1,1,1]",0,28,28,28,1,1,1,,,0,FALSE,,,,,,,,,,,,,,,,,,,,,,,,,,,,,,
,614e72b4805ce58a5835427d,001,2022-04-29_02h07.10.719,classification_task,2021.2.3,Win32,60.0060006,614e72b4805ce58a5835427d,626b377229c10585ec392f89,626b3a2c9ed5246871e533fb,,,,,,,,,,,,,,,,,,,,,,,a,1,1.0811,"[""0.236"",""0.376"",""0.190"",""0.880""]","[1,1,0,1]",0,29,29,29,1,0,0,,,0,FALSE,,,,,,,,,,,,,,,,,,,,,,,,,,,,,,
,614e72b4805ce58a5835427d,001,2022-04-29_02h07.10.719,classification_task,2021.2.3,Win32,60.0060006,614e72b4805ce58a5835427d,626b377229c10585ec392f89,626b3a2c9ed5246871e533fb,,,,,,,,,,,,,,,,,,,,,,,l,1,0.6336,"[""0.078"",""0.111"",""0.626"",""0.170""]","[1,1,1,0]",0,30,30,30,1,1,0,,,0,FALSE,,,,,,,,,,,,,,,,,,,,,,,,,,,,,,
,614e72b4805ce58a5835427d,001,2022-04-29_02h07.10.719,classification_task,2021.2.3,Win32,60.0060006,614e72b4805ce58a5835427d,626b377229c10585ec392f89,626b3a2c9ed5246871e533fb,,,,,,,,,,,,,,,,,,,,,,,a,0,0.7483,"[""0.026"",""0.742"",""0.537"",""0.695""]","[1,0,1,1]",0,31,31,31,1,1,1,,,0,FALSE,,,,,,,,,,,,,,,,,,,,,,,,,,,,,,
,614e72b4805ce58a5835427d,001,2022-04-29_02h07.10.719,classification_task,2021.2.3,Win32,60.0060006,614e72b4805ce58a5835427d,626b377229c10585ec392f89,626b3a2c9ed5246871e533fb,,,,,,,,,,,,,,,,,,,,,,,l,1,0.5067,"[""0.026"",""0.338"",""0.491"",""0.695""]","[1,1,0,1]",0,32,32,32,1,1,1,,,0,FALSE,,,,,,,,,,,,,,,,,,,,,,,,,,,,,,
,614e72b4805ce58a5835427d,001,2022-04-29_02h07.10.719,classification_task,2021.2.3,Win32,60.0060006,614e72b4805ce58a5835427d,626b377229c10585ec392f89,626b3a2c9ed5246871e533fb,,,,,,,,,,,,,,,,,,,,,,,a,1,1.9485,"[""0.236"",""0.472"",""0.828"",""0.880""]","[1,0,1,1]",0,33,33,33,1,0,0,,,0,FALSE,,,,,,,,,,,,,,,,,,,,,,,,,,,,,,
,614e72b4805ce58a5835427d,001,2022-04-29_02h07.10.719,classification_task,2021.2.3,Win32,60.0060006,614e72b4805ce58a5835427d,626b377229c10585ec392f89,626b3a2c9ed5246871e533fb,,,,,,,,,,,,,,,,,,,,,,,l,1,1.1839,"[""0.078"",""0.491"",""0.626"",""0.778""]","[1,0,1,1]",0,34,34,34,1,1,0,,,0,FALSE,,,,,,,,,,,,,,,,,,,,,,,,,,,,,,
,614e72b4805ce58a5835427d,001,2022-04-29_02h07.10.719,classification_task,2021.2.3,Win32,60.0060006,614e72b4805ce58a5835427d,626b377229c10585ec392f89,626b3a2c9ed5246871e533fb,,,,,,,,,,,,,,,,,,,,,,,l,0,5.4848,"[""0.293"",""0.159"",""0.591"",""0.920""]","[1,0,1,1]",0,35,35,35,1,0,1,,,0,FALSE,,,,,,,,,,,,,,,,,,,,,,,,,,,,,,
,614e72b4805ce58a5835427d,001,2022-04-29_02h07.10.719,classification_task,2021.2.3,Win32,60.0060006,614e72b4805ce58a5835427d,626b377229c10585ec392f89,626b3a2c9ed5246871e533fb,,,,,,,,,,,,,,,,,,,,,,,l,0,1.0614,"[""0.742"",""0.434"",""0.591"",""0.920""]","[0,1,1,1]",0,36,36,36,1,0,1,,,0,FALSE,,,,,,,,,,,,,,,,,,,,,,,,,,,,,,
,614e72b4805ce58a5835427d,001,2022-04-29_02h07.10.719,classification_task,2021.2.3,Win32,60.0060006,614e72b4805ce58a5835427d,626b377229c10585ec392f89,626b3a2c9ed5246871e533fb,,,,,,,,,,,,,,,,,,,,,,,a,1,1.2052,"[""0.236"",""0.376"",""0.828"",""0.503""]","[1,1,1,0]",0,37,37,37,1,0,0,,,0,FALSE,,,,,,,,,,,,,,,,,,,,,,,,,,,,,,
,614e72b4805ce58a5835427d,001,2022-04-29_02h07.10.719,classification_task,2021.2.3,Win32,60.0060006,614e72b4805ce58a5835427d,626b377229c10585ec392f89,626b3a2c9ed5246871e533fb,,,,,,,,,,,,,,,,,,,,,,,l,1,0.622,"[""0.078"",""0.111"",""0.626"",""0.491""]","[1,1,1,0]",0,38,38,38,1,1,0,,,0,FALSE,,,,,,,,,,,,,,,,,,,,,,,,,,,,,,
,614e72b4805ce58a5835427d,001,2022-04-29_02h07.10.719,classification_task,2021.2.3,Win32,60.0060006,614e72b4805ce58a5835427d,626b377229c10585ec392f89,626b3a2c9ed5246871e533fb,,,,,,,,,,,,,,,,,,,,,,,l,1,0.7504,"[""0.190"",""0.111"",""0.626"",""0.778""]","[0,1,1,1]",0,39,39,39,1,1,0,,,0,FALSE,,,,,,,,,,,,,,,,,,,,,,,,,,,,,,
,614e72b4805ce58a5835427d,001,2022-04-29_02h07.10.719,classification_task,2021.2.3,Win32,60.0060006,614e72b4805ce58a5835427d,626b377229c10585ec392f89,626b3a2c9ed5246871e533fb,,,,,,,,,,,,,,,,,,,,,,,l,0,0.6808,"[""0.293"",""0.434"",""0.591"",""0.484""]","[1,1,1,0]",0,40,40,40,1,0,1,,,0,FALSE,,,,,,,,,,,,,,,,,,,,,,,,,,,,,,
,614e72b4805ce58a5835427d,001,2022-04-29_02h07.10.719,classification_task,2021.2.3,Win32,60.0060006,614e72b4805ce58a5835427d,626b377229c10585ec392f89,626b3a2c9ed5246871e533fb,,,,,,,,,,,,,,,,,,,,,,,l,1,0.4897,"[""0.159"",""0.338"",""0.537"",""0.695""]","[0,1,1,1]",0,41,41,41,1,1,1,,,0,FALSE,,,,,,,,,,,,,,,,,,,,,,,,,,,,,,
,614e72b4805ce58a5835427d,001,2022-04-29_02h07.10.719,classification_task,2021.2.3,Win32,60.0060006,614e72b4805ce58a5835427d,626b377229c10585ec392f89,626b3a2c9ed5246871e533fb,,,,,,,,,,,,,,,,,,,,,,,l,0,0.5416,"[""0.293"",""0.434"",""0.157"",""0.920""]","[1,1,0,1]",0,42,42,42,1,0,1,,,0,FALSE,,,,,,,,,,,,,,,,,,,,,,,,,,,,,,
,614e72b4805ce58a5835427d,001,2022-04-29_02h07.10.719,classification_task,2021.2.3,Win32,60.0060006,614e72b4805ce58a5835427d,626b377229c10585ec392f89,626b3a2c9ed5246871e533fb,,,,,,,,,,,,,,,,,,,,,,,l,1,0.6,"[""0.026"",""0.192"",""0.537"",""0.695""]","[1,0,1,1]",0,43,43,43,1,1,1,,,0,FALSE,,,,,,,,,,,,,,,,,,,,,,,,,,,,,,
,614e72b4805ce58a5835427d,001,2022-04-29_02h07.10.719,classification_task,2021.2.3,Win32,60.0060006,614e72b4805ce58a5835427d,626b377229c10585ec392f89,626b3a2c9ed5246871e533fb,,,,,,,,,,,,,,,,,,,,,,,a,0,0.7431,"[""0.026"",""0.338"",""0.537"",""0.162""]","[1,1,1,0]",0,44,44,44,1,1,1,,,0,FALSE,,,,,,,,,,,,,,,,,,,,,,,,,,,,,,
,614e72b4805ce58a5835427d,001,2022-04-29_02h07.10.719,classification_task,2021.2.3,Win32,60.0060006,614e72b4805ce58a5835427d,626b377229c10585ec392f89,626b3a2c9ed5246871e533fb,,,,,,,,,,,,,,,,,,,,,,,a,1,1.2544,"[""0.236"",""0.376"",""0.742"",""0.880""]","[1,1,0,1]",0,45,45,45,1,0,0,,,0,FALSE,,,,,,,,,,,,,,,,,,,,,,,,,,,,,,
,614e72b4805ce58a5835427d,001,2022-04-29_02h07.10.719,classification_task,2021.2.3,Win32,60.0060006,614e72b4805ce58a5835427d,626b377229c10585ec392f89,626b3a2c9ed5246871e533fb,,,,,,,,,,,,,,,,,,,,,,,l,1,0.5895,"[""0.078"",""0.111"",""0.170"",""0.778""]","[1,1,0,1]",0,46,46,46,1,1,0,,,0,FALSE,,,,,,,,,,,,,,,,,,,,,,,,,,,,,,
,614e72b4805ce58a5835427d,001,2022-04-29_02h07.10.719,classification_task,2021.2.3,Win32,60.0060006,614e72b4805ce58a5835427d,626b377229c10585ec392f89,626b3a2c9ed5246871e533fb,,,,,,,,,,,,,,,,,,,,,,,a,1,0.7173,"[""0.159"",""0.376"",""0.828"",""0.880""]","[0,1,1,1]",0,47,47,47,1,0,0,,,0,FALSE,,,,,,,,,,,,,,,,,,,,,,,,,,,,,,
,614e72b4805ce58a5835427d,001,2022-04-29_02h07.10.719,classification_task,2021.2.3,Win32,60.0060006,614e72b4805ce58a5835427d,626b377229c10585ec392f89,626b3a2c9ed5246871e533fb,,,,,,,,,,,,,,,,,,,,,,,a,0,0.6834,"[""0.078"",""0.111"",""0.626"",""0.732""]","[1,1,1,0]",0,48,48,48,1,1,0,,,0,FALSE,,,,,,,,,,,,,,,,,,,,,,,,,,,,,,
,614e72b4805ce58a5835427d,001,2022-04-29_02h07.10.719,classification_task,2021.2.3,Win32,60.0060006,614e72b4805ce58a5835427d,626b377229c10585ec392f89,626b3a2c9ed5246871e533fb,,,,,,,,,,,,,,,,,,,,,,,a,1,0.5651,"[""0.293"",""0.434"",""0.591"",""0.742""]","[1,1,1,0]",0,49,49,49,1,0,1,,,0,FALSE,,,,,,,,,,,,,,,,,,,,,,,,,,,,,,
,614e72b4805ce58a5835427d,001,2022-04-29_02h07.10.719,classification_task,2021.2.3,Win32,60.0060006,614e72b4805ce58a5835427d,626b377229c10585ec392f89,626b3a2c9ed5246871e533fb,,,,,,,,,,,,,,,,,,,,,,,a,1,0.9386,"[""0.732"",""0.376"",""0.828"",""0.880""]","[0,1,1,1]",0,50,50,50,1,0,0,,,0,FALSE,,,,,,,,,,,,,,,,,,,,,,,,,,,,,,
,614e72b4805ce58a5835427d,001,2022-04-29_02h07.10.719,classification_task,2021.2.3,Win32,60.0060006,614e72b4805ce58a5835427d,626b377229c10585ec392f89,626b3a2c9ed5246871e533fb,,,,,,,,,,,,,,,,,,,,,,,l,0,0.5007,"[""0.484"",""0.434"",""0.591"",""0.920""]","[0,1,1,1]",0,51,51,51,1,0,1,,,0,FALSE,,,,,,,,,,,,,,,,,,,,,,,,,,,,,,
,614e72b4805ce58a5835427d,001,2022-04-29_02h07.10.719,classification_task,2021.2.3,Win32,60.0060006,614e72b4805ce58a5835427d,626b377229c10585ec392f89,626b3a2c9ed5246871e533fb,,,,,,,,,,,,,,,,,,,,,,,l,0,0.5334,"[""0.293"",""0.484"",""0.591"",""0.920""]","[1,0,1,1]",0,52,52,52,1,0,1,,,0,FALSE,,,,,,,,,,,,,,,,,,,,,,,,,,,,,,
,614e72b4805ce58a5835427d,001,2022-04-29_02h07.10.719,classification_task,2021.2.3,Win32,60.0060006,614e72b4805ce58a5835427d,626b377229c10585ec392f89,626b3a2c9ed5246871e533fb,,,,,,,,,,,,,,,,,,,,,,,l,0,0.5153,"[""0.236"",""0.732"",""0.828"",""0.880""]","[1,0,1,1]",0,53,53,53,1,0,0,,,0,FALSE,,,,,,,,,,,,,,,,,,,,,,,,,,,,,,
,614e72b4805ce58a5835427d,001,2022-04-29_02h07.10.719,classification_task,2021.2.3,Win32,60.0060006,614e72b4805ce58a5835427d,626b377229c10585ec392f89,626b3a2c9ed5246871e533fb,,,,,,,,,,,,,,,,,,,,,,,l,1,0.4152,"[""0.026"",""0.338"",""0.537"",""0.491""]","[1,1,1,0]",0,54,54,54,1,1,1,,,0,FALSE,,,,,,,,,,,,,,,,,,,,,,,,,,,,,,
,614e72b4805ce58a5835427d,001,2022-04-29_02h07.10.719,classification_task,2021.2.3,Win32,60.0060006,614e72b4805ce58a5835427d,626b377229c10585ec392f89,626b3a2c9ed5246871e533fb,,,,,,,,,,,,,,,,,,,,,,,l,1,0.6996,"[""0.026"",""0.338"",""0.192"",""0.695""]","[1,1,0,1]",0,55,55,55,1,1,1,,,0,FALSE,,,,,,,,,,,,,,,,,,,,,,,,,,,,,,
,614e72b4805ce58a5835427d,001,2022-04-29_02h07.10.719,classification_task,2021.2.3,Win32,60.0060006,614e72b4805ce58a5835427d,626b377229c10585ec392f89,626b3a2c9ed5246871e533fb,,,,,,,,,,,,,,,,,,,,,,,a,0,0.9897,"[""0.078"",""0.111"",""0.484"",""0.778""]","[1,1,0,1]",0,56,56,56,1,1,0,,,0,FALSE,,,,,,,,,,,,,,,,,,,,,,,,,,,,,,
,614e72b4805ce58a5835427d,001,2022-04-29_02h07.10.719,classification_task,2021.2.3,Win32,60.0060006,614e72b4805ce58a5835427d,626b377229c10585ec392f89,626b3a2c9ed5246871e533fb,,,,,,,,,,,,,,,,,,,,,,,a,1,0.5761,"[""0.236"",""0.376"",""0.472"",""0.880""]","[1,1,0,1]",0,57,57,57,1,0,0,,,0,FALSE,,,,,,,,,,,,,,,,,,,,,,,,,,,,,,
,614e72b4805ce58a5835427d,001,2022-04-29_02h07.10.719,classification_task,2021.2.3,Win32,60.0060006,614e72b4805ce58a5835427d,626b377229c10585ec392f89,626b3a2c9ed5246871e533fb,,,,,,,,,,,,,,,,,,,,,,,l,0,0.7902,"[""0.293"",""0.434"",""0.170"",""0.920""]","[1,1,0,1]",0,58,58,58,1,0,1,,,0,FALSE,,,,,,,,,,,,,,,,,,,,,,,,,,,,,,
,614e72b4805ce58a5835427d,001,2022-04-29_02h07.10.719,classification_task,2021.2.3,Win32,60.0060006,614e72b4805ce58a5835427d,626b377229c10585ec392f89,626b3a2c9ed5246871e533fb,,,,,,,,,,,,,,,,,,,,,,,a,0,0.6003,"[""0.026"",""0.192"",""0.537"",""0.695""]","[1,0,1,1]",0,59,59,59,1,1,1,,,0,FALSE,,,,,,,,,,,,,,,,,,,,,,,,,,,,,,
,614e72b4805ce58a5835427d,001,2022-04-29_02h07.10.719,classification_task,2021.2.3,Win32,60.0060006,614e72b4805ce58a5835427d,626b377229c10585ec392f89,626b3a2c9ed5246871e533fb,,,,,,,,,,,,,,,,,,,,,,,a,0,0.7733,"[""0.078"",""0.159"",""0.626"",""0.778""]","[1,0,1,1]",0,60,60,60,1,1,0,,,0,FALSE,,,,,,,,,,,,,,,,,,,,,,,,,,,,,,
,614e72b4805ce58a5835427d,001,2022-04-29_02h07.10.719,classification_task,2021.2.3,Win32,60.0060006,614e72b4805ce58a5835427d,626b377229c10585ec392f89,626b3a2c9ed5246871e533fb,,,,,,,,,,,,,,,,,,,,,,,a,1,0.4239,"[""0.236"",""0.376"",""0.828"",""0.485""]","[1,1,1,0]",0,61,61,61,1,0,0,,,0,FALSE,,,,,,,,,,,,,,,,,,,,,,,,,,,,,,
,614e72b4805ce58a5835427d,001,2022-04-29_02h07.10.719,classification_task,2021.2.3,Win32,60.0060006,614e72b4805ce58a5835427d,626b377229c10585ec392f89,626b3a2c9ed5246871e533fb,,,,,,,,,,,,,,,,,,,,,,,a,0,0.6007,"[""0.159"",""0.111"",""0.626"",""0.778""]","[0,1,1,1]",0,62,62,62,1,1,0,,,0,FALSE,,,,,,,,,,,,,,,,,,,,,,,,,,,,,,
,614e72b4805ce58a5835427d,001,2022-04-29_02h07.10.719,classification_task,2021.2.3,Win32,60.0060006,614e72b4805ce58a5835427d,626b377229c10585ec392f89,626b3a2c9ed5246871e533fb,,,,,,,,,,,,,,,,,,,,,,,a,0,0.4314,"[""0.485"",""0.338"",""0.537"",""0.695""]","[0,1,1,1]",0,63,63,63,1,1,1,,,0,FALSE,,,,,,,,,,,,,,,,,,,,,,,,,,,,,,
,614e72b4805ce58a5835427d,001,2022-04-29_02h07.10.719,classification_task,2021.2.3,Win32,60.0060006,614e72b4805ce58a5835427d,626b377229c10585ec392f89,626b3a2c9ed5246871e533fb,,,,,,,,,,,,,,,,,,,,,,,,,,,,,,,,,,,,,,,0, ,,0,,,0,1,1,1,1,2,2,,,,,,,,,,,,,,,,,
,614e72b4805ce58a5835427d,001,2022-04-29_02h07.10.719,classification_task,2021.2.3,Win32,60.0060006,614e72b4805ce58a5835427d,626b377229c10585ec392f89,626b3a2c9ed5246871e533fb,,,,,,,,,,,,,,,,,,,,,,,,,,,,,,,,,,,,,,,1,  ,,0,,,0,1,1,1,1,2,2,,,,,,,,,,,,,,,,,
,614e72b4805ce58a5835427d,001,2022-04-29_02h07.10.719,classification_task,2021.2.3,Win32,60.0060006,614e72b4805ce58a5835427d,626b377229c10585ec392f89,626b3a2c9ed5246871e533fb,,,,,,,,,,,,,,,,,,,,,,,,,,,,,,,,,,,,,,,2,  ,,0,,,0,1,1,1,1,2,2,,,,,,,,,,,,,,,,,
,614e72b4805ce58a5835427d,001,2022-04-29_02h07.10.719,classification_task,2021.2.3,Win32,60.0060006,614e72b4805ce58a5835427d,626b377229c10585ec392f89,626b3a2c9ed5246871e533fb,,,,,,,,,,,,,,,,,,,,,,,,,,,,,,,,,,,,,,,,,,,,,0,1,1,1,1,,2,,,,,,,,,,,,,,,,,
,614e72b4805ce58a5835427d,001,2022-04-29_02h07.10.719,classification_task,2021.2.3,Win32,60.0060006,614e72b4805ce58a5835427d,626b377229c10585ec392f89,626b3a2c9ed5246871e533fb,,,,,,,,,,,,,,,,,,,,,space,1.6231,l,1,1.0497,"[""0.162"",""0.338"",""0.537"",""0.695""]","[0,1,1,1]",0,0,0,0,1,1,1,,,0,FALSE,,,,,,,,,,,,,,,,,,,,,,,,,,,,,,
,614e72b4805ce58a5835427d,001,2022-04-29_02h07.10.719,classification_task,2021.2.3,Win32,60.0060006,614e72b4805ce58a5835427d,626b377229c10585ec392f89,626b3a2c9ed5246871e533fb,,,,,,,,,,,,,,,,,,,,,,,l,1,0.8841,"[""0.026"",""0.338"",""0.491"",""0.695""]","[1,1,0,1]",0,1,1,1,1,1,1,,,0,FALSE,,,,,,,,,,,,,,,,,,,,,,,,,,,,,,
,614e72b4805ce58a5835427d,001,2022-04-29_02h07.10.719,classification_task,2021.2.3,Win32,60.0060006,614e72b4805ce58a5835427d,626b377229c10585ec392f89,626b3a2c9ed5246871e533fb,,,,,,,,,,,,,,,,,,,,,,,a,1,1.7516,"[""0.293"",""0.434"",""0.591"",""0.742""]","[1,1,1,0]",0,2,2,2,1,0,1,,,0,FALSE,,,,,,,,,,,,,,,,,,,,,,,,,,,,,,
,614e72b4805ce58a5835427d,001,2022-04-29_02h07.10.719,classification_task,2021.2.3,Win32,60.0060006,614e72b4805ce58a5835427d,626b377229c10585ec392f89,626b3a2c9ed5246871e533fb,,,,,,,,,,,,,,,,,,,,,,,a,0,1.2731,"[""0.026"",""0.338"",""0.537"",""0.170""]","[1,1,1,0]",0,3,3,3,1,1,1,,,0,FALSE,,,,,,,,,,,,,,,,,,,,,,,,,,,,,,
,614e72b4805ce58a5835427d,001,2022-04-29_02h07.10.719,classification_task,2021.2.3,Win32,60.0060006,614e72b4805ce58a5835427d,626b377229c10585ec392f89,626b3a2c9ed5246871e533fb,,,,,,,,,,,,,,,,,,,,,,,a,0,1.0934,"[""0.078"",""0.111"",""0.162"",""0.778""]","[1,1,0,1]",0,4,4,4,1,1,0,,,0,FALSE,,,,,,,,,,,,,,,,,,,,,,,,,,,,,,
,614e72b4805ce58a5835427d,001,2022-04-29_02h07.10.719,classification_task,2021.2.3,Win32,60.0060006,614e72b4805ce58a5835427d,626b377229c10585ec392f89,626b3a2c9ed5246871e533fb,,,,,,,,,,,,,,,,,,,,,,,l,0,0.9685,"[""0.293"",""0.434"",""0.484"",""0.920""]","[1,1,0,1]",0,5,5,5,1,0,1,,,0,FALSE,,,,,,,,,,,,,,,,,,,,,,,,,,,,,,
,614e72b4805ce58a5835427d,001,2022-04-29_02h07.10.719,classification_task,2021.2.3,Win32,60.0060006,614e72b4805ce58a5835427d,626b377229c10585ec392f89,626b3a2c9ed5246871e533fb,,,,,,,,,,,,,,,,,,,,,,,l,0,1.0408,"[""0.152"",""0.434"",""0.591"",""0.920""]","[0,1,1,1]",0,6,6,6,1,0,1,,,0,FALSE,,,,,,,,,,,,,,,,,,,,,,,,,,,,,,
,614e72b4805ce58a5835427d,001,2022-04-29_02h07.10.719,classification_task,2021.2.3,Win32,60.0060006,614e72b4805ce58a5835427d,626b377229c10585ec392f89,626b3a2c9ed5246871e533fb,,,,,,,,,,,,,,,,,,,,,,,l,1,0.6835,"[""0.078"",""0.111"",""0.626"",""0.484""]","[1,1,1,0]",0,7,7,7,1,1,0,,,0,FALSE,,,,,,,,,,,,,,,,,,,,,,,,,,,,,,
,614e72b4805ce58a5835427d,001,2022-04-29_02h07.10.719,classification_task,2021.2.3,Win32,60.0060006,614e72b4805ce58a5835427d,626b377229c10585ec392f89,626b3a2c9ed5246871e533fb,,,,,,,,,,,,,,,,,,,,,,,l,0,0.6352,"[""0.485"",""0.376"",""0.828"",""0.880""]","[0,1,1,1]",0,8,8,8,1,0,0,,,0,FALSE,,,,,,,,,,,,,,,,,,,,,,,,,,,,,,
,614e72b4805ce58a5835427d,001,2022-04-29_02h07.10.719,classification_task,2021.2.3,Win32,60.0060006,614e72b4805ce58a5835427d,626b377229c10585ec392f89,626b3a2c9ed5246871e533fb,,,,,,,,,,,,,,,,,,,,,,,a,0,1.5531,"[""0.732"",""0.111"",""0.626"",""0.778""]","[0,1,1,1]",0,9,9,9,1,1,0,,,0,FALSE,,,,,,,,,,,,,,,,,,,,,,,,,,,,,,
,614e72b4805ce58a5835427d,001,2022-04-29_02h07.10.719,classification_task,2021.2.3,Win32,60.0060006,614e72b4805ce58a5835427d,626b377229c10585ec392f89,626b3a2c9ed5246871e533fb,,,,,,,,,,,,,,,,,,,,,,,a,0,1.9171,"[""0.078"",""0.484"",""0.626"",""0.778""]","[1,0,1,1]",0,10,10,10,1,1,0,,,0,FALSE,,,,,,,,,,,,,,,,,,,,,,,,,,,,,,
,614e72b4805ce58a5835427d,001,2022-04-29_02h07.10.719,classification_task,2021.2.3,Win32,60.0060006,614e72b4805ce58a5835427d,626b377229c10585ec392f89,626b3a2c9ed5246871e533fb,,,,,,,,,,,,,,,,,,,,,,,a,0,1.0615,"[""0.026"",""0.472"",""0.537"",""0.695""]","[1,0,1,1]",0,11,11,11,1,1,1,,,0,FALSE,,,,,,,,,,,,,,,,,,,,,,,,,,,,,,
,614e72b4805ce58a5835427d,001,2022-04-29_02h07.10.719,classification_task,2021.2.3,Win32,60.0060006,614e72b4805ce58a5835427d,626b377229c10585ec392f89,626b3a2c9ed5246871e533fb,,,,,,,,,,,,,,,,,,,,,,,a,1,0.9002,"[""0.236"",""0.376"",""0.828"",""0.152""]","[1,1,1,0]",0,12,12,12,1,0,0,,,0,FALSE,,,,,,,,,,,,,,,,,,,,,,,,,,,,,,
,614e72b4805ce58a5835427d,001,2022-04-29_02h07.10.719,classification_task,2021.2.3,Win32,60.0060006,614e72b4805ce58a5835427d,626b377229c10585ec392f89,626b3a2c9ed5246871e533fb,,,,,,,,,,,,,,,,,,,,,,,l,0,0.8845,"[""0.236"",""0.162"",""0.828"",""0.880""]","[1,0,1,1]",0,13,13,13,1,0,0,,,0,FALSE,,,,,,,,,,,,,,,,,,,,,,,,,,,,,,
,614e72b4805ce58a5835427d,001,2022-04-29_02h07.10.719,classification_task,2021.2.3,Win32,60.0060006,614e72b4805ce58a5835427d,626b377229c10585ec392f89,626b3a2c9ed5246871e533fb,,,,,,,,,,,,,,,,,,,,,,,a,1,0.4507,"[""0.293"",""0.472"",""0.591"",""0.920""]","[1,0,1,1]",0,14,14,14,1,0,1,,,0,FALSE,,,,,,,,,,,,,,,,,,,,,,,,,,,,,,
,614e72b4805ce58a5835427d,001,2022-04-29_02h07.10.719,classification_task,2021.2.3,Win32,60.0060006,614e72b4805ce58a5835427d,626b377229c10585ec392f89,626b3a2c9ed5246871e533fb,,,,,,,,,,,,,,,,,,,,,,,l,0,0.7417,"[""0.236"",""0.376"",""0.159"",""0.880""]","[1,1,0,1]",0,15,15,15,1,0,0,,,0,FALSE,,,,,,,,,,,,,,,,,,,,,,,,,,,,,,
,614e72b4805ce58a5835427d,001,2022-04-29_02h07.10.719,classification_task,2021.2.3,Win32,60.0060006,614e72b4805ce58a5835427d,626b377229c10585ec392f89,626b3a2c9ed5246871e533fb,,,,,,,,,,,,,,,,,,,,,,,l,1,0.319,"[""0.078"",""0.742"",""0.626"",""0.778""]","[1,0,1,1]",0,16,16,16,1,1,0,,,0,FALSE,,,,,,,,,,,,,,,,,,,,,,,,,,,,,,
,614e72b4805ce58a5835427d,001,2022-04-29_02h07.10.719,classification_task,2021.2.3,Win32,60.0060006,614e72b4805ce58a5835427d,626b377229c10585ec392f89,626b3a2c9ed5246871e533fb,,,,,,,,,,,,,,,,,,,,,,,a,0,0.4102,"[""0.078"",""0.111"",""0.485"",""0.778""]","[1,1,0,1]",0,17,17,17,1,1,0,,,0,FALSE,,,,,,,,,,,,,,,,,,,,,,,,,,,,,,
,614e72b4805ce58a5835427d,001,2022-04-29_02h07.10.719,classification_task,2021.2.3,Win32,60.0060006,614e72b4805ce58a5835427d,626b377229c10585ec392f89,626b3a2c9ed5246871e533fb,,,,,,,,,,,,,,,,,,,,,,,l,0,1.0506,"[""0.293"",""0.484"",""0.591"",""0.920""]","[1,0,1,1]",0,18,18,18,1,0,1,,,0,FALSE,,,,,,,,,,,,,,,,,,,,,,,,,,,,,,
,614e72b4805ce58a5835427d,001,2022-04-29_02h07.10.719,classification_task,2021.2.3,Win32,60.0060006,614e72b4805ce58a5835427d,626b377229c10585ec392f89,626b3a2c9ed5246871e533fb,,,,,,,,,,,,,,,,,,,,,,,l,1,0.465,"[""0.078"",""0.111"",""0.626"",""0.484""]","[1,1,1,0]",0,19,19,19,1,1,0,,,0,FALSE,,,,,,,,,,,,,,,,,,,,,,,,,,,,,,
,614e72b4805ce58a5835427d,001,2022-04-29_02h07.10.719,classification_task,2021.2.3,Win32,60.0060006,614e72b4805ce58a5835427d,626b377229c10585ec392f89,626b3a2c9ed5246871e533fb,,,,,,,,,,,,,,,,,,,,,,,l,1,0.5004,"[""0.159"",""0.338"",""0.537"",""0.695""]","[0,1,1,1]",0,20,20,20,1,1,1,,,0,FALSE,,,,,,,,,,,,,,,,,,,,,,,,,,,,,,
,614e72b4805ce58a5835427d,001,2022-04-29_02h07.10.719,classification_task,2021.2.3,Win32,60.0060006,614e72b4805ce58a5835427d,626b377229c10585ec392f89,626b3a2c9ed5246871e533fb,,,,,,,,,,,,,,,,,,,,,,,l,1,0.6545,"[""0.026"",""0.338"",""0.537"",""0.491""]","[1,1,1,0]",0,21,21,21,1,1,1,,,0,FALSE,,,,,,,,,,,,,,,,,,,,,,,,,,,,,,
,614e72b4805ce58a5835427d,001,2022-04-29_02h07.10.719,classification_task,2021.2.3,Win32,60.0060006,614e72b4805ce58a5835427d,626b377229c10585ec392f89,626b3a2c9ed5246871e533fb,,,,,,,,,,,,,,,,,,,,,,,l,0,0.8193,"[""0.293"",""0.434"",""0.170"",""0.920""]","[1,1,0,1]",0,22,22,22,1,0,1,,,0,FALSE,,,,,,,,,,,,,,,,,,,,,,,,,,,,,,
,614e72b4805ce58a5835427d,001,2022-04-29_02h07.10.719,classification_task,2021.2.3,Win32,60.0060006,614e72b4805ce58a5835427d,626b377229c10585ec392f89,626b3a2c9ed5246871e533fb,,,,,,,,,,,,,,,,,,,,,,,a,1,0.4179,"[""0.152"",""0.434"",""0.591"",""0.920""]","[0,1,1,1]",0,23,23,23,1,0,1,,,0,FALSE,,,,,,,,,,,,,,,,,,,,,,,,,,,,,,
,614e72b4805ce58a5835427d,001,2022-04-29_02h07.10.719,classification_task,2021.2.3,Win32,60.0060006,614e72b4805ce58a5835427d,626b377229c10585ec392f89,626b3a2c9ed5246871e533fb,,,,,,,,,,,,,,,,,,,,,,,a,1,0.7169,"[""0.170"",""0.376"",""0.828"",""0.880""]","[0,1,1,1]",0,24,24,24,1,0,0,,,0,FALSE,,,,,,,,,,,,,,,,,,,,,,,,,,,,,,
,614e72b4805ce58a5835427d,001,2022-04-29_02h07.10.719,classification_task,2021.2.3,Win32,60.0060006,614e72b4805ce58a5835427d,626b377229c10585ec392f89,626b3a2c9ed5246871e533fb,,,,,,,,,,,,,,,,,,,,,,,a,1,0.5006,"[""0.236"",""0.190"",""0.828"",""0.880""]","[1,0,1,1]",0,25,25,25,1,0,0,,,0,FALSE,,,,,,,,,,,,,,,,,,,,,,,,,,,,,,
,614e72b4805ce58a5835427d,001,2022-04-29_02h07.10.719,classification_task,2021.2.3,Win32,60.0060006,614e72b4805ce58a5835427d,626b377229c10585ec392f89,626b3a2c9ed5246871e533fb,,,,,,,,,,,,,,,,,,,,,,,l,0,0.8507,"[""0.236"",""0.376"",""0.828"",""0.162""]","[1,1,1,0]",0,26,26,26,1,0,0,,,0,FALSE,,,,,,,,,,,,,,,,,,,,,,,,,,,,,,
,614e72b4805ce58a5835427d,001,2022-04-29_02h07.10.719,classification_task,2021.2.3,Win32,60.0060006,614e72b4805ce58a5835427d,626b377229c10585ec392f89,626b3a2c9ed5246871e533fb,,,,,,,,,,,,,,,,,,,,,,,l,1,8.2343,"[""0.026"",""0.157"",""0.537"",""0.695""]","[1,0,1,1]",0,27,27,27,1,1,1,,,0,FALSE,,,,,,,,,,,,,,,,,,,,,,,,,,,,,,
,614e72b4805ce58a5835427d,001,2022-04-29_02h07.10.719,classification_task,2021.2.3,Win32,60.0060006,614e72b4805ce58a5835427d,626b377229c10585ec392f89,626b3a2c9ed5246871e533fb,,,,,,,,,,,,,,,,,,,,,,,l,0,1.361,"[""0.236"",""0.376"",""0.152"",""0.880""]","[1,1,0,1]",0,28,28,28,1,0,0,,,0,FALSE,,,,,,,,,,,,,,,,,,,,,,,,,,,,,,
,614e72b4805ce58a5835427d,001,2022-04-29_02h07.10.719,classification_task,2021.2.3,Win32,60.0060006,614e72b4805ce58a5835427d,626b377229c10585ec392f89,626b3a2c9ed5246871e533fb,,,,,,,,,,,,,,,,,,,,,,,a,1,0.657,"[""0.293"",""0.434"",""0.591"",""0.159""]","[1,1,1,0]",0,29,29,29,1,0,1,,,0,FALSE,,,,,,,,,,,,,,,,,,,,,,,,,,,,,,
,614e72b4805ce58a5835427d,001,2022-04-29_02h07.10.719,classification_task,2021.2.3,Win32,60.0060006,614e72b4805ce58a5835427d,626b377229c10585ec392f89,626b3a2c9ed5246871e533fb,,,,,,,,,,,,,,,,,,,,,,,a,0,0.5744,"[""0.026"",""0.338"",""0.491"",""0.695""]","[1,1,0,1]",0,30,30,30,1,1,1,,,0,FALSE,,,,,,,,,,,,,,,,,,,,,,,,,,,,,,
,614e72b4805ce58a5835427d,001,2022-04-29_02h07.10.719,classification_task,2021.2.3,Win32,60.0060006,614e72b4805ce58a5835427d,626b377229c10585ec392f89,626b3a2c9ed5246871e533fb,,,,,,,,,,,,,,,,,,,,,,,l,1,0.9669,"[""0.485"",""0.111"",""0.626"",""0.778""]","[0,1,1,1]",0,31,31,31,1,1,0,,,0,FALSE,,,,,,,,,,,,,,,,,,,,,,,,,,,,,,
,614e72b4805ce58a5835427d,001,2022-04-29_02h07.10.719,classification_task,2021.2.3,Win32,60.0060006,614e72b4805ce58a5835427d,626b377229c10585ec392f89,626b3a2c9ed5246871e533fb,,,,,,,,,,,,,,,,,,,,,,,l,0,0.7434,"[""0.472"",""0.434"",""0.591"",""0.920""]","[0,1,1,1]",0,32,32,32,1,0,1,,,0,FALSE,,,,,,,,,,,,,,,,,,,,,,,,,,,,,,
,614e72b4805ce58a5835427d,001,2022-04-29_02h07.10.719,classification_task,2021.2.3,Win32,60.0060006,614e72b4805ce58a5835427d,626b377229c10585ec392f89,626b3a2c9ed5246871e533fb,,,,,,,,,,,,,,,,,,,,,,,a,0,0.7838,"[""0.026"",""0.338"",""0.162"",""0.695""]","[1,1,0,1]",0,33,33,33,1,1,1,,,0,FALSE,,,,,,,,,,,,,,,,,,,,,,,,,,,,,,
,614e72b4805ce58a5835427d,001,2022-04-29_02h07.10.719,classification_task,2021.2.3,Win32,60.0060006,614e72b4805ce58a5835427d,626b377229c10585ec392f89,626b3a2c9ed5246871e533fb,,,,,,,,,,,,,,,,,,,,,,,l,1,0.7374,"[""0.742"",""0.111"",""0.626"",""0.778""]","[0,1,1,1]",0,34,34,34,1,1,0,,,0,FALSE,,,,,,,,,,,,,,,,,,,,,,,,,,,,,,
,614e72b4805ce58a5835427d,001,2022-04-29_02h07.10.719,classification_task,2021.2.3,Win32,60.0060006,614e72b4805ce58a5835427d,626b377229c10585ec392f89,626b3a2c9ed5246871e533fb,,,,,,,,,,,,,,,,,,,,,,,a,1,0.5497,"[""0.236"",""0.376"",""0.152"",""0.880""]","[1,1,0,1]",0,35,35,35,1,0,0,,,0,FALSE,,,,,,,,,,,,,,,,,,,,,,,,,,,,,,
,614e72b4805ce58a5835427d,001,2022-04-29_02h07.10.719,classification_task,2021.2.3,Win32,60.0060006,614e72b4805ce58a5835427d,626b377229c10585ec392f89,626b3a2c9ed5246871e533fb,,,,,,,,,,,,,,,,,,,,,,,a,0,0.8669,"[""0.170"",""0.338"",""0.537"",""0.695""]","[0,1,1,1]",0,36,36,36,1,1,1,,,0,FALSE,,,,,,,,,,,,,,,,,,,,,,,,,,,,,,
,614e72b4805ce58a5835427d,001,2022-04-29_02h07.10.719,classification_task,2021.2.3,Win32,60.0060006,614e72b4805ce58a5835427d,626b377229c10585ec392f89,626b3a2c9ed5246871e533fb,,,,,,,,,,,,,,,,,,,,,,,l,0,0.6506,"[""0.236"",""0.491"",""0.828"",""0.880""]","[1,0,1,1]",0,37,37,37,1,0,0,,,0,FALSE,,,,,,,,,,,,,,,,,,,,,,,,,,,,,,
,614e72b4805ce58a5835427d,001,2022-04-29_02h07.10.719,classification_task,2021.2.3,Win32,60.0060006,614e72b4805ce58a5835427d,626b377229c10585ec392f89,626b3a2c9ed5246871e533fb,,,,,,,,,,,,,,,,,,,,,,,l,1,0.6704,"[""0.078"",""0.742"",""0.626"",""0.778""]","[1,0,1,1]",0,38,38,38,1,1,0,,,0,FALSE,,,,,,,,,,,,,,,,,,,,,,,,,,,,,,
,614e72b4805ce58a5835427d,001,2022-04-29_02h07.10.719,classification_task,2021.2.3,Win32,60.0060006,614e72b4805ce58a5835427d,626b377229c10585ec392f89,626b3a2c9ed5246871e533fb,,,,,,,,,,,,,,,,,,,,,,,l,0,0.7709,"[""0.236"",""0.376"",""0.828"",""0.742""]","[1,1,1,0]",0,39,39,39,1,0,0,,,0,FALSE,,,,,,,,,,,,,,,,,,,,,,,,,,,,,,
,614e72b4805ce58a5835427d,001,2022-04-29_02h07.10.719,classification_task,2021.2.3,Win32,60.0060006,614e72b4805ce58a5835427d,626b377229c10585ec392f89,626b3a2c9ed5246871e533fb,,,,,,,,,,,,,,,,,,,,,,,l,0,0.5506,"[""0.293"",""0.434"",""0.742"",""0.920""]","[1,1,0,1]",0,40,40,40,1,0,1,,,0,FALSE,,,,,,,,,,,,,,,,,,,,,,,,,,,,,,
,614e72b4805ce58a5835427d,001,2022-04-29_02h07.10.719,classification_task,2021.2.3,Win32,60.0060006,614e72b4805ce58a5835427d,626b377229c10585ec392f89,626b3a2c9ed5246871e533fb,,,,,,,,,,,,,,,,,,,,,,,a,0,0.5084,"[""0.026"",""0.338"",""0.537"",""0.484""]","[1,1,1,0]",0,41,41,41,1,1,1,,,0,FALSE,,,,,,,,,,,,,,,,,,,,,,,,,,,,,,
,614e72b4805ce58a5835427d,001,2022-04-29_02h07.10.719,classification_task,2021.2.3,Win32,60.0060006,614e72b4805ce58a5835427d,626b377229c10585ec392f89,626b3a2c9ed5246871e533fb,,,,,,,,,,,,,,,,,,,,,,,l,1,0.9171,"[""0.026"",""0.742"",""0.537"",""0.695""]","[1,0,1,1]",0,42,42,42,1,1,1,,,0,FALSE,,,,,,,,,,,,,,,,,,,,,,,,,,,,,,
,614e72b4805ce58a5835427d,001,2022-04-29_02h07.10.719,classification_task,2021.2.3,Win32,60.0060006,614e72b4805ce58a5835427d,626b377229c10585ec392f89,626b3a2c9ed5246871e533fb,,,,,,,,,,,,,,,,,,,,,,,a,0,0.5222,"[""0.078"",""0.111"",""0.626"",""0.152""]","[1,1,1,0]",0,43,43,43,1,1,0,,,0,FALSE,,,,,,,,,,,,,,,,,,,,,,,,,,,,,,
,614e72b4805ce58a5835427d,001,2022-04-29_02h07.10.719,classification_task,2021.2.3,Win32,60.0060006,614e72b4805ce58a5835427d,626b377229c10585ec392f89,626b3a2c9ed5246871e533fb,,,,,,,,,,,,,,,,,,,,,,,a,1,0.5407,"[""0.293"",""0.434"",""0.591"",""0.159""]","[1,1,1,0]",0,44,44,44,1,0,1,,,0,FALSE,,,,,,,,,,,,,,,,,,,,,,,,,,,,,,
,614e72b4805ce58a5835427d,001,2022-04-29_02h07.10.719,classification_task,2021.2.3,Win32,60.0060006,614e72b4805ce58a5835427d,626b377229c10585ec392f89,626b3a2c9ed5246871e533fb,,,,,,,,,,,,,,,,,,,,,,,a,0,0.7505,"[""0.078"",""0.111"",""0.732"",""0.778""]","[1,1,0,1]",0,45,45,45,1,1,0,,,0,FALSE,,,,,,,,,,,,,,,,,,,,,,,,,,,,,,
,614e72b4805ce58a5835427d,001,2022-04-29_02h07.10.719,classification_task,2021.2.3,Win32,60.0060006,614e72b4805ce58a5835427d,626b377229c10585ec392f89,626b3a2c9ed5246871e533fb,,,,,,,,,,,,,,,,,,,,,,,a,1,1.1505,"[""0.293"",""0.157"",""0.591"",""0.920""]","[1,0,1,1]",0,46,46,46,1,0,1,,,0,FALSE,,,,,,,,,,,,,,,,,,,,,,,,,,,,,,
,614e72b4805ce58a5835427d,001,2022-04-29_02h07.10.719,classification_task,2021.2.3,Win32,60.0060006,614e72b4805ce58a5835427d,626b377229c10585ec392f89,626b3a2c9ed5246871e533fb,,,,,,,,,,,,,,,,,,,,,,,l,0,0.5369,"[""0.742"",""0.376"",""0.828"",""0.880""]","[0,1,1,1]",0,47,47,47,1,0,0,,,0,FALSE,,,,,,,,,,,,,,,,,,,,,,,,,,,,,,
,614e72b4805ce58a5835427d,001,2022-04-29_02h07.10.719,classification_task,2021.2.3,Win32,60.0060006,614e72b4805ce58a5835427d,626b377229c10585ec392f89,626b3a2c9ed5246871e533fb,,,,,,,,,,,,,,,,,,,,,,,a,0,0.4833,"[""0.026"",""0.338"",""0.537"",""0.484""]","[1,1,1,0]",0,48,48,48,1,1,1,,,0,FALSE,,,,,,,,,,,,,,,,,,,,,,,,,,,,,,
,614e72b4805ce58a5835427d,001,2022-04-29_02h07.10.719,classification_task,2021.2.3,Win32,60.0060006,614e72b4805ce58a5835427d,626b377229c10585ec392f89,626b3a2c9ed5246871e533fb,,,,,,,,,,,,,,,,,,,,,,,a,0,0.5429,"[""0.190"",""0.338"",""0.537"",""0.695""]","[0,1,1,1]",0,49,49,49,1,1,1,,,0,FALSE,,,,,,,,,,,,,,,,,,,,,,,,,,,,,,
,614e72b4805ce58a5835427d,001,2022-04-29_02h07.10.719,classification_task,2021.2.3,Win32,60.0060006,614e72b4805ce58a5835427d,626b377229c10585ec392f89,626b3a2c9ed5246871e533fb,,,,,,,,,,,,,,,,,,,,,,,a,0,0.5337,"[""0.078"",""0.111"",""0.472"",""0.778""]","[1,1,0,1]",0,50,50,50,1,1,0,,,0,FALSE,,,,,,,,,,,,,,,,,,,,,,,,,,,,,,
,614e72b4805ce58a5835427d,001,2022-04-29_02h07.10.719,classification_task,2021.2.3,Win32,60.0060006,614e72b4805ce58a5835427d,626b377229c10585ec392f89,626b3a2c9ed5246871e533fb,,,,,,,,,,,,,,,,,,,,,,,l,0,1.0426,"[""0.152"",""0.434"",""0.591"",""0.920""]","[0,1,1,1]",0,51,51,51,1,0,1,,,0,FALSE,,,,,,,,,,,,,,,,,,,,,,,,,,,,,,
,614e72b4805ce58a5835427d,001,2022-04-29_02h07.10.719,classification_task,2021.2.3,Win32,60.0060006,614e72b4805ce58a5835427d,626b377229c10585ec392f89,626b3a2c9ed5246871e533fb,,,,,,,,,,,,,,,,,,,,,,,l,0,0.5041,"[""0.484"",""0.376"",""0.828"",""0.880""]","[0,1,1,1]",0,52,52,52,1,0,0,,,0,FALSE,,,,,,,,,,,,,,,,,,,,,,,,,,,,,,
,614e72b4805ce58a5835427d,001,2022-04-29_02h07.10.719,classification_task,2021.2.3,Win32,60.0060006,614e72b4805ce58a5835427d,626b377229c10585ec392f89,626b3a2c9ed5246871e533fb,,,,,,,,,,,,,,,,,,,,,,,a,1,0.5554,"[""0.293"",""0.434"",""0.591"",""0.157""]","[1,1,1,0]",0,53,53,53,1,0,1,,,0,FALSE,,,,,,,,,,,,,,,,,,,,,,,,,,,,,,
,614e72b4805ce58a5835427d,001,2022-04-29_02h07.10.719,classification_task,2021.2.3,Win32,60.0060006,614e72b4805ce58a5835427d,626b377229c10585ec392f89,626b3a2c9ed5246871e533fb,,,,,,,,,,,,,,,,,,,,,,,a,1,0.5407,"[""0.293"",""0.434"",""0.157"",""0.920""]","[1,1,0,1]",0,54,54,54,1,0,1,,,0,FALSE,,,,,,,,,,,,,,,,,,,,,,,,,,,,,,
,614e72b4805ce58a5835427d,001,2022-04-29_02h07.10.719,classification_task,2021.2.3,Win32,60.0060006,614e72b4805ce58a5835427d,626b377229c10585ec392f89,626b3a2c9ed5246871e533fb,,,,,,,,,,,,,,,,,,,,,,,a,1,0.4005,"[""0.236"",""0.376"",""0.828"",""0.192""]","[1,1,1,0]",0,55,55,55,1,0,0,,,0,FALSE,,,,,,,,,,,,,,,,,,,,,,,,,,,,,,
,614e72b4805ce58a5835427d,001,2022-04-29_02h07.10.719,classification_task,2021.2.3,Win32,60.0060006,614e72b4805ce58a5835427d,626b377229c10585ec392f89,626b3a2c9ed5246871e533fb,,,,,,,,,,,,,,,,,,,,,,,a,0,0.4217,"[""0.078"",""0.111"",""0.626"",""0.159""]","[1,1,1,0]",0,56,56,56,1,1,0,,,0,FALSE,,,,,,,,,,,,,,,,,,,,,,,,,,,,,,
,614e72b4805ce58a5835427d,001,2022-04-29_02h07.10.719,classification_task,2021.2.3,Win32,60.0060006,614e72b4805ce58a5835427d,626b377229c10585ec392f89,626b3a2c9ed5246871e533fb,,,,,,,,,,,,,,,,,,,,,,,a,0,0.5406,"[""0.026"",""0.159"",""0.537"",""0.695""]","[1,0,1,1]",0,57,57,57,1,1,1,,,0,FALSE,,,,,,,,,,,,,,,,,,,,,,,,,,,,,,
,614e72b4805ce58a5835427d,001,2022-04-29_02h07.10.719,classification_task,2021.2.3,Win32,60.0060006,614e72b4805ce58a5835427d,626b377229c10585ec392f89,626b3a2c9ed5246871e533fb,,,,,,,,,,,,,,,,,,,,,,,a,1,0.6341,"[""0.236"",""0.376"",""0.491"",""0.880""]","[1,1,0,1]",0,58,58,58,1,0,0,,,0,FALSE,,,,,,,,,,,,,,,,,,,,,,,,,,,,,,
,614e72b4805ce58a5835427d,001,2022-04-29_02h07.10.719,classification_task,2021.2.3,Win32,60.0060006,614e72b4805ce58a5835427d,626b377229c10585ec392f89,626b3a2c9ed5246871e533fb,,,,,,,,,,,,,,,,,,,,,,,a,0,0.4503,"[""0.078"",""0.170"",""0.626"",""0.778""]","[1,0,1,1]",0,59,59,59,1,1,0,,,0,FALSE,,,,,,,,,,,,,,,,,,,,,,,,,,,,,,
,614e72b4805ce58a5835427d,001,2022-04-29_02h07.10.719,classification_task,2021.2.3,Win32,60.0060006,614e72b4805ce58a5835427d,626b377229c10585ec392f89,626b3a2c9ed5246871e533fb,,,,,,,,,,,,,,,,,,,,,,,a,0,0.6003,"[""0.026"",""0.338"",""0.484"",""0.695""]","[1,1,0,1]",0,60,60,60,1,1,1,,,0,FALSE,,,,,,,,,,,,,,,,,,,,,,,,,,,,,,
,614e72b4805ce58a5835427d,001,2022-04-29_02h07.10.719,classification_task,2021.2.3,Win32,60.0060006,614e72b4805ce58a5835427d,626b377229c10585ec392f89,626b3a2c9ed5246871e533fb,,,,,,,,,,,,,,,,,,,,,,,l,0,0.8169,"[""0.293"",""0.503"",""0.591"",""0.920""]","[1,0,1,1]",0,61,61,61,1,0,1,,,0,FALSE,,,,,,,,,,,,,,,,,,,,,,,,,,,,,,
,614e72b4805ce58a5835427d,001,2022-04-29_02h07.10.719,classification_task,2021.2.3,Win32,60.0060006,614e72b4805ce58a5835427d,626b377229c10585ec392f89,626b3a2c9ed5246871e533fb,,,,,,,,,,,,,,,,,,,,,,,a,0,0.8504,"[""0.170"",""0.111"",""0.626"",""0.778""]","[0,1,1,1]",0,62,62,62,1,1,0,,,0,FALSE,,,,,,,,,,,,,,,,,,,,,,,,,,,,,,
,614e72b4805ce58a5835427d,001,2022-04-29_02h07.10.719,classification_task,2021.2.3,Win32,60.0060006,614e72b4805ce58a5835427d,626b377229c10585ec392f89,626b3a2c9ed5246871e533fb,,,,,,,,,,,,,,,,,,,,,,,l,0,0.5507,"[""0.236"",""0.484"",""0.828"",""0.880""]","[1,0,1,1]",0,63,63,63,1,0,0,,,0,FALSE,,,,,,,,,,,,,,,,,,,,,,,,,,,,,,
,614e72b4805ce58a5835427d,001,2022-04-29_02h07.10.719,classification_task,2021.2.3,Win32,60.0060006,614e72b4805ce58a5835427d,626b377229c10585ec392f89,626b3a2c9ed5246871e533fb,,,,,,,,,,,,,,,,,,,,,,,,,,,,,,,,,,,,,,,0, ,,0,,,0,2,2,2,1,2,3,,,,,,,,,,,,,,,,,
,614e72b4805ce58a5835427d,001,2022-04-29_02h07.10.719,classification_task,2021.2.3,Win32,60.0060006,614e72b4805ce58a5835427d,626b377229c10585ec392f89,626b3a2c9ed5246871e533fb,,,,,,,,,,,,,,,,,,,,,,,,,,,,,,,,,,,,,,,1,  ,,0,,,0,2,2,2,1,2,3,,,,,,,,,,,,,,,,,
,614e72b4805ce58a5835427d,001,2022-04-29_02h07.10.719,classification_task,2021.2.3,Win32,60.0060006,614e72b4805ce58a5835427d,626b377229c10585ec392f89,626b3a2c9ed5246871e533fb,,,,,,,,,,,,,,,,,,,,,,,,,,,,,,,,,,,,,,,2,  ,,0,,,0,2,2,2,1,2,3,,,,,,,,,,,,,,,,,
,614e72b4805ce58a5835427d,001,2022-04-29_02h07.10.719,classification_task,2021.2.3,Win32,60.0060006,614e72b4805ce58a5835427d,626b377229c10585ec392f89,626b3a2c9ed5246871e533fb,,,,,,,,,,,,,,,,,,,,,,,,,,,,,,,,,,,,,,,,,,,,,0,2,2,2,1,,3,,,,,,,,,,,,,,,,,
,614e72b4805ce58a5835427d,001,2022-04-29_02h07.10.719,classification_task,2021.2.3,Win32,60.0060006,614e72b4805ce58a5835427d,626b377229c10585ec392f89,626b3a2c9ed5246871e533fb,,,,,,,,,,,,,,,,,,,,,,,,,,,,,,,,,,,,,,,,,,,,,,,,,,,,,I believe the aid is a competent performer,,0.7,0,3,679.0242,0,0,0,0,1,0,,,,
,614e72b4805ce58a5835427d,001,2022-04-29_02h07.10.719,classification_task,2021.2.3,Win32,60.0060006,614e72b4805ce58a5835427d,626b377229c10585ec392f89,626b3a2c9ed5246871e533fb,,,,,,,,,,,,,,,,,,,,,,,,,,,,,,,,,,,,,,,,,,,,,,,,,,,,,I trust the aid,,0.7,0,3,680.6063,0,0,0,0,1,0,,,,
,614e72b4805ce58a5835427d,001,2022-04-29_02h07.10.719,classification_task,2021.2.3,Win32,60.0060006,614e72b4805ce58a5835427d,626b377229c10585ec392f89,626b3a2c9ed5246871e533fb,,,,,,,,,,,,,,,,,,,,,,,,,,,,,,,,,,,,,,,,,,,,,,,,,,,,,I have confidence in the advice given by the aid,,0.7,0,3,684.0427,0,0,0,0,1,0,,,,
,614e72b4805ce58a5835427d,001,2022-04-29_02h07.10.719,classification_task,2021.2.3,Win32,60.0060006,614e72b4805ce58a5835427d,626b377229c10585ec392f89,626b3a2c9ed5246871e533fb,,,,,,,,,,,,,,,,,,,,,,,,,,,,,,,,,,,,,,,,,,,,,,,,,,,,,I can depend on the aid,,0.7,0,3,686.7023,0,0,0,0,1,0,,,,
,614e72b4805ce58a5835427d,001,2022-04-29_02h07.10.719,classification_task,2021.2.3,Win32,60.0060006,614e72b4805ce58a5835427d,626b377229c10585ec392f89,626b3a2c9ed5246871e533fb,,,,,,,,,,,,,,,,,,,,,,,,,,,,,,,,,,,,,,,,,,,,,,,,,,,,,I can rely on the aid to behave in consistent ways,,0.7,0,3,689.4175,0,0,0,0,1,0,,,,
,614e72b4805ce58a5835427d,001,2022-04-29_02h07.10.719,classification_task,2021.2.3,Win32,60.0060006,614e72b4805ce58a5835427d,626b377229c10585ec392f89,626b3a2c9ed5246871e533fb,,,,,,,,,,,,,,,,,,,,,,,,,,,,,,,,,,,,,,,,,,,,,,,,,,,,,I can rely on the aid to do its best every time I take its advice,,0.7,0,3,691.1505,0,0,0,0,1,0,,,,
,614e72b4805ce58a5835427d,001,2022-04-29_02h07.10.719,classification_task,2021.2.3,Win32,60.0060006,614e72b4805ce58a5835427d,626b377229c10585ec392f89,626b3a2c9ed5246871e533fb,,,,,,,,,,,,,,,,,,,,,,,,,,,,,,,,,,,,,,,,,,,,,,,,,,,,,"On trials you completed with assistance from the aid, how frequently did you think the aid was correct?",,0.7,0,70,,0,0,0,0,1,0,,,,
,614e72b4805ce58a5835427d,001,2022-04-29_02h07.10.719,classification_task,2021.2.3,Win32,60.0060006,614e72b4805ce58a5835427d,626b377229c10585ec392f89,626b3a2c9ed5246871e533fb,,,,,,,,,,,,,,,,,,,,,,,,,,,,,,,,,,,,,,,,,,,,,,,,,,,,,"On trials you completed without the aid, how frequently did you think you were correct?",,0.7,0,50,,0,0,0,0,1,0,,,,
,614e72b4805ce58a5835427d,001,2022-04-29_02h07.10.719,classification_task,2021.2.3,Win32,60.0060006,614e72b4805ce58a5835427d,626b377229c10585ec392f89,626b3a2c9ed5246871e533fb,,,,,,,,,,,,,,,,,,,,,,,,,,,,,,,,,,,,,,,,,,,,,,,,,,,,,,,,,,,0,0,0,0,1,,,,,
,614e72b4805ce58a5835427d,001,2022-04-29_02h07.10.719,classification_task,2021.2.3,Win32,60.0060006,614e72b4805ce58a5835427d,626b377229c10585ec392f89,626b3a2c9ed5246871e533fb,,,,,,,,,,,,,,,,,,,,,,,,,,,,,,,,,,,,,,,,,,,,,,,,,,,,,,,,,,,,,,,,,space,8.3282,708.2089,
,614e72b4805ce58a5835427d,001,2022-04-29_02h07.10.719,classification_task,2021.2.3,Win32,60.0060006,614e72b4805ce58a5835427d,626b377229c10585ec392f89,626b3a2c9ed5246871e533fb,,,,,,,,,,,,,,,,,,,,,,,,,,,,,,,,,,,,,,,,,,,,,,,,,,,,,,,,,,,,,,,,,,,,"Mozilla/5.0 (Windows NT 10.0; Win64; x64) AppleWebKit/537.36 (KHTML, like Gecko) Chrome/100.0.4896.127 Safari/537.36"
