usingWebGL,participant,session,date,expName,psychopyVersion,OS,frameRate,study_id,signatures_friend,signatures_foe,band_ranges_top,band_ranges_bottom,formitemText,formtype,formundefined,formitemWidth,formindex,formresponse,formrt,key_resp_2.keys,key_resp_2.rt,tute_resp.keys,tute_resp.rt,tutorial.thisRepN,tutorial.thisTrialN,tutorial.thisN,tutorial.thisIndex,tutorial.ran,key_resp_4.keys,key_resp_4.rt,key_resp.keys,key_resp.corr,key_resp.rt,lines_presented,is_signal_presented,trials.thisRepN,trials.thisTrialN,trials.thisN,trials.thisIndex,trials.ran,vessel,active_band,lines,is_signal,supported_pos,catch_trial,debrief_formindex,debrief_formitemText,debrief_formtype,debrief_formitemWidth,debrief_formresponse,debrief_formrt,phases.thisRepN,phases.thisTrialN,phases.thisN,phases.thisIndex,phases.ran,phases.order,phase,key_resp_3.keys,trustitemText,trusttype,trustitemWidth,trustindex,trustresponse,trustrt,support_status.thisRepN,support_status.thisTrialN,support_status.thisN,support_status.thisIndex,support_status.ran,support_status.order,key_resp_5.keys,key_resp_5.rt,globalClockTime,userAgent,manualCondition
TRUE,61507d436ab12ee98422756d,627c673be82f5864b6507aaa,2022-05-11_20h54.05.700,classification_task,2021.2.3,Win32,60.0276127,627c6715c52fd12f31907bcf,,,,,,,,,,,,,,,,,,,,,,,,,,,,,,,,,,,,,,,,,,,,,,,,,,,,,,,,,,,,,,,,,,,,,
,61507d436ab12ee98422756d,627c673be82f5864b6507aaa,2022-05-11_20h54.05.700,classification_task,2021.2.3,Win32,60.0276127,627c6715c52fd12f31907bcf,"[[""0.221"",""0.374"",""0.886"",""0.929""],[""0.304"",""0.480"",""0.849"",""0.963""]]","[[""0.031"",""0.269"",""0.545"",""0.809""],[""0.143"",""0.431"",""0.616"",""0.751""]]","[1,10]","[100,1000]",Video game experience,,,0.7,0,,,,,,,,,,,,,,,,,,,,,,,,,,,,,,,,,,,,,,,,,,,,,,,,,,,,,,,,,,,,
,61507d436ab12ee98422756d,627c673be82f5864b6507aaa,2022-05-11_20h54.05.700,classification_task,2021.2.3,Win32,60.0276127,627c6715c52fd12f31907bcf,,,,,Approximately how many hours did you spend playing video games in the last week?,,,0.7,0,6,,,,,,,,,,,,,,,,,,,,,,,,,,,,,,,,,,,,,,,,,,,,,,,,,,,,,,,,,,,
,61507d436ab12ee98422756d,627c673be82f5864b6507aaa,2022-05-11_20h54.05.700,classification_task,2021.2.3,Win32,60.0276127,627c6715c52fd12f31907bcf,,,,,"Which game did you play the most this year? (Enter ""None"" if you didn't play any)",,,0.7,0,Halo Infinite,,,,,,,,,,,,,,,,,,,,,,,,,,,,,,,,,,,,,,,,,,,,,,,,,,,,,,,,,,,
,61507d436ab12ee98422756d,627c673be82f5864b6507aaa,2022-05-11_20h54.05.700,classification_task,2021.2.3,Win32,60.0276127,627c6715c52fd12f31907bcf,,,,,Visual perception,,,0.7,0,,,,,,,,,,,,,,,,,,,,,,,,,,,,,,,,,,,,,,,,,,,,,,,,,,,,,,,,,,,,
,61507d436ab12ee98422756d,627c673be82f5864b6507aaa,2022-05-11_20h54.05.700,classification_task,2021.2.3,Win32,60.0276127,627c6715c52fd12f31907bcf,,,,,Do you have any form of color blindness?,,,0.7,0,No,30.9696,,,,,,,,,,,,,,,,,,,,,,,,,,,,,,,,,,,,,,,,,,,,,,,,,,,,,,,,,,
,61507d436ab12ee98422756d,627c673be82f5864b6507aaa,2022-05-11_20h54.05.700,classification_task,2021.2.3,Win32,60.0276127,627c6715c52fd12f31907bcf,,,,,Do you use software to change the colour temperature of your screen (e.g. f.lux)?,,,0.7,0,Yes,36.9892,,,,,,,,,,,,,,,,,,,,,,,,,,,,,,,,,,,,,,,,,,,,,,,,,,,,,,,,,,
,61507d436ab12ee98422756d,627c673be82f5864b6507aaa,2022-05-11_20h54.05.700,classification_task,2021.2.3,Win32,60.0276127,627c6715c52fd12f31907bcf,,,,,,,,,,,,space,44.6966,space,10.2953,0,0,0,0,1,,,,,,,,,,,,,,,,,,,,,,,,,,,,,,,,,,,,,,,,,,,,,,,,,
,61507d436ab12ee98422756d,627c673be82f5864b6507aaa,2022-05-11_20h54.05.700,classification_task,2021.2.3,Win32,60.0276127,627c6715c52fd12f31907bcf,,,,,,,,,,,,,,space,198.9522,1,0,1,0,1,,,,,,,,,,,,,,,,,,,,,,,,,,,,,,,,,,,,,,,,,,,,,,,,,
,61507d436ab12ee98422756d,627c673be82f5864b6507aaa,2022-05-11_20h54.05.700,classification_task,2021.2.3,Win32,60.0276127,627c6715c52fd12f31907bcf,,,,,,,,,,,,,,space,60.6944,2,0,2,0,1,,,,,,,,,,,,,,,,,,,,,,,,,,,,,,,,,,,,,,,,,,,,,,,,,
,61507d436ab12ee98422756d,627c673be82f5864b6507aaa,2022-05-11_20h54.05.700,classification_task,2021.2.3,Win32,60.0276127,627c6715c52fd12f31907bcf,,,,,,,,,,,,,,space,25.5143,3,0,3,0,1,,,,,,,,,,,,,,,,,,,,,,,,,,,,,,,,,,,,,,,,,,,,,,,,,
,61507d436ab12ee98422756d,627c673be82f5864b6507aaa,2022-05-11_20h54.05.700,classification_task,2021.2.3,Win32,60.0276127,627c6715c52fd12f31907bcf,,,,,,,,,,,,,,space,43.164,4,0,4,0,1,,,,,,,,,,,,,,,,,,,,,,,,,,,,,,,,,,,,,,,,,,,,,,,,,
,61507d436ab12ee98422756d,627c673be82f5864b6507aaa,2022-05-11_20h54.05.700,classification_task,2021.2.3,Win32,60.0276127,627c6715c52fd12f31907bcf,,,,,,,,,,,,,,,,,,,,,space,17.4493,l,0,7.7574,"[""0.221"",""0.374"",""0.886"",""0.087""]","[1,1,1,0]",0,0,0,0,1,0,0,,,0,FALSE,,,,,,,,,,,,,,,,,,,,,,,,,,,,,,,
,61507d436ab12ee98422756d,627c673be82f5864b6507aaa,2022-05-11_20h54.05.700,classification_task,2021.2.3,Win32,60.0276127,627c6715c52fd12f31907bcf,,,,,,,,,,,,,,,,,,,,,,,a,1,3.31,"[""0.304"",""0.480"",""0.655"",""0.963""]","[1,1,0,1]",0,1,1,1,1,0,1,,,0,FALSE,,,,,,,,,,,,,,,,,,,,,,,,,,,,,,,
,61507d436ab12ee98422756d,627c673be82f5864b6507aaa,2022-05-11_20h54.05.700,classification_task,2021.2.3,Win32,60.0276127,627c6715c52fd12f31907bcf,,,,,,,,,,,,,,,,,,,,,,,a,1,1.204,"[""0.304"",""0.480"",""0.849"",""0.184""]","[1,1,1,0]",0,2,2,2,1,0,1,,,0,FALSE,,,,,,,,,,,,,,,,,,,,,,,,,,,,,,,
,61507d436ab12ee98422756d,627c673be82f5864b6507aaa,2022-05-11_20h54.05.700,classification_task,2021.2.3,Win32,60.0276127,627c6715c52fd12f31907bcf,,,,,,,,,,,,,,,,,,,,,,,a,0,0.8011,"[""0.143"",""0.338"",""0.616"",""0.751""]","[1,0,1,1]",0,3,3,3,1,1,1,,,0,FALSE,,,,,,,,,,,,,,,,,,,,,,,,,,,,,,,
,61507d436ab12ee98422756d,627c673be82f5864b6507aaa,2022-05-11_20h54.05.700,classification_task,2021.2.3,Win32,60.0276127,627c6715c52fd12f31907bcf,,,,,,,,,,,,,,,,,,,,,,,l,0,0.6589,"[""0.221"",""0.374"",""0.706"",""0.929""]","[1,1,0,1]",0,4,4,4,1,0,0,,,0,FALSE,,,,,,,,,,,,,,,,,,,,,,,,,,,,,,,
,61507d436ab12ee98422756d,627c673be82f5864b6507aaa,2022-05-11_20h54.05.700,classification_task,2021.2.3,Win32,60.0276127,627c6715c52fd12f31907bcf,,,,,,,,,,,,,,,,,,,,,,,l,1,0.3834,"[""0.031"",""0.670"",""0.545"",""0.809""]","[1,0,1,1]",0,5,5,5,1,1,0,,,0,FALSE,,,,,,,,,,,,,,,,,,,,,,,,,,,,,,,
,61507d436ab12ee98422756d,627c673be82f5864b6507aaa,2022-05-11_20h54.05.700,classification_task,2021.2.3,Win32,60.0276127,627c6715c52fd12f31907bcf,,,,,,,,,,,,,,,,,,,,,,,l,0,0.2009,"[""0.688"",""0.374"",""0.886"",""0.929""]","[0,1,1,1]",0,6,6,6,1,0,0,,,0,FALSE,,,,,,,,,,,,,,,,,,,,,,,,,,,,,,,
,61507d436ab12ee98422756d,627c673be82f5864b6507aaa,2022-05-11_20h54.05.700,classification_task,2021.2.3,Win32,60.0276127,627c6715c52fd12f31907bcf,,,,,,,,,,,,,,,,,,,,,,,a,0,0.0505,"[""0.031"",""0.269"",""0.545"",""0.695""]","[1,1,1,0]",0,7,7,7,1,1,0,,,0,FALSE,,,,,,,,,,,,,,,,,,,,,,,,,,,,,,,
,61507d436ab12ee98422756d,627c673be82f5864b6507aaa,2022-05-11_20h54.05.700,classification_task,2021.2.3,Win32,60.0276127,627c6715c52fd12f31907bcf,,,,,,,,,,,,,,,,,,,,,,,a,0,3.7001,"[""0.087"",""0.269"",""0.545"",""0.809""]","[0,1,1,1]",0,8,8,8,1,1,0,,,0,FALSE,,,,,,,,,,,,,,,,,,,,,,,,,,,,,,,
,61507d436ab12ee98422756d,627c673be82f5864b6507aaa,2022-05-11_20h54.05.700,classification_task,2021.2.3,Win32,60.0276127,627c6715c52fd12f31907bcf,,,,,,,,,,,,,,,,,,,,,,,l,1,5.7237,"[""0.031"",""0.269"",""0.104"",""0.809""]","[1,1,0,1]",0,9,9,9,1,1,0,,,0,FALSE,,,,,,,,,,,,,,,,,,,,,,,,,,,,,,,
,61507d436ab12ee98422756d,627c673be82f5864b6507aaa,2022-05-11_20h54.05.700,classification_task,2021.2.3,Win32,60.0276127,627c6715c52fd12f31907bcf,,,,,,,,,,,,,,,,,,,,,,,l,0,3.6812,"[""0.304"",""0.184"",""0.849"",""0.963""]","[1,0,1,1]",0,10,10,10,1,0,1,,,0,FALSE,,,,,,,,,,,,,,,,,,,,,,,,,,,,,,,
,61507d436ab12ee98422756d,627c673be82f5864b6507aaa,2022-05-11_20h54.05.700,classification_task,2021.2.3,Win32,60.0276127,627c6715c52fd12f31907bcf,,,,,,,,,,,,,,,,,,,,,,,a,1,3.2033,"[""0.338"",""0.480"",""0.849"",""0.963""]","[0,1,1,1]",0,11,11,11,1,0,1,,,0,FALSE,,,,,,,,,,,,,,,,,,,,,,,,,,,,,,,
,61507d436ab12ee98422756d,627c673be82f5864b6507aaa,2022-05-11_20h54.05.700,classification_task,2021.2.3,Win32,60.0276127,627c6715c52fd12f31907bcf,,,,,,,,,,,,,,,,,,,,,,,a,1,4.3523,"[""0.221"",""0.655"",""0.886"",""0.929""]","[1,0,1,1]",0,12,12,12,1,0,0,,,0,FALSE,,,,,,,,,,,,,,,,,,,,,,,,,,,,,,,
,61507d436ab12ee98422756d,627c673be82f5864b6507aaa,2022-05-11_20h54.05.700,classification_task,2021.2.3,Win32,60.0276127,627c6715c52fd12f31907bcf,,,,,,,,,,,,,,,,,,,,,,,a,0,6.8966,"[""0.143"",""0.431"",""0.697"",""0.751""]","[1,1,0,1]",0,13,13,13,1,1,1,,,0,FALSE,,,,,,,,,,,,,,,,,,,,,,,,,,,,,,,
,61507d436ab12ee98422756d,627c673be82f5864b6507aaa,2022-05-11_20h54.05.700,classification_task,2021.2.3,Win32,60.0276127,627c6715c52fd12f31907bcf,,,,,,,,,,,,,,,,,,,,,,,l,1,6.0362,"[""0.143"",""0.431"",""0.616"",""0.681""]","[1,1,1,0]",0,14,14,14,1,1,1,,,0,FALSE,,,,,,,,,,,,,,,,,,,,,,,,,,,,,,,
,61507d436ab12ee98422756d,627c673be82f5864b6507aaa,2022-05-11_20h54.05.700,classification_task,2021.2.3,Win32,60.0276127,627c6715c52fd12f31907bcf,,,,,,,,,,,,,,,,,,,,,,,l,1,2.0361,"[""0.681"",""0.431"",""0.616"",""0.751""]","[0,1,1,1]",0,15,15,15,1,1,1,,,0,FALSE,,,,,,,,,,,,,,,,,,,,,,,,,,,,,,,
,61507d436ab12ee98422756d,627c673be82f5864b6507aaa,2022-05-11_20h54.05.700,classification_task,2021.2.3,Win32,60.0276127,627c6715c52fd12f31907bcf,,,,,,,,,,,,,,,,,,,,,,,l,1,1.536,"[""0.143"",""0.431"",""0.338"",""0.751""]","[1,1,0,1]",0,16,16,16,1,1,1,,,0,FALSE,,,,,,,,,,,,,,,,,,,,,,,,,,,,,,,
,61507d436ab12ee98422756d,627c673be82f5864b6507aaa,2022-05-11_20h54.05.700,classification_task,2021.2.3,Win32,60.0276127,627c6715c52fd12f31907bcf,,,,,,,,,,,,,,,,,,,,,,,l,1,1.184,"[""0.143"",""0.338"",""0.616"",""0.751""]","[1,0,1,1]",0,17,17,17,1,1,1,,,0,FALSE,,,,,,,,,,,,,,,,,,,,,,,,,,,,,,,
,61507d436ab12ee98422756d,627c673be82f5864b6507aaa,2022-05-11_20h54.05.700,classification_task,2021.2.3,Win32,60.0276127,627c6715c52fd12f31907bcf,,,,,,,,,,,,,,,,,,,,,,,l,0,2.6349,"[""0.304"",""0.480"",""0.849"",""0.184""]","[1,1,1,0]",0,18,18,18,1,0,1,,,0,FALSE,,,,,,,,,,,,,,,,,,,,,,,,,,,,,,,
,61507d436ab12ee98422756d,627c673be82f5864b6507aaa,2022-05-11_20h54.05.700,classification_task,2021.2.3,Win32,60.0276127,627c6715c52fd12f31907bcf,,,,,,,,,,,,,,,,,,,,,,,a,1,1.4199,"[""0.304"",""0.670"",""0.849"",""0.963""]","[1,0,1,1]",0,19,19,19,1,0,1,,,0,FALSE,,,,,,,,,,,,,,,,,,,,,,,,,,,,,,,
,61507d436ab12ee98422756d,627c673be82f5864b6507aaa,2022-05-11_20h54.05.700,classification_task,2021.2.3,Win32,60.0276127,627c6715c52fd12f31907bcf,,,,,,,,,,,,,,,,,,,,,,,a,1,2.5288,"[""0.221"",""0.688"",""0.886"",""0.929""]","[1,0,1,1]",0,20,20,20,1,0,0,,,0,FALSE,,,,,,,,,,,,,,,,,,,,,,,,,,,,,,,
,61507d436ab12ee98422756d,627c673be82f5864b6507aaa,2022-05-11_20h54.05.700,classification_task,2021.2.3,Win32,60.0276127,627c6715c52fd12f31907bcf,,,,,,,,,,,,,,,,,,,,,,,l,1,3.7527,"[""0.031"",""0.269"",""0.545"",""0.656""]","[1,1,1,0]",0,21,21,21,1,1,0,,,0,FALSE,,,,,,,,,,,,,,,,,,,,,,,,,,,,,,,
,61507d436ab12ee98422756d,627c673be82f5864b6507aaa,2022-05-11_20h54.05.700,classification_task,2021.2.3,Win32,60.0276127,627c6715c52fd12f31907bcf,,,,,,,,,,,,,,,,,,,,,,,a,1,3.1455,"[""0.688"",""0.480"",""0.849"",""0.963""]","[0,1,1,1]",0,22,22,22,1,0,1,,,0,FALSE,,,,,,,,,,,,,,,,,,,,,,,,,,,,,,,
,61507d436ab12ee98422756d,627c673be82f5864b6507aaa,2022-05-11_20h54.05.700,classification_task,2021.2.3,Win32,60.0276127,627c6715c52fd12f31907bcf,,,,,,,,,,,,,,,,,,,,,,,l,1,1.9963,"[""0.143"",""0.431"",""0.616"",""0.093""]","[1,1,1,0]",0,23,23,23,1,1,1,,,0,FALSE,,,,,,,,,,,,,,,,,,,,,,,,,,,,,,,
,61507d436ab12ee98422756d,627c673be82f5864b6507aaa,2022-05-11_20h54.05.700,classification_task,2021.2.3,Win32,60.0276127,627c6715c52fd12f31907bcf,,,,,,,,,,,,,,,,,,,,,,,a,0,4.1414,"[""0.031"",""0.269"",""0.107"",""0.809""]","[1,1,0,1]",0,24,24,24,1,1,0,,,0,FALSE,,,,,,,,,,,,,,,,,,,,,,,,,,,,,,,
,61507d436ab12ee98422756d,627c673be82f5864b6507aaa,2022-05-11_20h54.05.700,classification_task,2021.2.3,Win32,60.0276127,627c6715c52fd12f31907bcf,,,,,,,,,,,,,,,,,,,,,,,l,1,2.7905,"[""0.031"",""0.079"",""0.545"",""0.809""]","[1,0,1,1]",0,25,25,25,1,1,0,,,0,FALSE,,,,,,,,,,,,,,,,,,,,,,,,,,,,,,,
,61507d436ab12ee98422756d,627c673be82f5864b6507aaa,2022-05-11_20h54.05.700,classification_task,2021.2.3,Win32,60.0276127,627c6715c52fd12f31907bcf,,,,,,,,,,,,,,,,,,,,,,,l,1,3.3042,"[""0.087"",""0.269"",""0.545"",""0.809""]","[0,1,1,1]",0,26,26,26,1,1,0,,,0,FALSE,,,,,,,,,,,,,,,,,,,,,,,,,,,,,,,
,61507d436ab12ee98422756d,627c673be82f5864b6507aaa,2022-05-11_20h54.05.700,classification_task,2021.2.3,Win32,60.0276127,627c6715c52fd12f31907bcf,,,,,,,,,,,,,,,,,,,,,,,l,0,5.0355,"[""0.221"",""0.374"",""0.886"",""0.087""]","[1,1,1,0]",0,27,27,27,1,0,0,,,0,FALSE,,,,,,,,,,,,,,,,,,,,,,,,,,,,,,,
,61507d436ab12ee98422756d,627c673be82f5864b6507aaa,2022-05-11_20h54.05.700,classification_task,2021.2.3,Win32,60.0276127,627c6715c52fd12f31907bcf,,,,,,,,,,,,,,,,,,,,,,,a,1,5.1469,"[""0.304"",""0.480"",""0.079"",""0.963""]","[1,1,0,1]",0,28,28,28,1,0,1,,,0,FALSE,,,,,,,,,,,,,,,,,,,,,,,,,,,,,,,
,61507d436ab12ee98422756d,627c673be82f5864b6507aaa,2022-05-11_20h54.05.700,classification_task,2021.2.3,Win32,60.0276127,627c6715c52fd12f31907bcf,,,,,,,,,,,,,,,,,,,,,,,a,1,2.6465,"[""0.221"",""0.374"",""0.656"",""0.929""]","[1,1,0,1]",0,29,29,29,1,0,0,,,0,FALSE,,,,,,,,,,,,,,,,,,,,,,,,,,,,,,,
,61507d436ab12ee98422756d,627c673be82f5864b6507aaa,2022-05-11_20h54.05.700,classification_task,2021.2.3,Win32,60.0276127,627c6715c52fd12f31907bcf,,,,,,,,,,,,,,,,,,,,,,,l,1,1.7989,"[""0.184"",""0.431"",""0.616"",""0.751""]","[0,1,1,1]",0,30,30,30,1,1,1,,,0,FALSE,,,,,,,,,,,,,,,,,,,,,,,,,,,,,,,
,61507d436ab12ee98422756d,627c673be82f5864b6507aaa,2022-05-11_20h54.05.700,classification_task,2021.2.3,Win32,60.0276127,627c6715c52fd12f31907bcf,,,,,,,,,,,,,,,,,,,,,,,a,1,3.3619,"[""0.697"",""0.374"",""0.886"",""0.929""]","[0,1,1,1]",0,31,31,31,1,0,0,,,0,FALSE,,,,,,,,,,,,,,,,,,,,,,,,,,,,,,,
,61507d436ab12ee98422756d,627c673be82f5864b6507aaa,2022-05-11_20h54.05.700,classification_task,2021.2.3,Win32,60.0276127,627c6715c52fd12f31907bcf,,,,,,,,,,,,,,,,,,,,,,,a,1,2.2132,"[""0.087"",""0.374"",""0.886"",""0.929""]","[0,1,1,1]",0,32,32,32,1,0,0,,,0,FALSE,,,,,,,,,,,,,,,,,,,,,,,,,,,,,,,
,61507d436ab12ee98422756d,627c673be82f5864b6507aaa,2022-05-11_20h54.05.700,classification_task,2021.2.3,Win32,60.0276127,627c6715c52fd12f31907bcf,,,,,,,,,,,,,,,,,,,,,,,l,0,2.634,"[""0.304"",""0.079"",""0.849"",""0.963""]","[1,0,1,1]",0,33,33,33,1,0,1,,,0,FALSE,,,,,,,,,,,,,,,,,,,,,,,,,,,,,,,
,61507d436ab12ee98422756d,627c673be82f5864b6507aaa,2022-05-11_20h54.05.700,classification_task,2021.2.3,Win32,60.0276127,627c6715c52fd12f31907bcf,,,,,,,,,,,,,,,,,,,,,,,a,0,1.518,"[""0.143"",""0.107"",""0.616"",""0.751""]","[1,0,1,1]",0,34,34,34,1,1,1,,,0,FALSE,,,,,,,,,,,,,,,,,,,,,,,,,,,,,,,
,61507d436ab12ee98422756d,627c673be82f5864b6507aaa,2022-05-11_20h54.05.700,classification_task,2021.2.3,Win32,60.0276127,627c6715c52fd12f31907bcf,,,,,,,,,,,,,,,,,,,,,,,l,0,3.1507,"[""0.221"",""0.374"",""0.087"",""0.929""]","[1,1,0,1]",0,35,35,35,1,0,0,,,0,FALSE,,,,,,,,,,,,,,,,,,,,,,,,,,,,,,,
,61507d436ab12ee98422756d,627c673be82f5864b6507aaa,2022-05-11_20h54.05.700,classification_task,2021.2.3,Win32,60.0276127,627c6715c52fd12f31907bcf,,,,,,,,,,,,,,,,,,,,,,,a,0,1.2507,"[""0.143"",""0.431"",""0.706"",""0.751""]","[1,1,0,1]",0,36,36,36,1,1,1,,,0,FALSE,,,,,,,,,,,,,,,,,,,,,,,,,,,,,,,
,61507d436ab12ee98422756d,627c673be82f5864b6507aaa,2022-05-11_20h54.05.700,classification_task,2021.2.3,Win32,60.0276127,627c6715c52fd12f31907bcf,,,,,,,,,,,,,,,,,,,,,,,a,0,0.268,"[""0.031"",""0.087"",""0.545"",""0.809""]","[1,0,1,1]",0,37,37,37,1,1,0,,,0,FALSE,,,,,,,,,,,,,,,,,,,,,,,,,,,,,,,
,61507d436ab12ee98422756d,627c673be82f5864b6507aaa,2022-05-11_20h54.05.700,classification_task,2021.2.3,Win32,60.0276127,627c6715c52fd12f31907bcf,,,,,,,,,,,,,,,,,,,,,,,a,0,0.8513,"[""0.087"",""0.269"",""0.545"",""0.809""]","[0,1,1,1]",0,38,38,38,1,1,0,,,0,FALSE,,,,,,,,,,,,,,,,,,,,,,,,,,,,,,,
,61507d436ab12ee98422756d,627c673be82f5864b6507aaa,2022-05-11_20h54.05.700,classification_task,2021.2.3,Win32,60.0276127,627c6715c52fd12f31907bcf,,,,,,,,,,,,,,,,,,,,,,,l,0,0.2008,"[""0.304"",""0.480"",""0.706"",""0.963""]","[1,1,0,1]",0,39,39,39,1,0,1,,,0,FALSE,,,,,,,,,,,,,,,,,,,,,,,,,,,,,,,
,61507d436ab12ee98422756d,627c673be82f5864b6507aaa,2022-05-11_20h54.05.700,classification_task,2021.2.3,Win32,60.0276127,627c6715c52fd12f31907bcf,,,,,,,,,,,,,,,,,,,,,,,a,1,0.5508,"[""0.221"",""0.374"",""0.886"",""0.338""]","[1,1,1,0]",0,40,40,40,1,0,0,,,0,FALSE,,,,,,,,,,,,,,,,,,,,,,,,,,,,,,,
,61507d436ab12ee98422756d,627c673be82f5864b6507aaa,2022-05-11_20h54.05.700,classification_task,2021.2.3,Win32,60.0276127,627c6715c52fd12f31907bcf,,,,,,,,,,,,,,,,,,,,,,,a,1,0.8168,"[""0.304"",""0.480"",""0.849"",""0.706""]","[1,1,1,0]",0,41,41,41,1,0,1,,,0,FALSE,,,,,,,,,,,,,,,,,,,,,,,,,,,,,,,
,61507d436ab12ee98422756d,627c673be82f5864b6507aaa,2022-05-11_20h54.05.700,classification_task,2021.2.3,Win32,60.0276127,627c6715c52fd12f31907bcf,,,,,,,,,,,,,,,,,,,,,,,l,1,1.3064,"[""0.706"",""0.431"",""0.616"",""0.751""]","[0,1,1,1]",0,42,42,42,1,1,1,,,0,FALSE,,,,,,,,,,,,,,,,,,,,,,,,,,,,,,,
,61507d436ab12ee98422756d,627c673be82f5864b6507aaa,2022-05-11_20h54.05.700,classification_task,2021.2.3,Win32,60.0276127,627c6715c52fd12f31907bcf,,,,,,,,,,,,,,,,,,,,,,,l,0,0.2724,"[""0.670"",""0.480"",""0.849"",""0.963""]","[0,1,1,1]",0,43,43,43,1,0,1,,,0,FALSE,,,,,,,,,,,,,,,,,,,,,,,,,,,,,,,
,61507d436ab12ee98422756d,627c673be82f5864b6507aaa,2022-05-11_20h54.05.700,classification_task,2021.2.3,Win32,60.0276127,627c6715c52fd12f31907bcf,,,,,,,,,,,,,,,,,,,,,,,a,0,0.6841,"[""0.143"",""0.431"",""0.616"",""0.107""]","[1,1,1,0]",0,44,44,44,1,1,1,,,0,FALSE,,,,,,,,,,,,,,,,,,,,,,,,,,,,,,,
,61507d436ab12ee98422756d,627c673be82f5864b6507aaa,2022-05-11_20h54.05.700,classification_task,2021.2.3,Win32,60.0276127,627c6715c52fd12f31907bcf,,,,,,,,,,,,,,,,,,,,,,,a,1,0.6064,"[""0.221"",""0.695"",""0.886"",""0.929""]","[1,0,1,1]",0,45,45,45,1,0,0,,,0,FALSE,,,,,,,,,,,,,,,,,,,,,,,,,,,,,,,
,61507d436ab12ee98422756d,627c673be82f5864b6507aaa,2022-05-11_20h54.05.700,classification_task,2021.2.3,Win32,60.0276127,627c6715c52fd12f31907bcf,,,,,,,,,,,,,,,,,,,,,,,a,0,2.0538,"[""0.031"",""0.269"",""0.545"",""0.706""]","[1,1,1,0]",0,46,46,46,1,1,0,,,0,FALSE,,,,,,,,,,,,,,,,,,,,,,,,,,,,,,,
,61507d436ab12ee98422756d,627c673be82f5864b6507aaa,2022-05-11_20h54.05.700,classification_task,2021.2.3,Win32,60.0276127,627c6715c52fd12f31907bcf,,,,,,,,,,,,,,,,,,,,,,,a,0,0.5243,"[""0.031"",""0.269"",""0.107"",""0.809""]","[1,1,0,1]",0,47,47,47,1,1,0,,,0,FALSE,,,,,,,,,,,,,,,,,,,,,,,,,,,,,,,
,61507d436ab12ee98422756d,627c673be82f5864b6507aaa,2022-05-11_20h54.05.700,classification_task,2021.2.3,Win32,60.0276127,627c6715c52fd12f31907bcf,,,,,,,,,,,,,,,,,,,,,,,a,0,0.3507,"[""0.143"",""0.431"",""0.616"",""0.104""]","[1,1,1,0]",0,48,48,48,1,1,1,,,0,FALSE,,,,,,,,,,,,,,,,,,,,,,,,,,,,,,,
,61507d436ab12ee98422756d,627c673be82f5864b6507aaa,2022-05-11_20h54.05.700,classification_task,2021.2.3,Win32,60.0276127,627c6715c52fd12f31907bcf,,,,,,,,,,,,,,,,,,,,,,,a,0,0.4907,"[""0.031"",""0.695"",""0.545"",""0.809""]","[1,0,1,1]",0,49,49,49,1,1,0,,,0,FALSE,,,,,,,,,,,,,,,,,,,,,,,,,,,,,,,
,61507d436ab12ee98422756d,627c673be82f5864b6507aaa,2022-05-11_20h54.05.700,classification_task,2021.2.3,Win32,60.0276127,627c6715c52fd12f31907bcf,,,,,,,,,,,,,,,,,,,,,,,a,0,0.0876,"[""0.143"",""0.670"",""0.616"",""0.751""]","[1,0,1,1]",0,50,50,50,1,1,1,,,0,FALSE,,,,,,,,,,,,,,,,,,,,,,,,,,,,,,,
,61507d436ab12ee98422756d,627c673be82f5864b6507aaa,2022-05-11_20h54.05.700,classification_task,2021.2.3,Win32,60.0276127,627c6715c52fd12f31907bcf,,,,,,,,,,,,,,,,,,,,,,,l,0,0.3026,"[""0.221"",""0.374"",""0.655"",""0.929""]","[1,1,0,1]",0,51,51,51,1,0,0,,,0,FALSE,,,,,,,,,,,,,,,,,,,,,,,,,,,,,,,
,61507d436ab12ee98422756d,627c673be82f5864b6507aaa,2022-05-11_20h54.05.700,classification_task,2021.2.3,Win32,60.0276127,627c6715c52fd12f31907bcf,,,,,,,,,,,,,,,,,,,,,,,a,1,0.1544,"[""0.304"",""0.480"",""0.655"",""0.963""]","[1,1,0,1]",0,52,52,52,1,0,1,,,0,FALSE,,,,,,,,,,,,,,,,,,,,,,,,,,,,,,,
,61507d436ab12ee98422756d,627c673be82f5864b6507aaa,2022-05-11_20h54.05.700,classification_task,2021.2.3,Win32,60.0276127,627c6715c52fd12f31907bcf,,,,,,,,,,,,,,,,,,,,,,,a,0,2.2676,"[""0.695"",""0.431"",""0.616"",""0.751""]","[0,1,1,1]",0,53,53,53,1,1,1,,,0,FALSE,,,,,,,,,,,,,,,,,,,,,,,,,,,,,,,
,61507d436ab12ee98422756d,627c673be82f5864b6507aaa,2022-05-11_20h54.05.700,classification_task,2021.2.3,Win32,60.0276127,627c6715c52fd12f31907bcf,,,,,,,,,,,,,,,,,,,,,,,l,0,0.2687,"[""0.221"",""0.374"",""0.886"",""0.695""]","[1,1,1,0]",0,54,54,54,1,0,0,,,0,FALSE,,,,,,,,,,,,,,,,,,,,,,,,,,,,,,,
,61507d436ab12ee98422756d,627c673be82f5864b6507aaa,2022-05-11_20h54.05.700,classification_task,2021.2.3,Win32,60.0276127,627c6715c52fd12f31907bcf,,,,,,,,,,,,,,,,,,,,,,,a,1,0.2361,"[""0.688"",""0.480"",""0.849"",""0.963""]","[0,1,1,1]",0,55,55,55,1,0,1,,,0,FALSE,,,,,,,,,,,,,,,,,,,,,,,,,,,,,,,
,61507d436ab12ee98422756d,627c673be82f5864b6507aaa,2022-05-11_20h54.05.700,classification_task,2021.2.3,Win32,60.0276127,627c6715c52fd12f31907bcf,,,,,,,,,,,,,,,,,,,,,,,a,1,0.4842,"[""0.304"",""0.655"",""0.849"",""0.963""]","[1,0,1,1]",0,56,56,56,1,0,1,,,0,FALSE,,,,,,,,,,,,,,,,,,,,,,,,,,,,,,,
,61507d436ab12ee98422756d,627c673be82f5864b6507aaa,2022-05-11_20h54.05.700,classification_task,2021.2.3,Win32,60.0276127,627c6715c52fd12f31907bcf,,,,,,,,,,,,,,,,,,,,,,,a,0,0.6313,"[""0.031"",""0.269"",""0.545"",""0.093""]","[1,1,1,0]",0,57,57,57,1,1,0,,,0,FALSE,,,,,,,,,,,,,,,,,,,,,,,,,,,,,,,
,61507d436ab12ee98422756d,627c673be82f5864b6507aaa,2022-05-11_20h54.05.700,classification_task,2021.2.3,Win32,60.0276127,627c6715c52fd12f31907bcf,,,,,,,,,,,,,,,,,,,,,,,a,0,0.4337,"[""0.107"",""0.269"",""0.545"",""0.809""]","[0,1,1,1]",0,58,58,58,1,1,0,,,0,FALSE,,,,,,,,,,,,,,,,,,,,,,,,,,,,,,,
,61507d436ab12ee98422756d,627c673be82f5864b6507aaa,2022-05-11_20h54.05.700,classification_task,2021.2.3,Win32,60.0276127,627c6715c52fd12f31907bcf,,,,,,,,,,,,,,,,,,,,,,,l,1,0.1507,"[""0.031"",""0.269"",""0.706"",""0.809""]","[1,1,0,1]",0,59,59,59,1,1,0,,,0,FALSE,,,,,,,,,,,,,,,,,,,,,,,,,,,,,,,
,61507d436ab12ee98422756d,627c673be82f5864b6507aaa,2022-05-11_20h54.05.700,classification_task,2021.2.3,Win32,60.0276127,627c6715c52fd12f31907bcf,,,,,,,,,,,,,,,,,,,,,,,l,1,0.0504,"[""0.143"",""0.431"",""0.087"",""0.751""]","[1,1,0,1]",0,60,60,60,1,1,1,,,0,FALSE,,,,,,,,,,,,,,,,,,,,,,,,,,,,,,,
,61507d436ab12ee98422756d,627c673be82f5864b6507aaa,2022-05-11_20h54.05.700,classification_task,2021.2.3,Win32,60.0276127,627c6715c52fd12f31907bcf,,,,,,,,,,,,,,,,,,,,,,,l,0,0.6005,"[""0.304"",""0.480"",""0.849"",""0.695""]","[1,1,1,0]",0,61,61,61,1,0,1,,,0,FALSE,,,,,,,,,,,,,,,,,,,,,,,,,,,,,,,
,61507d436ab12ee98422756d,627c673be82f5864b6507aaa,2022-05-11_20h54.05.700,classification_task,2021.2.3,Win32,60.0276127,627c6715c52fd12f31907bcf,,,,,,,,,,,,,,,,,,,,,,,a,1,0.187,"[""0.104"",""0.374"",""0.886"",""0.929""]","[0,1,1,1]",0,62,62,62,1,0,0,,,0,FALSE,,,,,,,,,,,,,,,,,,,,,,,,,,,,,,,
,61507d436ab12ee98422756d,627c673be82f5864b6507aaa,2022-05-11_20h54.05.700,classification_task,2021.2.3,Win32,60.0276127,627c6715c52fd12f31907bcf,,,,,,,,,,,,,,,,,,,,,,,a,1,0.2174,"[""0.221"",""0.338"",""0.886"",""0.929""]","[1,0,1,1]",0,63,63,63,1,0,0,,,0,FALSE,,,,,,,,,,,,,,,,,,,,,,,,,,,,,,,
,61507d436ab12ee98422756d,627c673be82f5864b6507aaa,2022-05-11_20h54.05.700,classification_task,2021.2.3,Win32,60.0276127,627c6715c52fd12f31907bcf,,,,,,,,,,,,,,,,,,,,,,,,,,,,,,,,,,,,,,,0, ,,0,5.275573192,655.822,0,0,0,0,1,2,1,,,,,,,,,,,,,,,,,,
,61507d436ab12ee98422756d,627c673be82f5864b6507aaa,2022-05-11_20h54.05.700,classification_task,2021.2.3,Win32,60.0276127,627c6715c52fd12f31907bcf,,,,,,,,,,,,,,,,,,,,,,,,,,,,,,,,,,,,,,,1,  ,,0,8.169091711,660.0878,0,0,0,0,1,2,1,,,,,,,,,,,,,,,,,,
,61507d436ab12ee98422756d,627c673be82f5864b6507aaa,2022-05-11_20h54.05.700,classification_task,2021.2.3,Win32,60.0276127,627c6715c52fd12f31907bcf,,,,,,,,,,,,,,,,,,,,,,,,,,,,,,,,,,,,,,,2,  ,,0,7.927965168,663.6605,0,0,0,0,1,2,1,,,,,,,,,,,,,,,,,,
,61507d436ab12ee98422756d,627c673be82f5864b6507aaa,2022-05-11_20h54.05.700,classification_task,2021.2.3,Win32,60.0276127,627c6715c52fd12f31907bcf,,,,,,,,,,,,,,,,,,,,,,,,,,,,,,,,,,,,,,,,,,,,,0,0,0,0,1,,1,,,,,,,,,,,,,,,,,,
,61507d436ab12ee98422756d,627c673be82f5864b6507aaa,2022-05-11_20h54.05.700,classification_task,2021.2.3,Win32,60.0276127,627c6715c52fd12f31907bcf,,,,,,,,,,,,,,,,,,,,,space,126.6196,l,1,2.1447,"[""0.031"",""0.104"",""0.545"",""0.809""]","[1,0,1,1]",0,0,0,0,1,1,0,,,0,FALSE,,,,,,,,,,,,,,,,,,,,,,,,,,,,,,,
,61507d436ab12ee98422756d,627c673be82f5864b6507aaa,2022-05-11_20h54.05.700,classification_task,2021.2.3,Win32,60.0276127,627c6715c52fd12f31907bcf,,,,,,,,,,,,,,,,,,,,,,,l,1,2.6783,"[""0.143"",""0.431"",""0.107"",""0.751""]","[1,1,0,1]",0,1,1,1,1,1,1,,,0,FALSE,,,,,,,,,,,,,,,,,,,,,,,,,,,,,,,
,61507d436ab12ee98422756d,627c673be82f5864b6507aaa,2022-05-11_20h54.05.700,classification_task,2021.2.3,Win32,60.0276127,627c6715c52fd12f31907bcf,,,,,,,,,,,,,,,,,,,,,,,a,1,1.3808,"[""0.221"",""0.093"",""0.886"",""0.929""]","[1,0,1,1]",0,2,2,2,1,0,0,,,0,FALSE,,,,,,,,,,,,,,,,,,,,,,,,,,,,,,,
,61507d436ab12ee98422756d,627c673be82f5864b6507aaa,2022-05-11_20h54.05.700,classification_task,2021.2.3,Win32,60.0276127,627c6715c52fd12f31907bcf,,,,,,,,,,,,,,,,,,,,,,,l,1,1.2685,"[""0.031"",""0.269"",""0.104"",""0.809""]","[1,1,0,1]",0,3,3,3,1,1,0,,,0,FALSE,,,,,,,,,,,,,,,,,,,,,,,,,,,,,,,
,61507d436ab12ee98422756d,627c673be82f5864b6507aaa,2022-05-11_20h54.05.700,classification_task,2021.2.3,Win32,60.0276127,627c6715c52fd12f31907bcf,,,,,,,,,,,,,,,,,,,,,,,l,1,3.8341,"[""0.706"",""0.269"",""0.545"",""0.809""]","[0,1,1,1]",0,4,4,4,1,1,0,,,0,FALSE,,,,,,,,,,,,,,,,,,,,,,,,,,,,,,,
,61507d436ab12ee98422756d,627c673be82f5864b6507aaa,2022-05-11_20h54.05.700,classification_task,2021.2.3,Win32,60.0276127,627c6715c52fd12f31907bcf,,,,,,,,,,,,,,,,,,,,,,,a,0,2.7006,"[""0.031"",""0.269"",""0.545"",""0.706""]","[1,1,1,0]",0,5,5,5,1,1,0,,,0,FALSE,,,,,,,,,,,,,,,,,,,,,,,,,,,,,,,
,61507d436ab12ee98422756d,627c673be82f5864b6507aaa,2022-05-11_20h54.05.700,classification_task,2021.2.3,Win32,60.0276127,627c6715c52fd12f31907bcf,,,,,,,,,,,,,,,,,,,,,,,a,1,0.8323,"[""0.221"",""0.374"",""0.656"",""0.929""]","[1,1,0,1]",0,6,6,6,1,0,0,,,0,FALSE,,,,,,,,,,,,,,,,,,,,,,,,,,,,,,,
,61507d436ab12ee98422756d,627c673be82f5864b6507aaa,2022-05-11_20h54.05.700,classification_task,2021.2.3,Win32,60.0276127,627c6715c52fd12f31907bcf,,,,,,,,,,,,,,,,,,,,,,,a,0,1.2305,"[""0.695"",""0.431"",""0.616"",""0.751""]","[0,1,1,1]",0,7,7,7,1,1,1,,,0,FALSE,,,,,,,,,,,,,,,,,,,,,,,,,,,,,,,
,61507d436ab12ee98422756d,627c673be82f5864b6507aaa,2022-05-11_20h54.05.700,classification_task,2021.2.3,Win32,60.0276127,627c6715c52fd12f31907bcf,,,,,,,,,,,,,,,,,,,,,,,l,0,1.2994,"[""0.104"",""0.480"",""0.849"",""0.963""]","[0,1,1,1]",0,8,8,8,1,0,1,,,0,FALSE,,,,,,,,,,,,,,,,,,,,,,,,,,,,,,,
,61507d436ab12ee98422756d,627c673be82f5864b6507aaa,2022-05-11_20h54.05.700,classification_task,2021.2.3,Win32,60.0276127,627c6715c52fd12f31907bcf,,,,,,,,,,,,,,,,,,,,,,,a,1,0.9496,"[""0.304"",""0.480"",""0.079"",""0.963""]","[1,1,0,1]",0,9,9,9,1,0,1,,,0,FALSE,,,,,,,,,,,,,,,,,,,,,,,,,,,,,,,
,61507d436ab12ee98422756d,627c673be82f5864b6507aaa,2022-05-11_20h54.05.700,classification_task,2021.2.3,Win32,60.0276127,627c6715c52fd12f31907bcf,,,,,,,,,,,,,,,,,,,,,,,a,0,0.9642,"[""0.143"",""0.681"",""0.616"",""0.751""]","[1,0,1,1]",0,10,10,10,1,1,1,,,0,FALSE,,,,,,,,,,,,,,,,,,,,,,,,,,,,,,,
,61507d436ab12ee98422756d,627c673be82f5864b6507aaa,2022-05-11_20h54.05.700,classification_task,2021.2.3,Win32,60.0276127,627c6715c52fd12f31907bcf,,,,,,,,,,,,,,,,,,,,,,,a,1,2.2432,"[""0.688"",""0.374"",""0.886"",""0.929""]","[0,1,1,1]",0,11,11,11,1,0,0,,,0,FALSE,,,,,,,,,,,,,,,,,,,,,,,,,,,,,,,
,61507d436ab12ee98422756d,627c673be82f5864b6507aaa,2022-05-11_20h54.05.700,classification_task,2021.2.3,Win32,60.0276127,627c6715c52fd12f31907bcf,,,,,,,,,,,,,,,,,,,,,,,a,1,1.6498,"[""0.221"",""0.374"",""0.886"",""0.681""]","[1,1,1,0]",0,12,12,12,1,0,0,,,0,FALSE,,,,,,,,,,,,,,,,,,,,,,,,,,,,,,,
,61507d436ab12ee98422756d,627c673be82f5864b6507aaa,2022-05-11_20h54.05.700,classification_task,2021.2.3,Win32,60.0276127,627c6715c52fd12f31907bcf,,,,,,,,,,,,,,,,,,,,,,,a,0,0.9795,"[""0.143"",""0.431"",""0.616"",""0.695""]","[1,1,1,0]",0,13,13,13,1,1,1,,,0,FALSE,,,,,,,,,,,,,,,,,,,,,,,,,,,,,,,
,61507d436ab12ee98422756d,627c673be82f5864b6507aaa,2022-05-11_20h54.05.700,classification_task,2021.2.3,Win32,60.0276127,627c6715c52fd12f31907bcf,,,,,,,,,,,,,,,,,,,,,,,l,0,0.7366,"[""0.304"",""0.107"",""0.849"",""0.963""]","[1,0,1,1]",0,14,14,14,1,0,1,,,0,FALSE,,,,,,,,,,,,,,,,,,,,,,,,,,,,,,,
,61507d436ab12ee98422756d,627c673be82f5864b6507aaa,2022-05-11_20h54.05.700,classification_task,2021.2.3,Win32,60.0276127,627c6715c52fd12f31907bcf,,,,,,,,,,,,,,,,,,,,,,,a,1,1.2339,"[""0.304"",""0.480"",""0.849"",""0.338""]","[1,1,1,0]",0,15,15,15,1,0,1,,,0,FALSE,,,,,,,,,,,,,,,,,,,,,,,,,,,,,,,
,61507d436ab12ee98422756d,627c673be82f5864b6507aaa,2022-05-11_20h54.05.700,classification_task,2021.2.3,Win32,60.0276127,627c6715c52fd12f31907bcf,,,,,,,,,,,,,,,,,,,,,,,a,0,0.9146,"[""0.143"",""0.431"",""0.616"",""0.087""]","[1,1,1,0]",0,16,16,16,1,1,1,,,0,FALSE,,,,,,,,,,,,,,,,,,,,,,,,,,,,,,,
,61507d436ab12ee98422756d,627c673be82f5864b6507aaa,2022-05-11_20h54.05.700,classification_task,2021.2.3,Win32,60.0276127,627c6715c52fd12f31907bcf,,,,,,,,,,,,,,,,,,,,,,,l,1,3.517,"[""0.143"",""0.431"",""0.695"",""0.751""]","[1,1,0,1]",0,17,17,17,1,1,1,,,0,FALSE,,,,,,,,,,,,,,,,,,,,,,,,,,,,,,,
,61507d436ab12ee98422756d,627c673be82f5864b6507aaa,2022-05-11_20h54.05.700,classification_task,2021.2.3,Win32,60.0276127,627c6715c52fd12f31907bcf,,,,,,,,,,,,,,,,,,,,,,,a,1,0.9827,"[""0.656"",""0.480"",""0.849"",""0.963""]","[0,1,1,1]",0,18,18,18,1,0,1,,,0,FALSE,,,,,,,,,,,,,,,,,,,,,,,,,,,,,,,
,61507d436ab12ee98422756d,627c673be82f5864b6507aaa,2022-05-11_20h54.05.700,classification_task,2021.2.3,Win32,60.0276127,627c6715c52fd12f31907bcf,,,,,,,,,,,,,,,,,,,,,,,l,1,2.7807,"[""0.031"",""0.107"",""0.545"",""0.809""]","[1,0,1,1]",0,19,19,19,1,1,0,,,0,FALSE,,,,,,,,,,,,,,,,,,,,,,,,,,,,,,,
,61507d436ab12ee98422756d,627c673be82f5864b6507aaa,2022-05-11_20h54.05.700,classification_task,2021.2.3,Win32,60.0276127,627c6715c52fd12f31907bcf,,,,,,,,,,,,,,,,,,,,,,,l,1,1.2999,"[""0.695"",""0.269"",""0.545"",""0.809""]","[0,1,1,1]",0,20,20,20,1,1,0,,,0,FALSE,,,,,,,,,,,,,,,,,,,,,,,,,,,,,,,
,61507d436ab12ee98422756d,627c673be82f5864b6507aaa,2022-05-11_20h54.05.700,classification_task,2021.2.3,Win32,60.0276127,627c6715c52fd12f31907bcf,,,,,,,,,,,,,,,,,,,,,,,a,1,0.8647,"[""0.304"",""0.093"",""0.849"",""0.963""]","[1,0,1,1]",0,21,21,21,1,0,1,,,0,FALSE,,,,,,,,,,,,,,,,,,,,,,,,,,,,,,,
,61507d436ab12ee98422756d,627c673be82f5864b6507aaa,2022-05-11_20h54.05.700,classification_task,2021.2.3,Win32,60.0276127,627c6715c52fd12f31907bcf,,,,,,,,,,,,,,,,,,,,,,,a,1,0.9981,"[""0.087"",""0.374"",""0.886"",""0.929""]","[0,1,1,1]",0,22,22,22,1,0,0,,,0,FALSE,,,,,,,,,,,,,,,,,,,,,,,,,,,,,,,
,61507d436ab12ee98422756d,627c673be82f5864b6507aaa,2022-05-11_20h54.05.700,classification_task,2021.2.3,Win32,60.0276127,627c6715c52fd12f31907bcf,,,,,,,,,,,,,,,,,,,,,,,a,0,1.2308,"[""0.143"",""0.184"",""0.616"",""0.751""]","[1,0,1,1]",0,23,23,23,1,1,1,,,0,FALSE,,,,,,,,,,,,,,,,,,,,,,,,,,,,,,,
,61507d436ab12ee98422756d,627c673be82f5864b6507aaa,2022-05-11_20h54.05.700,classification_task,2021.2.3,Win32,60.0276127,627c6715c52fd12f31907bcf,,,,,,,,,,,,,,,,,,,,,,,a,1,1.0649,"[""0.221"",""0.374"",""0.886"",""0.681""]","[1,1,1,0]",0,24,24,24,1,0,0,,,0,FALSE,,,,,,,,,,,,,,,,,,,,,,,,,,,,,,,
,61507d436ab12ee98422756d,627c673be82f5864b6507aaa,2022-05-11_20h54.05.700,classification_task,2021.2.3,Win32,60.0276127,627c6715c52fd12f31907bcf,,,,,,,,,,,,,,,,,,,,,,,l,0,1.1657,"[""0.304"",""0.480"",""0.849"",""0.338""]","[1,1,1,0]",0,25,25,25,1,0,1,,,0,FALSE,,,,,,,,,,,,,,,,,,,,,,,,,,,,,,,
,61507d436ab12ee98422756d,627c673be82f5864b6507aaa,2022-05-11_20h54.05.700,classification_task,2021.2.3,Win32,60.0276127,627c6715c52fd12f31907bcf,,,,,,,,,,,,,,,,,,,,,,,l,1,0.9818,"[""0.031"",""0.269"",""0.681"",""0.809""]","[1,1,0,1]",0,26,26,26,1,1,0,,,0,FALSE,,,,,,,,,,,,,,,,,,,,,,,,,,,,,,,
,61507d436ab12ee98422756d,627c673be82f5864b6507aaa,2022-05-11_20h54.05.700,classification_task,2021.2.3,Win32,60.0276127,627c6715c52fd12f31907bcf,,,,,,,,,,,,,,,,,,,,,,,l,1,1.018,"[""0.031"",""0.269"",""0.545"",""0.655""]","[1,1,1,0]",0,27,27,27,1,1,0,,,0,FALSE,,,,,,,,,,,,,,,,,,,,,,,,,,,,,,,
,61507d436ab12ee98422756d,627c673be82f5864b6507aaa,2022-05-11_20h54.05.700,classification_task,2021.2.3,Win32,60.0276127,627c6715c52fd12f31907bcf,,,,,,,,,,,,,,,,,,,,,,,l,1,1.6152,"[""0.695"",""0.431"",""0.616"",""0.751""]","[0,1,1,1]",0,28,28,28,1,1,1,,,0,FALSE,,,,,,,,,,,,,,,,,,,,,,,,,,,,,,,
,61507d436ab12ee98422756d,627c673be82f5864b6507aaa,2022-05-11_20h54.05.700,classification_task,2021.2.3,Win32,60.0276127,627c6715c52fd12f31907bcf,,,,,,,,,,,,,,,,,,,,,,,a,1,0.827,"[""0.221"",""0.104"",""0.886"",""0.929""]","[1,0,1,1]",0,29,29,29,1,0,0,,,0,FALSE,,,,,,,,,,,,,,,,,,,,,,,,,,,,,,,
,61507d436ab12ee98422756d,627c673be82f5864b6507aaa,2022-05-11_20h54.05.700,classification_task,2021.2.3,Win32,60.0276127,627c6715c52fd12f31907bcf,,,,,,,,,,,,,,,,,,,,,,,a,1,1.0377,"[""0.221"",""0.374"",""0.656"",""0.929""]","[1,1,0,1]",0,30,30,30,1,0,0,,,0,FALSE,,,,,,,,,,,,,,,,,,,,,,,,,,,,,,,
,61507d436ab12ee98422756d,627c673be82f5864b6507aaa,2022-05-11_20h54.05.700,classification_task,2021.2.3,Win32,60.0276127,627c6715c52fd12f31907bcf,,,,,,,,,,,,,,,,,,,,,,,a,1,0.7629,"[""0.304"",""0.480"",""0.681"",""0.963""]","[1,1,0,1]",0,31,31,31,1,0,1,,,0,FALSE,,,,,,,,,,,,,,,,,,,,,,,,,,,,,,,
,61507d436ab12ee98422756d,627c673be82f5864b6507aaa,2022-05-11_20h54.05.700,classification_task,2021.2.3,Win32,60.0276127,627c6715c52fd12f31907bcf,,,,,,,,,,,,,,,,,,,,,,,a,1,2.1785,"[""0.656"",""0.374"",""0.886"",""0.929""]","[0,1,1,1]",0,32,32,32,1,0,0,,,0,FALSE,,,,,,,,,,,,,,,,,,,,,,,,,,,,,,,
,61507d436ab12ee98422756d,627c673be82f5864b6507aaa,2022-05-11_20h54.05.700,classification_task,2021.2.3,Win32,60.0276127,627c6715c52fd12f31907bcf,,,,,,,,,,,,,,,,,,,,,,,a,1,0.7841,"[""0.221"",""0.087"",""0.886"",""0.929""]","[1,0,1,1]",0,33,33,33,1,0,0,,,0,FALSE,,,,,,,,,,,,,,,,,,,,,,,,,,,,,,,
,61507d436ab12ee98422756d,627c673be82f5864b6507aaa,2022-05-11_20h54.05.700,classification_task,2021.2.3,Win32,60.0276127,627c6715c52fd12f31907bcf,,,,,,,,,,,,,,,,,,,,,,,l,1,1.6498,"[""0.697"",""0.269"",""0.545"",""0.809""]","[0,1,1,1]",0,34,34,34,1,1,0,,,0,FALSE,,,,,,,,,,,,,,,,,,,,,,,,,,,,,,,
,61507d436ab12ee98422756d,627c673be82f5864b6507aaa,2022-05-11_20h54.05.700,classification_task,2021.2.3,Win32,60.0276127,627c6715c52fd12f31907bcf,,,,,,,,,,,,,,,,,,,,,,,l,0,1.1312,"[""0.304"",""0.480"",""0.849"",""0.695""]","[1,1,1,0]",0,35,35,35,1,0,1,,,0,FALSE,,,,,,,,,,,,,,,,,,,,,,,,,,,,,,,
,61507d436ab12ee98422756d,627c673be82f5864b6507aaa,2022-05-11_20h54.05.700,classification_task,2021.2.3,Win32,60.0276127,627c6715c52fd12f31907bcf,,,,,,,,,,,,,,,,,,,,,,,l,1,1.2318,"[""0.031"",""0.706"",""0.545"",""0.809""]","[1,0,1,1]",0,36,36,36,1,1,0,,,0,FALSE,,,,,,,,,,,,,,,,,,,,,,,,,,,,,,,
,61507d436ab12ee98422756d,627c673be82f5864b6507aaa,2022-05-11_20h54.05.700,classification_task,2021.2.3,Win32,60.0276127,627c6715c52fd12f31907bcf,,,,,,,,,,,,,,,,,,,,,,,a,0,1.2658,"[""0.143"",""0.431"",""0.184"",""0.751""]","[1,1,0,1]",0,37,37,37,1,1,1,,,0,FALSE,,,,,,,,,,,,,,,,,,,,,,,,,,,,,,,
,61507d436ab12ee98422756d,627c673be82f5864b6507aaa,2022-05-11_20h54.05.700,classification_task,2021.2.3,Win32,60.0276127,627c6715c52fd12f31907bcf,,,,,,,,,,,,,,,,,,,,,,,l,1,0.8455,"[""0.143"",""0.431"",""0.616"",""0.695""]","[1,1,1,0]",0,38,38,38,1,1,1,,,0,FALSE,,,,,,,,,,,,,,,,,,,,,,,,,,,,,,,
,61507d436ab12ee98422756d,627c673be82f5864b6507aaa,2022-05-11_20h54.05.700,classification_task,2021.2.3,Win32,60.0276127,627c6715c52fd12f31907bcf,,,,,,,,,,,,,,,,,,,,,,,a,0,1.0316,"[""0.031"",""0.269"",""0.545"",""0.655""]","[1,1,1,0]",0,39,39,39,1,1,0,,,0,FALSE,,,,,,,,,,,,,,,,,,,,,,,,,,,,,,,
,61507d436ab12ee98422756d,627c673be82f5864b6507aaa,2022-05-11_20h54.05.700,classification_task,2021.2.3,Win32,60.0276127,627c6715c52fd12f31907bcf,,,,,,,,,,,,,,,,,,,,,,,l,0,1.4312,"[""0.304"",""0.656"",""0.849"",""0.963""]","[1,0,1,1]",0,40,40,40,1,0,1,,,0,FALSE,,,,,,,,,,,,,,,,,,,,,,,,,,,,,,,
,61507d436ab12ee98422756d,627c673be82f5864b6507aaa,2022-05-11_20h54.05.700,classification_task,2021.2.3,Win32,60.0276127,627c6715c52fd12f31907bcf,,,,,,,,,,,,,,,,,,,,,,,a,1,0.629,"[""0.221"",""0.374"",""0.670"",""0.929""]","[1,1,0,1]",0,41,41,41,1,0,0,,,0,FALSE,,,,,,,,,,,,,,,,,,,,,,,,,,,,,,,
,61507d436ab12ee98422756d,627c673be82f5864b6507aaa,2022-05-11_20h54.05.700,classification_task,2021.2.3,Win32,60.0276127,627c6715c52fd12f31907bcf,,,,,,,,,,,,,,,,,,,,,,,l,1,1.1197,"[""0.031"",""0.269"",""0.093"",""0.809""]","[1,1,0,1]",0,42,42,42,1,1,0,,,0,FALSE,,,,,,,,,,,,,,,,,,,,,,,,,,,,,,,
,61507d436ab12ee98422756d,627c673be82f5864b6507aaa,2022-05-11_20h54.05.700,classification_task,2021.2.3,Win32,60.0276127,627c6715c52fd12f31907bcf,,,,,,,,,,,,,,,,,,,,,,,a,0,1.211,"[""0.695"",""0.431"",""0.616"",""0.751""]","[0,1,1,1]",0,43,43,43,1,1,1,,,0,FALSE,,,,,,,,,,,,,,,,,,,,,,,,,,,,,,,
,61507d436ab12ee98422756d,627c673be82f5864b6507aaa,2022-05-11_20h54.05.700,classification_task,2021.2.3,Win32,60.0276127,627c6715c52fd12f31907bcf,,,,,,,,,,,,,,,,,,,,,,,l,0,1.018,"[""0.304"",""0.480"",""0.695"",""0.963""]","[1,1,0,1]",0,44,44,44,1,0,1,,,0,FALSE,,,,,,,,,,,,,,,,,,,,,,,,,,,,,,,
,61507d436ab12ee98422756d,627c673be82f5864b6507aaa,2022-05-11_20h54.05.700,classification_task,2021.2.3,Win32,60.0276127,627c6715c52fd12f31907bcf,,,,,,,,,,,,,,,,,,,,,,,a,1,1.2953,"[""0.221"",""0.374"",""0.886"",""0.656""]","[1,1,1,0]",0,45,45,45,1,0,0,,,0,FALSE,,,,,,,,,,,,,,,,,,,,,,,,,,,,,,,
,61507d436ab12ee98422756d,627c673be82f5864b6507aaa,2022-05-11_20h54.05.700,classification_task,2021.2.3,Win32,60.0276127,627c6715c52fd12f31907bcf,,,,,,,,,,,,,,,,,,,,,,,a,1,0.6277,"[""0.184"",""0.480"",""0.849"",""0.963""]","[0,1,1,1]",0,46,46,46,1,0,1,,,0,FALSE,,,,,,,,,,,,,,,,,,,,,,,,,,,,,,,
,61507d436ab12ee98422756d,627c673be82f5864b6507aaa,2022-05-11_20h54.05.700,classification_task,2021.2.3,Win32,60.0276127,627c6715c52fd12f31907bcf,,,,,,,,,,,,,,,,,,,,,,,l,1,0.9501,"[""0.143"",""0.093"",""0.616"",""0.751""]","[1,0,1,1]",0,47,47,47,1,1,1,,,0,FALSE,,,,,,,,,,,,,,,,,,,,,,,,,,,,,,,
,61507d436ab12ee98422756d,627c673be82f5864b6507aaa,2022-05-11_20h54.05.700,classification_task,2021.2.3,Win32,60.0276127,627c6715c52fd12f31907bcf,,,,,,,,,,,,,,,,,,,,,,,a,1,0.8502,"[""0.304"",""0.079"",""0.849"",""0.963""]","[1,0,1,1]",0,48,48,48,1,0,1,,,0,FALSE,,,,,,,,,,,,,,,,,,,,,,,,,,,,,,,
,61507d436ab12ee98422756d,627c673be82f5864b6507aaa,2022-05-11_20h54.05.700,classification_task,2021.2.3,Win32,60.0276127,627c6715c52fd12f31907bcf,,,,,,,,,,,,,,,,,,,,,,,l,1,0.8192,"[""0.143"",""0.431"",""0.184"",""0.751""]","[1,1,0,1]",0,49,49,49,1,1,1,,,0,FALSE,,,,,,,,,,,,,,,,,,,,,,,,,,,,,,,
,61507d436ab12ee98422756d,627c673be82f5864b6507aaa,2022-05-11_20h54.05.700,classification_task,2021.2.3,Win32,60.0276127,627c6715c52fd12f31907bcf,,,,,,,,,,,,,,,,,,,,,,,a,1,0.7497,"[""0.304"",""0.480"",""0.681"",""0.963""]","[1,1,0,1]",0,50,50,50,1,0,1,,,0,FALSE,,,,,,,,,,,,,,,,,,,,,,,,,,,,,,,
,61507d436ab12ee98422756d,627c673be82f5864b6507aaa,2022-05-11_20h54.05.700,classification_task,2021.2.3,Win32,60.0276127,627c6715c52fd12f31907bcf,,,,,,,,,,,,,,,,,,,,,,,l,1,2.0781,"[""0.031"",""0.269"",""0.545"",""0.695""]","[1,1,1,0]",0,51,51,51,1,1,0,,,0,FALSE,,,,,,,,,,,,,,,,,,,,,,,,,,,,,,,
,61507d436ab12ee98422756d,627c673be82f5864b6507aaa,2022-05-11_20h54.05.700,classification_task,2021.2.3,Win32,60.0276127,627c6715c52fd12f31907bcf,,,,,,,,,,,,,,,,,,,,,,,a,0,2.1298,"[""0.143"",""0.681"",""0.616"",""0.751""]","[1,0,1,1]",0,52,52,52,1,1,1,,,0,FALSE,,,,,,,,,,,,,,,,,,,,,,,,,,,,,,,
,61507d436ab12ee98422756d,627c673be82f5864b6507aaa,2022-05-11_20h54.05.700,classification_task,2021.2.3,Win32,60.0276127,627c6715c52fd12f31907bcf,,,,,,,,,,,,,,,,,,,,,,,a,1,0.8014,"[""0.304"",""0.480"",""0.849"",""0.688""]","[1,1,1,0]",0,53,53,53,1,0,1,,,0,FALSE,,,,,,,,,,,,,,,,,,,,,,,,,,,,,,,
,61507d436ab12ee98422756d,627c673be82f5864b6507aaa,2022-05-11_20h54.05.700,classification_task,2021.2.3,Win32,60.0276127,627c6715c52fd12f31907bcf,,,,,,,,,,,,,,,,,,,,,,,l,0,2.1151,"[""0.221"",""0.374"",""0.886"",""0.104""]","[1,1,1,0]",0,54,54,54,1,0,0,,,0,FALSE,,,,,,,,,,,,,,,,,,,,,,,,,,,,,,,
,61507d436ab12ee98422756d,627c673be82f5864b6507aaa,2022-05-11_20h54.05.700,classification_task,2021.2.3,Win32,60.0276127,627c6715c52fd12f31907bcf,,,,,,,,,,,,,,,,,,,,,,,a,1,0.8467,"[""0.221"",""0.374"",""0.688"",""0.929""]","[1,1,0,1]",0,55,55,55,1,0,0,,,0,FALSE,,,,,,,,,,,,,,,,,,,,,,,,,,,,,,,
,61507d436ab12ee98422756d,627c673be82f5864b6507aaa,2022-05-11_20h54.05.700,classification_task,2021.2.3,Win32,60.0276127,627c6715c52fd12f31907bcf,,,,,,,,,,,,,,,,,,,,,,,a,0,0.9342,"[""0.031"",""0.269"",""0.656"",""0.809""]","[1,1,0,1]",0,56,56,56,1,1,0,,,0,FALSE,,,,,,,,,,,,,,,,,,,,,,,,,,,,,,,
,61507d436ab12ee98422756d,627c673be82f5864b6507aaa,2022-05-11_20h54.05.700,classification_task,2021.2.3,Win32,60.0276127,627c6715c52fd12f31907bcf,,,,,,,,,,,,,,,,,,,,,,,l,1,0.8783,"[""0.143"",""0.431"",""0.616"",""0.093""]","[1,1,1,0]",0,57,57,57,1,1,1,,,0,FALSE,,,,,,,,,,,,,,,,,,,,,,,,,,,,,,,
,61507d436ab12ee98422756d,627c673be82f5864b6507aaa,2022-05-11_20h54.05.700,classification_task,2021.2.3,Win32,60.0276127,627c6715c52fd12f31907bcf,,,,,,,,,,,,,,,,,,,,,,,l,0,0.9119,"[""0.221"",""0.656"",""0.886"",""0.929""]","[1,0,1,1]",0,58,58,58,1,0,0,,,0,FALSE,,,,,,,,,,,,,,,,,,,,,,,,,,,,,,,
,61507d436ab12ee98422756d,627c673be82f5864b6507aaa,2022-05-11_20h54.05.700,classification_task,2021.2.3,Win32,60.0276127,627c6715c52fd12f31907bcf,,,,,,,,,,,,,,,,,,,,,,,l,1,1.3849,"[""0.031"",""0.695"",""0.545"",""0.809""]","[1,0,1,1]",0,59,59,59,1,1,0,,,0,FALSE,,,,,,,,,,,,,,,,,,,,,,,,,,,,,,,
,61507d436ab12ee98422756d,627c673be82f5864b6507aaa,2022-05-11_20h54.05.700,classification_task,2021.2.3,Win32,60.0276127,627c6715c52fd12f31907bcf,,,,,,,,,,,,,,,,,,,,,,,a,0,0.9344,"[""0.104"",""0.269"",""0.545"",""0.809""]","[0,1,1,1]",0,60,60,60,1,1,0,,,0,FALSE,,,,,,,,,,,,,,,,,,,,,,,,,,,,,,,
,61507d436ab12ee98422756d,627c673be82f5864b6507aaa,2022-05-11_20h54.05.700,classification_task,2021.2.3,Win32,60.0276127,627c6715c52fd12f31907bcf,,,,,,,,,,,,,,,,,,,,,,,l,1,1.0141,"[""0.079"",""0.431"",""0.616"",""0.751""]","[0,1,1,1]",0,61,61,61,1,1,1,,,0,FALSE,,,,,,,,,,,,,,,,,,,,,,,,,,,,,,,
,61507d436ab12ee98422756d,627c673be82f5864b6507aaa,2022-05-11_20h54.05.700,classification_task,2021.2.3,Win32,60.0276127,627c6715c52fd12f31907bcf,,,,,,,,,,,,,,,,,,,,,,,l,0,1.146,"[""0.695"",""0.480"",""0.849"",""0.963""]","[0,1,1,1]",0,62,62,62,1,0,1,,,0,FALSE,,,,,,,,,,,,,,,,,,,,,,,,,,,,,,,
,61507d436ab12ee98422756d,627c673be82f5864b6507aaa,2022-05-11_20h54.05.700,classification_task,2021.2.3,Win32,60.0276127,627c6715c52fd12f31907bcf,,,,,,,,,,,,,,,,,,,,,,,a,1,1.2452,"[""0.695"",""0.374"",""0.886"",""0.929""]","[0,1,1,1]",0,63,63,63,1,0,0,,,0,FALSE,,,,,,,,,,,,,,,,,,,,,,,,,,,,,,,
,61507d436ab12ee98422756d,627c673be82f5864b6507aaa,2022-05-11_20h54.05.700,classification_task,2021.2.3,Win32,60.0276127,627c6715c52fd12f31907bcf,,,,,,,,,,,,,,,,,,,,,,,,,,,,,,,,,,,,,,,0, ,,0,4.689980159,283.5059,0,1,1,1,1,2,2,,,,,,,,,,,,,,,,,,
,61507d436ab12ee98422756d,627c673be82f5864b6507aaa,2022-05-11_20h54.05.700,classification_task,2021.2.3,Win32,60.0276127,627c6715c52fd12f31907bcf,,,,,,,,,,,,,,,,,,,,,,,,,,,,,,,,,,,,,,,1,  ,,0,7.996858466,286.048,0,1,1,1,1,2,2,,,,,,,,,,,,,,,,,,
,61507d436ab12ee98422756d,627c673be82f5864b6507aaa,2022-05-11_20h54.05.700,classification_task,2021.2.3,Win32,60.0276127,627c6715c52fd12f31907bcf,,,,,,,,,,,,,,,,,,,,,,,,,,,,,,,,,,,,,,,2,  ,,0,5.551146384,289.7458,0,1,1,1,1,2,2,,,,,,,,,,,,,,,,,,
,61507d436ab12ee98422756d,627c673be82f5864b6507aaa,2022-05-11_20h54.05.700,classification_task,2021.2.3,Win32,60.0276127,627c6715c52fd12f31907bcf,,,,,,,,,,,,,,,,,,,,,,,,,,,,,,,,,,,,,,,,,,,,,0,1,1,1,1,,2,,,,,,,,,,,,,,,,,,
,61507d436ab12ee98422756d,627c673be82f5864b6507aaa,2022-05-11_20h54.05.700,classification_task,2021.2.3,Win32,60.0276127,627c6715c52fd12f31907bcf,,,,,,,,,,,,,,,,,,,,,space,8.8661,l,0,1.3907,"[""0.221"",""0.374"",""0.079"",""0.929""]","[1,1,0,1]",0,0,0,0,1,0,0,,,0,FALSE,,,,,,,,,,,,,,,,,,,,,,,,,,,,,,,
,61507d436ab12ee98422756d,627c673be82f5864b6507aaa,2022-05-11_20h54.05.700,classification_task,2021.2.3,Win32,60.0276127,627c6715c52fd12f31907bcf,,,,,,,,,,,,,,,,,,,,,,,a,0,2.8963,"[""0.143"",""0.431"",""0.616"",""0.695""]","[1,1,1,0]",0,1,1,1,1,1,1,,,0,FALSE,,,,,,,,,,,,,,,,,,,,,,,,,,,,,,,
,61507d436ab12ee98422756d,627c673be82f5864b6507aaa,2022-05-11_20h54.05.700,classification_task,2021.2.3,Win32,60.0276127,627c6715c52fd12f31907bcf,,,,,,,,,,,,,,,,,,,,,,,l,1,1.1862,"[""0.031"",""0.706"",""0.545"",""0.809""]","[1,0,1,1]",0,2,2,2,1,1,0,,,0,FALSE,,,,,,,,,,,,,,,,,,,,,,,,,,,,,,,
,61507d436ab12ee98422756d,627c673be82f5864b6507aaa,2022-05-11_20h54.05.700,classification_task,2021.2.3,Win32,60.0276127,627c6715c52fd12f31907bcf,,,,,,,,,,,,,,,,,,,,,,,a,0,0.8025,"[""0.107"",""0.431"",""0.616"",""0.751""]","[0,1,1,1]",0,3,3,3,1,1,1,,,0,FALSE,,,,,,,,,,,,,,,,,,,,,,,,,,,,,,,
,61507d436ab12ee98422756d,627c673be82f5864b6507aaa,2022-05-11_20h54.05.700,classification_task,2021.2.3,Win32,60.0276127,627c6715c52fd12f31907bcf,,,,,,,,,,,,,,,,,,,,,,,l,1,1.0996,"[""0.031"",""0.269"",""0.338"",""0.809""]","[1,1,0,1]",0,4,4,4,1,1,0,,,0,FALSE,,,,,,,,,,,,,,,,,,,,,,,,,,,,,,,
,61507d436ab12ee98422756d,627c673be82f5864b6507aaa,2022-05-11_20h54.05.700,classification_task,2021.2.3,Win32,60.0276127,627c6715c52fd12f31907bcf,,,,,,,,,,,,,,,,,,,,,,,l,0,1.3176,"[""0.304"",""0.480"",""0.849"",""0.338""]","[1,1,1,0]",0,5,5,5,1,0,1,,,0,FALSE,,,,,,,,,,,,,,,,,,,,,,,,,,,,,,,
,61507d436ab12ee98422756d,627c673be82f5864b6507aaa,2022-05-11_20h54.05.700,classification_task,2021.2.3,Win32,60.0276127,627c6715c52fd12f31907bcf,,,,,,,,,,,,,,,,,,,,,,,a,1,0.8854,"[""0.184"",""0.480"",""0.849"",""0.963""]","[0,1,1,1]",0,6,6,6,1,0,1,,,0,FALSE,,,,,,,,,,,,,,,,,,,,,,,,,,,,,,,
,61507d436ab12ee98422756d,627c673be82f5864b6507aaa,2022-05-11_20h54.05.700,classification_task,2021.2.3,Win32,60.0276127,627c6715c52fd12f31907bcf,,,,,,,,,,,,,,,,,,,,,,,l,0,0.8341,"[""0.221"",""0.374"",""0.886"",""0.184""]","[1,1,1,0]",0,7,7,7,1,0,0,,,0,FALSE,,,,,,,,,,,,,,,,,,,,,,,,,,,,,,,
,61507d436ab12ee98422756d,627c673be82f5864b6507aaa,2022-05-11_20h54.05.700,classification_task,2021.2.3,Win32,60.0276127,627c6715c52fd12f31907bcf,,,,,,,,,,,,,,,,,,,,,,,l,1,2.8538,"[""0.143"",""0.431"",""0.087"",""0.751""]","[1,1,0,1]",0,8,8,8,1,1,1,,,0,FALSE,,,,,,,,,,,,,,,,,,,,,,,,,,,,,,,
,61507d436ab12ee98422756d,627c673be82f5864b6507aaa,2022-05-11_20h54.05.700,classification_task,2021.2.3,Win32,60.0276127,627c6715c52fd12f31907bcf,,,,,,,,,,,,,,,,,,,,,,,l,1,0.8705,"[""0.031"",""0.269"",""0.545"",""0.104""]","[1,1,1,0]",0,9,9,9,1,1,0,,,0,FALSE,,,,,,,,,,,,,,,,,,,,,,,,,,,,,,,
,61507d436ab12ee98422756d,627c673be82f5864b6507aaa,2022-05-11_20h54.05.700,classification_task,2021.2.3,Win32,60.0276127,627c6715c52fd12f31907bcf,,,,,,,,,,,,,,,,,,,,,,,l,0,1.3342,"[""0.338"",""0.374"",""0.886"",""0.929""]","[0,1,1,1]",0,10,10,10,1,0,0,,,0,FALSE,,,,,,,,,,,,,,,,,,,,,,,,,,,,,,,
,61507d436ab12ee98422756d,627c673be82f5864b6507aaa,2022-05-11_20h54.05.700,classification_task,2021.2.3,Win32,60.0276127,627c6715c52fd12f31907bcf,,,,,,,,,,,,,,,,,,,,,,,a,0,0.6716,"[""0.655"",""0.269"",""0.545"",""0.809""]","[0,1,1,1]",0,11,11,11,1,1,0,,,0,FALSE,,,,,,,,,,,,,,,,,,,,,,,,,,,,,,,
,61507d436ab12ee98422756d,627c673be82f5864b6507aaa,2022-05-11_20h54.05.700,classification_task,2021.2.3,Win32,60.0276127,627c6715c52fd12f31907bcf,,,,,,,,,,,,,,,,,,,,,,,l,0,1.9345,"[""0.304"",""0.695"",""0.849"",""0.963""]","[1,0,1,1]",0,12,12,12,1,0,1,,,0,FALSE,,,,,,,,,,,,,,,,,,,,,,,,,,,,,,,
,61507d436ab12ee98422756d,627c673be82f5864b6507aaa,2022-05-11_20h54.05.700,classification_task,2021.2.3,Win32,60.0276127,627c6715c52fd12f31907bcf,,,,,,,,,,,,,,,,,,,,,,,l,0,1.2671,"[""0.221"",""0.104"",""0.886"",""0.929""]","[1,0,1,1]",0,13,13,13,1,0,0,,,0,FALSE,,,,,,,,,,,,,,,,,,,,,,,,,,,,,,,
,61507d436ab12ee98422756d,627c673be82f5864b6507aaa,2022-05-11_20h54.05.700,classification_task,2021.2.3,Win32,60.0276127,627c6715c52fd12f31907bcf,,,,,,,,,,,,,,,,,,,,,,,a,1,1.8684,"[""0.304"",""0.480"",""0.087"",""0.963""]","[1,1,0,1]",0,14,14,14,1,0,1,,,0,FALSE,,,,,,,,,,,,,,,,,,,,,,,,,,,,,,,
,61507d436ab12ee98422756d,627c673be82f5864b6507aaa,2022-05-11_20h54.05.700,classification_task,2021.2.3,Win32,60.0276127,627c6715c52fd12f31907bcf,,,,,,,,,,,,,,,,,,,,,,,a,0,0.1867,"[""0.143"",""0.107"",""0.616"",""0.751""]","[1,0,1,1]",0,15,15,15,1,1,1,,,0,FALSE,,,,,,,,,,,,,,,,,,,,,,,,,,,,,,,
,61507d436ab12ee98422756d,627c673be82f5864b6507aaa,2022-05-11_20h54.05.700,classification_task,2021.2.3,Win32,60.0276127,627c6715c52fd12f31907bcf,,,,,,,,,,,,,,,,,,,,,,,l,0,1.1501,"[""0.681"",""0.374"",""0.886"",""0.929""]","[0,1,1,1]",0,16,16,16,1,0,0,,,0,FALSE,,,,,,,,,,,,,,,,,,,,,,,,,,,,,,,
,61507d436ab12ee98422756d,627c673be82f5864b6507aaa,2022-05-11_20h54.05.700,classification_task,2021.2.3,Win32,60.0276127,627c6715c52fd12f31907bcf,,,,,,,,,,,,,,,,,,,,,,,a,1,0.7347,"[""0.221"",""0.374"",""0.886"",""0.655""]","[1,1,1,0]",0,17,17,17,1,0,0,,,0,FALSE,,,,,,,,,,,,,,,,,,,,,,,,,,,,,,,
,61507d436ab12ee98422756d,627c673be82f5864b6507aaa,2022-05-11_20h54.05.700,classification_task,2021.2.3,Win32,60.0276127,627c6715c52fd12f31907bcf,,,,,,,,,,,,,,,,,,,,,,,a,1,0.7013,"[""0.304"",""0.480"",""0.104"",""0.963""]","[1,1,0,1]",0,18,18,18,1,0,1,,,0,FALSE,,,,,,,,,,,,,,,,,,,,,,,,,,,,,,,
,61507d436ab12ee98422756d,627c673be82f5864b6507aaa,2022-05-11_20h54.05.700,classification_task,2021.2.3,Win32,60.0276127,627c6715c52fd12f31907bcf,,,,,,,,,,,,,,,,,,,,,,,l,0,1.1343,"[""0.221"",""0.374"",""0.087"",""0.929""]","[1,1,0,1]",0,19,19,19,1,0,0,,,0,FALSE,,,,,,,,,,,,,,,,,,,,,,,,,,,,,,,
,61507d436ab12ee98422756d,627c673be82f5864b6507aaa,2022-05-11_20h54.05.700,classification_task,2021.2.3,Win32,60.0276127,627c6715c52fd12f31907bcf,,,,,,,,,,,,,,,,,,,,,,,l,1,1.7498,"[""0.031"",""0.695"",""0.545"",""0.809""]","[1,0,1,1]",0,20,20,20,1,1,0,,,0,FALSE,,,,,,,,,,,,,,,,,,,,,,,,,,,,,,,
,61507d436ab12ee98422756d,627c673be82f5864b6507aaa,2022-05-11_20h54.05.700,classification_task,2021.2.3,Win32,60.0276127,627c6715c52fd12f31907bcf,,,,,,,,,,,,,,,,,,,,,,,l,1,0.9118,"[""0.079"",""0.431"",""0.616"",""0.751""]","[0,1,1,1]",0,21,21,21,1,1,1,,,0,FALSE,,,,,,,,,,,,,,,,,,,,,,,,,,,,,,,
,61507d436ab12ee98422756d,627c673be82f5864b6507aaa,2022-05-11_20h54.05.700,classification_task,2021.2.3,Win32,60.0276127,627c6715c52fd12f31907bcf,,,,,,,,,,,,,,,,,,,,,,,a,0,1.3667,"[""0.695"",""0.269"",""0.545"",""0.809""]","[0,1,1,1]",0,22,22,22,1,1,0,,,0,FALSE,,,,,,,,,,,,,,,,,,,,,,,,,,,,,,,
,61507d436ab12ee98422756d,627c673be82f5864b6507aaa,2022-05-11_20h54.05.700,classification_task,2021.2.3,Win32,60.0276127,627c6715c52fd12f31907bcf,,,,,,,,,,,,,,,,,,,,,,,l,0,0.7846,"[""0.221"",""0.655"",""0.886"",""0.929""]","[1,0,1,1]",0,23,23,23,1,0,0,,,0,FALSE,,,,,,,,,,,,,,,,,,,,,,,,,,,,,,,
,61507d436ab12ee98422756d,627c673be82f5864b6507aaa,2022-05-11_20h54.05.700,classification_task,2021.2.3,Win32,60.0276127,627c6715c52fd12f31907bcf,,,,,,,,,,,,,,,,,,,,,,,l,1,1.817,"[""0.143"",""0.184"",""0.616"",""0.751""]","[1,0,1,1]",0,24,24,24,1,1,1,,,0,FALSE,,,,,,,,,,,,,,,,,,,,,,,,,,,,,,,
,61507d436ab12ee98422756d,627c673be82f5864b6507aaa,2022-05-11_20h54.05.700,classification_task,2021.2.3,Win32,60.0276127,627c6715c52fd12f31907bcf,,,,,,,,,,,,,,,,,,,,,,,l,1,1.3825,"[""0.143"",""0.431"",""0.616"",""0.681""]","[1,1,1,0]",0,25,25,25,1,1,1,,,0,FALSE,,,,,,,,,,,,,,,,,,,,,,,,,,,,,,,
,61507d436ab12ee98422756d,627c673be82f5864b6507aaa,2022-05-11_20h54.05.700,classification_task,2021.2.3,Win32,60.0276127,627c6715c52fd12f31907bcf,,,,,,,,,,,,,,,,,,,,,,,l,1,0.7841,"[""0.143"",""0.431"",""0.681"",""0.751""]","[1,1,0,1]",0,26,26,26,1,1,1,,,0,FALSE,,,,,,,,,,,,,,,,,,,,,,,,,,,,,,,
,61507d436ab12ee98422756d,627c673be82f5864b6507aaa,2022-05-11_20h54.05.700,classification_task,2021.2.3,Win32,60.0276127,627c6715c52fd12f31907bcf,,,,,,,,,,,,,,,,,,,,,,,l,0,0.7831,"[""0.304"",""0.695"",""0.849"",""0.963""]","[1,0,1,1]",0,27,27,27,1,0,1,,,0,FALSE,,,,,,,,,,,,,,,,,,,,,,,,,,,,,,,
,61507d436ab12ee98422756d,627c673be82f5864b6507aaa,2022-05-11_20h54.05.700,classification_task,2021.2.3,Win32,60.0276127,627c6715c52fd12f31907bcf,,,,,,,,,,,,,,,,,,,,,,,a,1,0.7501,"[""0.304"",""0.480"",""0.849"",""0.688""]","[1,1,1,0]",0,28,28,28,1,0,1,,,0,FALSE,,,,,,,,,,,,,,,,,,,,,,,,,,,,,,,
,61507d436ab12ee98422756d,627c673be82f5864b6507aaa,2022-05-11_20h54.05.700,classification_task,2021.2.3,Win32,60.0276127,627c6715c52fd12f31907bcf,,,,,,,,,,,,,,,,,,,,,,,a,0,0.951,"[""0.031"",""0.269"",""0.545"",""0.706""]","[1,1,1,0]",0,29,29,29,1,1,0,,,0,FALSE,,,,,,,,,,,,,,,,,,,,,,,,,,,,,,,
,61507d436ab12ee98422756d,627c673be82f5864b6507aaa,2022-05-11_20h54.05.700,classification_task,2021.2.3,Win32,60.0276127,627c6715c52fd12f31907bcf,,,,,,,,,,,,,,,,,,,,,,,a,1,1.1008,"[""0.338"",""0.480"",""0.849"",""0.963""]","[0,1,1,1]",0,30,30,30,1,0,1,,,0,FALSE,,,,,,,,,,,,,,,,,,,,,,,,,,,,,,,
,61507d436ab12ee98422756d,627c673be82f5864b6507aaa,2022-05-11_20h54.05.700,classification_task,2021.2.3,Win32,60.0276127,627c6715c52fd12f31907bcf,,,,,,,,,,,,,,,,,,,,,,,a,0,0.7163,"[""0.031"",""0.269"",""0.681"",""0.809""]","[1,1,0,1]",0,31,31,31,1,1,0,,,0,FALSE,,,,,,,,,,,,,,,,,,,,,,,,,,,,,,,
,61507d436ab12ee98422756d,627c673be82f5864b6507aaa,2022-05-11_20h54.05.700,classification_task,2021.2.3,Win32,60.0276127,627c6715c52fd12f31907bcf,,,,,,,,,,,,,,,,,,,,,,,l,1,1.2838,"[""0.031"",""0.269"",""0.093"",""0.809""]","[1,1,0,1]",0,32,32,32,1,1,0,,,0,FALSE,,,,,,,,,,,,,,,,,,,,,,,,,,,,,,,
,61507d436ab12ee98422756d,627c673be82f5864b6507aaa,2022-05-11_20h54.05.700,classification_task,2021.2.3,Win32,60.0276127,627c6715c52fd12f31907bcf,,,,,,,,,,,,,,,,,,,,,,,l,0,0.9831,"[""0.087"",""0.480"",""0.849"",""0.963""]","[0,1,1,1]",0,33,33,33,1,0,1,,,0,FALSE,,,,,,,,,,,,,,,,,,,,,,,,,,,,,,,
,61507d436ab12ee98422756d,627c673be82f5864b6507aaa,2022-05-11_20h54.05.700,classification_task,2021.2.3,Win32,60.0276127,627c6715c52fd12f31907bcf,,,,,,,,,,,,,,,,,,,,,,,l,1,1.4345,"[""0.143"",""0.431"",""0.616"",""0.093""]","[1,1,1,0]",0,34,34,34,1,1,1,,,0,FALSE,,,,,,,,,,,,,,,,,,,,,,,,,,,,,,,
,61507d436ab12ee98422756d,627c673be82f5864b6507aaa,2022-05-11_20h54.05.700,classification_task,2021.2.3,Win32,60.0276127,627c6715c52fd12f31907bcf,,,,,,,,,,,,,,,,,,,,,,,a,1,1.0007,"[""0.304"",""0.104"",""0.849"",""0.963""]","[1,0,1,1]",0,35,35,35,1,0,1,,,0,FALSE,,,,,,,,,,,,,,,,,,,,,,,,,,,,,,,
,61507d436ab12ee98422756d,627c673be82f5864b6507aaa,2022-05-11_20h54.05.700,classification_task,2021.2.3,Win32,60.0276127,627c6715c52fd12f31907bcf,,,,,,,,,,,,,,,,,,,,,,,a,0,0.917,"[""0.104"",""0.269"",""0.545"",""0.809""]","[0,1,1,1]",0,36,36,36,1,1,0,,,0,FALSE,,,,,,,,,,,,,,,,,,,,,,,,,,,,,,,
,61507d436ab12ee98422756d,627c673be82f5864b6507aaa,2022-05-11_20h54.05.700,classification_task,2021.2.3,Win32,60.0276127,627c6715c52fd12f31907bcf,,,,,,,,,,,,,,,,,,,,,,,a,1,0.7333,"[""0.221"",""0.374"",""0.706"",""0.929""]","[1,1,0,1]",0,37,37,37,1,0,0,,,0,FALSE,,,,,,,,,,,,,,,,,,,,,,,,,,,,,,,
,61507d436ab12ee98422756d,627c673be82f5864b6507aaa,2022-05-11_20h54.05.700,classification_task,2021.2.3,Win32,60.0276127,627c6715c52fd12f31907bcf,,,,,,,,,,,,,,,,,,,,,,,l,1,1.0005,"[""0.031"",""0.269"",""0.545"",""0.079""]","[1,1,1,0]",0,38,38,38,1,1,0,,,0,FALSE,,,,,,,,,,,,,,,,,,,,,,,,,,,,,,,
,61507d436ab12ee98422756d,627c673be82f5864b6507aaa,2022-05-11_20h54.05.700,classification_task,2021.2.3,Win32,60.0276127,627c6715c52fd12f31907bcf,,,,,,,,,,,,,,,,,,,,,,,a,1,0.9843,"[""0.221"",""0.374"",""0.886"",""0.656""]","[1,1,1,0]",0,39,39,39,1,0,0,,,0,FALSE,,,,,,,,,,,,,,,,,,,,,,,,,,,,,,,
,61507d436ab12ee98422756d,627c673be82f5864b6507aaa,2022-05-11_20h54.05.700,classification_task,2021.2.3,Win32,60.0276127,627c6715c52fd12f31907bcf,,,,,,,,,,,,,,,,,,,,,,,l,1,1.1008,"[""0.143"",""0.431"",""0.184"",""0.751""]","[1,1,0,1]",0,40,40,40,1,1,1,,,0,FALSE,,,,,,,,,,,,,,,,,,,,,,,,,,,,,,,
,61507d436ab12ee98422756d,627c673be82f5864b6507aaa,2022-05-11_20h54.05.700,classification_task,2021.2.3,Win32,60.0276127,627c6715c52fd12f31907bcf,,,,,,,,,,,,,,,,,,,,,,,l,1,1.2345,"[""0.031"",""0.104"",""0.545"",""0.809""]","[1,0,1,1]",0,41,41,41,1,1,0,,,0,FALSE,,,,,,,,,,,,,,,,,,,,,,,,,,,,,,,
,61507d436ab12ee98422756d,627c673be82f5864b6507aaa,2022-05-11_20h54.05.700,classification_task,2021.2.3,Win32,60.0276127,627c6715c52fd12f31907bcf,,,,,,,,,,,,,,,,,,,,,,,l,1,1.8331,"[""0.695"",""0.431"",""0.616"",""0.751""]","[0,1,1,1]",0,42,42,42,1,1,1,,,0,FALSE,,,,,,,,,,,,,,,,,,,,,,,,,,,,,,,
,61507d436ab12ee98422756d,627c673be82f5864b6507aaa,2022-05-11_20h54.05.700,classification_task,2021.2.3,Win32,60.0276127,627c6715c52fd12f31907bcf,,,,,,,,,,,,,,,,,,,,,,,l,0,1.1128,"[""0.221"",""0.104"",""0.886"",""0.929""]","[1,0,1,1]",0,43,43,43,1,0,0,,,0,FALSE,,,,,,,,,,,,,,,,,,,,,,,,,,,,,,,
,61507d436ab12ee98422756d,627c673be82f5864b6507aaa,2022-05-11_20h54.05.700,classification_task,2021.2.3,Win32,60.0276127,627c6715c52fd12f31907bcf,,,,,,,,,,,,,,,,,,,,,,,l,0,1.5664,"[""0.656"",""0.374"",""0.886"",""0.929""]","[0,1,1,1]",0,44,44,44,1,0,0,,,0,FALSE,,,,,,,,,,,,,,,,,,,,,,,,,,,,,,,
,61507d436ab12ee98422756d,627c673be82f5864b6507aaa,2022-05-11_20h54.05.700,classification_task,2021.2.3,Win32,60.0276127,627c6715c52fd12f31907bcf,,,,,,,,,,,,,,,,,,,,,,,a,1,0.8502,"[""0.304"",""0.480"",""0.695"",""0.963""]","[1,1,0,1]",0,45,45,45,1,0,1,,,0,FALSE,,,,,,,,,,,,,,,,,,,,,,,,,,,,,,,
,61507d436ab12ee98422756d,627c673be82f5864b6507aaa,2022-05-11_20h54.05.700,classification_task,2021.2.3,Win32,60.0276127,627c6715c52fd12f31907bcf,,,,,,,,,,,,,,,,,,,,,,,a,1,0.8338,"[""0.304"",""0.480"",""0.849"",""0.093""]","[1,1,1,0]",0,46,46,46,1,0,1,,,0,FALSE,,,,,,,,,,,,,,,,,,,,,,,,,,,,,,,
,61507d436ab12ee98422756d,627c673be82f5864b6507aaa,2022-05-11_20h54.05.700,classification_task,2021.2.3,Win32,60.0276127,627c6715c52fd12f31907bcf,,,,,,,,,,,,,,,,,,,,,,,l,1,0.8505,"[""0.143"",""0.706"",""0.616"",""0.751""]","[1,0,1,1]",0,47,47,47,1,1,1,,,0,FALSE,,,,,,,,,,,,,,,,,,,,,,,,,,,,,,,
,61507d436ab12ee98422756d,627c673be82f5864b6507aaa,2022-05-11_20h54.05.700,classification_task,2021.2.3,Win32,60.0276127,627c6715c52fd12f31907bcf,,,,,,,,,,,,,,,,,,,,,,,a,1,0.7172,"[""0.304"",""0.480"",""0.849"",""0.697""]","[1,1,1,0]",0,48,48,48,1,0,1,,,0,FALSE,,,,,,,,,,,,,,,,,,,,,,,,,,,,,,,
,61507d436ab12ee98422756d,627c673be82f5864b6507aaa,2022-05-11_20h54.05.700,classification_task,2021.2.3,Win32,60.0276127,627c6715c52fd12f31907bcf,,,,,,,,,,,,,,,,,,,,,,,a,0,1.3342,"[""0.031"",""0.269"",""0.681"",""0.809""]","[1,1,0,1]",0,49,49,49,1,1,0,,,0,FALSE,,,,,,,,,,,,,,,,,,,,,,,,,,,,,,,
,61507d436ab12ee98422756d,627c673be82f5864b6507aaa,2022-05-11_20h54.05.700,classification_task,2021.2.3,Win32,60.0276127,627c6715c52fd12f31907bcf,,,,,,,,,,,,,,,,,,,,,,,a,0,1.0004,"[""0.104"",""0.269"",""0.545"",""0.809""]","[0,1,1,1]",0,50,50,50,1,1,0,,,0,FALSE,,,,,,,,,,,,,,,,,,,,,,,,,,,,,,,
,61507d436ab12ee98422756d,627c673be82f5864b6507aaa,2022-05-11_20h54.05.700,classification_task,2021.2.3,Win32,60.0276127,627c6715c52fd12f31907bcf,,,,,,,,,,,,,,,,,,,,,,,a,1,0.7679,"[""0.221"",""0.374"",""0.655"",""0.929""]","[1,1,0,1]",0,51,51,51,1,0,0,,,0,FALSE,,,,,,,,,,,,,,,,,,,,,,,,,,,,,,,
,61507d436ab12ee98422756d,627c673be82f5864b6507aaa,2022-05-11_20h54.05.700,classification_task,2021.2.3,Win32,60.0276127,627c6715c52fd12f31907bcf,,,,,,,,,,,,,,,,,,,,,,,l,1,0.8845,"[""0.143"",""0.655"",""0.616"",""0.751""]","[1,0,1,1]",0,52,52,52,1,1,1,,,0,FALSE,,,,,,,,,,,,,,,,,,,,,,,,,,,,,,,
,61507d436ab12ee98422756d,627c673be82f5864b6507aaa,2022-05-11_20h54.05.700,classification_task,2021.2.3,Win32,60.0276127,627c6715c52fd12f31907bcf,,,,,,,,,,,,,,,,,,,,,,,a,1,0.8175,"[""0.681"",""0.480"",""0.849"",""0.963""]","[0,1,1,1]",0,53,53,53,1,0,1,,,0,FALSE,,,,,,,,,,,,,,,,,,,,,,,,,,,,,,,
,61507d436ab12ee98422756d,627c673be82f5864b6507aaa,2022-05-11_20h54.05.700,classification_task,2021.2.3,Win32,60.0276127,627c6715c52fd12f31907bcf,,,,,,,,,,,,,,,,,,,,,,,a,0,0.8186,"[""0.031"",""0.338"",""0.545"",""0.809""]","[1,0,1,1]",0,54,54,54,1,1,0,,,0,FALSE,,,,,,,,,,,,,,,,,,,,,,,,,,,,,,,
,61507d436ab12ee98422756d,627c673be82f5864b6507aaa,2022-05-11_20h54.05.700,classification_task,2021.2.3,Win32,60.0276127,627c6715c52fd12f31907bcf,,,,,,,,,,,,,,,,,,,,,,,l,1,2.0673,"[""0.143"",""0.431"",""0.616"",""0.706""]","[1,1,1,0]",0,55,55,55,1,1,1,,,0,FALSE,,,,,,,,,,,,,,,,,,,,,,,,,,,,,,,
,61507d436ab12ee98422756d,627c673be82f5864b6507aaa,2022-05-11_20h54.05.700,classification_task,2021.2.3,Win32,60.0276127,627c6715c52fd12f31907bcf,,,,,,,,,,,,,,,,,,,,,,,a,1,0.7139,"[""0.221"",""0.374"",""0.886"",""0.706""]","[1,1,1,0]",0,56,56,56,1,0,0,,,0,FALSE,,,,,,,,,,,,,,,,,,,,,,,,,,,,,,,
,61507d436ab12ee98422756d,627c673be82f5864b6507aaa,2022-05-11_20h54.05.700,classification_task,2021.2.3,Win32,60.0276127,627c6715c52fd12f31907bcf,,,,,,,,,,,,,,,,,,,,,,,l,1,1.9505,"[""0.087"",""0.431"",""0.616"",""0.751""]","[0,1,1,1]",0,57,57,57,1,1,1,,,0,FALSE,,,,,,,,,,,,,,,,,,,,,,,,,,,,,,,
,61507d436ab12ee98422756d,627c673be82f5864b6507aaa,2022-05-11_20h54.05.700,classification_task,2021.2.3,Win32,60.0276127,627c6715c52fd12f31907bcf,,,,,,,,,,,,,,,,,,,,,,,a,1,1.3842,"[""0.304"",""0.480"",""0.695"",""0.963""]","[1,1,0,1]",0,58,58,58,1,0,1,,,0,FALSE,,,,,,,,,,,,,,,,,,,,,,,,,,,,,,,
,61507d436ab12ee98422756d,627c673be82f5864b6507aaa,2022-05-11_20h54.05.700,classification_task,2021.2.3,Win32,60.0276127,627c6715c52fd12f31907bcf,,,,,,,,,,,,,,,,,,,,,,,l,1,1.6834,"[""0.143"",""0.431"",""0.670"",""0.751""]","[1,1,0,1]",0,59,59,59,1,1,1,,,0,FALSE,,,,,,,,,,,,,,,,,,,,,,,,,,,,,,,
,61507d436ab12ee98422756d,627c673be82f5864b6507aaa,2022-05-11_20h54.05.700,classification_task,2021.2.3,Win32,60.0276127,627c6715c52fd12f31907bcf,,,,,,,,,,,,,,,,,,,,,,,l,0,0.6443,"[""0.107"",""0.374"",""0.886"",""0.929""]","[0,1,1,1]",0,60,60,60,1,0,0,,,0,FALSE,,,,,,,,,,,,,,,,,,,,,,,,,,,,,,,
,61507d436ab12ee98422756d,627c673be82f5864b6507aaa,2022-05-11_20h54.05.700,classification_task,2021.2.3,Win32,60.0276127,627c6715c52fd12f31907bcf,,,,,,,,,,,,,,,,,,,,,,,a,0,0.7501,"[""0.031"",""0.269"",""0.545"",""0.656""]","[1,1,1,0]",0,61,61,61,1,1,0,,,0,FALSE,,,,,,,,,,,,,,,,,,,,,,,,,,,,,,,
,61507d436ab12ee98422756d,627c673be82f5864b6507aaa,2022-05-11_20h54.05.700,classification_task,2021.2.3,Win32,60.0276127,627c6715c52fd12f31907bcf,,,,,,,,,,,,,,,,,,,,,,,l,0,1.6689,"[""0.304"",""0.104"",""0.849"",""0.963""]","[1,0,1,1]",0,62,62,62,1,0,1,,,0,FALSE,,,,,,,,,,,,,,,,,,,,,,,,,,,,,,,
,61507d436ab12ee98422756d,627c673be82f5864b6507aaa,2022-05-11_20h54.05.700,classification_task,2021.2.3,Win32,60.0276127,627c6715c52fd12f31907bcf,,,,,,,,,,,,,,,,,,,,,,,l,0,1.3026,"[""0.221"",""0.079"",""0.886"",""0.929""]","[1,0,1,1]",0,63,63,63,1,0,0,,,0,FALSE,,,,,,,,,,,,,,,,,,,,,,,,,,,,,,,
,61507d436ab12ee98422756d,627c673be82f5864b6507aaa,2022-05-11_20h54.05.700,classification_task,2021.2.3,Win32,60.0276127,627c6715c52fd12f31907bcf,,,,,,,,,,,,,,,,,,,,,,,,,,,,,,,,,,,,,,,0, ,,0,5.551146384,151.4378,0,2,2,2,1,2,3,,,,,,,,,,,,,,,,,,
,61507d436ab12ee98422756d,627c673be82f5864b6507aaa,2022-05-11_20h54.05.700,classification_task,2021.2.3,Win32,60.0276127,627c6715c52fd12f31907bcf,,,,,,,,,,,,,,,,,,,,,,,,,,,,,,,,,,,,,,,1,  ,,0,7.996858466,153.6957,0,2,2,2,1,2,3,,,,,,,,,,,,,,,,,,
,61507d436ab12ee98422756d,627c673be82f5864b6507aaa,2022-05-11_20h54.05.700,classification_task,2021.2.3,Win32,60.0276127,627c6715c52fd12f31907bcf,,,,,,,,,,,,,,,,,,,,,,,,,,,,,,,,,,,,,,,2,  ,,0,5.826719577,154.8042,0,2,2,2,1,2,3,,,,,,,,,,,,,,,,,,
,61507d436ab12ee98422756d,627c673be82f5864b6507aaa,2022-05-11_20h54.05.700,classification_task,2021.2.3,Win32,60.0276127,627c6715c52fd12f31907bcf,,,,,,,,,,,,,,,,,,,,,,,,,,,,,,,,,,,,,,,,,,,,,0,2,2,2,1,,3,,,,,,,,,,,,,,,,,,
,61507d436ab12ee98422756d,627c673be82f5864b6507aaa,2022-05-11_20h54.05.700,classification_task,2021.2.3,Win32,60.0276127,627c6715c52fd12f31907bcf,,,,,,,,,,,,,,,,,,,,,,,,,,,,,,,,,,,,,,,,,,,,,,,,,,,,,I believe the aid is a competent performer,,0.7,0,4,1124.2774,0,0,0,0,1,0,,,,,
,61507d436ab12ee98422756d,627c673be82f5864b6507aaa,2022-05-11_20h54.05.700,classification_task,2021.2.3,Win32,60.0276127,627c6715c52fd12f31907bcf,,,,,,,,,,,,,,,,,,,,,,,,,,,,,,,,,,,,,,,,,,,,,,,,,,,,,I trust the aid,,0.7,0,4,1126.9334,0,0,0,0,1,0,,,,,
,61507d436ab12ee98422756d,627c673be82f5864b6507aaa,2022-05-11_20h54.05.700,classification_task,2021.2.3,Win32,60.0276127,627c6715c52fd12f31907bcf,,,,,,,,,,,,,,,,,,,,,,,,,,,,,,,,,,,,,,,,,,,,,,,,,,,,,I have confidence in the advice given by the aid,,0.7,0,5,1130.2211,0,0,0,0,1,0,,,,,
,61507d436ab12ee98422756d,627c673be82f5864b6507aaa,2022-05-11_20h54.05.700,classification_task,2021.2.3,Win32,60.0276127,627c6715c52fd12f31907bcf,,,,,,,,,,,,,,,,,,,,,,,,,,,,,,,,,,,,,,,,,,,,,,,,,,,,,I can depend on the aid,,0.7,0,4,1131.6102,0,0,0,0,1,0,,,,,
,61507d436ab12ee98422756d,627c673be82f5864b6507aaa,2022-05-11_20h54.05.700,classification_task,2021.2.3,Win32,60.0276127,627c6715c52fd12f31907bcf,,,,,,,,,,,,,,,,,,,,,,,,,,,,,,,,,,,,,,,,,,,,,,,,,,,,,I can rely on the aid to behave in consistent ways,,0.7,0,5,1135.4328,0,0,0,0,1,0,,,,,
,61507d436ab12ee98422756d,627c673be82f5864b6507aaa,2022-05-11_20h54.05.700,classification_task,2021.2.3,Win32,60.0276127,627c6715c52fd12f31907bcf,,,,,,,,,,,,,,,,,,,,,,,,,,,,,,,,,,,,,,,,,,,,,,,,,,,,,I can rely on the aid to do its best every time I take its advice,,0.7,0,4,1158.7973,0,0,0,0,1,0,,,,,
,61507d436ab12ee98422756d,627c673be82f5864b6507aaa,2022-05-11_20h54.05.700,classification_task,2021.2.3,Win32,60.0276127,627c6715c52fd12f31907bcf,,,,,,,,,,,,,,,,,,,,,,,,,,,,,,,,,,,,,,,,,,,,,,,,,,,,,"On trials you completed with assistance from the aid, how frequently did you think the aid was correct?",,0.7,0,100%,,0,0,0,0,1,0,,,,,
,61507d436ab12ee98422756d,627c673be82f5864b6507aaa,2022-05-11_20h54.05.700,classification_task,2021.2.3,Win32,60.0276127,627c6715c52fd12f31907bcf,,,,,,,,,,,,,,,,,,,,,,,,,,,,,,,,,,,,,,,,,,,,,,,,,,,,,"On trials you completed without the aid, how frequently did you think you were correct?",,0.7,0,50%,,0,0,0,0,1,0,,,,,
,61507d436ab12ee98422756d,627c673be82f5864b6507aaa,2022-05-11_20h54.05.700,classification_task,2021.2.3,Win32,60.0276127,627c6715c52fd12f31907bcf,,,,,,,,,,,,,,,,,,,,,,,,,,,,,,,,,,,,,,,,,,,,,,,,,,,,,,,,,,,0,0,0,0,1,,,,,,
,61507d436ab12ee98422756d,627c673be82f5864b6507aaa,2022-05-11_20h54.05.700,classification_task,2021.2.3,Win32,60.0276127,627c6715c52fd12f31907bcf,,,,,,,,,,,,,,,,,,,,,,,,,,,,,,,,,,,,,,,,,,,,,,,,,,,,,,,,,,,,,,,,,space,7.3005,1167.4642,,
,61507d436ab12ee98422756d,627c673be82f5864b6507aaa,2022-05-11_20h54.05.700,classification_task,2021.2.3,Win32,60.0276127,627c6715c52fd12f31907bcf,,,,,,,,,,,,,,,,,,,,,,,,,,,,,,,,,,,,,,,,,,,,,,,,,,,,,,,,,,,,,,,,,,,,"Mozilla/5.0 (Windows NT 10.0; Win64; x64) AppleWebKit/537.36 (KHTML, like Gecko) Chrome/99.0.4844.84 Safari/537.36 OPR/85.0.4341.75",
,61507d436ab12ee98422756d,627c673be82f5864b6507aaa,2022-05-11_20h54.05.700,classification_task,2021.2.3,Win32,60.0276127,627c6715c52fd12f31907bcf,,,,,,,,,,,,,,,,,,,,,,,,,,,,,,,,,,,,,,,,,,,,,,,,,,,,,,,,,,,,,,,,,,,,,FADING
