usingWebGL,participant,session,date,expName,psychopyVersion,OS,frameRate,study_id,signatures_friend,signatures_foe,band_ranges_top,band_ranges_bottom,formitemText,formtype,formundefined,formitemWidth,formindex,formresponse,formrt,key_resp_2.keys,key_resp_2.rt,tute_resp.keys,tute_resp.rt,tutorial.thisRepN,tutorial.thisTrialN,tutorial.thisN,tutorial.thisIndex,tutorial.ran,key_resp_4.keys,key_resp_4.rt,key_resp.keys,key_resp.corr,key_resp.rt,lines_presented,is_signal_presented,trials.thisRepN,trials.thisTrialN,trials.thisN,trials.thisIndex,trials.ran,vessel,active_band,lines,is_signal,supported_pos,catch_trial,debrief_formindex,debrief_formitemText,debrief_formtype,debrief_formitemWidth,debrief_formresponse,debrief_formrt,phases.thisRepN,phases.thisTrialN,phases.thisN,phases.thisIndex,phases.ran,phases.order,phase,key_resp_3.keys,trustitemText,trusttype,trustitemWidth,trustindex,trustresponse,trustrt,support_status.thisRepN,support_status.thisTrialN,support_status.thisN,support_status.thisIndex,support_status.ran,support_status.order,key_resp_5.keys,key_resp_5.rt,globalClockTime,userAgent,manualCondition
TRUE,6150d2ed1dc4cc1cdb2543bc,627c691daa577bac05652e73,2022-05-11_20h56.15.086,classification_task,2021.2.3,Win32,143.9677512,627c6715c52fd12f31907bcf,,,,,,,,,,,,,,,,,,,,,,,,,,,,,,,,,,,,,,,,,,,,,,,,,,,,,,,,,,,,,,,,,,,,,
,6150d2ed1dc4cc1cdb2543bc,627c691daa577bac05652e73,2022-05-11_20h56.15.086,classification_task,2021.2.3,Win32,143.9677512,627c6715c52fd12f31907bcf,"[[""0.307"",""0.547"",""0.620"",""0.916""],[""0.240"",""0.404"",""0.873"",""0.974""]]","[[""0.104"",""0.157"",""0.503"",""0.768""],[""0.039"",""0.371"",""0.438"",""0.840""]]","[1,10]","[100,1000]",Video game experience,,,0.7,0,,,,,,,,,,,,,,,,,,,,,,,,,,,,,,,,,,,,,,,,,,,,,,,,,,,,,,,,,,,,
,6150d2ed1dc4cc1cdb2543bc,627c691daa577bac05652e73,2022-05-11_20h56.15.086,classification_task,2021.2.3,Win32,143.9677512,627c6715c52fd12f31907bcf,,,,,Approximately how many hours did you spend playing video games in the last week?,,,0.7,0,28,,,,,,,,,,,,,,,,,,,,,,,,,,,,,,,,,,,,,,,,,,,,,,,,,,,,,,,,,,,
,6150d2ed1dc4cc1cdb2543bc,627c691daa577bac05652e73,2022-05-11_20h56.15.086,classification_task,2021.2.3,Win32,143.9677512,627c6715c52fd12f31907bcf,,,,,"Which game did you play the most this year? (Enter ""None"" if you didn't play any)",,,0.7,0,League of Legends,,,,,,,,,,,,,,,,,,,,,,,,,,,,,,,,,,,,,,,,,,,,,,,,,,,,,,,,,,,
,6150d2ed1dc4cc1cdb2543bc,627c691daa577bac05652e73,2022-05-11_20h56.15.086,classification_task,2021.2.3,Win32,143.9677512,627c6715c52fd12f31907bcf,,,,,Visual perception,,,0.7,0,,,,,,,,,,,,,,,,,,,,,,,,,,,,,,,,,,,,,,,,,,,,,,,,,,,,,,,,,,,,
,6150d2ed1dc4cc1cdb2543bc,627c691daa577bac05652e73,2022-05-11_20h56.15.086,classification_task,2021.2.3,Win32,143.9677512,627c6715c52fd12f31907bcf,,,,,Do you have any form of color blindness?,,,0.7,0,No,60.4643,,,,,,,,,,,,,,,,,,,,,,,,,,,,,,,,,,,,,,,,,,,,,,,,,,,,,,,,,,
,6150d2ed1dc4cc1cdb2543bc,627c691daa577bac05652e73,2022-05-11_20h56.15.086,classification_task,2021.2.3,Win32,143.9677512,627c6715c52fd12f31907bcf,,,,,Do you use software to change the colour temperature of your screen (e.g. f.lux)?,,,0.7,0,No,73.9041,,,,,,,,,,,,,,,,,,,,,,,,,,,,,,,,,,,,,,,,,,,,,,,,,,,,,,,,,,
,6150d2ed1dc4cc1cdb2543bc,627c691daa577bac05652e73,2022-05-11_20h56.15.086,classification_task,2021.2.3,Win32,143.9677512,627c6715c52fd12f31907bcf,,,,,,,,,,,,space,62.3577,space,12.8934,0,0,0,0,1,,,,,,,,,,,,,,,,,,,,,,,,,,,,,,,,,,,,,,,,,,,,,,,,,
,6150d2ed1dc4cc1cdb2543bc,627c691daa577bac05652e73,2022-05-11_20h56.15.086,classification_task,2021.2.3,Win32,143.9677512,627c6715c52fd12f31907bcf,,,,,,,,,,,,,,space,16.7548,1,0,1,0,1,,,,,,,,,,,,,,,,,,,,,,,,,,,,,,,,,,,,,,,,,,,,,,,,,
,6150d2ed1dc4cc1cdb2543bc,627c691daa577bac05652e73,2022-05-11_20h56.15.086,classification_task,2021.2.3,Win32,143.9677512,627c6715c52fd12f31907bcf,,,,,,,,,,,,,,space,24.203,2,0,2,0,1,,,,,,,,,,,,,,,,,,,,,,,,,,,,,,,,,,,,,,,,,,,,,,,,,
,6150d2ed1dc4cc1cdb2543bc,627c691daa577bac05652e73,2022-05-11_20h56.15.086,classification_task,2021.2.3,Win32,143.9677512,627c6715c52fd12f31907bcf,,,,,,,,,,,,,,space,22.1785,3,0,3,0,1,,,,,,,,,,,,,,,,,,,,,,,,,,,,,,,,,,,,,,,,,,,,,,,,,
,6150d2ed1dc4cc1cdb2543bc,627c691daa577bac05652e73,2022-05-11_20h56.15.086,classification_task,2021.2.3,Win32,143.9677512,627c6715c52fd12f31907bcf,,,,,,,,,,,,,,space,26.5459,4,0,4,0,1,,,,,,,,,,,,,,,,,,,,,,,,,,,,,,,,,,,,,,,,,,,,,,,,,
,6150d2ed1dc4cc1cdb2543bc,627c691daa577bac05652e73,2022-05-11_20h56.15.086,classification_task,2021.2.3,Win32,143.9677512,627c6715c52fd12f31907bcf,,,,,,,,,,,,,,,,,,,,,space,25.4794,l,1,3.2458,"[""0.039"",""0.371"",""0.803"",""0.840""]","[1,1,0,1]",0,0,0,0,1,1,1,,,0,FALSE,,,,,,,,,,,,,,,,,,,,,,,,,,,,,,,
,6150d2ed1dc4cc1cdb2543bc,627c691daa577bac05652e73,2022-05-11_20h56.15.086,classification_task,2021.2.3,Win32,143.9677512,627c6715c52fd12f31907bcf,,,,,,,,,,,,,,,,,,,,,,,a,1,5.5937,"[""0.731"",""0.547"",""0.620"",""0.916""]","[0,1,1,1]",0,1,1,1,1,0,0,,,0,FALSE,,,,,,,,,,,,,,,,,,,,,,,,,,,,,,,
,6150d2ed1dc4cc1cdb2543bc,627c691daa577bac05652e73,2022-05-11_20h56.15.086,classification_task,2021.2.3,Win32,143.9677512,627c6715c52fd12f31907bcf,,,,,,,,,,,,,,,,,,,,,,,a,1,3.3273,"[""0.716"",""0.404"",""0.873"",""0.974""]","[0,1,1,1]",0,2,2,2,1,0,1,,,0,FALSE,,,,,,,,,,,,,,,,,,,,,,,,,,,,,,,
,6150d2ed1dc4cc1cdb2543bc,627c691daa577bac05652e73,2022-05-11_20h56.15.086,classification_task,2021.2.3,Win32,143.9677512,627c6715c52fd12f31907bcf,,,,,,,,,,,,,,,,,,,,,,,a,1,2.9958,"[""0.240"",""0.404"",""0.698"",""0.974""]","[1,1,0,1]",0,3,3,3,1,0,1,,,0,FALSE,,,,,,,,,,,,,,,,,,,,,,,,,,,,,,,
,6150d2ed1dc4cc1cdb2543bc,627c691daa577bac05652e73,2022-05-11_20h56.15.086,classification_task,2021.2.3,Win32,143.9677512,627c6715c52fd12f31907bcf,,,,,,,,,,,,,,,,,,,,,,,l,1,5.9821,"[""0.104"",""0.712"",""0.503"",""0.768""]","[1,0,1,1]",0,4,4,4,1,1,0,,,0,FALSE,,,,,,,,,,,,,,,,,,,,,,,,,,,,,,,
,6150d2ed1dc4cc1cdb2543bc,627c691daa577bac05652e73,2022-05-11_20h56.15.086,classification_task,2021.2.3,Win32,143.9677512,627c6715c52fd12f31907bcf,,,,,,,,,,,,,,,,,,,,,,,l,1,3.4804,"[""0.104"",""0.157"",""0.198"",""0.768""]","[1,1,0,1]",0,5,5,5,1,1,0,,,0,FALSE,,,,,,,,,,,,,,,,,,,,,,,,,,,,,,,
,6150d2ed1dc4cc1cdb2543bc,627c691daa577bac05652e73,2022-05-11_20h56.15.086,classification_task,2021.2.3,Win32,143.9677512,627c6715c52fd12f31907bcf,,,,,,,,,,,,,,,,,,,,,,,a,1,2.2614,"[""0.240"",""0.404"",""0.873"",""0.691""]","[1,1,1,0]",0,6,6,6,1,0,1,,,0,FALSE,,,,,,,,,,,,,,,,,,,,,,,,,,,,,,,
,6150d2ed1dc4cc1cdb2543bc,627c691daa577bac05652e73,2022-05-11_20h56.15.086,classification_task,2021.2.3,Win32,143.9677512,627c6715c52fd12f31907bcf,,,,,,,,,,,,,,,,,,,,,,,l,0,5.7762,"[""0.307"",""0.195"",""0.620"",""0.916""]","[1,0,1,1]",0,7,7,7,1,0,0,,,0,FALSE,,,,,,,,,,,,,,,,,,,,,,,,,,,,,,,
,6150d2ed1dc4cc1cdb2543bc,627c691daa577bac05652e73,2022-05-11_20h56.15.086,classification_task,2021.2.3,Win32,143.9677512,627c6715c52fd12f31907bcf,,,,,,,,,,,,,,,,,,,,,,,l,1,4.547,"[""0.039"",""0.198"",""0.438"",""0.840""]","[1,0,1,1]",0,8,8,8,1,1,1,,,0,FALSE,,,,,,,,,,,,,,,,,,,,,,,,,,,,,,,
,6150d2ed1dc4cc1cdb2543bc,627c691daa577bac05652e73,2022-05-11_20h56.15.086,classification_task,2021.2.3,Win32,143.9677512,627c6715c52fd12f31907bcf,,,,,,,,,,,,,,,,,,,,,,,a,0,5.9843,"[""0.720"",""0.371"",""0.438"",""0.840""]","[0,1,1,1]",0,9,9,9,1,1,1,,,0,FALSE,,,,,,,,,,,,,,,,,,,,,,,,,,,,,,,
,6150d2ed1dc4cc1cdb2543bc,627c691daa577bac05652e73,2022-05-11_20h56.15.086,classification_task,2021.2.3,Win32,143.9677512,627c6715c52fd12f31907bcf,,,,,,,,,,,,,,,,,,,,,,,a,1,3.6511,"[""0.240"",""0.671"",""0.873"",""0.974""]","[1,0,1,1]",0,10,10,10,1,0,1,,,0,FALSE,,,,,,,,,,,,,,,,,,,,,,,,,,,,,,,
,6150d2ed1dc4cc1cdb2543bc,627c691daa577bac05652e73,2022-05-11_20h56.15.086,classification_task,2021.2.3,Win32,143.9677512,627c6715c52fd12f31907bcf,,,,,,,,,,,,,,,,,,,,,,,,0,,"[""0.195"",""0.157"",""0.503"",""0.768""]","[0,1,1,1]",0,11,11,11,1,1,0,,,0,FALSE,,,,,,,,,,,,,,,,,,,,,,,,,,,,,,,
,6150d2ed1dc4cc1cdb2543bc,627c691daa577bac05652e73,2022-05-11_20h56.15.086,classification_task,2021.2.3,Win32,143.9677512,627c6715c52fd12f31907bcf,,,,,,,,,,,,,,,,,,,,,,,a,1,3.6925,"[""0.307"",""0.547"",""0.620"",""0.803""]","[1,1,1,0]",0,12,12,12,1,0,0,,,0,FALSE,,,,,,,,,,,,,,,,,,,,,,,,,,,,,,,
,6150d2ed1dc4cc1cdb2543bc,627c691daa577bac05652e73,2022-05-11_20h56.15.086,classification_task,2021.2.3,Win32,143.9677512,627c6715c52fd12f31907bcf,,,,,,,,,,,,,,,,,,,,,,,l,1,2.8278,"[""0.104"",""0.157"",""0.503"",""0.716""]","[1,1,1,0]",0,13,13,13,1,1,0,,,0,FALSE,,,,,,,,,,,,,,,,,,,,,,,,,,,,,,,
,6150d2ed1dc4cc1cdb2543bc,627c691daa577bac05652e73,2022-05-11_20h56.15.086,classification_task,2021.2.3,Win32,143.9677512,627c6715c52fd12f31907bcf,,,,,,,,,,,,,,,,,,,,,,,l,1,1.8324,"[""0.039"",""0.371"",""0.438"",""0.198""]","[1,1,1,0]",0,14,14,14,1,1,1,,,0,FALSE,,,,,,,,,,,,,,,,,,,,,,,,,,,,,,,
,6150d2ed1dc4cc1cdb2543bc,627c691daa577bac05652e73,2022-05-11_20h56.15.086,classification_task,2021.2.3,Win32,143.9677512,627c6715c52fd12f31907bcf,,,,,,,,,,,,,,,,,,,,,,,a,1,3.45,"[""0.307"",""0.547"",""0.803"",""0.916""]","[1,1,0,1]",0,15,15,15,1,0,0,,,0,FALSE,,,,,,,,,,,,,,,,,,,,,,,,,,,,,,,
,6150d2ed1dc4cc1cdb2543bc,627c691daa577bac05652e73,2022-05-11_20h56.15.086,classification_task,2021.2.3,Win32,143.9677512,627c6715c52fd12f31907bcf,,,,,,,,,,,,,,,,,,,,,,,a,1,1.704,"[""0.240"",""0.716"",""0.873"",""0.974""]","[1,0,1,1]",0,16,16,16,1,0,1,,,0,FALSE,,,,,,,,,,,,,,,,,,,,,,,,,,,,,,,
,6150d2ed1dc4cc1cdb2543bc,627c691daa577bac05652e73,2022-05-11_20h56.15.086,classification_task,2021.2.3,Win32,143.9677512,627c6715c52fd12f31907bcf,,,,,,,,,,,,,,,,,,,,,,,a,1,3.3913,"[""0.307"",""0.198"",""0.620"",""0.916""]","[1,0,1,1]",0,17,17,17,1,0,0,,,0,FALSE,,,,,,,,,,,,,,,,,,,,,,,,,,,,,,,
,6150d2ed1dc4cc1cdb2543bc,627c691daa577bac05652e73,2022-05-11_20h56.15.086,classification_task,2021.2.3,Win32,143.9677512,627c6715c52fd12f31907bcf,,,,,,,,,,,,,,,,,,,,,,,a,1,5.4681,"[""0.195"",""0.404"",""0.873"",""0.974""]","[0,1,1,1]",0,18,18,18,1,0,1,,,0,FALSE,,,,,,,,,,,,,,,,,,,,,,,,,,,,,,,
,6150d2ed1dc4cc1cdb2543bc,627c691daa577bac05652e73,2022-05-11_20h56.15.086,classification_task,2021.2.3,Win32,143.9677512,627c6715c52fd12f31907bcf,,,,,,,,,,,,,,,,,,,,,,,a,1,3.5232,"[""0.240"",""0.404"",""0.198"",""0.974""]","[1,1,0,1]",0,19,19,19,1,0,1,,,0,FALSE,,,,,,,,,,,,,,,,,,,,,,,,,,,,,,,
,6150d2ed1dc4cc1cdb2543bc,627c691daa577bac05652e73,2022-05-11_20h56.15.086,classification_task,2021.2.3,Win32,143.9677512,627c6715c52fd12f31907bcf,,,,,,,,,,,,,,,,,,,,,,,a,0,4.8943,"[""0.671"",""0.157"",""0.503"",""0.768""]","[0,1,1,1]",0,20,20,20,1,1,0,,,0,FALSE,,,,,,,,,,,,,,,,,,,,,,,,,,,,,,,
,6150d2ed1dc4cc1cdb2543bc,627c691daa577bac05652e73,2022-05-11_20h56.15.086,classification_task,2021.2.3,Win32,143.9677512,627c6715c52fd12f31907bcf,,,,,,,,,,,,,,,,,,,,,,,a,1,3.3219,"[""0.716"",""0.547"",""0.620"",""0.916""]","[0,1,1,1]",0,21,21,21,1,0,0,,,0,FALSE,,,,,,,,,,,,,,,,,,,,,,,,,,,,,,,
,6150d2ed1dc4cc1cdb2543bc,627c691daa577bac05652e73,2022-05-11_20h56.15.086,classification_task,2021.2.3,Win32,143.9677512,627c6715c52fd12f31907bcf,,,,,,,,,,,,,,,,,,,,,,,l,1,4.3555,"[""0.104"",""0.731"",""0.503"",""0.768""]","[1,0,1,1]",0,22,22,22,1,1,0,,,0,FALSE,,,,,,,,,,,,,,,,,,,,,,,,,,,,,,,
,6150d2ed1dc4cc1cdb2543bc,627c691daa577bac05652e73,2022-05-11_20h56.15.086,classification_task,2021.2.3,Win32,143.9677512,627c6715c52fd12f31907bcf,,,,,,,,,,,,,,,,,,,,,,,a,1,1.983,"[""0.240"",""0.404"",""0.873"",""0.698""]","[1,1,1,0]",0,23,23,23,1,0,1,,,0,FALSE,,,,,,,,,,,,,,,,,,,,,,,,,,,,,,,
,6150d2ed1dc4cc1cdb2543bc,627c691daa577bac05652e73,2022-05-11_20h56.15.086,classification_task,2021.2.3,Win32,143.9677512,627c6715c52fd12f31907bcf,,,,,,,,,,,,,,,,,,,,,,,l,1,3.579,"[""0.039"",""0.371"",""0.438"",""0.712""]","[1,1,1,0]",0,24,24,24,1,1,1,,,0,FALSE,,,,,,,,,,,,,,,,,,,,,,,,,,,,,,,
,6150d2ed1dc4cc1cdb2543bc,627c691daa577bac05652e73,2022-05-11_20h56.15.086,classification_task,2021.2.3,Win32,143.9677512,627c6715c52fd12f31907bcf,,,,,,,,,,,,,,,,,,,,,,,a,1,3.5331,"[""0.307"",""0.547"",""0.710"",""0.916""]","[1,1,0,1]",0,25,25,25,1,0,0,,,0,FALSE,,,,,,,,,,,,,,,,,,,,,,,,,,,,,,,
,6150d2ed1dc4cc1cdb2543bc,627c691daa577bac05652e73,2022-05-11_20h56.15.086,classification_task,2021.2.3,Win32,143.9677512,627c6715c52fd12f31907bcf,,,,,,,,,,,,,,,,,,,,,,,a,0,5.1819,"[""0.720"",""0.371"",""0.438"",""0.840""]","[0,1,1,1]",0,26,26,26,1,1,1,,,0,FALSE,,,,,,,,,,,,,,,,,,,,,,,,,,,,,,,
,6150d2ed1dc4cc1cdb2543bc,627c691daa577bac05652e73,2022-05-11_20h56.15.086,classification_task,2021.2.3,Win32,143.9677512,627c6715c52fd12f31907bcf,,,,,,,,,,,,,,,,,,,,,,,l,1,2.3125,"[""0.104"",""0.157"",""0.503"",""0.698""]","[1,1,1,0]",0,27,27,27,1,1,0,,,0,FALSE,,,,,,,,,,,,,,,,,,,,,,,,,,,,,,,
,6150d2ed1dc4cc1cdb2543bc,627c691daa577bac05652e73,2022-05-11_20h56.15.086,classification_task,2021.2.3,Win32,143.9677512,627c6715c52fd12f31907bcf,,,,,,,,,,,,,,,,,,,,,,,l,1,1.9982,"[""0.039"",""0.731"",""0.438"",""0.840""]","[1,0,1,1]",0,28,28,28,1,1,1,,,0,FALSE,,,,,,,,,,,,,,,,,,,,,,,,,,,,,,,
,6150d2ed1dc4cc1cdb2543bc,627c691daa577bac05652e73,2022-05-11_20h56.15.086,classification_task,2021.2.3,Win32,143.9677512,627c6715c52fd12f31907bcf,,,,,,,,,,,,,,,,,,,,,,,l,1,1.4569,"[""0.039"",""0.371"",""0.710"",""0.840""]","[1,1,0,1]",0,29,29,29,1,1,1,,,0,FALSE,,,,,,,,,,,,,,,,,,,,,,,,,,,,,,,
,6150d2ed1dc4cc1cdb2543bc,627c691daa577bac05652e73,2022-05-11_20h56.15.086,classification_task,2021.2.3,Win32,143.9677512,627c6715c52fd12f31907bcf,,,,,,,,,,,,,,,,,,,,,,,a,1,2.153,"[""0.307"",""0.547"",""0.620"",""0.710""]","[1,1,1,0]",0,30,30,30,1,0,0,,,0,FALSE,,,,,,,,,,,,,,,,,,,,,,,,,,,,,,,
,6150d2ed1dc4cc1cdb2543bc,627c691daa577bac05652e73,2022-05-11_20h56.15.086,classification_task,2021.2.3,Win32,143.9677512,627c6715c52fd12f31907bcf,,,,,,,,,,,,,,,,,,,,,,,l,1,3.2713,"[""0.104"",""0.157"",""0.691"",""0.768""]","[1,1,0,1]",0,31,31,31,1,1,0,,,0,FALSE,,,,,,,,,,,,,,,,,,,,,,,,,,,,,,,
,6150d2ed1dc4cc1cdb2543bc,627c691daa577bac05652e73,2022-05-11_20h56.15.086,classification_task,2021.2.3,Win32,143.9677512,627c6715c52fd12f31907bcf,,,,,,,,,,,,,,,,,,,,,,,a,1,9.1099,"[""0.307"",""0.547"",""0.620"",""0.731""]","[1,1,1,0]",0,32,32,32,1,0,0,,,0,FALSE,,,,,,,,,,,,,,,,,,,,,,,,,,,,,,,
,6150d2ed1dc4cc1cdb2543bc,627c691daa577bac05652e73,2022-05-11_20h56.15.086,classification_task,2021.2.3,Win32,143.9677512,627c6715c52fd12f31907bcf,,,,,,,,,,,,,,,,,,,,,,,l,1,3.2863,"[""0.104"",""0.157"",""0.716"",""0.768""]","[1,1,0,1]",0,33,33,33,1,1,0,,,0,FALSE,,,,,,,,,,,,,,,,,,,,,,,,,,,,,,,
,6150d2ed1dc4cc1cdb2543bc,627c691daa577bac05652e73,2022-05-11_20h56.15.086,classification_task,2021.2.3,Win32,143.9677512,627c6715c52fd12f31907bcf,,,,,,,,,,,,,,,,,,,,,,,a,1,3.1018,"[""0.307"",""0.547"",""0.195"",""0.916""]","[1,1,0,1]",0,34,34,34,1,0,0,,,0,FALSE,,,,,,,,,,,,,,,,,,,,,,,,,,,,,,,
,6150d2ed1dc4cc1cdb2543bc,627c691daa577bac05652e73,2022-05-11_20h56.15.086,classification_task,2021.2.3,Win32,143.9677512,627c6715c52fd12f31907bcf,,,,,,,,,,,,,,,,,,,,,,,l,1,1.0712,"[""0.104"",""0.680"",""0.503"",""0.768""]","[1,0,1,1]",0,35,35,35,1,1,0,,,0,FALSE,,,,,,,,,,,,,,,,,,,,,,,,,,,,,,,
,6150d2ed1dc4cc1cdb2543bc,627c691daa577bac05652e73,2022-05-11_20h56.15.086,classification_task,2021.2.3,Win32,143.9677512,627c6715c52fd12f31907bcf,,,,,,,,,,,,,,,,,,,,,,,l,1,2.8648,"[""0.039"",""0.721"",""0.438"",""0.840""]","[1,0,1,1]",0,36,36,36,1,1,1,,,0,FALSE,,,,,,,,,,,,,,,,,,,,,,,,,,,,,,,
,6150d2ed1dc4cc1cdb2543bc,627c691daa577bac05652e73,2022-05-11_20h56.15.086,classification_task,2021.2.3,Win32,143.9677512,627c6715c52fd12f31907bcf,,,,,,,,,,,,,,,,,,,,,,,a,1,4.2658,"[""0.307"",""0.712"",""0.620"",""0.916""]","[1,0,1,1]",0,37,37,37,1,0,0,,,0,FALSE,,,,,,,,,,,,,,,,,,,,,,,,,,,,,,,
,6150d2ed1dc4cc1cdb2543bc,627c691daa577bac05652e73,2022-05-11_20h56.15.086,classification_task,2021.2.3,Win32,143.9677512,627c6715c52fd12f31907bcf,,,,,,,,,,,,,,,,,,,,,,,l,1,1.2587,"[""0.039"",""0.371"",""0.438"",""0.803""]","[1,1,1,0]",0,38,38,38,1,1,1,,,0,FALSE,,,,,,,,,,,,,,,,,,,,,,,,,,,,,,,
,6150d2ed1dc4cc1cdb2543bc,627c691daa577bac05652e73,2022-05-11_20h56.15.086,classification_task,2021.2.3,Win32,143.9677512,627c6715c52fd12f31907bcf,,,,,,,,,,,,,,,,,,,,,,,l,0,1.8573,"[""0.691"",""0.547"",""0.620"",""0.916""]","[0,1,1,1]",0,39,39,39,1,0,0,,,0,FALSE,,,,,,,,,,,,,,,,,,,,,,,,,,,,,,,
,6150d2ed1dc4cc1cdb2543bc,627c691daa577bac05652e73,2022-05-11_20h56.15.086,classification_task,2021.2.3,Win32,143.9677512,627c6715c52fd12f31907bcf,,,,,,,,,,,,,,,,,,,,,,,a,1,1.4739,"[""0.671"",""0.404"",""0.873"",""0.974""]","[0,1,1,1]",0,40,40,40,1,0,1,,,0,FALSE,,,,,,,,,,,,,,,,,,,,,,,,,,,,,,,
,6150d2ed1dc4cc1cdb2543bc,627c691daa577bac05652e73,2022-05-11_20h56.15.086,classification_task,2021.2.3,Win32,143.9677512,627c6715c52fd12f31907bcf,,,,,,,,,,,,,,,,,,,,,,,l,1,1.9031,"[""0.039"",""0.371"",""0.691"",""0.840""]","[1,1,0,1]",0,41,41,41,1,1,1,,,0,FALSE,,,,,,,,,,,,,,,,,,,,,,,,,,,,,,,
,6150d2ed1dc4cc1cdb2543bc,627c691daa577bac05652e73,2022-05-11_20h56.15.086,classification_task,2021.2.3,Win32,143.9677512,627c6715c52fd12f31907bcf,,,,,,,,,,,,,,,,,,,,,,,a,0,3.3724,"[""0.671"",""0.157"",""0.503"",""0.768""]","[0,1,1,1]",0,42,42,42,1,1,0,,,0,FALSE,,,,,,,,,,,,,,,,,,,,,,,,,,,,,,,
,6150d2ed1dc4cc1cdb2543bc,627c691daa577bac05652e73,2022-05-11_20h56.15.086,classification_task,2021.2.3,Win32,143.9677512,627c6715c52fd12f31907bcf,,,,,,,,,,,,,,,,,,,,,,,l,1,0.9256,"[""0.104"",""0.157"",""0.503"",""0.803""]","[1,1,1,0]",0,43,43,43,1,1,0,,,0,FALSE,,,,,,,,,,,,,,,,,,,,,,,,,,,,,,,
,6150d2ed1dc4cc1cdb2543bc,627c691daa577bac05652e73,2022-05-11_20h56.15.086,classification_task,2021.2.3,Win32,143.9677512,627c6715c52fd12f31907bcf,,,,,,,,,,,,,,,,,,,,,,,a,1,1.5387,"[""0.240"",""0.716"",""0.873"",""0.974""]","[1,0,1,1]",0,44,44,44,1,0,1,,,0,FALSE,,,,,,,,,,,,,,,,,,,,,,,,,,,,,,,
,6150d2ed1dc4cc1cdb2543bc,627c691daa577bac05652e73,2022-05-11_20h56.15.086,classification_task,2021.2.3,Win32,143.9677512,627c6715c52fd12f31907bcf,,,,,,,,,,,,,,,,,,,,,,,a,1,1.1598,"[""0.240"",""0.404"",""0.873"",""0.803""]","[1,1,1,0]",0,45,45,45,1,0,1,,,0,FALSE,,,,,,,,,,,,,,,,,,,,,,,,,,,,,,,
,6150d2ed1dc4cc1cdb2543bc,627c691daa577bac05652e73,2022-05-11_20h56.15.086,classification_task,2021.2.3,Win32,143.9677512,627c6715c52fd12f31907bcf,,,,,,,,,,,,,,,,,,,,,,,a,0,1.0698,"[""0.720"",""0.371"",""0.438"",""0.840""]","[0,1,1,1]",0,46,46,46,1,1,1,,,0,FALSE,,,,,,,,,,,,,,,,,,,,,,,,,,,,,,,
,6150d2ed1dc4cc1cdb2543bc,627c691daa577bac05652e73,2022-05-11_20h56.15.086,classification_task,2021.2.3,Win32,143.9677512,627c6715c52fd12f31907bcf,,,,,,,,,,,,,,,,,,,,,,,a,1,1.0144,"[""0.240"",""0.404"",""0.720"",""0.974""]","[1,1,0,1]",0,47,47,47,1,0,1,,,0,FALSE,,,,,,,,,,,,,,,,,,,,,,,,,,,,,,,
,6150d2ed1dc4cc1cdb2543bc,627c691daa577bac05652e73,2022-05-11_20h56.15.086,classification_task,2021.2.3,Win32,143.9677512,627c6715c52fd12f31907bcf,,,,,,,,,,,,,,,,,,,,,,,a,1,0.7712,"[""0.240"",""0.716"",""0.873"",""0.974""]","[1,0,1,1]",0,48,48,48,1,0,1,,,0,FALSE,,,,,,,,,,,,,,,,,,,,,,,,,,,,,,,
,6150d2ed1dc4cc1cdb2543bc,627c691daa577bac05652e73,2022-05-11_20h56.15.086,classification_task,2021.2.3,Win32,143.9677512,627c6715c52fd12f31907bcf,,,,,,,,,,,,,,,,,,,,,,,l,1,0.9479,"[""0.104"",""0.698"",""0.503"",""0.768""]","[1,0,1,1]",0,49,49,49,1,1,0,,,0,FALSE,,,,,,,,,,,,,,,,,,,,,,,,,,,,,,,
,6150d2ed1dc4cc1cdb2543bc,627c691daa577bac05652e73,2022-05-11_20h56.15.086,classification_task,2021.2.3,Win32,143.9677512,627c6715c52fd12f31907bcf,,,,,,,,,,,,,,,,,,,,,,,a,1,1.2455,"[""0.710"",""0.547"",""0.620"",""0.916""]","[0,1,1,1]",0,50,50,50,1,0,0,,,0,FALSE,,,,,,,,,,,,,,,,,,,,,,,,,,,,,,,
,6150d2ed1dc4cc1cdb2543bc,627c691daa577bac05652e73,2022-05-11_20h56.15.086,classification_task,2021.2.3,Win32,143.9677512,627c6715c52fd12f31907bcf,,,,,,,,,,,,,,,,,,,,,,,a,1,1.5496,"[""0.240"",""0.404"",""0.873"",""0.716""]","[1,1,1,0]",0,51,51,51,1,0,1,,,0,FALSE,,,,,,,,,,,,,,,,,,,,,,,,,,,,,,,
,6150d2ed1dc4cc1cdb2543bc,627c691daa577bac05652e73,2022-05-11_20h56.15.086,classification_task,2021.2.3,Win32,143.9677512,627c6715c52fd12f31907bcf,,,,,,,,,,,,,,,,,,,,,,,a,1,1.4317,"[""0.307"",""0.198"",""0.620"",""0.916""]","[1,0,1,1]",0,52,52,52,1,0,0,,,0,FALSE,,,,,,,,,,,,,,,,,,,,,,,,,,,,,,,
,6150d2ed1dc4cc1cdb2543bc,627c691daa577bac05652e73,2022-05-11_20h56.15.086,classification_task,2021.2.3,Win32,143.9677512,627c6715c52fd12f31907bcf,,,,,,,,,,,,,,,,,,,,,,,a,0,1.873,"[""0.698"",""0.371"",""0.438"",""0.840""]","[0,1,1,1]",0,53,53,53,1,1,1,,,0,FALSE,,,,,,,,,,,,,,,,,,,,,,,,,,,,,,,
,6150d2ed1dc4cc1cdb2543bc,627c691daa577bac05652e73,2022-05-11_20h56.15.086,classification_task,2021.2.3,Win32,143.9677512,627c6715c52fd12f31907bcf,,,,,,,,,,,,,,,,,,,,,,,l,1,0.8487,"[""0.039"",""0.371"",""0.438"",""0.680""]","[1,1,1,0]",0,54,54,54,1,1,1,,,0,FALSE,,,,,,,,,,,,,,,,,,,,,,,,,,,,,,,
,6150d2ed1dc4cc1cdb2543bc,627c691daa577bac05652e73,2022-05-11_20h56.15.086,classification_task,2021.2.3,Win32,143.9677512,627c6715c52fd12f31907bcf,,,,,,,,,,,,,,,,,,,,,,,a,1,1.6675,"[""0.307"",""0.547"",""0.620"",""0.716""]","[1,1,1,0]",0,55,55,55,1,0,0,,,0,FALSE,,,,,,,,,,,,,,,,,,,,,,,,,,,,,,,
,6150d2ed1dc4cc1cdb2543bc,627c691daa577bac05652e73,2022-05-11_20h56.15.086,classification_task,2021.2.3,Win32,143.9677512,627c6715c52fd12f31907bcf,,,,,,,,,,,,,,,,,,,,,,,l,1,0.945,"[""0.039"",""0.712"",""0.438"",""0.840""]","[1,0,1,1]",0,56,56,56,1,1,1,,,0,FALSE,,,,,,,,,,,,,,,,,,,,,,,,,,,,,,,
,6150d2ed1dc4cc1cdb2543bc,627c691daa577bac05652e73,2022-05-11_20h56.15.086,classification_task,2021.2.3,Win32,143.9677512,627c6715c52fd12f31907bcf,,,,,,,,,,,,,,,,,,,,,,,a,1,1.3704,"[""0.240"",""0.404"",""0.716"",""0.974""]","[1,1,0,1]",0,57,57,57,1,0,1,,,0,FALSE,,,,,,,,,,,,,,,,,,,,,,,,,,,,,,,
,6150d2ed1dc4cc1cdb2543bc,627c691daa577bac05652e73,2022-05-11_20h56.15.086,classification_task,2021.2.3,Win32,143.9677512,627c6715c52fd12f31907bcf,,,,,,,,,,,,,,,,,,,,,,,l,1,0.7711,"[""0.039"",""0.371"",""0.691"",""0.840""]","[1,1,0,1]",0,58,58,58,1,1,1,,,0,FALSE,,,,,,,,,,,,,,,,,,,,,,,,,,,,,,,
,6150d2ed1dc4cc1cdb2543bc,627c691daa577bac05652e73,2022-05-11_20h56.15.086,classification_task,2021.2.3,Win32,143.9677512,627c6715c52fd12f31907bcf,,,,,,,,,,,,,,,,,,,,,,,a,1,1.1213,"[""0.307"",""0.547"",""0.712"",""0.916""]","[1,1,0,1]",0,59,59,59,1,0,0,,,0,FALSE,,,,,,,,,,,,,,,,,,,,,,,,,,,,,,,
,6150d2ed1dc4cc1cdb2543bc,627c691daa577bac05652e73,2022-05-11_20h56.15.086,classification_task,2021.2.3,Win32,143.9677512,627c6715c52fd12f31907bcf,,,,,,,,,,,,,,,,,,,,,,,a,1,1.2503,"[""0.671"",""0.404"",""0.873"",""0.974""]","[0,1,1,1]",0,60,60,60,1,0,1,,,0,FALSE,,,,,,,,,,,,,,,,,,,,,,,,,,,,,,,
,6150d2ed1dc4cc1cdb2543bc,627c691daa577bac05652e73,2022-05-11_20h56.15.086,classification_task,2021.2.3,Win32,143.9677512,627c6715c52fd12f31907bcf,,,,,,,,,,,,,,,,,,,,,,,a,0,2.1776,"[""0.691"",""0.157"",""0.503"",""0.768""]","[0,1,1,1]",0,61,61,61,1,1,0,,,0,FALSE,,,,,,,,,,,,,,,,,,,,,,,,,,,,,,,
,6150d2ed1dc4cc1cdb2543bc,627c691daa577bac05652e73,2022-05-11_20h56.15.086,classification_task,2021.2.3,Win32,143.9677512,627c6715c52fd12f31907bcf,,,,,,,,,,,,,,,,,,,,,,,l,1,0.827,"[""0.104"",""0.157"",""0.503"",""0.716""]","[1,1,1,0]",0,62,62,62,1,1,0,,,0,FALSE,,,,,,,,,,,,,,,,,,,,,,,,,,,,,,,
,6150d2ed1dc4cc1cdb2543bc,627c691daa577bac05652e73,2022-05-11_20h56.15.086,classification_task,2021.2.3,Win32,143.9677512,627c6715c52fd12f31907bcf,,,,,,,,,,,,,,,,,,,,,,,l,1,1.2528,"[""0.104"",""0.157"",""0.691"",""0.768""]","[1,1,0,1]",0,63,63,63,1,1,0,,,0,FALSE,,,,,,,,,,,,,,,,,,,,,,,,,,,,,,,
,6150d2ed1dc4cc1cdb2543bc,627c691daa577bac05652e73,2022-05-11_20h56.15.086,classification_task,2021.2.3,Win32,143.9677512,627c6715c52fd12f31907bcf,,,,,,,,,,,,,,,,,,,,,,,,,,,,,,,,,,,,,,,0, ,,0,10,539.5886,0,0,0,0,1,2,1,,,,,,,,,,,,,,,,,,
,6150d2ed1dc4cc1cdb2543bc,627c691daa577bac05652e73,2022-05-11_20h56.15.086,classification_task,2021.2.3,Win32,143.9677512,627c6715c52fd12f31907bcf,,,,,,,,,,,,,,,,,,,,,,,,,,,,,,,,,,,,,,,1,  ,,0,8.306878307,554.6738,0,0,0,0,1,2,1,,,,,,,,,,,,,,,,,,
,6150d2ed1dc4cc1cdb2543bc,627c691daa577bac05652e73,2022-05-11_20h56.15.086,classification_task,2021.2.3,Win32,143.9677512,627c6715c52fd12f31907bcf,,,,,,,,,,,,,,,,,,,,,,,,,,,,,,,,,,,,,,,2,  ,,0,10,553.092,0,0,0,0,1,2,1,,,,,,,,,,,,,,,,,,
,6150d2ed1dc4cc1cdb2543bc,627c691daa577bac05652e73,2022-05-11_20h56.15.086,classification_task,2021.2.3,Win32,143.9677512,627c6715c52fd12f31907bcf,,,,,,,,,,,,,,,,,,,,,,,,,,,,,,,,,,,,,,,,,,,,,0,0,0,0,1,,1,,,,,,,,,,,,,,,,,,
,6150d2ed1dc4cc1cdb2543bc,627c691daa577bac05652e73,2022-05-11_20h56.15.086,classification_task,2021.2.3,Win32,143.9677512,627c6715c52fd12f31907bcf,,,,,,,,,,,,,,,,,,,,,space,36.652,a,1,2.9137,"[""0.307"",""0.547"",""0.721"",""0.916""]","[1,1,0,1]",0,0,0,0,1,0,0,,,0,FALSE,,,,,,,,,,,,,,,,,,,,,,,,,,,,,,,
,6150d2ed1dc4cc1cdb2543bc,627c691daa577bac05652e73,2022-05-11_20h56.15.086,classification_task,2021.2.3,Win32,143.9677512,627c6715c52fd12f31907bcf,,,,,,,,,,,,,,,,,,,,,,,a,1,2.2225,"[""0.240"",""0.404"",""0.873"",""0.710""]","[1,1,1,0]",0,1,1,1,1,0,1,,,0,FALSE,,,,,,,,,,,,,,,,,,,,,,,,,,,,,,,
,6150d2ed1dc4cc1cdb2543bc,627c691daa577bac05652e73,2022-05-11_20h56.15.086,classification_task,2021.2.3,Win32,143.9677512,627c6715c52fd12f31907bcf,,,,,,,,,,,,,,,,,,,,,,,a,1,1.2969,"[""0.803"",""0.547"",""0.620"",""0.916""]","[0,1,1,1]",0,2,2,2,1,0,0,,,0,FALSE,,,,,,,,,,,,,,,,,,,,,,,,,,,,,,,
,6150d2ed1dc4cc1cdb2543bc,627c691daa577bac05652e73,2022-05-11_20h56.15.086,classification_task,2021.2.3,Win32,143.9677512,627c6715c52fd12f31907bcf,,,,,,,,,,,,,,,,,,,,,,,l,1,0.8679,"[""0.104"",""0.731"",""0.503"",""0.768""]","[1,0,1,1]",0,3,3,3,1,1,0,,,0,FALSE,,,,,,,,,,,,,,,,,,,,,,,,,,,,,,,
,6150d2ed1dc4cc1cdb2543bc,627c691daa577bac05652e73,2022-05-11_20h56.15.086,classification_task,2021.2.3,Win32,143.9677512,627c6715c52fd12f31907bcf,,,,,,,,,,,,,,,,,,,,,,,l,1,0.9722,"[""0.039"",""0.371"",""0.438"",""0.716""]","[1,1,1,0]",0,4,4,4,1,1,1,,,0,FALSE,,,,,,,,,,,,,,,,,,,,,,,,,,,,,,,
,6150d2ed1dc4cc1cdb2543bc,627c691daa577bac05652e73,2022-05-11_20h56.15.086,classification_task,2021.2.3,Win32,143.9677512,627c6715c52fd12f31907bcf,,,,,,,,,,,,,,,,,,,,,,,l,1,0.6341,"[""0.104"",""0.157"",""0.503"",""0.716""]","[1,1,1,0]",0,5,5,5,1,1,0,,,0,FALSE,,,,,,,,,,,,,,,,,,,,,,,,,,,,,,,
,6150d2ed1dc4cc1cdb2543bc,627c691daa577bac05652e73,2022-05-11_20h56.15.086,classification_task,2021.2.3,Win32,143.9677512,627c6715c52fd12f31907bcf,,,,,,,,,,,,,,,,,,,,,,,l,1,0.9566,"[""0.039"",""0.198"",""0.438"",""0.840""]","[1,0,1,1]",0,6,6,6,1,1,1,,,0,FALSE,,,,,,,,,,,,,,,,,,,,,,,,,,,,,,,
,6150d2ed1dc4cc1cdb2543bc,627c691daa577bac05652e73,2022-05-11_20h56.15.086,classification_task,2021.2.3,Win32,143.9677512,627c6715c52fd12f31907bcf,,,,,,,,,,,,,,,,,,,,,,,a,1,0.8006,"[""0.240"",""0.404"",""0.691"",""0.974""]","[1,1,0,1]",0,7,7,7,1,0,1,,,0,FALSE,,,,,,,,,,,,,,,,,,,,,,,,,,,,,,,
,6150d2ed1dc4cc1cdb2543bc,627c691daa577bac05652e73,2022-05-11_20h56.15.086,classification_task,2021.2.3,Win32,143.9677512,627c6715c52fd12f31907bcf,,,,,,,,,,,,,,,,,,,,,,,l,1,0.6096,"[""0.104"",""0.157"",""0.720"",""0.768""]","[1,1,0,1]",0,8,8,8,1,1,0,,,0,FALSE,,,,,,,,,,,,,,,,,,,,,,,,,,,,,,,
,6150d2ed1dc4cc1cdb2543bc,627c691daa577bac05652e73,2022-05-11_20h56.15.086,classification_task,2021.2.3,Win32,143.9677512,627c6715c52fd12f31907bcf,,,,,,,,,,,,,,,,,,,,,,,l,0,1.7988,"[""0.195"",""0.404"",""0.873"",""0.974""]","[0,1,1,1]",0,9,9,9,1,0,1,,,0,FALSE,,,,,,,,,,,,,,,,,,,,,,,,,,,,,,,
,6150d2ed1dc4cc1cdb2543bc,627c691daa577bac05652e73,2022-05-11_20h56.15.086,classification_task,2021.2.3,Win32,143.9677512,627c6715c52fd12f31907bcf,,,,,,,,,,,,,,,,,,,,,,,a,0,1.1996,"[""0.803"",""0.371"",""0.438"",""0.840""]","[0,1,1,1]",0,10,10,10,1,1,1,,,0,FALSE,,,,,,,,,,,,,,,,,,,,,,,,,,,,,,,
,6150d2ed1dc4cc1cdb2543bc,627c691daa577bac05652e73,2022-05-11_20h56.15.086,classification_task,2021.2.3,Win32,143.9677512,627c6715c52fd12f31907bcf,,,,,,,,,,,,,,,,,,,,,,,a,1,0.6945,"[""0.307"",""0.803"",""0.620"",""0.916""]","[1,0,1,1]",0,11,11,11,1,0,0,,,0,FALSE,,,,,,,,,,,,,,,,,,,,,,,,,,,,,,,
,6150d2ed1dc4cc1cdb2543bc,627c691daa577bac05652e73,2022-05-11_20h56.15.086,classification_task,2021.2.3,Win32,143.9677512,627c6715c52fd12f31907bcf,,,,,,,,,,,,,,,,,,,,,,,l,1,0.5208,"[""0.720"",""0.157"",""0.503"",""0.768""]","[0,1,1,1]",0,12,12,12,1,1,0,,,0,FALSE,,,,,,,,,,,,,,,,,,,,,,,,,,,,,,,
,6150d2ed1dc4cc1cdb2543bc,627c691daa577bac05652e73,2022-05-11_20h56.15.086,classification_task,2021.2.3,Win32,143.9677512,627c6715c52fd12f31907bcf,,,,,,,,,,,,,,,,,,,,,,,l,1,1.2137,"[""0.039"",""0.371"",""0.671"",""0.840""]","[1,1,0,1]",0,13,13,13,1,1,1,,,0,FALSE,,,,,,,,,,,,,,,,,,,,,,,,,,,,,,,
,6150d2ed1dc4cc1cdb2543bc,627c691daa577bac05652e73,2022-05-11_20h56.15.086,classification_task,2021.2.3,Win32,143.9677512,627c6715c52fd12f31907bcf,,,,,,,,,,,,,,,,,,,,,,,a,1,0.8126,"[""0.240"",""0.712"",""0.873"",""0.974""]","[1,0,1,1]",0,14,14,14,1,0,1,,,0,FALSE,,,,,,,,,,,,,,,,,,,,,,,,,,,,,,,
,6150d2ed1dc4cc1cdb2543bc,627c691daa577bac05652e73,2022-05-11_20h56.15.086,classification_task,2021.2.3,Win32,143.9677512,627c6715c52fd12f31907bcf,,,,,,,,,,,,,,,,,,,,,,,a,1,0.6967,"[""0.307"",""0.547"",""0.620"",""0.698""]","[1,1,1,0]",0,15,15,15,1,0,0,,,0,FALSE,,,,,,,,,,,,,,,,,,,,,,,,,,,,,,,
,6150d2ed1dc4cc1cdb2543bc,627c691daa577bac05652e73,2022-05-11_20h56.15.086,classification_task,2021.2.3,Win32,143.9677512,627c6715c52fd12f31907bcf,,,,,,,,,,,,,,,,,,,,,,,a,1,0.6861,"[""0.712"",""0.547"",""0.620"",""0.916""]","[0,1,1,1]",0,16,16,16,1,0,0,,,0,FALSE,,,,,,,,,,,,,,,,,,,,,,,,,,,,,,,
,6150d2ed1dc4cc1cdb2543bc,627c691daa577bac05652e73,2022-05-11_20h56.15.086,classification_task,2021.2.3,Win32,143.9677512,627c6715c52fd12f31907bcf,,,,,,,,,,,,,,,,,,,,,,,l,1,0.5835,"[""0.680"",""0.157"",""0.503"",""0.768""]","[0,1,1,1]",0,17,17,17,1,1,0,,,0,FALSE,,,,,,,,,,,,,,,,,,,,,,,,,,,,,,,
,6150d2ed1dc4cc1cdb2543bc,627c691daa577bac05652e73,2022-05-11_20h56.15.086,classification_task,2021.2.3,Win32,143.9677512,627c6715c52fd12f31907bcf,,,,,,,,,,,,,,,,,,,,,,,l,1,0.8735,"[""0.039"",""0.716"",""0.438"",""0.840""]","[1,0,1,1]",0,18,18,18,1,1,1,,,0,FALSE,,,,,,,,,,,,,,,,,,,,,,,,,,,,,,,
,6150d2ed1dc4cc1cdb2543bc,627c691daa577bac05652e73,2022-05-11_20h56.15.086,classification_task,2021.2.3,Win32,143.9677512,627c6715c52fd12f31907bcf,,,,,,,,,,,,,,,,,,,,,,,a,0,0.9668,"[""0.803"",""0.371"",""0.438"",""0.840""]","[0,1,1,1]",0,19,19,19,1,1,1,,,0,FALSE,,,,,,,,,,,,,,,,,,,,,,,,,,,,,,,
,6150d2ed1dc4cc1cdb2543bc,627c691daa577bac05652e73,2022-05-11_20h56.15.086,classification_task,2021.2.3,Win32,143.9677512,627c6715c52fd12f31907bcf,,,,,,,,,,,,,,,,,,,,,,,a,1,0.5071,"[""0.307"",""0.803"",""0.620"",""0.916""]","[1,0,1,1]",0,20,20,20,1,0,0,,,0,FALSE,,,,,,,,,,,,,,,,,,,,,,,,,,,,,,,
,6150d2ed1dc4cc1cdb2543bc,627c691daa577bac05652e73,2022-05-11_20h56.15.086,classification_task,2021.2.3,Win32,143.9677512,627c6715c52fd12f31907bcf,,,,,,,,,,,,,,,,,,,,,,,a,1,0.9357,"[""0.240"",""0.803"",""0.873"",""0.974""]","[1,0,1,1]",0,21,21,21,1,0,1,,,0,FALSE,,,,,,,,,,,,,,,,,,,,,,,,,,,,,,,
,6150d2ed1dc4cc1cdb2543bc,627c691daa577bac05652e73,2022-05-11_20h56.15.086,classification_task,2021.2.3,Win32,143.9677512,627c6715c52fd12f31907bcf,,,,,,,,,,,,,,,,,,,,,,,l,1,0.7661,"[""0.104"",""0.157"",""0.503"",""0.671""]","[1,1,1,0]",0,22,22,22,1,1,0,,,0,FALSE,,,,,,,,,,,,,,,,,,,,,,,,,,,,,,,
,6150d2ed1dc4cc1cdb2543bc,627c691daa577bac05652e73,2022-05-11_20h56.15.086,classification_task,2021.2.3,Win32,143.9677512,627c6715c52fd12f31907bcf,,,,,,,,,,,,,,,,,,,,,,,l,1,0.998,"[""0.039"",""0.371"",""0.691"",""0.840""]","[1,1,0,1]",0,23,23,23,1,1,1,,,0,FALSE,,,,,,,,,,,,,,,,,,,,,,,,,,,,,,,
,6150d2ed1dc4cc1cdb2543bc,627c691daa577bac05652e73,2022-05-11_20h56.15.086,classification_task,2021.2.3,Win32,143.9677512,627c6715c52fd12f31907bcf,,,,,,,,,,,,,,,,,,,,,,,a,1,0.7709,"[""0.240"",""0.404"",""0.873"",""0.716""]","[1,1,1,0]",0,24,24,24,1,0,1,,,0,FALSE,,,,,,,,,,,,,,,,,,,,,,,,,,,,,,,
,6150d2ed1dc4cc1cdb2543bc,627c691daa577bac05652e73,2022-05-11_20h56.15.086,classification_task,2021.2.3,Win32,143.9677512,627c6715c52fd12f31907bcf,,,,,,,,,,,,,,,,,,,,,,,l,1,0.9602,"[""0.039"",""0.371"",""0.438"",""0.712""]","[1,1,1,0]",0,25,25,25,1,1,1,,,0,FALSE,,,,,,,,,,,,,,,,,,,,,,,,,,,,,,,
,6150d2ed1dc4cc1cdb2543bc,627c691daa577bac05652e73,2022-05-11_20h56.15.086,classification_task,2021.2.3,Win32,143.9677512,627c6715c52fd12f31907bcf,,,,,,,,,,,,,,,,,,,,,,,a,1,0.9915,"[""0.803"",""0.404"",""0.873"",""0.974""]","[0,1,1,1]",0,26,26,26,1,0,1,,,0,FALSE,,,,,,,,,,,,,,,,,,,,,,,,,,,,,,,
,6150d2ed1dc4cc1cdb2543bc,627c691daa577bac05652e73,2022-05-11_20h56.15.086,classification_task,2021.2.3,Win32,143.9677512,627c6715c52fd12f31907bcf,,,,,,,,,,,,,,,,,,,,,,,a,1,1.2149,"[""0.240"",""0.404"",""0.716"",""0.974""]","[1,1,0,1]",0,27,27,27,1,0,1,,,0,FALSE,,,,,,,,,,,,,,,,,,,,,,,,,,,,,,,
,6150d2ed1dc4cc1cdb2543bc,627c691daa577bac05652e73,2022-05-11_20h56.15.086,classification_task,2021.2.3,Win32,143.9677512,627c6715c52fd12f31907bcf,,,,,,,,,,,,,,,,,,,,,,,l,1,0.7517,"[""0.104"",""0.720"",""0.503"",""0.768""]","[1,0,1,1]",0,28,28,28,1,1,0,,,0,FALSE,,,,,,,,,,,,,,,,,,,,,,,,,,,,,,,
,6150d2ed1dc4cc1cdb2543bc,627c691daa577bac05652e73,2022-05-11_20h56.15.086,classification_task,2021.2.3,Win32,143.9677512,627c6715c52fd12f31907bcf,,,,,,,,,,,,,,,,,,,,,,,a,1,0.8427,"[""0.307"",""0.547"",""0.620"",""0.720""]","[1,1,1,0]",0,29,29,29,1,0,0,,,0,FALSE,,,,,,,,,,,,,,,,,,,,,,,,,,,,,,,
,6150d2ed1dc4cc1cdb2543bc,627c691daa577bac05652e73,2022-05-11_20h56.15.086,classification_task,2021.2.3,Win32,143.9677512,627c6715c52fd12f31907bcf,,,,,,,,,,,,,,,,,,,,,,,a,1,0.8421,"[""0.307"",""0.547"",""0.698"",""0.916""]","[1,1,0,1]",0,30,30,30,1,0,0,,,0,FALSE,,,,,,,,,,,,,,,,,,,,,,,,,,,,,,,
,6150d2ed1dc4cc1cdb2543bc,627c691daa577bac05652e73,2022-05-11_20h56.15.086,classification_task,2021.2.3,Win32,143.9677512,627c6715c52fd12f31907bcf,,,,,,,,,,,,,,,,,,,,,,,l,1,0.6272,"[""0.104"",""0.157"",""0.720"",""0.768""]","[1,1,0,1]",0,31,31,31,1,1,0,,,0,FALSE,,,,,,,,,,,,,,,,,,,,,,,,,,,,,,,
,6150d2ed1dc4cc1cdb2543bc,627c691daa577bac05652e73,2022-05-11_20h56.15.086,classification_task,2021.2.3,Win32,143.9677512,627c6715c52fd12f31907bcf,,,,,,,,,,,,,,,,,,,,,,,a,1,0.5134,"[""0.720"",""0.547"",""0.620"",""0.916""]","[0,1,1,1]",0,32,32,32,1,0,0,,,0,FALSE,,,,,,,,,,,,,,,,,,,,,,,,,,,,,,,
,6150d2ed1dc4cc1cdb2543bc,627c691daa577bac05652e73,2022-05-11_20h56.15.086,classification_task,2021.2.3,Win32,143.9677512,627c6715c52fd12f31907bcf,,,,,,,,,,,,,,,,,,,,,,,l,1,0.5176,"[""0.104"",""0.157"",""0.716"",""0.768""]","[1,1,0,1]",0,33,33,33,1,1,0,,,0,FALSE,,,,,,,,,,,,,,,,,,,,,,,,,,,,,,,
,6150d2ed1dc4cc1cdb2543bc,627c691daa577bac05652e73,2022-05-11_20h56.15.086,classification_task,2021.2.3,Win32,143.9677512,627c6715c52fd12f31907bcf,,,,,,,,,,,,,,,,,,,,,,,a,1,2.4076,"[""0.716"",""0.404"",""0.873"",""0.974""]","[0,1,1,1]",0,34,34,34,1,0,1,,,0,FALSE,,,,,,,,,,,,,,,,,,,,,,,,,,,,,,,
,6150d2ed1dc4cc1cdb2543bc,627c691daa577bac05652e73,2022-05-11_20h56.15.086,classification_task,2021.2.3,Win32,143.9677512,627c6715c52fd12f31907bcf,,,,,,,,,,,,,,,,,,,,,,,a,1,0.7319,"[""0.240"",""0.404"",""0.716"",""0.974""]","[1,1,0,1]",0,35,35,35,1,0,1,,,0,FALSE,,,,,,,,,,,,,,,,,,,,,,,,,,,,,,,
,6150d2ed1dc4cc1cdb2543bc,627c691daa577bac05652e73,2022-05-11_20h56.15.086,classification_task,2021.2.3,Win32,143.9677512,627c6715c52fd12f31907bcf,,,,,,,,,,,,,,,,,,,,,,,a,1,0.7066,"[""0.307"",""0.547"",""0.620"",""0.731""]","[1,1,1,0]",0,36,36,36,1,0,0,,,0,FALSE,,,,,,,,,,,,,,,,,,,,,,,,,,,,,,,
,6150d2ed1dc4cc1cdb2543bc,627c691daa577bac05652e73,2022-05-11_20h56.15.086,classification_task,2021.2.3,Win32,143.9677512,627c6715c52fd12f31907bcf,,,,,,,,,,,,,,,,,,,,,,,a,0,0.9492,"[""0.720"",""0.371"",""0.438"",""0.840""]","[0,1,1,1]",0,37,37,37,1,1,1,,,0,FALSE,,,,,,,,,,,,,,,,,,,,,,,,,,,,,,,
,6150d2ed1dc4cc1cdb2543bc,627c691daa577bac05652e73,2022-05-11_20h56.15.086,classification_task,2021.2.3,Win32,143.9677512,627c6715c52fd12f31907bcf,,,,,,,,,,,,,,,,,,,,,,,a,1,1.0082,"[""0.240"",""0.404"",""0.873"",""0.716""]","[1,1,1,0]",0,38,38,38,1,0,1,,,0,FALSE,,,,,,,,,,,,,,,,,,,,,,,,,,,,,,,
,6150d2ed1dc4cc1cdb2543bc,627c691daa577bac05652e73,2022-05-11_20h56.15.086,classification_task,2021.2.3,Win32,143.9677512,627c6715c52fd12f31907bcf,,,,,,,,,,,,,,,,,,,,,,,l,1,0.9998,"[""0.039"",""0.371"",""0.438"",""0.720""]","[1,1,1,0]",0,39,39,39,1,1,1,,,0,FALSE,,,,,,,,,,,,,,,,,,,,,,,,,,,,,,,
,6150d2ed1dc4cc1cdb2543bc,627c691daa577bac05652e73,2022-05-11_20h56.15.086,classification_task,2021.2.3,Win32,143.9677512,627c6715c52fd12f31907bcf,,,,,,,,,,,,,,,,,,,,,,,l,1,0.6769,"[""0.039"",""0.371"",""0.698"",""0.840""]","[1,1,0,1]",0,40,40,40,1,1,1,,,0,FALSE,,,,,,,,,,,,,,,,,,,,,,,,,,,,,,,
,6150d2ed1dc4cc1cdb2543bc,627c691daa577bac05652e73,2022-05-11_20h56.15.086,classification_task,2021.2.3,Win32,143.9677512,627c6715c52fd12f31907bcf,,,,,,,,,,,,,,,,,,,,,,,l,1,0.6456,"[""0.039"",""0.691"",""0.438"",""0.840""]","[1,0,1,1]",0,41,41,41,1,1,1,,,0,FALSE,,,,,,,,,,,,,,,,,,,,,,,,,,,,,,,
,6150d2ed1dc4cc1cdb2543bc,627c691daa577bac05652e73,2022-05-11_20h56.15.086,classification_task,2021.2.3,Win32,143.9677512,627c6715c52fd12f31907bcf,,,,,,,,,,,,,,,,,,,,,,,a,1,1.5251,"[""0.307"",""0.803"",""0.620"",""0.916""]","[1,0,1,1]",0,42,42,42,1,0,0,,,0,FALSE,,,,,,,,,,,,,,,,,,,,,,,,,,,,,,,
,6150d2ed1dc4cc1cdb2543bc,627c691daa577bac05652e73,2022-05-11_20h56.15.086,classification_task,2021.2.3,Win32,143.9677512,627c6715c52fd12f31907bcf,,,,,,,,,,,,,,,,,,,,,,,l,1,0.9159,"[""0.716"",""0.157"",""0.503"",""0.768""]","[0,1,1,1]",0,43,43,43,1,1,0,,,0,FALSE,,,,,,,,,,,,,,,,,,,,,,,,,,,,,,,
,6150d2ed1dc4cc1cdb2543bc,627c691daa577bac05652e73,2022-05-11_20h56.15.086,classification_task,2021.2.3,Win32,143.9677512,627c6715c52fd12f31907bcf,,,,,,,,,,,,,,,,,,,,,,,a,1,0.886,"[""0.307"",""0.547"",""0.803"",""0.916""]","[1,1,0,1]",0,44,44,44,1,0,0,,,0,FALSE,,,,,,,,,,,,,,,,,,,,,,,,,,,,,,,
,6150d2ed1dc4cc1cdb2543bc,627c691daa577bac05652e73,2022-05-11_20h56.15.086,classification_task,2021.2.3,Win32,143.9677512,627c6715c52fd12f31907bcf,,,,,,,,,,,,,,,,,,,,,,,l,1,0.9446,"[""0.104"",""0.157"",""0.503"",""0.198""]","[1,1,1,0]",0,45,45,45,1,1,0,,,0,FALSE,,,,,,,,,,,,,,,,,,,,,,,,,,,,,,,
,6150d2ed1dc4cc1cdb2543bc,627c691daa577bac05652e73,2022-05-11_20h56.15.086,classification_task,2021.2.3,Win32,143.9677512,627c6715c52fd12f31907bcf,,,,,,,,,,,,,,,,,,,,,,,l,1,0.534,"[""0.104"",""0.698"",""0.503"",""0.768""]","[1,0,1,1]",0,46,46,46,1,1,0,,,0,FALSE,,,,,,,,,,,,,,,,,,,,,,,,,,,,,,,
,6150d2ed1dc4cc1cdb2543bc,627c691daa577bac05652e73,2022-05-11_20h56.15.086,classification_task,2021.2.3,Win32,143.9677512,627c6715c52fd12f31907bcf,,,,,,,,,,,,,,,,,,,,,,,a,1,0.9706,"[""0.240"",""0.731"",""0.873"",""0.974""]","[1,0,1,1]",0,47,47,47,1,0,1,,,0,FALSE,,,,,,,,,,,,,,,,,,,,,,,,,,,,,,,
,6150d2ed1dc4cc1cdb2543bc,627c691daa577bac05652e73,2022-05-11_20h56.15.086,classification_task,2021.2.3,Win32,143.9677512,627c6715c52fd12f31907bcf,,,,,,,,,,,,,,,,,,,,,,,a,1,2.2249,"[""0.720"",""0.404"",""0.873"",""0.974""]","[0,1,1,1]",0,48,48,48,1,0,1,,,0,FALSE,,,,,,,,,,,,,,,,,,,,,,,,,,,,,,,
,6150d2ed1dc4cc1cdb2543bc,627c691daa577bac05652e73,2022-05-11_20h56.15.086,classification_task,2021.2.3,Win32,143.9677512,627c6715c52fd12f31907bcf,,,,,,,,,,,,,,,,,,,,,,,a,1,1.0568,"[""0.721"",""0.547"",""0.620"",""0.916""]","[0,1,1,1]",0,49,49,49,1,0,0,,,0,FALSE,,,,,,,,,,,,,,,,,,,,,,,,,,,,,,,
,6150d2ed1dc4cc1cdb2543bc,627c691daa577bac05652e73,2022-05-11_20h56.15.086,classification_task,2021.2.3,Win32,143.9677512,627c6715c52fd12f31907bcf,,,,,,,,,,,,,,,,,,,,,,,l,1,1.2325,"[""0.104"",""0.195"",""0.503"",""0.768""]","[1,0,1,1]",0,50,50,50,1,1,0,,,0,FALSE,,,,,,,,,,,,,,,,,,,,,,,,,,,,,,,
,6150d2ed1dc4cc1cdb2543bc,627c691daa577bac05652e73,2022-05-11_20h56.15.086,classification_task,2021.2.3,Win32,143.9677512,627c6715c52fd12f31907bcf,,,,,,,,,,,,,,,,,,,,,,,a,1,0.9341,"[""0.307"",""0.698"",""0.620"",""0.916""]","[1,0,1,1]",0,51,51,51,1,0,0,,,0,FALSE,,,,,,,,,,,,,,,,,,,,,,,,,,,,,,,
,6150d2ed1dc4cc1cdb2543bc,627c691daa577bac05652e73,2022-05-11_20h56.15.086,classification_task,2021.2.3,Win32,143.9677512,627c6715c52fd12f31907bcf,,,,,,,,,,,,,,,,,,,,,,,a,0,1.6714,"[""0.710"",""0.371"",""0.438"",""0.840""]","[0,1,1,1]",0,52,52,52,1,1,1,,,0,FALSE,,,,,,,,,,,,,,,,,,,,,,,,,,,,,,,
,6150d2ed1dc4cc1cdb2543bc,627c691daa577bac05652e73,2022-05-11_20h56.15.086,classification_task,2021.2.3,Win32,143.9677512,627c6715c52fd12f31907bcf,,,,,,,,,,,,,,,,,,,,,,,a,1,1.2382,"[""0.307"",""0.547"",""0.716"",""0.916""]","[1,1,0,1]",0,53,53,53,1,0,0,,,0,FALSE,,,,,,,,,,,,,,,,,,,,,,,,,,,,,,,
,6150d2ed1dc4cc1cdb2543bc,627c691daa577bac05652e73,2022-05-11_20h56.15.086,classification_task,2021.2.3,Win32,143.9677512,627c6715c52fd12f31907bcf,,,,,,,,,,,,,,,,,,,,,,,a,1,0.9909,"[""0.240"",""0.712"",""0.873"",""0.974""]","[1,0,1,1]",0,54,54,54,1,0,1,,,0,FALSE,,,,,,,,,,,,,,,,,,,,,,,,,,,,,,,
,6150d2ed1dc4cc1cdb2543bc,627c691daa577bac05652e73,2022-05-11_20h56.15.086,classification_task,2021.2.3,Win32,143.9677512,627c6715c52fd12f31907bcf,,,,,,,,,,,,,,,,,,,,,,,l,1,1.8326,"[""0.039"",""0.371"",""0.438"",""0.720""]","[1,1,1,0]",0,55,55,55,1,1,1,,,0,FALSE,,,,,,,,,,,,,,,,,,,,,,,,,,,,,,,
,6150d2ed1dc4cc1cdb2543bc,627c691daa577bac05652e73,2022-05-11_20h56.15.086,classification_task,2021.2.3,Win32,143.9677512,627c6715c52fd12f31907bcf,,,,,,,,,,,,,,,,,,,,,,,a,1,1.9743,"[""0.240"",""0.404"",""0.721"",""0.974""]","[1,1,0,1]",0,56,56,56,1,0,1,,,0,FALSE,,,,,,,,,,,,,,,,,,,,,,,,,,,,,,,
,6150d2ed1dc4cc1cdb2543bc,627c691daa577bac05652e73,2022-05-11_20h56.15.086,classification_task,2021.2.3,Win32,143.9677512,627c6715c52fd12f31907bcf,,,,,,,,,,,,,,,,,,,,,,,l,1,0.4841,"[""0.104"",""0.157"",""0.803"",""0.768""]","[1,1,0,1]",0,57,57,57,1,1,0,,,0,FALSE,,,,,,,,,,,,,,,,,,,,,,,,,,,,,,,
,6150d2ed1dc4cc1cdb2543bc,627c691daa577bac05652e73,2022-05-11_20h56.15.086,classification_task,2021.2.3,Win32,143.9677512,627c6715c52fd12f31907bcf,,,,,,,,,,,,,,,,,,,,,,,l,1,0.8562,"[""0.039"",""0.371"",""0.803"",""0.840""]","[1,1,0,1]",0,58,58,58,1,1,1,,,0,FALSE,,,,,,,,,,,,,,,,,,,,,,,,,,,,,,,
,6150d2ed1dc4cc1cdb2543bc,627c691daa577bac05652e73,2022-05-11_20h56.15.086,classification_task,2021.2.3,Win32,143.9677512,627c6715c52fd12f31907bcf,,,,,,,,,,,,,,,,,,,,,,,l,1,0.5265,"[""0.039"",""0.716"",""0.438"",""0.840""]","[1,0,1,1]",0,59,59,59,1,1,1,,,0,FALSE,,,,,,,,,,,,,,,,,,,,,,,,,,,,,,,
,6150d2ed1dc4cc1cdb2543bc,627c691daa577bac05652e73,2022-05-11_20h56.15.086,classification_task,2021.2.3,Win32,143.9677512,627c6715c52fd12f31907bcf,,,,,,,,,,,,,,,,,,,,,,,l,1,0.5697,"[""0.104"",""0.157"",""0.503"",""0.716""]","[1,1,1,0]",0,60,60,60,1,1,0,,,0,FALSE,,,,,,,,,,,,,,,,,,,,,,,,,,,,,,,
,6150d2ed1dc4cc1cdb2543bc,627c691daa577bac05652e73,2022-05-11_20h56.15.086,classification_task,2021.2.3,Win32,143.9677512,627c6715c52fd12f31907bcf,,,,,,,,,,,,,,,,,,,,,,,a,1,0.4151,"[""0.307"",""0.547"",""0.620"",""0.710""]","[1,1,1,0]",0,61,61,61,1,0,0,,,0,FALSE,,,,,,,,,,,,,,,,,,,,,,,,,,,,,,,
,6150d2ed1dc4cc1cdb2543bc,627c691daa577bac05652e73,2022-05-11_20h56.15.086,classification_task,2021.2.3,Win32,143.9677512,627c6715c52fd12f31907bcf,,,,,,,,,,,,,,,,,,,,,,,a,1,1.1476,"[""0.240"",""0.404"",""0.873"",""0.710""]","[1,1,1,0]",0,62,62,62,1,0,1,,,0,FALSE,,,,,,,,,,,,,,,,,,,,,,,,,,,,,,,
,6150d2ed1dc4cc1cdb2543bc,627c691daa577bac05652e73,2022-05-11_20h56.15.086,classification_task,2021.2.3,Win32,143.9677512,627c6715c52fd12f31907bcf,,,,,,,,,,,,,,,,,,,,,,,l,1,0.5349,"[""0.716"",""0.157"",""0.503"",""0.768""]","[0,1,1,1]",0,63,63,63,1,1,0,,,0,FALSE,,,,,,,,,,,,,,,,,,,,,,,,,,,,,,,
,6150d2ed1dc4cc1cdb2543bc,627c691daa577bac05652e73,2022-05-11_20h56.15.086,classification_task,2021.2.3,Win32,143.9677512,627c6715c52fd12f31907bcf,,,,,,,,,,,,,,,,,,,,,,,,,,,,,,,,,,,,,,,0, ,,0,10,187.8069,0,1,1,1,1,2,2,,,,,,,,,,,,,,,,,,
,6150d2ed1dc4cc1cdb2543bc,627c691daa577bac05652e73,2022-05-11_20h56.15.086,classification_task,2021.2.3,Win32,143.9677512,627c6715c52fd12f31907bcf,,,,,,,,,,,,,,,,,,,,,,,,,,,,,,,,,,,,,,,1,  ,,0,8.943758573,189.5491,0,1,1,1,1,2,2,,,,,,,,,,,,,,,,,,
,6150d2ed1dc4cc1cdb2543bc,627c691daa577bac05652e73,2022-05-11_20h56.15.086,classification_task,2021.2.3,Win32,143.9677512,627c6715c52fd12f31907bcf,,,,,,,,,,,,,,,,,,,,,,,,,,,,,,,,,,,,,,,2,  ,,0,4.583578287,200.9554,0,1,1,1,1,2,2,,,,,,,,,,,,,,,,,,
,6150d2ed1dc4cc1cdb2543bc,627c691daa577bac05652e73,2022-05-11_20h56.15.086,classification_task,2021.2.3,Win32,143.9677512,627c6715c52fd12f31907bcf,,,,,,,,,,,,,,,,,,,,,,,,,,,,,,,,,,,,,,,,,,,,,0,1,1,1,1,,2,,,,,,,,,,,,,,,,,,
,6150d2ed1dc4cc1cdb2543bc,627c691daa577bac05652e73,2022-05-11_20h56.15.086,classification_task,2021.2.3,Win32,143.9677512,627c6715c52fd12f31907bcf,,,,,,,,,,,,,,,,,,,,,space,17.1562,a,0,2.2467,"[""0.716"",""0.371"",""0.438"",""0.840""]","[0,1,1,1]",0,0,0,0,1,1,1,,,0,FALSE,,,,,,,,,,,,,,,,,,,,,,,,,,,,,,,
,6150d2ed1dc4cc1cdb2543bc,627c691daa577bac05652e73,2022-05-11_20h56.15.086,classification_task,2021.2.3,Win32,143.9677512,627c6715c52fd12f31907bcf,,,,,,,,,,,,,,,,,,,,,,,a,1,2.2481,"[""0.307"",""0.547"",""0.712"",""0.916""]","[1,1,0,1]",0,1,1,1,1,0,0,,,0,FALSE,,,,,,,,,,,,,,,,,,,,,,,,,,,,,,,
,6150d2ed1dc4cc1cdb2543bc,627c691daa577bac05652e73,2022-05-11_20h56.15.086,classification_task,2021.2.3,Win32,143.9677512,627c6715c52fd12f31907bcf,,,,,,,,,,,,,,,,,,,,,,,a,1,1.7898,"[""0.307"",""0.547"",""0.620"",""0.698""]","[1,1,1,0]",0,2,2,2,1,0,0,,,0,FALSE,,,,,,,,,,,,,,,,,,,,,,,,,,,,,,,
,6150d2ed1dc4cc1cdb2543bc,627c691daa577bac05652e73,2022-05-11_20h56.15.086,classification_task,2021.2.3,Win32,143.9677512,627c6715c52fd12f31907bcf,,,,,,,,,,,,,,,,,,,,,,,l,1,0.7994,"[""0.104"",""0.157"",""0.716"",""0.768""]","[1,1,0,1]",0,3,3,3,1,1,0,,,0,FALSE,,,,,,,,,,,,,,,,,,,,,,,,,,,,,,,
,6150d2ed1dc4cc1cdb2543bc,627c691daa577bac05652e73,2022-05-11_20h56.15.086,classification_task,2021.2.3,Win32,143.9677512,627c6715c52fd12f31907bcf,,,,,,,,,,,,,,,,,,,,,,,l,1,1.0967,"[""0.039"",""0.371"",""0.438"",""0.721""]","[1,1,1,0]",0,4,4,4,1,1,1,,,0,FALSE,,,,,,,,,,,,,,,,,,,,,,,,,,,,,,,
,6150d2ed1dc4cc1cdb2543bc,627c691daa577bac05652e73,2022-05-11_20h56.15.086,classification_task,2021.2.3,Win32,143.9677512,627c6715c52fd12f31907bcf,,,,,,,,,,,,,,,,,,,,,,,a,1,1.7866,"[""0.240"",""0.404"",""0.873"",""0.671""]","[1,1,1,0]",0,5,5,5,1,0,1,,,0,FALSE,,,,,,,,,,,,,,,,,,,,,,,,,,,,,,,
,6150d2ed1dc4cc1cdb2543bc,627c691daa577bac05652e73,2022-05-11_20h56.15.086,classification_task,2021.2.3,Win32,143.9677512,627c6715c52fd12f31907bcf,,,,,,,,,,,,,,,,,,,,,,,l,1,0.8097,"[""0.039"",""0.731"",""0.438"",""0.840""]","[1,0,1,1]",0,6,6,6,1,1,1,,,0,FALSE,,,,,,,,,,,,,,,,,,,,,,,,,,,,,,,
,6150d2ed1dc4cc1cdb2543bc,627c691daa577bac05652e73,2022-05-11_20h56.15.086,classification_task,2021.2.3,Win32,143.9677512,627c6715c52fd12f31907bcf,,,,,,,,,,,,,,,,,,,,,,,l,1,1.4331,"[""0.104"",""0.731"",""0.503"",""0.768""]","[1,0,1,1]",0,7,7,7,1,1,0,,,0,FALSE,,,,,,,,,,,,,,,,,,,,,,,,,,,,,,,
,6150d2ed1dc4cc1cdb2543bc,627c691daa577bac05652e73,2022-05-11_20h56.15.086,classification_task,2021.2.3,Win32,143.9677512,627c6715c52fd12f31907bcf,,,,,,,,,,,,,,,,,,,,,,,l,1,1.2135,"[""0.721"",""0.157"",""0.503"",""0.768""]","[0,1,1,1]",0,8,8,8,1,1,0,,,0,FALSE,,,,,,,,,,,,,,,,,,,,,,,,,,,,,,,
,6150d2ed1dc4cc1cdb2543bc,627c691daa577bac05652e73,2022-05-11_20h56.15.086,classification_task,2021.2.3,Win32,143.9677512,627c6715c52fd12f31907bcf,,,,,,,,,,,,,,,,,,,,,,,a,1,0.8499,"[""0.240"",""0.698"",""0.873"",""0.974""]","[1,0,1,1]",0,9,9,9,1,0,1,,,0,FALSE,,,,,,,,,,,,,,,,,,,,,,,,,,,,,,,
,6150d2ed1dc4cc1cdb2543bc,627c691daa577bac05652e73,2022-05-11_20h56.15.086,classification_task,2021.2.3,Win32,143.9677512,627c6715c52fd12f31907bcf,,,,,,,,,,,,,,,,,,,,,,,a,1,1.0585,"[""0.307"",""0.721"",""0.620"",""0.916""]","[1,0,1,1]",0,10,10,10,1,0,0,,,0,FALSE,,,,,,,,,,,,,,,,,,,,,,,,,,,,,,,
,6150d2ed1dc4cc1cdb2543bc,627c691daa577bac05652e73,2022-05-11_20h56.15.086,classification_task,2021.2.3,Win32,143.9677512,627c6715c52fd12f31907bcf,,,,,,,,,,,,,,,,,,,,,,,l,1,0.8401,"[""0.039"",""0.371"",""0.680"",""0.840""]","[1,1,0,1]",0,11,11,11,1,1,1,,,0,FALSE,,,,,,,,,,,,,,,,,,,,,,,,,,,,,,,
,6150d2ed1dc4cc1cdb2543bc,627c691daa577bac05652e73,2022-05-11_20h56.15.086,classification_task,2021.2.3,Win32,143.9677512,627c6715c52fd12f31907bcf,,,,,,,,,,,,,,,,,,,,,,,a,1,0.7517,"[""0.240"",""0.404"",""0.710"",""0.974""]","[1,1,0,1]",0,12,12,12,1,0,1,,,0,FALSE,,,,,,,,,,,,,,,,,,,,,,,,,,,,,,,
,6150d2ed1dc4cc1cdb2543bc,627c691daa577bac05652e73,2022-05-11_20h56.15.086,classification_task,2021.2.3,Win32,143.9677512,627c6715c52fd12f31907bcf,,,,,,,,,,,,,,,,,,,,,,,a,1,1.7932,"[""0.716"",""0.404"",""0.873"",""0.974""]","[0,1,1,1]",0,13,13,13,1,0,1,,,0,FALSE,,,,,,,,,,,,,,,,,,,,,,,,,,,,,,,
,6150d2ed1dc4cc1cdb2543bc,627c691daa577bac05652e73,2022-05-11_20h56.15.086,classification_task,2021.2.3,Win32,143.9677512,627c6715c52fd12f31907bcf,,,,,,,,,,,,,,,,,,,,,,,l,1,1.6468,"[""0.104"",""0.157"",""0.503"",""0.198""]","[1,1,1,0]",0,14,14,14,1,1,0,,,0,FALSE,,,,,,,,,,,,,,,,,,,,,,,,,,,,,,,
,6150d2ed1dc4cc1cdb2543bc,627c691daa577bac05652e73,2022-05-11_20h56.15.086,classification_task,2021.2.3,Win32,143.9677512,627c6715c52fd12f31907bcf,,,,,,,,,,,,,,,,,,,,,,,a,1,1.2091,"[""0.721"",""0.547"",""0.620"",""0.916""]","[0,1,1,1]",0,15,15,15,1,0,0,,,0,FALSE,,,,,,,,,,,,,,,,,,,,,,,,,,,,,,,
,6150d2ed1dc4cc1cdb2543bc,627c691daa577bac05652e73,2022-05-11_20h56.15.086,classification_task,2021.2.3,Win32,143.9677512,627c6715c52fd12f31907bcf,,,,,,,,,,,,,,,,,,,,,,,a,0,4.3612,"[""0.195"",""0.157"",""0.503"",""0.768""]","[0,1,1,1]",0,16,16,16,1,1,0,,,0,FALSE,,,,,,,,,,,,,,,,,,,,,,,,,,,,,,,
,6150d2ed1dc4cc1cdb2543bc,627c691daa577bac05652e73,2022-05-11_20h56.15.086,classification_task,2021.2.3,Win32,143.9677512,627c6715c52fd12f31907bcf,,,,,,,,,,,,,,,,,,,,,,,a,1,2.3303,"[""0.720"",""0.547"",""0.620"",""0.916""]","[0,1,1,1]",0,17,17,17,1,0,0,,,0,FALSE,,,,,,,,,,,,,,,,,,,,,,,,,,,,,,,
,6150d2ed1dc4cc1cdb2543bc,627c691daa577bac05652e73,2022-05-11_20h56.15.086,classification_task,2021.2.3,Win32,143.9677512,627c6715c52fd12f31907bcf,,,,,,,,,,,,,,,,,,,,,,,l,1,1.1361,"[""0.104"",""0.157"",""0.503"",""0.716""]","[1,1,1,0]",0,18,18,18,1,1,0,,,0,FALSE,,,,,,,,,,,,,,,,,,,,,,,,,,,,,,,
,6150d2ed1dc4cc1cdb2543bc,627c691daa577bac05652e73,2022-05-11_20h56.15.086,classification_task,2021.2.3,Win32,143.9677512,627c6715c52fd12f31907bcf,,,,,,,,,,,,,,,,,,,,,,,l,1,0.7923,"[""0.039"",""0.691"",""0.438"",""0.840""]","[1,0,1,1]",0,19,19,19,1,1,1,,,0,FALSE,,,,,,,,,,,,,,,,,,,,,,,,,,,,,,,
,6150d2ed1dc4cc1cdb2543bc,627c691daa577bac05652e73,2022-05-11_20h56.15.086,classification_task,2021.2.3,Win32,143.9677512,627c6715c52fd12f31907bcf,,,,,,,,,,,,,,,,,,,,,,,a,1,0.7158,"[""0.240"",""0.404"",""0.712"",""0.974""]","[1,1,0,1]",0,20,20,20,1,0,1,,,0,FALSE,,,,,,,,,,,,,,,,,,,,,,,,,,,,,,,
,6150d2ed1dc4cc1cdb2543bc,627c691daa577bac05652e73,2022-05-11_20h56.15.086,classification_task,2021.2.3,Win32,143.9677512,627c6715c52fd12f31907bcf,,,,,,,,,,,,,,,,,,,,,,,a,1,1.8144,"[""0.307"",""0.547"",""0.198"",""0.916""]","[1,1,0,1]",0,21,21,21,1,0,0,,,0,FALSE,,,,,,,,,,,,,,,,,,,,,,,,,,,,,,,
,6150d2ed1dc4cc1cdb2543bc,627c691daa577bac05652e73,2022-05-11_20h56.15.086,classification_task,2021.2.3,Win32,143.9677512,627c6715c52fd12f31907bcf,,,,,,,,,,,,,,,,,,,,,,,a,1,0.8962,"[""0.240"",""0.731"",""0.873"",""0.974""]","[1,0,1,1]",0,22,22,22,1,0,1,,,0,FALSE,,,,,,,,,,,,,,,,,,,,,,,,,,,,,,,
,6150d2ed1dc4cc1cdb2543bc,627c691daa577bac05652e73,2022-05-11_20h56.15.086,classification_task,2021.2.3,Win32,143.9677512,627c6715c52fd12f31907bcf,,,,,,,,,,,,,,,,,,,,,,,a,1,1.4274,"[""0.307"",""0.721"",""0.620"",""0.916""]","[1,0,1,1]",0,23,23,23,1,0,0,,,0,FALSE,,,,,,,,,,,,,,,,,,,,,,,,,,,,,,,
,6150d2ed1dc4cc1cdb2543bc,627c691daa577bac05652e73,2022-05-11_20h56.15.086,classification_task,2021.2.3,Win32,143.9677512,627c6715c52fd12f31907bcf,,,,,,,,,,,,,,,,,,,,,,,l,1,0.8364,"[""0.104"",""0.157"",""0.803"",""0.768""]","[1,1,0,1]",0,24,24,24,1,1,0,,,0,FALSE,,,,,,,,,,,,,,,,,,,,,,,,,,,,,,,
,6150d2ed1dc4cc1cdb2543bc,627c691daa577bac05652e73,2022-05-11_20h56.15.086,classification_task,2021.2.3,Win32,143.9677512,627c6715c52fd12f31907bcf,,,,,,,,,,,,,,,,,,,,,,,a,1,1.557,"[""0.716"",""0.404"",""0.873"",""0.974""]","[0,1,1,1]",0,25,25,25,1,0,1,,,0,FALSE,,,,,,,,,,,,,,,,,,,,,,,,,,,,,,,
,6150d2ed1dc4cc1cdb2543bc,627c691daa577bac05652e73,2022-05-11_20h56.15.086,classification_task,2021.2.3,Win32,143.9677512,627c6715c52fd12f31907bcf,,,,,,,,,,,,,,,,,,,,,,,a,0,2.9933,"[""0.198"",""0.371"",""0.438"",""0.840""]","[0,1,1,1]",0,26,26,26,1,1,1,,,0,FALSE,,,,,,,,,,,,,,,,,,,,,,,,,,,,,,,
,6150d2ed1dc4cc1cdb2543bc,627c691daa577bac05652e73,2022-05-11_20h56.15.086,classification_task,2021.2.3,Win32,143.9677512,627c6715c52fd12f31907bcf,,,,,,,,,,,,,,,,,,,,,,,l,1,1.1907,"[""0.104"",""0.195"",""0.503"",""0.768""]","[1,0,1,1]",0,27,27,27,1,1,0,,,0,FALSE,,,,,,,,,,,,,,,,,,,,,,,,,,,,,,,
,6150d2ed1dc4cc1cdb2543bc,627c691daa577bac05652e73,2022-05-11_20h56.15.086,classification_task,2021.2.3,Win32,143.9677512,627c6715c52fd12f31907bcf,,,,,,,,,,,,,,,,,,,,,,,a,1,2.7584,"[""0.307"",""0.547"",""0.620"",""0.716""]","[1,1,1,0]",0,28,28,28,1,0,0,,,0,FALSE,,,,,,,,,,,,,,,,,,,,,,,,,,,,,,,
,6150d2ed1dc4cc1cdb2543bc,627c691daa577bac05652e73,2022-05-11_20h56.15.086,classification_task,2021.2.3,Win32,143.9677512,627c6715c52fd12f31907bcf,,,,,,,,,,,,,,,,,,,,,,,l,1,0.6933,"[""0.039"",""0.371"",""0.720"",""0.840""]","[1,1,0,1]",0,29,29,29,1,1,1,,,0,FALSE,,,,,,,,,,,,,,,,,,,,,,,,,,,,,,,
,6150d2ed1dc4cc1cdb2543bc,627c691daa577bac05652e73,2022-05-11_20h56.15.086,classification_task,2021.2.3,Win32,143.9677512,627c6715c52fd12f31907bcf,,,,,,,,,,,,,,,,,,,,,,,a,1,0.844,"[""0.240"",""0.404"",""0.873"",""0.691""]","[1,1,1,0]",0,30,30,30,1,0,1,,,0,FALSE,,,,,,,,,,,,,,,,,,,,,,,,,,,,,,,
,6150d2ed1dc4cc1cdb2543bc,627c691daa577bac05652e73,2022-05-11_20h56.15.086,classification_task,2021.2.3,Win32,143.9677512,627c6715c52fd12f31907bcf,,,,,,,,,,,,,,,,,,,,,,,l,1,0.8193,"[""0.039"",""0.371"",""0.438"",""0.721""]","[1,1,1,0]",0,31,31,31,1,1,1,,,0,FALSE,,,,,,,,,,,,,,,,,,,,,,,,,,,,,,,
,6150d2ed1dc4cc1cdb2543bc,627c691daa577bac05652e73,2022-05-11_20h56.15.086,classification_task,2021.2.3,Win32,143.9677512,627c6715c52fd12f31907bcf,,,,,,,,,,,,,,,,,,,,,,,l,1,0.6482,"[""0.039"",""0.371"",""0.438"",""0.716""]","[1,1,1,0]",0,32,32,32,1,1,1,,,0,FALSE,,,,,,,,,,,,,,,,,,,,,,,,,,,,,,,
,6150d2ed1dc4cc1cdb2543bc,627c691daa577bac05652e73,2022-05-11_20h56.15.086,classification_task,2021.2.3,Win32,143.9677512,627c6715c52fd12f31907bcf,,,,,,,,,,,,,,,,,,,,,,,l,1,1.5247,"[""0.104"",""0.157"",""0.503"",""0.716""]","[1,1,1,0]",0,33,33,33,1,1,0,,,0,FALSE,,,,,,,,,,,,,,,,,,,,,,,,,,,,,,,
,6150d2ed1dc4cc1cdb2543bc,627c691daa577bac05652e73,2022-05-11_20h56.15.086,classification_task,2021.2.3,Win32,143.9677512,627c6715c52fd12f31907bcf,,,,,,,,,,,,,,,,,,,,,,,l,1,1.3897,"[""0.039"",""0.371"",""0.720"",""0.840""]","[1,1,0,1]",0,34,34,34,1,1,1,,,0,FALSE,,,,,,,,,,,,,,,,,,,,,,,,,,,,,,,
,6150d2ed1dc4cc1cdb2543bc,627c691daa577bac05652e73,2022-05-11_20h56.15.086,classification_task,2021.2.3,Win32,143.9677512,627c6715c52fd12f31907bcf,,,,,,,,,,,,,,,,,,,,,,,l,1,0.6276,"[""0.039"",""0.721"",""0.438"",""0.840""]","[1,0,1,1]",0,35,35,35,1,1,1,,,0,FALSE,,,,,,,,,,,,,,,,,,,,,,,,,,,,,,,
,6150d2ed1dc4cc1cdb2543bc,627c691daa577bac05652e73,2022-05-11_20h56.15.086,classification_task,2021.2.3,Win32,143.9677512,627c6715c52fd12f31907bcf,,,,,,,,,,,,,,,,,,,,,,,a,1,0.9205,"[""0.307"",""0.547"",""0.620"",""0.698""]","[1,1,1,0]",0,36,36,36,1,0,0,,,0,FALSE,,,,,,,,,,,,,,,,,,,,,,,,,,,,,,,
,6150d2ed1dc4cc1cdb2543bc,627c691daa577bac05652e73,2022-05-11_20h56.15.086,classification_task,2021.2.3,Win32,143.9677512,627c6715c52fd12f31907bcf,,,,,,,,,,,,,,,,,,,,,,,a,1,1.0144,"[""0.716"",""0.547"",""0.620"",""0.916""]","[0,1,1,1]",0,37,37,37,1,0,0,,,0,FALSE,,,,,,,,,,,,,,,,,,,,,,,,,,,,,,,
,6150d2ed1dc4cc1cdb2543bc,627c691daa577bac05652e73,2022-05-11_20h56.15.086,classification_task,2021.2.3,Win32,143.9677512,627c6715c52fd12f31907bcf,,,,,,,,,,,,,,,,,,,,,,,a,1,0.953,"[""0.240"",""0.712"",""0.873"",""0.974""]","[1,0,1,1]",0,38,38,38,1,0,1,,,0,FALSE,,,,,,,,,,,,,,,,,,,,,,,,,,,,,,,
,6150d2ed1dc4cc1cdb2543bc,627c691daa577bac05652e73,2022-05-11_20h56.15.086,classification_task,2021.2.3,Win32,143.9677512,627c6715c52fd12f31907bcf,,,,,,,,,,,,,,,,,,,,,,,l,1,1.032,"[""0.104"",""0.716"",""0.503"",""0.768""]","[1,0,1,1]",0,39,39,39,1,1,0,,,0,FALSE,,,,,,,,,,,,,,,,,,,,,,,,,,,,,,,
,6150d2ed1dc4cc1cdb2543bc,627c691daa577bac05652e73,2022-05-11_20h56.15.086,classification_task,2021.2.3,Win32,143.9677512,627c6715c52fd12f31907bcf,,,,,,,,,,,,,,,,,,,,,,,l,1,2.0205,"[""0.104"",""0.157"",""0.710"",""0.768""]","[1,1,0,1]",0,40,40,40,1,1,0,,,0,FALSE,,,,,,,,,,,,,,,,,,,,,,,,,,,,,,,
,6150d2ed1dc4cc1cdb2543bc,627c691daa577bac05652e73,2022-05-11_20h56.15.086,classification_task,2021.2.3,Win32,143.9677512,627c6715c52fd12f31907bcf,,,,,,,,,,,,,,,,,,,,,,,a,1,3.0808,"[""0.691"",""0.404"",""0.873"",""0.974""]","[0,1,1,1]",0,41,41,41,1,0,1,,,0,FALSE,,,,,,,,,,,,,,,,,,,,,,,,,,,,,,,
,6150d2ed1dc4cc1cdb2543bc,627c691daa577bac05652e73,2022-05-11_20h56.15.086,classification_task,2021.2.3,Win32,143.9677512,627c6715c52fd12f31907bcf,,,,,,,,,,,,,,,,,,,,,,,a,1,1.1606,"[""0.240"",""0.404"",""0.873"",""0.803""]","[1,1,1,0]",0,42,42,42,1,0,1,,,0,FALSE,,,,,,,,,,,,,,,,,,,,,,,,,,,,,,,
,6150d2ed1dc4cc1cdb2543bc,627c691daa577bac05652e73,2022-05-11_20h56.15.086,classification_task,2021.2.3,Win32,143.9677512,627c6715c52fd12f31907bcf,,,,,,,,,,,,,,,,,,,,,,,a,1,1.5229,"[""0.307"",""0.547"",""0.720"",""0.916""]","[1,1,0,1]",0,43,43,43,1,0,0,,,0,FALSE,,,,,,,,,,,,,,,,,,,,,,,,,,,,,,,
,6150d2ed1dc4cc1cdb2543bc,627c691daa577bac05652e73,2022-05-11_20h56.15.086,classification_task,2021.2.3,Win32,143.9677512,627c6715c52fd12f31907bcf,,,,,,,,,,,,,,,,,,,,,,,a,1,0.6769,"[""0.307"",""0.680"",""0.620"",""0.916""]","[1,0,1,1]",0,44,44,44,1,0,0,,,0,FALSE,,,,,,,,,,,,,,,,,,,,,,,,,,,,,,,
,6150d2ed1dc4cc1cdb2543bc,627c691daa577bac05652e73,2022-05-11_20h56.15.086,classification_task,2021.2.3,Win32,143.9677512,627c6715c52fd12f31907bcf,,,,,,,,,,,,,,,,,,,,,,,a,1,0.6685,"[""0.240"",""0.404"",""0.691"",""0.974""]","[1,1,0,1]",0,45,45,45,1,0,1,,,0,FALSE,,,,,,,,,,,,,,,,,,,,,,,,,,,,,,,
,6150d2ed1dc4cc1cdb2543bc,627c691daa577bac05652e73,2022-05-11_20h56.15.086,classification_task,2021.2.3,Win32,143.9677512,627c6715c52fd12f31907bcf,,,,,,,,,,,,,,,,,,,,,,,a,0,2.2421,"[""0.698"",""0.371"",""0.438"",""0.840""]","[0,1,1,1]",0,46,46,46,1,1,1,,,0,FALSE,,,,,,,,,,,,,,,,,,,,,,,,,,,,,,,
,6150d2ed1dc4cc1cdb2543bc,627c691daa577bac05652e73,2022-05-11_20h56.15.086,classification_task,2021.2.3,Win32,143.9677512,627c6715c52fd12f31907bcf,,,,,,,,,,,,,,,,,,,,,,,a,0,1.3678,"[""0.691"",""0.157"",""0.503"",""0.768""]","[0,1,1,1]",0,47,47,47,1,1,0,,,0,FALSE,,,,,,,,,,,,,,,,,,,,,,,,,,,,,,,
,6150d2ed1dc4cc1cdb2543bc,627c691daa577bac05652e73,2022-05-11_20h56.15.086,classification_task,2021.2.3,Win32,143.9677512,627c6715c52fd12f31907bcf,,,,,,,,,,,,,,,,,,,,,,,a,1,0.6914,"[""0.240"",""0.404"",""0.873"",""0.671""]","[1,1,1,0]",0,48,48,48,1,0,1,,,0,FALSE,,,,,,,,,,,,,,,,,,,,,,,,,,,,,,,
,6150d2ed1dc4cc1cdb2543bc,627c691daa577bac05652e73,2022-05-11_20h56.15.086,classification_task,2021.2.3,Win32,143.9677512,627c6715c52fd12f31907bcf,,,,,,,,,,,,,,,,,,,,,,,a,1,1.0061,"[""0.307"",""0.720"",""0.620"",""0.916""]","[1,0,1,1]",0,49,49,49,1,0,0,,,0,FALSE,,,,,,,,,,,,,,,,,,,,,,,,,,,,,,,
,6150d2ed1dc4cc1cdb2543bc,627c691daa577bac05652e73,2022-05-11_20h56.15.086,classification_task,2021.2.3,Win32,143.9677512,627c6715c52fd12f31907bcf,,,,,,,,,,,,,,,,,,,,,,,l,1,1.2298,"[""0.104"",""0.157"",""0.731"",""0.768""]","[1,1,0,1]",0,50,50,50,1,1,0,,,0,FALSE,,,,,,,,,,,,,,,,,,,,,,,,,,,,,,,
,6150d2ed1dc4cc1cdb2543bc,627c691daa577bac05652e73,2022-05-11_20h56.15.086,classification_task,2021.2.3,Win32,143.9677512,627c6715c52fd12f31907bcf,,,,,,,,,,,,,,,,,,,,,,,a,1,1.1526,"[""0.698"",""0.404"",""0.873"",""0.974""]","[0,1,1,1]",0,51,51,51,1,0,1,,,0,FALSE,,,,,,,,,,,,,,,,,,,,,,,,,,,,,,,
,6150d2ed1dc4cc1cdb2543bc,627c691daa577bac05652e73,2022-05-11_20h56.15.086,classification_task,2021.2.3,Win32,143.9677512,627c6715c52fd12f31907bcf,,,,,,,,,,,,,,,,,,,,,,,a,0,1.2539,"[""0.716"",""0.371"",""0.438"",""0.840""]","[0,1,1,1]",0,52,52,52,1,1,1,,,0,FALSE,,,,,,,,,,,,,,,,,,,,,,,,,,,,,,,
,6150d2ed1dc4cc1cdb2543bc,627c691daa577bac05652e73,2022-05-11_20h56.15.086,classification_task,2021.2.3,Win32,143.9677512,627c6715c52fd12f31907bcf,,,,,,,,,,,,,,,,,,,,,,,a,1,0.9245,"[""0.240"",""0.404"",""0.691"",""0.974""]","[1,1,0,1]",0,53,53,53,1,0,1,,,0,FALSE,,,,,,,,,,,,,,,,,,,,,,,,,,,,,,,
,6150d2ed1dc4cc1cdb2543bc,627c691daa577bac05652e73,2022-05-11_20h56.15.086,classification_task,2021.2.3,Win32,143.9677512,627c6715c52fd12f31907bcf,,,,,,,,,,,,,,,,,,,,,,,l,1,0.7787,"[""0.039"",""0.712"",""0.438"",""0.840""]","[1,0,1,1]",0,54,54,54,1,1,1,,,0,FALSE,,,,,,,,,,,,,,,,,,,,,,,,,,,,,,,
,6150d2ed1dc4cc1cdb2543bc,627c691daa577bac05652e73,2022-05-11_20h56.15.086,classification_task,2021.2.3,Win32,143.9677512,627c6715c52fd12f31907bcf,,,,,,,,,,,,,,,,,,,,,,,l,1,1.1754,"[""0.710"",""0.157"",""0.503"",""0.768""]","[0,1,1,1]",0,55,55,55,1,1,0,,,0,FALSE,,,,,,,,,,,,,,,,,,,,,,,,,,,,,,,
,6150d2ed1dc4cc1cdb2543bc,627c691daa577bac05652e73,2022-05-11_20h56.15.086,classification_task,2021.2.3,Win32,143.9677512,627c6715c52fd12f31907bcf,,,,,,,,,,,,,,,,,,,,,,,l,0,2.0563,"[""0.240"",""0.198"",""0.873"",""0.974""]","[1,0,1,1]",0,56,56,56,1,0,1,,,0,FALSE,,,,,,,,,,,,,,,,,,,,,,,,,,,,,,,
,6150d2ed1dc4cc1cdb2543bc,627c691daa577bac05652e73,2022-05-11_20h56.15.086,classification_task,2021.2.3,Win32,143.9677512,627c6715c52fd12f31907bcf,,,,,,,,,,,,,,,,,,,,,,,l,1,0.9126,"[""0.039"",""0.371"",""0.438"",""0.671""]","[1,1,1,0]",0,57,57,57,1,1,1,,,0,FALSE,,,,,,,,,,,,,,,,,,,,,,,,,,,,,,,
,6150d2ed1dc4cc1cdb2543bc,627c691daa577bac05652e73,2022-05-11_20h56.15.086,classification_task,2021.2.3,Win32,143.9677512,627c6715c52fd12f31907bcf,,,,,,,,,,,,,,,,,,,,,,,l,0,1.9888,"[""0.198"",""0.547"",""0.620"",""0.916""]","[0,1,1,1]",0,58,58,58,1,0,0,,,0,FALSE,,,,,,,,,,,,,,,,,,,,,,,,,,,,,,,
,6150d2ed1dc4cc1cdb2543bc,627c691daa577bac05652e73,2022-05-11_20h56.15.086,classification_task,2021.2.3,Win32,143.9677512,627c6715c52fd12f31907bcf,,,,,,,,,,,,,,,,,,,,,,,l,1,0.9742,"[""0.104"",""0.716"",""0.503"",""0.768""]","[1,0,1,1]",0,59,59,59,1,1,0,,,0,FALSE,,,,,,,,,,,,,,,,,,,,,,,,,,,,,,,
,6150d2ed1dc4cc1cdb2543bc,627c691daa577bac05652e73,2022-05-11_20h56.15.086,classification_task,2021.2.3,Win32,143.9677512,627c6715c52fd12f31907bcf,,,,,,,,,,,,,,,,,,,,,,,l,1,0.6665,"[""0.104"",""0.157"",""0.503"",""0.731""]","[1,1,1,0]",0,60,60,60,1,1,0,,,0,FALSE,,,,,,,,,,,,,,,,,,,,,,,,,,,,,,,
,6150d2ed1dc4cc1cdb2543bc,627c691daa577bac05652e73,2022-05-11_20h56.15.086,classification_task,2021.2.3,Win32,143.9677512,627c6715c52fd12f31907bcf,,,,,,,,,,,,,,,,,,,,,,,a,1,1.0665,"[""0.307"",""0.547"",""0.620"",""0.680""]","[1,1,1,0]",0,61,61,61,1,0,0,,,0,FALSE,,,,,,,,,,,,,,,,,,,,,,,,,,,,,,,
,6150d2ed1dc4cc1cdb2543bc,627c691daa577bac05652e73,2022-05-11_20h56.15.086,classification_task,2021.2.3,Win32,143.9677512,627c6715c52fd12f31907bcf,,,,,,,,,,,,,,,,,,,,,,,l,1,1.1518,"[""0.039"",""0.371"",""0.671"",""0.840""]","[1,1,0,1]",0,62,62,62,1,1,1,,,0,FALSE,,,,,,,,,,,,,,,,,,,,,,,,,,,,,,,
,6150d2ed1dc4cc1cdb2543bc,627c691daa577bac05652e73,2022-05-11_20h56.15.086,classification_task,2021.2.3,Win32,143.9677512,627c6715c52fd12f31907bcf,,,,,,,,,,,,,,,,,,,,,,,a,1,4.1315,"[""0.307"",""0.547"",""0.680"",""0.916""]","[1,1,0,1]",0,63,63,63,1,0,0,,,0,FALSE,,,,,,,,,,,,,,,,,,,,,,,,,,,,,,,
,6150d2ed1dc4cc1cdb2543bc,627c691daa577bac05652e73,2022-05-11_20h56.15.086,classification_task,2021.2.3,Win32,143.9677512,627c6715c52fd12f31907bcf,,,,,,,,,,,,,,,,,,,,,,,,,,,,,,,,,,,,,,,0, ,,0,10,174.2609,0,2,2,2,1,2,3,,,,,,,,,,,,,,,,,,
,6150d2ed1dc4cc1cdb2543bc,627c691daa577bac05652e73,2022-05-11_20h56.15.086,classification_task,2021.2.3,Win32,143.9677512,627c6715c52fd12f31907bcf,,,,,,,,,,,,,,,,,,,,,,,,,,,,,,,,,,,,,,,1,  ,,0,10,177.7614,0,2,2,2,1,2,3,,,,,,,,,,,,,,,,,,
,6150d2ed1dc4cc1cdb2543bc,627c691daa577bac05652e73,2022-05-11_20h56.15.086,classification_task,2021.2.3,Win32,143.9677512,627c6715c52fd12f31907bcf,,,,,,,,,,,,,,,,,,,,,,,,,,,,,,,,,,,,,,,2,  ,,0,8.086419753,180.5821,0,2,2,2,1,2,3,,,,,,,,,,,,,,,,,,
,6150d2ed1dc4cc1cdb2543bc,627c691daa577bac05652e73,2022-05-11_20h56.15.086,classification_task,2021.2.3,Win32,143.9677512,627c6715c52fd12f31907bcf,,,,,,,,,,,,,,,,,,,,,,,,,,,,,,,,,,,,,,,,,,,,,0,2,2,2,1,,3,,,,,,,,,,,,,,,,,,
,6150d2ed1dc4cc1cdb2543bc,627c691daa577bac05652e73,2022-05-11_20h56.15.086,classification_task,2021.2.3,Win32,143.9677512,627c6715c52fd12f31907bcf,,,,,,,,,,,,,,,,,,,,,,,,,,,,,,,,,,,,,,,,,,,,,,,,,,,,,I believe the aid is a competent performer,,0.7,0,4,972.4937,0,0,0,0,1,0,,,,,
,6150d2ed1dc4cc1cdb2543bc,627c691daa577bac05652e73,2022-05-11_20h56.15.086,classification_task,2021.2.3,Win32,143.9677512,627c6715c52fd12f31907bcf,,,,,,,,,,,,,,,,,,,,,,,,,,,,,,,,,,,,,,,,,,,,,,,,,,,,,I trust the aid,,0.7,0,4,975.8203,0,0,0,0,1,0,,,,,
,6150d2ed1dc4cc1cdb2543bc,627c691daa577bac05652e73,2022-05-11_20h56.15.086,classification_task,2021.2.3,Win32,143.9677512,627c6715c52fd12f31907bcf,,,,,,,,,,,,,,,,,,,,,,,,,,,,,,,,,,,,,,,,,,,,,,,,,,,,,I have confidence in the advice given by the aid,,0.7,0,5,980.956,0,0,0,0,1,0,,,,,
,6150d2ed1dc4cc1cdb2543bc,627c691daa577bac05652e73,2022-05-11_20h56.15.086,classification_task,2021.2.3,Win32,143.9677512,627c6715c52fd12f31907bcf,,,,,,,,,,,,,,,,,,,,,,,,,,,,,,,,,,,,,,,,,,,,,,,,,,,,,I can depend on the aid,,0.7,0,3,985.5559,0,0,0,0,1,0,,,,,
,6150d2ed1dc4cc1cdb2543bc,627c691daa577bac05652e73,2022-05-11_20h56.15.086,classification_task,2021.2.3,Win32,143.9677512,627c6715c52fd12f31907bcf,,,,,,,,,,,,,,,,,,,,,,,,,,,,,,,,,,,,,,,,,,,,,,,,,,,,,I can rely on the aid to behave in consistent ways,,0.7,0,4,993.1923,0,0,0,0,1,0,,,,,
,6150d2ed1dc4cc1cdb2543bc,627c691daa577bac05652e73,2022-05-11_20h56.15.086,classification_task,2021.2.3,Win32,143.9677512,627c6715c52fd12f31907bcf,,,,,,,,,,,,,,,,,,,,,,,,,,,,,,,,,,,,,,,,,,,,,,,,,,,,,I can rely on the aid to do its best every time I take its advice,,0.7,0,3,1002.0222,0,0,0,0,1,0,,,,,
,6150d2ed1dc4cc1cdb2543bc,627c691daa577bac05652e73,2022-05-11_20h56.15.086,classification_task,2021.2.3,Win32,143.9677512,627c6715c52fd12f31907bcf,,,,,,,,,,,,,,,,,,,,,,,,,,,,,,,,,,,,,,,,,,,,,,,,,,,,,"On trials you completed with assistance from the aid, how frequently did you think the aid was correct?",,0.7,0,85%,,0,0,0,0,1,0,,,,,
,6150d2ed1dc4cc1cdb2543bc,627c691daa577bac05652e73,2022-05-11_20h56.15.086,classification_task,2021.2.3,Win32,143.9677512,627c6715c52fd12f31907bcf,,,,,,,,,,,,,,,,,,,,,,,,,,,,,,,,,,,,,,,,,,,,,,,,,,,,,"On trials you completed without the aid, how frequently did you think you were correct?",,0.7,0,70%,,0,0,0,0,1,0,,,,,
,6150d2ed1dc4cc1cdb2543bc,627c691daa577bac05652e73,2022-05-11_20h56.15.086,classification_task,2021.2.3,Win32,143.9677512,627c6715c52fd12f31907bcf,,,,,,,,,,,,,,,,,,,,,,,,,,,,,,,,,,,,,,,,,,,,,,,,,,,,,,,,,,,0,0,0,0,1,,,,,,
,6150d2ed1dc4cc1cdb2543bc,627c691daa577bac05652e73,2022-05-11_20h56.15.086,classification_task,2021.2.3,Win32,143.9677512,627c6715c52fd12f31907bcf,,,,,,,,,,,,,,,,,,,,,,,,,,,,,,,,,,,,,,,,,,,,,,,,,,,,,,,,,,,,,,,,,space,14.1975,1058.8202,,
,6150d2ed1dc4cc1cdb2543bc,627c691daa577bac05652e73,2022-05-11_20h56.15.086,classification_task,2021.2.3,Win32,143.9677512,627c6715c52fd12f31907bcf,,,,,,,,,,,,,,,,,,,,,,,,,,,,,,,,,,,,,,,,,,,,,,,,,,,,,,,,,,,,,,,,,,,,"Mozilla/5.0 (Windows NT 10.0; Win64; x64) AppleWebKit/537.36 (KHTML, like Gecko) Chrome/99.0.4844.84 Safari/537.36 OPR/85.0.4341.79",
,6150d2ed1dc4cc1cdb2543bc,627c691daa577bac05652e73,2022-05-11_20h56.15.086,classification_task,2021.2.3,Win32,143.9677512,627c6715c52fd12f31907bcf,,,,,,,,,,,,,,,,,,,,,,,,,,,,,,,,,,,,,,,,,,,,,,,,,,,,,,,,,,,,,,,,,,,,,HIGHLIGHT
