usingWebGL,participant,session,date,expName,psychopyVersion,OS,frameRate,PROLIFIC_PID,STUDY_ID,SESSION_ID,signatures_friend,signatures_foe,band_ranges_top,band_ranges_bottom,formitemText,formtype,formundefined,formitemWidth,formindex,formresponse,formrt,key_resp_2.keys,key_resp_2.rt,tute_resp.keys,tute_resp.rt,tutorial.thisRepN,tutorial.thisTrialN,tutorial.thisN,tutorial.thisIndex,tutorial.ran,key_resp_4.keys,key_resp_4.rt,key_resp.keys,key_resp.corr,key_resp.rt,lines_presented,is_signal_presented,trials.thisRepN,trials.thisTrialN,trials.thisN,trials.thisIndex,trials.ran,vessel,active_band,lines,is_signal,supported_pos,catch_trial,debrief_formindex,debrief_formitemText,debrief_formtype,debrief_formitemWidth,debrief_formresponse,debrief_formrt,phases.thisRepN,phases.thisTrialN,phases.thisN,phases.thisIndex,phases.ran,phases.order,phase,key_resp_3.keys,trustitemText,trusttype,trustitemWidth,trustindex,trustresponse,trustrt,support_status.thisRepN,support_status.thisTrialN,support_status.thisN,support_status.thisIndex,support_status.ran,support_status.order,key_resp_5.keys,key_resp_5.rt,globalClockTime,userAgent
TRUE,6150f261fe1008f1821fc477,001,2022-04-28_20h12.18.643,classification_task,2021.2.3,Win32,59.96282305,6150f261fe1008f1821fc477,626b377229c10585ec392f8a,626b3b3dcbee662a42b28d23,,,,,,,,,,,,,,,,,,,,,,,,,,,,,,,,,,,,,,,,,,,,,,,,,,,,,,,,,,,,,,,,,,,,
,6150f261fe1008f1821fc477,001,2022-04-28_20h12.18.643,classification_task,2021.2.3,Win32,59.96282305,6150f261fe1008f1821fc477,626b377229c10585ec392f8a,626b3b3dcbee662a42b28d23,"[[""0.230"",""0.468"",""0.682"",""0.958""],[""0.193"",""0.345"",""0.794"",""0.890""]]","[[""0.080"",""0.272"",""0.556"",""0.739""],[""0.146"",""0.401"",""0.606"",""0.832""]]","[1,10]","[100,1000]",Video game experience,,,0.7,0,,,,,,,,,,,,,,,,,,,,,,,,,,,,,,,,,,,,,,,,,,,,,,,,,,,,,,,,,,,
,6150f261fe1008f1821fc477,001,2022-04-28_20h12.18.643,classification_task,2021.2.3,Win32,59.96282305,6150f261fe1008f1821fc477,626b377229c10585ec392f8a,626b3b3dcbee662a42b28d23,,,,,Approximately how many hours did you spend playing video games in the last week?,,,0.7,0,6,,,,,,,,,,,,,,,,,,,,,,,,,,,,,,,,,,,,,,,,,,,,,,,,,,,,,,,,,,
,6150f261fe1008f1821fc477,001,2022-04-28_20h12.18.643,classification_task,2021.2.3,Win32,59.96282305,6150f261fe1008f1821fc477,626b377229c10585ec392f8a,626b3b3dcbee662a42b28d23,,,,,"Which game did you play the most this year? (Enter ""None"" if you didn't play any)",,,0.7,0,Mario Kart,,,,,,,,,,,,,,,,,,,,,,,,,,,,,,,,,,,,,,,,,,,,,,,,,,,,,,,,,,
,6150f261fe1008f1821fc477,001,2022-04-28_20h12.18.643,classification_task,2021.2.3,Win32,59.96282305,6150f261fe1008f1821fc477,626b377229c10585ec392f8a,626b3b3dcbee662a42b28d23,,,,,Visual perception,,,0.7,0,,,,,,,,,,,,,,,,,,,,,,,,,,,,,,,,,,,,,,,,,,,,,,,,,,,,,,,,,,,
,6150f261fe1008f1821fc477,001,2022-04-28_20h12.18.643,classification_task,2021.2.3,Win32,59.96282305,6150f261fe1008f1821fc477,626b377229c10585ec392f8a,626b3b3dcbee662a42b28d23,,,,,Do you have any form of color blindness?,,,0.7,0,No,20.7918,,,,,,,,,,,,,,,,,,,,,,,,,,,,,,,,,,,,,,,,,,,,,,,,,,,,,,,,,
,6150f261fe1008f1821fc477,001,2022-04-28_20h12.18.643,classification_task,2021.2.3,Win32,59.96282305,6150f261fe1008f1821fc477,626b377229c10585ec392f8a,626b3b3dcbee662a42b28d23,,,,,Do you use software to change the colour temperature of your screen (e.g. f.lux)?,,,0.7,0,No,22.4154,,,,,,,,,,,,,,,,,,,,,,,,,,,,,,,,,,,,,,,,,,,,,,,,,,,,,,,,,
,6150f261fe1008f1821fc477,001,2022-04-28_20h12.18.643,classification_task,2021.2.3,Win32,59.96282305,6150f261fe1008f1821fc477,626b377229c10585ec392f8a,626b3b3dcbee662a42b28d23,,,,,,,,,,,,space,62.1463,space,5.9178,0,0,0,0,1,,,,,,,,,,,,,,,,,,,,,,,,,,,,,,,,,,,,,,,,,,,,,,,,
,6150f261fe1008f1821fc477,001,2022-04-28_20h12.18.643,classification_task,2021.2.3,Win32,59.96282305,6150f261fe1008f1821fc477,626b377229c10585ec392f8a,626b3b3dcbee662a42b28d23,,,,,,,,,,,,,,space,6.042,1,0,1,0,1,,,,,,,,,,,,,,,,,,,,,,,,,,,,,,,,,,,,,,,,,,,,,,,,
,6150f261fe1008f1821fc477,001,2022-04-28_20h12.18.643,classification_task,2021.2.3,Win32,59.96282305,6150f261fe1008f1821fc477,626b377229c10585ec392f8a,626b3b3dcbee662a42b28d23,,,,,,,,,,,,,,space,16.3727,2,0,2,0,1,,,,,,,,,,,,,,,,,,,,,,,,,,,,,,,,,,,,,,,,,,,,,,,,
,6150f261fe1008f1821fc477,001,2022-04-28_20h12.18.643,classification_task,2021.2.3,Win32,59.96282305,6150f261fe1008f1821fc477,626b377229c10585ec392f8a,626b3b3dcbee662a42b28d23,,,,,,,,,,,,,,space,14.2156,3,0,3,0,1,,,,,,,,,,,,,,,,,,,,,,,,,,,,,,,,,,,,,,,,,,,,,,,,
,6150f261fe1008f1821fc477,001,2022-04-28_20h12.18.643,classification_task,2021.2.3,Win32,59.96282305,6150f261fe1008f1821fc477,626b377229c10585ec392f8a,626b3b3dcbee662a42b28d23,,,,,,,,,,,,,,space,6.1201,4,0,4,0,1,,,,,,,,,,,,,,,,,,,,,,,,,,,,,,,,,,,,,,,,,,,,,,,,
,6150f261fe1008f1821fc477,001,2022-04-28_20h12.18.643,classification_task,2021.2.3,Win32,59.96282305,6150f261fe1008f1821fc477,626b377229c10585ec392f8a,626b3b3dcbee662a42b28d23,,,,,,,,,,,,,,,,,,,,,space,5.3497,l,0,3.791,"[""0.230"",""0.468"",""0.028"",""0.958""]","[1,1,0,1]",0,0,0,0,1,0,0,,,0,FALSE,,,,,,,,,,,,,,,,,,,,,,,,,,,,,,
,6150f261fe1008f1821fc477,001,2022-04-28_20h12.18.643,classification_task,2021.2.3,Win32,59.96282305,6150f261fe1008f1821fc477,626b377229c10585ec392f8a,626b3b3dcbee662a42b28d23,,,,,,,,,,,,,,,,,,,,,,,l,1,4.0799,"[""0.080"",""0.272"",""0.518"",""0.739""]","[1,1,0,1]",0,1,1,1,1,1,0,,,0,FALSE,,,,,,,,,,,,,,,,,,,,,,,,,,,,,,
,6150f261fe1008f1821fc477,001,2022-04-28_20h12.18.643,classification_task,2021.2.3,Win32,59.96282305,6150f261fe1008f1821fc477,626b377229c10585ec392f8a,626b3b3dcbee662a42b28d23,,,,,,,,,,,,,,,,,,,,,,,a,1,9.7214,"[""0.193"",""0.345"",""0.794"",""0.039""]","[1,1,1,0]",0,2,2,2,1,0,1,,,0,FALSE,,,,,,,,,,,,,,,,,,,,,,,,,,,,,,
,6150f261fe1008f1821fc477,001,2022-04-28_20h12.18.643,classification_task,2021.2.3,Win32,59.96282305,6150f261fe1008f1821fc477,626b377229c10585ec392f8a,626b3b3dcbee662a42b28d23,,,,,,,,,,,,,,,,,,,,,,,l,0,4.139,"[""0.230"",""0.468"",""0.682"",""0.039""]","[1,1,1,0]",0,3,3,3,1,0,0,,,0,FALSE,,,,,,,,,,,,,,,,,,,,,,,,,,,,,,
,6150f261fe1008f1821fc477,001,2022-04-28_20h12.18.643,classification_task,2021.2.3,Win32,59.96282305,6150f261fe1008f1821fc477,626b377229c10585ec392f8a,626b3b3dcbee662a42b28d23,,,,,,,,,,,,,,,,,,,,,,,l,1,3.7355,"[""0.080"",""0.518"",""0.556"",""0.739""]","[1,0,1,1]",0,4,4,4,1,1,0,,,0,FALSE,,,,,,,,,,,,,,,,,,,,,,,,,,,,,,
,6150f261fe1008f1821fc477,001,2022-04-28_20h12.18.643,classification_task,2021.2.3,Win32,59.96282305,6150f261fe1008f1821fc477,626b377229c10585ec392f8a,626b3b3dcbee662a42b28d23,,,,,,,,,,,,,,,,,,,,,,,a,0,6.5539,"[""0.512"",""0.272"",""0.556"",""0.739""]","[0,1,1,1]",0,5,5,5,1,1,0,,,0,FALSE,,,,,,,,,,,,,,,,,,,,,,,,,,,,,,
,6150f261fe1008f1821fc477,001,2022-04-28_20h12.18.643,classification_task,2021.2.3,Win32,59.96282305,6150f261fe1008f1821fc477,626b377229c10585ec392f8a,626b3b3dcbee662a42b28d23,,,,,,,,,,,,,,,,,,,,,,,l,1,6.5402,"[""0.146"",""0.401"",""0.606"",""0.046""]","[1,1,1,0]",0,6,6,6,1,1,1,,,0,FALSE,,,,,,,,,,,,,,,,,,,,,,,,,,,,,,
,6150f261fe1008f1821fc477,001,2022-04-28_20h12.18.643,classification_task,2021.2.3,Win32,59.96282305,6150f261fe1008f1821fc477,626b377229c10585ec392f8a,626b3b3dcbee662a42b28d23,,,,,,,,,,,,,,,,,,,,,,,a,1,6.0694,"[""0.193"",""0.345"",""0.034"",""0.890""]","[1,1,0,1]",0,7,7,7,1,0,1,,,0,FALSE,,,,,,,,,,,,,,,,,,,,,,,,,,,,,,
,6150f261fe1008f1821fc477,001,2022-04-28_20h12.18.643,classification_task,2021.2.3,Win32,59.96282305,6150f261fe1008f1821fc477,626b377229c10585ec392f8a,626b3b3dcbee662a42b28d23,,,,,,,,,,,,,,,,,,,,,,,l,1,4.7156,"[""0.146"",""0.401"",""0.046"",""0.832""]","[1,1,0,1]",0,8,8,8,1,1,1,,,0,FALSE,,,,,,,,,,,,,,,,,,,,,,,,,,,,,,
,6150f261fe1008f1821fc477,001,2022-04-28_20h12.18.643,classification_task,2021.2.3,Win32,59.96282305,6150f261fe1008f1821fc477,626b377229c10585ec392f8a,626b3b3dcbee662a42b28d23,,,,,,,,,,,,,,,,,,,,,,,l,0,4.1077,"[""0.028"",""0.468"",""0.682"",""0.958""]","[0,1,1,1]",0,9,9,9,1,0,0,,,0,FALSE,,,,,,,,,,,,,,,,,,,,,,,,,,,,,,
,6150f261fe1008f1821fc477,001,2022-04-28_20h12.18.643,classification_task,2021.2.3,Win32,59.96282305,6150f261fe1008f1821fc477,626b377229c10585ec392f8a,626b3b3dcbee662a42b28d23,,,,,,,,,,,,,,,,,,,,,,,l,1,5.5963,"[""0.080"",""0.272"",""0.556"",""0.046""]","[1,1,1,0]",0,10,10,10,1,1,0,,,0,FALSE,,,,,,,,,,,,,,,,,,,,,,,,,,,,,,
,6150f261fe1008f1821fc477,001,2022-04-28_20h12.18.643,classification_task,2021.2.3,Win32,59.96282305,6150f261fe1008f1821fc477,626b377229c10585ec392f8a,626b3b3dcbee662a42b28d23,,,,,,,,,,,,,,,,,,,,,,,a,1,6.1572,"[""0.230"",""0.509"",""0.682"",""0.958""]","[1,0,1,1]",0,11,11,11,1,0,0,,,0,FALSE,,,,,,,,,,,,,,,,,,,,,,,,,,,,,,
,6150f261fe1008f1821fc477,001,2022-04-28_20h12.18.643,classification_task,2021.2.3,Win32,59.96282305,6150f261fe1008f1821fc477,626b377229c10585ec392f8a,626b3b3dcbee662a42b28d23,,,,,,,,,,,,,,,,,,,,,,,l,0,5.3084,"[""0.193"",""0.506"",""0.794"",""0.890""]","[1,0,1,1]",0,12,12,12,1,0,1,,,0,FALSE,,,,,,,,,,,,,,,,,,,,,,,,,,,,,,
,6150f261fe1008f1821fc477,001,2022-04-28_20h12.18.643,classification_task,2021.2.3,Win32,59.96282305,6150f261fe1008f1821fc477,626b377229c10585ec392f8a,626b3b3dcbee662a42b28d23,,,,,,,,,,,,,,,,,,,,,,,l,1,2.5626,"[""0.923"",""0.401"",""0.606"",""0.832""]","[0,1,1,1]",0,13,13,13,1,1,1,,,0,FALSE,,,,,,,,,,,,,,,,,,,,,,,,,,,,,,
,6150f261fe1008f1821fc477,001,2022-04-28_20h12.18.643,classification_task,2021.2.3,Win32,59.96282305,6150f261fe1008f1821fc477,626b377229c10585ec392f8a,626b3b3dcbee662a42b28d23,,,,,,,,,,,,,,,,,,,,,,,l,1,4.5093,"[""0.146"",""0.034"",""0.606"",""0.832""]","[1,0,1,1]",0,14,14,14,1,1,1,,,0,FALSE,,,,,,,,,,,,,,,,,,,,,,,,,,,,,,
,6150f261fe1008f1821fc477,001,2022-04-28_20h12.18.643,classification_task,2021.2.3,Win32,59.96282305,6150f261fe1008f1821fc477,626b377229c10585ec392f8a,626b3b3dcbee662a42b28d23,,,,,,,,,,,,,,,,,,,,,,,a,1,3.8342,"[""0.519"",""0.345"",""0.794"",""0.890""]","[0,1,1,1]",0,15,15,15,1,0,1,,,0,FALSE,,,,,,,,,,,,,,,,,,,,,,,,,,,,,,
,6150f261fe1008f1821fc477,001,2022-04-28_20h12.18.643,classification_task,2021.2.3,Win32,59.96282305,6150f261fe1008f1821fc477,626b377229c10585ec392f8a,626b3b3dcbee662a42b28d23,,,,,,,,,,,,,,,,,,,,,,,l,1,3.2232,"[""0.146"",""0.401"",""0.606"",""0.512""]","[1,1,1,0]",0,16,16,16,1,1,1,,,0,FALSE,,,,,,,,,,,,,,,,,,,,,,,,,,,,,,
,6150f261fe1008f1821fc477,001,2022-04-28_20h12.18.643,classification_task,2021.2.3,Win32,59.96282305,6150f261fe1008f1821fc477,626b377229c10585ec392f8a,626b3b3dcbee662a42b28d23,,,,,,,,,,,,,,,,,,,,,,,a,1,4.0055,"[""0.230"",""0.509"",""0.682"",""0.958""]","[1,0,1,1]",0,17,17,17,1,0,0,,,0,FALSE,,,,,,,,,,,,,,,,,,,,,,,,,,,,,,
,6150f261fe1008f1821fc477,001,2022-04-28_20h12.18.643,classification_task,2021.2.3,Win32,59.96282305,6150f261fe1008f1821fc477,626b377229c10585ec392f8a,626b3b3dcbee662a42b28d23,,,,,,,,,,,,,,,,,,,,,,,l,1,4.3552,"[""0.080"",""0.272"",""0.556"",""0.046""]","[1,1,1,0]",0,18,18,18,1,1,0,,,0,FALSE,,,,,,,,,,,,,,,,,,,,,,,,,,,,,,
,6150f261fe1008f1821fc477,001,2022-04-28_20h12.18.643,classification_task,2021.2.3,Win32,59.96282305,6150f261fe1008f1821fc477,626b377229c10585ec392f8a,626b3b3dcbee662a42b28d23,,,,,,,,,,,,,,,,,,,,,,,a,1,3.2931,"[""0.193"",""0.345"",""0.310"",""0.890""]","[1,1,0,1]",0,19,19,19,1,0,1,,,0,FALSE,,,,,,,,,,,,,,,,,,,,,,,,,,,,,,
,6150f261fe1008f1821fc477,001,2022-04-28_20h12.18.643,classification_task,2021.2.3,Win32,59.96282305,6150f261fe1008f1821fc477,626b377229c10585ec392f8a,626b3b3dcbee662a42b28d23,,,,,,,,,,,,,,,,,,,,,,,a,1,4.7902,"[""0.038"",""0.345"",""0.794"",""0.890""]","[0,1,1,1]",0,20,20,20,1,0,1,,,0,FALSE,,,,,,,,,,,,,,,,,,,,,,,,,,,,,,
,6150f261fe1008f1821fc477,001,2022-04-28_20h12.18.643,classification_task,2021.2.3,Win32,59.96282305,6150f261fe1008f1821fc477,626b377229c10585ec392f8a,626b3b3dcbee662a42b28d23,,,,,,,,,,,,,,,,,,,,,,,a,1,4.0905,"[""0.193"",""0.046"",""0.794"",""0.890""]","[1,0,1,1]",0,21,21,21,1,0,1,,,0,FALSE,,,,,,,,,,,,,,,,,,,,,,,,,,,,,,
,6150f261fe1008f1821fc477,001,2022-04-28_20h12.18.643,classification_task,2021.2.3,Win32,59.96282305,6150f261fe1008f1821fc477,626b377229c10585ec392f8a,626b3b3dcbee662a42b28d23,,,,,,,,,,,,,,,,,,,,,,,l,1,4.6171,"[""0.080"",""0.646"",""0.556"",""0.739""]","[1,0,1,1]",0,22,22,22,1,1,0,,,0,FALSE,,,,,,,,,,,,,,,,,,,,,,,,,,,,,,
,6150f261fe1008f1821fc477,001,2022-04-28_20h12.18.643,classification_task,2021.2.3,Win32,59.96282305,6150f261fe1008f1821fc477,626b377229c10585ec392f8a,626b3b3dcbee662a42b28d23,,,,,,,,,,,,,,,,,,,,,,,l,0,3.668,"[""0.230"",""0.468"",""0.682"",""0.310""]","[1,1,1,0]",0,23,23,23,1,0,0,,,0,FALSE,,,,,,,,,,,,,,,,,,,,,,,,,,,,,,
,6150f261fe1008f1821fc477,001,2022-04-28_20h12.18.643,classification_task,2021.2.3,Win32,59.96282305,6150f261fe1008f1821fc477,626b377229c10585ec392f8a,626b3b3dcbee662a42b28d23,,,,,,,,,,,,,,,,,,,,,,,l,1,5.7687,"[""0.080"",""0.272"",""0.035"",""0.739""]","[1,1,0,1]",0,24,24,24,1,1,0,,,0,FALSE,,,,,,,,,,,,,,,,,,,,,,,,,,,,,,
,6150f261fe1008f1821fc477,001,2022-04-28_20h12.18.643,classification_task,2021.2.3,Win32,59.96282305,6150f261fe1008f1821fc477,626b377229c10585ec392f8a,626b3b3dcbee662a42b28d23,,,,,,,,,,,,,,,,,,,,,,,l,1,2.7138,"[""0.146"",""0.401"",""0.518"",""0.832""]","[1,1,0,1]",0,25,25,25,1,1,1,,,0,FALSE,,,,,,,,,,,,,,,,,,,,,,,,,,,,,,
,6150f261fe1008f1821fc477,001,2022-04-28_20h12.18.643,classification_task,2021.2.3,Win32,59.96282305,6150f261fe1008f1821fc477,626b377229c10585ec392f8a,626b3b3dcbee662a42b28d23,,,,,,,,,,,,,,,,,,,,,,,l,1,2.9474,"[""0.509"",""0.401"",""0.606"",""0.832""]","[0,1,1,1]",0,26,26,26,1,1,1,,,0,FALSE,,,,,,,,,,,,,,,,,,,,,,,,,,,,,,
,6150f261fe1008f1821fc477,001,2022-04-28_20h12.18.643,classification_task,2021.2.3,Win32,59.96282305,6150f261fe1008f1821fc477,626b377229c10585ec392f8a,626b3b3dcbee662a42b28d23,,,,,,,,,,,,,,,,,,,,,,,l,1,5.2968,"[""0.038"",""0.272"",""0.556"",""0.739""]","[0,1,1,1]",0,27,27,27,1,1,0,,,0,FALSE,,,,,,,,,,,,,,,,,,,,,,,,,,,,,,
,6150f261fe1008f1821fc477,001,2022-04-28_20h12.18.643,classification_task,2021.2.3,Win32,59.96282305,6150f261fe1008f1821fc477,626b377229c10585ec392f8a,626b3b3dcbee662a42b28d23,,,,,,,,,,,,,,,,,,,,,,,a,1,2.3733,"[""0.230"",""0.468"",""0.509"",""0.958""]","[1,1,0,1]",0,28,28,28,1,0,0,,,0,FALSE,,,,,,,,,,,,,,,,,,,,,,,,,,,,,,
,6150f261fe1008f1821fc477,001,2022-04-28_20h12.18.643,classification_task,2021.2.3,Win32,59.96282305,6150f261fe1008f1821fc477,626b377229c10585ec392f8a,626b3b3dcbee662a42b28d23,,,,,,,,,,,,,,,,,,,,,,,l,0,5.3618,"[""0.310"",""0.468"",""0.682"",""0.958""]","[0,1,1,1]",0,29,29,29,1,0,0,,,0,FALSE,,,,,,,,,,,,,,,,,,,,,,,,,,,,,,
,6150f261fe1008f1821fc477,001,2022-04-28_20h12.18.643,classification_task,2021.2.3,Win32,59.96282305,6150f261fe1008f1821fc477,626b377229c10585ec392f8a,626b3b3dcbee662a42b28d23,,,,,,,,,,,,,,,,,,,,,,,l,1,8.3643,"[""0.146"",""0.035"",""0.606"",""0.832""]","[1,0,1,1]",0,30,30,30,1,1,1,,,0,FALSE,,,,,,,,,,,,,,,,,,,,,,,,,,,,,,
,6150f261fe1008f1821fc477,001,2022-04-28_20h12.18.643,classification_task,2021.2.3,Win32,59.96282305,6150f261fe1008f1821fc477,626b377229c10585ec392f8a,626b3b3dcbee662a42b28d23,,,,,,,,,,,,,,,,,,,,,,,a,1,4.7044,"[""0.193"",""0.345"",""0.794"",""0.522""]","[1,1,1,0]",0,31,31,31,1,0,1,,,0,FALSE,,,,,,,,,,,,,,,,,,,,,,,,,,,,,,
,6150f261fe1008f1821fc477,001,2022-04-28_20h12.18.643,classification_task,2021.2.3,Win32,59.96282305,6150f261fe1008f1821fc477,626b377229c10585ec392f8a,626b3b3dcbee662a42b28d23,,,,,,,,,,,,,,,,,,,,,,,a,0,1.5848,"[""0.146"",""0.401"",""0.606"",""0.923""]","[1,1,1,0]",0,32,32,32,1,1,1,,,0,FALSE,,,,,,,,,,,,,,,,,,,,,,,,,,,,,,
,6150f261fe1008f1821fc477,001,2022-04-28_20h12.18.643,classification_task,2021.2.3,Win32,59.96282305,6150f261fe1008f1821fc477,626b377229c10585ec392f8a,626b3b3dcbee662a42b28d23,,,,,,,,,,,,,,,,,,,,,,,l,0,5.3193,"[""0.230"",""0.468"",""0.682"",""0.518""]","[1,1,1,0]",0,33,33,33,1,0,0,,,0,FALSE,,,,,,,,,,,,,,,,,,,,,,,,,,,,,,
,6150f261fe1008f1821fc477,001,2022-04-28_20h12.18.643,classification_task,2021.2.3,Win32,59.96282305,6150f261fe1008f1821fc477,626b377229c10585ec392f8a,626b3b3dcbee662a42b28d23,,,,,,,,,,,,,,,,,,,,,,,l,0,1.2367,"[""0.193"",""0.345"",""0.794"",""0.040""]","[1,1,1,0]",0,34,34,34,1,0,1,,,0,FALSE,,,,,,,,,,,,,,,,,,,,,,,,,,,,,,
,6150f261fe1008f1821fc477,001,2022-04-28_20h12.18.643,classification_task,2021.2.3,Win32,59.96282305,6150f261fe1008f1821fc477,626b377229c10585ec392f8a,626b3b3dcbee662a42b28d23,,,,,,,,,,,,,,,,,,,,,,,a,0,0.443,"[""0.034"",""0.401"",""0.606"",""0.832""]","[0,1,1,1]",0,35,35,35,1,1,1,,,0,FALSE,,,,,,,,,,,,,,,,,,,,,,,,,,,,,,
,6150f261fe1008f1821fc477,001,2022-04-28_20h12.18.643,classification_task,2021.2.3,Win32,59.96282305,6150f261fe1008f1821fc477,626b377229c10585ec392f8a,626b3b3dcbee662a42b28d23,,,,,,,,,,,,,,,,,,,,,,,a,0,1.2682,"[""0.146"",""0.506"",""0.606"",""0.832""]","[1,0,1,1]",0,36,36,36,1,1,1,,,0,FALSE,,,,,,,,,,,,,,,,,,,,,,,,,,,,,,
,6150f261fe1008f1821fc477,001,2022-04-28_20h12.18.643,classification_task,2021.2.3,Win32,59.96282305,6150f261fe1008f1821fc477,626b377229c10585ec392f8a,626b3b3dcbee662a42b28d23,,,,,,,,,,,,,,,,,,,,,,,l,1,0.5628,"[""0.080"",""0.028"",""0.556"",""0.739""]","[1,0,1,1]",0,37,37,37,1,1,0,,,0,FALSE,,,,,,,,,,,,,,,,,,,,,,,,,,,,,,
,6150f261fe1008f1821fc477,001,2022-04-28_20h12.18.643,classification_task,2021.2.3,Win32,59.96282305,6150f261fe1008f1821fc477,626b377229c10585ec392f8a,626b3b3dcbee662a42b28d23,,,,,,,,,,,,,,,,,,,,,,,a,0,1.8574,"[""0.080"",""0.272"",""0.556"",""0.518""]","[1,1,1,0]",0,38,38,38,1,1,0,,,0,FALSE,,,,,,,,,,,,,,,,,,,,,,,,,,,,,,
,6150f261fe1008f1821fc477,001,2022-04-28_20h12.18.643,classification_task,2021.2.3,Win32,59.96282305,6150f261fe1008f1821fc477,626b377229c10585ec392f8a,626b3b3dcbee662a42b28d23,,,,,,,,,,,,,,,,,,,,,,,l,0,0.5821,"[""0.230"",""0.468"",""0.646"",""0.958""]","[1,1,0,1]",0,39,39,39,1,0,0,,,0,FALSE,,,,,,,,,,,,,,,,,,,,,,,,,,,,,,
,6150f261fe1008f1821fc477,001,2022-04-28_20h12.18.643,classification_task,2021.2.3,Win32,59.96282305,6150f261fe1008f1821fc477,626b377229c10585ec392f8a,626b3b3dcbee662a42b28d23,,,,,,,,,,,,,,,,,,,,,,,a,1,0.6996,"[""0.193"",""0.512"",""0.794"",""0.890""]","[1,0,1,1]",0,40,40,40,1,0,1,,,0,FALSE,,,,,,,,,,,,,,,,,,,,,,,,,,,,,,
,6150f261fe1008f1821fc477,001,2022-04-28_20h12.18.643,classification_task,2021.2.3,Win32,59.96282305,6150f261fe1008f1821fc477,626b377229c10585ec392f8a,626b3b3dcbee662a42b28d23,,,,,,,,,,,,,,,,,,,,,,,a,0,0.2689,"[""0.080"",""0.272"",""0.310"",""0.739""]","[1,1,0,1]",0,41,41,41,1,1,0,,,0,FALSE,,,,,,,,,,,,,,,,,,,,,,,,,,,,,,
,6150f261fe1008f1821fc477,001,2022-04-28_20h12.18.643,classification_task,2021.2.3,Win32,59.96282305,6150f261fe1008f1821fc477,626b377229c10585ec392f8a,626b3b3dcbee662a42b28d23,,,,,,,,,,,,,,,,,,,,,,,l,0,0.3255,"[""0.230"",""0.034"",""0.682"",""0.958""]","[1,0,1,1]",0,42,42,42,1,0,0,,,0,FALSE,,,,,,,,,,,,,,,,,,,,,,,,,,,,,,
,6150f261fe1008f1821fc477,001,2022-04-28_20h12.18.643,classification_task,2021.2.3,Win32,59.96282305,6150f261fe1008f1821fc477,626b377229c10585ec392f8a,626b3b3dcbee662a42b28d23,,,,,,,,,,,,,,,,,,,,,,,l,1,0.2499,"[""0.146"",""0.401"",""0.046"",""0.832""]","[1,1,0,1]",0,43,43,43,1,1,1,,,0,FALSE,,,,,,,,,,,,,,,,,,,,,,,,,,,,,,
,6150f261fe1008f1821fc477,001,2022-04-28_20h12.18.643,classification_task,2021.2.3,Win32,59.96282305,6150f261fe1008f1821fc477,626b377229c10585ec392f8a,626b3b3dcbee662a42b28d23,,,,,,,,,,,,,,,,,,,,,,,a,1,0.3417,"[""0.046"",""0.345"",""0.794"",""0.890""]","[0,1,1,1]",0,44,44,44,1,0,1,,,0,FALSE,,,,,,,,,,,,,,,,,,,,,,,,,,,,,,
,6150f261fe1008f1821fc477,001,2022-04-28_20h12.18.643,classification_task,2021.2.3,Win32,59.96282305,6150f261fe1008f1821fc477,626b377229c10585ec392f8a,626b3b3dcbee662a42b28d23,,,,,,,,,,,,,,,,,,,,,,,a,1,0.309,"[""0.519"",""0.468"",""0.682"",""0.958""]","[0,1,1,1]",0,45,45,45,1,0,0,,,0,FALSE,,,,,,,,,,,,,,,,,,,,,,,,,,,,,,
,6150f261fe1008f1821fc477,001,2022-04-28_20h12.18.643,classification_task,2021.2.3,Win32,59.96282305,6150f261fe1008f1821fc477,626b377229c10585ec392f8a,626b3b3dcbee662a42b28d23,,,,,,,,,,,,,,,,,,,,,,,a,0,0.3001,"[""0.028"",""0.272"",""0.556"",""0.739""]","[0,1,1,1]",0,46,46,46,1,1,0,,,0,FALSE,,,,,,,,,,,,,,,,,,,,,,,,,,,,,,
,6150f261fe1008f1821fc477,001,2022-04-28_20h12.18.643,classification_task,2021.2.3,Win32,59.96282305,6150f261fe1008f1821fc477,626b377229c10585ec392f8a,626b3b3dcbee662a42b28d23,,,,,,,,,,,,,,,,,,,,,,,l,0,0.2743,"[""0.193"",""0.345"",""0.509"",""0.890""]","[1,1,0,1]",0,47,47,47,1,0,1,,,0,FALSE,,,,,,,,,,,,,,,,,,,,,,,,,,,,,,
,6150f261fe1008f1821fc477,001,2022-04-28_20h12.18.643,classification_task,2021.2.3,Win32,59.96282305,6150f261fe1008f1821fc477,626b377229c10585ec392f8a,626b3b3dcbee662a42b28d23,,,,,,,,,,,,,,,,,,,,,,,a,0,0.3731,"[""0.080"",""0.046"",""0.556"",""0.739""]","[1,0,1,1]",0,48,48,48,1,1,0,,,0,FALSE,,,,,,,,,,,,,,,,,,,,,,,,,,,,,,
,6150f261fe1008f1821fc477,001,2022-04-28_20h12.18.643,classification_task,2021.2.3,Win32,59.96282305,6150f261fe1008f1821fc477,626b377229c10585ec392f8a,626b3b3dcbee662a42b28d23,,,,,,,,,,,,,,,,,,,,,,,l,0,0.3842,"[""0.193"",""0.518"",""0.794"",""0.890""]","[1,0,1,1]",0,49,49,49,1,0,1,,,0,FALSE,,,,,,,,,,,,,,,,,,,,,,,,,,,,,,
,6150f261fe1008f1821fc477,001,2022-04-28_20h12.18.643,classification_task,2021.2.3,Win32,59.96282305,6150f261fe1008f1821fc477,626b377229c10585ec392f8a,626b3b3dcbee662a42b28d23,,,,,,,,,,,,,,,,,,,,,,,a,0,0.0426,"[""0.146"",""0.401"",""0.646"",""0.832""]","[1,1,0,1]",0,50,50,50,1,1,1,,,0,FALSE,,,,,,,,,,,,,,,,,,,,,,,,,,,,,,
,6150f261fe1008f1821fc477,001,2022-04-28_20h12.18.643,classification_task,2021.2.3,Win32,59.96282305,6150f261fe1008f1821fc477,626b377229c10585ec392f8a,626b3b3dcbee662a42b28d23,,,,,,,,,,,,,,,,,,,,,,,l,1,0.3256,"[""0.080"",""0.272"",""0.039"",""0.739""]","[1,1,0,1]",0,51,51,51,1,1,0,,,0,FALSE,,,,,,,,,,,,,,,,,,,,,,,,,,,,,,
,6150f261fe1008f1821fc477,001,2022-04-28_20h12.18.643,classification_task,2021.2.3,Win32,59.96282305,6150f261fe1008f1821fc477,626b377229c10585ec392f8a,626b3b3dcbee662a42b28d23,,,,,,,,,,,,,,,,,,,,,,,l,0,0.2993,"[""0.230"",""0.028"",""0.682"",""0.958""]","[1,0,1,1]",0,52,52,52,1,0,0,,,0,FALSE,,,,,,,,,,,,,,,,,,,,,,,,,,,,,,
,6150f261fe1008f1821fc477,001,2022-04-28_20h12.18.643,classification_task,2021.2.3,Win32,59.96282305,6150f261fe1008f1821fc477,626b377229c10585ec392f8a,626b3b3dcbee662a42b28d23,,,,,,,,,,,,,,,,,,,,,,,a,0,0.3485,"[""0.046"",""0.272"",""0.556"",""0.739""]","[0,1,1,1]",0,53,53,53,1,1,0,,,0,FALSE,,,,,,,,,,,,,,,,,,,,,,,,,,,,,,
,6150f261fe1008f1821fc477,001,2022-04-28_20h12.18.643,classification_task,2021.2.3,Win32,59.96282305,6150f261fe1008f1821fc477,626b377229c10585ec392f8a,626b3b3dcbee662a42b28d23,,,,,,,,,,,,,,,,,,,,,,,a,1,0.3201,"[""0.230"",""0.468"",""0.682"",""0.040""]","[1,1,1,0]",0,54,54,54,1,0,0,,,0,FALSE,,,,,,,,,,,,,,,,,,,,,,,,,,,,,,
,6150f261fe1008f1821fc477,001,2022-04-28_20h12.18.643,classification_task,2021.2.3,Win32,59.96282305,6150f261fe1008f1821fc477,626b377229c10585ec392f8a,626b3b3dcbee662a42b28d23,,,,,,,,,,,,,,,,,,,,,,,l,1,0.3478,"[""0.146"",""0.401"",""0.606"",""0.518""]","[1,1,1,0]",0,55,55,55,1,1,1,,,0,FALSE,,,,,,,,,,,,,,,,,,,,,,,,,,,,,,
,6150f261fe1008f1821fc477,001,2022-04-28_20h12.18.643,classification_task,2021.2.3,Win32,59.96282305,6150f261fe1008f1821fc477,626b377229c10585ec392f8a,626b3b3dcbee662a42b28d23,,,,,,,,,,,,,,,,,,,,,,,l,0,0.7184,"[""0.230"",""0.468"",""0.034"",""0.958""]","[1,1,0,1]",0,56,56,56,1,0,0,,,0,FALSE,,,,,,,,,,,,,,,,,,,,,,,,,,,,,,
,6150f261fe1008f1821fc477,001,2022-04-28_20h12.18.643,classification_task,2021.2.3,Win32,59.96282305,6150f261fe1008f1821fc477,626b377229c10585ec392f8a,626b3b3dcbee662a42b28d23,,,,,,,,,,,,,,,,,,,,,,,a,1,0.7325,"[""0.193"",""0.345"",""0.040"",""0.890""]","[1,1,0,1]",0,57,57,57,1,0,1,,,0,FALSE,,,,,,,,,,,,,,,,,,,,,,,,,,,,,,
,6150f261fe1008f1821fc477,001,2022-04-28_20h12.18.643,classification_task,2021.2.3,Win32,59.96282305,6150f261fe1008f1821fc477,626b377229c10585ec392f8a,626b3b3dcbee662a42b28d23,,,,,,,,,,,,,,,,,,,,,,,a,0,0.2926,"[""0.146"",""0.923"",""0.606"",""0.832""]","[1,0,1,1]",0,58,58,58,1,1,1,,,0,FALSE,,,,,,,,,,,,,,,,,,,,,,,,,,,,,,
,6150f261fe1008f1821fc477,001,2022-04-28_20h12.18.643,classification_task,2021.2.3,Win32,59.96282305,6150f261fe1008f1821fc477,626b377229c10585ec392f8a,626b3b3dcbee662a42b28d23,,,,,,,,,,,,,,,,,,,,,,,l,0,0.2914,"[""0.028"",""0.345"",""0.794"",""0.890""]","[0,1,1,1]",0,59,59,59,1,0,1,,,0,FALSE,,,,,,,,,,,,,,,,,,,,,,,,,,,,,,
,6150f261fe1008f1821fc477,001,2022-04-28_20h12.18.643,classification_task,2021.2.3,Win32,59.96282305,6150f261fe1008f1821fc477,626b377229c10585ec392f8a,626b3b3dcbee662a42b28d23,,,,,,,,,,,,,,,,,,,,,,,a,1,0.0263,"[""0.193"",""0.345"",""0.794"",""0.518""]","[1,1,1,0]",0,60,60,60,1,0,1,,,0,FALSE,,,,,,,,,,,,,,,,,,,,,,,,,,,,,,
,6150f261fe1008f1821fc477,001,2022-04-28_20h12.18.643,classification_task,2021.2.3,Win32,59.96282305,6150f261fe1008f1821fc477,626b377229c10585ec392f8a,626b3b3dcbee662a42b28d23,,,,,,,,,,,,,,,,,,,,,,,a,1,0.0019,"[""0.519"",""0.468"",""0.682"",""0.958""]","[0,1,1,1]",0,61,61,61,1,0,0,,,0,FALSE,,,,,,,,,,,,,,,,,,,,,,,,,,,,,,
,6150f261fe1008f1821fc477,001,2022-04-28_20h12.18.643,classification_task,2021.2.3,Win32,59.96282305,6150f261fe1008f1821fc477,626b377229c10585ec392f8a,626b3b3dcbee662a42b28d23,,,,,,,,,,,,,,,,,,,,,,,l,1,0.4118,"[""0.038"",""0.401"",""0.606"",""0.832""]","[0,1,1,1]",0,62,62,62,1,1,1,,,0,FALSE,,,,,,,,,,,,,,,,,,,,,,,,,,,,,,
,6150f261fe1008f1821fc477,001,2022-04-28_20h12.18.643,classification_task,2021.2.3,Win32,59.96282305,6150f261fe1008f1821fc477,626b377229c10585ec392f8a,626b3b3dcbee662a42b28d23,,,,,,,,,,,,,,,,,,,,,,,l,1,0.2564,"[""0.080"",""0.272"",""0.556"",""0.310""]","[1,1,1,0]",0,63,63,63,1,1,0,,,0,FALSE,,,,,,,,,,,,,,,,,,,,,,,,,,,,,,
,6150f261fe1008f1821fc477,001,2022-04-28_20h12.18.643,classification_task,2021.2.3,Win32,59.96282305,6150f261fe1008f1821fc477,626b377229c10585ec392f8a,626b3b3dcbee662a42b28d23,,,,,,,,,,,,,,,,,,,,,,,,,,,,,,,,,,,,,,,0, ,,0,0,391.3261,0,0,0,0,1,2,1,,,,,,,,,,,,,,,,,
,6150f261fe1008f1821fc477,001,2022-04-28_20h12.18.643,classification_task,2021.2.3,Win32,59.96282305,6150f261fe1008f1821fc477,626b377229c10585ec392f8a,626b3b3dcbee662a42b28d23,,,,,,,,,,,,,,,,,,,,,,,,,,,,,,,,,,,,,,,1,  ,,0,5,394.4596,0,0,0,0,1,2,1,,,,,,,,,,,,,,,,,
,6150f261fe1008f1821fc477,001,2022-04-28_20h12.18.643,classification_task,2021.2.3,Win32,59.96282305,6150f261fe1008f1821fc477,626b377229c10585ec392f8a,626b3b3dcbee662a42b28d23,,,,,,,,,,,,,,,,,,,,,,,,,,,,,,,,,,,,,,,2,  ,,0,2.317614555,399.273,0,0,0,0,1,2,1,,,,,,,,,,,,,,,,,
,6150f261fe1008f1821fc477,001,2022-04-28_20h12.18.643,classification_task,2021.2.3,Win32,59.96282305,6150f261fe1008f1821fc477,626b377229c10585ec392f8a,626b3b3dcbee662a42b28d23,,,,,,,,,,,,,,,,,,,,,,,,,,,,,,,,,,,,,,,,,,,,,0,0,0,0,1,,1,,,,,,,,,,,,,,,,,
,6150f261fe1008f1821fc477,001,2022-04-28_20h12.18.643,classification_task,2021.2.3,Win32,59.96282305,6150f261fe1008f1821fc477,626b377229c10585ec392f8a,626b3b3dcbee662a42b28d23,,,,,,,,,,,,,,,,,,,,,space,5.9424,a,0,2.3437,"[""0.146"",""0.401"",""0.606"",""0.040""]","[1,1,1,0]",0,0,0,0,1,1,1,,,0,FALSE,,,,,,,,,,,,,,,,,,,,,,,,,,,,,,
,6150f261fe1008f1821fc477,001,2022-04-28_20h12.18.643,classification_task,2021.2.3,Win32,59.96282305,6150f261fe1008f1821fc477,626b377229c10585ec392f8a,626b3b3dcbee662a42b28d23,,,,,,,,,,,,,,,,,,,,,,,a,0,2.6348,"[""0.146"",""0.040"",""0.606"",""0.832""]","[1,0,1,1]",0,1,1,1,1,1,1,,,0,FALSE,,,,,,,,,,,,,,,,,,,,,,,,,,,,,,
,6150f261fe1008f1821fc477,001,2022-04-28_20h12.18.643,classification_task,2021.2.3,Win32,59.96282305,6150f261fe1008f1821fc477,626b377229c10585ec392f8a,626b3b3dcbee662a42b28d23,,,,,,,,,,,,,,,,,,,,,,,a,1,0.5435,"[""0.193"",""0.345"",""0.040"",""0.890""]","[1,1,0,1]",0,2,2,2,1,0,1,,,0,FALSE,,,,,,,,,,,,,,,,,,,,,,,,,,,,,,
,6150f261fe1008f1821fc477,001,2022-04-28_20h12.18.643,classification_task,2021.2.3,Win32,59.96282305,6150f261fe1008f1821fc477,626b377229c10585ec392f8a,626b3b3dcbee662a42b28d23,,,,,,,,,,,,,,,,,,,,,,,l,0,0.427,"[""0.193"",""0.046"",""0.794"",""0.890""]","[1,0,1,1]",0,3,3,3,1,0,1,,,0,FALSE,,,,,,,,,,,,,,,,,,,,,,,,,,,,,,
,6150f261fe1008f1821fc477,001,2022-04-28_20h12.18.643,classification_task,2021.2.3,Win32,59.96282305,6150f261fe1008f1821fc477,626b377229c10585ec392f8a,626b3b3dcbee662a42b28d23,,,,,,,,,,,,,,,,,,,,,,,a,1,0.2769,"[""0.923"",""0.468"",""0.682"",""0.958""]","[0,1,1,1]",0,4,4,4,1,0,0,,,0,FALSE,,,,,,,,,,,,,,,,,,,,,,,,,,,,,,
,6150f261fe1008f1821fc477,001,2022-04-28_20h12.18.643,classification_task,2021.2.3,Win32,59.96282305,6150f261fe1008f1821fc477,626b377229c10585ec392f8a,626b3b3dcbee662a42b28d23,,,,,,,,,,,,,,,,,,,,,,,a,0,0.7889,"[""0.034"",""0.401"",""0.606"",""0.832""]","[0,1,1,1]",0,5,5,5,1,1,1,,,0,FALSE,,,,,,,,,,,,,,,,,,,,,,,,,,,,,,
,6150f261fe1008f1821fc477,001,2022-04-28_20h12.18.643,classification_task,2021.2.3,Win32,59.96282305,6150f261fe1008f1821fc477,626b377229c10585ec392f8a,626b3b3dcbee662a42b28d23,,,,,,,,,,,,,,,,,,,,,,,l,0,0.3362,"[""0.230"",""0.040"",""0.682"",""0.958""]","[1,0,1,1]",0,6,6,6,1,0,0,,,0,FALSE,,,,,,,,,,,,,,,,,,,,,,,,,,,,,,
,6150f261fe1008f1821fc477,001,2022-04-28_20h12.18.643,classification_task,2021.2.3,Win32,59.96282305,6150f261fe1008f1821fc477,626b377229c10585ec392f8a,626b3b3dcbee662a42b28d23,,,,,,,,,,,,,,,,,,,,,,,l,0,0.0695,"[""0.230"",""0.468"",""0.682"",""0.646""]","[1,1,1,0]",0,7,7,7,1,0,0,,,0,FALSE,,,,,,,,,,,,,,,,,,,,,,,,,,,,,,
,6150f261fe1008f1821fc477,001,2022-04-28_20h12.18.643,classification_task,2021.2.3,Win32,59.96282305,6150f261fe1008f1821fc477,626b377229c10585ec392f8a,626b3b3dcbee662a42b28d23,,,,,,,,,,,,,,,,,,,,,,,a,0,0.1363,"[""0.080"",""0.272"",""0.556"",""0.035""]","[1,1,1,0]",0,8,8,8,1,1,0,,,0,FALSE,,,,,,,,,,,,,,,,,,,,,,,,,,,,,,
,6150f261fe1008f1821fc477,001,2022-04-28_20h12.18.643,classification_task,2021.2.3,Win32,59.96282305,6150f261fe1008f1821fc477,626b377229c10585ec392f8a,626b3b3dcbee662a42b28d23,,,,,,,,,,,,,,,,,,,,,,,l,1,0.2173,"[""0.146"",""0.401"",""0.923"",""0.832""]","[1,1,0,1]",0,9,9,9,1,1,1,,,0,FALSE,,,,,,,,,,,,,,,,,,,,,,,,,,,,,,
,6150f261fe1008f1821fc477,001,2022-04-28_20h12.18.643,classification_task,2021.2.3,Win32,59.96282305,6150f261fe1008f1821fc477,626b377229c10585ec392f8a,626b3b3dcbee662a42b28d23,,,,,,,,,,,,,,,,,,,,,,,l,0,0.2331,"[""0.193"",""0.345"",""0.794"",""0.035""]","[1,1,1,0]",0,10,10,10,1,0,1,,,0,FALSE,,,,,,,,,,,,,,,,,,,,,,,,,,,,,,
,6150f261fe1008f1821fc477,001,2022-04-28_20h12.18.643,classification_task,2021.2.3,Win32,59.96282305,6150f261fe1008f1821fc477,626b377229c10585ec392f8a,626b3b3dcbee662a42b28d23,,,,,,,,,,,,,,,,,,,,,,,a,1,0.2775,"[""0.230"",""0.468"",""0.512"",""0.958""]","[1,1,0,1]",0,11,11,11,1,0,0,,,0,FALSE,,,,,,,,,,,,,,,,,,,,,,,,,,,,,,
,6150f261fe1008f1821fc477,001,2022-04-28_20h12.18.643,classification_task,2021.2.3,Win32,59.96282305,6150f261fe1008f1821fc477,626b377229c10585ec392f8a,626b3b3dcbee662a42b28d23,,,,,,,,,,,,,,,,,,,,,,,a,1,0.4593,"[""0.923"",""0.345"",""0.794"",""0.890""]","[0,1,1,1]",0,12,12,12,1,0,1,,,0,FALSE,,,,,,,,,,,,,,,,,,,,,,,,,,,,,,
,6150f261fe1008f1821fc477,001,2022-04-28_20h12.18.643,classification_task,2021.2.3,Win32,59.96282305,6150f261fe1008f1821fc477,626b377229c10585ec392f8a,626b3b3dcbee662a42b28d23,,,,,,,,,,,,,,,,,,,,,,,l,1,0.7321,"[""0.080"",""0.038"",""0.556"",""0.739""]","[1,0,1,1]",0,13,13,13,1,1,0,,,0,FALSE,,,,,,,,,,,,,,,,,,,,,,,,,,,,,,
,6150f261fe1008f1821fc477,001,2022-04-28_20h12.18.643,classification_task,2021.2.3,Win32,59.96282305,6150f261fe1008f1821fc477,626b377229c10585ec392f8a,626b3b3dcbee662a42b28d23,,,,,,,,,,,,,,,,,,,,,,,a,0,0.4434,"[""0.080"",""0.272"",""0.038"",""0.739""]","[1,1,0,1]",0,14,14,14,1,1,0,,,0,FALSE,,,,,,,,,,,,,,,,,,,,,,,,,,,,,,
,6150f261fe1008f1821fc477,001,2022-04-28_20h12.18.643,classification_task,2021.2.3,Win32,59.96282305,6150f261fe1008f1821fc477,626b377229c10585ec392f8a,626b3b3dcbee662a42b28d23,,,,,,,,,,,,,,,,,,,,,,,l,1,0.3011,"[""0.034"",""0.272"",""0.556"",""0.739""]","[0,1,1,1]",0,15,15,15,1,1,0,,,0,FALSE,,,,,,,,,,,,,,,,,,,,,,,,,,,,,,
,6150f261fe1008f1821fc477,001,2022-04-28_20h12.18.643,classification_task,2021.2.3,Win32,59.96282305,6150f261fe1008f1821fc477,626b377229c10585ec392f8a,626b3b3dcbee662a42b28d23,,,,,,,,,,,,,,,,,,,,,,,l,1,0.412,"[""0.146"",""0.401"",""0.040"",""0.832""]","[1,1,0,1]",0,16,16,16,1,1,1,,,0,FALSE,,,,,,,,,,,,,,,,,,,,,,,,,,,,,,
,6150f261fe1008f1821fc477,001,2022-04-28_20h12.18.643,classification_task,2021.2.3,Win32,59.96282305,6150f261fe1008f1821fc477,626b377229c10585ec392f8a,626b3b3dcbee662a42b28d23,,,,,,,,,,,,,,,,,,,,,,,a,0,0.3917,"[""0.080"",""0.272"",""0.556"",""0.039""]","[1,1,1,0]",0,17,17,17,1,1,0,,,0,FALSE,,,,,,,,,,,,,,,,,,,,,,,,,,,,,,
,6150f261fe1008f1821fc477,001,2022-04-28_20h12.18.643,classification_task,2021.2.3,Win32,59.96282305,6150f261fe1008f1821fc477,626b377229c10585ec392f8a,626b3b3dcbee662a42b28d23,,,,,,,,,,,,,,,,,,,,,,,l,0,0.2665,"[""0.518"",""0.345"",""0.794"",""0.890""]","[0,1,1,1]",0,18,18,18,1,0,1,,,0,FALSE,,,,,,,,,,,,,,,,,,,,,,,,,,,,,,
,6150f261fe1008f1821fc477,001,2022-04-28_20h12.18.643,classification_task,2021.2.3,Win32,59.96282305,6150f261fe1008f1821fc477,626b377229c10585ec392f8a,626b3b3dcbee662a42b28d23,,,,,,,,,,,,,,,,,,,,,,,a,0,0.3566,"[""0.039"",""0.401"",""0.606"",""0.832""]","[0,1,1,1]",0,19,19,19,1,1,1,,,0,FALSE,,,,,,,,,,,,,,,,,,,,,,,,,,,,,,
,6150f261fe1008f1821fc477,001,2022-04-28_20h12.18.643,classification_task,2021.2.3,Win32,59.96282305,6150f261fe1008f1821fc477,626b377229c10585ec392f8a,626b3b3dcbee662a42b28d23,,,,,,,,,,,,,,,,,,,,,,,a,0,0.2944,"[""0.146"",""0.401"",""0.606"",""0.518""]","[1,1,1,0]",0,20,20,20,1,1,1,,,0,FALSE,,,,,,,,,,,,,,,,,,,,,,,,,,,,,,
,6150f261fe1008f1821fc477,001,2022-04-28_20h12.18.643,classification_task,2021.2.3,Win32,59.96282305,6150f261fe1008f1821fc477,626b377229c10585ec392f8a,626b3b3dcbee662a42b28d23,,,,,,,,,,,,,,,,,,,,,,,l,1,0.3111,"[""0.080"",""0.272"",""0.518"",""0.739""]","[1,1,0,1]",0,21,21,21,1,1,0,,,0,FALSE,,,,,,,,,,,,,,,,,,,,,,,,,,,,,,
,6150f261fe1008f1821fc477,001,2022-04-28_20h12.18.643,classification_task,2021.2.3,Win32,59.96282305,6150f261fe1008f1821fc477,626b377229c10585ec392f8a,626b3b3dcbee662a42b28d23,,,,,,,,,,,,,,,,,,,,,,,a,1,0.4143,"[""0.310"",""0.468"",""0.682"",""0.958""]","[0,1,1,1]",0,22,22,22,1,0,0,,,0,FALSE,,,,,,,,,,,,,,,,,,,,,,,,,,,,,,
,6150f261fe1008f1821fc477,001,2022-04-28_20h12.18.643,classification_task,2021.2.3,Win32,59.96282305,6150f261fe1008f1821fc477,626b377229c10585ec392f8a,626b3b3dcbee662a42b28d23,,,,,,,,,,,,,,,,,,,,,,,a,1,0.7467,"[""0.230"",""0.468"",""0.682"",""0.923""]","[1,1,1,0]",0,23,23,23,1,0,0,,,0,FALSE,,,,,,,,,,,,,,,,,,,,,,,,,,,,,,
,6150f261fe1008f1821fc477,001,2022-04-28_20h12.18.643,classification_task,2021.2.3,Win32,59.96282305,6150f261fe1008f1821fc477,626b377229c10585ec392f8a,626b3b3dcbee662a42b28d23,,,,,,,,,,,,,,,,,,,,,,,l,0,0.9581,"[""0.230"",""0.468"",""0.509"",""0.958""]","[1,1,0,1]",0,24,24,24,1,0,0,,,0,FALSE,,,,,,,,,,,,,,,,,,,,,,,,,,,,,,
,6150f261fe1008f1821fc477,001,2022-04-28_20h12.18.643,classification_task,2021.2.3,Win32,59.96282305,6150f261fe1008f1821fc477,626b377229c10585ec392f8a,626b3b3dcbee662a42b28d23,,,,,,,,,,,,,,,,,,,,,,,a,0,0.5638,"[""0.080"",""0.509"",""0.556"",""0.739""]","[1,0,1,1]",0,25,25,25,1,1,0,,,0,FALSE,,,,,,,,,,,,,,,,,,,,,,,,,,,,,,
,6150f261fe1008f1821fc477,001,2022-04-28_20h12.18.643,classification_task,2021.2.3,Win32,59.96282305,6150f261fe1008f1821fc477,626b377229c10585ec392f8a,626b3b3dcbee662a42b28d23,,,,,,,,,,,,,,,,,,,,,,,l,1,0.3117,"[""0.509"",""0.272"",""0.556"",""0.739""]","[0,1,1,1]",0,26,26,26,1,1,0,,,0,FALSE,,,,,,,,,,,,,,,,,,,,,,,,,,,,,,
,6150f261fe1008f1821fc477,001,2022-04-28_20h12.18.643,classification_task,2021.2.3,Win32,59.96282305,6150f261fe1008f1821fc477,626b377229c10585ec392f8a,626b3b3dcbee662a42b28d23,,,,,,,,,,,,,,,,,,,,,,,a,1,0.5446,"[""0.230"",""0.310"",""0.682"",""0.958""]","[1,0,1,1]",0,27,27,27,1,0,0,,,0,FALSE,,,,,,,,,,,,,,,,,,,,,,,,,,,,,,
,6150f261fe1008f1821fc477,001,2022-04-28_20h12.18.643,classification_task,2021.2.3,Win32,59.96282305,6150f261fe1008f1821fc477,626b377229c10585ec392f8a,626b3b3dcbee662a42b28d23,,,,,,,,,,,,,,,,,,,,,,,a,1,0.4429,"[""0.193"",""0.646"",""0.794"",""0.890""]","[1,0,1,1]",0,28,28,28,1,0,1,,,0,FALSE,,,,,,,,,,,,,,,,,,,,,,,,,,,,,,
,6150f261fe1008f1821fc477,001,2022-04-28_20h12.18.643,classification_task,2021.2.3,Win32,59.96282305,6150f261fe1008f1821fc477,626b377229c10585ec392f8a,626b3b3dcbee662a42b28d23,,,,,,,,,,,,,,,,,,,,,,,l,1,0.5043,"[""0.146"",""0.035"",""0.606"",""0.832""]","[1,0,1,1]",0,29,29,29,1,1,1,,,0,FALSE,,,,,,,,,,,,,,,,,,,,,,,,,,,,,,
,6150f261fe1008f1821fc477,001,2022-04-28_20h12.18.643,classification_task,2021.2.3,Win32,59.96282305,6150f261fe1008f1821fc477,626b377229c10585ec392f8a,626b3b3dcbee662a42b28d23,,,,,,,,,,,,,,,,,,,,,,,l,0,0.4207,"[""0.193"",""0.345"",""0.046"",""0.890""]","[1,1,0,1]",0,30,30,30,1,0,1,,,0,FALSE,,,,,,,,,,,,,,,,,,,,,,,,,,,,,,
,6150f261fe1008f1821fc477,001,2022-04-28_20h12.18.643,classification_task,2021.2.3,Win32,59.96282305,6150f261fe1008f1821fc477,626b377229c10585ec392f8a,626b3b3dcbee662a42b28d23,,,,,,,,,,,,,,,,,,,,,,,a,1,0.423,"[""0.193"",""0.345"",""0.794"",""0.034""]","[1,1,1,0]",0,31,31,31,1,0,1,,,0,FALSE,,,,,,,,,,,,,,,,,,,,,,,,,,,,,,
,6150f261fe1008f1821fc477,001,2022-04-28_20h12.18.643,classification_task,2021.2.3,Win32,59.96282305,6150f261fe1008f1821fc477,626b377229c10585ec392f8a,626b3b3dcbee662a42b28d23,,,,,,,,,,,,,,,,,,,,,,,l,1,0.6056,"[""0.310"",""0.272"",""0.556"",""0.739""]","[0,1,1,1]",0,32,32,32,1,1,0,,,0,FALSE,,,,,,,,,,,,,,,,,,,,,,,,,,,,,,
,6150f261fe1008f1821fc477,001,2022-04-28_20h12.18.643,classification_task,2021.2.3,Win32,59.96282305,6150f261fe1008f1821fc477,626b377229c10585ec392f8a,626b3b3dcbee662a42b28d23,,,,,,,,,,,,,,,,,,,,,,,l,0,0.3847,"[""0.193"",""0.028"",""0.794"",""0.890""]","[1,0,1,1]",0,33,33,33,1,0,1,,,0,FALSE,,,,,,,,,,,,,,,,,,,,,,,,,,,,,,
,6150f261fe1008f1821fc477,001,2022-04-28_20h12.18.643,classification_task,2021.2.3,Win32,59.96282305,6150f261fe1008f1821fc477,626b377229c10585ec392f8a,626b3b3dcbee662a42b28d23,,,,,,,,,,,,,,,,,,,,,,,a,1,0.2751,"[""0.230"",""0.468"",""0.035"",""0.958""]","[1,1,0,1]",0,34,34,34,1,0,0,,,0,FALSE,,,,,,,,,,,,,,,,,,,,,,,,,,,,,,
,6150f261fe1008f1821fc477,001,2022-04-28_20h12.18.643,classification_task,2021.2.3,Win32,59.96282305,6150f261fe1008f1821fc477,626b377229c10585ec392f8a,626b3b3dcbee662a42b28d23,,,,,,,,,,,,,,,,,,,,,,,l,0,0.4663,"[""0.034"",""0.468"",""0.682"",""0.958""]","[0,1,1,1]",0,35,35,35,1,0,0,,,0,FALSE,,,,,,,,,,,,,,,,,,,,,,,,,,,,,,
,6150f261fe1008f1821fc477,001,2022-04-28_20h12.18.643,classification_task,2021.2.3,Win32,59.96282305,6150f261fe1008f1821fc477,626b377229c10585ec392f8a,626b3b3dcbee662a42b28d23,,,,,,,,,,,,,,,,,,,,,,,a,0,0.2496,"[""0.080"",""0.512"",""0.556"",""0.739""]","[1,0,1,1]",0,36,36,36,1,1,0,,,0,FALSE,,,,,,,,,,,,,,,,,,,,,,,,,,,,,,
,6150f261fe1008f1821fc477,001,2022-04-28_20h12.18.643,classification_task,2021.2.3,Win32,59.96282305,6150f261fe1008f1821fc477,626b377229c10585ec392f8a,626b3b3dcbee662a42b28d23,,,,,,,,,,,,,,,,,,,,,,,l,1,0.4258,"[""0.080"",""0.272"",""0.039"",""0.739""]","[1,1,0,1]",0,37,37,37,1,1,0,,,0,FALSE,,,,,,,,,,,,,,,,,,,,,,,,,,,,,,
,6150f261fe1008f1821fc477,001,2022-04-28_20h12.18.643,classification_task,2021.2.3,Win32,59.96282305,6150f261fe1008f1821fc477,626b377229c10585ec392f8a,626b3b3dcbee662a42b28d23,,,,,,,,,,,,,,,,,,,,,,,a,0,0.3277,"[""0.146"",""0.512"",""0.606"",""0.832""]","[1,0,1,1]",0,38,38,38,1,1,1,,,0,FALSE,,,,,,,,,,,,,,,,,,,,,,,,,,,,,,
,6150f261fe1008f1821fc477,001,2022-04-28_20h12.18.643,classification_task,2021.2.3,Win32,59.96282305,6150f261fe1008f1821fc477,626b377229c10585ec392f8a,626b3b3dcbee662a42b28d23,,,,,,,,,,,,,,,,,,,,,,,a,0,0.372,"[""0.080"",""0.272"",""0.556"",""0.522""]","[1,1,1,0]",0,39,39,39,1,1,0,,,0,FALSE,,,,,,,,,,,,,,,,,,,,,,,,,,,,,,
,6150f261fe1008f1821fc477,001,2022-04-28_20h12.18.643,classification_task,2021.2.3,Win32,59.96282305,6150f261fe1008f1821fc477,626b377229c10585ec392f8a,626b3b3dcbee662a42b28d23,,,,,,,,,,,,,,,,,,,,,,,l,0,0.2913,"[""0.193"",""0.345"",""0.923"",""0.890""]","[1,1,0,1]",0,40,40,40,1,0,1,,,0,FALSE,,,,,,,,,,,,,,,,,,,,,,,,,,,,,,
,6150f261fe1008f1821fc477,001,2022-04-28_20h12.18.643,classification_task,2021.2.3,Win32,59.96282305,6150f261fe1008f1821fc477,626b377229c10585ec392f8a,626b3b3dcbee662a42b28d23,,,,,,,,,,,,,,,,,,,,,,,a,1,0.3111,"[""0.506"",""0.345"",""0.794"",""0.890""]","[0,1,1,1]",0,41,41,41,1,0,1,,,0,FALSE,,,,,,,,,,,,,,,,,,,,,,,,,,,,,,
,6150f261fe1008f1821fc477,001,2022-04-28_20h12.18.643,classification_task,2021.2.3,Win32,59.96282305,6150f261fe1008f1821fc477,626b377229c10585ec392f8a,626b3b3dcbee662a42b28d23,,,,,,,,,,,,,,,,,,,,,,,a,0,0.5074,"[""0.146"",""0.401"",""0.923"",""0.832""]","[1,1,0,1]",0,42,42,42,1,1,1,,,0,FALSE,,,,,,,,,,,,,,,,,,,,,,,,,,,,,,
,6150f261fe1008f1821fc477,001,2022-04-28_20h12.18.643,classification_task,2021.2.3,Win32,59.96282305,6150f261fe1008f1821fc477,626b377229c10585ec392f8a,626b3b3dcbee662a42b28d23,,,,,,,,,,,,,,,,,,,,,,,l,0,0.2932,"[""0.193"",""0.345"",""0.794"",""0.034""]","[1,1,1,0]",0,43,43,43,1,0,1,,,0,FALSE,,,,,,,,,,,,,,,,,,,,,,,,,,,,,,
,6150f261fe1008f1821fc477,001,2022-04-28_20h12.18.643,classification_task,2021.2.3,Win32,59.96282305,6150f261fe1008f1821fc477,626b377229c10585ec392f8a,626b3b3dcbee662a42b28d23,,,,,,,,,,,,,,,,,,,,,,,a,0,0.2133,"[""0.035"",""0.401"",""0.606"",""0.832""]","[0,1,1,1]",0,44,44,44,1,1,1,,,0,FALSE,,,,,,,,,,,,,,,,,,,,,,,,,,,,,,
,6150f261fe1008f1821fc477,001,2022-04-28_20h12.18.643,classification_task,2021.2.3,Win32,59.96282305,6150f261fe1008f1821fc477,626b377229c10585ec392f8a,626b3b3dcbee662a42b28d23,,,,,,,,,,,,,,,,,,,,,,,l,0,0.141,"[""0.230"",""0.468"",""0.682"",""0.522""]","[1,1,1,0]",0,45,45,45,1,0,0,,,0,FALSE,,,,,,,,,,,,,,,,,,,,,,,,,,,,,,
,6150f261fe1008f1821fc477,001,2022-04-28_20h12.18.643,classification_task,2021.2.3,Win32,59.96282305,6150f261fe1008f1821fc477,626b377229c10585ec392f8a,626b3b3dcbee662a42b28d23,,,,,,,,,,,,,,,,,,,,,,,a,0,0.5941,"[""0.146"",""0.401"",""0.606"",""0.040""]","[1,1,1,0]",0,46,46,46,1,1,1,,,0,FALSE,,,,,,,,,,,,,,,,,,,,,,,,,,,,,,
,6150f261fe1008f1821fc477,001,2022-04-28_20h12.18.643,classification_task,2021.2.3,Win32,59.96282305,6150f261fe1008f1821fc477,626b377229c10585ec392f8a,626b3b3dcbee662a42b28d23,,,,,,,,,,,,,,,,,,,,,,,l,0,0.2707,"[""0.230"",""0.028"",""0.682"",""0.958""]","[1,0,1,1]",0,47,47,47,1,0,0,,,0,FALSE,,,,,,,,,,,,,,,,,,,,,,,,,,,,,,
,6150f261fe1008f1821fc477,001,2022-04-28_20h12.18.643,classification_task,2021.2.3,Win32,59.96282305,6150f261fe1008f1821fc477,626b377229c10585ec392f8a,626b3b3dcbee662a42b28d23,,,,,,,,,,,,,,,,,,,,,,,a,0,0.3112,"[""0.080"",""0.272"",""0.556"",""0.923""]","[1,1,1,0]",0,48,48,48,1,1,0,,,0,FALSE,,,,,,,,,,,,,,,,,,,,,,,,,,,,,,
,6150f261fe1008f1821fc477,001,2022-04-28_20h12.18.643,classification_task,2021.2.3,Win32,59.96282305,6150f261fe1008f1821fc477,626b377229c10585ec392f8a,626b3b3dcbee662a42b28d23,,,,,,,,,,,,,,,,,,,,,,,a,1,1.3588,"[""0.193"",""0.646"",""0.794"",""0.890""]","[1,0,1,1]",0,49,49,49,1,0,1,,,0,FALSE,,,,,,,,,,,,,,,,,,,,,,,,,,,,,,
,6150f261fe1008f1821fc477,001,2022-04-28_20h12.18.643,classification_task,2021.2.3,Win32,59.96282305,6150f261fe1008f1821fc477,626b377229c10585ec392f8a,626b3b3dcbee662a42b28d23,,,,,,,,,,,,,,,,,,,,,,,l,1,0.3918,"[""0.040"",""0.272"",""0.556"",""0.739""]","[0,1,1,1]",0,50,50,50,1,1,0,,,0,FALSE,,,,,,,,,,,,,,,,,,,,,,,,,,,,,,
,6150f261fe1008f1821fc477,001,2022-04-28_20h12.18.643,classification_task,2021.2.3,Win32,59.96282305,6150f261fe1008f1821fc477,626b377229c10585ec392f8a,626b3b3dcbee662a42b28d23,,,,,,,,,,,,,,,,,,,,,,,l,1,0.3852,"[""0.146"",""0.401"",""0.606"",""0.039""]","[1,1,1,0]",0,51,51,51,1,1,1,,,0,FALSE,,,,,,,,,,,,,,,,,,,,,,,,,,,,,,
,6150f261fe1008f1821fc477,001,2022-04-28_20h12.18.643,classification_task,2021.2.3,Win32,59.96282305,6150f261fe1008f1821fc477,626b377229c10585ec392f8a,626b3b3dcbee662a42b28d23,,,,,,,,,,,,,,,,,,,,,,,l,1,0.291,"[""0.080"",""0.040"",""0.556"",""0.739""]","[1,0,1,1]",0,52,52,52,1,1,0,,,0,FALSE,,,,,,,,,,,,,,,,,,,,,,,,,,,,,,
,6150f261fe1008f1821fc477,001,2022-04-28_20h12.18.643,classification_task,2021.2.3,Win32,59.96282305,6150f261fe1008f1821fc477,626b377229c10585ec392f8a,626b3b3dcbee662a42b28d23,,,,,,,,,,,,,,,,,,,,,,,a,1,0.2966,"[""0.193"",""0.345"",""0.794"",""0.046""]","[1,1,1,0]",0,53,53,53,1,0,1,,,0,FALSE,,,,,,,,,,,,,,,,,,,,,,,,,,,,,,
,6150f261fe1008f1821fc477,001,2022-04-28_20h12.18.643,classification_task,2021.2.3,Win32,59.96282305,6150f261fe1008f1821fc477,626b377229c10585ec392f8a,626b3b3dcbee662a42b28d23,,,,,,,,,,,,,,,,,,,,,,,a,1,0.6411,"[""0.230"",""0.468"",""0.040"",""0.958""]","[1,1,0,1]",0,54,54,54,1,0,0,,,0,FALSE,,,,,,,,,,,,,,,,,,,,,,,,,,,,,,
,6150f261fe1008f1821fc477,001,2022-04-28_20h12.18.643,classification_task,2021.2.3,Win32,59.96282305,6150f261fe1008f1821fc477,626b377229c10585ec392f8a,626b3b3dcbee662a42b28d23,,,,,,,,,,,,,,,,,,,,,,,l,1,0.4424,"[""0.146"",""0.401"",""0.646"",""0.832""]","[1,1,0,1]",0,55,55,55,1,1,1,,,0,FALSE,,,,,,,,,,,,,,,,,,,,,,,,,,,,,,
,6150f261fe1008f1821fc477,001,2022-04-28_20h12.18.643,classification_task,2021.2.3,Win32,59.96282305,6150f261fe1008f1821fc477,626b377229c10585ec392f8a,626b3b3dcbee662a42b28d23,,,,,,,,,,,,,,,,,,,,,,,a,1,1.0612,"[""0.038"",""0.468"",""0.682"",""0.958""]","[0,1,1,1]",0,56,56,56,1,0,0,,,0,FALSE,,,,,,,,,,,,,,,,,,,,,,,,,,,,,,
,6150f261fe1008f1821fc477,001,2022-04-28_20h12.18.643,classification_task,2021.2.3,Win32,59.96282305,6150f261fe1008f1821fc477,626b377229c10585ec392f8a,626b3b3dcbee662a42b28d23,,,,,,,,,,,,,,,,,,,,,,,a,0,3.127,"[""0.040"",""0.401"",""0.606"",""0.832""]","[0,1,1,1]",0,57,57,57,1,1,1,,,0,FALSE,,,,,,,,,,,,,,,,,,,,,,,,,,,,,,
,6150f261fe1008f1821fc477,001,2022-04-28_20h12.18.643,classification_task,2021.2.3,Win32,59.96282305,6150f261fe1008f1821fc477,626b377229c10585ec392f8a,626b3b3dcbee662a42b28d23,,,,,,,,,,,,,,,,,,,,,,,a,1,0.8235,"[""0.193"",""0.345"",""0.518"",""0.890""]","[1,1,0,1]",0,58,58,58,1,0,1,,,0,FALSE,,,,,,,,,,,,,,,,,,,,,,,,,,,,,,
,6150f261fe1008f1821fc477,001,2022-04-28_20h12.18.643,classification_task,2021.2.3,Win32,59.96282305,6150f261fe1008f1821fc477,626b377229c10585ec392f8a,626b3b3dcbee662a42b28d23,,,,,,,,,,,,,,,,,,,,,,,l,0,0.5248,"[""0.230"",""0.468"",""0.682"",""0.046""]","[1,1,1,0]",0,59,59,59,1,0,0,,,0,FALSE,,,,,,,,,,,,,,,,,,,,,,,,,,,,,,
,6150f261fe1008f1821fc477,001,2022-04-28_20h12.18.643,classification_task,2021.2.3,Win32,59.96282305,6150f261fe1008f1821fc477,626b377229c10585ec392f8a,626b3b3dcbee662a42b28d23,,,,,,,,,,,,,,,,,,,,,,,l,0,0.5018,"[""0.518"",""0.345"",""0.794"",""0.890""]","[0,1,1,1]",0,60,60,60,1,0,1,,,0,FALSE,,,,,,,,,,,,,,,,,,,,,,,,,,,,,,
,6150f261fe1008f1821fc477,001,2022-04-28_20h12.18.643,classification_task,2021.2.3,Win32,59.96282305,6150f261fe1008f1821fc477,626b377229c10585ec392f8a,626b3b3dcbee662a42b28d23,,,,,,,,,,,,,,,,,,,,,,,a,0,0.2684,"[""0.146"",""0.034"",""0.606"",""0.832""]","[1,0,1,1]",0,61,61,61,1,1,1,,,0,FALSE,,,,,,,,,,,,,,,,,,,,,,,,,,,,,,
,6150f261fe1008f1821fc477,001,2022-04-28_20h12.18.643,classification_task,2021.2.3,Win32,59.96282305,6150f261fe1008f1821fc477,626b377229c10585ec392f8a,626b3b3dcbee662a42b28d23,,,,,,,,,,,,,,,,,,,,,,,l,0,0.3188,"[""0.230"",""0.512"",""0.682"",""0.958""]","[1,0,1,1]",0,62,62,62,1,0,0,,,0,FALSE,,,,,,,,,,,,,,,,,,,,,,,,,,,,,,
,6150f261fe1008f1821fc477,001,2022-04-28_20h12.18.643,classification_task,2021.2.3,Win32,59.96282305,6150f261fe1008f1821fc477,626b377229c10585ec392f8a,626b3b3dcbee662a42b28d23,,,,,,,,,,,,,,,,,,,,,,,a,0,0.3484,"[""0.080"",""0.272"",""0.038"",""0.739""]","[1,1,0,1]",0,63,63,63,1,1,0,,,0,FALSE,,,,,,,,,,,,,,,,,,,,,,,,,,,,,,
,6150f261fe1008f1821fc477,001,2022-04-28_20h12.18.643,classification_task,2021.2.3,Win32,59.96282305,6150f261fe1008f1821fc477,626b377229c10585ec392f8a,626b3b3dcbee662a42b28d23,,,,,,,,,,,,,,,,,,,,,,,,,,,,,,,,,,,,,,,0, ,,0,0,110.3589,0,1,1,1,1,2,2,,,,,,,,,,,,,,,,,
,6150f261fe1008f1821fc477,001,2022-04-28_20h12.18.643,classification_task,2021.2.3,Win32,59.96282305,6150f261fe1008f1821fc477,626b377229c10585ec392f8a,626b3b3dcbee662a42b28d23,,,,,,,,,,,,,,,,,,,,,,,,,,,,,,,,,,,,,,,1,  ,,0,6.240603268,114.833,0,1,1,1,1,2,2,,,,,,,,,,,,,,,,,
,6150f261fe1008f1821fc477,001,2022-04-28_20h12.18.643,classification_task,2021.2.3,Win32,59.96282305,6150f261fe1008f1821fc477,626b377229c10585ec392f8a,626b3b3dcbee662a42b28d23,,,,,,,,,,,,,,,,,,,,,,,,,,,,,,,,,,,,,,,2,  ,,0,3.424098551,119.5889,0,1,1,1,1,2,2,,,,,,,,,,,,,,,,,
,6150f261fe1008f1821fc477,001,2022-04-28_20h12.18.643,classification_task,2021.2.3,Win32,59.96282305,6150f261fe1008f1821fc477,626b377229c10585ec392f8a,626b3b3dcbee662a42b28d23,,,,,,,,,,,,,,,,,,,,,,,,,,,,,,,,,,,,,,,,,,,,,0,1,1,1,1,,2,,,,,,,,,,,,,,,,,
,6150f261fe1008f1821fc477,001,2022-04-28_20h12.18.643,classification_task,2021.2.3,Win32,59.96282305,6150f261fe1008f1821fc477,626b377229c10585ec392f8a,626b3b3dcbee662a42b28d23,,,,,,,,,,,,,,,,,,,,,space,9.7111,a,1,1.4609,"[""0.230"",""0.040"",""0.682"",""0.958""]","[1,0,1,1]",0,0,0,0,1,0,0,,,0,FALSE,,,,,,,,,,,,,,,,,,,,,,,,,,,,,,
,6150f261fe1008f1821fc477,001,2022-04-28_20h12.18.643,classification_task,2021.2.3,Win32,59.96282305,6150f261fe1008f1821fc477,626b377229c10585ec392f8a,626b3b3dcbee662a42b28d23,,,,,,,,,,,,,,,,,,,,,,,l,0,0.5578,"[""0.518"",""0.468"",""0.682"",""0.958""]","[0,1,1,1]",0,1,1,1,1,0,0,,,0,FALSE,,,,,,,,,,,,,,,,,,,,,,,,,,,,,,
,6150f261fe1008f1821fc477,001,2022-04-28_20h12.18.643,classification_task,2021.2.3,Win32,59.96282305,6150f261fe1008f1821fc477,626b377229c10585ec392f8a,626b3b3dcbee662a42b28d23,,,,,,,,,,,,,,,,,,,,,,,l,0,0.2862,"[""0.193"",""0.034"",""0.794"",""0.890""]","[1,0,1,1]",0,2,2,2,1,0,1,,,0,FALSE,,,,,,,,,,,,,,,,,,,,,,,,,,,,,,
,6150f261fe1008f1821fc477,001,2022-04-28_20h12.18.643,classification_task,2021.2.3,Win32,59.96282305,6150f261fe1008f1821fc477,626b377229c10585ec392f8a,626b3b3dcbee662a42b28d23,,,,,,,,,,,,,,,,,,,,,,,a,1,0.0457,"[""0.193"",""0.345"",""0.028"",""0.890""]","[1,1,0,1]",0,3,3,3,1,0,1,,,0,FALSE,,,,,,,,,,,,,,,,,,,,,,,,,,,,,,
,6150f261fe1008f1821fc477,001,2022-04-28_20h12.18.643,classification_task,2021.2.3,Win32,59.96282305,6150f261fe1008f1821fc477,626b377229c10585ec392f8a,626b3b3dcbee662a42b28d23,,,,,,,,,,,,,,,,,,,,,,,a,0,0.4312,"[""0.512"",""0.401"",""0.606"",""0.832""]","[0,1,1,1]",0,4,4,4,1,1,1,,,0,FALSE,,,,,,,,,,,,,,,,,,,,,,,,,,,,,,
,6150f261fe1008f1821fc477,001,2022-04-28_20h12.18.643,classification_task,2021.2.3,Win32,59.96282305,6150f261fe1008f1821fc477,626b377229c10585ec392f8a,626b3b3dcbee662a42b28d23,,,,,,,,,,,,,,,,,,,,,,,l,0,0.5423,"[""0.040"",""0.345"",""0.794"",""0.890""]","[0,1,1,1]",0,5,5,5,1,0,1,,,0,FALSE,,,,,,,,,,,,,,,,,,,,,,,,,,,,,,
,6150f261fe1008f1821fc477,001,2022-04-28_20h12.18.643,classification_task,2021.2.3,Win32,59.96282305,6150f261fe1008f1821fc477,626b377229c10585ec392f8a,626b3b3dcbee662a42b28d23,,,,,,,,,,,,,,,,,,,,,,,a,0,0.7899,"[""0.146"",""0.401"",""0.606"",""0.039""]","[1,1,1,0]",0,6,6,6,1,1,1,,,0,FALSE,,,,,,,,,,,,,,,,,,,,,,,,,,,,,,
,6150f261fe1008f1821fc477,001,2022-04-28_20h12.18.643,classification_task,2021.2.3,Win32,59.96282305,6150f261fe1008f1821fc477,626b377229c10585ec392f8a,626b3b3dcbee662a42b28d23,,,,,,,,,,,,,,,,,,,,,,,l,0,0.4816,"[""0.193"",""0.345"",""0.794"",""0.512""]","[1,1,1,0]",0,7,7,7,1,0,1,,,0,FALSE,,,,,,,,,,,,,,,,,,,,,,,,,,,,,,
,6150f261fe1008f1821fc477,001,2022-04-28_20h12.18.643,classification_task,2021.2.3,Win32,59.96282305,6150f261fe1008f1821fc477,626b377229c10585ec392f8a,626b3b3dcbee662a42b28d23,,,,,,,,,,,,,,,,,,,,,,,l,1,0.4682,"[""0.080"",""0.272"",""0.556"",""0.519""]","[1,1,1,0]",0,8,8,8,1,1,0,,,0,FALSE,,,,,,,,,,,,,,,,,,,,,,,,,,,,,,
,6150f261fe1008f1821fc477,001,2022-04-28_20h12.18.643,classification_task,2021.2.3,Win32,59.96282305,6150f261fe1008f1821fc477,626b377229c10585ec392f8a,626b3b3dcbee662a42b28d23,,,,,,,,,,,,,,,,,,,,,,,a,1,0.3505,"[""0.230"",""0.468"",""0.923"",""0.958""]","[1,1,0,1]",0,9,9,9,1,0,0,,,0,FALSE,,,,,,,,,,,,,,,,,,,,,,,,,,,,,,
,6150f261fe1008f1821fc477,001,2022-04-28_20h12.18.643,classification_task,2021.2.3,Win32,59.96282305,6150f261fe1008f1821fc477,626b377229c10585ec392f8a,626b3b3dcbee662a42b28d23,,,,,,,,,,,,,,,,,,,,,,,a,0,8.9181,"[""0.080"",""0.040"",""0.556"",""0.739""]","[1,0,1,1]",0,10,10,10,1,1,0,,,0,FALSE,,,,,,,,,,,,,,,,,,,,,,,,,,,,,,
,6150f261fe1008f1821fc477,001,2022-04-28_20h12.18.643,classification_task,2021.2.3,Win32,59.96282305,6150f261fe1008f1821fc477,626b377229c10585ec392f8a,626b3b3dcbee662a42b28d23,,,,,,,,,,,,,,,,,,,,,,,l,1,0.352,"[""0.146"",""0.506"",""0.606"",""0.832""]","[1,0,1,1]",0,11,11,11,1,1,1,,,0,FALSE,,,,,,,,,,,,,,,,,,,,,,,,,,,,,,
,6150f261fe1008f1821fc477,001,2022-04-28_20h12.18.643,classification_task,2021.2.3,Win32,59.96282305,6150f261fe1008f1821fc477,626b377229c10585ec392f8a,626b3b3dcbee662a42b28d23,,,,,,,,,,,,,,,,,,,,,,,l,1,0.2595,"[""0.146"",""0.401"",""0.310"",""0.832""]","[1,1,0,1]",0,12,12,12,1,1,1,,,0,FALSE,,,,,,,,,,,,,,,,,,,,,,,,,,,,,,
,6150f261fe1008f1821fc477,001,2022-04-28_20h12.18.643,classification_task,2021.2.3,Win32,59.96282305,6150f261fe1008f1821fc477,626b377229c10585ec392f8a,626b3b3dcbee662a42b28d23,,,,,,,,,,,,,,,,,,,,,,,a,0,2.2686,"[""0.034"",""0.272"",""0.556"",""0.739""]","[0,1,1,1]",0,13,13,13,1,1,0,,,0,FALSE,,,,,,,,,,,,,,,,,,,,,,,,,,,,,,
,6150f261fe1008f1821fc477,001,2022-04-28_20h12.18.643,classification_task,2021.2.3,Win32,59.96282305,6150f261fe1008f1821fc477,626b377229c10585ec392f8a,626b3b3dcbee662a42b28d23,,,,,,,,,,,,,,,,,,,,,,,a,1,1.2012,"[""0.230"",""0.468"",""0.682"",""0.512""]","[1,1,1,0]",0,14,14,14,1,0,0,,,0,FALSE,,,,,,,,,,,,,,,,,,,,,,,,,,,,,,
,6150f261fe1008f1821fc477,001,2022-04-28_20h12.18.643,classification_task,2021.2.3,Win32,59.96282305,6150f261fe1008f1821fc477,626b377229c10585ec392f8a,626b3b3dcbee662a42b28d23,,,,,,,,,,,,,,,,,,,,,,,l,1,1.3629,"[""0.080"",""0.272"",""0.310"",""0.739""]","[1,1,0,1]",0,15,15,15,1,1,0,,,0,FALSE,,,,,,,,,,,,,,,,,,,,,,,,,,,,,,
,6150f261fe1008f1821fc477,001,2022-04-28_20h12.18.643,classification_task,2021.2.3,Win32,59.96282305,6150f261fe1008f1821fc477,626b377229c10585ec392f8a,626b3b3dcbee662a42b28d23,,,,,,,,,,,,,,,,,,,,,,,l,1,1.4546,"[""0.146"",""0.401"",""0.039"",""0.832""]","[1,1,0,1]",0,16,16,16,1,1,1,,,0,FALSE,,,,,,,,,,,,,,,,,,,,,,,,,,,,,,
,6150f261fe1008f1821fc477,001,2022-04-28_20h12.18.643,classification_task,2021.2.3,Win32,59.96282305,6150f261fe1008f1821fc477,626b377229c10585ec392f8a,626b3b3dcbee662a42b28d23,,,,,,,,,,,,,,,,,,,,,,,a,0,0.3371,"[""0.035"",""0.272"",""0.556"",""0.739""]","[0,1,1,1]",0,17,17,17,1,1,0,,,0,FALSE,,,,,,,,,,,,,,,,,,,,,,,,,,,,,,
,6150f261fe1008f1821fc477,001,2022-04-28_20h12.18.643,classification_task,2021.2.3,Win32,59.96282305,6150f261fe1008f1821fc477,626b377229c10585ec392f8a,626b3b3dcbee662a42b28d23,,,,,,,,,,,,,,,,,,,,,,,a,0,1.2741,"[""0.519"",""0.401"",""0.606"",""0.832""]","[0,1,1,1]",0,18,18,18,1,1,1,,,0,FALSE,,,,,,,,,,,,,,,,,,,,,,,,,,,,,,
,6150f261fe1008f1821fc477,001,2022-04-28_20h12.18.643,classification_task,2021.2.3,Win32,59.96282305,6150f261fe1008f1821fc477,626b377229c10585ec392f8a,626b3b3dcbee662a42b28d23,,,,,,,,,,,,,,,,,,,,,,,l,1,0.7338,"[""0.146"",""0.310"",""0.606"",""0.832""]","[1,0,1,1]",0,19,19,19,1,1,1,,,0,FALSE,,,,,,,,,,,,,,,,,,,,,,,,,,,,,,
,6150f261fe1008f1821fc477,001,2022-04-28_20h12.18.643,classification_task,2021.2.3,Win32,59.96282305,6150f261fe1008f1821fc477,626b377229c10585ec392f8a,626b3b3dcbee662a42b28d23,,,,,,,,,,,,,,,,,,,,,,,l,1,0.7679,"[""0.146"",""0.401"",""0.606"",""0.506""]","[1,1,1,0]",0,20,20,20,1,1,1,,,0,FALSE,,,,,,,,,,,,,,,,,,,,,,,,,,,,,,
,6150f261fe1008f1821fc477,001,2022-04-28_20h12.18.643,classification_task,2021.2.3,Win32,59.96282305,6150f261fe1008f1821fc477,626b377229c10585ec392f8a,626b3b3dcbee662a42b28d23,,,,,,,,,,,,,,,,,,,,,,,a,0,0.8653,"[""0.080"",""0.519"",""0.556"",""0.739""]","[1,0,1,1]",0,21,21,21,1,1,0,,,0,FALSE,,,,,,,,,,,,,,,,,,,,,,,,,,,,,,
,6150f261fe1008f1821fc477,001,2022-04-28_20h12.18.643,classification_task,2021.2.3,Win32,59.96282305,6150f261fe1008f1821fc477,626b377229c10585ec392f8a,626b3b3dcbee662a42b28d23,,,,,,,,,,,,,,,,,,,,,,,l,0,4.3469,"[""0.193"",""0.345"",""0.039"",""0.890""]","[1,1,0,1]",0,22,22,22,1,0,1,,,0,FALSE,,,,,,,,,,,,,,,,,,,,,,,,,,,,,,
,6150f261fe1008f1821fc477,001,2022-04-28_20h12.18.643,classification_task,2021.2.3,Win32,59.96282305,6150f261fe1008f1821fc477,626b377229c10585ec392f8a,626b3b3dcbee662a42b28d23,,,,,,,,,,,,,,,,,,,,,,,l,0,0.7752,"[""0.646"",""0.345"",""0.794"",""0.890""]","[0,1,1,1]",0,23,23,23,1,0,1,,,0,FALSE,,,,,,,,,,,,,,,,,,,,,,,,,,,,,,
,6150f261fe1008f1821fc477,001,2022-04-28_20h12.18.643,classification_task,2021.2.3,Win32,59.96282305,6150f261fe1008f1821fc477,626b377229c10585ec392f8a,626b3b3dcbee662a42b28d23,,,,,,,,,,,,,,,,,,,,,,,a,0,0.9208,"[""0.080"",""0.272"",""0.506"",""0.739""]","[1,1,0,1]",0,24,24,24,1,1,0,,,0,FALSE,,,,,,,,,,,,,,,,,,,,,,,,,,,,,,
,6150f261fe1008f1821fc477,001,2022-04-28_20h12.18.643,classification_task,2021.2.3,Win32,59.96282305,6150f261fe1008f1821fc477,626b377229c10585ec392f8a,626b3b3dcbee662a42b28d23,,,,,,,,,,,,,,,,,,,,,,,l,1,0.6883,"[""0.080"",""0.272"",""0.556"",""0.518""]","[1,1,1,0]",0,25,25,25,1,1,0,,,0,FALSE,,,,,,,,,,,,,,,,,,,,,,,,,,,,,,
,6150f261fe1008f1821fc477,001,2022-04-28_20h12.18.643,classification_task,2021.2.3,Win32,59.96282305,6150f261fe1008f1821fc477,626b377229c10585ec392f8a,626b3b3dcbee662a42b28d23,,,,,,,,,,,,,,,,,,,,,,,l,0,0.7904,"[""0.039"",""0.468"",""0.682"",""0.958""]","[0,1,1,1]",0,26,26,26,1,0,0,,,0,FALSE,,,,,,,,,,,,,,,,,,,,,,,,,,,,,,
,6150f261fe1008f1821fc477,001,2022-04-28_20h12.18.643,classification_task,2021.2.3,Win32,59.96282305,6150f261fe1008f1821fc477,626b377229c10585ec392f8a,626b3b3dcbee662a42b28d23,,,,,,,,,,,,,,,,,,,,,,,a,1,0.3342,"[""0.230"",""0.646"",""0.682"",""0.958""]","[1,0,1,1]",0,27,27,27,1,0,0,,,0,FALSE,,,,,,,,,,,,,,,,,,,,,,,,,,,,,,
,6150f261fe1008f1821fc477,001,2022-04-28_20h12.18.643,classification_task,2021.2.3,Win32,59.96282305,6150f261fe1008f1821fc477,626b377229c10585ec392f8a,626b3b3dcbee662a42b28d23,,,,,,,,,,,,,,,,,,,,,,,,0,,"[""0.230"",""0.468"",""0.682"",""0.506""]","[1,1,1,0]",0,28,28,28,1,0,0,,,0,FALSE,,,,,,,,,,,,,,,,,,,,,,,,,,,,,,
,6150f261fe1008f1821fc477,001,2022-04-28_20h12.18.643,classification_task,2021.2.3,Win32,59.96282305,6150f261fe1008f1821fc477,626b377229c10585ec392f8a,626b3b3dcbee662a42b28d23,,,,,,,,,,,,,,,,,,,,,,,a,1,0.1947,"[""0.193"",""0.039"",""0.794"",""0.890""]","[1,0,1,1]",0,29,29,29,1,0,1,,,0,FALSE,,,,,,,,,,,,,,,,,,,,,,,,,,,,,,
,6150f261fe1008f1821fc477,001,2022-04-28_20h12.18.643,classification_task,2021.2.3,Win32,59.96282305,6150f261fe1008f1821fc477,626b377229c10585ec392f8a,626b3b3dcbee662a42b28d23,,,,,,,,,,,,,,,,,,,,,,,l,0,0.5316,"[""0.193"",""0.345"",""0.794"",""0.035""]","[1,1,1,0]",0,30,30,30,1,0,1,,,0,FALSE,,,,,,,,,,,,,,,,,,,,,,,,,,,,,,
,6150f261fe1008f1821fc477,001,2022-04-28_20h12.18.643,classification_task,2021.2.3,Win32,59.96282305,6150f261fe1008f1821fc477,626b377229c10585ec392f8a,626b3b3dcbee662a42b28d23,,,,,,,,,,,,,,,,,,,,,,,l,0,0.9288,"[""0.230"",""0.468"",""0.923"",""0.958""]","[1,1,0,1]",0,31,31,31,1,0,0,,,0,FALSE,,,,,,,,,,,,,,,,,,,,,,,,,,,,,,
,6150f261fe1008f1821fc477,001,2022-04-28_20h12.18.643,classification_task,2021.2.3,Win32,59.96282305,6150f261fe1008f1821fc477,626b377229c10585ec392f8a,626b3b3dcbee662a42b28d23,,,,,,,,,,,,,,,,,,,,,,,a,0,0.4182,"[""0.146"",""0.401"",""0.506"",""0.832""]","[1,1,0,1]",0,32,32,32,1,1,1,,,0,FALSE,,,,,,,,,,,,,,,,,,,,,,,,,,,,,,
,6150f261fe1008f1821fc477,001,2022-04-28_20h12.18.643,classification_task,2021.2.3,Win32,59.96282305,6150f261fe1008f1821fc477,626b377229c10585ec392f8a,626b3b3dcbee662a42b28d23,,,,,,,,,,,,,,,,,,,,,,,l,0,0.3633,"[""0.193"",""0.345"",""0.522"",""0.890""]","[1,1,0,1]",0,33,33,33,1,0,1,,,0,FALSE,,,,,,,,,,,,,,,,,,,,,,,,,,,,,,
,6150f261fe1008f1821fc477,001,2022-04-28_20h12.18.643,classification_task,2021.2.3,Win32,59.96282305,6150f261fe1008f1821fc477,626b377229c10585ec392f8a,626b3b3dcbee662a42b28d23,,,,,,,,,,,,,,,,,,,,,,,l,0,0.3132,"[""0.230"",""0.028"",""0.682"",""0.958""]","[1,0,1,1]",0,34,34,34,1,0,0,,,0,FALSE,,,,,,,,,,,,,,,,,,,,,,,,,,,,,,
,6150f261fe1008f1821fc477,001,2022-04-28_20h12.18.643,classification_task,2021.2.3,Win32,59.96282305,6150f261fe1008f1821fc477,626b377229c10585ec392f8a,626b3b3dcbee662a42b28d23,,,,,,,,,,,,,,,,,,,,,,,a,0,0.0232,"[""0.034"",""0.401"",""0.606"",""0.832""]","[0,1,1,1]",0,35,35,35,1,1,1,,,0,FALSE,,,,,,,,,,,,,,,,,,,,,,,,,,,,,,
,6150f261fe1008f1821fc477,001,2022-04-28_20h12.18.643,classification_task,2021.2.3,Win32,59.96282305,6150f261fe1008f1821fc477,626b377229c10585ec392f8a,626b3b3dcbee662a42b28d23,,,,,,,,,,,,,,,,,,,,,,,a,1,0.2788,"[""0.038"",""0.468"",""0.682"",""0.958""]","[0,1,1,1]",0,36,36,36,1,0,0,,,0,FALSE,,,,,,,,,,,,,,,,,,,,,,,,,,,,,,
,6150f261fe1008f1821fc477,001,2022-04-28_20h12.18.643,classification_task,2021.2.3,Win32,59.96282305,6150f261fe1008f1821fc477,626b377229c10585ec392f8a,626b3b3dcbee662a42b28d23,,,,,,,,,,,,,,,,,,,,,,,a,1,0.2939,"[""0.193"",""0.345"",""0.794"",""0.046""]","[1,1,1,0]",0,37,37,37,1,0,1,,,0,FALSE,,,,,,,,,,,,,,,,,,,,,,,,,,,,,,
,6150f261fe1008f1821fc477,001,2022-04-28_20h12.18.643,classification_task,2021.2.3,Win32,59.96282305,6150f261fe1008f1821fc477,626b377229c10585ec392f8a,626b3b3dcbee662a42b28d23,,,,,,,,,,,,,,,,,,,,,,,l,0,0.2728,"[""0.193"",""0.646"",""0.794"",""0.890""]","[1,0,1,1]",0,38,38,38,1,0,1,,,0,FALSE,,,,,,,,,,,,,,,,,,,,,,,,,,,,,,
,6150f261fe1008f1821fc477,001,2022-04-28_20h12.18.643,classification_task,2021.2.3,Win32,59.96282305,6150f261fe1008f1821fc477,626b377229c10585ec392f8a,626b3b3dcbee662a42b28d23,,,,,,,,,,,,,,,,,,,,,,,l,1,0.3183,"[""0.080"",""0.040"",""0.556"",""0.739""]","[1,0,1,1]",0,39,39,39,1,1,0,,,0,FALSE,,,,,,,,,,,,,,,,,,,,,,,,,,,,,,
,6150f261fe1008f1821fc477,001,2022-04-28_20h12.18.643,classification_task,2021.2.3,Win32,59.96282305,6150f261fe1008f1821fc477,626b377229c10585ec392f8a,626b3b3dcbee662a42b28d23,,,,,,,,,,,,,,,,,,,,,,,a,0,0.1965,"[""0.040"",""0.272"",""0.556"",""0.739""]","[0,1,1,1]",0,40,40,40,1,1,0,,,0,FALSE,,,,,,,,,,,,,,,,,,,,,,,,,,,,,,
,6150f261fe1008f1821fc477,001,2022-04-28_20h12.18.643,classification_task,2021.2.3,Win32,59.96282305,6150f261fe1008f1821fc477,626b377229c10585ec392f8a,626b3b3dcbee662a42b28d23,,,,,,,,,,,,,,,,,,,,,,,a,0,0.2499,"[""0.080"",""0.272"",""0.512"",""0.739""]","[1,1,0,1]",0,41,41,41,1,1,0,,,0,FALSE,,,,,,,,,,,,,,,,,,,,,,,,,,,,,,
,6150f261fe1008f1821fc477,001,2022-04-28_20h12.18.643,classification_task,2021.2.3,Win32,59.96282305,6150f261fe1008f1821fc477,626b377229c10585ec392f8a,626b3b3dcbee662a42b28d23,,,,,,,,,,,,,,,,,,,,,,,l,1,0.4394,"[""0.146"",""0.401"",""0.606"",""0.310""]","[1,1,1,0]",0,42,42,42,1,1,1,,,0,FALSE,,,,,,,,,,,,,,,,,,,,,,,,,,,,,,
,6150f261fe1008f1821fc477,001,2022-04-28_20h12.18.643,classification_task,2021.2.3,Win32,59.96282305,6150f261fe1008f1821fc477,626b377229c10585ec392f8a,626b3b3dcbee662a42b28d23,,,,,,,,,,,,,,,,,,,,,,,l,1,0.2917,"[""0.146"",""0.035"",""0.606"",""0.832""]","[1,0,1,1]",0,43,43,43,1,1,1,,,0,FALSE,,,,,,,,,,,,,,,,,,,,,,,,,,,,,,
,6150f261fe1008f1821fc477,001,2022-04-28_20h12.18.643,classification_task,2021.2.3,Win32,59.96282305,6150f261fe1008f1821fc477,626b377229c10585ec392f8a,626b3b3dcbee662a42b28d23,,,,,,,,,,,,,,,,,,,,,,,l,0,0.3232,"[""0.230"",""0.468"",""0.038"",""0.958""]","[1,1,0,1]",0,44,44,44,1,0,0,,,0,FALSE,,,,,,,,,,,,,,,,,,,,,,,,,,,,,,
,6150f261fe1008f1821fc477,001,2022-04-28_20h12.18.643,classification_task,2021.2.3,Win32,59.96282305,6150f261fe1008f1821fc477,626b377229c10585ec392f8a,626b3b3dcbee662a42b28d23,,,,,,,,,,,,,,,,,,,,,,,a,0,0.4551,"[""0.080"",""0.272"",""0.556"",""0.512""]","[1,1,1,0]",0,45,45,45,1,1,0,,,0,FALSE,,,,,,,,,,,,,,,,,,,,,,,,,,,,,,
,6150f261fe1008f1821fc477,001,2022-04-28_20h12.18.643,classification_task,2021.2.3,Win32,59.96282305,6150f261fe1008f1821fc477,626b377229c10585ec392f8a,626b3b3dcbee662a42b28d23,,,,,,,,,,,,,,,,,,,,,,,a,1,0.1862,"[""0.230"",""0.468"",""0.682"",""0.923""]","[1,1,1,0]",0,46,46,46,1,0,0,,,0,FALSE,,,,,,,,,,,,,,,,,,,,,,,,,,,,,,
,6150f261fe1008f1821fc477,001,2022-04-28_20h12.18.643,classification_task,2021.2.3,Win32,59.96282305,6150f261fe1008f1821fc477,626b377229c10585ec392f8a,626b3b3dcbee662a42b28d23,,,,,,,,,,,,,,,,,,,,,,,l,0,0.5264,"[""0.512"",""0.345"",""0.794"",""0.890""]","[0,1,1,1]",0,47,47,47,1,0,1,,,0,FALSE,,,,,,,,,,,,,,,,,,,,,,,,,,,,,,
,6150f261fe1008f1821fc477,001,2022-04-28_20h12.18.643,classification_task,2021.2.3,Win32,59.96282305,6150f261fe1008f1821fc477,626b377229c10585ec392f8a,626b3b3dcbee662a42b28d23,,,,,,,,,,,,,,,,,,,,,,,l,1,0.3672,"[""0.038"",""0.401"",""0.606"",""0.832""]","[0,1,1,1]",0,48,48,48,1,1,1,,,0,FALSE,,,,,,,,,,,,,,,,,,,,,,,,,,,,,,
,6150f261fe1008f1821fc477,001,2022-04-28_20h12.18.643,classification_task,2021.2.3,Win32,59.96282305,6150f261fe1008f1821fc477,626b377229c10585ec392f8a,626b3b3dcbee662a42b28d23,,,,,,,,,,,,,,,,,,,,,,,a,1,0.4378,"[""0.028"",""0.345"",""0.794"",""0.890""]","[0,1,1,1]",0,49,49,49,1,0,1,,,0,FALSE,,,,,,,,,,,,,,,,,,,,,,,,,,,,,,
,6150f261fe1008f1821fc477,001,2022-04-28_20h12.18.643,classification_task,2021.2.3,Win32,59.96282305,6150f261fe1008f1821fc477,626b377229c10585ec392f8a,626b3b3dcbee662a42b28d23,,,,,,,,,,,,,,,,,,,,,,,l,0,1.2327,"[""0.193"",""0.345"",""0.518"",""0.890""]","[1,1,0,1]",0,50,50,50,1,0,1,,,0,FALSE,,,,,,,,,,,,,,,,,,,,,,,,,,,,,,
,6150f261fe1008f1821fc477,001,2022-04-28_20h12.18.643,classification_task,2021.2.3,Win32,59.96282305,6150f261fe1008f1821fc477,626b377229c10585ec392f8a,626b3b3dcbee662a42b28d23,,,,,,,,,,,,,,,,,,,,,,,l,0,0.4682,"[""0.193"",""0.345"",""0.794"",""0.038""]","[1,1,1,0]",0,51,51,51,1,0,1,,,0,FALSE,,,,,,,,,,,,,,,,,,,,,,,,,,,,,,
,6150f261fe1008f1821fc477,001,2022-04-28_20h12.18.643,classification_task,2021.2.3,Win32,59.96282305,6150f261fe1008f1821fc477,626b377229c10585ec392f8a,626b3b3dcbee662a42b28d23,,,,,,,,,,,,,,,,,,,,,,,l,0,0.375,"[""0.230"",""0.468"",""0.522"",""0.958""]","[1,1,0,1]",0,52,52,52,1,0,0,,,0,FALSE,,,,,,,,,,,,,,,,,,,,,,,,,,,,,,
,6150f261fe1008f1821fc477,001,2022-04-28_20h12.18.643,classification_task,2021.2.3,Win32,59.96282305,6150f261fe1008f1821fc477,626b377229c10585ec392f8a,626b3b3dcbee662a42b28d23,,,,,,,,,,,,,,,,,,,,,,,a,1,2.4392,"[""0.230"",""0.468"",""0.682"",""0.046""]","[1,1,1,0]",0,53,53,53,1,0,0,,,0,FALSE,,,,,,,,,,,,,,,,,,,,,,,,,,,,,,
,6150f261fe1008f1821fc477,001,2022-04-28_20h12.18.643,classification_task,2021.2.3,Win32,59.96282305,6150f261fe1008f1821fc477,626b377229c10585ec392f8a,626b3b3dcbee662a42b28d23,,,,,,,,,,,,,,,,,,,,,,,a,0,1.1082,"[""0.080"",""0.272"",""0.556"",""0.310""]","[1,1,1,0]",0,54,54,54,1,1,0,,,0,FALSE,,,,,,,,,,,,,,,,,,,,,,,,,,,,,,
,6150f261fe1008f1821fc477,001,2022-04-28_20h12.18.643,classification_task,2021.2.3,Win32,59.96282305,6150f261fe1008f1821fc477,626b377229c10585ec392f8a,626b3b3dcbee662a42b28d23,,,,,,,,,,,,,,,,,,,,,,,a,1,1.0415,"[""0.230"",""0.038"",""0.682"",""0.958""]","[1,0,1,1]",0,55,55,55,1,0,0,,,0,FALSE,,,,,,,,,,,,,,,,,,,,,,,,,,,,,,
,6150f261fe1008f1821fc477,001,2022-04-28_20h12.18.643,classification_task,2021.2.3,Win32,59.96282305,6150f261fe1008f1821fc477,626b377229c10585ec392f8a,626b3b3dcbee662a42b28d23,,,,,,,,,,,,,,,,,,,,,,,a,0,0.528,"[""0.146"",""0.401"",""0.310"",""0.832""]","[1,1,0,1]",0,56,56,56,1,1,1,,,0,FALSE,,,,,,,,,,,,,,,,,,,,,,,,,,,,,,
,6150f261fe1008f1821fc477,001,2022-04-28_20h12.18.643,classification_task,2021.2.3,Win32,59.96282305,6150f261fe1008f1821fc477,626b377229c10585ec392f8a,626b3b3dcbee662a42b28d23,,,,,,,,,,,,,,,,,,,,,,,l,1,1.303,"[""0.080"",""0.039"",""0.556"",""0.739""]","[1,0,1,1]",0,57,57,57,1,1,0,,,0,FALSE,,,,,,,,,,,,,,,,,,,,,,,,,,,,,,
,6150f261fe1008f1821fc477,001,2022-04-28_20h12.18.643,classification_task,2021.2.3,Win32,59.96282305,6150f261fe1008f1821fc477,626b377229c10585ec392f8a,626b3b3dcbee662a42b28d23,,,,,,,,,,,,,,,,,,,,,,,l,0,0.6495,"[""0.193"",""0.040"",""0.794"",""0.890""]","[1,0,1,1]",0,58,58,58,1,0,1,,,0,FALSE,,,,,,,,,,,,,,,,,,,,,,,,,,,,,,
,6150f261fe1008f1821fc477,001,2022-04-28_20h12.18.643,classification_task,2021.2.3,Win32,59.96282305,6150f261fe1008f1821fc477,626b377229c10585ec392f8a,626b3b3dcbee662a42b28d23,,,,,,,,,,,,,,,,,,,,,,,a,1,0.3146,"[""0.646"",""0.468"",""0.682"",""0.958""]","[0,1,1,1]",0,59,59,59,1,0,0,,,0,FALSE,,,,,,,,,,,,,,,,,,,,,,,,,,,,,,
,6150f261fe1008f1821fc477,001,2022-04-28_20h12.18.643,classification_task,2021.2.3,Win32,59.96282305,6150f261fe1008f1821fc477,626b377229c10585ec392f8a,626b3b3dcbee662a42b28d23,,,,,,,,,,,,,,,,,,,,,,,a,0,0.3068,"[""0.080"",""0.272"",""0.646"",""0.739""]","[1,1,0,1]",0,60,60,60,1,1,0,,,0,FALSE,,,,,,,,,,,,,,,,,,,,,,,,,,,,,,
,6150f261fe1008f1821fc477,001,2022-04-28_20h12.18.643,classification_task,2021.2.3,Win32,59.96282305,6150f261fe1008f1821fc477,626b377229c10585ec392f8a,626b3b3dcbee662a42b28d23,,,,,,,,,,,,,,,,,,,,,,,l,1,1.1281,"[""0.646"",""0.272"",""0.556"",""0.739""]","[0,1,1,1]",0,61,61,61,1,1,0,,,0,FALSE,,,,,,,,,,,,,,,,,,,,,,,,,,,,,,
,6150f261fe1008f1821fc477,001,2022-04-28_20h12.18.643,classification_task,2021.2.3,Win32,59.96282305,6150f261fe1008f1821fc477,626b377229c10585ec392f8a,626b3b3dcbee662a42b28d23,,,,,,,,,,,,,,,,,,,,,,,l,1,0.1758,"[""0.146"",""0.401"",""0.606"",""0.509""]","[1,1,1,0]",0,62,62,62,1,1,1,,,0,FALSE,,,,,,,,,,,,,,,,,,,,,,,,,,,,,,
,6150f261fe1008f1821fc477,001,2022-04-28_20h12.18.643,classification_task,2021.2.3,Win32,59.96282305,6150f261fe1008f1821fc477,626b377229c10585ec392f8a,626b3b3dcbee662a42b28d23,,,,,,,,,,,,,,,,,,,,,,,a,0,0.4082,"[""0.146"",""0.035"",""0.606"",""0.832""]","[1,0,1,1]",0,63,63,63,1,1,1,,,0,FALSE,,,,,,,,,,,,,,,,,,,,,,,,,,,,,,
,6150f261fe1008f1821fc477,001,2022-04-28_20h12.18.643,classification_task,2021.2.3,Win32,59.96282305,6150f261fe1008f1821fc477,626b377229c10585ec392f8a,626b3b3dcbee662a42b28d23,,,,,,,,,,,,,,,,,,,,,,,,,,,,,,,,,,,,,,,0, ,,0,0,145.2707,0,2,2,2,1,2,3,,,,,,,,,,,,,,,,,
,6150f261fe1008f1821fc477,001,2022-04-28_20h12.18.643,classification_task,2021.2.3,Win32,59.96282305,6150f261fe1008f1821fc477,626b377229c10585ec392f8a,626b3b3dcbee662a42b28d23,,,,,,,,,,,,,,,,,,,,,,,,,,,,,,,,,,,,,,,1,  ,,0,5,149.3301,0,2,2,2,1,2,3,,,,,,,,,,,,,,,,,
,6150f261fe1008f1821fc477,001,2022-04-28_20h12.18.643,classification_task,2021.2.3,Win32,59.96282305,6150f261fe1008f1821fc477,626b377229c10585ec392f8a,626b3b3dcbee662a42b28d23,,,,,,,,,,,,,,,,,,,,,,,,,,,,,,,,,,,,,,,2,  ,,0,1.211130558,152.2046,0,2,2,2,1,2,3,,,,,,,,,,,,,,,,,
,6150f261fe1008f1821fc477,001,2022-04-28_20h12.18.643,classification_task,2021.2.3,Win32,59.96282305,6150f261fe1008f1821fc477,626b377229c10585ec392f8a,626b3b3dcbee662a42b28d23,,,,,,,,,,,,,,,,,,,,,,,,,,,,,,,,,,,,,,,,,,,,,0,2,2,2,1,,3,,,,,,,,,,,,,,,,,
,6150f261fe1008f1821fc477,001,2022-04-28_20h12.18.643,classification_task,2021.2.3,Win32,59.96282305,6150f261fe1008f1821fc477,626b377229c10585ec392f8a,626b3b3dcbee662a42b28d23,,,,,,,,,,,,,,,,,,,,,,,,,,,,,,,,,,,,,,,,,,,,,,,,,,,,,I believe the aid is a competent performer,,0.7,0,3,746.5141,0,0,0,0,1,0,,,,
,6150f261fe1008f1821fc477,001,2022-04-28_20h12.18.643,classification_task,2021.2.3,Win32,59.96282305,6150f261fe1008f1821fc477,626b377229c10585ec392f8a,626b3b3dcbee662a42b28d23,,,,,,,,,,,,,,,,,,,,,,,,,,,,,,,,,,,,,,,,,,,,,,,,,,,,,I trust the aid,,0.7,0,4,774.4847,0,0,0,0,1,0,,,,
,6150f261fe1008f1821fc477,001,2022-04-28_20h12.18.643,classification_task,2021.2.3,Win32,59.96282305,6150f261fe1008f1821fc477,626b377229c10585ec392f8a,626b3b3dcbee662a42b28d23,,,,,,,,,,,,,,,,,,,,,,,,,,,,,,,,,,,,,,,,,,,,,,,,,,,,,I have confidence in the advice given by the aid,,0.7,0,4,775.5552,0,0,0,0,1,0,,,,
,6150f261fe1008f1821fc477,001,2022-04-28_20h12.18.643,classification_task,2021.2.3,Win32,59.96282305,6150f261fe1008f1821fc477,626b377229c10585ec392f8a,626b3b3dcbee662a42b28d23,,,,,,,,,,,,,,,,,,,,,,,,,,,,,,,,,,,,,,,,,,,,,,,,,,,,,I can depend on the aid,,0.7,0,4,799.7157,0,0,0,0,1,0,,,,
,6150f261fe1008f1821fc477,001,2022-04-28_20h12.18.643,classification_task,2021.2.3,Win32,59.96282305,6150f261fe1008f1821fc477,626b377229c10585ec392f8a,626b3b3dcbee662a42b28d23,,,,,,,,,,,,,,,,,,,,,,,,,,,,,,,,,,,,,,,,,,,,,,,,,,,,,I can rely on the aid to behave in consistent ways,,0.7,0,3,805.0286,0,0,0,0,1,0,,,,
,6150f261fe1008f1821fc477,001,2022-04-28_20h12.18.643,classification_task,2021.2.3,Win32,59.96282305,6150f261fe1008f1821fc477,626b377229c10585ec392f8a,626b3b3dcbee662a42b28d23,,,,,,,,,,,,,,,,,,,,,,,,,,,,,,,,,,,,,,,,,,,,,,,,,,,,,I can rely on the aid to do its best every time I take its advice,,0.7,0,3,806.5045,0,0,0,0,1,0,,,,
,6150f261fe1008f1821fc477,001,2022-04-28_20h12.18.643,classification_task,2021.2.3,Win32,59.96282305,6150f261fe1008f1821fc477,626b377229c10585ec392f8a,626b3b3dcbee662a42b28d23,,,,,,,,,,,,,,,,,,,,,,,,,,,,,,,,,,,,,,,,,,,,,,,,,,,,,"On trials you completed with assistance from the aid, how frequently did you think the aid was correct?",,0.7,0,70%,,0,0,0,0,1,0,,,,
,6150f261fe1008f1821fc477,001,2022-04-28_20h12.18.643,classification_task,2021.2.3,Win32,59.96282305,6150f261fe1008f1821fc477,626b377229c10585ec392f8a,626b3b3dcbee662a42b28d23,,,,,,,,,,,,,,,,,,,,,,,,,,,,,,,,,,,,,,,,,,,,,,,,,,,,,"On trials you completed without the aid, how frequently did you think you were correct?",,0.7,0,40%,,0,0,0,0,1,0,,,,
,6150f261fe1008f1821fc477,001,2022-04-28_20h12.18.643,classification_task,2021.2.3,Win32,59.96282305,6150f261fe1008f1821fc477,626b377229c10585ec392f8a,626b3b3dcbee662a42b28d23,,,,,,,,,,,,,,,,,,,,,,,,,,,,,,,,,,,,,,,,,,,,,,,,,,,,,,,,,,,0,0,0,0,1,,,,,
,6150f261fe1008f1821fc477,001,2022-04-28_20h12.18.643,classification_task,2021.2.3,Win32,59.96282305,6150f261fe1008f1821fc477,626b377229c10585ec392f8a,626b3b3dcbee662a42b28d23,,,,,,,,,,,,,,,,,,,,,,,,,,,,,,,,,,,,,,,,,,,,,,,,,,,,,,,,,,,,,,,,,space,7.4537,815.2862,
,6150f261fe1008f1821fc477,001,2022-04-28_20h12.18.643,classification_task,2021.2.3,Win32,59.96282305,6150f261fe1008f1821fc477,626b377229c10585ec392f8a,626b3b3dcbee662a42b28d23,,,,,,,,,,,,,,,,,,,,,,,,,,,,,,,,,,,,,,,,,,,,,,,,,,,,,,,,,,,,,,,,,,,,"Mozilla/5.0 (Windows NT 10.0; Win64; x64) AppleWebKit/537.36 (KHTML, like Gecko) Chrome/100.0.4896.127 Safari/537.36"
