usingWebGL,participant,session,date,expName,psychopyVersion,OS,frameRate,PROLIFIC_PID,STUDY_ID,SESSION_ID,signatures_friend,signatures_foe,band_ranges_top,band_ranges_bottom,formitemText,formtype,formundefined,formitemWidth,formindex,formresponse,formrt,key_resp_2.keys,key_resp_2.rt,tute_resp.keys,tute_resp.rt,tutorial.thisRepN,tutorial.thisTrialN,tutorial.thisN,tutorial.thisIndex,tutorial.ran,key_resp_4.keys,key_resp_4.rt,key_resp.keys,key_resp.corr,lines_presented,is_signal_presented,trials.thisRepN,trials.thisTrialN,trials.thisN,trials.thisIndex,trials.ran,vessel,active_band,lines,is_signal,supported_pos,catch_trial,key_resp.rt,debrief_formindex,debrief_formitemText,debrief_formtype,debrief_formitemWidth,debrief_formresponse,debrief_formrt,phases.thisRepN,phases.thisTrialN,phases.thisN,phases.thisIndex,phases.ran,phases.order,phase,key_resp_3.keys,trustitemText,trusttype,trustitemWidth,trustindex,trustresponse,trustrt,support_status.thisRepN,support_status.thisTrialN,support_status.thisN,support_status.thisIndex,support_status.ran,support_status.order,key_resp_5.keys,globalClockTime,userAgent
TRUE,6150ea24533ea8f02c003739,001,2022-04-28_19h13.46.525,classification_task,2021.2.3,Win32,59.97001499,6150ea24533ea8f02c003739,626b377229c10585ec392f8a,626b3ba2079acc1f35ff39c0,,,,,,,,,,,,,,,,,,,,,,,,,,,,,,,,,,,,,,,,,,,,,,,,,,,,,,,,,,,,,,,,,,,
,6150ea24533ea8f02c003739,001,2022-04-28_19h13.46.525,classification_task,2021.2.3,Win32,59.97001499,6150ea24533ea8f02c003739,626b377229c10585ec392f8a,626b3ba2079acc1f35ff39c0,"[[""0.285"",""0.369"",""0.847"",""0.932""],[""0.206"",""0.404"",""0.736"",""0.898""]]","[[""0.032"",""0.245"",""0.578"",""0.783""],[""0.083"",""0.322"",""0.468"",""0.688""]]","[1,10]","[100,1000]",Video game experience,,,0.7,0,,,,,,,,,,,,,,,,,,,,,,,,,,,,,,,,,,,,,,,,,,,,,,,,,,,,,,,,,,
,6150ea24533ea8f02c003739,001,2022-04-28_19h13.46.525,classification_task,2021.2.3,Win32,59.97001499,6150ea24533ea8f02c003739,626b377229c10585ec392f8a,626b3ba2079acc1f35ff39c0,,,,,Approximately how many hours did you spend playing video games in the last week?,,,0.7,0,20,,,,,,,,,,,,,,,,,,,,,,,,,,,,,,,,,,,,,,,,,,,,,,,,,,,,,,,,,
,6150ea24533ea8f02c003739,001,2022-04-28_19h13.46.525,classification_task,2021.2.3,Win32,59.97001499,6150ea24533ea8f02c003739,626b377229c10585ec392f8a,626b3ba2079acc1f35ff39c0,,,,,"Which game did you play the most this year? (Enter ""None"" if you didn't play any)",,,0.7,0,Sims 4,,,,,,,,,,,,,,,,,,,,,,,,,,,,,,,,,,,,,,,,,,,,,,,,,,,,,,,,,
,6150ea24533ea8f02c003739,001,2022-04-28_19h13.46.525,classification_task,2021.2.3,Win32,59.97001499,6150ea24533ea8f02c003739,626b377229c10585ec392f8a,626b3ba2079acc1f35ff39c0,,,,,Visual perception,,,0.7,0,,,,,,,,,,,,,,,,,,,,,,,,,,,,,,,,,,,,,,,,,,,,,,,,,,,,,,,,,,
,6150ea24533ea8f02c003739,001,2022-04-28_19h13.46.525,classification_task,2021.2.3,Win32,59.97001499,6150ea24533ea8f02c003739,626b377229c10585ec392f8a,626b3ba2079acc1f35ff39c0,,,,,Do you have any form of color blindness?,,,0.7,0,No,34.6804,,,,,,,,,,,,,,,,,,,,,,,,,,,,,,,,,,,,,,,,,,,,,,,,,,,,,,,,
,6150ea24533ea8f02c003739,001,2022-04-28_19h13.46.525,classification_task,2021.2.3,Win32,59.97001499,6150ea24533ea8f02c003739,626b377229c10585ec392f8a,626b3ba2079acc1f35ff39c0,,,,,Do you use software to change the colour temperature of your screen (e.g. f.lux)?,,,0.7,0,No,36.4624,,,,,,,,,,,,,,,,,,,,,,,,,,,,,,,,,,,,,,,,,,,,,,,,,,,,,,,,
,6150ea24533ea8f02c003739,001,2022-04-28_19h13.46.525,classification_task,2021.2.3,Win32,59.97001499,6150ea24533ea8f02c003739,626b377229c10585ec392f8a,626b3ba2079acc1f35ff39c0,,,,,,,,,,,,space,19.5957,space,7.1132,0,0,0,0,1,,,,,,,,,,,,,,,,,,,,,,,,,,,,,,,,,,,,,,,,,,,,,,,
,6150ea24533ea8f02c003739,001,2022-04-28_19h13.46.525,classification_task,2021.2.3,Win32,59.97001499,6150ea24533ea8f02c003739,626b377229c10585ec392f8a,626b3ba2079acc1f35ff39c0,,,,,,,,,,,,,,space,13.4634,1,0,1,0,1,,,,,,,,,,,,,,,,,,,,,,,,,,,,,,,,,,,,,,,,,,,,,,,
,6150ea24533ea8f02c003739,001,2022-04-28_19h13.46.525,classification_task,2021.2.3,Win32,59.97001499,6150ea24533ea8f02c003739,626b377229c10585ec392f8a,626b3ba2079acc1f35ff39c0,,,,,,,,,,,,,,space,32.9761,2,0,2,0,1,,,,,,,,,,,,,,,,,,,,,,,,,,,,,,,,,,,,,,,,,,,,,,,
,6150ea24533ea8f02c003739,001,2022-04-28_19h13.46.525,classification_task,2021.2.3,Win32,59.97001499,6150ea24533ea8f02c003739,626b377229c10585ec392f8a,626b3ba2079acc1f35ff39c0,,,,,,,,,,,,,,space,5.6311,3,0,3,0,1,,,,,,,,,,,,,,,,,,,,,,,,,,,,,,,,,,,,,,,,,,,,,,,
,6150ea24533ea8f02c003739,001,2022-04-28_19h13.46.525,classification_task,2021.2.3,Win32,59.97001499,6150ea24533ea8f02c003739,626b377229c10585ec392f8a,626b3ba2079acc1f35ff39c0,,,,,,,,,,,,,,space,12.6167,4,0,4,0,1,,,,,,,,,,,,,,,,,,,,,,,,,,,,,,,,,,,,,,,,,,,,,,,
,6150ea24533ea8f02c003739,001,2022-04-28_19h13.46.525,classification_task,2021.2.3,Win32,59.97001499,6150ea24533ea8f02c003739,626b377229c10585ec392f8a,626b3ba2079acc1f35ff39c0,,,,,,,,,,,,,,,,,,,,,space,5.5202,,0,"[""0.149"",""0.322"",""0.468"",""0.688""]","[0,1,1,1]",0,0,0,0,1,1,1,,,1,FALSE,,,,,,,,,,,,,,,,,,,,,,,,,,,,,,
,6150ea24533ea8f02c003739,001,2022-04-28_19h13.46.525,classification_task,2021.2.3,Win32,59.97001499,6150ea24533ea8f02c003739,626b377229c10585ec392f8a,626b3ba2079acc1f35ff39c0,,,,,,,,,,,,,,,,,,,,,,,l,1,"[""0.032"",""0.245"",""0.578"",""0.120""]","[1,1,1,0]",0,1,1,1,1,1,0,,,1,FALSE,5.1238,,,,,,,,,,,,,,,,,,,,,,,,,,,,,
,6150ea24533ea8f02c003739,001,2022-04-28_19h13.46.525,classification_task,2021.2.3,Win32,59.97001499,6150ea24533ea8f02c003739,626b377229c10585ec392f8a,626b3ba2079acc1f35ff39c0,,,,,,,,,,,,,,,,,,,,,,,l,1,"[""0.149"",""0.245"",""0.578"",""0.783""]","[0,1,1,1]",0,2,2,2,1,1,0,,,1,FALSE,3.5206,,,,,,,,,,,,,,,,,,,,,,,,,,,,,
,6150ea24533ea8f02c003739,001,2022-04-28_19h13.46.525,classification_task,2021.2.3,Win32,59.97001499,6150ea24533ea8f02c003739,626b377229c10585ec392f8a,626b3ba2079acc1f35ff39c0,,,,,,,,,,,,,,,,,,,,,,,l,1,"[""0.032"",""0.245"",""0.143"",""0.783""]","[1,1,0,1]",0,3,3,3,1,1,0,,,1,FALSE,3.556,,,,,,,,,,,,,,,,,,,,,,,,,,,,,
,6150ea24533ea8f02c003739,001,2022-04-28_19h13.46.525,classification_task,2021.2.3,Win32,59.97001499,6150ea24533ea8f02c003739,626b377229c10585ec392f8a,626b3ba2079acc1f35ff39c0,,,,,,,,,,,,,,,,,,,,,,,l,0,"[""0.206"",""0.404"",""0.157"",""0.898""]","[1,1,0,1]",0,4,4,4,1,0,1,,,1,FALSE,4.0753,,,,,,,,,,,,,,,,,,,,,,,,,,,,,
,6150ea24533ea8f02c003739,001,2022-04-28_19h13.46.525,classification_task,2021.2.3,Win32,59.97001499,6150ea24533ea8f02c003739,626b377229c10585ec392f8a,626b3ba2079acc1f35ff39c0,,,,,,,,,,,,,,,,,,,,,,,l,1,"[""0.083"",""0.322"",""0.468"",""0.120""]","[1,1,1,0]",0,5,5,5,1,1,1,,,1,FALSE,4.873,,,,,,,,,,,,,,,,,,,,,,,,,,,,,
,6150ea24533ea8f02c003739,001,2022-04-28_19h13.46.525,classification_task,2021.2.3,Win32,59.97001499,6150ea24533ea8f02c003739,626b377229c10585ec392f8a,626b3ba2079acc1f35ff39c0,,,,,,,,,,,,,,,,,,,,,,,a,1,"[""0.285"",""0.369"",""0.847"",""0.514""]","[1,1,1,0]",0,6,6,6,1,0,0,,,1,FALSE,2.9771,,,,,,,,,,,,,,,,,,,,,,,,,,,,,
,6150ea24533ea8f02c003739,001,2022-04-28_19h13.46.525,classification_task,2021.2.3,Win32,59.97001499,6150ea24533ea8f02c003739,626b377229c10585ec392f8a,626b3ba2079acc1f35ff39c0,,,,,,,,,,,,,,,,,,,,,,,a,1,"[""0.285"",""0.613"",""0.847"",""0.932""]","[1,0,1,1]",0,7,7,7,1,0,0,,,1,FALSE,2.8524,,,,,,,,,,,,,,,,,,,,,,,,,,,,,
,6150ea24533ea8f02c003739,001,2022-04-28_19h13.46.525,classification_task,2021.2.3,Win32,59.97001499,6150ea24533ea8f02c003739,626b377229c10585ec392f8a,626b3ba2079acc1f35ff39c0,,,,,,,,,,,,,,,,,,,,,,,l,0,"[""0.149"",""0.369"",""0.847"",""0.932""]","[0,1,1,1]",0,8,8,8,1,0,0,,,1,FALSE,5.7957,,,,,,,,,,,,,,,,,,,,,,,,,,,,,
,6150ea24533ea8f02c003739,001,2022-04-28_19h13.46.525,classification_task,2021.2.3,Win32,59.97001499,6150ea24533ea8f02c003739,626b377229c10585ec392f8a,626b3ba2079acc1f35ff39c0,,,,,,,,,,,,,,,,,,,,,,,a,1,"[""0.206"",""0.537"",""0.736"",""0.898""]","[1,0,1,1]",0,9,9,9,1,0,1,,,1,FALSE,2.215,,,,,,,,,,,,,,,,,,,,,,,,,,,,,
,6150ea24533ea8f02c003739,001,2022-04-28_19h13.46.525,classification_task,2021.2.3,Win32,59.97001499,6150ea24533ea8f02c003739,626b377229c10585ec392f8a,626b3ba2079acc1f35ff39c0,,,,,,,,,,,,,,,,,,,,,,,a,1,"[""0.157"",""0.404"",""0.736"",""0.898""]","[0,1,1,1]",0,10,10,10,1,0,1,,,1,FALSE,5.2055,,,,,,,,,,,,,,,,,,,,,,,,,,,,,
,6150ea24533ea8f02c003739,001,2022-04-28_19h13.46.525,classification_task,2021.2.3,Win32,59.97001499,6150ea24533ea8f02c003739,626b377229c10585ec392f8a,626b3ba2079acc1f35ff39c0,,,,,,,,,,,,,,,,,,,,,,,a,1,"[""0.206"",""0.404"",""0.736"",""0.512""]","[1,1,1,0]",0,11,11,11,1,0,1,,,1,FALSE,3.4885,,,,,,,,,,,,,,,,,,,,,,,,,,,,,
,6150ea24533ea8f02c003739,001,2022-04-28_19h13.46.525,classification_task,2021.2.3,Win32,59.97001499,6150ea24533ea8f02c003739,626b377229c10585ec392f8a,626b3ba2079acc1f35ff39c0,,,,,,,,,,,,,,,,,,,,,,,l,1,"[""0.032"",""0.514"",""0.578"",""0.783""]","[1,0,1,1]",0,12,12,12,1,1,0,,,1,FALSE,3.6654,,,,,,,,,,,,,,,,,,,,,,,,,,,,,
,6150ea24533ea8f02c003739,001,2022-04-28_19h13.46.525,classification_task,2021.2.3,Win32,59.97001499,6150ea24533ea8f02c003739,626b377229c10585ec392f8a,626b3ba2079acc1f35ff39c0,,,,,,,,,,,,,,,,,,,,,,,l,1,"[""0.083"",""0.322"",""0.641"",""0.688""]","[1,1,0,1]",0,13,13,13,1,1,1,,,1,FALSE,3.5815,,,,,,,,,,,,,,,,,,,,,,,,,,,,,
,6150ea24533ea8f02c003739,001,2022-04-28_19h13.46.525,classification_task,2021.2.3,Win32,59.97001499,6150ea24533ea8f02c003739,626b377229c10585ec392f8a,626b3ba2079acc1f35ff39c0,,,,,,,,,,,,,,,,,,,,,,,a,1,"[""0.285"",""0.369"",""0.641"",""0.932""]","[1,1,0,1]",0,14,14,14,1,0,0,,,1,FALSE,2.0287,,,,,,,,,,,,,,,,,,,,,,,,,,,,,
,6150ea24533ea8f02c003739,001,2022-04-28_19h13.46.525,classification_task,2021.2.3,Win32,59.97001499,6150ea24533ea8f02c003739,626b377229c10585ec392f8a,626b3ba2079acc1f35ff39c0,,,,,,,,,,,,,,,,,,,,,,,l,1,"[""0.083"",""0.613"",""0.468"",""0.688""]","[1,0,1,1]",0,15,15,15,1,1,1,,,1,FALSE,3.6539,,,,,,,,,,,,,,,,,,,,,,,,,,,,,
,6150ea24533ea8f02c003739,001,2022-04-28_19h13.46.525,classification_task,2021.2.3,Win32,59.97001499,6150ea24533ea8f02c003739,626b377229c10585ec392f8a,626b3ba2079acc1f35ff39c0,,,,,,,,,,,,,,,,,,,,,,,a,1,"[""0.206"",""0.120"",""0.736"",""0.898""]","[1,0,1,1]",0,16,16,16,1,0,1,,,1,FALSE,2.1697,,,,,,,,,,,,,,,,,,,,,,,,,,,,,
,6150ea24533ea8f02c003739,001,2022-04-28_19h13.46.525,classification_task,2021.2.3,Win32,59.97001499,6150ea24533ea8f02c003739,626b377229c10585ec392f8a,626b3ba2079acc1f35ff39c0,,,,,,,,,,,,,,,,,,,,,,,a,1,"[""0.206"",""0.404"",""0.612"",""0.898""]","[1,1,0,1]",0,17,17,17,1,0,1,,,1,FALSE,5.109,,,,,,,,,,,,,,,,,,,,,,,,,,,,,
,6150ea24533ea8f02c003739,001,2022-04-28_19h13.46.525,classification_task,2021.2.3,Win32,59.97001499,6150ea24533ea8f02c003739,626b377229c10585ec392f8a,626b3ba2079acc1f35ff39c0,,,,,,,,,,,,,,,,,,,,,,,l,1,"[""0.032"",""0.119"",""0.578"",""0.783""]","[1,0,1,1]",0,18,18,18,1,1,0,,,1,FALSE,2.5687,,,,,,,,,,,,,,,,,,,,,,,,,,,,,
,6150ea24533ea8f02c003739,001,2022-04-28_19h13.46.525,classification_task,2021.2.3,Win32,59.97001499,6150ea24533ea8f02c003739,626b377229c10585ec392f8a,626b3ba2079acc1f35ff39c0,,,,,,,,,,,,,,,,,,,,,,,a,1,"[""0.285"",""0.612"",""0.847"",""0.932""]","[1,0,1,1]",0,19,19,19,1,0,0,,,1,FALSE,2.4495,,,,,,,,,,,,,,,,,,,,,,,,,,,,,
,6150ea24533ea8f02c003739,001,2022-04-28_19h13.46.525,classification_task,2021.2.3,Win32,59.97001499,6150ea24533ea8f02c003739,626b377229c10585ec392f8a,626b3ba2079acc1f35ff39c0,,,,,,,,,,,,,,,,,,,,,,,l,1,"[""0.083"",""0.322"",""0.468"",""0.512""]","[1,1,1,0]",0,20,20,20,1,1,1,,,1,FALSE,2.5652,,,,,,,,,,,,,,,,,,,,,,,,,,,,,
,6150ea24533ea8f02c003739,001,2022-04-28_19h13.46.525,classification_task,2021.2.3,Win32,59.97001499,6150ea24533ea8f02c003739,626b377229c10585ec392f8a,626b3ba2079acc1f35ff39c0,,,,,,,,,,,,,,,,,,,,,,,l,0,"[""0.612"",""0.404"",""0.736"",""0.898""]","[0,1,1,1]",0,21,21,21,1,0,1,,,1,FALSE,2.8252,,,,,,,,,,,,,,,,,,,,,,,,,,,,,
,6150ea24533ea8f02c003739,001,2022-04-28_19h13.46.525,classification_task,2021.2.3,Win32,59.97001499,6150ea24533ea8f02c003739,626b377229c10585ec392f8a,626b3ba2079acc1f35ff39c0,,,,,,,,,,,,,,,,,,,,,,,a,1,"[""0.206"",""0.404"",""0.736"",""0.537""]","[1,1,1,0]",0,22,22,22,1,0,1,,,1,FALSE,4.1533,,,,,,,,,,,,,,,,,,,,,,,,,,,,,
,6150ea24533ea8f02c003739,001,2022-04-28_19h13.46.525,classification_task,2021.2.3,Win32,59.97001499,6150ea24533ea8f02c003739,626b377229c10585ec392f8a,626b3ba2079acc1f35ff39c0,,,,,,,,,,,,,,,,,,,,,,,l,1,"[""0.032"",""0.245"",""0.578"",""0.612""]","[1,1,1,0]",0,23,23,23,1,1,0,,,1,FALSE,4.8931,,,,,,,,,,,,,,,,,,,,,,,,,,,,,
,6150ea24533ea8f02c003739,001,2022-04-28_19h13.46.525,classification_task,2021.2.3,Win32,59.97001499,6150ea24533ea8f02c003739,626b377229c10585ec392f8a,626b3ba2079acc1f35ff39c0,,,,,,,,,,,,,,,,,,,,,,,l,1,"[""0.536"",""0.245"",""0.578"",""0.783""]","[0,1,1,1]",0,24,24,24,1,1,0,,,1,FALSE,4.7601,,,,,,,,,,,,,,,,,,,,,,,,,,,,,
,6150ea24533ea8f02c003739,001,2022-04-28_19h13.46.525,classification_task,2021.2.3,Win32,59.97001499,6150ea24533ea8f02c003739,626b377229c10585ec392f8a,626b3ba2079acc1f35ff39c0,,,,,,,,,,,,,,,,,,,,,,,a,1,"[""0.285"",""0.369"",""0.512"",""0.932""]","[1,1,0,1]",0,25,25,25,1,0,0,,,1,FALSE,2.4586,,,,,,,,,,,,,,,,,,,,,,,,,,,,,
,6150ea24533ea8f02c003739,001,2022-04-28_19h13.46.525,classification_task,2021.2.3,Win32,59.97001499,6150ea24533ea8f02c003739,626b377229c10585ec392f8a,626b3ba2079acc1f35ff39c0,,,,,,,,,,,,,,,,,,,,,,,a,1,"[""0.285"",""0.369"",""0.847"",""0.119""]","[1,1,1,0]",0,26,26,26,1,0,0,,,1,FALSE,6.7424,,,,,,,,,,,,,,,,,,,,,,,,,,,,,
,6150ea24533ea8f02c003739,001,2022-04-28_19h13.46.525,classification_task,2021.2.3,Win32,59.97001499,6150ea24533ea8f02c003739,626b377229c10585ec392f8a,626b3ba2079acc1f35ff39c0,,,,,,,,,,,,,,,,,,,,,,,l,1,"[""0.521"",""0.322"",""0.468"",""0.688""]","[0,1,1,1]",0,27,27,27,1,1,1,,,1,FALSE,2.8485,,,,,,,,,,,,,,,,,,,,,,,,,,,,,
,6150ea24533ea8f02c003739,001,2022-04-28_19h13.46.525,classification_task,2021.2.3,Win32,59.97001499,6150ea24533ea8f02c003739,626b377229c10585ec392f8a,626b3ba2079acc1f35ff39c0,,,,,,,,,,,,,,,,,,,,,,,a,1,"[""0.537"",""0.369"",""0.847"",""0.932""]","[0,1,1,1]",0,28,28,28,1,0,0,,,1,FALSE,3.3119,,,,,,,,,,,,,,,,,,,,,,,,,,,,,
,6150ea24533ea8f02c003739,001,2022-04-28_19h13.46.525,classification_task,2021.2.3,Win32,59.97001499,6150ea24533ea8f02c003739,626b377229c10585ec392f8a,626b3ba2079acc1f35ff39c0,,,,,,,,,,,,,,,,,,,,,,,l,1,"[""0.083"",""0.512"",""0.468"",""0.688""]","[1,0,1,1]",0,29,29,29,1,1,1,,,1,FALSE,2.4743,,,,,,,,,,,,,,,,,,,,,,,,,,,,,
,6150ea24533ea8f02c003739,001,2022-04-28_19h13.46.525,classification_task,2021.2.3,Win32,59.97001499,6150ea24533ea8f02c003739,626b377229c10585ec392f8a,626b3ba2079acc1f35ff39c0,,,,,,,,,,,,,,,,,,,,,,,l,1,"[""0.032"",""0.245"",""0.120"",""0.783""]","[1,1,0,1]",0,30,30,30,1,1,0,,,1,FALSE,2.1379,,,,,,,,,,,,,,,,,,,,,,,,,,,,,
,6150ea24533ea8f02c003739,001,2022-04-28_19h13.46.525,classification_task,2021.2.3,Win32,59.97001499,6150ea24533ea8f02c003739,626b377229c10585ec392f8a,626b3ba2079acc1f35ff39c0,,,,,,,,,,,,,,,,,,,,,,,a,0,"[""0.083"",""0.322"",""0.120"",""0.688""]","[1,1,0,1]",0,31,31,31,1,1,1,,,1,FALSE,5.9098,,,,,,,,,,,,,,,,,,,,,,,,,,,,,
,6150ea24533ea8f02c003739,001,2022-04-28_19h13.46.525,classification_task,2021.2.3,Win32,59.97001499,6150ea24533ea8f02c003739,626b377229c10585ec392f8a,626b3ba2079acc1f35ff39c0,,,,,,,,,,,,,,,,,,,,,,,l,1,"[""0.536"",""0.322"",""0.468"",""0.688""]","[0,1,1,1]",0,32,32,32,1,1,1,,,1,FALSE,7.1274,,,,,,,,,,,,,,,,,,,,,,,,,,,,,
,6150ea24533ea8f02c003739,001,2022-04-28_19h13.46.525,classification_task,2021.2.3,Win32,59.97001499,6150ea24533ea8f02c003739,626b377229c10585ec392f8a,626b3ba2079acc1f35ff39c0,,,,,,,,,,,,,,,,,,,,,,,a,1,"[""0.285"",""0.369"",""0.613"",""0.932""]","[1,1,0,1]",0,33,33,33,1,0,0,,,1,FALSE,2.3553,,,,,,,,,,,,,,,,,,,,,,,,,,,,,
,6150ea24533ea8f02c003739,001,2022-04-28_19h13.46.525,classification_task,2021.2.3,Win32,59.97001499,6150ea24533ea8f02c003739,626b377229c10585ec392f8a,626b3ba2079acc1f35ff39c0,,,,,,,,,,,,,,,,,,,,,,,a,1,"[""0.206"",""0.404"",""0.514"",""0.898""]","[1,1,0,1]",0,34,34,34,1,0,1,,,1,FALSE,3.3377,,,,,,,,,,,,,,,,,,,,,,,,,,,,,
,6150ea24533ea8f02c003739,001,2022-04-28_19h13.46.525,classification_task,2021.2.3,Win32,59.97001499,6150ea24533ea8f02c003739,626b377229c10585ec392f8a,626b3ba2079acc1f35ff39c0,,,,,,,,,,,,,,,,,,,,,,,a,1,"[""0.119"",""0.369"",""0.847"",""0.932""]","[0,1,1,1]",0,35,35,35,1,0,0,,,1,FALSE,3.6834,,,,,,,,,,,,,,,,,,,,,,,,,,,,,
,6150ea24533ea8f02c003739,001,2022-04-28_19h13.46.525,classification_task,2021.2.3,Win32,59.97001499,6150ea24533ea8f02c003739,626b377229c10585ec392f8a,626b3ba2079acc1f35ff39c0,,,,,,,,,,,,,,,,,,,,,,,l,1,"[""0.032"",""0.512"",""0.578"",""0.783""]","[1,0,1,1]",0,36,36,36,1,1,0,,,1,FALSE,1.59,,,,,,,,,,,,,,,,,,,,,,,,,,,,,
,6150ea24533ea8f02c003739,001,2022-04-28_19h13.46.525,classification_task,2021.2.3,Win32,59.97001499,6150ea24533ea8f02c003739,626b377229c10585ec392f8a,626b3ba2079acc1f35ff39c0,,,,,,,,,,,,,,,,,,,,,,,l,1,"[""0.032"",""0.245"",""0.578"",""0.143""]","[1,1,1,0]",0,37,37,37,1,1,0,,,1,FALSE,3.169,,,,,,,,,,,,,,,,,,,,,,,,,,,,,
,6150ea24533ea8f02c003739,001,2022-04-28_19h13.46.525,classification_task,2021.2.3,Win32,59.97001499,6150ea24533ea8f02c003739,626b377229c10585ec392f8a,626b3ba2079acc1f35ff39c0,,,,,,,,,,,,,,,,,,,,,,,a,1,"[""0.206"",""0.612"",""0.736"",""0.898""]","[1,0,1,1]",0,38,38,38,1,0,1,,,1,FALSE,2.8021,,,,,,,,,,,,,,,,,,,,,,,,,,,,,
,6150ea24533ea8f02c003739,001,2022-04-28_19h13.46.525,classification_task,2021.2.3,Win32,59.97001499,6150ea24533ea8f02c003739,626b377229c10585ec392f8a,626b3ba2079acc1f35ff39c0,,,,,,,,,,,,,,,,,,,,,,,l,0,"[""0.285"",""0.369"",""0.847"",""0.120""]","[1,1,1,0]",0,39,39,39,1,0,0,,,1,FALSE,4.1391,,,,,,,,,,,,,,,,,,,,,,,,,,,,,
,6150ea24533ea8f02c003739,001,2022-04-28_19h13.46.525,classification_task,2021.2.3,Win32,59.97001499,6150ea24533ea8f02c003739,626b377229c10585ec392f8a,626b3ba2079acc1f35ff39c0,,,,,,,,,,,,,,,,,,,,,,,l,1,"[""0.966"",""0.245"",""0.578"",""0.783""]","[0,1,1,1]",0,40,40,40,1,1,0,,,1,FALSE,1.2117,,,,,,,,,,,,,,,,,,,,,,,,,,,,,
,6150ea24533ea8f02c003739,001,2022-04-28_19h13.46.525,classification_task,2021.2.3,Win32,59.97001499,6150ea24533ea8f02c003739,626b377229c10585ec392f8a,626b3ba2079acc1f35ff39c0,,,,,,,,,,,,,,,,,,,,,,,a,0,"[""0.032"",""0.245"",""0.120"",""0.783""]","[1,1,0,1]",0,41,41,41,1,1,0,,,1,FALSE,3.9835,,,,,,,,,,,,,,,,,,,,,,,,,,,,,
,6150ea24533ea8f02c003739,001,2022-04-28_19h13.46.525,classification_task,2021.2.3,Win32,59.97001499,6150ea24533ea8f02c003739,626b377229c10585ec392f8a,626b3ba2079acc1f35ff39c0,,,,,,,,,,,,,,,,,,,,,,,l,0,"[""0.512"",""0.404"",""0.736"",""0.898""]","[0,1,1,1]",0,42,42,42,1,0,1,,,1,FALSE,1.8772,,,,,,,,,,,,,,,,,,,,,,,,,,,,,
,6150ea24533ea8f02c003739,001,2022-04-28_19h13.46.525,classification_task,2021.2.3,Win32,59.97001499,6150ea24533ea8f02c003739,626b377229c10585ec392f8a,626b3ba2079acc1f35ff39c0,,,,,,,,,,,,,,,,,,,,,,,a,0,"[""0.083"",""0.322"",""0.119"",""0.688""]","[1,1,0,1]",0,43,43,43,1,1,1,,,1,FALSE,1.6374,,,,,,,,,,,,,,,,,,,,,,,,,,,,,
,6150ea24533ea8f02c003739,001,2022-04-28_19h13.46.525,classification_task,2021.2.3,Win32,59.97001499,6150ea24533ea8f02c003739,626b377229c10585ec392f8a,626b3ba2079acc1f35ff39c0,,,,,,,,,,,,,,,,,,,,,,,a,1,"[""0.285"",""0.641"",""0.847"",""0.932""]","[1,0,1,1]",0,44,44,44,1,0,0,,,1,FALSE,1.5537,,,,,,,,,,,,,,,,,,,,,,,,,,,,,
,6150ea24533ea8f02c003739,001,2022-04-28_19h13.46.525,classification_task,2021.2.3,Win32,59.97001499,6150ea24533ea8f02c003739,626b377229c10585ec392f8a,626b3ba2079acc1f35ff39c0,,,,,,,,,,,,,,,,,,,,,,,l,1,"[""0.083"",""0.322"",""0.468"",""0.537""]","[1,1,1,0]",0,45,45,45,1,1,1,,,1,FALSE,3.7979,,,,,,,,,,,,,,,,,,,,,,,,,,,,,
,6150ea24533ea8f02c003739,001,2022-04-28_19h13.46.525,classification_task,2021.2.3,Win32,59.97001499,6150ea24533ea8f02c003739,626b377229c10585ec392f8a,626b3ba2079acc1f35ff39c0,,,,,,,,,,,,,,,,,,,,,,,l,1,"[""0.083"",""0.523"",""0.468"",""0.688""]","[1,0,1,1]",0,46,46,46,1,1,1,,,1,FALSE,3.554,,,,,,,,,,,,,,,,,,,,,,,,,,,,,
,6150ea24533ea8f02c003739,001,2022-04-28_19h13.46.525,classification_task,2021.2.3,Win32,59.97001499,6150ea24533ea8f02c003739,626b377229c10585ec392f8a,626b3ba2079acc1f35ff39c0,,,,,,,,,,,,,,,,,,,,,,,a,1,"[""0.206"",""0.404"",""0.736"",""0.641""]","[1,1,1,0]",0,47,47,47,1,0,1,,,1,FALSE,1.313,,,,,,,,,,,,,,,,,,,,,,,,,,,,,
,6150ea24533ea8f02c003739,001,2022-04-28_19h13.46.525,classification_task,2021.2.3,Win32,59.97001499,6150ea24533ea8f02c003739,626b377229c10585ec392f8a,626b3ba2079acc1f35ff39c0,,,,,,,,,,,,,,,,,,,,,,,l,0,"[""0.512"",""0.404"",""0.736"",""0.898""]","[0,1,1,1]",0,48,48,48,1,0,1,,,1,FALSE,1.6813,,,,,,,,,,,,,,,,,,,,,,,,,,,,,
,6150ea24533ea8f02c003739,001,2022-04-28_19h13.46.525,classification_task,2021.2.3,Win32,59.97001499,6150ea24533ea8f02c003739,626b377229c10585ec392f8a,626b3ba2079acc1f35ff39c0,,,,,,,,,,,,,,,,,,,,,,,l,1,"[""0.613"",""0.322"",""0.468"",""0.688""]","[0,1,1,1]",0,49,49,49,1,1,1,,,1,FALSE,3.332,,,,,,,,,,,,,,,,,,,,,,,,,,,,,
,6150ea24533ea8f02c003739,001,2022-04-28_19h13.46.525,classification_task,2021.2.3,Win32,59.97001499,6150ea24533ea8f02c003739,626b377229c10585ec392f8a,626b3ba2079acc1f35ff39c0,,,,,,,,,,,,,,,,,,,,,,,l,1,"[""0.536"",""0.245"",""0.578"",""0.783""]","[0,1,1,1]",0,50,50,50,1,1,0,,,1,FALSE,2.6622,,,,,,,,,,,,,,,,,,,,,,,,,,,,,
,6150ea24533ea8f02c003739,001,2022-04-28_19h13.46.525,classification_task,2021.2.3,Win32,59.97001499,6150ea24533ea8f02c003739,626b377229c10585ec392f8a,626b3ba2079acc1f35ff39c0,,,,,,,,,,,,,,,,,,,,,,,a,0,"[""0.083"",""0.322"",""0.143"",""0.688""]","[1,1,0,1]",0,51,51,51,1,1,1,,,1,FALSE,2.3263,,,,,,,,,,,,,,,,,,,,,,,,,,,,,
,6150ea24533ea8f02c003739,001,2022-04-28_19h13.46.525,classification_task,2021.2.3,Win32,59.97001499,6150ea24533ea8f02c003739,626b377229c10585ec392f8a,626b3ba2079acc1f35ff39c0,,,,,,,,,,,,,,,,,,,,,,,a,1,"[""0.285"",""0.641"",""0.847"",""0.932""]","[1,0,1,1]",0,52,52,52,1,0,0,,,1,FALSE,1.9375,,,,,,,,,,,,,,,,,,,,,,,,,,,,,
,6150ea24533ea8f02c003739,001,2022-04-28_19h13.46.525,classification_task,2021.2.3,Win32,59.97001499,6150ea24533ea8f02c003739,626b377229c10585ec392f8a,626b3ba2079acc1f35ff39c0,,,,,,,,,,,,,,,,,,,,,,,l,1,"[""0.032"",""0.245"",""0.523"",""0.783""]","[1,1,0,1]",0,53,53,53,1,1,0,,,1,FALSE,2.6735,,,,,,,,,,,,,,,,,,,,,,,,,,,,,
,6150ea24533ea8f02c003739,001,2022-04-28_19h13.46.525,classification_task,2021.2.3,Win32,59.97001499,6150ea24533ea8f02c003739,626b377229c10585ec392f8a,626b3ba2079acc1f35ff39c0,,,,,,,,,,,,,,,,,,,,,,,a,1,"[""0.206"",""0.404"",""0.736"",""0.514""]","[1,1,1,0]",0,54,54,54,1,0,1,,,1,FALSE,1.3738,,,,,,,,,,,,,,,,,,,,,,,,,,,,,
,6150ea24533ea8f02c003739,001,2022-04-28_19h13.46.525,classification_task,2021.2.3,Win32,59.97001499,6150ea24533ea8f02c003739,626b377229c10585ec392f8a,626b3ba2079acc1f35ff39c0,,,,,,,,,,,,,,,,,,,,,,,a,1,"[""0.285"",""0.369"",""0.847"",""0.613""]","[1,1,1,0]",0,55,55,55,1,0,0,,,1,FALSE,2.0843,,,,,,,,,,,,,,,,,,,,,,,,,,,,,
,6150ea24533ea8f02c003739,001,2022-04-28_19h13.46.525,classification_task,2021.2.3,Win32,59.97001499,6150ea24533ea8f02c003739,626b377229c10585ec392f8a,626b3ba2079acc1f35ff39c0,,,,,,,,,,,,,,,,,,,,,,,l,0,"[""0.206"",""0.536"",""0.736"",""0.898""]","[1,0,1,1]",0,56,56,56,1,0,1,,,1,FALSE,2.2083,,,,,,,,,,,,,,,,,,,,,,,,,,,,,
,6150ea24533ea8f02c003739,001,2022-04-28_19h13.46.525,classification_task,2021.2.3,Win32,59.97001499,6150ea24533ea8f02c003739,626b377229c10585ec392f8a,626b3ba2079acc1f35ff39c0,,,,,,,,,,,,,,,,,,,,,,,a,1,"[""0.206"",""0.404"",""0.537"",""0.898""]","[1,1,0,1]",0,57,57,57,1,0,1,,,1,FALSE,1.5191,,,,,,,,,,,,,,,,,,,,,,,,,,,,,
,6150ea24533ea8f02c003739,001,2022-04-28_19h13.46.525,classification_task,2021.2.3,Win32,59.97001499,6150ea24533ea8f02c003739,626b377229c10585ec392f8a,626b3ba2079acc1f35ff39c0,,,,,,,,,,,,,,,,,,,,,,,a,1,"[""0.536"",""0.369"",""0.847"",""0.932""]","[0,1,1,1]",0,58,58,58,1,0,0,,,1,FALSE,2.9655,,,,,,,,,,,,,,,,,,,,,,,,,,,,,
,6150ea24533ea8f02c003739,001,2022-04-28_19h13.46.525,classification_task,2021.2.3,Win32,59.97001499,6150ea24533ea8f02c003739,626b377229c10585ec392f8a,626b3ba2079acc1f35ff39c0,,,,,,,,,,,,,,,,,,,,,,,a,1,"[""0.285"",""0.369"",""0.966"",""0.932""]","[1,1,0,1]",0,59,59,59,1,0,0,,,1,FALSE,2.416,,,,,,,,,,,,,,,,,,,,,,,,,,,,,
,6150ea24533ea8f02c003739,001,2022-04-28_19h13.46.525,classification_task,2021.2.3,Win32,59.97001499,6150ea24533ea8f02c003739,626b377229c10585ec392f8a,626b3ba2079acc1f35ff39c0,,,,,,,,,,,,,,,,,,,,,,,l,1,"[""0.083"",""0.322"",""0.468"",""0.521""]","[1,1,1,0]",0,60,60,60,1,1,1,,,1,FALSE,2.3707,,,,,,,,,,,,,,,,,,,,,,,,,,,,,
,6150ea24533ea8f02c003739,001,2022-04-28_19h13.46.525,classification_task,2021.2.3,Win32,59.97001499,6150ea24533ea8f02c003739,626b377229c10585ec392f8a,626b3ba2079acc1f35ff39c0,,,,,,,,,,,,,,,,,,,,,,,l,1,"[""0.032"",""0.245"",""0.578"",""0.536""]","[1,1,1,0]",0,61,61,61,1,1,0,,,1,FALSE,2.6851,,,,,,,,,,,,,,,,,,,,,,,,,,,,,
,6150ea24533ea8f02c003739,001,2022-04-28_19h13.46.525,classification_task,2021.2.3,Win32,59.97001499,6150ea24533ea8f02c003739,626b377229c10585ec392f8a,626b3ba2079acc1f35ff39c0,,,,,,,,,,,,,,,,,,,,,,,l,1,"[""0.032"",""0.966"",""0.578"",""0.783""]","[1,0,1,1]",0,62,62,62,1,1,0,,,1,FALSE,2.9516,,,,,,,,,,,,,,,,,,,,,,,,,,,,,
,6150ea24533ea8f02c003739,001,2022-04-28_19h13.46.525,classification_task,2021.2.3,Win32,59.97001499,6150ea24533ea8f02c003739,626b377229c10585ec392f8a,626b3ba2079acc1f35ff39c0,,,,,,,,,,,,,,,,,,,,,,,l,1,"[""0.083"",""0.523"",""0.468"",""0.688""]","[1,0,1,1]",0,63,63,63,1,1,1,,,1,FALSE,2.688,,,,,,,,,,,,,,,,,,,,,,,,,,,,,
,6150ea24533ea8f02c003739,001,2022-04-28_19h13.46.525,classification_task,2021.2.3,Win32,59.97001499,6150ea24533ea8f02c003739,626b377229c10585ec392f8a,626b3ba2079acc1f35ff39c0,,,,,,,,,,,,,,,,,,,,,,,,,,,,,,,,,,,,,,,0, ,,0,8.978835979,439.0331,0,0,0,0,1,2,1,,,,,,,,,,,,,,,,
,6150ea24533ea8f02c003739,001,2022-04-28_19h13.46.525,classification_task,2021.2.3,Win32,59.97001499,6150ea24533ea8f02c003739,626b377229c10585ec392f8a,626b3ba2079acc1f35ff39c0,,,,,,,,,,,,,,,,,,,,,,,,,,,,,,,,,,,,,,,1,  ,,0,10,430.9249,0,0,0,0,1,2,1,,,,,,,,,,,,,,,,
,6150ea24533ea8f02c003739,001,2022-04-28_19h13.46.525,classification_task,2021.2.3,Win32,59.97001499,6150ea24533ea8f02c003739,626b377229c10585ec392f8a,626b3ba2079acc1f35ff39c0,,,,,,,,,,,,,,,,,,,,,,,,,,,,,,,,,,,,,,,2,  ,,0,6.862433862,435.1709,0,0,0,0,1,2,1,,,,,,,,,,,,,,,,
,6150ea24533ea8f02c003739,001,2022-04-28_19h13.46.525,classification_task,2021.2.3,Win32,59.97001499,6150ea24533ea8f02c003739,626b377229c10585ec392f8a,626b3ba2079acc1f35ff39c0,,,,,,,,,,,,,,,,,,,,,,,,,,,,,,,,,,,,,,,,,,,,,0,0,0,0,1,,1,,,,,,,,,,,,,,,,
,6150ea24533ea8f02c003739,001,2022-04-28_19h13.46.525,classification_task,2021.2.3,Win32,59.97001499,6150ea24533ea8f02c003739,626b377229c10585ec392f8a,626b3ba2079acc1f35ff39c0,,,,,,,,,,,,,,,,,,,,,space,139.6138,l,1,"[""0.083"",""0.322"",""0.536"",""0.688""]","[1,1,0,1]",0,0,0,0,1,1,1,,,1,FALSE,3.7873,,,,,,,,,,,,,,,,,,,,,,,,,,,,,
,6150ea24533ea8f02c003739,001,2022-04-28_19h13.46.525,classification_task,2021.2.3,Win32,59.97001499,6150ea24533ea8f02c003739,626b377229c10585ec392f8a,626b3ba2079acc1f35ff39c0,,,,,,,,,,,,,,,,,,,,,,,a,1,"[""0.206"",""0.613"",""0.736"",""0.898""]","[1,0,1,1]",0,1,1,1,1,0,1,,,1,FALSE,1.1367,,,,,,,,,,,,,,,,,,,,,,,,,,,,,
,6150ea24533ea8f02c003739,001,2022-04-28_19h13.46.525,classification_task,2021.2.3,Win32,59.97001499,6150ea24533ea8f02c003739,626b377229c10585ec392f8a,626b3ba2079acc1f35ff39c0,,,,,,,,,,,,,,,,,,,,,,,l,1,"[""0.641"",""0.245"",""0.578"",""0.783""]","[0,1,1,1]",0,2,2,2,1,1,0,,,1,FALSE,6.3902,,,,,,,,,,,,,,,,,,,,,,,,,,,,,
,6150ea24533ea8f02c003739,001,2022-04-28_19h13.46.525,classification_task,2021.2.3,Win32,59.97001499,6150ea24533ea8f02c003739,626b377229c10585ec392f8a,626b3ba2079acc1f35ff39c0,,,,,,,,,,,,,,,,,,,,,,,a,1,"[""0.206"",""0.404"",""0.736"",""0.149""]","[1,1,1,0]",0,3,3,3,1,0,1,,,1,FALSE,2.3121,,,,,,,,,,,,,,,,,,,,,,,,,,,,,
,6150ea24533ea8f02c003739,001,2022-04-28_19h13.46.525,classification_task,2021.2.3,Win32,59.97001499,6150ea24533ea8f02c003739,626b377229c10585ec392f8a,626b3ba2079acc1f35ff39c0,,,,,,,,,,,,,,,,,,,,,,,l,1,"[""0.083"",""0.612"",""0.468"",""0.688""]","[1,0,1,1]",0,4,4,4,1,1,1,,,1,FALSE,1.2799,,,,,,,,,,,,,,,,,,,,,,,,,,,,,
,6150ea24533ea8f02c003739,001,2022-04-28_19h13.46.525,classification_task,2021.2.3,Win32,59.97001499,6150ea24533ea8f02c003739,626b377229c10585ec392f8a,626b3ba2079acc1f35ff39c0,,,,,,,,,,,,,,,,,,,,,,,a,1,"[""0.285"",""0.521"",""0.847"",""0.932""]","[1,0,1,1]",0,5,5,5,1,0,0,,,1,FALSE,1.7228,,,,,,,,,,,,,,,,,,,,,,,,,,,,,
,6150ea24533ea8f02c003739,001,2022-04-28_19h13.46.525,classification_task,2021.2.3,Win32,59.97001499,6150ea24533ea8f02c003739,626b377229c10585ec392f8a,626b3ba2079acc1f35ff39c0,,,,,,,,,,,,,,,,,,,,,,,l,1,"[""0.083"",""0.322"",""0.468"",""0.120""]","[1,1,1,0]",0,6,6,6,1,1,1,,,1,FALSE,1.909,,,,,,,,,,,,,,,,,,,,,,,,,,,,,
,6150ea24533ea8f02c003739,001,2022-04-28_19h13.46.525,classification_task,2021.2.3,Win32,59.97001499,6150ea24533ea8f02c003739,626b377229c10585ec392f8a,626b3ba2079acc1f35ff39c0,,,,,,,,,,,,,,,,,,,,,,,l,0,"[""0.521"",""0.369"",""0.847"",""0.932""]","[0,1,1,1]",0,7,7,7,1,0,0,,,1,FALSE,2.0285,,,,,,,,,,,,,,,,,,,,,,,,,,,,,
,6150ea24533ea8f02c003739,001,2022-04-28_19h13.46.525,classification_task,2021.2.3,Win32,59.97001499,6150ea24533ea8f02c003739,626b377229c10585ec392f8a,626b3ba2079acc1f35ff39c0,,,,,,,,,,,,,,,,,,,,,,,a,1,"[""0.206"",""0.404"",""0.136"",""0.898""]","[1,1,0,1]",0,8,8,8,1,0,1,,,1,FALSE,1.3524,,,,,,,,,,,,,,,,,,,,,,,,,,,,,
,6150ea24533ea8f02c003739,001,2022-04-28_19h13.46.525,classification_task,2021.2.3,Win32,59.97001499,6150ea24533ea8f02c003739,626b377229c10585ec392f8a,626b3ba2079acc1f35ff39c0,,,,,,,,,,,,,,,,,,,,,,,a,1,"[""0.536"",""0.404"",""0.736"",""0.898""]","[0,1,1,1]",0,9,9,9,1,0,1,,,1,FALSE,1.3024,,,,,,,,,,,,,,,,,,,,,,,,,,,,,
,6150ea24533ea8f02c003739,001,2022-04-28_19h13.46.525,classification_task,2021.2.3,Win32,59.97001499,6150ea24533ea8f02c003739,626b377229c10585ec392f8a,626b3ba2079acc1f35ff39c0,,,,,,,,,,,,,,,,,,,,,,,l,1,"[""0.032"",""0.245"",""0.613"",""0.783""]","[1,1,0,1]",0,10,10,10,1,1,0,,,1,FALSE,2.0935,,,,,,,,,,,,,,,,,,,,,,,,,,,,,
,6150ea24533ea8f02c003739,001,2022-04-28_19h13.46.525,classification_task,2021.2.3,Win32,59.97001499,6150ea24533ea8f02c003739,626b377229c10585ec392f8a,626b3ba2079acc1f35ff39c0,,,,,,,,,,,,,,,,,,,,,,,l,1,"[""0.966"",""0.322"",""0.468"",""0.688""]","[0,1,1,1]",0,11,11,11,1,1,1,,,1,FALSE,1.6117,,,,,,,,,,,,,,,,,,,,,,,,,,,,,
,6150ea24533ea8f02c003739,001,2022-04-28_19h13.46.525,classification_task,2021.2.3,Win32,59.97001499,6150ea24533ea8f02c003739,626b377229c10585ec392f8a,626b3ba2079acc1f35ff39c0,,,,,,,,,,,,,,,,,,,,,,,l,1,"[""0.032"",""0.613"",""0.578"",""0.783""]","[1,0,1,1]",0,12,12,12,1,1,0,,,1,FALSE,1.4654,,,,,,,,,,,,,,,,,,,,,,,,,,,,,
,6150ea24533ea8f02c003739,001,2022-04-28_19h13.46.525,classification_task,2021.2.3,Win32,59.97001499,6150ea24533ea8f02c003739,626b377229c10585ec392f8a,626b3ba2079acc1f35ff39c0,,,,,,,,,,,,,,,,,,,,,,,a,1,"[""0.285"",""0.369"",""0.120"",""0.932""]","[1,1,0,1]",0,13,13,13,1,0,0,,,1,FALSE,2.0397,,,,,,,,,,,,,,,,,,,,,,,,,,,,,
,6150ea24533ea8f02c003739,001,2022-04-28_19h13.46.525,classification_task,2021.2.3,Win32,59.97001499,6150ea24533ea8f02c003739,626b377229c10585ec392f8a,626b3ba2079acc1f35ff39c0,,,,,,,,,,,,,,,,,,,,,,,l,1,"[""0.032"",""0.245"",""0.578"",""0.523""]","[1,1,1,0]",0,14,14,14,1,1,0,,,1,FALSE,2.7445,,,,,,,,,,,,,,,,,,,,,,,,,,,,,
,6150ea24533ea8f02c003739,001,2022-04-28_19h13.46.525,classification_task,2021.2.3,Win32,59.97001499,6150ea24533ea8f02c003739,626b377229c10585ec392f8a,626b3ba2079acc1f35ff39c0,,,,,,,,,,,,,,,,,,,,,,,a,1,"[""0.285"",""0.369"",""0.847"",""0.641""]","[1,1,1,0]",0,15,15,15,1,0,0,,,1,FALSE,1.9434,,,,,,,,,,,,,,,,,,,,,,,,,,,,,
,6150ea24533ea8f02c003739,001,2022-04-28_19h13.46.525,classification_task,2021.2.3,Win32,59.97001499,6150ea24533ea8f02c003739,626b377229c10585ec392f8a,626b3ba2079acc1f35ff39c0,,,,,,,,,,,,,,,,,,,,,,,a,0,"[""0.136"",""0.245"",""0.578"",""0.783""]","[0,1,1,1]",0,16,16,16,1,1,0,,,1,FALSE,1.5861,,,,,,,,,,,,,,,,,,,,,,,,,,,,,
,6150ea24533ea8f02c003739,001,2022-04-28_19h13.46.525,classification_task,2021.2.3,Win32,59.97001499,6150ea24533ea8f02c003739,626b377229c10585ec392f8a,626b3ba2079acc1f35ff39c0,,,,,,,,,,,,,,,,,,,,,,,a,0,"[""0.032"",""0.136"",""0.578"",""0.783""]","[1,0,1,1]",0,17,17,17,1,1,0,,,1,FALSE,1.4377,,,,,,,,,,,,,,,,,,,,,,,,,,,,,
,6150ea24533ea8f02c003739,001,2022-04-28_19h13.46.525,classification_task,2021.2.3,Win32,59.97001499,6150ea24533ea8f02c003739,626b377229c10585ec392f8a,626b3ba2079acc1f35ff39c0,,,,,,,,,,,,,,,,,,,,,,,l,1,"[""0.136"",""0.322"",""0.468"",""0.688""]","[0,1,1,1]",0,18,18,18,1,1,1,,,1,FALSE,0.9766,,,,,,,,,,,,,,,,,,,,,,,,,,,,,
,6150ea24533ea8f02c003739,001,2022-04-28_19h13.46.525,classification_task,2021.2.3,Win32,59.97001499,6150ea24533ea8f02c003739,626b377229c10585ec392f8a,626b3ba2079acc1f35ff39c0,,,,,,,,,,,,,,,,,,,,,,,l,1,"[""0.083"",""0.322"",""0.613"",""0.688""]","[1,1,0,1]",0,19,19,19,1,1,1,,,1,FALSE,0.7821,,,,,,,,,,,,,,,,,,,,,,,,,,,,,
,6150ea24533ea8f02c003739,001,2022-04-28_19h13.46.525,classification_task,2021.2.3,Win32,59.97001499,6150ea24533ea8f02c003739,626b377229c10585ec392f8a,626b3ba2079acc1f35ff39c0,,,,,,,,,,,,,,,,,,,,,,,a,1,"[""0.206"",""0.404"",""0.514"",""0.898""]","[1,1,0,1]",0,20,20,20,1,0,1,,,1,FALSE,0.949,,,,,,,,,,,,,,,,,,,,,,,,,,,,,
,6150ea24533ea8f02c003739,001,2022-04-28_19h13.46.525,classification_task,2021.2.3,Win32,59.97001499,6150ea24533ea8f02c003739,626b377229c10585ec392f8a,626b3ba2079acc1f35ff39c0,,,,,,,,,,,,,,,,,,,,,,,l,1,"[""0.032"",""0.245"",""0.612"",""0.783""]","[1,1,0,1]",0,21,21,21,1,1,0,,,1,FALSE,1.719,,,,,,,,,,,,,,,,,,,,,,,,,,,,,
,6150ea24533ea8f02c003739,001,2022-04-28_19h13.46.525,classification_task,2021.2.3,Win32,59.97001499,6150ea24533ea8f02c003739,626b377229c10585ec392f8a,626b3ba2079acc1f35ff39c0,,,,,,,,,,,,,,,,,,,,,,,l,0,"[""0.285"",""0.369"",""0.847"",""0.136""]","[1,1,1,0]",0,22,22,22,1,0,0,,,1,FALSE,1.268,,,,,,,,,,,,,,,,,,,,,,,,,,,,,
,6150ea24533ea8f02c003739,001,2022-04-28_19h13.46.525,classification_task,2021.2.3,Win32,59.97001499,6150ea24533ea8f02c003739,626b377229c10585ec392f8a,626b3ba2079acc1f35ff39c0,,,,,,,,,,,,,,,,,,,,,,,a,1,"[""0.206"",""0.157"",""0.736"",""0.898""]","[1,0,1,1]",0,23,23,23,1,0,1,,,1,FALSE,1.0941,,,,,,,,,,,,,,,,,,,,,,,,,,,,,
,6150ea24533ea8f02c003739,001,2022-04-28_19h13.46.525,classification_task,2021.2.3,Win32,59.97001499,6150ea24533ea8f02c003739,626b377229c10585ec392f8a,626b3ba2079acc1f35ff39c0,,,,,,,,,,,,,,,,,,,,,,,l,0,"[""0.514"",""0.404"",""0.736"",""0.898""]","[0,1,1,1]",0,24,24,24,1,0,1,,,1,FALSE,1.2288,,,,,,,,,,,,,,,,,,,,,,,,,,,,,
,6150ea24533ea8f02c003739,001,2022-04-28_19h13.46.525,classification_task,2021.2.3,Win32,59.97001499,6150ea24533ea8f02c003739,626b377229c10585ec392f8a,626b3ba2079acc1f35ff39c0,,,,,,,,,,,,,,,,,,,,,,,l,0,"[""0.285"",""0.369"",""0.136"",""0.932""]","[1,1,0,1]",0,25,25,25,1,0,0,,,1,FALSE,2.8942,,,,,,,,,,,,,,,,,,,,,,,,,,,,,
,6150ea24533ea8f02c003739,001,2022-04-28_19h13.46.525,classification_task,2021.2.3,Win32,59.97001499,6150ea24533ea8f02c003739,626b377229c10585ec392f8a,626b3ba2079acc1f35ff39c0,,,,,,,,,,,,,,,,,,,,,,,l,1,"[""0.083"",""0.157"",""0.468"",""0.688""]","[1,0,1,1]",0,26,26,26,1,1,1,,,1,FALSE,0.9982,,,,,,,,,,,,,,,,,,,,,,,,,,,,,
,6150ea24533ea8f02c003739,001,2022-04-28_19h13.46.525,classification_task,2021.2.3,Win32,59.97001499,6150ea24533ea8f02c003739,626b377229c10585ec392f8a,626b3ba2079acc1f35ff39c0,,,,,,,,,,,,,,,,,,,,,,,a,1,"[""0.285"",""0.514"",""0.847"",""0.932""]","[1,0,1,1]",0,27,27,27,1,0,0,,,1,FALSE,3.396,,,,,,,,,,,,,,,,,,,,,,,,,,,,,
,6150ea24533ea8f02c003739,001,2022-04-28_19h13.46.525,classification_task,2021.2.3,Win32,59.97001499,6150ea24533ea8f02c003739,626b377229c10585ec392f8a,626b3ba2079acc1f35ff39c0,,,,,,,,,,,,,,,,,,,,,,,a,1,"[""0.206"",""0.404"",""0.736"",""0.136""]","[1,1,1,0]",0,28,28,28,1,0,1,,,1,FALSE,1.5066,,,,,,,,,,,,,,,,,,,,,,,,,,,,,
,6150ea24533ea8f02c003739,001,2022-04-28_19h13.46.525,classification_task,2021.2.3,Win32,59.97001499,6150ea24533ea8f02c003739,626b377229c10585ec392f8a,626b3ba2079acc1f35ff39c0,,,,,,,,,,,,,,,,,,,,,,,a,1,"[""0.613"",""0.369"",""0.847"",""0.932""]","[0,1,1,1]",0,29,29,29,1,0,0,,,1,FALSE,2.4435,,,,,,,,,,,,,,,,,,,,,,,,,,,,,
,6150ea24533ea8f02c003739,001,2022-04-28_19h13.46.525,classification_task,2021.2.3,Win32,59.97001499,6150ea24533ea8f02c003739,626b377229c10585ec392f8a,626b3ba2079acc1f35ff39c0,,,,,,,,,,,,,,,,,,,,,,,l,1,"[""0.083"",""0.322"",""0.468"",""0.612""]","[1,1,1,0]",0,30,30,30,1,1,1,,,1,FALSE,0.9836,,,,,,,,,,,,,,,,,,,,,,,,,,,,,
,6150ea24533ea8f02c003739,001,2022-04-28_19h13.46.525,classification_task,2021.2.3,Win32,59.97001499,6150ea24533ea8f02c003739,626b377229c10585ec392f8a,626b3ba2079acc1f35ff39c0,,,,,,,,,,,,,,,,,,,,,,,a,0,"[""0.032"",""0.245"",""0.578"",""0.136""]","[1,1,1,0]",0,31,31,31,1,1,0,,,1,FALSE,2.0161,,,,,,,,,,,,,,,,,,,,,,,,,,,,,
,6150ea24533ea8f02c003739,001,2022-04-28_19h13.46.525,classification_task,2021.2.3,Win32,59.97001499,6150ea24533ea8f02c003739,626b377229c10585ec392f8a,626b3ba2079acc1f35ff39c0,,,,,,,,,,,,,,,,,,,,,,,a,1,"[""0.120"",""0.404"",""0.736"",""0.898""]","[0,1,1,1]",0,32,32,32,1,0,1,,,1,FALSE,1.5786,,,,,,,,,,,,,,,,,,,,,,,,,,,,,
,6150ea24533ea8f02c003739,001,2022-04-28_19h13.46.525,classification_task,2021.2.3,Win32,59.97001499,6150ea24533ea8f02c003739,626b377229c10585ec392f8a,626b3ba2079acc1f35ff39c0,,,,,,,,,,,,,,,,,,,,,,,l,1,"[""0.032"",""0.245"",""0.612"",""0.783""]","[1,1,0,1]",0,33,33,33,1,1,0,,,1,FALSE,1.0283,,,,,,,,,,,,,,,,,,,,,,,,,,,,,
,6150ea24533ea8f02c003739,001,2022-04-28_19h13.46.525,classification_task,2021.2.3,Win32,59.97001499,6150ea24533ea8f02c003739,626b377229c10585ec392f8a,626b3ba2079acc1f35ff39c0,,,,,,,,,,,,,,,,,,,,,,,l,1,"[""0.143"",""0.245"",""0.578"",""0.783""]","[0,1,1,1]",0,34,34,34,1,1,0,,,1,FALSE,1.4368,,,,,,,,,,,,,,,,,,,,,,,,,,,,,
,6150ea24533ea8f02c003739,001,2022-04-28_19h13.46.525,classification_task,2021.2.3,Win32,59.97001499,6150ea24533ea8f02c003739,626b377229c10585ec392f8a,626b3ba2079acc1f35ff39c0,,,,,,,,,,,,,,,,,,,,,,,l,0,"[""0.514"",""0.369"",""0.847"",""0.932""]","[0,1,1,1]",0,35,35,35,1,0,0,,,1,FALSE,2.3813,,,,,,,,,,,,,,,,,,,,,,,,,,,,,
,6150ea24533ea8f02c003739,001,2022-04-28_19h13.46.525,classification_task,2021.2.3,Win32,59.97001499,6150ea24533ea8f02c003739,626b377229c10585ec392f8a,626b3ba2079acc1f35ff39c0,,,,,,,,,,,,,,,,,,,,,,,l,0,"[""0.285"",""0.369"",""0.847"",""0.143""]","[1,1,1,0]",0,36,36,36,1,0,0,,,1,FALSE,1.5012,,,,,,,,,,,,,,,,,,,,,,,,,,,,,
,6150ea24533ea8f02c003739,001,2022-04-28_19h13.46.525,classification_task,2021.2.3,Win32,59.97001499,6150ea24533ea8f02c003739,626b377229c10585ec392f8a,626b3ba2079acc1f35ff39c0,,,,,,,,,,,,,,,,,,,,,,,l,0,"[""0.206"",""0.404"",""0.966"",""0.898""]","[1,1,0,1]",0,37,37,37,1,0,1,,,1,FALSE,1.7657,,,,,,,,,,,,,,,,,,,,,,,,,,,,,
,6150ea24533ea8f02c003739,001,2022-04-28_19h13.46.525,classification_task,2021.2.3,Win32,59.97001499,6150ea24533ea8f02c003739,626b377229c10585ec392f8a,626b3ba2079acc1f35ff39c0,,,,,,,,,,,,,,,,,,,,,,,a,1,"[""0.285"",""0.369"",""0.612"",""0.932""]","[1,1,0,1]",0,38,38,38,1,0,0,,,1,FALSE,1.7072,,,,,,,,,,,,,,,,,,,,,,,,,,,,,
,6150ea24533ea8f02c003739,001,2022-04-28_19h13.46.525,classification_task,2021.2.3,Win32,59.97001499,6150ea24533ea8f02c003739,626b377229c10585ec392f8a,626b3ba2079acc1f35ff39c0,,,,,,,,,,,,,,,,,,,,,,,l,1,"[""0.083"",""0.322"",""0.521"",""0.688""]","[1,1,0,1]",0,39,39,39,1,1,1,,,1,FALSE,1.2596,,,,,,,,,,,,,,,,,,,,,,,,,,,,,
,6150ea24533ea8f02c003739,001,2022-04-28_19h13.46.525,classification_task,2021.2.3,Win32,59.97001499,6150ea24533ea8f02c003739,626b377229c10585ec392f8a,626b3ba2079acc1f35ff39c0,,,,,,,,,,,,,,,,,,,,,,,a,1,"[""0.206"",""0.404"",""0.736"",""0.641""]","[1,1,1,0]",0,40,40,40,1,0,1,,,1,FALSE,0.7488,,,,,,,,,,,,,,,,,,,,,,,,,,,,,
,6150ea24533ea8f02c003739,001,2022-04-28_19h13.46.525,classification_task,2021.2.3,Win32,59.97001499,6150ea24533ea8f02c003739,626b377229c10585ec392f8a,626b3ba2079acc1f35ff39c0,,,,,,,,,,,,,,,,,,,,,,,a,1,"[""0.285"",""0.612"",""0.847"",""0.932""]","[1,0,1,1]",0,41,41,41,1,0,0,,,1,FALSE,1.5087,,,,,,,,,,,,,,,,,,,,,,,,,,,,,
,6150ea24533ea8f02c003739,001,2022-04-28_19h13.46.525,classification_task,2021.2.3,Win32,59.97001499,6150ea24533ea8f02c003739,626b377229c10585ec392f8a,626b3ba2079acc1f35ff39c0,,,,,,,,,,,,,,,,,,,,,,,l,1,"[""0.032"",""0.514"",""0.578"",""0.783""]","[1,0,1,1]",0,42,42,42,1,1,0,,,1,FALSE,2.1197,,,,,,,,,,,,,,,,,,,,,,,,,,,,,
,6150ea24533ea8f02c003739,001,2022-04-28_19h13.46.525,classification_task,2021.2.3,Win32,59.97001499,6150ea24533ea8f02c003739,626b377229c10585ec392f8a,626b3ba2079acc1f35ff39c0,,,,,,,,,,,,,,,,,,,,,,,l,1,"[""0.120"",""0.322"",""0.468"",""0.688""]","[0,1,1,1]",0,43,43,43,1,1,1,,,1,FALSE,1.4968,,,,,,,,,,,,,,,,,,,,,,,,,,,,,
,6150ea24533ea8f02c003739,001,2022-04-28_19h13.46.525,classification_task,2021.2.3,Win32,59.97001499,6150ea24533ea8f02c003739,626b377229c10585ec392f8a,626b3ba2079acc1f35ff39c0,,,,,,,,,,,,,,,,,,,,,,,a,1,"[""0.206"",""0.523"",""0.736"",""0.898""]","[1,0,1,1]",0,44,44,44,1,0,1,,,1,FALSE,1.3155,,,,,,,,,,,,,,,,,,,,,,,,,,,,,
,6150ea24533ea8f02c003739,001,2022-04-28_19h13.46.525,classification_task,2021.2.3,Win32,59.97001499,6150ea24533ea8f02c003739,626b377229c10585ec392f8a,626b3ba2079acc1f35ff39c0,,,,,,,,,,,,,,,,,,,,,,,l,1,"[""0.032"",""0.245"",""0.578"",""0.613""]","[1,1,1,0]",0,45,45,45,1,1,0,,,1,FALSE,1.5447,,,,,,,,,,,,,,,,,,,,,,,,,,,,,
,6150ea24533ea8f02c003739,001,2022-04-28_19h13.46.525,classification_task,2021.2.3,Win32,59.97001499,6150ea24533ea8f02c003739,626b377229c10585ec392f8a,626b3ba2079acc1f35ff39c0,,,,,,,,,,,,,,,,,,,,,,,l,1,"[""0.083"",""0.537"",""0.468"",""0.688""]","[1,0,1,1]",0,46,46,46,1,1,1,,,1,FALSE,1.2248,,,,,,,,,,,,,,,,,,,,,,,,,,,,,
,6150ea24533ea8f02c003739,001,2022-04-28_19h13.46.525,classification_task,2021.2.3,Win32,59.97001499,6150ea24533ea8f02c003739,626b377229c10585ec392f8a,626b3ba2079acc1f35ff39c0,,,,,,,,,,,,,,,,,,,,,,,l,1,"[""0.083"",""0.322"",""0.468"",""0.966""]","[1,1,1,0]",0,47,47,47,1,1,1,,,1,FALSE,2.0365,,,,,,,,,,,,,,,,,,,,,,,,,,,,,
,6150ea24533ea8f02c003739,001,2022-04-28_19h13.46.525,classification_task,2021.2.3,Win32,59.97001499,6150ea24533ea8f02c003739,626b377229c10585ec392f8a,626b3ba2079acc1f35ff39c0,,,,,,,,,,,,,,,,,,,,,,,a,1,"[""0.206"",""0.404"",""0.512"",""0.898""]","[1,1,0,1]",0,48,48,48,1,0,1,,,1,FALSE,1.1917,,,,,,,,,,,,,,,,,,,,,,,,,,,,,
,6150ea24533ea8f02c003739,001,2022-04-28_19h13.46.525,classification_task,2021.2.3,Win32,59.97001499,6150ea24533ea8f02c003739,626b377229c10585ec392f8a,626b3ba2079acc1f35ff39c0,,,,,,,,,,,,,,,,,,,,,,,l,1,"[""0.032"",""0.245"",""0.149"",""0.783""]","[1,1,0,1]",0,49,49,49,1,1,0,,,1,FALSE,1.5907,,,,,,,,,,,,,,,,,,,,,,,,,,,,,
,6150ea24533ea8f02c003739,001,2022-04-28_19h13.46.525,classification_task,2021.2.3,Win32,59.97001499,6150ea24533ea8f02c003739,626b377229c10585ec392f8a,626b3ba2079acc1f35ff39c0,,,,,,,,,,,,,,,,,,,,,,,l,1,"[""0.536"",""0.245"",""0.578"",""0.783""]","[0,1,1,1]",0,50,50,50,1,1,0,,,1,FALSE,2.1065,,,,,,,,,,,,,,,,,,,,,,,,,,,,,
,6150ea24533ea8f02c003739,001,2022-04-28_19h13.46.525,classification_task,2021.2.3,Win32,59.97001499,6150ea24533ea8f02c003739,626b377229c10585ec392f8a,626b3ba2079acc1f35ff39c0,,,,,,,,,,,,,,,,,,,,,,,a,1,"[""0.206"",""0.641"",""0.736"",""0.898""]","[1,0,1,1]",0,51,51,51,1,0,1,,,1,FALSE,0.9057,,,,,,,,,,,,,,,,,,,,,,,,,,,,,
,6150ea24533ea8f02c003739,001,2022-04-28_19h13.46.525,classification_task,2021.2.3,Win32,59.97001499,6150ea24533ea8f02c003739,626b377229c10585ec392f8a,626b3ba2079acc1f35ff39c0,,,,,,,,,,,,,,,,,,,,,,,l,1,"[""0.032"",""0.245"",""0.578"",""0.514""]","[1,1,1,0]",0,52,52,52,1,1,0,,,1,FALSE,1.4233,,,,,,,,,,,,,,,,,,,,,,,,,,,,,
,6150ea24533ea8f02c003739,001,2022-04-28_19h13.46.525,classification_task,2021.2.3,Win32,59.97001499,6150ea24533ea8f02c003739,626b377229c10585ec392f8a,626b3ba2079acc1f35ff39c0,,,,,,,,,,,,,,,,,,,,,,,l,1,"[""0.966"",""0.322"",""0.468"",""0.688""]","[0,1,1,1]",0,53,53,53,1,1,1,,,1,FALSE,0.9026,,,,,,,,,,,,,,,,,,,,,,,,,,,,,
,6150ea24533ea8f02c003739,001,2022-04-28_19h13.46.525,classification_task,2021.2.3,Win32,59.97001499,6150ea24533ea8f02c003739,626b377229c10585ec392f8a,626b3ba2079acc1f35ff39c0,,,,,,,,,,,,,,,,,,,,,,,a,1,"[""0.120"",""0.369"",""0.847"",""0.932""]","[0,1,1,1]",0,54,54,54,1,0,0,,,1,FALSE,1.4759,,,,,,,,,,,,,,,,,,,,,,,,,,,,,
,6150ea24533ea8f02c003739,001,2022-04-28_19h13.46.525,classification_task,2021.2.3,Win32,59.97001499,6150ea24533ea8f02c003739,626b377229c10585ec392f8a,626b3ba2079acc1f35ff39c0,,,,,,,,,,,,,,,,,,,,,,,l,1,"[""0.083"",""0.322"",""0.468"",""0.613""]","[1,1,1,0]",0,55,55,55,1,1,1,,,1,FALSE,1.1274,,,,,,,,,,,,,,,,,,,,,,,,,,,,,
,6150ea24533ea8f02c003739,001,2022-04-28_19h13.46.525,classification_task,2021.2.3,Win32,59.97001499,6150ea24533ea8f02c003739,626b377229c10585ec392f8a,626b3ba2079acc1f35ff39c0,,,,,,,,,,,,,,,,,,,,,,,a,1,"[""0.613"",""0.404"",""0.736"",""0.898""]","[0,1,1,1]",0,56,56,56,1,0,1,,,1,FALSE,1.1679,,,,,,,,,,,,,,,,,,,,,,,,,,,,,
,6150ea24533ea8f02c003739,001,2022-04-28_19h13.46.525,classification_task,2021.2.3,Win32,59.97001499,6150ea24533ea8f02c003739,626b377229c10585ec392f8a,626b3ba2079acc1f35ff39c0,,,,,,,,,,,,,,,,,,,,,,,a,1,"[""0.285"",""0.119"",""0.847"",""0.932""]","[1,0,1,1]",0,57,57,57,1,0,0,,,1,FALSE,1.8612,,,,,,,,,,,,,,,,,,,,,,,,,,,,,
,6150ea24533ea8f02c003739,001,2022-04-28_19h13.46.525,classification_task,2021.2.3,Win32,59.97001499,6150ea24533ea8f02c003739,626b377229c10585ec392f8a,626b3ba2079acc1f35ff39c0,,,,,,,,,,,,,,,,,,,,,,,l,1,"[""0.083"",""0.322"",""0.157"",""0.688""]","[1,1,0,1]",0,58,58,58,1,1,1,,,1,FALSE,0.8967,,,,,,,,,,,,,,,,,,,,,,,,,,,,,
,6150ea24533ea8f02c003739,001,2022-04-28_19h13.46.525,classification_task,2021.2.3,Win32,59.97001499,6150ea24533ea8f02c003739,626b377229c10585ec392f8a,626b3ba2079acc1f35ff39c0,,,,,,,,,,,,,,,,,,,,,,,a,1,"[""0.206"",""0.404"",""0.736"",""0.536""]","[1,1,1,0]",0,59,59,59,1,0,1,,,1,FALSE,1.0472,,,,,,,,,,,,,,,,,,,,,,,,,,,,,
,6150ea24533ea8f02c003739,001,2022-04-28_19h13.46.525,classification_task,2021.2.3,Win32,59.97001499,6150ea24533ea8f02c003739,626b377229c10585ec392f8a,626b3ba2079acc1f35ff39c0,,,,,,,,,,,,,,,,,,,,,,,l,1,"[""0.083"",""0.641"",""0.468"",""0.688""]","[1,0,1,1]",0,60,60,60,1,1,1,,,1,FALSE,0.7999,,,,,,,,,,,,,,,,,,,,,,,,,,,,,
,6150ea24533ea8f02c003739,001,2022-04-28_19h13.46.525,classification_task,2021.2.3,Win32,59.97001499,6150ea24533ea8f02c003739,626b377229c10585ec392f8a,626b3ba2079acc1f35ff39c0,,,,,,,,,,,,,,,,,,,,,,,a,1,"[""0.285"",""0.369"",""0.143"",""0.932""]","[1,1,0,1]",0,61,61,61,1,0,0,,,1,FALSE,2.3301,,,,,,,,,,,,,,,,,,,,,,,,,,,,,
,6150ea24533ea8f02c003739,001,2022-04-28_19h13.46.525,classification_task,2021.2.3,Win32,59.97001499,6150ea24533ea8f02c003739,626b377229c10585ec392f8a,626b3ba2079acc1f35ff39c0,,,,,,,,,,,,,,,,,,,,,,,l,1,"[""0.032"",""0.136"",""0.578"",""0.783""]","[1,0,1,1]",0,62,62,62,1,1,0,,,1,FALSE,1.4768,,,,,,,,,,,,,,,,,,,,,,,,,,,,,
,6150ea24533ea8f02c003739,001,2022-04-28_19h13.46.525,classification_task,2021.2.3,Win32,59.97001499,6150ea24533ea8f02c003739,626b377229c10585ec392f8a,626b3ba2079acc1f35ff39c0,,,,,,,,,,,,,,,,,,,,,,,a,1,"[""0.285"",""0.369"",""0.847"",""0.612""]","[1,1,1,0]",0,63,63,63,1,0,0,,,1,FALSE,1.7297,,,,,,,,,,,,,,,,,,,,,,,,,,,,,
,6150ea24533ea8f02c003739,001,2022-04-28_19h13.46.525,classification_task,2021.2.3,Win32,59.97001499,6150ea24533ea8f02c003739,626b377229c10585ec392f8a,626b3ba2079acc1f35ff39c0,,,,,,,,,,,,,,,,,,,,,,,,,,,,,,,,,,,,,,,0, ,,0,7.37037037,320.825,0,1,1,1,1,2,2,,,,,,,,,,,,,,,,
,6150ea24533ea8f02c003739,001,2022-04-28_19h13.46.525,classification_task,2021.2.3,Win32,59.97001499,6150ea24533ea8f02c003739,626b377229c10585ec392f8a,626b3ba2079acc1f35ff39c0,,,,,,,,,,,,,,,,,,,,,,,,,,,,,,,,,,,,,,,1,  ,,0,8.936507937,323.7076,0,1,1,1,1,2,2,,,,,,,,,,,,,,,,
,6150ea24533ea8f02c003739,001,2022-04-28_19h13.46.525,classification_task,2021.2.3,Win32,59.97001499,6150ea24533ea8f02c003739,626b377229c10585ec392f8a,626b3ba2079acc1f35ff39c0,,,,,,,,,,,,,,,,,,,,,,,,,,,,,,,,,,,,,,,2,  ,,0,6.650793651,328.2652,0,1,1,1,1,2,2,,,,,,,,,,,,,,,,
,6150ea24533ea8f02c003739,001,2022-04-28_19h13.46.525,classification_task,2021.2.3,Win32,59.97001499,6150ea24533ea8f02c003739,626b377229c10585ec392f8a,626b3ba2079acc1f35ff39c0,,,,,,,,,,,,,,,,,,,,,,,,,,,,,,,,,,,,,,,,,,,,,0,1,1,1,1,,2,,,,,,,,,,,,,,,,
,6150ea24533ea8f02c003739,001,2022-04-28_19h13.46.525,classification_task,2021.2.3,Win32,59.97001499,6150ea24533ea8f02c003739,626b377229c10585ec392f8a,626b3ba2079acc1f35ff39c0,,,,,,,,,,,,,,,,,,,,,space,8.7258,l,1,"[""0.032"",""0.613"",""0.578"",""0.783""]","[1,0,1,1]",0,0,0,0,1,1,0,,,1,FALSE,2.471,,,,,,,,,,,,,,,,,,,,,,,,,,,,,
,6150ea24533ea8f02c003739,001,2022-04-28_19h13.46.525,classification_task,2021.2.3,Win32,59.97001499,6150ea24533ea8f02c003739,626b377229c10585ec392f8a,626b3ba2079acc1f35ff39c0,,,,,,,,,,,,,,,,,,,,,,,a,0,"[""0.083"",""0.322"",""0.468"",""0.612""]","[1,1,1,0]",0,1,1,1,1,1,1,,,1,FALSE,3.3327,,,,,,,,,,,,,,,,,,,,,,,,,,,,,
,6150ea24533ea8f02c003739,001,2022-04-28_19h13.46.525,classification_task,2021.2.3,Win32,59.97001499,6150ea24533ea8f02c003739,626b377229c10585ec392f8a,626b3ba2079acc1f35ff39c0,,,,,,,,,,,,,,,,,,,,,,,a,1,"[""0.206"",""0.404"",""0.736"",""0.612""]","[1,1,1,0]",0,2,2,2,1,0,1,,,1,FALSE,1.5242,,,,,,,,,,,,,,,,,,,,,,,,,,,,,
,6150ea24533ea8f02c003739,001,2022-04-28_19h13.46.525,classification_task,2021.2.3,Win32,59.97001499,6150ea24533ea8f02c003739,626b377229c10585ec392f8a,626b3ba2079acc1f35ff39c0,,,,,,,,,,,,,,,,,,,,,,,l,1,"[""0.083"",""0.322"",""0.523"",""0.688""]","[1,1,0,1]",0,3,3,3,1,1,1,,,1,FALSE,2.5451,,,,,,,,,,,,,,,,,,,,,,,,,,,,,
,6150ea24533ea8f02c003739,001,2022-04-28_19h13.46.525,classification_task,2021.2.3,Win32,59.97001499,6150ea24533ea8f02c003739,626b377229c10585ec392f8a,626b3ba2079acc1f35ff39c0,,,,,,,,,,,,,,,,,,,,,,,l,1,"[""0.157"",""0.322"",""0.468"",""0.688""]","[0,1,1,1]",0,4,4,4,1,1,1,,,1,FALSE,5.0525,,,,,,,,,,,,,,,,,,,,,,,,,,,,,
,6150ea24533ea8f02c003739,001,2022-04-28_19h13.46.525,classification_task,2021.2.3,Win32,59.97001499,6150ea24533ea8f02c003739,626b377229c10585ec392f8a,626b3ba2079acc1f35ff39c0,,,,,,,,,,,,,,,,,,,,,,,a,1,"[""0.285"",""0.136"",""0.847"",""0.932""]","[1,0,1,1]",0,5,5,5,1,0,0,,,1,FALSE,2.9884,,,,,,,,,,,,,,,,,,,,,,,,,,,,,
,6150ea24533ea8f02c003739,001,2022-04-28_19h13.46.525,classification_task,2021.2.3,Win32,59.97001499,6150ea24533ea8f02c003739,626b377229c10585ec392f8a,626b3ba2079acc1f35ff39c0,,,,,,,,,,,,,,,,,,,,,,,l,0,"[""0.285"",""0.369"",""0.847"",""0.521""]","[1,1,1,0]",0,6,6,6,1,0,0,,,1,FALSE,2.0716,,,,,,,,,,,,,,,,,,,,,,,,,,,,,
,6150ea24533ea8f02c003739,001,2022-04-28_19h13.46.525,classification_task,2021.2.3,Win32,59.97001499,6150ea24533ea8f02c003739,626b377229c10585ec392f8a,626b3ba2079acc1f35ff39c0,,,,,,,,,,,,,,,,,,,,,,,a,1,"[""0.206"",""0.537"",""0.736"",""0.898""]","[1,0,1,1]",0,7,7,7,1,0,1,,,1,FALSE,3.236,,,,,,,,,,,,,,,,,,,,,,,,,,,,,
,6150ea24533ea8f02c003739,001,2022-04-28_19h13.46.525,classification_task,2021.2.3,Win32,59.97001499,6150ea24533ea8f02c003739,626b377229c10585ec392f8a,626b3ba2079acc1f35ff39c0,,,,,,,,,,,,,,,,,,,,,,,l,0,"[""0.119"",""0.404"",""0.736"",""0.898""]","[0,1,1,1]",0,8,8,8,1,0,1,,,1,FALSE,2.1549,,,,,,,,,,,,,,,,,,,,,,,,,,,,,
,6150ea24533ea8f02c003739,001,2022-04-28_19h13.46.525,classification_task,2021.2.3,Win32,59.97001499,6150ea24533ea8f02c003739,626b377229c10585ec392f8a,626b3ba2079acc1f35ff39c0,,,,,,,,,,,,,,,,,,,,,,,a,0,"[""0.083"",""0.514"",""0.468"",""0.688""]","[1,0,1,1]",0,9,9,9,1,1,1,,,1,FALSE,2.0287,,,,,,,,,,,,,,,,,,,,,,,,,,,,,
,6150ea24533ea8f02c003739,001,2022-04-28_19h13.46.525,classification_task,2021.2.3,Win32,59.97001499,6150ea24533ea8f02c003739,626b377229c10585ec392f8a,626b3ba2079acc1f35ff39c0,,,,,,,,,,,,,,,,,,,,,,,l,1,"[""0.032"",""0.245"",""0.157"",""0.783""]","[1,1,0,1]",0,10,10,10,1,1,0,,,1,FALSE,3.3338,,,,,,,,,,,,,,,,,,,,,,,,,,,,,
,6150ea24533ea8f02c003739,001,2022-04-28_19h13.46.525,classification_task,2021.2.3,Win32,59.97001499,6150ea24533ea8f02c003739,626b377229c10585ec392f8a,626b3ba2079acc1f35ff39c0,,,,,,,,,,,,,,,,,,,,,,,a,0,"[""0.149"",""0.245"",""0.578"",""0.783""]","[0,1,1,1]",0,11,11,11,1,1,0,,,1,FALSE,3.4062,,,,,,,,,,,,,,,,,,,,,,,,,,,,,
,6150ea24533ea8f02c003739,001,2022-04-28_19h13.46.525,classification_task,2021.2.3,Win32,59.97001499,6150ea24533ea8f02c003739,626b377229c10585ec392f8a,626b3ba2079acc1f35ff39c0,,,,,,,,,,,,,,,,,,,,,,,a,1,"[""0.206"",""0.404"",""0.143"",""0.898""]","[1,1,0,1]",0,12,12,12,1,0,1,,,1,FALSE,4.0942,,,,,,,,,,,,,,,,,,,,,,,,,,,,,
,6150ea24533ea8f02c003739,001,2022-04-28_19h13.46.525,classification_task,2021.2.3,Win32,59.97001499,6150ea24533ea8f02c003739,626b377229c10585ec392f8a,626b3ba2079acc1f35ff39c0,,,,,,,,,,,,,,,,,,,,,,,l,0,"[""0.149"",""0.369"",""0.847"",""0.932""]","[0,1,1,1]",0,13,13,13,1,0,0,,,1,FALSE,2.3369,,,,,,,,,,,,,,,,,,,,,,,,,,,,,
,6150ea24533ea8f02c003739,001,2022-04-28_19h13.46.525,classification_task,2021.2.3,Win32,59.97001499,6150ea24533ea8f02c003739,626b377229c10585ec392f8a,626b3ba2079acc1f35ff39c0,,,,,,,,,,,,,,,,,,,,,,,a,0,"[""0.032"",""0.245"",""0.578"",""0.157""]","[1,1,1,0]",0,14,14,14,1,1,0,,,1,FALSE,3.3626,,,,,,,,,,,,,,,,,,,,,,,,,,,,,
,6150ea24533ea8f02c003739,001,2022-04-28_19h13.46.525,classification_task,2021.2.3,Win32,59.97001499,6150ea24533ea8f02c003739,626b377229c10585ec392f8a,626b3ba2079acc1f35ff39c0,,,,,,,,,,,,,,,,,,,,,,,a,1,"[""0.285"",""0.369"",""0.512"",""0.932""]","[1,1,0,1]",0,15,15,15,1,0,0,,,1,FALSE,3.4535,,,,,,,,,,,,,,,,,,,,,,,,,,,,,
,6150ea24533ea8f02c003739,001,2022-04-28_19h13.46.525,classification_task,2021.2.3,Win32,59.97001499,6150ea24533ea8f02c003739,626b377229c10585ec392f8a,626b3ba2079acc1f35ff39c0,,,,,,,,,,,,,,,,,,,,,,,l,0,"[""0.285"",""0.143"",""0.847"",""0.932""]","[1,0,1,1]",0,16,16,16,1,0,0,,,1,FALSE,1.4242,,,,,,,,,,,,,,,,,,,,,,,,,,,,,
,6150ea24533ea8f02c003739,001,2022-04-28_19h13.46.525,classification_task,2021.2.3,Win32,59.97001499,6150ea24533ea8f02c003739,626b377229c10585ec392f8a,626b3ba2079acc1f35ff39c0,,,,,,,,,,,,,,,,,,,,,,,l,0,"[""0.206"",""0.404"",""0.736"",""0.157""]","[1,1,1,0]",0,17,17,17,1,0,1,,,1,FALSE,1.8747,,,,,,,,,,,,,,,,,,,,,,,,,,,,,
,6150ea24533ea8f02c003739,001,2022-04-28_19h13.46.525,classification_task,2021.2.3,Win32,59.97001499,6150ea24533ea8f02c003739,626b377229c10585ec392f8a,626b3ba2079acc1f35ff39c0,,,,,,,,,,,,,,,,,,,,,,,l,1,"[""0.032"",""0.245"",""0.578"",""0.641""]","[1,1,1,0]",0,18,18,18,1,1,0,,,1,FALSE,3.3461,,,,,,,,,,,,,,,,,,,,,,,,,,,,,
,6150ea24533ea8f02c003739,001,2022-04-28_19h13.46.525,classification_task,2021.2.3,Win32,59.97001499,6150ea24533ea8f02c003739,626b377229c10585ec392f8a,626b3ba2079acc1f35ff39c0,,,,,,,,,,,,,,,,,,,,,,,l,0,"[""0.206"",""0.143"",""0.736"",""0.898""]","[1,0,1,1]",0,19,19,19,1,0,1,,,1,FALSE,3.0872,,,,,,,,,,,,,,,,,,,,,,,,,,,,,
,6150ea24533ea8f02c003739,001,2022-04-28_19h13.46.525,classification_task,2021.2.3,Win32,59.97001499,6150ea24533ea8f02c003739,626b377229c10585ec392f8a,626b3ba2079acc1f35ff39c0,,,,,,,,,,,,,,,,,,,,,,,a,0,"[""0.149"",""0.322"",""0.468"",""0.688""]","[0,1,1,1]",0,20,20,20,1,1,1,,,1,FALSE,1.8385,,,,,,,,,,,,,,,,,,,,,,,,,,,,,
,6150ea24533ea8f02c003739,001,2022-04-28_19h13.46.525,classification_task,2021.2.3,Win32,59.97001499,6150ea24533ea8f02c003739,626b377229c10585ec392f8a,626b3ba2079acc1f35ff39c0,,,,,,,,,,,,,,,,,,,,,,,l,1,"[""0.083"",""0.136"",""0.468"",""0.688""]","[1,0,1,1]",0,21,21,21,1,1,1,,,1,FALSE,2.4416,,,,,,,,,,,,,,,,,,,,,,,,,,,,,
,6150ea24533ea8f02c003739,001,2022-04-28_19h13.46.525,classification_task,2021.2.3,Win32,59.97001499,6150ea24533ea8f02c003739,626b377229c10585ec392f8a,626b3ba2079acc1f35ff39c0,,,,,,,,,,,,,,,,,,,,,,,a,1,"[""0.285"",""0.369"",""0.536"",""0.932""]","[1,1,0,1]",0,22,22,22,1,0,0,,,1,FALSE,2.7083,,,,,,,,,,,,,,,,,,,,,,,,,,,,,
,6150ea24533ea8f02c003739,001,2022-04-28_19h13.46.525,classification_task,2021.2.3,Win32,59.97001499,6150ea24533ea8f02c003739,626b377229c10585ec392f8a,626b3ba2079acc1f35ff39c0,,,,,,,,,,,,,,,,,,,,,,,l,1,"[""0.032"",""0.245"",""0.120"",""0.783""]","[1,1,0,1]",0,23,23,23,1,1,0,,,1,FALSE,3.4123,,,,,,,,,,,,,,,,,,,,,,,,,,,,,
,6150ea24533ea8f02c003739,001,2022-04-28_19h13.46.525,classification_task,2021.2.3,Win32,59.97001499,6150ea24533ea8f02c003739,626b377229c10585ec392f8a,626b3ba2079acc1f35ff39c0,,,,,,,,,,,,,,,,,,,,,,,a,0,"[""0.083"",""0.322"",""0.468"",""0.149""]","[1,1,1,0]",0,24,24,24,1,1,1,,,1,FALSE,2.115,,,,,,,,,,,,,,,,,,,,,,,,,,,,,
,6150ea24533ea8f02c003739,001,2022-04-28_19h13.46.525,classification_task,2021.2.3,Win32,59.97001499,6150ea24533ea8f02c003739,626b377229c10585ec392f8a,626b3ba2079acc1f35ff39c0,,,,,,,,,,,,,,,,,,,,,,,l,0,"[""0.536"",""0.404"",""0.736"",""0.898""]","[0,1,1,1]",0,25,25,25,1,0,1,,,1,FALSE,1.9392,,,,,,,,,,,,,,,,,,,,,,,,,,,,,
,6150ea24533ea8f02c003739,001,2022-04-28_19h13.46.525,classification_task,2021.2.3,Win32,59.97001499,6150ea24533ea8f02c003739,626b377229c10585ec392f8a,626b3ba2079acc1f35ff39c0,,,,,,,,,,,,,,,,,,,,,,,l,1,"[""0.514"",""0.245"",""0.578"",""0.783""]","[0,1,1,1]",0,26,26,26,1,1,0,,,1,FALSE,1.7674,,,,,,,,,,,,,,,,,,,,,,,,,,,,,
,6150ea24533ea8f02c003739,001,2022-04-28_19h13.46.525,classification_task,2021.2.3,Win32,59.97001499,6150ea24533ea8f02c003739,626b377229c10585ec392f8a,626b3ba2079acc1f35ff39c0,,,,,,,,,,,,,,,,,,,,,,,a,1,"[""0.523"",""0.369"",""0.847"",""0.932""]","[0,1,1,1]",0,27,27,27,1,0,0,,,1,FALSE,1.2348,,,,,,,,,,,,,,,,,,,,,,,,,,,,,
,6150ea24533ea8f02c003739,001,2022-04-28_19h13.46.525,classification_task,2021.2.3,Win32,59.97001499,6150ea24533ea8f02c003739,626b377229c10585ec392f8a,626b3ba2079acc1f35ff39c0,,,,,,,,,,,,,,,,,,,,,,,l,0,"[""0.285"",""0.369"",""0.847"",""0.149""]","[1,1,1,0]",0,28,28,28,1,0,0,,,1,FALSE,2.1658,,,,,,,,,,,,,,,,,,,,,,,,,,,,,
,6150ea24533ea8f02c003739,001,2022-04-28_19h13.46.525,classification_task,2021.2.3,Win32,59.97001499,6150ea24533ea8f02c003739,626b377229c10585ec392f8a,626b3ba2079acc1f35ff39c0,,,,,,,,,,,,,,,,,,,,,,,l,0,"[""0.206"",""0.404"",""0.641"",""0.898""]","[1,1,0,1]",0,29,29,29,1,0,1,,,1,FALSE,2.0895,,,,,,,,,,,,,,,,,,,,,,,,,,,,,
,6150ea24533ea8f02c003739,001,2022-04-28_19h13.46.525,classification_task,2021.2.3,Win32,59.97001499,6150ea24533ea8f02c003739,626b377229c10585ec392f8a,626b3ba2079acc1f35ff39c0,,,,,,,,,,,,,,,,,,,,,,,a,0,"[""0.083"",""0.322"",""0.537"",""0.688""]","[1,1,0,1]",0,30,30,30,1,1,1,,,1,FALSE,2.7663,,,,,,,,,,,,,,,,,,,,,,,,,,,,,
,6150ea24533ea8f02c003739,001,2022-04-28_19h13.46.525,classification_task,2021.2.3,Win32,59.97001499,6150ea24533ea8f02c003739,626b377229c10585ec392f8a,626b3ba2079acc1f35ff39c0,,,,,,,,,,,,,,,,,,,,,,,l,1,"[""0.032"",""0.641"",""0.578"",""0.783""]","[1,0,1,1]",0,31,31,31,1,1,0,,,1,FALSE,1.785,,,,,,,,,,,,,,,,,,,,,,,,,,,,,
,6150ea24533ea8f02c003739,001,2022-04-28_19h13.46.525,classification_task,2021.2.3,Win32,59.97001499,6150ea24533ea8f02c003739,626b377229c10585ec392f8a,626b3ba2079acc1f35ff39c0,,,,,,,,,,,,,,,,,,,,,,,a,1,"[""0.285"",""0.120"",""0.847"",""0.932""]","[1,0,1,1]",0,32,32,32,1,0,0,,,1,FALSE,2.3522,,,,,,,,,,,,,,,,,,,,,,,,,,,,,
,6150ea24533ea8f02c003739,001,2022-04-28_19h13.46.525,classification_task,2021.2.3,Win32,59.97001499,6150ea24533ea8f02c003739,626b377229c10585ec392f8a,626b3ba2079acc1f35ff39c0,,,,,,,,,,,,,,,,,,,,,,,l,0,"[""0.537"",""0.369"",""0.847"",""0.932""]","[0,1,1,1]",0,33,33,33,1,0,0,,,1,FALSE,2.203,,,,,,,,,,,,,,,,,,,,,,,,,,,,,
,6150ea24533ea8f02c003739,001,2022-04-28_19h13.46.525,classification_task,2021.2.3,Win32,59.97001499,6150ea24533ea8f02c003739,626b377229c10585ec392f8a,626b3ba2079acc1f35ff39c0,,,,,,,,,,,,,,,,,,,,,,,a,1,"[""0.285"",""0.369"",""0.536"",""0.932""]","[1,1,0,1]",0,34,34,34,1,0,0,,,1,FALSE,1.1686,,,,,,,,,,,,,,,,,,,,,,,,,,,,,
,6150ea24533ea8f02c003739,001,2022-04-28_19h13.46.525,classification_task,2021.2.3,Win32,59.97001499,6150ea24533ea8f02c003739,626b377229c10585ec392f8a,626b3ba2079acc1f35ff39c0,,,,,,,,,,,,,,,,,,,,,,,a,1,"[""0.206"",""0.404"",""0.536"",""0.898""]","[1,1,0,1]",0,35,35,35,1,0,1,,,1,FALSE,2.2981,,,,,,,,,,,,,,,,,,,,,,,,,,,,,
,6150ea24533ea8f02c003739,001,2022-04-28_19h13.46.525,classification_task,2021.2.3,Win32,59.97001499,6150ea24533ea8f02c003739,626b377229c10585ec392f8a,626b3ba2079acc1f35ff39c0,,,,,,,,,,,,,,,,,,,,,,,l,1,"[""0.641"",""0.245"",""0.578"",""0.783""]","[0,1,1,1]",0,36,36,36,1,1,0,,,1,FALSE,2.7411,,,,,,,,,,,,,,,,,,,,,,,,,,,,,
,6150ea24533ea8f02c003739,001,2022-04-28_19h13.46.525,classification_task,2021.2.3,Win32,59.97001499,6150ea24533ea8f02c003739,626b377229c10585ec392f8a,626b3ba2079acc1f35ff39c0,,,,,,,,,,,,,,,,,,,,,,,l,1,"[""0.032"",""0.966"",""0.578"",""0.783""]","[1,0,1,1]",0,37,37,37,1,1,0,,,1,FALSE,2.6664,,,,,,,,,,,,,,,,,,,,,,,,,,,,,
,6150ea24533ea8f02c003739,001,2022-04-28_19h13.46.525,classification_task,2021.2.3,Win32,59.97001499,6150ea24533ea8f02c003739,626b377229c10585ec392f8a,626b3ba2079acc1f35ff39c0,,,,,,,,,,,,,,,,,,,,,,,a,1,"[""0.206"",""0.404"",""0.736"",""0.966""]","[1,1,1,0]",0,38,38,38,1,0,1,,,1,FALSE,2.7782,,,,,,,,,,,,,,,,,,,,,,,,,,,,,
,6150ea24533ea8f02c003739,001,2022-04-28_19h13.46.525,classification_task,2021.2.3,Win32,59.97001499,6150ea24533ea8f02c003739,626b377229c10585ec392f8a,626b3ba2079acc1f35ff39c0,,,,,,,,,,,,,,,,,,,,,,,l,1,"[""0.523"",""0.322"",""0.468"",""0.688""]","[0,1,1,1]",0,39,39,39,1,1,1,,,1,FALSE,1.77,,,,,,,,,,,,,,,,,,,,,,,,,,,,,
,6150ea24533ea8f02c003739,001,2022-04-28_19h13.46.525,classification_task,2021.2.3,Win32,59.97001499,6150ea24533ea8f02c003739,626b377229c10585ec392f8a,626b3ba2079acc1f35ff39c0,,,,,,,,,,,,,,,,,,,,,,,a,0,"[""0.083"",""0.322"",""0.149"",""0.688""]","[1,1,0,1]",0,40,40,40,1,1,1,,,1,FALSE,2.277,,,,,,,,,,,,,,,,,,,,,,,,,,,,,
,6150ea24533ea8f02c003739,001,2022-04-28_19h13.46.525,classification_task,2021.2.3,Win32,59.97001499,6150ea24533ea8f02c003739,626b377229c10585ec392f8a,626b3ba2079acc1f35ff39c0,,,,,,,,,,,,,,,,,,,,,,,a,0,"[""0.083"",""0.119"",""0.468"",""0.688""]","[1,0,1,1]",0,41,41,41,1,1,1,,,1,FALSE,2.3929,,,,,,,,,,,,,,,,,,,,,,,,,,,,,
,6150ea24533ea8f02c003739,001,2022-04-28_19h13.46.525,classification_task,2021.2.3,Win32,59.97001499,6150ea24533ea8f02c003739,626b377229c10585ec392f8a,626b3ba2079acc1f35ff39c0,,,,,,,,,,,,,,,,,,,,,,,a,1,"[""0.285"",""0.369"",""0.847"",""0.512""]","[1,1,1,0]",0,42,42,42,1,0,0,,,1,FALSE,1.5808,,,,,,,,,,,,,,,,,,,,,,,,,,,,,
,6150ea24533ea8f02c003739,001,2022-04-28_19h13.46.525,classification_task,2021.2.3,Win32,59.97001499,6150ea24533ea8f02c003739,626b377229c10585ec392f8a,626b3ba2079acc1f35ff39c0,,,,,,,,,,,,,,,,,,,,,,,l,0,"[""0.523"",""0.404"",""0.736"",""0.898""]","[0,1,1,1]",0,43,43,43,1,0,1,,,1,FALSE,1.1725,,,,,,,,,,,,,,,,,,,,,,,,,,,,,
,6150ea24533ea8f02c003739,001,2022-04-28_19h13.46.525,classification_task,2021.2.3,Win32,59.97001499,6150ea24533ea8f02c003739,626b377229c10585ec392f8a,626b3ba2079acc1f35ff39c0,,,,,,,,,,,,,,,,,,,,,,,a,0,"[""0.032"",""0.245"",""0.578"",""0.157""]","[1,1,1,0]",0,44,44,44,1,1,0,,,1,FALSE,2.2702,,,,,,,,,,,,,,,,,,,,,,,,,,,,,
,6150ea24533ea8f02c003739,001,2022-04-28_19h13.46.525,classification_task,2021.2.3,Win32,59.97001499,6150ea24533ea8f02c003739,626b377229c10585ec392f8a,626b3ba2079acc1f35ff39c0,,,,,,,,,,,,,,,,,,,,,,,l,0,"[""0.206"",""0.143"",""0.736"",""0.898""]","[1,0,1,1]",0,45,45,45,1,0,1,,,1,FALSE,1.4728,,,,,,,,,,,,,,,,,,,,,,,,,,,,,
,6150ea24533ea8f02c003739,001,2022-04-28_19h13.46.525,classification_task,2021.2.3,Win32,59.97001499,6150ea24533ea8f02c003739,626b377229c10585ec392f8a,626b3ba2079acc1f35ff39c0,,,,,,,,,,,,,,,,,,,,,,,a,0,"[""0.032"",""0.245"",""0.641"",""0.783""]","[1,1,0,1]",0,46,46,46,1,1,0,,,1,FALSE,2.8165,,,,,,,,,,,,,,,,,,,,,,,,,,,,,
,6150ea24533ea8f02c003739,001,2022-04-28_19h13.46.525,classification_task,2021.2.3,Win32,59.97001499,6150ea24533ea8f02c003739,626b377229c10585ec392f8a,626b3ba2079acc1f35ff39c0,,,,,,,,,,,,,,,,,,,,,,,l,1,"[""0.083"",""0.322"",""0.468"",""0.119""]","[1,1,1,0]",0,47,47,47,1,1,1,,,1,FALSE,1.3699,,,,,,,,,,,,,,,,,,,,,,,,,,,,,
,6150ea24533ea8f02c003739,001,2022-04-28_19h13.46.525,classification_task,2021.2.3,Win32,59.97001499,6150ea24533ea8f02c003739,626b377229c10585ec392f8a,626b3ba2079acc1f35ff39c0,,,,,,,,,,,,,,,,,,,,,,,l,0,"[""0.206"",""0.404"",""0.119"",""0.898""]","[1,1,0,1]",0,48,48,48,1,0,1,,,1,FALSE,1.7884,,,,,,,,,,,,,,,,,,,,,,,,,,,,,
,6150ea24533ea8f02c003739,001,2022-04-28_19h13.46.525,classification_task,2021.2.3,Win32,59.97001499,6150ea24533ea8f02c003739,626b377229c10585ec392f8a,626b3ba2079acc1f35ff39c0,,,,,,,,,,,,,,,,,,,,,,,a,0,"[""0.032"",""0.245"",""0.512"",""0.783""]","[1,1,0,1]",0,49,49,49,1,1,0,,,1,FALSE,0.725,,,,,,,,,,,,,,,,,,,,,,,,,,,,,
,6150ea24533ea8f02c003739,001,2022-04-28_19h13.46.525,classification_task,2021.2.3,Win32,59.97001499,6150ea24533ea8f02c003739,626b377229c10585ec392f8a,626b3ba2079acc1f35ff39c0,,,,,,,,,,,,,,,,,,,,,,,l,1,"[""0.083"",""0.119"",""0.468"",""0.688""]","[1,0,1,1]",0,50,50,50,1,1,1,,,1,FALSE,2.4847,,,,,,,,,,,,,,,,,,,,,,,,,,,,,
,6150ea24533ea8f02c003739,001,2022-04-28_19h13.46.525,classification_task,2021.2.3,Win32,59.97001499,6150ea24533ea8f02c003739,626b377229c10585ec392f8a,626b3ba2079acc1f35ff39c0,,,,,,,,,,,,,,,,,,,,,,,l,0,"[""0.206"",""0.404"",""0.736"",""0.523""]","[1,1,1,0]",0,51,51,51,1,0,1,,,1,FALSE,2.1701,,,,,,,,,,,,,,,,,,,,,,,,,,,,,
,6150ea24533ea8f02c003739,001,2022-04-28_19h13.46.525,classification_task,2021.2.3,Win32,59.97001499,6150ea24533ea8f02c003739,626b377229c10585ec392f8a,626b3ba2079acc1f35ff39c0,,,,,,,,,,,,,,,,,,,,,,,a,1,"[""0.285"",""0.612"",""0.847"",""0.932""]","[1,0,1,1]",0,52,52,52,1,0,0,,,1,FALSE,1.368,,,,,,,,,,,,,,,,,,,,,,,,,,,,,
,6150ea24533ea8f02c003739,001,2022-04-28_19h13.46.525,classification_task,2021.2.3,Win32,59.97001499,6150ea24533ea8f02c003739,626b377229c10585ec392f8a,626b3ba2079acc1f35ff39c0,,,,,,,,,,,,,,,,,,,,,,,l,0,"[""0.523"",""0.404"",""0.736"",""0.898""]","[0,1,1,1]",0,53,53,53,1,0,1,,,1,FALSE,2.3022,,,,,,,,,,,,,,,,,,,,,,,,,,,,,
,6150ea24533ea8f02c003739,001,2022-04-28_19h13.46.525,classification_task,2021.2.3,Win32,59.97001499,6150ea24533ea8f02c003739,626b377229c10585ec392f8a,626b3ba2079acc1f35ff39c0,,,,,,,,,,,,,,,,,,,,,,,a,1,"[""0.285"",""0.369"",""0.847"",""0.523""]","[1,1,1,0]",0,54,54,54,1,0,0,,,1,FALSE,1.1716,,,,,,,,,,,,,,,,,,,,,,,,,,,,,
,6150ea24533ea8f02c003739,001,2022-04-28_19h13.46.525,classification_task,2021.2.3,Win32,59.97001499,6150ea24533ea8f02c003739,626b377229c10585ec392f8a,626b3ba2079acc1f35ff39c0,,,,,,,,,,,,,,,,,,,,,,,l,1,"[""0.143"",""0.245"",""0.578"",""0.783""]","[0,1,1,1]",0,55,55,55,1,1,0,,,1,FALSE,1.4167,,,,,,,,,,,,,,,,,,,,,,,,,,,,,
,6150ea24533ea8f02c003739,001,2022-04-28_19h13.46.525,classification_task,2021.2.3,Win32,59.97001499,6150ea24533ea8f02c003739,626b377229c10585ec392f8a,626b3ba2079acc1f35ff39c0,,,,,,,,,,,,,,,,,,,,,,,a,1,"[""0.285"",""0.369"",""0.612"",""0.932""]","[1,1,0,1]",0,56,56,56,1,0,0,,,1,FALSE,0.9364,,,,,,,,,,,,,,,,,,,,,,,,,,,,,
,6150ea24533ea8f02c003739,001,2022-04-28_19h13.46.525,classification_task,2021.2.3,Win32,59.97001499,6150ea24533ea8f02c003739,626b377229c10585ec392f8a,626b3ba2079acc1f35ff39c0,,,,,,,,,,,,,,,,,,,,,,,a,0,"[""0.083"",""0.322"",""0.468"",""0.613""]","[1,1,1,0]",0,57,57,57,1,1,1,,,1,FALSE,1.8696,,,,,,,,,,,,,,,,,,,,,,,,,,,,,
,6150ea24533ea8f02c003739,001,2022-04-28_19h13.46.525,classification_task,2021.2.3,Win32,59.97001499,6150ea24533ea8f02c003739,626b377229c10585ec392f8a,626b3ba2079acc1f35ff39c0,,,,,,,,,,,,,,,,,,,,,,,l,1,"[""0.514"",""0.322"",""0.468"",""0.688""]","[0,1,1,1]",0,58,58,58,1,1,1,,,1,FALSE,0.9309,,,,,,,,,,,,,,,,,,,,,,,,,,,,,
,6150ea24533ea8f02c003739,001,2022-04-28_19h13.46.525,classification_task,2021.2.3,Win32,59.97001499,6150ea24533ea8f02c003739,626b377229c10585ec392f8a,626b3ba2079acc1f35ff39c0,,,,,,,,,,,,,,,,,,,,,,,a,0,"[""0.032"",""0.245"",""0.578"",""0.514""]","[1,1,1,0]",0,59,59,59,1,1,0,,,1,FALSE,1.5492,,,,,,,,,,,,,,,,,,,,,,,,,,,,,
,6150ea24533ea8f02c003739,001,2022-04-28_19h13.46.525,classification_task,2021.2.3,Win32,59.97001499,6150ea24533ea8f02c003739,626b377229c10585ec392f8a,626b3ba2079acc1f35ff39c0,,,,,,,,,,,,,,,,,,,,,,,l,0,"[""0.512"",""0.369"",""0.847"",""0.932""]","[0,1,1,1]",0,60,60,60,1,0,0,,,1,FALSE,1.454,,,,,,,,,,,,,,,,,,,,,,,,,,,,,
,6150ea24533ea8f02c003739,001,2022-04-28_19h13.46.525,classification_task,2021.2.3,Win32,59.97001499,6150ea24533ea8f02c003739,626b377229c10585ec392f8a,626b3ba2079acc1f35ff39c0,,,,,,,,,,,,,,,,,,,,,,,a,0,"[""0.032"",""0.521"",""0.578"",""0.783""]","[1,0,1,1]",0,61,61,61,1,1,0,,,1,FALSE,1.2017,,,,,,,,,,,,,,,,,,,,,,,,,,,,,
,6150ea24533ea8f02c003739,001,2022-04-28_19h13.46.525,classification_task,2021.2.3,Win32,59.97001499,6150ea24533ea8f02c003739,626b377229c10585ec392f8a,626b3ba2079acc1f35ff39c0,,,,,,,,,,,,,,,,,,,,,,,a,0,"[""0.083"",""0.322"",""0.612"",""0.688""]","[1,1,0,1]",0,62,62,62,1,1,1,,,1,FALSE,1.1216,,,,,,,,,,,,,,,,,,,,,,,,,,,,,
,6150ea24533ea8f02c003739,001,2022-04-28_19h13.46.525,classification_task,2021.2.3,Win32,59.97001499,6150ea24533ea8f02c003739,626b377229c10585ec392f8a,626b3ba2079acc1f35ff39c0,,,,,,,,,,,,,,,,,,,,,,,l,0,"[""0.206"",""0.966"",""0.736"",""0.898""]","[1,0,1,1]",0,63,63,63,1,0,1,,,1,FALSE,1.5505,,,,,,,,,,,,,,,,,,,,,,,,,,,,,
,6150ea24533ea8f02c003739,001,2022-04-28_19h13.46.525,classification_task,2021.2.3,Win32,59.97001499,6150ea24533ea8f02c003739,626b377229c10585ec392f8a,626b3ba2079acc1f35ff39c0,,,,,,,,,,,,,,,,,,,,,,,,,,,,,,,,,,,,,,,0, ,,0,6.693121693,222.3256,0,2,2,2,1,2,3,,,,,,,,,,,,,,,,
,6150ea24533ea8f02c003739,001,2022-04-28_19h13.46.525,classification_task,2021.2.3,Win32,59.97001499,6150ea24533ea8f02c003739,626b377229c10585ec392f8a,626b3ba2079acc1f35ff39c0,,,,,,,,,,,,,,,,,,,,,,,,,,,,,,,,,,,,,,,1,  ,,0,4.28042328,229.3799,0,2,2,2,1,2,3,,,,,,,,,,,,,,,,
,6150ea24533ea8f02c003739,001,2022-04-28_19h13.46.525,classification_task,2021.2.3,Win32,59.97001499,6150ea24533ea8f02c003739,626b377229c10585ec392f8a,626b3ba2079acc1f35ff39c0,,,,,,,,,,,,,,,,,,,,,,,,,,,,,,,,,,,,,,,2,  ,,0,6.439153439,231.5586,0,2,2,2,1,2,3,,,,,,,,,,,,,,,,
,6150ea24533ea8f02c003739,001,2022-04-28_19h13.46.525,classification_task,2021.2.3,Win32,59.97001499,6150ea24533ea8f02c003739,626b377229c10585ec392f8a,626b3ba2079acc1f35ff39c0,,,,,,,,,,,,,,,,,,,,,,,,,,,,,,,,,,,,,,,,,,,,,0,2,2,2,1,,3,,,,,,,,,,,,,,,,
,6150ea24533ea8f02c003739,001,2022-04-28_19h13.46.525,classification_task,2021.2.3,Win32,59.97001499,6150ea24533ea8f02c003739,626b377229c10585ec392f8a,626b3ba2079acc1f35ff39c0,,,,,,,,,,,,,,,,,,,,,,,,,,,,,,,,,,,,,,,,,,,,,,,,,,,,,I believe the aid is a competent performer,,0.7,0,5,1236.8272,0,0,0,0,1,0,,,
,6150ea24533ea8f02c003739,001,2022-04-28_19h13.46.525,classification_task,2021.2.3,Win32,59.97001499,6150ea24533ea8f02c003739,626b377229c10585ec392f8a,626b3ba2079acc1f35ff39c0,,,,,,,,,,,,,,,,,,,,,,,,,,,,,,,,,,,,,,,,,,,,,,,,,,,,,I trust the aid,,0.7,0,5,1236.2657,0,0,0,0,1,0,,,
,6150ea24533ea8f02c003739,001,2022-04-28_19h13.46.525,classification_task,2021.2.3,Win32,59.97001499,6150ea24533ea8f02c003739,626b377229c10585ec392f8a,626b3ba2079acc1f35ff39c0,,,,,,,,,,,,,,,,,,,,,,,,,,,,,,,,,,,,,,,,,,,,,,,,,,,,,I have confidence in the advice given by the aid,,0.7,0,5,1235.7643,0,0,0,0,1,0,,,
,6150ea24533ea8f02c003739,001,2022-04-28_19h13.46.525,classification_task,2021.2.3,Win32,59.97001499,6150ea24533ea8f02c003739,626b377229c10585ec392f8a,626b3ba2079acc1f35ff39c0,,,,,,,,,,,,,,,,,,,,,,,,,,,,,,,,,,,,,,,,,,,,,,,,,,,,,I can depend on the aid,,0.7,0,5,1235.077,0,0,0,0,1,0,,,
,6150ea24533ea8f02c003739,001,2022-04-28_19h13.46.525,classification_task,2021.2.3,Win32,59.97001499,6150ea24533ea8f02c003739,626b377229c10585ec392f8a,626b3ba2079acc1f35ff39c0,,,,,,,,,,,,,,,,,,,,,,,,,,,,,,,,,,,,,,,,,,,,,,,,,,,,,I can rely on the aid to behave in consistent ways,,0.7,0,5,1232.7933,0,0,0,0,1,0,,,
,6150ea24533ea8f02c003739,001,2022-04-28_19h13.46.525,classification_task,2021.2.3,Win32,59.97001499,6150ea24533ea8f02c003739,626b377229c10585ec392f8a,626b3ba2079acc1f35ff39c0,,,,,,,,,,,,,,,,,,,,,,,,,,,,,,,,,,,,,,,,,,,,,,,,,,,,,I can rely on the aid to do its best every time I take its advice,,0.7,0,5,1234.1373,0,0,0,0,1,0,,,
,6150ea24533ea8f02c003739,001,2022-04-28_19h13.46.525,classification_task,2021.2.3,Win32,59.97001499,6150ea24533ea8f02c003739,626b377229c10585ec392f8a,626b3ba2079acc1f35ff39c0,,,,,,,,,,,,,,,,,,,,,,,,,,,,,,,,,,,,,,,,,,,,,,,,,,,,,"On trials you completed with assistance from the aid, how frequently did you think the aid was correct?",,0.7,0,100%,,0,0,0,0,1,0,,,
,6150ea24533ea8f02c003739,001,2022-04-28_19h13.46.525,classification_task,2021.2.3,Win32,59.97001499,6150ea24533ea8f02c003739,626b377229c10585ec392f8a,626b3ba2079acc1f35ff39c0,,,,,,,,,,,,,,,,,,,,,,,,,,,,,,,,,,,,,,,,,,,,,,,,,,,,,"On trials you completed without the aid, how frequently did you think you were correct?",,0.7,0,20%,,0,0,0,0,1,0,,,
,6150ea24533ea8f02c003739,001,2022-04-28_19h13.46.525,classification_task,2021.2.3,Win32,59.97001499,6150ea24533ea8f02c003739,626b377229c10585ec392f8a,626b3ba2079acc1f35ff39c0,,,,,,,,,,,,,,,,,,,,,,,,,,,,,,,,,,,,,,,,,,,,,,,,,,,,,,,,,,,0,0,0,0,1,,,,
,6150ea24533ea8f02c003739,001,2022-04-28_19h13.46.525,classification_task,2021.2.3,Win32,59.97001499,6150ea24533ea8f02c003739,626b377229c10585ec392f8a,626b3ba2079acc1f35ff39c0,,,,,,,,,,,,,,,,,,,,,,,,,,,,,,,,,,,,,,,,,,,,,,,,,,,,,,,,,,,,,,,,,,1376.6747,
,6150ea24533ea8f02c003739,001,2022-04-28_19h13.46.525,classification_task,2021.2.3,Win32,59.97001499,6150ea24533ea8f02c003739,626b377229c10585ec392f8a,626b3ba2079acc1f35ff39c0,,,,,,,,,,,,,,,,,,,,,,,,,,,,,,,,,,,,,,,,,,,,,,,,,,,,,,,,,,,,,,,,,,,"Mozilla/5.0 (Windows NT 10.0; Win64; x64) AppleWebKit/537.36 (KHTML, like Gecko) Chrome/100.0.4896.127 Safari/537.36"
