usingWebGL,participant,session,date,expName,psychopyVersion,OS,frameRate,PROLIFIC_PID,STUDY_ID,SESSION_ID,signatures_friend,signatures_foe,band_ranges_top,band_ranges_bottom,formitemText,formtype,formundefined,formitemWidth,formindex,formresponse,formrt,key_resp_2.keys,key_resp_2.rt,tute_resp.keys,tute_resp.rt,tutorial.thisRepN,tutorial.thisTrialN,tutorial.thisN,tutorial.thisIndex,tutorial.ran,key_resp_4.keys,key_resp_4.rt,key_resp.keys,key_resp.corr,key_resp.rt,lines_presented,is_signal_presented,trials.thisRepN,trials.thisTrialN,trials.thisN,trials.thisIndex,trials.ran,vessel,active_band,lines,is_signal,supported_pos,catch_trial,debrief_formindex,debrief_formitemText,debrief_formtype,debrief_formitemWidth,debrief_formresponse,debrief_formrt,phases.thisRepN,phases.thisTrialN,phases.thisN,phases.thisIndex,phases.ran,phases.order,phase,key_resp_3.keys,trustitemText,trusttype,trustitemWidth,trustindex,trustresponse,trustrt,support_status.thisRepN,support_status.thisTrialN,support_status.thisN,support_status.thisIndex,support_status.ran,support_status.order,key_resp_5.keys,key_resp_5.rt,globalClockTime,userAgent
TRUE,6151d44b37b6d4d1f414a2c6,001,2022-04-28_20h06.45.352,classification_task,2021.2.3,Win32,29.94639595,6151d44b37b6d4d1f414a2c6,626b377229c10585ec392f8a,626b39cf40087ce01978a331,,,,,,,,,,,,,,,,,,,,,,,,,,,,,,,,,,,,,,,,,,,,,,,,,,,,,,,,,,,,,,,,,,,,
,6151d44b37b6d4d1f414a2c6,001,2022-04-28_20h06.45.352,classification_task,2021.2.3,Win32,29.94639595,6151d44b37b6d4d1f414a2c6,626b377229c10585ec392f8a,626b39cf40087ce01978a331,"[[""0.254"",""0.486"",""0.881"",""0.917""],[""0.158"",""0.398"",""0.847"",""0.958""]]","[[""0.110"",""0.197"",""0.539"",""0.723""],[""0.059"",""0.303"",""0.599"",""0.810""]]","[1,10]","[100,1000]",Video game experience,,,0.7,0,,,,,,,,,,,,,,,,,,,,,,,,,,,,,,,,,,,,,,,,,,,,,,,,,,,,,,,,,,,
,6151d44b37b6d4d1f414a2c6,001,2022-04-28_20h06.45.352,classification_task,2021.2.3,Win32,29.94639595,6151d44b37b6d4d1f414a2c6,626b377229c10585ec392f8a,626b39cf40087ce01978a331,,,,,Approximately how many hours did you spend playing video games in the last week?,,,0.7,0,7,,,,,,,,,,,,,,,,,,,,,,,,,,,,,,,,,,,,,,,,,,,,,,,,,,,,,,,,,,
,6151d44b37b6d4d1f414a2c6,001,2022-04-28_20h06.45.352,classification_task,2021.2.3,Win32,29.94639595,6151d44b37b6d4d1f414a2c6,626b377229c10585ec392f8a,626b39cf40087ce01978a331,,,,,"Which game did you play the most this year? (Enter ""None"" if you didn't play any)",,,0.7,0,ludo online,,,,,,,,,,,,,,,,,,,,,,,,,,,,,,,,,,,,,,,,,,,,,,,,,,,,,,,,,,
,6151d44b37b6d4d1f414a2c6,001,2022-04-28_20h06.45.352,classification_task,2021.2.3,Win32,29.94639595,6151d44b37b6d4d1f414a2c6,626b377229c10585ec392f8a,626b39cf40087ce01978a331,,,,,Visual perception,,,0.7,0,,,,,,,,,,,,,,,,,,,,,,,,,,,,,,,,,,,,,,,,,,,,,,,,,,,,,,,,,,,
,6151d44b37b6d4d1f414a2c6,001,2022-04-28_20h06.45.352,classification_task,2021.2.3,Win32,29.94639595,6151d44b37b6d4d1f414a2c6,626b377229c10585ec392f8a,626b39cf40087ce01978a331,,,,,Do you have any form of color blindness?,,,0.7,0,No,32.6994,,,,,,,,,,,,,,,,,,,,,,,,,,,,,,,,,,,,,,,,,,,,,,,,,,,,,,,,,
,6151d44b37b6d4d1f414a2c6,001,2022-04-28_20h06.45.352,classification_task,2021.2.3,Win32,29.94639595,6151d44b37b6d4d1f414a2c6,626b377229c10585ec392f8a,626b39cf40087ce01978a331,,,,,Do you use software to change the colour temperature of your screen (e.g. f.lux)?,,,0.7,0,Yes,36.0071,,,,,,,,,,,,,,,,,,,,,,,,,,,,,,,,,,,,,,,,,,,,,,,,,,,,,,,,,
,6151d44b37b6d4d1f414a2c6,001,2022-04-28_20h06.45.352,classification_task,2021.2.3,Win32,29.94639595,6151d44b37b6d4d1f414a2c6,626b377229c10585ec392f8a,626b39cf40087ce01978a331,,,,,,,,,,,,space,39.3685,space,6.8145,0,0,0,0,1,,,,,,,,,,,,,,,,,,,,,,,,,,,,,,,,,,,,,,,,,,,,,,,,
,6151d44b37b6d4d1f414a2c6,001,2022-04-28_20h06.45.352,classification_task,2021.2.3,Win32,29.94639595,6151d44b37b6d4d1f414a2c6,626b377229c10585ec392f8a,626b39cf40087ce01978a331,,,,,,,,,,,,,,space,21.5708,1,0,1,0,1,,,,,,,,,,,,,,,,,,,,,,,,,,,,,,,,,,,,,,,,,,,,,,,,
,6151d44b37b6d4d1f414a2c6,001,2022-04-28_20h06.45.352,classification_task,2021.2.3,Win32,29.94639595,6151d44b37b6d4d1f414a2c6,626b377229c10585ec392f8a,626b39cf40087ce01978a331,,,,,,,,,,,,,,space,41.8688,2,0,2,0,1,,,,,,,,,,,,,,,,,,,,,,,,,,,,,,,,,,,,,,,,,,,,,,,,
,6151d44b37b6d4d1f414a2c6,001,2022-04-28_20h06.45.352,classification_task,2021.2.3,Win32,29.94639595,6151d44b37b6d4d1f414a2c6,626b377229c10585ec392f8a,626b39cf40087ce01978a331,,,,,,,,,,,,,,space,10.505,3,0,3,0,1,,,,,,,,,,,,,,,,,,,,,,,,,,,,,,,,,,,,,,,,,,,,,,,,
,6151d44b37b6d4d1f414a2c6,001,2022-04-28_20h06.45.352,classification_task,2021.2.3,Win32,29.94639595,6151d44b37b6d4d1f414a2c6,626b377229c10585ec392f8a,626b39cf40087ce01978a331,,,,,,,,,,,,,,space,12.6016,4,0,4,0,1,,,,,,,,,,,,,,,,,,,,,,,,,,,,,,,,,,,,,,,,,,,,,,,,
,6151d44b37b6d4d1f414a2c6,001,2022-04-28_20h06.45.352,classification_task,2021.2.3,Win32,29.94639595,6151d44b37b6d4d1f414a2c6,626b377229c10585ec392f8a,626b39cf40087ce01978a331,,,,,,,,,,,,,,,,,,,,,space,19.7656,l,1,4.5061,"[""0.059"",""0.452"",""0.599"",""0.810""]","[1,0,1,1]",0,0,0,0,1,1,1,,,1,FALSE,,,,,,,,,,,,,,,,,,,,,,,,,,,,,,
,6151d44b37b6d4d1f414a2c6,001,2022-04-28_20h06.45.352,classification_task,2021.2.3,Win32,29.94639595,6151d44b37b6d4d1f414a2c6,626b377229c10585ec392f8a,626b39cf40087ce01978a331,,,,,,,,,,,,,,,,,,,,,,,l,1,6.1121,"[""0.110"",""0.197"",""0.642"",""0.723""]","[1,1,0,1]",0,1,1,1,1,1,0,,,1,FALSE,,,,,,,,,,,,,,,,,,,,,,,,,,,,,,
,6151d44b37b6d4d1f414a2c6,001,2022-04-28_20h06.45.352,classification_task,2021.2.3,Win32,29.94639595,6151d44b37b6d4d1f414a2c6,626b377229c10585ec392f8a,626b39cf40087ce01978a331,,,,,,,,,,,,,,,,,,,,,,,a,1,6.9685,"[""0.158"",""0.398"",""0.760"",""0.958""]","[1,1,0,1]",0,2,2,2,1,0,1,,,1,FALSE,,,,,,,,,,,,,,,,,,,,,,,,,,,,,,
,6151d44b37b6d4d1f414a2c6,001,2022-04-28_20h06.45.352,classification_task,2021.2.3,Win32,29.94639595,6151d44b37b6d4d1f414a2c6,626b377229c10585ec392f8a,626b39cf40087ce01978a331,,,,,,,,,,,,,,,,,,,,,,,l,1,3.1979,"[""0.059"",""0.303"",""0.452"",""0.810""]","[1,1,0,1]",0,3,3,3,1,1,1,,,1,FALSE,,,,,,,,,,,,,,,,,,,,,,,,,,,,,,
,6151d44b37b6d4d1f414a2c6,001,2022-04-28_20h06.45.352,classification_task,2021.2.3,Win32,29.94639595,6151d44b37b6d4d1f414a2c6,626b377229c10585ec392f8a,626b39cf40087ce01978a331,,,,,,,,,,,,,,,,,,,,,,,,0,,"[""0.158"",""0.398"",""0.847"",""0.634""]","[1,1,1,0]",0,4,4,4,1,0,1,,,1,FALSE,,,,,,,,,,,,,,,,,,,,,,,,,,,,,,
,6151d44b37b6d4d1f414a2c6,001,2022-04-28_20h06.45.352,classification_task,2021.2.3,Win32,29.94639595,6151d44b37b6d4d1f414a2c6,626b377229c10585ec392f8a,626b39cf40087ce01978a331,,,,,,,,,,,,,,,,,,,,,,,l,1,5.9893,"[""0.110"",""0.197"",""0.539"",""0.659""]","[1,1,1,0]",0,5,5,5,1,1,0,,,1,FALSE,,,,,,,,,,,,,,,,,,,,,,,,,,,,,,
,6151d44b37b6d4d1f414a2c6,001,2022-04-28_20h06.45.352,classification_task,2021.2.3,Win32,29.94639595,6151d44b37b6d4d1f414a2c6,626b377229c10585ec392f8a,626b39cf40087ce01978a331,,,,,,,,,,,,,,,,,,,,,,,a,1,8.6356,"[""0.642"",""0.486"",""0.881"",""0.917""]","[0,1,1,1]",0,6,6,6,1,0,0,,,1,FALSE,,,,,,,,,,,,,,,,,,,,,,,,,,,,,,
,6151d44b37b6d4d1f414a2c6,001,2022-04-28_20h06.45.352,classification_task,2021.2.3,Win32,29.94639595,6151d44b37b6d4d1f414a2c6,626b377229c10585ec392f8a,626b39cf40087ce01978a331,,,,,,,,,,,,,,,,,,,,,,,l,1,7.479,"[""0.634"",""0.197"",""0.539"",""0.723""]","[0,1,1,1]",0,7,7,7,1,1,0,,,1,FALSE,,,,,,,,,,,,,,,,,,,,,,,,,,,,,,
,6151d44b37b6d4d1f414a2c6,001,2022-04-28_20h06.45.352,classification_task,2021.2.3,Win32,29.94639595,6151d44b37b6d4d1f414a2c6,626b377229c10585ec392f8a,626b39cf40087ce01978a331,,,,,,,,,,,,,,,,,,,,,,,a,1,5.0571,"[""0.254"",""0.486"",""0.760"",""0.917""]","[1,1,0,1]",0,8,8,8,1,0,0,,,1,FALSE,,,,,,,,,,,,,,,,,,,,,,,,,,,,,,
,6151d44b37b6d4d1f414a2c6,001,2022-04-28_20h06.45.352,classification_task,2021.2.3,Win32,29.94639595,6151d44b37b6d4d1f414a2c6,626b377229c10585ec392f8a,626b39cf40087ce01978a331,,,,,,,,,,,,,,,,,,,,,,,,0,,"[""0.642"",""0.303"",""0.599"",""0.810""]","[0,1,1,1]",0,9,9,9,1,1,1,,,1,FALSE,,,,,,,,,,,,,,,,,,,,,,,,,,,,,,
,6151d44b37b6d4d1f414a2c6,001,2022-04-28_20h06.45.352,classification_task,2021.2.3,Win32,29.94639595,6151d44b37b6d4d1f414a2c6,626b377229c10585ec392f8a,626b39cf40087ce01978a331,,,,,,,,,,,,,,,,,,,,,,,a,1,8.4539,"[""0.158"",""0.760"",""0.847"",""0.958""]","[1,0,1,1]",0,10,10,10,1,0,1,,,1,FALSE,,,,,,,,,,,,,,,,,,,,,,,,,,,,,,
,6151d44b37b6d4d1f414a2c6,001,2022-04-28_20h06.45.352,classification_task,2021.2.3,Win32,29.94639595,6151d44b37b6d4d1f414a2c6,626b377229c10585ec392f8a,626b39cf40087ce01978a331,,,,,,,,,,,,,,,,,,,,,,,l,1,6.0041,"[""0.110"",""0.443"",""0.539"",""0.723""]","[1,0,1,1]",0,11,11,11,1,1,0,,,1,FALSE,,,,,,,,,,,,,,,,,,,,,,,,,,,,,,
,6151d44b37b6d4d1f414a2c6,001,2022-04-28_20h06.45.352,classification_task,2021.2.3,Win32,29.94639595,6151d44b37b6d4d1f414a2c6,626b377229c10585ec392f8a,626b39cf40087ce01978a331,,,,,,,,,,,,,,,,,,,,,,,a,1,6.2762,"[""0.254"",""0.640"",""0.881"",""0.917""]","[1,0,1,1]",0,12,12,12,1,0,0,,,1,FALSE,,,,,,,,,,,,,,,,,,,,,,,,,,,,,,
,6151d44b37b6d4d1f414a2c6,001,2022-04-28_20h06.45.352,classification_task,2021.2.3,Win32,29.94639595,6151d44b37b6d4d1f414a2c6,626b377229c10585ec392f8a,626b39cf40087ce01978a331,,,,,,,,,,,,,,,,,,,,,,,l,1,6.2503,"[""0.059"",""0.303"",""0.599"",""0.760""]","[1,1,1,0]",0,13,13,13,1,1,1,,,1,FALSE,,,,,,,,,,,,,,,,,,,,,,,,,,,,,,
,6151d44b37b6d4d1f414a2c6,001,2022-04-28_20h06.45.352,classification_task,2021.2.3,Win32,29.94639595,6151d44b37b6d4d1f414a2c6,626b377229c10585ec392f8a,626b39cf40087ce01978a331,,,,,,,,,,,,,,,,,,,,,,,a,1,4.9427,"[""0.254"",""0.486"",""0.881"",""0.672""]","[1,1,1,0]",0,14,14,14,1,0,0,,,1,FALSE,,,,,,,,,,,,,,,,,,,,,,,,,,,,,,
,6151d44b37b6d4d1f414a2c6,001,2022-04-28_20h06.45.352,classification_task,2021.2.3,Win32,29.94639595,6151d44b37b6d4d1f414a2c6,626b377229c10585ec392f8a,626b39cf40087ce01978a331,,,,,,,,,,,,,,,,,,,,,,,l,0,8.4939,"[""0.672"",""0.398"",""0.847"",""0.958""]","[0,1,1,1]",0,15,15,15,1,0,1,,,1,FALSE,,,,,,,,,,,,,,,,,,,,,,,,,,,,,,
,6151d44b37b6d4d1f414a2c6,001,2022-04-28_20h06.45.352,classification_task,2021.2.3,Win32,29.94639595,6151d44b37b6d4d1f414a2c6,626b377229c10585ec392f8a,626b39cf40087ce01978a331,,,,,,,,,,,,,,,,,,,,,,,l,1,3.921,"[""0.110"",""0.672"",""0.539"",""0.723""]","[1,0,1,1]",0,16,16,16,1,1,0,,,1,FALSE,,,,,,,,,,,,,,,,,,,,,,,,,,,,,,
,6151d44b37b6d4d1f414a2c6,001,2022-04-28_20h06.45.352,classification_task,2021.2.3,Win32,29.94639595,6151d44b37b6d4d1f414a2c6,626b377229c10585ec392f8a,626b39cf40087ce01978a331,,,,,,,,,,,,,,,,,,,,,,,a,0,7.0613,"[""0.642"",""0.303"",""0.599"",""0.810""]","[0,1,1,1]",0,17,17,17,1,1,1,,,1,FALSE,,,,,,,,,,,,,,,,,,,,,,,,,,,,,,
,6151d44b37b6d4d1f414a2c6,001,2022-04-28_20h06.45.352,classification_task,2021.2.3,Win32,29.94639595,6151d44b37b6d4d1f414a2c6,626b377229c10585ec392f8a,626b39cf40087ce01978a331,,,,,,,,,,,,,,,,,,,,,,,a,1,6.7897,"[""0.254"",""0.486"",""0.443"",""0.917""]","[1,1,0,1]",0,18,18,18,1,0,0,,,1,FALSE,,,,,,,,,,,,,,,,,,,,,,,,,,,,,,
,6151d44b37b6d4d1f414a2c6,001,2022-04-28_20h06.45.352,classification_task,2021.2.3,Win32,29.94639595,6151d44b37b6d4d1f414a2c6,626b377229c10585ec392f8a,626b39cf40087ce01978a331,,,,,,,,,,,,,,,,,,,,,,,l,1,7.8882,"[""0.643"",""0.197"",""0.539"",""0.723""]","[0,1,1,1]",0,19,19,19,1,1,0,,,1,FALSE,,,,,,,,,,,,,,,,,,,,,,,,,,,,,,
,6151d44b37b6d4d1f414a2c6,001,2022-04-28_20h06.45.352,classification_task,2021.2.3,Win32,29.94639595,6151d44b37b6d4d1f414a2c6,626b377229c10585ec392f8a,626b39cf40087ce01978a331,,,,,,,,,,,,,,,,,,,,,,,l,1,6.403,"[""0.110"",""0.197"",""0.539"",""0.677""]","[1,1,1,0]",0,20,20,20,1,1,0,,,1,FALSE,,,,,,,,,,,,,,,,,,,,,,,,,,,,,,
,6151d44b37b6d4d1f414a2c6,001,2022-04-28_20h06.45.352,classification_task,2021.2.3,Win32,29.94639595,6151d44b37b6d4d1f414a2c6,626b377229c10585ec392f8a,626b39cf40087ce01978a331,,,,,,,,,,,,,,,,,,,,,,,a,1,8.8129,"[""0.348"",""0.398"",""0.847"",""0.958""]","[0,1,1,1]",0,21,21,21,1,0,1,,,1,FALSE,,,,,,,,,,,,,,,,,,,,,,,,,,,,,,
,6151d44b37b6d4d1f414a2c6,001,2022-04-28_20h06.45.352,classification_task,2021.2.3,Win32,29.94639595,6151d44b37b6d4d1f414a2c6,626b377229c10585ec392f8a,626b39cf40087ce01978a331,,,,,,,,,,,,,,,,,,,,,,,a,1,3.9594,"[""0.254"",""0.486"",""0.881"",""0.642""]","[1,1,1,0]",0,22,22,22,1,0,0,,,1,FALSE,,,,,,,,,,,,,,,,,,,,,,,,,,,,,,
,6151d44b37b6d4d1f414a2c6,001,2022-04-28_20h06.45.352,classification_task,2021.2.3,Win32,29.94639595,6151d44b37b6d4d1f414a2c6,626b377229c10585ec392f8a,626b39cf40087ce01978a331,,,,,,,,,,,,,,,,,,,,,,,l,1,4.3811,"[""0.110"",""0.197"",""0.443"",""0.723""]","[1,1,0,1]",0,23,23,23,1,1,0,,,1,FALSE,,,,,,,,,,,,,,,,,,,,,,,,,,,,,,
,6151d44b37b6d4d1f414a2c6,001,2022-04-28_20h06.45.352,classification_task,2021.2.3,Win32,29.94639595,6151d44b37b6d4d1f414a2c6,626b377229c10585ec392f8a,626b39cf40087ce01978a331,,,,,,,,,,,,,,,,,,,,,,,a,1,7.5205,"[""0.158"",""0.398"",""0.447"",""0.958""]","[1,1,0,1]",0,24,24,24,1,0,1,,,1,FALSE,,,,,,,,,,,,,,,,,,,,,,,,,,,,,,
,6151d44b37b6d4d1f414a2c6,001,2022-04-28_20h06.45.352,classification_task,2021.2.3,Win32,29.94639595,6151d44b37b6d4d1f414a2c6,626b377229c10585ec392f8a,626b39cf40087ce01978a331,,,,,,,,,,,,,,,,,,,,,,,a,1,6.3094,"[""0.158"",""0.672"",""0.847"",""0.958""]","[1,0,1,1]",0,25,25,25,1,0,1,,,1,FALSE,,,,,,,,,,,,,,,,,,,,,,,,,,,,,,
,6151d44b37b6d4d1f414a2c6,001,2022-04-28_20h06.45.352,classification_task,2021.2.3,Win32,29.94639595,6151d44b37b6d4d1f414a2c6,626b377229c10585ec392f8a,626b39cf40087ce01978a331,,,,,,,,,,,,,,,,,,,,,,,a,1,4.6013,"[""0.158"",""0.398"",""0.847"",""0.659""]","[1,1,1,0]",0,26,26,26,1,0,1,,,1,FALSE,,,,,,,,,,,,,,,,,,,,,,,,,,,,,,
,6151d44b37b6d4d1f414a2c6,001,2022-04-28_20h06.45.352,classification_task,2021.2.3,Win32,29.94639595,6151d44b37b6d4d1f414a2c6,626b377229c10585ec392f8a,626b39cf40087ce01978a331,,,,,,,,,,,,,,,,,,,,,,,l,1,7.5625,"[""0.059"",""0.348"",""0.599"",""0.810""]","[1,0,1,1]",0,27,27,27,1,1,1,,,1,FALSE,,,,,,,,,,,,,,,,,,,,,,,,,,,,,,
,6151d44b37b6d4d1f414a2c6,001,2022-04-28_20h06.45.352,classification_task,2021.2.3,Win32,29.94639595,6151d44b37b6d4d1f414a2c6,626b377229c10585ec392f8a,626b39cf40087ce01978a331,,,,,,,,,,,,,,,,,,,,,,,l,0,6.3444,"[""0.254"",""0.762"",""0.881"",""0.917""]","[1,0,1,1]",0,28,28,28,1,0,0,,,1,FALSE,,,,,,,,,,,,,,,,,,,,,,,,,,,,,,
,6151d44b37b6d4d1f414a2c6,001,2022-04-28_20h06.45.352,classification_task,2021.2.3,Win32,29.94639595,6151d44b37b6d4d1f414a2c6,626b377229c10585ec392f8a,626b39cf40087ce01978a331,,,,,,,,,,,,,,,,,,,,,,,l,1,9.2571,"[""0.059"",""0.303"",""0.634"",""0.810""]","[1,1,0,1]",0,29,29,29,1,1,1,,,1,FALSE,,,,,,,,,,,,,,,,,,,,,,,,,,,,,,
,6151d44b37b6d4d1f414a2c6,001,2022-04-28_20h06.45.352,classification_task,2021.2.3,Win32,29.94639595,6151d44b37b6d4d1f414a2c6,626b377229c10585ec392f8a,626b39cf40087ce01978a331,,,,,,,,,,,,,,,,,,,,,,,,0,,"[""0.672"",""0.486"",""0.881"",""0.917""]","[0,1,1,1]",0,30,30,30,1,0,0,,,1,FALSE,,,,,,,,,,,,,,,,,,,,,,,,,,,,,,
,6151d44b37b6d4d1f414a2c6,001,2022-04-28_20h06.45.352,classification_task,2021.2.3,Win32,29.94639595,6151d44b37b6d4d1f414a2c6,626b377229c10585ec392f8a,626b39cf40087ce01978a331,,,,,,,,,,,,,,,,,,,,,,,l,1,5.5387,"[""0.059"",""0.303"",""0.599"",""0.672""]","[1,1,1,0]",0,31,31,31,1,1,1,,,1,FALSE,,,,,,,,,,,,,,,,,,,,,,,,,,,,,,
,6151d44b37b6d4d1f414a2c6,001,2022-04-28_20h06.45.352,classification_task,2021.2.3,Win32,29.94639595,6151d44b37b6d4d1f414a2c6,626b377229c10585ec392f8a,626b39cf40087ce01978a331,,,,,,,,,,,,,,,,,,,,,,,,0,,"[""0.059"",""0.303"",""0.599"",""0.677""]","[1,1,1,0]",0,32,32,32,1,1,1,,,1,FALSE,,,,,,,,,,,,,,,,,,,,,,,,,,,,,,
,6151d44b37b6d4d1f414a2c6,001,2022-04-28_20h06.45.352,classification_task,2021.2.3,Win32,29.94639595,6151d44b37b6d4d1f414a2c6,626b377229c10585ec392f8a,626b39cf40087ce01978a331,,,,,,,,,,,,,,,,,,,,,,,a,0,4.0128,"[""0.059"",""0.762"",""0.599"",""0.810""]","[1,0,1,1]",0,33,33,33,1,1,1,,,1,FALSE,,,,,,,,,,,,,,,,,,,,,,,,,,,,,,
,6151d44b37b6d4d1f414a2c6,001,2022-04-28_20h06.45.352,classification_task,2021.2.3,Win32,29.94639595,6151d44b37b6d4d1f414a2c6,626b377229c10585ec392f8a,626b39cf40087ce01978a331,,,,,,,,,,,,,,,,,,,,,,,l,0,2.3654,"[""0.762"",""0.486"",""0.881"",""0.917""]","[0,1,1,1]",0,34,34,34,1,0,0,,,1,FALSE,,,,,,,,,,,,,,,,,,,,,,,,,,,,,,
,6151d44b37b6d4d1f414a2c6,001,2022-04-28_20h06.45.352,classification_task,2021.2.3,Win32,29.94639595,6151d44b37b6d4d1f414a2c6,626b377229c10585ec392f8a,626b39cf40087ce01978a331,,,,,,,,,,,,,,,,,,,,,,,a,0,1.5696,"[""0.110"",""0.197"",""0.447"",""0.723""]","[1,1,0,1]",0,35,35,35,1,1,0,,,1,FALSE,,,,,,,,,,,,,,,,,,,,,,,,,,,,,,
,6151d44b37b6d4d1f414a2c6,001,2022-04-28_20h06.45.352,classification_task,2021.2.3,Win32,29.94639595,6151d44b37b6d4d1f414a2c6,626b377229c10585ec392f8a,626b39cf40087ce01978a331,,,,,,,,,,,,,,,,,,,,,,,l,0,1.8629,"[""0.158"",""0.398"",""0.672"",""0.958""]","[1,1,0,1]",0,36,36,36,1,0,1,,,1,FALSE,,,,,,,,,,,,,,,,,,,,,,,,,,,,,,
,6151d44b37b6d4d1f414a2c6,001,2022-04-28_20h06.45.352,classification_task,2021.2.3,Win32,29.94639595,6151d44b37b6d4d1f414a2c6,626b377229c10585ec392f8a,626b39cf40087ce01978a331,,,,,,,,,,,,,,,,,,,,,,,l,1,1.2766,"[""0.654"",""0.303"",""0.599"",""0.810""]","[0,1,1,1]",0,37,37,37,1,1,1,,,1,FALSE,,,,,,,,,,,,,,,,,,,,,,,,,,,,,,
,6151d44b37b6d4d1f414a2c6,001,2022-04-28_20h06.45.352,classification_task,2021.2.3,Win32,29.94639595,6151d44b37b6d4d1f414a2c6,626b377229c10585ec392f8a,626b39cf40087ce01978a331,,,,,,,,,,,,,,,,,,,,,,,a,1,1.3104,"[""0.254"",""0.672"",""0.881"",""0.917""]","[1,0,1,1]",0,38,38,38,1,0,0,,,1,FALSE,,,,,,,,,,,,,,,,,,,,,,,,,,,,,,
,6151d44b37b6d4d1f414a2c6,001,2022-04-28_20h06.45.352,classification_task,2021.2.3,Win32,29.94639595,6151d44b37b6d4d1f414a2c6,626b377229c10585ec392f8a,626b39cf40087ce01978a331,,,,,,,,,,,,,,,,,,,,,,,l,0,1.2573,"[""0.254"",""0.486"",""0.643"",""0.917""]","[1,1,0,1]",0,39,39,39,1,0,0,,,1,FALSE,,,,,,,,,,,,,,,,,,,,,,,,,,,,,,
,6151d44b37b6d4d1f414a2c6,001,2022-04-28_20h06.45.352,classification_task,2021.2.3,Win32,29.94639595,6151d44b37b6d4d1f414a2c6,626b377229c10585ec392f8a,626b39cf40087ce01978a331,,,,,,,,,,,,,,,,,,,,,,,l,1,1.1466,"[""0.110"",""0.197"",""0.539"",""0.443""]","[1,1,1,0]",0,40,40,40,1,1,0,,,1,FALSE,,,,,,,,,,,,,,,,,,,,,,,,,,,,,,
,6151d44b37b6d4d1f414a2c6,001,2022-04-28_20h06.45.352,classification_task,2021.2.3,Win32,29.94639595,6151d44b37b6d4d1f414a2c6,626b377229c10585ec392f8a,626b39cf40087ce01978a331,,,,,,,,,,,,,,,,,,,,,,,a,1,1.2697,"[""0.158"",""0.634"",""0.847"",""0.958""]","[1,0,1,1]",0,41,41,41,1,0,1,,,1,FALSE,,,,,,,,,,,,,,,,,,,,,,,,,,,,,,
,6151d44b37b6d4d1f414a2c6,001,2022-04-28_20h06.45.352,classification_task,2021.2.3,Win32,29.94639595,6151d44b37b6d4d1f414a2c6,626b377229c10585ec392f8a,626b39cf40087ce01978a331,,,,,,,,,,,,,,,,,,,,,,,a,1,1.77,"[""0.254"",""0.486"",""0.881"",""0.672""]","[1,1,1,0]",0,42,42,42,1,0,0,,,1,FALSE,,,,,,,,,,,,,,,,,,,,,,,,,,,,,,
,6151d44b37b6d4d1f414a2c6,001,2022-04-28_20h06.45.352,classification_task,2021.2.3,Win32,29.94639595,6151d44b37b6d4d1f414a2c6,626b377229c10585ec392f8a,626b39cf40087ce01978a331,,,,,,,,,,,,,,,,,,,,,,,l,1,1.1457,"[""0.059"",""0.303"",""0.643"",""0.810""]","[1,1,0,1]",0,43,43,43,1,1,1,,,1,FALSE,,,,,,,,,,,,,,,,,,,,,,,,,,,,,,
,6151d44b37b6d4d1f414a2c6,001,2022-04-28_20h06.45.352,classification_task,2021.2.3,Win32,29.94639595,6151d44b37b6d4d1f414a2c6,626b377229c10585ec392f8a,626b39cf40087ce01978a331,,,,,,,,,,,,,,,,,,,,,,,l,0,1.269,"[""0.158"",""0.398"",""0.847"",""0.443""]","[1,1,1,0]",0,44,44,44,1,0,1,,,1,FALSE,,,,,,,,,,,,,,,,,,,,,,,,,,,,,,
,6151d44b37b6d4d1f414a2c6,001,2022-04-28_20h06.45.352,classification_task,2021.2.3,Win32,29.94639595,6151d44b37b6d4d1f414a2c6,626b377229c10585ec392f8a,626b39cf40087ce01978a331,,,,,,,,,,,,,,,,,,,,,,,l,0,1.0922,"[""0.762"",""0.398"",""0.847"",""0.958""]","[0,1,1,1]",0,45,45,45,1,0,1,,,1,FALSE,,,,,,,,,,,,,,,,,,,,,,,,,,,,,,
,6151d44b37b6d4d1f414a2c6,001,2022-04-28_20h06.45.352,classification_task,2021.2.3,Win32,29.94639595,6151d44b37b6d4d1f414a2c6,626b377229c10585ec392f8a,626b39cf40087ce01978a331,,,,,,,,,,,,,,,,,,,,,,,a,0,1.1262,"[""0.672"",""0.197"",""0.539"",""0.723""]","[0,1,1,1]",0,46,46,46,1,1,0,,,1,FALSE,,,,,,,,,,,,,,,,,,,,,,,,,,,,,,
,6151d44b37b6d4d1f414a2c6,001,2022-04-28_20h06.45.352,classification_task,2021.2.3,Win32,29.94639595,6151d44b37b6d4d1f414a2c6,626b377229c10585ec392f8a,626b39cf40087ce01978a331,,,,,,,,,,,,,,,,,,,,,,,l,1,1.1445,"[""0.110"",""0.643"",""0.539"",""0.723""]","[1,0,1,1]",0,47,47,47,1,1,0,,,1,FALSE,,,,,,,,,,,,,,,,,,,,,,,,,,,,,,
,6151d44b37b6d4d1f414a2c6,001,2022-04-28_20h06.45.352,classification_task,2021.2.3,Win32,29.94639595,6151d44b37b6d4d1f414a2c6,626b377229c10585ec392f8a,626b39cf40087ce01978a331,,,,,,,,,,,,,,,,,,,,,,,l,1,2.9441,"[""0.059"",""0.303"",""0.599"",""0.654""]","[1,1,1,0]",0,48,48,48,1,1,1,,,1,FALSE,,,,,,,,,,,,,,,,,,,,,,,,,,,,,,
,6151d44b37b6d4d1f414a2c6,001,2022-04-28_20h06.45.352,classification_task,2021.2.3,Win32,29.94639595,6151d44b37b6d4d1f414a2c6,626b377229c10585ec392f8a,626b39cf40087ce01978a331,,,,,,,,,,,,,,,,,,,,,,,a,0,2.1756,"[""0.659"",""0.197"",""0.539"",""0.723""]","[0,1,1,1]",0,49,49,49,1,1,0,,,1,FALSE,,,,,,,,,,,,,,,,,,,,,,,,,,,,,,
,6151d44b37b6d4d1f414a2c6,001,2022-04-28_20h06.45.352,classification_task,2021.2.3,Win32,29.94639595,6151d44b37b6d4d1f414a2c6,626b377229c10585ec392f8a,626b39cf40087ce01978a331,,,,,,,,,,,,,,,,,,,,,,,l,1,0.9071,"[""0.110"",""0.197"",""0.539"",""0.672""]","[1,1,1,0]",0,50,50,50,1,1,0,,,1,FALSE,,,,,,,,,,,,,,,,,,,,,,,,,,,,,,
,6151d44b37b6d4d1f414a2c6,001,2022-04-28_20h06.45.352,classification_task,2021.2.3,Win32,29.94639595,6151d44b37b6d4d1f414a2c6,626b377229c10585ec392f8a,626b39cf40087ce01978a331,,,,,,,,,,,,,,,,,,,,,,,a,0,1.5857,"[""0.059"",""0.303"",""0.672"",""0.810""]","[1,1,0,1]",0,51,51,51,1,1,1,,,1,FALSE,,,,,,,,,,,,,,,,,,,,,,,,,,,,,,
,6151d44b37b6d4d1f414a2c6,001,2022-04-28_20h06.45.352,classification_task,2021.2.3,Win32,29.94639595,6151d44b37b6d4d1f414a2c6,626b377229c10585ec392f8a,626b39cf40087ce01978a331,,,,,,,,,,,,,,,,,,,,,,,l,1,0.9218,"[""0.059"",""0.642"",""0.599"",""0.810""]","[1,0,1,1]",0,52,52,52,1,1,1,,,1,FALSE,,,,,,,,,,,,,,,,,,,,,,,,,,,,,,
,6151d44b37b6d4d1f414a2c6,001,2022-04-28_20h06.45.352,classification_task,2021.2.3,Win32,29.94639595,6151d44b37b6d4d1f414a2c6,626b377229c10585ec392f8a,626b39cf40087ce01978a331,,,,,,,,,,,,,,,,,,,,,,,a,1,1.4201,"[""0.254"",""0.486"",""0.881"",""0.659""]","[1,1,1,0]",0,53,53,53,1,0,0,,,1,FALSE,,,,,,,,,,,,,,,,,,,,,,,,,,,,,,
,6151d44b37b6d4d1f414a2c6,001,2022-04-28_20h06.45.352,classification_task,2021.2.3,Win32,29.94639595,6151d44b37b6d4d1f414a2c6,626b377229c10585ec392f8a,626b39cf40087ce01978a331,,,,,,,,,,,,,,,,,,,,,,,a,0,1.8411,"[""0.110"",""0.654"",""0.539"",""0.723""]","[1,0,1,1]",0,54,54,54,1,1,0,,,1,FALSE,,,,,,,,,,,,,,,,,,,,,,,,,,,,,,
,6151d44b37b6d4d1f414a2c6,001,2022-04-28_20h06.45.352,classification_task,2021.2.3,Win32,29.94639595,6151d44b37b6d4d1f414a2c6,626b377229c10585ec392f8a,626b39cf40087ce01978a331,,,,,,,,,,,,,,,,,,,,,,,a,1,1.5829,"[""0.254"",""0.486"",""0.659"",""0.917""]","[1,1,0,1]",0,55,55,55,1,0,0,,,1,FALSE,,,,,,,,,,,,,,,,,,,,,,,,,,,,,,
,6151d44b37b6d4d1f414a2c6,001,2022-04-28_20h06.45.352,classification_task,2021.2.3,Win32,29.94639595,6151d44b37b6d4d1f414a2c6,626b377229c10585ec392f8a,626b39cf40087ce01978a331,,,,,,,,,,,,,,,,,,,,,,,a,1,1.8526,"[""0.158"",""0.398"",""0.847"",""0.659""]","[1,1,1,0]",0,56,56,56,1,0,1,,,1,FALSE,,,,,,,,,,,,,,,,,,,,,,,,,,,,,,
,6151d44b37b6d4d1f414a2c6,001,2022-04-28_20h06.45.352,classification_task,2021.2.3,Win32,29.94639595,6151d44b37b6d4d1f414a2c6,626b377229c10585ec392f8a,626b39cf40087ce01978a331,,,,,,,,,,,,,,,,,,,,,,,l,1,1.7511,"[""0.110"",""0.197"",""0.447"",""0.723""]","[1,1,0,1]",0,57,57,57,1,1,0,,,1,FALSE,,,,,,,,,,,,,,,,,,,,,,,,,,,,,,
,6151d44b37b6d4d1f414a2c6,001,2022-04-28_20h06.45.352,classification_task,2021.2.3,Win32,29.94639595,6151d44b37b6d4d1f414a2c6,626b377229c10585ec392f8a,626b39cf40087ce01978a331,,,,,,,,,,,,,,,,,,,,,,,a,1,2.1458,"[""0.254"",""0.634"",""0.881"",""0.917""]","[1,0,1,1]",0,58,58,58,1,0,0,,,1,FALSE,,,,,,,,,,,,,,,,,,,,,,,,,,,,,,
,6151d44b37b6d4d1f414a2c6,001,2022-04-28_20h06.45.352,classification_task,2021.2.3,Win32,29.94639595,6151d44b37b6d4d1f414a2c6,626b377229c10585ec392f8a,626b39cf40087ce01978a331,,,,,,,,,,,,,,,,,,,,,,,l,0,2.8855,"[""0.158"",""0.634"",""0.847"",""0.958""]","[1,0,1,1]",0,59,59,59,1,0,1,,,1,FALSE,,,,,,,,,,,,,,,,,,,,,,,,,,,,,,
,6151d44b37b6d4d1f414a2c6,001,2022-04-28_20h06.45.352,classification_task,2021.2.3,Win32,29.94639595,6151d44b37b6d4d1f414a2c6,626b377229c10585ec392f8a,626b39cf40087ce01978a331,,,,,,,,,,,,,,,,,,,,,,,l,0,2.2469,"[""0.672"",""0.398"",""0.847"",""0.958""]","[0,1,1,1]",0,60,60,60,1,0,1,,,1,FALSE,,,,,,,,,,,,,,,,,,,,,,,,,,,,,,
,6151d44b37b6d4d1f414a2c6,001,2022-04-28_20h06.45.352,classification_task,2021.2.3,Win32,29.94639595,6151d44b37b6d4d1f414a2c6,626b377229c10585ec392f8a,626b39cf40087ce01978a331,,,,,,,,,,,,,,,,,,,,,,,a,1,1.2212,"[""0.158"",""0.398"",""0.642"",""0.958""]","[1,1,0,1]",0,61,61,61,1,0,1,,,1,FALSE,,,,,,,,,,,,,,,,,,,,,,,,,,,,,,
,6151d44b37b6d4d1f414a2c6,001,2022-04-28_20h06.45.352,classification_task,2021.2.3,Win32,29.94639595,6151d44b37b6d4d1f414a2c6,626b377229c10585ec392f8a,626b39cf40087ce01978a331,,,,,,,,,,,,,,,,,,,,,,,a,1,2.4593,"[""0.640"",""0.486"",""0.881"",""0.917""]","[0,1,1,1]",0,62,62,62,1,0,0,,,1,FALSE,,,,,,,,,,,,,,,,,,,,,,,,,,,,,,
,6151d44b37b6d4d1f414a2c6,001,2022-04-28_20h06.45.352,classification_task,2021.2.3,Win32,29.94639595,6151d44b37b6d4d1f414a2c6,626b377229c10585ec392f8a,626b39cf40087ce01978a331,,,,,,,,,,,,,,,,,,,,,,,a,0,1.8108,"[""0.659"",""0.303"",""0.599"",""0.810""]","[0,1,1,1]",0,63,63,63,1,1,1,,,1,FALSE,,,,,,,,,,,,,,,,,,,,,,,,,,,,,,
,6151d44b37b6d4d1f414a2c6,001,2022-04-28_20h06.45.352,classification_task,2021.2.3,Win32,29.94639595,6151d44b37b6d4d1f414a2c6,626b377229c10585ec392f8a,626b39cf40087ce01978a331,,,,,,,,,,,,,,,,,,,,,,,,,,,,,,,,,,,,,,,0, ,,0,10,567.009,0,0,0,0,1,2,1,,,,,,,,,,,,,,,,,
,6151d44b37b6d4d1f414a2c6,001,2022-04-28_20h06.45.352,classification_task,2021.2.3,Win32,29.94639595,6151d44b37b6d4d1f414a2c6,626b377229c10585ec392f8a,626b39cf40087ce01978a331,,,,,,,,,,,,,,,,,,,,,,,,,,,,,,,,,,,,,,,1,  ,,0,7.118600305,573.4025,0,0,0,0,1,2,1,,,,,,,,,,,,,,,,,
,6151d44b37b6d4d1f414a2c6,001,2022-04-28_20h06.45.352,classification_task,2021.2.3,Win32,29.94639595,6151d44b37b6d4d1f414a2c6,626b377229c10585ec392f8a,626b39cf40087ce01978a331,,,,,,,,,,,,,,,,,,,,,,,,,,,,,,,,,,,,,,,2,  ,,0,5.25815901,580.143,0,0,0,0,1,2,1,,,,,,,,,,,,,,,,,
,6151d44b37b6d4d1f414a2c6,001,2022-04-28_20h06.45.352,classification_task,2021.2.3,Win32,29.94639595,6151d44b37b6d4d1f414a2c6,626b377229c10585ec392f8a,626b39cf40087ce01978a331,,,,,,,,,,,,,,,,,,,,,,,,,,,,,,,,,,,,,,,,,,,,,0,0,0,0,1,,1,,,,,,,,,,,,,,,,,
,6151d44b37b6d4d1f414a2c6,001,2022-04-28_20h06.45.352,classification_task,2021.2.3,Win32,29.94639595,6151d44b37b6d4d1f414a2c6,626b377229c10585ec392f8a,626b39cf40087ce01978a331,,,,,,,,,,,,,,,,,,,,,space,21.6847,,0,,"[""0.254"",""0.640"",""0.881"",""0.917""]","[1,0,1,1]",0,0,0,0,1,0,0,,,1,FALSE,,,,,,,,,,,,,,,,,,,,,,,,,,,,,,
,6151d44b37b6d4d1f414a2c6,001,2022-04-28_20h06.45.352,classification_task,2021.2.3,Win32,29.94639595,6151d44b37b6d4d1f414a2c6,626b377229c10585ec392f8a,626b39cf40087ce01978a331,,,,,,,,,,,,,,,,,,,,,,,a,0,3.9887,"[""0.672"",""0.197"",""0.539"",""0.723""]","[0,1,1,1]",0,1,1,1,1,1,0,,,1,FALSE,,,,,,,,,,,,,,,,,,,,,,,,,,,,,,
,6151d44b37b6d4d1f414a2c6,001,2022-04-28_20h06.45.352,classification_task,2021.2.3,Win32,29.94639595,6151d44b37b6d4d1f414a2c6,626b377229c10585ec392f8a,626b39cf40087ce01978a331,,,,,,,,,,,,,,,,,,,,,,,l,1,2.9606,"[""0.059"",""0.303"",""0.452"",""0.810""]","[1,1,0,1]",0,2,2,2,1,1,1,,,1,FALSE,,,,,,,,,,,,,,,,,,,,,,,,,,,,,,
,6151d44b37b6d4d1f414a2c6,001,2022-04-28_20h06.45.352,classification_task,2021.2.3,Win32,29.94639595,6151d44b37b6d4d1f414a2c6,626b377229c10585ec392f8a,626b39cf40087ce01978a331,,,,,,,,,,,,,,,,,,,,,,,a,1,1.8761,"[""0.158"",""0.398"",""0.847"",""0.677""]","[1,1,1,0]",0,3,3,3,1,0,1,,,1,FALSE,,,,,,,,,,,,,,,,,,,,,,,,,,,,,,
,6151d44b37b6d4d1f414a2c6,001,2022-04-28_20h06.45.352,classification_task,2021.2.3,Win32,29.94639595,6151d44b37b6d4d1f414a2c6,626b377229c10585ec392f8a,626b39cf40087ce01978a331,,,,,,,,,,,,,,,,,,,,,,,a,0,3.1823,"[""0.110"",""0.197"",""0.539"",""0.640""]","[1,1,1,0]",0,4,4,4,1,1,0,,,1,FALSE,,,,,,,,,,,,,,,,,,,,,,,,,,,,,,
,6151d44b37b6d4d1f414a2c6,001,2022-04-28_20h06.45.352,classification_task,2021.2.3,Win32,29.94639595,6151d44b37b6d4d1f414a2c6,626b377229c10585ec392f8a,626b39cf40087ce01978a331,,,,,,,,,,,,,,,,,,,,,,,a,1,2.3475,"[""0.254"",""0.486"",""0.443"",""0.917""]","[1,1,0,1]",0,5,5,5,1,0,0,,,1,FALSE,,,,,,,,,,,,,,,,,,,,,,,,,,,,,,
,6151d44b37b6d4d1f414a2c6,001,2022-04-28_20h06.45.352,classification_task,2021.2.3,Win32,29.94639595,6151d44b37b6d4d1f414a2c6,626b377229c10585ec392f8a,626b39cf40087ce01978a331,,,,,,,,,,,,,,,,,,,,,,,l,1,1.2147,"[""0.110"",""0.197"",""0.677"",""0.723""]","[1,1,0,1]",0,6,6,6,1,1,0,,,1,FALSE,,,,,,,,,,,,,,,,,,,,,,,,,,,,,,
,6151d44b37b6d4d1f414a2c6,001,2022-04-28_20h06.45.352,classification_task,2021.2.3,Win32,29.94639595,6151d44b37b6d4d1f414a2c6,626b377229c10585ec392f8a,626b39cf40087ce01978a331,,,,,,,,,,,,,,,,,,,,,,,l,1,1.7529,"[""0.659"",""0.303"",""0.599"",""0.810""]","[0,1,1,1]",0,7,7,7,1,1,1,,,1,FALSE,,,,,,,,,,,,,,,,,,,,,,,,,,,,,,
,6151d44b37b6d4d1f414a2c6,001,2022-04-28_20h06.45.352,classification_task,2021.2.3,Win32,29.94639595,6151d44b37b6d4d1f414a2c6,626b377229c10585ec392f8a,626b39cf40087ce01978a331,,,,,,,,,,,,,,,,,,,,,,,l,1,1.9768,"[""0.059"",""0.303"",""0.599"",""0.443""]","[1,1,1,0]",0,8,8,8,1,1,1,,,1,FALSE,,,,,,,,,,,,,,,,,,,,,,,,,,,,,,
,6151d44b37b6d4d1f414a2c6,001,2022-04-28_20h06.45.352,classification_task,2021.2.3,Win32,29.94639595,6151d44b37b6d4d1f414a2c6,626b377229c10585ec392f8a,626b39cf40087ce01978a331,,,,,,,,,,,,,,,,,,,,,,,a,1,1.2416,"[""0.254"",""0.486"",""0.881"",""0.677""]","[1,1,1,0]",0,9,9,9,1,0,0,,,1,FALSE,,,,,,,,,,,,,,,,,,,,,,,,,,,,,,
,6151d44b37b6d4d1f414a2c6,001,2022-04-28_20h06.45.352,classification_task,2021.2.3,Win32,29.94639595,6151d44b37b6d4d1f414a2c6,626b377229c10585ec392f8a,626b39cf40087ce01978a331,,,,,,,,,,,,,,,,,,,,,,,a,1,2.1565,"[""0.158"",""0.642"",""0.847"",""0.958""]","[1,0,1,1]",0,10,10,10,1,0,1,,,1,FALSE,,,,,,,,,,,,,,,,,,,,,,,,,,,,,,
,6151d44b37b6d4d1f414a2c6,001,2022-04-28_20h06.45.352,classification_task,2021.2.3,Win32,29.94639595,6151d44b37b6d4d1f414a2c6,626b377229c10585ec392f8a,626b39cf40087ce01978a331,,,,,,,,,,,,,,,,,,,,,,,l,1,2.9339,"[""0.110"",""0.643"",""0.539"",""0.723""]","[1,0,1,1]",0,11,11,11,1,1,0,,,1,FALSE,,,,,,,,,,,,,,,,,,,,,,,,,,,,,,
,6151d44b37b6d4d1f414a2c6,001,2022-04-28_20h06.45.352,classification_task,2021.2.3,Win32,29.94639595,6151d44b37b6d4d1f414a2c6,626b377229c10585ec392f8a,626b39cf40087ce01978a331,,,,,,,,,,,,,,,,,,,,,,,l,0,2.5222,"[""0.447"",""0.486"",""0.881"",""0.917""]","[0,1,1,1]",0,12,12,12,1,0,0,,,1,FALSE,,,,,,,,,,,,,,,,,,,,,,,,,,,,,,
,6151d44b37b6d4d1f414a2c6,001,2022-04-28_20h06.45.352,classification_task,2021.2.3,Win32,29.94639595,6151d44b37b6d4d1f414a2c6,626b377229c10585ec392f8a,626b39cf40087ce01978a331,,,,,,,,,,,,,,,,,,,,,,,a,1,1.819,"[""0.672"",""0.398"",""0.847"",""0.958""]","[0,1,1,1]",0,13,13,13,1,0,1,,,1,FALSE,,,,,,,,,,,,,,,,,,,,,,,,,,,,,,
,6151d44b37b6d4d1f414a2c6,001,2022-04-28_20h06.45.352,classification_task,2021.2.3,Win32,29.94639595,6151d44b37b6d4d1f414a2c6,626b377229c10585ec392f8a,626b39cf40087ce01978a331,,,,,,,,,,,,,,,,,,,,,,,a,1,1.4683,"[""0.158"",""0.398"",""0.672"",""0.958""]","[1,1,0,1]",0,14,14,14,1,0,1,,,1,FALSE,,,,,,,,,,,,,,,,,,,,,,,,,,,,,,
,6151d44b37b6d4d1f414a2c6,001,2022-04-28_20h06.45.352,classification_task,2021.2.3,Win32,29.94639595,6151d44b37b6d4d1f414a2c6,626b377229c10585ec392f8a,626b39cf40087ce01978a331,,,,,,,,,,,,,,,,,,,,,,,l,1,1.8005,"[""0.059"",""0.643"",""0.599"",""0.810""]","[1,0,1,1]",0,15,15,15,1,1,1,,,1,FALSE,,,,,,,,,,,,,,,,,,,,,,,,,,,,,,
,6151d44b37b6d4d1f414a2c6,001,2022-04-28_20h06.45.352,classification_task,2021.2.3,Win32,29.94639595,6151d44b37b6d4d1f414a2c6,626b377229c10585ec392f8a,626b39cf40087ce01978a331,,,,,,,,,,,,,,,,,,,,,,,a,1,1.6409,"[""0.443"",""0.398"",""0.847"",""0.958""]","[0,1,1,1]",0,16,16,16,1,0,1,,,1,FALSE,,,,,,,,,,,,,,,,,,,,,,,,,,,,,,
,6151d44b37b6d4d1f414a2c6,001,2022-04-28_20h06.45.352,classification_task,2021.2.3,Win32,29.94639595,6151d44b37b6d4d1f414a2c6,626b377229c10585ec392f8a,626b39cf40087ce01978a331,,,,,,,,,,,,,,,,,,,,,,,a,1,1.4632,"[""0.158"",""0.398"",""0.642"",""0.958""]","[1,1,0,1]",0,17,17,17,1,0,1,,,1,FALSE,,,,,,,,,,,,,,,,,,,,,,,,,,,,,,
,6151d44b37b6d4d1f414a2c6,001,2022-04-28_20h06.45.352,classification_task,2021.2.3,Win32,29.94639595,6151d44b37b6d4d1f414a2c6,626b377229c10585ec392f8a,626b39cf40087ce01978a331,,,,,,,,,,,,,,,,,,,,,,,l,0,2.6609,"[""0.254"",""0.348"",""0.881"",""0.917""]","[1,0,1,1]",0,18,18,18,1,0,0,,,1,FALSE,,,,,,,,,,,,,,,,,,,,,,,,,,,,,,
,6151d44b37b6d4d1f414a2c6,001,2022-04-28_20h06.45.352,classification_task,2021.2.3,Win32,29.94639595,6151d44b37b6d4d1f414a2c6,626b377229c10585ec392f8a,626b39cf40087ce01978a331,,,,,,,,,,,,,,,,,,,,,,,a,1,1.3583,"[""0.158"",""0.677"",""0.847"",""0.958""]","[1,0,1,1]",0,19,19,19,1,0,1,,,1,FALSE,,,,,,,,,,,,,,,,,,,,,,,,,,,,,,
,6151d44b37b6d4d1f414a2c6,001,2022-04-28_20h06.45.352,classification_task,2021.2.3,Win32,29.94639595,6151d44b37b6d4d1f414a2c6,626b377229c10585ec392f8a,626b39cf40087ce01978a331,,,,,,,,,,,,,,,,,,,,,,,l,1,1.8691,"[""0.762"",""0.197"",""0.539"",""0.723""]","[0,1,1,1]",0,20,20,20,1,1,0,,,1,FALSE,,,,,,,,,,,,,,,,,,,,,,,,,,,,,,
,6151d44b37b6d4d1f414a2c6,001,2022-04-28_20h06.45.352,classification_task,2021.2.3,Win32,29.94639595,6151d44b37b6d4d1f414a2c6,626b377229c10585ec392f8a,626b39cf40087ce01978a331,,,,,,,,,,,,,,,,,,,,,,,a,1,1.7181,"[""0.254"",""0.486"",""0.881"",""0.634""]","[1,1,1,0]",0,21,21,21,1,0,0,,,1,FALSE,,,,,,,,,,,,,,,,,,,,,,,,,,,,,,
,6151d44b37b6d4d1f414a2c6,001,2022-04-28_20h06.45.352,classification_task,2021.2.3,Win32,29.94639595,6151d44b37b6d4d1f414a2c6,626b377229c10585ec392f8a,626b39cf40087ce01978a331,,,,,,,,,,,,,,,,,,,,,,,l,1,1.9953,"[""0.110"",""0.197"",""0.443"",""0.723""]","[1,1,0,1]",0,22,22,22,1,1,0,,,1,FALSE,,,,,,,,,,,,,,,,,,,,,,,,,,,,,,
,6151d44b37b6d4d1f414a2c6,001,2022-04-28_20h06.45.352,classification_task,2021.2.3,Win32,29.94639595,6151d44b37b6d4d1f414a2c6,626b377229c10585ec392f8a,626b39cf40087ce01978a331,,,,,,,,,,,,,,,,,,,,,,,l,1,1.3278,"[""0.059"",""0.760"",""0.599"",""0.810""]","[1,0,1,1]",0,23,23,23,1,1,1,,,1,FALSE,,,,,,,,,,,,,,,,,,,,,,,,,,,,,,
,6151d44b37b6d4d1f414a2c6,001,2022-04-28_20h06.45.352,classification_task,2021.2.3,Win32,29.94639595,6151d44b37b6d4d1f414a2c6,626b377229c10585ec392f8a,626b39cf40087ce01978a331,,,,,,,,,,,,,,,,,,,,,,,l,1,1.2005,"[""0.642"",""0.303"",""0.599"",""0.810""]","[0,1,1,1]",0,24,24,24,1,1,1,,,1,FALSE,,,,,,,,,,,,,,,,,,,,,,,,,,,,,,
,6151d44b37b6d4d1f414a2c6,001,2022-04-28_20h06.45.352,classification_task,2021.2.3,Win32,29.94639595,6151d44b37b6d4d1f414a2c6,626b377229c10585ec392f8a,626b39cf40087ce01978a331,,,,,,,,,,,,,,,,,,,,,,,l,1,0.6784,"[""0.059"",""0.303"",""0.348"",""0.810""]","[1,1,0,1]",0,25,25,25,1,1,1,,,1,FALSE,,,,,,,,,,,,,,,,,,,,,,,,,,,,,,
,6151d44b37b6d4d1f414a2c6,001,2022-04-28_20h06.45.352,classification_task,2021.2.3,Win32,29.94639595,6151d44b37b6d4d1f414a2c6,626b377229c10585ec392f8a,626b39cf40087ce01978a331,,,,,,,,,,,,,,,,,,,,,,,a,1,2.235,"[""0.254"",""0.486"",""0.640"",""0.917""]","[1,1,0,1]",0,26,26,26,1,0,0,,,1,FALSE,,,,,,,,,,,,,,,,,,,,,,,,,,,,,,
,6151d44b37b6d4d1f414a2c6,001,2022-04-28_20h06.45.352,classification_task,2021.2.3,Win32,29.94639595,6151d44b37b6d4d1f414a2c6,626b377229c10585ec392f8a,626b39cf40087ce01978a331,,,,,,,,,,,,,,,,,,,,,,,l,1,1.1924,"[""0.110"",""0.642"",""0.539"",""0.723""]","[1,0,1,1]",0,27,27,27,1,1,0,,,1,FALSE,,,,,,,,,,,,,,,,,,,,,,,,,,,,,,
,6151d44b37b6d4d1f414a2c6,001,2022-04-28_20h06.45.352,classification_task,2021.2.3,Win32,29.94639595,6151d44b37b6d4d1f414a2c6,626b377229c10585ec392f8a,626b39cf40087ce01978a331,,,,,,,,,,,,,,,,,,,,,,,a,1,2.8736,"[""0.672"",""0.486"",""0.881"",""0.917""]","[0,1,1,1]",0,28,28,28,1,0,0,,,1,FALSE,,,,,,,,,,,,,,,,,,,,,,,,,,,,,,
,6151d44b37b6d4d1f414a2c6,001,2022-04-28_20h06.45.352,classification_task,2021.2.3,Win32,29.94639595,6151d44b37b6d4d1f414a2c6,626b377229c10585ec392f8a,626b39cf40087ce01978a331,,,,,,,,,,,,,,,,,,,,,,,l,1,1.4343,"[""0.110"",""0.197"",""0.539"",""0.642""]","[1,1,1,0]",0,29,29,29,1,1,0,,,1,FALSE,,,,,,,,,,,,,,,,,,,,,,,,,,,,,,
,6151d44b37b6d4d1f414a2c6,001,2022-04-28_20h06.45.352,classification_task,2021.2.3,Win32,29.94639595,6151d44b37b6d4d1f414a2c6,626b377229c10585ec392f8a,626b39cf40087ce01978a331,,,,,,,,,,,,,,,,,,,,,,,a,1,1.4645,"[""0.158"",""0.398"",""0.847"",""0.443""]","[1,1,1,0]",0,30,30,30,1,0,1,,,1,FALSE,,,,,,,,,,,,,,,,,,,,,,,,,,,,,,
,6151d44b37b6d4d1f414a2c6,001,2022-04-28_20h06.45.352,classification_task,2021.2.3,Win32,29.94639595,6151d44b37b6d4d1f414a2c6,626b377229c10585ec392f8a,626b39cf40087ce01978a331,,,,,,,,,,,,,,,,,,,,,,,l,1,2.163,"[""0.059"",""0.303"",""0.599"",""0.348""]","[1,1,1,0]",0,31,31,31,1,1,1,,,1,FALSE,,,,,,,,,,,,,,,,,,,,,,,,,,,,,,
,6151d44b37b6d4d1f414a2c6,001,2022-04-28_20h06.45.352,classification_task,2021.2.3,Win32,29.94639595,6151d44b37b6d4d1f414a2c6,626b377229c10585ec392f8a,626b39cf40087ce01978a331,,,,,,,,,,,,,,,,,,,,,,,a,1,0.9459,"[""0.762"",""0.398"",""0.847"",""0.958""]","[0,1,1,1]",0,32,32,32,1,0,1,,,1,FALSE,,,,,,,,,,,,,,,,,,,,,,,,,,,,,,
,6151d44b37b6d4d1f414a2c6,001,2022-04-28_20h06.45.352,classification_task,2021.2.3,Win32,29.94639595,6151d44b37b6d4d1f414a2c6,626b377229c10585ec392f8a,626b39cf40087ce01978a331,,,,,,,,,,,,,,,,,,,,,,,a,1,1.26,"[""0.158"",""0.452"",""0.847"",""0.958""]","[1,0,1,1]",0,33,33,33,1,0,1,,,1,FALSE,,,,,,,,,,,,,,,,,,,,,,,,,,,,,,
,6151d44b37b6d4d1f414a2c6,001,2022-04-28_20h06.45.352,classification_task,2021.2.3,Win32,29.94639595,6151d44b37b6d4d1f414a2c6,626b377229c10585ec392f8a,626b39cf40087ce01978a331,,,,,,,,,,,,,,,,,,,,,,,l,1,0.8211,"[""0.059"",""0.303"",""0.599"",""0.762""]","[1,1,1,0]",0,34,34,34,1,1,1,,,1,FALSE,,,,,,,,,,,,,,,,,,,,,,,,,,,,,,
,6151d44b37b6d4d1f414a2c6,001,2022-04-28_20h06.45.352,classification_task,2021.2.3,Win32,29.94639595,6151d44b37b6d4d1f414a2c6,626b377229c10585ec392f8a,626b39cf40087ce01978a331,,,,,,,,,,,,,,,,,,,,,,,l,1,1.3265,"[""0.059"",""0.672"",""0.599"",""0.810""]","[1,0,1,1]",0,35,35,35,1,1,1,,,1,FALSE,,,,,,,,,,,,,,,,,,,,,,,,,,,,,,
,6151d44b37b6d4d1f414a2c6,001,2022-04-28_20h06.45.352,classification_task,2021.2.3,Win32,29.94639595,6151d44b37b6d4d1f414a2c6,626b377229c10585ec392f8a,626b39cf40087ce01978a331,,,,,,,,,,,,,,,,,,,,,,,a,0,1.8537,"[""0.110"",""0.197"",""0.443"",""0.723""]","[1,1,0,1]",0,36,36,36,1,1,0,,,1,FALSE,,,,,,,,,,,,,,,,,,,,,,,,,,,,,,
,6151d44b37b6d4d1f414a2c6,001,2022-04-28_20h06.45.352,classification_task,2021.2.3,Win32,29.94639595,6151d44b37b6d4d1f414a2c6,626b377229c10585ec392f8a,626b39cf40087ce01978a331,,,,,,,,,,,,,,,,,,,,,,,l,1,4.7449,"[""0.110"",""0.640"",""0.539"",""0.723""]","[1,0,1,1]",0,37,37,37,1,1,0,,,1,FALSE,,,,,,,,,,,,,,,,,,,,,,,,,,,,,,
,6151d44b37b6d4d1f414a2c6,001,2022-04-28_20h06.45.352,classification_task,2021.2.3,Win32,29.94639595,6151d44b37b6d4d1f414a2c6,626b377229c10585ec392f8a,626b39cf40087ce01978a331,,,,,,,,,,,,,,,,,,,,,,,a,1,1.3475,"[""0.158"",""0.398"",""0.847"",""0.672""]","[1,1,1,0]",0,38,38,38,1,0,1,,,1,FALSE,,,,,,,,,,,,,,,,,,,,,,,,,,,,,,
,6151d44b37b6d4d1f414a2c6,001,2022-04-28_20h06.45.352,classification_task,2021.2.3,Win32,29.94639595,6151d44b37b6d4d1f414a2c6,626b377229c10585ec392f8a,626b39cf40087ce01978a331,,,,,,,,,,,,,,,,,,,,,,,l,1,1.9476,"[""0.059"",""0.303"",""0.677"",""0.810""]","[1,1,0,1]",0,39,39,39,1,1,1,,,1,FALSE,,,,,,,,,,,,,,,,,,,,,,,,,,,,,,
,6151d44b37b6d4d1f414a2c6,001,2022-04-28_20h06.45.352,classification_task,2021.2.3,Win32,29.94639595,6151d44b37b6d4d1f414a2c6,626b377229c10585ec392f8a,626b39cf40087ce01978a331,,,,,,,,,,,,,,,,,,,,,,,l,1,1.9906,"[""0.110"",""0.197"",""0.539"",""0.677""]","[1,1,1,0]",0,40,40,40,1,1,0,,,1,FALSE,,,,,,,,,,,,,,,,,,,,,,,,,,,,,,
,6151d44b37b6d4d1f414a2c6,001,2022-04-28_20h06.45.352,classification_task,2021.2.3,Win32,29.94639595,6151d44b37b6d4d1f414a2c6,626b377229c10585ec392f8a,626b39cf40087ce01978a331,,,,,,,,,,,,,,,,,,,,,,,a,1,1.4842,"[""0.254"",""0.654"",""0.881"",""0.917""]","[1,0,1,1]",0,41,41,41,1,0,0,,,1,FALSE,,,,,,,,,,,,,,,,,,,,,,,,,,,,,,
,6151d44b37b6d4d1f414a2c6,001,2022-04-28_20h06.45.352,classification_task,2021.2.3,Win32,29.94639595,6151d44b37b6d4d1f414a2c6,626b377229c10585ec392f8a,626b39cf40087ce01978a331,,,,,,,,,,,,,,,,,,,,,,,a,1,1.7444,"[""0.254"",""0.486"",""0.654"",""0.917""]","[1,1,0,1]",0,42,42,42,1,0,0,,,1,FALSE,,,,,,,,,,,,,,,,,,,,,,,,,,,,,,
,6151d44b37b6d4d1f414a2c6,001,2022-04-28_20h06.45.352,classification_task,2021.2.3,Win32,29.94639595,6151d44b37b6d4d1f414a2c6,626b377229c10585ec392f8a,626b39cf40087ce01978a331,,,,,,,,,,,,,,,,,,,,,,,a,1,1.4797,"[""0.158"",""0.398"",""0.443"",""0.958""]","[1,1,0,1]",0,43,43,43,1,0,1,,,1,FALSE,,,,,,,,,,,,,,,,,,,,,,,,,,,,,,
,6151d44b37b6d4d1f414a2c6,001,2022-04-28_20h06.45.352,classification_task,2021.2.3,Win32,29.94639595,6151d44b37b6d4d1f414a2c6,626b377229c10585ec392f8a,626b39cf40087ce01978a331,,,,,,,,,,,,,,,,,,,,,,,l,1,2.6543,"[""0.447"",""0.197"",""0.539"",""0.723""]","[0,1,1,1]",0,44,44,44,1,1,0,,,1,FALSE,,,,,,,,,,,,,,,,,,,,,,,,,,,,,,
,6151d44b37b6d4d1f414a2c6,001,2022-04-28_20h06.45.352,classification_task,2021.2.3,Win32,29.94639595,6151d44b37b6d4d1f414a2c6,626b377229c10585ec392f8a,626b39cf40087ce01978a331,,,,,,,,,,,,,,,,,,,,,,,a,1,3.6452,"[""0.640"",""0.486"",""0.881"",""0.917""]","[0,1,1,1]",0,45,45,45,1,0,0,,,1,FALSE,,,,,,,,,,,,,,,,,,,,,,,,,,,,,,
,6151d44b37b6d4d1f414a2c6,001,2022-04-28_20h06.45.352,classification_task,2021.2.3,Win32,29.94639595,6151d44b37b6d4d1f414a2c6,626b377229c10585ec392f8a,626b39cf40087ce01978a331,,,,,,,,,,,,,,,,,,,,,,,l,0,1.853,"[""0.254"",""0.486"",""0.881"",""0.642""]","[1,1,1,0]",0,46,46,46,1,0,0,,,1,FALSE,,,,,,,,,,,,,,,,,,,,,,,,,,,,,,
,6151d44b37b6d4d1f414a2c6,001,2022-04-28_20h06.45.352,classification_task,2021.2.3,Win32,29.94639595,6151d44b37b6d4d1f414a2c6,626b377229c10585ec392f8a,626b39cf40087ce01978a331,,,,,,,,,,,,,,,,,,,,,,,l,1,1.4944,"[""0.643"",""0.303"",""0.599"",""0.810""]","[0,1,1,1]",0,47,47,47,1,1,1,,,1,FALSE,,,,,,,,,,,,,,,,,,,,,,,,,,,,,,
,6151d44b37b6d4d1f414a2c6,001,2022-04-28_20h06.45.352,classification_task,2021.2.3,Win32,29.94639595,6151d44b37b6d4d1f414a2c6,626b377229c10585ec392f8a,626b39cf40087ce01978a331,,,,,,,,,,,,,,,,,,,,,,,a,1,1.8055,"[""0.158"",""0.654"",""0.847"",""0.958""]","[1,0,1,1]",0,48,48,48,1,0,1,,,1,FALSE,,,,,,,,,,,,,,,,,,,,,,,,,,,,,,
,6151d44b37b6d4d1f414a2c6,001,2022-04-28_20h06.45.352,classification_task,2021.2.3,Win32,29.94639595,6151d44b37b6d4d1f414a2c6,626b377229c10585ec392f8a,626b39cf40087ce01978a331,,,,,,,,,,,,,,,,,,,,,,,l,1,2.2766,"[""0.348"",""0.197"",""0.539"",""0.723""]","[0,1,1,1]",0,49,49,49,1,1,0,,,1,FALSE,,,,,,,,,,,,,,,,,,,,,,,,,,,,,,
,6151d44b37b6d4d1f414a2c6,001,2022-04-28_20h06.45.352,classification_task,2021.2.3,Win32,29.94639595,6151d44b37b6d4d1f414a2c6,626b377229c10585ec392f8a,626b39cf40087ce01978a331,,,,,,,,,,,,,,,,,,,,,,,l,1,2.1686,"[""0.643"",""0.303"",""0.599"",""0.810""]","[0,1,1,1]",0,50,50,50,1,1,1,,,1,FALSE,,,,,,,,,,,,,,,,,,,,,,,,,,,,,,
,6151d44b37b6d4d1f414a2c6,001,2022-04-28_20h06.45.352,classification_task,2021.2.3,Win32,29.94639595,6151d44b37b6d4d1f414a2c6,626b377229c10585ec392f8a,626b39cf40087ce01978a331,,,,,,,,,,,,,,,,,,,,,,,l,1,1.8926,"[""0.059"",""0.303"",""0.599"",""0.634""]","[1,1,1,0]",0,51,51,51,1,1,1,,,1,FALSE,,,,,,,,,,,,,,,,,,,,,,,,,,,,,,
,6151d44b37b6d4d1f414a2c6,001,2022-04-28_20h06.45.352,classification_task,2021.2.3,Win32,29.94639595,6151d44b37b6d4d1f414a2c6,626b377229c10585ec392f8a,626b39cf40087ce01978a331,,,,,,,,,,,,,,,,,,,,,,,l,1,1.7678,"[""0.110"",""0.197"",""0.672"",""0.723""]","[1,1,0,1]",0,52,52,52,1,1,0,,,1,FALSE,,,,,,,,,,,,,,,,,,,,,,,,,,,,,,
,6151d44b37b6d4d1f414a2c6,001,2022-04-28_20h06.45.352,classification_task,2021.2.3,Win32,29.94639595,6151d44b37b6d4d1f414a2c6,626b377229c10585ec392f8a,626b39cf40087ce01978a331,,,,,,,,,,,,,,,,,,,,,,,l,1,1.7503,"[""0.110"",""0.642"",""0.539"",""0.723""]","[1,0,1,1]",0,53,53,53,1,1,0,,,1,FALSE,,,,,,,,,,,,,,,,,,,,,,,,,,,,,,
,6151d44b37b6d4d1f414a2c6,001,2022-04-28_20h06.45.352,classification_task,2021.2.3,Win32,29.94639595,6151d44b37b6d4d1f414a2c6,626b377229c10585ec392f8a,626b39cf40087ce01978a331,,,,,,,,,,,,,,,,,,,,,,,l,1,1.489,"[""0.110"",""0.197"",""0.539"",""0.634""]","[1,1,1,0]",0,54,54,54,1,1,0,,,1,FALSE,,,,,,,,,,,,,,,,,,,,,,,,,,,,,,
,6151d44b37b6d4d1f414a2c6,001,2022-04-28_20h06.45.352,classification_task,2021.2.3,Win32,29.94639595,6151d44b37b6d4d1f414a2c6,626b377229c10585ec392f8a,626b39cf40087ce01978a331,,,,,,,,,,,,,,,,,,,,,,,a,1,1.4609,"[""0.254"",""0.443"",""0.881"",""0.917""]","[1,0,1,1]",0,55,55,55,1,0,0,,,1,FALSE,,,,,,,,,,,,,,,,,,,,,,,,,,,,,,
,6151d44b37b6d4d1f414a2c6,001,2022-04-28_20h06.45.352,classification_task,2021.2.3,Win32,29.94639595,6151d44b37b6d4d1f414a2c6,626b377229c10585ec392f8a,626b39cf40087ce01978a331,,,,,,,,,,,,,,,,,,,,,,,a,1,1.602,"[""0.634"",""0.486"",""0.881"",""0.917""]","[0,1,1,1]",0,56,56,56,1,0,0,,,1,FALSE,,,,,,,,,,,,,,,,,,,,,,,,,,,,,,
,6151d44b37b6d4d1f414a2c6,001,2022-04-28_20h06.45.352,classification_task,2021.2.3,Win32,29.94639595,6151d44b37b6d4d1f414a2c6,626b377229c10585ec392f8a,626b39cf40087ce01978a331,,,,,,,,,,,,,,,,,,,,,,,a,1,1.6123,"[""0.254"",""0.486"",""0.443"",""0.917""]","[1,1,0,1]",0,57,57,57,1,0,0,,,1,FALSE,,,,,,,,,,,,,,,,,,,,,,,,,,,,,,
,6151d44b37b6d4d1f414a2c6,001,2022-04-28_20h06.45.352,classification_task,2021.2.3,Win32,29.94639595,6151d44b37b6d4d1f414a2c6,626b377229c10585ec392f8a,626b39cf40087ce01978a331,,,,,,,,,,,,,,,,,,,,,,,l,1,2.0985,"[""0.059"",""0.303"",""0.642"",""0.810""]","[1,1,0,1]",0,58,58,58,1,1,1,,,1,FALSE,,,,,,,,,,,,,,,,,,,,,,,,,,,,,,
,6151d44b37b6d4d1f414a2c6,001,2022-04-28_20h06.45.352,classification_task,2021.2.3,Win32,29.94639595,6151d44b37b6d4d1f414a2c6,626b377229c10585ec392f8a,626b39cf40087ce01978a331,,,,,,,,,,,,,,,,,,,,,,,a,1,1.1931,"[""0.158"",""0.398"",""0.634"",""0.958""]","[1,1,0,1]",0,59,59,59,1,0,1,,,1,FALSE,,,,,,,,,,,,,,,,,,,,,,,,,,,,,,
,6151d44b37b6d4d1f414a2c6,001,2022-04-28_20h06.45.352,classification_task,2021.2.3,Win32,29.94639595,6151d44b37b6d4d1f414a2c6,626b377229c10585ec392f8a,626b39cf40087ce01978a331,,,,,,,,,,,,,,,,,,,,,,,l,1,4.3478,"[""0.059"",""0.447"",""0.599"",""0.810""]","[1,0,1,1]",0,60,60,60,1,1,1,,,1,FALSE,,,,,,,,,,,,,,,,,,,,,,,,,,,,,,
,6151d44b37b6d4d1f414a2c6,001,2022-04-28_20h06.45.352,classification_task,2021.2.3,Win32,29.94639595,6151d44b37b6d4d1f414a2c6,626b377229c10585ec392f8a,626b39cf40087ce01978a331,,,,,,,,,,,,,,,,,,,,,,,a,1,0.9462,"[""0.158"",""0.398"",""0.847"",""0.452""]","[1,1,1,0]",0,61,61,61,1,0,1,,,1,FALSE,,,,,,,,,,,,,,,,,,,,,,,,,,,,,,
,6151d44b37b6d4d1f414a2c6,001,2022-04-28_20h06.45.352,classification_task,2021.2.3,Win32,29.94639595,6151d44b37b6d4d1f414a2c6,626b377229c10585ec392f8a,626b39cf40087ce01978a331,,,,,,,,,,,,,,,,,,,,,,,a,1,2.6208,"[""0.254"",""0.486"",""0.881"",""0.659""]","[1,1,1,0]",0,62,62,62,1,0,0,,,1,FALSE,,,,,,,,,,,,,,,,,,,,,,,,,,,,,,
,6151d44b37b6d4d1f414a2c6,001,2022-04-28_20h06.45.352,classification_task,2021.2.3,Win32,29.94639595,6151d44b37b6d4d1f414a2c6,626b377229c10585ec392f8a,626b39cf40087ce01978a331,,,,,,,,,,,,,,,,,,,,,,,a,1,1.7648,"[""0.654"",""0.398"",""0.847"",""0.958""]","[0,1,1,1]",0,63,63,63,1,0,1,,,1,FALSE,,,,,,,,,,,,,,,,,,,,,,,,,,,,,,
,6151d44b37b6d4d1f414a2c6,001,2022-04-28_20h06.45.352,classification_task,2021.2.3,Win32,29.94639595,6151d44b37b6d4d1f414a2c6,626b377229c10585ec392f8a,626b39cf40087ce01978a331,,,,,,,,,,,,,,,,,,,,,,,,,,,,,,,,,,,,,,,0, ,,0,10,235.4098,0,1,1,1,1,2,2,,,,,,,,,,,,,,,,,
,6151d44b37b6d4d1f414a2c6,001,2022-04-28_20h06.45.352,classification_task,2021.2.3,Win32,29.94639595,6151d44b37b6d4d1f414a2c6,626b377229c10585ec392f8a,626b39cf40087ce01978a331,,,,,,,,,,,,,,,,,,,,,,,,,,,,,,,,,,,,,,,1,  ,,0,2.364137957,242.9075,0,1,1,1,1,2,2,,,,,,,,,,,,,,,,,
,6151d44b37b6d4d1f414a2c6,001,2022-04-28_20h06.45.352,classification_task,2021.2.3,Win32,29.94639595,6151d44b37b6d4d1f414a2c6,626b377229c10585ec392f8a,626b39cf40087ce01978a331,,,,,,,,,,,,,,,,,,,,,,,,,,,,,,,,,,,,,,,2,  ,,0,0.84822388,248.3753,0,1,1,1,1,2,2,,,,,,,,,,,,,,,,,
,6151d44b37b6d4d1f414a2c6,001,2022-04-28_20h06.45.352,classification_task,2021.2.3,Win32,29.94639595,6151d44b37b6d4d1f414a2c6,626b377229c10585ec392f8a,626b39cf40087ce01978a331,,,,,,,,,,,,,,,,,,,,,,,,,,,,,,,,,,,,,,,,,,,,,0,1,1,1,1,,2,,,,,,,,,,,,,,,,,
,6151d44b37b6d4d1f414a2c6,001,2022-04-28_20h06.45.352,classification_task,2021.2.3,Win32,29.94639595,6151d44b37b6d4d1f414a2c6,626b377229c10585ec392f8a,626b39cf40087ce01978a331,,,,,,,,,,,,,,,,,,,,,space,14.5222,l,1,2.821,"[""0.059"",""0.303"",""0.599"",""0.642""]","[1,1,1,0]",0,0,0,0,1,1,1,,,1,FALSE,,,,,,,,,,,,,,,,,,,,,,,,,,,,,,
,6151d44b37b6d4d1f414a2c6,001,2022-04-28_20h06.45.352,classification_task,2021.2.3,Win32,29.94639595,6151d44b37b6d4d1f414a2c6,626b377229c10585ec392f8a,626b39cf40087ce01978a331,,,,,,,,,,,,,,,,,,,,,,,a,0,2.7166,"[""0.059"",""0.303"",""0.634"",""0.810""]","[1,1,0,1]",0,1,1,1,1,1,1,,,1,FALSE,,,,,,,,,,,,,,,,,,,,,,,,,,,,,,
,6151d44b37b6d4d1f414a2c6,001,2022-04-28_20h06.45.352,classification_task,2021.2.3,Win32,29.94639595,6151d44b37b6d4d1f414a2c6,626b377229c10585ec392f8a,626b39cf40087ce01978a331,,,,,,,,,,,,,,,,,,,,,,,l,1,2.6807,"[""0.110"",""0.197"",""0.539"",""0.443""]","[1,1,1,0]",0,2,2,2,1,1,0,,,1,FALSE,,,,,,,,,,,,,,,,,,,,,,,,,,,,,,
,6151d44b37b6d4d1f414a2c6,001,2022-04-28_20h06.45.352,classification_task,2021.2.3,Win32,29.94639595,6151d44b37b6d4d1f414a2c6,626b377229c10585ec392f8a,626b39cf40087ce01978a331,,,,,,,,,,,,,,,,,,,,,,,a,1,1.456,"[""0.254"",""0.677"",""0.881"",""0.917""]","[1,0,1,1]",0,3,3,3,1,0,0,,,1,FALSE,,,,,,,,,,,,,,,,,,,,,,,,,,,,,,
,6151d44b37b6d4d1f414a2c6,001,2022-04-28_20h06.45.352,classification_task,2021.2.3,Win32,29.94639595,6151d44b37b6d4d1f414a2c6,626b377229c10585ec392f8a,626b39cf40087ce01978a331,,,,,,,,,,,,,,,,,,,,,,,l,1,1.9964,"[""0.110"",""0.197"",""0.677"",""0.723""]","[1,1,0,1]",0,4,4,4,1,1,0,,,1,FALSE,,,,,,,,,,,,,,,,,,,,,,,,,,,,,,
,6151d44b37b6d4d1f414a2c6,001,2022-04-28_20h06.45.352,classification_task,2021.2.3,Win32,29.94639595,6151d44b37b6d4d1f414a2c6,626b377229c10585ec392f8a,626b39cf40087ce01978a331,,,,,,,,,,,,,,,,,,,,,,,l,1,1.6383,"[""0.110"",""0.348"",""0.539"",""0.723""]","[1,0,1,1]",0,5,5,5,1,1,0,,,1,FALSE,,,,,,,,,,,,,,,,,,,,,,,,,,,,,,
,6151d44b37b6d4d1f414a2c6,001,2022-04-28_20h06.45.352,classification_task,2021.2.3,Win32,29.94639595,6151d44b37b6d4d1f414a2c6,626b377229c10585ec392f8a,626b39cf40087ce01978a331,,,,,,,,,,,,,,,,,,,,,,,a,1,1.1893,"[""0.254"",""0.486"",""0.881"",""0.762""]","[1,1,1,0]",0,6,6,6,1,0,0,,,1,FALSE,,,,,,,,,,,,,,,,,,,,,,,,,,,,,,
,6151d44b37b6d4d1f414a2c6,001,2022-04-28_20h06.45.352,classification_task,2021.2.3,Win32,29.94639595,6151d44b37b6d4d1f414a2c6,626b377229c10585ec392f8a,626b39cf40087ce01978a331,,,,,,,,,,,,,,,,,,,,,,,l,0,2.3326,"[""0.158"",""0.672"",""0.847"",""0.958""]","[1,0,1,1]",0,7,7,7,1,0,1,,,1,FALSE,,,,,,,,,,,,,,,,,,,,,,,,,,,,,,
,6151d44b37b6d4d1f414a2c6,001,2022-04-28_20h06.45.352,classification_task,2021.2.3,Win32,29.94639595,6151d44b37b6d4d1f414a2c6,626b377229c10585ec392f8a,626b39cf40087ce01978a331,,,,,,,,,,,,,,,,,,,,,,,a,0,1.4511,"[""0.659"",""0.303"",""0.599"",""0.810""]","[0,1,1,1]",0,8,8,8,1,1,1,,,1,FALSE,,,,,,,,,,,,,,,,,,,,,,,,,,,,,,
,6151d44b37b6d4d1f414a2c6,001,2022-04-28_20h06.45.352,classification_task,2021.2.3,Win32,29.94639595,6151d44b37b6d4d1f414a2c6,626b377229c10585ec392f8a,626b39cf40087ce01978a331,,,,,,,,,,,,,,,,,,,,,,,l,0,2.4677,"[""0.672"",""0.398"",""0.847"",""0.958""]","[0,1,1,1]",0,9,9,9,1,0,1,,,1,FALSE,,,,,,,,,,,,,,,,,,,,,,,,,,,,,,
,6151d44b37b6d4d1f414a2c6,001,2022-04-28_20h06.45.352,classification_task,2021.2.3,Win32,29.94639595,6151d44b37b6d4d1f414a2c6,626b377229c10585ec392f8a,626b39cf40087ce01978a331,,,,,,,,,,,,,,,,,,,,,,,a,1,1.8506,"[""0.158"",""0.398"",""0.760"",""0.958""]","[1,1,0,1]",0,10,10,10,1,0,1,,,1,FALSE,,,,,,,,,,,,,,,,,,,,,,,,,,,,,,
,6151d44b37b6d4d1f414a2c6,001,2022-04-28_20h06.45.352,classification_task,2021.2.3,Win32,29.94639595,6151d44b37b6d4d1f414a2c6,626b377229c10585ec392f8a,626b39cf40087ce01978a331,,,,,,,,,,,,,,,,,,,,,,,l,1,1.286,"[""0.059"",""0.672"",""0.599"",""0.810""]","[1,0,1,1]",0,11,11,11,1,1,1,,,1,FALSE,,,,,,,,,,,,,,,,,,,,,,,,,,,,,,
,6151d44b37b6d4d1f414a2c6,001,2022-04-28_20h06.45.352,classification_task,2021.2.3,Win32,29.94639595,6151d44b37b6d4d1f414a2c6,626b377229c10585ec392f8a,626b39cf40087ce01978a331,,,,,,,,,,,,,,,,,,,,,,,a,1,1.5388,"[""0.254"",""0.486"",""0.659"",""0.917""]","[1,1,0,1]",0,12,12,12,1,0,0,,,1,FALSE,,,,,,,,,,,,,,,,,,,,,,,,,,,,,,
,6151d44b37b6d4d1f414a2c6,001,2022-04-28_20h06.45.352,classification_task,2021.2.3,Win32,29.94639595,6151d44b37b6d4d1f414a2c6,626b377229c10585ec392f8a,626b39cf40087ce01978a331,,,,,,,,,,,,,,,,,,,,,,,a,0,3.1477,"[""0.640"",""0.197"",""0.539"",""0.723""]","[0,1,1,1]",0,13,13,13,1,1,0,,,1,FALSE,,,,,,,,,,,,,,,,,,,,,,,,,,,,,,
,6151d44b37b6d4d1f414a2c6,001,2022-04-28_20h06.45.352,classification_task,2021.2.3,Win32,29.94639595,6151d44b37b6d4d1f414a2c6,626b377229c10585ec392f8a,626b39cf40087ce01978a331,,,,,,,,,,,,,,,,,,,,,,,a,1,1.7082,"[""0.443"",""0.486"",""0.881"",""0.917""]","[0,1,1,1]",0,14,14,14,1,0,0,,,1,FALSE,,,,,,,,,,,,,,,,,,,,,,,,,,,,,,
,6151d44b37b6d4d1f414a2c6,001,2022-04-28_20h06.45.352,classification_task,2021.2.3,Win32,29.94639595,6151d44b37b6d4d1f414a2c6,626b377229c10585ec392f8a,626b39cf40087ce01978a331,,,,,,,,,,,,,,,,,,,,,,,a,1,1.5038,"[""0.158"",""0.398"",""0.847"",""0.672""]","[1,1,1,0]",0,15,15,15,1,0,1,,,1,FALSE,,,,,,,,,,,,,,,,,,,,,,,,,,,,,,
,6151d44b37b6d4d1f414a2c6,001,2022-04-28_20h06.45.352,classification_task,2021.2.3,Win32,29.94639595,6151d44b37b6d4d1f414a2c6,626b377229c10585ec392f8a,626b39cf40087ce01978a331,,,,,,,,,,,,,,,,,,,,,,,l,0,1.0256,"[""0.254"",""0.486"",""0.881"",""0.760""]","[1,1,1,0]",0,16,16,16,1,0,0,,,1,FALSE,,,,,,,,,,,,,,,,,,,,,,,,,,,,,,
,6151d44b37b6d4d1f414a2c6,001,2022-04-28_20h06.45.352,classification_task,2021.2.3,Win32,29.94639595,6151d44b37b6d4d1f414a2c6,626b377229c10585ec392f8a,626b39cf40087ce01978a331,,,,,,,,,,,,,,,,,,,,,,,l,1,1.2857,"[""0.059"",""0.642"",""0.599"",""0.810""]","[1,0,1,1]",0,17,17,17,1,1,1,,,1,FALSE,,,,,,,,,,,,,,,,,,,,,,,,,,,,,,
,6151d44b37b6d4d1f414a2c6,001,2022-04-28_20h06.45.352,classification_task,2021.2.3,Win32,29.94639595,6151d44b37b6d4d1f414a2c6,626b377229c10585ec392f8a,626b39cf40087ce01978a331,,,,,,,,,,,,,,,,,,,,,,,a,0,1.0397,"[""0.059"",""0.303"",""0.640"",""0.810""]","[1,1,0,1]",0,18,18,18,1,1,1,,,1,FALSE,,,,,,,,,,,,,,,,,,,,,,,,,,,,,,
,6151d44b37b6d4d1f414a2c6,001,2022-04-28_20h06.45.352,classification_task,2021.2.3,Win32,29.94639595,6151d44b37b6d4d1f414a2c6,626b377229c10585ec392f8a,626b39cf40087ce01978a331,,,,,,,,,,,,,,,,,,,,,,,a,1,1.6896,"[""0.254"",""0.760"",""0.881"",""0.917""]","[1,0,1,1]",0,19,19,19,1,0,0,,,1,FALSE,,,,,,,,,,,,,,,,,,,,,,,,,,,,,,
,6151d44b37b6d4d1f414a2c6,001,2022-04-28_20h06.45.352,classification_task,2021.2.3,Win32,29.94639595,6151d44b37b6d4d1f414a2c6,626b377229c10585ec392f8a,626b39cf40087ce01978a331,,,,,,,,,,,,,,,,,,,,,,,l,0,1.6762,"[""0.634"",""0.398"",""0.847"",""0.958""]","[0,1,1,1]",0,20,20,20,1,0,1,,,1,FALSE,,,,,,,,,,,,,,,,,,,,,,,,,,,,,,
,6151d44b37b6d4d1f414a2c6,001,2022-04-28_20h06.45.352,classification_task,2021.2.3,Win32,29.94639595,6151d44b37b6d4d1f414a2c6,626b377229c10585ec392f8a,626b39cf40087ce01978a331,,,,,,,,,,,,,,,,,,,,,,,a,1,1.1517,"[""0.254"",""0.486"",""0.447"",""0.917""]","[1,1,0,1]",0,21,21,21,1,0,0,,,1,FALSE,,,,,,,,,,,,,,,,,,,,,,,,,,,,,,
,6151d44b37b6d4d1f414a2c6,001,2022-04-28_20h06.45.352,classification_task,2021.2.3,Win32,29.94639595,6151d44b37b6d4d1f414a2c6,626b377229c10585ec392f8a,626b39cf40087ce01978a331,,,,,,,,,,,,,,,,,,,,,,,l,1,2.4387,"[""0.642"",""0.197"",""0.539"",""0.723""]","[0,1,1,1]",0,22,22,22,1,1,0,,,1,FALSE,,,,,,,,,,,,,,,,,,,,,,,,,,,,,,
,6151d44b37b6d4d1f414a2c6,001,2022-04-28_20h06.45.352,classification_task,2021.2.3,Win32,29.94639595,6151d44b37b6d4d1f414a2c6,626b377229c10585ec392f8a,626b39cf40087ce01978a331,,,,,,,,,,,,,,,,,,,,,,,a,1,1.4057,"[""0.158"",""0.398"",""0.847"",""0.643""]","[1,1,1,0]",0,23,23,23,1,0,1,,,1,FALSE,,,,,,,,,,,,,,,,,,,,,,,,,,,,,,
,6151d44b37b6d4d1f414a2c6,001,2022-04-28_20h06.45.352,classification_task,2021.2.3,Win32,29.94639595,6151d44b37b6d4d1f414a2c6,626b377229c10585ec392f8a,626b39cf40087ce01978a331,,,,,,,,,,,,,,,,,,,,,,,a,0,1.3034,"[""0.110"",""0.447"",""0.539"",""0.723""]","[1,0,1,1]",0,24,24,24,1,1,0,,,1,FALSE,,,,,,,,,,,,,,,,,,,,,,,,,,,,,,
,6151d44b37b6d4d1f414a2c6,001,2022-04-28_20h06.45.352,classification_task,2021.2.3,Win32,29.94639595,6151d44b37b6d4d1f414a2c6,626b377229c10585ec392f8a,626b39cf40087ce01978a331,,,,,,,,,,,,,,,,,,,,,,,l,1,2.0565,"[""0.110"",""0.197"",""0.539"",""0.760""]","[1,1,1,0]",0,25,25,25,1,1,0,,,1,FALSE,,,,,,,,,,,,,,,,,,,,,,,,,,,,,,
,6151d44b37b6d4d1f414a2c6,001,2022-04-28_20h06.45.352,classification_task,2021.2.3,Win32,29.94639595,6151d44b37b6d4d1f414a2c6,626b377229c10585ec392f8a,626b39cf40087ce01978a331,,,,,,,,,,,,,,,,,,,,,,,l,1,2.1863,"[""0.654"",""0.303"",""0.599"",""0.810""]","[0,1,1,1]",0,26,26,26,1,1,1,,,1,FALSE,,,,,,,,,,,,,,,,,,,,,,,,,,,,,,
,6151d44b37b6d4d1f414a2c6,001,2022-04-28_20h06.45.352,classification_task,2021.2.3,Win32,29.94639595,6151d44b37b6d4d1f414a2c6,626b377229c10585ec392f8a,626b39cf40087ce01978a331,,,,,,,,,,,,,,,,,,,,,,,l,0,2.561,"[""0.158"",""0.760"",""0.847"",""0.958""]","[1,0,1,1]",0,27,27,27,1,0,1,,,1,FALSE,,,,,,,,,,,,,,,,,,,,,,,,,,,,,,
,6151d44b37b6d4d1f414a2c6,001,2022-04-28_20h06.45.352,classification_task,2021.2.3,Win32,29.94639595,6151d44b37b6d4d1f414a2c6,626b377229c10585ec392f8a,626b39cf40087ce01978a331,,,,,,,,,,,,,,,,,,,,,,,l,0,1.5441,"[""0.158"",""0.398"",""0.654"",""0.958""]","[1,1,0,1]",0,28,28,28,1,0,1,,,1,FALSE,,,,,,,,,,,,,,,,,,,,,,,,,,,,,,
,6151d44b37b6d4d1f414a2c6,001,2022-04-28_20h06.45.352,classification_task,2021.2.3,Win32,29.94639595,6151d44b37b6d4d1f414a2c6,626b377229c10585ec392f8a,626b39cf40087ce01978a331,,,,,,,,,,,,,,,,,,,,,,,l,1,0.9964,"[""0.059"",""0.303"",""0.599"",""0.677""]","[1,1,1,0]",0,29,29,29,1,1,1,,,1,FALSE,,,,,,,,,,,,,,,,,,,,,,,,,,,,,,
,6151d44b37b6d4d1f414a2c6,001,2022-04-28_20h06.45.352,classification_task,2021.2.3,Win32,29.94639595,6151d44b37b6d4d1f414a2c6,626b377229c10585ec392f8a,626b39cf40087ce01978a331,,,,,,,,,,,,,,,,,,,,,,,a,1,1.4048,"[""0.760"",""0.486"",""0.881"",""0.917""]","[0,1,1,1]",0,30,30,30,1,0,0,,,1,FALSE,,,,,,,,,,,,,,,,,,,,,,,,,,,,,,
,6151d44b37b6d4d1f414a2c6,001,2022-04-28_20h06.45.352,classification_task,2021.2.3,Win32,29.94639595,6151d44b37b6d4d1f414a2c6,626b377229c10585ec392f8a,626b39cf40087ce01978a331,,,,,,,,,,,,,,,,,,,,,,,l,1,1.501,"[""0.110"",""0.197"",""0.634"",""0.723""]","[1,1,0,1]",0,31,31,31,1,1,0,,,1,FALSE,,,,,,,,,,,,,,,,,,,,,,,,,,,,,,
,6151d44b37b6d4d1f414a2c6,001,2022-04-28_20h06.45.352,classification_task,2021.2.3,Win32,29.94639595,6151d44b37b6d4d1f414a2c6,626b377229c10585ec392f8a,626b39cf40087ce01978a331,,,,,,,,,,,,,,,,,,,,,,,l,0,1.2747,"[""0.254"",""0.486"",""0.881"",""0.642""]","[1,1,1,0]",0,32,32,32,1,0,0,,,1,FALSE,,,,,,,,,,,,,,,,,,,,,,,,,,,,,,
,6151d44b37b6d4d1f414a2c6,001,2022-04-28_20h06.45.352,classification_task,2021.2.3,Win32,29.94639595,6151d44b37b6d4d1f414a2c6,626b377229c10585ec392f8a,626b39cf40087ce01978a331,,,,,,,,,,,,,,,,,,,,,,,l,1,1.754,"[""0.059"",""0.303"",""0.443"",""0.810""]","[1,1,0,1]",0,33,33,33,1,1,1,,,1,FALSE,,,,,,,,,,,,,,,,,,,,,,,,,,,,,,
,6151d44b37b6d4d1f414a2c6,001,2022-04-28_20h06.45.352,classification_task,2021.2.3,Win32,29.94639595,6151d44b37b6d4d1f414a2c6,626b377229c10585ec392f8a,626b39cf40087ce01978a331,,,,,,,,,,,,,,,,,,,,,,,a,0,1.0103,"[""0.452"",""0.303"",""0.599"",""0.810""]","[0,1,1,1]",0,34,34,34,1,1,1,,,1,FALSE,,,,,,,,,,,,,,,,,,,,,,,,,,,,,,
,6151d44b37b6d4d1f414a2c6,001,2022-04-28_20h06.45.352,classification_task,2021.2.3,Win32,29.94639595,6151d44b37b6d4d1f414a2c6,626b377229c10585ec392f8a,626b39cf40087ce01978a331,,,,,,,,,,,,,,,,,,,,,,,l,1,1.3026,"[""0.059"",""0.443"",""0.599"",""0.810""]","[1,0,1,1]",0,35,35,35,1,1,1,,,1,FALSE,,,,,,,,,,,,,,,,,,,,,,,,,,,,,,
,6151d44b37b6d4d1f414a2c6,001,2022-04-28_20h06.45.352,classification_task,2021.2.3,Win32,29.94639595,6151d44b37b6d4d1f414a2c6,626b377229c10585ec392f8a,626b39cf40087ce01978a331,,,,,,,,,,,,,,,,,,,,,,,l,1,2.1985,"[""0.110"",""0.197"",""0.452"",""0.723""]","[1,1,0,1]",0,36,36,36,1,1,0,,,1,FALSE,,,,,,,,,,,,,,,,,,,,,,,,,,,,,,
,6151d44b37b6d4d1f414a2c6,001,2022-04-28_20h06.45.352,classification_task,2021.2.3,Win32,29.94639595,6151d44b37b6d4d1f414a2c6,626b377229c10585ec392f8a,626b39cf40087ce01978a331,,,,,,,,,,,,,,,,,,,,,,,l,1,1.1754,"[""0.110"",""0.197"",""0.539"",""0.762""]","[1,1,1,0]",0,37,37,37,1,1,0,,,1,FALSE,,,,,,,,,,,,,,,,,,,,,,,,,,,,,,
,6151d44b37b6d4d1f414a2c6,001,2022-04-28_20h06.45.352,classification_task,2021.2.3,Win32,29.94639595,6151d44b37b6d4d1f414a2c6,626b377229c10585ec392f8a,626b39cf40087ce01978a331,,,,,,,,,,,,,,,,,,,,,,,a,1,1.0384,"[""0.254"",""0.348"",""0.881"",""0.917""]","[1,0,1,1]",0,38,38,38,1,0,0,,,1,FALSE,,,,,,,,,,,,,,,,,,,,,,,,,,,,,,
,6151d44b37b6d4d1f414a2c6,001,2022-04-28_20h06.45.352,classification_task,2021.2.3,Win32,29.94639595,6151d44b37b6d4d1f414a2c6,626b377229c10585ec392f8a,626b39cf40087ce01978a331,,,,,,,,,,,,,,,,,,,,,,,a,1,1.415,"[""0.672"",""0.486"",""0.881"",""0.917""]","[0,1,1,1]",0,39,39,39,1,0,0,,,1,FALSE,,,,,,,,,,,,,,,,,,,,,,,,,,,,,,
,6151d44b37b6d4d1f414a2c6,001,2022-04-28_20h06.45.352,classification_task,2021.2.3,Win32,29.94639595,6151d44b37b6d4d1f414a2c6,626b377229c10585ec392f8a,626b39cf40087ce01978a331,,,,,,,,,,,,,,,,,,,,,,,a,0,2.0176,"[""0.659"",""0.197"",""0.539"",""0.723""]","[0,1,1,1]",0,40,40,40,1,1,0,,,1,FALSE,,,,,,,,,,,,,,,,,,,,,,,,,,,,,,
,6151d44b37b6d4d1f414a2c6,001,2022-04-28_20h06.45.352,classification_task,2021.2.3,Win32,29.94639595,6151d44b37b6d4d1f414a2c6,626b377229c10585ec392f8a,626b39cf40087ce01978a331,,,,,,,,,,,,,,,,,,,,,,,l,0,1.5466,"[""0.158"",""0.634"",""0.847"",""0.958""]","[1,0,1,1]",0,41,41,41,1,0,1,,,1,FALSE,,,,,,,,,,,,,,,,,,,,,,,,,,,,,,
,6151d44b37b6d4d1f414a2c6,001,2022-04-28_20h06.45.352,classification_task,2021.2.3,Win32,29.94639595,6151d44b37b6d4d1f414a2c6,626b377229c10585ec392f8a,626b39cf40087ce01978a331,,,,,,,,,,,,,,,,,,,,,,,a,1,1.4196,"[""0.158"",""0.398"",""0.847"",""0.640""]","[1,1,1,0]",0,42,42,42,1,0,1,,,1,FALSE,,,,,,,,,,,,,,,,,,,,,,,,,,,,,,
,6151d44b37b6d4d1f414a2c6,001,2022-04-28_20h06.45.352,classification_task,2021.2.3,Win32,29.94639595,6151d44b37b6d4d1f414a2c6,626b377229c10585ec392f8a,626b39cf40087ce01978a331,,,,,,,,,,,,,,,,,,,,,,,a,0,1.1752,"[""0.059"",""0.303"",""0.599"",""0.642""]","[1,1,1,0]",0,43,43,43,1,1,1,,,1,FALSE,,,,,,,,,,,,,,,,,,,,,,,,,,,,,,
,6151d44b37b6d4d1f414a2c6,001,2022-04-28_20h06.45.352,classification_task,2021.2.3,Win32,29.94639595,6151d44b37b6d4d1f414a2c6,626b377229c10585ec392f8a,626b39cf40087ce01978a331,,,,,,,,,,,,,,,,,,,,,,,l,0,1.0386,"[""0.677"",""0.398"",""0.847"",""0.958""]","[0,1,1,1]",0,44,44,44,1,0,1,,,1,FALSE,,,,,,,,,,,,,,,,,,,,,,,,,,,,,,
,6151d44b37b6d4d1f414a2c6,001,2022-04-28_20h06.45.352,classification_task,2021.2.3,Win32,29.94639595,6151d44b37b6d4d1f414a2c6,626b377229c10585ec392f8a,626b39cf40087ce01978a331,,,,,,,,,,,,,,,,,,,,,,,l,1,1.7761,"[""0.110"",""0.348"",""0.539"",""0.723""]","[1,0,1,1]",0,45,45,45,1,1,0,,,1,FALSE,,,,,,,,,,,,,,,,,,,,,,,,,,,,,,
,6151d44b37b6d4d1f414a2c6,001,2022-04-28_20h06.45.352,classification_task,2021.2.3,Win32,29.94639595,6151d44b37b6d4d1f414a2c6,626b377229c10585ec392f8a,626b39cf40087ce01978a331,,,,,,,,,,,,,,,,,,,,,,,a,1,1.5438,"[""0.158"",""0.398"",""0.443"",""0.958""]","[1,1,0,1]",0,46,46,46,1,0,1,,,1,FALSE,,,,,,,,,,,,,,,,,,,,,,,,,,,,,,
,6151d44b37b6d4d1f414a2c6,001,2022-04-28_20h06.45.352,classification_task,2021.2.3,Win32,29.94639595,6151d44b37b6d4d1f414a2c6,626b377229c10585ec392f8a,626b39cf40087ce01978a331,,,,,,,,,,,,,,,,,,,,,,,a,1,1.9027,"[""0.254"",""0.486"",""0.452"",""0.917""]","[1,1,0,1]",0,47,47,47,1,0,0,,,1,FALSE,,,,,,,,,,,,,,,,,,,,,,,,,,,,,,
,6151d44b37b6d4d1f414a2c6,001,2022-04-28_20h06.45.352,classification_task,2021.2.3,Win32,29.94639595,6151d44b37b6d4d1f414a2c6,626b377229c10585ec392f8a,626b39cf40087ce01978a331,,,,,,,,,,,,,,,,,,,,,,,l,1,1.3788,"[""0.110"",""0.642"",""0.539"",""0.723""]","[1,0,1,1]",0,48,48,48,1,1,0,,,1,FALSE,,,,,,,,,,,,,,,,,,,,,,,,,,,,,,
,6151d44b37b6d4d1f414a2c6,001,2022-04-28_20h06.45.352,classification_task,2021.2.3,Win32,29.94639595,6151d44b37b6d4d1f414a2c6,626b377229c10585ec392f8a,626b39cf40087ce01978a331,,,,,,,,,,,,,,,,,,,,,,,l,0,1.6397,"[""0.254"",""0.486"",""0.881"",""0.348""]","[1,1,1,0]",0,49,49,49,1,0,0,,,1,FALSE,,,,,,,,,,,,,,,,,,,,,,,,,,,,,,
,6151d44b37b6d4d1f414a2c6,001,2022-04-28_20h06.45.352,classification_task,2021.2.3,Win32,29.94639595,6151d44b37b6d4d1f414a2c6,626b377229c10585ec392f8a,626b39cf40087ce01978a331,,,,,,,,,,,,,,,,,,,,,,,a,0,1.9113,"[""0.059"",""0.303"",""0.599"",""0.642""]","[1,1,1,0]",0,50,50,50,1,1,1,,,1,FALSE,,,,,,,,,,,,,,,,,,,,,,,,,,,,,,
,6151d44b37b6d4d1f414a2c6,001,2022-04-28_20h06.45.352,classification_task,2021.2.3,Win32,29.94639595,6151d44b37b6d4d1f414a2c6,626b377229c10585ec392f8a,626b39cf40087ce01978a331,,,,,,,,,,,,,,,,,,,,,,,l,1,1.5161,"[""0.110"",""0.197"",""0.539"",""0.443""]","[1,1,1,0]",0,51,51,51,1,1,0,,,1,FALSE,,,,,,,,,,,,,,,,,,,,,,,,,,,,,,
,6151d44b37b6d4d1f414a2c6,001,2022-04-28_20h06.45.352,classification_task,2021.2.3,Win32,29.94639595,6151d44b37b6d4d1f414a2c6,626b377229c10585ec392f8a,626b39cf40087ce01978a331,,,,,,,,,,,,,,,,,,,,,,,a,0,1.4025,"[""0.059"",""0.303"",""0.634"",""0.810""]","[1,1,0,1]",0,52,52,52,1,1,1,,,1,FALSE,,,,,,,,,,,,,,,,,,,,,,,,,,,,,,
,6151d44b37b6d4d1f414a2c6,001,2022-04-28_20h06.45.352,classification_task,2021.2.3,Win32,29.94639595,6151d44b37b6d4d1f414a2c6,626b377229c10585ec392f8a,626b39cf40087ce01978a331,,,,,,,,,,,,,,,,,,,,,,,l,0,1.3975,"[""0.642"",""0.398"",""0.847"",""0.958""]","[0,1,1,1]",0,53,53,53,1,0,1,,,1,FALSE,,,,,,,,,,,,,,,,,,,,,,,,,,,,,,
,6151d44b37b6d4d1f414a2c6,001,2022-04-28_20h06.45.352,classification_task,2021.2.3,Win32,29.94639595,6151d44b37b6d4d1f414a2c6,626b377229c10585ec392f8a,626b39cf40087ce01978a331,,,,,,,,,,,,,,,,,,,,,,,a,1,1.8996,"[""0.634"",""0.486"",""0.881"",""0.917""]","[0,1,1,1]",0,54,54,54,1,0,0,,,1,FALSE,,,,,,,,,,,,,,,,,,,,,,,,,,,,,,
,6151d44b37b6d4d1f414a2c6,001,2022-04-28_20h06.45.352,classification_task,2021.2.3,Win32,29.94639595,6151d44b37b6d4d1f414a2c6,626b377229c10585ec392f8a,626b39cf40087ce01978a331,,,,,,,,,,,,,,,,,,,,,,,l,0,1.5461,"[""0.158"",""0.398"",""0.847"",""0.452""]","[1,1,1,0]",0,55,55,55,1,0,1,,,1,FALSE,,,,,,,,,,,,,,,,,,,,,,,,,,,,,,
,6151d44b37b6d4d1f414a2c6,001,2022-04-28_20h06.45.352,classification_task,2021.2.3,Win32,29.94639595,6151d44b37b6d4d1f414a2c6,626b377229c10585ec392f8a,626b39cf40087ce01978a331,,,,,,,,,,,,,,,,,,,,,,,a,0,1.6683,"[""0.059"",""0.760"",""0.599"",""0.810""]","[1,0,1,1]",0,56,56,56,1,1,1,,,1,FALSE,,,,,,,,,,,,,,,,,,,,,,,,,,,,,,
,6151d44b37b6d4d1f414a2c6,001,2022-04-28_20h06.45.352,classification_task,2021.2.3,Win32,29.94639595,6151d44b37b6d4d1f414a2c6,626b377229c10585ec392f8a,626b39cf40087ce01978a331,,,,,,,,,,,,,,,,,,,,,,,l,0,1.1774,"[""0.158"",""0.398"",""0.654"",""0.958""]","[1,1,0,1]",0,57,57,57,1,0,1,,,1,FALSE,,,,,,,,,,,,,,,,,,,,,,,,,,,,,,
,6151d44b37b6d4d1f414a2c6,001,2022-04-28_20h06.45.352,classification_task,2021.2.3,Win32,29.94639595,6151d44b37b6d4d1f414a2c6,626b377229c10585ec392f8a,626b39cf40087ce01978a331,,,,,,,,,,,,,,,,,,,,,,,l,0,1.7699,"[""0.158"",""0.634"",""0.847"",""0.958""]","[1,0,1,1]",0,58,58,58,1,0,1,,,1,FALSE,,,,,,,,,,,,,,,,,,,,,,,,,,,,,,
,6151d44b37b6d4d1f414a2c6,001,2022-04-28_20h06.45.352,classification_task,2021.2.3,Win32,29.94639595,6151d44b37b6d4d1f414a2c6,626b377229c10585ec392f8a,626b39cf40087ce01978a331,,,,,,,,,,,,,,,,,,,,,,,a,1,1.5343,"[""0.254"",""0.672"",""0.881"",""0.917""]","[1,0,1,1]",0,59,59,59,1,0,0,,,1,FALSE,,,,,,,,,,,,,,,,,,,,,,,,,,,,,,
,6151d44b37b6d4d1f414a2c6,001,2022-04-28_20h06.45.352,classification_task,2021.2.3,Win32,29.94639595,6151d44b37b6d4d1f414a2c6,626b377229c10585ec392f8a,626b39cf40087ce01978a331,,,,,,,,,,,,,,,,,,,,,,,l,1,1.0337,"[""0.110"",""0.197"",""0.447"",""0.723""]","[1,1,0,1]",0,60,60,60,1,1,0,,,1,FALSE,,,,,,,,,,,,,,,,,,,,,,,,,,,,,,
,6151d44b37b6d4d1f414a2c6,001,2022-04-28_20h06.45.352,classification_task,2021.2.3,Win32,29.94639595,6151d44b37b6d4d1f414a2c6,626b377229c10585ec392f8a,626b39cf40087ce01978a331,,,,,,,,,,,,,,,,,,,,,,,l,1,2.6736,"[""0.640"",""0.197"",""0.539"",""0.723""]","[0,1,1,1]",0,61,61,61,1,1,0,,,1,FALSE,,,,,,,,,,,,,,,,,,,,,,,,,,,,,,
,6151d44b37b6d4d1f414a2c6,001,2022-04-28_20h06.45.352,classification_task,2021.2.3,Win32,29.94639595,6151d44b37b6d4d1f414a2c6,626b377229c10585ec392f8a,626b39cf40087ce01978a331,,,,,,,,,,,,,,,,,,,,,,,a,0,1.28,"[""0.642"",""0.303"",""0.599"",""0.810""]","[0,1,1,1]",0,62,62,62,1,1,1,,,1,FALSE,,,,,,,,,,,,,,,,,,,,,,,,,,,,,,
,6151d44b37b6d4d1f414a2c6,001,2022-04-28_20h06.45.352,classification_task,2021.2.3,Win32,29.94639595,6151d44b37b6d4d1f414a2c6,626b377229c10585ec392f8a,626b39cf40087ce01978a331,,,,,,,,,,,,,,,,,,,,,,,a,1,1.2891,"[""0.254"",""0.486"",""0.672"",""0.917""]","[1,1,0,1]",0,63,63,63,1,0,0,,,1,FALSE,,,,,,,,,,,,,,,,,,,,,,,,,,,,,,
,6151d44b37b6d4d1f414a2c6,001,2022-04-28_20h06.45.352,classification_task,2021.2.3,Win32,29.94639595,6151d44b37b6d4d1f414a2c6,626b377229c10585ec392f8a,626b39cf40087ce01978a331,,,,,,,,,,,,,,,,,,,,,,,,,,,,,,,,,,,,,,,0, ,,0,9.874808578,195.6446,0,2,2,2,1,2,3,,,,,,,,,,,,,,,,,
,6151d44b37b6d4d1f414a2c6,001,2022-04-28_20h06.45.352,classification_task,2021.2.3,Win32,29.94639595,6151d44b37b6d4d1f414a2c6,626b377229c10585ec392f8a,626b39cf40087ce01978a331,,,,,,,,,,,,,,,,,,,,,,,,,,,,,,,,,,,,,,,1,  ,,0,9.909262246,198.4389,0,2,2,2,1,2,3,,,,,,,,,,,,,,,,,
,6151d44b37b6d4d1f414a2c6,001,2022-04-28_20h06.45.352,classification_task,2021.2.3,Win32,29.94639595,6151d44b37b6d4d1f414a2c6,626b377229c10585ec392f8a,626b39cf40087ce01978a331,,,,,,,,,,,,,,,,,,,,,,,,,,,,,,,,,,,,,,,2,  ,,0,9.633640473,201.7564,0,2,2,2,1,2,3,,,,,,,,,,,,,,,,,
,6151d44b37b6d4d1f414a2c6,001,2022-04-28_20h06.45.352,classification_task,2021.2.3,Win32,29.94639595,6151d44b37b6d4d1f414a2c6,626b377229c10585ec392f8a,626b39cf40087ce01978a331,,,,,,,,,,,,,,,,,,,,,,,,,,,,,,,,,,,,,,,,,,,,,0,2,2,2,1,,3,,,,,,,,,,,,,,,,,
,6151d44b37b6d4d1f414a2c6,001,2022-04-28_20h06.45.352,classification_task,2021.2.3,Win32,29.94639595,6151d44b37b6d4d1f414a2c6,626b377229c10585ec392f8a,626b39cf40087ce01978a331,,,,,,,,,,,,,,,,,,,,,,,,,,,,,,,,,,,,,,,,,,,,,,,,,,,,,I believe the aid is a competent performer,,0.7,0,4,1060.3155,0,0,0,0,1,0,,,,
,6151d44b37b6d4d1f414a2c6,001,2022-04-28_20h06.45.352,classification_task,2021.2.3,Win32,29.94639595,6151d44b37b6d4d1f414a2c6,626b377229c10585ec392f8a,626b39cf40087ce01978a331,,,,,,,,,,,,,,,,,,,,,,,,,,,,,,,,,,,,,,,,,,,,,,,,,,,,,I trust the aid,,0.7,0,4,1061.7584,0,0,0,0,1,0,,,,
,6151d44b37b6d4d1f414a2c6,001,2022-04-28_20h06.45.352,classification_task,2021.2.3,Win32,29.94639595,6151d44b37b6d4d1f414a2c6,626b377229c10585ec392f8a,626b39cf40087ce01978a331,,,,,,,,,,,,,,,,,,,,,,,,,,,,,,,,,,,,,,,,,,,,,,,,,,,,,I have confidence in the advice given by the aid,,0.7,0,5,1064.463,0,0,0,0,1,0,,,,
,6151d44b37b6d4d1f414a2c6,001,2022-04-28_20h06.45.352,classification_task,2021.2.3,Win32,29.94639595,6151d44b37b6d4d1f414a2c6,626b377229c10585ec392f8a,626b39cf40087ce01978a331,,,,,,,,,,,,,,,,,,,,,,,,,,,,,,,,,,,,,,,,,,,,,,,,,,,,,I can depend on the aid,,0.7,0,5,1067.4675,0,0,0,0,1,0,,,,
,6151d44b37b6d4d1f414a2c6,001,2022-04-28_20h06.45.352,classification_task,2021.2.3,Win32,29.94639595,6151d44b37b6d4d1f414a2c6,626b377229c10585ec392f8a,626b39cf40087ce01978a331,,,,,,,,,,,,,,,,,,,,,,,,,,,,,,,,,,,,,,,,,,,,,,,,,,,,,I can rely on the aid to behave in consistent ways,,0.7,0,5,1070.232,0,0,0,0,1,0,,,,
,6151d44b37b6d4d1f414a2c6,001,2022-04-28_20h06.45.352,classification_task,2021.2.3,Win32,29.94639595,6151d44b37b6d4d1f414a2c6,626b377229c10585ec392f8a,626b39cf40087ce01978a331,,,,,,,,,,,,,,,,,,,,,,,,,,,,,,,,,,,,,,,,,,,,,,,,,,,,,I can rely on the aid to do its best every time I take its advice,,0.7,0,5,1071.8118,0,0,0,0,1,0,,,,
,6151d44b37b6d4d1f414a2c6,001,2022-04-28_20h06.45.352,classification_task,2021.2.3,Win32,29.94639595,6151d44b37b6d4d1f414a2c6,626b377229c10585ec392f8a,626b39cf40087ce01978a331,,,,,,,,,,,,,,,,,,,,,,,,,,,,,,,,,,,,,,,,,,,,,,,,,,,,,"On trials you completed with assistance from the aid, how frequently did you think the aid was correct?",,0.7,0,92,,0,0,0,0,1,0,,,,
,6151d44b37b6d4d1f414a2c6,001,2022-04-28_20h06.45.352,classification_task,2021.2.3,Win32,29.94639595,6151d44b37b6d4d1f414a2c6,626b377229c10585ec392f8a,626b39cf40087ce01978a331,,,,,,,,,,,,,,,,,,,,,,,,,,,,,,,,,,,,,,,,,,,,,,,,,,,,,"On trials you completed without the aid, how frequently did you think you were correct?",,0.7,0,40,,0,0,0,0,1,0,,,,
,6151d44b37b6d4d1f414a2c6,001,2022-04-28_20h06.45.352,classification_task,2021.2.3,Win32,29.94639595,6151d44b37b6d4d1f414a2c6,626b377229c10585ec392f8a,626b39cf40087ce01978a331,,,,,,,,,,,,,,,,,,,,,,,,,,,,,,,,,,,,,,,,,,,,,,,,,,,,,,,,,,,0,0,0,0,1,,,,,
,6151d44b37b6d4d1f414a2c6,001,2022-04-28_20h06.45.352,classification_task,2021.2.3,Win32,29.94639595,6151d44b37b6d4d1f414a2c6,626b377229c10585ec392f8a,626b39cf40087ce01978a331,,,,,,,,,,,,,,,,,,,,,,,,,,,,,,,,,,,,,,,,,,,,,,,,,,,,,,,,,,,,,,,,,space,11.2319,1101.3242,
,6151d44b37b6d4d1f414a2c6,001,2022-04-28_20h06.45.352,classification_task,2021.2.3,Win32,29.94639595,6151d44b37b6d4d1f414a2c6,626b377229c10585ec392f8a,626b39cf40087ce01978a331,,,,,,,,,,,,,,,,,,,,,,,,,,,,,,,,,,,,,,,,,,,,,,,,,,,,,,,,,,,,,,,,,,,,"Mozilla/5.0 (Windows NT 10.0; Win64; x64) AppleWebKit/537.36 (KHTML, like Gecko) Chrome/100.0.4896.88 Safari/537.36"
