usingWebGL,participant,session,date,expName,psychopyVersion,OS,frameRate,PROLIFIC_PID,STUDY_ID,SESSION_ID,signatures_friend,signatures_foe,band_ranges_top,band_ranges_bottom,formitemText,formtype,formundefined,formitemWidth,formindex,formresponse,formrt,key_resp_2.keys,key_resp_2.rt,tute_resp.keys,tute_resp.rt,tutorial.thisRepN,tutorial.thisTrialN,tutorial.thisN,tutorial.thisIndex,tutorial.ran,key_resp_4.keys,key_resp_4.rt,key_resp.keys,key_resp.corr,key_resp.rt,lines_presented,is_signal_presented,trials.thisRepN,trials.thisTrialN,trials.thisN,trials.thisIndex,trials.ran,vessel,active_band,lines,is_signal,supported_pos,catch_trial,debrief_formindex,debrief_formitemText,debrief_formtype,debrief_formitemWidth,debrief_formresponse,debrief_formrt,phases.thisRepN,phases.thisTrialN,phases.thisN,phases.thisIndex,phases.ran,phases.order,phase,key_resp_3.keys,trustitemText,trusttype,trustitemWidth,trustindex,trustresponse,trustrt,support_status.thisRepN,support_status.thisTrialN,support_status.thisN,support_status.thisIndex,support_status.ran,support_status.order,key_resp_5.keys,key_resp_5.rt,globalClockTime,userAgent
TRUE,61526e562a87079dc683ae46,001,2022-04-28_20h09.51.094,classification_task,2021.2.3,Win32,59.81934558,61526e562a87079dc683ae46,626b377229c10585ec392f89,626b3a8ad84129424f238cbe,,,,,,,,,,,,,,,,,,,,,,,,,,,,,,,,,,,,,,,,,,,,,,,,,,,,,,,,,,,,,,,,,,,,
,61526e562a87079dc683ae46,001,2022-04-28_20h09.51.094,classification_task,2021.2.3,Win32,59.81934558,61526e562a87079dc683ae46,626b377229c10585ec392f89,626b3a8ad84129424f238cbe,"[[""0.309"",""0.443"",""0.896"",""0.960""],[""0.225"",""0.408"",""0.624"",""0.846""]]","[[""0.039"",""0.259"",""0.482"",""0.794""],[""0.138"",""0.371"",""0.562"",""0.692""]]","[1,10]","[100,1000]",Video game experience,,,0.7,0,,,,,,,,,,,,,,,,,,,,,,,,,,,,,,,,,,,,,,,,,,,,,,,,,,,,,,,,,,,
,61526e562a87079dc683ae46,001,2022-04-28_20h09.51.094,classification_task,2021.2.3,Win32,59.81934558,61526e562a87079dc683ae46,626b377229c10585ec392f89,626b3a8ad84129424f238cbe,,,,,Approximately how many hours did you spend playing video games in the last week?,,,0.7,0,0,,,,,,,,,,,,,,,,,,,,,,,,,,,,,,,,,,,,,,,,,,,,,,,,,,,,,,,,,,
,61526e562a87079dc683ae46,001,2022-04-28_20h09.51.094,classification_task,2021.2.3,Win32,59.81934558,61526e562a87079dc683ae46,626b377229c10585ec392f89,626b3a8ad84129424f238cbe,,,,,"Which game did you play the most this year? (Enter ""None"" if you didn't play any)",,,0.7,0,valorant,,,,,,,,,,,,,,,,,,,,,,,,,,,,,,,,,,,,,,,,,,,,,,,,,,,,,,,,,,
,61526e562a87079dc683ae46,001,2022-04-28_20h09.51.094,classification_task,2021.2.3,Win32,59.81934558,61526e562a87079dc683ae46,626b377229c10585ec392f89,626b3a8ad84129424f238cbe,,,,,Visual perception,,,0.7,0,,,,,,,,,,,,,,,,,,,,,,,,,,,,,,,,,,,,,,,,,,,,,,,,,,,,,,,,,,,
,61526e562a87079dc683ae46,001,2022-04-28_20h09.51.094,classification_task,2021.2.3,Win32,59.81934558,61526e562a87079dc683ae46,626b377229c10585ec392f89,626b3a8ad84129424f238cbe,,,,,Do you have any form of color blindness?,,,0.7,0,No,21.2933,,,,,,,,,,,,,,,,,,,,,,,,,,,,,,,,,,,,,,,,,,,,,,,,,,,,,,,,,
,61526e562a87079dc683ae46,001,2022-04-28_20h09.51.094,classification_task,2021.2.3,Win32,59.81934558,61526e562a87079dc683ae46,626b377229c10585ec392f89,626b3a8ad84129424f238cbe,,,,,Do you use software to change the colour temperature of your screen (e.g. f.lux)?,,,0.7,0,No,23.3332,,,,,,,,,,,,,,,,,,,,,,,,,,,,,,,,,,,,,,,,,,,,,,,,,,,,,,,,,
,61526e562a87079dc683ae46,001,2022-04-28_20h09.51.094,classification_task,2021.2.3,Win32,59.81934558,61526e562a87079dc683ae46,626b377229c10585ec392f89,626b3a8ad84129424f238cbe,,,,,,,,,,,,space,21.6689,space,6.9826,0,0,0,0,1,,,,,,,,,,,,,,,,,,,,,,,,,,,,,,,,,,,,,,,,,,,,,,,,
,61526e562a87079dc683ae46,001,2022-04-28_20h09.51.094,classification_task,2021.2.3,Win32,59.81934558,61526e562a87079dc683ae46,626b377229c10585ec392f89,626b3a8ad84129424f238cbe,,,,,,,,,,,,,,space,6.6338,1,0,1,0,1,,,,,,,,,,,,,,,,,,,,,,,,,,,,,,,,,,,,,,,,,,,,,,,,
,61526e562a87079dc683ae46,001,2022-04-28_20h09.51.094,classification_task,2021.2.3,Win32,59.81934558,61526e562a87079dc683ae46,626b377229c10585ec392f89,626b3a8ad84129424f238cbe,,,,,,,,,,,,,,space,10.168,2,0,2,0,1,,,,,,,,,,,,,,,,,,,,,,,,,,,,,,,,,,,,,,,,,,,,,,,,
,61526e562a87079dc683ae46,001,2022-04-28_20h09.51.094,classification_task,2021.2.3,Win32,59.81934558,61526e562a87079dc683ae46,626b377229c10585ec392f89,626b3a8ad84129424f238cbe,,,,,,,,,,,,,,space,8.8868,3,0,3,0,1,,,,,,,,,,,,,,,,,,,,,,,,,,,,,,,,,,,,,,,,,,,,,,,,
,61526e562a87079dc683ae46,001,2022-04-28_20h09.51.094,classification_task,2021.2.3,Win32,59.81934558,61526e562a87079dc683ae46,626b377229c10585ec392f89,626b3a8ad84129424f238cbe,,,,,,,,,,,,,,space,8.5506,4,0,4,0,1,,,,,,,,,,,,,,,,,,,,,,,,,,,,,,,,,,,,,,,,,,,,,,,,
,61526e562a87079dc683ae46,001,2022-04-28_20h09.51.094,classification_task,2021.2.3,Win32,59.81934558,61526e562a87079dc683ae46,626b377229c10585ec392f89,626b3a8ad84129424f238cbe,,,,,,,,,,,,,,,,,,,,,space,17.2688,l,1,5.1623,"[""0.138"",""0.371"",""0.752"",""0.692""]","[1,1,0,1]",0,0,0,0,1,1,1,,,1,FALSE,,,,,,,,,,,,,,,,,,,,,,,,,,,,,,
,61526e562a87079dc683ae46,001,2022-04-28_20h09.51.094,classification_task,2021.2.3,Win32,59.81934558,61526e562a87079dc683ae46,626b377229c10585ec392f89,626b3a8ad84129424f238cbe,,,,,,,,,,,,,,,,,,,,,,,l,1,2.4325,"[""0.138"",""0.744"",""0.562"",""0.692""]","[1,0,1,1]",0,1,1,1,1,1,1,,,1,FALSE,,,,,,,,,,,,,,,,,,,,,,,,,,,,,,
,61526e562a87079dc683ae46,001,2022-04-28_20h09.51.094,classification_task,2021.2.3,Win32,59.81934558,61526e562a87079dc683ae46,626b377229c10585ec392f89,626b3a8ad84129424f238cbe,,,,,,,,,,,,,,,,,,,,,,,a,1,4.1936,"[""0.309"",""0.443"",""0.896"",""0.752""]","[1,1,1,0]",0,2,2,2,1,0,0,,,1,FALSE,,,,,,,,,,,,,,,,,,,,,,,,,,,,,,
,61526e562a87079dc683ae46,001,2022-04-28_20h09.51.094,classification_task,2021.2.3,Win32,59.81934558,61526e562a87079dc683ae46,626b377229c10585ec392f89,626b3a8ad84129424f238cbe,,,,,,,,,,,,,,,,,,,,,,,a,1,6.4333,"[""0.738"",""0.408"",""0.624"",""0.846""]","[0,1,1,1]",0,3,3,3,1,0,1,,,1,FALSE,,,,,,,,,,,,,,,,,,,,,,,,,,,,,,
,61526e562a87079dc683ae46,001,2022-04-28_20h09.51.094,classification_task,2021.2.3,Win32,59.81934558,61526e562a87079dc683ae46,626b377229c10585ec392f89,626b3a8ad84129424f238cbe,,,,,,,,,,,,,,,,,,,,,,,a,1,3.065,"[""0.309"",""0.526"",""0.896"",""0.960""]","[1,0,1,1]",0,4,4,4,1,0,0,,,1,FALSE,,,,,,,,,,,,,,,,,,,,,,,,,,,,,,
,61526e562a87079dc683ae46,001,2022-04-28_20h09.51.094,classification_task,2021.2.3,Win32,59.81934558,61526e562a87079dc683ae46,626b377229c10585ec392f89,626b3a8ad84129424f238cbe,,,,,,,,,,,,,,,,,,,,,,,l,0,5.4879,"[""0.309"",""0.443"",""0.178"",""0.960""]","[1,1,0,1]",0,5,5,5,1,0,0,,,1,FALSE,,,,,,,,,,,,,,,,,,,,,,,,,,,,,,
,61526e562a87079dc683ae46,001,2022-04-28_20h09.51.094,classification_task,2021.2.3,Win32,59.81934558,61526e562a87079dc683ae46,626b377229c10585ec392f89,626b3a8ad84129424f238cbe,,,,,,,,,,,,,,,,,,,,,,,a,0,2.1905,"[""0.744"",""0.259"",""0.482"",""0.794""]","[0,1,1,1]",0,6,6,6,1,1,0,,,1,FALSE,,,,,,,,,,,,,,,,,,,,,,,,,,,,,,
,61526e562a87079dc683ae46,001,2022-04-28_20h09.51.094,classification_task,2021.2.3,Win32,59.81934558,61526e562a87079dc683ae46,626b377229c10585ec392f89,626b3a8ad84129424f238cbe,,,,,,,,,,,,,,,,,,,,,,,l,0,3.6003,"[""0.225"",""0.408"",""0.728"",""0.846""]","[1,1,0,1]",0,7,7,7,1,0,1,,,1,FALSE,,,,,,,,,,,,,,,,,,,,,,,,,,,,,,
,61526e562a87079dc683ae46,001,2022-04-28_20h09.51.094,classification_task,2021.2.3,Win32,59.81934558,61526e562a87079dc683ae46,626b377229c10585ec392f89,626b3a8ad84129424f238cbe,,,,,,,,,,,,,,,,,,,,,,,a,1,5.1705,"[""0.225"",""0.745"",""0.624"",""0.846""]","[1,0,1,1]",0,8,8,8,1,0,1,,,1,FALSE,,,,,,,,,,,,,,,,,,,,,,,,,,,,,,
,61526e562a87079dc683ae46,001,2022-04-28_20h09.51.094,classification_task,2021.2.3,Win32,59.81934558,61526e562a87079dc683ae46,626b377229c10585ec392f89,626b3a8ad84129424f238cbe,,,,,,,,,,,,,,,,,,,,,,,l,1,7.3382,"[""0.039"",""0.259"",""0.482"",""0.178""]","[1,1,1,0]",0,9,9,9,1,1,0,,,1,FALSE,,,,,,,,,,,,,,,,,,,,,,,,,,,,,,
,61526e562a87079dc683ae46,001,2022-04-28_20h09.51.094,classification_task,2021.2.3,Win32,59.81934558,61526e562a87079dc683ae46,626b377229c10585ec392f89,626b3a8ad84129424f238cbe,,,,,,,,,,,,,,,,,,,,,,,,0,,"[""0.178"",""0.371"",""0.562"",""0.692""]","[0,1,1,1]",0,10,10,10,1,1,1,,,1,FALSE,,,,,,,,,,,,,,,,,,,,,,,,,,,,,,
,61526e562a87079dc683ae46,001,2022-04-28_20h09.51.094,classification_task,2021.2.3,Win32,59.81934558,61526e562a87079dc683ae46,626b377229c10585ec392f89,626b3a8ad84129424f238cbe,,,,,,,,,,,,,,,,,,,,,,,l,0,3.0388,"[""0.185"",""0.443"",""0.896"",""0.960""]","[0,1,1,1]",0,11,11,11,1,0,0,,,1,FALSE,,,,,,,,,,,,,,,,,,,,,,,,,,,,,,
,61526e562a87079dc683ae46,001,2022-04-28_20h09.51.094,classification_task,2021.2.3,Win32,59.81934558,61526e562a87079dc683ae46,626b377229c10585ec392f89,626b3a8ad84129424f238cbe,,,,,,,,,,,,,,,,,,,,,,,a,0,2.1186,"[""0.138"",""0.371"",""0.562"",""0.728""]","[1,1,1,0]",0,12,12,12,1,1,1,,,1,FALSE,,,,,,,,,,,,,,,,,,,,,,,,,,,,,,
,61526e562a87079dc683ae46,001,2022-04-28_20h09.51.094,classification_task,2021.2.3,Win32,59.81934558,61526e562a87079dc683ae46,626b377229c10585ec392f89,626b3a8ad84129424f238cbe,,,,,,,,,,,,,,,,,,,,,,,a,1,2.1837,"[""0.225"",""0.408"",""0.624"",""0.738""]","[1,1,1,0]",0,13,13,13,1,0,1,,,1,FALSE,,,,,,,,,,,,,,,,,,,,,,,,,,,,,,
,61526e562a87079dc683ae46,001,2022-04-28_20h09.51.094,classification_task,2021.2.3,Win32,59.81934558,61526e562a87079dc683ae46,626b377229c10585ec392f89,626b3a8ad84129424f238cbe,,,,,,,,,,,,,,,,,,,,,,,l,1,2.0253,"[""0.039"",""0.259"",""0.185"",""0.794""]","[1,1,0,1]",0,14,14,14,1,1,0,,,1,FALSE,,,,,,,,,,,,,,,,,,,,,,,,,,,,,,
,61526e562a87079dc683ae46,001,2022-04-28_20h09.51.094,classification_task,2021.2.3,Win32,59.81934558,61526e562a87079dc683ae46,626b377229c10585ec392f89,626b3a8ad84129424f238cbe,,,,,,,,,,,,,,,,,,,,,,,l,1,1.6992,"[""0.039"",""0.744"",""0.482"",""0.794""]","[1,0,1,1]",0,15,15,15,1,1,0,,,1,FALSE,,,,,,,,,,,,,,,,,,,,,,,,,,,,,,
,61526e562a87079dc683ae46,001,2022-04-28_20h09.51.094,classification_task,2021.2.3,Win32,59.81934558,61526e562a87079dc683ae46,626b377229c10585ec392f89,626b3a8ad84129424f238cbe,,,,,,,,,,,,,,,,,,,,,,,l,1,2.0594,"[""0.039"",""0.259"",""0.482"",""0.752""]","[1,1,1,0]",0,16,16,16,1,1,0,,,1,FALSE,,,,,,,,,,,,,,,,,,,,,,,,,,,,,,
,61526e562a87079dc683ae46,001,2022-04-28_20h09.51.094,classification_task,2021.2.3,Win32,59.81934558,61526e562a87079dc683ae46,626b377229c10585ec392f89,626b3a8ad84129424f238cbe,,,,,,,,,,,,,,,,,,,,,,,a,1,1.7301,"[""0.225"",""0.408"",""0.738"",""0.846""]","[1,1,0,1]",0,17,17,17,1,0,1,,,1,FALSE,,,,,,,,,,,,,,,,,,,,,,,,,,,,,,
,61526e562a87079dc683ae46,001,2022-04-28_20h09.51.094,classification_task,2021.2.3,Win32,59.81934558,61526e562a87079dc683ae46,626b377229c10585ec392f89,626b3a8ad84129424f238cbe,,,,,,,,,,,,,,,,,,,,,,,a,1,1.7672,"[""0.225"",""0.408"",""0.624"",""0.738""]","[1,1,1,0]",0,18,18,18,1,0,1,,,1,FALSE,,,,,,,,,,,,,,,,,,,,,,,,,,,,,,
,61526e562a87079dc683ae46,001,2022-04-28_20h09.51.094,classification_task,2021.2.3,Win32,59.81934558,61526e562a87079dc683ae46,626b377229c10585ec392f89,626b3a8ad84129424f238cbe,,,,,,,,,,,,,,,,,,,,,,,l,1,5.8394,"[""0.752"",""0.371"",""0.562"",""0.692""]","[0,1,1,1]",0,19,19,19,1,1,1,,,1,FALSE,,,,,,,,,,,,,,,,,,,,,,,,,,,,,,
,61526e562a87079dc683ae46,001,2022-04-28_20h09.51.094,classification_task,2021.2.3,Win32,59.81934558,61526e562a87079dc683ae46,626b377229c10585ec392f89,626b3a8ad84129424f238cbe,,,,,,,,,,,,,,,,,,,,,,,a,1,3.6545,"[""0.309"",""0.744"",""0.896"",""0.960""]","[1,0,1,1]",0,20,20,20,1,0,0,,,1,FALSE,,,,,,,,,,,,,,,,,,,,,,,,,,,,,,
,61526e562a87079dc683ae46,001,2022-04-28_20h09.51.094,classification_task,2021.2.3,Win32,59.81934558,61526e562a87079dc683ae46,626b377229c10585ec392f89,626b3a8ad84129424f238cbe,,,,,,,,,,,,,,,,,,,,,,,l,1,4.5724,"[""0.138"",""0.371"",""0.178"",""0.692""]","[1,1,0,1]",0,21,21,21,1,1,1,,,1,FALSE,,,,,,,,,,,,,,,,,,,,,,,,,,,,,,
,61526e562a87079dc683ae46,001,2022-04-28_20h09.51.094,classification_task,2021.2.3,Win32,59.81934558,61526e562a87079dc683ae46,626b377229c10585ec392f89,626b3a8ad84129424f238cbe,,,,,,,,,,,,,,,,,,,,,,,l,1,2.2357,"[""0.039"",""0.178"",""0.482"",""0.794""]","[1,0,1,1]",0,22,22,22,1,1,0,,,1,FALSE,,,,,,,,,,,,,,,,,,,,,,,,,,,,,,
,61526e562a87079dc683ae46,001,2022-04-28_20h09.51.094,classification_task,2021.2.3,Win32,59.81934558,61526e562a87079dc683ae46,626b377229c10585ec392f89,626b3a8ad84129424f238cbe,,,,,,,,,,,,,,,,,,,,,,,l,1,3.6609,"[""0.039"",""0.259"",""0.073"",""0.794""]","[1,1,0,1]",0,23,23,23,1,1,0,,,1,FALSE,,,,,,,,,,,,,,,,,,,,,,,,,,,,,,
,61526e562a87079dc683ae46,001,2022-04-28_20h09.51.094,classification_task,2021.2.3,Win32,59.81934558,61526e562a87079dc683ae46,626b377229c10585ec392f89,626b3a8ad84129424f238cbe,,,,,,,,,,,,,,,,,,,,,,,a,1,5.7554,"[""0.527"",""0.443"",""0.896"",""0.960""]","[0,1,1,1]",0,24,24,24,1,0,0,,,1,FALSE,,,,,,,,,,,,,,,,,,,,,,,,,,,,,,
,61526e562a87079dc683ae46,001,2022-04-28_20h09.51.094,classification_task,2021.2.3,Win32,59.81934558,61526e562a87079dc683ae46,626b377229c10585ec392f89,626b3a8ad84129424f238cbe,,,,,,,,,,,,,,,,,,,,,,,l,1,5.375,"[""0.138"",""0.178"",""0.562"",""0.692""]","[1,0,1,1]",0,25,25,25,1,1,1,,,1,FALSE,,,,,,,,,,,,,,,,,,,,,,,,,,,,,,
,61526e562a87079dc683ae46,001,2022-04-28_20h09.51.094,classification_task,2021.2.3,Win32,59.81934558,61526e562a87079dc683ae46,626b377229c10585ec392f89,626b3a8ad84129424f238cbe,,,,,,,,,,,,,,,,,,,,,,,l,1,4.5181,"[""0.744"",""0.259"",""0.482"",""0.794""]","[0,1,1,1]",0,26,26,26,1,1,0,,,1,FALSE,,,,,,,,,,,,,,,,,,,,,,,,,,,,,,
,61526e562a87079dc683ae46,001,2022-04-28_20h09.51.094,classification_task,2021.2.3,Win32,59.81934558,61526e562a87079dc683ae46,626b377229c10585ec392f89,626b3a8ad84129424f238cbe,,,,,,,,,,,,,,,,,,,,,,,a,1,1.6036,"[""0.225"",""0.728"",""0.624"",""0.846""]","[1,0,1,1]",0,27,27,27,1,0,1,,,1,FALSE,,,,,,,,,,,,,,,,,,,,,,,,,,,,,,
,61526e562a87079dc683ae46,001,2022-04-28_20h09.51.094,classification_task,2021.2.3,Win32,59.81934558,61526e562a87079dc683ae46,626b377229c10585ec392f89,626b3a8ad84129424f238cbe,,,,,,,,,,,,,,,,,,,,,,,a,1,3.8048,"[""0.309"",""0.443"",""0.744"",""0.960""]","[1,1,0,1]",0,28,28,28,1,0,0,,,1,FALSE,,,,,,,,,,,,,,,,,,,,,,,,,,,,,,
,61526e562a87079dc683ae46,001,2022-04-28_20h09.51.094,classification_task,2021.2.3,Win32,59.81934558,61526e562a87079dc683ae46,626b377229c10585ec392f89,626b3a8ad84129424f238cbe,,,,,,,,,,,,,,,,,,,,,,,l,1,3.3375,"[""0.138"",""0.371"",""0.562"",""0.745""]","[1,1,1,0]",0,29,29,29,1,1,1,,,1,FALSE,,,,,,,,,,,,,,,,,,,,,,,,,,,,,,
,61526e562a87079dc683ae46,001,2022-04-28_20h09.51.094,classification_task,2021.2.3,Win32,59.81934558,61526e562a87079dc683ae46,626b377229c10585ec392f89,626b3a8ad84129424f238cbe,,,,,,,,,,,,,,,,,,,,,,,a,1,4.9182,"[""0.309"",""0.443"",""0.896"",""0.745""]","[1,1,1,0]",0,30,30,30,1,0,0,,,1,FALSE,,,,,,,,,,,,,,,,,,,,,,,,,,,,,,
,61526e562a87079dc683ae46,001,2022-04-28_20h09.51.094,classification_task,2021.2.3,Win32,59.81934558,61526e562a87079dc683ae46,626b377229c10585ec392f89,626b3a8ad84129424f238cbe,,,,,,,,,,,,,,,,,,,,,,,a,1,2.8019,"[""0.089"",""0.408"",""0.624"",""0.846""]","[0,1,1,1]",0,31,31,31,1,0,1,,,1,FALSE,,,,,,,,,,,,,,,,,,,,,,,,,,,,,,
,61526e562a87079dc683ae46,001,2022-04-28_20h09.51.094,classification_task,2021.2.3,Win32,59.81934558,61526e562a87079dc683ae46,626b377229c10585ec392f89,626b3a8ad84129424f238cbe,,,,,,,,,,,,,,,,,,,,,,,a,1,4.8084,"[""0.225"",""0.408"",""0.624"",""0.744""]","[1,1,1,0]",0,32,32,32,1,0,1,,,1,FALSE,,,,,,,,,,,,,,,,,,,,,,,,,,,,,,
,61526e562a87079dc683ae46,001,2022-04-28_20h09.51.094,classification_task,2021.2.3,Win32,59.81934558,61526e562a87079dc683ae46,626b377229c10585ec392f89,626b3a8ad84129424f238cbe,,,,,,,,,,,,,,,,,,,,,,,a,0,2.0735,"[""0.138"",""0.371"",""0.562"",""0.744""]","[1,1,1,0]",0,33,33,33,1,1,1,,,1,FALSE,,,,,,,,,,,,,,,,,,,,,,,,,,,,,,
,61526e562a87079dc683ae46,001,2022-04-28_20h09.51.094,classification_task,2021.2.3,Win32,59.81934558,61526e562a87079dc683ae46,626b377229c10585ec392f89,626b3a8ad84129424f238cbe,,,,,,,,,,,,,,,,,,,,,,,l,0,1.0436,"[""0.178"",""0.408"",""0.624"",""0.846""]","[0,1,1,1]",0,34,34,34,1,0,1,,,1,FALSE,,,,,,,,,,,,,,,,,,,,,,,,,,,,,,
,61526e562a87079dc683ae46,001,2022-04-28_20h09.51.094,classification_task,2021.2.3,Win32,59.81934558,61526e562a87079dc683ae46,626b377229c10585ec392f89,626b3a8ad84129424f238cbe,,,,,,,,,,,,,,,,,,,,,,,l,1,0.6705,"[""0.039"",""0.178"",""0.482"",""0.794""]","[1,0,1,1]",0,35,35,35,1,1,0,,,1,FALSE,,,,,,,,,,,,,,,,,,,,,,,,,,,,,,
,61526e562a87079dc683ae46,001,2022-04-28_20h09.51.094,classification_task,2021.2.3,Win32,59.81934558,61526e562a87079dc683ae46,626b377229c10585ec392f89,626b3a8ad84129424f238cbe,,,,,,,,,,,,,,,,,,,,,,,l,0,0.4007,"[""0.309"",""0.443"",""0.896"",""0.745""]","[1,1,1,0]",0,36,36,36,1,0,0,,,1,FALSE,,,,,,,,,,,,,,,,,,,,,,,,,,,,,,
,61526e562a87079dc683ae46,001,2022-04-28_20h09.51.094,classification_task,2021.2.3,Win32,59.81934558,61526e562a87079dc683ae46,626b377229c10585ec392f89,626b3a8ad84129424f238cbe,,,,,,,,,,,,,,,,,,,,,,,a,1,0.3008,"[""0.527"",""0.443"",""0.896"",""0.960""]","[0,1,1,1]",0,37,37,37,1,0,0,,,1,FALSE,,,,,,,,,,,,,,,,,,,,,,,,,,,,,,
,61526e562a87079dc683ae46,001,2022-04-28_20h09.51.094,classification_task,2021.2.3,Win32,59.81934558,61526e562a87079dc683ae46,626b377229c10585ec392f89,626b3a8ad84129424f238cbe,,,,,,,,,,,,,,,,,,,,,,,l,0,2.0332,"[""0.309"",""0.521"",""0.896"",""0.960""]","[1,0,1,1]",0,38,38,38,1,0,0,,,1,FALSE,,,,,,,,,,,,,,,,,,,,,,,,,,,,,,
,61526e562a87079dc683ae46,001,2022-04-28_20h09.51.094,classification_task,2021.2.3,Win32,59.81934558,61526e562a87079dc683ae46,626b377229c10585ec392f89,626b3a8ad84129424f238cbe,,,,,,,,,,,,,,,,,,,,,,,a,0,0.5322,"[""0.138"",""0.371"",""0.738"",""0.692""]","[1,1,0,1]",0,39,39,39,1,1,1,,,1,FALSE,,,,,,,,,,,,,,,,,,,,,,,,,,,,,,
,61526e562a87079dc683ae46,001,2022-04-28_20h09.51.094,classification_task,2021.2.3,Win32,59.81934558,61526e562a87079dc683ae46,626b377229c10585ec392f89,626b3a8ad84129424f238cbe,,,,,,,,,,,,,,,,,,,,,,,l,1,0.3172,"[""0.185"",""0.259"",""0.482"",""0.794""]","[0,1,1,1]",0,40,40,40,1,1,0,,,1,FALSE,,,,,,,,,,,,,,,,,,,,,,,,,,,,,,
,61526e562a87079dc683ae46,001,2022-04-28_20h09.51.094,classification_task,2021.2.3,Win32,59.81934558,61526e562a87079dc683ae46,626b377229c10585ec392f89,626b3a8ad84129424f238cbe,,,,,,,,,,,,,,,,,,,,,,,l,1,0.2811,"[""0.039"",""0.259"",""0.178"",""0.794""]","[1,1,0,1]",0,41,41,41,1,1,0,,,1,FALSE,,,,,,,,,,,,,,,,,,,,,,,,,,,,,,
,61526e562a87079dc683ae46,001,2022-04-28_20h09.51.094,classification_task,2021.2.3,Win32,59.81934558,61526e562a87079dc683ae46,626b377229c10585ec392f89,626b3a8ad84129424f238cbe,,,,,,,,,,,,,,,,,,,,,,,l,0,0.2657,"[""0.225"",""0.185"",""0.624"",""0.846""]","[1,0,1,1]",0,42,42,42,1,0,1,,,1,FALSE,,,,,,,,,,,,,,,,,,,,,,,,,,,,,,
,61526e562a87079dc683ae46,001,2022-04-28_20h09.51.094,classification_task,2021.2.3,Win32,59.81934558,61526e562a87079dc683ae46,626b377229c10585ec392f89,626b3a8ad84129424f238cbe,,,,,,,,,,,,,,,,,,,,,,,l,0,0.2331,"[""0.309"",""0.443"",""0.521"",""0.960""]","[1,1,0,1]",0,43,43,43,1,0,0,,,1,FALSE,,,,,,,,,,,,,,,,,,,,,,,,,,,,,,
,61526e562a87079dc683ae46,001,2022-04-28_20h09.51.094,classification_task,2021.2.3,Win32,59.81934558,61526e562a87079dc683ae46,626b377229c10585ec392f89,626b3a8ad84129424f238cbe,,,,,,,,,,,,,,,,,,,,,,,a,1,0.2005,"[""0.225"",""0.408"",""0.738"",""0.846""]","[1,1,0,1]",0,44,44,44,1,0,1,,,1,FALSE,,,,,,,,,,,,,,,,,,,,,,,,,,,,,,
,61526e562a87079dc683ae46,001,2022-04-28_20h09.51.094,classification_task,2021.2.3,Win32,59.81934558,61526e562a87079dc683ae46,626b377229c10585ec392f89,626b3a8ad84129424f238cbe,,,,,,,,,,,,,,,,,,,,,,,l,1,0.2189,"[""0.039"",""0.259"",""0.482"",""0.516""]","[1,1,1,0]",0,45,45,45,1,1,0,,,1,FALSE,,,,,,,,,,,,,,,,,,,,,,,,,,,,,,
,61526e562a87079dc683ae46,001,2022-04-28_20h09.51.094,classification_task,2021.2.3,Win32,59.81934558,61526e562a87079dc683ae46,626b377229c10585ec392f89,626b3a8ad84129424f238cbe,,,,,,,,,,,,,,,,,,,,,,,a,0,0.5334,"[""0.138"",""0.527"",""0.562"",""0.692""]","[1,0,1,1]",0,46,46,46,1,1,1,,,1,FALSE,,,,,,,,,,,,,,,,,,,,,,,,,,,,,,
,61526e562a87079dc683ae46,001,2022-04-28_20h09.51.094,classification_task,2021.2.3,Win32,59.81934558,61526e562a87079dc683ae46,626b377229c10585ec392f89,626b3a8ad84129424f238cbe,,,,,,,,,,,,,,,,,,,,,,,l,1,2.0822,"[""0.745"",""0.371"",""0.562"",""0.692""]","[0,1,1,1]",0,47,47,47,1,1,1,,,1,FALSE,,,,,,,,,,,,,,,,,,,,,,,,,,,,,,
,61526e562a87079dc683ae46,001,2022-04-28_20h09.51.094,classification_task,2021.2.3,Win32,59.81934558,61526e562a87079dc683ae46,626b377229c10585ec392f89,626b3a8ad84129424f238cbe,,,,,,,,,,,,,,,,,,,,,,,l,1,0.7489,"[""0.745"",""0.371"",""0.562"",""0.692""]","[0,1,1,1]",0,48,48,48,1,1,1,,,1,FALSE,,,,,,,,,,,,,,,,,,,,,,,,,,,,,,
,61526e562a87079dc683ae46,001,2022-04-28_20h09.51.094,classification_task,2021.2.3,Win32,59.81934558,61526e562a87079dc683ae46,626b377229c10585ec392f89,626b3a8ad84129424f238cbe,,,,,,,,,,,,,,,,,,,,,,,l,1,0.2994,"[""0.138"",""0.185"",""0.562"",""0.692""]","[1,0,1,1]",0,49,49,49,1,1,1,,,1,FALSE,,,,,,,,,,,,,,,,,,,,,,,,,,,,,,
,61526e562a87079dc683ae46,001,2022-04-28_20h09.51.094,classification_task,2021.2.3,Win32,59.81934558,61526e562a87079dc683ae46,626b377229c10585ec392f89,626b3a8ad84129424f238cbe,,,,,,,,,,,,,,,,,,,,,,,a,0,0.0717,"[""0.039"",""0.259"",""0.482"",""0.527""]","[1,1,1,0]",0,50,50,50,1,1,0,,,1,FALSE,,,,,,,,,,,,,,,,,,,,,,,,,,,,,,
,61526e562a87079dc683ae46,001,2022-04-28_20h09.51.094,classification_task,2021.2.3,Win32,59.81934558,61526e562a87079dc683ae46,626b377229c10585ec392f89,626b3a8ad84129424f238cbe,,,,,,,,,,,,,,,,,,,,,,,l,0,0.1505,"[""0.527"",""0.408"",""0.624"",""0.846""]","[0,1,1,1]",0,51,51,51,1,0,1,,,1,FALSE,,,,,,,,,,,,,,,,,,,,,,,,,,,,,,
,61526e562a87079dc683ae46,001,2022-04-28_20h09.51.094,classification_task,2021.2.3,Win32,59.81934558,61526e562a87079dc683ae46,626b377229c10585ec392f89,626b3a8ad84129424f238cbe,,,,,,,,,,,,,,,,,,,,,,,l,1,0.1857,"[""0.039"",""0.185"",""0.482"",""0.794""]","[1,0,1,1]",0,52,52,52,1,1,0,,,1,FALSE,,,,,,,,,,,,,,,,,,,,,,,,,,,,,,
,61526e562a87079dc683ae46,001,2022-04-28_20h09.51.094,classification_task,2021.2.3,Win32,59.81934558,61526e562a87079dc683ae46,626b377229c10585ec392f89,626b3a8ad84129424f238cbe,,,,,,,,,,,,,,,,,,,,,,,l,0,0.2336,"[""0.516"",""0.443"",""0.896"",""0.960""]","[0,1,1,1]",0,53,53,53,1,0,0,,,1,FALSE,,,,,,,,,,,,,,,,,,,,,,,,,,,,,,
,61526e562a87079dc683ae46,001,2022-04-28_20h09.51.094,classification_task,2021.2.3,Win32,59.81934558,61526e562a87079dc683ae46,626b377229c10585ec392f89,626b3a8ad84129424f238cbe,,,,,,,,,,,,,,,,,,,,,,,a,1,0.5011,"[""0.225"",""0.408"",""0.624"",""0.527""]","[1,1,1,0]",0,54,54,54,1,0,1,,,1,FALSE,,,,,,,,,,,,,,,,,,,,,,,,,,,,,,
,61526e562a87079dc683ae46,001,2022-04-28_20h09.51.094,classification_task,2021.2.3,Win32,59.81934558,61526e562a87079dc683ae46,626b377229c10585ec392f89,626b3a8ad84129424f238cbe,,,,,,,,,,,,,,,,,,,,,,,a,0,0.2657,"[""0.039"",""0.259"",""0.185"",""0.794""]","[1,1,0,1]",0,55,55,55,1,1,0,,,1,FALSE,,,,,,,,,,,,,,,,,,,,,,,,,,,,,,
,61526e562a87079dc683ae46,001,2022-04-28_20h09.51.094,classification_task,2021.2.3,Win32,59.81934558,61526e562a87079dc683ae46,626b377229c10585ec392f89,626b3a8ad84129424f238cbe,,,,,,,,,,,,,,,,,,,,,,,l,0,0.3158,"[""0.309"",""0.443"",""0.527"",""0.960""]","[1,1,0,1]",0,56,56,56,1,0,0,,,1,FALSE,,,,,,,,,,,,,,,,,,,,,,,,,,,,,,
,61526e562a87079dc683ae46,001,2022-04-28_20h09.51.094,classification_task,2021.2.3,Win32,59.81934558,61526e562a87079dc683ae46,626b377229c10585ec392f89,626b3a8ad84129424f238cbe,,,,,,,,,,,,,,,,,,,,,,,l,0,0.2057,"[""0.309"",""0.516"",""0.896"",""0.960""]","[1,0,1,1]",0,57,57,57,1,0,0,,,1,FALSE,,,,,,,,,,,,,,,,,,,,,,,,,,,,,,
,61526e562a87079dc683ae46,001,2022-04-28_20h09.51.094,classification_task,2021.2.3,Win32,59.81934558,61526e562a87079dc683ae46,626b377229c10585ec392f89,626b3a8ad84129424f238cbe,,,,,,,,,,,,,,,,,,,,,,,l,1,0.1186,"[""0.728"",""0.259"",""0.482"",""0.794""]","[0,1,1,1]",0,58,58,58,1,1,0,,,1,FALSE,,,,,,,,,,,,,,,,,,,,,,,,,,,,,,
,61526e562a87079dc683ae46,001,2022-04-28_20h09.51.094,classification_task,2021.2.3,Win32,59.81934558,61526e562a87079dc683ae46,626b377229c10585ec392f89,626b3a8ad84129424f238cbe,,,,,,,,,,,,,,,,,,,,,,,l,0,0.1663,"[""0.225"",""0.408"",""0.185"",""0.846""]","[1,1,0,1]",0,59,59,59,1,0,1,,,1,FALSE,,,,,,,,,,,,,,,,,,,,,,,,,,,,,,
,61526e562a87079dc683ae46,001,2022-04-28_20h09.51.094,classification_task,2021.2.3,Win32,59.81934558,61526e562a87079dc683ae46,626b377229c10585ec392f89,626b3a8ad84129424f238cbe,,,,,,,,,,,,,,,,,,,,,,,a,1,0.201,"[""0.309"",""0.443"",""0.896"",""0.521""]","[1,1,1,0]",0,60,60,60,1,0,0,,,1,FALSE,,,,,,,,,,,,,,,,,,,,,,,,,,,,,,
,61526e562a87079dc683ae46,001,2022-04-28_20h09.51.094,classification_task,2021.2.3,Win32,59.81934558,61526e562a87079dc683ae46,626b377229c10585ec392f89,626b3a8ad84129424f238cbe,,,,,,,,,,,,,,,,,,,,,,,a,0,0.184,"[""0.138"",""0.371"",""0.562"",""0.728""]","[1,1,1,0]",0,61,61,61,1,1,1,,,1,FALSE,,,,,,,,,,,,,,,,,,,,,,,,,,,,,,
,61526e562a87079dc683ae46,001,2022-04-28_20h09.51.094,classification_task,2021.2.3,Win32,59.81934558,61526e562a87079dc683ae46,626b377229c10585ec392f89,626b3a8ad84129424f238cbe,,,,,,,,,,,,,,,,,,,,,,,l,1,0.3522,"[""0.138"",""0.371"",""0.089"",""0.692""]","[1,1,0,1]",0,62,62,62,1,1,1,,,1,FALSE,,,,,,,,,,,,,,,,,,,,,,,,,,,,,,
,61526e562a87079dc683ae46,001,2022-04-28_20h09.51.094,classification_task,2021.2.3,Win32,59.81934558,61526e562a87079dc683ae46,626b377229c10585ec392f89,626b3a8ad84129424f238cbe,,,,,,,,,,,,,,,,,,,,,,,l,0,0.2526,"[""0.225"",""0.178"",""0.624"",""0.846""]","[1,0,1,1]",0,63,63,63,1,0,1,,,1,FALSE,,,,,,,,,,,,,,,,,,,,,,,,,,,,,,
,61526e562a87079dc683ae46,001,2022-04-28_20h09.51.094,classification_task,2021.2.3,Win32,59.81934558,61526e562a87079dc683ae46,626b377229c10585ec392f89,626b3a8ad84129424f238cbe,,,,,,,,,,,,,,,,,,,,,,,,,,,,,,,,,,,,,,,0, ,,0,,,0,0,0,0,1,2,1,,,,,,,,,,,,,,,,,
,61526e562a87079dc683ae46,001,2022-04-28_20h09.51.094,classification_task,2021.2.3,Win32,59.81934558,61526e562a87079dc683ae46,626b377229c10585ec392f89,626b3a8ad84129424f238cbe,,,,,,,,,,,,,,,,,,,,,,,,,,,,,,,,,,,,,,,1,  ,,0,,,0,0,0,0,1,2,1,,,,,,,,,,,,,,,,,
,61526e562a87079dc683ae46,001,2022-04-28_20h09.51.094,classification_task,2021.2.3,Win32,59.81934558,61526e562a87079dc683ae46,626b377229c10585ec392f89,626b3a8ad84129424f238cbe,,,,,,,,,,,,,,,,,,,,,,,,,,,,,,,,,,,,,,,2,  ,,0,,,0,0,0,0,1,2,1,,,,,,,,,,,,,,,,,
,61526e562a87079dc683ae46,001,2022-04-28_20h09.51.094,classification_task,2021.2.3,Win32,59.81934558,61526e562a87079dc683ae46,626b377229c10585ec392f89,626b3a8ad84129424f238cbe,,,,,,,,,,,,,,,,,,,,,,,,,,,,,,,,,,,,,,,,,,,,,0,0,0,0,1,,1,,,,,,,,,,,,,,,,,
,61526e562a87079dc683ae46,001,2022-04-28_20h09.51.094,classification_task,2021.2.3,Win32,59.81934558,61526e562a87079dc683ae46,626b377229c10585ec392f89,626b3a8ad84129424f238cbe,,,,,,,,,,,,,,,,,,,,,space,6.1688,l,1,3.6952,"[""0.089"",""0.371"",""0.562"",""0.692""]","[0,1,1,1]",0,0,0,0,1,1,1,,,1,FALSE,,,,,,,,,,,,,,,,,,,,,,,,,,,,,,
,61526e562a87079dc683ae46,001,2022-04-28_20h09.51.094,classification_task,2021.2.3,Win32,59.81934558,61526e562a87079dc683ae46,626b377229c10585ec392f89,626b3a8ad84129424f238cbe,,,,,,,,,,,,,,,,,,,,,,,a,0,1.329,"[""0.738"",""0.259"",""0.482"",""0.794""]","[0,1,1,1]",0,1,1,1,1,1,0,,,1,FALSE,,,,,,,,,,,,,,,,,,,,,,,,,,,,,,
,61526e562a87079dc683ae46,001,2022-04-28_20h09.51.094,classification_task,2021.2.3,Win32,59.81934558,61526e562a87079dc683ae46,626b377229c10585ec392f89,626b3a8ad84129424f238cbe,,,,,,,,,,,,,,,,,,,,,,,l,1,0.4309,"[""0.039"",""0.259"",""0.482"",""0.526""]","[1,1,1,0]",0,2,2,2,1,1,0,,,1,FALSE,,,,,,,,,,,,,,,,,,,,,,,,,,,,,,
,61526e562a87079dc683ae46,001,2022-04-28_20h09.51.094,classification_task,2021.2.3,Win32,59.81934558,61526e562a87079dc683ae46,626b377229c10585ec392f89,626b3a8ad84129424f238cbe,,,,,,,,,,,,,,,,,,,,,,,l,0,0.1961,"[""0.225"",""0.408"",""0.624"",""0.073""]","[1,1,1,0]",0,3,3,3,1,0,1,,,1,FALSE,,,,,,,,,,,,,,,,,,,,,,,,,,,,,,
,61526e562a87079dc683ae46,001,2022-04-28_20h09.51.094,classification_task,2021.2.3,Win32,59.81934558,61526e562a87079dc683ae46,626b377229c10585ec392f89,626b3a8ad84129424f238cbe,,,,,,,,,,,,,,,,,,,,,,,a,1,1.9149,"[""0.728"",""0.408"",""0.624"",""0.846""]","[0,1,1,1]",0,4,4,4,1,0,1,,,1,FALSE,,,,,,,,,,,,,,,,,,,,,,,,,,,,,,
,61526e562a87079dc683ae46,001,2022-04-28_20h09.51.094,classification_task,2021.2.3,Win32,59.81934558,61526e562a87079dc683ae46,626b377229c10585ec392f89,626b3a8ad84129424f238cbe,,,,,,,,,,,,,,,,,,,,,,,l,1,1.6957,"[""0.138"",""0.371"",""0.562"",""0.521""]","[1,1,1,0]",0,5,5,5,1,1,1,,,1,FALSE,,,,,,,,,,,,,,,,,,,,,,,,,,,,,,
,61526e562a87079dc683ae46,001,2022-04-28_20h09.51.094,classification_task,2021.2.3,Win32,59.81934558,61526e562a87079dc683ae46,626b377229c10585ec392f89,626b3a8ad84129424f238cbe,,,,,,,,,,,,,,,,,,,,,,,a,1,1.0003,"[""0.225"",""0.516"",""0.624"",""0.846""]","[1,0,1,1]",0,6,6,6,1,0,1,,,1,FALSE,,,,,,,,,,,,,,,,,,,,,,,,,,,,,,
,61526e562a87079dc683ae46,001,2022-04-28_20h09.51.094,classification_task,2021.2.3,Win32,59.81934558,61526e562a87079dc683ae46,626b377229c10585ec392f89,626b3a8ad84129424f238cbe,,,,,,,,,,,,,,,,,,,,,,,l,1,1.2937,"[""0.039"",""0.516"",""0.482"",""0.794""]","[1,0,1,1]",0,7,7,7,1,1,0,,,1,FALSE,,,,,,,,,,,,,,,,,,,,,,,,,,,,,,
,61526e562a87079dc683ae46,001,2022-04-28_20h09.51.094,classification_task,2021.2.3,Win32,59.81934558,61526e562a87079dc683ae46,626b377229c10585ec392f89,626b3a8ad84129424f238cbe,,,,,,,,,,,,,,,,,,,,,,,l,1,0.928,"[""0.138"",""0.738"",""0.562"",""0.692""]","[1,0,1,1]",0,8,8,8,1,1,1,,,1,FALSE,,,,,,,,,,,,,,,,,,,,,,,,,,,,,,
,61526e562a87079dc683ae46,001,2022-04-28_20h09.51.094,classification_task,2021.2.3,Win32,59.81934558,61526e562a87079dc683ae46,626b377229c10585ec392f89,626b3a8ad84129424f238cbe,,,,,,,,,,,,,,,,,,,,,,,a,1,2.9949,"[""0.309"",""0.443"",""0.752"",""0.960""]","[1,1,0,1]",0,9,9,9,1,0,0,,,1,FALSE,,,,,,,,,,,,,,,,,,,,,,,,,,,,,,
,61526e562a87079dc683ae46,001,2022-04-28_20h09.51.094,classification_task,2021.2.3,Win32,59.81934558,61526e562a87079dc683ae46,626b377229c10585ec392f89,626b3a8ad84129424f238cbe,,,,,,,,,,,,,,,,,,,,,,,l,1,1.6378,"[""0.138"",""0.371"",""0.526"",""0.692""]","[1,1,0,1]",0,10,10,10,1,1,1,,,1,FALSE,,,,,,,,,,,,,,,,,,,,,,,,,,,,,,
,61526e562a87079dc683ae46,001,2022-04-28_20h09.51.094,classification_task,2021.2.3,Win32,59.81934558,61526e562a87079dc683ae46,626b377229c10585ec392f89,626b3a8ad84129424f238cbe,,,,,,,,,,,,,,,,,,,,,,,l,0,0.9786,"[""0.309"",""0.178"",""0.896"",""0.960""]","[1,0,1,1]",0,11,11,11,1,0,0,,,1,FALSE,,,,,,,,,,,,,,,,,,,,,,,,,,,,,,
,61526e562a87079dc683ae46,001,2022-04-28_20h09.51.094,classification_task,2021.2.3,Win32,59.81934558,61526e562a87079dc683ae46,626b377229c10585ec392f89,626b3a8ad84129424f238cbe,,,,,,,,,,,,,,,,,,,,,,,a,1,0.67,"[""0.309"",""0.443"",""0.896"",""0.738""]","[1,1,1,0]",0,12,12,12,1,0,0,,,1,FALSE,,,,,,,,,,,,,,,,,,,,,,,,,,,,,,
,61526e562a87079dc683ae46,001,2022-04-28_20h09.51.094,classification_task,2021.2.3,Win32,59.81934558,61526e562a87079dc683ae46,626b377229c10585ec392f89,626b3a8ad84129424f238cbe,,,,,,,,,,,,,,,,,,,,,,,a,1,0.8976,"[""0.225"",""0.408"",""0.178"",""0.846""]","[1,1,0,1]",0,13,13,13,1,0,1,,,1,FALSE,,,,,,,,,,,,,,,,,,,,,,,,,,,,,,
,61526e562a87079dc683ae46,001,2022-04-28_20h09.51.094,classification_task,2021.2.3,Win32,59.81934558,61526e562a87079dc683ae46,626b377229c10585ec392f89,626b3a8ad84129424f238cbe,,,,,,,,,,,,,,,,,,,,,,,a,1,0.7964,"[""0.521"",""0.443"",""0.896"",""0.960""]","[0,1,1,1]",0,14,14,14,1,0,0,,,1,FALSE,,,,,,,,,,,,,,,,,,,,,,,,,,,,,,
,61526e562a87079dc683ae46,001,2022-04-28_20h09.51.094,classification_task,2021.2.3,Win32,59.81934558,61526e562a87079dc683ae46,626b377229c10585ec392f89,626b3a8ad84129424f238cbe,,,,,,,,,,,,,,,,,,,,,,,a,0,0.4505,"[""0.039"",""0.259"",""0.178"",""0.794""]","[1,1,0,1]",0,15,15,15,1,1,0,,,1,FALSE,,,,,,,,,,,,,,,,,,,,,,,,,,,,,,
,61526e562a87079dc683ae46,001,2022-04-28_20h09.51.094,classification_task,2021.2.3,Win32,59.81934558,61526e562a87079dc683ae46,626b377229c10585ec392f89,626b3a8ad84129424f238cbe,,,,,,,,,,,,,,,,,,,,,,,l,1,0.2999,"[""0.039"",""0.745"",""0.482"",""0.794""]","[1,0,1,1]",0,16,16,16,1,1,0,,,1,FALSE,,,,,,,,,,,,,,,,,,,,,,,,,,,,,,
,61526e562a87079dc683ae46,001,2022-04-28_20h09.51.094,classification_task,2021.2.3,Win32,59.81934558,61526e562a87079dc683ae46,626b377229c10585ec392f89,626b3a8ad84129424f238cbe,,,,,,,,,,,,,,,,,,,,,,,a,1,0.317,"[""0.225"",""0.408"",""0.744"",""0.846""]","[1,1,0,1]",0,17,17,17,1,0,1,,,1,FALSE,,,,,,,,,,,,,,,,,,,,,,,,,,,,,,
,61526e562a87079dc683ae46,001,2022-04-28_20h09.51.094,classification_task,2021.2.3,Win32,59.81934558,61526e562a87079dc683ae46,626b377229c10585ec392f89,626b3a8ad84129424f238cbe,,,,,,,,,,,,,,,,,,,,,,,l,1,0.5943,"[""0.039"",""0.259"",""0.482"",""0.178""]","[1,1,1,0]",0,18,18,18,1,1,0,,,1,FALSE,,,,,,,,,,,,,,,,,,,,,,,,,,,,,,
,61526e562a87079dc683ae46,001,2022-04-28_20h09.51.094,classification_task,2021.2.3,Win32,59.81934558,61526e562a87079dc683ae46,626b377229c10585ec392f89,626b3a8ad84129424f238cbe,,,,,,,,,,,,,,,,,,,,,,,a,1,0.8106,"[""0.225"",""0.408"",""0.624"",""0.178""]","[1,1,1,0]",0,19,19,19,1,0,1,,,1,FALSE,,,,,,,,,,,,,,,,,,,,,,,,,,,,,,
,61526e562a87079dc683ae46,001,2022-04-28_20h09.51.094,classification_task,2021.2.3,Win32,59.81934558,61526e562a87079dc683ae46,626b377229c10585ec392f89,626b3a8ad84129424f238cbe,,,,,,,,,,,,,,,,,,,,,,,l,1,0.5617,"[""0.516"",""0.259"",""0.482"",""0.794""]","[0,1,1,1]",0,20,20,20,1,1,0,,,1,FALSE,,,,,,,,,,,,,,,,,,,,,,,,,,,,,,
,61526e562a87079dc683ae46,001,2022-04-28_20h09.51.094,classification_task,2021.2.3,Win32,59.81934558,61526e562a87079dc683ae46,626b377229c10585ec392f89,626b3a8ad84129424f238cbe,,,,,,,,,,,,,,,,,,,,,,,a,1,0.5177,"[""0.527"",""0.443"",""0.896"",""0.960""]","[0,1,1,1]",0,21,21,21,1,0,0,,,1,FALSE,,,,,,,,,,,,,,,,,,,,,,,,,,,,,,
,61526e562a87079dc683ae46,001,2022-04-28_20h09.51.094,classification_task,2021.2.3,Win32,59.81934558,61526e562a87079dc683ae46,626b377229c10585ec392f89,626b3a8ad84129424f238cbe,,,,,,,,,,,,,,,,,,,,,,,a,1,1.2292,"[""0.089"",""0.408"",""0.624"",""0.846""]","[0,1,1,1]",0,22,22,22,1,0,1,,,1,FALSE,,,,,,,,,,,,,,,,,,,,,,,,,,,,,,
,61526e562a87079dc683ae46,001,2022-04-28_20h09.51.094,classification_task,2021.2.3,Win32,59.81934558,61526e562a87079dc683ae46,626b377229c10585ec392f89,626b3a8ad84129424f238cbe,,,,,,,,,,,,,,,,,,,,,,,l,1,0.8215,"[""0.138"",""0.371"",""0.738"",""0.692""]","[1,1,0,1]",0,23,23,23,1,1,1,,,1,FALSE,,,,,,,,,,,,,,,,,,,,,,,,,,,,,,
,61526e562a87079dc683ae46,001,2022-04-28_20h09.51.094,classification_task,2021.2.3,Win32,59.81934558,61526e562a87079dc683ae46,626b377229c10585ec392f89,626b3a8ad84129424f238cbe,,,,,,,,,,,,,,,,,,,,,,,a,1,0.5957,"[""0.309"",""0.516"",""0.896"",""0.960""]","[1,0,1,1]",0,24,24,24,1,0,0,,,1,FALSE,,,,,,,,,,,,,,,,,,,,,,,,,,,,,,
,61526e562a87079dc683ae46,001,2022-04-28_20h09.51.094,classification_task,2021.2.3,Win32,59.81934558,61526e562a87079dc683ae46,626b377229c10585ec392f89,626b3a8ad84129424f238cbe,,,,,,,,,,,,,,,,,,,,,,,l,1,1.6948,"[""0.138"",""0.371"",""0.562"",""0.526""]","[1,1,1,0]",0,25,25,25,1,1,1,,,1,FALSE,,,,,,,,,,,,,,,,,,,,,,,,,,,,,,
,61526e562a87079dc683ae46,001,2022-04-28_20h09.51.094,classification_task,2021.2.3,Win32,59.81934558,61526e562a87079dc683ae46,626b377229c10585ec392f89,626b3a8ad84129424f238cbe,,,,,,,,,,,,,,,,,,,,,,,a,1,0.6929,"[""0.225"",""0.744"",""0.624"",""0.846""]","[1,0,1,1]",0,26,26,26,1,0,1,,,1,FALSE,,,,,,,,,,,,,,,,,,,,,,,,,,,,,,
,61526e562a87079dc683ae46,001,2022-04-28_20h09.51.094,classification_task,2021.2.3,Win32,59.81934558,61526e562a87079dc683ae46,626b377229c10585ec392f89,626b3a8ad84129424f238cbe,,,,,,,,,,,,,,,,,,,,,,,l,0,0.7439,"[""0.309"",""0.443"",""0.896"",""0.738""]","[1,1,1,0]",0,27,27,27,1,0,0,,,1,FALSE,,,,,,,,,,,,,,,,,,,,,,,,,,,,,,
,61526e562a87079dc683ae46,001,2022-04-28_20h09.51.094,classification_task,2021.2.3,Win32,59.81934558,61526e562a87079dc683ae46,626b377229c10585ec392f89,626b3a8ad84129424f238cbe,,,,,,,,,,,,,,,,,,,,,,,l,0,0.2563,"[""0.309"",""0.443"",""0.089"",""0.960""]","[1,1,0,1]",0,28,28,28,1,0,0,,,1,FALSE,,,,,,,,,,,,,,,,,,,,,,,,,,,,,,
,61526e562a87079dc683ae46,001,2022-04-28_20h09.51.094,classification_task,2021.2.3,Win32,59.81934558,61526e562a87079dc683ae46,626b377229c10585ec392f89,626b3a8ad84129424f238cbe,,,,,,,,,,,,,,,,,,,,,,,a,0,0.1508,"[""0.039"",""0.259"",""0.185"",""0.794""]","[1,1,0,1]",0,29,29,29,1,1,0,,,1,FALSE,,,,,,,,,,,,,,,,,,,,,,,,,,,,,,
,61526e562a87079dc683ae46,001,2022-04-28_20h09.51.094,classification_task,2021.2.3,Win32,59.81934558,61526e562a87079dc683ae46,626b377229c10585ec392f89,626b3a8ad84129424f238cbe,,,,,,,,,,,,,,,,,,,,,,,l,1,0.7136,"[""0.527"",""0.371"",""0.562"",""0.692""]","[0,1,1,1]",0,30,30,30,1,1,1,,,1,FALSE,,,,,,,,,,,,,,,,,,,,,,,,,,,,,,
,61526e562a87079dc683ae46,001,2022-04-28_20h09.51.094,classification_task,2021.2.3,Win32,59.81934558,61526e562a87079dc683ae46,626b377229c10585ec392f89,626b3a8ad84129424f238cbe,,,,,,,,,,,,,,,,,,,,,,,l,1,0.931,"[""0.138"",""0.089"",""0.562"",""0.692""]","[1,0,1,1]",0,31,31,31,1,1,1,,,1,FALSE,,,,,,,,,,,,,,,,,,,,,,,,,,,,,,
,61526e562a87079dc683ae46,001,2022-04-28_20h09.51.094,classification_task,2021.2.3,Win32,59.81934558,61526e562a87079dc683ae46,626b377229c10585ec392f89,626b3a8ad84129424f238cbe,,,,,,,,,,,,,,,,,,,,,,,l,1,1.063,"[""0.738"",""0.371"",""0.562"",""0.692""]","[0,1,1,1]",0,32,32,32,1,1,1,,,1,FALSE,,,,,,,,,,,,,,,,,,,,,,,,,,,,,,
,61526e562a87079dc683ae46,001,2022-04-28_20h09.51.094,classification_task,2021.2.3,Win32,59.81934558,61526e562a87079dc683ae46,626b377229c10585ec392f89,626b3a8ad84129424f238cbe,,,,,,,,,,,,,,,,,,,,,,,a,1,0.616,"[""0.225"",""0.408"",""0.624"",""0.521""]","[1,1,1,0]",0,33,33,33,1,0,1,,,1,FALSE,,,,,,,,,,,,,,,,,,,,,,,,,,,,,,
,61526e562a87079dc683ae46,001,2022-04-28_20h09.51.094,classification_task,2021.2.3,Win32,59.81934558,61526e562a87079dc683ae46,626b377229c10585ec392f89,626b3a8ad84129424f238cbe,,,,,,,,,,,,,,,,,,,,,,,l,1,0.6649,"[""0.178"",""0.259"",""0.482"",""0.794""]","[0,1,1,1]",0,34,34,34,1,1,0,,,1,FALSE,,,,,,,,,,,,,,,,,,,,,,,,,,,,,,
,61526e562a87079dc683ae46,001,2022-04-28_20h09.51.094,classification_task,2021.2.3,Win32,59.81934558,61526e562a87079dc683ae46,626b377229c10585ec392f89,626b3a8ad84129424f238cbe,,,,,,,,,,,,,,,,,,,,,,,l,0,0.6997,"[""0.089"",""0.443"",""0.896"",""0.960""]","[0,1,1,1]",0,35,35,35,1,0,0,,,1,FALSE,,,,,,,,,,,,,,,,,,,,,,,,,,,,,,
,61526e562a87079dc683ae46,001,2022-04-28_20h09.51.094,classification_task,2021.2.3,Win32,59.81934558,61526e562a87079dc683ae46,626b377229c10585ec392f89,626b3a8ad84129424f238cbe,,,,,,,,,,,,,,,,,,,,,,,a,0,0.5305,"[""0.039"",""0.259"",""0.728"",""0.794""]","[1,1,0,1]",0,36,36,36,1,1,0,,,1,FALSE,,,,,,,,,,,,,,,,,,,,,,,,,,,,,,
,61526e562a87079dc683ae46,001,2022-04-28_20h09.51.094,classification_task,2021.2.3,Win32,59.81934558,61526e562a87079dc683ae46,626b377229c10585ec392f89,626b3a8ad84129424f238cbe,,,,,,,,,,,,,,,,,,,,,,,a,1,0.3339,"[""0.309"",""0.443"",""0.745"",""0.960""]","[1,1,0,1]",0,37,37,37,1,0,0,,,1,FALSE,,,,,,,,,,,,,,,,,,,,,,,,,,,,,,
,61526e562a87079dc683ae46,001,2022-04-28_20h09.51.094,classification_task,2021.2.3,Win32,59.81934558,61526e562a87079dc683ae46,626b377229c10585ec392f89,626b3a8ad84129424f238cbe,,,,,,,,,,,,,,,,,,,,,,,a,1,0.4189,"[""0.309"",""0.178"",""0.896"",""0.960""]","[1,0,1,1]",0,38,38,38,1,0,0,,,1,FALSE,,,,,,,,,,,,,,,,,,,,,,,,,,,,,,
,61526e562a87079dc683ae46,001,2022-04-28_20h09.51.094,classification_task,2021.2.3,Win32,59.81934558,61526e562a87079dc683ae46,626b377229c10585ec392f89,626b3a8ad84129424f238cbe,,,,,,,,,,,,,,,,,,,,,,,l,1,0.9658,"[""0.138"",""0.371"",""0.728"",""0.692""]","[1,1,0,1]",0,39,39,39,1,1,1,,,1,FALSE,,,,,,,,,,,,,,,,,,,,,,,,,,,,,,
,61526e562a87079dc683ae46,001,2022-04-28_20h09.51.094,classification_task,2021.2.3,Win32,59.81934558,61526e562a87079dc683ae46,626b377229c10585ec392f89,626b3a8ad84129424f238cbe,,,,,,,,,,,,,,,,,,,,,,,a,0,0.5129,"[""0.039"",""0.185"",""0.482"",""0.794""]","[1,0,1,1]",0,40,40,40,1,1,0,,,1,FALSE,,,,,,,,,,,,,,,,,,,,,,,,,,,,,,
,61526e562a87079dc683ae46,001,2022-04-28_20h09.51.094,classification_task,2021.2.3,Win32,59.81934558,61526e562a87079dc683ae46,626b377229c10585ec392f89,626b3a8ad84129424f238cbe,,,,,,,,,,,,,,,,,,,,,,,l,0,0.4353,"[""0.225"",""0.728"",""0.624"",""0.846""]","[1,0,1,1]",0,41,41,41,1,0,1,,,1,FALSE,,,,,,,,,,,,,,,,,,,,,,,,,,,,,,
,61526e562a87079dc683ae46,001,2022-04-28_20h09.51.094,classification_task,2021.2.3,Win32,59.81934558,61526e562a87079dc683ae46,626b377229c10585ec392f89,626b3a8ad84129424f238cbe,,,,,,,,,,,,,,,,,,,,,,,l,1,0.2152,"[""0.138"",""0.371"",""0.562"",""0.745""]","[1,1,1,0]",0,42,42,42,1,1,1,,,1,FALSE,,,,,,,,,,,,,,,,,,,,,,,,,,,,,,
,61526e562a87079dc683ae46,001,2022-04-28_20h09.51.094,classification_task,2021.2.3,Win32,59.81934558,61526e562a87079dc683ae46,626b377229c10585ec392f89,626b3a8ad84129424f238cbe,,,,,,,,,,,,,,,,,,,,,,,l,0,0.4336,"[""0.309"",""0.443"",""0.896"",""0.728""]","[1,1,1,0]",0,43,43,43,1,0,0,,,1,FALSE,,,,,,,,,,,,,,,,,,,,,,,,,,,,,,
,61526e562a87079dc683ae46,001,2022-04-28_20h09.51.094,classification_task,2021.2.3,Win32,59.81934558,61526e562a87079dc683ae46,626b377229c10585ec392f89,626b3a8ad84129424f238cbe,,,,,,,,,,,,,,,,,,,,,,,a,0,0.2169,"[""0.138"",""0.728"",""0.562"",""0.692""]","[1,0,1,1]",0,44,44,44,1,1,1,,,1,FALSE,,,,,,,,,,,,,,,,,,,,,,,,,,,,,,
,61526e562a87079dc683ae46,001,2022-04-28_20h09.51.094,classification_task,2021.2.3,Win32,59.81934558,61526e562a87079dc683ae46,626b377229c10585ec392f89,626b3a8ad84129424f238cbe,,,,,,,,,,,,,,,,,,,,,,,l,0,0.2175,"[""0.752"",""0.408"",""0.624"",""0.846""]","[0,1,1,1]",0,45,45,45,1,0,1,,,1,FALSE,,,,,,,,,,,,,,,,,,,,,,,,,,,,,,
,61526e562a87079dc683ae46,001,2022-04-28_20h09.51.094,classification_task,2021.2.3,Win32,59.81934558,61526e562a87079dc683ae46,626b377229c10585ec392f89,626b3a8ad84129424f238cbe,,,,,,,,,,,,,,,,,,,,,,,l,0,0.0171,"[""0.225"",""0.408"",""0.744"",""0.846""]","[1,1,0,1]",0,46,46,46,1,0,1,,,1,FALSE,,,,,,,,,,,,,,,,,,,,,,,,,,,,,,
,61526e562a87079dc683ae46,001,2022-04-28_20h09.51.094,classification_task,2021.2.3,Win32,59.81934558,61526e562a87079dc683ae46,626b377229c10585ec392f89,626b3a8ad84129424f238cbe,,,,,,,,,,,,,,,,,,,,,,,a,0,0.5815,"[""0.039"",""0.259"",""0.482"",""0.178""]","[1,1,1,0]",0,47,47,47,1,1,0,,,1,FALSE,,,,,,,,,,,,,,,,,,,,,,,,,,,,,,
,61526e562a87079dc683ae46,001,2022-04-28_20h09.51.094,classification_task,2021.2.3,Win32,59.81934558,61526e562a87079dc683ae46,626b377229c10585ec392f89,626b3a8ad84129424f238cbe,,,,,,,,,,,,,,,,,,,,,,,a,0,0.5824,"[""0.039"",""0.259"",""0.482"",""0.738""]","[1,1,1,0]",0,48,48,48,1,1,0,,,1,FALSE,,,,,,,,,,,,,,,,,,,,,,,,,,,,,,
,61526e562a87079dc683ae46,001,2022-04-28_20h09.51.094,classification_task,2021.2.3,Win32,59.81934558,61526e562a87079dc683ae46,626b377229c10585ec392f89,626b3a8ad84129424f238cbe,,,,,,,,,,,,,,,,,,,,,,,a,1,1.2066,"[""0.185"",""0.408"",""0.624"",""0.846""]","[0,1,1,1]",0,49,49,49,1,0,1,,,1,FALSE,,,,,,,,,,,,,,,,,,,,,,,,,,,,,,
,61526e562a87079dc683ae46,001,2022-04-28_20h09.51.094,classification_task,2021.2.3,Win32,59.81934558,61526e562a87079dc683ae46,626b377229c10585ec392f89,626b3a8ad84129424f238cbe,,,,,,,,,,,,,,,,,,,,,,,a,0,0.6627,"[""0.039"",""0.738"",""0.482"",""0.794""]","[1,0,1,1]",0,50,50,50,1,1,0,,,1,FALSE,,,,,,,,,,,,,,,,,,,,,,,,,,,,,,
,61526e562a87079dc683ae46,001,2022-04-28_20h09.51.094,classification_task,2021.2.3,Win32,59.81934558,61526e562a87079dc683ae46,626b377229c10585ec392f89,626b3a8ad84129424f238cbe,,,,,,,,,,,,,,,,,,,,,,,a,1,0.5944,"[""0.225"",""0.408"",""0.624"",""0.745""]","[1,1,1,0]",0,51,51,51,1,0,1,,,1,FALSE,,,,,,,,,,,,,,,,,,,,,,,,,,,,,,
,61526e562a87079dc683ae46,001,2022-04-28_20h09.51.094,classification_task,2021.2.3,Win32,59.81934558,61526e562a87079dc683ae46,626b377229c10585ec392f89,626b3a8ad84129424f238cbe,,,,,,,,,,,,,,,,,,,,,,,l,1,0.4322,"[""0.138"",""0.371"",""0.728"",""0.692""]","[1,1,0,1]",0,52,52,52,1,1,1,,,1,FALSE,,,,,,,,,,,,,,,,,,,,,,,,,,,,,,
,61526e562a87079dc683ae46,001,2022-04-28_20h09.51.094,classification_task,2021.2.3,Win32,59.81934558,61526e562a87079dc683ae46,626b377229c10585ec392f89,626b3a8ad84129424f238cbe,,,,,,,,,,,,,,,,,,,,,,,a,1,0.7807,"[""0.225"",""0.408"",""0.178"",""0.846""]","[1,1,0,1]",0,53,53,53,1,0,1,,,1,FALSE,,,,,,,,,,,,,,,,,,,,,,,,,,,,,,
,61526e562a87079dc683ae46,001,2022-04-28_20h09.51.094,classification_task,2021.2.3,Win32,59.81934558,61526e562a87079dc683ae46,626b377229c10585ec392f89,626b3a8ad84129424f238cbe,,,,,,,,,,,,,,,,,,,,,,,a,1,1.0058,"[""0.309"",""0.521"",""0.896"",""0.960""]","[1,0,1,1]",0,54,54,54,1,0,0,,,1,FALSE,,,,,,,,,,,,,,,,,,,,,,,,,,,,,,
,61526e562a87079dc683ae46,001,2022-04-28_20h09.51.094,classification_task,2021.2.3,Win32,59.81934558,61526e562a87079dc683ae46,626b377229c10585ec392f89,626b3a8ad84129424f238cbe,,,,,,,,,,,,,,,,,,,,,,,l,1,0.6537,"[""0.039"",""0.259"",""0.185"",""0.794""]","[1,1,0,1]",0,55,55,55,1,1,0,,,1,FALSE,,,,,,,,,,,,,,,,,,,,,,,,,,,,,,
,61526e562a87079dc683ae46,001,2022-04-28_20h09.51.094,classification_task,2021.2.3,Win32,59.81934558,61526e562a87079dc683ae46,626b377229c10585ec392f89,626b3a8ad84129424f238cbe,,,,,,,,,,,,,,,,,,,,,,,a,1,1.4651,"[""0.073"",""0.443"",""0.896"",""0.960""]","[0,1,1,1]",0,56,56,56,1,0,0,,,1,FALSE,,,,,,,,,,,,,,,,,,,,,,,,,,,,,,
,61526e562a87079dc683ae46,001,2022-04-28_20h09.51.094,classification_task,2021.2.3,Win32,59.81934558,61526e562a87079dc683ae46,626b377229c10585ec392f89,626b3a8ad84129424f238cbe,,,,,,,,,,,,,,,,,,,,,,,l,1,1.3444,"[""0.526"",""0.371"",""0.562"",""0.692""]","[0,1,1,1]",0,57,57,57,1,1,1,,,1,FALSE,,,,,,,,,,,,,,,,,,,,,,,,,,,,,,
,61526e562a87079dc683ae46,001,2022-04-28_20h09.51.094,classification_task,2021.2.3,Win32,59.81934558,61526e562a87079dc683ae46,626b377229c10585ec392f89,626b3a8ad84129424f238cbe,,,,,,,,,,,,,,,,,,,,,,,l,1,1.0988,"[""0.526"",""0.259"",""0.482"",""0.794""]","[0,1,1,1]",0,58,58,58,1,1,0,,,1,FALSE,,,,,,,,,,,,,,,,,,,,,,,,,,,,,,
,61526e562a87079dc683ae46,001,2022-04-28_20h09.51.094,classification_task,2021.2.3,Win32,59.81934558,61526e562a87079dc683ae46,626b377229c10585ec392f89,626b3a8ad84129424f238cbe,,,,,,,,,,,,,,,,,,,,,,,l,1,1.4969,"[""0.138"",""0.178"",""0.562"",""0.692""]","[1,0,1,1]",0,59,59,59,1,1,1,,,1,FALSE,,,,,,,,,,,,,,,,,,,,,,,,,,,,,,
,61526e562a87079dc683ae46,001,2022-04-28_20h09.51.094,classification_task,2021.2.3,Win32,59.81934558,61526e562a87079dc683ae46,626b377229c10585ec392f89,626b3a8ad84129424f238cbe,,,,,,,,,,,,,,,,,,,,,,,l,1,0.8504,"[""0.138"",""0.371"",""0.562"",""0.752""]","[1,1,1,0]",0,60,60,60,1,1,1,,,1,FALSE,,,,,,,,,,,,,,,,,,,,,,,,,,,,,,
,61526e562a87079dc683ae46,001,2022-04-28_20h09.51.094,classification_task,2021.2.3,Win32,59.81934558,61526e562a87079dc683ae46,626b377229c10585ec392f89,626b3a8ad84129424f238cbe,,,,,,,,,,,,,,,,,,,,,,,a,1,0.6491,"[""0.225"",""0.752"",""0.624"",""0.846""]","[1,0,1,1]",0,61,61,61,1,0,1,,,1,FALSE,,,,,,,,,,,,,,,,,,,,,,,,,,,,,,
,61526e562a87079dc683ae46,001,2022-04-28_20h09.51.094,classification_task,2021.2.3,Win32,59.81934558,61526e562a87079dc683ae46,626b377229c10585ec392f89,626b3a8ad84129424f238cbe,,,,,,,,,,,,,,,,,,,,,,,a,1,1.1803,"[""0.309"",""0.443"",""0.728"",""0.960""]","[1,1,0,1]",0,62,62,62,1,0,0,,,1,FALSE,,,,,,,,,,,,,,,,,,,,,,,,,,,,,,
,61526e562a87079dc683ae46,001,2022-04-28_20h09.51.094,classification_task,2021.2.3,Win32,59.81934558,61526e562a87079dc683ae46,626b377229c10585ec392f89,626b3a8ad84129424f238cbe,,,,,,,,,,,,,,,,,,,,,,,a,1,1.049,"[""0.309"",""0.443"",""0.896"",""0.516""]","[1,1,1,0]",0,63,63,63,1,0,0,,,1,FALSE,,,,,,,,,,,,,,,,,,,,,,,,,,,,,,
,61526e562a87079dc683ae46,001,2022-04-28_20h09.51.094,classification_task,2021.2.3,Win32,59.81934558,61526e562a87079dc683ae46,626b377229c10585ec392f89,626b3a8ad84129424f238cbe,,,,,,,,,,,,,,,,,,,,,,,,,,,,,,,,,,,,,,,0, ,,0,,,0,1,1,1,1,2,2,,,,,,,,,,,,,,,,,
,61526e562a87079dc683ae46,001,2022-04-28_20h09.51.094,classification_task,2021.2.3,Win32,59.81934558,61526e562a87079dc683ae46,626b377229c10585ec392f89,626b3a8ad84129424f238cbe,,,,,,,,,,,,,,,,,,,,,,,,,,,,,,,,,,,,,,,1,  ,,0,,,0,1,1,1,1,2,2,,,,,,,,,,,,,,,,,
,61526e562a87079dc683ae46,001,2022-04-28_20h09.51.094,classification_task,2021.2.3,Win32,59.81934558,61526e562a87079dc683ae46,626b377229c10585ec392f89,626b3a8ad84129424f238cbe,,,,,,,,,,,,,,,,,,,,,,,,,,,,,,,,,,,,,,,2,  ,,0,,,0,1,1,1,1,2,2,,,,,,,,,,,,,,,,,
,61526e562a87079dc683ae46,001,2022-04-28_20h09.51.094,classification_task,2021.2.3,Win32,59.81934558,61526e562a87079dc683ae46,626b377229c10585ec392f89,626b3a8ad84129424f238cbe,,,,,,,,,,,,,,,,,,,,,,,,,,,,,,,,,,,,,,,,,,,,,0,1,1,1,1,,2,,,,,,,,,,,,,,,,,
,61526e562a87079dc683ae46,001,2022-04-28_20h09.51.094,classification_task,2021.2.3,Win32,59.81934558,61526e562a87079dc683ae46,626b377229c10585ec392f89,626b3a8ad84129424f238cbe,,,,,,,,,,,,,,,,,,,,,space,4.2482,a,1,1.7318,"[""0.185"",""0.443"",""0.896"",""0.960""]","[0,1,1,1]",0,0,0,0,1,0,0,,,1,FALSE,,,,,,,,,,,,,,,,,,,,,,,,,,,,,,
,61526e562a87079dc683ae46,001,2022-04-28_20h09.51.094,classification_task,2021.2.3,Win32,59.81934558,61526e562a87079dc683ae46,626b377229c10585ec392f89,626b3a8ad84129424f238cbe,,,,,,,,,,,,,,,,,,,,,,,l,1,1.283,"[""0.039"",""0.259"",""0.073"",""0.794""]","[1,1,0,1]",0,1,1,1,1,1,0,,,1,FALSE,,,,,,,,,,,,,,,,,,,,,,,,,,,,,,
,61526e562a87079dc683ae46,001,2022-04-28_20h09.51.094,classification_task,2021.2.3,Win32,59.81934558,61526e562a87079dc683ae46,626b377229c10585ec392f89,626b3a8ad84129424f238cbe,,,,,,,,,,,,,,,,,,,,,,,l,0,1.2238,"[""0.225"",""0.408"",""0.624"",""0.073""]","[1,1,1,0]",0,2,2,2,1,0,1,,,1,FALSE,,,,,,,,,,,,,,,,,,,,,,,,,,,,,,
,61526e562a87079dc683ae46,001,2022-04-28_20h09.51.094,classification_task,2021.2.3,Win32,59.81934558,61526e562a87079dc683ae46,626b377229c10585ec392f89,626b3a8ad84129424f238cbe,,,,,,,,,,,,,,,,,,,,,,,l,0,0.6649,"[""0.309"",""0.443"",""0.896"",""0.089""]","[1,1,1,0]",0,3,3,3,1,0,0,,,1,FALSE,,,,,,,,,,,,,,,,,,,,,,,,,,,,,,
,61526e562a87079dc683ae46,001,2022-04-28_20h09.51.094,classification_task,2021.2.3,Win32,59.81934558,61526e562a87079dc683ae46,626b377229c10585ec392f89,626b3a8ad84129424f238cbe,,,,,,,,,,,,,,,,,,,,,,,l,1,0.4506,"[""0.039"",""0.259"",""0.482"",""0.178""]","[1,1,1,0]",0,4,4,4,1,1,0,,,1,FALSE,,,,,,,,,,,,,,,,,,,,,,,,,,,,,,
,61526e562a87079dc683ae46,001,2022-04-28_20h09.51.094,classification_task,2021.2.3,Win32,59.81934558,61526e562a87079dc683ae46,626b377229c10585ec392f89,626b3a8ad84129424f238cbe,,,,,,,,,,,,,,,,,,,,,,,a,0,1.0664,"[""0.089"",""0.371"",""0.562"",""0.692""]","[0,1,1,1]",0,5,5,5,1,1,1,,,1,FALSE,,,,,,,,,,,,,,,,,,,,,,,,,,,,,,
,61526e562a87079dc683ae46,001,2022-04-28_20h09.51.094,classification_task,2021.2.3,Win32,59.81934558,61526e562a87079dc683ae46,626b377229c10585ec392f89,626b3a8ad84129424f238cbe,,,,,,,,,,,,,,,,,,,,,,,l,0,0.6677,"[""0.225"",""0.408"",""0.089"",""0.846""]","[1,1,0,1]",0,6,6,6,1,0,1,,,1,FALSE,,,,,,,,,,,,,,,,,,,,,,,,,,,,,,
,61526e562a87079dc683ae46,001,2022-04-28_20h09.51.094,classification_task,2021.2.3,Win32,59.81934558,61526e562a87079dc683ae46,626b377229c10585ec392f89,626b3a8ad84129424f238cbe,,,,,,,,,,,,,,,,,,,,,,,a,1,0.5497,"[""0.309"",""0.185"",""0.896"",""0.960""]","[1,0,1,1]",0,7,7,7,1,0,0,,,1,FALSE,,,,,,,,,,,,,,,,,,,,,,,,,,,,,,
,61526e562a87079dc683ae46,001,2022-04-28_20h09.51.094,classification_task,2021.2.3,Win32,59.81934558,61526e562a87079dc683ae46,626b377229c10585ec392f89,626b3a8ad84129424f238cbe,,,,,,,,,,,,,,,,,,,,,,,a,1,0.6142,"[""0.526"",""0.408"",""0.624"",""0.846""]","[0,1,1,1]",0,8,8,8,1,0,1,,,1,FALSE,,,,,,,,,,,,,,,,,,,,,,,,,,,,,,
,61526e562a87079dc683ae46,001,2022-04-28_20h09.51.094,classification_task,2021.2.3,Win32,59.81934558,61526e562a87079dc683ae46,626b377229c10585ec392f89,626b3a8ad84129424f238cbe,,,,,,,,,,,,,,,,,,,,,,,l,1,0.5559,"[""0.138"",""0.371"",""0.178"",""0.692""]","[1,1,0,1]",0,9,9,9,1,1,1,,,1,FALSE,,,,,,,,,,,,,,,,,,,,,,,,,,,,,,
,61526e562a87079dc683ae46,001,2022-04-28_20h09.51.094,classification_task,2021.2.3,Win32,59.81934558,61526e562a87079dc683ae46,626b377229c10585ec392f89,626b3a8ad84129424f238cbe,,,,,,,,,,,,,,,,,,,,,,,l,1,0.484,"[""0.138"",""0.371"",""0.562"",""0.073""]","[1,1,1,0]",0,10,10,10,1,1,1,,,1,FALSE,,,,,,,,,,,,,,,,,,,,,,,,,,,,,,
,61526e562a87079dc683ae46,001,2022-04-28_20h09.51.094,classification_task,2021.2.3,Win32,59.81934558,61526e562a87079dc683ae46,626b377229c10585ec392f89,626b3a8ad84129424f238cbe,,,,,,,,,,,,,,,,,,,,,,,a,1,0.6023,"[""0.225"",""0.738"",""0.624"",""0.846""]","[1,0,1,1]",0,11,11,11,1,0,1,,,1,FALSE,,,,,,,,,,,,,,,,,,,,,,,,,,,,,,
,61526e562a87079dc683ae46,001,2022-04-28_20h09.51.094,classification_task,2021.2.3,Win32,59.81934558,61526e562a87079dc683ae46,626b377229c10585ec392f89,626b3a8ad84129424f238cbe,,,,,,,,,,,,,,,,,,,,,,,l,0,0.664,"[""0.309"",""0.443"",""0.185"",""0.960""]","[1,1,0,1]",0,12,12,12,1,0,0,,,1,FALSE,,,,,,,,,,,,,,,,,,,,,,,,,,,,,,
,61526e562a87079dc683ae46,001,2022-04-28_20h09.51.094,classification_task,2021.2.3,Win32,59.81934558,61526e562a87079dc683ae46,626b377229c10585ec392f89,626b3a8ad84129424f238cbe,,,,,,,,,,,,,,,,,,,,,,,a,0,0.4494,"[""0.138"",""0.752"",""0.562"",""0.692""]","[1,0,1,1]",0,13,13,13,1,1,1,,,1,FALSE,,,,,,,,,,,,,,,,,,,,,,,,,,,,,,
,61526e562a87079dc683ae46,001,2022-04-28_20h09.51.094,classification_task,2021.2.3,Win32,59.81934558,61526e562a87079dc683ae46,626b377229c10585ec392f89,626b3a8ad84129424f238cbe,,,,,,,,,,,,,,,,,,,,,,,a,0,0.5658,"[""0.738"",""0.259"",""0.482"",""0.794""]","[0,1,1,1]",0,14,14,14,1,1,0,,,1,FALSE,,,,,,,,,,,,,,,,,,,,,,,,,,,,,,
,61526e562a87079dc683ae46,001,2022-04-28_20h09.51.094,classification_task,2021.2.3,Win32,59.81934558,61526e562a87079dc683ae46,626b377229c10585ec392f89,626b3a8ad84129424f238cbe,,,,,,,,,,,,,,,,,,,,,,,a,0,0.5485,"[""0.039"",""0.728"",""0.482"",""0.794""]","[1,0,1,1]",0,15,15,15,1,1,0,,,1,FALSE,,,,,,,,,,,,,,,,,,,,,,,,,,,,,,
,61526e562a87079dc683ae46,001,2022-04-28_20h09.51.094,classification_task,2021.2.3,Win32,59.81934558,61526e562a87079dc683ae46,626b377229c10585ec392f89,626b3a8ad84129424f238cbe,,,,,,,,,,,,,,,,,,,,,,,l,1,0.6988,"[""0.138"",""0.371"",""0.562"",""0.752""]","[1,1,1,0]",0,16,16,16,1,1,1,,,1,FALSE,,,,,,,,,,,,,,,,,,,,,,,,,,,,,,
,61526e562a87079dc683ae46,001,2022-04-28_20h09.51.094,classification_task,2021.2.3,Win32,59.81934558,61526e562a87079dc683ae46,626b377229c10585ec392f89,626b3a8ad84129424f238cbe,,,,,,,,,,,,,,,,,,,,,,,a,1,0.5672,"[""0.225"",""0.408"",""0.624"",""0.752""]","[1,1,1,0]",0,17,17,17,1,0,1,,,1,FALSE,,,,,,,,,,,,,,,,,,,,,,,,,,,,,,
,61526e562a87079dc683ae46,001,2022-04-28_20h09.51.094,classification_task,2021.2.3,Win32,59.81934558,61526e562a87079dc683ae46,626b377229c10585ec392f89,626b3a8ad84129424f238cbe,,,,,,,,,,,,,,,,,,,,,,,l,1,0.6323,"[""0.039"",""0.259"",""0.482"",""0.728""]","[1,1,1,0]",0,18,18,18,1,1,0,,,1,FALSE,,,,,,,,,,,,,,,,,,,,,,,,,,,,,,
,61526e562a87079dc683ae46,001,2022-04-28_20h09.51.094,classification_task,2021.2.3,Win32,59.81934558,61526e562a87079dc683ae46,626b377229c10585ec392f89,626b3a8ad84129424f238cbe,,,,,,,,,,,,,,,,,,,,,,,a,0,0.5151,"[""0.745"",""0.371"",""0.562"",""0.692""]","[0,1,1,1]",0,19,19,19,1,1,1,,,1,FALSE,,,,,,,,,,,,,,,,,,,,,,,,,,,,,,
,61526e562a87079dc683ae46,001,2022-04-28_20h09.51.094,classification_task,2021.2.3,Win32,59.81934558,61526e562a87079dc683ae46,626b377229c10585ec392f89,626b3a8ad84129424f238cbe,,,,,,,,,,,,,,,,,,,,,,,l,1,0.7337,"[""0.521"",""0.259"",""0.482"",""0.794""]","[0,1,1,1]",0,20,20,20,1,1,0,,,1,FALSE,,,,,,,,,,,,,,,,,,,,,,,,,,,,,,
,61526e562a87079dc683ae46,001,2022-04-28_20h09.51.094,classification_task,2021.2.3,Win32,59.81934558,61526e562a87079dc683ae46,626b377229c10585ec392f89,626b3a8ad84129424f238cbe,,,,,,,,,,,,,,,,,,,,,,,a,1,0.482,"[""0.225"",""0.738"",""0.624"",""0.846""]","[1,0,1,1]",0,21,21,21,1,0,1,,,1,FALSE,,,,,,,,,,,,,,,,,,,,,,,,,,,,,,
,61526e562a87079dc683ae46,001,2022-04-28_20h09.51.094,classification_task,2021.2.3,Win32,59.81934558,61526e562a87079dc683ae46,626b377229c10585ec392f89,626b3a8ad84129424f238cbe,,,,,,,,,,,,,,,,,,,,,,,a,1,0.5342,"[""0.526"",""0.443"",""0.896"",""0.960""]","[0,1,1,1]",0,22,22,22,1,0,0,,,1,FALSE,,,,,,,,,,,,,,,,,,,,,,,,,,,,,,
,61526e562a87079dc683ae46,001,2022-04-28_20h09.51.094,classification_task,2021.2.3,Win32,59.81934558,61526e562a87079dc683ae46,626b377229c10585ec392f89,626b3a8ad84129424f238cbe,,,,,,,,,,,,,,,,,,,,,,,a,0,0.7158,"[""0.138"",""0.526"",""0.562"",""0.692""]","[1,0,1,1]",0,23,23,23,1,1,1,,,1,FALSE,,,,,,,,,,,,,,,,,,,,,,,,,,,,,,
,61526e562a87079dc683ae46,001,2022-04-28_20h09.51.094,classification_task,2021.2.3,Win32,59.81934558,61526e562a87079dc683ae46,626b377229c10585ec392f89,626b3a8ad84129424f238cbe,,,,,,,,,,,,,,,,,,,,,,,l,1,0.5504,"[""0.138"",""0.371"",""0.185"",""0.692""]","[1,1,0,1]",0,24,24,24,1,1,1,,,1,FALSE,,,,,,,,,,,,,,,,,,,,,,,,,,,,,,
,61526e562a87079dc683ae46,001,2022-04-28_20h09.51.094,classification_task,2021.2.3,Win32,59.81934558,61526e562a87079dc683ae46,626b377229c10585ec392f89,626b3a8ad84129424f238cbe,,,,,,,,,,,,,,,,,,,,,,,a,0,0.6326,"[""0.039"",""0.752"",""0.482"",""0.794""]","[1,0,1,1]",0,25,25,25,1,1,0,,,1,FALSE,,,,,,,,,,,,,,,,,,,,,,,,,,,,,,
,61526e562a87079dc683ae46,001,2022-04-28_20h09.51.094,classification_task,2021.2.3,Win32,59.81934558,61526e562a87079dc683ae46,626b377229c10585ec392f89,626b3a8ad84129424f238cbe,,,,,,,,,,,,,,,,,,,,,,,a,1,0.6359,"[""0.225"",""0.408"",""0.738"",""0.846""]","[1,1,0,1]",0,26,26,26,1,0,1,,,1,FALSE,,,,,,,,,,,,,,,,,,,,,,,,,,,,,,
,61526e562a87079dc683ae46,001,2022-04-28_20h09.51.094,classification_task,2021.2.3,Win32,59.81934558,61526e562a87079dc683ae46,626b377229c10585ec392f89,626b3a8ad84129424f238cbe,,,,,,,,,,,,,,,,,,,,,,,a,1,0.5305,"[""0.309"",""0.185"",""0.896"",""0.960""]","[1,0,1,1]",0,27,27,27,1,0,0,,,1,FALSE,,,,,,,,,,,,,,,,,,,,,,,,,,,,,,
,61526e562a87079dc683ae46,001,2022-04-28_20h09.51.094,classification_task,2021.2.3,Win32,59.81934558,61526e562a87079dc683ae46,626b377229c10585ec392f89,626b3a8ad84129424f238cbe,,,,,,,,,,,,,,,,,,,,,,,a,0,0.4843,"[""0.039"",""0.259"",""0.752"",""0.794""]","[1,1,0,1]",0,28,28,28,1,1,0,,,1,FALSE,,,,,,,,,,,,,,,,,,,,,,,,,,,,,,
,61526e562a87079dc683ae46,001,2022-04-28_20h09.51.094,classification_task,2021.2.3,Win32,59.81934558,61526e562a87079dc683ae46,626b377229c10585ec392f89,626b3a8ad84129424f238cbe,,,,,,,,,,,,,,,,,,,,,,,a,1,0.4994,"[""0.309"",""0.443"",""0.526"",""0.960""]","[1,1,0,1]",0,29,29,29,1,0,0,,,1,FALSE,,,,,,,,,,,,,,,,,,,,,,,,,,,,,,
,61526e562a87079dc683ae46,001,2022-04-28_20h09.51.094,classification_task,2021.2.3,Win32,59.81934558,61526e562a87079dc683ae46,626b377229c10585ec392f89,626b3a8ad84129424f238cbe,,,,,,,,,,,,,,,,,,,,,,,l,0,0.5311,"[""0.185"",""0.408"",""0.624"",""0.846""]","[0,1,1,1]",0,30,30,30,1,0,1,,,1,FALSE,,,,,,,,,,,,,,,,,,,,,,,,,,,,,,
,61526e562a87079dc683ae46,001,2022-04-28_20h09.51.094,classification_task,2021.2.3,Win32,59.81934558,61526e562a87079dc683ae46,626b377229c10585ec392f89,626b3a8ad84129424f238cbe,,,,,,,,,,,,,,,,,,,,,,,a,1,0.4835,"[""0.309"",""0.443"",""0.896"",""0.728""]","[1,1,1,0]",0,31,31,31,1,0,0,,,1,FALSE,,,,,,,,,,,,,,,,,,,,,,,,,,,,,,
,61526e562a87079dc683ae46,001,2022-04-28_20h09.51.094,classification_task,2021.2.3,Win32,59.81934558,61526e562a87079dc683ae46,626b377229c10585ec392f89,626b3a8ad84129424f238cbe,,,,,,,,,,,,,,,,,,,,,,,l,0,0.6973,"[""0.225"",""0.408"",""0.521"",""0.846""]","[1,1,0,1]",0,32,32,32,1,0,1,,,1,FALSE,,,,,,,,,,,,,,,,,,,,,,,,,,,,,,
,61526e562a87079dc683ae46,001,2022-04-28_20h09.51.094,classification_task,2021.2.3,Win32,59.81934558,61526e562a87079dc683ae46,626b377229c10585ec392f89,626b3a8ad84129424f238cbe,,,,,,,,,,,,,,,,,,,,,,,a,0,0.2889,"[""0.516"",""0.371"",""0.562"",""0.692""]","[0,1,1,1]",0,33,33,33,1,1,1,,,1,FALSE,,,,,,,,,,,,,,,,,,,,,,,,,,,,,,
,61526e562a87079dc683ae46,001,2022-04-28_20h09.51.094,classification_task,2021.2.3,Win32,59.81934558,61526e562a87079dc683ae46,626b377229c10585ec392f89,626b3a8ad84129424f238cbe,,,,,,,,,,,,,,,,,,,,,,,l,1,0.3538,"[""0.138"",""0.371"",""0.728"",""0.692""]","[1,1,0,1]",0,34,34,34,1,1,1,,,1,FALSE,,,,,,,,,,,,,,,,,,,,,,,,,,,,,,
,61526e562a87079dc683ae46,001,2022-04-28_20h09.51.094,classification_task,2021.2.3,Win32,59.81934558,61526e562a87079dc683ae46,626b377229c10585ec392f89,626b3a8ad84129424f238cbe,,,,,,,,,,,,,,,,,,,,,,,a,1,0.5822,"[""0.309"",""0.443"",""0.728"",""0.960""]","[1,1,0,1]",0,35,35,35,1,0,0,,,1,FALSE,,,,,,,,,,,,,,,,,,,,,,,,,,,,,,
,61526e562a87079dc683ae46,001,2022-04-28_20h09.51.094,classification_task,2021.2.3,Win32,59.81934558,61526e562a87079dc683ae46,626b377229c10585ec392f89,626b3a8ad84129424f238cbe,,,,,,,,,,,,,,,,,,,,,,,l,1,0.5526,"[""0.039"",""0.516"",""0.482"",""0.794""]","[1,0,1,1]",0,36,36,36,1,1,0,,,1,FALSE,,,,,,,,,,,,,,,,,,,,,,,,,,,,,,
,61526e562a87079dc683ae46,001,2022-04-28_20h09.51.094,classification_task,2021.2.3,Win32,59.81934558,61526e562a87079dc683ae46,626b377229c10585ec392f89,626b3a8ad84129424f238cbe,,,,,,,,,,,,,,,,,,,,,,,a,1,0.4354,"[""0.309"",""0.738"",""0.896"",""0.960""]","[1,0,1,1]",0,37,37,37,1,0,0,,,1,FALSE,,,,,,,,,,,,,,,,,,,,,,,,,,,,,,
,61526e562a87079dc683ae46,001,2022-04-28_20h09.51.094,classification_task,2021.2.3,Win32,59.81934558,61526e562a87079dc683ae46,626b377229c10585ec392f89,626b3a8ad84129424f238cbe,,,,,,,,,,,,,,,,,,,,,,,l,0,0.7503,"[""0.225"",""0.073"",""0.624"",""0.846""]","[1,0,1,1]",0,38,38,38,1,0,1,,,1,FALSE,,,,,,,,,,,,,,,,,,,,,,,,,,,,,,
,61526e562a87079dc683ae46,001,2022-04-28_20h09.51.094,classification_task,2021.2.3,Win32,59.81934558,61526e562a87079dc683ae46,626b377229c10585ec392f89,626b3a8ad84129424f238cbe,,,,,,,,,,,,,,,,,,,,,,,a,0,0.3478,"[""0.138"",""0.371"",""0.562"",""0.744""]","[1,1,1,0]",0,39,39,39,1,1,1,,,1,FALSE,,,,,,,,,,,,,,,,,,,,,,,,,,,,,,
,61526e562a87079dc683ae46,001,2022-04-28_20h09.51.094,classification_task,2021.2.3,Win32,59.81934558,61526e562a87079dc683ae46,626b377229c10585ec392f89,626b3a8ad84129424f238cbe,,,,,,,,,,,,,,,,,,,,,,,l,0,0.4036,"[""0.744"",""0.408"",""0.624"",""0.846""]","[0,1,1,1]",0,40,40,40,1,0,1,,,1,FALSE,,,,,,,,,,,,,,,,,,,,,,,,,,,,,,
,61526e562a87079dc683ae46,001,2022-04-28_20h09.51.094,classification_task,2021.2.3,Win32,59.81934558,61526e562a87079dc683ae46,626b377229c10585ec392f89,626b3a8ad84129424f238cbe,,,,,,,,,,,,,,,,,,,,,,,l,0,0.6007,"[""0.225"",""0.408"",""0.624"",""0.178""]","[1,1,1,0]",0,41,41,41,1,0,1,,,1,FALSE,,,,,,,,,,,,,,,,,,,,,,,,,,,,,,
,61526e562a87079dc683ae46,001,2022-04-28_20h09.51.094,classification_task,2021.2.3,Win32,59.81934558,61526e562a87079dc683ae46,626b377229c10585ec392f89,626b3a8ad84129424f238cbe,,,,,,,,,,,,,,,,,,,,,,,l,1,0.5651,"[""0.039"",""0.259"",""0.482"",""0.185""]","[1,1,1,0]",0,42,42,42,1,1,0,,,1,FALSE,,,,,,,,,,,,,,,,,,,,,,,,,,,,,,
,61526e562a87079dc683ae46,001,2022-04-28_20h09.51.094,classification_task,2021.2.3,Win32,59.81934558,61526e562a87079dc683ae46,626b377229c10585ec392f89,626b3a8ad84129424f238cbe,,,,,,,,,,,,,,,,,,,,,,,l,1,0.4233,"[""0.073"",""0.259"",""0.482"",""0.794""]","[0,1,1,1]",0,43,43,43,1,1,0,,,1,FALSE,,,,,,,,,,,,,,,,,,,,,,,,,,,,,,
,61526e562a87079dc683ae46,001,2022-04-28_20h09.51.094,classification_task,2021.2.3,Win32,59.81934558,61526e562a87079dc683ae46,626b377229c10585ec392f89,626b3a8ad84129424f238cbe,,,,,,,,,,,,,,,,,,,,,,,l,1,0.5318,"[""0.138"",""0.738"",""0.562"",""0.692""]","[1,0,1,1]",0,44,44,44,1,1,1,,,1,FALSE,,,,,,,,,,,,,,,,,,,,,,,,,,,,,,
,61526e562a87079dc683ae46,001,2022-04-28_20h09.51.094,classification_task,2021.2.3,Win32,59.81934558,61526e562a87079dc683ae46,626b377229c10585ec392f89,626b3a8ad84129424f238cbe,,,,,,,,,,,,,,,,,,,,,,,a,0,0.2827,"[""0.039"",""0.259"",""0.527"",""0.794""]","[1,1,0,1]",0,45,45,45,1,1,0,,,1,FALSE,,,,,,,,,,,,,,,,,,,,,,,,,,,,,,
,61526e562a87079dc683ae46,001,2022-04-28_20h09.51.094,classification_task,2021.2.3,Win32,59.81934558,61526e562a87079dc683ae46,626b377229c10585ec392f89,626b3a8ad84129424f238cbe,,,,,,,,,,,,,,,,,,,,,,,a,1,0.2986,"[""0.178"",""0.443"",""0.896"",""0.960""]","[0,1,1,1]",0,46,46,46,1,0,0,,,1,FALSE,,,,,,,,,,,,,,,,,,,,,,,,,,,,,,
,61526e562a87079dc683ae46,001,2022-04-28_20h09.51.094,classification_task,2021.2.3,Win32,59.81934558,61526e562a87079dc683ae46,626b377229c10585ec392f89,626b3a8ad84129424f238cbe,,,,,,,,,,,,,,,,,,,,,,,a,1,0.4482,"[""0.309"",""0.443"",""0.896"",""0.521""]","[1,1,1,0]",0,47,47,47,1,0,0,,,1,FALSE,,,,,,,,,,,,,,,,,,,,,,,,,,,,,,
,61526e562a87079dc683ae46,001,2022-04-28_20h09.51.094,classification_task,2021.2.3,Win32,59.81934558,61526e562a87079dc683ae46,626b377229c10585ec392f89,626b3a8ad84129424f238cbe,,,,,,,,,,,,,,,,,,,,,,,l,1,0.2328,"[""0.138"",""0.744"",""0.562"",""0.692""]","[1,0,1,1]",0,48,48,48,1,1,1,,,1,FALSE,,,,,,,,,,,,,,,,,,,,,,,,,,,,,,
,61526e562a87079dc683ae46,001,2022-04-28_20h09.51.094,classification_task,2021.2.3,Win32,59.81934558,61526e562a87079dc683ae46,626b377229c10585ec392f89,626b3a8ad84129424f238cbe,,,,,,,,,,,,,,,,,,,,,,,a,0,0.2498,"[""0.039"",""0.259"",""0.482"",""0.185""]","[1,1,1,0]",0,49,49,49,1,1,0,,,1,FALSE,,,,,,,,,,,,,,,,,,,,,,,,,,,,,,
,61526e562a87079dc683ae46,001,2022-04-28_20h09.51.094,classification_task,2021.2.3,Win32,59.81934558,61526e562a87079dc683ae46,626b377229c10585ec392f89,626b3a8ad84129424f238cbe,,,,,,,,,,,,,,,,,,,,,,,l,0,0.2345,"[""0.225"",""0.185"",""0.624"",""0.846""]","[1,0,1,1]",0,50,50,50,1,0,1,,,1,FALSE,,,,,,,,,,,,,,,,,,,,,,,,,,,,,,
,61526e562a87079dc683ae46,001,2022-04-28_20h09.51.094,classification_task,2021.2.3,Win32,59.81934558,61526e562a87079dc683ae46,626b377229c10585ec392f89,626b3a8ad84129424f238cbe,,,,,,,,,,,,,,,,,,,,,,,a,1,0.2644,"[""0.309"",""0.728"",""0.896"",""0.960""]","[1,0,1,1]",0,51,51,51,1,0,0,,,1,FALSE,,,,,,,,,,,,,,,,,,,,,,,,,,,,,,
,61526e562a87079dc683ae46,001,2022-04-28_20h09.51.094,classification_task,2021.2.3,Win32,59.81934558,61526e562a87079dc683ae46,626b377229c10585ec392f89,626b3a8ad84129424f238cbe,,,,,,,,,,,,,,,,,,,,,,,a,1,0.23,"[""0.185"",""0.408"",""0.624"",""0.846""]","[0,1,1,1]",0,52,52,52,1,0,1,,,1,FALSE,,,,,,,,,,,,,,,,,,,,,,,,,,,,,,
,61526e562a87079dc683ae46,001,2022-04-28_20h09.51.094,classification_task,2021.2.3,Win32,59.81934558,61526e562a87079dc683ae46,626b377229c10585ec392f89,626b3a8ad84129424f238cbe,,,,,,,,,,,,,,,,,,,,,,,l,0,0.2678,"[""0.309"",""0.443"",""0.896"",""0.178""]","[1,1,1,0]",0,53,53,53,1,0,0,,,1,FALSE,,,,,,,,,,,,,,,,,,,,,,,,,,,,,,
,61526e562a87079dc683ae46,001,2022-04-28_20h09.51.094,classification_task,2021.2.3,Win32,59.81934558,61526e562a87079dc683ae46,626b377229c10585ec392f89,626b3a8ad84129424f238cbe,,,,,,,,,,,,,,,,,,,,,,,l,0,0.2687,"[""0.309"",""0.443"",""0.073"",""0.960""]","[1,1,0,1]",0,54,54,54,1,0,0,,,1,FALSE,,,,,,,,,,,,,,,,,,,,,,,,,,,,,,
,61526e562a87079dc683ae46,001,2022-04-28_20h09.51.094,classification_task,2021.2.3,Win32,59.81934558,61526e562a87079dc683ae46,626b377229c10585ec392f89,626b3a8ad84129424f238cbe,,,,,,,,,,,,,,,,,,,,,,,a,0,0.5842,"[""0.138"",""0.371"",""0.562"",""0.516""]","[1,1,1,0]",0,55,55,55,1,1,1,,,1,FALSE,,,,,,,,,,,,,,,,,,,,,,,,,,,,,,
,61526e562a87079dc683ae46,001,2022-04-28_20h09.51.094,classification_task,2021.2.3,Win32,59.81934558,61526e562a87079dc683ae46,626b377229c10585ec392f89,626b3a8ad84129424f238cbe,,,,,,,,,,,,,,,,,,,,,,,a,0,0.3177,"[""0.138"",""0.371"",""0.745"",""0.692""]","[1,1,0,1]",0,56,56,56,1,1,1,,,1,FALSE,,,,,,,,,,,,,,,,,,,,,,,,,,,,,,
,61526e562a87079dc683ae46,001,2022-04-28_20h09.51.094,classification_task,2021.2.3,Win32,59.81934558,61526e562a87079dc683ae46,626b377229c10585ec392f89,626b3a8ad84129424f238cbe,,,,,,,,,,,,,,,,,,,,,,,a,0,0.6158,"[""0.527"",""0.259"",""0.482"",""0.794""]","[0,1,1,1]",0,57,57,57,1,1,0,,,1,FALSE,,,,,,,,,,,,,,,,,,,,,,,,,,,,,,
,61526e562a87079dc683ae46,001,2022-04-28_20h09.51.094,classification_task,2021.2.3,Win32,59.81934558,61526e562a87079dc683ae46,626b377229c10585ec392f89,626b3a8ad84129424f238cbe,,,,,,,,,,,,,,,,,,,,,,,l,1,0.2511,"[""0.039"",""0.178"",""0.482"",""0.794""]","[1,0,1,1]",0,58,58,58,1,1,0,,,1,FALSE,,,,,,,,,,,,,,,,,,,,,,,,,,,,,,
,61526e562a87079dc683ae46,001,2022-04-28_20h09.51.094,classification_task,2021.2.3,Win32,59.81934558,61526e562a87079dc683ae46,626b377229c10585ec392f89,626b3a8ad84129424f238cbe,,,,,,,,,,,,,,,,,,,,,,,a,1,0.2531,"[""0.225"",""0.408"",""0.744"",""0.846""]","[1,1,0,1]",0,59,59,59,1,0,1,,,1,FALSE,,,,,,,,,,,,,,,,,,,,,,,,,,,,,,
,61526e562a87079dc683ae46,001,2022-04-28_20h09.51.094,classification_task,2021.2.3,Win32,59.81934558,61526e562a87079dc683ae46,626b377229c10585ec392f89,626b3a8ad84129424f238cbe,,,,,,,,,,,,,,,,,,,,,,,l,0,0.2654,"[""0.225"",""0.408"",""0.624"",""0.073""]","[1,1,1,0]",0,60,60,60,1,0,1,,,1,FALSE,,,,,,,,,,,,,,,,,,,,,,,,,,,,,,
,61526e562a87079dc683ae46,001,2022-04-28_20h09.51.094,classification_task,2021.2.3,Win32,59.81934558,61526e562a87079dc683ae46,626b377229c10585ec392f89,626b3a8ad84129424f238cbe,,,,,,,,,,,,,,,,,,,,,,,a,1,0.5343,"[""0.744"",""0.443"",""0.896"",""0.960""]","[0,1,1,1]",0,61,61,61,1,0,0,,,1,FALSE,,,,,,,,,,,,,,,,,,,,,,,,,,,,,,
,61526e562a87079dc683ae46,001,2022-04-28_20h09.51.094,classification_task,2021.2.3,Win32,59.81934558,61526e562a87079dc683ae46,626b377229c10585ec392f89,626b3a8ad84129424f238cbe,,,,,,,,,,,,,,,,,,,,,,,l,1,0.4536,"[""0.185"",""0.371"",""0.562"",""0.692""]","[0,1,1,1]",0,62,62,62,1,1,1,,,1,FALSE,,,,,,,,,,,,,,,,,,,,,,,,,,,,,,
,61526e562a87079dc683ae46,001,2022-04-28_20h09.51.094,classification_task,2021.2.3,Win32,59.81934558,61526e562a87079dc683ae46,626b377229c10585ec392f89,626b3a8ad84129424f238cbe,,,,,,,,,,,,,,,,,,,,,,,l,1,0.4155,"[""0.039"",""0.259"",""0.178"",""0.794""]","[1,1,0,1]",0,63,63,63,1,1,0,,,1,FALSE,,,,,,,,,,,,,,,,,,,,,,,,,,,,,,
,61526e562a87079dc683ae46,001,2022-04-28_20h09.51.094,classification_task,2021.2.3,Win32,59.81934558,61526e562a87079dc683ae46,626b377229c10585ec392f89,626b3a8ad84129424f238cbe,,,,,,,,,,,,,,,,,,,,,,,,,,,,,,,,,,,,,,,0, ,,0,,,0,2,2,2,1,2,3,,,,,,,,,,,,,,,,,
,61526e562a87079dc683ae46,001,2022-04-28_20h09.51.094,classification_task,2021.2.3,Win32,59.81934558,61526e562a87079dc683ae46,626b377229c10585ec392f89,626b3a8ad84129424f238cbe,,,,,,,,,,,,,,,,,,,,,,,,,,,,,,,,,,,,,,,1,  ,,0,,,0,2,2,2,1,2,3,,,,,,,,,,,,,,,,,
,61526e562a87079dc683ae46,001,2022-04-28_20h09.51.094,classification_task,2021.2.3,Win32,59.81934558,61526e562a87079dc683ae46,626b377229c10585ec392f89,626b3a8ad84129424f238cbe,,,,,,,,,,,,,,,,,,,,,,,,,,,,,,,,,,,,,,,2,  ,,0,,,0,2,2,2,1,2,3,,,,,,,,,,,,,,,,,
,61526e562a87079dc683ae46,001,2022-04-28_20h09.51.094,classification_task,2021.2.3,Win32,59.81934558,61526e562a87079dc683ae46,626b377229c10585ec392f89,626b3a8ad84129424f238cbe,,,,,,,,,,,,,,,,,,,,,,,,,,,,,,,,,,,,,,,,,,,,,0,2,2,2,1,,3,,,,,,,,,,,,,,,,,
,61526e562a87079dc683ae46,001,2022-04-28_20h09.51.094,classification_task,2021.2.3,Win32,59.81934558,61526e562a87079dc683ae46,626b377229c10585ec392f89,626b3a8ad84129424f238cbe,,,,,,,,,,,,,,,,,,,,,,,,,,,,,,,,,,,,,,,,,,,,,,,,,,,,,I believe the aid is a competent performer,,0.7,0,3,569.9605,0,0,0,0,1,0,,,,
,61526e562a87079dc683ae46,001,2022-04-28_20h09.51.094,classification_task,2021.2.3,Win32,59.81934558,61526e562a87079dc683ae46,626b377229c10585ec392f89,626b3a8ad84129424f238cbe,,,,,,,,,,,,,,,,,,,,,,,,,,,,,,,,,,,,,,,,,,,,,,,,,,,,,I trust the aid,,0.7,0,3,571.8435,0,0,0,0,1,0,,,,
,61526e562a87079dc683ae46,001,2022-04-28_20h09.51.094,classification_task,2021.2.3,Win32,59.81934558,61526e562a87079dc683ae46,626b377229c10585ec392f89,626b3a8ad84129424f238cbe,,,,,,,,,,,,,,,,,,,,,,,,,,,,,,,,,,,,,,,,,,,,,,,,,,,,,I have confidence in the advice given by the aid,,0.7,0,4,576.4502,0,0,0,0,1,0,,,,
,61526e562a87079dc683ae46,001,2022-04-28_20h09.51.094,classification_task,2021.2.3,Win32,59.81934558,61526e562a87079dc683ae46,626b377229c10585ec392f89,626b3a8ad84129424f238cbe,,,,,,,,,,,,,,,,,,,,,,,,,,,,,,,,,,,,,,,,,,,,,,,,,,,,,I can depend on the aid,,0.7,0,3,578.0818,0,0,0,0,1,0,,,,
,61526e562a87079dc683ae46,001,2022-04-28_20h09.51.094,classification_task,2021.2.3,Win32,59.81934558,61526e562a87079dc683ae46,626b377229c10585ec392f89,626b3a8ad84129424f238cbe,,,,,,,,,,,,,,,,,,,,,,,,,,,,,,,,,,,,,,,,,,,,,,,,,,,,,I can rely on the aid to behave in consistent ways,,0.7,0,4,580.24,0,0,0,0,1,0,,,,
,61526e562a87079dc683ae46,001,2022-04-28_20h09.51.094,classification_task,2021.2.3,Win32,59.81934558,61526e562a87079dc683ae46,626b377229c10585ec392f89,626b3a8ad84129424f238cbe,,,,,,,,,,,,,,,,,,,,,,,,,,,,,,,,,,,,,,,,,,,,,,,,,,,,,I can rely on the aid to do its best every time I take its advice,,0.7,0,4,580.9775,0,0,0,0,1,0,,,,
,61526e562a87079dc683ae46,001,2022-04-28_20h09.51.094,classification_task,2021.2.3,Win32,59.81934558,61526e562a87079dc683ae46,626b377229c10585ec392f89,626b3a8ad84129424f238cbe,,,,,,,,,,,,,,,,,,,,,,,,,,,,,,,,,,,,,,,,,,,,,,,,,,,,,"On trials you completed with assistance from the aid, how frequently did you think the aid was correct?",,0.7,0,70%,,0,0,0,0,1,0,,,,
,61526e562a87079dc683ae46,001,2022-04-28_20h09.51.094,classification_task,2021.2.3,Win32,59.81934558,61526e562a87079dc683ae46,626b377229c10585ec392f89,626b3a8ad84129424f238cbe,,,,,,,,,,,,,,,,,,,,,,,,,,,,,,,,,,,,,,,,,,,,,,,,,,,,,"On trials you completed without the aid, how frequently did you think you were correct?",,0.7,0,80%,,0,0,0,0,1,0,,,,
,61526e562a87079dc683ae46,001,2022-04-28_20h09.51.094,classification_task,2021.2.3,Win32,59.81934558,61526e562a87079dc683ae46,626b377229c10585ec392f89,626b3a8ad84129424f238cbe,,,,,,,,,,,,,,,,,,,,,,,,,,,,,,,,,,,,,,,,,,,,,,,,,,,,,,,,,,,0,0,0,0,1,,,,,
,61526e562a87079dc683ae46,001,2022-04-28_20h09.51.094,classification_task,2021.2.3,Win32,59.81934558,61526e562a87079dc683ae46,626b377229c10585ec392f89,626b3a8ad84129424f238cbe,,,,,,,,,,,,,,,,,,,,,,,,,,,,,,,,,,,,,,,,,,,,,,,,,,,,,,,,,,,,,,,,,space,6.5894,602.3608,
,61526e562a87079dc683ae46,001,2022-04-28_20h09.51.094,classification_task,2021.2.3,Win32,59.81934558,61526e562a87079dc683ae46,626b377229c10585ec392f89,626b3a8ad84129424f238cbe,,,,,,,,,,,,,,,,,,,,,,,,,,,,,,,,,,,,,,,,,,,,,,,,,,,,,,,,,,,,,,,,,,,,"Mozilla/5.0 (Windows NT 10.0; Win64; x64) AppleWebKit/537.36 (KHTML, like Gecko) Chrome/100.0.4896.127 Safari/537.36"
