usingWebGL,participant,session,date,expName,psychopyVersion,OS,frameRate,study_id,signatures_friend,signatures_foe,band_ranges_top,band_ranges_bottom,formitemText,formtype,formundefined,formitemWidth,formindex,formresponse,formrt,key_resp_2.keys,key_resp_2.rt,tute_resp.keys,tute_resp.rt,tutorial.thisRepN,tutorial.thisTrialN,tutorial.thisN,tutorial.thisIndex,tutorial.ran,key_resp_4.keys,key_resp_4.rt,key_resp.keys,key_resp.corr,lines_presented,is_signal_presented,trials.thisRepN,trials.thisTrialN,trials.thisN,trials.thisIndex,trials.ran,vessel,active_band,lines,is_signal,supported_pos,catch_trial,key_resp.rt,debrief_formindex,debrief_formitemText,debrief_formtype,debrief_formitemWidth,debrief_formresponse,debrief_formrt,phases.thisRepN,phases.thisTrialN,phases.thisN,phases.thisIndex,phases.ran,phases.order,phase,key_resp_3.keys,trustitemText,trusttype,trustitemWidth,trustindex,trustresponse,trustrt,support_status.thisRepN,support_status.thisTrialN,support_status.thisN,support_status.thisIndex,support_status.ran,support_status.order,key_resp_5.keys,key_resp_5.rt,globalClockTime,userAgent,manualCondition
TRUE,61530de3eb980b5e9bf32015,627c758e6e59c87c2e5f30c8,2022-05-12_04h49.54.279,classification_task,2021.2.3,Win32,60.00960154,627c6715c52fd12f31907bd0,,,,,,,,,,,,,,,,,,,,,,,,,,,,,,,,,,,,,,,,,,,,,,,,,,,,,,,,,,,,,,,,,,,,,
,61530de3eb980b5e9bf32015,627c758e6e59c87c2e5f30c8,2022-05-12_04h49.54.279,classification_task,2021.2.3,Win32,60.00960154,627c6715c52fd12f31907bd0,"[[""0.172"",""0.433"",""0.865"",""0.900""],[""0.243"",""0.481"",""0.934"",""0.972""]]","[[""0.114"",""0.360"",""0.617"",""0.734""],[""0.043"",""0.399"",""0.536"",""0.822""]]","[1,10]","[100,1000]",Video game experience,,,0.7,0,,,,,,,,,,,,,,,,,,,,,,,,,,,,,,,,,,,,,,,,,,,,,,,,,,,,,,,,,,,,
,61530de3eb980b5e9bf32015,627c758e6e59c87c2e5f30c8,2022-05-12_04h49.54.279,classification_task,2021.2.3,Win32,60.00960154,627c6715c52fd12f31907bd0,,,,,Approximately how many hours did you spend playing video games in the last week?,,,0.7,0,6,,,,,,,,,,,,,,,,,,,,,,,,,,,,,,,,,,,,,,,,,,,,,,,,,,,,,,,,,,,
,61530de3eb980b5e9bf32015,627c758e6e59c87c2e5f30c8,2022-05-12_04h49.54.279,classification_task,2021.2.3,Win32,60.00960154,627c6715c52fd12f31907bd0,,,,,"Which game did you play the most this year? (Enter ""None"" if you didn't play any)",,,0.7,0,the sims,,,,,,,,,,,,,,,,,,,,,,,,,,,,,,,,,,,,,,,,,,,,,,,,,,,,,,,,,,,
,61530de3eb980b5e9bf32015,627c758e6e59c87c2e5f30c8,2022-05-12_04h49.54.279,classification_task,2021.2.3,Win32,60.00960154,627c6715c52fd12f31907bd0,,,,,Visual perception,,,0.7,0,,,,,,,,,,,,,,,,,,,,,,,,,,,,,,,,,,,,,,,,,,,,,,,,,,,,,,,,,,,,
,61530de3eb980b5e9bf32015,627c758e6e59c87c2e5f30c8,2022-05-12_04h49.54.279,classification_task,2021.2.3,Win32,60.00960154,627c6715c52fd12f31907bd0,,,,,Do you have any form of color blindness?,,,0.7,0,No,227.2271,,,,,,,,,,,,,,,,,,,,,,,,,,,,,,,,,,,,,,,,,,,,,,,,,,,,,,,,,,
,61530de3eb980b5e9bf32015,627c758e6e59c87c2e5f30c8,2022-05-12_04h49.54.279,classification_task,2021.2.3,Win32,60.00960154,627c6715c52fd12f31907bd0,,,,,Do you use software to change the colour temperature of your screen (e.g. f.lux)?,,,0.7,0,No,231.9936,,,,,,,,,,,,,,,,,,,,,,,,,,,,,,,,,,,,,,,,,,,,,,,,,,,,,,,,,,
,61530de3eb980b5e9bf32015,627c758e6e59c87c2e5f30c8,2022-05-12_04h49.54.279,classification_task,2021.2.3,Win32,60.00960154,627c6715c52fd12f31907bd0,,,,,,,,,,,,space,79.0034,space,18.6397,0,0,0,0,1,,,,,,,,,,,,,,,,,,,,,,,,,,,,,,,,,,,,,,,,,,,,,,,,,
,61530de3eb980b5e9bf32015,627c758e6e59c87c2e5f30c8,2022-05-12_04h49.54.279,classification_task,2021.2.3,Win32,60.00960154,627c6715c52fd12f31907bd0,,,,,,,,,,,,,,space,14.2392,1,0,1,0,1,,,,,,,,,,,,,,,,,,,,,,,,,,,,,,,,,,,,,,,,,,,,,,,,,
,61530de3eb980b5e9bf32015,627c758e6e59c87c2e5f30c8,2022-05-12_04h49.54.279,classification_task,2021.2.3,Win32,60.00960154,627c6715c52fd12f31907bd0,,,,,,,,,,,,,,space,39.9335,2,0,2,0,1,,,,,,,,,,,,,,,,,,,,,,,,,,,,,,,,,,,,,,,,,,,,,,,,,
,61530de3eb980b5e9bf32015,627c758e6e59c87c2e5f30c8,2022-05-12_04h49.54.279,classification_task,2021.2.3,Win32,60.00960154,627c6715c52fd12f31907bd0,,,,,,,,,,,,,,space,39.2275,3,0,3,0,1,,,,,,,,,,,,,,,,,,,,,,,,,,,,,,,,,,,,,,,,,,,,,,,,,
,61530de3eb980b5e9bf32015,627c758e6e59c87c2e5f30c8,2022-05-12_04h49.54.279,classification_task,2021.2.3,Win32,60.00960154,627c6715c52fd12f31907bd0,,,,,,,,,,,,,,space,40.5066,4,0,4,0,1,,,,,,,,,,,,,,,,,,,,,,,,,,,,,,,,,,,,,,,,,,,,,,,,,
,61530de3eb980b5e9bf32015,627c758e6e59c87c2e5f30c8,2022-05-12_04h49.54.279,classification_task,2021.2.3,Win32,60.00960154,627c6715c52fd12f31907bd0,,,,,,,,,,,,,,,,,,,,,space,145.1646,,0,"[""0.114"",""0.360"",""0.617"",""0.787""]","[1,1,1,0]",0,0,0,0,1,1,0,,,1,FALSE,,,,,,,,,,,,,,,,,,,,,,,,,,,,,,,,
,61530de3eb980b5e9bf32015,627c758e6e59c87c2e5f30c8,2022-05-12_04h49.54.279,classification_task,2021.2.3,Win32,60.00960154,627c6715c52fd12f31907bd0,,,,,,,,,,,,,,,,,,,,,,,l,1,"[""0.665"",""0.399"",""0.536"",""0.822""]","[0,1,1,1]",0,1,1,1,1,1,1,,,1,FALSE,0.0806,,,,,,,,,,,,,,,,,,,,,,,,,,,,,,,
,61530de3eb980b5e9bf32015,627c758e6e59c87c2e5f30c8,2022-05-12_04h49.54.279,classification_task,2021.2.3,Win32,60.00960154,627c6715c52fd12f31907bd0,,,,,,,,,,,,,,,,,,,,,,,l,0,"[""0.172"",""0.570"",""0.865"",""0.900""]","[1,0,1,1]",0,2,2,2,1,0,0,,,1,FALSE,6.6064,,,,,,,,,,,,,,,,,,,,,,,,,,,,,,,
,61530de3eb980b5e9bf32015,627c758e6e59c87c2e5f30c8,2022-05-12_04h49.54.279,classification_task,2021.2.3,Win32,60.00960154,627c6715c52fd12f31907bd0,,,,,,,,,,,,,,,,,,,,,,,l,1,"[""0.043"",""0.399"",""0.770"",""0.822""]","[1,1,0,1]",0,3,3,3,1,1,1,,,1,FALSE,9.3437,,,,,,,,,,,,,,,,,,,,,,,,,,,,,,,
,61530de3eb980b5e9bf32015,627c758e6e59c87c2e5f30c8,2022-05-12_04h49.54.279,classification_task,2021.2.3,Win32,60.00960154,627c6715c52fd12f31907bd0,,,,,,,,,,,,,,,,,,,,,,,,0,"[""0.666"",""0.481"",""0.934"",""0.972""]","[0,1,1,1]",0,4,4,4,1,0,1,,,1,FALSE,,,,,,,,,,,,,,,,,,,,,,,,,,,,,,,,
,61530de3eb980b5e9bf32015,627c758e6e59c87c2e5f30c8,2022-05-12_04h49.54.279,classification_task,2021.2.3,Win32,60.00960154,627c6715c52fd12f31907bd0,,,,,,,,,,,,,,,,,,,,,,,a,1,"[""0.243"",""0.570"",""0.934"",""0.972""]","[1,0,1,1]",0,5,5,5,1,0,1,,,1,FALSE,5.6534,,,,,,,,,,,,,,,,,,,,,,,,,,,,,,,
,61530de3eb980b5e9bf32015,627c758e6e59c87c2e5f30c8,2022-05-12_04h49.54.279,classification_task,2021.2.3,Win32,60.00960154,627c6715c52fd12f31907bd0,,,,,,,,,,,,,,,,,,,,,,,l,1,"[""0.114"",""0.360"",""0.307"",""0.734""]","[1,1,0,1]",0,6,6,6,1,1,0,,,1,FALSE,4.2175,,,,,,,,,,,,,,,,,,,,,,,,,,,,,,,
,61530de3eb980b5e9bf32015,627c758e6e59c87c2e5f30c8,2022-05-12_04h49.54.279,classification_task,2021.2.3,Win32,60.00960154,627c6715c52fd12f31907bd0,,,,,,,,,,,,,,,,,,,,,,,a,1,"[""0.243"",""0.481"",""0.316"",""0.972""]","[1,1,0,1]",0,7,7,7,1,0,1,,,1,FALSE,5.5859,,,,,,,,,,,,,,,,,,,,,,,,,,,,,,,
,61530de3eb980b5e9bf32015,627c758e6e59c87c2e5f30c8,2022-05-12_04h49.54.279,classification_task,2021.2.3,Win32,60.00960154,627c6715c52fd12f31907bd0,,,,,,,,,,,,,,,,,,,,,,,l,1,"[""0.307"",""0.360"",""0.617"",""0.734""]","[0,1,1,1]",0,8,8,8,1,1,0,,,1,FALSE,6.8974,,,,,,,,,,,,,,,,,,,,,,,,,,,,,,,
,61530de3eb980b5e9bf32015,627c758e6e59c87c2e5f30c8,2022-05-12_04h49.54.279,classification_task,2021.2.3,Win32,60.00960154,627c6715c52fd12f31907bd0,,,,,,,,,,,,,,,,,,,,,,,l,1,"[""0.114"",""0.316"",""0.617"",""0.734""]","[1,0,1,1]",0,9,9,9,1,1,0,,,1,FALSE,2.9756,,,,,,,,,,,,,,,,,,,,,,,,,,,,,,,
,61530de3eb980b5e9bf32015,627c758e6e59c87c2e5f30c8,2022-05-12_04h49.54.279,classification_task,2021.2.3,Win32,60.00960154,627c6715c52fd12f31907bd0,,,,,,,,,,,,,,,,,,,,,,,l,1,"[""0.043"",""0.399"",""0.536"",""0.295""]","[1,1,1,0]",0,10,10,10,1,1,1,,,1,FALSE,3.8838,,,,,,,,,,,,,,,,,,,,,,,,,,,,,,,
,61530de3eb980b5e9bf32015,627c758e6e59c87c2e5f30c8,2022-05-12_04h49.54.279,classification_task,2021.2.3,Win32,60.00960154,627c6715c52fd12f31907bd0,,,,,,,,,,,,,,,,,,,,,,,a,1,"[""0.243"",""0.481"",""0.934"",""0.570""]","[1,1,1,0]",0,11,11,11,1,0,1,,,1,FALSE,3.408,,,,,,,,,,,,,,,,,,,,,,,,,,,,,,,
,61530de3eb980b5e9bf32015,627c758e6e59c87c2e5f30c8,2022-05-12_04h49.54.279,classification_task,2021.2.3,Win32,60.00960154,627c6715c52fd12f31907bd0,,,,,,,,,,,,,,,,,,,,,,,a,1,"[""0.316"",""0.433"",""0.865"",""0.900""]","[0,1,1,1]",0,12,12,12,1,0,0,,,1,FALSE,7.4591,,,,,,,,,,,,,,,,,,,,,,,,,,,,,,,
,61530de3eb980b5e9bf32015,627c758e6e59c87c2e5f30c8,2022-05-12_04h49.54.279,classification_task,2021.2.3,Win32,60.00960154,627c6715c52fd12f31907bd0,,,,,,,,,,,,,,,,,,,,,,,a,1,"[""0.172"",""0.433"",""0.865"",""0.309""]","[1,1,1,0]",0,13,13,13,1,0,0,,,1,FALSE,4.3266,,,,,,,,,,,,,,,,,,,,,,,,,,,,,,,
,61530de3eb980b5e9bf32015,627c758e6e59c87c2e5f30c8,2022-05-12_04h49.54.279,classification_task,2021.2.3,Win32,60.00960154,627c6715c52fd12f31907bd0,,,,,,,,,,,,,,,,,,,,,,,l,1,"[""0.043"",""0.582"",""0.536"",""0.822""]","[1,0,1,1]",0,14,14,14,1,1,1,,,1,FALSE,7.2981,,,,,,,,,,,,,,,,,,,,,,,,,,,,,,,
,61530de3eb980b5e9bf32015,627c758e6e59c87c2e5f30c8,2022-05-12_04h49.54.279,classification_task,2021.2.3,Win32,60.00960154,627c6715c52fd12f31907bd0,,,,,,,,,,,,,,,,,,,,,,,a,1,"[""0.172"",""0.433"",""0.571"",""0.900""]","[1,1,0,1]",0,15,15,15,1,0,0,,,1,FALSE,7.662,,,,,,,,,,,,,,,,,,,,,,,,,,,,,,,
,61530de3eb980b5e9bf32015,627c758e6e59c87c2e5f30c8,2022-05-12_04h49.54.279,classification_task,2021.2.3,Win32,60.00960154,627c6715c52fd12f31907bd0,,,,,,,,,,,,,,,,,,,,,,,l,1,"[""0.582"",""0.360"",""0.617"",""0.734""]","[0,1,1,1]",0,16,16,16,1,1,0,,,1,FALSE,5.1494,,,,,,,,,,,,,,,,,,,,,,,,,,,,,,,
,61530de3eb980b5e9bf32015,627c758e6e59c87c2e5f30c8,2022-05-12_04h49.54.279,classification_task,2021.2.3,Win32,60.00960154,627c6715c52fd12f31907bd0,,,,,,,,,,,,,,,,,,,,,,,a,1,"[""0.243"",""0.481"",""0.934"",""0.584""]","[1,1,1,0]",0,17,17,17,1,0,1,,,1,FALSE,5.7792,,,,,,,,,,,,,,,,,,,,,,,,,,,,,,,
,61530de3eb980b5e9bf32015,627c758e6e59c87c2e5f30c8,2022-05-12_04h49.54.279,classification_task,2021.2.3,Win32,60.00960154,627c6715c52fd12f31907bd0,,,,,,,,,,,,,,,,,,,,,,,l,1,"[""0.570"",""0.399"",""0.536"",""0.822""]","[0,1,1,1]",0,18,18,18,1,1,1,,,1,FALSE,4.4686,,,,,,,,,,,,,,,,,,,,,,,,,,,,,,,
,61530de3eb980b5e9bf32015,627c758e6e59c87c2e5f30c8,2022-05-12_04h49.54.279,classification_task,2021.2.3,Win32,60.00960154,627c6715c52fd12f31907bd0,,,,,,,,,,,,,,,,,,,,,,,l,1,"[""0.114"",""0.360"",""0.770"",""0.734""]","[1,1,0,1]",0,19,19,19,1,1,0,,,1,FALSE,5.642,,,,,,,,,,,,,,,,,,,,,,,,,,,,,,,
,61530de3eb980b5e9bf32015,627c758e6e59c87c2e5f30c8,2022-05-12_04h49.54.279,classification_task,2021.2.3,Win32,60.00960154,627c6715c52fd12f31907bd0,,,,,,,,,,,,,,,,,,,,,,,a,1,"[""0.582"",""0.433"",""0.865"",""0.900""]","[0,1,1,1]",0,20,20,20,1,0,0,,,1,FALSE,3.2456,,,,,,,,,,,,,,,,,,,,,,,,,,,,,,,
,61530de3eb980b5e9bf32015,627c758e6e59c87c2e5f30c8,2022-05-12_04h49.54.279,classification_task,2021.2.3,Win32,60.00960154,627c6715c52fd12f31907bd0,,,,,,,,,,,,,,,,,,,,,,,a,1,"[""0.307"",""0.481"",""0.934"",""0.972""]","[0,1,1,1]",0,21,21,21,1,0,1,,,1,FALSE,3.546,,,,,,,,,,,,,,,,,,,,,,,,,,,,,,,
,61530de3eb980b5e9bf32015,627c758e6e59c87c2e5f30c8,2022-05-12_04h49.54.279,classification_task,2021.2.3,Win32,60.00960154,627c6715c52fd12f31907bd0,,,,,,,,,,,,,,,,,,,,,,,l,1,"[""0.043"",""0.399"",""0.582"",""0.822""]","[1,1,0,1]",0,22,22,22,1,1,1,,,1,FALSE,2.6278,,,,,,,,,,,,,,,,,,,,,,,,,,,,,,,
,61530de3eb980b5e9bf32015,627c758e6e59c87c2e5f30c8,2022-05-12_04h49.54.279,classification_task,2021.2.3,Win32,60.00960154,627c6715c52fd12f31907bd0,,,,,,,,,,,,,,,,,,,,,,,l,1,"[""0.114"",""0.360"",""0.617"",""0.316""]","[1,1,1,0]",0,23,23,23,1,1,0,,,1,FALSE,4.1356,,,,,,,,,,,,,,,,,,,,,,,,,,,,,,,
,61530de3eb980b5e9bf32015,627c758e6e59c87c2e5f30c8,2022-05-12_04h49.54.279,classification_task,2021.2.3,Win32,60.00960154,627c6715c52fd12f31907bd0,,,,,,,,,,,,,,,,,,,,,,,l,1,"[""0.114"",""0.584"",""0.617"",""0.734""]","[1,0,1,1]",0,24,24,24,1,1,0,,,1,FALSE,1.6483,,,,,,,,,,,,,,,,,,,,,,,,,,,,,,,
,61530de3eb980b5e9bf32015,627c758e6e59c87c2e5f30c8,2022-05-12_04h49.54.279,classification_task,2021.2.3,Win32,60.00960154,627c6715c52fd12f31907bd0,,,,,,,,,,,,,,,,,,,,,,,a,1,"[""0.172"",""0.433"",""0.571"",""0.900""]","[1,1,0,1]",0,25,25,25,1,0,0,,,1,FALSE,1.3706,,,,,,,,,,,,,,,,,,,,,,,,,,,,,,,
,61530de3eb980b5e9bf32015,627c758e6e59c87c2e5f30c8,2022-05-12_04h49.54.279,classification_task,2021.2.3,Win32,60.00960154,627c6715c52fd12f31907bd0,,,,,,,,,,,,,,,,,,,,,,,a,1,"[""0.243"",""0.316"",""0.934"",""0.972""]","[1,0,1,1]",0,26,26,26,1,0,1,,,1,FALSE,1.8791,,,,,,,,,,,,,,,,,,,,,,,,,,,,,,,
,61530de3eb980b5e9bf32015,627c758e6e59c87c2e5f30c8,2022-05-12_04h49.54.279,classification_task,2021.2.3,Win32,60.00960154,627c6715c52fd12f31907bd0,,,,,,,,,,,,,,,,,,,,,,,l,0,"[""0.172"",""0.433"",""0.865"",""0.787""]","[1,1,1,0]",0,27,27,27,1,0,0,,,1,FALSE,7.3842,,,,,,,,,,,,,,,,,,,,,,,,,,,,,,,
,61530de3eb980b5e9bf32015,627c758e6e59c87c2e5f30c8,2022-05-12_04h49.54.279,classification_task,2021.2.3,Win32,60.00960154,627c6715c52fd12f31907bd0,,,,,,,,,,,,,,,,,,,,,,,l,1,"[""0.043"",""0.665"",""0.536"",""0.822""]","[1,0,1,1]",0,28,28,28,1,1,1,,,1,FALSE,3.1697,,,,,,,,,,,,,,,,,,,,,,,,,,,,,,,
,61530de3eb980b5e9bf32015,627c758e6e59c87c2e5f30c8,2022-05-12_04h49.54.279,classification_task,2021.2.3,Win32,60.00960154,627c6715c52fd12f31907bd0,,,,,,,,,,,,,,,,,,,,,,,a,1,"[""0.243"",""0.481"",""0.307"",""0.972""]","[1,1,0,1]",0,29,29,29,1,0,1,,,1,FALSE,3.4553,,,,,,,,,,,,,,,,,,,,,,,,,,,,,,,
,61530de3eb980b5e9bf32015,627c758e6e59c87c2e5f30c8,2022-05-12_04h49.54.279,classification_task,2021.2.3,Win32,60.00960154,627c6715c52fd12f31907bd0,,,,,,,,,,,,,,,,,,,,,,,a,1,"[""0.172"",""0.582"",""0.865"",""0.900""]","[1,0,1,1]",0,30,30,30,1,0,0,,,1,FALSE,3.412,,,,,,,,,,,,,,,,,,,,,,,,,,,,,,,
,61530de3eb980b5e9bf32015,627c758e6e59c87c2e5f30c8,2022-05-12_04h49.54.279,classification_task,2021.2.3,Win32,60.00960154,627c6715c52fd12f31907bd0,,,,,,,,,,,,,,,,,,,,,,,l,1,"[""0.043"",""0.399"",""0.536"",""0.295""]","[1,1,1,0]",0,31,31,31,1,1,1,,,1,FALSE,3.0305,,,,,,,,,,,,,,,,,,,,,,,,,,,,,,,
,61530de3eb980b5e9bf32015,627c758e6e59c87c2e5f30c8,2022-05-12_04h49.54.279,classification_task,2021.2.3,Win32,60.00960154,627c6715c52fd12f31907bd0,,,,,,,,,,,,,,,,,,,,,,,a,1,"[""0.243"",""0.481"",""0.571"",""0.972""]","[1,1,0,1]",0,32,32,32,1,0,1,,,1,FALSE,1.3212,,,,,,,,,,,,,,,,,,,,,,,,,,,,,,,
,61530de3eb980b5e9bf32015,627c758e6e59c87c2e5f30c8,2022-05-12_04h49.54.279,classification_task,2021.2.3,Win32,60.00960154,627c6715c52fd12f31907bd0,,,,,,,,,,,,,,,,,,,,,,,a,1,"[""0.172"",""0.433"",""0.687"",""0.900""]","[1,1,0,1]",0,33,33,33,1,0,0,,,1,FALSE,3.2348,,,,,,,,,,,,,,,,,,,,,,,,,,,,,,,
,61530de3eb980b5e9bf32015,627c758e6e59c87c2e5f30c8,2022-05-12_04h49.54.279,classification_task,2021.2.3,Win32,60.00960154,627c6715c52fd12f31907bd0,,,,,,,,,,,,,,,,,,,,,,,a,0,"[""0.114"",""0.316"",""0.617"",""0.734""]","[1,0,1,1]",0,34,34,34,1,1,0,,,1,FALSE,1.3143,,,,,,,,,,,,,,,,,,,,,,,,,,,,,,,
,61530de3eb980b5e9bf32015,627c758e6e59c87c2e5f30c8,2022-05-12_04h49.54.279,classification_task,2021.2.3,Win32,60.00960154,627c6715c52fd12f31907bd0,,,,,,,,,,,,,,,,,,,,,,,a,1,"[""0.582"",""0.481"",""0.934"",""0.972""]","[0,1,1,1]",0,35,35,35,1,0,1,,,1,FALSE,0.9636,,,,,,,,,,,,,,,,,,,,,,,,,,,,,,,
,61530de3eb980b5e9bf32015,627c758e6e59c87c2e5f30c8,2022-05-12_04h49.54.279,classification_task,2021.2.3,Win32,60.00960154,627c6715c52fd12f31907bd0,,,,,,,,,,,,,,,,,,,,,,,l,0,"[""0.172"",""0.433"",""0.865"",""0.295""]","[1,1,1,0]",0,36,36,36,1,0,0,,,1,FALSE,3.0933,,,,,,,,,,,,,,,,,,,,,,,,,,,,,,,
,61530de3eb980b5e9bf32015,627c758e6e59c87c2e5f30c8,2022-05-12_04h49.54.279,classification_task,2021.2.3,Win32,60.00960154,627c6715c52fd12f31907bd0,,,,,,,,,,,,,,,,,,,,,,,l,0,"[""0.584"",""0.433"",""0.865"",""0.900""]","[0,1,1,1]",0,37,37,37,1,0,0,,,1,FALSE,2.2085,,,,,,,,,,,,,,,,,,,,,,,,,,,,,,,
,61530de3eb980b5e9bf32015,627c758e6e59c87c2e5f30c8,2022-05-12_04h49.54.279,classification_task,2021.2.3,Win32,60.00960154,627c6715c52fd12f31907bd0,,,,,,,,,,,,,,,,,,,,,,,l,1,"[""0.114"",""0.360"",""0.666"",""0.734""]","[1,1,0,1]",0,38,38,38,1,1,0,,,1,FALSE,2.8945,,,,,,,,,,,,,,,,,,,,,,,,,,,,,,,
,61530de3eb980b5e9bf32015,627c758e6e59c87c2e5f30c8,2022-05-12_04h49.54.279,classification_task,2021.2.3,Win32,60.00960154,627c6715c52fd12f31907bd0,,,,,,,,,,,,,,,,,,,,,,,l,1,"[""0.043"",""0.399"",""0.536"",""0.787""]","[1,1,1,0]",0,39,39,39,1,1,1,,,1,FALSE,3.4318,,,,,,,,,,,,,,,,,,,,,,,,,,,,,,,
,61530de3eb980b5e9bf32015,627c758e6e59c87c2e5f30c8,2022-05-12_04h49.54.279,classification_task,2021.2.3,Win32,60.00960154,627c6715c52fd12f31907bd0,,,,,,,,,,,,,,,,,,,,,,,l,1,"[""0.043"",""0.399"",""0.316"",""0.822""]","[1,1,0,1]",0,40,40,40,1,1,1,,,1,FALSE,1.9975,,,,,,,,,,,,,,,,,,,,,,,,,,,,,,,
,61530de3eb980b5e9bf32015,627c758e6e59c87c2e5f30c8,2022-05-12_04h49.54.279,classification_task,2021.2.3,Win32,60.00960154,627c6715c52fd12f31907bd0,,,,,,,,,,,,,,,,,,,,,,,a,1,"[""0.243"",""0.571"",""0.934"",""0.972""]","[1,0,1,1]",0,41,41,41,1,0,1,,,1,FALSE,1.0105,,,,,,,,,,,,,,,,,,,,,,,,,,,,,,,
,61530de3eb980b5e9bf32015,627c758e6e59c87c2e5f30c8,2022-05-12_04h49.54.279,classification_task,2021.2.3,Win32,60.00960154,627c6715c52fd12f31907bd0,,,,,,,,,,,,,,,,,,,,,,,l,1,"[""0.307"",""0.399"",""0.536"",""0.822""]","[0,1,1,1]",0,42,42,42,1,1,1,,,1,FALSE,1.2716,,,,,,,,,,,,,,,,,,,,,,,,,,,,,,,
,61530de3eb980b5e9bf32015,627c758e6e59c87c2e5f30c8,2022-05-12_04h49.54.279,classification_task,2021.2.3,Win32,60.00960154,627c6715c52fd12f31907bd0,,,,,,,,,,,,,,,,,,,,,,,a,1,"[""0.172"",""0.295"",""0.865"",""0.900""]","[1,0,1,1]",0,43,43,43,1,0,0,,,1,FALSE,3.3772,,,,,,,,,,,,,,,,,,,,,,,,,,,,,,,
,61530de3eb980b5e9bf32015,627c758e6e59c87c2e5f30c8,2022-05-12_04h49.54.279,classification_task,2021.2.3,Win32,60.00960154,627c6715c52fd12f31907bd0,,,,,,,,,,,,,,,,,,,,,,,l,1,"[""0.043"",""0.582"",""0.536"",""0.822""]","[1,0,1,1]",0,44,44,44,1,1,1,,,1,FALSE,1.4317,,,,,,,,,,,,,,,,,,,,,,,,,,,,,,,
,61530de3eb980b5e9bf32015,627c758e6e59c87c2e5f30c8,2022-05-12_04h49.54.279,classification_task,2021.2.3,Win32,60.00960154,627c6715c52fd12f31907bd0,,,,,,,,,,,,,,,,,,,,,,,a,1,"[""0.243"",""0.481"",""0.934"",""0.307""]","[1,1,1,0]",0,45,45,45,1,0,1,,,1,FALSE,1.826,,,,,,,,,,,,,,,,,,,,,,,,,,,,,,,
,61530de3eb980b5e9bf32015,627c758e6e59c87c2e5f30c8,2022-05-12_04h49.54.279,classification_task,2021.2.3,Win32,60.00960154,627c6715c52fd12f31907bd0,,,,,,,,,,,,,,,,,,,,,,,l,1,"[""0.114"",""0.360"",""0.617"",""0.787""]","[1,1,1,0]",0,46,46,46,1,1,0,,,1,FALSE,1.3678,,,,,,,,,,,,,,,,,,,,,,,,,,,,,,,
,61530de3eb980b5e9bf32015,627c758e6e59c87c2e5f30c8,2022-05-12_04h49.54.279,classification_task,2021.2.3,Win32,60.00960154,627c6715c52fd12f31907bd0,,,,,,,,,,,,,,,,,,,,,,,l,1,"[""0.570"",""0.360"",""0.617"",""0.734""]","[0,1,1,1]",0,47,47,47,1,1,0,,,1,FALSE,3.2952,,,,,,,,,,,,,,,,,,,,,,,,,,,,,,,
,61530de3eb980b5e9bf32015,627c758e6e59c87c2e5f30c8,2022-05-12_04h49.54.279,classification_task,2021.2.3,Win32,60.00960154,627c6715c52fd12f31907bd0,,,,,,,,,,,,,,,,,,,,,,,a,1,"[""0.571"",""0.481"",""0.934"",""0.972""]","[0,1,1,1]",0,48,48,48,1,0,1,,,1,FALSE,1.1363,,,,,,,,,,,,,,,,,,,,,,,,,,,,,,,
,61530de3eb980b5e9bf32015,627c758e6e59c87c2e5f30c8,2022-05-12_04h49.54.279,classification_task,2021.2.3,Win32,60.00960154,627c6715c52fd12f31907bd0,,,,,,,,,,,,,,,,,,,,,,,a,1,"[""0.243"",""0.665"",""0.934"",""0.972""]","[1,0,1,1]",0,49,49,49,1,0,1,,,1,FALSE,0.7498,,,,,,,,,,,,,,,,,,,,,,,,,,,,,,,
,61530de3eb980b5e9bf32015,627c758e6e59c87c2e5f30c8,2022-05-12_04h49.54.279,classification_task,2021.2.3,Win32,60.00960154,627c6715c52fd12f31907bd0,,,,,,,,,,,,,,,,,,,,,,,l,1,"[""0.043"",""0.399"",""0.307"",""0.822""]","[1,1,0,1]",0,50,50,50,1,1,1,,,1,FALSE,1.1666,,,,,,,,,,,,,,,,,,,,,,,,,,,,,,,
,61530de3eb980b5e9bf32015,627c758e6e59c87c2e5f30c8,2022-05-12_04h49.54.279,classification_task,2021.2.3,Win32,60.00960154,627c6715c52fd12f31907bd0,,,,,,,,,,,,,,,,,,,,,,,a,1,"[""0.172"",""0.433"",""0.309"",""0.900""]","[1,1,0,1]",0,51,51,51,1,0,0,,,1,FALSE,1.8293,,,,,,,,,,,,,,,,,,,,,,,,,,,,,,,
,61530de3eb980b5e9bf32015,627c758e6e59c87c2e5f30c8,2022-05-12_04h49.54.279,classification_task,2021.2.3,Win32,60.00960154,627c6715c52fd12f31907bd0,,,,,,,,,,,,,,,,,,,,,,,a,1,"[""0.665"",""0.433"",""0.865"",""0.900""]","[0,1,1,1]",0,52,52,52,1,0,0,,,1,FALSE,3.7635,,,,,,,,,,,,,,,,,,,,,,,,,,,,,,,
,61530de3eb980b5e9bf32015,627c758e6e59c87c2e5f30c8,2022-05-12_04h49.54.279,classification_task,2021.2.3,Win32,60.00960154,627c6715c52fd12f31907bd0,,,,,,,,,,,,,,,,,,,,,,,l,1,"[""0.114"",""0.360"",""0.617"",""0.316""]","[1,1,1,0]",0,53,53,53,1,1,0,,,1,FALSE,1.6162,,,,,,,,,,,,,,,,,,,,,,,,,,,,,,,
,61530de3eb980b5e9bf32015,627c758e6e59c87c2e5f30c8,2022-05-12_04h49.54.279,classification_task,2021.2.3,Win32,60.00960154,627c6715c52fd12f31907bd0,,,,,,,,,,,,,,,,,,,,,,,l,1,"[""0.571"",""0.360"",""0.617"",""0.734""]","[0,1,1,1]",0,54,54,54,1,1,0,,,1,FALSE,3.223,,,,,,,,,,,,,,,,,,,,,,,,,,,,,,,
,61530de3eb980b5e9bf32015,627c758e6e59c87c2e5f30c8,2022-05-12_04h49.54.279,classification_task,2021.2.3,Win32,60.00960154,627c6715c52fd12f31907bd0,,,,,,,,,,,,,,,,,,,,,,,l,1,"[""0.687"",""0.399"",""0.536"",""0.822""]","[0,1,1,1]",0,55,55,55,1,1,1,,,1,FALSE,1.9089,,,,,,,,,,,,,,,,,,,,,,,,,,,,,,,
,61530de3eb980b5e9bf32015,627c758e6e59c87c2e5f30c8,2022-05-12_04h49.54.279,classification_task,2021.2.3,Win32,60.00960154,627c6715c52fd12f31907bd0,,,,,,,,,,,,,,,,,,,,,,,a,1,"[""0.243"",""0.481"",""0.934"",""0.307""]","[1,1,1,0]",0,56,56,56,1,0,1,,,1,FALSE,1.1395,,,,,,,,,,,,,,,,,,,,,,,,,,,,,,,
,61530de3eb980b5e9bf32015,627c758e6e59c87c2e5f30c8,2022-05-12_04h49.54.279,classification_task,2021.2.3,Win32,60.00960154,627c6715c52fd12f31907bd0,,,,,,,,,,,,,,,,,,,,,,,l,1,"[""0.043"",""0.307"",""0.536"",""0.822""]","[1,0,1,1]",0,57,57,57,1,1,1,,,1,FALSE,1.2597,,,,,,,,,,,,,,,,,,,,,,,,,,,,,,,
,61530de3eb980b5e9bf32015,627c758e6e59c87c2e5f30c8,2022-05-12_04h49.54.279,classification_task,2021.2.3,Win32,60.00960154,627c6715c52fd12f31907bd0,,,,,,,,,,,,,,,,,,,,,,,a,1,"[""0.172"",""0.433"",""0.865"",""0.309""]","[1,1,1,0]",0,58,58,58,1,0,0,,,1,FALSE,1.2592,,,,,,,,,,,,,,,,,,,,,,,,,,,,,,,
,61530de3eb980b5e9bf32015,627c758e6e59c87c2e5f30c8,2022-05-12_04h49.54.279,classification_task,2021.2.3,Win32,60.00960154,627c6715c52fd12f31907bd0,,,,,,,,,,,,,,,,,,,,,,,a,1,"[""0.243"",""0.481"",""0.665"",""0.972""]","[1,1,0,1]",0,59,59,59,1,0,1,,,1,FALSE,1.7063,,,,,,,,,,,,,,,,,,,,,,,,,,,,,,,
,61530de3eb980b5e9bf32015,627c758e6e59c87c2e5f30c8,2022-05-12_04h49.54.279,classification_task,2021.2.3,Win32,60.00960154,627c6715c52fd12f31907bd0,,,,,,,,,,,,,,,,,,,,,,,l,1,"[""0.114"",""0.360"",""0.770"",""0.734""]","[1,1,0,1]",0,60,60,60,1,1,0,,,1,FALSE,1.5121,,,,,,,,,,,,,,,,,,,,,,,,,,,,,,,
,61530de3eb980b5e9bf32015,627c758e6e59c87c2e5f30c8,2022-05-12_04h49.54.279,classification_task,2021.2.3,Win32,60.00960154,627c6715c52fd12f31907bd0,,,,,,,,,,,,,,,,,,,,,,,a,0,"[""0.043"",""0.399"",""0.536"",""0.307""]","[1,1,1,0]",0,61,61,61,1,1,1,,,1,FALSE,1.1666,,,,,,,,,,,,,,,,,,,,,,,,,,,,,,,
,61530de3eb980b5e9bf32015,627c758e6e59c87c2e5f30c8,2022-05-12_04h49.54.279,classification_task,2021.2.3,Win32,60.00960154,627c6715c52fd12f31907bd0,,,,,,,,,,,,,,,,,,,,,,,a,1,"[""0.172"",""0.582"",""0.865"",""0.900""]","[1,0,1,1]",0,62,62,62,1,0,0,,,1,FALSE,1.2202,,,,,,,,,,,,,,,,,,,,,,,,,,,,,,,
,61530de3eb980b5e9bf32015,627c758e6e59c87c2e5f30c8,2022-05-12_04h49.54.279,classification_task,2021.2.3,Win32,60.00960154,627c6715c52fd12f31907bd0,,,,,,,,,,,,,,,,,,,,,,,l,1,"[""0.114"",""0.781"",""0.617"",""0.734""]","[1,0,1,1]",0,63,63,63,1,1,0,,,1,FALSE,1.6423,,,,,,,,,,,,,,,,,,,,,,,,,,,,,,,
,61530de3eb980b5e9bf32015,627c758e6e59c87c2e5f30c8,2022-05-12_04h49.54.279,classification_task,2021.2.3,Win32,60.00960154,627c6715c52fd12f31907bd0,,,,,,,,,,,,,,,,,,,,,,,,,,,,,,,,,,,,,,,0, ,,0,9.168044533,951.7717,0,0,0,0,1,2,1,,,,,,,,,,,,,,,,,,
,61530de3eb980b5e9bf32015,627c758e6e59c87c2e5f30c8,2022-05-12_04h49.54.279,classification_task,2021.2.3,Win32,60.00960154,627c6715c52fd12f31907bd0,,,,,,,,,,,,,,,,,,,,,,,,,,,,,,,,,,,,,,,1,  ,,0,6.997905644,935.0409,0,0,0,0,1,2,1,,,,,,,,,,,,,,,,,,
,61530de3eb980b5e9bf32015,627c758e6e59c87c2e5f30c8,2022-05-12_04h49.54.279,classification_task,2021.2.3,Win32,60.00960154,627c6715c52fd12f31907bd0,,,,,,,,,,,,,,,,,,,,,,,,,,,,,,,,,,,,,,,2,  ,,0,1.624228395,944.1846,0,0,0,0,1,2,1,,,,,,,,,,,,,,,,,,
,61530de3eb980b5e9bf32015,627c758e6e59c87c2e5f30c8,2022-05-12_04h49.54.279,classification_task,2021.2.3,Win32,60.00960154,627c6715c52fd12f31907bd0,,,,,,,,,,,,,,,,,,,,,,,,,,,,,,,,,,,,,,,,,,,,,0,0,0,0,1,,1,,,,,,,,,,,,,,,,,,
,61530de3eb980b5e9bf32015,627c758e6e59c87c2e5f30c8,2022-05-12_04h49.54.279,classification_task,2021.2.3,Win32,60.00960154,627c6715c52fd12f31907bd0,,,,,,,,,,,,,,,,,,,,,space,29.8684,l,0,"[""0.243"",""0.481"",""0.934"",""0.307""]","[1,1,1,0]",0,0,0,0,1,0,1,,,1,FALSE,6.033,,,,,,,,,,,,,,,,,,,,,,,,,,,,,,,
,61530de3eb980b5e9bf32015,627c758e6e59c87c2e5f30c8,2022-05-12_04h49.54.279,classification_task,2021.2.3,Win32,60.00960154,627c6715c52fd12f31907bd0,,,,,,,,,,,,,,,,,,,,,,,l,1,"[""0.114"",""0.360"",""0.687"",""0.734""]","[1,1,0,1]",0,1,1,1,1,1,0,,,1,FALSE,3.9232,,,,,,,,,,,,,,,,,,,,,,,,,,,,,,,
,61530de3eb980b5e9bf32015,627c758e6e59c87c2e5f30c8,2022-05-12_04h49.54.279,classification_task,2021.2.3,Win32,60.00960154,627c6715c52fd12f31907bd0,,,,,,,,,,,,,,,,,,,,,,,l,0,"[""0.570"",""0.433"",""0.865"",""0.900""]","[0,1,1,1]",0,2,2,2,1,0,0,,,1,FALSE,2.0025,,,,,,,,,,,,,,,,,,,,,,,,,,,,,,,
,61530de3eb980b5e9bf32015,627c758e6e59c87c2e5f30c8,2022-05-12_04h49.54.279,classification_task,2021.2.3,Win32,60.00960154,627c6715c52fd12f31907bd0,,,,,,,,,,,,,,,,,,,,,,,a,0,"[""0.787"",""0.360"",""0.617"",""0.734""]","[0,1,1,1]",0,3,3,3,1,1,0,,,1,FALSE,3.6145,,,,,,,,,,,,,,,,,,,,,,,,,,,,,,,
,61530de3eb980b5e9bf32015,627c758e6e59c87c2e5f30c8,2022-05-12_04h49.54.279,classification_task,2021.2.3,Win32,60.00960154,627c6715c52fd12f31907bd0,,,,,,,,,,,,,,,,,,,,,,,a,0,"[""0.665"",""0.399"",""0.536"",""0.822""]","[0,1,1,1]",0,4,4,4,1,1,1,,,1,FALSE,2.1087,,,,,,,,,,,,,,,,,,,,,,,,,,,,,,,
,61530de3eb980b5e9bf32015,627c758e6e59c87c2e5f30c8,2022-05-12_04h49.54.279,classification_task,2021.2.3,Win32,60.00960154,627c6715c52fd12f31907bd0,,,,,,,,,,,,,,,,,,,,,,,a,1,"[""0.172"",""0.433"",""0.865"",""0.307""]","[1,1,1,0]",0,5,5,5,1,0,0,,,1,FALSE,2.3228,,,,,,,,,,,,,,,,,,,,,,,,,,,,,,,
,61530de3eb980b5e9bf32015,627c758e6e59c87c2e5f30c8,2022-05-12_04h49.54.279,classification_task,2021.2.3,Win32,60.00960154,627c6715c52fd12f31907bd0,,,,,,,,,,,,,,,,,,,,,,,a,1,"[""0.172"",""0.433"",""0.571"",""0.900""]","[1,1,0,1]",0,6,6,6,1,0,0,,,1,FALSE,0.9775,,,,,,,,,,,,,,,,,,,,,,,,,,,,,,,
,61530de3eb980b5e9bf32015,627c758e6e59c87c2e5f30c8,2022-05-12_04h49.54.279,classification_task,2021.2.3,Win32,60.00960154,627c6715c52fd12f31907bd0,,,,,,,,,,,,,,,,,,,,,,,l,1,"[""0.043"",""0.399"",""0.770"",""0.822""]","[1,1,0,1]",0,7,7,7,1,1,1,,,1,FALSE,2.5619,,,,,,,,,,,,,,,,,,,,,,,,,,,,,,,
,61530de3eb980b5e9bf32015,627c758e6e59c87c2e5f30c8,2022-05-12_04h49.54.279,classification_task,2021.2.3,Win32,60.00960154,627c6715c52fd12f31907bd0,,,,,,,,,,,,,,,,,,,,,,,l,1,"[""0.114"",""0.360"",""0.617"",""0.570""]","[1,1,1,0]",0,8,8,8,1,1,0,,,1,FALSE,3.0061,,,,,,,,,,,,,,,,,,,,,,,,,,,,,,,
,61530de3eb980b5e9bf32015,627c758e6e59c87c2e5f30c8,2022-05-12_04h49.54.279,classification_task,2021.2.3,Win32,60.00960154,627c6715c52fd12f31907bd0,,,,,,,,,,,,,,,,,,,,,,,a,1,"[""0.307"",""0.481"",""0.934"",""0.972""]","[0,1,1,1]",0,9,9,9,1,0,1,,,1,FALSE,2.2186,,,,,,,,,,,,,,,,,,,,,,,,,,,,,,,
,61530de3eb980b5e9bf32015,627c758e6e59c87c2e5f30c8,2022-05-12_04h49.54.279,classification_task,2021.2.3,Win32,60.00960154,627c6715c52fd12f31907bd0,,,,,,,,,,,,,,,,,,,,,,,a,1,"[""0.172"",""0.571"",""0.865"",""0.900""]","[1,0,1,1]",0,10,10,10,1,0,0,,,1,FALSE,2.5759,,,,,,,,,,,,,,,,,,,,,,,,,,,,,,,
,61530de3eb980b5e9bf32015,627c758e6e59c87c2e5f30c8,2022-05-12_04h49.54.279,classification_task,2021.2.3,Win32,60.00960154,627c6715c52fd12f31907bd0,,,,,,,,,,,,,,,,,,,,,,,l,1,"[""0.114"",""0.571"",""0.617"",""0.734""]","[1,0,1,1]",0,11,11,11,1,1,0,,,1,FALSE,1.0759,,,,,,,,,,,,,,,,,,,,,,,,,,,,,,,
,61530de3eb980b5e9bf32015,627c758e6e59c87c2e5f30c8,2022-05-12_04h49.54.279,classification_task,2021.2.3,Win32,60.00960154,627c6715c52fd12f31907bd0,,,,,,,,,,,,,,,,,,,,,,,a,1,"[""0.243"",""0.770"",""0.934"",""0.972""]","[1,0,1,1]",0,12,12,12,1,0,1,,,1,FALSE,2.298,,,,,,,,,,,,,,,,,,,,,,,,,,,,,,,
,61530de3eb980b5e9bf32015,627c758e6e59c87c2e5f30c8,2022-05-12_04h49.54.279,classification_task,2021.2.3,Win32,60.00960154,627c6715c52fd12f31907bd0,,,,,,,,,,,,,,,,,,,,,,,a,1,"[""0.243"",""0.481"",""0.582"",""0.972""]","[1,1,0,1]",0,13,13,13,1,0,1,,,1,FALSE,1.7331,,,,,,,,,,,,,,,,,,,,,,,,,,,,,,,
,61530de3eb980b5e9bf32015,627c758e6e59c87c2e5f30c8,2022-05-12_04h49.54.279,classification_task,2021.2.3,Win32,60.00960154,627c6715c52fd12f31907bd0,,,,,,,,,,,,,,,,,,,,,,,l,1,"[""0.043"",""0.399"",""0.536"",""0.666""]","[1,1,1,0]",0,14,14,14,1,1,1,,,1,FALSE,1.358,,,,,,,,,,,,,,,,,,,,,,,,,,,,,,,
,61530de3eb980b5e9bf32015,627c758e6e59c87c2e5f30c8,2022-05-12_04h49.54.279,classification_task,2021.2.3,Win32,60.00960154,627c6715c52fd12f31907bd0,,,,,,,,,,,,,,,,,,,,,,,l,1,"[""0.043"",""0.584"",""0.536"",""0.822""]","[1,0,1,1]",0,15,15,15,1,1,1,,,1,FALSE,1.8179,,,,,,,,,,,,,,,,,,,,,,,,,,,,,,,
,61530de3eb980b5e9bf32015,627c758e6e59c87c2e5f30c8,2022-05-12_04h49.54.279,classification_task,2021.2.3,Win32,60.00960154,627c6715c52fd12f31907bd0,,,,,,,,,,,,,,,,,,,,,,,l,0,"[""0.584"",""0.433"",""0.865"",""0.900""]","[0,1,1,1]",0,16,16,16,1,0,0,,,1,FALSE,2.2905,,,,,,,,,,,,,,,,,,,,,,,,,,,,,,,
,61530de3eb980b5e9bf32015,627c758e6e59c87c2e5f30c8,2022-05-12_04h49.54.279,classification_task,2021.2.3,Win32,60.00960154,627c6715c52fd12f31907bd0,,,,,,,,,,,,,,,,,,,,,,,a,1,"[""0.172"",""0.433"",""0.865"",""0.309""]","[1,1,1,0]",0,17,17,17,1,0,0,,,1,FALSE,1.5238,,,,,,,,,,,,,,,,,,,,,,,,,,,,,,,
,61530de3eb980b5e9bf32015,627c758e6e59c87c2e5f30c8,2022-05-12_04h49.54.279,classification_task,2021.2.3,Win32,60.00960154,627c6715c52fd12f31907bd0,,,,,,,,,,,,,,,,,,,,,,,l,1,"[""0.114"",""0.687"",""0.617"",""0.734""]","[1,0,1,1]",0,18,18,18,1,1,0,,,1,FALSE,2.876,,,,,,,,,,,,,,,,,,,,,,,,,,,,,,,
,61530de3eb980b5e9bf32015,627c758e6e59c87c2e5f30c8,2022-05-12_04h49.54.279,classification_task,2021.2.3,Win32,60.00960154,627c6715c52fd12f31907bd0,,,,,,,,,,,,,,,,,,,,,,,a,1,"[""0.172"",""0.307"",""0.865"",""0.900""]","[1,0,1,1]",0,19,19,19,1,0,0,,,1,FALSE,1.863,,,,,,,,,,,,,,,,,,,,,,,,,,,,,,,
,61530de3eb980b5e9bf32015,627c758e6e59c87c2e5f30c8,2022-05-12_04h49.54.279,classification_task,2021.2.3,Win32,60.00960154,627c6715c52fd12f31907bd0,,,,,,,,,,,,,,,,,,,,,,,a,1,"[""0.243"",""0.481"",""0.934"",""0.307""]","[1,1,1,0]",0,20,20,20,1,0,1,,,1,FALSE,3.0331,,,,,,,,,,,,,,,,,,,,,,,,,,,,,,,
,61530de3eb980b5e9bf32015,627c758e6e59c87c2e5f30c8,2022-05-12_04h49.54.279,classification_task,2021.2.3,Win32,60.00960154,627c6715c52fd12f31907bd0,,,,,,,,,,,,,,,,,,,,,,,l,1,"[""0.114"",""0.360"",""0.617"",""0.781""]","[1,1,1,0]",0,21,21,21,1,1,0,,,1,FALSE,1.4545,,,,,,,,,,,,,,,,,,,,,,,,,,,,,,,
,61530de3eb980b5e9bf32015,627c758e6e59c87c2e5f30c8,2022-05-12_04h49.54.279,classification_task,2021.2.3,Win32,60.00960154,627c6715c52fd12f31907bd0,,,,,,,,,,,,,,,,,,,,,,,l,1,"[""0.787"",""0.399"",""0.536"",""0.822""]","[0,1,1,1]",0,22,22,22,1,1,1,,,1,FALSE,2.7648,,,,,,,,,,,,,,,,,,,,,,,,,,,,,,,
,61530de3eb980b5e9bf32015,627c758e6e59c87c2e5f30c8,2022-05-12_04h49.54.279,classification_task,2021.2.3,Win32,60.00960154,627c6715c52fd12f31907bd0,,,,,,,,,,,,,,,,,,,,,,,l,1,"[""0.114"",""0.360"",""0.665"",""0.734""]","[1,1,0,1]",0,23,23,23,1,1,0,,,1,FALSE,1.2538,,,,,,,,,,,,,,,,,,,,,,,,,,,,,,,
,61530de3eb980b5e9bf32015,627c758e6e59c87c2e5f30c8,2022-05-12_04h49.54.279,classification_task,2021.2.3,Win32,60.00960154,627c6715c52fd12f31907bd0,,,,,,,,,,,,,,,,,,,,,,,a,1,"[""0.243"",""0.307"",""0.934"",""0.972""]","[1,0,1,1]",0,24,24,24,1,0,1,,,1,FALSE,1.2192,,,,,,,,,,,,,,,,,,,,,,,,,,,,,,,
,61530de3eb980b5e9bf32015,627c758e6e59c87c2e5f30c8,2022-05-12_04h49.54.279,classification_task,2021.2.3,Win32,60.00960154,627c6715c52fd12f31907bd0,,,,,,,,,,,,,,,,,,,,,,,a,1,"[""0.316"",""0.481"",""0.934"",""0.972""]","[0,1,1,1]",0,25,25,25,1,0,1,,,1,FALSE,0.8925,,,,,,,,,,,,,,,,,,,,,,,,,,,,,,,
,61530de3eb980b5e9bf32015,627c758e6e59c87c2e5f30c8,2022-05-12_04h49.54.279,classification_task,2021.2.3,Win32,60.00960154,627c6715c52fd12f31907bd0,,,,,,,,,,,,,,,,,,,,,,,l,1,"[""0.309"",""0.360"",""0.617"",""0.734""]","[0,1,1,1]",0,26,26,26,1,1,0,,,1,FALSE,3.7892,,,,,,,,,,,,,,,,,,,,,,,,,,,,,,,
,61530de3eb980b5e9bf32015,627c758e6e59c87c2e5f30c8,2022-05-12_04h49.54.279,classification_task,2021.2.3,Win32,60.00960154,627c6715c52fd12f31907bd0,,,,,,,,,,,,,,,,,,,,,,,a,1,"[""0.243"",""0.481"",""0.584"",""0.972""]","[1,1,0,1]",0,27,27,27,1,0,1,,,1,FALSE,1.1213,,,,,,,,,,,,,,,,,,,,,,,,,,,,,,,
,61530de3eb980b5e9bf32015,627c758e6e59c87c2e5f30c8,2022-05-12_04h49.54.279,classification_task,2021.2.3,Win32,60.00960154,627c6715c52fd12f31907bd0,,,,,,,,,,,,,,,,,,,,,,,a,1,"[""0.172"",""0.433"",""0.787"",""0.900""]","[1,1,0,1]",0,28,28,28,1,0,0,,,1,FALSE,1.978,,,,,,,,,,,,,,,,,,,,,,,,,,,,,,,
,61530de3eb980b5e9bf32015,627c758e6e59c87c2e5f30c8,2022-05-12_04h49.54.279,classification_task,2021.2.3,Win32,60.00960154,627c6715c52fd12f31907bd0,,,,,,,,,,,,,,,,,,,,,,,l,1,"[""0.043"",""0.666"",""0.536"",""0.822""]","[1,0,1,1]",0,29,29,29,1,1,1,,,1,FALSE,1.1033,,,,,,,,,,,,,,,,,,,,,,,,,,,,,,,
,61530de3eb980b5e9bf32015,627c758e6e59c87c2e5f30c8,2022-05-12_04h49.54.279,classification_task,2021.2.3,Win32,60.00960154,627c6715c52fd12f31907bd0,,,,,,,,,,,,,,,,,,,,,,,l,1,"[""0.043"",""0.399"",""0.309"",""0.822""]","[1,1,0,1]",0,30,30,30,1,1,1,,,1,FALSE,1.3585,,,,,,,,,,,,,,,,,,,,,,,,,,,,,,,
,61530de3eb980b5e9bf32015,627c758e6e59c87c2e5f30c8,2022-05-12_04h49.54.279,classification_task,2021.2.3,Win32,60.00960154,627c6715c52fd12f31907bd0,,,,,,,,,,,,,,,,,,,,,,,l,1,"[""0.043"",""0.399"",""0.536"",""0.665""]","[1,1,1,0]",0,31,31,31,1,1,1,,,1,FALSE,1.109,,,,,,,,,,,,,,,,,,,,,,,,,,,,,,,
,61530de3eb980b5e9bf32015,627c758e6e59c87c2e5f30c8,2022-05-12_04h49.54.279,classification_task,2021.2.3,Win32,60.00960154,627c6715c52fd12f31907bd0,,,,,,,,,,,,,,,,,,,,,,,l,1,"[""0.043"",""0.295"",""0.536"",""0.822""]","[1,0,1,1]",0,32,32,32,1,1,1,,,1,FALSE,0.9007,,,,,,,,,,,,,,,,,,,,,,,,,,,,,,,
,61530de3eb980b5e9bf32015,627c758e6e59c87c2e5f30c8,2022-05-12_04h49.54.279,classification_task,2021.2.3,Win32,60.00960154,627c6715c52fd12f31907bd0,,,,,,,,,,,,,,,,,,,,,,,a,1,"[""0.243"",""0.665"",""0.934"",""0.972""]","[1,0,1,1]",0,33,33,33,1,0,1,,,1,FALSE,1.7423,,,,,,,,,,,,,,,,,,,,,,,,,,,,,,,
,61530de3eb980b5e9bf32015,627c758e6e59c87c2e5f30c8,2022-05-12_04h49.54.279,classification_task,2021.2.3,Win32,60.00960154,627c6715c52fd12f31907bd0,,,,,,,,,,,,,,,,,,,,,,,l,1,"[""0.309"",""0.360"",""0.617"",""0.734""]","[0,1,1,1]",0,34,34,34,1,1,0,,,1,FALSE,3.716,,,,,,,,,,,,,,,,,,,,,,,,,,,,,,,
,61530de3eb980b5e9bf32015,627c758e6e59c87c2e5f30c8,2022-05-12_04h49.54.279,classification_task,2021.2.3,Win32,60.00960154,627c6715c52fd12f31907bd0,,,,,,,,,,,,,,,,,,,,,,,l,1,"[""0.114"",""0.571"",""0.617"",""0.734""]","[1,0,1,1]",0,35,35,35,1,1,0,,,1,FALSE,1.3895,,,,,,,,,,,,,,,,,,,,,,,,,,,,,,,
,61530de3eb980b5e9bf32015,627c758e6e59c87c2e5f30c8,2022-05-12_04h49.54.279,classification_task,2021.2.3,Win32,60.00960154,627c6715c52fd12f31907bd0,,,,,,,,,,,,,,,,,,,,,,,a,1,"[""0.243"",""0.481"",""0.582"",""0.972""]","[1,1,0,1]",0,36,36,36,1,0,1,,,1,FALSE,1.5013,,,,,,,,,,,,,,,,,,,,,,,,,,,,,,,
,61530de3eb980b5e9bf32015,627c758e6e59c87c2e5f30c8,2022-05-12_04h49.54.279,classification_task,2021.2.3,Win32,60.00960154,627c6715c52fd12f31907bd0,,,,,,,,,,,,,,,,,,,,,,,l,1,"[""0.043"",""0.399"",""0.536"",""0.787""]","[1,1,1,0]",0,37,37,37,1,1,1,,,1,FALSE,1.8604,,,,,,,,,,,,,,,,,,,,,,,,,,,,,,,
,61530de3eb980b5e9bf32015,627c758e6e59c87c2e5f30c8,2022-05-12_04h49.54.279,classification_task,2021.2.3,Win32,60.00960154,627c6715c52fd12f31907bd0,,,,,,,,,,,,,,,,,,,,,,,a,1,"[""0.172"",""0.433"",""0.865"",""0.787""]","[1,1,1,0]",0,38,38,38,1,0,0,,,1,FALSE,1.4593,,,,,,,,,,,,,,,,,,,,,,,,,,,,,,,
,61530de3eb980b5e9bf32015,627c758e6e59c87c2e5f30c8,2022-05-12_04h49.54.279,classification_task,2021.2.3,Win32,60.00960154,627c6715c52fd12f31907bd0,,,,,,,,,,,,,,,,,,,,,,,a,1,"[""0.172"",""0.781"",""0.865"",""0.900""]","[1,0,1,1]",0,39,39,39,1,0,0,,,1,FALSE,0.804,,,,,,,,,,,,,,,,,,,,,,,,,,,,,,,
,61530de3eb980b5e9bf32015,627c758e6e59c87c2e5f30c8,2022-05-12_04h49.54.279,classification_task,2021.2.3,Win32,60.00960154,627c6715c52fd12f31907bd0,,,,,,,,,,,,,,,,,,,,,,,l,1,"[""0.114"",""0.360"",""0.307"",""0.734""]","[1,1,0,1]",0,40,40,40,1,1,0,,,1,FALSE,1.0722,,,,,,,,,,,,,,,,,,,,,,,,,,,,,,,
,61530de3eb980b5e9bf32015,627c758e6e59c87c2e5f30c8,2022-05-12_04h49.54.279,classification_task,2021.2.3,Win32,60.00960154,627c6715c52fd12f31907bd0,,,,,,,,,,,,,,,,,,,,,,,l,1,"[""0.043"",""0.399"",""0.770"",""0.822""]","[1,1,0,1]",0,41,41,41,1,1,1,,,1,FALSE,1.1873,,,,,,,,,,,,,,,,,,,,,,,,,,,,,,,
,61530de3eb980b5e9bf32015,627c758e6e59c87c2e5f30c8,2022-05-12_04h49.54.279,classification_task,2021.2.3,Win32,60.00960154,627c6715c52fd12f31907bd0,,,,,,,,,,,,,,,,,,,,,,,a,1,"[""0.307"",""0.481"",""0.934"",""0.972""]","[0,1,1,1]",0,42,42,42,1,0,1,,,1,FALSE,0.9945,,,,,,,,,,,,,,,,,,,,,,,,,,,,,,,
,61530de3eb980b5e9bf32015,627c758e6e59c87c2e5f30c8,2022-05-12_04h49.54.279,classification_task,2021.2.3,Win32,60.00960154,627c6715c52fd12f31907bd0,,,,,,,,,,,,,,,,,,,,,,,l,1,"[""0.665"",""0.399"",""0.536"",""0.822""]","[0,1,1,1]",0,43,43,43,1,1,1,,,1,FALSE,1.6505,,,,,,,,,,,,,,,,,,,,,,,,,,,,,,,
,61530de3eb980b5e9bf32015,627c758e6e59c87c2e5f30c8,2022-05-12_04h49.54.279,classification_task,2021.2.3,Win32,60.00960154,627c6715c52fd12f31907bd0,,,,,,,,,,,,,,,,,,,,,,,a,1,"[""0.243"",""0.481"",""0.934"",""0.582""]","[1,1,1,0]",0,44,44,44,1,0,1,,,1,FALSE,1.6071,,,,,,,,,,,,,,,,,,,,,,,,,,,,,,,
,61530de3eb980b5e9bf32015,627c758e6e59c87c2e5f30c8,2022-05-12_04h49.54.279,classification_task,2021.2.3,Win32,60.00960154,627c6715c52fd12f31907bd0,,,,,,,,,,,,,,,,,,,,,,,l,0,"[""0.172"",""0.433"",""0.295"",""0.900""]","[1,1,0,1]",0,45,45,45,1,0,0,,,1,FALSE,1.6017,,,,,,,,,,,,,,,,,,,,,,,,,,,,,,,
,61530de3eb980b5e9bf32015,627c758e6e59c87c2e5f30c8,2022-05-12_04h49.54.279,classification_task,2021.2.3,Win32,60.00960154,627c6715c52fd12f31907bd0,,,,,,,,,,,,,,,,,,,,,,,l,1,"[""0.114"",""0.360"",""0.617"",""0.316""]","[1,1,1,0]",0,46,46,46,1,1,0,,,1,FALSE,1.1061,,,,,,,,,,,,,,,,,,,,,,,,,,,,,,,
,61530de3eb980b5e9bf32015,627c758e6e59c87c2e5f30c8,2022-05-12_04h49.54.279,classification_task,2021.2.3,Win32,60.00960154,627c6715c52fd12f31907bd0,,,,,,,,,,,,,,,,,,,,,,,a,1,"[""0.584"",""0.433"",""0.865"",""0.900""]","[0,1,1,1]",0,47,47,47,1,0,0,,,1,FALSE,0.9877,,,,,,,,,,,,,,,,,,,,,,,,,,,,,,,
,61530de3eb980b5e9bf32015,627c758e6e59c87c2e5f30c8,2022-05-12_04h49.54.279,classification_task,2021.2.3,Win32,60.00960154,627c6715c52fd12f31907bd0,,,,,,,,,,,,,,,,,,,,,,,l,1,"[""0.043"",""0.399"",""0.536"",""0.582""]","[1,1,1,0]",0,48,48,48,1,1,1,,,1,FALSE,1.1636,,,,,,,,,,,,,,,,,,,,,,,,,,,,,,,
,61530de3eb980b5e9bf32015,627c758e6e59c87c2e5f30c8,2022-05-12_04h49.54.279,classification_task,2021.2.3,Win32,60.00960154,627c6715c52fd12f31907bd0,,,,,,,,,,,,,,,,,,,,,,,a,1,"[""0.172"",""0.433"",""0.307"",""0.900""]","[1,1,0,1]",0,49,49,49,1,0,0,,,1,FALSE,2.5862,,,,,,,,,,,,,,,,,,,,,,,,,,,,,,,
,61530de3eb980b5e9bf32015,627c758e6e59c87c2e5f30c8,2022-05-12_04h49.54.279,classification_task,2021.2.3,Win32,60.00960154,627c6715c52fd12f31907bd0,,,,,,,,,,,,,,,,,,,,,,,a,1,"[""0.243"",""0.307"",""0.934"",""0.972""]","[1,0,1,1]",0,50,50,50,1,0,1,,,1,FALSE,1.3603,,,,,,,,,,,,,,,,,,,,,,,,,,,,,,,
,61530de3eb980b5e9bf32015,627c758e6e59c87c2e5f30c8,2022-05-12_04h49.54.279,classification_task,2021.2.3,Win32,60.00960154,627c6715c52fd12f31907bd0,,,,,,,,,,,,,,,,,,,,,,,a,1,"[""0.787"",""0.481"",""0.934"",""0.972""]","[0,1,1,1]",0,51,51,51,1,0,1,,,1,FALSE,0.7694,,,,,,,,,,,,,,,,,,,,,,,,,,,,,,,
,61530de3eb980b5e9bf32015,627c758e6e59c87c2e5f30c8,2022-05-12_04h49.54.279,classification_task,2021.2.3,Win32,60.00960154,627c6715c52fd12f31907bd0,,,,,,,,,,,,,,,,,,,,,,,l,1,"[""0.666"",""0.360"",""0.617"",""0.734""]","[0,1,1,1]",0,52,52,52,1,1,0,,,1,FALSE,2.2082,,,,,,,,,,,,,,,,,,,,,,,,,,,,,,,
,61530de3eb980b5e9bf32015,627c758e6e59c87c2e5f30c8,2022-05-12_04h49.54.279,classification_task,2021.2.3,Win32,60.00960154,627c6715c52fd12f31907bd0,,,,,,,,,,,,,,,,,,,,,,,a,1,"[""0.243"",""0.481"",""0.787"",""0.972""]","[1,1,0,1]",0,53,53,53,1,0,1,,,1,FALSE,0.9679,,,,,,,,,,,,,,,,,,,,,,,,,,,,,,,
,61530de3eb980b5e9bf32015,627c758e6e59c87c2e5f30c8,2022-05-12_04h49.54.279,classification_task,2021.2.3,Win32,60.00960154,627c6715c52fd12f31907bd0,,,,,,,,,,,,,,,,,,,,,,,l,1,"[""0.114"",""0.360"",""0.617"",""0.307""]","[1,1,1,0]",0,54,54,54,1,1,0,,,1,FALSE,1.3606,,,,,,,,,,,,,,,,,,,,,,,,,,,,,,,
,61530de3eb980b5e9bf32015,627c758e6e59c87c2e5f30c8,2022-05-12_04h49.54.279,classification_task,2021.2.3,Win32,60.00960154,627c6715c52fd12f31907bd0,,,,,,,,,,,,,,,,,,,,,,,l,1,"[""0.114"",""0.360"",""0.316"",""0.734""]","[1,1,0,1]",0,55,55,55,1,1,0,,,1,FALSE,1.5534,,,,,,,,,,,,,,,,,,,,,,,,,,,,,,,
,61530de3eb980b5e9bf32015,627c758e6e59c87c2e5f30c8,2022-05-12_04h49.54.279,classification_task,2021.2.3,Win32,60.00960154,627c6715c52fd12f31907bd0,,,,,,,,,,,,,,,,,,,,,,,l,0,"[""0.307"",""0.433"",""0.865"",""0.900""]","[0,1,1,1]",0,56,56,56,1,0,0,,,1,FALSE,1.3955,,,,,,,,,,,,,,,,,,,,,,,,,,,,,,,
,61530de3eb980b5e9bf32015,627c758e6e59c87c2e5f30c8,2022-05-12_04h49.54.279,classification_task,2021.2.3,Win32,60.00960154,627c6715c52fd12f31907bd0,,,,,,,,,,,,,,,,,,,,,,,a,1,"[""0.243"",""0.481"",""0.934"",""0.770""]","[1,1,1,0]",0,57,57,57,1,0,1,,,1,FALSE,1.5945,,,,,,,,,,,,,,,,,,,,,,,,,,,,,,,
,61530de3eb980b5e9bf32015,627c758e6e59c87c2e5f30c8,2022-05-12_04h49.54.279,classification_task,2021.2.3,Win32,60.00960154,627c6715c52fd12f31907bd0,,,,,,,,,,,,,,,,,,,,,,,l,1,"[""0.043"",""0.399"",""0.787"",""0.822""]","[1,1,0,1]",0,58,58,58,1,1,1,,,1,FALSE,1.2405,,,,,,,,,,,,,,,,,,,,,,,,,,,,,,,
,61530de3eb980b5e9bf32015,627c758e6e59c87c2e5f30c8,2022-05-12_04h49.54.279,classification_task,2021.2.3,Win32,60.00960154,627c6715c52fd12f31907bd0,,,,,,,,,,,,,,,,,,,,,,,l,1,"[""0.309"",""0.399"",""0.536"",""0.822""]","[0,1,1,1]",0,59,59,59,1,1,1,,,1,FALSE,1.3876,,,,,,,,,,,,,,,,,,,,,,,,,,,,,,,
,61530de3eb980b5e9bf32015,627c758e6e59c87c2e5f30c8,2022-05-12_04h49.54.279,classification_task,2021.2.3,Win32,60.00960154,627c6715c52fd12f31907bd0,,,,,,,,,,,,,,,,,,,,,,,l,0,"[""0.172"",""0.433"",""0.865"",""0.787""]","[1,1,1,0]",0,60,60,60,1,0,0,,,1,FALSE,1.4063,,,,,,,,,,,,,,,,,,,,,,,,,,,,,,,
,61530de3eb980b5e9bf32015,627c758e6e59c87c2e5f30c8,2022-05-12_04h49.54.279,classification_task,2021.2.3,Win32,60.00960154,627c6715c52fd12f31907bd0,,,,,,,,,,,,,,,,,,,,,,,l,1,"[""0.043"",""0.787"",""0.536"",""0.822""]","[1,0,1,1]",0,61,61,61,1,1,1,,,1,FALSE,1.2466,,,,,,,,,,,,,,,,,,,,,,,,,,,,,,,
,61530de3eb980b5e9bf32015,627c758e6e59c87c2e5f30c8,2022-05-12_04h49.54.279,classification_task,2021.2.3,Win32,60.00960154,627c6715c52fd12f31907bd0,,,,,,,,,,,,,,,,,,,,,,,a,1,"[""0.172"",""0.307"",""0.865"",""0.900""]","[1,0,1,1]",0,62,62,62,1,0,0,,,1,FALSE,1.2946,,,,,,,,,,,,,,,,,,,,,,,,,,,,,,,
,61530de3eb980b5e9bf32015,627c758e6e59c87c2e5f30c8,2022-05-12_04h49.54.279,classification_task,2021.2.3,Win32,60.00960154,627c6715c52fd12f31907bd0,,,,,,,,,,,,,,,,,,,,,,,l,1,"[""0.114"",""0.571"",""0.617"",""0.734""]","[1,0,1,1]",0,63,63,63,1,1,0,,,1,FALSE,1.0173,,,,,,,,,,,,,,,,,,,,,,,,,,,,,,,
,61530de3eb980b5e9bf32015,627c758e6e59c87c2e5f30c8,2022-05-12_04h49.54.279,classification_task,2021.2.3,Win32,60.00960154,627c6715c52fd12f31907bd0,,,,,,,,,,,,,,,,,,,,,,,,,,,,,,,,,,,,,,,0, ,,0,9.340277778,229.2218,0,1,1,1,1,2,2,,,,,,,,,,,,,,,,,,
,61530de3eb980b5e9bf32015,627c758e6e59c87c2e5f30c8,2022-05-12_04h49.54.279,classification_task,2021.2.3,Win32,60.00960154,627c6715c52fd12f31907bd0,,,,,,,,,,,,,,,,,,,,,,,,,,,,,,,,,,,,,,,1,  ,,0,7.790178571,236.1642,0,1,1,1,1,2,2,,,,,,,,,,,,,,,,,,
,61530de3eb980b5e9bf32015,627c758e6e59c87c2e5f30c8,2022-05-12_04h49.54.279,classification_task,2021.2.3,Win32,60.00960154,627c6715c52fd12f31907bd0,,,,,,,,,,,,,,,,,,,,,,,,,,,,,,,,,,,,,,,2,  ,,0,1.141975309,242.348,0,1,1,1,1,2,2,,,,,,,,,,,,,,,,,,
,61530de3eb980b5e9bf32015,627c758e6e59c87c2e5f30c8,2022-05-12_04h49.54.279,classification_task,2021.2.3,Win32,60.00960154,627c6715c52fd12f31907bd0,,,,,,,,,,,,,,,,,,,,,,,,,,,,,,,,,,,,,,,,,,,,,0,1,1,1,1,,2,,,,,,,,,,,,,,,,,,
,61530de3eb980b5e9bf32015,627c758e6e59c87c2e5f30c8,2022-05-12_04h49.54.279,classification_task,2021.2.3,Win32,60.00960154,627c6715c52fd12f31907bd0,,,,,,,,,,,,,,,,,,,,,space,11.9964,a,1,"[""0.172"",""0.433"",""0.781"",""0.900""]","[1,1,0,1]",0,0,0,0,1,0,0,,,1,FALSE,2.0839,,,,,,,,,,,,,,,,,,,,,,,,,,,,,,,
,61530de3eb980b5e9bf32015,627c758e6e59c87c2e5f30c8,2022-05-12_04h49.54.279,classification_task,2021.2.3,Win32,60.00960154,627c6715c52fd12f31907bd0,,,,,,,,,,,,,,,,,,,,,,,l,1,"[""0.114"",""0.360"",""0.617"",""0.787""]","[1,1,1,0]",0,1,1,1,1,1,0,,,1,FALSE,1.3026,,,,,,,,,,,,,,,,,,,,,,,,,,,,,,,
,61530de3eb980b5e9bf32015,627c758e6e59c87c2e5f30c8,2022-05-12_04h49.54.279,classification_task,2021.2.3,Win32,60.00960154,627c6715c52fd12f31907bd0,,,,,,,,,,,,,,,,,,,,,,,l,1,"[""0.114"",""0.360"",""0.787"",""0.734""]","[1,1,0,1]",0,2,2,2,1,1,0,,,1,FALSE,1.0409,,,,,,,,,,,,,,,,,,,,,,,,,,,,,,,
,61530de3eb980b5e9bf32015,627c758e6e59c87c2e5f30c8,2022-05-12_04h49.54.279,classification_task,2021.2.3,Win32,60.00960154,627c6715c52fd12f31907bd0,,,,,,,,,,,,,,,,,,,,,,,a,1,"[""0.243"",""0.481"",""0.934"",""0.770""]","[1,1,1,0]",0,3,3,3,1,0,1,,,1,FALSE,1.54,,,,,,,,,,,,,,,,,,,,,,,,,,,,,,,
,61530de3eb980b5e9bf32015,627c758e6e59c87c2e5f30c8,2022-05-12_04h49.54.279,classification_task,2021.2.3,Win32,60.00960154,627c6715c52fd12f31907bd0,,,,,,,,,,,,,,,,,,,,,,,l,1,"[""0.781"",""0.399"",""0.536"",""0.822""]","[0,1,1,1]",0,4,4,4,1,1,1,,,1,FALSE,3.4485,,,,,,,,,,,,,,,,,,,,,,,,,,,,,,,
,61530de3eb980b5e9bf32015,627c758e6e59c87c2e5f30c8,2022-05-12_04h49.54.279,classification_task,2021.2.3,Win32,60.00960154,627c6715c52fd12f31907bd0,,,,,,,,,,,,,,,,,,,,,,,a,1,"[""0.582"",""0.433"",""0.865"",""0.900""]","[0,1,1,1]",0,5,5,5,1,0,0,,,1,FALSE,1.9868,,,,,,,,,,,,,,,,,,,,,,,,,,,,,,,
,61530de3eb980b5e9bf32015,627c758e6e59c87c2e5f30c8,2022-05-12_04h49.54.279,classification_task,2021.2.3,Win32,60.00960154,627c6715c52fd12f31907bd0,,,,,,,,,,,,,,,,,,,,,,,l,1,"[""0.043"",""0.781"",""0.536"",""0.822""]","[1,0,1,1]",0,6,6,6,1,1,1,,,1,FALSE,1.3007,,,,,,,,,,,,,,,,,,,,,,,,,,,,,,,
,61530de3eb980b5e9bf32015,627c758e6e59c87c2e5f30c8,2022-05-12_04h49.54.279,classification_task,2021.2.3,Win32,60.00960154,627c6715c52fd12f31907bd0,,,,,,,,,,,,,,,,,,,,,,,a,1,"[""0.243"",""0.481"",""0.781"",""0.972""]","[1,1,0,1]",0,7,7,7,1,0,1,,,1,FALSE,1.4041,,,,,,,,,,,,,,,,,,,,,,,,,,,,,,,
,61530de3eb980b5e9bf32015,627c758e6e59c87c2e5f30c8,2022-05-12_04h49.54.279,classification_task,2021.2.3,Win32,60.00960154,627c6715c52fd12f31907bd0,,,,,,,,,,,,,,,,,,,,,,,a,1,"[""0.243"",""0.584"",""0.934"",""0.972""]","[1,0,1,1]",0,8,8,8,1,0,1,,,1,FALSE,0.8536,,,,,,,,,,,,,,,,,,,,,,,,,,,,,,,
,61530de3eb980b5e9bf32015,627c758e6e59c87c2e5f30c8,2022-05-12_04h49.54.279,classification_task,2021.2.3,Win32,60.00960154,627c6715c52fd12f31907bd0,,,,,,,,,,,,,,,,,,,,,,,a,0,"[""0.666"",""0.360"",""0.617"",""0.734""]","[0,1,1,1]",0,9,9,9,1,1,0,,,1,FALSE,3.5338,,,,,,,,,,,,,,,,,,,,,,,,,,,,,,,
,61530de3eb980b5e9bf32015,627c758e6e59c87c2e5f30c8,2022-05-12_04h49.54.279,classification_task,2021.2.3,Win32,60.00960154,627c6715c52fd12f31907bd0,,,,,,,,,,,,,,,,,,,,,,,l,1,"[""0.043"",""0.399"",""0.536"",""0.309""]","[1,1,1,0]",0,10,10,10,1,1,1,,,1,FALSE,1.2262,,,,,,,,,,,,,,,,,,,,,,,,,,,,,,,
,61530de3eb980b5e9bf32015,627c758e6e59c87c2e5f30c8,2022-05-12_04h49.54.279,classification_task,2021.2.3,Win32,60.00960154,627c6715c52fd12f31907bd0,,,,,,,,,,,,,,,,,,,,,,,a,1,"[""0.172"",""0.309"",""0.865"",""0.900""]","[1,0,1,1]",0,11,11,11,1,0,0,,,1,FALSE,1.4325,,,,,,,,,,,,,,,,,,,,,,,,,,,,,,,
,61530de3eb980b5e9bf32015,627c758e6e59c87c2e5f30c8,2022-05-12_04h49.54.279,classification_task,2021.2.3,Win32,60.00960154,627c6715c52fd12f31907bd0,,,,,,,,,,,,,,,,,,,,,,,a,1,"[""0.172"",""0.433"",""0.865"",""0.787""]","[1,1,1,0]",0,12,12,12,1,0,0,,,1,FALSE,1.0501,,,,,,,,,,,,,,,,,,,,,,,,,,,,,,,
,61530de3eb980b5e9bf32015,627c758e6e59c87c2e5f30c8,2022-05-12_04h49.54.279,classification_task,2021.2.3,Win32,60.00960154,627c6715c52fd12f31907bd0,,,,,,,,,,,,,,,,,,,,,,,l,1,"[""0.043"",""0.399"",""0.307"",""0.822""]","[1,1,0,1]",0,13,13,13,1,1,1,,,1,FALSE,0.9539,,,,,,,,,,,,,,,,,,,,,,,,,,,,,,,
,61530de3eb980b5e9bf32015,627c758e6e59c87c2e5f30c8,2022-05-12_04h49.54.279,classification_task,2021.2.3,Win32,60.00960154,627c6715c52fd12f31907bd0,,,,,,,,,,,,,,,,,,,,,,,a,1,"[""0.295"",""0.481"",""0.934"",""0.972""]","[0,1,1,1]",0,14,14,14,1,0,1,,,1,FALSE,0.8505,,,,,,,,,,,,,,,,,,,,,,,,,,,,,,,
,61530de3eb980b5e9bf32015,627c758e6e59c87c2e5f30c8,2022-05-12_04h49.54.279,classification_task,2021.2.3,Win32,60.00960154,627c6715c52fd12f31907bd0,,,,,,,,,,,,,,,,,,,,,,,l,1,"[""0.114"",""0.687"",""0.617"",""0.734""]","[1,0,1,1]",0,15,15,15,1,1,0,,,1,FALSE,1.1539,,,,,,,,,,,,,,,,,,,,,,,,,,,,,,,
,61530de3eb980b5e9bf32015,627c758e6e59c87c2e5f30c8,2022-05-12_04h49.54.279,classification_task,2021.2.3,Win32,60.00960154,627c6715c52fd12f31907bd0,,,,,,,,,,,,,,,,,,,,,,,a,0,"[""0.043"",""0.399"",""0.666"",""0.822""]","[1,1,0,1]",0,16,16,16,1,1,1,,,1,FALSE,0.9343,,,,,,,,,,,,,,,,,,,,,,,,,,,,,,,
,61530de3eb980b5e9bf32015,627c758e6e59c87c2e5f30c8,2022-05-12_04h49.54.279,classification_task,2021.2.3,Win32,60.00960154,627c6715c52fd12f31907bd0,,,,,,,,,,,,,,,,,,,,,,,a,1,"[""0.172"",""0.687"",""0.865"",""0.900""]","[1,0,1,1]",0,17,17,17,1,0,0,,,1,FALSE,1.249,,,,,,,,,,,,,,,,,,,,,,,,,,,,,,,
,61530de3eb980b5e9bf32015,627c758e6e59c87c2e5f30c8,2022-05-12_04h49.54.279,classification_task,2021.2.3,Win32,60.00960154,627c6715c52fd12f31907bd0,,,,,,,,,,,,,,,,,,,,,,,a,1,"[""0.571"",""0.481"",""0.934"",""0.972""]","[0,1,1,1]",0,18,18,18,1,0,1,,,1,FALSE,1.0324,,,,,,,,,,,,,,,,,,,,,,,,,,,,,,,
,61530de3eb980b5e9bf32015,627c758e6e59c87c2e5f30c8,2022-05-12_04h49.54.279,classification_task,2021.2.3,Win32,60.00960154,627c6715c52fd12f31907bd0,,,,,,,,,,,,,,,,,,,,,,,a,1,"[""0.770"",""0.433"",""0.865"",""0.900""]","[0,1,1,1]",0,19,19,19,1,0,0,,,1,FALSE,1.7269,,,,,,,,,,,,,,,,,,,,,,,,,,,,,,,
,61530de3eb980b5e9bf32015,627c758e6e59c87c2e5f30c8,2022-05-12_04h49.54.279,classification_task,2021.2.3,Win32,60.00960154,627c6715c52fd12f31907bd0,,,,,,,,,,,,,,,,,,,,,,,l,1,"[""0.309"",""0.360"",""0.617"",""0.734""]","[0,1,1,1]",0,20,20,20,1,1,0,,,1,FALSE,1.8599,,,,,,,,,,,,,,,,,,,,,,,,,,,,,,,
,61530de3eb980b5e9bf32015,627c758e6e59c87c2e5f30c8,2022-05-12_04h49.54.279,classification_task,2021.2.3,Win32,60.00960154,627c6715c52fd12f31907bd0,,,,,,,,,,,,,,,,,,,,,,,a,1,"[""0.172"",""0.433"",""0.787"",""0.900""]","[1,1,0,1]",0,21,21,21,1,0,0,,,1,FALSE,3.5595,,,,,,,,,,,,,,,,,,,,,,,,,,,,,,,
,61530de3eb980b5e9bf32015,627c758e6e59c87c2e5f30c8,2022-05-12_04h49.54.279,classification_task,2021.2.3,Win32,60.00960154,627c6715c52fd12f31907bd0,,,,,,,,,,,,,,,,,,,,,,,l,1,"[""0.043"",""0.787"",""0.536"",""0.822""]","[1,0,1,1]",0,22,22,22,1,1,1,,,1,FALSE,1.3994,,,,,,,,,,,,,,,,,,,,,,,,,,,,,,,
,61530de3eb980b5e9bf32015,627c758e6e59c87c2e5f30c8,2022-05-12_04h49.54.279,classification_task,2021.2.3,Win32,60.00960154,627c6715c52fd12f31907bd0,,,,,,,,,,,,,,,,,,,,,,,l,1,"[""0.114"",""0.360"",""0.582"",""0.734""]","[1,1,0,1]",0,23,23,23,1,1,0,,,1,FALSE,1.3639,,,,,,,,,,,,,,,,,,,,,,,,,,,,,,,
,61530de3eb980b5e9bf32015,627c758e6e59c87c2e5f30c8,2022-05-12_04h49.54.279,classification_task,2021.2.3,Win32,60.00960154,627c6715c52fd12f31907bd0,,,,,,,,,,,,,,,,,,,,,,,a,1,"[""0.243"",""0.481"",""0.584"",""0.972""]","[1,1,0,1]",0,24,24,24,1,0,1,,,1,FALSE,1.3245,,,,,,,,,,,,,,,,,,,,,,,,,,,,,,,
,61530de3eb980b5e9bf32015,627c758e6e59c87c2e5f30c8,2022-05-12_04h49.54.279,classification_task,2021.2.3,Win32,60.00960154,627c6715c52fd12f31907bd0,,,,,,,,,,,,,,,,,,,,,,,a,1,"[""0.243"",""0.481"",""0.934"",""0.666""]","[1,1,1,0]",0,25,25,25,1,0,1,,,1,FALSE,1.1859,,,,,,,,,,,,,,,,,,,,,,,,,,,,,,,
,61530de3eb980b5e9bf32015,627c758e6e59c87c2e5f30c8,2022-05-12_04h49.54.279,classification_task,2021.2.3,Win32,60.00960154,627c6715c52fd12f31907bd0,,,,,,,,,,,,,,,,,,,,,,,l,1,"[""0.114"",""0.316"",""0.617"",""0.734""]","[1,0,1,1]",0,26,26,26,1,1,0,,,1,FALSE,1.1918,,,,,,,,,,,,,,,,,,,,,,,,,,,,,,,
,61530de3eb980b5e9bf32015,627c758e6e59c87c2e5f30c8,2022-05-12_04h49.54.279,classification_task,2021.2.3,Win32,60.00960154,627c6715c52fd12f31907bd0,,,,,,,,,,,,,,,,,,,,,,,a,1,"[""0.172"",""0.433"",""0.865"",""0.307""]","[1,1,1,0]",0,27,27,27,1,0,0,,,1,FALSE,2.4268,,,,,,,,,,,,,,,,,,,,,,,,,,,,,,,
,61530de3eb980b5e9bf32015,627c758e6e59c87c2e5f30c8,2022-05-12_04h49.54.279,classification_task,2021.2.3,Win32,60.00960154,627c6715c52fd12f31907bd0,,,,,,,,,,,,,,,,,,,,,,,a,1,"[""0.243"",""0.770"",""0.934"",""0.972""]","[1,0,1,1]",0,28,28,28,1,0,1,,,1,FALSE,1.4047,,,,,,,,,,,,,,,,,,,,,,,,,,,,,,,
,61530de3eb980b5e9bf32015,627c758e6e59c87c2e5f30c8,2022-05-12_04h49.54.279,classification_task,2021.2.3,Win32,60.00960154,627c6715c52fd12f31907bd0,,,,,,,,,,,,,,,,,,,,,,,l,1,"[""0.114"",""0.360"",""0.617"",""0.787""]","[1,1,1,0]",0,29,29,29,1,1,0,,,1,FALSE,1.1029,,,,,,,,,,,,,,,,,,,,,,,,,,,,,,,
,61530de3eb980b5e9bf32015,627c758e6e59c87c2e5f30c8,2022-05-12_04h49.54.279,classification_task,2021.2.3,Win32,60.00960154,627c6715c52fd12f31907bd0,,,,,,,,,,,,,,,,,,,,,,,l,1,"[""0.307"",""0.399"",""0.536"",""0.822""]","[0,1,1,1]",0,30,30,30,1,1,1,,,1,FALSE,1.7208,,,,,,,,,,,,,,,,,,,,,,,,,,,,,,,
,61530de3eb980b5e9bf32015,627c758e6e59c87c2e5f30c8,2022-05-12_04h49.54.279,classification_task,2021.2.3,Win32,60.00960154,627c6715c52fd12f31907bd0,,,,,,,,,,,,,,,,,,,,,,,l,1,"[""0.043"",""0.399"",""0.536"",""0.316""]","[1,1,1,0]",0,31,31,31,1,1,1,,,1,FALSE,1.26,,,,,,,,,,,,,,,,,,,,,,,,,,,,,,,
,61530de3eb980b5e9bf32015,627c758e6e59c87c2e5f30c8,2022-05-12_04h49.54.279,classification_task,2021.2.3,Win32,60.00960154,627c6715c52fd12f31907bd0,,,,,,,,,,,,,,,,,,,,,,,l,1,"[""0.114"",""0.360"",""0.617"",""0.307""]","[1,1,1,0]",0,32,32,32,1,1,0,,,1,FALSE,2.091,,,,,,,,,,,,,,,,,,,,,,,,,,,,,,,
,61530de3eb980b5e9bf32015,627c758e6e59c87c2e5f30c8,2022-05-12_04h49.54.279,classification_task,2021.2.3,Win32,60.00960154,627c6715c52fd12f31907bd0,,,,,,,,,,,,,,,,,,,,,,,a,1,"[""0.243"",""0.481"",""0.934"",""0.307""]","[1,1,1,0]",0,33,33,33,1,0,1,,,1,FALSE,1.4161,,,,,,,,,,,,,,,,,,,,,,,,,,,,,,,
,61530de3eb980b5e9bf32015,627c758e6e59c87c2e5f30c8,2022-05-12_04h49.54.279,classification_task,2021.2.3,Win32,60.00960154,627c6715c52fd12f31907bd0,,,,,,,,,,,,,,,,,,,,,,,l,1,"[""0.043"",""0.399"",""0.316"",""0.822""]","[1,1,0,1]",0,34,34,34,1,1,1,,,1,FALSE,1.2804,,,,,,,,,,,,,,,,,,,,,,,,,,,,,,,
,61530de3eb980b5e9bf32015,627c758e6e59c87c2e5f30c8,2022-05-12_04h49.54.279,classification_task,2021.2.3,Win32,60.00960154,627c6715c52fd12f31907bd0,,,,,,,,,,,,,,,,,,,,,,,l,0,"[""0.172"",""0.433"",""0.584"",""0.900""]","[1,1,0,1]",0,35,35,35,1,0,0,,,1,FALSE,1.0615,,,,,,,,,,,,,,,,,,,,,,,,,,,,,,,
,61530de3eb980b5e9bf32015,627c758e6e59c87c2e5f30c8,2022-05-12_04h49.54.279,classification_task,2021.2.3,Win32,60.00960154,627c6715c52fd12f31907bd0,,,,,,,,,,,,,,,,,,,,,,,a,1,"[""0.172"",""0.433"",""0.865"",""0.570""]","[1,1,1,0]",0,36,36,36,1,0,0,,,1,FALSE,0.9281,,,,,,,,,,,,,,,,,,,,,,,,,,,,,,,
,61530de3eb980b5e9bf32015,627c758e6e59c87c2e5f30c8,2022-05-12_04h49.54.279,classification_task,2021.2.3,Win32,60.00960154,627c6715c52fd12f31907bd0,,,,,,,,,,,,,,,,,,,,,,,a,1,"[""0.571"",""0.433"",""0.865"",""0.900""]","[0,1,1,1]",0,37,37,37,1,0,0,,,1,FALSE,0.9029,,,,,,,,,,,,,,,,,,,,,,,,,,,,,,,
,61530de3eb980b5e9bf32015,627c758e6e59c87c2e5f30c8,2022-05-12_04h49.54.279,classification_task,2021.2.3,Win32,60.00960154,627c6715c52fd12f31907bd0,,,,,,,,,,,,,,,,,,,,,,,a,1,"[""0.584"",""0.481"",""0.934"",""0.972""]","[0,1,1,1]",0,38,38,38,1,0,1,,,1,FALSE,0.9993,,,,,,,,,,,,,,,,,,,,,,,,,,,,,,,
,61530de3eb980b5e9bf32015,627c758e6e59c87c2e5f30c8,2022-05-12_04h49.54.279,classification_task,2021.2.3,Win32,60.00960154,627c6715c52fd12f31907bd0,,,,,,,,,,,,,,,,,,,,,,,l,1,"[""0.114"",""0.360"",""0.666"",""0.734""]","[1,1,0,1]",0,39,39,39,1,1,0,,,1,FALSE,1.2157,,,,,,,,,,,,,,,,,,,,,,,,,,,,,,,
,61530de3eb980b5e9bf32015,627c758e6e59c87c2e5f30c8,2022-05-12_04h49.54.279,classification_task,2021.2.3,Win32,60.00960154,627c6715c52fd12f31907bd0,,,,,,,,,,,,,,,,,,,,,,,l,1,"[""0.787"",""0.360"",""0.617"",""0.734""]","[0,1,1,1]",0,40,40,40,1,1,0,,,1,FALSE,2.4154,,,,,,,,,,,,,,,,,,,,,,,,,,,,,,,
,61530de3eb980b5e9bf32015,627c758e6e59c87c2e5f30c8,2022-05-12_04h49.54.279,classification_task,2021.2.3,Win32,60.00960154,627c6715c52fd12f31907bd0,,,,,,,,,,,,,,,,,,,,,,,l,1,"[""0.114"",""0.781"",""0.617"",""0.734""]","[1,0,1,1]",0,41,41,41,1,1,0,,,1,FALSE,1.149,,,,,,,,,,,,,,,,,,,,,,,,,,,,,,,
,61530de3eb980b5e9bf32015,627c758e6e59c87c2e5f30c8,2022-05-12_04h49.54.279,classification_task,2021.2.3,Win32,60.00960154,627c6715c52fd12f31907bd0,,,,,,,,,,,,,,,,,,,,,,,l,1,"[""0.571"",""0.399"",""0.536"",""0.822""]","[0,1,1,1]",0,42,42,42,1,1,1,,,1,FALSE,1.8558,,,,,,,,,,,,,,,,,,,,,,,,,,,,,,,
,61530de3eb980b5e9bf32015,627c758e6e59c87c2e5f30c8,2022-05-12_04h49.54.279,classification_task,2021.2.3,Win32,60.00960154,627c6715c52fd12f31907bd0,,,,,,,,,,,,,,,,,,,,,,,a,1,"[""0.243"",""0.787"",""0.934"",""0.972""]","[1,0,1,1]",0,43,43,43,1,0,1,,,1,FALSE,1.5139,,,,,,,,,,,,,,,,,,,,,,,,,,,,,,,
,61530de3eb980b5e9bf32015,627c758e6e59c87c2e5f30c8,2022-05-12_04h49.54.279,classification_task,2021.2.3,Win32,60.00960154,627c6715c52fd12f31907bd0,,,,,,,,,,,,,,,,,,,,,,,a,1,"[""0.243"",""0.481"",""0.316"",""0.972""]","[1,1,0,1]",0,44,44,44,1,0,1,,,1,FALSE,1.1127,,,,,,,,,,,,,,,,,,,,,,,,,,,,,,,
,61530de3eb980b5e9bf32015,627c758e6e59c87c2e5f30c8,2022-05-12_04h49.54.279,classification_task,2021.2.3,Win32,60.00960154,627c6715c52fd12f31907bd0,,,,,,,,,,,,,,,,,,,,,,,a,1,"[""0.172"",""0.307"",""0.865"",""0.900""]","[1,0,1,1]",0,45,45,45,1,0,0,,,1,FALSE,0.9551,,,,,,,,,,,,,,,,,,,,,,,,,,,,,,,
,61530de3eb980b5e9bf32015,627c758e6e59c87c2e5f30c8,2022-05-12_04h49.54.279,classification_task,2021.2.3,Win32,60.00960154,627c6715c52fd12f31907bd0,,,,,,,,,,,,,,,,,,,,,,,l,1,"[""0.043"",""0.309"",""0.536"",""0.822""]","[1,0,1,1]",0,46,46,46,1,1,1,,,1,FALSE,1.0076,,,,,,,,,,,,,,,,,,,,,,,,,,,,,,,
,61530de3eb980b5e9bf32015,627c758e6e59c87c2e5f30c8,2022-05-12_04h49.54.279,classification_task,2021.2.3,Win32,60.00960154,627c6715c52fd12f31907bd0,,,,,,,,,,,,,,,,,,,,,,,l,1,"[""0.043"",""0.399"",""0.536"",""0.665""]","[1,1,1,0]",0,47,47,47,1,1,1,,,1,FALSE,1.2562,,,,,,,,,,,,,,,,,,,,,,,,,,,,,,,
,61530de3eb980b5e9bf32015,627c758e6e59c87c2e5f30c8,2022-05-12_04h49.54.279,classification_task,2021.2.3,Win32,60.00960154,627c6715c52fd12f31907bd0,,,,,,,,,,,,,,,,,,,,,,,a,1,"[""0.172"",""0.666"",""0.865"",""0.900""]","[1,0,1,1]",0,48,48,48,1,0,0,,,1,FALSE,1.0116,,,,,,,,,,,,,,,,,,,,,,,,,,,,,,,
,61530de3eb980b5e9bf32015,627c758e6e59c87c2e5f30c8,2022-05-12_04h49.54.279,classification_task,2021.2.3,Win32,60.00960154,627c6715c52fd12f31907bd0,,,,,,,,,,,,,,,,,,,,,,,l,1,"[""0.781"",""0.360"",""0.617"",""0.734""]","[0,1,1,1]",0,49,49,49,1,1,0,,,1,FALSE,1.7613,,,,,,,,,,,,,,,,,,,,,,,,,,,,,,,
,61530de3eb980b5e9bf32015,627c758e6e59c87c2e5f30c8,2022-05-12_04h49.54.279,classification_task,2021.2.3,Win32,60.00960154,627c6715c52fd12f31907bd0,,,,,,,,,,,,,,,,,,,,,,,l,1,"[""0.571"",""0.399"",""0.536"",""0.822""]","[0,1,1,1]",0,50,50,50,1,1,1,,,1,FALSE,1.8357,,,,,,,,,,,,,,,,,,,,,,,,,,,,,,,
,61530de3eb980b5e9bf32015,627c758e6e59c87c2e5f30c8,2022-05-12_04h49.54.279,classification_task,2021.2.3,Win32,60.00960154,627c6715c52fd12f31907bd0,,,,,,,,,,,,,,,,,,,,,,,l,1,"[""0.114"",""0.360"",""0.781"",""0.734""]","[1,1,0,1]",0,51,51,51,1,1,0,,,1,FALSE,1.2396,,,,,,,,,,,,,,,,,,,,,,,,,,,,,,,
,61530de3eb980b5e9bf32015,627c758e6e59c87c2e5f30c8,2022-05-12_04h49.54.279,classification_task,2021.2.3,Win32,60.00960154,627c6715c52fd12f31907bd0,,,,,,,,,,,,,,,,,,,,,,,l,1,"[""0.114"",""0.360"",""0.617"",""0.584""]","[1,1,1,0]",0,52,52,52,1,1,0,,,1,FALSE,0.859,,,,,,,,,,,,,,,,,,,,,,,,,,,,,,,
,61530de3eb980b5e9bf32015,627c758e6e59c87c2e5f30c8,2022-05-12_04h49.54.279,classification_task,2021.2.3,Win32,60.00960154,627c6715c52fd12f31907bd0,,,,,,,,,,,,,,,,,,,,,,,l,1,"[""0.043"",""0.584"",""0.536"",""0.822""]","[1,0,1,1]",0,53,53,53,1,1,1,,,1,FALSE,1.1129,,,,,,,,,,,,,,,,,,,,,,,,,,,,,,,
,61530de3eb980b5e9bf32015,627c758e6e59c87c2e5f30c8,2022-05-12_04h49.54.279,classification_task,2021.2.3,Win32,60.00960154,627c6715c52fd12f31907bd0,,,,,,,,,,,,,,,,,,,,,,,l,1,"[""0.043"",""0.399"",""0.536"",""0.309""]","[1,1,1,0]",0,54,54,54,1,1,1,,,1,FALSE,1.6178,,,,,,,,,,,,,,,,,,,,,,,,,,,,,,,
,61530de3eb980b5e9bf32015,627c758e6e59c87c2e5f30c8,2022-05-12_04h49.54.279,classification_task,2021.2.3,Win32,60.00960154,627c6715c52fd12f31907bd0,,,,,,,,,,,,,,,,,,,,,,,l,1,"[""0.114"",""0.570"",""0.617"",""0.734""]","[1,0,1,1]",0,55,55,55,1,1,0,,,1,FALSE,1.0705,,,,,,,,,,,,,,,,,,,,,,,,,,,,,,,
,61530de3eb980b5e9bf32015,627c758e6e59c87c2e5f30c8,2022-05-12_04h49.54.279,classification_task,2021.2.3,Win32,60.00960154,627c6715c52fd12f31907bd0,,,,,,,,,,,,,,,,,,,,,,,a,1,"[""0.172"",""0.433"",""0.865"",""0.781""]","[1,1,1,0]",0,56,56,56,1,0,0,,,1,FALSE,1.4621,,,,,,,,,,,,,,,,,,,,,,,,,,,,,,,
,61530de3eb980b5e9bf32015,627c758e6e59c87c2e5f30c8,2022-05-12_04h49.54.279,classification_task,2021.2.3,Win32,60.00960154,627c6715c52fd12f31907bd0,,,,,,,,,,,,,,,,,,,,,,,a,1,"[""0.243"",""0.481"",""0.934"",""0.787""]","[1,1,1,0]",0,57,57,57,1,0,1,,,1,FALSE,1.3375,,,,,,,,,,,,,,,,,,,,,,,,,,,,,,,
,61530de3eb980b5e9bf32015,627c758e6e59c87c2e5f30c8,2022-05-12_04h49.54.279,classification_task,2021.2.3,Win32,60.00960154,627c6715c52fd12f31907bd0,,,,,,,,,,,,,,,,,,,,,,,a,1,"[""0.172"",""0.433"",""0.687"",""0.900""]","[1,1,0,1]",0,58,58,58,1,0,0,,,1,FALSE,1.2555,,,,,,,,,,,,,,,,,,,,,,,,,,,,,,,
,61530de3eb980b5e9bf32015,627c758e6e59c87c2e5f30c8,2022-05-12_04h49.54.279,classification_task,2021.2.3,Win32,60.00960154,627c6715c52fd12f31907bd0,,,,,,,,,,,,,,,,,,,,,,,a,1,"[""0.295"",""0.433"",""0.865"",""0.900""]","[0,1,1,1]",0,59,59,59,1,0,0,,,1,FALSE,1.1437,,,,,,,,,,,,,,,,,,,,,,,,,,,,,,,
,61530de3eb980b5e9bf32015,627c758e6e59c87c2e5f30c8,2022-05-12_04h49.54.279,classification_task,2021.2.3,Win32,60.00960154,627c6715c52fd12f31907bd0,,,,,,,,,,,,,,,,,,,,,,,l,1,"[""0.043"",""0.399"",""0.316"",""0.822""]","[1,1,0,1]",0,60,60,60,1,1,1,,,1,FALSE,1.1405,,,,,,,,,,,,,,,,,,,,,,,,,,,,,,,
,61530de3eb980b5e9bf32015,627c758e6e59c87c2e5f30c8,2022-05-12_04h49.54.279,classification_task,2021.2.3,Win32,60.00960154,627c6715c52fd12f31907bd0,,,,,,,,,,,,,,,,,,,,,,,a,1,"[""0.243"",""0.481"",""0.316"",""0.972""]","[1,1,0,1]",0,61,61,61,1,0,1,,,1,FALSE,1.0919,,,,,,,,,,,,,,,,,,,,,,,,,,,,,,,
,61530de3eb980b5e9bf32015,627c758e6e59c87c2e5f30c8,2022-05-12_04h49.54.279,classification_task,2021.2.3,Win32,60.00960154,627c6715c52fd12f31907bd0,,,,,,,,,,,,,,,,,,,,,,,a,1,"[""0.243"",""0.787"",""0.934"",""0.972""]","[1,0,1,1]",0,62,62,62,1,0,1,,,1,FALSE,0.8838,,,,,,,,,,,,,,,,,,,,,,,,,,,,,,,
,61530de3eb980b5e9bf32015,627c758e6e59c87c2e5f30c8,2022-05-12_04h49.54.279,classification_task,2021.2.3,Win32,60.00960154,627c6715c52fd12f31907bd0,,,,,,,,,,,,,,,,,,,,,,,a,1,"[""0.295"",""0.481"",""0.934"",""0.972""]","[0,1,1,1]",0,63,63,63,1,0,1,,,1,FALSE,0.8887,,,,,,,,,,,,,,,,,,,,,,,,,,,,,,,
,61530de3eb980b5e9bf32015,627c758e6e59c87c2e5f30c8,2022-05-12_04h49.54.279,classification_task,2021.2.3,Win32,60.00960154,627c6715c52fd12f31907bd0,,,,,,,,,,,,,,,,,,,,,,,,,,,,,,,,,,,,,,,0, ,,0,7.721285273,175.9565,0,2,2,2,1,2,3,,,,,,,,,,,,,,,,,,
,61530de3eb980b5e9bf32015,627c758e6e59c87c2e5f30c8,2022-05-12_04h49.54.279,classification_task,2021.2.3,Win32,60.00960154,627c6715c52fd12f31907bd0,,,,,,,,,,,,,,,,,,,,,,,,,,,,,,,,,,,,,,,1,  ,,0,9.168044533,180.4449,0,2,2,2,1,2,3,,,,,,,,,,,,,,,,,,
,61530de3eb980b5e9bf32015,627c758e6e59c87c2e5f30c8,2022-05-12_04h49.54.279,classification_task,2021.2.3,Win32,60.00960154,627c6715c52fd12f31907bd0,,,,,,,,,,,,,,,,,,,,,,,,,,,,,,,,,,,,,,,2,  ,,0,0.280809083,183.1019,0,2,2,2,1,2,3,,,,,,,,,,,,,,,,,,
,61530de3eb980b5e9bf32015,627c758e6e59c87c2e5f30c8,2022-05-12_04h49.54.279,classification_task,2021.2.3,Win32,60.00960154,627c6715c52fd12f31907bd0,,,,,,,,,,,,,,,,,,,,,,,,,,,,,,,,,,,,,,,,,,,,,0,2,2,2,1,,3,,,,,,,,,,,,,,,,,,
,61530de3eb980b5e9bf32015,627c758e6e59c87c2e5f30c8,2022-05-12_04h49.54.279,classification_task,2021.2.3,Win32,60.00960154,627c6715c52fd12f31907bd0,,,,,,,,,,,,,,,,,,,,,,,,,,,,,,,,,,,,,,,,,,,,,,,,,,,,,I believe the aid is a competent performer,,0.7,0,4,1422.8235,0,0,0,0,1,0,,,,,
,61530de3eb980b5e9bf32015,627c758e6e59c87c2e5f30c8,2022-05-12_04h49.54.279,classification_task,2021.2.3,Win32,60.00960154,627c6715c52fd12f31907bd0,,,,,,,,,,,,,,,,,,,,,,,,,,,,,,,,,,,,,,,,,,,,,,,,,,,,,I trust the aid,,0.7,0,4,1424.4066,0,0,0,0,1,0,,,,,
,61530de3eb980b5e9bf32015,627c758e6e59c87c2e5f30c8,2022-05-12_04h49.54.279,classification_task,2021.2.3,Win32,60.00960154,627c6715c52fd12f31907bd0,,,,,,,,,,,,,,,,,,,,,,,,,,,,,,,,,,,,,,,,,,,,,,,,,,,,,I have confidence in the advice given by the aid,,0.7,0,4,1429.5872,0,0,0,0,1,0,,,,,
,61530de3eb980b5e9bf32015,627c758e6e59c87c2e5f30c8,2022-05-12_04h49.54.279,classification_task,2021.2.3,Win32,60.00960154,627c6715c52fd12f31907bd0,,,,,,,,,,,,,,,,,,,,,,,,,,,,,,,,,,,,,,,,,,,,,,,,,,,,,I can depend on the aid,,0.7,0,4,1432.2225,0,0,0,0,1,0,,,,,
,61530de3eb980b5e9bf32015,627c758e6e59c87c2e5f30c8,2022-05-12_04h49.54.279,classification_task,2021.2.3,Win32,60.00960154,627c6715c52fd12f31907bd0,,,,,,,,,,,,,,,,,,,,,,,,,,,,,,,,,,,,,,,,,,,,,,,,,,,,,I can rely on the aid to behave in consistent ways,,0.7,0,4,1438.1111,0,0,0,0,1,0,,,,,
,61530de3eb980b5e9bf32015,627c758e6e59c87c2e5f30c8,2022-05-12_04h49.54.279,classification_task,2021.2.3,Win32,60.00960154,627c6715c52fd12f31907bd0,,,,,,,,,,,,,,,,,,,,,,,,,,,,,,,,,,,,,,,,,,,,,,,,,,,,,I can rely on the aid to do its best every time I take its advice,,0.7,0,4,1499.9147,0,0,0,0,1,0,,,,,
,61530de3eb980b5e9bf32015,627c758e6e59c87c2e5f30c8,2022-05-12_04h49.54.279,classification_task,2021.2.3,Win32,60.00960154,627c6715c52fd12f31907bd0,,,,,,,,,,,,,,,,,,,,,,,,,,,,,,,,,,,,,,,,,,,,,,,,,,,,,"On trials you completed with assistance from the aid, how frequently did you think the aid was correct?",,0.7,0,90%,,0,0,0,0,1,0,,,,,
,61530de3eb980b5e9bf32015,627c758e6e59c87c2e5f30c8,2022-05-12_04h49.54.279,classification_task,2021.2.3,Win32,60.00960154,627c6715c52fd12f31907bd0,,,,,,,,,,,,,,,,,,,,,,,,,,,,,,,,,,,,,,,,,,,,,,,,,,,,,"On trials you completed without the aid, how frequently did you think you were correct?",,0.7,0,80%,,0,0,0,0,1,0,,,,,
,61530de3eb980b5e9bf32015,627c758e6e59c87c2e5f30c8,2022-05-12_04h49.54.279,classification_task,2021.2.3,Win32,60.00960154,627c6715c52fd12f31907bd0,,,,,,,,,,,,,,,,,,,,,,,,,,,,,,,,,,,,,,,,,,,,,,,,,,,,,,,,,,,0,0,0,0,1,,,,,,
,61530de3eb980b5e9bf32015,627c758e6e59c87c2e5f30c8,2022-05-12_04h49.54.279,classification_task,2021.2.3,Win32,60.00960154,627c6715c52fd12f31907bd0,,,,,,,,,,,,,,,,,,,,,,,,,,,,,,,,,,,,,,,,,,,,,,,,,,,,,,,,,,,,,,,,,space,20.7307,1524.5888,,
,61530de3eb980b5e9bf32015,627c758e6e59c87c2e5f30c8,2022-05-12_04h49.54.279,classification_task,2021.2.3,Win32,60.00960154,627c6715c52fd12f31907bd0,,,,,,,,,,,,,,,,,,,,,,,,,,,,,,,,,,,,,,,,,,,,,,,,,,,,,,,,,,,,,,,,,,,,"Mozilla/5.0 (Windows NT 10.0; Win64; x64) AppleWebKit/537.36 (KHTML, like Gecko) Chrome/101.0.4951.54 Safari/537.36",
,61530de3eb980b5e9bf32015,627c758e6e59c87c2e5f30c8,2022-05-12_04h49.54.279,classification_task,2021.2.3,Win32,60.00960154,627c6715c52fd12f31907bd0,,,,,,,,,,,,,,,,,,,,,,,,,,,,,,,,,,,,,,,,,,,,,,,,,,,,,,,,,,,,,,,,,,,,,LOWLIGHT
