usingWebGL,participant,session,date,expName,psychopyVersion,OS,frameRate,study_id,signatures_friend,signatures_foe,band_ranges_top,band_ranges_bottom,formitemText,formtype,formundefined,formitemWidth,formindex,formresponse,formrt,key_resp_2.keys,key_resp_2.rt,tute_resp.keys,tute_resp.rt,tutorial.thisRepN,tutorial.thisTrialN,tutorial.thisN,tutorial.thisIndex,tutorial.ran,key_resp_4.keys,key_resp_4.rt,key_resp.keys,key_resp.corr,key_resp.rt,lines_presented,is_signal_presented,trials.thisRepN,trials.thisTrialN,trials.thisN,trials.thisIndex,trials.ran,vessel,active_band,lines,is_signal,supported_pos,catch_trial,debrief_formindex,debrief_formitemText,debrief_formtype,debrief_formitemWidth,debrief_formresponse,debrief_formrt,phases.thisRepN,phases.thisTrialN,phases.thisN,phases.thisIndex,phases.ran,phases.order,phase,key_resp_3.keys,trustitemText,trusttype,trustitemWidth,trustindex,trustresponse,trustrt,support_status.thisRepN,support_status.thisTrialN,support_status.thisN,support_status.thisIndex,support_status.ran,support_status.order,key_resp_5.keys,key_resp_5.rt,globalClockTime,userAgent,manualCondition
TRUE,61533302fdfe81f8a0ebe0c0,627c6fa0466067882ffca345,2022-05-12_04h23.59.521,classification_task,2021.2.3,Win32,60.16485169,627c6715c52fd12f31907bd0,,,,,,,,,,,,,,,,,,,,,,,,,,,,,,,,,,,,,,,,,,,,,,,,,,,,,,,,,,,,,,,,,,,,,
,61533302fdfe81f8a0ebe0c0,627c6fa0466067882ffca345,2022-05-12_04h23.59.521,classification_task,2021.2.3,Win32,60.16485169,627c6715c52fd12f31907bd0,"[[""0.240"",""0.429"",""0.602"",""0.916""],[""0.158"",""0.500"",""0.837"",""0.954""]]","[[""0.070"",""0.274"",""0.665"",""0.732""],[""0.109"",""0.372"",""0.553"",""0.783""]]","[1,10]","[100,1000]",Video game experience,,,0.7,0,,,,,,,,,,,,,,,,,,,,,,,,,,,,,,,,,,,,,,,,,,,,,,,,,,,,,,,,,,,,
,61533302fdfe81f8a0ebe0c0,627c6fa0466067882ffca345,2022-05-12_04h23.59.521,classification_task,2021.2.3,Win32,60.16485169,627c6715c52fd12f31907bd0,,,,,Approximately how many hours did you spend playing video games in the last week?,,,0.7,0,2 hours,,,,,,,,,,,,,,,,,,,,,,,,,,,,,,,,,,,,,,,,,,,,,,,,,,,,,,,,,,,
,61533302fdfe81f8a0ebe0c0,627c6fa0466067882ffca345,2022-05-12_04h23.59.521,classification_task,2021.2.3,Win32,60.16485169,627c6715c52fd12f31907bd0,,,,,"Which game did you play the most this year? (Enter ""None"" if you didn't play any)",,,0.7,0,Grand Theft Auto,,,,,,,,,,,,,,,,,,,,,,,,,,,,,,,,,,,,,,,,,,,,,,,,,,,,,,,,,,,
,61533302fdfe81f8a0ebe0c0,627c6fa0466067882ffca345,2022-05-12_04h23.59.521,classification_task,2021.2.3,Win32,60.16485169,627c6715c52fd12f31907bd0,,,,,Visual perception,,,0.7,0,,,,,,,,,,,,,,,,,,,,,,,,,,,,,,,,,,,,,,,,,,,,,,,,,,,,,,,,,,,,
,61533302fdfe81f8a0ebe0c0,627c6fa0466067882ffca345,2022-05-12_04h23.59.521,classification_task,2021.2.3,Win32,60.16485169,627c6715c52fd12f31907bd0,,,,,Do you have any form of color blindness?,,,0.7,0,No,38.8332,,,,,,,,,,,,,,,,,,,,,,,,,,,,,,,,,,,,,,,,,,,,,,,,,,,,,,,,,,
,61533302fdfe81f8a0ebe0c0,627c6fa0466067882ffca345,2022-05-12_04h23.59.521,classification_task,2021.2.3,Win32,60.16485169,627c6715c52fd12f31907bd0,,,,,Do you use software to change the colour temperature of your screen (e.g. f.lux)?,,,0.7,0,No,44.2297,,,,,,,,,,,,,,,,,,,,,,,,,,,,,,,,,,,,,,,,,,,,,,,,,,,,,,,,,,
,61533302fdfe81f8a0ebe0c0,627c6fa0466067882ffca345,2022-05-12_04h23.59.521,classification_task,2021.2.3,Win32,60.16485169,627c6715c52fd12f31907bd0,,,,,,,,,,,,space,40.1516,space,17.2053,0,0,0,0,1,,,,,,,,,,,,,,,,,,,,,,,,,,,,,,,,,,,,,,,,,,,,,,,,,
,61533302fdfe81f8a0ebe0c0,627c6fa0466067882ffca345,2022-05-12_04h23.59.521,classification_task,2021.2.3,Win32,60.16485169,627c6715c52fd12f31907bd0,,,,,,,,,,,,,,space,32.4234,1,0,1,0,1,,,,,,,,,,,,,,,,,,,,,,,,,,,,,,,,,,,,,,,,,,,,,,,,,
,61533302fdfe81f8a0ebe0c0,627c6fa0466067882ffca345,2022-05-12_04h23.59.521,classification_task,2021.2.3,Win32,60.16485169,627c6715c52fd12f31907bd0,,,,,,,,,,,,,,space,53.9203,2,0,2,0,1,,,,,,,,,,,,,,,,,,,,,,,,,,,,,,,,,,,,,,,,,,,,,,,,,
,61533302fdfe81f8a0ebe0c0,627c6fa0466067882ffca345,2022-05-12_04h23.59.521,classification_task,2021.2.3,Win32,60.16485169,627c6715c52fd12f31907bd0,,,,,,,,,,,,,,space,44.7444,3,0,3,0,1,,,,,,,,,,,,,,,,,,,,,,,,,,,,,,,,,,,,,,,,,,,,,,,,,
,61533302fdfe81f8a0ebe0c0,627c6fa0466067882ffca345,2022-05-12_04h23.59.521,classification_task,2021.2.3,Win32,60.16485169,627c6715c52fd12f31907bd0,,,,,,,,,,,,,,space,15.8634,4,0,4,0,1,,,,,,,,,,,,,,,,,,,,,,,,,,,,,,,,,,,,,,,,,,,,,,,,,
,61533302fdfe81f8a0ebe0c0,627c6fa0466067882ffca345,2022-05-12_04h23.59.521,classification_task,2021.2.3,Win32,60.16485169,627c6715c52fd12f31907bd0,,,,,,,,,,,,,,,,,,,,,space,21.9089,l,1,7.8412,"[""0.070"",""0.274"",""0.665"",""0.029""]","[1,1,1,0]",0,0,0,0,1,1,0,,,0,FALSE,,,,,,,,,,,,,,,,,,,,,,,,,,,,,,,
,61533302fdfe81f8a0ebe0c0,627c6fa0466067882ffca345,2022-05-12_04h23.59.521,classification_task,2021.2.3,Win32,60.16485169,627c6715c52fd12f31907bd0,,,,,,,,,,,,,,,,,,,,,,,l,1,9.8719,"[""0.030"",""0.274"",""0.665"",""0.732""]","[0,1,1,1]",0,1,1,1,1,1,0,,,0,FALSE,,,,,,,,,,,,,,,,,,,,,,,,,,,,,,,
,61533302fdfe81f8a0ebe0c0,627c6fa0466067882ffca345,2022-05-12_04h23.59.521,classification_task,2021.2.3,Win32,60.16485169,627c6715c52fd12f31907bd0,,,,,,,,,,,,,,,,,,,,,,,a,0,7.437,"[""0.109"",""0.372"",""0.465"",""0.783""]","[1,1,0,1]",0,2,2,2,1,1,1,,,0,FALSE,,,,,,,,,,,,,,,,,,,,,,,,,,,,,,,
,61533302fdfe81f8a0ebe0c0,627c6fa0466067882ffca345,2022-05-12_04h23.59.521,classification_task,2021.2.3,Win32,60.16485169,627c6715c52fd12f31907bd0,,,,,,,,,,,,,,,,,,,,,,,,0,,"[""0.240"",""0.034"",""0.602"",""0.916""]","[1,0,1,1]",0,3,3,3,1,0,0,,,0,FALSE,,,,,,,,,,,,,,,,,,,,,,,,,,,,,,,
,61533302fdfe81f8a0ebe0c0,627c6fa0466067882ffca345,2022-05-12_04h23.59.521,classification_task,2021.2.3,Win32,60.16485169,627c6715c52fd12f31907bd0,,,,,,,,,,,,,,,,,,,,,,,l,1,4.8131,"[""0.335"",""0.372"",""0.553"",""0.783""]","[0,1,1,1]",0,4,4,4,1,1,1,,,0,FALSE,,,,,,,,,,,,,,,,,,,,,,,,,,,,,,,
,61533302fdfe81f8a0ebe0c0,627c6fa0466067882ffca345,2022-05-12_04h23.59.521,classification_task,2021.2.3,Win32,60.16485169,627c6715c52fd12f31907bd0,,,,,,,,,,,,,,,,,,,,,,,a,1,5.667,"[""0.240"",""0.429"",""0.329"",""0.916""]","[1,1,0,1]",0,5,5,5,1,0,0,,,0,FALSE,,,,,,,,,,,,,,,,,,,,,,,,,,,,,,,
,61533302fdfe81f8a0ebe0c0,627c6fa0466067882ffca345,2022-05-12_04h23.59.521,classification_task,2021.2.3,Win32,60.16485169,627c6715c52fd12f31907bd0,,,,,,,,,,,,,,,,,,,,,,,a,1,4.1518,"[""0.465"",""0.429"",""0.602"",""0.916""]","[0,1,1,1]",0,6,6,6,1,0,0,,,0,FALSE,,,,,,,,,,,,,,,,,,,,,,,,,,,,,,,
,61533302fdfe81f8a0ebe0c0,627c6fa0466067882ffca345,2022-05-12_04h23.59.521,classification_task,2021.2.3,Win32,60.16485169,627c6715c52fd12f31907bd0,,,,,,,,,,,,,,,,,,,,,,,l,1,4.2344,"[""0.070"",""0.330"",""0.665"",""0.732""]","[1,0,1,1]",0,7,7,7,1,1,0,,,0,FALSE,,,,,,,,,,,,,,,,,,,,,,,,,,,,,,,
,61533302fdfe81f8a0ebe0c0,627c6fa0466067882ffca345,2022-05-12_04h23.59.521,classification_task,2021.2.3,Win32,60.16485169,627c6715c52fd12f31907bd0,,,,,,,,,,,,,,,,,,,,,,,l,1,6.8912,"[""0.109"",""0.335"",""0.553"",""0.783""]","[1,0,1,1]",0,8,8,8,1,1,1,,,0,FALSE,,,,,,,,,,,,,,,,,,,,,,,,,,,,,,,
,61533302fdfe81f8a0ebe0c0,627c6fa0466067882ffca345,2022-05-12_04h23.59.521,classification_task,2021.2.3,Win32,60.16485169,627c6715c52fd12f31907bd0,,,,,,,,,,,,,,,,,,,,,,,a,1,5.1417,"[""0.466"",""0.500"",""0.837"",""0.954""]","[0,1,1,1]",0,9,9,9,1,0,1,,,0,FALSE,,,,,,,,,,,,,,,,,,,,,,,,,,,,,,,
,61533302fdfe81f8a0ebe0c0,627c6fa0466067882ffca345,2022-05-12_04h23.59.521,classification_task,2021.2.3,Win32,60.16485169,627c6715c52fd12f31907bd0,,,,,,,,,,,,,,,,,,,,,,,a,1,3.2674,"[""0.158"",""0.873"",""0.837"",""0.954""]","[1,0,1,1]",0,10,10,10,1,0,1,,,0,FALSE,,,,,,,,,,,,,,,,,,,,,,,,,,,,,,,
,61533302fdfe81f8a0ebe0c0,627c6fa0466067882ffca345,2022-05-12_04h23.59.521,classification_task,2021.2.3,Win32,60.16485169,627c6715c52fd12f31907bd0,,,,,,,,,,,,,,,,,,,,,,,l,1,4.9221,"[""0.109"",""0.372"",""0.553"",""0.873""]","[1,1,1,0]",0,11,11,11,1,1,1,,,0,FALSE,,,,,,,,,,,,,,,,,,,,,,,,,,,,,,,
,61533302fdfe81f8a0ebe0c0,627c6fa0466067882ffca345,2022-05-12_04h23.59.521,classification_task,2021.2.3,Win32,60.16485169,627c6715c52fd12f31907bd0,,,,,,,,,,,,,,,,,,,,,,,a,0,4.5328,"[""0.070"",""0.274"",""0.873"",""0.732""]","[1,1,0,1]",0,12,12,12,1,1,0,,,0,FALSE,,,,,,,,,,,,,,,,,,,,,,,,,,,,,,,
,61533302fdfe81f8a0ebe0c0,627c6fa0466067882ffca345,2022-05-12_04h23.59.521,classification_task,2021.2.3,Win32,60.16485169,627c6715c52fd12f31907bd0,,,,,,,,,,,,,,,,,,,,,,,a,1,3.4909,"[""0.158"",""0.500"",""0.192"",""0.954""]","[1,1,0,1]",0,13,13,13,1,0,1,,,0,FALSE,,,,,,,,,,,,,,,,,,,,,,,,,,,,,,,
,61533302fdfe81f8a0ebe0c0,627c6fa0466067882ffca345,2022-05-12_04h23.59.521,classification_task,2021.2.3,Win32,60.16485169,627c6715c52fd12f31907bd0,,,,,,,,,,,,,,,,,,,,,,,a,1,4.3573,"[""0.158"",""0.500"",""0.837"",""0.465""]","[1,1,1,0]",0,14,14,14,1,0,1,,,0,FALSE,,,,,,,,,,,,,,,,,,,,,,,,,,,,,,,
,61533302fdfe81f8a0ebe0c0,627c6fa0466067882ffca345,2022-05-12_04h23.59.521,classification_task,2021.2.3,Win32,60.16485169,627c6715c52fd12f31907bd0,,,,,,,,,,,,,,,,,,,,,,,a,1,2.4517,"[""0.240"",""0.429"",""0.602"",""0.330""]","[1,1,1,0]",0,15,15,15,1,0,0,,,0,FALSE,,,,,,,,,,,,,,,,,,,,,,,,,,,,,,,
,61533302fdfe81f8a0ebe0c0,627c6fa0466067882ffca345,2022-05-12_04h23.59.521,classification_task,2021.2.3,Win32,60.16485169,627c6715c52fd12f31907bd0,,,,,,,,,,,,,,,,,,,,,,,a,1,9.5229,"[""0.324"",""0.500"",""0.837"",""0.954""]","[0,1,1,1]",0,16,16,16,1,0,1,,,0,FALSE,,,,,,,,,,,,,,,,,,,,,,,,,,,,,,,
,61533302fdfe81f8a0ebe0c0,627c6fa0466067882ffca345,2022-05-12_04h23.59.521,classification_task,2021.2.3,Win32,60.16485169,627c6715c52fd12f31907bd0,,,,,,,,,,,,,,,,,,,,,,,l,1,4.7286,"[""0.330"",""0.274"",""0.665"",""0.732""]","[0,1,1,1]",0,17,17,17,1,1,0,,,0,FALSE,,,,,,,,,,,,,,,,,,,,,,,,,,,,,,,
,61533302fdfe81f8a0ebe0c0,627c6fa0466067882ffca345,2022-05-12_04h23.59.521,classification_task,2021.2.3,Win32,60.16485169,627c6715c52fd12f31907bd0,,,,,,,,,,,,,,,,,,,,,,,l,1,3.3449,"[""0.335"",""0.372"",""0.553"",""0.783""]","[0,1,1,1]",0,18,18,18,1,1,1,,,0,FALSE,,,,,,,,,,,,,,,,,,,,,,,,,,,,,,,
,61533302fdfe81f8a0ebe0c0,627c6fa0466067882ffca345,2022-05-12_04h23.59.521,classification_task,2021.2.3,Win32,60.16485169,627c6715c52fd12f31907bd0,,,,,,,,,,,,,,,,,,,,,,,a,1,3.2636,"[""0.240"",""0.324"",""0.602"",""0.916""]","[1,0,1,1]",0,19,19,19,1,0,0,,,0,FALSE,,,,,,,,,,,,,,,,,,,,,,,,,,,,,,,
,61533302fdfe81f8a0ebe0c0,627c6fa0466067882ffca345,2022-05-12_04h23.59.521,classification_task,2021.2.3,Win32,60.16485169,627c6715c52fd12f31907bd0,,,,,,,,,,,,,,,,,,,,,,,l,0,3.2848,"[""0.158"",""0.500"",""0.837"",""0.029""]","[1,1,1,0]",0,20,20,20,1,0,1,,,0,FALSE,,,,,,,,,,,,,,,,,,,,,,,,,,,,,,,
,61533302fdfe81f8a0ebe0c0,627c6fa0466067882ffca345,2022-05-12_04h23.59.521,classification_task,2021.2.3,Win32,60.16485169,627c6715c52fd12f31907bd0,,,,,,,,,,,,,,,,,,,,,,,a,0,3.286,"[""0.109"",""0.372"",""0.030"",""0.783""]","[1,1,0,1]",0,21,21,21,1,1,1,,,0,FALSE,,,,,,,,,,,,,,,,,,,,,,,,,,,,,,,
,61533302fdfe81f8a0ebe0c0,627c6fa0466067882ffca345,2022-05-12_04h23.59.521,classification_task,2021.2.3,Win32,60.16485169,627c6715c52fd12f31907bd0,,,,,,,,,,,,,,,,,,,,,,,a,1,5.976,"[""0.158"",""0.500"",""0.030"",""0.954""]","[1,1,0,1]",0,22,22,22,1,0,1,,,0,FALSE,,,,,,,,,,,,,,,,,,,,,,,,,,,,,,,
,61533302fdfe81f8a0ebe0c0,627c6fa0466067882ffca345,2022-05-12_04h23.59.521,classification_task,2021.2.3,Win32,60.16485169,627c6715c52fd12f31907bd0,,,,,,,,,,,,,,,,,,,,,,,a,0,6.0365,"[""0.109"",""0.372"",""0.553"",""0.192""]","[1,1,1,0]",0,23,23,23,1,1,1,,,0,FALSE,,,,,,,,,,,,,,,,,,,,,,,,,,,,,,,
,61533302fdfe81f8a0ebe0c0,627c6fa0466067882ffca345,2022-05-12_04h23.59.521,classification_task,2021.2.3,Win32,60.16485169,627c6715c52fd12f31907bd0,,,,,,,,,,,,,,,,,,,,,,,a,0,4.8263,"[""0.070"",""0.030"",""0.665"",""0.732""]","[1,0,1,1]",0,24,24,24,1,1,0,,,0,FALSE,,,,,,,,,,,,,,,,,,,,,,,,,,,,,,,
,61533302fdfe81f8a0ebe0c0,627c6fa0466067882ffca345,2022-05-12_04h23.59.521,classification_task,2021.2.3,Win32,60.16485169,627c6715c52fd12f31907bd0,,,,,,,,,,,,,,,,,,,,,,,a,1,4.0375,"[""0.240"",""0.429"",""0.329"",""0.916""]","[1,1,0,1]",0,25,25,25,1,0,0,,,0,FALSE,,,,,,,,,,,,,,,,,,,,,,,,,,,,,,,
,61533302fdfe81f8a0ebe0c0,627c6fa0466067882ffca345,2022-05-12_04h23.59.521,classification_task,2021.2.3,Win32,60.16485169,627c6715c52fd12f31907bd0,,,,,,,,,,,,,,,,,,,,,,,a,1,4.5075,"[""0.158"",""0.194"",""0.837"",""0.954""]","[1,0,1,1]",0,26,26,26,1,0,1,,,0,FALSE,,,,,,,,,,,,,,,,,,,,,,,,,,,,,,,
,61533302fdfe81f8a0ebe0c0,627c6fa0466067882ffca345,2022-05-12_04h23.59.521,classification_task,2021.2.3,Win32,60.16485169,627c6715c52fd12f31907bd0,,,,,,,,,,,,,,,,,,,,,,,a,0,7.0157,"[""0.109"",""0.465"",""0.553"",""0.783""]","[1,0,1,1]",0,27,27,27,1,1,1,,,0,FALSE,,,,,,,,,,,,,,,,,,,,,,,,,,,,,,,
,61533302fdfe81f8a0ebe0c0,627c6fa0466067882ffca345,2022-05-12_04h23.59.521,classification_task,2021.2.3,Win32,60.16485169,627c6715c52fd12f31907bd0,,,,,,,,,,,,,,,,,,,,,,,l,1,4.5488,"[""0.070"",""0.274"",""0.665"",""0.034""]","[1,1,1,0]",0,28,28,28,1,1,0,,,0,FALSE,,,,,,,,,,,,,,,,,,,,,,,,,,,,,,,
,61533302fdfe81f8a0ebe0c0,627c6fa0466067882ffca345,2022-05-12_04h23.59.521,classification_task,2021.2.3,Win32,60.16485169,627c6715c52fd12f31907bd0,,,,,,,,,,,,,,,,,,,,,,,a,1,2.9141,"[""0.240"",""0.429"",""0.602"",""0.873""]","[1,1,1,0]",0,29,29,29,1,0,0,,,0,FALSE,,,,,,,,,,,,,,,,,,,,,,,,,,,,,,,
,61533302fdfe81f8a0ebe0c0,627c6fa0466067882ffca345,2022-05-12_04h23.59.521,classification_task,2021.2.3,Win32,60.16485169,627c6715c52fd12f31907bd0,,,,,,,,,,,,,,,,,,,,,,,a,1,6.7478,"[""0.324"",""0.429"",""0.602"",""0.916""]","[0,1,1,1]",0,30,30,30,1,0,0,,,0,FALSE,,,,,,,,,,,,,,,,,,,,,,,,,,,,,,,
,61533302fdfe81f8a0ebe0c0,627c6fa0466067882ffca345,2022-05-12_04h23.59.521,classification_task,2021.2.3,Win32,60.16485169,627c6715c52fd12f31907bd0,,,,,,,,,,,,,,,,,,,,,,,a,0,4.3545,"[""0.070"",""0.274"",""0.034"",""0.732""]","[1,1,0,1]",0,31,31,31,1,1,0,,,0,FALSE,,,,,,,,,,,,,,,,,,,,,,,,,,,,,,,
,61533302fdfe81f8a0ebe0c0,627c6fa0466067882ffca345,2022-05-12_04h23.59.521,classification_task,2021.2.3,Win32,60.16485169,627c6715c52fd12f31907bd0,,,,,,,,,,,,,,,,,,,,,,,a,1,4.6525,"[""0.240"",""0.324"",""0.602"",""0.916""]","[1,0,1,1]",0,32,32,32,1,0,0,,,0,FALSE,,,,,,,,,,,,,,,,,,,,,,,,,,,,,,,
,61533302fdfe81f8a0ebe0c0,627c6fa0466067882ffca345,2022-05-12_04h23.59.521,classification_task,2021.2.3,Win32,60.16485169,627c6715c52fd12f31907bd0,,,,,,,,,,,,,,,,,,,,,,,l,0,2.4356,"[""0.465"",""0.429"",""0.602"",""0.916""]","[0,1,1,1]",0,33,33,33,1,0,0,,,0,FALSE,,,,,,,,,,,,,,,,,,,,,,,,,,,,,,,
,61533302fdfe81f8a0ebe0c0,627c6fa0466067882ffca345,2022-05-12_04h23.59.521,classification_task,2021.2.3,Win32,60.16485169,627c6715c52fd12f31907bd0,,,,,,,,,,,,,,,,,,,,,,,a,1,3.6778,"[""0.240"",""0.429"",""0.873"",""0.916""]","[1,1,0,1]",0,34,34,34,1,0,0,,,0,FALSE,,,,,,,,,,,,,,,,,,,,,,,,,,,,,,,
,61533302fdfe81f8a0ebe0c0,627c6fa0466067882ffca345,2022-05-12_04h23.59.521,classification_task,2021.2.3,Win32,60.16485169,627c6715c52fd12f31907bd0,,,,,,,,,,,,,,,,,,,,,,,l,1,2.6012,"[""0.070"",""0.274"",""0.029"",""0.732""]","[1,1,0,1]",0,35,35,35,1,1,0,,,0,FALSE,,,,,,,,,,,,,,,,,,,,,,,,,,,,,,,
,61533302fdfe81f8a0ebe0c0,627c6fa0466067882ffca345,2022-05-12_04h23.59.521,classification_task,2021.2.3,Win32,60.16485169,627c6715c52fd12f31907bd0,,,,,,,,,,,,,,,,,,,,,,,l,0,3.6863,"[""0.158"",""0.465"",""0.837"",""0.954""]","[1,0,1,1]",0,36,36,36,1,0,1,,,0,FALSE,,,,,,,,,,,,,,,,,,,,,,,,,,,,,,,
,61533302fdfe81f8a0ebe0c0,627c6fa0466067882ffca345,2022-05-12_04h23.59.521,classification_task,2021.2.3,Win32,60.16485169,627c6715c52fd12f31907bd0,,,,,,,,,,,,,,,,,,,,,,,a,0,1.1566,"[""0.109"",""0.372"",""0.192"",""0.783""]","[1,1,0,1]",0,37,37,37,1,1,1,,,0,FALSE,,,,,,,,,,,,,,,,,,,,,,,,,,,,,,,
,61533302fdfe81f8a0ebe0c0,627c6fa0466067882ffca345,2022-05-12_04h23.59.521,classification_task,2021.2.3,Win32,60.16485169,627c6715c52fd12f31907bd0,,,,,,,,,,,,,,,,,,,,,,,l,0,1.0542,"[""0.240"",""0.429"",""0.602"",""0.465""]","[1,1,1,0]",0,38,38,38,1,0,0,,,0,FALSE,,,,,,,,,,,,,,,,,,,,,,,,,,,,,,,
,61533302fdfe81f8a0ebe0c0,627c6fa0466067882ffca345,2022-05-12_04h23.59.521,classification_task,2021.2.3,Win32,60.16485169,627c6715c52fd12f31907bd0,,,,,,,,,,,,,,,,,,,,,,,l,1,1.118,"[""0.109"",""0.372"",""0.553"",""0.330""]","[1,1,1,0]",0,39,39,39,1,1,1,,,0,FALSE,,,,,,,,,,,,,,,,,,,,,,,,,,,,,,,
,61533302fdfe81f8a0ebe0c0,627c6fa0466067882ffca345,2022-05-12_04h23.59.521,classification_task,2021.2.3,Win32,60.16485169,627c6715c52fd12f31907bd0,,,,,,,,,,,,,,,,,,,,,,,a,0,2.1142,"[""0.324"",""0.274"",""0.665"",""0.732""]","[0,1,1,1]",0,40,40,40,1,1,0,,,0,FALSE,,,,,,,,,,,,,,,,,,,,,,,,,,,,,,,
,61533302fdfe81f8a0ebe0c0,627c6fa0466067882ffca345,2022-05-12_04h23.59.521,classification_task,2021.2.3,Win32,60.16485169,627c6715c52fd12f31907bd0,,,,,,,,,,,,,,,,,,,,,,,a,0,2.7392,"[""0.466"",""0.372"",""0.553"",""0.783""]","[0,1,1,1]",0,41,41,41,1,1,1,,,0,FALSE,,,,,,,,,,,,,,,,,,,,,,,,,,,,,,,
,61533302fdfe81f8a0ebe0c0,627c6fa0466067882ffca345,2022-05-12_04h23.59.521,classification_task,2021.2.3,Win32,60.16485169,627c6715c52fd12f31907bd0,,,,,,,,,,,,,,,,,,,,,,,l,0,0.89,"[""0.329"",""0.500"",""0.837"",""0.954""]","[0,1,1,1]",0,42,42,42,1,0,1,,,0,FALSE,,,,,,,,,,,,,,,,,,,,,,,,,,,,,,,
,61533302fdfe81f8a0ebe0c0,627c6fa0466067882ffca345,2022-05-12_04h23.59.521,classification_task,2021.2.3,Win32,60.16485169,627c6715c52fd12f31907bd0,,,,,,,,,,,,,,,,,,,,,,,a,1,2.3624,"[""0.158"",""0.500"",""0.837"",""0.192""]","[1,1,1,0]",0,43,43,43,1,0,1,,,0,FALSE,,,,,,,,,,,,,,,,,,,,,,,,,,,,,,,
,61533302fdfe81f8a0ebe0c0,627c6fa0466067882ffca345,2022-05-12_04h23.59.521,classification_task,2021.2.3,Win32,60.16485169,627c6715c52fd12f31907bd0,,,,,,,,,,,,,,,,,,,,,,,l,1,2.5384,"[""0.070"",""0.329"",""0.665"",""0.732""]","[1,0,1,1]",0,44,44,44,1,1,0,,,0,FALSE,,,,,,,,,,,,,,,,,,,,,,,,,,,,,,,
,61533302fdfe81f8a0ebe0c0,627c6fa0466067882ffca345,2022-05-12_04h23.59.521,classification_task,2021.2.3,Win32,60.16485169,627c6715c52fd12f31907bd0,,,,,,,,,,,,,,,,,,,,,,,a,1,3.5488,"[""0.158"",""0.500"",""0.029"",""0.954""]","[1,1,0,1]",0,45,45,45,1,0,1,,,0,FALSE,,,,,,,,,,,,,,,,,,,,,,,,,,,,,,,
,61533302fdfe81f8a0ebe0c0,627c6fa0466067882ffca345,2022-05-12_04h23.59.521,classification_task,2021.2.3,Win32,60.16485169,627c6715c52fd12f31907bd0,,,,,,,,,,,,,,,,,,,,,,,l,1,3.2803,"[""0.109"",""0.029"",""0.553"",""0.783""]","[1,0,1,1]",0,46,46,46,1,1,1,,,0,FALSE,,,,,,,,,,,,,,,,,,,,,,,,,,,,,,,
,61533302fdfe81f8a0ebe0c0,627c6fa0466067882ffca345,2022-05-12_04h23.59.521,classification_task,2021.2.3,Win32,60.16485169,627c6715c52fd12f31907bd0,,,,,,,,,,,,,,,,,,,,,,,l,1,2.5999,"[""0.070"",""0.274"",""0.665"",""0.192""]","[1,1,1,0]",0,47,47,47,1,1,0,,,0,FALSE,,,,,,,,,,,,,,,,,,,,,,,,,,,,,,,
,61533302fdfe81f8a0ebe0c0,627c6fa0466067882ffca345,2022-05-12_04h23.59.521,classification_task,2021.2.3,Win32,60.16485169,627c6715c52fd12f31907bd0,,,,,,,,,,,,,,,,,,,,,,,a,1,3.0282,"[""0.329"",""0.500"",""0.837"",""0.954""]","[0,1,1,1]",0,48,48,48,1,0,1,,,0,FALSE,,,,,,,,,,,,,,,,,,,,,,,,,,,,,,,
,61533302fdfe81f8a0ebe0c0,627c6fa0466067882ffca345,2022-05-12_04h23.59.521,classification_task,2021.2.3,Win32,60.16485169,627c6715c52fd12f31907bd0,,,,,,,,,,,,,,,,,,,,,,,l,0,2.5074,"[""0.240"",""0.030"",""0.602"",""0.916""]","[1,0,1,1]",0,49,49,49,1,0,0,,,0,FALSE,,,,,,,,,,,,,,,,,,,,,,,,,,,,,,,
,61533302fdfe81f8a0ebe0c0,627c6fa0466067882ffca345,2022-05-12_04h23.59.521,classification_task,2021.2.3,Win32,60.16485169,627c6715c52fd12f31907bd0,,,,,,,,,,,,,,,,,,,,,,,a,0,3.2564,"[""0.109"",""0.372"",""0.328"",""0.783""]","[1,1,0,1]",0,50,50,50,1,1,1,,,0,FALSE,,,,,,,,,,,,,,,,,,,,,,,,,,,,,,,
,61533302fdfe81f8a0ebe0c0,627c6fa0466067882ffca345,2022-05-12_04h23.59.521,classification_task,2021.2.3,Win32,60.16485169,627c6715c52fd12f31907bd0,,,,,,,,,,,,,,,,,,,,,,,l,1,3.1854,"[""0.070"",""0.274"",""0.665"",""0.328""]","[1,1,1,0]",0,51,51,51,1,1,0,,,0,FALSE,,,,,,,,,,,,,,,,,,,,,,,,,,,,,,,
,61533302fdfe81f8a0ebe0c0,627c6fa0466067882ffca345,2022-05-12_04h23.59.521,classification_task,2021.2.3,Win32,60.16485169,627c6715c52fd12f31907bd0,,,,,,,,,,,,,,,,,,,,,,,a,0,2.1444,"[""0.034"",""0.372"",""0.553"",""0.783""]","[0,1,1,1]",0,52,52,52,1,1,1,,,0,FALSE,,,,,,,,,,,,,,,,,,,,,,,,,,,,,,,
,61533302fdfe81f8a0ebe0c0,627c6fa0466067882ffca345,2022-05-12_04h23.59.521,classification_task,2021.2.3,Win32,60.16485169,627c6715c52fd12f31907bd0,,,,,,,,,,,,,,,,,,,,,,,l,1,1.6298,"[""0.109"",""0.029"",""0.553"",""0.783""]","[1,0,1,1]",0,53,53,53,1,1,1,,,0,FALSE,,,,,,,,,,,,,,,,,,,,,,,,,,,,,,,
,61533302fdfe81f8a0ebe0c0,627c6fa0466067882ffca345,2022-05-12_04h23.59.521,classification_task,2021.2.3,Win32,60.16485169,627c6715c52fd12f31907bd0,,,,,,,,,,,,,,,,,,,,,,,l,1,1.5222,"[""0.070"",""0.029"",""0.665"",""0.732""]","[1,0,1,1]",0,54,54,54,1,1,0,,,0,FALSE,,,,,,,,,,,,,,,,,,,,,,,,,,,,,,,
,61533302fdfe81f8a0ebe0c0,627c6fa0466067882ffca345,2022-05-12_04h23.59.521,classification_task,2021.2.3,Win32,60.16485169,627c6715c52fd12f31907bd0,,,,,,,,,,,,,,,,,,,,,,,a,1,1.9974,"[""0.158"",""0.500"",""0.330"",""0.954""]","[1,1,0,1]",0,55,55,55,1,0,1,,,0,FALSE,,,,,,,,,,,,,,,,,,,,,,,,,,,,,,,
,61533302fdfe81f8a0ebe0c0,627c6fa0466067882ffca345,2022-05-12_04h23.59.521,classification_task,2021.2.3,Win32,60.16485169,627c6715c52fd12f31907bd0,,,,,,,,,,,,,,,,,,,,,,,a,1,1.5525,"[""0.240"",""0.429"",""0.602"",""0.030""]","[1,1,1,0]",0,56,56,56,1,0,0,,,0,FALSE,,,,,,,,,,,,,,,,,,,,,,,,,,,,,,,
,61533302fdfe81f8a0ebe0c0,627c6fa0466067882ffca345,2022-05-12_04h23.59.521,classification_task,2021.2.3,Win32,60.16485169,627c6715c52fd12f31907bd0,,,,,,,,,,,,,,,,,,,,,,,l,0,1.2816,"[""0.158"",""0.500"",""0.837"",""0.880""]","[1,1,1,0]",0,57,57,57,1,0,1,,,0,FALSE,,,,,,,,,,,,,,,,,,,,,,,,,,,,,,,
,61533302fdfe81f8a0ebe0c0,627c6fa0466067882ffca345,2022-05-12_04h23.59.521,classification_task,2021.2.3,Win32,60.16485169,627c6715c52fd12f31907bd0,,,,,,,,,,,,,,,,,,,,,,,l,1,1.229,"[""0.109"",""0.372"",""0.553"",""0.329""]","[1,1,1,0]",0,58,58,58,1,1,1,,,0,FALSE,,,,,,,,,,,,,,,,,,,,,,,,,,,,,,,
,61533302fdfe81f8a0ebe0c0,627c6fa0466067882ffca345,2022-05-12_04h23.59.521,classification_task,2021.2.3,Win32,60.16485169,627c6715c52fd12f31907bd0,,,,,,,,,,,,,,,,,,,,,,,a,1,1.3332,"[""0.158"",""0.329"",""0.837"",""0.954""]","[1,0,1,1]",0,59,59,59,1,0,1,,,0,FALSE,,,,,,,,,,,,,,,,,,,,,,,,,,,,,,,
,61533302fdfe81f8a0ebe0c0,627c6fa0466067882ffca345,2022-05-12_04h23.59.521,classification_task,2021.2.3,Win32,60.16485169,627c6715c52fd12f31907bd0,,,,,,,,,,,,,,,,,,,,,,,a,1,1.4969,"[""0.192"",""0.429"",""0.602"",""0.916""]","[0,1,1,1]",0,60,60,60,1,0,0,,,0,FALSE,,,,,,,,,,,,,,,,,,,,,,,,,,,,,,,
,61533302fdfe81f8a0ebe0c0,627c6fa0466067882ffca345,2022-05-12_04h23.59.521,classification_task,2021.2.3,Win32,60.16485169,627c6715c52fd12f31907bd0,,,,,,,,,,,,,,,,,,,,,,,l,0,1.6793,"[""0.240"",""0.429"",""0.328"",""0.916""]","[1,1,0,1]",0,61,61,61,1,0,0,,,0,FALSE,,,,,,,,,,,,,,,,,,,,,,,,,,,,,,,
,61533302fdfe81f8a0ebe0c0,627c6fa0466067882ffca345,2022-05-12_04h23.59.521,classification_task,2021.2.3,Win32,60.16485169,627c6715c52fd12f31907bd0,,,,,,,,,,,,,,,,,,,,,,,l,1,1.1315,"[""0.192"",""0.274"",""0.665"",""0.732""]","[0,1,1,1]",0,62,62,62,1,1,0,,,0,FALSE,,,,,,,,,,,,,,,,,,,,,,,,,,,,,,,
,61533302fdfe81f8a0ebe0c0,627c6fa0466067882ffca345,2022-05-12_04h23.59.521,classification_task,2021.2.3,Win32,60.16485169,627c6715c52fd12f31907bd0,,,,,,,,,,,,,,,,,,,,,,,a,0,1.2978,"[""0.070"",""0.274"",""0.880"",""0.732""]","[1,1,0,1]",0,63,63,63,1,1,0,,,0,FALSE,,,,,,,,,,,,,,,,,,,,,,,,,,,,,,,
,61533302fdfe81f8a0ebe0c0,627c6fa0466067882ffca345,2022-05-12_04h23.59.521,classification_task,2021.2.3,Win32,60.16485169,627c6715c52fd12f31907bd0,,,,,,,,,,,,,,,,,,,,,,,,,,,,,,,,,,,,,,,0, ,,0,,,0,0,0,0,1,2,1,,,,,,,,,,,,,,,,,,
,61533302fdfe81f8a0ebe0c0,627c6fa0466067882ffca345,2022-05-12_04h23.59.521,classification_task,2021.2.3,Win32,60.16485169,627c6715c52fd12f31907bd0,,,,,,,,,,,,,,,,,,,,,,,,,,,,,,,,,,,,,,,1,  ,,0,,,0,0,0,0,1,2,1,,,,,,,,,,,,,,,,,,
,61533302fdfe81f8a0ebe0c0,627c6fa0466067882ffca345,2022-05-12_04h23.59.521,classification_task,2021.2.3,Win32,60.16485169,627c6715c52fd12f31907bd0,,,,,,,,,,,,,,,,,,,,,,,,,,,,,,,,,,,,,,,2,  ,,0,,,0,0,0,0,1,2,1,,,,,,,,,,,,,,,,,,
,61533302fdfe81f8a0ebe0c0,627c6fa0466067882ffca345,2022-05-12_04h23.59.521,classification_task,2021.2.3,Win32,60.16485169,627c6715c52fd12f31907bd0,,,,,,,,,,,,,,,,,,,,,,,,,,,,,,,,,,,,,,,,,,,,,0,0,0,0,1,,1,,,,,,,,,,,,,,,,,,
,61533302fdfe81f8a0ebe0c0,627c6fa0466067882ffca345,2022-05-12_04h23.59.521,classification_task,2021.2.3,Win32,60.16485169,627c6715c52fd12f31907bd0,,,,,,,,,,,,,,,,,,,,,space,35.7945,a,1,3.7108,"[""0.240"",""0.328"",""0.602"",""0.916""]","[1,0,1,1]",0,0,0,0,1,0,0,,,0,FALSE,,,,,,,,,,,,,,,,,,,,,,,,,,,,,,,
,61533302fdfe81f8a0ebe0c0,627c6fa0466067882ffca345,2022-05-12_04h23.59.521,classification_task,2021.2.3,Win32,60.16485169,627c6715c52fd12f31907bd0,,,,,,,,,,,,,,,,,,,,,,,l,1,0.8156,"[""0.330"",""0.274"",""0.665"",""0.732""]","[0,1,1,1]",0,1,1,1,1,1,0,,,0,FALSE,,,,,,,,,,,,,,,,,,,,,,,,,,,,,,,
,61533302fdfe81f8a0ebe0c0,627c6fa0466067882ffca345,2022-05-12_04h23.59.521,classification_task,2021.2.3,Win32,60.16485169,627c6715c52fd12f31907bd0,,,,,,,,,,,,,,,,,,,,,,,a,0,1.9807,"[""0.330"",""0.372"",""0.553"",""0.783""]","[0,1,1,1]",0,2,2,2,1,1,1,,,0,FALSE,,,,,,,,,,,,,,,,,,,,,,,,,,,,,,,
,61533302fdfe81f8a0ebe0c0,627c6fa0466067882ffca345,2022-05-12_04h23.59.521,classification_task,2021.2.3,Win32,60.16485169,627c6715c52fd12f31907bd0,,,,,,,,,,,,,,,,,,,,,,,l,1,1.7594,"[""0.070"",""0.274"",""0.665"",""0.030""]","[1,1,1,0]",0,3,3,3,1,1,0,,,0,FALSE,,,,,,,,,,,,,,,,,,,,,,,,,,,,,,,
,61533302fdfe81f8a0ebe0c0,627c6fa0466067882ffca345,2022-05-12_04h23.59.521,classification_task,2021.2.3,Win32,60.16485169,627c6715c52fd12f31907bd0,,,,,,,,,,,,,,,,,,,,,,,l,1,0.955,"[""0.070"",""0.194"",""0.665"",""0.732""]","[1,0,1,1]",0,4,4,4,1,1,0,,,0,FALSE,,,,,,,,,,,,,,,,,,,,,,,,,,,,,,,
,61533302fdfe81f8a0ebe0c0,627c6fa0466067882ffca345,2022-05-12_04h23.59.521,classification_task,2021.2.3,Win32,60.16485169,627c6715c52fd12f31907bd0,,,,,,,,,,,,,,,,,,,,,,,a,1,2.0618,"[""0.158"",""0.500"",""0.837"",""0.034""]","[1,1,1,0]",0,5,5,5,1,0,1,,,0,FALSE,,,,,,,,,,,,,,,,,,,,,,,,,,,,,,,
,61533302fdfe81f8a0ebe0c0,627c6fa0466067882ffca345,2022-05-12_04h23.59.521,classification_task,2021.2.3,Win32,60.16485169,627c6715c52fd12f31907bd0,,,,,,,,,,,,,,,,,,,,,,,a,0,1.6662,"[""0.109"",""0.372"",""0.330"",""0.783""]","[1,1,0,1]",0,6,6,6,1,1,1,,,0,FALSE,,,,,,,,,,,,,,,,,,,,,,,,,,,,,,,
,61533302fdfe81f8a0ebe0c0,627c6fa0466067882ffca345,2022-05-12_04h23.59.521,classification_task,2021.2.3,Win32,60.16485169,627c6715c52fd12f31907bd0,,,,,,,,,,,,,,,,,,,,,,,a,1,1.4075,"[""0.158"",""0.194"",""0.837"",""0.954""]","[1,0,1,1]",0,7,7,7,1,0,1,,,0,FALSE,,,,,,,,,,,,,,,,,,,,,,,,,,,,,,,
,61533302fdfe81f8a0ebe0c0,627c6fa0466067882ffca345,2022-05-12_04h23.59.521,classification_task,2021.2.3,Win32,60.16485169,627c6715c52fd12f31907bd0,,,,,,,,,,,,,,,,,,,,,,,a,1,1.6543,"[""0.240"",""0.429"",""0.330"",""0.916""]","[1,1,0,1]",0,8,8,8,1,0,0,,,0,FALSE,,,,,,,,,,,,,,,,,,,,,,,,,,,,,,,
,61533302fdfe81f8a0ebe0c0,627c6fa0466067882ffca345,2022-05-12_04h23.59.521,classification_task,2021.2.3,Win32,60.16485169,627c6715c52fd12f31907bd0,,,,,,,,,,,,,,,,,,,,,,,l,0,1.406,"[""0.880"",""0.500"",""0.837"",""0.954""]","[0,1,1,1]",0,9,9,9,1,0,1,,,0,FALSE,,,,,,,,,,,,,,,,,,,,,,,,,,,,,,,
,61533302fdfe81f8a0ebe0c0,627c6fa0466067882ffca345,2022-05-12_04h23.59.521,classification_task,2021.2.3,Win32,60.16485169,627c6715c52fd12f31907bd0,,,,,,,,,,,,,,,,,,,,,,,a,0,0.8128,"[""0.109"",""0.372"",""0.553"",""0.194""]","[1,1,1,0]",0,10,10,10,1,1,1,,,0,FALSE,,,,,,,,,,,,,,,,,,,,,,,,,,,,,,,
,61533302fdfe81f8a0ebe0c0,627c6fa0466067882ffca345,2022-05-12_04h23.59.521,classification_task,2021.2.3,Win32,60.16485169,627c6715c52fd12f31907bd0,,,,,,,,,,,,,,,,,,,,,,,l,1,0.8407,"[""0.070"",""0.274"",""0.029"",""0.732""]","[1,1,0,1]",0,11,11,11,1,1,0,,,0,FALSE,,,,,,,,,,,,,,,,,,,,,,,,,,,,,,,
,61533302fdfe81f8a0ebe0c0,627c6fa0466067882ffca345,2022-05-12_04h23.59.521,classification_task,2021.2.3,Win32,60.16485169,627c6715c52fd12f31907bd0,,,,,,,,,,,,,,,,,,,,,,,a,1,1.9531,"[""0.158"",""0.500"",""0.465"",""0.954""]","[1,1,0,1]",0,12,12,12,1,0,1,,,0,FALSE,,,,,,,,,,,,,,,,,,,,,,,,,,,,,,,
,61533302fdfe81f8a0ebe0c0,627c6fa0466067882ffca345,2022-05-12_04h23.59.521,classification_task,2021.2.3,Win32,60.16485169,627c6715c52fd12f31907bd0,,,,,,,,,,,,,,,,,,,,,,,a,1,1.439,"[""0.465"",""0.429"",""0.602"",""0.916""]","[0,1,1,1]",0,13,13,13,1,0,0,,,0,FALSE,,,,,,,,,,,,,,,,,,,,,,,,,,,,,,,
,61533302fdfe81f8a0ebe0c0,627c6fa0466067882ffca345,2022-05-12_04h23.59.521,classification_task,2021.2.3,Win32,60.16485169,627c6715c52fd12f31907bd0,,,,,,,,,,,,,,,,,,,,,,,a,1,0.9891,"[""0.240"",""0.429"",""0.602"",""0.034""]","[1,1,1,0]",0,14,14,14,1,0,0,,,0,FALSE,,,,,,,,,,,,,,,,,,,,,,,,,,,,,,,
,61533302fdfe81f8a0ebe0c0,627c6fa0466067882ffca345,2022-05-12_04h23.59.521,classification_task,2021.2.3,Win32,60.16485169,627c6715c52fd12f31907bd0,,,,,,,,,,,,,,,,,,,,,,,l,1,1.4592,"[""0.109"",""0.030"",""0.553"",""0.783""]","[1,0,1,1]",0,15,15,15,1,1,1,,,0,FALSE,,,,,,,,,,,,,,,,,,,,,,,,,,,,,,,
,61533302fdfe81f8a0ebe0c0,627c6fa0466067882ffca345,2022-05-12_04h23.59.521,classification_task,2021.2.3,Win32,60.16485169,627c6715c52fd12f31907bd0,,,,,,,,,,,,,,,,,,,,,,,a,0,1.637,"[""0.880"",""0.372"",""0.553"",""0.783""]","[0,1,1,1]",0,16,16,16,1,1,1,,,0,FALSE,,,,,,,,,,,,,,,,,,,,,,,,,,,,,,,
,61533302fdfe81f8a0ebe0c0,627c6fa0466067882ffca345,2022-05-12_04h23.59.521,classification_task,2021.2.3,Win32,60.16485169,627c6715c52fd12f31907bd0,,,,,,,,,,,,,,,,,,,,,,,l,0,0.9192,"[""0.330"",""0.500"",""0.837"",""0.954""]","[0,1,1,1]",0,17,17,17,1,0,1,,,0,FALSE,,,,,,,,,,,,,,,,,,,,,,,,,,,,,,,
,61533302fdfe81f8a0ebe0c0,627c6fa0466067882ffca345,2022-05-12_04h23.59.521,classification_task,2021.2.3,Win32,60.16485169,627c6715c52fd12f31907bd0,,,,,,,,,,,,,,,,,,,,,,,a,0,1.3193,"[""0.109"",""0.330"",""0.553"",""0.783""]","[1,0,1,1]",0,18,18,18,1,1,1,,,0,FALSE,,,,,,,,,,,,,,,,,,,,,,,,,,,,,,,
,61533302fdfe81f8a0ebe0c0,627c6fa0466067882ffca345,2022-05-12_04h23.59.521,classification_task,2021.2.3,Win32,60.16485169,627c6715c52fd12f31907bd0,,,,,,,,,,,,,,,,,,,,,,,l,0,0.7862,"[""0.158"",""0.500"",""0.837"",""0.330""]","[1,1,1,0]",0,19,19,19,1,0,1,,,0,FALSE,,,,,,,,,,,,,,,,,,,,,,,,,,,,,,,
,61533302fdfe81f8a0ebe0c0,627c6fa0466067882ffca345,2022-05-12_04h23.59.521,classification_task,2021.2.3,Win32,60.16485169,627c6715c52fd12f31907bd0,,,,,,,,,,,,,,,,,,,,,,,a,1,1.3777,"[""0.240"",""0.429"",""0.328"",""0.916""]","[1,1,0,1]",0,20,20,20,1,0,0,,,0,FALSE,,,,,,,,,,,,,,,,,,,,,,,,,,,,,,,
,61533302fdfe81f8a0ebe0c0,627c6fa0466067882ffca345,2022-05-12_04h23.59.521,classification_task,2021.2.3,Win32,60.16485169,627c6715c52fd12f31907bd0,,,,,,,,,,,,,,,,,,,,,,,a,1,0.7941,"[""0.194"",""0.429"",""0.602"",""0.916""]","[0,1,1,1]",0,21,21,21,1,0,0,,,0,FALSE,,,,,,,,,,,,,,,,,,,,,,,,,,,,,,,
,61533302fdfe81f8a0ebe0c0,627c6fa0466067882ffca345,2022-05-12_04h23.59.521,classification_task,2021.2.3,Win32,60.16485169,627c6715c52fd12f31907bd0,,,,,,,,,,,,,,,,,,,,,,,l,1,0.8889,"[""0.070"",""0.330"",""0.665"",""0.732""]","[1,0,1,1]",0,22,22,22,1,1,0,,,0,FALSE,,,,,,,,,,,,,,,,,,,,,,,,,,,,,,,
,61533302fdfe81f8a0ebe0c0,627c6fa0466067882ffca345,2022-05-12_04h23.59.521,classification_task,2021.2.3,Win32,60.16485169,627c6715c52fd12f31907bd0,,,,,,,,,,,,,,,,,,,,,,,a,1,1.9341,"[""0.158"",""0.500"",""0.324"",""0.954""]","[1,1,0,1]",0,23,23,23,1,0,1,,,0,FALSE,,,,,,,,,,,,,,,,,,,,,,,,,,,,,,,
,61533302fdfe81f8a0ebe0c0,627c6fa0466067882ffca345,2022-05-12_04h23.59.521,classification_task,2021.2.3,Win32,60.16485169,627c6715c52fd12f31907bd0,,,,,,,,,,,,,,,,,,,,,,,l,1,1.9891,"[""0.109"",""0.372"",""0.194"",""0.783""]","[1,1,0,1]",0,24,24,24,1,1,1,,,0,FALSE,,,,,,,,,,,,,,,,,,,,,,,,,,,,,,,
,61533302fdfe81f8a0ebe0c0,627c6fa0466067882ffca345,2022-05-12_04h23.59.521,classification_task,2021.2.3,Win32,60.16485169,627c6715c52fd12f31907bd0,,,,,,,,,,,,,,,,,,,,,,,l,1,1.716,"[""0.109"",""0.372"",""0.553"",""0.330""]","[1,1,1,0]",0,25,25,25,1,1,1,,,0,FALSE,,,,,,,,,,,,,,,,,,,,,,,,,,,,,,,
,61533302fdfe81f8a0ebe0c0,627c6fa0466067882ffca345,2022-05-12_04h23.59.521,classification_task,2021.2.3,Win32,60.16485169,627c6715c52fd12f31907bd0,,,,,,,,,,,,,,,,,,,,,,,l,1,1.2733,"[""0.070"",""0.274"",""0.873"",""0.732""]","[1,1,0,1]",0,26,26,26,1,1,0,,,0,FALSE,,,,,,,,,,,,,,,,,,,,,,,,,,,,,,,
,61533302fdfe81f8a0ebe0c0,627c6fa0466067882ffca345,2022-05-12_04h23.59.521,classification_task,2021.2.3,Win32,60.16485169,627c6715c52fd12f31907bd0,,,,,,,,,,,,,,,,,,,,,,,l,1,0.9361,"[""0.873"",""0.274"",""0.665"",""0.732""]","[0,1,1,1]",0,27,27,27,1,1,0,,,0,FALSE,,,,,,,,,,,,,,,,,,,,,,,,,,,,,,,
,61533302fdfe81f8a0ebe0c0,627c6fa0466067882ffca345,2022-05-12_04h23.59.521,classification_task,2021.2.3,Win32,60.16485169,627c6715c52fd12f31907bd0,,,,,,,,,,,,,,,,,,,,,,,l,0,2.6027,"[""0.158"",""0.034"",""0.837"",""0.954""]","[1,0,1,1]",0,28,28,28,1,0,1,,,0,FALSE,,,,,,,,,,,,,,,,,,,,,,,,,,,,,,,
,61533302fdfe81f8a0ebe0c0,627c6fa0466067882ffca345,2022-05-12_04h23.59.521,classification_task,2021.2.3,Win32,60.16485169,627c6715c52fd12f31907bd0,,,,,,,,,,,,,,,,,,,,,,,a,1,1.0728,"[""0.240"",""0.429"",""0.602"",""0.030""]","[1,1,1,0]",0,29,29,29,1,0,0,,,0,FALSE,,,,,,,,,,,,,,,,,,,,,,,,,,,,,,,
,61533302fdfe81f8a0ebe0c0,627c6fa0466067882ffca345,2022-05-12_04h23.59.521,classification_task,2021.2.3,Win32,60.16485169,627c6715c52fd12f31907bd0,,,,,,,,,,,,,,,,,,,,,,,l,1,0.9324,"[""0.070"",""0.274"",""0.665"",""0.030""]","[1,1,1,0]",0,30,30,30,1,1,0,,,0,FALSE,,,,,,,,,,,,,,,,,,,,,,,,,,,,,,,
,61533302fdfe81f8a0ebe0c0,627c6fa0466067882ffca345,2022-05-12_04h23.59.521,classification_task,2021.2.3,Win32,60.16485169,627c6715c52fd12f31907bd0,,,,,,,,,,,,,,,,,,,,,,,a,1,1.0765,"[""0.240"",""0.880"",""0.602"",""0.916""]","[1,0,1,1]",0,31,31,31,1,0,0,,,0,FALSE,,,,,,,,,,,,,,,,,,,,,,,,,,,,,,,
,61533302fdfe81f8a0ebe0c0,627c6fa0466067882ffca345,2022-05-12_04h23.59.521,classification_task,2021.2.3,Win32,60.16485169,627c6715c52fd12f31907bd0,,,,,,,,,,,,,,,,,,,,,,,a,0,1.6417,"[""0.192"",""0.372"",""0.553"",""0.783""]","[0,1,1,1]",0,32,32,32,1,1,1,,,0,FALSE,,,,,,,,,,,,,,,,,,,,,,,,,,,,,,,
,61533302fdfe81f8a0ebe0c0,627c6fa0466067882ffca345,2022-05-12_04h23.59.521,classification_task,2021.2.3,Win32,60.16485169,627c6715c52fd12f31907bd0,,,,,,,,,,,,,,,,,,,,,,,l,1,1.2935,"[""0.070"",""0.274"",""0.465"",""0.732""]","[1,1,0,1]",0,33,33,33,1,1,0,,,0,FALSE,,,,,,,,,,,,,,,,,,,,,,,,,,,,,,,
,61533302fdfe81f8a0ebe0c0,627c6fa0466067882ffca345,2022-05-12_04h23.59.521,classification_task,2021.2.3,Win32,60.16485169,627c6715c52fd12f31907bd0,,,,,,,,,,,,,,,,,,,,,,,a,1,2.5493,"[""0.240"",""0.466"",""0.602"",""0.916""]","[1,0,1,1]",0,34,34,34,1,0,0,,,0,FALSE,,,,,,,,,,,,,,,,,,,,,,,,,,,,,,,
,61533302fdfe81f8a0ebe0c0,627c6fa0466067882ffca345,2022-05-12_04h23.59.521,classification_task,2021.2.3,Win32,60.16485169,627c6715c52fd12f31907bd0,,,,,,,,,,,,,,,,,,,,,,,a,1,3.5701,"[""0.324"",""0.500"",""0.837"",""0.954""]","[0,1,1,1]",0,35,35,35,1,0,1,,,0,FALSE,,,,,,,,,,,,,,,,,,,,,,,,,,,,,,,
,61533302fdfe81f8a0ebe0c0,627c6fa0466067882ffca345,2022-05-12_04h23.59.521,classification_task,2021.2.3,Win32,60.16485169,627c6715c52fd12f31907bd0,,,,,,,,,,,,,,,,,,,,,,,a,1,2.5861,"[""0.158"",""0.500"",""0.324"",""0.954""]","[1,1,0,1]",0,36,36,36,1,0,1,,,0,FALSE,,,,,,,,,,,,,,,,,,,,,,,,,,,,,,,
,61533302fdfe81f8a0ebe0c0,627c6fa0466067882ffca345,2022-05-12_04h23.59.521,classification_task,2021.2.3,Win32,60.16485169,627c6715c52fd12f31907bd0,,,,,,,,,,,,,,,,,,,,,,,l,1,1.0882,"[""0.330"",""0.274"",""0.665"",""0.732""]","[0,1,1,1]",0,37,37,37,1,1,0,,,0,FALSE,,,,,,,,,,,,,,,,,,,,,,,,,,,,,,,
,61533302fdfe81f8a0ebe0c0,627c6fa0466067882ffca345,2022-05-12_04h23.59.521,classification_task,2021.2.3,Win32,60.16485169,627c6715c52fd12f31907bd0,,,,,,,,,,,,,,,,,,,,,,,l,1,1.8946,"[""0.109"",""0.372"",""0.553"",""0.335""]","[1,1,1,0]",0,38,38,38,1,1,1,,,0,FALSE,,,,,,,,,,,,,,,,,,,,,,,,,,,,,,,
,61533302fdfe81f8a0ebe0c0,627c6fa0466067882ffca345,2022-05-12_04h23.59.521,classification_task,2021.2.3,Win32,60.16485169,627c6715c52fd12f31907bd0,,,,,,,,,,,,,,,,,,,,,,,l,1,1.7859,"[""0.109"",""0.029"",""0.553"",""0.783""]","[1,0,1,1]",0,39,39,39,1,1,1,,,0,FALSE,,,,,,,,,,,,,,,,,,,,,,,,,,,,,,,
,61533302fdfe81f8a0ebe0c0,627c6fa0466067882ffca345,2022-05-12_04h23.59.521,classification_task,2021.2.3,Win32,60.16485169,627c6715c52fd12f31907bd0,,,,,,,,,,,,,,,,,,,,,,,l,1,1.2166,"[""0.070"",""0.274"",""0.665"",""0.330""]","[1,1,1,0]",0,40,40,40,1,1,0,,,0,FALSE,,,,,,,,,,,,,,,,,,,,,,,,,,,,,,,
,61533302fdfe81f8a0ebe0c0,627c6fa0466067882ffca345,2022-05-12_04h23.59.521,classification_task,2021.2.3,Win32,60.16485169,627c6715c52fd12f31907bd0,,,,,,,,,,,,,,,,,,,,,,,a,1,1.0835,"[""0.029"",""0.429"",""0.602"",""0.916""]","[0,1,1,1]",0,41,41,41,1,0,0,,,0,FALSE,,,,,,,,,,,,,,,,,,,,,,,,,,,,,,,
,61533302fdfe81f8a0ebe0c0,627c6fa0466067882ffca345,2022-05-12_04h23.59.521,classification_task,2021.2.3,Win32,60.16485169,627c6715c52fd12f31907bd0,,,,,,,,,,,,,,,,,,,,,,,l,1,1.7251,"[""0.109"",""0.372"",""0.030"",""0.783""]","[1,1,0,1]",0,42,42,42,1,1,1,,,0,FALSE,,,,,,,,,,,,,,,,,,,,,,,,,,,,,,,
,61533302fdfe81f8a0ebe0c0,627c6fa0466067882ffca345,2022-05-12_04h23.59.521,classification_task,2021.2.3,Win32,60.16485169,627c6715c52fd12f31907bd0,,,,,,,,,,,,,,,,,,,,,,,a,1,2.5644,"[""0.158"",""0.500"",""0.837"",""0.329""]","[1,1,1,0]",0,43,43,43,1,0,1,,,0,FALSE,,,,,,,,,,,,,,,,,,,,,,,,,,,,,,,
,61533302fdfe81f8a0ebe0c0,627c6fa0466067882ffca345,2022-05-12_04h23.59.521,classification_task,2021.2.3,Win32,60.16485169,627c6715c52fd12f31907bd0,,,,,,,,,,,,,,,,,,,,,,,a,1,1.3773,"[""0.158"",""0.328"",""0.837"",""0.954""]","[1,0,1,1]",0,44,44,44,1,0,1,,,0,FALSE,,,,,,,,,,,,,,,,,,,,,,,,,,,,,,,
,61533302fdfe81f8a0ebe0c0,627c6fa0466067882ffca345,2022-05-12_04h23.59.521,classification_task,2021.2.3,Win32,60.16485169,627c6715c52fd12f31907bd0,,,,,,,,,,,,,,,,,,,,,,,l,1,1.1728,"[""0.070"",""0.466"",""0.665"",""0.732""]","[1,0,1,1]",0,45,45,45,1,1,0,,,0,FALSE,,,,,,,,,,,,,,,,,,,,,,,,,,,,,,,
,61533302fdfe81f8a0ebe0c0,627c6fa0466067882ffca345,2022-05-12_04h23.59.521,classification_task,2021.2.3,Win32,60.16485169,627c6715c52fd12f31907bd0,,,,,,,,,,,,,,,,,,,,,,,a,1,1.1167,"[""0.240"",""0.429"",""0.602"",""0.329""]","[1,1,1,0]",0,46,46,46,1,0,0,,,0,FALSE,,,,,,,,,,,,,,,,,,,,,,,,,,,,,,,
,61533302fdfe81f8a0ebe0c0,627c6fa0466067882ffca345,2022-05-12_04h23.59.521,classification_task,2021.2.3,Win32,60.16485169,627c6715c52fd12f31907bd0,,,,,,,,,,,,,,,,,,,,,,,l,0,1.0687,"[""0.240"",""0.429"",""0.192"",""0.916""]","[1,1,0,1]",0,47,47,47,1,0,0,,,0,FALSE,,,,,,,,,,,,,,,,,,,,,,,,,,,,,,,
,61533302fdfe81f8a0ebe0c0,627c6fa0466067882ffca345,2022-05-12_04h23.59.521,classification_task,2021.2.3,Win32,60.16485169,627c6715c52fd12f31907bd0,,,,,,,,,,,,,,,,,,,,,,,a,0,3.0555,"[""0.109"",""0.372"",""0.553"",""0.330""]","[1,1,1,0]",0,48,48,48,1,1,1,,,0,FALSE,,,,,,,,,,,,,,,,,,,,,,,,,,,,,,,
,61533302fdfe81f8a0ebe0c0,627c6fa0466067882ffca345,2022-05-12_04h23.59.521,classification_task,2021.2.3,Win32,60.16485169,627c6715c52fd12f31907bd0,,,,,,,,,,,,,,,,,,,,,,,a,1,1.2615,"[""0.240"",""0.429"",""0.466"",""0.916""]","[1,1,0,1]",0,49,49,49,1,0,0,,,0,FALSE,,,,,,,,,,,,,,,,,,,,,,,,,,,,,,,
,61533302fdfe81f8a0ebe0c0,627c6fa0466067882ffca345,2022-05-12_04h23.59.521,classification_task,2021.2.3,Win32,60.16485169,627c6715c52fd12f31907bd0,,,,,,,,,,,,,,,,,,,,,,,a,0,2.3985,"[""0.880"",""0.372"",""0.553"",""0.783""]","[0,1,1,1]",0,50,50,50,1,1,1,,,0,FALSE,,,,,,,,,,,,,,,,,,,,,,,,,,,,,,,
,61533302fdfe81f8a0ebe0c0,627c6fa0466067882ffca345,2022-05-12_04h23.59.521,classification_task,2021.2.3,Win32,60.16485169,627c6715c52fd12f31907bd0,,,,,,,,,,,,,,,,,,,,,,,l,1,0.8493,"[""0.070"",""0.324"",""0.665"",""0.732""]","[1,0,1,1]",0,51,51,51,1,1,0,,,0,FALSE,,,,,,,,,,,,,,,,,,,,,,,,,,,,,,,
,61533302fdfe81f8a0ebe0c0,627c6fa0466067882ffca345,2022-05-12_04h23.59.521,classification_task,2021.2.3,Win32,60.16485169,627c6715c52fd12f31907bd0,,,,,,,,,,,,,,,,,,,,,,,a,1,2.0421,"[""0.158"",""0.330"",""0.837"",""0.954""]","[1,0,1,1]",0,52,52,52,1,0,1,,,0,FALSE,,,,,,,,,,,,,,,,,,,,,,,,,,,,,,,
,61533302fdfe81f8a0ebe0c0,627c6fa0466067882ffca345,2022-05-12_04h23.59.521,classification_task,2021.2.3,Win32,60.16485169,627c6715c52fd12f31907bd0,,,,,,,,,,,,,,,,,,,,,,,l,0,1.8086,"[""0.330"",""0.500"",""0.837"",""0.954""]","[0,1,1,1]",0,53,53,53,1,0,1,,,0,FALSE,,,,,,,,,,,,,,,,,,,,,,,,,,,,,,,
,61533302fdfe81f8a0ebe0c0,627c6fa0466067882ffca345,2022-05-12_04h23.59.521,classification_task,2021.2.3,Win32,60.16485169,627c6715c52fd12f31907bd0,,,,,,,,,,,,,,,,,,,,,,,l,1,1.312,"[""0.109"",""0.030"",""0.553"",""0.783""]","[1,0,1,1]",0,54,54,54,1,1,1,,,0,FALSE,,,,,,,,,,,,,,,,,,,,,,,,,,,,,,,
,61533302fdfe81f8a0ebe0c0,627c6fa0466067882ffca345,2022-05-12_04h23.59.521,classification_task,2021.2.3,Win32,60.16485169,627c6715c52fd12f31907bd0,,,,,,,,,,,,,,,,,,,,,,,a,1,1.7021,"[""0.158"",""0.500"",""0.837"",""0.335""]","[1,1,1,0]",0,55,55,55,1,0,1,,,0,FALSE,,,,,,,,,,,,,,,,,,,,,,,,,,,,,,,
,61533302fdfe81f8a0ebe0c0,627c6fa0466067882ffca345,2022-05-12_04h23.59.521,classification_task,2021.2.3,Win32,60.16485169,627c6715c52fd12f31907bd0,,,,,,,,,,,,,,,,,,,,,,,l,1,1.1563,"[""0.070"",""0.274"",""0.665"",""0.329""]","[1,1,1,0]",0,56,56,56,1,1,0,,,0,FALSE,,,,,,,,,,,,,,,,,,,,,,,,,,,,,,,
,61533302fdfe81f8a0ebe0c0,627c6fa0466067882ffca345,2022-05-12_04h23.59.521,classification_task,2021.2.3,Win32,60.16485169,627c6715c52fd12f31907bd0,,,,,,,,,,,,,,,,,,,,,,,a,1,1.1359,"[""0.240"",""0.192"",""0.602"",""0.916""]","[1,0,1,1]",0,57,57,57,1,0,0,,,0,FALSE,,,,,,,,,,,,,,,,,,,,,,,,,,,,,,,
,61533302fdfe81f8a0ebe0c0,627c6fa0466067882ffca345,2022-05-12_04h23.59.521,classification_task,2021.2.3,Win32,60.16485169,627c6715c52fd12f31907bd0,,,,,,,,,,,,,,,,,,,,,,,a,1,1.2859,"[""0.240"",""0.429"",""0.602"",""0.465""]","[1,1,1,0]",0,58,58,58,1,0,0,,,0,FALSE,,,,,,,,,,,,,,,,,,,,,,,,,,,,,,,
,61533302fdfe81f8a0ebe0c0,627c6fa0466067882ffca345,2022-05-12_04h23.59.521,classification_task,2021.2.3,Win32,60.16485169,627c6715c52fd12f31907bd0,,,,,,,,,,,,,,,,,,,,,,,l,1,1.8849,"[""0.070"",""0.274"",""0.330"",""0.732""]","[1,1,0,1]",0,59,59,59,1,1,0,,,0,FALSE,,,,,,,,,,,,,,,,,,,,,,,,,,,,,,,
,61533302fdfe81f8a0ebe0c0,627c6fa0466067882ffca345,2022-05-12_04h23.59.521,classification_task,2021.2.3,Win32,60.16485169,627c6715c52fd12f31907bd0,,,,,,,,,,,,,,,,,,,,,,,l,0,2.0741,"[""0.158"",""0.500"",""0.330"",""0.954""]","[1,1,0,1]",0,60,60,60,1,0,1,,,0,FALSE,,,,,,,,,,,,,,,,,,,,,,,,,,,,,,,
,61533302fdfe81f8a0ebe0c0,627c6fa0466067882ffca345,2022-05-12_04h23.59.521,classification_task,2021.2.3,Win32,60.16485169,627c6715c52fd12f31907bd0,,,,,,,,,,,,,,,,,,,,,,,a,1,1.3361,"[""0.030"",""0.429"",""0.602"",""0.916""]","[0,1,1,1]",0,61,61,61,1,0,0,,,0,FALSE,,,,,,,,,,,,,,,,,,,,,,,,,,,,,,,
,61533302fdfe81f8a0ebe0c0,627c6fa0466067882ffca345,2022-05-12_04h23.59.521,classification_task,2021.2.3,Win32,60.16485169,627c6715c52fd12f31907bd0,,,,,,,,,,,,,,,,,,,,,,,a,0,1.2452,"[""0.109"",""0.372"",""0.030"",""0.783""]","[1,1,0,1]",0,62,62,62,1,1,1,,,0,FALSE,,,,,,,,,,,,,,,,,,,,,,,,,,,,,,,
,61533302fdfe81f8a0ebe0c0,627c6fa0466067882ffca345,2022-05-12_04h23.59.521,classification_task,2021.2.3,Win32,60.16485169,627c6715c52fd12f31907bd0,,,,,,,,,,,,,,,,,,,,,,,l,1,1.5743,"[""0.029"",""0.274"",""0.665"",""0.732""]","[0,1,1,1]",0,63,63,63,1,1,0,,,0,FALSE,,,,,,,,,,,,,,,,,,,,,,,,,,,,,,,
,61533302fdfe81f8a0ebe0c0,627c6fa0466067882ffca345,2022-05-12_04h23.59.521,classification_task,2021.2.3,Win32,60.16485169,627c6715c52fd12f31907bd0,,,,,,,,,,,,,,,,,,,,,,,,,,,,,,,,,,,,,,,0, ,,0,,,0,1,1,1,1,2,2,,,,,,,,,,,,,,,,,,
,61533302fdfe81f8a0ebe0c0,627c6fa0466067882ffca345,2022-05-12_04h23.59.521,classification_task,2021.2.3,Win32,60.16485169,627c6715c52fd12f31907bd0,,,,,,,,,,,,,,,,,,,,,,,,,,,,,,,,,,,,,,,1,  ,,0,,,0,1,1,1,1,2,2,,,,,,,,,,,,,,,,,,
,61533302fdfe81f8a0ebe0c0,627c6fa0466067882ffca345,2022-05-12_04h23.59.521,classification_task,2021.2.3,Win32,60.16485169,627c6715c52fd12f31907bd0,,,,,,,,,,,,,,,,,,,,,,,,,,,,,,,,,,,,,,,2,  ,,0,,,0,1,1,1,1,2,2,,,,,,,,,,,,,,,,,,
,61533302fdfe81f8a0ebe0c0,627c6fa0466067882ffca345,2022-05-12_04h23.59.521,classification_task,2021.2.3,Win32,60.16485169,627c6715c52fd12f31907bd0,,,,,,,,,,,,,,,,,,,,,,,,,,,,,,,,,,,,,,,,,,,,,0,1,1,1,1,,2,,,,,,,,,,,,,,,,,,
,61533302fdfe81f8a0ebe0c0,627c6fa0466067882ffca345,2022-05-12_04h23.59.521,classification_task,2021.2.3,Win32,60.16485169,627c6715c52fd12f31907bd0,,,,,,,,,,,,,,,,,,,,,space,9.2794,a,0,2.7273,"[""0.330"",""0.274"",""0.665"",""0.732""]","[0,1,1,1]",0,0,0,0,1,1,0,,,0,FALSE,,,,,,,,,,,,,,,,,,,,,,,,,,,,,,,
,61533302fdfe81f8a0ebe0c0,627c6fa0466067882ffca345,2022-05-12_04h23.59.521,classification_task,2021.2.3,Win32,60.16485169,627c6715c52fd12f31907bd0,,,,,,,,,,,,,,,,,,,,,,,l,1,1.758,"[""0.330"",""0.372"",""0.553"",""0.783""]","[0,1,1,1]",0,1,1,1,1,1,1,,,0,FALSE,,,,,,,,,,,,,,,,,,,,,,,,,,,,,,,
,61533302fdfe81f8a0ebe0c0,627c6fa0466067882ffca345,2022-05-12_04h23.59.521,classification_task,2021.2.3,Win32,60.16485169,627c6715c52fd12f31907bd0,,,,,,,,,,,,,,,,,,,,,,,a,1,1.4247,"[""0.029"",""0.429"",""0.602"",""0.916""]","[0,1,1,1]",0,2,2,2,1,0,0,,,0,FALSE,,,,,,,,,,,,,,,,,,,,,,,,,,,,,,,
,61533302fdfe81f8a0ebe0c0,627c6fa0466067882ffca345,2022-05-12_04h23.59.521,classification_task,2021.2.3,Win32,60.16485169,627c6715c52fd12f31907bd0,,,,,,,,,,,,,,,,,,,,,,,l,0,2.2711,"[""0.158"",""0.030"",""0.837"",""0.954""]","[1,0,1,1]",0,3,3,3,1,0,1,,,0,FALSE,,,,,,,,,,,,,,,,,,,,,,,,,,,,,,,
,61533302fdfe81f8a0ebe0c0,627c6fa0466067882ffca345,2022-05-12_04h23.59.521,classification_task,2021.2.3,Win32,60.16485169,627c6715c52fd12f31907bd0,,,,,,,,,,,,,,,,,,,,,,,l,1,2.01,"[""0.070"",""0.030"",""0.665"",""0.732""]","[1,0,1,1]",0,4,4,4,1,1,0,,,0,FALSE,,,,,,,,,,,,,,,,,,,,,,,,,,,,,,,
,61533302fdfe81f8a0ebe0c0,627c6fa0466067882ffca345,2022-05-12_04h23.59.521,classification_task,2021.2.3,Win32,60.16485169,627c6715c52fd12f31907bd0,,,,,,,,,,,,,,,,,,,,,,,l,1,2.2534,"[""0.070"",""0.274"",""0.324"",""0.732""]","[1,1,0,1]",0,5,5,5,1,1,0,,,0,FALSE,,,,,,,,,,,,,,,,,,,,,,,,,,,,,,,
,61533302fdfe81f8a0ebe0c0,627c6fa0466067882ffca345,2022-05-12_04h23.59.521,classification_task,2021.2.3,Win32,60.16485169,627c6715c52fd12f31907bd0,,,,,,,,,,,,,,,,,,,,,,,l,1,1.1752,"[""0.109"",""0.372"",""0.553"",""0.030""]","[1,1,1,0]",0,6,6,6,1,1,1,,,0,FALSE,,,,,,,,,,,,,,,,,,,,,,,,,,,,,,,
,61533302fdfe81f8a0ebe0c0,627c6fa0466067882ffca345,2022-05-12_04h23.59.521,classification_task,2021.2.3,Win32,60.16485169,627c6715c52fd12f31907bd0,,,,,,,,,,,,,,,,,,,,,,,a,1,2.6369,"[""0.240"",""0.429"",""0.328"",""0.916""]","[1,1,0,1]",0,7,7,7,1,0,0,,,0,FALSE,,,,,,,,,,,,,,,,,,,,,,,,,,,,,,,
,61533302fdfe81f8a0ebe0c0,627c6fa0466067882ffca345,2022-05-12_04h23.59.521,classification_task,2021.2.3,Win32,60.16485169,627c6715c52fd12f31907bd0,,,,,,,,,,,,,,,,,,,,,,,l,1,1.8845,"[""0.070"",""0.274"",""0.665"",""0.465""]","[1,1,1,0]",0,8,8,8,1,1,0,,,0,FALSE,,,,,,,,,,,,,,,,,,,,,,,,,,,,,,,
,61533302fdfe81f8a0ebe0c0,627c6fa0466067882ffca345,2022-05-12_04h23.59.521,classification_task,2021.2.3,Win32,60.16485169,627c6715c52fd12f31907bd0,,,,,,,,,,,,,,,,,,,,,,,l,0,4.4,"[""0.158"",""0.500"",""0.465"",""0.954""]","[1,1,0,1]",0,9,9,9,1,0,1,,,0,FALSE,,,,,,,,,,,,,,,,,,,,,,,,,,,,,,,
,61533302fdfe81f8a0ebe0c0,627c6fa0466067882ffca345,2022-05-12_04h23.59.521,classification_task,2021.2.3,Win32,60.16485169,627c6715c52fd12f31907bd0,,,,,,,,,,,,,,,,,,,,,,,a,1,2.8627,"[""0.240"",""0.330"",""0.602"",""0.916""]","[1,0,1,1]",0,10,10,10,1,0,0,,,0,FALSE,,,,,,,,,,,,,,,,,,,,,,,,,,,,,,,
,61533302fdfe81f8a0ebe0c0,627c6fa0466067882ffca345,2022-05-12_04h23.59.521,classification_task,2021.2.3,Win32,60.16485169,627c6715c52fd12f31907bd0,,,,,,,,,,,,,,,,,,,,,,,l,1,2.7307,"[""0.109"",""0.372"",""0.328"",""0.783""]","[1,1,0,1]",0,11,11,11,1,1,1,,,0,FALSE,,,,,,,,,,,,,,,,,,,,,,,,,,,,,,,
,61533302fdfe81f8a0ebe0c0,627c6fa0466067882ffca345,2022-05-12_04h23.59.521,classification_task,2021.2.3,Win32,60.16485169,627c6715c52fd12f31907bd0,,,,,,,,,,,,,,,,,,,,,,,l,1,1.6007,"[""0.109"",""0.465"",""0.553"",""0.783""]","[1,0,1,1]",0,12,12,12,1,1,1,,,0,FALSE,,,,,,,,,,,,,,,,,,,,,,,,,,,,,,,
,61533302fdfe81f8a0ebe0c0,627c6fa0466067882ffca345,2022-05-12_04h23.59.521,classification_task,2021.2.3,Win32,60.16485169,627c6715c52fd12f31907bd0,,,,,,,,,,,,,,,,,,,,,,,l,0,1.6235,"[""0.240"",""0.429"",""0.602"",""0.030""]","[1,1,1,0]",0,13,13,13,1,0,0,,,0,FALSE,,,,,,,,,,,,,,,,,,,,,,,,,,,,,,,
,61533302fdfe81f8a0ebe0c0,627c6fa0466067882ffca345,2022-05-12_04h23.59.521,classification_task,2021.2.3,Win32,60.16485169,627c6715c52fd12f31907bd0,,,,,,,,,,,,,,,,,,,,,,,l,0,1.5206,"[""0.158"",""0.500"",""0.837"",""0.030""]","[1,1,1,0]",0,14,14,14,1,0,1,,,0,FALSE,,,,,,,,,,,,,,,,,,,,,,,,,,,,,,,
,61533302fdfe81f8a0ebe0c0,627c6fa0466067882ffca345,2022-05-12_04h23.59.521,classification_task,2021.2.3,Win32,60.16485169,627c6715c52fd12f31907bd0,,,,,,,,,,,,,,,,,,,,,,,a,1,1.5109,"[""0.324"",""0.500"",""0.837"",""0.954""]","[0,1,1,1]",0,15,15,15,1,0,1,,,0,FALSE,,,,,,,,,,,,,,,,,,,,,,,,,,,,,,,
,61533302fdfe81f8a0ebe0c0,627c6fa0466067882ffca345,2022-05-12_04h23.59.521,classification_task,2021.2.3,Win32,60.16485169,627c6715c52fd12f31907bd0,,,,,,,,,,,,,,,,,,,,,,,l,1,1.7042,"[""0.109"",""0.372"",""0.465"",""0.783""]","[1,1,0,1]",0,16,16,16,1,1,1,,,0,FALSE,,,,,,,,,,,,,,,,,,,,,,,,,,,,,,,
,61533302fdfe81f8a0ebe0c0,627c6fa0466067882ffca345,2022-05-12_04h23.59.521,classification_task,2021.2.3,Win32,60.16485169,627c6715c52fd12f31907bd0,,,,,,,,,,,,,,,,,,,,,,,l,1,2.9193,"[""0.070"",""0.274"",""0.665"",""0.466""]","[1,1,1,0]",0,17,17,17,1,1,0,,,0,FALSE,,,,,,,,,,,,,,,,,,,,,,,,,,,,,,,
,61533302fdfe81f8a0ebe0c0,627c6fa0466067882ffca345,2022-05-12_04h23.59.521,classification_task,2021.2.3,Win32,60.16485169,627c6715c52fd12f31907bd0,,,,,,,,,,,,,,,,,,,,,,,a,0,1.5224,"[""0.109"",""0.372"",""0.553"",""0.324""]","[1,1,1,0]",0,18,18,18,1,1,1,,,0,FALSE,,,,,,,,,,,,,,,,,,,,,,,,,,,,,,,
,61533302fdfe81f8a0ebe0c0,627c6fa0466067882ffca345,2022-05-12_04h23.59.521,classification_task,2021.2.3,Win32,60.16485169,627c6715c52fd12f31907bd0,,,,,,,,,,,,,,,,,,,,,,,a,1,1.5941,"[""0.330"",""0.429"",""0.602"",""0.916""]","[0,1,1,1]",0,19,19,19,1,0,0,,,0,FALSE,,,,,,,,,,,,,,,,,,,,,,,,,,,,,,,
,61533302fdfe81f8a0ebe0c0,627c6fa0466067882ffca345,2022-05-12_04h23.59.521,classification_task,2021.2.3,Win32,60.16485169,627c6715c52fd12f31907bd0,,,,,,,,,,,,,,,,,,,,,,,l,0,1.835,"[""0.158"",""0.500"",""0.837"",""0.873""]","[1,1,1,0]",0,20,20,20,1,0,1,,,0,FALSE,,,,,,,,,,,,,,,,,,,,,,,,,,,,,,,
,61533302fdfe81f8a0ebe0c0,627c6fa0466067882ffca345,2022-05-12_04h23.59.521,classification_task,2021.2.3,Win32,60.16485169,627c6715c52fd12f31907bd0,,,,,,,,,,,,,,,,,,,,,,,l,1,1.6737,"[""0.465"",""0.274"",""0.665"",""0.732""]","[0,1,1,1]",0,21,21,21,1,1,0,,,0,FALSE,,,,,,,,,,,,,,,,,,,,,,,,,,,,,,,
,61533302fdfe81f8a0ebe0c0,627c6fa0466067882ffca345,2022-05-12_04h23.59.521,classification_task,2021.2.3,Win32,60.16485169,627c6715c52fd12f31907bd0,,,,,,,,,,,,,,,,,,,,,,,l,0,1.0195,"[""0.240"",""0.429"",""0.030"",""0.916""]","[1,1,0,1]",0,22,22,22,1,0,0,,,0,FALSE,,,,,,,,,,,,,,,,,,,,,,,,,,,,,,,
,61533302fdfe81f8a0ebe0c0,627c6fa0466067882ffca345,2022-05-12_04h23.59.521,classification_task,2021.2.3,Win32,60.16485169,627c6715c52fd12f31907bd0,,,,,,,,,,,,,,,,,,,,,,,a,1,0.8855,"[""0.158"",""0.500"",""0.335"",""0.954""]","[1,1,0,1]",0,23,23,23,1,0,1,,,0,FALSE,,,,,,,,,,,,,,,,,,,,,,,,,,,,,,,
,61533302fdfe81f8a0ebe0c0,627c6fa0466067882ffca345,2022-05-12_04h23.59.521,classification_task,2021.2.3,Win32,60.16485169,627c6715c52fd12f31907bd0,,,,,,,,,,,,,,,,,,,,,,,a,1,0.9455,"[""0.240"",""0.429"",""0.602"",""0.328""]","[1,1,1,0]",0,24,24,24,1,0,0,,,0,FALSE,,,,,,,,,,,,,,,,,,,,,,,,,,,,,,,
,61533302fdfe81f8a0ebe0c0,627c6fa0466067882ffca345,2022-05-12_04h23.59.521,classification_task,2021.2.3,Win32,60.16485169,627c6715c52fd12f31907bd0,,,,,,,,,,,,,,,,,,,,,,,l,1,1.1447,"[""0.070"",""0.274"",""0.030"",""0.732""]","[1,1,0,1]",0,25,25,25,1,1,0,,,0,FALSE,,,,,,,,,,,,,,,,,,,,,,,,,,,,,,,
,61533302fdfe81f8a0ebe0c0,627c6fa0466067882ffca345,2022-05-12_04h23.59.521,classification_task,2021.2.3,Win32,60.16485169,627c6715c52fd12f31907bd0,,,,,,,,,,,,,,,,,,,,,,,a,0,1.309,"[""0.109"",""0.880"",""0.553"",""0.783""]","[1,0,1,1]",0,26,26,26,1,1,1,,,0,FALSE,,,,,,,,,,,,,,,,,,,,,,,,,,,,,,,
,61533302fdfe81f8a0ebe0c0,627c6fa0466067882ffca345,2022-05-12_04h23.59.521,classification_task,2021.2.3,Win32,60.16485169,627c6715c52fd12f31907bd0,,,,,,,,,,,,,,,,,,,,,,,l,1,2.0041,"[""0.070"",""0.324"",""0.665"",""0.732""]","[1,0,1,1]",0,27,27,27,1,1,0,,,0,FALSE,,,,,,,,,,,,,,,,,,,,,,,,,,,,,,,
,61533302fdfe81f8a0ebe0c0,627c6fa0466067882ffca345,2022-05-12_04h23.59.521,classification_task,2021.2.3,Win32,60.16485169,627c6715c52fd12f31907bd0,,,,,,,,,,,,,,,,,,,,,,,a,1,1.5898,"[""0.328"",""0.500"",""0.837"",""0.954""]","[0,1,1,1]",0,28,28,28,1,0,1,,,0,FALSE,,,,,,,,,,,,,,,,,,,,,,,,,,,,,,,
,61533302fdfe81f8a0ebe0c0,627c6fa0466067882ffca345,2022-05-12_04h23.59.521,classification_task,2021.2.3,Win32,60.16485169,627c6715c52fd12f31907bd0,,,,,,,,,,,,,,,,,,,,,,,l,0,1.0486,"[""0.240"",""0.029"",""0.602"",""0.916""]","[1,0,1,1]",0,29,29,29,1,0,0,,,0,FALSE,,,,,,,,,,,,,,,,,,,,,,,,,,,,,,,
,61533302fdfe81f8a0ebe0c0,627c6fa0466067882ffca345,2022-05-12_04h23.59.521,classification_task,2021.2.3,Win32,60.16485169,627c6715c52fd12f31907bd0,,,,,,,,,,,,,,,,,,,,,,,a,0,1.378,"[""0.335"",""0.372"",""0.553"",""0.783""]","[0,1,1,1]",0,30,30,30,1,1,1,,,0,FALSE,,,,,,,,,,,,,,,,,,,,,,,,,,,,,,,
,61533302fdfe81f8a0ebe0c0,627c6fa0466067882ffca345,2022-05-12_04h23.59.521,classification_task,2021.2.3,Win32,60.16485169,627c6715c52fd12f31907bd0,,,,,,,,,,,,,,,,,,,,,,,a,1,1.1149,"[""0.158"",""0.873"",""0.837"",""0.954""]","[1,0,1,1]",0,31,31,31,1,0,1,,,0,FALSE,,,,,,,,,,,,,,,,,,,,,,,,,,,,,,,
,61533302fdfe81f8a0ebe0c0,627c6fa0466067882ffca345,2022-05-12_04h23.59.521,classification_task,2021.2.3,Win32,60.16485169,627c6715c52fd12f31907bd0,,,,,,,,,,,,,,,,,,,,,,,l,0,1.2497,"[""0.240"",""0.429"",""0.030"",""0.916""]","[1,1,0,1]",0,32,32,32,1,0,0,,,0,FALSE,,,,,,,,,,,,,,,,,,,,,,,,,,,,,,,
,61533302fdfe81f8a0ebe0c0,627c6fa0466067882ffca345,2022-05-12_04h23.59.521,classification_task,2021.2.3,Win32,60.16485169,627c6715c52fd12f31907bd0,,,,,,,,,,,,,,,,,,,,,,,a,1,1.2668,"[""0.240"",""0.429"",""0.602"",""0.880""]","[1,1,1,0]",0,33,33,33,1,0,0,,,0,FALSE,,,,,,,,,,,,,,,,,,,,,,,,,,,,,,,
,61533302fdfe81f8a0ebe0c0,627c6fa0466067882ffca345,2022-05-12_04h23.59.521,classification_task,2021.2.3,Win32,60.16485169,627c6715c52fd12f31907bd0,,,,,,,,,,,,,,,,,,,,,,,l,1,1.1269,"[""0.070"",""0.274"",""0.194"",""0.732""]","[1,1,0,1]",0,34,34,34,1,1,0,,,0,FALSE,,,,,,,,,,,,,,,,,,,,,,,,,,,,,,,
,61533302fdfe81f8a0ebe0c0,627c6fa0466067882ffca345,2022-05-12_04h23.59.521,classification_task,2021.2.3,Win32,60.16485169,627c6715c52fd12f31907bd0,,,,,,,,,,,,,,,,,,,,,,,l,1,2.8568,"[""0.070"",""0.329"",""0.665"",""0.732""]","[1,0,1,1]",0,35,35,35,1,1,0,,,0,FALSE,,,,,,,,,,,,,,,,,,,,,,,,,,,,,,,
,61533302fdfe81f8a0ebe0c0,627c6fa0466067882ffca345,2022-05-12_04h23.59.521,classification_task,2021.2.3,Win32,60.16485169,627c6715c52fd12f31907bd0,,,,,,,,,,,,,,,,,,,,,,,a,1,1.5956,"[""0.029"",""0.500"",""0.837"",""0.954""]","[0,1,1,1]",0,36,36,36,1,0,1,,,0,FALSE,,,,,,,,,,,,,,,,,,,,,,,,,,,,,,,
,61533302fdfe81f8a0ebe0c0,627c6fa0466067882ffca345,2022-05-12_04h23.59.521,classification_task,2021.2.3,Win32,60.16485169,627c6715c52fd12f31907bd0,,,,,,,,,,,,,,,,,,,,,,,l,1,1.1611,"[""0.109"",""0.034"",""0.553"",""0.783""]","[1,0,1,1]",0,37,37,37,1,1,1,,,0,FALSE,,,,,,,,,,,,,,,,,,,,,,,,,,,,,,,
,61533302fdfe81f8a0ebe0c0,627c6fa0466067882ffca345,2022-05-12_04h23.59.521,classification_task,2021.2.3,Win32,60.16485169,627c6715c52fd12f31907bd0,,,,,,,,,,,,,,,,,,,,,,,a,1,1.2353,"[""0.158"",""0.192"",""0.837"",""0.954""]","[1,0,1,1]",0,38,38,38,1,0,1,,,0,FALSE,,,,,,,,,,,,,,,,,,,,,,,,,,,,,,,
,61533302fdfe81f8a0ebe0c0,627c6fa0466067882ffca345,2022-05-12_04h23.59.521,classification_task,2021.2.3,Win32,60.16485169,627c6715c52fd12f31907bd0,,,,,,,,,,,,,,,,,,,,,,,l,1,0.942,"[""0.324"",""0.372"",""0.553"",""0.783""]","[0,1,1,1]",0,39,39,39,1,1,1,,,0,FALSE,,,,,,,,,,,,,,,,,,,,,,,,,,,,,,,
,61533302fdfe81f8a0ebe0c0,627c6fa0466067882ffca345,2022-05-12_04h23.59.521,classification_task,2021.2.3,Win32,60.16485169,627c6715c52fd12f31907bd0,,,,,,,,,,,,,,,,,,,,,,,a,0,1.3115,"[""0.328"",""0.274"",""0.665"",""0.732""]","[0,1,1,1]",0,40,40,40,1,1,0,,,0,FALSE,,,,,,,,,,,,,,,,,,,,,,,,,,,,,,,
,61533302fdfe81f8a0ebe0c0,627c6fa0466067882ffca345,2022-05-12_04h23.59.521,classification_task,2021.2.3,Win32,60.16485169,627c6715c52fd12f31907bd0,,,,,,,,,,,,,,,,,,,,,,,l,1,0.9536,"[""0.109"",""0.372"",""0.553"",""0.034""]","[1,1,1,0]",0,41,41,41,1,1,1,,,0,FALSE,,,,,,,,,,,,,,,,,,,,,,,,,,,,,,,
,61533302fdfe81f8a0ebe0c0,627c6fa0466067882ffca345,2022-05-12_04h23.59.521,classification_task,2021.2.3,Win32,60.16485169,627c6715c52fd12f31907bd0,,,,,,,,,,,,,,,,,,,,,,,a,1,1.5117,"[""0.194"",""0.429"",""0.602"",""0.916""]","[0,1,1,1]",0,42,42,42,1,0,0,,,0,FALSE,,,,,,,,,,,,,,,,,,,,,,,,,,,,,,,
,61533302fdfe81f8a0ebe0c0,627c6fa0466067882ffca345,2022-05-12_04h23.59.521,classification_task,2021.2.3,Win32,60.16485169,627c6715c52fd12f31907bd0,,,,,,,,,,,,,,,,,,,,,,,a,1,1.1229,"[""0.158"",""0.500"",""0.466"",""0.954""]","[1,1,0,1]",0,43,43,43,1,0,1,,,0,FALSE,,,,,,,,,,,,,,,,,,,,,,,,,,,,,,,
,61533302fdfe81f8a0ebe0c0,627c6fa0466067882ffca345,2022-05-12_04h23.59.521,classification_task,2021.2.3,Win32,60.16485169,627c6715c52fd12f31907bd0,,,,,,,,,,,,,,,,,,,,,,,a,1,1.2373,"[""0.158"",""0.500"",""0.837"",""0.324""]","[1,1,1,0]",0,44,44,44,1,0,1,,,0,FALSE,,,,,,,,,,,,,,,,,,,,,,,,,,,,,,,
,61533302fdfe81f8a0ebe0c0,627c6fa0466067882ffca345,2022-05-12_04h23.59.521,classification_task,2021.2.3,Win32,60.16485169,627c6715c52fd12f31907bd0,,,,,,,,,,,,,,,,,,,,,,,l,0,3.917,"[""0.240"",""0.330"",""0.602"",""0.916""]","[1,0,1,1]",0,45,45,45,1,0,0,,,0,FALSE,,,,,,,,,,,,,,,,,,,,,,,,,,,,,,,
,61533302fdfe81f8a0ebe0c0,627c6fa0466067882ffca345,2022-05-12_04h23.59.521,classification_task,2021.2.3,Win32,60.16485169,627c6715c52fd12f31907bd0,,,,,,,,,,,,,,,,,,,,,,,l,1,1.9172,"[""0.109"",""0.372"",""0.030"",""0.783""]","[1,1,0,1]",0,46,46,46,1,1,1,,,0,FALSE,,,,,,,,,,,,,,,,,,,,,,,,,,,,,,,
,61533302fdfe81f8a0ebe0c0,627c6fa0466067882ffca345,2022-05-12_04h23.59.521,classification_task,2021.2.3,Win32,60.16485169,627c6715c52fd12f31907bd0,,,,,,,,,,,,,,,,,,,,,,,l,1,1.3752,"[""0.070"",""0.274"",""0.665"",""0.329""]","[1,1,1,0]",0,47,47,47,1,1,0,,,0,FALSE,,,,,,,,,,,,,,,,,,,,,,,,,,,,,,,
,61533302fdfe81f8a0ebe0c0,627c6fa0466067882ffca345,2022-05-12_04h23.59.521,classification_task,2021.2.3,Win32,60.16485169,627c6715c52fd12f31907bd0,,,,,,,,,,,,,,,,,,,,,,,l,1,1.3389,"[""0.109"",""0.372"",""0.029"",""0.783""]","[1,1,0,1]",0,48,48,48,1,1,1,,,0,FALSE,,,,,,,,,,,,,,,,,,,,,,,,,,,,,,,
,61533302fdfe81f8a0ebe0c0,627c6fa0466067882ffca345,2022-05-12_04h23.59.521,classification_task,2021.2.3,Win32,60.16485169,627c6715c52fd12f31907bd0,,,,,,,,,,,,,,,,,,,,,,,a,1,3.1024,"[""0.880"",""0.429"",""0.602"",""0.916""]","[0,1,1,1]",0,49,49,49,1,0,0,,,0,FALSE,,,,,,,,,,,,,,,,,,,,,,,,,,,,,,,
,61533302fdfe81f8a0ebe0c0,627c6fa0466067882ffca345,2022-05-12_04h23.59.521,classification_task,2021.2.3,Win32,60.16485169,627c6715c52fd12f31907bd0,,,,,,,,,,,,,,,,,,,,,,,l,0,1.3351,"[""0.240"",""0.029"",""0.602"",""0.916""]","[1,0,1,1]",0,50,50,50,1,0,0,,,0,FALSE,,,,,,,,,,,,,,,,,,,,,,,,,,,,,,,
,61533302fdfe81f8a0ebe0c0,627c6fa0466067882ffca345,2022-05-12_04h23.59.521,classification_task,2021.2.3,Win32,60.16485169,627c6715c52fd12f31907bd0,,,,,,,,,,,,,,,,,,,,,,,a,1,1.6726,"[""0.240"",""0.429"",""0.602"",""0.329""]","[1,1,1,0]",0,51,51,51,1,0,0,,,0,FALSE,,,,,,,,,,,,,,,,,,,,,,,,,,,,,,,
,61533302fdfe81f8a0ebe0c0,627c6fa0466067882ffca345,2022-05-12_04h23.59.521,classification_task,2021.2.3,Win32,60.16485169,627c6715c52fd12f31907bd0,,,,,,,,,,,,,,,,,,,,,,,a,1,1.821,"[""0.465"",""0.500"",""0.837"",""0.954""]","[0,1,1,1]",0,52,52,52,1,0,1,,,0,FALSE,,,,,,,,,,,,,,,,,,,,,,,,,,,,,,,
,61533302fdfe81f8a0ebe0c0,627c6fa0466067882ffca345,2022-05-12_04h23.59.521,classification_task,2021.2.3,Win32,60.16485169,627c6715c52fd12f31907bd0,,,,,,,,,,,,,,,,,,,,,,,l,1,1.6152,"[""0.109"",""0.335"",""0.553"",""0.783""]","[1,0,1,1]",0,53,53,53,1,1,1,,,0,FALSE,,,,,,,,,,,,,,,,,,,,,,,,,,,,,,,
,61533302fdfe81f8a0ebe0c0,627c6fa0466067882ffca345,2022-05-12_04h23.59.521,classification_task,2021.2.3,Win32,60.16485169,627c6715c52fd12f31907bd0,,,,,,,,,,,,,,,,,,,,,,,a,0,1.5213,"[""0.324"",""0.372"",""0.553"",""0.783""]","[0,1,1,1]",0,54,54,54,1,1,1,,,0,FALSE,,,,,,,,,,,,,,,,,,,,,,,,,,,,,,,
,61533302fdfe81f8a0ebe0c0,627c6fa0466067882ffca345,2022-05-12_04h23.59.521,classification_task,2021.2.3,Win32,60.16485169,627c6715c52fd12f31907bd0,,,,,,,,,,,,,,,,,,,,,,,a,0,1.6772,"[""0.873"",""0.274"",""0.665"",""0.732""]","[0,1,1,1]",0,55,55,55,1,1,0,,,0,FALSE,,,,,,,,,,,,,,,,,,,,,,,,,,,,,,,
,61533302fdfe81f8a0ebe0c0,627c6fa0466067882ffca345,2022-05-12_04h23.59.521,classification_task,2021.2.3,Win32,60.16485169,627c6715c52fd12f31907bd0,,,,,,,,,,,,,,,,,,,,,,,a,1,2.4021,"[""0.158"",""0.500"",""0.194"",""0.954""]","[1,1,0,1]",0,56,56,56,1,0,1,,,0,FALSE,,,,,,,,,,,,,,,,,,,,,,,,,,,,,,,
,61533302fdfe81f8a0ebe0c0,627c6fa0466067882ffca345,2022-05-12_04h23.59.521,classification_task,2021.2.3,Win32,60.16485169,627c6715c52fd12f31907bd0,,,,,,,,,,,,,,,,,,,,,,,a,0,2.5875,"[""0.070"",""0.030"",""0.665"",""0.732""]","[1,0,1,1]",0,57,57,57,1,1,0,,,0,FALSE,,,,,,,,,,,,,,,,,,,,,,,,,,,,,,,
,61533302fdfe81f8a0ebe0c0,627c6fa0466067882ffca345,2022-05-12_04h23.59.521,classification_task,2021.2.3,Win32,60.16485169,627c6715c52fd12f31907bd0,,,,,,,,,,,,,,,,,,,,,,,l,1,2.1831,"[""0.070"",""0.274"",""0.665"",""0.034""]","[1,1,1,0]",0,58,58,58,1,1,0,,,0,FALSE,,,,,,,,,,,,,,,,,,,,,,,,,,,,,,,
,61533302fdfe81f8a0ebe0c0,627c6fa0466067882ffca345,2022-05-12_04h23.59.521,classification_task,2021.2.3,Win32,60.16485169,627c6715c52fd12f31907bd0,,,,,,,,,,,,,,,,,,,,,,,a,0,2.8717,"[""0.070"",""0.274"",""0.324"",""0.732""]","[1,1,0,1]",0,59,59,59,1,1,0,,,0,FALSE,,,,,,,,,,,,,,,,,,,,,,,,,,,,,,,
,61533302fdfe81f8a0ebe0c0,627c6fa0466067882ffca345,2022-05-12_04h23.59.521,classification_task,2021.2.3,Win32,60.16485169,627c6715c52fd12f31907bd0,,,,,,,,,,,,,,,,,,,,,,,a,1,4.1205,"[""0.158"",""0.500"",""0.837"",""0.873""]","[1,1,1,0]",0,60,60,60,1,0,1,,,0,FALSE,,,,,,,,,,,,,,,,,,,,,,,,,,,,,,,
,61533302fdfe81f8a0ebe0c0,627c6fa0466067882ffca345,2022-05-12_04h23.59.521,classification_task,2021.2.3,Win32,60.16485169,627c6715c52fd12f31907bd0,,,,,,,,,,,,,,,,,,,,,,,l,0,1.6091,"[""0.240"",""0.429"",""0.324"",""0.916""]","[1,1,0,1]",0,61,61,61,1,0,0,,,0,FALSE,,,,,,,,,,,,,,,,,,,,,,,,,,,,,,,
,61533302fdfe81f8a0ebe0c0,627c6fa0466067882ffca345,2022-05-12_04h23.59.521,classification_task,2021.2.3,Win32,60.16485169,627c6715c52fd12f31907bd0,,,,,,,,,,,,,,,,,,,,,,,l,1,1.5697,"[""0.109"",""0.372"",""0.553"",""0.873""]","[1,1,1,0]",0,62,62,62,1,1,1,,,0,FALSE,,,,,,,,,,,,,,,,,,,,,,,,,,,,,,,
,61533302fdfe81f8a0ebe0c0,627c6fa0466067882ffca345,2022-05-12_04h23.59.521,classification_task,2021.2.3,Win32,60.16485169,627c6715c52fd12f31907bd0,,,,,,,,,,,,,,,,,,,,,,,l,0,2.1221,"[""0.158"",""0.465"",""0.837"",""0.954""]","[1,0,1,1]",0,63,63,63,1,0,1,,,0,FALSE,,,,,,,,,,,,,,,,,,,,,,,,,,,,,,,
,61533302fdfe81f8a0ebe0c0,627c6fa0466067882ffca345,2022-05-12_04h23.59.521,classification_task,2021.2.3,Win32,60.16485169,627c6715c52fd12f31907bd0,,,,,,,,,,,,,,,,,,,,,,,,,,,,,,,,,,,,,,,0, ,,0,,,0,2,2,2,1,2,3,,,,,,,,,,,,,,,,,,
,61533302fdfe81f8a0ebe0c0,627c6fa0466067882ffca345,2022-05-12_04h23.59.521,classification_task,2021.2.3,Win32,60.16485169,627c6715c52fd12f31907bd0,,,,,,,,,,,,,,,,,,,,,,,,,,,,,,,,,,,,,,,1,  ,,0,,,0,2,2,2,1,2,3,,,,,,,,,,,,,,,,,,
,61533302fdfe81f8a0ebe0c0,627c6fa0466067882ffca345,2022-05-12_04h23.59.521,classification_task,2021.2.3,Win32,60.16485169,627c6715c52fd12f31907bd0,,,,,,,,,,,,,,,,,,,,,,,,,,,,,,,,,,,,,,,2,  ,,0,,,0,2,2,2,1,2,3,,,,,,,,,,,,,,,,,,
,61533302fdfe81f8a0ebe0c0,627c6fa0466067882ffca345,2022-05-12_04h23.59.521,classification_task,2021.2.3,Win32,60.16485169,627c6715c52fd12f31907bd0,,,,,,,,,,,,,,,,,,,,,,,,,,,,,,,,,,,,,,,,,,,,,0,2,2,2,1,,3,,,,,,,,,,,,,,,,,,
,61533302fdfe81f8a0ebe0c0,627c6fa0466067882ffca345,2022-05-12_04h23.59.521,classification_task,2021.2.3,Win32,60.16485169,627c6715c52fd12f31907bd0,,,,,,,,,,,,,,,,,,,,,,,,,,,,,,,,,,,,,,,,,,,,,,,,,,,,,I believe the aid is a competent performer,,0.7,0,5,1024.4715,0,0,0,0,1,0,,,,,
,61533302fdfe81f8a0ebe0c0,627c6fa0466067882ffca345,2022-05-12_04h23.59.521,classification_task,2021.2.3,Win32,60.16485169,627c6715c52fd12f31907bd0,,,,,,,,,,,,,,,,,,,,,,,,,,,,,,,,,,,,,,,,,,,,,,,,,,,,,I trust the aid,,0.7,0,5,1026.416,0,0,0,0,1,0,,,,,
,61533302fdfe81f8a0ebe0c0,627c6fa0466067882ffca345,2022-05-12_04h23.59.521,classification_task,2021.2.3,Win32,60.16485169,627c6715c52fd12f31907bd0,,,,,,,,,,,,,,,,,,,,,,,,,,,,,,,,,,,,,,,,,,,,,,,,,,,,,I have confidence in the advice given by the aid,,0.7,0,5,1028.2908,0,0,0,0,1,0,,,,,
,61533302fdfe81f8a0ebe0c0,627c6fa0466067882ffca345,2022-05-12_04h23.59.521,classification_task,2021.2.3,Win32,60.16485169,627c6715c52fd12f31907bd0,,,,,,,,,,,,,,,,,,,,,,,,,,,,,,,,,,,,,,,,,,,,,,,,,,,,,I can depend on the aid,,0.7,0,5,1030.8083,0,0,0,0,1,0,,,,,
,61533302fdfe81f8a0ebe0c0,627c6fa0466067882ffca345,2022-05-12_04h23.59.521,classification_task,2021.2.3,Win32,60.16485169,627c6715c52fd12f31907bd0,,,,,,,,,,,,,,,,,,,,,,,,,,,,,,,,,,,,,,,,,,,,,,,,,,,,,I can rely on the aid to behave in consistent ways,,0.7,0,4,1034.0844,0,0,0,0,1,0,,,,,
,61533302fdfe81f8a0ebe0c0,627c6fa0466067882ffca345,2022-05-12_04h23.59.521,classification_task,2021.2.3,Win32,60.16485169,627c6715c52fd12f31907bd0,,,,,,,,,,,,,,,,,,,,,,,,,,,,,,,,,,,,,,,,,,,,,,,,,,,,,I can rely on the aid to do its best every time I take its advice,,0.7,0,4,1039.4437,0,0,0,0,1,0,,,,,
,61533302fdfe81f8a0ebe0c0,627c6fa0466067882ffca345,2022-05-12_04h23.59.521,classification_task,2021.2.3,Win32,60.16485169,627c6715c52fd12f31907bd0,,,,,,,,,,,,,,,,,,,,,,,,,,,,,,,,,,,,,,,,,,,,,,,,,,,,,"On trials you completed with assistance from the aid, how frequently did you think the aid was correct?",,0.7,0,90,,0,0,0,0,1,0,,,,,
,61533302fdfe81f8a0ebe0c0,627c6fa0466067882ffca345,2022-05-12_04h23.59.521,classification_task,2021.2.3,Win32,60.16485169,627c6715c52fd12f31907bd0,,,,,,,,,,,,,,,,,,,,,,,,,,,,,,,,,,,,,,,,,,,,,,,,,,,,,"On trials you completed without the aid, how frequently did you think you were correct?",,0.7,0,50,,0,0,0,0,1,0,,,,,
,61533302fdfe81f8a0ebe0c0,627c6fa0466067882ffca345,2022-05-12_04h23.59.521,classification_task,2021.2.3,Win32,60.16485169,627c6715c52fd12f31907bd0,,,,,,,,,,,,,,,,,,,,,,,,,,,,,,,,,,,,,,,,,,,,,,,,,,,,,,,,,,,0,0,0,0,1,,,,,,
,61533302fdfe81f8a0ebe0c0,627c6fa0466067882ffca345,2022-05-12_04h23.59.521,classification_task,2021.2.3,Win32,60.16485169,627c6715c52fd12f31907bd0,,,,,,,,,,,,,,,,,,,,,,,,,,,,,,,,,,,,,,,,,,,,,,,,,,,,,,,,,,,,,,,,,space,9.7052,1070.5113,,
,61533302fdfe81f8a0ebe0c0,627c6fa0466067882ffca345,2022-05-12_04h23.59.521,classification_task,2021.2.3,Win32,60.16485169,627c6715c52fd12f31907bd0,,,,,,,,,,,,,,,,,,,,,,,,,,,,,,,,,,,,,,,,,,,,,,,,,,,,,,,,,,,,,,,,,,,,"Mozilla/5.0 (Windows NT 10.0; Win64; x64) AppleWebKit/537.36 (KHTML, like Gecko) Chrome/101.0.4951.64 Safari/537.36",
,61533302fdfe81f8a0ebe0c0,627c6fa0466067882ffca345,2022-05-12_04h23.59.521,classification_task,2021.2.3,Win32,60.16485169,627c6715c52fd12f31907bd0,,,,,,,,,,,,,,,,,,,,,,,,,,,,,,,,,,,,,,,,,,,,,,,,,,,,,,,,,,,,,,,,,,,,,HIGHLIGHT
