usingWebGL,participant,session,date,expName,psychopyVersion,OS,frameRate,PROLIFIC_PID,STUDY_ID,SESSION_ID,signatures_friend,signatures_foe,band_ranges_top,band_ranges_bottom,formitemText,formtype,formundefined,formitemWidth,formindex,formresponse,formrt,key_resp_2.keys,key_resp_2.rt,tute_resp.keys,tute_resp.rt,tutorial.thisRepN,tutorial.thisTrialN,tutorial.thisN,tutorial.thisIndex,tutorial.ran,key_resp_4.keys,key_resp_4.rt,key_resp.keys,key_resp.corr,lines_presented,is_signal_presented,trials.thisRepN,trials.thisTrialN,trials.thisN,trials.thisIndex,trials.ran,vessel,active_band,lines,is_signal,supported_pos,catch_trial,key_resp.rt,debrief_formindex,debrief_formitemText,debrief_formtype,debrief_formitemWidth,debrief_formresponse,debrief_formrt,phases.thisRepN,phases.thisTrialN,phases.thisN,phases.thisIndex,phases.ran,phases.order,phase,key_resp_3.keys,trustitemText,trusttype,trustitemWidth,trustindex,trustresponse,trustrt,support_status.thisRepN,support_status.thisTrialN,support_status.thisN,support_status.thisIndex,support_status.ran,support_status.order,key_resp_5.keys,key_resp_5.rt,globalClockTime,userAgent
TRUE,615578cafeaf36e7b26e6369,001,2022-04-29_03h08.17.502,classification_task,2021.2.3,Win32,72.72198386,615578cafeaf36e7b26e6369,626b377229c10585ec392f89,626b3a7afef25c8db3b72570,,,,,,,,,,,,,,,,,,,,,,,,,,,,,,,,,,,,,,,,,,,,,,,,,,,,,,,,,,,,,,,,,,,,
,615578cafeaf36e7b26e6369,001,2022-04-29_03h08.17.502,classification_task,2021.2.3,Win32,72.72198386,615578cafeaf36e7b26e6369,626b377229c10585ec392f89,626b3a7afef25c8db3b72570,"[[""0.219"",""0.469"",""0.646"",""0.906""],[""0.168"",""0.366"",""0.612"",""0.868""]]","[[""0.128"",""0.410"",""0.549"",""0.746""],[""0.048"",""0.326"",""0.509"",""0.682""]]","[1,10]","[100,1000]",Video game experience,,,0.7,0,,,,,,,,,,,,,,,,,,,,,,,,,,,,,,,,,,,,,,,,,,,,,,,,,,,,,,,,,,,
,615578cafeaf36e7b26e6369,001,2022-04-29_03h08.17.502,classification_task,2021.2.3,Win32,72.72198386,615578cafeaf36e7b26e6369,626b377229c10585ec392f89,626b3a7afef25c8db3b72570,,,,,Approximately how many hours did you spend playing video games in the last week?,,,0.7,0,3,,,,,,,,,,,,,,,,,,,,,,,,,,,,,,,,,,,,,,,,,,,,,,,,,,,,,,,,,,
,615578cafeaf36e7b26e6369,001,2022-04-29_03h08.17.502,classification_task,2021.2.3,Win32,72.72198386,615578cafeaf36e7b26e6369,626b377229c10585ec392f89,626b3a7afef25c8db3b72570,,,,,"Which game did you play the most this year? (Enter ""None"" if you didn't play any)",,,0.7,0,Call of Duty,,,,,,,,,,,,,,,,,,,,,,,,,,,,,,,,,,,,,,,,,,,,,,,,,,,,,,,,,,
,615578cafeaf36e7b26e6369,001,2022-04-29_03h08.17.502,classification_task,2021.2.3,Win32,72.72198386,615578cafeaf36e7b26e6369,626b377229c10585ec392f89,626b3a7afef25c8db3b72570,,,,,Visual perception,,,0.7,0,,,,,,,,,,,,,,,,,,,,,,,,,,,,,,,,,,,,,,,,,,,,,,,,,,,,,,,,,,,
,615578cafeaf36e7b26e6369,001,2022-04-29_03h08.17.502,classification_task,2021.2.3,Win32,72.72198386,615578cafeaf36e7b26e6369,626b377229c10585ec392f89,626b3a7afef25c8db3b72570,,,,,Do you have any form of color blindness?,,,0.7,0,Yes,54.7076,,,,,,,,,,,,,,,,,,,,,,,,,,,,,,,,,,,,,,,,,,,,,,,,,,,,,,,,,
,615578cafeaf36e7b26e6369,001,2022-04-29_03h08.17.502,classification_task,2021.2.3,Win32,72.72198386,615578cafeaf36e7b26e6369,626b377229c10585ec392f89,626b3a7afef25c8db3b72570,,,,,Do you use software to change the colour temperature of your screen (e.g. f.lux)?,,,0.7,0,No,57.8124,,,,,,,,,,,,,,,,,,,,,,,,,,,,,,,,,,,,,,,,,,,,,,,,,,,,,,,,,
,615578cafeaf36e7b26e6369,001,2022-04-29_03h08.17.502,classification_task,2021.2.3,Win32,72.72198386,615578cafeaf36e7b26e6369,626b377229c10585ec392f89,626b3a7afef25c8db3b72570,,,,,,,,,,,,space,52.176,space,14.7794,0,0,0,0,1,,,,,,,,,,,,,,,,,,,,,,,,,,,,,,,,,,,,,,,,,,,,,,,,
,615578cafeaf36e7b26e6369,001,2022-04-29_03h08.17.502,classification_task,2021.2.3,Win32,72.72198386,615578cafeaf36e7b26e6369,626b377229c10585ec392f89,626b3a7afef25c8db3b72570,,,,,,,,,,,,,,space,16.0655,1,0,1,0,1,,,,,,,,,,,,,,,,,,,,,,,,,,,,,,,,,,,,,,,,,,,,,,,,
,615578cafeaf36e7b26e6369,001,2022-04-29_03h08.17.502,classification_task,2021.2.3,Win32,72.72198386,615578cafeaf36e7b26e6369,626b377229c10585ec392f89,626b3a7afef25c8db3b72570,,,,,,,,,,,,,,space,55.6087,2,0,2,0,1,,,,,,,,,,,,,,,,,,,,,,,,,,,,,,,,,,,,,,,,,,,,,,,,
,615578cafeaf36e7b26e6369,001,2022-04-29_03h08.17.502,classification_task,2021.2.3,Win32,72.72198386,615578cafeaf36e7b26e6369,626b377229c10585ec392f89,626b3a7afef25c8db3b72570,,,,,,,,,,,,,,space,14.1702,3,0,3,0,1,,,,,,,,,,,,,,,,,,,,,,,,,,,,,,,,,,,,,,,,,,,,,,,,
,615578cafeaf36e7b26e6369,001,2022-04-29_03h08.17.502,classification_task,2021.2.3,Win32,72.72198386,615578cafeaf36e7b26e6369,626b377229c10585ec392f89,626b3a7afef25c8db3b72570,,,,,,,,,,,,,,space,18.8699,4,0,4,0,1,,,,,,,,,,,,,,,,,,,,,,,,,,,,,,,,,,,,,,,,,,,,,,,,
,615578cafeaf36e7b26e6369,001,2022-04-29_03h08.17.502,classification_task,2021.2.3,Win32,72.72198386,615578cafeaf36e7b26e6369,626b377229c10585ec392f89,626b3a7afef25c8db3b72570,,,,,,,,,,,,,,,,,,,,,space,22.261,,0,"[""0.790"",""0.326"",""0.509"",""0.682""]","[0,1,1,1]",0,0,0,0,1,1,1,,,1,FALSE,,,,,,,,,,,,,,,,,,,,,,,,,,,,,,,
,615578cafeaf36e7b26e6369,001,2022-04-29_03h08.17.502,classification_task,2021.2.3,Win32,72.72198386,615578cafeaf36e7b26e6369,626b377229c10585ec392f89,626b3a7afef25c8db3b72570,,,,,,,,,,,,,,,,,,,,,,,l,1,"[""0.048"",""0.326"",""0.816"",""0.682""]","[1,1,0,1]",0,1,1,1,1,1,1,,,1,FALSE,4.1313,,,,,,,,,,,,,,,,,,,,,,,,,,,,,,
,615578cafeaf36e7b26e6369,001,2022-04-29_03h08.17.502,classification_task,2021.2.3,Win32,72.72198386,615578cafeaf36e7b26e6369,626b377229c10585ec392f89,626b3a7afef25c8db3b72570,,,,,,,,,,,,,,,,,,,,,,,a,1,"[""0.219"",""0.469"",""0.257"",""0.906""]","[1,1,0,1]",0,2,2,2,1,0,0,,,1,FALSE,4.9004,,,,,,,,,,,,,,,,,,,,,,,,,,,,,,
,615578cafeaf36e7b26e6369,001,2022-04-29_03h08.17.502,classification_task,2021.2.3,Win32,72.72198386,615578cafeaf36e7b26e6369,626b377229c10585ec392f89,626b3a7afef25c8db3b72570,,,,,,,,,,,,,,,,,,,,,,,l,1,"[""0.048"",""0.326"",""0.509"",""0.790""]","[1,1,1,0]",0,3,3,3,1,1,1,,,1,FALSE,4.6544,,,,,,,,,,,,,,,,,,,,,,,,,,,,,,
,615578cafeaf36e7b26e6369,001,2022-04-29_03h08.17.502,classification_task,2021.2.3,Win32,72.72198386,615578cafeaf36e7b26e6369,626b377229c10585ec392f89,626b3a7afef25c8db3b72570,,,,,,,,,,,,,,,,,,,,,,,a,1,"[""0.168"",""0.366"",""0.612"",""0.827""]","[1,1,1,0]",0,4,4,4,1,0,1,,,1,FALSE,6.5164,,,,,,,,,,,,,,,,,,,,,,,,,,,,,,
,615578cafeaf36e7b26e6369,001,2022-04-29_03h08.17.502,classification_task,2021.2.3,Win32,72.72198386,615578cafeaf36e7b26e6369,626b377229c10585ec392f89,626b3a7afef25c8db3b72570,,,,,,,,,,,,,,,,,,,,,,,a,1,"[""0.168"",""0.817"",""0.612"",""0.868""]","[1,0,1,1]",0,5,5,5,1,0,1,,,1,FALSE,7.6179,,,,,,,,,,,,,,,,,,,,,,,,,,,,,,
,615578cafeaf36e7b26e6369,001,2022-04-29_03h08.17.502,classification_task,2021.2.3,Win32,72.72198386,615578cafeaf36e7b26e6369,626b377229c10585ec392f89,626b3a7afef25c8db3b72570,,,,,,,,,,,,,,,,,,,,,,,a,1,"[""0.219"",""0.469"",""0.646"",""0.817""]","[1,1,1,0]",0,6,6,6,1,0,0,,,1,FALSE,7.0723,,,,,,,,,,,,,,,,,,,,,,,,,,,,,,
,615578cafeaf36e7b26e6369,001,2022-04-29_03h08.17.502,classification_task,2021.2.3,Win32,72.72198386,615578cafeaf36e7b26e6369,626b377229c10585ec392f89,626b3a7afef25c8db3b72570,,,,,,,,,,,,,,,,,,,,,,,l,1,"[""0.128"",""0.410"",""0.808"",""0.746""]","[1,1,0,1]",0,7,7,7,1,1,0,,,1,FALSE,3.5325,,,,,,,,,,,,,,,,,,,,,,,,,,,,,,
,615578cafeaf36e7b26e6369,001,2022-04-29_03h08.17.502,classification_task,2021.2.3,Win32,72.72198386,615578cafeaf36e7b26e6369,626b377229c10585ec392f89,626b3a7afef25c8db3b72570,,,,,,,,,,,,,,,,,,,,,,,,0,"[""0.257"",""0.366"",""0.612"",""0.868""]","[0,1,1,1]",0,8,8,8,1,0,1,,,1,FALSE,,,,,,,,,,,,,,,,,,,,,,,,,,,,,,,
,615578cafeaf36e7b26e6369,001,2022-04-29_03h08.17.502,classification_task,2021.2.3,Win32,72.72198386,615578cafeaf36e7b26e6369,626b377229c10585ec392f89,626b3a7afef25c8db3b72570,,,,,,,,,,,,,,,,,,,,,,,a,1,"[""0.269"",""0.469"",""0.646"",""0.906""]","[0,1,1,1]",0,9,9,9,1,0,0,,,1,FALSE,6.5709,,,,,,,,,,,,,,,,,,,,,,,,,,,,,,
,615578cafeaf36e7b26e6369,001,2022-04-29_03h08.17.502,classification_task,2021.2.3,Win32,72.72198386,615578cafeaf36e7b26e6369,626b377229c10585ec392f89,626b3a7afef25c8db3b72570,,,,,,,,,,,,,,,,,,,,,,,l,1,"[""0.128"",""0.257"",""0.549"",""0.746""]","[1,0,1,1]",0,10,10,10,1,1,0,,,1,FALSE,5.7158,,,,,,,,,,,,,,,,,,,,,,,,,,,,,,
,615578cafeaf36e7b26e6369,001,2022-04-29_03h08.17.502,classification_task,2021.2.3,Win32,72.72198386,615578cafeaf36e7b26e6369,626b377229c10585ec392f89,626b3a7afef25c8db3b72570,,,,,,,,,,,,,,,,,,,,,,,l,1,"[""0.091"",""0.410"",""0.549"",""0.746""]","[0,1,1,1]",0,11,11,11,1,1,0,,,1,FALSE,9.5443,,,,,,,,,,,,,,,,,,,,,,,,,,,,,,
,615578cafeaf36e7b26e6369,001,2022-04-29_03h08.17.502,classification_task,2021.2.3,Win32,72.72198386,615578cafeaf36e7b26e6369,626b377229c10585ec392f89,626b3a7afef25c8db3b72570,,,,,,,,,,,,,,,,,,,,,,,a,1,"[""0.219"",""0.827"",""0.646"",""0.906""]","[1,0,1,1]",0,12,12,12,1,0,0,,,1,FALSE,7.5979,,,,,,,,,,,,,,,,,,,,,,,,,,,,,,
,615578cafeaf36e7b26e6369,001,2022-04-29_03h08.17.502,classification_task,2021.2.3,Win32,72.72198386,615578cafeaf36e7b26e6369,626b377229c10585ec392f89,626b3a7afef25c8db3b72570,,,,,,,,,,,,,,,,,,,,,,,l,1,"[""0.128"",""0.410"",""0.549"",""0.093""]","[1,1,1,0]",0,13,13,13,1,1,0,,,1,FALSE,5.2131,,,,,,,,,,,,,,,,,,,,,,,,,,,,,,
,615578cafeaf36e7b26e6369,001,2022-04-29_03h08.17.502,classification_task,2021.2.3,Win32,72.72198386,615578cafeaf36e7b26e6369,626b377229c10585ec392f89,626b3a7afef25c8db3b72570,,,,,,,,,,,,,,,,,,,,,,,l,1,"[""0.048"",""0.975"",""0.509"",""0.682""]","[1,0,1,1]",0,14,14,14,1,1,1,,,1,FALSE,8.8545,,,,,,,,,,,,,,,,,,,,,,,,,,,,,,
,615578cafeaf36e7b26e6369,001,2022-04-29_03h08.17.502,classification_task,2021.2.3,Win32,72.72198386,615578cafeaf36e7b26e6369,626b377229c10585ec392f89,626b3a7afef25c8db3b72570,,,,,,,,,,,,,,,,,,,,,,,,0,"[""0.168"",""0.366"",""0.290"",""0.868""]","[1,1,0,1]",0,15,15,15,1,0,1,,,1,FALSE,,,,,,,,,,,,,,,,,,,,,,,,,,,,,,,
,615578cafeaf36e7b26e6369,001,2022-04-29_03h08.17.502,classification_task,2021.2.3,Win32,72.72198386,615578cafeaf36e7b26e6369,626b377229c10585ec392f89,626b3a7afef25c8db3b72570,,,,,,,,,,,,,,,,,,,,,,,l,1,"[""0.048"",""0.326"",""0.091"",""0.682""]","[1,1,0,1]",0,16,16,16,1,1,1,,,1,FALSE,4.1411,,,,,,,,,,,,,,,,,,,,,,,,,,,,,,
,615578cafeaf36e7b26e6369,001,2022-04-29_03h08.17.502,classification_task,2021.2.3,Win32,72.72198386,615578cafeaf36e7b26e6369,626b377229c10585ec392f89,626b3a7afef25c8db3b72570,,,,,,,,,,,,,,,,,,,,,,,l,1,"[""0.128"",""0.410"",""0.808"",""0.746""]","[1,1,0,1]",0,17,17,17,1,1,0,,,1,FALSE,6.7916,,,,,,,,,,,,,,,,,,,,,,,,,,,,,,
,615578cafeaf36e7b26e6369,001,2022-04-29_03h08.17.502,classification_task,2021.2.3,Win32,72.72198386,615578cafeaf36e7b26e6369,626b377229c10585ec392f89,626b3a7afef25c8db3b72570,,,,,,,,,,,,,,,,,,,,,,,a,1,"[""0.219"",""0.469"",""0.808"",""0.906""]","[1,1,0,1]",0,18,18,18,1,0,0,,,1,FALSE,4.0127,,,,,,,,,,,,,,,,,,,,,,,,,,,,,,
,615578cafeaf36e7b26e6369,001,2022-04-29_03h08.17.502,classification_task,2021.2.3,Win32,72.72198386,615578cafeaf36e7b26e6369,626b377229c10585ec392f89,626b3a7afef25c8db3b72570,,,,,,,,,,,,,,,,,,,,,,,l,1,"[""0.973"",""0.326"",""0.509"",""0.682""]","[0,1,1,1]",0,19,19,19,1,1,1,,,1,FALSE,5.1538,,,,,,,,,,,,,,,,,,,,,,,,,,,,,,
,615578cafeaf36e7b26e6369,001,2022-04-29_03h08.17.502,classification_task,2021.2.3,Win32,72.72198386,615578cafeaf36e7b26e6369,626b377229c10585ec392f89,626b3a7afef25c8db3b72570,,,,,,,,,,,,,,,,,,,,,,,a,1,"[""0.219"",""0.469"",""0.646"",""0.817""]","[1,1,1,0]",0,20,20,20,1,0,0,,,1,FALSE,4.6644,,,,,,,,,,,,,,,,,,,,,,,,,,,,,,
,615578cafeaf36e7b26e6369,001,2022-04-29_03h08.17.502,classification_task,2021.2.3,Win32,72.72198386,615578cafeaf36e7b26e6369,626b377229c10585ec392f89,626b3a7afef25c8db3b72570,,,,,,,,,,,,,,,,,,,,,,,l,1,"[""0.128"",""0.410"",""0.549"",""0.817""]","[1,1,1,0]",0,21,21,21,1,1,0,,,1,FALSE,4.4071,,,,,,,,,,,,,,,,,,,,,,,,,,,,,,
,615578cafeaf36e7b26e6369,001,2022-04-29_03h08.17.502,classification_task,2021.2.3,Win32,72.72198386,615578cafeaf36e7b26e6369,626b377229c10585ec392f89,626b3a7afef25c8db3b72570,,,,,,,,,,,,,,,,,,,,,,,l,0,"[""0.091"",""0.469"",""0.646"",""0.906""]","[0,1,1,1]",0,22,22,22,1,0,0,,,1,FALSE,4.1,,,,,,,,,,,,,,,,,,,,,,,,,,,,,,
,615578cafeaf36e7b26e6369,001,2022-04-29_03h08.17.502,classification_task,2021.2.3,Win32,72.72198386,615578cafeaf36e7b26e6369,626b377229c10585ec392f89,626b3a7afef25c8db3b72570,,,,,,,,,,,,,,,,,,,,,,,l,1,"[""0.128"",""0.269"",""0.549"",""0.746""]","[1,0,1,1]",0,23,23,23,1,1,0,,,1,FALSE,8.8879,,,,,,,,,,,,,,,,,,,,,,,,,,,,,,
,615578cafeaf36e7b26e6369,001,2022-04-29_03h08.17.502,classification_task,2021.2.3,Win32,72.72198386,615578cafeaf36e7b26e6369,626b377229c10585ec392f89,626b3a7afef25c8db3b72570,,,,,,,,,,,,,,,,,,,,,,,a,1,"[""0.219"",""0.817"",""0.646"",""0.906""]","[1,0,1,1]",0,24,24,24,1,0,0,,,1,FALSE,6.9913,,,,,,,,,,,,,,,,,,,,,,,,,,,,,,
,615578cafeaf36e7b26e6369,001,2022-04-29_03h08.17.502,classification_task,2021.2.3,Win32,72.72198386,615578cafeaf36e7b26e6369,626b377229c10585ec392f89,626b3a7afef25c8db3b72570,,,,,,,,,,,,,,,,,,,,,,,a,1,"[""0.168"",""0.366"",""0.612"",""0.808""]","[1,1,1,0]",0,25,25,25,1,0,1,,,1,FALSE,4.3213,,,,,,,,,,,,,,,,,,,,,,,,,,,,,,
,615578cafeaf36e7b26e6369,001,2022-04-29_03h08.17.502,classification_task,2021.2.3,Win32,72.72198386,615578cafeaf36e7b26e6369,626b377229c10585ec392f89,626b3a7afef25c8db3b72570,,,,,,,,,,,,,,,,,,,,,,,l,1,"[""0.809"",""0.410"",""0.549"",""0.746""]","[0,1,1,1]",0,26,26,26,1,1,0,,,1,FALSE,5.1659,,,,,,,,,,,,,,,,,,,,,,,,,,,,,,
,615578cafeaf36e7b26e6369,001,2022-04-29_03h08.17.502,classification_task,2021.2.3,Win32,72.72198386,615578cafeaf36e7b26e6369,626b377229c10585ec392f89,626b3a7afef25c8db3b72570,,,,,,,,,,,,,,,,,,,,,,,a,1,"[""0.823"",""0.366"",""0.612"",""0.868""]","[0,1,1,1]",0,27,27,27,1,0,1,,,1,FALSE,6.5952,,,,,,,,,,,,,,,,,,,,,,,,,,,,,,
,615578cafeaf36e7b26e6369,001,2022-04-29_03h08.17.502,classification_task,2021.2.3,Win32,72.72198386,615578cafeaf36e7b26e6369,626b377229c10585ec392f89,626b3a7afef25c8db3b72570,,,,,,,,,,,,,,,,,,,,,,,l,1,"[""0.048"",""0.257"",""0.509"",""0.682""]","[1,0,1,1]",0,28,28,28,1,1,1,,,1,FALSE,6.296,,,,,,,,,,,,,,,,,,,,,,,,,,,,,,
,615578cafeaf36e7b26e6369,001,2022-04-29_03h08.17.502,classification_task,2021.2.3,Win32,72.72198386,615578cafeaf36e7b26e6369,626b377229c10585ec392f89,626b3a7afef25c8db3b72570,,,,,,,,,,,,,,,,,,,,,,,a,1,"[""0.168"",""0.093"",""0.612"",""0.868""]","[1,0,1,1]",0,29,29,29,1,0,1,,,1,FALSE,6.8271,,,,,,,,,,,,,,,,,,,,,,,,,,,,,,
,615578cafeaf36e7b26e6369,001,2022-04-29_03h08.17.502,classification_task,2021.2.3,Win32,72.72198386,615578cafeaf36e7b26e6369,626b377229c10585ec392f89,626b3a7afef25c8db3b72570,,,,,,,,,,,,,,,,,,,,,,,a,0,"[""0.048"",""0.326"",""0.509"",""0.816""]","[1,1,1,0]",0,30,30,30,1,1,1,,,1,FALSE,7.5261,,,,,,,,,,,,,,,,,,,,,,,,,,,,,,
,615578cafeaf36e7b26e6369,001,2022-04-29_03h08.17.502,classification_task,2021.2.3,Win32,72.72198386,615578cafeaf36e7b26e6369,626b377229c10585ec392f89,626b3a7afef25c8db3b72570,,,,,,,,,,,,,,,,,,,,,,,a,1,"[""0.168"",""0.366"",""0.975"",""0.868""]","[1,1,0,1]",0,31,31,31,1,0,1,,,1,FALSE,9.4826,,,,,,,,,,,,,,,,,,,,,,,,,,,,,,
,615578cafeaf36e7b26e6369,001,2022-04-29_03h08.17.502,classification_task,2021.2.3,Win32,72.72198386,615578cafeaf36e7b26e6369,626b377229c10585ec392f89,626b3a7afef25c8db3b72570,,,,,,,,,,,,,,,,,,,,,,,a,1,"[""0.973"",""0.366"",""0.612"",""0.868""]","[0,1,1,1]",0,32,32,32,1,0,1,,,1,FALSE,6.9082,,,,,,,,,,,,,,,,,,,,,,,,,,,,,,
,615578cafeaf36e7b26e6369,001,2022-04-29_03h08.17.502,classification_task,2021.2.3,Win32,72.72198386,615578cafeaf36e7b26e6369,626b377229c10585ec392f89,626b3a7afef25c8db3b72570,,,,,,,,,,,,,,,,,,,,,,,l,1,"[""0.128"",""0.410"",""0.549"",""0.808""]","[1,1,1,0]",0,33,33,33,1,1,0,,,1,FALSE,6.021,,,,,,,,,,,,,,,,,,,,,,,,,,,,,,
,615578cafeaf36e7b26e6369,001,2022-04-29_03h08.17.502,classification_task,2021.2.3,Win32,72.72198386,615578cafeaf36e7b26e6369,626b377229c10585ec392f89,626b3a7afef25c8db3b72570,,,,,,,,,,,,,,,,,,,,,,,l,1,"[""0.128"",""0.817"",""0.549"",""0.746""]","[1,0,1,1]",0,34,34,34,1,1,0,,,1,FALSE,2.8337,,,,,,,,,,,,,,,,,,,,,,,,,,,,,,
,615578cafeaf36e7b26e6369,001,2022-04-29_03h08.17.502,classification_task,2021.2.3,Win32,72.72198386,615578cafeaf36e7b26e6369,626b377229c10585ec392f89,626b3a7afef25c8db3b72570,,,,,,,,,,,,,,,,,,,,,,,l,1,"[""0.128"",""0.410"",""0.790"",""0.746""]","[1,1,0,1]",0,35,35,35,1,1,0,,,1,FALSE,2.0318,,,,,,,,,,,,,,,,,,,,,,,,,,,,,,
,615578cafeaf36e7b26e6369,001,2022-04-29_03h08.17.502,classification_task,2021.2.3,Win32,72.72198386,615578cafeaf36e7b26e6369,626b377229c10585ec392f89,626b3a7afef25c8db3b72570,,,,,,,,,,,,,,,,,,,,,,,a,0,"[""0.808"",""0.410"",""0.549"",""0.746""]","[0,1,1,1]",0,36,36,36,1,1,0,,,1,FALSE,1.4333,,,,,,,,,,,,,,,,,,,,,,,,,,,,,,
,615578cafeaf36e7b26e6369,001,2022-04-29_03h08.17.502,classification_task,2021.2.3,Win32,72.72198386,615578cafeaf36e7b26e6369,626b377229c10585ec392f89,626b3a7afef25c8db3b72570,,,,,,,,,,,,,,,,,,,,,,,a,0,"[""0.048"",""0.326"",""0.509"",""0.973""]","[1,1,1,0]",0,37,37,37,1,1,1,,,1,FALSE,2.923,,,,,,,,,,,,,,,,,,,,,,,,,,,,,,
,615578cafeaf36e7b26e6369,001,2022-04-29_03h08.17.502,classification_task,2021.2.3,Win32,72.72198386,615578cafeaf36e7b26e6369,626b377229c10585ec392f89,626b3a7afef25c8db3b72570,,,,,,,,,,,,,,,,,,,,,,,l,0,"[""0.219"",""0.808"",""0.646"",""0.906""]","[1,0,1,1]",0,38,38,38,1,0,0,,,1,FALSE,1.5122,,,,,,,,,,,,,,,,,,,,,,,,,,,,,,
,615578cafeaf36e7b26e6369,001,2022-04-29_03h08.17.502,classification_task,2021.2.3,Win32,72.72198386,615578cafeaf36e7b26e6369,626b377229c10585ec392f89,626b3a7afef25c8db3b72570,,,,,,,,,,,,,,,,,,,,,,,l,0,"[""0.219"",""0.469"",""0.646"",""0.975""]","[1,1,1,0]",0,39,39,39,1,0,0,,,1,FALSE,2.5116,,,,,,,,,,,,,,,,,,,,,,,,,,,,,,
,615578cafeaf36e7b26e6369,001,2022-04-29_03h08.17.502,classification_task,2021.2.3,Win32,72.72198386,615578cafeaf36e7b26e6369,626b377229c10585ec392f89,626b3a7afef25c8db3b72570,,,,,,,,,,,,,,,,,,,,,,,a,1,"[""0.219"",""0.469"",""0.093"",""0.906""]","[1,1,0,1]",0,40,40,40,1,0,0,,,1,FALSE,0.7382,,,,,,,,,,,,,,,,,,,,,,,,,,,,,,
,615578cafeaf36e7b26e6369,001,2022-04-29_03h08.17.502,classification_task,2021.2.3,Win32,72.72198386,615578cafeaf36e7b26e6369,626b377229c10585ec392f89,626b3a7afef25c8db3b72570,,,,,,,,,,,,,,,,,,,,,,,a,0,"[""0.048"",""0.817"",""0.509"",""0.682""]","[1,0,1,1]",0,41,41,41,1,1,1,,,1,FALSE,3.1321,,,,,,,,,,,,,,,,,,,,,,,,,,,,,,
,615578cafeaf36e7b26e6369,001,2022-04-29_03h08.17.502,classification_task,2021.2.3,Win32,72.72198386,615578cafeaf36e7b26e6369,626b377229c10585ec392f89,626b3a7afef25c8db3b72570,,,,,,,,,,,,,,,,,,,,,,,l,0,"[""0.790"",""0.469"",""0.646"",""0.906""]","[0,1,1,1]",0,42,42,42,1,0,0,,,1,FALSE,1.9008,,,,,,,,,,,,,,,,,,,,,,,,,,,,,,
,615578cafeaf36e7b26e6369,001,2022-04-29_03h08.17.502,classification_task,2021.2.3,Win32,72.72198386,615578cafeaf36e7b26e6369,626b377229c10585ec392f89,626b3a7afef25c8db3b72570,,,,,,,,,,,,,,,,,,,,,,,a,1,"[""0.168"",""0.817"",""0.612"",""0.868""]","[1,0,1,1]",0,43,43,43,1,0,1,,,1,FALSE,6.5957,,,,,,,,,,,,,,,,,,,,,,,,,,,,,,
,615578cafeaf36e7b26e6369,001,2022-04-29_03h08.17.502,classification_task,2021.2.3,Win32,72.72198386,615578cafeaf36e7b26e6369,626b377229c10585ec392f89,626b3a7afef25c8db3b72570,,,,,,,,,,,,,,,,,,,,,,,a,1,"[""0.168"",""0.366"",""0.612"",""0.808""]","[1,1,1,0]",0,44,44,44,1,0,1,,,1,FALSE,2.1356,,,,,,,,,,,,,,,,,,,,,,,,,,,,,,
,615578cafeaf36e7b26e6369,001,2022-04-29_03h08.17.502,classification_task,2021.2.3,Win32,72.72198386,615578cafeaf36e7b26e6369,626b377229c10585ec392f89,626b3a7afef25c8db3b72570,,,,,,,,,,,,,,,,,,,,,,,l,0,"[""0.168"",""0.366"",""0.975"",""0.868""]","[1,1,0,1]",0,45,45,45,1,0,1,,,1,FALSE,3.1026,,,,,,,,,,,,,,,,,,,,,,,,,,,,,,
,615578cafeaf36e7b26e6369,001,2022-04-29_03h08.17.502,classification_task,2021.2.3,Win32,72.72198386,615578cafeaf36e7b26e6369,626b377229c10585ec392f89,626b3a7afef25c8db3b72570,,,,,,,,,,,,,,,,,,,,,,,l,1,"[""0.290"",""0.326"",""0.509"",""0.682""]","[0,1,1,1]",0,46,46,46,1,1,1,,,1,FALSE,4.8647,,,,,,,,,,,,,,,,,,,,,,,,,,,,,,
,615578cafeaf36e7b26e6369,001,2022-04-29_03h08.17.502,classification_task,2021.2.3,Win32,72.72198386,615578cafeaf36e7b26e6369,626b377229c10585ec392f89,626b3a7afef25c8db3b72570,,,,,,,,,,,,,,,,,,,,,,,l,1,"[""0.048"",""0.326"",""0.257"",""0.682""]","[1,1,0,1]",0,47,47,47,1,1,1,,,1,FALSE,1.5676,,,,,,,,,,,,,,,,,,,,,,,,,,,,,,
,615578cafeaf36e7b26e6369,001,2022-04-29_03h08.17.502,classification_task,2021.2.3,Win32,72.72198386,615578cafeaf36e7b26e6369,626b377229c10585ec392f89,626b3a7afef25c8db3b72570,,,,,,,,,,,,,,,,,,,,,,,l,0,"[""0.168"",""0.827"",""0.612"",""0.868""]","[1,0,1,1]",0,48,48,48,1,0,1,,,1,FALSE,1.4078,,,,,,,,,,,,,,,,,,,,,,,,,,,,,,
,615578cafeaf36e7b26e6369,001,2022-04-29_03h08.17.502,classification_task,2021.2.3,Win32,72.72198386,615578cafeaf36e7b26e6369,626b377229c10585ec392f89,626b3a7afef25c8db3b72570,,,,,,,,,,,,,,,,,,,,,,,a,1,"[""0.168"",""0.366"",""0.612"",""0.257""]","[1,1,1,0]",0,49,49,49,1,0,1,,,1,FALSE,3.094,,,,,,,,,,,,,,,,,,,,,,,,,,,,,,
,615578cafeaf36e7b26e6369,001,2022-04-29_03h08.17.502,classification_task,2021.2.3,Win32,72.72198386,615578cafeaf36e7b26e6369,626b377229c10585ec392f89,626b3a7afef25c8db3b72570,,,,,,,,,,,,,,,,,,,,,,,a,1,"[""0.219"",""0.469"",""0.646"",""0.290""]","[1,1,1,0]",0,50,50,50,1,0,0,,,1,FALSE,2.7132,,,,,,,,,,,,,,,,,,,,,,,,,,,,,,
,615578cafeaf36e7b26e6369,001,2022-04-29_03h08.17.502,classification_task,2021.2.3,Win32,72.72198386,615578cafeaf36e7b26e6369,626b377229c10585ec392f89,626b3a7afef25c8db3b72570,,,,,,,,,,,,,,,,,,,,,,,a,0,"[""0.257"",""0.410"",""0.549"",""0.746""]","[0,1,1,1]",0,51,51,51,1,1,0,,,1,FALSE,1.7672,,,,,,,,,,,,,,,,,,,,,,,,,,,,,,
,615578cafeaf36e7b26e6369,001,2022-04-29_03h08.17.502,classification_task,2021.2.3,Win32,72.72198386,615578cafeaf36e7b26e6369,626b377229c10585ec392f89,626b3a7afef25c8db3b72570,,,,,,,,,,,,,,,,,,,,,,,l,1,"[""0.128"",""0.410"",""0.269"",""0.746""]","[1,1,0,1]",0,52,52,52,1,1,0,,,1,FALSE,2.3857,,,,,,,,,,,,,,,,,,,,,,,,,,,,,,
,615578cafeaf36e7b26e6369,001,2022-04-29_03h08.17.502,classification_task,2021.2.3,Win32,72.72198386,615578cafeaf36e7b26e6369,626b377229c10585ec392f89,626b3a7afef25c8db3b72570,,,,,,,,,,,,,,,,,,,,,,,a,1,"[""0.219"",""0.469"",""0.808"",""0.906""]","[1,1,0,1]",0,53,53,53,1,0,0,,,1,FALSE,6.3955,,,,,,,,,,,,,,,,,,,,,,,,,,,,,,
,615578cafeaf36e7b26e6369,001,2022-04-29_03h08.17.502,classification_task,2021.2.3,Win32,72.72198386,615578cafeaf36e7b26e6369,626b377229c10585ec392f89,626b3a7afef25c8db3b72570,,,,,,,,,,,,,,,,,,,,,,,a,0,"[""0.128"",""0.290"",""0.549"",""0.746""]","[1,0,1,1]",0,54,54,54,1,1,0,,,1,FALSE,3.2459,,,,,,,,,,,,,,,,,,,,,,,,,,,,,,
,615578cafeaf36e7b26e6369,001,2022-04-29_03h08.17.502,classification_task,2021.2.3,Win32,72.72198386,615578cafeaf36e7b26e6369,626b377229c10585ec392f89,626b3a7afef25c8db3b72570,,,,,,,,,,,,,,,,,,,,,,,l,0,"[""0.290"",""0.469"",""0.646"",""0.906""]","[0,1,1,1]",0,55,55,55,1,0,0,,,1,FALSE,7.6008,,,,,,,,,,,,,,,,,,,,,,,,,,,,,,
,615578cafeaf36e7b26e6369,001,2022-04-29_03h08.17.502,classification_task,2021.2.3,Win32,72.72198386,615578cafeaf36e7b26e6369,626b377229c10585ec392f89,626b3a7afef25c8db3b72570,,,,,,,,,,,,,,,,,,,,,,,l,0,"[""0.168"",""0.366"",""0.269"",""0.868""]","[1,1,0,1]",0,56,56,56,1,0,1,,,1,FALSE,2.6911,,,,,,,,,,,,,,,,,,,,,,,,,,,,,,
,615578cafeaf36e7b26e6369,001,2022-04-29_03h08.17.502,classification_task,2021.2.3,Win32,72.72198386,615578cafeaf36e7b26e6369,626b377229c10585ec392f89,626b3a7afef25c8db3b72570,,,,,,,,,,,,,,,,,,,,,,,a,1,"[""0.219"",""0.817"",""0.646"",""0.906""]","[1,0,1,1]",0,57,57,57,1,0,0,,,1,FALSE,2.1386,,,,,,,,,,,,,,,,,,,,,,,,,,,,,,
,615578cafeaf36e7b26e6369,001,2022-04-29_03h08.17.502,classification_task,2021.2.3,Win32,72.72198386,615578cafeaf36e7b26e6369,626b377229c10585ec392f89,626b3a7afef25c8db3b72570,,,,,,,,,,,,,,,,,,,,,,,l,0,"[""0.975"",""0.366"",""0.612"",""0.868""]","[0,1,1,1]",0,58,58,58,1,0,1,,,1,FALSE,1.6383,,,,,,,,,,,,,,,,,,,,,,,,,,,,,,
,615578cafeaf36e7b26e6369,001,2022-04-29_03h08.17.502,classification_task,2021.2.3,Win32,72.72198386,615578cafeaf36e7b26e6369,626b377229c10585ec392f89,626b3a7afef25c8db3b72570,,,,,,,,,,,,,,,,,,,,,,,a,0,"[""0.048"",""0.809"",""0.509"",""0.682""]","[1,0,1,1]",0,59,59,59,1,1,1,,,1,FALSE,1.5377,,,,,,,,,,,,,,,,,,,,,,,,,,,,,,
,615578cafeaf36e7b26e6369,001,2022-04-29_03h08.17.502,classification_task,2021.2.3,Win32,72.72198386,615578cafeaf36e7b26e6369,626b377229c10585ec392f89,626b3a7afef25c8db3b72570,,,,,,,,,,,,,,,,,,,,,,,a,0,"[""0.973"",""0.326"",""0.509"",""0.682""]","[0,1,1,1]",0,60,60,60,1,1,1,,,1,FALSE,1.2189,,,,,,,,,,,,,,,,,,,,,,,,,,,,,,
,615578cafeaf36e7b26e6369,001,2022-04-29_03h08.17.502,classification_task,2021.2.3,Win32,72.72198386,615578cafeaf36e7b26e6369,626b377229c10585ec392f89,626b3a7afef25c8db3b72570,,,,,,,,,,,,,,,,,,,,,,,a,0,"[""0.128"",""0.410"",""0.549"",""0.257""]","[1,1,1,0]",0,61,61,61,1,1,0,,,1,FALSE,1.0814,,,,,,,,,,,,,,,,,,,,,,,,,,,,,,
,615578cafeaf36e7b26e6369,001,2022-04-29_03h08.17.502,classification_task,2021.2.3,Win32,72.72198386,615578cafeaf36e7b26e6369,626b377229c10585ec392f89,626b3a7afef25c8db3b72570,,,,,,,,,,,,,,,,,,,,,,,a,0,"[""0.048"",""0.326"",""0.509"",""0.823""]","[1,1,1,0]",0,62,62,62,1,1,1,,,1,FALSE,0.88,,,,,,,,,,,,,,,,,,,,,,,,,,,,,,
,615578cafeaf36e7b26e6369,001,2022-04-29_03h08.17.502,classification_task,2021.2.3,Win32,72.72198386,615578cafeaf36e7b26e6369,626b377229c10585ec392f89,626b3a7afef25c8db3b72570,,,,,,,,,,,,,,,,,,,,,,,a,0,"[""0.048"",""0.326"",""0.808"",""0.682""]","[1,1,0,1]",0,63,63,63,1,1,1,,,1,FALSE,0.5877,,,,,,,,,,,,,,,,,,,,,,,,,,,,,,
,615578cafeaf36e7b26e6369,001,2022-04-29_03h08.17.502,classification_task,2021.2.3,Win32,72.72198386,615578cafeaf36e7b26e6369,626b377229c10585ec392f89,626b3a7afef25c8db3b72570,,,,,,,,,,,,,,,,,,,,,,,,,,,,,,,,,,,,,,,0, ,,0,8.306878307,696.2584,0,0,0,0,1,2,1,,,,,,,,,,,,,,,,,
,615578cafeaf36e7b26e6369,001,2022-04-29_03h08.17.502,classification_task,2021.2.3,Win32,72.72198386,615578cafeaf36e7b26e6369,626b377229c10585ec392f89,626b3a7afef25c8db3b72570,,,,,,,,,,,,,,,,,,,,,,,,,,,,,,,,,,,,,,,1,  ,,0,9.856977513,676.4241,0,0,0,0,1,2,1,,,,,,,,,,,,,,,,,
,615578cafeaf36e7b26e6369,001,2022-04-29_03h08.17.502,classification_task,2021.2.3,Win32,72.72198386,615578cafeaf36e7b26e6369,626b377229c10585ec392f89,626b3a7afef25c8db3b72570,,,,,,,,,,,,,,,,,,,,,,,,,,,,,,,,,,,,,,,2,  ,,0,0.315255732,685.4867,0,0,0,0,1,2,1,,,,,,,,,,,,,,,,,
,615578cafeaf36e7b26e6369,001,2022-04-29_03h08.17.502,classification_task,2021.2.3,Win32,72.72198386,615578cafeaf36e7b26e6369,626b377229c10585ec392f89,626b3a7afef25c8db3b72570,,,,,,,,,,,,,,,,,,,,,,,,,,,,,,,,,,,,,,,,,,,,,0,0,0,0,1,,1,,,,,,,,,,,,,,,,,
,615578cafeaf36e7b26e6369,001,2022-04-29_03h08.17.502,classification_task,2021.2.3,Win32,72.72198386,615578cafeaf36e7b26e6369,626b377229c10585ec392f89,626b3a7afef25c8db3b72570,,,,,,,,,,,,,,,,,,,,,space,12.9273,a,1,"[""0.168"",""0.816"",""0.612"",""0.868""]","[1,0,1,1]",0,0,0,0,1,0,1,,,1,FALSE,9,,,,,,,,,,,,,,,,,,,,,,,,,,,,,,
,615578cafeaf36e7b26e6369,001,2022-04-29_03h08.17.502,classification_task,2021.2.3,Win32,72.72198386,615578cafeaf36e7b26e6369,626b377229c10585ec392f89,626b3a7afef25c8db3b72570,,,,,,,,,,,,,,,,,,,,,,,l,1,"[""0.048"",""0.326"",""0.809"",""0.682""]","[1,1,0,1]",0,1,1,1,1,1,1,,,1,FALSE,3.1686,,,,,,,,,,,,,,,,,,,,,,,,,,,,,,
,615578cafeaf36e7b26e6369,001,2022-04-29_03h08.17.502,classification_task,2021.2.3,Win32,72.72198386,615578cafeaf36e7b26e6369,626b377229c10585ec392f89,626b3a7afef25c8db3b72570,,,,,,,,,,,,,,,,,,,,,,,l,0,"[""0.093"",""0.469"",""0.646"",""0.906""]","[0,1,1,1]",0,2,2,2,1,0,0,,,1,FALSE,6.2383,,,,,,,,,,,,,,,,,,,,,,,,,,,,,,
,615578cafeaf36e7b26e6369,001,2022-04-29_03h08.17.502,classification_task,2021.2.3,Win32,72.72198386,615578cafeaf36e7b26e6369,626b377229c10585ec392f89,626b3a7afef25c8db3b72570,,,,,,,,,,,,,,,,,,,,,,,a,1,"[""0.091"",""0.366"",""0.612"",""0.868""]","[0,1,1,1]",0,3,3,3,1,0,1,,,1,FALSE,8.0813,,,,,,,,,,,,,,,,,,,,,,,,,,,,,,
,615578cafeaf36e7b26e6369,001,2022-04-29_03h08.17.502,classification_task,2021.2.3,Win32,72.72198386,615578cafeaf36e7b26e6369,626b377229c10585ec392f89,626b3a7afef25c8db3b72570,,,,,,,,,,,,,,,,,,,,,,,a,1,"[""0.219"",""0.469"",""0.646"",""0.790""]","[1,1,1,0]",0,4,4,4,1,0,0,,,1,FALSE,2.7399,,,,,,,,,,,,,,,,,,,,,,,,,,,,,,
,615578cafeaf36e7b26e6369,001,2022-04-29_03h08.17.502,classification_task,2021.2.3,Win32,72.72198386,615578cafeaf36e7b26e6369,626b377229c10585ec392f89,626b3a7afef25c8db3b72570,,,,,,,,,,,,,,,,,,,,,,,a,1,"[""0.168"",""0.366"",""0.091"",""0.868""]","[1,1,0,1]",0,5,5,5,1,0,1,,,1,FALSE,6.5893,,,,,,,,,,,,,,,,,,,,,,,,,,,,,,
,615578cafeaf36e7b26e6369,001,2022-04-29_03h08.17.502,classification_task,2021.2.3,Win32,72.72198386,615578cafeaf36e7b26e6369,626b377229c10585ec392f89,626b3a7afef25c8db3b72570,,,,,,,,,,,,,,,,,,,,,,,l,1,"[""0.817"",""0.326"",""0.509"",""0.682""]","[0,1,1,1]",0,6,6,6,1,1,1,,,1,FALSE,4.4848,,,,,,,,,,,,,,,,,,,,,,,,,,,,,,
,615578cafeaf36e7b26e6369,001,2022-04-29_03h08.17.502,classification_task,2021.2.3,Win32,72.72198386,615578cafeaf36e7b26e6369,626b377229c10585ec392f89,626b3a7afef25c8db3b72570,,,,,,,,,,,,,,,,,,,,,,,a,1,"[""0.219"",""0.469"",""0.093"",""0.906""]","[1,1,0,1]",0,7,7,7,1,0,0,,,1,FALSE,1.284,,,,,,,,,,,,,,,,,,,,,,,,,,,,,,
,615578cafeaf36e7b26e6369,001,2022-04-29_03h08.17.502,classification_task,2021.2.3,Win32,72.72198386,615578cafeaf36e7b26e6369,626b377229c10585ec392f89,626b3a7afef25c8db3b72570,,,,,,,,,,,,,,,,,,,,,,,,0,"[""0.168"",""0.366"",""0.612"",""0.808""]","[1,1,1,0]",0,8,8,8,1,0,1,,,1,FALSE,,,,,,,,,,,,,,,,,,,,,,,,,,,,,,,
,615578cafeaf36e7b26e6369,001,2022-04-29_03h08.17.502,classification_task,2021.2.3,Win32,72.72198386,615578cafeaf36e7b26e6369,626b377229c10585ec392f89,626b3a7afef25c8db3b72570,,,,,,,,,,,,,,,,,,,,,,,l,1,"[""0.128"",""0.410"",""0.549"",""0.269""]","[1,1,1,0]",0,9,9,9,1,1,0,,,1,FALSE,3.082,,,,,,,,,,,,,,,,,,,,,,,,,,,,,,
,615578cafeaf36e7b26e6369,001,2022-04-29_03h08.17.502,classification_task,2021.2.3,Win32,72.72198386,615578cafeaf36e7b26e6369,626b377229c10585ec392f89,626b3a7afef25c8db3b72570,,,,,,,,,,,,,,,,,,,,,,,l,1,"[""0.048"",""0.975"",""0.509"",""0.682""]","[1,0,1,1]",0,10,10,10,1,1,1,,,1,FALSE,4.5985,,,,,,,,,,,,,,,,,,,,,,,,,,,,,,
,615578cafeaf36e7b26e6369,001,2022-04-29_03h08.17.502,classification_task,2021.2.3,Win32,72.72198386,615578cafeaf36e7b26e6369,626b377229c10585ec392f89,626b3a7afef25c8db3b72570,,,,,,,,,,,,,,,,,,,,,,,a,0,"[""0.269"",""0.410"",""0.549"",""0.746""]","[0,1,1,1]",0,11,11,11,1,1,0,,,1,FALSE,5.197,,,,,,,,,,,,,,,,,,,,,,,,,,,,,,
,615578cafeaf36e7b26e6369,001,2022-04-29_03h08.17.502,classification_task,2021.2.3,Win32,72.72198386,615578cafeaf36e7b26e6369,626b377229c10585ec392f89,626b3a7afef25c8db3b72570,,,,,,,,,,,,,,,,,,,,,,,l,1,"[""0.048"",""0.326"",""0.509"",""0.823""]","[1,1,1,0]",0,12,12,12,1,1,1,,,1,FALSE,1.6333,,,,,,,,,,,,,,,,,,,,,,,,,,,,,,
,615578cafeaf36e7b26e6369,001,2022-04-29_03h08.17.502,classification_task,2021.2.3,Win32,72.72198386,615578cafeaf36e7b26e6369,626b377229c10585ec392f89,626b3a7afef25c8db3b72570,,,,,,,,,,,,,,,,,,,,,,,a,0,"[""0.128"",""0.410"",""0.973"",""0.746""]","[1,1,0,1]",0,13,13,13,1,1,0,,,1,FALSE,5.951,,,,,,,,,,,,,,,,,,,,,,,,,,,,,,
,615578cafeaf36e7b26e6369,001,2022-04-29_03h08.17.502,classification_task,2021.2.3,Win32,72.72198386,615578cafeaf36e7b26e6369,626b377229c10585ec392f89,626b3a7afef25c8db3b72570,,,,,,,,,,,,,,,,,,,,,,,l,0,"[""0.219"",""0.809"",""0.646"",""0.906""]","[1,0,1,1]",0,14,14,14,1,0,0,,,1,FALSE,1.8387,,,,,,,,,,,,,,,,,,,,,,,,,,,,,,
,615578cafeaf36e7b26e6369,001,2022-04-29_03h08.17.502,classification_task,2021.2.3,Win32,72.72198386,615578cafeaf36e7b26e6369,626b377229c10585ec392f89,626b3a7afef25c8db3b72570,,,,,,,,,,,,,,,,,,,,,,,l,1,"[""0.128"",""0.817"",""0.549"",""0.746""]","[1,0,1,1]",0,15,15,15,1,1,0,,,1,FALSE,1.4333,,,,,,,,,,,,,,,,,,,,,,,,,,,,,,
,615578cafeaf36e7b26e6369,001,2022-04-29_03h08.17.502,classification_task,2021.2.3,Win32,72.72198386,615578cafeaf36e7b26e6369,626b377229c10585ec392f89,626b3a7afef25c8db3b72570,,,,,,,,,,,,,,,,,,,,,,,a,1,"[""0.219"",""0.469"",""0.646"",""0.257""]","[1,1,1,0]",0,16,16,16,1,0,0,,,1,FALSE,1.1311,,,,,,,,,,,,,,,,,,,,,,,,,,,,,,
,615578cafeaf36e7b26e6369,001,2022-04-29_03h08.17.502,classification_task,2021.2.3,Win32,72.72198386,615578cafeaf36e7b26e6369,626b377229c10585ec392f89,626b3a7afef25c8db3b72570,,,,,,,,,,,,,,,,,,,,,,,a,1,"[""0.168"",""0.366"",""0.808"",""0.868""]","[1,1,0,1]",0,17,17,17,1,0,1,,,1,FALSE,9.7493,,,,,,,,,,,,,,,,,,,,,,,,,,,,,,
,615578cafeaf36e7b26e6369,001,2022-04-29_03h08.17.502,classification_task,2021.2.3,Win32,72.72198386,615578cafeaf36e7b26e6369,626b377229c10585ec392f89,626b3a7afef25c8db3b72570,,,,,,,,,,,,,,,,,,,,,,,a,0,"[""0.128"",""0.410"",""0.091"",""0.746""]","[1,1,0,1]",0,18,18,18,1,1,0,,,1,FALSE,1.2321,,,,,,,,,,,,,,,,,,,,,,,,,,,,,,
,615578cafeaf36e7b26e6369,001,2022-04-29_03h08.17.502,classification_task,2021.2.3,Win32,72.72198386,615578cafeaf36e7b26e6369,626b377229c10585ec392f89,626b3a7afef25c8db3b72570,,,,,,,,,,,,,,,,,,,,,,,a,1,"[""0.975"",""0.469"",""0.646"",""0.906""]","[0,1,1,1]",0,19,19,19,1,0,0,,,1,FALSE,1.2027,,,,,,,,,,,,,,,,,,,,,,,,,,,,,,
,615578cafeaf36e7b26e6369,001,2022-04-29_03h08.17.502,classification_task,2021.2.3,Win32,72.72198386,615578cafeaf36e7b26e6369,626b377229c10585ec392f89,626b3a7afef25c8db3b72570,,,,,,,,,,,,,,,,,,,,,,,a,1,"[""0.219"",""0.975"",""0.646"",""0.906""]","[1,0,1,1]",0,20,20,20,1,0,0,,,1,FALSE,5.1459,,,,,,,,,,,,,,,,,,,,,,,,,,,,,,
,615578cafeaf36e7b26e6369,001,2022-04-29_03h08.17.502,classification_task,2021.2.3,Win32,72.72198386,615578cafeaf36e7b26e6369,626b377229c10585ec392f89,626b3a7afef25c8db3b72570,,,,,,,,,,,,,,,,,,,,,,,l,0,"[""0.219"",""0.469"",""0.257"",""0.906""]","[1,1,0,1]",0,21,21,21,1,0,0,,,1,FALSE,1.3765,,,,,,,,,,,,,,,,,,,,,,,,,,,,,,
,615578cafeaf36e7b26e6369,001,2022-04-29_03h08.17.502,classification_task,2021.2.3,Win32,72.72198386,615578cafeaf36e7b26e6369,626b377229c10585ec392f89,626b3a7afef25c8db3b72570,,,,,,,,,,,,,,,,,,,,,,,a,1,"[""0.817"",""0.366"",""0.612"",""0.868""]","[0,1,1,1]",0,22,22,22,1,0,1,,,1,FALSE,2.3348,,,,,,,,,,,,,,,,,,,,,,,,,,,,,,
,615578cafeaf36e7b26e6369,001,2022-04-29_03h08.17.502,classification_task,2021.2.3,Win32,72.72198386,615578cafeaf36e7b26e6369,626b377229c10585ec392f89,626b3a7afef25c8db3b72570,,,,,,,,,,,,,,,,,,,,,,,l,1,"[""0.048"",""0.326"",""0.509"",""0.975""]","[1,1,1,0]",0,23,23,23,1,1,1,,,1,FALSE,2.0648,,,,,,,,,,,,,,,,,,,,,,,,,,,,,,
,615578cafeaf36e7b26e6369,001,2022-04-29_03h08.17.502,classification_task,2021.2.3,Win32,72.72198386,615578cafeaf36e7b26e6369,626b377229c10585ec392f89,626b3a7afef25c8db3b72570,,,,,,,,,,,,,,,,,,,,,,,l,1,"[""0.128"",""0.410"",""0.549"",""0.827""]","[1,1,1,0]",0,24,24,24,1,1,0,,,1,FALSE,5.9834,,,,,,,,,,,,,,,,,,,,,,,,,,,,,,
,615578cafeaf36e7b26e6369,001,2022-04-29_03h08.17.502,classification_task,2021.2.3,Win32,72.72198386,615578cafeaf36e7b26e6369,626b377229c10585ec392f89,626b3a7afef25c8db3b72570,,,,,,,,,,,,,,,,,,,,,,,l,1,"[""0.816"",""0.326"",""0.509"",""0.682""]","[0,1,1,1]",0,25,25,25,1,1,1,,,1,FALSE,4.2726,,,,,,,,,,,,,,,,,,,,,,,,,,,,,,
,615578cafeaf36e7b26e6369,001,2022-04-29_03h08.17.502,classification_task,2021.2.3,Win32,72.72198386,615578cafeaf36e7b26e6369,626b377229c10585ec392f89,626b3a7afef25c8db3b72570,,,,,,,,,,,,,,,,,,,,,,,a,1,"[""0.168"",""0.366"",""0.612"",""0.808""]","[1,1,1,0]",0,26,26,26,1,0,1,,,1,FALSE,2.3066,,,,,,,,,,,,,,,,,,,,,,,,,,,,,,
,615578cafeaf36e7b26e6369,001,2022-04-29_03h08.17.502,classification_task,2021.2.3,Win32,72.72198386,615578cafeaf36e7b26e6369,626b377229c10585ec392f89,626b3a7afef25c8db3b72570,,,,,,,,,,,,,,,,,,,,,,,l,1,"[""0.048"",""0.326"",""0.817"",""0.682""]","[1,1,0,1]",0,27,27,27,1,1,1,,,1,FALSE,2.8794,,,,,,,,,,,,,,,,,,,,,,,,,,,,,,
,615578cafeaf36e7b26e6369,001,2022-04-29_03h08.17.502,classification_task,2021.2.3,Win32,72.72198386,615578cafeaf36e7b26e6369,626b377229c10585ec392f89,626b3a7afef25c8db3b72570,,,,,,,,,,,,,,,,,,,,,,,a,1,"[""0.168"",""0.973"",""0.612"",""0.868""]","[1,0,1,1]",0,28,28,28,1,0,1,,,1,FALSE,3.5033,,,,,,,,,,,,,,,,,,,,,,,,,,,,,,
,615578cafeaf36e7b26e6369,001,2022-04-29_03h08.17.502,classification_task,2021.2.3,Win32,72.72198386,615578cafeaf36e7b26e6369,626b377229c10585ec392f89,626b3a7afef25c8db3b72570,,,,,,,,,,,,,,,,,,,,,,,a,0,"[""0.048"",""0.827"",""0.509"",""0.682""]","[1,0,1,1]",0,29,29,29,1,1,1,,,1,FALSE,2.7144,,,,,,,,,,,,,,,,,,,,,,,,,,,,,,
,615578cafeaf36e7b26e6369,001,2022-04-29_03h08.17.502,classification_task,2021.2.3,Win32,72.72198386,615578cafeaf36e7b26e6369,626b377229c10585ec392f89,626b3a7afef25c8db3b72570,,,,,,,,,,,,,,,,,,,,,,,a,0,"[""0.128"",""0.816"",""0.549"",""0.746""]","[1,0,1,1]",0,30,30,30,1,1,0,,,1,FALSE,1.4246,,,,,,,,,,,,,,,,,,,,,,,,,,,,,,
,615578cafeaf36e7b26e6369,001,2022-04-29_03h08.17.502,classification_task,2021.2.3,Win32,72.72198386,615578cafeaf36e7b26e6369,626b377229c10585ec392f89,626b3a7afef25c8db3b72570,,,,,,,,,,,,,,,,,,,,,,,l,1,"[""0.817"",""0.410"",""0.549"",""0.746""]","[0,1,1,1]",0,31,31,31,1,1,0,,,1,FALSE,5.9715,,,,,,,,,,,,,,,,,,,,,,,,,,,,,,
,615578cafeaf36e7b26e6369,001,2022-04-29_03h08.17.502,classification_task,2021.2.3,Win32,72.72198386,615578cafeaf36e7b26e6369,626b377229c10585ec392f89,626b3a7afef25c8db3b72570,,,,,,,,,,,,,,,,,,,,,,,l,1,"[""0.048"",""0.326"",""0.509"",""0.808""]","[1,1,1,0]",0,32,32,32,1,1,1,,,1,FALSE,2.1631,,,,,,,,,,,,,,,,,,,,,,,,,,,,,,
,615578cafeaf36e7b26e6369,001,2022-04-29_03h08.17.502,classification_task,2021.2.3,Win32,72.72198386,615578cafeaf36e7b26e6369,626b377229c10585ec392f89,626b3a7afef25c8db3b72570,,,,,,,,,,,,,,,,,,,,,,,a,1,"[""0.219"",""0.469"",""0.646"",""0.269""]","[1,1,1,0]",0,33,33,33,1,0,0,,,1,FALSE,2.2931,,,,,,,,,,,,,,,,,,,,,,,,,,,,,,
,615578cafeaf36e7b26e6369,001,2022-04-29_03h08.17.502,classification_task,2021.2.3,Win32,72.72198386,615578cafeaf36e7b26e6369,626b377229c10585ec392f89,626b3a7afef25c8db3b72570,,,,,,,,,,,,,,,,,,,,,,,l,0,"[""0.219"",""0.269"",""0.646"",""0.906""]","[1,0,1,1]",0,34,34,34,1,0,0,,,1,FALSE,1.6493,,,,,,,,,,,,,,,,,,,,,,,,,,,,,,
,615578cafeaf36e7b26e6369,001,2022-04-29_03h08.17.502,classification_task,2021.2.3,Win32,72.72198386,615578cafeaf36e7b26e6369,626b377229c10585ec392f89,626b3a7afef25c8db3b72570,,,,,,,,,,,,,,,,,,,,,,,a,1,"[""0.168"",""0.366"",""0.973"",""0.868""]","[1,1,0,1]",0,35,35,35,1,0,1,,,1,FALSE,1.7089,,,,,,,,,,,,,,,,,,,,,,,,,,,,,,
,615578cafeaf36e7b26e6369,001,2022-04-29_03h08.17.502,classification_task,2021.2.3,Win32,72.72198386,615578cafeaf36e7b26e6369,626b377229c10585ec392f89,626b3a7afef25c8db3b72570,,,,,,,,,,,,,,,,,,,,,,,l,1,"[""0.048"",""0.326"",""0.091"",""0.682""]","[1,1,0,1]",0,36,36,36,1,1,1,,,1,FALSE,1.6348,,,,,,,,,,,,,,,,,,,,,,,,,,,,,,
,615578cafeaf36e7b26e6369,001,2022-04-29_03h08.17.502,classification_task,2021.2.3,Win32,72.72198386,615578cafeaf36e7b26e6369,626b377229c10585ec392f89,626b3a7afef25c8db3b72570,,,,,,,,,,,,,,,,,,,,,,,a,1,"[""0.219"",""0.469"",""0.817"",""0.906""]","[1,1,0,1]",0,37,37,37,1,0,0,,,1,FALSE,1.3013,,,,,,,,,,,,,,,,,,,,,,,,,,,,,,
,615578cafeaf36e7b26e6369,001,2022-04-29_03h08.17.502,classification_task,2021.2.3,Win32,72.72198386,615578cafeaf36e7b26e6369,626b377229c10585ec392f89,626b3a7afef25c8db3b72570,,,,,,,,,,,,,,,,,,,,,,,l,1,"[""0.048"",""0.973"",""0.509"",""0.682""]","[1,0,1,1]",0,38,38,38,1,1,1,,,1,FALSE,9.2778,,,,,,,,,,,,,,,,,,,,,,,,,,,,,,
,615578cafeaf36e7b26e6369,001,2022-04-29_03h08.17.502,classification_task,2021.2.3,Win32,72.72198386,615578cafeaf36e7b26e6369,626b377229c10585ec392f89,626b3a7afef25c8db3b72570,,,,,,,,,,,,,,,,,,,,,,,a,1,"[""0.168"",""0.366"",""0.612"",""0.290""]","[1,1,1,0]",0,39,39,39,1,0,1,,,1,FALSE,1.9541,,,,,,,,,,,,,,,,,,,,,,,,,,,,,,
,615578cafeaf36e7b26e6369,001,2022-04-29_03h08.17.502,classification_task,2021.2.3,Win32,72.72198386,615578cafeaf36e7b26e6369,626b377229c10585ec392f89,626b3a7afef25c8db3b72570,,,,,,,,,,,,,,,,,,,,,,,l,0,"[""0.817"",""0.469"",""0.646"",""0.906""]","[0,1,1,1]",0,40,40,40,1,0,0,,,1,FALSE,4.629,,,,,,,,,,,,,,,,,,,,,,,,,,,,,,
,615578cafeaf36e7b26e6369,001,2022-04-29_03h08.17.502,classification_task,2021.2.3,Win32,72.72198386,615578cafeaf36e7b26e6369,626b377229c10585ec392f89,626b3a7afef25c8db3b72570,,,,,,,,,,,,,,,,,,,,,,,a,0,"[""0.128"",""0.410"",""0.549"",""0.809""]","[1,1,1,0]",0,41,41,41,1,1,0,,,1,FALSE,4.2616,,,,,,,,,,,,,,,,,,,,,,,,,,,,,,
,615578cafeaf36e7b26e6369,001,2022-04-29_03h08.17.502,classification_task,2021.2.3,Win32,72.72198386,615578cafeaf36e7b26e6369,626b377229c10585ec392f89,626b3a7afef25c8db3b72570,,,,,,,,,,,,,,,,,,,,,,,a,1,"[""0.168"",""0.257"",""0.612"",""0.868""]","[1,0,1,1]",0,42,42,42,1,0,1,,,1,FALSE,1.9584,,,,,,,,,,,,,,,,,,,,,,,,,,,,,,
,615578cafeaf36e7b26e6369,001,2022-04-29_03h08.17.502,classification_task,2021.2.3,Win32,72.72198386,615578cafeaf36e7b26e6369,626b377229c10585ec392f89,626b3a7afef25c8db3b72570,,,,,,,,,,,,,,,,,,,,,,,l,1,"[""0.808"",""0.410"",""0.549"",""0.746""]","[0,1,1,1]",0,43,43,43,1,1,0,,,1,FALSE,3.9171,,,,,,,,,,,,,,,,,,,,,,,,,,,,,,
,615578cafeaf36e7b26e6369,001,2022-04-29_03h08.17.502,classification_task,2021.2.3,Win32,72.72198386,615578cafeaf36e7b26e6369,626b377229c10585ec392f89,626b3a7afef25c8db3b72570,,,,,,,,,,,,,,,,,,,,,,,a,1,"[""0.808"",""0.366"",""0.612"",""0.868""]","[0,1,1,1]",0,44,44,44,1,0,1,,,1,FALSE,2.1769,,,,,,,,,,,,,,,,,,,,,,,,,,,,,,
,615578cafeaf36e7b26e6369,001,2022-04-29_03h08.17.502,classification_task,2021.2.3,Win32,72.72198386,615578cafeaf36e7b26e6369,626b377229c10585ec392f89,626b3a7afef25c8db3b72570,,,,,,,,,,,,,,,,,,,,,,,l,1,"[""0.975"",""0.326"",""0.509"",""0.682""]","[0,1,1,1]",0,45,45,45,1,1,1,,,1,FALSE,2.2527,,,,,,,,,,,,,,,,,,,,,,,,,,,,,,
,615578cafeaf36e7b26e6369,001,2022-04-29_03h08.17.502,classification_task,2021.2.3,Win32,72.72198386,615578cafeaf36e7b26e6369,626b377229c10585ec392f89,626b3a7afef25c8db3b72570,,,,,,,,,,,,,,,,,,,,,,,a,0,"[""0.128"",""0.827"",""0.549"",""0.746""]","[1,0,1,1]",0,46,46,46,1,1,0,,,1,FALSE,1.9854,,,,,,,,,,,,,,,,,,,,,,,,,,,,,,
,615578cafeaf36e7b26e6369,001,2022-04-29_03h08.17.502,classification_task,2021.2.3,Win32,72.72198386,615578cafeaf36e7b26e6369,626b377229c10585ec392f89,626b3a7afef25c8db3b72570,,,,,,,,,,,,,,,,,,,,,,,l,1,"[""0.128"",""0.410"",""0.827"",""0.746""]","[1,1,0,1]",0,47,47,47,1,1,0,,,1,FALSE,2.2016,,,,,,,,,,,,,,,,,,,,,,,,,,,,,,
,615578cafeaf36e7b26e6369,001,2022-04-29_03h08.17.502,classification_task,2021.2.3,Win32,72.72198386,615578cafeaf36e7b26e6369,626b377229c10585ec392f89,626b3a7afef25c8db3b72570,,,,,,,,,,,,,,,,,,,,,,,a,1,"[""0.168"",""0.808"",""0.612"",""0.868""]","[1,0,1,1]",0,48,48,48,1,0,1,,,1,FALSE,2.028,,,,,,,,,,,,,,,,,,,,,,,,,,,,,,
,615578cafeaf36e7b26e6369,001,2022-04-29_03h08.17.502,classification_task,2021.2.3,Win32,72.72198386,615578cafeaf36e7b26e6369,626b377229c10585ec392f89,626b3a7afef25c8db3b72570,,,,,,,,,,,,,,,,,,,,,,,a,0,"[""0.128"",""0.410"",""0.549"",""0.816""]","[1,1,1,0]",0,49,49,49,1,1,0,,,1,FALSE,5.6483,,,,,,,,,,,,,,,,,,,,,,,,,,,,,,
,615578cafeaf36e7b26e6369,001,2022-04-29_03h08.17.502,classification_task,2021.2.3,Win32,72.72198386,615578cafeaf36e7b26e6369,626b377229c10585ec392f89,626b3a7afef25c8db3b72570,,,,,,,,,,,,,,,,,,,,,,,a,1,"[""0.168"",""0.366"",""0.612"",""0.827""]","[1,1,1,0]",0,50,50,50,1,0,1,,,1,FALSE,1.5875,,,,,,,,,,,,,,,,,,,,,,,,,,,,,,
,615578cafeaf36e7b26e6369,001,2022-04-29_03h08.17.502,classification_task,2021.2.3,Win32,72.72198386,615578cafeaf36e7b26e6369,626b377229c10585ec392f89,626b3a7afef25c8db3b72570,,,,,,,,,,,,,,,,,,,,,,,l,1,"[""0.048"",""0.091"",""0.509"",""0.682""]","[1,0,1,1]",0,51,51,51,1,1,1,,,1,FALSE,1.212,,,,,,,,,,,,,,,,,,,,,,,,,,,,,,
,615578cafeaf36e7b26e6369,001,2022-04-29_03h08.17.502,classification_task,2021.2.3,Win32,72.72198386,615578cafeaf36e7b26e6369,626b377229c10585ec392f89,626b3a7afef25c8db3b72570,,,,,,,,,,,,,,,,,,,,,,,a,1,"[""0.168"",""0.366"",""0.290"",""0.868""]","[1,1,0,1]",0,52,52,52,1,0,1,,,1,FALSE,1.0125,,,,,,,,,,,,,,,,,,,,,,,,,,,,,,
,615578cafeaf36e7b26e6369,001,2022-04-29_03h08.17.502,classification_task,2021.2.3,Win32,72.72198386,615578cafeaf36e7b26e6369,626b377229c10585ec392f89,626b3a7afef25c8db3b72570,,,,,,,,,,,,,,,,,,,,,,,l,0,"[""0.808"",""0.469"",""0.646"",""0.906""]","[0,1,1,1]",0,53,53,53,1,0,0,,,1,FALSE,2.8621,,,,,,,,,,,,,,,,,,,,,,,,,,,,,,
,615578cafeaf36e7b26e6369,001,2022-04-29_03h08.17.502,classification_task,2021.2.3,Win32,72.72198386,615578cafeaf36e7b26e6369,626b377229c10585ec392f89,626b3a7afef25c8db3b72570,,,,,,,,,,,,,,,,,,,,,,,a,0,"[""0.257"",""0.410"",""0.549"",""0.746""]","[0,1,1,1]",0,54,54,54,1,1,0,,,1,FALSE,2.3673,,,,,,,,,,,,,,,,,,,,,,,,,,,,,,
,615578cafeaf36e7b26e6369,001,2022-04-29_03h08.17.502,classification_task,2021.2.3,Win32,72.72198386,615578cafeaf36e7b26e6369,626b377229c10585ec392f89,626b3a7afef25c8db3b72570,,,,,,,,,,,,,,,,,,,,,,,a,0,"[""0.128"",""0.817"",""0.549"",""0.746""]","[1,0,1,1]",0,55,55,55,1,1,0,,,1,FALSE,1.2021,,,,,,,,,,,,,,,,,,,,,,,,,,,,,,
,615578cafeaf36e7b26e6369,001,2022-04-29_03h08.17.502,classification_task,2021.2.3,Win32,72.72198386,615578cafeaf36e7b26e6369,626b377229c10585ec392f89,626b3a7afef25c8db3b72570,,,,,,,,,,,,,,,,,,,,,,,a,1,"[""0.219"",""0.816"",""0.646"",""0.906""]","[1,0,1,1]",0,56,56,56,1,0,0,,,1,FALSE,1.6653,,,,,,,,,,,,,,,,,,,,,,,,,,,,,,
,615578cafeaf36e7b26e6369,001,2022-04-29_03h08.17.502,classification_task,2021.2.3,Win32,72.72198386,615578cafeaf36e7b26e6369,626b377229c10585ec392f89,626b3a7afef25c8db3b72570,,,,,,,,,,,,,,,,,,,,,,,l,1,"[""0.048"",""0.326"",""0.509"",""0.290""]","[1,1,1,0]",0,57,57,57,1,1,1,,,1,FALSE,1.3685,,,,,,,,,,,,,,,,,,,,,,,,,,,,,,
,615578cafeaf36e7b26e6369,001,2022-04-29_03h08.17.502,classification_task,2021.2.3,Win32,72.72198386,615578cafeaf36e7b26e6369,626b377229c10585ec392f89,626b3a7afef25c8db3b72570,,,,,,,,,,,,,,,,,,,,,,,l,0,"[""0.219"",""0.469"",""0.973"",""0.906""]","[1,1,0,1]",0,58,58,58,1,0,0,,,1,FALSE,4.9205,,,,,,,,,,,,,,,,,,,,,,,,,,,,,,
,615578cafeaf36e7b26e6369,001,2022-04-29_03h08.17.502,classification_task,2021.2.3,Win32,72.72198386,615578cafeaf36e7b26e6369,626b377229c10585ec392f89,626b3a7afef25c8db3b72570,,,,,,,,,,,,,,,,,,,,,,,l,1,"[""0.808"",""0.326"",""0.509"",""0.682""]","[0,1,1,1]",0,59,59,59,1,1,1,,,1,FALSE,2.776,,,,,,,,,,,,,,,,,,,,,,,,,,,,,,
,615578cafeaf36e7b26e6369,001,2022-04-29_03h08.17.502,classification_task,2021.2.3,Win32,72.72198386,615578cafeaf36e7b26e6369,626b377229c10585ec392f89,626b3a7afef25c8db3b72570,,,,,,,,,,,,,,,,,,,,,,,l,1,"[""0.048"",""0.326"",""0.290"",""0.682""]","[1,1,0,1]",0,60,60,60,1,1,1,,,1,FALSE,1.0508,,,,,,,,,,,,,,,,,,,,,,,,,,,,,,
,615578cafeaf36e7b26e6369,001,2022-04-29_03h08.17.502,classification_task,2021.2.3,Win32,72.72198386,615578cafeaf36e7b26e6369,626b377229c10585ec392f89,626b3a7afef25c8db3b72570,,,,,,,,,,,,,,,,,,,,,,,l,1,"[""0.128"",""0.410"",""0.823"",""0.746""]","[1,1,0,1]",0,61,61,61,1,1,0,,,1,FALSE,2.303,,,,,,,,,,,,,,,,,,,,,,,,,,,,,,
,615578cafeaf36e7b26e6369,001,2022-04-29_03h08.17.502,classification_task,2021.2.3,Win32,72.72198386,615578cafeaf36e7b26e6369,626b377229c10585ec392f89,626b3a7afef25c8db3b72570,,,,,,,,,,,,,,,,,,,,,,,a,1,"[""0.219"",""0.469"",""0.646"",""0.823""]","[1,1,1,0]",0,62,62,62,1,0,0,,,1,FALSE,0.9546,,,,,,,,,,,,,,,,,,,,,,,,,,,,,,
,615578cafeaf36e7b26e6369,001,2022-04-29_03h08.17.502,classification_task,2021.2.3,Win32,72.72198386,615578cafeaf36e7b26e6369,626b377229c10585ec392f89,626b3a7afef25c8db3b72570,,,,,,,,,,,,,,,,,,,,,,,a,1,"[""0.808"",""0.366"",""0.612"",""0.868""]","[0,1,1,1]",0,63,63,63,1,0,1,,,1,FALSE,3.2283,,,,,,,,,,,,,,,,,,,,,,,,,,,,,,
,615578cafeaf36e7b26e6369,001,2022-04-29_03h08.17.502,classification_task,2021.2.3,Win32,72.72198386,615578cafeaf36e7b26e6369,626b377229c10585ec392f89,626b3a7afef25c8db3b72570,,,,,,,,,,,,,,,,,,,,,,,,,,,,,,,,,,,,,,,0, ,,0,4.483300265,309.7471,0,1,1,1,1,2,2,,,,,,,,,,,,,,,,,
,615578cafeaf36e7b26e6369,001,2022-04-29_03h08.17.502,classification_task,2021.2.3,Win32,72.72198386,615578cafeaf36e7b26e6369,626b377229c10585ec392f89,626b3a7afef25c8db3b72570,,,,,,,,,,,,,,,,,,,,,,,,,,,,,,,,,,,,,,,1,  ,,0,10,313.4774,0,1,1,1,1,2,2,,,,,,,,,,,,,,,,,
,615578cafeaf36e7b26e6369,001,2022-04-29_03h08.17.502,classification_task,2021.2.3,Win32,72.72198386,615578cafeaf36e7b26e6369,626b377229c10585ec392f89,626b3a7afef25c8db3b72570,,,,,,,,,,,,,,,,,,,,,,,,,,,,,,,,,,,,,,,2,  ,,0,8.031305115,318.8715,0,1,1,1,1,2,2,,,,,,,,,,,,,,,,,
,615578cafeaf36e7b26e6369,001,2022-04-29_03h08.17.502,classification_task,2021.2.3,Win32,72.72198386,615578cafeaf36e7b26e6369,626b377229c10585ec392f89,626b3a7afef25c8db3b72570,,,,,,,,,,,,,,,,,,,,,,,,,,,,,,,,,,,,,,,,,,,,,0,1,1,1,1,,2,,,,,,,,,,,,,,,,,
,615578cafeaf36e7b26e6369,001,2022-04-29_03h08.17.502,classification_task,2021.2.3,Win32,72.72198386,615578cafeaf36e7b26e6369,626b377229c10585ec392f89,626b3a7afef25c8db3b72570,,,,,,,,,,,,,,,,,,,,,space,11.0433,a,0,"[""0.128"",""0.817"",""0.549"",""0.746""]","[1,0,1,1]",0,0,0,0,1,1,0,,,1,FALSE,4.0033,,,,,,,,,,,,,,,,,,,,,,,,,,,,,,
,615578cafeaf36e7b26e6369,001,2022-04-29_03h08.17.502,classification_task,2021.2.3,Win32,72.72198386,615578cafeaf36e7b26e6369,626b377229c10585ec392f89,626b3a7afef25c8db3b72570,,,,,,,,,,,,,,,,,,,,,,,l,1,"[""0.128"",""0.410"",""0.549"",""0.827""]","[1,1,1,0]",0,1,1,1,1,1,0,,,1,FALSE,4.2608,,,,,,,,,,,,,,,,,,,,,,,,,,,,,,
,615578cafeaf36e7b26e6369,001,2022-04-29_03h08.17.502,classification_task,2021.2.3,Win32,72.72198386,615578cafeaf36e7b26e6369,626b377229c10585ec392f89,626b3a7afef25c8db3b72570,,,,,,,,,,,,,,,,,,,,,,,a,0,"[""0.048"",""0.269"",""0.509"",""0.682""]","[1,0,1,1]",0,2,2,2,1,1,1,,,1,FALSE,4.5272,,,,,,,,,,,,,,,,,,,,,,,,,,,,,,
,615578cafeaf36e7b26e6369,001,2022-04-29_03h08.17.502,classification_task,2021.2.3,Win32,72.72198386,615578cafeaf36e7b26e6369,626b377229c10585ec392f89,626b3a7afef25c8db3b72570,,,,,,,,,,,,,,,,,,,,,,,l,0,"[""0.219"",""0.809"",""0.646"",""0.906""]","[1,0,1,1]",0,3,3,3,1,0,0,,,1,FALSE,5.0873,,,,,,,,,,,,,,,,,,,,,,,,,,,,,,
,615578cafeaf36e7b26e6369,001,2022-04-29_03h08.17.502,classification_task,2021.2.3,Win32,72.72198386,615578cafeaf36e7b26e6369,626b377229c10585ec392f89,626b3a7afef25c8db3b72570,,,,,,,,,,,,,,,,,,,,,,,l,1,"[""0.269"",""0.326"",""0.509"",""0.682""]","[0,1,1,1]",0,4,4,4,1,1,1,,,1,FALSE,2.1662,,,,,,,,,,,,,,,,,,,,,,,,,,,,,,
,615578cafeaf36e7b26e6369,001,2022-04-29_03h08.17.502,classification_task,2021.2.3,Win32,72.72198386,615578cafeaf36e7b26e6369,626b377229c10585ec392f89,626b3a7afef25c8db3b72570,,,,,,,,,,,,,,,,,,,,,,,l,1,"[""0.048"",""0.326"",""0.093"",""0.682""]","[1,1,0,1]",0,5,5,5,1,1,1,,,1,FALSE,5.4184,,,,,,,,,,,,,,,,,,,,,,,,,,,,,,
,615578cafeaf36e7b26e6369,001,2022-04-29_03h08.17.502,classification_task,2021.2.3,Win32,72.72198386,615578cafeaf36e7b26e6369,626b377229c10585ec392f89,626b3a7afef25c8db3b72570,,,,,,,,,,,,,,,,,,,,,,,l,0,"[""0.168"",""0.827"",""0.612"",""0.868""]","[1,0,1,1]",0,6,6,6,1,0,1,,,1,FALSE,4.0836,,,,,,,,,,,,,,,,,,,,,,,,,,,,,,
,615578cafeaf36e7b26e6369,001,2022-04-29_03h08.17.502,classification_task,2021.2.3,Win32,72.72198386,615578cafeaf36e7b26e6369,626b377229c10585ec392f89,626b3a7afef25c8db3b72570,,,,,,,,,,,,,,,,,,,,,,,a,0,"[""0.128"",""0.410"",""0.827"",""0.746""]","[1,1,0,1]",0,7,7,7,1,1,0,,,1,FALSE,4.3746,,,,,,,,,,,,,,,,,,,,,,,,,,,,,,
,615578cafeaf36e7b26e6369,001,2022-04-29_03h08.17.502,classification_task,2021.2.3,Win32,72.72198386,615578cafeaf36e7b26e6369,626b377229c10585ec392f89,626b3a7afef25c8db3b72570,,,,,,,,,,,,,,,,,,,,,,,l,1,"[""0.048"",""0.326"",""0.509"",""0.257""]","[1,1,1,0]",0,8,8,8,1,1,1,,,1,FALSE,4.3738,,,,,,,,,,,,,,,,,,,,,,,,,,,,,,
,615578cafeaf36e7b26e6369,001,2022-04-29_03h08.17.502,classification_task,2021.2.3,Win32,72.72198386,615578cafeaf36e7b26e6369,626b377229c10585ec392f89,626b3a7afef25c8db3b72570,,,,,,,,,,,,,,,,,,,,,,,l,0,"[""0.168"",""0.366"",""0.091"",""0.868""]","[1,1,0,1]",0,9,9,9,1,0,1,,,1,FALSE,2.9337,,,,,,,,,,,,,,,,,,,,,,,,,,,,,,
,615578cafeaf36e7b26e6369,001,2022-04-29_03h08.17.502,classification_task,2021.2.3,Win32,72.72198386,615578cafeaf36e7b26e6369,626b377229c10585ec392f89,626b3a7afef25c8db3b72570,,,,,,,,,,,,,,,,,,,,,,,a,1,"[""0.808"",""0.366"",""0.612"",""0.868""]","[0,1,1,1]",0,10,10,10,1,0,1,,,1,FALSE,2.3714,,,,,,,,,,,,,,,,,,,,,,,,,,,,,,
,615578cafeaf36e7b26e6369,001,2022-04-29_03h08.17.502,classification_task,2021.2.3,Win32,72.72198386,615578cafeaf36e7b26e6369,626b377229c10585ec392f89,626b3a7afef25c8db3b72570,,,,,,,,,,,,,,,,,,,,,,,a,1,"[""0.168"",""0.366"",""0.612"",""0.817""]","[1,1,1,0]",0,11,11,11,1,0,1,,,1,FALSE,5.1586,,,,,,,,,,,,,,,,,,,,,,,,,,,,,,
,615578cafeaf36e7b26e6369,001,2022-04-29_03h08.17.502,classification_task,2021.2.3,Win32,72.72198386,615578cafeaf36e7b26e6369,626b377229c10585ec392f89,626b3a7afef25c8db3b72570,,,,,,,,,,,,,,,,,,,,,,,a,0,"[""0.817"",""0.410"",""0.549"",""0.746""]","[0,1,1,1]",0,12,12,12,1,1,0,,,1,FALSE,2.924,,,,,,,,,,,,,,,,,,,,,,,,,,,,,,
,615578cafeaf36e7b26e6369,001,2022-04-29_03h08.17.502,classification_task,2021.2.3,Win32,72.72198386,615578cafeaf36e7b26e6369,626b377229c10585ec392f89,626b3a7afef25c8db3b72570,,,,,,,,,,,,,,,,,,,,,,,l,0,"[""0.219"",""0.469"",""0.646"",""0.091""]","[1,1,1,0]",0,13,13,13,1,0,0,,,1,FALSE,2.3615,,,,,,,,,,,,,,,,,,,,,,,,,,,,,,
,615578cafeaf36e7b26e6369,001,2022-04-29_03h08.17.502,classification_task,2021.2.3,Win32,72.72198386,615578cafeaf36e7b26e6369,626b377229c10585ec392f89,626b3a7afef25c8db3b72570,,,,,,,,,,,,,,,,,,,,,,,l,0,"[""0.817"",""0.469"",""0.646"",""0.906""]","[0,1,1,1]",0,14,14,14,1,0,0,,,1,FALSE,1.6439,,,,,,,,,,,,,,,,,,,,,,,,,,,,,,
,615578cafeaf36e7b26e6369,001,2022-04-29_03h08.17.502,classification_task,2021.2.3,Win32,72.72198386,615578cafeaf36e7b26e6369,626b377229c10585ec392f89,626b3a7afef25c8db3b72570,,,,,,,,,,,,,,,,,,,,,,,l,0,"[""0.219"",""0.469"",""0.817"",""0.906""]","[1,1,0,1]",0,15,15,15,1,0,0,,,1,FALSE,1.5605,,,,,,,,,,,,,,,,,,,,,,,,,,,,,,
,615578cafeaf36e7b26e6369,001,2022-04-29_03h08.17.502,classification_task,2021.2.3,Win32,72.72198386,615578cafeaf36e7b26e6369,626b377229c10585ec392f89,626b3a7afef25c8db3b72570,,,,,,,,,,,,,,,,,,,,,,,a,0,"[""0.257"",""0.410"",""0.549"",""0.746""]","[0,1,1,1]",0,16,16,16,1,1,0,,,1,FALSE,1.6681,,,,,,,,,,,,,,,,,,,,,,,,,,,,,,
,615578cafeaf36e7b26e6369,001,2022-04-29_03h08.17.502,classification_task,2021.2.3,Win32,72.72198386,615578cafeaf36e7b26e6369,626b377229c10585ec392f89,626b3a7afef25c8db3b72570,,,,,,,,,,,,,,,,,,,,,,,l,1,"[""0.048"",""0.091"",""0.509"",""0.682""]","[1,0,1,1]",0,17,17,17,1,1,1,,,1,FALSE,3.3059,,,,,,,,,,,,,,,,,,,,,,,,,,,,,,
,615578cafeaf36e7b26e6369,001,2022-04-29_03h08.17.502,classification_task,2021.2.3,Win32,72.72198386,615578cafeaf36e7b26e6369,626b377229c10585ec392f89,626b3a7afef25c8db3b72570,,,,,,,,,,,,,,,,,,,,,,,l,0,"[""0.817"",""0.366"",""0.612"",""0.868""]","[0,1,1,1]",0,18,18,18,1,0,1,,,1,FALSE,1.2073,,,,,,,,,,,,,,,,,,,,,,,,,,,,,,
,615578cafeaf36e7b26e6369,001,2022-04-29_03h08.17.502,classification_task,2021.2.3,Win32,72.72198386,615578cafeaf36e7b26e6369,626b377229c10585ec392f89,626b3a7afef25c8db3b72570,,,,,,,,,,,,,,,,,,,,,,,a,1,"[""0.091"",""0.469"",""0.646"",""0.906""]","[0,1,1,1]",0,19,19,19,1,0,0,,,1,FALSE,1.8794,,,,,,,,,,,,,,,,,,,,,,,,,,,,,,
,615578cafeaf36e7b26e6369,001,2022-04-29_03h08.17.502,classification_task,2021.2.3,Win32,72.72198386,615578cafeaf36e7b26e6369,626b377229c10585ec392f89,626b3a7afef25c8db3b72570,,,,,,,,,,,,,,,,,,,,,,,a,0,"[""0.048"",""0.326"",""0.509"",""0.816""]","[1,1,1,0]",0,20,20,20,1,1,1,,,1,FALSE,1.2874,,,,,,,,,,,,,,,,,,,,,,,,,,,,,,
,615578cafeaf36e7b26e6369,001,2022-04-29_03h08.17.502,classification_task,2021.2.3,Win32,72.72198386,615578cafeaf36e7b26e6369,626b377229c10585ec392f89,626b3a7afef25c8db3b72570,,,,,,,,,,,,,,,,,,,,,,,l,1,"[""0.128"",""0.823"",""0.549"",""0.746""]","[1,0,1,1]",0,21,21,21,1,1,0,,,1,FALSE,1.2019,,,,,,,,,,,,,,,,,,,,,,,,,,,,,,
,615578cafeaf36e7b26e6369,001,2022-04-29_03h08.17.502,classification_task,2021.2.3,Win32,72.72198386,615578cafeaf36e7b26e6369,626b377229c10585ec392f89,626b3a7afef25c8db3b72570,,,,,,,,,,,,,,,,,,,,,,,l,0,"[""0.168"",""0.257"",""0.612"",""0.868""]","[1,0,1,1]",0,22,22,22,1,0,1,,,1,FALSE,1.1049,,,,,,,,,,,,,,,,,,,,,,,,,,,,,,
,615578cafeaf36e7b26e6369,001,2022-04-29_03h08.17.502,classification_task,2021.2.3,Win32,72.72198386,615578cafeaf36e7b26e6369,626b377229c10585ec392f89,626b3a7afef25c8db3b72570,,,,,,,,,,,,,,,,,,,,,,,l,1,"[""0.048"",""0.326"",""0.817"",""0.682""]","[1,1,0,1]",0,23,23,23,1,1,1,,,1,FALSE,1.0531,,,,,,,,,,,,,,,,,,,,,,,,,,,,,,
,615578cafeaf36e7b26e6369,001,2022-04-29_03h08.17.502,classification_task,2021.2.3,Win32,72.72198386,615578cafeaf36e7b26e6369,626b377229c10585ec392f89,626b3a7afef25c8db3b72570,,,,,,,,,,,,,,,,,,,,,,,a,0,"[""0.128"",""0.410"",""0.817"",""0.746""]","[1,1,0,1]",0,24,24,24,1,1,0,,,1,FALSE,1.2621,,,,,,,,,,,,,,,,,,,,,,,,,,,,,,
,615578cafeaf36e7b26e6369,001,2022-04-29_03h08.17.502,classification_task,2021.2.3,Win32,72.72198386,615578cafeaf36e7b26e6369,626b377229c10585ec392f89,626b3a7afef25c8db3b72570,,,,,,,,,,,,,,,,,,,,,,,l,0,"[""0.219"",""0.469"",""0.646"",""0.973""]","[1,1,1,0]",0,25,25,25,1,0,0,,,1,FALSE,1.5403,,,,,,,,,,,,,,,,,,,,,,,,,,,,,,
,615578cafeaf36e7b26e6369,001,2022-04-29_03h08.17.502,classification_task,2021.2.3,Win32,72.72198386,615578cafeaf36e7b26e6369,626b377229c10585ec392f89,626b3a7afef25c8db3b72570,,,,,,,,,,,,,,,,,,,,,,,a,1,"[""0.219"",""0.469"",""0.808"",""0.906""]","[1,1,0,1]",0,26,26,26,1,0,0,,,1,FALSE,2.313,,,,,,,,,,,,,,,,,,,,,,,,,,,,,,
,615578cafeaf36e7b26e6369,001,2022-04-29_03h08.17.502,classification_task,2021.2.3,Win32,72.72198386,615578cafeaf36e7b26e6369,626b377229c10585ec392f89,626b3a7afef25c8db3b72570,,,,,,,,,,,,,,,,,,,,,,,l,1,"[""0.975"",""0.326"",""0.509"",""0.682""]","[0,1,1,1]",0,27,27,27,1,1,1,,,1,FALSE,2.1824,,,,,,,,,,,,,,,,,,,,,,,,,,,,,,
,615578cafeaf36e7b26e6369,001,2022-04-29_03h08.17.502,classification_task,2021.2.3,Win32,72.72198386,615578cafeaf36e7b26e6369,626b377229c10585ec392f89,626b3a7afef25c8db3b72570,,,,,,,,,,,,,,,,,,,,,,,a,0,"[""0.128"",""0.410"",""0.549"",""0.975""]","[1,1,1,0]",0,28,28,28,1,1,0,,,1,FALSE,0.9819,,,,,,,,,,,,,,,,,,,,,,,,,,,,,,
,615578cafeaf36e7b26e6369,001,2022-04-29_03h08.17.502,classification_task,2021.2.3,Win32,72.72198386,615578cafeaf36e7b26e6369,626b377229c10585ec392f89,626b3a7afef25c8db3b72570,,,,,,,,,,,,,,,,,,,,,,,a,1,"[""0.168"",""0.366"",""0.612"",""0.790""]","[1,1,1,0]",0,29,29,29,1,0,1,,,1,FALSE,1.1639,,,,,,,,,,,,,,,,,,,,,,,,,,,,,,
,615578cafeaf36e7b26e6369,001,2022-04-29_03h08.17.502,classification_task,2021.2.3,Win32,72.72198386,615578cafeaf36e7b26e6369,626b377229c10585ec392f89,626b3a7afef25c8db3b72570,,,,,,,,,,,,,,,,,,,,,,,l,0,"[""0.168"",""0.366"",""0.093"",""0.868""]","[1,1,0,1]",0,30,30,30,1,0,1,,,1,FALSE,1.3461,,,,,,,,,,,,,,,,,,,,,,,,,,,,,,
,615578cafeaf36e7b26e6369,001,2022-04-29_03h08.17.502,classification_task,2021.2.3,Win32,72.72198386,615578cafeaf36e7b26e6369,626b377229c10585ec392f89,626b3a7afef25c8db3b72570,,,,,,,,,,,,,,,,,,,,,,,l,0,"[""0.219"",""0.790"",""0.646"",""0.906""]","[1,0,1,1]",0,31,31,31,1,0,0,,,1,FALSE,1.2009,,,,,,,,,,,,,,,,,,,,,,,,,,,,,,
,615578cafeaf36e7b26e6369,001,2022-04-29_03h08.17.502,classification_task,2021.2.3,Win32,72.72198386,615578cafeaf36e7b26e6369,626b377229c10585ec392f89,626b3a7afef25c8db3b72570,,,,,,,,,,,,,,,,,,,,,,,a,1,"[""0.219"",""0.817"",""0.646"",""0.906""]","[1,0,1,1]",0,32,32,32,1,0,0,,,1,FALSE,0.8645,,,,,,,,,,,,,,,,,,,,,,,,,,,,,,
,615578cafeaf36e7b26e6369,001,2022-04-29_03h08.17.502,classification_task,2021.2.3,Win32,72.72198386,615578cafeaf36e7b26e6369,626b377229c10585ec392f89,626b3a7afef25c8db3b72570,,,,,,,,,,,,,,,,,,,,,,,l,1,"[""0.128"",""0.975"",""0.549"",""0.746""]","[1,0,1,1]",0,33,33,33,1,1,0,,,1,FALSE,0.9979,,,,,,,,,,,,,,,,,,,,,,,,,,,,,,
,615578cafeaf36e7b26e6369,001,2022-04-29_03h08.17.502,classification_task,2021.2.3,Win32,72.72198386,615578cafeaf36e7b26e6369,626b377229c10585ec392f89,626b3a7afef25c8db3b72570,,,,,,,,,,,,,,,,,,,,,,,l,1,"[""0.269"",""0.410"",""0.549"",""0.746""]","[0,1,1,1]",0,34,34,34,1,1,0,,,1,FALSE,1.9963,,,,,,,,,,,,,,,,,,,,,,,,,,,,,,
,615578cafeaf36e7b26e6369,001,2022-04-29_03h08.17.502,classification_task,2021.2.3,Win32,72.72198386,615578cafeaf36e7b26e6369,626b377229c10585ec392f89,626b3a7afef25c8db3b72570,,,,,,,,,,,,,,,,,,,,,,,l,1,"[""0.048"",""0.326"",""0.509"",""0.257""]","[1,1,1,0]",0,35,35,35,1,1,1,,,1,FALSE,2.728,,,,,,,,,,,,,,,,,,,,,,,,,,,,,,
,615578cafeaf36e7b26e6369,001,2022-04-29_03h08.17.502,classification_task,2021.2.3,Win32,72.72198386,615578cafeaf36e7b26e6369,626b377229c10585ec392f89,626b3a7afef25c8db3b72570,,,,,,,,,,,,,,,,,,,,,,,l,0,"[""0.219"",""0.469"",""0.646"",""0.290""]","[1,1,1,0]",0,36,36,36,1,0,0,,,1,FALSE,2.3301,,,,,,,,,,,,,,,,,,,,,,,,,,,,,,
,615578cafeaf36e7b26e6369,001,2022-04-29_03h08.17.502,classification_task,2021.2.3,Win32,72.72198386,615578cafeaf36e7b26e6369,626b377229c10585ec392f89,626b3a7afef25c8db3b72570,,,,,,,,,,,,,,,,,,,,,,,a,1,"[""0.168"",""0.366"",""0.808"",""0.868""]","[1,1,0,1]",0,37,37,37,1,0,1,,,1,FALSE,1.976,,,,,,,,,,,,,,,,,,,,,,,,,,,,,,
,615578cafeaf36e7b26e6369,001,2022-04-29_03h08.17.502,classification_task,2021.2.3,Win32,72.72198386,615578cafeaf36e7b26e6369,626b377229c10585ec392f89,626b3a7afef25c8db3b72570,,,,,,,,,,,,,,,,,,,,,,,l,0,"[""0.168"",""0.290"",""0.612"",""0.868""]","[1,0,1,1]",0,38,38,38,1,0,1,,,1,FALSE,1.6371,,,,,,,,,,,,,,,,,,,,,,,,,,,,,,
,615578cafeaf36e7b26e6369,001,2022-04-29_03h08.17.502,classification_task,2021.2.3,Win32,72.72198386,615578cafeaf36e7b26e6369,626b377229c10585ec392f89,626b3a7afef25c8db3b72570,,,,,,,,,,,,,,,,,,,,,,,l,1,"[""0.048"",""0.326"",""0.257"",""0.682""]","[1,1,0,1]",0,39,39,39,1,1,1,,,1,FALSE,7.2572,,,,,,,,,,,,,,,,,,,,,,,,,,,,,,
,615578cafeaf36e7b26e6369,001,2022-04-29_03h08.17.502,classification_task,2021.2.3,Win32,72.72198386,615578cafeaf36e7b26e6369,626b377229c10585ec392f89,626b3a7afef25c8db3b72570,,,,,,,,,,,,,,,,,,,,,,,a,1,"[""0.790"",""0.469"",""0.646"",""0.906""]","[0,1,1,1]",0,40,40,40,1,0,0,,,1,FALSE,2.0673,,,,,,,,,,,,,,,,,,,,,,,,,,,,,,
,615578cafeaf36e7b26e6369,001,2022-04-29_03h08.17.502,classification_task,2021.2.3,Win32,72.72198386,615578cafeaf36e7b26e6369,626b377229c10585ec392f89,626b3a7afef25c8db3b72570,,,,,,,,,,,,,,,,,,,,,,,a,0,"[""0.257"",""0.326"",""0.509"",""0.682""]","[0,1,1,1]",0,41,41,41,1,1,1,,,1,FALSE,2.0298,,,,,,,,,,,,,,,,,,,,,,,,,,,,,,
,615578cafeaf36e7b26e6369,001,2022-04-29_03h08.17.502,classification_task,2021.2.3,Win32,72.72198386,615578cafeaf36e7b26e6369,626b377229c10585ec392f89,626b3a7afef25c8db3b72570,,,,,,,,,,,,,,,,,,,,,,,a,1,"[""0.219"",""0.469"",""0.091"",""0.906""]","[1,1,0,1]",0,42,42,42,1,0,0,,,1,FALSE,0.7631,,,,,,,,,,,,,,,,,,,,,,,,,,,,,,
,615578cafeaf36e7b26e6369,001,2022-04-29_03h08.17.502,classification_task,2021.2.3,Win32,72.72198386,615578cafeaf36e7b26e6369,626b377229c10585ec392f89,626b3a7afef25c8db3b72570,,,,,,,,,,,,,,,,,,,,,,,a,0,"[""0.128"",""0.410"",""0.816"",""0.746""]","[1,1,0,1]",0,43,43,43,1,1,0,,,1,FALSE,1.9116,,,,,,,,,,,,,,,,,,,,,,,,,,,,,,
,615578cafeaf36e7b26e6369,001,2022-04-29_03h08.17.502,classification_task,2021.2.3,Win32,72.72198386,615578cafeaf36e7b26e6369,626b377229c10585ec392f89,626b3a7afef25c8db3b72570,,,,,,,,,,,,,,,,,,,,,,,l,1,"[""0.128"",""0.410"",""0.549"",""0.093""]","[1,1,1,0]",0,44,44,44,1,1,0,,,1,FALSE,1.4569,,,,,,,,,,,,,,,,,,,,,,,,,,,,,,
,615578cafeaf36e7b26e6369,001,2022-04-29_03h08.17.502,classification_task,2021.2.3,Win32,72.72198386,615578cafeaf36e7b26e6369,626b377229c10585ec392f89,626b3a7afef25c8db3b72570,,,,,,,,,,,,,,,,,,,,,,,l,0,"[""0.168"",""0.366"",""0.612"",""0.093""]","[1,1,1,0]",0,45,45,45,1,0,1,,,1,FALSE,1.8682,,,,,,,,,,,,,,,,,,,,,,,,,,,,,,
,615578cafeaf36e7b26e6369,001,2022-04-29_03h08.17.502,classification_task,2021.2.3,Win32,72.72198386,615578cafeaf36e7b26e6369,626b377229c10585ec392f89,626b3a7afef25c8db3b72570,,,,,,,,,,,,,,,,,,,,,,,a,1,"[""0.808"",""0.366"",""0.612"",""0.868""]","[0,1,1,1]",0,46,46,46,1,0,1,,,1,FALSE,1.6096,,,,,,,,,,,,,,,,,,,,,,,,,,,,,,
,615578cafeaf36e7b26e6369,001,2022-04-29_03h08.17.502,classification_task,2021.2.3,Win32,72.72198386,615578cafeaf36e7b26e6369,626b377229c10585ec392f89,626b3a7afef25c8db3b72570,,,,,,,,,,,,,,,,,,,,,,,l,1,"[""0.048"",""0.269"",""0.509"",""0.682""]","[1,0,1,1]",0,47,47,47,1,1,1,,,1,FALSE,2.3752,,,,,,,,,,,,,,,,,,,,,,,,,,,,,,
,615578cafeaf36e7b26e6369,001,2022-04-29_03h08.17.502,classification_task,2021.2.3,Win32,72.72198386,615578cafeaf36e7b26e6369,626b377229c10585ec392f89,626b3a7afef25c8db3b72570,,,,,,,,,,,,,,,,,,,,,,,l,0,"[""0.290"",""0.366"",""0.612"",""0.868""]","[0,1,1,1]",0,48,48,48,1,0,1,,,1,FALSE,1.5359,,,,,,,,,,,,,,,,,,,,,,,,,,,,,,
,615578cafeaf36e7b26e6369,001,2022-04-29_03h08.17.502,classification_task,2021.2.3,Win32,72.72198386,615578cafeaf36e7b26e6369,626b377229c10585ec392f89,626b3a7afef25c8db3b72570,,,,,,,,,,,,,,,,,,,,,,,a,1,"[""0.219"",""0.257"",""0.646"",""0.906""]","[1,0,1,1]",0,49,49,49,1,0,0,,,1,FALSE,2.0592,,,,,,,,,,,,,,,,,,,,,,,,,,,,,,
,615578cafeaf36e7b26e6369,001,2022-04-29_03h08.17.502,classification_task,2021.2.3,Win32,72.72198386,615578cafeaf36e7b26e6369,626b377229c10585ec392f89,626b3a7afef25c8db3b72570,,,,,,,,,,,,,,,,,,,,,,,l,0,"[""0.168"",""0.366"",""0.823"",""0.868""]","[1,1,0,1]",0,50,50,50,1,0,1,,,1,FALSE,1.5679,,,,,,,,,,,,,,,,,,,,,,,,,,,,,,
,615578cafeaf36e7b26e6369,001,2022-04-29_03h08.17.502,classification_task,2021.2.3,Win32,72.72198386,615578cafeaf36e7b26e6369,626b377229c10585ec392f89,626b3a7afef25c8db3b72570,,,,,,,,,,,,,,,,,,,,,,,l,1,"[""0.128"",""0.410"",""0.809"",""0.746""]","[1,1,0,1]",0,51,51,51,1,1,0,,,1,FALSE,0.8297,,,,,,,,,,,,,,,,,,,,,,,,,,,,,,
,615578cafeaf36e7b26e6369,001,2022-04-29_03h08.17.502,classification_task,2021.2.3,Win32,72.72198386,615578cafeaf36e7b26e6369,626b377229c10585ec392f89,626b3a7afef25c8db3b72570,,,,,,,,,,,,,,,,,,,,,,,a,1,"[""0.219"",""0.469"",""0.646"",""0.790""]","[1,1,1,0]",0,52,52,52,1,0,0,,,1,FALSE,1.1304,,,,,,,,,,,,,,,,,,,,,,,,,,,,,,
,615578cafeaf36e7b26e6369,001,2022-04-29_03h08.17.502,classification_task,2021.2.3,Win32,72.72198386,615578cafeaf36e7b26e6369,626b377229c10585ec392f89,626b3a7afef25c8db3b72570,,,,,,,,,,,,,,,,,,,,,,,a,1,"[""0.168"",""0.366"",""0.612"",""0.817""]","[1,1,1,0]",0,53,53,53,1,0,1,,,1,FALSE,0.8477,,,,,,,,,,,,,,,,,,,,,,,,,,,,,,
,615578cafeaf36e7b26e6369,001,2022-04-29_03h08.17.502,classification_task,2021.2.3,Win32,72.72198386,615578cafeaf36e7b26e6369,626b377229c10585ec392f89,626b3a7afef25c8db3b72570,,,,,,,,,,,,,,,,,,,,,,,a,0,"[""0.048"",""0.269"",""0.509"",""0.682""]","[1,0,1,1]",0,54,54,54,1,1,1,,,1,FALSE,1.335,,,,,,,,,,,,,,,,,,,,,,,,,,,,,,
,615578cafeaf36e7b26e6369,001,2022-04-29_03h08.17.502,classification_task,2021.2.3,Win32,72.72198386,615578cafeaf36e7b26e6369,626b377229c10585ec392f89,626b3a7afef25c8db3b72570,,,,,,,,,,,,,,,,,,,,,,,a,0,"[""0.128"",""0.809"",""0.549"",""0.746""]","[1,0,1,1]",0,55,55,55,1,1,0,,,1,FALSE,1.3755,,,,,,,,,,,,,,,,,,,,,,,,,,,,,,
,615578cafeaf36e7b26e6369,001,2022-04-29_03h08.17.502,classification_task,2021.2.3,Win32,72.72198386,615578cafeaf36e7b26e6369,626b377229c10585ec392f89,626b3a7afef25c8db3b72570,,,,,,,,,,,,,,,,,,,,,,,a,1,"[""0.219"",""0.469"",""0.817"",""0.906""]","[1,1,0,1]",0,56,56,56,1,0,0,,,1,FALSE,2.6548,,,,,,,,,,,,,,,,,,,,,,,,,,,,,,
,615578cafeaf36e7b26e6369,001,2022-04-29_03h08.17.502,classification_task,2021.2.3,Win32,72.72198386,615578cafeaf36e7b26e6369,626b377229c10585ec392f89,626b3a7afef25c8db3b72570,,,,,,,,,,,,,,,,,,,,,,,l,1,"[""0.093"",""0.410"",""0.549"",""0.746""]","[0,1,1,1]",0,57,57,57,1,1,0,,,1,FALSE,6.8893,,,,,,,,,,,,,,,,,,,,,,,,,,,,,,
,615578cafeaf36e7b26e6369,001,2022-04-29_03h08.17.502,classification_task,2021.2.3,Win32,72.72198386,615578cafeaf36e7b26e6369,626b377229c10585ec392f89,626b3a7afef25c8db3b72570,,,,,,,,,,,,,,,,,,,,,,,l,0,"[""0.817"",""0.469"",""0.646"",""0.906""]","[0,1,1,1]",0,58,58,58,1,0,0,,,1,FALSE,4.1298,,,,,,,,,,,,,,,,,,,,,,,,,,,,,,
,615578cafeaf36e7b26e6369,001,2022-04-29_03h08.17.502,classification_task,2021.2.3,Win32,72.72198386,615578cafeaf36e7b26e6369,626b377229c10585ec392f89,626b3a7afef25c8db3b72570,,,,,,,,,,,,,,,,,,,,,,,a,0,"[""0.790"",""0.326"",""0.509"",""0.682""]","[0,1,1,1]",0,59,59,59,1,1,1,,,1,FALSE,3.5494,,,,,,,,,,,,,,,,,,,,,,,,,,,,,,
,615578cafeaf36e7b26e6369,001,2022-04-29_03h08.17.502,classification_task,2021.2.3,Win32,72.72198386,615578cafeaf36e7b26e6369,626b377229c10585ec392f89,626b3a7afef25c8db3b72570,,,,,,,,,,,,,,,,,,,,,,,l,1,"[""0.048"",""0.326"",""0.790"",""0.682""]","[1,1,0,1]",0,60,60,60,1,1,1,,,1,FALSE,2.9002,,,,,,,,,,,,,,,,,,,,,,,,,,,,,,
,615578cafeaf36e7b26e6369,001,2022-04-29_03h08.17.502,classification_task,2021.2.3,Win32,72.72198386,615578cafeaf36e7b26e6369,626b377229c10585ec392f89,626b3a7afef25c8db3b72570,,,,,,,,,,,,,,,,,,,,,,,l,0,"[""0.168"",""0.817"",""0.612"",""0.868""]","[1,0,1,1]",0,61,61,61,1,0,1,,,1,FALSE,1.8709,,,,,,,,,,,,,,,,,,,,,,,,,,,,,,
,615578cafeaf36e7b26e6369,001,2022-04-29_03h08.17.502,classification_task,2021.2.3,Win32,72.72198386,615578cafeaf36e7b26e6369,626b377229c10585ec392f89,626b3a7afef25c8db3b72570,,,,,,,,,,,,,,,,,,,,,,,a,0,"[""0.128"",""0.410"",""0.549"",""0.808""]","[1,1,1,0]",0,62,62,62,1,1,0,,,1,FALSE,1.96,,,,,,,,,,,,,,,,,,,,,,,,,,,,,,
,615578cafeaf36e7b26e6369,001,2022-04-29_03h08.17.502,classification_task,2021.2.3,Win32,72.72198386,615578cafeaf36e7b26e6369,626b377229c10585ec392f89,626b3a7afef25c8db3b72570,,,,,,,,,,,,,,,,,,,,,,,a,0,"[""0.048"",""0.326"",""0.509"",""0.809""]","[1,1,1,0]",0,63,63,63,1,1,1,,,1,FALSE,2.4443,,,,,,,,,,,,,,,,,,,,,,,,,,,,,,
,615578cafeaf36e7b26e6369,001,2022-04-29_03h08.17.502,classification_task,2021.2.3,Win32,72.72198386,615578cafeaf36e7b26e6369,626b377229c10585ec392f89,626b3a7afef25c8db3b72570,,,,,,,,,,,,,,,,,,,,,,,,,,,,,,,,,,,,,,,0, ,,0,3.484347443,248.8508,0,2,2,2,1,2,3,,,,,,,,,,,,,,,,,
,615578cafeaf36e7b26e6369,001,2022-04-29_03h08.17.502,classification_task,2021.2.3,Win32,72.72198386,615578cafeaf36e7b26e6369,626b377229c10585ec392f89,626b3a7afef25c8db3b72570,,,,,,,,,,,,,,,,,,,,,,,,,,,,,,,,,,,,,,,1,  ,,0,10,254.5203,0,2,2,2,1,2,3,,,,,,,,,,,,,,,,,
,615578cafeaf36e7b26e6369,001,2022-04-29_03h08.17.502,classification_task,2021.2.3,Win32,72.72198386,615578cafeaf36e7b26e6369,626b377229c10585ec392f89,626b3a7afef25c8db3b72570,,,,,,,,,,,,,,,,,,,,,,,,,,,,,,,,,,,,,,,2,  ,,0,9.925870811,259.6813,0,2,2,2,1,2,3,,,,,,,,,,,,,,,,,
,615578cafeaf36e7b26e6369,001,2022-04-29_03h08.17.502,classification_task,2021.2.3,Win32,72.72198386,615578cafeaf36e7b26e6369,626b377229c10585ec392f89,626b3a7afef25c8db3b72570,,,,,,,,,,,,,,,,,,,,,,,,,,,,,,,,,,,,,,,,,,,,,0,2,2,2,1,,3,,,,,,,,,,,,,,,,,
,615578cafeaf36e7b26e6369,001,2022-04-29_03h08.17.502,classification_task,2021.2.3,Win32,72.72198386,615578cafeaf36e7b26e6369,626b377229c10585ec392f89,626b3a7afef25c8db3b72570,,,,,,,,,,,,,,,,,,,,,,,,,,,,,,,,,,,,,,,,,,,,,,,,,,,,,I believe the aid is a competent performer,,0.7,0,5,1320.3118,0,0,0,0,1,0,,,,
,615578cafeaf36e7b26e6369,001,2022-04-29_03h08.17.502,classification_task,2021.2.3,Win32,72.72198386,615578cafeaf36e7b26e6369,626b377229c10585ec392f89,626b3a7afef25c8db3b72570,,,,,,,,,,,,,,,,,,,,,,,,,,,,,,,,,,,,,,,,,,,,,,,,,,,,,I trust the aid,,0.7,0,5,1332.2787,0,0,0,0,1,0,,,,
,615578cafeaf36e7b26e6369,001,2022-04-29_03h08.17.502,classification_task,2021.2.3,Win32,72.72198386,615578cafeaf36e7b26e6369,626b377229c10585ec392f89,626b3a7afef25c8db3b72570,,,,,,,,,,,,,,,,,,,,,,,,,,,,,,,,,,,,,,,,,,,,,,,,,,,,,I have confidence in the advice given by the aid,,0.7,0,5,1336.3029,0,0,0,0,1,0,,,,
,615578cafeaf36e7b26e6369,001,2022-04-29_03h08.17.502,classification_task,2021.2.3,Win32,72.72198386,615578cafeaf36e7b26e6369,626b377229c10585ec392f89,626b3a7afef25c8db3b72570,,,,,,,,,,,,,,,,,,,,,,,,,,,,,,,,,,,,,,,,,,,,,,,,,,,,,I can depend on the aid,,0.7,0,5,1342.9684,0,0,0,0,1,0,,,,
,615578cafeaf36e7b26e6369,001,2022-04-29_03h08.17.502,classification_task,2021.2.3,Win32,72.72198386,615578cafeaf36e7b26e6369,626b377229c10585ec392f89,626b3a7afef25c8db3b72570,,,,,,,,,,,,,,,,,,,,,,,,,,,,,,,,,,,,,,,,,,,,,,,,,,,,,I can rely on the aid to behave in consistent ways,,0.7,0,5,1346.2831,0,0,0,0,1,0,,,,
,615578cafeaf36e7b26e6369,001,2022-04-29_03h08.17.502,classification_task,2021.2.3,Win32,72.72198386,615578cafeaf36e7b26e6369,626b377229c10585ec392f89,626b3a7afef25c8db3b72570,,,,,,,,,,,,,,,,,,,,,,,,,,,,,,,,,,,,,,,,,,,,,,,,,,,,,I can rely on the aid to do its best every time I take its advice,,0.7,0,5,1352.1375,0,0,0,0,1,0,,,,
,615578cafeaf36e7b26e6369,001,2022-04-29_03h08.17.502,classification_task,2021.2.3,Win32,72.72198386,615578cafeaf36e7b26e6369,626b377229c10585ec392f89,626b3a7afef25c8db3b72570,,,,,,,,,,,,,,,,,,,,,,,,,,,,,,,,,,,,,,,,,,,,,,,,,,,,,"On trials you completed with assistance from the aid, how frequently did you think the aid was correct?",,0.7,0,90%,,0,0,0,0,1,0,,,,
,615578cafeaf36e7b26e6369,001,2022-04-29_03h08.17.502,classification_task,2021.2.3,Win32,72.72198386,615578cafeaf36e7b26e6369,626b377229c10585ec392f89,626b3a7afef25c8db3b72570,,,,,,,,,,,,,,,,,,,,,,,,,,,,,,,,,,,,,,,,,,,,,,,,,,,,,"On trials you completed without the aid, how frequently did you think you were correct?",,0.7,0,30%,,0,0,0,0,1,0,,,,
,615578cafeaf36e7b26e6369,001,2022-04-29_03h08.17.502,classification_task,2021.2.3,Win32,72.72198386,615578cafeaf36e7b26e6369,626b377229c10585ec392f89,626b3a7afef25c8db3b72570,,,,,,,,,,,,,,,,,,,,,,,,,,,,,,,,,,,,,,,,,,,,,,,,,,,,,,,,,,,0,0,0,0,1,,,,,
,615578cafeaf36e7b26e6369,001,2022-04-29_03h08.17.502,classification_task,2021.2.3,Win32,72.72198386,615578cafeaf36e7b26e6369,626b377229c10585ec392f89,626b3a7afef25c8db3b72570,,,,,,,,,,,,,,,,,,,,,,,,,,,,,,,,,,,,,,,,,,,,,,,,,,,,,,,,,,,,,,,,,space,18.692,1406.1932,
,615578cafeaf36e7b26e6369,001,2022-04-29_03h08.17.502,classification_task,2021.2.3,Win32,72.72198386,615578cafeaf36e7b26e6369,626b377229c10585ec392f89,626b3a7afef25c8db3b72570,,,,,,,,,,,,,,,,,,,,,,,,,,,,,,,,,,,,,,,,,,,,,,,,,,,,,,,,,,,,,,,,,,,,"Mozilla/5.0 (Windows NT 10.0; Win64; x64) AppleWebKit/537.36 (KHTML, like Gecko) Chrome/101.0.4951.41 Safari/537.36"
