usingWebGL,participant,session,date,expName,psychopyVersion,OS,frameRate,PROLIFIC_PID,STUDY_ID,SESSION_ID,signatures_friend,signatures_foe,band_ranges_top,band_ranges_bottom,formitemText,formtype,formundefined,formitemWidth,formindex,formresponse,formrt,key_resp_2.keys,key_resp_2.rt,tute_resp.keys,tute_resp.rt,tutorial.thisRepN,tutorial.thisTrialN,tutorial.thisN,tutorial.thisIndex,tutorial.ran,key_resp_4.keys,key_resp_4.rt,key_resp.keys,key_resp.corr,key_resp.rt,lines_presented,is_signal_presented,trials.thisRepN,trials.thisTrialN,trials.thisN,trials.thisIndex,trials.ran,vessel,active_band,lines,is_signal,supported_pos,catch_trial,debrief_formindex,debrief_formitemText,debrief_formtype,debrief_formitemWidth,debrief_formresponse,debrief_formrt,phases.thisRepN,phases.thisTrialN,phases.thisN,phases.thisIndex,phases.ran,phases.order,phase,key_resp_3.keys,trustitemText,trusttype,trustitemWidth,trustindex,trustresponse,trustrt,support_status.thisRepN,support_status.thisTrialN,support_status.thisN,support_status.thisIndex,support_status.ran,support_status.order,key_resp_5.keys,key_resp_5.rt,globalClockTime,userAgent
TRUE,6156017fbad0983c816fbd7c,001,2022-04-28_20h12.54.068,classification_task,2021.2.3,MacIntel,59.99880002,6156017fbad0983c816fbd7c,626b377229c10585ec392f8a,626b3b5c6230fead06cf72ce,,,,,,,,,,,,,,,,,,,,,,,,,,,,,,,,,,,,,,,,,,,,,,,,,,,,,,,,,,,,,,,,,,,,
,6156017fbad0983c816fbd7c,001,2022-04-28_20h12.54.068,classification_task,2021.2.3,MacIntel,59.99880002,6156017fbad0983c816fbd7c,626b377229c10585ec392f8a,626b3b5c6230fead06cf72ce,"[[""0.271"",""0.559"",""0.882"",""0.935""],[""0.191"",""0.521"",""0.725"",""0.970""]]","[[""0.039"",""0.411"",""0.669"",""0.765""],[""0.119"",""0.322"",""0.597"",""0.825""]]","[1,10]","[100,1000]",Video game experience,,,0.7,0,,,,,,,,,,,,,,,,,,,,,,,,,,,,,,,,,,,,,,,,,,,,,,,,,,,,,,,,,,,
,6156017fbad0983c816fbd7c,001,2022-04-28_20h12.54.068,classification_task,2021.2.3,MacIntel,59.99880002,6156017fbad0983c816fbd7c,626b377229c10585ec392f8a,626b3b5c6230fead06cf72ce,,,,,Approximately how many hours did you spend playing video games in the last week?,,,0.7,0,0,,,,,,,,,,,,,,,,,,,,,,,,,,,,,,,,,,,,,,,,,,,,,,,,,,,,,,,,,,
,6156017fbad0983c816fbd7c,001,2022-04-28_20h12.54.068,classification_task,2021.2.3,MacIntel,59.99880002,6156017fbad0983c816fbd7c,626b377229c10585ec392f8a,626b3b5c6230fead06cf72ce,,,,,"Which game did you play the most this year? (Enter ""None"" if you didn't play any)",,,0.7,0,none,,,,,,,,,,,,,,,,,,,,,,,,,,,,,,,,,,,,,,,,,,,,,,,,,,,,,,,,,,
,6156017fbad0983c816fbd7c,001,2022-04-28_20h12.54.068,classification_task,2021.2.3,MacIntel,59.99880002,6156017fbad0983c816fbd7c,626b377229c10585ec392f8a,626b3b5c6230fead06cf72ce,,,,,Visual perception,,,0.7,0,,,,,,,,,,,,,,,,,,,,,,,,,,,,,,,,,,,,,,,,,,,,,,,,,,,,,,,,,,,
,6156017fbad0983c816fbd7c,001,2022-04-28_20h12.54.068,classification_task,2021.2.3,MacIntel,59.99880002,6156017fbad0983c816fbd7c,626b377229c10585ec392f8a,626b3b5c6230fead06cf72ce,,,,,Do you have any form of color blindness?,,,0.7,0,No,17.6244,,,,,,,,,,,,,,,,,,,,,,,,,,,,,,,,,,,,,,,,,,,,,,,,,,,,,,,,,
,6156017fbad0983c816fbd7c,001,2022-04-28_20h12.54.068,classification_task,2021.2.3,MacIntel,59.99880002,6156017fbad0983c816fbd7c,626b377229c10585ec392f8a,626b3b5c6230fead06cf72ce,,,,,Do you use software to change the colour temperature of your screen (e.g. f.lux)?,,,0.7,0,No,21.8517,,,,,,,,,,,,,,,,,,,,,,,,,,,,,,,,,,,,,,,,,,,,,,,,,,,,,,,,,
,6156017fbad0983c816fbd7c,001,2022-04-28_20h12.54.068,classification_task,2021.2.3,MacIntel,59.99880002,6156017fbad0983c816fbd7c,626b377229c10585ec392f8a,626b3b5c6230fead06cf72ce,,,,,,,,,,,,space,38.7403,space,9.855,0,0,0,0,1,,,,,,,,,,,,,,,,,,,,,,,,,,,,,,,,,,,,,,,,,,,,,,,,
,6156017fbad0983c816fbd7c,001,2022-04-28_20h12.54.068,classification_task,2021.2.3,MacIntel,59.99880002,6156017fbad0983c816fbd7c,626b377229c10585ec392f8a,626b3b5c6230fead06cf72ce,,,,,,,,,,,,,,space,11.4714,1,0,1,0,1,,,,,,,,,,,,,,,,,,,,,,,,,,,,,,,,,,,,,,,,,,,,,,,,
,6156017fbad0983c816fbd7c,001,2022-04-28_20h12.54.068,classification_task,2021.2.3,MacIntel,59.99880002,6156017fbad0983c816fbd7c,626b377229c10585ec392f8a,626b3b5c6230fead06cf72ce,,,,,,,,,,,,,,space,22.6893,2,0,2,0,1,,,,,,,,,,,,,,,,,,,,,,,,,,,,,,,,,,,,,,,,,,,,,,,,
,6156017fbad0983c816fbd7c,001,2022-04-28_20h12.54.068,classification_task,2021.2.3,MacIntel,59.99880002,6156017fbad0983c816fbd7c,626b377229c10585ec392f8a,626b3b5c6230fead06cf72ce,,,,,,,,,,,,,,space,9.302,3,0,3,0,1,,,,,,,,,,,,,,,,,,,,,,,,,,,,,,,,,,,,,,,,,,,,,,,,
,6156017fbad0983c816fbd7c,001,2022-04-28_20h12.54.068,classification_task,2021.2.3,MacIntel,59.99880002,6156017fbad0983c816fbd7c,626b377229c10585ec392f8a,626b3b5c6230fead06cf72ce,,,,,,,,,,,,,,space,17.5326,4,0,4,0,1,,,,,,,,,,,,,,,,,,,,,,,,,,,,,,,,,,,,,,,,,,,,,,,,
,6156017fbad0983c816fbd7c,001,2022-04-28_20h12.54.068,classification_task,2021.2.3,MacIntel,59.99880002,6156017fbad0983c816fbd7c,626b377229c10585ec392f8a,626b3b5c6230fead06cf72ce,,,,,,,,,,,,,,,,,,,,,space,3.9874,a,1,5.0684,"[""0.191"",""0.521"",""0.630"",""0.970""]","[1,1,0,1]",0,0,0,0,1,0,1,,,1,FALSE,,,,,,,,,,,,,,,,,,,,,,,,,,,,,,
,6156017fbad0983c816fbd7c,001,2022-04-28_20h12.54.068,classification_task,2021.2.3,MacIntel,59.99880002,6156017fbad0983c816fbd7c,626b377229c10585ec392f8a,626b3b5c6230fead06cf72ce,,,,,,,,,,,,,,,,,,,,,,,l,0,2.0525,"[""0.634"",""0.521"",""0.725"",""0.970""]","[0,1,1,1]",0,1,1,1,1,0,1,,,1,FALSE,,,,,,,,,,,,,,,,,,,,,,,,,,,,,,
,6156017fbad0983c816fbd7c,001,2022-04-28_20h12.54.068,classification_task,2021.2.3,MacIntel,59.99880002,6156017fbad0983c816fbd7c,626b377229c10585ec392f8a,626b3b5c6230fead06cf72ce,,,,,,,,,,,,,,,,,,,,,,,a,1,4.1335,"[""0.191"",""0.368"",""0.725"",""0.970""]","[1,0,1,1]",0,2,2,2,1,0,1,,,1,FALSE,,,,,,,,,,,,,,,,,,,,,,,,,,,,,,
,6156017fbad0983c816fbd7c,001,2022-04-28_20h12.54.068,classification_task,2021.2.3,MacIntel,59.99880002,6156017fbad0983c816fbd7c,626b377229c10585ec392f8a,626b3b5c6230fead06cf72ce,,,,,,,,,,,,,,,,,,,,,,,l,1,5.4659,"[""0.039"",""0.411"",""0.669"",""0.471""]","[1,1,1,0]",0,3,3,3,1,1,0,,,1,FALSE,,,,,,,,,,,,,,,,,,,,,,,,,,,,,,
,6156017fbad0983c816fbd7c,001,2022-04-28_20h12.54.068,classification_task,2021.2.3,MacIntel,59.99880002,6156017fbad0983c816fbd7c,626b377229c10585ec392f8a,626b3b5c6230fead06cf72ce,,,,,,,,,,,,,,,,,,,,,,,a,1,6.5035,"[""0.191"",""0.521"",""0.725"",""0.471""]","[1,1,1,0]",0,4,4,4,1,0,1,,,1,FALSE,,,,,,,,,,,,,,,,,,,,,,,,,,,,,,
,6156017fbad0983c816fbd7c,001,2022-04-28_20h12.54.068,classification_task,2021.2.3,MacIntel,59.99880002,6156017fbad0983c816fbd7c,626b377229c10585ec392f8a,626b3b5c6230fead06cf72ce,,,,,,,,,,,,,,,,,,,,,,,a,1,3.2193,"[""0.271"",""0.559"",""0.634"",""0.935""]","[1,1,0,1]",0,5,5,5,1,0,0,,,1,FALSE,,,,,,,,,,,,,,,,,,,,,,,,,,,,,,
,6156017fbad0983c816fbd7c,001,2022-04-28_20h12.54.068,classification_task,2021.2.3,MacIntel,59.99880002,6156017fbad0983c816fbd7c,626b377229c10585ec392f8a,626b3b5c6230fead06cf72ce,,,,,,,,,,,,,,,,,,,,,,,a,1,4.9861,"[""0.271"",""0.559"",""0.882"",""0.471""]","[1,1,1,0]",0,6,6,6,1,0,0,,,1,FALSE,,,,,,,,,,,,,,,,,,,,,,,,,,,,,,
,6156017fbad0983c816fbd7c,001,2022-04-28_20h12.54.068,classification_task,2021.2.3,MacIntel,59.99880002,6156017fbad0983c816fbd7c,626b377229c10585ec392f8a,626b3b5c6230fead06cf72ce,,,,,,,,,,,,,,,,,,,,,,,l,1,4.4105,"[""0.119"",""0.322"",""0.597"",""0.234""]","[1,1,1,0]",0,7,7,7,1,1,1,,,1,FALSE,,,,,,,,,,,,,,,,,,,,,,,,,,,,,,
,6156017fbad0983c816fbd7c,001,2022-04-28_20h12.54.068,classification_task,2021.2.3,MacIntel,59.99880002,6156017fbad0983c816fbd7c,626b377229c10585ec392f8a,626b3b5c6230fead06cf72ce,,,,,,,,,,,,,,,,,,,,,,,a,1,2.681,"[""0.271"",""0.374"",""0.882"",""0.935""]","[1,0,1,1]",0,8,8,8,1,0,0,,,1,FALSE,,,,,,,,,,,,,,,,,,,,,,,,,,,,,,
,6156017fbad0983c816fbd7c,001,2022-04-28_20h12.54.068,classification_task,2021.2.3,MacIntel,59.99880002,6156017fbad0983c816fbd7c,626b377229c10585ec392f8a,626b3b5c6230fead06cf72ce,,,,,,,,,,,,,,,,,,,,,,,l,1,1.8179,"[""0.119"",""0.322"",""0.471"",""0.825""]","[1,1,0,1]",0,9,9,9,1,1,1,,,1,FALSE,,,,,,,,,,,,,,,,,,,,,,,,,,,,,,
,6156017fbad0983c816fbd7c,001,2022-04-28_20h12.54.068,classification_task,2021.2.3,MacIntel,59.99880002,6156017fbad0983c816fbd7c,626b377229c10585ec392f8a,626b3b5c6230fead06cf72ce,,,,,,,,,,,,,,,,,,,,,,,l,0,1.7541,"[""0.359"",""0.559"",""0.882"",""0.935""]","[0,1,1,1]",0,10,10,10,1,0,0,,,1,FALSE,,,,,,,,,,,,,,,,,,,,,,,,,,,,,,
,6156017fbad0983c816fbd7c,001,2022-04-28_20h12.54.068,classification_task,2021.2.3,MacIntel,59.99880002,6156017fbad0983c816fbd7c,626b377229c10585ec392f8a,626b3b5c6230fead06cf72ce,,,,,,,,,,,,,,,,,,,,,,,l,1,3.194,"[""0.119"",""0.227"",""0.597"",""0.825""]","[1,0,1,1]",0,11,11,11,1,1,1,,,1,FALSE,,,,,,,,,,,,,,,,,,,,,,,,,,,,,,
,6156017fbad0983c816fbd7c,001,2022-04-28_20h12.54.068,classification_task,2021.2.3,MacIntel,59.99880002,6156017fbad0983c816fbd7c,626b377229c10585ec392f8a,626b3b5c6230fead06cf72ce,,,,,,,,,,,,,,,,,,,,,,,a,0,2.6553,"[""0.478"",""0.322"",""0.597"",""0.825""]","[0,1,1,1]",0,12,12,12,1,1,1,,,1,FALSE,,,,,,,,,,,,,,,,,,,,,,,,,,,,,,
,6156017fbad0983c816fbd7c,001,2022-04-28_20h12.54.068,classification_task,2021.2.3,MacIntel,59.99880002,6156017fbad0983c816fbd7c,626b377229c10585ec392f8a,626b3b5c6230fead06cf72ce,,,,,,,,,,,,,,,,,,,,,,,l,1,4.7533,"[""0.039"",""0.411"",""0.374"",""0.765""]","[1,1,0,1]",0,13,13,13,1,1,0,,,1,FALSE,,,,,,,,,,,,,,,,,,,,,,,,,,,,,,
,6156017fbad0983c816fbd7c,001,2022-04-28_20h12.54.068,classification_task,2021.2.3,MacIntel,59.99880002,6156017fbad0983c816fbd7c,626b377229c10585ec392f8a,626b3b5c6230fead06cf72ce,,,,,,,,,,,,,,,,,,,,,,,l,1,3.4867,"[""0.630"",""0.411"",""0.669"",""0.765""]","[0,1,1,1]",0,14,14,14,1,1,0,,,1,FALSE,,,,,,,,,,,,,,,,,,,,,,,,,,,,,,
,6156017fbad0983c816fbd7c,001,2022-04-28_20h12.54.068,classification_task,2021.2.3,MacIntel,59.99880002,6156017fbad0983c816fbd7c,626b377229c10585ec392f8a,626b3b5c6230fead06cf72ce,,,,,,,,,,,,,,,,,,,,,,,l,1,3.2361,"[""0.039"",""0.359"",""0.669"",""0.765""]","[1,0,1,1]",0,15,15,15,1,1,0,,,1,FALSE,,,,,,,,,,,,,,,,,,,,,,,,,,,,,,
,6156017fbad0983c816fbd7c,001,2022-04-28_20h12.54.068,classification_task,2021.2.3,MacIntel,59.99880002,6156017fbad0983c816fbd7c,626b377229c10585ec392f8a,626b3b5c6230fead06cf72ce,,,,,,,,,,,,,,,,,,,,,,,,0,,"[""0.191"",""0.521"",""0.074"",""0.970""]","[1,1,0,1]",0,16,16,16,1,0,1,,,1,FALSE,,,,,,,,,,,,,,,,,,,,,,,,,,,,,,
,6156017fbad0983c816fbd7c,001,2022-04-28_20h12.54.068,classification_task,2021.2.3,MacIntel,59.99880002,6156017fbad0983c816fbd7c,626b377229c10585ec392f8a,626b3b5c6230fead06cf72ce,,,,,,,,,,,,,,,,,,,,,,,a,1,2.0179,"[""0.271"",""0.634"",""0.882"",""0.935""]","[1,0,1,1]",0,17,17,17,1,0,0,,,1,FALSE,,,,,,,,,,,,,,,,,,,,,,,,,,,,,,
,6156017fbad0983c816fbd7c,001,2022-04-28_20h12.54.068,classification_task,2021.2.3,MacIntel,59.99880002,6156017fbad0983c816fbd7c,626b377229c10585ec392f8a,626b3b5c6230fead06cf72ce,,,,,,,,,,,,,,,,,,,,,,,l,1,2.6943,"[""0.119"",""0.322"",""0.597"",""0.471""]","[1,1,1,0]",0,18,18,18,1,1,1,,,1,FALSE,,,,,,,,,,,,,,,,,,,,,,,,,,,,,,
,6156017fbad0983c816fbd7c,001,2022-04-28_20h12.54.068,classification_task,2021.2.3,MacIntel,59.99880002,6156017fbad0983c816fbd7c,626b377229c10585ec392f8a,626b3b5c6230fead06cf72ce,,,,,,,,,,,,,,,,,,,,,,,l,1,2.8387,"[""0.039"",""0.411"",""0.669"",""0.374""]","[1,1,1,0]",0,19,19,19,1,1,0,,,1,FALSE,,,,,,,,,,,,,,,,,,,,,,,,,,,,,,
,6156017fbad0983c816fbd7c,001,2022-04-28_20h12.54.068,classification_task,2021.2.3,MacIntel,59.99880002,6156017fbad0983c816fbd7c,626b377229c10585ec392f8a,626b3b5c6230fead06cf72ce,,,,,,,,,,,,,,,,,,,,,,,a,1,2.0395,"[""0.271"",""0.559"",""0.882"",""0.361""]","[1,1,1,0]",0,20,20,20,1,0,0,,,1,FALSE,,,,,,,,,,,,,,,,,,,,,,,,,,,,,,
,6156017fbad0983c816fbd7c,001,2022-04-28_20h12.54.068,classification_task,2021.2.3,MacIntel,59.99880002,6156017fbad0983c816fbd7c,626b377229c10585ec392f8a,626b3b5c6230fead06cf72ce,,,,,,,,,,,,,,,,,,,,,,,a,0,1.5683,"[""0.358"",""0.411"",""0.669"",""0.765""]","[0,1,1,1]",0,21,21,21,1,1,0,,,1,FALSE,,,,,,,,,,,,,,,,,,,,,,,,,,,,,,
,6156017fbad0983c816fbd7c,001,2022-04-28_20h12.54.068,classification_task,2021.2.3,MacIntel,59.99880002,6156017fbad0983c816fbd7c,626b377229c10585ec392f8a,626b3b5c6230fead06cf72ce,,,,,,,,,,,,,,,,,,,,,,,a,0,3.2176,"[""0.119"",""0.322"",""0.074"",""0.825""]","[1,1,0,1]",0,22,22,22,1,1,1,,,1,FALSE,,,,,,,,,,,,,,,,,,,,,,,,,,,,,,
,6156017fbad0983c816fbd7c,001,2022-04-28_20h12.54.068,classification_task,2021.2.3,MacIntel,59.99880002,6156017fbad0983c816fbd7c,626b377229c10585ec392f8a,626b3b5c6230fead06cf72ce,,,,,,,,,,,,,,,,,,,,,,,l,1,3.1015,"[""0.039"",""0.411"",""0.074"",""0.765""]","[1,1,0,1]",0,23,23,23,1,1,0,,,1,FALSE,,,,,,,,,,,,,,,,,,,,,,,,,,,,,,
,6156017fbad0983c816fbd7c,001,2022-04-28_20h12.54.068,classification_task,2021.2.3,MacIntel,59.99880002,6156017fbad0983c816fbd7c,626b377229c10585ec392f8a,626b3b5c6230fead06cf72ce,,,,,,,,,,,,,,,,,,,,,,,a,1,2.3347,"[""0.227"",""0.559"",""0.882"",""0.935""]","[0,1,1,1]",0,24,24,24,1,0,0,,,1,FALSE,,,,,,,,,,,,,,,,,,,,,,,,,,,,,,
,6156017fbad0983c816fbd7c,001,2022-04-28_20h12.54.068,classification_task,2021.2.3,MacIntel,59.99880002,6156017fbad0983c816fbd7c,626b377229c10585ec392f8a,626b3b5c6230fead06cf72ce,,,,,,,,,,,,,,,,,,,,,,,a,0,4.0445,"[""0.634"",""0.322"",""0.597"",""0.825""]","[0,1,1,1]",0,25,25,25,1,1,1,,,1,FALSE,,,,,,,,,,,,,,,,,,,,,,,,,,,,,,
,6156017fbad0983c816fbd7c,001,2022-04-28_20h12.54.068,classification_task,2021.2.3,MacIntel,59.99880002,6156017fbad0983c816fbd7c,626b377229c10585ec392f8a,626b3b5c6230fead06cf72ce,,,,,,,,,,,,,,,,,,,,,,,l,1,3.4572,"[""0.119"",""0.074"",""0.597"",""0.825""]","[1,0,1,1]",0,26,26,26,1,1,1,,,1,FALSE,,,,,,,,,,,,,,,,,,,,,,,,,,,,,,
,6156017fbad0983c816fbd7c,001,2022-04-28_20h12.54.068,classification_task,2021.2.3,MacIntel,59.99880002,6156017fbad0983c816fbd7c,626b377229c10585ec392f8a,626b3b5c6230fead06cf72ce,,,,,,,,,,,,,,,,,,,,,,,a,1,3.7888,"[""0.191"",""0.227"",""0.725"",""0.970""]","[1,0,1,1]",0,27,27,27,1,0,1,,,1,FALSE,,,,,,,,,,,,,,,,,,,,,,,,,,,,,,
,6156017fbad0983c816fbd7c,001,2022-04-28_20h12.54.068,classification_task,2021.2.3,MacIntel,59.99880002,6156017fbad0983c816fbd7c,626b377229c10585ec392f8a,626b3b5c6230fead06cf72ce,,,,,,,,,,,,,,,,,,,,,,,l,0,4.22,"[""0.634"",""0.521"",""0.725"",""0.970""]","[0,1,1,1]",0,28,28,28,1,0,1,,,1,FALSE,,,,,,,,,,,,,,,,,,,,,,,,,,,,,,
,6156017fbad0983c816fbd7c,001,2022-04-28_20h12.54.068,classification_task,2021.2.3,MacIntel,59.99880002,6156017fbad0983c816fbd7c,626b377229c10585ec392f8a,626b3b5c6230fead06cf72ce,,,,,,,,,,,,,,,,,,,,,,,a,1,3.5389,"[""0.271"",""0.559"",""0.368"",""0.935""]","[1,1,0,1]",0,29,29,29,1,0,0,,,1,FALSE,,,,,,,,,,,,,,,,,,,,,,,,,,,,,,
,6156017fbad0983c816fbd7c,001,2022-04-28_20h12.54.068,classification_task,2021.2.3,MacIntel,59.99880002,6156017fbad0983c816fbd7c,626b377229c10585ec392f8a,626b3b5c6230fead06cf72ce,,,,,,,,,,,,,,,,,,,,,,,l,1,1.8532,"[""0.039"",""0.634"",""0.669"",""0.765""]","[1,0,1,1]",0,30,30,30,1,1,0,,,1,FALSE,,,,,,,,,,,,,,,,,,,,,,,,,,,,,,
,6156017fbad0983c816fbd7c,001,2022-04-28_20h12.54.068,classification_task,2021.2.3,MacIntel,59.99880002,6156017fbad0983c816fbd7c,626b377229c10585ec392f8a,626b3b5c6230fead06cf72ce,,,,,,,,,,,,,,,,,,,,,,,a,1,2.3421,"[""0.191"",""0.521"",""0.725"",""0.374""]","[1,1,1,0]",0,31,31,31,1,0,1,,,1,FALSE,,,,,,,,,,,,,,,,,,,,,,,,,,,,,,
,6156017fbad0983c816fbd7c,001,2022-04-28_20h12.54.068,classification_task,2021.2.3,MacIntel,59.99880002,6156017fbad0983c816fbd7c,626b377229c10585ec392f8a,626b3b5c6230fead06cf72ce,,,,,,,,,,,,,,,,,,,,,,,a,1,3.8992,"[""0.271"",""0.559"",""0.882"",""0.471""]","[1,1,1,0]",0,32,32,32,1,0,0,,,1,FALSE,,,,,,,,,,,,,,,,,,,,,,,,,,,,,,
,6156017fbad0983c816fbd7c,001,2022-04-28_20h12.54.068,classification_task,2021.2.3,MacIntel,59.99880002,6156017fbad0983c816fbd7c,626b377229c10585ec392f8a,626b3b5c6230fead06cf72ce,,,,,,,,,,,,,,,,,,,,,,,a,0,2.7877,"[""0.471"",""0.411"",""0.669"",""0.765""]","[0,1,1,1]",0,33,33,33,1,1,0,,,1,FALSE,,,,,,,,,,,,,,,,,,,,,,,,,,,,,,
,6156017fbad0983c816fbd7c,001,2022-04-28_20h12.54.068,classification_task,2021.2.3,MacIntel,59.99880002,6156017fbad0983c816fbd7c,626b377229c10585ec392f8a,626b3b5c6230fead06cf72ce,,,,,,,,,,,,,,,,,,,,,,,a,0,1.3985,"[""0.119"",""0.322"",""0.471"",""0.825""]","[1,1,0,1]",0,34,34,34,1,1,1,,,1,FALSE,,,,,,,,,,,,,,,,,,,,,,,,,,,,,,
,6156017fbad0983c816fbd7c,001,2022-04-28_20h12.54.068,classification_task,2021.2.3,MacIntel,59.99880002,6156017fbad0983c816fbd7c,626b377229c10585ec392f8a,626b3b5c6230fead06cf72ce,,,,,,,,,,,,,,,,,,,,,,,l,0,0.8205,"[""0.271"",""0.559"",""0.074"",""0.935""]","[1,1,0,1]",0,35,35,35,1,0,0,,,1,FALSE,,,,,,,,,,,,,,,,,,,,,,,,,,,,,,
,6156017fbad0983c816fbd7c,001,2022-04-28_20h12.54.068,classification_task,2021.2.3,MacIntel,59.99880002,6156017fbad0983c816fbd7c,626b377229c10585ec392f8a,626b3b5c6230fead06cf72ce,,,,,,,,,,,,,,,,,,,,,,,a,0,1.0342,"[""0.119"",""0.322"",""0.597"",""0.234""]","[1,1,1,0]",0,36,36,36,1,1,1,,,1,FALSE,,,,,,,,,,,,,,,,,,,,,,,,,,,,,,
,6156017fbad0983c816fbd7c,001,2022-04-28_20h12.54.068,classification_task,2021.2.3,MacIntel,59.99880002,6156017fbad0983c816fbd7c,626b377229c10585ec392f8a,626b3b5c6230fead06cf72ce,,,,,,,,,,,,,,,,,,,,,,,a,1,0.382,"[""0.374"",""0.559"",""0.882"",""0.935""]","[0,1,1,1]",0,37,37,37,1,0,0,,,1,FALSE,,,,,,,,,,,,,,,,,,,,,,,,,,,,,,
,6156017fbad0983c816fbd7c,001,2022-04-28_20h12.54.068,classification_task,2021.2.3,MacIntel,59.99880002,6156017fbad0983c816fbd7c,626b377229c10585ec392f8a,626b3b5c6230fead06cf72ce,,,,,,,,,,,,,,,,,,,,,,,l,1,2.5169,"[""0.634"",""0.322"",""0.597"",""0.825""]","[0,1,1,1]",0,38,38,38,1,1,1,,,1,FALSE,,,,,,,,,,,,,,,,,,,,,,,,,,,,,,
,6156017fbad0983c816fbd7c,001,2022-04-28_20h12.54.068,classification_task,2021.2.3,MacIntel,59.99880002,6156017fbad0983c816fbd7c,626b377229c10585ec392f8a,626b3b5c6230fead06cf72ce,,,,,,,,,,,,,,,,,,,,,,,a,1,2.0708,"[""0.191"",""0.521"",""0.725"",""0.478""]","[1,1,1,0]",0,39,39,39,1,0,1,,,1,FALSE,,,,,,,,,,,,,,,,,,,,,,,,,,,,,,
,6156017fbad0983c816fbd7c,001,2022-04-28_20h12.54.068,classification_task,2021.2.3,MacIntel,59.99880002,6156017fbad0983c816fbd7c,626b377229c10585ec392f8a,626b3b5c6230fead06cf72ce,,,,,,,,,,,,,,,,,,,,,,,a,1,0.9576,"[""0.271"",""0.634"",""0.882"",""0.935""]","[1,0,1,1]",0,40,40,40,1,0,0,,,1,FALSE,,,,,,,,,,,,,,,,,,,,,,,,,,,,,,
,6156017fbad0983c816fbd7c,001,2022-04-28_20h12.54.068,classification_task,2021.2.3,MacIntel,59.99880002,6156017fbad0983c816fbd7c,626b377229c10585ec392f8a,626b3b5c6230fead06cf72ce,,,,,,,,,,,,,,,,,,,,,,,a,0,0.5661,"[""0.039"",""0.471"",""0.669"",""0.765""]","[1,0,1,1]",0,41,41,41,1,1,0,,,1,FALSE,,,,,,,,,,,,,,,,,,,,,,,,,,,,,,
,6156017fbad0983c816fbd7c,001,2022-04-28_20h12.54.068,classification_task,2021.2.3,MacIntel,59.99880002,6156017fbad0983c816fbd7c,626b377229c10585ec392f8a,626b3b5c6230fead06cf72ce,,,,,,,,,,,,,,,,,,,,,,,l,0,0.3819,"[""0.191"",""0.374"",""0.725"",""0.970""]","[1,0,1,1]",0,42,42,42,1,0,1,,,1,FALSE,,,,,,,,,,,,,,,,,,,,,,,,,,,,,,
,6156017fbad0983c816fbd7c,001,2022-04-28_20h12.54.068,classification_task,2021.2.3,MacIntel,59.99880002,6156017fbad0983c816fbd7c,626b377229c10585ec392f8a,626b3b5c6230fead06cf72ce,,,,,,,,,,,,,,,,,,,,,,,a,0,0.3647,"[""0.039"",""0.411"",""0.634"",""0.765""]","[1,1,0,1]",0,43,43,43,1,1,0,,,1,FALSE,,,,,,,,,,,,,,,,,,,,,,,,,,,,,,
,6156017fbad0983c816fbd7c,001,2022-04-28_20h12.54.068,classification_task,2021.2.3,MacIntel,59.99880002,6156017fbad0983c816fbd7c,626b377229c10585ec392f8a,626b3b5c6230fead06cf72ce,,,,,,,,,,,,,,,,,,,,,,,a,1,1.9973,"[""0.368"",""0.521"",""0.725"",""0.970""]","[0,1,1,1]",0,44,44,44,1,0,1,,,1,FALSE,,,,,,,,,,,,,,,,,,,,,,,,,,,,,,
,6156017fbad0983c816fbd7c,001,2022-04-28_20h12.54.068,classification_task,2021.2.3,MacIntel,59.99880002,6156017fbad0983c816fbd7c,626b377229c10585ec392f8a,626b3b5c6230fead06cf72ce,,,,,,,,,,,,,,,,,,,,,,,a,0,0.7188,"[""0.119"",""0.074"",""0.597"",""0.825""]","[1,0,1,1]",0,45,45,45,1,1,1,,,1,FALSE,,,,,,,,,,,,,,,,,,,,,,,,,,,,,,
,6156017fbad0983c816fbd7c,001,2022-04-28_20h12.54.068,classification_task,2021.2.3,MacIntel,59.99880002,6156017fbad0983c816fbd7c,626b377229c10585ec392f8a,626b3b5c6230fead06cf72ce,,,,,,,,,,,,,,,,,,,,,,,l,1,0.3978,"[""0.039"",""0.411"",""0.669"",""0.448""]","[1,1,1,0]",0,46,46,46,1,1,0,,,1,FALSE,,,,,,,,,,,,,,,,,,,,,,,,,,,,,,
,6156017fbad0983c816fbd7c,001,2022-04-28_20h12.54.068,classification_task,2021.2.3,MacIntel,59.99880002,6156017fbad0983c816fbd7c,626b377229c10585ec392f8a,626b3b5c6230fead06cf72ce,,,,,,,,,,,,,,,,,,,,,,,l,0,0.5842,"[""0.191"",""0.521"",""0.471"",""0.970""]","[1,1,0,1]",0,47,47,47,1,0,1,,,1,FALSE,,,,,,,,,,,,,,,,,,,,,,,,,,,,,,
,6156017fbad0983c816fbd7c,001,2022-04-28_20h12.54.068,classification_task,2021.2.3,MacIntel,59.99880002,6156017fbad0983c816fbd7c,626b377229c10585ec392f8a,626b3b5c6230fead06cf72ce,,,,,,,,,,,,,,,,,,,,,,,l,1,0.3686,"[""0.039"",""0.411"",""0.359"",""0.765""]","[1,1,0,1]",0,48,48,48,1,1,0,,,1,FALSE,,,,,,,,,,,,,,,,,,,,,,,,,,,,,,
,6156017fbad0983c816fbd7c,001,2022-04-28_20h12.54.068,classification_task,2021.2.3,MacIntel,59.99880002,6156017fbad0983c816fbd7c,626b377229c10585ec392f8a,626b3b5c6230fead06cf72ce,,,,,,,,,,,,,,,,,,,,,,,l,0,0.4984,"[""0.271"",""0.559"",""0.368"",""0.935""]","[1,1,0,1]",0,49,49,49,1,0,0,,,1,FALSE,,,,,,,,,,,,,,,,,,,,,,,,,,,,,,
,6156017fbad0983c816fbd7c,001,2022-04-28_20h12.54.068,classification_task,2021.2.3,MacIntel,59.99880002,6156017fbad0983c816fbd7c,626b377229c10585ec392f8a,626b3b5c6230fead06cf72ce,,,,,,,,,,,,,,,,,,,,,,,l,1,0.3139,"[""0.039"",""0.634"",""0.669"",""0.765""]","[1,0,1,1]",0,50,50,50,1,1,0,,,1,FALSE,,,,,,,,,,,,,,,,,,,,,,,,,,,,,,
,6156017fbad0983c816fbd7c,001,2022-04-28_20h12.54.068,classification_task,2021.2.3,MacIntel,59.99880002,6156017fbad0983c816fbd7c,626b377229c10585ec392f8a,626b3b5c6230fead06cf72ce,,,,,,,,,,,,,,,,,,,,,,,a,1,0.3678,"[""0.191"",""0.634"",""0.725"",""0.970""]","[1,0,1,1]",0,51,51,51,1,0,1,,,1,FALSE,,,,,,,,,,,,,,,,,,,,,,,,,,,,,,
,6156017fbad0983c816fbd7c,001,2022-04-28_20h12.54.068,classification_task,2021.2.3,MacIntel,59.99880002,6156017fbad0983c816fbd7c,626b377229c10585ec392f8a,626b3b5c6230fead06cf72ce,,,,,,,,,,,,,,,,,,,,,,,a,0,0.5488,"[""0.448"",""0.411"",""0.669"",""0.765""]","[0,1,1,1]",0,52,52,52,1,1,0,,,1,FALSE,,,,,,,,,,,,,,,,,,,,,,,,,,,,,,
,6156017fbad0983c816fbd7c,001,2022-04-28_20h12.54.068,classification_task,2021.2.3,MacIntel,59.99880002,6156017fbad0983c816fbd7c,626b377229c10585ec392f8a,626b3b5c6230fead06cf72ce,,,,,,,,,,,,,,,,,,,,,,,l,1,0.3849,"[""0.119"",""0.322"",""0.630"",""0.825""]","[1,1,0,1]",0,53,53,53,1,1,1,,,1,FALSE,,,,,,,,,,,,,,,,,,,,,,,,,,,,,,
,6156017fbad0983c816fbd7c,001,2022-04-28_20h12.54.068,classification_task,2021.2.3,MacIntel,59.99880002,6156017fbad0983c816fbd7c,626b377229c10585ec392f8a,626b3b5c6230fead06cf72ce,,,,,,,,,,,,,,,,,,,,,,,a,1,0.3322,"[""0.191"",""0.521"",""0.448"",""0.970""]","[1,1,0,1]",0,54,54,54,1,0,1,,,1,FALSE,,,,,,,,,,,,,,,,,,,,,,,,,,,,,,
,6156017fbad0983c816fbd7c,001,2022-04-28_20h12.54.068,classification_task,2021.2.3,MacIntel,59.99880002,6156017fbad0983c816fbd7c,626b377229c10585ec392f8a,626b3b5c6230fead06cf72ce,,,,,,,,,,,,,,,,,,,,,,,l,0,0.3491,"[""0.271"",""0.559"",""0.882"",""0.234""]","[1,1,1,0]",0,55,55,55,1,0,0,,,1,FALSE,,,,,,,,,,,,,,,,,,,,,,,,,,,,,,
,6156017fbad0983c816fbd7c,001,2022-04-28_20h12.54.068,classification_task,2021.2.3,MacIntel,59.99880002,6156017fbad0983c816fbd7c,626b377229c10585ec392f8a,626b3b5c6230fead06cf72ce,,,,,,,,,,,,,,,,,,,,,,,a,1,0.3186,"[""0.271"",""0.448"",""0.882"",""0.935""]","[1,0,1,1]",0,56,56,56,1,0,0,,,1,FALSE,,,,,,,,,,,,,,,,,,,,,,,,,,,,,,
,6156017fbad0983c816fbd7c,001,2022-04-28_20h12.54.068,classification_task,2021.2.3,MacIntel,59.99880002,6156017fbad0983c816fbd7c,626b377229c10585ec392f8a,626b3b5c6230fead06cf72ce,,,,,,,,,,,,,,,,,,,,,,,a,1,0.3319,"[""0.471"",""0.521"",""0.725"",""0.970""]","[0,1,1,1]",0,57,57,57,1,0,1,,,1,FALSE,,,,,,,,,,,,,,,,,,,,,,,,,,,,,,
,6156017fbad0983c816fbd7c,001,2022-04-28_20h12.54.068,classification_task,2021.2.3,MacIntel,59.99880002,6156017fbad0983c816fbd7c,626b377229c10585ec392f8a,626b3b5c6230fead06cf72ce,,,,,,,,,,,,,,,,,,,,,,,l,0,0.5374,"[""0.634"",""0.559"",""0.882"",""0.935""]","[0,1,1,1]",0,58,58,58,1,0,0,,,1,FALSE,,,,,,,,,,,,,,,,,,,,,,,,,,,,,,
,6156017fbad0983c816fbd7c,001,2022-04-28_20h12.54.068,classification_task,2021.2.3,MacIntel,59.99880002,6156017fbad0983c816fbd7c,626b377229c10585ec392f8a,626b3b5c6230fead06cf72ce,,,,,,,,,,,,,,,,,,,,,,,a,0,0.317,"[""0.039"",""0.411"",""0.669"",""0.074""]","[1,1,1,0]",0,59,59,59,1,1,0,,,1,FALSE,,,,,,,,,,,,,,,,,,,,,,,,,,,,,,
,6156017fbad0983c816fbd7c,001,2022-04-28_20h12.54.068,classification_task,2021.2.3,MacIntel,59.99880002,6156017fbad0983c816fbd7c,626b377229c10585ec392f8a,626b3b5c6230fead06cf72ce,,,,,,,,,,,,,,,,,,,,,,,a,0,0.3011,"[""0.119"",""0.359"",""0.597"",""0.825""]","[1,0,1,1]",0,60,60,60,1,1,1,,,1,FALSE,,,,,,,,,,,,,,,,,,,,,,,,,,,,,,
,6156017fbad0983c816fbd7c,001,2022-04-28_20h12.54.068,classification_task,2021.2.3,MacIntel,59.99880002,6156017fbad0983c816fbd7c,626b377229c10585ec392f8a,626b3b5c6230fead06cf72ce,,,,,,,,,,,,,,,,,,,,,,,a,0,0.2721,"[""0.630"",""0.322"",""0.597"",""0.825""]","[0,1,1,1]",0,61,61,61,1,1,1,,,1,FALSE,,,,,,,,,,,,,,,,,,,,,,,,,,,,,,
,6156017fbad0983c816fbd7c,001,2022-04-28_20h12.54.068,classification_task,2021.2.3,MacIntel,59.99880002,6156017fbad0983c816fbd7c,626b377229c10585ec392f8a,626b3b5c6230fead06cf72ce,,,,,,,,,,,,,,,,,,,,,,,a,1,0.3042,"[""0.191"",""0.521"",""0.725"",""0.358""]","[1,1,1,0]",0,62,62,62,1,0,1,,,1,FALSE,,,,,,,,,,,,,,,,,,,,,,,,,,,,,,
,6156017fbad0983c816fbd7c,001,2022-04-28_20h12.54.068,classification_task,2021.2.3,MacIntel,59.99880002,6156017fbad0983c816fbd7c,626b377229c10585ec392f8a,626b3b5c6230fead06cf72ce,,,,,,,,,,,,,,,,,,,,,,,l,1,0.3214,"[""0.119"",""0.322"",""0.597"",""0.359""]","[1,1,1,0]",0,63,63,63,1,1,1,,,1,FALSE,,,,,,,,,,,,,,,,,,,,,,,,,,,,,,
,6156017fbad0983c816fbd7c,001,2022-04-28_20h12.54.068,classification_task,2021.2.3,MacIntel,59.99880002,6156017fbad0983c816fbd7c,626b377229c10585ec392f8a,626b3b5c6230fead06cf72ce,,,,,,,,,,,,,,,,,,,,,,,,,,,,,,,,,,,,,,,0, ,,0,6.762405387,362.998,0,0,0,0,1,2,1,,,,,,,,,,,,,,,,,
,6156017fbad0983c816fbd7c,001,2022-04-28_20h12.54.068,classification_task,2021.2.3,MacIntel,59.99880002,6156017fbad0983c816fbd7c,626b377229c10585ec392f8a,626b3b5c6230fead06cf72ce,,,,,,,,,,,,,,,,,,,,,,,,,,,,,,,,,,,,,,,1,  ,,0,8.869148088,368.6118,0,0,0,0,1,2,1,,,,,,,,,,,,,,,,,
,6156017fbad0983c816fbd7c,001,2022-04-28_20h12.54.068,classification_task,2021.2.3,MacIntel,59.99880002,6156017fbad0983c816fbd7c,626b377229c10585ec392f8a,626b3b5c6230fead06cf72ce,,,,,,,,,,,,,,,,,,,,,,,,,,,,,,,,,,,,,,,2,  ,,0,9.869505688,374.6765,0,0,0,0,1,2,1,,,,,,,,,,,,,,,,,
,6156017fbad0983c816fbd7c,001,2022-04-28_20h12.54.068,classification_task,2021.2.3,MacIntel,59.99880002,6156017fbad0983c816fbd7c,626b377229c10585ec392f8a,626b3b5c6230fead06cf72ce,,,,,,,,,,,,,,,,,,,,,,,,,,,,,,,,,,,,,,,,,,,,,0,0,0,0,1,,1,,,,,,,,,,,,,,,,,
,6156017fbad0983c816fbd7c,001,2022-04-28_20h12.54.068,classification_task,2021.2.3,MacIntel,59.99880002,6156017fbad0983c816fbd7c,626b377229c10585ec392f8a,626b3b5c6230fead06cf72ce,,,,,,,,,,,,,,,,,,,,,space,6.6503,a,1,3.3507,"[""0.374"",""0.521"",""0.725"",""0.970""]","[0,1,1,1]",0,0,0,0,1,0,1,,,1,FALSE,,,,,,,,,,,,,,,,,,,,,,,,,,,,,,
,6156017fbad0983c816fbd7c,001,2022-04-28_20h12.54.068,classification_task,2021.2.3,MacIntel,59.99880002,6156017fbad0983c816fbd7c,626b377229c10585ec392f8a,626b3b5c6230fead06cf72ce,,,,,,,,,,,,,,,,,,,,,,,l,0,2.0013,"[""0.271"",""0.559"",""0.074"",""0.935""]","[1,1,0,1]",0,1,1,1,1,0,0,,,1,FALSE,,,,,,,,,,,,,,,,,,,,,,,,,,,,,,
,6156017fbad0983c816fbd7c,001,2022-04-28_20h12.54.068,classification_task,2021.2.3,MacIntel,59.99880002,6156017fbad0983c816fbd7c,626b377229c10585ec392f8a,626b3b5c6230fead06cf72ce,,,,,,,,,,,,,,,,,,,,,,,a,0,0.3039,"[""0.119"",""0.322"",""0.471"",""0.825""]","[1,1,0,1]",0,2,2,2,1,1,1,,,1,FALSE,,,,,,,,,,,,,,,,,,,,,,,,,,,,,,
,6156017fbad0983c816fbd7c,001,2022-04-28_20h12.54.068,classification_task,2021.2.3,MacIntel,59.99880002,6156017fbad0983c816fbd7c,626b377229c10585ec392f8a,626b3b5c6230fead06cf72ce,,,,,,,,,,,,,,,,,,,,,,,a,0,0.7159,"[""0.119"",""0.634"",""0.597"",""0.825""]","[1,0,1,1]",0,3,3,3,1,1,1,,,1,FALSE,,,,,,,,,,,,,,,,,,,,,,,,,,,,,,
,6156017fbad0983c816fbd7c,001,2022-04-28_20h12.54.068,classification_task,2021.2.3,MacIntel,59.99880002,6156017fbad0983c816fbd7c,626b377229c10585ec392f8a,626b3b5c6230fead06cf72ce,,,,,,,,,,,,,,,,,,,,,,,l,0,1.4995,"[""0.191"",""0.361"",""0.725"",""0.970""]","[1,0,1,1]",0,4,4,4,1,0,1,,,1,FALSE,,,,,,,,,,,,,,,,,,,,,,,,,,,,,,
,6156017fbad0983c816fbd7c,001,2022-04-28_20h12.54.068,classification_task,2021.2.3,MacIntel,59.99880002,6156017fbad0983c816fbd7c,626b377229c10585ec392f8a,626b3b5c6230fead06cf72ce,,,,,,,,,,,,,,,,,,,,,,,a,1,1.1313,"[""0.271"",""0.234"",""0.882"",""0.935""]","[1,0,1,1]",0,5,5,5,1,0,0,,,1,FALSE,,,,,,,,,,,,,,,,,,,,,,,,,,,,,,
,6156017fbad0983c816fbd7c,001,2022-04-28_20h12.54.068,classification_task,2021.2.3,MacIntel,59.99880002,6156017fbad0983c816fbd7c,626b377229c10585ec392f8a,626b3b5c6230fead06cf72ce,,,,,,,,,,,,,,,,,,,,,,,l,0,0.3339,"[""0.630"",""0.559"",""0.882"",""0.935""]","[0,1,1,1]",0,6,6,6,1,0,0,,,1,FALSE,,,,,,,,,,,,,,,,,,,,,,,,,,,,,,
,6156017fbad0983c816fbd7c,001,2022-04-28_20h12.54.068,classification_task,2021.2.3,MacIntel,59.99880002,6156017fbad0983c816fbd7c,626b377229c10585ec392f8a,626b3b5c6230fead06cf72ce,,,,,,,,,,,,,,,,,,,,,,,a,1,0.2997,"[""0.271"",""0.559"",""0.882"",""0.358""]","[1,1,1,0]",0,7,7,7,1,0,0,,,1,FALSE,,,,,,,,,,,,,,,,,,,,,,,,,,,,,,
,6156017fbad0983c816fbd7c,001,2022-04-28_20h12.54.068,classification_task,2021.2.3,MacIntel,59.99880002,6156017fbad0983c816fbd7c,626b377229c10585ec392f8a,626b3b5c6230fead06cf72ce,,,,,,,,,,,,,,,,,,,,,,,a,1,0.2819,"[""0.191"",""0.521"",""0.074"",""0.970""]","[1,1,0,1]",0,8,8,8,1,0,1,,,1,FALSE,,,,,,,,,,,,,,,,,,,,,,,,,,,,,,
,6156017fbad0983c816fbd7c,001,2022-04-28_20h12.54.068,classification_task,2021.2.3,MacIntel,59.99880002,6156017fbad0983c816fbd7c,626b377229c10585ec392f8a,626b3b5c6230fead06cf72ce,,,,,,,,,,,,,,,,,,,,,,,a,0,0.4484,"[""0.039"",""0.358"",""0.669"",""0.765""]","[1,0,1,1]",0,9,9,9,1,1,0,,,1,FALSE,,,,,,,,,,,,,,,,,,,,,,,,,,,,,,
,6156017fbad0983c816fbd7c,001,2022-04-28_20h12.54.068,classification_task,2021.2.3,MacIntel,59.99880002,6156017fbad0983c816fbd7c,626b377229c10585ec392f8a,626b3b5c6230fead06cf72ce,,,,,,,,,,,,,,,,,,,,,,,l,0,0.2991,"[""0.191"",""0.521"",""0.725"",""0.471""]","[1,1,1,0]",0,10,10,10,1,0,1,,,1,FALSE,,,,,,,,,,,,,,,,,,,,,,,,,,,,,,
,6156017fbad0983c816fbd7c,001,2022-04-28_20h12.54.068,classification_task,2021.2.3,MacIntel,59.99880002,6156017fbad0983c816fbd7c,626b377229c10585ec392f8a,626b3b5c6230fead06cf72ce,,,,,,,,,,,,,,,,,,,,,,,l,1,0.2536,"[""0.039"",""0.411"",""0.669"",""0.634""]","[1,1,1,0]",0,11,11,11,1,1,0,,,1,FALSE,,,,,,,,,,,,,,,,,,,,,,,,,,,,,,
,6156017fbad0983c816fbd7c,001,2022-04-28_20h12.54.068,classification_task,2021.2.3,MacIntel,59.99880002,6156017fbad0983c816fbd7c,626b377229c10585ec392f8a,626b3b5c6230fead06cf72ce,,,,,,,,,,,,,,,,,,,,,,,a,0,0.2863,"[""0.039"",""0.411"",""0.074"",""0.765""]","[1,1,0,1]",0,12,12,12,1,1,0,,,1,FALSE,,,,,,,,,,,,,,,,,,,,,,,,,,,,,,
,6156017fbad0983c816fbd7c,001,2022-04-28_20h12.54.068,classification_task,2021.2.3,MacIntel,59.99880002,6156017fbad0983c816fbd7c,626b377229c10585ec392f8a,626b3b5c6230fead06cf72ce,,,,,,,,,,,,,,,,,,,,,,,a,0,0.4489,"[""0.374"",""0.411"",""0.669"",""0.765""]","[0,1,1,1]",0,13,13,13,1,1,0,,,1,FALSE,,,,,,,,,,,,,,,,,,,,,,,,,,,,,,
,6156017fbad0983c816fbd7c,001,2022-04-28_20h12.54.068,classification_task,2021.2.3,MacIntel,59.99880002,6156017fbad0983c816fbd7c,626b377229c10585ec392f8a,626b3b5c6230fead06cf72ce,,,,,,,,,,,,,,,,,,,,,,,a,0,0.3625,"[""0.119"",""0.322"",""0.597"",""0.074""]","[1,1,1,0]",0,14,14,14,1,1,1,,,1,FALSE,,,,,,,,,,,,,,,,,,,,,,,,,,,,,,
,6156017fbad0983c816fbd7c,001,2022-04-28_20h12.54.068,classification_task,2021.2.3,MacIntel,59.99880002,6156017fbad0983c816fbd7c,626b377229c10585ec392f8a,626b3b5c6230fead06cf72ce,,,,,,,,,,,,,,,,,,,,,,,a,0,0.2823,"[""0.368"",""0.322"",""0.597"",""0.825""]","[0,1,1,1]",0,15,15,15,1,1,1,,,1,FALSE,,,,,,,,,,,,,,,,,,,,,,,,,,,,,,
,6156017fbad0983c816fbd7c,001,2022-04-28_20h12.54.068,classification_task,2021.2.3,MacIntel,59.99880002,6156017fbad0983c816fbd7c,626b377229c10585ec392f8a,626b3b5c6230fead06cf72ce,,,,,,,,,,,,,,,,,,,,,,,a,0,0.33,"[""0.368"",""0.322"",""0.597"",""0.825""]","[0,1,1,1]",0,16,16,16,1,1,1,,,1,FALSE,,,,,,,,,,,,,,,,,,,,,,,,,,,,,,
,6156017fbad0983c816fbd7c,001,2022-04-28_20h12.54.068,classification_task,2021.2.3,MacIntel,59.99880002,6156017fbad0983c816fbd7c,626b377229c10585ec392f8a,626b3b5c6230fead06cf72ce,,,,,,,,,,,,,,,,,,,,,,,a,1,0.3165,"[""0.271"",""0.368"",""0.882"",""0.935""]","[1,0,1,1]",0,17,17,17,1,0,0,,,1,FALSE,,,,,,,,,,,,,,,,,,,,,,,,,,,,,,
,6156017fbad0983c816fbd7c,001,2022-04-28_20h12.54.068,classification_task,2021.2.3,MacIntel,59.99880002,6156017fbad0983c816fbd7c,626b377229c10585ec392f8a,626b3b5c6230fead06cf72ce,,,,,,,,,,,,,,,,,,,,,,,l,1,0.5637,"[""0.119"",""0.322"",""0.597"",""0.448""]","[1,1,1,0]",0,18,18,18,1,1,1,,,1,FALSE,,,,,,,,,,,,,,,,,,,,,,,,,,,,,,
,6156017fbad0983c816fbd7c,001,2022-04-28_20h12.54.068,classification_task,2021.2.3,MacIntel,59.99880002,6156017fbad0983c816fbd7c,626b377229c10585ec392f8a,626b3b5c6230fead06cf72ce,,,,,,,,,,,,,,,,,,,,,,,a,0,0.5292,"[""0.039"",""0.448"",""0.669"",""0.765""]","[1,0,1,1]",0,19,19,19,1,1,0,,,1,FALSE,,,,,,,,,,,,,,,,,,,,,,,,,,,,,,
,6156017fbad0983c816fbd7c,001,2022-04-28_20h12.54.068,classification_task,2021.2.3,MacIntel,59.99880002,6156017fbad0983c816fbd7c,626b377229c10585ec392f8a,626b3b5c6230fead06cf72ce,,,,,,,,,,,,,,,,,,,,,,,l,0,0.5178,"[""0.191"",""0.521"",""0.725"",""0.358""]","[1,1,1,0]",0,20,20,20,1,0,1,,,1,FALSE,,,,,,,,,,,,,,,,,,,,,,,,,,,,,,
,6156017fbad0983c816fbd7c,001,2022-04-28_20h12.54.068,classification_task,2021.2.3,MacIntel,59.99880002,6156017fbad0983c816fbd7c,626b377229c10585ec392f8a,626b3b5c6230fead06cf72ce,,,,,,,,,,,,,,,,,,,,,,,a,0,0.6293,"[""0.039"",""0.411"",""0.669"",""0.471""]","[1,1,1,0]",0,21,21,21,1,1,0,,,1,FALSE,,,,,,,,,,,,,,,,,,,,,,,,,,,,,,
,6156017fbad0983c816fbd7c,001,2022-04-28_20h12.54.068,classification_task,2021.2.3,MacIntel,59.99880002,6156017fbad0983c816fbd7c,626b377229c10585ec392f8a,626b3b5c6230fead06cf72ce,,,,,,,,,,,,,,,,,,,,,,,l,0,1.2056,"[""0.471"",""0.521"",""0.725"",""0.970""]","[0,1,1,1]",0,22,22,22,1,0,1,,,1,FALSE,,,,,,,,,,,,,,,,,,,,,,,,,,,,,,
,6156017fbad0983c816fbd7c,001,2022-04-28_20h12.54.068,classification_task,2021.2.3,MacIntel,59.99880002,6156017fbad0983c816fbd7c,626b377229c10585ec392f8a,626b3b5c6230fead06cf72ce,,,,,,,,,,,,,,,,,,,,,,,a,1,5.4446,"[""0.271"",""0.559"",""0.882"",""0.478""]","[1,1,1,0]",0,23,23,23,1,0,0,,,1,FALSE,,,,,,,,,,,,,,,,,,,,,,,,,,,,,,
,6156017fbad0983c816fbd7c,001,2022-04-28_20h12.54.068,classification_task,2021.2.3,MacIntel,59.99880002,6156017fbad0983c816fbd7c,626b377229c10585ec392f8a,626b3b5c6230fead06cf72ce,,,,,,,,,,,,,,,,,,,,,,,a,0,0.3351,"[""0.119"",""0.322"",""0.630"",""0.825""]","[1,1,0,1]",0,24,24,24,1,1,1,,,1,FALSE,,,,,,,,,,,,,,,,,,,,,,,,,,,,,,
,6156017fbad0983c816fbd7c,001,2022-04-28_20h12.54.068,classification_task,2021.2.3,MacIntel,59.99880002,6156017fbad0983c816fbd7c,626b377229c10585ec392f8a,626b3b5c6230fead06cf72ce,,,,,,,,,,,,,,,,,,,,,,,a,0,0.4491,"[""0.471"",""0.411"",""0.669"",""0.765""]","[0,1,1,1]",0,25,25,25,1,1,0,,,1,FALSE,,,,,,,,,,,,,,,,,,,,,,,,,,,,,,
,6156017fbad0983c816fbd7c,001,2022-04-28_20h12.54.068,classification_task,2021.2.3,MacIntel,59.99880002,6156017fbad0983c816fbd7c,626b377229c10585ec392f8a,626b3b5c6230fead06cf72ce,,,,,,,,,,,,,,,,,,,,,,,l,1,0.1494,"[""0.119"",""0.630"",""0.597"",""0.825""]","[1,0,1,1]",0,26,26,26,1,1,1,,,1,FALSE,,,,,,,,,,,,,,,,,,,,,,,,,,,,,,
,6156017fbad0983c816fbd7c,001,2022-04-28_20h12.54.068,classification_task,2021.2.3,MacIntel,59.99880002,6156017fbad0983c816fbd7c,626b377229c10585ec392f8a,626b3b5c6230fead06cf72ce,,,,,,,,,,,,,,,,,,,,,,,a,0,0.9987,"[""0.039"",""0.411"",""0.227"",""0.765""]","[1,1,0,1]",0,27,27,27,1,1,0,,,1,FALSE,,,,,,,,,,,,,,,,,,,,,,,,,,,,,,
,6156017fbad0983c816fbd7c,001,2022-04-28_20h12.54.068,classification_task,2021.2.3,MacIntel,59.99880002,6156017fbad0983c816fbd7c,626b377229c10585ec392f8a,626b3b5c6230fead06cf72ce,,,,,,,,,,,,,,,,,,,,,,,l,0,0.486,"[""0.271"",""0.559"",""0.471"",""0.935""]","[1,1,0,1]",0,28,28,28,1,0,0,,,1,FALSE,,,,,,,,,,,,,,,,,,,,,,,,,,,,,,
,6156017fbad0983c816fbd7c,001,2022-04-28_20h12.54.068,classification_task,2021.2.3,MacIntel,59.99880002,6156017fbad0983c816fbd7c,626b377229c10585ec392f8a,626b3b5c6230fead06cf72ce,,,,,,,,,,,,,,,,,,,,,,,l,0,0.3477,"[""0.191"",""0.521"",""0.359"",""0.970""]","[1,1,0,1]",0,29,29,29,1,0,1,,,1,FALSE,,,,,,,,,,,,,,,,,,,,,,,,,,,,,,
,6156017fbad0983c816fbd7c,001,2022-04-28_20h12.54.068,classification_task,2021.2.3,MacIntel,59.99880002,6156017fbad0983c816fbd7c,626b377229c10585ec392f8a,626b3b5c6230fead06cf72ce,,,,,,,,,,,,,,,,,,,,,,,l,0,0.5841,"[""0.361"",""0.559"",""0.882"",""0.935""]","[0,1,1,1]",0,30,30,30,1,0,0,,,1,FALSE,,,,,,,,,,,,,,,,,,,,,,,,,,,,,,
,6156017fbad0983c816fbd7c,001,2022-04-28_20h12.54.068,classification_task,2021.2.3,MacIntel,59.99880002,6156017fbad0983c816fbd7c,626b377229c10585ec392f8a,626b3b5c6230fead06cf72ce,,,,,,,,,,,,,,,,,,,,,,,a,1,2.0551,"[""0.191"",""0.234"",""0.725"",""0.970""]","[1,0,1,1]",0,31,31,31,1,0,1,,,1,FALSE,,,,,,,,,,,,,,,,,,,,,,,,,,,,,,
,6156017fbad0983c816fbd7c,001,2022-04-28_20h12.54.068,classification_task,2021.2.3,MacIntel,59.99880002,6156017fbad0983c816fbd7c,626b377229c10585ec392f8a,626b3b5c6230fead06cf72ce,,,,,,,,,,,,,,,,,,,,,,,a,1,0.5978,"[""0.271"",""0.559"",""0.882"",""0.630""]","[1,1,1,0]",0,32,32,32,1,0,0,,,1,FALSE,,,,,,,,,,,,,,,,,,,,,,,,,,,,,,
,6156017fbad0983c816fbd7c,001,2022-04-28_20h12.54.068,classification_task,2021.2.3,MacIntel,59.99880002,6156017fbad0983c816fbd7c,626b377229c10585ec392f8a,626b3b5c6230fead06cf72ce,,,,,,,,,,,,,,,,,,,,,,,a,0,1.5509,"[""0.119"",""0.359"",""0.597"",""0.825""]","[1,0,1,1]",0,33,33,33,1,1,1,,,1,FALSE,,,,,,,,,,,,,,,,,,,,,,,,,,,,,,
,6156017fbad0983c816fbd7c,001,2022-04-28_20h12.54.068,classification_task,2021.2.3,MacIntel,59.99880002,6156017fbad0983c816fbd7c,626b377229c10585ec392f8a,626b3b5c6230fead06cf72ce,,,,,,,,,,,,,,,,,,,,,,,a,0,0.3994,"[""0.634"",""0.411"",""0.669"",""0.765""]","[0,1,1,1]",0,34,34,34,1,1,0,,,1,FALSE,,,,,,,,,,,,,,,,,,,,,,,,,,,,,,
,6156017fbad0983c816fbd7c,001,2022-04-28_20h12.54.068,classification_task,2021.2.3,MacIntel,59.99880002,6156017fbad0983c816fbd7c,626b377229c10585ec392f8a,626b3b5c6230fead06cf72ce,,,,,,,,,,,,,,,,,,,,,,,a,0,0.3484,"[""0.119"",""0.322"",""0.471"",""0.825""]","[1,1,0,1]",0,35,35,35,1,1,1,,,1,FALSE,,,,,,,,,,,,,,,,,,,,,,,,,,,,,,
,6156017fbad0983c816fbd7c,001,2022-04-28_20h12.54.068,classification_task,2021.2.3,MacIntel,59.99880002,6156017fbad0983c816fbd7c,626b377229c10585ec392f8a,626b3b5c6230fead06cf72ce,,,,,,,,,,,,,,,,,,,,,,,l,1,0.3504,"[""0.039"",""0.448"",""0.669"",""0.765""]","[1,0,1,1]",0,36,36,36,1,1,0,,,1,FALSE,,,,,,,,,,,,,,,,,,,,,,,,,,,,,,
,6156017fbad0983c816fbd7c,001,2022-04-28_20h12.54.068,classification_task,2021.2.3,MacIntel,59.99880002,6156017fbad0983c816fbd7c,626b377229c10585ec392f8a,626b3b5c6230fead06cf72ce,,,,,,,,,,,,,,,,,,,,,,,l,0,0.8673,"[""0.191"",""0.358"",""0.725"",""0.970""]","[1,0,1,1]",0,37,37,37,1,0,1,,,1,FALSE,,,,,,,,,,,,,,,,,,,,,,,,,,,,,,
,6156017fbad0983c816fbd7c,001,2022-04-28_20h12.54.068,classification_task,2021.2.3,MacIntel,59.99880002,6156017fbad0983c816fbd7c,626b377229c10585ec392f8a,626b3b5c6230fead06cf72ce,,,,,,,,,,,,,,,,,,,,,,,a,0,0.3816,"[""0.039"",""0.411"",""0.669"",""0.471""]","[1,1,1,0]",0,38,38,38,1,1,0,,,1,FALSE,,,,,,,,,,,,,,,,,,,,,,,,,,,,,,
,6156017fbad0983c816fbd7c,001,2022-04-28_20h12.54.068,classification_task,2021.2.3,MacIntel,59.99880002,6156017fbad0983c816fbd7c,626b377229c10585ec392f8a,626b3b5c6230fead06cf72ce,,,,,,,,,,,,,,,,,,,,,,,l,0,0.3294,"[""0.471"",""0.559"",""0.882"",""0.935""]","[0,1,1,1]",0,39,39,39,1,0,0,,,1,FALSE,,,,,,,,,,,,,,,,,,,,,,,,,,,,,,
,6156017fbad0983c816fbd7c,001,2022-04-28_20h12.54.068,classification_task,2021.2.3,MacIntel,59.99880002,6156017fbad0983c816fbd7c,626b377229c10585ec392f8a,626b3b5c6230fead06cf72ce,,,,,,,,,,,,,,,,,,,,,,,a,1,0.2995,"[""0.471"",""0.521"",""0.725"",""0.970""]","[0,1,1,1]",0,40,40,40,1,0,1,,,1,FALSE,,,,,,,,,,,,,,,,,,,,,,,,,,,,,,
,6156017fbad0983c816fbd7c,001,2022-04-28_20h12.54.068,classification_task,2021.2.3,MacIntel,59.99880002,6156017fbad0983c816fbd7c,626b377229c10585ec392f8a,626b3b5c6230fead06cf72ce,,,,,,,,,,,,,,,,,,,,,,,a,1,0.8674,"[""0.191"",""0.521"",""0.725"",""0.361""]","[1,1,1,0]",0,41,41,41,1,0,1,,,1,FALSE,,,,,,,,,,,,,,,,,,,,,,,,,,,,,,
,6156017fbad0983c816fbd7c,001,2022-04-28_20h12.54.068,classification_task,2021.2.3,MacIntel,59.99880002,6156017fbad0983c816fbd7c,626b377229c10585ec392f8a,626b3b5c6230fead06cf72ce,,,,,,,,,,,,,,,,,,,,,,,a,1,1.7386,"[""0.271"",""0.559"",""0.361"",""0.935""]","[1,1,0,1]",0,42,42,42,1,0,0,,,1,FALSE,,,,,,,,,,,,,,,,,,,,,,,,,,,,,,
,6156017fbad0983c816fbd7c,001,2022-04-28_20h12.54.068,classification_task,2021.2.3,MacIntel,59.99880002,6156017fbad0983c816fbd7c,626b377229c10585ec392f8a,626b3b5c6230fead06cf72ce,,,,,,,,,,,,,,,,,,,,,,,l,0,1.9898,"[""0.271"",""0.374"",""0.882"",""0.935""]","[1,0,1,1]",0,43,43,43,1,0,0,,,1,FALSE,,,,,,,,,,,,,,,,,,,,,,,,,,,,,,
,6156017fbad0983c816fbd7c,001,2022-04-28_20h12.54.068,classification_task,2021.2.3,MacIntel,59.99880002,6156017fbad0983c816fbd7c,626b377229c10585ec392f8a,626b3b5c6230fead06cf72ce,,,,,,,,,,,,,,,,,,,,,,,a,1,0.4858,"[""0.191"",""0.521"",""0.634"",""0.970""]","[1,1,0,1]",0,44,44,44,1,0,1,,,1,FALSE,,,,,,,,,,,,,,,,,,,,,,,,,,,,,,
,6156017fbad0983c816fbd7c,001,2022-04-28_20h12.54.068,classification_task,2021.2.3,MacIntel,59.99880002,6156017fbad0983c816fbd7c,626b377229c10585ec392f8a,626b3b5c6230fead06cf72ce,,,,,,,,,,,,,,,,,,,,,,,a,0,0.3701,"[""0.471"",""0.322"",""0.597"",""0.825""]","[0,1,1,1]",0,45,45,45,1,1,1,,,1,FALSE,,,,,,,,,,,,,,,,,,,,,,,,,,,,,,
,6156017fbad0983c816fbd7c,001,2022-04-28_20h12.54.068,classification_task,2021.2.3,MacIntel,59.99880002,6156017fbad0983c816fbd7c,626b377229c10585ec392f8a,626b3b5c6230fead06cf72ce,,,,,,,,,,,,,,,,,,,,,,,a,0,0.6642,"[""0.119"",""0.322"",""0.597"",""0.634""]","[1,1,1,0]",0,46,46,46,1,1,1,,,1,FALSE,,,,,,,,,,,,,,,,,,,,,,,,,,,,,,
,6156017fbad0983c816fbd7c,001,2022-04-28_20h12.54.068,classification_task,2021.2.3,MacIntel,59.99880002,6156017fbad0983c816fbd7c,626b377229c10585ec392f8a,626b3b5c6230fead06cf72ce,,,,,,,,,,,,,,,,,,,,,,,l,1,1.2314,"[""0.039"",""0.411"",""0.358"",""0.765""]","[1,1,0,1]",0,47,47,47,1,1,0,,,1,FALSE,,,,,,,,,,,,,,,,,,,,,,,,,,,,,,
,6156017fbad0983c816fbd7c,001,2022-04-28_20h12.54.068,classification_task,2021.2.3,MacIntel,59.99880002,6156017fbad0983c816fbd7c,626b377229c10585ec392f8a,626b3b5c6230fead06cf72ce,,,,,,,,,,,,,,,,,,,,,,,l,0,0.8259,"[""0.271"",""0.358"",""0.882"",""0.935""]","[1,0,1,1]",0,48,48,48,1,0,0,,,1,FALSE,,,,,,,,,,,,,,,,,,,,,,,,,,,,,,
,6156017fbad0983c816fbd7c,001,2022-04-28_20h12.54.068,classification_task,2021.2.3,MacIntel,59.99880002,6156017fbad0983c816fbd7c,626b377229c10585ec392f8a,626b3b5c6230fead06cf72ce,,,,,,,,,,,,,,,,,,,,,,,a,1,0.5679,"[""0.271"",""0.559"",""0.882"",""0.478""]","[1,1,1,0]",0,49,49,49,1,0,0,,,1,FALSE,,,,,,,,,,,,,,,,,,,,,,,,,,,,,,
,6156017fbad0983c816fbd7c,001,2022-04-28_20h12.54.068,classification_task,2021.2.3,MacIntel,59.99880002,6156017fbad0983c816fbd7c,626b377229c10585ec392f8a,626b3b5c6230fead06cf72ce,,,,,,,,,,,,,,,,,,,,,,,a,0,0.3843,"[""0.119"",""0.322"",""0.597"",""0.634""]","[1,1,1,0]",0,50,50,50,1,1,1,,,1,FALSE,,,,,,,,,,,,,,,,,,,,,,,,,,,,,,
,6156017fbad0983c816fbd7c,001,2022-04-28_20h12.54.068,classification_task,2021.2.3,MacIntel,59.99880002,6156017fbad0983c816fbd7c,626b377229c10585ec392f8a,626b3b5c6230fead06cf72ce,,,,,,,,,,,,,,,,,,,,,,,a,1,4.7825,"[""0.630"",""0.559"",""0.882"",""0.935""]","[0,1,1,1]",0,51,51,51,1,0,0,,,1,FALSE,,,,,,,,,,,,,,,,,,,,,,,,,,,,,,
,6156017fbad0983c816fbd7c,001,2022-04-28_20h12.54.068,classification_task,2021.2.3,MacIntel,59.99880002,6156017fbad0983c816fbd7c,626b377229c10585ec392f8a,626b3b5c6230fead06cf72ce,,,,,,,,,,,,,,,,,,,,,,,a,1,1.0646,"[""0.191"",""0.074"",""0.725"",""0.970""]","[1,0,1,1]",0,52,52,52,1,0,1,,,1,FALSE,,,,,,,,,,,,,,,,,,,,,,,,,,,,,,
,6156017fbad0983c816fbd7c,001,2022-04-28_20h12.54.068,classification_task,2021.2.3,MacIntel,59.99880002,6156017fbad0983c816fbd7c,626b377229c10585ec392f8a,626b3b5c6230fead06cf72ce,,,,,,,,,,,,,,,,,,,,,,,l,1,1.2521,"[""0.119"",""0.322"",""0.234"",""0.825""]","[1,1,0,1]",0,53,53,53,1,1,1,,,1,FALSE,,,,,,,,,,,,,,,,,,,,,,,,,,,,,,
,6156017fbad0983c816fbd7c,001,2022-04-28_20h12.54.068,classification_task,2021.2.3,MacIntel,59.99880002,6156017fbad0983c816fbd7c,626b377229c10585ec392f8a,626b3b5c6230fead06cf72ce,,,,,,,,,,,,,,,,,,,,,,,l,0,2.0558,"[""0.471"",""0.521"",""0.725"",""0.970""]","[0,1,1,1]",0,54,54,54,1,0,1,,,1,FALSE,,,,,,,,,,,,,,,,,,,,,,,,,,,,,,
,6156017fbad0983c816fbd7c,001,2022-04-28_20h12.54.068,classification_task,2021.2.3,MacIntel,59.99880002,6156017fbad0983c816fbd7c,626b377229c10585ec392f8a,626b3b5c6230fead06cf72ce,,,,,,,,,,,,,,,,,,,,,,,a,0,0.741,"[""0.039"",""0.411"",""0.669"",""0.359""]","[1,1,1,0]",0,55,55,55,1,1,0,,,1,FALSE,,,,,,,,,,,,,,,,,,,,,,,,,,,,,,
,6156017fbad0983c816fbd7c,001,2022-04-28_20h12.54.068,classification_task,2021.2.3,MacIntel,59.99880002,6156017fbad0983c816fbd7c,626b377229c10585ec392f8a,626b3b5c6230fead06cf72ce,,,,,,,,,,,,,,,,,,,,,,,a,0,0.7826,"[""0.119"",""0.478"",""0.597"",""0.825""]","[1,0,1,1]",0,56,56,56,1,1,1,,,1,FALSE,,,,,,,,,,,,,,,,,,,,,,,,,,,,,,
,6156017fbad0983c816fbd7c,001,2022-04-28_20h12.54.068,classification_task,2021.2.3,MacIntel,59.99880002,6156017fbad0983c816fbd7c,626b377229c10585ec392f8a,626b3b5c6230fead06cf72ce,,,,,,,,,,,,,,,,,,,,,,,l,1,0.5501,"[""0.630"",""0.411"",""0.669"",""0.765""]","[0,1,1,1]",0,57,57,57,1,1,0,,,1,FALSE,,,,,,,,,,,,,,,,,,,,,,,,,,,,,,
,6156017fbad0983c816fbd7c,001,2022-04-28_20h12.54.068,classification_task,2021.2.3,MacIntel,59.99880002,6156017fbad0983c816fbd7c,626b377229c10585ec392f8a,626b3b5c6230fead06cf72ce,,,,,,,,,,,,,,,,,,,,,,,l,0,0.3168,"[""0.271"",""0.559"",""0.634"",""0.935""]","[1,1,0,1]",0,58,58,58,1,0,0,,,1,FALSE,,,,,,,,,,,,,,,,,,,,,,,,,,,,,,
,6156017fbad0983c816fbd7c,001,2022-04-28_20h12.54.068,classification_task,2021.2.3,MacIntel,59.99880002,6156017fbad0983c816fbd7c,626b377229c10585ec392f8a,626b3b5c6230fead06cf72ce,,,,,,,,,,,,,,,,,,,,,,,l,1,0.4304,"[""0.478"",""0.322"",""0.597"",""0.825""]","[0,1,1,1]",0,59,59,59,1,1,1,,,1,FALSE,,,,,,,,,,,,,,,,,,,,,,,,,,,,,,
,6156017fbad0983c816fbd7c,001,2022-04-28_20h12.54.068,classification_task,2021.2.3,MacIntel,59.99880002,6156017fbad0983c816fbd7c,626b377229c10585ec392f8a,626b3b5c6230fead06cf72ce,,,,,,,,,,,,,,,,,,,,,,,l,1,0.4183,"[""0.039"",""0.411"",""0.478"",""0.765""]","[1,1,0,1]",0,60,60,60,1,1,0,,,1,FALSE,,,,,,,,,,,,,,,,,,,,,,,,,,,,,,
,6156017fbad0983c816fbd7c,001,2022-04-28_20h12.54.068,classification_task,2021.2.3,MacIntel,59.99880002,6156017fbad0983c816fbd7c,626b377229c10585ec392f8a,626b3b5c6230fead06cf72ce,,,,,,,,,,,,,,,,,,,,,,,a,1,1.0479,"[""0.191"",""0.521"",""0.634"",""0.970""]","[1,1,0,1]",0,61,61,61,1,0,1,,,1,FALSE,,,,,,,,,,,,,,,,,,,,,,,,,,,,,,
,6156017fbad0983c816fbd7c,001,2022-04-28_20h12.54.068,classification_task,2021.2.3,MacIntel,59.99880002,6156017fbad0983c816fbd7c,626b377229c10585ec392f8a,626b3b5c6230fead06cf72ce,,,,,,,,,,,,,,,,,,,,,,,l,1,0.332,"[""0.039"",""0.368"",""0.669"",""0.765""]","[1,0,1,1]",0,62,62,62,1,1,0,,,1,FALSE,,,,,,,,,,,,,,,,,,,,,,,,,,,,,,
,6156017fbad0983c816fbd7c,001,2022-04-28_20h12.54.068,classification_task,2021.2.3,MacIntel,59.99880002,6156017fbad0983c816fbd7c,626b377229c10585ec392f8a,626b3b5c6230fead06cf72ce,,,,,,,,,,,,,,,,,,,,,,,l,0,0.8826,"[""0.191"",""0.521"",""0.725"",""0.374""]","[1,1,1,0]",0,63,63,63,1,0,1,,,1,FALSE,,,,,,,,,,,,,,,,,,,,,,,,,,,,,,
,6156017fbad0983c816fbd7c,001,2022-04-28_20h12.54.068,classification_task,2021.2.3,MacIntel,59.99880002,6156017fbad0983c816fbd7c,626b377229c10585ec392f8a,626b3b5c6230fead06cf72ce,,,,,,,,,,,,,,,,,,,,,,,,,,,,,,,,,,,,,,,0, ,,0,2.57454506,133.1332,0,1,1,1,1,2,2,,,,,,,,,,,,,,,,,
,6156017fbad0983c816fbd7c,001,2022-04-28_20h12.54.068,classification_task,2021.2.3,MacIntel,59.99880002,6156017fbad0983c816fbd7c,626b377229c10585ec392f8a,626b3b5c6230fead06cf72ce,,,,,,,,,,,,,,,,,,,,,,,,,,,,,,,,,,,,,,,1,  ,,0,7.416265578,135.1827,0,1,1,1,1,2,2,,,,,,,,,,,,,,,,,
,6156017fbad0983c816fbd7c,001,2022-04-28_20h12.54.068,classification_task,2021.2.3,MacIntel,59.99880002,6156017fbad0983c816fbd7c,626b377229c10585ec392f8a,626b3b5c6230fead06cf72ce,,,,,,,,,,,,,,,,,,,,,,,,,,,,,,,,,,,,,,,2,  ,,0,10,137.7311,0,1,1,1,1,2,2,,,,,,,,,,,,,,,,,
,6156017fbad0983c816fbd7c,001,2022-04-28_20h12.54.068,classification_task,2021.2.3,MacIntel,59.99880002,6156017fbad0983c816fbd7c,626b377229c10585ec392f8a,626b3b5c6230fead06cf72ce,,,,,,,,,,,,,,,,,,,,,,,,,,,,,,,,,,,,,,,,,,,,,0,1,1,1,1,,2,,,,,,,,,,,,,,,,,
,6156017fbad0983c816fbd7c,001,2022-04-28_20h12.54.068,classification_task,2021.2.3,MacIntel,59.99880002,6156017fbad0983c816fbd7c,626b377229c10585ec392f8a,626b3b5c6230fead06cf72ce,,,,,,,,,,,,,,,,,,,,,space,7.0977,a,1,1.3563,"[""0.191"",""0.521"",""0.074"",""0.970""]","[1,1,0,1]",0,0,0,0,1,0,1,,,1,FALSE,,,,,,,,,,,,,,,,,,,,,,,,,,,,,,
,6156017fbad0983c816fbd7c,001,2022-04-28_20h12.54.068,classification_task,2021.2.3,MacIntel,59.99880002,6156017fbad0983c816fbd7c,626b377229c10585ec392f8a,626b3b5c6230fead06cf72ce,,,,,,,,,,,,,,,,,,,,,,,a,1,1.1028,"[""0.271"",""0.358"",""0.882"",""0.935""]","[1,0,1,1]",0,1,1,1,1,0,0,,,1,FALSE,,,,,,,,,,,,,,,,,,,,,,,,,,,,,,
,6156017fbad0983c816fbd7c,001,2022-04-28_20h12.54.068,classification_task,2021.2.3,MacIntel,59.99880002,6156017fbad0983c816fbd7c,626b377229c10585ec392f8a,626b3b5c6230fead06cf72ce,,,,,,,,,,,,,,,,,,,,,,,a,0,1.1484,"[""0.039"",""0.411"",""0.669"",""0.359""]","[1,1,1,0]",0,2,2,2,1,1,0,,,1,FALSE,,,,,,,,,,,,,,,,,,,,,,,,,,,,,,
,6156017fbad0983c816fbd7c,001,2022-04-28_20h12.54.068,classification_task,2021.2.3,MacIntel,59.99880002,6156017fbad0983c816fbd7c,626b377229c10585ec392f8a,626b3b5c6230fead06cf72ce,,,,,,,,,,,,,,,,,,,,,,,l,0,0.315,"[""0.271"",""0.559"",""0.882"",""0.471""]","[1,1,1,0]",0,3,3,3,1,0,0,,,1,FALSE,,,,,,,,,,,,,,,,,,,,,,,,,,,,,,
,6156017fbad0983c816fbd7c,001,2022-04-28_20h12.54.068,classification_task,2021.2.3,MacIntel,59.99880002,6156017fbad0983c816fbd7c,626b377229c10585ec392f8a,626b3b5c6230fead06cf72ce,,,,,,,,,,,,,,,,,,,,,,,a,0,0.3505,"[""0.039"",""0.411"",""0.374"",""0.765""]","[1,1,0,1]",0,4,4,4,1,1,0,,,1,FALSE,,,,,,,,,,,,,,,,,,,,,,,,,,,,,,
,6156017fbad0983c816fbd7c,001,2022-04-28_20h12.54.068,classification_task,2021.2.3,MacIntel,59.99880002,6156017fbad0983c816fbd7c,626b377229c10585ec392f8a,626b3b5c6230fead06cf72ce,,,,,,,,,,,,,,,,,,,,,,,l,1,0.3661,"[""0.119"",""0.322"",""0.597"",""0.471""]","[1,1,1,0]",0,5,5,5,1,1,1,,,1,FALSE,,,,,,,,,,,,,,,,,,,,,,,,,,,,,,
,6156017fbad0983c816fbd7c,001,2022-04-28_20h12.54.068,classification_task,2021.2.3,MacIntel,59.99880002,6156017fbad0983c816fbd7c,626b377229c10585ec392f8a,626b3b5c6230fead06cf72ce,,,,,,,,,,,,,,,,,,,,,,,a,1,1.3853,"[""0.271"",""0.559"",""0.478"",""0.935""]","[1,1,0,1]",0,6,6,6,1,0,0,,,1,FALSE,,,,,,,,,,,,,,,,,,,,,,,,,,,,,,
,6156017fbad0983c816fbd7c,001,2022-04-28_20h12.54.068,classification_task,2021.2.3,MacIntel,59.99880002,6156017fbad0983c816fbd7c,626b377229c10585ec392f8a,626b3b5c6230fead06cf72ce,,,,,,,,,,,,,,,,,,,,,,,a,1,1.2703,"[""0.191"",""0.478"",""0.725"",""0.970""]","[1,0,1,1]",0,7,7,7,1,0,1,,,1,FALSE,,,,,,,,,,,,,,,,,,,,,,,,,,,,,,
,6156017fbad0983c816fbd7c,001,2022-04-28_20h12.54.068,classification_task,2021.2.3,MacIntel,59.99880002,6156017fbad0983c816fbd7c,626b377229c10585ec392f8a,626b3b5c6230fead06cf72ce,,,,,,,,,,,,,,,,,,,,,,,a,0,0.4875,"[""0.119"",""0.322"",""0.074"",""0.825""]","[1,1,0,1]",0,8,8,8,1,1,1,,,1,FALSE,,,,,,,,,,,,,,,,,,,,,,,,,,,,,,
,6156017fbad0983c816fbd7c,001,2022-04-28_20h12.54.068,classification_task,2021.2.3,MacIntel,59.99880002,6156017fbad0983c816fbd7c,626b377229c10585ec392f8a,626b3b5c6230fead06cf72ce,,,,,,,,,,,,,,,,,,,,,,,a,0,0.4483,"[""0.039"",""0.634"",""0.669"",""0.765""]","[1,0,1,1]",0,9,9,9,1,1,0,,,1,FALSE,,,,,,,,,,,,,,,,,,,,,,,,,,,,,,
,6156017fbad0983c816fbd7c,001,2022-04-28_20h12.54.068,classification_task,2021.2.3,MacIntel,59.99880002,6156017fbad0983c816fbd7c,626b377229c10585ec392f8a,626b3b5c6230fead06cf72ce,,,,,,,,,,,,,,,,,,,,,,,l,0,0.7136,"[""0.358"",""0.521"",""0.725"",""0.970""]","[0,1,1,1]",0,10,10,10,1,0,1,,,1,FALSE,,,,,,,,,,,,,,,,,,,,,,,,,,,,,,
,6156017fbad0983c816fbd7c,001,2022-04-28_20h12.54.068,classification_task,2021.2.3,MacIntel,59.99880002,6156017fbad0983c816fbd7c,626b377229c10585ec392f8a,626b3b5c6230fead06cf72ce,,,,,,,,,,,,,,,,,,,,,,,l,1,0.2669,"[""0.119"",""0.478"",""0.597"",""0.825""]","[1,0,1,1]",0,11,11,11,1,1,1,,,1,FALSE,,,,,,,,,,,,,,,,,,,,,,,,,,,,,,
,6156017fbad0983c816fbd7c,001,2022-04-28_20h12.54.068,classification_task,2021.2.3,MacIntel,59.99880002,6156017fbad0983c816fbd7c,626b377229c10585ec392f8a,626b3b5c6230fead06cf72ce,,,,,,,,,,,,,,,,,,,,,,,a,0,0.2836,"[""0.448"",""0.322"",""0.597"",""0.825""]","[0,1,1,1]",0,12,12,12,1,1,1,,,1,FALSE,,,,,,,,,,,,,,,,,,,,,,,,,,,,,,
,6156017fbad0983c816fbd7c,001,2022-04-28_20h12.54.068,classification_task,2021.2.3,MacIntel,59.99880002,6156017fbad0983c816fbd7c,626b377229c10585ec392f8a,626b3b5c6230fead06cf72ce,,,,,,,,,,,,,,,,,,,,,,,l,0,0.2838,"[""0.191"",""0.521"",""0.725"",""0.471""]","[1,1,1,0]",0,13,13,13,1,0,1,,,1,FALSE,,,,,,,,,,,,,,,,,,,,,,,,,,,,,,
,6156017fbad0983c816fbd7c,001,2022-04-28_20h12.54.068,classification_task,2021.2.3,MacIntel,59.99880002,6156017fbad0983c816fbd7c,626b377229c10585ec392f8a,626b3b5c6230fead06cf72ce,,,,,,,,,,,,,,,,,,,,,,,a,1,0.2992,"[""0.234"",""0.559"",""0.882"",""0.935""]","[0,1,1,1]",0,14,14,14,1,0,0,,,1,FALSE,,,,,,,,,,,,,,,,,,,,,,,,,,,,,,
,6156017fbad0983c816fbd7c,001,2022-04-28_20h12.54.068,classification_task,2021.2.3,MacIntel,59.99880002,6156017fbad0983c816fbd7c,626b377229c10585ec392f8a,626b3b5c6230fead06cf72ce,,,,,,,,,,,,,,,,,,,,,,,l,1,0.2603,"[""0.471"",""0.411"",""0.669"",""0.765""]","[0,1,1,1]",0,15,15,15,1,1,0,,,1,FALSE,,,,,,,,,,,,,,,,,,,,,,,,,,,,,,
,6156017fbad0983c816fbd7c,001,2022-04-28_20h12.54.068,classification_task,2021.2.3,MacIntel,59.99880002,6156017fbad0983c816fbd7c,626b377229c10585ec392f8a,626b3b5c6230fead06cf72ce,,,,,,,,,,,,,,,,,,,,,,,a,0,0.3147,"[""0.358"",""0.411"",""0.669"",""0.765""]","[0,1,1,1]",0,16,16,16,1,1,0,,,1,FALSE,,,,,,,,,,,,,,,,,,,,,,,,,,,,,,
,6156017fbad0983c816fbd7c,001,2022-04-28_20h12.54.068,classification_task,2021.2.3,MacIntel,59.99880002,6156017fbad0983c816fbd7c,626b377229c10585ec392f8a,626b3b5c6230fead06cf72ce,,,,,,,,,,,,,,,,,,,,,,,a,1,0.2654,"[""0.074"",""0.559"",""0.882"",""0.935""]","[0,1,1,1]",0,17,17,17,1,0,0,,,1,FALSE,,,,,,,,,,,,,,,,,,,,,,,,,,,,,,
,6156017fbad0983c816fbd7c,001,2022-04-28_20h12.54.068,classification_task,2021.2.3,MacIntel,59.99880002,6156017fbad0983c816fbd7c,626b377229c10585ec392f8a,626b3b5c6230fead06cf72ce,,,,,,,,,,,,,,,,,,,,,,,a,1,0.3311,"[""0.271"",""0.559"",""0.882"",""0.478""]","[1,1,1,0]",0,18,18,18,1,0,0,,,1,FALSE,,,,,,,,,,,,,,,,,,,,,,,,,,,,,,
,6156017fbad0983c816fbd7c,001,2022-04-28_20h12.54.068,classification_task,2021.2.3,MacIntel,59.99880002,6156017fbad0983c816fbd7c,626b377229c10585ec392f8a,626b3b5c6230fead06cf72ce,,,,,,,,,,,,,,,,,,,,,,,a,0,0.2678,"[""0.039"",""0.411"",""0.471"",""0.765""]","[1,1,0,1]",0,19,19,19,1,1,0,,,1,FALSE,,,,,,,,,,,,,,,,,,,,,,,,,,,,,,
,6156017fbad0983c816fbd7c,001,2022-04-28_20h12.54.068,classification_task,2021.2.3,MacIntel,59.99880002,6156017fbad0983c816fbd7c,626b377229c10585ec392f8a,626b3b5c6230fead06cf72ce,,,,,,,,,,,,,,,,,,,,,,,a,0,0.6187,"[""0.119"",""0.322"",""0.227"",""0.825""]","[1,1,0,1]",0,20,20,20,1,1,1,,,1,FALSE,,,,,,,,,,,,,,,,,,,,,,,,,,,,,,
,6156017fbad0983c816fbd7c,001,2022-04-28_20h12.54.068,classification_task,2021.2.3,MacIntel,59.99880002,6156017fbad0983c816fbd7c,626b377229c10585ec392f8a,626b3b5c6230fead06cf72ce,,,,,,,,,,,,,,,,,,,,,,,l,1,0.5005,"[""0.039"",""0.411"",""0.669"",""0.630""]","[1,1,1,0]",0,21,21,21,1,1,0,,,1,FALSE,,,,,,,,,,,,,,,,,,,,,,,,,,,,,,
,6156017fbad0983c816fbd7c,001,2022-04-28_20h12.54.068,classification_task,2021.2.3,MacIntel,59.99880002,6156017fbad0983c816fbd7c,626b377229c10585ec392f8a,626b3b5c6230fead06cf72ce,,,,,,,,,,,,,,,,,,,,,,,a,1,0.8996,"[""0.191"",""0.521"",""0.368"",""0.970""]","[1,1,0,1]",0,22,22,22,1,0,1,,,1,FALSE,,,,,,,,,,,,,,,,,,,,,,,,,,,,,,
,6156017fbad0983c816fbd7c,001,2022-04-28_20h12.54.068,classification_task,2021.2.3,MacIntel,59.99880002,6156017fbad0983c816fbd7c,626b377229c10585ec392f8a,626b3b5c6230fead06cf72ce,,,,,,,,,,,,,,,,,,,,,,,l,1,0.3509,"[""0.119"",""0.358"",""0.597"",""0.825""]","[1,0,1,1]",0,23,23,23,1,1,1,,,1,FALSE,,,,,,,,,,,,,,,,,,,,,,,,,,,,,,
,6156017fbad0983c816fbd7c,001,2022-04-28_20h12.54.068,classification_task,2021.2.3,MacIntel,59.99880002,6156017fbad0983c816fbd7c,626b377229c10585ec392f8a,626b3b5c6230fead06cf72ce,,,,,,,,,,,,,,,,,,,,,,,l,1,0.4022,"[""0.039"",""0.478"",""0.669"",""0.765""]","[1,0,1,1]",0,24,24,24,1,1,0,,,1,FALSE,,,,,,,,,,,,,,,,,,,,,,,,,,,,,,
,6156017fbad0983c816fbd7c,001,2022-04-28_20h12.54.068,classification_task,2021.2.3,MacIntel,59.99880002,6156017fbad0983c816fbd7c,626b377229c10585ec392f8a,626b3b5c6230fead06cf72ce,,,,,,,,,,,,,,,,,,,,,,,l,0,0.4665,"[""0.191"",""0.521"",""0.725"",""0.074""]","[1,1,1,0]",0,25,25,25,1,0,1,,,1,FALSE,,,,,,,,,,,,,,,,,,,,,,,,,,,,,,
,6156017fbad0983c816fbd7c,001,2022-04-28_20h12.54.068,classification_task,2021.2.3,MacIntel,59.99880002,6156017fbad0983c816fbd7c,626b377229c10585ec392f8a,626b3b5c6230fead06cf72ce,,,,,,,,,,,,,,,,,,,,,,,l,1,0.3176,"[""0.119"",""0.322"",""0.597"",""0.361""]","[1,1,1,0]",0,26,26,26,1,1,1,,,1,FALSE,,,,,,,,,,,,,,,,,,,,,,,,,,,,,,
,6156017fbad0983c816fbd7c,001,2022-04-28_20h12.54.068,classification_task,2021.2.3,MacIntel,59.99880002,6156017fbad0983c816fbd7c,626b377229c10585ec392f8a,626b3b5c6230fead06cf72ce,,,,,,,,,,,,,,,,,,,,,,,l,0,0.3492,"[""0.271"",""0.368"",""0.882"",""0.935""]","[1,0,1,1]",0,27,27,27,1,0,0,,,1,FALSE,,,,,,,,,,,,,,,,,,,,,,,,,,,,,,
,6156017fbad0983c816fbd7c,001,2022-04-28_20h12.54.068,classification_task,2021.2.3,MacIntel,59.99880002,6156017fbad0983c816fbd7c,626b377229c10585ec392f8a,626b3b5c6230fead06cf72ce,,,,,,,,,,,,,,,,,,,,,,,l,1,0.4903,"[""0.361"",""0.322"",""0.597"",""0.825""]","[0,1,1,1]",0,28,28,28,1,1,1,,,1,FALSE,,,,,,,,,,,,,,,,,,,,,,,,,,,,,,
,6156017fbad0983c816fbd7c,001,2022-04-28_20h12.54.068,classification_task,2021.2.3,MacIntel,59.99880002,6156017fbad0983c816fbd7c,626b377229c10585ec392f8a,626b3b5c6230fead06cf72ce,,,,,,,,,,,,,,,,,,,,,,,a,1,0.3987,"[""0.191"",""0.634"",""0.725"",""0.970""]","[1,0,1,1]",0,29,29,29,1,0,1,,,1,FALSE,,,,,,,,,,,,,,,,,,,,,,,,,,,,,,
,6156017fbad0983c816fbd7c,001,2022-04-28_20h12.54.068,classification_task,2021.2.3,MacIntel,59.99880002,6156017fbad0983c816fbd7c,626b377229c10585ec392f8a,626b3b5c6230fead06cf72ce,,,,,,,,,,,,,,,,,,,,,,,a,1,0.3646,"[""0.271"",""0.559"",""0.634"",""0.935""]","[1,1,0,1]",0,30,30,30,1,0,0,,,1,FALSE,,,,,,,,,,,,,,,,,,,,,,,,,,,,,,
,6156017fbad0983c816fbd7c,001,2022-04-28_20h12.54.068,classification_task,2021.2.3,MacIntel,59.99880002,6156017fbad0983c816fbd7c,626b377229c10585ec392f8a,626b3b5c6230fead06cf72ce,,,,,,,,,,,,,,,,,,,,,,,l,0,0.348,"[""0.630"",""0.521"",""0.725"",""0.970""]","[0,1,1,1]",0,31,31,31,1,0,1,,,1,FALSE,,,,,,,,,,,,,,,,,,,,,,,,,,,,,,
,6156017fbad0983c816fbd7c,001,2022-04-28_20h12.54.068,classification_task,2021.2.3,MacIntel,59.99880002,6156017fbad0983c816fbd7c,626b377229c10585ec392f8a,626b3b5c6230fead06cf72ce,,,,,,,,,,,,,,,,,,,,,,,a,0,0.3532,"[""0.039"",""0.411"",""0.669"",""0.634""]","[1,1,1,0]",0,32,32,32,1,1,0,,,1,FALSE,,,,,,,,,,,,,,,,,,,,,,,,,,,,,,
,6156017fbad0983c816fbd7c,001,2022-04-28_20h12.54.068,classification_task,2021.2.3,MacIntel,59.99880002,6156017fbad0983c816fbd7c,626b377229c10585ec392f8a,626b3b5c6230fead06cf72ce,,,,,,,,,,,,,,,,,,,,,,,a,0,0.6394,"[""0.630"",""0.322"",""0.597"",""0.825""]","[0,1,1,1]",0,33,33,33,1,1,1,,,1,FALSE,,,,,,,,,,,,,,,,,,,,,,,,,,,,,,
,6156017fbad0983c816fbd7c,001,2022-04-28_20h12.54.068,classification_task,2021.2.3,MacIntel,59.99880002,6156017fbad0983c816fbd7c,626b377229c10585ec392f8a,626b3b5c6230fead06cf72ce,,,,,,,,,,,,,,,,,,,,,,,a,0,0.3685,"[""0.119"",""0.322"",""0.597"",""0.471""]","[1,1,1,0]",0,34,34,34,1,1,1,,,1,FALSE,,,,,,,,,,,,,,,,,,,,,,,,,,,,,,
,6156017fbad0983c816fbd7c,001,2022-04-28_20h12.54.068,classification_task,2021.2.3,MacIntel,59.99880002,6156017fbad0983c816fbd7c,626b377229c10585ec392f8a,626b3b5c6230fead06cf72ce,,,,,,,,,,,,,,,,,,,,,,,a,0,0.3809,"[""0.119"",""0.359"",""0.597"",""0.825""]","[1,0,1,1]",0,35,35,35,1,1,1,,,1,FALSE,,,,,,,,,,,,,,,,,,,,,,,,,,,,,,
,6156017fbad0983c816fbd7c,001,2022-04-28_20h12.54.068,classification_task,2021.2.3,MacIntel,59.99880002,6156017fbad0983c816fbd7c,626b377229c10585ec392f8a,626b3b5c6230fead06cf72ce,,,,,,,,,,,,,,,,,,,,,,,l,0,0.1876,"[""0.271"",""0.559"",""0.882"",""0.634""]","[1,1,1,0]",0,36,36,36,1,0,0,,,1,FALSE,,,,,,,,,,,,,,,,,,,,,,,,,,,,,,
,6156017fbad0983c816fbd7c,001,2022-04-28_20h12.54.068,classification_task,2021.2.3,MacIntel,59.99880002,6156017fbad0983c816fbd7c,626b377229c10585ec392f8a,626b3b5c6230fead06cf72ce,,,,,,,,,,,,,,,,,,,,,,,l,0,0.3706,"[""0.074"",""0.521"",""0.725"",""0.970""]","[0,1,1,1]",0,37,37,37,1,0,1,,,1,FALSE,,,,,,,,,,,,,,,,,,,,,,,,,,,,,,
,6156017fbad0983c816fbd7c,001,2022-04-28_20h12.54.068,classification_task,2021.2.3,MacIntel,59.99880002,6156017fbad0983c816fbd7c,626b377229c10585ec392f8a,626b3b5c6230fead06cf72ce,,,,,,,,,,,,,,,,,,,,,,,l,0,0.4013,"[""0.471"",""0.559"",""0.882"",""0.935""]","[0,1,1,1]",0,38,38,38,1,0,0,,,1,FALSE,,,,,,,,,,,,,,,,,,,,,,,,,,,,,,
,6156017fbad0983c816fbd7c,001,2022-04-28_20h12.54.068,classification_task,2021.2.3,MacIntel,59.99880002,6156017fbad0983c816fbd7c,626b377229c10585ec392f8a,626b3b5c6230fead06cf72ce,,,,,,,,,,,,,,,,,,,,,,,l,0,0.6511,"[""0.191"",""0.521"",""0.725"",""0.634""]","[1,1,1,0]",0,39,39,39,1,0,1,,,1,FALSE,,,,,,,,,,,,,,,,,,,,,,,,,,,,,,
,6156017fbad0983c816fbd7c,001,2022-04-28_20h12.54.068,classification_task,2021.2.3,MacIntel,59.99880002,6156017fbad0983c816fbd7c,626b377229c10585ec392f8a,626b3b5c6230fead06cf72ce,,,,,,,,,,,,,,,,,,,,,,,l,1,0.501,"[""0.119"",""0.322"",""0.227"",""0.825""]","[1,1,0,1]",0,40,40,40,1,1,1,,,1,FALSE,,,,,,,,,,,,,,,,,,,,,,,,,,,,,,
,6156017fbad0983c816fbd7c,001,2022-04-28_20h12.54.068,classification_task,2021.2.3,MacIntel,59.99880002,6156017fbad0983c816fbd7c,626b377229c10585ec392f8a,626b3b5c6230fead06cf72ce,,,,,,,,,,,,,,,,,,,,,,,l,0,0.3532,"[""0.191"",""0.358"",""0.725"",""0.970""]","[1,0,1,1]",0,41,41,41,1,0,1,,,1,FALSE,,,,,,,,,,,,,,,,,,,,,,,,,,,,,,
,6156017fbad0983c816fbd7c,001,2022-04-28_20h12.54.068,classification_task,2021.2.3,MacIntel,59.99880002,6156017fbad0983c816fbd7c,626b377229c10585ec392f8a,626b3b5c6230fead06cf72ce,,,,,,,,,,,,,,,,,,,,,,,a,0,0.3686,"[""0.234"",""0.411"",""0.669"",""0.765""]","[0,1,1,1]",0,42,42,42,1,1,0,,,1,FALSE,,,,,,,,,,,,,,,,,,,,,,,,,,,,,,
,6156017fbad0983c816fbd7c,001,2022-04-28_20h12.54.068,classification_task,2021.2.3,MacIntel,59.99880002,6156017fbad0983c816fbd7c,626b377229c10585ec392f8a,626b3b5c6230fead06cf72ce,,,,,,,,,,,,,,,,,,,,,,,l,1,0.2499,"[""0.039"",""0.074"",""0.669"",""0.765""]","[1,0,1,1]",0,43,43,43,1,1,0,,,1,FALSE,,,,,,,,,,,,,,,,,,,,,,,,,,,,,,
,6156017fbad0983c816fbd7c,001,2022-04-28_20h12.54.068,classification_task,2021.2.3,MacIntel,59.99880002,6156017fbad0983c816fbd7c,626b377229c10585ec392f8a,626b3b5c6230fead06cf72ce,,,,,,,,,,,,,,,,,,,,,,,a,1,0.3078,"[""0.271"",""0.634"",""0.882"",""0.935""]","[1,0,1,1]",0,44,44,44,1,0,0,,,1,FALSE,,,,,,,,,,,,,,,,,,,,,,,,,,,,,,
,6156017fbad0983c816fbd7c,001,2022-04-28_20h12.54.068,classification_task,2021.2.3,MacIntel,59.99880002,6156017fbad0983c816fbd7c,626b377229c10585ec392f8a,626b3b5c6230fead06cf72ce,,,,,,,,,,,,,,,,,,,,,,,l,0,0.2692,"[""0.191"",""0.521"",""0.359"",""0.970""]","[1,1,0,1]",0,45,45,45,1,0,1,,,1,FALSE,,,,,,,,,,,,,,,,,,,,,,,,,,,,,,
,6156017fbad0983c816fbd7c,001,2022-04-28_20h12.54.068,classification_task,2021.2.3,MacIntel,59.99880002,6156017fbad0983c816fbd7c,626b377229c10585ec392f8a,626b3b5c6230fead06cf72ce,,,,,,,,,,,,,,,,,,,,,,,l,0,0.3045,"[""0.271"",""0.559"",""0.358"",""0.935""]","[1,1,0,1]",0,46,46,46,1,0,0,,,1,FALSE,,,,,,,,,,,,,,,,,,,,,,,,,,,,,,
,6156017fbad0983c816fbd7c,001,2022-04-28_20h12.54.068,classification_task,2021.2.3,MacIntel,59.99880002,6156017fbad0983c816fbd7c,626b377229c10585ec392f8a,626b3b5c6230fead06cf72ce,,,,,,,,,,,,,,,,,,,,,,,a,0,0.2702,"[""0.039"",""0.411"",""0.359"",""0.765""]","[1,1,0,1]",0,47,47,47,1,1,0,,,1,FALSE,,,,,,,,,,,,,,,,,,,,,,,,,,,,,,
,6156017fbad0983c816fbd7c,001,2022-04-28_20h12.54.068,classification_task,2021.2.3,MacIntel,59.99880002,6156017fbad0983c816fbd7c,626b377229c10585ec392f8a,626b3b5c6230fead06cf72ce,,,,,,,,,,,,,,,,,,,,,,,a,0,0.3209,"[""0.039"",""0.448"",""0.669"",""0.765""]","[1,0,1,1]",0,48,48,48,1,1,0,,,1,FALSE,,,,,,,,,,,,,,,,,,,,,,,,,,,,,,
,6156017fbad0983c816fbd7c,001,2022-04-28_20h12.54.068,classification_task,2021.2.3,MacIntel,59.99880002,6156017fbad0983c816fbd7c,626b377229c10585ec392f8a,626b3b5c6230fead06cf72ce,,,,,,,,,,,,,,,,,,,,,,,a,0,0.2969,"[""0.358"",""0.411"",""0.669"",""0.765""]","[0,1,1,1]",0,49,49,49,1,1,0,,,1,FALSE,,,,,,,,,,,,,,,,,,,,,,,,,,,,,,
,6156017fbad0983c816fbd7c,001,2022-04-28_20h12.54.068,classification_task,2021.2.3,MacIntel,59.99880002,6156017fbad0983c816fbd7c,626b377229c10585ec392f8a,626b3b5c6230fead06cf72ce,,,,,,,,,,,,,,,,,,,,,,,a,1,0.3142,"[""0.271"",""0.559"",""0.882"",""0.374""]","[1,1,1,0]",0,50,50,50,1,0,0,,,1,FALSE,,,,,,,,,,,,,,,,,,,,,,,,,,,,,,
,6156017fbad0983c816fbd7c,001,2022-04-28_20h12.54.068,classification_task,2021.2.3,MacIntel,59.99880002,6156017fbad0983c816fbd7c,626b377229c10585ec392f8a,626b3b5c6230fead06cf72ce,,,,,,,,,,,,,,,,,,,,,,,l,0,0.3875,"[""0.271"",""0.559"",""0.471"",""0.935""]","[1,1,0,1]",0,51,51,51,1,0,0,,,1,FALSE,,,,,,,,,,,,,,,,,,,,,,,,,,,,,,
,6156017fbad0983c816fbd7c,001,2022-04-28_20h12.54.068,classification_task,2021.2.3,MacIntel,59.99880002,6156017fbad0983c816fbd7c,626b377229c10585ec392f8a,626b3b5c6230fead06cf72ce,,,,,,,,,,,,,,,,,,,,,,,l,1,0.4492,"[""0.471"",""0.322"",""0.597"",""0.825""]","[0,1,1,1]",0,52,52,52,1,1,1,,,1,FALSE,,,,,,,,,,,,,,,,,,,,,,,,,,,,,,
,6156017fbad0983c816fbd7c,001,2022-04-28_20h12.54.068,classification_task,2021.2.3,MacIntel,59.99880002,6156017fbad0983c816fbd7c,626b377229c10585ec392f8a,626b3b5c6230fead06cf72ce,,,,,,,,,,,,,,,,,,,,,,,a,1,0.2709,"[""0.191"",""0.521"",""0.725"",""0.361""]","[1,1,1,0]",0,53,53,53,1,0,1,,,1,FALSE,,,,,,,,,,,,,,,,,,,,,,,,,,,,,,
,6156017fbad0983c816fbd7c,001,2022-04-28_20h12.54.068,classification_task,2021.2.3,MacIntel,59.99880002,6156017fbad0983c816fbd7c,626b377229c10585ec392f8a,626b3b5c6230fead06cf72ce,,,,,,,,,,,,,,,,,,,,,,,l,1,0.2737,"[""0.119"",""0.322"",""0.368"",""0.825""]","[1,1,0,1]",0,54,54,54,1,1,1,,,1,FALSE,,,,,,,,,,,,,,,,,,,,,,,,,,,,,,
,6156017fbad0983c816fbd7c,001,2022-04-28_20h12.54.068,classification_task,2021.2.3,MacIntel,59.99880002,6156017fbad0983c816fbd7c,626b377229c10585ec392f8a,626b3b5c6230fead06cf72ce,,,,,,,,,,,,,,,,,,,,,,,a,0,0.3037,"[""0.119"",""0.322"",""0.597"",""0.471""]","[1,1,1,0]",0,55,55,55,1,1,1,,,1,FALSE,,,,,,,,,,,,,,,,,,,,,,,,,,,,,,
,6156017fbad0983c816fbd7c,001,2022-04-28_20h12.54.068,classification_task,2021.2.3,MacIntel,59.99880002,6156017fbad0983c816fbd7c,626b377229c10585ec392f8a,626b3b5c6230fead06cf72ce,,,,,,,,,,,,,,,,,,,,,,,l,0,0.302,"[""0.191"",""0.521"",""0.471"",""0.970""]","[1,1,0,1]",0,56,56,56,1,0,1,,,1,FALSE,,,,,,,,,,,,,,,,,,,,,,,,,,,,,,
,6156017fbad0983c816fbd7c,001,2022-04-28_20h12.54.068,classification_task,2021.2.3,MacIntel,59.99880002,6156017fbad0983c816fbd7c,626b377229c10585ec392f8a,626b3b5c6230fead06cf72ce,,,,,,,,,,,,,,,,,,,,,,,a,1,0.2546,"[""0.368"",""0.559"",""0.882"",""0.935""]","[0,1,1,1]",0,57,57,57,1,0,0,,,1,FALSE,,,,,,,,,,,,,,,,,,,,,,,,,,,,,,
,6156017fbad0983c816fbd7c,001,2022-04-28_20h12.54.068,classification_task,2021.2.3,MacIntel,59.99880002,6156017fbad0983c816fbd7c,626b377229c10585ec392f8a,626b3b5c6230fead06cf72ce,,,,,,,,,,,,,,,,,,,,,,,a,1,0.3673,"[""0.191"",""0.361"",""0.725"",""0.970""]","[1,0,1,1]",0,58,58,58,1,0,1,,,1,FALSE,,,,,,,,,,,,,,,,,,,,,,,,,,,,,,
,6156017fbad0983c816fbd7c,001,2022-04-28_20h12.54.068,classification_task,2021.2.3,MacIntel,59.99880002,6156017fbad0983c816fbd7c,626b377229c10585ec392f8a,626b3b5c6230fead06cf72ce,,,,,,,,,,,,,,,,,,,,,,,a,1,0.4639,"[""0.471"",""0.521"",""0.725"",""0.970""]","[0,1,1,1]",0,59,59,59,1,0,1,,,1,FALSE,,,,,,,,,,,,,,,,,,,,,,,,,,,,,,
,6156017fbad0983c816fbd7c,001,2022-04-28_20h12.54.068,classification_task,2021.2.3,MacIntel,59.99880002,6156017fbad0983c816fbd7c,626b377229c10585ec392f8a,626b3b5c6230fead06cf72ce,,,,,,,,,,,,,,,,,,,,,,,a,0,0.3879,"[""0.119"",""0.234"",""0.597"",""0.825""]","[1,0,1,1]",0,60,60,60,1,1,1,,,1,FALSE,,,,,,,,,,,,,,,,,,,,,,,,,,,,,,
,6156017fbad0983c816fbd7c,001,2022-04-28_20h12.54.068,classification_task,2021.2.3,MacIntel,59.99880002,6156017fbad0983c816fbd7c,626b377229c10585ec392f8a,626b3b5c6230fead06cf72ce,,,,,,,,,,,,,,,,,,,,,,,a,0,0.5139,"[""0.039"",""0.411"",""0.669"",""0.634""]","[1,1,1,0]",0,61,61,61,1,1,0,,,1,FALSE,,,,,,,,,,,,,,,,,,,,,,,,,,,,,,
,6156017fbad0983c816fbd7c,001,2022-04-28_20h12.54.068,classification_task,2021.2.3,MacIntel,59.99880002,6156017fbad0983c816fbd7c,626b377229c10585ec392f8a,626b3b5c6230fead06cf72ce,,,,,,,,,,,,,,,,,,,,,,,l,1,0.3352,"[""0.039"",""0.411"",""0.471"",""0.765""]","[1,1,0,1]",0,62,62,62,1,1,0,,,1,FALSE,,,,,,,,,,,,,,,,,,,,,,,,,,,,,,
,6156017fbad0983c816fbd7c,001,2022-04-28_20h12.54.068,classification_task,2021.2.3,MacIntel,59.99880002,6156017fbad0983c816fbd7c,626b377229c10585ec392f8a,626b3b5c6230fead06cf72ce,,,,,,,,,,,,,,,,,,,,,,,l,0,0.3366,"[""0.271"",""0.471"",""0.882"",""0.935""]","[1,0,1,1]",0,63,63,63,1,0,0,,,1,FALSE,,,,,,,,,,,,,,,,,,,,,,,,,,,,,,
,6156017fbad0983c816fbd7c,001,2022-04-28_20h12.54.068,classification_task,2021.2.3,MacIntel,59.99880002,6156017fbad0983c816fbd7c,626b377229c10585ec392f8a,626b3b5c6230fead06cf72ce,,,,,,,,,,,,,,,,,,,,,,,,,,,,,,,,,,,,,,,0, ,,0,3.883076376,104.4117,0,2,2,2,1,2,3,,,,,,,,,,,,,,,,,
,6156017fbad0983c816fbd7c,001,2022-04-28_20h12.54.068,classification_task,2021.2.3,MacIntel,59.99880002,6156017fbad0983c816fbd7c,626b377229c10585ec392f8a,626b3b5c6230fead06cf72ce,,,,,,,,,,,,,,,,,,,,,,,,,,,,,,,,,,,,,,,1,  ,,0,10,107.1686,0,2,2,2,1,2,3,,,,,,,,,,,,,,,,,
,6156017fbad0983c816fbd7c,001,2022-04-28_20h12.54.068,classification_task,2021.2.3,MacIntel,59.99880002,6156017fbad0983c816fbd7c,626b377229c10585ec392f8a,626b3b5c6230fead06cf72ce,,,,,,,,,,,,,,,,,,,,,,,,,,,,,,,,,,,,,,,2,  ,,0,10,110.8322,0,2,2,2,1,2,3,,,,,,,,,,,,,,,,,
,6156017fbad0983c816fbd7c,001,2022-04-28_20h12.54.068,classification_task,2021.2.3,MacIntel,59.99880002,6156017fbad0983c816fbd7c,626b377229c10585ec392f8a,626b3b5c6230fead06cf72ce,,,,,,,,,,,,,,,,,,,,,,,,,,,,,,,,,,,,,,,,,,,,,0,2,2,2,1,,3,,,,,,,,,,,,,,,,,
,6156017fbad0983c816fbd7c,001,2022-04-28_20h12.54.068,classification_task,2021.2.3,MacIntel,59.99880002,6156017fbad0983c816fbd7c,626b377229c10585ec392f8a,626b3b5c6230fead06cf72ce,,,,,,,,,,,,,,,,,,,,,,,,,,,,,,,,,,,,,,,,,,,,,,,,,,,,,I believe the aid is a competent performer,,0.7,0,3,642.1177,0,0,0,0,1,0,,,,
,6156017fbad0983c816fbd7c,001,2022-04-28_20h12.54.068,classification_task,2021.2.3,MacIntel,59.99880002,6156017fbad0983c816fbd7c,626b377229c10585ec392f8a,626b3b5c6230fead06cf72ce,,,,,,,,,,,,,,,,,,,,,,,,,,,,,,,,,,,,,,,,,,,,,,,,,,,,,I trust the aid,,0.7,0,3,683.0186,0,0,0,0,1,0,,,,
,6156017fbad0983c816fbd7c,001,2022-04-28_20h12.54.068,classification_task,2021.2.3,MacIntel,59.99880002,6156017fbad0983c816fbd7c,626b377229c10585ec392f8a,626b3b5c6230fead06cf72ce,,,,,,,,,,,,,,,,,,,,,,,,,,,,,,,,,,,,,,,,,,,,,,,,,,,,,I have confidence in the advice given by the aid,,0.7,0,2,651.3437,0,0,0,0,1,0,,,,
,6156017fbad0983c816fbd7c,001,2022-04-28_20h12.54.068,classification_task,2021.2.3,MacIntel,59.99880002,6156017fbad0983c816fbd7c,626b377229c10585ec392f8a,626b3b5c6230fead06cf72ce,,,,,,,,,,,,,,,,,,,,,,,,,,,,,,,,,,,,,,,,,,,,,,,,,,,,,I can depend on the aid,,0.7,0,2,688.7797,0,0,0,0,1,0,,,,
,6156017fbad0983c816fbd7c,001,2022-04-28_20h12.54.068,classification_task,2021.2.3,MacIntel,59.99880002,6156017fbad0983c816fbd7c,626b377229c10585ec392f8a,626b3b5c6230fead06cf72ce,,,,,,,,,,,,,,,,,,,,,,,,,,,,,,,,,,,,,,,,,,,,,,,,,,,,,I can rely on the aid to behave in consistent ways,,0.7,0,3,656.1589,0,0,0,0,1,0,,,,
,6156017fbad0983c816fbd7c,001,2022-04-28_20h12.54.068,classification_task,2021.2.3,MacIntel,59.99880002,6156017fbad0983c816fbd7c,626b377229c10585ec392f8a,626b3b5c6230fead06cf72ce,,,,,,,,,,,,,,,,,,,,,,,,,,,,,,,,,,,,,,,,,,,,,,,,,,,,,I can rely on the aid to do its best every time I take its advice,,0.7,0,2,659.531,0,0,0,0,1,0,,,,
,6156017fbad0983c816fbd7c,001,2022-04-28_20h12.54.068,classification_task,2021.2.3,MacIntel,59.99880002,6156017fbad0983c816fbd7c,626b377229c10585ec392f8a,626b3b5c6230fead06cf72ce,,,,,,,,,,,,,,,,,,,,,,,,,,,,,,,,,,,,,,,,,,,,,,,,,,,,,"On trials you completed with assistance from the aid, how frequently did you think the aid was correct?",,0.7,0,80%,,0,0,0,0,1,0,,,,
,6156017fbad0983c816fbd7c,001,2022-04-28_20h12.54.068,classification_task,2021.2.3,MacIntel,59.99880002,6156017fbad0983c816fbd7c,626b377229c10585ec392f8a,626b3b5c6230fead06cf72ce,,,,,,,,,,,,,,,,,,,,,,,,,,,,,,,,,,,,,,,,,,,,,,,,,,,,,"On trials you completed without the aid, how frequently did you think you were correct?",,0.7,0,20%,,0,0,0,0,1,0,,,,
,6156017fbad0983c816fbd7c,001,2022-04-28_20h12.54.068,classification_task,2021.2.3,MacIntel,59.99880002,6156017fbad0983c816fbd7c,626b377229c10585ec392f8a,626b3b5c6230fead06cf72ce,,,,,,,,,,,,,,,,,,,,,,,,,,,,,,,,,,,,,,,,,,,,,,,,,,,,,,,,,,,0,0,0,0,1,,,,,
,6156017fbad0983c816fbd7c,001,2022-04-28_20h12.54.068,classification_task,2021.2.3,MacIntel,59.99880002,6156017fbad0983c816fbd7c,626b377229c10585ec392f8a,626b3b5c6230fead06cf72ce,,,,,,,,,,,,,,,,,,,,,,,,,,,,,,,,,,,,,,,,,,,,,,,,,,,,,,,,,,,,,,,,,space,16.7495,718.7485,
,6156017fbad0983c816fbd7c,001,2022-04-28_20h12.54.068,classification_task,2021.2.3,MacIntel,59.99880002,6156017fbad0983c816fbd7c,626b377229c10585ec392f8a,626b3b5c6230fead06cf72ce,,,,,,,,,,,,,,,,,,,,,,,,,,,,,,,,,,,,,,,,,,,,,,,,,,,,,,,,,,,,,,,,,,,,"Mozilla/5.0 (Macintosh; Intel Mac OS X 10_15_7) AppleWebKit/537.36 (KHTML, like Gecko) Chrome/100.0.4896.127 Safari/537.36"
