usingWebGL,participant,session,date,expName,psychopyVersion,OS,frameRate,PROLIFIC_PID,STUDY_ID,SESSION_ID,signatures_friend,signatures_foe,band_ranges_top,band_ranges_bottom,formitemText,formtype,formundefined,formitemWidth,formindex,formresponse,formrt,key_resp_2.keys,key_resp_2.rt,tute_resp.keys,tute_resp.rt,tutorial.thisRepN,tutorial.thisTrialN,tutorial.thisN,tutorial.thisIndex,tutorial.ran,key_resp_4.keys,key_resp_4.rt,key_resp.keys,key_resp.corr,key_resp.rt,lines_presented,is_signal_presented,trials.thisRepN,trials.thisTrialN,trials.thisN,trials.thisIndex,trials.ran,vessel,active_band,lines,is_signal,supported_pos,catch_trial,debrief_formindex,debrief_formitemText,debrief_formtype,debrief_formitemWidth,debrief_formresponse,debrief_formrt,phases.thisRepN,phases.thisTrialN,phases.thisN,phases.thisIndex,phases.ran,phases.order,phase,key_resp_3.keys,trustitemText,trusttype,trustitemWidth,trustindex,trustresponse,trustrt,support_status.thisRepN,support_status.thisTrialN,support_status.thisN,support_status.thisIndex,support_status.ran,support_status.order,key_resp_5.keys,key_resp_5.rt,globalClockTime,userAgent
TRUE,61577fbbc195adfb13f6c45f,001,2022-04-28_19h58.10.650,classification_task,2021.2.3,Win32,59.54153022,61577fbbc195adfb13f6c45f,626b377229c10585ec392f8a,626b37db13a9fc669217ae45,,,,,,,,,,,,,,,,,,,,,,,,,,,,,,,,,,,,,,,,,,,,,,,,,,,,,,,,,,,,,,,,,,,,
,61577fbbc195adfb13f6c45f,001,2022-04-28_19h58.10.650,classification_task,2021.2.3,Win32,59.54153022,61577fbbc195adfb13f6c45f,626b377229c10585ec392f8a,626b37db13a9fc669217ae45,"[[""0.215"",""0.351"",""0.798"",""0.876""],[""0.172"",""0.403"",""0.925"",""0.969""]]","[[""0.038"",""0.263"",""0.448"",""0.750""],[""0.138"",""0.310"",""0.630"",""0.702""]]","[1,10]","[100,1000]",Video game experience,,,0.7,0,,,,,,,,,,,,,,,,,,,,,,,,,,,,,,,,,,,,,,,,,,,,,,,,,,,,,,,,,,,
,61577fbbc195adfb13f6c45f,001,2022-04-28_19h58.10.650,classification_task,2021.2.3,Win32,59.54153022,61577fbbc195adfb13f6c45f,626b377229c10585ec392f8a,626b37db13a9fc669217ae45,,,,,Approximately how many hours did you spend playing video games in the last week?,,,0.7,0,1,,,,,,,,,,,,,,,,,,,,,,,,,,,,,,,,,,,,,,,,,,,,,,,,,,,,,,,,,,
,61577fbbc195adfb13f6c45f,001,2022-04-28_19h58.10.650,classification_task,2021.2.3,Win32,59.54153022,61577fbbc195adfb13f6c45f,626b377229c10585ec392f8a,626b37db13a9fc669217ae45,,,,,"Which game did you play the most this year? (Enter ""None"" if you didn't play any)",,,0.7,0,overcooked,,,,,,,,,,,,,,,,,,,,,,,,,,,,,,,,,,,,,,,,,,,,,,,,,,,,,,,,,,
,61577fbbc195adfb13f6c45f,001,2022-04-28_19h58.10.650,classification_task,2021.2.3,Win32,59.54153022,61577fbbc195adfb13f6c45f,626b377229c10585ec392f8a,626b37db13a9fc669217ae45,,,,,Visual perception,,,0.7,0,,,,,,,,,,,,,,,,,,,,,,,,,,,,,,,,,,,,,,,,,,,,,,,,,,,,,,,,,,,
,61577fbbc195adfb13f6c45f,001,2022-04-28_19h58.10.650,classification_task,2021.2.3,Win32,59.54153022,61577fbbc195adfb13f6c45f,626b377229c10585ec392f8a,626b37db13a9fc669217ae45,,,,,Do you have any form of color blindness?,,,0.7,0,No,26.5182,,,,,,,,,,,,,,,,,,,,,,,,,,,,,,,,,,,,,,,,,,,,,,,,,,,,,,,,,
,61577fbbc195adfb13f6c45f,001,2022-04-28_19h58.10.650,classification_task,2021.2.3,Win32,59.54153022,61577fbbc195adfb13f6c45f,626b377229c10585ec392f8a,626b37db13a9fc669217ae45,,,,,Do you use software to change the colour temperature of your screen (e.g. f.lux)?,,,0.7,0,No,30.6475,,,,,,,,,,,,,,,,,,,,,,,,,,,,,,,,,,,,,,,,,,,,,,,,,,,,,,,,,
,61577fbbc195adfb13f6c45f,001,2022-04-28_19h58.10.650,classification_task,2021.2.3,Win32,59.54153022,61577fbbc195adfb13f6c45f,626b377229c10585ec392f8a,626b37db13a9fc669217ae45,,,,,,,,,,,,space,23.9215,space,6.4132,0,0,0,0,1,,,,,,,,,,,,,,,,,,,,,,,,,,,,,,,,,,,,,,,,,,,,,,,,
,61577fbbc195adfb13f6c45f,001,2022-04-28_19h58.10.650,classification_task,2021.2.3,Win32,59.54153022,61577fbbc195adfb13f6c45f,626b377229c10585ec392f8a,626b37db13a9fc669217ae45,,,,,,,,,,,,,,space,6.5909,1,0,1,0,1,,,,,,,,,,,,,,,,,,,,,,,,,,,,,,,,,,,,,,,,,,,,,,,,
,61577fbbc195adfb13f6c45f,001,2022-04-28_19h58.10.650,classification_task,2021.2.3,Win32,59.54153022,61577fbbc195adfb13f6c45f,626b377229c10585ec392f8a,626b37db13a9fc669217ae45,,,,,,,,,,,,,,space,15.7099,2,0,2,0,1,,,,,,,,,,,,,,,,,,,,,,,,,,,,,,,,,,,,,,,,,,,,,,,,
,61577fbbc195adfb13f6c45f,001,2022-04-28_19h58.10.650,classification_task,2021.2.3,Win32,59.54153022,61577fbbc195adfb13f6c45f,626b377229c10585ec392f8a,626b37db13a9fc669217ae45,,,,,,,,,,,,,,space,14.9746,3,0,3,0,1,,,,,,,,,,,,,,,,,,,,,,,,,,,,,,,,,,,,,,,,,,,,,,,,
,61577fbbc195adfb13f6c45f,001,2022-04-28_19h58.10.650,classification_task,2021.2.3,Win32,59.54153022,61577fbbc195adfb13f6c45f,626b377229c10585ec392f8a,626b37db13a9fc669217ae45,,,,,,,,,,,,,,space,12.6921,4,0,4,0,1,,,,,,,,,,,,,,,,,,,,,,,,,,,,,,,,,,,,,,,,,,,,,,,,
,61577fbbc195adfb13f6c45f,001,2022-04-28_19h58.10.650,classification_task,2021.2.3,Win32,59.54153022,61577fbbc195adfb13f6c45f,626b377229c10585ec392f8a,626b37db13a9fc669217ae45,,,,,,,,,,,,,,,,,,,,,space,15.4517,a,1,6.6974,"[""0.172"",""0.532"",""0.925"",""0.969""]","[1,0,1,1]",0,0,0,0,1,0,1,,,1,FALSE,,,,,,,,,,,,,,,,,,,,,,,,,,,,,,
,61577fbbc195adfb13f6c45f,001,2022-04-28_19h58.10.650,classification_task,2021.2.3,Win32,59.54153022,61577fbbc195adfb13f6c45f,626b377229c10585ec392f8a,626b37db13a9fc669217ae45,,,,,,,,,,,,,,,,,,,,,,,a,1,9.9201,"[""0.215"",""0.558"",""0.798"",""0.876""]","[1,0,1,1]",0,1,1,1,1,0,0,,,1,FALSE,,,,,,,,,,,,,,,,,,,,,,,,,,,,,,
,61577fbbc195adfb13f6c45f,001,2022-04-28_19h58.10.650,classification_task,2021.2.3,Win32,59.54153022,61577fbbc195adfb13f6c45f,626b377229c10585ec392f8a,626b37db13a9fc669217ae45,,,,,,,,,,,,,,,,,,,,,,,l,1,4.0629,"[""0.038"",""0.558"",""0.448"",""0.750""]","[1,0,1,1]",0,2,2,2,1,1,0,,,1,FALSE,,,,,,,,,,,,,,,,,,,,,,,,,,,,,,
,61577fbbc195adfb13f6c45f,001,2022-04-28_19h58.10.650,classification_task,2021.2.3,Win32,59.54153022,61577fbbc195adfb13f6c45f,626b377229c10585ec392f8a,626b37db13a9fc669217ae45,,,,,,,,,,,,,,,,,,,,,,,a,1,9.545,"[""0.172"",""0.403"",""0.925"",""0.087""]","[1,1,1,0]",0,3,3,3,1,0,1,,,1,FALSE,,,,,,,,,,,,,,,,,,,,,,,,,,,,,,
,61577fbbc195adfb13f6c45f,001,2022-04-28_19h58.10.650,classification_task,2021.2.3,Win32,59.54153022,61577fbbc195adfb13f6c45f,626b377229c10585ec392f8a,626b37db13a9fc669217ae45,,,,,,,,,,,,,,,,,,,,,,,l,1,6.7958,"[""0.584"",""0.263"",""0.448"",""0.750""]","[0,1,1,1]",0,4,4,4,1,1,0,,,1,FALSE,,,,,,,,,,,,,,,,,,,,,,,,,,,,,,
,61577fbbc195adfb13f6c45f,001,2022-04-28_19h58.10.650,classification_task,2021.2.3,Win32,59.54153022,61577fbbc195adfb13f6c45f,626b377229c10585ec392f8a,626b37db13a9fc669217ae45,,,,,,,,,,,,,,,,,,,,,,,l,1,7.4731,"[""0.038"",""0.263"",""0.558"",""0.750""]","[1,1,0,1]",0,5,5,5,1,1,0,,,1,FALSE,,,,,,,,,,,,,,,,,,,,,,,,,,,,,,
,61577fbbc195adfb13f6c45f,001,2022-04-28_19h58.10.650,classification_task,2021.2.3,Win32,59.54153022,61577fbbc195adfb13f6c45f,626b377229c10585ec392f8a,626b37db13a9fc669217ae45,,,,,,,,,,,,,,,,,,,,,,,l,1,3.8621,"[""0.138"",""0.310"",""0.573"",""0.702""]","[1,1,0,1]",0,6,6,6,1,1,1,,,1,FALSE,,,,,,,,,,,,,,,,,,,,,,,,,,,,,,
,61577fbbc195adfb13f6c45f,001,2022-04-28_19h58.10.650,classification_task,2021.2.3,Win32,59.54153022,61577fbbc195adfb13f6c45f,626b377229c10585ec392f8a,626b37db13a9fc669217ae45,,,,,,,,,,,,,,,,,,,,,,,a,1,7.7171,"[""0.215"",""0.351"",""0.087"",""0.876""]","[1,1,0,1]",0,7,7,7,1,0,0,,,1,FALSE,,,,,,,,,,,,,,,,,,,,,,,,,,,,,,
,61577fbbc195adfb13f6c45f,001,2022-04-28_19h58.10.650,classification_task,2021.2.3,Win32,59.54153022,61577fbbc195adfb13f6c45f,626b377229c10585ec392f8a,626b37db13a9fc669217ae45,,,,,,,,,,,,,,,,,,,,,,,l,1,6.8285,"[""0.558"",""0.310"",""0.630"",""0.702""]","[0,1,1,1]",0,8,8,8,1,1,1,,,1,FALSE,,,,,,,,,,,,,,,,,,,,,,,,,,,,,,
,61577fbbc195adfb13f6c45f,001,2022-04-28_19h58.10.650,classification_task,2021.2.3,Win32,59.54153022,61577fbbc195adfb13f6c45f,626b377229c10585ec392f8a,626b37db13a9fc669217ae45,,,,,,,,,,,,,,,,,,,,,,,l,1,5.1317,"[""0.138"",""0.310"",""0.630"",""0.098""]","[1,1,1,0]",0,9,9,9,1,1,1,,,1,FALSE,,,,,,,,,,,,,,,,,,,,,,,,,,,,,,
,61577fbbc195adfb13f6c45f,001,2022-04-28_19h58.10.650,classification_task,2021.2.3,Win32,59.54153022,61577fbbc195adfb13f6c45f,626b377229c10585ec392f8a,626b37db13a9fc669217ae45,,,,,,,,,,,,,,,,,,,,,,,a,1,3.9574,"[""0.172"",""0.403"",""0.584"",""0.969""]","[1,1,0,1]",0,10,10,10,1,0,1,,,1,FALSE,,,,,,,,,,,,,,,,,,,,,,,,,,,,,,
,61577fbbc195adfb13f6c45f,001,2022-04-28_19h58.10.650,classification_task,2021.2.3,Win32,59.54153022,61577fbbc195adfb13f6c45f,626b377229c10585ec392f8a,626b37db13a9fc669217ae45,,,,,,,,,,,,,,,,,,,,,,,l,1,3.8522,"[""0.038"",""0.263"",""0.448"",""0.593""]","[1,1,1,0]",0,11,11,11,1,1,0,,,1,FALSE,,,,,,,,,,,,,,,,,,,,,,,,,,,,,,
,61577fbbc195adfb13f6c45f,001,2022-04-28_19h58.10.650,classification_task,2021.2.3,Win32,59.54153022,61577fbbc195adfb13f6c45f,626b377229c10585ec392f8a,626b37db13a9fc669217ae45,,,,,,,,,,,,,,,,,,,,,,,a,1,2.7464,"[""0.215"",""0.351"",""0.798"",""0.584""]","[1,1,1,0]",0,12,12,12,1,0,0,,,1,FALSE,,,,,,,,,,,,,,,,,,,,,,,,,,,,,,
,61577fbbc195adfb13f6c45f,001,2022-04-28_19h58.10.650,classification_task,2021.2.3,Win32,59.54153022,61577fbbc195adfb13f6c45f,626b377229c10585ec392f8a,626b37db13a9fc669217ae45,,,,,,,,,,,,,,,,,,,,,,,a,1,4.6179,"[""0.558"",""0.403"",""0.925"",""0.969""]","[0,1,1,1]",0,13,13,13,1,0,1,,,1,FALSE,,,,,,,,,,,,,,,,,,,,,,,,,,,,,,
,61577fbbc195adfb13f6c45f,001,2022-04-28_19h58.10.650,classification_task,2021.2.3,Win32,59.54153022,61577fbbc195adfb13f6c45f,626b377229c10585ec392f8a,626b37db13a9fc669217ae45,,,,,,,,,,,,,,,,,,,,,,,a,1,5.6628,"[""0.590"",""0.351"",""0.798"",""0.876""]","[0,1,1,1]",0,14,14,14,1,0,0,,,1,FALSE,,,,,,,,,,,,,,,,,,,,,,,,,,,,,,
,61577fbbc195adfb13f6c45f,001,2022-04-28_19h58.10.650,classification_task,2021.2.3,Win32,59.54153022,61577fbbc195adfb13f6c45f,626b377229c10585ec392f8a,626b37db13a9fc669217ae45,,,,,,,,,,,,,,,,,,,,,,,l,1,3.5069,"[""0.138"",""0.087"",""0.630"",""0.702""]","[1,0,1,1]",0,15,15,15,1,1,1,,,1,FALSE,,,,,,,,,,,,,,,,,,,,,,,,,,,,,,
,61577fbbc195adfb13f6c45f,001,2022-04-28_19h58.10.650,classification_task,2021.2.3,Win32,59.54153022,61577fbbc195adfb13f6c45f,626b377229c10585ec392f8a,626b37db13a9fc669217ae45,,,,,,,,,,,,,,,,,,,,,,,a,1,4.901,"[""0.172"",""0.584"",""0.925"",""0.969""]","[1,0,1,1]",0,16,16,16,1,0,1,,,1,FALSE,,,,,,,,,,,,,,,,,,,,,,,,,,,,,,
,61577fbbc195adfb13f6c45f,001,2022-04-28_19h58.10.650,classification_task,2021.2.3,Win32,59.54153022,61577fbbc195adfb13f6c45f,626b377229c10585ec392f8a,626b37db13a9fc669217ae45,,,,,,,,,,,,,,,,,,,,,,,l,1,4.825,"[""0.038"",""0.586"",""0.448"",""0.750""]","[1,0,1,1]",0,17,17,17,1,1,0,,,1,FALSE,,,,,,,,,,,,,,,,,,,,,,,,,,,,,,
,61577fbbc195adfb13f6c45f,001,2022-04-28_19h58.10.650,classification_task,2021.2.3,Win32,59.54153022,61577fbbc195adfb13f6c45f,626b377229c10585ec392f8a,626b37db13a9fc669217ae45,,,,,,,,,,,,,,,,,,,,,,,l,1,5.1577,"[""0.138"",""0.571"",""0.630"",""0.702""]","[1,0,1,1]",0,18,18,18,1,1,1,,,1,FALSE,,,,,,,,,,,,,,,,,,,,,,,,,,,,,,
,61577fbbc195adfb13f6c45f,001,2022-04-28_19h58.10.650,classification_task,2021.2.3,Win32,59.54153022,61577fbbc195adfb13f6c45f,626b377229c10585ec392f8a,626b37db13a9fc669217ae45,,,,,,,,,,,,,,,,,,,,,,,l,0,4.5822,"[""0.571"",""0.403"",""0.925"",""0.969""]","[0,1,1,1]",0,19,19,19,1,0,1,,,1,FALSE,,,,,,,,,,,,,,,,,,,,,,,,,,,,,,
,61577fbbc195adfb13f6c45f,001,2022-04-28_19h58.10.650,classification_task,2021.2.3,Win32,59.54153022,61577fbbc195adfb13f6c45f,626b377229c10585ec392f8a,626b37db13a9fc669217ae45,,,,,,,,,,,,,,,,,,,,,,,a,1,3.9437,"[""0.215"",""0.351"",""0.558"",""0.876""]","[1,1,0,1]",0,20,20,20,1,0,0,,,1,FALSE,,,,,,,,,,,,,,,,,,,,,,,,,,,,,,
,61577fbbc195adfb13f6c45f,001,2022-04-28_19h58.10.650,classification_task,2021.2.3,Win32,59.54153022,61577fbbc195adfb13f6c45f,626b377229c10585ec392f8a,626b37db13a9fc669217ae45,,,,,,,,,,,,,,,,,,,,,,,l,1,3.1483,"[""0.138"",""0.310"",""0.590"",""0.702""]","[1,1,0,1]",0,21,21,21,1,1,1,,,1,FALSE,,,,,,,,,,,,,,,,,,,,,,,,,,,,,,
,61577fbbc195adfb13f6c45f,001,2022-04-28_19h58.10.650,classification_task,2021.2.3,Win32,59.54153022,61577fbbc195adfb13f6c45f,626b377229c10585ec392f8a,626b37db13a9fc669217ae45,,,,,,,,,,,,,,,,,,,,,,,a,1,3.5403,"[""0.172"",""0.403"",""0.925"",""0.532""]","[1,1,1,0]",0,22,22,22,1,0,1,,,1,FALSE,,,,,,,,,,,,,,,,,,,,,,,,,,,,,,
,61577fbbc195adfb13f6c45f,001,2022-04-28_19h58.10.650,classification_task,2021.2.3,Win32,59.54153022,61577fbbc195adfb13f6c45f,626b377229c10585ec392f8a,626b37db13a9fc669217ae45,,,,,,,,,,,,,,,,,,,,,,,a,1,2.8346,"[""0.215"",""0.351"",""0.798"",""0.526""]","[1,1,1,0]",0,23,23,23,1,0,0,,,1,FALSE,,,,,,,,,,,,,,,,,,,,,,,,,,,,,,
,61577fbbc195adfb13f6c45f,001,2022-04-28_19h58.10.650,classification_task,2021.2.3,Win32,59.54153022,61577fbbc195adfb13f6c45f,626b377229c10585ec392f8a,626b37db13a9fc669217ae45,,,,,,,,,,,,,,,,,,,,,,,l,1,4.3325,"[""0.038"",""0.263"",""0.448"",""0.558""]","[1,1,1,0]",0,24,24,24,1,1,0,,,1,FALSE,,,,,,,,,,,,,,,,,,,,,,,,,,,,,,
,61577fbbc195adfb13f6c45f,001,2022-04-28_19h58.10.650,classification_task,2021.2.3,Win32,59.54153022,61577fbbc195adfb13f6c45f,626b377229c10585ec392f8a,626b37db13a9fc669217ae45,,,,,,,,,,,,,,,,,,,,,,,a,1,5.7186,"[""0.215"",""0.526"",""0.798"",""0.876""]","[1,0,1,1]",0,25,25,25,1,0,0,,,1,FALSE,,,,,,,,,,,,,,,,,,,,,,,,,,,,,,
,61577fbbc195adfb13f6c45f,001,2022-04-28_19h58.10.650,classification_task,2021.2.3,Win32,59.54153022,61577fbbc195adfb13f6c45f,626b377229c10585ec392f8a,626b37db13a9fc669217ae45,,,,,,,,,,,,,,,,,,,,,,,l,1,5.456,"[""0.083"",""0.263"",""0.448"",""0.750""]","[0,1,1,1]",0,26,26,26,1,1,0,,,1,FALSE,,,,,,,,,,,,,,,,,,,,,,,,,,,,,,
,61577fbbc195adfb13f6c45f,001,2022-04-28_19h58.10.650,classification_task,2021.2.3,Win32,59.54153022,61577fbbc195adfb13f6c45f,626b377229c10585ec392f8a,626b37db13a9fc669217ae45,,,,,,,,,,,,,,,,,,,,,,,a,0,8.2831,"[""0.138"",""0.310"",""0.630"",""0.593""]","[1,1,1,0]",0,27,27,27,1,1,1,,,1,FALSE,,,,,,,,,,,,,,,,,,,,,,,,,,,,,,
,61577fbbc195adfb13f6c45f,001,2022-04-28_19h58.10.650,classification_task,2021.2.3,Win32,59.54153022,61577fbbc195adfb13f6c45f,626b377229c10585ec392f8a,626b37db13a9fc669217ae45,,,,,,,,,,,,,,,,,,,,,,,a,1,4.9568,"[""0.584"",""0.351"",""0.798"",""0.876""]","[0,1,1,1]",0,28,28,28,1,0,0,,,1,FALSE,,,,,,,,,,,,,,,,,,,,,,,,,,,,,,
,61577fbbc195adfb13f6c45f,001,2022-04-28_19h58.10.650,classification_task,2021.2.3,Win32,59.54153022,61577fbbc195adfb13f6c45f,626b377229c10585ec392f8a,626b37db13a9fc669217ae45,,,,,,,,,,,,,,,,,,,,,,,l,1,6.9884,"[""0.038"",""0.263"",""0.593"",""0.750""]","[1,1,0,1]",0,29,29,29,1,1,0,,,1,FALSE,,,,,,,,,,,,,,,,,,,,,,,,,,,,,,
,61577fbbc195adfb13f6c45f,001,2022-04-28_19h58.10.650,classification_task,2021.2.3,Win32,59.54153022,61577fbbc195adfb13f6c45f,626b377229c10585ec392f8a,626b37db13a9fc669217ae45,,,,,,,,,,,,,,,,,,,,,,,l,1,4.3531,"[""0.571"",""0.310"",""0.630"",""0.702""]","[0,1,1,1]",0,30,30,30,1,1,1,,,1,FALSE,,,,,,,,,,,,,,,,,,,,,,,,,,,,,,
,61577fbbc195adfb13f6c45f,001,2022-04-28_19h58.10.650,classification_task,2021.2.3,Win32,59.54153022,61577fbbc195adfb13f6c45f,626b377229c10585ec392f8a,626b37db13a9fc669217ae45,,,,,,,,,,,,,,,,,,,,,,,a,1,4.6789,"[""0.172"",""0.403"",""0.571"",""0.969""]","[1,1,0,1]",0,31,31,31,1,0,1,,,1,FALSE,,,,,,,,,,,,,,,,,,,,,,,,,,,,,,
,61577fbbc195adfb13f6c45f,001,2022-04-28_19h58.10.650,classification_task,2021.2.3,Win32,59.54153022,61577fbbc195adfb13f6c45f,626b377229c10585ec392f8a,626b37db13a9fc669217ae45,,,,,,,,,,,,,,,,,,,,,,,a,0,5.4914,"[""0.138"",""0.083"",""0.630"",""0.702""]","[1,0,1,1]",0,32,32,32,1,1,1,,,1,FALSE,,,,,,,,,,,,,,,,,,,,,,,,,,,,,,
,61577fbbc195adfb13f6c45f,001,2022-04-28_19h58.10.650,classification_task,2021.2.3,Win32,59.54153022,61577fbbc195adfb13f6c45f,626b377229c10585ec392f8a,626b37db13a9fc669217ae45,,,,,,,,,,,,,,,,,,,,,,,l,0,3.6715,"[""0.215"",""0.351"",""0.526"",""0.876""]","[1,1,0,1]",0,33,33,33,1,0,0,,,1,FALSE,,,,,,,,,,,,,,,,,,,,,,,,,,,,,,
,61577fbbc195adfb13f6c45f,001,2022-04-28_19h58.10.650,classification_task,2021.2.3,Win32,59.54153022,61577fbbc195adfb13f6c45f,626b377229c10585ec392f8a,626b37db13a9fc669217ae45,,,,,,,,,,,,,,,,,,,,,,,l,0,3.2653,"[""0.083"",""0.351"",""0.798"",""0.876""]","[0,1,1,1]",0,34,34,34,1,0,0,,,1,FALSE,,,,,,,,,,,,,,,,,,,,,,,,,,,,,,
,61577fbbc195adfb13f6c45f,001,2022-04-28_19h58.10.650,classification_task,2021.2.3,Win32,59.54153022,61577fbbc195adfb13f6c45f,626b377229c10585ec392f8a,626b37db13a9fc669217ae45,,,,,,,,,,,,,,,,,,,,,,,a,1,3.848,"[""0.215"",""0.590"",""0.798"",""0.876""]","[1,0,1,1]",0,35,35,35,1,0,0,,,1,FALSE,,,,,,,,,,,,,,,,,,,,,,,,,,,,,,
,61577fbbc195adfb13f6c45f,001,2022-04-28_19h58.10.650,classification_task,2021.2.3,Win32,59.54153022,61577fbbc195adfb13f6c45f,626b377229c10585ec392f8a,626b37db13a9fc669217ae45,,,,,,,,,,,,,,,,,,,,,,,a,0,2.2313,"[""0.584"",""0.263"",""0.448"",""0.750""]","[0,1,1,1]",0,36,36,36,1,1,0,,,1,FALSE,,,,,,,,,,,,,,,,,,,,,,,,,,,,,,
,61577fbbc195adfb13f6c45f,001,2022-04-28_19h58.10.650,classification_task,2021.2.3,Win32,59.54153022,61577fbbc195adfb13f6c45f,626b377229c10585ec392f8a,626b37db13a9fc669217ae45,,,,,,,,,,,,,,,,,,,,,,,a,0,4.6943,"[""0.087"",""0.310"",""0.630"",""0.702""]","[0,1,1,1]",0,37,37,37,1,1,1,,,1,FALSE,,,,,,,,,,,,,,,,,,,,,,,,,,,,,,
,61577fbbc195adfb13f6c45f,001,2022-04-28_19h58.10.650,classification_task,2021.2.3,Win32,59.54153022,61577fbbc195adfb13f6c45f,626b377229c10585ec392f8a,626b37db13a9fc669217ae45,,,,,,,,,,,,,,,,,,,,,,,a,1,2.3401,"[""0.172"",""0.403"",""0.083"",""0.969""]","[1,1,0,1]",0,38,38,38,1,0,1,,,1,FALSE,,,,,,,,,,,,,,,,,,,,,,,,,,,,,,
,61577fbbc195adfb13f6c45f,001,2022-04-28_19h58.10.650,classification_task,2021.2.3,Win32,59.54153022,61577fbbc195adfb13f6c45f,626b377229c10585ec392f8a,626b37db13a9fc669217ae45,,,,,,,,,,,,,,,,,,,,,,,l,1,2.0942,"[""0.038"",""0.263"",""0.448"",""0.083""]","[1,1,1,0]",0,39,39,39,1,1,0,,,1,FALSE,,,,,,,,,,,,,,,,,,,,,,,,,,,,,,
,61577fbbc195adfb13f6c45f,001,2022-04-28_19h58.10.650,classification_task,2021.2.3,Win32,59.54153022,61577fbbc195adfb13f6c45f,626b377229c10585ec392f8a,626b37db13a9fc669217ae45,,,,,,,,,,,,,,,,,,,,,,,l,0,2.8805,"[""0.215"",""0.351"",""0.798"",""0.083""]","[1,1,1,0]",0,40,40,40,1,0,0,,,1,FALSE,,,,,,,,,,,,,,,,,,,,,,,,,,,,,,
,61577fbbc195adfb13f6c45f,001,2022-04-28_19h58.10.650,classification_task,2021.2.3,Win32,59.54153022,61577fbbc195adfb13f6c45f,626b377229c10585ec392f8a,626b37db13a9fc669217ae45,,,,,,,,,,,,,,,,,,,,,,,l,0,2.4172,"[""0.590"",""0.403"",""0.925"",""0.969""]","[0,1,1,1]",0,41,41,41,1,0,1,,,1,FALSE,,,,,,,,,,,,,,,,,,,,,,,,,,,,,,
,61577fbbc195adfb13f6c45f,001,2022-04-28_19h58.10.650,classification_task,2021.2.3,Win32,59.54153022,61577fbbc195adfb13f6c45f,626b377229c10585ec392f8a,626b37db13a9fc669217ae45,,,,,,,,,,,,,,,,,,,,,,,a,1,2.5218,"[""0.172"",""0.403"",""0.925"",""0.098""]","[1,1,1,0]",0,42,42,42,1,0,1,,,1,FALSE,,,,,,,,,,,,,,,,,,,,,,,,,,,,,,
,61577fbbc195adfb13f6c45f,001,2022-04-28_19h58.10.650,classification_task,2021.2.3,Win32,59.54153022,61577fbbc195adfb13f6c45f,626b377229c10585ec392f8a,626b37db13a9fc669217ae45,,,,,,,,,,,,,,,,,,,,,,,a,0,5.3179,"[""0.138"",""0.310"",""0.558"",""0.702""]","[1,1,0,1]",0,43,43,43,1,1,1,,,1,FALSE,,,,,,,,,,,,,,,,,,,,,,,,,,,,,,
,61577fbbc195adfb13f6c45f,001,2022-04-28_19h58.10.650,classification_task,2021.2.3,Win32,59.54153022,61577fbbc195adfb13f6c45f,626b377229c10585ec392f8a,626b37db13a9fc669217ae45,,,,,,,,,,,,,,,,,,,,,,,a,0,4.2599,"[""0.138"",""0.310"",""0.630"",""0.558""]","[1,1,1,0]",0,44,44,44,1,1,1,,,1,FALSE,,,,,,,,,,,,,,,,,,,,,,,,,,,,,,
,61577fbbc195adfb13f6c45f,001,2022-04-28_19h58.10.650,classification_task,2021.2.3,Win32,59.54153022,61577fbbc195adfb13f6c45f,626b377229c10585ec392f8a,626b37db13a9fc669217ae45,,,,,,,,,,,,,,,,,,,,,,,l,1,2.6613,"[""0.038"",""0.571"",""0.448"",""0.750""]","[1,0,1,1]",0,45,45,45,1,1,0,,,1,FALSE,,,,,,,,,,,,,,,,,,,,,,,,,,,,,,
,61577fbbc195adfb13f6c45f,001,2022-04-28_19h58.10.650,classification_task,2021.2.3,Win32,59.54153022,61577fbbc195adfb13f6c45f,626b377229c10585ec392f8a,626b37db13a9fc669217ae45,,,,,,,,,,,,,,,,,,,,,,,l,0,3.4247,"[""0.172"",""0.586"",""0.925"",""0.969""]","[1,0,1,1]",0,46,46,46,1,0,1,,,1,FALSE,,,,,,,,,,,,,,,,,,,,,,,,,,,,,,
,61577fbbc195adfb13f6c45f,001,2022-04-28_19h58.10.650,classification_task,2021.2.3,Win32,59.54153022,61577fbbc195adfb13f6c45f,626b377229c10585ec392f8a,626b37db13a9fc669217ae45,,,,,,,,,,,,,,,,,,,,,,,l,1,4.0889,"[""0.038"",""0.263"",""0.526"",""0.750""]","[1,1,0,1]",0,47,47,47,1,1,0,,,1,FALSE,,,,,,,,,,,,,,,,,,,,,,,,,,,,,,
,61577fbbc195adfb13f6c45f,001,2022-04-28_19h58.10.650,classification_task,2021.2.3,Win32,59.54153022,61577fbbc195adfb13f6c45f,626b377229c10585ec392f8a,626b37db13a9fc669217ae45,,,,,,,,,,,,,,,,,,,,,,,a,1,2.6971,"[""0.215"",""0.573"",""0.798"",""0.876""]","[1,0,1,1]",0,48,48,48,1,0,0,,,1,FALSE,,,,,,,,,,,,,,,,,,,,,,,,,,,,,,
,61577fbbc195adfb13f6c45f,001,2022-04-28_19h58.10.650,classification_task,2021.2.3,Win32,59.54153022,61577fbbc195adfb13f6c45f,626b377229c10585ec392f8a,626b37db13a9fc669217ae45,,,,,,,,,,,,,,,,,,,,,,,a,0,2.7755,"[""0.098"",""0.263"",""0.448"",""0.750""]","[0,1,1,1]",0,49,49,49,1,1,0,,,1,FALSE,,,,,,,,,,,,,,,,,,,,,,,,,,,,,,
,61577fbbc195adfb13f6c45f,001,2022-04-28_19h58.10.650,classification_task,2021.2.3,Win32,59.54153022,61577fbbc195adfb13f6c45f,626b377229c10585ec392f8a,626b37db13a9fc669217ae45,,,,,,,,,,,,,,,,,,,,,,,l,1,2.0488,"[""0.138"",""0.310"",""0.630"",""0.098""]","[1,1,1,0]",0,50,50,50,1,1,1,,,1,FALSE,,,,,,,,,,,,,,,,,,,,,,,,,,,,,,
,61577fbbc195adfb13f6c45f,001,2022-04-28_19h58.10.650,classification_task,2021.2.3,Win32,59.54153022,61577fbbc195adfb13f6c45f,626b377229c10585ec392f8a,626b37db13a9fc669217ae45,,,,,,,,,,,,,,,,,,,,,,,l,0,1.6515,"[""0.083"",""0.403"",""0.925"",""0.969""]","[0,1,1,1]",0,51,51,51,1,0,1,,,1,FALSE,,,,,,,,,,,,,,,,,,,,,,,,,,,,,,
,61577fbbc195adfb13f6c45f,001,2022-04-28_19h58.10.650,classification_task,2021.2.3,Win32,59.54153022,61577fbbc195adfb13f6c45f,626b377229c10585ec392f8a,626b37db13a9fc669217ae45,,,,,,,,,,,,,,,,,,,,,,,l,1,2.9556,"[""0.087"",""0.310"",""0.630"",""0.702""]","[0,1,1,1]",0,52,52,52,1,1,1,,,1,FALSE,,,,,,,,,,,,,,,,,,,,,,,,,,,,,,
,61577fbbc195adfb13f6c45f,001,2022-04-28_19h58.10.650,classification_task,2021.2.3,Win32,59.54153022,61577fbbc195adfb13f6c45f,626b377229c10585ec392f8a,626b37db13a9fc669217ae45,,,,,,,,,,,,,,,,,,,,,,,a,0,1.6517,"[""0.138"",""0.571"",""0.630"",""0.702""]","[1,0,1,1]",0,53,53,53,1,1,1,,,1,FALSE,,,,,,,,,,,,,,,,,,,,,,,,,,,,,,
,61577fbbc195adfb13f6c45f,001,2022-04-28_19h58.10.650,classification_task,2021.2.3,Win32,59.54153022,61577fbbc195adfb13f6c45f,626b377229c10585ec392f8a,626b37db13a9fc669217ae45,,,,,,,,,,,,,,,,,,,,,,,l,1,4.063,"[""0.038"",""0.263"",""0.448"",""0.558""]","[1,1,1,0]",0,54,54,54,1,1,0,,,1,FALSE,,,,,,,,,,,,,,,,,,,,,,,,,,,,,,
,61577fbbc195adfb13f6c45f,001,2022-04-28_19h58.10.650,classification_task,2021.2.3,Win32,59.54153022,61577fbbc195adfb13f6c45f,626b377229c10585ec392f8a,626b37db13a9fc669217ae45,,,,,,,,,,,,,,,,,,,,,,,a,1,3.8631,"[""0.215"",""0.351"",""0.798"",""0.087""]","[1,1,1,0]",0,55,55,55,1,0,0,,,1,FALSE,,,,,,,,,,,,,,,,,,,,,,,,,,,,,,
,61577fbbc195adfb13f6c45f,001,2022-04-28_19h58.10.650,classification_task,2021.2.3,Win32,59.54153022,61577fbbc195adfb13f6c45f,626b377229c10585ec392f8a,626b37db13a9fc669217ae45,,,,,,,,,,,,,,,,,,,,,,,l,1,4.9738,"[""0.038"",""0.263"",""0.593"",""0.750""]","[1,1,0,1]",0,56,56,56,1,1,0,,,1,FALSE,,,,,,,,,,,,,,,,,,,,,,,,,,,,,,
,61577fbbc195adfb13f6c45f,001,2022-04-28_19h58.10.650,classification_task,2021.2.3,Win32,59.54153022,61577fbbc195adfb13f6c45f,626b377229c10585ec392f8a,626b37db13a9fc669217ae45,,,,,,,,,,,,,,,,,,,,,,,a,1,4.5374,"[""0.571"",""0.351"",""0.798"",""0.876""]","[0,1,1,1]",0,57,57,57,1,0,0,,,1,FALSE,,,,,,,,,,,,,,,,,,,,,,,,,,,,,,
,61577fbbc195adfb13f6c45f,001,2022-04-28_19h58.10.650,classification_task,2021.2.3,Win32,59.54153022,61577fbbc195adfb13f6c45f,626b377229c10585ec392f8a,626b37db13a9fc669217ae45,,,,,,,,,,,,,,,,,,,,,,,a,1,1.8012,"[""0.215"",""0.351"",""0.590"",""0.876""]","[1,1,0,1]",0,58,58,58,1,0,0,,,1,FALSE,,,,,,,,,,,,,,,,,,,,,,,,,,,,,,
,61577fbbc195adfb13f6c45f,001,2022-04-28_19h58.10.650,classification_task,2021.2.3,Win32,59.54153022,61577fbbc195adfb13f6c45f,626b377229c10585ec392f8a,626b37db13a9fc669217ae45,,,,,,,,,,,,,,,,,,,,,,,l,1,1.8189,"[""0.038"",""0.579"",""0.448"",""0.750""]","[1,0,1,1]",0,59,59,59,1,1,0,,,1,FALSE,,,,,,,,,,,,,,,,,,,,,,,,,,,,,,
,61577fbbc195adfb13f6c45f,001,2022-04-28_19h58.10.650,classification_task,2021.2.3,Win32,59.54153022,61577fbbc195adfb13f6c45f,626b377229c10585ec392f8a,626b37db13a9fc669217ae45,,,,,,,,,,,,,,,,,,,,,,,a,1,1.729,"[""0.172"",""0.403"",""0.925"",""0.590""]","[1,1,1,0]",0,60,60,60,1,0,1,,,1,FALSE,,,,,,,,,,,,,,,,,,,,,,,,,,,,,,
,61577fbbc195adfb13f6c45f,001,2022-04-28_19h58.10.650,classification_task,2021.2.3,Win32,59.54153022,61577fbbc195adfb13f6c45f,626b377229c10585ec392f8a,626b37db13a9fc669217ae45,,,,,,,,,,,,,,,,,,,,,,,a,1,2.1856,"[""0.172"",""0.571"",""0.925"",""0.969""]","[1,0,1,1]",0,61,61,61,1,0,1,,,1,FALSE,,,,,,,,,,,,,,,,,,,,,,,,,,,,,,
,61577fbbc195adfb13f6c45f,001,2022-04-28_19h58.10.650,classification_task,2021.2.3,Win32,59.54153022,61577fbbc195adfb13f6c45f,626b377229c10585ec392f8a,626b37db13a9fc669217ae45,,,,,,,,,,,,,,,,,,,,,,,a,1,2.5617,"[""0.172"",""0.403"",""0.532"",""0.969""]","[1,1,0,1]",0,62,62,62,1,0,1,,,1,FALSE,,,,,,,,,,,,,,,,,,,,,,,,,,,,,,
,61577fbbc195adfb13f6c45f,001,2022-04-28_19h58.10.650,classification_task,2021.2.3,Win32,59.54153022,61577fbbc195adfb13f6c45f,626b377229c10585ec392f8a,626b37db13a9fc669217ae45,,,,,,,,,,,,,,,,,,,,,,,l,1,2.1798,"[""0.138"",""0.310"",""0.579"",""0.702""]","[1,1,0,1]",0,63,63,63,1,1,1,,,1,FALSE,,,,,,,,,,,,,,,,,,,,,,,,,,,,,,
,61577fbbc195adfb13f6c45f,001,2022-04-28_19h58.10.650,classification_task,2021.2.3,Win32,59.54153022,61577fbbc195adfb13f6c45f,626b377229c10585ec392f8a,626b37db13a9fc669217ae45,,,,,,,,,,,,,,,,,,,,,,,,,,,,,,,,,,,,,,,0, ,,0,8.444664903,485.519,0,0,0,0,1,2,1,,,,,,,,,,,,,,,,,
,61577fbbc195adfb13f6c45f,001,2022-04-28_19h58.10.650,classification_task,2021.2.3,Win32,59.54153022,61577fbbc195adfb13f6c45f,626b377229c10585ec392f8a,626b37db13a9fc669217ae45,,,,,,,,,,,,,,,,,,,,,,,,,,,,,,,,,,,,,,,1,  ,,0,9.305831129,491.06,0,0,0,0,1,2,1,,,,,,,,,,,,,,,,,
,61577fbbc195adfb13f6c45f,001,2022-04-28_19h58.10.650,classification_task,2021.2.3,Win32,59.54153022,61577fbbc195adfb13f6c45f,626b377229c10585ec392f8a,626b37db13a9fc669217ae45,,,,,,,,,,,,,,,,,,,,,,,,,,,,,,,,,,,,,,,2,  ,,0,5.413359788,499.2625,0,0,0,0,1,2,1,,,,,,,,,,,,,,,,,
,61577fbbc195adfb13f6c45f,001,2022-04-28_19h58.10.650,classification_task,2021.2.3,Win32,59.54153022,61577fbbc195adfb13f6c45f,626b377229c10585ec392f8a,626b37db13a9fc669217ae45,,,,,,,,,,,,,,,,,,,,,,,,,,,,,,,,,,,,,,,,,,,,,0,0,0,0,1,,1,,,,,,,,,,,,,,,,,
,61577fbbc195adfb13f6c45f,001,2022-04-28_19h58.10.650,classification_task,2021.2.3,Win32,59.54153022,61577fbbc195adfb13f6c45f,626b377229c10585ec392f8a,626b37db13a9fc669217ae45,,,,,,,,,,,,,,,,,,,,,space,8.3391,l,1,3.1353,"[""0.138"",""0.098"",""0.630"",""0.702""]","[1,0,1,1]",0,0,0,0,1,1,1,,,1,FALSE,,,,,,,,,,,,,,,,,,,,,,,,,,,,,,
,61577fbbc195adfb13f6c45f,001,2022-04-28_19h58.10.650,classification_task,2021.2.3,Win32,59.54153022,61577fbbc195adfb13f6c45f,626b377229c10585ec392f8a,626b37db13a9fc669217ae45,,,,,,,,,,,,,,,,,,,,,,,l,1,3.8675,"[""0.038"",""0.263"",""0.448"",""0.573""]","[1,1,1,0]",0,1,1,1,1,1,0,,,1,FALSE,,,,,,,,,,,,,,,,,,,,,,,,,,,,,,
,61577fbbc195adfb13f6c45f,001,2022-04-28_19h58.10.650,classification_task,2021.2.3,Win32,59.54153022,61577fbbc195adfb13f6c45f,626b377229c10585ec392f8a,626b37db13a9fc669217ae45,,,,,,,,,,,,,,,,,,,,,,,l,1,1.3806,"[""0.586"",""0.310"",""0.630"",""0.702""]","[0,1,1,1]",0,2,2,2,1,1,1,,,1,FALSE,,,,,,,,,,,,,,,,,,,,,,,,,,,,,,
,61577fbbc195adfb13f6c45f,001,2022-04-28_19h58.10.650,classification_task,2021.2.3,Win32,59.54153022,61577fbbc195adfb13f6c45f,626b377229c10585ec392f8a,626b37db13a9fc669217ae45,,,,,,,,,,,,,,,,,,,,,,,a,1,1.0616,"[""0.172"",""0.403"",""0.532"",""0.969""]","[1,1,0,1]",0,3,3,3,1,0,1,,,1,FALSE,,,,,,,,,,,,,,,,,,,,,,,,,,,,,,
,61577fbbc195adfb13f6c45f,001,2022-04-28_19h58.10.650,classification_task,2021.2.3,Win32,59.54153022,61577fbbc195adfb13f6c45f,626b377229c10585ec392f8a,626b37db13a9fc669217ae45,,,,,,,,,,,,,,,,,,,,,,,l,1,0.9402,"[""0.138"",""0.310"",""0.584"",""0.702""]","[1,1,0,1]",0,4,4,4,1,1,1,,,1,FALSE,,,,,,,,,,,,,,,,,,,,,,,,,,,,,,
,61577fbbc195adfb13f6c45f,001,2022-04-28_19h58.10.650,classification_task,2021.2.3,Win32,59.54153022,61577fbbc195adfb13f6c45f,626b377229c10585ec392f8a,626b37db13a9fc669217ae45,,,,,,,,,,,,,,,,,,,,,,,a,1,0.8785,"[""0.098"",""0.403"",""0.925"",""0.969""]","[0,1,1,1]",0,5,5,5,1,0,1,,,1,FALSE,,,,,,,,,,,,,,,,,,,,,,,,,,,,,,
,61577fbbc195adfb13f6c45f,001,2022-04-28_19h58.10.650,classification_task,2021.2.3,Win32,59.54153022,61577fbbc195adfb13f6c45f,626b377229c10585ec392f8a,626b37db13a9fc669217ae45,,,,,,,,,,,,,,,,,,,,,,,l,1,2.0517,"[""0.038"",""0.263"",""0.083"",""0.750""]","[1,1,0,1]",0,6,6,6,1,1,0,,,1,FALSE,,,,,,,,,,,,,,,,,,,,,,,,,,,,,,
,61577fbbc195adfb13f6c45f,001,2022-04-28_19h58.10.650,classification_task,2021.2.3,Win32,59.54153022,61577fbbc195adfb13f6c45f,626b377229c10585ec392f8a,626b37db13a9fc669217ae45,,,,,,,,,,,,,,,,,,,,,,,a,1,0.977,"[""0.172"",""0.558"",""0.925"",""0.969""]","[1,0,1,1]",0,7,7,7,1,0,1,,,1,FALSE,,,,,,,,,,,,,,,,,,,,,,,,,,,,,,
,61577fbbc195adfb13f6c45f,001,2022-04-28_19h58.10.650,classification_task,2021.2.3,Win32,59.54153022,61577fbbc195adfb13f6c45f,626b377229c10585ec392f8a,626b37db13a9fc669217ae45,,,,,,,,,,,,,,,,,,,,,,,a,1,1.7309,"[""0.215"",""0.351"",""0.798"",""0.586""]","[1,1,1,0]",0,8,8,8,1,0,0,,,1,FALSE,,,,,,,,,,,,,,,,,,,,,,,,,,,,,,
,61577fbbc195adfb13f6c45f,001,2022-04-28_19h58.10.650,classification_task,2021.2.3,Win32,59.54153022,61577fbbc195adfb13f6c45f,626b377229c10585ec392f8a,626b37db13a9fc669217ae45,,,,,,,,,,,,,,,,,,,,,,,l,1,1.1763,"[""0.038"",""0.584"",""0.448"",""0.750""]","[1,0,1,1]",0,9,9,9,1,1,0,,,1,FALSE,,,,,,,,,,,,,,,,,,,,,,,,,,,,,,
,61577fbbc195adfb13f6c45f,001,2022-04-28_19h58.10.650,classification_task,2021.2.3,Win32,59.54153022,61577fbbc195adfb13f6c45f,626b377229c10585ec392f8a,626b37db13a9fc669217ae45,,,,,,,,,,,,,,,,,,,,,,,l,0,2.5035,"[""0.584"",""0.351"",""0.798"",""0.876""]","[0,1,1,1]",0,10,10,10,1,0,0,,,1,FALSE,,,,,,,,,,,,,,,,,,,,,,,,,,,,,,
,61577fbbc195adfb13f6c45f,001,2022-04-28_19h58.10.650,classification_task,2021.2.3,Win32,59.54153022,61577fbbc195adfb13f6c45f,626b377229c10585ec392f8a,626b37db13a9fc669217ae45,,,,,,,,,,,,,,,,,,,,,,,a,1,1.3018,"[""0.215"",""0.584"",""0.798"",""0.876""]","[1,0,1,1]",0,11,11,11,1,0,0,,,1,FALSE,,,,,,,,,,,,,,,,,,,,,,,,,,,,,,
,61577fbbc195adfb13f6c45f,001,2022-04-28_19h58.10.650,classification_task,2021.2.3,Win32,59.54153022,61577fbbc195adfb13f6c45f,626b377229c10585ec392f8a,626b37db13a9fc669217ae45,,,,,,,,,,,,,,,,,,,,,,,a,0,1.6474,"[""0.098"",""0.263"",""0.448"",""0.750""]","[0,1,1,1]",0,12,12,12,1,1,0,,,1,FALSE,,,,,,,,,,,,,,,,,,,,,,,,,,,,,,
,61577fbbc195adfb13f6c45f,001,2022-04-28_19h58.10.650,classification_task,2021.2.3,Win32,59.54153022,61577fbbc195adfb13f6c45f,626b377229c10585ec392f8a,626b37db13a9fc669217ae45,,,,,,,,,,,,,,,,,,,,,,,a,1,2.8771,"[""0.215"",""0.351"",""0.586"",""0.876""]","[1,1,0,1]",0,13,13,13,1,0,0,,,1,FALSE,,,,,,,,,,,,,,,,,,,,,,,,,,,,,,
,61577fbbc195adfb13f6c45f,001,2022-04-28_19h58.10.650,classification_task,2021.2.3,Win32,59.54153022,61577fbbc195adfb13f6c45f,626b377229c10585ec392f8a,626b37db13a9fc669217ae45,,,,,,,,,,,,,,,,,,,,,,,l,1,1.3865,"[""0.138"",""0.310"",""0.630"",""0.532""]","[1,1,1,0]",0,14,14,14,1,1,1,,,1,FALSE,,,,,,,,,,,,,,,,,,,,,,,,,,,,,,
,61577fbbc195adfb13f6c45f,001,2022-04-28_19h58.10.650,classification_task,2021.2.3,Win32,59.54153022,61577fbbc195adfb13f6c45f,626b377229c10585ec392f8a,626b37db13a9fc669217ae45,,,,,,,,,,,,,,,,,,,,,,,a,1,0.8114,"[""0.172"",""0.403"",""0.925"",""0.593""]","[1,1,1,0]",0,15,15,15,1,0,1,,,1,FALSE,,,,,,,,,,,,,,,,,,,,,,,,,,,,,,
,61577fbbc195adfb13f6c45f,001,2022-04-28_19h58.10.650,classification_task,2021.2.3,Win32,59.54153022,61577fbbc195adfb13f6c45f,626b377229c10585ec392f8a,626b37db13a9fc669217ae45,,,,,,,,,,,,,,,,,,,,,,,l,1,0.9091,"[""0.138"",""0.310"",""0.098"",""0.702""]","[1,1,0,1]",0,16,16,16,1,1,1,,,1,FALSE,,,,,,,,,,,,,,,,,,,,,,,,,,,,,,
,61577fbbc195adfb13f6c45f,001,2022-04-28_19h58.10.650,classification_task,2021.2.3,Win32,59.54153022,61577fbbc195adfb13f6c45f,626b377229c10585ec392f8a,626b37db13a9fc669217ae45,,,,,,,,,,,,,,,,,,,,,,,a,1,0.6457,"[""0.172"",""0.403"",""0.571"",""0.969""]","[1,1,0,1]",0,17,17,17,1,0,1,,,1,FALSE,,,,,,,,,,,,,,,,,,,,,,,,,,,,,,
,61577fbbc195adfb13f6c45f,001,2022-04-28_19h58.10.650,classification_task,2021.2.3,Win32,59.54153022,61577fbbc195adfb13f6c45f,626b377229c10585ec392f8a,626b37db13a9fc669217ae45,,,,,,,,,,,,,,,,,,,,,,,a,1,2.1814,"[""0.215"",""0.087"",""0.798"",""0.876""]","[1,0,1,1]",0,18,18,18,1,0,0,,,1,FALSE,,,,,,,,,,,,,,,,,,,,,,,,,,,,,,
,61577fbbc195adfb13f6c45f,001,2022-04-28_19h58.10.650,classification_task,2021.2.3,Win32,59.54153022,61577fbbc195adfb13f6c45f,626b377229c10585ec392f8a,626b37db13a9fc669217ae45,,,,,,,,,,,,,,,,,,,,,,,l,1,1.0745,"[""0.579"",""0.310"",""0.630"",""0.702""]","[0,1,1,1]",0,19,19,19,1,1,1,,,1,FALSE,,,,,,,,,,,,,,,,,,,,,,,,,,,,,,
,61577fbbc195adfb13f6c45f,001,2022-04-28_19h58.10.650,classification_task,2021.2.3,Win32,59.54153022,61577fbbc195adfb13f6c45f,626b377229c10585ec392f8a,626b37db13a9fc669217ae45,,,,,,,,,,,,,,,,,,,,,,,a,1,1.494,"[""0.215"",""0.351"",""0.798"",""0.571""]","[1,1,1,0]",0,20,20,20,1,0,0,,,1,FALSE,,,,,,,,,,,,,,,,,,,,,,,,,,,,,,
,61577fbbc195adfb13f6c45f,001,2022-04-28_19h58.10.650,classification_task,2021.2.3,Win32,59.54153022,61577fbbc195adfb13f6c45f,626b377229c10585ec392f8a,626b37db13a9fc669217ae45,,,,,,,,,,,,,,,,,,,,,,,l,1,1.08,"[""0.138"",""0.098"",""0.630"",""0.702""]","[1,0,1,1]",0,21,21,21,1,1,1,,,1,FALSE,,,,,,,,,,,,,,,,,,,,,,,,,,,,,,
,61577fbbc195adfb13f6c45f,001,2022-04-28_19h58.10.650,classification_task,2021.2.3,Win32,59.54153022,61577fbbc195adfb13f6c45f,626b377229c10585ec392f8a,626b37db13a9fc669217ae45,,,,,,,,,,,,,,,,,,,,,,,l,1,1.5592,"[""0.038"",""0.558"",""0.448"",""0.750""]","[1,0,1,1]",0,22,22,22,1,1,0,,,1,FALSE,,,,,,,,,,,,,,,,,,,,,,,,,,,,,,
,61577fbbc195adfb13f6c45f,001,2022-04-28_19h58.10.650,classification_task,2021.2.3,Win32,59.54153022,61577fbbc195adfb13f6c45f,626b377229c10585ec392f8a,626b37db13a9fc669217ae45,,,,,,,,,,,,,,,,,,,,,,,a,1,1.0267,"[""0.526"",""0.403"",""0.925"",""0.969""]","[0,1,1,1]",0,23,23,23,1,0,1,,,1,FALSE,,,,,,,,,,,,,,,,,,,,,,,,,,,,,,
,61577fbbc195adfb13f6c45f,001,2022-04-28_19h58.10.650,classification_task,2021.2.3,Win32,59.54153022,61577fbbc195adfb13f6c45f,626b377229c10585ec392f8a,626b37db13a9fc669217ae45,,,,,,,,,,,,,,,,,,,,,,,a,1,2.5517,"[""0.215"",""0.351"",""0.584"",""0.876""]","[1,1,0,1]",0,24,24,24,1,0,0,,,1,FALSE,,,,,,,,,,,,,,,,,,,,,,,,,,,,,,
,61577fbbc195adfb13f6c45f,001,2022-04-28_19h58.10.650,classification_task,2021.2.3,Win32,59.54153022,61577fbbc195adfb13f6c45f,626b377229c10585ec392f8a,626b37db13a9fc669217ae45,,,,,,,,,,,,,,,,,,,,,,,a,1,0.9618,"[""0.172"",""0.098"",""0.925"",""0.969""]","[1,0,1,1]",0,25,25,25,1,0,1,,,1,FALSE,,,,,,,,,,,,,,,,,,,,,,,,,,,,,,
,61577fbbc195adfb13f6c45f,001,2022-04-28_19h58.10.650,classification_task,2021.2.3,Win32,59.54153022,61577fbbc195adfb13f6c45f,626b377229c10585ec392f8a,626b37db13a9fc669217ae45,,,,,,,,,,,,,,,,,,,,,,,l,1,1.1295,"[""0.038"",""0.263"",""0.448"",""0.571""]","[1,1,1,0]",0,26,26,26,1,1,0,,,1,FALSE,,,,,,,,,,,,,,,,,,,,,,,,,,,,,,
,61577fbbc195adfb13f6c45f,001,2022-04-28_19h58.10.650,classification_task,2021.2.3,Win32,59.54153022,61577fbbc195adfb13f6c45f,626b377229c10585ec392f8a,626b37db13a9fc669217ae45,,,,,,,,,,,,,,,,,,,,,,,a,1,0.8444,"[""0.172"",""0.403"",""0.925"",""0.083""]","[1,1,1,0]",0,27,27,27,1,0,1,,,1,FALSE,,,,,,,,,,,,,,,,,,,,,,,,,,,,,,
,61577fbbc195adfb13f6c45f,001,2022-04-28_19h58.10.650,classification_task,2021.2.3,Win32,59.54153022,61577fbbc195adfb13f6c45f,626b377229c10585ec392f8a,626b37db13a9fc669217ae45,,,,,,,,,,,,,,,,,,,,,,,l,1,0.7821,"[""0.138"",""0.310"",""0.630"",""0.558""]","[1,1,1,0]",0,28,28,28,1,1,1,,,1,FALSE,,,,,,,,,,,,,,,,,,,,,,,,,,,,,,
,61577fbbc195adfb13f6c45f,001,2022-04-28_19h58.10.650,classification_task,2021.2.3,Win32,59.54153022,61577fbbc195adfb13f6c45f,626b377229c10585ec392f8a,626b37db13a9fc669217ae45,,,,,,,,,,,,,,,,,,,,,,,l,1,1.3029,"[""0.038"",""0.263"",""0.593"",""0.750""]","[1,1,0,1]",0,29,29,29,1,1,0,,,1,FALSE,,,,,,,,,,,,,,,,,,,,,,,,,,,,,,
,61577fbbc195adfb13f6c45f,001,2022-04-28_19h58.10.650,classification_task,2021.2.3,Win32,59.54153022,61577fbbc195adfb13f6c45f,626b377229c10585ec392f8a,626b37db13a9fc669217ae45,,,,,,,,,,,,,,,,,,,,,,,l,0,2.7807,"[""0.586"",""0.351"",""0.798"",""0.876""]","[0,1,1,1]",0,30,30,30,1,0,0,,,1,FALSE,,,,,,,,,,,,,,,,,,,,,,,,,,,,,,
,61577fbbc195adfb13f6c45f,001,2022-04-28_19h58.10.650,classification_task,2021.2.3,Win32,59.54153022,61577fbbc195adfb13f6c45f,626b377229c10585ec392f8a,626b37db13a9fc669217ae45,,,,,,,,,,,,,,,,,,,,,,,l,1,2.9061,"[""0.558"",""0.263"",""0.448"",""0.750""]","[0,1,1,1]",0,31,31,31,1,1,0,,,1,FALSE,,,,,,,,,,,,,,,,,,,,,,,,,,,,,,
,61577fbbc195adfb13f6c45f,001,2022-04-28_19h58.10.650,classification_task,2021.2.3,Win32,59.54153022,61577fbbc195adfb13f6c45f,626b377229c10585ec392f8a,626b37db13a9fc669217ae45,,,,,,,,,,,,,,,,,,,,,,,l,1,1.8393,"[""0.558"",""0.310"",""0.630"",""0.702""]","[0,1,1,1]",0,32,32,32,1,1,1,,,1,FALSE,,,,,,,,,,,,,,,,,,,,,,,,,,,,,,
,61577fbbc195adfb13f6c45f,001,2022-04-28_19h58.10.650,classification_task,2021.2.3,Win32,59.54153022,61577fbbc195adfb13f6c45f,626b377229c10585ec392f8a,626b37db13a9fc669217ae45,,,,,,,,,,,,,,,,,,,,,,,l,1,1.4801,"[""0.038"",""0.263"",""0.448"",""0.593""]","[1,1,1,0]",0,33,33,33,1,1,0,,,1,FALSE,,,,,,,,,,,,,,,,,,,,,,,,,,,,,,
,61577fbbc195adfb13f6c45f,001,2022-04-28_19h58.10.650,classification_task,2021.2.3,Win32,59.54153022,61577fbbc195adfb13f6c45f,626b377229c10585ec392f8a,626b37db13a9fc669217ae45,,,,,,,,,,,,,,,,,,,,,,,a,1,0.7236,"[""0.172"",""0.098"",""0.925"",""0.969""]","[1,0,1,1]",0,34,34,34,1,0,1,,,1,FALSE,,,,,,,,,,,,,,,,,,,,,,,,,,,,,,
,61577fbbc195adfb13f6c45f,001,2022-04-28_19h58.10.650,classification_task,2021.2.3,Win32,59.54153022,61577fbbc195adfb13f6c45f,626b377229c10585ec392f8a,626b37db13a9fc669217ae45,,,,,,,,,,,,,,,,,,,,,,,l,1,0.78,"[""0.138"",""0.593"",""0.630"",""0.702""]","[1,0,1,1]",0,35,35,35,1,1,1,,,1,FALSE,,,,,,,,,,,,,,,,,,,,,,,,,,,,,,
,61577fbbc195adfb13f6c45f,001,2022-04-28_19h58.10.650,classification_task,2021.2.3,Win32,59.54153022,61577fbbc195adfb13f6c45f,626b377229c10585ec392f8a,626b37db13a9fc669217ae45,,,,,,,,,,,,,,,,,,,,,,,l,1,1.2019,"[""0.038"",""0.526"",""0.448"",""0.750""]","[1,0,1,1]",0,36,36,36,1,1,0,,,1,FALSE,,,,,,,,,,,,,,,,,,,,,,,,,,,,,,
,61577fbbc195adfb13f6c45f,001,2022-04-28_19h58.10.650,classification_task,2021.2.3,Win32,59.54153022,61577fbbc195adfb13f6c45f,626b377229c10585ec392f8a,626b37db13a9fc669217ae45,,,,,,,,,,,,,,,,,,,,,,,a,0,1.2944,"[""0.098"",""0.263"",""0.448"",""0.750""]","[0,1,1,1]",0,37,37,37,1,1,0,,,1,FALSE,,,,,,,,,,,,,,,,,,,,,,,,,,,,,,
,61577fbbc195adfb13f6c45f,001,2022-04-28_19h58.10.650,classification_task,2021.2.3,Win32,59.54153022,61577fbbc195adfb13f6c45f,626b377229c10585ec392f8a,626b37db13a9fc669217ae45,,,,,,,,,,,,,,,,,,,,,,,a,1,1.7943,"[""0.215"",""0.351"",""0.798"",""0.579""]","[1,1,1,0]",0,38,38,38,1,0,0,,,1,FALSE,,,,,,,,,,,,,,,,,,,,,,,,,,,,,,
,61577fbbc195adfb13f6c45f,001,2022-04-28_19h58.10.650,classification_task,2021.2.3,Win32,59.54153022,61577fbbc195adfb13f6c45f,626b377229c10585ec392f8a,626b37db13a9fc669217ae45,,,,,,,,,,,,,,,,,,,,,,,l,1,0.9078,"[""0.138"",""0.310"",""0.098"",""0.702""]","[1,1,0,1]",0,39,39,39,1,1,1,,,1,FALSE,,,,,,,,,,,,,,,,,,,,,,,,,,,,,,
,61577fbbc195adfb13f6c45f,001,2022-04-28_19h58.10.650,classification_task,2021.2.3,Win32,59.54153022,61577fbbc195adfb13f6c45f,626b377229c10585ec392f8a,626b37db13a9fc669217ae45,,,,,,,,,,,,,,,,,,,,,,,l,1,0.9329,"[""0.138"",""0.310"",""0.630"",""0.571""]","[1,1,1,0]",0,40,40,40,1,1,1,,,1,FALSE,,,,,,,,,,,,,,,,,,,,,,,,,,,,,,
,61577fbbc195adfb13f6c45f,001,2022-04-28_19h58.10.650,classification_task,2021.2.3,Win32,59.54153022,61577fbbc195adfb13f6c45f,626b377229c10585ec392f8a,626b37db13a9fc669217ae45,,,,,,,,,,,,,,,,,,,,,,,a,1,2.5234,"[""0.215"",""0.083"",""0.798"",""0.876""]","[1,0,1,1]",0,41,41,41,1,0,0,,,1,FALSE,,,,,,,,,,,,,,,,,,,,,,,,,,,,,,
,61577fbbc195adfb13f6c45f,001,2022-04-28_19h58.10.650,classification_task,2021.2.3,Win32,59.54153022,61577fbbc195adfb13f6c45f,626b377229c10585ec392f8a,626b37db13a9fc669217ae45,,,,,,,,,,,,,,,,,,,,,,,a,1,1.4409,"[""0.532"",""0.403"",""0.925"",""0.969""]","[0,1,1,1]",0,42,42,42,1,0,1,,,1,FALSE,,,,,,,,,,,,,,,,,,,,,,,,,,,,,,
,61577fbbc195adfb13f6c45f,001,2022-04-28_19h58.10.650,classification_task,2021.2.3,Win32,59.54153022,61577fbbc195adfb13f6c45f,626b377229c10585ec392f8a,626b37db13a9fc669217ae45,,,,,,,,,,,,,,,,,,,,,,,a,1,0.7019,"[""0.172"",""0.403"",""0.098"",""0.969""]","[1,1,0,1]",0,43,43,43,1,0,1,,,1,FALSE,,,,,,,,,,,,,,,,,,,,,,,,,,,,,,
,61577fbbc195adfb13f6c45f,001,2022-04-28_19h58.10.650,classification_task,2021.2.3,Win32,59.54153022,61577fbbc195adfb13f6c45f,626b377229c10585ec392f8a,626b37db13a9fc669217ae45,,,,,,,,,,,,,,,,,,,,,,,a,1,0.5805,"[""0.172"",""0.403"",""0.925"",""0.098""]","[1,1,1,0]",0,44,44,44,1,0,1,,,1,FALSE,,,,,,,,,,,,,,,,,,,,,,,,,,,,,,
,61577fbbc195adfb13f6c45f,001,2022-04-28_19h58.10.650,classification_task,2021.2.3,Win32,59.54153022,61577fbbc195adfb13f6c45f,626b377229c10585ec392f8a,626b37db13a9fc669217ae45,,,,,,,,,,,,,,,,,,,,,,,a,1,2.1832,"[""0.579"",""0.351"",""0.798"",""0.876""]","[0,1,1,1]",0,45,45,45,1,0,0,,,1,FALSE,,,,,,,,,,,,,,,,,,,,,,,,,,,,,,
,61577fbbc195adfb13f6c45f,001,2022-04-28_19h58.10.650,classification_task,2021.2.3,Win32,59.54153022,61577fbbc195adfb13f6c45f,626b377229c10585ec392f8a,626b37db13a9fc669217ae45,,,,,,,,,,,,,,,,,,,,,,,a,1,1.1713,"[""0.215"",""0.351"",""0.526"",""0.876""]","[1,1,0,1]",0,46,46,46,1,0,0,,,1,FALSE,,,,,,,,,,,,,,,,,,,,,,,,,,,,,,
,61577fbbc195adfb13f6c45f,001,2022-04-28_19h58.10.650,classification_task,2021.2.3,Win32,59.54153022,61577fbbc195adfb13f6c45f,626b377229c10585ec392f8a,626b37db13a9fc669217ae45,,,,,,,,,,,,,,,,,,,,,,,l,1,0.9459,"[""0.038"",""0.263"",""0.590"",""0.750""]","[1,1,0,1]",0,47,47,47,1,1,0,,,1,FALSE,,,,,,,,,,,,,,,,,,,,,,,,,,,,,,
,61577fbbc195adfb13f6c45f,001,2022-04-28_19h58.10.650,classification_task,2021.2.3,Win32,59.54153022,61577fbbc195adfb13f6c45f,626b377229c10585ec392f8a,626b37db13a9fc669217ae45,,,,,,,,,,,,,,,,,,,,,,,l,1,1.5312,"[""0.571"",""0.310"",""0.630"",""0.702""]","[0,1,1,1]",0,48,48,48,1,1,1,,,1,FALSE,,,,,,,,,,,,,,,,,,,,,,,,,,,,,,
,61577fbbc195adfb13f6c45f,001,2022-04-28_19h58.10.650,classification_task,2021.2.3,Win32,59.54153022,61577fbbc195adfb13f6c45f,626b377229c10585ec392f8a,626b37db13a9fc669217ae45,,,,,,,,,,,,,,,,,,,,,,,l,1,0.9089,"[""0.138"",""0.310"",""0.558"",""0.702""]","[1,1,0,1]",0,49,49,49,1,1,1,,,1,FALSE,,,,,,,,,,,,,,,,,,,,,,,,,,,,,,
,61577fbbc195adfb13f6c45f,001,2022-04-28_19h58.10.650,classification_task,2021.2.3,Win32,59.54153022,61577fbbc195adfb13f6c45f,626b377229c10585ec392f8a,626b37db13a9fc669217ae45,,,,,,,,,,,,,,,,,,,,,,,l,1,3.5359,"[""0.526"",""0.263"",""0.448"",""0.750""]","[0,1,1,1]",0,50,50,50,1,1,0,,,1,FALSE,,,,,,,,,,,,,,,,,,,,,,,,,,,,,,
,61577fbbc195adfb13f6c45f,001,2022-04-28_19h58.10.650,classification_task,2021.2.3,Win32,59.54153022,61577fbbc195adfb13f6c45f,626b377229c10585ec392f8a,626b37db13a9fc669217ae45,,,,,,,,,,,,,,,,,,,,,,,l,1,0.9701,"[""0.138"",""0.579"",""0.630"",""0.702""]","[1,0,1,1]",0,51,51,51,1,1,1,,,1,FALSE,,,,,,,,,,,,,,,,,,,,,,,,,,,,,,
,61577fbbc195adfb13f6c45f,001,2022-04-28_19h58.10.650,classification_task,2021.2.3,Win32,59.54153022,61577fbbc195adfb13f6c45f,626b377229c10585ec392f8a,626b37db13a9fc669217ae45,,,,,,,,,,,,,,,,,,,,,,,a,1,0.7846,"[""0.172"",""0.571"",""0.925"",""0.969""]","[1,0,1,1]",0,52,52,52,1,0,1,,,1,FALSE,,,,,,,,,,,,,,,,,,,,,,,,,,,,,,
,61577fbbc195adfb13f6c45f,001,2022-04-28_19h58.10.650,classification_task,2021.2.3,Win32,59.54153022,61577fbbc195adfb13f6c45f,626b377229c10585ec392f8a,626b37db13a9fc669217ae45,,,,,,,,,,,,,,,,,,,,,,,a,1,0.5911,"[""0.586"",""0.403"",""0.925"",""0.969""]","[0,1,1,1]",0,53,53,53,1,0,1,,,1,FALSE,,,,,,,,,,,,,,,,,,,,,,,,,,,,,,
,61577fbbc195adfb13f6c45f,001,2022-04-28_19h58.10.650,classification_task,2021.2.3,Win32,59.54153022,61577fbbc195adfb13f6c45f,626b377229c10585ec392f8a,626b37db13a9fc669217ae45,,,,,,,,,,,,,,,,,,,,,,,l,1,2.5121,"[""0.038"",""0.571"",""0.448"",""0.750""]","[1,0,1,1]",0,54,54,54,1,1,0,,,1,FALSE,,,,,,,,,,,,,,,,,,,,,,,,,,,,,,
,61577fbbc195adfb13f6c45f,001,2022-04-28_19h58.10.650,classification_task,2021.2.3,Win32,59.54153022,61577fbbc195adfb13f6c45f,626b377229c10585ec392f8a,626b37db13a9fc669217ae45,,,,,,,,,,,,,,,,,,,,,,,l,1,1.0915,"[""0.138"",""0.310"",""0.630"",""0.590""]","[1,1,1,0]",0,55,55,55,1,1,1,,,1,FALSE,,,,,,,,,,,,,,,,,,,,,,,,,,,,,,
,61577fbbc195adfb13f6c45f,001,2022-04-28_19h58.10.650,classification_task,2021.2.3,Win32,59.54153022,61577fbbc195adfb13f6c45f,626b377229c10585ec392f8a,626b37db13a9fc669217ae45,,,,,,,,,,,,,,,,,,,,,,,a,1,0.6043,"[""0.172"",""0.403"",""0.925"",""0.586""]","[1,1,1,0]",0,56,56,56,1,0,1,,,1,FALSE,,,,,,,,,,,,,,,,,,,,,,,,,,,,,,
,61577fbbc195adfb13f6c45f,001,2022-04-28_19h58.10.650,classification_task,2021.2.3,Win32,59.54153022,61577fbbc195adfb13f6c45f,626b377229c10585ec392f8a,626b37db13a9fc669217ae45,,,,,,,,,,,,,,,,,,,,,,,l,1,1.7699,"[""0.038"",""0.263"",""0.448"",""0.593""]","[1,1,1,0]",0,57,57,57,1,1,0,,,1,FALSE,,,,,,,,,,,,,,,,,,,,,,,,,,,,,,
,61577fbbc195adfb13f6c45f,001,2022-04-28_19h58.10.650,classification_task,2021.2.3,Win32,59.54153022,61577fbbc195adfb13f6c45f,626b377229c10585ec392f8a,626b37db13a9fc669217ae45,,,,,,,,,,,,,,,,,,,,,,,a,1,0.8552,"[""0.172"",""0.403"",""0.087"",""0.969""]","[1,1,0,1]",0,58,58,58,1,0,1,,,1,FALSE,,,,,,,,,,,,,,,,,,,,,,,,,,,,,,
,61577fbbc195adfb13f6c45f,001,2022-04-28_19h58.10.650,classification_task,2021.2.3,Win32,59.54153022,61577fbbc195adfb13f6c45f,626b377229c10585ec392f8a,626b37db13a9fc669217ae45,,,,,,,,,,,,,,,,,,,,,,,l,1,2.6522,"[""0.038"",""0.263"",""0.558"",""0.750""]","[1,1,0,1]",0,59,59,59,1,1,0,,,1,FALSE,,,,,,,,,,,,,,,,,,,,,,,,,,,,,,
,61577fbbc195adfb13f6c45f,001,2022-04-28_19h58.10.650,classification_task,2021.2.3,Win32,59.54153022,61577fbbc195adfb13f6c45f,626b377229c10585ec392f8a,626b37db13a9fc669217ae45,,,,,,,,,,,,,,,,,,,,,,,a,1,2.4387,"[""0.215"",""0.351"",""0.098"",""0.876""]","[1,1,0,1]",0,60,60,60,1,0,0,,,1,FALSE,,,,,,,,,,,,,,,,,,,,,,,,,,,,,,
,61577fbbc195adfb13f6c45f,001,2022-04-28_19h58.10.650,classification_task,2021.2.3,Win32,59.54153022,61577fbbc195adfb13f6c45f,626b377229c10585ec392f8a,626b37db13a9fc669217ae45,,,,,,,,,,,,,,,,,,,,,,,a,1,2.855,"[""0.215"",""0.558"",""0.798"",""0.876""]","[1,0,1,1]",0,61,61,61,1,0,0,,,1,FALSE,,,,,,,,,,,,,,,,,,,,,,,,,,,,,,
,61577fbbc195adfb13f6c45f,001,2022-04-28_19h58.10.650,classification_task,2021.2.3,Win32,59.54153022,61577fbbc195adfb13f6c45f,626b377229c10585ec392f8a,626b37db13a9fc669217ae45,,,,,,,,,,,,,,,,,,,,,,,l,0,1.0937,"[""0.593"",""0.351"",""0.798"",""0.876""]","[0,1,1,1]",0,62,62,62,1,0,0,,,1,FALSE,,,,,,,,,,,,,,,,,,,,,,,,,,,,,,
,61577fbbc195adfb13f6c45f,001,2022-04-28_19h58.10.650,classification_task,2021.2.3,Win32,59.54153022,61577fbbc195adfb13f6c45f,626b377229c10585ec392f8a,626b37db13a9fc669217ae45,,,,,,,,,,,,,,,,,,,,,,,a,1,1.8657,"[""0.215"",""0.351"",""0.798"",""0.571""]","[1,1,1,0]",0,63,63,63,1,0,0,,,1,FALSE,,,,,,,,,,,,,,,,,,,,,,,,,,,,,,
,61577fbbc195adfb13f6c45f,001,2022-04-28_19h58.10.650,classification_task,2021.2.3,Win32,59.54153022,61577fbbc195adfb13f6c45f,626b377229c10585ec392f8a,626b37db13a9fc669217ae45,,,,,,,,,,,,,,,,,,,,,,,,,,,,,,,,,,,,,,,0, ,,0,10,181.3945,0,1,1,1,1,2,2,,,,,,,,,,,,,,,,,
,61577fbbc195adfb13f6c45f,001,2022-04-28_19h58.10.650,classification_task,2021.2.3,Win32,59.54153022,61577fbbc195adfb13f6c45f,626b377229c10585ec392f8a,626b37db13a9fc669217ae45,,,,,,,,,,,,,,,,,,,,,,,,,,,,,,,,,,,,,,,1,  ,,0,7.927965168,182.322,0,1,1,1,1,2,2,,,,,,,,,,,,,,,,,
,61577fbbc195adfb13f6c45f,001,2022-04-28_19h58.10.650,classification_task,2021.2.3,Win32,59.54153022,61577fbbc195adfb13f6c45f,626b377229c10585ec392f8a,626b37db13a9fc669217ae45,,,,,,,,,,,,,,,,,,,,,,,,,,,,,,,,,,,,,,,2,  ,,0,4.621086861,186.9301,0,1,1,1,1,2,2,,,,,,,,,,,,,,,,,
,61577fbbc195adfb13f6c45f,001,2022-04-28_19h58.10.650,classification_task,2021.2.3,Win32,59.54153022,61577fbbc195adfb13f6c45f,626b377229c10585ec392f8a,626b37db13a9fc669217ae45,,,,,,,,,,,,,,,,,,,,,,,,,,,,,,,,,,,,,,,,,,,,,0,1,1,1,1,,2,,,,,,,,,,,,,,,,,
,61577fbbc195adfb13f6c45f,001,2022-04-28_19h58.10.650,classification_task,2021.2.3,Win32,59.54153022,61577fbbc195adfb13f6c45f,626b377229c10585ec392f8a,626b37db13a9fc669217ae45,,,,,,,,,,,,,,,,,,,,,space,14.5497,a,0,4.8415,"[""0.138"",""0.584"",""0.630"",""0.702""]","[1,0,1,1]",0,0,0,0,1,1,1,,,1,FALSE,,,,,,,,,,,,,,,,,,,,,,,,,,,,,,
,61577fbbc195adfb13f6c45f,001,2022-04-28_19h58.10.650,classification_task,2021.2.3,Win32,59.54153022,61577fbbc195adfb13f6c45f,626b377229c10585ec392f8a,626b37db13a9fc669217ae45,,,,,,,,,,,,,,,,,,,,,,,l,0,2.206,"[""0.579"",""0.351"",""0.798"",""0.876""]","[0,1,1,1]",0,1,1,1,1,0,0,,,1,FALSE,,,,,,,,,,,,,,,,,,,,,,,,,,,,,,
,61577fbbc195adfb13f6c45f,001,2022-04-28_19h58.10.650,classification_task,2021.2.3,Win32,59.54153022,61577fbbc195adfb13f6c45f,626b377229c10585ec392f8a,626b37db13a9fc669217ae45,,,,,,,,,,,,,,,,,,,,,,,a,1,1.6494,"[""0.215"",""0.098"",""0.798"",""0.876""]","[1,0,1,1]",0,2,2,2,1,0,0,,,1,FALSE,,,,,,,,,,,,,,,,,,,,,,,,,,,,,,
,61577fbbc195adfb13f6c45f,001,2022-04-28_19h58.10.650,classification_task,2021.2.3,Win32,59.54153022,61577fbbc195adfb13f6c45f,626b377229c10585ec392f8a,626b37db13a9fc669217ae45,,,,,,,,,,,,,,,,,,,,,,,l,1,5.168,"[""0.138"",""0.310"",""0.571"",""0.702""]","[1,1,0,1]",0,3,3,3,1,1,1,,,1,FALSE,,,,,,,,,,,,,,,,,,,,,,,,,,,,,,
,61577fbbc195adfb13f6c45f,001,2022-04-28_19h58.10.650,classification_task,2021.2.3,Win32,59.54153022,61577fbbc195adfb13f6c45f,626b377229c10585ec392f8a,626b37db13a9fc669217ae45,,,,,,,,,,,,,,,,,,,,,,,l,1,3.4675,"[""0.590"",""0.263"",""0.448"",""0.750""]","[0,1,1,1]",0,4,4,4,1,1,0,,,1,FALSE,,,,,,,,,,,,,,,,,,,,,,,,,,,,,,
,61577fbbc195adfb13f6c45f,001,2022-04-28_19h58.10.650,classification_task,2021.2.3,Win32,59.54153022,61577fbbc195adfb13f6c45f,626b377229c10585ec392f8a,626b37db13a9fc669217ae45,,,,,,,,,,,,,,,,,,,,,,,a,1,2.2142,"[""0.172"",""0.403"",""0.571"",""0.969""]","[1,1,0,1]",0,5,5,5,1,0,1,,,1,FALSE,,,,,,,,,,,,,,,,,,,,,,,,,,,,,,
,61577fbbc195adfb13f6c45f,001,2022-04-28_19h58.10.650,classification_task,2021.2.3,Win32,59.54153022,61577fbbc195adfb13f6c45f,626b377229c10585ec392f8a,626b37db13a9fc669217ae45,,,,,,,,,,,,,,,,,,,,,,,a,1,2.0313,"[""0.172"",""0.403"",""0.925"",""0.532""]","[1,1,1,0]",0,6,6,6,1,0,1,,,1,FALSE,,,,,,,,,,,,,,,,,,,,,,,,,,,,,,
,61577fbbc195adfb13f6c45f,001,2022-04-28_19h58.10.650,classification_task,2021.2.3,Win32,59.54153022,61577fbbc195adfb13f6c45f,626b377229c10585ec392f8a,626b37db13a9fc669217ae45,,,,,,,,,,,,,,,,,,,,,,,l,1,2.7216,"[""0.571"",""0.310"",""0.630"",""0.702""]","[0,1,1,1]",0,7,7,7,1,1,1,,,1,FALSE,,,,,,,,,,,,,,,,,,,,,,,,,,,,,,
,61577fbbc195adfb13f6c45f,001,2022-04-28_19h58.10.650,classification_task,2021.2.3,Win32,59.54153022,61577fbbc195adfb13f6c45f,626b377229c10585ec392f8a,626b37db13a9fc669217ae45,,,,,,,,,,,,,,,,,,,,,,,l,1,2.9185,"[""0.038"",""0.087"",""0.448"",""0.750""]","[1,0,1,1]",0,8,8,8,1,1,0,,,1,FALSE,,,,,,,,,,,,,,,,,,,,,,,,,,,,,,
,61577fbbc195adfb13f6c45f,001,2022-04-28_19h58.10.650,classification_task,2021.2.3,Win32,59.54153022,61577fbbc195adfb13f6c45f,626b377229c10585ec392f8a,626b37db13a9fc669217ae45,,,,,,,,,,,,,,,,,,,,,,,a,1,3.1866,"[""0.215"",""0.351"",""0.087"",""0.876""]","[1,1,0,1]",0,9,9,9,1,0,0,,,1,FALSE,,,,,,,,,,,,,,,,,,,,,,,,,,,,,,
,61577fbbc195adfb13f6c45f,001,2022-04-28_19h58.10.650,classification_task,2021.2.3,Win32,59.54153022,61577fbbc195adfb13f6c45f,626b377229c10585ec392f8a,626b37db13a9fc669217ae45,,,,,,,,,,,,,,,,,,,,,,,a,1,1.8022,"[""0.215"",""0.351"",""0.798"",""0.098""]","[1,1,1,0]",0,10,10,10,1,0,0,,,1,FALSE,,,,,,,,,,,,,,,,,,,,,,,,,,,,,,
,61577fbbc195adfb13f6c45f,001,2022-04-28_19h58.10.650,classification_task,2021.2.3,Win32,59.54153022,61577fbbc195adfb13f6c45f,626b377229c10585ec392f8a,626b37db13a9fc669217ae45,,,,,,,,,,,,,,,,,,,,,,,l,1,1.2199,"[""0.038"",""0.263"",""0.448"",""0.087""]","[1,1,1,0]",0,11,11,11,1,1,0,,,1,FALSE,,,,,,,,,,,,,,,,,,,,,,,,,,,,,,
,61577fbbc195adfb13f6c45f,001,2022-04-28_19h58.10.650,classification_task,2021.2.3,Win32,59.54153022,61577fbbc195adfb13f6c45f,626b377229c10585ec392f8a,626b37db13a9fc669217ae45,,,,,,,,,,,,,,,,,,,,,,,a,1,3.4518,"[""0.172"",""0.532"",""0.925"",""0.969""]","[1,0,1,1]",0,12,12,12,1,0,1,,,1,FALSE,,,,,,,,,,,,,,,,,,,,,,,,,,,,,,
,61577fbbc195adfb13f6c45f,001,2022-04-28_19h58.10.650,classification_task,2021.2.3,Win32,59.54153022,61577fbbc195adfb13f6c45f,626b377229c10585ec392f8a,626b37db13a9fc669217ae45,,,,,,,,,,,,,,,,,,,,,,,l,1,1.4698,"[""0.038"",""0.263"",""0.083"",""0.750""]","[1,1,0,1]",0,13,13,13,1,1,0,,,1,FALSE,,,,,,,,,,,,,,,,,,,,,,,,,,,,,,
,61577fbbc195adfb13f6c45f,001,2022-04-28_19h58.10.650,classification_task,2021.2.3,Win32,59.54153022,61577fbbc195adfb13f6c45f,626b377229c10585ec392f8a,626b37db13a9fc669217ae45,,,,,,,,,,,,,,,,,,,,,,,a,0,3.2463,"[""0.138"",""0.310"",""0.630"",""0.571""]","[1,1,1,0]",0,14,14,14,1,1,1,,,1,FALSE,,,,,,,,,,,,,,,,,,,,,,,,,,,,,,
,61577fbbc195adfb13f6c45f,001,2022-04-28_19h58.10.650,classification_task,2021.2.3,Win32,59.54153022,61577fbbc195adfb13f6c45f,626b377229c10585ec392f8a,626b37db13a9fc669217ae45,,,,,,,,,,,,,,,,,,,,,,,l,0,2.7194,"[""0.571"",""0.403"",""0.925"",""0.969""]","[0,1,1,1]",0,15,15,15,1,0,1,,,1,FALSE,,,,,,,,,,,,,,,,,,,,,,,,,,,,,,
,61577fbbc195adfb13f6c45f,001,2022-04-28_19h58.10.650,classification_task,2021.2.3,Win32,59.54153022,61577fbbc195adfb13f6c45f,626b377229c10585ec392f8a,626b37db13a9fc669217ae45,,,,,,,,,,,,,,,,,,,,,,,a,1,1.4801,"[""0.215"",""0.351"",""0.573"",""0.876""]","[1,1,0,1]",0,16,16,16,1,0,0,,,1,FALSE,,,,,,,,,,,,,,,,,,,,,,,,,,,,,,
,61577fbbc195adfb13f6c45f,001,2022-04-28_19h58.10.650,classification_task,2021.2.3,Win32,59.54153022,61577fbbc195adfb13f6c45f,626b377229c10585ec392f8a,626b37db13a9fc669217ae45,,,,,,,,,,,,,,,,,,,,,,,l,1,3.0251,"[""0.098"",""0.263"",""0.448"",""0.750""]","[0,1,1,1]",0,17,17,17,1,1,0,,,1,FALSE,,,,,,,,,,,,,,,,,,,,,,,,,,,,,,
,61577fbbc195adfb13f6c45f,001,2022-04-28_19h58.10.650,classification_task,2021.2.3,Win32,59.54153022,61577fbbc195adfb13f6c45f,626b377229c10585ec392f8a,626b37db13a9fc669217ae45,,,,,,,,,,,,,,,,,,,,,,,l,1,3.575,"[""0.138"",""0.310"",""0.630"",""0.558""]","[1,1,1,0]",0,18,18,18,1,1,1,,,1,FALSE,,,,,,,,,,,,,,,,,,,,,,,,,,,,,,
,61577fbbc195adfb13f6c45f,001,2022-04-28_19h58.10.650,classification_task,2021.2.3,Win32,59.54153022,61577fbbc195adfb13f6c45f,626b377229c10585ec392f8a,626b37db13a9fc669217ae45,,,,,,,,,,,,,,,,,,,,,,,a,1,2.0263,"[""0.215"",""0.351"",""0.798"",""0.526""]","[1,1,1,0]",0,19,19,19,1,0,0,,,1,FALSE,,,,,,,,,,,,,,,,,,,,,,,,,,,,,,
,61577fbbc195adfb13f6c45f,001,2022-04-28_19h58.10.650,classification_task,2021.2.3,Win32,59.54153022,61577fbbc195adfb13f6c45f,626b377229c10585ec392f8a,626b37db13a9fc669217ae45,,,,,,,,,,,,,,,,,,,,,,,a,1,3.3028,"[""0.172"",""0.403"",""0.593"",""0.969""]","[1,1,0,1]",0,20,20,20,1,0,1,,,1,FALSE,,,,,,,,,,,,,,,,,,,,,,,,,,,,,,
,61577fbbc195adfb13f6c45f,001,2022-04-28_19h58.10.650,classification_task,2021.2.3,Win32,59.54153022,61577fbbc195adfb13f6c45f,626b377229c10585ec392f8a,626b37db13a9fc669217ae45,,,,,,,,,,,,,,,,,,,,,,,a,1,2.3746,"[""0.172"",""0.403"",""0.925"",""0.593""]","[1,1,1,0]",0,21,21,21,1,0,1,,,1,FALSE,,,,,,,,,,,,,,,,,,,,,,,,,,,,,,
,61577fbbc195adfb13f6c45f,001,2022-04-28_19h58.10.650,classification_task,2021.2.3,Win32,59.54153022,61577fbbc195adfb13f6c45f,626b377229c10585ec392f8a,626b37db13a9fc669217ae45,,,,,,,,,,,,,,,,,,,,,,,l,1,1.8101,"[""0.138"",""0.526"",""0.630"",""0.702""]","[1,0,1,1]",0,22,22,22,1,1,1,,,1,FALSE,,,,,,,,,,,,,,,,,,,,,,,,,,,,,,
,61577fbbc195adfb13f6c45f,001,2022-04-28_19h58.10.650,classification_task,2021.2.3,Win32,59.54153022,61577fbbc195adfb13f6c45f,626b377229c10585ec392f8a,626b37db13a9fc669217ae45,,,,,,,,,,,,,,,,,,,,,,,l,0,3.6904,"[""0.558"",""0.351"",""0.798"",""0.876""]","[0,1,1,1]",0,23,23,23,1,0,0,,,1,FALSE,,,,,,,,,,,,,,,,,,,,,,,,,,,,,,
,61577fbbc195adfb13f6c45f,001,2022-04-28_19h58.10.650,classification_task,2021.2.3,Win32,59.54153022,61577fbbc195adfb13f6c45f,626b377229c10585ec392f8a,626b37db13a9fc669217ae45,,,,,,,,,,,,,,,,,,,,,,,a,1,1.5574,"[""0.172"",""0.571"",""0.925"",""0.969""]","[1,0,1,1]",0,24,24,24,1,0,1,,,1,FALSE,,,,,,,,,,,,,,,,,,,,,,,,,,,,,,
,61577fbbc195adfb13f6c45f,001,2022-04-28_19h58.10.650,classification_task,2021.2.3,Win32,59.54153022,61577fbbc195adfb13f6c45f,626b377229c10585ec392f8a,626b37db13a9fc669217ae45,,,,,,,,,,,,,,,,,,,,,,,l,1,1.4822,"[""0.571"",""0.310"",""0.630"",""0.702""]","[0,1,1,1]",0,25,25,25,1,1,1,,,1,FALSE,,,,,,,,,,,,,,,,,,,,,,,,,,,,,,
,61577fbbc195adfb13f6c45f,001,2022-04-28_19h58.10.650,classification_task,2021.2.3,Win32,59.54153022,61577fbbc195adfb13f6c45f,626b377229c10585ec392f8a,626b37db13a9fc669217ae45,,,,,,,,,,,,,,,,,,,,,,,a,1,1.5299,"[""0.215"",""0.526"",""0.798"",""0.876""]","[1,0,1,1]",0,26,26,26,1,0,0,,,1,FALSE,,,,,,,,,,,,,,,,,,,,,,,,,,,,,,
,61577fbbc195adfb13f6c45f,001,2022-04-28_19h58.10.650,classification_task,2021.2.3,Win32,59.54153022,61577fbbc195adfb13f6c45f,626b377229c10585ec392f8a,626b37db13a9fc669217ae45,,,,,,,,,,,,,,,,,,,,,,,l,0,1.7132,"[""0.573"",""0.403"",""0.925"",""0.969""]","[0,1,1,1]",0,27,27,27,1,0,1,,,1,FALSE,,,,,,,,,,,,,,,,,,,,,,,,,,,,,,
,61577fbbc195adfb13f6c45f,001,2022-04-28_19h58.10.650,classification_task,2021.2.3,Win32,59.54153022,61577fbbc195adfb13f6c45f,626b377229c10585ec392f8a,626b37db13a9fc669217ae45,,,,,,,,,,,,,,,,,,,,,,,l,1,1.4629,"[""0.038"",""0.263"",""0.448"",""0.087""]","[1,1,1,0]",0,28,28,28,1,1,0,,,1,FALSE,,,,,,,,,,,,,,,,,,,,,,,,,,,,,,
,61577fbbc195adfb13f6c45f,001,2022-04-28_19h58.10.650,classification_task,2021.2.3,Win32,59.54153022,61577fbbc195adfb13f6c45f,626b377229c10585ec392f8a,626b37db13a9fc669217ae45,,,,,,,,,,,,,,,,,,,,,,,l,1,1.5977,"[""0.038"",""0.263"",""0.573"",""0.750""]","[1,1,0,1]",0,29,29,29,1,1,0,,,1,FALSE,,,,,,,,,,,,,,,,,,,,,,,,,,,,,,
,61577fbbc195adfb13f6c45f,001,2022-04-28_19h58.10.650,classification_task,2021.2.3,Win32,59.54153022,61577fbbc195adfb13f6c45f,626b377229c10585ec392f8a,626b37db13a9fc669217ae45,,,,,,,,,,,,,,,,,,,,,,,a,0,2.9555,"[""0.138"",""0.310"",""0.532"",""0.702""]","[1,1,0,1]",0,30,30,30,1,1,1,,,1,FALSE,,,,,,,,,,,,,,,,,,,,,,,,,,,,,,
,61577fbbc195adfb13f6c45f,001,2022-04-28_19h58.10.650,classification_task,2021.2.3,Win32,59.54153022,61577fbbc195adfb13f6c45f,626b377229c10585ec392f8a,626b37db13a9fc669217ae45,,,,,,,,,,,,,,,,,,,,,,,l,1,2.0717,"[""0.038"",""0.098"",""0.448"",""0.750""]","[1,0,1,1]",0,31,31,31,1,1,0,,,1,FALSE,,,,,,,,,,,,,,,,,,,,,,,,,,,,,,
,61577fbbc195adfb13f6c45f,001,2022-04-28_19h58.10.650,classification_task,2021.2.3,Win32,59.54153022,61577fbbc195adfb13f6c45f,626b377229c10585ec392f8a,626b37db13a9fc669217ae45,,,,,,,,,,,,,,,,,,,,,,,a,1,1.6276,"[""0.215"",""0.351"",""0.526"",""0.876""]","[1,1,0,1]",0,32,32,32,1,0,0,,,1,FALSE,,,,,,,,,,,,,,,,,,,,,,,,,,,,,,
,61577fbbc195adfb13f6c45f,001,2022-04-28_19h58.10.650,classification_task,2021.2.3,Win32,59.54153022,61577fbbc195adfb13f6c45f,626b377229c10585ec392f8a,626b37db13a9fc669217ae45,,,,,,,,,,,,,,,,,,,,,,,a,0,3.0939,"[""0.083"",""0.310"",""0.630"",""0.702""]","[0,1,1,1]",0,33,33,33,1,1,1,,,1,FALSE,,,,,,,,,,,,,,,,,,,,,,,,,,,,,,
,61577fbbc195adfb13f6c45f,001,2022-04-28_19h58.10.650,classification_task,2021.2.3,Win32,59.54153022,61577fbbc195adfb13f6c45f,626b377229c10585ec392f8a,626b37db13a9fc669217ae45,,,,,,,,,,,,,,,,,,,,,,,l,1,1.1434,"[""0.038"",""0.593"",""0.448"",""0.750""]","[1,0,1,1]",0,34,34,34,1,1,0,,,1,FALSE,,,,,,,,,,,,,,,,,,,,,,,,,,,,,,
,61577fbbc195adfb13f6c45f,001,2022-04-28_19h58.10.650,classification_task,2021.2.3,Win32,59.54153022,61577fbbc195adfb13f6c45f,626b377229c10585ec392f8a,626b37db13a9fc669217ae45,,,,,,,,,,,,,,,,,,,,,,,l,1,0.8467,"[""0.038"",""0.263"",""0.083"",""0.750""]","[1,1,0,1]",0,35,35,35,1,1,0,,,1,FALSE,,,,,,,,,,,,,,,,,,,,,,,,,,,,,,
,61577fbbc195adfb13f6c45f,001,2022-04-28_19h58.10.650,classification_task,2021.2.3,Win32,59.54153022,61577fbbc195adfb13f6c45f,626b377229c10585ec392f8a,626b37db13a9fc669217ae45,,,,,,,,,,,,,,,,,,,,,,,a,1,3.4731,"[""0.172"",""0.403"",""0.925"",""0.573""]","[1,1,1,0]",0,36,36,36,1,0,1,,,1,FALSE,,,,,,,,,,,,,,,,,,,,,,,,,,,,,,
,61577fbbc195adfb13f6c45f,001,2022-04-28_19h58.10.650,classification_task,2021.2.3,Win32,59.54153022,61577fbbc195adfb13f6c45f,626b377229c10585ec392f8a,626b37db13a9fc669217ae45,,,,,,,,,,,,,,,,,,,,,,,l,0,1.3112,"[""0.584"",""0.351"",""0.798"",""0.876""]","[0,1,1,1]",0,37,37,37,1,0,0,,,1,FALSE,,,,,,,,,,,,,,,,,,,,,,,,,,,,,,
,61577fbbc195adfb13f6c45f,001,2022-04-28_19h58.10.650,classification_task,2021.2.3,Win32,59.54153022,61577fbbc195adfb13f6c45f,626b377229c10585ec392f8a,626b37db13a9fc669217ae45,,,,,,,,,,,,,,,,,,,,,,,a,1,1.7264,"[""0.172"",""0.558"",""0.925"",""0.969""]","[1,0,1,1]",0,38,38,38,1,0,1,,,1,FALSE,,,,,,,,,,,,,,,,,,,,,,,,,,,,,,
,61577fbbc195adfb13f6c45f,001,2022-04-28_19h58.10.650,classification_task,2021.2.3,Win32,59.54153022,61577fbbc195adfb13f6c45f,626b377229c10585ec392f8a,626b37db13a9fc669217ae45,,,,,,,,,,,,,,,,,,,,,,,l,1,0.9654,"[""0.038"",""0.263"",""0.448"",""0.083""]","[1,1,1,0]",0,39,39,39,1,1,0,,,1,FALSE,,,,,,,,,,,,,,,,,,,,,,,,,,,,,,
,61577fbbc195adfb13f6c45f,001,2022-04-28_19h58.10.650,classification_task,2021.2.3,Win32,59.54153022,61577fbbc195adfb13f6c45f,626b377229c10585ec392f8a,626b37db13a9fc669217ae45,,,,,,,,,,,,,,,,,,,,,,,l,1,4.4053,"[""0.138"",""0.310"",""0.630"",""0.098""]","[1,1,1,0]",0,40,40,40,1,1,1,,,1,FALSE,,,,,,,,,,,,,,,,,,,,,,,,,,,,,,
,61577fbbc195adfb13f6c45f,001,2022-04-28_19h58.10.650,classification_task,2021.2.3,Win32,59.54153022,61577fbbc195adfb13f6c45f,626b377229c10585ec392f8a,626b37db13a9fc669217ae45,,,,,,,,,,,,,,,,,,,,,,,l,1,4.439,"[""0.590"",""0.263"",""0.448"",""0.750""]","[0,1,1,1]",0,41,41,41,1,1,0,,,1,FALSE,,,,,,,,,,,,,,,,,,,,,,,,,,,,,,
,61577fbbc195adfb13f6c45f,001,2022-04-28_19h58.10.650,classification_task,2021.2.3,Win32,59.54153022,61577fbbc195adfb13f6c45f,626b377229c10585ec392f8a,626b37db13a9fc669217ae45,,,,,,,,,,,,,,,,,,,,,,,l,0,3.5613,"[""0.087"",""0.403"",""0.925"",""0.969""]","[0,1,1,1]",0,42,42,42,1,0,1,,,1,FALSE,,,,,,,,,,,,,,,,,,,,,,,,,,,,,,
,61577fbbc195adfb13f6c45f,001,2022-04-28_19h58.10.650,classification_task,2021.2.3,Win32,59.54153022,61577fbbc195adfb13f6c45f,626b377229c10585ec392f8a,626b37db13a9fc669217ae45,,,,,,,,,,,,,,,,,,,,,,,a,1,1.255,"[""0.215"",""0.526"",""0.798"",""0.876""]","[1,0,1,1]",0,43,43,43,1,0,0,,,1,FALSE,,,,,,,,,,,,,,,,,,,,,,,,,,,,,,
,61577fbbc195adfb13f6c45f,001,2022-04-28_19h58.10.650,classification_task,2021.2.3,Win32,59.54153022,61577fbbc195adfb13f6c45f,626b377229c10585ec392f8a,626b37db13a9fc669217ae45,,,,,,,,,,,,,,,,,,,,,,,l,0,2.2394,"[""0.172"",""0.403"",""0.087"",""0.969""]","[1,1,0,1]",0,44,44,44,1,0,1,,,1,FALSE,,,,,,,,,,,,,,,,,,,,,,,,,,,,,,
,61577fbbc195adfb13f6c45f,001,2022-04-28_19h58.10.650,classification_task,2021.2.3,Win32,59.54153022,61577fbbc195adfb13f6c45f,626b377229c10585ec392f8a,626b37db13a9fc669217ae45,,,,,,,,,,,,,,,,,,,,,,,l,1,3.4047,"[""0.138"",""0.558"",""0.630"",""0.702""]","[1,0,1,1]",0,45,45,45,1,1,1,,,1,FALSE,,,,,,,,,,,,,,,,,,,,,,,,,,,,,,
,61577fbbc195adfb13f6c45f,001,2022-04-28_19h58.10.650,classification_task,2021.2.3,Win32,59.54153022,61577fbbc195adfb13f6c45f,626b377229c10585ec392f8a,626b37db13a9fc669217ae45,,,,,,,,,,,,,,,,,,,,,,,a,0,1.7388,"[""0.138"",""0.310"",""0.579"",""0.702""]","[1,1,0,1]",0,46,46,46,1,1,1,,,1,FALSE,,,,,,,,,,,,,,,,,,,,,,,,,,,,,,
,61577fbbc195adfb13f6c45f,001,2022-04-28_19h58.10.650,classification_task,2021.2.3,Win32,59.54153022,61577fbbc195adfb13f6c45f,626b377229c10585ec392f8a,626b37db13a9fc669217ae45,,,,,,,,,,,,,,,,,,,,,,,a,1,1.2748,"[""0.215"",""0.351"",""0.798"",""0.558""]","[1,1,1,0]",0,47,47,47,1,0,0,,,1,FALSE,,,,,,,,,,,,,,,,,,,,,,,,,,,,,,
,61577fbbc195adfb13f6c45f,001,2022-04-28_19h58.10.650,classification_task,2021.2.3,Win32,59.54153022,61577fbbc195adfb13f6c45f,626b377229c10585ec392f8a,626b37db13a9fc669217ae45,,,,,,,,,,,,,,,,,,,,,,,a,1,1.2786,"[""0.172"",""0.403"",""0.925"",""0.584""]","[1,1,1,0]",0,48,48,48,1,0,1,,,1,FALSE,,,,,,,,,,,,,,,,,,,,,,,,,,,,,,
,61577fbbc195adfb13f6c45f,001,2022-04-28_19h58.10.650,classification_task,2021.2.3,Win32,59.54153022,61577fbbc195adfb13f6c45f,626b377229c10585ec392f8a,626b37db13a9fc669217ae45,,,,,,,,,,,,,,,,,,,,,,,a,1,1.5279,"[""0.172"",""0.403"",""0.590"",""0.969""]","[1,1,0,1]",0,49,49,49,1,0,1,,,1,FALSE,,,,,,,,,,,,,,,,,,,,,,,,,,,,,,
,61577fbbc195adfb13f6c45f,001,2022-04-28_19h58.10.650,classification_task,2021.2.3,Win32,59.54153022,61577fbbc195adfb13f6c45f,626b377229c10585ec392f8a,626b37db13a9fc669217ae45,,,,,,,,,,,,,,,,,,,,,,,l,1,1.5612,"[""0.579"",""0.310"",""0.630"",""0.702""]","[0,1,1,1]",0,50,50,50,1,1,1,,,1,FALSE,,,,,,,,,,,,,,,,,,,,,,,,,,,,,,
,61577fbbc195adfb13f6c45f,001,2022-04-28_19h58.10.650,classification_task,2021.2.3,Win32,59.54153022,61577fbbc195adfb13f6c45f,626b377229c10585ec392f8a,626b37db13a9fc669217ae45,,,,,,,,,,,,,,,,,,,,,,,l,1,1.2516,"[""0.038"",""0.263"",""0.590"",""0.750""]","[1,1,0,1]",0,51,51,51,1,1,0,,,1,FALSE,,,,,,,,,,,,,,,,,,,,,,,,,,,,,,
,61577fbbc195adfb13f6c45f,001,2022-04-28_19h58.10.650,classification_task,2021.2.3,Win32,59.54153022,61577fbbc195adfb13f6c45f,626b377229c10585ec392f8a,626b37db13a9fc669217ae45,,,,,,,,,,,,,,,,,,,,,,,l,0,5.5152,"[""0.584"",""0.351"",""0.798"",""0.876""]","[0,1,1,1]",0,52,52,52,1,0,0,,,1,FALSE,,,,,,,,,,,,,,,,,,,,,,,,,,,,,,
,61577fbbc195adfb13f6c45f,001,2022-04-28_19h58.10.650,classification_task,2021.2.3,Win32,59.54153022,61577fbbc195adfb13f6c45f,626b377229c10585ec392f8a,626b37db13a9fc669217ae45,,,,,,,,,,,,,,,,,,,,,,,l,1,1.0412,"[""0.038"",""0.263"",""0.448"",""0.083""]","[1,1,1,0]",0,53,53,53,1,1,0,,,1,FALSE,,,,,,,,,,,,,,,,,,,,,,,,,,,,,,
,61577fbbc195adfb13f6c45f,001,2022-04-28_19h58.10.650,classification_task,2021.2.3,Win32,59.54153022,61577fbbc195adfb13f6c45f,626b377229c10585ec392f8a,626b37db13a9fc669217ae45,,,,,,,,,,,,,,,,,,,,,,,a,1,1.6826,"[""0.215"",""0.083"",""0.798"",""0.876""]","[1,0,1,1]",0,54,54,54,1,0,0,,,1,FALSE,,,,,,,,,,,,,,,,,,,,,,,,,,,,,,
,61577fbbc195adfb13f6c45f,001,2022-04-28_19h58.10.650,classification_task,2021.2.3,Win32,59.54153022,61577fbbc195adfb13f6c45f,626b377229c10585ec392f8a,626b37db13a9fc669217ae45,,,,,,,,,,,,,,,,,,,,,,,a,1,3.4278,"[""0.172"",""0.098"",""0.925"",""0.969""]","[1,0,1,1]",0,55,55,55,1,0,1,,,1,FALSE,,,,,,,,,,,,,,,,,,,,,,,,,,,,,,
,61577fbbc195adfb13f6c45f,001,2022-04-28_19h58.10.650,classification_task,2021.2.3,Win32,59.54153022,61577fbbc195adfb13f6c45f,626b377229c10585ec392f8a,626b37db13a9fc669217ae45,,,,,,,,,,,,,,,,,,,,,,,a,1,1.286,"[""0.215"",""0.351"",""0.798"",""0.558""]","[1,1,1,0]",0,56,56,56,1,0,0,,,1,FALSE,,,,,,,,,,,,,,,,,,,,,,,,,,,,,,
,61577fbbc195adfb13f6c45f,001,2022-04-28_19h58.10.650,classification_task,2021.2.3,Win32,59.54153022,61577fbbc195adfb13f6c45f,626b377229c10585ec392f8a,626b37db13a9fc669217ae45,,,,,,,,,,,,,,,,,,,,,,,l,1,1.0165,"[""0.038"",""0.098"",""0.448"",""0.750""]","[1,0,1,1]",0,57,57,57,1,1,0,,,1,FALSE,,,,,,,,,,,,,,,,,,,,,,,,,,,,,,
,61577fbbc195adfb13f6c45f,001,2022-04-28_19h58.10.650,classification_task,2021.2.3,Win32,59.54153022,61577fbbc195adfb13f6c45f,626b377229c10585ec392f8a,626b37db13a9fc669217ae45,,,,,,,,,,,,,,,,,,,,,,,l,1,2.0132,"[""0.138"",""0.593"",""0.630"",""0.702""]","[1,0,1,1]",0,58,58,58,1,1,1,,,1,FALSE,,,,,,,,,,,,,,,,,,,,,,,,,,,,,,
,61577fbbc195adfb13f6c45f,001,2022-04-28_19h58.10.650,classification_task,2021.2.3,Win32,59.54153022,61577fbbc195adfb13f6c45f,626b377229c10585ec392f8a,626b37db13a9fc669217ae45,,,,,,,,,,,,,,,,,,,,,,,l,0,3.7153,"[""0.558"",""0.403"",""0.925"",""0.969""]","[0,1,1,1]",0,59,59,59,1,0,1,,,1,FALSE,,,,,,,,,,,,,,,,,,,,,,,,,,,,,,
,61577fbbc195adfb13f6c45f,001,2022-04-28_19h58.10.650,classification_task,2021.2.3,Win32,59.54153022,61577fbbc195adfb13f6c45f,626b377229c10585ec392f8a,626b37db13a9fc669217ae45,,,,,,,,,,,,,,,,,,,,,,,l,1,3.4679,"[""0.571"",""0.263"",""0.448"",""0.750""]","[0,1,1,1]",0,60,60,60,1,1,0,,,1,FALSE,,,,,,,,,,,,,,,,,,,,,,,,,,,,,,
,61577fbbc195adfb13f6c45f,001,2022-04-28_19h58.10.650,classification_task,2021.2.3,Win32,59.54153022,61577fbbc195adfb13f6c45f,626b377229c10585ec392f8a,626b37db13a9fc669217ae45,,,,,,,,,,,,,,,,,,,,,,,a,0,1.9697,"[""0.138"",""0.310"",""0.532"",""0.702""]","[1,1,0,1]",0,61,61,61,1,1,1,,,1,FALSE,,,,,,,,,,,,,,,,,,,,,,,,,,,,,,
,61577fbbc195adfb13f6c45f,001,2022-04-28_19h58.10.650,classification_task,2021.2.3,Win32,59.54153022,61577fbbc195adfb13f6c45f,626b377229c10585ec392f8a,626b37db13a9fc669217ae45,,,,,,,,,,,,,,,,,,,,,,,a,0,1.9287,"[""0.138"",""0.310"",""0.630"",""0.590""]","[1,1,1,0]",0,62,62,62,1,1,1,,,1,FALSE,,,,,,,,,,,,,,,,,,,,,,,,,,,,,,
,61577fbbc195adfb13f6c45f,001,2022-04-28_19h58.10.650,classification_task,2021.2.3,Win32,59.54153022,61577fbbc195adfb13f6c45f,626b377229c10585ec392f8a,626b37db13a9fc669217ae45,,,,,,,,,,,,,,,,,,,,,,,a,1,1.8345,"[""0.215"",""0.351"",""0.571"",""0.876""]","[1,1,0,1]",0,63,63,63,1,0,0,,,1,FALSE,,,,,,,,,,,,,,,,,,,,,,,,,,,,,,
,61577fbbc195adfb13f6c45f,001,2022-04-28_19h58.10.650,classification_task,2021.2.3,Win32,59.54153022,61577fbbc195adfb13f6c45f,626b377229c10585ec392f8a,626b37db13a9fc669217ae45,,,,,,,,,,,,,,,,,,,,,,,,,,,,,,,,,,,,,,,0, ,,0,9.925870811,237.1942,0,2,2,2,1,2,3,,,,,,,,,,,,,,,,,
,61577fbbc195adfb13f6c45f,001,2022-04-28_19h58.10.650,classification_task,2021.2.3,Win32,59.54153022,61577fbbc195adfb13f6c45f,626b377229c10585ec392f8a,626b37db13a9fc669217ae45,,,,,,,,,,,,,,,,,,,,,,,,,,,,,,,,,,,,,,,1,  ,,0,10,238.4207,0,2,2,2,1,2,3,,,,,,,,,,,,,,,,,
,61577fbbc195adfb13f6c45f,001,2022-04-28_19h58.10.650,classification_task,2021.2.3,Win32,59.54153022,61577fbbc195adfb13f6c45f,626b377229c10585ec392f8a,626b37db13a9fc669217ae45,,,,,,,,,,,,,,,,,,,,,,,,,,,,,,,,,,,,,,,2,  ,,0,9.305831129,244.2738,0,2,2,2,1,2,3,,,,,,,,,,,,,,,,,
,61577fbbc195adfb13f6c45f,001,2022-04-28_19h58.10.650,classification_task,2021.2.3,Win32,59.54153022,61577fbbc195adfb13f6c45f,626b377229c10585ec392f8a,626b37db13a9fc669217ae45,,,,,,,,,,,,,,,,,,,,,,,,,,,,,,,,,,,,,,,,,,,,,0,2,2,2,1,,3,,,,,,,,,,,,,,,,,
,61577fbbc195adfb13f6c45f,001,2022-04-28_19h58.10.650,classification_task,2021.2.3,Win32,59.54153022,61577fbbc195adfb13f6c45f,626b377229c10585ec392f8a,626b37db13a9fc669217ae45,,,,,,,,,,,,,,,,,,,,,,,,,,,,,,,,,,,,,,,,,,,,,,,,,,,,,I believe the aid is a competent performer,,0.7,0,4,1109.9907,0,0,0,0,1,0,,,,
,61577fbbc195adfb13f6c45f,001,2022-04-28_19h58.10.650,classification_task,2021.2.3,Win32,59.54153022,61577fbbc195adfb13f6c45f,626b377229c10585ec392f8a,626b37db13a9fc669217ae45,,,,,,,,,,,,,,,,,,,,,,,,,,,,,,,,,,,,,,,,,,,,,,,,,,,,,I trust the aid,,0.7,0,3,1111.1528,0,0,0,0,1,0,,,,
,61577fbbc195adfb13f6c45f,001,2022-04-28_19h58.10.650,classification_task,2021.2.3,Win32,59.54153022,61577fbbc195adfb13f6c45f,626b377229c10585ec392f8a,626b37db13a9fc669217ae45,,,,,,,,,,,,,,,,,,,,,,,,,,,,,,,,,,,,,,,,,,,,,,,,,,,,,I have confidence in the advice given by the aid,,0.7,0,4,1113.3863,0,0,0,0,1,0,,,,
,61577fbbc195adfb13f6c45f,001,2022-04-28_19h58.10.650,classification_task,2021.2.3,Win32,59.54153022,61577fbbc195adfb13f6c45f,626b377229c10585ec392f8a,626b37db13a9fc669217ae45,,,,,,,,,,,,,,,,,,,,,,,,,,,,,,,,,,,,,,,,,,,,,,,,,,,,,I can depend on the aid,,0.7,0,4,1114.5478,0,0,0,0,1,0,,,,
,61577fbbc195adfb13f6c45f,001,2022-04-28_19h58.10.650,classification_task,2021.2.3,Win32,59.54153022,61577fbbc195adfb13f6c45f,626b377229c10585ec392f8a,626b37db13a9fc669217ae45,,,,,,,,,,,,,,,,,,,,,,,,,,,,,,,,,,,,,,,,,,,,,,,,,,,,,I can rely on the aid to behave in consistent ways,,0.7,0,3,1116.7173,0,0,0,0,1,0,,,,
,61577fbbc195adfb13f6c45f,001,2022-04-28_19h58.10.650,classification_task,2021.2.3,Win32,59.54153022,61577fbbc195adfb13f6c45f,626b377229c10585ec392f8a,626b37db13a9fc669217ae45,,,,,,,,,,,,,,,,,,,,,,,,,,,,,,,,,,,,,,,,,,,,,,,,,,,,,I can rely on the aid to do its best every time I take its advice,,0.7,0,3,1121.2775,0,0,0,0,1,0,,,,
,61577fbbc195adfb13f6c45f,001,2022-04-28_19h58.10.650,classification_task,2021.2.3,Win32,59.54153022,61577fbbc195adfb13f6c45f,626b377229c10585ec392f8a,626b37db13a9fc669217ae45,,,,,,,,,,,,,,,,,,,,,,,,,,,,,,,,,,,,,,,,,,,,,,,,,,,,,"On trials you completed with assistance from the aid, how frequently did you think the aid was correct?",,0.7,0,85%,,0,0,0,0,1,0,,,,
,61577fbbc195adfb13f6c45f,001,2022-04-28_19h58.10.650,classification_task,2021.2.3,Win32,59.54153022,61577fbbc195adfb13f6c45f,626b377229c10585ec392f8a,626b37db13a9fc669217ae45,,,,,,,,,,,,,,,,,,,,,,,,,,,,,,,,,,,,,,,,,,,,,,,,,,,,,"On trials you completed without the aid, how frequently did you think you were correct?",,0.7,0,50%,,0,0,0,0,1,0,,,,
,61577fbbc195adfb13f6c45f,001,2022-04-28_19h58.10.650,classification_task,2021.2.3,Win32,59.54153022,61577fbbc195adfb13f6c45f,626b377229c10585ec392f8a,626b37db13a9fc669217ae45,,,,,,,,,,,,,,,,,,,,,,,,,,,,,,,,,,,,,,,,,,,,,,,,,,,,,,,,,,,0,0,0,0,1,,,,,
,61577fbbc195adfb13f6c45f,001,2022-04-28_19h58.10.650,classification_task,2021.2.3,Win32,59.54153022,61577fbbc195adfb13f6c45f,626b377229c10585ec392f8a,626b37db13a9fc669217ae45,,,,,,,,,,,,,,,,,,,,,,,,,,,,,,,,,,,,,,,,,,,,,,,,,,,,,,,,,,,,,,,,,j,10.4354,1152.3616,
,61577fbbc195adfb13f6c45f,001,2022-04-28_19h58.10.650,classification_task,2021.2.3,Win32,59.54153022,61577fbbc195adfb13f6c45f,626b377229c10585ec392f8a,626b37db13a9fc669217ae45,,,,,,,,,,,,,,,,,,,,,,,,,,,,,,,,,,,,,,,,,,,,,,,,,,,,,,,,,,,,,,,,,,,,"Mozilla/5.0 (Windows NT 10.0; Win64; x64) AppleWebKit/537.36 (KHTML, like Gecko) Chrome/99.0.4844.84 Safari/537.36 OPR/85.0.4341.75"
