usingWebGL,participant,session,date,expName,psychopyVersion,OS,frameRate,PROLIFIC_PID,STUDY_ID,SESSION_ID,signatures_friend,signatures_foe,band_ranges_top,band_ranges_bottom,formitemText,formtype,formundefined,formitemWidth,formindex,formresponse,formrt,key_resp_2.keys,key_resp_2.rt,tute_resp.keys,tute_resp.rt,tutorial.thisRepN,tutorial.thisTrialN,tutorial.thisN,tutorial.thisIndex,tutorial.ran,key_resp_4.keys,key_resp_4.rt,key_resp.keys,key_resp.corr,key_resp.rt,lines_presented,is_signal_presented,trials.thisRepN,trials.thisTrialN,trials.thisN,trials.thisIndex,trials.ran,vessel,active_band,lines,is_signal,supported_pos,catch_trial,debrief_formindex,debrief_formitemText,debrief_formtype,debrief_formitemWidth,debrief_formresponse,debrief_formrt,phases.thisRepN,phases.thisTrialN,phases.thisN,phases.thisIndex,phases.ran,phases.order,phase,key_resp_3.keys,trustitemText,trusttype,trustitemWidth,trustindex,trustresponse,trustrt,support_status.thisRepN,support_status.thisTrialN,support_status.thisN,support_status.thisIndex,support_status.ran,support_status.order,key_resp_5.keys,key_resp_5.rt,globalClockTime,userAgent
TRUE,6158edc2606f1f7b2bad5ca5,001,2022-04-28_18h18.34.158,classification_task,2021.2.3,Win32,60.0132029,6158edc2606f1f7b2bad5ca5,626b377229c10585ec392f89,626b390682172bdf418a752d,,,,,,,,,,,,,,,,,,,,,,,,,,,,,,,,,,,,,,,,,,,,,,,,,,,,,,,,,,,,,,,,,,,,
,6158edc2606f1f7b2bad5ca5,001,2022-04-28_18h18.34.158,classification_task,2021.2.3,Win32,60.0132029,6158edc2606f1f7b2bad5ca5,626b377229c10585ec392f89,626b390682172bdf418a752d,"[[""0.284"",""0.564"",""0.915"",""0.954""],[""0.250"",""0.514"",""0.817"",""0.858""]]","[[""0.091"",""0.199"",""0.599"",""0.682""],[""0.129"",""0.334"",""0.469"",""0.784""]]","[1,10]","[100,1000]",Video game experience,,,0.7,0,,,,,,,,,,,,,,,,,,,,,,,,,,,,,,,,,,,,,,,,,,,,,,,,,,,,,,,,,,,
,6158edc2606f1f7b2bad5ca5,001,2022-04-28_18h18.34.158,classification_task,2021.2.3,Win32,60.0132029,6158edc2606f1f7b2bad5ca5,626b377229c10585ec392f89,626b390682172bdf418a752d,,,,,Approximately how many hours did you spend playing video games in the last week?,,,0.7,0,10,,,,,,,,,,,,,,,,,,,,,,,,,,,,,,,,,,,,,,,,,,,,,,,,,,,,,,,,,,
,6158edc2606f1f7b2bad5ca5,001,2022-04-28_18h18.34.158,classification_task,2021.2.3,Win32,60.0132029,6158edc2606f1f7b2bad5ca5,626b377229c10585ec392f89,626b390682172bdf418a752d,,,,,"Which game did you play the most this year? (Enter ""None"" if you didn't play any)",,,0.7,0,The binding of issac,,,,,,,,,,,,,,,,,,,,,,,,,,,,,,,,,,,,,,,,,,,,,,,,,,,,,,,,,,
,6158edc2606f1f7b2bad5ca5,001,2022-04-28_18h18.34.158,classification_task,2021.2.3,Win32,60.0132029,6158edc2606f1f7b2bad5ca5,626b377229c10585ec392f89,626b390682172bdf418a752d,,,,,Visual perception,,,0.7,0,,,,,,,,,,,,,,,,,,,,,,,,,,,,,,,,,,,,,,,,,,,,,,,,,,,,,,,,,,,
,6158edc2606f1f7b2bad5ca5,001,2022-04-28_18h18.34.158,classification_task,2021.2.3,Win32,60.0132029,6158edc2606f1f7b2bad5ca5,626b377229c10585ec392f89,626b390682172bdf418a752d,,,,,Do you have any form of color blindness?,,,0.7,0,No,20.7371,,,,,,,,,,,,,,,,,,,,,,,,,,,,,,,,,,,,,,,,,,,,,,,,,,,,,,,,,
,6158edc2606f1f7b2bad5ca5,001,2022-04-28_18h18.34.158,classification_task,2021.2.3,Win32,60.0132029,6158edc2606f1f7b2bad5ca5,626b377229c10585ec392f89,626b390682172bdf418a752d,,,,,Do you use software to change the colour temperature of your screen (e.g. f.lux)?,,,0.7,0,No,23.9009,,,,,,,,,,,,,,,,,,,,,,,,,,,,,,,,,,,,,,,,,,,,,,,,,,,,,,,,,
,6158edc2606f1f7b2bad5ca5,001,2022-04-28_18h18.34.158,classification_task,2021.2.3,Win32,60.0132029,6158edc2606f1f7b2bad5ca5,626b377229c10585ec392f89,626b390682172bdf418a752d,,,,,,,,,,,,space,51.5725,space,16.3155,0,0,0,0,1,,,,,,,,,,,,,,,,,,,,,,,,,,,,,,,,,,,,,,,,,,,,,,,,
,6158edc2606f1f7b2bad5ca5,001,2022-04-28_18h18.34.158,classification_task,2021.2.3,Win32,60.0132029,6158edc2606f1f7b2bad5ca5,626b377229c10585ec392f89,626b390682172bdf418a752d,,,,,,,,,,,,,,space,9.5331,1,0,1,0,1,,,,,,,,,,,,,,,,,,,,,,,,,,,,,,,,,,,,,,,,,,,,,,,,
,6158edc2606f1f7b2bad5ca5,001,2022-04-28_18h18.34.158,classification_task,2021.2.3,Win32,60.0132029,6158edc2606f1f7b2bad5ca5,626b377229c10585ec392f89,626b390682172bdf418a752d,,,,,,,,,,,,,,space,20.5155,2,0,2,0,1,,,,,,,,,,,,,,,,,,,,,,,,,,,,,,,,,,,,,,,,,,,,,,,,
,6158edc2606f1f7b2bad5ca5,001,2022-04-28_18h18.34.158,classification_task,2021.2.3,Win32,60.0132029,6158edc2606f1f7b2bad5ca5,626b377229c10585ec392f89,626b390682172bdf418a752d,,,,,,,,,,,,,,space,22.5487,3,0,3,0,1,,,,,,,,,,,,,,,,,,,,,,,,,,,,,,,,,,,,,,,,,,,,,,,,
,6158edc2606f1f7b2bad5ca5,001,2022-04-28_18h18.34.158,classification_task,2021.2.3,Win32,60.0132029,6158edc2606f1f7b2bad5ca5,626b377229c10585ec392f89,626b390682172bdf418a752d,,,,,,,,,,,,,,space,6.8997,4,0,4,0,1,,,,,,,,,,,,,,,,,,,,,,,,,,,,,,,,,,,,,,,,,,,,,,,,
,6158edc2606f1f7b2bad5ca5,001,2022-04-28_18h18.34.158,classification_task,2021.2.3,Win32,60.0132029,6158edc2606f1f7b2bad5ca5,626b377229c10585ec392f89,626b390682172bdf418a752d,,,,,,,,,,,,,,,,,,,,,space,15.7107,l,1,3.9668,"[""0.129"",""0.334"",""0.469"",""0.638""]","[1,1,1,0]",0,0,0,0,1,1,1,,,0,FALSE,,,,,,,,,,,,,,,,,,,,,,,,,,,,,,
,6158edc2606f1f7b2bad5ca5,001,2022-04-28_18h18.34.158,classification_task,2021.2.3,Win32,60.0132029,6158edc2606f1f7b2bad5ca5,626b377229c10585ec392f89,626b390682172bdf418a752d,,,,,,,,,,,,,,,,,,,,,,,l,1,2.6499,"[""0.129"",""0.404"",""0.469"",""0.784""]","[1,0,1,1]",0,1,1,1,1,1,1,,,0,FALSE,,,,,,,,,,,,,,,,,,,,,,,,,,,,,,
,6158edc2606f1f7b2bad5ca5,001,2022-04-28_18h18.34.158,classification_task,2021.2.3,Win32,60.0132029,6158edc2606f1f7b2bad5ca5,626b377229c10585ec392f89,626b390682172bdf418a752d,,,,,,,,,,,,,,,,,,,,,,,a,1,2.8999,"[""0.250"",""0.514"",""0.817"",""0.638""]","[1,1,1,0]",0,2,2,2,1,0,1,,,0,FALSE,,,,,,,,,,,,,,,,,,,,,,,,,,,,,,
,6158edc2606f1f7b2bad5ca5,001,2022-04-28_18h18.34.158,classification_task,2021.2.3,Win32,60.0132029,6158edc2606f1f7b2bad5ca5,626b377229c10585ec392f89,626b390682172bdf418a752d,,,,,,,,,,,,,,,,,,,,,,,l,1,2.0833,"[""0.129"",""0.334"",""0.405"",""0.784""]","[1,1,0,1]",0,3,3,3,1,1,1,,,0,FALSE,,,,,,,,,,,,,,,,,,,,,,,,,,,,,,
,6158edc2606f1f7b2bad5ca5,001,2022-04-28_18h18.34.158,classification_task,2021.2.3,Win32,60.0132029,6158edc2606f1f7b2bad5ca5,626b377229c10585ec392f89,626b390682172bdf418a752d,,,,,,,,,,,,,,,,,,,,,,,,0,,"[""0.433"",""0.514"",""0.817"",""0.858""]","[0,1,1,1]",0,4,4,4,1,0,1,,,0,FALSE,,,,,,,,,,,,,,,,,,,,,,,,,,,,,,
,6158edc2606f1f7b2bad5ca5,001,2022-04-28_18h18.34.158,classification_task,2021.2.3,Win32,60.0132029,6158edc2606f1f7b2bad5ca5,626b377229c10585ec392f89,626b390682172bdf418a752d,,,,,,,,,,,,,,,,,,,,,,,a,1,4.6834,"[""0.284"",""0.564"",""0.915"",""0.428""]","[1,1,1,0]",0,5,5,5,1,0,0,,,0,FALSE,,,,,,,,,,,,,,,,,,,,,,,,,,,,,,
,6158edc2606f1f7b2bad5ca5,001,2022-04-28_18h18.34.158,classification_task,2021.2.3,Win32,60.0132029,6158edc2606f1f7b2bad5ca5,626b377229c10585ec392f89,626b390682172bdf418a752d,,,,,,,,,,,,,,,,,,,,,,,a,1,2.6832,"[""0.250"",""0.514"",""0.434"",""0.858""]","[1,1,0,1]",0,6,6,6,1,0,1,,,0,FALSE,,,,,,,,,,,,,,,,,,,,,,,,,,,,,,
,6158edc2606f1f7b2bad5ca5,001,2022-04-28_18h18.34.158,classification_task,2021.2.3,Win32,60.0132029,6158edc2606f1f7b2bad5ca5,626b377229c10585ec392f89,626b390682172bdf418a752d,,,,,,,,,,,,,,,,,,,,,,,l,1,2.1332,"[""0.091"",""0.199"",""0.599"",""0.433""]","[1,1,1,0]",0,7,7,7,1,1,0,,,0,FALSE,,,,,,,,,,,,,,,,,,,,,,,,,,,,,,
,6158edc2606f1f7b2bad5ca5,001,2022-04-28_18h18.34.158,classification_task,2021.2.3,Win32,60.0132029,6158edc2606f1f7b2bad5ca5,626b377229c10585ec392f89,626b390682172bdf418a752d,,,,,,,,,,,,,,,,,,,,,,,l,1,1.8337,"[""0.091"",""0.199"",""0.734"",""0.682""]","[1,1,0,1]",0,8,8,8,1,1,0,,,0,FALSE,,,,,,,,,,,,,,,,,,,,,,,,,,,,,,
,6158edc2606f1f7b2bad5ca5,001,2022-04-28_18h18.34.158,classification_task,2021.2.3,Win32,60.0132029,6158edc2606f1f7b2bad5ca5,626b377229c10585ec392f89,626b390682172bdf418a752d,,,,,,,,,,,,,,,,,,,,,,,a,1,2.3336,"[""0.413"",""0.564"",""0.915"",""0.954""]","[0,1,1,1]",0,9,9,9,1,0,0,,,0,FALSE,,,,,,,,,,,,,,,,,,,,,,,,,,,,,,
,6158edc2606f1f7b2bad5ca5,001,2022-04-28_18h18.34.158,classification_task,2021.2.3,Win32,60.0132029,6158edc2606f1f7b2bad5ca5,626b377229c10585ec392f89,626b390682172bdf418a752d,,,,,,,,,,,,,,,,,,,,,,,l,0,1.9502,"[""0.284"",""0.564"",""0.165"",""0.954""]","[1,1,0,1]",0,10,10,10,1,0,0,,,0,FALSE,,,,,,,,,,,,,,,,,,,,,,,,,,,,,,
,6158edc2606f1f7b2bad5ca5,001,2022-04-28_18h18.34.158,classification_task,2021.2.3,Win32,60.0132029,6158edc2606f1f7b2bad5ca5,626b377229c10585ec392f89,626b390682172bdf418a752d,,,,,,,,,,,,,,,,,,,,,,,l,1,1.7334,"[""0.413"",""0.199"",""0.599"",""0.682""]","[0,1,1,1]",0,11,11,11,1,1,0,,,0,FALSE,,,,,,,,,,,,,,,,,,,,,,,,,,,,,,
,6158edc2606f1f7b2bad5ca5,001,2022-04-28_18h18.34.158,classification_task,2021.2.3,Win32,60.0132029,6158edc2606f1f7b2bad5ca5,626b377229c10585ec392f89,626b390682172bdf418a752d,,,,,,,,,,,,,,,,,,,,,,,l,1,1.8668,"[""0.091"",""0.638"",""0.599"",""0.682""]","[1,0,1,1]",0,12,12,12,1,1,0,,,0,FALSE,,,,,,,,,,,,,,,,,,,,,,,,,,,,,,
,6158edc2606f1f7b2bad5ca5,001,2022-04-28_18h18.34.158,classification_task,2021.2.3,Win32,60.0132029,6158edc2606f1f7b2bad5ca5,626b377229c10585ec392f89,626b390682172bdf418a752d,,,,,,,,,,,,,,,,,,,,,,,a,1,1.5501,"[""0.284"",""0.413"",""0.915"",""0.954""]","[1,0,1,1]",0,13,13,13,1,0,0,,,0,FALSE,,,,,,,,,,,,,,,,,,,,,,,,,,,,,,
,6158edc2606f1f7b2bad5ca5,001,2022-04-28_18h18.34.158,classification_task,2021.2.3,Win32,60.0132029,6158edc2606f1f7b2bad5ca5,626b377229c10585ec392f89,626b390682172bdf418a752d,,,,,,,,,,,,,,,,,,,,,,,l,1,5.8333,"[""0.405"",""0.334"",""0.469"",""0.784""]","[0,1,1,1]",0,14,14,14,1,1,1,,,0,FALSE,,,,,,,,,,,,,,,,,,,,,,,,,,,,,,
,6158edc2606f1f7b2bad5ca5,001,2022-04-28_18h18.34.158,classification_task,2021.2.3,Win32,60.0132029,6158edc2606f1f7b2bad5ca5,626b377229c10585ec392f89,626b390682172bdf418a752d,,,,,,,,,,,,,,,,,,,,,,,a,1,2.1668,"[""0.250"",""0.405"",""0.817"",""0.858""]","[1,0,1,1]",0,15,15,15,1,0,1,,,0,FALSE,,,,,,,,,,,,,,,,,,,,,,,,,,,,,,
,6158edc2606f1f7b2bad5ca5,001,2022-04-28_18h18.34.158,classification_task,2021.2.3,Win32,60.0132029,6158edc2606f1f7b2bad5ca5,626b377229c10585ec392f89,626b390682172bdf418a752d,,,,,,,,,,,,,,,,,,,,,,,a,1,1.983,"[""0.284"",""0.396"",""0.915"",""0.954""]","[1,0,1,1]",0,16,16,16,1,0,0,,,0,FALSE,,,,,,,,,,,,,,,,,,,,,,,,,,,,,,
,6158edc2606f1f7b2bad5ca5,001,2022-04-28_18h18.34.158,classification_task,2021.2.3,Win32,60.0132029,6158edc2606f1f7b2bad5ca5,626b377229c10585ec392f89,626b390682172bdf418a752d,,,,,,,,,,,,,,,,,,,,,,,a,1,3.6332,"[""0.734"",""0.514"",""0.817"",""0.858""]","[0,1,1,1]",0,17,17,17,1,0,1,,,0,FALSE,,,,,,,,,,,,,,,,,,,,,,,,,,,,,,
,6158edc2606f1f7b2bad5ca5,001,2022-04-28_18h18.34.158,classification_task,2021.2.3,Win32,60.0132029,6158edc2606f1f7b2bad5ca5,626b377229c10585ec392f89,626b390682172bdf418a752d,,,,,,,,,,,,,,,,,,,,,,,a,1,2.2836,"[""0.250"",""0.638"",""0.817"",""0.858""]","[1,0,1,1]",0,18,18,18,1,0,1,,,0,FALSE,,,,,,,,,,,,,,,,,,,,,,,,,,,,,,
,6158edc2606f1f7b2bad5ca5,001,2022-04-28_18h18.34.158,classification_task,2021.2.3,Win32,60.0132029,6158edc2606f1f7b2bad5ca5,626b377229c10585ec392f89,626b390682172bdf418a752d,,,,,,,,,,,,,,,,,,,,,,,l,1,2.4501,"[""0.396"",""0.334"",""0.469"",""0.784""]","[0,1,1,1]",0,19,19,19,1,1,1,,,0,FALSE,,,,,,,,,,,,,,,,,,,,,,,,,,,,,,
,6158edc2606f1f7b2bad5ca5,001,2022-04-28_18h18.34.158,classification_task,2021.2.3,Win32,60.0132029,6158edc2606f1f7b2bad5ca5,626b377229c10585ec392f89,626b390682172bdf418a752d,,,,,,,,,,,,,,,,,,,,,,,l,1,2.0167,"[""0.091"",""0.199"",""0.599"",""0.396""]","[1,1,1,0]",0,20,20,20,1,1,0,,,0,FALSE,,,,,,,,,,,,,,,,,,,,,,,,,,,,,,
,6158edc2606f1f7b2bad5ca5,001,2022-04-28_18h18.34.158,classification_task,2021.2.3,Win32,60.0132029,6158edc2606f1f7b2bad5ca5,626b377229c10585ec392f89,626b390682172bdf418a752d,,,,,,,,,,,,,,,,,,,,,,,l,1,1.6002,"[""0.091"",""0.199"",""0.405"",""0.682""]","[1,1,0,1]",0,21,21,21,1,1,0,,,0,FALSE,,,,,,,,,,,,,,,,,,,,,,,,,,,,,,
,6158edc2606f1f7b2bad5ca5,001,2022-04-28_18h18.34.158,classification_task,2021.2.3,Win32,60.0132029,6158edc2606f1f7b2bad5ca5,626b377229c10585ec392f89,626b390682172bdf418a752d,,,,,,,,,,,,,,,,,,,,,,,a,1,2.0668,"[""0.284"",""0.564"",""0.915"",""0.434""]","[1,1,1,0]",0,22,22,22,1,0,0,,,0,FALSE,,,,,,,,,,,,,,,,,,,,,,,,,,,,,,
,6158edc2606f1f7b2bad5ca5,001,2022-04-28_18h18.34.158,classification_task,2021.2.3,Win32,60.0132029,6158edc2606f1f7b2bad5ca5,626b377229c10585ec392f89,626b390682172bdf418a752d,,,,,,,,,,,,,,,,,,,,,,,l,1,1.7001,"[""0.129"",""0.028"",""0.469"",""0.784""]","[1,0,1,1]",0,23,23,23,1,1,1,,,0,FALSE,,,,,,,,,,,,,,,,,,,,,,,,,,,,,,
,6158edc2606f1f7b2bad5ca5,001,2022-04-28_18h18.34.158,classification_task,2021.2.3,Win32,60.0132029,6158edc2606f1f7b2bad5ca5,626b377229c10585ec392f89,626b390682172bdf418a752d,,,,,,,,,,,,,,,,,,,,,,,a,1,2.0172,"[""0.250"",""0.514"",""0.405"",""0.858""]","[1,1,0,1]",0,24,24,24,1,0,1,,,0,FALSE,,,,,,,,,,,,,,,,,,,,,,,,,,,,,,
,6158edc2606f1f7b2bad5ca5,001,2022-04-28_18h18.34.158,classification_task,2021.2.3,Win32,60.0132029,6158edc2606f1f7b2bad5ca5,626b377229c10585ec392f89,626b390682172bdf418a752d,,,,,,,,,,,,,,,,,,,,,,,l,1,2.45,"[""0.433"",""0.199"",""0.599"",""0.682""]","[0,1,1,1]",0,25,25,25,1,1,0,,,0,FALSE,,,,,,,,,,,,,,,,,,,,,,,,,,,,,,
,6158edc2606f1f7b2bad5ca5,001,2022-04-28_18h18.34.158,classification_task,2021.2.3,Win32,60.0132029,6158edc2606f1f7b2bad5ca5,626b377229c10585ec392f89,626b390682172bdf418a752d,,,,,,,,,,,,,,,,,,,,,,,l,0,1.45,"[""0.028"",""0.564"",""0.915"",""0.954""]","[0,1,1,1]",0,26,26,26,1,0,0,,,0,FALSE,,,,,,,,,,,,,,,,,,,,,,,,,,,,,,
,6158edc2606f1f7b2bad5ca5,001,2022-04-28_18h18.34.158,classification_task,2021.2.3,Win32,60.0132029,6158edc2606f1f7b2bad5ca5,626b377229c10585ec392f89,626b390682172bdf418a752d,,,,,,,,,,,,,,,,,,,,,,,l,1,2.0835,"[""0.129"",""0.334"",""0.428"",""0.784""]","[1,1,0,1]",0,27,27,27,1,1,1,,,0,FALSE,,,,,,,,,,,,,,,,,,,,,,,,,,,,,,
,6158edc2606f1f7b2bad5ca5,001,2022-04-28_18h18.34.158,classification_task,2021.2.3,Win32,60.0132029,6158edc2606f1f7b2bad5ca5,626b377229c10585ec392f89,626b390682172bdf418a752d,,,,,,,,,,,,,,,,,,,,,,,l,1,2.8835,"[""0.129"",""0.334"",""0.469"",""0.028""]","[1,1,1,0]",0,28,28,28,1,1,1,,,0,FALSE,,,,,,,,,,,,,,,,,,,,,,,,,,,,,,
,6158edc2606f1f7b2bad5ca5,001,2022-04-28_18h18.34.158,classification_task,2021.2.3,Win32,60.0132029,6158edc2606f1f7b2bad5ca5,626b377229c10585ec392f89,626b390682172bdf418a752d,,,,,,,,,,,,,,,,,,,,,,,a,1,1.8002,"[""0.284"",""0.564"",""0.726"",""0.954""]","[1,1,0,1]",0,29,29,29,1,0,0,,,0,FALSE,,,,,,,,,,,,,,,,,,,,,,,,,,,,,,
,6158edc2606f1f7b2bad5ca5,001,2022-04-28_18h18.34.158,classification_task,2021.2.3,Win32,60.0132029,6158edc2606f1f7b2bad5ca5,626b377229c10585ec392f89,626b390682172bdf418a752d,,,,,,,,,,,,,,,,,,,,,,,a,1,1.8835,"[""0.250"",""0.514"",""0.817"",""0.428""]","[1,1,1,0]",0,30,30,30,1,0,1,,,0,FALSE,,,,,,,,,,,,,,,,,,,,,,,,,,,,,,
,6158edc2606f1f7b2bad5ca5,001,2022-04-28_18h18.34.158,classification_task,2021.2.3,Win32,60.0132029,6158edc2606f1f7b2bad5ca5,626b377229c10585ec392f89,626b390682172bdf418a752d,,,,,,,,,,,,,,,,,,,,,,,l,1,1.483,"[""0.091"",""0.058"",""0.599"",""0.682""]","[1,0,1,1]",0,31,31,31,1,1,0,,,0,FALSE,,,,,,,,,,,,,,,,,,,,,,,,,,,,,,
,6158edc2606f1f7b2bad5ca5,001,2022-04-28_18h18.34.158,classification_task,2021.2.3,Win32,60.0132029,6158edc2606f1f7b2bad5ca5,626b377229c10585ec392f89,626b390682172bdf418a752d,,,,,,,,,,,,,,,,,,,,,,,a,1,8.3663,"[""0.396"",""0.514"",""0.817"",""0.858""]","[0,1,1,1]",0,32,32,32,1,0,1,,,0,FALSE,,,,,,,,,,,,,,,,,,,,,,,,,,,,,,
,6158edc2606f1f7b2bad5ca5,001,2022-04-28_18h18.34.158,classification_task,2021.2.3,Win32,60.0132029,6158edc2606f1f7b2bad5ca5,626b377229c10585ec392f89,626b390682172bdf418a752d,,,,,,,,,,,,,,,,,,,,,,,l,0,1.6667,"[""0.284"",""0.564"",""0.915"",""0.413""]","[1,1,1,0]",0,33,33,33,1,0,0,,,0,FALSE,,,,,,,,,,,,,,,,,,,,,,,,,,,,,,
,6158edc2606f1f7b2bad5ca5,001,2022-04-28_18h18.34.158,classification_task,2021.2.3,Win32,60.0132029,6158edc2606f1f7b2bad5ca5,626b377229c10585ec392f89,626b390682172bdf418a752d,,,,,,,,,,,,,,,,,,,,,,,a,0,2.2003,"[""0.405"",""0.334"",""0.469"",""0.784""]","[0,1,1,1]",0,34,34,34,1,1,1,,,0,FALSE,,,,,,,,,,,,,,,,,,,,,,,,,,,,,,
,6158edc2606f1f7b2bad5ca5,001,2022-04-28_18h18.34.158,classification_task,2021.2.3,Win32,60.0132029,6158edc2606f1f7b2bad5ca5,626b377229c10585ec392f89,626b390682172bdf418a752d,,,,,,,,,,,,,,,,,,,,,,,,0,,"[""0.433"",""0.199"",""0.599"",""0.682""]","[0,1,1,1]",0,35,35,35,1,1,0,,,0,FALSE,,,,,,,,,,,,,,,,,,,,,,,,,,,,,,
,6158edc2606f1f7b2bad5ca5,001,2022-04-28_18h18.34.158,classification_task,2021.2.3,Win32,60.0132029,6158edc2606f1f7b2bad5ca5,626b377229c10585ec392f89,626b390682172bdf418a752d,,,,,,,,,,,,,,,,,,,,,,,l,0,1.1834,"[""0.031"",""0.564"",""0.915"",""0.954""]","[0,1,1,1]",0,36,36,36,1,0,0,,,0,FALSE,,,,,,,,,,,,,,,,,,,,,,,,,,,,,,
,6158edc2606f1f7b2bad5ca5,001,2022-04-28_18h18.34.158,classification_task,2021.2.3,Win32,60.0132029,6158edc2606f1f7b2bad5ca5,626b377229c10585ec392f89,626b390682172bdf418a752d,,,,,,,,,,,,,,,,,,,,,,,a,0,0.6838,"[""0.091"",""0.199"",""0.599"",""0.027""]","[1,1,1,0]",0,37,37,37,1,1,0,,,0,FALSE,,,,,,,,,,,,,,,,,,,,,,,,,,,,,,
,6158edc2606f1f7b2bad5ca5,001,2022-04-28_18h18.34.158,classification_task,2021.2.3,Win32,60.0132029,6158edc2606f1f7b2bad5ca5,626b377229c10585ec392f89,626b390682172bdf418a752d,,,,,,,,,,,,,,,,,,,,,,,a,0,0.6835,"[""0.129"",""0.334"",""0.428"",""0.784""]","[1,1,0,1]",0,38,38,38,1,1,1,,,0,FALSE,,,,,,,,,,,,,,,,,,,,,,,,,,,,,,
,6158edc2606f1f7b2bad5ca5,001,2022-04-28_18h18.34.158,classification_task,2021.2.3,Win32,60.0132029,6158edc2606f1f7b2bad5ca5,626b377229c10585ec392f89,626b390682172bdf418a752d,,,,,,,,,,,,,,,,,,,,,,,l,1,0.5336,"[""0.129"",""0.334"",""0.469"",""0.734""]","[1,1,1,0]",0,39,39,39,1,1,1,,,0,FALSE,,,,,,,,,,,,,,,,,,,,,,,,,,,,,,
,6158edc2606f1f7b2bad5ca5,001,2022-04-28_18h18.34.158,classification_task,2021.2.3,Win32,60.0132029,6158edc2606f1f7b2bad5ca5,626b377229c10585ec392f89,626b390682172bdf418a752d,,,,,,,,,,,,,,,,,,,,,,,a,0,1.6503,"[""0.091"",""0.726"",""0.599"",""0.682""]","[1,0,1,1]",0,40,40,40,1,1,0,,,0,FALSE,,,,,,,,,,,,,,,,,,,,,,,,,,,,,,
,6158edc2606f1f7b2bad5ca5,001,2022-04-28_18h18.34.158,classification_task,2021.2.3,Win32,60.0132029,6158edc2606f1f7b2bad5ca5,626b377229c10585ec392f89,626b390682172bdf418a752d,,,,,,,,,,,,,,,,,,,,,,,l,0,2.3332,"[""0.284"",""0.058"",""0.915"",""0.954""]","[1,0,1,1]",0,41,41,41,1,0,0,,,0,FALSE,,,,,,,,,,,,,,,,,,,,,,,,,,,,,,
,6158edc2606f1f7b2bad5ca5,001,2022-04-28_18h18.34.158,classification_task,2021.2.3,Win32,60.0132029,6158edc2606f1f7b2bad5ca5,626b377229c10585ec392f89,626b390682172bdf418a752d,,,,,,,,,,,,,,,,,,,,,,,l,0,0.5166,"[""0.284"",""0.564"",""0.031"",""0.954""]","[1,1,0,1]",0,42,42,42,1,0,0,,,0,FALSE,,,,,,,,,,,,,,,,,,,,,,,,,,,,,,
,6158edc2606f1f7b2bad5ca5,001,2022-04-28_18h18.34.158,classification_task,2021.2.3,Win32,60.0132029,6158edc2606f1f7b2bad5ca5,626b377229c10585ec392f89,626b390682172bdf418a752d,,,,,,,,,,,,,,,,,,,,,,,a,1,0.4001,"[""0.250"",""0.027"",""0.817"",""0.858""]","[1,0,1,1]",0,43,43,43,1,0,1,,,0,FALSE,,,,,,,,,,,,,,,,,,,,,,,,,,,,,,
,6158edc2606f1f7b2bad5ca5,001,2022-04-28_18h18.34.158,classification_task,2021.2.3,Win32,60.0132029,6158edc2606f1f7b2bad5ca5,626b377229c10585ec392f89,626b390682172bdf418a752d,,,,,,,,,,,,,,,,,,,,,,,l,1,0.4001,"[""0.129"",""0.405"",""0.469"",""0.784""]","[1,0,1,1]",0,44,44,44,1,1,1,,,0,FALSE,,,,,,,,,,,,,,,,,,,,,,,,,,,,,,
,6158edc2606f1f7b2bad5ca5,001,2022-04-28_18h18.34.158,classification_task,2021.2.3,Win32,60.0132029,6158edc2606f1f7b2bad5ca5,626b377229c10585ec392f89,626b390682172bdf418a752d,,,,,,,,,,,,,,,,,,,,,,,l,1,2.433,"[""0.091"",""0.199"",""0.638"",""0.682""]","[1,1,0,1]",0,45,45,45,1,1,0,,,0,FALSE,,,,,,,,,,,,,,,,,,,,,,,,,,,,,,
,6158edc2606f1f7b2bad5ca5,001,2022-04-28_18h18.34.158,classification_task,2021.2.3,Win32,60.0132029,6158edc2606f1f7b2bad5ca5,626b377229c10585ec392f89,626b390682172bdf418a752d,,,,,,,,,,,,,,,,,,,,,,,a,1,0.9335,"[""0.250"",""0.514"",""0.817"",""0.413""]","[1,1,1,0]",0,46,46,46,1,0,1,,,0,FALSE,,,,,,,,,,,,,,,,,,,,,,,,,,,,,,
,6158edc2606f1f7b2bad5ca5,001,2022-04-28_18h18.34.158,classification_task,2021.2.3,Win32,60.0132029,6158edc2606f1f7b2bad5ca5,626b377229c10585ec392f89,626b390682172bdf418a752d,,,,,,,,,,,,,,,,,,,,,,,a,1,0.9168,"[""0.250"",""0.514"",""0.404"",""0.858""]","[1,1,0,1]",0,47,47,47,1,0,1,,,0,FALSE,,,,,,,,,,,,,,,,,,,,,,,,,,,,,,
,6158edc2606f1f7b2bad5ca5,001,2022-04-28_18h18.34.158,classification_task,2021.2.3,Win32,60.0132029,6158edc2606f1f7b2bad5ca5,626b377229c10585ec392f89,626b390682172bdf418a752d,,,,,,,,,,,,,,,,,,,,,,,l,0,1.15,"[""0.284"",""0.027"",""0.915"",""0.954""]","[1,0,1,1]",0,48,48,48,1,0,0,,,0,FALSE,,,,,,,,,,,,,,,,,,,,,,,,,,,,,,
,6158edc2606f1f7b2bad5ca5,001,2022-04-28_18h18.34.158,classification_task,2021.2.3,Win32,60.0132029,6158edc2606f1f7b2bad5ca5,626b377229c10585ec392f89,626b390682172bdf418a752d,,,,,,,,,,,,,,,,,,,,,,,a,0,1.0999,"[""0.091"",""0.199"",""0.027"",""0.682""]","[1,1,0,1]",0,49,49,49,1,1,0,,,0,FALSE,,,,,,,,,,,,,,,,,,,,,,,,,,,,,,
,6158edc2606f1f7b2bad5ca5,001,2022-04-28_18h18.34.158,classification_task,2021.2.3,Win32,60.0132029,6158edc2606f1f7b2bad5ca5,626b377229c10585ec392f89,626b390682172bdf418a752d,,,,,,,,,,,,,,,,,,,,,,,a,0,1.4501,"[""0.091"",""0.199"",""0.599"",""0.638""]","[1,1,1,0]",0,50,50,50,1,1,0,,,0,FALSE,,,,,,,,,,,,,,,,,,,,,,,,,,,,,,
,6158edc2606f1f7b2bad5ca5,001,2022-04-28_18h18.34.158,classification_task,2021.2.3,Win32,60.0132029,6158edc2606f1f7b2bad5ca5,626b377229c10585ec392f89,626b390682172bdf418a752d,,,,,,,,,,,,,,,,,,,,,,,a,0,1.0503,"[""0.396"",""0.334"",""0.469"",""0.784""]","[0,1,1,1]",0,51,51,51,1,1,1,,,0,FALSE,,,,,,,,,,,,,,,,,,,,,,,,,,,,,,
,6158edc2606f1f7b2bad5ca5,001,2022-04-28_18h18.34.158,classification_task,2021.2.3,Win32,60.0132029,6158edc2606f1f7b2bad5ca5,626b377229c10585ec392f89,626b390682172bdf418a752d,,,,,,,,,,,,,,,,,,,,,,,l,0,0.8336,"[""0.284"",""0.564"",""0.915"",""0.390""]","[1,1,1,0]",0,52,52,52,1,0,0,,,0,FALSE,,,,,,,,,,,,,,,,,,,,,,,,,,,,,,
,6158edc2606f1f7b2bad5ca5,001,2022-04-28_18h18.34.158,classification_task,2021.2.3,Win32,60.0132029,6158edc2606f1f7b2bad5ca5,626b377229c10585ec392f89,626b390682172bdf418a752d,,,,,,,,,,,,,,,,,,,,,,,l,1,0.8168,"[""0.129"",""0.058"",""0.469"",""0.784""]","[1,0,1,1]",0,53,53,53,1,1,1,,,0,FALSE,,,,,,,,,,,,,,,,,,,,,,,,,,,,,,
,6158edc2606f1f7b2bad5ca5,001,2022-04-28_18h18.34.158,classification_task,2021.2.3,Win32,60.0132029,6158edc2606f1f7b2bad5ca5,626b377229c10585ec392f89,626b390682172bdf418a752d,,,,,,,,,,,,,,,,,,,,,,,a,1,1.3834,"[""0.058"",""0.564"",""0.915"",""0.954""]","[0,1,1,1]",0,54,54,54,1,0,0,,,0,FALSE,,,,,,,,,,,,,,,,,,,,,,,,,,,,,,
,6158edc2606f1f7b2bad5ca5,001,2022-04-28_18h18.34.158,classification_task,2021.2.3,Win32,60.0132029,6158edc2606f1f7b2bad5ca5,626b377229c10585ec392f89,626b390682172bdf418a752d,,,,,,,,,,,,,,,,,,,,,,,l,1,0.7169,"[""0.129"",""0.334"",""0.469"",""0.404""]","[1,1,1,0]",0,55,55,55,1,1,1,,,0,FALSE,,,,,,,,,,,,,,,,,,,,,,,,,,,,,,
,6158edc2606f1f7b2bad5ca5,001,2022-04-28_18h18.34.158,classification_task,2021.2.3,Win32,60.0132029,6158edc2606f1f7b2bad5ca5,626b377229c10585ec392f89,626b390682172bdf418a752d,,,,,,,,,,,,,,,,,,,,,,,l,0,2.2165,"[""0.031"",""0.514"",""0.817"",""0.858""]","[0,1,1,1]",0,56,56,56,1,0,1,,,0,FALSE,,,,,,,,,,,,,,,,,,,,,,,,,,,,,,
,6158edc2606f1f7b2bad5ca5,001,2022-04-28_18h18.34.158,classification_task,2021.2.3,Win32,60.0132029,6158edc2606f1f7b2bad5ca5,626b377229c10585ec392f89,626b390682172bdf418a752d,,,,,,,,,,,,,,,,,,,,,,,a,1,0.9002,"[""0.250"",""0.413"",""0.817"",""0.858""]","[1,0,1,1]",0,57,57,57,1,0,1,,,0,FALSE,,,,,,,,,,,,,,,,,,,,,,,,,,,,,,
,6158edc2606f1f7b2bad5ca5,001,2022-04-28_18h18.34.158,classification_task,2021.2.3,Win32,60.0132029,6158edc2606f1f7b2bad5ca5,626b377229c10585ec392f89,626b390682172bdf418a752d,,,,,,,,,,,,,,,,,,,,,,,l,0,0.9333,"[""0.284"",""0.564"",""0.028"",""0.954""]","[1,1,0,1]",0,58,58,58,1,0,0,,,0,FALSE,,,,,,,,,,,,,,,,,,,,,,,,,,,,,,
,6158edc2606f1f7b2bad5ca5,001,2022-04-28_18h18.34.158,classification_task,2021.2.3,Win32,60.0132029,6158edc2606f1f7b2bad5ca5,626b377229c10585ec392f89,626b390682172bdf418a752d,,,,,,,,,,,,,,,,,,,,,,,a,0,1.3336,"[""0.129"",""0.334"",""0.396"",""0.784""]","[1,1,0,1]",0,59,59,59,1,1,1,,,0,FALSE,,,,,,,,,,,,,,,,,,,,,,,,,,,,,,
,6158edc2606f1f7b2bad5ca5,001,2022-04-28_18h18.34.158,classification_task,2021.2.3,Win32,60.0132029,6158edc2606f1f7b2bad5ca5,626b377229c10585ec392f89,626b390682172bdf418a752d,,,,,,,,,,,,,,,,,,,,,,,l,0,0.1835,"[""0.250"",""0.514"",""0.817"",""0.413""]","[1,1,1,0]",0,60,60,60,1,0,1,,,0,FALSE,,,,,,,,,,,,,,,,,,,,,,,,,,,,,,
,6158edc2606f1f7b2bad5ca5,001,2022-04-28_18h18.34.158,classification_task,2021.2.3,Win32,60.0132029,6158edc2606f1f7b2bad5ca5,626b377229c10585ec392f89,626b390682172bdf418a752d,,,,,,,,,,,,,,,,,,,,,,,l,1,0.1668,"[""0.405"",""0.199"",""0.599"",""0.682""]","[0,1,1,1]",0,61,61,61,1,1,0,,,0,FALSE,,,,,,,,,,,,,,,,,,,,,,,,,,,,,,
,6158edc2606f1f7b2bad5ca5,001,2022-04-28_18h18.34.158,classification_task,2021.2.3,Win32,60.0132029,6158edc2606f1f7b2bad5ca5,626b377229c10585ec392f89,626b390682172bdf418a752d,,,,,,,,,,,,,,,,,,,,,,,l,0,0.717,"[""0.250"",""0.514"",""0.734"",""0.858""]","[1,1,0,1]",0,62,62,62,1,0,1,,,0,FALSE,,,,,,,,,,,,,,,,,,,,,,,,,,,,,,
,6158edc2606f1f7b2bad5ca5,001,2022-04-28_18h18.34.158,classification_task,2021.2.3,Win32,60.0132029,6158edc2606f1f7b2bad5ca5,626b377229c10585ec392f89,626b390682172bdf418a752d,,,,,,,,,,,,,,,,,,,,,,,a,0,0.7666,"[""0.091"",""0.726"",""0.599"",""0.682""]","[1,0,1,1]",0,63,63,63,1,1,0,,,0,FALSE,,,,,,,,,,,,,,,,,,,,,,,,,,,,,,
,6158edc2606f1f7b2bad5ca5,001,2022-04-28_18h18.34.158,classification_task,2021.2.3,Win32,60.0132029,6158edc2606f1f7b2bad5ca5,626b377229c10585ec392f89,626b390682172bdf418a752d,,,,,,,,,,,,,,,,,,,,,,,,,,,,,,,,,,,,,,,0, ,,0,7.180090143,393.144,0,0,0,0,1,2,1,,,,,,,,,,,,,,,,,
,6158edc2606f1f7b2bad5ca5,001,2022-04-28_18h18.34.158,classification_task,2021.2.3,Win32,60.0132029,6158edc2606f1f7b2bad5ca5,626b377229c10585ec392f89,626b390682172bdf418a752d,,,,,,,,,,,,,,,,,,,,,,,,,,,,,,,,,,,,,,,1,  ,,0,4.412110523,396.9009,0,0,0,0,1,2,1,,,,,,,,,,,,,,,,,
,6158edc2606f1f7b2bad5ca5,001,2022-04-28_18h18.34.158,classification_task,2021.2.3,Win32,60.0132029,6158edc2606f1f7b2bad5ca5,626b377229c10585ec392f89,626b390682172bdf418a752d,,,,,,,,,,,,,,,,,,,,,,,,,,,,,,,,,,,,,,,2,  ,,0,1.791103273,400.7072,0,0,0,0,1,2,1,,,,,,,,,,,,,,,,,
,6158edc2606f1f7b2bad5ca5,001,2022-04-28_18h18.34.158,classification_task,2021.2.3,Win32,60.0132029,6158edc2606f1f7b2bad5ca5,626b377229c10585ec392f89,626b390682172bdf418a752d,,,,,,,,,,,,,,,,,,,,,,,,,,,,,,,,,,,,,,,,,,,,,0,0,0,0,1,,1,,,,,,,,,,,,,,,,,
,6158edc2606f1f7b2bad5ca5,001,2022-04-28_18h18.34.158,classification_task,2021.2.3,Win32,60.0132029,6158edc2606f1f7b2bad5ca5,626b377229c10585ec392f89,626b390682172bdf418a752d,,,,,,,,,,,,,,,,,,,,,space,20.5954,l,1,4.693,"[""0.129"",""0.031"",""0.469"",""0.784""]","[1,0,1,1]",0,0,0,0,1,1,1,,,0,FALSE,,,,,,,,,,,,,,,,,,,,,,,,,,,,,,
,6158edc2606f1f7b2bad5ca5,001,2022-04-28_18h18.34.158,classification_task,2021.2.3,Win32,60.0132029,6158edc2606f1f7b2bad5ca5,626b377229c10585ec392f89,626b390682172bdf418a752d,,,,,,,,,,,,,,,,,,,,,,,l,1,5.1286,"[""0.091"",""0.199"",""0.599"",""0.734""]","[1,1,1,0]",0,1,1,1,1,1,0,,,0,FALSE,,,,,,,,,,,,,,,,,,,,,,,,,,,,,,
,6158edc2606f1f7b2bad5ca5,001,2022-04-28_18h18.34.158,classification_task,2021.2.3,Win32,60.0132029,6158edc2606f1f7b2bad5ca5,626b377229c10585ec392f89,626b390682172bdf418a752d,,,,,,,,,,,,,,,,,,,,,,,a,1,4.542,"[""0.250"",""0.514"",""0.817"",""0.058""]","[1,1,1,0]",0,2,2,2,1,0,1,,,0,FALSE,,,,,,,,,,,,,,,,,,,,,,,,,,,,,,
,6158edc2606f1f7b2bad5ca5,001,2022-04-28_18h18.34.158,classification_task,2021.2.3,Win32,60.0132029,6158edc2606f1f7b2bad5ca5,626b377229c10585ec392f89,626b390682172bdf418a752d,,,,,,,,,,,,,,,,,,,,,,,a,1,2.8951,"[""0.250"",""0.165"",""0.817"",""0.858""]","[1,0,1,1]",0,3,3,3,1,0,1,,,0,FALSE,,,,,,,,,,,,,,,,,,,,,,,,,,,,,,
,6158edc2606f1f7b2bad5ca5,001,2022-04-28_18h18.34.158,classification_task,2021.2.3,Win32,60.0132029,6158edc2606f1f7b2bad5ca5,626b377229c10585ec392f89,626b390682172bdf418a752d,,,,,,,,,,,,,,,,,,,,,,,l,1,1.0642,"[""0.028"",""0.334"",""0.469"",""0.784""]","[0,1,1,1]",0,4,4,4,1,1,1,,,0,FALSE,,,,,,,,,,,,,,,,,,,,,,,,,,,,,,
,6158edc2606f1f7b2bad5ca5,001,2022-04-28_18h18.34.158,classification_task,2021.2.3,Win32,60.0132029,6158edc2606f1f7b2bad5ca5,626b377229c10585ec392f89,626b390682172bdf418a752d,,,,,,,,,,,,,,,,,,,,,,,l,1,1.4856,"[""0.091"",""0.390"",""0.599"",""0.682""]","[1,0,1,1]",0,5,5,5,1,1,0,,,0,FALSE,,,,,,,,,,,,,,,,,,,,,,,,,,,,,,
,6158edc2606f1f7b2bad5ca5,001,2022-04-28_18h18.34.158,classification_task,2021.2.3,Win32,60.0132029,6158edc2606f1f7b2bad5ca5,626b377229c10585ec392f89,626b390682172bdf418a752d,,,,,,,,,,,,,,,,,,,,,,,a,1,1.3831,"[""0.284"",""0.405"",""0.915"",""0.954""]","[1,0,1,1]",0,6,6,6,1,0,0,,,0,FALSE,,,,,,,,,,,,,,,,,,,,,,,,,,,,,,
,6158edc2606f1f7b2bad5ca5,001,2022-04-28_18h18.34.158,classification_task,2021.2.3,Win32,60.0132029,6158edc2606f1f7b2bad5ca5,626b377229c10585ec392f89,626b390682172bdf418a752d,,,,,,,,,,,,,,,,,,,,,,,a,1,1.6936,"[""0.284"",""0.564"",""0.165"",""0.954""]","[1,1,0,1]",0,7,7,7,1,0,0,,,0,FALSE,,,,,,,,,,,,,,,,,,,,,,,,,,,,,,
,6158edc2606f1f7b2bad5ca5,001,2022-04-28_18h18.34.158,classification_task,2021.2.3,Win32,60.0132029,6158edc2606f1f7b2bad5ca5,626b377229c10585ec392f89,626b390682172bdf418a752d,,,,,,,,,,,,,,,,,,,,,,,l,1,0.9952,"[""0.091"",""0.199"",""0.428"",""0.682""]","[1,1,0,1]",0,8,8,8,1,1,0,,,0,FALSE,,,,,,,,,,,,,,,,,,,,,,,,,,,,,,
,6158edc2606f1f7b2bad5ca5,001,2022-04-28_18h18.34.158,classification_task,2021.2.3,Win32,60.0132029,6158edc2606f1f7b2bad5ca5,626b377229c10585ec392f89,626b390682172bdf418a752d,,,,,,,,,,,,,,,,,,,,,,,l,1,0.9378,"[""0.058"",""0.199"",""0.599"",""0.682""]","[0,1,1,1]",0,9,9,9,1,1,0,,,0,FALSE,,,,,,,,,,,,,,,,,,,,,,,,,,,,,,
,6158edc2606f1f7b2bad5ca5,001,2022-04-28_18h18.34.158,classification_task,2021.2.3,Win32,60.0132029,6158edc2606f1f7b2bad5ca5,626b377229c10585ec392f89,626b390682172bdf418a752d,,,,,,,,,,,,,,,,,,,,,,,a,1,0.8047,"[""0.284"",""0.564"",""0.915"",""0.027""]","[1,1,1,0]",0,10,10,10,1,0,0,,,0,FALSE,,,,,,,,,,,,,,,,,,,,,,,,,,,,,,
,6158edc2606f1f7b2bad5ca5,001,2022-04-28_18h18.34.158,classification_task,2021.2.3,Win32,60.0132029,6158edc2606f1f7b2bad5ca5,626b377229c10585ec392f89,626b390682172bdf418a752d,,,,,,,,,,,,,,,,,,,,,,,a,0,2.5311,"[""0.129"",""0.334"",""0.734"",""0.784""]","[1,1,0,1]",0,11,11,11,1,1,1,,,0,FALSE,,,,,,,,,,,,,,,,,,,,,,,,,,,,,,
,6158edc2606f1f7b2bad5ca5,001,2022-04-28_18h18.34.158,classification_task,2021.2.3,Win32,60.0132029,6158edc2606f1f7b2bad5ca5,626b377229c10585ec392f89,626b390682172bdf418a752d,,,,,,,,,,,,,,,,,,,,,,,l,0,0.8471,"[""0.250"",""0.514"",""0.404"",""0.858""]","[1,1,0,1]",0,12,12,12,1,0,1,,,0,FALSE,,,,,,,,,,,,,,,,,,,,,,,,,,,,,,
,6158edc2606f1f7b2bad5ca5,001,2022-04-28_18h18.34.158,classification_task,2021.2.3,Win32,60.0132029,6158edc2606f1f7b2bad5ca5,626b377229c10585ec392f89,626b390682172bdf418a752d,,,,,,,,,,,,,,,,,,,,,,,a,1,0.7505,"[""0.428"",""0.514"",""0.817"",""0.858""]","[0,1,1,1]",0,13,13,13,1,0,1,,,0,FALSE,,,,,,,,,,,,,,,,,,,,,,,,,,,,,,
,6158edc2606f1f7b2bad5ca5,001,2022-04-28_18h18.34.158,classification_task,2021.2.3,Win32,60.0132029,6158edc2606f1f7b2bad5ca5,626b377229c10585ec392f89,626b390682172bdf418a752d,,,,,,,,,,,,,,,,,,,,,,,l,0,1.0148,"[""0.433"",""0.564"",""0.915"",""0.954""]","[0,1,1,1]",0,14,14,14,1,0,0,,,0,FALSE,,,,,,,,,,,,,,,,,,,,,,,,,,,,,,
,6158edc2606f1f7b2bad5ca5,001,2022-04-28_18h18.34.158,classification_task,2021.2.3,Win32,60.0132029,6158edc2606f1f7b2bad5ca5,626b377229c10585ec392f89,626b390682172bdf418a752d,,,,,,,,,,,,,,,,,,,,,,,l,1,1.6202,"[""0.129"",""0.334"",""0.469"",""0.027""]","[1,1,1,0]",0,15,15,15,1,1,1,,,0,FALSE,,,,,,,,,,,,,,,,,,,,,,,,,,,,,,
,6158edc2606f1f7b2bad5ca5,001,2022-04-28_18h18.34.158,classification_task,2021.2.3,Win32,60.0132029,6158edc2606f1f7b2bad5ca5,626b377229c10585ec392f89,626b390682172bdf418a752d,,,,,,,,,,,,,,,,,,,,,,,a,1,1.1353,"[""0.284"",""0.564"",""0.031"",""0.954""]","[1,1,0,1]",0,16,16,16,1,0,0,,,0,FALSE,,,,,,,,,,,,,,,,,,,,,,,,,,,,,,
,6158edc2606f1f7b2bad5ca5,001,2022-04-28_18h18.34.158,classification_task,2021.2.3,Win32,60.0132029,6158edc2606f1f7b2bad5ca5,626b377229c10585ec392f89,626b390682172bdf418a752d,,,,,,,,,,,,,,,,,,,,,,,l,1,1.0565,"[""0.091"",""0.199"",""0.428"",""0.682""]","[1,1,0,1]",0,17,17,17,1,1,0,,,0,FALSE,,,,,,,,,,,,,,,,,,,,,,,,,,,,,,
,6158edc2606f1f7b2bad5ca5,001,2022-04-28_18h18.34.158,classification_task,2021.2.3,Win32,60.0132029,6158edc2606f1f7b2bad5ca5,626b377229c10585ec392f89,626b390682172bdf418a752d,,,,,,,,,,,,,,,,,,,,,,,l,0,1.9909,"[""0.250"",""0.514"",""0.817"",""0.726""]","[1,1,1,0]",0,18,18,18,1,0,1,,,0,FALSE,,,,,,,,,,,,,,,,,,,,,,,,,,,,,,
,6158edc2606f1f7b2bad5ca5,001,2022-04-28_18h18.34.158,classification_task,2021.2.3,Win32,60.0132029,6158edc2606f1f7b2bad5ca5,626b377229c10585ec392f89,626b390682172bdf418a752d,,,,,,,,,,,,,,,,,,,,,,,l,1,0.9362,"[""0.129"",""0.334"",""0.028"",""0.784""]","[1,1,0,1]",0,19,19,19,1,1,1,,,0,FALSE,,,,,,,,,,,,,,,,,,,,,,,,,,,,,,
,6158edc2606f1f7b2bad5ca5,001,2022-04-28_18h18.34.158,classification_task,2021.2.3,Win32,60.0132029,6158edc2606f1f7b2bad5ca5,626b377229c10585ec392f89,626b390682172bdf418a752d,,,,,,,,,,,,,,,,,,,,,,,a,0,0.8754,"[""0.726"",""0.334"",""0.469"",""0.784""]","[0,1,1,1]",0,20,20,20,1,1,1,,,0,FALSE,,,,,,,,,,,,,,,,,,,,,,,,,,,,,,
,6158edc2606f1f7b2bad5ca5,001,2022-04-28_18h18.34.158,classification_task,2021.2.3,Win32,60.0132029,6158edc2606f1f7b2bad5ca5,626b377229c10585ec392f89,626b390682172bdf418a752d,,,,,,,,,,,,,,,,,,,,,,,a,0,0.5024,"[""0.129"",""0.726"",""0.469"",""0.784""]","[1,0,1,1]",0,21,21,21,1,1,1,,,0,FALSE,,,,,,,,,,,,,,,,,,,,,,,,,,,,,,
,6158edc2606f1f7b2bad5ca5,001,2022-04-28_18h18.34.158,classification_task,2021.2.3,Win32,60.0132029,6158edc2606f1f7b2bad5ca5,626b377229c10585ec392f89,626b390682172bdf418a752d,,,,,,,,,,,,,,,,,,,,,,,a,0,0.3726,"[""0.129"",""0.334"",""0.469"",""0.413""]","[1,1,1,0]",0,22,22,22,1,1,1,,,0,FALSE,,,,,,,,,,,,,,,,,,,,,,,,,,,,,,
,6158edc2606f1f7b2bad5ca5,001,2022-04-28_18h18.34.158,classification_task,2021.2.3,Win32,60.0132029,6158edc2606f1f7b2bad5ca5,626b377229c10585ec392f89,626b390682172bdf418a752d,,,,,,,,,,,,,,,,,,,,,,,a,1,0.3377,"[""0.250"",""0.390"",""0.817"",""0.858""]","[1,0,1,1]",0,23,23,23,1,0,1,,,0,FALSE,,,,,,,,,,,,,,,,,,,,,,,,,,,,,,
,6158edc2606f1f7b2bad5ca5,001,2022-04-28_18h18.34.158,classification_task,2021.2.3,Win32,60.0132029,6158edc2606f1f7b2bad5ca5,626b377229c10585ec392f89,626b390682172bdf418a752d,,,,,,,,,,,,,,,,,,,,,,,a,1,1.2331,"[""0.284"",""0.058"",""0.915"",""0.954""]","[1,0,1,1]",0,24,24,24,1,0,0,,,0,FALSE,,,,,,,,,,,,,,,,,,,,,,,,,,,,,,
,6158edc2606f1f7b2bad5ca5,001,2022-04-28_18h18.34.158,classification_task,2021.2.3,Win32,60.0132029,6158edc2606f1f7b2bad5ca5,626b377229c10585ec392f89,626b390682172bdf418a752d,,,,,,,,,,,,,,,,,,,,,,,l,1,0.6713,"[""0.091"",""0.734"",""0.599"",""0.682""]","[1,0,1,1]",0,25,25,25,1,1,0,,,0,FALSE,,,,,,,,,,,,,,,,,,,,,,,,,,,,,,
,6158edc2606f1f7b2bad5ca5,001,2022-04-28_18h18.34.158,classification_task,2021.2.3,Win32,60.0132029,6158edc2606f1f7b2bad5ca5,626b377229c10585ec392f89,626b390682172bdf418a752d,,,,,,,,,,,,,,,,,,,,,,,l,0,2.1036,"[""0.734"",""0.514"",""0.817"",""0.858""]","[0,1,1,1]",0,26,26,26,1,0,1,,,0,FALSE,,,,,,,,,,,,,,,,,,,,,,,,,,,,,,
,6158edc2606f1f7b2bad5ca5,001,2022-04-28_18h18.34.158,classification_task,2021.2.3,Win32,60.0132029,6158edc2606f1f7b2bad5ca5,626b377229c10585ec392f89,626b390682172bdf418a752d,,,,,,,,,,,,,,,,,,,,,,,a,1,1.3923,"[""0.734"",""0.564"",""0.915"",""0.954""]","[0,1,1,1]",0,27,27,27,1,0,0,,,0,FALSE,,,,,,,,,,,,,,,,,,,,,,,,,,,,,,
,6158edc2606f1f7b2bad5ca5,001,2022-04-28_18h18.34.158,classification_task,2021.2.3,Win32,60.0132029,6158edc2606f1f7b2bad5ca5,626b377229c10585ec392f89,626b390682172bdf418a752d,,,,,,,,,,,,,,,,,,,,,,,l,1,0.6741,"[""0.091"",""0.199"",""0.599"",""0.390""]","[1,1,1,0]",0,28,28,28,1,1,0,,,0,FALSE,,,,,,,,,,,,,,,,,,,,,,,,,,,,,,
,6158edc2606f1f7b2bad5ca5,001,2022-04-28_18h18.34.158,classification_task,2021.2.3,Win32,60.0132029,6158edc2606f1f7b2bad5ca5,626b377229c10585ec392f89,626b390682172bdf418a752d,,,,,,,,,,,,,,,,,,,,,,,l,1,1.1333,"[""0.413"",""0.199"",""0.599"",""0.682""]","[0,1,1,1]",0,29,29,29,1,1,0,,,0,FALSE,,,,,,,,,,,,,,,,,,,,,,,,,,,,,,
,6158edc2606f1f7b2bad5ca5,001,2022-04-28_18h18.34.158,classification_task,2021.2.3,Win32,60.0132029,6158edc2606f1f7b2bad5ca5,626b377229c10585ec392f89,626b390682172bdf418a752d,,,,,,,,,,,,,,,,,,,,,,,a,1,0.9226,"[""0.250"",""0.514"",""0.413"",""0.858""]","[1,1,0,1]",0,30,30,30,1,0,1,,,0,FALSE,,,,,,,,,,,,,,,,,,,,,,,,,,,,,,
,6158edc2606f1f7b2bad5ca5,001,2022-04-28_18h18.34.158,classification_task,2021.2.3,Win32,60.0132029,6158edc2606f1f7b2bad5ca5,626b377229c10585ec392f89,626b390682172bdf418a752d,,,,,,,,,,,,,,,,,,,,,,,a,1,1.0046,"[""0.284"",""0.564"",""0.915"",""0.027""]","[1,1,1,0]",0,31,31,31,1,0,0,,,0,FALSE,,,,,,,,,,,,,,,,,,,,,,,,,,,,,,
,6158edc2606f1f7b2bad5ca5,001,2022-04-28_18h18.34.158,classification_task,2021.2.3,Win32,60.0132029,6158edc2606f1f7b2bad5ca5,626b377229c10585ec392f89,626b390682172bdf418a752d,,,,,,,,,,,,,,,,,,,,,,,l,1,1.0584,"[""0.091"",""0.199"",""0.599"",""0.428""]","[1,1,1,0]",0,32,32,32,1,1,0,,,0,FALSE,,,,,,,,,,,,,,,,,,,,,,,,,,,,,,
,6158edc2606f1f7b2bad5ca5,001,2022-04-28_18h18.34.158,classification_task,2021.2.3,Win32,60.0132029,6158edc2606f1f7b2bad5ca5,626b377229c10585ec392f89,626b390682172bdf418a752d,,,,,,,,,,,,,,,,,,,,,,,l,1,1.0608,"[""0.031"",""0.199"",""0.599"",""0.682""]","[0,1,1,1]",0,33,33,33,1,1,0,,,0,FALSE,,,,,,,,,,,,,,,,,,,,,,,,,,,,,,
,6158edc2606f1f7b2bad5ca5,001,2022-04-28_18h18.34.158,classification_task,2021.2.3,Win32,60.0132029,6158edc2606f1f7b2bad5ca5,626b377229c10585ec392f89,626b390682172bdf418a752d,,,,,,,,,,,,,,,,,,,,,,,l,0,0.8818,"[""0.726"",""0.514"",""0.817"",""0.858""]","[0,1,1,1]",0,34,34,34,1,0,1,,,0,FALSE,,,,,,,,,,,,,,,,,,,,,,,,,,,,,,
,6158edc2606f1f7b2bad5ca5,001,2022-04-28_18h18.34.158,classification_task,2021.2.3,Win32,60.0132029,6158edc2606f1f7b2bad5ca5,626b377229c10585ec392f89,626b390682172bdf418a752d,,,,,,,,,,,,,,,,,,,,,,,l,1,0.6178,"[""0.091"",""0.031"",""0.599"",""0.682""]","[1,0,1,1]",0,35,35,35,1,1,0,,,0,FALSE,,,,,,,,,,,,,,,,,,,,,,,,,,,,,,
,6158edc2606f1f7b2bad5ca5,001,2022-04-28_18h18.34.158,classification_task,2021.2.3,Win32,60.0132029,6158edc2606f1f7b2bad5ca5,626b377229c10585ec392f89,626b390682172bdf418a752d,,,,,,,,,,,,,,,,,,,,,,,a,1,0.6941,"[""0.250"",""0.514"",""0.817"",""0.413""]","[1,1,1,0]",0,36,36,36,1,0,1,,,0,FALSE,,,,,,,,,,,,,,,,,,,,,,,,,,,,,,
,6158edc2606f1f7b2bad5ca5,001,2022-04-28_18h18.34.158,classification_task,2021.2.3,Win32,60.0132029,6158edc2606f1f7b2bad5ca5,626b377229c10585ec392f89,626b390682172bdf418a752d,,,,,,,,,,,,,,,,,,,,,,,l,0,0.7043,"[""0.250"",""0.514"",""0.027"",""0.858""]","[1,1,0,1]",0,37,37,37,1,0,1,,,0,FALSE,,,,,,,,,,,,,,,,,,,,,,,,,,,,,,
,6158edc2606f1f7b2bad5ca5,001,2022-04-28_18h18.34.158,classification_task,2021.2.3,Win32,60.0132029,6158edc2606f1f7b2bad5ca5,626b377229c10585ec392f89,626b390682172bdf418a752d,,,,,,,,,,,,,,,,,,,,,,,a,1,1.1441,"[""0.284"",""0.564"",""0.915"",""0.433""]","[1,1,1,0]",0,38,38,38,1,0,0,,,0,FALSE,,,,,,,,,,,,,,,,,,,,,,,,,,,,,,
,6158edc2606f1f7b2bad5ca5,001,2022-04-28_18h18.34.158,classification_task,2021.2.3,Win32,60.0132029,6158edc2606f1f7b2bad5ca5,626b377229c10585ec392f89,626b390682172bdf418a752d,,,,,,,,,,,,,,,,,,,,,,,l,1,0.7591,"[""0.091"",""0.199"",""0.726"",""0.682""]","[1,1,0,1]",0,39,39,39,1,1,0,,,0,FALSE,,,,,,,,,,,,,,,,,,,,,,,,,,,,,,
,6158edc2606f1f7b2bad5ca5,001,2022-04-28_18h18.34.158,classification_task,2021.2.3,Win32,60.0132029,6158edc2606f1f7b2bad5ca5,626b377229c10585ec392f89,626b390682172bdf418a752d,,,,,,,,,,,,,,,,,,,,,,,a,0,0.7349,"[""0.129"",""0.334"",""0.428"",""0.784""]","[1,1,0,1]",0,40,40,40,1,1,1,,,0,FALSE,,,,,,,,,,,,,,,,,,,,,,,,,,,,,,
,6158edc2606f1f7b2bad5ca5,001,2022-04-28_18h18.34.158,classification_task,2021.2.3,Win32,60.0132029,6158edc2606f1f7b2bad5ca5,626b377229c10585ec392f89,626b390682172bdf418a752d,,,,,,,,,,,,,,,,,,,,,,,l,1,0.5707,"[""0.129"",""0.726"",""0.469"",""0.784""]","[1,0,1,1]",0,41,41,41,1,1,1,,,0,FALSE,,,,,,,,,,,,,,,,,,,,,,,,,,,,,,
,6158edc2606f1f7b2bad5ca5,001,2022-04-28_18h18.34.158,classification_task,2021.2.3,Win32,60.0132029,6158edc2606f1f7b2bad5ca5,626b377229c10585ec392f89,626b390682172bdf418a752d,,,,,,,,,,,,,,,,,,,,,,,l,0,0.7506,"[""0.250"",""0.405"",""0.817"",""0.858""]","[1,0,1,1]",0,42,42,42,1,0,1,,,0,FALSE,,,,,,,,,,,,,,,,,,,,,,,,,,,,,,
,6158edc2606f1f7b2bad5ca5,001,2022-04-28_18h18.34.158,classification_task,2021.2.3,Win32,60.0132029,6158edc2606f1f7b2bad5ca5,626b377229c10585ec392f89,626b390682172bdf418a752d,,,,,,,,,,,,,,,,,,,,,,,a,0,0.4953,"[""0.129"",""0.334"",""0.469"",""0.433""]","[1,1,1,0]",0,43,43,43,1,1,1,,,0,FALSE,,,,,,,,,,,,,,,,,,,,,,,,,,,,,,
,6158edc2606f1f7b2bad5ca5,001,2022-04-28_18h18.34.158,classification_task,2021.2.3,Win32,60.0132029,6158edc2606f1f7b2bad5ca5,626b377229c10585ec392f89,626b390682172bdf418a752d,,,,,,,,,,,,,,,,,,,,,,,a,1,1.0244,"[""0.284"",""0.564"",""0.165"",""0.954""]","[1,1,0,1]",0,44,44,44,1,0,0,,,0,FALSE,,,,,,,,,,,,,,,,,,,,,,,,,,,,,,
,6158edc2606f1f7b2bad5ca5,001,2022-04-28_18h18.34.158,classification_task,2021.2.3,Win32,60.0132029,6158edc2606f1f7b2bad5ca5,626b377229c10585ec392f89,626b390682172bdf418a752d,,,,,,,,,,,,,,,,,,,,,,,a,1,0.6664,"[""0.058"",""0.564"",""0.915"",""0.954""]","[0,1,1,1]",0,45,45,45,1,0,0,,,0,FALSE,,,,,,,,,,,,,,,,,,,,,,,,,,,,,,
,6158edc2606f1f7b2bad5ca5,001,2022-04-28_18h18.34.158,classification_task,2021.2.3,Win32,60.0132029,6158edc2606f1f7b2bad5ca5,626b377229c10585ec392f89,626b390682172bdf418a752d,,,,,,,,,,,,,,,,,,,,,,,l,1,0.7251,"[""0.433"",""0.334"",""0.469"",""0.784""]","[0,1,1,1]",0,46,46,46,1,1,1,,,0,FALSE,,,,,,,,,,,,,,,,,,,,,,,,,,,,,,
,6158edc2606f1f7b2bad5ca5,001,2022-04-28_18h18.34.158,classification_task,2021.2.3,Win32,60.0132029,6158edc2606f1f7b2bad5ca5,626b377229c10585ec392f89,626b390682172bdf418a752d,,,,,,,,,,,,,,,,,,,,,,,a,1,0.8816,"[""0.284"",""0.405"",""0.915"",""0.954""]","[1,0,1,1]",0,47,47,47,1,0,0,,,0,FALSE,,,,,,,,,,,,,,,,,,,,,,,,,,,,,,
,6158edc2606f1f7b2bad5ca5,001,2022-04-28_18h18.34.158,classification_task,2021.2.3,Win32,60.0132029,6158edc2606f1f7b2bad5ca5,626b377229c10585ec392f89,626b390682172bdf418a752d,,,,,,,,,,,,,,,,,,,,,,,a,1,0.783,"[""0.284"",""0.564"",""0.915"",""0.031""]","[1,1,1,0]",0,48,48,48,1,0,0,,,0,FALSE,,,,,,,,,,,,,,,,,,,,,,,,,,,,,,
,6158edc2606f1f7b2bad5ca5,001,2022-04-28_18h18.34.158,classification_task,2021.2.3,Win32,60.0132029,6158edc2606f1f7b2bad5ca5,626b377229c10585ec392f89,626b390682172bdf418a752d,,,,,,,,,,,,,,,,,,,,,,,l,1,0.8502,"[""0.129"",""0.334"",""0.469"",""0.027""]","[1,1,1,0]",0,49,49,49,1,1,1,,,0,FALSE,,,,,,,,,,,,,,,,,,,,,,,,,,,,,,
,6158edc2606f1f7b2bad5ca5,001,2022-04-28_18h18.34.158,classification_task,2021.2.3,Win32,60.0132029,6158edc2606f1f7b2bad5ca5,626b377229c10585ec392f89,626b390682172bdf418a752d,,,,,,,,,,,,,,,,,,,,,,,a,1,0.549,"[""0.284"",""0.404"",""0.915"",""0.954""]","[1,0,1,1]",0,50,50,50,1,0,0,,,0,FALSE,,,,,,,,,,,,,,,,,,,,,,,,,,,,,,
,6158edc2606f1f7b2bad5ca5,001,2022-04-28_18h18.34.158,classification_task,2021.2.3,Win32,60.0132029,6158edc2606f1f7b2bad5ca5,626b377229c10585ec392f89,626b390682172bdf418a752d,,,,,,,,,,,,,,,,,,,,,,,a,1,0.8703,"[""0.404"",""0.514"",""0.817"",""0.858""]","[0,1,1,1]",0,51,51,51,1,0,1,,,0,FALSE,,,,,,,,,,,,,,,,,,,,,,,,,,,,,,
,6158edc2606f1f7b2bad5ca5,001,2022-04-28_18h18.34.158,classification_task,2021.2.3,Win32,60.0132029,6158edc2606f1f7b2bad5ca5,626b377229c10585ec392f89,626b390682172bdf418a752d,,,,,,,,,,,,,,,,,,,,,,,l,0,0.7693,"[""0.250"",""0.514"",""0.817"",""0.390""]","[1,1,1,0]",0,52,52,52,1,0,1,,,0,FALSE,,,,,,,,,,,,,,,,,,,,,,,,,,,,,,
,6158edc2606f1f7b2bad5ca5,001,2022-04-28_18h18.34.158,classification_task,2021.2.3,Win32,60.0132029,6158edc2606f1f7b2bad5ca5,626b377229c10585ec392f89,626b390682172bdf418a752d,,,,,,,,,,,,,,,,,,,,,,,l,1,0.8367,"[""0.027"",""0.199"",""0.599"",""0.682""]","[0,1,1,1]",0,53,53,53,1,1,0,,,0,FALSE,,,,,,,,,,,,,,,,,,,,,,,,,,,,,,
,6158edc2606f1f7b2bad5ca5,001,2022-04-28_18h18.34.158,classification_task,2021.2.3,Win32,60.0132029,6158edc2606f1f7b2bad5ca5,626b377229c10585ec392f89,626b390682172bdf418a752d,,,,,,,,,,,,,,,,,,,,,,,a,1,0.6818,"[""0.250"",""0.514"",""0.390"",""0.858""]","[1,1,0,1]",0,54,54,54,1,0,1,,,0,FALSE,,,,,,,,,,,,,,,,,,,,,,,,,,,,,,
,6158edc2606f1f7b2bad5ca5,001,2022-04-28_18h18.34.158,classification_task,2021.2.3,Win32,60.0132029,6158edc2606f1f7b2bad5ca5,626b377229c10585ec392f89,626b390682172bdf418a752d,,,,,,,,,,,,,,,,,,,,,,,a,0,2.3838,"[""0.129"",""0.334"",""0.726"",""0.784""]","[1,1,0,1]",0,55,55,55,1,1,1,,,0,FALSE,,,,,,,,,,,,,,,,,,,,,,,,,,,,,,
,6158edc2606f1f7b2bad5ca5,001,2022-04-28_18h18.34.158,classification_task,2021.2.3,Win32,60.0132029,6158edc2606f1f7b2bad5ca5,626b377229c10585ec392f89,626b390682172bdf418a752d,,,,,,,,,,,,,,,,,,,,,,,l,1,1.1343,"[""0.129"",""0.405"",""0.469"",""0.784""]","[1,0,1,1]",0,56,56,56,1,1,1,,,0,FALSE,,,,,,,,,,,,,,,,,,,,,,,,,,,,,,
,6158edc2606f1f7b2bad5ca5,001,2022-04-28_18h18.34.158,classification_task,2021.2.3,Win32,60.0132029,6158edc2606f1f7b2bad5ca5,626b377229c10585ec392f89,626b390682172bdf418a752d,,,,,,,,,,,,,,,,,,,,,,,l,0,1.0156,"[""0.250"",""0.165"",""0.817"",""0.858""]","[1,0,1,1]",0,57,57,57,1,0,1,,,0,FALSE,,,,,,,,,,,,,,,,,,,,,,,,,,,,,,
,6158edc2606f1f7b2bad5ca5,001,2022-04-28_18h18.34.158,classification_task,2021.2.3,Win32,60.0132029,6158edc2606f1f7b2bad5ca5,626b377229c10585ec392f89,626b390682172bdf418a752d,,,,,,,,,,,,,,,,,,,,,,,l,1,1.6336,"[""0.091"",""0.434"",""0.599"",""0.682""]","[1,0,1,1]",0,58,58,58,1,1,0,,,0,FALSE,,,,,,,,,,,,,,,,,,,,,,,,,,,,,,
,6158edc2606f1f7b2bad5ca5,001,2022-04-28_18h18.34.158,classification_task,2021.2.3,Win32,60.0132029,6158edc2606f1f7b2bad5ca5,626b377229c10585ec392f89,626b390682172bdf418a752d,,,,,,,,,,,,,,,,,,,,,,,a,1,1.4181,"[""0.027"",""0.564"",""0.915"",""0.954""]","[0,1,1,1]",0,59,59,59,1,0,0,,,0,FALSE,,,,,,,,,,,,,,,,,,,,,,,,,,,,,,
,6158edc2606f1f7b2bad5ca5,001,2022-04-28_18h18.34.158,classification_task,2021.2.3,Win32,60.0132029,6158edc2606f1f7b2bad5ca5,626b377229c10585ec392f89,626b390682172bdf418a752d,,,,,,,,,,,,,,,,,,,,,,,l,1,0.8508,"[""0.091"",""0.199"",""0.404"",""0.682""]","[1,1,0,1]",0,60,60,60,1,1,0,,,0,FALSE,,,,,,,,,,,,,,,,,,,,,,,,,,,,,,
,6158edc2606f1f7b2bad5ca5,001,2022-04-28_18h18.34.158,classification_task,2021.2.3,Win32,60.0132029,6158edc2606f1f7b2bad5ca5,626b377229c10585ec392f89,626b390682172bdf418a752d,,,,,,,,,,,,,,,,,,,,,,,a,0,1.5666,"[""0.428"",""0.334"",""0.469"",""0.784""]","[0,1,1,1]",0,61,61,61,1,1,1,,,0,FALSE,,,,,,,,,,,,,,,,,,,,,,,,,,,,,,
,6158edc2606f1f7b2bad5ca5,001,2022-04-28_18h18.34.158,classification_task,2021.2.3,Win32,60.0132029,6158edc2606f1f7b2bad5ca5,626b377229c10585ec392f89,626b390682172bdf418a752d,,,,,,,,,,,,,,,,,,,,,,,l,1,1.1152,"[""0.091"",""0.199"",""0.599"",""0.404""]","[1,1,1,0]",0,62,62,62,1,1,0,,,0,FALSE,,,,,,,,,,,,,,,,,,,,,,,,,,,,,,
,6158edc2606f1f7b2bad5ca5,001,2022-04-28_18h18.34.158,classification_task,2021.2.3,Win32,60.0132029,6158edc2606f1f7b2bad5ca5,626b377229c10585ec392f89,626b390682172bdf418a752d,,,,,,,,,,,,,,,,,,,,,,,a,1,0.6005,"[""0.284"",""0.564"",""0.028"",""0.954""]","[1,1,0,1]",0,63,63,63,1,0,0,,,0,FALSE,,,,,,,,,,,,,,,,,,,,,,,,,,,,,,
,6158edc2606f1f7b2bad5ca5,001,2022-04-28_18h18.34.158,classification_task,2021.2.3,Win32,60.0132029,6158edc2606f1f7b2bad5ca5,626b377229c10585ec392f89,626b390682172bdf418a752d,,,,,,,,,,,,,,,,,,,,,,,,,,,,,,,,,,,,,,,0, ,,0,2.476974329,168.1926,0,1,1,1,1,2,2,,,,,,,,,,,,,,,,,
,6158edc2606f1f7b2bad5ca5,001,2022-04-28_18h18.34.158,classification_task,2021.2.3,Win32,60.0132029,6158edc2606f1f7b2bad5ca5,626b377229c10585ec392f89,626b390682172bdf418a752d,,,,,,,,,,,,,,,,,,,,,,,,,,,,,,,,,,,,,,,1,  ,,0,6.567705271,171.8018,0,1,1,1,1,2,2,,,,,,,,,,,,,,,,,
,6158edc2606f1f7b2bad5ca5,001,2022-04-28_18h18.34.158,classification_task,2021.2.3,Win32,60.0132029,6158edc2606f1f7b2bad5ca5,626b377229c10585ec392f89,626b390682172bdf418a752d,,,,,,,,,,,,,,,,,,,,,,,,,,,,,,,,,,,,,,,2,  ,,0,0.247893396,173.3349,0,1,1,1,1,2,2,,,,,,,,,,,,,,,,,
,6158edc2606f1f7b2bad5ca5,001,2022-04-28_18h18.34.158,classification_task,2021.2.3,Win32,60.0132029,6158edc2606f1f7b2bad5ca5,626b377229c10585ec392f89,626b390682172bdf418a752d,,,,,,,,,,,,,,,,,,,,,,,,,,,,,,,,,,,,,,,,,,,,,0,1,1,1,1,,2,,,,,,,,,,,,,,,,,
,6158edc2606f1f7b2bad5ca5,001,2022-04-28_18h18.34.158,classification_task,2021.2.3,Win32,60.0132029,6158edc2606f1f7b2bad5ca5,626b377229c10585ec392f89,626b390682172bdf418a752d,,,,,,,,,,,,,,,,,,,,,space,9.6987,a,1,2.4394,"[""0.250"",""0.514"",""0.734"",""0.858""]","[1,1,0,1]",0,0,0,0,1,0,1,,,0,FALSE,,,,,,,,,,,,,,,,,,,,,,,,,,,,,,
,6158edc2606f1f7b2bad5ca5,001,2022-04-28_18h18.34.158,classification_task,2021.2.3,Win32,60.0132029,6158edc2606f1f7b2bad5ca5,626b377229c10585ec392f89,626b390682172bdf418a752d,,,,,,,,,,,,,,,,,,,,,,,a,0,2.3667,"[""0.091"",""0.199"",""0.599"",""0.413""]","[1,1,1,0]",0,1,1,1,1,1,0,,,0,FALSE,,,,,,,,,,,,,,,,,,,,,,,,,,,,,,
,6158edc2606f1f7b2bad5ca5,001,2022-04-28_18h18.34.158,classification_task,2021.2.3,Win32,60.0132029,6158edc2606f1f7b2bad5ca5,626b377229c10585ec392f89,626b390682172bdf418a752d,,,,,,,,,,,,,,,,,,,,,,,l,1,0.9665,"[""0.129"",""0.638"",""0.469"",""0.784""]","[1,0,1,1]",0,2,2,2,1,1,1,,,0,FALSE,,,,,,,,,,,,,,,,,,,,,,,,,,,,,,
,6158edc2606f1f7b2bad5ca5,001,2022-04-28_18h18.34.158,classification_task,2021.2.3,Win32,60.0132029,6158edc2606f1f7b2bad5ca5,626b377229c10585ec392f89,626b390682172bdf418a752d,,,,,,,,,,,,,,,,,,,,,,,l,0,1.167,"[""0.058"",""0.514"",""0.817"",""0.858""]","[0,1,1,1]",0,3,3,3,1,0,1,,,0,FALSE,,,,,,,,,,,,,,,,,,,,,,,,,,,,,,
,6158edc2606f1f7b2bad5ca5,001,2022-04-28_18h18.34.158,classification_task,2021.2.3,Win32,60.0132029,6158edc2606f1f7b2bad5ca5,626b377229c10585ec392f89,626b390682172bdf418a752d,,,,,,,,,,,,,,,,,,,,,,,a,0,2.3851,"[""0.129"",""0.334"",""0.396"",""0.784""]","[1,1,0,1]",0,4,4,4,1,1,1,,,0,FALSE,,,,,,,,,,,,,,,,,,,,,,,,,,,,,,
,6158edc2606f1f7b2bad5ca5,001,2022-04-28_18h18.34.158,classification_task,2021.2.3,Win32,60.0132029,6158edc2606f1f7b2bad5ca5,626b377229c10585ec392f89,626b390682172bdf418a752d,,,,,,,,,,,,,,,,,,,,,,,l,0,1.9659,"[""0.284"",""0.564"",""0.915"",""0.413""]","[1,1,1,0]",0,5,5,5,1,0,0,,,0,FALSE,,,,,,,,,,,,,,,,,,,,,,,,,,,,,,
,6158edc2606f1f7b2bad5ca5,001,2022-04-28_18h18.34.158,classification_task,2021.2.3,Win32,60.0132029,6158edc2606f1f7b2bad5ca5,626b377229c10585ec392f89,626b390682172bdf418a752d,,,,,,,,,,,,,,,,,,,,,,,a,0,1.2667,"[""0.091"",""0.027"",""0.599"",""0.682""]","[1,0,1,1]",0,6,6,6,1,1,0,,,0,FALSE,,,,,,,,,,,,,,,,,,,,,,,,,,,,,,
,6158edc2606f1f7b2bad5ca5,001,2022-04-28_18h18.34.158,classification_task,2021.2.3,Win32,60.0132029,6158edc2606f1f7b2bad5ca5,626b377229c10585ec392f89,626b390682172bdf418a752d,,,,,,,,,,,,,,,,,,,,,,,a,0,1.9172,"[""0.390"",""0.199"",""0.599"",""0.682""]","[0,1,1,1]",0,7,7,7,1,1,0,,,0,FALSE,,,,,,,,,,,,,,,,,,,,,,,,,,,,,,
,6158edc2606f1f7b2bad5ca5,001,2022-04-28_18h18.34.158,classification_task,2021.2.3,Win32,60.0132029,6158edc2606f1f7b2bad5ca5,626b377229c10585ec392f89,626b390682172bdf418a752d,,,,,,,,,,,,,,,,,,,,,,,l,0,1.7513,"[""0.250"",""0.434"",""0.817"",""0.858""]","[1,0,1,1]",0,8,8,8,1,0,1,,,0,FALSE,,,,,,,,,,,,,,,,,,,,,,,,,,,,,,
,6158edc2606f1f7b2bad5ca5,001,2022-04-28_18h18.34.158,classification_task,2021.2.3,Win32,60.0132029,6158edc2606f1f7b2bad5ca5,626b377229c10585ec392f89,626b390682172bdf418a752d,,,,,,,,,,,,,,,,,,,,,,,l,0,2.3182,"[""0.434"",""0.564"",""0.915"",""0.954""]","[0,1,1,1]",0,9,9,9,1,0,0,,,0,FALSE,,,,,,,,,,,,,,,,,,,,,,,,,,,,,,
,6158edc2606f1f7b2bad5ca5,001,2022-04-28_18h18.34.158,classification_task,2021.2.3,Win32,60.0132029,6158edc2606f1f7b2bad5ca5,626b377229c10585ec392f89,626b390682172bdf418a752d,,,,,,,,,,,,,,,,,,,,,,,a,1,2.2335,"[""0.284"",""0.564"",""0.165"",""0.954""]","[1,1,0,1]",0,10,10,10,1,0,0,,,0,FALSE,,,,,,,,,,,,,,,,,,,,,,,,,,,,,,
,6158edc2606f1f7b2bad5ca5,001,2022-04-28_18h18.34.158,classification_task,2021.2.3,Win32,60.0132029,6158edc2606f1f7b2bad5ca5,626b377229c10585ec392f89,626b390682172bdf418a752d,,,,,,,,,,,,,,,,,,,,,,,l,1,2.0488,"[""0.428"",""0.334"",""0.469"",""0.784""]","[0,1,1,1]",0,11,11,11,1,1,1,,,0,FALSE,,,,,,,,,,,,,,,,,,,,,,,,,,,,,,
,6158edc2606f1f7b2bad5ca5,001,2022-04-28_18h18.34.158,classification_task,2021.2.3,Win32,60.0132029,6158edc2606f1f7b2bad5ca5,626b377229c10585ec392f89,626b390682172bdf418a752d,,,,,,,,,,,,,,,,,,,,,,,a,0,1.3148,"[""0.091"",""0.199"",""0.734"",""0.682""]","[1,1,0,1]",0,12,12,12,1,1,0,,,0,FALSE,,,,,,,,,,,,,,,,,,,,,,,,,,,,,,
,6158edc2606f1f7b2bad5ca5,001,2022-04-28_18h18.34.158,classification_task,2021.2.3,Win32,60.0132029,6158edc2606f1f7b2bad5ca5,626b377229c10585ec392f89,626b390682172bdf418a752d,,,,,,,,,,,,,,,,,,,,,,,a,1,1.8999,"[""0.284"",""0.404"",""0.915"",""0.954""]","[1,0,1,1]",0,13,13,13,1,0,0,,,0,FALSE,,,,,,,,,,,,,,,,,,,,,,,,,,,,,,
,6158edc2606f1f7b2bad5ca5,001,2022-04-28_18h18.34.158,classification_task,2021.2.3,Win32,60.0132029,6158edc2606f1f7b2bad5ca5,626b377229c10585ec392f89,626b390682172bdf418a752d,,,,,,,,,,,,,,,,,,,,,,,l,0,0.8002,"[""0.250"",""0.514"",""0.817"",""0.428""]","[1,1,1,0]",0,14,14,14,1,0,1,,,0,FALSE,,,,,,,,,,,,,,,,,,,,,,,,,,,,,,
,6158edc2606f1f7b2bad5ca5,001,2022-04-28_18h18.34.158,classification_task,2021.2.3,Win32,60.0132029,6158edc2606f1f7b2bad5ca5,626b377229c10585ec392f89,626b390682172bdf418a752d,,,,,,,,,,,,,,,,,,,,,,,l,1,1.5336,"[""0.129"",""0.334"",""0.469"",""0.404""]","[1,1,1,0]",0,15,15,15,1,1,1,,,0,FALSE,,,,,,,,,,,,,,,,,,,,,,,,,,,,,,
,6158edc2606f1f7b2bad5ca5,001,2022-04-28_18h18.34.158,classification_task,2021.2.3,Win32,60.0132029,6158edc2606f1f7b2bad5ca5,626b377229c10585ec392f89,626b390682172bdf418a752d,,,,,,,,,,,,,,,,,,,,,,,l,1,1.8177,"[""0.129"",""0.334"",""0.413"",""0.784""]","[1,1,0,1]",0,16,16,16,1,1,1,,,0,FALSE,,,,,,,,,,,,,,,,,,,,,,,,,,,,,,
,6158edc2606f1f7b2bad5ca5,001,2022-04-28_18h18.34.158,classification_task,2021.2.3,Win32,60.0132029,6158edc2606f1f7b2bad5ca5,626b377229c10585ec392f89,626b390682172bdf418a752d,,,,,,,,,,,,,,,,,,,,,,,a,0,1.1855,"[""0.129"",""0.334"",""0.469"",""0.734""]","[1,1,1,0]",0,17,17,17,1,1,1,,,0,FALSE,,,,,,,,,,,,,,,,,,,,,,,,,,,,,,
,6158edc2606f1f7b2bad5ca5,001,2022-04-28_18h18.34.158,classification_task,2021.2.3,Win32,60.0132029,6158edc2606f1f7b2bad5ca5,626b377229c10585ec392f89,626b390682172bdf418a752d,,,,,,,,,,,,,,,,,,,,,,,l,1,1.2668,"[""0.091"",""0.199"",""0.599"",""0.058""]","[1,1,1,0]",0,18,18,18,1,1,0,,,0,FALSE,,,,,,,,,,,,,,,,,,,,,,,,,,,,,,
,6158edc2606f1f7b2bad5ca5,001,2022-04-28_18h18.34.158,classification_task,2021.2.3,Win32,60.0132029,6158edc2606f1f7b2bad5ca5,626b377229c10585ec392f89,626b390682172bdf418a752d,,,,,,,,,,,,,,,,,,,,,,,l,0,1.0001,"[""0.433"",""0.564"",""0.915"",""0.954""]","[0,1,1,1]",0,19,19,19,1,0,0,,,0,FALSE,,,,,,,,,,,,,,,,,,,,,,,,,,,,,,
,6158edc2606f1f7b2bad5ca5,001,2022-04-28_18h18.34.158,classification_task,2021.2.3,Win32,60.0132029,6158edc2606f1f7b2bad5ca5,626b377229c10585ec392f89,626b390682172bdf418a752d,,,,,,,,,,,,,,,,,,,,,,,a,1,1.2,"[""0.284"",""0.564"",""0.428"",""0.954""]","[1,1,0,1]",0,20,20,20,1,0,0,,,0,FALSE,,,,,,,,,,,,,,,,,,,,,,,,,,,,,,
,6158edc2606f1f7b2bad5ca5,001,2022-04-28_18h18.34.158,classification_task,2021.2.3,Win32,60.0132029,6158edc2606f1f7b2bad5ca5,626b377229c10585ec392f89,626b390682172bdf418a752d,,,,,,,,,,,,,,,,,,,,,,,l,0,1.5002,"[""0.250"",""0.165"",""0.817"",""0.858""]","[1,0,1,1]",0,21,21,21,1,0,1,,,0,FALSE,,,,,,,,,,,,,,,,,,,,,,,,,,,,,,
,6158edc2606f1f7b2bad5ca5,001,2022-04-28_18h18.34.158,classification_task,2021.2.3,Win32,60.0132029,6158edc2606f1f7b2bad5ca5,626b377229c10585ec392f89,626b390682172bdf418a752d,,,,,,,,,,,,,,,,,,,,,,,a,0,1.1171,"[""0.091"",""0.199"",""0.396"",""0.682""]","[1,1,0,1]",0,22,22,22,1,1,0,,,0,FALSE,,,,,,,,,,,,,,,,,,,,,,,,,,,,,,
,6158edc2606f1f7b2bad5ca5,001,2022-04-28_18h18.34.158,classification_task,2021.2.3,Win32,60.0132029,6158edc2606f1f7b2bad5ca5,626b377229c10585ec392f89,626b390682172bdf418a752d,,,,,,,,,,,,,,,,,,,,,,,l,1,7.0849,"[""0.091"",""0.434"",""0.599"",""0.682""]","[1,0,1,1]",0,23,23,23,1,1,0,,,0,FALSE,,,,,,,,,,,,,,,,,,,,,,,,,,,,,,
,6158edc2606f1f7b2bad5ca5,001,2022-04-28_18h18.34.158,classification_task,2021.2.3,Win32,60.0132029,6158edc2606f1f7b2bad5ca5,626b377229c10585ec392f89,626b390682172bdf418a752d,,,,,,,,,,,,,,,,,,,,,,,a,1,2.2996,"[""0.284"",""0.564"",""0.915"",""0.428""]","[1,1,1,0]",0,24,24,24,1,0,0,,,0,FALSE,,,,,,,,,,,,,,,,,,,,,,,,,,,,,,
,6158edc2606f1f7b2bad5ca5,001,2022-04-28_18h18.34.158,classification_task,2021.2.3,Win32,60.0132029,6158edc2606f1f7b2bad5ca5,626b377229c10585ec392f89,626b390682172bdf418a752d,,,,,,,,,,,,,,,,,,,,,,,a,1,1.4146,"[""0.250"",""0.514"",""0.396"",""0.858""]","[1,1,0,1]",0,25,25,25,1,0,1,,,0,FALSE,,,,,,,,,,,,,,,,,,,,,,,,,,,,,,
,6158edc2606f1f7b2bad5ca5,001,2022-04-28_18h18.34.158,classification_task,2021.2.3,Win32,60.0132029,6158edc2606f1f7b2bad5ca5,626b377229c10585ec392f89,626b390682172bdf418a752d,,,,,,,,,,,,,,,,,,,,,,,l,1,1.6001,"[""0.413"",""0.334"",""0.469"",""0.784""]","[0,1,1,1]",0,26,26,26,1,1,1,,,0,FALSE,,,,,,,,,,,,,,,,,,,,,,,,,,,,,,
,6158edc2606f1f7b2bad5ca5,001,2022-04-28_18h18.34.158,classification_task,2021.2.3,Win32,60.0132029,6158edc2606f1f7b2bad5ca5,626b377229c10585ec392f89,626b390682172bdf418a752d,,,,,,,,,,,,,,,,,,,,,,,l,0,1.8184,"[""0.165"",""0.514"",""0.817"",""0.858""]","[0,1,1,1]",0,27,27,27,1,0,1,,,0,FALSE,,,,,,,,,,,,,,,,,,,,,,,,,,,,,,
,6158edc2606f1f7b2bad5ca5,001,2022-04-28_18h18.34.158,classification_task,2021.2.3,Win32,60.0132029,6158edc2606f1f7b2bad5ca5,626b377229c10585ec392f89,626b390682172bdf418a752d,,,,,,,,,,,,,,,,,,,,,,,a,0,0.9514,"[""0.129"",""0.031"",""0.469"",""0.784""]","[1,0,1,1]",0,28,28,28,1,1,1,,,0,FALSE,,,,,,,,,,,,,,,,,,,,,,,,,,,,,,
,6158edc2606f1f7b2bad5ca5,001,2022-04-28_18h18.34.158,classification_task,2021.2.3,Win32,60.0132029,6158edc2606f1f7b2bad5ca5,626b377229c10585ec392f89,626b390682172bdf418a752d,,,,,,,,,,,,,,,,,,,,,,,a,1,1.0854,"[""0.250"",""0.514"",""0.817"",""0.413""]","[1,1,1,0]",0,29,29,29,1,0,1,,,0,FALSE,,,,,,,,,,,,,,,,,,,,,,,,,,,,,,
,6158edc2606f1f7b2bad5ca5,001,2022-04-28_18h18.34.158,classification_task,2021.2.3,Win32,60.0132029,6158edc2606f1f7b2bad5ca5,626b377229c10585ec392f89,626b390682172bdf418a752d,,,,,,,,,,,,,,,,,,,,,,,l,1,0.9518,"[""0.433"",""0.199"",""0.599"",""0.682""]","[0,1,1,1]",0,30,30,30,1,1,0,,,0,FALSE,,,,,,,,,,,,,,,,,,,,,,,,,,,,,,
,6158edc2606f1f7b2bad5ca5,001,2022-04-28_18h18.34.158,classification_task,2021.2.3,Win32,60.0132029,6158edc2606f1f7b2bad5ca5,626b377229c10585ec392f89,626b390682172bdf418a752d,,,,,,,,,,,,,,,,,,,,,,,l,0,0.9668,"[""0.284"",""0.027"",""0.915"",""0.954""]","[1,0,1,1]",0,31,31,31,1,0,0,,,0,FALSE,,,,,,,,,,,,,,,,,,,,,,,,,,,,,,
,6158edc2606f1f7b2bad5ca5,001,2022-04-28_18h18.34.158,classification_task,2021.2.3,Win32,60.0132029,6158edc2606f1f7b2bad5ca5,626b377229c10585ec392f89,626b390682172bdf418a752d,,,,,,,,,,,,,,,,,,,,,,,a,0,3.1497,"[""0.091"",""0.028"",""0.599"",""0.682""]","[1,0,1,1]",0,32,32,32,1,1,0,,,0,FALSE,,,,,,,,,,,,,,,,,,,,,,,,,,,,,,
,6158edc2606f1f7b2bad5ca5,001,2022-04-28_18h18.34.158,classification_task,2021.2.3,Win32,60.0132029,6158edc2606f1f7b2bad5ca5,626b377229c10585ec392f89,626b390682172bdf418a752d,,,,,,,,,,,,,,,,,,,,,,,l,1,0.8667,"[""0.129"",""0.334"",""0.469"",""0.428""]","[1,1,1,0]",0,33,33,33,1,1,1,,,0,FALSE,,,,,,,,,,,,,,,,,,,,,,,,,,,,,,
,6158edc2606f1f7b2bad5ca5,001,2022-04-28_18h18.34.158,classification_task,2021.2.3,Win32,60.0132029,6158edc2606f1f7b2bad5ca5,626b377229c10585ec392f89,626b390682172bdf418a752d,,,,,,,,,,,,,,,,,,,,,,,l,1,1.5485,"[""0.129"",""0.334"",""0.396"",""0.784""]","[1,1,0,1]",0,34,34,34,1,1,1,,,0,FALSE,,,,,,,,,,,,,,,,,,,,,,,,,,,,,,
,6158edc2606f1f7b2bad5ca5,001,2022-04-28_18h18.34.158,classification_task,2021.2.3,Win32,60.0132029,6158edc2606f1f7b2bad5ca5,626b377229c10585ec392f89,626b390682172bdf418a752d,,,,,,,,,,,,,,,,,,,,,,,l,0,1.4335,"[""0.250"",""0.514"",""0.031"",""0.858""]","[1,1,0,1]",0,35,35,35,1,0,1,,,0,FALSE,,,,,,,,,,,,,,,,,,,,,,,,,,,,,,
,6158edc2606f1f7b2bad5ca5,001,2022-04-28_18h18.34.158,classification_task,2021.2.3,Win32,60.0132029,6158edc2606f1f7b2bad5ca5,626b377229c10585ec392f89,626b390682172bdf418a752d,,,,,,,,,,,,,,,,,,,,,,,l,1,1.2667,"[""0.413"",""0.334"",""0.469"",""0.784""]","[0,1,1,1]",0,36,36,36,1,1,1,,,0,FALSE,,,,,,,,,,,,,,,,,,,,,,,,,,,,,,
,6158edc2606f1f7b2bad5ca5,001,2022-04-28_18h18.34.158,classification_task,2021.2.3,Win32,60.0132029,6158edc2606f1f7b2bad5ca5,626b377229c10585ec392f89,626b390682172bdf418a752d,,,,,,,,,,,,,,,,,,,,,,,a,1,1.2335,"[""0.284"",""0.428"",""0.915"",""0.954""]","[1,0,1,1]",0,37,37,37,1,0,0,,,0,FALSE,,,,,,,,,,,,,,,,,,,,,,,,,,,,,,
,6158edc2606f1f7b2bad5ca5,001,2022-04-28_18h18.34.158,classification_task,2021.2.3,Win32,60.0132029,6158edc2606f1f7b2bad5ca5,626b377229c10585ec392f89,626b390682172bdf418a752d,,,,,,,,,,,,,,,,,,,,,,,l,0,0.9859,"[""0.434"",""0.514"",""0.817"",""0.858""]","[0,1,1,1]",0,38,38,38,1,0,1,,,0,FALSE,,,,,,,,,,,,,,,,,,,,,,,,,,,,,,
,6158edc2606f1f7b2bad5ca5,001,2022-04-28_18h18.34.158,classification_task,2021.2.3,Win32,60.0132029,6158edc2606f1f7b2bad5ca5,626b377229c10585ec392f89,626b390682172bdf418a752d,,,,,,,,,,,,,,,,,,,,,,,l,0,1.4179,"[""0.250"",""0.413"",""0.817"",""0.858""]","[1,0,1,1]",0,39,39,39,1,0,1,,,0,FALSE,,,,,,,,,,,,,,,,,,,,,,,,,,,,,,
,6158edc2606f1f7b2bad5ca5,001,2022-04-28_18h18.34.158,classification_task,2021.2.3,Win32,60.0132029,6158edc2606f1f7b2bad5ca5,626b377229c10585ec392f89,626b390682172bdf418a752d,,,,,,,,,,,,,,,,,,,,,,,a,1,1.0341,"[""0.284"",""0.564"",""0.396"",""0.954""]","[1,1,0,1]",0,40,40,40,1,0,0,,,0,FALSE,,,,,,,,,,,,,,,,,,,,,,,,,,,,,,
,6158edc2606f1f7b2bad5ca5,001,2022-04-28_18h18.34.158,classification_task,2021.2.3,Win32,60.0132029,6158edc2606f1f7b2bad5ca5,626b377229c10585ec392f89,626b390682172bdf418a752d,,,,,,,,,,,,,,,,,,,,,,,a,1,1.0333,"[""0.250"",""0.514"",""0.817"",""0.428""]","[1,1,1,0]",0,41,41,41,1,0,1,,,0,FALSE,,,,,,,,,,,,,,,,,,,,,,,,,,,,,,
,6158edc2606f1f7b2bad5ca5,001,2022-04-28_18h18.34.158,classification_task,2021.2.3,Win32,60.0132029,6158edc2606f1f7b2bad5ca5,626b377229c10585ec392f89,626b390682172bdf418a752d,,,,,,,,,,,,,,,,,,,,,,,a,1,1.151,"[""0.284"",""0.564"",""0.915"",""0.404""]","[1,1,1,0]",0,42,42,42,1,0,0,,,0,FALSE,,,,,,,,,,,,,,,,,,,,,,,,,,,,,,
,6158edc2606f1f7b2bad5ca5,001,2022-04-28_18h18.34.158,classification_task,2021.2.3,Win32,60.0132029,6158edc2606f1f7b2bad5ca5,626b377229c10585ec392f89,626b390682172bdf418a752d,,,,,,,,,,,,,,,,,,,,,,,l,1,1.2517,"[""0.091"",""0.199"",""0.599"",""0.028""]","[1,1,1,0]",0,43,43,43,1,1,0,,,0,FALSE,,,,,,,,,,,,,,,,,,,,,,,,,,,,,,
,6158edc2606f1f7b2bad5ca5,001,2022-04-28_18h18.34.158,classification_task,2021.2.3,Win32,60.0132029,6158edc2606f1f7b2bad5ca5,626b377229c10585ec392f89,626b390682172bdf418a752d,,,,,,,,,,,,,,,,,,,,,,,a,1,1.3842,"[""0.428"",""0.564"",""0.915"",""0.954""]","[0,1,1,1]",0,44,44,44,1,0,0,,,0,FALSE,,,,,,,,,,,,,,,,,,,,,,,,,,,,,,
,6158edc2606f1f7b2bad5ca5,001,2022-04-28_18h18.34.158,classification_task,2021.2.3,Win32,60.0132029,6158edc2606f1f7b2bad5ca5,626b377229c10585ec392f89,626b390682172bdf418a752d,,,,,,,,,,,,,,,,,,,,,,,l,1,1.1852,"[""0.129"",""0.404"",""0.469"",""0.784""]","[1,0,1,1]",0,45,45,45,1,1,1,,,0,FALSE,,,,,,,,,,,,,,,,,,,,,,,,,,,,,,
,6158edc2606f1f7b2bad5ca5,001,2022-04-28_18h18.34.158,classification_task,2021.2.3,Win32,60.0132029,6158edc2606f1f7b2bad5ca5,626b377229c10585ec392f89,626b390682172bdf418a752d,,,,,,,,,,,,,,,,,,,,,,,a,0,0.952,"[""0.091"",""0.199"",""0.734"",""0.682""]","[1,1,0,1]",0,46,46,46,1,1,0,,,0,FALSE,,,,,,,,,,,,,,,,,,,,,,,,,,,,,,
,6158edc2606f1f7b2bad5ca5,001,2022-04-28_18h18.34.158,classification_task,2021.2.3,Win32,60.0132029,6158edc2606f1f7b2bad5ca5,626b377229c10585ec392f89,626b390682172bdf418a752d,,,,,,,,,,,,,,,,,,,,,,,a,0,1.0327,"[""0.390"",""0.199"",""0.599"",""0.682""]","[0,1,1,1]",0,47,47,47,1,1,0,,,0,FALSE,,,,,,,,,,,,,,,,,,,,,,,,,,,,,,
,6158edc2606f1f7b2bad5ca5,001,2022-04-28_18h18.34.158,classification_task,2021.2.3,Win32,60.0132029,6158edc2606f1f7b2bad5ca5,626b377229c10585ec392f89,626b390682172bdf418a752d,,,,,,,,,,,,,,,,,,,,,,,a,1,1.833,"[""0.250"",""0.028"",""0.817"",""0.858""]","[1,0,1,1]",0,48,48,48,1,0,1,,,0,FALSE,,,,,,,,,,,,,,,,,,,,,,,,,,,,,,
,6158edc2606f1f7b2bad5ca5,001,2022-04-28_18h18.34.158,classification_task,2021.2.3,Win32,60.0132029,6158edc2606f1f7b2bad5ca5,626b377229c10585ec392f89,626b390682172bdf418a752d,,,,,,,,,,,,,,,,,,,,,,,a,1,1.1186,"[""0.284"",""0.434"",""0.915"",""0.954""]","[1,0,1,1]",0,49,49,49,1,0,0,,,0,FALSE,,,,,,,,,,,,,,,,,,,,,,,,,,,,,,
,6158edc2606f1f7b2bad5ca5,001,2022-04-28_18h18.34.158,classification_task,2021.2.3,Win32,60.0132029,6158edc2606f1f7b2bad5ca5,626b377229c10585ec392f89,626b390682172bdf418a752d,,,,,,,,,,,,,,,,,,,,,,,l,1,0.7332,"[""0.028"",""0.334"",""0.469"",""0.784""]","[0,1,1,1]",0,50,50,50,1,1,1,,,0,FALSE,,,,,,,,,,,,,,,,,,,,,,,,,,,,,,
,6158edc2606f1f7b2bad5ca5,001,2022-04-28_18h18.34.158,classification_task,2021.2.3,Win32,60.0132029,6158edc2606f1f7b2bad5ca5,626b377229c10585ec392f89,626b390682172bdf418a752d,,,,,,,,,,,,,,,,,,,,,,,l,0,0.9147,"[""0.284"",""0.564"",""0.413"",""0.954""]","[1,1,0,1]",0,51,51,51,1,0,0,,,0,FALSE,,,,,,,,,,,,,,,,,,,,,,,,,,,,,,
,6158edc2606f1f7b2bad5ca5,001,2022-04-28_18h18.34.158,classification_task,2021.2.3,Win32,60.0132029,6158edc2606f1f7b2bad5ca5,626b377229c10585ec392f89,626b390682172bdf418a752d,,,,,,,,,,,,,,,,,,,,,,,l,0,1.1149,"[""0.250"",""0.514"",""0.817"",""0.405""]","[1,1,1,0]",0,52,52,52,1,0,1,,,0,FALSE,,,,,,,,,,,,,,,,,,,,,,,,,,,,,,
,6158edc2606f1f7b2bad5ca5,001,2022-04-28_18h18.34.158,classification_task,2021.2.3,Win32,60.0132029,6158edc2606f1f7b2bad5ca5,626b377229c10585ec392f89,626b390682172bdf418a752d,,,,,,,,,,,,,,,,,,,,,,,a,1,0.8826,"[""0.284"",""0.564"",""0.915"",""0.058""]","[1,1,1,0]",0,53,53,53,1,0,0,,,0,FALSE,,,,,,,,,,,,,,,,,,,,,,,,,,,,,,
,6158edc2606f1f7b2bad5ca5,001,2022-04-28_18h18.34.158,classification_task,2021.2.3,Win32,60.0132029,6158edc2606f1f7b2bad5ca5,626b377229c10585ec392f89,626b390682172bdf418a752d,,,,,,,,,,,,,,,,,,,,,,,a,1,0.9823,"[""0.434"",""0.514"",""0.817"",""0.858""]","[0,1,1,1]",0,54,54,54,1,0,1,,,0,FALSE,,,,,,,,,,,,,,,,,,,,,,,,,,,,,,
,6158edc2606f1f7b2bad5ca5,001,2022-04-28_18h18.34.158,classification_task,2021.2.3,Win32,60.0132029,6158edc2606f1f7b2bad5ca5,626b377229c10585ec392f89,626b390682172bdf418a752d,,,,,,,,,,,,,,,,,,,,,,,l,1,0.8819,"[""0.129"",""0.404"",""0.469"",""0.784""]","[1,0,1,1]",0,55,55,55,1,1,1,,,0,FALSE,,,,,,,,,,,,,,,,,,,,,,,,,,,,,,
,6158edc2606f1f7b2bad5ca5,001,2022-04-28_18h18.34.158,classification_task,2021.2.3,Win32,60.0132029,6158edc2606f1f7b2bad5ca5,626b377229c10585ec392f89,626b390682172bdf418a752d,,,,,,,,,,,,,,,,,,,,,,,l,0,1.1664,"[""0.250"",""0.514"",""0.405"",""0.858""]","[1,1,0,1]",0,56,56,56,1,0,1,,,0,FALSE,,,,,,,,,,,,,,,,,,,,,,,,,,,,,,
,6158edc2606f1f7b2bad5ca5,001,2022-04-28_18h18.34.158,classification_task,2021.2.3,Win32,60.0132029,6158edc2606f1f7b2bad5ca5,626b377229c10585ec392f89,626b390682172bdf418a752d,,,,,,,,,,,,,,,,,,,,,,,a,0,1.0513,"[""0.027"",""0.199"",""0.599"",""0.682""]","[0,1,1,1]",0,57,57,57,1,1,0,,,0,FALSE,,,,,,,,,,,,,,,,,,,,,,,,,,,,,,
,6158edc2606f1f7b2bad5ca5,001,2022-04-28_18h18.34.158,classification_task,2021.2.3,Win32,60.0132029,6158edc2606f1f7b2bad5ca5,626b377229c10585ec392f89,626b390682172bdf418a752d,,,,,,,,,,,,,,,,,,,,,,,l,0,1.0517,"[""0.031"",""0.564"",""0.915"",""0.954""]","[0,1,1,1]",0,58,58,58,1,0,0,,,0,FALSE,,,,,,,,,,,,,,,,,,,,,,,,,,,,,,
,6158edc2606f1f7b2bad5ca5,001,2022-04-28_18h18.34.158,classification_task,2021.2.3,Win32,60.0132029,6158edc2606f1f7b2bad5ca5,626b377229c10585ec392f89,626b390682172bdf418a752d,,,,,,,,,,,,,,,,,,,,,,,l,1,1.1852,"[""0.091"",""0.199"",""0.599"",""0.027""]","[1,1,1,0]",0,59,59,59,1,1,0,,,0,FALSE,,,,,,,,,,,,,,,,,,,,,,,,,,,,,,
,6158edc2606f1f7b2bad5ca5,001,2022-04-28_18h18.34.158,classification_task,2021.2.3,Win32,60.0132029,6158edc2606f1f7b2bad5ca5,626b377229c10585ec392f89,626b390682172bdf418a752d,,,,,,,,,,,,,,,,,,,,,,,l,1,1.6839,"[""0.129"",""0.334"",""0.028"",""0.784""]","[1,1,0,1]",0,60,60,60,1,1,1,,,0,FALSE,,,,,,,,,,,,,,,,,,,,,,,,,,,,,,
,6158edc2606f1f7b2bad5ca5,001,2022-04-28_18h18.34.158,classification_task,2021.2.3,Win32,60.0132029,6158edc2606f1f7b2bad5ca5,626b377229c10585ec392f89,626b390682172bdf418a752d,,,,,,,,,,,,,,,,,,,,,,,l,1,1.3668,"[""0.129"",""0.334"",""0.469"",""0.734""]","[1,1,1,0]",0,61,61,61,1,1,1,,,0,FALSE,,,,,,,,,,,,,,,,,,,,,,,,,,,,,,
,6158edc2606f1f7b2bad5ca5,001,2022-04-28_18h18.34.158,classification_task,2021.2.3,Win32,60.0132029,6158edc2606f1f7b2bad5ca5,626b377229c10585ec392f89,626b390682172bdf418a752d,,,,,,,,,,,,,,,,,,,,,,,l,1,1.7333,"[""0.091"",""0.404"",""0.599"",""0.682""]","[1,0,1,1]",0,62,62,62,1,1,0,,,0,FALSE,,,,,,,,,,,,,,,,,,,,,,,,,,,,,,
,6158edc2606f1f7b2bad5ca5,001,2022-04-28_18h18.34.158,classification_task,2021.2.3,Win32,60.0132029,6158edc2606f1f7b2bad5ca5,626b377229c10585ec392f89,626b390682172bdf418a752d,,,,,,,,,,,,,,,,,,,,,,,a,0,1.7343,"[""0.091"",""0.199"",""0.433"",""0.682""]","[1,1,0,1]",0,63,63,63,1,1,0,,,0,FALSE,,,,,,,,,,,,,,,,,,,,,,,,,,,,,,
,6158edc2606f1f7b2bad5ca5,001,2022-04-28_18h18.34.158,classification_task,2021.2.3,Win32,60.0132029,6158edc2606f1f7b2bad5ca5,626b377229c10585ec392f89,626b390682172bdf418a752d,,,,,,,,,,,,,,,,,,,,,,,,,,,,,,,,,,,,,,,0, ,,0,3.505780913,178.4059,0,2,2,2,1,2,3,,,,,,,,,,,,,,,,,
,6158edc2606f1f7b2bad5ca5,001,2022-04-28_18h18.34.158,classification_task,2021.2.3,Win32,60.0132029,6158edc2606f1f7b2bad5ca5,626b377229c10585ec392f89,626b390682172bdf418a752d,,,,,,,,,,,,,,,,,,,,,,,,,,,,,,,,,,,,,,,1,  ,,0,6.739173035,180.3814,0,2,2,2,1,2,3,,,,,,,,,,,,,,,,,
,6158edc2606f1f7b2bad5ca5,001,2022-04-28_18h18.34.158,classification_task,2021.2.3,Win32,60.0132029,6158edc2606f1f7b2bad5ca5,626b377229c10585ec392f89,626b390682172bdf418a752d,,,,,,,,,,,,,,,,,,,,,,,,,,,,,,,,,,,,,,,2,  ,,0,9.335684891,184.5144,0,2,2,2,1,2,3,,,,,,,,,,,,,,,,,
,6158edc2606f1f7b2bad5ca5,001,2022-04-28_18h18.34.158,classification_task,2021.2.3,Win32,60.0132029,6158edc2606f1f7b2bad5ca5,626b377229c10585ec392f89,626b390682172bdf418a752d,,,,,,,,,,,,,,,,,,,,,,,,,,,,,,,,,,,,,,,,,,,,,0,2,2,2,1,,3,,,,,,,,,,,,,,,,,
,6158edc2606f1f7b2bad5ca5,001,2022-04-28_18h18.34.158,classification_task,2021.2.3,Win32,60.0132029,6158edc2606f1f7b2bad5ca5,626b377229c10585ec392f89,626b390682172bdf418a752d,,,,,,,,,,,,,,,,,,,,,,,,,,,,,,,,,,,,,,,,,,,,,,,,,,,,,I believe the aid is a competent performer,,0.7,0,3,965.1827,0,0,0,0,1,0,,,,
,6158edc2606f1f7b2bad5ca5,001,2022-04-28_18h18.34.158,classification_task,2021.2.3,Win32,60.0132029,6158edc2606f1f7b2bad5ca5,626b377229c10585ec392f89,626b390682172bdf418a752d,,,,,,,,,,,,,,,,,,,,,,,,,,,,,,,,,,,,,,,,,,,,,,,,,,,,,I trust the aid,,0.7,0,3,967.3309,0,0,0,0,1,0,,,,
,6158edc2606f1f7b2bad5ca5,001,2022-04-28_18h18.34.158,classification_task,2021.2.3,Win32,60.0132029,6158edc2606f1f7b2bad5ca5,626b377229c10585ec392f89,626b390682172bdf418a752d,,,,,,,,,,,,,,,,,,,,,,,,,,,,,,,,,,,,,,,,,,,,,,,,,,,,,I have confidence in the advice given by the aid,,0.7,0,3,968.6963,0,0,0,0,1,0,,,,
,6158edc2606f1f7b2bad5ca5,001,2022-04-28_18h18.34.158,classification_task,2021.2.3,Win32,60.0132029,6158edc2606f1f7b2bad5ca5,626b377229c10585ec392f89,626b390682172bdf418a752d,,,,,,,,,,,,,,,,,,,,,,,,,,,,,,,,,,,,,,,,,,,,,,,,,,,,,I can depend on the aid,,0.7,0,5,970.3239,0,0,0,0,1,0,,,,
,6158edc2606f1f7b2bad5ca5,001,2022-04-28_18h18.34.158,classification_task,2021.2.3,Win32,60.0132029,6158edc2606f1f7b2bad5ca5,626b377229c10585ec392f89,626b390682172bdf418a752d,,,,,,,,,,,,,,,,,,,,,,,,,,,,,,,,,,,,,,,,,,,,,,,,,,,,,I can rely on the aid to behave in consistent ways,,0.7,0,5,973.1005,0,0,0,0,1,0,,,,
,6158edc2606f1f7b2bad5ca5,001,2022-04-28_18h18.34.158,classification_task,2021.2.3,Win32,60.0132029,6158edc2606f1f7b2bad5ca5,626b377229c10585ec392f89,626b390682172bdf418a752d,,,,,,,,,,,,,,,,,,,,,,,,,,,,,,,,,,,,,,,,,,,,,,,,,,,,,I can rely on the aid to do its best every time I take its advice,,0.7,0,5,975.1494,0,0,0,0,1,0,,,,
,6158edc2606f1f7b2bad5ca5,001,2022-04-28_18h18.34.158,classification_task,2021.2.3,Win32,60.0132029,6158edc2606f1f7b2bad5ca5,626b377229c10585ec392f89,626b390682172bdf418a752d,,,,,,,,,,,,,,,,,,,,,,,,,,,,,,,,,,,,,,,,,,,,,,,,,,,,,"On trials you completed with assistance from the aid, how frequently did you think the aid was correct?",,0.7,0,50%,,0,0,0,0,1,0,,,,
,6158edc2606f1f7b2bad5ca5,001,2022-04-28_18h18.34.158,classification_task,2021.2.3,Win32,60.0132029,6158edc2606f1f7b2bad5ca5,626b377229c10585ec392f89,626b390682172bdf418a752d,,,,,,,,,,,,,,,,,,,,,,,,,,,,,,,,,,,,,,,,,,,,,,,,,,,,,"On trials you completed without the aid, how frequently did you think you were correct?",,0.7,0,30%,,0,0,0,0,1,0,,,,
,6158edc2606f1f7b2bad5ca5,001,2022-04-28_18h18.34.158,classification_task,2021.2.3,Win32,60.0132029,6158edc2606f1f7b2bad5ca5,626b377229c10585ec392f89,626b390682172bdf418a752d,,,,,,,,,,,,,,,,,,,,,,,,,,,,,,,,,,,,,,,,,,,,,,,,,,,,,,,,,,,0,0,0,0,1,,,,,
,6158edc2606f1f7b2bad5ca5,001,2022-04-28_18h18.34.158,classification_task,2021.2.3,Win32,60.0132029,6158edc2606f1f7b2bad5ca5,626b377229c10585ec392f89,626b390682172bdf418a752d,,,,,,,,,,,,,,,,,,,,,,,,,,,,,,,,,,,,,,,,,,,,,,,,,,,,,,,,,,,,,,,,,space,6.273,1001.9822,
,6158edc2606f1f7b2bad5ca5,001,2022-04-28_18h18.34.158,classification_task,2021.2.3,Win32,60.0132029,6158edc2606f1f7b2bad5ca5,626b377229c10585ec392f89,626b390682172bdf418a752d,,,,,,,,,,,,,,,,,,,,,,,,,,,,,,,,,,,,,,,,,,,,,,,,,,,,,,,,,,,,,,,,,,,,"Mozilla/5.0 (Windows NT 10.0; Win64; x64) AppleWebKit/537.36 (KHTML, like Gecko) Chrome/99.0.4844.84 Safari/537.36 OPR/85.0.4341.75"
